counterbalancing_condition,instr_done_keyboard.keys,instr_done_keyboard.rt,instr_done_touch.x,instr_done_touch.y,instr_done_touch.leftButton,instr_done_touch.midButton,instr_done_touch.rightButton,instruction_pages.thisRepN,instruction_pages.thisTrialN,instruction_pages.thisN,instruction_pages.thisIndex,instruction_pages.ran,pageN,phase,instruct_text,has_image,instruct_image,participant,date,expName,psychopyVersion,OS,frameRate,response.keys,response.corr,response.rt,touch_resp.x,touch_resp.y,touch_resp.leftButton,touch_resp.midButton,touch_resp.rightButton,touch_resp.time,touch_resp.clicked_name,rt,corr,practice_trials.thisRepN,practice_trials.thisTrialN,practice_trials.thisN,practice_trials.thisIndex,practice_trials.ran,TrialID,StimulusType,Condition,PrimeDuration,Prime,Target,corrAns,end_of_practice_trials_pages.thisRepN,end_of_practice_trials_pages.thisTrialN,end_of_practice_trials_pages.thisN,end_of_practice_trials_pages.thisIndex,end_of_practice_trials_pages.ran,break_done_touch.x,break_done_touch.y,break_done_touch.leftButton,break_done_touch.midButton,break_done_touch.rightButton,break_done_keyboard.keys,experiment_trials.thisRepN,experiment_trials.thisTrialN,experiment_trials.thisN,experiment_trials.thisIndex,experiment_trials.ran,break_done_keyboard.rt,break_done_touch.clicked_name
2,space,20.643775,0.204101563,-0.159179688,0,0,0,0,0,0,0,1,1,instructions,"INSTRUCTIONS
At the start of each trial, look at the hash marks (######) in the center of the screen. After a moment, a string of letters will appear. Your task is to indicate if the letter string forms a word or not (i.e., if it is a nonword). For example, AUTHOR is a word while AUTHON is a nonword.

Press the space bar or touch the button below to continue.",0,,55b75944fdf99b6e0c49981b,2020-11-26_16h00.50.928,lexical_decision_task_MP_exp2,2020.2.5,Win32,60,,,,,,,,,,,,,,,,,,,,,,,,,,,,,,,,,,,,,,,,,,
,space,9.77937,0.204101563,-0.159179688,0,0,0,0,1,1,1,1,2,instructions,"If your device has a keyboard, press the 'Z' key for nonwords and the 'M' key for words.





Press the space bar or touch the button below to continue.",1,keyboard-example.gif,55b75944fdf99b6e0c49981b,2020-11-26_16h00.50.928,lexical_decision_task_MP_exp2,2020.2.5,Win32,60,,,,,,,,,,,,,,,,,,,,,,,,,,,,,,,,,,,,,,,,,,
,space,2.55127,0.204101563,-0.159179688,0,0,0,0,2,2,2,1,3,instructions,"If you are using a touchscreen only device, use the buttons on the screen. Do not use the mouse.





Press the space bar or touch the button below to continue.",1,touchscreen-example.gif,55b75944fdf99b6e0c49981b,2020-11-26_16h00.50.928,lexical_decision_task_MP_exp2,2020.2.5,Win32,60,,,,,,,,,,,,,,,,,,,,,,,,,,,,,,,,,,,,,,,,,,
,space,8.828705,0.204101563,-0.159179688,0,0,0,0,3,3,3,1,4,instructions,"It is very important that you respond as quickly and accurately as possible, as each letter string will only be on the screen for two seconds. If you do not respond within this time, the message 'Too slow!' will be displayed and the experiment will progress to the next letter string. The first 20 trials will be practice trials and you will receive feedback on your answers. 

Press the space bar or touch the button below to start the practice trials.",0,,55b75944fdf99b6e0c49981b,2020-11-26_16h00.50.928,lexical_decision_task_MP_exp2,2020.2.5,Win32,60,,,,,,,,,,,,,,,,,,,,,,,,,,,,,,,,,,,,,,,,,,
,,,,,,,,,,,,,,,,,,55b75944fdf99b6e0c49981b,2020-11-26_16h00.50.928,lexical_decision_task_MP_exp2,2020.2.5,Win32,60,z,1,1.49558,,,,,,,,1.49558,1,0,0,0,15,1,1016,NW,UN,16,mushed,WHAISE,z,,,,,,,,,,,,,,,,,,
,,,,,,,,,,,,,,,,,,55b75944fdf99b6e0c49981b,2020-11-26_16h00.50.928,lexical_decision_task_MP_exp2,2020.2.5,Win32,60,z,1,1.395975,,,,,,,,1.395975,1,0,1,1,11,1,1012,NW,"ID",16,rashet,RASHET,z,,,,,,,,,,,,,,,,,,
,,,,,,,,,,,,,,,,,,55b75944fdf99b6e0c49981b,2020-11-26_16h00.50.928,lexical_decision_task_MP_exp2,2020.2.5,Win32,60,m,0,1.20016,,,,,,,,1.20016,0,0,2,2,10,1,1011,NW,"ID",16,inlade,INLADE,z,,,,,,,,,,,,,,,,,,
,,,,,,,,,,,,,,,,,,55b75944fdf99b6e0c49981b,2020-11-26_16h00.50.928,lexical_decision_task_MP_exp2,2020.2.5,Win32,60,m,1,1.45062,,,,,,,,1.45062,1,0,3,3,3,1,1004,WORD,"ID",16,matrix,MATRIX,m,,,,,,,,,,,,,,,,,,
,,,,,,,,,,,,,,,,,,55b75944fdf99b6e0c49981b,2020-11-26_16h00.50.928,lexical_decision_task_MP_exp2,2020.2.5,Win32,60,m,1,0.885655,,,,,,,,0.885655,1,0,4,4,0,1,1001,WORD,"ID",33,utopia,UTOPIA,m,,,,,,,,,,,,,,,,,,
,,,,,,,,,,,,,,,,,,55b75944fdf99b6e0c49981b,2020-11-26_16h00.50.928,lexical_decision_task_MP_exp2,2020.2.5,Win32,60,m,0,0.900305,,,,,,,,0.900305,0,0,5,5,8,1,1009,NW,"ID",33,aslert,ASLERT,z,,,,,,,,,,,,,,,,,,
,,,,,,,,,,,,,,,,,,55b75944fdf99b6e0c49981b,2020-11-26_16h00.50.928,lexical_decision_task_MP_exp2,2020.2.5,Win32,60,m,1,1.41022,,,,,,,,1.41022,1,0,6,6,2,1,1003,WORD,"ID",16,almond,ALMOND,m,,,,,,,,,,,,,,,,,,
,,,,,,,,,,,,,,,,,,55b75944fdf99b6e0c49981b,2020-11-26_16h00.50.928,lexical_decision_task_MP_exp2,2020.2.5,Win32,60,m,1,0.95193,,,,,,,,0.95193,1,0,7,7,7,1,1008,WORD,UN,16,hurdle,VOLUME,m,,,,,,,,,,,,,,,,,,
,,,,,,,,,,,,,,,,,,55b75944fdf99b6e0c49981b,2020-11-26_16h00.50.928,lexical_decision_task_MP_exp2,2020.2.5,Win32,60,m,1,0.897985,,,,,,,,0.897985,1,0,8,8,4,1,1005,WORD,UN,33,abound,SQUEAK,m,,,,,,,,,,,,,,,,,,
,,,,,,,,,,,,,,,,,,55b75944fdf99b6e0c49981b,2020-11-26_16h00.50.928,lexical_decision_task_MP_exp2,2020.2.5,Win32,60,z,1,0.93116,,,,,,,,0.93116,1,0,9,9,13,1,1014,NW,UN,33,winfer,ROUPET,z,,,,,,,,,,,,,,,,,,
,,,,,,,,,,,,,,,,,,55b75944fdf99b6e0c49981b,2020-11-26_16h00.50.928,lexical_decision_task_MP_exp2,2020.2.5,Win32,60,z,1,1.36675,,,,,,,,1.36675,1,0,10,10,14,1,1015,NW,UN,16,miaber,THRALE,z,,,,,,,,,,,,,,,,,,
,,,,,,,,,,,,,,,,,,55b75944fdf99b6e0c49981b,2020-11-26_16h00.50.928,lexical_decision_task_MP_exp2,2020.2.5,Win32,60,m,1,0.85046,,,,,,,,0.85046,1,0,11,11,5,1,1006,WORD,UN,33,frenzy,OBTAIN,m,,,,,,,,,,,,,,,,,,
,,,,,,,,,,,,,,,,,,55b75944fdf99b6e0c49981b,2020-11-26_16h00.50.928,lexical_decision_task_MP_exp2,2020.2.5,Win32,60,z,1,1.19758,,,,,,,,1.19758,1,0,12,12,12,1,1013,NW,UN,33,adveil,SPRINY,z,,,,,,,,,,,,,,,,,,
,,,,,,,,,,,,,,,,,,55b75944fdf99b6e0c49981b,2020-11-26_16h00.50.928,lexical_decision_task_MP_exp2,2020.2.5,Win32,60,m,1,1.550555,,,,,,,,1.550555,1,0,13,13,1,1,1002,WORD,"ID",33,adjust,ADJUST,m,,,,,,,,,,,,,,,,,,
,,,,,,,,,,,,,,,,,,55b75944fdf99b6e0c49981b,2020-11-26_16h00.50.928,lexical_decision_task_MP_exp2,2020.2.5,Win32,60,z,1,1.28419,,,,,,,,1.28419,1,0,14,14,9,1,1010,NW,"ID",33,fariny,FARINY,z,,,,,,,,,,,,,,,,,,
,,,,,,,,,,,,,,,,,,55b75944fdf99b6e0c49981b,2020-11-26_16h00.50.928,lexical_decision_task_MP_exp2,2020.2.5,Win32,60,m,1,0.867155,,,,,,,,0.867155,1,0,15,15,6,1,1007,WORD,UN,16,tropic,ZOMBIE,m,,,,,,,,,,,,,,,,,,
,space,20.39093,0.204101563,-0.159179688,0,0,0,,,,,,1,end_of_practice,"You have completed the practice trials. During the experimental trials, you will not receive feedback, but it is very important that you respond as quickly and accurately as possible. 
Before you begin, please ensure that you are in a comfortable and quiet location and will not be disturbed for about 15 minutes, as we cannot use your data if you do not complete all the trials. 
There will be opportunities to take breaks at regular intervals during the experiment. When you are ready to start the experimental trials, please press space or touch the button below.",,,55b75944fdf99b6e0c49981b,2020-11-26_16h00.50.928,lexical_decision_task_MP_exp2,2020.2.5,Win32,60,,,,,,,,,,,,,,,,,,,,,,,,,0,0,0,0,1,,,,,,,,,,,,,
,,,,,,,,,,,,,,,,,,55b75944fdf99b6e0c49981b,2020-11-26_16h00.50.928,lexical_decision_task_MP_exp2,2020.2.5,Win32,60,z,1,1.616725,,,,,,,,1.616725,1,,,,,,454,NW,UN,33,tondle,SCOUGE,z,,,,,,0.204101563,-0.159179688,0,0,0,,0,0,0,393,1,,
,,,,,,,,,,,,,,,,,,55b75944fdf99b6e0c49981b,2020-11-26_16h00.50.928,lexical_decision_task_MP_exp2,2020.2.5,Win32,60,z,1,1.764865,,,,,,,,1.764865,1,,,,,,277,NW,UN,16,unighs,PETAIN,z,,,,,,0.204101563,-0.159179688,0,0,0,,0,1,1,456,1,,
,,,,,,,,,,,,,,,,,,55b75944fdf99b6e0c49981b,2020-11-26_16h00.50.928,lexical_decision_task_MP_exp2,2020.2.5,Win32,60,m,1,0.818735,,,,,,,,0.818735,1,,,,,,181,WORD,UN,33,winter,GLANCE,m,,,,,,0.204101563,-0.159179688,0,0,0,,0,2,2,120,1,,
,,,,,,,,,,,,,,,,,,55b75944fdf99b6e0c49981b,2020-11-26_16h00.50.928,lexical_decision_task_MP_exp2,2020.2.5,Win32,60,z,0,1.463645,,,,,,,,1.463645,0,,,,,,35,WORD,UN,16,vanish,SOCKET,m,,,,,,0.204101563,-0.159179688,0,0,0,,0,3,3,214,1,,
,,,,,,,,,,,,,,,,,,55b75944fdf99b6e0c49981b,2020-11-26_16h00.50.928,lexical_decision_task_MP_exp2,2020.2.5,Win32,60,,0,,,,,,,,,1.463645,-1,,,,,,263,NW,UN,16,vackel,DOLICA,z,,,,,,0.204101563,-0.159179688,0,0,0,,0,4,4,442,1,,
,,,,,,,,,,,,,,,,,,55b75944fdf99b6e0c49981b,2020-11-26_16h00.50.928,lexical_decision_task_MP_exp2,2020.2.5,Win32,60,m,1,0.75374,,,,,,,,0.75374,1,,,,,,200,WORD,UN,33,admire,BEACON,m,,,,,,0.204101563,-0.159179688,0,0,0,,0,5,5,139,1,,
,,,,,,,,,,,,,,,,,,55b75944fdf99b6e0c49981b,2020-11-26_16h00.50.928,lexical_decision_task_MP_exp2,2020.2.5,Win32,60,m,1,0.85038,,,,,,,,0.85038,1,,,,,,98,WORD,"ID",33,belong,BELONG,m,,,,,,0.204101563,-0.159179688,0,0,0,,0,6,6,37,1,,
,,,,,,,,,,,,,,,,,,55b75944fdf99b6e0c49981b,2020-11-26_16h00.50.928,lexical_decision_task_MP_exp2,2020.2.5,Win32,60,m,1,0.867015,,,,,,,,0.867015,1,,,,,,155,WORD,"ID",16,lizard,LIZARD,m,,,,,,0.204101563,-0.159179688,0,0,0,,0,7,7,94,1,,
,,,,,,,,,,,,,,,,,,55b75944fdf99b6e0c49981b,2020-11-26_16h00.50.928,lexical_decision_task_MP_exp2,2020.2.5,Win32,60,m,1,0.683515,,,,,,,,0.683515,1,,,,,,138,WORD,"ID",16,melody,MELODY,m,,,,,,0.204101563,-0.159179688,0,0,0,,0,8,8,77,1,,
,,,,,,,,,,,,,,,,,,55b75944fdf99b6e0c49981b,2020-11-26_16h00.50.928,lexical_decision_task_MP_exp2,2020.2.5,Win32,60,z,1,0.78273,,,,,,,,0.78273,1,,,,,,410,NW,"ID",16,tunory,TUNORY,z,,,,,,0.204101563,-0.159179688,0,0,0,,0,9,9,349,1,,
,,,,,,,,,,,,,,,,,,55b75944fdf99b6e0c49981b,2020-11-26_16h00.50.928,lexical_decision_task_MP_exp2,2020.2.5,Win32,60,m,0,1.303655,,,,,,,,1.303655,0,,,,,,244,NW,UN,16,anougs,EATRIC,z,,,,,,0.204101563,-0.159179688,0,0,0,,0,10,10,423,1,,
,,,,,,,,,,,,,,,,,,55b75944fdf99b6e0c49981b,2020-11-26_16h00.50.928,lexical_decision_task_MP_exp2,2020.2.5,Win32,60,z,1,1.250375,,,,,,,,1.250375,1,,,,,,452,NW,UN,33,bolvis,SURDEN,z,,,,,,0.204101563,-0.159179688,0,0,0,,0,11,11,391,1,,
,,,,,,,,,,,,,,,,,,55b75944fdf99b6e0c49981b,2020-11-26_16h00.50.928,lexical_decision_task_MP_exp2,2020.2.5,Win32,60,m,1,0.83365,,,,,,,,0.83365,1,,,,,,58,WORD,UN,16,splint,FOSTER,m,,,,,,0.204101563,-0.159179688,0,0,0,,0,12,12,237,1,,
,,,,,,,,,,,,,,,,,,55b75944fdf99b6e0c49981b,2020-11-26_16h00.50.928,lexical_decision_task_MP_exp2,2020.2.5,Win32,60,m,1,0.933685,,,,,,,,0.933685,1,,,,,,189,WORD,UN,33,backup,CENSOR,m,,,,,,0.204101563,-0.159179688,0,0,0,,0,13,13,128,1,,
,,,,,,,,,,,,,,,,,,55b75944fdf99b6e0c49981b,2020-11-26_16h00.50.928,lexical_decision_task_MP_exp2,2020.2.5,Win32,60,z,1,0.9001,,,,,,,,0.9001,1,,,,,,384,NW,"ID",16,guesco,GUESCO,z,,,,,,0.204101563,-0.159179688,0,0,0,,0,14,14,323,1,,
,,,,,,,,,,,,,,,,,,55b75944fdf99b6e0c49981b,2020-11-26_16h00.50.928,lexical_decision_task_MP_exp2,2020.2.5,Win32,60,z,1,0.950355,,,,,,,,0.950355,1,,,,,,445,NW,UN,33,runamo,MINKEL,z,,,,,,0.204101563,-0.159179688,0,0,0,,0,15,15,384,1,,
,,,,,,,,,,,,,,,,,,55b75944fdf99b6e0c49981b,2020-11-26_16h00.50.928,lexical_decision_task_MP_exp2,2020.2.5,Win32,60,z,0,1.117985,,,,,,,,1.117985,0,,,,,,185,WORD,UN,33,portal,BOTHER,m,,,,,,0.204101563,-0.159179688,0,0,0,,0,16,16,124,1,,
,,,,,,,,,,,,,,,,,,55b75944fdf99b6e0c49981b,2020-11-26_16h00.50.928,lexical_decision_task_MP_exp2,2020.2.5,Win32,60,z,1,1.50023,,,,,,,,1.50023,1,,,,,,305,NW,"ID",33,forgle,FORGLE,z,,,,,,0.204101563,-0.159179688,0,0,0,,0,17,17,244,1,,
,,,,,,,,,,,,,,,,,,55b75944fdf99b6e0c49981b,2020-11-26_16h00.50.928,lexical_decision_task_MP_exp2,2020.2.5,Win32,60,z,1,0.850545,,,,,,,,0.850545,1,,,,,,375,NW,"ID",16,yorque,YORQUE,z,,,,,,0.204101563,-0.159179688,0,0,0,,0,18,18,314,1,,
,,,,,,,,,,,,,,,,,,55b75944fdf99b6e0c49981b,2020-11-26_16h00.50.928,lexical_decision_task_MP_exp2,2020.2.5,Win32,60,m,1,0.80043,,,,,,,,0.80043,1,,,,,,42,WORD,UN,16,tongue,CHAPEL,m,,,,,,0.204101563,-0.159179688,0,0,0,,0,19,19,221,1,,
,,,,,,,,,,,,,,,,,,55b75944fdf99b6e0c49981b,2020-11-26_16h00.50.928,lexical_decision_task_MP_exp2,2020.2.5,Win32,60,z,1,1.59926,,,,,,,,1.59926,1,,,,,,435,NW,UN,33,frutan,IMPURB,z,,,,,,0.204101563,-0.159179688,0,0,0,,0,20,20,374,1,,
,,,,,,,,,,,,,,,,,,55b75944fdf99b6e0c49981b,2020-11-26_16h00.50.928,lexical_decision_task_MP_exp2,2020.2.5,Win32,60,m,1,0.88424,,,,,,,,0.88424,1,,,,,,160,WORD,"ID",16,violet,VIOLET,m,,,,,,0.204101563,-0.159179688,0,0,0,,0,21,21,99,1,,
,,,,,,,,,,,,,,,,,,55b75944fdf99b6e0c49981b,2020-11-26_16h00.50.928,lexical_decision_task_MP_exp2,2020.2.5,Win32,60,m,1,0.85048,,,,,,,,0.85048,1,,,,,,199,WORD,UN,33,plague,INVOKE,m,,,,,,0.204101563,-0.159179688,0,0,0,,0,22,22,138,1,,
,,,,,,,,,,,,,,,,,,55b75944fdf99b6e0c49981b,2020-11-26_16h00.50.928,lexical_decision_task_MP_exp2,2020.2.5,Win32,60,m,1,0.80061,,,,,,,,0.80061,1,,,,,,71,WORD,"ID",33,garden,GARDEN,m,,,,,,0.204101563,-0.159179688,0,0,0,,0,23,23,10,1,,
,,,,,,,,,,,,,,,,,,55b75944fdf99b6e0c49981b,2020-11-26_16h00.50.928,lexical_decision_task_MP_exp2,2020.2.5,Win32,60,m,1,0.71988,,,,,,,,0.71988,1,,,,,,173,WORD,"ID",16,shower,SHOWER,m,,,,,,0.204101563,-0.159179688,0,0,0,,0,24,24,112,1,,
,,,,,,,,,,,,,,,,,,55b75944fdf99b6e0c49981b,2020-11-26_16h00.50.928,lexical_decision_task_MP_exp2,2020.2.5,Win32,60,z,1,0.883615,,,,,,,,0.883615,1,,,,,,347,NW,"ID",33,kerift,KERIFT,z,,,,,,0.204101563,-0.159179688,0,0,0,,0,25,25,286,1,,
,,,,,,,,,,,,,,,,,,55b75944fdf99b6e0c49981b,2020-11-26_16h00.50.928,lexical_decision_task_MP_exp2,2020.2.5,Win32,60,m,1,1.82008,,,,,,,,1.82008,1,,,,,,38,WORD,UN,16,insect,POWDER,m,,,,,,0.204101563,-0.159179688,0,0,0,,0,26,26,217,1,,
,,,,,,,,,,,,,,,,,,55b75944fdf99b6e0c49981b,2020-11-26_16h00.50.928,lexical_decision_task_MP_exp2,2020.2.5,Win32,60,m,1,0.73397,,,,,,,,0.73397,1,,,,,,227,WORD,UN,33,master,SELDOM,m,,,,,,0.204101563,-0.159179688,0,0,0,,0,27,27,166,1,,
,,,,,,,,,,,,,,,,,,55b75944fdf99b6e0c49981b,2020-11-26_16h00.50.928,lexical_decision_task_MP_exp2,2020.2.5,Win32,60,z,1,1.070935,,,,,,,,1.070935,1,,,,,,295,NW,UN,16,beinch,GLEATH,z,,,,,,0.204101563,-0.159179688,0,0,0,,0,28,28,474,1,,
,,,,,,,,,,,,,,,,,,55b75944fdf99b6e0c49981b,2020-11-26_16h00.50.928,lexical_decision_task_MP_exp2,2020.2.5,Win32,60,m,1,0.783635,,,,,,,,0.783635,1,,,,,,144,WORD,"ID",16,sponge,SPONGE,m,,,,,,0.204101563,-0.159179688,0,0,0,,0,29,29,83,1,,
,,,,,,,,,,,,,,,,,,55b75944fdf99b6e0c49981b,2020-11-26_16h00.50.928,lexical_decision_task_MP_exp2,2020.2.5,Win32,60,m,1,0.750475,,,,,,,,0.750475,1,,,,,,73,WORD,"ID",33,source,SOURCE,m,,,,,,0.204101563,-0.159179688,0,0,0,,0,30,30,12,1,,
,,,,,,,,,,,,,,,,,,55b75944fdf99b6e0c49981b,2020-11-26_16h00.50.928,lexical_decision_task_MP_exp2,2020.2.5,Win32,60,m,1,0.91704,,,,,,,,0.91704,1,,,,,,30,WORD,UN,16,weapon,ORIENT,m,,,,,,0.204101563,-0.159179688,0,0,0,,0,31,31,209,1,,
,,,,,,,,,,,,,,,,,,55b75944fdf99b6e0c49981b,2020-11-26_16h00.50.928,lexical_decision_task_MP_exp2,2020.2.5,Win32,60,m,1,0.88361,,,,,,,,0.88361,1,,,,,,22,WORD,UN,16,wealth,JOCKEY,m,,,,,,0.204101563,-0.159179688,0,0,0,,0,32,32,201,1,,
,,,,,,,,,,,,,,,,,,55b75944fdf99b6e0c49981b,2020-11-26_16h00.50.928,lexical_decision_task_MP_exp2,2020.2.5,Win32,60,m,1,0.85055,,,,,,,,0.85055,1,,,,,,230,WORD,UN,33,mother,FRINGE,m,,,,,,0.204101563,-0.159179688,0,0,0,,0,33,33,169,1,,
,,,,,,,,,,,,,,,,,,55b75944fdf99b6e0c49981b,2020-11-26_16h00.50.928,lexical_decision_task_MP_exp2,2020.2.5,Win32,60,z,1,0.98386,,,,,,,,0.98386,1,,,,,,365,NW,"ID",16,guairt,GUAIRT,z,,,,,,0.204101563,-0.159179688,0,0,0,,0,34,34,304,1,,
,,,,,,,,,,,,,,,,,,55b75944fdf99b6e0c49981b,2020-11-26_16h00.50.928,lexical_decision_task_MP_exp2,2020.2.5,Win32,60,m,1,0.95355,,,,,,,,0.95355,1,,,,,,164,WORD,"ID",16,market,MARKET,m,,,,,,0.204101563,-0.159179688,0,0,0,,0,35,35,103,1,,
,,,,,,,,,,,,,,,,,,55b75944fdf99b6e0c49981b,2020-11-26_16h00.50.928,lexical_decision_task_MP_exp2,2020.2.5,Win32,60,m,1,0.85033,,,,,,,,0.85033,1,,,,,,234,WORD,UN,33,poster,CLUMSY,m,,,,,,0.204101563,-0.159179688,0,0,0,,0,36,36,173,1,,
,,,,,,,,,,,,,,,,,,55b75944fdf99b6e0c49981b,2020-11-26_16h00.50.928,lexical_decision_task_MP_exp2,2020.2.5,Win32,60,z,1,0.750605,,,,,,,,0.750605,1,,,,,,274,NW,UN,16,sleirt,FUMBLO,z,,,,,,0.204101563,-0.159179688,0,0,0,,0,37,37,453,1,,
,,,,,,,,,,,,,,,,,,55b75944fdf99b6e0c49981b,2020-11-26_16h00.50.928,lexical_decision_task_MP_exp2,2020.2.5,Win32,60,z,1,1.000685,,,,,,,,1.000685,1,,,,,,440,NW,UN,33,rastoe,SARIDE,z,,,,,,0.204101563,-0.159179688,0,0,0,,0,38,38,379,1,,
,,,,,,,,,,,,,,,,,,55b75944fdf99b6e0c49981b,2020-11-26_16h00.50.928,lexical_decision_task_MP_exp2,2020.2.5,Win32,60,z,1,0.86705,,,,,,,,0.86705,1,,,,,,310,NW,"ID",33,daniet,DANIET,z,,,,,,0.204101563,-0.159179688,0,0,0,,0,39,39,249,1,,
,,,,,,,,,,,,,,,,,,55b75944fdf99b6e0c49981b,2020-11-26_16h00.50.928,lexical_decision_task_MP_exp2,2020.2.5,Win32,60,m,1,0.917025,,,,,,,,0.917025,1,,,,,,89,WORD,"ID",33,permit,PERMIT,m,,,,,,0.204101563,-0.159179688,0,0,0,,0,40,40,28,1,,
,,,,,,,,,,,,,,,,,,55b75944fdf99b6e0c49981b,2020-11-26_16h00.50.928,lexical_decision_task_MP_exp2,2020.2.5,Win32,60,z,1,0.85037,,,,,,,,0.85037,1,,,,,,331,NW,"ID",33,gilfew,GILFEW,z,,,,,,0.204101563,-0.159179688,0,0,0,,0,41,41,270,1,,
,,,,,,,,,,,,,,,,,,55b75944fdf99b6e0c49981b,2020-11-26_16h00.50.928,lexical_decision_task_MP_exp2,2020.2.5,Win32,60,z,1,1.06663,,,,,,,,1.06663,1,,,,,,359,NW,"ID",33,fonver,FONVER,z,,,,,,0.204101563,-0.159179688,0,0,0,,0,42,42,298,1,,
,,,,,,,,,,,,,,,,,,55b75944fdf99b6e0c49981b,2020-11-26_16h00.50.928,lexical_decision_task_MP_exp2,2020.2.5,Win32,60,m,1,0.850245,,,,,,,,0.850245,1,,,,,,99,WORD,"ID",33,fluent,FLUENT,m,,,,,,0.204101563,-0.159179688,0,0,0,,0,43,43,38,1,,
,,,,,,,,,,,,,,,,,,55b75944fdf99b6e0c49981b,2020-11-26_16h00.50.928,lexical_decision_task_MP_exp2,2020.2.5,Win32,60,m,1,0.783755,,,,,,,,0.783755,1,,,,,,75,WORD,"ID",33,trophy,TROPHY,m,,,,,,0.204101563,-0.159179688,0,0,0,,0,44,44,14,1,,
,,,,,,,,,,,,,,,,,,55b75944fdf99b6e0c49981b,2020-11-26_16h00.50.928,lexical_decision_task_MP_exp2,2020.2.5,Win32,60,z,1,1.001175,,,,,,,,1.001175,1,,,,,,449,NW,UN,33,phrect,BRUNGE,z,,,,,,0.204101563,-0.159179688,0,0,0,,0,45,45,388,1,,
,,,,,,,,,,,,,,,,,,55b75944fdf99b6e0c49981b,2020-11-26_16h00.50.928,lexical_decision_task_MP_exp2,2020.2.5,Win32,60,z,1,0.81706,,,,,,,,0.81706,1,,,,,,349,NW,"ID",33,asylen,ASYLEN,z,,,,,,0.204101563,-0.159179688,0,0,0,,0,46,46,288,1,,
,,,,,,,,,,,,,,,,,,55b75944fdf99b6e0c49981b,2020-11-26_16h00.50.928,lexical_decision_task_MP_exp2,2020.2.5,Win32,60,z,1,1.466735,,,,,,,,1.466735,1,,,,,,371,NW,"ID",16,geiloy,GEILOY,z,,,,,,0.204101563,-0.159179688,0,0,0,,0,47,47,310,1,,
,,,,,,,,,,,,,,,,,,55b75944fdf99b6e0c49981b,2020-11-26_16h00.50.928,lexical_decision_task_MP_exp2,2020.2.5,Win32,60,m,1,0.634125,,,,,,,,0.634125,1,,,,,,163,WORD,"ID",16,string,STRING,m,,,,,,0.204101563,-0.159179688,0,0,0,,0,48,48,102,1,,
,,,,,,,,,,,,,,,,,,55b75944fdf99b6e0c49981b,2020-11-26_16h00.50.928,lexical_decision_task_MP_exp2,2020.2.5,Win32,60,m,1,0.633875,,,,,,,,0.633875,1,,,,,,170,WORD,"ID",16,pounce,POUNCE,m,,,,,,0.204101563,-0.159179688,0,0,0,,0,49,49,109,1,,
,,,,,,,,,,,,,,,,,,55b75944fdf99b6e0c49981b,2020-11-26_16h00.50.928,lexical_decision_task_MP_exp2,2020.2.5,Win32,60,z,1,0.816855,,,,,,,,0.816855,1,,,,,,299,NW,UN,16,yarion,STURCH,z,,,,,,0.204101563,-0.159179688,0,0,0,,0,50,50,478,1,,
,,,,,,,,,,,,,,,,,,55b75944fdf99b6e0c49981b,2020-11-26_16h00.50.928,lexical_decision_task_MP_exp2,2020.2.5,Win32,60,m,1,0.883595,,,,,,,,0.883595,1,,,,,,17,WORD,UN,16,humble,CHARGE,m,,,,,,0.204101563,-0.159179688,0,0,0,,0,51,51,196,1,,
,,,,,,,,,,,,,,,,,,55b75944fdf99b6e0c49981b,2020-11-26_16h00.50.928,lexical_decision_task_MP_exp2,2020.2.5,Win32,60,z,1,1.56707,,,,,,,,1.56707,1,,,,,,444,NW,UN,33,minkel,JAUNCE,z,,,,,,0.204101563,-0.159179688,0,0,0,,0,52,52,383,1,,
,,,,,,,,,,,,,,,,,,55b75944fdf99b6e0c49981b,2020-11-26_16h00.50.928,lexical_decision_task_MP_exp2,2020.2.5,Win32,60,z,1,1.30043,,,,,,,,1.30043,1,,,,,,433,NW,UN,33,pitrom,DRANCE,z,,,,,,0.204101563,-0.159179688,0,0,0,,0,53,53,372,1,,
,,,,,,,,,,,,,,,,,,55b75944fdf99b6e0c49981b,2020-11-26_16h00.50.928,lexical_decision_task_MP_exp2,2020.2.5,Win32,60,m,1,0.78393,,,,,,,,0.78393,1,,,,,,217,WORD,UN,33,shrink,LIQUOR,m,,,,,,0.204101563,-0.159179688,0,0,0,,0,54,54,156,1,,
,,,,,,,,,,,,,,,,,,55b75944fdf99b6e0c49981b,2020-11-26_16h00.50.928,lexical_decision_task_MP_exp2,2020.2.5,Win32,60,z,1,0.96714,,,,,,,,0.96714,1,,,,,,342,NW,"ID",33,randow,RANDOW,z,,,,,,0.204101563,-0.159179688,0,0,0,,0,55,55,281,1,,
,,,,,,,,,,,,,,,,,,55b75944fdf99b6e0c49981b,2020-11-26_16h00.50.928,lexical_decision_task_MP_exp2,2020.2.5,Win32,60,z,1,0.867105,,,,,,,,0.867105,1,,,,,,392,NW,"ID",16,rouncy,ROUNCY,z,,,,,,0.204101563,-0.159179688,0,0,0,,0,56,56,331,1,,
,,,,,,,,,,,,,,,,,,55b75944fdf99b6e0c49981b,2020-11-26_16h00.50.928,lexical_decision_task_MP_exp2,2020.2.5,Win32,60,z,1,0.77879,,,,,,,,0.77879,1,,,,,,436,NW,UN,33,snapel,FRUTAN,z,,,,,,0.204101563,-0.159179688,0,0,0,,0,57,57,375,1,,
,,,,,,,,,,,,,,,,,,55b75944fdf99b6e0c49981b,2020-11-26_16h00.50.928,lexical_decision_task_MP_exp2,2020.2.5,Win32,60,m,1,0.936595,,,,,,,,0.936595,1,,,,,,195,WORD,UN,33,credit,RESIGN,m,,,,,,0.204101563,-0.159179688,0,0,0,,0,58,58,134,1,,
,,,,,,,,,,,,,,,,,,55b75944fdf99b6e0c49981b,2020-11-26_16h00.50.928,lexical_decision_task_MP_exp2,2020.2.5,Win32,60,m,1,0.750725,,,,,,,,0.750725,1,,,,,,77,WORD,"ID",33,racket,RACKET,m,,,,,,0.204101563,-0.159179688,0,0,0,,0,59,59,16,1,,
,,,,,,,,,,,,,,,,,,55b75944fdf99b6e0c49981b,2020-11-26_16h00.50.928,lexical_decision_task_MP_exp2,2020.2.5,Win32,60,z,1,0.851745,,,,,,,,0.851745,1,,,,,,408,NW,"ID",16,hurnia,HURNIA,z,,,,,,0.204101563,-0.159179688,0,0,0,,0,60,60,347,1,,
,,,,,,,,,,,,,,,,,,55b75944fdf99b6e0c49981b,2020-11-26_16h00.50.928,lexical_decision_task_MP_exp2,2020.2.5,Win32,60,m,1,0.7668,,,,,,,,0.7668,1,,,,,,224,WORD,UN,33,vulgar,PERIOD,m,,,,,,0.204101563,-0.159179688,0,0,0,,0,61,61,163,1,,
,,,,,,,,,,,,,,,,,,55b75944fdf99b6e0c49981b,2020-11-26_16h00.50.928,lexical_decision_task_MP_exp2,2020.2.5,Win32,60,,0,,,,,,,,,0.7668,-1,,,,,,266,NW,UN,16,pasink,VARMIT,z,,,,,,0.204101563,-0.159179688,0,0,0,,0,62,62,445,1,,
,,,,,,,,,,,,,,,,,,55b75944fdf99b6e0c49981b,2020-11-26_16h00.50.928,lexical_decision_task_MP_exp2,2020.2.5,Win32,60,z,1,0.80505,,,,,,,,0.80505,1,,,,,,362,NW,"ID",16,tireau,TIREAU,z,,,,,,0.204101563,-0.159179688,0,0,0,,0,63,63,301,1,,
,,,,,,,,,,,,,,,,,,55b75944fdf99b6e0c49981b,2020-11-26_16h00.50.928,lexical_decision_task_MP_exp2,2020.2.5,Win32,60,m,1,1.05109,,,,,,,,1.05109,1,,,,,,82,WORD,"ID",33,stigma,STIGMA,m,,,,,,0.204101563,-0.159179688,0,0,0,,0,64,64,21,1,,
,,,,,,,,,,,,,,,,,,55b75944fdf99b6e0c49981b,2020-11-26_16h00.50.928,lexical_decision_task_MP_exp2,2020.2.5,Win32,60,m,1,0.80055,,,,,,,,0.80055,1,,,,,,62,WORD,"ID",33,region,REGION,m,,,,,,0.204101563,-0.159179688,0,0,0,,0,65,65,1,1,,
,,,,,,,,,,,,,,,,,,55b75944fdf99b6e0c49981b,2020-11-26_16h00.50.928,lexical_decision_task_MP_exp2,2020.2.5,Win32,60,m,1,0.734375,,,,,,,,0.734375,1,,,,,,46,WORD,UN,16,income,SINGLE,m,,,,,,0.204101563,-0.159179688,0,0,0,,0,66,66,225,1,,
,,,,,,,,,,,,,,,,,,55b75944fdf99b6e0c49981b,2020-11-26_16h00.50.928,lexical_decision_task_MP_exp2,2020.2.5,Win32,60,z,1,0.95107,,,,,,,,0.95107,1,,,,,,316,NW,"ID",33,scregm,SCREGM,z,,,,,,0.204101563,-0.159179688,0,0,0,,0,67,67,255,1,,
,,,,,,,,,,,,,,,,,,55b75944fdf99b6e0c49981b,2020-11-26_16h00.50.928,lexical_decision_task_MP_exp2,2020.2.5,Win32,60,z,1,0.784595,,,,,,,,0.784595,1,,,,,,251,NW,UN,16,stapod,LUPICT,z,,,,,,0.204101563,-0.159179688,0,0,0,,0,68,68,430,1,,
,,,,,,,,,,,,,,,,,,55b75944fdf99b6e0c49981b,2020-11-26_16h00.50.928,lexical_decision_task_MP_exp2,2020.2.5,Win32,60,m,1,0.755015,,,,,,,,0.755015,1,,,,,,52,WORD,UN,16,police,IMPOSE,m,,,,,,0.204101563,-0.159179688,0,0,0,,0,69,69,231,1,,
,,,,,,,,,,,,,,,,,,55b75944fdf99b6e0c49981b,2020-11-26_16h00.50.928,lexical_decision_task_MP_exp2,2020.2.5,Win32,60,m,1,0.83293,,,,,,,,0.83293,1,,,,,,225,WORD,UN,33,casino,VULGAR,m,,,,,,0.204101563,-0.159179688,0,0,0,,0,70,70,164,1,,
,,,,,,,,,,,,,,,,,,55b75944fdf99b6e0c49981b,2020-11-26_16h00.50.928,lexical_decision_task_MP_exp2,2020.2.5,Win32,60,m,1,0.833745,,,,,,,,0.833745,1,,,,,,91,WORD,"ID",33,expand,EXPAND,m,,,,,,0.204101563,-0.159179688,0,0,0,,0,71,71,30,1,,
,,,,,,,,,,,,,,,,,,55b75944fdf99b6e0c49981b,2020-11-26_16h00.50.928,lexical_decision_task_MP_exp2,2020.2.5,Win32,60,m,0,0.666895,,,,,,,,0.666895,0,,,,,,360,NW,"ID",33,desory,DESORY,z,,,,,,0.204101563,-0.159179688,0,0,0,,0,72,72,299,1,,
,,,,,,,,,,,,,,,,,,55b75944fdf99b6e0c49981b,2020-11-26_16h00.50.928,lexical_decision_task_MP_exp2,2020.2.5,Win32,60,m,0,0.65055,,,,,,,,0.65055,0,,,,,,398,NW,"ID",16,blunde,BLUNDE,z,,,,,,0.204101563,-0.159179688,0,0,0,,0,73,73,337,1,,
,,,,,,,,,,,,,,,,,,55b75944fdf99b6e0c49981b,2020-11-26_16h00.50.928,lexical_decision_task_MP_exp2,2020.2.5,Win32,60,z,1,1.200205,,,,,,,,1.200205,1,,,,,,250,NW,UN,16,lupict,MILTED,z,,,,,,0.204101563,-0.159179688,0,0,0,,0,74,74,429,1,,
,,,,,,,,,,,,,,,,,,55b75944fdf99b6e0c49981b,2020-11-26_16h00.50.928,lexical_decision_task_MP_exp2,2020.2.5,Win32,60,z,1,1.16981,,,,,,,,1.16981,1,,,,,,400,NW,"ID",16,wearox,WEAROX,z,,,,,,0.204101563,-0.159179688,0,0,0,,0,75,75,339,1,,
,,,,,,,,,,,,,,,,,,55b75944fdf99b6e0c49981b,2020-11-26_16h00.50.928,lexical_decision_task_MP_exp2,2020.2.5,Win32,60,z,1,0.851895,,,,,,,,0.851895,1,,,,,,480,NW,UN,33,knisma,ROBULY,z,,,,,,0.204101563,-0.159179688,0,0,0,,0,76,76,419,1,,
,,,,,,,,,,,,,,,,,,55b75944fdf99b6e0c49981b,2020-11-26_16h00.50.928,lexical_decision_task_MP_exp2,2020.2.5,Win32,60,m,1,0.750635,,,,,,,,0.750635,1,,,,,,70,WORD,"ID",33,square,SQUARE,m,,,,,,0.204101563,-0.159179688,0,0,0,,0,77,77,9,1,,
,,,,,,,,,,,,,,,,,,55b75944fdf99b6e0c49981b,2020-11-26_16h00.50.928,lexical_decision_task_MP_exp2,2020.2.5,Win32,60,m,1,0.816775,,,,,,,,0.816775,1,,,,,,51,WORD,UN,16,impose,HUNGRY,m,,,,,,0.204101563,-0.159179688,0,0,0,,0,78,78,230,1,,
,,,,,,,,,,,,,,,,,,55b75944fdf99b6e0c49981b,2020-11-26_16h00.50.928,lexical_decision_task_MP_exp2,2020.2.5,Win32,60,m,1,0.69888,,,,,,,,0.69888,1,,,,,,178,WORD,"ID",16,inform,INFORM,m,,,,,,0.204101563,-0.159179688,0,0,0,,0,79,79,117,1,,
,,,,,,,,,,,,,,,,,,55b75944fdf99b6e0c49981b,2020-11-26_16h00.50.928,lexical_decision_task_MP_exp2,2020.2.5,Win32,60,z,1,0.898705,,,,,,,,0.898705,1,,,,,,319,NW,"ID",33,zomber,ZOMBER,z,,,,,,0.204101563,-0.159179688,0,0,0,,0,80,80,258,1,,
,,,,,,,,,,,,,,,,,,55b75944fdf99b6e0c49981b,2020-11-26_16h00.50.928,lexical_decision_task_MP_exp2,2020.2.5,Win32,60,z,1,0.66493,,,,,,,,0.66493,1,,,,,,381,NW,"ID",16,huniek,HUNIEK,z,,,,,,0.204101563,-0.159179688,0,0,0,,0,81,81,320,1,,
,,,,,,,,,,,,,,,,,,55b75944fdf99b6e0c49981b,2020-11-26_16h00.50.928,lexical_decision_task_MP_exp2,2020.2.5,Win32,60,m,1,0.717275,,,,,,,,0.717275,1,,,,,,174,WORD,"ID",16,turkey,TURKEY,m,,,,,,0.204101563,-0.159179688,0,0,0,,0,82,82,113,1,,
,,,,,,,,,,,,,,,,,,55b75944fdf99b6e0c49981b,2020-11-26_16h00.50.928,lexical_decision_task_MP_exp2,2020.2.5,Win32,60,m,1,0.784205,,,,,,,,0.784205,1,,,,,,101,WORD,"ID",33,wrench,WRENCH,m,,,,,,0.204101563,-0.159179688,0,0,0,,0,83,83,40,1,,
,,,,,,,,,,,,,,,,,,55b75944fdf99b6e0c49981b,2020-11-26_16h00.50.928,lexical_decision_task_MP_exp2,2020.2.5,Win32,60,z,1,0.83393,,,,,,,,0.83393,1,,,,,,470,NW,UN,33,nobest,CRUDIO,z,,,,,,0.204101563,-0.159179688,0,0,0,,0,84,84,409,1,,
,,,,,,,,,,,,,,,,,,55b75944fdf99b6e0c49981b,2020-11-26_16h00.50.928,lexical_decision_task_MP_exp2,2020.2.5,Win32,60,m,1,0.899275,,,,,,,,0.899275,1,,,,,,211,WORD,UN,33,verify,INFECT,m,,,,,,0.204101563,-0.159179688,0,0,0,,0,85,85,150,1,,
,,,,,,,,,,,,,,,,,,55b75944fdf99b6e0c49981b,2020-11-26_16h00.50.928,lexical_decision_task_MP_exp2,2020.2.5,Win32,60,z,1,0.95106,,,,,,,,0.95106,1,,,,,,272,NW,UN,16,sortel,DAMILT,z,,,,,,0.204101563,-0.159179688,0,0,0,,0,86,86,451,1,,
,,,,,,,,,,,,,,,,,,55b75944fdf99b6e0c49981b,2020-11-26_16h00.50.928,lexical_decision_task_MP_exp2,2020.2.5,Win32,60,m,1,0.664325,,,,,,,,0.664325,1,,,,,,14,WORD,UN,16,orange,ALMOST,m,,,,,,0.204101563,-0.159179688,0,0,0,,0,87,87,193,1,,
,,,,,,,,,,,,,,,,,,55b75944fdf99b6e0c49981b,2020-11-26_16h00.50.928,lexical_decision_task_MP_exp2,2020.2.5,Win32,60,m,1,1.184465,,,,,,,,1.184465,1,,,,,,87,WORD,"ID",33,filter,FILTER,m,,,,,,0.204101563,-0.159179688,0,0,0,,0,88,88,26,1,,
,,,,,,,,,,,,,,,,,,55b75944fdf99b6e0c49981b,2020-11-26_16h00.50.928,lexical_decision_task_MP_exp2,2020.2.5,Win32,60,z,1,1.552325,,,,,,,,1.552325,1,,,,,,448,NW,UN,33,brunge,SADENT,z,,,,,,0.204101563,-0.159179688,0,0,0,,0,89,89,387,1,,
,,,,,,,,,,,,,,,,,,55b75944fdf99b6e0c49981b,2020-11-26_16h00.50.928,lexical_decision_task_MP_exp2,2020.2.5,Win32,60,m,1,1.13371,,,,,,,,1.13371,1,,,,,,226,WORD,UN,33,flower,CASINO,m,,,,,,0.204101563,-0.159179688,0,0,0,,0,90,90,165,1,,
,,,,,,,,,,,,,,,,,,55b75944fdf99b6e0c49981b,2020-11-26_16h00.50.928,lexical_decision_task_MP_exp2,2020.2.5,Win32,60,m,1,0.74932,,,,,,,,0.74932,1,,,,,,147,WORD,"ID",16,garlic,GARLIC,m,,,,,,0.204101563,-0.159179688,0,0,0,,0,91,91,86,1,,
,,,,,,,,,,,,,,,,,,55b75944fdf99b6e0c49981b,2020-11-26_16h00.50.928,lexical_decision_task_MP_exp2,2020.2.5,Win32,60,z,1,0.780105,,,,,,,,0.780105,1,,,,,,401,NW,"ID",16,mustil,MUSTIL,z,,,,,,0.204101563,-0.159179688,0,0,0,,0,92,92,340,1,,
,,,,,,,,,,,,,,,,,,55b75944fdf99b6e0c49981b,2020-11-26_16h00.50.928,lexical_decision_task_MP_exp2,2020.2.5,Win32,60,z,1,0.81286,,,,,,,,0.81286,1,,,,,,242,NW,UN,16,musied,UNWERT,z,,,,,,0.204101563,-0.159179688,0,0,0,,0,93,93,421,1,,
,,,,,,,,,,,,,,,,,,55b75944fdf99b6e0c49981b,2020-11-26_16h00.50.928,lexical_decision_task_MP_exp2,2020.2.5,Win32,60,z,1,0.81724,,,,,,,,0.81724,1,,,,,,340,NW,"ID",33,fiatch,FIATCH,z,,,,,,0.204101563,-0.159179688,0,0,0,,0,94,94,279,1,,
,,,,,,,,,,,,,,,,,,55b75944fdf99b6e0c49981b,2020-11-26_16h00.50.928,lexical_decision_task_MP_exp2,2020.2.5,Win32,60,z,1,0.796385,,,,,,,,0.796385,1,,,,,,460,NW,UN,33,justre,MINGAR,z,,,,,,0.204101563,-0.159179688,0,0,0,,0,95,95,399,1,,
,,,,,,,,,,,,,,,,,,55b75944fdf99b6e0c49981b,2020-11-26_16h00.50.928,lexical_decision_task_MP_exp2,2020.2.5,Win32,60,m,1,0.679615,,,,,,,,0.679615,1,,,,,,220,WORD,UN,33,mascot,VOYAGE,m,,,,,,0.204101563,-0.159179688,0,0,0,,0,96,96,159,1,,
,,,,,,,,,,,,,,,,,,55b75944fdf99b6e0c49981b,2020-11-26_16h00.50.928,lexical_decision_task_MP_exp2,2020.2.5,Win32,60,m,1,0.71777,,,,,,,,0.71777,1,,,,,,206,WORD,UN,33,wreath,TAILOR,m,,,,,,0.204101563,-0.159179688,0,0,0,,0,97,97,145,1,,
,,,,,,,,,,,,,,,,,,55b75944fdf99b6e0c49981b,2020-11-26_16h00.50.928,lexical_decision_task_MP_exp2,2020.2.5,Win32,60,m,1,0.733715,,,,,,,,0.733715,1,,,,,,187,WORD,UN,33,social,COURSE,m,,,,,,0.204101563,-0.159179688,0,0,0,,0,98,98,126,1,,
,,,,,,,,,,,,,,,,,,55b75944fdf99b6e0c49981b,2020-11-26_16h00.50.928,lexical_decision_task_MP_exp2,2020.2.5,Win32,60,z,1,0.86703,,,,,,,,0.86703,1,,,,,,456,NW,UN,33,wanigh,BROGET,z,,,,,,0.204101563,-0.159179688,0,0,0,,0,99,99,395,1,,
,,,,,,,,,,,,,,,,,,55b75944fdf99b6e0c49981b,2020-11-26_16h00.50.928,lexical_decision_task_MP_exp2,2020.2.5,Win32,60,m,1,0.83375,,,,,,,,0.83375,1,,,,,,124,WORD,"ID",16,blouse,BLOUSE,m,,,,,,0.204101563,-0.159179688,0,0,0,,0,100,100,63,1,,
,,,,,,,,,,,,,,,,,,55b75944fdf99b6e0c49981b,2020-11-26_16h00.50.928,lexical_decision_task_MP_exp2,2020.2.5,Win32,60,z,1,0.98963,,,,,,,,0.98963,1,,,,,,461,NW,UN,33,absult,JUSTRE,z,,,,,,0.204101563,-0.159179688,0,0,0,,0,101,101,400,1,,
,,,,,,,,,,,,,,,,,,55b75944fdf99b6e0c49981b,2020-11-26_16h00.50.928,lexical_decision_task_MP_exp2,2020.2.5,Win32,60,z,1,0.781005,,,,,,,,0.781005,1,,,,,,417,NW,"ID",16,earoud,EAROUD,z,,,,,,0.204101563,-0.159179688,0,0,0,,0,102,102,356,1,,
,,,,,,,,,,,,,,,,,,55b75944fdf99b6e0c49981b,2020-11-26_16h00.50.928,lexical_decision_task_MP_exp2,2020.2.5,Win32,60,z,1,1.05032,,,,,,,,1.05032,1,,,,,,364,NW,"ID",16,impote,IMPOTE,z,,,,,,0.204101563,-0.159179688,0,0,0,,0,103,103,303,1,,
,,,,,,,,,,,,,,,,,,55b75944fdf99b6e0c49981b,2020-11-26_16h00.50.928,lexical_decision_task_MP_exp2,2020.2.5,Win32,60,m,1,0.81517,,,,,,,,0.81517,1,,,,,,76,WORD,"ID",33,exotic,EXOTIC,m,,,,,,0.204101563,-0.159179688,0,0,0,,0,104,104,15,1,,
,,,,,,,,,,,,,,,,,,55b75944fdf99b6e0c49981b,2020-11-26_16h00.50.928,lexical_decision_task_MP_exp2,2020.2.5,Win32,60,m,1,0.630915,,,,,,,,0.630915,1,,,,,,129,WORD,"ID",16,marvel,MARVEL,m,,,,,,0.204101563,-0.159179688,0,0,0,,0,105,105,68,1,,
,,,,,,,,,,,,,,,,,,55b75944fdf99b6e0c49981b,2020-11-26_16h00.50.928,lexical_decision_task_MP_exp2,2020.2.5,Win32,60,z,1,1.46598,,,,,,,,1.46598,1,,,,,,314,NW,"ID",33,sprine,SPRINE,z,,,,,,0.204101563,-0.159179688,0,0,0,,0,106,106,253,1,,
,,,,,,,,,,,,,,,,,,55b75944fdf99b6e0c49981b,2020-11-26_16h00.50.928,lexical_decision_task_MP_exp2,2020.2.5,Win32,60,z,1,0.833765,,,,,,,,0.833765,1,,,,,,259,NW,UN,16,unject,SOUDAL,z,,,,,,0.204101563,-0.159179688,0,0,0,,0,107,107,438,1,,
,,,,,,,,,,,,,,,,,,55b75944fdf99b6e0c49981b,2020-11-26_16h00.50.928,lexical_decision_task_MP_exp2,2020.2.5,Win32,60,m,1,0.75073,,,,,,,,0.75073,1,,,,,,104,WORD,"ID",33,studio,STUDIO,m,,,,,,0.204101563,-0.159179688,0,0,0,,0,108,108,43,1,,
,,,,,,,,,,,,,,,,,,55b75944fdf99b6e0c49981b,2020-11-26_16h00.50.928,lexical_decision_task_MP_exp2,2020.2.5,Win32,60,m,0,1.067145,,,,,,,,1.067145,0,,,,,,374,NW,"ID",16,sliant,SLIANT,z,,,,,,0.204101563,-0.159179688,0,0,0,,0,109,109,313,1,,
,,,,,,,,,,,,,,,,,,55b75944fdf99b6e0c49981b,2020-11-26_16h00.50.928,lexical_decision_task_MP_exp2,2020.2.5,Win32,60,z,1,1.03408,,,,,,,,1.03408,1,,,,,,425,NW,UN,33,urivel,FRUDGE,z,,,,,,0.204101563,-0.159179688,0,0,0,,0,110,110,364,1,,
,,,,,,,,,,,,,,,,,,55b75944fdf99b6e0c49981b,2020-11-26_16h00.50.928,lexical_decision_task_MP_exp2,2020.2.5,Win32,60,m,1,0.733985,,,,,,,,0.733985,1,,,,,,55,WORD,UN,16,ambush,STROKE,m,,,,,,0.204101563,-0.159179688,0,0,0,,0,111,111,234,1,,
,,,,,,,,,,,,,,,,,,55b75944fdf99b6e0c49981b,2020-11-26_16h00.50.928,lexical_decision_task_MP_exp2,2020.2.5,Win32,60,m,0,0.800525,,,,,,,,0.800525,0,,,,,,396,NW,"ID",16,flengy,FLENGY,z,,,,,,0.204101563,-0.159179688,0,0,0,,0,112,112,335,1,,
,,,,,,,,,,,,,,,,,,55b75944fdf99b6e0c49981b,2020-11-26_16h00.50.928,lexical_decision_task_MP_exp2,2020.2.5,Win32,60,z,1,0.652605,,,,,,,,0.652605,1,,,,,,389,NW,"ID",16,witmer,WITMER,z,,,,,,0.204101563,-0.159179688,0,0,0,,0,113,113,328,1,,
,,,,,,,,,,,,,,,,,,55b75944fdf99b6e0c49981b,2020-11-26_16h00.50.928,lexical_decision_task_MP_exp2,2020.2.5,Win32,60,z,1,0.685125,,,,,,,,0.685125,1,,,,,,411,NW,"ID",16,orchin,ORCHIN,z,,,,,,0.204101563,-0.159179688,0,0,0,,0,114,114,350,1,,
,,,,,,,,,,,,,,,,,,55b75944fdf99b6e0c49981b,2020-11-26_16h00.50.928,lexical_decision_task_MP_exp2,2020.2.5,Win32,60,z,1,1.15128,,,,,,,,1.15128,1,,,,,,280,NW,UN,16,melaty,CURBOL,z,,,,,,0.204101563,-0.159179688,0,0,0,,0,115,115,459,1,,
,,,,,,,,,,,,,,,,,,55b75944fdf99b6e0c49981b,2020-11-26_16h00.50.928,lexical_decision_task_MP_exp2,2020.2.5,Win32,60,z,1,0.93372,,,,,,,,0.93372,1,,,,,,468,NW,UN,33,padifs,WICTOR,z,,,,,,0.204101563,-0.159179688,0,0,0,,0,116,116,407,1,,
,,,,,,,,,,,,,,,,,,55b75944fdf99b6e0c49981b,2020-11-26_16h00.50.928,lexical_decision_task_MP_exp2,2020.2.5,Win32,60,z,1,1.166775,,,,,,,,1.166775,1,,,,,,399,NW,"ID",16,fouret,FOURET,z,,,,,,0.204101563,-0.159179688,0,0,0,,0,117,117,338,1,,
,,,,,,,,,,,,,,,,,,55b75944fdf99b6e0c49981b,2020-11-26_16h00.50.928,lexical_decision_task_MP_exp2,2020.2.5,Win32,60,m,1,0.83325,,,,,,,,0.83325,1,,,,,,37,WORD,UN,16,powder,INSULT,m,,,,,,0.204101563,-0.159179688,0,0,0,,0,118,118,216,1,,
,,,,,,,,,,,,,,,,,,55b75944fdf99b6e0c49981b,2020-11-26_16h00.50.928,lexical_decision_task_MP_exp2,2020.2.5,Win32,60,m,1,0.650765,,,,,,,,0.650765,1,,,,,,63,WORD,"ID",33,launch,LAUNCH,m,,,,,,0.204101563,-0.159179688,0,0,0,,0,119,119,2,1,,
,,,,,,,,,,,,,,,,,,55b75944fdf99b6e0c49981b,2020-11-26_16h00.50.928,lexical_decision_task_MP_exp2,2020.2.5,Win32,60,z,1,0.900335,,,,,,,,0.900335,1,,,,,,308,NW,"ID",33,psetch,PSETCH,z,,,,,,0.204101563,-0.159179688,0,0,0,space,0,120,120,247,1,10.634035,
,,,,,,,,,,,,,,,,,,55b75944fdf99b6e0c49981b,2020-11-26_16h00.50.928,lexical_decision_task_MP_exp2,2020.2.5,Win32,60,m,1,0.8007,,,,,,,,0.8007,1,,,,,,34,WORD,UN,16,socket,JUNGLE,m,,,,,,0.204101563,-0.159179688,0,0,0,,0,121,121,213,1,,
,,,,,,,,,,,,,,,,,,55b75944fdf99b6e0c49981b,2020-11-26_16h00.50.928,lexical_decision_task_MP_exp2,2020.2.5,Win32,60,z,1,0.834635,,,,,,,,0.834635,1,,,,,,304,NW,"ID",33,cludie,CLUDIE,z,,,,,,0.204101563,-0.159179688,0,0,0,,0,122,122,243,1,,
,,,,,,,,,,,,,,,,,,55b75944fdf99b6e0c49981b,2020-11-26_16h00.50.928,lexical_decision_task_MP_exp2,2020.2.5,Win32,60,z,1,0.93292,,,,,,,,0.93292,1,,,,,,414,NW,"ID",16,serbol,SERBOL,z,,,,,,0.204101563,-0.159179688,0,0,0,,0,123,123,353,1,,
,,,,,,,,,,,,,,,,,,55b75944fdf99b6e0c49981b,2020-11-26_16h00.50.928,lexical_decision_task_MP_exp2,2020.2.5,Win32,60,m,1,0.684175,,,,,,,,0.684175,1,,,,,,152,WORD,"ID",16,rocket,ROCKET,m,,,,,,0.204101563,-0.159179688,0,0,0,,0,124,124,91,1,,
,,,,,,,,,,,,,,,,,,55b75944fdf99b6e0c49981b,2020-11-26_16h00.50.928,lexical_decision_task_MP_exp2,2020.2.5,Win32,60,z,1,0.817345,,,,,,,,0.817345,1,,,,,,315,NW,"ID",33,laston,LASTON,z,,,,,,0.204101563,-0.159179688,0,0,0,,0,125,125,254,1,,
,,,,,,,,,,,,,,,,,,55b75944fdf99b6e0c49981b,2020-11-26_16h00.50.928,lexical_decision_task_MP_exp2,2020.2.5,Win32,60,z,1,0.75205,,,,,,,,0.75205,1,,,,,,377,NW,"ID",16,injore,INJORE,z,,,,,,0.204101563,-0.159179688,0,0,0,,0,126,126,316,1,,
,,,,,,,,,,,,,,,,,,55b75944fdf99b6e0c49981b,2020-11-26_16h00.50.928,lexical_decision_task_MP_exp2,2020.2.5,Win32,60,z,1,0.75208,,,,,,,,0.75208,1,,,,,,252,NW,UN,16,resait,STAPOD,z,,,,,,0.204101563,-0.159179688,0,0,0,,0,127,127,431,1,,
,,,,,,,,,,,,,,,,,,55b75944fdf99b6e0c49981b,2020-11-26_16h00.50.928,lexical_decision_task_MP_exp2,2020.2.5,Win32,60,m,1,0.71688,,,,,,,,0.71688,1,,,,,,134,WORD,"ID",16,staple,STAPLE,m,,,,,,0.204101563,-0.159179688,0,0,0,,0,128,128,73,1,,
,,,,,,,,,,,,,,,,,,55b75944fdf99b6e0c49981b,2020-11-26_16h00.50.928,lexical_decision_task_MP_exp2,2020.2.5,Win32,60,m,1,0.72715,,,,,,,,0.72715,1,,,,,,45,WORD,UN,16,single,CLERGY,m,,,,,,0.204101563,-0.159179688,0,0,0,,0,129,129,224,1,,
,,,,,,,,,,,,,,,,,,55b75944fdf99b6e0c49981b,2020-11-26_16h00.50.928,lexical_decision_task_MP_exp2,2020.2.5,Win32,60,z,1,0.617015,,,,,,,,0.617015,1,,,,,,446,NW,UN,33,gircue,RUNAMO,z,,,,,,0.204101563,-0.159179688,0,0,0,,0,130,130,385,1,,
,,,,,,,,,,,,,,,,,,55b75944fdf99b6e0c49981b,2020-11-26_16h00.50.928,lexical_decision_task_MP_exp2,2020.2.5,Win32,60,z,1,0.751015,,,,,,,,0.751015,1,,,,,,427,NW,UN,33,tandly,SCHIND,z,,,,,,0.204101563,-0.159179688,0,0,0,,0,131,131,366,1,,
,,,,,,,,,,,,,,,,,,55b75944fdf99b6e0c49981b,2020-11-26_16h00.50.928,lexical_decision_task_MP_exp2,2020.2.5,Win32,60,m,1,0.650795,,,,,,,,0.650795,1,,,,,,184,WORD,UN,33,bother,SLEAZY,m,,,,,,0.204101563,-0.159179688,0,0,0,,0,132,132,123,1,,
,,,,,,,,,,,,,,,,,,55b75944fdf99b6e0c49981b,2020-11-26_16h00.50.928,lexical_decision_task_MP_exp2,2020.2.5,Win32,60,z,1,0.83448,,,,,,,,0.83448,1,,,,,,363,NW,"ID",16,breali,BREALI,z,,,,,,0.204101563,-0.159179688,0,0,0,,0,133,133,302,1,,
,,,,,,,,,,,,,,,,,,55b75944fdf99b6e0c49981b,2020-11-26_16h00.50.928,lexical_decision_task_MP_exp2,2020.2.5,Win32,60,z,1,1.207965,,,,,,,,1.207965,1,,,,,,476,NW,UN,33,photie,JOSTED,z,,,,,,0.204101563,-0.159179688,0,0,0,,0,134,134,415,1,,
,,,,,,,,,,,,,,,,,,55b75944fdf99b6e0c49981b,2020-11-26_16h00.50.928,lexical_decision_task_MP_exp2,2020.2.5,Win32,60,z,0,0.832355,,,,,,,,0.832355,0,,,,,,157,WORD,"ID",16,dragon,DRAGON,m,,,,,,0.204101563,-0.159179688,0,0,0,,0,135,135,96,1,,
,,,,,,,,,,,,,,,,,,55b75944fdf99b6e0c49981b,2020-11-26_16h00.50.928,lexical_decision_task_MP_exp2,2020.2.5,Win32,60,z,1,0.81866,,,,,,,,0.81866,1,,,,,,320,NW,"ID",33,jockal,JOCKAL,z,,,,,,0.204101563,-0.159179688,0,0,0,,0,136,136,259,1,,
,,,,,,,,,,,,,,,,,,55b75944fdf99b6e0c49981b,2020-11-26_16h00.50.928,lexical_decision_task_MP_exp2,2020.2.5,Win32,60,m,1,1.267685,,,,,,,,1.267685,1,,,,,,175,WORD,"ID",16,fabric,FABRIC,m,,,,,,0.204101563,-0.159179688,0,0,0,,0,137,137,114,1,,
,,,,,,,,,,,,,,,,,,55b75944fdf99b6e0c49981b,2020-11-26_16h00.50.928,lexical_decision_task_MP_exp2,2020.2.5,Win32,60,z,1,1.052025,,,,,,,,1.052025,1,,,,,,293,NW,UN,16,inhort,SWANCE,z,,,,,,0.204101563,-0.159179688,0,0,0,,0,138,138,472,1,,
,,,,,,,,,,,,,,,,,,55b75944fdf99b6e0c49981b,2020-11-26_16h00.50.928,lexical_decision_task_MP_exp2,2020.2.5,Win32,60,z,1,0.918545,,,,,,,,0.918545,1,,,,,,249,NW,UN,16,milted,BATROL,z,,,,,,0.204101563,-0.159179688,0,0,0,,0,139,139,428,1,,
,,,,,,,,,,,,,,,,,,55b75944fdf99b6e0c49981b,2020-11-26_16h00.50.928,lexical_decision_task_MP_exp2,2020.2.5,Win32,60,m,1,0.77099,,,,,,,,0.77099,1,,,,,,8,WORD,UN,16,hustle,ABRUPT,m,,,,,,0.204101563,-0.159179688,0,0,0,,0,140,140,187,1,,
,,,,,,,,,,,,,,,,,,55b75944fdf99b6e0c49981b,2020-11-26_16h00.50.928,lexical_decision_task_MP_exp2,2020.2.5,Win32,60,m,1,1.03405,,,,,,,,1.03405,1,,,,,,85,WORD,"ID",33,sprawl,SPRAWL,m,,,,,,0.204101563,-0.159179688,0,0,0,,0,141,141,24,1,,
,,,,,,,,,,,,,,,,,,55b75944fdf99b6e0c49981b,2020-11-26_16h00.50.928,lexical_decision_task_MP_exp2,2020.2.5,Win32,60,z,1,0.918955,,,,,,,,0.918955,1,,,,,,358,NW,"ID",33,fleack,FLEACK,z,,,,,,0.204101563,-0.159179688,0,0,0,,0,142,142,297,1,,
,,,,,,,,,,,,,,,,,,55b75944fdf99b6e0c49981b,2020-11-26_16h00.50.928,lexical_decision_task_MP_exp2,2020.2.5,Win32,60,m,1,0.69686,,,,,,,,0.69686,1,,,,,,223,WORD,UN,33,period,KIDNEY,m,,,,,,0.204101563,-0.159179688,0,0,0,,0,143,143,162,1,,
,,,,,,,,,,,,,,,,,,55b75944fdf99b6e0c49981b,2020-11-26_16h00.50.928,lexical_decision_task_MP_exp2,2020.2.5,Win32,60,z,1,0.83426,,,,,,,,0.83426,1,,,,,,356,NW,"ID",33,othnis,OTHNIS,z,,,,,,0.204101563,-0.159179688,0,0,0,,0,144,144,295,1,,
,,,,,,,,,,,,,,,,,,55b75944fdf99b6e0c49981b,2020-11-26_16h00.50.928,lexical_decision_task_MP_exp2,2020.2.5,Win32,60,m,1,0.70065,,,,,,,,0.70065,1,,,,,,204,WORD,UN,33,lounge,BURDEN,m,,,,,,0.204101563,-0.159179688,0,0,0,,0,145,145,143,1,,
,,,,,,,,,,,,,,,,,,55b75944fdf99b6e0c49981b,2020-11-26_16h00.50.928,lexical_decision_task_MP_exp2,2020.2.5,Win32,60,m,1,0.718055,,,,,,,,0.718055,1,,,,,,216,WORD,UN,33,liquor,BEHALF,m,,,,,,0.204101563,-0.159179688,0,0,0,,0,146,146,155,1,,
,,,,,,,,,,,,,,,,,,55b75944fdf99b6e0c49981b,2020-11-26_16h00.50.928,lexical_decision_task_MP_exp2,2020.2.5,Win32,60,m,1,0.7339,,,,,,,,0.7339,1,,,,,,240,WORD,UN,33,seldom,FOREST,m,,,,,,0.204101563,-0.159179688,0,0,0,,0,147,147,179,1,,
,,,,,,,,,,,,,,,,,,55b75944fdf99b6e0c49981b,2020-11-26_16h00.50.928,lexical_decision_task_MP_exp2,2020.2.5,Win32,60,z,1,1.066805,,,,,,,,1.066805,1,,,,,,313,NW,"ID",33,paurse,PAURSE,z,,,,,,0.204101563,-0.159179688,0,0,0,,0,148,148,252,1,,
,,,,,,,,,,,,,,,,,,55b75944fdf99b6e0c49981b,2020-11-26_16h00.50.928,lexical_decision_task_MP_exp2,2020.2.5,Win32,60,m,1,0.833995,,,,,,,,0.833995,1,,,,,,235,WORD,UN,33,pirate,GRUMPY,m,,,,,,0.204101563,-0.159179688,0,0,0,,0,149,149,174,1,,
,,,,,,,,,,,,,,,,,,55b75944fdf99b6e0c49981b,2020-11-26_16h00.50.928,lexical_decision_task_MP_exp2,2020.2.5,Win32,60,z,1,0.71676,,,,,,,,0.71676,1,,,,,,387,NW,"ID",16,gronce,GRONCE,z,,,,,,0.204101563,-0.159179688,0,0,0,,0,150,150,326,1,,
,,,,,,,,,,,,,,,,,,55b75944fdf99b6e0c49981b,2020-11-26_16h00.50.928,lexical_decision_task_MP_exp2,2020.2.5,Win32,60,m,1,1.072875,,,,,,,,1.072875,1,,,,,,194,WORD,UN,33,resign,ABSENT,m,,,,,,0.204101563,-0.159179688,0,0,0,,0,151,151,133,1,,
,,,,,,,,,,,,,,,,,,55b75944fdf99b6e0c49981b,2020-11-26_16h00.50.928,lexical_decision_task_MP_exp2,2020.2.5,Win32,60,m,1,0.81754,,,,,,,,0.81754,1,,,,,,141,WORD,"ID",16,orphan,ORPHAN,m,,,,,,0.204101563,-0.159179688,0,0,0,,0,152,152,80,1,,
,,,,,,,,,,,,,,,,,,55b75944fdf99b6e0c49981b,2020-11-26_16h00.50.928,lexical_decision_task_MP_exp2,2020.2.5,Win32,60,z,1,0.98383,,,,,,,,0.98383,1,,,,,,464,NW,UN,33,whivex,CHAITE,z,,,,,,0.204101563,-0.159179688,0,0,0,,0,153,153,403,1,,
,,,,,,,,,,,,,,,,,,55b75944fdf99b6e0c49981b,2020-11-26_16h00.50.928,lexical_decision_task_MP_exp2,2020.2.5,Win32,60,m,1,0.829985,,,,,,,,0.829985,1,,,,,,190,WORD,UN,33,stable,BACKUP,m,,,,,,0.204101563,-0.159179688,0,0,0,,0,154,154,129,1,,
,,,,,,,,,,,,,,,,,,55b75944fdf99b6e0c49981b,2020-11-26_16h00.50.928,lexical_decision_task_MP_exp2,2020.2.5,Win32,60,m,1,0.712445,,,,,,,,0.712445,1,,,,,,120,WORD,"ID",33,strain,STRAIN,m,,,,,,0.204101563,-0.159179688,0,0,0,,0,155,155,59,1,,
,,,,,,,,,,,,,,,,,,55b75944fdf99b6e0c49981b,2020-11-26_16h00.50.928,lexical_decision_task_MP_exp2,2020.2.5,Win32,60,z,1,0.8336,,,,,,,,0.8336,1,,,,,,420,NW,"ID",16,gushop,GUSHOP,z,,,,,,0.204101563,-0.159179688,0,0,0,,0,156,156,359,1,,
,,,,,,,,,,,,,,,,,,55b75944fdf99b6e0c49981b,2020-11-26_16h00.50.928,lexical_decision_task_MP_exp2,2020.2.5,Win32,60,m,1,0.76932,,,,,,,,0.76932,1,,,,,,80,WORD,"ID",33,family,FAMILY,m,,,,,,0.204101563,-0.159179688,0,0,0,,0,157,157,19,1,,
,,,,,,,,,,,,,,,,,,55b75944fdf99b6e0c49981b,2020-11-26_16h00.50.928,lexical_decision_task_MP_exp2,2020.2.5,Win32,60,z,1,0.933895,,,,,,,,0.933895,1,,,,,,405,NW,"ID",16,flumni,FLUMNI,z,,,,,,0.204101563,-0.159179688,0,0,0,,0,158,158,344,1,,
,,,,,,,,,,,,,,,,,,55b75944fdf99b6e0c49981b,2020-11-26_16h00.50.928,lexical_decision_task_MP_exp2,2020.2.5,Win32,60,m,1,0.783755,,,,,,,,0.783755,1,,,,,,193,WORD,UN,33,mildew,OBJECT,m,,,,,,0.204101563,-0.159179688,0,0,0,,0,159,159,132,1,,
,,,,,,,,,,,,,,,,,,55b75944fdf99b6e0c49981b,2020-11-26_16h00.50.928,lexical_decision_task_MP_exp2,2020.2.5,Win32,60,m,1,0.700825,,,,,,,,0.700825,1,,,,,,180,WORD,"ID",16,silent,SILENT,m,,,,,,0.204101563,-0.159179688,0,0,0,,0,160,160,119,1,,
,,,,,,,,,,,,,,,,,,55b75944fdf99b6e0c49981b,2020-11-26_16h00.50.928,lexical_decision_task_MP_exp2,2020.2.5,Win32,60,m,1,0.767265,,,,,,,,0.767265,1,,,,,,222,WORD,UN,33,export,HINDER,m,,,,,,0.204101563,-0.159179688,0,0,0,,0,161,161,161,1,,
,,,,,,,,,,,,,,,,,,55b75944fdf99b6e0c49981b,2020-11-26_16h00.50.928,lexical_decision_task_MP_exp2,2020.2.5,Win32,60,m,1,0.614365,,,,,,,,0.614365,1,,,,,,213,WORD,UN,33,intake,SQUEAL,m,,,,,,0.204101563,-0.159179688,0,0,0,,0,162,162,152,1,,
,,,,,,,,,,,,,,,,,,55b75944fdf99b6e0c49981b,2020-11-26_16h00.50.928,lexical_decision_task_MP_exp2,2020.2.5,Win32,60,m,1,0.650645,,,,,,,,0.650645,1,,,,,,67,WORD,"ID",33,policy,POLICY,m,,,,,,0.204101563,-0.159179688,0,0,0,,0,163,163,6,1,,
,,,,,,,,,,,,,,,,,,55b75944fdf99b6e0c49981b,2020-11-26_16h00.50.928,lexical_decision_task_MP_exp2,2020.2.5,Win32,60,m,1,0.730765,,,,,,,,0.730765,1,,,,,,172,WORD,"ID",16,patrol,PATROL,m,,,,,,0.204101563,-0.159179688,0,0,0,,0,164,164,111,1,,
,,,,,,,,,,,,,,,,,,55b75944fdf99b6e0c49981b,2020-11-26_16h00.50.928,lexical_decision_task_MP_exp2,2020.2.5,Win32,60,z,1,0.83388,,,,,,,,0.83388,1,,,,,,419,NW,"ID",16,slount,SLOUNT,z,,,,,,0.204101563,-0.159179688,0,0,0,,0,165,165,358,1,,
,,,,,,,,,,,,,,,,,,55b75944fdf99b6e0c49981b,2020-11-26_16h00.50.928,lexical_decision_task_MP_exp2,2020.2.5,Win32,60,m,1,0.70521,,,,,,,,0.70521,1,,,,,,179,WORD,"ID",16,basket,BASKET,m,,,,,,0.204101563,-0.159179688,0,0,0,,0,166,166,118,1,,
,,,,,,,,,,,,,,,,,,55b75944fdf99b6e0c49981b,2020-11-26_16h00.50.928,lexical_decision_task_MP_exp2,2020.2.5,Win32,60,m,1,0.7359,,,,,,,,0.7359,1,,,,,,96,WORD,"ID",33,ignore,IGNORE,m,,,,,,0.204101563,-0.159179688,0,0,0,,0,167,167,35,1,,
,,,,,,,,,,,,,,,,,,55b75944fdf99b6e0c49981b,2020-11-26_16h00.50.928,lexical_decision_task_MP_exp2,2020.2.5,Win32,60,z,1,1.583225,,,,,,,,1.583225,1,,,,,,297,NW,UN,16,piergy,FERTIC,z,,,,,,0.204101563,-0.159179688,0,0,0,,0,168,168,476,1,,
,,,,,,,,,,,,,,,,,,55b75944fdf99b6e0c49981b,2020-11-26_16h00.50.928,lexical_decision_task_MP_exp2,2020.2.5,Win32,60,z,1,0.77675,,,,,,,,0.77675,1,,,,,,453,NW,UN,33,scouge,BOLVIS,z,,,,,,0.204101563,-0.159179688,0,0,0,,0,169,169,392,1,,
,,,,,,,,,,,,,,,,,,55b75944fdf99b6e0c49981b,2020-11-26_16h00.50.928,lexical_decision_task_MP_exp2,2020.2.5,Win32,60,z,0,0.89958,,,,,,,,0.89958,0,,,,,,40,WORD,UN,16,spring,CONVEY,m,,,,,,0.204101563,-0.159179688,0,0,0,,0,170,170,219,1,,
,,,,,,,,,,,,,,,,,,55b75944fdf99b6e0c49981b,2020-11-26_16h00.50.928,lexical_decision_task_MP_exp2,2020.2.5,Win32,60,z,1,0.9521,,,,,,,,0.9521,1,,,,,,288,NW,UN,16,starby,YACEUP,z,,,,,,0.204101563,-0.159179688,0,0,0,,0,171,171,467,1,,
,,,,,,,,,,,,,,,,,,55b75944fdf99b6e0c49981b,2020-11-26_16h00.50.928,lexical_decision_task_MP_exp2,2020.2.5,Win32,60,z,1,1.001,,,,,,,,1.001,1,,,,,,273,NW,UN,16,fumblo,SORTEL,z,,,,,,0.204101563,-0.159179688,0,0,0,,0,172,172,452,1,,
,,,,,,,,,,,,,,,,,,55b75944fdf99b6e0c49981b,2020-11-26_16h00.50.928,lexical_decision_task_MP_exp2,2020.2.5,Win32,60,z,1,1.217295,,,,,,,,1.217295,1,,,,,,478,NW,UN,33,pebric,ACRISE,z,,,,,,0.204101563,-0.159179688,0,0,0,,0,173,173,417,1,,
,,,,,,,,,,,,,,,,,,55b75944fdf99b6e0c49981b,2020-11-26_16h00.50.928,lexical_decision_task_MP_exp2,2020.2.5,Win32,60,z,1,1.12928,,,,,,,,1.12928,1,,,,,,418,NW,"ID",16,suidle,SUIDLE,z,,,,,,0.204101563,-0.159179688,0,0,0,,0,174,174,357,1,,
,,,,,,,,,,,,,,,,,,55b75944fdf99b6e0c49981b,2020-11-26_16h00.50.928,lexical_decision_task_MP_exp2,2020.2.5,Win32,60,m,0,1.266255,,,,,,,,1.266255,0,,,,,,248,NW,UN,16,batrol,STROLE,z,,,,,,0.204101563,-0.159179688,0,0,0,,0,175,175,427,1,,
,,,,,,,,,,,,,,,,,,55b75944fdf99b6e0c49981b,2020-11-26_16h00.50.928,lexical_decision_task_MP_exp2,2020.2.5,Win32,60,z,1,0.831885,,,,,,,,0.831885,1,,,,,,412,NW,"ID",16,jiluer,JILUER,z,,,,,,0.204101563,-0.159179688,0,0,0,,0,176,176,351,1,,
,,,,,,,,,,,,,,,,,,55b75944fdf99b6e0c49981b,2020-11-26_16h00.50.928,lexical_decision_task_MP_exp2,2020.2.5,Win32,60,m,1,0.652765,,,,,,,,0.652765,1,,,,,,27,WORD,UN,16,comedy,SCREAM,m,,,,,,0.204101563,-0.159179688,0,0,0,,0,177,177,206,1,,
,,,,,,,,,,,,,,,,,,55b75944fdf99b6e0c49981b,2020-11-26_16h00.50.928,lexical_decision_task_MP_exp2,2020.2.5,Win32,60,m,1,0.86646,,,,,,,,0.86646,1,,,,,,128,WORD,"ID",16,senior,SENIOR,m,,,,,,0.204101563,-0.159179688,0,0,0,,0,178,178,67,1,,
,,,,,,,,,,,,,,,,,,55b75944fdf99b6e0c49981b,2020-11-26_16h00.50.928,lexical_decision_task_MP_exp2,2020.2.5,Win32,60,z,1,0.78168,,,,,,,,0.78168,1,,,,,,298,NW,UN,16,sturch,PIERGY,z,,,,,,0.204101563,-0.159179688,0,0,0,,0,179,179,477,1,,
,,,,,,,,,,,,,,,,,,55b75944fdf99b6e0c49981b,2020-11-26_16h00.50.928,lexical_decision_task_MP_exp2,2020.2.5,Win32,60,z,1,0.78392,,,,,,,,0.78392,1,,,,,,264,NW,UN,16,distar,VACKEL,z,,,,,,0.204101563,-0.159179688,0,0,0,,0,180,180,443,1,,
,,,,,,,,,,,,,,,,,,55b75944fdf99b6e0c49981b,2020-11-26_16h00.50.928,lexical_decision_task_MP_exp2,2020.2.5,Win32,60,z,1,1.001575,,,,,,,,1.001575,1,,,,,,300,NW,UN,16,smenco,YARION,z,,,,,,0.204101563,-0.159179688,0,0,0,,0,181,181,479,1,,
,,,,,,,,,,,,,,,,,,55b75944fdf99b6e0c49981b,2020-11-26_16h00.50.928,lexical_decision_task_MP_exp2,2020.2.5,Win32,60,m,1,0.69632,,,,,,,,0.69632,1,,,,,,65,WORD,"ID",33,symbol,SYMBOL,m,,,,,,0.204101563,-0.159179688,0,0,0,,0,182,182,4,1,,
,,,,,,,,,,,,,,,,,,55b75944fdf99b6e0c49981b,2020-11-26_16h00.50.928,lexical_decision_task_MP_exp2,2020.2.5,Win32,60,m,1,0.983755,,,,,,,,0.983755,1,,,,,,19,WORD,UN,16,breast,PATRON,m,,,,,,0.204101563,-0.159179688,0,0,0,,0,183,183,198,1,,
,,,,,,,,,,,,,,,,,,55b75944fdf99b6e0c49981b,2020-11-26_16h00.50.928,lexical_decision_task_MP_exp2,2020.2.5,Win32,60,z,1,0.732375,,,,,,,,0.732375,1,,,,,,278,NW,UN,16,celond,UNIGHS,z,,,,,,0.204101563,-0.159179688,0,0,0,,0,184,184,457,1,,
,,,,,,,,,,,,,,,,,,55b75944fdf99b6e0c49981b,2020-11-26_16h00.50.928,lexical_decision_task_MP_exp2,2020.2.5,Win32,60,m,1,0.66752,,,,,,,,0.66752,1,,,,,,137,WORD,"ID",16,finger,FINGER,m,,,,,,0.204101563,-0.159179688,0,0,0,,0,185,185,76,1,,
,,,,,,,,,,,,,,,,,,55b75944fdf99b6e0c49981b,2020-11-26_16h00.50.928,lexical_decision_task_MP_exp2,2020.2.5,Win32,60,z,1,0.91616,,,,,,,,0.91616,1,,,,,,369,NW,"ID",16,wronch,WRONCH,z,,,,,,0.204101563,-0.159179688,0,0,0,,0,186,186,308,1,,
,,,,,,,,,,,,,,,,,,55b75944fdf99b6e0c49981b,2020-11-26_16h00.50.928,lexical_decision_task_MP_exp2,2020.2.5,Win32,60,z,1,1.167765,,,,,,,,1.167765,1,,,,,,437,NW,UN,33,baitch,SNAPEL,z,,,,,,0.204101563,-0.159179688,0,0,0,,0,187,187,376,1,,
,,,,,,,,,,,,,,,,,,55b75944fdf99b6e0c49981b,2020-11-26_16h00.50.928,lexical_decision_task_MP_exp2,2020.2.5,Win32,60,m,1,0.70148,,,,,,,,0.70148,1,,,,,,165,WORD,"ID",16,invest,INVEST,m,,,,,,0.204101563,-0.159179688,0,0,0,,0,188,188,104,1,,
,,,,,,,,,,,,,,,,,,55b75944fdf99b6e0c49981b,2020-11-26_16h00.50.928,lexical_decision_task_MP_exp2,2020.2.5,Win32,60,z,1,1.22015,,,,,,,,1.22015,1,,,,,,270,NW,UN,16,aubrid,WRIMSY,z,,,,,,0.204101563,-0.159179688,0,0,0,,0,189,189,449,1,,
,,,,,,,,,,,,,,,,,,55b75944fdf99b6e0c49981b,2020-11-26_16h00.50.928,lexical_decision_task_MP_exp2,2020.2.5,Win32,60,m,0,1.16691,,,,,,,,1.16691,0,,,,,,268,NW,UN,16,orchet,PACKES,z,,,,,,0.204101563,-0.159179688,0,0,0,,0,190,190,447,1,,
,,,,,,,,,,,,,,,,,,55b75944fdf99b6e0c49981b,2020-11-26_16h00.50.928,lexical_decision_task_MP_exp2,2020.2.5,Win32,60,z,1,1.18921,,,,,,,,1.18921,1,,,,,,462,NW,UN,33,kispel,ABSULT,z,,,,,,0.204101563,-0.159179688,0,0,0,,0,191,191,401,1,,
,,,,,,,,,,,,,,,,,,55b75944fdf99b6e0c49981b,2020-11-26_16h00.50.928,lexical_decision_task_MP_exp2,2020.2.5,Win32,60,m,1,1.017655,,,,,,,,1.017655,1,,,,,,68,WORD,"ID",33,fumble,FUMBLE,m,,,,,,0.204101563,-0.159179688,0,0,0,,0,192,192,7,1,,
,,,,,,,,,,,,,,,,,,55b75944fdf99b6e0c49981b,2020-11-26_16h00.50.928,lexical_decision_task_MP_exp2,2020.2.5,Win32,60,z,1,0.933125,,,,,,,,0.933125,1,,,,,,471,NW,UN,33,cigney,NOBEST,z,,,,,,0.204101563,-0.159179688,0,0,0,,0,193,193,410,1,,
,,,,,,,,,,,,,,,,,,55b75944fdf99b6e0c49981b,2020-11-26_16h00.50.928,lexical_decision_task_MP_exp2,2020.2.5,Win32,60,z,1,1.266925,,,,,,,,1.266925,1,,,,,,285,NW,UN,16,reldon,PRUDGE,z,,,,,,0.204101563,-0.159179688,0,0,0,,0,194,194,464,1,,
,,,,,,,,,,,,,,,,,,55b75944fdf99b6e0c49981b,2020-11-26_16h00.50.928,lexical_decision_task_MP_exp2,2020.2.5,Win32,60,m,1,0.73398,,,,,,,,0.73398,1,,,,,,43,WORD,UN,16,foster,TONGUE,m,,,,,,0.204101563,-0.159179688,0,0,0,,0,195,195,222,1,,
,,,,,,,,,,,,,,,,,,55b75944fdf99b6e0c49981b,2020-11-26_16h00.50.928,lexical_decision_task_MP_exp2,2020.2.5,Win32,60,m,1,0.733685,,,,,,,,0.733685,1,,,,,,9,WORD,UN,16,bridge,HUSTLE,m,,,,,,0.204101563,-0.159179688,0,0,0,,0,196,196,188,1,,
,,,,,,,,,,,,,,,,,,55b75944fdf99b6e0c49981b,2020-11-26_16h00.50.928,lexical_decision_task_MP_exp2,2020.2.5,Win32,60,z,1,0.817075,,,,,,,,0.817075,1,,,,,,457,NW,UN,33,barcet,WANIGH,z,,,,,,0.204101563,-0.159179688,0,0,0,,0,197,197,396,1,,
,,,,,,,,,,,,,,,,,,55b75944fdf99b6e0c49981b,2020-11-26_16h00.50.928,lexical_decision_task_MP_exp2,2020.2.5,Win32,60,m,1,0.666945,,,,,,,,0.666945,1,,,,,,209,WORD,UN,33,monkey,SEARCH,m,,,,,,0.204101563,-0.159179688,0,0,0,,0,198,198,148,1,,
,,,,,,,,,,,,,,,,,,55b75944fdf99b6e0c49981b,2020-11-26_16h00.50.928,lexical_decision_task_MP_exp2,2020.2.5,Win32,60,m,1,0.86703,,,,,,,,0.86703,1,,,,,,140,WORD,"ID",16,prince,PRINCE,m,,,,,,0.204101563,-0.159179688,0,0,0,,0,199,199,79,1,,
,,,,,,,,,,,,,,,,,,55b75944fdf99b6e0c49981b,2020-11-26_16h00.50.928,lexical_decision_task_MP_exp2,2020.2.5,Win32,60,m,0,1.1002,,,,,,,,1.1002,0,,,,,,439,NW,UN,33,saride,LIMPOR,z,,,,,,0.204101563,-0.159179688,0,0,0,,0,200,200,378,1,,
,,,,,,,,,,,,,,,,,,55b75944fdf99b6e0c49981b,2020-11-26_16h00.50.928,lexical_decision_task_MP_exp2,2020.2.5,Win32,60,z,1,0.733995,,,,,,,,0.733995,1,,,,,,431,NW,UN,33,lunker,CHRUMS,z,,,,,,0.204101563,-0.159179688,0,0,0,,0,201,201,370,1,,
,,,,,,,,,,,,,,,,,,55b75944fdf99b6e0c49981b,2020-11-26_16h00.50.928,lexical_decision_task_MP_exp2,2020.2.5,Win32,60,m,1,0.883695,,,,,,,,0.883695,1,,,,,,66,WORD,"ID",33,gospel,GOSPEL,m,,,,,,0.204101563,-0.159179688,0,0,0,,0,202,202,5,1,,
,,,,,,,,,,,,,,,,,,55b75944fdf99b6e0c49981b,2020-11-26_16h00.50.928,lexical_decision_task_MP_exp2,2020.2.5,Win32,60,m,1,0.783805,,,,,,,,0.783805,1,,,,,,207,WORD,UN,33,hockey,WREATH,m,,,,,,0.204101563,-0.159179688,0,0,0,,0,203,203,146,1,,
,,,,,,,,,,,,,,,,,,55b75944fdf99b6e0c49981b,2020-11-26_16h00.50.928,lexical_decision_task_MP_exp2,2020.2.5,Win32,60,m,1,0.71729,,,,,,,,0.71729,1,,,,,,233,WORD,UN,33,clumsy,NATURE,m,,,,,,0.204101563,-0.159179688,0,0,0,,0,204,204,172,1,,
,,,,,,,,,,,,,,,,,,55b75944fdf99b6e0c49981b,2020-11-26_16h00.50.928,lexical_decision_task_MP_exp2,2020.2.5,Win32,60,z,1,0.76705,,,,,,,,0.76705,1,,,,,,256,NW,UN,16,veniod,INLORS,z,,,,,,0.204101563,-0.159179688,0,0,0,,0,205,205,435,1,,
,,,,,,,,,,,,,,,,,,55b75944fdf99b6e0c49981b,2020-11-26_16h00.50.928,lexical_decision_task_MP_exp2,2020.2.5,Win32,60,z,1,1.08423,,,,,,,,1.08423,1,,,,,,372,NW,"ID",16,ramily,RAMILY,z,,,,,,0.204101563,-0.159179688,0,0,0,,0,206,206,311,1,,
,,,,,,,,,,,,,,,,,,55b75944fdf99b6e0c49981b,2020-11-26_16h00.50.928,lexical_decision_task_MP_exp2,2020.2.5,Win32,60,m,1,0.63104,,,,,,,,0.63104,1,,,,,,135,WORD,"ID",16,import,IMPORT,m,,,,,,0.204101563,-0.159179688,0,0,0,,0,207,207,74,1,,
,,,,,,,,,,,,,,,,,,55b75944fdf99b6e0c49981b,2020-11-26_16h00.50.928,lexical_decision_task_MP_exp2,2020.2.5,Win32,60,m,1,0.668825,,,,,,,,0.668825,1,,,,,,130,WORD,"ID",16,stupid,STUPID,m,,,,,,0.204101563,-0.159179688,0,0,0,,0,208,208,69,1,,
,,,,,,,,,,,,,,,,,,55b75944fdf99b6e0c49981b,2020-11-26_16h00.50.928,lexical_decision_task_MP_exp2,2020.2.5,Win32,60,m,1,0.78576,,,,,,,,0.78576,1,,,,,,48,WORD,UN,16,survey,WALNUT,m,,,,,,0.204101563,-0.159179688,0,0,0,,0,209,209,227,1,,
,,,,,,,,,,,,,,,,,,55b75944fdf99b6e0c49981b,2020-11-26_16h00.50.928,lexical_decision_task_MP_exp2,2020.2.5,Win32,60,m,0,1.06588,,,,,,,,1.06588,0,,,,,,361,NW,"ID",16,pauche,PAUCHE,z,,,,,,0.204101563,-0.159179688,0,0,0,,0,210,210,300,1,,
,,,,,,,,,,,,,,,,,,55b75944fdf99b6e0c49981b,2020-11-26_16h00.50.928,lexical_decision_task_MP_exp2,2020.2.5,Win32,60,m,1,0.750495,,,,,,,,0.750495,1,,,,,,108,WORD,"ID",33,reckon,RECKON,m,,,,,,0.204101563,-0.159179688,0,0,0,,0,211,211,47,1,,
,,,,,,,,,,,,,,,,,,55b75944fdf99b6e0c49981b,2020-11-26_16h00.50.928,lexical_decision_task_MP_exp2,2020.2.5,Win32,60,m,1,0.89223,,,,,,,,0.89223,1,,,,,,208,WORD,UN,33,search,HOCKEY,m,,,,,,0.204101563,-0.159179688,0,0,0,,0,212,212,147,1,,
,,,,,,,,,,,,,,,,,,55b75944fdf99b6e0c49981b,2020-11-26_16h00.50.928,lexical_decision_task_MP_exp2,2020.2.5,Win32,60,m,1,0.81709,,,,,,,,0.81709,1,,,,,,139,WORD,"ID",16,debris,DEBRIS,m,,,,,,0.204101563,-0.159179688,0,0,0,,0,213,213,78,1,,
,,,,,,,,,,,,,,,,,,55b75944fdf99b6e0c49981b,2020-11-26_16h00.50.928,lexical_decision_task_MP_exp2,2020.2.5,Win32,60,m,1,0.684075,,,,,,,,0.684075,1,,,,,,49,WORD,UN,16,snatch,SURVEY,m,,,,,,0.204101563,-0.159179688,0,0,0,,0,214,214,228,1,,
,,,,,,,,,,,,,,,,,,55b75944fdf99b6e0c49981b,2020-11-26_16h00.50.928,lexical_decision_task_MP_exp2,2020.2.5,Win32,60,z,1,1.017245,,,,,,,,1.017245,1,,,,,,306,NW,"ID",33,sounge,SOUNGE,z,,,,,,0.204101563,-0.159179688,0,0,0,,0,215,215,245,1,,
,,,,,,,,,,,,,,,,,,55b75944fdf99b6e0c49981b,2020-11-26_16h00.50.928,lexical_decision_task_MP_exp2,2020.2.5,Win32,60,m,1,0.72489,,,,,,,,0.72489,1,,,,,,143,WORD,"ID",16,reason,REASON,m,,,,,,0.204101563,-0.159179688,0,0,0,,0,216,216,82,1,,
,,,,,,,,,,,,,,,,,,55b75944fdf99b6e0c49981b,2020-11-26_16h00.50.928,lexical_decision_task_MP_exp2,2020.2.5,Win32,60,z,1,0.84222,,,,,,,,0.84222,1,,,,,,276,NW,UN,16,petain,YARMON,z,,,,,,0.204101563,-0.159179688,0,0,0,,0,217,217,455,1,,
,,,,,,,,,,,,,,,,,,55b75944fdf99b6e0c49981b,2020-11-26_16h00.50.928,lexical_decision_task_MP_exp2,2020.2.5,Win32,60,m,1,0.821215,,,,,,,,0.821215,1,,,,,,237,WORD,UN,33,glance,POSTER,m,,,,,,0.204101563,-0.159179688,0,0,0,,0,218,218,176,1,,
,,,,,,,,,,,,,,,,,,55b75944fdf99b6e0c49981b,2020-11-26_16h00.50.928,lexical_decision_task_MP_exp2,2020.2.5,Win32,60,m,1,0.750915,,,,,,,,0.750915,1,,,,,,191,WORD,UN,33,beacon,STABLE,m,,,,,,0.204101563,-0.159179688,0,0,0,,0,219,219,130,1,,
,,,,,,,,,,,,,,,,,,55b75944fdf99b6e0c49981b,2020-11-26_16h00.50.928,lexical_decision_task_MP_exp2,2020.2.5,Win32,60,m,1,0.782585,,,,,,,,0.782585,1,,,,,,107,WORD,"ID",33,slogan,SLOGAN,m,,,,,,0.204101563,-0.159179688,0,0,0,,0,220,220,46,1,,
,,,,,,,,,,,,,,,,,,55b75944fdf99b6e0c49981b,2020-11-26_16h00.50.928,lexical_decision_task_MP_exp2,2020.2.5,Win32,60,m,1,1.76701,,,,,,,,1.76701,1,,,,,,10,WORD,UN,16,cruise,ETHNIC,m,,,,,,0.204101563,-0.159179688,0,0,0,,0,221,221,189,1,,
,,,,,,,,,,,,,,,,,,55b75944fdf99b6e0c49981b,2020-11-26_16h00.50.928,lexical_decision_task_MP_exp2,2020.2.5,Win32,60,z,1,1.600345,,,,,,,,1.600345,1,,,,,,450,NW,UN,33,cainky,PHRECT,z,,,,,,0.204101563,-0.159179688,0,0,0,,0,222,222,389,1,,
,,,,,,,,,,,,,,,,,,55b75944fdf99b6e0c49981b,2020-11-26_16h00.50.928,lexical_decision_task_MP_exp2,2020.2.5,Win32,60,z,1,1.81881,,,,,,,,1.81881,1,,,,,,441,NW,UN,33,aboune,RASTOE,z,,,,,,0.204101563,-0.159179688,0,0,0,,0,223,223,380,1,,
,,,,,,,,,,,,,,,,,,55b75944fdf99b6e0c49981b,2020-11-26_16h00.50.928,lexical_decision_task_MP_exp2,2020.2.5,Win32,60,z,1,0.93083,,,,,,,,0.93083,1,,,,,,253,NW,UN,16,varosh,RESAIT,z,,,,,,0.204101563,-0.159179688,0,0,0,,0,224,224,432,1,,
,,,,,,,,,,,,,,,,,,55b75944fdf99b6e0c49981b,2020-11-26_16h00.50.928,lexical_decision_task_MP_exp2,2020.2.5,Win32,60,m,1,0.73223,,,,,,,,0.73223,1,,,,,,132,WORD,"ID",16,strong,STRONG,m,,,,,,0.204101563,-0.159179688,0,0,0,,0,225,225,71,1,,
,,,,,,,,,,,,,,,,,,55b75944fdf99b6e0c49981b,2020-11-26_16h00.50.928,lexical_decision_task_MP_exp2,2020.2.5,Win32,60,z,1,0.88074,,,,,,,,0.88074,1,,,,,,438,NW,UN,33,limpor,BAITCH,z,,,,,,0.204101563,-0.159179688,0,0,0,,0,226,226,377,1,,
,,,,,,,,,,,,,,,,,,55b75944fdf99b6e0c49981b,2020-11-26_16h00.50.928,lexical_decision_task_MP_exp2,2020.2.5,Win32,60,z,1,1.63158,,,,,,,,1.63158,1,,,,,,330,NW,"ID",33,kensom,KENSOM,z,,,,,,0.204101563,-0.159179688,0,0,0,,0,227,227,269,1,,
,,,,,,,,,,,,,,,,,,55b75944fdf99b6e0c49981b,2020-11-26_16h00.50.928,lexical_decision_task_MP_exp2,2020.2.5,Win32,60,z,1,0.766345,,,,,,,,0.766345,1,,,,,,339,NW,"ID",33,fachow,FACHOW,z,,,,,,0.204101563,-0.159179688,0,0,0,,0,228,228,278,1,,
,,,,,,,,,,,,,,,,,,55b75944fdf99b6e0c49981b,2020-11-26_16h00.50.928,lexical_decision_task_MP_exp2,2020.2.5,Win32,60,m,1,0.664675,,,,,,,,0.664675,1,,,,,,169,WORD,"ID",16,genius,GENIUS,m,,,,,,0.204101563,-0.159179688,0,0,0,,0,229,229,108,1,,
,,,,,,,,,,,,,,,,,,55b75944fdf99b6e0c49981b,2020-11-26_16h00.50.928,lexical_decision_task_MP_exp2,2020.2.5,Win32,60,z,1,0.83285,,,,,,,,0.83285,1,,,,,,294,NW,UN,16,gleath,INHORT,z,,,,,,0.204101563,-0.159179688,0,0,0,,0,230,230,473,1,,
,,,,,,,,,,,,,,,,,,55b75944fdf99b6e0c49981b,2020-11-26_16h00.50.928,lexical_decision_task_MP_exp2,2020.2.5,Win32,60,m,1,0.801105,,,,,,,,0.801105,1,,,,,,236,WORD,UN,33,grumpy,PIRATE,m,,,,,,0.204101563,-0.159179688,0,0,0,,0,231,231,175,1,,
,,,,,,,,,,,,,,,,,,55b75944fdf99b6e0c49981b,2020-11-26_16h00.50.928,lexical_decision_task_MP_exp2,2020.2.5,Win32,60,m,1,0.648215,,,,,,,,0.648215,1,,,,,,20,WORD,UN,16,simple,BREAST,m,,,,,,0.204101563,-0.159179688,0,0,0,,0,232,232,199,1,,
,,,,,,,,,,,,,,,,,,55b75944fdf99b6e0c49981b,2020-11-26_16h00.50.928,lexical_decision_task_MP_exp2,2020.2.5,Win32,60,z,1,0.732895,,,,,,,,0.732895,1,,,,,,383,NW,"ID",16,aungre,AUNGRE,z,,,,,,0.204101563,-0.159179688,0,0,0,,0,233,233,322,1,,
,,,,,,,,,,,,,,,,,,55b75944fdf99b6e0c49981b,2020-11-26_16h00.50.928,lexical_decision_task_MP_exp2,2020.2.5,Win32,60,m,1,0.71763,,,,,,,,0.71763,1,,,,,,229,WORD,UN,33,fringe,MOTHER,m,,,,,,0.204101563,-0.159179688,0,0,0,,0,234,234,168,1,,
,,,,,,,,,,,,,,,,,,55b75944fdf99b6e0c49981b,2020-11-26_16h00.50.928,lexical_decision_task_MP_exp2,2020.2.5,Win32,60,z,1,0.747545,,,,,,,,0.747545,1,,,,,,246,NW,UN,16,blarge,PIATON,z,,,,,,0.204101563,-0.159179688,0,0,0,,0,235,235,425,1,,
,,,,,,,,,,,,,,,,,,55b75944fdf99b6e0c49981b,2020-11-26_16h00.50.928,lexical_decision_task_MP_exp2,2020.2.5,Win32,60,z,1,0.967035,,,,,,,,0.967035,1,,,,,,243,NW,UN,16,eatric,MUSIED,z,,,,,,0.204101563,-0.159179688,0,0,0,,0,236,236,422,1,,
,,,,,,,,,,,,,,,,,,55b75944fdf99b6e0c49981b,2020-11-26_16h00.50.928,lexical_decision_task_MP_exp2,2020.2.5,Win32,60,m,1,0.717165,,,,,,,,0.717165,1,,,,,,113,WORD,"ID",33,chorus,CHORUS,m,,,,,,0.204101563,-0.159179688,0,0,0,,0,237,237,52,1,,
,,,,,,,,,,,,,,,,,,55b75944fdf99b6e0c49981b,2020-11-26_16h00.50.928,lexical_decision_task_MP_exp2,2020.2.5,Win32,60,z,1,0.78387,,,,,,,,0.78387,1,,,,,,327,NW,"ID",33,plenac,PLENAC,z,,,,,,0.204101563,-0.159179688,0,0,0,,0,238,238,266,1,,
,,,,,,,,,,,,,,,,,,55b75944fdf99b6e0c49981b,2020-11-26_16h00.50.928,lexical_decision_task_MP_exp2,2020.2.5,Win32,60,z,1,0.815525,,,,,,,,0.815525,1,,,,,,344,NW,"ID",33,scrily,SCRILY,z,,,,,,0.204101563,-0.159179688,0,0,0,,0,239,239,283,1,,
,,,,,,,,,,,,,,,,,,55b75944fdf99b6e0c49981b,2020-11-26_16h00.50.928,lexical_decision_task_MP_exp2,2020.2.5,Win32,60,z,1,0.70022,,,,,,,,0.70022,1,,,,,,423,NW,UN,33,praile,STRELD,z,,,,,,0.204101563,-0.159179688,0,0,0,,0,240,240,362,1,,
,,,,,,,,,,,,,,,,,,55b75944fdf99b6e0c49981b,2020-11-26_16h00.50.928,lexical_decision_task_MP_exp2,2020.2.5,Win32,60,m,1,0.6682,,,,,,,,0.6682,1,,,,,,44,WORD,UN,16,clergy,DANGER,m,,,,,,0.045898438,-0.395507813,1,0,0,,0,241,241,223,1,,break_done_button
,,,,,,,,,,,,,,,,,,55b75944fdf99b6e0c49981b,2020-11-26_16h00.50.928,lexical_decision_task_MP_exp2,2020.2.5,Win32,60,,0,,,,,,,,,0.6682,-1,,,,,,479,NW,UN,33,crible,LOBUSH,z,,,,,,0.045898438,-0.395507813,0,0,0,,0,242,242,418,1,,
,,,,,,,,,,,,,,,,,,55b75944fdf99b6e0c49981b,2020-11-26_16h00.50.928,lexical_decision_task_MP_exp2,2020.2.5,Win32,60,m,1,1.05047,,,,,,,,1.05047,1,,,,,,198,WORD,UN,33,invoke,WICKED,m,,,,,,0.045898438,-0.395507813,0,0,0,,0,243,243,137,1,,
,,,,,,,,,,,,,,,,,,55b75944fdf99b6e0c49981b,2020-11-26_16h00.50.928,lexical_decision_task_MP_exp2,2020.2.5,Win32,60,m,1,0.70062,,,,,,,,0.70062,1,,,,,,238,WORD,UN,33,behalf,FLOWER,m,,,,,,0.045898438,-0.395507813,0,0,0,,0,244,244,177,1,,
,,,,,,,,,,,,,,,,,,55b75944fdf99b6e0c49981b,2020-11-26_16h00.50.928,lexical_decision_task_MP_exp2,2020.2.5,Win32,60,m,1,1.00288,,,,,,,,1.00288,1,,,,,,78,WORD,"ID",33,column,COLUMN,m,,,,,,0.045898438,-0.395507813,0,0,0,,0,245,245,17,1,,
,,,,,,,,,,,,,,,,,,55b75944fdf99b6e0c49981b,2020-11-26_16h00.50.928,lexical_decision_task_MP_exp2,2020.2.5,Win32,60,m,1,0.602245,,,,,,,,0.602245,1,,,,,,168,WORD,"ID",16,answer,ANSWER,m,,,,,,0.045898438,-0.395507813,0,0,0,,0,246,246,107,1,,
,,,,,,,,,,,,,,,,,,55b75944fdf99b6e0c49981b,2020-11-26_16h00.50.928,lexical_decision_task_MP_exp2,2020.2.5,Win32,60,m,1,0.617235,,,,,,,,0.617235,1,,,,,,112,WORD,"ID",33,breath,BREATH,m,,,,,,0.045898438,-0.395507813,0,0,0,,0,247,247,51,1,,
,,,,,,,,,,,,,,,,,,55b75944fdf99b6e0c49981b,2020-11-26_16h00.50.928,lexical_decision_task_MP_exp2,2020.2.5,Win32,60,z,1,0.634445,,,,,,,,0.634445,1,,,,,,254,NW,UN,16,apight,VAROSH,z,,,,,,0.045898438,-0.395507813,0,0,0,,0,248,248,433,1,,
,,,,,,,,,,,,,,,,,,55b75944fdf99b6e0c49981b,2020-11-26_16h00.50.928,lexical_decision_task_MP_exp2,2020.2.5,Win32,60,m,1,0.764555,,,,,,,,0.764555,1,,,,,,6,WORD,UN,16,anchor,BUNDLE,m,,,,,,0.045898438,-0.395507813,0,0,0,,0,249,249,185,1,,
,,,,,,,,,,,,,,,,,,55b75944fdf99b6e0c49981b,2020-11-26_16h00.50.928,lexical_decision_task_MP_exp2,2020.2.5,Win32,60,m,1,0.59788,,,,,,,,0.59788,1,,,,,,2,WORD,UN,16,knight,BRIDGE,m,,,,,,0.045898438,-0.395507813,0,0,0,,0,250,250,181,1,,
,,,,,,,,,,,,,,,,,,55b75944fdf99b6e0c49981b,2020-11-26_16h00.50.928,lexical_decision_task_MP_exp2,2020.2.5,Win32,60,z,1,0.816435,,,,,,,,0.816435,1,,,,,,407,NW,"ID",16,suiver,SUIVER,z,,,,,,0.045898438,-0.395507813,0,0,0,,0,251,251,346,1,,
,,,,,,,,,,,,,,,,,,55b75944fdf99b6e0c49981b,2020-11-26_16h00.50.928,lexical_decision_task_MP_exp2,2020.2.5,Win32,60,m,1,0.733745,,,,,,,,0.733745,1,,,,,,221,WORD,UN,33,hinder,MASCOT,m,,,,,,0.045898438,-0.395507813,0,0,0,,0,252,252,160,1,,
,,,,,,,,,,,,,,,,,,55b75944fdf99b6e0c49981b,2020-11-26_16h00.50.928,lexical_decision_task_MP_exp2,2020.2.5,Win32,60,m,1,0.84818,,,,,,,,0.84818,1,,,,,,16,WORD,UN,16,charge,FAUCET,m,,,,,,0.045898438,-0.395507813,0,0,0,,0,253,253,195,1,,
,,,,,,,,,,,,,,,,,,55b75944fdf99b6e0c49981b,2020-11-26_16h00.50.928,lexical_decision_task_MP_exp2,2020.2.5,Win32,60,m,1,0.700845,,,,,,,,0.700845,1,,,,,,57,WORD,UN,16,danger,CHANGE,m,,,,,,0.045898438,-0.395507813,0,0,0,,0,254,254,236,1,,
,,,,,,,,,,,,,,,,,,55b75944fdf99b6e0c49981b,2020-11-26_16h00.50.928,lexical_decision_task_MP_exp2,2020.2.5,Win32,60,m,1,0.64987,,,,,,,,0.64987,1,,,,,,115,WORD,"ID",33,guitar,GUITAR,m,,,,,,0.045898438,-0.395507813,0,0,0,,0,255,255,54,1,,
,,,,,,,,,,,,,,,,,,55b75944fdf99b6e0c49981b,2020-11-26_16h00.50.928,lexical_decision_task_MP_exp2,2020.2.5,Win32,60,m,1,0.78378,,,,,,,,0.78378,1,,,,,,177,WORD,"ID",16,advent,ADVENT,m,,,,,,0.045898438,-0.395507813,0,0,0,,0,256,256,116,1,,
,,,,,,,,,,,,,,,,,,55b75944fdf99b6e0c49981b,2020-11-26_16h00.50.928,lexical_decision_task_MP_exp2,2020.2.5,Win32,60,m,1,0.66714,,,,,,,,0.66714,1,,,,,,197,WORD,UN,33,wicked,STREAM,m,,,,,,0.045898438,-0.395507813,0,0,0,,0,257,257,136,1,,
,,,,,,,,,,,,,,,,,,55b75944fdf99b6e0c49981b,2020-11-26_16h00.50.928,lexical_decision_task_MP_exp2,2020.2.5,Win32,60,m,1,0.567415,,,,,,,,0.567415,1,,,,,,81,WORD,"ID",33,friend,FRIEND,m,,,,,,0.045898438,-0.395507813,0,0,0,,0,258,258,20,1,,
,,,,,,,,,,,,,,,,,,55b75944fdf99b6e0c49981b,2020-11-26_16h00.50.928,lexical_decision_task_MP_exp2,2020.2.5,Win32,60,z,1,0.69971,,,,,,,,0.69971,1,,,,,,333,NW,"ID",33,catrie,CATRIE,z,,,,,,0.045898438,-0.395507813,0,0,0,,0,259,259,272,1,,
,,,,,,,,,,,,,,,,,,55b75944fdf99b6e0c49981b,2020-11-26_16h00.50.928,lexical_decision_task_MP_exp2,2020.2.5,Win32,60,z,1,0.63362,,,,,,,,0.63362,1,,,,,,421,NW,UN,33,alcoud,KNISMA,z,,,,,,0.045898438,-0.395507813,0,0,0,,0,260,260,360,1,,
,,,,,,,,,,,,,,,,,,55b75944fdf99b6e0c49981b,2020-11-26_16h00.50.928,lexical_decision_task_MP_exp2,2020.2.5,Win32,60,z,1,0.733615,,,,,,,,0.733615,1,,,,,,416,NW,"ID",16,pathel,PATHEL,z,,,,,,0.045898438,-0.395507813,0,0,0,,0,261,261,355,1,,
,,,,,,,,,,,,,,,,,,55b75944fdf99b6e0c49981b,2020-11-26_16h00.50.928,lexical_decision_task_MP_exp2,2020.2.5,Win32,60,m,1,0.633915,,,,,,,,0.633915,1,,,,,,3,WORD,UN,16,trench,KNIGHT,m,,,,,,0.045898438,-0.395507813,0,0,0,,0,262,262,182,1,,
,,,,,,,,,,,,,,,,,,55b75944fdf99b6e0c49981b,2020-11-26_16h00.50.928,lexical_decision_task_MP_exp2,2020.2.5,Win32,60,m,1,0.601625,,,,,,,,0.601625,1,,,,,,47,WORD,UN,16,walnut,INCOME,m,,,,,,0.045898438,-0.395507813,0,0,0,,0,263,263,226,1,,
,,,,,,,,,,,,,,,,,,55b75944fdf99b6e0c49981b,2020-11-26_16h00.50.928,lexical_decision_task_MP_exp2,2020.2.5,Win32,60,z,1,1.7337,,,,,,,,1.7337,1,,,,,,247,NW,UN,16,strole,BLARGE,z,,,,,,0.045898438,-0.395507813,0,0,0,,0,264,264,426,1,,
,,,,,,,,,,,,,,,,,,55b75944fdf99b6e0c49981b,2020-11-26_16h00.50.928,lexical_decision_task_MP_exp2,2020.2.5,Win32,60,z,1,0.8671,,,,,,,,0.8671,1,,,,,,245,NW,UN,16,piaton,ANOUGS,z,,,,,,0.045898438,-0.395507813,0,0,0,,0,265,265,424,1,,
,,,,,,,,,,,,,,,,,,55b75944fdf99b6e0c49981b,2020-11-26_16h00.50.928,lexical_decision_task_MP_exp2,2020.2.5,Win32,60,m,1,0.65067,,,,,,,,0.65067,1,,,,,,126,WORD,"ID",16,enough,ENOUGH,m,,,,,,0.045898438,-0.395507813,0,0,0,,0,266,266,65,1,,
,,,,,,,,,,,,,,,,,,55b75944fdf99b6e0c49981b,2020-11-26_16h00.50.928,lexical_decision_task_MP_exp2,2020.2.5,Win32,60,z,1,0.883675,,,,,,,,0.883675,1,,,,,,469,NW,UN,33,crudio,PADIFS,z,,,,,,0.045898438,-0.395507813,0,0,0,,0,267,267,408,1,,
,,,,,,,,,,,,,,,,,,55b75944fdf99b6e0c49981b,2020-11-26_16h00.50.928,lexical_decision_task_MP_exp2,2020.2.5,Win32,60,z,1,0.717245,,,,,,,,0.717245,1,,,,,,475,NW,UN,33,josted,PEBRIC,z,,,,,,0.045898438,-0.395507813,0,0,0,,0,268,268,414,1,,
,,,,,,,,,,,,,,,,,,55b75944fdf99b6e0c49981b,2020-11-26_16h00.50.928,lexical_decision_task_MP_exp2,2020.2.5,Win32,60,z,1,0.80058,,,,,,,,0.80058,1,,,,,,311,NW,"ID",33,sproly,SPROLY,z,,,,,,0.045898438,-0.395507813,0,0,0,,0,269,269,250,1,,
,,,,,,,,,,,,,,,,,,55b75944fdf99b6e0c49981b,2020-11-26_16h00.50.928,lexical_decision_task_MP_exp2,2020.2.5,Win32,60,z,1,0.71743,,,,,,,,0.71743,1,,,,,,447,NW,UN,33,sadent,GIRCUE,z,,,,,,0.045898438,-0.395507813,0,0,0,,0,270,270,386,1,,
,,,,,,,,,,,,,,,,,,55b75944fdf99b6e0c49981b,2020-11-26_16h00.50.928,lexical_decision_task_MP_exp2,2020.2.5,Win32,60,m,1,0.7672,,,,,,,,0.7672,1,,,,,,161,WORD,"ID",16,pastor,PASTOR,m,,,,,,0.045898438,-0.395507813,0,0,0,,0,271,271,100,1,,
,,,,,,,,,,,,,,,,,,55b75944fdf99b6e0c49981b,2020-11-26_16h00.50.928,lexical_decision_task_MP_exp2,2020.2.5,Win32,60,m,1,0.65028,,,,,,,,0.65028,1,,,,,,88,WORD,"ID",33,hunger,HUNGER,m,,,,,,0.045898438,-0.395507813,0,0,0,,0,272,272,27,1,,
,,,,,,,,,,,,,,,,,,55b75944fdf99b6e0c49981b,2020-11-26_16h00.50.928,lexical_decision_task_MP_exp2,2020.2.5,Win32,60,m,1,0.65082,,,,,,,,0.65082,1,,,,,,210,WORD,UN,33,infect,MONKEY,m,,,,,,0.045898438,-0.395507813,0,0,0,,0,273,273,149,1,,
,,,,,,,,,,,,,,,,,,55b75944fdf99b6e0c49981b,2020-11-26_16h00.50.928,lexical_decision_task_MP_exp2,2020.2.5,Win32,60,z,1,0.667625,,,,,,,,0.667625,1,,,,,,309,NW,"ID",33,amiloy,AMILOY,z,,,,,,0.045898438,-0.395507813,0,0,0,,0,274,274,248,1,,
,,,,,,,,,,,,,,,,,,55b75944fdf99b6e0c49981b,2020-11-26_16h00.50.928,lexical_decision_task_MP_exp2,2020.2.5,Win32,60,m,1,0.88344,,,,,,,,0.88344,1,,,,,,153,WORD,"ID",16,behold,BEHOLD,m,,,,,,0.045898438,-0.395507813,0,0,0,,0,275,275,92,1,,
,,,,,,,,,,,,,,,,,,55b75944fdf99b6e0c49981b,2020-11-26_16h00.50.928,lexical_decision_task_MP_exp2,2020.2.5,Win32,60,m,1,1.553025,,,,,,,,1.553025,1,,,,,,29,WORD,UN,16,orient,SKETCH,m,,,,,,0.045898438,-0.395507813,0,0,0,,0,276,276,208,1,,
,,,,,,,,,,,,,,,,,,55b75944fdf99b6e0c49981b,2020-11-26_16h00.50.928,lexical_decision_task_MP_exp2,2020.2.5,Win32,60,m,0,0.67957,,,,,,,,0.67957,0,,,,,,260,NW,UN,16,stunch,UNJECT,z,,,,,,0.045898438,-0.395507813,0,0,0,,0,277,277,439,1,,
,,,,,,,,,,,,,,,,,,55b75944fdf99b6e0c49981b,2020-11-26_16h00.50.928,lexical_decision_task_MP_exp2,2020.2.5,Win32,60,m,1,0.916875,,,,,,,,0.916875,1,,,,,,119,WORD,"ID",33,spider,SPIDER,m,,,,,,0.045898438,-0.395507813,0,0,0,,0,278,278,58,1,,
,,,,,,,,,,,,,,,,,,55b75944fdf99b6e0c49981b,2020-11-26_16h00.50.928,lexical_decision_task_MP_exp2,2020.2.5,Win32,60,,0,,,,,,,,,0.916875,-1,,,,,,287,NW,UN,16,yaceup,NYMBEL,z,,,,,,0.045898438,-0.395507813,0,0,0,,0,279,279,466,1,,
,,,,,,,,,,,,,,,,,,55b75944fdf99b6e0c49981b,2020-11-26_16h00.50.928,lexical_decision_task_MP_exp2,2020.2.5,Win32,60,m,1,0.766995,,,,,,,,0.766995,1,,,,,,159,WORD,"ID",16,detail,DETAIL,m,,,,,,0.045898438,-0.395507813,0,0,0,,0,280,280,98,1,,
,,,,,,,,,,,,,,,,,,55b75944fdf99b6e0c49981b,2020-11-26_16h00.50.928,lexical_decision_task_MP_exp2,2020.2.5,Win32,60,m,1,0.651235,,,,,,,,0.651235,1,,,,,,118,WORD,"ID",33,flight,FLIGHT,m,,,,,,0.045898438,-0.395507813,0,0,0,,0,281,281,57,1,,
,,,,,,,,,,,,,,,,,,55b75944fdf99b6e0c49981b,2020-11-26_16h00.50.928,lexical_decision_task_MP_exp2,2020.2.5,Win32,60,z,1,1.23298,,,,,,,,1.23298,1,,,,,,338,NW,"ID",33,wreash,WREASH,z,,,,,,0.045898438,-0.395507813,0,0,0,,0,282,282,277,1,,
,,,,,,,,,,,,,,,,,,55b75944fdf99b6e0c49981b,2020-11-26_16h00.50.928,lexical_decision_task_MP_exp2,2020.2.5,Win32,60,m,1,0.76725,,,,,,,,0.76725,1,,,,,,18,WORD,UN,16,patron,HUMBLE,m,,,,,,0.045898438,-0.395507813,0,0,0,,0,283,283,197,1,,
,,,,,,,,,,,,,,,,,,55b75944fdf99b6e0c49981b,2020-11-26_16h00.50.928,lexical_decision_task_MP_exp2,2020.2.5,Win32,60,m,1,0.647625,,,,,,,,0.647625,1,,,,,,127,WORD,"ID",16,castle,CASTLE,m,,,,,,0.045898438,-0.395507813,0,0,0,,0,284,284,66,1,,
,,,,,,,,,,,,,,,,,,55b75944fdf99b6e0c49981b,2020-11-26_16h00.50.928,lexical_decision_task_MP_exp2,2020.2.5,Win32,60,m,1,0.66516,,,,,,,,0.66516,1,,,,,,196,WORD,UN,33,stream,CREDIT,m,,,,,,0.045898438,-0.395507813,0,0,0,,0,285,285,135,1,,
,,,,,,,,,,,,,,,,,,55b75944fdf99b6e0c49981b,2020-11-26_16h00.50.928,lexical_decision_task_MP_exp2,2020.2.5,Win32,60,m,1,0.863125,,,,,,,,0.863125,1,,,,,,59,WORD,UN,16,pencil,SPLINT,m,,,,,,0.045898438,-0.395507813,0,0,0,,0,286,286,238,1,,
,,,,,,,,,,,,,,,,,,55b75944fdf99b6e0c49981b,2020-11-26_16h00.50.928,lexical_decision_task_MP_exp2,2020.2.5,Win32,60,m,1,0.879615,,,,,,,,0.879615,1,,,,,,183,WORD,UN,33,sleazy,MILDEW,m,,,,,,0.045898438,-0.395507813,0,0,0,,0,287,287,122,1,,
,,,,,,,,,,,,,,,,,,55b75944fdf99b6e0c49981b,2020-11-26_16h00.50.928,lexical_decision_task_MP_exp2,2020.2.5,Win32,60,z,1,0.819935,,,,,,,,0.819935,1,,,,,,404,NW,"ID",16,cluirm,CLUIRM,z,,,,,,0.045898438,-0.395507813,0,0,0,,0,288,288,343,1,,
,,,,,,,,,,,,,,,,,,55b75944fdf99b6e0c49981b,2020-11-26_16h00.50.928,lexical_decision_task_MP_exp2,2020.2.5,Win32,60,m,1,0.63447,,,,,,,,0.63447,1,,,,,,205,WORD,UN,33,tailor,LOUNGE,m,,,,,,0.045898438,-0.395507813,0,0,0,,0,289,289,144,1,,
,,,,,,,,,,,,,,,,,,55b75944fdf99b6e0c49981b,2020-11-26_16h00.50.928,lexical_decision_task_MP_exp2,2020.2.5,Win32,60,m,1,0.779305,,,,,,,,0.779305,1,,,,,,103,WORD,"ID",33,bounce,BOUNCE,m,,,,,,0.045898438,-0.395507813,0,0,0,,0,290,290,42,1,,
,,,,,,,,,,,,,,,,,,55b75944fdf99b6e0c49981b,2020-11-26_16h00.50.928,lexical_decision_task_MP_exp2,2020.2.5,Win32,60,z,1,0.982045,,,,,,,,0.982045,1,,,,,,337,NW,"ID",33,rejols,REJOLS,z,,,,,,0.045898438,-0.395507813,0,0,0,,0,291,291,276,1,,
,,,,,,,,,,,,,,,,,,55b75944fdf99b6e0c49981b,2020-11-26_16h00.50.928,lexical_decision_task_MP_exp2,2020.2.5,Win32,60,z,1,0.666635,,,,,,,,0.666635,1,,,,,,290,NW,UN,16,pretch,SPLINO,z,,,,,,0.045898438,-0.395507813,0,0,0,,0,292,292,469,1,,
,,,,,,,,,,,,,,,,,,55b75944fdf99b6e0c49981b,2020-11-26_16h00.50.928,lexical_decision_task_MP_exp2,2020.2.5,Win32,60,z,1,0.76727,,,,,,,,0.76727,1,,,,,,385,NW,"ID",16,veigma,VEIGMA,z,,,,,,0.045898438,-0.395507813,0,0,0,,0,293,293,324,1,,
,,,,,,,,,,,,,,,,,,55b75944fdf99b6e0c49981b,2020-11-26_16h00.50.928,lexical_decision_task_MP_exp2,2020.2.5,Win32,60,z,1,0.67161,,,,,,,,0.67161,1,,,,,,443,NW,UN,33,jaunce,DORSEX,z,,,,,,0.045898438,-0.395507813,0,0,0,,0,294,294,382,1,,
,,,,,,,,,,,,,,,,,,55b75944fdf99b6e0c49981b,2020-11-26_16h00.50.928,lexical_decision_task_MP_exp2,2020.2.5,Win32,60,z,1,0.81739,,,,,,,,0.81739,1,,,,,,409,NW,"ID",16,elopia,ELOPIA,z,,,,,,0.045898438,-0.395507813,0,0,0,,0,295,295,348,1,,
,,,,,,,,,,,,,,,,,,55b75944fdf99b6e0c49981b,2020-11-26_16h00.50.928,lexical_decision_task_MP_exp2,2020.2.5,Win32,60,m,1,0.951845,,,,,,,,0.951845,1,,,,,,69,WORD,"ID",33,plenty,PLENTY,m,,,,,,0.045898438,-0.395507813,0,0,0,,0,296,296,8,1,,
,,,,,,,,,,,,,,,,,,55b75944fdf99b6e0c49981b,2020-11-26_16h00.50.928,lexical_decision_task_MP_exp2,2020.2.5,Win32,60,z,1,1.083855,,,,,,,,1.083855,1,,,,,,352,NW,"ID",33,tringe,TRINGE,z,,,,,,0.045898438,-0.395507813,0,0,0,,0,297,297,291,1,,
,,,,,,,,,,,,,,,,,,55b75944fdf99b6e0c49981b,2020-11-26_16h00.50.928,lexical_decision_task_MP_exp2,2020.2.5,Win32,60,m,1,0.737435,,,,,,,,0.737435,1,,,,,,117,WORD,"ID",33,branch,BRANCH,m,,,,,,0.045898438,-0.395507813,0,0,0,,0,298,298,56,1,,
,,,,,,,,,,,,,,,,,,55b75944fdf99b6e0c49981b,2020-11-26_16h00.50.928,lexical_decision_task_MP_exp2,2020.2.5,Win32,60,z,1,0.83794,,,,,,,,0.83794,1,,,,,,380,NW,"ID",16,cavory,CAVORY,z,,,,,,0.045898438,-0.395507813,0,0,0,,0,299,299,319,1,,
,,,,,,,,,,,,,,,,,,55b75944fdf99b6e0c49981b,2020-11-26_16h00.50.928,lexical_decision_task_MP_exp2,2020.2.5,Win32,60,m,1,0.78339,,,,,,,,0.78339,1,,,,,,106,WORD,"ID",33,ransom,RANSOM,m,,,,,,0.045898438,-0.395507813,0,0,0,,0,300,300,45,1,,
,,,,,,,,,,,,,,,,,,55b75944fdf99b6e0c49981b,2020-11-26_16h00.50.928,lexical_decision_task_MP_exp2,2020.2.5,Win32,60,z,1,1.207135,,,,,,,,1.207135,1,,,,,,322,NW,"ID",33,slanch,SLANCH,z,,,,,,0.045898438,-0.395507813,0,0,0,,0,301,301,261,1,,
,,,,,,,,,,,,,,,,,,55b75944fdf99b6e0c49981b,2020-11-26_16h00.50.928,lexical_decision_task_MP_exp2,2020.2.5,Win32,60,m,1,0.966795,,,,,,,,0.966795,1,,,,,,151,WORD,"ID",16,mystic,MYSTIC,m,,,,,,0.045898438,-0.395507813,0,0,0,,0,302,302,90,1,,
,,,,,,,,,,,,,,,,,,55b75944fdf99b6e0c49981b,2020-11-26_16h00.50.928,lexical_decision_task_MP_exp2,2020.2.5,Win32,60,z,1,0.849025,,,,,,,,0.849025,1,,,,,,406,NW,"ID",16,nouply,NOUPLY,z,,,,,,0.045898438,-0.395507813,0,0,0,,0,303,303,345,1,,
,,,,,,,,,,,,,,,,,,55b75944fdf99b6e0c49981b,2020-11-26_16h00.50.928,lexical_decision_task_MP_exp2,2020.2.5,Win32,60,m,1,0.919365,,,,,,,,0.919365,1,,,,,,79,WORD,"ID",33,theory,THEORY,m,,,,,,0.045898438,-0.395507813,0,0,0,,0,304,304,18,1,,
,,,,,,,,,,,,,,,,,,55b75944fdf99b6e0c49981b,2020-11-26_16h00.50.928,lexical_decision_task_MP_exp2,2020.2.5,Win32,60,z,1,0.966065,,,,,,,,0.966065,1,,,,,,451,NW,UN,33,surden,CAINKY,z,,,,,,0.045898438,-0.395507813,0,0,0,,0,305,305,390,1,,
,,,,,,,,,,,,,,,,,,55b75944fdf99b6e0c49981b,2020-11-26_16h00.50.928,lexical_decision_task_MP_exp2,2020.2.5,Win32,60,m,1,0.70004,,,,,,,,0.70004,1,,,,,,60,WORD,UN,16,fright,PENCIL,m,,,,,,0.045898438,-0.395507813,0,0,0,,0,306,306,239,1,,
,,,,,,,,,,,,,,,,,,55b75944fdf99b6e0c49981b,2020-11-26_16h00.50.928,lexical_decision_task_MP_exp2,2020.2.5,Win32,60,m,1,0.66516,,,,,,,,0.66516,1,,,,,,162,WORD,"ID",16,candle,CANDLE,m,,,,,,0.045898438,-0.395507813,0,0,0,,0,307,307,101,1,,
,,,,,,,,,,,,,,,,,,55b75944fdf99b6e0c49981b,2020-11-26_16h00.50.928,lexical_decision_task_MP_exp2,2020.2.5,Win32,60,m,1,0.800025,,,,,,,,0.800025,1,,,,,,122,WORD,"ID",16,linger,LINGER,m,,,,,,0.045898438,-0.395507813,0,0,0,,0,308,308,61,1,,
,,,,,,,,,,,,,,,,,,55b75944fdf99b6e0c49981b,2020-11-26_16h00.50.928,lexical_decision_task_MP_exp2,2020.2.5,Win32,60,z,1,1.20045,,,,,,,,1.20045,1,,,,,,378,NW,"ID",16,shrile,SHRILE,z,,,,,,0.045898438,-0.395507813,0,0,0,,0,309,309,317,1,,
,,,,,,,,,,,,,,,,,,55b75944fdf99b6e0c49981b,2020-11-26_16h00.50.928,lexical_decision_task_MP_exp2,2020.2.5,Win32,60,m,1,0.716135,,,,,,,,0.716135,1,,,,,,133,WORD,"ID",16,chrome,CHROME,m,,,,,,0.045898438,-0.395507813,0,0,0,,0,310,310,72,1,,
,,,,,,,,,,,,,,,,,,55b75944fdf99b6e0c49981b,2020-11-26_16h00.50.928,lexical_decision_task_MP_exp2,2020.2.5,Win32,60,z,1,0.732225,,,,,,,,0.732225,1,,,,,,326,NW,"ID",33,iguade,IGUADE,z,,,,,,0.045898438,-0.395507813,0,0,0,,0,311,311,265,1,,
,,,,,,,,,,,,,,,,,,55b75944fdf99b6e0c49981b,2020-11-26_16h00.50.928,lexical_decision_task_MP_exp2,2020.2.5,Win32,60,z,1,1.05032,,,,,,,,1.05032,1,,,,,,350,NW,"ID",33,nagurs,NAGURS,z,,,,,,0.045898438,-0.395507813,0,0,0,,0,312,312,289,1,,
,,,,,,,,,,,,,,,,,,55b75944fdf99b6e0c49981b,2020-11-26_16h00.50.928,lexical_decision_task_MP_exp2,2020.2.5,Win32,60,z,1,0.75046,,,,,,,,0.75046,1,,,,,,312,NW,"ID",33,nerawl,NERAWL,z,,,,,,0.045898438,-0.395507813,0,0,0,,0,313,313,251,1,,
,,,,,,,,,,,,,,,,,,55b75944fdf99b6e0c49981b,2020-11-26_16h00.50.928,lexical_decision_task_MP_exp2,2020.2.5,Win32,60,m,1,0.783315,,,,,,,,0.783315,1,,,,,,149,WORD,"ID",16,invade,INVADE,m,,,,,,0.045898438,-0.395507813,0,0,0,,0,314,314,88,1,,
,,,,,,,,,,,,,,,,,,55b75944fdf99b6e0c49981b,2020-11-26_16h00.50.928,lexical_decision_task_MP_exp2,2020.2.5,Win32,60,z,1,0.966995,,,,,,,,0.966995,1,,,,,,255,NW,UN,16,inlors,APIGHT,z,,,,,,0.045898438,-0.395507813,0,0,0,,0,315,315,434,1,,
,,,,,,,,,,,,,,,,,,55b75944fdf99b6e0c49981b,2020-11-26_16h00.50.928,lexical_decision_task_MP_exp2,2020.2.5,Win32,60,m,1,0.71612,,,,,,,,0.71612,1,,,,,,74,WORD,"ID",33,plaque,PLAQUE,m,,,,,,0.045898438,-0.395507813,0,0,0,,0,316,316,13,1,,
,,,,,,,,,,,,,,,,,,55b75944fdf99b6e0c49981b,2020-11-26_16h00.50.928,lexical_decision_task_MP_exp2,2020.2.5,Win32,60,z,1,1.514075,,,,,,,,1.514075,1,,,,,,348,NW,"ID",33,dumple,DUMPLE,z,,,,,,0.045898438,-0.395507813,0,0,0,,0,317,317,287,1,,
,,,,,,,,,,,,,,,,,,55b75944fdf99b6e0c49981b,2020-11-26_16h00.50.928,lexical_decision_task_MP_exp2,2020.2.5,Win32,60,z,1,0.93336,,,,,,,,0.93336,1,,,,,,289,NW,UN,16,splino,STARBY,z,,,,,,0.045898438,-0.395507813,0,0,0,,0,318,318,468,1,,
,,,,,,,,,,,,,,,,,,55b75944fdf99b6e0c49981b,2020-11-26_16h00.50.928,lexical_decision_task_MP_exp2,2020.2.5,Win32,60,z,1,1.14606,,,,,,,,1.14606,1,,,,,,318,NW,"ID",33,reagly,REAGLY,z,,,,,,0.045898438,-0.395507813,0,0,0,,0,319,319,257,1,,
,,,,,,,,,,,,,,,,,,55b75944fdf99b6e0c49981b,2020-11-26_16h00.50.928,lexical_decision_task_MP_exp2,2020.2.5,Win32,60,z,1,0.81394,,,,,,,,0.81394,1,,,,,,279,NW,UN,16,curbol,CELOND,z,,,,,,0.045898438,-0.395507813,0,0,0,,0,320,320,458,1,,
,,,,,,,,,,,,,,,,,,55b75944fdf99b6e0c49981b,2020-11-26_16h00.50.928,lexical_decision_task_MP_exp2,2020.2.5,Win32,60,m,1,0.796105,,,,,,,,0.796105,1,,,,,,110,WORD,"ID",33,polite,POLITE,m,,,,,,0.045898438,-0.395507813,0,0,0,,0,321,321,49,1,,
,,,,,,,,,,,,,,,,,,55b75944fdf99b6e0c49981b,2020-11-26_16h00.50.928,lexical_decision_task_MP_exp2,2020.2.5,Win32,60,m,1,0.71287,,,,,,,,0.71287,1,,,,,,188,WORD,UN,33,censor,SOCIAL,m,,,,,,0.045898438,-0.395507813,0,0,0,,0,322,322,127,1,,
,,,,,,,,,,,,,,,,,,55b75944fdf99b6e0c49981b,2020-11-26_16h00.50.928,lexical_decision_task_MP_exp2,2020.2.5,Win32,60,m,1,0.8174,,,,,,,,0.8174,1,,,,,,100,WORD,"ID",33,carbon,CARBON,m,,,,,,0.045898438,-0.395507813,0,0,0,,0,323,323,39,1,,
,,,,,,,,,,,,,,,,,,55b75944fdf99b6e0c49981b,2020-11-26_16h00.50.928,lexical_decision_task_MP_exp2,2020.2.5,Win32,60,m,1,0.90055,,,,,,,,0.90055,1,,,,,,228,WORD,UN,33,kidney,MASTER,m,,,,,,0.045898438,-0.395507813,0,0,0,,0,324,324,167,1,,
,,,,,,,,,,,,,,,,,,55b75944fdf99b6e0c49981b,2020-11-26_16h00.50.928,lexical_decision_task_MP_exp2,2020.2.5,Win32,60,m,1,0.70266,,,,,,,,0.70266,1,,,,,,111,WORD,"ID",33,induce,INDUCE,m,,,,,,0.045898438,-0.395507813,0,0,0,,0,325,325,50,1,,
,,,,,,,,,,,,,,,,,,55b75944fdf99b6e0c49981b,2020-11-26_16h00.50.928,lexical_decision_task_MP_exp2,2020.2.5,Win32,60,m,1,0.700775,,,,,,,,0.700775,1,,,,,,23,WORD,UN,16,praise,WEALTH,m,,,,,,0.045898438,-0.395507813,0,0,0,,0,326,326,202,1,,
,,,,,,,,,,,,,,,,,,55b75944fdf99b6e0c49981b,2020-11-26_16h00.50.928,lexical_decision_task_MP_exp2,2020.2.5,Win32,60,z,1,0.964975,,,,,,,,0.964975,1,,,,,,355,NW,"ID",33,zingly,ZINGLY,z,,,,,,0.045898438,-0.395507813,0,0,0,,0,327,327,294,1,,
,,,,,,,,,,,,,,,,,,55b75944fdf99b6e0c49981b,2020-11-26_16h00.50.928,lexical_decision_task_MP_exp2,2020.2.5,Win32,60,z,1,1.03686,,,,,,,,1.03686,1,,,,,,388,NW,"ID",16,cragin,CRAGIN,z,,,,,,0.045898438,-0.395507813,0,0,0,,0,328,328,327,1,,
,,,,,,,,,,,,,,,,,,55b75944fdf99b6e0c49981b,2020-11-26_16h00.50.928,lexical_decision_task_MP_exp2,2020.2.5,Win32,60,m,1,0.816865,,,,,,,,0.816865,1,,,,,,26,WORD,UN,16,butler,SPRINT,m,,,,,,0.045898438,-0.395507813,0,0,0,,0,329,329,205,1,,
,,,,,,,,,,,,,,,,,,55b75944fdf99b6e0c49981b,2020-11-26_16h00.50.928,lexical_decision_task_MP_exp2,2020.2.5,Win32,60,z,1,0.816935,,,,,,,,0.816935,1,,,,,,422,NW,UN,33,streld,ALCOUD,z,,,,,,0.045898438,-0.395507813,0,0,0,,0,330,330,361,1,,
,,,,,,,,,,,,,,,,,,55b75944fdf99b6e0c49981b,2020-11-26_16h00.50.928,lexical_decision_task_MP_exp2,2020.2.5,Win32,60,m,1,0.646295,,,,,,,,0.646295,1,,,,,,15,WORD,UN,16,faucet,AMOUNT,m,,,,,,0.045898438,-0.395507813,0,0,0,,0,331,331,194,1,,
,,,,,,,,,,,,,,,,,,55b75944fdf99b6e0c49981b,2020-11-26_16h00.50.928,lexical_decision_task_MP_exp2,2020.2.5,Win32,60,z,1,0.683775,,,,,,,,0.683775,1,,,,,,343,NW,"ID",33,aimosy,AIMOSY,z,,,,,,0.045898438,-0.395507813,0,0,0,,0,332,332,282,1,,
,,,,,,,,,,,,,,,,,,55b75944fdf99b6e0c49981b,2020-11-26_16h00.50.928,lexical_decision_task_MP_exp2,2020.2.5,Win32,60,m,0,0.90185,,,,,,,,0.90185,0,,,,,,432,NW,UN,33,drance,LUNKER,z,,,,,,0.045898438,-0.395507813,0,0,0,,0,333,333,371,1,,
,,,,,,,,,,,,,,,,,,55b75944fdf99b6e0c49981b,2020-11-26_16h00.50.928,lexical_decision_task_MP_exp2,2020.2.5,Win32,60,z,1,0.712785,,,,,,,,0.712785,1,,,,,,472,NW,UN,33,gorbie,CIGNEY,z,,,,,,0.045898438,-0.395507813,0,0,0,,0,334,334,411,1,,
,,,,,,,,,,,,,,,,,,55b75944fdf99b6e0c49981b,2020-11-26_16h00.50.928,lexical_decision_task_MP_exp2,2020.2.5,Win32,60,z,1,0.680745,,,,,,,,0.680745,1,,,,,,459,NW,UN,33,mingar,BAFENT,z,,,,,,0.045898438,-0.395507813,0,0,0,,0,335,335,398,1,,
,,,,,,,,,,,,,,,,,,55b75944fdf99b6e0c49981b,2020-11-26_16h00.50.928,lexical_decision_task_MP_exp2,2020.2.5,Win32,60,m,1,0.700475,,,,,,,,0.700475,1,,,,,,54,WORD,UN,16,stroke,RAMBLE,m,,,,,,0.045898438,-0.395507813,0,0,0,,0,336,336,233,1,,
,,,,,,,,,,,,,,,,,,55b75944fdf99b6e0c49981b,2020-11-26_16h00.50.928,lexical_decision_task_MP_exp2,2020.2.5,Win32,60,z,1,0.749695,,,,,,,,0.749695,1,,,,,,353,NW,"ID",33,clurey,CLUREY,z,,,,,,0.045898438,-0.395507813,0,0,0,,0,337,337,292,1,,
,,,,,,,,,,,,,,,,,,55b75944fdf99b6e0c49981b,2020-11-26_16h00.50.928,lexical_decision_task_MP_exp2,2020.2.5,Win32,60,z,1,0.750395,,,,,,,,0.750395,1,,,,,,328,NW,"ID",33,broake,BROAKE,z,,,,,,0.045898438,-0.395507813,0,0,0,,0,338,338,267,1,,
,,,,,,,,,,,,,,,,,,55b75944fdf99b6e0c49981b,2020-11-26_16h00.50.928,lexical_decision_task_MP_exp2,2020.2.5,Win32,60,m,1,0.66321,,,,,,,,0.66321,1,,,,,,36,WORD,UN,16,insult,VANISH,m,,,,,,0.045898438,-0.395507813,0,0,0,,0,339,339,215,1,,
,,,,,,,,,,,,,,,,,,55b75944fdf99b6e0c49981b,2020-11-26_16h00.50.928,lexical_decision_task_MP_exp2,2020.2.5,Win32,60,z,1,1.033555,,,,,,,,1.033555,1,,,,,,477,NW,UN,33,lobush,PHOTIE,z,,,,,,0.045898438,-0.395507813,0,0,0,,0,340,340,416,1,,
,,,,,,,,,,,,,,,,,,55b75944fdf99b6e0c49981b,2020-11-26_16h00.50.928,lexical_decision_task_MP_exp2,2020.2.5,Win32,60,m,1,0.750365,,,,,,,,0.750365,1,,,,,,90,WORD,"ID",33,relish,RELISH,m,,,,,,0.045898438,-0.395507813,0,0,0,,0,341,341,29,1,,
,,,,,,,,,,,,,,,,,,55b75944fdf99b6e0c49981b,2020-11-26_16h00.50.928,lexical_decision_task_MP_exp2,2020.2.5,Win32,60,m,1,0.8821,,,,,,,,0.8821,1,,,,,,218,WORD,UN,33,bucket,SHRINK,m,,,,,,0.045898438,-0.395507813,0,0,0,,0,342,342,157,1,,
,,,,,,,,,,,,,,,,,,55b75944fdf99b6e0c49981b,2020-11-26_16h00.50.928,lexical_decision_task_MP_exp2,2020.2.5,Win32,60,m,1,0.738345,,,,,,,,0.738345,1,,,,,,7,WORD,UN,16,abrupt,ANCHOR,m,,,,,,0.045898438,-0.395507813,0,0,0,,0,343,343,186,1,,
,,,,,,,,,,,,,,,,,,55b75944fdf99b6e0c49981b,2020-11-26_16h00.50.928,lexical_decision_task_MP_exp2,2020.2.5,Win32,60,z,1,0.686445,,,,,,,,0.686445,1,,,,,,346,NW,"ID",33,saudic,SAUDIC,z,,,,,,0.045898438,-0.395507813,0,0,0,,0,344,344,285,1,,
,,,,,,,,,,,,,,,,,,55b75944fdf99b6e0c49981b,2020-11-26_16h00.50.928,lexical_decision_task_MP_exp2,2020.2.5,Win32,60,z,1,0.85093,,,,,,,,0.85093,1,,,,,,395,NW,"ID",16,colury,COLURY,z,,,,,,0.045898438,-0.395507813,0,0,0,,0,345,345,334,1,,
,,,,,,,,,,,,,,,,,,55b75944fdf99b6e0c49981b,2020-11-26_16h00.50.928,lexical_decision_task_MP_exp2,2020.2.5,Win32,60,z,1,0.76975,,,,,,,,0.76975,1,,,,,,336,NW,"ID",33,ghodus,GHODUS,z,,,,,,0.045898438,-0.395507813,0,0,0,,0,346,346,275,1,,
,,,,,,,,,,,,,,,,,,55b75944fdf99b6e0c49981b,2020-11-26_16h00.50.928,lexical_decision_task_MP_exp2,2020.2.5,Win32,60,m,1,0.8478,,,,,,,,0.8478,1,,,,,,13,WORD,UN,16,almost,STRIVE,m,,,,,,0.045898438,-0.395507813,0,0,0,,0,347,347,192,1,,
,,,,,,,,,,,,,,,,,,55b75944fdf99b6e0c49981b,2020-11-26_16h00.50.928,lexical_decision_task_MP_exp2,2020.2.5,Win32,60,z,1,0.884615,,,,,,,,0.884615,1,,,,,,397,NW,"ID",16,camble,CAMBLE,z,,,,,,0.045898438,-0.395507813,0,0,0,,0,348,348,336,1,,
,,,,,,,,,,,,,,,,,,55b75944fdf99b6e0c49981b,2020-11-26_16h00.50.928,lexical_decision_task_MP_exp2,2020.2.5,Win32,60,z,1,0.75065,,,,,,,,0.75065,1,,,,,,271,NW,UN,16,damilt,AUBRID,z,,,,,,0.045898438,-0.395507813,0,0,0,,0,349,349,450,1,,
,,,,,,,,,,,,,,,,,,55b75944fdf99b6e0c49981b,2020-11-26_16h00.50.928,lexical_decision_task_MP_exp2,2020.2.5,Win32,60,z,1,1.034205,,,,,,,,1.034205,1,,,,,,370,NW,"ID",16,sleact,SLEACT,z,,,,,,0.045898438,-0.395507813,0,0,0,,0,350,350,309,1,,
,,,,,,,,,,,,,,,,,,55b75944fdf99b6e0c49981b,2020-11-26_16h00.50.928,lexical_decision_task_MP_exp2,2020.2.5,Win32,60,z,1,0.848245,,,,,,,,0.848245,1,,,,,,390,NW,"ID",16,hatrus,HATRUS,z,,,,,,0.045898438,-0.395507813,0,0,0,,0,351,351,329,1,,
,,,,,,,,,,,,,,,,,,55b75944fdf99b6e0c49981b,2020-11-26_16h00.50.928,lexical_decision_task_MP_exp2,2020.2.5,Win32,60,m,1,0.70077,,,,,,,,0.70077,1,,,,,,72,WORD,"ID",33,bright,BRIGHT,m,,,,,,0.045898438,-0.395507813,0,0,0,,0,352,352,11,1,,
,,,,,,,,,,,,,,,,,,55b75944fdf99b6e0c49981b,2020-11-26_16h00.50.928,lexical_decision_task_MP_exp2,2020.2.5,Win32,60,z,1,0.86713,,,,,,,,0.86713,1,,,,,,335,NW,"ID",33,desion,DESION,z,,,,,,0.045898438,-0.395507813,0,0,0,,0,353,353,274,1,,
,,,,,,,,,,,,,,,,,,55b75944fdf99b6e0c49981b,2020-11-26_16h00.50.928,lexical_decision_task_MP_exp2,2020.2.5,Win32,60,z,1,0.8195,,,,,,,,0.8195,1,,,,,,430,NW,UN,33,chrums,CAROEY,z,,,,,,0.045898438,-0.395507813,0,0,0,,0,354,354,369,1,,
,,,,,,,,,,,,,,,,,,55b75944fdf99b6e0c49981b,2020-11-26_16h00.50.928,lexical_decision_task_MP_exp2,2020.2.5,Win32,60,m,1,0.68407,,,,,,,,0.68407,1,,,,,,31,WORD,UN,16,buckle,WEAPON,m,,,,,,0.045898438,-0.395507813,0,0,0,,0,355,355,210,1,,
,,,,,,,,,,,,,,,,,,55b75944fdf99b6e0c49981b,2020-11-26_16h00.50.928,lexical_decision_task_MP_exp2,2020.2.5,Win32,60,z,1,1.345975,,,,,,,,1.345975,1,,,,,,413,NW,"ID",16,equats,EQUATS,z,,,,,,0.045898438,-0.395507813,0,0,0,,0,356,356,352,1,,
,,,,,,,,,,,,,,,,,,55b75944fdf99b6e0c49981b,2020-11-26_16h00.50.928,lexical_decision_task_MP_exp2,2020.2.5,Win32,60,m,1,0.82073,,,,,,,,0.82073,1,,,,,,125,WORD,"ID",16,nickel,NICKEL,m,,,,,,0.045898438,-0.395507813,0,0,0,,0,357,357,64,1,,
,,,,,,,,,,,,,,,,,,55b75944fdf99b6e0c49981b,2020-11-26_16h00.50.928,lexical_decision_task_MP_exp2,2020.2.5,Win32,60,z,1,0.78157,,,,,,,,0.78157,1,,,,,,317,NW,"ID",33,worbal,WORBAL,z,,,,,,0.045898438,-0.395507813,0,0,0,,0,358,358,256,1,,
,,,,,,,,,,,,,,,,,,55b75944fdf99b6e0c49981b,2020-11-26_16h00.50.928,lexical_decision_task_MP_exp2,2020.2.5,Win32,60,z,1,0.934255,,,,,,,,0.934255,1,,,,,,434,NW,UN,33,impurb,PITROM,z,,,,,,0.045898438,-0.395507813,0,0,0,,0,359,359,373,1,,
,,,,,,,,,,,,,,,,,,55b75944fdf99b6e0c49981b,2020-11-26_16h00.50.928,lexical_decision_task_MP_exp2,2020.2.5,Win32,60,m,1,0.883035,,,,,,,,0.883035,1,,,,,,41,WORD,UN,16,chapel,SPRING,m,,,,,,0.045898438,-0.395507813,0,0,0,,0,360,360,220,1,,
,,,,,,,,,,,,,,,,,,55b75944fdf99b6e0c49981b,2020-11-26_16h00.50.928,lexical_decision_task_MP_exp2,2020.2.5,Win32,60,m,1,0.884595,,,,,,,,0.884595,1,,,,,,186,WORD,UN,33,course,PORTAL,m,,,,,,0.045898438,-0.395507813,0,0,0,,0,361,361,125,1,,
,,,,,,,,,,,,,,,,,,55b75944fdf99b6e0c49981b,2020-11-26_16h00.50.928,lexical_decision_task_MP_exp2,2020.2.5,Win32,60,z,1,0.90183,,,,,,,,0.90183,1,,,,,,283,NW,UN,16,shaple,VERALF,z,,,,,,0.045898438,-0.395507813,1,0,0,,0,362,362,462,1,,break_done_button
,,,,,,,,,,,,,,,,,,55b75944fdf99b6e0c49981b,2020-11-26_16h00.50.928,lexical_decision_task_MP_exp2,2020.2.5,Win32,60,m,1,0.668135,,,,,,,,0.668135,1,,,,,,83,WORD,"ID",33,result,RESULT,m,,,,,,0.045898438,-0.395507813,0,0,0,,0,363,363,22,1,,
,,,,,,,,,,,,,,,,,,55b75944fdf99b6e0c49981b,2020-11-26_16h00.50.928,lexical_decision_task_MP_exp2,2020.2.5,Win32,60,m,1,0.65396,,,,,,,,0.65396,1,,,,,,95,WORD,"ID",33,thread,THREAD,m,,,,,,0.045898438,-0.395507813,0,0,0,,0,364,364,34,1,,
,,,,,,,,,,,,,,,,,,55b75944fdf99b6e0c49981b,2020-11-26_16h00.50.928,lexical_decision_task_MP_exp2,2020.2.5,Win32,60,z,1,0.718385,,,,,,,,0.718385,1,,,,,,258,NW,UN,16,soudal,POLUTH,z,,,,,,0.045898438,-0.395507813,0,0,0,,0,365,365,437,1,,
,,,,,,,,,,,,,,,,,,55b75944fdf99b6e0c49981b,2020-11-26_16h00.50.928,lexical_decision_task_MP_exp2,2020.2.5,Win32,60,z,1,0.819535,,,,,,,,0.819535,1,,,,,,394,NW,"ID",16,spaqux,SPAQUX,z,,,,,,0.045898438,-0.395507813,0,0,0,,0,366,366,333,1,,
,,,,,,,,,,,,,,,,,,55b75944fdf99b6e0c49981b,2020-11-26_16h00.50.928,lexical_decision_task_MP_exp2,2020.2.5,Win32,60,m,1,0.712575,,,,,,,,0.712575,1,,,,,,166,WORD,"ID",16,starch,STARCH,m,,,,,,0.045898438,-0.395507813,0,0,0,,0,367,367,105,1,,
,,,,,,,,,,,,,,,,,,55b75944fdf99b6e0c49981b,2020-11-26_16h00.50.928,lexical_decision_task_MP_exp2,2020.2.5,Win32,60,m,1,0.696585,,,,,,,,0.696585,1,,,,,,182,WORD,UN,33,absent,WINTER,m,,,,,,0.045898438,-0.395507813,0,0,0,,0,368,368,121,1,,
,,,,,,,,,,,,,,,,,,55b75944fdf99b6e0c49981b,2020-11-26_16h00.50.928,lexical_decision_task_MP_exp2,2020.2.5,Win32,60,m,1,0.613965,,,,,,,,0.613965,1,,,,,,231,WORD,UN,33,inject,EXPORT,m,,,,,,0.045898438,-0.395507813,0,0,0,,0,369,369,170,1,,
,,,,,,,,,,,,,,,,,,55b75944fdf99b6e0c49981b,2020-11-26_16h00.50.928,lexical_decision_task_MP_exp2,2020.2.5,Win32,60,m,1,0.717305,,,,,,,,0.717305,1,,,,,,121,WORD,"ID",16,thrive,THRIVE,m,,,,,,0.045898438,-0.395507813,0,0,0,,0,370,370,60,1,,
,,,,,,,,,,,,,,,,,,55b75944fdf99b6e0c49981b,2020-11-26_16h00.50.928,lexical_decision_task_MP_exp2,2020.2.5,Win32,60,z,1,0.683985,,,,,,,,0.683985,1,,,,,,301,NW,"ID",33,fainch,FAINCH,z,,,,,,0.045898438,-0.395507813,0,0,0,,0,371,371,240,1,,
,,,,,,,,,,,,,,,,,,55b75944fdf99b6e0c49981b,2020-11-26_16h00.50.928,lexical_decision_task_MP_exp2,2020.2.5,Win32,60,z,1,0.617325,,,,,,,,0.617325,1,,,,,,376,NW,"ID",16,iguare,IGUARE,z,,,,,,0.045898438,-0.395507813,0,0,0,,0,372,372,315,1,,
,,,,,,,,,,,,,,,,,,55b75944fdf99b6e0c49981b,2020-11-26_16h00.50.928,lexical_decision_task_MP_exp2,2020.2.5,Win32,60,z,1,0.816505,,,,,,,,0.816505,1,,,,,,269,NW,UN,16,wrimsy,ORCHET,z,,,,,,0.045898438,-0.395507813,0,0,0,,0,373,373,448,1,,
,,,,,,,,,,,,,,,,,,55b75944fdf99b6e0c49981b,2020-11-26_16h00.50.928,lexical_decision_task_MP_exp2,2020.2.5,Win32,60,m,1,0.80033,,,,,,,,0.80033,1,,,,,,131,WORD,"ID",16,quench,QUENCH,m,,,,,,0.045898438,-0.395507813,0,0,0,,0,374,374,70,1,,
,,,,,,,,,,,,,,,,,,55b75944fdf99b6e0c49981b,2020-11-26_16h00.50.928,lexical_decision_task_MP_exp2,2020.2.5,Win32,60,z,1,0.886885,,,,,,,,0.886885,1,,,,,,296,NW,UN,16,fertic,BEINCH,z,,,,,,0.045898438,-0.395507813,0,0,0,,0,375,375,475,1,,
,,,,,,,,,,,,,,,,,,55b75944fdf99b6e0c49981b,2020-11-26_16h00.50.928,lexical_decision_task_MP_exp2,2020.2.5,Win32,60,m,1,1.11883,,,,,,,,1.11883,1,,,,,,176,WORD,"ID",16,strife,STRIFE,m,,,,,,0.045898438,-0.395507813,0,0,0,,0,376,376,115,1,,
,,,,,,,,,,,,,,,,,,55b75944fdf99b6e0c49981b,2020-11-26_16h00.50.928,lexical_decision_task_MP_exp2,2020.2.5,Win32,60,m,1,0.817155,,,,,,,,0.817155,1,,,,,,142,WORD,"ID",16,spruce,SPRUCE,m,,,,,,0.045898438,-0.395507813,0,0,0,,0,377,377,81,1,,
,,,,,,,,,,,,,,,,,,55b75944fdf99b6e0c49981b,2020-11-26_16h00.50.928,lexical_decision_task_MP_exp2,2020.2.5,Win32,60,z,1,0.796535,,,,,,,,0.796535,1,,,,,,368,NW,"ID",16,hornal,HORNAL,z,,,,,,0.045898438,-0.395507813,0,0,0,,0,378,378,307,1,,
,,,,,,,,,,,,,,,,,,55b75944fdf99b6e0c49981b,2020-11-26_16h00.50.928,lexical_decision_task_MP_exp2,2020.2.5,Win32,60,m,1,0.834895,,,,,,,,0.834895,1,,,,,,105,WORD,"ID",33,number,NUMBER,m,,,,,,0.045898438,-0.395507813,0,0,0,,0,379,379,44,1,,
,,,,,,,,,,,,,,,,,,55b75944fdf99b6e0c49981b,2020-11-26_16h00.50.928,lexical_decision_task_MP_exp2,2020.2.5,Win32,60,z,1,1.15885,,,,,,,,1.15885,1,,,,,,415,NW,"ID",16,higsta,HIGSTA,z,,,,,,0.045898438,-0.395507813,0,0,0,,0,380,380,354,1,,
,,,,,,,,,,,,,,,,,,55b75944fdf99b6e0c49981b,2020-11-26_16h00.50.928,lexical_decision_task_MP_exp2,2020.2.5,Win32,60,z,1,0.66603,,,,,,,,0.66603,1,,,,,,386,NW,"ID",16,ancust,ANCUST,z,,,,,,0.045898438,-0.395507813,0,0,0,,0,381,381,325,1,,
,,,,,,,,,,,,,,,,,,55b75944fdf99b6e0c49981b,2020-11-26_16h00.50.928,lexical_decision_task_MP_exp2,2020.2.5,Win32,60,z,1,1.18436,,,,,,,,1.18436,1,,,,,,325,NW,"ID",33,thruse,THRUSE,z,,,,,,0.045898438,-0.395507813,0,0,0,,0,382,382,264,1,,
,,,,,,,,,,,,,,,,,,55b75944fdf99b6e0c49981b,2020-11-26_16h00.50.928,lexical_decision_task_MP_exp2,2020.2.5,Win32,60,m,1,0.768745,,,,,,,,0.768745,1,,,,,,86,WORD,"ID",33,rodent,RODENT,m,,,,,,0.045898438,-0.395507813,0,0,0,,0,383,383,25,1,,
,,,,,,,,,,,,,,,,,,55b75944fdf99b6e0c49981b,2020-11-26_16h00.50.928,lexical_decision_task_MP_exp2,2020.2.5,Win32,60,m,1,0.700115,,,,,,,,0.700115,1,,,,,,192,WORD,UN,33,object,PLAGUE,m,,,,,,0.045898438,-0.395507813,0,0,0,,0,384,384,131,1,,
,,,,,,,,,,,,,,,,,,55b75944fdf99b6e0c49981b,2020-11-26_16h00.50.928,lexical_decision_task_MP_exp2,2020.2.5,Win32,60,z,1,0.88474,,,,,,,,0.88474,1,,,,,,334,NW,"ID",33,watmeg,WATMEG,z,,,,,,0.045898438,-0.395507813,0,0,0,,0,385,385,273,1,,
,,,,,,,,,,,,,,,,,,55b75944fdf99b6e0c49981b,2020-11-26_16h00.50.928,lexical_decision_task_MP_exp2,2020.2.5,Win32,60,m,1,0.699755,,,,,,,,0.699755,1,,,,,,102,WORD,"ID",33,direct,DIRECT,m,,,,,,0.045898438,-0.395507813,0,0,0,,0,386,386,41,1,,
,,,,,,,,,,,,,,,,,,55b75944fdf99b6e0c49981b,2020-11-26_16h00.50.928,lexical_decision_task_MP_exp2,2020.2.5,Win32,60,m,1,0.78382,,,,,,,,0.78382,1,,,,,,136,WORD,"ID",16,bleach,BLEACH,m,,,,,,0.045898438,-0.395507813,0,0,0,,0,387,387,75,1,,
,,,,,,,,,,,,,,,,,,55b75944fdf99b6e0c49981b,2020-11-26_16h00.50.928,lexical_decision_task_MP_exp2,2020.2.5,Win32,60,m,1,0.733805,,,,,,,,0.733805,1,,,,,,61,WORD,"ID",33,ponder,PONDER,m,,,,,,0.045898438,-0.395507813,0,0,0,,0,388,388,0,1,,
,,,,,,,,,,,,,,,,,,55b75944fdf99b6e0c49981b,2020-11-26_16h00.50.928,lexical_decision_task_MP_exp2,2020.2.5,Win32,60,z,1,0.869145,,,,,,,,0.869145,1,,,,,,455,NW,UN,33,broget,TONDLE,z,,,,,,0.045898438,-0.395507813,0,0,0,,0,389,389,394,1,,
,,,,,,,,,,,,,,,,,,55b75944fdf99b6e0c49981b,2020-11-26_16h00.50.928,lexical_decision_task_MP_exp2,2020.2.5,Win32,60,z,1,0.734475,,,,,,,,0.734475,1,,,,,,382,NW,"ID",16,sarley,SARLEY,z,,,,,,0.045898438,-0.395507813,0,0,0,,0,390,390,321,1,,
,,,,,,,,,,,,,,,,,,55b75944fdf99b6e0c49981b,2020-11-26_16h00.50.928,lexical_decision_task_MP_exp2,2020.2.5,Win32,60,z,1,0.633665,,,,,,,,0.633665,1,,,,,,463,NW,UN,33,chaite,KISPEL,z,,,,,,0.045898438,-0.395507813,0,0,0,,0,391,391,402,1,,
,,,,,,,,,,,,,,,,,,55b75944fdf99b6e0c49981b,2020-11-26_16h00.50.928,lexical_decision_task_MP_exp2,2020.2.5,Win32,60,z,1,0.63402,,,,,,,,0.63402,1,,,,,,302,NW,"ID",33,miluer,MILUER,z,,,,,,0.045898438,-0.395507813,0,0,0,,0,392,392,241,1,,
