counterbalancing_condition,instr_done_keyboard.keys,instr_done_touch.x,instr_done_touch.y,instr_done_touch.leftButton,instr_done_touch.midButton,instr_done_touch.rightButton,instr_done_touch.clicked_name,instruction_pages.thisRepN,instruction_pages.thisTrialN,instruction_pages.thisN,instruction_pages.thisIndex,instruction_pages.ran,pageN,phase,instruct_text,has_image,instruct_image,participant,date,expName,psychopyVersion,OS,frameRate,instr_done_keyboard.rt,response.keys,response.corr,response.rt,touch_resp.x,touch_resp.y,touch_resp.leftButton,touch_resp.midButton,touch_resp.rightButton,touch_resp.time,touch_resp.clicked_name,rt,corr,practice_trials.thisRepN,practice_trials.thisTrialN,practice_trials.thisN,practice_trials.thisIndex,practice_trials.ran,TrialID,StimulusType,Condition,PrimeDuration,Prime,Target,corrAns,end_of_practice_trials_pages.thisRepN,end_of_practice_trials_pages.thisTrialN,end_of_practice_trials_pages.thisN,end_of_practice_trials_pages.thisIndex,end_of_practice_trials_pages.ran,break_done_touch.x,break_done_touch.y,break_done_touch.leftButton,break_done_touch.midButton,break_done_touch.rightButton,break_done_keyboard.keys,experiment_trials.thisRepN,experiment_trials.thisTrialN,experiment_trials.thisN,experiment_trials.thisIndex,experiment_trials.ran,break_done_touch.clicked_name,break_done_keyboard.rt
1,,-0.054499366,-0.397338403,1,0,0,instr_done_button,0,0,0,0,1,1,instructions,"INSTRUCTIONS
At the start of each trial, look at the hash marks (######) in the center of the screen. After a moment, a string of letters will appear. Your task is to indicate if the letter string forms a word or not (i.e., if it is a nonword). For example, AUTHOR is a word while AUTHON is a nonword.

Press the space bar or touch the button below to continue.",0,,56c9e4d9b30699000bd974a5,2020-11-27_15h06.18.819,lexical_decision_task_MP_exp2,2020.2.5,Win32,60,,,,,,,,,,,,,,,,,,,,,,,,,,,,,,,,,,,,,,,,,,,
,space,0.036755387,-0.397338403,0,0,0,,0,1,1,1,1,2,instructions,"If your device has a keyboard, press the 'Z' key for nonwords and the 'M' key for words.





Press the space bar or touch the button below to continue.",1,keyboard-example.gif,56c9e4d9b30699000bd974a5,2020-11-27_15h06.18.819,lexical_decision_task_MP_exp2,2020.2.5,Win32,60,6.25249,,,,,,,,,,,,,,,,,,,,,,,,,,,,,,,,,,,,,,,,,,
,,0.044359949,-0.429024081,1,0,0,instr_done_button,0,2,2,2,1,3,instructions,"If you are using a touchscreen only device, use the buttons on the screen. Do not use the mouse.





Press the space bar or touch the button below to continue.",1,touchscreen-example.gif,56c9e4d9b30699000bd974a5,2020-11-27_15h06.18.819,lexical_decision_task_MP_exp2,2020.2.5,Win32,60,,,,,,,,,,,,,,,,,,,,,,,,,,,,,,,,,,,,,,,,,,,
,space,0.050697085,-0.403675539,0,0,0,,0,3,3,3,1,4,instructions,"It is very important that you respond as quickly and accurately as possible, as each letter string will only be on the screen for two seconds. If you do not respond within this time, the message 'Too slow!' will be displayed and the experiment will progress to the next letter string. The first 20 trials will be practice trials and you will receive feedback on your answers. 

Press the space bar or touch the button below to start the practice trials.",0,,56c9e4d9b30699000bd974a5,2020-11-27_15h06.18.819,lexical_decision_task_MP_exp2,2020.2.5,Win32,60,4.0445,,,,,,,,,,,,,,,,,,,,,,,,,,,,,,,,,,,,,,,,,,
,,,,,,,,,,,,,,,,,,56c9e4d9b30699000bd974a5,2020-11-27_15h06.18.819,lexical_decision_task_MP_exp2,2020.2.5,Win32,60,,z,1,0.97729,,,,,,,,0.97729,1,0,0,0,10,1,1011,NW,"ID",16,inlade,INLADE,z,,,,,,,,,,,,,,,,,,
,,,,,,,,,,,,,,,,,,56c9e4d9b30699000bd974a5,2020-11-27_15h06.18.819,lexical_decision_task_MP_exp2,2020.2.5,Win32,60,,m,1,1.0281,,,,,,,,1.0281,1,0,1,1,2,1,1003,WORD,"ID",16,almond,ALMOND,m,,,,,,,,,,,,,,,,,,
,,,,,,,,,,,,,,,,,,56c9e4d9b30699000bd974a5,2020-11-27_15h06.18.819,lexical_decision_task_MP_exp2,2020.2.5,Win32,60,,z,1,0.78068,,,,,,,,0.78068,1,0,2,2,12,1,1013,NW,UN,33,adveil,SPRINY,z,,,,,,,,,,,,,,,,,,
,,,,,,,,,,,,,,,,,,56c9e4d9b30699000bd974a5,2020-11-27_15h06.18.819,lexical_decision_task_MP_exp2,2020.2.5,Win32,60,,m,1,0.96511,,,,,,,,0.96511,1,0,3,3,3,1,1004,WORD,"ID",16,matrix,MATRIX,m,,,,,,,,,,,,,,,,,,
,,,,,,,,,,,,,,,,,,56c9e4d9b30699000bd974a5,2020-11-27_15h06.18.819,lexical_decision_task_MP_exp2,2020.2.5,Win32,60,,z,1,0.617975,,,,,,,,0.617975,1,0,4,4,15,1,1016,NW,UN,16,mushed,WHAISE,z,,,,,,,,,,,,,,,,,,
,,,,,,,,,,,,,,,,,,56c9e4d9b30699000bd974a5,2020-11-27_15h06.18.819,lexical_decision_task_MP_exp2,2020.2.5,Win32,60,,z,1,0.722215,,,,,,,,0.722215,1,0,5,5,8,1,1009,NW,"ID",33,aslert,ASLERT,z,,,,,,,,,,,,,,,,,,
,,,,,,,,,,,,,,,,,,56c9e4d9b30699000bd974a5,2020-11-27_15h06.18.819,lexical_decision_task_MP_exp2,2020.2.5,Win32,60,,m,1,0.613895,,,,,,,,0.613895,1,0,6,6,4,1,1005,WORD,UN,33,abound,SQUEAK,m,,,,,,,,,,,,,,,,,,
,,,,,,,,,,,,,,,,,,56c9e4d9b30699000bd974a5,2020-11-27_15h06.18.819,lexical_decision_task_MP_exp2,2020.2.5,Win32,60,,m,1,1.01369,,,,,,,,1.01369,1,0,7,7,7,1,1008,WORD,UN,16,hurdle,VOLUME,m,,,,,,,,,,,,,,,,,,
,,,,,,,,,,,,,,,,,,56c9e4d9b30699000bd974a5,2020-11-27_15h06.18.819,lexical_decision_task_MP_exp2,2020.2.5,Win32,60,,m,1,0.69845,,,,,,,,0.69845,1,0,8,8,5,1,1006,WORD,UN,33,frenzy,OBTAIN,m,,,,,,,,,,,,,,,,,,
,,,,,,,,,,,,,,,,,,56c9e4d9b30699000bd974a5,2020-11-27_15h06.18.819,lexical_decision_task_MP_exp2,2020.2.5,Win32,60,,m,1,0.93679,,,,,,,,0.93679,1,0,9,9,6,1,1007,WORD,UN,16,tropic,ZOMBIE,m,,,,,,,,,,,,,,,,,,
,,,,,,,,,,,,,,,,,,56c9e4d9b30699000bd974a5,2020-11-27_15h06.18.819,lexical_decision_task_MP_exp2,2020.2.5,Win32,60,,m,1,0.598395,,,,,,,,0.598395,1,0,10,10,0,1,1001,WORD,"ID",33,utopia,UTOPIA,m,,,,,,,,,,,,,,,,,,
,,,,,,,,,,,,,,,,,,56c9e4d9b30699000bd974a5,2020-11-27_15h06.18.819,lexical_decision_task_MP_exp2,2020.2.5,Win32,60,,,0,,,,,,,,,0.598395,-1,0,11,11,11,1,1012,NW,"ID",16,rashet,RASHET,z,,,,,,,,,,,,,,,,,,
,,,,,,,,,,,,,,,,,,56c9e4d9b30699000bd974a5,2020-11-27_15h06.18.819,lexical_decision_task_MP_exp2,2020.2.5,Win32,60,,z,1,0.965755,,,,,,,,0.965755,1,0,12,12,13,1,1014,NW,UN,33,winfer,ROUPET,z,,,,,,,,,,,,,,,,,,
,,,,,,,,,,,,,,,,,,56c9e4d9b30699000bd974a5,2020-11-27_15h06.18.819,lexical_decision_task_MP_exp2,2020.2.5,Win32,60,,m,1,0.565365,,,,,,,,0.565365,1,0,13,13,1,1,1002,WORD,"ID",33,adjust,ADJUST,m,,,,,,,,,,,,,,,,,,
,,,,,,,,,,,,,,,,,,56c9e4d9b30699000bd974a5,2020-11-27_15h06.18.819,lexical_decision_task_MP_exp2,2020.2.5,Win32,60,,m,0,0.702365,,,,,,,,0.702365,0,0,14,14,9,1,1010,NW,"ID",33,fariny,FARINY,z,,,,,,,,,,,,,,,,,,
,,,,,,,,,,,,,,,,,,56c9e4d9b30699000bd974a5,2020-11-27_15h06.18.819,lexical_decision_task_MP_exp2,2020.2.5,Win32,60,,z,1,1.241365,,,,,,,,1.241365,1,0,15,15,14,1,1015,NW,UN,16,miaber,THRALE,z,,,,,,,,,,,,,,,,,,
,,0.034220532,-0.38973384,1,0,0,instr_done_button,,,,,,1,end_of_practice,"You have completed the practice trials. During the experimental trials, you will not receive feedback, but it is very important that you respond as quickly and accurately as possible. 
Before you begin, please ensure that you are in a comfortable and quiet location and will not be disturbed for about 15 minutes, as we cannot use your data if you do not complete all the trials. 
There will be opportunities to take breaks at regular intervals during the experiment. When you are ready to start the experimental trials, please press space or touch the button below.",,,56c9e4d9b30699000bd974a5,2020-11-27_15h06.18.819,lexical_decision_task_MP_exp2,2020.2.5,Win32,60,,,,,,,,,,,,,,,,,,,,,,,,,,0,0,0,0,1,,,,,,,,,,,,,
,,,,,,,,,,,,,,,,,,56c9e4d9b30699000bd974a5,2020-11-27_15h06.18.819,lexical_decision_task_MP_exp2,2020.2.5,Win32,60,,z,1,1.33003,,,,,,,,1.33003,1,,,,,,386,NW,UN,33,gronce,ANCUST,z,,,,,,0.034220532,-0.38973384,0,0,0,,0,0,0,385,1,,
,,,,,,,,,,,,,,,,,,56c9e4d9b30699000bd974a5,2020-11-27_15h06.18.819,lexical_decision_task_MP_exp2,2020.2.5,Win32,60,,z,1,0.935465,,,,,,,,0.935465,1,,,,,,367,NW,UN,33,hornal,SLIQUE,z,,,,,,0.034220532,-0.38973384,0,0,0,,0,1,1,366,1,,
,,,,,,,,,,,,,,,,,,56c9e4d9b30699000bd974a5,2020-11-27_15h06.18.819,lexical_decision_task_MP_exp2,2020.2.5,Win32,60,,m,0,0.73377,,,,,,,,0.73377,0,,,,,,411,NW,UN,33,jiluer,ORCHIN,z,,,,,,0.034220532,-0.38973384,0,0,0,,0,2,2,410,1,,
,,,,,,,,,,,,,,,,,,56c9e4d9b30699000bd974a5,2020-11-27_15h06.18.819,lexical_decision_task_MP_exp2,2020.2.5,Win32,60,,m,1,0.9499,,,,,,,,0.9499,1,,,,,,208,WORD,UN,16,search,HOCKEY,m,,,,,,0.034220532,-0.38973384,0,0,0,,0,3,3,207,1,,
,,,,,,,,,,,,,,,,,,56c9e4d9b30699000bd974a5,2020-11-27_15h06.18.819,lexical_decision_task_MP_exp2,2020.2.5,Win32,60,,m,1,0.831755,,,,,,,,0.831755,1,,,,,,71,WORD,"ID",16,garden,GARDEN,m,,,,,,0.034220532,-0.38973384,0,0,0,,0,4,4,70,1,,
,,,,,,,,,,,,,,,,,,56c9e4d9b30699000bd974a5,2020-11-27_15h06.18.819,lexical_decision_task_MP_exp2,2020.2.5,Win32,60,,m,1,1.15031,,,,,,,,1.15031,1,,,,,,139,WORD,UN,33,prince,DEBRIS,m,,,,,,0.034220532,-0.38973384,0,0,0,,0,5,5,138,1,,
,,,,,,,,,,,,,,,,,,56c9e4d9b30699000bd974a5,2020-11-27_15h06.18.819,lexical_decision_task_MP_exp2,2020.2.5,Win32,60,,m,1,1.118315,,,,,,,,1.118315,1,,,,,,104,WORD,"ID",16,studio,STUDIO,m,,,,,,0.034220532,-0.38973384,0,0,0,,0,6,6,103,1,,
,,,,,,,,,,,,,,,,,,56c9e4d9b30699000bd974a5,2020-11-27_15h06.18.819,lexical_decision_task_MP_exp2,2020.2.5,Win32,60,,z,1,0.90081,,,,,,,,0.90081,1,,,,,,264,NW,"ID",33,vackel,VACKEL,z,,,,,,0.034220532,-0.38973384,0,0,0,,0,7,7,263,1,,
,,,,,,,,,,,,,,,,,,56c9e4d9b30699000bd974a5,2020-11-27_15h06.18.819,lexical_decision_task_MP_exp2,2020.2.5,Win32,60,,z,1,0.66676,,,,,,,,0.66676,1,,,,,,381,NW,UN,33,sarley,HUNIEK,z,,,,,,0.034220532,-0.38973384,0,0,0,,0,8,8,380,1,,
,,,,,,,,,,,,,,,,,,56c9e4d9b30699000bd974a5,2020-11-27_15h06.18.819,lexical_decision_task_MP_exp2,2020.2.5,Win32,60,,m,1,0.79189,,,,,,,,0.79189,1,,,,,,19,WORD,"ID",33,patron,PATRON,m,,,,,,0.034220532,-0.38973384,0,0,0,,0,9,9,18,1,,
,,,,,,,,,,,,,,,,,,56c9e4d9b30699000bd974a5,2020-11-27_15h06.18.819,lexical_decision_task_MP_exp2,2020.2.5,Win32,60,,z,1,0.953525,,,,,,,,0.953525,1,,,,,,368,NW,UN,33,wronch,HORNAL,z,,,,,,0.034220532,-0.38973384,0,0,0,,0,10,10,367,1,,
,,,,,,,,,,,,,,,,,,56c9e4d9b30699000bd974a5,2020-11-27_15h06.18.819,lexical_decision_task_MP_exp2,2020.2.5,Win32,60,,m,1,0.951505,,,,,,,,0.951505,1,,,,,,226,WORD,UN,16,flower,CASINO,m,,,,,,0.034220532,-0.38973384,0,0,0,,0,11,11,225,1,,
,,,,,,,,,,,,,,,,,,56c9e4d9b30699000bd974a5,2020-11-27_15h06.18.819,lexical_decision_task_MP_exp2,2020.2.5,Win32,60,,m,1,0.65243,,,,,,,,0.65243,1,,,,,,3,WORD,"ID",33,knight,KNIGHT,m,,,,,,0.034220532,-0.38973384,0,0,0,,0,12,12,2,1,,
,,,,,,,,,,,,,,,,,,56c9e4d9b30699000bd974a5,2020-11-27_15h06.18.819,lexical_decision_task_MP_exp2,2020.2.5,Win32,60,,,0,,,,,,,,,0.65243,-1,,,,,,469,NW,UN,16,crudio,PADIFS,z,,,,,,0.034220532,-0.38973384,0,0,0,,0,13,13,468,1,,
,,,,,,,,,,,,,,,,,,56c9e4d9b30699000bd974a5,2020-11-27_15h06.18.819,lexical_decision_task_MP_exp2,2020.2.5,Win32,60,,m,1,0.84864,,,,,,,,0.84864,1,,,,,,214,WORD,UN,16,phobia,INTAKE,m,,,,,,0.034220532,-0.38973384,0,0,0,,0,14,14,213,1,,
,,,,,,,,,,,,,,,,,,56c9e4d9b30699000bd974a5,2020-11-27_15h06.18.819,lexical_decision_task_MP_exp2,2020.2.5,Win32,60,,z,1,1.500865,,,,,,,,1.500865,1,,,,,,459,NW,UN,16,mingar,BAFENT,z,,,,,,0.034220532,-0.38973384,0,0,0,,0,15,15,458,1,,
,,,,,,,,,,,,,,,,,,56c9e4d9b30699000bd974a5,2020-11-27_15h06.18.819,lexical_decision_task_MP_exp2,2020.2.5,Win32,60,,z,1,0.94528,,,,,,,,0.94528,1,,,,,,448,NW,UN,16,brunge,SADENT,z,,,,,,0.034220532,-0.38973384,0,0,0,,0,16,16,447,1,,
,,,,,,,,,,,,,,,,,,56c9e4d9b30699000bd974a5,2020-11-27_15h06.18.819,lexical_decision_task_MP_exp2,2020.2.5,Win32,60,,z,1,0.720395,,,,,,,,0.720395,1,,,,,,444,NW,UN,16,minkel,JAUNCE,z,,,,,,0.034220532,-0.38973384,0,0,0,,0,17,17,443,1,,
,,,,,,,,,,,,,,,,,,56c9e4d9b30699000bd974a5,2020-11-27_15h06.18.819,lexical_decision_task_MP_exp2,2020.2.5,Win32,60,,z,1,0.802365,,,,,,,,0.802365,1,,,,,,449,NW,UN,16,phrect,BRUNGE,z,,,,,,0.034220532,-0.38973384,0,0,0,,0,18,18,448,1,,
,,,,,,,,,,,,,,,,,,56c9e4d9b30699000bd974a5,2020-11-27_15h06.18.819,lexical_decision_task_MP_exp2,2020.2.5,Win32,60,,m,1,0.88526,,,,,,,,0.88526,1,,,,,,43,WORD,"ID",33,tongue,TONGUE,m,,,,,,0.034220532,-0.38973384,0,0,0,,0,19,19,42,1,,
,,,,,,,,,,,,,,,,,,56c9e4d9b30699000bd974a5,2020-11-27_15h06.18.819,lexical_decision_task_MP_exp2,2020.2.5,Win32,60,,m,1,0.81833,,,,,,,,0.81833,1,,,,,,151,WORD,UN,33,rocket,MYSTIC,m,,,,,,0.034220532,-0.38973384,0,0,0,,0,20,20,150,1,,
,,,,,,,,,,,,,,,,,,56c9e4d9b30699000bd974a5,2020-11-27_15h06.18.819,lexical_decision_task_MP_exp2,2020.2.5,Win32,60,,z,1,0.768335,,,,,,,,0.768335,1,,,,,,297,NW,"ID",33,fertic,FERTIC,z,,,,,,0.034220532,-0.38973384,0,0,0,,0,21,21,296,1,,
,,,,,,,,,,,,,,,,,,56c9e4d9b30699000bd974a5,2020-11-27_15h06.18.819,lexical_decision_task_MP_exp2,2020.2.5,Win32,60,,z,1,0.67469,,,,,,,,0.67469,1,,,,,,387,NW,UN,33,cragin,GRONCE,z,,,,,,0.034220532,-0.38973384,0,0,0,,0,22,22,386,1,,
,,,,,,,,,,,,,,,,,,56c9e4d9b30699000bd974a5,2020-11-27_15h06.18.819,lexical_decision_task_MP_exp2,2020.2.5,Win32,60,,z,1,0.90191,,,,,,,,0.90191,1,,,,,,342,NW,"ID",16,randow,RANDOW,z,,,,,,0.034220532,-0.38973384,0,0,0,,0,23,23,341,1,,
,,,,,,,,,,,,,,,,,,56c9e4d9b30699000bd974a5,2020-11-27_15h06.18.819,lexical_decision_task_MP_exp2,2020.2.5,Win32,60,,m,1,0.66219,,,,,,,,0.66219,1,,,,,,235,WORD,UN,16,pirate,GRUMPY,m,,,,,,0.034220532,-0.38973384,0,0,0,,0,24,24,234,1,,
,,,,,,,,,,,,,,,,,,56c9e4d9b30699000bd974a5,2020-11-27_15h06.18.819,lexical_decision_task_MP_exp2,2020.2.5,Win32,60,,m,1,0.583725,,,,,,,,0.583725,1,,,,,,103,WORD,"ID",16,bounce,BOUNCE,m,,,,,,0.034220532,-0.38973384,0,0,0,,0,25,25,102,1,,
,,,,,,,,,,,,,,,,,,56c9e4d9b30699000bd974a5,2020-11-27_15h06.18.819,lexical_decision_task_MP_exp2,2020.2.5,Win32,60,,m,1,0.67849,,,,,,,,0.67849,1,,,,,,176,WORD,UN,33,advent,STRIFE,m,,,,,,0.034220532,-0.38973384,0,0,0,,0,26,26,175,1,,
,,,,,,,,,,,,,,,,,,56c9e4d9b30699000bd974a5,2020-11-27_15h06.18.819,lexical_decision_task_MP_exp2,2020.2.5,Win32,60,,z,1,0.698665,,,,,,,,0.698665,1,,,,,,268,NW,"ID",33,packes,PACKES,z,,,,,,0.034220532,-0.38973384,0,0,0,,0,27,27,267,1,,
,,,,,,,,,,,,,,,,,,56c9e4d9b30699000bd974a5,2020-11-27_15h06.18.819,lexical_decision_task_MP_exp2,2020.2.5,Win32,60,,z,1,0.752535,,,,,,,,0.752535,1,,,,,,253,NW,"ID",33,resait,RESAIT,z,,,,,,0.034220532,-0.38973384,0,0,0,,0,28,28,252,1,,
,,,,,,,,,,,,,,,,,,56c9e4d9b30699000bd974a5,2020-11-27_15h06.18.819,lexical_decision_task_MP_exp2,2020.2.5,Win32,60,,m,1,0.68509,,,,,,,,0.68509,1,,,,,,161,WORD,UN,33,candle,PASTOR,m,,,,,,0.034220532,-0.38973384,0,0,0,,0,29,29,160,1,,
,,,,,,,,,,,,,,,,,,56c9e4d9b30699000bd974a5,2020-11-27_15h06.18.819,lexical_decision_task_MP_exp2,2020.2.5,Win32,60,,m,1,0.813505,,,,,,,,0.813505,1,,,,,,185,WORD,UN,16,portal,BOTHER,m,,,,,,0.034220532,-0.38973384,0,0,0,,0,30,30,184,1,,
,,,,,,,,,,,,,,,,,,56c9e4d9b30699000bd974a5,2020-11-27_15h06.18.819,lexical_decision_task_MP_exp2,2020.2.5,Win32,60,,z,1,0.948405,,,,,,,,0.948405,1,,,,,,270,NW,"ID",33,wrimsy,WRIMSY,z,,,,,,0.034220532,-0.38973384,0,0,0,,0,31,31,269,1,,
,,,,,,,,,,,,,,,,,,56c9e4d9b30699000bd974a5,2020-11-27_15h06.18.819,lexical_decision_task_MP_exp2,2020.2.5,Win32,60,,m,1,0.63264,,,,,,,,0.63264,1,,,,,,81,WORD,"ID",16,friend,FRIEND,m,,,,,,0.034220532,-0.38973384,0,0,0,,0,32,32,80,1,,
,,,,,,,,,,,,,,,,,,56c9e4d9b30699000bd974a5,2020-11-27_15h06.18.819,lexical_decision_task_MP_exp2,2020.2.5,Win32,60,,z,1,0.851695,,,,,,,,0.851695,1,,,,,,329,NW,"ID",16,yarike,YARIKE,z,,,,,,0.034220532,-0.38973384,0,0,0,,0,33,33,328,1,,
,,,,,,,,,,,,,,,,,,56c9e4d9b30699000bd974a5,2020-11-27_15h06.18.819,lexical_decision_task_MP_exp2,2020.2.5,Win32,60,,m,1,0.830555,,,,,,,,0.830555,1,,,,,,221,WORD,UN,16,hinder,MASCOT,m,,,,,,0.034220532,-0.38973384,0,0,0,,0,34,34,220,1,,
,,,,,,,,,,,,,,,,,,56c9e4d9b30699000bd974a5,2020-11-27_15h06.18.819,lexical_decision_task_MP_exp2,2020.2.5,Win32,60,,m,1,0.6826,,,,,,,,0.6826,1,,,,,,91,WORD,"ID",16,expand,EXPAND,m,,,,,,0.034220532,-0.38973384,0,0,0,,0,35,35,90,1,,
,,,,,,,,,,,,,,,,,,56c9e4d9b30699000bd974a5,2020-11-27_15h06.18.819,lexical_decision_task_MP_exp2,2020.2.5,Win32,60,,z,1,0.670625,,,,,,,,0.670625,1,,,,,,380,NW,UN,33,huniek,CAVORY,z,,,,,,0.034220532,-0.38973384,0,0,0,,0,36,36,379,1,,
,,,,,,,,,,,,,,,,,,56c9e4d9b30699000bd974a5,2020-11-27_15h06.18.819,lexical_decision_task_MP_exp2,2020.2.5,Win32,60,,m,1,0.5819,,,,,,,,0.5819,1,,,,,,67,WORD,"ID",16,policy,POLICY,m,,,,,,0.034220532,-0.38973384,0,0,0,,0,37,37,66,1,,
,,,,,,,,,,,,,,,,,,56c9e4d9b30699000bd974a5,2020-11-27_15h06.18.819,lexical_decision_task_MP_exp2,2020.2.5,Win32,60,,z,1,0.60119,,,,,,,,0.60119,1,,,,,,398,NW,UN,33,fouret,BLUNDE,z,,,,,,0.034220532,-0.38973384,0,0,0,,0,38,38,397,1,,
,,,,,,,,,,,,,,,,,,56c9e4d9b30699000bd974a5,2020-11-27_15h06.18.819,lexical_decision_task_MP_exp2,2020.2.5,Win32,60,,m,1,0.588975,,,,,,,,0.588975,1,,,,,,76,WORD,"ID",16,exotic,EXOTIC,m,,,,,,0.034220532,-0.38973384,0,0,0,,0,39,39,75,1,,
,,,,,,,,,,,,,,,,,,56c9e4d9b30699000bd974a5,2020-11-27_15h06.18.819,lexical_decision_task_MP_exp2,2020.2.5,Win32,60,,z,1,0.865105,,,,,,,,0.865105,1,,,,,,455,NW,UN,16,broget,TONDLE,z,,,,,,0.034220532,-0.38973384,0,0,0,,0,40,40,454,1,,
,,,,,,,,,,,,,,,,,,56c9e4d9b30699000bd974a5,2020-11-27_15h06.18.819,lexical_decision_task_MP_exp2,2020.2.5,Win32,60,,z,1,1.15387,,,,,,,,1.15387,1,,,,,,345,NW,"ID",16,absend,ABSEND,z,,,,,,0.034220532,-0.38973384,0,0,0,,0,41,41,344,1,,
,,,,,,,,,,,,,,,,,,56c9e4d9b30699000bd974a5,2020-11-27_15h06.18.819,lexical_decision_task_MP_exp2,2020.2.5,Win32,60,,z,1,0.733775,,,,,,,,0.733775,1,,,,,,244,NW,"ID",33,eatric,EATRIC,z,,,,,,0.034220532,-0.38973384,0,0,0,,0,42,42,243,1,,
,,,,,,,,,,,,,,,,,,56c9e4d9b30699000bd974a5,2020-11-27_15h06.18.819,lexical_decision_task_MP_exp2,2020.2.5,Win32,60,,m,1,0.648625,,,,,,,,0.648625,1,,,,,,52,WORD,"ID",33,impose,IMPOSE,m,,,,,,0.034220532,-0.38973384,0,0,0,,0,43,43,51,1,,
,,,,,,,,,,,,,,,,,,56c9e4d9b30699000bd974a5,2020-11-27_15h06.18.819,lexical_decision_task_MP_exp2,2020.2.5,Win32,60,,m,1,0.60453,,,,,,,,0.60453,1,,,,,,219,WORD,UN,16,voyage,BUCKET,m,,,,,,0.034220532,-0.38973384,0,0,0,,0,44,44,218,1,,
,,,,,,,,,,,,,,,,,,56c9e4d9b30699000bd974a5,2020-11-27_15h06.18.819,lexical_decision_task_MP_exp2,2020.2.5,Win32,60,,m,1,0.61749,,,,,,,,0.61749,1,,,,,,72,WORD,"ID",16,bright,BRIGHT,m,,,,,,0.034220532,-0.38973384,0,0,0,,0,45,45,71,1,,
,,,,,,,,,,,,,,,,,,56c9e4d9b30699000bd974a5,2020-11-27_15h06.18.819,lexical_decision_task_MP_exp2,2020.2.5,Win32,60,,m,1,1.22575,,,,,,,,1.22575,1,,,,,,218,WORD,UN,16,bucket,SHRINK,m,,,,,,0.034220532,-0.38973384,0,0,0,,0,46,46,217,1,,
,,,,,,,,,,,,,,,,,,56c9e4d9b30699000bd974a5,2020-11-27_15h06.18.819,lexical_decision_task_MP_exp2,2020.2.5,Win32,60,,m,1,0.605235,,,,,,,,0.605235,1,,,,,,32,WORD,"ID",33,buckle,BUCKLE,m,,,,,,0.034220532,-0.38973384,0,0,0,,0,47,47,31,1,,
,,,,,,,,,,,,,,,,,,56c9e4d9b30699000bd974a5,2020-11-27_15h06.18.819,lexical_decision_task_MP_exp2,2020.2.5,Win32,60,,m,1,0.633785,,,,,,,,0.633785,1,,,,,,55,WORD,"ID",33,stroke,STROKE,m,,,,,,0.034220532,-0.38973384,0,0,0,,0,48,48,54,1,,
,,,,,,,,,,,,,,,,,,56c9e4d9b30699000bd974a5,2020-11-27_15h06.18.819,lexical_decision_task_MP_exp2,2020.2.5,Win32,60,,m,1,0.625915,,,,,,,,0.625915,1,,,,,,69,WORD,"ID",16,plenty,PLENTY,m,,,,,,0.034220532,-0.38973384,0,0,0,,0,49,49,68,1,,
,,,,,,,,,,,,,,,,,,56c9e4d9b30699000bd974a5,2020-11-27_15h06.18.819,lexical_decision_task_MP_exp2,2020.2.5,Win32,60,,m,1,0.514925,,,,,,,,0.514925,1,,,,,,38,WORD,"ID",33,powder,POWDER,m,,,,,,0.034220532,-0.38973384,0,0,0,,0,50,50,37,1,,
,,,,,,,,,,,,,,,,,,56c9e4d9b30699000bd974a5,2020-11-27_15h06.18.819,lexical_decision_task_MP_exp2,2020.2.5,Win32,60,,z,1,0.700315,,,,,,,,0.700315,1,,,,,,423,NW,UN,16,praile,STRELD,z,,,,,,0.034220532,-0.38973384,0,0,0,,0,51,51,422,1,,
,,,,,,,,,,,,,,,,,,56c9e4d9b30699000bd974a5,2020-11-27_15h06.18.819,lexical_decision_task_MP_exp2,2020.2.5,Win32,60,,m,1,0.613675,,,,,,,,0.613675,1,,,,,,13,WORD,"ID",33,strive,STRIVE,m,,,,,,0.034220532,-0.38973384,0,0,0,,0,52,52,12,1,,
,,,,,,,,,,,,,,,,,,56c9e4d9b30699000bd974a5,2020-11-27_15h06.18.819,lexical_decision_task_MP_exp2,2020.2.5,Win32,60,,z,1,0.59925,,,,,,,,0.59925,1,,,,,,406,NW,UN,33,suiver,NOUPLY,z,,,,,,0.034220532,-0.38973384,0,0,0,,0,53,53,405,1,,
,,,,,,,,,,,,,,,,,,56c9e4d9b30699000bd974a5,2020-11-27_15h06.18.819,lexical_decision_task_MP_exp2,2020.2.5,Win32,60,,z,1,0.836995,,,,,,,,0.836995,1,,,,,,291,NW,"ID",33,pretch,PRETCH,z,,,,,,0.034220532,-0.38973384,0,0,0,,0,54,54,290,1,,
,,,,,,,,,,,,,,,,,,56c9e4d9b30699000bd974a5,2020-11-27_15h06.18.819,lexical_decision_task_MP_exp2,2020.2.5,Win32,60,,z,1,0.70081,,,,,,,,0.70081,1,,,,,,285,NW,"ID",33,prudge,PRUDGE,z,,,,,,0.034220532,-0.38973384,0,0,0,,0,55,55,284,1,,
,,,,,,,,,,,,,,,,,,56c9e4d9b30699000bd974a5,2020-11-27_15h06.18.819,lexical_decision_task_MP_exp2,2020.2.5,Win32,60,,z,1,0.81293,,,,,,,,0.81293,1,,,,,,298,NW,"ID",33,piergy,PIERGY,z,,,,,,0.034220532,-0.38973384,0,0,0,,0,56,56,297,1,,
,,,,,,,,,,,,,,,,,,56c9e4d9b30699000bd974a5,2020-11-27_15h06.18.819,lexical_decision_task_MP_exp2,2020.2.5,Win32,60,,m,1,0.7686,,,,,,,,0.7686,1,,,,,,179,WORD,UN,33,silent,BASKET,m,,,,,,0.034220532,-0.38973384,0,0,0,,0,57,57,178,1,,
,,,,,,,,,,,,,,,,,,56c9e4d9b30699000bd974a5,2020-11-27_15h06.18.819,lexical_decision_task_MP_exp2,2020.2.5,Win32,60,,z,1,0.86487,,,,,,,,0.86487,1,,,,,,425,NW,UN,16,schind,FRUDGE,z,,,,,,0.034220532,-0.38973384,0,0,0,,0,58,58,424,1,,
,,,,,,,,,,,,,,,,,,56c9e4d9b30699000bd974a5,2020-11-27_15h06.18.819,lexical_decision_task_MP_exp2,2020.2.5,Win32,60,,m,1,0.635755,,,,,,,,0.635755,1,,,,,,237,WORD,UN,16,seldom,POSTER,m,,,,,,0.034220532,-0.38973384,0,0,0,,0,59,59,236,1,,
,,,,,,,,,,,,,,,,,,56c9e4d9b30699000bd974a5,2020-11-27_15h06.18.819,lexical_decision_task_MP_exp2,2020.2.5,Win32,60,,z,1,0.77191,,,,,,,,0.77191,1,,,,,,391,NW,UN,33,rouncy,THELDY,z,,,,,,0.034220532,-0.38973384,0,0,0,,0,60,60,390,1,,
,,,,,,,,,,,,,,,,,,56c9e4d9b30699000bd974a5,2020-11-27_15h06.18.819,lexical_decision_task_MP_exp2,2020.2.5,Win32,60,,m,1,0.699225,,,,,,,,0.699225,1,,,,,,140,WORD,UN,33,reason,PRINCE,m,,,,,,0.034220532,-0.38973384,0,0,0,,0,61,61,139,1,,
,,,,,,,,,,,,,,,,,,56c9e4d9b30699000bd974a5,2020-11-27_15h06.18.819,lexical_decision_task_MP_exp2,2020.2.5,Win32,60,,m,1,0.74828,,,,,,,,0.74828,1,,,,,,184,WORD,UN,16,bother,SLEAZY,m,,,,,,0.034220532,-0.38973384,0,0,0,,0,62,62,183,1,,
,,,,,,,,,,,,,,,,,,56c9e4d9b30699000bd974a5,2020-11-27_15h06.18.819,lexical_decision_task_MP_exp2,2020.2.5,Win32,60,,m,1,0.58647,,,,,,,,0.58647,1,,,,,,129,WORD,UN,33,stupid,MARVEL,m,,,,,,0.034220532,-0.38973384,0,0,0,,0,63,63,128,1,,
,,,,,,,,,,,,,,,,,,56c9e4d9b30699000bd974a5,2020-11-27_15h06.18.819,lexical_decision_task_MP_exp2,2020.2.5,Win32,60,,z,1,0.633275,,,,,,,,0.633275,1,,,,,,382,NW,UN,33,aungre,SARLEY,z,,,,,,0.034220532,-0.38973384,0,0,0,,0,64,64,381,1,,
,,,,,,,,,,,,,,,,,,56c9e4d9b30699000bd974a5,2020-11-27_15h06.18.819,lexical_decision_task_MP_exp2,2020.2.5,Win32,60,,m,1,0.60188,,,,,,,,0.60188,1,,,,,,109,WORD,"ID",16,wonder,WONDER,m,,,,,,0.034220532,-0.38973384,0,0,0,,0,65,65,108,1,,
,,,,,,,,,,,,,,,,,,56c9e4d9b30699000bd974a5,2020-11-27_15h06.18.819,lexical_decision_task_MP_exp2,2020.2.5,Win32,60,,m,1,0.687865,,,,,,,,0.687865,1,,,,,,193,WORD,UN,16,plague,OBJECT,m,,,,,,0.034220532,-0.38973384,0,0,0,,0,66,66,192,1,,
,,,,,,,,,,,,,,,,,,56c9e4d9b30699000bd974a5,2020-11-27_15h06.18.819,lexical_decision_task_MP_exp2,2020.2.5,Win32,60,,m,1,0.631055,,,,,,,,0.631055,1,,,,,,79,WORD,"ID",16,theory,THEORY,m,,,,,,0.034220532,-0.38973384,0,0,0,,0,67,67,78,1,,
,,,,,,,,,,,,,,,,,,56c9e4d9b30699000bd974a5,2020-11-27_15h06.18.819,lexical_decision_task_MP_exp2,2020.2.5,Win32,60,,m,1,0.58584,,,,,,,,0.58584,1,,,,,,40,WORD,"ID",33,convey,CONVEY,m,,,,,,0.034220532,-0.38973384,0,0,0,,0,68,68,39,1,,
,,,,,,,,,,,,,,,,,,56c9e4d9b30699000bd974a5,2020-11-27_15h06.18.819,lexical_decision_task_MP_exp2,2020.2.5,Win32,60,,m,1,0.53915,,,,,,,,0.53915,1,,,,,,44,WORD,"ID",33,danger,DANGER,m,,,,,,0.034220532,-0.38973384,0,0,0,,0,69,69,43,1,,
,,,,,,,,,,,,,,,,,,56c9e4d9b30699000bd974a5,2020-11-27_15h06.18.819,lexical_decision_task_MP_exp2,2020.2.5,Win32,60,,m,1,1.29884,,,,,,,,1.29884,1,,,,,,45,WORD,"ID",33,clergy,CLERGY,m,,,,,,0.034220532,-0.38973384,0,0,0,,0,70,70,44,1,,
,,,,,,,,,,,,,,,,,,56c9e4d9b30699000bd974a5,2020-11-27_15h06.18.819,lexical_decision_task_MP_exp2,2020.2.5,Win32,60,,m,1,0.63131,,,,,,,,0.63131,1,,,,,,190,WORD,UN,16,stable,BACKUP,m,,,,,,0.034220532,-0.38973384,0,0,0,,0,71,71,189,1,,
,,,,,,,,,,,,,,,,,,56c9e4d9b30699000bd974a5,2020-11-27_15h06.18.819,lexical_decision_task_MP_exp2,2020.2.5,Win32,60,,m,1,0.88305,,,,,,,,0.88305,1,,,,,,53,WORD,"ID",33,police,POLICE,m,,,,,,0.034220532,-0.38973384,0,0,0,,0,72,72,52,1,,
,,,,,,,,,,,,,,,,,,56c9e4d9b30699000bd974a5,2020-11-27_15h06.18.819,lexical_decision_task_MP_exp2,2020.2.5,Win32,60,,m,1,1.106185,,,,,,,,1.106185,1,,,,,,10,WORD,"ID",33,ethnic,ETHNIC,m,,,,,,0.034220532,-0.38973384,0,0,0,,0,73,73,9,1,,
,,,,,,,,,,,,,,,,,,56c9e4d9b30699000bd974a5,2020-11-27_15h06.18.819,lexical_decision_task_MP_exp2,2020.2.5,Win32,60,,z,1,0.70046,,,,,,,,0.70046,1,,,,,,265,NW,"ID",33,distar,DISTAR,z,,,,,,0.034220532,-0.38973384,0,0,0,,0,74,74,264,1,,
,,,,,,,,,,,,,,,,,,56c9e4d9b30699000bd974a5,2020-11-27_15h06.18.819,lexical_decision_task_MP_exp2,2020.2.5,Win32,60,,m,1,0.78251,,,,,,,,0.78251,1,,,,,,58,WORD,"ID",33,foster,FOSTER,m,,,,,,0.034220532,-0.38973384,0,0,0,,0,75,75,57,1,,
,,,,,,,,,,,,,,,,,,56c9e4d9b30699000bd974a5,2020-11-27_15h06.18.819,lexical_decision_task_MP_exp2,2020.2.5,Win32,60,,z,1,0.748365,,,,,,,,0.748365,1,,,,,,475,NW,UN,16,robuly,PEBRIC,z,,,,,,0.034220532,-0.38973384,0,0,0,,0,76,76,474,1,,
,,,,,,,,,,,,,,,,,,56c9e4d9b30699000bd974a5,2020-11-27_15h06.18.819,lexical_decision_task_MP_exp2,2020.2.5,Win32,60,,m,1,0.616825,,,,,,,,0.616825,1,,,,,,15,WORD,"ID",33,amount,AMOUNT,m,,,,,,0.034220532,-0.38973384,0,0,0,,0,77,77,14,1,,
,,,,,,,,,,,,,,,,,,56c9e4d9b30699000bd974a5,2020-11-27_15h06.18.819,lexical_decision_task_MP_exp2,2020.2.5,Win32,60,,m,1,0.672115,,,,,,,,0.672115,1,,,,,,154,WORD,UN,33,lizard,AUTHOR,m,,,,,,0.034220532,-0.38973384,0,0,0,,0,78,78,153,1,,
,,,,,,,,,,,,,,,,,,56c9e4d9b30699000bd974a5,2020-11-27_15h06.18.819,lexical_decision_task_MP_exp2,2020.2.5,Win32,60,,z,1,0.61562,,,,,,,,0.61562,1,,,,,,358,NW,"ID",16,fleack,FLEACK,z,,,,,,0.034220532,-0.38973384,0,0,0,,0,79,79,357,1,,
,,,,,,,,,,,,,,,,,,56c9e4d9b30699000bd974a5,2020-11-27_15h06.18.819,lexical_decision_task_MP_exp2,2020.2.5,Win32,60,,z,1,0.70448,,,,,,,,0.70448,1,,,,,,326,NW,"ID",16,iguade,IGUADE,z,,,,,,0.034220532,-0.38973384,0,0,0,,0,80,80,325,1,,
,,,,,,,,,,,,,,,,,,56c9e4d9b30699000bd974a5,2020-11-27_15h06.18.819,lexical_decision_task_MP_exp2,2020.2.5,Win32,60,,z,1,0.766085,,,,,,,,0.766085,1,,,,,,402,NW,UN,33,bruats,SYNTIC,z,,,,,,0.034220532,-0.38973384,0,0,0,,0,81,81,401,1,,
,,,,,,,,,,,,,,,,,,56c9e4d9b30699000bd974a5,2020-11-27_15h06.18.819,lexical_decision_task_MP_exp2,2020.2.5,Win32,60,,m,1,0.76512,,,,,,,,0.76512,1,,,,,,215,WORD,UN,16,behalf,PHOBIA,m,,,,,,0.034220532,-0.38973384,0,0,0,,0,82,82,214,1,,
,,,,,,,,,,,,,,,,,,56c9e4d9b30699000bd974a5,2020-11-27_15h06.18.819,lexical_decision_task_MP_exp2,2020.2.5,Win32,60,,m,1,0.637385,,,,,,,,0.637385,1,,,,,,48,WORD,"ID",33,walnut,WALNUT,m,,,,,,0.034220532,-0.38973384,0,0,0,,0,83,83,47,1,,
,,,,,,,,,,,,,,,,,,56c9e4d9b30699000bd974a5,2020-11-27_15h06.18.819,lexical_decision_task_MP_exp2,2020.2.5,Win32,60,,z,1,0.664385,,,,,,,,0.664385,1,,,,,,418,NW,UN,33,slount,SUIDLE,z,,,,,,0.034220532,-0.38973384,0,0,0,,0,84,84,417,1,,
,,,,,,,,,,,,,,,,,,56c9e4d9b30699000bd974a5,2020-11-27_15h06.18.819,lexical_decision_task_MP_exp2,2020.2.5,Win32,60,,m,1,0.600275,,,,,,,,0.600275,1,,,,,,27,WORD,"ID",33,scream,SCREAM,m,,,,,,0.034220532,-0.38973384,0,0,0,,0,85,85,26,1,,
,,,,,,,,,,,,,,,,,,56c9e4d9b30699000bd974a5,2020-11-27_15h06.18.819,lexical_decision_task_MP_exp2,2020.2.5,Win32,60,,m,1,0.615075,,,,,,,,0.615075,1,,,,,,35,WORD,"ID",33,socket,SOCKET,m,,,,,,0.034220532,-0.38973384,0,0,0,,0,86,86,34,1,,
,,,,,,,,,,,,,,,,,,56c9e4d9b30699000bd974a5,2020-11-27_15h06.18.819,lexical_decision_task_MP_exp2,2020.2.5,Win32,60,,z,1,0.58247,,,,,,,,0.58247,1,,,,,,271,NW,"ID",33,aubrid,AUBRID,z,,,,,,0.034220532,-0.38973384,0,0,0,,0,87,87,270,1,,
,,,,,,,,,,,,,,,,,,56c9e4d9b30699000bd974a5,2020-11-27_15h06.18.819,lexical_decision_task_MP_exp2,2020.2.5,Win32,60,,z,1,0.750765,,,,,,,,0.750765,1,,,,,,445,NW,UN,16,runamo,MINKEL,z,,,,,,0.034220532,-0.38973384,0,0,0,,0,88,88,444,1,,
,,,,,,,,,,,,,,,,,,56c9e4d9b30699000bd974a5,2020-11-27_15h06.18.819,lexical_decision_task_MP_exp2,2020.2.5,Win32,60,,m,1,0.63641,,,,,,,,0.63641,1,,,,,,64,WORD,"ID",16,throne,THRONE,m,,,,,,0.034220532,-0.38973384,0,0,0,,0,89,89,63,1,,
,,,,,,,,,,,,,,,,,,56c9e4d9b30699000bd974a5,2020-11-27_15h06.18.819,lexical_decision_task_MP_exp2,2020.2.5,Win32,60,,z,1,0.56057,,,,,,,,0.56057,1,,,,,,290,NW,"ID",33,splino,SPLINO,z,,,,,,0.034220532,-0.38973384,0,0,0,,0,90,90,289,1,,
,,,,,,,,,,,,,,,,,,56c9e4d9b30699000bd974a5,2020-11-27_15h06.18.819,lexical_decision_task_MP_exp2,2020.2.5,Win32,60,,m,1,0.68922,,,,,,,,0.68922,1,,,,,,149,WORD,UN,33,random,INVADE,m,,,,,,0.034220532,-0.38973384,0,0,0,,0,91,91,148,1,,
,,,,,,,,,,,,,,,,,,56c9e4d9b30699000bd974a5,2020-11-27_15h06.18.819,lexical_decision_task_MP_exp2,2020.2.5,Win32,60,,m,1,1.08261,,,,,,,,1.08261,1,,,,,,97,WORD,"ID",16,client,CLIENT,m,,,,,,0.034220532,-0.38973384,0,0,0,,0,92,92,96,1,,
,,,,,,,,,,,,,,,,,,56c9e4d9b30699000bd974a5,2020-11-27_15h06.18.819,lexical_decision_task_MP_exp2,2020.2.5,Win32,60,,m,1,0.68279,,,,,,,,0.68279,1,,,,,,160,WORD,UN,33,dragon,VIOLET,m,,,,,,0.034220532,-0.38973384,0,0,0,,0,93,93,159,1,,
,,,,,,,,,,,,,,,,,,56c9e4d9b30699000bd974a5,2020-11-27_15h06.18.819,lexical_decision_task_MP_exp2,2020.2.5,Win32,60,,,0,,0.034220532,-0.38973384,1,0,0,1.01485,,0.68279,-1,,,,,,101,WORD,"ID",16,wrench,WRENCH,m,,,,,,0.034220532,-0.38973384,0,0,0,,0,94,94,100,1,,
,,,,,,,,,,,,,,,,,,56c9e4d9b30699000bd974a5,2020-11-27_15h06.18.819,lexical_decision_task_MP_exp2,2020.2.5,Win32,60,,m,1,1.68917,,,,,,,,1.68917,1,,,,,,145,WORD,UN,33,couple,PARISH,m,,,,,,0.034220532,-0.38973384,0,0,0,,0,95,95,144,1,,
,,,,,,,,,,,,,,,,,,56c9e4d9b30699000bd974a5,2020-11-27_15h06.18.819,lexical_decision_task_MP_exp2,2020.2.5,Win32,60,,z,1,0.9385,,,,,,,,0.9385,1,,,,,,310,NW,"ID",16,daniet,DANIET,z,,,,,,0.034220532,-0.38973384,0,0,0,,0,96,96,309,1,,
,,,,,,,,,,,,,,,,,,56c9e4d9b30699000bd974a5,2020-11-27_15h06.18.819,lexical_decision_task_MP_exp2,2020.2.5,Win32,60,,z,1,0.69476,,,,,,,,0.69476,1,,,,,,295,NW,"ID",33,gleath,GLEATH,z,,,,,,0.034220532,-0.38973384,0,0,0,,0,97,97,294,1,,
,,,,,,,,,,,,,,,,,,56c9e4d9b30699000bd974a5,2020-11-27_15h06.18.819,lexical_decision_task_MP_exp2,2020.2.5,Win32,60,,z,1,0.780655,,,,,,,,0.780655,1,,,,,,365,NW,UN,33,toshel,GUAIRT,z,,,,,,0.034220532,-0.38973384,0,0,0,,0,98,98,364,1,,
,,,,,,,,,,,,,,,,,,56c9e4d9b30699000bd974a5,2020-11-27_15h06.18.819,lexical_decision_task_MP_exp2,2020.2.5,Win32,60,,m,1,0.77906,,,,,,,,0.77906,1,,,,,,222,WORD,UN,16,casino,HINDER,m,,,,,,0.034220532,-0.38973384,0,0,0,,0,99,99,221,1,,
,,,,,,,,,,,,,,,,,,56c9e4d9b30699000bd974a5,2020-11-27_15h06.18.819,lexical_decision_task_MP_exp2,2020.2.5,Win32,60,,m,1,0.68177,,,,,,,,0.68177,1,,,,,,124,WORD,UN,33,nickel,BLOUSE,m,,,,,,0.034220532,-0.38973384,0,0,0,,0,100,100,123,1,,
,,,,,,,,,,,,,,,,,,56c9e4d9b30699000bd974a5,2020-11-27_15h06.18.819,lexical_decision_task_MP_exp2,2020.2.5,Win32,60,,m,1,0.66991,,,,,,,,0.66991,1,,,,,,195,WORD,UN,16,credit,RESIGN,m,,,,,,0.034220532,-0.38973384,0,0,0,,0,101,101,194,1,,
,,,,,,,,,,,,,,,,,,56c9e4d9b30699000bd974a5,2020-11-27_15h06.18.819,lexical_decision_task_MP_exp2,2020.2.5,Win32,60,,z,1,1.02129,,,,,,,,1.02129,1,,,,,,335,NW,"ID",16,desion,DESION,z,,,,,,0.034220532,-0.38973384,0,0,0,,0,102,102,334,1,,
,,,,,,,,,,,,,,,,,,56c9e4d9b30699000bd974a5,2020-11-27_15h06.18.819,lexical_decision_task_MP_exp2,2020.2.5,Win32,60,,m,1,0.9811,,,,,,,,0.9811,1,,,,,,2,WORD,"ID",33,bridge,BRIDGE,m,,,,,,0.034220532,-0.38973384,0,0,0,,0,103,103,1,1,,
,,,,,,,,,,,,,,,,,,56c9e4d9b30699000bd974a5,2020-11-27_15h06.18.819,lexical_decision_task_MP_exp2,2020.2.5,Win32,60,,z,1,0.831785,,,,,,,,0.831785,1,,,,,,260,NW,"ID",33,unject,UNJECT,z,,,,,,0.034220532,-0.38973384,0,0,0,,0,104,104,259,1,,
,,,,,,,,,,,,,,,,,,56c9e4d9b30699000bd974a5,2020-11-27_15h06.18.819,lexical_decision_task_MP_exp2,2020.2.5,Win32,60,,z,1,0.78204,,,,,,,,0.78204,1,,,,,,250,NW,"ID",33,milted,MILTED,z,,,,,,0.034220532,-0.38973384,0,0,0,,0,105,105,249,1,,
,,,,,,,,,,,,,,,,,,56c9e4d9b30699000bd974a5,2020-11-27_15h06.18.819,lexical_decision_task_MP_exp2,2020.2.5,Win32,60,,m,1,0.76807,,,,,,,,0.76807,1,,,,,,11,WORD,"ID",33,cruise,CRUISE,m,,,,,,0.034220532,-0.38973384,0,0,0,,0,106,106,10,1,,
,,,,,,,,,,,,,,,,,,56c9e4d9b30699000bd974a5,2020-11-27_15h06.18.819,lexical_decision_task_MP_exp2,2020.2.5,Win32,60,,z,1,0.66747,,,,,,,,0.66747,1,,,,,,474,NW,UN,16,gorbie,HABLIN,z,,,,,,0.034220532,-0.38973384,0,0,0,,0,107,107,473,1,,
,,,,,,,,,,,,,,,,,,56c9e4d9b30699000bd974a5,2020-11-27_15h06.18.819,lexical_decision_task_MP_exp2,2020.2.5,Win32,60,,m,1,0.679705,,,,,,,,0.679705,1,,,,,,82,WORD,"ID",16,stigma,STIGMA,m,,,,,,0.034220532,-0.38973384,0,0,0,,0,108,108,81,1,,
,,,,,,,,,,,,,,,,,,56c9e4d9b30699000bd974a5,2020-11-27_15h06.18.819,lexical_decision_task_MP_exp2,2020.2.5,Win32,60,,z,1,1.10085,,,,,,,,1.10085,1,,,,,,248,NW,"ID",33,strole,STROLE,z,,,,,,0.034220532,-0.38973384,0,0,0,,0,109,109,247,1,,
,,,,,,,,,,,,,,,,,,56c9e4d9b30699000bd974a5,2020-11-27_15h06.18.819,lexical_decision_task_MP_exp2,2020.2.5,Win32,60,,m,1,0.64043,,,,,,,,0.64043,1,,,,,,34,WORD,"ID",33,jungle,JUNGLE,m,,,,,,0.034220532,-0.38973384,0,0,0,,0,110,110,33,1,,
,,,,,,,,,,,,,,,,,,56c9e4d9b30699000bd974a5,2020-11-27_15h06.18.819,lexical_decision_task_MP_exp2,2020.2.5,Win32,60,,m,1,0.67673,,,,,,,,0.67673,1,,,,,,123,WORD,UN,33,enough,STRIKE,m,,,,,,0.034220532,-0.38973384,0,0,0,,0,111,111,122,1,,
,,,,,,,,,,,,,,,,,,56c9e4d9b30699000bd974a5,2020-11-27_15h06.18.819,lexical_decision_task_MP_exp2,2020.2.5,Win32,60,,z,1,0.66655,,,,,,,,0.66655,1,,,,,,249,NW,"ID",33,batrol,BATROL,z,,,,,,0.034220532,-0.38973384,0,0,0,,0,112,112,248,1,,
,,,,,,,,,,,,,,,,,,56c9e4d9b30699000bd974a5,2020-11-27_15h06.18.819,lexical_decision_task_MP_exp2,2020.2.5,Win32,60,,z,1,0.83065,,,,,,,,0.83065,1,,,,,,473,NW,UN,16,hablin,CRIBLE,z,,,,,,0.034220532,-0.38973384,0,0,0,,0,113,113,472,1,,
,,,,,,,,,,,,,,,,,,56c9e4d9b30699000bd974a5,2020-11-27_15h06.18.819,lexical_decision_task_MP_exp2,2020.2.5,Win32,60,,m,1,0.60488,,,,,,,,0.60488,1,,,,,,152,WORD,UN,33,behold,ROCKET,m,,,,,,0.034220532,-0.38973384,0,0,0,,0,114,114,151,1,,
,,,,,,,,,,,,,,,,,,56c9e4d9b30699000bd974a5,2020-11-27_15h06.18.819,lexical_decision_task_MP_exp2,2020.2.5,Win32,60,,z,1,0.763705,,,,,,,,0.763705,1,,,,,,348,NW,"ID",16,dumple,DUMPLE,z,,,,,,0.034220532,-0.38973384,0,0,0,,0,115,115,347,1,,
,,,,,,,,,,,,,,,,,,56c9e4d9b30699000bd974a5,2020-11-27_15h06.18.819,lexical_decision_task_MP_exp2,2020.2.5,Win32,60,,z,1,0.800295,,,,,,,,0.800295,1,,,,,,344,NW,"ID",16,scrily,SCRILY,z,,,,,,0.034220532,-0.38973384,0,0,0,,0,116,116,343,1,,
,,,,,,,,,,,,,,,,,,56c9e4d9b30699000bd974a5,2020-11-27_15h06.18.819,lexical_decision_task_MP_exp2,2020.2.5,Win32,60,,z,1,0.80438,,,,,,,,0.80438,1,,,,,,273,NW,"ID",33,sortel,SORTEL,z,,,,,,0.034220532,-0.38973384,0,0,0,,0,117,117,272,1,,
,,,,,,,,,,,,,,,,,,56c9e4d9b30699000bd974a5,2020-11-27_15h06.18.819,lexical_decision_task_MP_exp2,2020.2.5,Win32,60,,z,1,0.69932,,,,,,,,0.69932,1,,,,,,322,NW,"ID",16,slanch,SLANCH,z,,,,,,0.034220532,-0.38973384,0,0,0,,0,118,118,321,1,,
,,,,,,,,,,,,,,,,,,56c9e4d9b30699000bd974a5,2020-11-27_15h06.18.819,lexical_decision_task_MP_exp2,2020.2.5,Win32,60,,z,1,0.6711,,,,,,,,0.6711,1,,,,,,438,NW,UN,16,limpor,BAITCH,z,,,,,,0.034220532,-0.38973384,0,0,0,,0,119,119,437,1,,
,,,,,,,,,,,,,,,,,,56c9e4d9b30699000bd974a5,2020-11-27_15h06.18.819,lexical_decision_task_MP_exp2,2020.2.5,Win32,60,,m,1,0.72159,,,,,,,,0.72159,1,,,,,,113,WORD,"ID",16,chorus,CHORUS,m,,,,,,0.020278834,-0.392268695,1,0,0,,0,120,120,112,1,break_done_button,
,,,,,,,,,,,,,,,,,,56c9e4d9b30699000bd974a5,2020-11-27_15h06.18.819,lexical_decision_task_MP_exp2,2020.2.5,Win32,60,,m,1,0.998425,,,,,,,,0.998425,1,,,,,,126,WORD,UN,33,castle,ENOUGH,m,,,,,,0.020278834,-0.392268695,0,0,0,,0,121,121,125,1,,
,,,,,,,,,,,,,,,,,,56c9e4d9b30699000bd974a5,2020-11-27_15h06.18.819,lexical_decision_task_MP_exp2,2020.2.5,Win32,60,,z,1,0.714895,,,,,,,,0.714895,1,,,,,,377,NW,UN,33,shrile,INJORE,z,,,,,,0.020278834,-0.392268695,0,0,0,,0,122,122,376,1,,
,,,,,,,,,,,,,,,,,,56c9e4d9b30699000bd974a5,2020-11-27_15h06.18.819,lexical_decision_task_MP_exp2,2020.2.5,Win32,60,,m,1,0.802875,,,,,,,,0.802875,1,,,,,,225,WORD,UN,16,kidney,VULGAR,m,,,,,,0.020278834,-0.392268695,0,0,0,,0,123,123,224,1,,
,,,,,,,,,,,,,,,,,,56c9e4d9b30699000bd974a5,2020-11-27_15h06.18.819,lexical_decision_task_MP_exp2,2020.2.5,Win32,60,,m,1,0.83143,,,,,,,,0.83143,1,,,,,,205,WORD,UN,16,tailor,LOUNGE,m,,,,,,0.020278834,-0.392268695,0,0,0,,0,124,124,204,1,,
,,,,,,,,,,,,,,,,,,56c9e4d9b30699000bd974a5,2020-11-27_15h06.18.819,lexical_decision_task_MP_exp2,2020.2.5,Win32,60,,m,1,1.016315,,,,,,,,1.016315,1,,,,,,74,WORD,"ID",16,plaque,PLAQUE,m,,,,,,0.020278834,-0.392268695,0,0,0,,0,125,125,73,1,,
,,,,,,,,,,,,,,,,,,56c9e4d9b30699000bd974a5,2020-11-27_15h06.18.819,lexical_decision_task_MP_exp2,2020.2.5,Win32,60,,m,1,0.679555,,,,,,,,0.679555,1,,,,,,4,WORD,"ID",33,trench,TRENCH,m,,,,,,0.020278834,-0.392268695,0,0,0,,0,126,126,3,1,,
,,,,,,,,,,,,,,,,,,56c9e4d9b30699000bd974a5,2020-11-27_15h06.18.819,lexical_decision_task_MP_exp2,2020.2.5,Win32,60,,z,1,0.763785,,,,,,,,0.763785,1,,,,,,479,NW,UN,16,josted,LOBUSH,z,,,,,,0.020278834,-0.392268695,0,0,0,,0,127,127,478,1,,
,,,,,,,,,,,,,,,,,,56c9e4d9b30699000bd974a5,2020-11-27_15h06.18.819,lexical_decision_task_MP_exp2,2020.2.5,Win32,60,,m,1,0.705935,,,,,,,,0.705935,1,,,,,,175,WORD,UN,33,strife,FABRIC,m,,,,,,0.020278834,-0.392268695,0,0,0,,0,128,128,174,1,,
,,,,,,,,,,,,,,,,,,56c9e4d9b30699000bd974a5,2020-11-27_15h06.18.819,lexical_decision_task_MP_exp2,2020.2.5,Win32,60,,m,1,0.697975,,,,,,,,0.697975,1,,,,,,227,WORD,UN,16,master,SELDOM,m,,,,,,0.020278834,-0.392268695,0,0,0,,0,129,129,226,1,,
,,,,,,,,,,,,,,,,,,56c9e4d9b30699000bd974a5,2020-11-27_15h06.18.819,lexical_decision_task_MP_exp2,2020.2.5,Win32,60,,z,1,0.798375,,,,,,,,0.798375,1,,,,,,245,NW,"ID",33,anougs,ANOUGS,z,,,,,,0.020278834,-0.392268695,0,0,0,,0,130,130,244,1,,
,,,,,,,,,,,,,,,,,,56c9e4d9b30699000bd974a5,2020-11-27_15h06.18.819,lexical_decision_task_MP_exp2,2020.2.5,Win32,60,,m,1,0.61473,,,,,,,,0.61473,1,,,,,,189,WORD,UN,16,backup,CENSOR,m,,,,,,0.020278834,-0.392268695,0,0,0,,0,131,131,188,1,,
,,,,,,,,,,,,,,,,,,56c9e4d9b30699000bd974a5,2020-11-27_15h06.18.819,lexical_decision_task_MP_exp2,2020.2.5,Win32,60,,z,1,0.73204,,,,,,,,0.73204,1,,,,,,442,NW,UN,16,dorsex,ABOUNE,z,,,,,,0.020278834,-0.392268695,0,0,0,,0,132,132,441,1,,
,,,,,,,,,,,,,,,,,,56c9e4d9b30699000bd974a5,2020-11-27_15h06.18.819,lexical_decision_task_MP_exp2,2020.2.5,Win32,60,,m,1,0.75718,,,,,,,,0.75718,1,,,,,,22,WORD,"ID",33,jockey,JOCKEY,m,,,,,,0.020278834,-0.392268695,0,0,0,,0,133,133,21,1,,
,,,,,,,,,,,,,,,,,,56c9e4d9b30699000bd974a5,2020-11-27_15h06.18.819,lexical_decision_task_MP_exp2,2020.2.5,Win32,60,,m,1,1.05403,,,,,,,,1.05403,1,,,,,,238,WORD,UN,16,grumpy,FLOWER,m,,,,,,0.020278834,-0.392268695,0,0,0,,0,134,134,237,1,,
,,,,,,,,,,,,,,,,,,56c9e4d9b30699000bd974a5,2020-11-27_15h06.18.819,lexical_decision_task_MP_exp2,2020.2.5,Win32,60,,m,1,0.502395,,,,,,,,0.502395,1,,,,,,158,WORD,UN,33,detail,ISLAND,m,,,,,,0.020278834,-0.392268695,0,0,0,,0,135,135,157,1,,
,,,,,,,,,,,,,,,,,,56c9e4d9b30699000bd974a5,2020-11-27_15h06.18.819,lexical_decision_task_MP_exp2,2020.2.5,Win32,60,,z,1,0.668475,,,,,,,,0.668475,1,,,,,,480,NW,UN,16,knisma,ROBULY,z,,,,,,0.020278834,-0.392268695,0,0,0,,0,136,136,479,1,,
,,,,,,,,,,,,,,,,,,56c9e4d9b30699000bd974a5,2020-11-27_15h06.18.819,lexical_decision_task_MP_exp2,2020.2.5,Win32,60,,m,1,0.664655,,,,,,,,0.664655,1,,,,,,131,WORD,UN,33,strong,QUENCH,m,,,,,,0.020278834,-0.392268695,0,0,0,,0,137,137,130,1,,
,,,,,,,,,,,,,,,,,,56c9e4d9b30699000bd974a5,2020-11-27_15h06.18.819,lexical_decision_task_MP_exp2,2020.2.5,Win32,60,,m,1,0.53381,,,,,,,,0.53381,1,,,,,,157,WORD,UN,33,island,DRAGON,m,,,,,,0.020278834,-0.392268695,0,0,0,,0,138,138,156,1,,
,,,,,,,,,,,,,,,,,,56c9e4d9b30699000bd974a5,2020-11-27_15h06.18.819,lexical_decision_task_MP_exp2,2020.2.5,Win32,60,,z,1,0.6398,,,,,,,,0.6398,1,,,,,,384,NW,UN,33,veigma,GUESCO,z,,,,,,0.020278834,-0.392268695,0,0,0,,0,139,139,383,1,,
,,,,,,,,,,,,,,,,,,56c9e4d9b30699000bd974a5,2020-11-27_15h06.18.819,lexical_decision_task_MP_exp2,2020.2.5,Win32,60,,m,1,0.581245,,,,,,,,0.581245,1,,,,,,80,WORD,"ID",16,family,FAMILY,m,,,,,,0.020278834,-0.392268695,0,0,0,,0,140,140,79,1,,
,,,,,,,,,,,,,,,,,,56c9e4d9b30699000bd974a5,2020-11-27_15h06.18.819,lexical_decision_task_MP_exp2,2020.2.5,Win32,60,,m,1,0.701165,,,,,,,,0.701165,1,,,,,,78,WORD,"ID",16,column,COLUMN,m,,,,,,0.020278834,-0.392268695,0,0,0,,0,141,141,77,1,,
,,,,,,,,,,,,,,,,,,56c9e4d9b30699000bd974a5,2020-11-27_15h06.18.819,lexical_decision_task_MP_exp2,2020.2.5,Win32,60,,z,1,0.63145,,,,,,,,0.63145,1,,,,,,259,NW,"ID",33,soudal,SOUDAL,z,,,,,,0.020278834,-0.392268695,0,0,0,,0,142,142,258,1,,
,,,,,,,,,,,,,,,,,,56c9e4d9b30699000bd974a5,2020-11-27_15h06.18.819,lexical_decision_task_MP_exp2,2020.2.5,Win32,60,,m,1,0.64661,,,,,,,,0.64661,1,,,,,,29,WORD,"ID",33,sketch,SKETCH,m,,,,,,0.020278834,-0.392268695,0,0,0,,0,143,143,28,1,,
,,,,,,,,,,,,,,,,,,56c9e4d9b30699000bd974a5,2020-11-27_15h06.18.819,lexical_decision_task_MP_exp2,2020.2.5,Win32,60,,z,1,0.674775,,,,,,,,0.674775,1,,,,,,274,NW,"ID",33,fumblo,FUMBLO,z,,,,,,0.020278834,-0.392268695,0,0,0,,0,144,144,273,1,,
,,,,,,,,,,,,,,,,,,56c9e4d9b30699000bd974a5,2020-11-27_15h06.18.819,lexical_decision_task_MP_exp2,2020.2.5,Win32,60,,z,1,0.601445,,,,,,,,0.601445,1,,,,,,429,NW,UN,16,caroey,FUNTLE,z,,,,,,0.020278834,-0.392268695,0,0,0,,0,145,145,428,1,,
,,,,,,,,,,,,,,,,,,56c9e4d9b30699000bd974a5,2020-11-27_15h06.18.819,lexical_decision_task_MP_exp2,2020.2.5,Win32,60,,m,1,0.66802,,,,,,,,0.66802,1,,,,,,213,WORD,UN,16,intake,SQUEAL,m,,,,,,0.020278834,-0.392268695,0,0,0,,0,146,146,212,1,,
,,,,,,,,,,,,,,,,,,56c9e4d9b30699000bd974a5,2020-11-27_15h06.18.819,lexical_decision_task_MP_exp2,2020.2.5,Win32,60,,z,1,0.76694,,,,,,,,0.76694,1,,,,,,323,NW,"ID",16,rosail,ROSAIL,z,,,,,,0.020278834,-0.392268695,0,0,0,,0,147,147,322,1,,
,,,,,,,,,,,,,,,,,,56c9e4d9b30699000bd974a5,2020-11-27_15h06.18.819,lexical_decision_task_MP_exp2,2020.2.5,Win32,60,,z,1,0.8652,,,,,,,,0.8652,1,,,,,,403,NW,UN,33,cluirm,BRUATS,z,,,,,,0.020278834,-0.392268695,0,0,0,,0,148,148,402,1,,
,,,,,,,,,,,,,,,,,,56c9e4d9b30699000bd974a5,2020-11-27_15h06.18.819,lexical_decision_task_MP_exp2,2020.2.5,Win32,60,,m,1,0.64698,,,,,,,,0.64698,1,,,,,,37,WORD,"ID",33,insult,INSULT,m,,,,,,0.020278834,-0.392268695,0,0,0,,0,149,149,36,1,,
,,,,,,,,,,,,,,,,,,56c9e4d9b30699000bd974a5,2020-11-27_15h06.18.819,lexical_decision_task_MP_exp2,2020.2.5,Win32,60,,z,1,0.63231,,,,,,,,0.63231,1,,,,,,401,NW,UN,33,elopia,MUSTIL,z,,,,,,0.020278834,-0.392268695,0,0,0,,0,150,150,400,1,,
,,,,,,,,,,,,,,,,,,56c9e4d9b30699000bd974a5,2020-11-27_15h06.18.819,lexical_decision_task_MP_exp2,2020.2.5,Win32,60,,z,1,0.50431,,,,,,,,0.50431,1,,,,,,267,NW,"ID",33,pasink,PASINK,z,,,,,,0.020278834,-0.392268695,0,0,0,,0,151,151,266,1,,
,,,,,,,,,,,,,,,,,,56c9e4d9b30699000bd974a5,2020-11-27_15h06.18.819,lexical_decision_task_MP_exp2,2020.2.5,Win32,60,,z,1,0.532425,,,,,,,,0.532425,1,,,,,,252,NW,"ID",33,stapod,STAPOD,z,,,,,,0.020278834,-0.392268695,0,0,0,,0,152,152,251,1,,
,,,,,,,,,,,,,,,,,,56c9e4d9b30699000bd974a5,2020-11-27_15h06.18.819,lexical_decision_task_MP_exp2,2020.2.5,Win32,60,,m,1,0.524805,,,,,,,,0.524805,1,,,,,,5,WORD,"ID",33,plunge,PLUNGE,m,,,,,,0.020278834,-0.392268695,0,0,0,,0,153,153,4,1,,
,,,,,,,,,,,,,,,,,,56c9e4d9b30699000bd974a5,2020-11-27_15h06.18.819,lexical_decision_task_MP_exp2,2020.2.5,Win32,60,,m,1,0.60209,,,,,,,,0.60209,1,,,,,,119,WORD,"ID",16,spider,SPIDER,m,,,,,,0.020278834,-0.392268695,0,0,0,,0,154,154,118,1,,
,,,,,,,,,,,,,,,,,,56c9e4d9b30699000bd974a5,2020-11-27_15h06.18.819,lexical_decision_task_MP_exp2,2020.2.5,Win32,60,,m,1,0.639935,,,,,,,,0.639935,1,,,,,,110,WORD,"ID",16,polite,POLITE,m,,,,,,0.020278834,-0.392268695,0,0,0,,0,155,155,109,1,,
,,,,,,,,,,,,,,,,,,56c9e4d9b30699000bd974a5,2020-11-27_15h06.18.819,lexical_decision_task_MP_exp2,2020.2.5,Win32,60,,z,1,0.614995,,,,,,,,0.614995,1,,,,,,419,NW,UN,33,gushop,SLOUNT,z,,,,,,0.020278834,-0.392268695,0,0,0,,0,156,156,418,1,,
,,,,,,,,,,,,,,,,,,56c9e4d9b30699000bd974a5,2020-11-27_15h06.18.819,lexical_decision_task_MP_exp2,2020.2.5,Win32,60,,z,1,0.69843,,,,,,,,0.69843,1,,,,,,352,NW,"ID",16,tringe,TRINGE,z,,,,,,0.020278834,-0.392268695,0,0,0,,0,157,157,351,1,,
,,,,,,,,,,,,,,,,,,56c9e4d9b30699000bd974a5,2020-11-27_15h06.18.819,lexical_decision_task_MP_exp2,2020.2.5,Win32,60,,m,1,0.63547,,,,,,,,0.63547,1,,,,,,198,WORD,UN,16,invoke,WICKED,m,,,,,,0.020278834,-0.392268695,0,0,0,,0,158,158,197,1,,
,,,,,,,,,,,,,,,,,,56c9e4d9b30699000bd974a5,2020-11-27_15h06.18.819,lexical_decision_task_MP_exp2,2020.2.5,Win32,60,,m,1,0.682875,,,,,,,,0.682875,1,,,,,,167,WORD,UN,33,answer,DESIGN,m,,,,,,0.020278834,-0.392268695,0,0,0,,0,159,159,166,1,,
,,,,,,,,,,,,,,,,,,56c9e4d9b30699000bd974a5,2020-11-27_15h06.18.819,lexical_decision_task_MP_exp2,2020.2.5,Win32,60,,m,1,0.614625,,,,,,,,0.614625,1,,,,,,65,WORD,"ID",16,symbol,SYMBOL,m,,,,,,0.020278834,-0.392268695,0,0,0,,0,160,160,64,1,,
,,,,,,,,,,,,,,,,,,56c9e4d9b30699000bd974a5,2020-11-27_15h06.18.819,lexical_decision_task_MP_exp2,2020.2.5,Win32,60,,z,1,0.68125,,,,,,,,0.68125,1,,,,,,462,NW,UN,16,kispel,ABSULT,z,,,,,,0.020278834,-0.392268695,0,0,0,,0,161,161,461,1,,
,,,,,,,,,,,,,,,,,,56c9e4d9b30699000bd974a5,2020-11-27_15h06.18.819,lexical_decision_task_MP_exp2,2020.2.5,Win32,60,,z,1,0.98811,,,,,,,,0.98811,1,,,,,,303,NW,"ID",16,fiream,FIREAM,z,,,,,,0.020278834,-0.392268695,0,0,0,,0,162,162,302,1,,
,,,,,,,,,,,,,,,,,,56c9e4d9b30699000bd974a5,2020-11-27_15h06.18.819,lexical_decision_task_MP_exp2,2020.2.5,Win32,60,,m,1,0.74778,,,,,,,,0.74778,1,,,,,,216,WORD,UN,16,liquor,BEHALF,m,,,,,,0.020278834,-0.392268695,0,0,0,,0,163,163,215,1,,
,,,,,,,,,,,,,,,,,,56c9e4d9b30699000bd974a5,2020-11-27_15h06.18.819,lexical_decision_task_MP_exp2,2020.2.5,Win32,60,,z,1,0.65112,,,,,,,,0.65112,1,,,,,,279,NW,"ID",33,celond,CELOND,z,,,,,,0.020278834,-0.392268695,0,0,0,,0,164,164,278,1,,
,,,,,,,,,,,,,,,,,,56c9e4d9b30699000bd974a5,2020-11-27_15h06.18.819,lexical_decision_task_MP_exp2,2020.2.5,Win32,60,,m,1,0.60517,,,,,,,,0.60517,1,,,,,,188,WORD,UN,16,censor,SOCIAL,m,,,,,,0.020278834,-0.392268695,0,0,0,,0,165,165,187,1,,
,,,,,,,,,,,,,,,,,,56c9e4d9b30699000bd974a5,2020-11-27_15h06.18.819,lexical_decision_task_MP_exp2,2020.2.5,Win32,60,,z,1,0.614865,,,,,,,,0.614865,1,,,,,,477,NW,UN,16,acrise,PHOTIE,z,,,,,,0.020278834,-0.392268695,0,0,0,,0,166,166,476,1,,
,,,,,,,,,,,,,,,,,,56c9e4d9b30699000bd974a5,2020-11-27_15h06.18.819,lexical_decision_task_MP_exp2,2020.2.5,Win32,60,,z,1,0.688035,,,,,,,,0.688035,1,,,,,,332,NW,"ID",16,vangue,VANGUE,z,,,,,,0.020278834,-0.392268695,0,0,0,,0,167,167,331,1,,
,,,,,,,,,,,,,,,,,,56c9e4d9b30699000bd974a5,2020-11-27_15h06.18.819,lexical_decision_task_MP_exp2,2020.2.5,Win32,60,,z,1,1.1459,,,,,,,,1.1459,1,,,,,,304,NW,"ID",16,cludie,CLUDIE,z,,,,,,0.020278834,-0.392268695,0,0,0,,0,168,168,303,1,,
,,,,,,,,,,,,,,,,,,56c9e4d9b30699000bd974a5,2020-11-27_15h06.18.819,lexical_decision_task_MP_exp2,2020.2.5,Win32,60,,z,1,0.649145,,,,,,,,0.649145,1,,,,,,362,NW,UN,33,breali,TIREAU,z,,,,,,0.020278834,-0.392268695,0,0,0,,0,169,169,361,1,,
,,,,,,,,,,,,,,,,,,56c9e4d9b30699000bd974a5,2020-11-27_15h06.18.819,lexical_decision_task_MP_exp2,2020.2.5,Win32,60,,m,1,0.615555,,,,,,,,0.615555,1,,,,,,150,WORD,UN,33,mystic,RANDOM,m,,,,,,0.020278834,-0.392268695,0,0,0,,0,170,170,149,1,,
,,,,,,,,,,,,,,,,,,56c9e4d9b30699000bd974a5,2020-11-27_15h06.18.819,lexical_decision_task_MP_exp2,2020.2.5,Win32,60,,m,1,0.533995,,,,,,,,0.533995,1,,,,,,31,WORD,"ID",33,weapon,WEAPON,m,,,,,,0.020278834,-0.392268695,0,0,0,,0,171,171,30,1,,
,,,,,,,,,,,,,,,,,,56c9e4d9b30699000bd974a5,2020-11-27_15h06.18.819,lexical_decision_task_MP_exp2,2020.2.5,Win32,60,,z,1,1.831135,,,,,,,,1.831135,1,,,,,,347,NW,"ID",16,kerift,KERIFT,z,,,,,,0.020278834,-0.392268695,0,0,0,,0,172,172,346,1,,
,,,,,,,,,,,,,,,,,,56c9e4d9b30699000bd974a5,2020-11-27_15h06.18.819,lexical_decision_task_MP_exp2,2020.2.5,Win32,60,,z,1,0.93429,,,,,,,,0.93429,1,,,,,,414,NW,UN,33,higsta,SERBOL,z,,,,,,0.020278834,-0.392268695,0,0,0,,0,173,173,413,1,,
,,,,,,,,,,,,,,,,,,56c9e4d9b30699000bd974a5,2020-11-27_15h06.18.819,lexical_decision_task_MP_exp2,2020.2.5,Win32,60,,z,1,1.09935,,,,,,,,1.09935,1,,,,,,405,NW,UN,33,nouply,FLUMNI,z,,,,,,0.020278834,-0.392268695,0,0,0,,0,174,174,404,1,,
,,,,,,,,,,,,,,,,,,56c9e4d9b30699000bd974a5,2020-11-27_15h06.18.819,lexical_decision_task_MP_exp2,2020.2.5,Win32,60,,z,1,0.54228,,,,,,,,0.54228,1,,,,,,394,NW,UN,33,colury,SPAQUX,z,,,,,,0.020278834,-0.392268695,0,0,0,,0,175,175,393,1,,
,,,,,,,,,,,,,,,,,,56c9e4d9b30699000bd974a5,2020-11-27_15h06.18.819,lexical_decision_task_MP_exp2,2020.2.5,Win32,60,,z,1,0.59898,,,,,,,,0.59898,1,,,,,,397,NW,UN,33,blunde,CAMBLE,z,,,,,,0.020278834,-0.392268695,0,0,0,,0,176,176,396,1,,
,,,,,,,,,,,,,,,,,,56c9e4d9b30699000bd974a5,2020-11-27_15h06.18.819,lexical_decision_task_MP_exp2,2020.2.5,Win32,60,,z,1,0.5159,,,,,,,,0.5159,1,,,,,,292,NW,"ID",33,ablint,ABLINT,z,,,,,,0.020278834,-0.392268695,0,0,0,,0,177,177,291,1,,
,,,,,,,,,,,,,,,,,,56c9e4d9b30699000bd974a5,2020-11-27_15h06.18.819,lexical_decision_task_MP_exp2,2020.2.5,Win32,60,,z,1,0.632595,,,,,,,,0.632595,1,,,,,,294,NW,"ID",33,inhort,INHORT,z,,,,,,0.020278834,-0.392268695,0,0,0,,0,178,178,293,1,,
,,,,,,,,,,,,,,,,,,56c9e4d9b30699000bd974a5,2020-11-27_15h06.18.819,lexical_decision_task_MP_exp2,2020.2.5,Win32,60,,m,1,0.49713,,,,,,,,0.49713,1,,,,,,168,WORD,UN,33,genius,ANSWER,m,,,,,,0.020278834,-0.392268695,0,0,0,,0,179,179,167,1,,
,,,,,,,,,,,,,,,,,,56c9e4d9b30699000bd974a5,2020-11-27_15h06.18.819,lexical_decision_task_MP_exp2,2020.2.5,Win32,60,,z,1,0.697855,,,,,,,,0.697855,1,,,,,,457,NW,UN,16,barcet,WANIGH,z,,,,,,0.020278834,-0.392268695,0,0,0,,0,180,180,456,1,,
,,,,,,,,,,,,,,,,,,56c9e4d9b30699000bd974a5,2020-11-27_15h06.18.819,lexical_decision_task_MP_exp2,2020.2.5,Win32,60,,z,1,0.672345,,,,,,,,0.672345,1,,,,,,366,NW,UN,33,slique,TOSHEL,z,,,,,,0.020278834,-0.392268695,0,0,0,,0,181,181,365,1,,
,,,,,,,,,,,,,,,,,,56c9e4d9b30699000bd974a5,2020-11-27_15h06.18.819,lexical_decision_task_MP_exp2,2020.2.5,Win32,60,,z,1,0.616585,,,,,,,,0.616585,1,,,,,,356,NW,"ID",16,othnis,OTHNIS,z,,,,,,0.020278834,-0.392268695,0,0,0,,0,182,182,355,1,,
,,,,,,,,,,,,,,,,,,56c9e4d9b30699000bd974a5,2020-11-27_15h06.18.819,lexical_decision_task_MP_exp2,2020.2.5,Win32,60,,m,1,0.66556,,,,,,,,0.66556,1,,,,,,117,WORD,"ID",16,branch,BRANCH,m,,,,,,0.020278834,-0.392268695,0,0,0,,0,183,183,116,1,,
,,,,,,,,,,,,,,,,,,56c9e4d9b30699000bd974a5,2020-11-27_15h06.18.819,lexical_decision_task_MP_exp2,2020.2.5,Win32,60,,z,1,0.732015,,,,,,,,0.732015,1,,,,,,450,NW,UN,16,rastoe,PHRECT,z,,,,,,0.020278834,-0.392268695,0,0,0,,0,184,184,449,1,,
,,,,,,,,,,,,,,,,,,56c9e4d9b30699000bd974a5,2020-11-27_15h06.18.819,lexical_decision_task_MP_exp2,2020.2.5,Win32,60,,m,1,0.765855,,,,,,,,0.765855,1,,,,,,212,WORD,UN,16,squeal,VERIFY,m,,,,,,0.020278834,-0.392268695,0,0,0,,0,185,185,211,1,,
,,,,,,,,,,,,,,,,,,56c9e4d9b30699000bd974a5,2020-11-27_15h06.18.819,lexical_decision_task_MP_exp2,2020.2.5,Win32,60,,z,1,0.63602,,,,,,,,0.63602,1,,,,,,281,NW,"ID",33,melaty,MELATY,z,,,,,,0.020278834,-0.392268695,0,0,0,,0,186,186,280,1,,
,,,,,,,,,,,,,,,,,,56c9e4d9b30699000bd974a5,2020-11-27_15h06.18.819,lexical_decision_task_MP_exp2,2020.2.5,Win32,60,,z,1,0.898645,,,,,,,,0.898645,1,,,,,,410,NW,UN,33,orchin,TUNORY,z,,,,,,0.020278834,-0.392268695,0,0,0,,0,187,187,409,1,,
,,,,,,,,,,,,,,,,,,56c9e4d9b30699000bd974a5,2020-11-27_15h06.18.819,lexical_decision_task_MP_exp2,2020.2.5,Win32,60,,m,1,0.7656,,,,,,,,0.7656,1,,,,,,228,WORD,UN,16,inject,MASTER,m,,,,,,0.020278834,-0.392268695,0,0,0,,0,188,188,227,1,,
,,,,,,,,,,,,,,,,,,56c9e4d9b30699000bd974a5,2020-11-27_15h06.18.819,lexical_decision_task_MP_exp2,2020.2.5,Win32,60,,z,1,0.93194,,,,,,,,0.93194,1,,,,,,409,NW,UN,33,tunory,ELOPIA,z,,,,,,0.020278834,-0.392268695,0,0,0,,0,189,189,408,1,,
,,,,,,,,,,,,,,,,,,56c9e4d9b30699000bd974a5,2020-11-27_15h06.18.819,lexical_decision_task_MP_exp2,2020.2.5,Win32,60,,z,1,1.0319,,,,,,,,1.0319,1,,,,,,454,NW,UN,16,tondle,SCOUGE,z,,,,,,0.020278834,-0.392268695,0,0,0,,0,190,190,453,1,,
,,,,,,,,,,,,,,,,,,56c9e4d9b30699000bd974a5,2020-11-27_15h06.18.819,lexical_decision_task_MP_exp2,2020.2.5,Win32,60,,z,1,0.617715,,,,,,,,0.617715,1,,,,,,412,NW,UN,33,equats,JILUER,z,,,,,,0.020278834,-0.392268695,0,0,0,,0,191,191,411,1,,
,,,,,,,,,,,,,,,,,,56c9e4d9b30699000bd974a5,2020-11-27_15h06.18.819,lexical_decision_task_MP_exp2,2020.2.5,Win32,60,,z,1,0.731605,,,,,,,,0.731605,1,,,,,,319,NW,"ID",16,zomber,ZOMBER,z,,,,,,0.020278834,-0.392268695,0,0,0,,0,192,192,318,1,,
,,,,,,,,,,,,,,,,,,56c9e4d9b30699000bd974a5,2020-11-27_15h06.18.819,lexical_decision_task_MP_exp2,2020.2.5,Win32,60,,m,1,0.581075,,,,,,,,0.581075,1,,,,,,106,WORD,"ID",16,ransom,RANSOM,m,,,,,,0.020278834,-0.392268695,0,0,0,,0,193,193,105,1,,
,,,,,,,,,,,,,,,,,,56c9e4d9b30699000bd974a5,2020-11-27_15h06.18.819,lexical_decision_task_MP_exp2,2020.2.5,Win32,60,,z,1,0.59231,,,,,,,,0.59231,1,,,,,,339,NW,"ID",16,fachow,FACHOW,z,,,,,,0.020278834,-0.392268695,0,0,0,,0,194,194,338,1,,
,,,,,,,,,,,,,,,,,,56c9e4d9b30699000bd974a5,2020-11-27_15h06.18.819,lexical_decision_task_MP_exp2,2020.2.5,Win32,60,,m,1,0.632595,,,,,,,,0.632595,1,,,,,,220,WORD,UN,16,mascot,VOYAGE,m,,,,,,0.020278834,-0.392268695,0,0,0,,0,195,195,219,1,,
,,,,,,,,,,,,,,,,,,56c9e4d9b30699000bd974a5,2020-11-27_15h06.18.819,lexical_decision_task_MP_exp2,2020.2.5,Win32,60,,m,1,0.59644,,,,,,,,0.59644,1,,,,,,25,WORD,"ID",33,domain,DOMAIN,m,,,,,,0.020278834,-0.392268695,0,0,0,,0,196,196,24,1,,
,,,,,,,,,,,,,,,,,,56c9e4d9b30699000bd974a5,2020-11-27_15h06.18.819,lexical_decision_task_MP_exp2,2020.2.5,Win32,60,,m,1,0.599165,,,,,,,,0.599165,1,,,,,,33,WORD,"ID",33,butler,BUTLER,m,,,,,,0.020278834,-0.392268695,0,0,0,,0,197,197,32,1,,
,,,,,,,,,,,,,,,,,,56c9e4d9b30699000bd974a5,2020-11-27_15h06.18.819,lexical_decision_task_MP_exp2,2020.2.5,Win32,60,,z,1,0.600505,,,,,,,,0.600505,1,,,,,,263,NW,"ID",33,dolica,DOLICA,z,,,,,,0.020278834,-0.392268695,0,0,0,,0,198,198,262,1,,
,,,,,,,,,,,,,,,,,,56c9e4d9b30699000bd974a5,2020-11-27_15h06.18.819,lexical_decision_task_MP_exp2,2020.2.5,Win32,60,,m,1,0.66407,,,,,,,,0.66407,1,,,,,,66,WORD,"ID",16,gospel,GOSPEL,m,,,,,,0.020278834,-0.392268695,0,0,0,,0,199,199,65,1,,
,,,,,,,,,,,,,,,,,,56c9e4d9b30699000bd974a5,2020-11-27_15h06.18.819,lexical_decision_task_MP_exp2,2020.2.5,Win32,60,,z,1,0.682615,,,,,,,,0.682615,1,,,,,,435,NW,UN,16,frutan,IMPURB,z,,,,,,0.020278834,-0.392268695,0,0,0,,0,200,200,434,1,,
,,,,,,,,,,,,,,,,,,56c9e4d9b30699000bd974a5,2020-11-27_15h06.18.819,lexical_decision_task_MP_exp2,2020.2.5,Win32,60,,m,1,0.498585,,,,,,,,0.498585,1,,,,,,182,WORD,UN,16,basket,WINTER,m,,,,,,0.020278834,-0.392268695,0,0,0,,0,201,201,181,1,,
,,,,,,,,,,,,,,,,,,56c9e4d9b30699000bd974a5,2020-11-27_15h06.18.819,lexical_decision_task_MP_exp2,2020.2.5,Win32,60,,m,1,0.6955,,,,,,,,0.6955,1,,,,,,114,WORD,"ID",16,placid,PLACID,m,,,,,,0.020278834,-0.392268695,0,0,0,,0,202,202,113,1,,
,,,,,,,,,,,,,,,,,,56c9e4d9b30699000bd974a5,2020-11-27_15h06.18.819,lexical_decision_task_MP_exp2,2020.2.5,Win32,60,,m,1,0.532675,,,,,,,,0.532675,1,,,,,,132,WORD,UN,33,bleach,STRONG,m,,,,,,0.020278834,-0.392268695,0,0,0,,0,203,203,131,1,,
,,,,,,,,,,,,,,,,,,56c9e4d9b30699000bd974a5,2020-11-27_15h06.18.819,lexical_decision_task_MP_exp2,2020.2.5,Win32,60,,m,1,0.531415,,,,,,,,0.531415,1,,,,,,236,WORD,UN,16,poster,PIRATE,m,,,,,,0.020278834,-0.392268695,0,0,0,,0,204,204,235,1,,
,,,,,,,,,,,,,,,,,,56c9e4d9b30699000bd974a5,2020-11-27_15h06.18.819,lexical_decision_task_MP_exp2,2020.2.5,Win32,60,,m,1,0.484895,,,,,,,,0.484895,1,,,,,,26,WORD,"ID",33,sprint,SPRINT,m,,,,,,0.020278834,-0.392268695,0,0,0,,0,205,205,25,1,,
,,,,,,,,,,,,,,,,,,56c9e4d9b30699000bd974a5,2020-11-27_15h06.18.819,lexical_decision_task_MP_exp2,2020.2.5,Win32,60,,z,1,0.748665,,,,,,,,0.748665,1,,,,,,293,NW,"ID",33,swance,SWANCE,z,,,,,,0.020278834,-0.392268695,0,0,0,,0,206,206,292,1,,
,,,,,,,,,,,,,,,,,,56c9e4d9b30699000bd974a5,2020-11-27_15h06.18.819,lexical_decision_task_MP_exp2,2020.2.5,Win32,60,,m,1,0.61771,,,,,,,,0.61771,1,,,,,,159,WORD,UN,33,violet,DETAIL,m,,,,,,0.020278834,-0.392268695,0,0,0,,0,207,207,158,1,,
,,,,,,,,,,,,,,,,,,56c9e4d9b30699000bd974a5,2020-11-27_15h06.18.819,lexical_decision_task_MP_exp2,2020.2.5,Win32,60,,z,1,0.548845,,,,,,,,0.548845,1,,,,,,286,NW,"ID",33,reldon,RELDON,z,,,,,,0.020278834,-0.392268695,0,0,0,,0,208,208,285,1,,
,,,,,,,,,,,,,,,,,,56c9e4d9b30699000bd974a5,2020-11-27_15h06.18.819,lexical_decision_task_MP_exp2,2020.2.5,Win32,60,,z,1,0.56604,,,,,,,,0.56604,1,,,,,,288,NW,"ID",33,yaceup,YACEUP,z,,,,,,0.020278834,-0.392268695,0,0,0,,0,209,209,287,1,,
,,,,,,,,,,,,,,,,,,56c9e4d9b30699000bd974a5,2020-11-27_15h06.18.819,lexical_decision_task_MP_exp2,2020.2.5,Win32,60,,z,1,0.540865,,,,,,,,0.540865,1,,,,,,359,NW,"ID",16,fonver,FONVER,z,,,,,,0.020278834,-0.392268695,0,0,0,,0,210,210,358,1,,
,,,,,,,,,,,,,,,,,,56c9e4d9b30699000bd974a5,2020-11-27_15h06.18.819,lexical_decision_task_MP_exp2,2020.2.5,Win32,60,,z,1,0.55476,,,,,,,,0.55476,1,,,,,,308,NW,"ID",16,psetch,PSETCH,z,,,,,,0.020278834,-0.392268695,0,0,0,,0,211,211,307,1,,
,,,,,,,,,,,,,,,,,,56c9e4d9b30699000bd974a5,2020-11-27_15h06.18.819,lexical_decision_task_MP_exp2,2020.2.5,Win32,60,,z,1,0.54114,,,,,,,,0.54114,1,,,,,,262,NW,"ID",33,quilew,QUILEW,z,,,,,,0.020278834,-0.392268695,0,0,0,,0,212,212,261,1,,
,,,,,,,,,,,,,,,,,,56c9e4d9b30699000bd974a5,2020-11-27_15h06.18.819,lexical_decision_task_MP_exp2,2020.2.5,Win32,60,,m,1,0.519005,,,,,,,,0.519005,1,,,,,,144,WORD,UN,33,parish,SPONGE,m,,,,,,0.020278834,-0.392268695,0,0,0,,0,213,213,143,1,,
,,,,,,,,,,,,,,,,,,56c9e4d9b30699000bd974a5,2020-11-27_15h06.18.819,lexical_decision_task_MP_exp2,2020.2.5,Win32,60,,z,1,0.67382,,,,,,,,0.67382,1,,,,,,242,NW,"ID",33,unwert,UNWERT,z,,,,,,0.020278834,-0.392268695,0,0,0,,0,214,214,241,1,,
,,,,,,,,,,,,,,,,,,56c9e4d9b30699000bd974a5,2020-11-27_15h06.18.819,lexical_decision_task_MP_exp2,2020.2.5,Win32,60,,m,1,0.550665,,,,,,,,0.550665,1,,,,,,42,WORD,"ID",33,chapel,CHAPEL,m,,,,,,0.020278834,-0.392268695,0,0,0,,0,215,215,41,1,,
,,,,,,,,,,,,,,,,,,56c9e4d9b30699000bd974a5,2020-11-27_15h06.18.819,lexical_decision_task_MP_exp2,2020.2.5,Win32,60,,z,1,0.657195,,,,,,,,0.657195,1,,,,,,315,NW,"ID",16,laston,LASTON,z,,,,,,0.020278834,-0.392268695,0,0,0,,0,216,216,314,1,,
,,,,,,,,,,,,,,,,,,56c9e4d9b30699000bd974a5,2020-11-27_15h06.18.819,lexical_decision_task_MP_exp2,2020.2.5,Win32,60,,m,1,0.556625,,,,,,,,0.556625,1,,,,,,118,WORD,"ID",16,flight,FLIGHT,m,,,,,,0.020278834,-0.392268695,0,0,0,,0,217,217,117,1,,
,,,,,,,,,,,,,,,,,,56c9e4d9b30699000bd974a5,2020-11-27_15h06.18.819,lexical_decision_task_MP_exp2,2020.2.5,Win32,60,,z,1,0.72383,,,,,,,,0.72383,1,,,,,,351,NW,"ID",16,tiesch,TIESCH,z,,,,,,0.020278834,-0.392268695,0,0,0,,0,218,218,350,1,,
,,,,,,,,,,,,,,,,,,56c9e4d9b30699000bd974a5,2020-11-27_15h06.18.819,lexical_decision_task_MP_exp2,2020.2.5,Win32,60,,m,1,0.551995,,,,,,,,0.551995,1,,,,,,165,WORD,UN,33,starch,INVEST,m,,,,,,0.020278834,-0.392268695,0,0,0,,0,219,219,164,1,,
,,,,,,,,,,,,,,,,,,56c9e4d9b30699000bd974a5,2020-11-27_15h06.18.819,lexical_decision_task_MP_exp2,2020.2.5,Win32,60,,z,1,0.735635,,,,,,,,0.735635,1,,,,,,433,NW,UN,16,pitrom,DRANCE,z,,,,,,0.020278834,-0.392268695,0,0,0,,0,220,220,432,1,,
,,,,,,,,,,,,,,,,,,56c9e4d9b30699000bd974a5,2020-11-27_15h06.18.819,lexical_decision_task_MP_exp2,2020.2.5,Win32,60,,z,1,0.558125,,,,,,,,0.558125,1,,,,,,393,NW,UN,33,spaqux,GANOUS,z,,,,,,0.020278834,-0.392268695,0,0,0,,0,221,221,392,1,,
,,,,,,,,,,,,,,,,,,56c9e4d9b30699000bd974a5,2020-11-27_15h06.18.819,lexical_decision_task_MP_exp2,2020.2.5,Win32,60,,z,1,0.81835,,,,,,,,0.81835,1,,,,,,443,NW,UN,16,jaunce,DORSEX,z,,,,,,0.020278834,-0.392268695,0,0,0,,0,222,222,442,1,,
,,,,,,,,,,,,,,,,,,56c9e4d9b30699000bd974a5,2020-11-27_15h06.18.819,lexical_decision_task_MP_exp2,2020.2.5,Win32,60,,m,1,0.64224,,,,,,,,0.64224,1,,,,,,146,WORD,UN,33,garlic,COUPLE,m,,,,,,0.020278834,-0.392268695,0,0,0,,0,223,223,145,1,,
,,,,,,,,,,,,,,,,,,56c9e4d9b30699000bd974a5,2020-11-27_15h06.18.819,lexical_decision_task_MP_exp2,2020.2.5,Win32,60,,z,1,0.5853,,,,,,,,0.5853,1,,,,,,321,NW,"ID",16,miator,MIATOR,z,,,,,,0.020278834,-0.392268695,0,0,0,,0,224,224,320,1,,
,,,,,,,,,,,,,,,,,,56c9e4d9b30699000bd974a5,2020-11-27_15h06.18.819,lexical_decision_task_MP_exp2,2020.2.5,Win32,60,,m,1,0.633425,,,,,,,,0.633425,1,,,,,,49,WORD,"ID",33,survey,SURVEY,m,,,,,,0.020278834,-0.392268695,0,0,0,,0,225,225,48,1,,
,,,,,,,,,,,,,,,,,,56c9e4d9b30699000bd974a5,2020-11-27_15h06.18.819,lexical_decision_task_MP_exp2,2020.2.5,Win32,60,,m,1,0.650445,,,,,,,,0.650445,1,,,,,,240,WORD,UN,16,glance,FOREST,m,,,,,,0.020278834,-0.392268695,0,0,0,,0,226,226,239,1,,
,,,,,,,,,,,,,,,,,,56c9e4d9b30699000bd974a5,2020-11-27_15h06.18.819,lexical_decision_task_MP_exp2,2020.2.5,Win32,60,,m,1,0.533775,,,,,,,,0.533775,1,,,,,,181,WORD,UN,16,winter,GLANCE,m,,,,,,0.020278834,-0.392268695,0,0,0,,0,227,227,180,1,,
,,,,,,,,,,,,,,,,,,56c9e4d9b30699000bd974a5,2020-11-27_15h06.18.819,lexical_decision_task_MP_exp2,2020.2.5,Win32,60,,m,1,0.55209,,,,,,,,0.55209,1,,,,,,70,WORD,"ID",16,square,SQUARE,m,,,,,,0.020278834,-0.392268695,0,0,0,,0,228,228,69,1,,
,,,,,,,,,,,,,,,,,,56c9e4d9b30699000bd974a5,2020-11-27_15h06.18.819,lexical_decision_task_MP_exp2,2020.2.5,Win32,60,,m,1,0.7216,,,,,,,,0.7216,1,,,,,,115,WORD,"ID",16,guitar,GUITAR,m,,,,,,0.020278834,-0.392268695,0,0,0,,0,229,229,114,1,,
,,,,,,,,,,,,,,,,,,56c9e4d9b30699000bd974a5,2020-11-27_15h06.18.819,lexical_decision_task_MP_exp2,2020.2.5,Win32,60,,m,1,0.552545,,,,,,,,0.552545,1,,,,,,1,WORD,"ID",33,fright,FRIGHT,m,,,,,,0.020278834,-0.392268695,0,0,0,,0,230,230,0,1,,
,,,,,,,,,,,,,,,,,,56c9e4d9b30699000bd974a5,2020-11-27_15h06.18.819,lexical_decision_task_MP_exp2,2020.2.5,Win32,60,,z,1,0.618145,,,,,,,,0.618145,1,,,,,,371,NW,UN,33,ramily,GEILOY,z,,,,,,0.020278834,-0.392268695,0,0,0,,0,231,231,370,1,,
,,,,,,,,,,,,,,,,,,56c9e4d9b30699000bd974a5,2020-11-27_15h06.18.819,lexical_decision_task_MP_exp2,2020.2.5,Win32,60,,m,1,0.550535,,,,,,,,0.550535,1,,,,,,232,WORD,UN,16,nature,INJECT,m,,,,,,0.020278834,-0.392268695,0,0,0,,0,232,232,231,1,,
,,,,,,,,,,,,,,,,,,56c9e4d9b30699000bd974a5,2020-11-27_15h06.18.819,lexical_decision_task_MP_exp2,2020.2.5,Win32,60,,m,1,0.55208,,,,,,,,0.55208,1,,,,,,153,WORD,UN,33,author,BEHOLD,m,,,,,,0.020278834,-0.392268695,0,0,0,,0,233,233,152,1,,
,,,,,,,,,,,,,,,,,,56c9e4d9b30699000bd974a5,2020-11-27_15h06.18.819,lexical_decision_task_MP_exp2,2020.2.5,Win32,60,,z,1,0.71823,,,,,,,,0.71823,1,,,,,,305,NW,"ID",16,forgle,FORGLE,z,,,,,,0.020278834,-0.392268695,0,0,0,,0,234,234,304,1,,
,,,,,,,,,,,,,,,,,,56c9e4d9b30699000bd974a5,2020-11-27_15h06.18.819,lexical_decision_task_MP_exp2,2020.2.5,Win32,60,,z,0,0.503945,,,,,,,,0.503945,0,,,,,,171,WORD,UN,33,patrol,DEPART,m,,,,,,0.020278834,-0.392268695,0,0,0,,0,235,235,170,1,,
,,,,,,,,,,,,,,,,,,56c9e4d9b30699000bd974a5,2020-11-27_15h06.18.819,lexical_decision_task_MP_exp2,2020.2.5,Win32,60,,z,1,1.00876,,,,,,,,1.00876,1,,,,,,266,NW,"ID",33,varmit,VARMIT,z,,,,,,0.020278834,-0.392268695,0,0,0,,0,236,236,265,1,,
,,,,,,,,,,,,,,,,,,56c9e4d9b30699000bd974a5,2020-11-27_15h06.18.819,lexical_decision_task_MP_exp2,2020.2.5,Win32,60,,m,1,0.650545,,,,,,,,0.650545,1,,,,,,223,WORD,UN,16,period,KIDNEY,m,,,,,,0.020278834,-0.392268695,0,0,0,,0,237,237,222,1,,
,,,,,,,,,,,,,,,,,,56c9e4d9b30699000bd974a5,2020-11-27_15h06.18.819,lexical_decision_task_MP_exp2,2020.2.5,Win32,60,,z,1,0.740045,,,,,,,,0.740045,1,,,,,,464,NW,UN,16,whivex,CHAITE,z,,,,,,0.020278834,-0.392268695,0,0,0,,0,238,238,463,1,,
,,,,,,,,,,,,,,,,,,56c9e4d9b30699000bd974a5,2020-11-27_15h06.18.819,lexical_decision_task_MP_exp2,2020.2.5,Win32,60,,z,1,0.550145,,,,,,,,0.550145,1,,,,,,390,NW,UN,33,theldy,HATRUS,z,,,,,,0.020278834,-0.392268695,0,0,0,,0,239,239,389,1,,
,,,,,,,,,,,,,,,,,,56c9e4d9b30699000bd974a5,2020-11-27_15h06.18.819,lexical_decision_task_MP_exp2,2020.2.5,Win32,60,,z,1,0.50184,,,,,,,,0.50184,1,,,,,,261,NW,"ID",33,stunch,STUNCH,z,,,,,,0.020278834,-0.392268695,0,0,0,,0,240,240,260,1,,
,,,,,,,,,,,,,,,,,,56c9e4d9b30699000bd974a5,2020-11-27_15h06.18.819,lexical_decision_task_MP_exp2,2020.2.5,Win32,60,,z,1,0.476375,,,,,,,,0.476375,1,,,,,,355,NW,"ID",16,zingly,ZINGLY,z,,,,,,-0.088719899,-0.397338403,1,0,0,,0,241,241,354,1,break_done_button,
,,,,,,,,,,,,,,,,,,56c9e4d9b30699000bd974a5,2020-11-27_15h06.18.819,lexical_decision_task_MP_exp2,2020.2.5,Win32,60,,z,1,1.659395,,,,,,,,1.659395,1,,,,,,420,NW,UN,33,pauche,GUSHOP,z,,,,,,0.641318124,0.095690748,0,0,0,,0,242,242,419,1,,
,,,,,,,,,,,,,,,,,,56c9e4d9b30699000bd974a5,2020-11-27_15h06.18.819,lexical_decision_task_MP_exp2,2020.2.5,Win32,60,,z,1,0.7528,,,,,,,,0.7528,1,,,,,,283,NW,"ID",33,veralf,VERALF,z,,,,,,0.641318124,0.095690748,0,0,0,,0,243,243,282,1,,
,,,,,,,,,,,,,,,,,,56c9e4d9b30699000bd974a5,2020-11-27_15h06.18.819,lexical_decision_task_MP_exp2,2020.2.5,Win32,60,,m,1,1.226315,,,,,,,,1.226315,1,,,,,,194,WORD,UN,16,resign,ABSENT,m,,,,,,0.641318124,0.095690748,0,0,0,,0,244,244,193,1,,
,,,,,,,,,,,,,,,,,,56c9e4d9b30699000bd974a5,2020-11-27_15h06.18.819,lexical_decision_task_MP_exp2,2020.2.5,Win32,60,,z,1,0.73735,,,,,,,,0.73735,1,,,,,,296,NW,"ID",33,beinch,BEINCH,z,,,,,,0.641318124,0.095690748,0,0,0,,0,245,245,295,1,,
,,,,,,,,,,,,,,,,,,56c9e4d9b30699000bd974a5,2020-11-27_15h06.18.819,lexical_decision_task_MP_exp2,2020.2.5,Win32,60,,m,1,0.798235,,,,,,,,0.798235,1,,,,,,183,WORD,UN,16,sleazy,MILDEW,m,,,,,,0.641318124,0.095690748,0,0,0,,0,246,246,182,1,,
,,,,,,,,,,,,,,,,,,56c9e4d9b30699000bd974a5,2020-11-27_15h06.18.819,lexical_decision_task_MP_exp2,2020.2.5,Win32,60,,m,1,0.649655,,,,,,,,0.649655,1,,,,,,224,WORD,UN,16,vulgar,PERIOD,m,,,,,,0.641318124,0.095690748,0,0,0,,0,247,247,223,1,,
,,,,,,,,,,,,,,,,,,56c9e4d9b30699000bd974a5,2020-11-27_15h06.18.819,lexical_decision_task_MP_exp2,2020.2.5,Win32,60,,z,1,1.66472,,,,,,,,1.66472,1,,,,,,330,NW,"ID",16,kensom,KENSOM,z,,,,,,0.641318124,0.095690748,0,0,0,,0,248,248,329,1,,
,,,,,,,,,,,,,,,,,,56c9e4d9b30699000bd974a5,2020-11-27_15h06.18.819,lexical_decision_task_MP_exp2,2020.2.5,Win32,60,,,0,,,,,,,,,1.66472,-1,,,,,,463,NW,UN,16,bafent,KISPEL,z,,,,,,0.641318124,0.095690748,0,0,0,,0,249,249,462,1,,
,,,,,,,,,,,,,,,,,,56c9e4d9b30699000bd974a5,2020-11-27_15h06.18.819,lexical_decision_task_MP_exp2,2020.2.5,Win32,60,,m,1,0.821145,,,,,,,,0.821145,1,,,,,,233,WORD,UN,16,clumsy,NATURE,m,,,,,,0.641318124,0.095690748,0,0,0,,0,250,250,232,1,,
,,,,,,,,,,,,,,,,,,56c9e4d9b30699000bd974a5,2020-11-27_15h06.18.819,lexical_decision_task_MP_exp2,2020.2.5,Win32,60,,z,1,1.00289,,,,,,,,1.00289,1,,,,,,337,NW,"ID",16,rejols,REJOLS,z,,,,,,0.641318124,0.095690748,0,0,0,,0,251,251,336,1,,
,,,,,,,,,,,,,,,,,,56c9e4d9b30699000bd974a5,2020-11-27_15h06.18.819,lexical_decision_task_MP_exp2,2020.2.5,Win32,60,,,0,,,,,,,,,1.00289,-1,,,,,,61,WORD,"ID",16,ponder,PONDER,m,,,,,,0.641318124,0.095690748,0,0,0,,0,252,252,60,1,,
,,,,,,,,,,,,,,,,,,56c9e4d9b30699000bd974a5,2020-11-27_15h06.18.819,lexical_decision_task_MP_exp2,2020.2.5,Win32,60,,z,1,0.63305,,,,,,,,0.63305,1,,,,,,460,NW,UN,16,justre,MINGAR,z,,,,,,0.641318124,0.095690748,0,0,0,,0,253,253,459,1,,
,,,,,,,,,,,,,,,,,,56c9e4d9b30699000bd974a5,2020-11-27_15h06.18.819,lexical_decision_task_MP_exp2,2020.2.5,Win32,60,,m,1,1.233895,,,,,,,,1.233895,1,,,,,,163,WORD,UN,33,market,STRING,m,,,,,,0.641318124,0.095690748,0,0,0,,0,254,254,162,1,,
,,,,,,,,,,,,,,,,,,56c9e4d9b30699000bd974a5,2020-11-27_15h06.18.819,lexical_decision_task_MP_exp2,2020.2.5,Win32,60,,m,1,0.70832,,,,,,,,0.70832,1,,,,,,87,WORD,"ID",16,filter,FILTER,m,,,,,,0.641318124,0.095690748,0,0,0,,0,255,255,86,1,,
,,,,,,,,,,,,,,,,,,56c9e4d9b30699000bd974a5,2020-11-27_15h06.18.819,lexical_decision_task_MP_exp2,2020.2.5,Win32,60,,m,1,1.013195,,,,,,,,1.013195,1,,,,,,111,WORD,"ID",16,induce,INDUCE,m,,,,,,0.641318124,0.095690748,0,0,0,,0,256,256,110,1,,
,,,,,,,,,,,,,,,,,,56c9e4d9b30699000bd974a5,2020-11-27_15h06.18.819,lexical_decision_task_MP_exp2,2020.2.5,Win32,60,,m,1,0.75141,,,,,,,,0.75141,1,,,,,,191,WORD,UN,16,absent,STABLE,m,,,,,,0.641318124,0.095690748,0,0,0,,0,257,257,190,1,,
,,,,,,,,,,,,,,,,,,56c9e4d9b30699000bd974a5,2020-11-27_15h06.18.819,lexical_decision_task_MP_exp2,2020.2.5,Win32,60,,m,1,0.76589,,,,,,,,0.76589,1,,,,,,134,WORD,UN,33,import,STAPLE,m,,,,,,0.641318124,0.095690748,0,0,0,,0,258,258,133,1,,
,,,,,,,,,,,,,,,,,,56c9e4d9b30699000bd974a5,2020-11-27_15h06.18.819,lexical_decision_task_MP_exp2,2020.2.5,Win32,60,,m,0,1.33499,,,,,,,,1.33499,0,,,,,,447,NW,UN,16,sadent,GIRCUE,z,,,,,,0.641318124,0.095690748,0,0,0,,0,259,259,446,1,,
,,,,,,,,,,,,,,,,,,56c9e4d9b30699000bd974a5,2020-11-27_15h06.18.819,lexical_decision_task_MP_exp2,2020.2.5,Win32,60,,m,1,1.14809,,,,,,,,1.14809,1,,,,,,85,WORD,"ID",16,sprawl,SPRAWL,m,,,,,,0.641318124,0.095690748,0,0,0,,0,260,260,84,1,,
,,,,,,,,,,,,,,,,,,56c9e4d9b30699000bd974a5,2020-11-27_15h06.18.819,lexical_decision_task_MP_exp2,2020.2.5,Win32,60,,z,1,1.035445,,,,,,,,1.035445,1,,,,,,287,NW,"ID",33,nymbel,NYMBEL,z,,,,,,0.641318124,0.095690748,0,0,0,,0,261,261,286,1,,
,,,,,,,,,,,,,,,,,,56c9e4d9b30699000bd974a5,2020-11-27_15h06.18.819,lexical_decision_task_MP_exp2,2020.2.5,Win32,60,,m,1,0.88142,,,,,,,,0.88142,1,,,,,,201,WORD,UN,16,factor,ADMIRE,m,,,,,,0.641318124,0.095690748,0,0,0,,0,262,262,200,1,,
,,,,,,,,,,,,,,,,,,56c9e4d9b30699000bd974a5,2020-11-27_15h06.18.819,lexical_decision_task_MP_exp2,2020.2.5,Win32,60,,m,1,0.748335,,,,,,,,0.748335,1,,,,,,209,WORD,UN,16,monkey,SEARCH,m,,,,,,0.641318124,0.095690748,0,0,0,,0,263,263,208,1,,
,,,,,,,,,,,,,,,,,,56c9e4d9b30699000bd974a5,2020-11-27_15h06.18.819,lexical_decision_task_MP_exp2,2020.2.5,Win32,60,,m,1,0.7011,,,,,,,,0.7011,1,,,,,,6,WORD,"ID",33,bundle,BUNDLE,m,,,,,,0.641318124,0.095690748,0,0,0,,0,264,264,5,1,,
,,,,,,,,,,,,,,,,,,56c9e4d9b30699000bd974a5,2020-11-27_15h06.18.819,lexical_decision_task_MP_exp2,2020.2.5,Win32,60,,z,1,0.68674,,,,,,,,0.68674,1,,,,,,399,NW,UN,33,wearox,FOURET,z,,,,,,0.641318124,0.095690748,0,0,0,,0,265,265,398,1,,
,,,,,,,,,,,,,,,,,,56c9e4d9b30699000bd974a5,2020-11-27_15h06.18.819,lexical_decision_task_MP_exp2,2020.2.5,Win32,60,,m,1,0.657825,,,,,,,,0.657825,1,,,,,,96,WORD,"ID",16,ignore,IGNORE,m,,,,,,0.641318124,0.095690748,0,0,0,,0,266,266,95,1,,
,,,,,,,,,,,,,,,,,,56c9e4d9b30699000bd974a5,2020-11-27_15h06.18.819,lexical_decision_task_MP_exp2,2020.2.5,Win32,60,,z,1,0.85896,,,,,,,,0.85896,1,,,,,,453,NW,UN,16,scouge,BOLVIS,z,,,,,,0.641318124,0.095690748,0,0,0,,0,267,267,452,1,,
,,,,,,,,,,,,,,,,,,56c9e4d9b30699000bd974a5,2020-11-27_15h06.18.819,lexical_decision_task_MP_exp2,2020.2.5,Win32,60,,m,1,0.70179,,,,,,,,0.70179,1,,,,,,130,WORD,UN,33,quench,STUPID,m,,,,,,0.641318124,0.095690748,0,0,0,,0,268,268,129,1,,
,,,,,,,,,,,,,,,,,,56c9e4d9b30699000bd974a5,2020-11-27_15h06.18.819,lexical_decision_task_MP_exp2,2020.2.5,Win32,60,,m,1,0.771335,,,,,,,,0.771335,1,,,,,,75,WORD,"ID",16,trophy,TROPHY,m,,,,,,0.641318124,0.095690748,0,0,0,,0,269,269,74,1,,
,,,,,,,,,,,,,,,,,,56c9e4d9b30699000bd974a5,2020-11-27_15h06.18.819,lexical_decision_task_MP_exp2,2020.2.5,Win32,60,,m,1,0.635265,,,,,,,,0.635265,1,,,,,,88,WORD,"ID",16,hunger,HUNGER,m,,,,,,0.641318124,0.095690748,0,0,0,,0,270,270,87,1,,
,,,,,,,,,,,,,,,,,,56c9e4d9b30699000bd974a5,2020-11-27_15h06.18.819,lexical_decision_task_MP_exp2,2020.2.5,Win32,60,,m,0,0.67618,,,,,,,,0.67618,0,,,,,,373,NW,UN,33,injore,BIGENT,z,,,,,,0.641318124,0.095690748,0,0,0,,0,271,271,372,1,,
,,,,,,,,,,,,,,,,,,56c9e4d9b30699000bd974a5,2020-11-27_15h06.18.819,lexical_decision_task_MP_exp2,2020.2.5,Win32,60,,z,1,0.690625,,,,,,,,0.690625,1,,,,,,369,NW,UN,33,sleact,WRONCH,z,,,,,,0.641318124,0.095690748,0,0,0,,0,272,272,368,1,,
,,,,,,,,,,,,,,,,,,56c9e4d9b30699000bd974a5,2020-11-27_15h06.18.819,lexical_decision_task_MP_exp2,2020.2.5,Win32,60,,z,1,0.684415,,,,,,,,0.684415,1,,,,,,269,NW,"ID",33,orchet,ORCHET,z,,,,,,0.641318124,0.095690748,0,0,0,,0,273,273,268,1,,
,,,,,,,,,,,,,,,,,,56c9e4d9b30699000bd974a5,2020-11-27_15h06.18.819,lexical_decision_task_MP_exp2,2020.2.5,Win32,60,,z,1,0.684995,,,,,,,,0.684995,1,,,,,,251,NW,"ID",33,lupict,LUPICT,z,,,,,,0.641318124,0.095690748,0,0,0,,0,274,274,250,1,,
,,,,,,,,,,,,,,,,,,56c9e4d9b30699000bd974a5,2020-11-27_15h06.18.819,lexical_decision_task_MP_exp2,2020.2.5,Win32,60,,z,1,0.62358,,,,,,,,0.62358,1,,,,,,456,NW,UN,16,wanigh,BROGET,z,,,,,,0.641318124,0.095690748,0,0,0,,0,275,275,455,1,,
,,,,,,,,,,,,,,,,,,56c9e4d9b30699000bd974a5,2020-11-27_15h06.18.819,lexical_decision_task_MP_exp2,2020.2.5,Win32,60,,m,1,0.566845,,,,,,,,0.566845,1,,,,,,46,WORD,"ID",33,single,SINGLE,m,,,,,,0.641318124,0.095690748,0,0,0,,0,276,276,45,1,,
,,,,,,,,,,,,,,,,,,56c9e4d9b30699000bd974a5,2020-11-27_15h06.18.819,lexical_decision_task_MP_exp2,2020.2.5,Win32,60,,z,1,0.664345,,,,,,,,0.664345,1,,,,,,241,NW,"ID",33,smenco,SMENCO,z,,,,,,0.641318124,0.095690748,0,0,0,,0,277,277,240,1,,
,,,,,,,,,,,,,,,,,,56c9e4d9b30699000bd974a5,2020-11-27_15h06.18.819,lexical_decision_task_MP_exp2,2020.2.5,Win32,60,,z,1,0.766615,,,,,,,,0.766615,1,,,,,,255,NW,"ID",33,apight,APIGHT,z,,,,,,0.641318124,0.095690748,0,0,0,,0,278,278,254,1,,
,,,,,,,,,,,,,,,,,,56c9e4d9b30699000bd974a5,2020-11-27_15h06.18.819,lexical_decision_task_MP_exp2,2020.2.5,Win32,60,,z,1,1.117275,,,,,,,,1.117275,1,,,,,,432,NW,UN,16,drance,LUNKER,z,,,,,,0.641318124,0.095690748,0,0,0,,0,279,279,431,1,,
,,,,,,,,,,,,,,,,,,56c9e4d9b30699000bd974a5,2020-11-27_15h06.18.819,lexical_decision_task_MP_exp2,2020.2.5,Win32,60,,z,1,0.63364,,,,,,,,0.63364,1,,,,,,421,NW,UN,16,alcoud,KNISMA,z,,,,,,0.641318124,0.095690748,0,0,0,,0,280,280,420,1,,
,,,,,,,,,,,,,,,,,,56c9e4d9b30699000bd974a5,2020-11-27_15h06.18.819,lexical_decision_task_MP_exp2,2020.2.5,Win32,60,,m,1,0.766845,,,,,,,,0.766845,1,,,,,,108,WORD,"ID",16,reckon,RECKON,m,,,,,,0.641318124,0.095690748,0,0,0,,0,281,281,107,1,,
,,,,,,,,,,,,,,,,,,56c9e4d9b30699000bd974a5,2020-11-27_15h06.18.819,lexical_decision_task_MP_exp2,2020.2.5,Win32,60,,m,1,0.65137,,,,,,,,0.65137,1,,,,,,28,WORD,"ID",33,comedy,COMEDY,m,,,,,,0.641318124,0.095690748,0,0,0,,0,282,282,27,1,,
,,,,,,,,,,,,,,,,,,56c9e4d9b30699000bd974a5,2020-11-27_15h06.18.819,lexical_decision_task_MP_exp2,2020.2.5,Win32,60,,z,1,0.622945,,,,,,,,0.622945,1,,,,,,280,NW,"ID",33,curbol,CURBOL,z,,,,,,0.641318124,0.095690748,0,0,0,,0,283,283,279,1,,
,,,,,,,,,,,,,,,,,,56c9e4d9b30699000bd974a5,2020-11-27_15h06.18.819,lexical_decision_task_MP_exp2,2020.2.5,Win32,60,,z,1,0.71143,,,,,,,,0.71143,1,,,,,,430,NW,UN,16,funtle,CAROEY,z,,,,,,0.641318124,0.095690748,0,0,0,,0,284,284,429,1,,
,,,,,,,,,,,,,,,,,,56c9e4d9b30699000bd974a5,2020-11-27_15h06.18.819,lexical_decision_task_MP_exp2,2020.2.5,Win32,60,,m,1,0.684655,,,,,,,,0.684655,1,,,,,,143,WORD,UN,33,sponge,REASON,m,,,,,,0.641318124,0.095690748,0,0,0,,0,285,285,142,1,,
,,,,,,,,,,,,,,,,,,56c9e4d9b30699000bd974a5,2020-11-27_15h06.18.819,lexical_decision_task_MP_exp2,2020.2.5,Win32,60,,z,1,0.783555,,,,,,,,0.783555,1,,,,,,328,NW,"ID",16,broake,BROAKE,z,,,,,,0.641318124,0.095690748,0,0,0,,0,286,286,327,1,,
,,,,,,,,,,,,,,,,,,56c9e4d9b30699000bd974a5,2020-11-27_15h06.18.819,lexical_decision_task_MP_exp2,2020.2.5,Win32,60,,m,1,0.812795,,,,,,,,0.812795,1,,,,,,231,WORD,UN,16,mother,EXPORT,m,,,,,,0.641318124,0.095690748,0,0,0,,0,287,287,230,1,,
,,,,,,,,,,,,,,,,,,56c9e4d9b30699000bd974a5,2020-11-27_15h06.18.819,lexical_decision_task_MP_exp2,2020.2.5,Win32,60,,z,1,0.584565,,,,,,,,0.584565,1,,,,,,451,NW,UN,16,surden,CAINKY,z,,,,,,0.641318124,0.095690748,0,0,0,,0,288,288,450,1,,
,,,,,,,,,,,,,,,,,,56c9e4d9b30699000bd974a5,2020-11-27_15h06.18.819,lexical_decision_task_MP_exp2,2020.2.5,Win32,60,,z,1,1.858385,,,,,,,,1.858385,1,,,,,,320,NW,"ID",16,jockal,JOCKAL,z,,,,,,0.641318124,0.095690748,0,0,0,,0,289,289,319,1,,
,,,,,,,,,,,,,,,,,,56c9e4d9b30699000bd974a5,2020-11-27_15h06.18.819,lexical_decision_task_MP_exp2,2020.2.5,Win32,60,,z,1,0.655715,,,,,,,,0.655715,1,,,,,,307,NW,"ID",16,kirafe,KIRAFE,z,,,,,,0.641318124,0.095690748,0,0,0,,0,290,290,306,1,,
,,,,,,,,,,,,,,,,,,56c9e4d9b30699000bd974a5,2020-11-27_15h06.18.819,lexical_decision_task_MP_exp2,2020.2.5,Win32,60,,m,1,0.7504,,,,,,,,0.7504,1,,,,,,90,WORD,"ID",16,relish,RELISH,m,,,,,,0.641318124,0.095690748,0,0,0,,0,291,291,89,1,,
,,,,,,,,,,,,,,,,,,56c9e4d9b30699000bd974a5,2020-11-27_15h06.18.819,lexical_decision_task_MP_exp2,2020.2.5,Win32,60,,z,1,0.75182,,,,,,,,0.75182,1,,,,,,363,NW,UN,33,impote,BREALI,z,,,,,,0.641318124,0.095690748,0,0,0,,0,292,292,362,1,,
,,,,,,,,,,,,,,,,,,56c9e4d9b30699000bd974a5,2020-11-27_15h06.18.819,lexical_decision_task_MP_exp2,2020.2.5,Win32,60,,z,1,0.63839,,,,,,,,0.63839,1,,,,,,299,NW,"ID",33,sturch,STURCH,z,,,,,,0.641318124,0.095690748,0,0,0,,0,293,293,298,1,,
,,,,,,,,,,,,,,,,,,56c9e4d9b30699000bd974a5,2020-11-27_15h06.18.819,lexical_decision_task_MP_exp2,2020.2.5,Win32,60,,m,1,0.723145,,,,,,,,0.723145,1,,,,,,107,WORD,"ID",16,slogan,SLOGAN,m,,,,,,0.641318124,0.095690748,0,0,0,,0,294,294,106,1,,
,,,,,,,,,,,,,,,,,,56c9e4d9b30699000bd974a5,2020-11-27_15h06.18.819,lexical_decision_task_MP_exp2,2020.2.5,Win32,60,,z,1,0.60038,,,,,,,,0.60038,1,,,,,,431,NW,UN,16,lunker,CHRUMS,z,,,,,,0.641318124,0.095690748,0,0,0,,0,295,295,430,1,,
,,,,,,,,,,,,,,,,,,56c9e4d9b30699000bd974a5,2020-11-27_15h06.18.819,lexical_decision_task_MP_exp2,2020.2.5,Win32,60,,z,1,0.76797,,,,,,,,0.76797,1,,,,,,364,NW,UN,33,guairt,IMPOTE,z,,,,,,0.641318124,0.095690748,0,0,0,,0,296,296,363,1,,
,,,,,,,,,,,,,,,,,,56c9e4d9b30699000bd974a5,2020-11-27_15h06.18.819,lexical_decision_task_MP_exp2,2020.2.5,Win32,60,,m,1,0.649865,,,,,,,,0.649865,1,,,,,,210,WORD,UN,16,infect,MONKEY,m,,,,,,0.641318124,0.095690748,0,0,0,,0,297,297,209,1,,
,,,,,,,,,,,,,,,,,,56c9e4d9b30699000bd974a5,2020-11-27_15h06.18.819,lexical_decision_task_MP_exp2,2020.2.5,Win32,60,,z,1,0.62318,,,,,,,,0.62318,1,,,,,,436,NW,UN,16,snapel,FRUTAN,z,,,,,,0.641318124,0.095690748,0,0,0,,0,298,298,435,1,,
,,,,,,,,,,,,,,,,,,56c9e4d9b30699000bd974a5,2020-11-27_15h06.18.819,lexical_decision_task_MP_exp2,2020.2.5,Win32,60,,z,1,0.667725,,,,,,,,0.667725,1,,,,,,389,NW,UN,33,hatrus,WITMER,z,,,,,,0.641318124,0.095690748,0,0,0,,0,299,299,388,1,,
,,,,,,,,,,,,,,,,,,56c9e4d9b30699000bd974a5,2020-11-27_15h06.18.819,lexical_decision_task_MP_exp2,2020.2.5,Win32,60,,z,1,0.5556,,,,,,,,0.5556,1,,,,,,272,NW,"ID",33,damilt,DAMILT,z,,,,,,0.641318124,0.095690748,0,0,0,,0,300,300,271,1,,
,,,,,,,,,,,,,,,,,,56c9e4d9b30699000bd974a5,2020-11-27_15h06.18.819,lexical_decision_task_MP_exp2,2020.2.5,Win32,60,,m,1,0.768155,,,,,,,,0.768155,1,,,,,,16,WORD,"ID",33,faucet,FAUCET,m,,,,,,0.641318124,0.095690748,0,0,0,,0,301,301,15,1,,
,,,,,,,,,,,,,,,,,,56c9e4d9b30699000bd974a5,2020-11-27_15h06.18.819,lexical_decision_task_MP_exp2,2020.2.5,Win32,60,,z,1,0.55146,,,,,,,,0.55146,1,,,,,,388,NW,UN,33,witmer,CRAGIN,z,,,,,,0.641318124,0.095690748,0,0,0,,0,302,302,387,1,,
,,,,,,,,,,,,,,,,,,56c9e4d9b30699000bd974a5,2020-11-27_15h06.18.819,lexical_decision_task_MP_exp2,2020.2.5,Win32,60,,z,1,0.52414,,,,,,,,0.52414,1,,,,,,374,NW,UN,33,yorque,SLIANT,z,,,,,,0.641318124,0.095690748,0,0,0,,0,303,303,373,1,,
,,,,,,,,,,,,,,,,,,56c9e4d9b30699000bd974a5,2020-11-27_15h06.18.819,lexical_decision_task_MP_exp2,2020.2.5,Win32,60,,z,1,0.55092,,,,,,,,0.55092,1,,,,,,309,NW,"ID",16,amiloy,AMILOY,z,,,,,,0.641318124,0.095690748,0,0,0,,0,304,304,308,1,,
,,,,,,,,,,,,,,,,,,56c9e4d9b30699000bd974a5,2020-11-27_15h06.18.819,lexical_decision_task_MP_exp2,2020.2.5,Win32,60,,z,1,0.53648,,,,,,,,0.53648,1,,,,,,361,NW,UN,33,tireau,PAUCHE,z,,,,,,0.641318124,0.095690748,0,0,0,,0,305,305,360,1,,
,,,,,,,,,,,,,,,,,,56c9e4d9b30699000bd974a5,2020-11-27_15h06.18.819,lexical_decision_task_MP_exp2,2020.2.5,Win32,60,,m,1,0.665355,,,,,,,,0.665355,1,,,,,,47,WORD,"ID",33,income,INCOME,m,,,,,,0.641318124,0.095690748,0,0,0,,0,306,306,46,1,,
,,,,,,,,,,,,,,,,,,56c9e4d9b30699000bd974a5,2020-11-27_15h06.18.819,lexical_decision_task_MP_exp2,2020.2.5,Win32,60,,m,1,0.665295,,,,,,,,0.665295,1,,,,,,197,WORD,UN,16,wicked,STREAM,m,,,,,,0.641318124,0.095690748,0,0,0,,0,307,307,196,1,,
,,,,,,,,,,,,,,,,,,56c9e4d9b30699000bd974a5,2020-11-27_15h06.18.819,lexical_decision_task_MP_exp2,2020.2.5,Win32,60,,m,1,0.69916,,,,,,,,0.69916,1,,,,,,127,WORD,UN,33,senior,CASTLE,m,,,,,,0.641318124,0.095690748,0,0,0,,0,308,308,126,1,,
,,,,,,,,,,,,,,,,,,56c9e4d9b30699000bd974a5,2020-11-27_15h06.18.819,lexical_decision_task_MP_exp2,2020.2.5,Win32,60,,z,1,0.550335,,,,,,,,0.550335,1,,,,,,340,NW,"ID",16,fiatch,FIATCH,z,,,,,,0.641318124,0.095690748,0,0,0,,0,309,309,339,1,,
,,,,,,,,,,,,,,,,,,56c9e4d9b30699000bd974a5,2020-11-27_15h06.18.819,lexical_decision_task_MP_exp2,2020.2.5,Win32,60,,z,1,0.52019,,,,,,,,0.52019,1,,,,,,375,NW,UN,33,iguare,YORQUE,z,,,,,,0.641318124,0.095690748,0,0,0,,0,310,310,374,1,,
,,,,,,,,,,,,,,,,,,56c9e4d9b30699000bd974a5,2020-11-27_15h06.18.819,lexical_decision_task_MP_exp2,2020.2.5,Win32,60,,m,1,0.768175,,,,,,,,0.768175,1,,,,,,141,WORD,UN,33,spruce,ORPHAN,m,,,,,,0.641318124,0.095690748,0,0,0,,0,311,311,140,1,,
,,,,,,,,,,,,,,,,,,56c9e4d9b30699000bd974a5,2020-11-27_15h06.18.819,lexical_decision_task_MP_exp2,2020.2.5,Win32,60,,m,1,0.69909,,,,,,,,0.69909,1,,,,,,148,WORD,UN,33,invade,CUSTOM,m,,,,,,0.641318124,0.095690748,0,0,0,,0,312,312,147,1,,
,,,,,,,,,,,,,,,,,,56c9e4d9b30699000bd974a5,2020-11-27_15h06.18.819,lexical_decision_task_MP_exp2,2020.2.5,Win32,60,,m,1,0.66504,,,,,,,,0.66504,1,,,,,,99,WORD,"ID",16,fluent,FLUENT,m,,,,,,0.641318124,0.095690748,0,0,0,,0,313,313,98,1,,
,,,,,,,,,,,,,,,,,,56c9e4d9b30699000bd974a5,2020-11-27_15h06.18.819,lexical_decision_task_MP_exp2,2020.2.5,Win32,60,,m,1,0.53647,,,,,,,,0.53647,1,,,,,,51,WORD,"ID",33,hungry,HUNGRY,m,,,,,,0.641318124,0.095690748,0,0,0,,0,314,314,50,1,,
,,,,,,,,,,,,,,,,,,56c9e4d9b30699000bd974a5,2020-11-27_15h06.18.819,lexical_decision_task_MP_exp2,2020.2.5,Win32,60,,m,1,0.619475,,,,,,,,0.619475,1,,,,,,14,WORD,"ID",33,almost,ALMOST,m,,,,,,0.641318124,0.095690748,0,0,0,,0,315,315,13,1,,
,,,,,,,,,,,,,,,,,,56c9e4d9b30699000bd974a5,2020-11-27_15h06.18.819,lexical_decision_task_MP_exp2,2020.2.5,Win32,60,,m,1,0.697625,,,,,,,,0.697625,1,,,,,,94,WORD,"ID",16,travel,TRAVEL,m,,,,,,0.641318124,0.095690748,0,0,0,,0,316,316,93,1,,
,,,,,,,,,,,,,,,,,,56c9e4d9b30699000bd974a5,2020-11-27_15h06.18.819,lexical_decision_task_MP_exp2,2020.2.5,Win32,60,,z,1,0.633145,,,,,,,,0.633145,1,,,,,,407,NW,UN,33,hurnia,SUIVER,z,,,,,,0.641318124,0.095690748,0,0,0,,0,317,317,406,1,,
,,,,,,,,,,,,,,,,,,56c9e4d9b30699000bd974a5,2020-11-27_15h06.18.819,lexical_decision_task_MP_exp2,2020.2.5,Win32,60,,m,1,0.83175,,,,,,,,0.83175,1,,,,,,39,WORD,"ID",33,insect,INSECT,m,,,,,,0.641318124,0.095690748,0,0,0,,0,318,318,38,1,,
,,,,,,,,,,,,,,,,,,56c9e4d9b30699000bd974a5,2020-11-27_15h06.18.819,lexical_decision_task_MP_exp2,2020.2.5,Win32,60,,z,1,0.966945,,,,,,,,0.966945,1,,,,,,331,NW,"ID",16,gilfew,GILFEW,z,,,,,,0.641318124,0.095690748,0,0,0,,0,319,319,330,1,,
,,,,,,,,,,,,,,,,,,56c9e4d9b30699000bd974a5,2020-11-27_15h06.18.819,lexical_decision_task_MP_exp2,2020.2.5,Win32,60,,m,1,0.5643,,,,,,,,0.5643,1,,,,,,59,WORD,"ID",33,splint,SPLINT,m,,,,,,0.641318124,0.095690748,0,0,0,,0,320,320,58,1,,
,,,,,,,,,,,,,,,,,,56c9e4d9b30699000bd974a5,2020-11-27_15h06.18.819,lexical_decision_task_MP_exp2,2020.2.5,Win32,60,,z,1,0.722055,,,,,,,,0.722055,1,,,,,,472,NW,UN,16,crible,CIGNEY,z,,,,,,0.641318124,0.095690748,0,0,0,,0,321,321,471,1,,
,,,,,,,,,,,,,,,,,,56c9e4d9b30699000bd974a5,2020-11-27_15h06.18.819,lexical_decision_task_MP_exp2,2020.2.5,Win32,60,,m,1,0.598605,,,,,,,,0.598605,1,,,,,,83,WORD,"ID",16,result,RESULT,m,,,,,,0.641318124,0.095690748,0,0,0,,0,322,322,82,1,,
,,,,,,,,,,,,,,,,,,56c9e4d9b30699000bd974a5,2020-11-27_15h06.18.819,lexical_decision_task_MP_exp2,2020.2.5,Win32,60,,m,1,0.76865,,,,,,,,0.76865,1,,,,,,142,WORD,UN,33,orphan,SPRUCE,m,,,,,,0.641318124,0.095690748,0,0,0,,0,323,323,141,1,,
,,,,,,,,,,,,,,,,,,56c9e4d9b30699000bd974a5,2020-11-27_15h06.18.819,lexical_decision_task_MP_exp2,2020.2.5,Win32,60,,z,1,0.56834,,,,,,,,0.56834,1,,,,,,254,NW,"ID",33,varosh,VAROSH,z,,,,,,0.641318124,0.095690748,0,0,0,,0,324,324,253,1,,
,,,,,,,,,,,,,,,,,,56c9e4d9b30699000bd974a5,2020-11-27_15h06.18.819,lexical_decision_task_MP_exp2,2020.2.5,Win32,60,,m,1,0.631365,,,,,,,,0.631365,1,,,,,,50,WORD,"ID",33,snatch,SNATCH,m,,,,,,0.641318124,0.095690748,0,0,0,,0,325,325,49,1,,
,,,,,,,,,,,,,,,,,,56c9e4d9b30699000bd974a5,2020-11-27_15h06.18.819,lexical_decision_task_MP_exp2,2020.2.5,Win32,60,,m,1,0.550735,,,,,,,,0.550735,1,,,,,,180,WORD,UN,33,thrive,SILENT,m,,,,,,0.641318124,0.095690748,0,0,0,,0,326,326,179,1,,
,,,,,,,,,,,,,,,,,,56c9e4d9b30699000bd974a5,2020-11-27_15h06.18.819,lexical_decision_task_MP_exp2,2020.2.5,Win32,60,,z,1,0.72109,,,,,,,,0.72109,1,,,,,,378,NW,UN,33,auting,SHRILE,z,,,,,,0.641318124,0.095690748,0,0,0,,0,327,327,377,1,,
,,,,,,,,,,,,,,,,,,56c9e4d9b30699000bd974a5,2020-11-27_15h06.18.819,lexical_decision_task_MP_exp2,2020.2.5,Win32,60,,m,1,0.619725,,,,,,,,0.619725,1,,,,,,135,WORD,UN,33,chrome,IMPORT,m,,,,,,0.641318124,0.095690748,0,0,0,,0,328,328,134,1,,
,,,,,,,,,,,,,,,,,,56c9e4d9b30699000bd974a5,2020-11-27_15h06.18.819,lexical_decision_task_MP_exp2,2020.2.5,Win32,60,,m,1,0.56549,,,,,,,,0.56549,1,,,,,,77,WORD,"ID",16,racket,RACKET,m,,,,,,0.641318124,0.095690748,0,0,0,,0,329,329,76,1,,
,,,,,,,,,,,,,,,,,,56c9e4d9b30699000bd974a5,2020-11-27_15h06.18.819,lexical_decision_task_MP_exp2,2020.2.5,Win32,60,,z,1,0.700225,,,,,,,,0.700225,1,,,,,,413,NW,UN,33,serbol,EQUATS,z,,,,,,0.641318124,0.095690748,0,0,0,,0,330,330,412,1,,
,,,,,,,,,,,,,,,,,,56c9e4d9b30699000bd974a5,2020-11-27_15h06.18.819,lexical_decision_task_MP_exp2,2020.2.5,Win32,60,,z,1,0.7008,,,,,,,,0.7008,1,,,,,,354,NW,"ID",16,virlex,VIRLEX,z,,,,,,0.641318124,0.095690748,0,0,0,,0,331,331,353,1,,
,,,,,,,,,,,,,,,,,,56c9e4d9b30699000bd974a5,2020-11-27_15h06.18.819,lexical_decision_task_MP_exp2,2020.2.5,Win32,60,,m,1,0.61839,,,,,,,,0.61839,1,,,,,,62,WORD,"ID",16,region,REGION,m,,,,,,0.641318124,0.095690748,0,0,0,,0,332,332,61,1,,
,,,,,,,,,,,,,,,,,,56c9e4d9b30699000bd974a5,2020-11-27_15h06.18.819,lexical_decision_task_MP_exp2,2020.2.5,Win32,60,,m,1,0.620235,,,,,,,,0.620235,1,,,,,,147,WORD,UN,33,custom,GARLIC,m,,,,,,0.641318124,0.095690748,0,0,0,,0,333,333,146,1,,
,,,,,,,,,,,,,,,,,,56c9e4d9b30699000bd974a5,2020-11-27_15h06.18.819,lexical_decision_task_MP_exp2,2020.2.5,Win32,60,,z,1,0.712585,,,,,,,,0.712585,1,,,,,,424,NW,UN,16,urivel,PRAILE,z,,,,,,0.641318124,0.095690748,0,0,0,,0,334,334,423,1,,
,,,,,,,,,,,,,,,,,,56c9e4d9b30699000bd974a5,2020-11-27_15h06.18.819,lexical_decision_task_MP_exp2,2020.2.5,Win32,60,,m,1,0.61586,,,,,,,,0.61586,1,,,,,,217,WORD,UN,16,shrink,LIQUOR,m,,,,,,0.641318124,0.095690748,0,0,0,,0,335,335,216,1,,
,,,,,,,,,,,,,,,,,,56c9e4d9b30699000bd974a5,2020-11-27_15h06.18.819,lexical_decision_task_MP_exp2,2020.2.5,Win32,60,,m,1,0.56936,,,,,,,,0.56936,1,,,,,,23,WORD,"ID",33,wealth,WEALTH,m,,,,,,0.641318124,0.095690748,0,0,0,,0,336,336,22,1,,
,,,,,,,,,,,,,,,,,,56c9e4d9b30699000bd974a5,2020-11-27_15h06.18.819,lexical_decision_task_MP_exp2,2020.2.5,Win32,60,,z,1,0.566345,,,,,,,,0.566345,1,,,,,,350,NW,"ID",16,nagurs,NAGURS,z,,,,,,0.641318124,0.095690748,0,0,0,,0,337,337,349,1,,
,,,,,,,,,,,,,,,,,,56c9e4d9b30699000bd974a5,2020-11-27_15h06.18.819,lexical_decision_task_MP_exp2,2020.2.5,Win32,60,,z,1,0.831845,,,,,,,,0.831845,1,,,,,,357,NW,"ID",16,derain,DERAIN,z,,,,,,0.641318124,0.095690748,0,0,0,,0,338,338,356,1,,
,,,,,,,,,,,,,,,,,,56c9e4d9b30699000bd974a5,2020-11-27_15h06.18.819,lexical_decision_task_MP_exp2,2020.2.5,Win32,60,,z,1,0.54911,,,,,,,,0.54911,1,,,,,,243,NW,"ID",33,musied,MUSIED,z,,,,,,0.641318124,0.095690748,0,0,0,,0,339,339,242,1,,
,,,,,,,,,,,,,,,,,,56c9e4d9b30699000bd974a5,2020-11-27_15h06.18.819,lexical_decision_task_MP_exp2,2020.2.5,Win32,60,,z,1,0.48657,,,,,,,,0.48657,1,,,,,,324,NW,"ID",16,steikh,STEIKH,z,,,,,,0.641318124,0.095690748,0,0,0,,0,340,340,323,1,,
,,,,,,,,,,,,,,,,,,56c9e4d9b30699000bd974a5,2020-11-27_15h06.18.819,lexical_decision_task_MP_exp2,2020.2.5,Win32,60,,m,1,0.686775,,,,,,,,0.686775,1,,,,,,63,WORD,"ID",16,launch,LAUNCH,m,,,,,,0.641318124,0.095690748,0,0,0,,0,341,341,62,1,,
,,,,,,,,,,,,,,,,,,56c9e4d9b30699000bd974a5,2020-11-27_15h06.18.819,lexical_decision_task_MP_exp2,2020.2.5,Win32,60,,z,1,0.565835,,,,,,,,0.565835,1,,,,,,302,NW,"ID",16,miluer,MILUER,z,,,,,,0.641318124,0.095690748,0,0,0,,0,342,342,301,1,,
,,,,,,,,,,,,,,,,,,56c9e4d9b30699000bd974a5,2020-11-27_15h06.18.819,lexical_decision_task_MP_exp2,2020.2.5,Win32,60,,m,1,0.596995,,,,,,,,0.596995,1,,,,,,7,WORD,"ID",33,anchor,ANCHOR,m,,,,,,0.641318124,0.095690748,0,0,0,,0,343,343,6,1,,
,,,,,,,,,,,,,,,,,,56c9e4d9b30699000bd974a5,2020-11-27_15h06.18.819,lexical_decision_task_MP_exp2,2020.2.5,Win32,60,,m,1,0.598545,,,,,,,,0.598545,1,,,,,,12,WORD,"ID",33,orange,ORANGE,m,,,,,,0.641318124,0.095690748,0,0,0,,0,344,344,11,1,,
,,,,,,,,,,,,,,,,,,56c9e4d9b30699000bd974a5,2020-11-27_15h06.18.819,lexical_decision_task_MP_exp2,2020.2.5,Win32,60,,m,1,0.617255,,,,,,,,0.617255,1,,,,,,230,WORD,UN,16,export,FRINGE,m,,,,,,0.641318124,0.095690748,0,0,0,,0,345,345,229,1,,
,,,,,,,,,,,,,,,,,,56c9e4d9b30699000bd974a5,2020-11-27_15h06.18.819,lexical_decision_task_MP_exp2,2020.2.5,Win32,60,,z,1,0.61796,,,,,,,,0.61796,1,,,,,,346,NW,"ID",16,saudic,SAUDIC,z,,,,,,0.641318124,0.095690748,0,0,0,,0,346,346,345,1,,
,,,,,,,,,,,,,,,,,,56c9e4d9b30699000bd974a5,2020-11-27_15h06.18.819,lexical_decision_task_MP_exp2,2020.2.5,Win32,60,,m,1,0.60613,,,,,,,,0.60613,1,,,,,,162,WORD,UN,33,string,CANDLE,m,,,,,,0.641318124,0.095690748,0,0,0,,0,347,347,161,1,,
,,,,,,,,,,,,,,,,,,56c9e4d9b30699000bd974a5,2020-11-27_15h06.18.819,lexical_decision_task_MP_exp2,2020.2.5,Win32,60,,z,1,0.652445,,,,,,,,0.652445,1,,,,,,395,NW,UN,33,flengy,COLURY,z,,,,,,0.641318124,0.095690748,0,0,0,,0,348,348,394,1,,
,,,,,,,,,,,,,,,,,,56c9e4d9b30699000bd974a5,2020-11-27_15h06.18.819,lexical_decision_task_MP_exp2,2020.2.5,Win32,60,,z,1,0.899335,,,,,,,,0.899335,1,,,,,,417,NW,UN,33,suidle,EAROUD,z,,,,,,0.641318124,0.095690748,0,0,0,,0,349,349,416,1,,
,,,,,,,,,,,,,,,,,,56c9e4d9b30699000bd974a5,2020-11-27_15h06.18.819,lexical_decision_task_MP_exp2,2020.2.5,Win32,60,,z,1,0.534115,,,,,,,,0.534115,1,,,,,,334,NW,"ID",16,watmeg,WATMEG,z,,,,,,0.641318124,0.095690748,0,0,0,,0,350,350,333,1,,
,,,,,,,,,,,,,,,,,,56c9e4d9b30699000bd974a5,2020-11-27_15h06.18.819,lexical_decision_task_MP_exp2,2020.2.5,Win32,60,,z,1,0.56489,,,,,,,,0.56489,1,,,,,,247,NW,"ID",33,blarge,BLARGE,z,,,,,,0.641318124,0.095690748,0,0,0,,0,351,351,246,1,,
,,,,,,,,,,,,,,,,,,56c9e4d9b30699000bd974a5,2020-11-27_15h06.18.819,lexical_decision_task_MP_exp2,2020.2.5,Win32,60,,m,1,0.55181,,,,,,,,0.55181,1,,,,,,174,WORD,UN,33,fabric,TURKEY,m,,,,,,0.641318124,0.095690748,0,0,0,,0,352,352,173,1,,
,,,,,,,,,,,,,,,,,,56c9e4d9b30699000bd974a5,2020-11-27_15h06.18.819,lexical_decision_task_MP_exp2,2020.2.5,Win32,60,,z,1,0.6041,,,,,,,,0.6041,1,,,,,,353,NW,"ID",16,clurey,CLUREY,z,,,,,,0.641318124,0.095690748,0,0,0,,0,353,353,352,1,,
,,,,,,,,,,,,,,,,,,56c9e4d9b30699000bd974a5,2020-11-27_15h06.18.819,lexical_decision_task_MP_exp2,2020.2.5,Win32,60,,m,1,0.682755,,,,,,,,0.682755,1,,,,,,178,WORD,UN,33,mildew,INFORM,m,,,,,,0.641318124,0.095690748,0,0,0,,0,354,354,177,1,,
,,,,,,,,,,,,,,,,,,56c9e4d9b30699000bd974a5,2020-11-27_15h06.18.819,lexical_decision_task_MP_exp2,2020.2.5,Win32,60,,z,1,0.599735,,,,,,,,0.599735,1,,,,,,376,NW,UN,33,sliant,IGUARE,z,,,,,,0.641318124,0.095690748,0,0,0,,0,355,355,375,1,,
,,,,,,,,,,,,,,,,,,56c9e4d9b30699000bd974a5,2020-11-27_15h06.18.819,lexical_decision_task_MP_exp2,2020.2.5,Win32,60,,m,1,0.5824,,,,,,,,0.5824,1,,,,,,92,WORD,"ID",16,strand,STRAND,m,,,,,,0.641318124,0.095690748,0,0,0,,0,356,356,91,1,,
,,,,,,,,,,,,,,,,,,56c9e4d9b30699000bd974a5,2020-11-27_15h06.18.819,lexical_decision_task_MP_exp2,2020.2.5,Win32,60,,m,1,0.532295,,,,,,,,0.532295,1,,,,,,169,WORD,UN,33,pounce,GENIUS,m,,,,,,0.641318124,0.095690748,0,0,0,,0,357,357,168,1,,
,,,,,,,,,,,,,,,,,,56c9e4d9b30699000bd974a5,2020-11-27_15h06.18.819,lexical_decision_task_MP_exp2,2020.2.5,Win32,60,,z,1,0.59818,,,,,,,,0.59818,1,,,,,,312,NW,"ID",16,nerawl,NERAWL,z,,,,,,0.641318124,0.095690748,0,0,0,,0,358,358,311,1,,
,,,,,,,,,,,,,,,,,,56c9e4d9b30699000bd974a5,2020-11-27_15h06.18.819,lexical_decision_task_MP_exp2,2020.2.5,Win32,60,,m,1,0.54761,,,,,,,,0.54761,1,,,,,,116,WORD,"ID",16,tumble,TUMBLE,m,,,,,,0.641318124,0.095690748,0,0,0,,0,359,359,115,1,,
,,,,,,,,,,,,,,,,,,56c9e4d9b30699000bd974a5,2020-11-27_15h06.18.819,lexical_decision_task_MP_exp2,2020.2.5,Win32,60,,m,1,0.53242,,,,,,,,0.53242,1,,,,,,121,WORD,UN,33,linger,THRIVE,m,,,,,,0.641318124,0.095690748,0,0,0,,0,360,360,120,1,,
,,,,,,,,,,,,,,,,,,56c9e4d9b30699000bd974a5,2020-11-27_15h06.18.819,lexical_decision_task_MP_exp2,2020.2.5,Win32,60,,m,1,0.571055,,,,,,,,0.571055,1,,,,,,239,WORD,UN,16,forest,LUMBER,m,,,,,,0.641318124,0.095690748,0,0,0,,0,361,361,238,1,,
,,,,,,,,,,,,,,,,,,56c9e4d9b30699000bd974a5,2020-11-27_15h06.18.819,lexical_decision_task_MP_exp2,2020.2.5,Win32,60,,z,1,0.60055,,,,,,,,0.60055,1,,,,,,257,NW,"ID",33,veniod,VENIOD,z,,,,,,0.641318124,0.095690748,0,0,0,space,0,362,362,256,1,,2.61359
,,,,,,,,,,,,,,,,,,56c9e4d9b30699000bd974a5,2020-11-27_15h06.18.819,lexical_decision_task_MP_exp2,2020.2.5,Win32,60,,z,1,0.815825,,,,,,,,0.815825,1,,,,,,470,NW,UN,16,nobest,CRUDIO,z,,,,,,0.641318124,0.095690748,0,0,0,,0,363,363,469,1,,
,,,,,,,,,,,,,,,,,,56c9e4d9b30699000bd974a5,2020-11-27_15h06.18.819,lexical_decision_task_MP_exp2,2020.2.5,Win32,60,,m,1,0.684295,,,,,,,,0.684295,1,,,,,,204,WORD,UN,16,lounge,BURDEN,m,,,,,,0.641318124,0.095690748,0,0,0,,0,364,364,203,1,,
,,,,,,,,,,,,,,,,,,56c9e4d9b30699000bd974a5,2020-11-27_15h06.18.819,lexical_decision_task_MP_exp2,2020.2.5,Win32,60,,z,1,0.64898,,,,,,,,0.64898,1,,,,,,343,NW,"ID",16,aimosy,AIMOSY,z,,,,,,0.641318124,0.095690748,0,0,0,,0,365,365,342,1,,
,,,,,,,,,,,,,,,,,,56c9e4d9b30699000bd974a5,2020-11-27_15h06.18.819,lexical_decision_task_MP_exp2,2020.2.5,Win32,60,,z,1,0.700515,,,,,,,,0.700515,1,,,,,,360,NW,"ID",16,desory,DESORY,z,,,,,,0.641318124,0.095690748,0,0,0,,0,366,366,359,1,,
,,,,,,,,,,,,,,,,,,56c9e4d9b30699000bd974a5,2020-11-27_15h06.18.819,lexical_decision_task_MP_exp2,2020.2.5,Win32,60,,z,1,0.782425,,,,,,,,0.782425,1,,,,,,478,NW,UN,16,lobush,ACRISE,z,,,,,,0.641318124,0.095690748,0,0,0,,0,367,367,477,1,,
,,,,,,,,,,,,,,,,,,56c9e4d9b30699000bd974a5,2020-11-27_15h06.18.819,lexical_decision_task_MP_exp2,2020.2.5,Win32,60,,m,1,0.665105,,,,,,,,0.665105,1,,,,,,187,WORD,UN,16,social,COURSE,m,,,,,,0.641318124,0.095690748,0,0,0,,0,368,368,186,1,,
,,,,,,,,,,,,,,,,,,56c9e4d9b30699000bd974a5,2020-11-27_15h06.18.819,lexical_decision_task_MP_exp2,2020.2.5,Win32,60,,z,1,0.917515,,,,,,,,0.917515,1,,,,,,465,NW,UN,16,hocite,WHIVEX,z,,,,,,0.641318124,0.095690748,0,0,0,,0,369,369,464,1,,
,,,,,,,,,,,,,,,,,,56c9e4d9b30699000bd974a5,2020-11-27_15h06.18.819,lexical_decision_task_MP_exp2,2020.2.5,Win32,60,,z,1,0.932895,,,,,,,,0.932895,1,,,,,,437,NW,UN,16,baitch,SNAPEL,z,,,,,,0.641318124,0.095690748,0,0,0,,0,370,370,436,1,,
,,,,,,,,,,,,,,,,,,56c9e4d9b30699000bd974a5,2020-11-27_15h06.18.819,lexical_decision_task_MP_exp2,2020.2.5,Win32,60,,m,1,0.664605,,,,,,,,0.664605,1,,,,,,54,WORD,"ID",33,ramble,RAMBLE,m,,,,,,0.641318124,0.095690748,0,0,0,,0,371,371,53,1,,
,,,,,,,,,,,,,,,,,,56c9e4d9b30699000bd974a5,2020-11-27_15h06.18.819,lexical_decision_task_MP_exp2,2020.2.5,Win32,60,,m,1,0.998405,,,,,,,,0.998405,1,,,,,,112,WORD,"ID",16,breath,BREATH,m,,,,,,0.641318124,0.095690748,0,0,0,,0,372,372,111,1,,
,,,,,,,,,,,,,,,,,,56c9e4d9b30699000bd974a5,2020-11-27_15h06.18.819,lexical_decision_task_MP_exp2,2020.2.5,Win32,60,,z,1,0.63826,,,,,,,,0.63826,1,,,,,,458,NW,UN,16,chaite,BARCET,z,,,,,,0.641318124,0.095690748,0,0,0,,0,373,373,457,1,,
,,,,,,,,,,,,,,,,,,56c9e4d9b30699000bd974a5,2020-11-27_15h06.18.819,lexical_decision_task_MP_exp2,2020.2.5,Win32,60,,z,1,0.800605,,,,,,,,0.800605,1,,,,,,440,NW,UN,16,cainky,SARIDE,z,,,,,,0.641318124,0.095690748,0,0,0,,0,374,374,439,1,,
,,,,,,,,,,,,,,,,,,56c9e4d9b30699000bd974a5,2020-11-27_15h06.18.819,lexical_decision_task_MP_exp2,2020.2.5,Win32,60,,m,1,0.664025,,,,,,,,0.664025,1,,,,,,95,WORD,"ID",16,thread,THREAD,m,,,,,,0.641318124,0.095690748,0,0,0,,0,375,375,94,1,,
,,,,,,,,,,,,,,,,,,56c9e4d9b30699000bd974a5,2020-11-27_15h06.18.819,lexical_decision_task_MP_exp2,2020.2.5,Win32,60,,z,1,0.6159,,,,,,,,0.6159,1,,,,,,318,NW,"ID",16,reagly,REAGLY,z,,,,,,0.641318124,0.095690748,0,0,0,,0,376,376,317,1,,
,,,,,,,,,,,,,,,,,,56c9e4d9b30699000bd974a5,2020-11-27_15h06.18.819,lexical_decision_task_MP_exp2,2020.2.5,Win32,60,,m,1,0.701485,,,,,,,,0.701485,1,,,,,,89,WORD,"ID",16,permit,PERMIT,m,,,,,,0.641318124,0.095690748,0,0,0,,0,377,377,88,1,,
,,,,,,,,,,,,,,,,,,56c9e4d9b30699000bd974a5,2020-11-27_15h06.18.819,lexical_decision_task_MP_exp2,2020.2.5,Win32,60,,m,1,0.769685,,,,,,,,0.769685,1,,,,,,93,WORD,"ID",16,public,PUBLIC,m,,,,,,0.641318124,0.095690748,0,0,0,,0,378,378,92,1,,
,,,,,,,,,,,,,,,,,,56c9e4d9b30699000bd974a5,2020-11-27_15h06.18.819,lexical_decision_task_MP_exp2,2020.2.5,Win32,60,,m,1,0.63331,,,,,,,,0.63331,1,,,,,,207,WORD,UN,16,hockey,WREATH,m,,,,,,0.641318124,0.095690748,0,0,0,,0,379,379,206,1,,
,,,,,,,,,,,,,,,,,,56c9e4d9b30699000bd974a5,2020-11-27_15h06.18.819,lexical_decision_task_MP_exp2,2020.2.5,Win32,60,,z,1,0.684565,,,,,,,,0.684565,1,,,,,,301,NW,"ID",16,fainch,FAINCH,z,,,,,,0.641318124,0.095690748,0,0,0,,0,380,380,300,1,,
,,,,,,,,,,,,,,,,,,56c9e4d9b30699000bd974a5,2020-11-27_15h06.18.819,lexical_decision_task_MP_exp2,2020.2.5,Win32,60,,m,1,0.738275,,,,,,,,0.738275,1,,,,,,105,WORD,"ID",16,number,NUMBER,m,,,,,,0.641318124,0.095690748,0,0,0,,0,381,381,104,1,,
,,,,,,,,,,,,,,,,,,56c9e4d9b30699000bd974a5,2020-11-27_15h06.18.819,lexical_decision_task_MP_exp2,2020.2.5,Win32,60,,z,1,0.75066,,,,,,,,0.75066,1,,,,,,446,NW,UN,16,gircue,RUNAMO,z,,,,,,0.641318124,0.095690748,0,0,0,,0,382,382,445,1,,
,,,,,,,,,,,,,,,,,,56c9e4d9b30699000bd974a5,2020-11-27_15h06.18.819,lexical_decision_task_MP_exp2,2020.2.5,Win32,60,,z,1,0.72024,,,,,,,,0.72024,1,,,,,,404,NW,UN,33,syntic,CLUIRM,z,,,,,,0.641318124,0.095690748,0,0,0,,0,383,383,403,1,,
,,,,,,,,,,,,,,,,,,56c9e4d9b30699000bd974a5,2020-11-27_15h06.18.819,lexical_decision_task_MP_exp2,2020.2.5,Win32,60,,z,1,0.63209,,,,,,,,0.63209,1,,,,,,400,NW,UN,33,mustil,WEAROX,z,,,,,,0.641318124,0.095690748,0,0,0,,0,384,384,399,1,,
,,,,,,,,,,,,,,,,,,56c9e4d9b30699000bd974a5,2020-11-27_15h06.18.819,lexical_decision_task_MP_exp2,2020.2.5,Win32,60,,z,1,0.60072,,,,,,,,0.60072,1,,,,,,427,NW,UN,16,tandly,SCHIND,z,,,,,,0.641318124,0.095690748,0,0,0,,0,385,385,426,1,,
,,,,,,,,,,,,,,,,,,56c9e4d9b30699000bd974a5,2020-11-27_15h06.18.819,lexical_decision_task_MP_exp2,2020.2.5,Win32,60,,z,1,0.61894,,,,,,,,0.61894,1,,,,,,258,NW,"ID",33,poluth,POLUTH,z,,,,,,0.641318124,0.095690748,0,0,0,,0,386,386,257,1,,
,,,,,,,,,,,,,,,,,,56c9e4d9b30699000bd974a5,2020-11-27_15h06.18.819,lexical_decision_task_MP_exp2,2020.2.5,Win32,60,,m,1,0.765965,,,,,,,,0.765965,1,,,,,,128,WORD,UN,33,marvel,SENIOR,m,,,,,,0.641318124,0.095690748,0,0,0,,0,387,387,127,1,,
,,,,,,,,,,,,,,,,,,56c9e4d9b30699000bd974a5,2020-11-27_15h06.18.819,lexical_decision_task_MP_exp2,2020.2.5,Win32,60,,m,1,0.57149,,,,,,,,0.57149,1,,,,,,57,WORD,"ID",33,change,CHANGE,m,,,,,,0.641318124,0.095690748,0,0,0,,0,388,388,56,1,,
,,,,,,,,,,,,,,,,,,56c9e4d9b30699000bd974a5,2020-11-27_15h06.18.819,lexical_decision_task_MP_exp2,2020.2.5,Win32,60,,m,1,0.65137,,,,,,,,0.65137,1,,,,,,138,WORD,UN,33,staple,MELODY,m,,,,,,0.641318124,0.095690748,0,0,0,,0,389,389,137,1,,
,,,,,,,,,,,,,,,,,,56c9e4d9b30699000bd974a5,2020-11-27_15h06.18.819,lexical_decision_task_MP_exp2,2020.2.5,Win32,60,,m,1,0.517445,,,,,,,,0.517445,1,,,,,,234,WORD,UN,16,lumber,CLUMSY,m,,,,,,0.641318124,0.095690748,0,0,0,,0,390,390,233,1,,
,,,,,,,,,,,,,,,,,,56c9e4d9b30699000bd974a5,2020-11-27_15h06.18.819,lexical_decision_task_MP_exp2,2020.2.5,Win32,60,,z,1,0.58206,,,,,,,,0.58206,1,,,,,,256,NW,"ID",33,inlors,INLORS,z,,,,,,0.641318124,0.095690748,0,0,0,,0,391,391,255,1,,
,,,,,,,,,,,,,,,,,,56c9e4d9b30699000bd974a5,2020-11-27_15h06.18.819,lexical_decision_task_MP_exp2,2020.2.5,Win32,60,,z,1,0.5983,,,,,,,,0.5983,1,,,,,,467,NW,UN,16,wictor,GORBIE,z,,,,,,0.641318124,0.095690748,0,0,0,,0,392,392,466,1,,
