counterbalancing_condition,instr_done_keyboard.keys,instr_done_keyboard.rt,instr_done_touch.x,instr_done_touch.y,instr_done_touch.leftButton,instr_done_touch.midButton,instr_done_touch.rightButton,instruction_pages.thisRepN,instruction_pages.thisTrialN,instruction_pages.thisN,instruction_pages.thisIndex,instruction_pages.ran,pageN,phase,instruct_text,has_image,instruct_image,participant,date,expName,psychopyVersion,OS,frameRate,response.keys,response.corr,response.rt,touch_resp.x,touch_resp.y,touch_resp.leftButton,touch_resp.midButton,touch_resp.rightButton,touch_resp.time,touch_resp.clicked_name,rt,corr,practice_trials.thisRepN,practice_trials.thisTrialN,practice_trials.thisN,practice_trials.thisIndex,practice_trials.ran,TrialID,StimulusType,Condition,PrimeDuration,Prime,Target,corrAns,end_of_practice_trials_pages.thisRepN,end_of_practice_trials_pages.thisTrialN,end_of_practice_trials_pages.thisN,end_of_practice_trials_pages.thisIndex,end_of_practice_trials_pages.ran,break_done_touch.x,break_done_touch.y,break_done_touch.leftButton,break_done_touch.midButton,break_done_touch.rightButton,break_done_keyboard.keys,experiment_trials.thisRepN,experiment_trials.thisTrialN,experiment_trials.thisN,experiment_trials.thisIndex,experiment_trials.ran,break_done_keyboard.rt
2,space,13.882065,0.092114427,-0.10759307,0,0,0,0,0,0,0,1,1,instructions,"INSTRUCTIONS
At the start of each trial, look at the hash marks (######) in the center of the screen. After a moment, a string of letters will appear. Your task is to indicate if the letter string forms a word or not (i.e., if it is a nonword). For example, AUTHOR is a word while AUTHON is a nonword.

Press the space bar or touch the button below to continue.",0,,571dd9b913b1b70009be2d86,2020-11-27_15h11.08.145,lexical_decision_task_MP_exp2,2020.2.5,MacIntel,60,,,,,,,,,,,,,,,,,,,,,,,,,,,,,,,,,,,,,,,,,
,space,16.153695,0.092114427,-0.10759307,0,0,0,0,1,1,1,1,2,instructions,"If your device has a keyboard, press the 'Z' key for nonwords and the 'M' key for words.





Press the space bar or touch the button below to continue.",1,keyboard-example.gif,571dd9b913b1b70009be2d86,2020-11-27_15h11.08.145,lexical_decision_task_MP_exp2,2020.2.5,MacIntel,60,,,,,,,,,,,,,,,,,,,,,,,,,,,,,,,,,,,,,,,,,
,space,1.513955,0.092114427,-0.10759307,0,0,0,0,2,2,2,1,3,instructions,"If you are using a touchscreen only device, use the buttons on the screen. Do not use the mouse.





Press the space bar or touch the button below to continue.",1,touchscreen-example.gif,571dd9b913b1b70009be2d86,2020-11-27_15h11.08.145,lexical_decision_task_MP_exp2,2020.2.5,MacIntel,60,,,,,,,,,,,,,,,,,,,,,,,,,,,,,,,,,,,,,,,,,
,space,4.86315,0.092114427,-0.10759307,0,0,0,0,3,3,3,1,4,instructions,"It is very important that you respond as quickly and accurately as possible, as each letter string will only be on the screen for two seconds. If you do not respond within this time, the message 'Too slow!' will be displayed and the experiment will progress to the next letter string. The first 20 trials will be practice trials and you will receive feedback on your answers. 

Press the space bar or touch the button below to start the practice trials.",0,,571dd9b913b1b70009be2d86,2020-11-27_15h11.08.145,lexical_decision_task_MP_exp2,2020.2.5,MacIntel,60,,,,,,,,,,,,,,,,,,,,,,,,,,,,,,,,,,,,,,,,,
,,,,,,,,,,,,,,,,,,571dd9b913b1b70009be2d86,2020-11-27_15h11.08.145,lexical_decision_task_MP_exp2,2020.2.5,MacIntel,60,m,1,1.40111,,,,,,,,1.40111,1,0,0,0,4,1,1005,WORD,UN,33,abound,SQUEAK,m,,,,,,,,,,,,,,,,,
,,,,,,,,,,,,,,,,,,571dd9b913b1b70009be2d86,2020-11-27_15h11.08.145,lexical_decision_task_MP_exp2,2020.2.5,MacIntel,60,z,1,0.88994,,,,,,,,0.88994,1,0,1,1,10,1,1011,NW,"ID",16,inlade,INLADE,z,,,,,,,,,,,,,,,,,
,,,,,,,,,,,,,,,,,,571dd9b913b1b70009be2d86,2020-11-27_15h11.08.145,lexical_decision_task_MP_exp2,2020.2.5,MacIntel,60,z,1,0.8418,,,,,,,,0.8418,1,0,2,2,13,1,1014,NW,UN,33,winfer,ROUPET,z,,,,,,,,,,,,,,,,,
,,,,,,,,,,,,,,,,,,571dd9b913b1b70009be2d86,2020-11-27_15h11.08.145,lexical_decision_task_MP_exp2,2020.2.5,MacIntel,60,m,1,0.80042,,,,,,,,0.80042,1,0,3,3,0,1,1001,WORD,"ID",33,utopia,UTOPIA,m,,,,,,,,,,,,,,,,,
,,,,,,,,,,,,,,,,,,571dd9b913b1b70009be2d86,2020-11-27_15h11.08.145,lexical_decision_task_MP_exp2,2020.2.5,MacIntel,60,z,1,0.90324,,,,,,,,0.90324,1,0,4,4,12,1,1013,NW,UN,33,adveil,SPRINY,z,,,,,,,,,,,,,,,,,
,,,,,,,,,,,,,,,,,,571dd9b913b1b70009be2d86,2020-11-27_15h11.08.145,lexical_decision_task_MP_exp2,2020.2.5,MacIntel,60,m,1,0.74973,,,,,,,,0.74973,1,0,5,5,7,1,1008,WORD,UN,16,hurdle,VOLUME,m,,,,,,,,,,,,,,,,,
,,,,,,,,,,,,,,,,,,571dd9b913b1b70009be2d86,2020-11-27_15h11.08.145,lexical_decision_task_MP_exp2,2020.2.5,MacIntel,60,z,1,0.77546,,,,,,,,0.77546,1,0,6,6,9,1,1010,NW,"ID",33,fariny,FARINY,z,,,,,,,,,,,,,,,,,
,,,,,,,,,,,,,,,,,,571dd9b913b1b70009be2d86,2020-11-27_15h11.08.145,lexical_decision_task_MP_exp2,2020.2.5,MacIntel,60,m,1,0.68484,,,,,,,,0.68484,1,0,7,7,6,1,1007,WORD,UN,16,tropic,ZOMBIE,m,,,,,,,,,,,,,,,,,
,,,,,,,,,,,,,,,,,,571dd9b913b1b70009be2d86,2020-11-27_15h11.08.145,lexical_decision_task_MP_exp2,2020.2.5,MacIntel,60,z,1,0.711695,,,,,,,,0.711695,1,0,8,8,11,1,1012,NW,"ID",16,rashet,RASHET,z,,,,,,,,,,,,,,,,,
,,,,,,,,,,,,,,,,,,571dd9b913b1b70009be2d86,2020-11-27_15h11.08.145,lexical_decision_task_MP_exp2,2020.2.5,MacIntel,60,z,1,0.90105,,,,,,,,0.90105,1,0,9,9,14,1,1015,NW,UN,16,miaber,THRALE,z,,,,,,,,,,,,,,,,,
,,,,,,,,,,,,,,,,,,571dd9b913b1b70009be2d86,2020-11-27_15h11.08.145,lexical_decision_task_MP_exp2,2020.2.5,MacIntel,60,m,1,0.823715,,,,,,,,0.823715,1,0,10,10,1,1,1002,WORD,"ID",33,adjust,ADJUST,m,,,,,,,,,,,,,,,,,
,,,,,,,,,,,,,,,,,,571dd9b913b1b70009be2d86,2020-11-27_15h11.08.145,lexical_decision_task_MP_exp2,2020.2.5,MacIntel,60,z,1,0.800605,,,,,,,,0.800605,1,0,11,11,15,1,1016,NW,UN,16,mushed,WHAISE,z,,,,,,,,,,,,,,,,,
,,,,,,,,,,,,,,,,,,571dd9b913b1b70009be2d86,2020-11-27_15h11.08.145,lexical_decision_task_MP_exp2,2020.2.5,MacIntel,60,m,1,0.69725,,,,,,,,0.69725,1,0,12,12,2,1,1003,WORD,"ID",16,almond,ALMOND,m,,,,,,,,,,,,,,,,,
,,,,,,,,,,,,,,,,,,571dd9b913b1b70009be2d86,2020-11-27_15h11.08.145,lexical_decision_task_MP_exp2,2020.2.5,MacIntel,60,m,1,0.688155,,,,,,,,0.688155,1,0,13,13,5,1,1006,WORD,UN,33,frenzy,OBTAIN,m,,,,,,,,,,,,,,,,,
,,,,,,,,,,,,,,,,,,571dd9b913b1b70009be2d86,2020-11-27_15h11.08.145,lexical_decision_task_MP_exp2,2020.2.5,MacIntel,60,z,1,0.86621,,,,,,,,0.86621,1,0,14,14,8,1,1009,NW,"ID",33,aslert,ASLERT,z,,,,,,,,,,,,,,,,,
,,,,,,,,,,,,,,,,,,571dd9b913b1b70009be2d86,2020-11-27_15h11.08.145,lexical_decision_task_MP_exp2,2020.2.5,MacIntel,60,m,1,0.652775,,,,,,,,0.652775,1,0,15,15,3,1,1004,WORD,"ID",16,matrix,MATRIX,m,,,,,,,,,,,,,,,,,
,space,5.38375,0.092114427,-0.10759307,0,0,0,,,,,,1,end_of_practice,"You have completed the practice trials. During the experimental trials, you will not receive feedback, but it is very important that you respond as quickly and accurately as possible. 
Before you begin, please ensure that you are in a comfortable and quiet location and will not be disturbed for about 15 minutes, as we cannot use your data if you do not complete all the trials. 
There will be opportunities to take breaks at regular intervals during the experiment. When you are ready to start the experimental trials, please press space or touch the button below.",,,571dd9b913b1b70009be2d86,2020-11-27_15h11.08.145,lexical_decision_task_MP_exp2,2020.2.5,MacIntel,60,,,,,,,,,,,,,,,,,,,,,,,,,0,0,0,0,1,,,,,,,,,,,,
,,,,,,,,,,,,,,,,,,571dd9b913b1b70009be2d86,2020-11-27_15h11.08.145,lexical_decision_task_MP_exp2,2020.2.5,MacIntel,60,m,1,0.93308,,,,,,,,0.93308,1,,,,,,84,WORD,"ID",33,mortal,MORTAL,m,,,,,,0.092114427,-0.10759307,0,0,0,,0,0,0,23,1,
,,,,,,,,,,,,,,,,,,571dd9b913b1b70009be2d86,2020-11-27_15h11.08.145,lexical_decision_task_MP_exp2,2020.2.5,MacIntel,60,z,1,0.69254,,,,,,,,0.69254,1,,,,,,451,NW,UN,33,surden,CAINKY,z,,,,,,0.092114427,-0.10759307,0,0,0,,0,1,1,390,1,
,,,,,,,,,,,,,,,,,,571dd9b913b1b70009be2d86,2020-11-27_15h11.08.145,lexical_decision_task_MP_exp2,2020.2.5,MacIntel,60,z,1,0.656115,,,,,,,,0.656115,1,,,,,,442,NW,UN,33,dorsex,ABOUNE,z,,,,,,0.092114427,-0.10759307,0,0,0,,0,2,2,381,1,
,,,,,,,,,,,,,,,,,,571dd9b913b1b70009be2d86,2020-11-27_15h11.08.145,lexical_decision_task_MP_exp2,2020.2.5,MacIntel,60,m,1,0.55268,,,,,,,,0.55268,1,,,,,,224,WORD,UN,33,vulgar,PERIOD,m,,,,,,0.092114427,-0.10759307,0,0,0,,0,3,3,163,1,
,,,,,,,,,,,,,,,,,,571dd9b913b1b70009be2d86,2020-11-27_15h11.08.145,lexical_decision_task_MP_exp2,2020.2.5,MacIntel,60,z,1,0.71438,,,,,,,,0.71438,1,,,,,,300,NW,UN,16,smenco,YARION,z,,,,,,0.092114427,-0.10759307,0,0,0,,0,4,4,479,1,
,,,,,,,,,,,,,,,,,,571dd9b913b1b70009be2d86,2020-11-27_15h11.08.145,lexical_decision_task_MP_exp2,2020.2.5,MacIntel,60,z,1,0.761085,,,,,,,,0.761085,1,,,,,,383,NW,"ID",16,aungre,AUNGRE,z,,,,,,0.092114427,-0.10759307,0,0,0,,0,5,5,322,1,
,,,,,,,,,,,,,,,,,,571dd9b913b1b70009be2d86,2020-11-27_15h11.08.145,lexical_decision_task_MP_exp2,2020.2.5,MacIntel,60,z,1,0.696115,,,,,,,,0.696115,1,,,,,,333,NW,"ID",33,catrie,CATRIE,z,,,,,,0.092114427,-0.10759307,0,0,0,,0,6,6,272,1,
,,,,,,,,,,,,,,,,,,571dd9b913b1b70009be2d86,2020-11-27_15h11.08.145,lexical_decision_task_MP_exp2,2020.2.5,MacIntel,60,z,1,0.87794,,,,,,,,0.87794,1,,,,,,467,NW,UN,33,wictor,GORBIE,z,,,,,,0.092114427,-0.10759307,0,0,0,,0,7,7,406,1,
,,,,,,,,,,,,,,,,,,571dd9b913b1b70009be2d86,2020-11-27_15h11.08.145,lexical_decision_task_MP_exp2,2020.2.5,MacIntel,60,z,1,0.625735,,,,,,,,0.625735,1,,,,,,317,NW,"ID",33,worbal,WORBAL,z,,,,,,0.092114427,-0.10759307,0,0,0,,0,8,8,256,1,
,,,,,,,,,,,,,,,,,,571dd9b913b1b70009be2d86,2020-11-27_15h11.08.145,lexical_decision_task_MP_exp2,2020.2.5,MacIntel,60,m,1,0.56658,,,,,,,,0.56658,1,,,,,,103,WORD,"ID",33,bounce,BOUNCE,m,,,,,,0.092114427,-0.10759307,0,0,0,,0,9,9,42,1,
,,,,,,,,,,,,,,,,,,571dd9b913b1b70009be2d86,2020-11-27_15h11.08.145,lexical_decision_task_MP_exp2,2020.2.5,MacIntel,60,m,1,0.534645,,,,,,,,0.534645,1,,,,,,80,WORD,"ID",33,family,FAMILY,m,,,,,,0.092114427,-0.10759307,0,0,0,,0,10,10,19,1,
,,,,,,,,,,,,,,,,,,571dd9b913b1b70009be2d86,2020-11-27_15h11.08.145,lexical_decision_task_MP_exp2,2020.2.5,MacIntel,60,z,1,0.6324,,,,,,,,0.6324,1,,,,,,477,NW,UN,33,lobush,PHOTIE,z,,,,,,0.092114427,-0.10759307,0,0,0,,0,11,11,416,1,
,,,,,,,,,,,,,,,,,,571dd9b913b1b70009be2d86,2020-11-27_15h11.08.145,lexical_decision_task_MP_exp2,2020.2.5,MacIntel,60,m,1,0.616625,,,,,,,,0.616625,1,,,,,,109,WORD,"ID",33,wonder,WONDER,m,,,,,,0.092114427,-0.10759307,0,0,0,,0,12,12,48,1,
,,,,,,,,,,,,,,,,,,571dd9b913b1b70009be2d86,2020-11-27_15h11.08.145,lexical_decision_task_MP_exp2,2020.2.5,MacIntel,60,m,1,0.633485,,,,,,,,0.633485,1,,,,,,152,WORD,"ID",16,rocket,ROCKET,m,,,,,,0.092114427,-0.10759307,0,0,0,,0,13,13,91,1,
,,,,,,,,,,,,,,,,,,571dd9b913b1b70009be2d86,2020-11-27_15h11.08.145,lexical_decision_task_MP_exp2,2020.2.5,MacIntel,60,z,1,0.771725,,,,,,,,0.771725,1,,,,,,266,NW,UN,16,pasink,VARMIT,z,,,,,,0.092114427,-0.10759307,0,0,0,,0,14,14,445,1,
,,,,,,,,,,,,,,,,,,571dd9b913b1b70009be2d86,2020-11-27_15h11.08.145,lexical_decision_task_MP_exp2,2020.2.5,MacIntel,60,z,1,0.900125,,,,,,,,0.900125,1,,,,,,425,NW,UN,33,urivel,FRUDGE,z,,,,,,0.092114427,-0.10759307,0,0,0,,0,15,15,364,1,
,,,,,,,,,,,,,,,,,,571dd9b913b1b70009be2d86,2020-11-27_15h11.08.145,lexical_decision_task_MP_exp2,2020.2.5,MacIntel,60,z,1,0.602445,,,,,,,,0.602445,1,,,,,,245,NW,UN,16,piaton,ANOUGS,z,,,,,,0.092114427,-0.10759307,0,0,0,,0,16,16,424,1,
,,,,,,,,,,,,,,,,,,571dd9b913b1b70009be2d86,2020-11-27_15h11.08.145,lexical_decision_task_MP_exp2,2020.2.5,MacIntel,60,m,1,0.566765,,,,,,,,0.566765,1,,,,,,83,WORD,"ID",33,result,RESULT,m,,,,,,0.092114427,-0.10759307,0,0,0,,0,17,17,22,1,
,,,,,,,,,,,,,,,,,,571dd9b913b1b70009be2d86,2020-11-27_15h11.08.145,lexical_decision_task_MP_exp2,2020.2.5,MacIntel,60,z,1,0.66955,,,,,,,,0.66955,1,,,,,,391,NW,"ID",16,theldy,THELDY,z,,,,,,0.092114427,-0.10759307,0,0,0,,0,18,18,330,1,
,,,,,,,,,,,,,,,,,,571dd9b913b1b70009be2d86,2020-11-27_15h11.08.145,lexical_decision_task_MP_exp2,2020.2.5,MacIntel,60,m,1,0.63111,,,,,,,,0.63111,1,,,,,,64,WORD,"ID",33,throne,THRONE,m,,,,,,0.092114427,-0.10759307,0,0,0,,0,19,19,3,1,
,,,,,,,,,,,,,,,,,,571dd9b913b1b70009be2d86,2020-11-27_15h11.08.145,lexical_decision_task_MP_exp2,2020.2.5,MacIntel,60,m,1,0.637795,,,,,,,,0.637795,1,,,,,,123,WORD,"ID",16,strike,STRIKE,m,,,,,,0.092114427,-0.10759307,0,0,0,,0,20,20,62,1,
,,,,,,,,,,,,,,,,,,571dd9b913b1b70009be2d86,2020-11-27_15h11.08.145,lexical_decision_task_MP_exp2,2020.2.5,MacIntel,60,m,1,0.585385,,,,,,,,0.585385,1,,,,,,202,WORD,UN,33,phrase,FACTOR,m,,,,,,0.092114427,-0.10759307,0,0,0,,0,21,21,141,1,
,,,,,,,,,,,,,,,,,,571dd9b913b1b70009be2d86,2020-11-27_15h11.08.145,lexical_decision_task_MP_exp2,2020.2.5,MacIntel,60,m,1,0.565355,,,,,,,,0.565355,1,,,,,,21,WORD,UN,16,jockey,SIMPLE,m,,,,,,0.092114427,-0.10759307,0,0,0,,0,22,22,200,1,
,,,,,,,,,,,,,,,,,,571dd9b913b1b70009be2d86,2020-11-27_15h11.08.145,lexical_decision_task_MP_exp2,2020.2.5,MacIntel,60,z,1,0.755225,,,,,,,,0.755225,1,,,,,,261,NW,UN,16,quilew,STUNCH,z,,,,,,0.092114427,-0.10759307,0,0,0,,0,23,23,440,1,
,,,,,,,,,,,,,,,,,,571dd9b913b1b70009be2d86,2020-11-27_15h11.08.145,lexical_decision_task_MP_exp2,2020.2.5,MacIntel,60,z,1,0.70694,,,,,,,,0.70694,1,,,,,,400,NW,"ID",16,wearox,WEAROX,z,,,,,,0.092114427,-0.10759307,0,0,0,,0,24,24,339,1,
,,,,,,,,,,,,,,,,,,571dd9b913b1b70009be2d86,2020-11-27_15h11.08.145,lexical_decision_task_MP_exp2,2020.2.5,MacIntel,60,m,1,0.5663,,,,,,,,0.5663,1,,,,,,188,WORD,UN,33,censor,SOCIAL,m,,,,,,0.092114427,-0.10759307,0,0,0,,0,25,25,127,1,
,,,,,,,,,,,,,,,,,,571dd9b913b1b70009be2d86,2020-11-27_15h11.08.145,lexical_decision_task_MP_exp2,2020.2.5,MacIntel,60,z,1,0.628945,,,,,,,,0.628945,1,,,,,,296,NW,UN,16,fertic,BEINCH,z,,,,,,0.092114427,-0.10759307,0,0,0,,0,26,26,475,1,
,,,,,,,,,,,,,,,,,,571dd9b913b1b70009be2d86,2020-11-27_15h11.08.145,lexical_decision_task_MP_exp2,2020.2.5,MacIntel,60,m,1,0.542005,,,,,,,,0.542005,1,,,,,,27,WORD,UN,16,comedy,SCREAM,m,,,,,,0.092114427,-0.10759307,0,0,0,,0,27,27,206,1,
,,,,,,,,,,,,,,,,,,571dd9b913b1b70009be2d86,2020-11-27_15h11.08.145,lexical_decision_task_MP_exp2,2020.2.5,MacIntel,60,z,1,0.62387,,,,,,,,0.62387,1,,,,,,441,NW,UN,33,aboune,RASTOE,z,,,,,,0.092114427,-0.10759307,0,0,0,,0,28,28,380,1,
,,,,,,,,,,,,,,,,,,571dd9b913b1b70009be2d86,2020-11-27_15h11.08.145,lexical_decision_task_MP_exp2,2020.2.5,MacIntel,60,z,1,0.8853,,,,,,,,0.8853,1,,,,,,433,NW,UN,33,pitrom,DRANCE,z,,,,,,0.092114427,-0.10759307,0,0,0,,0,29,29,372,1,
,,,,,,,,,,,,,,,,,,571dd9b913b1b70009be2d86,2020-11-27_15h11.08.145,lexical_decision_task_MP_exp2,2020.2.5,MacIntel,60,m,1,0.7302,,,,,,,,0.7302,1,,,,,,115,WORD,"ID",33,guitar,GUITAR,m,,,,,,0.092114427,-0.10759307,0,0,0,,0,30,30,54,1,
,,,,,,,,,,,,,,,,,,571dd9b913b1b70009be2d86,2020-11-27_15h11.08.145,lexical_decision_task_MP_exp2,2020.2.5,MacIntel,60,z,1,0.614305,,,,,,,,0.614305,1,,,,,,289,NW,UN,16,splino,STARBY,z,,,,,,0.092114427,-0.10759307,0,0,0,,0,31,31,468,1,
,,,,,,,,,,,,,,,,,,571dd9b913b1b70009be2d86,2020-11-27_15h11.08.145,lexical_decision_task_MP_exp2,2020.2.5,MacIntel,60,z,1,0.57365,,,,,,,,0.57365,1,,,,,,256,NW,UN,16,veniod,INLORS,z,,,,,,0.092114427,-0.10759307,0,0,0,,0,32,32,435,1,
,,,,,,,,,,,,,,,,,,571dd9b913b1b70009be2d86,2020-11-27_15h11.08.145,lexical_decision_task_MP_exp2,2020.2.5,MacIntel,60,m,1,0.70448,,,,,,,,0.70448,1,,,,,,10,WORD,UN,16,cruise,ETHNIC,m,,,,,,0.092114427,-0.10759307,0,0,0,,0,33,33,189,1,
,,,,,,,,,,,,,,,,,,571dd9b913b1b70009be2d86,2020-11-27_15h11.08.145,lexical_decision_task_MP_exp2,2020.2.5,MacIntel,60,m,1,0.550065,,,,,,,,0.550065,1,,,,,,142,WORD,"ID",16,spruce,SPRUCE,m,,,,,,0.092114427,-0.10759307,0,0,0,,0,34,34,81,1,
,,,,,,,,,,,,,,,,,,571dd9b913b1b70009be2d86,2020-11-27_15h11.08.145,lexical_decision_task_MP_exp2,2020.2.5,MacIntel,60,m,1,0.63715,,,,,,,,0.63715,1,,,,,,201,WORD,UN,33,factor,ADMIRE,m,,,,,,0.092114427,-0.10759307,0,0,0,,0,35,35,140,1,
,,,,,,,,,,,,,,,,,,571dd9b913b1b70009be2d86,2020-11-27_15h11.08.145,lexical_decision_task_MP_exp2,2020.2.5,MacIntel,60,m,1,0.64032,,,,,,,,0.64032,1,,,,,,190,WORD,UN,33,stable,BACKUP,m,,,,,,0.092114427,-0.10759307,0,0,0,,0,36,36,129,1,
,,,,,,,,,,,,,,,,,,571dd9b913b1b70009be2d86,2020-11-27_15h11.08.145,lexical_decision_task_MP_exp2,2020.2.5,MacIntel,60,m,1,0.638495,,,,,,,,0.638495,1,,,,,,44,WORD,UN,16,clergy,DANGER,m,,,,,,0.092114427,-0.10759307,0,0,0,,0,37,37,223,1,
,,,,,,,,,,,,,,,,,,571dd9b913b1b70009be2d86,2020-11-27_15h11.08.145,lexical_decision_task_MP_exp2,2020.2.5,MacIntel,60,m,1,0.60253,,,,,,,,0.60253,1,,,,,,34,WORD,UN,16,socket,JUNGLE,m,,,,,,0.092114427,-0.10759307,0,0,0,,0,38,38,213,1,
,,,,,,,,,,,,,,,,,,571dd9b913b1b70009be2d86,2020-11-27_15h11.08.145,lexical_decision_task_MP_exp2,2020.2.5,MacIntel,60,z,1,0.667195,,,,,,,,0.667195,1,,,,,,365,NW,"ID",16,guairt,GUAIRT,z,,,,,,0.092114427,-0.10759307,0,0,0,,0,39,39,304,1,
,,,,,,,,,,,,,,,,,,571dd9b913b1b70009be2d86,2020-11-27_15h11.08.145,lexical_decision_task_MP_exp2,2020.2.5,MacIntel,60,m,1,0.87235,,,,,,,,0.87235,1,,,,,,7,WORD,UN,16,abrupt,ANCHOR,m,,,,,,0.092114427,-0.10759307,0,0,0,,0,40,40,186,1,
,,,,,,,,,,,,,,,,,,571dd9b913b1b70009be2d86,2020-11-27_15h11.08.145,lexical_decision_task_MP_exp2,2020.2.5,MacIntel,60,z,1,0.924095,,,,,,,,0.924095,1,,,,,,426,NW,UN,33,schind,URIVEL,z,,,,,,0.092114427,-0.10759307,0,0,0,,0,41,41,365,1,
,,,,,,,,,,,,,,,,,,571dd9b913b1b70009be2d86,2020-11-27_15h11.08.145,lexical_decision_task_MP_exp2,2020.2.5,MacIntel,60,z,1,0.83535,,,,,,,,0.83535,1,,,,,,325,NW,"ID",33,thruse,THRUSE,z,,,,,,0.092114427,-0.10759307,0,0,0,,0,42,42,264,1,
,,,,,,,,,,,,,,,,,,571dd9b913b1b70009be2d86,2020-11-27_15h11.08.145,lexical_decision_task_MP_exp2,2020.2.5,MacIntel,60,m,1,0.51953,,,,,,,,0.51953,1,,,,,,126,WORD,"ID",16,enough,ENOUGH,m,,,,,,0.092114427,-0.10759307,0,0,0,,0,43,43,65,1,
,,,,,,,,,,,,,,,,,,571dd9b913b1b70009be2d86,2020-11-27_15h11.08.145,lexical_decision_task_MP_exp2,2020.2.5,MacIntel,60,z,0,1.51795,,,,,,,,1.51795,0,,,,,,236,WORD,UN,33,grumpy,PIRATE,m,,,,,,0.092114427,-0.10759307,0,0,0,,0,44,44,175,1,
,,,,,,,,,,,,,,,,,,571dd9b913b1b70009be2d86,2020-11-27_15h11.08.145,lexical_decision_task_MP_exp2,2020.2.5,MacIntel,60,m,1,0.732975,,,,,,,,0.732975,1,,,,,,8,WORD,UN,16,hustle,ABRUPT,m,,,,,,0.092114427,-0.10759307,0,0,0,,0,45,45,187,1,
,,,,,,,,,,,,,,,,,,571dd9b913b1b70009be2d86,2020-11-27_15h11.08.145,lexical_decision_task_MP_exp2,2020.2.5,MacIntel,60,m,1,0.830115,,,,,,,,0.830115,1,,,,,,204,WORD,UN,33,lounge,BURDEN,m,,,,,,0.092114427,-0.10759307,0,0,0,,0,46,46,143,1,
,,,,,,,,,,,,,,,,,,571dd9b913b1b70009be2d86,2020-11-27_15h11.08.145,lexical_decision_task_MP_exp2,2020.2.5,MacIntel,60,m,1,0.53703,,,,,,,,0.53703,1,,,,,,43,WORD,UN,16,foster,TONGUE,m,,,,,,0.092114427,-0.10759307,0,0,0,,0,47,47,222,1,
,,,,,,,,,,,,,,,,,,571dd9b913b1b70009be2d86,2020-11-27_15h11.08.145,lexical_decision_task_MP_exp2,2020.2.5,MacIntel,60,m,1,0.908265,,,,,,,,0.908265,1,,,,,,172,WORD,"ID",16,patrol,PATROL,m,,,,,,0.092114427,-0.10759307,0,0,0,,0,48,48,111,1,
,,,,,,,,,,,,,,,,,,571dd9b913b1b70009be2d86,2020-11-27_15h11.08.145,lexical_decision_task_MP_exp2,2020.2.5,MacIntel,60,m,1,0.7227,,,,,,,,0.7227,1,,,,,,131,WORD,"ID",16,quench,QUENCH,m,,,,,,0.092114427,-0.10759307,0,0,0,,0,49,49,70,1,
,,,,,,,,,,,,,,,,,,571dd9b913b1b70009be2d86,2020-11-27_15h11.08.145,lexical_decision_task_MP_exp2,2020.2.5,MacIntel,60,z,1,0.850555,,,,,,,,0.850555,1,,,,,,332,NW,"ID",33,vangue,VANGUE,z,,,,,,0.092114427,-0.10759307,0,0,0,,0,50,50,271,1,
,,,,,,,,,,,,,,,,,,571dd9b913b1b70009be2d86,2020-11-27_15h11.08.145,lexical_decision_task_MP_exp2,2020.2.5,MacIntel,60,z,1,0.744705,,,,,,,,0.744705,1,,,,,,379,NW,"ID",16,auting,AUTING,z,,,,,,0.092114427,-0.10759307,0,0,0,,0,51,51,318,1,
,,,,,,,,,,,,,,,,,,571dd9b913b1b70009be2d86,2020-11-27_15h11.08.145,lexical_decision_task_MP_exp2,2020.2.5,MacIntel,60,m,1,0.56904,,,,,,,,0.56904,1,,,,,,238,WORD,UN,33,behalf,FLOWER,m,,,,,,0.092114427,-0.10759307,0,0,0,,0,52,52,177,1,
,,,,,,,,,,,,,,,,,,571dd9b913b1b70009be2d86,2020-11-27_15h11.08.145,lexical_decision_task_MP_exp2,2020.2.5,MacIntel,60,m,1,0.57072,,,,,,,,0.57072,1,,,,,,182,WORD,UN,33,absent,WINTER,m,,,,,,0.092114427,-0.10759307,0,0,0,,0,53,53,121,1,
,,,,,,,,,,,,,,,,,,571dd9b913b1b70009be2d86,2020-11-27_15h11.08.145,lexical_decision_task_MP_exp2,2020.2.5,MacIntel,60,m,1,0.505455,,,,,,,,0.505455,1,,,,,,143,WORD,"ID",16,reason,REASON,m,,,,,,0.092114427,-0.10759307,0,0,0,,0,54,54,82,1,
,,,,,,,,,,,,,,,,,,571dd9b913b1b70009be2d86,2020-11-27_15h11.08.145,lexical_decision_task_MP_exp2,2020.2.5,MacIntel,60,z,1,0.58202,,,,,,,,0.58202,1,,,,,,362,NW,"ID",16,tireau,TIREAU,z,,,,,,0.092114427,-0.10759307,0,0,0,,0,55,55,301,1,
,,,,,,,,,,,,,,,,,,571dd9b913b1b70009be2d86,2020-11-27_15h11.08.145,lexical_decision_task_MP_exp2,2020.2.5,MacIntel,60,m,1,0.57759,,,,,,,,0.57759,1,,,,,,85,WORD,"ID",33,sprawl,SPRAWL,m,,,,,,0.092114427,-0.10759307,0,0,0,,0,56,56,24,1,
,,,,,,,,,,,,,,,,,,571dd9b913b1b70009be2d86,2020-11-27_15h11.08.145,lexical_decision_task_MP_exp2,2020.2.5,MacIntel,60,z,1,0.5827,,,,,,,,0.5827,1,,,,,,331,NW,"ID",33,gilfew,GILFEW,z,,,,,,0.092114427,-0.10759307,0,0,0,,0,57,57,270,1,
,,,,,,,,,,,,,,,,,,571dd9b913b1b70009be2d86,2020-11-27_15h11.08.145,lexical_decision_task_MP_exp2,2020.2.5,MacIntel,60,z,1,0.621865,,,,,,,,0.621865,1,,,,,,411,NW,"ID",16,orchin,ORCHIN,z,,,,,,0.092114427,-0.10759307,0,0,0,,0,58,58,350,1,
,,,,,,,,,,,,,,,,,,571dd9b913b1b70009be2d86,2020-11-27_15h11.08.145,lexical_decision_task_MP_exp2,2020.2.5,MacIntel,60,m,1,0.74667,,,,,,,,0.74667,1,,,,,,189,WORD,UN,33,backup,CENSOR,m,,,,,,0.092114427,-0.10759307,0,0,0,,0,59,59,128,1,
,,,,,,,,,,,,,,,,,,571dd9b913b1b70009be2d86,2020-11-27_15h11.08.145,lexical_decision_task_MP_exp2,2020.2.5,MacIntel,60,m,1,0.55154,,,,,,,,0.55154,1,,,,,,162,WORD,"ID",16,candle,CANDLE,m,,,,,,0.092114427,-0.10759307,0,0,0,,0,60,60,101,1,
,,,,,,,,,,,,,,,,,,571dd9b913b1b70009be2d86,2020-11-27_15h11.08.145,lexical_decision_task_MP_exp2,2020.2.5,MacIntel,60,m,0,0.604265,,,,,,,,0.604265,0,,,,,,461,NW,UN,33,absult,JUSTRE,z,,,,,,0.092114427,-0.10759307,0,0,0,,0,61,61,400,1,
,,,,,,,,,,,,,,,,,,571dd9b913b1b70009be2d86,2020-11-27_15h11.08.145,lexical_decision_task_MP_exp2,2020.2.5,MacIntel,60,z,1,0.843805,,,,,,,,0.843805,1,,,,,,357,NW,"ID",33,derain,DERAIN,z,,,,,,0.092114427,-0.10759307,0,0,0,,0,62,62,296,1,
,,,,,,,,,,,,,,,,,,571dd9b913b1b70009be2d86,2020-11-27_15h11.08.145,lexical_decision_task_MP_exp2,2020.2.5,MacIntel,60,m,1,0.580875,,,,,,,,0.580875,1,,,,,,101,WORD,"ID",33,wrench,WRENCH,m,,,,,,0.092114427,-0.10759307,0,0,0,,0,63,63,40,1,
,,,,,,,,,,,,,,,,,,571dd9b913b1b70009be2d86,2020-11-27_15h11.08.145,lexical_decision_task_MP_exp2,2020.2.5,MacIntel,60,z,1,0.643465,,,,,,,,0.643465,1,,,,,,460,NW,UN,33,justre,MINGAR,z,,,,,,0.092114427,-0.10759307,0,0,0,,0,64,64,399,1,
,,,,,,,,,,,,,,,,,,571dd9b913b1b70009be2d86,2020-11-27_15h11.08.145,lexical_decision_task_MP_exp2,2020.2.5,MacIntel,60,z,1,0.703115,,,,,,,,0.703115,1,,,,,,440,NW,UN,33,rastoe,SARIDE,z,,,,,,0.092114427,-0.10759307,0,0,0,,0,65,65,379,1,
,,,,,,,,,,,,,,,,,,571dd9b913b1b70009be2d86,2020-11-27_15h11.08.145,lexical_decision_task_MP_exp2,2020.2.5,MacIntel,60,m,1,1.13243,,,,,,,,1.13243,1,,,,,,128,WORD,"ID",16,senior,SENIOR,m,,,,,,0.092114427,-0.10759307,0,0,0,,0,66,66,67,1,
,,,,,,,,,,,,,,,,,,571dd9b913b1b70009be2d86,2020-11-27_15h11.08.145,lexical_decision_task_MP_exp2,2020.2.5,MacIntel,60,m,1,0.51494,,,,,,,,0.51494,1,,,,,,41,WORD,UN,16,chapel,SPRING,m,,,,,,0.092114427,-0.10759307,0,0,0,,0,67,67,220,1,
,,,,,,,,,,,,,,,,,,571dd9b913b1b70009be2d86,2020-11-27_15h11.08.145,lexical_decision_task_MP_exp2,2020.2.5,MacIntel,60,z,1,0.576755,,,,,,,,0.576755,1,,,,,,394,NW,"ID",16,spaqux,SPAQUX,z,,,,,,0.092114427,-0.10759307,0,0,0,,0,68,68,333,1,
,,,,,,,,,,,,,,,,,,571dd9b913b1b70009be2d86,2020-11-27_15h11.08.145,lexical_decision_task_MP_exp2,2020.2.5,MacIntel,60,m,1,0.55008,,,,,,,,0.55008,1,,,,,,134,WORD,"ID",16,staple,STAPLE,m,,,,,,0.092114427,-0.10759307,0,0,0,,0,69,69,73,1,
,,,,,,,,,,,,,,,,,,571dd9b913b1b70009be2d86,2020-11-27_15h11.08.145,lexical_decision_task_MP_exp2,2020.2.5,MacIntel,60,m,1,0.672385,,,,,,,,0.672385,1,,,,,,157,WORD,"ID",16,dragon,DRAGON,m,,,,,,0.092114427,-0.10759307,0,0,0,,0,70,70,96,1,
,,,,,,,,,,,,,,,,,,571dd9b913b1b70009be2d86,2020-11-27_15h11.08.145,lexical_decision_task_MP_exp2,2020.2.5,MacIntel,60,z,1,0.68074,,,,,,,,0.68074,1,,,,,,280,NW,UN,16,melaty,CURBOL,z,,,,,,0.092114427,-0.10759307,0,0,0,,0,71,71,459,1,
,,,,,,,,,,,,,,,,,,571dd9b913b1b70009be2d86,2020-11-27_15h11.08.145,lexical_decision_task_MP_exp2,2020.2.5,MacIntel,60,z,1,0.949695,,,,,,,,0.949695,1,,,,,,321,NW,"ID",33,miator,MIATOR,z,,,,,,0.092114427,-0.10759307,0,0,0,,0,72,72,260,1,
,,,,,,,,,,,,,,,,,,571dd9b913b1b70009be2d86,2020-11-27_15h11.08.145,lexical_decision_task_MP_exp2,2020.2.5,MacIntel,60,z,1,0.700515,,,,,,,,0.700515,1,,,,,,243,NW,UN,16,eatric,MUSIED,z,,,,,,0.092114427,-0.10759307,0,0,0,,0,73,73,422,1,
,,,,,,,,,,,,,,,,,,571dd9b913b1b70009be2d86,2020-11-27_15h11.08.145,lexical_decision_task_MP_exp2,2020.2.5,MacIntel,60,z,1,0.561875,,,,,,,,0.561875,1,,,,,,278,NW,UN,16,celond,UNIGHS,z,,,,,,0.092114427,-0.10759307,0,0,0,,0,74,74,457,1,
,,,,,,,,,,,,,,,,,,571dd9b913b1b70009be2d86,2020-11-27_15h11.08.145,lexical_decision_task_MP_exp2,2020.2.5,MacIntel,60,z,1,0.609335,,,,,,,,0.609335,1,,,,,,242,NW,UN,16,musied,UNWERT,z,,,,,,0.092114427,-0.10759307,0,0,0,,0,75,75,421,1,
,,,,,,,,,,,,,,,,,,571dd9b913b1b70009be2d86,2020-11-27_15h11.08.145,lexical_decision_task_MP_exp2,2020.2.5,MacIntel,60,m,1,0.63064,,,,,,,,0.63064,1,,,,,,33,WORD,UN,16,jungle,BUTLER,m,,,,,,0.092114427,-0.10759307,0,0,0,,0,76,76,212,1,
,,,,,,,,,,,,,,,,,,571dd9b913b1b70009be2d86,2020-11-27_15h11.08.145,lexical_decision_task_MP_exp2,2020.2.5,MacIntel,60,z,1,0.71433,,,,,,,,0.71433,1,,,,,,427,NW,UN,33,tandly,SCHIND,z,,,,,,0.092114427,-0.10759307,0,0,0,,0,77,77,366,1,
,,,,,,,,,,,,,,,,,,571dd9b913b1b70009be2d86,2020-11-27_15h11.08.145,lexical_decision_task_MP_exp2,2020.2.5,MacIntel,60,m,1,0.516875,,,,,,,,0.516875,1,,,,,,193,WORD,UN,33,mildew,OBJECT,m,,,,,,0.092114427,-0.10759307,0,0,0,,0,78,78,132,1,
,,,,,,,,,,,,,,,,,,571dd9b913b1b70009be2d86,2020-11-27_15h11.08.145,lexical_decision_task_MP_exp2,2020.2.5,MacIntel,60,m,1,0.553395,,,,,,,,0.553395,1,,,,,,137,WORD,"ID",16,finger,FINGER,m,,,,,,0.092114427,-0.10759307,0,0,0,,0,79,79,76,1,
,,,,,,,,,,,,,,,,,,571dd9b913b1b70009be2d86,2020-11-27_15h11.08.145,lexical_decision_task_MP_exp2,2020.2.5,MacIntel,60,z,1,0.564535,,,,,,,,0.564535,1,,,,,,349,NW,"ID",33,asylen,ASYLEN,z,,,,,,0.092114427,-0.10759307,0,0,0,,0,80,80,288,1,
,,,,,,,,,,,,,,,,,,571dd9b913b1b70009be2d86,2020-11-27_15h11.08.145,lexical_decision_task_MP_exp2,2020.2.5,MacIntel,60,m,1,0.55286,,,,,,,,0.55286,1,,,,,,233,WORD,UN,33,clumsy,NATURE,m,,,,,,0.092114427,-0.10759307,0,0,0,,0,81,81,172,1,
,,,,,,,,,,,,,,,,,,571dd9b913b1b70009be2d86,2020-11-27_15h11.08.145,lexical_decision_task_MP_exp2,2020.2.5,MacIntel,60,z,1,0.86981,,,,,,,,0.86981,1,,,,,,398,NW,"ID",16,blunde,BLUNDE,z,,,,,,0.092114427,-0.10759307,0,0,0,,0,82,82,337,1,
,,,,,,,,,,,,,,,,,,571dd9b913b1b70009be2d86,2020-11-27_15h11.08.145,lexical_decision_task_MP_exp2,2020.2.5,MacIntel,60,z,1,1.089015,,,,,,,,1.089015,1,,,,,,309,NW,"ID",33,amiloy,AMILOY,z,,,,,,0.092114427,-0.10759307,0,0,0,,0,83,83,248,1,
,,,,,,,,,,,,,,,,,,571dd9b913b1b70009be2d86,2020-11-27_15h11.08.145,lexical_decision_task_MP_exp2,2020.2.5,MacIntel,60,m,1,0.665695,,,,,,,,0.665695,1,,,,,,184,WORD,UN,33,bother,SLEAZY,m,,,,,,0.092114427,-0.10759307,0,0,0,,0,84,84,123,1,
,,,,,,,,,,,,,,,,,,571dd9b913b1b70009be2d86,2020-11-27_15h11.08.145,lexical_decision_task_MP_exp2,2020.2.5,MacIntel,60,z,1,0.69255,,,,,,,,0.69255,1,,,,,,463,NW,UN,33,chaite,KISPEL,z,,,,,,0.092114427,-0.10759307,0,0,0,,0,85,85,402,1,
,,,,,,,,,,,,,,,,,,571dd9b913b1b70009be2d86,2020-11-27_15h11.08.145,lexical_decision_task_MP_exp2,2020.2.5,MacIntel,60,z,1,0.668925,,,,,,,,0.668925,1,,,,,,318,NW,"ID",33,reagly,REAGLY,z,,,,,,0.092114427,-0.10759307,0,0,0,,0,86,86,257,1,
,,,,,,,,,,,,,,,,,,571dd9b913b1b70009be2d86,2020-11-27_15h11.08.145,lexical_decision_task_MP_exp2,2020.2.5,MacIntel,60,m,1,0.569945,,,,,,,,0.569945,1,,,,,,120,WORD,"ID",33,strain,STRAIN,m,,,,,,0.092114427,-0.10759307,0,0,0,,0,87,87,59,1,
,,,,,,,,,,,,,,,,,,571dd9b913b1b70009be2d86,2020-11-27_15h11.08.145,lexical_decision_task_MP_exp2,2020.2.5,MacIntel,60,z,1,0.567,,,,,,,,0.567,1,,,,,,375,NW,"ID",16,yorque,YORQUE,z,,,,,,0.092114427,-0.10759307,0,0,0,,0,88,88,314,1,
,,,,,,,,,,,,,,,,,,571dd9b913b1b70009be2d86,2020-11-27_15h11.08.145,lexical_decision_task_MP_exp2,2020.2.5,MacIntel,60,z,1,0.586515,,,,,,,,0.586515,1,,,,,,255,NW,UN,16,inlors,APIGHT,z,,,,,,0.092114427,-0.10759307,0,0,0,,0,89,89,434,1,
,,,,,,,,,,,,,,,,,,571dd9b913b1b70009be2d86,2020-11-27_15h11.08.145,lexical_decision_task_MP_exp2,2020.2.5,MacIntel,60,z,1,0.656995,,,,,,,,0.656995,1,,,,,,380,NW,"ID",16,cavory,CAVORY,z,,,,,,0.092114427,-0.10759307,0,0,0,,0,90,90,319,1,
,,,,,,,,,,,,,,,,,,571dd9b913b1b70009be2d86,2020-11-27_15h11.08.145,lexical_decision_task_MP_exp2,2020.2.5,MacIntel,60,m,1,0.64322,,,,,,,,0.64322,1,,,,,,99,WORD,"ID",33,fluent,FLUENT,m,,,,,,0.092114427,-0.10759307,0,0,0,,0,91,91,38,1,
,,,,,,,,,,,,,,,,,,571dd9b913b1b70009be2d86,2020-11-27_15h11.08.145,lexical_decision_task_MP_exp2,2020.2.5,MacIntel,60,z,1,0.651515,,,,,,,,0.651515,1,,,,,,336,NW,"ID",33,ghodus,GHODUS,z,,,,,,0.092114427,-0.10759307,0,0,0,,0,92,92,275,1,
,,,,,,,,,,,,,,,,,,571dd9b913b1b70009be2d86,2020-11-27_15h11.08.145,lexical_decision_task_MP_exp2,2020.2.5,MacIntel,60,m,1,0.5881,,,,,,,,0.5881,1,,,,,,51,WORD,UN,16,impose,HUNGRY,m,,,,,,0.092114427,-0.10759307,0,0,0,,0,93,93,230,1,
,,,,,,,,,,,,,,,,,,571dd9b913b1b70009be2d86,2020-11-27_15h11.08.145,lexical_decision_task_MP_exp2,2020.2.5,MacIntel,60,z,1,0.60012,,,,,,,,0.60012,1,,,,,,480,NW,UN,33,knisma,ROBULY,z,,,,,,0.092114427,-0.10759307,0,0,0,,0,94,94,419,1,
,,,,,,,,,,,,,,,,,,571dd9b913b1b70009be2d86,2020-11-27_15h11.08.145,lexical_decision_task_MP_exp2,2020.2.5,MacIntel,60,m,1,0.70062,,,,,,,,0.70062,1,,,,,,214,WORD,UN,33,phobia,INTAKE,m,,,,,,0.092114427,-0.10759307,0,0,0,,0,95,95,153,1,
,,,,,,,,,,,,,,,,,,571dd9b913b1b70009be2d86,2020-11-27_15h11.08.145,lexical_decision_task_MP_exp2,2020.2.5,MacIntel,60,z,1,0.58065,,,,,,,,0.58065,1,,,,,,474,NW,UN,33,acrise,HABLIN,z,,,,,,0.092114427,-0.10759307,0,0,0,,0,96,96,413,1,
,,,,,,,,,,,,,,,,,,571dd9b913b1b70009be2d86,2020-11-27_15h11.08.145,lexical_decision_task_MP_exp2,2020.2.5,MacIntel,60,m,1,0.68722,,,,,,,,0.68722,1,,,,,,40,WORD,UN,16,spring,CONVEY,m,,,,,,0.092114427,-0.10759307,0,0,0,,0,97,97,219,1,
,,,,,,,,,,,,,,,,,,571dd9b913b1b70009be2d86,2020-11-27_15h11.08.145,lexical_decision_task_MP_exp2,2020.2.5,MacIntel,60,m,1,0.54953,,,,,,,,0.54953,1,,,,,,46,WORD,UN,16,income,SINGLE,m,,,,,,0.092114427,-0.10759307,0,0,0,,0,98,98,225,1,
,,,,,,,,,,,,,,,,,,571dd9b913b1b70009be2d86,2020-11-27_15h11.08.145,lexical_decision_task_MP_exp2,2020.2.5,MacIntel,60,z,1,0.718155,,,,,,,,0.718155,1,,,,,,397,NW,"ID",16,camble,CAMBLE,z,,,,,,0.092114427,-0.10759307,0,0,0,,0,99,99,336,1,
,,,,,,,,,,,,,,,,,,571dd9b913b1b70009be2d86,2020-11-27_15h11.08.145,lexical_decision_task_MP_exp2,2020.2.5,MacIntel,60,z,1,0.85095,,,,,,,,0.85095,1,,,,,,268,NW,UN,16,orchet,PACKES,z,,,,,,0.092114427,-0.10759307,0,0,0,,0,100,100,447,1,
,,,,,,,,,,,,,,,,,,571dd9b913b1b70009be2d86,2020-11-27_15h11.08.145,lexical_decision_task_MP_exp2,2020.2.5,MacIntel,60,m,1,0.71718,,,,,,,,0.71718,1,,,,,,240,WORD,UN,33,seldom,FOREST,m,,,,,,0.092114427,-0.10759307,0,0,0,,0,101,101,179,1,
,,,,,,,,,,,,,,,,,,571dd9b913b1b70009be2d86,2020-11-27_15h11.08.145,lexical_decision_task_MP_exp2,2020.2.5,MacIntel,60,z,1,0.643,,,,,,,,0.643,1,,,,,,428,NW,UN,33,funtle,TANDLY,z,,,,,,0.092114427,-0.10759307,0,0,0,,0,102,102,367,1,
,,,,,,,,,,,,,,,,,,571dd9b913b1b70009be2d86,2020-11-27_15h11.08.145,lexical_decision_task_MP_exp2,2020.2.5,MacIntel,60,z,1,0.51818,,,,,,,,0.51818,1,,,,,,421,NW,UN,33,alcoud,KNISMA,z,,,,,,0.092114427,-0.10759307,0,0,0,,0,103,103,360,1,
,,,,,,,,,,,,,,,,,,571dd9b913b1b70009be2d86,2020-11-27_15h11.08.145,lexical_decision_task_MP_exp2,2020.2.5,MacIntel,60,m,1,0.64195,,,,,,,,0.64195,1,,,,,,48,WORD,UN,16,survey,WALNUT,m,,,,,,0.092114427,-0.10759307,0,0,0,,0,104,104,227,1,
,,,,,,,,,,,,,,,,,,571dd9b913b1b70009be2d86,2020-11-27_15h11.08.145,lexical_decision_task_MP_exp2,2020.2.5,MacIntel,60,m,1,0.56096,,,,,,,,0.56096,1,,,,,,35,WORD,UN,16,vanish,SOCKET,m,,,,,,0.092114427,-0.10759307,0,0,0,,0,105,105,214,1,
,,,,,,,,,,,,,,,,,,571dd9b913b1b70009be2d86,2020-11-27_15h11.08.145,lexical_decision_task_MP_exp2,2020.2.5,MacIntel,60,m,1,0.535885,,,,,,,,0.535885,1,,,,,,185,WORD,UN,33,portal,BOTHER,m,,,,,,0.092114427,-0.10759307,0,0,0,,0,106,106,124,1,
,,,,,,,,,,,,,,,,,,571dd9b913b1b70009be2d86,2020-11-27_15h11.08.145,lexical_decision_task_MP_exp2,2020.2.5,MacIntel,60,z,1,0.537675,,,,,,,,0.537675,1,,,,,,472,NW,UN,33,gorbie,CIGNEY,z,,,,,,0.092114427,-0.10759307,0,0,0,,0,107,107,411,1,
,,,,,,,,,,,,,,,,,,571dd9b913b1b70009be2d86,2020-11-27_15h11.08.145,lexical_decision_task_MP_exp2,2020.2.5,MacIntel,60,z,1,0.66818,,,,,,,,0.66818,1,,,,,,361,NW,"ID",16,pauche,PAUCHE,z,,,,,,0.092114427,-0.10759307,0,0,0,,0,108,108,300,1,
,,,,,,,,,,,,,,,,,,571dd9b913b1b70009be2d86,2020-11-27_15h11.08.145,lexical_decision_task_MP_exp2,2020.2.5,MacIntel,60,m,1,0.61632,,,,,,,,0.61632,1,,,,,,231,WORD,UN,33,inject,EXPORT,m,,,,,,0.092114427,-0.10759307,0,0,0,,0,109,109,170,1,
,,,,,,,,,,,,,,,,,,571dd9b913b1b70009be2d86,2020-11-27_15h11.08.145,lexical_decision_task_MP_exp2,2020.2.5,MacIntel,60,z,1,0.59212,,,,,,,,0.59212,1,,,,,,330,NW,"ID",33,kensom,KENSOM,z,,,,,,0.092114427,-0.10759307,0,0,0,,0,110,110,269,1,
,,,,,,,,,,,,,,,,,,571dd9b913b1b70009be2d86,2020-11-27_15h11.08.145,lexical_decision_task_MP_exp2,2020.2.5,MacIntel,60,z,1,0.79194,,,,,,,,0.79194,1,,,,,,423,NW,UN,33,praile,STRELD,z,,,,,,0.092114427,-0.10759307,0,0,0,,0,111,111,362,1,
,,,,,,,,,,,,,,,,,,571dd9b913b1b70009be2d86,2020-11-27_15h11.08.145,lexical_decision_task_MP_exp2,2020.2.5,MacIntel,60,m,1,0.697365,,,,,,,,0.697365,1,,,,,,155,WORD,"ID",16,lizard,LIZARD,m,,,,,,0.092114427,-0.10759307,0,0,0,,0,112,112,94,1,
,,,,,,,,,,,,,,,,,,571dd9b913b1b70009be2d86,2020-11-27_15h11.08.145,lexical_decision_task_MP_exp2,2020.2.5,MacIntel,60,z,1,0.611655,,,,,,,,0.611655,1,,,,,,430,NW,UN,33,chrums,CAROEY,z,,,,,,0.092114427,-0.10759307,0,0,0,,0,113,113,369,1,
,,,,,,,,,,,,,,,,,,571dd9b913b1b70009be2d86,2020-11-27_15h11.08.145,lexical_decision_task_MP_exp2,2020.2.5,MacIntel,60,m,1,0.51702,,,,,,,,0.51702,1,,,,,,149,WORD,"ID",16,invade,INVADE,m,,,,,,0.092114427,-0.10759307,0,0,0,,0,114,114,88,1,
,,,,,,,,,,,,,,,,,,571dd9b913b1b70009be2d86,2020-11-27_15h11.08.145,lexical_decision_task_MP_exp2,2020.2.5,MacIntel,60,z,1,0.82173,,,,,,,,0.82173,1,,,,,,297,NW,UN,16,piergy,FERTIC,z,,,,,,0.092114427,-0.10759307,0,0,0,,0,115,115,476,1,
,,,,,,,,,,,,,,,,,,571dd9b913b1b70009be2d86,2020-11-27_15h11.08.145,lexical_decision_task_MP_exp2,2020.2.5,MacIntel,60,z,1,0.68106,,,,,,,,0.68106,1,,,,,,252,NW,UN,16,resait,STAPOD,z,,,,,,0.092114427,-0.10759307,0,0,0,,0,116,116,431,1,
,,,,,,,,,,,,,,,,,,571dd9b913b1b70009be2d86,2020-11-27_15h11.08.145,lexical_decision_task_MP_exp2,2020.2.5,MacIntel,60,z,1,0.62325,,,,,,,,0.62325,1,,,,,,340,NW,"ID",33,fiatch,FIATCH,z,,,,,,0.092114427,-0.10759307,0,0,0,,0,117,117,279,1,
,,,,,,,,,,,,,,,,,,571dd9b913b1b70009be2d86,2020-11-27_15h11.08.145,lexical_decision_task_MP_exp2,2020.2.5,MacIntel,60,z,1,0.80155,,,,,,,,0.80155,1,,,,,,455,NW,UN,33,broget,TONDLE,z,,,,,,0.092114427,-0.10759307,0,0,0,,0,118,118,394,1,
,,,,,,,,,,,,,,,,,,571dd9b913b1b70009be2d86,2020-11-27_15h11.08.145,lexical_decision_task_MP_exp2,2020.2.5,MacIntel,60,z,1,0.638025,,,,,,,,0.638025,1,,,,,,328,NW,"ID",33,broake,BROAKE,z,,,,,,0.092114427,-0.10759307,0,0,0,,0,119,119,267,1,
,,,,,,,,,,,,,,,,,,571dd9b913b1b70009be2d86,2020-11-27_15h11.08.145,lexical_decision_task_MP_exp2,2020.2.5,MacIntel,60,m,1,0.497215,,,,,,,,0.497215,1,,,,,,93,WORD,"ID",33,public,PUBLIC,m,,,,,,0.092114427,-0.10759307,0,0,0,space,0,120,120,32,1,28.66376
,,,,,,,,,,,,,,,,,,571dd9b913b1b70009be2d86,2020-11-27_15h11.08.145,lexical_decision_task_MP_exp2,2020.2.5,MacIntel,60,z,1,0.748005,,,,,,,,0.748005,1,,,,,,283,NW,UN,16,shaple,VERALF,z,,,,,,0.092114427,-0.10759307,0,0,0,,0,121,121,462,1,
,,,,,,,,,,,,,,,,,,571dd9b913b1b70009be2d86,2020-11-27_15h11.08.145,lexical_decision_task_MP_exp2,2020.2.5,MacIntel,60,z,1,0.574985,,,,,,,,0.574985,1,,,,,,448,NW,UN,33,brunge,SADENT,z,,,,,,0.092114427,-0.10759307,0,0,0,,0,122,122,387,1,
,,,,,,,,,,,,,,,,,,571dd9b913b1b70009be2d86,2020-11-27_15h11.08.145,lexical_decision_task_MP_exp2,2020.2.5,MacIntel,60,z,1,0.628865,,,,,,,,0.628865,1,,,,,,269,NW,UN,16,wrimsy,ORCHET,z,,,,,,0.092114427,-0.10759307,0,0,0,,0,123,123,448,1,
,,,,,,,,,,,,,,,,,,571dd9b913b1b70009be2d86,2020-11-27_15h11.08.145,lexical_decision_task_MP_exp2,2020.2.5,MacIntel,60,z,1,0.54088,,,,,,,,0.54088,1,,,,,,254,NW,UN,16,apight,VAROSH,z,,,,,,0.092114427,-0.10759307,0,0,0,,0,124,124,433,1,
,,,,,,,,,,,,,,,,,,571dd9b913b1b70009be2d86,2020-11-27_15h11.08.145,lexical_decision_task_MP_exp2,2020.2.5,MacIntel,60,z,0,0.53412,,,,,,,,0.53412,0,,,,,,179,WORD,"ID",16,basket,BASKET,m,,,,,,0.092114427,-0.10759307,0,0,0,,0,125,125,118,1,
,,,,,,,,,,,,,,,,,,571dd9b913b1b70009be2d86,2020-11-27_15h11.08.145,lexical_decision_task_MP_exp2,2020.2.5,MacIntel,60,m,1,0.589365,,,,,,,,0.589365,1,,,,,,66,WORD,"ID",33,gospel,GOSPEL,m,,,,,,0.092114427,-0.10759307,0,0,0,,0,126,126,5,1,
,,,,,,,,,,,,,,,,,,571dd9b913b1b70009be2d86,2020-11-27_15h11.08.145,lexical_decision_task_MP_exp2,2020.2.5,MacIntel,60,m,1,0.535865,,,,,,,,0.535865,1,,,,,,56,WORD,UN,16,change,AMBUSH,m,,,,,,0.092114427,-0.10759307,0,0,0,,0,127,127,235,1,
,,,,,,,,,,,,,,,,,,571dd9b913b1b70009be2d86,2020-11-27_15h11.08.145,lexical_decision_task_MP_exp2,2020.2.5,MacIntel,60,m,1,0.8766,,,,,,,,0.8766,1,,,,,,237,WORD,UN,33,glance,POSTER,m,,,,,,0.092114427,-0.10759307,0,0,0,,0,128,128,176,1,
,,,,,,,,,,,,,,,,,,571dd9b913b1b70009be2d86,2020-11-27_15h11.08.145,lexical_decision_task_MP_exp2,2020.2.5,MacIntel,60,m,1,0.566585,,,,,,,,0.566585,1,,,,,,15,WORD,UN,16,faucet,AMOUNT,m,,,,,,0.092114427,-0.10759307,0,0,0,,0,129,129,194,1,
,,,,,,,,,,,,,,,,,,571dd9b913b1b70009be2d86,2020-11-27_15h11.08.145,lexical_decision_task_MP_exp2,2020.2.5,MacIntel,60,z,1,0.7824,,,,,,,,0.7824,1,,,,,,276,NW,UN,16,petain,YARMON,z,,,,,,0.092114427,-0.10759307,0,0,0,,0,130,130,455,1,
,,,,,,,,,,,,,,,,,,571dd9b913b1b70009be2d86,2020-11-27_15h11.08.145,lexical_decision_task_MP_exp2,2020.2.5,MacIntel,60,m,1,0.56845,,,,,,,,0.56845,1,,,,,,76,WORD,"ID",33,exotic,EXOTIC,m,,,,,,0.092114427,-0.10759307,0,0,0,,0,131,131,15,1,
,,,,,,,,,,,,,,,,,,571dd9b913b1b70009be2d86,2020-11-27_15h11.08.145,lexical_decision_task_MP_exp2,2020.2.5,MacIntel,60,z,1,0.734505,,,,,,,,0.734505,1,,,,,,452,NW,UN,33,bolvis,SURDEN,z,,,,,,0.092114427,-0.10759307,0,0,0,,0,132,132,391,1,
,,,,,,,,,,,,,,,,,,571dd9b913b1b70009be2d86,2020-11-27_15h11.08.145,lexical_decision_task_MP_exp2,2020.2.5,MacIntel,60,z,1,0.649875,,,,,,,,0.649875,1,,,,,,399,NW,"ID",16,fouret,FOURET,z,,,,,,0.092114427,-0.10759307,0,0,0,,0,133,133,338,1,
,,,,,,,,,,,,,,,,,,571dd9b913b1b70009be2d86,2020-11-27_15h11.08.145,lexical_decision_task_MP_exp2,2020.2.5,MacIntel,60,z,1,0.792745,,,,,,,,0.792745,1,,,,,,315,NW,"ID",33,laston,LASTON,z,,,,,,0.092114427,-0.10759307,0,0,0,,0,134,134,254,1,
,,,,,,,,,,,,,,,,,,571dd9b913b1b70009be2d86,2020-11-27_15h11.08.145,lexical_decision_task_MP_exp2,2020.2.5,MacIntel,60,m,1,0.584015,,,,,,,,0.584015,1,,,,,,130,WORD,"ID",16,stupid,STUPID,m,,,,,,0.092114427,-0.10759307,0,0,0,,0,135,135,69,1,
,,,,,,,,,,,,,,,,,,571dd9b913b1b70009be2d86,2020-11-27_15h11.08.145,lexical_decision_task_MP_exp2,2020.2.5,MacIntel,60,z,1,0.55404,,,,,,,,0.55404,1,,,,,,246,NW,UN,16,blarge,PIATON,z,,,,,,0.092114427,-0.10759307,0,0,0,,0,136,136,425,1,
,,,,,,,,,,,,,,,,,,571dd9b913b1b70009be2d86,2020-11-27_15h11.08.145,lexical_decision_task_MP_exp2,2020.2.5,MacIntel,60,m,1,0.544375,,,,,,,,0.544375,1,,,,,,167,WORD,"ID",16,design,DESIGN,m,,,,,,0.092114427,-0.10759307,0,0,0,,0,137,137,106,1,
,,,,,,,,,,,,,,,,,,571dd9b913b1b70009be2d86,2020-11-27_15h11.08.145,lexical_decision_task_MP_exp2,2020.2.5,MacIntel,60,z,1,0.58127,,,,,,,,0.58127,1,,,,,,343,NW,"ID",33,aimosy,AIMOSY,z,,,,,,0.092114427,-0.10759307,0,0,0,,0,138,138,282,1,
,,,,,,,,,,,,,,,,,,571dd9b913b1b70009be2d86,2020-11-27_15h11.08.145,lexical_decision_task_MP_exp2,2020.2.5,MacIntel,60,m,1,0.520695,,,,,,,,0.520695,1,,,,,,205,WORD,UN,33,tailor,LOUNGE,m,,,,,,0.092114427,-0.10759307,0,0,0,,0,139,139,144,1,
,,,,,,,,,,,,,,,,,,571dd9b913b1b70009be2d86,2020-11-27_15h11.08.145,lexical_decision_task_MP_exp2,2020.2.5,MacIntel,60,z,1,0.60055,,,,,,,,0.60055,1,,,,,,251,NW,UN,16,stapod,LUPICT,z,,,,,,0.092114427,-0.10759307,0,0,0,,0,140,140,430,1,
,,,,,,,,,,,,,,,,,,571dd9b913b1b70009be2d86,2020-11-27_15h11.08.145,lexical_decision_task_MP_exp2,2020.2.5,MacIntel,60,m,1,0.57119,,,,,,,,0.57119,1,,,,,,213,WORD,UN,33,intake,SQUEAL,m,,,,,,0.092114427,-0.10759307,0,0,0,,0,141,141,152,1,
,,,,,,,,,,,,,,,,,,571dd9b913b1b70009be2d86,2020-11-27_15h11.08.145,lexical_decision_task_MP_exp2,2020.2.5,MacIntel,60,m,1,0.641115,,,,,,,,0.641115,1,,,,,,239,WORD,UN,33,forest,LUMBER,m,,,,,,0.092114427,-0.10759307,0,0,0,,0,142,142,178,1,
,,,,,,,,,,,,,,,,,,571dd9b913b1b70009be2d86,2020-11-27_15h11.08.145,lexical_decision_task_MP_exp2,2020.2.5,MacIntel,60,z,1,0.738235,,,,,,,,0.738235,1,,,,,,299,NW,UN,16,yarion,STURCH,z,,,,,,0.092114427,-0.10759307,0,0,0,,0,143,143,478,1,
,,,,,,,,,,,,,,,,,,571dd9b913b1b70009be2d86,2020-11-27_15h11.08.145,lexical_decision_task_MP_exp2,2020.2.5,MacIntel,60,m,1,0.705385,,,,,,,,0.705385,1,,,,,,122,WORD,"ID",16,linger,LINGER,m,,,,,,0.092114427,-0.10759307,0,0,0,,0,144,144,61,1,
,,,,,,,,,,,,,,,,,,571dd9b913b1b70009be2d86,2020-11-27_15h11.08.145,lexical_decision_task_MP_exp2,2020.2.5,MacIntel,60,m,0,0.48954,,,,,,,,0.48954,0,,,,,,284,NW,UN,16,prudge,SHAPLE,z,,,,,,0.092114427,-0.10759307,0,0,0,,0,145,145,463,1,
,,,,,,,,,,,,,,,,,,571dd9b913b1b70009be2d86,2020-11-27_15h11.08.145,lexical_decision_task_MP_exp2,2020.2.5,MacIntel,60,m,1,0.72217,,,,,,,,0.72217,1,,,,,,208,WORD,UN,33,search,HOCKEY,m,,,,,,0.092114427,-0.10759307,0,0,0,,0,146,146,147,1,
,,,,,,,,,,,,,,,,,,571dd9b913b1b70009be2d86,2020-11-27_15h11.08.145,lexical_decision_task_MP_exp2,2020.2.5,MacIntel,60,z,1,0.796355,,,,,,,,0.796355,1,,,,,,291,NW,UN,16,ablint,PRETCH,z,,,,,,0.092114427,-0.10759307,0,0,0,,0,147,147,470,1,
,,,,,,,,,,,,,,,,,,571dd9b913b1b70009be2d86,2020-11-27_15h11.08.145,lexical_decision_task_MP_exp2,2020.2.5,MacIntel,60,m,1,0.606835,,,,,,,,0.606835,1,,,,,,232,WORD,UN,33,nature,INJECT,m,,,,,,0.092114427,-0.10759307,0,0,0,,0,148,148,171,1,
,,,,,,,,,,,,,,,,,,571dd9b913b1b70009be2d86,2020-11-27_15h11.08.145,lexical_decision_task_MP_exp2,2020.2.5,MacIntel,60,m,1,0.62672,,,,,,,,0.62672,1,,,,,,68,WORD,"ID",33,fumble,FUMBLE,m,,,,,,0.092114427,-0.10759307,0,0,0,,0,149,149,7,1,
,,,,,,,,,,,,,,,,,,571dd9b913b1b70009be2d86,2020-11-27_15h11.08.145,lexical_decision_task_MP_exp2,2020.2.5,MacIntel,60,z,1,0.76997,,,,,,,,0.76997,1,,,,,,389,NW,"ID",16,witmer,WITMER,z,,,,,,0.092114427,-0.10759307,0,0,0,,0,150,150,328,1,
,,,,,,,,,,,,,,,,,,571dd9b913b1b70009be2d86,2020-11-27_15h11.08.145,lexical_decision_task_MP_exp2,2020.2.5,MacIntel,60,z,1,0.616995,,,,,,,,0.616995,1,,,,,,351,NW,"ID",33,tiesch,TIESCH,z,,,,,,0.092114427,-0.10759307,0,0,0,,0,151,151,290,1,
,,,,,,,,,,,,,,,,,,571dd9b913b1b70009be2d86,2020-11-27_15h11.08.145,lexical_decision_task_MP_exp2,2020.2.5,MacIntel,60,m,1,0.569495,,,,,,,,0.569495,1,,,,,,187,WORD,UN,33,social,COURSE,m,,,,,,0.092114427,-0.10759307,0,0,0,,0,152,152,126,1,
,,,,,,,,,,,,,,,,,,571dd9b913b1b70009be2d86,2020-11-27_15h11.08.145,lexical_decision_task_MP_exp2,2020.2.5,MacIntel,60,z,1,0.65102,,,,,,,,0.65102,1,,,,,,335,NW,"ID",33,desion,DESION,z,,,,,,0.092114427,-0.10759307,0,0,0,,0,153,153,274,1,
,,,,,,,,,,,,,,,,,,571dd9b913b1b70009be2d86,2020-11-27_15h11.08.145,lexical_decision_task_MP_exp2,2020.2.5,MacIntel,60,m,1,0.65483,,,,,,,,0.65483,1,,,,,,145,WORD,"ID",16,parish,PARISH,m,,,,,,0.092114427,-0.10759307,0,0,0,,0,154,154,84,1,
,,,,,,,,,,,,,,,,,,571dd9b913b1b70009be2d86,2020-11-27_15h11.08.145,lexical_decision_task_MP_exp2,2020.2.5,MacIntel,60,z,1,1.09168,,,,,,,,1.09168,1,,,,,,274,NW,UN,16,sleirt,FUMBLO,z,,,,,,0.092114427,-0.10759307,0,0,0,,0,155,155,453,1,
,,,,,,,,,,,,,,,,,,571dd9b913b1b70009be2d86,2020-11-27_15h11.08.145,lexical_decision_task_MP_exp2,2020.2.5,MacIntel,60,m,1,0.874655,,,,,,,,0.874655,1,,,,,,129,WORD,"ID",16,marvel,MARVEL,m,,,,,,0.092114427,-0.10759307,0,0,0,,0,156,156,68,1,
,,,,,,,,,,,,,,,,,,571dd9b913b1b70009be2d86,2020-11-27_15h11.08.145,lexical_decision_task_MP_exp2,2020.2.5,MacIntel,60,m,1,0.611425,,,,,,,,0.611425,1,,,,,,113,WORD,"ID",33,chorus,CHORUS,m,,,,,,0.092114427,-0.10759307,0,0,0,,0,157,157,52,1,
,,,,,,,,,,,,,,,,,,571dd9b913b1b70009be2d86,2020-11-27_15h11.08.145,lexical_decision_task_MP_exp2,2020.2.5,MacIntel,60,z,1,0.85048,,,,,,,,0.85048,1,,,,,,443,NW,UN,33,jaunce,DORSEX,z,,,,,,0.092114427,-0.10759307,0,0,0,,0,158,158,382,1,
,,,,,,,,,,,,,,,,,,571dd9b913b1b70009be2d86,2020-11-27_15h11.08.145,lexical_decision_task_MP_exp2,2020.2.5,MacIntel,60,z,1,0.70443,,,,,,,,0.70443,1,,,,,,438,NW,UN,33,limpor,BAITCH,z,,,,,,0.092114427,-0.10759307,0,0,0,,0,159,159,377,1,
,,,,,,,,,,,,,,,,,,571dd9b913b1b70009be2d86,2020-11-27_15h11.08.145,lexical_decision_task_MP_exp2,2020.2.5,MacIntel,60,z,1,0.5906,,,,,,,,0.5906,1,,,,,,405,NW,"ID",16,flumni,FLUMNI,z,,,,,,0.092114427,-0.10759307,0,0,0,,0,160,160,344,1,
,,,,,,,,,,,,,,,,,,571dd9b913b1b70009be2d86,2020-11-27_15h11.08.145,lexical_decision_task_MP_exp2,2020.2.5,MacIntel,60,z,1,0.554395,,,,,,,,0.554395,1,,,,,,439,NW,UN,33,saride,LIMPOR,z,,,,,,0.092114427,-0.10759307,0,0,0,,0,161,161,378,1,
,,,,,,,,,,,,,,,,,,571dd9b913b1b70009be2d86,2020-11-27_15h11.08.145,lexical_decision_task_MP_exp2,2020.2.5,MacIntel,60,z,1,0.651995,,,,,,,,0.651995,1,,,,,,314,NW,"ID",33,sprine,SPRINE,z,,,,,,0.092114427,-0.10759307,0,0,0,,0,162,162,253,1,
,,,,,,,,,,,,,,,,,,571dd9b913b1b70009be2d86,2020-11-27_15h11.08.145,lexical_decision_task_MP_exp2,2020.2.5,MacIntel,60,m,0,0.62665,,,,,,,,0.62665,0,,,,,,402,NW,"ID",16,syntic,SYNTIC,z,,,,,,0.092114427,-0.10759307,0,0,0,,0,163,163,341,1,
,,,,,,,,,,,,,,,,,,571dd9b913b1b70009be2d86,2020-11-27_15h11.08.145,lexical_decision_task_MP_exp2,2020.2.5,MacIntel,60,z,1,0.713465,,,,,,,,0.713465,1,,,,,,388,NW,"ID",16,cragin,CRAGIN,z,,,,,,0.092114427,-0.10759307,0,0,0,,0,164,164,327,1,
,,,,,,,,,,,,,,,,,,571dd9b913b1b70009be2d86,2020-11-27_15h11.08.145,lexical_decision_task_MP_exp2,2020.2.5,MacIntel,60,m,1,0.550065,,,,,,,,0.550065,1,,,,,,210,WORD,UN,33,infect,MONKEY,m,,,,,,0.092114427,-0.10759307,0,0,0,,0,165,165,149,1,
,,,,,,,,,,,,,,,,,,571dd9b913b1b70009be2d86,2020-11-27_15h11.08.145,lexical_decision_task_MP_exp2,2020.2.5,MacIntel,60,z,1,0.56646,,,,,,,,0.56646,1,,,,,,257,NW,UN,16,poluth,VENIOD,z,,,,,,0.092114427,-0.10759307,0,0,0,,0,166,166,436,1,
,,,,,,,,,,,,,,,,,,571dd9b913b1b70009be2d86,2020-11-27_15h11.08.145,lexical_decision_task_MP_exp2,2020.2.5,MacIntel,60,m,1,0.711335,,,,,,,,0.711335,1,,,,,,107,WORD,"ID",33,slogan,SLOGAN,m,,,,,,0.092114427,-0.10759307,0,0,0,,0,167,167,46,1,
,,,,,,,,,,,,,,,,,,571dd9b913b1b70009be2d86,2020-11-27_15h11.08.145,lexical_decision_task_MP_exp2,2020.2.5,MacIntel,60,z,1,0.598045,,,,,,,,0.598045,1,,,,,,267,NW,UN,16,packes,PASINK,z,,,,,,0.092114427,-0.10759307,0,0,0,,0,168,168,446,1,
,,,,,,,,,,,,,,,,,,571dd9b913b1b70009be2d86,2020-11-27_15h11.08.145,lexical_decision_task_MP_exp2,2020.2.5,MacIntel,60,z,1,0.707385,,,,,,,,0.707385,1,,,,,,418,NW,"ID",16,suidle,SUIDLE,z,,,,,,0.092114427,-0.10759307,0,0,0,,0,169,169,357,1,
,,,,,,,,,,,,,,,,,,571dd9b913b1b70009be2d86,2020-11-27_15h11.08.145,lexical_decision_task_MP_exp2,2020.2.5,MacIntel,60,z,1,0.58358,,,,,,,,0.58358,1,,,,,,282,NW,UN,16,veralf,PORLEX,z,,,,,,0.092114427,-0.10759307,0,0,0,,0,170,170,461,1,
,,,,,,,,,,,,,,,,,,571dd9b913b1b70009be2d86,2020-11-27_15h11.08.145,lexical_decision_task_MP_exp2,2020.2.5,MacIntel,60,m,1,0.590035,,,,,,,,0.590035,1,,,,,,104,WORD,"ID",33,studio,STUDIO,m,,,,,,0.092114427,-0.10759307,0,0,0,,0,171,171,43,1,
,,,,,,,,,,,,,,,,,,571dd9b913b1b70009be2d86,2020-11-27_15h11.08.145,lexical_decision_task_MP_exp2,2020.2.5,MacIntel,60,m,1,0.654415,,,,,,,,0.654415,1,,,,,,222,WORD,UN,33,export,HINDER,m,,,,,,0.092114427,-0.10759307,0,0,0,,0,172,172,161,1,
,,,,,,,,,,,,,,,,,,571dd9b913b1b70009be2d86,2020-11-27_15h11.08.145,lexical_decision_task_MP_exp2,2020.2.5,MacIntel,60,m,0,0.71983,,,,,,,,0.71983,0,,,,,,303,NW,"ID",33,fiream,FIREAM,z,,,,,,0.092114427,-0.10759307,0,0,0,,0,173,173,242,1,
,,,,,,,,,,,,,,,,,,571dd9b913b1b70009be2d86,2020-11-27_15h11.08.145,lexical_decision_task_MP_exp2,2020.2.5,MacIntel,60,m,1,0.65204,,,,,,,,0.65204,1,,,,,,199,WORD,UN,33,plague,INVOKE,m,,,,,,0.092114427,-0.10759307,0,0,0,,0,174,174,138,1,
,,,,,,,,,,,,,,,,,,571dd9b913b1b70009be2d86,2020-11-27_15h11.08.145,lexical_decision_task_MP_exp2,2020.2.5,MacIntel,60,m,1,0.58425,,,,,,,,0.58425,1,,,,,,194,WORD,UN,33,resign,ABSENT,m,,,,,,0.092114427,-0.10759307,0,0,0,,0,175,175,133,1,
,,,,,,,,,,,,,,,,,,571dd9b913b1b70009be2d86,2020-11-27_15h11.08.145,lexical_decision_task_MP_exp2,2020.2.5,MacIntel,60,m,1,0.59009,,,,,,,,0.59009,1,,,,,,227,WORD,UN,33,master,SELDOM,m,,,,,,0.092114427,-0.10759307,0,0,0,,0,176,176,166,1,
,,,,,,,,,,,,,,,,,,571dd9b913b1b70009be2d86,2020-11-27_15h11.08.145,lexical_decision_task_MP_exp2,2020.2.5,MacIntel,60,m,1,0.576365,,,,,,,,0.576365,1,,,,,,65,WORD,"ID",33,symbol,SYMBOL,m,,,,,,0.092114427,-0.10759307,0,0,0,,0,177,177,4,1,
,,,,,,,,,,,,,,,,,,571dd9b913b1b70009be2d86,2020-11-27_15h11.08.145,lexical_decision_task_MP_exp2,2020.2.5,MacIntel,60,z,1,0.804105,,,,,,,,0.804105,1,,,,,,322,NW,"ID",33,slanch,SLANCH,z,,,,,,0.092114427,-0.10759307,0,0,0,,0,178,178,261,1,
,,,,,,,,,,,,,,,,,,571dd9b913b1b70009be2d86,2020-11-27_15h11.08.145,lexical_decision_task_MP_exp2,2020.2.5,MacIntel,60,m,1,0.600955,,,,,,,,0.600955,1,,,,,,133,WORD,"ID",16,chrome,CHROME,m,,,,,,0.092114427,-0.10759307,0,0,0,,0,179,179,72,1,
,,,,,,,,,,,,,,,,,,571dd9b913b1b70009be2d86,2020-11-27_15h11.08.145,lexical_decision_task_MP_exp2,2020.2.5,MacIntel,60,z,1,0.61443,,,,,,,,0.61443,1,,,,,,307,NW,"ID",33,kirafe,KIRAFE,z,,,,,,0.092114427,-0.10759307,0,0,0,,0,180,180,246,1,
,,,,,,,,,,,,,,,,,,571dd9b913b1b70009be2d86,2020-11-27_15h11.08.145,lexical_decision_task_MP_exp2,2020.2.5,MacIntel,60,m,1,0.533015,,,,,,,,0.533015,1,,,,,,79,WORD,"ID",33,theory,THEORY,m,,,,,,0.092114427,-0.10759307,0,0,0,,0,181,181,18,1,
,,,,,,,,,,,,,,,,,,571dd9b913b1b70009be2d86,2020-11-27_15h11.08.145,lexical_decision_task_MP_exp2,2020.2.5,MacIntel,60,z,1,0.783605,,,,,,,,0.783605,1,,,,,,285,NW,UN,16,reldon,PRUDGE,z,,,,,,0.092114427,-0.10759307,0,0,0,,0,182,182,464,1,
,,,,,,,,,,,,,,,,,,571dd9b913b1b70009be2d86,2020-11-27_15h11.08.145,lexical_decision_task_MP_exp2,2020.2.5,MacIntel,60,m,0,0.721405,,,,,,,,0.721405,0,,,,,,248,NW,UN,16,batrol,STROLE,z,,,,,,0.092114427,-0.10759307,0,0,0,,0,183,183,427,1,
,,,,,,,,,,,,,,,,,,571dd9b913b1b70009be2d86,2020-11-27_15h11.08.145,lexical_decision_task_MP_exp2,2020.2.5,MacIntel,60,m,1,0.550755,,,,,,,,0.550755,1,,,,,,72,WORD,"ID",33,bright,BRIGHT,m,,,,,,0.092114427,-0.10759307,0,0,0,,0,184,184,11,1,
,,,,,,,,,,,,,,,,,,571dd9b913b1b70009be2d86,2020-11-27_15h11.08.145,lexical_decision_task_MP_exp2,2020.2.5,MacIntel,60,z,1,0.847855,,,,,,,,0.847855,1,,,,,,271,NW,UN,16,damilt,AUBRID,z,,,,,,0.092114427,-0.10759307,0,0,0,,0,185,185,450,1,
,,,,,,,,,,,,,,,,,,571dd9b913b1b70009be2d86,2020-11-27_15h11.08.145,lexical_decision_task_MP_exp2,2020.2.5,MacIntel,60,z,1,0.57571,,,,,,,,0.57571,1,,,,,,444,NW,UN,33,minkel,JAUNCE,z,,,,,,0.092114427,-0.10759307,0,0,0,,0,186,186,383,1,
,,,,,,,,,,,,,,,,,,571dd9b913b1b70009be2d86,2020-11-27_15h11.08.145,lexical_decision_task_MP_exp2,2020.2.5,MacIntel,60,m,1,0.905,,,,,,,,0.905,1,,,,,,223,WORD,UN,33,period,KIDNEY,m,,,,,,0.092114427,-0.10759307,0,0,0,,0,187,187,162,1,
,,,,,,,,,,,,,,,,,,571dd9b913b1b70009be2d86,2020-11-27_15h11.08.145,lexical_decision_task_MP_exp2,2020.2.5,MacIntel,60,m,1,0.607155,,,,,,,,0.607155,1,,,,,,78,WORD,"ID",33,column,COLUMN,m,,,,,,0.092114427,-0.10759307,0,0,0,,0,188,188,17,1,
,,,,,,,,,,,,,,,,,,571dd9b913b1b70009be2d86,2020-11-27_15h11.08.145,lexical_decision_task_MP_exp2,2020.2.5,MacIntel,60,m,1,0.68418,,,,,,,,0.68418,1,,,,,,124,WORD,"ID",16,blouse,BLOUSE,m,,,,,,0.092114427,-0.10759307,0,0,0,,0,189,189,63,1,
,,,,,,,,,,,,,,,,,,571dd9b913b1b70009be2d86,2020-11-27_15h11.08.145,lexical_decision_task_MP_exp2,2020.2.5,MacIntel,60,m,1,0.60844,,,,,,,,0.60844,1,,,,,,141,WORD,"ID",16,orphan,ORPHAN,m,,,,,,0.092114427,-0.10759307,0,0,0,,0,190,190,80,1,
,,,,,,,,,,,,,,,,,,571dd9b913b1b70009be2d86,2020-11-27_15h11.08.145,lexical_decision_task_MP_exp2,2020.2.5,MacIntel,60,z,1,0.61644,,,,,,,,0.61644,1,,,,,,272,NW,UN,16,sortel,DAMILT,z,,,,,,0.092114427,-0.10759307,0,0,0,,0,191,191,451,1,
,,,,,,,,,,,,,,,,,,571dd9b913b1b70009be2d86,2020-11-27_15h11.08.145,lexical_decision_task_MP_exp2,2020.2.5,MacIntel,60,z,1,0.608475,,,,,,,,0.608475,1,,,,,,290,NW,UN,16,pretch,SPLINO,z,,,,,,0.092114427,-0.10759307,0,0,0,,0,192,192,469,1,
,,,,,,,,,,,,,,,,,,571dd9b913b1b70009be2d86,2020-11-27_15h11.08.145,lexical_decision_task_MP_exp2,2020.2.5,MacIntel,60,m,1,0.532525,,,,,,,,0.532525,1,,,,,,95,WORD,"ID",33,thread,THREAD,m,,,,,,0.092114427,-0.10759307,0,0,0,,0,193,193,34,1,
,,,,,,,,,,,,,,,,,,571dd9b913b1b70009be2d86,2020-11-27_15h11.08.145,lexical_decision_task_MP_exp2,2020.2.5,MacIntel,60,m,1,0.53121,,,,,,,,0.53121,1,,,,,,173,WORD,"ID",16,shower,SHOWER,m,,,,,,0.092114427,-0.10759307,0,0,0,,0,194,194,112,1,
,,,,,,,,,,,,,,,,,,571dd9b913b1b70009be2d86,2020-11-27_15h11.08.145,lexical_decision_task_MP_exp2,2020.2.5,MacIntel,60,m,1,0.65502,,,,,,,,0.65502,1,,,,,,111,WORD,"ID",33,induce,INDUCE,m,,,,,,0.092114427,-0.10759307,0,0,0,,0,195,195,50,1,
,,,,,,,,,,,,,,,,,,571dd9b913b1b70009be2d86,2020-11-27_15h11.08.145,lexical_decision_task_MP_exp2,2020.2.5,MacIntel,60,z,1,0.619635,,,,,,,,0.619635,1,,,,,,310,NW,"ID",33,daniet,DANIET,z,,,,,,0.092114427,-0.10759307,0,0,0,,0,196,196,249,1,
,,,,,,,,,,,,,,,,,,571dd9b913b1b70009be2d86,2020-11-27_15h11.08.145,lexical_decision_task_MP_exp2,2020.2.5,MacIntel,60,z,1,0.70686,,,,,,,,0.70686,1,,,,,,449,NW,UN,33,phrect,BRUNGE,z,,,,,,0.092114427,-0.10759307,0,0,0,,0,197,197,388,1,
,,,,,,,,,,,,,,,,,,571dd9b913b1b70009be2d86,2020-11-27_15h11.08.145,lexical_decision_task_MP_exp2,2020.2.5,MacIntel,60,z,1,0.61864,,,,,,,,0.61864,1,,,,,,270,NW,UN,16,aubrid,WRIMSY,z,,,,,,0.092114427,-0.10759307,0,0,0,,0,198,198,449,1,
,,,,,,,,,,,,,,,,,,571dd9b913b1b70009be2d86,2020-11-27_15h11.08.145,lexical_decision_task_MP_exp2,2020.2.5,MacIntel,60,m,1,0.685895,,,,,,,,0.685895,1,,,,,,54,WORD,UN,16,stroke,RAMBLE,m,,,,,,0.092114427,-0.10759307,0,0,0,,0,199,199,233,1,
,,,,,,,,,,,,,,,,,,571dd9b913b1b70009be2d86,2020-11-27_15h11.08.145,lexical_decision_task_MP_exp2,2020.2.5,MacIntel,60,z,1,0.639475,,,,,,,,0.639475,1,,,,,,469,NW,UN,33,crudio,PADIFS,z,,,,,,0.092114427,-0.10759307,0,0,0,,0,200,200,408,1,
,,,,,,,,,,,,,,,,,,571dd9b913b1b70009be2d86,2020-11-27_15h11.08.145,lexical_decision_task_MP_exp2,2020.2.5,MacIntel,60,m,1,0.58573,,,,,,,,0.58573,1,,,,,,163,WORD,"ID",16,string,STRING,m,,,,,,0.092114427,-0.10759307,0,0,0,,0,201,201,102,1,
,,,,,,,,,,,,,,,,,,571dd9b913b1b70009be2d86,2020-11-27_15h11.08.145,lexical_decision_task_MP_exp2,2020.2.5,MacIntel,60,z,1,0.587625,,,,,,,,0.587625,1,,,,,,414,NW,"ID",16,serbol,SERBOL,z,,,,,,0.092114427,-0.10759307,0,0,0,,0,202,202,353,1,
,,,,,,,,,,,,,,,,,,571dd9b913b1b70009be2d86,2020-11-27_15h11.08.145,lexical_decision_task_MP_exp2,2020.2.5,MacIntel,60,z,1,0.73139,,,,,,,,0.73139,1,,,,,,473,NW,UN,33,hablin,CRIBLE,z,,,,,,0.092114427,-0.10759307,0,0,0,,0,203,203,412,1,
,,,,,,,,,,,,,,,,,,571dd9b913b1b70009be2d86,2020-11-27_15h11.08.145,lexical_decision_task_MP_exp2,2020.2.5,MacIntel,60,m,1,0.781205,,,,,,,,0.781205,1,,,,,,114,WORD,"ID",33,placid,PLACID,m,,,,,,0.092114427,-0.10759307,0,0,0,,0,204,204,53,1,
,,,,,,,,,,,,,,,,,,571dd9b913b1b70009be2d86,2020-11-27_15h11.08.145,lexical_decision_task_MP_exp2,2020.2.5,MacIntel,60,m,1,0.49936,,,,,,,,0.49936,1,,,,,,90,WORD,"ID",33,relish,RELISH,m,,,,,,0.092114427,-0.10759307,0,0,0,,0,205,205,29,1,
,,,,,,,,,,,,,,,,,,571dd9b913b1b70009be2d86,2020-11-27_15h11.08.145,lexical_decision_task_MP_exp2,2020.2.5,MacIntel,60,z,1,0.598445,,,,,,,,0.598445,1,,,,,,395,NW,"ID",16,colury,COLURY,z,,,,,,0.092114427,-0.10759307,0,0,0,,0,206,206,334,1,
,,,,,,,,,,,,,,,,,,571dd9b913b1b70009be2d86,2020-11-27_15h11.08.145,lexical_decision_task_MP_exp2,2020.2.5,MacIntel,60,z,1,0.583225,,,,,,,,0.583225,1,,,,,,401,NW,"ID",16,mustil,MUSTIL,z,,,,,,0.092114427,-0.10759307,0,0,0,,0,207,207,340,1,
,,,,,,,,,,,,,,,,,,571dd9b913b1b70009be2d86,2020-11-27_15h11.08.145,lexical_decision_task_MP_exp2,2020.2.5,MacIntel,60,m,1,0.540295,,,,,,,,0.540295,1,,,,,,30,WORD,UN,16,weapon,ORIENT,m,,,,,,0.092114427,-0.10759307,0,0,0,,0,208,208,209,1,
,,,,,,,,,,,,,,,,,,571dd9b913b1b70009be2d86,2020-11-27_15h11.08.145,lexical_decision_task_MP_exp2,2020.2.5,MacIntel,60,m,1,0.50182,,,,,,,,0.50182,1,,,,,,23,WORD,UN,16,praise,WEALTH,m,,,,,,0.092114427,-0.10759307,0,0,0,,0,209,209,202,1,
,,,,,,,,,,,,,,,,,,571dd9b913b1b70009be2d86,2020-11-27_15h11.08.145,lexical_decision_task_MP_exp2,2020.2.5,MacIntel,60,m,1,0.488235,,,,,,,,0.488235,1,,,,,,140,WORD,"ID",16,prince,PRINCE,m,,,,,,0.092114427,-0.10759307,0,0,0,,0,210,210,79,1,
,,,,,,,,,,,,,,,,,,571dd9b913b1b70009be2d86,2020-11-27_15h11.08.145,lexical_decision_task_MP_exp2,2020.2.5,MacIntel,60,z,1,0.55683,,,,,,,,0.55683,1,,,,,,415,NW,"ID",16,higsta,HIGSTA,z,,,,,,0.092114427,-0.10759307,0,0,0,,0,211,211,354,1,
,,,,,,,,,,,,,,,,,,571dd9b913b1b70009be2d86,2020-11-27_15h11.08.145,lexical_decision_task_MP_exp2,2020.2.5,MacIntel,60,m,1,0.57624,,,,,,,,0.57624,1,,,,,,37,WORD,UN,16,powder,INSULT,m,,,,,,0.092114427,-0.10759307,0,0,0,,0,212,212,216,1,
,,,,,,,,,,,,,,,,,,571dd9b913b1b70009be2d86,2020-11-27_15h11.08.145,lexical_decision_task_MP_exp2,2020.2.5,MacIntel,60,m,1,0.55581,,,,,,,,0.55581,1,,,,,,125,WORD,"ID",16,nickel,NICKEL,m,,,,,,0.092114427,-0.10759307,0,0,0,,0,213,213,64,1,
,,,,,,,,,,,,,,,,,,571dd9b913b1b70009be2d86,2020-11-27_15h11.08.145,lexical_decision_task_MP_exp2,2020.2.5,MacIntel,60,z,1,0.63045,,,,,,,,0.63045,1,,,,,,301,NW,"ID",33,fainch,FAINCH,z,,,,,,0.092114427,-0.10759307,0,0,0,,0,214,214,240,1,
,,,,,,,,,,,,,,,,,,571dd9b913b1b70009be2d86,2020-11-27_15h11.08.145,lexical_decision_task_MP_exp2,2020.2.5,MacIntel,60,m,1,0.60844,,,,,,,,0.60844,1,,,,,,39,WORD,UN,16,convey,INSECT,m,,,,,,0.092114427,-0.10759307,0,0,0,,0,215,215,218,1,
,,,,,,,,,,,,,,,,,,571dd9b913b1b70009be2d86,2020-11-27_15h11.08.145,lexical_decision_task_MP_exp2,2020.2.5,MacIntel,60,z,1,0.4999,,,,,,,,0.4999,1,,,,,,288,NW,UN,16,starby,YACEUP,z,,,,,,0.092114427,-0.10759307,0,0,0,,0,216,216,467,1,
,,,,,,,,,,,,,,,,,,571dd9b913b1b70009be2d86,2020-11-27_15h11.08.145,lexical_decision_task_MP_exp2,2020.2.5,MacIntel,60,z,1,0.868915,,,,,,,,0.868915,1,,,,,,316,NW,"ID",33,scregm,SCREGM,z,,,,,,0.092114427,-0.10759307,0,0,0,,0,217,217,255,1,
,,,,,,,,,,,,,,,,,,571dd9b913b1b70009be2d86,2020-11-27_15h11.08.145,lexical_decision_task_MP_exp2,2020.2.5,MacIntel,60,z,1,0.891315,,,,,,,,0.891315,1,,,,,,417,NW,"ID",16,earoud,EAROUD,z,,,,,,0.092114427,-0.10759307,0,0,0,,0,218,218,356,1,
,,,,,,,,,,,,,,,,,,571dd9b913b1b70009be2d86,2020-11-27_15h11.08.145,lexical_decision_task_MP_exp2,2020.2.5,MacIntel,60,m,1,0.622875,,,,,,,,0.622875,1,,,,,,70,WORD,"ID",33,square,SQUARE,m,,,,,,0.092114427,-0.10759307,0,0,0,,0,219,219,9,1,
,,,,,,,,,,,,,,,,,,571dd9b913b1b70009be2d86,2020-11-27_15h11.08.145,lexical_decision_task_MP_exp2,2020.2.5,MacIntel,60,z,1,0.60086,,,,,,,,0.60086,1,,,,,,374,NW,"ID",16,sliant,SLIANT,z,,,,,,0.092114427,-0.10759307,0,0,0,,0,220,220,313,1,
,,,,,,,,,,,,,,,,,,571dd9b913b1b70009be2d86,2020-11-27_15h11.08.145,lexical_decision_task_MP_exp2,2020.2.5,MacIntel,60,m,1,0.549595,,,,,,,,0.549595,1,,,,,,50,WORD,UN,16,hungry,SNATCH,m,,,,,,0.092114427,-0.10759307,0,0,0,,0,221,221,229,1,
,,,,,,,,,,,,,,,,,,571dd9b913b1b70009be2d86,2020-11-27_15h11.08.145,lexical_decision_task_MP_exp2,2020.2.5,MacIntel,60,m,1,0.52351,,,,,,,,0.52351,1,,,,,,110,WORD,"ID",33,polite,POLITE,m,,,,,,0.092114427,-0.10759307,0,0,0,,0,222,222,49,1,
,,,,,,,,,,,,,,,,,,571dd9b913b1b70009be2d86,2020-11-27_15h11.08.145,lexical_decision_task_MP_exp2,2020.2.5,MacIntel,60,m,1,0.56374,,,,,,,,0.56374,1,,,,,,225,WORD,UN,33,casino,VULGAR,m,,,,,,0.092114427,-0.10759307,0,0,0,,0,223,223,164,1,
,,,,,,,,,,,,,,,,,,571dd9b913b1b70009be2d86,2020-11-27_15h11.08.145,lexical_decision_task_MP_exp2,2020.2.5,MacIntel,60,m,1,0.588935,,,,,,,,0.588935,1,,,,,,1,WORD,UN,16,ethnic,FRIGHT,m,,,,,,0.092114427,-0.10759307,0,0,0,,0,224,224,180,1,
,,,,,,,,,,,,,,,,,,571dd9b913b1b70009be2d86,2020-11-27_15h11.08.145,lexical_decision_task_MP_exp2,2020.2.5,MacIntel,60,m,1,0.517195,,,,,,,,0.517195,1,,,,,,5,WORD,UN,16,bundle,PLUNGE,m,,,,,,0.092114427,-0.10759307,0,0,0,,0,225,225,184,1,
,,,,,,,,,,,,,,,,,,571dd9b913b1b70009be2d86,2020-11-27_15h11.08.145,lexical_decision_task_MP_exp2,2020.2.5,MacIntel,60,z,1,0.62848,,,,,,,,0.62848,1,,,,,,294,NW,UN,16,gleath,INHORT,z,,,,,,0.092114427,-0.10759307,0,0,0,,0,226,226,473,1,
,,,,,,,,,,,,,,,,,,571dd9b913b1b70009be2d86,2020-11-27_15h11.08.145,lexical_decision_task_MP_exp2,2020.2.5,MacIntel,60,z,1,0.547545,,,,,,,,0.547545,1,,,,,,339,NW,"ID",33,fachow,FACHOW,z,,,,,,0.092114427,-0.10759307,0,0,0,,0,227,227,278,1,
,,,,,,,,,,,,,,,,,,571dd9b913b1b70009be2d86,2020-11-27_15h11.08.145,lexical_decision_task_MP_exp2,2020.2.5,MacIntel,60,z,1,0.68342,,,,,,,,0.68342,1,,,,,,347,NW,"ID",33,kerift,KERIFT,z,,,,,,0.092114427,-0.10759307,0,0,0,,0,228,228,286,1,
,,,,,,,,,,,,,,,,,,571dd9b913b1b70009be2d86,2020-11-27_15h11.08.145,lexical_decision_task_MP_exp2,2020.2.5,MacIntel,60,m,1,0.502645,,,,,,,,0.502645,1,,,,,,175,WORD,"ID",16,fabric,FABRIC,m,,,,,,0.092114427,-0.10759307,0,0,0,,0,229,229,114,1,
,,,,,,,,,,,,,,,,,,571dd9b913b1b70009be2d86,2020-11-27_15h11.08.145,lexical_decision_task_MP_exp2,2020.2.5,MacIntel,60,m,1,0.52598,,,,,,,,0.52598,1,,,,,,186,WORD,UN,33,course,PORTAL,m,,,,,,0.092114427,-0.10759307,0,0,0,,0,230,230,125,1,
,,,,,,,,,,,,,,,,,,571dd9b913b1b70009be2d86,2020-11-27_15h11.08.145,lexical_decision_task_MP_exp2,2020.2.5,MacIntel,60,z,1,0.680005,,,,,,,,0.680005,1,,,,,,249,NW,UN,16,milted,BATROL,z,,,,,,0.092114427,-0.10759307,0,0,0,,0,231,231,428,1,
,,,,,,,,,,,,,,,,,,571dd9b913b1b70009be2d86,2020-11-27_15h11.08.145,lexical_decision_task_MP_exp2,2020.2.5,MacIntel,60,z,1,0.74199,,,,,,,,0.74199,1,,,,,,286,NW,UN,16,nymbel,RELDON,z,,,,,,0.092114427,-0.10759307,0,0,0,,0,232,232,465,1,
,,,,,,,,,,,,,,,,,,571dd9b913b1b70009be2d86,2020-11-27_15h11.08.145,lexical_decision_task_MP_exp2,2020.2.5,MacIntel,60,m,1,0.55152,,,,,,,,0.55152,1,,,,,,24,WORD,UN,16,domain,PRAISE,m,,,,,,0.092114427,-0.10759307,0,0,0,,0,233,233,203,1,
,,,,,,,,,,,,,,,,,,571dd9b913b1b70009be2d86,2020-11-27_15h11.08.145,lexical_decision_task_MP_exp2,2020.2.5,MacIntel,60,z,1,0.683745,,,,,,,,0.683745,1,,,,,,390,NW,"ID",16,hatrus,HATRUS,z,,,,,,0.092114427,-0.10759307,0,0,0,,0,234,234,329,1,
,,,,,,,,,,,,,,,,,,571dd9b913b1b70009be2d86,2020-11-27_15h11.08.145,lexical_decision_task_MP_exp2,2020.2.5,MacIntel,60,z,1,0.59137,,,,,,,,0.59137,1,,,,,,478,NW,UN,33,pebric,ACRISE,z,,,,,,0.092114427,-0.10759307,0,0,0,,0,235,235,417,1,
,,,,,,,,,,,,,,,,,,571dd9b913b1b70009be2d86,2020-11-27_15h11.08.145,lexical_decision_task_MP_exp2,2020.2.5,MacIntel,60,m,1,0.488095,,,,,,,,0.488095,1,,,,,,198,WORD,UN,33,invoke,WICKED,m,,,,,,0.092114427,-0.10759307,0,0,0,,0,236,236,137,1,
,,,,,,,,,,,,,,,,,,571dd9b913b1b70009be2d86,2020-11-27_15h11.08.145,lexical_decision_task_MP_exp2,2020.2.5,MacIntel,60,z,1,0.630935,,,,,,,,0.630935,1,,,,,,352,NW,"ID",33,tringe,TRINGE,z,,,,,,0.092114427,-0.10759307,0,0,0,,0,237,237,291,1,
,,,,,,,,,,,,,,,,,,571dd9b913b1b70009be2d86,2020-11-27_15h11.08.145,lexical_decision_task_MP_exp2,2020.2.5,MacIntel,60,z,1,0.578205,,,,,,,,0.578205,1,,,,,,447,NW,UN,33,sadent,GIRCUE,z,,,,,,0.092114427,-0.10759307,0,0,0,,0,238,238,386,1,
,,,,,,,,,,,,,,,,,,571dd9b913b1b70009be2d86,2020-11-27_15h11.08.145,lexical_decision_task_MP_exp2,2020.2.5,MacIntel,60,m,1,0.51871,,,,,,,,0.51871,1,,,,,,168,WORD,"ID",16,answer,ANSWER,m,,,,,,0.092114427,-0.10759307,0,0,0,,0,239,239,107,1,
,,,,,,,,,,,,,,,,,,571dd9b913b1b70009be2d86,2020-11-27_15h11.08.145,lexical_decision_task_MP_exp2,2020.2.5,MacIntel,60,m,1,0.71581,,,,,,,,0.71581,1,,,,,,200,WORD,UN,33,admire,BEACON,m,,,,,,0.092114427,-0.10759307,0,0,0,,0,240,240,139,1,
,,,,,,,,,,,,,,,,,,571dd9b913b1b70009be2d86,2020-11-27_15h11.08.145,lexical_decision_task_MP_exp2,2020.2.5,MacIntel,60,z,1,0.55391,,,,,,,,0.55391,1,,,,,,408,NW,"ID",16,hurnia,HURNIA,z,,,,,,0.092114427,-0.10759307,0,0,0,space,0,241,241,347,1,82.64793
,,,,,,,,,,,,,,,,,,571dd9b913b1b70009be2d86,2020-11-27_15h11.08.145,lexical_decision_task_MP_exp2,2020.2.5,MacIntel,60,m,1,0.69054,,,,,,,,0.69054,1,,,,,,154,WORD,"ID",16,author,AUTHOR,m,,,,,,0.092114427,-0.10759307,0,0,0,,0,242,242,93,1,
,,,,,,,,,,,,,,,,,,571dd9b913b1b70009be2d86,2020-11-27_15h11.08.145,lexical_decision_task_MP_exp2,2020.2.5,MacIntel,60,m,1,0.45807,,,,,,,,0.45807,1,,,,,,4,WORD,UN,16,plunge,TRENCH,m,,,,,,0.092114427,-0.10759307,0,0,0,,0,243,243,183,1,
,,,,,,,,,,,,,,,,,,571dd9b913b1b70009be2d86,2020-11-27_15h11.08.145,lexical_decision_task_MP_exp2,2020.2.5,MacIntel,60,z,1,0.54347,,,,,,,,0.54347,1,,,,,,445,NW,UN,33,runamo,MINKEL,z,,,,,,0.092114427,-0.10759307,0,0,0,,0,244,244,384,1,
,,,,,,,,,,,,,,,,,,571dd9b913b1b70009be2d86,2020-11-27_15h11.08.145,lexical_decision_task_MP_exp2,2020.2.5,MacIntel,60,z,1,0.506965,,,,,,,,0.506965,1,,,,,,459,NW,UN,33,mingar,BAFENT,z,,,,,,0.092114427,-0.10759307,0,0,0,,0,245,245,398,1,
,,,,,,,,,,,,,,,,,,571dd9b913b1b70009be2d86,2020-11-27_15h11.08.145,lexical_decision_task_MP_exp2,2020.2.5,MacIntel,60,m,1,0.493135,,,,,,,,0.493135,1,,,,,,132,WORD,"ID",16,strong,STRONG,m,,,,,,0.092114427,-0.10759307,0,0,0,,0,246,246,71,1,
,,,,,,,,,,,,,,,,,,571dd9b913b1b70009be2d86,2020-11-27_15h11.08.145,lexical_decision_task_MP_exp2,2020.2.5,MacIntel,60,m,1,1.353185,,,,,,,,1.353185,1,,,,,,160,WORD,"ID",16,violet,VIOLET,m,,,,,,0.092114427,-0.10759307,0,0,0,,0,247,247,99,1,
,,,,,,,,,,,,,,,,,,571dd9b913b1b70009be2d86,2020-11-27_15h11.08.145,lexical_decision_task_MP_exp2,2020.2.5,MacIntel,60,z,1,0.522045,,,,,,,,0.522045,1,,,,,,406,NW,"ID",16,nouply,NOUPLY,z,,,,,,0.092114427,-0.10759307,0,0,0,,0,248,248,345,1,
,,,,,,,,,,,,,,,,,,571dd9b913b1b70009be2d86,2020-11-27_15h11.08.145,lexical_decision_task_MP_exp2,2020.2.5,MacIntel,60,m,0,0.6077,,,,,,,,0.6077,0,,,,,,471,NW,UN,33,cigney,NOBEST,z,,,,,,0.092114427,-0.10759307,0,0,0,,0,249,249,410,1,
,,,,,,,,,,,,,,,,,,571dd9b913b1b70009be2d86,2020-11-27_15h11.08.145,lexical_decision_task_MP_exp2,2020.2.5,MacIntel,60,z,1,0.72311,,,,,,,,0.72311,1,,,,,,360,NW,"ID",33,desory,DESORY,z,,,,,,0.092114427,-0.10759307,0,0,0,,0,250,250,299,1,
,,,,,,,,,,,,,,,,,,571dd9b913b1b70009be2d86,2020-11-27_15h11.08.145,lexical_decision_task_MP_exp2,2020.2.5,MacIntel,60,m,0,0.950515,,,,,,,,0.950515,0,,,,,,454,NW,UN,33,tondle,SCOUGE,z,,,,,,0.092114427,-0.10759307,0,0,0,,0,251,251,393,1,
,,,,,,,,,,,,,,,,,,571dd9b913b1b70009be2d86,2020-11-27_15h11.08.145,lexical_decision_task_MP_exp2,2020.2.5,MacIntel,60,m,1,0.58007,,,,,,,,0.58007,1,,,,,,119,WORD,"ID",33,spider,SPIDER,m,,,,,,0.092114427,-0.10759307,0,0,0,,0,252,252,58,1,
,,,,,,,,,,,,,,,,,,571dd9b913b1b70009be2d86,2020-11-27_15h11.08.145,lexical_decision_task_MP_exp2,2020.2.5,MacIntel,60,m,1,0.49796,,,,,,,,0.49796,1,,,,,,117,WORD,"ID",33,branch,BRANCH,m,,,,,,0.092114427,-0.10759307,0,0,0,,0,253,253,56,1,
,,,,,,,,,,,,,,,,,,571dd9b913b1b70009be2d86,2020-11-27_15h11.08.145,lexical_decision_task_MP_exp2,2020.2.5,MacIntel,60,m,1,0.66037,,,,,,,,0.66037,1,,,,,,171,WORD,"ID",16,depart,DEPART,m,,,,,,0.092114427,-0.10759307,0,0,0,,0,254,254,110,1,
,,,,,,,,,,,,,,,,,,571dd9b913b1b70009be2d86,2020-11-27_15h11.08.145,lexical_decision_task_MP_exp2,2020.2.5,MacIntel,60,m,1,0.721685,,,,,,,,0.721685,1,,,,,,156,WORD,"ID",16,cradle,CRADLE,m,,,,,,0.092114427,-0.10759307,0,0,0,,0,255,255,95,1,
,,,,,,,,,,,,,,,,,,571dd9b913b1b70009be2d86,2020-11-27_15h11.08.145,lexical_decision_task_MP_exp2,2020.2.5,MacIntel,60,z,1,0.56616,,,,,,,,0.56616,1,,,,,,413,NW,"ID",16,equats,EQUATS,z,,,,,,0.092114427,-0.10759307,0,0,0,,0,256,256,352,1,
,,,,,,,,,,,,,,,,,,571dd9b913b1b70009be2d86,2020-11-27_15h11.08.145,lexical_decision_task_MP_exp2,2020.2.5,MacIntel,60,z,0,0.56687,,,,,,,,0.56687,0,,,,,,178,WORD,"ID",16,inform,INFORM,m,,,,,,0.092114427,-0.10759307,0,0,0,,0,257,257,117,1,
,,,,,,,,,,,,,,,,,,571dd9b913b1b70009be2d86,2020-11-27_15h11.08.145,lexical_decision_task_MP_exp2,2020.2.5,MacIntel,60,z,1,0.599975,,,,,,,,0.599975,1,,,,,,308,NW,"ID",33,psetch,PSETCH,z,,,,,,0.092114427,-0.10759307,0,0,0,,0,258,258,247,1,
,,,,,,,,,,,,,,,,,,571dd9b913b1b70009be2d86,2020-11-27_15h11.08.145,lexical_decision_task_MP_exp2,2020.2.5,MacIntel,60,m,1,0.48301,,,,,,,,0.48301,1,,,,,,230,WORD,UN,33,mother,FRINGE,m,,,,,,0.092114427,-0.10759307,0,0,0,,0,259,259,169,1,
,,,,,,,,,,,,,,,,,,571dd9b913b1b70009be2d86,2020-11-27_15h11.08.145,lexical_decision_task_MP_exp2,2020.2.5,MacIntel,60,z,1,0.74977,,,,,,,,0.74977,1,,,,,,348,NW,"ID",33,dumple,DUMPLE,z,,,,,,0.092114427,-0.10759307,0,0,0,,0,260,260,287,1,
,,,,,,,,,,,,,,,,,,571dd9b913b1b70009be2d86,2020-11-27_15h11.08.145,lexical_decision_task_MP_exp2,2020.2.5,MacIntel,60,m,1,0.64865,,,,,,,,0.64865,1,,,,,,3,WORD,UN,16,trench,KNIGHT,m,,,,,,0.092114427,-0.10759307,0,0,0,,0,261,261,182,1,
,,,,,,,,,,,,,,,,,,571dd9b913b1b70009be2d86,2020-11-27_15h11.08.145,lexical_decision_task_MP_exp2,2020.2.5,MacIntel,60,z,1,0.981155,,,,,,,,0.981155,1,,,,,,244,NW,UN,16,anougs,EATRIC,z,,,,,,0.092114427,-0.10759307,0,0,0,,0,262,262,423,1,
,,,,,,,,,,,,,,,,,,571dd9b913b1b70009be2d86,2020-11-27_15h11.08.145,lexical_decision_task_MP_exp2,2020.2.5,MacIntel,60,m,1,0.54709,,,,,,,,0.54709,1,,,,,,146,WORD,"ID",16,couple,COUPLE,m,,,,,,0.092114427,-0.10759307,0,0,0,,0,263,263,85,1,
,,,,,,,,,,,,,,,,,,571dd9b913b1b70009be2d86,2020-11-27_15h11.08.145,lexical_decision_task_MP_exp2,2020.2.5,MacIntel,60,z,1,0.70205,,,,,,,,0.70205,1,,,,,,344,NW,"ID",33,scrily,SCRILY,z,,,,,,0.092114427,-0.10759307,0,0,0,,0,264,264,283,1,
,,,,,,,,,,,,,,,,,,571dd9b913b1b70009be2d86,2020-11-27_15h11.08.145,lexical_decision_task_MP_exp2,2020.2.5,MacIntel,60,m,1,0.609385,,,,,,,,0.609385,1,,,,,,100,WORD,"ID",33,carbon,CARBON,m,,,,,,0.092114427,-0.10759307,0,0,0,,0,265,265,39,1,
,,,,,,,,,,,,,,,,,,571dd9b913b1b70009be2d86,2020-11-27_15h11.08.145,lexical_decision_task_MP_exp2,2020.2.5,MacIntel,60,m,1,0.539185,,,,,,,,0.539185,1,,,,,,20,WORD,UN,16,simple,BREAST,m,,,,,,0.092114427,-0.10759307,0,0,0,,0,266,266,199,1,
,,,,,,,,,,,,,,,,,,571dd9b913b1b70009be2d86,2020-11-27_15h11.08.145,lexical_decision_task_MP_exp2,2020.2.5,MacIntel,60,z,1,0.55806,,,,,,,,0.55806,1,,,,,,279,NW,UN,16,curbol,CELOND,z,,,,,,0.092114427,-0.10759307,0,0,0,,0,267,267,458,1,
,,,,,,,,,,,,,,,,,,571dd9b913b1b70009be2d86,2020-11-27_15h11.08.145,lexical_decision_task_MP_exp2,2020.2.5,MacIntel,60,z,1,0.65591,,,,,,,,0.65591,1,,,,,,329,NW,"ID",33,yarike,YARIKE,z,,,,,,0.092114427,-0.10759307,0,0,0,,0,268,268,268,1,
,,,,,,,,,,,,,,,,,,571dd9b913b1b70009be2d86,2020-11-27_15h11.08.145,lexical_decision_task_MP_exp2,2020.2.5,MacIntel,60,m,1,0.55736,,,,,,,,0.55736,1,,,,,,151,WORD,"ID",16,mystic,MYSTIC,m,,,,,,0.092114427,-0.10759307,0,0,0,,0,269,269,90,1,
,,,,,,,,,,,,,,,,,,571dd9b913b1b70009be2d86,2020-11-27_15h11.08.145,lexical_decision_task_MP_exp2,2020.2.5,MacIntel,60,m,1,0.57142,,,,,,,,0.57142,1,,,,,,26,WORD,UN,16,butler,SPRINT,m,,,,,,0.092114427,-0.10759307,0,0,0,,0,270,270,205,1,
,,,,,,,,,,,,,,,,,,571dd9b913b1b70009be2d86,2020-11-27_15h11.08.145,lexical_decision_task_MP_exp2,2020.2.5,MacIntel,60,z,1,0.78127,,,,,,,,0.78127,1,,,,,,364,NW,"ID",16,impote,IMPOTE,z,,,,,,0.092114427,-0.10759307,0,0,0,,0,271,271,303,1,
,,,,,,,,,,,,,,,,,,571dd9b913b1b70009be2d86,2020-11-27_15h11.08.145,lexical_decision_task_MP_exp2,2020.2.5,MacIntel,60,z,1,0.644355,,,,,,,,0.644355,1,,,,,,410,NW,"ID",16,tunory,TUNORY,z,,,,,,0.092114427,-0.10759307,0,0,0,,0,272,272,349,1,
,,,,,,,,,,,,,,,,,,571dd9b913b1b70009be2d86,2020-11-27_15h11.08.145,lexical_decision_task_MP_exp2,2020.2.5,MacIntel,60,m,1,0.56637,,,,,,,,0.56637,1,,,,,,63,WORD,"ID",33,launch,LAUNCH,m,,,,,,0.092114427,-0.10759307,0,0,0,,0,273,273,2,1,
,,,,,,,,,,,,,,,,,,571dd9b913b1b70009be2d86,2020-11-27_15h11.08.145,lexical_decision_task_MP_exp2,2020.2.5,MacIntel,60,z,1,0.684605,,,,,,,,0.684605,1,,,,,,372,NW,"ID",16,ramily,RAMILY,z,,,,,,0.092114427,-0.10759307,0,0,0,,0,274,274,311,1,
,,,,,,,,,,,,,,,,,,571dd9b913b1b70009be2d86,2020-11-27_15h11.08.145,lexical_decision_task_MP_exp2,2020.2.5,MacIntel,60,z,1,0.750195,,,,,,,,0.750195,1,,,,,,356,NW,"ID",33,othnis,OTHNIS,z,,,,,,0.092114427,-0.10759307,0,0,0,,0,275,275,295,1,
,,,,,,,,,,,,,,,,,,571dd9b913b1b70009be2d86,2020-11-27_15h11.08.145,lexical_decision_task_MP_exp2,2020.2.5,MacIntel,60,z,1,0.474865,,,,,,,,0.474865,1,,,,,,264,NW,UN,16,distar,VACKEL,z,,,,,,0.092114427,-0.10759307,0,0,0,,0,276,276,443,1,
,,,,,,,,,,,,,,,,,,571dd9b913b1b70009be2d86,2020-11-27_15h11.08.145,lexical_decision_task_MP_exp2,2020.2.5,MacIntel,60,z,1,0.566605,,,,,,,,0.566605,1,,,,,,479,NW,UN,33,crible,LOBUSH,z,,,,,,0.092114427,-0.10759307,0,0,0,,0,277,277,418,1,
,,,,,,,,,,,,,,,,,,571dd9b913b1b70009be2d86,2020-11-27_15h11.08.145,lexical_decision_task_MP_exp2,2020.2.5,MacIntel,60,m,1,0.535805,,,,,,,,0.535805,1,,,,,,105,WORD,"ID",33,number,NUMBER,m,,,,,,0.092114427,-0.10759307,0,0,0,,0,278,278,44,1,
,,,,,,,,,,,,,,,,,,571dd9b913b1b70009be2d86,2020-11-27_15h11.08.145,lexical_decision_task_MP_exp2,2020.2.5,MacIntel,60,z,1,0.5825,,,,,,,,0.5825,1,,,,,,313,NW,"ID",33,paurse,PAURSE,z,,,,,,0.092114427,-0.10759307,0,0,0,,0,279,279,252,1,
,,,,,,,,,,,,,,,,,,571dd9b913b1b70009be2d86,2020-11-27_15h11.08.145,lexical_decision_task_MP_exp2,2020.2.5,MacIntel,60,m,1,0.60087,,,,,,,,0.60087,1,,,,,,36,WORD,UN,16,insult,VANISH,m,,,,,,0.092114427,-0.10759307,0,0,0,,0,280,280,215,1,
,,,,,,,,,,,,,,,,,,571dd9b913b1b70009be2d86,2020-11-27_15h11.08.145,lexical_decision_task_MP_exp2,2020.2.5,MacIntel,60,m,1,0.621675,,,,,,,,0.621675,1,,,,,,139,WORD,"ID",16,debris,DEBRIS,m,,,,,,0.092114427,-0.10759307,0,0,0,,0,281,281,78,1,
,,,,,,,,,,,,,,,,,,571dd9b913b1b70009be2d86,2020-11-27_15h11.08.145,lexical_decision_task_MP_exp2,2020.2.5,MacIntel,60,m,1,0.6445,,,,,,,,0.6445,1,,,,,,77,WORD,"ID",33,racket,RACKET,m,,,,,,0.092114427,-0.10759307,0,0,0,,0,282,282,16,1,
,,,,,,,,,,,,,,,,,,571dd9b913b1b70009be2d86,2020-11-27_15h11.08.145,lexical_decision_task_MP_exp2,2020.2.5,MacIntel,60,m,1,0.639035,,,,,,,,0.639035,1,,,,,,9,WORD,UN,16,bridge,HUSTLE,m,,,,,,0.092114427,-0.10759307,0,0,0,,0,283,283,188,1,
,,,,,,,,,,,,,,,,,,571dd9b913b1b70009be2d86,2020-11-27_15h11.08.145,lexical_decision_task_MP_exp2,2020.2.5,MacIntel,60,m,1,0.500955,,,,,,,,0.500955,1,,,,,,59,WORD,UN,16,pencil,SPLINT,m,,,,,,0.092114427,-0.10759307,0,0,0,,0,284,284,238,1,
,,,,,,,,,,,,,,,,,,571dd9b913b1b70009be2d86,2020-11-27_15h11.08.145,lexical_decision_task_MP_exp2,2020.2.5,MacIntel,60,z,1,0.823885,,,,,,,,0.823885,1,,,,,,368,NW,"ID",16,hornal,HORNAL,z,,,,,,0.092114427,-0.10759307,0,0,0,,0,285,285,307,1,
,,,,,,,,,,,,,,,,,,571dd9b913b1b70009be2d86,2020-11-27_15h11.08.145,lexical_decision_task_MP_exp2,2020.2.5,MacIntel,60,z,1,0.654665,,,,,,,,0.654665,1,,,,,,323,NW,"ID",33,rosail,ROSAIL,z,,,,,,0.092114427,-0.10759307,0,0,0,,0,286,286,262,1,
,,,,,,,,,,,,,,,,,,571dd9b913b1b70009be2d86,2020-11-27_15h11.08.145,lexical_decision_task_MP_exp2,2020.2.5,MacIntel,60,z,1,0.82719,,,,,,,,0.82719,1,,,,,,259,NW,UN,16,unject,SOUDAL,z,,,,,,0.092114427,-0.10759307,0,0,0,,0,287,287,438,1,
,,,,,,,,,,,,,,,,,,571dd9b913b1b70009be2d86,2020-11-27_15h11.08.145,lexical_decision_task_MP_exp2,2020.2.5,MacIntel,60,m,1,0.59115,,,,,,,,0.59115,1,,,,,,14,WORD,UN,16,orange,ALMOST,m,,,,,,0.092114427,-0.10759307,0,0,0,,0,288,288,193,1,
,,,,,,,,,,,,,,,,,,571dd9b913b1b70009be2d86,2020-11-27_15h11.08.145,lexical_decision_task_MP_exp2,2020.2.5,MacIntel,60,m,1,0.49949,,,,,,,,0.49949,1,,,,,,209,WORD,UN,33,monkey,SEARCH,m,,,,,,0.092114427,-0.10759307,0,0,0,,0,289,289,148,1,
,,,,,,,,,,,,,,,,,,571dd9b913b1b70009be2d86,2020-11-27_15h11.08.145,lexical_decision_task_MP_exp2,2020.2.5,MacIntel,60,z,1,0.546835,,,,,,,,0.546835,1,,,,,,346,NW,"ID",33,saudic,SAUDIC,z,,,,,,0.092114427,-0.10759307,0,0,0,,0,290,290,285,1,
,,,,,,,,,,,,,,,,,,571dd9b913b1b70009be2d86,2020-11-27_15h11.08.145,lexical_decision_task_MP_exp2,2020.2.5,MacIntel,60,z,1,0.67627,,,,,,,,0.67627,1,,,,,,292,NW,UN,16,swance,ABLINT,z,,,,,,0.092114427,-0.10759307,0,0,0,,0,291,291,471,1,
,,,,,,,,,,,,,,,,,,571dd9b913b1b70009be2d86,2020-11-27_15h11.08.145,lexical_decision_task_MP_exp2,2020.2.5,MacIntel,60,m,1,0.605805,,,,,,,,0.605805,1,,,,,,148,WORD,"ID",16,custom,CUSTOM,m,,,,,,0.092114427,-0.10759307,0,0,0,,0,292,292,87,1,
,,,,,,,,,,,,,,,,,,571dd9b913b1b70009be2d86,2020-11-27_15h11.08.145,lexical_decision_task_MP_exp2,2020.2.5,MacIntel,60,z,1,0.64251,,,,,,,,0.64251,1,,,,,,475,NW,UN,33,josted,PEBRIC,z,,,,,,0.092114427,-0.10759307,0,0,0,,0,293,293,414,1,
,,,,,,,,,,,,,,,,,,571dd9b913b1b70009be2d86,2020-11-27_15h11.08.145,lexical_decision_task_MP_exp2,2020.2.5,MacIntel,60,z,1,0.733685,,,,,,,,0.733685,1,,,,,,392,NW,"ID",16,rouncy,ROUNCY,z,,,,,,0.092114427,-0.10759307,0,0,0,,0,294,294,331,1,
,,,,,,,,,,,,,,,,,,571dd9b913b1b70009be2d86,2020-11-27_15h11.08.145,lexical_decision_task_MP_exp2,2020.2.5,MacIntel,60,z,1,0.616845,,,,,,,,0.616845,1,,,,,,273,NW,UN,16,fumblo,SORTEL,z,,,,,,0.092114427,-0.10759307,0,0,0,,0,295,295,452,1,
,,,,,,,,,,,,,,,,,,571dd9b913b1b70009be2d86,2020-11-27_15h11.08.145,lexical_decision_task_MP_exp2,2020.2.5,MacIntel,60,z,1,0.71571,,,,,,,,0.71571,1,,,,,,432,NW,UN,33,drance,LUNKER,z,,,,,,0.092114427,-0.10759307,0,0,0,,0,296,296,371,1,
,,,,,,,,,,,,,,,,,,571dd9b913b1b70009be2d86,2020-11-27_15h11.08.145,lexical_decision_task_MP_exp2,2020.2.5,MacIntel,60,m,1,0.480685,,,,,,,,0.480685,1,,,,,,197,WORD,UN,33,wicked,STREAM,m,,,,,,0.092114427,-0.10759307,0,0,0,,0,297,297,136,1,
,,,,,,,,,,,,,,,,,,571dd9b913b1b70009be2d86,2020-11-27_15h11.08.145,lexical_decision_task_MP_exp2,2020.2.5,MacIntel,60,m,1,0.541445,,,,,,,,0.541445,1,,,,,,102,WORD,"ID",33,direct,DIRECT,m,,,,,,0.092114427,-0.10759307,0,0,0,,0,298,298,41,1,
,,,,,,,,,,,,,,,,,,571dd9b913b1b70009be2d86,2020-11-27_15h11.08.145,lexical_decision_task_MP_exp2,2020.2.5,MacIntel,60,m,1,0.521125,,,,,,,,0.521125,1,,,,,,81,WORD,"ID",33,friend,FRIEND,m,,,,,,0.092114427,-0.10759307,0,0,0,,0,299,299,20,1,
,,,,,,,,,,,,,,,,,,571dd9b913b1b70009be2d86,2020-11-27_15h11.08.145,lexical_decision_task_MP_exp2,2020.2.5,MacIntel,60,z,1,0.57346,,,,,,,,0.57346,1,,,,,,437,NW,UN,33,baitch,SNAPEL,z,,,,,,0.092114427,-0.10759307,0,0,0,,0,300,300,376,1,
,,,,,,,,,,,,,,,,,,571dd9b913b1b70009be2d86,2020-11-27_15h11.08.145,lexical_decision_task_MP_exp2,2020.2.5,MacIntel,60,m,1,0.73361,,,,,,,,0.73361,1,,,,,,166,WORD,"ID",16,starch,STARCH,m,,,,,,0.092114427,-0.10759307,0,0,0,,0,301,301,105,1,
,,,,,,,,,,,,,,,,,,571dd9b913b1b70009be2d86,2020-11-27_15h11.08.145,lexical_decision_task_MP_exp2,2020.2.5,MacIntel,60,m,1,0.48012,,,,,,,,0.48012,1,,,,,,67,WORD,"ID",33,policy,POLICY,m,,,,,,0.092114427,-0.10759307,0,0,0,,0,302,302,6,1,
,,,,,,,,,,,,,,,,,,571dd9b913b1b70009be2d86,2020-11-27_15h11.08.145,lexical_decision_task_MP_exp2,2020.2.5,MacIntel,60,z,1,0.565395,,,,,,,,0.565395,1,,,,,,298,NW,UN,16,sturch,PIERGY,z,,,,,,0.092114427,-0.10759307,0,0,0,,0,303,303,477,1,
,,,,,,,,,,,,,,,,,,571dd9b913b1b70009be2d86,2020-11-27_15h11.08.145,lexical_decision_task_MP_exp2,2020.2.5,MacIntel,60,z,1,0.60708,,,,,,,,0.60708,1,,,,,,277,NW,UN,16,unighs,PETAIN,z,,,,,,0.092114427,-0.10759307,0,0,0,,0,304,304,456,1,
,,,,,,,,,,,,,,,,,,571dd9b913b1b70009be2d86,2020-11-27_15h11.08.145,lexical_decision_task_MP_exp2,2020.2.5,MacIntel,60,z,1,0.64276,,,,,,,,0.64276,1,,,,,,466,NW,UN,33,robuly,HOCITE,z,,,,,,0.092114427,-0.10759307,0,0,0,,0,305,305,405,1,
,,,,,,,,,,,,,,,,,,571dd9b913b1b70009be2d86,2020-11-27_15h11.08.145,lexical_decision_task_MP_exp2,2020.2.5,MacIntel,60,z,1,0.5967,,,,,,,,0.5967,1,,,,,,470,NW,UN,33,nobest,CRUDIO,z,,,,,,0.092114427,-0.10759307,0,0,0,,0,306,306,409,1,
,,,,,,,,,,,,,,,,,,571dd9b913b1b70009be2d86,2020-11-27_15h11.08.145,lexical_decision_task_MP_exp2,2020.2.5,MacIntel,60,z,1,0.609575,,,,,,,,0.609575,1,,,,,,450,NW,UN,33,cainky,PHRECT,z,,,,,,0.092114427,-0.10759307,0,0,0,,0,307,307,389,1,
,,,,,,,,,,,,,,,,,,571dd9b913b1b70009be2d86,2020-11-27_15h11.08.145,lexical_decision_task_MP_exp2,2020.2.5,MacIntel,60,z,1,0.60813,,,,,,,,0.60813,1,,,,,,457,NW,UN,33,barcet,WANIGH,z,,,,,,0.092114427,-0.10759307,0,0,0,,0,308,308,396,1,
,,,,,,,,,,,,,,,,,,571dd9b913b1b70009be2d86,2020-11-27_15h11.08.145,lexical_decision_task_MP_exp2,2020.2.5,MacIntel,60,m,1,0.543305,,,,,,,,0.543305,1,,,,,,207,WORD,UN,33,hockey,WREATH,m,,,,,,0.092114427,-0.10759307,0,0,0,,0,309,309,146,1,
,,,,,,,,,,,,,,,,,,571dd9b913b1b70009be2d86,2020-11-27_15h11.08.145,lexical_decision_task_MP_exp2,2020.2.5,MacIntel,60,m,1,0.600415,,,,,,,,0.600415,1,,,,,,136,WORD,"ID",16,bleach,BLEACH,m,,,,,,0.092114427,-0.10759307,0,0,0,,0,310,310,75,1,
,,,,,,,,,,,,,,,,,,571dd9b913b1b70009be2d86,2020-11-27_15h11.08.145,lexical_decision_task_MP_exp2,2020.2.5,MacIntel,60,z,1,0.519345,,,,,,,,0.519345,1,,,,,,350,NW,"ID",33,nagurs,NAGURS,z,,,,,,0.092114427,-0.10759307,0,0,0,,0,311,311,289,1,
,,,,,,,,,,,,,,,,,,571dd9b913b1b70009be2d86,2020-11-27_15h11.08.145,lexical_decision_task_MP_exp2,2020.2.5,MacIntel,60,m,1,0.589265,,,,,,,,0.589265,1,,,,,,11,WORD,UN,16,amount,CRUISE,m,,,,,,0.092114427,-0.10759307,0,0,0,,0,312,312,190,1,
,,,,,,,,,,,,,,,,,,571dd9b913b1b70009be2d86,2020-11-27_15h11.08.145,lexical_decision_task_MP_exp2,2020.2.5,MacIntel,60,z,1,0.64315,,,,,,,,0.64315,1,,,,,,354,NW,"ID",33,virlex,VIRLEX,z,,,,,,0.092114427,-0.10759307,0,0,0,,0,313,313,293,1,
,,,,,,,,,,,,,,,,,,571dd9b913b1b70009be2d86,2020-11-27_15h11.08.145,lexical_decision_task_MP_exp2,2020.2.5,MacIntel,60,m,1,0.49824,,,,,,,,0.49824,1,,,,,,159,WORD,"ID",16,detail,DETAIL,m,,,,,,0.092114427,-0.10759307,0,0,0,,0,314,314,98,1,
,,,,,,,,,,,,,,,,,,571dd9b913b1b70009be2d86,2020-11-27_15h11.08.145,lexical_decision_task_MP_exp2,2020.2.5,MacIntel,60,m,1,0.48944,,,,,,,,0.48944,1,,,,,,94,WORD,"ID",33,travel,TRAVEL,m,,,,,,0.092114427,-0.10759307,0,0,0,,0,315,315,33,1,
,,,,,,,,,,,,,,,,,,571dd9b913b1b70009be2d86,2020-11-27_15h11.08.145,lexical_decision_task_MP_exp2,2020.2.5,MacIntel,60,z,1,1.15545,,,,,,,,1.15545,1,,,,,,373,NW,"ID",16,bigent,BIGENT,z,,,,,,0.092114427,-0.10759307,0,0,0,,0,316,316,312,1,
,,,,,,,,,,,,,,,,,,571dd9b913b1b70009be2d86,2020-11-27_15h11.08.145,lexical_decision_task_MP_exp2,2020.2.5,MacIntel,60,z,1,1.001025,,,,,,,,1.001025,1,,,,,,378,NW,"ID",16,shrile,SHRILE,z,,,,,,0.092114427,-0.10759307,0,0,0,,0,317,317,317,1,
,,,,,,,,,,,,,,,,,,571dd9b913b1b70009be2d86,2020-11-27_15h11.08.145,lexical_decision_task_MP_exp2,2020.2.5,MacIntel,60,z,1,0.732875,,,,,,,,0.732875,1,,,,,,465,NW,UN,33,bafent,WHIVEX,z,,,,,,0.092114427,-0.10759307,0,0,0,,0,318,318,404,1,
,,,,,,,,,,,,,,,,,,571dd9b913b1b70009be2d86,2020-11-27_15h11.08.145,lexical_decision_task_MP_exp2,2020.2.5,MacIntel,60,z,1,0.580725,,,,,,,,0.580725,1,,,,,,241,NW,UN,16,unwert,SMENCO,z,,,,,,0.092114427,-0.10759307,0,0,0,,0,319,319,420,1,
,,,,,,,,,,,,,,,,,,571dd9b913b1b70009be2d86,2020-11-27_15h11.08.145,lexical_decision_task_MP_exp2,2020.2.5,MacIntel,60,z,1,0.577335,,,,,,,,0.577335,1,,,,,,355,NW,"ID",33,zingly,ZINGLY,z,,,,,,0.092114427,-0.10759307,0,0,0,,0,320,320,294,1,
,,,,,,,,,,,,,,,,,,571dd9b913b1b70009be2d86,2020-11-27_15h11.08.145,lexical_decision_task_MP_exp2,2020.2.5,MacIntel,60,z,1,0.85477,,,,,,,,0.85477,1,,,,,,407,NW,"ID",16,suiver,SUIVER,z,,,,,,0.092114427,-0.10759307,0,0,0,,0,321,321,346,1,
,,,,,,,,,,,,,,,,,,571dd9b913b1b70009be2d86,2020-11-27_15h11.08.145,lexical_decision_task_MP_exp2,2020.2.5,MacIntel,60,m,1,0.53979,,,,,,,,0.53979,1,,,,,,112,WORD,"ID",33,breath,BREATH,m,,,,,,0.092114427,-0.10759307,0,0,0,,0,322,322,51,1,
,,,,,,,,,,,,,,,,,,571dd9b913b1b70009be2d86,2020-11-27_15h11.08.145,lexical_decision_task_MP_exp2,2020.2.5,MacIntel,60,m,1,0.553155,,,,,,,,0.553155,1,,,,,,226,WORD,UN,33,flower,CASINO,m,,,,,,0.092114427,-0.10759307,0,0,0,,0,323,323,165,1,
,,,,,,,,,,,,,,,,,,571dd9b913b1b70009be2d86,2020-11-27_15h11.08.145,lexical_decision_task_MP_exp2,2020.2.5,MacIntel,60,z,1,0.552315,,,,,,,,0.552315,1,,,,,,320,NW,"ID",33,jockal,JOCKAL,z,,,,,,0.092114427,-0.10759307,0,0,0,,0,324,324,259,1,
,,,,,,,,,,,,,,,,,,571dd9b913b1b70009be2d86,2020-11-27_15h11.08.145,lexical_decision_task_MP_exp2,2020.2.5,MacIntel,60,m,1,0.64928,,,,,,,,0.64928,1,,,,,,206,WORD,UN,33,wreath,TAILOR,m,,,,,,0.092114427,-0.10759307,0,0,0,,0,325,325,145,1,
,,,,,,,,,,,,,,,,,,571dd9b913b1b70009be2d86,2020-11-27_15h11.08.145,lexical_decision_task_MP_exp2,2020.2.5,MacIntel,60,m,1,0.522365,,,,,,,,0.522365,1,,,,,,192,WORD,UN,33,object,PLAGUE,m,,,,,,0.092114427,-0.10759307,0,0,0,,0,326,326,131,1,
,,,,,,,,,,,,,,,,,,571dd9b913b1b70009be2d86,2020-11-27_15h11.08.145,lexical_decision_task_MP_exp2,2020.2.5,MacIntel,60,z,1,0.60878,,,,,,,,0.60878,1,,,,,,359,NW,"ID",33,fonver,FONVER,z,,,,,,0.092114427,-0.10759307,0,0,0,,0,327,327,298,1,
,,,,,,,,,,,,,,,,,,571dd9b913b1b70009be2d86,2020-11-27_15h11.08.145,lexical_decision_task_MP_exp2,2020.2.5,MacIntel,60,z,1,0.82123,,,,,,,,0.82123,1,,,,,,295,NW,UN,16,beinch,GLEATH,z,,,,,,0.092114427,-0.10759307,0,0,0,,0,328,328,474,1,
,,,,,,,,,,,,,,,,,,571dd9b913b1b70009be2d86,2020-11-27_15h11.08.145,lexical_decision_task_MP_exp2,2020.2.5,MacIntel,60,z,1,0.54439,,,,,,,,0.54439,1,,,,,,412,NW,"ID",16,jiluer,JILUER,z,,,,,,0.092114427,-0.10759307,0,0,0,,0,329,329,351,1,
,,,,,,,,,,,,,,,,,,571dd9b913b1b70009be2d86,2020-11-27_15h11.08.145,lexical_decision_task_MP_exp2,2020.2.5,MacIntel,60,m,1,0.551125,,,,,,,,0.551125,1,,,,,,170,WORD,"ID",16,pounce,POUNCE,m,,,,,,0.092114427,-0.10759307,0,0,0,,0,330,330,109,1,
,,,,,,,,,,,,,,,,,,571dd9b913b1b70009be2d86,2020-11-27_15h11.08.145,lexical_decision_task_MP_exp2,2020.2.5,MacIntel,60,z,1,0.57362,,,,,,,,0.57362,1,,,,,,446,NW,UN,33,gircue,RUNAMO,z,,,,,,0.092114427,-0.10759307,0,0,0,,0,331,331,385,1,
,,,,,,,,,,,,,,,,,,571dd9b913b1b70009be2d86,2020-11-27_15h11.08.145,lexical_decision_task_MP_exp2,2020.2.5,MacIntel,60,m,1,0.530085,,,,,,,,0.530085,1,,,,,,73,WORD,"ID",33,source,SOURCE,m,,,,,,0.092114427,-0.10759307,0,0,0,,0,332,332,12,1,
,,,,,,,,,,,,,,,,,,571dd9b913b1b70009be2d86,2020-11-27_15h11.08.145,lexical_decision_task_MP_exp2,2020.2.5,MacIntel,60,m,1,0.55933,,,,,,,,0.55933,1,,,,,,28,WORD,UN,16,sketch,COMEDY,m,,,,,,0.092114427,-0.10759307,0,0,0,,0,333,333,207,1,
,,,,,,,,,,,,,,,,,,571dd9b913b1b70009be2d86,2020-11-27_15h11.08.145,lexical_decision_task_MP_exp2,2020.2.5,MacIntel,60,m,1,0.521845,,,,,,,,0.521845,1,,,,,,97,WORD,"ID",33,client,CLIENT,m,,,,,,0.092114427,-0.10759307,0,0,0,,0,334,334,36,1,
,,,,,,,,,,,,,,,,,,571dd9b913b1b70009be2d86,2020-11-27_15h11.08.145,lexical_decision_task_MP_exp2,2020.2.5,MacIntel,60,m,0,0.46359,,,,,,,,0.46359,0,,,,,,324,NW,"ID",33,steikh,STEIKH,z,,,,,,0.092114427,-0.10759307,0,0,0,,0,335,335,263,1,
,,,,,,,,,,,,,,,,,,571dd9b913b1b70009be2d86,2020-11-27_15h11.08.145,lexical_decision_task_MP_exp2,2020.2.5,MacIntel,60,z,1,0.58372,,,,,,,,0.58372,1,,,,,,287,NW,UN,16,yaceup,NYMBEL,z,,,,,,0.092114427,-0.10759307,0,0,0,,0,336,336,466,1,
,,,,,,,,,,,,,,,,,,571dd9b913b1b70009be2d86,2020-11-27_15h11.08.145,lexical_decision_task_MP_exp2,2020.2.5,MacIntel,60,z,1,0.80798,,,,,,,,0.80798,1,,,,,,385,NW,"ID",16,veigma,VEIGMA,z,,,,,,0.092114427,-0.10759307,0,0,0,,0,337,337,324,1,
,,,,,,,,,,,,,,,,,,571dd9b913b1b70009be2d86,2020-11-27_15h11.08.145,lexical_decision_task_MP_exp2,2020.2.5,MacIntel,60,m,1,0.48789,,,,,,,,0.48789,1,,,,,,150,WORD,"ID",16,random,RANDOM,m,,,,,,0.092114427,-0.10759307,0,0,0,,0,338,338,89,1,
,,,,,,,,,,,,,,,,,,571dd9b913b1b70009be2d86,2020-11-27_15h11.08.145,lexical_decision_task_MP_exp2,2020.2.5,MacIntel,60,z,1,0.673925,,,,,,,,0.673925,1,,,,,,319,NW,"ID",33,zomber,ZOMBER,z,,,,,,0.092114427,-0.10759307,0,0,0,,0,339,339,258,1,
,,,,,,,,,,,,,,,,,,571dd9b913b1b70009be2d86,2020-11-27_15h11.08.145,lexical_decision_task_MP_exp2,2020.2.5,MacIntel,60,z,1,0.584615,,,,,,,,0.584615,1,,,,,,293,NW,UN,16,inhort,SWANCE,z,,,,,,0.092114427,-0.10759307,0,0,0,,0,340,340,472,1,
,,,,,,,,,,,,,,,,,,571dd9b913b1b70009be2d86,2020-11-27_15h11.08.145,lexical_decision_task_MP_exp2,2020.2.5,MacIntel,60,m,1,0.563615,,,,,,,,0.563615,1,,,,,,87,WORD,"ID",33,filter,FILTER,m,,,,,,0.092114427,-0.10759307,0,0,0,,0,341,341,26,1,
,,,,,,,,,,,,,,,,,,571dd9b913b1b70009be2d86,2020-11-27_15h11.08.145,lexical_decision_task_MP_exp2,2020.2.5,MacIntel,60,m,1,0.59937,,,,,,,,0.59937,1,,,,,,234,WORD,UN,33,poster,CLUMSY,m,,,,,,0.092114427,-0.10759307,0,0,0,,0,342,342,173,1,
,,,,,,,,,,,,,,,,,,571dd9b913b1b70009be2d86,2020-11-27_15h11.08.145,lexical_decision_task_MP_exp2,2020.2.5,MacIntel,60,m,1,0.624935,,,,,,,,0.624935,1,,,,,,211,WORD,UN,33,verify,INFECT,m,,,,,,0.092114427,-0.10759307,0,0,0,,0,343,343,150,1,
,,,,,,,,,,,,,,,,,,571dd9b913b1b70009be2d86,2020-11-27_15h11.08.145,lexical_decision_task_MP_exp2,2020.2.5,MacIntel,60,z,1,0.68286,,,,,,,,0.68286,1,,,,,,265,NW,UN,16,varmit,DISTAR,z,,,,,,0.092114427,-0.10759307,0,0,0,,0,344,344,444,1,
,,,,,,,,,,,,,,,,,,571dd9b913b1b70009be2d86,2020-11-27_15h11.08.145,lexical_decision_task_MP_exp2,2020.2.5,MacIntel,60,z,1,1.2474,,,,,,,,1.2474,1,,,,,,341,NW,"ID",33,myrtie,MYRTIE,z,,,,,,0.092114427,-0.10759307,0,0,0,,0,345,345,280,1,
,,,,,,,,,,,,,,,,,,571dd9b913b1b70009be2d86,2020-11-27_15h11.08.145,lexical_decision_task_MP_exp2,2020.2.5,MacIntel,60,m,1,0.59227,,,,,,,,0.59227,1,,,,,,17,WORD,UN,16,humble,CHARGE,m,,,,,,0.092114427,-0.10759307,0,0,0,,0,346,346,196,1,
,,,,,,,,,,,,,,,,,,571dd9b913b1b70009be2d86,2020-11-27_15h11.08.145,lexical_decision_task_MP_exp2,2020.2.5,MacIntel,60,z,1,0.587465,,,,,,,,0.587465,1,,,,,,476,NW,UN,33,photie,JOSTED,z,,,,,,0.092114427,-0.10759307,0,0,0,,0,347,347,415,1,
,,,,,,,,,,,,,,,,,,571dd9b913b1b70009be2d86,2020-11-27_15h11.08.145,lexical_decision_task_MP_exp2,2020.2.5,MacIntel,60,z,1,0.61348,,,,,,,,0.61348,1,,,,,,382,NW,"ID",16,sarley,SARLEY,z,,,,,,0.092114427,-0.10759307,0,0,0,,0,348,348,321,1,
,,,,,,,,,,,,,,,,,,571dd9b913b1b70009be2d86,2020-11-27_15h11.08.145,lexical_decision_task_MP_exp2,2020.2.5,MacIntel,60,z,1,0.62218,,,,,,,,0.62218,1,,,,,,304,NW,"ID",33,cludie,CLUDIE,z,,,,,,0.092114427,-0.10759307,0,0,0,,0,349,349,243,1,
,,,,,,,,,,,,,,,,,,571dd9b913b1b70009be2d86,2020-11-27_15h11.08.145,lexical_decision_task_MP_exp2,2020.2.5,MacIntel,60,z,1,0.60893,,,,,,,,0.60893,1,,,,,,342,NW,"ID",33,randow,RANDOW,z,,,,,,0.092114427,-0.10759307,0,0,0,,0,350,350,281,1,
,,,,,,,,,,,,,,,,,,571dd9b913b1b70009be2d86,2020-11-27_15h11.08.145,lexical_decision_task_MP_exp2,2020.2.5,MacIntel,60,z,1,0.59586,,,,,,,,0.59586,1,,,,,,262,NW,UN,16,dolica,QUILEW,z,,,,,,0.092114427,-0.10759307,0,0,0,,0,351,351,441,1,
,,,,,,,,,,,,,,,,,,571dd9b913b1b70009be2d86,2020-11-27_15h11.08.145,lexical_decision_task_MP_exp2,2020.2.5,MacIntel,60,m,1,0.65931,,,,,,,,0.65931,1,,,,,,75,WORD,"ID",33,trophy,TROPHY,m,,,,,,0.092114427,-0.10759307,0,0,0,,0,352,352,14,1,
,,,,,,,,,,,,,,,,,,571dd9b913b1b70009be2d86,2020-11-27_15h11.08.145,lexical_decision_task_MP_exp2,2020.2.5,MacIntel,60,m,1,0.623995,,,,,,,,0.623995,1,,,,,,220,WORD,UN,33,mascot,VOYAGE,m,,,,,,0.092114427,-0.10759307,0,0,0,,0,353,353,159,1,
,,,,,,,,,,,,,,,,,,571dd9b913b1b70009be2d86,2020-11-27_15h11.08.145,lexical_decision_task_MP_exp2,2020.2.5,MacIntel,60,z,1,0.575645,,,,,,,,0.575645,1,,,,,,431,NW,UN,33,lunker,CHRUMS,z,,,,,,0.092114427,-0.10759307,0,0,0,,0,354,354,370,1,
,,,,,,,,,,,,,,,,,,571dd9b913b1b70009be2d86,2020-11-27_15h11.08.145,lexical_decision_task_MP_exp2,2020.2.5,MacIntel,60,m,1,0.74799,,,,,,,,0.74799,1,,,,,,221,WORD,UN,33,hinder,MASCOT,m,,,,,,0.092114427,-0.10759307,0,0,0,,0,355,355,160,1,
,,,,,,,,,,,,,,,,,,571dd9b913b1b70009be2d86,2020-11-27_15h11.08.145,lexical_decision_task_MP_exp2,2020.2.5,MacIntel,60,m,1,0.61689,,,,,,,,0.61689,1,,,,,,147,WORD,"ID",16,garlic,GARLIC,m,,,,,,0.092114427,-0.10759307,0,0,0,,0,356,356,86,1,
,,,,,,,,,,,,,,,,,,571dd9b913b1b70009be2d86,2020-11-27_15h11.08.145,lexical_decision_task_MP_exp2,2020.2.5,MacIntel,60,m,1,0.609635,,,,,,,,0.609635,1,,,,,,19,WORD,UN,16,breast,PATRON,m,,,,,,0.092114427,-0.10759307,0,0,0,,0,357,357,198,1,
,,,,,,,,,,,,,,,,,,571dd9b913b1b70009be2d86,2020-11-27_15h11.08.145,lexical_decision_task_MP_exp2,2020.2.5,MacIntel,60,z,1,0.588555,,,,,,,,0.588555,1,,,,,,353,NW,"ID",33,clurey,CLUREY,z,,,,,,0.092114427,-0.10759307,0,0,0,,0,358,358,292,1,
,,,,,,,,,,,,,,,,,,571dd9b913b1b70009be2d86,2020-11-27_15h11.08.145,lexical_decision_task_MP_exp2,2020.2.5,MacIntel,60,z,1,0.535835,,,,,,,,0.535835,1,,,,,,453,NW,UN,33,scouge,BOLVIS,z,,,,,,0.092114427,-0.10759307,0,0,0,,0,359,359,392,1,
,,,,,,,,,,,,,,,,,,571dd9b913b1b70009be2d86,2020-11-27_15h11.08.145,lexical_decision_task_MP_exp2,2020.2.5,MacIntel,60,m,1,0.459255,,,,,,,,0.459255,1,,,,,,228,WORD,UN,33,kidney,MASTER,m,,,,,,0.092114427,-0.10759307,0,0,0,,0,360,360,167,1,
,,,,,,,,,,,,,,,,,,571dd9b913b1b70009be2d86,2020-11-27_15h11.08.145,lexical_decision_task_MP_exp2,2020.2.5,MacIntel,60,m,1,0.53281,,,,,,,,0.53281,1,,,,,,138,WORD,"ID",16,melody,MELODY,m,,,,,,0.092114427,-0.10759307,0,0,0,,0,361,361,77,1,
,,,,,,,,,,,,,,,,,,571dd9b913b1b70009be2d86,2020-11-27_15h11.08.145,lexical_decision_task_MP_exp2,2020.2.5,MacIntel,60,z,1,0.815935,,,,,,,,0.815935,1,,,,,,327,NW,"ID",33,plenac,PLENAC,z,,,,,,0.092114427,-0.10759307,0,0,0,space,0,362,362,266,1,16.54158
,,,,,,,,,,,,,,,,,,571dd9b913b1b70009be2d86,2020-11-27_15h11.08.145,lexical_decision_task_MP_exp2,2020.2.5,MacIntel,60,z,1,0.63517,,,,,,,,0.63517,1,,,,,,363,NW,"ID",16,breali,BREALI,z,,,,,,0.092114427,-0.10759307,0,0,0,,0,363,363,302,1,
,,,,,,,,,,,,,,,,,,571dd9b913b1b70009be2d86,2020-11-27_15h11.08.145,lexical_decision_task_MP_exp2,2020.2.5,MacIntel,60,z,1,0.57046,,,,,,,,0.57046,1,,,,,,416,NW,"ID",16,pathel,PATHEL,z,,,,,,0.092114427,-0.10759307,0,0,0,,0,364,364,355,1,
,,,,,,,,,,,,,,,,,,571dd9b913b1b70009be2d86,2020-11-27_15h11.08.145,lexical_decision_task_MP_exp2,2020.2.5,MacIntel,60,m,1,0.60755,,,,,,,,0.60755,1,,,,,,82,WORD,"ID",33,stigma,STIGMA,m,,,,,,0.092114427,-0.10759307,0,0,0,,0,365,365,21,1,
,,,,,,,,,,,,,,,,,,571dd9b913b1b70009be2d86,2020-11-27_15h11.08.145,lexical_decision_task_MP_exp2,2020.2.5,MacIntel,60,m,1,0.57122,,,,,,,,0.57122,1,,,,,,60,WORD,UN,16,fright,PENCIL,m,,,,,,0.092114427,-0.10759307,0,0,0,,0,366,366,239,1,
,,,,,,,,,,,,,,,,,,571dd9b913b1b70009be2d86,2020-11-27_15h11.08.145,lexical_decision_task_MP_exp2,2020.2.5,MacIntel,60,m,1,0.506495,,,,,,,,0.506495,1,,,,,,191,WORD,UN,33,beacon,STABLE,m,,,,,,0.092114427,-0.10759307,0,0,0,,0,367,367,130,1,
,,,,,,,,,,,,,,,,,,571dd9b913b1b70009be2d86,2020-11-27_15h11.08.145,lexical_decision_task_MP_exp2,2020.2.5,MacIntel,60,z,1,0.547435,,,,,,,,0.547435,1,,,,,,367,NW,"ID",16,slique,SLIQUE,z,,,,,,0.092114427,-0.10759307,0,0,0,,0,368,368,306,1,
,,,,,,,,,,,,,,,,,,571dd9b913b1b70009be2d86,2020-11-27_15h11.08.145,lexical_decision_task_MP_exp2,2020.2.5,MacIntel,60,m,1,0.540715,,,,,,,,0.540715,1,,,,,,31,WORD,UN,16,buckle,WEAPON,m,,,,,,0.092114427,-0.10759307,0,0,0,,0,369,369,210,1,
,,,,,,,,,,,,,,,,,,571dd9b913b1b70009be2d86,2020-11-27_15h11.08.145,lexical_decision_task_MP_exp2,2020.2.5,MacIntel,60,m,1,0.5513,,,,,,,,0.5513,1,,,,,,195,WORD,UN,33,credit,RESIGN,m,,,,,,0.092114427,-0.10759307,0,0,0,,0,370,370,134,1,
,,,,,,,,,,,,,,,,,,571dd9b913b1b70009be2d86,2020-11-27_15h11.08.145,lexical_decision_task_MP_exp2,2020.2.5,MacIntel,60,m,1,0.58738,,,,,,,,0.58738,1,,,,,,181,WORD,UN,33,winter,GLANCE,m,,,,,,0.092114427,-0.10759307,0,0,0,,0,371,371,120,1,
,,,,,,,,,,,,,,,,,,571dd9b913b1b70009be2d86,2020-11-27_15h11.08.145,lexical_decision_task_MP_exp2,2020.2.5,MacIntel,60,z,1,0.75229,,,,,,,,0.75229,1,,,,,,358,NW,"ID",33,fleack,FLEACK,z,,,,,,0.092114427,-0.10759307,0,0,0,,0,372,372,297,1,
,,,,,,,,,,,,,,,,,,571dd9b913b1b70009be2d86,2020-11-27_15h11.08.145,lexical_decision_task_MP_exp2,2020.2.5,MacIntel,60,m,1,0.55542,,,,,,,,0.55542,1,,,,,,32,WORD,UN,16,scream,BUCKLE,m,,,,,,0.092114427,-0.10759307,0,0,0,,0,373,373,211,1,
,,,,,,,,,,,,,,,,,,571dd9b913b1b70009be2d86,2020-11-27_15h11.08.145,lexical_decision_task_MP_exp2,2020.2.5,MacIntel,60,m,1,0.49707,,,,,,,,0.49707,1,,,,,,91,WORD,"ID",33,expand,EXPAND,m,,,,,,0.092114427,-0.10759307,0,0,0,,0,374,374,30,1,
,,,,,,,,,,,,,,,,,,571dd9b913b1b70009be2d86,2020-11-27_15h11.08.145,lexical_decision_task_MP_exp2,2020.2.5,MacIntel,60,m,1,0.76353,,,,,,,,0.76353,1,,,,,,176,WORD,"ID",16,strife,STRIFE,m,,,,,,0.092114427,-0.10759307,0,0,0,,0,375,375,115,1,
,,,,,,,,,,,,,,,,,,571dd9b913b1b70009be2d86,2020-11-27_15h11.08.145,lexical_decision_task_MP_exp2,2020.2.5,MacIntel,60,m,1,0.56897,,,,,,,,0.56897,1,,,,,,69,WORD,"ID",33,plenty,PLENTY,m,,,,,,0.092114427,-0.10759307,0,0,0,,0,376,376,8,1,
,,,,,,,,,,,,,,,,,,571dd9b913b1b70009be2d86,2020-11-27_15h11.08.145,lexical_decision_task_MP_exp2,2020.2.5,MacIntel,60,m,1,0.509995,,,,,,,,0.509995,1,,,,,,57,WORD,UN,16,danger,CHANGE,m,,,,,,0.092114427,-0.10759307,0,0,0,,0,377,377,236,1,
,,,,,,,,,,,,,,,,,,571dd9b913b1b70009be2d86,2020-11-27_15h11.08.145,lexical_decision_task_MP_exp2,2020.2.5,MacIntel,60,m,1,0.567675,,,,,,,,0.567675,1,,,,,,61,WORD,"ID",33,ponder,PONDER,m,,,,,,0.092114427,-0.10759307,0,0,0,,0,378,378,0,1,
,,,,,,,,,,,,,,,,,,571dd9b913b1b70009be2d86,2020-11-27_15h11.08.145,lexical_decision_task_MP_exp2,2020.2.5,MacIntel,60,z,1,0.79475,,,,,,,,0.79475,1,,,,,,419,NW,"ID",16,slount,SLOUNT,z,,,,,,0.092114427,-0.10759307,0,0,0,,0,379,379,358,1,
,,,,,,,,,,,,,,,,,,571dd9b913b1b70009be2d86,2020-11-27_15h11.08.145,lexical_decision_task_MP_exp2,2020.2.5,MacIntel,60,z,0,0.60985,,,,,,,,0.60985,0,,,,,,16,WORD,UN,16,charge,FAUCET,m,,,,,,0.092114427,-0.10759307,0,0,0,,0,380,380,195,1,
,,,,,,,,,,,,,,,,,,571dd9b913b1b70009be2d86,2020-11-27_15h11.08.145,lexical_decision_task_MP_exp2,2020.2.5,MacIntel,60,m,0,0.86439,,,,,,,,0.86439,0,,,,,,462,NW,UN,33,kispel,ABSULT,z,,,,,,0.092114427,-0.10759307,0,0,0,,0,381,381,401,1,
,,,,,,,,,,,,,,,,,,571dd9b913b1b70009be2d86,2020-11-27_15h11.08.145,lexical_decision_task_MP_exp2,2020.2.5,MacIntel,60,m,1,0.53943,,,,,,,,0.53943,1,,,,,,164,WORD,"ID",16,market,MARKET,m,,,,,,0.092114427,-0.10759307,0,0,0,,0,382,382,103,1,
,,,,,,,,,,,,,,,,,,571dd9b913b1b70009be2d86,2020-11-27_15h11.08.145,lexical_decision_task_MP_exp2,2020.2.5,MacIntel,60,m,1,0.693025,,,,,,,,0.693025,1,,,,,,169,WORD,"ID",16,genius,GENIUS,m,,,,,,0.092114427,-0.10759307,0,0,0,,0,383,383,108,1,
,,,,,,,,,,,,,,,,,,571dd9b913b1b70009be2d86,2020-11-27_15h11.08.145,lexical_decision_task_MP_exp2,2020.2.5,MacIntel,60,z,1,1.000375,,,,,,,,1.000375,1,,,,,,260,NW,UN,16,stunch,UNJECT,z,,,,,,0.092114427,-0.10759307,0,0,0,,0,384,384,439,1,
,,,,,,,,,,,,,,,,,,571dd9b913b1b70009be2d86,2020-11-27_15h11.08.145,lexical_decision_task_MP_exp2,2020.2.5,MacIntel,60,z,1,1.1318,,,,,,,,1.1318,1,,,,,,422,NW,UN,33,streld,ALCOUD,z,,,,,,0.092114427,-0.10759307,0,0,0,,0,385,385,361,1,
,,,,,,,,,,,,,,,,,,571dd9b913b1b70009be2d86,2020-11-27_15h11.08.145,lexical_decision_task_MP_exp2,2020.2.5,MacIntel,60,z,0,0.880345,,,,,,,,0.880345,0,,,,,,106,WORD,"ID",33,ransom,RANSOM,m,,,,,,0.092114427,-0.10759307,0,0,0,,0,386,386,45,1,
,,,,,,,,,,,,,,,,,,571dd9b913b1b70009be2d86,2020-11-27_15h11.08.145,lexical_decision_task_MP_exp2,2020.2.5,MacIntel,60,m,1,0.65275,,,,,,,,0.65275,1,,,,,,215,WORD,UN,33,lumber,PHOBIA,m,,,,,,0.092114427,-0.10759307,0,0,0,,0,387,387,154,1,
,,,,,,,,,,,,,,,,,,571dd9b913b1b70009be2d86,2020-11-27_15h11.08.145,lexical_decision_task_MP_exp2,2020.2.5,MacIntel,60,z,1,0.785555,,,,,,,,0.785555,1,,,,,,435,NW,UN,33,frutan,IMPURB,z,,,,,,0.092114427,-0.10759307,0,0,0,,0,388,388,374,1,
,,,,,,,,,,,,,,,,,,571dd9b913b1b70009be2d86,2020-11-27_15h11.08.145,lexical_decision_task_MP_exp2,2020.2.5,MacIntel,60,m,1,0.64372,,,,,,,,0.64372,1,,,,,,18,WORD,UN,16,patron,HUMBLE,m,,,,,,0.092114427,-0.10759307,0,0,0,,0,389,389,197,1,
,,,,,,,,,,,,,,,,,,571dd9b913b1b70009be2d86,2020-11-27_15h11.08.145,lexical_decision_task_MP_exp2,2020.2.5,MacIntel,60,z,1,0.749875,,,,,,,,0.749875,1,,,,,,306,NW,"ID",33,sounge,SOUNGE,z,,,,,,0.092114427,-0.10759307,0,0,0,,0,390,390,245,1,
,,,,,,,,,,,,,,,,,,571dd9b913b1b70009be2d86,2020-11-27_15h11.08.145,lexical_decision_task_MP_exp2,2020.2.5,MacIntel,60,m,1,0.765395,,,,,,,,0.765395,1,,,,,,6,WORD,UN,16,anchor,BUNDLE,m,,,,,,0.092114427,-0.10759307,0,0,0,,0,391,391,185,1,
