counterbalancing_condition,instr_done_keyboard.keys,instr_done_keyboard.rt,instr_done_touch.x,instr_done_touch.y,instr_done_touch.leftButton,instr_done_touch.midButton,instr_done_touch.rightButton,instruction_pages.thisRepN,instruction_pages.thisTrialN,instruction_pages.thisN,instruction_pages.thisIndex,instruction_pages.ran,pageN,phase,instruct_text,has_image,instruct_image,participant,date,expName,psychopyVersion,OS,frameRate,response.keys,response.corr,response.rt,touch_resp.x,touch_resp.y,touch_resp.leftButton,touch_resp.midButton,touch_resp.rightButton,touch_resp.time,touch_resp.clicked_name,rt,corr,practice_trials.thisRepN,practice_trials.thisTrialN,practice_trials.thisN,practice_trials.thisIndex,practice_trials.ran,TrialID,StimulusType,Condition,PrimeDuration,Prime,Target,corrAns,end_of_practice_trials_pages.thisRepN,end_of_practice_trials_pages.thisTrialN,end_of_practice_trials_pages.thisN,end_of_practice_trials_pages.thisIndex,end_of_practice_trials_pages.ran,break_done_touch.x,break_done_touch.y,break_done_touch.leftButton,break_done_touch.midButton,break_done_touch.rightButton,break_done_keyboard.keys,experiment_trials.thisRepN,experiment_trials.thisTrialN,experiment_trials.thisN,experiment_trials.thisIndex,experiment_trials.ran,break_done_keyboard.rt
2,space,14.37076,0.474166667,-0.3675,0,0,0,0,0,0,0,1,1,instructions,"INSTRUCTIONS
At the start of each trial, look at the hash marks (######) in the center of the screen. After a moment, a string of letters will appear. Your task is to indicate if the letter string forms a word or not (i.e., if it is a nonword). For example, AUTHOR is a word while AUTHON is a nonword.

Press the space bar or touch the button below to continue.",0,,58cefdb030c4cf0001ceb3ac,2020-11-27_10h04.05.045,lexical_decision_task_MP_exp2,2020.2.5,Win32,60,,,,,,,,,,,,,,,,,,,,,,,,,,,,,,,,,,,,,,,,,
,space,12.606615,0.474166667,-0.3675,0,0,0,0,1,1,1,1,2,instructions,"If your device has a keyboard, press the 'Z' key for nonwords and the 'M' key for words.





Press the space bar or touch the button below to continue.",1,keyboard-example.gif,58cefdb030c4cf0001ceb3ac,2020-11-27_10h04.05.045,lexical_decision_task_MP_exp2,2020.2.5,Win32,60,,,,,,,,,,,,,,,,,,,,,,,,,,,,,,,,,,,,,,,,,
,space,7.56772,0.474166667,-0.3675,0,0,0,0,2,2,2,1,3,instructions,"If you are using a touchscreen only device, use the buttons on the screen. Do not use the mouse.





Press the space bar or touch the button below to continue.",1,touchscreen-example.gif,58cefdb030c4cf0001ceb3ac,2020-11-27_10h04.05.045,lexical_decision_task_MP_exp2,2020.2.5,Win32,60,,,,,,,,,,,,,,,,,,,,,,,,,,,,,,,,,,,,,,,,,
,space,14.37874,0.474166667,-0.3675,0,0,0,0,3,3,3,1,4,instructions,"It is very important that you respond as quickly and accurately as possible, as each letter string will only be on the screen for two seconds. If you do not respond within this time, the message 'Too slow!' will be displayed and the experiment will progress to the next letter string. The first 20 trials will be practice trials and you will receive feedback on your answers. 

Press the space bar or touch the button below to start the practice trials.",0,,58cefdb030c4cf0001ceb3ac,2020-11-27_10h04.05.045,lexical_decision_task_MP_exp2,2020.2.5,Win32,60,,,,,,,,,,,,,,,,,,,,,,,,,,,,,,,,,,,,,,,,,
,,,,,,,,,,,,,,,,,,58cefdb030c4cf0001ceb3ac,2020-11-27_10h04.05.045,lexical_decision_task_MP_exp2,2020.2.5,Win32,60,m,1,1.443165,,,,,,,,1.443165,1,0,0,0,1,1,1002,WORD,"ID",33,adjust,ADJUST,m,,,,,,,,,,,,,,,,,
,,,,,,,,,,,,,,,,,,58cefdb030c4cf0001ceb3ac,2020-11-27_10h04.05.045,lexical_decision_task_MP_exp2,2020.2.5,Win32,60,z,1,0.875845,,,,,,,,0.875845,1,0,1,1,12,1,1013,NW,UN,33,adveil,SPRINY,z,,,,,,,,,,,,,,,,,
,,,,,,,,,,,,,,,,,,58cefdb030c4cf0001ceb3ac,2020-11-27_10h04.05.045,lexical_decision_task_MP_exp2,2020.2.5,Win32,60,m,1,0.53229,,,,,,,,0.53229,1,0,2,2,4,1,1005,WORD,UN,33,abound,SQUEAK,m,,,,,,,,,,,,,,,,,
,,,,,,,,,,,,,,,,,,58cefdb030c4cf0001ceb3ac,2020-11-27_10h04.05.045,lexical_decision_task_MP_exp2,2020.2.5,Win32,60,m,1,0.611515,,,,,,,,0.611515,1,0,3,3,2,1,1003,WORD,"ID",16,almond,ALMOND,m,,,,,,,,,,,,,,,,,
,,,,,,,,,,,,,,,,,,58cefdb030c4cf0001ceb3ac,2020-11-27_10h04.05.045,lexical_decision_task_MP_exp2,2020.2.5,Win32,60,m,1,0.55123,,,,,,,,0.55123,1,0,4,4,7,1,1008,WORD,UN,16,hurdle,VOLUME,m,,,,,,,,,,,,,,,,,
,,,,,,,,,,,,,,,,,,58cefdb030c4cf0001ceb3ac,2020-11-27_10h04.05.045,lexical_decision_task_MP_exp2,2020.2.5,Win32,60,z,0,0.44355,,,,,,,,0.44355,0,0,5,5,5,1,1006,WORD,UN,33,frenzy,OBTAIN,m,,,,,,,,,,,,,,,,,
,,,,,,,,,,,,,,,,,,58cefdb030c4cf0001ceb3ac,2020-11-27_10h04.05.045,lexical_decision_task_MP_exp2,2020.2.5,Win32,60,z,1,0.860085,,,,,,,,0.860085,1,0,6,6,13,1,1014,NW,UN,33,winfer,ROUPET,z,,,,,,,,,,,,,,,,,
,,,,,,,,,,,,,,,,,,58cefdb030c4cf0001ceb3ac,2020-11-27_10h04.05.045,lexical_decision_task_MP_exp2,2020.2.5,Win32,60,z,1,0.81325,,,,,,,,0.81325,1,0,7,7,14,1,1015,NW,UN,16,miaber,THRALE,z,,,,,,,,,,,,,,,,,
,,,,,,,,,,,,,,,,,,58cefdb030c4cf0001ceb3ac,2020-11-27_10h04.05.045,lexical_decision_task_MP_exp2,2020.2.5,Win32,60,z,1,0.923245,,,,,,,,0.923245,1,0,8,8,10,1,1011,NW,"ID",16,inlade,INLADE,z,,,,,,,,,,,,,,,,,
,,,,,,,,,,,,,,,,,,58cefdb030c4cf0001ceb3ac,2020-11-27_10h04.05.045,lexical_decision_task_MP_exp2,2020.2.5,Win32,60,z,1,1.01928,,,,,,,,1.01928,1,0,9,9,8,1,1009,NW,"ID",33,aslert,ASLERT,z,,,,,,,,,,,,,,,,,
,,,,,,,,,,,,,,,,,,58cefdb030c4cf0001ceb3ac,2020-11-27_10h04.05.045,lexical_decision_task_MP_exp2,2020.2.5,Win32,60,z,1,0.664,,,,,,,,0.664,1,0,10,10,11,1,1012,NW,"ID",16,rashet,RASHET,z,,,,,,,,,,,,,,,,,
,,,,,,,,,,,,,,,,,,58cefdb030c4cf0001ceb3ac,2020-11-27_10h04.05.045,lexical_decision_task_MP_exp2,2020.2.5,Win32,60,m,1,0.69311,,,,,,,,0.69311,1,0,11,11,6,1,1007,WORD,UN,16,tropic,ZOMBIE,m,,,,,,,,,,,,,,,,,
,,,,,,,,,,,,,,,,,,58cefdb030c4cf0001ceb3ac,2020-11-27_10h04.05.045,lexical_decision_task_MP_exp2,2020.2.5,Win32,60,m,1,0.704085,,,,,,,,0.704085,1,0,12,12,3,1,1004,WORD,"ID",16,matrix,MATRIX,m,,,,,,,,,,,,,,,,,
,,,,,,,,,,,,,,,,,,58cefdb030c4cf0001ceb3ac,2020-11-27_10h04.05.045,lexical_decision_task_MP_exp2,2020.2.5,Win32,60,z,1,0.71466,,,,,,,,0.71466,1,0,13,13,9,1,1010,NW,"ID",33,fariny,FARINY,z,,,,,,,,,,,,,,,,,
,,,,,,,,,,,,,,,,,,58cefdb030c4cf0001ceb3ac,2020-11-27_10h04.05.045,lexical_decision_task_MP_exp2,2020.2.5,Win32,60,z,1,0.664725,,,,,,,,0.664725,1,0,14,14,15,1,1016,NW,UN,16,mushed,WHAISE,z,,,,,,,,,,,,,,,,,
,,,,,,,,,,,,,,,,,,58cefdb030c4cf0001ceb3ac,2020-11-27_10h04.05.045,lexical_decision_task_MP_exp2,2020.2.5,Win32,60,m,1,0.724545,,,,,,,,0.724545,1,0,15,15,0,1,1001,WORD,"ID",33,utopia,UTOPIA,m,,,,,,,,,,,,,,,,,
,space,11.554775,0.474166667,-0.3675,0,0,0,,,,,,1,end_of_practice,"You have completed the practice trials. During the experimental trials, you will not receive feedback, but it is very important that you respond as quickly and accurately as possible. 
Before you begin, please ensure that you are in a comfortable and quiet location and will not be disturbed for about 15 minutes, as we cannot use your data if you do not complete all the trials. 
There will be opportunities to take breaks at regular intervals during the experiment. When you are ready to start the experimental trials, please press space or touch the button below.",,,58cefdb030c4cf0001ceb3ac,2020-11-27_10h04.05.045,lexical_decision_task_MP_exp2,2020.2.5,Win32,60,,,,,,,,,,,,,,,,,,,,,,,,,0,0,0,0,1,,,,,,,,,,,,
,,,,,,,,,,,,,,,,,,58cefdb030c4cf0001ceb3ac,2020-11-27_10h04.05.045,lexical_decision_task_MP_exp2,2020.2.5,Win32,60,m,1,0.79025,,,,,,,,0.79025,1,,,,,,82,WORD,"ID",33,stigma,STIGMA,m,,,,,,0.474166667,-0.3675,0,0,0,,0,0,0,21,1,
,,,,,,,,,,,,,,,,,,58cefdb030c4cf0001ceb3ac,2020-11-27_10h04.05.045,lexical_decision_task_MP_exp2,2020.2.5,Win32,60,z,1,0.728495,,,,,,,,0.728495,1,,,,,,264,NW,UN,16,distar,VACKEL,z,,,,,,0.474166667,-0.3675,0,0,0,,0,1,1,443,1,
,,,,,,,,,,,,,,,,,,58cefdb030c4cf0001ceb3ac,2020-11-27_10h04.05.045,lexical_decision_task_MP_exp2,2020.2.5,Win32,60,m,1,0.604185,,,,,,,,0.604185,1,,,,,,116,WORD,"ID",33,tumble,TUMBLE,m,,,,,,0.474166667,-0.3675,0,0,0,,0,2,2,55,1,
,,,,,,,,,,,,,,,,,,58cefdb030c4cf0001ceb3ac,2020-11-27_10h04.05.045,lexical_decision_task_MP_exp2,2020.2.5,Win32,60,m,1,0.65256,,,,,,,,0.65256,1,,,,,,53,WORD,UN,16,ramble,POLICE,m,,,,,,0.474166667,-0.3675,0,0,0,,0,3,3,232,1,
,,,,,,,,,,,,,,,,,,58cefdb030c4cf0001ceb3ac,2020-11-27_10h04.05.045,lexical_decision_task_MP_exp2,2020.2.5,Win32,60,m,1,0.635065,,,,,,,,0.635065,1,,,,,,43,WORD,UN,16,foster,TONGUE,m,,,,,,0.474166667,-0.3675,0,0,0,,0,4,4,222,1,
,,,,,,,,,,,,,,,,,,58cefdb030c4cf0001ceb3ac,2020-11-27_10h04.05.045,lexical_decision_task_MP_exp2,2020.2.5,Win32,60,z,1,0.65783,,,,,,,,0.65783,1,,,,,,391,NW,"ID",16,theldy,THELDY,z,,,,,,0.474166667,-0.3675,0,0,0,,0,5,5,330,1,
,,,,,,,,,,,,,,,,,,58cefdb030c4cf0001ceb3ac,2020-11-27_10h04.05.045,lexical_decision_task_MP_exp2,2020.2.5,Win32,60,z,1,0.809215,,,,,,,,0.809215,1,,,,,,345,NW,"ID",33,absend,ABSEND,z,,,,,,0.474166667,-0.3675,0,0,0,,0,6,6,284,1,
,,,,,,,,,,,,,,,,,,58cefdb030c4cf0001ceb3ac,2020-11-27_10h04.05.045,lexical_decision_task_MP_exp2,2020.2.5,Win32,60,m,1,0.923675,,,,,,,,0.923675,1,,,,,,206,WORD,UN,33,wreath,TAILOR,m,,,,,,0.474166667,-0.3675,0,0,0,,0,7,7,145,1,
,,,,,,,,,,,,,,,,,,58cefdb030c4cf0001ceb3ac,2020-11-27_10h04.05.045,lexical_decision_task_MP_exp2,2020.2.5,Win32,60,z,1,0.934795,,,,,,,,0.934795,1,,,,,,342,NW,"ID",33,randow,RANDOW,z,,,,,,0.474166667,-0.3675,0,0,0,,0,8,8,281,1,
,,,,,,,,,,,,,,,,,,58cefdb030c4cf0001ceb3ac,2020-11-27_10h04.05.045,lexical_decision_task_MP_exp2,2020.2.5,Win32,60,m,1,0.83469,,,,,,,,0.83469,1,,,,,,124,WORD,"ID",16,blouse,BLOUSE,m,,,,,,0.474166667,-0.3675,0,0,0,,0,9,9,63,1,
,,,,,,,,,,,,,,,,,,58cefdb030c4cf0001ceb3ac,2020-11-27_10h04.05.045,lexical_decision_task_MP_exp2,2020.2.5,Win32,60,m,1,0.68554,,,,,,,,0.68554,1,,,,,,152,WORD,"ID",16,rocket,ROCKET,m,,,,,,0.474166667,-0.3675,0,0,0,,0,10,10,91,1,
,,,,,,,,,,,,,,,,,,58cefdb030c4cf0001ceb3ac,2020-11-27_10h04.05.045,lexical_decision_task_MP_exp2,2020.2.5,Win32,60,m,1,0.63492,,,,,,,,0.63492,1,,,,,,107,WORD,"ID",33,slogan,SLOGAN,m,,,,,,0.474166667,-0.3675,0,0,0,,0,11,11,46,1,
,,,,,,,,,,,,,,,,,,58cefdb030c4cf0001ceb3ac,2020-11-27_10h04.05.045,lexical_decision_task_MP_exp2,2020.2.5,Win32,60,m,1,0.78468,,,,,,,,0.78468,1,,,,,,83,WORD,"ID",33,result,RESULT,m,,,,,,0.474166667,-0.3675,0,0,0,,0,12,12,22,1,
,,,,,,,,,,,,,,,,,,58cefdb030c4cf0001ceb3ac,2020-11-27_10h04.05.045,lexical_decision_task_MP_exp2,2020.2.5,Win32,60,m,1,0.594285,,,,,,,,0.594285,1,,,,,,25,WORD,UN,16,sprint,DOMAIN,m,,,,,,0.474166667,-0.3675,0,0,0,,0,13,13,204,1,
,,,,,,,,,,,,,,,,,,58cefdb030c4cf0001ceb3ac,2020-11-27_10h04.05.045,lexical_decision_task_MP_exp2,2020.2.5,Win32,60,m,1,0.626665,,,,,,,,0.626665,1,,,,,,192,WORD,UN,33,object,PLAGUE,m,,,,,,0.474166667,-0.3675,0,0,0,,0,14,14,131,1,
,,,,,,,,,,,,,,,,,,58cefdb030c4cf0001ceb3ac,2020-11-27_10h04.05.045,lexical_decision_task_MP_exp2,2020.2.5,Win32,60,z,1,0.694125,,,,,,,,0.694125,1,,,,,,374,NW,"ID",16,sliant,SLIANT,z,,,,,,0.474166667,-0.3675,0,0,0,,0,15,15,313,1,
,,,,,,,,,,,,,,,,,,58cefdb030c4cf0001ceb3ac,2020-11-27_10h04.05.045,lexical_decision_task_MP_exp2,2020.2.5,Win32,60,z,1,0.90151,,,,,,,,0.90151,1,,,,,,480,NW,UN,33,knisma,ROBULY,z,,,,,,0.474166667,-0.3675,0,0,0,,0,16,16,419,1,
,,,,,,,,,,,,,,,,,,58cefdb030c4cf0001ceb3ac,2020-11-27_10h04.05.045,lexical_decision_task_MP_exp2,2020.2.5,Win32,60,z,1,1.21987,,,,,,,,1.21987,1,,,,,,354,NW,"ID",33,virlex,VIRLEX,z,,,,,,0.474166667,-0.3675,0,0,0,,0,17,17,293,1,
,,,,,,,,,,,,,,,,,,58cefdb030c4cf0001ceb3ac,2020-11-27_10h04.05.045,lexical_decision_task_MP_exp2,2020.2.5,Win32,60,m,1,0.68463,,,,,,,,0.68463,1,,,,,,55,WORD,UN,16,ambush,STROKE,m,,,,,,0.474166667,-0.3675,0,0,0,,0,18,18,234,1,
,,,,,,,,,,,,,,,,,,58cefdb030c4cf0001ceb3ac,2020-11-27_10h04.05.045,lexical_decision_task_MP_exp2,2020.2.5,Win32,60,m,1,0.704815,,,,,,,,0.704815,1,,,,,,34,WORD,UN,16,socket,JUNGLE,m,,,,,,0.474166667,-0.3675,0,0,0,,0,19,19,213,1,
,,,,,,,,,,,,,,,,,,58cefdb030c4cf0001ceb3ac,2020-11-27_10h04.05.045,lexical_decision_task_MP_exp2,2020.2.5,Win32,60,m,1,0.75129,,,,,,,,0.75129,1,,,,,,35,WORD,UN,16,vanish,SOCKET,m,,,,,,0.474166667,-0.3675,0,0,0,,0,20,20,214,1,
,,,,,,,,,,,,,,,,,,58cefdb030c4cf0001ceb3ac,2020-11-27_10h04.05.045,lexical_decision_task_MP_exp2,2020.2.5,Win32,60,m,1,0.6076,,,,,,,,0.6076,1,,,,,,237,WORD,UN,33,glance,POSTER,m,,,,,,0.474166667,-0.3675,0,0,0,,0,21,21,176,1,
,,,,,,,,,,,,,,,,,,58cefdb030c4cf0001ceb3ac,2020-11-27_10h04.05.045,lexical_decision_task_MP_exp2,2020.2.5,Win32,60,m,1,0.73585,,,,,,,,0.73585,1,,,,,,156,WORD,"ID",16,cradle,CRADLE,m,,,,,,0.474166667,-0.3675,0,0,0,,0,22,22,95,1,
,,,,,,,,,,,,,,,,,,58cefdb030c4cf0001ceb3ac,2020-11-27_10h04.05.045,lexical_decision_task_MP_exp2,2020.2.5,Win32,60,m,1,0.701475,,,,,,,,0.701475,1,,,,,,164,WORD,"ID",16,market,MARKET,m,,,,,,0.474166667,-0.3675,0,0,0,,0,23,23,103,1,
,,,,,,,,,,,,,,,,,,58cefdb030c4cf0001ceb3ac,2020-11-27_10h04.05.045,lexical_decision_task_MP_exp2,2020.2.5,Win32,60,z,1,0.69502,,,,,,,,0.69502,1,,,,,,385,NW,"ID",16,veigma,VEIGMA,z,,,,,,0.474166667,-0.3675,0,0,0,,0,24,24,324,1,
,,,,,,,,,,,,,,,,,,58cefdb030c4cf0001ceb3ac,2020-11-27_10h04.05.045,lexical_decision_task_MP_exp2,2020.2.5,Win32,60,z,1,0.701535,,,,,,,,0.701535,1,,,,,,437,NW,UN,33,baitch,SNAPEL,z,,,,,,0.474166667,-0.3675,0,0,0,,0,25,25,376,1,
,,,,,,,,,,,,,,,,,,58cefdb030c4cf0001ceb3ac,2020-11-27_10h04.05.045,lexical_decision_task_MP_exp2,2020.2.5,Win32,60,m,1,0.72064,,,,,,,,0.72064,1,,,,,,154,WORD,"ID",16,author,AUTHOR,m,,,,,,0.474166667,-0.3675,0,0,0,,0,26,26,93,1,
,,,,,,,,,,,,,,,,,,58cefdb030c4cf0001ceb3ac,2020-11-27_10h04.05.045,lexical_decision_task_MP_exp2,2020.2.5,Win32,60,m,1,0.812485,,,,,,,,0.812485,1,,,,,,30,WORD,UN,16,weapon,ORIENT,m,,,,,,0.474166667,-0.3675,0,0,0,,0,27,27,209,1,
,,,,,,,,,,,,,,,,,,58cefdb030c4cf0001ceb3ac,2020-11-27_10h04.05.045,lexical_decision_task_MP_exp2,2020.2.5,Win32,60,z,1,0.708645,,,,,,,,0.708645,1,,,,,,265,NW,UN,16,varmit,DISTAR,z,,,,,,0.474166667,-0.3675,0,0,0,,0,28,28,444,1,
,,,,,,,,,,,,,,,,,,58cefdb030c4cf0001ceb3ac,2020-11-27_10h04.05.045,lexical_decision_task_MP_exp2,2020.2.5,Win32,60,z,1,0.736545,,,,,,,,0.736545,1,,,,,,277,NW,UN,16,unighs,PETAIN,z,,,,,,0.474166667,-0.3675,0,0,0,,0,29,29,456,1,
,,,,,,,,,,,,,,,,,,58cefdb030c4cf0001ceb3ac,2020-11-27_10h04.05.045,lexical_decision_task_MP_exp2,2020.2.5,Win32,60,m,1,0.668075,,,,,,,,0.668075,1,,,,,,197,WORD,UN,33,wicked,STREAM,m,,,,,,0.474166667,-0.3675,0,0,0,,0,30,30,136,1,
,,,,,,,,,,,,,,,,,,58cefdb030c4cf0001ceb3ac,2020-11-27_10h04.05.045,lexical_decision_task_MP_exp2,2020.2.5,Win32,60,z,1,0.891795,,,,,,,,0.891795,1,,,,,,380,NW,"ID",16,cavory,CAVORY,z,,,,,,0.474166667,-0.3675,0,0,0,,0,31,31,319,1,
,,,,,,,,,,,,,,,,,,58cefdb030c4cf0001ceb3ac,2020-11-27_10h04.05.045,lexical_decision_task_MP_exp2,2020.2.5,Win32,60,m,1,0.821415,,,,,,,,0.821415,1,,,,,,212,WORD,UN,33,squeal,VERIFY,m,,,,,,0.474166667,-0.3675,0,0,0,,0,32,32,151,1,
,,,,,,,,,,,,,,,,,,58cefdb030c4cf0001ceb3ac,2020-11-27_10h04.05.045,lexical_decision_task_MP_exp2,2020.2.5,Win32,60,z,1,0.76819,,,,,,,,0.76819,1,,,,,,357,NW,"ID",33,derain,DERAIN,z,,,,,,0.474166667,-0.3675,0,0,0,,0,33,33,296,1,
,,,,,,,,,,,,,,,,,,58cefdb030c4cf0001ceb3ac,2020-11-27_10h04.05.045,lexical_decision_task_MP_exp2,2020.2.5,Win32,60,z,1,0.85513,,,,,,,,0.85513,1,,,,,,301,NW,"ID",33,fainch,FAINCH,z,,,,,,0.474166667,-0.3675,0,0,0,,0,34,34,240,1,
,,,,,,,,,,,,,,,,,,58cefdb030c4cf0001ceb3ac,2020-11-27_10h04.05.045,lexical_decision_task_MP_exp2,2020.2.5,Win32,60,m,1,0.661285,,,,,,,,0.661285,1,,,,,,51,WORD,UN,16,impose,HUNGRY,m,,,,,,0.474166667,-0.3675,0,0,0,,0,35,35,230,1,
,,,,,,,,,,,,,,,,,,58cefdb030c4cf0001ceb3ac,2020-11-27_10h04.05.045,lexical_decision_task_MP_exp2,2020.2.5,Win32,60,m,1,0.779575,,,,,,,,0.779575,1,,,,,,58,WORD,UN,16,splint,FOSTER,m,,,,,,0.474166667,-0.3675,0,0,0,,0,36,36,237,1,
,,,,,,,,,,,,,,,,,,58cefdb030c4cf0001ceb3ac,2020-11-27_10h04.05.045,lexical_decision_task_MP_exp2,2020.2.5,Win32,60,z,1,0.68532,,,,,,,,0.68532,1,,,,,,360,NW,"ID",33,desory,DESORY,z,,,,,,0.474166667,-0.3675,0,0,0,,0,37,37,299,1,
,,,,,,,,,,,,,,,,,,58cefdb030c4cf0001ceb3ac,2020-11-27_10h04.05.045,lexical_decision_task_MP_exp2,2020.2.5,Win32,60,m,1,0.674275,,,,,,,,0.674275,1,,,,,,18,WORD,UN,16,patron,HUMBLE,m,,,,,,0.474166667,-0.3675,0,0,0,,0,38,38,197,1,
,,,,,,,,,,,,,,,,,,58cefdb030c4cf0001ceb3ac,2020-11-27_10h04.05.045,lexical_decision_task_MP_exp2,2020.2.5,Win32,60,m,1,1.2107,,,,,,,,1.2107,1,,,,,,210,WORD,UN,33,infect,MONKEY,m,,,,,,0.474166667,-0.3675,0,0,0,,0,39,39,149,1,
,,,,,,,,,,,,,,,,,,58cefdb030c4cf0001ceb3ac,2020-11-27_10h04.05.045,lexical_decision_task_MP_exp2,2020.2.5,Win32,60,z,1,0.719865,,,,,,,,0.719865,1,,,,,,259,NW,UN,16,unject,SOUDAL,z,,,,,,0.474166667,-0.3675,0,0,0,,0,40,40,438,1,
,,,,,,,,,,,,,,,,,,58cefdb030c4cf0001ceb3ac,2020-11-27_10h04.05.045,lexical_decision_task_MP_exp2,2020.2.5,Win32,60,z,1,0.626715,,,,,,,,0.626715,1,,,,,,353,NW,"ID",33,clurey,CLUREY,z,,,,,,0.474166667,-0.3675,0,0,0,,0,41,41,292,1,
,,,,,,,,,,,,,,,,,,58cefdb030c4cf0001ceb3ac,2020-11-27_10h04.05.045,lexical_decision_task_MP_exp2,2020.2.5,Win32,60,m,1,0.90719,,,,,,,,0.90719,1,,,,,,115,WORD,"ID",33,guitar,GUITAR,m,,,,,,0.474166667,-0.3675,0,0,0,,0,42,42,54,1,
,,,,,,,,,,,,,,,,,,58cefdb030c4cf0001ceb3ac,2020-11-27_10h04.05.045,lexical_decision_task_MP_exp2,2020.2.5,Win32,60,z,1,0.751395,,,,,,,,0.751395,1,,,,,,241,NW,UN,16,unwert,SMENCO,z,,,,,,0.474166667,-0.3675,0,0,0,,0,43,43,420,1,
,,,,,,,,,,,,,,,,,,58cefdb030c4cf0001ceb3ac,2020-11-27_10h04.05.045,lexical_decision_task_MP_exp2,2020.2.5,Win32,60,m,1,0.745365,,,,,,,,0.745365,1,,,,,,66,WORD,"ID",33,gospel,GOSPEL,m,,,,,,0.474166667,-0.3675,0,0,0,,0,44,44,5,1,
,,,,,,,,,,,,,,,,,,58cefdb030c4cf0001ceb3ac,2020-11-27_10h04.05.045,lexical_decision_task_MP_exp2,2020.2.5,Win32,60,z,1,0.692635,,,,,,,,0.692635,1,,,,,,280,NW,UN,16,melaty,CURBOL,z,,,,,,0.474166667,-0.3675,0,0,0,,0,45,45,459,1,
,,,,,,,,,,,,,,,,,,58cefdb030c4cf0001ceb3ac,2020-11-27_10h04.05.045,lexical_decision_task_MP_exp2,2020.2.5,Win32,60,z,1,0.67222,,,,,,,,0.67222,1,,,,,,467,NW,UN,33,wictor,GORBIE,z,,,,,,0.474166667,-0.3675,0,0,0,,0,46,46,406,1,
,,,,,,,,,,,,,,,,,,58cefdb030c4cf0001ceb3ac,2020-11-27_10h04.05.045,lexical_decision_task_MP_exp2,2020.2.5,Win32,60,m,1,0.656495,,,,,,,,0.656495,1,,,,,,179,WORD,"ID",16,basket,BASKET,m,,,,,,0.474166667,-0.3675,0,0,0,,0,47,47,118,1,
,,,,,,,,,,,,,,,,,,58cefdb030c4cf0001ceb3ac,2020-11-27_10h04.05.045,lexical_decision_task_MP_exp2,2020.2.5,Win32,60,z,1,1.1089,,,,,,,,1.1089,1,,,,,,318,NW,"ID",33,reagly,REAGLY,z,,,,,,0.474166667,-0.3675,0,0,0,,0,48,48,257,1,
,,,,,,,,,,,,,,,,,,58cefdb030c4cf0001ceb3ac,2020-11-27_10h04.05.045,lexical_decision_task_MP_exp2,2020.2.5,Win32,60,m,1,0.712855,,,,,,,,0.712855,1,,,,,,140,WORD,"ID",16,prince,PRINCE,m,,,,,,0.474166667,-0.3675,0,0,0,,0,49,49,79,1,
,,,,,,,,,,,,,,,,,,58cefdb030c4cf0001ceb3ac,2020-11-27_10h04.05.045,lexical_decision_task_MP_exp2,2020.2.5,Win32,60,m,1,0.75604,,,,,,,,0.75604,1,,,,,,74,WORD,"ID",33,plaque,PLAQUE,m,,,,,,0.474166667,-0.3675,0,0,0,,0,50,50,13,1,
,,,,,,,,,,,,,,,,,,58cefdb030c4cf0001ceb3ac,2020-11-27_10h04.05.045,lexical_decision_task_MP_exp2,2020.2.5,Win32,60,m,1,0.65128,,,,,,,,0.65128,1,,,,,,119,WORD,"ID",33,spider,SPIDER,m,,,,,,0.474166667,-0.3675,0,0,0,,0,51,51,58,1,
,,,,,,,,,,,,,,,,,,58cefdb030c4cf0001ceb3ac,2020-11-27_10h04.05.045,lexical_decision_task_MP_exp2,2020.2.5,Win32,60,z,1,0.7015,,,,,,,,0.7015,1,,,,,,366,NW,"ID",16,toshel,TOSHEL,z,,,,,,0.474166667,-0.3675,0,0,0,,0,52,52,305,1,
,,,,,,,,,,,,,,,,,,58cefdb030c4cf0001ceb3ac,2020-11-27_10h04.05.045,lexical_decision_task_MP_exp2,2020.2.5,Win32,60,z,0,0.76074,,,,,,,,0.76074,0,,,,,,104,WORD,"ID",33,studio,STUDIO,m,,,,,,0.474166667,-0.3675,0,0,0,,0,53,53,43,1,
,,,,,,,,,,,,,,,,,,58cefdb030c4cf0001ceb3ac,2020-11-27_10h04.05.045,lexical_decision_task_MP_exp2,2020.2.5,Win32,60,m,1,0.676395,,,,,,,,0.676395,1,,,,,,162,WORD,"ID",16,candle,CANDLE,m,,,,,,0.474166667,-0.3675,0,0,0,,0,54,54,101,1,
,,,,,,,,,,,,,,,,,,58cefdb030c4cf0001ceb3ac,2020-11-27_10h04.05.045,lexical_decision_task_MP_exp2,2020.2.5,Win32,60,z,1,0.701355,,,,,,,,0.701355,1,,,,,,350,NW,"ID",33,nagurs,NAGURS,z,,,,,,0.474166667,-0.3675,0,0,0,,0,55,55,289,1,
,,,,,,,,,,,,,,,,,,58cefdb030c4cf0001ceb3ac,2020-11-27_10h04.05.045,lexical_decision_task_MP_exp2,2020.2.5,Win32,60,m,1,0.71902,,,,,,,,0.71902,1,,,,,,198,WORD,UN,33,invoke,WICKED,m,,,,,,0.474166667,-0.3675,0,0,0,,0,56,56,137,1,
,,,,,,,,,,,,,,,,,,58cefdb030c4cf0001ceb3ac,2020-11-27_10h04.05.045,lexical_decision_task_MP_exp2,2020.2.5,Win32,60,z,1,0.72226,,,,,,,,0.72226,1,,,,,,283,NW,UN,16,shaple,VERALF,z,,,,,,0.474166667,-0.3675,0,0,0,,0,57,57,462,1,
,,,,,,,,,,,,,,,,,,58cefdb030c4cf0001ceb3ac,2020-11-27_10h04.05.045,lexical_decision_task_MP_exp2,2020.2.5,Win32,60,z,1,1.094025,,,,,,,,1.094025,1,,,,,,322,NW,"ID",33,slanch,SLANCH,z,,,,,,0.474166667,-0.3675,0,0,0,,0,58,58,261,1,
,,,,,,,,,,,,,,,,,,58cefdb030c4cf0001ceb3ac,2020-11-27_10h04.05.045,lexical_decision_task_MP_exp2,2020.2.5,Win32,60,m,1,0.834625,,,,,,,,0.834625,1,,,,,,184,WORD,UN,33,bother,SLEAZY,m,,,,,,0.474166667,-0.3675,0,0,0,,0,59,59,123,1,
,,,,,,,,,,,,,,,,,,58cefdb030c4cf0001ceb3ac,2020-11-27_10h04.05.045,lexical_decision_task_MP_exp2,2020.2.5,Win32,60,m,1,0.818315,,,,,,,,0.818315,1,,,,,,33,WORD,UN,16,jungle,BUTLER,m,,,,,,0.474166667,-0.3675,0,0,0,,0,60,60,212,1,
,,,,,,,,,,,,,,,,,,58cefdb030c4cf0001ceb3ac,2020-11-27_10h04.05.045,lexical_decision_task_MP_exp2,2020.2.5,Win32,60,z,1,0.84123,,,,,,,,0.84123,1,,,,,,461,NW,UN,33,absult,JUSTRE,z,,,,,,0.474166667,-0.3675,0,0,0,,0,61,61,400,1,
,,,,,,,,,,,,,,,,,,58cefdb030c4cf0001ceb3ac,2020-11-27_10h04.05.045,lexical_decision_task_MP_exp2,2020.2.5,Win32,60,z,1,1.04238,,,,,,,,1.04238,1,,,,,,425,NW,UN,33,urivel,FRUDGE,z,,,,,,0.474166667,-0.3675,0,0,0,,0,62,62,364,1,
,,,,,,,,,,,,,,,,,,58cefdb030c4cf0001ceb3ac,2020-11-27_10h04.05.045,lexical_decision_task_MP_exp2,2020.2.5,Win32,60,z,1,0.784815,,,,,,,,0.784815,1,,,,,,258,NW,UN,16,soudal,POLUTH,z,,,,,,0.474166667,-0.3675,0,0,0,,0,63,63,437,1,
,,,,,,,,,,,,,,,,,,58cefdb030c4cf0001ceb3ac,2020-11-27_10h04.05.045,lexical_decision_task_MP_exp2,2020.2.5,Win32,60,z,1,0.984815,,,,,,,,0.984815,1,,,,,,361,NW,"ID",16,pauche,PAUCHE,z,,,,,,0.474166667,-0.3675,0,0,0,,0,64,64,300,1,
,,,,,,,,,,,,,,,,,,58cefdb030c4cf0001ceb3ac,2020-11-27_10h04.05.045,lexical_decision_task_MP_exp2,2020.2.5,Win32,60,z,1,0.87257,,,,,,,,0.87257,1,,,,,,298,NW,UN,16,sturch,PIERGY,z,,,,,,0.474166667,-0.3675,0,0,0,,0,65,65,477,1,
,,,,,,,,,,,,,,,,,,58cefdb030c4cf0001ceb3ac,2020-11-27_10h04.05.045,lexical_decision_task_MP_exp2,2020.2.5,Win32,60,z,1,0.8382,,,,,,,,0.8382,1,,,,,,256,NW,UN,16,veniod,INLORS,z,,,,,,0.474166667,-0.3675,0,0,0,,0,66,66,435,1,
,,,,,,,,,,,,,,,,,,58cefdb030c4cf0001ceb3ac,2020-11-27_10h04.05.045,lexical_decision_task_MP_exp2,2020.2.5,Win32,60,m,1,0.645055,,,,,,,,0.645055,1,,,,,,3,WORD,UN,16,trench,KNIGHT,m,,,,,,0.474166667,-0.3675,0,0,0,,0,67,67,182,1,
,,,,,,,,,,,,,,,,,,58cefdb030c4cf0001ceb3ac,2020-11-27_10h04.05.045,lexical_decision_task_MP_exp2,2020.2.5,Win32,60,m,1,0.684705,,,,,,,,0.684705,1,,,,,,20,WORD,UN,16,simple,BREAST,m,,,,,,0.474166667,-0.3675,0,0,0,,0,68,68,199,1,
,,,,,,,,,,,,,,,,,,58cefdb030c4cf0001ceb3ac,2020-11-27_10h04.05.045,lexical_decision_task_MP_exp2,2020.2.5,Win32,60,m,1,0.78518,,,,,,,,0.78518,1,,,,,,77,WORD,"ID",33,racket,RACKET,m,,,,,,0.474166667,-0.3675,0,0,0,,0,69,69,16,1,
,,,,,,,,,,,,,,,,,,58cefdb030c4cf0001ceb3ac,2020-11-27_10h04.05.045,lexical_decision_task_MP_exp2,2020.2.5,Win32,60,z,1,0.78473,,,,,,,,0.78473,1,,,,,,456,NW,UN,33,wanigh,BROGET,z,,,,,,0.474166667,-0.3675,0,0,0,,0,70,70,395,1,
,,,,,,,,,,,,,,,,,,58cefdb030c4cf0001ceb3ac,2020-11-27_10h04.05.045,lexical_decision_task_MP_exp2,2020.2.5,Win32,60,z,1,0.907025,,,,,,,,0.907025,1,,,,,,319,NW,"ID",33,zomber,ZOMBER,z,,,,,,0.474166667,-0.3675,0,0,0,,0,71,71,258,1,
,,,,,,,,,,,,,,,,,,58cefdb030c4cf0001ceb3ac,2020-11-27_10h04.05.045,lexical_decision_task_MP_exp2,2020.2.5,Win32,60,z,1,0.818125,,,,,,,,0.818125,1,,,,,,273,NW,UN,16,fumblo,SORTEL,z,,,,,,0.474166667,-0.3675,0,0,0,,0,72,72,452,1,
,,,,,,,,,,,,,,,,,,58cefdb030c4cf0001ceb3ac,2020-11-27_10h04.05.045,lexical_decision_task_MP_exp2,2020.2.5,Win32,60,m,1,0.751655,,,,,,,,0.751655,1,,,,,,172,WORD,"ID",16,patrol,PATROL,m,,,,,,0.474166667,-0.3675,0,0,0,,0,73,73,111,1,
,,,,,,,,,,,,,,,,,,58cefdb030c4cf0001ceb3ac,2020-11-27_10h04.05.045,lexical_decision_task_MP_exp2,2020.2.5,Win32,60,z,1,0.78513,,,,,,,,0.78513,1,,,,,,320,NW,"ID",33,jockal,JOCKAL,z,,,,,,0.474166667,-0.3675,0,0,0,,0,74,74,259,1,
,,,,,,,,,,,,,,,,,,58cefdb030c4cf0001ceb3ac,2020-11-27_10h04.05.045,lexical_decision_task_MP_exp2,2020.2.5,Win32,60,z,1,0.934695,,,,,,,,0.934695,1,,,,,,365,NW,"ID",16,guairt,GUAIRT,z,,,,,,0.474166667,-0.3675,0,0,0,,0,75,75,304,1,
,,,,,,,,,,,,,,,,,,58cefdb030c4cf0001ceb3ac,2020-11-27_10h04.05.045,lexical_decision_task_MP_exp2,2020.2.5,Win32,60,z,1,0.851715,,,,,,,,0.851715,1,,,,,,326,NW,"ID",33,iguade,IGUADE,z,,,,,,0.474166667,-0.3675,0,0,0,,0,76,76,265,1,
,,,,,,,,,,,,,,,,,,58cefdb030c4cf0001ceb3ac,2020-11-27_10h04.05.045,lexical_decision_task_MP_exp2,2020.2.5,Win32,60,m,1,0.652815,,,,,,,,0.652815,1,,,,,,233,WORD,UN,33,clumsy,NATURE,m,,,,,,0.474166667,-0.3675,0,0,0,,0,77,77,172,1,
,,,,,,,,,,,,,,,,,,58cefdb030c4cf0001ceb3ac,2020-11-27_10h04.05.045,lexical_decision_task_MP_exp2,2020.2.5,Win32,60,m,1,0.63505,,,,,,,,0.63505,1,,,,,,101,WORD,"ID",33,wrench,WRENCH,m,,,,,,0.474166667,-0.3675,0,0,0,,0,78,78,40,1,
,,,,,,,,,,,,,,,,,,58cefdb030c4cf0001ceb3ac,2020-11-27_10h04.05.045,lexical_decision_task_MP_exp2,2020.2.5,Win32,60,m,1,0.751365,,,,,,,,0.751365,1,,,,,,228,WORD,UN,33,kidney,MASTER,m,,,,,,0.474166667,-0.3675,0,0,0,,0,79,79,167,1,
,,,,,,,,,,,,,,,,,,58cefdb030c4cf0001ceb3ac,2020-11-27_10h04.05.045,lexical_decision_task_MP_exp2,2020.2.5,Win32,60,z,1,0.81876,,,,,,,,0.81876,1,,,,,,411,NW,"ID",16,orchin,ORCHIN,z,,,,,,0.474166667,-0.3675,0,0,0,,0,80,80,350,1,
,,,,,,,,,,,,,,,,,,58cefdb030c4cf0001ceb3ac,2020-11-27_10h04.05.045,lexical_decision_task_MP_exp2,2020.2.5,Win32,60,m,1,0.738015,,,,,,,,0.738015,1,,,,,,146,WORD,"ID",16,couple,COUPLE,m,,,,,,0.474166667,-0.3675,0,0,0,,0,81,81,85,1,
,,,,,,,,,,,,,,,,,,58cefdb030c4cf0001ceb3ac,2020-11-27_10h04.05.045,lexical_decision_task_MP_exp2,2020.2.5,Win32,60,z,1,0.768305,,,,,,,,0.768305,1,,,,,,444,NW,UN,33,minkel,JAUNCE,z,,,,,,0.474166667,-0.3675,0,0,0,,0,82,82,383,1,
,,,,,,,,,,,,,,,,,,58cefdb030c4cf0001ceb3ac,2020-11-27_10h04.05.045,lexical_decision_task_MP_exp2,2020.2.5,Win32,60,z,1,0.80664,,,,,,,,0.80664,1,,,,,,378,NW,"ID",16,shrile,SHRILE,z,,,,,,0.474166667,-0.3675,0,0,0,,0,83,83,317,1,
,,,,,,,,,,,,,,,,,,58cefdb030c4cf0001ceb3ac,2020-11-27_10h04.05.045,lexical_decision_task_MP_exp2,2020.2.5,Win32,60,z,1,1.67068,,,,,,,,1.67068,1,,,,,,364,NW,"ID",16,impote,IMPOTE,z,,,,,,0.474166667,-0.3675,0,0,0,,0,84,84,303,1,
,,,,,,,,,,,,,,,,,,58cefdb030c4cf0001ceb3ac,2020-11-27_10h04.05.045,lexical_decision_task_MP_exp2,2020.2.5,Win32,60,m,1,0.758075,,,,,,,,0.758075,1,,,,,,15,WORD,UN,16,faucet,AMOUNT,m,,,,,,0.474166667,-0.3675,0,0,0,,0,85,85,194,1,
,,,,,,,,,,,,,,,,,,58cefdb030c4cf0001ceb3ac,2020-11-27_10h04.05.045,lexical_decision_task_MP_exp2,2020.2.5,Win32,60,m,1,0.785045,,,,,,,,0.785045,1,,,,,,2,WORD,UN,16,knight,BRIDGE,m,,,,,,0.474166667,-0.3675,0,0,0,,0,86,86,181,1,
,,,,,,,,,,,,,,,,,,58cefdb030c4cf0001ceb3ac,2020-11-27_10h04.05.045,lexical_decision_task_MP_exp2,2020.2.5,Win32,60,z,1,0.71906,,,,,,,,0.71906,1,,,,,,412,NW,"ID",16,jiluer,JILUER,z,,,,,,0.474166667,-0.3675,0,0,0,,0,87,87,351,1,
,,,,,,,,,,,,,,,,,,58cefdb030c4cf0001ceb3ac,2020-11-27_10h04.05.045,lexical_decision_task_MP_exp2,2020.2.5,Win32,60,z,1,0.986535,,,,,,,,0.986535,1,,,,,,284,NW,UN,16,prudge,SHAPLE,z,,,,,,0.474166667,-0.3675,0,0,0,,0,88,88,463,1,
,,,,,,,,,,,,,,,,,,58cefdb030c4cf0001ceb3ac,2020-11-27_10h04.05.045,lexical_decision_task_MP_exp2,2020.2.5,Win32,60,z,1,0.739495,,,,,,,,0.739495,1,,,,,,406,NW,"ID",16,nouply,NOUPLY,z,,,,,,0.474166667,-0.3675,0,0,0,,0,89,89,345,1,
,,,,,,,,,,,,,,,,,,58cefdb030c4cf0001ceb3ac,2020-11-27_10h04.05.045,lexical_decision_task_MP_exp2,2020.2.5,Win32,60,z,1,0.68641,,,,,,,,0.68641,1,,,,,,339,NW,"ID",33,fachow,FACHOW,z,,,,,,0.474166667,-0.3675,0,0,0,,0,90,90,278,1,
,,,,,,,,,,,,,,,,,,58cefdb030c4cf0001ceb3ac,2020-11-27_10h04.05.045,lexical_decision_task_MP_exp2,2020.2.5,Win32,60,z,1,0.751305,,,,,,,,0.751305,1,,,,,,291,NW,UN,16,ablint,PRETCH,z,,,,,,0.474166667,-0.3675,0,0,0,,0,91,91,470,1,
,,,,,,,,,,,,,,,,,,58cefdb030c4cf0001ceb3ac,2020-11-27_10h04.05.045,lexical_decision_task_MP_exp2,2020.2.5,Win32,60,m,1,0.726025,,,,,,,,0.726025,1,,,,,,117,WORD,"ID",33,branch,BRANCH,m,,,,,,0.474166667,-0.3675,0,0,0,,0,92,92,56,1,
,,,,,,,,,,,,,,,,,,58cefdb030c4cf0001ceb3ac,2020-11-27_10h04.05.045,lexical_decision_task_MP_exp2,2020.2.5,Win32,60,m,1,0.723805,,,,,,,,0.723805,1,,,,,,181,WORD,UN,33,winter,GLANCE,m,,,,,,0.474166667,-0.3675,0,0,0,,0,93,93,120,1,
,,,,,,,,,,,,,,,,,,58cefdb030c4cf0001ceb3ac,2020-11-27_10h04.05.045,lexical_decision_task_MP_exp2,2020.2.5,Win32,60,z,0,0.644335,,,,,,,,0.644335,0,,,,,,230,WORD,UN,33,mother,FRINGE,m,,,,,,0.474166667,-0.3675,0,0,0,,0,94,94,169,1,
,,,,,,,,,,,,,,,,,,58cefdb030c4cf0001ceb3ac,2020-11-27_10h04.05.045,lexical_decision_task_MP_exp2,2020.2.5,Win32,60,m,1,0.88484,,,,,,,,0.88484,1,,,,,,234,WORD,UN,33,poster,CLUMSY,m,,,,,,0.474166667,-0.3675,0,0,0,,0,95,95,173,1,
,,,,,,,,,,,,,,,,,,58cefdb030c4cf0001ceb3ac,2020-11-27_10h04.05.045,lexical_decision_task_MP_exp2,2020.2.5,Win32,60,m,1,0.65663,,,,,,,,0.65663,1,,,,,,88,WORD,"ID",33,hunger,HUNGER,m,,,,,,0.474166667,-0.3675,0,0,0,,0,96,96,27,1,
,,,,,,,,,,,,,,,,,,58cefdb030c4cf0001ceb3ac,2020-11-27_10h04.05.045,lexical_decision_task_MP_exp2,2020.2.5,Win32,60,z,1,0.870975,,,,,,,,0.870975,1,,,,,,382,NW,"ID",16,sarley,SARLEY,z,,,,,,0.474166667,-0.3675,0,0,0,,0,97,97,321,1,
,,,,,,,,,,,,,,,,,,58cefdb030c4cf0001ceb3ac,2020-11-27_10h04.05.045,lexical_decision_task_MP_exp2,2020.2.5,Win32,60,z,1,1.118475,,,,,,,,1.118475,1,,,,,,457,NW,UN,33,barcet,WANIGH,z,,,,,,0.474166667,-0.3675,0,0,0,,0,98,98,396,1,
,,,,,,,,,,,,,,,,,,58cefdb030c4cf0001ceb3ac,2020-11-27_10h04.05.045,lexical_decision_task_MP_exp2,2020.2.5,Win32,60,z,1,1.218,,,,,,,,1.218,1,,,,,,343,NW,"ID",33,aimosy,AIMOSY,z,,,,,,0.474166667,-0.3675,0,0,0,,0,99,99,282,1,
,,,,,,,,,,,,,,,,,,58cefdb030c4cf0001ceb3ac,2020-11-27_10h04.05.045,lexical_decision_task_MP_exp2,2020.2.5,Win32,60,z,1,0.73663,,,,,,,,0.73663,1,,,,,,415,NW,"ID",16,higsta,HIGSTA,z,,,,,,0.474166667,-0.3675,0,0,0,,0,100,100,354,1,
,,,,,,,,,,,,,,,,,,58cefdb030c4cf0001ceb3ac,2020-11-27_10h04.05.045,lexical_decision_task_MP_exp2,2020.2.5,Win32,60,z,1,0.889675,,,,,,,,0.889675,1,,,,,,469,NW,UN,33,crudio,PADIFS,z,,,,,,0.474166667,-0.3675,0,0,0,,0,101,101,408,1,
,,,,,,,,,,,,,,,,,,58cefdb030c4cf0001ceb3ac,2020-11-27_10h04.05.045,lexical_decision_task_MP_exp2,2020.2.5,Win32,60,m,1,0.93492,,,,,,,,0.93492,1,,,,,,114,WORD,"ID",33,placid,PLACID,m,,,,,,0.474166667,-0.3675,0,0,0,,0,102,102,53,1,
,,,,,,,,,,,,,,,,,,58cefdb030c4cf0001ceb3ac,2020-11-27_10h04.05.045,lexical_decision_task_MP_exp2,2020.2.5,Win32,60,m,1,0.673285,,,,,,,,0.673285,1,,,,,,86,WORD,"ID",33,rodent,RODENT,m,,,,,,0.474166667,-0.3675,0,0,0,,0,103,103,25,1,
,,,,,,,,,,,,,,,,,,58cefdb030c4cf0001ceb3ac,2020-11-27_10h04.05.045,lexical_decision_task_MP_exp2,2020.2.5,Win32,60,m,1,0.567825,,,,,,,,0.567825,1,,,,,,130,WORD,"ID",16,stupid,STUPID,m,,,,,,0.474166667,-0.3675,0,0,0,,0,104,104,69,1,
,,,,,,,,,,,,,,,,,,58cefdb030c4cf0001ceb3ac,2020-11-27_10h04.05.045,lexical_decision_task_MP_exp2,2020.2.5,Win32,60,z,1,0.93649,,,,,,,,0.93649,1,,,,,,396,NW,"ID",16,flengy,FLENGY,z,,,,,,0.474166667,-0.3675,0,0,0,,0,105,105,335,1,
,,,,,,,,,,,,,,,,,,58cefdb030c4cf0001ceb3ac,2020-11-27_10h04.05.045,lexical_decision_task_MP_exp2,2020.2.5,Win32,60,z,1,0.73899,,,,,,,,0.73899,1,,,,,,454,NW,UN,33,tondle,SCOUGE,z,,,,,,0.474166667,-0.3675,0,0,0,,0,106,106,393,1,
,,,,,,,,,,,,,,,,,,58cefdb030c4cf0001ceb3ac,2020-11-27_10h04.05.045,lexical_decision_task_MP_exp2,2020.2.5,Win32,60,m,1,0.853695,,,,,,,,0.853695,1,,,,,,211,WORD,UN,33,verify,INFECT,m,,,,,,0.474166667,-0.3675,0,0,0,,0,107,107,150,1,
,,,,,,,,,,,,,,,,,,58cefdb030c4cf0001ceb3ac,2020-11-27_10h04.05.045,lexical_decision_task_MP_exp2,2020.2.5,Win32,60,z,1,0.74242,,,,,,,,0.74242,1,,,,,,423,NW,UN,33,praile,STRELD,z,,,,,,0.474166667,-0.3675,0,0,0,,0,108,108,362,1,
,,,,,,,,,,,,,,,,,,58cefdb030c4cf0001ceb3ac,2020-11-27_10h04.05.045,lexical_decision_task_MP_exp2,2020.2.5,Win32,60,m,1,0.79096,,,,,,,,0.79096,1,,,,,,141,WORD,"ID",16,orphan,ORPHAN,m,,,,,,0.474166667,-0.3675,0,0,0,,0,109,109,80,1,
,,,,,,,,,,,,,,,,,,58cefdb030c4cf0001ceb3ac,2020-11-27_10h04.05.045,lexical_decision_task_MP_exp2,2020.2.5,Win32,60,m,1,1.09647,,,,,,,,1.09647,1,,,,,,1,WORD,UN,16,ethnic,FRIGHT,m,,,,,,0.474166667,-0.3675,0,0,0,,0,110,110,180,1,
,,,,,,,,,,,,,,,,,,58cefdb030c4cf0001ceb3ac,2020-11-27_10h04.05.045,lexical_decision_task_MP_exp2,2020.2.5,Win32,60,m,1,0.601225,,,,,,,,0.601225,1,,,,,,135,WORD,"ID",16,import,IMPORT,m,,,,,,0.474166667,-0.3675,0,0,0,,0,111,111,74,1,
,,,,,,,,,,,,,,,,,,58cefdb030c4cf0001ceb3ac,2020-11-27_10h04.05.045,lexical_decision_task_MP_exp2,2020.2.5,Win32,60,m,1,0.685545,,,,,,,,0.685545,1,,,,,,37,WORD,UN,16,powder,INSULT,m,,,,,,0.474166667,-0.3675,0,0,0,,0,112,112,216,1,
,,,,,,,,,,,,,,,,,,58cefdb030c4cf0001ceb3ac,2020-11-27_10h04.05.045,lexical_decision_task_MP_exp2,2020.2.5,Win32,60,z,1,0.722275,,,,,,,,0.722275,1,,,,,,455,NW,UN,33,broget,TONDLE,z,,,,,,0.474166667,-0.3675,0,0,0,,0,113,113,394,1,
,,,,,,,,,,,,,,,,,,58cefdb030c4cf0001ceb3ac,2020-11-27_10h04.05.045,lexical_decision_task_MP_exp2,2020.2.5,Win32,60,m,1,0.70999,,,,,,,,0.70999,1,,,,,,59,WORD,UN,16,pencil,SPLINT,m,,,,,,0.474166667,-0.3675,0,0,0,,0,114,114,238,1,
,,,,,,,,,,,,,,,,,,58cefdb030c4cf0001ceb3ac,2020-11-27_10h04.05.045,lexical_decision_task_MP_exp2,2020.2.5,Win32,60,m,1,0.634725,,,,,,,,0.634725,1,,,,,,174,WORD,"ID",16,turkey,TURKEY,m,,,,,,0.474166667,-0.3675,0,0,0,,0,115,115,113,1,
,,,,,,,,,,,,,,,,,,58cefdb030c4cf0001ceb3ac,2020-11-27_10h04.05.045,lexical_decision_task_MP_exp2,2020.2.5,Win32,60,m,1,1.03589,,,,,,,,1.03589,1,,,,,,236,WORD,UN,33,grumpy,PIRATE,m,,,,,,0.474166667,-0.3675,0,0,0,,0,116,116,175,1,
,,,,,,,,,,,,,,,,,,58cefdb030c4cf0001ceb3ac,2020-11-27_10h04.05.045,lexical_decision_task_MP_exp2,2020.2.5,Win32,60,m,1,0.75297,,,,,,,,0.75297,1,,,,,,169,WORD,"ID",16,genius,GENIUS,m,,,,,,0.474166667,-0.3675,0,0,0,,0,117,117,108,1,
,,,,,,,,,,,,,,,,,,58cefdb030c4cf0001ceb3ac,2020-11-27_10h04.05.045,lexical_decision_task_MP_exp2,2020.2.5,Win32,60,z,1,0.84238,,,,,,,,0.84238,1,,,,,,460,NW,UN,33,justre,MINGAR,z,,,,,,0.474166667,-0.3675,0,0,0,,0,118,118,399,1,
,,,,,,,,,,,,,,,,,,58cefdb030c4cf0001ceb3ac,2020-11-27_10h04.05.045,lexical_decision_task_MP_exp2,2020.2.5,Win32,60,m,1,0.761745,,,,,,,,0.761745,1,,,,,,97,WORD,"ID",33,client,CLIENT,m,,,,,,0.474166667,-0.3675,0,0,0,,0,119,119,36,1,
,,,,,,,,,,,,,,,,,,58cefdb030c4cf0001ceb3ac,2020-11-27_10h04.05.045,lexical_decision_task_MP_exp2,2020.2.5,Win32,60,m,1,0.851745,,,,,,,,0.851745,1,,,,,,80,WORD,"ID",33,family,FAMILY,m,,,,,,0.474166667,-0.3675,0,0,0,space,0,120,120,19,1,18.98114
,,,,,,,,,,,,,,,,,,58cefdb030c4cf0001ceb3ac,2020-11-27_10h04.05.045,lexical_decision_task_MP_exp2,2020.2.5,Win32,60,z,1,0.77114,,,,,,,,0.77114,1,,,,,,346,NW,"ID",33,saudic,SAUDIC,z,,,,,,0.474166667,-0.3675,0,0,0,,0,121,121,285,1,
,,,,,,,,,,,,,,,,,,58cefdb030c4cf0001ceb3ac,2020-11-27_10h04.05.045,lexical_decision_task_MP_exp2,2020.2.5,Win32,60,z,1,0.82078,,,,,,,,0.82078,1,,,,,,314,NW,"ID",33,sprine,SPRINE,z,,,,,,0.474166667,-0.3675,0,0,0,,0,122,122,253,1,
,,,,,,,,,,,,,,,,,,58cefdb030c4cf0001ceb3ac,2020-11-27_10h04.05.045,lexical_decision_task_MP_exp2,2020.2.5,Win32,60,z,1,0.75121,,,,,,,,0.75121,1,,,,,,475,NW,UN,33,josted,PEBRIC,z,,,,,,0.474166667,-0.3675,0,0,0,,0,123,123,414,1,
,,,,,,,,,,,,,,,,,,58cefdb030c4cf0001ceb3ac,2020-11-27_10h04.05.045,lexical_decision_task_MP_exp2,2020.2.5,Win32,60,z,1,0.9908,,,,,,,,0.9908,1,,,,,,458,NW,UN,33,hocite,BARCET,z,,,,,,0.474166667,-0.3675,0,0,0,,0,124,124,397,1,
,,,,,,,,,,,,,,,,,,58cefdb030c4cf0001ceb3ac,2020-11-27_10h04.05.045,lexical_decision_task_MP_exp2,2020.2.5,Win32,60,z,1,0.83956,,,,,,,,0.83956,1,,,,,,316,NW,"ID",33,scregm,SCREGM,z,,,,,,0.474166667,-0.3675,0,0,0,,0,125,125,255,1,
,,,,,,,,,,,,,,,,,,58cefdb030c4cf0001ceb3ac,2020-11-27_10h04.05.045,lexical_decision_task_MP_exp2,2020.2.5,Win32,60,m,1,0.710465,,,,,,,,0.710465,1,,,,,,67,WORD,"ID",33,policy,POLICY,m,,,,,,0.474166667,-0.3675,0,0,0,,0,126,126,6,1,
,,,,,,,,,,,,,,,,,,58cefdb030c4cf0001ceb3ac,2020-11-27_10h04.05.045,lexical_decision_task_MP_exp2,2020.2.5,Win32,60,m,1,0.68457,,,,,,,,0.68457,1,,,,,,209,WORD,UN,33,monkey,SEARCH,m,,,,,,0.474166667,-0.3675,0,0,0,,0,127,127,148,1,
,,,,,,,,,,,,,,,,,,58cefdb030c4cf0001ceb3ac,2020-11-27_10h04.05.045,lexical_decision_task_MP_exp2,2020.2.5,Win32,60,z,1,0.754115,,,,,,,,0.754115,1,,,,,,281,NW,UN,16,porlex,MELATY,z,,,,,,0.474166667,-0.3675,0,0,0,,0,128,128,460,1,
,,,,,,,,,,,,,,,,,,58cefdb030c4cf0001ceb3ac,2020-11-27_10h04.05.045,lexical_decision_task_MP_exp2,2020.2.5,Win32,60,z,1,0.73371,,,,,,,,0.73371,1,,,,,,305,NW,"ID",33,forgle,FORGLE,z,,,,,,0.474166667,-0.3675,0,0,0,,0,129,129,244,1,
,,,,,,,,,,,,,,,,,,58cefdb030c4cf0001ceb3ac,2020-11-27_10h04.05.045,lexical_decision_task_MP_exp2,2020.2.5,Win32,60,m,1,0.701555,,,,,,,,0.701555,1,,,,,,239,WORD,UN,33,forest,LUMBER,m,,,,,,0.474166667,-0.3675,0,0,0,,0,130,130,178,1,
,,,,,,,,,,,,,,,,,,58cefdb030c4cf0001ceb3ac,2020-11-27_10h04.05.045,lexical_decision_task_MP_exp2,2020.2.5,Win32,60,z,1,0.625895,,,,,,,,0.625895,1,,,,,,393,NW,"ID",16,ganous,GANOUS,z,,,,,,0.474166667,-0.3675,0,0,0,,0,131,131,332,1,
,,,,,,,,,,,,,,,,,,58cefdb030c4cf0001ceb3ac,2020-11-27_10h04.05.045,lexical_decision_task_MP_exp2,2020.2.5,Win32,60,m,1,0.65124,,,,,,,,0.65124,1,,,,,,158,WORD,"ID",16,island,ISLAND,m,,,,,,0.474166667,-0.3675,0,0,0,,0,132,132,97,1,
,,,,,,,,,,,,,,,,,,58cefdb030c4cf0001ceb3ac,2020-11-27_10h04.05.045,lexical_decision_task_MP_exp2,2020.2.5,Win32,60,m,1,0.679575,,,,,,,,0.679575,1,,,,,,98,WORD,"ID",33,belong,BELONG,m,,,,,,0.474166667,-0.3675,0,0,0,,0,133,133,37,1,
,,,,,,,,,,,,,,,,,,58cefdb030c4cf0001ceb3ac,2020-11-27_10h04.05.045,lexical_decision_task_MP_exp2,2020.2.5,Win32,60,m,1,0.677335,,,,,,,,0.677335,1,,,,,,46,WORD,UN,16,income,SINGLE,m,,,,,,0.474166667,-0.3675,0,0,0,,0,134,134,225,1,
,,,,,,,,,,,,,,,,,,58cefdb030c4cf0001ceb3ac,2020-11-27_10h04.05.045,lexical_decision_task_MP_exp2,2020.2.5,Win32,60,z,1,0.659175,,,,,,,,0.659175,1,,,,,,330,NW,"ID",33,kensom,KENSOM,z,,,,,,0.474166667,-0.3675,0,0,0,,0,135,135,269,1,
,,,,,,,,,,,,,,,,,,58cefdb030c4cf0001ceb3ac,2020-11-27_10h04.05.045,lexical_decision_task_MP_exp2,2020.2.5,Win32,60,m,1,0.689505,,,,,,,,0.689505,1,,,,,,182,WORD,UN,33,absent,WINTER,m,,,,,,0.474166667,-0.3675,0,0,0,,0,136,136,121,1,
,,,,,,,,,,,,,,,,,,58cefdb030c4cf0001ceb3ac,2020-11-27_10h04.05.045,lexical_decision_task_MP_exp2,2020.2.5,Win32,60,m,1,0.720695,,,,,,,,0.720695,1,,,,,,123,WORD,"ID",16,strike,STRIKE,m,,,,,,0.474166667,-0.3675,0,0,0,,0,137,137,62,1,
,,,,,,,,,,,,,,,,,,58cefdb030c4cf0001ceb3ac,2020-11-27_10h04.05.045,lexical_decision_task_MP_exp2,2020.2.5,Win32,60,m,1,0.690075,,,,,,,,0.690075,1,,,,,,157,WORD,"ID",16,dragon,DRAGON,m,,,,,,0.474166667,-0.3675,0,0,0,,0,138,138,96,1,
,,,,,,,,,,,,,,,,,,58cefdb030c4cf0001ceb3ac,2020-11-27_10h04.05.045,lexical_decision_task_MP_exp2,2020.2.5,Win32,60,z,1,0.65116,,,,,,,,0.65116,1,,,,,,403,NW,"ID",16,bruats,BRUATS,z,,,,,,0.474166667,-0.3675,0,0,0,,0,139,139,342,1,
,,,,,,,,,,,,,,,,,,58cefdb030c4cf0001ceb3ac,2020-11-27_10h04.05.045,lexical_decision_task_MP_exp2,2020.2.5,Win32,60,m,1,0.662055,,,,,,,,0.662055,1,,,,,,113,WORD,"ID",33,chorus,CHORUS,m,,,,,,0.474166667,-0.3675,0,0,0,,0,140,140,52,1,
,,,,,,,,,,,,,,,,,,58cefdb030c4cf0001ceb3ac,2020-11-27_10h04.05.045,lexical_decision_task_MP_exp2,2020.2.5,Win32,60,m,1,0.58796,,,,,,,,0.58796,1,,,,,,147,WORD,"ID",16,garlic,GARLIC,m,,,,,,0.474166667,-0.3675,0,0,0,,0,141,141,86,1,
,,,,,,,,,,,,,,,,,,58cefdb030c4cf0001ceb3ac,2020-11-27_10h04.05.045,lexical_decision_task_MP_exp2,2020.2.5,Win32,60,m,1,0.71789,,,,,,,,0.71789,1,,,,,,142,WORD,"ID",16,spruce,SPRUCE,m,,,,,,0.474166667,-0.3675,0,0,0,,0,142,142,81,1,
,,,,,,,,,,,,,,,,,,58cefdb030c4cf0001ceb3ac,2020-11-27_10h04.05.045,lexical_decision_task_MP_exp2,2020.2.5,Win32,60,z,1,0.80866,,,,,,,,0.80866,1,,,,,,260,NW,UN,16,stunch,UNJECT,z,,,,,,0.474166667,-0.3675,0,0,0,,0,143,143,439,1,
,,,,,,,,,,,,,,,,,,58cefdb030c4cf0001ceb3ac,2020-11-27_10h04.05.045,lexical_decision_task_MP_exp2,2020.2.5,Win32,60,m,1,0.87296,,,,,,,,0.87296,1,,,,,,8,WORD,UN,16,hustle,ABRUPT,m,,,,,,0.474166667,-0.3675,0,0,0,,0,144,144,187,1,
,,,,,,,,,,,,,,,,,,58cefdb030c4cf0001ceb3ac,2020-11-27_10h04.05.045,lexical_decision_task_MP_exp2,2020.2.5,Win32,60,z,1,0.81788,,,,,,,,0.81788,1,,,,,,253,NW,UN,16,varosh,RESAIT,z,,,,,,0.474166667,-0.3675,0,0,0,,0,145,145,432,1,
,,,,,,,,,,,,,,,,,,58cefdb030c4cf0001ceb3ac,2020-11-27_10h04.05.045,lexical_decision_task_MP_exp2,2020.2.5,Win32,60,z,1,0.774295,,,,,,,,0.774295,1,,,,,,370,NW,"ID",16,sleact,SLEACT,z,,,,,,0.474166667,-0.3675,0,0,0,,0,146,146,309,1,
,,,,,,,,,,,,,,,,,,58cefdb030c4cf0001ceb3ac,2020-11-27_10h04.05.045,lexical_decision_task_MP_exp2,2020.2.5,Win32,60,m,1,0.694645,,,,,,,,0.694645,1,,,,,,183,WORD,UN,33,sleazy,MILDEW,m,,,,,,0.474166667,-0.3675,0,0,0,,0,147,147,122,1,
,,,,,,,,,,,,,,,,,,58cefdb030c4cf0001ceb3ac,2020-11-27_10h04.05.045,lexical_decision_task_MP_exp2,2020.2.5,Win32,60,z,1,0.76817,,,,,,,,0.76817,1,,,,,,311,NW,"ID",33,sproly,SPROLY,z,,,,,,0.474166667,-0.3675,0,0,0,,0,148,148,250,1,
,,,,,,,,,,,,,,,,,,58cefdb030c4cf0001ceb3ac,2020-11-27_10h04.05.045,lexical_decision_task_MP_exp2,2020.2.5,Win32,60,m,1,0.638295,,,,,,,,0.638295,1,,,,,,71,WORD,"ID",33,garden,GARDEN,m,,,,,,0.474166667,-0.3675,0,0,0,,0,149,149,10,1,
,,,,,,,,,,,,,,,,,,58cefdb030c4cf0001ceb3ac,2020-11-27_10h04.05.045,lexical_decision_task_MP_exp2,2020.2.5,Win32,60,m,1,0.636755,,,,,,,,0.636755,1,,,,,,96,WORD,"ID",33,ignore,IGNORE,m,,,,,,0.474166667,-0.3675,0,0,0,,0,150,150,35,1,
,,,,,,,,,,,,,,,,,,58cefdb030c4cf0001ceb3ac,2020-11-27_10h04.05.045,lexical_decision_task_MP_exp2,2020.2.5,Win32,60,m,1,0.734995,,,,,,,,0.734995,1,,,,,,180,WORD,"ID",16,silent,SILENT,m,,,,,,0.474166667,-0.3675,0,0,0,,0,151,151,119,1,
,,,,,,,,,,,,,,,,,,58cefdb030c4cf0001ceb3ac,2020-11-27_10h04.05.045,lexical_decision_task_MP_exp2,2020.2.5,Win32,60,m,1,0.77513,,,,,,,,0.77513,1,,,,,,10,WORD,UN,16,cruise,ETHNIC,m,,,,,,0.474166667,-0.3675,0,0,0,,0,152,152,189,1,
,,,,,,,,,,,,,,,,,,58cefdb030c4cf0001ceb3ac,2020-11-27_10h04.05.045,lexical_decision_task_MP_exp2,2020.2.5,Win32,60,m,1,0.684525,,,,,,,,0.684525,1,,,,,,13,WORD,UN,16,almost,STRIVE,m,,,,,,0.474166667,-0.3675,0,0,0,,0,153,153,192,1,
,,,,,,,,,,,,,,,,,,58cefdb030c4cf0001ceb3ac,2020-11-27_10h04.05.045,lexical_decision_task_MP_exp2,2020.2.5,Win32,60,m,1,0.70962,,,,,,,,0.70962,1,,,,,,120,WORD,"ID",33,strain,STRAIN,m,,,,,,0.474166667,-0.3675,0,0,0,,0,154,154,59,1,
,,,,,,,,,,,,,,,,,,58cefdb030c4cf0001ceb3ac,2020-11-27_10h04.05.045,lexical_decision_task_MP_exp2,2020.2.5,Win32,60,m,1,0.602135,,,,,,,,0.602135,1,,,,,,32,WORD,UN,16,scream,BUCKLE,m,,,,,,0.474166667,-0.3675,0,0,0,,0,155,155,211,1,
,,,,,,,,,,,,,,,,,,58cefdb030c4cf0001ceb3ac,2020-11-27_10h04.05.045,lexical_decision_task_MP_exp2,2020.2.5,Win32,60,m,1,0.75438,,,,,,,,0.75438,1,,,,,,11,WORD,UN,16,amount,CRUISE,m,,,,,,0.474166667,-0.3675,0,0,0,,0,156,156,190,1,
,,,,,,,,,,,,,,,,,,58cefdb030c4cf0001ceb3ac,2020-11-27_10h04.05.045,lexical_decision_task_MP_exp2,2020.2.5,Win32,60,m,1,0.67674,,,,,,,,0.67674,1,,,,,,219,WORD,UN,33,voyage,BUCKET,m,,,,,,0.474166667,-0.3675,0,0,0,,0,157,157,158,1,
,,,,,,,,,,,,,,,,,,58cefdb030c4cf0001ceb3ac,2020-11-27_10h04.05.045,lexical_decision_task_MP_exp2,2020.2.5,Win32,60,m,1,0.770495,,,,,,,,0.770495,1,,,,,,208,WORD,UN,33,search,HOCKEY,m,,,,,,0.474166667,-0.3675,0,0,0,,0,158,158,147,1,
,,,,,,,,,,,,,,,,,,58cefdb030c4cf0001ceb3ac,2020-11-27_10h04.05.045,lexical_decision_task_MP_exp2,2020.2.5,Win32,60,m,1,0.724115,,,,,,,,0.724115,1,,,,,,214,WORD,UN,33,phobia,INTAKE,m,,,,,,0.474166667,-0.3675,0,0,0,,0,159,159,153,1,
,,,,,,,,,,,,,,,,,,58cefdb030c4cf0001ceb3ac,2020-11-27_10h04.05.045,lexical_decision_task_MP_exp2,2020.2.5,Win32,60,m,1,0.74383,,,,,,,,0.74383,1,,,,,,238,WORD,UN,33,behalf,FLOWER,m,,,,,,0.474166667,-0.3675,0,0,0,,0,160,160,177,1,
,,,,,,,,,,,,,,,,,,58cefdb030c4cf0001ceb3ac,2020-11-27_10h04.05.045,lexical_decision_task_MP_exp2,2020.2.5,Win32,60,z,1,0.62096,,,,,,,,0.62096,1,,,,,,288,NW,UN,16,starby,YACEUP,z,,,,,,0.474166667,-0.3675,0,0,0,,0,161,161,467,1,
,,,,,,,,,,,,,,,,,,58cefdb030c4cf0001ceb3ac,2020-11-27_10h04.05.045,lexical_decision_task_MP_exp2,2020.2.5,Win32,60,z,1,0.82646,,,,,,,,0.82646,1,,,,,,245,NW,UN,16,piaton,ANOUGS,z,,,,,,0.474166667,-0.3675,0,0,0,,0,162,162,424,1,
,,,,,,,,,,,,,,,,,,58cefdb030c4cf0001ceb3ac,2020-11-27_10h04.05.045,lexical_decision_task_MP_exp2,2020.2.5,Win32,60,z,1,0.668105,,,,,,,,0.668105,1,,,,,,375,NW,"ID",16,yorque,YORQUE,z,,,,,,0.474166667,-0.3675,0,0,0,,0,163,163,314,1,
,,,,,,,,,,,,,,,,,,58cefdb030c4cf0001ceb3ac,2020-11-27_10h04.05.045,lexical_decision_task_MP_exp2,2020.2.5,Win32,60,z,1,0.83467,,,,,,,,0.83467,1,,,,,,287,NW,UN,16,yaceup,NYMBEL,z,,,,,,0.474166667,-0.3675,0,0,0,,0,164,164,466,1,
,,,,,,,,,,,,,,,,,,58cefdb030c4cf0001ceb3ac,2020-11-27_10h04.05.045,lexical_decision_task_MP_exp2,2020.2.5,Win32,60,z,1,0.83485,,,,,,,,0.83485,1,,,,,,349,NW,"ID",33,asylen,ASYLEN,z,,,,,,0.474166667,-0.3675,0,0,0,,0,165,165,288,1,
,,,,,,,,,,,,,,,,,,58cefdb030c4cf0001ceb3ac,2020-11-27_10h04.05.045,lexical_decision_task_MP_exp2,2020.2.5,Win32,60,m,1,0.829875,,,,,,,,0.829875,1,,,,,,222,WORD,UN,33,export,HINDER,m,,,,,,0.474166667,-0.3675,0,0,0,,0,166,166,161,1,
,,,,,,,,,,,,,,,,,,58cefdb030c4cf0001ceb3ac,2020-11-27_10h04.05.045,lexical_decision_task_MP_exp2,2020.2.5,Win32,60,m,1,0.68515,,,,,,,,0.68515,1,,,,,,227,WORD,UN,33,master,SELDOM,m,,,,,,0.474166667,-0.3675,0,0,0,,0,167,167,166,1,
,,,,,,,,,,,,,,,,,,58cefdb030c4cf0001ceb3ac,2020-11-27_10h04.05.045,lexical_decision_task_MP_exp2,2020.2.5,Win32,60,z,1,0.7062,,,,,,,,0.7062,1,,,,,,399,NW,"ID",16,fouret,FOURET,z,,,,,,0.474166667,-0.3675,0,0,0,,0,168,168,338,1,
,,,,,,,,,,,,,,,,,,58cefdb030c4cf0001ceb3ac,2020-11-27_10h04.05.045,lexical_decision_task_MP_exp2,2020.2.5,Win32,60,z,1,1.05158,,,,,,,,1.05158,1,,,,,,389,NW,"ID",16,witmer,WITMER,z,,,,,,0.474166667,-0.3675,0,0,0,,0,169,169,328,1,
,,,,,,,,,,,,,,,,,,58cefdb030c4cf0001ceb3ac,2020-11-27_10h04.05.045,lexical_decision_task_MP_exp2,2020.2.5,Win32,60,z,1,0.908685,,,,,,,,0.908685,1,,,,,,335,NW,"ID",33,desion,DESION,z,,,,,,0.474166667,-0.3675,0,0,0,,0,170,170,274,1,
,,,,,,,,,,,,,,,,,,58cefdb030c4cf0001ceb3ac,2020-11-27_10h04.05.045,lexical_decision_task_MP_exp2,2020.2.5,Win32,60,m,1,0.64088,,,,,,,,0.64088,1,,,,,,89,WORD,"ID",33,permit,PERMIT,m,,,,,,0.474166667,-0.3675,0,0,0,,0,171,171,28,1,
,,,,,,,,,,,,,,,,,,58cefdb030c4cf0001ceb3ac,2020-11-27_10h04.05.045,lexical_decision_task_MP_exp2,2020.2.5,Win32,60,z,1,0.71213,,,,,,,,0.71213,1,,,,,,323,NW,"ID",33,rosail,ROSAIL,z,,,,,,0.474166667,-0.3675,0,0,0,,0,172,172,262,1,
,,,,,,,,,,,,,,,,,,58cefdb030c4cf0001ceb3ac,2020-11-27_10h04.05.045,lexical_decision_task_MP_exp2,2020.2.5,Win32,60,m,1,0.68489,,,,,,,,0.68489,1,,,,,,84,WORD,"ID",33,mortal,MORTAL,m,,,,,,0.474166667,-0.3675,0,0,0,,0,173,173,23,1,
,,,,,,,,,,,,,,,,,,58cefdb030c4cf0001ceb3ac,2020-11-27_10h04.05.045,lexical_decision_task_MP_exp2,2020.2.5,Win32,60,m,1,0.70544,,,,,,,,0.70544,1,,,,,,38,WORD,UN,16,insect,POWDER,m,,,,,,0.474166667,-0.3675,0,0,0,,0,174,174,217,1,
,,,,,,,,,,,,,,,,,,58cefdb030c4cf0001ceb3ac,2020-11-27_10h04.05.045,lexical_decision_task_MP_exp2,2020.2.5,Win32,60,z,1,0.80579,,,,,,,,0.80579,1,,,,,,310,NW,"ID",33,daniet,DANIET,z,,,,,,0.474166667,-0.3675,0,0,0,,0,175,175,249,1,
,,,,,,,,,,,,,,,,,,58cefdb030c4cf0001ceb3ac,2020-11-27_10h04.05.045,lexical_decision_task_MP_exp2,2020.2.5,Win32,60,m,1,0.934595,,,,,,,,0.934595,1,,,,,,22,WORD,UN,16,wealth,JOCKEY,m,,,,,,0.474166667,-0.3675,0,0,0,,0,176,176,201,1,
,,,,,,,,,,,,,,,,,,58cefdb030c4cf0001ceb3ac,2020-11-27_10h04.05.045,lexical_decision_task_MP_exp2,2020.2.5,Win32,60,z,1,0.701635,,,,,,,,0.701635,1,,,,,,401,NW,"ID",16,mustil,MUSTIL,z,,,,,,0.474166667,-0.3675,0,0,0,,0,177,177,340,1,
,,,,,,,,,,,,,,,,,,58cefdb030c4cf0001ceb3ac,2020-11-27_10h04.05.045,lexical_decision_task_MP_exp2,2020.2.5,Win32,60,z,1,0.973195,,,,,,,,0.973195,1,,,,,,303,NW,"ID",33,fiream,FIREAM,z,,,,,,0.474166667,-0.3675,0,0,0,,0,178,178,242,1,
,,,,,,,,,,,,,,,,,,58cefdb030c4cf0001ceb3ac,2020-11-27_10h04.05.045,lexical_decision_task_MP_exp2,2020.2.5,Win32,60,z,1,0.76846,,,,,,,,0.76846,1,,,,,,331,NW,"ID",33,gilfew,GILFEW,z,,,,,,0.474166667,-0.3675,0,0,0,,0,179,179,270,1,
,,,,,,,,,,,,,,,,,,58cefdb030c4cf0001ceb3ac,2020-11-27_10h04.05.045,lexical_decision_task_MP_exp2,2020.2.5,Win32,60,z,1,1.31183,,,,,,,,1.31183,1,,,,,,426,NW,UN,33,schind,URIVEL,z,,,,,,0.474166667,-0.3675,0,0,0,,0,180,180,365,1,
,,,,,,,,,,,,,,,,,,58cefdb030c4cf0001ceb3ac,2020-11-27_10h04.05.045,lexical_decision_task_MP_exp2,2020.2.5,Win32,60,z,1,1.028375,,,,,,,,1.028375,1,,,,,,255,NW,UN,16,inlors,APIGHT,z,,,,,,0.474166667,-0.3675,0,0,0,,0,181,181,434,1,
,,,,,,,,,,,,,,,,,,58cefdb030c4cf0001ceb3ac,2020-11-27_10h04.05.045,lexical_decision_task_MP_exp2,2020.2.5,Win32,60,z,1,0.73941,,,,,,,,0.73941,1,,,,,,414,NW,"ID",16,serbol,SERBOL,z,,,,,,0.474166667,-0.3675,0,0,0,,0,182,182,353,1,
,,,,,,,,,,,,,,,,,,58cefdb030c4cf0001ceb3ac,2020-11-27_10h04.05.045,lexical_decision_task_MP_exp2,2020.2.5,Win32,60,z,1,0.784785,,,,,,,,0.784785,1,,,,,,296,NW,UN,16,fertic,BEINCH,z,,,,,,0.474166667,-0.3675,0,0,0,,0,183,183,475,1,
,,,,,,,,,,,,,,,,,,58cefdb030c4cf0001ceb3ac,2020-11-27_10h04.05.045,lexical_decision_task_MP_exp2,2020.2.5,Win32,60,z,1,1.145855,,,,,,,,1.145855,1,,,,,,402,NW,"ID",16,syntic,SYNTIC,z,,,,,,0.474166667,-0.3675,0,0,0,,0,184,184,341,1,
,,,,,,,,,,,,,,,,,,58cefdb030c4cf0001ceb3ac,2020-11-27_10h04.05.045,lexical_decision_task_MP_exp2,2020.2.5,Win32,60,m,1,0.618345,,,,,,,,0.618345,1,,,,,,28,WORD,UN,16,sketch,COMEDY,m,,,,,,0.474166667,-0.3675,0,0,0,,0,185,185,207,1,
,,,,,,,,,,,,,,,,,,58cefdb030c4cf0001ceb3ac,2020-11-27_10h04.05.045,lexical_decision_task_MP_exp2,2020.2.5,Win32,60,m,0,0.90579,,,,,,,,0.90579,0,,,,,,432,NW,UN,33,drance,LUNKER,z,,,,,,0.474166667,-0.3675,0,0,0,,0,186,186,371,1,
,,,,,,,,,,,,,,,,,,58cefdb030c4cf0001ceb3ac,2020-11-27_10h04.05.045,lexical_decision_task_MP_exp2,2020.2.5,Win32,60,m,1,0.670065,,,,,,,,0.670065,1,,,,,,188,WORD,UN,33,censor,SOCIAL,m,,,,,,0.474166667,-0.3675,0,0,0,,0,187,187,127,1,
,,,,,,,,,,,,,,,,,,58cefdb030c4cf0001ceb3ac,2020-11-27_10h04.05.045,lexical_decision_task_MP_exp2,2020.2.5,Win32,60,z,1,0.784785,,,,,,,,0.784785,1,,,,,,459,NW,UN,33,mingar,BAFENT,z,,,,,,0.474166667,-0.3675,0,0,0,,0,188,188,398,1,
,,,,,,,,,,,,,,,,,,58cefdb030c4cf0001ceb3ac,2020-11-27_10h04.05.045,lexical_decision_task_MP_exp2,2020.2.5,Win32,60,m,1,0.717985,,,,,,,,0.717985,1,,,,,,131,WORD,"ID",16,quench,QUENCH,m,,,,,,0.474166667,-0.3675,0,0,0,,0,189,189,70,1,
,,,,,,,,,,,,,,,,,,58cefdb030c4cf0001ceb3ac,2020-11-27_10h04.05.045,lexical_decision_task_MP_exp2,2020.2.5,Win32,60,m,1,0.735795,,,,,,,,0.735795,1,,,,,,153,WORD,"ID",16,behold,BEHOLD,m,,,,,,0.474166667,-0.3675,0,0,0,,0,190,190,92,1,
,,,,,,,,,,,,,,,,,,58cefdb030c4cf0001ceb3ac,2020-11-27_10h04.05.045,lexical_decision_task_MP_exp2,2020.2.5,Win32,60,m,1,0.717755,,,,,,,,0.717755,1,,,,,,5,WORD,UN,16,bundle,PLUNGE,m,,,,,,0.474166667,-0.3675,0,0,0,,0,191,191,184,1,
,,,,,,,,,,,,,,,,,,58cefdb030c4cf0001ceb3ac,2020-11-27_10h04.05.045,lexical_decision_task_MP_exp2,2020.2.5,Win32,60,z,1,0.96196,,,,,,,,0.96196,1,,,,,,304,NW,"ID",33,cludie,CLUDIE,z,,,,,,0.474166667,-0.3675,0,0,0,,0,192,192,243,1,
,,,,,,,,,,,,,,,,,,58cefdb030c4cf0001ceb3ac,2020-11-27_10h04.05.045,lexical_decision_task_MP_exp2,2020.2.5,Win32,60,z,1,0.7861,,,,,,,,0.7861,1,,,,,,344,NW,"ID",33,scrily,SCRILY,z,,,,,,0.474166667,-0.3675,0,0,0,,0,193,193,283,1,
,,,,,,,,,,,,,,,,,,58cefdb030c4cf0001ceb3ac,2020-11-27_10h04.05.045,lexical_decision_task_MP_exp2,2020.2.5,Win32,60,z,1,0.93494,,,,,,,,0.93494,1,,,,,,338,NW,"ID",33,wreash,WREASH,z,,,,,,0.474166667,-0.3675,0,0,0,,0,194,194,277,1,
,,,,,,,,,,,,,,,,,,58cefdb030c4cf0001ceb3ac,2020-11-27_10h04.05.045,lexical_decision_task_MP_exp2,2020.2.5,Win32,60,z,1,0.70875,,,,,,,,0.70875,1,,,,,,471,NW,UN,33,cigney,NOBEST,z,,,,,,0.474166667,-0.3675,0,0,0,,0,195,195,410,1,
,,,,,,,,,,,,,,,,,,58cefdb030c4cf0001ceb3ac,2020-11-27_10h04.05.045,lexical_decision_task_MP_exp2,2020.2.5,Win32,60,z,1,0.834045,,,,,,,,0.834045,1,,,,,,352,NW,"ID",33,tringe,TRINGE,z,,,,,,0.474166667,-0.3675,0,0,0,,0,196,196,291,1,
,,,,,,,,,,,,,,,,,,58cefdb030c4cf0001ceb3ac,2020-11-27_10h04.05.045,lexical_decision_task_MP_exp2,2020.2.5,Win32,60,m,1,0.65108,,,,,,,,0.65108,1,,,,,,226,WORD,UN,33,flower,CASINO,m,,,,,,0.474166667,-0.3675,0,0,0,,0,197,197,165,1,
,,,,,,,,,,,,,,,,,,58cefdb030c4cf0001ceb3ac,2020-11-27_10h04.05.045,lexical_decision_task_MP_exp2,2020.2.5,Win32,60,m,1,0.57486,,,,,,,,0.57486,1,,,,,,132,WORD,"ID",16,strong,STRONG,m,,,,,,0.474166667,-0.3675,0,0,0,,0,198,198,71,1,
,,,,,,,,,,,,,,,,,,58cefdb030c4cf0001ceb3ac,2020-11-27_10h04.05.045,lexical_decision_task_MP_exp2,2020.2.5,Win32,60,m,1,0.672435,,,,,,,,0.672435,1,,,,,,52,WORD,UN,16,police,IMPOSE,m,,,,,,0.474166667,-0.3675,0,0,0,,0,199,199,231,1,
,,,,,,,,,,,,,,,,,,58cefdb030c4cf0001ceb3ac,2020-11-27_10h04.05.045,lexical_decision_task_MP_exp2,2020.2.5,Win32,60,m,1,0.701495,,,,,,,,0.701495,1,,,,,,240,WORD,UN,33,seldom,FOREST,m,,,,,,0.474166667,-0.3675,0,0,0,,0,200,200,179,1,
,,,,,,,,,,,,,,,,,,58cefdb030c4cf0001ceb3ac,2020-11-27_10h04.05.045,lexical_decision_task_MP_exp2,2020.2.5,Win32,60,m,1,0.594825,,,,,,,,0.594825,1,,,,,,106,WORD,"ID",33,ransom,RANSOM,m,,,,,,0.474166667,-0.3675,0,0,0,,0,201,201,45,1,
,,,,,,,,,,,,,,,,,,58cefdb030c4cf0001ceb3ac,2020-11-27_10h04.05.045,lexical_decision_task_MP_exp2,2020.2.5,Win32,60,z,1,0.734695,,,,,,,,0.734695,1,,,,,,387,NW,"ID",16,gronce,GRONCE,z,,,,,,0.474166667,-0.3675,0,0,0,,0,202,202,326,1,
,,,,,,,,,,,,,,,,,,58cefdb030c4cf0001ceb3ac,2020-11-27_10h04.05.045,lexical_decision_task_MP_exp2,2020.2.5,Win32,60,m,1,0.751355,,,,,,,,0.751355,1,,,,,,151,WORD,"ID",16,mystic,MYSTIC,m,,,,,,0.474166667,-0.3675,0,0,0,,0,203,203,90,1,
,,,,,,,,,,,,,,,,,,58cefdb030c4cf0001ceb3ac,2020-11-27_10h04.05.045,lexical_decision_task_MP_exp2,2020.2.5,Win32,60,m,1,0.793165,,,,,,,,0.793165,1,,,,,,193,WORD,UN,33,mildew,OBJECT,m,,,,,,0.474166667,-0.3675,0,0,0,,0,204,204,132,1,
,,,,,,,,,,,,,,,,,,58cefdb030c4cf0001ceb3ac,2020-11-27_10h04.05.045,lexical_decision_task_MP_exp2,2020.2.5,Win32,60,m,1,0.70602,,,,,,,,0.70602,1,,,,,,121,WORD,"ID",16,thrive,THRIVE,m,,,,,,0.474166667,-0.3675,0,0,0,,0,205,205,60,1,
,,,,,,,,,,,,,,,,,,58cefdb030c4cf0001ceb3ac,2020-11-27_10h04.05.045,lexical_decision_task_MP_exp2,2020.2.5,Win32,60,m,1,0.73501,,,,,,,,0.73501,1,,,,,,185,WORD,UN,33,portal,BOTHER,m,,,,,,0.474166667,-0.3675,0,0,0,,0,206,206,124,1,
,,,,,,,,,,,,,,,,,,58cefdb030c4cf0001ceb3ac,2020-11-27_10h04.05.045,lexical_decision_task_MP_exp2,2020.2.5,Win32,60,m,1,0.70556,,,,,,,,0.70556,1,,,,,,199,WORD,UN,33,plague,INVOKE,m,,,,,,0.474166667,-0.3675,0,0,0,,0,207,207,138,1,
,,,,,,,,,,,,,,,,,,58cefdb030c4cf0001ceb3ac,2020-11-27_10h04.05.045,lexical_decision_task_MP_exp2,2020.2.5,Win32,60,z,1,0.712185,,,,,,,,0.712185,1,,,,,,474,NW,UN,33,acrise,HABLIN,z,,,,,,0.474166667,-0.3675,0,0,0,,0,208,208,413,1,
,,,,,,,,,,,,,,,,,,58cefdb030c4cf0001ceb3ac,2020-11-27_10h04.05.045,lexical_decision_task_MP_exp2,2020.2.5,Win32,60,m,1,0.65801,,,,,,,,0.65801,1,,,,,,159,WORD,"ID",16,detail,DETAIL,m,,,,,,0.474166667,-0.3675,0,0,0,,0,209,209,98,1,
,,,,,,,,,,,,,,,,,,58cefdb030c4cf0001ceb3ac,2020-11-27_10h04.05.045,lexical_decision_task_MP_exp2,2020.2.5,Win32,60,m,1,0.776495,,,,,,,,0.776495,1,,,,,,9,WORD,UN,16,bridge,HUSTLE,m,,,,,,0.474166667,-0.3675,0,0,0,,0,210,210,188,1,
,,,,,,,,,,,,,,,,,,58cefdb030c4cf0001ceb3ac,2020-11-27_10h04.05.045,lexical_decision_task_MP_exp2,2020.2.5,Win32,60,z,1,0.72212,,,,,,,,0.72212,1,,,,,,312,NW,"ID",33,nerawl,NERAWL,z,,,,,,0.474166667,-0.3675,0,0,0,,0,211,211,251,1,
,,,,,,,,,,,,,,,,,,58cefdb030c4cf0001ceb3ac,2020-11-27_10h04.05.045,lexical_decision_task_MP_exp2,2020.2.5,Win32,60,z,1,0.86958,,,,,,,,0.86958,1,,,,,,279,NW,UN,16,curbol,CELOND,z,,,,,,0.474166667,-0.3675,0,0,0,,0,212,212,458,1,
,,,,,,,,,,,,,,,,,,58cefdb030c4cf0001ceb3ac,2020-11-27_10h04.05.045,lexical_decision_task_MP_exp2,2020.2.5,Win32,60,z,1,0.667975,,,,,,,,0.667975,1,,,,,,441,NW,UN,33,aboune,RASTOE,z,,,,,,0.474166667,-0.3675,0,0,0,,0,213,213,380,1,
,,,,,,,,,,,,,,,,,,58cefdb030c4cf0001ceb3ac,2020-11-27_10h04.05.045,lexical_decision_task_MP_exp2,2020.2.5,Win32,60,z,1,0.867945,,,,,,,,0.867945,1,,,,,,445,NW,UN,33,runamo,MINKEL,z,,,,,,0.474166667,-0.3675,0,0,0,,0,214,214,384,1,
,,,,,,,,,,,,,,,,,,58cefdb030c4cf0001ceb3ac,2020-11-27_10h04.05.045,lexical_decision_task_MP_exp2,2020.2.5,Win32,60,z,1,0.60739,,,,,,,,0.60739,1,,,,,,254,NW,UN,16,apight,VAROSH,z,,,,,,0.474166667,-0.3675,0,0,0,,0,215,215,433,1,
,,,,,,,,,,,,,,,,,,58cefdb030c4cf0001ceb3ac,2020-11-27_10h04.05.045,lexical_decision_task_MP_exp2,2020.2.5,Win32,60,m,1,0.752775,,,,,,,,0.752775,1,,,,,,191,WORD,UN,33,beacon,STABLE,m,,,,,,0.474166667,-0.3675,0,0,0,,0,216,216,130,1,
,,,,,,,,,,,,,,,,,,58cefdb030c4cf0001ceb3ac,2020-11-27_10h04.05.045,lexical_decision_task_MP_exp2,2020.2.5,Win32,60,m,1,0.668095,,,,,,,,0.668095,1,,,,,,149,WORD,"ID",16,invade,INVADE,m,,,,,,0.474166667,-0.3675,0,0,0,,0,217,217,88,1,
,,,,,,,,,,,,,,,,,,58cefdb030c4cf0001ceb3ac,2020-11-27_10h04.05.045,lexical_decision_task_MP_exp2,2020.2.5,Win32,60,z,1,0.88683,,,,,,,,0.88683,1,,,,,,325,NW,"ID",33,thruse,THRUSE,z,,,,,,0.474166667,-0.3675,0,0,0,,0,218,218,264,1,
,,,,,,,,,,,,,,,,,,58cefdb030c4cf0001ceb3ac,2020-11-27_10h04.05.045,lexical_decision_task_MP_exp2,2020.2.5,Win32,60,m,1,0.65136,,,,,,,,0.65136,1,,,,,,90,WORD,"ID",33,relish,RELISH,m,,,,,,0.474166667,-0.3675,0,0,0,,0,219,219,29,1,
,,,,,,,,,,,,,,,,,,58cefdb030c4cf0001ceb3ac,2020-11-27_10h04.05.045,lexical_decision_task_MP_exp2,2020.2.5,Win32,60,z,1,0.73494,,,,,,,,0.73494,1,,,,,,333,NW,"ID",33,catrie,CATRIE,z,,,,,,0.474166667,-0.3675,0,0,0,,0,220,220,272,1,
,,,,,,,,,,,,,,,,,,58cefdb030c4cf0001ceb3ac,2020-11-27_10h04.05.045,lexical_decision_task_MP_exp2,2020.2.5,Win32,60,m,1,0.668715,,,,,,,,0.668715,1,,,,,,160,WORD,"ID",16,violet,VIOLET,m,,,,,,0.474166667,-0.3675,0,0,0,,0,221,221,99,1,
,,,,,,,,,,,,,,,,,,58cefdb030c4cf0001ceb3ac,2020-11-27_10h04.05.045,lexical_decision_task_MP_exp2,2020.2.5,Win32,60,m,1,0.594485,,,,,,,,0.594485,1,,,,,,161,WORD,"ID",16,pastor,PASTOR,m,,,,,,0.474166667,-0.3675,0,0,0,,0,222,222,100,1,
,,,,,,,,,,,,,,,,,,58cefdb030c4cf0001ceb3ac,2020-11-27_10h04.05.045,lexical_decision_task_MP_exp2,2020.2.5,Win32,60,z,1,0.787635,,,,,,,,0.787635,1,,,,,,384,NW,"ID",16,guesco,GUESCO,z,,,,,,0.474166667,-0.3675,0,0,0,,0,223,223,323,1,
,,,,,,,,,,,,,,,,,,58cefdb030c4cf0001ceb3ac,2020-11-27_10h04.05.045,lexical_decision_task_MP_exp2,2020.2.5,Win32,60,m,1,0.694795,,,,,,,,0.694795,1,,,,,,128,WORD,"ID",16,senior,SENIOR,m,,,,,,0.474166667,-0.3675,0,0,0,,0,224,224,67,1,
,,,,,,,,,,,,,,,,,,58cefdb030c4cf0001ceb3ac,2020-11-27_10h04.05.045,lexical_decision_task_MP_exp2,2020.2.5,Win32,60,m,1,0.65152,,,,,,,,0.65152,1,,,,,,78,WORD,"ID",33,column,COLUMN,m,,,,,,0.474166667,-0.3675,0,0,0,,0,225,225,17,1,
,,,,,,,,,,,,,,,,,,58cefdb030c4cf0001ceb3ac,2020-11-27_10h04.05.045,lexical_decision_task_MP_exp2,2020.2.5,Win32,60,z,1,0.684015,,,,,,,,0.684015,1,,,,,,347,NW,"ID",33,kerift,KERIFT,z,,,,,,0.474166667,-0.3675,0,0,0,,0,226,226,286,1,
,,,,,,,,,,,,,,,,,,58cefdb030c4cf0001ceb3ac,2020-11-27_10h04.05.045,lexical_decision_task_MP_exp2,2020.2.5,Win32,60,m,1,0.63685,,,,,,,,0.63685,1,,,,,,173,WORD,"ID",16,shower,SHOWER,m,,,,,,0.474166667,-0.3675,0,0,0,,0,227,227,112,1,
,,,,,,,,,,,,,,,,,,58cefdb030c4cf0001ceb3ac,2020-11-27_10h04.05.045,lexical_decision_task_MP_exp2,2020.2.5,Win32,60,m,0,0.918075,,,,,,,,0.918075,0,,,,,,266,NW,UN,16,pasink,VARMIT,z,,,,,,0.474166667,-0.3675,0,0,0,,0,228,228,445,1,
,,,,,,,,,,,,,,,,,,58cefdb030c4cf0001ceb3ac,2020-11-27_10h04.05.045,lexical_decision_task_MP_exp2,2020.2.5,Win32,60,z,1,0.90335,,,,,,,,0.90335,1,,,,,,431,NW,UN,33,lunker,CHRUMS,z,,,,,,0.474166667,-0.3675,0,0,0,,0,229,229,370,1,
,,,,,,,,,,,,,,,,,,58cefdb030c4cf0001ceb3ac,2020-11-27_10h04.05.045,lexical_decision_task_MP_exp2,2020.2.5,Win32,60,m,1,0.771835,,,,,,,,0.771835,1,,,,,,190,WORD,UN,33,stable,BACKUP,m,,,,,,0.474166667,-0.3675,0,0,0,,0,230,230,129,1,
,,,,,,,,,,,,,,,,,,58cefdb030c4cf0001ceb3ac,2020-11-27_10h04.05.045,lexical_decision_task_MP_exp2,2020.2.5,Win32,60,z,1,0.72555,,,,,,,,0.72555,1,,,,,,453,NW,UN,33,scouge,BOLVIS,z,,,,,,0.474166667,-0.3675,0,0,0,,0,231,231,392,1,
,,,,,,,,,,,,,,,,,,58cefdb030c4cf0001ceb3ac,2020-11-27_10h04.05.045,lexical_decision_task_MP_exp2,2020.2.5,Win32,60,z,1,1.003335,,,,,,,,1.003335,1,,,,,,337,NW,"ID",33,rejols,REJOLS,z,,,,,,0.474166667,-0.3675,0,0,0,,0,232,232,276,1,
,,,,,,,,,,,,,,,,,,58cefdb030c4cf0001ceb3ac,2020-11-27_10h04.05.045,lexical_decision_task_MP_exp2,2020.2.5,Win32,60,z,1,0.673135,,,,,,,,0.673135,1,,,,,,404,NW,"ID",16,cluirm,CLUIRM,z,,,,,,0.474166667,-0.3675,0,0,0,,0,233,233,343,1,
,,,,,,,,,,,,,,,,,,58cefdb030c4cf0001ceb3ac,2020-11-27_10h04.05.045,lexical_decision_task_MP_exp2,2020.2.5,Win32,60,z,1,0.80673,,,,,,,,0.80673,1,,,,,,390,NW,"ID",16,hatrus,HATRUS,z,,,,,,0.474166667,-0.3675,0,0,0,,0,234,234,329,1,
,,,,,,,,,,,,,,,,,,58cefdb030c4cf0001ceb3ac,2020-11-27_10h04.05.045,lexical_decision_task_MP_exp2,2020.2.5,Win32,60,m,1,0.695365,,,,,,,,0.695365,1,,,,,,217,WORD,UN,33,shrink,LIQUOR,m,,,,,,0.474166667,-0.3675,0,0,0,,0,235,235,156,1,
,,,,,,,,,,,,,,,,,,58cefdb030c4cf0001ceb3ac,2020-11-27_10h04.05.045,lexical_decision_task_MP_exp2,2020.2.5,Win32,60,z,1,0.89225,,,,,,,,0.89225,1,,,,,,348,NW,"ID",33,dumple,DUMPLE,z,,,,,,0.474166667,-0.3675,0,0,0,,0,236,236,287,1,
,,,,,,,,,,,,,,,,,,58cefdb030c4cf0001ceb3ac,2020-11-27_10h04.05.045,lexical_decision_task_MP_exp2,2020.2.5,Win32,60,m,1,0.68461,,,,,,,,0.68461,1,,,,,,60,WORD,UN,16,fright,PENCIL,m,,,,,,0.474166667,-0.3675,0,0,0,,0,237,237,239,1,
,,,,,,,,,,,,,,,,,,58cefdb030c4cf0001ceb3ac,2020-11-27_10h04.05.045,lexical_decision_task_MP_exp2,2020.2.5,Win32,60,z,1,0.758105,,,,,,,,0.758105,1,,,,,,276,NW,UN,16,petain,YARMON,z,,,,,,0.474166667,-0.3675,0,0,0,,0,238,238,455,1,
,,,,,,,,,,,,,,,,,,58cefdb030c4cf0001ceb3ac,2020-11-27_10h04.05.045,lexical_decision_task_MP_exp2,2020.2.5,Win32,60,m,1,0.667915,,,,,,,,0.667915,1,,,,,,44,WORD,UN,16,clergy,DANGER,m,,,,,,0.474166667,-0.3675,0,0,0,,0,239,239,223,1,
,,,,,,,,,,,,,,,,,,58cefdb030c4cf0001ceb3ac,2020-11-27_10h04.05.045,lexical_decision_task_MP_exp2,2020.2.5,Win32,60,z,1,0.93682,,,,,,,,0.93682,1,,,,,,243,NW,UN,16,eatric,MUSIED,z,,,,,,0.474166667,-0.3675,0,0,0,,0,240,240,422,1,
,,,,,,,,,,,,,,,,,,58cefdb030c4cf0001ceb3ac,2020-11-27_10h04.05.045,lexical_decision_task_MP_exp2,2020.2.5,Win32,60,z,1,0.952835,,,,,,,,0.952835,1,,,,,,248,NW,UN,16,batrol,STROLE,z,,,,,,0.474166667,-0.3675,0,0,0,space,0,241,241,427,1,16.04588
,,,,,,,,,,,,,,,,,,58cefdb030c4cf0001ceb3ac,2020-11-27_10h04.05.045,lexical_decision_task_MP_exp2,2020.2.5,Win32,60,z,1,0.768045,,,,,,,,0.768045,1,,,,,,358,NW,"ID",33,fleack,FLEACK,z,,,,,,0.474166667,-0.3675,0,0,0,,0,242,242,297,1,
,,,,,,,,,,,,,,,,,,58cefdb030c4cf0001ceb3ac,2020-11-27_10h04.05.045,lexical_decision_task_MP_exp2,2020.2.5,Win32,60,z,1,0.636665,,,,,,,,0.636665,1,,,,,,418,NW,"ID",16,suidle,SUIDLE,z,,,,,,0.474166667,-0.3675,0,0,0,,0,243,243,357,1,
,,,,,,,,,,,,,,,,,,58cefdb030c4cf0001ceb3ac,2020-11-27_10h04.05.045,lexical_decision_task_MP_exp2,2020.2.5,Win32,60,m,1,0.60107,,,,,,,,0.60107,1,,,,,,41,WORD,UN,16,chapel,SPRING,m,,,,,,0.474166667,-0.3675,0,0,0,,0,244,244,220,1,
,,,,,,,,,,,,,,,,,,58cefdb030c4cf0001ceb3ac,2020-11-27_10h04.05.045,lexical_decision_task_MP_exp2,2020.2.5,Win32,60,z,1,0.693205,,,,,,,,0.693205,1,,,,,,270,NW,UN,16,aubrid,WRIMSY,z,,,,,,0.474166667,-0.3675,0,0,0,,0,245,245,449,1,
,,,,,,,,,,,,,,,,,,58cefdb030c4cf0001ceb3ac,2020-11-27_10h04.05.045,lexical_decision_task_MP_exp2,2020.2.5,Win32,60,m,1,0.68478,,,,,,,,0.68478,1,,,,,,4,WORD,UN,16,plunge,TRENCH,m,,,,,,0.474166667,-0.3675,0,0,0,,0,246,246,183,1,
,,,,,,,,,,,,,,,,,,58cefdb030c4cf0001ceb3ac,2020-11-27_10h04.05.045,lexical_decision_task_MP_exp2,2020.2.5,Win32,60,m,1,0.6714,,,,,,,,0.6714,1,,,,,,45,WORD,UN,16,single,CLERGY,m,,,,,,0.474166667,-0.3675,0,0,0,,0,247,247,224,1,
,,,,,,,,,,,,,,,,,,58cefdb030c4cf0001ceb3ac,2020-11-27_10h04.05.045,lexical_decision_task_MP_exp2,2020.2.5,Win32,60,z,1,0.68555,,,,,,,,0.68555,1,,,,,,392,NW,"ID",16,rouncy,ROUNCY,z,,,,,,0.474166667,-0.3675,0,0,0,,0,248,248,331,1,
,,,,,,,,,,,,,,,,,,58cefdb030c4cf0001ceb3ac,2020-11-27_10h04.05.045,lexical_decision_task_MP_exp2,2020.2.5,Win32,60,z,1,0.61855,,,,,,,,0.61855,1,,,,,,315,NW,"ID",33,laston,LASTON,z,,,,,,0.474166667,-0.3675,0,0,0,,0,249,249,254,1,
,,,,,,,,,,,,,,,,,,58cefdb030c4cf0001ceb3ac,2020-11-27_10h04.05.045,lexical_decision_task_MP_exp2,2020.2.5,Win32,60,z,1,0.65288,,,,,,,,0.65288,1,,,,,,289,NW,UN,16,splino,STARBY,z,,,,,,0.474166667,-0.3675,0,0,0,,0,250,250,468,1,
,,,,,,,,,,,,,,,,,,58cefdb030c4cf0001ceb3ac,2020-11-27_10h04.05.045,lexical_decision_task_MP_exp2,2020.2.5,Win32,60,m,1,0.66801,,,,,,,,0.66801,1,,,,,,118,WORD,"ID",33,flight,FLIGHT,m,,,,,,0.474166667,-0.3675,0,0,0,,0,251,251,57,1,
,,,,,,,,,,,,,,,,,,58cefdb030c4cf0001ceb3ac,2020-11-27_10h04.05.045,lexical_decision_task_MP_exp2,2020.2.5,Win32,60,z,1,0.67856,,,,,,,,0.67856,1,,,,,,252,NW,UN,16,resait,STAPOD,z,,,,,,0.474166667,-0.3675,0,0,0,,0,252,252,431,1,
,,,,,,,,,,,,,,,,,,58cefdb030c4cf0001ceb3ac,2020-11-27_10h04.05.045,lexical_decision_task_MP_exp2,2020.2.5,Win32,60,z,1,0.652135,,,,,,,,0.652135,1,,,,,,394,NW,"ID",16,spaqux,SPAQUX,z,,,,,,0.474166667,-0.3675,0,0,0,,0,253,253,333,1,
,,,,,,,,,,,,,,,,,,58cefdb030c4cf0001ceb3ac,2020-11-27_10h04.05.045,lexical_decision_task_MP_exp2,2020.2.5,Win32,60,z,1,0.76167,,,,,,,,0.76167,1,,,,,,435,NW,UN,33,frutan,IMPURB,z,,,,,,0.474166667,-0.3675,0,0,0,,0,254,254,374,1,
,,,,,,,,,,,,,,,,,,58cefdb030c4cf0001ceb3ac,2020-11-27_10h04.05.045,lexical_decision_task_MP_exp2,2020.2.5,Win32,60,m,1,0.652755,,,,,,,,0.652755,1,,,,,,207,WORD,UN,33,hockey,WREATH,m,,,,,,0.474166667,-0.3675,0,0,0,,0,255,255,146,1,
,,,,,,,,,,,,,,,,,,58cefdb030c4cf0001ceb3ac,2020-11-27_10h04.05.045,lexical_decision_task_MP_exp2,2020.2.5,Win32,60,z,1,0.85141,,,,,,,,0.85141,1,,,,,,261,NW,UN,16,quilew,STUNCH,z,,,,,,0.474166667,-0.3675,0,0,0,,0,256,256,440,1,
,,,,,,,,,,,,,,,,,,58cefdb030c4cf0001ceb3ac,2020-11-27_10h04.05.045,lexical_decision_task_MP_exp2,2020.2.5,Win32,60,z,1,0.72172,,,,,,,,0.72172,1,,,,,,439,NW,UN,33,saride,LIMPOR,z,,,,,,0.474166667,-0.3675,0,0,0,,0,257,257,378,1,
,,,,,,,,,,,,,,,,,,58cefdb030c4cf0001ceb3ac,2020-11-27_10h04.05.045,lexical_decision_task_MP_exp2,2020.2.5,Win32,60,z,1,0.92827,,,,,,,,0.92827,1,,,,,,278,NW,UN,16,celond,UNIGHS,z,,,,,,0.474166667,-0.3675,0,0,0,,0,258,258,457,1,
,,,,,,,,,,,,,,,,,,58cefdb030c4cf0001ceb3ac,2020-11-27_10h04.05.045,lexical_decision_task_MP_exp2,2020.2.5,Win32,60,m,1,0.634755,,,,,,,,0.634755,1,,,,,,229,WORD,UN,33,fringe,MOTHER,m,,,,,,0.474166667,-0.3675,0,0,0,,0,259,259,168,1,
,,,,,,,,,,,,,,,,,,58cefdb030c4cf0001ceb3ac,2020-11-27_10h04.05.045,lexical_decision_task_MP_exp2,2020.2.5,Win32,60,z,1,0.651415,,,,,,,,0.651415,1,,,,,,450,NW,UN,33,cainky,PHRECT,z,,,,,,0.474166667,-0.3675,0,0,0,,0,260,260,389,1,
,,,,,,,,,,,,,,,,,,58cefdb030c4cf0001ceb3ac,2020-11-27_10h04.05.045,lexical_decision_task_MP_exp2,2020.2.5,Win32,60,z,1,0.654185,,,,,,,,0.654185,1,,,,,,262,NW,UN,16,dolica,QUILEW,z,,,,,,0.474166667,-0.3675,0,0,0,,0,261,261,441,1,
,,,,,,,,,,,,,,,,,,58cefdb030c4cf0001ceb3ac,2020-11-27_10h04.05.045,lexical_decision_task_MP_exp2,2020.2.5,Win32,60,z,1,0.701365,,,,,,,,0.701365,1,,,,,,388,NW,"ID",16,cragin,CRAGIN,z,,,,,,0.474166667,-0.3675,0,0,0,,0,262,262,327,1,
,,,,,,,,,,,,,,,,,,58cefdb030c4cf0001ceb3ac,2020-11-27_10h04.05.045,lexical_decision_task_MP_exp2,2020.2.5,Win32,60,z,1,0.63483,,,,,,,,0.63483,1,,,,,,479,NW,UN,33,crible,LOBUSH,z,,,,,,0.474166667,-0.3675,0,0,0,,0,263,263,418,1,
,,,,,,,,,,,,,,,,,,58cefdb030c4cf0001ceb3ac,2020-11-27_10h04.05.045,lexical_decision_task_MP_exp2,2020.2.5,Win32,60,z,1,0.7848,,,,,,,,0.7848,1,,,,,,355,NW,"ID",33,zingly,ZINGLY,z,,,,,,0.474166667,-0.3675,0,0,0,,0,264,264,294,1,
,,,,,,,,,,,,,,,,,,58cefdb030c4cf0001ceb3ac,2020-11-27_10h04.05.045,lexical_decision_task_MP_exp2,2020.2.5,Win32,60,m,1,0.717785,,,,,,,,0.717785,1,,,,,,57,WORD,UN,16,danger,CHANGE,m,,,,,,0.474166667,-0.3675,0,0,0,,0,265,265,236,1,
,,,,,,,,,,,,,,,,,,58cefdb030c4cf0001ceb3ac,2020-11-27_10h04.05.045,lexical_decision_task_MP_exp2,2020.2.5,Win32,60,z,1,0.60122,,,,,,,,0.60122,1,,,,,,470,NW,UN,33,nobest,CRUDIO,z,,,,,,0.474166667,-0.3675,0,0,0,,0,266,266,409,1,
,,,,,,,,,,,,,,,,,,58cefdb030c4cf0001ceb3ac,2020-11-27_10h04.05.045,lexical_decision_task_MP_exp2,2020.2.5,Win32,60,z,1,1.039295,,,,,,,,1.039295,1,,,,,,341,NW,"ID",33,myrtie,MYRTIE,z,,,,,,0.474166667,-0.3675,0,0,0,,0,267,267,280,1,
,,,,,,,,,,,,,,,,,,58cefdb030c4cf0001ceb3ac,2020-11-27_10h04.05.045,lexical_decision_task_MP_exp2,2020.2.5,Win32,60,m,1,0.604035,,,,,,,,0.604035,1,,,,,,70,WORD,"ID",33,square,SQUARE,m,,,,,,0.474166667,-0.3675,0,0,0,,0,268,268,9,1,
,,,,,,,,,,,,,,,,,,58cefdb030c4cf0001ceb3ac,2020-11-27_10h04.05.045,lexical_decision_task_MP_exp2,2020.2.5,Win32,60,z,1,0.67637,,,,,,,,0.67637,1,,,,,,447,NW,UN,33,sadent,GIRCUE,z,,,,,,0.474166667,-0.3675,0,0,0,,0,269,269,386,1,
,,,,,,,,,,,,,,,,,,58cefdb030c4cf0001ceb3ac,2020-11-27_10h04.05.045,lexical_decision_task_MP_exp2,2020.2.5,Win32,60,m,1,0.684985,,,,,,,,0.684985,1,,,,,,224,WORD,UN,33,vulgar,PERIOD,m,,,,,,0.474166667,-0.3675,0,0,0,,0,270,270,163,1,
,,,,,,,,,,,,,,,,,,58cefdb030c4cf0001ceb3ac,2020-11-27_10h04.05.045,lexical_decision_task_MP_exp2,2020.2.5,Win32,60,z,1,0.95911,,,,,,,,0.95911,1,,,,,,285,NW,UN,16,reldon,PRUDGE,z,,,,,,0.474166667,-0.3675,0,0,0,,0,271,271,464,1,
,,,,,,,,,,,,,,,,,,58cefdb030c4cf0001ceb3ac,2020-11-27_10h04.05.045,lexical_decision_task_MP_exp2,2020.2.5,Win32,60,z,1,0.70517,,,,,,,,0.70517,1,,,,,,407,NW,"ID",16,suiver,SUIVER,z,,,,,,0.474166667,-0.3675,0,0,0,,0,272,272,346,1,
,,,,,,,,,,,,,,,,,,58cefdb030c4cf0001ceb3ac,2020-11-27_10h04.05.045,lexical_decision_task_MP_exp2,2020.2.5,Win32,60,z,1,1.021275,,,,,,,,1.021275,1,,,,,,464,NW,UN,33,whivex,CHAITE,z,,,,,,0.474166667,-0.3675,0,0,0,,0,273,273,403,1,
,,,,,,,,,,,,,,,,,,58cefdb030c4cf0001ceb3ac,2020-11-27_10h04.05.045,lexical_decision_task_MP_exp2,2020.2.5,Win32,60,z,1,0.669025,,,,,,,,0.669025,1,,,,,,462,NW,UN,33,kispel,ABSULT,z,,,,,,0.474166667,-0.3675,0,0,0,,0,274,274,401,1,
,,,,,,,,,,,,,,,,,,58cefdb030c4cf0001ceb3ac,2020-11-27_10h04.05.045,lexical_decision_task_MP_exp2,2020.2.5,Win32,60,z,0,0.844965,,,,,,,,0.844965,0,,,,,,92,WORD,"ID",33,strand,STRAND,m,,,,,,0.474166667,-0.3675,0,0,0,,0,275,275,31,1,
,,,,,,,,,,,,,,,,,,58cefdb030c4cf0001ceb3ac,2020-11-27_10h04.05.045,lexical_decision_task_MP_exp2,2020.2.5,Win32,60,z,1,1.685525,,,,,,,,1.685525,1,,,,,,356,NW,"ID",33,othnis,OTHNIS,z,,,,,,0.474166667,-0.3675,0,0,0,,0,276,276,295,1,
,,,,,,,,,,,,,,,,,,58cefdb030c4cf0001ceb3ac,2020-11-27_10h04.05.045,lexical_decision_task_MP_exp2,2020.2.5,Win32,60,m,1,0.990395,,,,,,,,0.990395,1,,,,,,75,WORD,"ID",33,trophy,TROPHY,m,,,,,,0.474166667,-0.3675,0,0,0,,0,277,277,14,1,
,,,,,,,,,,,,,,,,,,58cefdb030c4cf0001ceb3ac,2020-11-27_10h04.05.045,lexical_decision_task_MP_exp2,2020.2.5,Win32,60,m,1,0.710755,,,,,,,,0.710755,1,,,,,,72,WORD,"ID",33,bright,BRIGHT,m,,,,,,0.474166667,-0.3675,0,0,0,,0,278,278,11,1,
,,,,,,,,,,,,,,,,,,58cefdb030c4cf0001ceb3ac,2020-11-27_10h04.05.045,lexical_decision_task_MP_exp2,2020.2.5,Win32,60,z,1,0.66832,,,,,,,,0.66832,1,,,,,,368,NW,"ID",16,hornal,HORNAL,z,,,,,,0.474166667,-0.3675,0,0,0,,0,279,279,307,1,
,,,,,,,,,,,,,,,,,,58cefdb030c4cf0001ceb3ac,2020-11-27_10h04.05.045,lexical_decision_task_MP_exp2,2020.2.5,Win32,60,z,1,0.88479,,,,,,,,0.88479,1,,,,,,416,NW,"ID",16,pathel,PATHEL,z,,,,,,0.474166667,-0.3675,0,0,0,,0,280,280,355,1,
,,,,,,,,,,,,,,,,,,58cefdb030c4cf0001ceb3ac,2020-11-27_10h04.05.045,lexical_decision_task_MP_exp2,2020.2.5,Win32,60,m,1,0.740455,,,,,,,,0.740455,1,,,,,,69,WORD,"ID",33,plenty,PLENTY,m,,,,,,0.474166667,-0.3675,0,0,0,,0,281,281,8,1,
,,,,,,,,,,,,,,,,,,58cefdb030c4cf0001ceb3ac,2020-11-27_10h04.05.045,lexical_decision_task_MP_exp2,2020.2.5,Win32,60,m,1,0.762515,,,,,,,,0.762515,1,,,,,,213,WORD,UN,33,intake,SQUEAL,m,,,,,,0.474166667,-0.3675,0,0,0,,0,282,282,152,1,
,,,,,,,,,,,,,,,,,,58cefdb030c4cf0001ceb3ac,2020-11-27_10h04.05.045,lexical_decision_task_MP_exp2,2020.2.5,Win32,60,m,1,0.67444,,,,,,,,0.67444,1,,,,,,221,WORD,UN,33,hinder,MASCOT,m,,,,,,0.474166667,-0.3675,0,0,0,,0,283,283,160,1,
,,,,,,,,,,,,,,,,,,58cefdb030c4cf0001ceb3ac,2020-11-27_10h04.05.045,lexical_decision_task_MP_exp2,2020.2.5,Win32,60,m,1,0.86818,,,,,,,,0.86818,1,,,,,,73,WORD,"ID",33,source,SOURCE,m,,,,,,0.474166667,-0.3675,0,0,0,,0,284,284,12,1,
,,,,,,,,,,,,,,,,,,58cefdb030c4cf0001ceb3ac,2020-11-27_10h04.05.045,lexical_decision_task_MP_exp2,2020.2.5,Win32,60,z,1,0.72548,,,,,,,,0.72548,1,,,,,,363,NW,"ID",16,breali,BREALI,z,,,,,,0.474166667,-0.3675,0,0,0,,0,285,285,302,1,
,,,,,,,,,,,,,,,,,,58cefdb030c4cf0001ceb3ac,2020-11-27_10h04.05.045,lexical_decision_task_MP_exp2,2020.2.5,Win32,60,z,1,0.729435,,,,,,,,0.729435,1,,,,,,465,NW,UN,33,bafent,WHIVEX,z,,,,,,0.474166667,-0.3675,0,0,0,,0,286,286,404,1,
,,,,,,,,,,,,,,,,,,58cefdb030c4cf0001ceb3ac,2020-11-27_10h04.05.045,lexical_decision_task_MP_exp2,2020.2.5,Win32,60,z,1,0.72513,,,,,,,,0.72513,1,,,,,,417,NW,"ID",16,earoud,EAROUD,z,,,,,,0.474166667,-0.3675,0,0,0,,0,287,287,356,1,
,,,,,,,,,,,,,,,,,,58cefdb030c4cf0001ceb3ac,2020-11-27_10h04.05.045,lexical_decision_task_MP_exp2,2020.2.5,Win32,60,z,1,0.66821,,,,,,,,0.66821,1,,,,,,336,NW,"ID",33,ghodus,GHODUS,z,,,,,,0.474166667,-0.3675,0,0,0,,0,288,288,275,1,
,,,,,,,,,,,,,,,,,,58cefdb030c4cf0001ceb3ac,2020-11-27_10h04.05.045,lexical_decision_task_MP_exp2,2020.2.5,Win32,60,z,1,0.694675,,,,,,,,0.694675,1,,,,,,463,NW,UN,33,chaite,KISPEL,z,,,,,,0.474166667,-0.3675,0,0,0,,0,289,289,402,1,
,,,,,,,,,,,,,,,,,,58cefdb030c4cf0001ceb3ac,2020-11-27_10h04.05.045,lexical_decision_task_MP_exp2,2020.2.5,Win32,60,m,1,0.742135,,,,,,,,0.742135,1,,,,,,187,WORD,UN,33,social,COURSE,m,,,,,,0.474166667,-0.3675,0,0,0,,0,290,290,126,1,
,,,,,,,,,,,,,,,,,,58cefdb030c4cf0001ceb3ac,2020-11-27_10h04.05.045,lexical_decision_task_MP_exp2,2020.2.5,Win32,60,m,1,0.58414,,,,,,,,0.58414,1,,,,,,105,WORD,"ID",33,number,NUMBER,m,,,,,,0.474166667,-0.3675,0,0,0,,0,291,291,44,1,
,,,,,,,,,,,,,,,,,,58cefdb030c4cf0001ceb3ac,2020-11-27_10h04.05.045,lexical_decision_task_MP_exp2,2020.2.5,Win32,60,m,1,0.71074,,,,,,,,0.71074,1,,,,,,216,WORD,UN,33,liquor,BEHALF,m,,,,,,0.474166667,-0.3675,0,0,0,,0,292,292,155,1,
,,,,,,,,,,,,,,,,,,58cefdb030c4cf0001ceb3ac,2020-11-27_10h04.05.045,lexical_decision_task_MP_exp2,2020.2.5,Win32,60,z,1,0.675095,,,,,,,,0.675095,1,,,,,,249,NW,UN,16,milted,BATROL,z,,,,,,0.474166667,-0.3675,0,0,0,,0,293,293,428,1,
,,,,,,,,,,,,,,,,,,58cefdb030c4cf0001ceb3ac,2020-11-27_10h04.05.045,lexical_decision_task_MP_exp2,2020.2.5,Win32,60,m,1,0.65696,,,,,,,,0.65696,1,,,,,,201,WORD,UN,33,factor,ADMIRE,m,,,,,,0.474166667,-0.3675,0,0,0,,0,294,294,140,1,
,,,,,,,,,,,,,,,,,,58cefdb030c4cf0001ceb3ac,2020-11-27_10h04.05.045,lexical_decision_task_MP_exp2,2020.2.5,Win32,60,m,1,1.255305,,,,,,,,1.255305,1,,,,,,19,WORD,UN,16,breast,PATRON,m,,,,,,0.474166667,-0.3675,0,0,0,,0,295,295,198,1,
,,,,,,,,,,,,,,,,,,58cefdb030c4cf0001ceb3ac,2020-11-27_10h04.05.045,lexical_decision_task_MP_exp2,2020.2.5,Win32,60,m,1,0.589225,,,,,,,,0.589225,1,,,,,,109,WORD,"ID",33,wonder,WONDER,m,,,,,,0.474166667,-0.3675,0,0,0,,0,296,296,48,1,
,,,,,,,,,,,,,,,,,,58cefdb030c4cf0001ceb3ac,2020-11-27_10h04.05.045,lexical_decision_task_MP_exp2,2020.2.5,Win32,60,m,1,0.622075,,,,,,,,0.622075,1,,,,,,17,WORD,UN,16,humble,CHARGE,m,,,,,,0.474166667,-0.3675,0,0,0,,0,297,297,196,1,
,,,,,,,,,,,,,,,,,,58cefdb030c4cf0001ceb3ac,2020-11-27_10h04.05.045,lexical_decision_task_MP_exp2,2020.2.5,Win32,60,z,1,0.728465,,,,,,,,0.728465,1,,,,,,293,NW,UN,16,inhort,SWANCE,z,,,,,,0.474166667,-0.3675,0,0,0,,0,298,298,472,1,
,,,,,,,,,,,,,,,,,,58cefdb030c4cf0001ceb3ac,2020-11-27_10h04.05.045,lexical_decision_task_MP_exp2,2020.2.5,Win32,60,m,1,0.705735,,,,,,,,0.705735,1,,,,,,64,WORD,"ID",33,throne,THRONE,m,,,,,,0.474166667,-0.3675,0,0,0,,0,299,299,3,1,
,,,,,,,,,,,,,,,,,,58cefdb030c4cf0001ceb3ac,2020-11-27_10h04.05.045,lexical_decision_task_MP_exp2,2020.2.5,Win32,60,z,1,0.83473,,,,,,,,0.83473,1,,,,,,420,NW,"ID",16,gushop,GUSHOP,z,,,,,,0.474166667,-0.3675,0,0,0,,0,300,300,359,1,
,,,,,,,,,,,,,,,,,,58cefdb030c4cf0001ceb3ac,2020-11-27_10h04.05.045,lexical_decision_task_MP_exp2,2020.2.5,Win32,60,m,1,0.601005,,,,,,,,0.601005,1,,,,,,12,WORD,UN,16,strive,ORANGE,m,,,,,,0.474166667,-0.3675,0,0,0,,0,301,301,191,1,
,,,,,,,,,,,,,,,,,,58cefdb030c4cf0001ceb3ac,2020-11-27_10h04.05.045,lexical_decision_task_MP_exp2,2020.2.5,Win32,60,z,1,0.902025,,,,,,,,0.902025,1,,,,,,377,NW,"ID",16,injore,INJORE,z,,,,,,0.474166667,-0.3675,0,0,0,,0,302,302,316,1,
,,,,,,,,,,,,,,,,,,58cefdb030c4cf0001ceb3ac,2020-11-27_10h04.05.045,lexical_decision_task_MP_exp2,2020.2.5,Win32,60,z,1,1.13497,,,,,,,,1.13497,1,,,,,,268,NW,UN,16,orchet,PACKES,z,,,,,,0.474166667,-0.3675,0,0,0,,0,303,303,447,1,
,,,,,,,,,,,,,,,,,,58cefdb030c4cf0001ceb3ac,2020-11-27_10h04.05.045,lexical_decision_task_MP_exp2,2020.2.5,Win32,60,m,1,0.72505,,,,,,,,0.72505,1,,,,,,145,WORD,"ID",16,parish,PARISH,m,,,,,,0.474166667,-0.3675,0,0,0,,0,304,304,84,1,
,,,,,,,,,,,,,,,,,,58cefdb030c4cf0001ceb3ac,2020-11-27_10h04.05.045,lexical_decision_task_MP_exp2,2020.2.5,Win32,60,m,1,0.79297,,,,,,,,0.79297,1,,,,,,87,WORD,"ID",33,filter,FILTER,m,,,,,,0.474166667,-0.3675,0,0,0,,0,305,305,26,1,
,,,,,,,,,,,,,,,,,,58cefdb030c4cf0001ceb3ac,2020-11-27_10h04.05.045,lexical_decision_task_MP_exp2,2020.2.5,Win32,60,z,1,0.69187,,,,,,,,0.69187,1,,,,,,436,NW,UN,33,snapel,FRUTAN,z,,,,,,0.474166667,-0.3675,0,0,0,,0,306,306,375,1,
,,,,,,,,,,,,,,,,,,58cefdb030c4cf0001ceb3ac,2020-11-27_10h04.05.045,lexical_decision_task_MP_exp2,2020.2.5,Win32,60,m,1,0.702565,,,,,,,,0.702565,1,,,,,,100,WORD,"ID",33,carbon,CARBON,m,,,,,,0.474166667,-0.3675,0,0,0,,0,307,307,39,1,
,,,,,,,,,,,,,,,,,,58cefdb030c4cf0001ceb3ac,2020-11-27_10h04.05.045,lexical_decision_task_MP_exp2,2020.2.5,Win32,60,m,1,0.627425,,,,,,,,0.627425,1,,,,,,186,WORD,UN,33,course,PORTAL,m,,,,,,0.474166667,-0.3675,0,0,0,,0,308,308,125,1,
,,,,,,,,,,,,,,,,,,58cefdb030c4cf0001ceb3ac,2020-11-27_10h04.05.045,lexical_decision_task_MP_exp2,2020.2.5,Win32,60,m,1,0.722705,,,,,,,,0.722705,1,,,,,,138,WORD,"ID",16,melody,MELODY,m,,,,,,0.474166667,-0.3675,0,0,0,,0,309,309,77,1,
,,,,,,,,,,,,,,,,,,58cefdb030c4cf0001ceb3ac,2020-11-27_10h04.05.045,lexical_decision_task_MP_exp2,2020.2.5,Win32,60,m,1,1.102335,,,,,,,,1.102335,1,,,,,,40,WORD,UN,16,spring,CONVEY,m,,,,,,0.474166667,-0.3675,0,0,0,,0,310,310,219,1,
,,,,,,,,,,,,,,,,,,58cefdb030c4cf0001ceb3ac,2020-11-27_10h04.05.045,lexical_decision_task_MP_exp2,2020.2.5,Win32,60,z,1,0.72251,,,,,,,,0.72251,1,,,,,,359,NW,"ID",33,fonver,FONVER,z,,,,,,0.474166667,-0.3675,0,0,0,,0,311,311,298,1,
,,,,,,,,,,,,,,,,,,58cefdb030c4cf0001ceb3ac,2020-11-27_10h04.05.045,lexical_decision_task_MP_exp2,2020.2.5,Win32,60,z,1,0.878265,,,,,,,,0.878265,1,,,,,,449,NW,UN,33,phrect,BRUNGE,z,,,,,,0.474166667,-0.3675,0,0,0,,0,312,312,388,1,
,,,,,,,,,,,,,,,,,,58cefdb030c4cf0001ceb3ac,2020-11-27_10h04.05.045,lexical_decision_task_MP_exp2,2020.2.5,Win32,60,m,1,0.6679,,,,,,,,0.6679,1,,,,,,39,WORD,UN,16,convey,INSECT,m,,,,,,0.474166667,-0.3675,0,0,0,,0,313,313,218,1,
,,,,,,,,,,,,,,,,,,58cefdb030c4cf0001ceb3ac,2020-11-27_10h04.05.045,lexical_decision_task_MP_exp2,2020.2.5,Win32,60,z,1,0.78756,,,,,,,,0.78756,1,,,,,,466,NW,UN,33,robuly,HOCITE,z,,,,,,0.474166667,-0.3675,0,0,0,,0,314,314,405,1,
,,,,,,,,,,,,,,,,,,58cefdb030c4cf0001ceb3ac,2020-11-27_10h04.05.045,lexical_decision_task_MP_exp2,2020.2.5,Win32,60,m,1,1.210435,,,,,,,,1.210435,1,,,,,,111,WORD,"ID",33,induce,INDUCE,m,,,,,,0.474166667,-0.3675,0,0,0,,0,315,315,50,1,
,,,,,,,,,,,,,,,,,,58cefdb030c4cf0001ceb3ac,2020-11-27_10h04.05.045,lexical_decision_task_MP_exp2,2020.2.5,Win32,60,z,1,1.362315,,,,,,,,1.362315,1,,,,,,313,NW,"ID",33,paurse,PAURSE,z,,,,,,0.474166667,-0.3675,0,0,0,,0,316,316,252,1,
,,,,,,,,,,,,,,,,,,58cefdb030c4cf0001ceb3ac,2020-11-27_10h04.05.045,lexical_decision_task_MP_exp2,2020.2.5,Win32,60,z,1,1.32429,,,,,,,,1.32429,1,,,,,,433,NW,UN,33,pitrom,DRANCE,z,,,,,,0.474166667,-0.3675,0,0,0,,0,317,317,372,1,
,,,,,,,,,,,,,,,,,,58cefdb030c4cf0001ceb3ac,2020-11-27_10h04.05.045,lexical_decision_task_MP_exp2,2020.2.5,Win32,60,z,1,0.90327,,,,,,,,0.90327,1,,,,,,275,NW,UN,16,yarmon,SLEIRT,z,,,,,,0.474166667,-0.3675,0,0,0,,0,318,318,454,1,
,,,,,,,,,,,,,,,,,,58cefdb030c4cf0001ceb3ac,2020-11-27_10h04.05.045,lexical_decision_task_MP_exp2,2020.2.5,Win32,60,z,1,0.718115,,,,,,,,0.718115,1,,,,,,302,NW,"ID",33,miluer,MILUER,z,,,,,,0.474166667,-0.3675,0,0,0,,0,319,319,241,1,
,,,,,,,,,,,,,,,,,,58cefdb030c4cf0001ceb3ac,2020-11-27_10h04.05.045,lexical_decision_task_MP_exp2,2020.2.5,Win32,60,m,1,0.822995,,,,,,,,0.822995,1,,,,,,175,WORD,"ID",16,fabric,FABRIC,m,,,,,,0.474166667,-0.3675,0,0,0,,0,320,320,114,1,
,,,,,,,,,,,,,,,,,,58cefdb030c4cf0001ceb3ac,2020-11-27_10h04.05.045,lexical_decision_task_MP_exp2,2020.2.5,Win32,60,z,1,0.705445,,,,,,,,0.705445,1,,,,,,452,NW,UN,33,bolvis,SURDEN,z,,,,,,0.474166667,-0.3675,0,0,0,,0,321,321,391,1,
,,,,,,,,,,,,,,,,,,58cefdb030c4cf0001ceb3ac,2020-11-27_10h04.05.045,lexical_decision_task_MP_exp2,2020.2.5,Win32,60,z,1,0.979275,,,,,,,,0.979275,1,,,,,,340,NW,"ID",33,fiatch,FIATCH,z,,,,,,0.474166667,-0.3675,0,0,0,,0,322,322,279,1,
,,,,,,,,,,,,,,,,,,58cefdb030c4cf0001ceb3ac,2020-11-27_10h04.05.045,lexical_decision_task_MP_exp2,2020.2.5,Win32,60,z,1,1.15183,,,,,,,,1.15183,1,,,,,,328,NW,"ID",33,broake,BROAKE,z,,,,,,0.474166667,-0.3675,0,0,0,,0,323,323,267,1,
,,,,,,,,,,,,,,,,,,58cefdb030c4cf0001ceb3ac,2020-11-27_10h04.05.045,lexical_decision_task_MP_exp2,2020.2.5,Win32,60,m,1,0.74277,,,,,,,,0.74277,1,,,,,,200,WORD,UN,33,admire,BEACON,m,,,,,,0.474166667,-0.3675,0,0,0,,0,324,324,139,1,
,,,,,,,,,,,,,,,,,,58cefdb030c4cf0001ceb3ac,2020-11-27_10h04.05.045,lexical_decision_task_MP_exp2,2020.2.5,Win32,60,z,1,0.85765,,,,,,,,0.85765,1,,,,,,448,NW,UN,33,brunge,SADENT,z,,,,,,0.474166667,-0.3675,0,0,0,,0,325,325,387,1,
,,,,,,,,,,,,,,,,,,58cefdb030c4cf0001ceb3ac,2020-11-27_10h04.05.045,lexical_decision_task_MP_exp2,2020.2.5,Win32,60,m,1,0.684615,,,,,,,,0.684615,1,,,,,,21,WORD,UN,16,jockey,SIMPLE,m,,,,,,0.474166667,-0.3675,0,0,0,,0,326,326,200,1,
,,,,,,,,,,,,,,,,,,58cefdb030c4cf0001ceb3ac,2020-11-27_10h04.05.045,lexical_decision_task_MP_exp2,2020.2.5,Win32,60,m,1,0.55126,,,,,,,,0.55126,1,,,,,,47,WORD,UN,16,walnut,INCOME,m,,,,,,0.474166667,-0.3675,0,0,0,,0,327,327,226,1,
,,,,,,,,,,,,,,,,,,58cefdb030c4cf0001ceb3ac,2020-11-27_10h04.05.045,lexical_decision_task_MP_exp2,2020.2.5,Win32,60,m,1,0.667915,,,,,,,,0.667915,1,,,,,,177,WORD,"ID",16,advent,ADVENT,m,,,,,,0.474166667,-0.3675,0,0,0,,0,328,328,116,1,
,,,,,,,,,,,,,,,,,,58cefdb030c4cf0001ceb3ac,2020-11-27_10h04.05.045,lexical_decision_task_MP_exp2,2020.2.5,Win32,60,m,1,0.719265,,,,,,,,0.719265,1,,,,,,189,WORD,UN,33,backup,CENSOR,m,,,,,,0.474166667,-0.3675,0,0,0,,0,329,329,128,1,
,,,,,,,,,,,,,,,,,,58cefdb030c4cf0001ceb3ac,2020-11-27_10h04.05.045,lexical_decision_task_MP_exp2,2020.2.5,Win32,60,m,1,0.71279,,,,,,,,0.71279,1,,,,,,7,WORD,UN,16,abrupt,ANCHOR,m,,,,,,0.474166667,-0.3675,0,0,0,,0,330,330,186,1,
,,,,,,,,,,,,,,,,,,58cefdb030c4cf0001ceb3ac,2020-11-27_10h04.05.045,lexical_decision_task_MP_exp2,2020.2.5,Win32,60,m,1,0.71786,,,,,,,,0.71786,1,,,,,,31,WORD,UN,16,buckle,WEAPON,m,,,,,,0.474166667,-0.3675,0,0,0,,0,331,331,210,1,
,,,,,,,,,,,,,,,,,,58cefdb030c4cf0001ceb3ac,2020-11-27_10h04.05.045,lexical_decision_task_MP_exp2,2020.2.5,Win32,60,z,1,1.018255,,,,,,,,1.018255,1,,,,,,272,NW,UN,16,sortel,DAMILT,z,,,,,,0.474166667,-0.3675,0,0,0,,0,332,332,451,1,
,,,,,,,,,,,,,,,,,,58cefdb030c4cf0001ceb3ac,2020-11-27_10h04.05.045,lexical_decision_task_MP_exp2,2020.2.5,Win32,60,z,1,0.79215,,,,,,,,0.79215,1,,,,,,297,NW,UN,16,piergy,FERTIC,z,,,,,,0.474166667,-0.3675,0,0,0,,0,333,333,476,1,
,,,,,,,,,,,,,,,,,,58cefdb030c4cf0001ceb3ac,2020-11-27_10h04.05.045,lexical_decision_task_MP_exp2,2020.2.5,Win32,60,z,1,0.769175,,,,,,,,0.769175,1,,,,,,327,NW,"ID",33,plenac,PLENAC,z,,,,,,0.474166667,-0.3675,0,0,0,,0,334,334,266,1,
,,,,,,,,,,,,,,,,,,58cefdb030c4cf0001ceb3ac,2020-11-27_10h04.05.045,lexical_decision_task_MP_exp2,2020.2.5,Win32,60,m,1,0.76283,,,,,,,,0.76283,1,,,,,,129,WORD,"ID",16,marvel,MARVEL,m,,,,,,0.474166667,-0.3675,0,0,0,,0,335,335,68,1,
,,,,,,,,,,,,,,,,,,58cefdb030c4cf0001ceb3ac,2020-11-27_10h04.05.045,lexical_decision_task_MP_exp2,2020.2.5,Win32,60,m,1,0.62126,,,,,,,,0.62126,1,,,,,,150,WORD,"ID",16,random,RANDOM,m,,,,,,0.474166667,-0.3675,0,0,0,,0,336,336,89,1,
,,,,,,,,,,,,,,,,,,58cefdb030c4cf0001ceb3ac,2020-11-27_10h04.05.045,lexical_decision_task_MP_exp2,2020.2.5,Win32,60,z,1,0.88731,,,,,,,,0.88731,1,,,,,,476,NW,UN,33,photie,JOSTED,z,,,,,,0.474166667,-0.3675,0,0,0,,0,337,337,415,1,
,,,,,,,,,,,,,,,,,,58cefdb030c4cf0001ceb3ac,2020-11-27_10h04.05.045,lexical_decision_task_MP_exp2,2020.2.5,Win32,60,m,1,0.625875,,,,,,,,0.625875,1,,,,,,235,WORD,UN,33,pirate,GRUMPY,m,,,,,,0.474166667,-0.3675,0,0,0,,0,338,338,174,1,
,,,,,,,,,,,,,,,,,,58cefdb030c4cf0001ceb3ac,2020-11-27_10h04.05.045,lexical_decision_task_MP_exp2,2020.2.5,Win32,60,z,1,0.76941,,,,,,,,0.76941,1,,,,,,478,NW,UN,33,pebric,ACRISE,z,,,,,,0.474166667,-0.3675,0,0,0,,0,339,339,417,1,
,,,,,,,,,,,,,,,,,,58cefdb030c4cf0001ceb3ac,2020-11-27_10h04.05.045,lexical_decision_task_MP_exp2,2020.2.5,Win32,60,m,1,0.587135,,,,,,,,0.587135,1,,,,,,232,WORD,UN,33,nature,INJECT,m,,,,,,0.474166667,-0.3675,0,0,0,,0,340,340,171,1,
,,,,,,,,,,,,,,,,,,58cefdb030c4cf0001ceb3ac,2020-11-27_10h04.05.045,lexical_decision_task_MP_exp2,2020.2.5,Win32,60,m,1,0.604475,,,,,,,,0.604475,1,,,,,,56,WORD,UN,16,change,AMBUSH,m,,,,,,0.474166667,-0.3675,0,0,0,,0,341,341,235,1,
,,,,,,,,,,,,,,,,,,58cefdb030c4cf0001ceb3ac,2020-11-27_10h04.05.045,lexical_decision_task_MP_exp2,2020.2.5,Win32,60,z,1,0.751395,,,,,,,,0.751395,1,,,,,,405,NW,"ID",16,flumni,FLUMNI,z,,,,,,0.474166667,-0.3675,0,0,0,,0,342,342,344,1,
,,,,,,,,,,,,,,,,,,58cefdb030c4cf0001ceb3ac,2020-11-27_10h04.05.045,lexical_decision_task_MP_exp2,2020.2.5,Win32,60,m,1,0.67904,,,,,,,,0.67904,1,,,,,,112,WORD,"ID",33,breath,BREATH,m,,,,,,0.474166667,-0.3675,0,0,0,,0,343,343,51,1,
,,,,,,,,,,,,,,,,,,58cefdb030c4cf0001ceb3ac,2020-11-27_10h04.05.045,lexical_decision_task_MP_exp2,2020.2.5,Win32,60,z,1,0.772635,,,,,,,,0.772635,1,,,,,,473,NW,UN,33,hablin,CRIBLE,z,,,,,,0.474166667,-0.3675,0,0,0,,0,344,344,412,1,
,,,,,,,,,,,,,,,,,,58cefdb030c4cf0001ceb3ac,2020-11-27_10h04.05.045,lexical_decision_task_MP_exp2,2020.2.5,Win32,60,z,1,0.6466,,,,,,,,0.6466,1,,,,,,443,NW,UN,33,jaunce,DORSEX,z,,,,,,0.474166667,-0.3675,0,0,0,,0,345,345,382,1,
,,,,,,,,,,,,,,,,,,58cefdb030c4cf0001ceb3ac,2020-11-27_10h04.05.045,lexical_decision_task_MP_exp2,2020.2.5,Win32,60,m,1,0.855635,,,,,,,,0.855635,1,,,,,,231,WORD,UN,33,inject,EXPORT,m,,,,,,0.474166667,-0.3675,0,0,0,,0,346,346,170,1,
,,,,,,,,,,,,,,,,,,58cefdb030c4cf0001ceb3ac,2020-11-27_10h04.05.045,lexical_decision_task_MP_exp2,2020.2.5,Win32,60,z,1,0.70786,,,,,,,,0.70786,1,,,,,,306,NW,"ID",33,sounge,SOUNGE,z,,,,,,0.474166667,-0.3675,0,0,0,,0,347,347,245,1,
,,,,,,,,,,,,,,,,,,58cefdb030c4cf0001ceb3ac,2020-11-27_10h04.05.045,lexical_decision_task_MP_exp2,2020.2.5,Win32,60,z,1,0.64012,,,,,,,,0.64012,1,,,,,,408,NW,"ID",16,hurnia,HURNIA,z,,,,,,0.474166667,-0.3675,0,0,0,,0,348,348,347,1,
,,,,,,,,,,,,,,,,,,58cefdb030c4cf0001ceb3ac,2020-11-27_10h04.05.045,lexical_decision_task_MP_exp2,2020.2.5,Win32,60,m,1,0.655485,,,,,,,,0.655485,1,,,,,,204,WORD,UN,33,lounge,BURDEN,m,,,,,,0.474166667,-0.3675,0,0,0,,0,349,349,143,1,
,,,,,,,,,,,,,,,,,,58cefdb030c4cf0001ceb3ac,2020-11-27_10h04.05.045,lexical_decision_task_MP_exp2,2020.2.5,Win32,60,m,1,0.60136,,,,,,,,0.60136,1,,,,,,63,WORD,"ID",33,launch,LAUNCH,m,,,,,,0.474166667,-0.3675,0,0,0,,0,350,350,2,1,
,,,,,,,,,,,,,,,,,,58cefdb030c4cf0001ceb3ac,2020-11-27_10h04.05.045,lexical_decision_task_MP_exp2,2020.2.5,Win32,60,m,1,0.767935,,,,,,,,0.767935,1,,,,,,127,WORD,"ID",16,castle,CASTLE,m,,,,,,0.474166667,-0.3675,0,0,0,,0,351,351,66,1,
,,,,,,,,,,,,,,,,,,58cefdb030c4cf0001ceb3ac,2020-11-27_10h04.05.045,lexical_decision_task_MP_exp2,2020.2.5,Win32,60,m,1,0.62304,,,,,,,,0.62304,1,,,,,,48,WORD,UN,16,survey,WALNUT,m,,,,,,0.474166667,-0.3675,0,0,0,,0,352,352,227,1,
,,,,,,,,,,,,,,,,,,58cefdb030c4cf0001ceb3ac,2020-11-27_10h04.05.045,lexical_decision_task_MP_exp2,2020.2.5,Win32,60,z,1,0.67874,,,,,,,,0.67874,1,,,,,,451,NW,UN,33,surden,CAINKY,z,,,,,,0.474166667,-0.3675,0,0,0,,0,353,353,390,1,
,,,,,,,,,,,,,,,,,,58cefdb030c4cf0001ceb3ac,2020-11-27_10h04.05.045,lexical_decision_task_MP_exp2,2020.2.5,Win32,60,z,1,0.81265,,,,,,,,0.81265,1,,,,,,271,NW,UN,16,damilt,AUBRID,z,,,,,,0.474166667,-0.3675,0,0,0,,0,354,354,450,1,
,,,,,,,,,,,,,,,,,,58cefdb030c4cf0001ceb3ac,2020-11-27_10h04.05.045,lexical_decision_task_MP_exp2,2020.2.5,Win32,60,z,1,0.711235,,,,,,,,0.711235,1,,,,,,421,NW,UN,33,alcoud,KNISMA,z,,,,,,0.474166667,-0.3675,0,0,0,,0,355,355,360,1,
,,,,,,,,,,,,,,,,,,58cefdb030c4cf0001ceb3ac,2020-11-27_10h04.05.045,lexical_decision_task_MP_exp2,2020.2.5,Win32,60,z,1,0.85715,,,,,,,,0.85715,1,,,,,,334,NW,"ID",33,watmeg,WATMEG,z,,,,,,0.474166667,-0.3675,0,0,0,,0,356,356,273,1,
,,,,,,,,,,,,,,,,,,58cefdb030c4cf0001ceb3ac,2020-11-27_10h04.05.045,lexical_decision_task_MP_exp2,2020.2.5,Win32,60,m,1,0.67126,,,,,,,,0.67126,1,,,,,,122,WORD,"ID",16,linger,LINGER,m,,,,,,0.474166667,-0.3675,0,0,0,,0,357,357,61,1,
,,,,,,,,,,,,,,,,,,58cefdb030c4cf0001ceb3ac,2020-11-27_10h04.05.045,lexical_decision_task_MP_exp2,2020.2.5,Win32,60,z,1,0.97291,,,,,,,,0.97291,1,,,,,,332,NW,"ID",33,vangue,VANGUE,z,,,,,,0.474166667,-0.3675,0,0,0,,0,358,358,271,1,
,,,,,,,,,,,,,,,,,,58cefdb030c4cf0001ceb3ac,2020-11-27_10h04.05.045,lexical_decision_task_MP_exp2,2020.2.5,Win32,60,z,1,0.846525,,,,,,,,0.846525,1,,,,,,282,NW,UN,16,veralf,PORLEX,z,,,,,,0.474166667,-0.3675,0,0,0,,0,359,359,461,1,
,,,,,,,,,,,,,,,,,,58cefdb030c4cf0001ceb3ac,2020-11-27_10h04.05.045,lexical_decision_task_MP_exp2,2020.2.5,Win32,60,z,1,0.685865,,,,,,,,0.685865,1,,,,,,430,NW,UN,33,chrums,CAROEY,z,,,,,,0.474166667,-0.3675,0,0,0,,0,360,360,369,1,
,,,,,,,,,,,,,,,,,,58cefdb030c4cf0001ceb3ac,2020-11-27_10h04.05.045,lexical_decision_task_MP_exp2,2020.2.5,Win32,60,m,1,0.65128,,,,,,,,0.65128,1,,,,,,136,WORD,"ID",16,bleach,BLEACH,m,,,,,,0.474166667,-0.3675,0,0,0,,0,361,361,75,1,
,,,,,,,,,,,,,,,,,,58cefdb030c4cf0001ceb3ac,2020-11-27_10h04.05.045,lexical_decision_task_MP_exp2,2020.2.5,Win32,60,z,1,0.624865,,,,,,,,0.624865,1,,,,,,309,NW,"ID",33,amiloy,AMILOY,z,,,,,,0.474166667,-0.3675,0,0,0,space,0,362,362,248,1,16.09576
,,,,,,,,,,,,,,,,,,58cefdb030c4cf0001ceb3ac,2020-11-27_10h04.05.045,lexical_decision_task_MP_exp2,2020.2.5,Win32,60,m,1,0.69551,,,,,,,,0.69551,1,,,,,,68,WORD,"ID",33,fumble,FUMBLE,m,,,,,,0.474166667,-0.3675,0,0,0,,0,363,363,7,1,
,,,,,,,,,,,,,,,,,,58cefdb030c4cf0001ceb3ac,2020-11-27_10h04.05.045,lexical_decision_task_MP_exp2,2020.2.5,Win32,60,m,1,0.62848,,,,,,,,0.62848,1,,,,,,170,WORD,"ID",16,pounce,POUNCE,m,,,,,,0.474166667,-0.3675,0,0,0,,0,364,364,109,1,
,,,,,,,,,,,,,,,,,,58cefdb030c4cf0001ceb3ac,2020-11-27_10h04.05.045,lexical_decision_task_MP_exp2,2020.2.5,Win32,60,z,1,0.78815,,,,,,,,0.78815,1,,,,,,286,NW,UN,16,nymbel,RELDON,z,,,,,,0.474166667,-0.3675,0,0,0,,0,365,365,465,1,
,,,,,,,,,,,,,,,,,,58cefdb030c4cf0001ceb3ac,2020-11-27_10h04.05.045,lexical_decision_task_MP_exp2,2020.2.5,Win32,60,m,1,0.64434,,,,,,,,0.64434,1,,,,,,24,WORD,UN,16,domain,PRAISE,m,,,,,,0.474166667,-0.3675,0,0,0,,0,366,366,203,1,
,,,,,,,,,,,,,,,,,,58cefdb030c4cf0001ceb3ac,2020-11-27_10h04.05.045,lexical_decision_task_MP_exp2,2020.2.5,Win32,60,z,1,0.69155,,,,,,,,0.69155,1,,,,,,369,NW,"ID",16,wronch,WRONCH,z,,,,,,0.474166667,-0.3675,0,0,0,,0,367,367,308,1,
,,,,,,,,,,,,,,,,,,58cefdb030c4cf0001ceb3ac,2020-11-27_10h04.05.045,lexical_decision_task_MP_exp2,2020.2.5,Win32,60,m,1,0.625335,,,,,,,,0.625335,1,,,,,,203,WORD,UN,33,burden,PHRASE,m,,,,,,0.474166667,-0.3675,0,0,0,,0,368,368,142,1,
,,,,,,,,,,,,,,,,,,58cefdb030c4cf0001ceb3ac,2020-11-27_10h04.05.045,lexical_decision_task_MP_exp2,2020.2.5,Win32,60,m,1,0.56111,,,,,,,,0.56111,1,,,,,,102,WORD,"ID",33,direct,DIRECT,m,,,,,,0.474166667,-0.3675,0,0,0,,0,369,369,41,1,
,,,,,,,,,,,,,,,,,,58cefdb030c4cf0001ceb3ac,2020-11-27_10h04.05.045,lexical_decision_task_MP_exp2,2020.2.5,Win32,60,m,1,0.64361,,,,,,,,0.64361,1,,,,,,29,WORD,UN,16,orient,SKETCH,m,,,,,,0.474166667,-0.3675,0,0,0,,0,370,370,208,1,
,,,,,,,,,,,,,,,,,,58cefdb030c4cf0001ceb3ac,2020-11-27_10h04.05.045,lexical_decision_task_MP_exp2,2020.2.5,Win32,60,m,1,0.65271,,,,,,,,0.65271,1,,,,,,76,WORD,"ID",33,exotic,EXOTIC,m,,,,,,0.474166667,-0.3675,0,0,0,,0,371,371,15,1,
,,,,,,,,,,,,,,,,,,58cefdb030c4cf0001ceb3ac,2020-11-27_10h04.05.045,lexical_decision_task_MP_exp2,2020.2.5,Win32,60,z,1,0.65701,,,,,,,,0.65701,1,,,,,,299,NW,UN,16,yarion,STURCH,z,,,,,,0.474166667,-0.3675,0,0,0,,0,372,372,478,1,
,,,,,,,,,,,,,,,,,,58cefdb030c4cf0001ceb3ac,2020-11-27_10h04.05.045,lexical_decision_task_MP_exp2,2020.2.5,Win32,60,z,1,0.80743,,,,,,,,0.80743,1,,,,,,324,NW,"ID",33,steikh,STEIKH,z,,,,,,0.474166667,-0.3675,0,0,0,,0,373,373,263,1,
,,,,,,,,,,,,,,,,,,58cefdb030c4cf0001ceb3ac,2020-11-27_10h04.05.045,lexical_decision_task_MP_exp2,2020.2.5,Win32,60,m,1,0.919615,,,,,,,,0.919615,1,,,,,,62,WORD,"ID",33,region,REGION,m,,,,,,0.474166667,-0.3675,0,0,0,,0,374,374,1,1,
,,,,,,,,,,,,,,,,,,58cefdb030c4cf0001ceb3ac,2020-11-27_10h04.05.045,lexical_decision_task_MP_exp2,2020.2.5,Win32,60,z,1,0.684845,,,,,,,,0.684845,1,,,,,,244,NW,UN,16,anougs,EATRIC,z,,,,,,0.474166667,-0.3675,0,0,0,,0,375,375,423,1,
,,,,,,,,,,,,,,,,,,58cefdb030c4cf0001ceb3ac,2020-11-27_10h04.05.045,lexical_decision_task_MP_exp2,2020.2.5,Win32,60,z,1,0.6515,,,,,,,,0.6515,1,,,,,,409,NW,"ID",16,elopia,ELOPIA,z,,,,,,0.474166667,-0.3675,0,0,0,,0,376,376,348,1,
,,,,,,,,,,,,,,,,,,58cefdb030c4cf0001ceb3ac,2020-11-27_10h04.05.045,lexical_decision_task_MP_exp2,2020.2.5,Win32,60,m,1,0.67047,,,,,,,,0.67047,1,,,,,,220,WORD,UN,33,mascot,VOYAGE,m,,,,,,0.474166667,-0.3675,0,0,0,,0,377,377,159,1,
,,,,,,,,,,,,,,,,,,58cefdb030c4cf0001ceb3ac,2020-11-27_10h04.05.045,lexical_decision_task_MP_exp2,2020.2.5,Win32,60,z,0,0.723765,,,,,,,,0.723765,0,,,,,,166,WORD,"ID",16,starch,STARCH,m,,,,,,0.474166667,-0.3675,0,0,0,,0,378,378,105,1,
,,,,,,,,,,,,,,,,,,58cefdb030c4cf0001ceb3ac,2020-11-27_10h04.05.045,lexical_decision_task_MP_exp2,2020.2.5,Win32,60,m,1,1.134975,,,,,,,,1.134975,1,,,,,,65,WORD,"ID",33,symbol,SYMBOL,m,,,,,,0.474166667,-0.3675,0,0,0,,0,379,379,4,1,
,,,,,,,,,,,,,,,,,,58cefdb030c4cf0001ceb3ac,2020-11-27_10h04.05.045,lexical_decision_task_MP_exp2,2020.2.5,Win32,60,m,1,0.734815,,,,,,,,0.734815,1,,,,,,195,WORD,UN,33,credit,RESIGN,m,,,,,,0.474166667,-0.3675,0,0,0,,0,380,380,134,1,
,,,,,,,,,,,,,,,,,,58cefdb030c4cf0001ceb3ac,2020-11-27_10h04.05.045,lexical_decision_task_MP_exp2,2020.2.5,Win32,60,z,1,0.724745,,,,,,,,0.724745,1,,,,,,351,NW,"ID",33,tiesch,TIESCH,z,,,,,,0.474166667,-0.3675,0,0,0,,0,381,381,290,1,
,,,,,,,,,,,,,,,,,,58cefdb030c4cf0001ceb3ac,2020-11-27_10h04.05.045,lexical_decision_task_MP_exp2,2020.2.5,Win32,60,z,1,0.7211,,,,,,,,0.7211,1,,,,,,434,NW,UN,33,impurb,PITROM,z,,,,,,0.474166667,-0.3675,0,0,0,,0,382,382,373,1,
,,,,,,,,,,,,,,,,,,58cefdb030c4cf0001ceb3ac,2020-11-27_10h04.05.045,lexical_decision_task_MP_exp2,2020.2.5,Win32,60,m,1,0.805015,,,,,,,,0.805015,1,,,,,,99,WORD,"ID",33,fluent,FLUENT,m,,,,,,0.474166667,-0.3675,0,0,0,,0,383,383,38,1,
,,,,,,,,,,,,,,,,,,58cefdb030c4cf0001ceb3ac,2020-11-27_10h04.05.045,lexical_decision_task_MP_exp2,2020.2.5,Win32,60,m,1,0.637185,,,,,,,,0.637185,1,,,,,,14,WORD,UN,16,orange,ALMOST,m,,,,,,0.474166667,-0.3675,0,0,0,,0,384,384,193,1,
,,,,,,,,,,,,,,,,,,58cefdb030c4cf0001ceb3ac,2020-11-27_10h04.05.045,lexical_decision_task_MP_exp2,2020.2.5,Win32,60,m,1,0.88491,,,,,,,,0.88491,1,,,,,,133,WORD,"ID",16,chrome,CHROME,m,,,,,,0.474166667,-0.3675,0,0,0,,0,385,385,72,1,
,,,,,,,,,,,,,,,,,,58cefdb030c4cf0001ceb3ac,2020-11-27_10h04.05.045,lexical_decision_task_MP_exp2,2020.2.5,Win32,60,z,1,0.70118,,,,,,,,0.70118,1,,,,,,300,NW,UN,16,smenco,YARION,z,,,,,,0.474166667,-0.3675,0,0,0,,0,386,386,479,1,
,,,,,,,,,,,,,,,,,,58cefdb030c4cf0001ceb3ac,2020-11-27_10h04.05.045,lexical_decision_task_MP_exp2,2020.2.5,Win32,60,m,1,1.051545,,,,,,,,1.051545,1,,,,,,26,WORD,UN,16,butler,SPRINT,m,,,,,,0.474166667,-0.3675,0,0,0,,0,387,387,205,1,
,,,,,,,,,,,,,,,,,,58cefdb030c4cf0001ceb3ac,2020-11-27_10h04.05.045,lexical_decision_task_MP_exp2,2020.2.5,Win32,60,m,1,0.58736,,,,,,,,0.58736,1,,,,,,144,WORD,"ID",16,sponge,SPONGE,m,,,,,,0.474166667,-0.3675,0,0,0,,0,388,388,83,1,
,,,,,,,,,,,,,,,,,,58cefdb030c4cf0001ceb3ac,2020-11-27_10h04.05.045,lexical_decision_task_MP_exp2,2020.2.5,Win32,60,z,1,0.801475,,,,,,,,0.801475,1,,,,,,429,NW,UN,33,caroey,FUNTLE,z,,,,,,0.474166667,-0.3675,0,0,0,,0,389,389,368,1,
,,,,,,,,,,,,,,,,,,58cefdb030c4cf0001ceb3ac,2020-11-27_10h04.05.045,lexical_decision_task_MP_exp2,2020.2.5,Win32,60,z,1,0.73356,,,,,,,,0.73356,1,,,,,,376,NW,"ID",16,iguare,IGUARE,z,,,,,,0.474166667,-0.3675,0,0,0,,0,390,390,315,1,
,,,,,,,,,,,,,,,,,,58cefdb030c4cf0001ceb3ac,2020-11-27_10h04.05.045,lexical_decision_task_MP_exp2,2020.2.5,Win32,60,m,1,0.63918,,,,,,,,0.63918,1,,,,,,94,WORD,"ID",33,travel,TRAVEL,m,,,,,,0.474166667,-0.3675,0,0,0,,0,391,391,33,1,
,,,,,,,,,,,,,,,,,,58cefdb030c4cf0001ceb3ac,2020-11-27_10h04.05.045,lexical_decision_task_MP_exp2,2020.2.5,Win32,60,m,1,0.70984,,,,,,,,0.70984,1,,,,,,165,WORD,"ID",16,invest,INVEST,m,,,,,,0.474166667,-0.3675,0,0,0,,0,392,392,104,1,
,,,,,,,,,,,,,,,,,,58cefdb030c4cf0001ceb3ac,2020-11-27_10h04.05.045,lexical_decision_task_MP_exp2,2020.2.5,Win32,60,z,1,0.707395,,,,,,,,0.707395,1,,,,,,257,NW,UN,16,poluth,VENIOD,z,,,,,,0.474166667,-0.3675,0,0,0,,0,393,393,436,1,
,,,,,,,,,,,,,,,,,,58cefdb030c4cf0001ceb3ac,2020-11-27_10h04.05.045,lexical_decision_task_MP_exp2,2020.2.5,Win32,60,z,1,0.69508,,,,,,,,0.69508,1,,,,,,427,NW,UN,33,tandly,SCHIND,z,,,,,,0.474166667,-0.3675,0,0,0,,0,394,394,366,1,
,,,,,,,,,,,,,,,,,,58cefdb030c4cf0001ceb3ac,2020-11-27_10h04.05.045,lexical_decision_task_MP_exp2,2020.2.5,Win32,60,m,1,0.620815,,,,,,,,0.620815,1,,,,,,110,WORD,"ID",33,polite,POLITE,m,,,,,,0.474166667,-0.3675,0,0,0,,0,395,395,49,1,
,,,,,,,,,,,,,,,,,,58cefdb030c4cf0001ceb3ac,2020-11-27_10h04.05.045,lexical_decision_task_MP_exp2,2020.2.5,Win32,60,z,1,0.7564,,,,,,,,0.7564,1,,,,,,386,NW,"ID",16,ancust,ANCUST,z,,,,,,0.474166667,-0.3675,0,0,0,,0,396,396,325,1,
,,,,,,,,,,,,,,,,,,58cefdb030c4cf0001ceb3ac,2020-11-27_10h04.05.045,lexical_decision_task_MP_exp2,2020.2.5,Win32,60,m,1,0.918195,,,,,,,,0.918195,1,,,,,,225,WORD,UN,33,casino,VULGAR,m,,,,,,0.474166667,-0.3675,0,0,0,,0,397,397,164,1,
,,,,,,,,,,,,,,,,,,58cefdb030c4cf0001ceb3ac,2020-11-27_10h04.05.045,lexical_decision_task_MP_exp2,2020.2.5,Win32,60,m,1,0.88971,,,,,,,,0.88971,1,,,,,,137,WORD,"ID",16,finger,FINGER,m,,,,,,0.474166667,-0.3675,0,0,0,,0,398,398,76,1,
,,,,,,,,,,,,,,,,,,58cefdb030c4cf0001ceb3ac,2020-11-27_10h04.05.045,lexical_decision_task_MP_exp2,2020.2.5,Win32,60,z,1,0.650445,,,,,,,,0.650445,1,,,,,,395,NW,"ID",16,colury,COLURY,z,,,,,,0.474166667,-0.3675,0,0,0,,0,399,399,334,1,
,,,,,,,,,,,,,,,,,,58cefdb030c4cf0001ceb3ac,2020-11-27_10h04.05.045,lexical_decision_task_MP_exp2,2020.2.5,Win32,60,z,1,0.71765,,,,,,,,0.71765,1,,,,,,294,NW,UN,16,gleath,INHORT,z,,,,,,0.474166667,-0.3675,0,0,0,,0,400,400,473,1,
,,,,,,,,,,,,,,,,,,58cefdb030c4cf0001ceb3ac,2020-11-27_10h04.05.045,lexical_decision_task_MP_exp2,2020.2.5,Win32,60,z,1,0.80931,,,,,,,,0.80931,1,,,,,,424,NW,UN,33,frudge,PRAILE,z,,,,,,0.474166667,-0.3675,0,0,0,,0,401,401,363,1,
,,,,,,,,,,,,,,,,,,58cefdb030c4cf0001ceb3ac,2020-11-27_10h04.05.045,lexical_decision_task_MP_exp2,2020.2.5,Win32,60,m,1,0.746955,,,,,,,,0.746955,1,,,,,,108,WORD,"ID",33,reckon,RECKON,m,,,,,,0.474166667,-0.3675,0,0,0,,0,402,402,47,1,
,,,,,,,,,,,,,,,,,,58cefdb030c4cf0001ceb3ac,2020-11-27_10h04.05.045,lexical_decision_task_MP_exp2,2020.2.5,Win32,60,z,1,0.636165,,,,,,,,0.636165,1,,,,,,263,NW,UN,16,vackel,DOLICA,z,,,,,,0.474166667,-0.3675,0,0,0,,0,403,403,442,1,
