counterbalancing_condition,instr_done_keyboard.keys,instr_done_touch.x,instr_done_touch.y,instr_done_touch.leftButton,instr_done_touch.midButton,instr_done_touch.rightButton,instr_done_touch.clicked_name,instruction_pages.thisRepN,instruction_pages.thisTrialN,instruction_pages.thisN,instruction_pages.thisIndex,instruction_pages.ran,pageN,phase,instruct_text,has_image,instruct_image,participant,date,expName,psychopyVersion,OS,frameRate,instr_done_keyboard.rt,response.keys,response.corr,response.rt,touch_resp.x,touch_resp.y,touch_resp.leftButton,touch_resp.midButton,touch_resp.rightButton,touch_resp.time,touch_resp.clicked_name,rt,corr,practice_trials.thisRepN,practice_trials.thisTrialN,practice_trials.thisN,practice_trials.thisIndex,practice_trials.ran,TrialID,StimulusType,Condition,PrimeDuration,Prime,Target,corrAns,end_of_practice_trials_pages.thisRepN,end_of_practice_trials_pages.thisTrialN,end_of_practice_trials_pages.thisN,end_of_practice_trials_pages.thisIndex,end_of_practice_trials_pages.ran,break_done_touch.x,break_done_touch.y,break_done_touch.leftButton,break_done_touch.midButton,break_done_touch.rightButton,break_done_keyboard.keys,experiment_trials.thisRepN,experiment_trials.thisTrialN,experiment_trials.thisN,experiment_trials.thisIndex,experiment_trials.ran,break_done_keyboard.rt
2,,0.144706885,-0.386003097,1,0,0,instr_done_button,0,0,0,0,1,1,instructions,"INSTRUCTIONS
At the start of each trial, look at the hash marks (######) in the center of the screen. After a moment, a string of letters will appear. Your task is to indicate if the letter string forms a word or not (i.e., if it is a nonword). For example, AUTHOR is a word while AUTHON is a nonword.

Press the space bar or touch the button below to continue.",0,,594a8e2eeaa18e000163f6cd,2020-11-26_15h57.06.984,lexical_decision_task_MP_exp2,2020.2.5,Linux x86_64,60,,,,,,,,,,,,,,,,,,,,,,,,,,,,,,,,,,,,,,,,,,
,space,0.144706885,-0.386003097,0,0,0,,0,1,1,1,1,2,instructions,"If your device has a keyboard, press the 'Z' key for nonwords and the 'M' key for words.





Press the space bar or touch the button below to continue.",1,keyboard-example.gif,594a8e2eeaa18e000163f6cd,2020-11-26_15h57.06.984,lexical_decision_task_MP_exp2,2020.2.5,Linux x86_64,60,7.19862,,,,,,,,,,,,,,,,,,,,,,,,,,,,,,,,,,,,,,,,,
,space,0.144706885,-0.386003097,0,0,0,,0,2,2,2,1,3,instructions,"If you are using a touchscreen only device, use the buttons on the screen. Do not use the mouse.





Press the space bar or touch the button below to continue.",1,touchscreen-example.gif,594a8e2eeaa18e000163f6cd,2020-11-26_15h57.06.984,lexical_decision_task_MP_exp2,2020.2.5,Linux x86_64,60,5.50082,,,,,,,,,,,,,,,,,,,,,,,,,,,,,,,,,,,,,,,,,
,space,0.144706885,-0.386003097,0,0,0,,0,3,3,3,1,4,instructions,"It is very important that you respond as quickly and accurately as possible, as each letter string will only be on the screen for two seconds. If you do not respond within this time, the message 'Too slow!' will be displayed and the experiment will progress to the next letter string. The first 20 trials will be practice trials and you will receive feedback on your answers. 

Press the space bar or touch the button below to start the practice trials.",0,,594a8e2eeaa18e000163f6cd,2020-11-26_15h57.06.984,lexical_decision_task_MP_exp2,2020.2.5,Linux x86_64,60,5.15691,,,,,,,,,,,,,,,,,,,,,,,,,,,,,,,,,,,,,,,,,
,,,,,,,,,,,,,,,,,,594a8e2eeaa18e000163f6cd,2020-11-26_15h57.06.984,lexical_decision_task_MP_exp2,2020.2.5,Linux x86_64,60,,m,1,1.709205,,,,,,,,1.709205,1,0,0,0,2,1,1003,WORD,"ID",16,almond,ALMOND,m,,,,,,,,,,,,,,,,,
,,,,,,,,,,,,,,,,,,594a8e2eeaa18e000163f6cd,2020-11-26_15h57.06.984,lexical_decision_task_MP_exp2,2020.2.5,Linux x86_64,60,,z,1,0.81817,,,,,,,,0.81817,1,0,1,1,9,1,1010,NW,"ID",33,fariny,FARINY,z,,,,,,,,,,,,,,,,,
,,,,,,,,,,,,,,,,,,594a8e2eeaa18e000163f6cd,2020-11-26_15h57.06.984,lexical_decision_task_MP_exp2,2020.2.5,Linux x86_64,60,,m,1,0.56314,,,,,,,,0.56314,1,0,2,2,5,1,1006,WORD,UN,33,frenzy,OBTAIN,m,,,,,,,,,,,,,,,,,
,,,,,,,,,,,,,,,,,,594a8e2eeaa18e000163f6cd,2020-11-26_15h57.06.984,lexical_decision_task_MP_exp2,2020.2.5,Linux x86_64,60,,m,0,0.64845,,,,,,,,0.64845,0,0,3,3,14,1,1015,NW,UN,16,miaber,THRALE,z,,,,,,,,,,,,,,,,,
,,,,,,,,,,,,,,,,,,594a8e2eeaa18e000163f6cd,2020-11-26_15h57.06.984,lexical_decision_task_MP_exp2,2020.2.5,Linux x86_64,60,,z,0,1.02992,,,,,,,,1.02992,0,0,4,4,3,1,1004,WORD,"ID",16,matrix,MATRIX,m,,,,,,,,,,,,,,,,,
,,,,,,,,,,,,,,,,,,594a8e2eeaa18e000163f6cd,2020-11-26_15h57.06.984,lexical_decision_task_MP_exp2,2020.2.5,Linux x86_64,60,,z,1,0.74672,,,,,,,,0.74672,1,0,5,5,8,1,1009,NW,"ID",33,aslert,ASLERT,z,,,,,,,,,,,,,,,,,
,,,,,,,,,,,,,,,,,,594a8e2eeaa18e000163f6cd,2020-11-26_15h57.06.984,lexical_decision_task_MP_exp2,2020.2.5,Linux x86_64,60,,z,0,0.977425,,,,,,,,0.977425,0,0,6,6,6,1,1007,WORD,UN,16,tropic,ZOMBIE,m,,,,,,,,,,,,,,,,,
,,,,,,,,,,,,,,,,,,594a8e2eeaa18e000163f6cd,2020-11-26_15h57.06.984,lexical_decision_task_MP_exp2,2020.2.5,Linux x86_64,60,,z,1,0.731105,,,,,,,,0.731105,1,0,7,7,11,1,1012,NW,"ID",16,rashet,RASHET,z,,,,,,,,,,,,,,,,,
,,,,,,,,,,,,,,,,,,594a8e2eeaa18e000163f6cd,2020-11-26_15h57.06.984,lexical_decision_task_MP_exp2,2020.2.5,Linux x86_64,60,,z,1,0.80527,,,,,,,,0.80527,1,0,8,8,10,1,1011,NW,"ID",16,inlade,INLADE,z,,,,,,,,,,,,,,,,,
,,,,,,,,,,,,,,,,,,594a8e2eeaa18e000163f6cd,2020-11-26_15h57.06.984,lexical_decision_task_MP_exp2,2020.2.5,Linux x86_64,60,,m,1,0.58034,,,,,,,,0.58034,1,0,9,9,4,1,1005,WORD,UN,33,abound,SQUEAK,m,,,,,,,,,,,,,,,,,
,,,,,,,,,,,,,,,,,,594a8e2eeaa18e000163f6cd,2020-11-26_15h57.06.984,lexical_decision_task_MP_exp2,2020.2.5,Linux x86_64,60,,z,1,0.782315,,,,,,,,0.782315,1,0,10,10,13,1,1014,NW,UN,33,winfer,ROUPET,z,,,,,,,,,,,,,,,,,
,,,,,,,,,,,,,,,,,,594a8e2eeaa18e000163f6cd,2020-11-26_15h57.06.984,lexical_decision_task_MP_exp2,2020.2.5,Linux x86_64,60,,m,1,0.62825,,,,,,,,0.62825,1,0,11,11,7,1,1008,WORD,UN,16,hurdle,VOLUME,m,,,,,,,,,,,,,,,,,
,,,,,,,,,,,,,,,,,,594a8e2eeaa18e000163f6cd,2020-11-26_15h57.06.984,lexical_decision_task_MP_exp2,2020.2.5,Linux x86_64,60,,z,1,0.69942,,,,,,,,0.69942,1,0,12,12,15,1,1016,NW,UN,16,mushed,WHAISE,z,,,,,,,,,,,,,,,,,
,,,,,,,,,,,,,,,,,,594a8e2eeaa18e000163f6cd,2020-11-26_15h57.06.984,lexical_decision_task_MP_exp2,2020.2.5,Linux x86_64,60,,z,0,0.880905,,,,,,,,0.880905,0,0,13,13,0,1,1001,WORD,"ID",33,utopia,UTOPIA,m,,,,,,,,,,,,,,,,,
,,,,,,,,,,,,,,,,,,594a8e2eeaa18e000163f6cd,2020-11-26_15h57.06.984,lexical_decision_task_MP_exp2,2020.2.5,Linux x86_64,60,,z,1,0.995435,,,,,,,,0.995435,1,0,14,14,12,1,1013,NW,UN,33,adveil,SPRINY,z,,,,,,,,,,,,,,,,,
,,,,,,,,,,,,,,,,,,594a8e2eeaa18e000163f6cd,2020-11-26_15h57.06.984,lexical_decision_task_MP_exp2,2020.2.5,Linux x86_64,60,,m,1,0.58124,,,,,,,,0.58124,1,0,15,15,1,1,1002,WORD,"ID",33,adjust,ADJUST,m,,,,,,,,,,,,,,,,,
,space,0.144706885,-0.386003097,0,0,0,,,,,,,1,end_of_practice,"You have completed the practice trials. During the experimental trials, you will not receive feedback, but it is very important that you respond as quickly and accurately as possible. 
Before you begin, please ensure that you are in a comfortable and quiet location and will not be disturbed for about 15 minutes, as we cannot use your data if you do not complete all the trials. 
There will be opportunities to take breaks at regular intervals during the experiment. When you are ready to start the experimental trials, please press space or touch the button below.",,,594a8e2eeaa18e000163f6cd,2020-11-26_15h57.06.984,lexical_decision_task_MP_exp2,2020.2.5,Linux x86_64,60,4.57382,,,,,,,,,,,,,,,,,,,,,,,,,0,0,0,0,1,,,,,,,,,,,,
,,,,,,,,,,,,,,,,,,594a8e2eeaa18e000163f6cd,2020-11-26_15h57.06.984,lexical_decision_task_MP_exp2,2020.2.5,Linux x86_64,60,,m,0,0.76102,,,,,,,,0.76102,0,,,,,,382,NW,"ID",16,sarley,SARLEY,z,,,,,,0.144706885,-0.386003097,0,0,0,,0,0,0,321,1,
,,,,,,,,,,,,,,,,,,594a8e2eeaa18e000163f6cd,2020-11-26_15h57.06.984,lexical_decision_task_MP_exp2,2020.2.5,Linux x86_64,60,,m,1,0.849775,,,,,,,,0.849775,1,,,,,,131,WORD,"ID",16,quench,QUENCH,m,,,,,,0.144706885,-0.386003097,0,0,0,,0,1,1,70,1,
,,,,,,,,,,,,,,,,,,594a8e2eeaa18e000163f6cd,2020-11-26_15h57.06.984,lexical_decision_task_MP_exp2,2020.2.5,Linux x86_64,60,,z,1,0.60152,,,,,,,,0.60152,1,,,,,,426,NW,UN,33,schind,URIVEL,z,,,,,,0.144706885,-0.386003097,0,0,0,,0,2,2,365,1,
,,,,,,,,,,,,,,,,,,594a8e2eeaa18e000163f6cd,2020-11-26_15h57.06.984,lexical_decision_task_MP_exp2,2020.2.5,Linux x86_64,60,,m,1,0.74937,,,,,,,,0.74937,1,,,,,,226,WORD,UN,33,flower,CASINO,m,,,,,,0.144706885,-0.386003097,0,0,0,,0,3,3,165,1,
,,,,,,,,,,,,,,,,,,594a8e2eeaa18e000163f6cd,2020-11-26_15h57.06.984,lexical_decision_task_MP_exp2,2020.2.5,Linux x86_64,60,,m,1,0.81129,,,,,,,,0.81129,1,,,,,,1,WORD,UN,16,ethnic,FRIGHT,m,,,,,,0.144706885,-0.386003097,0,0,0,,0,4,4,180,1,
,,,,,,,,,,,,,,,,,,594a8e2eeaa18e000163f6cd,2020-11-26_15h57.06.984,lexical_decision_task_MP_exp2,2020.2.5,Linux x86_64,60,,z,1,0.662815,,,,,,,,0.662815,1,,,,,,279,NW,UN,16,curbol,CELOND,z,,,,,,0.144706885,-0.386003097,0,0,0,,0,5,5,458,1,
,,,,,,,,,,,,,,,,,,594a8e2eeaa18e000163f6cd,2020-11-26_15h57.06.984,lexical_decision_task_MP_exp2,2020.2.5,Linux x86_64,60,,z,1,0.63424,,,,,,,,0.63424,1,,,,,,410,NW,"ID",16,tunory,TUNORY,z,,,,,,0.144706885,-0.386003097,0,0,0,,0,6,6,349,1,
,,,,,,,,,,,,,,,,,,594a8e2eeaa18e000163f6cd,2020-11-26_15h57.06.984,lexical_decision_task_MP_exp2,2020.2.5,Linux x86_64,60,,z,1,0.583285,,,,,,,,0.583285,1,,,,,,454,NW,UN,33,tondle,SCOUGE,z,,,,,,0.144706885,-0.386003097,0,0,0,,0,7,7,393,1,
,,,,,,,,,,,,,,,,,,594a8e2eeaa18e000163f6cd,2020-11-26_15h57.06.984,lexical_decision_task_MP_exp2,2020.2.5,Linux x86_64,60,,z,1,0.627365,,,,,,,,0.627365,1,,,,,,264,NW,UN,16,distar,VACKEL,z,,,,,,0.144706885,-0.386003097,0,0,0,,0,8,8,443,1,
,,,,,,,,,,,,,,,,,,594a8e2eeaa18e000163f6cd,2020-11-26_15h57.06.984,lexical_decision_task_MP_exp2,2020.2.5,Linux x86_64,60,,m,1,0.54841,,,,,,,,0.54841,1,,,,,,203,WORD,UN,33,burden,PHRASE,m,,,,,,0.144706885,-0.386003097,0,0,0,,0,9,9,142,1,
,,,,,,,,,,,,,,,,,,594a8e2eeaa18e000163f6cd,2020-11-26_15h57.06.984,lexical_decision_task_MP_exp2,2020.2.5,Linux x86_64,60,,z,1,0.628805,,,,,,,,0.628805,1,,,,,,443,NW,UN,33,jaunce,DORSEX,z,,,,,,0.144706885,-0.386003097,0,0,0,,0,10,10,382,1,
,,,,,,,,,,,,,,,,,,594a8e2eeaa18e000163f6cd,2020-11-26_15h57.06.984,lexical_decision_task_MP_exp2,2020.2.5,Linux x86_64,60,,m,1,0.64624,,,,,,,,0.64624,1,,,,,,160,WORD,"ID",16,violet,VIOLET,m,,,,,,0.144706885,-0.386003097,0,0,0,,0,11,11,99,1,
,,,,,,,,,,,,,,,,,,594a8e2eeaa18e000163f6cd,2020-11-26_15h57.06.984,lexical_decision_task_MP_exp2,2020.2.5,Linux x86_64,60,,m,1,0.665185,,,,,,,,0.665185,1,,,,,,101,WORD,"ID",33,wrench,WRENCH,m,,,,,,0.144706885,-0.386003097,0,0,0,,0,12,12,40,1,
,,,,,,,,,,,,,,,,,,594a8e2eeaa18e000163f6cd,2020-11-26_15h57.06.984,lexical_decision_task_MP_exp2,2020.2.5,Linux x86_64,60,,m,1,0.580165,,,,,,,,0.580165,1,,,,,,88,WORD,"ID",33,hunger,HUNGER,m,,,,,,0.144706885,-0.386003097,0,0,0,,0,13,13,27,1,
,,,,,,,,,,,,,,,,,,594a8e2eeaa18e000163f6cd,2020-11-26_15h57.06.984,lexical_decision_task_MP_exp2,2020.2.5,Linux x86_64,60,,m,1,0.710285,,,,,,,,0.710285,1,,,,,,125,WORD,"ID",16,nickel,NICKEL,m,,,,,,0.144706885,-0.386003097,0,0,0,,0,14,14,64,1,
,,,,,,,,,,,,,,,,,,594a8e2eeaa18e000163f6cd,2020-11-26_15h57.06.984,lexical_decision_task_MP_exp2,2020.2.5,Linux x86_64,60,,z,1,0.738805,,,,,,,,0.738805,1,,,,,,338,NW,"ID",33,wreash,WREASH,z,,,,,,0.144706885,-0.386003097,0,0,0,,0,15,15,277,1,
,,,,,,,,,,,,,,,,,,594a8e2eeaa18e000163f6cd,2020-11-26_15h57.06.984,lexical_decision_task_MP_exp2,2020.2.5,Linux x86_64,60,,m,1,0.832575,,,,,,,,0.832575,1,,,,,,27,WORD,UN,16,comedy,SCREAM,m,,,,,,0.144706885,-0.386003097,0,0,0,,0,16,16,206,1,
,,,,,,,,,,,,,,,,,,594a8e2eeaa18e000163f6cd,2020-11-26_15h57.06.984,lexical_decision_task_MP_exp2,2020.2.5,Linux x86_64,60,,m,1,0.67883,,,,,,,,0.67883,1,,,,,,33,WORD,UN,16,jungle,BUTLER,m,,,,,,0.144706885,-0.386003097,0,0,0,,0,17,17,212,1,
,,,,,,,,,,,,,,,,,,594a8e2eeaa18e000163f6cd,2020-11-26_15h57.06.984,lexical_decision_task_MP_exp2,2020.2.5,Linux x86_64,60,,z,1,0.84679,,,,,,,,0.84679,1,,,,,,386,NW,"ID",16,ancust,ANCUST,z,,,,,,0.144706885,-0.386003097,0,0,0,,0,18,18,325,1,
,,,,,,,,,,,,,,,,,,594a8e2eeaa18e000163f6cd,2020-11-26_15h57.06.984,lexical_decision_task_MP_exp2,2020.2.5,Linux x86_64,60,,m,1,0.69895,,,,,,,,0.69895,1,,,,,,191,WORD,UN,33,beacon,STABLE,m,,,,,,0.144706885,-0.386003097,0,0,0,,0,19,19,130,1,
,,,,,,,,,,,,,,,,,,594a8e2eeaa18e000163f6cd,2020-11-26_15h57.06.984,lexical_decision_task_MP_exp2,2020.2.5,Linux x86_64,60,,z,1,0.69697,,,,,,,,0.69697,1,,,,,,478,NW,UN,33,pebric,ACRISE,z,,,,,,0.144706885,-0.386003097,0,0,0,,0,20,20,417,1,
,,,,,,,,,,,,,,,,,,594a8e2eeaa18e000163f6cd,2020-11-26_15h57.06.984,lexical_decision_task_MP_exp2,2020.2.5,Linux x86_64,60,,z,1,0.827675,,,,,,,,0.827675,1,,,,,,355,NW,"ID",33,zingly,ZINGLY,z,,,,,,0.144706885,-0.386003097,0,0,0,,0,21,21,294,1,
,,,,,,,,,,,,,,,,,,594a8e2eeaa18e000163f6cd,2020-11-26_15h57.06.984,lexical_decision_task_MP_exp2,2020.2.5,Linux x86_64,60,,z,1,0.91843,,,,,,,,0.91843,1,,,,,,411,NW,"ID",16,orchin,ORCHIN,z,,,,,,0.144706885,-0.386003097,0,0,0,,0,22,22,350,1,
,,,,,,,,,,,,,,,,,,594a8e2eeaa18e000163f6cd,2020-11-26_15h57.06.984,lexical_decision_task_MP_exp2,2020.2.5,Linux x86_64,60,,z,1,0.66734,,,,,,,,0.66734,1,,,,,,307,NW,"ID",33,kirafe,KIRAFE,z,,,,,,0.144706885,-0.386003097,0,0,0,,0,23,23,246,1,
,,,,,,,,,,,,,,,,,,594a8e2eeaa18e000163f6cd,2020-11-26_15h57.06.984,lexical_decision_task_MP_exp2,2020.2.5,Linux x86_64,60,,m,1,0.644875,,,,,,,,0.644875,1,,,,,,70,WORD,"ID",33,square,SQUARE,m,,,,,,0.144706885,-0.386003097,0,0,0,,0,24,24,9,1,
,,,,,,,,,,,,,,,,,,594a8e2eeaa18e000163f6cd,2020-11-26_15h57.06.984,lexical_decision_task_MP_exp2,2020.2.5,Linux x86_64,60,,m,1,0.634565,,,,,,,,0.634565,1,,,,,,38,WORD,UN,16,insect,POWDER,m,,,,,,0.144706885,-0.386003097,0,0,0,,0,25,25,217,1,
,,,,,,,,,,,,,,,,,,594a8e2eeaa18e000163f6cd,2020-11-26_15h57.06.984,lexical_decision_task_MP_exp2,2020.2.5,Linux x86_64,60,,z,1,0.577965,,,,,,,,0.577965,1,,,,,,405,NW,"ID",16,flumni,FLUMNI,z,,,,,,0.144706885,-0.386003097,0,0,0,,0,26,26,344,1,
,,,,,,,,,,,,,,,,,,594a8e2eeaa18e000163f6cd,2020-11-26_15h57.06.984,lexical_decision_task_MP_exp2,2020.2.5,Linux x86_64,60,,m,1,0.63975,,,,,,,,0.63975,1,,,,,,237,WORD,UN,33,glance,POSTER,m,,,,,,0.144706885,-0.386003097,0,0,0,,0,27,27,176,1,
,,,,,,,,,,,,,,,,,,594a8e2eeaa18e000163f6cd,2020-11-26_15h57.06.984,lexical_decision_task_MP_exp2,2020.2.5,Linux x86_64,60,,z,1,0.68181,,,,,,,,0.68181,1,,,,,,353,NW,"ID",33,clurey,CLUREY,z,,,,,,0.144706885,-0.386003097,0,0,0,,0,28,28,292,1,
,,,,,,,,,,,,,,,,,,594a8e2eeaa18e000163f6cd,2020-11-26_15h57.06.984,lexical_decision_task_MP_exp2,2020.2.5,Linux x86_64,60,,m,1,0.88317,,,,,,,,0.88317,1,,,,,,84,WORD,"ID",33,mortal,MORTAL,m,,,,,,0.144706885,-0.386003097,0,0,0,,0,29,29,23,1,
,,,,,,,,,,,,,,,,,,594a8e2eeaa18e000163f6cd,2020-11-26_15h57.06.984,lexical_decision_task_MP_exp2,2020.2.5,Linux x86_64,60,,z,1,0.6979,,,,,,,,0.6979,1,,,,,,402,NW,"ID",16,syntic,SYNTIC,z,,,,,,0.144706885,-0.386003097,0,0,0,,0,30,30,341,1,
,,,,,,,,,,,,,,,,,,594a8e2eeaa18e000163f6cd,2020-11-26_15h57.06.984,lexical_decision_task_MP_exp2,2020.2.5,Linux x86_64,60,,z,1,0.76577,,,,,,,,0.76577,1,,,,,,459,NW,UN,33,mingar,BAFENT,z,,,,,,0.144706885,-0.386003097,0,0,0,,0,31,31,398,1,
,,,,,,,,,,,,,,,,,,594a8e2eeaa18e000163f6cd,2020-11-26_15h57.06.984,lexical_decision_task_MP_exp2,2020.2.5,Linux x86_64,60,,z,1,0.645235,,,,,,,,0.645235,1,,,,,,417,NW,"ID",16,earoud,EAROUD,z,,,,,,0.144706885,-0.386003097,0,0,0,,0,32,32,356,1,
,,,,,,,,,,,,,,,,,,594a8e2eeaa18e000163f6cd,2020-11-26_15h57.06.984,lexical_decision_task_MP_exp2,2020.2.5,Linux x86_64,60,,m,1,0.66357,,,,,,,,0.66357,1,,,,,,46,WORD,UN,16,income,SINGLE,m,,,,,,0.144706885,-0.386003097,0,0,0,,0,33,33,225,1,
,,,,,,,,,,,,,,,,,,594a8e2eeaa18e000163f6cd,2020-11-26_15h57.06.984,lexical_decision_task_MP_exp2,2020.2.5,Linux x86_64,60,,m,1,0.599005,,,,,,,,0.599005,1,,,,,,239,WORD,UN,33,forest,LUMBER,m,,,,,,0.144706885,-0.386003097,0,0,0,,0,34,34,178,1,
,,,,,,,,,,,,,,,,,,594a8e2eeaa18e000163f6cd,2020-11-26_15h57.06.984,lexical_decision_task_MP_exp2,2020.2.5,Linux x86_64,60,,z,1,0.67867,,,,,,,,0.67867,1,,,,,,438,NW,UN,33,limpor,BAITCH,z,,,,,,0.144706885,-0.386003097,0,0,0,,0,35,35,377,1,
,,,,,,,,,,,,,,,,,,594a8e2eeaa18e000163f6cd,2020-11-26_15h57.06.984,lexical_decision_task_MP_exp2,2020.2.5,Linux x86_64,60,,m,1,0.73025,,,,,,,,0.73025,1,,,,,,8,WORD,UN,16,hustle,ABRUPT,m,,,,,,0.144706885,-0.386003097,0,0,0,,0,36,36,187,1,
,,,,,,,,,,,,,,,,,,594a8e2eeaa18e000163f6cd,2020-11-26_15h57.06.984,lexical_decision_task_MP_exp2,2020.2.5,Linux x86_64,60,,m,1,0.68175,,,,,,,,0.68175,1,,,,,,116,WORD,"ID",33,tumble,TUMBLE,m,,,,,,0.144706885,-0.386003097,0,0,0,,0,37,37,55,1,
,,,,,,,,,,,,,,,,,,594a8e2eeaa18e000163f6cd,2020-11-26_15h57.06.984,lexical_decision_task_MP_exp2,2020.2.5,Linux x86_64,60,,m,1,0.650975,,,,,,,,0.650975,1,,,,,,24,WORD,UN,16,domain,PRAISE,m,,,,,,0.144706885,-0.386003097,0,0,0,,0,38,38,203,1,
,,,,,,,,,,,,,,,,,,594a8e2eeaa18e000163f6cd,2020-11-26_15h57.06.984,lexical_decision_task_MP_exp2,2020.2.5,Linux x86_64,60,,m,1,0.627185,,,,,,,,0.627185,1,,,,,,80,WORD,"ID",33,family,FAMILY,m,,,,,,0.144706885,-0.386003097,0,0,0,,0,39,39,19,1,
,,,,,,,,,,,,,,,,,,594a8e2eeaa18e000163f6cd,2020-11-26_15h57.06.984,lexical_decision_task_MP_exp2,2020.2.5,Linux x86_64,60,,z,1,0.62913,,,,,,,,0.62913,1,,,,,,409,NW,"ID",16,elopia,ELOPIA,z,,,,,,0.144706885,-0.386003097,0,0,0,,0,40,40,348,1,
,,,,,,,,,,,,,,,,,,594a8e2eeaa18e000163f6cd,2020-11-26_15h57.06.984,lexical_decision_task_MP_exp2,2020.2.5,Linux x86_64,60,,m,1,0.62803,,,,,,,,0.62803,1,,,,,,128,WORD,"ID",16,senior,SENIOR,m,,,,,,0.144706885,-0.386003097,0,0,0,,0,41,41,67,1,
,,,,,,,,,,,,,,,,,,594a8e2eeaa18e000163f6cd,2020-11-26_15h57.06.984,lexical_decision_task_MP_exp2,2020.2.5,Linux x86_64,60,,m,1,0.566775,,,,,,,,0.566775,1,,,,,,69,WORD,"ID",33,plenty,PLENTY,m,,,,,,0.144706885,-0.386003097,0,0,0,,0,42,42,8,1,
,,,,,,,,,,,,,,,,,,594a8e2eeaa18e000163f6cd,2020-11-26_15h57.06.984,lexical_decision_task_MP_exp2,2020.2.5,Linux x86_64,60,,z,1,0.611525,,,,,,,,0.611525,1,,,,,,455,NW,UN,33,broget,TONDLE,z,,,,,,0.144706885,-0.386003097,0,0,0,,0,43,43,394,1,
,,,,,,,,,,,,,,,,,,594a8e2eeaa18e000163f6cd,2020-11-26_15h57.06.984,lexical_decision_task_MP_exp2,2020.2.5,Linux x86_64,60,,m,1,0.64768,,,,,,,,0.64768,1,,,,,,21,WORD,UN,16,jockey,SIMPLE,m,,,,,,0.144706885,-0.386003097,0,0,0,,0,44,44,200,1,
,,,,,,,,,,,,,,,,,,594a8e2eeaa18e000163f6cd,2020-11-26_15h57.06.984,lexical_decision_task_MP_exp2,2020.2.5,Linux x86_64,60,,m,1,0.498215,,,,,,,,0.498215,1,,,,,,117,WORD,"ID",33,branch,BRANCH,m,,,,,,0.144706885,-0.386003097,0,0,0,,0,45,45,56,1,
,,,,,,,,,,,,,,,,,,594a8e2eeaa18e000163f6cd,2020-11-26_15h57.06.984,lexical_decision_task_MP_exp2,2020.2.5,Linux x86_64,60,,m,1,0.567925,,,,,,,,0.567925,1,,,,,,133,WORD,"ID",16,chrome,CHROME,m,,,,,,0.144706885,-0.386003097,0,0,0,,0,46,46,72,1,
,,,,,,,,,,,,,,,,,,594a8e2eeaa18e000163f6cd,2020-11-26_15h57.06.984,lexical_decision_task_MP_exp2,2020.2.5,Linux x86_64,60,,z,1,0.69763,,,,,,,,0.69763,1,,,,,,248,NW,UN,16,batrol,STROLE,z,,,,,,0.144706885,-0.386003097,0,0,0,,0,47,47,427,1,
,,,,,,,,,,,,,,,,,,594a8e2eeaa18e000163f6cd,2020-11-26_15h57.06.984,lexical_decision_task_MP_exp2,2020.2.5,Linux x86_64,60,,z,1,0.652265,,,,,,,,0.652265,1,,,,,,387,NW,"ID",16,gronce,GRONCE,z,,,,,,0.144706885,-0.386003097,0,0,0,,0,48,48,326,1,
,,,,,,,,,,,,,,,,,,594a8e2eeaa18e000163f6cd,2020-11-26_15h57.06.984,lexical_decision_task_MP_exp2,2020.2.5,Linux x86_64,60,,m,1,0.615175,,,,,,,,0.615175,1,,,,,,161,WORD,"ID",16,pastor,PASTOR,m,,,,,,0.144706885,-0.386003097,0,0,0,,0,49,49,100,1,
,,,,,,,,,,,,,,,,,,594a8e2eeaa18e000163f6cd,2020-11-26_15h57.06.984,lexical_decision_task_MP_exp2,2020.2.5,Linux x86_64,60,,m,1,0.877595,,,,,,,,0.877595,1,,,,,,185,WORD,UN,33,portal,BOTHER,m,,,,,,0.144706885,-0.386003097,0,0,0,,0,50,50,124,1,
,,,,,,,,,,,,,,,,,,594a8e2eeaa18e000163f6cd,2020-11-26_15h57.06.984,lexical_decision_task_MP_exp2,2020.2.5,Linux x86_64,60,,z,1,0.64828,,,,,,,,0.64828,1,,,,,,319,NW,"ID",33,zomber,ZOMBER,z,,,,,,0.144706885,-0.386003097,0,0,0,,0,51,51,258,1,
,,,,,,,,,,,,,,,,,,594a8e2eeaa18e000163f6cd,2020-11-26_15h57.06.984,lexical_decision_task_MP_exp2,2020.2.5,Linux x86_64,60,,z,1,0.842715,,,,,,,,0.842715,1,,,,,,273,NW,UN,16,fumblo,SORTEL,z,,,,,,0.144706885,-0.386003097,0,0,0,,0,52,52,452,1,
,,,,,,,,,,,,,,,,,,594a8e2eeaa18e000163f6cd,2020-11-26_15h57.06.984,lexical_decision_task_MP_exp2,2020.2.5,Linux x86_64,60,,z,1,0.725025,,,,,,,,0.725025,1,,,,,,276,NW,UN,16,petain,YARMON,z,,,,,,0.144706885,-0.386003097,0,0,0,,0,53,53,455,1,
,,,,,,,,,,,,,,,,,,594a8e2eeaa18e000163f6cd,2020-11-26_15h57.06.984,lexical_decision_task_MP_exp2,2020.2.5,Linux x86_64,60,,z,1,0.548585,,,,,,,,0.548585,1,,,,,,301,NW,"ID",33,fainch,FAINCH,z,,,,,,0.144706885,-0.386003097,0,0,0,,0,54,54,240,1,
,,,,,,,,,,,,,,,,,,594a8e2eeaa18e000163f6cd,2020-11-26_15h57.06.984,lexical_decision_task_MP_exp2,2020.2.5,Linux x86_64,60,,z,0,0.548435,,,,,,,,0.548435,0,,,,,,106,WORD,"ID",33,ransom,RANSOM,m,,,,,,0.144706885,-0.386003097,0,0,0,,0,55,55,45,1,
,,,,,,,,,,,,,,,,,,594a8e2eeaa18e000163f6cd,2020-11-26_15h57.06.984,lexical_decision_task_MP_exp2,2020.2.5,Linux x86_64,60,,m,1,0.700195,,,,,,,,0.700195,1,,,,,,225,WORD,UN,33,casino,VULGAR,m,,,,,,0.144706885,-0.386003097,0,0,0,,0,56,56,164,1,
,,,,,,,,,,,,,,,,,,594a8e2eeaa18e000163f6cd,2020-11-26_15h57.06.984,lexical_decision_task_MP_exp2,2020.2.5,Linux x86_64,60,,m,1,0.716355,,,,,,,,0.716355,1,,,,,,92,WORD,"ID",33,strand,STRAND,m,,,,,,0.144706885,-0.386003097,0,0,0,,0,57,57,31,1,
,,,,,,,,,,,,,,,,,,594a8e2eeaa18e000163f6cd,2020-11-26_15h57.06.984,lexical_decision_task_MP_exp2,2020.2.5,Linux x86_64,60,,z,1,0.64541,,,,,,,,0.64541,1,,,,,,352,NW,"ID",33,tringe,TRINGE,z,,,,,,0.144706885,-0.386003097,0,0,0,,0,58,58,291,1,
,,,,,,,,,,,,,,,,,,594a8e2eeaa18e000163f6cd,2020-11-26_15h57.06.984,lexical_decision_task_MP_exp2,2020.2.5,Linux x86_64,60,,z,1,0.782145,,,,,,,,0.782145,1,,,,,,254,NW,UN,16,apight,VAROSH,z,,,,,,0.144706885,-0.386003097,0,0,0,,0,59,59,433,1,
,,,,,,,,,,,,,,,,,,594a8e2eeaa18e000163f6cd,2020-11-26_15h57.06.984,lexical_decision_task_MP_exp2,2020.2.5,Linux x86_64,60,,m,1,0.64862,,,,,,,,0.64862,1,,,,,,91,WORD,"ID",33,expand,EXPAND,m,,,,,,0.144706885,-0.386003097,0,0,0,,0,60,60,30,1,
,,,,,,,,,,,,,,,,,,594a8e2eeaa18e000163f6cd,2020-11-26_15h57.06.984,lexical_decision_task_MP_exp2,2020.2.5,Linux x86_64,60,,z,1,0.58209,,,,,,,,0.58209,1,,,,,,480,NW,UN,33,knisma,ROBULY,z,,,,,,0.144706885,-0.386003097,0,0,0,,0,61,61,419,1,
,,,,,,,,,,,,,,,,,,594a8e2eeaa18e000163f6cd,2020-11-26_15h57.06.984,lexical_decision_task_MP_exp2,2020.2.5,Linux x86_64,60,,z,1,0.630575,,,,,,,,0.630575,1,,,,,,446,NW,UN,33,gircue,RUNAMO,z,,,,,,0.144706885,-0.386003097,0,0,0,,0,62,62,385,1,
,,,,,,,,,,,,,,,,,,594a8e2eeaa18e000163f6cd,2020-11-26_15h57.06.984,lexical_decision_task_MP_exp2,2020.2.5,Linux x86_64,60,,m,1,0.73201,,,,,,,,0.73201,1,,,,,,48,WORD,UN,16,survey,WALNUT,m,,,,,,0.144706885,-0.386003097,0,0,0,,0,63,63,227,1,
,,,,,,,,,,,,,,,,,,594a8e2eeaa18e000163f6cd,2020-11-26_15h57.06.984,lexical_decision_task_MP_exp2,2020.2.5,Linux x86_64,60,,m,1,0.83136,,,,,,,,0.83136,1,,,,,,163,WORD,"ID",16,string,STRING,m,,,,,,0.144706885,-0.386003097,0,0,0,,0,64,64,102,1,
,,,,,,,,,,,,,,,,,,594a8e2eeaa18e000163f6cd,2020-11-26_15h57.06.984,lexical_decision_task_MP_exp2,2020.2.5,Linux x86_64,60,,z,1,0.65247,,,,,,,,0.65247,1,,,,,,272,NW,UN,16,sortel,DAMILT,z,,,,,,0.144706885,-0.386003097,0,0,0,,0,65,65,451,1,
,,,,,,,,,,,,,,,,,,594a8e2eeaa18e000163f6cd,2020-11-26_15h57.06.984,lexical_decision_task_MP_exp2,2020.2.5,Linux x86_64,60,,m,1,0.666,,,,,,,,0.666,1,,,,,,93,WORD,"ID",33,public,PUBLIC,m,,,,,,0.144706885,-0.386003097,0,0,0,,0,66,66,32,1,
,,,,,,,,,,,,,,,,,,594a8e2eeaa18e000163f6cd,2020-11-26_15h57.06.984,lexical_decision_task_MP_exp2,2020.2.5,Linux x86_64,60,,m,1,0.547835,,,,,,,,0.547835,1,,,,,,210,WORD,UN,33,infect,MONKEY,m,,,,,,0.144706885,-0.386003097,0,0,0,,0,67,67,149,1,
,,,,,,,,,,,,,,,,,,594a8e2eeaa18e000163f6cd,2020-11-26_15h57.06.984,lexical_decision_task_MP_exp2,2020.2.5,Linux x86_64,60,,m,1,0.61102,,,,,,,,0.61102,1,,,,,,126,WORD,"ID",16,enough,ENOUGH,m,,,,,,0.144706885,-0.386003097,0,0,0,,0,68,68,65,1,
,,,,,,,,,,,,,,,,,,594a8e2eeaa18e000163f6cd,2020-11-26_15h57.06.984,lexical_decision_task_MP_exp2,2020.2.5,Linux x86_64,60,,z,1,0.712735,,,,,,,,0.712735,1,,,,,,292,NW,UN,16,swance,ABLINT,z,,,,,,0.144706885,-0.386003097,0,0,0,,0,69,69,471,1,
,,,,,,,,,,,,,,,,,,594a8e2eeaa18e000163f6cd,2020-11-26_15h57.06.984,lexical_decision_task_MP_exp2,2020.2.5,Linux x86_64,60,,z,1,0.91652,,,,,,,,0.91652,1,,,,,,257,NW,UN,16,poluth,VENIOD,z,,,,,,0.144706885,-0.386003097,0,0,0,,0,70,70,436,1,
,,,,,,,,,,,,,,,,,,594a8e2eeaa18e000163f6cd,2020-11-26_15h57.06.984,lexical_decision_task_MP_exp2,2020.2.5,Linux x86_64,60,,z,1,0.662885,,,,,,,,0.662885,1,,,,,,328,NW,"ID",33,broake,BROAKE,z,,,,,,0.144706885,-0.386003097,0,0,0,,0,71,71,267,1,
,,,,,,,,,,,,,,,,,,594a8e2eeaa18e000163f6cd,2020-11-26_15h57.06.984,lexical_decision_task_MP_exp2,2020.2.5,Linux x86_64,60,,m,1,0.71597,,,,,,,,0.71597,1,,,,,,19,WORD,UN,16,breast,PATRON,m,,,,,,0.144706885,-0.386003097,0,0,0,,0,72,72,198,1,
,,,,,,,,,,,,,,,,,,594a8e2eeaa18e000163f6cd,2020-11-26_15h57.06.984,lexical_decision_task_MP_exp2,2020.2.5,Linux x86_64,60,,m,1,0.53577,,,,,,,,0.53577,1,,,,,,78,WORD,"ID",33,column,COLUMN,m,,,,,,0.144706885,-0.386003097,0,0,0,,0,73,73,17,1,
,,,,,,,,,,,,,,,,,,594a8e2eeaa18e000163f6cd,2020-11-26_15h57.06.984,lexical_decision_task_MP_exp2,2020.2.5,Linux x86_64,60,,m,1,0.50157,,,,,,,,0.50157,1,,,,,,219,WORD,UN,33,voyage,BUCKET,m,,,,,,0.144706885,-0.386003097,0,0,0,,0,74,74,158,1,
,,,,,,,,,,,,,,,,,,594a8e2eeaa18e000163f6cd,2020-11-26_15h57.06.984,lexical_decision_task_MP_exp2,2020.2.5,Linux x86_64,60,,m,1,0.52849,,,,,,,,0.52849,1,,,,,,130,WORD,"ID",16,stupid,STUPID,m,,,,,,0.144706885,-0.386003097,0,0,0,,0,75,75,69,1,
,,,,,,,,,,,,,,,,,,594a8e2eeaa18e000163f6cd,2020-11-26_15h57.06.984,lexical_decision_task_MP_exp2,2020.2.5,Linux x86_64,60,,m,1,0.486525,,,,,,,,0.486525,1,,,,,,72,WORD,"ID",33,bright,BRIGHT,m,,,,,,0.144706885,-0.386003097,0,0,0,,0,76,76,11,1,
,,,,,,,,,,,,,,,,,,594a8e2eeaa18e000163f6cd,2020-11-26_15h57.06.984,lexical_decision_task_MP_exp2,2020.2.5,Linux x86_64,60,,z,1,0.58203,,,,,,,,0.58203,1,,,,,,435,NW,UN,33,frutan,IMPURB,z,,,,,,0.144706885,-0.386003097,0,0,0,,0,77,77,374,1,
,,,,,,,,,,,,,,,,,,594a8e2eeaa18e000163f6cd,2020-11-26_15h57.06.984,lexical_decision_task_MP_exp2,2020.2.5,Linux x86_64,60,,z,1,0.6579,,,,,,,,0.6579,1,,,,,,251,NW,UN,16,stapod,LUPICT,z,,,,,,0.144706885,-0.386003097,0,0,0,,0,78,78,430,1,
,,,,,,,,,,,,,,,,,,594a8e2eeaa18e000163f6cd,2020-11-26_15h57.06.984,lexical_decision_task_MP_exp2,2020.2.5,Linux x86_64,60,,m,1,0.64844,,,,,,,,0.64844,1,,,,,,134,WORD,"ID",16,staple,STAPLE,m,,,,,,0.144706885,-0.386003097,0,0,0,,0,79,79,73,1,
,,,,,,,,,,,,,,,,,,594a8e2eeaa18e000163f6cd,2020-11-26_15h57.06.984,lexical_decision_task_MP_exp2,2020.2.5,Linux x86_64,60,,z,1,0.5625,,,,,,,,0.5625,1,,,,,,337,NW,"ID",33,rejols,REJOLS,z,,,,,,0.144706885,-0.386003097,0,0,0,,0,80,80,276,1,
,,,,,,,,,,,,,,,,,,594a8e2eeaa18e000163f6cd,2020-11-26_15h57.06.984,lexical_decision_task_MP_exp2,2020.2.5,Linux x86_64,60,,m,1,0.594275,,,,,,,,0.594275,1,,,,,,171,WORD,"ID",16,depart,DEPART,m,,,,,,0.144706885,-0.386003097,0,0,0,,0,81,81,110,1,
,,,,,,,,,,,,,,,,,,594a8e2eeaa18e000163f6cd,2020-11-26_15h57.06.984,lexical_decision_task_MP_exp2,2020.2.5,Linux x86_64,60,,z,1,0.554415,,,,,,,,0.554415,1,,,,,,447,NW,UN,33,sadent,GIRCUE,z,,,,,,0.144706885,-0.386003097,0,0,0,,0,82,82,386,1,
,,,,,,,,,,,,,,,,,,594a8e2eeaa18e000163f6cd,2020-11-26_15h57.06.984,lexical_decision_task_MP_exp2,2020.2.5,Linux x86_64,60,,m,1,0.68749,,,,,,,,0.68749,1,,,,,,147,WORD,"ID",16,garlic,GARLIC,m,,,,,,0.144706885,-0.386003097,0,0,0,,0,83,83,86,1,
,,,,,,,,,,,,,,,,,,594a8e2eeaa18e000163f6cd,2020-11-26_15h57.06.984,lexical_decision_task_MP_exp2,2020.2.5,Linux x86_64,60,,z,1,0.630135,,,,,,,,0.630135,1,,,,,,242,NW,UN,16,musied,UNWERT,z,,,,,,0.144706885,-0.386003097,0,0,0,,0,84,84,421,1,
,,,,,,,,,,,,,,,,,,594a8e2eeaa18e000163f6cd,2020-11-26_15h57.06.984,lexical_decision_task_MP_exp2,2020.2.5,Linux x86_64,60,,z,1,0.82755,,,,,,,,0.82755,1,,,,,,369,NW,"ID",16,wronch,WRONCH,z,,,,,,0.144706885,-0.386003097,0,0,0,,0,85,85,308,1,
,,,,,,,,,,,,,,,,,,594a8e2eeaa18e000163f6cd,2020-11-26_15h57.06.984,lexical_decision_task_MP_exp2,2020.2.5,Linux x86_64,60,,m,1,0.579425,,,,,,,,0.579425,1,,,,,,153,WORD,"ID",16,behold,BEHOLD,m,,,,,,0.144706885,-0.386003097,0,0,0,,0,86,86,92,1,
,,,,,,,,,,,,,,,,,,594a8e2eeaa18e000163f6cd,2020-11-26_15h57.06.984,lexical_decision_task_MP_exp2,2020.2.5,Linux x86_64,60,,m,1,0.6002,,,,,,,,0.6002,1,,,,,,127,WORD,"ID",16,castle,CASTLE,m,,,,,,0.144706885,-0.386003097,0,0,0,,0,87,87,66,1,
,,,,,,,,,,,,,,,,,,594a8e2eeaa18e000163f6cd,2020-11-26_15h57.06.984,lexical_decision_task_MP_exp2,2020.2.5,Linux x86_64,60,,m,1,0.59642,,,,,,,,0.59642,1,,,,,,230,WORD,UN,33,mother,FRINGE,m,,,,,,0.144706885,-0.386003097,0,0,0,,0,88,88,169,1,
,,,,,,,,,,,,,,,,,,594a8e2eeaa18e000163f6cd,2020-11-26_15h57.06.984,lexical_decision_task_MP_exp2,2020.2.5,Linux x86_64,60,,m,1,0.546125,,,,,,,,0.546125,1,,,,,,3,WORD,UN,16,trench,KNIGHT,m,,,,,,0.144706885,-0.386003097,0,0,0,,0,89,89,182,1,
,,,,,,,,,,,,,,,,,,594a8e2eeaa18e000163f6cd,2020-11-26_15h57.06.984,lexical_decision_task_MP_exp2,2020.2.5,Linux x86_64,60,,m,1,0.562305,,,,,,,,0.562305,1,,,,,,213,WORD,UN,33,intake,SQUEAL,m,,,,,,0.144706885,-0.386003097,0,0,0,,0,90,90,152,1,
,,,,,,,,,,,,,,,,,,594a8e2eeaa18e000163f6cd,2020-11-26_15h57.06.984,lexical_decision_task_MP_exp2,2020.2.5,Linux x86_64,60,,z,1,0.71082,,,,,,,,0.71082,1,,,,,,365,NW,"ID",16,guairt,GUAIRT,z,,,,,,0.144706885,-0.386003097,0,0,0,,0,91,91,304,1,
,,,,,,,,,,,,,,,,,,594a8e2eeaa18e000163f6cd,2020-11-26_15h57.06.984,lexical_decision_task_MP_exp2,2020.2.5,Linux x86_64,60,,z,1,0.646115,,,,,,,,0.646115,1,,,,,,267,NW,UN,16,packes,PASINK,z,,,,,,0.144706885,-0.386003097,0,0,0,,0,92,92,446,1,
,,,,,,,,,,,,,,,,,,594a8e2eeaa18e000163f6cd,2020-11-26_15h57.06.984,lexical_decision_task_MP_exp2,2020.2.5,Linux x86_64,60,,z,1,0.76442,,,,,,,,0.76442,1,,,,,,359,NW,"ID",33,fonver,FONVER,z,,,,,,0.144706885,-0.386003097,0,0,0,,0,93,93,298,1,
,,,,,,,,,,,,,,,,,,594a8e2eeaa18e000163f6cd,2020-11-26_15h57.06.984,lexical_decision_task_MP_exp2,2020.2.5,Linux x86_64,60,,z,1,0.68412,,,,,,,,0.68412,1,,,,,,428,NW,UN,33,funtle,TANDLY,z,,,,,,0.144706885,-0.386003097,0,0,0,,0,94,94,367,1,
,,,,,,,,,,,,,,,,,,594a8e2eeaa18e000163f6cd,2020-11-26_15h57.06.984,lexical_decision_task_MP_exp2,2020.2.5,Linux x86_64,60,,z,1,0.56319,,,,,,,,0.56319,1,,,,,,340,NW,"ID",33,fiatch,FIATCH,z,,,,,,0.144706885,-0.386003097,0,0,0,,0,95,95,279,1,
,,,,,,,,,,,,,,,,,,594a8e2eeaa18e000163f6cd,2020-11-26_15h57.06.984,lexical_decision_task_MP_exp2,2020.2.5,Linux x86_64,60,,m,1,0.71526,,,,,,,,0.71526,1,,,,,,75,WORD,"ID",33,trophy,TROPHY,m,,,,,,0.144706885,-0.386003097,0,0,0,,0,96,96,14,1,
,,,,,,,,,,,,,,,,,,594a8e2eeaa18e000163f6cd,2020-11-26_15h57.06.984,lexical_decision_task_MP_exp2,2020.2.5,Linux x86_64,60,,z,1,0.714355,,,,,,,,0.714355,1,,,,,,427,NW,UN,33,tandly,SCHIND,z,,,,,,0.144706885,-0.386003097,0,0,0,,0,97,97,366,1,
,,,,,,,,,,,,,,,,,,594a8e2eeaa18e000163f6cd,2020-11-26_15h57.06.984,lexical_decision_task_MP_exp2,2020.2.5,Linux x86_64,60,,z,1,0.58374,,,,,,,,0.58374,1,,,,,,441,NW,UN,33,aboune,RASTOE,z,,,,,,0.144706885,-0.386003097,0,0,0,,0,98,98,380,1,
,,,,,,,,,,,,,,,,,,594a8e2eeaa18e000163f6cd,2020-11-26_15h57.06.984,lexical_decision_task_MP_exp2,2020.2.5,Linux x86_64,60,,m,1,0.645815,,,,,,,,0.645815,1,,,,,,190,WORD,UN,33,stable,BACKUP,m,,,,,,0.144706885,-0.386003097,0,0,0,,0,99,99,129,1,
,,,,,,,,,,,,,,,,,,594a8e2eeaa18e000163f6cd,2020-11-26_15h57.06.984,lexical_decision_task_MP_exp2,2020.2.5,Linux x86_64,60,,z,1,0.985055,,,,,,,,0.985055,1,,,,,,431,NW,UN,33,lunker,CHRUMS,z,,,,,,0.144706885,-0.386003097,0,0,0,,0,100,100,370,1,
,,,,,,,,,,,,,,,,,,594a8e2eeaa18e000163f6cd,2020-11-26_15h57.06.984,lexical_decision_task_MP_exp2,2020.2.5,Linux x86_64,60,,z,0,0.565905,,,,,,,,0.565905,0,,,,,,184,WORD,UN,33,bother,SLEAZY,m,,,,,,0.144706885,-0.386003097,0,0,0,,0,101,101,123,1,
,,,,,,,,,,,,,,,,,,594a8e2eeaa18e000163f6cd,2020-11-26_15h57.06.984,lexical_decision_task_MP_exp2,2020.2.5,Linux x86_64,60,,m,1,0.579125,,,,,,,,0.579125,1,,,,,,35,WORD,UN,16,vanish,SOCKET,m,,,,,,0.144706885,-0.386003097,0,0,0,,0,102,102,214,1,
,,,,,,,,,,,,,,,,,,594a8e2eeaa18e000163f6cd,2020-11-26_15h57.06.984,lexical_decision_task_MP_exp2,2020.2.5,Linux x86_64,60,,z,1,0.70169,,,,,,,,0.70169,1,,,,,,361,NW,"ID",16,pauche,PAUCHE,z,,,,,,0.144706885,-0.386003097,0,0,0,,0,103,103,300,1,
,,,,,,,,,,,,,,,,,,594a8e2eeaa18e000163f6cd,2020-11-26_15h57.06.984,lexical_decision_task_MP_exp2,2020.2.5,Linux x86_64,60,,z,1,0.679485,,,,,,,,0.679485,1,,,,,,342,NW,"ID",33,randow,RANDOW,z,,,,,,0.144706885,-0.386003097,0,0,0,,0,104,104,281,1,
,,,,,,,,,,,,,,,,,,594a8e2eeaa18e000163f6cd,2020-11-26_15h57.06.984,lexical_decision_task_MP_exp2,2020.2.5,Linux x86_64,60,,z,0,0.55634,,,,,,,,0.55634,0,,,,,,23,WORD,UN,16,praise,WEALTH,m,,,,,,0.144706885,-0.386003097,0,0,0,,0,105,105,202,1,
,,,,,,,,,,,,,,,,,,594a8e2eeaa18e000163f6cd,2020-11-26_15h57.06.984,lexical_decision_task_MP_exp2,2020.2.5,Linux x86_64,60,,z,1,0.68376,,,,,,,,0.68376,1,,,,,,325,NW,"ID",33,thruse,THRUSE,z,,,,,,0.144706885,-0.386003097,0,0,0,,0,106,106,264,1,
,,,,,,,,,,,,,,,,,,594a8e2eeaa18e000163f6cd,2020-11-26_15h57.06.984,lexical_decision_task_MP_exp2,2020.2.5,Linux x86_64,60,,m,1,0.64742,,,,,,,,0.64742,1,,,,,,136,WORD,"ID",16,bleach,BLEACH,m,,,,,,0.144706885,-0.386003097,0,0,0,,0,107,107,75,1,
,,,,,,,,,,,,,,,,,,594a8e2eeaa18e000163f6cd,2020-11-26_15h57.06.984,lexical_decision_task_MP_exp2,2020.2.5,Linux x86_64,60,,z,1,0.66926,,,,,,,,0.66926,1,,,,,,458,NW,UN,33,hocite,BARCET,z,,,,,,0.144706885,-0.386003097,0,0,0,,0,108,108,397,1,
,,,,,,,,,,,,,,,,,,594a8e2eeaa18e000163f6cd,2020-11-26_15h57.06.984,lexical_decision_task_MP_exp2,2020.2.5,Linux x86_64,60,,m,1,0.72179,,,,,,,,0.72179,1,,,,,,11,WORD,UN,16,amount,CRUISE,m,,,,,,0.144706885,-0.386003097,0,0,0,,0,109,109,190,1,
,,,,,,,,,,,,,,,,,,594a8e2eeaa18e000163f6cd,2020-11-26_15h57.06.984,lexical_decision_task_MP_exp2,2020.2.5,Linux x86_64,60,,m,1,0.519305,,,,,,,,0.519305,1,,,,,,132,WORD,"ID",16,strong,STRONG,m,,,,,,0.144706885,-0.386003097,0,0,0,,0,110,110,71,1,
,,,,,,,,,,,,,,,,,,594a8e2eeaa18e000163f6cd,2020-11-26_15h57.06.984,lexical_decision_task_MP_exp2,2020.2.5,Linux x86_64,60,,m,1,0.545505,,,,,,,,0.545505,1,,,,,,94,WORD,"ID",33,travel,TRAVEL,m,,,,,,0.144706885,-0.386003097,0,0,0,,0,111,111,33,1,
,,,,,,,,,,,,,,,,,,594a8e2eeaa18e000163f6cd,2020-11-26_15h57.06.984,lexical_decision_task_MP_exp2,2020.2.5,Linux x86_64,60,,m,1,0.88557,,,,,,,,0.88557,1,,,,,,186,WORD,UN,33,course,PORTAL,m,,,,,,0.144706885,-0.386003097,0,0,0,,0,112,112,125,1,
,,,,,,,,,,,,,,,,,,594a8e2eeaa18e000163f6cd,2020-11-26_15h57.06.984,lexical_decision_task_MP_exp2,2020.2.5,Linux x86_64,60,,m,1,0.595855,,,,,,,,0.595855,1,,,,,,141,WORD,"ID",16,orphan,ORPHAN,m,,,,,,0.144706885,-0.386003097,0,0,0,,0,113,113,80,1,
,,,,,,,,,,,,,,,,,,594a8e2eeaa18e000163f6cd,2020-11-26_15h57.06.984,lexical_decision_task_MP_exp2,2020.2.5,Linux x86_64,60,,m,1,0.568005,,,,,,,,0.568005,1,,,,,,204,WORD,UN,33,lounge,BURDEN,m,,,,,,0.144706885,-0.386003097,0,0,0,,0,114,114,143,1,
,,,,,,,,,,,,,,,,,,594a8e2eeaa18e000163f6cd,2020-11-26_15h57.06.984,lexical_decision_task_MP_exp2,2020.2.5,Linux x86_64,60,,z,1,0.57861,,,,,,,,0.57861,1,,,,,,415,NW,"ID",16,higsta,HIGSTA,z,,,,,,0.144706885,-0.386003097,0,0,0,,0,115,115,354,1,
,,,,,,,,,,,,,,,,,,594a8e2eeaa18e000163f6cd,2020-11-26_15h57.06.984,lexical_decision_task_MP_exp2,2020.2.5,Linux x86_64,60,,z,0,0.73415,,,,,,,,0.73415,0,,,,,,56,WORD,UN,16,change,AMBUSH,m,,,,,,0.144706885,-0.386003097,0,0,0,,0,116,116,235,1,
,,,,,,,,,,,,,,,,,,594a8e2eeaa18e000163f6cd,2020-11-26_15h57.06.984,lexical_decision_task_MP_exp2,2020.2.5,Linux x86_64,60,,z,0,0.59934,,,,,,,,0.59934,0,,,,,,179,WORD,"ID",16,basket,BASKET,m,,,,,,0.144706885,-0.386003097,0,0,0,,0,117,117,118,1,
,,,,,,,,,,,,,,,,,,594a8e2eeaa18e000163f6cd,2020-11-26_15h57.06.984,lexical_decision_task_MP_exp2,2020.2.5,Linux x86_64,60,,m,1,0.68119,,,,,,,,0.68119,1,,,,,,37,WORD,UN,16,powder,INSULT,m,,,,,,0.144706885,-0.386003097,0,0,0,,0,118,118,216,1,
,,,,,,,,,,,,,,,,,,594a8e2eeaa18e000163f6cd,2020-11-26_15h57.06.984,lexical_decision_task_MP_exp2,2020.2.5,Linux x86_64,60,,m,1,0.548825,,,,,,,,0.548825,1,,,,,,215,WORD,UN,33,lumber,PHOBIA,m,,,,,,0.144706885,-0.386003097,0,0,0,,0,119,119,154,1,
,,,,,,,,,,,,,,,,,,594a8e2eeaa18e000163f6cd,2020-11-26_15h57.06.984,lexical_decision_task_MP_exp2,2020.2.5,Linux x86_64,60,,z,1,0.687825,,,,,,,,0.687825,1,,,,,,399,NW,"ID",16,fouret,FOURET,z,,,,,,0.052838087,-0.426129023,0,0,0,space,0,120,120,338,1,4.994965
,,,,,,,,,,,,,,,,,,594a8e2eeaa18e000163f6cd,2020-11-26_15h57.06.984,lexical_decision_task_MP_exp2,2020.2.5,Linux x86_64,60,,m,1,0.694195,,,,,,,,0.694195,1,,,,,,142,WORD,"ID",16,spruce,SPRUCE,m,,,,,,0.052838087,-0.426129023,0,0,0,,0,121,121,81,1,
,,,,,,,,,,,,,,,,,,594a8e2eeaa18e000163f6cd,2020-11-26_15h57.06.984,lexical_decision_task_MP_exp2,2020.2.5,Linux x86_64,60,,z,1,0.601255,,,,,,,,0.601255,1,,,,,,466,NW,UN,33,robuly,HOCITE,z,,,,,,0.052838087,-0.426129023,0,0,0,,0,122,122,405,1,
,,,,,,,,,,,,,,,,,,594a8e2eeaa18e000163f6cd,2020-11-26_15h57.06.984,lexical_decision_task_MP_exp2,2020.2.5,Linux x86_64,60,,m,1,0.53785,,,,,,,,0.53785,1,,,,,,232,WORD,UN,33,nature,INJECT,m,,,,,,0.052838087,-0.426129023,0,0,0,,0,123,123,171,1,
,,,,,,,,,,,,,,,,,,594a8e2eeaa18e000163f6cd,2020-11-26_15h57.06.984,lexical_decision_task_MP_exp2,2020.2.5,Linux x86_64,60,,z,1,0.63284,,,,,,,,0.63284,1,,,,,,252,NW,UN,16,resait,STAPOD,z,,,,,,0.052838087,-0.426129023,0,0,0,,0,124,124,431,1,
,,,,,,,,,,,,,,,,,,594a8e2eeaa18e000163f6cd,2020-11-26_15h57.06.984,lexical_decision_task_MP_exp2,2020.2.5,Linux x86_64,60,,z,1,0.61337,,,,,,,,0.61337,1,,,,,,364,NW,"ID",16,impote,IMPOTE,z,,,,,,0.052838087,-0.426129023,0,0,0,,0,125,125,303,1,
,,,,,,,,,,,,,,,,,,594a8e2eeaa18e000163f6cd,2020-11-26_15h57.06.984,lexical_decision_task_MP_exp2,2020.2.5,Linux x86_64,60,,m,1,0.662515,,,,,,,,0.662515,1,,,,,,39,WORD,UN,16,convey,INSECT,m,,,,,,0.052838087,-0.426129023,0,0,0,,0,126,126,218,1,
,,,,,,,,,,,,,,,,,,594a8e2eeaa18e000163f6cd,2020-11-26_15h57.06.984,lexical_decision_task_MP_exp2,2020.2.5,Linux x86_64,60,,z,1,0.72351,,,,,,,,0.72351,1,,,,,,396,NW,"ID",16,flengy,FLENGY,z,,,,,,0.052838087,-0.426129023,0,0,0,,0,127,127,335,1,
,,,,,,,,,,,,,,,,,,594a8e2eeaa18e000163f6cd,2020-11-26_15h57.06.984,lexical_decision_task_MP_exp2,2020.2.5,Linux x86_64,60,,z,1,0.57297,,,,,,,,0.57297,1,,,,,,374,NW,"ID",16,sliant,SLIANT,z,,,,,,0.052838087,-0.426129023,0,0,0,,0,128,128,313,1,
,,,,,,,,,,,,,,,,,,594a8e2eeaa18e000163f6cd,2020-11-26_15h57.06.984,lexical_decision_task_MP_exp2,2020.2.5,Linux x86_64,60,,z,1,0.547485,,,,,,,,0.547485,1,,,,,,280,NW,UN,16,melaty,CURBOL,z,,,,,,0.052838087,-0.426129023,0,0,0,,0,129,129,459,1,
,,,,,,,,,,,,,,,,,,594a8e2eeaa18e000163f6cd,2020-11-26_15h57.06.984,lexical_decision_task_MP_exp2,2020.2.5,Linux x86_64,60,,z,1,0.53083,,,,,,,,0.53083,1,,,,,,344,NW,"ID",33,scrily,SCRILY,z,,,,,,0.052838087,-0.426129023,0,0,0,,0,130,130,283,1,
,,,,,,,,,,,,,,,,,,594a8e2eeaa18e000163f6cd,2020-11-26_15h57.06.984,lexical_decision_task_MP_exp2,2020.2.5,Linux x86_64,60,,m,1,0.601655,,,,,,,,0.601655,1,,,,,,14,WORD,UN,16,orange,ALMOST,m,,,,,,0.052838087,-0.426129023,0,0,0,,0,131,131,193,1,
,,,,,,,,,,,,,,,,,,594a8e2eeaa18e000163f6cd,2020-11-26_15h57.06.984,lexical_decision_task_MP_exp2,2020.2.5,Linux x86_64,60,,z,1,0.512715,,,,,,,,0.512715,1,,,,,,422,NW,UN,33,streld,ALCOUD,z,,,,,,0.052838087,-0.426129023,0,0,0,,0,132,132,361,1,
,,,,,,,,,,,,,,,,,,594a8e2eeaa18e000163f6cd,2020-11-26_15h57.06.984,lexical_decision_task_MP_exp2,2020.2.5,Linux x86_64,60,,m,1,0.764335,,,,,,,,0.764335,1,,,,,,26,WORD,UN,16,butler,SPRINT,m,,,,,,0.052838087,-0.426129023,0,0,0,,0,133,133,205,1,
,,,,,,,,,,,,,,,,,,594a8e2eeaa18e000163f6cd,2020-11-26_15h57.06.984,lexical_decision_task_MP_exp2,2020.2.5,Linux x86_64,60,,m,0,0.603035,,,,,,,,0.603035,0,,,,,,260,NW,UN,16,stunch,UNJECT,z,,,,,,0.052838087,-0.426129023,0,0,0,,0,134,134,439,1,
,,,,,,,,,,,,,,,,,,594a8e2eeaa18e000163f6cd,2020-11-26_15h57.06.984,lexical_decision_task_MP_exp2,2020.2.5,Linux x86_64,60,,z,1,0.695965,,,,,,,,0.695965,1,,,,,,464,NW,UN,33,whivex,CHAITE,z,,,,,,0.052838087,-0.426129023,0,0,0,,0,135,135,403,1,
,,,,,,,,,,,,,,,,,,594a8e2eeaa18e000163f6cd,2020-11-26_15h57.06.984,lexical_decision_task_MP_exp2,2020.2.5,Linux x86_64,60,,z,1,0.528245,,,,,,,,0.528245,1,,,,,,339,NW,"ID",33,fachow,FACHOW,z,,,,,,0.052838087,-0.426129023,0,0,0,,0,136,136,278,1,
,,,,,,,,,,,,,,,,,,594a8e2eeaa18e000163f6cd,2020-11-26_15h57.06.984,lexical_decision_task_MP_exp2,2020.2.5,Linux x86_64,60,,z,0,0.546155,,,,,,,,0.546155,0,,,,,,60,WORD,UN,16,fright,PENCIL,m,,,,,,0.052838087,-0.426129023,0,0,0,,0,137,137,239,1,
,,,,,,,,,,,,,,,,,,594a8e2eeaa18e000163f6cd,2020-11-26_15h57.06.984,lexical_decision_task_MP_exp2,2020.2.5,Linux x86_64,60,,m,1,0.582365,,,,,,,,0.582365,1,,,,,,7,WORD,UN,16,abrupt,ANCHOR,m,,,,,,0.052838087,-0.426129023,0,0,0,,0,138,138,186,1,
,,,,,,,,,,,,,,,,,,594a8e2eeaa18e000163f6cd,2020-11-26_15h57.06.984,lexical_decision_task_MP_exp2,2020.2.5,Linux x86_64,60,,z,1,0.661665,,,,,,,,0.661665,1,,,,,,312,NW,"ID",33,nerawl,NERAWL,z,,,,,,0.052838087,-0.426129023,0,0,0,,0,139,139,251,1,
,,,,,,,,,,,,,,,,,,594a8e2eeaa18e000163f6cd,2020-11-26_15h57.06.984,lexical_decision_task_MP_exp2,2020.2.5,Linux x86_64,60,,m,1,0.78071,,,,,,,,0.78071,1,,,,,,65,WORD,"ID",33,symbol,SYMBOL,m,,,,,,0.052838087,-0.426129023,0,0,0,,0,140,140,4,1,
,,,,,,,,,,,,,,,,,,594a8e2eeaa18e000163f6cd,2020-11-26_15h57.06.984,lexical_decision_task_MP_exp2,2020.2.5,Linux x86_64,60,,z,1,0.870745,,,,,,,,0.870745,1,,,,,,289,NW,UN,16,splino,STARBY,z,,,,,,0.052838087,-0.426129023,0,0,0,,0,141,141,468,1,
,,,,,,,,,,,,,,,,,,594a8e2eeaa18e000163f6cd,2020-11-26_15h57.06.984,lexical_decision_task_MP_exp2,2020.2.5,Linux x86_64,60,,z,1,0.687285,,,,,,,,0.687285,1,,,,,,275,NW,UN,16,yarmon,SLEIRT,z,,,,,,0.052838087,-0.426129023,0,0,0,,0,142,142,454,1,
,,,,,,,,,,,,,,,,,,594a8e2eeaa18e000163f6cd,2020-11-26_15h57.06.984,lexical_decision_task_MP_exp2,2020.2.5,Linux x86_64,60,,m,1,0.731245,,,,,,,,0.731245,1,,,,,,103,WORD,"ID",33,bounce,BOUNCE,m,,,,,,0.052838087,-0.426129023,0,0,0,,0,143,143,42,1,
,,,,,,,,,,,,,,,,,,594a8e2eeaa18e000163f6cd,2020-11-26_15h57.06.984,lexical_decision_task_MP_exp2,2020.2.5,Linux x86_64,60,,z,1,0.74949,,,,,,,,0.74949,1,,,,,,258,NW,UN,16,soudal,POLUTH,z,,,,,,0.052838087,-0.426129023,0,0,0,,0,144,144,437,1,
,,,,,,,,,,,,,,,,,,594a8e2eeaa18e000163f6cd,2020-11-26_15h57.06.984,lexical_decision_task_MP_exp2,2020.2.5,Linux x86_64,60,,m,1,0.619645,,,,,,,,0.619645,1,,,,,,154,WORD,"ID",16,author,AUTHOR,m,,,,,,0.052838087,-0.426129023,0,0,0,,0,145,145,93,1,
,,,,,,,,,,,,,,,,,,594a8e2eeaa18e000163f6cd,2020-11-26_15h57.06.984,lexical_decision_task_MP_exp2,2020.2.5,Linux x86_64,60,,z,1,0.680335,,,,,,,,0.680335,1,,,,,,445,NW,UN,33,runamo,MINKEL,z,,,,,,0.052838087,-0.426129023,0,0,0,,0,146,146,384,1,
,,,,,,,,,,,,,,,,,,594a8e2eeaa18e000163f6cd,2020-11-26_15h57.06.984,lexical_decision_task_MP_exp2,2020.2.5,Linux x86_64,60,,z,1,0.795995,,,,,,,,0.795995,1,,,,,,357,NW,"ID",33,derain,DERAIN,z,,,,,,0.052838087,-0.426129023,0,0,0,,0,147,147,296,1,
,,,,,,,,,,,,,,,,,,594a8e2eeaa18e000163f6cd,2020-11-26_15h57.06.984,lexical_decision_task_MP_exp2,2020.2.5,Linux x86_64,60,,z,1,0.584595,,,,,,,,0.584595,1,,,,,,309,NW,"ID",33,amiloy,AMILOY,z,,,,,,0.052838087,-0.426129023,0,0,0,,0,148,148,248,1,
,,,,,,,,,,,,,,,,,,594a8e2eeaa18e000163f6cd,2020-11-26_15h57.06.984,lexical_decision_task_MP_exp2,2020.2.5,Linux x86_64,60,,z,1,0.671935,,,,,,,,0.671935,1,,,,,,442,NW,UN,33,dorsex,ABOUNE,z,,,,,,0.052838087,-0.426129023,0,0,0,,0,149,149,381,1,
,,,,,,,,,,,,,,,,,,594a8e2eeaa18e000163f6cd,2020-11-26_15h57.06.984,lexical_decision_task_MP_exp2,2020.2.5,Linux x86_64,60,,z,1,0.864025,,,,,,,,0.864025,1,,,,,,332,NW,"ID",33,vangue,VANGUE,z,,,,,,0.052838087,-0.426129023,0,0,0,,0,150,150,271,1,
,,,,,,,,,,,,,,,,,,594a8e2eeaa18e000163f6cd,2020-11-26_15h57.06.984,lexical_decision_task_MP_exp2,2020.2.5,Linux x86_64,60,,m,1,0.74601,,,,,,,,0.74601,1,,,,,,240,WORD,UN,33,seldom,FOREST,m,,,,,,0.052838087,-0.426129023,0,0,0,,0,151,151,179,1,
,,,,,,,,,,,,,,,,,,594a8e2eeaa18e000163f6cd,2020-11-26_15h57.06.984,lexical_decision_task_MP_exp2,2020.2.5,Linux x86_64,60,,z,1,0.68682,,,,,,,,0.68682,1,,,,,,315,NW,"ID",33,laston,LASTON,z,,,,,,0.052838087,-0.426129023,0,0,0,,0,152,152,254,1,
,,,,,,,,,,,,,,,,,,594a8e2eeaa18e000163f6cd,2020-11-26_15h57.06.984,lexical_decision_task_MP_exp2,2020.2.5,Linux x86_64,60,,m,1,0.6262,,,,,,,,0.6262,1,,,,,,149,WORD,"ID",16,invade,INVADE,m,,,,,,0.052838087,-0.426129023,0,0,0,,0,153,153,88,1,
,,,,,,,,,,,,,,,,,,594a8e2eeaa18e000163f6cd,2020-11-26_15h57.06.984,lexical_decision_task_MP_exp2,2020.2.5,Linux x86_64,60,,m,1,0.58173,,,,,,,,0.58173,1,,,,,,200,WORD,UN,33,admire,BEACON,m,,,,,,0.052838087,-0.426129023,0,0,0,,0,154,154,139,1,
,,,,,,,,,,,,,,,,,,594a8e2eeaa18e000163f6cd,2020-11-26_15h57.06.984,lexical_decision_task_MP_exp2,2020.2.5,Linux x86_64,60,,m,1,0.748195,,,,,,,,0.748195,1,,,,,,82,WORD,"ID",33,stigma,STIGMA,m,,,,,,0.052838087,-0.426129023,0,0,0,,0,155,155,21,1,
,,,,,,,,,,,,,,,,,,594a8e2eeaa18e000163f6cd,2020-11-26_15h57.06.984,lexical_decision_task_MP_exp2,2020.2.5,Linux x86_64,60,,m,1,0.58154,,,,,,,,0.58154,1,,,,,,172,WORD,"ID",16,patrol,PATROL,m,,,,,,0.052838087,-0.426129023,0,0,0,,0,156,156,111,1,
,,,,,,,,,,,,,,,,,,594a8e2eeaa18e000163f6cd,2020-11-26_15h57.06.984,lexical_decision_task_MP_exp2,2020.2.5,Linux x86_64,60,,m,1,0.67419,,,,,,,,0.67419,1,,,,,,189,WORD,UN,33,backup,CENSOR,m,,,,,,0.052838087,-0.426129023,0,0,0,,0,157,157,128,1,
,,,,,,,,,,,,,,,,,,594a8e2eeaa18e000163f6cd,2020-11-26_15h57.06.984,lexical_decision_task_MP_exp2,2020.2.5,Linux x86_64,60,,z,1,0.8141,,,,,,,,0.8141,1,,,,,,423,NW,UN,33,praile,STRELD,z,,,,,,0.052838087,-0.426129023,0,0,0,,0,158,158,362,1,
,,,,,,,,,,,,,,,,,,594a8e2eeaa18e000163f6cd,2020-11-26_15h57.06.984,lexical_decision_task_MP_exp2,2020.2.5,Linux x86_64,60,,m,1,0.597395,,,,,,,,0.597395,1,,,,,,195,WORD,UN,33,credit,RESIGN,m,,,,,,0.052838087,-0.426129023,0,0,0,,0,159,159,134,1,
,,,,,,,,,,,,,,,,,,594a8e2eeaa18e000163f6cd,2020-11-26_15h57.06.984,lexical_decision_task_MP_exp2,2020.2.5,Linux x86_64,60,,z,1,0.679055,,,,,,,,0.679055,1,,,,,,286,NW,UN,16,nymbel,RELDON,z,,,,,,0.052838087,-0.426129023,0,0,0,,0,160,160,465,1,
,,,,,,,,,,,,,,,,,,594a8e2eeaa18e000163f6cd,2020-11-26_15h57.06.984,lexical_decision_task_MP_exp2,2020.2.5,Linux x86_64,60,,z,1,0.59552,,,,,,,,0.59552,1,,,,,,246,NW,UN,16,blarge,PIATON,z,,,,,,0.052838087,-0.426129023,0,0,0,,0,161,161,425,1,
,,,,,,,,,,,,,,,,,,594a8e2eeaa18e000163f6cd,2020-11-26_15h57.06.984,lexical_decision_task_MP_exp2,2020.2.5,Linux x86_64,60,,z,1,0.549885,,,,,,,,0.549885,1,,,,,,391,NW,"ID",16,theldy,THELDY,z,,,,,,0.052838087,-0.426129023,0,0,0,,0,162,162,330,1,
,,,,,,,,,,,,,,,,,,594a8e2eeaa18e000163f6cd,2020-11-26_15h57.06.984,lexical_decision_task_MP_exp2,2020.2.5,Linux x86_64,60,,m,1,0.665175,,,,,,,,0.665175,1,,,,,,17,WORD,UN,16,humble,CHARGE,m,,,,,,0.052838087,-0.426129023,0,0,0,,0,163,163,196,1,
,,,,,,,,,,,,,,,,,,594a8e2eeaa18e000163f6cd,2020-11-26_15h57.06.984,lexical_decision_task_MP_exp2,2020.2.5,Linux x86_64,60,,m,1,0.931205,,,,,,,,0.931205,1,,,,,,9,WORD,UN,16,bridge,HUSTLE,m,,,,,,0.052838087,-0.426129023,0,0,0,,0,164,164,188,1,
,,,,,,,,,,,,,,,,,,594a8e2eeaa18e000163f6cd,2020-11-26_15h57.06.984,lexical_decision_task_MP_exp2,2020.2.5,Linux x86_64,60,,m,1,0.75567,,,,,,,,0.75567,1,,,,,,144,WORD,"ID",16,sponge,SPONGE,m,,,,,,0.052838087,-0.426129023,0,0,0,,0,165,165,83,1,
,,,,,,,,,,,,,,,,,,594a8e2eeaa18e000163f6cd,2020-11-26_15h57.06.984,lexical_decision_task_MP_exp2,2020.2.5,Linux x86_64,60,,z,1,0.56896,,,,,,,,0.56896,1,,,,,,395,NW,"ID",16,colury,COLURY,z,,,,,,0.052838087,-0.426129023,0,0,0,,0,166,166,334,1,
,,,,,,,,,,,,,,,,,,594a8e2eeaa18e000163f6cd,2020-11-26_15h57.06.984,lexical_decision_task_MP_exp2,2020.2.5,Linux x86_64,60,,z,1,0.563485,,,,,,,,0.563485,1,,,,,,363,NW,"ID",16,breali,BREALI,z,,,,,,0.052838087,-0.426129023,0,0,0,,0,167,167,302,1,
,,,,,,,,,,,,,,,,,,594a8e2eeaa18e000163f6cd,2020-11-26_15h57.06.984,lexical_decision_task_MP_exp2,2020.2.5,Linux x86_64,60,,z,1,0.581065,,,,,,,,0.581065,1,,,,,,281,NW,UN,16,porlex,MELATY,z,,,,,,0.052838087,-0.426129023,0,0,0,,0,168,168,460,1,
,,,,,,,,,,,,,,,,,,594a8e2eeaa18e000163f6cd,2020-11-26_15h57.06.984,lexical_decision_task_MP_exp2,2020.2.5,Linux x86_64,60,,z,1,0.548925,,,,,,,,0.548925,1,,,,,,407,NW,"ID",16,suiver,SUIVER,z,,,,,,0.052838087,-0.426129023,0,0,0,,0,169,169,346,1,
,,,,,,,,,,,,,,,,,,594a8e2eeaa18e000163f6cd,2020-11-26_15h57.06.984,lexical_decision_task_MP_exp2,2020.2.5,Linux x86_64,60,,z,1,0.567845,,,,,,,,0.567845,1,,,,,,296,NW,UN,16,fertic,BEINCH,z,,,,,,0.052838087,-0.426129023,0,0,0,,0,170,170,475,1,
,,,,,,,,,,,,,,,,,,594a8e2eeaa18e000163f6cd,2020-11-26_15h57.06.984,lexical_decision_task_MP_exp2,2020.2.5,Linux x86_64,60,,z,1,0.63135,,,,,,,,0.63135,1,,,,,,471,NW,UN,33,cigney,NOBEST,z,,,,,,0.052838087,-0.426129023,0,0,0,,0,171,171,410,1,
,,,,,,,,,,,,,,,,,,594a8e2eeaa18e000163f6cd,2020-11-26_15h57.06.984,lexical_decision_task_MP_exp2,2020.2.5,Linux x86_64,60,,m,1,0.770475,,,,,,,,0.770475,1,,,,,,138,WORD,"ID",16,melody,MELODY,m,,,,,,0.052838087,-0.426129023,0,0,0,,0,172,172,77,1,
,,,,,,,,,,,,,,,,,,594a8e2eeaa18e000163f6cd,2020-11-26_15h57.06.984,lexical_decision_task_MP_exp2,2020.2.5,Linux x86_64,60,,m,1,0.563965,,,,,,,,0.563965,1,,,,,,42,WORD,UN,16,tongue,CHAPEL,m,,,,,,0.052838087,-0.426129023,0,0,0,,0,173,173,221,1,
,,,,,,,,,,,,,,,,,,594a8e2eeaa18e000163f6cd,2020-11-26_15h57.06.984,lexical_decision_task_MP_exp2,2020.2.5,Linux x86_64,60,,m,1,0.529945,,,,,,,,0.529945,1,,,,,,223,WORD,UN,33,period,KIDNEY,m,,,,,,0.052838087,-0.426129023,0,0,0,,0,174,174,162,1,
,,,,,,,,,,,,,,,,,,594a8e2eeaa18e000163f6cd,2020-11-26_15h57.06.984,lexical_decision_task_MP_exp2,2020.2.5,Linux x86_64,60,,m,1,0.55193,,,,,,,,0.55193,1,,,,,,150,WORD,"ID",16,random,RANDOM,m,,,,,,0.052838087,-0.426129023,0,0,0,,0,175,175,89,1,
,,,,,,,,,,,,,,,,,,594a8e2eeaa18e000163f6cd,2020-11-26_15h57.06.984,lexical_decision_task_MP_exp2,2020.2.5,Linux x86_64,60,,z,1,0.58142,,,,,,,,0.58142,1,,,,,,479,NW,UN,33,crible,LOBUSH,z,,,,,,0.052838087,-0.426129023,0,0,0,,0,176,176,418,1,
,,,,,,,,,,,,,,,,,,594a8e2eeaa18e000163f6cd,2020-11-26_15h57.06.984,lexical_decision_task_MP_exp2,2020.2.5,Linux x86_64,60,,m,1,0.6968,,,,,,,,0.6968,1,,,,,,64,WORD,"ID",33,throne,THRONE,m,,,,,,0.052838087,-0.426129023,0,0,0,,0,177,177,3,1,
,,,,,,,,,,,,,,,,,,594a8e2eeaa18e000163f6cd,2020-11-26_15h57.06.984,lexical_decision_task_MP_exp2,2020.2.5,Linux x86_64,60,,z,1,0.637435,,,,,,,,0.637435,1,,,,,,367,NW,"ID",16,slique,SLIQUE,z,,,,,,0.052838087,-0.426129023,0,0,0,,0,178,178,306,1,
,,,,,,,,,,,,,,,,,,594a8e2eeaa18e000163f6cd,2020-11-26_15h57.06.984,lexical_decision_task_MP_exp2,2020.2.5,Linux x86_64,60,,z,1,0.75488,,,,,,,,0.75488,1,,,,,,322,NW,"ID",33,slanch,SLANCH,z,,,,,,0.052838087,-0.426129023,0,0,0,,0,179,179,261,1,
,,,,,,,,,,,,,,,,,,594a8e2eeaa18e000163f6cd,2020-11-26_15h57.06.984,lexical_decision_task_MP_exp2,2020.2.5,Linux x86_64,60,,z,1,0.59103,,,,,,,,0.59103,1,,,,,,449,NW,UN,33,phrect,BRUNGE,z,,,,,,0.052838087,-0.426129023,0,0,0,,0,180,180,388,1,
,,,,,,,,,,,,,,,,,,594a8e2eeaa18e000163f6cd,2020-11-26_15h57.06.984,lexical_decision_task_MP_exp2,2020.2.5,Linux x86_64,60,,z,1,0.59726,,,,,,,,0.59726,1,,,,,,403,NW,"ID",16,bruats,BRUATS,z,,,,,,0.052838087,-0.426129023,0,0,0,,0,181,181,342,1,
,,,,,,,,,,,,,,,,,,594a8e2eeaa18e000163f6cd,2020-11-26_15h57.06.984,lexical_decision_task_MP_exp2,2020.2.5,Linux x86_64,60,,z,0,0.7987,,,,,,,,0.7987,0,,,,,,145,WORD,"ID",16,parish,PARISH,m,,,,,,0.052838087,-0.426129023,0,0,0,,0,182,182,84,1,
,,,,,,,,,,,,,,,,,,594a8e2eeaa18e000163f6cd,2020-11-26_15h57.06.984,lexical_decision_task_MP_exp2,2020.2.5,Linux x86_64,60,,z,1,0.630315,,,,,,,,0.630315,1,,,,,,326,NW,"ID",33,iguade,IGUADE,z,,,,,,0.052838087,-0.426129023,0,0,0,,0,183,183,265,1,
,,,,,,,,,,,,,,,,,,594a8e2eeaa18e000163f6cd,2020-11-26_15h57.06.984,lexical_decision_task_MP_exp2,2020.2.5,Linux x86_64,60,,m,1,0.58762,,,,,,,,0.58762,1,,,,,,199,WORD,UN,33,plague,INVOKE,m,,,,,,0.052838087,-0.426129023,0,0,0,,0,184,184,138,1,
,,,,,,,,,,,,,,,,,,594a8e2eeaa18e000163f6cd,2020-11-26_15h57.06.984,lexical_decision_task_MP_exp2,2020.2.5,Linux x86_64,60,,m,1,0.48203,,,,,,,,0.48203,1,,,,,,12,WORD,UN,16,strive,ORANGE,m,,,,,,0.052838087,-0.426129023,0,0,0,,0,185,185,191,1,
,,,,,,,,,,,,,,,,,,594a8e2eeaa18e000163f6cd,2020-11-26_15h57.06.984,lexical_decision_task_MP_exp2,2020.2.5,Linux x86_64,60,,z,1,0.675175,,,,,,,,0.675175,1,,,,,,416,NW,"ID",16,pathel,PATHEL,z,,,,,,0.052838087,-0.426129023,0,0,0,,0,186,186,355,1,
,,,,,,,,,,,,,,,,,,594a8e2eeaa18e000163f6cd,2020-11-26_15h57.06.984,lexical_decision_task_MP_exp2,2020.2.5,Linux x86_64,60,,m,1,0.69837,,,,,,,,0.69837,1,,,,,,194,WORD,UN,33,resign,ABSENT,m,,,,,,0.052838087,-0.426129023,0,0,0,,0,187,187,133,1,
,,,,,,,,,,,,,,,,,,594a8e2eeaa18e000163f6cd,2020-11-26_15h57.06.984,lexical_decision_task_MP_exp2,2020.2.5,Linux x86_64,60,,z,1,0.61319,,,,,,,,0.61319,1,,,,,,305,NW,"ID",33,forgle,FORGLE,z,,,,,,0.052838087,-0.426129023,0,0,0,,0,188,188,244,1,
,,,,,,,,,,,,,,,,,,594a8e2eeaa18e000163f6cd,2020-11-26_15h57.06.984,lexical_decision_task_MP_exp2,2020.2.5,Linux x86_64,60,,m,1,0.662265,,,,,,,,0.662265,1,,,,,,63,WORD,"ID",33,launch,LAUNCH,m,,,,,,0.052838087,-0.426129023,0,0,0,,0,189,189,2,1,
,,,,,,,,,,,,,,,,,,594a8e2eeaa18e000163f6cd,2020-11-26_15h57.06.984,lexical_decision_task_MP_exp2,2020.2.5,Linux x86_64,60,,m,1,0.562605,,,,,,,,0.562605,1,,,,,,175,WORD,"ID",16,fabric,FABRIC,m,,,,,,0.052838087,-0.426129023,0,0,0,,0,190,190,114,1,
,,,,,,,,,,,,,,,,,,594a8e2eeaa18e000163f6cd,2020-11-26_15h57.06.984,lexical_decision_task_MP_exp2,2020.2.5,Linux x86_64,60,,z,1,0.54851,,,,,,,,0.54851,1,,,,,,384,NW,"ID",16,guesco,GUESCO,z,,,,,,0.052838087,-0.426129023,0,0,0,,0,191,191,323,1,
,,,,,,,,,,,,,,,,,,594a8e2eeaa18e000163f6cd,2020-11-26_15h57.06.984,lexical_decision_task_MP_exp2,2020.2.5,Linux x86_64,60,,z,1,0.60508,,,,,,,,0.60508,1,,,,,,293,NW,UN,16,inhort,SWANCE,z,,,,,,0.052838087,-0.426129023,0,0,0,,0,192,192,472,1,
,,,,,,,,,,,,,,,,,,594a8e2eeaa18e000163f6cd,2020-11-26_15h57.06.984,lexical_decision_task_MP_exp2,2020.2.5,Linux x86_64,60,,z,1,0.647655,,,,,,,,0.647655,1,,,,,,360,NW,"ID",33,desory,DESORY,z,,,,,,0.052838087,-0.426129023,0,0,0,,0,193,193,299,1,
,,,,,,,,,,,,,,,,,,594a8e2eeaa18e000163f6cd,2020-11-26_15h57.06.984,lexical_decision_task_MP_exp2,2020.2.5,Linux x86_64,60,,m,1,0.545755,,,,,,,,0.545755,1,,,,,,2,WORD,UN,16,knight,BRIDGE,m,,,,,,0.052838087,-0.426129023,0,0,0,,0,194,194,181,1,
,,,,,,,,,,,,,,,,,,594a8e2eeaa18e000163f6cd,2020-11-26_15h57.06.984,lexical_decision_task_MP_exp2,2020.2.5,Linux x86_64,60,,z,1,0.693605,,,,,,,,0.693605,1,,,,,,477,NW,UN,33,lobush,PHOTIE,z,,,,,,0.052838087,-0.426129023,0,0,0,,0,195,195,416,1,
,,,,,,,,,,,,,,,,,,594a8e2eeaa18e000163f6cd,2020-11-26_15h57.06.984,lexical_decision_task_MP_exp2,2020.2.5,Linux x86_64,60,,z,1,0.56655,,,,,,,,0.56655,1,,,,,,345,NW,"ID",33,absend,ABSEND,z,,,,,,0.052838087,-0.426129023,0,0,0,,0,196,196,284,1,
,,,,,,,,,,,,,,,,,,594a8e2eeaa18e000163f6cd,2020-11-26_15h57.06.984,lexical_decision_task_MP_exp2,2020.2.5,Linux x86_64,60,,z,1,0.69743,,,,,,,,0.69743,1,,,,,,392,NW,"ID",16,rouncy,ROUNCY,z,,,,,,0.052838087,-0.426129023,0,0,0,,0,197,197,331,1,
,,,,,,,,,,,,,,,,,,594a8e2eeaa18e000163f6cd,2020-11-26_15h57.06.984,lexical_decision_task_MP_exp2,2020.2.5,Linux x86_64,60,,m,1,0.69321,,,,,,,,0.69321,1,,,,,,81,WORD,"ID",33,friend,FRIEND,m,,,,,,0.052838087,-0.426129023,0,0,0,,0,198,198,20,1,
,,,,,,,,,,,,,,,,,,594a8e2eeaa18e000163f6cd,2020-11-26_15h57.06.984,lexical_decision_task_MP_exp2,2020.2.5,Linux x86_64,60,,z,1,0.595735,,,,,,,,0.595735,1,,,,,,381,NW,"ID",16,huniek,HUNIEK,z,,,,,,0.052838087,-0.426129023,0,0,0,,0,199,199,320,1,
,,,,,,,,,,,,,,,,,,594a8e2eeaa18e000163f6cd,2020-11-26_15h57.06.984,lexical_decision_task_MP_exp2,2020.2.5,Linux x86_64,60,,m,1,0.85552,,,,,,,,0.85552,1,,,,,,105,WORD,"ID",33,number,NUMBER,m,,,,,,0.052838087,-0.426129023,0,0,0,,0,200,200,44,1,
,,,,,,,,,,,,,,,,,,594a8e2eeaa18e000163f6cd,2020-11-26_15h57.06.984,lexical_decision_task_MP_exp2,2020.2.5,Linux x86_64,60,,m,1,0.556285,,,,,,,,0.556285,1,,,,,,18,WORD,UN,16,patron,HUMBLE,m,,,,,,0.052838087,-0.426129023,0,0,0,,0,201,201,197,1,
,,,,,,,,,,,,,,,,,,594a8e2eeaa18e000163f6cd,2020-11-26_15h57.06.984,lexical_decision_task_MP_exp2,2020.2.5,Linux x86_64,60,,z,1,0.613405,,,,,,,,0.613405,1,,,,,,469,NW,UN,33,crudio,PADIFS,z,,,,,,0.052838087,-0.426129023,0,0,0,,0,202,202,408,1,
,,,,,,,,,,,,,,,,,,594a8e2eeaa18e000163f6cd,2020-11-26_15h57.06.984,lexical_decision_task_MP_exp2,2020.2.5,Linux x86_64,60,,m,1,0.679915,,,,,,,,0.679915,1,,,,,,162,WORD,"ID",16,candle,CANDLE,m,,,,,,0.052838087,-0.426129023,0,0,0,,0,203,203,101,1,
,,,,,,,,,,,,,,,,,,594a8e2eeaa18e000163f6cd,2020-11-26_15h57.06.984,lexical_decision_task_MP_exp2,2020.2.5,Linux x86_64,60,,m,1,0.58128,,,,,,,,0.58128,1,,,,,,59,WORD,UN,16,pencil,SPLINT,m,,,,,,0.052838087,-0.426129023,0,0,0,,0,204,204,238,1,
,,,,,,,,,,,,,,,,,,594a8e2eeaa18e000163f6cd,2020-11-26_15h57.06.984,lexical_decision_task_MP_exp2,2020.2.5,Linux x86_64,60,,m,1,0.650275,,,,,,,,0.650275,1,,,,,,221,WORD,UN,33,hinder,MASCOT,m,,,,,,0.052838087,-0.426129023,0,0,0,,0,205,205,160,1,
,,,,,,,,,,,,,,,,,,594a8e2eeaa18e000163f6cd,2020-11-26_15h57.06.984,lexical_decision_task_MP_exp2,2020.2.5,Linux x86_64,60,,z,1,0.564985,,,,,,,,0.564985,1,,,,,,351,NW,"ID",33,tiesch,TIESCH,z,,,,,,0.052838087,-0.426129023,0,0,0,,0,206,206,290,1,
,,,,,,,,,,,,,,,,,,594a8e2eeaa18e000163f6cd,2020-11-26_15h57.06.984,lexical_decision_task_MP_exp2,2020.2.5,Linux x86_64,60,,z,1,0.734055,,,,,,,,0.734055,1,,,,,,349,NW,"ID",33,asylen,ASYLEN,z,,,,,,0.052838087,-0.426129023,0,0,0,,0,207,207,288,1,
,,,,,,,,,,,,,,,,,,594a8e2eeaa18e000163f6cd,2020-11-26_15h57.06.984,lexical_decision_task_MP_exp2,2020.2.5,Linux x86_64,60,,m,1,0.690505,,,,,,,,0.690505,1,,,,,,173,WORD,"ID",16,shower,SHOWER,m,,,,,,0.052838087,-0.426129023,0,0,0,,0,208,208,112,1,
,,,,,,,,,,,,,,,,,,594a8e2eeaa18e000163f6cd,2020-11-26_15h57.06.984,lexical_decision_task_MP_exp2,2020.2.5,Linux x86_64,60,,z,1,0.701335,,,,,,,,0.701335,1,,,,,,311,NW,"ID",33,sproly,SPROLY,z,,,,,,0.052838087,-0.426129023,0,0,0,,0,209,209,250,1,
,,,,,,,,,,,,,,,,,,594a8e2eeaa18e000163f6cd,2020-11-26_15h57.06.984,lexical_decision_task_MP_exp2,2020.2.5,Linux x86_64,60,,m,1,0.57046,,,,,,,,0.57046,1,,,,,,98,WORD,"ID",33,belong,BELONG,m,,,,,,0.052838087,-0.426129023,0,0,0,,0,210,210,37,1,
,,,,,,,,,,,,,,,,,,594a8e2eeaa18e000163f6cd,2020-11-26_15h57.06.984,lexical_decision_task_MP_exp2,2020.2.5,Linux x86_64,60,,z,1,0.68395,,,,,,,,0.68395,1,,,,,,285,NW,UN,16,reldon,PRUDGE,z,,,,,,0.052838087,-0.426129023,0,0,0,,0,211,211,464,1,
,,,,,,,,,,,,,,,,,,594a8e2eeaa18e000163f6cd,2020-11-26_15h57.06.984,lexical_decision_task_MP_exp2,2020.2.5,Linux x86_64,60,,z,1,0.749325,,,,,,,,0.749325,1,,,,,,444,NW,UN,33,minkel,JAUNCE,z,,,,,,0.052838087,-0.426129023,0,0,0,,0,212,212,383,1,
,,,,,,,,,,,,,,,,,,594a8e2eeaa18e000163f6cd,2020-11-26_15h57.06.984,lexical_decision_task_MP_exp2,2020.2.5,Linux x86_64,60,,m,1,0.598675,,,,,,,,0.598675,1,,,,,,113,WORD,"ID",33,chorus,CHORUS,m,,,,,,0.052838087,-0.426129023,0,0,0,,0,213,213,52,1,
,,,,,,,,,,,,,,,,,,594a8e2eeaa18e000163f6cd,2020-11-26_15h57.06.984,lexical_decision_task_MP_exp2,2020.2.5,Linux x86_64,60,,z,1,0.93065,,,,,,,,0.93065,1,,,,,,433,NW,UN,33,pitrom,DRANCE,z,,,,,,0.052838087,-0.426129023,0,0,0,,0,214,214,372,1,
,,,,,,,,,,,,,,,,,,594a8e2eeaa18e000163f6cd,2020-11-26_15h57.06.984,lexical_decision_task_MP_exp2,2020.2.5,Linux x86_64,60,,z,1,0.563455,,,,,,,,0.563455,1,,,,,,304,NW,"ID",33,cludie,CLUDIE,z,,,,,,0.052838087,-0.426129023,0,0,0,,0,215,215,243,1,
,,,,,,,,,,,,,,,,,,594a8e2eeaa18e000163f6cd,2020-11-26_15h57.06.984,lexical_decision_task_MP_exp2,2020.2.5,Linux x86_64,60,,m,1,0.609635,,,,,,,,0.609635,1,,,,,,95,WORD,"ID",33,thread,THREAD,m,,,,,,0.052838087,-0.426129023,0,0,0,,0,216,216,34,1,
,,,,,,,,,,,,,,,,,,594a8e2eeaa18e000163f6cd,2020-11-26_15h57.06.984,lexical_decision_task_MP_exp2,2020.2.5,Linux x86_64,60,,z,1,0.581625,,,,,,,,0.581625,1,,,,,,452,NW,UN,33,bolvis,SURDEN,z,,,,,,0.052838087,-0.426129023,0,0,0,,0,217,217,391,1,
,,,,,,,,,,,,,,,,,,594a8e2eeaa18e000163f6cd,2020-11-26_15h57.06.984,lexical_decision_task_MP_exp2,2020.2.5,Linux x86_64,60,,z,1,0.553625,,,,,,,,0.553625,1,,,,,,321,NW,"ID",33,miator,MIATOR,z,,,,,,0.052838087,-0.426129023,0,0,0,,0,218,218,260,1,
,,,,,,,,,,,,,,,,,,594a8e2eeaa18e000163f6cd,2020-11-26_15h57.06.984,lexical_decision_task_MP_exp2,2020.2.5,Linux x86_64,60,,z,1,0.541,,,,,,,,0.541,1,,,,,,302,NW,"ID",33,miluer,MILUER,z,,,,,,0.052838087,-0.426129023,0,0,0,,0,219,219,241,1,
,,,,,,,,,,,,,,,,,,594a8e2eeaa18e000163f6cd,2020-11-26_15h57.06.984,lexical_decision_task_MP_exp2,2020.2.5,Linux x86_64,60,,z,1,0.56811,,,,,,,,0.56811,1,,,,,,263,NW,UN,16,vackel,DOLICA,z,,,,,,0.052838087,-0.426129023,0,0,0,,0,220,220,442,1,
,,,,,,,,,,,,,,,,,,594a8e2eeaa18e000163f6cd,2020-11-26_15h57.06.984,lexical_decision_task_MP_exp2,2020.2.5,Linux x86_64,60,,m,1,0.597055,,,,,,,,0.597055,1,,,,,,177,WORD,"ID",16,advent,ADVENT,m,,,,,,0.052838087,-0.426129023,0,0,0,,0,221,221,116,1,
,,,,,,,,,,,,,,,,,,594a8e2eeaa18e000163f6cd,2020-11-26_15h57.06.984,lexical_decision_task_MP_exp2,2020.2.5,Linux x86_64,60,,z,0,0.581565,,,,,,,,0.581565,0,,,,,,85,WORD,"ID",33,sprawl,SPRAWL,m,,,,,,0.052838087,-0.426129023,0,0,0,,0,222,222,24,1,
,,,,,,,,,,,,,,,,,,594a8e2eeaa18e000163f6cd,2020-11-26_15h57.06.984,lexical_decision_task_MP_exp2,2020.2.5,Linux x86_64,60,,z,1,0.51675,,,,,,,,0.51675,1,,,,,,474,NW,UN,33,acrise,HABLIN,z,,,,,,0.052838087,-0.426129023,0,0,0,,0,223,223,413,1,
,,,,,,,,,,,,,,,,,,594a8e2eeaa18e000163f6cd,2020-11-26_15h57.06.984,lexical_decision_task_MP_exp2,2020.2.5,Linux x86_64,60,,m,1,0.68917,,,,,,,,0.68917,1,,,,,,86,WORD,"ID",33,rodent,RODENT,m,,,,,,0.052838087,-0.426129023,0,0,0,,0,224,224,25,1,
,,,,,,,,,,,,,,,,,,594a8e2eeaa18e000163f6cd,2020-11-26_15h57.06.984,lexical_decision_task_MP_exp2,2020.2.5,Linux x86_64,60,,m,1,0.54648,,,,,,,,0.54648,1,,,,,,206,WORD,UN,33,wreath,TAILOR,m,,,,,,0.052838087,-0.426129023,0,0,0,,0,225,225,145,1,
,,,,,,,,,,,,,,,,,,594a8e2eeaa18e000163f6cd,2020-11-26_15h57.06.984,lexical_decision_task_MP_exp2,2020.2.5,Linux x86_64,60,,m,1,0.51166,,,,,,,,0.51166,1,,,,,,182,WORD,UN,33,absent,WINTER,m,,,,,,0.052838087,-0.426129023,0,0,0,,0,226,226,121,1,
,,,,,,,,,,,,,,,,,,594a8e2eeaa18e000163f6cd,2020-11-26_15h57.06.984,lexical_decision_task_MP_exp2,2020.2.5,Linux x86_64,60,,m,1,0.51256,,,,,,,,0.51256,1,,,,,,164,WORD,"ID",16,market,MARKET,m,,,,,,0.052838087,-0.426129023,0,0,0,,0,227,227,103,1,
,,,,,,,,,,,,,,,,,,594a8e2eeaa18e000163f6cd,2020-11-26_15h57.06.984,lexical_decision_task_MP_exp2,2020.2.5,Linux x86_64,60,,z,1,0.576215,,,,,,,,0.576215,1,,,,,,394,NW,"ID",16,spaqux,SPAQUX,z,,,,,,0.052838087,-0.426129023,0,0,0,,0,228,228,333,1,
,,,,,,,,,,,,,,,,,,594a8e2eeaa18e000163f6cd,2020-11-26_15h57.06.984,lexical_decision_task_MP_exp2,2020.2.5,Linux x86_64,60,,z,1,0.668205,,,,,,,,0.668205,1,,,,,,299,NW,UN,16,yarion,STURCH,z,,,,,,0.052838087,-0.426129023,0,0,0,,0,229,229,478,1,
,,,,,,,,,,,,,,,,,,594a8e2eeaa18e000163f6cd,2020-11-26_15h57.06.984,lexical_decision_task_MP_exp2,2020.2.5,Linux x86_64,60,,m,1,0.63147,,,,,,,,0.63147,1,,,,,,5,WORD,UN,16,bundle,PLUNGE,m,,,,,,0.052838087,-0.426129023,0,0,0,,0,230,230,184,1,
,,,,,,,,,,,,,,,,,,594a8e2eeaa18e000163f6cd,2020-11-26_15h57.06.984,lexical_decision_task_MP_exp2,2020.2.5,Linux x86_64,60,,m,1,0.495805,,,,,,,,0.495805,1,,,,,,99,WORD,"ID",33,fluent,FLUENT,m,,,,,,0.052838087,-0.426129023,0,0,0,,0,231,231,38,1,
,,,,,,,,,,,,,,,,,,594a8e2eeaa18e000163f6cd,2020-11-26_15h57.06.984,lexical_decision_task_MP_exp2,2020.2.5,Linux x86_64,60,,z,1,0.714565,,,,,,,,0.714565,1,,,,,,398,NW,"ID",16,blunde,BLUNDE,z,,,,,,0.052838087,-0.426129023,0,0,0,,0,232,232,337,1,
,,,,,,,,,,,,,,,,,,594a8e2eeaa18e000163f6cd,2020-11-26_15h57.06.984,lexical_decision_task_MP_exp2,2020.2.5,Linux x86_64,60,,m,1,0.662685,,,,,,,,0.662685,1,,,,,,112,WORD,"ID",33,breath,BREATH,m,,,,,,0.052838087,-0.426129023,0,0,0,,0,233,233,51,1,
,,,,,,,,,,,,,,,,,,594a8e2eeaa18e000163f6cd,2020-11-26_15h57.06.984,lexical_decision_task_MP_exp2,2020.2.5,Linux x86_64,60,,m,1,0.532315,,,,,,,,0.532315,1,,,,,,71,WORD,"ID",33,garden,GARDEN,m,,,,,,0.052838087,-0.426129023,0,0,0,,0,234,234,10,1,
,,,,,,,,,,,,,,,,,,594a8e2eeaa18e000163f6cd,2020-11-26_15h57.06.984,lexical_decision_task_MP_exp2,2020.2.5,Linux x86_64,60,,z,1,0.60607,,,,,,,,0.60607,1,,,,,,440,NW,UN,33,rastoe,SARIDE,z,,,,,,0.052838087,-0.426129023,0,0,0,,0,235,235,379,1,
,,,,,,,,,,,,,,,,,,594a8e2eeaa18e000163f6cd,2020-11-26_15h57.06.984,lexical_decision_task_MP_exp2,2020.2.5,Linux x86_64,60,,z,1,0.529135,,,,,,,,0.529135,1,,,,,,362,NW,"ID",16,tireau,TIREAU,z,,,,,,0.052838087,-0.426129023,0,0,0,,0,236,236,301,1,
,,,,,,,,,,,,,,,,,,594a8e2eeaa18e000163f6cd,2020-11-26_15h57.06.984,lexical_decision_task_MP_exp2,2020.2.5,Linux x86_64,60,,z,1,0.64699,,,,,,,,0.64699,1,,,,,,308,NW,"ID",33,psetch,PSETCH,z,,,,,,0.052838087,-0.426129023,0,0,0,,0,237,237,247,1,
,,,,,,,,,,,,,,,,,,594a8e2eeaa18e000163f6cd,2020-11-26_15h57.06.984,lexical_decision_task_MP_exp2,2020.2.5,Linux x86_64,60,,m,1,0.63525,,,,,,,,0.63525,1,,,,,,143,WORD,"ID",16,reason,REASON,m,,,,,,0.052838087,-0.426129023,0,0,0,,0,238,238,82,1,
,,,,,,,,,,,,,,,,,,594a8e2eeaa18e000163f6cd,2020-11-26_15h57.06.984,lexical_decision_task_MP_exp2,2020.2.5,Linux x86_64,60,,m,1,0.484265,,,,,,,,0.484265,1,,,,,,205,WORD,UN,33,tailor,LOUNGE,m,,,,,,0.052838087,-0.426129023,0,0,0,,0,239,239,144,1,
,,,,,,,,,,,,,,,,,,594a8e2eeaa18e000163f6cd,2020-11-26_15h57.06.984,lexical_decision_task_MP_exp2,2020.2.5,Linux x86_64,60,,z,1,0.63257,,,,,,,,0.63257,1,,,,,,358,NW,"ID",33,fleack,FLEACK,z,,,,,,0.052838087,-0.426129023,0,0,0,,0,240,240,297,1,
,,,,,,,,,,,,,,,,,,594a8e2eeaa18e000163f6cd,2020-11-26_15h57.06.984,lexical_decision_task_MP_exp2,2020.2.5,Linux x86_64,60,,z,1,0.693005,,,,,,,,0.693005,1,,,,,,295,NW,UN,16,beinch,GLEATH,z,,,,,,0.04157726,-0.42894419,0,0,0,space,0,241,241,474,1,3.87466
,,,,,,,,,,,,,,,,,,594a8e2eeaa18e000163f6cd,2020-11-26_15h57.06.984,lexical_decision_task_MP_exp2,2020.2.5,Linux x86_64,60,,z,0,0.677255,,,,,,,,0.677255,0,,,,,,120,WORD,"ID",33,strain,STRAIN,m,,,,,,0.04157726,-0.42894419,0,0,0,,0,242,242,59,1,
,,,,,,,,,,,,,,,,,,594a8e2eeaa18e000163f6cd,2020-11-26_15h57.06.984,lexical_decision_task_MP_exp2,2020.2.5,Linux x86_64,60,,m,1,0.52814,,,,,,,,0.52814,1,,,,,,198,WORD,UN,33,invoke,WICKED,m,,,,,,0.04157726,-0.42894419,0,0,0,,0,243,243,137,1,
,,,,,,,,,,,,,,,,,,594a8e2eeaa18e000163f6cd,2020-11-26_15h57.06.984,lexical_decision_task_MP_exp2,2020.2.5,Linux x86_64,60,,z,1,0.597825,,,,,,,,0.597825,1,,,,,,334,NW,"ID",33,watmeg,WATMEG,z,,,,,,0.04157726,-0.42894419,0,0,0,,0,244,244,273,1,
,,,,,,,,,,,,,,,,,,594a8e2eeaa18e000163f6cd,2020-11-26_15h57.06.984,lexical_decision_task_MP_exp2,2020.2.5,Linux x86_64,60,,z,1,0.67022,,,,,,,,0.67022,1,,,,,,244,NW,UN,16,anougs,EATRIC,z,,,,,,0.04157726,-0.42894419,0,0,0,,0,245,245,423,1,
,,,,,,,,,,,,,,,,,,594a8e2eeaa18e000163f6cd,2020-11-26_15h57.06.984,lexical_decision_task_MP_exp2,2020.2.5,Linux x86_64,60,,m,1,0.586305,,,,,,,,0.586305,1,,,,,,148,WORD,"ID",16,custom,CUSTOM,m,,,,,,0.04157726,-0.42894419,0,0,0,,0,246,246,87,1,
,,,,,,,,,,,,,,,,,,594a8e2eeaa18e000163f6cd,2020-11-26_15h57.06.984,lexical_decision_task_MP_exp2,2020.2.5,Linux x86_64,60,,z,1,0.54704,,,,,,,,0.54704,1,,,,,,270,NW,UN,16,aubrid,WRIMSY,z,,,,,,0.04157726,-0.42894419,0,0,0,,0,247,247,449,1,
,,,,,,,,,,,,,,,,,,594a8e2eeaa18e000163f6cd,2020-11-26_15h57.06.984,lexical_decision_task_MP_exp2,2020.2.5,Linux x86_64,60,,m,1,0.51292,,,,,,,,0.51292,1,,,,,,197,WORD,UN,33,wicked,STREAM,m,,,,,,0.04157726,-0.42894419,0,0,0,,0,248,248,136,1,
,,,,,,,,,,,,,,,,,,594a8e2eeaa18e000163f6cd,2020-11-26_15h57.06.984,lexical_decision_task_MP_exp2,2020.2.5,Linux x86_64,60,,z,1,0.479205,,,,,,,,0.479205,1,,,,,,335,NW,"ID",33,desion,DESION,z,,,,,,0.04157726,-0.42894419,0,0,0,,0,249,249,274,1,
,,,,,,,,,,,,,,,,,,594a8e2eeaa18e000163f6cd,2020-11-26_15h57.06.984,lexical_decision_task_MP_exp2,2020.2.5,Linux x86_64,60,,m,1,0.52835,,,,,,,,0.52835,1,,,,,,174,WORD,"ID",16,turkey,TURKEY,m,,,,,,0.04157726,-0.42894419,0,0,0,,0,250,250,113,1,
,,,,,,,,,,,,,,,,,,594a8e2eeaa18e000163f6cd,2020-11-26_15h57.06.984,lexical_decision_task_MP_exp2,2020.2.5,Linux x86_64,60,,m,1,0.701595,,,,,,,,0.701595,1,,,,,,55,WORD,UN,16,ambush,STROKE,m,,,,,,0.04157726,-0.42894419,0,0,0,,0,251,251,234,1,
,,,,,,,,,,,,,,,,,,594a8e2eeaa18e000163f6cd,2020-11-26_15h57.06.984,lexical_decision_task_MP_exp2,2020.2.5,Linux x86_64,60,,z,1,0.598565,,,,,,,,0.598565,1,,,,,,420,NW,"ID",16,gushop,GUSHOP,z,,,,,,0.04157726,-0.42894419,0,0,0,,0,252,252,359,1,
,,,,,,,,,,,,,,,,,,594a8e2eeaa18e000163f6cd,2020-11-26_15h57.06.984,lexical_decision_task_MP_exp2,2020.2.5,Linux x86_64,60,,m,1,0.561285,,,,,,,,0.561285,1,,,,,,49,WORD,UN,16,snatch,SURVEY,m,,,,,,0.04157726,-0.42894419,0,0,0,,0,253,253,228,1,
,,,,,,,,,,,,,,,,,,594a8e2eeaa18e000163f6cd,2020-11-26_15h57.06.984,lexical_decision_task_MP_exp2,2020.2.5,Linux x86_64,60,,m,1,0.72583,,,,,,,,0.72583,1,,,,,,176,WORD,"ID",16,strife,STRIFE,m,,,,,,0.04157726,-0.42894419,0,0,0,,0,254,254,115,1,
,,,,,,,,,,,,,,,,,,594a8e2eeaa18e000163f6cd,2020-11-26_15h57.06.984,lexical_decision_task_MP_exp2,2020.2.5,Linux x86_64,60,,z,1,0.578045,,,,,,,,0.578045,1,,,,,,366,NW,"ID",16,toshel,TOSHEL,z,,,,,,0.04157726,-0.42894419,0,0,0,,0,255,255,305,1,
,,,,,,,,,,,,,,,,,,594a8e2eeaa18e000163f6cd,2020-11-26_15h57.06.984,lexical_decision_task_MP_exp2,2020.2.5,Linux x86_64,60,,z,1,0.67921,,,,,,,,0.67921,1,,,,,,388,NW,"ID",16,cragin,CRAGIN,z,,,,,,0.04157726,-0.42894419,0,0,0,,0,256,256,327,1,
,,,,,,,,,,,,,,,,,,594a8e2eeaa18e000163f6cd,2020-11-26_15h57.06.984,lexical_decision_task_MP_exp2,2020.2.5,Linux x86_64,60,,z,1,0.630115,,,,,,,,0.630115,1,,,,,,241,NW,UN,16,unwert,SMENCO,z,,,,,,0.04157726,-0.42894419,0,0,0,,0,257,257,420,1,
,,,,,,,,,,,,,,,,,,594a8e2eeaa18e000163f6cd,2020-11-26_15h57.06.984,lexical_decision_task_MP_exp2,2020.2.5,Linux x86_64,60,,z,1,0.536575,,,,,,,,0.536575,1,,,,,,379,NW,"ID",16,auting,AUTING,z,,,,,,0.04157726,-0.42894419,0,0,0,,0,258,258,318,1,
,,,,,,,,,,,,,,,,,,594a8e2eeaa18e000163f6cd,2020-11-26_15h57.06.984,lexical_decision_task_MP_exp2,2020.2.5,Linux x86_64,60,,m,1,0.68008,,,,,,,,0.68008,1,,,,,,76,WORD,"ID",33,exotic,EXOTIC,m,,,,,,0.04157726,-0.42894419,0,0,0,,0,259,259,15,1,
,,,,,,,,,,,,,,,,,,594a8e2eeaa18e000163f6cd,2020-11-26_15h57.06.984,lexical_decision_task_MP_exp2,2020.2.5,Linux x86_64,60,,m,1,0.517895,,,,,,,,0.517895,1,,,,,,155,WORD,"ID",16,lizard,LIZARD,m,,,,,,0.04157726,-0.42894419,0,0,0,,0,260,260,94,1,
,,,,,,,,,,,,,,,,,,594a8e2eeaa18e000163f6cd,2020-11-26_15h57.06.984,lexical_decision_task_MP_exp2,2020.2.5,Linux x86_64,60,,m,1,0.56521,,,,,,,,0.56521,1,,,,,,137,WORD,"ID",16,finger,FINGER,m,,,,,,0.04157726,-0.42894419,0,0,0,,0,261,261,76,1,
,,,,,,,,,,,,,,,,,,594a8e2eeaa18e000163f6cd,2020-11-26_15h57.06.984,lexical_decision_task_MP_exp2,2020.2.5,Linux x86_64,60,,m,1,0.530615,,,,,,,,0.530615,1,,,,,,146,WORD,"ID",16,couple,COUPLE,m,,,,,,0.04157726,-0.42894419,0,0,0,,0,262,262,85,1,
,,,,,,,,,,,,,,,,,,594a8e2eeaa18e000163f6cd,2020-11-26_15h57.06.984,lexical_decision_task_MP_exp2,2020.2.5,Linux x86_64,60,,m,1,0.498955,,,,,,,,0.498955,1,,,,,,109,WORD,"ID",33,wonder,WONDER,m,,,,,,0.04157726,-0.42894419,0,0,0,,0,263,263,48,1,
,,,,,,,,,,,,,,,,,,594a8e2eeaa18e000163f6cd,2020-11-26_15h57.06.984,lexical_decision_task_MP_exp2,2020.2.5,Linux x86_64,60,,m,1,0.51095,,,,,,,,0.51095,1,,,,,,124,WORD,"ID",16,blouse,BLOUSE,m,,,,,,0.04157726,-0.42894419,0,0,0,,0,264,264,63,1,
,,,,,,,,,,,,,,,,,,594a8e2eeaa18e000163f6cd,2020-11-26_15h57.06.984,lexical_decision_task_MP_exp2,2020.2.5,Linux x86_64,60,,z,1,0.66204,,,,,,,,0.66204,1,,,,,,243,NW,UN,16,eatric,MUSIED,z,,,,,,0.04157726,-0.42894419,0,0,0,,0,265,265,422,1,
,,,,,,,,,,,,,,,,,,594a8e2eeaa18e000163f6cd,2020-11-26_15h57.06.984,lexical_decision_task_MP_exp2,2020.2.5,Linux x86_64,60,,z,1,0.59756,,,,,,,,0.59756,1,,,,,,453,NW,UN,33,scouge,BOLVIS,z,,,,,,0.04157726,-0.42894419,0,0,0,,0,266,266,392,1,
,,,,,,,,,,,,,,,,,,594a8e2eeaa18e000163f6cd,2020-11-26_15h57.06.984,lexical_decision_task_MP_exp2,2020.2.5,Linux x86_64,60,,m,1,0.58632,,,,,,,,0.58632,1,,,,,,168,WORD,"ID",16,answer,ANSWER,m,,,,,,0.04157726,-0.42894419,0,0,0,,0,267,267,107,1,
,,,,,,,,,,,,,,,,,,594a8e2eeaa18e000163f6cd,2020-11-26_15h57.06.984,lexical_decision_task_MP_exp2,2020.2.5,Linux x86_64,60,,m,0,0.566975,,,,,,,,0.566975,0,,,,,,372,NW,"ID",16,ramily,RAMILY,z,,,,,,0.04157726,-0.42894419,0,0,0,,0,268,268,311,1,
,,,,,,,,,,,,,,,,,,594a8e2eeaa18e000163f6cd,2020-11-26_15h57.06.984,lexical_decision_task_MP_exp2,2020.2.5,Linux x86_64,60,,z,1,0.77792,,,,,,,,0.77792,1,,,,,,336,NW,"ID",33,ghodus,GHODUS,z,,,,,,0.04157726,-0.42894419,0,0,0,,0,269,269,275,1,
,,,,,,,,,,,,,,,,,,594a8e2eeaa18e000163f6cd,2020-11-26_15h57.06.984,lexical_decision_task_MP_exp2,2020.2.5,Linux x86_64,60,,m,1,0.62994,,,,,,,,0.62994,1,,,,,,43,WORD,UN,16,foster,TONGUE,m,,,,,,0.04157726,-0.42894419,0,0,0,,0,270,270,222,1,
,,,,,,,,,,,,,,,,,,594a8e2eeaa18e000163f6cd,2020-11-26_15h57.06.984,lexical_decision_task_MP_exp2,2020.2.5,Linux x86_64,60,,m,1,0.636305,,,,,,,,0.636305,1,,,,,,16,WORD,UN,16,charge,FAUCET,m,,,,,,0.04157726,-0.42894419,0,0,0,,0,271,271,195,1,
,,,,,,,,,,,,,,,,,,594a8e2eeaa18e000163f6cd,2020-11-26_15h57.06.984,lexical_decision_task_MP_exp2,2020.2.5,Linux x86_64,60,,m,1,0.580085,,,,,,,,0.580085,1,,,,,,68,WORD,"ID",33,fumble,FUMBLE,m,,,,,,0.04157726,-0.42894419,0,0,0,,0,272,272,7,1,
,,,,,,,,,,,,,,,,,,594a8e2eeaa18e000163f6cd,2020-11-26_15h57.06.984,lexical_decision_task_MP_exp2,2020.2.5,Linux x86_64,60,,z,1,0.668945,,,,,,,,0.668945,1,,,,,,317,NW,"ID",33,worbal,WORBAL,z,,,,,,0.04157726,-0.42894419,0,0,0,,0,273,273,256,1,
,,,,,,,,,,,,,,,,,,594a8e2eeaa18e000163f6cd,2020-11-26_15h57.06.984,lexical_decision_task_MP_exp2,2020.2.5,Linux x86_64,60,,z,1,0.578245,,,,,,,,0.578245,1,,,,,,329,NW,"ID",33,yarike,YARIKE,z,,,,,,0.04157726,-0.42894419,0,0,0,,0,274,274,268,1,
,,,,,,,,,,,,,,,,,,594a8e2eeaa18e000163f6cd,2020-11-26_15h57.06.984,lexical_decision_task_MP_exp2,2020.2.5,Linux x86_64,60,,z,1,0.662845,,,,,,,,0.662845,1,,,,,,245,NW,UN,16,piaton,ANOUGS,z,,,,,,0.04157726,-0.42894419,0,0,0,,0,275,275,424,1,
,,,,,,,,,,,,,,,,,,594a8e2eeaa18e000163f6cd,2020-11-26_15h57.06.984,lexical_decision_task_MP_exp2,2020.2.5,Linux x86_64,60,,z,0,0.53601,,,,,,,,0.53601,0,,,,,,227,WORD,UN,33,master,SELDOM,m,,,,,,0.04157726,-0.42894419,0,0,0,,0,276,276,166,1,
,,,,,,,,,,,,,,,,,,594a8e2eeaa18e000163f6cd,2020-11-26_15h57.06.984,lexical_decision_task_MP_exp2,2020.2.5,Linux x86_64,60,,m,1,0.68077,,,,,,,,0.68077,1,,,,,,89,WORD,"ID",33,permit,PERMIT,m,,,,,,0.04157726,-0.42894419,0,0,0,,0,277,277,28,1,
,,,,,,,,,,,,,,,,,,594a8e2eeaa18e000163f6cd,2020-11-26_15h57.06.984,lexical_decision_task_MP_exp2,2020.2.5,Linux x86_64,60,,m,1,0.51349,,,,,,,,0.51349,1,,,,,,228,WORD,UN,33,kidney,MASTER,m,,,,,,0.04157726,-0.42894419,0,0,0,,0,278,278,167,1,
,,,,,,,,,,,,,,,,,,594a8e2eeaa18e000163f6cd,2020-11-26_15h57.06.984,lexical_decision_task_MP_exp2,2020.2.5,Linux x86_64,60,,z,1,0.819685,,,,,,,,0.819685,1,,,,,,461,NW,UN,33,absult,JUSTRE,z,,,,,,0.04157726,-0.42894419,0,0,0,,0,279,279,400,1,
,,,,,,,,,,,,,,,,,,594a8e2eeaa18e000163f6cd,2020-11-26_15h57.06.984,lexical_decision_task_MP_exp2,2020.2.5,Linux x86_64,60,,z,1,0.534805,,,,,,,,0.534805,1,,,,,,429,NW,UN,33,caroey,FUNTLE,z,,,,,,0.04157726,-0.42894419,0,0,0,,0,280,280,368,1,
,,,,,,,,,,,,,,,,,,594a8e2eeaa18e000163f6cd,2020-11-26_15h57.06.984,lexical_decision_task_MP_exp2,2020.2.5,Linux x86_64,60,,m,1,0.63914,,,,,,,,0.63914,1,,,,,,102,WORD,"ID",33,direct,DIRECT,m,,,,,,0.04157726,-0.42894419,0,0,0,,0,281,281,41,1,
,,,,,,,,,,,,,,,,,,594a8e2eeaa18e000163f6cd,2020-11-26_15h57.06.984,lexical_decision_task_MP_exp2,2020.2.5,Linux x86_64,60,,z,1,0.66274,,,,,,,,0.66274,1,,,,,,297,NW,UN,16,piergy,FERTIC,z,,,,,,0.04157726,-0.42894419,0,0,0,,0,282,282,476,1,
,,,,,,,,,,,,,,,,,,594a8e2eeaa18e000163f6cd,2020-11-26_15h57.06.984,lexical_decision_task_MP_exp2,2020.2.5,Linux x86_64,60,,m,1,0.68173,,,,,,,,0.68173,1,,,,,,119,WORD,"ID",33,spider,SPIDER,m,,,,,,0.04157726,-0.42894419,0,0,0,,0,283,283,58,1,
,,,,,,,,,,,,,,,,,,594a8e2eeaa18e000163f6cd,2020-11-26_15h57.06.984,lexical_decision_task_MP_exp2,2020.2.5,Linux x86_64,60,,m,1,0.516105,,,,,,,,0.516105,1,,,,,,236,WORD,UN,33,grumpy,PIRATE,m,,,,,,0.04157726,-0.42894419,0,0,0,,0,284,284,175,1,
,,,,,,,,,,,,,,,,,,594a8e2eeaa18e000163f6cd,2020-11-26_15h57.06.984,lexical_decision_task_MP_exp2,2020.2.5,Linux x86_64,60,,z,1,0.578805,,,,,,,,0.578805,1,,,,,,380,NW,"ID",16,cavory,CAVORY,z,,,,,,0.04157726,-0.42894419,0,0,0,,0,285,285,319,1,
,,,,,,,,,,,,,,,,,,594a8e2eeaa18e000163f6cd,2020-11-26_15h57.06.984,lexical_decision_task_MP_exp2,2020.2.5,Linux x86_64,60,,z,1,0.632265,,,,,,,,0.632265,1,,,,,,250,NW,UN,16,lupict,MILTED,z,,,,,,0.04157726,-0.42894419,0,0,0,,0,286,286,429,1,
,,,,,,,,,,,,,,,,,,594a8e2eeaa18e000163f6cd,2020-11-26_15h57.06.984,lexical_decision_task_MP_exp2,2020.2.5,Linux x86_64,60,,z,1,0.54876,,,,,,,,0.54876,1,,,,,,262,NW,UN,16,dolica,QUILEW,z,,,,,,0.04157726,-0.42894419,0,0,0,,0,287,287,441,1,
,,,,,,,,,,,,,,,,,,594a8e2eeaa18e000163f6cd,2020-11-26_15h57.06.984,lexical_decision_task_MP_exp2,2020.2.5,Linux x86_64,60,,z,1,0.56284,,,,,,,,0.56284,1,,,,,,303,NW,"ID",33,fiream,FIREAM,z,,,,,,0.04157726,-0.42894419,0,0,0,,0,288,288,242,1,
,,,,,,,,,,,,,,,,,,594a8e2eeaa18e000163f6cd,2020-11-26_15h57.06.984,lexical_decision_task_MP_exp2,2020.2.5,Linux x86_64,60,,z,1,0.503155,,,,,,,,0.503155,1,,,,,,346,NW,"ID",33,saudic,SAUDIC,z,,,,,,0.04157726,-0.42894419,0,0,0,,0,289,289,285,1,
,,,,,,,,,,,,,,,,,,594a8e2eeaa18e000163f6cd,2020-11-26_15h57.06.984,lexical_decision_task_MP_exp2,2020.2.5,Linux x86_64,60,,z,1,0.55071,,,,,,,,0.55071,1,,,,,,343,NW,"ID",33,aimosy,AIMOSY,z,,,,,,0.04157726,-0.42894419,0,0,0,,0,290,290,282,1,
,,,,,,,,,,,,,,,,,,594a8e2eeaa18e000163f6cd,2020-11-26_15h57.06.984,lexical_decision_task_MP_exp2,2020.2.5,Linux x86_64,60,,m,1,0.63478,,,,,,,,0.63478,1,,,,,,224,WORD,UN,33,vulgar,PERIOD,m,,,,,,0.04157726,-0.42894419,0,0,0,,0,291,291,163,1,
,,,,,,,,,,,,,,,,,,594a8e2eeaa18e000163f6cd,2020-11-26_15h57.06.984,lexical_decision_task_MP_exp2,2020.2.5,Linux x86_64,60,,z,1,0.52879,,,,,,,,0.52879,1,,,,,,333,NW,"ID",33,catrie,CATRIE,z,,,,,,0.04157726,-0.42894419,0,0,0,,0,292,292,272,1,
,,,,,,,,,,,,,,,,,,594a8e2eeaa18e000163f6cd,2020-11-26_15h57.06.984,lexical_decision_task_MP_exp2,2020.2.5,Linux x86_64,60,,m,1,0.716805,,,,,,,,0.716805,1,,,,,,129,WORD,"ID",16,marvel,MARVEL,m,,,,,,0.04157726,-0.42894419,0,0,0,,0,293,293,68,1,
,,,,,,,,,,,,,,,,,,594a8e2eeaa18e000163f6cd,2020-11-26_15h57.06.984,lexical_decision_task_MP_exp2,2020.2.5,Linux x86_64,60,,z,1,0.546185,,,,,,,,0.546185,1,,,,,,378,NW,"ID",16,shrile,SHRILE,z,,,,,,0.04157726,-0.42894419,0,0,0,,0,294,294,317,1,
,,,,,,,,,,,,,,,,,,594a8e2eeaa18e000163f6cd,2020-11-26_15h57.06.984,lexical_decision_task_MP_exp2,2020.2.5,Linux x86_64,60,,m,1,0.751275,,,,,,,,0.751275,1,,,,,,28,WORD,UN,16,sketch,COMEDY,m,,,,,,0.04157726,-0.42894419,0,0,0,,0,295,295,207,1,
,,,,,,,,,,,,,,,,,,594a8e2eeaa18e000163f6cd,2020-11-26_15h57.06.984,lexical_decision_task_MP_exp2,2020.2.5,Linux x86_64,60,,z,1,0.59846,,,,,,,,0.59846,1,,,,,,467,NW,UN,33,wictor,GORBIE,z,,,,,,0.04157726,-0.42894419,0,0,0,,0,296,296,406,1,
,,,,,,,,,,,,,,,,,,594a8e2eeaa18e000163f6cd,2020-11-26_15h57.06.984,lexical_decision_task_MP_exp2,2020.2.5,Linux x86_64,60,,z,1,0.54725,,,,,,,,0.54725,1,,,,,,448,NW,UN,33,brunge,SADENT,z,,,,,,0.04157726,-0.42894419,0,0,0,,0,297,297,387,1,
,,,,,,,,,,,,,,,,,,594a8e2eeaa18e000163f6cd,2020-11-26_15h57.06.984,lexical_decision_task_MP_exp2,2020.2.5,Linux x86_64,60,,m,1,0.64881,,,,,,,,0.64881,1,,,,,,96,WORD,"ID",33,ignore,IGNORE,m,,,,,,0.04157726,-0.42894419,0,0,0,,0,298,298,35,1,
,,,,,,,,,,,,,,,,,,594a8e2eeaa18e000163f6cd,2020-11-26_15h57.06.984,lexical_decision_task_MP_exp2,2020.2.5,Linux x86_64,60,,z,1,0.544165,,,,,,,,0.544165,1,,,,,,390,NW,"ID",16,hatrus,HATRUS,z,,,,,,0.04157726,-0.42894419,0,0,0,,0,299,299,329,1,
,,,,,,,,,,,,,,,,,,594a8e2eeaa18e000163f6cd,2020-11-26_15h57.06.984,lexical_decision_task_MP_exp2,2020.2.5,Linux x86_64,60,,z,1,0.730325,,,,,,,,0.730325,1,,,,,,290,NW,UN,16,pretch,SPLINO,z,,,,,,0.04157726,-0.42894419,0,0,0,,0,300,300,469,1,
,,,,,,,,,,,,,,,,,,594a8e2eeaa18e000163f6cd,2020-11-26_15h57.06.984,lexical_decision_task_MP_exp2,2020.2.5,Linux x86_64,60,,z,1,0.697025,,,,,,,,0.697025,1,,,,,,437,NW,UN,33,baitch,SNAPEL,z,,,,,,0.04157726,-0.42894419,0,0,0,,0,301,301,376,1,
,,,,,,,,,,,,,,,,,,594a8e2eeaa18e000163f6cd,2020-11-26_15h57.06.984,lexical_decision_task_MP_exp2,2020.2.5,Linux x86_64,60,,z,1,0.75361,,,,,,,,0.75361,1,,,,,,314,NW,"ID",33,sprine,SPRINE,z,,,,,,0.04157726,-0.42894419,0,0,0,,0,302,302,253,1,
,,,,,,,,,,,,,,,,,,594a8e2eeaa18e000163f6cd,2020-11-26_15h57.06.984,lexical_decision_task_MP_exp2,2020.2.5,Linux x86_64,60,,m,1,0.621085,,,,,,,,0.621085,1,,,,,,77,WORD,"ID",33,racket,RACKET,m,,,,,,0.04157726,-0.42894419,0,0,0,,0,303,303,16,1,
,,,,,,,,,,,,,,,,,,594a8e2eeaa18e000163f6cd,2020-11-26_15h57.06.984,lexical_decision_task_MP_exp2,2020.2.5,Linux x86_64,60,,z,1,0.615355,,,,,,,,0.615355,1,,,,,,397,NW,"ID",16,camble,CAMBLE,z,,,,,,0.04157726,-0.42894419,0,0,0,,0,304,304,336,1,
,,,,,,,,,,,,,,,,,,594a8e2eeaa18e000163f6cd,2020-11-26_15h57.06.984,lexical_decision_task_MP_exp2,2020.2.5,Linux x86_64,60,,m,1,0.76944,,,,,,,,0.76944,1,,,,,,167,WORD,"ID",16,design,DESIGN,m,,,,,,0.04157726,-0.42894419,0,0,0,,0,305,305,106,1,
,,,,,,,,,,,,,,,,,,594a8e2eeaa18e000163f6cd,2020-11-26_15h57.06.984,lexical_decision_task_MP_exp2,2020.2.5,Linux x86_64,60,,m,1,0.49742,,,,,,,,0.49742,1,,,,,,180,WORD,"ID",16,silent,SILENT,m,,,,,,0.04157726,-0.42894419,0,0,0,,0,306,306,119,1,
,,,,,,,,,,,,,,,,,,594a8e2eeaa18e000163f6cd,2020-11-26_15h57.06.984,lexical_decision_task_MP_exp2,2020.2.5,Linux x86_64,60,,m,1,0.662415,,,,,,,,0.662415,1,,,,,,212,WORD,UN,33,squeal,VERIFY,m,,,,,,0.04157726,-0.42894419,0,0,0,,0,307,307,151,1,
,,,,,,,,,,,,,,,,,,594a8e2eeaa18e000163f6cd,2020-11-26_15h57.06.984,lexical_decision_task_MP_exp2,2020.2.5,Linux x86_64,60,,z,1,0.613625,,,,,,,,0.613625,1,,,,,,327,NW,"ID",33,plenac,PLENAC,z,,,,,,0.04157726,-0.42894419,0,0,0,,0,308,308,266,1,
,,,,,,,,,,,,,,,,,,594a8e2eeaa18e000163f6cd,2020-11-26_15h57.06.984,lexical_decision_task_MP_exp2,2020.2.5,Linux x86_64,60,,z,1,0.82516,,,,,,,,0.82516,1,,,,,,268,NW,UN,16,orchet,PACKES,z,,,,,,0.04157726,-0.42894419,0,0,0,,0,309,309,447,1,
,,,,,,,,,,,,,,,,,,594a8e2eeaa18e000163f6cd,2020-11-26_15h57.06.984,lexical_decision_task_MP_exp2,2020.2.5,Linux x86_64,60,,m,1,0.88239,,,,,,,,0.88239,1,,,,,,235,WORD,UN,33,pirate,GRUMPY,m,,,,,,0.04157726,-0.42894419,0,0,0,,0,310,310,174,1,
,,,,,,,,,,,,,,,,,,594a8e2eeaa18e000163f6cd,2020-11-26_15h57.06.984,lexical_decision_task_MP_exp2,2020.2.5,Linux x86_64,60,,m,1,0.517165,,,,,,,,0.517165,1,,,,,,202,WORD,UN,33,phrase,FACTOR,m,,,,,,0.04157726,-0.42894419,0,0,0,,0,311,311,141,1,
,,,,,,,,,,,,,,,,,,594a8e2eeaa18e000163f6cd,2020-11-26_15h57.06.984,lexical_decision_task_MP_exp2,2020.2.5,Linux x86_64,60,,z,1,0.63423,,,,,,,,0.63423,1,,,,,,370,NW,"ID",16,sleact,SLEACT,z,,,,,,0.04157726,-0.42894419,0,0,0,,0,312,312,309,1,
,,,,,,,,,,,,,,,,,,594a8e2eeaa18e000163f6cd,2020-11-26_15h57.06.984,lexical_decision_task_MP_exp2,2020.2.5,Linux x86_64,60,,z,1,0.561045,,,,,,,,0.561045,1,,,,,,274,NW,UN,16,sleirt,FUMBLO,z,,,,,,0.04157726,-0.42894419,0,0,0,,0,313,313,453,1,
,,,,,,,,,,,,,,,,,,594a8e2eeaa18e000163f6cd,2020-11-26_15h57.06.984,lexical_decision_task_MP_exp2,2020.2.5,Linux x86_64,60,,z,1,0.587945,,,,,,,,0.587945,1,,,,,,261,NW,UN,16,quilew,STUNCH,z,,,,,,0.04157726,-0.42894419,0,0,0,,0,314,314,440,1,
,,,,,,,,,,,,,,,,,,594a8e2eeaa18e000163f6cd,2020-11-26_15h57.06.984,lexical_decision_task_MP_exp2,2020.2.5,Linux x86_64,60,,m,1,0.62053,,,,,,,,0.62053,1,,,,,,58,WORD,UN,16,splint,FOSTER,m,,,,,,0.04157726,-0.42894419,0,0,0,,0,315,315,237,1,
,,,,,,,,,,,,,,,,,,594a8e2eeaa18e000163f6cd,2020-11-26_15h57.06.984,lexical_decision_task_MP_exp2,2020.2.5,Linux x86_64,60,,z,1,0.632735,,,,,,,,0.632735,1,,,,,,316,NW,"ID",33,scregm,SCREGM,z,,,,,,0.04157726,-0.42894419,0,0,0,,0,316,316,255,1,
,,,,,,,,,,,,,,,,,,594a8e2eeaa18e000163f6cd,2020-11-26_15h57.06.984,lexical_decision_task_MP_exp2,2020.2.5,Linux x86_64,60,,m,1,0.73097,,,,,,,,0.73097,1,,,,,,181,WORD,UN,33,winter,GLANCE,m,,,,,,0.04157726,-0.42894419,0,0,0,,0,317,317,120,1,
,,,,,,,,,,,,,,,,,,594a8e2eeaa18e000163f6cd,2020-11-26_15h57.06.984,lexical_decision_task_MP_exp2,2020.2.5,Linux x86_64,60,,m,1,0.576315,,,,,,,,0.576315,1,,,,,,20,WORD,UN,16,simple,BREAST,m,,,,,,0.04157726,-0.42894419,0,0,0,,0,318,318,199,1,
,,,,,,,,,,,,,,,,,,594a8e2eeaa18e000163f6cd,2020-11-26_15h57.06.984,lexical_decision_task_MP_exp2,2020.2.5,Linux x86_64,60,,z,1,0.58906,,,,,,,,0.58906,1,,,,,,413,NW,"ID",16,equats,EQUATS,z,,,,,,0.04157726,-0.42894419,0,0,0,,0,319,319,352,1,
,,,,,,,,,,,,,,,,,,594a8e2eeaa18e000163f6cd,2020-11-26_15h57.06.984,lexical_decision_task_MP_exp2,2020.2.5,Linux x86_64,60,,m,1,0.828125,,,,,,,,0.828125,1,,,,,,187,WORD,UN,33,social,COURSE,m,,,,,,0.04157726,-0.42894419,0,0,0,,0,320,320,126,1,
,,,,,,,,,,,,,,,,,,594a8e2eeaa18e000163f6cd,2020-11-26_15h57.06.984,lexical_decision_task_MP_exp2,2020.2.5,Linux x86_64,60,,z,1,0.629785,,,,,,,,0.629785,1,,,,,,389,NW,"ID",16,witmer,WITMER,z,,,,,,0.04157726,-0.42894419,0,0,0,,0,321,321,328,1,
,,,,,,,,,,,,,,,,,,594a8e2eeaa18e000163f6cd,2020-11-26_15h57.06.984,lexical_decision_task_MP_exp2,2020.2.5,Linux x86_64,60,,z,1,0.5443,,,,,,,,0.5443,1,,,,,,406,NW,"ID",16,nouply,NOUPLY,z,,,,,,0.04157726,-0.42894419,0,0,0,,0,322,322,345,1,
,,,,,,,,,,,,,,,,,,594a8e2eeaa18e000163f6cd,2020-11-26_15h57.06.984,lexical_decision_task_MP_exp2,2020.2.5,Linux x86_64,60,,m,1,0.61469,,,,,,,,0.61469,1,,,,,,193,WORD,UN,33,mildew,OBJECT,m,,,,,,0.04157726,-0.42894419,0,0,0,,0,323,323,132,1,
,,,,,,,,,,,,,,,,,,594a8e2eeaa18e000163f6cd,2020-11-26_15h57.06.984,lexical_decision_task_MP_exp2,2020.2.5,Linux x86_64,60,,m,1,0.53107,,,,,,,,0.53107,1,,,,,,229,WORD,UN,33,fringe,MOTHER,m,,,,,,0.04157726,-0.42894419,0,0,0,,0,324,324,168,1,
,,,,,,,,,,,,,,,,,,594a8e2eeaa18e000163f6cd,2020-11-26_15h57.06.984,lexical_decision_task_MP_exp2,2020.2.5,Linux x86_64,60,,m,1,0.54876,,,,,,,,0.54876,1,,,,,,238,WORD,UN,33,behalf,FLOWER,m,,,,,,0.04157726,-0.42894419,0,0,0,,0,325,325,177,1,
,,,,,,,,,,,,,,,,,,594a8e2eeaa18e000163f6cd,2020-11-26_15h57.06.984,lexical_decision_task_MP_exp2,2020.2.5,Linux x86_64,60,,m,1,0.665915,,,,,,,,0.665915,1,,,,,,121,WORD,"ID",16,thrive,THRIVE,m,,,,,,0.04157726,-0.42894419,0,0,0,,0,326,326,60,1,
,,,,,,,,,,,,,,,,,,594a8e2eeaa18e000163f6cd,2020-11-26_15h57.06.984,lexical_decision_task_MP_exp2,2020.2.5,Linux x86_64,60,,m,1,0.53441,,,,,,,,0.53441,1,,,,,,220,WORD,UN,33,mascot,VOYAGE,m,,,,,,0.04157726,-0.42894419,0,0,0,,0,327,327,159,1,
,,,,,,,,,,,,,,,,,,594a8e2eeaa18e000163f6cd,2020-11-26_15h57.06.984,lexical_decision_task_MP_exp2,2020.2.5,Linux x86_64,60,,m,1,0.59854,,,,,,,,0.59854,1,,,,,,100,WORD,"ID",33,carbon,CARBON,m,,,,,,0.04157726,-0.42894419,0,0,0,,0,328,328,39,1,
,,,,,,,,,,,,,,,,,,594a8e2eeaa18e000163f6cd,2020-11-26_15h57.06.984,lexical_decision_task_MP_exp2,2020.2.5,Linux x86_64,60,,m,1,0.74766,,,,,,,,0.74766,1,,,,,,13,WORD,UN,16,almost,STRIVE,m,,,,,,0.04157726,-0.42894419,0,0,0,,0,329,329,192,1,
,,,,,,,,,,,,,,,,,,594a8e2eeaa18e000163f6cd,2020-11-26_15h57.06.984,lexical_decision_task_MP_exp2,2020.2.5,Linux x86_64,60,,m,1,0.579785,,,,,,,,0.579785,1,,,,,,53,WORD,UN,16,ramble,POLICE,m,,,,,,0.04157726,-0.42894419,0,0,0,,0,330,330,232,1,
,,,,,,,,,,,,,,,,,,594a8e2eeaa18e000163f6cd,2020-11-26_15h57.06.984,lexical_decision_task_MP_exp2,2020.2.5,Linux x86_64,60,,z,1,0.61473,,,,,,,,0.61473,1,,,,,,401,NW,"ID",16,mustil,MUSTIL,z,,,,,,0.04157726,-0.42894419,0,0,0,,0,331,331,340,1,
,,,,,,,,,,,,,,,,,,594a8e2eeaa18e000163f6cd,2020-11-26_15h57.06.984,lexical_decision_task_MP_exp2,2020.2.5,Linux x86_64,60,,z,1,0.661085,,,,,,,,0.661085,1,,,,,,432,NW,UN,33,drance,LUNKER,z,,,,,,0.04157726,-0.42894419,0,0,0,,0,332,332,371,1,
,,,,,,,,,,,,,,,,,,594a8e2eeaa18e000163f6cd,2020-11-26_15h57.06.984,lexical_decision_task_MP_exp2,2020.2.5,Linux x86_64,60,,z,1,0.649555,,,,,,,,0.649555,1,,,,,,269,NW,UN,16,wrimsy,ORCHET,z,,,,,,0.04157726,-0.42894419,0,0,0,,0,333,333,448,1,
,,,,,,,,,,,,,,,,,,594a8e2eeaa18e000163f6cd,2020-11-26_15h57.06.984,lexical_decision_task_MP_exp2,2020.2.5,Linux x86_64,60,,m,1,0.59683,,,,,,,,0.59683,1,,,,,,233,WORD,UN,33,clumsy,NATURE,m,,,,,,0.04157726,-0.42894419,0,0,0,,0,334,334,172,1,
,,,,,,,,,,,,,,,,,,594a8e2eeaa18e000163f6cd,2020-11-26_15h57.06.984,lexical_decision_task_MP_exp2,2020.2.5,Linux x86_64,60,,m,1,0.54938,,,,,,,,0.54938,1,,,,,,10,WORD,UN,16,cruise,ETHNIC,m,,,,,,0.04157726,-0.42894419,0,0,0,,0,335,335,189,1,
,,,,,,,,,,,,,,,,,,594a8e2eeaa18e000163f6cd,2020-11-26_15h57.06.984,lexical_decision_task_MP_exp2,2020.2.5,Linux x86_64,60,,m,1,0.581585,,,,,,,,0.581585,1,,,,,,217,WORD,UN,33,shrink,LIQUOR,m,,,,,,0.04157726,-0.42894419,0,0,0,,0,336,336,156,1,
,,,,,,,,,,,,,,,,,,594a8e2eeaa18e000163f6cd,2020-11-26_15h57.06.984,lexical_decision_task_MP_exp2,2020.2.5,Linux x86_64,60,,m,1,0.56758,,,,,,,,0.56758,1,,,,,,32,WORD,UN,16,scream,BUCKLE,m,,,,,,0.04157726,-0.42894419,0,0,0,,0,337,337,211,1,
,,,,,,,,,,,,,,,,,,594a8e2eeaa18e000163f6cd,2020-11-26_15h57.06.984,lexical_decision_task_MP_exp2,2020.2.5,Linux x86_64,60,,m,1,0.549155,,,,,,,,0.549155,1,,,,,,6,WORD,UN,16,anchor,BUNDLE,m,,,,,,0.04157726,-0.42894419,0,0,0,,0,338,338,185,1,
,,,,,,,,,,,,,,,,,,594a8e2eeaa18e000163f6cd,2020-11-26_15h57.06.984,lexical_decision_task_MP_exp2,2020.2.5,Linux x86_64,60,,m,1,0.47922,,,,,,,,0.47922,1,,,,,,31,WORD,UN,16,buckle,WEAPON,m,,,,,,0.04157726,-0.42894419,0,0,0,,0,339,339,210,1,
,,,,,,,,,,,,,,,,,,594a8e2eeaa18e000163f6cd,2020-11-26_15h57.06.984,lexical_decision_task_MP_exp2,2020.2.5,Linux x86_64,60,,m,1,0.531015,,,,,,,,0.531015,1,,,,,,166,WORD,"ID",16,starch,STARCH,m,,,,,,0.04157726,-0.42894419,0,0,0,,0,340,340,105,1,
,,,,,,,,,,,,,,,,,,594a8e2eeaa18e000163f6cd,2020-11-26_15h57.06.984,lexical_decision_task_MP_exp2,2020.2.5,Linux x86_64,60,,m,1,0.565925,,,,,,,,0.565925,1,,,,,,178,WORD,"ID",16,inform,INFORM,m,,,,,,0.04157726,-0.42894419,0,0,0,,0,341,341,117,1,
,,,,,,,,,,,,,,,,,,594a8e2eeaa18e000163f6cd,2020-11-26_15h57.06.984,lexical_decision_task_MP_exp2,2020.2.5,Linux x86_64,60,,z,1,0.63273,,,,,,,,0.63273,1,,,,,,249,NW,UN,16,milted,BATROL,z,,,,,,0.04157726,-0.42894419,0,0,0,,0,342,342,428,1,
,,,,,,,,,,,,,,,,,,594a8e2eeaa18e000163f6cd,2020-11-26_15h57.06.984,lexical_decision_task_MP_exp2,2020.2.5,Linux x86_64,60,,z,1,0.63298,,,,,,,,0.63298,1,,,,,,313,NW,"ID",33,paurse,PAURSE,z,,,,,,0.04157726,-0.42894419,0,0,0,,0,343,343,252,1,
,,,,,,,,,,,,,,,,,,594a8e2eeaa18e000163f6cd,2020-11-26_15h57.06.984,lexical_decision_task_MP_exp2,2020.2.5,Linux x86_64,60,,z,1,0.51507,,,,,,,,0.51507,1,,,,,,418,NW,"ID",16,suidle,SUIDLE,z,,,,,,0.04157726,-0.42894419,0,0,0,,0,344,344,357,1,
,,,,,,,,,,,,,,,,,,594a8e2eeaa18e000163f6cd,2020-11-26_15h57.06.984,lexical_decision_task_MP_exp2,2020.2.5,Linux x86_64,60,,z,0,0.572445,,,,,,,,0.572445,0,,,,,,40,WORD,UN,16,spring,CONVEY,m,,,,,,0.04157726,-0.42894419,0,0,0,,0,345,345,219,1,
,,,,,,,,,,,,,,,,,,594a8e2eeaa18e000163f6cd,2020-11-26_15h57.06.984,lexical_decision_task_MP_exp2,2020.2.5,Linux x86_64,60,,m,1,0.747335,,,,,,,,0.747335,1,,,,,,41,WORD,UN,16,chapel,SPRING,m,,,,,,0.04157726,-0.42894419,0,0,0,,0,346,346,220,1,
,,,,,,,,,,,,,,,,,,594a8e2eeaa18e000163f6cd,2020-11-26_15h57.06.984,lexical_decision_task_MP_exp2,2020.2.5,Linux x86_64,60,,m,1,0.496165,,,,,,,,0.496165,1,,,,,,135,WORD,"ID",16,import,IMPORT,m,,,,,,0.04157726,-0.42894419,0,0,0,,0,347,347,74,1,
,,,,,,,,,,,,,,,,,,594a8e2eeaa18e000163f6cd,2020-11-26_15h57.06.984,lexical_decision_task_MP_exp2,2020.2.5,Linux x86_64,60,,z,1,0.629955,,,,,,,,0.629955,1,,,,,,283,NW,UN,16,shaple,VERALF,z,,,,,,0.04157726,-0.42894419,0,0,0,,0,348,348,462,1,
,,,,,,,,,,,,,,,,,,594a8e2eeaa18e000163f6cd,2020-11-26_15h57.06.984,lexical_decision_task_MP_exp2,2020.2.5,Linux x86_64,60,,z,1,0.56835,,,,,,,,0.56835,1,,,,,,385,NW,"ID",16,veigma,VEIGMA,z,,,,,,0.04157726,-0.42894419,0,0,0,,0,349,349,324,1,
,,,,,,,,,,,,,,,,,,594a8e2eeaa18e000163f6cd,2020-11-26_15h57.06.984,lexical_decision_task_MP_exp2,2020.2.5,Linux x86_64,60,,m,1,0.77694,,,,,,,,0.77694,1,,,,,,123,WORD,"ID",16,strike,STRIKE,m,,,,,,0.04157726,-0.42894419,0,0,0,,0,350,350,62,1,
,,,,,,,,,,,,,,,,,,594a8e2eeaa18e000163f6cd,2020-11-26_15h57.06.984,lexical_decision_task_MP_exp2,2020.2.5,Linux x86_64,60,,z,0,0.645865,,,,,,,,0.645865,0,,,,,,158,WORD,"ID",16,island,ISLAND,m,,,,,,0.04157726,-0.42894419,0,0,0,,0,351,351,97,1,
,,,,,,,,,,,,,,,,,,594a8e2eeaa18e000163f6cd,2020-11-26_15h57.06.984,lexical_decision_task_MP_exp2,2020.2.5,Linux x86_64,60,,m,0,0.74581,,,,,,,,0.74581,0,,,,,,253,NW,UN,16,varosh,RESAIT,z,,,,,,0.04157726,-0.42894419,0,0,0,,0,352,352,432,1,
,,,,,,,,,,,,,,,,,,594a8e2eeaa18e000163f6cd,2020-11-26_15h57.06.984,lexical_decision_task_MP_exp2,2020.2.5,Linux x86_64,60,,z,1,0.777685,,,,,,,,0.777685,1,,,,,,451,NW,UN,33,surden,CAINKY,z,,,,,,0.04157726,-0.42894419,0,0,0,,0,353,353,390,1,
,,,,,,,,,,,,,,,,,,594a8e2eeaa18e000163f6cd,2020-11-26_15h57.06.984,lexical_decision_task_MP_exp2,2020.2.5,Linux x86_64,60,,m,1,1.09691,,,,,,,,1.09691,1,,,,,,139,WORD,"ID",16,debris,DEBRIS,m,,,,,,0.04157726,-0.42894419,0,0,0,,0,354,354,78,1,
,,,,,,,,,,,,,,,,,,594a8e2eeaa18e000163f6cd,2020-11-26_15h57.06.984,lexical_decision_task_MP_exp2,2020.2.5,Linux x86_64,60,,z,1,0.595975,,,,,,,,0.595975,1,,,,,,400,NW,"ID",16,wearox,WEAROX,z,,,,,,0.04157726,-0.42894419,0,0,0,,0,355,355,339,1,
,,,,,,,,,,,,,,,,,,594a8e2eeaa18e000163f6cd,2020-11-26_15h57.06.984,lexical_decision_task_MP_exp2,2020.2.5,Linux x86_64,60,,z,1,0.535555,,,,,,,,0.535555,1,,,,,,356,NW,"ID",33,othnis,OTHNIS,z,,,,,,0.04157726,-0.42894419,0,0,0,,0,356,356,295,1,
,,,,,,,,,,,,,,,,,,594a8e2eeaa18e000163f6cd,2020-11-26_15h57.06.984,lexical_decision_task_MP_exp2,2020.2.5,Linux x86_64,60,,z,0,0.56857,,,,,,,,0.56857,0,,,,,,234,WORD,UN,33,poster,CLUMSY,m,,,,,,0.04157726,-0.42894419,0,0,0,,0,357,357,173,1,
,,,,,,,,,,,,,,,,,,594a8e2eeaa18e000163f6cd,2020-11-26_15h57.06.984,lexical_decision_task_MP_exp2,2020.2.5,Linux x86_64,60,,z,1,0.68366,,,,,,,,0.68366,1,,,,,,436,NW,UN,33,snapel,FRUTAN,z,,,,,,0.04157726,-0.42894419,0,0,0,,0,358,358,375,1,
,,,,,,,,,,,,,,,,,,594a8e2eeaa18e000163f6cd,2020-11-26_15h57.06.984,lexical_decision_task_MP_exp2,2020.2.5,Linux x86_64,60,,m,1,0.5206,,,,,,,,0.5206,1,,,,,,66,WORD,"ID",33,gospel,GOSPEL,m,,,,,,0.04157726,-0.42894419,0,0,0,,0,359,359,5,1,
,,,,,,,,,,,,,,,,,,594a8e2eeaa18e000163f6cd,2020-11-26_15h57.06.984,lexical_decision_task_MP_exp2,2020.2.5,Linux x86_64,60,,m,1,0.53171,,,,,,,,0.53171,1,,,,,,45,WORD,UN,16,single,CLERGY,m,,,,,,0.04157726,-0.42894419,0,0,0,,0,360,360,224,1,
,,,,,,,,,,,,,,,,,,594a8e2eeaa18e000163f6cd,2020-11-26_15h57.06.984,lexical_decision_task_MP_exp2,2020.2.5,Linux x86_64,60,,m,0,0.578565,,,,,,,,0.578565,0,,,,,,287,NW,UN,16,yaceup,NYMBEL,z,,,,,,0.04157726,-0.42894419,0,0,0,,0,361,361,466,1,
,,,,,,,,,,,,,,,,,,594a8e2eeaa18e000163f6cd,2020-11-26_15h57.06.984,lexical_decision_task_MP_exp2,2020.2.5,Linux x86_64,60,,z,1,0.61812,,,,,,,,0.61812,1,,,,,,341,NW,"ID",33,myrtie,MYRTIE,z,,,,,,0.028822819,-0.419307868,0,0,0,space,0,362,362,280,1,3.165355
,,,,,,,,,,,,,,,,,,594a8e2eeaa18e000163f6cd,2020-11-26_15h57.06.984,lexical_decision_task_MP_exp2,2020.2.5,Linux x86_64,60,,m,1,0.684195,,,,,,,,0.684195,1,,,,,,140,WORD,"ID",16,prince,PRINCE,m,,,,,,0.028822819,-0.419307868,0,0,0,,0,363,363,79,1,
,,,,,,,,,,,,,,,,,,594a8e2eeaa18e000163f6cd,2020-11-26_15h57.06.984,lexical_decision_task_MP_exp2,2020.2.5,Linux x86_64,60,,z,1,0.565655,,,,,,,,0.565655,1,,,,,,247,NW,UN,16,strole,BLARGE,z,,,,,,0.028822819,-0.419307868,0,0,0,,0,364,364,426,1,
,,,,,,,,,,,,,,,,,,594a8e2eeaa18e000163f6cd,2020-11-26_15h57.06.984,lexical_decision_task_MP_exp2,2020.2.5,Linux x86_64,60,,z,1,0.579025,,,,,,,,0.579025,1,,,,,,456,NW,UN,33,wanigh,BROGET,z,,,,,,0.028822819,-0.419307868,0,0,0,,0,365,365,395,1,
,,,,,,,,,,,,,,,,,,594a8e2eeaa18e000163f6cd,2020-11-26_15h57.06.984,lexical_decision_task_MP_exp2,2020.2.5,Linux x86_64,60,,z,1,0.54737,,,,,,,,0.54737,1,,,,,,439,NW,UN,33,saride,LIMPOR,z,,,,,,0.028822819,-0.419307868,0,0,0,,0,366,366,378,1,
,,,,,,,,,,,,,,,,,,594a8e2eeaa18e000163f6cd,2020-11-26_15h57.06.984,lexical_decision_task_MP_exp2,2020.2.5,Linux x86_64,60,,z,1,0.48226,,,,,,,,0.48226,1,,,,,,298,NW,UN,16,sturch,PIERGY,z,,,,,,0.028822819,-0.419307868,0,0,0,,0,367,367,477,1,
,,,,,,,,,,,,,,,,,,594a8e2eeaa18e000163f6cd,2020-11-26_15h57.06.984,lexical_decision_task_MP_exp2,2020.2.5,Linux x86_64,60,,z,1,0.56791,,,,,,,,0.56791,1,,,,,,463,NW,UN,33,chaite,KISPEL,z,,,,,,0.028822819,-0.419307868,0,0,0,,0,368,368,402,1,
,,,,,,,,,,,,,,,,,,594a8e2eeaa18e000163f6cd,2020-11-26_15h57.06.984,lexical_decision_task_MP_exp2,2020.2.5,Linux x86_64,60,,m,1,0.6599,,,,,,,,0.6599,1,,,,,,104,WORD,"ID",33,studio,STUDIO,m,,,,,,0.028822819,-0.419307868,0,0,0,,0,369,369,43,1,
,,,,,,,,,,,,,,,,,,594a8e2eeaa18e000163f6cd,2020-11-26_15h57.06.984,lexical_decision_task_MP_exp2,2020.2.5,Linux x86_64,60,,m,0,0.5969,,,,,,,,0.5969,0,,,,,,457,NW,UN,33,barcet,WANIGH,z,,,,,,0.028822819,-0.419307868,0,0,0,,0,370,370,396,1,
,,,,,,,,,,,,,,,,,,594a8e2eeaa18e000163f6cd,2020-11-26_15h57.06.984,lexical_decision_task_MP_exp2,2020.2.5,Linux x86_64,60,,m,0,0.87939,,,,,,,,0.87939,0,,,,,,462,NW,UN,33,kispel,ABSULT,z,,,,,,0.028822819,-0.419307868,0,0,0,,0,371,371,401,1,
,,,,,,,,,,,,,,,,,,594a8e2eeaa18e000163f6cd,2020-11-26_15h57.06.984,lexical_decision_task_MP_exp2,2020.2.5,Linux x86_64,60,,z,0,0.813245,,,,,,,,0.813245,0,,,,,,114,WORD,"ID",33,placid,PLACID,m,,,,,,0.028822819,-0.419307868,0,0,0,,0,372,372,53,1,
,,,,,,,,,,,,,,,,,,594a8e2eeaa18e000163f6cd,2020-11-26_15h57.06.984,lexical_decision_task_MP_exp2,2020.2.5,Linux x86_64,60,,m,1,1.514085,,,,,,,,1.514085,1,,,,,,216,WORD,UN,33,liquor,BEHALF,m,,,,,,0.028822819,-0.419307868,0,0,0,,0,373,373,155,1,
,,,,,,,,,,,,,,,,,,594a8e2eeaa18e000163f6cd,2020-11-26_15h57.06.984,lexical_decision_task_MP_exp2,2020.2.5,Linux x86_64,60,,z,1,0.664265,,,,,,,,0.664265,1,,,,,,468,NW,UN,33,padifs,WICTOR,z,,,,,,0.028822819,-0.419307868,0,0,0,,0,374,374,407,1,
,,,,,,,,,,,,,,,,,,594a8e2eeaa18e000163f6cd,2020-11-26_15h57.06.984,lexical_decision_task_MP_exp2,2020.2.5,Linux x86_64,60,,z,1,0.64703,,,,,,,,0.64703,1,,,,,,434,NW,UN,33,impurb,PITROM,z,,,,,,0.028822819,-0.419307868,0,0,0,,0,375,375,373,1,
,,,,,,,,,,,,,,,,,,594a8e2eeaa18e000163f6cd,2020-11-26_15h57.06.984,lexical_decision_task_MP_exp2,2020.2.5,Linux x86_64,60,,z,1,0.526835,,,,,,,,0.526835,1,,,,,,354,NW,"ID",33,virlex,VIRLEX,z,,,,,,0.028822819,-0.419307868,0,0,0,,0,376,376,293,1,
,,,,,,,,,,,,,,,,,,594a8e2eeaa18e000163f6cd,2020-11-26_15h57.06.984,lexical_decision_task_MP_exp2,2020.2.5,Linux x86_64,60,,z,1,0.599675,,,,,,,,0.599675,1,,,,,,472,NW,UN,33,gorbie,CIGNEY,z,,,,,,0.028822819,-0.419307868,0,0,0,,0,377,377,411,1,
,,,,,,,,,,,,,,,,,,594a8e2eeaa18e000163f6cd,2020-11-26_15h57.06.984,lexical_decision_task_MP_exp2,2020.2.5,Linux x86_64,60,,z,1,0.57004,,,,,,,,0.57004,1,,,,,,282,NW,UN,16,veralf,PORLEX,z,,,,,,0.028822819,-0.419307868,0,0,0,,0,378,378,461,1,
,,,,,,,,,,,,,,,,,,594a8e2eeaa18e000163f6cd,2020-11-26_15h57.06.984,lexical_decision_task_MP_exp2,2020.2.5,Linux x86_64,60,,m,1,0.61535,,,,,,,,0.61535,1,,,,,,57,WORD,UN,16,danger,CHANGE,m,,,,,,0.028822819,-0.419307868,0,0,0,,0,379,379,236,1,
,,,,,,,,,,,,,,,,,,594a8e2eeaa18e000163f6cd,2020-11-26_15h57.06.984,lexical_decision_task_MP_exp2,2020.2.5,Linux x86_64,60,,z,1,0.682205,,,,,,,,0.682205,1,,,,,,375,NW,"ID",16,yorque,YORQUE,z,,,,,,0.028822819,-0.419307868,0,0,0,,0,380,380,314,1,
,,,,,,,,,,,,,,,,,,594a8e2eeaa18e000163f6cd,2020-11-26_15h57.06.984,lexical_decision_task_MP_exp2,2020.2.5,Linux x86_64,60,,z,1,0.680775,,,,,,,,0.680775,1,,,,,,460,NW,UN,33,justre,MINGAR,z,,,,,,0.028822819,-0.419307868,0,0,0,,0,381,381,399,1,
