counterbalancing_condition,instr_done_keyboard.keys,instr_done_touch.x,instr_done_touch.y,instr_done_touch.leftButton,instr_done_touch.midButton,instr_done_touch.rightButton,instr_done_touch.clicked_name,instruction_pages.thisRepN,instruction_pages.thisTrialN,instruction_pages.thisN,instruction_pages.thisIndex,instruction_pages.ran,pageN,phase,instruct_text,has_image,instruct_image,participant,date,expName,psychopyVersion,OS,frameRate,response.keys,response.corr,touch_resp.x,touch_resp.y,touch_resp.leftButton,touch_resp.midButton,touch_resp.rightButton,touch_resp.time,touch_resp.clicked_name,rt,corr,practice_trials.thisRepN,practice_trials.thisTrialN,practice_trials.thisN,practice_trials.thisIndex,practice_trials.ran,TrialID,StimulusType,Condition,PrimeDuration,Prime,Target,corrAns,end_of_practice_trials_pages.thisRepN,end_of_practice_trials_pages.thisTrialN,end_of_practice_trials_pages.thisN,end_of_practice_trials_pages.thisIndex,end_of_practice_trials_pages.ran,break_done_touch.x,break_done_touch.y,break_done_touch.leftButton,break_done_touch.midButton,break_done_touch.rightButton,break_done_keyboard.keys,experiment_trials.thisRepN,experiment_trials.thisTrialN,experiment_trials.thisN,experiment_trials.thisIndex,experiment_trials.ran,break_done_touch.clicked_name
0,,-0.033420139,-0.377685547,1,0,0,instr_done_button,0,0,0,0,1,1,instructions,"INSTRUCTIONS
At the start of each trial, look at the hash marks (######) in the center of the screen. After a moment, a string of letters will appear. Your task is to indicate if the letter string forms a word or not (i.e., if it is a nonword). For example, AUTHOR is a word while AUTHON is a nonword.

Press the space bar or touch the button below to continue.",0,,5982ff7c127287000185f50a,2020-11-27_15h01.58.447,lexical_decision_task_MP_exp2,2020.2.5,Linux armv8l,60,,,,,,,,,,,,,,,,,,,,,,,,,,,,,,,,,,,,,,,,
,,-0.01953125,-0.392089844,1,0,0,instr_done_button,0,1,1,1,1,2,instructions,"If your device has a keyboard, press the 'Z' key for nonwords and the 'M' key for words.





Press the space bar or touch the button below to continue.",1,keyboard-example.gif,5982ff7c127287000185f50a,2020-11-27_15h01.58.447,lexical_decision_task_MP_exp2,2020.2.5,Linux armv8l,60,,,,,,,,,,,,,,,,,,,,,,,,,,,,,,,,,,,,,,,,
,,-0.061631944,-0.407226563,1,0,0,instr_done_button,0,2,2,2,1,3,instructions,"If you are using a touchscreen only device, use the buttons on the screen. Do not use the mouse.





Press the space bar or touch the button below to continue.",1,touchscreen-example.gif,5982ff7c127287000185f50a,2020-11-27_15h01.58.447,lexical_decision_task_MP_exp2,2020.2.5,Linux armv8l,60,,,,,,,,,,,,,,,,,,,,,,,,,,,,,,,,,,,,,,,,
,,-0.045138889,-0.404785156,1,0,0,instr_done_button,0,3,3,3,1,4,instructions,"It is very important that you respond as quickly and accurately as possible, as each letter string will only be on the screen for two seconds. If you do not respond within this time, the message 'Too slow!' will be displayed and the experiment will progress to the next letter string. The first 20 trials will be practice trials and you will receive feedback on your answers. 

Press the space bar or touch the button below to start the practice trials.",0,,5982ff7c127287000185f50a,2020-11-27_15h01.58.447,lexical_decision_task_MP_exp2,2020.2.5,Linux armv8l,60,,,,,,,,,,,,,,,,,,,,,,,,,,,,,,,,,,,,,,,,
,,,,,,,,,,,,,,,,,,5982ff7c127287000185f50a,2020-11-27_15h01.58.447,lexical_decision_task_MP_exp2,2020.2.5,Linux armv8l,60,,0,0.486545139,-0.280517578,1,0,0,1.0665,button_right,1.0665,1,0,0,0,1,1,1002,WORD,"ID",33,adjust,ADJUST,m,,,,,,,,,,,,,,,,,
,,,,,,,,,,,,,,,,,,5982ff7c127287000185f50a,2020-11-27_15h01.58.447,lexical_decision_task_MP_exp2,2020.2.5,Linux armv8l,60,,0,-0.427517361,-0.288330078,1,0,0,0.7226,button_left,0.7226,1,0,1,1,10,1,1011,NW,"ID",16,inlade,INLADE,z,,,,,,,,,,,,,,,,,
,,,,,,,,,,,,,,,,,,5982ff7c127287000185f50a,2020-11-27_15h01.58.447,lexical_decision_task_MP_exp2,2020.2.5,Linux armv8l,60,,0,0.434895833,-0.294677734,1,0,0,0.7071,button_right,0.7071,1,0,2,2,6,1,1007,WORD,UN,16,tropic,ZOMBIE,m,,,,,,,,,,,,,,,,,
,,,,,,,,,,,,,,,,,,5982ff7c127287000185f50a,2020-11-27_15h01.58.447,lexical_decision_task_MP_exp2,2020.2.5,Linux armv8l,60,,0,0.438368056,-0.308349609,1,0,0,0.7184,button_right,0.7184,1,0,3,3,0,1,1001,WORD,"ID",33,utopia,UTOPIA,m,,,,,,,,,,,,,,,,,
,,,,,,,,,,,,,,,,,,5982ff7c127287000185f50a,2020-11-27_15h01.58.447,lexical_decision_task_MP_exp2,2020.2.5,Linux armv8l,60,,0,0.44140625,-0.288085938,1,0,0,0.5708,button_right,0.5708,1,0,4,4,2,1,1003,WORD,"ID",16,almond,ALMOND,m,,,,,,,,,,,,,,,,,
,,,,,,,,,,,,,,,,,,5982ff7c127287000185f50a,2020-11-27_15h01.58.447,lexical_decision_task_MP_exp2,2020.2.5,Linux armv8l,60,,0,-0.3828125,-0.301269531,1,0,0,0.7165,button_left,0.7165,1,0,5,5,12,1,1013,NW,UN,33,adveil,SPRINY,z,,,,,,,,,,,,,,,,,
,,,,,,,,,,,,,,,,,,5982ff7c127287000185f50a,2020-11-27_15h01.58.447,lexical_decision_task_MP_exp2,2020.2.5,Linux armv8l,60,,0,-0.37109375,-0.282714844,1,0,0,0.714,button_left,0.714,1,0,6,6,15,1,1016,NW,UN,16,mushed,WHAISE,z,,,,,,,,,,,,,,,,,
,,,,,,,,,,,,,,,,,,5982ff7c127287000185f50a,2020-11-27_15h01.58.447,lexical_decision_task_MP_exp2,2020.2.5,Linux armv8l,60,,0,-0.379774306,-0.283447266,1,0,0,0.6925,button_left,0.6925,1,0,7,7,9,1,1010,NW,"ID",33,fariny,FARINY,z,,,,,,,,,,,,,,,,,
,,,,,,,,,,,,,,,,,,5982ff7c127287000185f50a,2020-11-27_15h01.58.447,lexical_decision_task_MP_exp2,2020.2.5,Linux armv8l,60,,0,0.454861111,-0.302490234,1,0,0,0.6294,button_right,0.6294,1,0,8,8,7,1,1008,WORD,UN,16,hurdle,VOLUME,m,,,,,,,,,,,,,,,,,
,,,,,,,,,,,,,,,,,,5982ff7c127287000185f50a,2020-11-27_15h01.58.447,lexical_decision_task_MP_exp2,2020.2.5,Linux armv8l,60,,0,0.431423611,-0.279541016,1,0,0,0.6239,button_right,0.6239,1,0,9,9,3,1,1004,WORD,"ID",16,matrix,MATRIX,m,,,,,,,,,,,,,,,,,
,,,,,,,,,,,,,,,,,,5982ff7c127287000185f50a,2020-11-27_15h01.58.447,lexical_decision_task_MP_exp2,2020.2.5,Linux armv8l,60,,0,-0.370225694,-0.294677734,1,0,0,0.8152,button_left,0.8152,1,0,10,10,14,1,1015,NW,UN,16,miaber,THRALE,z,,,,,,,,,,,,,,,,,
,,,,,,,,,,,,,,,,,,5982ff7c127287000185f50a,2020-11-27_15h01.58.447,lexical_decision_task_MP_exp2,2020.2.5,Linux armv8l,60,,0,-0.3515625,-0.280273438,1,0,0,0.7173,button_left,0.7173,1,0,11,11,8,1,1009,NW,"ID",33,aslert,ASLERT,z,,,,,,,,,,,,,,,,,
,,,,,,,,,,,,,,,,,,5982ff7c127287000185f50a,2020-11-27_15h01.58.447,lexical_decision_task_MP_exp2,2020.2.5,Linux armv8l,60,,0,-0.369791667,-0.292480469,1,0,0,0.6066,button_left,0.6066,1,0,12,12,13,1,1014,NW,UN,33,winfer,ROUPET,z,,,,,,,,,,,,,,,,,
,,,,,,,,,,,,,,,,,,5982ff7c127287000185f50a,2020-11-27_15h01.58.447,lexical_decision_task_MP_exp2,2020.2.5,Linux armv8l,60,,0,0.41796875,-0.276123047,1,0,0,0.5312,button_right,0.5312,1,0,13,13,5,1,1006,WORD,UN,33,frenzy,OBTAIN,m,,,,,,,,,,,,,,,,,
,,,,,,,,,,,,,,,,,,5982ff7c127287000185f50a,2020-11-27_15h01.58.447,lexical_decision_task_MP_exp2,2020.2.5,Linux armv8l,60,,0,-0.368055556,-0.294433594,1,0,0,0.7014,button_left,0.7014,1,0,14,14,11,1,1012,NW,"ID",16,rashet,RASHET,z,,,,,,,,,,,,,,,,,
,,,,,,,,,,,,,,,,,,5982ff7c127287000185f50a,2020-11-27_15h01.58.447,lexical_decision_task_MP_exp2,2020.2.5,Linux armv8l,60,,0,0.417100694,-0.282714844,1,0,0,0.5929,button_right,0.5929,1,0,15,15,4,1,1005,WORD,UN,33,abound,SQUEAK,m,,,,,,,,,,,,,,,,,
,,-0.116319444,-0.406005859,1,0,0,instr_done_button,,,,,,1,end_of_practice,"You have completed the practice trials. During the experimental trials, you will not receive feedback, but it is very important that you respond as quickly and accurately as possible. 
Before you begin, please ensure that you are in a comfortable and quiet location and will not be disturbed for about 15 minutes, as we cannot use your data if you do not complete all the trials. 
There will be opportunities to take breaks at regular intervals during the experiment. When you are ready to start the experimental trials, please press space or touch the button below.",,,5982ff7c127287000185f50a,2020-11-27_15h01.58.447,lexical_decision_task_MP_exp2,2020.2.5,Linux armv8l,60,,,,,,,,,,,,,,,,,,,,,,,,0,0,0,0,1,,,,,,,,,,,,
,,,,,,,,,,,,,,,,,,5982ff7c127287000185f50a,2020-11-27_15h01.58.447,lexical_decision_task_MP_exp2,2020.2.5,Linux armv8l,60,,0,-0.434027778,-0.305175781,1,0,0,1.1459,button_left,1.1459,1,,,,,,357,NW,UN,33,fleack,DERAIN,z,,,,,,-0.434027778,-0.305175781,1,0,0,,0,0,0,416,1,
,,,,,,,,,,,,,,,,,,5982ff7c127287000185f50a,2020-11-27_15h01.58.447,lexical_decision_task_MP_exp2,2020.2.5,Linux armv8l,60,,0,-0.409288194,-0.267578125,1,0,0,0.6587,button_left,0.6587,1,,,,,,427,NW,"ID",33,schind,SCHIND,z,,,,,,-0.409288194,-0.267578125,1,0,0,,0,1,1,246,1,
,,,,,,,,,,,,,,,,,,5982ff7c127287000185f50a,2020-11-27_15h01.58.447,lexical_decision_task_MP_exp2,2020.2.5,Linux armv8l,60,,0,-0.405815972,-0.27734375,1,0,0,0.6721,button_left,0.6721,1,,,,,,391,NW,UN,16,rouncy,THELDY,z,,,,,,-0.405815972,-0.27734375,1,0,0,,0,2,2,450,1,
,,,,,,,,,,,,,,,,,,5982ff7c127287000185f50a,2020-11-27_15h01.58.447,lexical_decision_task_MP_exp2,2020.2.5,Linux armv8l,60,,0,0.438368056,-0.254394531,1,0,0,0.7096,button_right,0.7096,1,,,,,,10,WORD,"ID",16,ethnic,ETHNIC,m,,,,,,0.438368056,-0.254394531,1,0,0,,0,3,3,69,1,
,,,,,,,,,,,,,,,,,,5982ff7c127287000185f50a,2020-11-27_15h01.58.447,lexical_decision_task_MP_exp2,2020.2.5,Linux armv8l,60,,0,0.431423611,-0.252441406,1,0,0,0.5709,button_right,0.5709,1,,,,,,192,WORD,"ID",33,plague,PLAGUE,m,,,,,,0.431423611,-0.252441406,1,0,0,,0,4,4,11,1,
,,,,,,,,,,,,,,,,,,5982ff7c127287000185f50a,2020-11-27_15h01.58.447,lexical_decision_task_MP_exp2,2020.2.5,Linux armv8l,60,,0,-0.401909722,-0.281738281,1,0,0,0.6747,button_left,0.6747,1,,,,,,434,NW,"ID",33,pitrom,PITROM,z,,,,,,-0.401909722,-0.281738281,1,0,0,,0,5,5,253,1,
,,,,,,,,,,,,,,,,,,5982ff7c127287000185f50a,2020-11-27_15h01.58.447,lexical_decision_task_MP_exp2,2020.2.5,Linux armv8l,60,,0,0.419704861,-0.260986328,1,0,0,0.7035,button_right,0.7035,1,,,,,,133,WORD,UN,16,staple,CHROME,m,,,,,,0.419704861,-0.260986328,1,0,0,,0,6,6,192,1,
,,,,,,,,,,,,,,,,,,5982ff7c127287000185f50a,2020-11-27_15h01.58.447,lexical_decision_task_MP_exp2,2020.2.5,Linux armv8l,60,,0,-0.391927083,-0.272705078,1,0,0,0.7698,button_left,0.7698,1,,,,,,404,NW,UN,16,flumni,CLUIRM,z,,,,,,-0.391927083,-0.272705078,1,0,0,,0,7,7,463,1,
,,,,,,,,,,,,,,,,,,5982ff7c127287000185f50a,2020-11-27_15h01.58.447,lexical_decision_task_MP_exp2,2020.2.5,Linux armv8l,60,,0,-0.37890625,-0.267578125,1,0,0,0.6378,button_left,0.6378,1,,,,,,372,NW,UN,16,bigent,RAMILY,z,,,,,,-0.37890625,-0.267578125,1,0,0,,0,8,8,431,1,
,,,,,,,,,,,,,,,,,,5982ff7c127287000185f50a,2020-11-27_15h01.58.447,lexical_decision_task_MP_exp2,2020.2.5,Linux armv8l,60,,0,0.427083333,-0.259765625,1,0,0,0.6301,button_right,0.6301,1,,,,,,80,WORD,UN,33,friend,FAMILY,m,,,,,,0.427083333,-0.259765625,1,0,0,,0,9,9,139,1,
,,,,,,,,,,,,,,,,,,5982ff7c127287000185f50a,2020-11-27_15h01.58.447,lexical_decision_task_MP_exp2,2020.2.5,Linux armv8l,60,,0,0.417534722,-0.264160156,1,0,0,0.5829,button_right,0.5829,1,,,,,,157,WORD,UN,16,island,DRAGON,m,,,,,,0.417534722,-0.264160156,1,0,0,,0,10,10,216,1,
,,,,,,,,,,,,,,,,,,5982ff7c127287000185f50a,2020-11-27_15h01.58.447,lexical_decision_task_MP_exp2,2020.2.5,Linux armv8l,60,,0,0.419704861,-0.264892578,1,0,0,0.5672,button_right,0.5672,1,,,,,,147,WORD,UN,16,custom,GARLIC,m,,,,,,0.419704861,-0.264892578,1,0,0,,0,11,11,206,1,
,,,,,,,,,,,,,,,,,,5982ff7c127287000185f50a,2020-11-27_15h01.58.447,lexical_decision_task_MP_exp2,2020.2.5,Linux armv8l,60,,0,-0.365451389,-0.28125,1,0,0,0.5366,button_left,0.5366,1,,,,,,408,NW,UN,16,elopia,HURNIA,z,,,,,,-0.365451389,-0.28125,1,0,0,,0,12,12,467,1,
,,,,,,,,,,,,,,,,,,5982ff7c127287000185f50a,2020-11-27_15h01.58.447,lexical_decision_task_MP_exp2,2020.2.5,Linux armv8l,60,,0,-0.381510417,-0.285400391,1,0,0,0.6517,button_left,0.6517,1,,,,,,272,NW,"ID",16,damilt,DAMILT,z,,,,,,-0.381510417,-0.285400391,1,0,0,,0,13,13,331,1,
,,,,,,,,,,,,,,,,,,5982ff7c127287000185f50a,2020-11-27_15h01.58.447,lexical_decision_task_MP_exp2,2020.2.5,Linux armv8l,60,,0,0.41015625,-0.251464844,1,0,0,0.6995,button_right,0.6995,1,,,,,,66,WORD,UN,33,policy,GOSPEL,m,,,,,,0.41015625,-0.251464844,1,0,0,,0,14,14,125,1,
,,,,,,,,,,,,,,,,,,5982ff7c127287000185f50a,2020-11-27_15h01.58.447,lexical_decision_task_MP_exp2,2020.2.5,Linux armv8l,60,,0,-0.383246528,-0.279541016,1,0,0,0.659,button_left,0.659,1,,,,,,353,NW,UN,33,virlex,CLUREY,z,,,,,,-0.383246528,-0.279541016,1,0,0,,0,15,15,412,1,
,,,,,,,,,,,,,,,,,,5982ff7c127287000185f50a,2020-11-27_15h01.58.447,lexical_decision_task_MP_exp2,2020.2.5,Linux armv8l,60,,0,0.407986111,-0.264648438,1,0,0,0.6398,button_right,0.6398,1,,,,,,181,WORD,"ID",33,glance,GLANCE,m,,,,,,0.407986111,-0.264648438,1,0,0,,0,16,16,0,1,
,,,,,,,,,,,,,,,,,,5982ff7c127287000185f50a,2020-11-27_15h01.58.447,lexical_decision_task_MP_exp2,2020.2.5,Linux armv8l,60,,0,0.428385417,-0.261230469,1,0,0,0.6051,button_right,0.6051,1,,,,,,228,WORD,"ID",33,master,MASTER,m,,,,,,0.428385417,-0.261230469,1,0,0,,0,17,17,47,1,
,,,,,,,,,,,,,,,,,,5982ff7c127287000185f50a,2020-11-27_15h01.58.447,lexical_decision_task_MP_exp2,2020.2.5,Linux armv8l,60,,0,0.411892361,-0.260742188,1,0,0,0.5849,button_right,0.5849,1,,,,,,138,WORD,UN,16,debris,MELODY,m,,,,,,0.411892361,-0.260742188,1,0,0,,0,18,18,197,1,
,,,,,,,,,,,,,,,,,,5982ff7c127287000185f50a,2020-11-27_15h01.58.447,lexical_decision_task_MP_exp2,2020.2.5,Linux armv8l,60,,0,-0.364149306,-0.288330078,1,0,0,0.633,button_left,0.633,1,,,,,,367,NW,UN,16,hornal,SLIQUE,z,,,,,,-0.364149306,-0.288330078,1,0,0,,0,19,19,426,1,
,,,,,,,,,,,,,,,,,,5982ff7c127287000185f50a,2020-11-27_15h01.58.447,lexical_decision_task_MP_exp2,2020.2.5,Linux armv8l,60,,0,0.421875,-0.259277344,1,0,0,0.5567,button_right,0.5567,1,,,,,,118,WORD,UN,33,spider,FLIGHT,m,,,,,,0.421875,-0.259277344,1,0,0,,0,20,20,177,1,
,,,,,,,,,,,,,,,,,,5982ff7c127287000185f50a,2020-11-27_15h01.58.447,lexical_decision_task_MP_exp2,2020.2.5,Linux armv8l,60,,0,0.423611111,-0.260253906,1,0,0,0.6157,button_right,0.6157,1,,,,,,177,WORD,UN,16,inform,ADVENT,m,,,,,,0.423611111,-0.260253906,1,0,0,,0,21,21,236,1,
,,,,,,,,,,,,,,,,,,5982ff7c127287000185f50a,2020-11-27_15h01.58.447,lexical_decision_task_MP_exp2,2020.2.5,Linux armv8l,60,,0,-0.360677083,-0.268798828,1,0,0,0.6684,button_left,0.6684,1,,,,,,395,NW,UN,16,flengy,COLURY,z,,,,,,-0.360677083,-0.268798828,1,0,0,,0,22,22,454,1,
,,,,,,,,,,,,,,,,,,5982ff7c127287000185f50a,2020-11-27_15h01.58.447,lexical_decision_task_MP_exp2,2020.2.5,Linux armv8l,60,,0,0.417534722,-0.262207031,1,0,0,0.6534,button_right,0.6534,1,,,,,,59,WORD,"ID",16,splint,SPLINT,m,,,,,,0.417534722,-0.262207031,1,0,0,,0,23,23,118,1,
,,,,,,,,,,,,,,,,,,5982ff7c127287000185f50a,2020-11-27_15h01.58.447,lexical_decision_task_MP_exp2,2020.2.5,Linux armv8l,60,,0,-0.357638889,-0.2734375,1,0,0,0.7439,button_left,0.7439,1,,,,,,311,NW,UN,33,nerawl,SPROLY,z,,,,,,-0.357638889,-0.2734375,1,0,0,,0,24,24,370,1,
,,,,,,,,,,,,,,,,,,5982ff7c127287000185f50a,2020-11-27_15h01.58.447,lexical_decision_task_MP_exp2,2020.2.5,Linux armv8l,60,,0,0.403211806,-0.264404297,1,0,0,0.6158,button_right,0.6158,1,,,,,,144,WORD,UN,16,parish,SPONGE,m,,,,,,0.403211806,-0.264404297,1,0,0,,0,25,25,203,1,
,,,,,,,,,,,,,,,,,,5982ff7c127287000185f50a,2020-11-27_15h01.58.447,lexical_decision_task_MP_exp2,2020.2.5,Linux armv8l,60,,0,0.397135417,-0.258544922,1,0,0,0.6584,button_right,0.6584,1,,,,,,220,WORD,"ID",33,voyage,VOYAGE,m,,,,,,0.397135417,-0.258544922,1,0,0,,0,26,26,39,1,
,,,,,,,,,,,,,,,,,,5982ff7c127287000185f50a,2020-11-27_15h01.58.447,lexical_decision_task_MP_exp2,2020.2.5,Linux armv8l,60,,0,-0.351996528,-0.280273438,1,0,0,0.7155,button_left,0.7155,1,,,,,,343,NW,UN,33,scrily,AIMOSY,z,,,,,,-0.351996528,-0.280273438,1,0,0,,0,27,27,402,1,
,,,,,,,,,,,,,,,,,,5982ff7c127287000185f50a,2020-11-27_15h01.58.447,lexical_decision_task_MP_exp2,2020.2.5,Linux armv8l,60,,0,-0.35546875,-0.28125,1,0,0,0.7475,button_left,0.7475,1,,,,,,271,NW,"ID",16,aubrid,AUBRID,z,,,,,,-0.35546875,-0.28125,1,0,0,,0,28,28,330,1,
,,,,,,,,,,,,,,,,,,5982ff7c127287000185f50a,2020-11-27_15h01.58.447,lexical_decision_task_MP_exp2,2020.2.5,Linux armv8l,60,,0,0.410590278,-0.280029297,1,0,0,0.9511,button_right,0.9511,1,,,,,,139,WORD,UN,16,prince,DEBRIS,m,,,,,,0.410590278,-0.280029297,1,0,0,,0,29,29,198,1,
,,,,,,,,,,,,,,,,,,5982ff7c127287000185f50a,2020-11-27_15h01.58.447,lexical_decision_task_MP_exp2,2020.2.5,Linux armv8l,60,,0,-0.360243056,-0.284423828,1,0,0,0.8697,button_left,0.8697,1,,,,,,467,NW,"ID",33,gorbie,GORBIE,z,,,,,,-0.360243056,-0.284423828,1,0,0,,0,30,30,286,1,
,,,,,,,,,,,,,,,,,,5982ff7c127287000185f50a,2020-11-27_15h01.58.447,lexical_decision_task_MP_exp2,2020.2.5,Linux armv8l,60,,0,-0.348958333,-0.277099609,1,0,0,0.6837,button_left,0.6837,1,,,,,,403,NW,UN,16,cluirm,BRUATS,z,,,,,,-0.348958333,-0.277099609,1,0,0,,0,31,31,462,1,
,,,,,,,,,,,,,,,,,,5982ff7c127287000185f50a,2020-11-27_15h01.58.447,lexical_decision_task_MP_exp2,2020.2.5,Linux armv8l,60,,0,0.411458333,-0.266357422,1,0,0,0.6476,button_right,0.6476,1,,,,,,64,WORD,UN,33,symbol,THRONE,m,,,,,,0.411458333,-0.266357422,1,0,0,,0,32,32,123,1,
,,,,,,,,,,,,,,,,,,5982ff7c127287000185f50a,2020-11-27_15h01.58.447,lexical_decision_task_MP_exp2,2020.2.5,Linux armv8l,60,,0,0.415798611,-0.270996094,1,0,0,0.6396,button_right,0.6396,1,,,,,,14,WORD,"ID",16,almost,ALMOST,m,,,,,,0.415798611,-0.270996094,1,0,0,,0,33,33,73,1,
,,,,,,,,,,,,,,,,,,5982ff7c127287000185f50a,2020-11-27_15h01.58.447,lexical_decision_task_MP_exp2,2020.2.5,Linux armv8l,60,,0,-0.336371528,-0.275878906,1,0,0,0.7685,button_left,0.7685,1,,,,,,473,NW,"ID",33,crible,CRIBLE,z,,,,,,-0.336371528,-0.275878906,1,0,0,,0,34,34,292,1,
,,,,,,,,,,,,,,,,,,5982ff7c127287000185f50a,2020-11-27_15h01.58.447,lexical_decision_task_MP_exp2,2020.2.5,Linux armv8l,60,,0,-0.337673611,-0.28515625,1,0,0,0.6687,button_left,0.6687,1,,,,,,471,NW,"ID",33,nobest,NOBEST,z,,,,,,-0.337673611,-0.28515625,1,0,0,,0,35,35,290,1,
,,,,,,,,,,,,,,,,,,5982ff7c127287000185f50a,2020-11-27_15h01.58.447,lexical_decision_task_MP_exp2,2020.2.5,Linux armv8l,60,,0,-0.329861111,-0.286865234,1,0,0,0.8295,button_left,0.8295,1,,,,,,325,NW,UN,33,iguade,THRUSE,z,,,,,,-0.329861111,-0.286865234,1,0,0,,0,36,36,384,1,
,,,,,,,,,,,,,,,,,,5982ff7c127287000185f50a,2020-11-27_15h01.58.447,lexical_decision_task_MP_exp2,2020.2.5,Linux armv8l,60,,0,0.411892361,-0.268798828,1,0,0,0.5959,button_right,0.5959,1,,,,,,226,WORD,"ID",33,casino,CASINO,m,,,,,,0.411892361,-0.268798828,1,0,0,,0,37,37,45,1,
,,,,,,,,,,,,,,,,,,5982ff7c127287000185f50a,2020-11-27_15h01.58.447,lexical_decision_task_MP_exp2,2020.2.5,Linux armv8l,60,,0,-0.33984375,-0.284423828,1,0,0,0.7642,button_left,0.7642,1,,,,,,366,NW,UN,16,slique,TOSHEL,z,,,,,,-0.33984375,-0.284423828,1,0,0,,0,38,38,425,1,
,,,,,,,,,,,,,,,,,,5982ff7c127287000185f50a,2020-11-27_15h01.58.447,lexical_decision_task_MP_exp2,2020.2.5,Linux armv8l,60,,0,-0.349392361,-0.2734375,1,0,0,0.6242,button_left,0.6242,1,,,,,,344,NW,UN,33,absend,SCRILY,z,,,,,,-0.349392361,-0.2734375,1,0,0,,0,39,39,403,1,
,,,,,,,,,,,,,,,,,,5982ff7c127287000185f50a,2020-11-27_15h01.58.447,lexical_decision_task_MP_exp2,2020.2.5,Linux armv8l,60,,0,-0.3359375,-0.269775391,1,0,0,0.8262,button_left,0.8262,1,,,,,,470,NW,"ID",33,crudio,CRUDIO,z,,,,,,-0.3359375,-0.269775391,1,0,0,,0,40,40,289,1,
,,,,,,,,,,,,,,,,,,5982ff7c127287000185f50a,2020-11-27_15h01.58.447,lexical_decision_task_MP_exp2,2020.2.5,Linux armv8l,60,,0,0.414496528,-0.26171875,1,0,0,0.6814,button_right,0.6814,1,,,,,,210,WORD,"ID",33,monkey,MONKEY,m,,,,,,0.414496528,-0.26171875,1,0,0,,0,41,41,29,1,
,,,,,,,,,,,,,,,,,,5982ff7c127287000185f50a,2020-11-27_15h01.58.447,lexical_decision_task_MP_exp2,2020.2.5,Linux armv8l,60,,0,-0.343315972,-0.271972656,1,0,0,1.0291,button_left,1.0291,1,,,,,,447,NW,"ID",33,gircue,GIRCUE,z,,,,,,-0.343315972,-0.271972656,1,0,0,,0,42,42,266,1,
,,,,,,,,,,,,,,,,,,5982ff7c127287000185f50a,2020-11-27_15h01.58.447,lexical_decision_task_MP_exp2,2020.2.5,Linux armv8l,60,,0,0.3828125,-0.275390625,1,0,0,0.7654,button_right,0.7654,1,,,,,,169,WORD,UN,16,pounce,GENIUS,m,,,,,,0.3828125,-0.275390625,1,0,0,,0,43,43,228,1,
,,,,,,,,,,,,,,,,,,5982ff7c127287000185f50a,2020-11-27_15h01.58.447,lexical_decision_task_MP_exp2,2020.2.5,Linux armv8l,60,,0,0.435329861,-0.294433594,1,0,0,0.6133,button_right,0.6133,1,,,,,,76,WORD,UN,33,racket,EXOTIC,m,,,,,,0.435329861,-0.294433594,1,0,0,,0,44,44,135,1,
,,,,,,,,,,,,,,,,,,5982ff7c127287000185f50a,2020-11-27_15h01.58.447,lexical_decision_task_MP_exp2,2020.2.5,Linux armv8l,60,,0,0.428385417,-0.273925781,1,0,0,0.5853,button_right,0.5853,1,,,,,,140,WORD,UN,16,chrome,PRINCE,m,,,,,,0.428385417,-0.273925781,1,0,0,,0,45,45,199,1,
,,,,,,,,,,,,,,,,,,5982ff7c127287000185f50a,2020-11-27_15h01.58.447,lexical_decision_task_MP_exp2,2020.2.5,Linux armv8l,60,,0,0.450086806,-0.275390625,1,0,0,0.6376,button_right,0.6376,1,,,,,,32,WORD,"ID",16,buckle,BUCKLE,m,,,,,,0.450086806,-0.275390625,1,0,0,,0,46,46,91,1,
,,,,,,,,,,,,,,,,,,5982ff7c127287000185f50a,2020-11-27_15h01.58.447,lexical_decision_task_MP_exp2,2020.2.5,Linux armv8l,60,,0,-0.407118056,-0.269042969,1,0,0,0.8534,button_left,0.8534,1,,,,,,380,NW,UN,16,huniek,CAVORY,z,,,,,,-0.407118056,-0.269042969,1,0,0,,0,47,47,439,1,
,,,,,,,,,,,,,,,,,,5982ff7c127287000185f50a,2020-11-27_15h01.58.447,lexical_decision_task_MP_exp2,2020.2.5,Linux armv8l,60,,0,0.438802083,-0.283447266,1,0,0,0.6264,button_right,0.6264,1,,,,,,81,WORD,UN,33,stigma,FRIEND,m,,,,,,0.438802083,-0.283447266,1,0,0,,0,48,48,140,1,
,,,,,,,,,,,,,,,,,,5982ff7c127287000185f50a,2020-11-27_15h01.58.447,lexical_decision_task_MP_exp2,2020.2.5,Linux armv8l,60,,0,-0.418836806,-0.295898438,1,0,0,0.5659,button_left,0.5659,1,,,,,,339,NW,UN,33,fiatch,FACHOW,z,,,,,,-0.418836806,-0.295898438,1,0,0,,0,49,49,398,1,
,,,,,,,,,,,,,,,,,,5982ff7c127287000185f50a,2020-11-27_15h01.58.447,lexical_decision_task_MP_exp2,2020.2.5,Linux armv8l,60,,0,0.4453125,-0.262207031,1,0,0,0.561,button_right,0.561,1,,,,,,146,WORD,UN,16,garlic,COUPLE,m,,,,,,0.4453125,-0.262207031,1,0,0,,0,50,50,205,1,
,,,,,,,,,,,,,,,,,,5982ff7c127287000185f50a,2020-11-27_15h01.58.447,lexical_decision_task_MP_exp2,2020.2.5,Linux armv8l,60,,0,-0.413628472,-0.283203125,1,0,0,0.6744,button_left,0.6744,1,,,,,,466,NW,"ID",33,hocite,HOCITE,z,,,,,,-0.413628472,-0.283203125,1,0,0,,0,51,51,285,1,
,,,,,,,,,,,,,,,,,,5982ff7c127287000185f50a,2020-11-27_15h01.58.447,lexical_decision_task_MP_exp2,2020.2.5,Linux armv8l,60,,0,0.447048611,-0.275146484,1,0,0,0.5827,button_right,0.5827,1,,,,,,61,WORD,UN,33,region,PONDER,m,,,,,,0.447048611,-0.275146484,1,0,0,,0,52,52,120,1,
,,,,,,,,,,,,,,,,,,5982ff7c127287000185f50a,2020-11-27_15h01.58.447,lexical_decision_task_MP_exp2,2020.2.5,Linux armv8l,60,,0,-0.430121528,-0.282958984,1,0,0,0.6842,button_left,0.6842,1,,,,,,306,NW,UN,33,kirafe,SOUNGE,z,,,,,,-0.430121528,-0.282958984,1,0,0,,0,53,53,365,1,
,,,,,,,,,,,,,,,,,,5982ff7c127287000185f50a,2020-11-27_15h01.58.447,lexical_decision_task_MP_exp2,2020.2.5,Linux armv8l,60,,0,0.450520833,-0.276123047,1,0,0,0.6101,button_right,0.6101,1,,,,,,180,WORD,UN,16,thrive,SILENT,m,,,,,,0.450520833,-0.276123047,1,0,0,,0,54,54,239,1,
,,,,,,,,,,,,,,,,,,5982ff7c127287000185f50a,2020-11-27_15h01.58.447,lexical_decision_task_MP_exp2,2020.2.5,Linux armv8l,60,,0,-0.431423611,-0.300292969,1,0,0,0.6162,button_left,0.6162,1,,,,,,322,NW,UN,33,rosail,SLANCH,z,,,,,,-0.431423611,-0.300292969,1,0,0,,0,55,55,381,1,
,,,,,,,,,,,,,,,,,,5982ff7c127287000185f50a,2020-11-27_15h01.58.447,lexical_decision_task_MP_exp2,2020.2.5,Linux armv8l,60,,0,-0.421006944,-0.283691406,1,0,0,0.6178,button_left,0.6178,0,,,,,,156,WORD,UN,16,depart,CRADLE,m,,,,,,-0.421006944,-0.283691406,1,0,0,,0,56,56,215,1,
,,,,,,,,,,,,,,,,,,5982ff7c127287000185f50a,2020-11-27_15h01.58.447,lexical_decision_task_MP_exp2,2020.2.5,Linux armv8l,60,,0,0.451388889,-0.278808594,1,0,0,0.6998,button_right,0.6998,1,,,,,,1,WORD,"ID",16,fright,FRIGHT,m,,,,,,0.451388889,-0.278808594,1,0,0,,0,57,57,60,1,
,,,,,,,,,,,,,,,,,,5982ff7c127287000185f50a,2020-11-27_15h01.58.447,lexical_decision_task_MP_exp2,2020.2.5,Linux armv8l,60,,0,0.454861111,-0.275634766,1,0,0,0.6142,button_right,0.6142,1,,,,,,104,WORD,UN,33,number,STUDIO,m,,,,,,0.454861111,-0.275634766,1,0,0,,0,58,58,163,1,
,,,,,,,,,,,,,,,,,,5982ff7c127287000185f50a,2020-11-27_15h01.58.447,lexical_decision_task_MP_exp2,2020.2.5,Linux armv8l,60,,0,0.469184028,-0.252197266,1,0,0,0.6171,button_right,0.6171,1,,,,,,22,WORD,"ID",16,jockey,JOCKEY,m,,,,,,0.469184028,-0.252197266,1,0,0,,0,59,59,81,1,
,,,,,,,,,,,,,,,,,,5982ff7c127287000185f50a,2020-11-27_15h01.58.447,lexical_decision_task_MP_exp2,2020.2.5,Linux armv8l,60,,0,-0.428385417,-0.282958984,1,0,0,0.6384,button_left,0.6384,1,,,,,,469,NW,"ID",33,padifs,PADIFS,z,,,,,,-0.428385417,-0.282958984,1,0,0,,0,60,60,288,1,
,,,,,,,,,,,,,,,,,,5982ff7c127287000185f50a,2020-11-27_15h01.58.447,lexical_decision_task_MP_exp2,2020.2.5,Linux armv8l,60,,0,0.471354167,-0.262939453,1,0,0,0.6014,button_right,0.6014,1,,,,,,50,WORD,"ID",16,snatch,SNATCH,m,,,,,,0.471354167,-0.262939453,1,0,0,,0,61,61,109,1,
,,,,,,,,,,,,,,,,,,5982ff7c127287000185f50a,2020-11-27_15h01.58.447,lexical_decision_task_MP_exp2,2020.2.5,Linux armv8l,60,,0,-0.432725694,-0.282714844,1,0,0,0.6686,button_left,0.6686,1,,,,,,347,NW,UN,33,dumple,KERIFT,z,,,,,,-0.432725694,-0.282714844,1,0,0,,0,62,62,406,1,
,,,,,,,,,,,,,,,,,,5982ff7c127287000185f50a,2020-11-27_15h01.58.447,lexical_decision_task_MP_exp2,2020.2.5,Linux armv8l,60,,0,-0.421006944,-0.299804688,1,0,0,0.7647,button_left,0.7647,1,,,,,,295,NW,"ID",16,gleath,GLEATH,z,,,,,,-0.421006944,-0.299804688,1,0,0,,0,63,63,354,1,
,,,,,,,,,,,,,,,,,,5982ff7c127287000185f50a,2020-11-27_15h01.58.447,lexical_decision_task_MP_exp2,2020.2.5,Linux armv8l,60,,0,0.445746528,-0.274902344,1,0,0,0.6452,button_right,0.6452,1,,,,,,184,WORD,"ID",33,sleazy,SLEAZY,m,,,,,,0.445746528,-0.274902344,1,0,0,,0,64,64,3,1,
,,,,,,,,,,,,,,,,,,5982ff7c127287000185f50a,2020-11-27_15h01.58.447,lexical_decision_task_MP_exp2,2020.2.5,Linux armv8l,60,,0,0.457465278,-0.301757813,1,0,0,0.6479,button_right,0.6479,1,,,,,,97,WORD,UN,33,belong,CLIENT,m,,,,,,0.457465278,-0.301757813,1,0,0,,0,65,65,156,1,
,,,,,,,,,,,,,,,,,,5982ff7c127287000185f50a,2020-11-27_15h01.58.447,lexical_decision_task_MP_exp2,2020.2.5,Linux armv8l,60,,0,0.473958333,-0.279296875,1,0,0,0.6515,button_right,0.6515,1,,,,,,100,WORD,UN,33,wrench,CARBON,m,,,,,,0.473958333,-0.279296875,1,0,0,,0,66,66,159,1,
,,,,,,,,,,,,,,,,,,5982ff7c127287000185f50a,2020-11-27_15h01.58.447,lexical_decision_task_MP_exp2,2020.2.5,Linux armv8l,60,,0,0.46484375,-0.277587891,1,0,0,0.5984,button_right,0.5984,1,,,,,,26,WORD,"ID",16,sprint,SPRINT,m,,,,,,0.46484375,-0.277587891,1,0,0,,0,67,67,85,1,
,,,,,,,,,,,,,,,,,,5982ff7c127287000185f50a,2020-11-27_15h01.58.447,lexical_decision_task_MP_exp2,2020.2.5,Linux armv8l,60,,0,0.471354167,-0.270019531,1,0,0,0.565,button_right,0.565,1,,,,,,98,WORD,UN,33,fluent,BELONG,m,,,,,,0.471354167,-0.270019531,1,0,0,,0,68,68,157,1,
,,,,,,,,,,,,,,,,,,5982ff7c127287000185f50a,2020-11-27_15h01.58.447,lexical_decision_task_MP_exp2,2020.2.5,Linux armv8l,60,,0,0.467013889,-0.281494141,1,0,0,0.5139,button_right,0.5139,1,,,,,,65,WORD,UN,33,gospel,SYMBOL,m,,,,,,0.467013889,-0.281494141,1,0,0,,0,69,69,124,1,
,,,,,,,,,,,,,,,,,,5982ff7c127287000185f50a,2020-11-27_15h01.58.447,lexical_decision_task_MP_exp2,2020.2.5,Linux armv8l,60,,0,-0.417100694,-0.342773438,1,0,0,0.8309,button_left,0.8309,1,,,,,,277,NW,"ID",16,petain,PETAIN,z,,,,,,-0.417100694,-0.342773438,1,0,0,,0,70,70,336,1,
,,,,,,,,,,,,,,,,,,5982ff7c127287000185f50a,2020-11-27_15h01.58.447,lexical_decision_task_MP_exp2,2020.2.5,Linux armv8l,60,,0,0.459635417,-0.266113281,1,0,0,0.7859,button_right,0.7859,1,,,,,,110,WORD,UN,33,induce,POLITE,m,,,,,,0.459635417,-0.266113281,1,0,0,,0,71,71,169,1,
,,,,,,,,,,,,,,,,,,5982ff7c127287000185f50a,2020-11-27_15h01.58.447,lexical_decision_task_MP_exp2,2020.2.5,Linux armv8l,60,,0,0.474392361,-0.273681641,1,0,0,0.7174,button_right,0.7174,1,,,,,,194,WORD,"ID",33,absent,ABSENT,m,,,,,,0.474392361,-0.273681641,1,0,0,,0,72,72,13,1,
,,,,,,,,,,,,,,,,,,5982ff7c127287000185f50a,2020-11-27_15h01.58.447,lexical_decision_task_MP_exp2,2020.2.5,Linux armv8l,60,,0,-0.416666667,-0.321777344,1,0,0,0.7079,button_left,0.7079,1,,,,,,323,NW,UN,33,steikh,ROSAIL,z,,,,,,-0.416666667,-0.321777344,1,0,0,,0,73,73,382,1,
,,,,,,,,,,,,,,,,,,5982ff7c127287000185f50a,2020-11-27_15h01.58.447,lexical_decision_task_MP_exp2,2020.2.5,Linux armv8l,60,,0,-0.411024306,-0.305419922,1,0,0,0.9098,button_left,0.9098,1,,,,,,285,NW,"ID",16,prudge,PRUDGE,z,,,,,,-0.411024306,-0.305419922,1,0,0,,0,74,74,344,1,
,,,,,,,,,,,,,,,,,,5982ff7c127287000185f50a,2020-11-27_15h01.58.447,lexical_decision_task_MP_exp2,2020.2.5,Linux armv8l,60,,0,-0.419704861,-0.321777344,1,0,0,0.7274,button_left,0.7274,1,,,,,,263,NW,"ID",16,dolica,DOLICA,z,,,,,,-0.419704861,-0.321777344,1,0,0,,0,75,75,322,1,
,,,,,,,,,,,,,,,,,,5982ff7c127287000185f50a,2020-11-27_15h01.58.447,lexical_decision_task_MP_exp2,2020.2.5,Linux armv8l,60,,0,-0.423177083,-0.326660156,1,0,0,0.834,button_left,0.834,1,,,,,,448,NW,"ID",33,sadent,SADENT,z,,,,,,-0.423177083,-0.326660156,1,0,0,,0,76,76,267,1,
,,,,,,,,,,,,,,,,,,5982ff7c127287000185f50a,2020-11-27_15h01.58.447,lexical_decision_task_MP_exp2,2020.2.5,Linux armv8l,60,,0,0.475694444,-0.240722656,1,0,0,0.6164,button_right,0.6164,1,,,,,,230,WORD,"ID",33,fringe,FRINGE,m,,,,,,0.475694444,-0.240722656,1,0,0,,0,77,77,49,1,
,,,,,,,,,,,,,,,,,,5982ff7c127287000185f50a,2020-11-27_15h01.58.447,lexical_decision_task_MP_exp2,2020.2.5,Linux armv8l,60,,0,-0.421006944,-0.313964844,1,0,0,0.8183,button_left,0.8183,1,,,,,,247,NW,"ID",16,blarge,BLARGE,z,,,,,,-0.421006944,-0.313964844,1,0,0,,0,78,78,306,1,
,,,,,,,,,,,,,,,,,,5982ff7c127287000185f50a,2020-11-27_15h01.58.447,lexical_decision_task_MP_exp2,2020.2.5,Linux armv8l,60,,0,-0.422743056,-0.328613281,1,0,0,0.6963,button_left,0.6963,1,,,,,,316,NW,UN,33,worbal,SCREGM,z,,,,,,-0.422743056,-0.328613281,1,0,0,,0,79,79,375,1,
,,,,,,,,,,,,,,,,,,5982ff7c127287000185f50a,2020-11-27_15h01.58.447,lexical_decision_task_MP_exp2,2020.2.5,Linux armv8l,60,,0,-0.424479167,-0.294189453,1,0,0,0.9223,button_left,0.9223,1,,,,,,319,NW,UN,33,jockal,ZOMBER,z,,,,,,-0.424479167,-0.294189453,1,0,0,,0,80,80,378,1,
,,,,,,,,,,,,,,,,,,5982ff7c127287000185f50a,2020-11-27_15h01.58.447,lexical_decision_task_MP_exp2,2020.2.5,Linux armv8l,60,,0,0.470486111,-0.263427734,1,0,0,0.6217,button_right,0.6217,1,,,,,,224,WORD,"ID",33,period,PERIOD,m,,,,,,0.470486111,-0.263427734,1,0,0,,0,81,81,43,1,
,,,,,,,,,,,,,,,,,,5982ff7c127287000185f50a,2020-11-27_15h01.58.447,lexical_decision_task_MP_exp2,2020.2.5,Linux armv8l,60,,0,-0.424913194,-0.328857422,1,0,0,0.6795,button_left,0.6795,1,,,,,,350,NW,UN,33,tiesch,NAGURS,z,,,,,,-0.424913194,-0.328857422,1,0,0,,0,82,82,409,1,
,,,,,,,,,,,,,,,,,,5982ff7c127287000185f50a,2020-11-27_15h01.58.447,lexical_decision_task_MP_exp2,2020.2.5,Linux armv8l,60,,0,0.480902778,-0.260742188,1,0,0,0.632,button_right,0.632,1,,,,,,143,WORD,UN,16,sponge,REASON,m,,,,,,0.480902778,-0.260742188,1,0,0,,0,83,83,202,1,
,,,,,,,,,,,,,,,,,,5982ff7c127287000185f50a,2020-11-27_15h01.58.447,lexical_decision_task_MP_exp2,2020.2.5,Linux armv8l,60,,0,0.486111111,-0.258544922,1,0,0,0.659,button_right,0.659,1,,,,,,49,WORD,"ID",16,survey,SURVEY,m,,,,,,0.486111111,-0.258544922,1,0,0,,0,84,84,108,1,
,,,,,,,,,,,,,,,,,,5982ff7c127287000185f50a,2020-11-27_15h01.58.447,lexical_decision_task_MP_exp2,2020.2.5,Linux armv8l,60,,0,-0.418402778,-0.306640625,1,0,0,0.66,button_left,0.66,1,,,,,,363,NW,UN,16,impote,BREALI,z,,,,,,-0.418402778,-0.306640625,1,0,0,,0,85,85,422,1,
,,,,,,,,,,,,,,,,,,5982ff7c127287000185f50a,2020-11-27_15h01.58.447,lexical_decision_task_MP_exp2,2020.2.5,Linux armv8l,60,,0,-0.417534722,-0.282470703,1,0,0,0.7162,button_left,0.7162,1,,,,,,374,NW,UN,16,yorque,SLIANT,z,,,,,,-0.417534722,-0.282470703,1,0,0,,0,86,86,433,1,
,,,,,,,,,,,,,,,,,,5982ff7c127287000185f50a,2020-11-27_15h01.58.447,lexical_decision_task_MP_exp2,2020.2.5,Linux armv8l,60,,0,-0.41796875,-0.312011719,1,0,0,0.6495,button_left,0.6495,1,,,,,,312,NW,UN,33,paurse,NERAWL,z,,,,,,-0.41796875,-0.312011719,1,0,0,,0,87,87,371,1,
,,,,,,,,,,,,,,,,,,5982ff7c127287000185f50a,2020-11-27_15h01.58.447,lexical_decision_task_MP_exp2,2020.2.5,Linux armv8l,60,,0,-0.4296875,-0.318603516,1,0,0,0.7344,button_left,0.7344,1,,,,,,252,NW,"ID",16,stapod,STAPOD,z,,,,,,-0.4296875,-0.318603516,1,0,0,,0,88,88,311,1,
,,,,,,,,,,,,,,,,,,5982ff7c127287000185f50a,2020-11-27_15h01.58.447,lexical_decision_task_MP_exp2,2020.2.5,Linux armv8l,60,,0,0.461371528,-0.322998047,1,0,0,0.9189,button_right,0.9189,1,,,,,,225,WORD,"ID",33,vulgar,VULGAR,m,,,,,,0.461371528,-0.322998047,1,0,0,,0,89,89,44,1,
,,,,,,,,,,,,,,,,,,5982ff7c127287000185f50a,2020-11-27_15h01.58.447,lexical_decision_task_MP_exp2,2020.2.5,Linux armv8l,60,,0,0.457899306,-0.289794922,1,0,0,0.7512,button_right,0.7512,0,,,,,,402,NW,UN,16,bruats,SYNTIC,z,,,,,,0.457899306,-0.289794922,1,0,0,,0,90,90,461,1,
,,,,,,,,,,,,,,,,,,5982ff7c127287000185f50a,2020-11-27_15h01.58.447,lexical_decision_task_MP_exp2,2020.2.5,Linux armv8l,60,,0,0.469618056,-0.266845703,1,0,0,0.5734,button_right,0.5734,1,,,,,,38,WORD,"ID",16,powder,POWDER,m,,,,,,0.469618056,-0.266845703,1,0,0,,0,91,91,97,1,
,,,,,,,,,,,,,,,,,,5982ff7c127287000185f50a,2020-11-27_15h01.58.447,lexical_decision_task_MP_exp2,2020.2.5,Linux armv8l,60,,0,0.468315972,-0.266601563,1,0,0,0.5928,button_right,0.5928,1,,,,,,196,WORD,"ID",33,credit,CREDIT,m,,,,,,0.468315972,-0.266601563,1,0,0,,0,92,92,15,1,
,,,,,,,,,,,,,,,,,,5982ff7c127287000185f50a,2020-11-27_15h01.58.447,lexical_decision_task_MP_exp2,2020.2.5,Linux armv8l,60,,0,0.4609375,-0.264648438,1,0,0,0.5969,button_right,0.5969,0,,,,,,425,NW,"ID",33,frudge,FRUDGE,z,,,,,,0.4609375,-0.264648438,1,0,0,,0,93,93,244,1,
,,,,,,,,,,,,,,,,,,5982ff7c127287000185f50a,2020-11-27_15h01.58.447,lexical_decision_task_MP_exp2,2020.2.5,Linux armv8l,60,,0,0.466145833,-0.244140625,1,0,0,0.8119,button_right,0.8119,1,,,,,,149,WORD,UN,16,random,INVADE,m,,,,,,0.466145833,-0.244140625,1,0,0,,0,94,94,208,1,
,,,,,,,,,,,,,,,,,,5982ff7c127287000185f50a,2020-11-27_15h01.58.447,lexical_decision_task_MP_exp2,2020.2.5,Linux armv8l,60,,0,-0.420138889,-0.310302734,1,0,0,0.7003,button_left,0.7003,1,,,,,,438,NW,"ID",33,baitch,BAITCH,z,,,,,,-0.420138889,-0.310302734,1,0,0,,0,95,95,257,1,
,,,,,,,,,,,,,,,,,,5982ff7c127287000185f50a,2020-11-27_15h01.58.447,lexical_decision_task_MP_exp2,2020.2.5,Linux armv8l,60,,0,-0.411024306,-0.291503906,1,0,0,0.8688,button_left,0.8688,1,,,,,,475,NW,"ID",33,pebric,PEBRIC,z,,,,,,-0.411024306,-0.291503906,1,0,0,,0,96,96,294,1,
,,,,,,,,,,,,,,,,,,5982ff7c127287000185f50a,2020-11-27_15h01.58.447,lexical_decision_task_MP_exp2,2020.2.5,Linux armv8l,60,,0,0.475260417,-0.232910156,1,0,0,0.6478,button_right,0.6478,1,,,,,,51,WORD,"ID",16,hungry,HUNGRY,m,,,,,,0.475260417,-0.232910156,1,0,0,,0,97,97,110,1,
,,,,,,,,,,,,,,,,,,5982ff7c127287000185f50a,2020-11-27_15h01.58.447,lexical_decision_task_MP_exp2,2020.2.5,Linux armv8l,60,,0,-0.420138889,-0.31640625,1,0,0,0.6473,button_left,0.6473,1,,,,,,439,NW,"ID",33,limpor,LIMPOR,z,,,,,,-0.420138889,-0.31640625,1,0,0,,0,98,98,258,1,
,,,,,,,,,,,,,,,,,,5982ff7c127287000185f50a,2020-11-27_15h01.58.447,lexical_decision_task_MP_exp2,2020.2.5,Linux armv8l,60,,0,-0.42578125,-0.327392578,1,0,0,0.648,button_left,0.648,1,,,,,,409,NW,UN,16,tunory,ELOPIA,z,,,,,,-0.42578125,-0.327392578,1,0,0,,0,99,99,468,1,
,,,,,,,,,,,,,,,,,,5982ff7c127287000185f50a,2020-11-27_15h01.58.447,lexical_decision_task_MP_exp2,2020.2.5,Linux armv8l,60,,0,0.453125,-0.269042969,1,0,0,0.9458,button_right,0.9458,0,,,,,,341,NW,UN,33,randow,MYRTIE,z,,,,,,0.453125,-0.269042969,1,0,0,,0,100,100,400,1,
,,,,,,,,,,,,,,,,,,5982ff7c127287000185f50a,2020-11-27_15h01.58.447,lexical_decision_task_MP_exp2,2020.2.5,Linux armv8l,60,,0,-0.418402778,-0.306884766,1,0,0,0.7518,button_left,0.7518,1,,,,,,381,NW,UN,16,sarley,HUNIEK,z,,,,,,-0.418402778,-0.306884766,1,0,0,,0,101,101,440,1,
,,,,,,,,,,,,,,,,,,5982ff7c127287000185f50a,2020-11-27_15h01.58.447,lexical_decision_task_MP_exp2,2020.2.5,Linux armv8l,60,,0,-0.419270833,-0.306396484,1,0,0,0.6523,button_left,0.6523,1,,,,,,302,NW,UN,33,fiream,MILUER,z,,,,,,-0.419270833,-0.306396484,1,0,0,,0,102,102,361,1,
,,,,,,,,,,,,,,,,,,5982ff7c127287000185f50a,2020-11-27_15h01.58.447,lexical_decision_task_MP_exp2,2020.2.5,Linux armv8l,60,,0,0.454861111,-0.265625,1,0,0,0.6495,button_right,0.6495,1,,,,,,148,WORD,UN,16,invade,CUSTOM,m,,,,,,0.454861111,-0.265625,1,0,0,,0,103,103,207,1,
,,,,,,,,,,,,,,,,,,5982ff7c127287000185f50a,2020-11-27_15h01.58.447,lexical_decision_task_MP_exp2,2020.2.5,Linux armv8l,60,,0,-0.415364583,-0.291748047,1,0,0,0.6978,button_left,0.6978,1,,,,,,328,NW,UN,33,yarike,BROAKE,z,,,,,,-0.415364583,-0.291748047,1,0,0,,0,104,104,387,1,
,,,,,,,,,,,,,,,,,,5982ff7c127287000185f50a,2020-11-27_15h01.58.447,lexical_decision_task_MP_exp2,2020.2.5,Linux armv8l,60,,0,0.456597222,-0.268798828,1,0,0,0.5598,button_right,0.5598,1,,,,,,46,WORD,"ID",16,single,SINGLE,m,,,,,,0.456597222,-0.268798828,1,0,0,,0,105,105,105,1,
,,,,,,,,,,,,,,,,,,5982ff7c127287000185f50a,2020-11-27_15h01.58.447,lexical_decision_task_MP_exp2,2020.2.5,Linux armv8l,60,,0,0.448784722,-0.24609375,1,0,0,0.8478,button_right,0.8478,0,,,,,,268,NW,"ID",16,packes,PACKES,z,,,,,,0.448784722,-0.24609375,1,0,0,,0,106,106,327,1,
,,,,,,,,,,,,,,,,,,5982ff7c127287000185f50a,2020-11-27_15h01.58.447,lexical_decision_task_MP_exp2,2020.2.5,Linux armv8l,60,,0,-0.401909722,-0.278076172,1,0,0,0.7452,button_left,0.7452,1,,,,,,334,NW,UN,33,desion,WATMEG,z,,,,,,-0.401909722,-0.278076172,1,0,0,,0,107,107,393,1,
,,,,,,,,,,,,,,,,,,5982ff7c127287000185f50a,2020-11-27_15h01.58.447,lexical_decision_task_MP_exp2,2020.2.5,Linux armv8l,60,,0,0.463107639,-0.264160156,1,0,0,0.7668,button_right,0.7668,1,,,,,,212,WORD,"ID",33,verify,VERIFY,m,,,,,,0.463107639,-0.264160156,1,0,0,,0,108,108,31,1,
,,,,,,,,,,,,,,,,,,5982ff7c127287000185f50a,2020-11-27_15h01.58.447,lexical_decision_task_MP_exp2,2020.2.5,Linux armv8l,60,,0,-0.403645833,-0.2890625,1,0,0,0.6959,button_left,0.6959,1,,,,,,441,NW,"ID",33,rastoe,RASTOE,z,,,,,,-0.403645833,-0.2890625,1,0,0,,0,109,109,260,1,
,,,,,,,,,,,,,,,,,,5982ff7c127287000185f50a,2020-11-27_15h01.58.447,lexical_decision_task_MP_exp2,2020.2.5,Linux armv8l,60,,0,-0.41796875,-0.319580078,1,0,0,0.932,button_left,0.932,1,,,,,,385,NW,UN,16,ancust,VEIGMA,z,,,,,,-0.41796875,-0.319580078,1,0,0,,0,110,110,444,1,
,,,,,,,,,,,,,,,,,,5982ff7c127287000185f50a,2020-11-27_15h01.58.447,lexical_decision_task_MP_exp2,2020.2.5,Linux armv8l,60,,0,-0.407118056,-0.312011719,1,0,0,0.7408,button_left,0.7408,1,,,,,,280,NW,"ID",16,curbol,CURBOL,z,,,,,,-0.407118056,-0.312011719,1,0,0,,0,111,111,339,1,
,,,,,,,,,,,,,,,,,,5982ff7c127287000185f50a,2020-11-27_15h01.58.447,lexical_decision_task_MP_exp2,2020.2.5,Linux armv8l,60,,0,0.445746528,-0.230957031,1,0,0,0.5654,button_right,0.5654,1,,,,,,190,WORD,"ID",33,backup,BACKUP,m,,,,,,0.445746528,-0.230957031,1,0,0,,0,112,112,9,1,
,,,,,,,,,,,,,,,,,,5982ff7c127287000185f50a,2020-11-27_15h01.58.447,lexical_decision_task_MP_exp2,2020.2.5,Linux armv8l,60,,0,-0.419704861,-0.284423828,1,0,0,0.6976,button_left,0.6976,1,,,,,,327,NW,UN,33,broake,PLENAC,z,,,,,,-0.419704861,-0.284423828,1,0,0,,0,113,113,386,1,
,,,,,,,,,,,,,,,,,,5982ff7c127287000185f50a,2020-11-27_15h01.58.447,lexical_decision_task_MP_exp2,2020.2.5,Linux armv8l,60,,0,-0.422309028,-0.272216797,1,0,0,0.7299,button_left,0.7299,1,,,,,,461,NW,"ID",33,justre,JUSTRE,z,,,,,,-0.422309028,-0.272216797,1,0,0,,0,114,114,280,1,
,,,,,,,,,,,,,,,,,,5982ff7c127287000185f50a,2020-11-27_15h01.58.447,lexical_decision_task_MP_exp2,2020.2.5,Linux armv8l,60,,0,-0.42578125,-0.281494141,1,0,0,0.8017,button_left,0.8017,1,,,,,,384,NW,UN,16,injore,GUESCO,z,,,,,,-0.42578125,-0.281494141,1,0,0,,0,115,115,443,1,
,,,,,,,,,,,,,,,,,,5982ff7c127287000185f50a,2020-11-27_15h01.58.447,lexical_decision_task_MP_exp2,2020.2.5,Linux armv8l,60,,0,-0.427951389,-0.303710938,1,0,0,0.6678,button_left,0.6678,1,,,,,,351,NW,UN,33,tringe,TIESCH,z,,,,,,-0.427951389,-0.303710938,1,0,0,,0,116,116,410,1,
,,,,,,,,,,,,,,,,,,5982ff7c127287000185f50a,2020-11-27_15h01.58.447,lexical_decision_task_MP_exp2,2020.2.5,Linux armv8l,60,,0,0.502604167,-0.240722656,1,0,0,0.6328,button_right,0.6328,1,,,,,,23,WORD,"ID",16,wealth,WEALTH,m,,,,,,0.502604167,-0.240722656,1,0,0,,0,117,117,82,1,
,,,,,,,,,,,,,,,,,,5982ff7c127287000185f50a,2020-11-27_15h01.58.447,lexical_decision_task_MP_exp2,2020.2.5,Linux armv8l,60,,0,-0.428385417,-0.302246094,1,0,0,0.6361,button_left,0.6361,1,,,,,,346,NW,UN,33,kerift,SAUDIC,z,,,,,,-0.428385417,-0.302246094,1,0,0,,0,118,118,405,1,
,,,,,,,,,,,,,,,,,,5982ff7c127287000185f50a,2020-11-27_15h01.58.447,lexical_decision_task_MP_exp2,2020.2.5,Linux armv8l,60,,0,-0.416666667,-0.287353516,1,0,0,0.7002,button_left,0.7002,1,,,,,,242,NW,"ID",16,unwert,UNWERT,z,,,,,,-0.416666667,-0.287353516,1,0,0,,0,119,119,301,1,
,,,,,,,,,,,,,,,,,,5982ff7c127287000185f50a,2020-11-27_15h01.58.447,lexical_decision_task_MP_exp2,2020.2.5,Linux armv8l,60,,0,-0.421440972,-0.303466797,1,0,0,0.7366,button_left,0.7366,1,,,,,,313,NW,UN,33,sprine,PAURSE,z,,,,,,-0.097222222,-0.364746094,1,0,0,,0,120,120,372,1,break_done_button
,,,,,,,,,,,,,,,,,,5982ff7c127287000185f50a,2020-11-27_15h01.58.447,lexical_decision_task_MP_exp2,2020.2.5,Linux armv8l,60,,0,0.453993056,-0.254150391,1,0,0,1.7083,button_right,1.7083,1,,,,,,126,WORD,UN,16,castle,ENOUGH,m,,,,,,0.453993056,-0.254150391,1,0,0,,0,121,121,185,1,
,,,,,,,,,,,,,,,,,,5982ff7c127287000185f50a,2020-11-27_15h01.58.447,lexical_decision_task_MP_exp2,2020.2.5,Linux armv8l,60,,0,0.481770833,-0.27734375,1,0,0,0.6829,button_right,0.6829,1,,,,,,29,WORD,"ID",16,sketch,SKETCH,m,,,,,,0.481770833,-0.27734375,1,0,0,,0,122,122,88,1,
,,,,,,,,,,,,,,,,,,5982ff7c127287000185f50a,2020-11-27_15h01.58.447,lexical_decision_task_MP_exp2,2020.2.5,Linux armv8l,60,,0,0.479166667,-0.289306641,1,0,0,0.6175,button_right,0.6175,1,,,,,,57,WORD,"ID",16,change,CHANGE,m,,,,,,0.479166667,-0.289306641,1,0,0,,0,123,123,116,1,
,,,,,,,,,,,,,,,,,,5982ff7c127287000185f50a,2020-11-27_15h01.58.447,lexical_decision_task_MP_exp2,2020.2.5,Linux armv8l,60,,0,-0.4453125,-0.280517578,1,0,0,0.6671,button_left,0.6671,1,,,,,,294,NW,"ID",16,inhort,INHORT,z,,,,,,-0.4453125,-0.280517578,1,0,0,,0,124,124,353,1,
,,,,,,,,,,,,,,,,,,5982ff7c127287000185f50a,2020-11-27_15h01.58.447,lexical_decision_task_MP_exp2,2020.2.5,Linux armv8l,60,,0,0.468315972,-0.294921875,1,0,0,0.5787,button_right,0.5787,1,,,,,,227,WORD,"ID",33,seldom,SELDOM,m,,,,,,0.468315972,-0.294921875,1,0,0,,0,125,125,46,1,
,,,,,,,,,,,,,,,,,,5982ff7c127287000185f50a,2020-11-27_15h01.58.447,lexical_decision_task_MP_exp2,2020.2.5,Linux armv8l,60,,0,0.467881944,-0.286132813,1,0,0,0.6808,button_right,0.6808,1,,,,,,87,WORD,UN,33,sprawl,FILTER,m,,,,,,0.467881944,-0.286132813,1,0,0,,0,126,126,146,1,
,,,,,,,,,,,,,,,,,,5982ff7c127287000185f50a,2020-11-27_15h01.58.447,lexical_decision_task_MP_exp2,2020.2.5,Linux armv8l,60,,0,-0.429253472,-0.281982422,1,0,0,0.7787,button_left,0.7787,1,,,,,,355,NW,UN,33,othnis,ZINGLY,z,,,,,,-0.429253472,-0.281982422,1,0,0,,0,127,127,414,1,
,,,,,,,,,,,,,,,,,,5982ff7c127287000185f50a,2020-11-27_15h01.58.447,lexical_decision_task_MP_exp2,2020.2.5,Linux armv8l,60,,0,-0.405815972,-0.258056641,1,0,0,1.3389,button_left,1.3389,1,,,,,,364,NW,UN,16,guairt,IMPOTE,z,,,,,,-0.405815972,-0.258056641,1,0,0,,0,128,128,423,1,
,,,,,,,,,,,,,,,,,,5982ff7c127287000185f50a,2020-11-27_15h01.58.447,lexical_decision_task_MP_exp2,2020.2.5,Linux armv8l,60,,0,-0.418836806,-0.279785156,1,0,0,0.6827,button_left,0.6827,1,,,,,,472,NW,"ID",33,cigney,CIGNEY,z,,,,,,-0.418836806,-0.279785156,1,0,0,,0,129,129,291,1,
,,,,,,,,,,,,,,,,,,5982ff7c127287000185f50a,2020-11-27_15h01.58.447,lexical_decision_task_MP_exp2,2020.2.5,Linux armv8l,60,,0,-0.430989583,-0.288330078,1,0,0,0.6389,button_left,0.6389,1,,,,,,317,NW,UN,33,reagly,WORBAL,z,,,,,,-0.430989583,-0.288330078,1,0,0,,0,130,130,376,1,
,,,,,,,,,,,,,,,,,,5982ff7c127287000185f50a,2020-11-27_15h01.58.447,lexical_decision_task_MP_exp2,2020.2.5,Linux armv8l,60,,0,0.490017361,-0.272949219,1,0,0,0.5831,button_right,0.5831,1,,,,,,82,WORD,UN,33,result,STIGMA,m,,,,,,0.490017361,-0.272949219,1,0,0,,0,131,131,141,1,
,,,,,,,,,,,,,,,,,,5982ff7c127287000185f50a,2020-11-27_15h01.58.447,lexical_decision_task_MP_exp2,2020.2.5,Linux armv8l,60,,0,-0.418402778,-0.283935547,1,0,0,0.7564,button_left,0.7564,1,,,,,,417,NW,UN,16,suidle,EAROUD,z,,,,,,-0.418402778,-0.283935547,1,0,0,,0,132,132,476,1,
,,,,,,,,,,,,,,,,,,5982ff7c127287000185f50a,2020-11-27_15h01.58.447,lexical_decision_task_MP_exp2,2020.2.5,Linux armv8l,60,,0,0.497395833,-0.268554688,1,0,0,0.582,button_right,0.582,1,,,,,,203,WORD,"ID",33,phrase,PHRASE,m,,,,,,0.497395833,-0.268554688,1,0,0,,0,133,133,22,1,
,,,,,,,,,,,,,,,,,,5982ff7c127287000185f50a,2020-11-27_15h01.58.447,lexical_decision_task_MP_exp2,2020.2.5,Linux armv8l,60,,0,0.498263889,-0.271972656,1,0,0,0.5871,button_right,0.5871,0,,,,,,289,NW,"ID",16,starby,STARBY,z,,,,,,0.498263889,-0.271972656,1,0,0,,0,134,134,348,1,
,,,,,,,,,,,,,,,,,,5982ff7c127287000185f50a,2020-11-27_15h01.58.447,lexical_decision_task_MP_exp2,2020.2.5,Linux armv8l,60,,0,-0.425347222,-0.281494141,1,0,0,0.6845,button_left,0.6845,1,,,,,,283,NW,"ID",16,veralf,VERALF,z,,,,,,-0.425347222,-0.281494141,1,0,0,,0,135,135,342,1,
,,,,,,,,,,,,,,,,,,5982ff7c127287000185f50a,2020-11-27_15h01.58.447,lexical_decision_task_MP_exp2,2020.2.5,Linux armv8l,60,,0,-0.413628472,-0.273681641,1,0,0,0.6834,button_left,0.6834,1,,,,,,406,NW,UN,16,suiver,NOUPLY,z,,,,,,-0.413628472,-0.273681641,1,0,0,,0,136,136,465,1,
,,,,,,,,,,,,,,,,,,5982ff7c127287000185f50a,2020-11-27_15h01.58.447,lexical_decision_task_MP_exp2,2020.2.5,Linux armv8l,60,,0,0.499131944,-0.271484375,1,0,0,0.6663,button_right,0.6663,1,,,,,,202,WORD,"ID",33,factor,FACTOR,m,,,,,,0.499131944,-0.271484375,1,0,0,,0,137,137,21,1,
,,,,,,,,,,,,,,,,,,5982ff7c127287000185f50a,2020-11-27_15h01.58.447,lexical_decision_task_MP_exp2,2020.2.5,Linux armv8l,60,,0,-0.424479167,-0.279052734,1,0,0,0.6991,button_left,0.6991,1,,,,,,248,NW,"ID",16,strole,STROLE,z,,,,,,-0.424479167,-0.279052734,1,0,0,,0,138,138,307,1,
,,,,,,,,,,,,,,,,,,5982ff7c127287000185f50a,2020-11-27_15h01.58.447,lexical_decision_task_MP_exp2,2020.2.5,Linux armv8l,60,,0,-0.430989583,-0.2734375,1,0,0,0.9158,button_left,0.9158,1,,,,,,452,NW,"ID",33,surden,SURDEN,z,,,,,,-0.430989583,-0.2734375,1,0,0,,0,139,139,271,1,
,,,,,,,,,,,,,,,,,,5982ff7c127287000185f50a,2020-11-27_15h01.58.447,lexical_decision_task_MP_exp2,2020.2.5,Linux armv8l,60,,0,-0.424479167,-0.267089844,1,0,0,0.7324,button_left,0.7324,1,,,,,,480,NW,"ID",33,robuly,ROBULY,z,,,,,,-0.424479167,-0.267089844,1,0,0,,0,140,140,299,1,
,,,,,,,,,,,,,,,,,,5982ff7c127287000185f50a,2020-11-27_15h01.58.447,lexical_decision_task_MP_exp2,2020.2.5,Linux armv8l,60,,0,0.494791667,-0.273193359,1,0,0,0.6617,button_right,0.6617,1,,,,,,178,WORD,UN,16,basket,INFORM,m,,,,,,0.494791667,-0.273193359,1,0,0,,0,141,141,237,1,
,,,,,,,,,,,,,,,,,,5982ff7c127287000185f50a,2020-11-27_15h01.58.447,lexical_decision_task_MP_exp2,2020.2.5,Linux armv8l,60,,0,0.491319444,-0.265136719,1,0,0,0.6217,button_right,0.6217,1,,,,,,221,WORD,"ID",33,mascot,MASCOT,m,,,,,,0.491319444,-0.265136719,1,0,0,,0,142,142,40,1,
,,,,,,,,,,,,,,,,,,5982ff7c127287000185f50a,2020-11-27_15h01.58.447,lexical_decision_task_MP_exp2,2020.2.5,Linux armv8l,60,,0,-0.428385417,-0.277832031,1,0,0,0.8013,button_left,0.8013,1,,,,,,332,NW,UN,33,catrie,VANGUE,z,,,,,,-0.428385417,-0.277832031,1,0,0,,0,143,143,391,1,
,,,,,,,,,,,,,,,,,,5982ff7c127287000185f50a,2020-11-27_15h01.58.447,lexical_decision_task_MP_exp2,2020.2.5,Linux armv8l,60,,0,-0.440104167,-0.296142578,1,0,0,0.7559,button_left,0.7559,1,,,,,,428,NW,"ID",33,tandly,TANDLY,z,,,,,,-0.440104167,-0.296142578,1,0,0,,0,144,144,247,1,
,,,,,,,,,,,,,,,,,,5982ff7c127287000185f50a,2020-11-27_15h01.58.447,lexical_decision_task_MP_exp2,2020.2.5,Linux armv8l,60,,0,0.485243056,-0.269775391,1,0,0,0.6942,button_right,0.6942,1,,,,,,89,WORD,UN,33,relish,PERMIT,m,,,,,,0.485243056,-0.269775391,1,0,0,,0,145,145,148,1,
,,,,,,,,,,,,,,,,,,5982ff7c127287000185f50a,2020-11-27_15h01.58.447,lexical_decision_task_MP_exp2,2020.2.5,Linux armv8l,60,,0,0.473958333,-0.256347656,1,0,0,0.7673,button_right,0.7673,1,,,,,,172,WORD,UN,16,shower,PATROL,m,,,,,,0.473958333,-0.256347656,1,0,0,,0,146,146,231,1,
,,,,,,,,,,,,,,,,,,5982ff7c127287000185f50a,2020-11-27_15h01.58.447,lexical_decision_task_MP_exp2,2020.2.5,Linux armv8l,60,,0,0.48828125,-0.265380859,1,0,0,0.5988,button_right,0.5988,1,,,,,,231,WORD,"ID",33,export,EXPORT,m,,,,,,0.48828125,-0.265380859,1,0,0,,0,147,147,50,1,
,,,,,,,,,,,,,,,,,,5982ff7c127287000185f50a,2020-11-27_15h01.58.447,lexical_decision_task_MP_exp2,2020.2.5,Linux armv8l,60,,0,-0.427083333,-0.280761719,1,0,0,0.6385,button_left,0.6385,1,,,,,,389,NW,UN,16,hatrus,WITMER,z,,,,,,-0.427083333,-0.280761719,1,0,0,,0,148,148,448,1,
,,,,,,,,,,,,,,,,,,5982ff7c127287000185f50a,2020-11-27_15h01.58.447,lexical_decision_task_MP_exp2,2020.2.5,Linux armv8l,60,,0,-0.436631944,-0.283447266,1,0,0,0.7685,button_left,0.7685,1,,,,,,284,NW,"ID",16,shaple,SHAPLE,z,,,,,,-0.436631944,-0.283447266,1,0,0,,0,149,149,343,1,
,,,,,,,,,,,,,,,,,,5982ff7c127287000185f50a,2020-11-27_15h01.58.447,lexical_decision_task_MP_exp2,2020.2.5,Linux armv8l,60,,0,-0.432725694,-0.287597656,1,0,0,0.6137,button_left,0.6137,1,,,,,,422,NW,"ID",33,alcoud,ALCOUD,z,,,,,,-0.432725694,-0.287597656,1,0,0,,0,150,150,241,1,
,,,,,,,,,,,,,,,,,,5982ff7c127287000185f50a,2020-11-27_15h01.58.447,lexical_decision_task_MP_exp2,2020.2.5,Linux armv8l,60,,0,0.507378472,-0.249755859,1,0,0,0.6164,button_right,0.6164,1,,,,,,21,WORD,"ID",16,simple,SIMPLE,m,,,,,,0.507378472,-0.249755859,1,0,0,,0,151,151,80,1,
,,,,,,,,,,,,,,,,,,5982ff7c127287000185f50a,2020-11-27_15h01.58.447,lexical_decision_task_MP_exp2,2020.2.5,Linux armv8l,60,,0,0.501302083,-0.265136719,1,0,0,0.7722,button_right,0.7722,1,,,,,,239,WORD,"ID",33,lumber,LUMBER,m,,,,,,0.501302083,-0.265136719,1,0,0,,0,152,152,58,1,
,,,,,,,,,,,,,,,,,,5982ff7c127287000185f50a,2020-11-27_15h01.58.447,lexical_decision_task_MP_exp2,2020.2.5,Linux armv8l,60,,0,0.50390625,-0.270019531,1,0,0,0.5647,button_right,0.5647,1,,,,,,33,WORD,"ID",16,butler,BUTLER,m,,,,,,0.50390625,-0.270019531,1,0,0,,0,153,153,92,1,
,,,,,,,,,,,,,,,,,,5982ff7c127287000185f50a,2020-11-27_15h01.58.447,lexical_decision_task_MP_exp2,2020.2.5,Linux armv8l,60,,0,-0.431423611,-0.26953125,1,0,0,0.8696,button_left,0.8696,1,,,,,,478,NW,"ID",33,acrise,ACRISE,z,,,,,,-0.431423611,-0.26953125,1,0,0,,0,154,154,297,1,
,,,,,,,,,,,,,,,,,,5982ff7c127287000185f50a,2020-11-27_15h01.58.447,lexical_decision_task_MP_exp2,2020.2.5,Linux armv8l,60,,0,-0.422309028,-0.276855469,1,0,0,0.7349,button_left,0.7349,1,,,,,,348,NW,UN,33,asylen,DUMPLE,z,,,,,,-0.422309028,-0.276855469,1,0,0,,0,155,155,407,1,
,,,,,,,,,,,,,,,,,,5982ff7c127287000185f50a,2020-11-27_15h01.58.447,lexical_decision_task_MP_exp2,2020.2.5,Linux armv8l,60,,0,-0.42578125,-0.297607422,1,0,0,0.8704,button_left,0.8704,1,,,,,,352,NW,UN,33,clurey,TRINGE,z,,,,,,-0.42578125,-0.297607422,1,0,0,,0,156,156,411,1,
,,,,,,,,,,,,,,,,,,5982ff7c127287000185f50a,2020-11-27_15h01.58.447,lexical_decision_task_MP_exp2,2020.2.5,Linux armv8l,60,,0,0.491753472,-0.256103516,1,0,0,0.6641,button_right,0.6641,1,,,,,,205,WORD,"ID",33,lounge,LOUNGE,m,,,,,,0.491753472,-0.256103516,1,0,0,,0,157,157,24,1,
,,,,,,,,,,,,,,,,,,5982ff7c127287000185f50a,2020-11-27_15h01.58.447,lexical_decision_task_MP_exp2,2020.2.5,Linux armv8l,60,,0,-0.42578125,-0.283203125,1,0,0,0.6278,button_left,0.6278,1,,,,,,310,NW,UN,33,sproly,DANIET,z,,,,,,-0.42578125,-0.283203125,1,0,0,,0,158,158,369,1,
,,,,,,,,,,,,,,,,,,5982ff7c127287000185f50a,2020-11-27_15h01.58.447,lexical_decision_task_MP_exp2,2020.2.5,Linux armv8l,60,,0,0.474826389,-0.26171875,1,0,0,0.6889,button_right,0.6889,1,,,,,,136,WORD,UN,16,finger,BLEACH,m,,,,,,0.474826389,-0.26171875,1,0,0,,0,159,159,195,1,
,,,,,,,,,,,,,,,,,,5982ff7c127287000185f50a,2020-11-27_15h01.58.447,lexical_decision_task_MP_exp2,2020.2.5,Linux armv8l,60,,0,0.473958333,-0.250732422,1,0,0,0.7173,button_right,0.7173,1,,,,,,40,WORD,"ID",16,convey,CONVEY,m,,,,,,0.473958333,-0.250732422,1,0,0,,0,160,160,99,1,
,,,,,,,,,,,,,,,,,,5982ff7c127287000185f50a,2020-11-27_15h01.58.447,lexical_decision_task_MP_exp2,2020.2.5,Linux armv8l,60,,0,-0.424913194,-0.279785156,1,0,0,0.7027,button_left,0.7027,1,,,,,,249,NW,"ID",16,batrol,BATROL,z,,,,,,-0.424913194,-0.279785156,1,0,0,,0,161,161,308,1,
,,,,,,,,,,,,,,,,,,5982ff7c127287000185f50a,2020-11-27_15h01.58.447,lexical_decision_task_MP_exp2,2020.2.5,Linux armv8l,60,,0,0.482638889,-0.271728516,1,0,0,0.8504,button_right,0.8504,1,,,,,,52,WORD,"ID",16,impose,IMPOSE,m,,,,,,0.482638889,-0.271728516,1,0,0,,0,162,162,111,1,
,,,,,,,,,,,,,,,,,,5982ff7c127287000185f50a,2020-11-27_15h01.58.447,lexical_decision_task_MP_exp2,2020.2.5,Linux armv8l,60,,0,0.491319444,-0.261230469,1,0,0,0.5651,button_right,0.5651,1,,,,,,27,WORD,"ID",16,scream,SCREAM,m,,,,,,0.491319444,-0.261230469,1,0,0,,0,163,163,86,1,
,,,,,,,,,,,,,,,,,,5982ff7c127287000185f50a,2020-11-27_15h01.58.447,lexical_decision_task_MP_exp2,2020.2.5,Linux armv8l,60,,0,-0.424045139,-0.263671875,1,0,0,0.6499,button_left,0.6499,1,,,,,,393,NW,UN,16,spaqux,GANOUS,z,,,,,,-0.424045139,-0.263671875,1,0,0,,0,164,164,452,1,
,,,,,,,,,,,,,,,,,,5982ff7c127287000185f50a,2020-11-27_15h01.58.447,lexical_decision_task_MP_exp2,2020.2.5,Linux armv8l,60,,0,0.491319444,-0.263916016,1,0,0,0.6126,button_right,0.6126,1,,,,,,35,WORD,"ID",16,socket,SOCKET,m,,,,,,0.491319444,-0.263916016,1,0,0,,0,165,165,94,1,
,,,,,,,,,,,,,,,,,,5982ff7c127287000185f50a,2020-11-27_15h01.58.447,lexical_decision_task_MP_exp2,2020.2.5,Linux armv8l,60,,0,-0.416232639,-0.252441406,1,0,0,0.7661,button_left,0.7661,1,,,,,,315,NW,UN,33,scregm,LASTON,z,,,,,,-0.416232639,-0.252441406,1,0,0,,0,166,166,374,1,
,,,,,,,,,,,,,,,,,,5982ff7c127287000185f50a,2020-11-27_15h01.58.447,lexical_decision_task_MP_exp2,2020.2.5,Linux armv8l,60,,0,0.495225694,-0.256591797,1,0,0,0.6454,button_right,0.6454,1,,,,,,43,WORD,"ID",16,tongue,TONGUE,m,,,,,,0.495225694,-0.256591797,1,0,0,,0,167,167,102,1,
,,,,,,,,,,,,,,,,,,5982ff7c127287000185f50a,2020-11-27_15h01.58.447,lexical_decision_task_MP_exp2,2020.2.5,Linux armv8l,60,,0,-0.421006944,-0.267089844,1,0,0,0.7249,button_left,0.7249,1,,,,,,305,NW,UN,33,sounge,FORGLE,z,,,,,,-0.421006944,-0.267089844,1,0,0,,0,168,168,364,1,
,,,,,,,,,,,,,,,,,,5982ff7c127287000185f50a,2020-11-27_15h01.58.447,lexical_decision_task_MP_exp2,2020.2.5,Linux armv8l,60,,0,0.485677083,-0.268554688,1,0,0,0.6504,button_right,0.6504,1,,,,,,2,WORD,"ID",16,bridge,BRIDGE,m,,,,,,0.485677083,-0.268554688,1,0,0,,0,169,169,61,1,
,,,,,,,,,,,,,,,,,,5982ff7c127287000185f50a,2020-11-27_15h01.58.447,lexical_decision_task_MP_exp2,2020.2.5,Linux armv8l,60,,0,-0.425347222,-0.274414063,1,0,0,0.7024,button_left,0.7024,1,,,,,,254,NW,"ID",16,varosh,VAROSH,z,,,,,,-0.425347222,-0.274414063,1,0,0,,0,170,170,313,1,
,,,,,,,,,,,,,,,,,,5982ff7c127287000185f50a,2020-11-27_15h01.58.447,lexical_decision_task_MP_exp2,2020.2.5,Linux armv8l,60,,0,-0.427083333,-0.266845703,1,0,0,0.6827,button_left,0.6827,1,,,,,,308,NW,UN,33,amiloy,PSETCH,z,,,,,,-0.427083333,-0.266845703,1,0,0,,0,171,171,367,1,
,,,,,,,,,,,,,,,,,,5982ff7c127287000185f50a,2020-11-27_15h01.58.447,lexical_decision_task_MP_exp2,2020.2.5,Linux armv8l,60,,0,-0.439670139,-0.270263672,1,0,0,0.7784,button_left,0.7784,1,,,,,,405,NW,UN,16,nouply,FLUMNI,z,,,,,,-0.439670139,-0.270263672,1,0,0,,0,172,172,464,1,
,,,,,,,,,,,,,,,,,,5982ff7c127287000185f50a,2020-11-27_15h01.58.447,lexical_decision_task_MP_exp2,2020.2.5,Linux armv8l,60,,0,-0.434027778,-0.266357422,1,0,0,0.6171,button_left,0.6171,1,,,,,,293,NW,"ID",16,swance,SWANCE,z,,,,,,-0.434027778,-0.266357422,1,0,0,,0,173,173,352,1,
,,,,,,,,,,,,,,,,,,5982ff7c127287000185f50a,2020-11-27_15h01.58.447,lexical_decision_task_MP_exp2,2020.2.5,Linux armv8l,60,,0,-0.439236111,-0.275390625,1,0,0,0.6326,button_left,0.6326,1,,,,,,287,NW,"ID",16,nymbel,NYMBEL,z,,,,,,-0.439236111,-0.275390625,1,0,0,,0,174,174,346,1,
,,,,,,,,,,,,,,,,,,5982ff7c127287000185f50a,2020-11-27_15h01.58.447,lexical_decision_task_MP_exp2,2020.2.5,Linux armv8l,60,,0,0.483940972,-0.27734375,1,0,0,0.6811,button_right,0.6811,1,,,,,,204,WORD,"ID",33,burden,BURDEN,m,,,,,,0.483940972,-0.27734375,1,0,0,,0,175,175,23,1,
,,,,,,,,,,,,,,,,,,5982ff7c127287000185f50a,2020-11-27_15h01.58.447,lexical_decision_task_MP_exp2,2020.2.5,Linux armv8l,60,,0,-0.437065972,-0.275146484,1,0,0,0.5318,button_left,0.5318,1,,,,,,371,NW,UN,16,ramily,GEILOY,z,,,,,,-0.437065972,-0.275146484,1,0,0,,0,176,176,430,1,
,,,,,,,,,,,,,,,,,,5982ff7c127287000185f50a,2020-11-27_15h01.58.447,lexical_decision_task_MP_exp2,2020.2.5,Linux armv8l,60,,0,0.490017361,-0.276855469,1,0,0,0.7676,button_right,0.7676,1,,,,,,211,WORD,"ID",33,infect,INFECT,m,,,,,,0.490017361,-0.276855469,1,0,0,,0,177,177,30,1,
,,,,,,,,,,,,,,,,,,5982ff7c127287000185f50a,2020-11-27_15h01.58.447,lexical_decision_task_MP_exp2,2020.2.5,Linux armv8l,60,,0,0.474826389,-0.265380859,1,0,0,1.8075,button_right,1.8075,1,,,,,,176,WORD,UN,16,advent,STRIFE,m,,,,,,0.474826389,-0.265380859,1,0,0,,0,178,178,235,1,
,,,,,,,,,,,,,,,,,,5982ff7c127287000185f50a,2020-11-27_15h01.58.447,lexical_decision_task_MP_exp2,2020.2.5,Linux armv8l,60,,0,-0.436197917,-0.284179688,1,0,0,0.6672,button_left,0.6672,1,,,,,,290,NW,"ID",16,splino,SPLINO,z,,,,,,-0.436197917,-0.284179688,1,0,0,,0,179,179,349,1,
,,,,,,,,,,,,,,,,,,5982ff7c127287000185f50a,2020-11-27_15h01.58.447,lexical_decision_task_MP_exp2,2020.2.5,Linux armv8l,60,,0,-0.437065972,-0.279296875,1,0,0,0.6505,button_left,0.6505,1,,,,,,474,NW,"ID",33,hablin,HABLIN,z,,,,,,-0.437065972,-0.279296875,1,0,0,,0,180,180,293,1,
,,,,,,,,,,,,,,,,,,5982ff7c127287000185f50a,2020-11-27_15h01.58.447,lexical_decision_task_MP_exp2,2020.2.5,Linux armv8l,60,,0,0.498697917,-0.273925781,1,0,0,0.6487,button_right,0.6487,1,,,,,,102,WORD,UN,33,bounce,DIRECT,m,,,,,,0.498697917,-0.273925781,1,0,0,,0,181,181,161,1,
,,,,,,,,,,,,,,,,,,5982ff7c127287000185f50a,2020-11-27_15h01.58.447,lexical_decision_task_MP_exp2,2020.2.5,Linux armv8l,60,,0,0.504340278,-0.265869141,1,0,0,0.5839,button_right,0.5839,1,,,,,,39,WORD,"ID",16,insect,INSECT,m,,,,,,0.504340278,-0.265869141,1,0,0,,0,182,182,98,1,
,,,,,,,,,,,,,,,,,,5982ff7c127287000185f50a,2020-11-27_15h01.58.447,lexical_decision_task_MP_exp2,2020.2.5,Linux armv8l,60,,0,-0.429253472,-0.283935547,1,0,0,0.6871,button_left,0.6871,1,,,,,,259,NW,"ID",16,soudal,SOUDAL,z,,,,,,-0.429253472,-0.283935547,1,0,0,,0,183,183,318,1,
,,,,,,,,,,,,,,,,,,5982ff7c127287000185f50a,2020-11-27_15h01.58.447,lexical_decision_task_MP_exp2,2020.2.5,Linux armv8l,60,,0,0.501302083,-0.259521484,1,0,0,0.6013,button_right,0.6013,1,,,,,,127,WORD,UN,16,senior,CASTLE,m,,,,,,0.501302083,-0.259521484,1,0,0,,0,184,184,186,1,
,,,,,,,,,,,,,,,,,,5982ff7c127287000185f50a,2020-11-27_15h01.58.447,lexical_decision_task_MP_exp2,2020.2.5,Linux armv8l,60,,0,0.502604167,-0.264404297,1,0,0,0.555,button_right,0.555,1,,,,,,112,WORD,UN,33,chorus,BREATH,m,,,,,,0.502604167,-0.264404297,1,0,0,,0,185,185,171,1,
,,,,,,,,,,,,,,,,,,5982ff7c127287000185f50a,2020-11-27_15h01.58.447,lexical_decision_task_MP_exp2,2020.2.5,Linux armv8l,60,,0,0.50390625,-0.261230469,1,0,0,0.5829,button_right,0.5829,1,,,,,,85,WORD,UN,33,rodent,SPRAWL,m,,,,,,0.50390625,-0.261230469,1,0,0,,0,186,186,144,1,
,,,,,,,,,,,,,,,,,,5982ff7c127287000185f50a,2020-11-27_15h01.58.447,lexical_decision_task_MP_exp2,2020.2.5,Linux armv8l,60,,0,-0.426215278,-0.279785156,1,0,0,0.6164,button_left,0.6164,1,,,,,,258,NW,"ID",16,poluth,POLUTH,z,,,,,,-0.426215278,-0.279785156,1,0,0,,0,187,187,317,1,
,,,,,,,,,,,,,,,,,,5982ff7c127287000185f50a,2020-11-27_15h01.58.447,lexical_decision_task_MP_exp2,2020.2.5,Linux armv8l,60,,0,-0.412760417,-0.278808594,1,0,0,0.6669,button_left,0.6669,1,,,,,,359,NW,UN,33,desory,FONVER,z,,,,,,-0.412760417,-0.278808594,1,0,0,,0,188,188,418,1,
,,,,,,,,,,,,,,,,,,5982ff7c127287000185f50a,2020-11-27_15h01.58.447,lexical_decision_task_MP_exp2,2020.2.5,Linux armv8l,60,,0,-0.420138889,-0.271972656,1,0,0,0.7719,button_left,0.7719,1,,,,,,314,NW,UN,33,laston,SPRINE,z,,,,,,-0.420138889,-0.271972656,1,0,0,,0,189,189,373,1,
,,,,,,,,,,,,,,,,,,5982ff7c127287000185f50a,2020-11-27_15h01.58.447,lexical_decision_task_MP_exp2,2020.2.5,Linux armv8l,60,,0,-0.425347222,-0.280761719,1,0,0,0.576,button_left,0.576,1,,,,,,464,NW,"ID",33,chaite,CHAITE,z,,,,,,-0.425347222,-0.280761719,1,0,0,,0,190,190,283,1,
,,,,,,,,,,,,,,,,,,5982ff7c127287000185f50a,2020-11-27_15h01.58.447,lexical_decision_task_MP_exp2,2020.2.5,Linux armv8l,60,,0,-0.430989583,-0.281982422,1,0,0,0.5205,button_left,0.5205,0,,,,,,183,WORD,"ID",33,mildew,MILDEW,m,,,,,,-0.430989583,-0.281982422,1,0,0,,0,191,191,2,1,
,,,,,,,,,,,,,,,,,,5982ff7c127287000185f50a,2020-11-27_15h01.58.447,lexical_decision_task_MP_exp2,2020.2.5,Linux armv8l,60,,0,-0.428819444,-0.27734375,1,0,0,0.5828,button_left,0.5828,1,,,,,,288,NW,"ID",16,yaceup,YACEUP,z,,,,,,-0.428819444,-0.27734375,1,0,0,,0,192,192,347,1,
,,,,,,,,,,,,,,,,,,5982ff7c127287000185f50a,2020-11-27_15h01.58.447,lexical_decision_task_MP_exp2,2020.2.5,Linux armv8l,60,,0,0.514756944,-0.246826172,1,0,0,0.5814,button_right,0.5814,1,,,,,,15,WORD,"ID",16,amount,AMOUNT,m,,,,,,0.514756944,-0.246826172,1,0,0,,0,193,193,74,1,
,,,,,,,,,,,,,,,,,,5982ff7c127287000185f50a,2020-11-27_15h01.58.447,lexical_decision_task_MP_exp2,2020.2.5,Linux armv8l,60,,0,-0.437065972,-0.291992188,1,0,0,0.9361,button_left,0.9361,1,,,,,,253,NW,"ID",16,resait,RESAIT,z,,,,,,-0.437065972,-0.291992188,1,0,0,,0,194,194,312,1,
,,,,,,,,,,,,,,,,,,5982ff7c127287000185f50a,2020-11-27_15h01.58.447,lexical_decision_task_MP_exp2,2020.2.5,Linux armv8l,60,,0,0.501736111,-0.259765625,1,0,0,0.532,button_right,0.532,1,,,,,,238,WORD,"ID",33,flower,FLOWER,m,,,,,,0.501736111,-0.259765625,1,0,0,,0,195,195,57,1,
,,,,,,,,,,,,,,,,,,5982ff7c127287000185f50a,2020-11-27_15h01.58.447,lexical_decision_task_MP_exp2,2020.2.5,Linux armv8l,60,,0,-0.430989583,-0.293457031,1,0,0,0.7132,button_left,0.7132,1,,,,,,292,NW,"ID",16,ablint,ABLINT,z,,,,,,-0.430989583,-0.293457031,1,0,0,,0,196,196,351,1,
,,,,,,,,,,,,,,,,,,5982ff7c127287000185f50a,2020-11-27_15h01.58.447,lexical_decision_task_MP_exp2,2020.2.5,Linux armv8l,60,,0,0.495659722,-0.260742188,1,0,0,0.72,button_right,0.72,1,,,,,,90,WORD,UN,33,expand,RELISH,m,,,,,,0.495659722,-0.260742188,1,0,0,,0,197,197,149,1,
,,,,,,,,,,,,,,,,,,5982ff7c127287000185f50a,2020-11-27_15h01.58.447,lexical_decision_task_MP_exp2,2020.2.5,Linux armv8l,60,,0,-0.428385417,-0.294433594,1,0,0,0.6351,button_left,0.6351,1,,,,,,349,NW,UN,33,nagurs,ASYLEN,z,,,,,,-0.428385417,-0.294433594,1,0,0,,0,198,198,408,1,
,,,,,,,,,,,,,,,,,,5982ff7c127287000185f50a,2020-11-27_15h01.58.447,lexical_decision_task_MP_exp2,2020.2.5,Linux armv8l,60,,0,0.5078125,-0.254882813,1,0,0,0.6449,button_right,0.6449,1,,,,,,7,WORD,"ID",16,anchor,ANCHOR,m,,,,,,0.5078125,-0.254882813,1,0,0,,0,199,199,66,1,
,,,,,,,,,,,,,,,,,,5982ff7c127287000185f50a,2020-11-27_15h01.58.447,lexical_decision_task_MP_exp2,2020.2.5,Linux armv8l,60,,0,-0.438802083,-0.280029297,1,0,0,0.6681,button_left,0.6681,1,,,,,,300,NW,"ID",16,yarion,YARION,z,,,,,,-0.438802083,-0.280029297,1,0,0,,0,200,200,359,1,
,,,,,,,,,,,,,,,,,,5982ff7c127287000185f50a,2020-11-27_15h01.58.447,lexical_decision_task_MP_exp2,2020.2.5,Linux armv8l,60,,0,0.501302083,-0.257324219,1,0,0,0.6302,button_right,0.6302,1,,,,,,223,WORD,"ID",33,kidney,KIDNEY,m,,,,,,0.501302083,-0.257324219,1,0,0,,0,201,201,42,1,
,,,,,,,,,,,,,,,,,,5982ff7c127287000185f50a,2020-11-27_15h01.58.447,lexical_decision_task_MP_exp2,2020.2.5,Linux armv8l,60,,0,0.494357639,-0.247558594,1,0,0,0.6666,button_right,0.6666,1,,,,,,135,WORD,UN,16,bleach,IMPORT,m,,,,,,0.494357639,-0.247558594,1,0,0,,0,202,202,194,1,
,,,,,,,,,,,,,,,,,,5982ff7c127287000185f50a,2020-11-27_15h01.58.447,lexical_decision_task_MP_exp2,2020.2.5,Linux armv8l,60,,0,-0.443576389,-0.290771484,1,0,0,0.5996,button_left,0.5996,1,,,,,,401,NW,UN,16,syntic,MUSTIL,z,,,,,,-0.443576389,-0.290771484,1,0,0,,0,203,203,460,1,
,,,,,,,,,,,,,,,,,,5982ff7c127287000185f50a,2020-11-27_15h01.58.447,lexical_decision_task_MP_exp2,2020.2.5,Linux armv8l,60,,0,0.496527778,-0.265869141,1,0,0,0.7034,button_right,0.7034,1,,,,,,71,WORD,UN,33,bright,GARDEN,m,,,,,,0.496527778,-0.265869141,1,0,0,,0,204,204,130,1,
,,,,,,,,,,,,,,,,,,5982ff7c127287000185f50a,2020-11-27_15h01.58.447,lexical_decision_task_MP_exp2,2020.2.5,Linux armv8l,60,,0,-0.4375,-0.286621094,1,0,0,0.6343,button_left,0.6343,1,,,,,,309,NW,UN,33,daniet,AMILOY,z,,,,,,-0.4375,-0.286621094,1,0,0,,0,205,205,368,1,
,,,,,,,,,,,,,,,,,,5982ff7c127287000185f50a,2020-11-27_15h01.58.447,lexical_decision_task_MP_exp2,2020.2.5,Linux armv8l,60,,0,0.491753472,-0.26953125,1,0,0,0.7028,button_right,0.7028,1,,,,,,199,WORD,"ID",33,invoke,INVOKE,m,,,,,,0.491753472,-0.26953125,1,0,0,,0,206,206,18,1,
,,,,,,,,,,,,,,,,,,5982ff7c127287000185f50a,2020-11-27_15h01.58.447,lexical_decision_task_MP_exp2,2020.2.5,Linux armv8l,60,,0,-0.434895833,-0.282958984,1,0,0,0.635,button_left,0.635,1,,,,,,400,NW,UN,16,mustil,WEAROX,z,,,,,,-0.434895833,-0.282958984,1,0,0,,0,207,207,459,1,
,,,,,,,,,,,,,,,,,,5982ff7c127287000185f50a,2020-11-27_15h01.58.447,lexical_decision_task_MP_exp2,2020.2.5,Linux armv8l,60,,0,-0.436197917,-0.280517578,1,0,0,0.8383,button_left,0.8383,1,,,,,,338,NW,UN,33,fachow,WREASH,z,,,,,,-0.436197917,-0.280517578,1,0,0,,0,208,208,397,1,
,,,,,,,,,,,,,,,,,,5982ff7c127287000185f50a,2020-11-27_15h01.58.447,lexical_decision_task_MP_exp2,2020.2.5,Linux armv8l,60,,0,0.508246528,-0.268310547,1,0,0,0.6125,button_right,0.6125,1,,,,,,84,WORD,UN,33,strand,MORTAL,m,,,,,,0.508246528,-0.268310547,1,0,0,,0,209,209,143,1,
,,,,,,,,,,,,,,,,,,5982ff7c127287000185f50a,2020-11-27_15h01.58.447,lexical_decision_task_MP_exp2,2020.2.5,Linux armv8l,60,,0,-0.432725694,-0.297363281,1,0,0,0.6433,button_left,0.6433,1,,,,,,444,NW,"ID",33,jaunce,JAUNCE,z,,,,,,-0.432725694,-0.297363281,1,0,0,,0,210,210,263,1,
,,,,,,,,,,,,,,,,,,5982ff7c127287000185f50a,2020-11-27_15h01.58.447,lexical_decision_task_MP_exp2,2020.2.5,Linux armv8l,60,,0,0.510850694,-0.26953125,1,0,0,0.6816,button_right,0.6816,1,,,,,,141,WORD,UN,16,spruce,ORPHAN,m,,,,,,0.510850694,-0.26953125,1,0,0,,0,211,211,200,1,
,,,,,,,,,,,,,,,,,,5982ff7c127287000185f50a,2020-11-27_15h01.58.447,lexical_decision_task_MP_exp2,2020.2.5,Linux armv8l,60,,0,-0.435329861,-0.296875,1,0,0,0.669,button_left,0.669,1,,,,,,304,NW,UN,33,forgle,CLUDIE,z,,,,,,-0.435329861,-0.296875,1,0,0,,0,212,212,363,1,
,,,,,,,,,,,,,,,,,,5982ff7c127287000185f50a,2020-11-27_15h01.58.447,lexical_decision_task_MP_exp2,2020.2.5,Linux armv8l,60,,0,-0.416666667,-0.272216797,1,0,0,0.7332,button_left,0.7332,1,,,,,,358,NW,UN,33,fonver,FLEACK,z,,,,,,-0.416666667,-0.272216797,1,0,0,,0,213,213,417,1,
,,,,,,,,,,,,,,,,,,5982ff7c127287000185f50a,2020-11-27_15h01.58.447,lexical_decision_task_MP_exp2,2020.2.5,Linux armv8l,60,,0,-0.4375,-0.299316406,1,0,0,0.7587,button_left,0.7587,1,,,,,,449,NW,"ID",33,brunge,BRUNGE,z,,,,,,-0.4375,-0.299316406,1,0,0,,0,214,214,268,1,
,,,,,,,,,,,,,,,,,,5982ff7c127287000185f50a,2020-11-27_15h01.58.447,lexical_decision_task_MP_exp2,2020.2.5,Linux armv8l,60,,0,-0.4453125,-0.307861328,1,0,0,0.6974,button_left,0.6974,1,,,,,,354,NW,UN,33,zingly,VIRLEX,z,,,,,,-0.4453125,-0.307861328,1,0,0,,0,215,215,413,1,
,,,,,,,,,,,,,,,,,,5982ff7c127287000185f50a,2020-11-27_15h01.58.447,lexical_decision_task_MP_exp2,2020.2.5,Linux armv8l,60,,0,0.503038194,-0.255371094,1,0,0,0.685,button_right,0.685,1,,,,,,174,WORD,UN,16,fabric,TURKEY,m,,,,,,0.503038194,-0.255371094,1,0,0,,0,216,216,233,1,
,,,,,,,,,,,,,,,,,,5982ff7c127287000185f50a,2020-11-27_15h01.58.447,lexical_decision_task_MP_exp2,2020.2.5,Linux armv8l,60,,0,0.506944444,-0.247558594,1,0,0,0.6002,button_right,0.6002,1,,,,,,53,WORD,"ID",16,police,POLICE,m,,,,,,0.506944444,-0.247558594,1,0,0,,0,217,217,112,1,
,,,,,,,,,,,,,,,,,,5982ff7c127287000185f50a,2020-11-27_15h01.58.447,lexical_decision_task_MP_exp2,2020.2.5,Linux armv8l,60,,0,0.509548611,-0.244873047,1,0,0,0.5833,button_right,0.5833,1,,,,,,92,WORD,UN,33,public,STRAND,m,,,,,,0.509548611,-0.244873047,1,0,0,,0,218,218,151,1,
,,,,,,,,,,,,,,,,,,5982ff7c127287000185f50a,2020-11-27_15h01.58.447,lexical_decision_task_MP_exp2,2020.2.5,Linux armv8l,60,,0,0.506076389,-0.250488281,1,0,0,0.7006,button_right,0.7006,1,,,,,,131,WORD,UN,16,strong,QUENCH,m,,,,,,0.506076389,-0.250488281,1,0,0,,0,219,219,190,1,
,,,,,,,,,,,,,,,,,,5982ff7c127287000185f50a,2020-11-27_15h01.58.447,lexical_decision_task_MP_exp2,2020.2.5,Linux armv8l,60,,0,0.505208333,-0.254394531,1,0,0,0.5916,button_right,0.5916,1,,,,,,185,WORD,"ID",33,bother,BOTHER,m,,,,,,0.505208333,-0.254394531,1,0,0,,0,220,220,4,1,
,,,,,,,,,,,,,,,,,,5982ff7c127287000185f50a,2020-11-27_15h01.58.447,lexical_decision_task_MP_exp2,2020.2.5,Linux armv8l,60,,0,0.497395833,-0.25390625,1,0,0,0.561,button_right,0.561,1,,,,,,155,WORD,UN,16,cradle,LIZARD,m,,,,,,0.497395833,-0.25390625,1,0,0,,0,221,221,214,1,
,,,,,,,,,,,,,,,,,,5982ff7c127287000185f50a,2020-11-27_15h01.58.447,lexical_decision_task_MP_exp2,2020.2.5,Linux armv8l,60,,0,0.502604167,-0.252197266,1,0,0,0.5629,button_right,0.5629,1,,,,,,164,WORD,UN,16,invest,MARKET,m,,,,,,0.502604167,-0.252197266,1,0,0,,0,222,222,223,1,
,,,,,,,,,,,,,,,,,,5982ff7c127287000185f50a,2020-11-27_15h01.58.447,lexical_decision_task_MP_exp2,2020.2.5,Linux armv8l,60,,0,-0.456163194,-0.299804688,1,0,0,0.681,button_left,0.681,1,,,,,,454,NW,"ID",33,scouge,SCOUGE,z,,,,,,-0.456163194,-0.299804688,1,0,0,,0,223,223,273,1,
,,,,,,,,,,,,,,,,,,5982ff7c127287000185f50a,2020-11-27_15h01.58.447,lexical_decision_task_MP_exp2,2020.2.5,Linux armv8l,60,,0,-0.462673611,-0.305175781,1,0,0,0.7174,button_left,0.7174,1,,,,,,416,NW,UN,16,earoud,PATHEL,z,,,,,,-0.462673611,-0.305175781,1,0,0,,0,224,224,475,1,
,,,,,,,,,,,,,,,,,,5982ff7c127287000185f50a,2020-11-27_15h01.58.447,lexical_decision_task_MP_exp2,2020.2.5,Linux armv8l,60,,0,-0.453125,-0.306152344,1,0,0,0.6213,button_left,0.6213,1,,,,,,378,NW,UN,16,auting,SHRILE,z,,,,,,-0.453125,-0.306152344,1,0,0,,0,225,225,437,1,
,,,,,,,,,,,,,,,,,,5982ff7c127287000185f50a,2020-11-27_15h01.58.447,lexical_decision_task_MP_exp2,2020.2.5,Linux armv8l,60,,0,0.50390625,-0.267822266,1,0,0,0.8515,button_right,0.8515,1,,,,,,117,WORD,UN,33,flight,BRANCH,m,,,,,,0.50390625,-0.267822266,1,0,0,,0,226,226,176,1,
,,,,,,,,,,,,,,,,,,5982ff7c127287000185f50a,2020-11-27_15h01.58.447,lexical_decision_task_MP_exp2,2020.2.5,Linux armv8l,60,,0,-0.448350694,-0.281494141,1,0,0,0.819,button_left,0.819,1,,,,,,321,NW,UN,33,slanch,MIATOR,z,,,,,,-0.448350694,-0.281494141,1,0,0,,0,227,227,380,1,
,,,,,,,,,,,,,,,,,,5982ff7c127287000185f50a,2020-11-27_15h01.58.447,lexical_decision_task_MP_exp2,2020.2.5,Linux armv8l,60,,0,-0.444878472,-0.299072266,1,0,0,0.7158,button_left,0.7158,1,,,,,,460,NW,"ID",33,mingar,MINGAR,z,,,,,,-0.444878472,-0.299072266,1,0,0,,0,228,228,279,1,
,,,,,,,,,,,,,,,,,,5982ff7c127287000185f50a,2020-11-27_15h01.58.447,lexical_decision_task_MP_exp2,2020.2.5,Linux armv8l,60,,0,-0.447048611,-0.295898438,1,0,0,0.7335,button_left,0.7335,1,,,,,,262,NW,"ID",16,quilew,QUILEW,z,,,,,,-0.447048611,-0.295898438,1,0,0,,0,229,229,321,1,
,,,,,,,,,,,,,,,,,,5982ff7c127287000185f50a,2020-11-27_15h01.58.447,lexical_decision_task_MP_exp2,2020.2.5,Linux armv8l,60,,0,-0.449652778,-0.305908203,1,0,0,0.7614,button_left,0.7614,1,,,,,,360,NW,UN,33,fainch,DESORY,z,,,,,,-0.449652778,-0.305908203,1,0,0,,0,230,230,419,1,
,,,,,,,,,,,,,,,,,,5982ff7c127287000185f50a,2020-11-27_15h01.58.447,lexical_decision_task_MP_exp2,2020.2.5,Linux armv8l,60,,0,-0.448784722,-0.299072266,1,0,0,0.9007,button_left,0.9007,1,,,,,,426,NW,"ID",33,urivel,URIVEL,z,,,,,,-0.448784722,-0.299072266,1,0,0,,0,231,231,245,1,
,,,,,,,,,,,,,,,,,,5982ff7c127287000185f50a,2020-11-27_15h01.58.447,lexical_decision_task_MP_exp2,2020.2.5,Linux armv8l,60,,0,-0.446180556,-0.296386719,1,0,0,0.7013,button_left,0.7013,1,,,,,,399,NW,UN,16,wearox,FOURET,z,,,,,,-0.446180556,-0.296386719,1,0,0,,0,232,232,458,1,
,,,,,,,,,,,,,,,,,,5982ff7c127287000185f50a,2020-11-27_15h01.58.447,lexical_decision_task_MP_exp2,2020.2.5,Linux armv8l,60,,0,0.518663194,-0.260498047,1,0,0,0.6824,button_right,0.6824,1,,,,,,222,WORD,"ID",33,hinder,HINDER,m,,,,,,0.518663194,-0.260498047,1,0,0,,0,233,233,41,1,
,,,,,,,,,,,,,,,,,,5982ff7c127287000185f50a,2020-11-27_15h01.58.447,lexical_decision_task_MP_exp2,2020.2.5,Linux armv8l,60,,0,0.516059028,-0.258789063,1,0,0,0.5505,button_right,0.5505,1,,,,,,175,WORD,UN,16,strife,FABRIC,m,,,,,,0.516059028,-0.258789063,1,0,0,,0,234,234,234,1,
,,,,,,,,,,,,,,,,,,5982ff7c127287000185f50a,2020-11-27_15h01.58.447,lexical_decision_task_MP_exp2,2020.2.5,Linux armv8l,60,,0,0.503038194,-0.253417969,1,0,0,0.8677,button_right,0.8677,1,,,,,,142,WORD,UN,16,reason,SPRUCE,m,,,,,,0.503038194,-0.253417969,1,0,0,,0,235,235,201,1,
,,,,,,,,,,,,,,,,,,5982ff7c127287000185f50a,2020-11-27_15h01.58.447,lexical_decision_task_MP_exp2,2020.2.5,Linux armv8l,60,,0,-0.450954861,-0.312744141,1,0,0,0.68,button_left,0.68,1,,,,,,278,NW,"ID",16,unighs,UNIGHS,z,,,,,,-0.450954861,-0.312744141,1,0,0,,0,236,236,337,1,
,,,,,,,,,,,,,,,,,,5982ff7c127287000185f50a,2020-11-27_15h01.58.447,lexical_decision_task_MP_exp2,2020.2.5,Linux armv8l,60,,0,-0.438368056,-0.292480469,1,0,0,0.721,button_left,0.721,1,,,,,,388,NW,UN,16,witmer,CRAGIN,z,,,,,,-0.438368056,-0.292480469,1,0,0,,0,237,237,447,1,
,,,,,,,,,,,,,,,,,,5982ff7c127287000185f50a,2020-11-27_15h01.58.447,lexical_decision_task_MP_exp2,2020.2.5,Linux armv8l,60,,0,-0.454861111,-0.312255859,1,0,0,0.6839,button_left,0.6839,1,,,,,,265,NW,"ID",16,distar,DISTAR,z,,,,,,-0.454861111,-0.312255859,1,0,0,,0,238,238,324,1,
,,,,,,,,,,,,,,,,,,5982ff7c127287000185f50a,2020-11-27_15h01.58.447,lexical_decision_task_MP_exp2,2020.2.5,Linux armv8l,60,,0,0.466145833,-0.303466797,1,0,0,0.7012,button_right,0.7012,1,,,,,,236,WORD,"ID",33,pirate,PIRATE,m,,,,,,0.466145833,-0.303466797,1,0,0,,0,239,239,55,1,
,,,,,,,,,,,,,,,,,,5982ff7c127287000185f50a,2020-11-27_15h01.58.447,lexical_decision_task_MP_exp2,2020.2.5,Linux armv8l,60,,0,-0.450086806,-0.295654297,1,0,0,0.7506,button_left,0.7506,1,,,,,,398,NW,UN,16,fouret,BLUNDE,z,,,,,,-0.450086806,-0.295654297,1,0,0,,0,240,240,457,1,
,,,,,,,,,,,,,,,,,,5982ff7c127287000185f50a,2020-11-27_15h01.58.447,lexical_decision_task_MP_exp2,2020.2.5,Linux armv8l,60,,0,-0.451388889,-0.297119141,1,0,0,0.7832,button_left,0.7832,1,,,,,,411,NW,UN,16,jiluer,ORCHIN,z,,,,,,-0.066840278,-0.393310547,1,0,0,,0,241,241,470,1,break_done_button
,,,,,,,,,,,,,,,,,,5982ff7c127287000185f50a,2020-11-27_15h01.58.447,lexical_decision_task_MP_exp2,2020.2.5,Linux armv8l,60,,0,-0.435329861,-0.25390625,1,0,0,1.0706,button_left,1.0706,1,,,,,,298,NW,"ID",16,piergy,PIERGY,z,,,,,,-0.435329861,-0.25390625,1,0,0,,0,242,242,357,1,
,,,,,,,,,,,,,,,,,,5982ff7c127287000185f50a,2020-11-27_15h01.58.447,lexical_decision_task_MP_exp2,2020.2.5,Linux armv8l,60,,0,-0.430121528,-0.266357422,1,0,0,0.6172,button_left,0.6172,1,,,,,,297,NW,"ID",16,fertic,FERTIC,z,,,,,,-0.430121528,-0.266357422,1,0,0,,0,243,243,356,1,
,,,,,,,,,,,,,,,,,,5982ff7c127287000185f50a,2020-11-27_15h01.58.447,lexical_decision_task_MP_exp2,2020.2.5,Linux armv8l,60,,0,0.420138889,-0.267822266,1,0,0,0.5892,button_right,0.5892,1,,,,,,105,WORD,UN,33,ransom,NUMBER,m,,,,,,0.420138889,-0.267822266,1,0,0,,0,244,244,164,1,
,,,,,,,,,,,,,,,,,,5982ff7c127287000185f50a,2020-11-27_15h01.58.447,lexical_decision_task_MP_exp2,2020.2.5,Linux armv8l,60,,0,0.460069444,-0.220458984,1,0,0,0.5253,button_right,0.5253,1,,,,,,4,WORD,"ID",16,trench,TRENCH,m,,,,,,0.460069444,-0.220458984,1,0,0,,0,245,245,63,1,
,,,,,,,,,,,,,,,,,,5982ff7c127287000185f50a,2020-11-27_15h01.58.447,lexical_decision_task_MP_exp2,2020.2.5,Linux armv8l,60,,0,0.454861111,-0.228271484,1,0,0,0.5672,button_right,0.5672,1,,,,,,187,WORD,"ID",33,course,COURSE,m,,,,,,0.454861111,-0.228271484,1,0,0,,0,246,246,6,1,
,,,,,,,,,,,,,,,,,,5982ff7c127287000185f50a,2020-11-27_15h01.58.447,lexical_decision_task_MP_exp2,2020.2.5,Linux armv8l,60,,0,0.453125,-0.231933594,1,0,0,0.6127,button_right,0.6127,1,,,,,,163,WORD,UN,16,market,STRING,m,,,,,,0.453125,-0.231933594,1,0,0,,0,247,247,222,1,
,,,,,,,,,,,,,,,,,,5982ff7c127287000185f50a,2020-11-27_15h01.58.447,lexical_decision_task_MP_exp2,2020.2.5,Linux armv8l,60,,0,-0.411892361,-0.283691406,1,0,0,0.6601,button_left,0.6601,1,,,,,,286,NW,"ID",16,reldon,RELDON,z,,,,,,-0.411892361,-0.283691406,1,0,0,,0,248,248,345,1,
,,,,,,,,,,,,,,,,,,5982ff7c127287000185f50a,2020-11-27_15h01.58.447,lexical_decision_task_MP_exp2,2020.2.5,Linux armv8l,60,,0,-0.414496528,-0.276855469,1,0,0,0.5835,button_left,0.5835,1,,,,,,365,NW,UN,16,toshel,GUAIRT,z,,,,,,-0.414496528,-0.276855469,1,0,0,,0,249,249,424,1,
,,,,,,,,,,,,,,,,,,5982ff7c127287000185f50a,2020-11-27_15h01.58.447,lexical_decision_task_MP_exp2,2020.2.5,Linux armv8l,60,,0,-0.398003472,-0.263916016,1,0,0,0.6005,button_left,0.6005,1,,,,,,333,NW,UN,33,watmeg,CATRIE,z,,,,,,-0.398003472,-0.263916016,1,0,0,,0,250,250,392,1,
,,,,,,,,,,,,,,,,,,5982ff7c127287000185f50a,2020-11-27_15h01.58.447,lexical_decision_task_MP_exp2,2020.2.5,Linux armv8l,60,,0,-0.41015625,-0.275146484,1,0,0,0.6002,button_left,0.6002,1,,,,,,356,NW,UN,33,derain,OTHNIS,z,,,,,,-0.41015625,-0.275146484,1,0,0,,0,251,251,415,1,
,,,,,,,,,,,,,,,,,,5982ff7c127287000185f50a,2020-11-27_15h01.58.447,lexical_decision_task_MP_exp2,2020.2.5,Linux armv8l,60,,0,0.457465278,-0.246337891,1,0,0,0.5287,button_right,0.5287,1,,,,,,130,WORD,UN,16,quench,STUPID,m,,,,,,0.457465278,-0.246337891,1,0,0,,0,252,252,189,1,
,,,,,,,,,,,,,,,,,,5982ff7c127287000185f50a,2020-11-27_15h01.58.447,lexical_decision_task_MP_exp2,2020.2.5,Linux armv8l,60,,0,-0.406684028,-0.26953125,1,0,0,0.7246,button_left,0.7246,0,,,,,,16,WORD,"ID",16,faucet,FAUCET,m,,,,,,-0.406684028,-0.26953125,1,0,0,,0,253,253,75,1,
,,,,,,,,,,,,,,,,,,5982ff7c127287000185f50a,2020-11-27_15h01.58.447,lexical_decision_task_MP_exp2,2020.2.5,Linux armv8l,60,,0,0.457899306,-0.252197266,1,0,0,0.7173,button_right,0.7173,1,,,,,,5,WORD,"ID",16,plunge,PLUNGE,m,,,,,,0.457899306,-0.252197266,1,0,0,,0,254,254,64,1,
,,,,,,,,,,,,,,,,,,5982ff7c127287000185f50a,2020-11-27_15h01.58.447,lexical_decision_task_MP_exp2,2020.2.5,Linux armv8l,60,,0,-0.400173611,-0.270263672,1,0,0,0.7645,button_left,0.7645,1,,,,,,396,NW,UN,16,camble,FLENGY,z,,,,,,-0.400173611,-0.270263672,1,0,0,,0,255,255,455,1,
,,,,,,,,,,,,,,,,,,5982ff7c127287000185f50a,2020-11-27_15h01.58.447,lexical_decision_task_MP_exp2,2020.2.5,Linux armv8l,60,,0,0.465277778,-0.252929688,1,0,0,0.702,button_right,0.702,1,,,,,,240,WORD,"ID",33,forest,FOREST,m,,,,,,0.465277778,-0.252929688,1,0,0,,0,256,256,59,1,
,,,,,,,,,,,,,,,,,,5982ff7c127287000185f50a,2020-11-27_15h01.58.447,lexical_decision_task_MP_exp2,2020.2.5,Linux armv8l,60,,0,0.469618056,-0.255859375,1,0,0,0.8286,button_right,0.8286,1,,,,,,217,WORD,"ID",33,liquor,LIQUOR,m,,,,,,0.469618056,-0.255859375,1,0,0,,0,257,257,36,1,
,,,,,,,,,,,,,,,,,,5982ff7c127287000185f50a,2020-11-27_15h01.58.447,lexical_decision_task_MP_exp2,2020.2.5,Linux armv8l,60,,0,0.469618056,-0.251708984,1,0,0,0.7624,button_right,0.7624,0,,,,,,266,NW,"ID",16,varmit,VARMIT,z,,,,,,0.469618056,-0.251708984,1,0,0,,0,258,258,325,1,
,,,,,,,,,,,,,,,,,,5982ff7c127287000185f50a,2020-11-27_15h01.58.447,lexical_decision_task_MP_exp2,2020.2.5,Linux armv8l,60,,0,-0.381076389,-0.256103516,1,0,0,0.6947,button_left,0.6947,1,,,,,,274,NW,"ID",16,fumblo,FUMBLO,z,,,,,,-0.381076389,-0.256103516,1,0,0,,0,259,259,333,1,
,,,,,,,,,,,,,,,,,,5982ff7c127287000185f50a,2020-11-27_15h01.58.447,lexical_decision_task_MP_exp2,2020.2.5,Linux armv8l,60,,0,0.457465278,-0.265869141,1,0,0,0.6554,button_right,0.6554,1,,,,,,186,WORD,"ID",33,portal,PORTAL,m,,,,,,0.457465278,-0.265869141,1,0,0,,0,260,260,5,1,
,,,,,,,,,,,,,,,,,,5982ff7c127287000185f50a,2020-11-27_15h01.58.447,lexical_decision_task_MP_exp2,2020.2.5,Linux armv8l,60,,0,-0.412760417,-0.262695313,1,0,0,0.7411,button_left,0.7411,1,,,,,,377,NW,UN,16,shrile,INJORE,z,,,,,,-0.412760417,-0.262695313,1,0,0,,0,261,261,436,1,
,,,,,,,,,,,,,,,,,,5982ff7c127287000185f50a,2020-11-27_15h01.58.447,lexical_decision_task_MP_exp2,2020.2.5,Linux armv8l,60,,0,-0.410590278,-0.257324219,1,0,0,0.8076,button_left,0.8076,1,,,,,,431,NW,"ID",33,chrums,CHRUMS,z,,,,,,-0.410590278,-0.257324219,1,0,0,,0,262,262,250,1,
,,,,,,,,,,,,,,,,,,5982ff7c127287000185f50a,2020-11-27_15h01.58.447,lexical_decision_task_MP_exp2,2020.2.5,Linux armv8l,60,,0,0.470052083,-0.255859375,1,0,0,0.6005,button_right,0.6005,1,,,,,,11,WORD,"ID",16,cruise,CRUISE,m,,,,,,0.470052083,-0.255859375,1,0,0,,0,263,263,70,1,
,,,,,,,,,,,,,,,,,,5982ff7c127287000185f50a,2020-11-27_15h01.58.447,lexical_decision_task_MP_exp2,2020.2.5,Linux armv8l,60,,0,-0.403645833,-0.250488281,1,0,0,0.7335,button_left,0.7335,1,,,,,,261,NW,"ID",16,stunch,STUNCH,z,,,,,,-0.403645833,-0.250488281,1,0,0,,0,264,264,320,1,
,,,,,,,,,,,,,,,,,,5982ff7c127287000185f50a,2020-11-27_15h01.58.447,lexical_decision_task_MP_exp2,2020.2.5,Linux armv8l,60,,0,-0.403645833,-0.260498047,1,0,0,0.6166,button_left,0.6166,1,,,,,,386,NW,UN,16,gronce,ANCUST,z,,,,,,-0.403645833,-0.260498047,1,0,0,,0,265,265,445,1,
,,,,,,,,,,,,,,,,,,5982ff7c127287000185f50a,2020-11-27_15h01.58.447,lexical_decision_task_MP_exp2,2020.2.5,Linux armv8l,60,,0,0.483940972,-0.250488281,1,0,0,0.5729,button_right,0.5729,1,,,,,,229,WORD,"ID",33,mother,MOTHER,m,,,,,,0.483940972,-0.250488281,1,0,0,,0,266,266,48,1,
,,,,,,,,,,,,,,,,,,5982ff7c127287000185f50a,2020-11-27_15h01.58.447,lexical_decision_task_MP_exp2,2020.2.5,Linux armv8l,60,,0,-0.409722222,-0.274902344,1,0,0,0.6362,button_left,0.6362,1,,,,,,435,NW,"ID",33,impurb,IMPURB,z,,,,,,-0.409722222,-0.274902344,1,0,0,,0,267,267,254,1,
,,,,,,,,,,,,,,,,,,5982ff7c127287000185f50a,2020-11-27_15h01.58.447,lexical_decision_task_MP_exp2,2020.2.5,Linux armv8l,60,,0,-0.3828125,-0.244628906,1,0,0,0.6028,button_left,0.6028,1,,,,,,246,NW,"ID",16,piaton,PIATON,z,,,,,,-0.3828125,-0.244628906,1,0,0,,0,268,268,305,1,
,,,,,,,,,,,,,,,,,,5982ff7c127287000185f50a,2020-11-27_15h01.58.447,lexical_decision_task_MP_exp2,2020.2.5,Linux armv8l,60,,0,0.476128472,-0.271240234,1,0,0,0.5334,button_right,0.5334,1,,,,,,193,WORD,"ID",33,object,OBJECT,m,,,,,,0.476128472,-0.271240234,1,0,0,,0,269,269,12,1,
,,,,,,,,,,,,,,,,,,5982ff7c127287000185f50a,2020-11-27_15h01.58.447,lexical_decision_task_MP_exp2,2020.2.5,Linux armv8l,60,,0,0.474826389,-0.275634766,1,0,0,0.6022,button_right,0.6022,1,,,,,,113,WORD,UN,33,placid,CHORUS,m,,,,,,0.474826389,-0.275634766,1,0,0,,0,270,270,172,1,
,,,,,,,,,,,,,,,,,,5982ff7c127287000185f50a,2020-11-27_15h01.58.447,lexical_decision_task_MP_exp2,2020.2.5,Linux armv8l,60,,0,-0.404079861,-0.268798828,1,0,0,0.7345,button_left,0.7345,1,,,,,,244,NW,"ID",16,eatric,EATRIC,z,,,,,,-0.404079861,-0.268798828,1,0,0,,0,271,271,303,1,
,,,,,,,,,,,,,,,,,,5982ff7c127287000185f50a,2020-11-27_15h01.58.447,lexical_decision_task_MP_exp2,2020.2.5,Linux armv8l,60,,0,-0.398871528,-0.262939453,1,0,0,0.632,button_left,0.632,1,,,,,,463,NW,"ID",33,kispel,KISPEL,z,,,,,,-0.398871528,-0.262939453,1,0,0,,0,272,272,282,1,
,,,,,,,,,,,,,,,,,,5982ff7c127287000185f50a,2020-11-27_15h01.58.447,lexical_decision_task_MP_exp2,2020.2.5,Linux armv8l,60,,0,-0.405381944,-0.265625,1,0,0,0.5985,button_left,0.5985,1,,,,,,465,NW,"ID",33,whivex,WHIVEX,z,,,,,,-0.405381944,-0.265625,1,0,0,,0,273,273,284,1,
,,,,,,,,,,,,,,,,,,5982ff7c127287000185f50a,2020-11-27_15h01.58.447,lexical_decision_task_MP_exp2,2020.2.5,Linux armv8l,60,,0,0.484809028,-0.282714844,1,0,0,0.5999,button_right,0.5999,1,,,,,,83,WORD,UN,33,mortal,RESULT,m,,,,,,0.484809028,-0.282714844,1,0,0,,0,274,274,142,1,
,,,,,,,,,,,,,,,,,,5982ff7c127287000185f50a,2020-11-27_15h01.58.447,lexical_decision_task_MP_exp2,2020.2.5,Linux armv8l,60,,0,0.489583333,-0.273925781,1,0,0,0.5695,button_right,0.5695,1,,,,,,103,WORD,UN,33,studio,BOUNCE,m,,,,,,0.489583333,-0.273925781,1,0,0,,0,275,275,162,1,
,,,,,,,,,,,,,,,,,,5982ff7c127287000185f50a,2020-11-27_15h01.58.447,lexical_decision_task_MP_exp2,2020.2.5,Linux armv8l,60,,0,0.493055556,-0.278808594,1,0,0,0.5686,button_right,0.5686,1,,,,,,44,WORD,"ID",16,danger,DANGER,m,,,,,,0.493055556,-0.278808594,1,0,0,,0,276,276,103,1,
,,,,,,,,,,,,,,,,,,5982ff7c127287000185f50a,2020-11-27_15h01.58.447,lexical_decision_task_MP_exp2,2020.2.5,Linux armv8l,60,,0,-0.414930556,-0.280761719,1,0,0,0.7237,button_left,0.7237,1,,,,,,301,NW,UN,33,miluer,FAINCH,z,,,,,,-0.414930556,-0.280761719,1,0,0,,0,277,277,360,1,
,,,,,,,,,,,,,,,,,,5982ff7c127287000185f50a,2020-11-27_15h01.58.447,lexical_decision_task_MP_exp2,2020.2.5,Linux armv8l,60,,0,-0.428385417,-0.286621094,1,0,0,0.677,button_left,0.677,1,,,,,,423,NW,"ID",33,streld,STRELD,z,,,,,,-0.428385417,-0.286621094,1,0,0,,0,278,278,242,1,
,,,,,,,,,,,,,,,,,,5982ff7c127287000185f50a,2020-11-27_15h01.58.447,lexical_decision_task_MP_exp2,2020.2.5,Linux armv8l,60,,0,0.501736111,-0.276367188,1,0,0,0.7523,button_right,0.7523,1,,,,,,150,WORD,UN,16,mystic,RANDOM,m,,,,,,0.501736111,-0.276367188,1,0,0,,0,279,279,209,1,
,,,,,,,,,,,,,,,,,,5982ff7c127287000185f50a,2020-11-27_15h01.58.447,lexical_decision_task_MP_exp2,2020.2.5,Linux armv8l,60,,0,,,,,,,,0.7523,-1,,,,,,111,WORD,UN,33,breath,INDUCE,m,,,,,,0.505208333,-0.272949219,0,0,0,,0,280,280,170,1,
,,,,,,,,,,,,,,,,,,5982ff7c127287000185f50a,2020-11-27_15h01.58.447,lexical_decision_task_MP_exp2,2020.2.5,Linux armv8l,60,,0,,,,,,,,0.7523,-1,,,,,,30,WORD,"ID",16,orient,ORIENT,m,,,,,,0.505208333,-0.272949219,0,0,0,,0,281,281,89,1,
,,,,,,,,,,,,,,,,,,5982ff7c127287000185f50a,2020-11-27_15h01.58.447,lexical_decision_task_MP_exp2,2020.2.5,Linux armv8l,60,,0,-0.444444444,-0.333007813,1,0,0,0.7691,button_left,0.7691,1,,,,,,418,NW,UN,16,slount,SUIDLE,z,,,,,,-0.444444444,-0.333007813,1,0,0,,0,282,282,477,1,
,,,,,,,,,,,,,,,,,,5982ff7c127287000185f50a,2020-11-27_15h01.58.447,lexical_decision_task_MP_exp2,2020.2.5,Linux armv8l,60,,0,0.471354167,-0.260498047,1,0,0,0.6008,button_right,0.6008,1,,,,,,28,WORD,"ID",16,comedy,COMEDY,m,,,,,,0.471354167,-0.260498047,1,0,0,,0,283,283,87,1,
,,,,,,,,,,,,,,,,,,5982ff7c127287000185f50a,2020-11-27_15h01.58.447,lexical_decision_task_MP_exp2,2020.2.5,Linux armv8l,60,,0,0.488715278,-0.26953125,1,0,0,0.6257,button_right,0.6257,1,,,,,,165,WORD,UN,16,starch,INVEST,m,,,,,,0.488715278,-0.26953125,1,0,0,,0,284,284,224,1,
,,,,,,,,,,,,,,,,,,5982ff7c127287000185f50a,2020-11-27_15h01.58.447,lexical_decision_task_MP_exp2,2020.2.5,Linux armv8l,60,,0,-0.379340278,-0.308105469,1,0,0,0.6238,button_left,0.6238,1,,,,,,318,NW,UN,33,zomber,REAGLY,z,,,,,,-0.379340278,-0.308105469,1,0,0,,0,285,285,377,1,
,,,,,,,,,,,,,,,,,,5982ff7c127287000185f50a,2020-11-27_15h01.58.447,lexical_decision_task_MP_exp2,2020.2.5,Linux armv8l,60,,0,-0.376302083,-0.2890625,1,0,0,0.6188,button_left,0.6188,1,,,,,,296,NW,"ID",16,beinch,BEINCH,z,,,,,,-0.376302083,-0.2890625,1,0,0,,0,286,286,355,1,
,,,,,,,,,,,,,,,,,,5982ff7c127287000185f50a,2020-11-27_15h01.58.447,lexical_decision_task_MP_exp2,2020.2.5,Linux armv8l,60,,0,0.500434028,-0.266601563,1,0,0,0.2653,button_right,0.2653,0,,,,,,407,NW,UN,16,hurnia,SUIVER,z,,,,,,0.500434028,-0.266601563,1,0,0,,0,287,287,466,1,
,,,,,,,,,,,,,,,,,,5982ff7c127287000185f50a,2020-11-27_15h01.58.447,lexical_decision_task_MP_exp2,2020.2.5,Linux armv8l,60,,0,0.493489583,-0.272460938,1,0,0,0.6679,button_right,0.6679,1,,,,,,134,WORD,UN,16,import,STAPLE,m,,,,,,0.493489583,-0.272460938,1,0,0,,0,288,288,193,1,
,,,,,,,,,,,,,,,,,,5982ff7c127287000185f50a,2020-11-27_15h01.58.447,lexical_decision_task_MP_exp2,2020.2.5,Linux armv8l,60,,0,0.493055556,-0.267578125,1,0,0,0.903,button_right,0.903,0,,,,,,476,NW,"ID",33,josted,JOSTED,z,,,,,,0.493055556,-0.267578125,1,0,0,,0,289,289,295,1,
,,,,,,,,,,,,,,,,,,5982ff7c127287000185f50a,2020-11-27_15h01.58.447,lexical_decision_task_MP_exp2,2020.2.5,Linux armv8l,60,,0,0.483940972,-0.261230469,1,0,0,0.728,button_right,0.728,1,,,,,,114,WORD,UN,33,guitar,PLACID,m,,,,,,0.483940972,-0.261230469,1,0,0,,0,290,290,173,1,
,,,,,,,,,,,,,,,,,,5982ff7c127287000185f50a,2020-11-27_15h01.58.447,lexical_decision_task_MP_exp2,2020.2.5,Linux armv8l,60,,0,-0.40234375,-0.3359375,1,0,0,0.7519,button_left,0.7519,1,,,,,,335,NW,UN,33,ghodus,DESION,z,,,,,,-0.40234375,-0.3359375,1,0,0,,0,291,291,394,1,
,,,,,,,,,,,,,,,,,,5982ff7c127287000185f50a,2020-11-27_15h01.58.447,lexical_decision_task_MP_exp2,2020.2.5,Linux armv8l,60,,0,0.491319444,-0.271484375,1,0,0,0.7221,button_right,0.7221,1,,,,,,56,WORD,"ID",16,ambush,AMBUSH,m,,,,,,0.491319444,-0.271484375,1,0,0,,0,292,292,115,1,
,,,,,,,,,,,,,,,,,,5982ff7c127287000185f50a,2020-11-27_15h01.58.447,lexical_decision_task_MP_exp2,2020.2.5,Linux armv8l,60,,0,0.495659722,-0.255371094,1,0,0,0.5769,button_right,0.5769,1,,,,,,234,WORD,"ID",33,clumsy,CLUMSY,m,,,,,,0.495659722,-0.255371094,1,0,0,,0,293,293,53,1,
,,,,,,,,,,,,,,,,,,5982ff7c127287000185f50a,2020-11-27_15h01.58.447,lexical_decision_task_MP_exp2,2020.2.5,Linux armv8l,60,,0,-0.400173611,-0.291748047,1,0,0,0.7252,button_left,0.7252,1,,,,,,383,NW,UN,16,guesco,AUNGRE,z,,,,,,-0.400173611,-0.291748047,1,0,0,,0,294,294,442,1,
,,,,,,,,,,,,,,,,,,5982ff7c127287000185f50a,2020-11-27_15h01.58.447,lexical_decision_task_MP_exp2,2020.2.5,Linux armv8l,60,,0,0.498263889,-0.253417969,1,0,0,0.6519,button_right,0.6519,1,,,,,,188,WORD,"ID",33,social,SOCIAL,m,,,,,,0.498263889,-0.253417969,1,0,0,,0,295,295,7,1,
,,,,,,,,,,,,,,,,,,5982ff7c127287000185f50a,2020-11-27_15h01.58.447,lexical_decision_task_MP_exp2,2020.2.5,Linux armv8l,60,,0,-0.407986111,-0.292480469,1,0,0,0.5907,button_left,0.5907,1,,,,,,430,NW,"ID",33,caroey,CAROEY,z,,,,,,-0.407986111,-0.292480469,1,0,0,,0,296,296,249,1,
,,,,,,,,,,,,,,,,,,5982ff7c127287000185f50a,2020-11-27_15h01.58.447,lexical_decision_task_MP_exp2,2020.2.5,Linux armv8l,60,,0,-0.411458333,-0.281738281,1,0,0,0.6596,button_left,0.6596,1,,,,,,270,NW,"ID",16,wrimsy,WRIMSY,z,,,,,,-0.411458333,-0.281738281,1,0,0,,0,297,297,329,1,
,,,,,,,,,,,,,,,,,,5982ff7c127287000185f50a,2020-11-27_15h01.58.447,lexical_decision_task_MP_exp2,2020.2.5,Linux armv8l,60,,0,0.501302083,-0.249755859,1,0,0,0.5035,button_right,0.5035,1,,,,,,109,WORD,UN,33,polite,WONDER,m,,,,,,0.501302083,-0.249755859,1,0,0,,0,298,298,168,1,
,,,,,,,,,,,,,,,,,,5982ff7c127287000185f50a,2020-11-27_15h01.58.447,lexical_decision_task_MP_exp2,2020.2.5,Linux armv8l,60,,0,0.510850694,-0.2578125,1,0,0,0.5596,button_right,0.5596,1,,,,,,168,WORD,UN,16,genius,ANSWER,m,,,,,,0.510850694,-0.2578125,1,0,0,,0,299,299,227,1,
,,,,,,,,,,,,,,,,,,5982ff7c127287000185f50a,2020-11-27_15h01.58.447,lexical_decision_task_MP_exp2,2020.2.5,Linux armv8l,60,,0,0.511284722,-0.250976563,1,0,0,0.5276,button_right,0.5276,1,,,,,,200,WORD,"ID",33,beacon,BEACON,m,,,,,,0.511284722,-0.250976563,1,0,0,,0,300,300,19,1,
,,,,,,,,,,,,,,,,,,5982ff7c127287000185f50a,2020-11-27_15h01.58.447,lexical_decision_task_MP_exp2,2020.2.5,Linux armv8l,60,,0,-0.411892361,-0.287353516,1,0,0,1.0483,button_left,1.0483,1,,,,,,273,NW,"ID",16,sortel,SORTEL,z,,,,,,-0.411892361,-0.287353516,1,0,0,,0,301,301,332,1,
,,,,,,,,,,,,,,,,,,5982ff7c127287000185f50a,2020-11-27_15h01.58.447,lexical_decision_task_MP_exp2,2020.2.5,Linux armv8l,60,,0,0.503472222,-0.266601563,1,0,0,0.6153,button_right,0.6153,1,,,,,,73,WORD,UN,33,plaque,SOURCE,m,,,,,,0.503472222,-0.266601563,1,0,0,,0,302,302,132,1,
,,,,,,,,,,,,,,,,,,5982ff7c127287000185f50a,2020-11-27_15h01.58.447,lexical_decision_task_MP_exp2,2020.2.5,Linux armv8l,60,,0,-0.407986111,-0.285888672,1,0,0,0.617,button_left,0.617,1,,,,,,382,NW,UN,16,aungre,SARLEY,z,,,,,,-0.407986111,-0.285888672,1,0,0,,0,303,303,441,1,
,,,,,,,,,,,,,,,,,,5982ff7c127287000185f50a,2020-11-27_15h01.58.447,lexical_decision_task_MP_exp2,2020.2.5,Linux armv8l,60,,0,-0.3984375,-0.293457031,1,0,0,0.651,button_left,0.651,1,,,,,,459,NW,"ID",33,bafent,BAFENT,z,,,,,,-0.3984375,-0.293457031,1,0,0,,0,304,304,278,1,
,,,,,,,,,,,,,,,,,,5982ff7c127287000185f50a,2020-11-27_15h01.58.447,lexical_decision_task_MP_exp2,2020.2.5,Linux armv8l,60,,0,0.498697917,-0.262207031,1,0,0,0.6003,button_right,0.6003,1,,,,,,115,WORD,UN,33,tumble,GUITAR,m,,,,,,0.498697917,-0.262207031,1,0,0,,0,305,305,174,1,
,,,,,,,,,,,,,,,,,,5982ff7c127287000185f50a,2020-11-27_15h01.58.447,lexical_decision_task_MP_exp2,2020.2.5,Linux armv8l,60,,0,-0.407552083,-0.317626953,1,0,0,0.6213,button_left,0.6213,1,,,,,,446,NW,"ID",33,runamo,RUNAMO,z,,,,,,-0.407552083,-0.317626953,1,0,0,,0,306,306,265,1,
,,,,,,,,,,,,,,,,,,5982ff7c127287000185f50a,2020-11-27_15h01.58.447,lexical_decision_task_MP_exp2,2020.2.5,Linux armv8l,60,,0,0.50390625,-0.262451172,1,0,0,0.5327,button_right,0.5327,1,,,,,,125,WORD,UN,16,enough,NICKEL,m,,,,,,0.50390625,-0.262451172,1,0,0,,0,307,307,184,1,
,,,,,,,,,,,,,,,,,,5982ff7c127287000185f50a,2020-11-27_15h01.58.447,lexical_decision_task_MP_exp2,2020.2.5,Linux armv8l,60,,0,-0.397569444,-0.302490234,1,0,0,0.5696,button_left,0.5696,1,,,,,,442,NW,"ID",33,aboune,ABOUNE,z,,,,,,-0.397569444,-0.302490234,1,0,0,,0,308,308,261,1,
,,,,,,,,,,,,,,,,,,5982ff7c127287000185f50a,2020-11-27_15h01.58.447,lexical_decision_task_MP_exp2,2020.2.5,Linux armv8l,60,,0,-0.403645833,-0.315429688,1,0,0,0.5805,button_left,0.5805,1,,,,,,394,NW,UN,16,colury,SPAQUX,z,,,,,,-0.403645833,-0.315429688,1,0,0,,0,309,309,453,1,
,,,,,,,,,,,,,,,,,,5982ff7c127287000185f50a,2020-11-27_15h01.58.447,lexical_decision_task_MP_exp2,2020.2.5,Linux armv8l,60,,0,0.513020833,-0.264892578,1,0,0,0.6657,button_right,0.6657,0,,,,,,276,NW,"ID",16,yarmon,YARMON,z,,,,,,0.513020833,-0.264892578,1,0,0,,0,310,310,335,1,
,,,,,,,,,,,,,,,,,,5982ff7c127287000185f50a,2020-11-27_15h01.58.447,lexical_decision_task_MP_exp2,2020.2.5,Linux armv8l,60,,0,-0.3984375,-0.302734375,1,0,0,0.885,button_left,0.885,1,,,,,,337,NW,UN,33,wreash,REJOLS,z,,,,,,-0.3984375,-0.302734375,1,0,0,,0,311,311,396,1,
,,,,,,,,,,,,,,,,,,5982ff7c127287000185f50a,2020-11-27_15h01.58.447,lexical_decision_task_MP_exp2,2020.2.5,Linux armv8l,60,,0,-0.4140625,-0.301269531,1,0,0,0.7568,button_left,0.7568,1,,,,,,250,NW,"ID",16,milted,MILTED,z,,,,,,-0.4140625,-0.301269531,1,0,0,,0,312,312,309,1,
,,,,,,,,,,,,,,,,,,5982ff7c127287000185f50a,2020-11-27_15h01.58.447,lexical_decision_task_MP_exp2,2020.2.5,Linux armv8l,60,,0,0.529513889,-0.267089844,1,0,0,0.6171,button_right,0.6171,0,,,,,,433,NW,"ID",33,drance,DRANCE,z,,,,,,0.529513889,-0.267089844,1,0,0,,0,313,313,252,1,
,,,,,,,,,,,,,,,,,,5982ff7c127287000185f50a,2020-11-27_15h01.58.447,lexical_decision_task_MP_exp2,2020.2.5,Linux armv8l,60,,0,-0.397135417,-0.304931641,1,0,0,0.7637,button_left,0.7637,1,,,,,,257,NW,"ID",16,veniod,VENIOD,z,,,,,,-0.397135417,-0.304931641,1,0,0,,0,314,314,316,1,
,,,,,,,,,,,,,,,,,,5982ff7c127287000185f50a,2020-11-27_15h01.58.447,lexical_decision_task_MP_exp2,2020.2.5,Linux armv8l,60,,0,-0.401909722,-0.305419922,1,0,0,0.7506,button_left,0.7506,1,,,,,,255,NW,"ID",16,apight,APIGHT,z,,,,,,-0.401909722,-0.305419922,1,0,0,,0,315,315,314,1,
,,,,,,,,,,,,,,,,,,5982ff7c127287000185f50a,2020-11-27_15h01.58.447,lexical_decision_task_MP_exp2,2020.2.5,Linux armv8l,60,,0,0.519965278,-0.269287109,1,0,0,0.633,button_right,0.633,1,,,,,,160,WORD,UN,16,pastor,VIOLET,m,,,,,,0.519965278,-0.269287109,1,0,0,,0,316,316,219,1,
,,,,,,,,,,,,,,,,,,5982ff7c127287000185f50a,2020-11-27_15h01.58.447,lexical_decision_task_MP_exp2,2020.2.5,Linux armv8l,60,,0,0.523003472,-0.263916016,1,0,0,0.6836,button_right,0.6836,1,,,,,,54,WORD,"ID",16,ramble,RAMBLE,m,,,,,,0.523003472,-0.263916016,1,0,0,,0,317,317,113,1,
,,,,,,,,,,,,,,,,,,5982ff7c127287000185f50a,2020-11-27_15h01.58.447,lexical_decision_task_MP_exp2,2020.2.5,Linux armv8l,60,,0,0.510416667,-0.261962891,1,0,0,0.5516,button_right,0.5516,1,,,,,,67,WORD,UN,33,fumble,POLICY,m,,,,,,0.510416667,-0.261962891,1,0,0,,0,318,318,126,1,
,,,,,,,,,,,,,,,,,,5982ff7c127287000185f50a,2020-11-27_15h01.58.447,lexical_decision_task_MP_exp2,2020.2.5,Linux armv8l,60,,0,-0.397135417,-0.298828125,1,0,0,0.7508,button_left,0.7508,1,,,,,,331,NW,UN,33,vangue,GILFEW,z,,,,,,-0.397135417,-0.298828125,1,0,0,,0,319,319,390,1,
,,,,,,,,,,,,,,,,,,5982ff7c127287000185f50a,2020-11-27_15h01.58.447,lexical_decision_task_MP_exp2,2020.2.5,Linux armv8l,60,,0,0.514322917,-0.272216797,1,0,0,0.6308,button_right,0.6308,1,,,,,,95,WORD,UN,33,ignore,THREAD,m,,,,,,0.514322917,-0.272216797,1,0,0,,0,320,320,154,1,
,,,,,,,,,,,,,,,,,,5982ff7c127287000185f50a,2020-11-27_15h01.58.447,lexical_decision_task_MP_exp2,2020.2.5,Linux armv8l,60,,0,0.514756944,-0.270263672,1,0,0,0.5763,button_right,0.5763,1,,,,,,233,WORD,"ID",33,nature,NATURE,m,,,,,,0.514756944,-0.270263672,1,0,0,,0,321,321,52,1,
,,,,,,,,,,,,,,,,,,5982ff7c127287000185f50a,2020-11-27_15h01.58.447,lexical_decision_task_MP_exp2,2020.2.5,Linux armv8l,60,,0,-0.395399306,-0.303710938,1,0,0,0.6349,button_left,0.6349,1,,,,,,387,NW,UN,16,cragin,GRONCE,z,,,,,,-0.395399306,-0.303710938,1,0,0,,0,322,322,446,1,
,,,,,,,,,,,,,,,,,,5982ff7c127287000185f50a,2020-11-27_15h01.58.447,lexical_decision_task_MP_exp2,2020.2.5,Linux armv8l,60,,0,0.512586806,-0.264160156,1,0,0,0.5835,button_right,0.5835,1,,,,,,151,WORD,UN,16,rocket,MYSTIC,m,,,,,,0.512586806,-0.264160156,1,0,0,,0,323,323,210,1,
,,,,,,,,,,,,,,,,,,5982ff7c127287000185f50a,2020-11-27_15h01.58.447,lexical_decision_task_MP_exp2,2020.2.5,Linux armv8l,60,,0,-0.391927083,-0.296875,1,0,0,0.5852,button_left,0.5852,1,,,,,,245,NW,"ID",16,anougs,ANOUGS,z,,,,,,-0.391927083,-0.296875,1,0,0,,0,324,324,304,1,
,,,,,,,,,,,,,,,,,,5982ff7c127287000185f50a,2020-11-27_15h01.58.447,lexical_decision_task_MP_exp2,2020.2.5,Linux armv8l,60,,0,-0.395833333,-0.303710938,1,0,0,0.5294,button_left,0.5294,1,,,,,,477,NW,"ID",33,photie,PHOTIE,z,,,,,,-0.395833333,-0.303710938,1,0,0,,0,325,325,296,1,
,,,,,,,,,,,,,,,,,,5982ff7c127287000185f50a,2020-11-27_15h01.58.447,lexical_decision_task_MP_exp2,2020.2.5,Linux armv8l,60,,0,-0.401041667,-0.310546875,1,0,0,0.5393,button_left,0.5393,1,,,,,,267,NW,"ID",16,pasink,PASINK,z,,,,,,-0.401041667,-0.310546875,1,0,0,,0,326,326,326,1,
,,,,,,,,,,,,,,,,,,5982ff7c127287000185f50a,2020-11-27_15h01.58.447,lexical_decision_task_MP_exp2,2020.2.5,Linux armv8l,60,,0,0.510850694,-0.266601563,1,0,0,0.5911,button_right,0.5911,1,,,,,,145,WORD,UN,16,couple,PARISH,m,,,,,,0.510850694,-0.266601563,1,0,0,,0,327,327,204,1,
,,,,,,,,,,,,,,,,,,5982ff7c127287000185f50a,2020-11-27_15h01.58.447,lexical_decision_task_MP_exp2,2020.2.5,Linux armv8l,60,,0,0.518663194,-0.263427734,1,0,0,0.54,button_right,0.54,1,,,,,,58,WORD,"ID",16,foster,FOSTER,m,,,,,,0.518663194,-0.263427734,1,0,0,,0,328,328,117,1,
,,,,,,,,,,,,,,,,,,5982ff7c127287000185f50a,2020-11-27_15h01.58.447,lexical_decision_task_MP_exp2,2020.2.5,Linux armv8l,60,,0,0.518229167,-0.267089844,1,0,0,0.6149,button_right,0.6149,1,,,,,,34,WORD,"ID",16,jungle,JUNGLE,m,,,,,,0.518229167,-0.267089844,1,0,0,,0,329,329,93,1,
,,,,,,,,,,,,,,,,,,5982ff7c127287000185f50a,2020-11-27_15h01.58.447,lexical_decision_task_MP_exp2,2020.2.5,Linux armv8l,60,,0,0.519965278,-0.270507813,1,0,0,0.5137,button_right,0.5137,1,,,,,,120,WORD,UN,33,ponder,STRAIN,m,,,,,,0.519965278,-0.270507813,1,0,0,,0,330,330,179,1,
,,,,,,,,,,,,,,,,,,5982ff7c127287000185f50a,2020-11-27_15h01.58.447,lexical_decision_task_MP_exp2,2020.2.5,Linux armv8l,60,,0,-0.3828125,-0.303222656,1,0,0,0.6573,button_left,0.6573,1,,,,,,373,NW,UN,16,sliant,BIGENT,z,,,,,,-0.3828125,-0.303222656,1,0,0,,0,331,331,432,1,
,,,,,,,,,,,,,,,,,,5982ff7c127287000185f50a,2020-11-27_15h01.58.447,lexical_decision_task_MP_exp2,2020.2.5,Linux armv8l,60,,0,0.531684028,-0.261474609,1,0,0,0.533,button_right,0.533,1,,,,,,219,WORD,"ID",33,bucket,BUCKET,m,,,,,,0.531684028,-0.261474609,1,0,0,,0,332,332,38,1,
,,,,,,,,,,,,,,,,,,5982ff7c127287000185f50a,2020-11-27_15h01.58.447,lexical_decision_task_MP_exp2,2020.2.5,Linux armv8l,60,,0,0.526475694,-0.261962891,1,0,0,0.6451,button_right,0.6451,1,,,,,,25,WORD,"ID",16,domain,DOMAIN,m,,,,,,0.526475694,-0.261962891,1,0,0,,0,333,333,84,1,
,,,,,,,,,,,,,,,,,,5982ff7c127287000185f50a,2020-11-27_15h01.58.447,lexical_decision_task_MP_exp2,2020.2.5,Linux armv8l,60,,0,0.529947917,-0.268554688,1,0,0,0.5334,button_right,0.5334,1,,,,,,79,WORD,UN,33,family,THEORY,m,,,,,,0.529947917,-0.268554688,1,0,0,,0,334,334,138,1,
,,,,,,,,,,,,,,,,,,5982ff7c127287000185f50a,2020-11-27_15h01.58.447,lexical_decision_task_MP_exp2,2020.2.5,Linux armv8l,60,,0,0.528645833,-0.269775391,1,0,0,0.5535,button_right,0.5535,1,,,,,,36,WORD,"ID",16,vanish,VANISH,m,,,,,,0.528645833,-0.269775391,1,0,0,,0,335,335,95,1,
