counterbalancing_condition,instr_done_keyboard.keys,instr_done_touch.x,instr_done_touch.y,instr_done_touch.leftButton,instr_done_touch.midButton,instr_done_touch.rightButton,instr_done_touch.clicked_name,instruction_pages.thisRepN,instruction_pages.thisTrialN,instruction_pages.thisN,instruction_pages.thisIndex,instruction_pages.ran,pageN,phase,instruct_text,has_image,instruct_image,participant,date,expName,psychopyVersion,OS,frameRate,instr_done_keyboard.rt,response.keys,response.corr,response.rt,touch_resp.x,touch_resp.y,touch_resp.leftButton,touch_resp.midButton,touch_resp.rightButton,touch_resp.time,touch_resp.clicked_name,rt,corr,practice_trials.thisRepN,practice_trials.thisTrialN,practice_trials.thisN,practice_trials.thisIndex,practice_trials.ran,TrialID,StimulusType,Condition,PrimeDuration,Prime,Target,corrAns,end_of_practice_trials_pages.thisRepN,end_of_practice_trials_pages.thisTrialN,end_of_practice_trials_pages.thisN,end_of_practice_trials_pages.thisIndex,end_of_practice_trials_pages.ran,break_done_touch.x,break_done_touch.y,break_done_touch.leftButton,break_done_touch.midButton,break_done_touch.rightButton,break_done_keyboard.keys,experiment_trials.thisRepN,experiment_trials.thisTrialN,experiment_trials.thisN,experiment_trials.thisIndex,experiment_trials.ran,break_done_keyboard.rt,break_done_touch.clicked_name
0,,0.01171875,-0.376302083,1,0,0,instr_done_button,0,0,0,0,1,1,instructions,"INSTRUCTIONS
At the start of each trial, look at the hash marks (######) in the center of the screen. After a moment, a string of letters will appear. Your task is to indicate if the letter string forms a word or not (i.e., if it is a nonword). For example, AUTHOR is a word while AUTHON is a nonword.

Press the space bar or touch the button below to continue.",0,,5b47e287bc06c90001f8b67d,2020-11-27_15h06.16.656,lexical_decision_task_MP_exp2,2020.2.5,Win32,60,,,,,,,,,,,,,,,,,,,,,,,,,,,,,,,,,,,,,,,,,,,
,space,0.01171875,-0.376302083,0,0,0,,0,1,1,1,1,2,instructions,"If your device has a keyboard, press the 'Z' key for nonwords and the 'M' key for words.





Press the space bar or touch the button below to continue.",1,keyboard-example.gif,5b47e287bc06c90001f8b67d,2020-11-27_15h06.16.656,lexical_decision_task_MP_exp2,2020.2.5,Win32,60,21.390335,,,,,,,,,,,,,,,,,,,,,,,,,,,,,,,,,,,,,,,,,,
,space,0.01171875,-0.376302083,0,0,0,,0,2,2,2,1,3,instructions,"If you are using a touchscreen only device, use the buttons on the screen. Do not use the mouse.





Press the space bar or touch the button below to continue.",1,touchscreen-example.gif,5b47e287bc06c90001f8b67d,2020-11-27_15h06.16.656,lexical_decision_task_MP_exp2,2020.2.5,Win32,60,3.99703,,,,,,,,,,,,,,,,,,,,,,,,,,,,,,,,,,,,,,,,,,
,space,0.01171875,-0.376302083,0,0,0,,0,3,3,3,1,4,instructions,"It is very important that you respond as quickly and accurately as possible, as each letter string will only be on the screen for two seconds. If you do not respond within this time, the message 'Too slow!' will be displayed and the experiment will progress to the next letter string. The first 20 trials will be practice trials and you will receive feedback on your answers. 

Press the space bar or touch the button below to start the practice trials.",0,,5b47e287bc06c90001f8b67d,2020-11-27_15h06.16.656,lexical_decision_task_MP_exp2,2020.2.5,Win32,60,3.02974,,,,,,,,,,,,,,,,,,,,,,,,,,,,,,,,,,,,,,,,,,
,,,,,,,,,,,,,,,,,,5b47e287bc06c90001f8b67d,2020-11-27_15h06.16.656,lexical_decision_task_MP_exp2,2020.2.5,Win32,60,,z,1,1.497905,,,,,,,,1.497905,1,0,0,0,12,1,1013,NW,UN,33,adveil,SPRINY,z,,,,,,,,,,,,,,,,,,
,,,,,,,,,,,,,,,,,,5b47e287bc06c90001f8b67d,2020-11-27_15h06.16.656,lexical_decision_task_MP_exp2,2020.2.5,Win32,60,,m,1,0.54483,,,,,,,,0.54483,1,0,1,1,1,1,1002,WORD,"ID",33,adjust,ADJUST,m,,,,,,,,,,,,,,,,,,
,,,,,,,,,,,,,,,,,,5b47e287bc06c90001f8b67d,2020-11-27_15h06.16.656,lexical_decision_task_MP_exp2,2020.2.5,Win32,60,,z,1,0.632315,,,,,,,,0.632315,1,0,2,2,8,1,1009,NW,"ID",33,aslert,ASLERT,z,,,,,,,,,,,,,,,,,,
,,,,,,,,,,,,,,,,,,5b47e287bc06c90001f8b67d,2020-11-27_15h06.16.656,lexical_decision_task_MP_exp2,2020.2.5,Win32,60,,z,1,0.74718,,,,,,,,0.74718,1,0,3,3,15,1,1016,NW,UN,16,mushed,WHAISE,z,,,,,,,,,,,,,,,,,,
,,,,,,,,,,,,,,,,,,5b47e287bc06c90001f8b67d,2020-11-27_15h06.16.656,lexical_decision_task_MP_exp2,2020.2.5,Win32,60,,m,1,0.551775,,,,,,,,0.551775,1,0,4,4,6,1,1007,WORD,UN,16,tropic,ZOMBIE,m,,,,,,,,,,,,,,,,,,
,,,,,,,,,,,,,,,,,,5b47e287bc06c90001f8b67d,2020-11-27_15h06.16.656,lexical_decision_task_MP_exp2,2020.2.5,Win32,60,,m,1,0.57848,,,,,,,,0.57848,1,0,5,5,5,1,1006,WORD,UN,33,frenzy,OBTAIN,m,,,,,,,,,,,,,,,,,,
,,,,,,,,,,,,,,,,,,5b47e287bc06c90001f8b67d,2020-11-27_15h06.16.656,lexical_decision_task_MP_exp2,2020.2.5,Win32,60,,m,1,0.564695,,,,,,,,0.564695,1,0,6,6,3,1,1004,WORD,"ID",16,matrix,MATRIX,m,,,,,,,,,,,,,,,,,,
,,,,,,,,,,,,,,,,,,5b47e287bc06c90001f8b67d,2020-11-27_15h06.16.656,lexical_decision_task_MP_exp2,2020.2.5,Win32,60,,z,1,0.725645,,,,,,,,0.725645,1,0,7,7,9,1,1010,NW,"ID",33,fariny,FARINY,z,,,,,,,,,,,,,,,,,,
,,,,,,,,,,,,,,,,,,5b47e287bc06c90001f8b67d,2020-11-27_15h06.16.656,lexical_decision_task_MP_exp2,2020.2.5,Win32,60,,z,1,0.933035,,,,,,,,0.933035,1,0,8,8,10,1,1011,NW,"ID",16,inlade,INLADE,z,,,,,,,,,,,,,,,,,,
,,,,,,,,,,,,,,,,,,5b47e287bc06c90001f8b67d,2020-11-27_15h06.16.656,lexical_decision_task_MP_exp2,2020.2.5,Win32,60,,z,1,0.647665,,,,,,,,0.647665,1,0,9,9,13,1,1014,NW,UN,33,winfer,ROUPET,z,,,,,,,,,,,,,,,,,,
,,,,,,,,,,,,,,,,,,5b47e287bc06c90001f8b67d,2020-11-27_15h06.16.656,lexical_decision_task_MP_exp2,2020.2.5,Win32,60,,m,1,0.53072,,,,,,,,0.53072,1,0,10,10,7,1,1008,WORD,UN,16,hurdle,VOLUME,m,,,,,,,,,,,,,,,,,,
,,,,,,,,,,,,,,,,,,5b47e287bc06c90001f8b67d,2020-11-27_15h06.16.656,lexical_decision_task_MP_exp2,2020.2.5,Win32,60,,m,1,0.66803,,,,,,,,0.66803,1,0,11,11,2,1,1003,WORD,"ID",16,almond,ALMOND,m,,,,,,,,,,,,,,,,,,
,,,,,,,,,,,,,,,,,,5b47e287bc06c90001f8b67d,2020-11-27_15h06.16.656,lexical_decision_task_MP_exp2,2020.2.5,Win32,60,,z,1,0.64017,,,,,,,,0.64017,1,0,12,12,14,1,1015,NW,UN,16,miaber,THRALE,z,,,,,,,,,,,,,,,,,,
,,,,,,,,,,,,,,,,,,5b47e287bc06c90001f8b67d,2020-11-27_15h06.16.656,lexical_decision_task_MP_exp2,2020.2.5,Win32,60,,m,1,0.6032,,,,,,,,0.6032,1,0,13,13,0,1,1001,WORD,"ID",33,utopia,UTOPIA,m,,,,,,,,,,,,,,,,,,
,,,,,,,,,,,,,,,,,,5b47e287bc06c90001f8b67d,2020-11-27_15h06.16.656,lexical_decision_task_MP_exp2,2020.2.5,Win32,60,,z,1,0.841195,,,,,,,,0.841195,1,0,14,14,11,1,1012,NW,"ID",16,rashet,RASHET,z,,,,,,,,,,,,,,,,,,
,,,,,,,,,,,,,,,,,,5b47e287bc06c90001f8b67d,2020-11-27_15h06.16.656,lexical_decision_task_MP_exp2,2020.2.5,Win32,60,,m,1,0.60574,,,,,,,,0.60574,1,0,15,15,4,1,1005,WORD,UN,33,abound,SQUEAK,m,,,,,,,,,,,,,,,,,,
,space,0.01171875,-0.376302083,0,0,0,,,,,,,1,end_of_practice,"You have completed the practice trials. During the experimental trials, you will not receive feedback, but it is very important that you respond as quickly and accurately as possible. 
Before you begin, please ensure that you are in a comfortable and quiet location and will not be disturbed for about 15 minutes, as we cannot use your data if you do not complete all the trials. 
There will be opportunities to take breaks at regular intervals during the experiment. When you are ready to start the experimental trials, please press space or touch the button below.",,,5b47e287bc06c90001f8b67d,2020-11-27_15h06.16.656,lexical_decision_task_MP_exp2,2020.2.5,Win32,60,8.863135,,,,,,,,,,,,,,,,,,,,,,,,,0,0,0,0,1,,,,,,,,,,,,,
,,,,,,,,,,,,,,,,,,5b47e287bc06c90001f8b67d,2020-11-27_15h06.16.656,lexical_decision_task_MP_exp2,2020.2.5,Win32,60,,z,1,0.841305,,,,,,,,0.841305,1,,,,,,390,NW,UN,16,theldy,HATRUS,z,,,,,,0.01171875,-0.376302083,0,0,0,,0,0,0,449,1,,
,,,,,,,,,,,,,,,,,,5b47e287bc06c90001f8b67d,2020-11-27_15h06.16.656,lexical_decision_task_MP_exp2,2020.2.5,Win32,60,,z,1,0.866015,,,,,,,,0.866015,1,,,,,,262,NW,"ID",16,quilew,QUILEW,z,,,,,,0.01171875,-0.376302083,0,0,0,,0,1,1,321,1,,
,,,,,,,,,,,,,,,,,,5b47e287bc06c90001f8b67d,2020-11-27_15h06.16.656,lexical_decision_task_MP_exp2,2020.2.5,Win32,60,,z,1,0.76906,,,,,,,,0.76906,1,,,,,,427,NW,"ID",33,schind,SCHIND,z,,,,,,0.01171875,-0.376302083,0,0,0,,0,2,2,246,1,,
,,,,,,,,,,,,,,,,,,5b47e287bc06c90001f8b67d,2020-11-27_15h06.16.656,lexical_decision_task_MP_exp2,2020.2.5,Win32,60,,z,1,0.857555,,,,,,,,0.857555,1,,,,,,468,NW,"ID",33,wictor,WICTOR,z,,,,,,0.01171875,-0.376302083,0,0,0,,0,3,3,287,1,,
,,,,,,,,,,,,,,,,,,5b47e287bc06c90001f8b67d,2020-11-27_15h06.16.656,lexical_decision_task_MP_exp2,2020.2.5,Win32,60,,z,1,0.95146,,,,,,,,0.95146,1,,,,,,319,NW,UN,33,jockal,ZOMBER,z,,,,,,0.01171875,-0.376302083,0,0,0,,0,4,4,378,1,,
,,,,,,,,,,,,,,,,,,5b47e287bc06c90001f8b67d,2020-11-27_15h06.16.656,lexical_decision_task_MP_exp2,2020.2.5,Win32,60,,z,1,0.618255,,,,,,,,0.618255,1,,,,,,323,NW,UN,33,steikh,ROSAIL,z,,,,,,0.01171875,-0.376302083,0,0,0,,0,5,5,382,1,,
,,,,,,,,,,,,,,,,,,5b47e287bc06c90001f8b67d,2020-11-27_15h06.16.656,lexical_decision_task_MP_exp2,2020.2.5,Win32,60,,m,1,0.616035,,,,,,,,0.616035,1,,,,,,21,WORD,"ID",16,simple,SIMPLE,m,,,,,,0.01171875,-0.376302083,0,0,0,,0,6,6,80,1,,
,,,,,,,,,,,,,,,,,,5b47e287bc06c90001f8b67d,2020-11-27_15h06.16.656,lexical_decision_task_MP_exp2,2020.2.5,Win32,60,,m,1,0.61675,,,,,,,,0.61675,1,,,,,,168,WORD,UN,16,genius,ANSWER,m,,,,,,0.01171875,-0.376302083,0,0,0,,0,7,7,227,1,,
,,,,,,,,,,,,,,,,,,5b47e287bc06c90001f8b67d,2020-11-27_15h06.16.656,lexical_decision_task_MP_exp2,2020.2.5,Win32,60,,m,1,0.63559,,,,,,,,0.63559,1,,,,,,136,WORD,UN,16,finger,BLEACH,m,,,,,,0.01171875,-0.376302083,0,0,0,,0,8,8,195,1,,
,,,,,,,,,,,,,,,,,,5b47e287bc06c90001f8b67d,2020-11-27_15h06.16.656,lexical_decision_task_MP_exp2,2020.2.5,Win32,60,,z,1,0.68252,,,,,,,,0.68252,1,,,,,,455,NW,"ID",33,tondle,TONDLE,z,,,,,,0.01171875,-0.376302083,0,0,0,,0,9,9,274,1,,
,,,,,,,,,,,,,,,,,,5b47e287bc06c90001f8b67d,2020-11-27_15h06.16.656,lexical_decision_task_MP_exp2,2020.2.5,Win32,60,,m,1,0.79028,,,,,,,,0.79028,1,,,,,,30,WORD,"ID",16,orient,ORIENT,m,,,,,,0.01171875,-0.376302083,0,0,0,,0,10,10,89,1,,
,,,,,,,,,,,,,,,,,,5b47e287bc06c90001f8b67d,2020-11-27_15h06.16.656,lexical_decision_task_MP_exp2,2020.2.5,Win32,60,,m,1,0.64721,,,,,,,,0.64721,1,,,,,,38,WORD,"ID",16,powder,POWDER,m,,,,,,0.01171875,-0.376302083,0,0,0,,0,11,11,97,1,,
,,,,,,,,,,,,,,,,,,5b47e287bc06c90001f8b67d,2020-11-27_15h06.16.656,lexical_decision_task_MP_exp2,2020.2.5,Win32,60,,m,1,0.5983,,,,,,,,0.5983,1,,,,,,18,WORD,"ID",16,humble,HUMBLE,m,,,,,,0.01171875,-0.376302083,0,0,0,,0,12,12,77,1,,
,,,,,,,,,,,,,,,,,,5b47e287bc06c90001f8b67d,2020-11-27_15h06.16.656,lexical_decision_task_MP_exp2,2020.2.5,Win32,60,,z,1,0.783775,,,,,,,,0.783775,1,,,,,,304,NW,UN,33,forgle,CLUDIE,z,,,,,,0.01171875,-0.376302083,0,0,0,,0,13,13,363,1,,
,,,,,,,,,,,,,,,,,,5b47e287bc06c90001f8b67d,2020-11-27_15h06.16.656,lexical_decision_task_MP_exp2,2020.2.5,Win32,60,,m,1,0.68866,,,,,,,,0.68866,1,,,,,,219,WORD,"ID",33,bucket,BUCKET,m,,,,,,0.01171875,-0.376302083,0,0,0,,0,14,14,38,1,,
,,,,,,,,,,,,,,,,,,5b47e287bc06c90001f8b67d,2020-11-27_15h06.16.656,lexical_decision_task_MP_exp2,2020.2.5,Win32,60,,m,1,0.852015,,,,,,,,0.852015,1,,,,,,27,WORD,"ID",16,scream,SCREAM,m,,,,,,0.01171875,-0.376302083,0,0,0,,0,15,15,86,1,,
,,,,,,,,,,,,,,,,,,5b47e287bc06c90001f8b67d,2020-11-27_15h06.16.656,lexical_decision_task_MP_exp2,2020.2.5,Win32,60,,z,1,0.68085,,,,,,,,0.68085,1,,,,,,453,NW,"ID",33,bolvis,BOLVIS,z,,,,,,0.01171875,-0.376302083,0,0,0,,0,16,16,272,1,,
,,,,,,,,,,,,,,,,,,5b47e287bc06c90001f8b67d,2020-11-27_15h06.16.656,lexical_decision_task_MP_exp2,2020.2.5,Win32,60,,m,1,0.748465,,,,,,,,0.748465,1,,,,,,58,WORD,"ID",16,foster,FOSTER,m,,,,,,0.01171875,-0.376302083,0,0,0,,0,17,17,117,1,,
,,,,,,,,,,,,,,,,,,5b47e287bc06c90001f8b67d,2020-11-27_15h06.16.656,lexical_decision_task_MP_exp2,2020.2.5,Win32,60,,z,1,0.678965,,,,,,,,0.678965,1,,,,,,274,NW,"ID",16,fumblo,FUMBLO,z,,,,,,0.01171875,-0.376302083,0,0,0,,0,18,18,333,1,,
,,,,,,,,,,,,,,,,,,5b47e287bc06c90001f8b67d,2020-11-27_15h06.16.656,lexical_decision_task_MP_exp2,2020.2.5,Win32,60,,z,1,0.67251,,,,,,,,0.67251,1,,,,,,315,NW,UN,33,scregm,LASTON,z,,,,,,0.01171875,-0.376302083,0,0,0,,0,19,19,374,1,,
,,,,,,,,,,,,,,,,,,5b47e287bc06c90001f8b67d,2020-11-27_15h06.16.656,lexical_decision_task_MP_exp2,2020.2.5,Win32,60,,z,1,0.685735,,,,,,,,0.685735,1,,,,,,347,NW,UN,33,dumple,KERIFT,z,,,,,,0.01171875,-0.376302083,0,0,0,,0,20,20,406,1,,
,,,,,,,,,,,,,,,,,,5b47e287bc06c90001f8b67d,2020-11-27_15h06.16.656,lexical_decision_task_MP_exp2,2020.2.5,Win32,60,,z,1,0.57864,,,,,,,,0.57864,1,,,,,,308,NW,UN,33,amiloy,PSETCH,z,,,,,,0.01171875,-0.376302083,0,0,0,,0,21,21,367,1,,
,,,,,,,,,,,,,,,,,,5b47e287bc06c90001f8b67d,2020-11-27_15h06.16.656,lexical_decision_task_MP_exp2,2020.2.5,Win32,60,,z,1,0.68417,,,,,,,,0.68417,1,,,,,,473,NW,"ID",33,crible,CRIBLE,z,,,,,,0.01171875,-0.376302083,0,0,0,,0,22,22,292,1,,
,,,,,,,,,,,,,,,,,,5b47e287bc06c90001f8b67d,2020-11-27_15h06.16.656,lexical_decision_task_MP_exp2,2020.2.5,Win32,60,,z,1,0.631885,,,,,,,,0.631885,1,,,,,,452,NW,"ID",33,surden,SURDEN,z,,,,,,0.01171875,-0.376302083,0,0,0,,0,23,23,271,1,,
,,,,,,,,,,,,,,,,,,5b47e287bc06c90001f8b67d,2020-11-27_15h06.16.656,lexical_decision_task_MP_exp2,2020.2.5,Win32,60,,m,1,0.67826,,,,,,,,0.67826,1,,,,,,110,WORD,UN,33,induce,POLITE,m,,,,,,0.01171875,-0.376302083,0,0,0,,0,24,24,169,1,,
,,,,,,,,,,,,,,,,,,5b47e287bc06c90001f8b67d,2020-11-27_15h06.16.656,lexical_decision_task_MP_exp2,2020.2.5,Win32,60,,m,1,0.85217,,,,,,,,0.85217,1,,,,,,211,WORD,"ID",33,infect,INFECT,m,,,,,,0.01171875,-0.376302083,0,0,0,,0,25,25,30,1,,
,,,,,,,,,,,,,,,,,,5b47e287bc06c90001f8b67d,2020-11-27_15h06.16.656,lexical_decision_task_MP_exp2,2020.2.5,Win32,60,,z,1,0.68199,,,,,,,,0.68199,1,,,,,,296,NW,"ID",16,beinch,BEINCH,z,,,,,,0.01171875,-0.376302083,0,0,0,,0,26,26,355,1,,
,,,,,,,,,,,,,,,,,,5b47e287bc06c90001f8b67d,2020-11-27_15h06.16.656,lexical_decision_task_MP_exp2,2020.2.5,Win32,60,,z,1,0.851455,,,,,,,,0.851455,1,,,,,,365,NW,UN,16,toshel,GUAIRT,z,,,,,,0.01171875,-0.376302083,0,0,0,,0,27,27,424,1,,
,,,,,,,,,,,,,,,,,,5b47e287bc06c90001f8b67d,2020-11-27_15h06.16.656,lexical_decision_task_MP_exp2,2020.2.5,Win32,60,,m,1,0.73211,,,,,,,,0.73211,1,,,,,,120,WORD,UN,33,ponder,STRAIN,m,,,,,,0.01171875,-0.376302083,0,0,0,,0,28,28,179,1,,
,,,,,,,,,,,,,,,,,,5b47e287bc06c90001f8b67d,2020-11-27_15h06.16.656,lexical_decision_task_MP_exp2,2020.2.5,Win32,60,,m,1,0.722185,,,,,,,,0.722185,1,,,,,,175,WORD,UN,16,strife,FABRIC,m,,,,,,0.01171875,-0.376302083,0,0,0,,0,29,29,234,1,,
,,,,,,,,,,,,,,,,,,5b47e287bc06c90001f8b67d,2020-11-27_15h06.16.656,lexical_decision_task_MP_exp2,2020.2.5,Win32,60,,m,1,0.682135,,,,,,,,0.682135,1,,,,,,7,WORD,"ID",16,anchor,ANCHOR,m,,,,,,0.01171875,-0.376302083,0,0,0,,0,30,30,66,1,,
,,,,,,,,,,,,,,,,,,5b47e287bc06c90001f8b67d,2020-11-27_15h06.16.656,lexical_decision_task_MP_exp2,2020.2.5,Win32,60,,z,1,0.653625,,,,,,,,0.653625,1,,,,,,328,NW,UN,33,yarike,BROAKE,z,,,,,,0.01171875,-0.376302083,0,0,0,,0,31,31,387,1,,
,,,,,,,,,,,,,,,,,,5b47e287bc06c90001f8b67d,2020-11-27_15h06.16.656,lexical_decision_task_MP_exp2,2020.2.5,Win32,60,,m,1,0.733115,,,,,,,,0.733115,1,,,,,,40,WORD,"ID",16,convey,CONVEY,m,,,,,,0.01171875,-0.376302083,0,0,0,,0,32,32,99,1,,
,,,,,,,,,,,,,,,,,,5b47e287bc06c90001f8b67d,2020-11-27_15h06.16.656,lexical_decision_task_MP_exp2,2020.2.5,Win32,60,,m,1,0.684005,,,,,,,,0.684005,1,,,,,,207,WORD,"ID",33,wreath,WREATH,m,,,,,,0.01171875,-0.376302083,0,0,0,,0,33,33,26,1,,
,,,,,,,,,,,,,,,,,,5b47e287bc06c90001f8b67d,2020-11-27_15h06.16.656,lexical_decision_task_MP_exp2,2020.2.5,Win32,60,,m,1,0.62597,,,,,,,,0.62597,1,,,,,,123,WORD,UN,16,blouse,STRIKE,m,,,,,,0.01171875,-0.376302083,0,0,0,,0,34,34,182,1,,
,,,,,,,,,,,,,,,,,,5b47e287bc06c90001f8b67d,2020-11-27_15h06.16.656,lexical_decision_task_MP_exp2,2020.2.5,Win32,60,,m,1,0.562265,,,,,,,,0.562265,1,,,,,,188,WORD,"ID",33,social,SOCIAL,m,,,,,,0.01171875,-0.376302083,0,0,0,,0,35,35,7,1,,
,,,,,,,,,,,,,,,,,,5b47e287bc06c90001f8b67d,2020-11-27_15h06.16.656,lexical_decision_task_MP_exp2,2020.2.5,Win32,60,,z,1,0.58225,,,,,,,,0.58225,1,,,,,,242,NW,"ID",16,unwert,UNWERT,z,,,,,,0.01171875,-0.376302083,0,0,0,,0,36,36,301,1,,
,,,,,,,,,,,,,,,,,,5b47e287bc06c90001f8b67d,2020-11-27_15h06.16.656,lexical_decision_task_MP_exp2,2020.2.5,Win32,60,,m,1,0.608015,,,,,,,,0.608015,1,,,,,,59,WORD,"ID",16,splint,SPLINT,m,,,,,,0.01171875,-0.376302083,0,0,0,,0,37,37,118,1,,
,,,,,,,,,,,,,,,,,,5b47e287bc06c90001f8b67d,2020-11-27_15h06.16.656,lexical_decision_task_MP_exp2,2020.2.5,Win32,60,,m,1,0.619055,,,,,,,,0.619055,1,,,,,,146,WORD,UN,16,garlic,COUPLE,m,,,,,,0.01171875,-0.376302083,0,0,0,,0,38,38,205,1,,
,,,,,,,,,,,,,,,,,,5b47e287bc06c90001f8b67d,2020-11-27_15h06.16.656,lexical_decision_task_MP_exp2,2020.2.5,Win32,60,,z,1,0.65011,,,,,,,,0.65011,1,,,,,,389,NW,UN,16,hatrus,WITMER,z,,,,,,0.01171875,-0.376302083,0,0,0,,0,39,39,448,1,,
,,,,,,,,,,,,,,,,,,5b47e287bc06c90001f8b67d,2020-11-27_15h06.16.656,lexical_decision_task_MP_exp2,2020.2.5,Win32,60,,z,1,0.815725,,,,,,,,0.815725,1,,,,,,477,NW,"ID",33,photie,PHOTIE,z,,,,,,0.01171875,-0.376302083,0,0,0,,0,40,40,296,1,,
,,,,,,,,,,,,,,,,,,5b47e287bc06c90001f8b67d,2020-11-27_15h06.16.656,lexical_decision_task_MP_exp2,2020.2.5,Win32,60,,z,1,1.11474,,,,,,,,1.11474,1,,,,,,265,NW,"ID",16,distar,DISTAR,z,,,,,,0.01171875,-0.376302083,0,0,0,,0,41,41,324,1,,
,,,,,,,,,,,,,,,,,,5b47e287bc06c90001f8b67d,2020-11-27_15h06.16.656,lexical_decision_task_MP_exp2,2020.2.5,Win32,60,,z,1,0.753115,,,,,,,,0.753115,1,,,,,,318,NW,UN,33,zomber,REAGLY,z,,,,,,0.01171875,-0.376302083,0,0,0,,0,42,42,377,1,,
,,,,,,,,,,,,,,,,,,5b47e287bc06c90001f8b67d,2020-11-27_15h06.16.656,lexical_decision_task_MP_exp2,2020.2.5,Win32,60,,z,1,0.686995,,,,,,,,0.686995,1,,,,,,438,NW,"ID",33,baitch,BAITCH,z,,,,,,0.01171875,-0.376302083,0,0,0,,0,43,43,257,1,,
,,,,,,,,,,,,,,,,,,5b47e287bc06c90001f8b67d,2020-11-27_15h06.16.656,lexical_decision_task_MP_exp2,2020.2.5,Win32,60,,m,1,0.6686,,,,,,,,0.6686,1,,,,,,224,WORD,"ID",33,period,PERIOD,m,,,,,,0.01171875,-0.376302083,0,0,0,,0,44,44,43,1,,
,,,,,,,,,,,,,,,,,,5b47e287bc06c90001f8b67d,2020-11-27_15h06.16.656,lexical_decision_task_MP_exp2,2020.2.5,Win32,60,,m,1,0.60037,,,,,,,,0.60037,1,,,,,,174,WORD,UN,16,fabric,TURKEY,m,,,,,,0.01171875,-0.376302083,0,0,0,,0,45,45,233,1,,
,,,,,,,,,,,,,,,,,,5b47e287bc06c90001f8b67d,2020-11-27_15h06.16.656,lexical_decision_task_MP_exp2,2020.2.5,Win32,60,,m,1,0.914845,,,,,,,,0.914845,1,,,,,,117,WORD,UN,33,flight,BRANCH,m,,,,,,0.01171875,-0.376302083,0,0,0,,0,46,46,176,1,,
,,,,,,,,,,,,,,,,,,5b47e287bc06c90001f8b67d,2020-11-27_15h06.16.656,lexical_decision_task_MP_exp2,2020.2.5,Win32,60,,m,1,0.625975,,,,,,,,0.625975,1,,,,,,150,WORD,UN,16,mystic,RANDOM,m,,,,,,0.01171875,-0.376302083,0,0,0,,0,47,47,209,1,,
,,,,,,,,,,,,,,,,,,5b47e287bc06c90001f8b67d,2020-11-27_15h06.16.656,lexical_decision_task_MP_exp2,2020.2.5,Win32,60,,z,1,0.663305,,,,,,,,0.663305,1,,,,,,338,NW,UN,33,fachow,WREASH,z,,,,,,0.01171875,-0.376302083,0,0,0,,0,48,48,397,1,,
,,,,,,,,,,,,,,,,,,5b47e287bc06c90001f8b67d,2020-11-27_15h06.16.656,lexical_decision_task_MP_exp2,2020.2.5,Win32,60,,m,1,0.64885,,,,,,,,0.64885,1,,,,,,105,WORD,UN,33,ransom,NUMBER,m,,,,,,0.01171875,-0.376302083,0,0,0,,0,49,49,164,1,,
,,,,,,,,,,,,,,,,,,5b47e287bc06c90001f8b67d,2020-11-27_15h06.16.656,lexical_decision_task_MP_exp2,2020.2.5,Win32,60,,m,1,0.682685,,,,,,,,0.682685,1,,,,,,187,WORD,"ID",33,course,COURSE,m,,,,,,0.01171875,-0.376302083,0,0,0,,0,50,50,6,1,,
,,,,,,,,,,,,,,,,,,5b47e287bc06c90001f8b67d,2020-11-27_15h06.16.656,lexical_decision_task_MP_exp2,2020.2.5,Win32,60,,m,1,0.6338,,,,,,,,0.6338,1,,,,,,92,WORD,UN,33,public,STRAND,m,,,,,,0.01171875,-0.376302083,0,0,0,,0,51,51,151,1,,
,,,,,,,,,,,,,,,,,,5b47e287bc06c90001f8b67d,2020-11-27_15h06.16.656,lexical_decision_task_MP_exp2,2020.2.5,Win32,60,,z,1,0.655475,,,,,,,,0.655475,1,,,,,,475,NW,"ID",33,pebric,PEBRIC,z,,,,,,0.01171875,-0.376302083,0,0,0,,0,52,52,294,1,,
,,,,,,,,,,,,,,,,,,5b47e287bc06c90001f8b67d,2020-11-27_15h06.16.656,lexical_decision_task_MP_exp2,2020.2.5,Win32,60,,z,1,0.548855,,,,,,,,0.548855,1,,,,,,341,NW,UN,33,randow,MYRTIE,z,,,,,,0.01171875,-0.376302083,0,0,0,,0,53,53,400,1,,
,,,,,,,,,,,,,,,,,,5b47e287bc06c90001f8b67d,2020-11-27_15h06.16.656,lexical_decision_task_MP_exp2,2020.2.5,Win32,60,,z,1,0.733985,,,,,,,,0.733985,1,,,,,,243,NW,"ID",16,musied,MUSIED,z,,,,,,0.01171875,-0.376302083,0,0,0,,0,54,54,302,1,,
,,,,,,,,,,,,,,,,,,5b47e287bc06c90001f8b67d,2020-11-27_15h06.16.656,lexical_decision_task_MP_exp2,2020.2.5,Win32,60,,z,1,1.063885,,,,,,,,1.063885,1,,,,,,377,NW,UN,16,shrile,INJORE,z,,,,,,0.01171875,-0.376302083,0,0,0,,0,55,55,436,1,,
,,,,,,,,,,,,,,,,,,5b47e287bc06c90001f8b67d,2020-11-27_15h06.16.656,lexical_decision_task_MP_exp2,2020.2.5,Win32,60,,m,1,0.63673,,,,,,,,0.63673,1,,,,,,134,WORD,UN,16,import,STAPLE,m,,,,,,0.01171875,-0.376302083,0,0,0,,0,56,56,193,1,,
,,,,,,,,,,,,,,,,,,5b47e287bc06c90001f8b67d,2020-11-27_15h06.16.656,lexical_decision_task_MP_exp2,2020.2.5,Win32,60,,z,1,0.689725,,,,,,,,0.689725,1,,,,,,264,NW,"ID",16,vackel,VACKEL,z,,,,,,0.01171875,-0.376302083,0,0,0,,0,57,57,323,1,,
,,,,,,,,,,,,,,,,,,5b47e287bc06c90001f8b67d,2020-11-27_15h06.16.656,lexical_decision_task_MP_exp2,2020.2.5,Win32,60,,z,1,0.674035,,,,,,,,0.674035,1,,,,,,436,NW,"ID",33,frutan,FRUTAN,z,,,,,,0.01171875,-0.376302083,0,0,0,,0,58,58,255,1,,
,,,,,,,,,,,,,,,,,,5b47e287bc06c90001f8b67d,2020-11-27_15h06.16.656,lexical_decision_task_MP_exp2,2020.2.5,Win32,60,,m,1,0.663975,,,,,,,,0.663975,1,,,,,,205,WORD,"ID",33,lounge,LOUNGE,m,,,,,,0.01171875,-0.376302083,0,0,0,,0,59,59,24,1,,
,,,,,,,,,,,,,,,,,,5b47e287bc06c90001f8b67d,2020-11-27_15h06.16.656,lexical_decision_task_MP_exp2,2020.2.5,Win32,60,,z,1,0.66633,,,,,,,,0.66633,1,,,,,,272,NW,"ID",16,damilt,DAMILT,z,,,,,,0.01171875,-0.376302083,0,0,0,,0,60,60,331,1,,
,,,,,,,,,,,,,,,,,,5b47e287bc06c90001f8b67d,2020-11-27_15h06.16.656,lexical_decision_task_MP_exp2,2020.2.5,Win32,60,,z,1,0.663765,,,,,,,,0.663765,1,,,,,,251,NW,"ID",16,lupict,LUPICT,z,,,,,,0.01171875,-0.376302083,0,0,0,,0,61,61,310,1,,
,,,,,,,,,,,,,,,,,,5b47e287bc06c90001f8b67d,2020-11-27_15h06.16.656,lexical_decision_task_MP_exp2,2020.2.5,Win32,60,,m,1,0.781155,,,,,,,,0.781155,1,,,,,,163,WORD,UN,16,market,STRING,m,,,,,,0.01171875,-0.376302083,0,0,0,,0,62,62,222,1,,
,,,,,,,,,,,,,,,,,,5b47e287bc06c90001f8b67d,2020-11-27_15h06.16.656,lexical_decision_task_MP_exp2,2020.2.5,Win32,60,,z,1,0.765025,,,,,,,,0.765025,1,,,,,,325,NW,UN,33,iguade,THRUSE,z,,,,,,0.01171875,-0.376302083,0,0,0,,0,63,63,384,1,,
,,,,,,,,,,,,,,,,,,5b47e287bc06c90001f8b67d,2020-11-27_15h06.16.656,lexical_decision_task_MP_exp2,2020.2.5,Win32,60,,m,1,0.627385,,,,,,,,0.627385,1,,,,,,192,WORD,"ID",33,plague,PLAGUE,m,,,,,,0.01171875,-0.376302083,0,0,0,,0,64,64,11,1,,
,,,,,,,,,,,,,,,,,,5b47e287bc06c90001f8b67d,2020-11-27_15h06.16.656,lexical_decision_task_MP_exp2,2020.2.5,Win32,60,,m,1,0.667875,,,,,,,,0.667875,1,,,,,,193,WORD,"ID",33,object,OBJECT,m,,,,,,0.01171875,-0.376302083,0,0,0,,0,65,65,12,1,,
,,,,,,,,,,,,,,,,,,5b47e287bc06c90001f8b67d,2020-11-27_15h06.16.656,lexical_decision_task_MP_exp2,2020.2.5,Win32,60,,m,1,0.681665,,,,,,,,0.681665,1,,,,,,144,WORD,UN,16,parish,SPONGE,m,,,,,,0.01171875,-0.376302083,0,0,0,,0,66,66,203,1,,
,,,,,,,,,,,,,,,,,,5b47e287bc06c90001f8b67d,2020-11-27_15h06.16.656,lexical_decision_task_MP_exp2,2020.2.5,Win32,60,,z,1,0.71132,,,,,,,,0.71132,1,,,,,,353,NW,UN,33,virlex,CLUREY,z,,,,,,0.01171875,-0.376302083,0,0,0,,0,67,67,412,1,,
,,,,,,,,,,,,,,,,,,5b47e287bc06c90001f8b67d,2020-11-27_15h06.16.656,lexical_decision_task_MP_exp2,2020.2.5,Win32,60,,m,1,0.5494,,,,,,,,0.5494,1,,,,,,98,WORD,UN,33,fluent,BELONG,m,,,,,,0.01171875,-0.376302083,0,0,0,,0,68,68,157,1,,
,,,,,,,,,,,,,,,,,,5b47e287bc06c90001f8b67d,2020-11-27_15h06.16.656,lexical_decision_task_MP_exp2,2020.2.5,Win32,60,,m,1,0.624675,,,,,,,,0.624675,1,,,,,,61,WORD,UN,33,region,PONDER,m,,,,,,0.01171875,-0.376302083,0,0,0,,0,69,69,120,1,,
,,,,,,,,,,,,,,,,,,5b47e287bc06c90001f8b67d,2020-11-27_15h06.16.656,lexical_decision_task_MP_exp2,2020.2.5,Win32,60,,m,1,0.597345,,,,,,,,0.597345,1,,,,,,75,WORD,UN,33,exotic,TROPHY,m,,,,,,0.01171875,-0.376302083,0,0,0,,0,70,70,134,1,,
,,,,,,,,,,,,,,,,,,5b47e287bc06c90001f8b67d,2020-11-27_15h06.16.656,lexical_decision_task_MP_exp2,2020.2.5,Win32,60,,m,1,0.6089,,,,,,,,0.6089,1,,,,,,95,WORD,UN,33,ignore,THREAD,m,,,,,,0.01171875,-0.376302083,0,0,0,,0,71,71,154,1,,
,,,,,,,,,,,,,,,,,,5b47e287bc06c90001f8b67d,2020-11-27_15h06.16.656,lexical_decision_task_MP_exp2,2020.2.5,Win32,60,,m,1,0.73448,,,,,,,,0.73448,1,,,,,,87,WORD,UN,33,sprawl,FILTER,m,,,,,,0.01171875,-0.376302083,0,0,0,,0,72,72,146,1,,
,,,,,,,,,,,,,,,,,,5b47e287bc06c90001f8b67d,2020-11-27_15h06.16.656,lexical_decision_task_MP_exp2,2020.2.5,Win32,60,,m,1,0.6023,,,,,,,,0.6023,1,,,,,,60,WORD,"ID",16,pencil,PENCIL,m,,,,,,0.01171875,-0.376302083,0,0,0,,0,73,73,119,1,,
,,,,,,,,,,,,,,,,,,5b47e287bc06c90001f8b67d,2020-11-27_15h06.16.656,lexical_decision_task_MP_exp2,2020.2.5,Win32,60,,z,1,0.71865,,,,,,,,0.71865,1,,,,,,303,NW,UN,33,cludie,FIREAM,z,,,,,,0.01171875,-0.376302083,0,0,0,,0,74,74,362,1,,
,,,,,,,,,,,,,,,,,,5b47e287bc06c90001f8b67d,2020-11-27_15h06.16.656,lexical_decision_task_MP_exp2,2020.2.5,Win32,60,,z,1,0.96858,,,,,,,,0.96858,1,,,,,,268,NW,"ID",16,packes,PACKES,z,,,,,,0.01171875,-0.376302083,0,0,0,,0,75,75,327,1,,
,,,,,,,,,,,,,,,,,,5b47e287bc06c90001f8b67d,2020-11-27_15h06.16.656,lexical_decision_task_MP_exp2,2020.2.5,Win32,60,,m,0,0.75226,,,,,,,,0.75226,0,,,,,,400,NW,UN,16,mustil,WEAROX,z,,,,,,0.01171875,-0.376302083,0,0,0,,0,76,76,459,1,,
,,,,,,,,,,,,,,,,,,5b47e287bc06c90001f8b67d,2020-11-27_15h06.16.656,lexical_decision_task_MP_exp2,2020.2.5,Win32,60,,m,1,0.768915,,,,,,,,0.768915,1,,,,,,170,WORD,UN,16,dragon,POUNCE,m,,,,,,0.01171875,-0.376302083,0,0,0,,0,77,77,229,1,,
,,,,,,,,,,,,,,,,,,5b47e287bc06c90001f8b67d,2020-11-27_15h06.16.656,lexical_decision_task_MP_exp2,2020.2.5,Win32,60,,z,1,0.83559,,,,,,,,0.83559,1,,,,,,387,NW,UN,16,cragin,GRONCE,z,,,,,,0.01171875,-0.376302083,0,0,0,,0,78,78,446,1,,
,,,,,,,,,,,,,,,,,,5b47e287bc06c90001f8b67d,2020-11-27_15h06.16.656,lexical_decision_task_MP_exp2,2020.2.5,Win32,60,,z,1,0.58801,,,,,,,,0.58801,1,,,,,,271,NW,"ID",16,aubrid,AUBRID,z,,,,,,0.01171875,-0.376302083,0,0,0,,0,79,79,330,1,,
,,,,,,,,,,,,,,,,,,5b47e287bc06c90001f8b67d,2020-11-27_15h06.16.656,lexical_decision_task_MP_exp2,2020.2.5,Win32,60,,z,1,0.585885,,,,,,,,0.585885,1,,,,,,428,NW,"ID",33,tandly,TANDLY,z,,,,,,0.01171875,-0.376302083,0,0,0,,0,80,80,247,1,,
,,,,,,,,,,,,,,,,,,5b47e287bc06c90001f8b67d,2020-11-27_15h06.16.656,lexical_decision_task_MP_exp2,2020.2.5,Win32,60,,z,1,0.64224,,,,,,,,0.64224,1,,,,,,381,NW,UN,16,sarley,HUNIEK,z,,,,,,0.01171875,-0.376302083,0,0,0,,0,81,81,440,1,,
,,,,,,,,,,,,,,,,,,5b47e287bc06c90001f8b67d,2020-11-27_15h06.16.656,lexical_decision_task_MP_exp2,2020.2.5,Win32,60,,m,1,0.926145,,,,,,,,0.926145,1,,,,,,227,WORD,"ID",33,seldom,SELDOM,m,,,,,,0.01171875,-0.376302083,0,0,0,,0,82,82,46,1,,
,,,,,,,,,,,,,,,,,,5b47e287bc06c90001f8b67d,2020-11-27_15h06.16.656,lexical_decision_task_MP_exp2,2020.2.5,Win32,60,,m,1,0.760305,,,,,,,,0.760305,1,,,,,,126,WORD,UN,16,castle,ENOUGH,m,,,,,,0.01171875,-0.376302083,0,0,0,,0,83,83,185,1,,
,,,,,,,,,,,,,,,,,,5b47e287bc06c90001f8b67d,2020-11-27_15h06.16.656,lexical_decision_task_MP_exp2,2020.2.5,Win32,60,,m,1,0.83095,,,,,,,,0.83095,1,,,,,,33,WORD,"ID",16,butler,BUTLER,m,,,,,,0.01171875,-0.376302083,0,0,0,,0,84,84,92,1,,
,,,,,,,,,,,,,,,,,,5b47e287bc06c90001f8b67d,2020-11-27_15h06.16.656,lexical_decision_task_MP_exp2,2020.2.5,Win32,60,,m,1,0.77488,,,,,,,,0.77488,1,,,,,,195,WORD,"ID",33,resign,RESIGN,m,,,,,,0.01171875,-0.376302083,0,0,0,,0,85,85,14,1,,
,,,,,,,,,,,,,,,,,,5b47e287bc06c90001f8b67d,2020-11-27_15h06.16.656,lexical_decision_task_MP_exp2,2020.2.5,Win32,60,,z,1,0.955035,,,,,,,,0.955035,1,,,,,,462,NW,"ID",33,absult,ABSULT,z,,,,,,0.01171875,-0.376302083,0,0,0,,0,86,86,281,1,,
,,,,,,,,,,,,,,,,,,5b47e287bc06c90001f8b67d,2020-11-27_15h06.16.656,lexical_decision_task_MP_exp2,2020.2.5,Win32,60,,m,1,0.614565,,,,,,,,0.614565,1,,,,,,10,WORD,"ID",16,ethnic,ETHNIC,m,,,,,,0.01171875,-0.376302083,0,0,0,,0,87,87,69,1,,
,,,,,,,,,,,,,,,,,,5b47e287bc06c90001f8b67d,2020-11-27_15h06.16.656,lexical_decision_task_MP_exp2,2020.2.5,Win32,60,,z,1,0.629945,,,,,,,,0.629945,1,,,,,,293,NW,"ID",16,swance,SWANCE,z,,,,,,0.01171875,-0.376302083,0,0,0,,0,88,88,352,1,,
,,,,,,,,,,,,,,,,,,5b47e287bc06c90001f8b67d,2020-11-27_15h06.16.656,lexical_decision_task_MP_exp2,2020.2.5,Win32,60,,m,1,0.59817,,,,,,,,0.59817,1,,,,,,184,WORD,"ID",33,sleazy,SLEAZY,m,,,,,,0.01171875,-0.376302083,0,0,0,,0,89,89,3,1,,
,,,,,,,,,,,,,,,,,,5b47e287bc06c90001f8b67d,2020-11-27_15h06.16.656,lexical_decision_task_MP_exp2,2020.2.5,Win32,60,,z,1,0.56662,,,,,,,,0.56662,1,,,,,,378,NW,UN,16,auting,SHRILE,z,,,,,,0.01171875,-0.376302083,0,0,0,,0,90,90,437,1,,
,,,,,,,,,,,,,,,,,,5b47e287bc06c90001f8b67d,2020-11-27_15h06.16.656,lexical_decision_task_MP_exp2,2020.2.5,Win32,60,,z,1,0.60957,,,,,,,,0.60957,1,,,,,,289,NW,"ID",16,starby,STARBY,z,,,,,,0.01171875,-0.376302083,0,0,0,,0,91,91,348,1,,
,,,,,,,,,,,,,,,,,,5b47e287bc06c90001f8b67d,2020-11-27_15h06.16.656,lexical_decision_task_MP_exp2,2020.2.5,Win32,60,,m,1,0.576255,,,,,,,,0.576255,1,,,,,,97,WORD,UN,33,belong,CLIENT,m,,,,,,0.01171875,-0.376302083,0,0,0,,0,92,92,156,1,,
,,,,,,,,,,,,,,,,,,5b47e287bc06c90001f8b67d,2020-11-27_15h06.16.656,lexical_decision_task_MP_exp2,2020.2.5,Win32,60,,z,1,0.781745,,,,,,,,0.781745,1,,,,,,367,NW,UN,16,hornal,SLIQUE,z,,,,,,0.01171875,-0.376302083,0,0,0,,0,93,93,426,1,,
,,,,,,,,,,,,,,,,,,5b47e287bc06c90001f8b67d,2020-11-27_15h06.16.656,lexical_decision_task_MP_exp2,2020.2.5,Win32,60,,m,1,0.591135,,,,,,,,0.591135,1,,,,,,91,WORD,UN,33,hunger,EXPAND,m,,,,,,0.01171875,-0.376302083,0,0,0,,0,94,94,150,1,,
,,,,,,,,,,,,,,,,,,5b47e287bc06c90001f8b67d,2020-11-27_15h06.16.656,lexical_decision_task_MP_exp2,2020.2.5,Win32,60,,z,1,0.78129,,,,,,,,0.78129,1,,,,,,369,NW,UN,16,sleact,WRONCH,z,,,,,,0.01171875,-0.376302083,0,0,0,,0,95,95,428,1,,
,,,,,,,,,,,,,,,,,,5b47e287bc06c90001f8b67d,2020-11-27_15h06.16.656,lexical_decision_task_MP_exp2,2020.2.5,Win32,60,,m,1,0.684655,,,,,,,,0.684655,1,,,,,,74,WORD,UN,33,trophy,PLAQUE,m,,,,,,0.01171875,-0.376302083,0,0,0,,0,96,96,133,1,,
,,,,,,,,,,,,,,,,,,5b47e287bc06c90001f8b67d,2020-11-27_15h06.16.656,lexical_decision_task_MP_exp2,2020.2.5,Win32,60,,z,1,0.695885,,,,,,,,0.695885,1,,,,,,431,NW,"ID",33,chrums,CHRUMS,z,,,,,,0.01171875,-0.376302083,0,0,0,,0,97,97,250,1,,
,,,,,,,,,,,,,,,,,,5b47e287bc06c90001f8b67d,2020-11-27_15h06.16.656,lexical_decision_task_MP_exp2,2020.2.5,Win32,60,,z,1,0.613885,,,,,,,,0.613885,1,,,,,,371,NW,UN,16,ramily,GEILOY,z,,,,,,0.01171875,-0.376302083,0,0,0,,0,98,98,430,1,,
,,,,,,,,,,,,,,,,,,5b47e287bc06c90001f8b67d,2020-11-27_15h06.16.656,lexical_decision_task_MP_exp2,2020.2.5,Win32,60,,z,1,0.598555,,,,,,,,0.598555,1,,,,,,449,NW,"ID",33,brunge,BRUNGE,z,,,,,,0.01171875,-0.376302083,0,0,0,,0,99,99,268,1,,
,,,,,,,,,,,,,,,,,,5b47e287bc06c90001f8b67d,2020-11-27_15h06.16.656,lexical_decision_task_MP_exp2,2020.2.5,Win32,60,,z,1,0.683435,,,,,,,,0.683435,1,,,,,,348,NW,UN,33,asylen,DUMPLE,z,,,,,,0.01171875,-0.376302083,0,0,0,,0,100,100,407,1,,
,,,,,,,,,,,,,,,,,,5b47e287bc06c90001f8b67d,2020-11-27_15h06.16.656,lexical_decision_task_MP_exp2,2020.2.5,Win32,60,,z,1,0.542865,,,,,,,,0.542865,1,,,,,,406,NW,UN,16,suiver,NOUPLY,z,,,,,,0.01171875,-0.376302083,0,0,0,,0,101,101,465,1,,
,,,,,,,,,,,,,,,,,,5b47e287bc06c90001f8b67d,2020-11-27_15h06.16.656,lexical_decision_task_MP_exp2,2020.2.5,Win32,60,,z,1,0.5933,,,,,,,,0.5933,1,,,,,,356,NW,UN,33,derain,OTHNIS,z,,,,,,0.01171875,-0.376302083,0,0,0,,0,102,102,415,1,,
,,,,,,,,,,,,,,,,,,5b47e287bc06c90001f8b67d,2020-11-27_15h06.16.656,lexical_decision_task_MP_exp2,2020.2.5,Win32,60,,z,1,0.49958,,,,,,,,0.49958,1,,,,,,446,NW,"ID",33,runamo,RUNAMO,z,,,,,,0.01171875,-0.376302083,0,0,0,,0,103,103,265,1,,
,,,,,,,,,,,,,,,,,,5b47e287bc06c90001f8b67d,2020-11-27_15h06.16.656,lexical_decision_task_MP_exp2,2020.2.5,Win32,60,,z,1,0.7155,,,,,,,,0.7155,1,,,,,,282,NW,"ID",16,porlex,PORLEX,z,,,,,,0.01171875,-0.376302083,0,0,0,,0,104,104,341,1,,
,,,,,,,,,,,,,,,,,,5b47e287bc06c90001f8b67d,2020-11-27_15h06.16.656,lexical_decision_task_MP_exp2,2020.2.5,Win32,60,,z,1,0.58161,,,,,,,,0.58161,1,,,,,,346,NW,UN,33,kerift,SAUDIC,z,,,,,,0.01171875,-0.376302083,0,0,0,,0,105,105,405,1,,
,,,,,,,,,,,,,,,,,,5b47e287bc06c90001f8b67d,2020-11-27_15h06.16.656,lexical_decision_task_MP_exp2,2020.2.5,Win32,60,,m,1,0.665645,,,,,,,,0.665645,1,,,,,,11,WORD,"ID",16,cruise,CRUISE,m,,,,,,0.01171875,-0.376302083,0,0,0,,0,106,106,70,1,,
,,,,,,,,,,,,,,,,,,5b47e287bc06c90001f8b67d,2020-11-27_15h06.16.656,lexical_decision_task_MP_exp2,2020.2.5,Win32,60,,z,1,0.60039,,,,,,,,0.60039,1,,,,,,412,NW,UN,16,equats,JILUER,z,,,,,,0.01171875,-0.376302083,0,0,0,,0,107,107,471,1,,
,,,,,,,,,,,,,,,,,,5b47e287bc06c90001f8b67d,2020-11-27_15h06.16.656,lexical_decision_task_MP_exp2,2020.2.5,Win32,60,,m,1,0.572435,,,,,,,,0.572435,1,,,,,,84,WORD,UN,33,strand,MORTAL,m,,,,,,0.01171875,-0.376302083,0,0,0,,0,108,108,143,1,,
,,,,,,,,,,,,,,,,,,5b47e287bc06c90001f8b67d,2020-11-27_15h06.16.656,lexical_decision_task_MP_exp2,2020.2.5,Win32,60,,z,1,0.67505,,,,,,,,0.67505,1,,,,,,422,NW,"ID",33,alcoud,ALCOUD,z,,,,,,0.01171875,-0.376302083,0,0,0,,0,109,109,241,1,,
,,,,,,,,,,,,,,,,,,5b47e287bc06c90001f8b67d,2020-11-27_15h06.16.656,lexical_decision_task_MP_exp2,2020.2.5,Win32,60,,z,1,0.582255,,,,,,,,0.582255,1,,,,,,294,NW,"ID",16,inhort,INHORT,z,,,,,,0.01171875,-0.376302083,0,0,0,,0,110,110,353,1,,
,,,,,,,,,,,,,,,,,,5b47e287bc06c90001f8b67d,2020-11-27_15h06.16.656,lexical_decision_task_MP_exp2,2020.2.5,Win32,60,,m,1,0.70028,,,,,,,,0.70028,1,,,,,,8,WORD,"ID",16,abrupt,ABRUPT,m,,,,,,0.01171875,-0.376302083,0,0,0,,0,111,111,67,1,,
,,,,,,,,,,,,,,,,,,5b47e287bc06c90001f8b67d,2020-11-27_15h06.16.656,lexical_decision_task_MP_exp2,2020.2.5,Win32,60,,z,1,0.959035,,,,,,,,0.959035,1,,,,,,256,NW,"ID",16,inlors,INLORS,z,,,,,,0.01171875,-0.376302083,0,0,0,,0,112,112,315,1,,
,,,,,,,,,,,,,,,,,,5b47e287bc06c90001f8b67d,2020-11-27_15h06.16.656,lexical_decision_task_MP_exp2,2020.2.5,Win32,60,,m,1,0.831425,,,,,,,,0.831425,1,,,,,,19,WORD,"ID",16,patron,PATRON,m,,,,,,0.01171875,-0.376302083,0,0,0,,0,113,113,78,1,,
,,,,,,,,,,,,,,,,,,5b47e287bc06c90001f8b67d,2020-11-27_15h06.16.656,lexical_decision_task_MP_exp2,2020.2.5,Win32,60,,m,1,0.70462,,,,,,,,0.70462,1,,,,,,14,WORD,"ID",16,almost,ALMOST,m,,,,,,0.01171875,-0.376302083,0,0,0,,0,114,114,73,1,,
,,,,,,,,,,,,,,,,,,5b47e287bc06c90001f8b67d,2020-11-27_15h06.16.656,lexical_decision_task_MP_exp2,2020.2.5,Win32,60,,m,1,0.587755,,,,,,,,0.587755,1,,,,,,130,WORD,UN,16,quench,STUPID,m,,,,,,0.01171875,-0.376302083,0,0,0,,0,115,115,189,1,,
,,,,,,,,,,,,,,,,,,5b47e287bc06c90001f8b67d,2020-11-27_15h06.16.656,lexical_decision_task_MP_exp2,2020.2.5,Win32,60,,z,1,0.551245,,,,,,,,0.551245,1,,,,,,333,NW,UN,33,watmeg,CATRIE,z,,,,,,0.01171875,-0.376302083,0,0,0,,0,116,116,392,1,,
,,,,,,,,,,,,,,,,,,5b47e287bc06c90001f8b67d,2020-11-27_15h06.16.656,lexical_decision_task_MP_exp2,2020.2.5,Win32,60,,z,1,0.603475,,,,,,,,0.603475,1,,,,,,279,NW,"ID",16,celond,CELOND,z,,,,,,0.01171875,-0.376302083,0,0,0,,0,117,117,338,1,,
,,,,,,,,,,,,,,,,,,5b47e287bc06c90001f8b67d,2020-11-27_15h06.16.656,lexical_decision_task_MP_exp2,2020.2.5,Win32,60,,m,0,1.099915,,,,,,,,1.099915,0,,,,,,454,NW,"ID",33,scouge,SCOUGE,z,,,,,,0.01171875,-0.376302083,0,0,0,,0,118,118,273,1,,
,,,,,,,,,,,,,,,,,,5b47e287bc06c90001f8b67d,2020-11-27_15h06.16.656,lexical_decision_task_MP_exp2,2020.2.5,Win32,60,,z,1,0.63043,,,,,,,,0.63043,1,,,,,,411,NW,UN,16,jiluer,ORCHIN,z,,,,,,0.01171875,-0.376302083,0,0,0,,0,119,119,470,1,,
,,,,,,,,,,,,,,,,,,5b47e287bc06c90001f8b67d,2020-11-27_15h06.16.656,lexical_decision_task_MP_exp2,2020.2.5,Win32,60,,z,1,0.6166,,,,,,,,0.6166,1,,,,,,420,NW,UN,16,pauche,GUSHOP,z,,,,,,0.01171875,-0.376302083,0,0,0,space,0,120,120,479,1,46.86157,
,,,,,,,,,,,,,,,,,,5b47e287bc06c90001f8b67d,2020-11-27_15h06.16.656,lexical_decision_task_MP_exp2,2020.2.5,Win32,60,,m,1,1.04773,,,,,,,,1.04773,1,,,,,,206,WORD,"ID",33,tailor,TAILOR,m,,,,,,0.01171875,-0.376302083,0,0,0,,0,121,121,25,1,,
,,,,,,,,,,,,,,,,,,5b47e287bc06c90001f8b67d,2020-11-27_15h06.16.656,lexical_decision_task_MP_exp2,2020.2.5,Win32,60,,z,1,0.628955,,,,,,,,0.628955,1,,,,,,327,NW,UN,33,broake,PLENAC,z,,,,,,0.01171875,-0.376302083,0,0,0,,0,122,122,386,1,,
,,,,,,,,,,,,,,,,,,5b47e287bc06c90001f8b67d,2020-11-27_15h06.16.656,lexical_decision_task_MP_exp2,2020.2.5,Win32,60,,m,1,0.654075,,,,,,,,0.654075,1,,,,,,236,WORD,"ID",33,pirate,PIRATE,m,,,,,,0.01171875,-0.376302083,0,0,0,,0,123,123,55,1,,
,,,,,,,,,,,,,,,,,,5b47e287bc06c90001f8b67d,2020-11-27_15h06.16.656,lexical_decision_task_MP_exp2,2020.2.5,Win32,60,,z,1,0.781745,,,,,,,,0.781745,1,,,,,,305,NW,UN,33,sounge,FORGLE,z,,,,,,0.01171875,-0.376302083,0,0,0,,0,124,124,364,1,,
,,,,,,,,,,,,,,,,,,5b47e287bc06c90001f8b67d,2020-11-27_15h06.16.656,lexical_decision_task_MP_exp2,2020.2.5,Win32,60,,m,1,0.764785,,,,,,,,0.764785,1,,,,,,212,WORD,"ID",33,verify,VERIFY,m,,,,,,0.01171875,-0.376302083,0,0,0,,0,125,125,31,1,,
,,,,,,,,,,,,,,,,,,5b47e287bc06c90001f8b67d,2020-11-27_15h06.16.656,lexical_decision_task_MP_exp2,2020.2.5,Win32,60,,m,1,0.85661,,,,,,,,0.85661,1,,,,,,137,WORD,UN,16,melody,FINGER,m,,,,,,0.01171875,-0.376302083,0,0,0,,0,126,126,196,1,,
,,,,,,,,,,,,,,,,,,5b47e287bc06c90001f8b67d,2020-11-27_15h06.16.656,lexical_decision_task_MP_exp2,2020.2.5,Win32,60,,m,1,0.63391,,,,,,,,0.63391,1,,,,,,189,WORD,"ID",33,censor,CENSOR,m,,,,,,0.01171875,-0.376302083,0,0,0,,0,127,127,8,1,,
,,,,,,,,,,,,,,,,,,5b47e287bc06c90001f8b67d,2020-11-27_15h06.16.656,lexical_decision_task_MP_exp2,2020.2.5,Win32,60,,z,1,0.627795,,,,,,,,0.627795,1,,,,,,432,NW,"ID",33,lunker,LUNKER,z,,,,,,0.01171875,-0.376302083,0,0,0,,0,128,128,251,1,,
,,,,,,,,,,,,,,,,,,5b47e287bc06c90001f8b67d,2020-11-27_15h06.16.656,lexical_decision_task_MP_exp2,2020.2.5,Win32,60,,m,1,0.68904,,,,,,,,0.68904,1,,,,,,180,WORD,UN,16,thrive,SILENT,m,,,,,,0.01171875,-0.376302083,0,0,0,,0,129,129,239,1,,
,,,,,,,,,,,,,,,,,,5b47e287bc06c90001f8b67d,2020-11-27_15h06.16.656,lexical_decision_task_MP_exp2,2020.2.5,Win32,60,,z,1,0.765095,,,,,,,,0.765095,1,,,,,,403,NW,UN,16,cluirm,BRUATS,z,,,,,,0.01171875,-0.376302083,0,0,0,,0,130,130,462,1,,
,,,,,,,,,,,,,,,,,,5b47e287bc06c90001f8b67d,2020-11-27_15h06.16.656,lexical_decision_task_MP_exp2,2020.2.5,Win32,60,,z,1,0.56683,,,,,,,,0.56683,1,,,,,,440,NW,"ID",33,saride,SARIDE,z,,,,,,0.01171875,-0.376302083,0,0,0,,0,131,131,259,1,,
,,,,,,,,,,,,,,,,,,5b47e287bc06c90001f8b67d,2020-11-27_15h06.16.656,lexical_decision_task_MP_exp2,2020.2.5,Win32,60,,z,1,0.62338,,,,,,,,0.62338,1,,,,,,397,NW,UN,16,blunde,CAMBLE,z,,,,,,0.01171875,-0.376302083,0,0,0,,0,132,132,456,1,,
,,,,,,,,,,,,,,,,,,5b47e287bc06c90001f8b67d,2020-11-27_15h06.16.656,lexical_decision_task_MP_exp2,2020.2.5,Win32,60,,m,1,0.54243,,,,,,,,0.54243,1,,,,,,71,WORD,UN,33,bright,GARDEN,m,,,,,,0.01171875,-0.376302083,0,0,0,,0,133,133,130,1,,
,,,,,,,,,,,,,,,,,,5b47e287bc06c90001f8b67d,2020-11-27_15h06.16.656,lexical_decision_task_MP_exp2,2020.2.5,Win32,60,,z,0,0.592305,,,,,,,,0.592305,0,,,,,,116,WORD,UN,33,branch,TUMBLE,m,,,,,,0.01171875,-0.376302083,0,0,0,,0,134,134,175,1,,
,,,,,,,,,,,,,,,,,,5b47e287bc06c90001f8b67d,2020-11-27_15h06.16.656,lexical_decision_task_MP_exp2,2020.2.5,Win32,60,,m,1,0.596495,,,,,,,,0.596495,1,,,,,,155,WORD,UN,16,cradle,LIZARD,m,,,,,,0.01171875,-0.376302083,0,0,0,,0,135,135,214,1,,
,,,,,,,,,,,,,,,,,,5b47e287bc06c90001f8b67d,2020-11-27_15h06.16.656,lexical_decision_task_MP_exp2,2020.2.5,Win32,60,,m,1,0.583475,,,,,,,,0.583475,1,,,,,,118,WORD,UN,33,spider,FLIGHT,m,,,,,,0.01171875,-0.376302083,0,0,0,,0,136,136,177,1,,
,,,,,,,,,,,,,,,,,,5b47e287bc06c90001f8b67d,2020-11-27_15h06.16.656,lexical_decision_task_MP_exp2,2020.2.5,Win32,60,,m,1,0.499915,,,,,,,,0.499915,1,,,,,,196,WORD,"ID",33,credit,CREDIT,m,,,,,,0.01171875,-0.376302083,0,0,0,,0,137,137,15,1,,
,,,,,,,,,,,,,,,,,,5b47e287bc06c90001f8b67d,2020-11-27_15h06.16.656,lexical_decision_task_MP_exp2,2020.2.5,Win32,60,,m,1,0.64374,,,,,,,,0.64374,1,,,,,,162,WORD,UN,16,string,CANDLE,m,,,,,,0.01171875,-0.376302083,0,0,0,,0,138,138,221,1,,
,,,,,,,,,,,,,,,,,,5b47e287bc06c90001f8b67d,2020-11-27_15h06.16.656,lexical_decision_task_MP_exp2,2020.2.5,Win32,60,,m,1,0.532255,,,,,,,,0.532255,1,,,,,,89,WORD,UN,33,relish,PERMIT,m,,,,,,0.01171875,-0.376302083,0,0,0,,0,139,139,148,1,,
,,,,,,,,,,,,,,,,,,5b47e287bc06c90001f8b67d,2020-11-27_15h06.16.656,lexical_decision_task_MP_exp2,2020.2.5,Win32,60,,m,1,0.55289,,,,,,,,0.55289,1,,,,,,65,WORD,UN,33,gospel,SYMBOL,m,,,,,,0.01171875,-0.376302083,0,0,0,,0,140,140,124,1,,
,,,,,,,,,,,,,,,,,,5b47e287bc06c90001f8b67d,2020-11-27_15h06.16.656,lexical_decision_task_MP_exp2,2020.2.5,Win32,60,,m,1,0.58324,,,,,,,,0.58324,1,,,,,,138,WORD,UN,16,debris,MELODY,m,,,,,,0.01171875,-0.376302083,0,0,0,,0,141,141,197,1,,
,,,,,,,,,,,,,,,,,,5b47e287bc06c90001f8b67d,2020-11-27_15h06.16.656,lexical_decision_task_MP_exp2,2020.2.5,Win32,60,,m,1,0.51747,,,,,,,,0.51747,1,,,,,,70,WORD,UN,33,garden,SQUARE,m,,,,,,0.01171875,-0.376302083,0,0,0,,0,142,142,129,1,,
,,,,,,,,,,,,,,,,,,5b47e287bc06c90001f8b67d,2020-11-27_15h06.16.656,lexical_decision_task_MP_exp2,2020.2.5,Win32,60,,m,1,0.565055,,,,,,,,0.565055,1,,,,,,149,WORD,UN,16,random,INVADE,m,,,,,,0.01171875,-0.376302083,0,0,0,,0,143,143,208,1,,
,,,,,,,,,,,,,,,,,,5b47e287bc06c90001f8b67d,2020-11-27_15h06.16.656,lexical_decision_task_MP_exp2,2020.2.5,Win32,60,,m,1,0.59268,,,,,,,,0.59268,1,,,,,,49,WORD,"ID",16,survey,SURVEY,m,,,,,,0.01171875,-0.376302083,0,0,0,,0,144,144,108,1,,
,,,,,,,,,,,,,,,,,,5b47e287bc06c90001f8b67d,2020-11-27_15h06.16.656,lexical_decision_task_MP_exp2,2020.2.5,Win32,60,,m,1,0.518335,,,,,,,,0.518335,1,,,,,,173,WORD,UN,16,turkey,SHOWER,m,,,,,,0.01171875,-0.376302083,0,0,0,,0,145,145,232,1,,
,,,,,,,,,,,,,,,,,,5b47e287bc06c90001f8b67d,2020-11-27_15h06.16.656,lexical_decision_task_MP_exp2,2020.2.5,Win32,60,,m,1,0.56544,,,,,,,,0.56544,1,,,,,,160,WORD,UN,16,pastor,VIOLET,m,,,,,,0.01171875,-0.376302083,0,0,0,,0,146,146,219,1,,
,,,,,,,,,,,,,,,,,,5b47e287bc06c90001f8b67d,2020-11-27_15h06.16.656,lexical_decision_task_MP_exp2,2020.2.5,Win32,60,,z,1,0.64858,,,,,,,,0.64858,1,,,,,,270,NW,"ID",16,wrimsy,WRIMSY,z,,,,,,0.01171875,-0.376302083,0,0,0,,0,147,147,329,1,,
,,,,,,,,,,,,,,,,,,5b47e287bc06c90001f8b67d,2020-11-27_15h06.16.656,lexical_decision_task_MP_exp2,2020.2.5,Win32,60,,m,1,0.732155,,,,,,,,0.732155,1,,,,,,124,WORD,UN,16,nickel,BLOUSE,m,,,,,,0.01171875,-0.376302083,0,0,0,,0,148,148,183,1,,
,,,,,,,,,,,,,,,,,,5b47e287bc06c90001f8b67d,2020-11-27_15h06.16.656,lexical_decision_task_MP_exp2,2020.2.5,Win32,60,,z,1,0.58268,,,,,,,,0.58268,1,,,,,,337,NW,UN,33,wreash,REJOLS,z,,,,,,0.01171875,-0.376302083,0,0,0,,0,149,149,396,1,,
,,,,,,,,,,,,,,,,,,5b47e287bc06c90001f8b67d,2020-11-27_15h06.16.656,lexical_decision_task_MP_exp2,2020.2.5,Win32,60,,z,1,0.71396,,,,,,,,0.71396,1,,,,,,257,NW,"ID",16,veniod,VENIOD,z,,,,,,0.01171875,-0.376302083,0,0,0,,0,150,150,316,1,,
,,,,,,,,,,,,,,,,,,5b47e287bc06c90001f8b67d,2020-11-27_15h06.16.656,lexical_decision_task_MP_exp2,2020.2.5,Win32,60,,m,1,0.69167,,,,,,,,0.69167,1,,,,,,139,WORD,UN,16,prince,DEBRIS,m,,,,,,0.01171875,-0.376302083,0,0,0,,0,151,151,198,1,,
,,,,,,,,,,,,,,,,,,5b47e287bc06c90001f8b67d,2020-11-27_15h06.16.656,lexical_decision_task_MP_exp2,2020.2.5,Win32,60,,m,1,0.631825,,,,,,,,0.631825,1,,,,,,185,WORD,"ID",33,bother,BOTHER,m,,,,,,0.01171875,-0.376302083,0,0,0,,0,152,152,4,1,,
,,,,,,,,,,,,,,,,,,5b47e287bc06c90001f8b67d,2020-11-27_15h06.16.656,lexical_decision_task_MP_exp2,2020.2.5,Win32,60,,z,1,0.747455,,,,,,,,0.747455,1,,,,,,322,NW,UN,33,rosail,SLANCH,z,,,,,,0.01171875,-0.376302083,0,0,0,,0,153,153,381,1,,
,,,,,,,,,,,,,,,,,,5b47e287bc06c90001f8b67d,2020-11-27_15h06.16.656,lexical_decision_task_MP_exp2,2020.2.5,Win32,60,,m,1,0.702345,,,,,,,,0.702345,1,,,,,,102,WORD,UN,33,bounce,DIRECT,m,,,,,,0.01171875,-0.376302083,0,0,0,,0,154,154,161,1,,
,,,,,,,,,,,,,,,,,,5b47e287bc06c90001f8b67d,2020-11-27_15h06.16.656,lexical_decision_task_MP_exp2,2020.2.5,Win32,60,,m,0,1.1355,,,,,,,,1.1355,0,,,,,,345,NW,UN,33,saudic,ABSEND,z,,,,,,0.01171875,-0.376302083,0,0,0,,0,155,155,404,1,,
,,,,,,,,,,,,,,,,,,5b47e287bc06c90001f8b67d,2020-11-27_15h06.16.656,lexical_decision_task_MP_exp2,2020.2.5,Win32,60,,z,1,0.64529,,,,,,,,0.64529,1,,,,,,317,NW,UN,33,reagly,WORBAL,z,,,,,,0.01171875,-0.376302083,0,0,0,,0,156,156,376,1,,
,,,,,,,,,,,,,,,,,,5b47e287bc06c90001f8b67d,2020-11-27_15h06.16.656,lexical_decision_task_MP_exp2,2020.2.5,Win32,60,,m,1,0.62236,,,,,,,,0.62236,1,,,,,,240,WORD,"ID",33,forest,FOREST,m,,,,,,0.01171875,-0.376302083,0,0,0,,0,157,157,59,1,,
,,,,,,,,,,,,,,,,,,5b47e287bc06c90001f8b67d,2020-11-27_15h06.16.656,lexical_decision_task_MP_exp2,2020.2.5,Win32,60,,m,1,0.699305,,,,,,,,0.699305,1,,,,,,222,WORD,"ID",33,hinder,HINDER,m,,,,,,0.01171875,-0.376302083,0,0,0,,0,158,158,41,1,,
,,,,,,,,,,,,,,,,,,5b47e287bc06c90001f8b67d,2020-11-27_15h06.16.656,lexical_decision_task_MP_exp2,2020.2.5,Win32,60,,z,1,0.70943,,,,,,,,0.70943,1,,,,,,407,NW,UN,16,hurnia,SUIVER,z,,,,,,0.01171875,-0.376302083,0,0,0,,0,159,159,466,1,,
,,,,,,,,,,,,,,,,,,5b47e287bc06c90001f8b67d,2020-11-27_15h06.16.656,lexical_decision_task_MP_exp2,2020.2.5,Win32,60,,z,1,0.72669,,,,,,,,0.72669,1,,,,,,281,NW,"ID",16,melaty,MELATY,z,,,,,,0.01171875,-0.376302083,0,0,0,,0,160,160,340,1,,
,,,,,,,,,,,,,,,,,,5b47e287bc06c90001f8b67d,2020-11-27_15h06.16.656,lexical_decision_task_MP_exp2,2020.2.5,Win32,60,,z,1,0.682235,,,,,,,,0.682235,1,,,,,,358,NW,UN,33,fonver,FLEACK,z,,,,,,0.01171875,-0.376302083,0,0,0,,0,161,161,417,1,,
,,,,,,,,,,,,,,,,,,5b47e287bc06c90001f8b67d,2020-11-27_15h06.16.656,lexical_decision_task_MP_exp2,2020.2.5,Win32,60,,m,1,0.66529,,,,,,,,0.66529,1,,,,,,220,WORD,"ID",33,voyage,VOYAGE,m,,,,,,0.01171875,-0.376302083,0,0,0,,0,162,162,39,1,,
,,,,,,,,,,,,,,,,,,5b47e287bc06c90001f8b67d,2020-11-27_15h06.16.656,lexical_decision_task_MP_exp2,2020.2.5,Win32,60,,z,1,0.614865,,,,,,,,0.614865,1,,,,,,330,NW,UN,33,gilfew,KENSOM,z,,,,,,0.01171875,-0.376302083,0,0,0,,0,163,163,389,1,,
,,,,,,,,,,,,,,,,,,5b47e287bc06c90001f8b67d,2020-11-27_15h06.16.656,lexical_decision_task_MP_exp2,2020.2.5,Win32,60,,z,1,0.681945,,,,,,,,0.681945,1,,,,,,395,NW,UN,16,flengy,COLURY,z,,,,,,0.01171875,-0.376302083,0,0,0,,0,164,164,454,1,,
,,,,,,,,,,,,,,,,,,5b47e287bc06c90001f8b67d,2020-11-27_15h06.16.656,lexical_decision_task_MP_exp2,2020.2.5,Win32,60,,z,1,0.559635,,,,,,,,0.559635,1,,,,,,241,NW,"ID",16,smenco,SMENCO,z,,,,,,0.01171875,-0.376302083,0,0,0,,0,165,165,300,1,,
,,,,,,,,,,,,,,,,,,5b47e287bc06c90001f8b67d,2020-11-27_15h06.16.656,lexical_decision_task_MP_exp2,2020.2.5,Win32,60,,z,1,0.55285,,,,,,,,0.55285,1,,,,,,408,NW,UN,16,elopia,HURNIA,z,,,,,,0.01171875,-0.376302083,0,0,0,,0,166,166,467,1,,
,,,,,,,,,,,,,,,,,,5b47e287bc06c90001f8b67d,2020-11-27_15h06.16.656,lexical_decision_task_MP_exp2,2020.2.5,Win32,60,,z,1,0.537875,,,,,,,,0.537875,1,,,,,,311,NW,UN,33,nerawl,SPROLY,z,,,,,,0.01171875,-0.376302083,0,0,0,,0,167,167,370,1,,
,,,,,,,,,,,,,,,,,,5b47e287bc06c90001f8b67d,2020-11-27_15h06.16.656,lexical_decision_task_MP_exp2,2020.2.5,Win32,60,,m,1,0.62004,,,,,,,,0.62004,1,,,,,,229,WORD,"ID",33,mother,MOTHER,m,,,,,,0.01171875,-0.376302083,0,0,0,,0,168,168,48,1,,
,,,,,,,,,,,,,,,,,,5b47e287bc06c90001f8b67d,2020-11-27_15h06.16.656,lexical_decision_task_MP_exp2,2020.2.5,Win32,60,,z,1,0.56617,,,,,,,,0.56617,1,,,,,,255,NW,"ID",16,apight,APIGHT,z,,,,,,0.01171875,-0.376302083,0,0,0,,0,169,169,314,1,,
,,,,,,,,,,,,,,,,,,5b47e287bc06c90001f8b67d,2020-11-27_15h06.16.656,lexical_decision_task_MP_exp2,2020.2.5,Win32,60,,m,1,0.616705,,,,,,,,0.616705,1,,,,,,112,WORD,UN,33,chorus,BREATH,m,,,,,,0.01171875,-0.376302083,0,0,0,,0,170,170,171,1,,
,,,,,,,,,,,,,,,,,,5b47e287bc06c90001f8b67d,2020-11-27_15h06.16.656,lexical_decision_task_MP_exp2,2020.2.5,Win32,60,,z,1,0.539525,,,,,,,,0.539525,1,,,,,,414,NW,UN,16,higsta,SERBOL,z,,,,,,0.01171875,-0.376302083,0,0,0,,0,171,171,473,1,,
,,,,,,,,,,,,,,,,,,5b47e287bc06c90001f8b67d,2020-11-27_15h06.16.656,lexical_decision_task_MP_exp2,2020.2.5,Win32,60,,m,1,0.724025,,,,,,,,0.724025,1,,,,,,179,WORD,UN,16,silent,BASKET,m,,,,,,0.01171875,-0.376302083,0,0,0,,0,172,172,238,1,,
,,,,,,,,,,,,,,,,,,5b47e287bc06c90001f8b67d,2020-11-27_15h06.16.656,lexical_decision_task_MP_exp2,2020.2.5,Win32,60,,m,1,0.755945,,,,,,,,0.755945,1,,,,,,107,WORD,UN,33,reckon,SLOGAN,m,,,,,,0.01171875,-0.376302083,0,0,0,,0,173,173,166,1,,
,,,,,,,,,,,,,,,,,,5b47e287bc06c90001f8b67d,2020-11-27_15h06.16.656,lexical_decision_task_MP_exp2,2020.2.5,Win32,60,,m,1,0.700475,,,,,,,,0.700475,1,,,,,,233,WORD,"ID",33,nature,NATURE,m,,,,,,0.01171875,-0.376302083,0,0,0,,0,174,174,52,1,,
,,,,,,,,,,,,,,,,,,5b47e287bc06c90001f8b67d,2020-11-27_15h06.16.656,lexical_decision_task_MP_exp2,2020.2.5,Win32,60,,m,1,0.77039,,,,,,,,0.77039,1,,,,,,111,WORD,UN,33,breath,INDUCE,m,,,,,,0.01171875,-0.376302083,0,0,0,,0,175,175,170,1,,
,,,,,,,,,,,,,,,,,,5b47e287bc06c90001f8b67d,2020-11-27_15h06.16.656,lexical_decision_task_MP_exp2,2020.2.5,Win32,60,,z,1,0.683475,,,,,,,,0.683475,1,,,,,,301,NW,UN,33,miluer,FAINCH,z,,,,,,0.01171875,-0.376302083,0,0,0,,0,176,176,360,1,,
,,,,,,,,,,,,,,,,,,5b47e287bc06c90001f8b67d,2020-11-27_15h06.16.656,lexical_decision_task_MP_exp2,2020.2.5,Win32,60,,m,1,0.642245,,,,,,,,0.642245,1,,,,,,79,WORD,UN,33,family,THEORY,m,,,,,,0.01171875,-0.376302083,0,0,0,,0,177,177,138,1,,
,,,,,,,,,,,,,,,,,,5b47e287bc06c90001f8b67d,2020-11-27_15h06.16.656,lexical_decision_task_MP_exp2,2020.2.5,Win32,60,,z,1,0.95867,,,,,,,,0.95867,1,,,,,,285,NW,"ID",16,prudge,PRUDGE,z,,,,,,0.01171875,-0.376302083,0,0,0,,0,178,178,344,1,,
,,,,,,,,,,,,,,,,,,5b47e287bc06c90001f8b67d,2020-11-27_15h06.16.656,lexical_decision_task_MP_exp2,2020.2.5,Win32,60,,z,1,0.597765,,,,,,,,0.597765,1,,,,,,405,NW,UN,16,nouply,FLUMNI,z,,,,,,0.01171875,-0.376302083,0,0,0,,0,179,179,464,1,,
,,,,,,,,,,,,,,,,,,5b47e287bc06c90001f8b67d,2020-11-27_15h06.16.656,lexical_decision_task_MP_exp2,2020.2.5,Win32,60,,m,1,0.80472,,,,,,,,0.80472,1,,,,,,166,WORD,UN,16,design,STARCH,m,,,,,,0.01171875,-0.376302083,0,0,0,,0,180,180,225,1,,
,,,,,,,,,,,,,,,,,,5b47e287bc06c90001f8b67d,2020-11-27_15h06.16.656,lexical_decision_task_MP_exp2,2020.2.5,Win32,60,,m,1,0.615105,,,,,,,,0.615105,1,,,,,,217,WORD,"ID",33,liquor,LIQUOR,m,,,,,,0.01171875,-0.376302083,0,0,0,,0,181,181,36,1,,
,,,,,,,,,,,,,,,,,,5b47e287bc06c90001f8b67d,2020-11-27_15h06.16.656,lexical_decision_task_MP_exp2,2020.2.5,Win32,60,,m,1,0.532655,,,,,,,,0.532655,1,,,,,,73,WORD,UN,33,plaque,SOURCE,m,,,,,,0.01171875,-0.376302083,0,0,0,,0,182,182,132,1,,
,,,,,,,,,,,,,,,,,,5b47e287bc06c90001f8b67d,2020-11-27_15h06.16.656,lexical_decision_task_MP_exp2,2020.2.5,Win32,60,,m,1,0.540835,,,,,,,,0.540835,1,,,,,,39,WORD,"ID",16,insect,INSECT,m,,,,,,0.01171875,-0.376302083,0,0,0,,0,183,183,98,1,,
,,,,,,,,,,,,,,,,,,5b47e287bc06c90001f8b67d,2020-11-27_15h06.16.656,lexical_decision_task_MP_exp2,2020.2.5,Win32,60,,m,1,0.58626,,,,,,,,0.58626,1,,,,,,203,WORD,"ID",33,phrase,PHRASE,m,,,,,,0.01171875,-0.376302083,0,0,0,,0,184,184,22,1,,
,,,,,,,,,,,,,,,,,,5b47e287bc06c90001f8b67d,2020-11-27_15h06.16.656,lexical_decision_task_MP_exp2,2020.2.5,Win32,60,,m,1,0.56478,,,,,,,,0.56478,1,,,,,,200,WORD,"ID",33,beacon,BEACON,m,,,,,,0.01171875,-0.376302083,0,0,0,,0,185,185,19,1,,
,,,,,,,,,,,,,,,,,,5b47e287bc06c90001f8b67d,2020-11-27_15h06.16.656,lexical_decision_task_MP_exp2,2020.2.5,Win32,60,,z,1,0.539375,,,,,,,,0.539375,1,,,,,,334,NW,UN,33,desion,WATMEG,z,,,,,,0.01171875,-0.376302083,0,0,0,,0,186,186,393,1,,
,,,,,,,,,,,,,,,,,,5b47e287bc06c90001f8b67d,2020-11-27_15h06.16.656,lexical_decision_task_MP_exp2,2020.2.5,Win32,60,,z,1,0.58197,,,,,,,,0.58197,1,,,,,,423,NW,"ID",33,streld,STRELD,z,,,,,,0.01171875,-0.376302083,0,0,0,,0,187,187,242,1,,
,,,,,,,,,,,,,,,,,,5b47e287bc06c90001f8b67d,2020-11-27_15h06.16.656,lexical_decision_task_MP_exp2,2020.2.5,Win32,60,,m,1,0.768805,,,,,,,,0.768805,1,,,,,,22,WORD,"ID",16,jockey,JOCKEY,m,,,,,,0.01171875,-0.376302083,0,0,0,,0,188,188,81,1,,
,,,,,,,,,,,,,,,,,,5b47e287bc06c90001f8b67d,2020-11-27_15h06.16.656,lexical_decision_task_MP_exp2,2020.2.5,Win32,60,,m,1,0.54996,,,,,,,,0.54996,1,,,,,,115,WORD,UN,33,tumble,GUITAR,m,,,,,,0.01171875,-0.376302083,0,0,0,,0,189,189,174,1,,
,,,,,,,,,,,,,,,,,,5b47e287bc06c90001f8b67d,2020-11-27_15h06.16.656,lexical_decision_task_MP_exp2,2020.2.5,Win32,60,,z,1,0.67274,,,,,,,,0.67274,1,,,,,,374,NW,UN,16,yorque,SLIANT,z,,,,,,0.01171875,-0.376302083,0,0,0,,0,190,190,433,1,,
,,,,,,,,,,,,,,,,,,5b47e287bc06c90001f8b67d,2020-11-27_15h06.16.656,lexical_decision_task_MP_exp2,2020.2.5,Win32,60,,z,1,0.598455,,,,,,,,0.598455,1,,,,,,465,NW,"ID",33,whivex,WHIVEX,z,,,,,,0.01171875,-0.376302083,0,0,0,,0,191,191,284,1,,
,,,,,,,,,,,,,,,,,,5b47e287bc06c90001f8b67d,2020-11-27_15h06.16.656,lexical_decision_task_MP_exp2,2020.2.5,Win32,60,,z,1,0.697215,,,,,,,,0.697215,1,,,,,,252,NW,"ID",16,stapod,STAPOD,z,,,,,,0.01171875,-0.376302083,0,0,0,,0,192,192,311,1,,
,,,,,,,,,,,,,,,,,,5b47e287bc06c90001f8b67d,2020-11-27_15h06.16.656,lexical_decision_task_MP_exp2,2020.2.5,Win32,60,,m,0,0.617835,,,,,,,,0.617835,0,,,,,,425,NW,"ID",33,frudge,FRUDGE,z,,,,,,0.01171875,-0.376302083,0,0,0,,0,193,193,244,1,,
,,,,,,,,,,,,,,,,,,5b47e287bc06c90001f8b67d,2020-11-27_15h06.16.656,lexical_decision_task_MP_exp2,2020.2.5,Win32,60,,m,1,0.76895,,,,,,,,0.76895,1,,,,,,64,WORD,UN,33,symbol,THRONE,m,,,,,,0.01171875,-0.376302083,0,0,0,,0,194,194,123,1,,
,,,,,,,,,,,,,,,,,,5b47e287bc06c90001f8b67d,2020-11-27_15h06.16.656,lexical_decision_task_MP_exp2,2020.2.5,Win32,60,,m,1,0.64582,,,,,,,,0.64582,1,,,,,,25,WORD,"ID",16,domain,DOMAIN,m,,,,,,0.01171875,-0.376302083,0,0,0,,0,195,195,84,1,,
,,,,,,,,,,,,,,,,,,5b47e287bc06c90001f8b67d,2020-11-27_15h06.16.656,lexical_decision_task_MP_exp2,2020.2.5,Win32,60,,m,1,0.63099,,,,,,,,0.63099,1,,,,,,86,WORD,UN,33,filter,RODENT,m,,,,,,0.01171875,-0.376302083,0,0,0,,0,196,196,145,1,,
,,,,,,,,,,,,,,,,,,5b47e287bc06c90001f8b67d,2020-11-27_15h06.16.656,lexical_decision_task_MP_exp2,2020.2.5,Win32,60,,z,1,0.568855,,,,,,,,0.568855,1,,,,,,375,NW,UN,16,iguare,YORQUE,z,,,,,,0.01171875,-0.376302083,0,0,0,,0,197,197,434,1,,
,,,,,,,,,,,,,,,,,,5b47e287bc06c90001f8b67d,2020-11-27_15h06.16.656,lexical_decision_task_MP_exp2,2020.2.5,Win32,60,,m,1,0.774465,,,,,,,,0.774465,1,,,,,,127,WORD,UN,16,senior,CASTLE,m,,,,,,0.01171875,-0.376302083,0,0,0,,0,198,198,186,1,,
,,,,,,,,,,,,,,,,,,5b47e287bc06c90001f8b67d,2020-11-27_15h06.16.656,lexical_decision_task_MP_exp2,2020.2.5,Win32,60,,z,1,0.64921,,,,,,,,0.64921,1,,,,,,313,NW,UN,33,sprine,PAURSE,z,,,,,,0.01171875,-0.376302083,0,0,0,,0,199,199,372,1,,
,,,,,,,,,,,,,,,,,,5b47e287bc06c90001f8b67d,2020-11-27_15h06.16.656,lexical_decision_task_MP_exp2,2020.2.5,Win32,60,,z,1,0.56009,,,,,,,,0.56009,1,,,,,,421,NW,"ID",33,knisma,KNISMA,z,,,,,,0.01171875,-0.376302083,0,0,0,,0,200,200,240,1,,
,,,,,,,,,,,,,,,,,,5b47e287bc06c90001f8b67d,2020-11-27_15h06.16.656,lexical_decision_task_MP_exp2,2020.2.5,Win32,60,,z,1,0.78101,,,,,,,,0.78101,1,,,,,,392,NW,UN,16,ganous,ROUNCY,z,,,,,,0.01171875,-0.376302083,0,0,0,,0,201,201,451,1,,
,,,,,,,,,,,,,,,,,,5b47e287bc06c90001f8b67d,2020-11-27_15h06.16.656,lexical_decision_task_MP_exp2,2020.2.5,Win32,60,,z,1,0.665925,,,,,,,,0.665925,1,,,,,,273,NW,"ID",16,sortel,SORTEL,z,,,,,,0.01171875,-0.376302083,0,0,0,,0,202,202,332,1,,
,,,,,,,,,,,,,,,,,,5b47e287bc06c90001f8b67d,2020-11-27_15h06.16.656,lexical_decision_task_MP_exp2,2020.2.5,Win32,60,,z,1,0.747845,,,,,,,,0.747845,1,,,,,,480,NW,"ID",33,robuly,ROBULY,z,,,,,,0.01171875,-0.376302083,0,0,0,,0,203,203,299,1,,
,,,,,,,,,,,,,,,,,,5b47e287bc06c90001f8b67d,2020-11-27_15h06.16.656,lexical_decision_task_MP_exp2,2020.2.5,Win32,60,,m,1,0.757925,,,,,,,,0.757925,1,,,,,,161,WORD,UN,16,candle,PASTOR,m,,,,,,0.01171875,-0.376302083,0,0,0,,0,204,204,220,1,,
,,,,,,,,,,,,,,,,,,5b47e287bc06c90001f8b67d,2020-11-27_15h06.16.656,lexical_decision_task_MP_exp2,2020.2.5,Win32,60,,z,1,0.75773,,,,,,,,0.75773,1,,,,,,350,NW,UN,33,tiesch,NAGURS,z,,,,,,0.01171875,-0.376302083,0,0,0,,0,205,205,409,1,,
,,,,,,,,,,,,,,,,,,5b47e287bc06c90001f8b67d,2020-11-27_15h06.16.656,lexical_decision_task_MP_exp2,2020.2.5,Win32,60,,m,1,0.765565,,,,,,,,0.765565,1,,,,,,45,WORD,"ID",16,clergy,CLERGY,m,,,,,,0.01171875,-0.376302083,0,0,0,,0,206,206,104,1,,
,,,,,,,,,,,,,,,,,,5b47e287bc06c90001f8b67d,2020-11-27_15h06.16.656,lexical_decision_task_MP_exp2,2020.2.5,Win32,60,,m,1,0.737535,,,,,,,,0.737535,1,,,,,,221,WORD,"ID",33,mascot,MASCOT,m,,,,,,0.01171875,-0.376302083,0,0,0,,0,207,207,40,1,,
,,,,,,,,,,,,,,,,,,5b47e287bc06c90001f8b67d,2020-11-27_15h06.16.656,lexical_decision_task_MP_exp2,2020.2.5,Win32,60,,m,1,0.61975,,,,,,,,0.61975,1,,,,,,197,WORD,"ID",33,stream,STREAM,m,,,,,,0.01171875,-0.376302083,0,0,0,,0,208,208,16,1,,
,,,,,,,,,,,,,,,,,,5b47e287bc06c90001f8b67d,2020-11-27_15h06.16.656,lexical_decision_task_MP_exp2,2020.2.5,Win32,60,,m,1,0.67196,,,,,,,,0.67196,1,,,,,,4,WORD,"ID",16,trench,TRENCH,m,,,,,,0.01171875,-0.376302083,0,0,0,,0,209,209,63,1,,
,,,,,,,,,,,,,,,,,,5b47e287bc06c90001f8b67d,2020-11-27_15h06.16.656,lexical_decision_task_MP_exp2,2020.2.5,Win32,60,,z,1,0.565165,,,,,,,,0.565165,1,,,,,,459,NW,"ID",33,bafent,BAFENT,z,,,,,,0.01171875,-0.376302083,0,0,0,,0,210,210,278,1,,
,,,,,,,,,,,,,,,,,,5b47e287bc06c90001f8b67d,2020-11-27_15h06.16.656,lexical_decision_task_MP_exp2,2020.2.5,Win32,60,,m,1,0.601435,,,,,,,,0.601435,1,,,,,,80,WORD,UN,33,friend,FAMILY,m,,,,,,0.01171875,-0.376302083,0,0,0,,0,211,211,139,1,,
,,,,,,,,,,,,,,,,,,5b47e287bc06c90001f8b67d,2020-11-27_15h06.16.656,lexical_decision_task_MP_exp2,2020.2.5,Win32,60,,z,1,0.49957,,,,,,,,0.49957,1,,,,,,269,NW,"ID",16,orchet,ORCHET,z,,,,,,0.01171875,-0.376302083,0,0,0,,0,212,212,328,1,,
,,,,,,,,,,,,,,,,,,5b47e287bc06c90001f8b67d,2020-11-27_15h06.16.656,lexical_decision_task_MP_exp2,2020.2.5,Win32,60,,z,1,0.54214,,,,,,,,0.54214,1,,,,,,247,NW,"ID",16,blarge,BLARGE,z,,,,,,0.01171875,-0.376302083,0,0,0,,0,213,213,306,1,,
,,,,,,,,,,,,,,,,,,5b47e287bc06c90001f8b67d,2020-11-27_15h06.16.656,lexical_decision_task_MP_exp2,2020.2.5,Win32,60,,m,1,0.72259,,,,,,,,0.72259,1,,,,,,63,WORD,UN,33,throne,LAUNCH,m,,,,,,0.01171875,-0.376302083,0,0,0,,0,214,214,122,1,,
,,,,,,,,,,,,,,,,,,5b47e287bc06c90001f8b67d,2020-11-27_15h06.16.656,lexical_decision_task_MP_exp2,2020.2.5,Win32,60,,z,1,0.714625,,,,,,,,0.714625,1,,,,,,404,NW,UN,16,flumni,CLUIRM,z,,,,,,0.01171875,-0.376302083,0,0,0,,0,215,215,463,1,,
,,,,,,,,,,,,,,,,,,5b47e287bc06c90001f8b67d,2020-11-27_15h06.16.656,lexical_decision_task_MP_exp2,2020.2.5,Win32,60,,m,1,0.613745,,,,,,,,0.613745,1,,,,,,202,WORD,"ID",33,factor,FACTOR,m,,,,,,0.01171875,-0.376302083,0,0,0,,0,216,216,21,1,,
,,,,,,,,,,,,,,,,,,5b47e287bc06c90001f8b67d,2020-11-27_15h06.16.656,lexical_decision_task_MP_exp2,2020.2.5,Win32,60,,m,1,0.600275,,,,,,,,0.600275,1,,,,,,133,WORD,UN,16,staple,CHROME,m,,,,,,0.01171875,-0.376302083,0,0,0,,0,217,217,192,1,,
,,,,,,,,,,,,,,,,,,5b47e287bc06c90001f8b67d,2020-11-27_15h06.16.656,lexical_decision_task_MP_exp2,2020.2.5,Win32,60,,m,1,0.62547,,,,,,,,0.62547,1,,,,,,90,WORD,UN,33,expand,RELISH,m,,,,,,0.01171875,-0.376302083,0,0,0,,0,218,218,149,1,,
,,,,,,,,,,,,,,,,,,5b47e287bc06c90001f8b67d,2020-11-27_15h06.16.656,lexical_decision_task_MP_exp2,2020.2.5,Win32,60,,m,1,0.566375,,,,,,,,0.566375,1,,,,,,132,WORD,UN,16,orphan,STRONG,m,,,,,,0.01171875,-0.376302083,0,0,0,,0,219,219,191,1,,
,,,,,,,,,,,,,,,,,,5b47e287bc06c90001f8b67d,2020-11-27_15h06.16.656,lexical_decision_task_MP_exp2,2020.2.5,Win32,60,,m,1,0.494275,,,,,,,,0.494275,1,,,,,,186,WORD,"ID",33,portal,PORTAL,m,,,,,,0.01171875,-0.376302083,0,0,0,,0,220,220,5,1,,
,,,,,,,,,,,,,,,,,,5b47e287bc06c90001f8b67d,2020-11-27_15h06.16.656,lexical_decision_task_MP_exp2,2020.2.5,Win32,60,,m,0,0.50963,,,,,,,,0.50963,0,,,,,,316,NW,UN,33,worbal,SCREGM,z,,,,,,0.01171875,-0.376302083,0,0,0,,0,221,221,375,1,,
,,,,,,,,,,,,,,,,,,5b47e287bc06c90001f8b67d,2020-11-27_15h06.16.656,lexical_decision_task_MP_exp2,2020.2.5,Win32,60,,z,1,0.811865,,,,,,,,0.811865,1,,,,,,354,NW,UN,33,zingly,VIRLEX,z,,,,,,0.01171875,-0.376302083,0,0,0,,0,222,222,413,1,,
,,,,,,,,,,,,,,,,,,5b47e287bc06c90001f8b67d,2020-11-27_15h06.16.656,lexical_decision_task_MP_exp2,2020.2.5,Win32,60,,z,1,0.63856,,,,,,,,0.63856,1,,,,,,287,NW,"ID",16,nymbel,NYMBEL,z,,,,,,0.01171875,-0.376302083,0,0,0,,0,223,223,346,1,,
,,,,,,,,,,,,,,,,,,5b47e287bc06c90001f8b67d,2020-11-27_15h06.16.656,lexical_decision_task_MP_exp2,2020.2.5,Win32,60,,z,1,0.642935,,,,,,,,0.642935,1,,,,,,254,NW,"ID",16,varosh,VAROSH,z,,,,,,0.01171875,-0.376302083,0,0,0,,0,224,224,313,1,,
,,,,,,,,,,,,,,,,,,5b47e287bc06c90001f8b67d,2020-11-27_15h06.16.656,lexical_decision_task_MP_exp2,2020.2.5,Win32,60,,m,1,0.633945,,,,,,,,0.633945,1,,,,,,209,WORD,"ID",33,search,SEARCH,m,,,,,,0.01171875,-0.376302083,0,0,0,,0,225,225,28,1,,
,,,,,,,,,,,,,,,,,,5b47e287bc06c90001f8b67d,2020-11-27_15h06.16.656,lexical_decision_task_MP_exp2,2020.2.5,Win32,60,,m,1,0.5954,,,,,,,,0.5954,1,,,,,,77,WORD,UN,33,column,RACKET,m,,,,,,0.01171875,-0.376302083,0,0,0,,0,226,226,136,1,,
,,,,,,,,,,,,,,,,,,5b47e287bc06c90001f8b67d,2020-11-27_15h06.16.656,lexical_decision_task_MP_exp2,2020.2.5,Win32,60,,m,1,0.5719,,,,,,,,0.5719,1,,,,,,231,WORD,"ID",33,export,EXPORT,m,,,,,,0.01171875,-0.376302083,0,0,0,,0,227,227,50,1,,
,,,,,,,,,,,,,,,,,,5b47e287bc06c90001f8b67d,2020-11-27_15h06.16.656,lexical_decision_task_MP_exp2,2020.2.5,Win32,60,,m,1,0.59079,,,,,,,,0.59079,1,,,,,,28,WORD,"ID",16,comedy,COMEDY,m,,,,,,0.01171875,-0.376302083,0,0,0,,0,228,228,87,1,,
,,,,,,,,,,,,,,,,,,5b47e287bc06c90001f8b67d,2020-11-27_15h06.16.656,lexical_decision_task_MP_exp2,2020.2.5,Win32,60,,z,1,0.52369,,,,,,,,0.52369,1,,,,,,278,NW,"ID",16,unighs,UNIGHS,z,,,,,,0.01171875,-0.376302083,0,0,0,,0,229,229,337,1,,
,,,,,,,,,,,,,,,,,,5b47e287bc06c90001f8b67d,2020-11-27_15h06.16.656,lexical_decision_task_MP_exp2,2020.2.5,Win32,60,,m,1,0.564725,,,,,,,,0.564725,1,,,,,,238,WORD,"ID",33,flower,FLOWER,m,,,,,,0.01171875,-0.376302083,0,0,0,,0,230,230,57,1,,
,,,,,,,,,,,,,,,,,,5b47e287bc06c90001f8b67d,2020-11-27_15h06.16.656,lexical_decision_task_MP_exp2,2020.2.5,Win32,60,,z,1,0.56075,,,,,,,,0.56075,1,,,,,,359,NW,UN,33,desory,FONVER,z,,,,,,0.01171875,-0.376302083,0,0,0,,0,231,231,418,1,,
,,,,,,,,,,,,,,,,,,5b47e287bc06c90001f8b67d,2020-11-27_15h06.16.656,lexical_decision_task_MP_exp2,2020.2.5,Win32,60,,z,0,0.53746,,,,,,,,0.53746,0,,,,,,16,WORD,"ID",16,faucet,FAUCET,m,,,,,,0.01171875,-0.376302083,0,0,0,,0,232,232,75,1,,
,,,,,,,,,,,,,,,,,,5b47e287bc06c90001f8b67d,2020-11-27_15h06.16.656,lexical_decision_task_MP_exp2,2020.2.5,Win32,60,,z,1,0.61912,,,,,,,,0.61912,1,,,,,,471,NW,"ID",33,nobest,NOBEST,z,,,,,,0.01171875,-0.376302083,0,0,0,,0,233,233,290,1,,
,,,,,,,,,,,,,,,,,,5b47e287bc06c90001f8b67d,2020-11-27_15h06.16.656,lexical_decision_task_MP_exp2,2020.2.5,Win32,60,,z,1,0.81048,,,,,,,,0.81048,1,,,,,,295,NW,"ID",16,gleath,GLEATH,z,,,,,,0.01171875,-0.376302083,0,0,0,,0,234,234,354,1,,
,,,,,,,,,,,,,,,,,,5b47e287bc06c90001f8b67d,2020-11-27_15h06.16.656,lexical_decision_task_MP_exp2,2020.2.5,Win32,60,,z,1,0.665145,,,,,,,,0.665145,1,,,,,,298,NW,"ID",16,piergy,PIERGY,z,,,,,,0.01171875,-0.376302083,0,0,0,,0,235,235,357,1,,
,,,,,,,,,,,,,,,,,,5b47e287bc06c90001f8b67d,2020-11-27_15h06.16.656,lexical_decision_task_MP_exp2,2020.2.5,Win32,60,,m,1,0.699375,,,,,,,,0.699375,1,,,,,,208,WORD,"ID",33,hockey,HOCKEY,m,,,,,,0.01171875,-0.376302083,0,0,0,,0,236,236,27,1,,
,,,,,,,,,,,,,,,,,,5b47e287bc06c90001f8b67d,2020-11-27_15h06.16.656,lexical_decision_task_MP_exp2,2020.2.5,Win32,60,,z,1,0.65409,,,,,,,,0.65409,1,,,,,,307,NW,UN,33,psetch,KIRAFE,z,,,,,,0.01171875,-0.376302083,0,0,0,,0,237,237,366,1,,
,,,,,,,,,,,,,,,,,,5b47e287bc06c90001f8b67d,2020-11-27_15h06.16.656,lexical_decision_task_MP_exp2,2020.2.5,Win32,60,,m,1,0.55552,,,,,,,,0.55552,1,,,,,,69,WORD,UN,33,square,PLENTY,m,,,,,,0.01171875,-0.376302083,0,0,0,,0,238,238,128,1,,
,,,,,,,,,,,,,,,,,,5b47e287bc06c90001f8b67d,2020-11-27_15h06.16.656,lexical_decision_task_MP_exp2,2020.2.5,Win32,60,,m,1,0.635235,,,,,,,,0.635235,1,,,,,,32,WORD,"ID",16,buckle,BUCKLE,m,,,,,,0.01171875,-0.376302083,0,0,0,,0,239,239,91,1,,
,,,,,,,,,,,,,,,,,,5b47e287bc06c90001f8b67d,2020-11-27_15h06.16.656,lexical_decision_task_MP_exp2,2020.2.5,Win32,60,,z,1,0.51599,,,,,,,,0.51599,1,,,,,,445,NW,"ID",33,minkel,MINKEL,z,,,,,,0.01171875,-0.376302083,0,0,0,,0,240,240,264,1,,
,,,,,,,,,,,,,,,,,,5b47e287bc06c90001f8b67d,2020-11-27_15h06.16.656,lexical_decision_task_MP_exp2,2020.2.5,Win32,60,,z,1,0.55214,,,,,,,,0.55214,1,,,,,,413,NW,UN,16,serbol,EQUATS,z,,,,,,0.01171875,-0.412760417,1,0,0,,0,241,241,472,1,,break_done_button
,,,,,,,,,,,,,,,,,,5b47e287bc06c90001f8b67d,2020-11-27_15h06.16.656,lexical_decision_task_MP_exp2,2020.2.5,Win32,60,,m,1,1.47914,,,,,,,,1.47914,1,,,,,,135,WORD,UN,16,bleach,IMPORT,m,,,,,,0.01171875,-0.412760417,0,0,0,,0,242,242,194,1,,
,,,,,,,,,,,,,,,,,,5b47e287bc06c90001f8b67d,2020-11-27_15h06.16.656,lexical_decision_task_MP_exp2,2020.2.5,Win32,60,,m,0,1.102215,,,,,,,,1.102215,0,,,,,,461,NW,"ID",33,justre,JUSTRE,z,,,,,,0.01171875,-0.412760417,0,0,0,,0,243,243,280,1,,
,,,,,,,,,,,,,,,,,,5b47e287bc06c90001f8b67d,2020-11-27_15h06.16.656,lexical_decision_task_MP_exp2,2020.2.5,Win32,60,,m,1,0.703155,,,,,,,,0.703155,1,,,,,,121,WORD,UN,16,linger,THRIVE,m,,,,,,0.01171875,-0.412760417,0,0,0,,0,244,244,180,1,,
,,,,,,,,,,,,,,,,,,5b47e287bc06c90001f8b67d,2020-11-27_15h06.16.656,lexical_decision_task_MP_exp2,2020.2.5,Win32,60,,m,0,0.99882,,,,,,,,0.99882,0,,,,,,402,NW,UN,16,bruats,SYNTIC,z,,,,,,0.01171875,-0.412760417,0,0,0,,0,245,245,461,1,,
,,,,,,,,,,,,,,,,,,5b47e287bc06c90001f8b67d,2020-11-27_15h06.16.656,lexical_decision_task_MP_exp2,2020.2.5,Win32,60,,m,0,0.81808,,,,,,,,0.81808,0,,,,,,250,NW,"ID",16,milted,MILTED,z,,,,,,0.01171875,-0.412760417,0,0,0,,0,246,246,309,1,,
,,,,,,,,,,,,,,,,,,5b47e287bc06c90001f8b67d,2020-11-27_15h06.16.656,lexical_decision_task_MP_exp2,2020.2.5,Win32,60,,z,1,0.603665,,,,,,,,0.603665,1,,,,,,329,NW,UN,33,kensom,YARIKE,z,,,,,,0.01171875,-0.412760417,0,0,0,,0,247,247,388,1,,
,,,,,,,,,,,,,,,,,,5b47e287bc06c90001f8b67d,2020-11-27_15h06.16.656,lexical_decision_task_MP_exp2,2020.2.5,Win32,60,,z,1,0.640735,,,,,,,,0.640735,1,,,,,,320,NW,UN,33,miator,JOCKAL,z,,,,,,0.01171875,-0.412760417,0,0,0,,0,248,248,379,1,,
,,,,,,,,,,,,,,,,,,5b47e287bc06c90001f8b67d,2020-11-27_15h06.16.656,lexical_decision_task_MP_exp2,2020.2.5,Win32,60,,z,1,0.568555,,,,,,,,0.568555,1,,,,,,385,NW,UN,16,ancust,VEIGMA,z,,,,,,0.01171875,-0.412760417,0,0,0,,0,249,249,444,1,,
,,,,,,,,,,,,,,,,,,5b47e287bc06c90001f8b67d,2020-11-27_15h06.16.656,lexical_decision_task_MP_exp2,2020.2.5,Win32,60,,m,1,0.57073,,,,,,,,0.57073,1,,,,,,177,WORD,UN,16,inform,ADVENT,m,,,,,,0.01171875,-0.412760417,0,0,0,,0,250,250,236,1,,
,,,,,,,,,,,,,,,,,,5b47e287bc06c90001f8b67d,2020-11-27_15h06.16.656,lexical_decision_task_MP_exp2,2020.2.5,Win32,60,,m,1,0.88366,,,,,,,,0.88366,1,,,,,,68,WORD,UN,33,plenty,FUMBLE,m,,,,,,0.01171875,-0.412760417,0,0,0,,0,251,251,127,1,,
,,,,,,,,,,,,,,,,,,5b47e287bc06c90001f8b67d,2020-11-27_15h06.16.656,lexical_decision_task_MP_exp2,2020.2.5,Win32,60,,z,1,0.750645,,,,,,,,0.750645,1,,,,,,418,NW,UN,16,slount,SUIDLE,z,,,,,,0.01171875,-0.412760417,0,0,0,,0,252,252,477,1,,
,,,,,,,,,,,,,,,,,,5b47e287bc06c90001f8b67d,2020-11-27_15h06.16.656,lexical_decision_task_MP_exp2,2020.2.5,Win32,60,,z,1,0.656255,,,,,,,,0.656255,1,,,,,,380,NW,UN,16,huniek,CAVORY,z,,,,,,0.01171875,-0.412760417,0,0,0,,0,253,253,439,1,,
,,,,,,,,,,,,,,,,,,5b47e287bc06c90001f8b67d,2020-11-27_15h06.16.656,lexical_decision_task_MP_exp2,2020.2.5,Win32,60,,z,1,0.652635,,,,,,,,0.652635,1,,,,,,467,NW,"ID",33,gorbie,GORBIE,z,,,,,,0.01171875,-0.412760417,0,0,0,,0,254,254,286,1,,
,,,,,,,,,,,,,,,,,,5b47e287bc06c90001f8b67d,2020-11-27_15h06.16.656,lexical_decision_task_MP_exp2,2020.2.5,Win32,60,,z,0,0.205145,,,,,,,,0.205145,0,,,,,,52,WORD,"ID",16,impose,IMPOSE,m,,,,,,0.01171875,-0.412760417,0,0,0,,0,255,255,111,1,,
,,,,,,,,,,,,,,,,,,5b47e287bc06c90001f8b67d,2020-11-27_15h06.16.656,lexical_decision_task_MP_exp2,2020.2.5,Win32,60,,z,1,0.64226,,,,,,,,0.64226,1,,,,,,361,NW,UN,16,tireau,PAUCHE,z,,,,,,0.01171875,-0.412760417,0,0,0,,0,256,256,420,1,,
,,,,,,,,,,,,,,,,,,5b47e287bc06c90001f8b67d,2020-11-27_15h06.16.656,lexical_decision_task_MP_exp2,2020.2.5,Win32,60,,m,1,0.549985,,,,,,,,0.549985,1,,,,,,13,WORD,"ID",16,strive,STRIVE,m,,,,,,0.01171875,-0.412760417,0,0,0,,0,257,257,72,1,,
,,,,,,,,,,,,,,,,,,5b47e287bc06c90001f8b67d,2020-11-27_15h06.16.656,lexical_decision_task_MP_exp2,2020.2.5,Win32,60,,z,1,0.47481,,,,,,,,0.47481,1,,,,,,466,NW,"ID",33,hocite,HOCITE,z,,,,,,0.01171875,-0.412760417,0,0,0,,0,258,258,285,1,,
,,,,,,,,,,,,,,,,,,5b47e287bc06c90001f8b67d,2020-11-27_15h06.16.656,lexical_decision_task_MP_exp2,2020.2.5,Win32,60,,m,1,0.57289,,,,,,,,0.57289,1,,,,,,228,WORD,"ID",33,master,MASTER,m,,,,,,0.01171875,-0.412760417,0,0,0,,0,259,259,47,1,,
,,,,,,,,,,,,,,,,,,5b47e287bc06c90001f8b67d,2020-11-27_15h06.16.656,lexical_decision_task_MP_exp2,2020.2.5,Win32,60,,m,1,1.003605,,,,,,,,1.003605,1,,,,,,96,WORD,UN,33,client,IGNORE,m,,,,,,0.01171875,-0.412760417,0,0,0,,0,260,260,155,1,,
,,,,,,,,,,,,,,,,,,5b47e287bc06c90001f8b67d,2020-11-27_15h06.16.656,lexical_decision_task_MP_exp2,2020.2.5,Win32,60,,z,1,0.50435,,,,,,,,0.50435,1,,,,,,415,NW,UN,16,pathel,HIGSTA,z,,,,,,0.01171875,-0.412760417,0,0,0,,0,261,261,474,1,,
,,,,,,,,,,,,,,,,,,5b47e287bc06c90001f8b67d,2020-11-27_15h06.16.656,lexical_decision_task_MP_exp2,2020.2.5,Win32,60,,z,1,0.68388,,,,,,,,0.68388,1,,,,,,253,NW,"ID",16,resait,RESAIT,z,,,,,,0.01171875,-0.412760417,0,0,0,,0,262,262,312,1,,
,,,,,,,,,,,,,,,,,,5b47e287bc06c90001f8b67d,2020-11-27_15h06.16.656,lexical_decision_task_MP_exp2,2020.2.5,Win32,60,,m,1,0.549345,,,,,,,,0.549345,1,,,,,,109,WORD,UN,33,polite,WONDER,m,,,,,,0.01171875,-0.412760417,0,0,0,,0,263,263,168,1,,
,,,,,,,,,,,,,,,,,,5b47e287bc06c90001f8b67d,2020-11-27_15h06.16.656,lexical_decision_task_MP_exp2,2020.2.5,Win32,60,,m,1,0.580835,,,,,,,,0.580835,1,,,,,,159,WORD,UN,16,violet,DETAIL,m,,,,,,0.01171875,-0.412760417,0,0,0,,0,264,264,218,1,,
,,,,,,,,,,,,,,,,,,5b47e287bc06c90001f8b67d,2020-11-27_15h06.16.656,lexical_decision_task_MP_exp2,2020.2.5,Win32,60,,m,1,0.618705,,,,,,,,0.618705,1,,,,,,6,WORD,"ID",16,bundle,BUNDLE,m,,,,,,0.01171875,-0.412760417,0,0,0,,0,265,265,65,1,,
,,,,,,,,,,,,,,,,,,5b47e287bc06c90001f8b67d,2020-11-27_15h06.16.656,lexical_decision_task_MP_exp2,2020.2.5,Win32,60,,z,1,0.568285,,,,,,,,0.568285,1,,,,,,258,NW,"ID",16,poluth,POLUTH,z,,,,,,0.01171875,-0.412760417,0,0,0,,0,266,266,317,1,,
,,,,,,,,,,,,,,,,,,5b47e287bc06c90001f8b67d,2020-11-27_15h06.16.656,lexical_decision_task_MP_exp2,2020.2.5,Win32,60,,m,1,0.617345,,,,,,,,0.617345,1,,,,,,100,WORD,UN,33,wrench,CARBON,m,,,,,,0.01171875,-0.412760417,0,0,0,,0,267,267,159,1,,
,,,,,,,,,,,,,,,,,,5b47e287bc06c90001f8b67d,2020-11-27_15h06.16.656,lexical_decision_task_MP_exp2,2020.2.5,Win32,60,,m,1,0.563775,,,,,,,,0.563775,1,,,,,,103,WORD,UN,33,studio,BOUNCE,m,,,,,,0.01171875,-0.412760417,0,0,0,,0,268,268,162,1,,
,,,,,,,,,,,,,,,,,,5b47e287bc06c90001f8b67d,2020-11-27_15h06.16.656,lexical_decision_task_MP_exp2,2020.2.5,Win32,60,,m,1,0.627565,,,,,,,,0.627565,1,,,,,,82,WORD,UN,33,result,STIGMA,m,,,,,,0.01171875,-0.412760417,0,0,0,,0,269,269,141,1,,
,,,,,,,,,,,,,,,,,,5b47e287bc06c90001f8b67d,2020-11-27_15h06.16.656,lexical_decision_task_MP_exp2,2020.2.5,Win32,60,,m,1,0.63456,,,,,,,,0.63456,1,,,,,,99,WORD,UN,33,carbon,FLUENT,m,,,,,,0.01171875,-0.412760417,0,0,0,,0,270,270,158,1,,
,,,,,,,,,,,,,,,,,,5b47e287bc06c90001f8b67d,2020-11-27_15h06.16.656,lexical_decision_task_MP_exp2,2020.2.5,Win32,60,,z,1,0.65597,,,,,,,,0.65597,1,,,,,,410,NW,UN,16,orchin,TUNORY,z,,,,,,0.01171875,-0.412760417,0,0,0,,0,271,271,469,1,,
,,,,,,,,,,,,,,,,,,5b47e287bc06c90001f8b67d,2020-11-27_15h06.16.656,lexical_decision_task_MP_exp2,2020.2.5,Win32,60,,z,1,0.53252,,,,,,,,0.53252,1,,,,,,393,NW,UN,16,spaqux,GANOUS,z,,,,,,0.01171875,-0.412760417,0,0,0,,0,272,272,452,1,,
,,,,,,,,,,,,,,,,,,5b47e287bc06c90001f8b67d,2020-11-27_15h06.16.656,lexical_decision_task_MP_exp2,2020.2.5,Win32,60,,z,1,0.60248,,,,,,,,0.60248,1,,,,,,342,NW,UN,33,aimosy,RANDOW,z,,,,,,0.01171875,-0.412760417,0,0,0,,0,273,273,401,1,,
,,,,,,,,,,,,,,,,,,5b47e287bc06c90001f8b67d,2020-11-27_15h06.16.656,lexical_decision_task_MP_exp2,2020.2.5,Win32,60,,z,1,0.568645,,,,,,,,0.568645,1,,,,,,451,NW,"ID",33,cainky,CAINKY,z,,,,,,0.01171875,-0.412760417,0,0,0,,0,274,274,270,1,,
,,,,,,,,,,,,,,,,,,5b47e287bc06c90001f8b67d,2020-11-27_15h06.16.656,lexical_decision_task_MP_exp2,2020.2.5,Win32,60,,z,1,0.7754,,,,,,,,0.7754,1,,,,,,364,NW,UN,16,guairt,IMPOTE,z,,,,,,0.01171875,-0.412760417,0,0,0,,0,275,275,423,1,,
,,,,,,,,,,,,,,,,,,5b47e287bc06c90001f8b67d,2020-11-27_15h06.16.656,lexical_decision_task_MP_exp2,2020.2.5,Win32,60,,m,1,0.566375,,,,,,,,0.566375,1,,,,,,43,WORD,"ID",16,tongue,TONGUE,m,,,,,,0.01171875,-0.412760417,0,0,0,,0,276,276,102,1,,
,,,,,,,,,,,,,,,,,,5b47e287bc06c90001f8b67d,2020-11-27_15h06.16.656,lexical_decision_task_MP_exp2,2020.2.5,Win32,60,,m,1,0.582425,,,,,,,,0.582425,1,,,,,,147,WORD,UN,16,custom,GARLIC,m,,,,,,0.01171875,-0.412760417,0,0,0,,0,277,277,206,1,,
,,,,,,,,,,,,,,,,,,5b47e287bc06c90001f8b67d,2020-11-27_15h06.16.656,lexical_decision_task_MP_exp2,2020.2.5,Win32,60,,z,1,0.504165,,,,,,,,0.504165,1,,,,,,277,NW,"ID",16,petain,PETAIN,z,,,,,,0.01171875,-0.412760417,0,0,0,,0,278,278,336,1,,
,,,,,,,,,,,,,,,,,,5b47e287bc06c90001f8b67d,2020-11-27_15h06.16.656,lexical_decision_task_MP_exp2,2020.2.5,Win32,60,,m,1,0.56707,,,,,,,,0.56707,1,,,,,,143,WORD,UN,16,sponge,REASON,m,,,,,,0.01171875,-0.412760417,0,0,0,,0,279,279,202,1,,
,,,,,,,,,,,,,,,,,,5b47e287bc06c90001f8b67d,2020-11-27_15h06.16.656,lexical_decision_task_MP_exp2,2020.2.5,Win32,60,,m,1,0.59883,,,,,,,,0.59883,1,,,,,,171,WORD,UN,16,patrol,DEPART,m,,,,,,0.01171875,-0.412760417,0,0,0,,0,280,280,230,1,,
,,,,,,,,,,,,,,,,,,5b47e287bc06c90001f8b67d,2020-11-27_15h06.16.656,lexical_decision_task_MP_exp2,2020.2.5,Win32,60,,z,1,0.58236,,,,,,,,0.58236,1,,,,,,458,NW,"ID",33,barcet,BARCET,z,,,,,,0.01171875,-0.412760417,0,0,0,,0,281,281,277,1,,
,,,,,,,,,,,,,,,,,,5b47e287bc06c90001f8b67d,2020-11-27_15h06.16.656,lexical_decision_task_MP_exp2,2020.2.5,Win32,60,,z,1,0.5639,,,,,,,,0.5639,1,,,,,,309,NW,UN,33,daniet,AMILOY,z,,,,,,0.01171875,-0.412760417,0,0,0,,0,282,282,368,1,,
,,,,,,,,,,,,,,,,,,5b47e287bc06c90001f8b67d,2020-11-27_15h06.16.656,lexical_decision_task_MP_exp2,2020.2.5,Win32,60,,m,1,0.56638,,,,,,,,0.56638,1,,,,,,225,WORD,"ID",33,vulgar,VULGAR,m,,,,,,0.01171875,-0.412760417,0,0,0,,0,283,283,44,1,,
,,,,,,,,,,,,,,,,,,5b47e287bc06c90001f8b67d,2020-11-27_15h06.16.656,lexical_decision_task_MP_exp2,2020.2.5,Win32,60,,z,1,0.515295,,,,,,,,0.515295,1,,,,,,246,NW,"ID",16,piaton,PIATON,z,,,,,,0.01171875,-0.412760417,0,0,0,,0,284,284,305,1,,
,,,,,,,,,,,,,,,,,,5b47e287bc06c90001f8b67d,2020-11-27_15h06.16.656,lexical_decision_task_MP_exp2,2020.2.5,Win32,60,,m,1,0.57128,,,,,,,,0.57128,1,,,,,,51,WORD,"ID",16,hungry,HUNGRY,m,,,,,,0.01171875,-0.412760417,0,0,0,,0,285,285,110,1,,
,,,,,,,,,,,,,,,,,,5b47e287bc06c90001f8b67d,2020-11-27_15h06.16.656,lexical_decision_task_MP_exp2,2020.2.5,Win32,60,,z,1,0.541445,,,,,,,,0.541445,1,,,,,,384,NW,UN,16,injore,GUESCO,z,,,,,,0.01171875,-0.412760417,0,0,0,,0,286,286,443,1,,
,,,,,,,,,,,,,,,,,,5b47e287bc06c90001f8b67d,2020-11-27_15h06.16.656,lexical_decision_task_MP_exp2,2020.2.5,Win32,60,,z,0,0.520675,,,,,,,,0.520675,0,,,,,,50,WORD,"ID",16,snatch,SNATCH,m,,,,,,0.01171875,-0.412760417,0,0,0,,0,287,287,109,1,,
,,,,,,,,,,,,,,,,,,5b47e287bc06c90001f8b67d,2020-11-27_15h06.16.656,lexical_decision_task_MP_exp2,2020.2.5,Win32,60,,m,1,0.688475,,,,,,,,0.688475,1,,,,,,191,WORD,"ID",33,stable,STABLE,m,,,,,,0.01171875,-0.412760417,0,0,0,,0,288,288,10,1,,
,,,,,,,,,,,,,,,,,,5b47e287bc06c90001f8b67d,2020-11-27_15h06.16.656,lexical_decision_task_MP_exp2,2020.2.5,Win32,60,,m,1,0.67298,,,,,,,,0.67298,1,,,,,,210,WORD,"ID",33,monkey,MONKEY,m,,,,,,0.01171875,-0.412760417,0,0,0,,0,289,289,29,1,,
,,,,,,,,,,,,,,,,,,5b47e287bc06c90001f8b67d,2020-11-27_15h06.16.656,lexical_decision_task_MP_exp2,2020.2.5,Win32,60,,m,1,0.640895,,,,,,,,0.640895,1,,,,,,93,WORD,UN,33,travel,PUBLIC,m,,,,,,0.01171875,-0.412760417,0,0,0,,0,290,290,152,1,,
,,,,,,,,,,,,,,,,,,5b47e287bc06c90001f8b67d,2020-11-27_15h06.16.656,lexical_decision_task_MP_exp2,2020.2.5,Win32,60,,z,1,0.68575,,,,,,,,0.68575,1,,,,,,331,NW,UN,33,vangue,GILFEW,z,,,,,,0.01171875,-0.412760417,0,0,0,,0,291,291,390,1,,
,,,,,,,,,,,,,,,,,,5b47e287bc06c90001f8b67d,2020-11-27_15h06.16.656,lexical_decision_task_MP_exp2,2020.2.5,Win32,60,,m,1,0.764805,,,,,,,,0.764805,1,,,,,,234,WORD,"ID",33,clumsy,CLUMSY,m,,,,,,0.01171875,-0.412760417,0,0,0,,0,292,292,53,1,,
,,,,,,,,,,,,,,,,,,5b47e287bc06c90001f8b67d,2020-11-27_15h06.16.656,lexical_decision_task_MP_exp2,2020.2.5,Win32,60,,m,1,0.71789,,,,,,,,0.71789,1,,,,,,190,WORD,"ID",33,backup,BACKUP,m,,,,,,0.01171875,-0.412760417,0,0,0,,0,293,293,9,1,,
,,,,,,,,,,,,,,,,,,5b47e287bc06c90001f8b67d,2020-11-27_15h06.16.656,lexical_decision_task_MP_exp2,2020.2.5,Win32,60,,z,1,0.677035,,,,,,,,0.677035,1,,,,,,297,NW,"ID",16,fertic,FERTIC,z,,,,,,0.01171875,-0.412760417,0,0,0,,0,294,294,356,1,,
,,,,,,,,,,,,,,,,,,5b47e287bc06c90001f8b67d,2020-11-27_15h06.16.656,lexical_decision_task_MP_exp2,2020.2.5,Win32,60,,m,1,0.68414,,,,,,,,0.68414,1,,,,,,26,WORD,"ID",16,sprint,SPRINT,m,,,,,,0.01171875,-0.412760417,0,0,0,,0,295,295,85,1,,
,,,,,,,,,,,,,,,,,,5b47e287bc06c90001f8b67d,2020-11-27_15h06.16.656,lexical_decision_task_MP_exp2,2020.2.5,Win32,60,,m,1,0.66584,,,,,,,,0.66584,1,,,,,,232,WORD,"ID",33,inject,INJECT,m,,,,,,0.01171875,-0.412760417,0,0,0,,0,296,296,51,1,,
,,,,,,,,,,,,,,,,,,5b47e287bc06c90001f8b67d,2020-11-27_15h06.16.656,lexical_decision_task_MP_exp2,2020.2.5,Win32,60,,z,1,0.582795,,,,,,,,0.582795,1,,,,,,349,NW,UN,33,nagurs,ASYLEN,z,,,,,,0.01171875,-0.412760417,0,0,0,,0,297,297,408,1,,
,,,,,,,,,,,,,,,,,,5b47e287bc06c90001f8b67d,2020-11-27_15h06.16.656,lexical_decision_task_MP_exp2,2020.2.5,Win32,60,,m,1,0.650945,,,,,,,,0.650945,1,,,,,,55,WORD,"ID",16,stroke,STROKE,m,,,,,,0.01171875,-0.412760417,0,0,0,,0,298,298,114,1,,
,,,,,,,,,,,,,,,,,,5b47e287bc06c90001f8b67d,2020-11-27_15h06.16.656,lexical_decision_task_MP_exp2,2020.2.5,Win32,60,,z,1,0.54952,,,,,,,,0.54952,1,,,,,,324,NW,UN,33,thruse,STEIKH,z,,,,,,0.01171875,-0.412760417,0,0,0,,0,299,299,383,1,,
,,,,,,,,,,,,,,,,,,5b47e287bc06c90001f8b67d,2020-11-27_15h06.16.656,lexical_decision_task_MP_exp2,2020.2.5,Win32,60,,m,1,0.52602,,,,,,,,0.52602,1,,,,,,182,WORD,"ID",33,winter,WINTER,m,,,,,,0.01171875,-0.412760417,0,0,0,,0,300,300,1,1,,
,,,,,,,,,,,,,,,,,,5b47e287bc06c90001f8b67d,2020-11-27_15h06.16.656,lexical_decision_task_MP_exp2,2020.2.5,Win32,60,,z,1,0.69886,,,,,,,,0.69886,1,,,,,,373,NW,UN,16,sliant,BIGENT,z,,,,,,0.01171875,-0.412760417,0,0,0,,0,301,301,432,1,,
,,,,,,,,,,,,,,,,,,5b47e287bc06c90001f8b67d,2020-11-27_15h06.16.656,lexical_decision_task_MP_exp2,2020.2.5,Win32,60,,m,1,0.516445,,,,,,,,0.516445,1,,,,,,148,WORD,UN,16,invade,CUSTOM,m,,,,,,0.01171875,-0.412760417,0,0,0,,0,302,302,207,1,,
,,,,,,,,,,,,,,,,,,5b47e287bc06c90001f8b67d,2020-11-27_15h06.16.656,lexical_decision_task_MP_exp2,2020.2.5,Win32,60,,z,1,0.489265,,,,,,,,0.489265,1,,,,,,290,NW,"ID",16,splino,SPLINO,z,,,,,,0.01171875,-0.412760417,0,0,0,,0,303,303,349,1,,
,,,,,,,,,,,,,,,,,,5b47e287bc06c90001f8b67d,2020-11-27_15h06.16.656,lexical_decision_task_MP_exp2,2020.2.5,Win32,60,,m,1,0.58346,,,,,,,,0.58346,1,,,,,,104,WORD,UN,33,number,STUDIO,m,,,,,,0.01171875,-0.412760417,0,0,0,,0,304,304,163,1,,
,,,,,,,,,,,,,,,,,,5b47e287bc06c90001f8b67d,2020-11-27_15h06.16.656,lexical_decision_task_MP_exp2,2020.2.5,Win32,60,,z,1,0.515455,,,,,,,,0.515455,1,,,,,,286,NW,"ID",16,reldon,RELDON,z,,,,,,0.01171875,-0.412760417,0,0,0,,0,305,305,345,1,,
,,,,,,,,,,,,,,,,,,5b47e287bc06c90001f8b67d,2020-11-27_15h06.16.656,lexical_decision_task_MP_exp2,2020.2.5,Win32,60,,m,1,0.536685,,,,,,,,0.536685,1,,,,,,216,WORD,"ID",33,behalf,BEHALF,m,,,,,,0.01171875,-0.412760417,0,0,0,,0,306,306,35,1,,
,,,,,,,,,,,,,,,,,,5b47e287bc06c90001f8b67d,2020-11-27_15h06.16.656,lexical_decision_task_MP_exp2,2020.2.5,Win32,60,,m,1,0.699355,,,,,,,,0.699355,1,,,,,,48,WORD,"ID",16,walnut,WALNUT,m,,,,,,0.01171875,-0.412760417,0,0,0,,0,307,307,107,1,,
,,,,,,,,,,,,,,,,,,5b47e287bc06c90001f8b67d,2020-11-27_15h06.16.656,lexical_decision_task_MP_exp2,2020.2.5,Win32,60,,m,1,0.616345,,,,,,,,0.616345,1,,,,,,169,WORD,UN,16,pounce,GENIUS,m,,,,,,0.01171875,-0.412760417,0,0,0,,0,308,308,228,1,,
,,,,,,,,,,,,,,,,,,5b47e287bc06c90001f8b67d,2020-11-27_15h06.16.656,lexical_decision_task_MP_exp2,2020.2.5,Win32,60,,z,1,0.709945,,,,,,,,0.709945,1,,,,,,261,NW,"ID",16,stunch,STUNCH,z,,,,,,0.01171875,-0.412760417,0,0,0,,0,309,309,320,1,,
,,,,,,,,,,,,,,,,,,5b47e287bc06c90001f8b67d,2020-11-27_15h06.16.656,lexical_decision_task_MP_exp2,2020.2.5,Win32,60,,z,1,0.56595,,,,,,,,0.56595,1,,,,,,399,NW,UN,16,wearox,FOURET,z,,,,,,0.01171875,-0.412760417,0,0,0,,0,310,310,458,1,,
,,,,,,,,,,,,,,,,,,5b47e287bc06c90001f8b67d,2020-11-27_15h06.16.656,lexical_decision_task_MP_exp2,2020.2.5,Win32,60,,m,1,0.54376,,,,,,,,0.54376,1,,,,,,108,WORD,UN,33,wonder,RECKON,m,,,,,,0.01171875,-0.412760417,0,0,0,,0,311,311,167,1,,
,,,,,,,,,,,,,,,,,,5b47e287bc06c90001f8b67d,2020-11-27_15h06.16.656,lexical_decision_task_MP_exp2,2020.2.5,Win32,60,,m,1,0.76962,,,,,,,,0.76962,1,,,,,,125,WORD,UN,16,enough,NICKEL,m,,,,,,0.01171875,-0.412760417,0,0,0,,0,312,312,184,1,,
,,,,,,,,,,,,,,,,,,5b47e287bc06c90001f8b67d,2020-11-27_15h06.16.656,lexical_decision_task_MP_exp2,2020.2.5,Win32,60,,m,1,0.558245,,,,,,,,0.558245,1,,,,,,165,WORD,UN,16,starch,INVEST,m,,,,,,0.01171875,-0.412760417,0,0,0,,0,313,313,224,1,,
,,,,,,,,,,,,,,,,,,5b47e287bc06c90001f8b67d,2020-11-27_15h06.16.656,lexical_decision_task_MP_exp2,2020.2.5,Win32,60,,z,1,0.690525,,,,,,,,0.690525,1,,,,,,299,NW,"ID",16,sturch,STURCH,z,,,,,,0.01171875,-0.412760417,0,0,0,,0,314,314,358,1,,
,,,,,,,,,,,,,,,,,,5b47e287bc06c90001f8b67d,2020-11-27_15h06.16.656,lexical_decision_task_MP_exp2,2020.2.5,Win32,60,,z,1,0.58247,,,,,,,,0.58247,1,,,,,,280,NW,"ID",16,curbol,CURBOL,z,,,,,,0.01171875,-0.412760417,0,0,0,,0,315,315,339,1,,
,,,,,,,,,,,,,,,,,,5b47e287bc06c90001f8b67d,2020-11-27_15h06.16.656,lexical_decision_task_MP_exp2,2020.2.5,Win32,60,,z,1,0.62458,,,,,,,,0.62458,1,,,,,,469,NW,"ID",33,padifs,PADIFS,z,,,,,,0.01171875,-0.412760417,0,0,0,,0,316,316,288,1,,
,,,,,,,,,,,,,,,,,,5b47e287bc06c90001f8b67d,2020-11-27_15h06.16.656,lexical_decision_task_MP_exp2,2020.2.5,Win32,60,,m,1,0.604585,,,,,,,,0.604585,1,,,,,,36,WORD,"ID",16,vanish,VANISH,m,,,,,,0.01171875,-0.412760417,0,0,0,,0,317,317,95,1,,
,,,,,,,,,,,,,,,,,,5b47e287bc06c90001f8b67d,2020-11-27_15h06.16.656,lexical_decision_task_MP_exp2,2020.2.5,Win32,60,,m,1,0.564595,,,,,,,,0.564595,1,,,,,,35,WORD,"ID",16,socket,SOCKET,m,,,,,,0.01171875,-0.412760417,0,0,0,,0,318,318,94,1,,
,,,,,,,,,,,,,,,,,,5b47e287bc06c90001f8b67d,2020-11-27_15h06.16.656,lexical_decision_task_MP_exp2,2020.2.5,Win32,60,,m,1,0.56756,,,,,,,,0.56756,1,,,,,,62,WORD,UN,33,launch,REGION,m,,,,,,0.01171875,-0.412760417,0,0,0,,0,319,319,121,1,,
,,,,,,,,,,,,,,,,,,5b47e287bc06c90001f8b67d,2020-11-27_15h06.16.656,lexical_decision_task_MP_exp2,2020.2.5,Win32,60,,z,1,0.567385,,,,,,,,0.567385,1,,,,,,343,NW,UN,33,scrily,AIMOSY,z,,,,,,0.01171875,-0.412760417,0,0,0,,0,320,320,402,1,,
,,,,,,,,,,,,,,,,,,5b47e287bc06c90001f8b67d,2020-11-27_15h06.16.656,lexical_decision_task_MP_exp2,2020.2.5,Win32,60,,z,1,0.55826,,,,,,,,0.55826,1,,,,,,450,NW,"ID",33,phrect,PHRECT,z,,,,,,0.01171875,-0.412760417,0,0,0,,0,321,321,269,1,,
,,,,,,,,,,,,,,,,,,5b47e287bc06c90001f8b67d,2020-11-27_15h06.16.656,lexical_decision_task_MP_exp2,2020.2.5,Win32,60,,m,1,0.53125,,,,,,,,0.53125,1,,,,,,53,WORD,"ID",16,police,POLICE,m,,,,,,0.01171875,-0.412760417,0,0,0,,0,322,322,112,1,,
,,,,,,,,,,,,,,,,,,5b47e287bc06c90001f8b67d,2020-11-27_15h06.16.656,lexical_decision_task_MP_exp2,2020.2.5,Win32,60,,z,1,0.699995,,,,,,,,0.699995,1,,,,,,321,NW,UN,33,slanch,MIATOR,z,,,,,,0.01171875,-0.412760417,0,0,0,,0,323,323,380,1,,
,,,,,,,,,,,,,,,,,,5b47e287bc06c90001f8b67d,2020-11-27_15h06.16.656,lexical_decision_task_MP_exp2,2020.2.5,Win32,60,,m,1,0.62053,,,,,,,,0.62053,1,,,,,,9,WORD,"ID",16,hustle,HUSTLE,m,,,,,,0.01171875,-0.412760417,0,0,0,,0,324,324,68,1,,
,,,,,,,,,,,,,,,,,,5b47e287bc06c90001f8b67d,2020-11-27_15h06.16.656,lexical_decision_task_MP_exp2,2020.2.5,Win32,60,,m,1,0.56905,,,,,,,,0.56905,1,,,,,,215,WORD,"ID",33,phobia,PHOBIA,m,,,,,,0.01171875,-0.412760417,0,0,0,,0,325,325,34,1,,
,,,,,,,,,,,,,,,,,,5b47e287bc06c90001f8b67d,2020-11-27_15h06.16.656,lexical_decision_task_MP_exp2,2020.2.5,Win32,60,,z,1,0.893625,,,,,,,,0.893625,1,,,,,,376,NW,UN,16,veigma,IGUARE,z,,,,,,0.01171875,-0.412760417,0,0,0,,0,326,326,435,1,,
,,,,,,,,,,,,,,,,,,5b47e287bc06c90001f8b67d,2020-11-27_15h06.16.656,lexical_decision_task_MP_exp2,2020.2.5,Win32,60,,m,1,0.539835,,,,,,,,0.539835,1,,,,,,66,WORD,UN,33,policy,GOSPEL,m,,,,,,0.01171875,-0.412760417,0,0,0,,0,327,327,125,1,,
,,,,,,,,,,,,,,,,,,5b47e287bc06c90001f8b67d,2020-11-27_15h06.16.656,lexical_decision_task_MP_exp2,2020.2.5,Win32,60,,m,1,0.602995,,,,,,,,0.602995,1,,,,,,164,WORD,UN,16,invest,MARKET,m,,,,,,0.01171875,-0.412760417,0,0,0,,0,328,328,223,1,,
,,,,,,,,,,,,,,,,,,5b47e287bc06c90001f8b67d,2020-11-27_15h06.16.656,lexical_decision_task_MP_exp2,2020.2.5,Win32,60,,z,1,0.552715,,,,,,,,0.552715,1,,,,,,292,NW,"ID",16,ablint,ABLINT,z,,,,,,0.01171875,-0.412760417,0,0,0,,0,329,329,351,1,,
,,,,,,,,,,,,,,,,,,5b47e287bc06c90001f8b67d,2020-11-27_15h06.16.656,lexical_decision_task_MP_exp2,2020.2.5,Win32,60,,z,1,0.49059,,,,,,,,0.49059,1,,,,,,362,NW,UN,16,breali,TIREAU,z,,,,,,0.01171875,-0.412760417,0,0,0,,0,330,330,421,1,,
,,,,,,,,,,,,,,,,,,5b47e287bc06c90001f8b67d,2020-11-27_15h06.16.656,lexical_decision_task_MP_exp2,2020.2.5,Win32,60,,m,1,0.522165,,,,,,,,0.522165,1,,,,,,214,WORD,"ID",33,intake,INTAKE,m,,,,,,0.01171875,-0.412760417,0,0,0,,0,331,331,33,1,,
,,,,,,,,,,,,,,,,,,5b47e287bc06c90001f8b67d,2020-11-27_15h06.16.656,lexical_decision_task_MP_exp2,2020.2.5,Win32,60,,z,0,0.55534,,,,,,,,0.55534,0,,,,,,183,WORD,"ID",33,mildew,MILDEW,m,,,,,,0.01171875,-0.412760417,0,0,0,,0,332,332,2,1,,
,,,,,,,,,,,,,,,,,,5b47e287bc06c90001f8b67d,2020-11-27_15h06.16.656,lexical_decision_task_MP_exp2,2020.2.5,Win32,60,,m,1,0.551485,,,,,,,,0.551485,1,,,,,,199,WORD,"ID",33,invoke,INVOKE,m,,,,,,0.01171875,-0.412760417,0,0,0,,0,333,333,18,1,,
,,,,,,,,,,,,,,,,,,5b47e287bc06c90001f8b67d,2020-11-27_15h06.16.656,lexical_decision_task_MP_exp2,2020.2.5,Win32,60,,m,1,0.582645,,,,,,,,0.582645,1,,,,,,218,WORD,"ID",33,shrink,SHRINK,m,,,,,,0.01171875,-0.412760417,0,0,0,,0,334,334,37,1,,
,,,,,,,,,,,,,,,,,,5b47e287bc06c90001f8b67d,2020-11-27_15h06.16.656,lexical_decision_task_MP_exp2,2020.2.5,Win32,60,,m,1,0.6001,,,,,,,,0.6001,1,,,,,,76,WORD,UN,33,racket,EXOTIC,m,,,,,,0.01171875,-0.412760417,0,0,0,,0,335,335,135,1,,
,,,,,,,,,,,,,,,,,,5b47e287bc06c90001f8b67d,2020-11-27_15h06.16.656,lexical_decision_task_MP_exp2,2020.2.5,Win32,60,,m,1,0.51573,,,,,,,,0.51573,1,,,,,,47,WORD,"ID",16,income,INCOME,m,,,,,,0.01171875,-0.412760417,0,0,0,,0,336,336,106,1,,
,,,,,,,,,,,,,,,,,,5b47e287bc06c90001f8b67d,2020-11-27_15h06.16.656,lexical_decision_task_MP_exp2,2020.2.5,Win32,60,,z,1,0.484585,,,,,,,,0.484585,1,,,,,,340,NW,UN,33,myrtie,FIATCH,z,,,,,,0.01171875,-0.412760417,0,0,0,,0,337,337,399,1,,
,,,,,,,,,,,,,,,,,,5b47e287bc06c90001f8b67d,2020-11-27_15h06.16.656,lexical_decision_task_MP_exp2,2020.2.5,Win32,60,,z,1,0.58715,,,,,,,,0.58715,1,,,,,,430,NW,"ID",33,caroey,CAROEY,z,,,,,,0.01171875,-0.412760417,0,0,0,,0,338,338,249,1,,
,,,,,,,,,,,,,,,,,,5b47e287bc06c90001f8b67d,2020-11-27_15h06.16.656,lexical_decision_task_MP_exp2,2020.2.5,Win32,60,,m,1,0.516355,,,,,,,,0.516355,1,,,,,,176,WORD,UN,16,advent,STRIFE,m,,,,,,0.01171875,-0.412760417,0,0,0,,0,339,339,235,1,,
,,,,,,,,,,,,,,,,,,5b47e287bc06c90001f8b67d,2020-11-27_15h06.16.656,lexical_decision_task_MP_exp2,2020.2.5,Win32,60,,z,1,0.599855,,,,,,,,0.599855,1,,,,,,312,NW,UN,33,paurse,NERAWL,z,,,,,,0.01171875,-0.412760417,0,0,0,,0,340,340,371,1,,
,,,,,,,,,,,,,,,,,,5b47e287bc06c90001f8b67d,2020-11-27_15h06.16.656,lexical_decision_task_MP_exp2,2020.2.5,Win32,60,,z,1,0.889695,,,,,,,,0.889695,1,,,,,,443,NW,"ID",33,dorsex,DORSEX,z,,,,,,0.01171875,-0.412760417,0,0,0,,0,341,341,262,1,,
,,,,,,,,,,,,,,,,,,5b47e287bc06c90001f8b67d,2020-11-27_15h06.16.656,lexical_decision_task_MP_exp2,2020.2.5,Win32,60,,m,1,0.574325,,,,,,,,0.574325,1,,,,,,153,WORD,UN,16,author,BEHOLD,m,,,,,,0.01171875,-0.412760417,0,0,0,,0,342,342,212,1,,
,,,,,,,,,,,,,,,,,,5b47e287bc06c90001f8b67d,2020-11-27_15h06.16.656,lexical_decision_task_MP_exp2,2020.2.5,Win32,60,,m,1,0.603775,,,,,,,,0.603775,1,,,,,,44,WORD,"ID",16,danger,DANGER,m,,,,,,0.01171875,-0.412760417,0,0,0,,0,343,343,103,1,,
,,,,,,,,,,,,,,,,,,5b47e287bc06c90001f8b67d,2020-11-27_15h06.16.656,lexical_decision_task_MP_exp2,2020.2.5,Win32,60,,m,1,0.76719,,,,,,,,0.76719,1,,,,,,85,WORD,UN,33,rodent,SPRAWL,m,,,,,,0.01171875,-0.412760417,0,0,0,,0,344,344,144,1,,
,,,,,,,,,,,,,,,,,,5b47e287bc06c90001f8b67d,2020-11-27_15h06.16.656,lexical_decision_task_MP_exp2,2020.2.5,Win32,60,,m,1,0.63295,,,,,,,,0.63295,1,,,,,,42,WORD,"ID",16,chapel,CHAPEL,m,,,,,,0.01171875,-0.412760417,0,0,0,,0,345,345,101,1,,
,,,,,,,,,,,,,,,,,,5b47e287bc06c90001f8b67d,2020-11-27_15h06.16.656,lexical_decision_task_MP_exp2,2020.2.5,Win32,60,,z,1,0.668635,,,,,,,,0.668635,1,,,,,,433,NW,"ID",33,drance,DRANCE,z,,,,,,0.01171875,-0.412760417,0,0,0,,0,346,346,252,1,,
,,,,,,,,,,,,,,,,,,5b47e287bc06c90001f8b67d,2020-11-27_15h06.16.656,lexical_decision_task_MP_exp2,2020.2.5,Win32,60,,m,1,0.704215,,,,,,,,0.704215,1,,,,,,78,WORD,UN,33,theory,COLUMN,m,,,,,,0.01171875,-0.412760417,0,0,0,,0,347,347,137,1,,
,,,,,,,,,,,,,,,,,,5b47e287bc06c90001f8b67d,2020-11-27_15h06.16.656,lexical_decision_task_MP_exp2,2020.2.5,Win32,60,,,0,,,,,,,,,0.704215,-1,,,,,,429,NW,"ID",33,funtle,FUNTLE,z,,,,,,0.01171875,-0.412760417,0,0,0,,0,348,348,248,1,,
,,,,,,,,,,,,,,,,,,5b47e287bc06c90001f8b67d,2020-11-27_15h06.16.656,lexical_decision_task_MP_exp2,2020.2.5,Win32,60,,m,1,0.57757,,,,,,,,0.57757,1,,,,,,158,WORD,UN,16,detail,ISLAND,m,,,,,,0.01171875,-0.412760417,0,0,0,,0,349,349,217,1,,
,,,,,,,,,,,,,,,,,,5b47e287bc06c90001f8b67d,2020-11-27_15h06.16.656,lexical_decision_task_MP_exp2,2020.2.5,Win32,60,,z,1,0.6698,,,,,,,,0.6698,1,,,,,,266,NW,"ID",16,varmit,VARMIT,z,,,,,,0.01171875,-0.412760417,0,0,0,,0,350,350,325,1,,
,,,,,,,,,,,,,,,,,,5b47e287bc06c90001f8b67d,2020-11-27_15h06.16.656,lexical_decision_task_MP_exp2,2020.2.5,Win32,60,,m,1,0.616155,,,,,,,,0.616155,1,,,,,,154,WORD,UN,16,lizard,AUTHOR,m,,,,,,0.01171875,-0.412760417,0,0,0,,0,351,351,213,1,,
,,,,,,,,,,,,,,,,,,5b47e287bc06c90001f8b67d,2020-11-27_15h06.16.656,lexical_decision_task_MP_exp2,2020.2.5,Win32,60,,z,1,0.53521,,,,,,,,0.53521,1,,,,,,441,NW,"ID",33,rastoe,RASTOE,z,,,,,,0.01171875,-0.412760417,0,0,0,,0,352,352,260,1,,
,,,,,,,,,,,,,,,,,,5b47e287bc06c90001f8b67d,2020-11-27_15h06.16.656,lexical_decision_task_MP_exp2,2020.2.5,Win32,60,,z,1,0.565275,,,,,,,,0.565275,1,,,,,,336,NW,UN,33,rejols,GHODUS,z,,,,,,0.01171875,-0.412760417,0,0,0,,0,353,353,395,1,,
,,,,,,,,,,,,,,,,,,5b47e287bc06c90001f8b67d,2020-11-27_15h06.16.656,lexical_decision_task_MP_exp2,2020.2.5,Win32,60,,z,1,0.613365,,,,,,,,0.613365,1,,,,,,357,NW,UN,33,fleack,DERAIN,z,,,,,,0.01171875,-0.412760417,0,0,0,,0,354,354,416,1,,
,,,,,,,,,,,,,,,,,,5b47e287bc06c90001f8b67d,2020-11-27_15h06.16.656,lexical_decision_task_MP_exp2,2020.2.5,Win32,60,,z,1,0.502135,,,,,,,,0.502135,1,,,,,,444,NW,"ID",33,jaunce,JAUNCE,z,,,,,,0.01171875,-0.412760417,0,0,0,,0,355,355,263,1,,
,,,,,,,,,,,,,,,,,,5b47e287bc06c90001f8b67d,2020-11-27_15h06.16.656,lexical_decision_task_MP_exp2,2020.2.5,Win32,60,,m,1,0.570505,,,,,,,,0.570505,1,,,,,,57,WORD,"ID",16,change,CHANGE,m,,,,,,0.01171875,-0.412760417,0,0,0,,0,356,356,116,1,,
,,,,,,,,,,,,,,,,,,5b47e287bc06c90001f8b67d,2020-11-27_15h06.16.656,lexical_decision_task_MP_exp2,2020.2.5,Win32,60,,m,1,0.568915,,,,,,,,0.568915,1,,,,,,113,WORD,UN,33,placid,CHORUS,m,,,,,,0.01171875,-0.412760417,0,0,0,,0,357,357,172,1,,
,,,,,,,,,,,,,,,,,,5b47e287bc06c90001f8b67d,2020-11-27_15h06.16.656,lexical_decision_task_MP_exp2,2020.2.5,Win32,60,,m,1,0.555975,,,,,,,,0.555975,1,,,,,,226,WORD,"ID",33,casino,CASINO,m,,,,,,0.01171875,-0.412760417,0,0,0,,0,358,358,45,1,,
,,,,,,,,,,,,,,,,,,5b47e287bc06c90001f8b67d,2020-11-27_15h06.16.656,lexical_decision_task_MP_exp2,2020.2.5,Win32,60,,m,1,0.587065,,,,,,,,0.587065,1,,,,,,201,WORD,"ID",33,admire,ADMIRE,m,,,,,,0.01171875,-0.412760417,0,0,0,,0,359,359,20,1,,
,,,,,,,,,,,,,,,,,,5b47e287bc06c90001f8b67d,2020-11-27_15h06.16.656,lexical_decision_task_MP_exp2,2020.2.5,Win32,60,,z,1,0.535505,,,,,,,,0.535505,1,,,,,,283,NW,"ID",16,veralf,VERALF,z,,,,,,0.01171875,-0.412760417,0,0,0,,0,360,360,342,1,,
,,,,,,,,,,,,,,,,,,5b47e287bc06c90001f8b67d,2020-11-27_15h06.16.656,lexical_decision_task_MP_exp2,2020.2.5,Win32,60,,z,1,0.719065,,,,,,,,0.719065,1,,,,,,300,NW,"ID",16,yarion,YARION,z,,,,,,0.01171875,-0.412760417,0,0,0,,0,361,361,359,1,,
,,,,,,,,,,,,,,,,,,5b47e287bc06c90001f8b67d,2020-11-27_15h06.16.656,lexical_decision_task_MP_exp2,2020.2.5,Win32,60,,z,1,0.6025,,,,,,,,0.6025,1,,,,,,248,NW,"ID",16,strole,STROLE,z,,,,,,0.01171875,-0.412760417,1,0,0,,0,362,362,307,1,,break_done_button
,,,,,,,,,,,,,,,,,,5b47e287bc06c90001f8b67d,2020-11-27_15h06.16.656,lexical_decision_task_MP_exp2,2020.2.5,Win32,60,,m,1,1.135755,,,,,,,,1.135755,1,,,,,,41,WORD,"ID",16,spring,SPRING,m,,,,,,0.01171875,-0.412760417,0,0,0,,0,363,363,100,1,,
,,,,,,,,,,,,,,,,,,5b47e287bc06c90001f8b67d,2020-11-27_15h06.16.656,lexical_decision_task_MP_exp2,2020.2.5,Win32,60,,m,1,1.05234,,,,,,,,1.05234,1,,,,,,114,WORD,UN,33,guitar,PLACID,m,,,,,,0.01171875,-0.412760417,0,0,0,,0,364,364,173,1,,
,,,,,,,,,,,,,,,,,,5b47e287bc06c90001f8b67d,2020-11-27_15h06.16.656,lexical_decision_task_MP_exp2,2020.2.5,Win32,60,,z,1,0.67203,,,,,,,,0.67203,1,,,,,,456,NW,"ID",33,broget,BROGET,z,,,,,,0.01171875,-0.412760417,0,0,0,,0,365,365,275,1,,
,,,,,,,,,,,,,,,,,,5b47e287bc06c90001f8b67d,2020-11-27_15h06.16.656,lexical_decision_task_MP_exp2,2020.2.5,Win32,60,,z,1,0.56868,,,,,,,,0.56868,1,,,,,,263,NW,"ID",16,dolica,DOLICA,z,,,,,,0.01171875,-0.412760417,0,0,0,,0,366,366,322,1,,
,,,,,,,,,,,,,,,,,,5b47e287bc06c90001f8b67d,2020-11-27_15h06.16.656,lexical_decision_task_MP_exp2,2020.2.5,Win32,60,,m,1,0.60345,,,,,,,,0.60345,1,,,,,,83,WORD,UN,33,mortal,RESULT,m,,,,,,0.01171875,-0.412760417,0,0,0,,0,367,367,142,1,,
,,,,,,,,,,,,,,,,,,5b47e287bc06c90001f8b67d,2020-11-27_15h06.16.656,lexical_decision_task_MP_exp2,2020.2.5,Win32,60,,z,1,0.68508,,,,,,,,0.68508,1,,,,,,478,NW,"ID",33,acrise,ACRISE,z,,,,,,0.01171875,-0.412760417,0,0,0,,0,368,368,297,1,,
,,,,,,,,,,,,,,,,,,5b47e287bc06c90001f8b67d,2020-11-27_15h06.16.656,lexical_decision_task_MP_exp2,2020.2.5,Win32,60,,m,1,0.619605,,,,,,,,0.619605,1,,,,,,198,WORD,"ID",33,wicked,WICKED,m,,,,,,0.01171875,-0.412760417,0,0,0,,0,369,369,17,1,,
,,,,,,,,,,,,,,,,,,5b47e287bc06c90001f8b67d,2020-11-27_15h06.16.656,lexical_decision_task_MP_exp2,2020.2.5,Win32,60,,m,1,0.60173,,,,,,,,0.60173,1,,,,,,17,WORD,"ID",16,charge,CHARGE,m,,,,,,0.01171875,-0.412760417,0,0,0,,0,370,370,76,1,,
,,,,,,,,,,,,,,,,,,5b47e287bc06c90001f8b67d,2020-11-27_15h06.16.656,lexical_decision_task_MP_exp2,2020.2.5,Win32,60,,m,1,0.620205,,,,,,,,0.620205,1,,,,,,37,WORD,"ID",16,insult,INSULT,m,,,,,,0.01171875,-0.412760417,0,0,0,,0,371,371,96,1,,
,,,,,,,,,,,,,,,,,,5b47e287bc06c90001f8b67d,2020-11-27_15h06.16.656,lexical_decision_task_MP_exp2,2020.2.5,Win32,60,,z,1,0.58586,,,,,,,,0.58586,1,,,,,,460,NW,"ID",33,mingar,MINGAR,z,,,,,,0.01171875,-0.412760417,0,0,0,,0,372,372,279,1,,
,,,,,,,,,,,,,,,,,,5b47e287bc06c90001f8b67d,2020-11-27_15h06.16.656,lexical_decision_task_MP_exp2,2020.2.5,Win32,60,,z,1,0.585585,,,,,,,,0.585585,1,,,,,,372,NW,UN,16,bigent,RAMILY,z,,,,,,0.01171875,-0.412760417,0,0,0,,0,373,373,431,1,,
,,,,,,,,,,,,,,,,,,5b47e287bc06c90001f8b67d,2020-11-27_15h06.16.656,lexical_decision_task_MP_exp2,2020.2.5,Win32,60,,m,1,0.636455,,,,,,,,0.636455,1,,,,,,237,WORD,"ID",33,poster,POSTER,m,,,,,,0.01171875,-0.412760417,0,0,0,,0,374,374,56,1,,
,,,,,,,,,,,,,,,,,,5b47e287bc06c90001f8b67d,2020-11-27_15h06.16.656,lexical_decision_task_MP_exp2,2020.2.5,Win32,60,,z,1,0.58695,,,,,,,,0.58695,1,,,,,,435,NW,"ID",33,impurb,IMPURB,z,,,,,,0.01171875,-0.412760417,0,0,0,,0,375,375,254,1,,
,,,,,,,,,,,,,,,,,,5b47e287bc06c90001f8b67d,2020-11-27_15h06.16.656,lexical_decision_task_MP_exp2,2020.2.5,Win32,60,,m,1,0.718925,,,,,,,,0.718925,1,,,,,,129,WORD,UN,16,stupid,MARVEL,m,,,,,,0.01171875,-0.412760417,0,0,0,,0,376,376,188,1,,
,,,,,,,,,,,,,,,,,,5b47e287bc06c90001f8b67d,2020-11-27_15h06.16.656,lexical_decision_task_MP_exp2,2020.2.5,Win32,60,,m,1,0.70389,,,,,,,,0.70389,1,,,,,,151,WORD,UN,16,rocket,MYSTIC,m,,,,,,0.01171875,-0.412760417,0,0,0,,0,377,377,210,1,,
,,,,,,,,,,,,,,,,,,5b47e287bc06c90001f8b67d,2020-11-27_15h06.16.656,lexical_decision_task_MP_exp2,2020.2.5,Win32,60,,m,1,0.62242,,,,,,,,0.62242,1,,,,,,223,WORD,"ID",33,kidney,KIDNEY,m,,,,,,0.01171875,-0.412760417,0,0,0,,0,378,378,42,1,,
,,,,,,,,,,,,,,,,,,5b47e287bc06c90001f8b67d,2020-11-27_15h06.16.656,lexical_decision_task_MP_exp2,2020.2.5,Win32,60,,m,1,0.580525,,,,,,,,0.580525,1,,,,,,178,WORD,UN,16,basket,INFORM,m,,,,,,0.01171875,-0.412760417,0,0,0,,0,379,379,237,1,,
,,,,,,,,,,,,,,,,,,5b47e287bc06c90001f8b67d,2020-11-27_15h06.16.656,lexical_decision_task_MP_exp2,2020.2.5,Win32,60,,m,1,0.70118,,,,,,,,0.70118,1,,,,,,230,WORD,"ID",33,fringe,FRINGE,m,,,,,,0.01171875,-0.412760417,0,0,0,,0,380,380,49,1,,
,,,,,,,,,,,,,,,,,,5b47e287bc06c90001f8b67d,2020-11-27_15h06.16.656,lexical_decision_task_MP_exp2,2020.2.5,Win32,60,,z,1,0.72173,,,,,,,,0.72173,1,,,,,,276,NW,"ID",16,yarmon,YARMON,z,,,,,,0.01171875,-0.412760417,0,0,0,,0,381,381,335,1,,
,,,,,,,,,,,,,,,,,,5b47e287bc06c90001f8b67d,2020-11-27_15h06.16.656,lexical_decision_task_MP_exp2,2020.2.5,Win32,60,,z,1,0.60339,,,,,,,,0.60339,1,,,,,,394,NW,UN,16,colury,SPAQUX,z,,,,,,0.01171875,-0.412760417,0,0,0,,0,382,382,453,1,,
,,,,,,,,,,,,,,,,,,5b47e287bc06c90001f8b67d,2020-11-27_15h06.16.656,lexical_decision_task_MP_exp2,2020.2.5,Win32,60,,z,1,0.80209,,,,,,,,0.80209,1,,,,,,470,NW,"ID",33,crudio,CRUDIO,z,,,,,,0.01171875,-0.412760417,0,0,0,,0,383,383,289,1,,
,,,,,,,,,,,,,,,,,,5b47e287bc06c90001f8b67d,2020-11-27_15h06.16.656,lexical_decision_task_MP_exp2,2020.2.5,Win32,60,,m,1,0.63709,,,,,,,,0.63709,1,,,,,,156,WORD,UN,16,depart,CRADLE,m,,,,,,0.01171875,-0.412760417,0,0,0,,0,384,384,215,1,,
,,,,,,,,,,,,,,,,,,5b47e287bc06c90001f8b67d,2020-11-27_15h06.16.656,lexical_decision_task_MP_exp2,2020.2.5,Win32,60,,z,1,0.71903,,,,,,,,0.71903,1,,,,,,417,NW,UN,16,suidle,EAROUD,z,,,,,,0.01171875,-0.412760417,0,0,0,,0,385,385,476,1,,
,,,,,,,,,,,,,,,,,,5b47e287bc06c90001f8b67d,2020-11-27_15h06.16.656,lexical_decision_task_MP_exp2,2020.2.5,Win32,60,,z,1,0.75237,,,,,,,,0.75237,1,,,,,,360,NW,UN,33,fainch,DESORY,z,,,,,,0.01171875,-0.412760417,0,0,0,,0,386,386,419,1,,
,,,,,,,,,,,,,,,,,,5b47e287bc06c90001f8b67d,2020-11-27_15h06.16.656,lexical_decision_task_MP_exp2,2020.2.5,Win32,60,,m,1,0.569065,,,,,,,,0.569065,1,,,,,,119,WORD,UN,33,strain,SPIDER,m,,,,,,0.01171875,-0.412760417,0,0,0,,0,387,387,178,1,,
,,,,,,,,,,,,,,,,,,5b47e287bc06c90001f8b67d,2020-11-27_15h06.16.656,lexical_decision_task_MP_exp2,2020.2.5,Win32,60,,z,1,0.66944,,,,,,,,0.66944,1,,,,,,479,NW,"ID",33,lobush,LOBUSH,z,,,,,,0.01171875,-0.412760417,0,0,0,,0,388,388,298,1,,
,,,,,,,,,,,,,,,,,,5b47e287bc06c90001f8b67d,2020-11-27_15h06.16.656,lexical_decision_task_MP_exp2,2020.2.5,Win32,60,,z,1,0.618795,,,,,,,,0.618795,1,,,,,,386,NW,UN,16,gronce,ANCUST,z,,,,,,0.01171875,-0.412760417,0,0,0,,0,389,389,445,1,,
,,,,,,,,,,,,,,,,,,5b47e287bc06c90001f8b67d,2020-11-27_15h06.16.656,lexical_decision_task_MP_exp2,2020.2.5,Win32,60,,m,1,0.618765,,,,,,,,0.618765,1,,,,,,101,WORD,UN,33,direct,WRENCH,m,,,,,,0.01171875,-0.412760417,0,0,0,,0,390,390,160,1,,
,,,,,,,,,,,,,,,,,,5b47e287bc06c90001f8b67d,2020-11-27_15h06.16.656,lexical_decision_task_MP_exp2,2020.2.5,Win32,60,,z,1,0.718825,,,,,,,,0.718825,1,,,,,,409,NW,UN,16,tunory,ELOPIA,z,,,,,,0.01171875,-0.412760417,0,0,0,,0,391,391,468,1,,
,,,,,,,,,,,,,,,,,,5b47e287bc06c90001f8b67d,2020-11-27_15h06.16.656,lexical_decision_task_MP_exp2,2020.2.5,Win32,60,,m,1,0.60213,,,,,,,,0.60213,1,,,,,,54,WORD,"ID",16,ramble,RAMBLE,m,,,,,,0.01171875,-0.412760417,0,0,0,,0,392,392,113,1,,
