counterbalancing_condition,instr_done_keyboard.keys,instr_done_keyboard.rt,instr_done_touch.x,instr_done_touch.y,instr_done_touch.leftButton,instr_done_touch.midButton,instr_done_touch.rightButton,instruction_pages.thisRepN,instruction_pages.thisTrialN,instruction_pages.thisN,instruction_pages.thisIndex,instruction_pages.ran,pageN,phase,instruct_text,has_image,instruct_image,participant,date,expName,psychopyVersion,OS,frameRate,instr_done_touch.clicked_name,response.keys,response.corr,touch_resp.x,touch_resp.y,touch_resp.leftButton,touch_resp.midButton,touch_resp.rightButton,touch_resp.time,touch_resp.clicked_name,rt,corr,practice_trials.thisRepN,practice_trials.thisTrialN,practice_trials.thisN,practice_trials.thisIndex,practice_trials.ran,TrialID,StimulusType,Condition,PrimeDuration,Prime,Target,corrAns,response.rt,end_of_practice_trials_pages.thisRepN,end_of_practice_trials_pages.thisTrialN,end_of_practice_trials_pages.thisN,end_of_practice_trials_pages.thisIndex,end_of_practice_trials_pages.ran,break_done_touch.x,break_done_touch.y,break_done_touch.leftButton,break_done_touch.midButton,break_done_touch.rightButton,break_done_keyboard.keys,experiment_trials.thisRepN,experiment_trials.thisTrialN,experiment_trials.thisN,experiment_trials.thisIndex,experiment_trials.ran,break_done_touch.clicked_name,break_done_keyboard.rt
3,space,10.43552,0.228379885,-0.003846685,0,0,0,0,0,0,0,1,1,instructions,"INSTRUCTIONS
At the start of each trial, look at the hash marks (######) in the center of the screen. After a moment, a string of letters will appear. Your task is to indicate if the letter string forms a word or not (i.e., if it is a nonword). For example, AUTHOR is a word while AUTHON is a nonword.

Press the space bar or touch the button below to continue.",0,,5bc9f8b677740000016a08b5,2020-11-27_10h02.32.737,lexical_decision_task_MP_exp2,2020.2.5,Linux x86_64,60,,,,,,,,,,,,,,,,,,,,,,,,,,,,,,,,,,,,,,,,,,,
,,,0.068688869,-0.410074552,1,0,0,0,1,1,1,1,2,instructions,"If your device has a keyboard, press the 'Z' key for nonwords and the 'M' key for words.





Press the space bar or touch the button below to continue.",1,keyboard-example.gif,5bc9f8b677740000016a08b5,2020-11-27_10h02.32.737,lexical_decision_task_MP_exp2,2020.2.5,Linux x86_64,60,instr_done_button,,,,,,,,,,,,,,,,,,,,,,,,,,,,,,,,,,,,,,,,,,
,,,0.068688869,-0.410074552,1,0,0,0,2,2,2,1,3,instructions,"If you are using a touchscreen only device, use the buttons on the screen. Do not use the mouse.





Press the space bar or touch the button below to continue.",1,touchscreen-example.gif,5bc9f8b677740000016a08b5,2020-11-27_10h02.32.737,lexical_decision_task_MP_exp2,2020.2.5,Linux x86_64,60,instr_done_button,,,,,,,,,,,,,,,,,,,,,,,,,,,,,,,,,,,,,,,,,,
,,,0.068688869,-0.410074552,1,0,0,0,3,3,3,1,4,instructions,"It is very important that you respond as quickly and accurately as possible, as each letter string will only be on the screen for two seconds. If you do not respond within this time, the message 'Too slow!' will be displayed and the experiment will progress to the next letter string. The first 20 trials will be practice trials and you will receive feedback on your answers. 

Press the space bar or touch the button below to start the practice trials.",0,,5bc9f8b677740000016a08b5,2020-11-27_10h02.32.737,lexical_decision_task_MP_exp2,2020.2.5,Linux x86_64,60,instr_done_button,,,,,,,,,,,,,,,,,,,,,,,,,,,,,,,,,,,,,,,,,,
,,,,,,,,,,,,,,,,,,5bc9f8b677740000016a08b5,2020-11-27_10h02.32.737,lexical_decision_task_MP_exp2,2020.2.5,Linux x86_64,60,,,0,,,,,,,,,-1,0,0,0,11,1,1012,NW,"ID",16,rashet,RASHET,z,,,,,,,,,,,,,,,,,,,
,,,,,,,,,,,,,,,,,,5bc9f8b677740000016a08b5,2020-11-27_10h02.32.737,lexical_decision_task_MP_exp2,2020.2.5,Linux x86_64,60,,m,0,,,,,,,,0.870735,0,0,1,1,8,1,1009,NW,"ID",33,aslert,ASLERT,z,0.870735,,,,,,,,,,,,,,,,,,
,,,,,,,,,,,,,,,,,,5bc9f8b677740000016a08b5,2020-11-27_10h02.32.737,lexical_decision_task_MP_exp2,2020.2.5,Linux x86_64,60,,z,0,,,,,,,,0.684415,0,0,2,2,5,1,1006,WORD,UN,33,frenzy,OBTAIN,m,0.684415,,,,,,,,,,,,,,,,,,
,,,,,,,,,,,,,,,,,,5bc9f8b677740000016a08b5,2020-11-27_10h02.32.737,lexical_decision_task_MP_exp2,2020.2.5,Linux x86_64,60,,z,1,,,,,,,,0.63363,1,0,3,3,15,1,1016,NW,UN,16,mushed,WHAISE,z,0.63363,,,,,,,,,,,,,,,,,,
,,,,,,,,,,,,,,,,,,5bc9f8b677740000016a08b5,2020-11-27_10h02.32.737,lexical_decision_task_MP_exp2,2020.2.5,Linux x86_64,60,,m,1,,,,,,,,0.52788,1,0,4,4,1,1,1002,WORD,"ID",33,adjust,ADJUST,m,0.52788,,,,,,,,,,,,,,,,,,
,,,,,,,,,,,,,,,,,,5bc9f8b677740000016a08b5,2020-11-27_10h02.32.737,lexical_decision_task_MP_exp2,2020.2.5,Linux x86_64,60,,m,1,,,,,,,,0.48903,1,0,5,5,2,1,1003,WORD,"ID",16,almond,ALMOND,m,0.48903,,,,,,,,,,,,,,,,,,
,,,,,,,,,,,,,,,,,,5bc9f8b677740000016a08b5,2020-11-27_10h02.32.737,lexical_decision_task_MP_exp2,2020.2.5,Linux x86_64,60,,z,1,,,,,,,,0.551015,1,0,6,6,12,1,1013,NW,UN,33,adveil,SPRINY,z,0.551015,,,,,,,,,,,,,,,,,,
,,,,,,,,,,,,,,,,,,5bc9f8b677740000016a08b5,2020-11-27_10h02.32.737,lexical_decision_task_MP_exp2,2020.2.5,Linux x86_64,60,,m,1,,,,,,,,0.533445,1,0,7,7,6,1,1007,WORD,UN,16,tropic,ZOMBIE,m,0.533445,,,,,,,,,,,,,,,,,,
,,,,,,,,,,,,,,,,,,5bc9f8b677740000016a08b5,2020-11-27_10h02.32.737,lexical_decision_task_MP_exp2,2020.2.5,Linux x86_64,60,,z,1,,,,,,,,0.49851,1,0,8,8,10,1,1011,NW,"ID",16,inlade,INLADE,z,0.49851,,,,,,,,,,,,,,,,,,
,,,,,,,,,,,,,,,,,,5bc9f8b677740000016a08b5,2020-11-27_10h02.32.737,lexical_decision_task_MP_exp2,2020.2.5,Linux x86_64,60,,m,1,,,,,,,,0.55338,1,0,9,9,0,1,1001,WORD,"ID",33,utopia,UTOPIA,m,0.55338,,,,,,,,,,,,,,,,,,
,,,,,,,,,,,,,,,,,,5bc9f8b677740000016a08b5,2020-11-27_10h02.32.737,lexical_decision_task_MP_exp2,2020.2.5,Linux x86_64,60,,m,1,,,,,,,,0.501195,1,0,10,10,7,1,1008,WORD,UN,16,hurdle,VOLUME,m,0.501195,,,,,,,,,,,,,,,,,,
,,,,,,,,,,,,,,,,,,5bc9f8b677740000016a08b5,2020-11-27_10h02.32.737,lexical_decision_task_MP_exp2,2020.2.5,Linux x86_64,60,,z,1,,,,,,,,0.50479,1,0,11,11,9,1,1010,NW,"ID",33,fariny,FARINY,z,0.50479,,,,,,,,,,,,,,,,,,
,,,,,,,,,,,,,,,,,,5bc9f8b677740000016a08b5,2020-11-27_10h02.32.737,lexical_decision_task_MP_exp2,2020.2.5,Linux x86_64,60,,z,1,,,,,,,,0.531855,1,0,12,12,13,1,1014,NW,UN,33,winfer,ROUPET,z,0.531855,,,,,,,,,,,,,,,,,,
,,,,,,,,,,,,,,,,,,5bc9f8b677740000016a08b5,2020-11-27_10h02.32.737,lexical_decision_task_MP_exp2,2020.2.5,Linux x86_64,60,,m,1,,,,,,,,0.63205,1,0,13,13,4,1,1005,WORD,UN,33,abound,SQUEAK,m,0.63205,,,,,,,,,,,,,,,,,,
,,,,,,,,,,,,,,,,,,5bc9f8b677740000016a08b5,2020-11-27_10h02.32.737,lexical_decision_task_MP_exp2,2020.2.5,Linux x86_64,60,,z,1,,,,,,,,0.545845,1,0,14,14,14,1,1015,NW,UN,16,miaber,THRALE,z,0.545845,,,,,,,,,,,,,,,,,,
,,,,,,,,,,,,,,,,,,5bc9f8b677740000016a08b5,2020-11-27_10h02.32.737,lexical_decision_task_MP_exp2,2020.2.5,Linux x86_64,60,,m,1,,,,,,,,0.60238,1,0,15,15,3,1,1004,WORD,"ID",16,matrix,MATRIX,m,0.60238,,,,,,,,,,,,,,,,,,
,,,0.029412746,-0.395319382,1,0,0,,,,,,1,end_of_practice,"You have completed the practice trials. During the experimental trials, you will not receive feedback, but it is very important that you respond as quickly and accurately as possible. 
Before you begin, please ensure that you are in a comfortable and quiet location and will not be disturbed for about 15 minutes, as we cannot use your data if you do not complete all the trials. 
There will be opportunities to take breaks at regular intervals during the experiment. When you are ready to start the experimental trials, please press space or touch the button below.",,,5bc9f8b677740000016a08b5,2020-11-27_10h02.32.737,lexical_decision_task_MP_exp2,2020.2.5,Linux x86_64,60,instr_done_button,,,,,,,,,,,,,,,,,,,,,,,,,0,0,0,0,1,,,,,,,,,,,,,
,,,,,,,,,,,,,,,,,,5bc9f8b677740000016a08b5,2020-11-27_10h02.32.737,lexical_decision_task_MP_exp2,2020.2.5,Linux x86_64,60,,z,1,,,,,,,,0.783365,1,,,,,,409,NW,"ID",16,elopia,ELOPIA,z,0.783365,,,,,,0.030798197,-0.396704833,0,0,0,,0,0,0,348,1,,
,,,,,,,,,,,,,,,,,,5bc9f8b677740000016a08b5,2020-11-27_10h02.32.737,lexical_decision_task_MP_exp2,2020.2.5,Linux x86_64,60,,z,1,,,,,,,,0.932125,1,,,,,,359,NW,"ID",33,fonver,FONVER,z,0.932125,,,,,,0.030798197,-0.396704833,0,0,0,,0,1,1,298,1,,
,,,,,,,,,,,,,,,,,,5bc9f8b677740000016a08b5,2020-11-27_10h02.32.737,lexical_decision_task_MP_exp2,2020.2.5,Linux x86_64,60,,m,1,,,,,,,,0.590735,1,,,,,,3,WORD,UN,16,trench,KNIGHT,m,0.590735,,,,,,0.030798197,-0.396704833,0,0,0,,0,2,2,182,1,,
,,,,,,,,,,,,,,,,,,5bc9f8b677740000016a08b5,2020-11-27_10h02.32.737,lexical_decision_task_MP_exp2,2020.2.5,Linux x86_64,60,,m,1,,,,,,,,0.56072,1,,,,,,79,WORD,"ID",33,theory,THEORY,m,0.56072,,,,,,0.030798197,-0.396704833,0,0,0,,0,3,3,18,1,,
,,,,,,,,,,,,,,,,,,5bc9f8b677740000016a08b5,2020-11-27_10h02.32.737,lexical_decision_task_MP_exp2,2020.2.5,Linux x86_64,60,,m,1,,,,,,,,0.486535,1,,,,,,168,WORD,"ID",16,answer,ANSWER,m,0.486535,,,,,,0.030798197,-0.396704833,0,0,0,,0,4,4,107,1,,
,,,,,,,,,,,,,,,,,,5bc9f8b677740000016a08b5,2020-11-27_10h02.32.737,lexical_decision_task_MP_exp2,2020.2.5,Linux x86_64,60,,z,1,,,,,,,,0.513285,1,,,,,,390,NW,"ID",16,hatrus,HATRUS,z,0.513285,,,,,,0.030798197,-0.396704833,0,0,0,,0,5,5,329,1,,
,,,,,,,,,,,,,,,,,,5bc9f8b677740000016a08b5,2020-11-27_10h02.32.737,lexical_decision_task_MP_exp2,2020.2.5,Linux x86_64,60,,m,1,,,,,,,,0.559645,1,,,,,,102,WORD,"ID",33,direct,DIRECT,m,0.559645,,,,,,0.030798197,-0.396704833,0,0,0,,0,6,6,41,1,,
,,,,,,,,,,,,,,,,,,5bc9f8b677740000016a08b5,2020-11-27_10h02.32.737,lexical_decision_task_MP_exp2,2020.2.5,Linux x86_64,60,,m,1,,,,,,,,0.477325,1,,,,,,238,WORD,UN,33,behalf,FLOWER,m,0.477325,,,,,,0.030798197,-0.396704833,0,0,0,,0,7,7,177,1,,
,,,,,,,,,,,,,,,,,,5bc9f8b677740000016a08b5,2020-11-27_10h02.32.737,lexical_decision_task_MP_exp2,2020.2.5,Linux x86_64,60,,z,1,,,,,,,,0.546415,1,,,,,,293,NW,UN,16,inhort,SWANCE,z,0.546415,,,,,,0.030798197,-0.396704833,0,0,0,,0,8,8,472,1,,
,,,,,,,,,,,,,,,,,,5bc9f8b677740000016a08b5,2020-11-27_10h02.32.737,lexical_decision_task_MP_exp2,2020.2.5,Linux x86_64,60,,m,0,,,,,,,,0.543085,0,,,,,,407,NW,"ID",16,suiver,SUIVER,z,0.543085,,,,,,0.030798197,-0.396704833,0,0,0,,0,9,9,346,1,,
,,,,,,,,,,,,,,,,,,5bc9f8b677740000016a08b5,2020-11-27_10h02.32.737,lexical_decision_task_MP_exp2,2020.2.5,Linux x86_64,60,,z,1,,,,,,,,0.81808,1,,,,,,328,NW,"ID",33,broake,BROAKE,z,0.81808,,,,,,0.030798197,-0.396704833,0,0,0,,0,10,10,267,1,,
,,,,,,,,,,,,,,,,,,5bc9f8b677740000016a08b5,2020-11-27_10h02.32.737,lexical_decision_task_MP_exp2,2020.2.5,Linux x86_64,60,,z,1,,,,,,,,0.52761,1,,,,,,444,NW,UN,33,minkel,JAUNCE,z,0.52761,,,,,,0.030798197,-0.396704833,0,0,0,,0,11,11,383,1,,
,,,,,,,,,,,,,,,,,,5bc9f8b677740000016a08b5,2020-11-27_10h02.32.737,lexical_decision_task_MP_exp2,2020.2.5,Linux x86_64,60,,m,1,,,,,,,,0.66283,1,,,,,,80,WORD,"ID",33,family,FAMILY,m,0.66283,,,,,,0.030798197,-0.396704833,0,0,0,,0,12,12,19,1,,
,,,,,,,,,,,,,,,,,,5bc9f8b677740000016a08b5,2020-11-27_10h02.32.737,lexical_decision_task_MP_exp2,2020.2.5,Linux x86_64,60,,z,1,,,,,,,,0.575055,1,,,,,,368,NW,"ID",16,hornal,HORNAL,z,0.575055,,,,,,0.030798197,-0.396704833,0,0,0,,0,13,13,307,1,,
,,,,,,,,,,,,,,,,,,5bc9f8b677740000016a08b5,2020-11-27_10h02.32.737,lexical_decision_task_MP_exp2,2020.2.5,Linux x86_64,60,,m,1,,,,,,,,0.58201,1,,,,,,19,WORD,UN,16,breast,PATRON,m,0.58201,,,,,,0.030798197,-0.396704833,0,0,0,,0,14,14,198,1,,
,,,,,,,,,,,,,,,,,,5bc9f8b677740000016a08b5,2020-11-27_10h02.32.737,lexical_decision_task_MP_exp2,2020.2.5,Linux x86_64,60,,m,1,,,,,,,,0.506765,1,,,,,,56,WORD,UN,16,change,AMBUSH,m,0.506765,,,,,,0.030798197,-0.396704833,0,0,0,,0,15,15,235,1,,
,,,,,,,,,,,,,,,,,,5bc9f8b677740000016a08b5,2020-11-27_10h02.32.737,lexical_decision_task_MP_exp2,2020.2.5,Linux x86_64,60,,m,1,,,,,,,,0.474375,1,,,,,,237,WORD,UN,33,glance,POSTER,m,0.474375,,,,,,0.030798197,-0.396704833,0,0,0,,0,16,16,176,1,,
,,,,,,,,,,,,,,,,,,5bc9f8b677740000016a08b5,2020-11-27_10h02.32.737,lexical_decision_task_MP_exp2,2020.2.5,Linux x86_64,60,,m,1,,,,,,,,0.528035,1,,,,,,94,WORD,"ID",33,travel,TRAVEL,m,0.528035,,,,,,0.030798197,-0.396704833,0,0,0,,0,17,17,33,1,,
,,,,,,,,,,,,,,,,,,5bc9f8b677740000016a08b5,2020-11-27_10h02.32.737,lexical_decision_task_MP_exp2,2020.2.5,Linux x86_64,60,,z,1,,,,,,,,0.618545,1,,,,,,298,NW,UN,16,sturch,PIERGY,z,0.618545,,,,,,0.030798197,-0.396704833,0,0,0,,0,18,18,477,1,,
,,,,,,,,,,,,,,,,,,5bc9f8b677740000016a08b5,2020-11-27_10h02.32.737,lexical_decision_task_MP_exp2,2020.2.5,Linux x86_64,60,,z,1,,,,,,,,0.600615,1,,,,,,329,NW,"ID",33,yarike,YARIKE,z,0.600615,,,,,,0.030798197,-0.396704833,0,0,0,,0,19,19,268,1,,
,,,,,,,,,,,,,,,,,,5bc9f8b677740000016a08b5,2020-11-27_10h02.32.737,lexical_decision_task_MP_exp2,2020.2.5,Linux x86_64,60,,m,1,,,,,,,,0.566045,1,,,,,,202,WORD,UN,33,phrase,FACTOR,m,0.566045,,,,,,0.030798197,-0.396704833,0,0,0,,0,20,20,141,1,,
,,,,,,,,,,,,,,,,,,5bc9f8b677740000016a08b5,2020-11-27_10h02.32.737,lexical_decision_task_MP_exp2,2020.2.5,Linux x86_64,60,,z,1,,,,,,,,0.59012,1,,,,,,318,NW,"ID",33,reagly,REAGLY,z,0.59012,,,,,,0.030798197,-0.396704833,0,0,0,,0,21,21,257,1,,
,,,,,,,,,,,,,,,,,,5bc9f8b677740000016a08b5,2020-11-27_10h02.32.737,lexical_decision_task_MP_exp2,2020.2.5,Linux x86_64,60,,z,1,,,,,,,,0.5994,1,,,,,,313,NW,"ID",33,paurse,PAURSE,z,0.5994,,,,,,0.030798197,-0.396704833,0,0,0,,0,22,22,252,1,,
,,,,,,,,,,,,,,,,,,5bc9f8b677740000016a08b5,2020-11-27_10h02.32.737,lexical_decision_task_MP_exp2,2020.2.5,Linux x86_64,60,,m,1,,,,,,,,0.548505,1,,,,,,76,WORD,"ID",33,exotic,EXOTIC,m,0.548505,,,,,,0.030798197,-0.396704833,0,0,0,,0,23,23,15,1,,
,,,,,,,,,,,,,,,,,,5bc9f8b677740000016a08b5,2020-11-27_10h02.32.737,lexical_decision_task_MP_exp2,2020.2.5,Linux x86_64,60,,z,1,,,,,,,,0.502825,1,,,,,,446,NW,UN,33,gircue,RUNAMO,z,0.502825,,,,,,0.030798197,-0.396704833,0,0,0,,0,24,24,385,1,,
,,,,,,,,,,,,,,,,,,5bc9f8b677740000016a08b5,2020-11-27_10h02.32.737,lexical_decision_task_MP_exp2,2020.2.5,Linux x86_64,60,,z,1,,,,,,,,0.615235,1,,,,,,314,NW,"ID",33,sprine,SPRINE,z,0.615235,,,,,,0.030798197,-0.396704833,0,0,0,,0,25,25,253,1,,
,,,,,,,,,,,,,,,,,,5bc9f8b677740000016a08b5,2020-11-27_10h02.32.737,lexical_decision_task_MP_exp2,2020.2.5,Linux x86_64,60,,m,1,,,,,,,,0.63739,1,,,,,,174,WORD,"ID",16,turkey,TURKEY,m,0.63739,,,,,,0.030798197,-0.396704833,0,0,0,,0,26,26,113,1,,
,,,,,,,,,,,,,,,,,,5bc9f8b677740000016a08b5,2020-11-27_10h02.32.737,lexical_decision_task_MP_exp2,2020.2.5,Linux x86_64,60,,z,1,,,,,,,,0.54158,1,,,,,,419,NW,"ID",16,slount,SLOUNT,z,0.54158,,,,,,0.030798197,-0.396704833,0,0,0,,0,27,27,358,1,,
,,,,,,,,,,,,,,,,,,5bc9f8b677740000016a08b5,2020-11-27_10h02.32.737,lexical_decision_task_MP_exp2,2020.2.5,Linux x86_64,60,,z,1,,,,,,,,0.54657,1,,,,,,355,NW,"ID",33,zingly,ZINGLY,z,0.54657,,,,,,0.030798197,-0.396704833,0,0,0,,0,28,28,294,1,,
,,,,,,,,,,,,,,,,,,5bc9f8b677740000016a08b5,2020-11-27_10h02.32.737,lexical_decision_task_MP_exp2,2020.2.5,Linux x86_64,60,,m,1,,,,,,,,0.533835,1,,,,,,30,WORD,UN,16,weapon,ORIENT,m,0.533835,,,,,,0.030798197,-0.396704833,0,0,0,,0,29,29,209,1,,
,,,,,,,,,,,,,,,,,,5bc9f8b677740000016a08b5,2020-11-27_10h02.32.737,lexical_decision_task_MP_exp2,2020.2.5,Linux x86_64,60,,m,1,,,,,,,,0.525895,1,,,,,,162,WORD,"ID",16,candle,CANDLE,m,0.525895,,,,,,0.030798197,-0.396704833,0,0,0,,0,30,30,101,1,,
,,,,,,,,,,,,,,,,,,5bc9f8b677740000016a08b5,2020-11-27_10h02.32.737,lexical_decision_task_MP_exp2,2020.2.5,Linux x86_64,60,,m,1,,,,,,,,0.43994,1,,,,,,98,WORD,"ID",33,belong,BELONG,m,0.43994,,,,,,0.030798197,-0.396704833,0,0,0,,0,31,31,37,1,,
,,,,,,,,,,,,,,,,,,5bc9f8b677740000016a08b5,2020-11-27_10h02.32.737,lexical_decision_task_MP_exp2,2020.2.5,Linux x86_64,60,,z,0,,,,,,,,0.51671,0,,,,,,181,WORD,UN,33,winter,GLANCE,m,0.51671,,,,,,0.030798197,-0.396704833,0,0,0,,0,32,32,120,1,,
,,,,,,,,,,,,,,,,,,5bc9f8b677740000016a08b5,2020-11-27_10h02.32.737,lexical_decision_task_MP_exp2,2020.2.5,Linux x86_64,60,,m,1,,,,,,,,0.67394,1,,,,,,57,WORD,UN,16,danger,CHANGE,m,0.67394,,,,,,0.030798197,-0.396704833,0,0,0,,0,33,33,236,1,,
,,,,,,,,,,,,,,,,,,5bc9f8b677740000016a08b5,2020-11-27_10h02.32.737,lexical_decision_task_MP_exp2,2020.2.5,Linux x86_64,60,,z,1,,,,,,,,0.56722,1,,,,,,435,NW,UN,33,frutan,IMPURB,z,0.56722,,,,,,0.030798197,-0.396704833,0,0,0,,0,34,34,374,1,,
,,,,,,,,,,,,,,,,,,5bc9f8b677740000016a08b5,2020-11-27_10h02.32.737,lexical_decision_task_MP_exp2,2020.2.5,Linux x86_64,60,,z,1,,,,,,,,0.54796,1,,,,,,439,NW,UN,33,saride,LIMPOR,z,0.54796,,,,,,0.030798197,-0.396704833,0,0,0,,0,35,35,378,1,,
,,,,,,,,,,,,,,,,,,5bc9f8b677740000016a08b5,2020-11-27_10h02.32.737,lexical_decision_task_MP_exp2,2020.2.5,Linux x86_64,60,,m,1,,,,,,,,0.596825,1,,,,,,13,WORD,UN,16,almost,STRIVE,m,0.596825,,,,,,0.030798197,-0.396704833,0,0,0,,0,36,36,192,1,,
,,,,,,,,,,,,,,,,,,5bc9f8b677740000016a08b5,2020-11-27_10h02.32.737,lexical_decision_task_MP_exp2,2020.2.5,Linux x86_64,60,,m,1,,,,,,,,0.544785,1,,,,,,22,WORD,UN,16,wealth,JOCKEY,m,0.544785,,,,,,0.030798197,-0.396704833,0,0,0,,0,37,37,201,1,,
,,,,,,,,,,,,,,,,,,5bc9f8b677740000016a08b5,2020-11-27_10h02.32.737,lexical_decision_task_MP_exp2,2020.2.5,Linux x86_64,60,,z,1,,,,,,,,0.58384,1,,,,,,347,NW,"ID",33,kerift,KERIFT,z,0.58384,,,,,,0.030798197,-0.396704833,0,0,0,,0,38,38,286,1,,
,,,,,,,,,,,,,,,,,,5bc9f8b677740000016a08b5,2020-11-27_10h02.32.737,lexical_decision_task_MP_exp2,2020.2.5,Linux x86_64,60,,m,0,,,,,,,,0.683595,0,,,,,,335,NW,"ID",33,desion,DESION,z,0.683595,,,,,,0.030798197,-0.396704833,0,0,0,,0,39,39,274,1,,
,,,,,,,,,,,,,,,,,,5bc9f8b677740000016a08b5,2020-11-27_10h02.32.737,lexical_decision_task_MP_exp2,2020.2.5,Linux x86_64,60,,m,1,,,,,,,,0.63315,1,,,,,,86,WORD,"ID",33,rodent,RODENT,m,0.63315,,,,,,0.030798197,-0.396704833,0,0,0,,0,40,40,25,1,,
,,,,,,,,,,,,,,,,,,5bc9f8b677740000016a08b5,2020-11-27_10h02.32.737,lexical_decision_task_MP_exp2,2020.2.5,Linux x86_64,60,,m,1,,,,,,,,0.58379,1,,,,,,99,WORD,"ID",33,fluent,FLUENT,m,0.58379,,,,,,0.030798197,-0.396704833,0,0,0,,0,41,41,38,1,,
,,,,,,,,,,,,,,,,,,5bc9f8b677740000016a08b5,2020-11-27_10h02.32.737,lexical_decision_task_MP_exp2,2020.2.5,Linux x86_64,60,,z,1,,,,,,,,0.564965,1,,,,,,246,NW,UN,16,blarge,PIATON,z,0.564965,,,,,,0.030798197,-0.396704833,0,0,0,,0,42,42,425,1,,
,,,,,,,,,,,,,,,,,,5bc9f8b677740000016a08b5,2020-11-27_10h02.32.737,lexical_decision_task_MP_exp2,2020.2.5,Linux x86_64,60,,m,1,,,,,,,,0.58644,1,,,,,,134,WORD,"ID",16,staple,STAPLE,m,0.58644,,,,,,0.030798197,-0.396704833,0,0,0,,0,43,43,73,1,,
,,,,,,,,,,,,,,,,,,5bc9f8b677740000016a08b5,2020-11-27_10h02.32.737,lexical_decision_task_MP_exp2,2020.2.5,Linux x86_64,60,,z,1,,,,,,,,0.583825,1,,,,,,251,NW,UN,16,stapod,LUPICT,z,0.583825,,,,,,0.030798197,-0.396704833,0,0,0,,0,44,44,430,1,,
,,,,,,,,,,,,,,,,,,5bc9f8b677740000016a08b5,2020-11-27_10h02.32.737,lexical_decision_task_MP_exp2,2020.2.5,Linux x86_64,60,,z,1,,,,,,,,0.516825,1,,,,,,349,NW,"ID",33,asylen,ASYLEN,z,0.516825,,,,,,0.030798197,-0.396704833,0,0,0,,0,45,45,288,1,,
,,,,,,,,,,,,,,,,,,5bc9f8b677740000016a08b5,2020-11-27_10h02.32.737,lexical_decision_task_MP_exp2,2020.2.5,Linux x86_64,60,,z,1,,,,,,,,0.61145,1,,,,,,268,NW,UN,16,orchet,PACKES,z,0.61145,,,,,,0.030798197,-0.396704833,0,0,0,,0,46,46,447,1,,
,,,,,,,,,,,,,,,,,,5bc9f8b677740000016a08b5,2020-11-27_10h02.32.737,lexical_decision_task_MP_exp2,2020.2.5,Linux x86_64,60,,m,1,,,,,,,,0.604245,1,,,,,,40,WORD,UN,16,spring,CONVEY,m,0.604245,,,,,,0.030798197,-0.396704833,0,0,0,,0,47,47,219,1,,
,,,,,,,,,,,,,,,,,,5bc9f8b677740000016a08b5,2020-11-27_10h02.32.737,lexical_decision_task_MP_exp2,2020.2.5,Linux x86_64,60,,z,1,,,,,,,,0.543835,1,,,,,,263,NW,UN,16,vackel,DOLICA,z,0.543835,,,,,,0.030798197,-0.396704833,0,0,0,,0,48,48,442,1,,
,,,,,,,,,,,,,,,,,,5bc9f8b677740000016a08b5,2020-11-27_10h02.32.737,lexical_decision_task_MP_exp2,2020.2.5,Linux x86_64,60,,m,1,,,,,,,,0.52581,1,,,,,,89,WORD,"ID",33,permit,PERMIT,m,0.52581,,,,,,0.030798197,-0.396704833,0,0,0,,0,49,49,28,1,,
,,,,,,,,,,,,,,,,,,5bc9f8b677740000016a08b5,2020-11-27_10h02.32.737,lexical_decision_task_MP_exp2,2020.2.5,Linux x86_64,60,,m,1,,,,,,,,0.581285,1,,,,,,68,WORD,"ID",33,fumble,FUMBLE,m,0.581285,,,,,,0.030798197,-0.396704833,0,0,0,,0,50,50,7,1,,
,,,,,,,,,,,,,,,,,,5bc9f8b677740000016a08b5,2020-11-27_10h02.32.737,lexical_decision_task_MP_exp2,2020.2.5,Linux x86_64,60,,z,1,,,,,,,,0.594945,1,,,,,,265,NW,UN,16,varmit,DISTAR,z,0.594945,,,,,,0.030798197,-0.396704833,0,0,0,,0,51,51,444,1,,
,,,,,,,,,,,,,,,,,,5bc9f8b677740000016a08b5,2020-11-27_10h02.32.737,lexical_decision_task_MP_exp2,2020.2.5,Linux x86_64,60,,z,1,,,,,,,,0.515945,1,,,,,,367,NW,"ID",16,slique,SLIQUE,z,0.515945,,,,,,0.030798197,-0.396704833,0,0,0,,0,52,52,306,1,,
,,,,,,,,,,,,,,,,,,5bc9f8b677740000016a08b5,2020-11-27_10h02.32.737,lexical_decision_task_MP_exp2,2020.2.5,Linux x86_64,60,,m,0,,,,,,,,0.501195,0,,,,,,319,NW,"ID",33,zomber,ZOMBER,z,0.501195,,,,,,0.030798197,-0.396704833,0,0,0,,0,53,53,258,1,,
,,,,,,,,,,,,,,,,,,5bc9f8b677740000016a08b5,2020-11-27_10h02.32.737,lexical_decision_task_MP_exp2,2020.2.5,Linux x86_64,60,,m,1,,,,,,,,0.558845,1,,,,,,177,WORD,"ID",16,advent,ADVENT,m,0.558845,,,,,,0.030798197,-0.396704833,0,0,0,,0,54,54,116,1,,
,,,,,,,,,,,,,,,,,,5bc9f8b677740000016a08b5,2020-11-27_10h02.32.737,lexical_decision_task_MP_exp2,2020.2.5,Linux x86_64,60,,z,1,,,,,,,,0.51676,1,,,,,,340,NW,"ID",33,fiatch,FIATCH,z,0.51676,,,,,,0.030798197,-0.396704833,0,0,0,,0,55,55,279,1,,
,,,,,,,,,,,,,,,,,,5bc9f8b677740000016a08b5,2020-11-27_10h02.32.737,lexical_decision_task_MP_exp2,2020.2.5,Linux x86_64,60,,m,1,,,,,,,,0.558115,1,,,,,,236,WORD,UN,33,grumpy,PIRATE,m,0.558115,,,,,,0.030798197,-0.396704833,0,0,0,,0,56,56,175,1,,
,,,,,,,,,,,,,,,,,,5bc9f8b677740000016a08b5,2020-11-27_10h02.32.737,lexical_decision_task_MP_exp2,2020.2.5,Linux x86_64,60,,m,1,,,,,,,,0.482655,1,,,,,,75,WORD,"ID",33,trophy,TROPHY,m,0.482655,,,,,,0.030798197,-0.396704833,0,0,0,,0,57,57,14,1,,
,,,,,,,,,,,,,,,,,,5bc9f8b677740000016a08b5,2020-11-27_10h02.32.737,lexical_decision_task_MP_exp2,2020.2.5,Linux x86_64,60,,z,1,,,,,,,,0.652105,1,,,,,,441,NW,UN,33,aboune,RASTOE,z,0.652105,,,,,,0.030798197,-0.396704833,0,0,0,,0,58,58,380,1,,
,,,,,,,,,,,,,,,,,,5bc9f8b677740000016a08b5,2020-11-27_10h02.32.737,lexical_decision_task_MP_exp2,2020.2.5,Linux x86_64,60,,z,1,,,,,,,,0.52526,1,,,,,,249,NW,UN,16,milted,BATROL,z,0.52526,,,,,,0.030798197,-0.396704833,0,0,0,,0,59,59,428,1,,
,,,,,,,,,,,,,,,,,,5bc9f8b677740000016a08b5,2020-11-27_10h02.32.737,lexical_decision_task_MP_exp2,2020.2.5,Linux x86_64,60,,m,1,,,,,,,,0.602005,1,,,,,,212,WORD,UN,33,squeal,VERIFY,m,0.602005,,,,,,0.030798197,-0.396704833,0,0,0,,0,60,60,151,1,,
,,,,,,,,,,,,,,,,,,5bc9f8b677740000016a08b5,2020-11-27_10h02.32.737,lexical_decision_task_MP_exp2,2020.2.5,Linux x86_64,60,,m,1,,,,,,,,0.48698,1,,,,,,2,WORD,UN,16,knight,BRIDGE,m,0.48698,,,,,,0.030798197,-0.396704833,0,0,0,,0,61,61,181,1,,
,,,,,,,,,,,,,,,,,,5bc9f8b677740000016a08b5,2020-11-27_10h02.32.737,lexical_decision_task_MP_exp2,2020.2.5,Linux x86_64,60,,m,1,,,,,,,,0.46656,1,,,,,,231,WORD,UN,33,inject,EXPORT,m,0.46656,,,,,,0.030798197,-0.396704833,0,0,0,,0,62,62,170,1,,
,,,,,,,,,,,,,,,,,,5bc9f8b677740000016a08b5,2020-11-27_10h02.32.737,lexical_decision_task_MP_exp2,2020.2.5,Linux x86_64,60,,z,1,,,,,,,,0.636715,1,,,,,,453,NW,UN,33,scouge,BOLVIS,z,0.636715,,,,,,0.030798197,-0.396704833,0,0,0,,0,63,63,392,1,,
,,,,,,,,,,,,,,,,,,5bc9f8b677740000016a08b5,2020-11-27_10h02.32.737,lexical_decision_task_MP_exp2,2020.2.5,Linux x86_64,60,,z,1,,,,,,,,0.5663,1,,,,,,332,NW,"ID",33,vangue,VANGUE,z,0.5663,,,,,,0.030798197,-0.396704833,0,0,0,,0,64,64,271,1,,
,,,,,,,,,,,,,,,,,,5bc9f8b677740000016a08b5,2020-11-27_10h02.32.737,lexical_decision_task_MP_exp2,2020.2.5,Linux x86_64,60,,m,1,,,,,,,,0.583505,1,,,,,,156,WORD,"ID",16,cradle,CRADLE,m,0.583505,,,,,,0.030798197,-0.396704833,0,0,0,,0,65,65,95,1,,
,,,,,,,,,,,,,,,,,,5bc9f8b677740000016a08b5,2020-11-27_10h02.32.737,lexical_decision_task_MP_exp2,2020.2.5,Linux x86_64,60,,m,1,,,,,,,,0.578955,1,,,,,,114,WORD,"ID",33,placid,PLACID,m,0.578955,,,,,,0.030798197,-0.396704833,0,0,0,,0,66,66,53,1,,
,,,,,,,,,,,,,,,,,,5bc9f8b677740000016a08b5,2020-11-27_10h02.32.737,lexical_decision_task_MP_exp2,2020.2.5,Linux x86_64,60,,z,1,,,,,,,,0.64124,1,,,,,,350,NW,"ID",33,nagurs,NAGURS,z,0.64124,,,,,,0.030798197,-0.396704833,0,0,0,,0,67,67,289,1,,
,,,,,,,,,,,,,,,,,,5bc9f8b677740000016a08b5,2020-11-27_10h02.32.737,lexical_decision_task_MP_exp2,2020.2.5,Linux x86_64,60,,z,1,,,,,,,,0.489085,1,,,,,,278,NW,UN,16,celond,UNIGHS,z,0.489085,,,,,,0.030798197,-0.396704833,0,0,0,,0,68,68,457,1,,
,,,,,,,,,,,,,,,,,,5bc9f8b677740000016a08b5,2020-11-27_10h02.32.737,lexical_decision_task_MP_exp2,2020.2.5,Linux x86_64,60,,z,1,,,,,,,,0.584015,1,,,,,,433,NW,UN,33,pitrom,DRANCE,z,0.584015,,,,,,0.030798197,-0.396704833,0,0,0,,0,69,69,372,1,,
,,,,,,,,,,,,,,,,,,5bc9f8b677740000016a08b5,2020-11-27_10h02.32.737,lexical_decision_task_MP_exp2,2020.2.5,Linux x86_64,60,,m,1,,,,,,,,0.65982,1,,,,,,188,WORD,UN,33,censor,SOCIAL,m,0.65982,,,,,,0.030798197,-0.396704833,0,0,0,,0,70,70,127,1,,
,,,,,,,,,,,,,,,,,,5bc9f8b677740000016a08b5,2020-11-27_10h02.32.737,lexical_decision_task_MP_exp2,2020.2.5,Linux x86_64,60,,m,0,,,,,,,,0.480355,0,,,,,,472,NW,UN,33,gorbie,CIGNEY,z,0.480355,,,,,,0.030798197,-0.396704833,0,0,0,,0,71,71,411,1,,
,,,,,,,,,,,,,,,,,,5bc9f8b677740000016a08b5,2020-11-27_10h02.32.737,lexical_decision_task_MP_exp2,2020.2.5,Linux x86_64,60,,m,0,,,,,,,,0.5107,0,,,,,,345,NW,"ID",33,absend,ABSEND,z,0.5107,,,,,,0.030798197,-0.396704833,0,0,0,,0,72,72,284,1,,
,,,,,,,,,,,,,,,,,,5bc9f8b677740000016a08b5,2020-11-27_10h02.32.737,lexical_decision_task_MP_exp2,2020.2.5,Linux x86_64,60,,z,1,,,,,,,,0.66707,1,,,,,,272,NW,UN,16,sortel,DAMILT,z,0.66707,,,,,,0.030798197,-0.396704833,0,0,0,,0,73,73,451,1,,
,,,,,,,,,,,,,,,,,,5bc9f8b677740000016a08b5,2020-11-27_10h02.32.737,lexical_decision_task_MP_exp2,2020.2.5,Linux x86_64,60,,z,1,,,,,,,,0.76535,1,,,,,,261,NW,UN,16,quilew,STUNCH,z,0.76535,,,,,,0.030798197,-0.396704833,0,0,0,,0,74,74,440,1,,
,,,,,,,,,,,,,,,,,,5bc9f8b677740000016a08b5,2020-11-27_10h02.32.737,lexical_decision_task_MP_exp2,2020.2.5,Linux x86_64,60,,z,1,,,,,,,,0.48407,1,,,,,,247,NW,UN,16,strole,BLARGE,z,0.48407,,,,,,0.030798197,-0.396704833,0,0,0,,0,75,75,426,1,,
,,,,,,,,,,,,,,,,,,5bc9f8b677740000016a08b5,2020-11-27_10h02.32.737,lexical_decision_task_MP_exp2,2020.2.5,Linux x86_64,60,,z,0,,,,,,,,0.539215,0,,,,,,206,WORD,UN,33,wreath,TAILOR,m,0.539215,,,,,,0.030798197,-0.396704833,0,0,0,,0,76,76,145,1,,
,,,,,,,,,,,,,,,,,,5bc9f8b677740000016a08b5,2020-11-27_10h02.32.737,lexical_decision_task_MP_exp2,2020.2.5,Linux x86_64,60,,m,1,,,,,,,,0.528285,1,,,,,,60,WORD,UN,16,fright,PENCIL,m,0.528285,,,,,,0.030798197,-0.396704833,0,0,0,,0,77,77,239,1,,
,,,,,,,,,,,,,,,,,,5bc9f8b677740000016a08b5,2020-11-27_10h02.32.737,lexical_decision_task_MP_exp2,2020.2.5,Linux x86_64,60,,z,1,,,,,,,,0.60417,1,,,,,,337,NW,"ID",33,rejols,REJOLS,z,0.60417,,,,,,0.030798197,-0.396704833,0,0,0,,0,78,78,276,1,,
,,,,,,,,,,,,,,,,,,5bc9f8b677740000016a08b5,2020-11-27_10h02.32.737,lexical_decision_task_MP_exp2,2020.2.5,Linux x86_64,60,,m,1,,,,,,,,0.521225,1,,,,,,109,WORD,"ID",33,wonder,WONDER,m,0.521225,,,,,,0.030798197,-0.396704833,0,0,0,,0,79,79,48,1,,
,,,,,,,,,,,,,,,,,,5bc9f8b677740000016a08b5,2020-11-27_10h02.32.737,lexical_decision_task_MP_exp2,2020.2.5,Linux x86_64,60,,z,1,,,,,,,,0.520185,1,,,,,,466,NW,UN,33,robuly,HOCITE,z,0.520185,,,,,,0.030798197,-0.396704833,0,0,0,,0,80,80,405,1,,
,,,,,,,,,,,,,,,,,,5bc9f8b677740000016a08b5,2020-11-27_10h02.32.737,lexical_decision_task_MP_exp2,2020.2.5,Linux x86_64,60,,m,1,,,,,,,,0.504715,1,,,,,,121,WORD,"ID",16,thrive,THRIVE,m,0.504715,,,,,,0.030798197,-0.396704833,0,0,0,,0,81,81,60,1,,
,,,,,,,,,,,,,,,,,,5bc9f8b677740000016a08b5,2020-11-27_10h02.32.737,lexical_decision_task_MP_exp2,2020.2.5,Linux x86_64,60,,z,1,,,,,,,,0.58338,1,,,,,,379,NW,"ID",16,auting,AUTING,z,0.58338,,,,,,0.030798197,-0.396704833,0,0,0,,0,82,82,318,1,,
,,,,,,,,,,,,,,,,,,5bc9f8b677740000016a08b5,2020-11-27_10h02.32.737,lexical_decision_task_MP_exp2,2020.2.5,Linux x86_64,60,,m,1,,,,,,,,0.47367,1,,,,,,155,WORD,"ID",16,lizard,LIZARD,m,0.47367,,,,,,0.030798197,-0.396704833,0,0,0,,0,83,83,94,1,,
,,,,,,,,,,,,,,,,,,5bc9f8b677740000016a08b5,2020-11-27_10h02.32.737,lexical_decision_task_MP_exp2,2020.2.5,Linux x86_64,60,,z,1,,,,,,,,0.598585,1,,,,,,456,NW,UN,33,wanigh,BROGET,z,0.598585,,,,,,0.030798197,-0.396704833,0,0,0,,0,84,84,395,1,,
,,,,,,,,,,,,,,,,,,5bc9f8b677740000016a08b5,2020-11-27_10h02.32.737,lexical_decision_task_MP_exp2,2020.2.5,Linux x86_64,60,,z,1,,,,,,,,0.600975,1,,,,,,306,NW,"ID",33,sounge,SOUNGE,z,0.600975,,,,,,0.030798197,-0.396704833,0,0,0,,0,85,85,245,1,,
,,,,,,,,,,,,,,,,,,5bc9f8b677740000016a08b5,2020-11-27_10h02.32.737,lexical_decision_task_MP_exp2,2020.2.5,Linux x86_64,60,,m,1,,,,,,,,0.5058,1,,,,,,53,WORD,UN,16,ramble,POLICE,m,0.5058,,,,,,0.030798197,-0.396704833,0,0,0,,0,86,86,232,1,,
,,,,,,,,,,,,,,,,,,5bc9f8b677740000016a08b5,2020-11-27_10h02.32.737,lexical_decision_task_MP_exp2,2020.2.5,Linux x86_64,60,,m,1,,,,,,,,0.718705,1,,,,,,186,WORD,UN,33,course,PORTAL,m,0.718705,,,,,,0.030798197,-0.396704833,0,0,0,,0,87,87,125,1,,
,,,,,,,,,,,,,,,,,,5bc9f8b677740000016a08b5,2020-11-27_10h02.32.737,lexical_decision_task_MP_exp2,2020.2.5,Linux x86_64,60,,z,1,,,,,,,,0.617785,1,,,,,,413,NW,"ID",16,equats,EQUATS,z,0.617785,,,,,,0.030798197,-0.396704833,0,0,0,,0,88,88,352,1,,
,,,,,,,,,,,,,,,,,,5bc9f8b677740000016a08b5,2020-11-27_10h02.32.737,lexical_decision_task_MP_exp2,2020.2.5,Linux x86_64,60,,m,1,,,,,,,,0.72308,1,,,,,,9,WORD,UN,16,bridge,HUSTLE,m,0.72308,,,,,,0.030798197,-0.396704833,0,0,0,,0,89,89,188,1,,
,,,,,,,,,,,,,,,,,,5bc9f8b677740000016a08b5,2020-11-27_10h02.32.737,lexical_decision_task_MP_exp2,2020.2.5,Linux x86_64,60,,z,0,,,,,,,,0.63541,0,,,,,,78,WORD,"ID",33,column,COLUMN,m,0.63541,,,,,,0.030798197,-0.396704833,0,0,0,,0,90,90,17,1,,
,,,,,,,,,,,,,,,,,,5bc9f8b677740000016a08b5,2020-11-27_10h02.32.737,lexical_decision_task_MP_exp2,2020.2.5,Linux x86_64,60,,z,1,,,,,,,,0.659485,1,,,,,,292,NW,UN,16,swance,ABLINT,z,0.659485,,,,,,0.030798197,-0.396704833,0,0,0,,0,91,91,471,1,,
,,,,,,,,,,,,,,,,,,5bc9f8b677740000016a08b5,2020-11-27_10h02.32.737,lexical_decision_task_MP_exp2,2020.2.5,Linux x86_64,60,,z,1,,,,,,,,0.511015,1,,,,,,402,NW,"ID",16,syntic,SYNTIC,z,0.511015,,,,,,0.030798197,-0.396704833,0,0,0,,0,92,92,341,1,,
,,,,,,,,,,,,,,,,,,5bc9f8b677740000016a08b5,2020-11-27_10h02.32.737,lexical_decision_task_MP_exp2,2020.2.5,Linux x86_64,60,,z,1,,,,,,,,0.552415,1,,,,,,253,NW,UN,16,varosh,RESAIT,z,0.552415,,,,,,0.030798197,-0.396704833,0,0,0,,0,93,93,432,1,,
,,,,,,,,,,,,,,,,,,5bc9f8b677740000016a08b5,2020-11-27_10h02.32.737,lexical_decision_task_MP_exp2,2020.2.5,Linux x86_64,60,,m,1,,,,,,,,0.515585,1,,,,,,63,WORD,"ID",33,launch,LAUNCH,m,0.515585,,,,,,0.030798197,-0.396704833,0,0,0,,0,94,94,2,1,,
,,,,,,,,,,,,,,,,,,5bc9f8b677740000016a08b5,2020-11-27_10h02.32.737,lexical_decision_task_MP_exp2,2020.2.5,Linux x86_64,60,,z,1,,,,,,,,0.58416,1,,,,,,257,NW,UN,16,poluth,VENIOD,z,0.58416,,,,,,0.030798197,-0.396704833,0,0,0,,0,95,95,436,1,,
,,,,,,,,,,,,,,,,,,5bc9f8b677740000016a08b5,2020-11-27_10h02.32.737,lexical_decision_task_MP_exp2,2020.2.5,Linux x86_64,60,,m,1,,,,,,,,0.486995,1,,,,,,95,WORD,"ID",33,thread,THREAD,m,0.486995,,,,,,0.030798197,-0.396704833,0,0,0,,0,96,96,34,1,,
,,,,,,,,,,,,,,,,,,5bc9f8b677740000016a08b5,2020-11-27_10h02.32.737,lexical_decision_task_MP_exp2,2020.2.5,Linux x86_64,60,,z,1,,,,,,,,0.538025,1,,,,,,383,NW,"ID",16,aungre,AUNGRE,z,0.538025,,,,,,0.030798197,-0.396704833,0,0,0,,0,97,97,322,1,,
,,,,,,,,,,,,,,,,,,5bc9f8b677740000016a08b5,2020-11-27_10h02.32.737,lexical_decision_task_MP_exp2,2020.2.5,Linux x86_64,60,,m,1,,,,,,,,0.49173,1,,,,,,172,WORD,"ID",16,patrol,PATROL,m,0.49173,,,,,,0.030798197,-0.396704833,0,0,0,,0,98,98,111,1,,
,,,,,,,,,,,,,,,,,,5bc9f8b677740000016a08b5,2020-11-27_10h02.32.737,lexical_decision_task_MP_exp2,2020.2.5,Linux x86_64,60,,z,1,,,,,,,,0.54982,1,,,,,,432,NW,UN,33,drance,LUNKER,z,0.54982,,,,,,0.030798197,-0.396704833,0,0,0,,0,99,99,371,1,,
,,,,,,,,,,,,,,,,,,5bc9f8b677740000016a08b5,2020-11-27_10h02.32.737,lexical_decision_task_MP_exp2,2020.2.5,Linux x86_64,60,,m,1,,,,,,,,0.8041,1,,,,,,124,WORD,"ID",16,blouse,BLOUSE,m,0.8041,,,,,,0.030798197,-0.396704833,0,0,0,,0,100,100,63,1,,
,,,,,,,,,,,,,,,,,,5bc9f8b677740000016a08b5,2020-11-27_10h02.32.737,lexical_decision_task_MP_exp2,2020.2.5,Linux x86_64,60,,m,1,,,,,,,,0.53292,1,,,,,,27,WORD,UN,16,comedy,SCREAM,m,0.53292,,,,,,0.030798197,-0.396704833,0,0,0,,0,101,101,206,1,,
,,,,,,,,,,,,,,,,,,5bc9f8b677740000016a08b5,2020-11-27_10h02.32.737,lexical_decision_task_MP_exp2,2020.2.5,Linux x86_64,60,,m,1,,,,,,,,0.48288,1,,,,,,135,WORD,"ID",16,import,IMPORT,m,0.48288,,,,,,0.030798197,-0.396704833,0,0,0,,0,102,102,74,1,,
,,,,,,,,,,,,,,,,,,5bc9f8b677740000016a08b5,2020-11-27_10h02.32.737,lexical_decision_task_MP_exp2,2020.2.5,Linux x86_64,60,,z,1,,,,,,,,0.57623,1,,,,,,434,NW,UN,33,impurb,PITROM,z,0.57623,,,,,,0.030798197,-0.396704833,0,0,0,,0,103,103,373,1,,
,,,,,,,,,,,,,,,,,,5bc9f8b677740000016a08b5,2020-11-27_10h02.32.737,lexical_decision_task_MP_exp2,2020.2.5,Linux x86_64,60,,m,1,,,,,,,,0.533445,1,,,,,,120,WORD,"ID",33,strain,STRAIN,m,0.533445,,,,,,0.030798197,-0.396704833,0,0,0,,0,104,104,59,1,,
,,,,,,,,,,,,,,,,,,5bc9f8b677740000016a08b5,2020-11-27_10h02.32.737,lexical_decision_task_MP_exp2,2020.2.5,Linux x86_64,60,,z,0,,,,,,,,0.53381,0,,,,,,200,WORD,UN,33,admire,BEACON,m,0.53381,,,,,,0.030798197,-0.396704833,0,0,0,,0,105,105,139,1,,
,,,,,,,,,,,,,,,,,,5bc9f8b677740000016a08b5,2020-11-27_10h02.32.737,lexical_decision_task_MP_exp2,2020.2.5,Linux x86_64,60,,m,1,,,,,,,,0.537765,1,,,,,,29,WORD,UN,16,orient,SKETCH,m,0.537765,,,,,,0.030798197,-0.396704833,0,0,0,,0,106,106,208,1,,
,,,,,,,,,,,,,,,,,,5bc9f8b677740000016a08b5,2020-11-27_10h02.32.737,lexical_decision_task_MP_exp2,2020.2.5,Linux x86_64,60,,m,0,,,,,,,,0.53254,0,,,,,,300,NW,UN,16,smenco,YARION,z,0.53254,,,,,,0.030798197,-0.396704833,0,0,0,,0,107,107,479,1,,
,,,,,,,,,,,,,,,,,,5bc9f8b677740000016a08b5,2020-11-27_10h02.32.737,lexical_decision_task_MP_exp2,2020.2.5,Linux x86_64,60,,m,1,,,,,,,,0.66622,1,,,,,,152,WORD,"ID",16,rocket,ROCKET,m,0.66622,,,,,,0.030798197,-0.396704833,0,0,0,,0,108,108,91,1,,
,,,,,,,,,,,,,,,,,,5bc9f8b677740000016a08b5,2020-11-27_10h02.32.737,lexical_decision_task_MP_exp2,2020.2.5,Linux x86_64,60,,m,1,,,,,,,,0.6905,1,,,,,,92,WORD,"ID",33,strand,STRAND,m,0.6905,,,,,,0.030798197,-0.396704833,0,0,0,,0,109,109,31,1,,
,,,,,,,,,,,,,,,,,,5bc9f8b677740000016a08b5,2020-11-27_10h02.32.737,lexical_decision_task_MP_exp2,2020.2.5,Linux x86_64,60,,m,1,,,,,,,,0.467185,1,,,,,,41,WORD,UN,16,chapel,SPRING,m,0.467185,,,,,,0.030798197,-0.396704833,0,0,0,,0,110,110,220,1,,
,,,,,,,,,,,,,,,,,,5bc9f8b677740000016a08b5,2020-11-27_10h02.32.737,lexical_decision_task_MP_exp2,2020.2.5,Linux x86_64,60,,z,1,,,,,,,,0.618705,1,,,,,,343,NW,"ID",33,aimosy,AIMOSY,z,0.618705,,,,,,0.030798197,-0.396704833,0,0,0,,0,111,111,282,1,,
,,,,,,,,,,,,,,,,,,5bc9f8b677740000016a08b5,2020-11-27_10h02.32.737,lexical_decision_task_MP_exp2,2020.2.5,Linux x86_64,60,,z,1,,,,,,,,0.51531,1,,,,,,356,NW,"ID",33,othnis,OTHNIS,z,0.51531,,,,,,0.030798197,-0.396704833,0,0,0,,0,112,112,295,1,,
,,,,,,,,,,,,,,,,,,5bc9f8b677740000016a08b5,2020-11-27_10h02.32.737,lexical_decision_task_MP_exp2,2020.2.5,Linux x86_64,60,,m,1,,,,,,,,0.46562,1,,,,,,132,WORD,"ID",16,strong,STRONG,m,0.46562,,,,,,0.030798197,-0.396704833,0,0,0,,0,113,113,71,1,,
,,,,,,,,,,,,,,,,,,5bc9f8b677740000016a08b5,2020-11-27_10h02.32.737,lexical_decision_task_MP_exp2,2020.2.5,Linux x86_64,60,,m,0,,,,,,,,0.52565,0,,,,,,271,NW,UN,16,damilt,AUBRID,z,0.52565,,,,,,0.030798197,-0.396704833,0,0,0,,0,114,114,450,1,,
,,,,,,,,,,,,,,,,,,5bc9f8b677740000016a08b5,2020-11-27_10h02.32.737,lexical_decision_task_MP_exp2,2020.2.5,Linux x86_64,60,,z,1,,,,,,,,0.54897,1,,,,,,241,NW,UN,16,unwert,SMENCO,z,0.54897,,,,,,0.030798197,-0.396704833,0,0,0,,0,115,115,420,1,,
,,,,,,,,,,,,,,,,,,5bc9f8b677740000016a08b5,2020-11-27_10h02.32.737,lexical_decision_task_MP_exp2,2020.2.5,Linux x86_64,60,,z,1,,,,,,,,0.55017,1,,,,,,297,NW,UN,16,piergy,FERTIC,z,0.55017,,,,,,0.030798197,-0.396704833,0,0,0,,0,116,116,476,1,,
,,,,,,,,,,,,,,,,,,5bc9f8b677740000016a08b5,2020-11-27_10h02.32.737,lexical_decision_task_MP_exp2,2020.2.5,Linux x86_64,60,,m,1,,,,,,,,1.0325,1,,,,,,224,WORD,UN,33,vulgar,PERIOD,m,1.0325,,,,,,0.030798197,-0.396704833,0,0,0,,0,117,117,163,1,,
,,,,,,,,,,,,,,,,,,5bc9f8b677740000016a08b5,2020-11-27_10h02.32.737,lexical_decision_task_MP_exp2,2020.2.5,Linux x86_64,60,,z,1,,,,,,,,0.615855,1,,,,,,404,NW,"ID",16,cluirm,CLUIRM,z,0.615855,,,,,,0.030798197,-0.396704833,0,0,0,,0,118,118,343,1,,
,,,,,,,,,,,,,,,,,,5bc9f8b677740000016a08b5,2020-11-27_10h02.32.737,lexical_decision_task_MP_exp2,2020.2.5,Linux x86_64,60,,m,1,,,,,,,,0.499465,1,,,,,,193,WORD,UN,33,mildew,OBJECT,m,0.499465,,,,,,0.030798197,-0.396704833,0,0,0,,0,119,119,132,1,,
,,,,,,,,,,,,,,,,,,5bc9f8b677740000016a08b5,2020-11-27_10h02.32.737,lexical_decision_task_MP_exp2,2020.2.5,Linux x86_64,60,,m,1,,,,,,,,0.510875,1,,,,,,196,WORD,UN,33,stream,CREDIT,m,0.510875,,,,,,0.030798197,-0.400861104,1,0,0,,0,120,120,135,1,break_done_button,
,,,,,,,,,,,,,,,,,,5bc9f8b677740000016a08b5,2020-11-27_10h02.32.737,lexical_decision_task_MP_exp2,2020.2.5,Linux x86_64,60,,z,1,,,,,,,,0.79886,1,,,,,,284,NW,UN,16,prudge,SHAPLE,z,0.79886,,,,,,0.030798197,-0.400861104,0,0,0,,0,121,121,463,1,,
,,,,,,,,,,,,,,,,,,5bc9f8b677740000016a08b5,2020-11-27_10h02.32.737,lexical_decision_task_MP_exp2,2020.2.5,Linux x86_64,60,,m,1,,,,,,,,0.6205,1,,,,,,195,WORD,UN,33,credit,RESIGN,m,0.6205,,,,,,0.030798197,-0.400861104,0,0,0,,0,122,122,134,1,,
,,,,,,,,,,,,,,,,,,5bc9f8b677740000016a08b5,2020-11-27_10h02.32.737,lexical_decision_task_MP_exp2,2020.2.5,Linux x86_64,60,,m,1,,,,,,,,0.520895,1,,,,,,48,WORD,UN,16,survey,WALNUT,m,0.520895,,,,,,0.030798197,-0.400861104,0,0,0,,0,123,123,227,1,,
,,,,,,,,,,,,,,,,,,5bc9f8b677740000016a08b5,2020-11-27_10h02.32.737,lexical_decision_task_MP_exp2,2020.2.5,Linux x86_64,60,,z,0,,,,,,,,0.54867,0,,,,,,204,WORD,UN,33,lounge,BURDEN,m,0.54867,,,,,,0.030798197,-0.400861104,0,0,0,,0,124,124,143,1,,
,,,,,,,,,,,,,,,,,,5bc9f8b677740000016a08b5,2020-11-27_10h02.32.737,lexical_decision_task_MP_exp2,2020.2.5,Linux x86_64,60,,m,1,,,,,,,,0.589425,1,,,,,,149,WORD,"ID",16,invade,INVADE,m,0.589425,,,,,,0.030798197,-0.400861104,0,0,0,,0,125,125,88,1,,
,,,,,,,,,,,,,,,,,,5bc9f8b677740000016a08b5,2020-11-27_10h02.32.737,lexical_decision_task_MP_exp2,2020.2.5,Linux x86_64,60,,z,1,,,,,,,,0.583345,1,,,,,,412,NW,"ID",16,jiluer,JILUER,z,0.583345,,,,,,0.030798197,-0.400861104,0,0,0,,0,126,126,351,1,,
,,,,,,,,,,,,,,,,,,5bc9f8b677740000016a08b5,2020-11-27_10h02.32.737,lexical_decision_task_MP_exp2,2020.2.5,Linux x86_64,60,,m,1,,,,,,,,0.549,1,,,,,,143,WORD,"ID",16,reason,REASON,m,0.549,,,,,,0.030798197,-0.400861104,0,0,0,,0,127,127,82,1,,
,,,,,,,,,,,,,,,,,,5bc9f8b677740000016a08b5,2020-11-27_10h02.32.737,lexical_decision_task_MP_exp2,2020.2.5,Linux x86_64,60,,z,1,,,,,,,,0.629795,1,,,,,,436,NW,UN,33,snapel,FRUTAN,z,0.629795,,,,,,0.030798197,-0.400861104,0,0,0,,0,128,128,375,1,,
,,,,,,,,,,,,,,,,,,5bc9f8b677740000016a08b5,2020-11-27_10h02.32.737,lexical_decision_task_MP_exp2,2020.2.5,Linux x86_64,60,,m,1,,,,,,,,0.52095,1,,,,,,179,WORD,"ID",16,basket,BASKET,m,0.52095,,,,,,0.030798197,-0.400861104,0,0,0,,0,129,129,118,1,,
,,,,,,,,,,,,,,,,,,5bc9f8b677740000016a08b5,2020-11-27_10h02.32.737,lexical_decision_task_MP_exp2,2020.2.5,Linux x86_64,60,,m,1,,,,,,,,0.533675,1,,,,,,47,WORD,UN,16,walnut,INCOME,m,0.533675,,,,,,0.030798197,-0.400861104,0,0,0,,0,130,130,226,1,,
,,,,,,,,,,,,,,,,,,5bc9f8b677740000016a08b5,2020-11-27_10h02.32.737,lexical_decision_task_MP_exp2,2020.2.5,Linux x86_64,60,,z,1,,,,,,,,0.88232,1,,,,,,429,NW,UN,33,caroey,FUNTLE,z,0.88232,,,,,,0.030798197,-0.400861104,0,0,0,,0,131,131,368,1,,
,,,,,,,,,,,,,,,,,,5bc9f8b677740000016a08b5,2020-11-27_10h02.32.737,lexical_decision_task_MP_exp2,2020.2.5,Linux x86_64,60,,z,1,,,,,,,,0.625685,1,,,,,,474,NW,UN,33,acrise,HABLIN,z,0.625685,,,,,,0.030798197,-0.400861104,0,0,0,,0,132,132,413,1,,
,,,,,,,,,,,,,,,,,,5bc9f8b677740000016a08b5,2020-11-27_10h02.32.737,lexical_decision_task_MP_exp2,2020.2.5,Linux x86_64,60,,m,1,,,,,,,,0.612595,1,,,,,,32,WORD,UN,16,scream,BUCKLE,m,0.612595,,,,,,0.030798197,-0.400861104,0,0,0,,0,133,133,211,1,,
,,,,,,,,,,,,,,,,,,5bc9f8b677740000016a08b5,2020-11-27_10h02.32.737,lexical_decision_task_MP_exp2,2020.2.5,Linux x86_64,60,,z,1,,,,,,,,0.69972,1,,,,,,387,NW,"ID",16,gronce,GRONCE,z,0.69972,,,,,,0.030798197,-0.400861104,0,0,0,,0,134,134,326,1,,
,,,,,,,,,,,,,,,,,,5bc9f8b677740000016a08b5,2020-11-27_10h02.32.737,lexical_decision_task_MP_exp2,2020.2.5,Linux x86_64,60,,z,1,,,,,,,,0.615205,1,,,,,,267,NW,UN,16,packes,PASINK,z,0.615205,,,,,,0.030798197,-0.400861104,0,0,0,,0,135,135,446,1,,
,,,,,,,,,,,,,,,,,,5bc9f8b677740000016a08b5,2020-11-27_10h02.32.737,lexical_decision_task_MP_exp2,2020.2.5,Linux x86_64,60,,z,1,,,,,,,,0.64313,1,,,,,,250,NW,UN,16,lupict,MILTED,z,0.64313,,,,,,0.030798197,-0.400861104,0,0,0,,0,136,136,429,1,,
,,,,,,,,,,,,,,,,,,5bc9f8b677740000016a08b5,2020-11-27_10h02.32.737,lexical_decision_task_MP_exp2,2020.2.5,Linux x86_64,60,,z,1,,,,,,,,0.601475,1,,,,,,316,NW,"ID",33,scregm,SCREGM,z,0.601475,,,,,,0.030798197,-0.400861104,0,0,0,,0,137,137,255,1,,
,,,,,,,,,,,,,,,,,,5bc9f8b677740000016a08b5,2020-11-27_10h02.32.737,lexical_decision_task_MP_exp2,2020.2.5,Linux x86_64,60,,z,1,,,,,,,,0.66594,1,,,,,,398,NW,"ID",16,blunde,BLUNDE,z,0.66594,,,,,,0.030798197,-0.400861104,0,0,0,,0,138,138,337,1,,
,,,,,,,,,,,,,,,,,,5bc9f8b677740000016a08b5,2020-11-27_10h02.32.737,lexical_decision_task_MP_exp2,2020.2.5,Linux x86_64,60,,z,1,,,,,,,,0.651315,1,,,,,,473,NW,UN,33,hablin,CRIBLE,z,0.651315,,,,,,0.030798197,-0.400861104,0,0,0,,0,139,139,412,1,,
,,,,,,,,,,,,,,,,,,5bc9f8b677740000016a08b5,2020-11-27_10h02.32.737,lexical_decision_task_MP_exp2,2020.2.5,Linux x86_64,60,,m,1,,,,,,,,0.52568,1,,,,,,190,WORD,UN,33,stable,BACKUP,m,0.52568,,,,,,0.030798197,-0.400861104,0,0,0,,0,140,140,129,1,,
,,,,,,,,,,,,,,,,,,5bc9f8b677740000016a08b5,2020-11-27_10h02.32.737,lexical_decision_task_MP_exp2,2020.2.5,Linux x86_64,60,,m,1,,,,,,,,0.593105,1,,,,,,117,WORD,"ID",33,branch,BRANCH,m,0.593105,,,,,,0.030798197,-0.400861104,0,0,0,,0,141,141,56,1,,
,,,,,,,,,,,,,,,,,,5bc9f8b677740000016a08b5,2020-11-27_10h02.32.737,lexical_decision_task_MP_exp2,2020.2.5,Linux x86_64,60,,z,1,,,,,,,,0.63431,1,,,,,,305,NW,"ID",33,forgle,FORGLE,z,0.63431,,,,,,0.030798197,-0.400861104,0,0,0,,0,142,142,244,1,,
,,,,,,,,,,,,,,,,,,5bc9f8b677740000016a08b5,2020-11-27_10h02.32.737,lexical_decision_task_MP_exp2,2020.2.5,Linux x86_64,60,,m,1,,,,,,,,0.57005,1,,,,,,130,WORD,"ID",16,stupid,STUPID,m,0.57005,,,,,,0.030798197,-0.400861104,0,0,0,,0,143,143,69,1,,
,,,,,,,,,,,,,,,,,,5bc9f8b677740000016a08b5,2020-11-27_10h02.32.737,lexical_decision_task_MP_exp2,2020.2.5,Linux x86_64,60,,m,1,,,,,,,,0.57803,1,,,,,,26,WORD,UN,16,butler,SPRINT,m,0.57803,,,,,,0.030798197,-0.400861104,0,0,0,,0,144,144,205,1,,
,,,,,,,,,,,,,,,,,,5bc9f8b677740000016a08b5,2020-11-27_10h02.32.737,lexical_decision_task_MP_exp2,2020.2.5,Linux x86_64,60,,z,1,,,,,,,,0.68268,1,,,,,,463,NW,UN,33,chaite,KISPEL,z,0.68268,,,,,,0.030798197,-0.400861104,0,0,0,,0,145,145,402,1,,
,,,,,,,,,,,,,,,,,,5bc9f8b677740000016a08b5,2020-11-27_10h02.32.737,lexical_decision_task_MP_exp2,2020.2.5,Linux x86_64,60,,m,1,,,,,,,,0.61675,1,,,,,,138,WORD,"ID",16,melody,MELODY,m,0.61675,,,,,,0.030798197,-0.400861104,0,0,0,,0,146,146,77,1,,
,,,,,,,,,,,,,,,,,,5bc9f8b677740000016a08b5,2020-11-27_10h02.32.737,lexical_decision_task_MP_exp2,2020.2.5,Linux x86_64,60,,m,1,,,,,,,,0.51839,1,,,,,,67,WORD,"ID",33,policy,POLICY,m,0.51839,,,,,,0.030798197,-0.400861104,0,0,0,,0,147,147,6,1,,
,,,,,,,,,,,,,,,,,,5bc9f8b677740000016a08b5,2020-11-27_10h02.32.737,lexical_decision_task_MP_exp2,2020.2.5,Linux x86_64,60,,z,1,,,,,,,,0.60129,1,,,,,,408,NW,"ID",16,hurnia,HURNIA,z,0.60129,,,,,,0.030798197,-0.400861104,0,0,0,,0,148,148,347,1,,
,,,,,,,,,,,,,,,,,,5bc9f8b677740000016a08b5,2020-11-27_10h02.32.737,lexical_decision_task_MP_exp2,2020.2.5,Linux x86_64,60,,m,1,,,,,,,,0.534045,1,,,,,,50,WORD,UN,16,hungry,SNATCH,m,0.534045,,,,,,0.030798197,-0.400861104,0,0,0,,0,149,149,229,1,,
,,,,,,,,,,,,,,,,,,5bc9f8b677740000016a08b5,2020-11-27_10h02.32.737,lexical_decision_task_MP_exp2,2020.2.5,Linux x86_64,60,,z,1,,,,,,,,0.560195,1,,,,,,469,NW,UN,33,crudio,PADIFS,z,0.560195,,,,,,0.030798197,-0.400861104,0,0,0,,0,150,150,408,1,,
,,,,,,,,,,,,,,,,,,5bc9f8b677740000016a08b5,2020-11-27_10h02.32.737,lexical_decision_task_MP_exp2,2020.2.5,Linux x86_64,60,,z,1,,,,,,,,0.607955,1,,,,,,310,NW,"ID",33,daniet,DANIET,z,0.607955,,,,,,0.030798197,-0.400861104,0,0,0,,0,151,151,249,1,,
,,,,,,,,,,,,,,,,,,5bc9f8b677740000016a08b5,2020-11-27_10h02.32.737,lexical_decision_task_MP_exp2,2020.2.5,Linux x86_64,60,,m,1,,,,,,,,0.51658,1,,,,,,229,WORD,UN,33,fringe,MOTHER,m,0.51658,,,,,,0.030798197,-0.400861104,0,0,0,,0,152,152,168,1,,
,,,,,,,,,,,,,,,,,,5bc9f8b677740000016a08b5,2020-11-27_10h02.32.737,lexical_decision_task_MP_exp2,2020.2.5,Linux x86_64,60,,m,1,,,,,,,,0.53186,1,,,,,,213,WORD,UN,33,intake,SQUEAL,m,0.53186,,,,,,0.030798197,-0.400861104,0,0,0,,0,153,153,152,1,,
,,,,,,,,,,,,,,,,,,5bc9f8b677740000016a08b5,2020-11-27_10h02.32.737,lexical_decision_task_MP_exp2,2020.2.5,Linux x86_64,60,,z,1,,,,,,,,0.59984,1,,,,,,468,NW,UN,33,padifs,WICTOR,z,0.59984,,,,,,0.030798197,-0.400861104,0,0,0,,0,154,154,407,1,,
,,,,,,,,,,,,,,,,,,5bc9f8b677740000016a08b5,2020-11-27_10h02.32.737,lexical_decision_task_MP_exp2,2020.2.5,Linux x86_64,60,,m,1,,,,,,,,0.52647,1,,,,,,171,WORD,"ID",16,depart,DEPART,m,0.52647,,,,,,0.030798197,-0.400861104,0,0,0,,0,155,155,110,1,,
,,,,,,,,,,,,,,,,,,5bc9f8b677740000016a08b5,2020-11-27_10h02.32.737,lexical_decision_task_MP_exp2,2020.2.5,Linux x86_64,60,,m,1,,,,,,,,0.59069,1,,,,,,25,WORD,UN,16,sprint,DOMAIN,m,0.59069,,,,,,0.030798197,-0.400861104,0,0,0,,0,156,156,204,1,,
,,,,,,,,,,,,,,,,,,5bc9f8b677740000016a08b5,2020-11-27_10h02.32.737,lexical_decision_task_MP_exp2,2020.2.5,Linux x86_64,60,,m,1,,,,,,,,0.56034,1,,,,,,84,WORD,"ID",33,mortal,MORTAL,m,0.56034,,,,,,0.030798197,-0.400861104,0,0,0,,0,157,157,23,1,,
,,,,,,,,,,,,,,,,,,5bc9f8b677740000016a08b5,2020-11-27_10h02.32.737,lexical_decision_task_MP_exp2,2020.2.5,Linux x86_64,60,,z,1,,,,,,,,0.591635,1,,,,,,321,NW,"ID",33,miator,MIATOR,z,0.591635,,,,,,0.030798197,-0.400861104,0,0,0,,0,158,158,260,1,,
,,,,,,,,,,,,,,,,,,5bc9f8b677740000016a08b5,2020-11-27_10h02.32.737,lexical_decision_task_MP_exp2,2020.2.5,Linux x86_64,60,,z,1,,,,,,,,0.581735,1,,,,,,270,NW,UN,16,aubrid,WRIMSY,z,0.581735,,,,,,0.030798197,-0.400861104,0,0,0,,0,159,159,449,1,,
,,,,,,,,,,,,,,,,,,5bc9f8b677740000016a08b5,2020-11-27_10h02.32.737,lexical_decision_task_MP_exp2,2020.2.5,Linux x86_64,60,,z,1,,,,,,,,0.580365,1,,,,,,296,NW,UN,16,fertic,BEINCH,z,0.580365,,,,,,0.030798197,-0.400861104,0,0,0,,0,160,160,475,1,,
,,,,,,,,,,,,,,,,,,5bc9f8b677740000016a08b5,2020-11-27_10h02.32.737,lexical_decision_task_MP_exp2,2020.2.5,Linux x86_64,60,,m,1,,,,,,,,0.529185,1,,,,,,81,WORD,"ID",33,friend,FRIEND,m,0.529185,,,,,,0.030798197,-0.400861104,0,0,0,,0,161,161,20,1,,
,,,,,,,,,,,,,,,,,,5bc9f8b677740000016a08b5,2020-11-27_10h02.32.737,lexical_decision_task_MP_exp2,2020.2.5,Linux x86_64,60,,z,1,,,,,,,,0.636685,1,,,,,,286,NW,UN,16,nymbel,RELDON,z,0.636685,,,,,,0.030798197,-0.400861104,0,0,0,,0,162,162,465,1,,
,,,,,,,,,,,,,,,,,,5bc9f8b677740000016a08b5,2020-11-27_10h02.32.737,lexical_decision_task_MP_exp2,2020.2.5,Linux x86_64,60,,m,1,,,,,,,,0.60598,1,,,,,,194,WORD,UN,33,resign,ABSENT,m,0.60598,,,,,,0.030798197,-0.400861104,0,0,0,,0,163,163,133,1,,
,,,,,,,,,,,,,,,,,,5bc9f8b677740000016a08b5,2020-11-27_10h02.32.737,lexical_decision_task_MP_exp2,2020.2.5,Linux x86_64,60,,m,1,,,,,,,,0.549975,1,,,,,,4,WORD,UN,16,plunge,TRENCH,m,0.549975,,,,,,0.030798197,-0.400861104,0,0,0,,0,164,164,183,1,,
,,,,,,,,,,,,,,,,,,5bc9f8b677740000016a08b5,2020-11-27_10h02.32.737,lexical_decision_task_MP_exp2,2020.2.5,Linux x86_64,60,,z,1,,,,,,,,0.899175,1,,,,,,420,NW,"ID",16,gushop,GUSHOP,z,0.899175,,,,,,0.030798197,-0.400861104,0,0,0,,0,165,165,359,1,,
,,,,,,,,,,,,,,,,,,5bc9f8b677740000016a08b5,2020-11-27_10h02.32.737,lexical_decision_task_MP_exp2,2020.2.5,Linux x86_64,60,,z,1,,,,,,,,0.58909,1,,,,,,294,NW,UN,16,gleath,INHORT,z,0.58909,,,,,,0.030798197,-0.400861104,0,0,0,,0,166,166,473,1,,
,,,,,,,,,,,,,,,,,,5bc9f8b677740000016a08b5,2020-11-27_10h02.32.737,lexical_decision_task_MP_exp2,2020.2.5,Linux x86_64,60,,m,1,,,,,,,,0.566485,1,,,,,,10,WORD,UN,16,cruise,ETHNIC,m,0.566485,,,,,,0.030798197,-0.400861104,0,0,0,,0,167,167,189,1,,
,,,,,,,,,,,,,,,,,,5bc9f8b677740000016a08b5,2020-11-27_10h02.32.737,lexical_decision_task_MP_exp2,2020.2.5,Linux x86_64,60,,m,1,,,,,,,,0.57196,1,,,,,,72,WORD,"ID",33,bright,BRIGHT,m,0.57196,,,,,,0.030798197,-0.400861104,0,0,0,,0,168,168,11,1,,
,,,,,,,,,,,,,,,,,,5bc9f8b677740000016a08b5,2020-11-27_10h02.32.737,lexical_decision_task_MP_exp2,2020.2.5,Linux x86_64,60,,z,1,,,,,,,,0.87018,1,,,,,,342,NW,"ID",33,randow,RANDOW,z,0.87018,,,,,,0.030798197,-0.400861104,0,0,0,,0,169,169,281,1,,
,,,,,,,,,,,,,,,,,,5bc9f8b677740000016a08b5,2020-11-27_10h02.32.737,lexical_decision_task_MP_exp2,2020.2.5,Linux x86_64,60,,z,1,,,,,,,,0.556305,1,,,,,,460,NW,UN,33,justre,MINGAR,z,0.556305,,,,,,0.030798197,-0.400861104,0,0,0,,0,170,170,399,1,,
,,,,,,,,,,,,,,,,,,5bc9f8b677740000016a08b5,2020-11-27_10h02.32.737,lexical_decision_task_MP_exp2,2020.2.5,Linux x86_64,60,,m,1,,,,,,,,0.635105,1,,,,,,183,WORD,UN,33,sleazy,MILDEW,m,0.635105,,,,,,0.030798197,-0.400861104,0,0,0,,0,171,171,122,1,,
,,,,,,,,,,,,,,,,,,5bc9f8b677740000016a08b5,2020-11-27_10h02.32.737,lexical_decision_task_MP_exp2,2020.2.5,Linux x86_64,60,,z,1,,,,,,,,0.546985,1,,,,,,376,NW,"ID",16,iguare,IGUARE,z,0.546985,,,,,,0.030798197,-0.400861104,0,0,0,,0,172,172,315,1,,
,,,,,,,,,,,,,,,,,,5bc9f8b677740000016a08b5,2020-11-27_10h02.32.737,lexical_decision_task_MP_exp2,2020.2.5,Linux x86_64,60,,z,1,,,,,,,,0.525635,1,,,,,,334,NW,"ID",33,watmeg,WATMEG,z,0.525635,,,,,,0.030798197,-0.400861104,0,0,0,,0,173,173,273,1,,
,,,,,,,,,,,,,,,,,,5bc9f8b677740000016a08b5,2020-11-27_10h02.32.737,lexical_decision_task_MP_exp2,2020.2.5,Linux x86_64,60,,m,1,,,,,,,,0.583275,1,,,,,,66,WORD,"ID",33,gospel,GOSPEL,m,0.583275,,,,,,0.030798197,-0.400861104,0,0,0,,0,174,174,5,1,,
,,,,,,,,,,,,,,,,,,5bc9f8b677740000016a08b5,2020-11-27_10h02.32.737,lexical_decision_task_MP_exp2,2020.2.5,Linux x86_64,60,,m,1,,,,,,,,0.57801,1,,,,,,21,WORD,UN,16,jockey,SIMPLE,m,0.57801,,,,,,0.030798197,-0.400861104,0,0,0,,0,175,175,200,1,,
,,,,,,,,,,,,,,,,,,5bc9f8b677740000016a08b5,2020-11-27_10h02.32.737,lexical_decision_task_MP_exp2,2020.2.5,Linux x86_64,60,,m,1,,,,,,,,0.51101,1,,,,,,178,WORD,"ID",16,inform,INFORM,m,0.51101,,,,,,0.030798197,-0.400861104,0,0,0,,0,176,176,117,1,,
,,,,,,,,,,,,,,,,,,5bc9f8b677740000016a08b5,2020-11-27_10h02.32.737,lexical_decision_task_MP_exp2,2020.2.5,Linux x86_64,60,,z,1,,,,,,,,0.583465,1,,,,,,385,NW,"ID",16,veigma,VEIGMA,z,0.583465,,,,,,0.030798197,-0.400861104,0,0,0,,0,177,177,324,1,,
,,,,,,,,,,,,,,,,,,5bc9f8b677740000016a08b5,2020-11-27_10h02.32.737,lexical_decision_task_MP_exp2,2020.2.5,Linux x86_64,60,,m,1,,,,,,,,0.67277,1,,,,,,184,WORD,UN,33,bother,SLEAZY,m,0.67277,,,,,,0.030798197,-0.400861104,0,0,0,,0,178,178,123,1,,
,,,,,,,,,,,,,,,,,,5bc9f8b677740000016a08b5,2020-11-27_10h02.32.737,lexical_decision_task_MP_exp2,2020.2.5,Linux x86_64,60,,z,1,,,,,,,,0.57405,1,,,,,,437,NW,UN,33,baitch,SNAPEL,z,0.57405,,,,,,0.030798197,-0.400861104,0,0,0,,0,179,179,376,1,,
,,,,,,,,,,,,,,,,,,5bc9f8b677740000016a08b5,2020-11-27_10h02.32.737,lexical_decision_task_MP_exp2,2020.2.5,Linux x86_64,60,,m,1,,,,,,,,0.532645,1,,,,,,52,WORD,UN,16,police,IMPOSE,m,0.532645,,,,,,0.030798197,-0.400861104,0,0,0,,0,180,180,231,1,,
,,,,,,,,,,,,,,,,,,5bc9f8b677740000016a08b5,2020-11-27_10h02.32.737,lexical_decision_task_MP_exp2,2020.2.5,Linux x86_64,60,,z,1,,,,,,,,0.55249,1,,,,,,354,NW,"ID",33,virlex,VIRLEX,z,0.55249,,,,,,0.030798197,-0.400861104,0,0,0,,0,181,181,293,1,,
,,,,,,,,,,,,,,,,,,5bc9f8b677740000016a08b5,2020-11-27_10h02.32.737,lexical_decision_task_MP_exp2,2020.2.5,Linux x86_64,60,,z,1,,,,,,,,0.61851,1,,,,,,285,NW,UN,16,reldon,PRUDGE,z,0.61851,,,,,,0.030798197,-0.400861104,0,0,0,,0,182,182,464,1,,
,,,,,,,,,,,,,,,,,,5bc9f8b677740000016a08b5,2020-11-27_10h02.32.737,lexical_decision_task_MP_exp2,2020.2.5,Linux x86_64,60,,z,1,,,,,,,,0.56538,1,,,,,,252,NW,UN,16,resait,STAPOD,z,0.56538,,,,,,0.030798197,-0.400861104,0,0,0,,0,183,183,431,1,,
,,,,,,,,,,,,,,,,,,5bc9f8b677740000016a08b5,2020-11-27_10h02.32.737,lexical_decision_task_MP_exp2,2020.2.5,Linux x86_64,60,,z,1,,,,,,,,0.495185,1,,,,,,351,NW,"ID",33,tiesch,TIESCH,z,0.495185,,,,,,0.030798197,-0.400861104,0,0,0,,0,184,184,290,1,,
,,,,,,,,,,,,,,,,,,5bc9f8b677740000016a08b5,2020-11-27_10h02.32.737,lexical_decision_task_MP_exp2,2020.2.5,Linux x86_64,60,,z,1,,,,,,,,0.549335,1,,,,,,304,NW,"ID",33,cludie,CLUDIE,z,0.549335,,,,,,0.030798197,-0.400861104,0,0,0,,0,185,185,243,1,,
,,,,,,,,,,,,,,,,,,5bc9f8b677740000016a08b5,2020-11-27_10h02.32.737,lexical_decision_task_MP_exp2,2020.2.5,Linux x86_64,60,,z,1,,,,,,,,0.522965,1,,,,,,243,NW,UN,16,eatric,MUSIED,z,0.522965,,,,,,0.030798197,-0.400861104,0,0,0,,0,186,186,422,1,,
,,,,,,,,,,,,,,,,,,5bc9f8b677740000016a08b5,2020-11-27_10h02.32.737,lexical_decision_task_MP_exp2,2020.2.5,Linux x86_64,60,,m,1,,,,,,,,0.637665,1,,,,,,39,WORD,UN,16,convey,INSECT,m,0.637665,,,,,,0.030798197,-0.400861104,0,0,0,,0,187,187,218,1,,
,,,,,,,,,,,,,,,,,,5bc9f8b677740000016a08b5,2020-11-27_10h02.32.737,lexical_decision_task_MP_exp2,2020.2.5,Linux x86_64,60,,m,1,,,,,,,,0.513735,1,,,,,,137,WORD,"ID",16,finger,FINGER,m,0.513735,,,,,,0.030798197,-0.400861104,0,0,0,,0,188,188,76,1,,
,,,,,,,,,,,,,,,,,,5bc9f8b677740000016a08b5,2020-11-27_10h02.32.737,lexical_decision_task_MP_exp2,2020.2.5,Linux x86_64,60,,m,1,,,,,,,,0.616265,1,,,,,,133,WORD,"ID",16,chrome,CHROME,m,0.616265,,,,,,0.030798197,-0.400861104,0,0,0,,0,189,189,72,1,,
,,,,,,,,,,,,,,,,,,5bc9f8b677740000016a08b5,2020-11-27_10h02.32.737,lexical_decision_task_MP_exp2,2020.2.5,Linux x86_64,60,,z,1,,,,,,,,0.591765,1,,,,,,477,NW,UN,33,lobush,PHOTIE,z,0.591765,,,,,,0.030798197,-0.400861104,0,0,0,,0,190,190,416,1,,
,,,,,,,,,,,,,,,,,,5bc9f8b677740000016a08b5,2020-11-27_10h02.32.737,lexical_decision_task_MP_exp2,2020.2.5,Linux x86_64,60,,z,0,,,,,,,,0.78793,0,,,,,,185,WORD,UN,33,portal,BOTHER,m,0.78793,,,,,,0.030798197,-0.400861104,0,0,0,,0,191,191,124,1,,
,,,,,,,,,,,,,,,,,,5bc9f8b677740000016a08b5,2020-11-27_10h02.32.737,lexical_decision_task_MP_exp2,2020.2.5,Linux x86_64,60,,z,1,,,,,,,,0.56736,1,,,,,,346,NW,"ID",33,saudic,SAUDIC,z,0.56736,,,,,,0.030798197,-0.400861104,0,0,0,,0,192,192,285,1,,
,,,,,,,,,,,,,,,,,,5bc9f8b677740000016a08b5,2020-11-27_10h02.32.737,lexical_decision_task_MP_exp2,2020.2.5,Linux x86_64,60,,z,1,,,,,,,,0.49936,1,,,,,,447,NW,UN,33,sadent,GIRCUE,z,0.49936,,,,,,0.030798197,-0.400861104,0,0,0,,0,193,193,386,1,,
,,,,,,,,,,,,,,,,,,5bc9f8b677740000016a08b5,2020-11-27_10h02.32.737,lexical_decision_task_MP_exp2,2020.2.5,Linux x86_64,60,,m,1,,,,,,,,0.582205,1,,,,,,205,WORD,UN,33,tailor,LOUNGE,m,0.582205,,,,,,0.030798197,-0.400861104,0,0,0,,0,194,194,144,1,,
,,,,,,,,,,,,,,,,,,5bc9f8b677740000016a08b5,2020-11-27_10h02.32.737,lexical_decision_task_MP_exp2,2020.2.5,Linux x86_64,60,,z,1,,,,,,,,0.633265,1,,,,,,274,NW,UN,16,sleirt,FUMBLO,z,0.633265,,,,,,0.030798197,-0.400861104,0,0,0,,0,195,195,453,1,,
,,,,,,,,,,,,,,,,,,5bc9f8b677740000016a08b5,2020-11-27_10h02.32.737,lexical_decision_task_MP_exp2,2020.2.5,Linux x86_64,60,,m,1,,,,,,,,0.563145,1,,,,,,90,WORD,"ID",33,relish,RELISH,m,0.563145,,,,,,0.030798197,-0.400861104,0,0,0,,0,196,196,29,1,,
,,,,,,,,,,,,,,,,,,5bc9f8b677740000016a08b5,2020-11-27_10h02.32.737,lexical_decision_task_MP_exp2,2020.2.5,Linux x86_64,60,,m,1,,,,,,,,0.5786,1,,,,,,37,WORD,UN,16,powder,INSULT,m,0.5786,,,,,,0.030798197,-0.400861104,0,0,0,,0,197,197,216,1,,
,,,,,,,,,,,,,,,,,,5bc9f8b677740000016a08b5,2020-11-27_10h02.32.737,lexical_decision_task_MP_exp2,2020.2.5,Linux x86_64,60,,m,1,,,,,,,,0.719165,1,,,,,,59,WORD,UN,16,pencil,SPLINT,m,0.719165,,,,,,0.030798197,-0.400861104,0,0,0,,0,198,198,238,1,,
,,,,,,,,,,,,,,,,,,5bc9f8b677740000016a08b5,2020-11-27_10h02.32.737,lexical_decision_task_MP_exp2,2020.2.5,Linux x86_64,60,,m,1,,,,,,,,0.484835,1,,,,,,158,WORD,"ID",16,island,ISLAND,m,0.484835,,,,,,0.030798197,-0.400861104,0,0,0,,0,199,199,97,1,,
,,,,,,,,,,,,,,,,,,5bc9f8b677740000016a08b5,2020-11-27_10h02.32.737,lexical_decision_task_MP_exp2,2020.2.5,Linux x86_64,60,,m,1,,,,,,,,0.465615,1,,,,,,71,WORD,"ID",33,garden,GARDEN,m,0.465615,,,,,,0.030798197,-0.400861104,0,0,0,,0,200,200,10,1,,
,,,,,,,,,,,,,,,,,,5bc9f8b677740000016a08b5,2020-11-27_10h02.32.737,lexical_decision_task_MP_exp2,2020.2.5,Linux x86_64,60,,m,1,,,,,,,,0.540025,1,,,,,,14,WORD,UN,16,orange,ALMOST,m,0.540025,,,,,,0.030798197,-0.400861104,0,0,0,,0,201,201,193,1,,
,,,,,,,,,,,,,,,,,,5bc9f8b677740000016a08b5,2020-11-27_10h02.32.737,lexical_decision_task_MP_exp2,2020.2.5,Linux x86_64,60,,m,1,,,,,,,,0.653385,1,,,,,,18,WORD,UN,16,patron,HUMBLE,m,0.653385,,,,,,0.030798197,-0.400861104,0,0,0,,0,202,202,197,1,,
,,,,,,,,,,,,,,,,,,5bc9f8b677740000016a08b5,2020-11-27_10h02.32.737,lexical_decision_task_MP_exp2,2020.2.5,Linux x86_64,60,,z,1,,,,,,,,0.699385,1,,,,,,364,NW,"ID",16,impote,IMPOTE,z,0.699385,,,,,,0.030798197,-0.400861104,0,0,0,,0,203,203,303,1,,
,,,,,,,,,,,,,,,,,,5bc9f8b677740000016a08b5,2020-11-27_10h02.32.737,lexical_decision_task_MP_exp2,2020.2.5,Linux x86_64,60,,z,1,,,,,,,,0.532655,1,,,,,,443,NW,UN,33,jaunce,DORSEX,z,0.532655,,,,,,0.030798197,-0.400861104,0,0,0,,0,204,204,382,1,,
,,,,,,,,,,,,,,,,,,5bc9f8b677740000016a08b5,2020-11-27_10h02.32.737,lexical_decision_task_MP_exp2,2020.2.5,Linux x86_64,60,,z,1,,,,,,,,1.21947,1,,,,,,303,NW,"ID",33,fiream,FIREAM,z,1.21947,,,,,,0.030798197,-0.400861104,0,0,0,,0,205,205,242,1,,
,,,,,,,,,,,,,,,,,,5bc9f8b677740000016a08b5,2020-11-27_10h02.32.737,lexical_decision_task_MP_exp2,2020.2.5,Linux x86_64,60,,z,1,,,,,,,,0.602685,1,,,,,,255,NW,UN,16,inlors,APIGHT,z,0.602685,,,,,,0.030798197,-0.400861104,0,0,0,,0,206,206,434,1,,
,,,,,,,,,,,,,,,,,,5bc9f8b677740000016a08b5,2020-11-27_10h02.32.737,lexical_decision_task_MP_exp2,2020.2.5,Linux x86_64,60,,z,1,,,,,,,,0.50895,1,,,,,,440,NW,UN,33,rastoe,SARIDE,z,0.50895,,,,,,0.030798197,-0.400861104,0,0,0,,0,207,207,379,1,,
,,,,,,,,,,,,,,,,,,5bc9f8b677740000016a08b5,2020-11-27_10h02.32.737,lexical_decision_task_MP_exp2,2020.2.5,Linux x86_64,60,,m,1,,,,,,,,0.592105,1,,,,,,175,WORD,"ID",16,fabric,FABRIC,m,0.592105,,,,,,0.030798197,-0.400861104,0,0,0,,0,208,208,114,1,,
,,,,,,,,,,,,,,,,,,5bc9f8b677740000016a08b5,2020-11-27_10h02.32.737,lexical_decision_task_MP_exp2,2020.2.5,Linux x86_64,60,,z,1,,,,,,,,0.572615,1,,,,,,459,NW,UN,33,mingar,BAFENT,z,0.572615,,,,,,0.030798197,-0.400861104,0,0,0,,0,209,209,398,1,,
,,,,,,,,,,,,,,,,,,5bc9f8b677740000016a08b5,2020-11-27_10h02.32.737,lexical_decision_task_MP_exp2,2020.2.5,Linux x86_64,60,,z,1,,,,,,,,0.541075,1,,,,,,302,NW,"ID",33,miluer,MILUER,z,0.541075,,,,,,0.030798197,-0.400861104,0,0,0,,0,210,210,241,1,,
,,,,,,,,,,,,,,,,,,5bc9f8b677740000016a08b5,2020-11-27_10h02.32.737,lexical_decision_task_MP_exp2,2020.2.5,Linux x86_64,60,,z,1,,,,,,,,0.65311,1,,,,,,394,NW,"ID",16,spaqux,SPAQUX,z,0.65311,,,,,,0.030798197,-0.400861104,0,0,0,,0,211,211,333,1,,
,,,,,,,,,,,,,,,,,,5bc9f8b677740000016a08b5,2020-11-27_10h02.32.737,lexical_decision_task_MP_exp2,2020.2.5,Linux x86_64,60,,z,1,,,,,,,,0.559285,1,,,,,,415,NW,"ID",16,higsta,HIGSTA,z,0.559285,,,,,,0.030798197,-0.400861104,0,0,0,,0,212,212,354,1,,
,,,,,,,,,,,,,,,,,,5bc9f8b677740000016a08b5,2020-11-27_10h02.32.737,lexical_decision_task_MP_exp2,2020.2.5,Linux x86_64,60,,z,1,,,,,,,,0.61116,1,,,,,,369,NW,"ID",16,wronch,WRONCH,z,0.61116,,,,,,0.030798197,-0.400861104,0,0,0,,0,213,213,308,1,,
,,,,,,,,,,,,,,,,,,5bc9f8b677740000016a08b5,2020-11-27_10h02.32.737,lexical_decision_task_MP_exp2,2020.2.5,Linux x86_64,60,,z,1,,,,,,,,0.6832,1,,,,,,288,NW,UN,16,starby,YACEUP,z,0.6832,,,,,,0.030798197,-0.400861104,0,0,0,,0,214,214,467,1,,
,,,,,,,,,,,,,,,,,,5bc9f8b677740000016a08b5,2020-11-27_10h02.32.737,lexical_decision_task_MP_exp2,2020.2.5,Linux x86_64,60,,m,1,,,,,,,,0.558635,1,,,,,,207,WORD,UN,33,hockey,WREATH,m,0.558635,,,,,,0.030798197,-0.400861104,0,0,0,,0,215,215,146,1,,
,,,,,,,,,,,,,,,,,,5bc9f8b677740000016a08b5,2020-11-27_10h02.32.737,lexical_decision_task_MP_exp2,2020.2.5,Linux x86_64,60,,m,1,,,,,,,,0.60368,1,,,,,,116,WORD,"ID",33,tumble,TUMBLE,m,0.60368,,,,,,0.030798197,-0.400861104,0,0,0,,0,216,216,55,1,,
,,,,,,,,,,,,,,,,,,5bc9f8b677740000016a08b5,2020-11-27_10h02.32.737,lexical_decision_task_MP_exp2,2020.2.5,Linux x86_64,60,,z,1,,,,,,,,0.608755,1,,,,,,426,NW,UN,33,schind,URIVEL,z,0.608755,,,,,,0.030798197,-0.400861104,0,0,0,,0,217,217,365,1,,
,,,,,,,,,,,,,,,,,,5bc9f8b677740000016a08b5,2020-11-27_10h02.32.737,lexical_decision_task_MP_exp2,2020.2.5,Linux x86_64,60,,z,1,,,,,,,,0.590855,1,,,,,,262,NW,UN,16,dolica,QUILEW,z,0.590855,,,,,,0.030798197,-0.400861104,0,0,0,,0,218,218,441,1,,
,,,,,,,,,,,,,,,,,,5bc9f8b677740000016a08b5,2020-11-27_10h02.32.737,lexical_decision_task_MP_exp2,2020.2.5,Linux x86_64,60,,z,1,,,,,,,,0.535745,1,,,,,,399,NW,"ID",16,fouret,FOURET,z,0.535745,,,,,,0.030798197,-0.400861104,0,0,0,,0,219,219,338,1,,
,,,,,,,,,,,,,,,,,,5bc9f8b677740000016a08b5,2020-11-27_10h02.32.737,lexical_decision_task_MP_exp2,2020.2.5,Linux x86_64,60,,m,1,,,,,,,,0.535545,1,,,,,,128,WORD,"ID",16,senior,SENIOR,m,0.535545,,,,,,0.030798197,-0.400861104,0,0,0,,0,220,220,67,1,,
,,,,,,,,,,,,,,,,,,5bc9f8b677740000016a08b5,2020-11-27_10h02.32.737,lexical_decision_task_MP_exp2,2020.2.5,Linux x86_64,60,,z,1,,,,,,,,0.73936,1,,,,,,425,NW,UN,33,urivel,FRUDGE,z,0.73936,,,,,,0.030798197,-0.400861104,0,0,0,,0,221,221,364,1,,
,,,,,,,,,,,,,,,,,,5bc9f8b677740000016a08b5,2020-11-27_10h02.32.737,lexical_decision_task_MP_exp2,2020.2.5,Linux x86_64,60,,m,1,,,,,,,,0.62134,1,,,,,,12,WORD,UN,16,strive,ORANGE,m,0.62134,,,,,,0.030798197,-0.400861104,0,0,0,,0,222,222,191,1,,
,,,,,,,,,,,,,,,,,,5bc9f8b677740000016a08b5,2020-11-27_10h02.32.737,lexical_decision_task_MP_exp2,2020.2.5,Linux x86_64,60,,z,1,,,,,,,,0.60559,1,,,,,,476,NW,UN,33,photie,JOSTED,z,0.60559,,,,,,0.030798197,-0.400861104,0,0,0,,0,223,223,415,1,,
,,,,,,,,,,,,,,,,,,5bc9f8b677740000016a08b5,2020-11-27_10h02.32.737,lexical_decision_task_MP_exp2,2020.2.5,Linux x86_64,60,,m,1,,,,,,,,0.55096,1,,,,,,38,WORD,UN,16,insect,POWDER,m,0.55096,,,,,,0.030798197,-0.400861104,0,0,0,,0,224,224,217,1,,
,,,,,,,,,,,,,,,,,,5bc9f8b677740000016a08b5,2020-11-27_10h02.32.737,lexical_decision_task_MP_exp2,2020.2.5,Linux x86_64,60,,z,1,,,,,,,,0.62248,1,,,,,,384,NW,"ID",16,guesco,GUESCO,z,0.62248,,,,,,0.030798197,-0.400861104,0,0,0,,0,225,225,323,1,,
,,,,,,,,,,,,,,,,,,5bc9f8b677740000016a08b5,2020-11-27_10h02.32.737,lexical_decision_task_MP_exp2,2020.2.5,Linux x86_64,60,,m,1,,,,,,,,0.6175,1,,,,,,221,WORD,UN,33,hinder,MASCOT,m,0.6175,,,,,,0.030798197,-0.400861104,0,0,0,,0,226,226,160,1,,
,,,,,,,,,,,,,,,,,,5bc9f8b677740000016a08b5,2020-11-27_10h02.32.737,lexical_decision_task_MP_exp2,2020.2.5,Linux x86_64,60,,m,1,,,,,,,,0.55223,1,,,,,,1,WORD,UN,16,ethnic,FRIGHT,m,0.55223,,,,,,0.030798197,-0.400861104,0,0,0,,0,227,227,180,1,,
,,,,,,,,,,,,,,,,,,5bc9f8b677740000016a08b5,2020-11-27_10h02.32.737,lexical_decision_task_MP_exp2,2020.2.5,Linux x86_64,60,,m,1,,,,,,,,0.53293,1,,,,,,112,WORD,"ID",33,breath,BREATH,m,0.53293,,,,,,0.030798197,-0.400861104,0,0,0,,0,228,228,51,1,,
,,,,,,,,,,,,,,,,,,5bc9f8b677740000016a08b5,2020-11-27_10h02.32.737,lexical_decision_task_MP_exp2,2020.2.5,Linux x86_64,60,,z,1,,,,,,,,0.62132,1,,,,,,393,NW,"ID",16,ganous,GANOUS,z,0.62132,,,,,,0.030798197,-0.400861104,0,0,0,,0,229,229,332,1,,
,,,,,,,,,,,,,,,,,,5bc9f8b677740000016a08b5,2020-11-27_10h02.32.737,lexical_decision_task_MP_exp2,2020.2.5,Linux x86_64,60,,z,1,,,,,,,,0.553,1,,,,,,358,NW,"ID",33,fleack,FLEACK,z,0.553,,,,,,0.030798197,-0.400861104,0,0,0,,0,230,230,297,1,,
,,,,,,,,,,,,,,,,,,5bc9f8b677740000016a08b5,2020-11-27_10h02.32.737,lexical_decision_task_MP_exp2,2020.2.5,Linux x86_64,60,,m,1,,,,,,,,0.56139,1,,,,,,20,WORD,UN,16,simple,BREAST,m,0.56139,,,,,,0.030798197,-0.400861104,0,0,0,,0,231,231,199,1,,
,,,,,,,,,,,,,,,,,,5bc9f8b677740000016a08b5,2020-11-27_10h02.32.737,lexical_decision_task_MP_exp2,2020.2.5,Linux x86_64,60,,z,1,,,,,,,,0.582485,1,,,,,,336,NW,"ID",33,ghodus,GHODUS,z,0.582485,,,,,,0.030798197,-0.400861104,0,0,0,,0,232,232,275,1,,
,,,,,,,,,,,,,,,,,,5bc9f8b677740000016a08b5,2020-11-27_10h02.32.737,lexical_decision_task_MP_exp2,2020.2.5,Linux x86_64,60,,m,1,,,,,,,,0.568605,1,,,,,,34,WORD,UN,16,socket,JUNGLE,m,0.568605,,,,,,0.030798197,-0.400861104,0,0,0,,0,233,233,213,1,,
,,,,,,,,,,,,,,,,,,5bc9f8b677740000016a08b5,2020-11-27_10h02.32.737,lexical_decision_task_MP_exp2,2020.2.5,Linux x86_64,60,,m,1,,,,,,,,0.58812,1,,,,,,203,WORD,UN,33,burden,PHRASE,m,0.58812,,,,,,0.030798197,-0.400861104,0,0,0,,0,234,234,142,1,,
,,,,,,,,,,,,,,,,,,5bc9f8b677740000016a08b5,2020-11-27_10h02.32.737,lexical_decision_task_MP_exp2,2020.2.5,Linux x86_64,60,,z,1,,,,,,,,0.72778,1,,,,,,458,NW,UN,33,hocite,BARCET,z,0.72778,,,,,,0.030798197,-0.400861104,0,0,0,,0,235,235,397,1,,
,,,,,,,,,,,,,,,,,,5bc9f8b677740000016a08b5,2020-11-27_10h02.32.737,lexical_decision_task_MP_exp2,2020.2.5,Linux x86_64,60,,m,1,,,,,,,,0.48815,1,,,,,,115,WORD,"ID",33,guitar,GUITAR,m,0.48815,,,,,,0.030798197,-0.400861104,0,0,0,,0,236,236,54,1,,
,,,,,,,,,,,,,,,,,,5bc9f8b677740000016a08b5,2020-11-27_10h02.32.737,lexical_decision_task_MP_exp2,2020.2.5,Linux x86_64,60,,z,1,,,,,,,,0.5619,1,,,,,,370,NW,"ID",16,sleact,SLEACT,z,0.5619,,,,,,0.030798197,-0.400861104,0,0,0,,0,237,237,309,1,,
,,,,,,,,,,,,,,,,,,5bc9f8b677740000016a08b5,2020-11-27_10h02.32.737,lexical_decision_task_MP_exp2,2020.2.5,Linux x86_64,60,,m,1,,,,,,,,0.657735,1,,,,,,191,WORD,UN,33,beacon,STABLE,m,0.657735,,,,,,0.030798197,-0.400861104,0,0,0,,0,238,238,130,1,,
,,,,,,,,,,,,,,,,,,5bc9f8b677740000016a08b5,2020-11-27_10h02.32.737,lexical_decision_task_MP_exp2,2020.2.5,Linux x86_64,60,,m,1,,,,,,,,0.471915,1,,,,,,210,WORD,UN,33,infect,MONKEY,m,0.471915,,,,,,0.030798197,-0.400861104,0,0,0,,0,239,239,149,1,,
,,,,,,,,,,,,,,,,,,5bc9f8b677740000016a08b5,2020-11-27_10h02.32.737,lexical_decision_task_MP_exp2,2020.2.5,Linux x86_64,60,,m,1,,,,,,,,0.578115,1,,,,,,126,WORD,"ID",16,enough,ENOUGH,m,0.578115,,,,,,0.030798197,-0.400861104,0,0,0,,0,240,240,65,1,,
,,,,,,,,,,,,,,,,,,5bc9f8b677740000016a08b5,2020-11-27_10h02.32.737,lexical_decision_task_MP_exp2,2020.2.5,Linux x86_64,60,,m,1,,,,,,,,0.647595,1,,,,,,239,WORD,UN,33,forest,LUMBER,m,0.647595,,,,,,0.015558402,-0.41894412,1,0,0,,0,241,241,178,1,break_done_button,
,,,,,,,,,,,,,,,,,,5bc9f8b677740000016a08b5,2020-11-27_10h02.32.737,lexical_decision_task_MP_exp2,2020.2.5,Linux x86_64,60,,m,1,,,,,,,,0.619795,1,,,,,,43,WORD,UN,16,foster,TONGUE,m,0.619795,,,,,,0.015558402,-0.41894412,0,0,0,,0,242,242,222,1,,
,,,,,,,,,,,,,,,,,,5bc9f8b677740000016a08b5,2020-11-27_10h02.32.737,lexical_decision_task_MP_exp2,2020.2.5,Linux x86_64,60,,m,1,,,,,,,,0.52602,1,,,,,,23,WORD,UN,16,praise,WEALTH,m,0.52602,,,,,,0.015558402,-0.41894412,0,0,0,,0,243,243,202,1,,
,,,,,,,,,,,,,,,,,,5bc9f8b677740000016a08b5,2020-11-27_10h02.32.737,lexical_decision_task_MP_exp2,2020.2.5,Linux x86_64,60,,m,1,,,,,,,,0.63723,1,,,,,,58,WORD,UN,16,splint,FOSTER,m,0.63723,,,,,,0.015558402,-0.41894412,0,0,0,,0,244,244,237,1,,
,,,,,,,,,,,,,,,,,,5bc9f8b677740000016a08b5,2020-11-27_10h02.32.737,lexical_decision_task_MP_exp2,2020.2.5,Linux x86_64,60,,z,1,,,,,,,,0.559245,1,,,,,,382,NW,"ID",16,sarley,SARLEY,z,0.559245,,,,,,0.015558402,-0.41894412,0,0,0,,0,245,245,321,1,,
,,,,,,,,,,,,,,,,,,5bc9f8b677740000016a08b5,2020-11-27_10h02.32.737,lexical_decision_task_MP_exp2,2020.2.5,Linux x86_64,60,,z,1,,,,,,,,0.532415,1,,,,,,467,NW,UN,33,wictor,GORBIE,z,0.532415,,,,,,0.015558402,-0.41894412,0,0,0,,0,246,246,406,1,,
,,,,,,,,,,,,,,,,,,5bc9f8b677740000016a08b5,2020-11-27_10h02.32.737,lexical_decision_task_MP_exp2,2020.2.5,Linux x86_64,60,,z,1,,,,,,,,0.526965,1,,,,,,381,NW,"ID",16,huniek,HUNIEK,z,0.526965,,,,,,0.015558402,-0.41894412,0,0,0,,0,247,247,320,1,,
,,,,,,,,,,,,,,,,,,5bc9f8b677740000016a08b5,2020-11-27_10h02.32.737,lexical_decision_task_MP_exp2,2020.2.5,Linux x86_64,60,,z,1,,,,,,,,0.546235,1,,,,,,320,NW,"ID",33,jockal,JOCKAL,z,0.546235,,,,,,0.015558402,-0.41894412,0,0,0,,0,248,248,259,1,,
,,,,,,,,,,,,,,,,,,5bc9f8b677740000016a08b5,2020-11-27_10h02.32.737,lexical_decision_task_MP_exp2,2020.2.5,Linux x86_64,60,,z,1,,,,,,,,0.45324,1,,,,,,308,NW,"ID",33,psetch,PSETCH,z,0.45324,,,,,,0.015558402,-0.41894412,0,0,0,,0,249,249,247,1,,
,,,,,,,,,,,,,,,,,,5bc9f8b677740000016a08b5,2020-11-27_10h02.32.737,lexical_decision_task_MP_exp2,2020.2.5,Linux x86_64,60,,m,1,,,,,,,,0.538965,1,,,,,,69,WORD,"ID",33,plenty,PLENTY,m,0.538965,,,,,,0.015558402,-0.41894412,0,0,0,,0,250,250,8,1,,
,,,,,,,,,,,,,,,,,,5bc9f8b677740000016a08b5,2020-11-27_10h02.32.737,lexical_decision_task_MP_exp2,2020.2.5,Linux x86_64,60,,z,1,,,,,,,,0.520955,1,,,,,,259,NW,UN,16,unject,SOUDAL,z,0.520955,,,,,,0.015558402,-0.41894412,0,0,0,,0,251,251,438,1,,
,,,,,,,,,,,,,,,,,,5bc9f8b677740000016a08b5,2020-11-27_10h02.32.737,lexical_decision_task_MP_exp2,2020.2.5,Linux x86_64,60,,z,1,,,,,,,,0.504445,1,,,,,,414,NW,"ID",16,serbol,SERBOL,z,0.504445,,,,,,0.015558402,-0.41894412,0,0,0,,0,252,252,353,1,,
,,,,,,,,,,,,,,,,,,5bc9f8b677740000016a08b5,2020-11-27_10h02.32.737,lexical_decision_task_MP_exp2,2020.2.5,Linux x86_64,60,,z,1,,,,,,,,0.50124,1,,,,,,264,NW,UN,16,distar,VACKEL,z,0.50124,,,,,,0.015558402,-0.41894412,0,0,0,,0,253,253,443,1,,
,,,,,,,,,,,,,,,,,,5bc9f8b677740000016a08b5,2020-11-27_10h02.32.737,lexical_decision_task_MP_exp2,2020.2.5,Linux x86_64,60,,m,1,,,,,,,,0.52142,1,,,,,,97,WORD,"ID",33,client,CLIENT,m,0.52142,,,,,,0.015558402,-0.41894412,0,0,0,,0,254,254,36,1,,
,,,,,,,,,,,,,,,,,,5bc9f8b677740000016a08b5,2020-11-27_10h02.32.737,lexical_decision_task_MP_exp2,2020.2.5,Linux x86_64,60,,z,1,,,,,,,,0.51565,1,,,,,,464,NW,UN,33,whivex,CHAITE,z,0.51565,,,,,,0.015558402,-0.41894412,0,0,0,,0,255,255,403,1,,
,,,,,,,,,,,,,,,,,,5bc9f8b677740000016a08b5,2020-11-27_10h02.32.737,lexical_decision_task_MP_exp2,2020.2.5,Linux x86_64,60,,m,1,,,,,,,,0.512235,1,,,,,,182,WORD,UN,33,absent,WINTER,m,0.512235,,,,,,0.015558402,-0.41894412,0,0,0,,0,256,256,121,1,,
,,,,,,,,,,,,,,,,,,5bc9f8b677740000016a08b5,2020-11-27_10h02.32.737,lexical_decision_task_MP_exp2,2020.2.5,Linux x86_64,60,,m,1,,,,,,,,0.536135,1,,,,,,180,WORD,"ID",16,silent,SILENT,m,0.536135,,,,,,0.015558402,-0.41894412,0,0,0,,0,257,257,119,1,,
,,,,,,,,,,,,,,,,,,5bc9f8b677740000016a08b5,2020-11-27_10h02.32.737,lexical_decision_task_MP_exp2,2020.2.5,Linux x86_64,60,,z,1,,,,,,,,0.503665,1,,,,,,330,NW,"ID",33,kensom,KENSOM,z,0.503665,,,,,,0.015558402,-0.41894412,0,0,0,,0,258,258,269,1,,
,,,,,,,,,,,,,,,,,,5bc9f8b677740000016a08b5,2020-11-27_10h02.32.737,lexical_decision_task_MP_exp2,2020.2.5,Linux x86_64,60,,m,1,,,,,,,,0.576175,1,,,,,,160,WORD,"ID",16,violet,VIOLET,m,0.576175,,,,,,0.015558402,-0.41894412,0,0,0,,0,259,259,99,1,,
,,,,,,,,,,,,,,,,,,5bc9f8b677740000016a08b5,2020-11-27_10h02.32.737,lexical_decision_task_MP_exp2,2020.2.5,Linux x86_64,60,,z,1,,,,,,,,0.573315,1,,,,,,479,NW,UN,33,crible,LOBUSH,z,0.573315,,,,,,0.015558402,-0.41894412,0,0,0,,0,260,260,418,1,,
,,,,,,,,,,,,,,,,,,5bc9f8b677740000016a08b5,2020-11-27_10h02.32.737,lexical_decision_task_MP_exp2,2020.2.5,Linux x86_64,60,,z,1,,,,,,,,0.77713,1,,,,,,348,NW,"ID",33,dumple,DUMPLE,z,0.77713,,,,,,0.015558402,-0.41894412,0,0,0,,0,261,261,287,1,,
,,,,,,,,,,,,,,,,,,5bc9f8b677740000016a08b5,2020-11-27_10h02.32.737,lexical_decision_task_MP_exp2,2020.2.5,Linux x86_64,60,,m,1,,,,,,,,0.582845,1,,,,,,201,WORD,UN,33,factor,ADMIRE,m,0.582845,,,,,,0.015558402,-0.41894412,0,0,0,,0,262,262,140,1,,
,,,,,,,,,,,,,,,,,,5bc9f8b677740000016a08b5,2020-11-27_10h02.32.737,lexical_decision_task_MP_exp2,2020.2.5,Linux x86_64,60,,z,1,,,,,,,,0.55475,1,,,,,,374,NW,"ID",16,sliant,SLIANT,z,0.55475,,,,,,0.015558402,-0.41894412,0,0,0,,0,263,263,313,1,,
,,,,,,,,,,,,,,,,,,5bc9f8b677740000016a08b5,2020-11-27_10h02.32.737,lexical_decision_task_MP_exp2,2020.2.5,Linux x86_64,60,,m,1,,,,,,,,0.653425,1,,,,,,215,WORD,UN,33,lumber,PHOBIA,m,0.653425,,,,,,0.015558402,-0.41894412,0,0,0,,0,264,264,154,1,,
,,,,,,,,,,,,,,,,,,5bc9f8b677740000016a08b5,2020-11-27_10h02.32.737,lexical_decision_task_MP_exp2,2020.2.5,Linux x86_64,60,,m,1,,,,,,,,0.5983,1,,,,,,161,WORD,"ID",16,pastor,PASTOR,m,0.5983,,,,,,0.015558402,-0.41894412,0,0,0,,0,265,265,100,1,,
,,,,,,,,,,,,,,,,,,5bc9f8b677740000016a08b5,2020-11-27_10h02.32.737,lexical_decision_task_MP_exp2,2020.2.5,Linux x86_64,60,,z,1,,,,,,,,0.59272,1,,,,,,363,NW,"ID",16,breali,BREALI,z,0.59272,,,,,,0.015558402,-0.41894412,0,0,0,,0,266,266,302,1,,
,,,,,,,,,,,,,,,,,,5bc9f8b677740000016a08b5,2020-11-27_10h02.32.737,lexical_decision_task_MP_exp2,2020.2.5,Linux x86_64,60,,z,1,,,,,,,,0.59874,1,,,,,,317,NW,"ID",33,worbal,WORBAL,z,0.59874,,,,,,0.015558402,-0.41894412,0,0,0,,0,267,267,256,1,,
,,,,,,,,,,,,,,,,,,5bc9f8b677740000016a08b5,2020-11-27_10h02.32.737,lexical_decision_task_MP_exp2,2020.2.5,Linux x86_64,60,,m,1,,,,,,,,0.61552,1,,,,,,226,WORD,UN,33,flower,CASINO,m,0.61552,,,,,,0.015558402,-0.41894412,0,0,0,,0,268,268,165,1,,
,,,,,,,,,,,,,,,,,,5bc9f8b677740000016a08b5,2020-11-27_10h02.32.737,lexical_decision_task_MP_exp2,2020.2.5,Linux x86_64,60,,z,1,,,,,,,,0.650135,1,,,,,,287,NW,UN,16,yaceup,NYMBEL,z,0.650135,,,,,,0.015558402,-0.41894412,0,0,0,,0,269,269,466,1,,
,,,,,,,,,,,,,,,,,,5bc9f8b677740000016a08b5,2020-11-27_10h02.32.737,lexical_decision_task_MP_exp2,2020.2.5,Linux x86_64,60,,m,1,,,,,,,,0.5882,1,,,,,,17,WORD,UN,16,humble,CHARGE,m,0.5882,,,,,,0.015558402,-0.41894412,0,0,0,,0,270,270,196,1,,
,,,,,,,,,,,,,,,,,,5bc9f8b677740000016a08b5,2020-11-27_10h02.32.737,lexical_decision_task_MP_exp2,2020.2.5,Linux x86_64,60,,m,1,,,,,,,,0.608385,1,,,,,,199,WORD,UN,33,plague,INVOKE,m,0.608385,,,,,,0.015558402,-0.41894412,0,0,0,,0,271,271,138,1,,
,,,,,,,,,,,,,,,,,,5bc9f8b677740000016a08b5,2020-11-27_10h02.32.737,lexical_decision_task_MP_exp2,2020.2.5,Linux x86_64,60,,z,1,,,,,,,,0.582635,1,,,,,,279,NW,UN,16,curbol,CELOND,z,0.582635,,,,,,0.015558402,-0.41894412,0,0,0,,0,272,272,458,1,,
,,,,,,,,,,,,,,,,,,5bc9f8b677740000016a08b5,2020-11-27_10h02.32.737,lexical_decision_task_MP_exp2,2020.2.5,Linux x86_64,60,,z,1,,,,,,,,0.72172,1,,,,,,397,NW,"ID",16,camble,CAMBLE,z,0.72172,,,,,,0.015558402,-0.41894412,0,0,0,,0,273,273,336,1,,
,,,,,,,,,,,,,,,,,,5bc9f8b677740000016a08b5,2020-11-27_10h02.32.737,lexical_decision_task_MP_exp2,2020.2.5,Linux x86_64,60,,z,1,,,,,,,,0.467555,1,,,,,,395,NW,"ID",16,colury,COLURY,z,0.467555,,,,,,0.015558402,-0.41894412,0,0,0,,0,274,274,334,1,,
,,,,,,,,,,,,,,,,,,5bc9f8b677740000016a08b5,2020-11-27_10h02.32.737,lexical_decision_task_MP_exp2,2020.2.5,Linux x86_64,60,,z,1,,,,,,,,0.465395,1,,,,,,430,NW,UN,33,chrums,CAROEY,z,0.465395,,,,,,0.015558402,-0.41894412,0,0,0,,0,275,275,369,1,,
,,,,,,,,,,,,,,,,,,5bc9f8b677740000016a08b5,2020-11-27_10h02.32.737,lexical_decision_task_MP_exp2,2020.2.5,Linux x86_64,60,,z,1,,,,,,,,0.48684,1,,,,,,325,NW,"ID",33,thruse,THRUSE,z,0.48684,,,,,,0.015558402,-0.41894412,0,0,0,,0,276,276,264,1,,
,,,,,,,,,,,,,,,,,,5bc9f8b677740000016a08b5,2020-11-27_10h02.32.737,lexical_decision_task_MP_exp2,2020.2.5,Linux x86_64,60,,z,1,,,,,,,,0.526325,1,,,,,,283,NW,UN,16,shaple,VERALF,z,0.526325,,,,,,0.015558402,-0.41894412,0,0,0,,0,277,277,462,1,,
,,,,,,,,,,,,,,,,,,5bc9f8b677740000016a08b5,2020-11-27_10h02.32.737,lexical_decision_task_MP_exp2,2020.2.5,Linux x86_64,60,,m,1,,,,,,,,0.525435,1,,,,,,6,WORD,UN,16,anchor,BUNDLE,m,0.525435,,,,,,0.015558402,-0.41894412,0,0,0,,0,278,278,185,1,,
,,,,,,,,,,,,,,,,,,5bc9f8b677740000016a08b5,2020-11-27_10h02.32.737,lexical_decision_task_MP_exp2,2020.2.5,Linux x86_64,60,,m,1,,,,,,,,0.514935,1,,,,,,106,WORD,"ID",33,ransom,RANSOM,m,0.514935,,,,,,0.015558402,-0.41894412,0,0,0,,0,279,279,45,1,,
,,,,,,,,,,,,,,,,,,5bc9f8b677740000016a08b5,2020-11-27_10h02.32.737,lexical_decision_task_MP_exp2,2020.2.5,Linux x86_64,60,,m,1,,,,,,,,0.492535,1,,,,,,113,WORD,"ID",33,chorus,CHORUS,m,0.492535,,,,,,0.015558402,-0.41894412,0,0,0,,0,280,280,52,1,,
,,,,,,,,,,,,,,,,,,5bc9f8b677740000016a08b5,2020-11-27_10h02.32.737,lexical_decision_task_MP_exp2,2020.2.5,Linux x86_64,60,,z,0,,,,,,,,0.533535,0,,,,,,176,WORD,"ID",16,strife,STRIFE,m,0.533535,,,,,,0.015558402,-0.41894412,0,0,0,,0,281,281,115,1,,
,,,,,,,,,,,,,,,,,,5bc9f8b677740000016a08b5,2020-11-27_10h02.32.737,lexical_decision_task_MP_exp2,2020.2.5,Linux x86_64,60,,m,1,,,,,,,,0.553145,1,,,,,,35,WORD,UN,16,vanish,SOCKET,m,0.553145,,,,,,0.015558402,-0.41894412,0,0,0,,0,282,282,214,1,,
,,,,,,,,,,,,,,,,,,5bc9f8b677740000016a08b5,2020-11-27_10h02.32.737,lexical_decision_task_MP_exp2,2020.2.5,Linux x86_64,60,,m,1,,,,,,,,0.603845,1,,,,,,192,WORD,UN,33,object,PLAGUE,m,0.603845,,,,,,0.015558402,-0.41894412,0,0,0,,0,283,283,131,1,,
,,,,,,,,,,,,,,,,,,5bc9f8b677740000016a08b5,2020-11-27_10h02.32.737,lexical_decision_task_MP_exp2,2020.2.5,Linux x86_64,60,,m,1,,,,,,,,0.553565,1,,,,,,107,WORD,"ID",33,slogan,SLOGAN,m,0.553565,,,,,,0.015558402,-0.41894412,0,0,0,,0,284,284,46,1,,
,,,,,,,,,,,,,,,,,,5bc9f8b677740000016a08b5,2020-11-27_10h02.32.737,lexical_decision_task_MP_exp2,2020.2.5,Linux x86_64,60,,z,1,,,,,,,,0.58405,1,,,,,,449,NW,UN,33,phrect,BRUNGE,z,0.58405,,,,,,0.015558402,-0.41894412,0,0,0,,0,285,285,388,1,,
,,,,,,,,,,,,,,,,,,5bc9f8b677740000016a08b5,2020-11-27_10h02.32.737,lexical_decision_task_MP_exp2,2020.2.5,Linux x86_64,60,,z,1,,,,,,,,0.52323,1,,,,,,450,NW,UN,33,cainky,PHRECT,z,0.52323,,,,,,0.015558402,-0.41894412,0,0,0,,0,286,286,389,1,,
,,,,,,,,,,,,,,,,,,5bc9f8b677740000016a08b5,2020-11-27_10h02.32.737,lexical_decision_task_MP_exp2,2020.2.5,Linux x86_64,60,,m,1,,,,,,,,0.48875,1,,,,,,44,WORD,UN,16,clergy,DANGER,m,0.48875,,,,,,0.015558402,-0.41894412,0,0,0,,0,287,287,223,1,,
,,,,,,,,,,,,,,,,,,5bc9f8b677740000016a08b5,2020-11-27_10h02.32.737,lexical_decision_task_MP_exp2,2020.2.5,Linux x86_64,60,,z,1,,,,,,,,0.534255,1,,,,,,389,NW,"ID",16,witmer,WITMER,z,0.534255,,,,,,0.015558402,-0.41894412,0,0,0,,0,288,288,328,1,,
,,,,,,,,,,,,,,,,,,5bc9f8b677740000016a08b5,2020-11-27_10h02.32.737,lexical_decision_task_MP_exp2,2020.2.5,Linux x86_64,60,,m,1,,,,,,,,0.55062,1,,,,,,140,WORD,"ID",16,prince,PRINCE,m,0.55062,,,,,,0.015558402,-0.41894412,0,0,0,,0,289,289,79,1,,
,,,,,,,,,,,,,,,,,,5bc9f8b677740000016a08b5,2020-11-27_10h02.32.737,lexical_decision_task_MP_exp2,2020.2.5,Linux x86_64,60,,z,1,,,,,,,,0.539595,1,,,,,,423,NW,UN,33,praile,STRELD,z,0.539595,,,,,,0.015558402,-0.41894412,0,0,0,,0,290,290,362,1,,
,,,,,,,,,,,,,,,,,,5bc9f8b677740000016a08b5,2020-11-27_10h02.32.737,lexical_decision_task_MP_exp2,2020.2.5,Linux x86_64,60,,z,1,,,,,,,,0.68371,1,,,,,,365,NW,"ID",16,guairt,GUAIRT,z,0.68371,,,,,,0.015558402,-0.41894412,0,0,0,,0,291,291,304,1,,
,,,,,,,,,,,,,,,,,,5bc9f8b677740000016a08b5,2020-11-27_10h02.32.737,lexical_decision_task_MP_exp2,2020.2.5,Linux x86_64,60,,m,1,,,,,,,,0.57676,1,,,,,,73,WORD,"ID",33,source,SOURCE,m,0.57676,,,,,,0.015558402,-0.41894412,0,0,0,,0,292,292,12,1,,
,,,,,,,,,,,,,,,,,,5bc9f8b677740000016a08b5,2020-11-27_10h02.32.737,lexical_decision_task_MP_exp2,2020.2.5,Linux x86_64,60,,z,1,,,,,,,,0.583165,1,,,,,,475,NW,UN,33,josted,PEBRIC,z,0.583165,,,,,,0.015558402,-0.41894412,0,0,0,,0,293,293,414,1,,
,,,,,,,,,,,,,,,,,,5bc9f8b677740000016a08b5,2020-11-27_10h02.32.737,lexical_decision_task_MP_exp2,2020.2.5,Linux x86_64,60,,z,1,,,,,,,,0.51571,1,,,,,,405,NW,"ID",16,flumni,FLUMNI,z,0.51571,,,,,,0.015558402,-0.41894412,0,0,0,,0,294,294,344,1,,
,,,,,,,,,,,,,,,,,,5bc9f8b677740000016a08b5,2020-11-27_10h02.32.737,lexical_decision_task_MP_exp2,2020.2.5,Linux x86_64,60,,z,1,,,,,,,,0.632495,1,,,,,,411,NW,"ID",16,orchin,ORCHIN,z,0.632495,,,,,,0.015558402,-0.41894412,0,0,0,,0,295,295,350,1,,
,,,,,,,,,,,,,,,,,,5bc9f8b677740000016a08b5,2020-11-27_10h02.32.737,lexical_decision_task_MP_exp2,2020.2.5,Linux x86_64,60,,m,1,,,,,,,,0.528085,1,,,,,,198,WORD,UN,33,invoke,WICKED,m,0.528085,,,,,,0.015558402,-0.41894412,0,0,0,,0,296,296,137,1,,
,,,,,,,,,,,,,,,,,,5bc9f8b677740000016a08b5,2020-11-27_10h02.32.737,lexical_decision_task_MP_exp2,2020.2.5,Linux x86_64,60,,m,1,,,,,,,,0.515425,1,,,,,,233,WORD,UN,33,clumsy,NATURE,m,0.515425,,,,,,0.015558402,-0.41894412,0,0,0,,0,297,297,172,1,,
,,,,,,,,,,,,,,,,,,5bc9f8b677740000016a08b5,2020-11-27_10h02.32.737,lexical_decision_task_MP_exp2,2020.2.5,Linux x86_64,60,,z,1,,,,,,,,0.567075,1,,,,,,275,NW,UN,16,yarmon,SLEIRT,z,0.567075,,,,,,0.015558402,-0.41894412,0,0,0,,0,298,298,454,1,,
,,,,,,,,,,,,,,,,,,5bc9f8b677740000016a08b5,2020-11-27_10h02.32.737,lexical_decision_task_MP_exp2,2020.2.5,Linux x86_64,60,,z,1,,,,,,,,0.54229,1,,,,,,431,NW,UN,33,lunker,CHRUMS,z,0.54229,,,,,,0.015558402,-0.41894412,0,0,0,,0,299,299,370,1,,
,,,,,,,,,,,,,,,,,,5bc9f8b677740000016a08b5,2020-11-27_10h02.32.737,lexical_decision_task_MP_exp2,2020.2.5,Linux x86_64,60,,z,1,,,,,,,,0.477115,1,,,,,,301,NW,"ID",33,fainch,FAINCH,z,0.477115,,,,,,0.015558402,-0.41894412,0,0,0,,0,300,300,240,1,,
,,,,,,,,,,,,,,,,,,5bc9f8b677740000016a08b5,2020-11-27_10h02.32.737,lexical_decision_task_MP_exp2,2020.2.5,Linux x86_64,60,,m,1,,,,,,,,0.595125,1,,,,,,153,WORD,"ID",16,behold,BEHOLD,m,0.595125,,,,,,0.015558402,-0.41894412,0,0,0,,0,301,301,92,1,,
,,,,,,,,,,,,,,,,,,5bc9f8b677740000016a08b5,2020-11-27_10h02.32.737,lexical_decision_task_MP_exp2,2020.2.5,Linux x86_64,60,,m,1,,,,,,,,0.50528,1,,,,,,55,WORD,UN,16,ambush,STROKE,m,0.50528,,,,,,0.015558402,-0.41894412,0,0,0,,0,302,302,234,1,,
,,,,,,,,,,,,,,,,,,5bc9f8b677740000016a08b5,2020-11-27_10h02.32.737,lexical_decision_task_MP_exp2,2020.2.5,Linux x86_64,60,,z,1,,,,,,,,0.58365,1,,,,,,299,NW,UN,16,yarion,STURCH,z,0.58365,,,,,,0.015558402,-0.41894412,0,0,0,,0,303,303,478,1,,
,,,,,,,,,,,,,,,,,,5bc9f8b677740000016a08b5,2020-11-27_10h02.32.737,lexical_decision_task_MP_exp2,2020.2.5,Linux x86_64,60,,m,1,,,,,,,,0.60173,1,,,,,,214,WORD,UN,33,phobia,INTAKE,m,0.60173,,,,,,0.015558402,-0.41894412,0,0,0,,0,304,304,153,1,,
,,,,,,,,,,,,,,,,,,5bc9f8b677740000016a08b5,2020-11-27_10h02.32.737,lexical_decision_task_MP_exp2,2020.2.5,Linux x86_64,60,,m,1,,,,,,,,0.482415,1,,,,,,240,WORD,UN,33,seldom,FOREST,m,0.482415,,,,,,0.015558402,-0.41894412,0,0,0,,0,305,305,179,1,,
,,,,,,,,,,,,,,,,,,5bc9f8b677740000016a08b5,2020-11-27_10h02.32.737,lexical_decision_task_MP_exp2,2020.2.5,Linux x86_64,60,,z,1,,,,,,,,0.5402,1,,,,,,406,NW,"ID",16,nouply,NOUPLY,z,0.5402,,,,,,0.015558402,-0.41894412,0,0,0,,0,306,306,345,1,,
,,,,,,,,,,,,,,,,,,5bc9f8b677740000016a08b5,2020-11-27_10h02.32.737,lexical_decision_task_MP_exp2,2020.2.5,Linux x86_64,60,,z,1,,,,,,,,0.492815,1,,,,,,452,NW,UN,33,bolvis,SURDEN,z,0.492815,,,,,,0.015558402,-0.41894412,0,0,0,,0,307,307,391,1,,
,,,,,,,,,,,,,,,,,,5bc9f8b677740000016a08b5,2020-11-27_10h02.32.737,lexical_decision_task_MP_exp2,2020.2.5,Linux x86_64,60,,z,1,,,,,,,,0.484395,1,,,,,,277,NW,UN,16,unighs,PETAIN,z,0.484395,,,,,,0.015558402,-0.41894412,0,0,0,,0,308,308,456,1,,
,,,,,,,,,,,,,,,,,,5bc9f8b677740000016a08b5,2020-11-27_10h02.32.737,lexical_decision_task_MP_exp2,2020.2.5,Linux x86_64,60,,m,1,,,,,,,,0.58458,1,,,,,,211,WORD,UN,33,verify,INFECT,m,0.58458,,,,,,0.015558402,-0.41894412,0,0,0,,0,309,309,150,1,,
,,,,,,,,,,,,,,,,,,5bc9f8b677740000016a08b5,2020-11-27_10h02.32.737,lexical_decision_task_MP_exp2,2020.2.5,Linux x86_64,60,,m,1,,,,,,,,0.46008,1,,,,,,165,WORD,"ID",16,invest,INVEST,m,0.46008,,,,,,0.015558402,-0.41894412,0,0,0,,0,310,310,104,1,,
,,,,,,,,,,,,,,,,,,5bc9f8b677740000016a08b5,2020-11-27_10h02.32.737,lexical_decision_task_MP_exp2,2020.2.5,Linux x86_64,60,,z,1,,,,,,,,0.504965,1,,,,,,324,NW,"ID",33,steikh,STEIKH,z,0.504965,,,,,,0.015558402,-0.41894412,0,0,0,,0,311,311,263,1,,
,,,,,,,,,,,,,,,,,,5bc9f8b677740000016a08b5,2020-11-27_10h02.32.737,lexical_decision_task_MP_exp2,2020.2.5,Linux x86_64,60,,z,1,,,,,,,,0.537605,1,,,,,,386,NW,"ID",16,ancust,ANCUST,z,0.537605,,,,,,0.015558402,-0.41894412,0,0,0,,0,312,312,325,1,,
,,,,,,,,,,,,,,,,,,5bc9f8b677740000016a08b5,2020-11-27_10h02.32.737,lexical_decision_task_MP_exp2,2020.2.5,Linux x86_64,60,,z,1,,,,,,,,0.492935,1,,,,,,311,NW,"ID",33,sproly,SPROLY,z,0.492935,,,,,,0.015558402,-0.41894412,0,0,0,,0,313,313,250,1,,
,,,,,,,,,,,,,,,,,,5bc9f8b677740000016a08b5,2020-11-27_10h02.32.737,lexical_decision_task_MP_exp2,2020.2.5,Linux x86_64,60,,z,1,,,,,,,,0.47511,1,,,,,,410,NW,"ID",16,tunory,TUNORY,z,0.47511,,,,,,0.015558402,-0.41894412,0,0,0,,0,314,314,349,1,,
,,,,,,,,,,,,,,,,,,5bc9f8b677740000016a08b5,2020-11-27_10h02.32.737,lexical_decision_task_MP_exp2,2020.2.5,Linux x86_64,60,,z,1,,,,,,,,0.45125,1,,,,,,366,NW,"ID",16,toshel,TOSHEL,z,0.45125,,,,,,0.015558402,-0.41894412,0,0,0,,0,315,315,305,1,,
,,,,,,,,,,,,,,,,,,5bc9f8b677740000016a08b5,2020-11-27_10h02.32.737,lexical_decision_task_MP_exp2,2020.2.5,Linux x86_64,60,,m,1,,,,,,,,0.53479,1,,,,,,228,WORD,UN,33,kidney,MASTER,m,0.53479,,,,,,0.015558402,-0.41894412,0,0,0,,0,316,316,167,1,,
,,,,,,,,,,,,,,,,,,5bc9f8b677740000016a08b5,2020-11-27_10h02.32.737,lexical_decision_task_MP_exp2,2020.2.5,Linux x86_64,60,,z,1,,,,,,,,0.544675,1,,,,,,280,NW,UN,16,melaty,CURBOL,z,0.544675,,,,,,0.015558402,-0.41894412,0,0,0,,0,317,317,459,1,,
,,,,,,,,,,,,,,,,,,5bc9f8b677740000016a08b5,2020-11-27_10h02.32.737,lexical_decision_task_MP_exp2,2020.2.5,Linux x86_64,60,,m,1,,,,,,,,0.60876,1,,,,,,122,WORD,"ID",16,linger,LINGER,m,0.60876,,,,,,0.015558402,-0.41894412,0,0,0,,0,318,318,61,1,,
,,,,,,,,,,,,,,,,,,5bc9f8b677740000016a08b5,2020-11-27_10h02.32.737,lexical_decision_task_MP_exp2,2020.2.5,Linux x86_64,60,,m,1,,,,,,,,0.51588,1,,,,,,118,WORD,"ID",33,flight,FLIGHT,m,0.51588,,,,,,0.015558402,-0.41894412,0,0,0,,0,319,319,57,1,,
,,,,,,,,,,,,,,,,,,5bc9f8b677740000016a08b5,2020-11-27_10h02.32.737,lexical_decision_task_MP_exp2,2020.2.5,Linux x86_64,60,,z,1,,,,,,,,0.49336,1,,,,,,391,NW,"ID",16,theldy,THELDY,z,0.49336,,,,,,0.015558402,-0.41894412,0,0,0,,0,320,320,330,1,,
,,,,,,,,,,,,,,,,,,5bc9f8b677740000016a08b5,2020-11-27_10h02.32.737,lexical_decision_task_MP_exp2,2020.2.5,Linux x86_64,60,,z,0,,,,,,,,0.650355,0,,,,,,62,WORD,"ID",33,region,REGION,m,0.650355,,,,,,0.015558402,-0.41894412,0,0,0,,0,321,321,1,1,,
,,,,,,,,,,,,,,,,,,5bc9f8b677740000016a08b5,2020-11-27_10h02.32.737,lexical_decision_task_MP_exp2,2020.2.5,Linux x86_64,60,,z,1,,,,,,,,0.5379,1,,,,,,327,NW,"ID",33,plenac,PLENAC,z,0.5379,,,,,,0.015558402,-0.41894412,0,0,0,,0,322,322,266,1,,
,,,,,,,,,,,,,,,,,,5bc9f8b677740000016a08b5,2020-11-27_10h02.32.737,lexical_decision_task_MP_exp2,2020.2.5,Linux x86_64,60,,z,1,,,,,,,,0.500055,1,,,,,,312,NW,"ID",33,nerawl,NERAWL,z,0.500055,,,,,,0.015558402,-0.41894412,0,0,0,,0,323,323,251,1,,
,,,,,,,,,,,,,,,,,,5bc9f8b677740000016a08b5,2020-11-27_10h02.32.737,lexical_decision_task_MP_exp2,2020.2.5,Linux x86_64,60,,m,1,,,,,,,,0.77686,1,,,,,,225,WORD,UN,33,casino,VULGAR,m,0.77686,,,,,,0.015558402,-0.41894412,0,0,0,,0,324,324,164,1,,
,,,,,,,,,,,,,,,,,,5bc9f8b677740000016a08b5,2020-11-27_10h02.32.737,lexical_decision_task_MP_exp2,2020.2.5,Linux x86_64,60,,z,1,,,,,,,,0.683215,1,,,,,,388,NW,"ID",16,cragin,CRAGIN,z,0.683215,,,,,,0.015558402,-0.41894412,0,0,0,,0,325,325,327,1,,
,,,,,,,,,,,,,,,,,,5bc9f8b677740000016a08b5,2020-11-27_10h02.32.737,lexical_decision_task_MP_exp2,2020.2.5,Linux x86_64,60,,m,1,,,,,,,,0.549395,1,,,,,,173,WORD,"ID",16,shower,SHOWER,m,0.549395,,,,,,0.015558402,-0.41894412,0,0,0,,0,326,326,112,1,,
,,,,,,,,,,,,,,,,,,5bc9f8b677740000016a08b5,2020-11-27_10h02.32.737,lexical_decision_task_MP_exp2,2020.2.5,Linux x86_64,60,,z,1,,,,,,,,0.521275,1,,,,,,282,NW,UN,16,veralf,PORLEX,z,0.521275,,,,,,0.015558402,-0.41894412,0,0,0,,0,327,327,461,1,,
,,,,,,,,,,,,,,,,,,5bc9f8b677740000016a08b5,2020-11-27_10h02.32.737,lexical_decision_task_MP_exp2,2020.2.5,Linux x86_64,60,,z,1,,,,,,,,0.53443,1,,,,,,424,NW,UN,33,frudge,PRAILE,z,0.53443,,,,,,0.015558402,-0.41894412,0,0,0,,0,328,328,363,1,,
,,,,,,,,,,,,,,,,,,5bc9f8b677740000016a08b5,2020-11-27_10h02.32.737,lexical_decision_task_MP_exp2,2020.2.5,Linux x86_64,60,,z,1,,,,,,,,0.507455,1,,,,,,403,NW,"ID",16,bruats,BRUATS,z,0.507455,,,,,,0.015558402,-0.41894412,0,0,0,,0,329,329,342,1,,
,,,,,,,,,,,,,,,,,,5bc9f8b677740000016a08b5,2020-11-27_10h02.32.737,lexical_decision_task_MP_exp2,2020.2.5,Linux x86_64,60,,z,1,,,,,,,,0.43824,1,,,,,,273,NW,UN,16,fumblo,SORTEL,z,0.43824,,,,,,0.015558402,-0.41894412,0,0,0,,0,330,330,452,1,,
,,,,,,,,,,,,,,,,,,5bc9f8b677740000016a08b5,2020-11-27_10h02.32.737,lexical_decision_task_MP_exp2,2020.2.5,Linux x86_64,60,,m,1,,,,,,,,0.470285,1,,,,,,223,WORD,UN,33,period,KIDNEY,m,0.470285,,,,,,0.015558402,-0.41894412,0,0,0,,0,331,331,162,1,,
,,,,,,,,,,,,,,,,,,5bc9f8b677740000016a08b5,2020-11-27_10h02.32.737,lexical_decision_task_MP_exp2,2020.2.5,Linux x86_64,60,,m,1,,,,,,,,0.548915,1,,,,,,125,WORD,"ID",16,nickel,NICKEL,m,0.548915,,,,,,0.015558402,-0.41894412,0,0,0,,0,332,332,64,1,,
,,,,,,,,,,,,,,,,,,5bc9f8b677740000016a08b5,2020-11-27_10h02.32.737,lexical_decision_task_MP_exp2,2020.2.5,Linux x86_64,60,,m,1,,,,,,,,0.61778,1,,,,,,54,WORD,UN,16,stroke,RAMBLE,m,0.61778,,,,,,0.015558402,-0.41894412,0,0,0,,0,333,333,233,1,,
,,,,,,,,,,,,,,,,,,5bc9f8b677740000016a08b5,2020-11-27_10h02.32.737,lexical_decision_task_MP_exp2,2020.2.5,Linux x86_64,60,,z,1,,,,,,,,0.554035,1,,,,,,333,NW,"ID",33,catrie,CATRIE,z,0.554035,,,,,,0.015558402,-0.41894412,0,0,0,,0,334,334,272,1,,
,,,,,,,,,,,,,,,,,,5bc9f8b677740000016a08b5,2020-11-27_10h02.32.737,lexical_decision_task_MP_exp2,2020.2.5,Linux x86_64,60,,m,1,,,,,,,,0.568745,1,,,,,,42,WORD,UN,16,tongue,CHAPEL,m,0.568745,,,,,,0.015558402,-0.41894412,0,0,0,,0,335,335,221,1,,
,,,,,,,,,,,,,,,,,,5bc9f8b677740000016a08b5,2020-11-27_10h02.32.737,lexical_decision_task_MP_exp2,2020.2.5,Linux x86_64,60,,m,1,,,,,,,,0.501845,1,,,,,,70,WORD,"ID",33,square,SQUARE,m,0.501845,,,,,,0.015558402,-0.41894412,0,0,0,,0,336,336,9,1,,
,,,,,,,,,,,,,,,,,,5bc9f8b677740000016a08b5,2020-11-27_10h02.32.737,lexical_decision_task_MP_exp2,2020.2.5,Linux x86_64,60,,m,1,,,,,,,,0.499755,1,,,,,,7,WORD,UN,16,abrupt,ANCHOR,m,0.499755,,,,,,0.015558402,-0.41894412,0,0,0,,0,337,337,186,1,,
,,,,,,,,,,,,,,,,,,5bc9f8b677740000016a08b5,2020-11-27_10h02.32.737,lexical_decision_task_MP_exp2,2020.2.5,Linux x86_64,60,,z,1,,,,,,,,0.96309,1,,,,,,260,NW,UN,16,stunch,UNJECT,z,0.96309,,,,,,0.015558402,-0.41894412,0,0,0,,0,338,338,439,1,,
,,,,,,,,,,,,,,,,,,5bc9f8b677740000016a08b5,2020-11-27_10h02.32.737,lexical_decision_task_MP_exp2,2020.2.5,Linux x86_64,60,,m,1,,,,,,,,0.521915,1,,,,,,100,WORD,"ID",33,carbon,CARBON,m,0.521915,,,,,,0.015558402,-0.41894412,0,0,0,,0,339,339,39,1,,
,,,,,,,,,,,,,,,,,,5bc9f8b677740000016a08b5,2020-11-27_10h02.32.737,lexical_decision_task_MP_exp2,2020.2.5,Linux x86_64,60,,m,1,,,,,,,,0.58714,1,,,,,,85,WORD,"ID",33,sprawl,SPRAWL,m,0.58714,,,,,,0.015558402,-0.41894412,0,0,0,,0,340,340,24,1,,
,,,,,,,,,,,,,,,,,,5bc9f8b677740000016a08b5,2020-11-27_10h02.32.737,lexical_decision_task_MP_exp2,2020.2.5,Linux x86_64,60,,z,1,,,,,,,,0.59964,1,,,,,,290,NW,UN,16,pretch,SPLINO,z,0.59964,,,,,,0.015558402,-0.41894412,0,0,0,,0,341,341,469,1,,
,,,,,,,,,,,,,,,,,,5bc9f8b677740000016a08b5,2020-11-27_10h02.32.737,lexical_decision_task_MP_exp2,2020.2.5,Linux x86_64,60,,z,1,,,,,,,,0.56882,1,,,,,,242,NW,UN,16,musied,UNWERT,z,0.56882,,,,,,0.015558402,-0.41894412,0,0,0,,0,342,342,421,1,,
,,,,,,,,,,,,,,,,,,5bc9f8b677740000016a08b5,2020-11-27_10h02.32.737,lexical_decision_task_MP_exp2,2020.2.5,Linux x86_64,60,,z,1,,,,,,,,0.619505,1,,,,,,352,NW,"ID",33,tringe,TRINGE,z,0.619505,,,,,,0.015558402,-0.41894412,0,0,0,,0,343,343,291,1,,
,,,,,,,,,,,,,,,,,,5bc9f8b677740000016a08b5,2020-11-27_10h02.32.737,lexical_decision_task_MP_exp2,2020.2.5,Linux x86_64,60,,m,1,,,,,,,,0.606955,1,,,,,,131,WORD,"ID",16,quench,QUENCH,m,0.606955,,,,,,0.015558402,-0.41894412,0,0,0,,0,344,344,70,1,,
,,,,,,,,,,,,,,,,,,5bc9f8b677740000016a08b5,2020-11-27_10h02.32.737,lexical_decision_task_MP_exp2,2020.2.5,Linux x86_64,60,,m,1,,,,,,,,0.52932,1,,,,,,151,WORD,"ID",16,mystic,MYSTIC,m,0.52932,,,,,,0.015558402,-0.41894412,0,0,0,,0,345,345,90,1,,
,,,,,,,,,,,,,,,,,,5bc9f8b677740000016a08b5,2020-11-27_10h02.32.737,lexical_decision_task_MP_exp2,2020.2.5,Linux x86_64,60,,m,1,,,,,,,,0.50506,1,,,,,,83,WORD,"ID",33,result,RESULT,m,0.50506,,,,,,0.015558402,-0.41894412,0,0,0,,0,346,346,22,1,,
,,,,,,,,,,,,,,,,,,5bc9f8b677740000016a08b5,2020-11-27_10h02.32.737,lexical_decision_task_MP_exp2,2020.2.5,Linux x86_64,60,,z,1,,,,,,,,0.54847,1,,,,,,309,NW,"ID",33,amiloy,AMILOY,z,0.54847,,,,,,0.015558402,-0.41894412,0,0,0,,0,347,347,248,1,,
,,,,,,,,,,,,,,,,,,5bc9f8b677740000016a08b5,2020-11-27_10h02.32.737,lexical_decision_task_MP_exp2,2020.2.5,Linux x86_64,60,,m,1,,,,,,,,0.59407,1,,,,,,108,WORD,"ID",33,reckon,RECKON,m,0.59407,,,,,,0.015558402,-0.41894412,0,0,0,,0,348,348,47,1,,
,,,,,,,,,,,,,,,,,,5bc9f8b677740000016a08b5,2020-11-27_10h02.32.737,lexical_decision_task_MP_exp2,2020.2.5,Linux x86_64,60,,z,1,,,,,,,,0.520595,1,,,,,,417,NW,"ID",16,earoud,EAROUD,z,0.520595,,,,,,0.015558402,-0.41894412,0,0,0,,0,349,349,356,1,,
,,,,,,,,,,,,,,,,,,5bc9f8b677740000016a08b5,2020-11-27_10h02.32.737,lexical_decision_task_MP_exp2,2020.2.5,Linux x86_64,60,,m,1,,,,,,,,0.508135,1,,,,,,123,WORD,"ID",16,strike,STRIKE,m,0.508135,,,,,,0.015558402,-0.41894412,0,0,0,,0,350,350,62,1,,
,,,,,,,,,,,,,,,,,,5bc9f8b677740000016a08b5,2020-11-27_10h02.32.737,lexical_decision_task_MP_exp2,2020.2.5,Linux x86_64,60,,m,1,,,,,,,,0.484215,1,,,,,,127,WORD,"ID",16,castle,CASTLE,m,0.484215,,,,,,0.015558402,-0.41894412,0,0,0,,0,351,351,66,1,,
,,,,,,,,,,,,,,,,,,5bc9f8b677740000016a08b5,2020-11-27_10h02.32.737,lexical_decision_task_MP_exp2,2020.2.5,Linux x86_64,60,,z,1,,,,,,,,0.575115,1,,,,,,454,NW,UN,33,tondle,SCOUGE,z,0.575115,,,,,,0.015558402,-0.41894412,0,0,0,,0,352,352,393,1,,
,,,,,,,,,,,,,,,,,,5bc9f8b677740000016a08b5,2020-11-27_10h02.32.737,lexical_decision_task_MP_exp2,2020.2.5,Linux x86_64,60,,z,1,,,,,,,,0.55876,1,,,,,,281,NW,UN,16,porlex,MELATY,z,0.55876,,,,,,0.015558402,-0.41894412,0,0,0,,0,353,353,460,1,,
,,,,,,,,,,,,,,,,,,5bc9f8b677740000016a08b5,2020-11-27_10h02.32.737,lexical_decision_task_MP_exp2,2020.2.5,Linux x86_64,60,,z,1,,,,,,,,0.48741,1,,,,,,323,NW,"ID",33,rosail,ROSAIL,z,0.48741,,,,,,0.015558402,-0.41894412,0,0,0,,0,354,354,262,1,,
,,,,,,,,,,,,,,,,,,5bc9f8b677740000016a08b5,2020-11-27_10h02.32.737,lexical_decision_task_MP_exp2,2020.2.5,Linux x86_64,60,,m,1,,,,,,,,0.541605,1,,,,,,105,WORD,"ID",33,number,NUMBER,m,0.541605,,,,,,0.015558402,-0.41894412,0,0,0,,0,355,355,44,1,,
,,,,,,,,,,,,,,,,,,5bc9f8b677740000016a08b5,2020-11-27_10h02.32.737,lexical_decision_task_MP_exp2,2020.2.5,Linux x86_64,60,,m,1,,,,,,,,0.498725,1,,,,,,28,WORD,UN,16,sketch,COMEDY,m,0.498725,,,,,,0.015558402,-0.41894412,0,0,0,,0,356,356,207,1,,
,,,,,,,,,,,,,,,,,,5bc9f8b677740000016a08b5,2020-11-27_10h02.32.737,lexical_decision_task_MP_exp2,2020.2.5,Linux x86_64,60,,z,1,,,,,,,,0.57698,1,,,,,,258,NW,UN,16,soudal,POLUTH,z,0.57698,,,,,,0.015558402,-0.41894412,0,0,0,,0,357,357,437,1,,
,,,,,,,,,,,,,,,,,,5bc9f8b677740000016a08b5,2020-11-27_10h02.32.737,lexical_decision_task_MP_exp2,2020.2.5,Linux x86_64,60,,z,1,,,,,,,,0.585155,1,,,,,,291,NW,UN,16,ablint,PRETCH,z,0.585155,,,,,,0.015558402,-0.41894412,0,0,0,,0,358,358,470,1,,
,,,,,,,,,,,,,,,,,,5bc9f8b677740000016a08b5,2020-11-27_10h02.32.737,lexical_decision_task_MP_exp2,2020.2.5,Linux x86_64,60,,m,1,,,,,,,,0.532765,1,,,,,,144,WORD,"ID",16,sponge,SPONGE,m,0.532765,,,,,,0.015558402,-0.41894412,0,0,0,,0,359,359,83,1,,
,,,,,,,,,,,,,,,,,,5bc9f8b677740000016a08b5,2020-11-27_10h02.32.737,lexical_decision_task_MP_exp2,2020.2.5,Linux x86_64,60,,m,1,,,,,,,,0.46963,1,,,,,,96,WORD,"ID",33,ignore,IGNORE,m,0.46963,,,,,,0.015558402,-0.41894412,0,0,0,,0,360,360,35,1,,
,,,,,,,,,,,,,,,,,,5bc9f8b677740000016a08b5,2020-11-27_10h02.32.737,lexical_decision_task_MP_exp2,2020.2.5,Linux x86_64,60,,m,1,,,,,,,,0.53362,1,,,,,,136,WORD,"ID",16,bleach,BLEACH,m,0.53362,,,,,,0.015558402,-0.41894412,0,0,0,,0,361,361,75,1,,
,,,,,,,,,,,,,,,,,,5bc9f8b677740000016a08b5,2020-11-27_10h02.32.737,lexical_decision_task_MP_exp2,2020.2.5,Linux x86_64,60,,z,1,,,,,,,,0.60505,1,,,,,,465,NW,UN,33,bafent,WHIVEX,z,0.60505,,,,,,0.015558402,-0.41894412,0,0,0,space,0,362,362,404,1,,15.30169
,,,,,,,,,,,,,,,,,,5bc9f8b677740000016a08b5,2020-11-27_10h02.32.737,lexical_decision_task_MP_exp2,2020.2.5,Linux x86_64,60,,z,1,,,,,,,,0.645975,1,,,,,,427,NW,UN,33,tandly,SCHIND,z,0.645975,,,,,,0.015558402,-0.41894412,0,0,0,,0,363,363,366,1,,
,,,,,,,,,,,,,,,,,,5bc9f8b677740000016a08b5,2020-11-27_10h02.32.737,lexical_decision_task_MP_exp2,2020.2.5,Linux x86_64,60,,z,1,,,,,,,,0.520165,1,,,,,,341,NW,"ID",33,myrtie,MYRTIE,z,0.520165,,,,,,0.015558402,-0.41894412,0,0,0,,0,364,364,280,1,,
,,,,,,,,,,,,,,,,,,5bc9f8b677740000016a08b5,2020-11-27_10h02.32.737,lexical_decision_task_MP_exp2,2020.2.5,Linux x86_64,60,,m,1,,,,,,,,0.53913,1,,,,,,150,WORD,"ID",16,random,RANDOM,m,0.53913,,,,,,0.015558402,-0.41894412,0,0,0,,0,365,365,89,1,,
,,,,,,,,,,,,,,,,,,5bc9f8b677740000016a08b5,2020-11-27_10h02.32.737,lexical_decision_task_MP_exp2,2020.2.5,Linux x86_64,60,,m,1,,,,,,,,0.602085,1,,,,,,189,WORD,UN,33,backup,CENSOR,m,0.602085,,,,,,0.015558402,-0.41894412,0,0,0,,0,366,366,128,1,,
,,,,,,,,,,,,,,,,,,5bc9f8b677740000016a08b5,2020-11-27_10h02.32.737,lexical_decision_task_MP_exp2,2020.2.5,Linux x86_64,60,,m,1,,,,,,,,0.47383,1,,,,,,31,WORD,UN,16,buckle,WEAPON,m,0.47383,,,,,,0.015558402,-0.41894412,0,0,0,,0,367,367,210,1,,
,,,,,,,,,,,,,,,,,,5bc9f8b677740000016a08b5,2020-11-27_10h02.32.737,lexical_decision_task_MP_exp2,2020.2.5,Linux x86_64,60,,z,1,,,,,,,,0.524855,1,,,,,,307,NW,"ID",33,kirafe,KIRAFE,z,0.524855,,,,,,0.015558402,-0.41894412,0,0,0,,0,368,368,246,1,,
,,,,,,,,,,,,,,,,,,5bc9f8b677740000016a08b5,2020-11-27_10h02.32.737,lexical_decision_task_MP_exp2,2020.2.5,Linux x86_64,60,,z,1,,,,,,,,0.501595,1,,,,,,353,NW,"ID",33,clurey,CLUREY,z,0.501595,,,,,,0.015558402,-0.41894412,0,0,0,,0,369,369,292,1,,
,,,,,,,,,,,,,,,,,,5bc9f8b677740000016a08b5,2020-11-27_10h02.32.737,lexical_decision_task_MP_exp2,2020.2.5,Linux x86_64,60,,z,0,,,,,,,,0.45137,0,,,,,,220,WORD,UN,33,mascot,VOYAGE,m,0.45137,,,,,,0.015558402,-0.41894412,0,0,0,,0,370,370,159,1,,
,,,,,,,,,,,,,,,,,,5bc9f8b677740000016a08b5,2020-11-27_10h02.32.737,lexical_decision_task_MP_exp2,2020.2.5,Linux x86_64,60,,z,1,,,,,,,,0.57609,1,,,,,,244,NW,UN,16,anougs,EATRIC,z,0.57609,,,,,,0.015558402,-0.41894412,0,0,0,,0,371,371,423,1,,
,,,,,,,,,,,,,,,,,,5bc9f8b677740000016a08b5,2020-11-27_10h02.32.737,lexical_decision_task_MP_exp2,2020.2.5,Linux x86_64,60,,m,1,,,,,,,,0.552385,1,,,,,,15,WORD,UN,16,faucet,AMOUNT,m,0.552385,,,,,,0.015558402,-0.41894412,0,0,0,,0,372,372,194,1,,
,,,,,,,,,,,,,,,,,,5bc9f8b677740000016a08b5,2020-11-27_10h02.32.737,lexical_decision_task_MP_exp2,2020.2.5,Linux x86_64,60,,m,1,,,,,,,,0.584915,1,,,,,,163,WORD,"ID",16,string,STRING,m,0.584915,,,,,,0.015558402,-0.41894412,0,0,0,,0,373,373,102,1,,
,,,,,,,,,,,,,,,,,,5bc9f8b677740000016a08b5,2020-11-27_10h02.32.737,lexical_decision_task_MP_exp2,2020.2.5,Linux x86_64,60,,z,1,,,,,,,,0.598095,1,,,,,,462,NW,UN,33,kispel,ABSULT,z,0.598095,,,,,,0.015558402,-0.41894412,0,0,0,,0,374,374,401,1,,
,,,,,,,,,,,,,,,,,,5bc9f8b677740000016a08b5,2020-11-27_10h02.32.737,lexical_decision_task_MP_exp2,2020.2.5,Linux x86_64,60,,m,1,,,,,,,,0.60224,1,,,,,,87,WORD,"ID",33,filter,FILTER,m,0.60224,,,,,,0.015558402,-0.41894412,0,0,0,,0,375,375,26,1,,
,,,,,,,,,,,,,,,,,,5bc9f8b677740000016a08b5,2020-11-27_10h02.32.737,lexical_decision_task_MP_exp2,2020.2.5,Linux x86_64,60,,m,1,,,,,,,,0.515155,1,,,,,,49,WORD,UN,16,snatch,SURVEY,m,0.515155,,,,,,0.015558402,-0.41894412,0,0,0,,0,376,376,228,1,,
,,,,,,,,,,,,,,,,,,5bc9f8b677740000016a08b5,2020-11-27_10h02.32.737,lexical_decision_task_MP_exp2,2020.2.5,Linux x86_64,60,,m,1,,,,,,,,0.518545,1,,,,,,74,WORD,"ID",33,plaque,PLAQUE,m,0.518545,,,,,,0.015558402,-0.41894412,0,0,0,,0,377,377,13,1,,
,,,,,,,,,,,,,,,,,,5bc9f8b677740000016a08b5,2020-11-27_10h02.32.737,lexical_decision_task_MP_exp2,2020.2.5,Linux x86_64,60,,z,1,,,,,,,,0.57849,1,,,,,,331,NW,"ID",33,gilfew,GILFEW,z,0.57849,,,,,,0.015558402,-0.41894412,0,0,0,,0,378,378,270,1,,
,,,,,,,,,,,,,,,,,,5bc9f8b677740000016a08b5,2020-11-27_10h02.32.737,lexical_decision_task_MP_exp2,2020.2.5,Linux x86_64,60,,m,1,,,,,,,,0.575155,1,,,,,,88,WORD,"ID",33,hunger,HUNGER,m,0.575155,,,,,,0.015558402,-0.41894412,0,0,0,,0,379,379,27,1,,
