counterbalancing_condition,instr_done_keyboard.keys,instr_done_keyboard.rt,instr_done_touch.x,instr_done_touch.y,instr_done_touch.leftButton,instr_done_touch.midButton,instr_done_touch.rightButton,instruction_pages.thisRepN,instruction_pages.thisTrialN,instruction_pages.thisN,instruction_pages.thisIndex,instruction_pages.ran,pageN,phase,instruct_text,has_image,instruct_image,participant,date,expName,psychopyVersion,OS,frameRate,response.keys,response.corr,response.rt,touch_resp.x,touch_resp.y,touch_resp.leftButton,touch_resp.midButton,touch_resp.rightButton,touch_resp.time,touch_resp.clicked_name,rt,corr,practice_trials.thisRepN,practice_trials.thisTrialN,practice_trials.thisN,practice_trials.thisIndex,practice_trials.ran,TrialID,StimulusType,Condition,PrimeDuration,Prime,Target,corrAns,end_of_practice_trials_pages.thisRepN,end_of_practice_trials_pages.thisTrialN,end_of_practice_trials_pages.thisN,end_of_practice_trials_pages.thisIndex,end_of_practice_trials_pages.ran,break_done_touch.x,break_done_touch.y,break_done_touch.leftButton,break_done_touch.midButton,break_done_touch.rightButton,break_done_keyboard.keys,experiment_trials.thisRepN,experiment_trials.thisTrialN,experiment_trials.thisN,experiment_trials.thisIndex,experiment_trials.ran,break_done_keyboard.rt
0,space,12.316435,0.700925926,-0.332407407,0,0,0,0,0,0,0,1,1,instructions,"INSTRUCTIONS
At the start of each trial, look at the hash marks (######) in the center of the screen. After a moment, a string of letters will appear. Your task is to indicate if the letter string forms a word or not (i.e., if it is a nonword). For example, AUTHOR is a word while AUTHON is a nonword.

Press the space bar or touch the button below to continue.",0,,5c0822f550d77a000164d7ce,2020-11-27_15h05.27.052,lexical_decision_task_MP_exp2,2020.2.5,Win32,60,,,,,,,,,,,,,,,,,,,,,,,,,,,,,,,,,,,,,,,,,
,space,7.57791,0.700925926,-0.332407407,0,0,0,0,1,1,1,1,2,instructions,"If your device has a keyboard, press the 'Z' key for nonwords and the 'M' key for words.





Press the space bar or touch the button below to continue.",1,keyboard-example.gif,5c0822f550d77a000164d7ce,2020-11-27_15h05.27.052,lexical_decision_task_MP_exp2,2020.2.5,Win32,60,,,,,,,,,,,,,,,,,,,,,,,,,,,,,,,,,,,,,,,,,
,space,1.391935,0.700925926,-0.332407407,0,0,0,0,2,2,2,1,3,instructions,"If you are using a touchscreen only device, use the buttons on the screen. Do not use the mouse.





Press the space bar or touch the button below to continue.",1,touchscreen-example.gif,5c0822f550d77a000164d7ce,2020-11-27_15h05.27.052,lexical_decision_task_MP_exp2,2020.2.5,Win32,60,,,,,,,,,,,,,,,,,,,,,,,,,,,,,,,,,,,,,,,,,
,space,6.280465,0.700925926,-0.332407407,0,0,0,0,3,3,3,1,4,instructions,"It is very important that you respond as quickly and accurately as possible, as each letter string will only be on the screen for two seconds. If you do not respond within this time, the message 'Too slow!' will be displayed and the experiment will progress to the next letter string. The first 20 trials will be practice trials and you will receive feedback on your answers. 

Press the space bar or touch the button below to start the practice trials.",0,,5c0822f550d77a000164d7ce,2020-11-27_15h05.27.052,lexical_decision_task_MP_exp2,2020.2.5,Win32,60,,,,,,,,,,,,,,,,,,,,,,,,,,,,,,,,,,,,,,,,,
,,,,,,,,,,,,,,,,,,5c0822f550d77a000164d7ce,2020-11-27_15h05.27.052,lexical_decision_task_MP_exp2,2020.2.5,Win32,60,m,1,0.61263,,,,,,,,0.61263,1,0,0,0,1,1,1002,WORD,"ID",33,adjust,ADJUST,m,,,,,,,,,,,,,,,,,
,,,,,,,,,,,,,,,,,,5c0822f550d77a000164d7ce,2020-11-27_15h05.27.052,lexical_decision_task_MP_exp2,2020.2.5,Win32,60,m,0,0.53367,,,,,,,,0.53367,0,0,1,1,15,1,1016,NW,UN,16,mushed,WHAISE,z,,,,,,,,,,,,,,,,,
,,,,,,,,,,,,,,,,,,5c0822f550d77a000164d7ce,2020-11-27_15h05.27.052,lexical_decision_task_MP_exp2,2020.2.5,Win32,60,m,1,0.56201,,,,,,,,0.56201,1,0,2,2,6,1,1007,WORD,UN,16,tropic,ZOMBIE,m,,,,,,,,,,,,,,,,,
,,,,,,,,,,,,,,,,,,5c0822f550d77a000164d7ce,2020-11-27_15h05.27.052,lexical_decision_task_MP_exp2,2020.2.5,Win32,60,z,1,0.5004,,,,,,,,0.5004,1,0,3,3,8,1,1009,NW,"ID",33,aslert,ASLERT,z,,,,,,,,,,,,,,,,,
,,,,,,,,,,,,,,,,,,5c0822f550d77a000164d7ce,2020-11-27_15h05.27.052,lexical_decision_task_MP_exp2,2020.2.5,Win32,60,z,1,0.568085,,,,,,,,0.568085,1,0,4,4,13,1,1014,NW,UN,33,winfer,ROUPET,z,,,,,,,,,,,,,,,,,
,,,,,,,,,,,,,,,,,,5c0822f550d77a000164d7ce,2020-11-27_15h05.27.052,lexical_decision_task_MP_exp2,2020.2.5,Win32,60,z,1,0.517545,,,,,,,,0.517545,1,0,5,5,10,1,1011,NW,"ID",16,inlade,INLADE,z,,,,,,,,,,,,,,,,,
,,,,,,,,,,,,,,,,,,5c0822f550d77a000164d7ce,2020-11-27_15h05.27.052,lexical_decision_task_MP_exp2,2020.2.5,Win32,60,z,1,0.53492,,,,,,,,0.53492,1,0,6,6,11,1,1012,NW,"ID",16,rashet,RASHET,z,,,,,,,,,,,,,,,,,
,,,,,,,,,,,,,,,,,,5c0822f550d77a000164d7ce,2020-11-27_15h05.27.052,lexical_decision_task_MP_exp2,2020.2.5,Win32,60,z,1,0.58231,,,,,,,,0.58231,1,0,7,7,9,1,1010,NW,"ID",33,fariny,FARINY,z,,,,,,,,,,,,,,,,,
,,,,,,,,,,,,,,,,,,5c0822f550d77a000164d7ce,2020-11-27_15h05.27.052,lexical_decision_task_MP_exp2,2020.2.5,Win32,60,m,1,0.634635,,,,,,,,0.634635,1,0,8,8,0,1,1001,WORD,"ID",33,utopia,UTOPIA,m,,,,,,,,,,,,,,,,,
,,,,,,,,,,,,,,,,,,5c0822f550d77a000164d7ce,2020-11-27_15h05.27.052,lexical_decision_task_MP_exp2,2020.2.5,Win32,60,m,1,0.494085,,,,,,,,0.494085,1,0,9,9,3,1,1004,WORD,"ID",16,matrix,MATRIX,m,,,,,,,,,,,,,,,,,
,,,,,,,,,,,,,,,,,,5c0822f550d77a000164d7ce,2020-11-27_15h05.27.052,lexical_decision_task_MP_exp2,2020.2.5,Win32,60,z,1,0.48351,,,,,,,,0.48351,1,0,10,10,12,1,1013,NW,UN,33,adveil,SPRINY,z,,,,,,,,,,,,,,,,,
,,,,,,,,,,,,,,,,,,5c0822f550d77a000164d7ce,2020-11-27_15h05.27.052,lexical_decision_task_MP_exp2,2020.2.5,Win32,60,m,1,0.550415,,,,,,,,0.550415,1,0,11,11,2,1,1003,WORD,"ID",16,almond,ALMOND,m,,,,,,,,,,,,,,,,,
,,,,,,,,,,,,,,,,,,5c0822f550d77a000164d7ce,2020-11-27_15h05.27.052,lexical_decision_task_MP_exp2,2020.2.5,Win32,60,z,0,0.56745,,,,,,,,0.56745,0,0,12,12,5,1,1006,WORD,UN,33,frenzy,OBTAIN,m,,,,,,,,,,,,,,,,,
,,,,,,,,,,,,,,,,,,5c0822f550d77a000164d7ce,2020-11-27_15h05.27.052,lexical_decision_task_MP_exp2,2020.2.5,Win32,60,z,1,0.562725,,,,,,,,0.562725,1,0,13,13,14,1,1015,NW,UN,16,miaber,THRALE,z,,,,,,,,,,,,,,,,,
,,,,,,,,,,,,,,,,,,5c0822f550d77a000164d7ce,2020-11-27_15h05.27.052,lexical_decision_task_MP_exp2,2020.2.5,Win32,60,m,1,0.538355,,,,,,,,0.538355,1,0,14,14,7,1,1008,WORD,UN,16,hurdle,VOLUME,m,,,,,,,,,,,,,,,,,
,,,,,,,,,,,,,,,,,,5c0822f550d77a000164d7ce,2020-11-27_15h05.27.052,lexical_decision_task_MP_exp2,2020.2.5,Win32,60,z,0,0.600265,,,,,,,,0.600265,0,0,15,15,4,1,1005,WORD,UN,33,abound,SQUEAK,m,,,,,,,,,,,,,,,,,
,space,8.84957,0.700925926,-0.332407407,0,0,0,,,,,,1,end_of_practice,"You have completed the practice trials. During the experimental trials, you will not receive feedback, but it is very important that you respond as quickly and accurately as possible. 
Before you begin, please ensure that you are in a comfortable and quiet location and will not be disturbed for about 15 minutes, as we cannot use your data if you do not complete all the trials. 
There will be opportunities to take breaks at regular intervals during the experiment. When you are ready to start the experimental trials, please press space or touch the button below.",,,5c0822f550d77a000164d7ce,2020-11-27_15h05.27.052,lexical_decision_task_MP_exp2,2020.2.5,Win32,60,,,,,,,,,,,,,,,,,,,,,,,,,0,0,0,0,1,,,,,,,,,,,,
,,,,,,,,,,,,,,,,,,5c0822f550d77a000164d7ce,2020-11-27_15h05.27.052,lexical_decision_task_MP_exp2,2020.2.5,Win32,60,m,1,0.56094,,,,,,,,0.56094,1,,,,,,212,WORD,"ID",33,verify,VERIFY,m,,,,,,0.700925926,-0.332407407,0,0,0,,0,0,0,31,1,
,,,,,,,,,,,,,,,,,,5c0822f550d77a000164d7ce,2020-11-27_15h05.27.052,lexical_decision_task_MP_exp2,2020.2.5,Win32,60,m,1,0.588595,,,,,,,,0.588595,1,,,,,,44,WORD,"ID",16,danger,DANGER,m,,,,,,0.700925926,-0.332407407,0,0,0,,0,1,1,103,1,
,,,,,,,,,,,,,,,,,,5c0822f550d77a000164d7ce,2020-11-27_15h05.27.052,lexical_decision_task_MP_exp2,2020.2.5,Win32,60,m,1,0.558535,,,,,,,,0.558535,1,,,,,,205,WORD,"ID",33,lounge,LOUNGE,m,,,,,,0.700925926,-0.332407407,0,0,0,,0,2,2,24,1,
,,,,,,,,,,,,,,,,,,5c0822f550d77a000164d7ce,2020-11-27_15h05.27.052,lexical_decision_task_MP_exp2,2020.2.5,Win32,60,z,1,0.617525,,,,,,,,0.617525,1,,,,,,442,NW,"ID",33,aboune,ABOUNE,z,,,,,,0.700925926,-0.332407407,0,0,0,,0,3,3,261,1,
,,,,,,,,,,,,,,,,,,5c0822f550d77a000164d7ce,2020-11-27_15h05.27.052,lexical_decision_task_MP_exp2,2020.2.5,Win32,60,z,1,0.619275,,,,,,,,0.619275,1,,,,,,448,NW,"ID",33,sadent,SADENT,z,,,,,,0.700925926,-0.332407407,0,0,0,,0,4,4,267,1,
,,,,,,,,,,,,,,,,,,5c0822f550d77a000164d7ce,2020-11-27_15h05.27.052,lexical_decision_task_MP_exp2,2020.2.5,Win32,60,m,1,0.58383,,,,,,,,0.58383,1,,,,,,168,WORD,UN,16,genius,ANSWER,m,,,,,,0.700925926,-0.332407407,0,0,0,,0,5,5,227,1,
,,,,,,,,,,,,,,,,,,5c0822f550d77a000164d7ce,2020-11-27_15h05.27.052,lexical_decision_task_MP_exp2,2020.2.5,Win32,60,z,1,0.588795,,,,,,,,0.588795,1,,,,,,317,NW,UN,33,reagly,WORBAL,z,,,,,,0.700925926,-0.332407407,0,0,0,,0,6,6,376,1,
,,,,,,,,,,,,,,,,,,5c0822f550d77a000164d7ce,2020-11-27_15h05.27.052,lexical_decision_task_MP_exp2,2020.2.5,Win32,60,m,1,0.60655,,,,,,,,0.60655,1,,,,,,223,WORD,"ID",33,kidney,KIDNEY,m,,,,,,0.700925926,-0.332407407,0,0,0,,0,7,7,42,1,
,,,,,,,,,,,,,,,,,,5c0822f550d77a000164d7ce,2020-11-27_15h05.27.052,lexical_decision_task_MP_exp2,2020.2.5,Win32,60,z,1,0.72024,,,,,,,,0.72024,1,,,,,,467,NW,"ID",33,gorbie,GORBIE,z,,,,,,0.700925926,-0.332407407,0,0,0,,0,8,8,286,1,
,,,,,,,,,,,,,,,,,,5c0822f550d77a000164d7ce,2020-11-27_15h05.27.052,lexical_decision_task_MP_exp2,2020.2.5,Win32,60,z,1,0.63643,,,,,,,,0.63643,1,,,,,,465,NW,"ID",33,whivex,WHIVEX,z,,,,,,0.700925926,-0.332407407,0,0,0,,0,9,9,284,1,
,,,,,,,,,,,,,,,,,,5c0822f550d77a000164d7ce,2020-11-27_15h05.27.052,lexical_decision_task_MP_exp2,2020.2.5,Win32,60,m,1,0.645135,,,,,,,,0.645135,1,,,,,,109,WORD,UN,33,polite,WONDER,m,,,,,,0.700925926,-0.332407407,0,0,0,,0,10,10,168,1,
,,,,,,,,,,,,,,,,,,5c0822f550d77a000164d7ce,2020-11-27_15h05.27.052,lexical_decision_task_MP_exp2,2020.2.5,Win32,60,z,1,0.693375,,,,,,,,0.693375,1,,,,,,359,NW,UN,33,desory,FONVER,z,,,,,,0.700925926,-0.332407407,0,0,0,,0,11,11,418,1,
,,,,,,,,,,,,,,,,,,5c0822f550d77a000164d7ce,2020-11-27_15h05.27.052,lexical_decision_task_MP_exp2,2020.2.5,Win32,60,z,1,0.65013,,,,,,,,0.65013,1,,,,,,473,NW,"ID",33,crible,CRIBLE,z,,,,,,0.700925926,-0.332407407,0,0,0,,0,12,12,292,1,
,,,,,,,,,,,,,,,,,,5c0822f550d77a000164d7ce,2020-11-27_15h05.27.052,lexical_decision_task_MP_exp2,2020.2.5,Win32,60,m,1,0.64239,,,,,,,,0.64239,1,,,,,,90,WORD,UN,33,expand,RELISH,m,,,,,,0.700925926,-0.332407407,0,0,0,,0,13,13,149,1,
,,,,,,,,,,,,,,,,,,5c0822f550d77a000164d7ce,2020-11-27_15h05.27.052,lexical_decision_task_MP_exp2,2020.2.5,Win32,60,m,1,0.60053,,,,,,,,0.60053,1,,,,,,117,WORD,UN,33,flight,BRANCH,m,,,,,,0.700925926,-0.332407407,0,0,0,,0,14,14,176,1,
,,,,,,,,,,,,,,,,,,5c0822f550d77a000164d7ce,2020-11-27_15h05.27.052,lexical_decision_task_MP_exp2,2020.2.5,Win32,60,m,1,0.60067,,,,,,,,0.60067,1,,,,,,101,WORD,UN,33,direct,WRENCH,m,,,,,,0.700925926,-0.332407407,0,0,0,,0,15,15,160,1,
,,,,,,,,,,,,,,,,,,5c0822f550d77a000164d7ce,2020-11-27_15h05.27.052,lexical_decision_task_MP_exp2,2020.2.5,Win32,60,m,1,0.58884,,,,,,,,0.58884,1,,,,,,110,WORD,UN,33,induce,POLITE,m,,,,,,0.700925926,-0.332407407,0,0,0,,0,16,16,169,1,
,,,,,,,,,,,,,,,,,,5c0822f550d77a000164d7ce,2020-11-27_15h05.27.052,lexical_decision_task_MP_exp2,2020.2.5,Win32,60,m,1,0.65443,,,,,,,,0.65443,1,,,,,,95,WORD,UN,33,ignore,THREAD,m,,,,,,0.700925926,-0.332407407,0,0,0,,0,17,17,154,1,
,,,,,,,,,,,,,,,,,,5c0822f550d77a000164d7ce,2020-11-27_15h05.27.052,lexical_decision_task_MP_exp2,2020.2.5,Win32,60,m,1,0.621485,,,,,,,,0.621485,1,,,,,,161,WORD,UN,16,candle,PASTOR,m,,,,,,0.700925926,-0.332407407,0,0,0,,0,18,18,220,1,
,,,,,,,,,,,,,,,,,,5c0822f550d77a000164d7ce,2020-11-27_15h05.27.052,lexical_decision_task_MP_exp2,2020.2.5,Win32,60,z,1,0.61708,,,,,,,,0.61708,1,,,,,,249,NW,"ID",16,batrol,BATROL,z,,,,,,0.700925926,-0.332407407,0,0,0,,0,19,19,308,1,
,,,,,,,,,,,,,,,,,,5c0822f550d77a000164d7ce,2020-11-27_15h05.27.052,lexical_decision_task_MP_exp2,2020.2.5,Win32,60,z,1,0.56085,,,,,,,,0.56085,1,,,,,,420,NW,UN,16,pauche,GUSHOP,z,,,,,,0.700925926,-0.332407407,0,0,0,,0,20,20,479,1,
,,,,,,,,,,,,,,,,,,5c0822f550d77a000164d7ce,2020-11-27_15h05.27.052,lexical_decision_task_MP_exp2,2020.2.5,Win32,60,z,1,0.612505,,,,,,,,0.612505,1,,,,,,311,NW,UN,33,nerawl,SPROLY,z,,,,,,0.700925926,-0.332407407,0,0,0,,0,21,21,370,1,
,,,,,,,,,,,,,,,,,,5c0822f550d77a000164d7ce,2020-11-27_15h05.27.052,lexical_decision_task_MP_exp2,2020.2.5,Win32,60,z,1,0.662145,,,,,,,,0.662145,1,,,,,,370,NW,UN,16,geiloy,SLEACT,z,,,,,,0.700925926,-0.332407407,0,0,0,,0,22,22,429,1,
,,,,,,,,,,,,,,,,,,5c0822f550d77a000164d7ce,2020-11-27_15h05.27.052,lexical_decision_task_MP_exp2,2020.2.5,Win32,60,z,1,0.63447,,,,,,,,0.63447,1,,,,,,251,NW,"ID",16,lupict,LUPICT,z,,,,,,0.700925926,-0.332407407,0,0,0,,0,23,23,310,1,
,,,,,,,,,,,,,,,,,,5c0822f550d77a000164d7ce,2020-11-27_15h05.27.052,lexical_decision_task_MP_exp2,2020.2.5,Win32,60,m,1,0.59981,,,,,,,,0.59981,1,,,,,,77,WORD,UN,33,column,RACKET,m,,,,,,0.700925926,-0.332407407,0,0,0,,0,24,24,136,1,
,,,,,,,,,,,,,,,,,,5c0822f550d77a000164d7ce,2020-11-27_15h05.27.052,lexical_decision_task_MP_exp2,2020.2.5,Win32,60,z,1,0.78334,,,,,,,,0.78334,1,,,,,,266,NW,"ID",16,varmit,VARMIT,z,,,,,,0.700925926,-0.332407407,0,0,0,,0,25,25,325,1,
,,,,,,,,,,,,,,,,,,5c0822f550d77a000164d7ce,2020-11-27_15h05.27.052,lexical_decision_task_MP_exp2,2020.2.5,Win32,60,m,1,0.673805,,,,,,,,0.673805,1,,,,,,66,WORD,UN,33,policy,GOSPEL,m,,,,,,0.700925926,-0.332407407,0,0,0,,0,26,26,125,1,
,,,,,,,,,,,,,,,,,,5c0822f550d77a000164d7ce,2020-11-27_15h05.27.052,lexical_decision_task_MP_exp2,2020.2.5,Win32,60,z,1,0.672875,,,,,,,,0.672875,1,,,,,,289,NW,"ID",16,starby,STARBY,z,,,,,,0.700925926,-0.332407407,0,0,0,,0,27,27,348,1,
,,,,,,,,,,,,,,,,,,5c0822f550d77a000164d7ce,2020-11-27_15h05.27.052,lexical_decision_task_MP_exp2,2020.2.5,Win32,60,z,1,0.6183,,,,,,,,0.6183,1,,,,,,288,NW,"ID",16,yaceup,YACEUP,z,,,,,,0.700925926,-0.332407407,0,0,0,,0,28,28,347,1,
,,,,,,,,,,,,,,,,,,5c0822f550d77a000164d7ce,2020-11-27_15h05.27.052,lexical_decision_task_MP_exp2,2020.2.5,Win32,60,m,1,0.567525,,,,,,,,0.567525,1,,,,,,199,WORD,"ID",33,invoke,INVOKE,m,,,,,,0.700925926,-0.332407407,0,0,0,,0,29,29,18,1,
,,,,,,,,,,,,,,,,,,5c0822f550d77a000164d7ce,2020-11-27_15h05.27.052,lexical_decision_task_MP_exp2,2020.2.5,Win32,60,m,1,0.6034,,,,,,,,0.6034,1,,,,,,175,WORD,UN,16,strife,FABRIC,m,,,,,,0.700925926,-0.332407407,0,0,0,,0,30,30,234,1,
,,,,,,,,,,,,,,,,,,5c0822f550d77a000164d7ce,2020-11-27_15h05.27.052,lexical_decision_task_MP_exp2,2020.2.5,Win32,60,z,1,0.551645,,,,,,,,0.551645,1,,,,,,336,NW,UN,33,rejols,GHODUS,z,,,,,,0.700925926,-0.332407407,0,0,0,,0,31,31,395,1,
,,,,,,,,,,,,,,,,,,5c0822f550d77a000164d7ce,2020-11-27_15h05.27.052,lexical_decision_task_MP_exp2,2020.2.5,Win32,60,z,1,0.679735,,,,,,,,0.679735,1,,,,,,392,NW,UN,16,ganous,ROUNCY,z,,,,,,0.700925926,-0.332407407,0,0,0,,0,32,32,451,1,
,,,,,,,,,,,,,,,,,,5c0822f550d77a000164d7ce,2020-11-27_15h05.27.052,lexical_decision_task_MP_exp2,2020.2.5,Win32,60,z,1,0.694765,,,,,,,,0.694765,1,,,,,,462,NW,"ID",33,absult,ABSULT,z,,,,,,0.700925926,-0.332407407,0,0,0,,0,33,33,281,1,
,,,,,,,,,,,,,,,,,,5c0822f550d77a000164d7ce,2020-11-27_15h05.27.052,lexical_decision_task_MP_exp2,2020.2.5,Win32,60,z,1,0.636045,,,,,,,,0.636045,1,,,,,,305,NW,UN,33,sounge,FORGLE,z,,,,,,0.700925926,-0.332407407,0,0,0,,0,34,34,364,1,
,,,,,,,,,,,,,,,,,,5c0822f550d77a000164d7ce,2020-11-27_15h05.27.052,lexical_decision_task_MP_exp2,2020.2.5,Win32,60,m,1,0.62073,,,,,,,,0.62073,1,,,,,,30,WORD,"ID",16,orient,ORIENT,m,,,,,,0.700925926,-0.332407407,0,0,0,,0,35,35,89,1,
,,,,,,,,,,,,,,,,,,5c0822f550d77a000164d7ce,2020-11-27_15h05.27.052,lexical_decision_task_MP_exp2,2020.2.5,Win32,60,z,1,0.661005,,,,,,,,0.661005,1,,,,,,423,NW,"ID",33,streld,STRELD,z,,,,,,0.700925926,-0.332407407,0,0,0,,0,36,36,242,1,
,,,,,,,,,,,,,,,,,,5c0822f550d77a000164d7ce,2020-11-27_15h05.27.052,lexical_decision_task_MP_exp2,2020.2.5,Win32,60,m,1,0.60082,,,,,,,,0.60082,1,,,,,,67,WORD,UN,33,fumble,POLICY,m,,,,,,0.700925926,-0.332407407,0,0,0,,0,37,37,126,1,
,,,,,,,,,,,,,,,,,,5c0822f550d77a000164d7ce,2020-11-27_15h05.27.052,lexical_decision_task_MP_exp2,2020.2.5,Win32,60,z,1,0.600925,,,,,,,,0.600925,1,,,,,,346,NW,UN,33,kerift,SAUDIC,z,,,,,,0.700925926,-0.332407407,0,0,0,,0,38,38,405,1,
,,,,,,,,,,,,,,,,,,5c0822f550d77a000164d7ce,2020-11-27_15h05.27.052,lexical_decision_task_MP_exp2,2020.2.5,Win32,60,m,1,0.60027,,,,,,,,0.60027,1,,,,,,105,WORD,UN,33,ransom,NUMBER,m,,,,,,0.700925926,-0.332407407,0,0,0,,0,39,39,164,1,
,,,,,,,,,,,,,,,,,,5c0822f550d77a000164d7ce,2020-11-27_15h05.27.052,lexical_decision_task_MP_exp2,2020.2.5,Win32,60,z,1,0.600435,,,,,,,,0.600435,1,,,,,,455,NW,"ID",33,tondle,TONDLE,z,,,,,,0.700925926,-0.332407407,0,0,0,,0,40,40,274,1,
,,,,,,,,,,,,,,,,,,5c0822f550d77a000164d7ce,2020-11-27_15h05.27.052,lexical_decision_task_MP_exp2,2020.2.5,Win32,60,m,1,0.58622,,,,,,,,0.58622,1,,,,,,2,WORD,"ID",16,bridge,BRIDGE,m,,,,,,0.700925926,-0.332407407,0,0,0,,0,41,41,61,1,
,,,,,,,,,,,,,,,,,,5c0822f550d77a000164d7ce,2020-11-27_15h05.27.052,lexical_decision_task_MP_exp2,2020.2.5,Win32,60,z,1,0.567455,,,,,,,,0.567455,1,,,,,,383,NW,UN,16,guesco,AUNGRE,z,,,,,,0.700925926,-0.332407407,0,0,0,,0,42,42,442,1,
,,,,,,,,,,,,,,,,,,5c0822f550d77a000164d7ce,2020-11-27_15h05.27.052,lexical_decision_task_MP_exp2,2020.2.5,Win32,60,m,1,0.5436,,,,,,,,0.5436,1,,,,,,225,WORD,"ID",33,vulgar,VULGAR,m,,,,,,0.700925926,-0.332407407,0,0,0,,0,43,43,44,1,
,,,,,,,,,,,,,,,,,,5c0822f550d77a000164d7ce,2020-11-27_15h05.27.052,lexical_decision_task_MP_exp2,2020.2.5,Win32,60,m,1,0.60439,,,,,,,,0.60439,1,,,,,,32,WORD,"ID",16,buckle,BUCKLE,m,,,,,,0.700925926,-0.332407407,0,0,0,,0,44,44,91,1,
,,,,,,,,,,,,,,,,,,5c0822f550d77a000164d7ce,2020-11-27_15h05.27.052,lexical_decision_task_MP_exp2,2020.2.5,Win32,60,m,0,0.60046,,,,,,,,0.60046,0,,,,,,477,NW,"ID",33,photie,PHOTIE,z,,,,,,0.700925926,-0.332407407,0,0,0,,0,45,45,296,1,
,,,,,,,,,,,,,,,,,,5c0822f550d77a000164d7ce,2020-11-27_15h05.27.052,lexical_decision_task_MP_exp2,2020.2.5,Win32,60,m,1,0.66722,,,,,,,,0.66722,1,,,,,,97,WORD,UN,33,belong,CLIENT,m,,,,,,0.700925926,-0.332407407,0,0,0,,0,46,46,156,1,
,,,,,,,,,,,,,,,,,,5c0822f550d77a000164d7ce,2020-11-27_15h05.27.052,lexical_decision_task_MP_exp2,2020.2.5,Win32,60,z,1,0.558705,,,,,,,,0.558705,1,,,,,,388,NW,UN,16,witmer,CRAGIN,z,,,,,,0.700925926,-0.332407407,0,0,0,,0,47,47,447,1,
,,,,,,,,,,,,,,,,,,5c0822f550d77a000164d7ce,2020-11-27_15h05.27.052,lexical_decision_task_MP_exp2,2020.2.5,Win32,60,z,1,0.76988,,,,,,,,0.76988,1,,,,,,360,NW,UN,33,fainch,DESORY,z,,,,,,0.700925926,-0.332407407,0,0,0,,0,48,48,419,1,
,,,,,,,,,,,,,,,,,,5c0822f550d77a000164d7ce,2020-11-27_15h05.27.052,lexical_decision_task_MP_exp2,2020.2.5,Win32,60,z,1,0.604615,,,,,,,,0.604615,1,,,,,,366,NW,UN,16,slique,TOSHEL,z,,,,,,0.700925926,-0.332407407,0,0,0,,0,49,49,425,1,
,,,,,,,,,,,,,,,,,,5c0822f550d77a000164d7ce,2020-11-27_15h05.27.052,lexical_decision_task_MP_exp2,2020.2.5,Win32,60,m,1,0.550365,,,,,,,,0.550365,1,,,,,,224,WORD,"ID",33,period,PERIOD,m,,,,,,0.700925926,-0.332407407,0,0,0,,0,50,50,43,1,
,,,,,,,,,,,,,,,,,,5c0822f550d77a000164d7ce,2020-11-27_15h05.27.052,lexical_decision_task_MP_exp2,2020.2.5,Win32,60,z,1,0.6338,,,,,,,,0.6338,1,,,,,,268,NW,"ID",16,packes,PACKES,z,,,,,,0.700925926,-0.332407407,0,0,0,,0,51,51,327,1,
,,,,,,,,,,,,,,,,,,5c0822f550d77a000164d7ce,2020-11-27_15h05.27.052,lexical_decision_task_MP_exp2,2020.2.5,Win32,60,m,1,0.60886,,,,,,,,0.60886,1,,,,,,233,WORD,"ID",33,nature,NATURE,m,,,,,,0.700925926,-0.332407407,0,0,0,,0,52,52,52,1,
,,,,,,,,,,,,,,,,,,5c0822f550d77a000164d7ce,2020-11-27_15h05.27.052,lexical_decision_task_MP_exp2,2020.2.5,Win32,60,m,1,0.75001,,,,,,,,0.75001,1,,,,,,145,WORD,UN,16,couple,PARISH,m,,,,,,0.700925926,-0.332407407,0,0,0,,0,53,53,204,1,
,,,,,,,,,,,,,,,,,,5c0822f550d77a000164d7ce,2020-11-27_15h05.27.052,lexical_decision_task_MP_exp2,2020.2.5,Win32,60,m,1,0.716485,,,,,,,,0.716485,1,,,,,,10,WORD,"ID",16,ethnic,ETHNIC,m,,,,,,0.700925926,-0.332407407,0,0,0,,0,54,54,69,1,
,,,,,,,,,,,,,,,,,,5c0822f550d77a000164d7ce,2020-11-27_15h05.27.052,lexical_decision_task_MP_exp2,2020.2.5,Win32,60,m,1,0.82723,,,,,,,,0.82723,1,,,,,,96,WORD,UN,33,client,IGNORE,m,,,,,,0.700925926,-0.332407407,0,0,0,,0,55,55,155,1,
,,,,,,,,,,,,,,,,,,5c0822f550d77a000164d7ce,2020-11-27_15h05.27.052,lexical_decision_task_MP_exp2,2020.2.5,Win32,60,m,1,0.616445,,,,,,,,0.616445,1,,,,,,56,WORD,"ID",16,ambush,AMBUSH,m,,,,,,0.700925926,-0.332407407,0,0,0,,0,56,56,115,1,
,,,,,,,,,,,,,,,,,,5c0822f550d77a000164d7ce,2020-11-27_15h05.27.052,lexical_decision_task_MP_exp2,2020.2.5,Win32,60,z,1,0.6844,,,,,,,,0.6844,1,,,,,,433,NW,"ID",33,drance,DRANCE,z,,,,,,0.700925926,-0.332407407,0,0,0,,0,57,57,252,1,
,,,,,,,,,,,,,,,,,,5c0822f550d77a000164d7ce,2020-11-27_15h05.27.052,lexical_decision_task_MP_exp2,2020.2.5,Win32,60,z,1,0.603495,,,,,,,,0.603495,1,,,,,,409,NW,UN,16,tunory,ELOPIA,z,,,,,,0.700925926,-0.332407407,0,0,0,,0,58,58,468,1,
,,,,,,,,,,,,,,,,,,5c0822f550d77a000164d7ce,2020-11-27_15h05.27.052,lexical_decision_task_MP_exp2,2020.2.5,Win32,60,z,1,0.617455,,,,,,,,0.617455,1,,,,,,272,NW,"ID",16,damilt,DAMILT,z,,,,,,0.700925926,-0.332407407,0,0,0,,0,59,59,331,1,
,,,,,,,,,,,,,,,,,,5c0822f550d77a000164d7ce,2020-11-27_15h05.27.052,lexical_decision_task_MP_exp2,2020.2.5,Win32,60,z,1,0.60564,,,,,,,,0.60564,1,,,,,,332,NW,UN,33,catrie,VANGUE,z,,,,,,0.700925926,-0.332407407,0,0,0,,0,60,60,391,1,
,,,,,,,,,,,,,,,,,,5c0822f550d77a000164d7ce,2020-11-27_15h05.27.052,lexical_decision_task_MP_exp2,2020.2.5,Win32,60,z,1,0.65033,,,,,,,,0.65033,1,,,,,,396,NW,UN,16,camble,FLENGY,z,,,,,,0.700925926,-0.332407407,0,0,0,,0,61,61,455,1,
,,,,,,,,,,,,,,,,,,5c0822f550d77a000164d7ce,2020-11-27_15h05.27.052,lexical_decision_task_MP_exp2,2020.2.5,Win32,60,m,1,0.61789,,,,,,,,0.61789,1,,,,,,221,WORD,"ID",33,mascot,MASCOT,m,,,,,,0.700925926,-0.332407407,0,0,0,,0,62,62,40,1,
,,,,,,,,,,,,,,,,,,5c0822f550d77a000164d7ce,2020-11-27_15h05.27.052,lexical_decision_task_MP_exp2,2020.2.5,Win32,60,z,1,0.624695,,,,,,,,0.624695,1,,,,,,386,NW,UN,16,gronce,ANCUST,z,,,,,,0.700925926,-0.332407407,0,0,0,,0,63,63,445,1,
,,,,,,,,,,,,,,,,,,5c0822f550d77a000164d7ce,2020-11-27_15h05.27.052,lexical_decision_task_MP_exp2,2020.2.5,Win32,60,z,1,0.64226,,,,,,,,0.64226,1,,,,,,270,NW,"ID",16,wrimsy,WRIMSY,z,,,,,,0.700925926,-0.332407407,0,0,0,,0,64,64,329,1,
,,,,,,,,,,,,,,,,,,5c0822f550d77a000164d7ce,2020-11-27_15h05.27.052,lexical_decision_task_MP_exp2,2020.2.5,Win32,60,m,1,0.667365,,,,,,,,0.667365,1,,,,,,234,WORD,"ID",33,clumsy,CLUMSY,m,,,,,,0.700925926,-0.332407407,0,0,0,,0,65,65,53,1,
,,,,,,,,,,,,,,,,,,5c0822f550d77a000164d7ce,2020-11-27_15h05.27.052,lexical_decision_task_MP_exp2,2020.2.5,Win32,60,z,1,0.569665,,,,,,,,0.569665,1,,,,,,421,NW,"ID",33,knisma,KNISMA,z,,,,,,0.700925926,-0.332407407,0,0,0,,0,66,66,240,1,
,,,,,,,,,,,,,,,,,,5c0822f550d77a000164d7ce,2020-11-27_15h05.27.052,lexical_decision_task_MP_exp2,2020.2.5,Win32,60,z,1,0.619395,,,,,,,,0.619395,1,,,,,,279,NW,"ID",16,celond,CELOND,z,,,,,,0.700925926,-0.332407407,0,0,0,,0,67,67,338,1,
,,,,,,,,,,,,,,,,,,5c0822f550d77a000164d7ce,2020-11-27_15h05.27.052,lexical_decision_task_MP_exp2,2020.2.5,Win32,60,m,1,0.601345,,,,,,,,0.601345,1,,,,,,73,WORD,UN,33,plaque,SOURCE,m,,,,,,0.700925926,-0.332407407,0,0,0,,0,68,68,132,1,
,,,,,,,,,,,,,,,,,,5c0822f550d77a000164d7ce,2020-11-27_15h05.27.052,lexical_decision_task_MP_exp2,2020.2.5,Win32,60,m,1,0.65378,,,,,,,,0.65378,1,,,,,,60,WORD,"ID",16,pencil,PENCIL,m,,,,,,0.700925926,-0.332407407,0,0,0,,0,69,69,119,1,
,,,,,,,,,,,,,,,,,,5c0822f550d77a000164d7ce,2020-11-27_15h05.27.052,lexical_decision_task_MP_exp2,2020.2.5,Win32,60,m,0,0.684125,,,,,,,,0.684125,0,,,,,,285,NW,"ID",16,prudge,PRUDGE,z,,,,,,0.700925926,-0.332407407,0,0,0,,0,70,70,344,1,
,,,,,,,,,,,,,,,,,,5c0822f550d77a000164d7ce,2020-11-27_15h05.27.052,lexical_decision_task_MP_exp2,2020.2.5,Win32,60,z,1,0.69176,,,,,,,,0.69176,1,,,,,,463,NW,"ID",33,kispel,KISPEL,z,,,,,,0.700925926,-0.332407407,0,0,0,,0,71,71,282,1,
,,,,,,,,,,,,,,,,,,5c0822f550d77a000164d7ce,2020-11-27_15h05.27.052,lexical_decision_task_MP_exp2,2020.2.5,Win32,60,z,1,0.674035,,,,,,,,0.674035,1,,,,,,291,NW,"ID",16,pretch,PRETCH,z,,,,,,0.700925926,-0.332407407,0,0,0,,0,72,72,350,1,
,,,,,,,,,,,,,,,,,,5c0822f550d77a000164d7ce,2020-11-27_15h05.27.052,lexical_decision_task_MP_exp2,2020.2.5,Win32,60,m,1,0.6888,,,,,,,,0.6888,1,,,,,,198,WORD,"ID",33,wicked,WICKED,m,,,,,,0.700925926,-0.332407407,0,0,0,,0,73,73,17,1,
,,,,,,,,,,,,,,,,,,5c0822f550d77a000164d7ce,2020-11-27_15h05.27.052,lexical_decision_task_MP_exp2,2020.2.5,Win32,60,z,1,0.60002,,,,,,,,0.60002,1,,,,,,315,NW,UN,33,scregm,LASTON,z,,,,,,0.700925926,-0.332407407,0,0,0,,0,74,74,374,1,
,,,,,,,,,,,,,,,,,,5c0822f550d77a000164d7ce,2020-11-27_15h05.27.052,lexical_decision_task_MP_exp2,2020.2.5,Win32,60,z,0,0.719425,,,,,,,,0.719425,0,,,,,,45,WORD,"ID",16,clergy,CLERGY,m,,,,,,0.700925926,-0.332407407,0,0,0,,0,75,75,104,1,
,,,,,,,,,,,,,,,,,,5c0822f550d77a000164d7ce,2020-11-27_15h05.27.052,lexical_decision_task_MP_exp2,2020.2.5,Win32,60,m,1,0.70012,,,,,,,,0.70012,1,,,,,,169,WORD,UN,16,pounce,GENIUS,m,,,,,,0.700925926,-0.332407407,0,0,0,,0,76,76,228,1,
,,,,,,,,,,,,,,,,,,5c0822f550d77a000164d7ce,2020-11-27_15h05.27.052,lexical_decision_task_MP_exp2,2020.2.5,Win32,60,m,0,0.8039,,,,,,,,0.8039,0,,,,,,393,NW,UN,16,spaqux,GANOUS,z,,,,,,0.700925926,-0.332407407,0,0,0,,0,77,77,452,1,
,,,,,,,,,,,,,,,,,,5c0822f550d77a000164d7ce,2020-11-27_15h05.27.052,lexical_decision_task_MP_exp2,2020.2.5,Win32,60,m,1,0.616965,,,,,,,,0.616965,1,,,,,,20,WORD,"ID",16,breast,BREAST,m,,,,,,0.700925926,-0.332407407,0,0,0,,0,78,78,79,1,
,,,,,,,,,,,,,,,,,,5c0822f550d77a000164d7ce,2020-11-27_15h05.27.052,lexical_decision_task_MP_exp2,2020.2.5,Win32,60,z,1,0.634095,,,,,,,,0.634095,1,,,,,,390,NW,UN,16,theldy,HATRUS,z,,,,,,0.700925926,-0.332407407,0,0,0,,0,79,79,449,1,
,,,,,,,,,,,,,,,,,,5c0822f550d77a000164d7ce,2020-11-27_15h05.27.052,lexical_decision_task_MP_exp2,2020.2.5,Win32,60,m,1,0.703605,,,,,,,,0.703605,1,,,,,,55,WORD,"ID",16,stroke,STROKE,m,,,,,,0.700925926,-0.332407407,0,0,0,,0,80,80,114,1,
,,,,,,,,,,,,,,,,,,5c0822f550d77a000164d7ce,2020-11-27_15h05.27.052,lexical_decision_task_MP_exp2,2020.2.5,Win32,60,m,1,0.70912,,,,,,,,0.70912,1,,,,,,188,WORD,"ID",33,social,SOCIAL,m,,,,,,0.700925926,-0.332407407,0,0,0,,0,81,81,7,1,
,,,,,,,,,,,,,,,,,,5c0822f550d77a000164d7ce,2020-11-27_15h05.27.052,lexical_decision_task_MP_exp2,2020.2.5,Win32,60,m,1,0.700535,,,,,,,,0.700535,1,,,,,,191,WORD,"ID",33,stable,STABLE,m,,,,,,0.700925926,-0.332407407,0,0,0,,0,82,82,10,1,
,,,,,,,,,,,,,,,,,,5c0822f550d77a000164d7ce,2020-11-27_15h05.27.052,lexical_decision_task_MP_exp2,2020.2.5,Win32,60,z,1,0.600845,,,,,,,,0.600845,1,,,,,,387,NW,UN,16,cragin,GRONCE,z,,,,,,0.700925926,-0.332407407,0,0,0,,0,83,83,446,1,
,,,,,,,,,,,,,,,,,,5c0822f550d77a000164d7ce,2020-11-27_15h05.27.052,lexical_decision_task_MP_exp2,2020.2.5,Win32,60,z,1,0.68397,,,,,,,,0.68397,1,,,,,,318,NW,UN,33,zomber,REAGLY,z,,,,,,0.700925926,-0.332407407,0,0,0,,0,84,84,377,1,
,,,,,,,,,,,,,,,,,,5c0822f550d77a000164d7ce,2020-11-27_15h05.27.052,lexical_decision_task_MP_exp2,2020.2.5,Win32,60,z,1,0.61726,,,,,,,,0.61726,1,,,,,,381,NW,UN,16,sarley,HUNIEK,z,,,,,,0.700925926,-0.332407407,0,0,0,,0,85,85,440,1,
,,,,,,,,,,,,,,,,,,5c0822f550d77a000164d7ce,2020-11-27_15h05.27.052,lexical_decision_task_MP_exp2,2020.2.5,Win32,60,z,1,0.68315,,,,,,,,0.68315,1,,,,,,454,NW,"ID",33,scouge,SCOUGE,z,,,,,,0.700925926,-0.332407407,0,0,0,,0,86,86,273,1,
,,,,,,,,,,,,,,,,,,5c0822f550d77a000164d7ce,2020-11-27_15h05.27.052,lexical_decision_task_MP_exp2,2020.2.5,Win32,60,m,1,0.602085,,,,,,,,0.602085,1,,,,,,172,WORD,UN,16,shower,PATROL,m,,,,,,0.700925926,-0.332407407,0,0,0,,0,87,87,231,1,
,,,,,,,,,,,,,,,,,,5c0822f550d77a000164d7ce,2020-11-27_15h05.27.052,lexical_decision_task_MP_exp2,2020.2.5,Win32,60,m,1,0.667145,,,,,,,,0.667145,1,,,,,,9,WORD,"ID",16,hustle,HUSTLE,m,,,,,,0.700925926,-0.332407407,0,0,0,,0,88,88,68,1,
,,,,,,,,,,,,,,,,,,5c0822f550d77a000164d7ce,2020-11-27_15h05.27.052,lexical_decision_task_MP_exp2,2020.2.5,Win32,60,z,1,0.59304,,,,,,,,0.59304,1,,,,,,262,NW,"ID",16,quilew,QUILEW,z,,,,,,0.700925926,-0.332407407,0,0,0,,0,89,89,321,1,
,,,,,,,,,,,,,,,,,,5c0822f550d77a000164d7ce,2020-11-27_15h05.27.052,lexical_decision_task_MP_exp2,2020.2.5,Win32,60,z,1,0.8114,,,,,,,,0.8114,1,,,,,,356,NW,UN,33,derain,OTHNIS,z,,,,,,0.700925926,-0.332407407,0,0,0,,0,90,90,415,1,
,,,,,,,,,,,,,,,,,,5c0822f550d77a000164d7ce,2020-11-27_15h05.27.052,lexical_decision_task_MP_exp2,2020.2.5,Win32,60,z,1,0.618505,,,,,,,,0.618505,1,,,,,,461,NW,"ID",33,justre,JUSTRE,z,,,,,,0.700925926,-0.332407407,0,0,0,,0,91,91,280,1,
,,,,,,,,,,,,,,,,,,5c0822f550d77a000164d7ce,2020-11-27_15h05.27.052,lexical_decision_task_MP_exp2,2020.2.5,Win32,60,m,1,0.831475,,,,,,,,0.831475,1,,,,,,171,WORD,UN,16,patrol,DEPART,m,,,,,,0.700925926,-0.332407407,0,0,0,,0,92,92,230,1,
,,,,,,,,,,,,,,,,,,5c0822f550d77a000164d7ce,2020-11-27_15h05.27.052,lexical_decision_task_MP_exp2,2020.2.5,Win32,60,m,1,0.63553,,,,,,,,0.63553,1,,,,,,159,WORD,UN,16,violet,DETAIL,m,,,,,,0.700925926,-0.332407407,0,0,0,,0,93,93,218,1,
,,,,,,,,,,,,,,,,,,5c0822f550d77a000164d7ce,2020-11-27_15h05.27.052,lexical_decision_task_MP_exp2,2020.2.5,Win32,60,z,1,0.63386,,,,,,,,0.63386,1,,,,,,408,NW,UN,16,elopia,HURNIA,z,,,,,,0.700925926,-0.332407407,0,0,0,,0,94,94,467,1,
,,,,,,,,,,,,,,,,,,5c0822f550d77a000164d7ce,2020-11-27_15h05.27.052,lexical_decision_task_MP_exp2,2020.2.5,Win32,60,m,1,0.7161,,,,,,,,0.7161,1,,,,,,119,WORD,UN,33,strain,SPIDER,m,,,,,,0.700925926,-0.332407407,0,0,0,,0,95,95,178,1,
,,,,,,,,,,,,,,,,,,5c0822f550d77a000164d7ce,2020-11-27_15h05.27.052,lexical_decision_task_MP_exp2,2020.2.5,Win32,60,m,1,0.73746,,,,,,,,0.73746,1,,,,,,142,WORD,UN,16,reason,SPRUCE,m,,,,,,0.700925926,-0.332407407,0,0,0,,0,96,96,201,1,
,,,,,,,,,,,,,,,,,,5c0822f550d77a000164d7ce,2020-11-27_15h05.27.052,lexical_decision_task_MP_exp2,2020.2.5,Win32,60,z,1,0.600225,,,,,,,,0.600225,1,,,,,,282,NW,"ID",16,porlex,PORLEX,z,,,,,,0.700925926,-0.332407407,0,0,0,,0,97,97,341,1,
,,,,,,,,,,,,,,,,,,5c0822f550d77a000164d7ce,2020-11-27_15h05.27.052,lexical_decision_task_MP_exp2,2020.2.5,Win32,60,z,1,0.76193,,,,,,,,0.76193,1,,,,,,430,NW,"ID",33,caroey,CAROEY,z,,,,,,0.700925926,-0.332407407,0,0,0,,0,98,98,249,1,
,,,,,,,,,,,,,,,,,,5c0822f550d77a000164d7ce,2020-11-27_15h05.27.052,lexical_decision_task_MP_exp2,2020.2.5,Win32,60,m,1,0.690895,,,,,,,,0.690895,1,,,,,,78,WORD,UN,33,theory,COLUMN,m,,,,,,0.700925926,-0.332407407,0,0,0,,0,99,99,137,1,
,,,,,,,,,,,,,,,,,,5c0822f550d77a000164d7ce,2020-11-27_15h05.27.052,lexical_decision_task_MP_exp2,2020.2.5,Win32,60,m,1,0.593525,,,,,,,,0.593525,1,,,,,,136,WORD,UN,16,finger,BLEACH,m,,,,,,0.700925926,-0.332407407,0,0,0,,0,100,100,195,1,
,,,,,,,,,,,,,,,,,,5c0822f550d77a000164d7ce,2020-11-27_15h05.27.052,lexical_decision_task_MP_exp2,2020.2.5,Win32,60,z,1,0.89169,,,,,,,,0.89169,1,,,,,,398,NW,UN,16,fouret,BLUNDE,z,,,,,,0.700925926,-0.332407407,0,0,0,,0,101,101,457,1,
,,,,,,,,,,,,,,,,,,5c0822f550d77a000164d7ce,2020-11-27_15h05.27.052,lexical_decision_task_MP_exp2,2020.2.5,Win32,60,m,1,0.732665,,,,,,,,0.732665,1,,,,,,94,WORD,UN,33,thread,TRAVEL,m,,,,,,0.700925926,-0.332407407,0,0,0,,0,102,102,153,1,
,,,,,,,,,,,,,,,,,,5c0822f550d77a000164d7ce,2020-11-27_15h05.27.052,lexical_decision_task_MP_exp2,2020.2.5,Win32,60,m,1,0.66991,,,,,,,,0.66991,1,,,,,,123,WORD,UN,16,blouse,STRIKE,m,,,,,,0.700925926,-0.332407407,0,0,0,,0,103,103,182,1,
,,,,,,,,,,,,,,,,,,5c0822f550d77a000164d7ce,2020-11-27_15h05.27.052,lexical_decision_task_MP_exp2,2020.2.5,Win32,60,m,1,0.82339,,,,,,,,0.82339,1,,,,,,1,WORD,"ID",16,fright,FRIGHT,m,,,,,,0.700925926,-0.332407407,0,0,0,,0,104,104,60,1,
,,,,,,,,,,,,,,,,,,5c0822f550d77a000164d7ce,2020-11-27_15h05.27.052,lexical_decision_task_MP_exp2,2020.2.5,Win32,60,z,1,0.769585,,,,,,,,0.769585,1,,,,,,277,NW,"ID",16,petain,PETAIN,z,,,,,,0.700925926,-0.332407407,0,0,0,,0,105,105,336,1,
,,,,,,,,,,,,,,,,,,5c0822f550d77a000164d7ce,2020-11-27_15h05.27.052,lexical_decision_task_MP_exp2,2020.2.5,Win32,60,z,1,0.69169,,,,,,,,0.69169,1,,,,,,290,NW,"ID",16,splino,SPLINO,z,,,,,,0.700925926,-0.332407407,0,0,0,,0,106,106,349,1,
,,,,,,,,,,,,,,,,,,5c0822f550d77a000164d7ce,2020-11-27_15h05.27.052,lexical_decision_task_MP_exp2,2020.2.5,Win32,60,m,1,0.600405,,,,,,,,0.600405,1,,,,,,164,WORD,UN,16,invest,MARKET,m,,,,,,0.700925926,-0.332407407,0,0,0,,0,107,107,223,1,
,,,,,,,,,,,,,,,,,,5c0822f550d77a000164d7ce,2020-11-27_15h05.27.052,lexical_decision_task_MP_exp2,2020.2.5,Win32,60,z,1,0.6762,,,,,,,,0.6762,1,,,,,,457,NW,"ID",33,wanigh,WANIGH,z,,,,,,0.700925926,-0.332407407,0,0,0,,0,108,108,276,1,
,,,,,,,,,,,,,,,,,,5c0822f550d77a000164d7ce,2020-11-27_15h05.27.052,lexical_decision_task_MP_exp2,2020.2.5,Win32,60,z,1,0.649615,,,,,,,,0.649615,1,,,,,,309,NW,UN,33,daniet,AMILOY,z,,,,,,0.700925926,-0.332407407,0,0,0,,0,109,109,368,1,
,,,,,,,,,,,,,,,,,,5c0822f550d77a000164d7ce,2020-11-27_15h05.27.052,lexical_decision_task_MP_exp2,2020.2.5,Win32,60,m,1,0.619355,,,,,,,,0.619355,1,,,,,,85,WORD,UN,33,rodent,SPRAWL,m,,,,,,0.700925926,-0.332407407,0,0,0,,0,110,110,144,1,
,,,,,,,,,,,,,,,,,,5c0822f550d77a000164d7ce,2020-11-27_15h05.27.052,lexical_decision_task_MP_exp2,2020.2.5,Win32,60,z,1,0.584165,,,,,,,,0.584165,1,,,,,,406,NW,UN,16,suiver,NOUPLY,z,,,,,,0.700925926,-0.332407407,0,0,0,,0,111,111,465,1,
,,,,,,,,,,,,,,,,,,5c0822f550d77a000164d7ce,2020-11-27_15h05.27.052,lexical_decision_task_MP_exp2,2020.2.5,Win32,60,m,1,0.600665,,,,,,,,0.600665,1,,,,,,86,WORD,UN,33,filter,RODENT,m,,,,,,0.700925926,-0.332407407,0,0,0,,0,112,112,145,1,
,,,,,,,,,,,,,,,,,,5c0822f550d77a000164d7ce,2020-11-27_15h05.27.052,lexical_decision_task_MP_exp2,2020.2.5,Win32,60,z,1,0.607925,,,,,,,,0.607925,1,,,,,,400,NW,UN,16,mustil,WEAROX,z,,,,,,0.700925926,-0.332407407,0,0,0,,0,113,113,459,1,
,,,,,,,,,,,,,,,,,,5c0822f550d77a000164d7ce,2020-11-27_15h05.27.052,lexical_decision_task_MP_exp2,2020.2.5,Win32,60,z,1,0.73733,,,,,,,,0.73733,1,,,,,,471,NW,"ID",33,nobest,NOBEST,z,,,,,,0.700925926,-0.332407407,0,0,0,,0,114,114,290,1,
,,,,,,,,,,,,,,,,,,5c0822f550d77a000164d7ce,2020-11-27_15h05.27.052,lexical_decision_task_MP_exp2,2020.2.5,Win32,60,m,1,0.584645,,,,,,,,0.584645,1,,,,,,192,WORD,"ID",33,plague,PLAGUE,m,,,,,,0.700925926,-0.332407407,0,0,0,,0,115,115,11,1,
,,,,,,,,,,,,,,,,,,5c0822f550d77a000164d7ce,2020-11-27_15h05.27.052,lexical_decision_task_MP_exp2,2020.2.5,Win32,60,m,1,0.56743,,,,,,,,0.56743,1,,,,,,38,WORD,"ID",16,powder,POWDER,m,,,,,,0.700925926,-0.332407407,0,0,0,,0,116,116,97,1,
,,,,,,,,,,,,,,,,,,5c0822f550d77a000164d7ce,2020-11-27_15h05.27.052,lexical_decision_task_MP_exp2,2020.2.5,Win32,60,m,1,0.65116,,,,,,,,0.65116,1,,,,,,64,WORD,UN,33,symbol,THRONE,m,,,,,,0.700925926,-0.332407407,0,0,0,,0,117,117,123,1,
,,,,,,,,,,,,,,,,,,5c0822f550d77a000164d7ce,2020-11-27_15h05.27.052,lexical_decision_task_MP_exp2,2020.2.5,Win32,60,z,1,0.62683,,,,,,,,0.62683,1,,,,,,416,NW,UN,16,earoud,PATHEL,z,,,,,,0.700925926,-0.332407407,0,0,0,,0,118,118,475,1,
,,,,,,,,,,,,,,,,,,5c0822f550d77a000164d7ce,2020-11-27_15h05.27.052,lexical_decision_task_MP_exp2,2020.2.5,Win32,60,z,1,0.660355,,,,,,,,0.660355,1,,,,,,363,NW,UN,16,impote,BREALI,z,,,,,,0.700925926,-0.332407407,0,0,0,,0,119,119,422,1,
,,,,,,,,,,,,,,,,,,5c0822f550d77a000164d7ce,2020-11-27_15h05.27.052,lexical_decision_task_MP_exp2,2020.2.5,Win32,60,z,1,0.667145,,,,,,,,0.667145,1,,,,,,256,NW,"ID",16,inlors,INLORS,z,,,,,,0.700925926,-0.332407407,0,0,0,space,0,120,120,315,1,206.49505
,,,,,,,,,,,,,,,,,,5c0822f550d77a000164d7ce,2020-11-27_15h05.27.052,lexical_decision_task_MP_exp2,2020.2.5,Win32,60,z,0,0.527385,,,,,,,,0.527385,0,,,,,,68,WORD,UN,33,plenty,FUMBLE,m,,,,,,0.700925926,-0.332407407,0,0,0,,0,121,121,127,1,
,,,,,,,,,,,,,,,,,,5c0822f550d77a000164d7ce,2020-11-27_15h05.27.052,lexical_decision_task_MP_exp2,2020.2.5,Win32,60,m,1,0.65839,,,,,,,,0.65839,1,,,,,,189,WORD,"ID",33,censor,CENSOR,m,,,,,,0.700925926,-0.332407407,0,0,0,,0,122,122,8,1,
,,,,,,,,,,,,,,,,,,5c0822f550d77a000164d7ce,2020-11-27_15h05.27.052,lexical_decision_task_MP_exp2,2020.2.5,Win32,60,m,1,0.681325,,,,,,,,0.681325,1,,,,,,213,WORD,"ID",33,squeal,SQUEAL,m,,,,,,0.700925926,-0.332407407,0,0,0,,0,123,123,32,1,
,,,,,,,,,,,,,,,,,,5c0822f550d77a000164d7ce,2020-11-27_15h05.27.052,lexical_decision_task_MP_exp2,2020.2.5,Win32,60,z,1,0.633145,,,,,,,,0.633145,1,,,,,,475,NW,"ID",33,pebric,PEBRIC,z,,,,,,0.700925926,-0.332407407,0,0,0,,0,124,124,294,1,
,,,,,,,,,,,,,,,,,,5c0822f550d77a000164d7ce,2020-11-27_15h05.27.052,lexical_decision_task_MP_exp2,2020.2.5,Win32,60,m,0,0.650355,,,,,,,,0.650355,0,,,,,,303,NW,UN,33,cludie,FIREAM,z,,,,,,0.700925926,-0.332407407,0,0,0,,0,125,125,362,1,
,,,,,,,,,,,,,,,,,,5c0822f550d77a000164d7ce,2020-11-27_15h05.27.052,lexical_decision_task_MP_exp2,2020.2.5,Win32,60,m,1,0.63273,,,,,,,,0.63273,1,,,,,,13,WORD,"ID",16,strive,STRIVE,m,,,,,,0.700925926,-0.332407407,0,0,0,,0,126,126,72,1,
,,,,,,,,,,,,,,,,,,5c0822f550d77a000164d7ce,2020-11-27_15h05.27.052,lexical_decision_task_MP_exp2,2020.2.5,Win32,60,z,1,0.57585,,,,,,,,0.57585,1,,,,,,354,NW,UN,33,zingly,VIRLEX,z,,,,,,0.700925926,-0.332407407,0,0,0,,0,127,127,413,1,
,,,,,,,,,,,,,,,,,,5c0822f550d77a000164d7ce,2020-11-27_15h05.27.052,lexical_decision_task_MP_exp2,2020.2.5,Win32,60,m,1,0.625725,,,,,,,,0.625725,1,,,,,,37,WORD,"ID",16,insult,INSULT,m,,,,,,0.700925926,-0.332407407,0,0,0,,0,128,128,96,1,
,,,,,,,,,,,,,,,,,,5c0822f550d77a000164d7ce,2020-11-27_15h05.27.052,lexical_decision_task_MP_exp2,2020.2.5,Win32,60,z,1,0.675925,,,,,,,,0.675925,1,,,,,,445,NW,"ID",33,minkel,MINKEL,z,,,,,,0.700925926,-0.332407407,0,0,0,,0,129,129,264,1,
,,,,,,,,,,,,,,,,,,5c0822f550d77a000164d7ce,2020-11-27_15h05.27.052,lexical_decision_task_MP_exp2,2020.2.5,Win32,60,m,1,0.79424,,,,,,,,0.79424,1,,,,,,201,WORD,"ID",33,admire,ADMIRE,m,,,,,,0.700925926,-0.332407407,0,0,0,,0,130,130,20,1,
,,,,,,,,,,,,,,,,,,5c0822f550d77a000164d7ce,2020-11-27_15h05.27.052,lexical_decision_task_MP_exp2,2020.2.5,Win32,60,m,1,0.589,,,,,,,,0.589,1,,,,,,35,WORD,"ID",16,socket,SOCKET,m,,,,,,0.700925926,-0.332407407,0,0,0,,0,131,131,94,1,
,,,,,,,,,,,,,,,,,,5c0822f550d77a000164d7ce,2020-11-27_15h05.27.052,lexical_decision_task_MP_exp2,2020.2.5,Win32,60,m,1,0.622175,,,,,,,,0.622175,1,,,,,,182,WORD,"ID",33,winter,WINTER,m,,,,,,0.700925926,-0.332407407,0,0,0,,0,132,132,1,1,
,,,,,,,,,,,,,,,,,,5c0822f550d77a000164d7ce,2020-11-27_15h05.27.052,lexical_decision_task_MP_exp2,2020.2.5,Win32,60,m,1,0.655195,,,,,,,,0.655195,1,,,,,,167,WORD,UN,16,answer,DESIGN,m,,,,,,0.700925926,-0.332407407,0,0,0,,0,133,133,226,1,
,,,,,,,,,,,,,,,,,,5c0822f550d77a000164d7ce,2020-11-27_15h05.27.052,lexical_decision_task_MP_exp2,2020.2.5,Win32,60,m,1,0.590775,,,,,,,,0.590775,1,,,,,,51,WORD,"ID",16,hungry,HUNGRY,m,,,,,,0.700925926,-0.332407407,0,0,0,,0,134,134,110,1,
,,,,,,,,,,,,,,,,,,5c0822f550d77a000164d7ce,2020-11-27_15h05.27.052,lexical_decision_task_MP_exp2,2020.2.5,Win32,60,m,1,0.634485,,,,,,,,0.634485,1,,,,,,147,WORD,UN,16,custom,GARLIC,m,,,,,,0.700925926,-0.332407407,0,0,0,,0,135,135,206,1,
,,,,,,,,,,,,,,,,,,5c0822f550d77a000164d7ce,2020-11-27_15h05.27.052,lexical_decision_task_MP_exp2,2020.2.5,Win32,60,m,1,0.682695,,,,,,,,0.682695,1,,,,,,116,WORD,UN,33,branch,TUMBLE,m,,,,,,0.700925926,-0.332407407,0,0,0,,0,136,136,175,1,
,,,,,,,,,,,,,,,,,,5c0822f550d77a000164d7ce,2020-11-27_15h05.27.052,lexical_decision_task_MP_exp2,2020.2.5,Win32,60,z,1,0.640595,,,,,,,,0.640595,1,,,,,,278,NW,"ID",16,unighs,UNIGHS,z,,,,,,0.700925926,-0.332407407,0,0,0,,0,137,137,337,1,
,,,,,,,,,,,,,,,,,,5c0822f550d77a000164d7ce,2020-11-27_15h05.27.052,lexical_decision_task_MP_exp2,2020.2.5,Win32,60,m,1,0.658535,,,,,,,,0.658535,1,,,,,,157,WORD,UN,16,island,DRAGON,m,,,,,,0.700925926,-0.332407407,0,0,0,,0,138,138,216,1,
,,,,,,,,,,,,,,,,,,5c0822f550d77a000164d7ce,2020-11-27_15h05.27.052,lexical_decision_task_MP_exp2,2020.2.5,Win32,60,z,1,0.903655,,,,,,,,0.903655,1,,,,,,335,NW,UN,33,ghodus,DESION,z,,,,,,0.700925926,-0.332407407,0,0,0,,0,139,139,394,1,
,,,,,,,,,,,,,,,,,,5c0822f550d77a000164d7ce,2020-11-27_15h05.27.052,lexical_decision_task_MP_exp2,2020.2.5,Win32,60,m,1,0.622105,,,,,,,,0.622105,1,,,,,,202,WORD,"ID",33,factor,FACTOR,m,,,,,,0.700925926,-0.332407407,0,0,0,,0,140,140,21,1,
,,,,,,,,,,,,,,,,,,5c0822f550d77a000164d7ce,2020-11-27_15h05.27.052,lexical_decision_task_MP_exp2,2020.2.5,Win32,60,m,1,0.742605,,,,,,,,0.742605,1,,,,,,6,WORD,"ID",16,bundle,BUNDLE,m,,,,,,0.700925926,-0.332407407,0,0,0,,0,141,141,65,1,
,,,,,,,,,,,,,,,,,,5c0822f550d77a000164d7ce,2020-11-27_15h05.27.052,lexical_decision_task_MP_exp2,2020.2.5,Win32,60,m,1,0.588995,,,,,,,,0.588995,1,,,,,,139,WORD,UN,16,prince,DEBRIS,m,,,,,,0.700925926,-0.332407407,0,0,0,,0,142,142,198,1,
,,,,,,,,,,,,,,,,,,5c0822f550d77a000164d7ce,2020-11-27_15h05.27.052,lexical_decision_task_MP_exp2,2020.2.5,Win32,60,m,1,0.73407,,,,,,,,0.73407,1,,,,,,240,WORD,"ID",33,forest,FOREST,m,,,,,,0.700925926,-0.332407407,0,0,0,,0,143,143,59,1,
,,,,,,,,,,,,,,,,,,5c0822f550d77a000164d7ce,2020-11-27_15h05.27.052,lexical_decision_task_MP_exp2,2020.2.5,Win32,60,m,1,0.62754,,,,,,,,0.62754,1,,,,,,160,WORD,UN,16,pastor,VIOLET,m,,,,,,0.700925926,-0.332407407,0,0,0,,0,144,144,219,1,
,,,,,,,,,,,,,,,,,,5c0822f550d77a000164d7ce,2020-11-27_15h05.27.052,lexical_decision_task_MP_exp2,2020.2.5,Win32,60,z,1,0.5792,,,,,,,,0.5792,1,,,,,,312,NW,UN,33,paurse,NERAWL,z,,,,,,0.700925926,-0.332407407,0,0,0,,0,145,145,371,1,
,,,,,,,,,,,,,,,,,,5c0822f550d77a000164d7ce,2020-11-27_15h05.27.052,lexical_decision_task_MP_exp2,2020.2.5,Win32,60,m,1,0.5896,,,,,,,,0.5896,1,,,,,,21,WORD,"ID",16,simple,SIMPLE,m,,,,,,0.700925926,-0.332407407,0,0,0,,0,146,146,80,1,
,,,,,,,,,,,,,,,,,,5c0822f550d77a000164d7ce,2020-11-27_15h05.27.052,lexical_decision_task_MP_exp2,2020.2.5,Win32,60,z,1,0.564535,,,,,,,,0.564535,1,,,,,,271,NW,"ID",16,aubrid,AUBRID,z,,,,,,0.700925926,-0.332407407,0,0,0,,0,147,147,330,1,
,,,,,,,,,,,,,,,,,,5c0822f550d77a000164d7ce,2020-11-27_15h05.27.052,lexical_decision_task_MP_exp2,2020.2.5,Win32,60,m,1,0.61452,,,,,,,,0.61452,1,,,,,,214,WORD,"ID",33,intake,INTAKE,m,,,,,,0.700925926,-0.332407407,0,0,0,,0,148,148,33,1,
,,,,,,,,,,,,,,,,,,5c0822f550d77a000164d7ce,2020-11-27_15h05.27.052,lexical_decision_task_MP_exp2,2020.2.5,Win32,60,z,1,0.59968,,,,,,,,0.59968,1,,,,,,300,NW,"ID",16,yarion,YARION,z,,,,,,0.700925926,-0.332407407,0,0,0,,0,149,149,359,1,
,,,,,,,,,,,,,,,,,,5c0822f550d77a000164d7ce,2020-11-27_15h05.27.052,lexical_decision_task_MP_exp2,2020.2.5,Win32,60,m,1,0.65334,,,,,,,,0.65334,1,,,,,,237,WORD,"ID",33,poster,POSTER,m,,,,,,0.700925926,-0.332407407,0,0,0,,0,150,150,56,1,
,,,,,,,,,,,,,,,,,,5c0822f550d77a000164d7ce,2020-11-27_15h05.27.052,lexical_decision_task_MP_exp2,2020.2.5,Win32,60,z,1,0.650965,,,,,,,,0.650965,1,,,,,,302,NW,UN,33,fiream,MILUER,z,,,,,,0.700925926,-0.332407407,0,0,0,,0,151,151,361,1,
,,,,,,,,,,,,,,,,,,5c0822f550d77a000164d7ce,2020-11-27_15h05.27.052,lexical_decision_task_MP_exp2,2020.2.5,Win32,60,z,1,1.017175,,,,,,,,1.017175,1,,,,,,255,NW,"ID",16,apight,APIGHT,z,,,,,,0.700925926,-0.332407407,0,0,0,,0,152,152,314,1,
,,,,,,,,,,,,,,,,,,5c0822f550d77a000164d7ce,2020-11-27_15h05.27.052,lexical_decision_task_MP_exp2,2020.2.5,Win32,60,m,1,0.55834,,,,,,,,0.55834,1,,,,,,80,WORD,UN,33,friend,FAMILY,m,,,,,,0.700925926,-0.332407407,0,0,0,,0,153,153,139,1,
,,,,,,,,,,,,,,,,,,5c0822f550d77a000164d7ce,2020-11-27_15h05.27.052,lexical_decision_task_MP_exp2,2020.2.5,Win32,60,m,1,0.618705,,,,,,,,0.618705,1,,,,,,93,WORD,UN,33,travel,PUBLIC,m,,,,,,0.700925926,-0.332407407,0,0,0,,0,154,154,152,1,
,,,,,,,,,,,,,,,,,,5c0822f550d77a000164d7ce,2020-11-27_15h05.27.052,lexical_decision_task_MP_exp2,2020.2.5,Win32,60,m,1,0.59434,,,,,,,,0.59434,1,,,,,,72,WORD,UN,33,source,BRIGHT,m,,,,,,0.700925926,-0.332407407,0,0,0,,0,155,155,131,1,
,,,,,,,,,,,,,,,,,,5c0822f550d77a000164d7ce,2020-11-27_15h05.27.052,lexical_decision_task_MP_exp2,2020.2.5,Win32,60,m,1,0.58434,,,,,,,,0.58434,1,,,,,,229,WORD,"ID",33,mother,MOTHER,m,,,,,,0.700925926,-0.332407407,0,0,0,,0,156,156,48,1,
,,,,,,,,,,,,,,,,,,5c0822f550d77a000164d7ce,2020-11-27_15h05.27.052,lexical_decision_task_MP_exp2,2020.2.5,Win32,60,m,1,0.66973,,,,,,,,0.66973,1,,,,,,216,WORD,"ID",33,behalf,BEHALF,m,,,,,,0.700925926,-0.332407407,0,0,0,,0,157,157,35,1,
,,,,,,,,,,,,,,,,,,5c0822f550d77a000164d7ce,2020-11-27_15h05.27.052,lexical_decision_task_MP_exp2,2020.2.5,Win32,60,m,1,0.599345,,,,,,,,0.599345,1,,,,,,204,WORD,"ID",33,burden,BURDEN,m,,,,,,0.700925926,-0.332407407,0,0,0,,0,158,158,23,1,
,,,,,,,,,,,,,,,,,,5c0822f550d77a000164d7ce,2020-11-27_15h05.27.052,lexical_decision_task_MP_exp2,2020.2.5,Win32,60,z,1,0.7006,,,,,,,,0.7006,1,,,,,,369,NW,UN,16,sleact,WRONCH,z,,,,,,0.700925926,-0.332407407,0,0,0,,0,159,159,428,1,
,,,,,,,,,,,,,,,,,,5c0822f550d77a000164d7ce,2020-11-27_15h05.27.052,lexical_decision_task_MP_exp2,2020.2.5,Win32,60,m,1,0.57518,,,,,,,,0.57518,1,,,,,,146,WORD,UN,16,garlic,COUPLE,m,,,,,,0.700925926,-0.332407407,0,0,0,,0,160,160,205,1,
,,,,,,,,,,,,,,,,,,5c0822f550d77a000164d7ce,2020-11-27_15h05.27.052,lexical_decision_task_MP_exp2,2020.2.5,Win32,60,m,1,0.666605,,,,,,,,0.666605,1,,,,,,148,WORD,UN,16,invade,CUSTOM,m,,,,,,0.700925926,-0.332407407,0,0,0,,0,161,161,207,1,
,,,,,,,,,,,,,,,,,,5c0822f550d77a000164d7ce,2020-11-27_15h05.27.052,lexical_decision_task_MP_exp2,2020.2.5,Win32,60,m,1,0.569505,,,,,,,,0.569505,1,,,,,,210,WORD,"ID",33,monkey,MONKEY,m,,,,,,0.700925926,-0.332407407,0,0,0,,0,162,162,29,1,
,,,,,,,,,,,,,,,,,,5c0822f550d77a000164d7ce,2020-11-27_15h05.27.052,lexical_decision_task_MP_exp2,2020.2.5,Win32,60,m,1,0.66798,,,,,,,,0.66798,1,,,,,,226,WORD,"ID",33,casino,CASINO,m,,,,,,0.700925926,-0.332407407,0,0,0,,0,163,163,45,1,
,,,,,,,,,,,,,,,,,,5c0822f550d77a000164d7ce,2020-11-27_15h05.27.052,lexical_decision_task_MP_exp2,2020.2.5,Win32,60,m,1,0.600815,,,,,,,,0.600815,1,,,,,,207,WORD,"ID",33,wreath,WREATH,m,,,,,,0.700925926,-0.332407407,0,0,0,,0,164,164,26,1,
,,,,,,,,,,,,,,,,,,5c0822f550d77a000164d7ce,2020-11-27_15h05.27.052,lexical_decision_task_MP_exp2,2020.2.5,Win32,60,z,1,0.68578,,,,,,,,0.68578,1,,,,,,458,NW,"ID",33,barcet,BARCET,z,,,,,,0.700925926,-0.332407407,0,0,0,,0,165,165,277,1,
,,,,,,,,,,,,,,,,,,5c0822f550d77a000164d7ce,2020-11-27_15h05.27.052,lexical_decision_task_MP_exp2,2020.2.5,Win32,60,z,1,0.783415,,,,,,,,0.783415,1,,,,,,417,NW,UN,16,suidle,EAROUD,z,,,,,,0.700925926,-0.332407407,0,0,0,,0,166,166,476,1,
,,,,,,,,,,,,,,,,,,5c0822f550d77a000164d7ce,2020-11-27_15h05.27.052,lexical_decision_task_MP_exp2,2020.2.5,Win32,60,z,1,0.70022,,,,,,,,0.70022,1,,,,,,474,NW,"ID",33,hablin,HABLIN,z,,,,,,0.700925926,-0.332407407,0,0,0,,0,167,167,293,1,
,,,,,,,,,,,,,,,,,,5c0822f550d77a000164d7ce,2020-11-27_15h05.27.052,lexical_decision_task_MP_exp2,2020.2.5,Win32,60,m,1,0.618245,,,,,,,,0.618245,1,,,,,,150,WORD,UN,16,mystic,RANDOM,m,,,,,,0.700925926,-0.332407407,0,0,0,,0,168,168,209,1,
,,,,,,,,,,,,,,,,,,5c0822f550d77a000164d7ce,2020-11-27_15h05.27.052,lexical_decision_task_MP_exp2,2020.2.5,Win32,60,z,1,0.684265,,,,,,,,0.684265,1,,,,,,372,NW,UN,16,bigent,RAMILY,z,,,,,,0.700925926,-0.332407407,0,0,0,,0,169,169,431,1,
,,,,,,,,,,,,,,,,,,5c0822f550d77a000164d7ce,2020-11-27_15h05.27.052,lexical_decision_task_MP_exp2,2020.2.5,Win32,60,m,1,0.667175,,,,,,,,0.667175,1,,,,,,130,WORD,UN,16,quench,STUPID,m,,,,,,0.700925926,-0.332407407,0,0,0,,0,170,170,189,1,
,,,,,,,,,,,,,,,,,,5c0822f550d77a000164d7ce,2020-11-27_15h05.27.052,lexical_decision_task_MP_exp2,2020.2.5,Win32,60,z,1,0.658125,,,,,,,,0.658125,1,,,,,,367,NW,UN,16,hornal,SLIQUE,z,,,,,,0.700925926,-0.332407407,0,0,0,,0,171,171,426,1,
,,,,,,,,,,,,,,,,,,5c0822f550d77a000164d7ce,2020-11-27_15h05.27.052,lexical_decision_task_MP_exp2,2020.2.5,Win32,60,z,0,0.75199,,,,,,,,0.75199,0,,,,,,183,WORD,"ID",33,mildew,MILDEW,m,,,,,,0.700925926,-0.332407407,0,0,0,,0,172,172,2,1,
,,,,,,,,,,,,,,,,,,5c0822f550d77a000164d7ce,2020-11-27_15h05.27.052,lexical_decision_task_MP_exp2,2020.2.5,Win32,60,m,1,0.63703,,,,,,,,0.63703,1,,,,,,177,WORD,UN,16,inform,ADVENT,m,,,,,,0.700925926,-0.332407407,0,0,0,,0,173,173,236,1,
,,,,,,,,,,,,,,,,,,5c0822f550d77a000164d7ce,2020-11-27_15h05.27.052,lexical_decision_task_MP_exp2,2020.2.5,Win32,60,z,1,0.68655,,,,,,,,0.68655,1,,,,,,330,NW,UN,33,gilfew,KENSOM,z,,,,,,0.700925926,-0.332407407,0,0,0,,0,174,174,389,1,
,,,,,,,,,,,,,,,,,,5c0822f550d77a000164d7ce,2020-11-27_15h05.27.052,lexical_decision_task_MP_exp2,2020.2.5,Win32,60,z,1,0.683695,,,,,,,,0.683695,1,,,,,,464,NW,"ID",33,chaite,CHAITE,z,,,,,,0.700925926,-0.332407407,0,0,0,,0,175,175,283,1,
,,,,,,,,,,,,,,,,,,5c0822f550d77a000164d7ce,2020-11-27_15h05.27.052,lexical_decision_task_MP_exp2,2020.2.5,Win32,60,z,1,0.68319,,,,,,,,0.68319,1,,,,,,413,NW,UN,16,serbol,EQUATS,z,,,,,,0.700925926,-0.332407407,0,0,0,,0,176,176,472,1,
,,,,,,,,,,,,,,,,,,5c0822f550d77a000164d7ce,2020-11-27_15h05.27.052,lexical_decision_task_MP_exp2,2020.2.5,Win32,60,z,1,0.68342,,,,,,,,0.68342,1,,,,,,244,NW,"ID",16,eatric,EATRIC,z,,,,,,0.700925926,-0.332407407,0,0,0,,0,177,177,303,1,
,,,,,,,,,,,,,,,,,,5c0822f550d77a000164d7ce,2020-11-27_15h05.27.052,lexical_decision_task_MP_exp2,2020.2.5,Win32,60,m,1,0.53647,,,,,,,,0.53647,1,,,,,,179,WORD,UN,16,silent,BASKET,m,,,,,,0.700925926,-0.332407407,0,0,0,,0,178,178,238,1,
,,,,,,,,,,,,,,,,,,5c0822f550d77a000164d7ce,2020-11-27_15h05.27.052,lexical_decision_task_MP_exp2,2020.2.5,Win32,60,m,1,0.708225,,,,,,,,0.708225,1,,,,,,41,WORD,"ID",16,spring,SPRING,m,,,,,,0.700925926,-0.332407407,0,0,0,,0,179,179,100,1,
,,,,,,,,,,,,,,,,,,5c0822f550d77a000164d7ce,2020-11-27_15h05.27.052,lexical_decision_task_MP_exp2,2020.2.5,Win32,60,z,1,0.65071,,,,,,,,0.65071,1,,,,,,469,NW,"ID",33,padifs,PADIFS,z,,,,,,0.700925926,-0.332407407,0,0,0,,0,180,180,288,1,
,,,,,,,,,,,,,,,,,,5c0822f550d77a000164d7ce,2020-11-27_15h05.27.052,lexical_decision_task_MP_exp2,2020.2.5,Win32,60,m,1,0.818615,,,,,,,,0.818615,1,,,,,,163,WORD,UN,16,market,STRING,m,,,,,,0.700925926,-0.332407407,0,0,0,,0,181,181,222,1,
,,,,,,,,,,,,,,,,,,5c0822f550d77a000164d7ce,2020-11-27_15h05.27.052,lexical_decision_task_MP_exp2,2020.2.5,Win32,60,m,1,0.817755,,,,,,,,0.817755,1,,,,,,152,WORD,UN,16,behold,ROCKET,m,,,,,,0.700925926,-0.332407407,0,0,0,,0,182,182,211,1,
,,,,,,,,,,,,,,,,,,5c0822f550d77a000164d7ce,2020-11-27_15h05.27.052,lexical_decision_task_MP_exp2,2020.2.5,Win32,60,z,1,0.587385,,,,,,,,0.587385,1,,,,,,452,NW,"ID",33,surden,SURDEN,z,,,,,,0.700925926,-0.332407407,0,0,0,,0,183,183,271,1,
,,,,,,,,,,,,,,,,,,5c0822f550d77a000164d7ce,2020-11-27_15h05.27.052,lexical_decision_task_MP_exp2,2020.2.5,Win32,60,m,1,0.600185,,,,,,,,0.600185,1,,,,,,208,WORD,"ID",33,hockey,HOCKEY,m,,,,,,0.700925926,-0.332407407,0,0,0,,0,184,184,27,1,
,,,,,,,,,,,,,,,,,,5c0822f550d77a000164d7ce,2020-11-27_15h05.27.052,lexical_decision_task_MP_exp2,2020.2.5,Win32,60,m,1,0.638625,,,,,,,,0.638625,1,,,,,,230,WORD,"ID",33,fringe,FRINGE,m,,,,,,0.700925926,-0.332407407,0,0,0,,0,185,185,49,1,
,,,,,,,,,,,,,,,,,,5c0822f550d77a000164d7ce,2020-11-27_15h05.27.052,lexical_decision_task_MP_exp2,2020.2.5,Win32,60,z,1,0.634035,,,,,,,,0.634035,1,,,,,,321,NW,UN,33,slanch,MIATOR,z,,,,,,0.700925926,-0.332407407,0,0,0,,0,186,186,380,1,
,,,,,,,,,,,,,,,,,,5c0822f550d77a000164d7ce,2020-11-27_15h05.27.052,lexical_decision_task_MP_exp2,2020.2.5,Win32,60,m,1,0.67916,,,,,,,,0.67916,1,,,,,,211,WORD,"ID",33,infect,INFECT,m,,,,,,0.700925926,-0.332407407,0,0,0,,0,187,187,30,1,
,,,,,,,,,,,,,,,,,,5c0822f550d77a000164d7ce,2020-11-27_15h05.27.052,lexical_decision_task_MP_exp2,2020.2.5,Win32,60,z,1,0.669635,,,,,,,,0.669635,1,,,,,,424,NW,"ID",33,praile,PRAILE,z,,,,,,0.700925926,-0.332407407,0,0,0,,0,188,188,243,1,
,,,,,,,,,,,,,,,,,,5c0822f550d77a000164d7ce,2020-11-27_15h05.27.052,lexical_decision_task_MP_exp2,2020.2.5,Win32,60,z,1,0.820315,,,,,,,,0.820315,1,,,,,,269,NW,"ID",16,orchet,ORCHET,z,,,,,,0.700925926,-0.332407407,0,0,0,,0,189,189,328,1,
,,,,,,,,,,,,,,,,,,5c0822f550d77a000164d7ce,2020-11-27_15h05.27.052,lexical_decision_task_MP_exp2,2020.2.5,Win32,60,z,1,0.767295,,,,,,,,0.767295,1,,,,,,260,NW,"ID",16,unject,UNJECT,z,,,,,,0.700925926,-0.332407407,0,0,0,,0,190,190,319,1,
,,,,,,,,,,,,,,,,,,5c0822f550d77a000164d7ce,2020-11-27_15h05.27.052,lexical_decision_task_MP_exp2,2020.2.5,Win32,60,m,1,0.600475,,,,,,,,0.600475,1,,,,,,220,WORD,"ID",33,voyage,VOYAGE,m,,,,,,0.700925926,-0.332407407,0,0,0,,0,191,191,39,1,
,,,,,,,,,,,,,,,,,,5c0822f550d77a000164d7ce,2020-11-27_15h05.27.052,lexical_decision_task_MP_exp2,2020.2.5,Win32,60,m,1,0.545835,,,,,,,,0.545835,1,,,,,,12,WORD,"ID",16,orange,ORANGE,m,,,,,,0.700925926,-0.332407407,0,0,0,,0,192,192,71,1,
,,,,,,,,,,,,,,,,,,5c0822f550d77a000164d7ce,2020-11-27_15h05.27.052,lexical_decision_task_MP_exp2,2020.2.5,Win32,60,m,1,0.54975,,,,,,,,0.54975,1,,,,,,27,WORD,"ID",16,scream,SCREAM,m,,,,,,0.700925926,-0.332407407,0,0,0,,0,193,193,86,1,
,,,,,,,,,,,,,,,,,,5c0822f550d77a000164d7ce,2020-11-27_15h05.27.052,lexical_decision_task_MP_exp2,2020.2.5,Win32,60,m,1,0.71945,,,,,,,,0.71945,1,,,,,,71,WORD,UN,33,bright,GARDEN,m,,,,,,0.700925926,-0.332407407,0,0,0,,0,194,194,130,1,
,,,,,,,,,,,,,,,,,,5c0822f550d77a000164d7ce,2020-11-27_15h05.27.052,lexical_decision_task_MP_exp2,2020.2.5,Win32,60,m,1,0.539435,,,,,,,,0.539435,1,,,,,,47,WORD,"ID",16,income,INCOME,m,,,,,,0.700925926,-0.332407407,0,0,0,,0,195,195,106,1,
,,,,,,,,,,,,,,,,,,5c0822f550d77a000164d7ce,2020-11-27_15h05.27.052,lexical_decision_task_MP_exp2,2020.2.5,Win32,60,z,1,0.569825,,,,,,,,0.569825,1,,,,,,293,NW,"ID",16,swance,SWANCE,z,,,,,,0.700925926,-0.332407407,0,0,0,,0,196,196,352,1,
,,,,,,,,,,,,,,,,,,5c0822f550d77a000164d7ce,2020-11-27_15h05.27.052,lexical_decision_task_MP_exp2,2020.2.5,Win32,60,m,1,0.733365,,,,,,,,0.733365,1,,,,,,69,WORD,UN,33,square,PLENTY,m,,,,,,0.700925926,-0.332407407,0,0,0,,0,197,197,128,1,
,,,,,,,,,,,,,,,,,,5c0822f550d77a000164d7ce,2020-11-27_15h05.27.052,lexical_decision_task_MP_exp2,2020.2.5,Win32,60,z,1,0.640075,,,,,,,,0.640075,1,,,,,,297,NW,"ID",16,fertic,FERTIC,z,,,,,,0.700925926,-0.332407407,0,0,0,,0,198,198,356,1,
,,,,,,,,,,,,,,,,,,5c0822f550d77a000164d7ce,2020-11-27_15h05.27.052,lexical_decision_task_MP_exp2,2020.2.5,Win32,60,z,1,0.6836,,,,,,,,0.6836,1,,,,,,368,NW,UN,16,wronch,HORNAL,z,,,,,,0.700925926,-0.332407407,0,0,0,,0,199,199,427,1,
,,,,,,,,,,,,,,,,,,5c0822f550d77a000164d7ce,2020-11-27_15h05.27.052,lexical_decision_task_MP_exp2,2020.2.5,Win32,60,m,1,0.592725,,,,,,,,0.592725,1,,,,,,42,WORD,"ID",16,chapel,CHAPEL,m,,,,,,0.700925926,-0.332407407,0,0,0,,0,200,200,101,1,
,,,,,,,,,,,,,,,,,,5c0822f550d77a000164d7ce,2020-11-27_15h05.27.052,lexical_decision_task_MP_exp2,2020.2.5,Win32,60,z,1,0.62768,,,,,,,,0.62768,1,,,,,,267,NW,"ID",16,pasink,PASINK,z,,,,,,0.700925926,-0.332407407,0,0,0,,0,201,201,326,1,
,,,,,,,,,,,,,,,,,,5c0822f550d77a000164d7ce,2020-11-27_15h05.27.052,lexical_decision_task_MP_exp2,2020.2.5,Win32,60,z,1,0.653065,,,,,,,,0.653065,1,,,,,,403,NW,UN,16,cluirm,BRUATS,z,,,,,,0.700925926,-0.332407407,0,0,0,,0,202,202,462,1,
,,,,,,,,,,,,,,,,,,5c0822f550d77a000164d7ce,2020-11-27_15h05.27.052,lexical_decision_task_MP_exp2,2020.2.5,Win32,60,z,1,0.676785,,,,,,,,0.676785,1,,,,,,261,NW,"ID",16,stunch,STUNCH,z,,,,,,0.700925926,-0.332407407,0,0,0,,0,203,203,320,1,
,,,,,,,,,,,,,,,,,,5c0822f550d77a000164d7ce,2020-11-27_15h05.27.052,lexical_decision_task_MP_exp2,2020.2.5,Win32,60,z,1,0.642735,,,,,,,,0.642735,1,,,,,,427,NW,"ID",33,schind,SCHIND,z,,,,,,0.700925926,-0.332407407,0,0,0,,0,204,204,246,1,
,,,,,,,,,,,,,,,,,,5c0822f550d77a000164d7ce,2020-11-27_15h05.27.052,lexical_decision_task_MP_exp2,2020.2.5,Win32,60,m,1,0.570115,,,,,,,,0.570115,1,,,,,,132,WORD,UN,16,orphan,STRONG,m,,,,,,0.700925926,-0.332407407,0,0,0,,0,205,205,191,1,
,,,,,,,,,,,,,,,,,,5c0822f550d77a000164d7ce,2020-11-27_15h05.27.052,lexical_decision_task_MP_exp2,2020.2.5,Win32,60,z,1,0.616955,,,,,,,,0.616955,1,,,,,,281,NW,"ID",16,melaty,MELATY,z,,,,,,0.700925926,-0.332407407,0,0,0,,0,206,206,340,1,
,,,,,,,,,,,,,,,,,,5c0822f550d77a000164d7ce,2020-11-27_15h05.27.052,lexical_decision_task_MP_exp2,2020.2.5,Win32,60,z,1,0.5931,,,,,,,,0.5931,1,,,,,,292,NW,"ID",16,ablint,ABLINT,z,,,,,,0.700925926,-0.332407407,0,0,0,,0,207,207,351,1,
,,,,,,,,,,,,,,,,,,5c0822f550d77a000164d7ce,2020-11-27_15h05.27.052,lexical_decision_task_MP_exp2,2020.2.5,Win32,60,m,1,0.68293,,,,,,,,0.68293,1,,,,,,82,WORD,UN,33,result,STIGMA,m,,,,,,0.700925926,-0.332407407,0,0,0,,0,208,208,141,1,
,,,,,,,,,,,,,,,,,,5c0822f550d77a000164d7ce,2020-11-27_15h05.27.052,lexical_decision_task_MP_exp2,2020.2.5,Win32,60,z,1,0.665565,,,,,,,,0.665565,1,,,,,,273,NW,"ID",16,sortel,SORTEL,z,,,,,,0.700925926,-0.332407407,0,0,0,,0,209,209,332,1,
,,,,,,,,,,,,,,,,,,5c0822f550d77a000164d7ce,2020-11-27_15h05.27.052,lexical_decision_task_MP_exp2,2020.2.5,Win32,60,m,1,0.593405,,,,,,,,0.593405,1,,,,,,151,WORD,UN,16,rocket,MYSTIC,m,,,,,,0.700925926,-0.332407407,0,0,0,,0,210,210,210,1,
,,,,,,,,,,,,,,,,,,5c0822f550d77a000164d7ce,2020-11-27_15h05.27.052,lexical_decision_task_MP_exp2,2020.2.5,Win32,60,z,1,0.604055,,,,,,,,0.604055,1,,,,,,254,NW,"ID",16,varosh,VAROSH,z,,,,,,0.700925926,-0.332407407,0,0,0,,0,211,211,313,1,
,,,,,,,,,,,,,,,,,,5c0822f550d77a000164d7ce,2020-11-27_15h05.27.052,lexical_decision_task_MP_exp2,2020.2.5,Win32,60,m,1,0.70821,,,,,,,,0.70821,1,,,,,,140,WORD,UN,16,chrome,PRINCE,m,,,,,,0.700925926,-0.332407407,0,0,0,,0,212,212,199,1,
,,,,,,,,,,,,,,,,,,5c0822f550d77a000164d7ce,2020-11-27_15h05.27.052,lexical_decision_task_MP_exp2,2020.2.5,Win32,60,m,1,0.62687,,,,,,,,0.62687,1,,,,,,18,WORD,"ID",16,humble,HUMBLE,m,,,,,,0.700925926,-0.332407407,0,0,0,,0,213,213,77,1,
,,,,,,,,,,,,,,,,,,5c0822f550d77a000164d7ce,2020-11-27_15h05.27.052,lexical_decision_task_MP_exp2,2020.2.5,Win32,60,z,1,0.62117,,,,,,,,0.62117,1,,,,,,299,NW,"ID",16,sturch,STURCH,z,,,,,,0.700925926,-0.332407407,0,0,0,,0,214,214,358,1,
,,,,,,,,,,,,,,,,,,5c0822f550d77a000164d7ce,2020-11-27_15h05.27.052,lexical_decision_task_MP_exp2,2020.2.5,Win32,60,m,1,0.72392,,,,,,,,0.72392,1,,,,,,91,WORD,UN,33,hunger,EXPAND,m,,,,,,0.700925926,-0.332407407,0,0,0,,0,215,215,150,1,
,,,,,,,,,,,,,,,,,,5c0822f550d77a000164d7ce,2020-11-27_15h05.27.052,lexical_decision_task_MP_exp2,2020.2.5,Win32,60,m,1,0.86709,,,,,,,,0.86709,1,,,,,,122,WORD,UN,16,strike,LINGER,m,,,,,,0.700925926,-0.332407407,0,0,0,,0,216,216,181,1,
,,,,,,,,,,,,,,,,,,5c0822f550d77a000164d7ce,2020-11-27_15h05.27.052,lexical_decision_task_MP_exp2,2020.2.5,Win32,60,m,1,0.56751,,,,,,,,0.56751,1,,,,,,187,WORD,"ID",33,course,COURSE,m,,,,,,0.700925926,-0.332407407,0,0,0,,0,217,217,6,1,
,,,,,,,,,,,,,,,,,,5c0822f550d77a000164d7ce,2020-11-27_15h05.27.052,lexical_decision_task_MP_exp2,2020.2.5,Win32,60,m,1,0.747875,,,,,,,,0.747875,1,,,,,,89,WORD,UN,33,relish,PERMIT,m,,,,,,0.700925926,-0.332407407,0,0,0,,0,218,218,148,1,
,,,,,,,,,,,,,,,,,,5c0822f550d77a000164d7ce,2020-11-27_15h05.27.052,lexical_decision_task_MP_exp2,2020.2.5,Win32,60,m,1,0.73204,,,,,,,,0.73204,1,,,,,,50,WORD,"ID",16,snatch,SNATCH,m,,,,,,0.700925926,-0.332407407,0,0,0,,0,219,219,109,1,
,,,,,,,,,,,,,,,,,,5c0822f550d77a000164d7ce,2020-11-27_15h05.27.052,lexical_decision_task_MP_exp2,2020.2.5,Win32,60,z,1,0.70132,,,,,,,,0.70132,1,,,,,,243,NW,"ID",16,musied,MUSIED,z,,,,,,0.700925926,-0.332407407,0,0,0,,0,220,220,302,1,
,,,,,,,,,,,,,,,,,,5c0822f550d77a000164d7ce,2020-11-27_15h05.27.052,lexical_decision_task_MP_exp2,2020.2.5,Win32,60,z,1,0.783835,,,,,,,,0.783835,1,,,,,,304,NW,UN,33,forgle,CLUDIE,z,,,,,,0.700925926,-0.332407407,0,0,0,,0,221,221,363,1,
,,,,,,,,,,,,,,,,,,5c0822f550d77a000164d7ce,2020-11-27_15h05.27.052,lexical_decision_task_MP_exp2,2020.2.5,Win32,60,m,1,0.815345,,,,,,,,0.815345,1,,,,,,106,WORD,UN,33,slogan,RANSOM,m,,,,,,0.700925926,-0.332407407,0,0,0,,0,222,222,165,1,
,,,,,,,,,,,,,,,,,,5c0822f550d77a000164d7ce,2020-11-27_15h05.27.052,lexical_decision_task_MP_exp2,2020.2.5,Win32,60,z,1,0.75595,,,,,,,,0.75595,1,,,,,,391,NW,UN,16,rouncy,THELDY,z,,,,,,0.700925926,-0.332407407,0,0,0,,0,223,223,450,1,
,,,,,,,,,,,,,,,,,,5c0822f550d77a000164d7ce,2020-11-27_15h05.27.052,lexical_decision_task_MP_exp2,2020.2.5,Win32,60,m,1,0.968875,,,,,,,,0.968875,1,,,,,,149,WORD,UN,16,random,INVADE,m,,,,,,0.700925926,-0.332407407,0,0,0,,0,224,224,208,1,
,,,,,,,,,,,,,,,,,,5c0822f550d77a000164d7ce,2020-11-27_15h05.27.052,lexical_decision_task_MP_exp2,2020.2.5,Win32,60,z,1,0.666805,,,,,,,,0.666805,1,,,,,,456,NW,"ID",33,broget,BROGET,z,,,,,,0.700925926,-0.332407407,0,0,0,,0,225,225,275,1,
,,,,,,,,,,,,,,,,,,5c0822f550d77a000164d7ce,2020-11-27_15h05.27.052,lexical_decision_task_MP_exp2,2020.2.5,Win32,60,m,1,0.585955,,,,,,,,0.585955,1,,,,,,92,WORD,UN,33,public,STRAND,m,,,,,,0.700925926,-0.332407407,0,0,0,,0,226,226,151,1,
,,,,,,,,,,,,,,,,,,5c0822f550d77a000164d7ce,2020-11-27_15h05.27.052,lexical_decision_task_MP_exp2,2020.2.5,Win32,60,z,1,0.581375,,,,,,,,0.581375,1,,,,,,274,NW,"ID",16,fumblo,FUMBLO,z,,,,,,0.700925926,-0.332407407,0,0,0,,0,227,227,333,1,
,,,,,,,,,,,,,,,,,,5c0822f550d77a000164d7ce,2020-11-27_15h05.27.052,lexical_decision_task_MP_exp2,2020.2.5,Win32,60,z,1,0.60793,,,,,,,,0.60793,1,,,,,,453,NW,"ID",33,bolvis,BOLVIS,z,,,,,,0.700925926,-0.332407407,0,0,0,,0,228,228,272,1,
,,,,,,,,,,,,,,,,,,5c0822f550d77a000164d7ce,2020-11-27_15h05.27.052,lexical_decision_task_MP_exp2,2020.2.5,Win32,60,z,1,0.5934,,,,,,,,0.5934,1,,,,,,355,NW,UN,33,othnis,ZINGLY,z,,,,,,0.700925926,-0.332407407,0,0,0,,0,229,229,414,1,
,,,,,,,,,,,,,,,,,,5c0822f550d77a000164d7ce,2020-11-27_15h05.27.052,lexical_decision_task_MP_exp2,2020.2.5,Win32,60,m,1,0.635585,,,,,,,,0.635585,1,,,,,,5,WORD,"ID",16,plunge,PLUNGE,m,,,,,,0.700925926,-0.332407407,0,0,0,,0,230,230,64,1,
,,,,,,,,,,,,,,,,,,5c0822f550d77a000164d7ce,2020-11-27_15h05.27.052,lexical_decision_task_MP_exp2,2020.2.5,Win32,60,m,1,0.58162,,,,,,,,0.58162,1,,,,,,49,WORD,"ID",16,survey,SURVEY,m,,,,,,0.700925926,-0.332407407,0,0,0,,0,231,231,108,1,
,,,,,,,,,,,,,,,,,,5c0822f550d77a000164d7ce,2020-11-27_15h05.27.052,lexical_decision_task_MP_exp2,2020.2.5,Win32,60,m,1,0.68598,,,,,,,,0.68598,1,,,,,,232,WORD,"ID",33,inject,INJECT,m,,,,,,0.700925926,-0.332407407,0,0,0,,0,232,232,51,1,
,,,,,,,,,,,,,,,,,,5c0822f550d77a000164d7ce,2020-11-27_15h05.27.052,lexical_decision_task_MP_exp2,2020.2.5,Win32,60,z,1,0.75084,,,,,,,,0.75084,1,,,,,,374,NW,UN,16,yorque,SLIANT,z,,,,,,0.700925926,-0.332407407,0,0,0,,0,233,233,433,1,
,,,,,,,,,,,,,,,,,,5c0822f550d77a000164d7ce,2020-11-27_15h05.27.052,lexical_decision_task_MP_exp2,2020.2.5,Win32,60,m,1,0.67339,,,,,,,,0.67339,1,,,,,,7,WORD,"ID",16,anchor,ANCHOR,m,,,,,,0.700925926,-0.332407407,0,0,0,,0,234,234,66,1,
,,,,,,,,,,,,,,,,,,5c0822f550d77a000164d7ce,2020-11-27_15h05.27.052,lexical_decision_task_MP_exp2,2020.2.5,Win32,60,z,1,0.765755,,,,,,,,0.765755,1,,,,,,438,NW,"ID",33,baitch,BAITCH,z,,,,,,0.700925926,-0.332407407,0,0,0,,0,235,235,257,1,
,,,,,,,,,,,,,,,,,,5c0822f550d77a000164d7ce,2020-11-27_15h05.27.052,lexical_decision_task_MP_exp2,2020.2.5,Win32,60,m,1,0.748585,,,,,,,,0.748585,1,,,,,,134,WORD,UN,16,import,STAPLE,m,,,,,,0.700925926,-0.332407407,0,0,0,,0,236,236,193,1,
,,,,,,,,,,,,,,,,,,5c0822f550d77a000164d7ce,2020-11-27_15h05.27.052,lexical_decision_task_MP_exp2,2020.2.5,Win32,60,z,1,0.684735,,,,,,,,0.684735,1,,,,,,412,NW,UN,16,equats,JILUER,z,,,,,,0.700925926,-0.332407407,0,0,0,,0,237,237,471,1,
,,,,,,,,,,,,,,,,,,5c0822f550d77a000164d7ce,2020-11-27_15h05.27.052,lexical_decision_task_MP_exp2,2020.2.5,Win32,60,z,1,0.63681,,,,,,,,0.63681,1,,,,,,476,NW,"ID",33,josted,JOSTED,z,,,,,,0.700925926,-0.332407407,0,0,0,,0,238,238,295,1,
,,,,,,,,,,,,,,,,,,5c0822f550d77a000164d7ce,2020-11-27_15h05.27.052,lexical_decision_task_MP_exp2,2020.2.5,Win32,60,z,1,0.633965,,,,,,,,0.633965,1,,,,,,466,NW,"ID",33,hocite,HOCITE,z,,,,,,0.700925926,-0.332407407,0,0,0,,0,239,239,285,1,
,,,,,,,,,,,,,,,,,,5c0822f550d77a000164d7ce,2020-11-27_15h05.27.052,lexical_decision_task_MP_exp2,2020.2.5,Win32,60,m,1,0.66857,,,,,,,,0.66857,1,,,,,,65,WORD,UN,33,gospel,SYMBOL,m,,,,,,0.700925926,-0.332407407,0,0,0,,0,240,240,124,1,
,,,,,,,,,,,,,,,,,,5c0822f550d77a000164d7ce,2020-11-27_15h05.27.052,lexical_decision_task_MP_exp2,2020.2.5,Win32,60,z,1,0.755535,,,,,,,,0.755535,1,,,,,,437,NW,"ID",33,snapel,SNAPEL,z,,,,,,0.700925926,-0.332407407,0,0,0,space,0,241,241,256,1,1.74032
,,,,,,,,,,,,,,,,,,5c0822f550d77a000164d7ce,2020-11-27_15h05.27.052,lexical_decision_task_MP_exp2,2020.2.5,Win32,60,m,1,0.681025,,,,,,,,0.681025,1,,,,,,54,WORD,"ID",16,ramble,RAMBLE,m,,,,,,0.700925926,-0.332407407,0,0,0,,0,242,242,113,1,
,,,,,,,,,,,,,,,,,,5c0822f550d77a000164d7ce,2020-11-27_15h05.27.052,lexical_decision_task_MP_exp2,2020.2.5,Win32,60,z,1,0.671445,,,,,,,,0.671445,1,,,,,,443,NW,"ID",33,dorsex,DORSEX,z,,,,,,0.700925926,-0.332407407,0,0,0,,0,243,243,262,1,
,,,,,,,,,,,,,,,,,,5c0822f550d77a000164d7ce,2020-11-27_15h05.27.052,lexical_decision_task_MP_exp2,2020.2.5,Win32,60,z,1,0.695155,,,,,,,,0.695155,1,,,,,,422,NW,"ID",33,alcoud,ALCOUD,z,,,,,,0.700925926,-0.332407407,0,0,0,,0,244,244,241,1,
,,,,,,,,,,,,,,,,,,5c0822f550d77a000164d7ce,2020-11-27_15h05.27.052,lexical_decision_task_MP_exp2,2020.2.5,Win32,60,z,1,0.876695,,,,,,,,0.876695,1,,,,,,373,NW,UN,16,sliant,BIGENT,z,,,,,,0.700925926,-0.332407407,0,0,0,,0,245,245,432,1,
,,,,,,,,,,,,,,,,,,5c0822f550d77a000164d7ce,2020-11-27_15h05.27.052,lexical_decision_task_MP_exp2,2020.2.5,Win32,60,z,1,0.627385,,,,,,,,0.627385,1,,,,,,431,NW,"ID",33,chrums,CHRUMS,z,,,,,,0.700925926,-0.332407407,0,0,0,,0,246,246,250,1,
,,,,,,,,,,,,,,,,,,5c0822f550d77a000164d7ce,2020-11-27_15h05.27.052,lexical_decision_task_MP_exp2,2020.2.5,Win32,60,z,1,0.685285,,,,,,,,0.685285,1,,,,,,246,NW,"ID",16,piaton,PIATON,z,,,,,,0.700925926,-0.332407407,0,0,0,,0,247,247,305,1,
,,,,,,,,,,,,,,,,,,5c0822f550d77a000164d7ce,2020-11-27_15h05.27.052,lexical_decision_task_MP_exp2,2020.2.5,Win32,60,z,1,0.61991,,,,,,,,0.61991,1,,,,,,418,NW,UN,16,slount,SUIDLE,z,,,,,,0.700925926,-0.332407407,0,0,0,,0,248,248,477,1,
,,,,,,,,,,,,,,,,,,5c0822f550d77a000164d7ce,2020-11-27_15h05.27.052,lexical_decision_task_MP_exp2,2020.2.5,Win32,60,z,1,0.676785,,,,,,,,0.676785,1,,,,,,364,NW,UN,16,guairt,IMPOTE,z,,,,,,0.700925926,-0.332407407,0,0,0,,0,249,249,423,1,
,,,,,,,,,,,,,,,,,,5c0822f550d77a000164d7ce,2020-11-27_15h05.27.052,lexical_decision_task_MP_exp2,2020.2.5,Win32,60,z,1,0.65197,,,,,,,,0.65197,1,,,,,,325,NW,UN,33,iguade,THRUSE,z,,,,,,0.700925926,-0.332407407,0,0,0,,0,250,250,384,1,
,,,,,,,,,,,,,,,,,,5c0822f550d77a000164d7ce,2020-11-27_15h05.27.052,lexical_decision_task_MP_exp2,2020.2.5,Win32,60,z,0,0.674575,,,,,,,,0.674575,0,,,,,,120,WORD,UN,33,ponder,STRAIN,m,,,,,,0.700925926,-0.332407407,0,0,0,,0,251,251,179,1,
,,,,,,,,,,,,,,,,,,5c0822f550d77a000164d7ce,2020-11-27_15h05.27.052,lexical_decision_task_MP_exp2,2020.2.5,Win32,60,m,1,0.53627,,,,,,,,0.53627,1,,,,,,196,WORD,"ID",33,credit,CREDIT,m,,,,,,0.700925926,-0.332407407,0,0,0,,0,252,252,15,1,
,,,,,,,,,,,,,,,,,,5c0822f550d77a000164d7ce,2020-11-27_15h05.27.052,lexical_decision_task_MP_exp2,2020.2.5,Win32,60,z,1,0.68672,,,,,,,,0.68672,1,,,,,,419,NW,UN,16,gushop,SLOUNT,z,,,,,,0.700925926,-0.332407407,0,0,0,,0,253,253,478,1,
,,,,,,,,,,,,,,,,,,5c0822f550d77a000164d7ce,2020-11-27_15h05.27.052,lexical_decision_task_MP_exp2,2020.2.5,Win32,60,z,1,0.6609,,,,,,,,0.6609,1,,,,,,385,NW,UN,16,ancust,VEIGMA,z,,,,,,0.700925926,-0.332407407,0,0,0,,0,254,254,444,1,
,,,,,,,,,,,,,,,,,,5c0822f550d77a000164d7ce,2020-11-27_15h05.27.052,lexical_decision_task_MP_exp2,2020.2.5,Win32,60,m,1,0.626495,,,,,,,,0.626495,1,,,,,,190,WORD,"ID",33,backup,BACKUP,m,,,,,,0.700925926,-0.332407407,0,0,0,,0,255,255,9,1,
,,,,,,,,,,,,,,,,,,5c0822f550d77a000164d7ce,2020-11-27_15h05.27.052,lexical_decision_task_MP_exp2,2020.2.5,Win32,60,z,1,0.590795,,,,,,,,0.590795,1,,,,,,444,NW,"ID",33,jaunce,JAUNCE,z,,,,,,0.700925926,-0.332407407,0,0,0,,0,256,256,263,1,
,,,,,,,,,,,,,,,,,,5c0822f550d77a000164d7ce,2020-11-27_15h05.27.052,lexical_decision_task_MP_exp2,2020.2.5,Win32,60,m,1,0.6834,,,,,,,,0.6834,1,,,,,,34,WORD,"ID",16,jungle,JUNGLE,m,,,,,,0.700925926,-0.332407407,0,0,0,,0,257,257,93,1,
,,,,,,,,,,,,,,,,,,5c0822f550d77a000164d7ce,2020-11-27_15h05.27.052,lexical_decision_task_MP_exp2,2020.2.5,Win32,60,z,1,0.65435,,,,,,,,0.65435,1,,,,,,410,NW,UN,16,orchin,TUNORY,z,,,,,,0.700925926,-0.332407407,0,0,0,,0,258,258,469,1,
,,,,,,,,,,,,,,,,,,5c0822f550d77a000164d7ce,2020-11-27_15h05.27.052,lexical_decision_task_MP_exp2,2020.2.5,Win32,60,z,1,0.6199,,,,,,,,0.6199,1,,,,,,301,NW,UN,33,miluer,FAINCH,z,,,,,,0.700925926,-0.332407407,0,0,0,,0,259,259,360,1,
,,,,,,,,,,,,,,,,,,5c0822f550d77a000164d7ce,2020-11-27_15h05.27.052,lexical_decision_task_MP_exp2,2020.2.5,Win32,60,m,1,0.781525,,,,,,,,0.781525,1,,,,,,57,WORD,"ID",16,change,CHANGE,m,,,,,,0.700925926,-0.332407407,0,0,0,,0,260,260,116,1,
,,,,,,,,,,,,,,,,,,5c0822f550d77a000164d7ce,2020-11-27_15h05.27.052,lexical_decision_task_MP_exp2,2020.2.5,Win32,60,m,1,0.618775,,,,,,,,0.618775,1,,,,,,104,WORD,UN,33,number,STUDIO,m,,,,,,0.700925926,-0.332407407,0,0,0,,0,261,261,163,1,
,,,,,,,,,,,,,,,,,,5c0822f550d77a000164d7ce,2020-11-27_15h05.27.052,lexical_decision_task_MP_exp2,2020.2.5,Win32,60,z,1,0.69904,,,,,,,,0.69904,1,,,,,,342,NW,UN,33,aimosy,RANDOW,z,,,,,,0.700925926,-0.332407407,0,0,0,,0,262,262,401,1,
,,,,,,,,,,,,,,,,,,5c0822f550d77a000164d7ce,2020-11-27_15h05.27.052,lexical_decision_task_MP_exp2,2020.2.5,Win32,60,m,1,0.623685,,,,,,,,0.623685,1,,,,,,33,WORD,"ID",16,butler,BUTLER,m,,,,,,0.700925926,-0.332407407,0,0,0,,0,263,263,92,1,
,,,,,,,,,,,,,,,,,,5c0822f550d77a000164d7ce,2020-11-27_15h05.27.052,lexical_decision_task_MP_exp2,2020.2.5,Win32,60,m,1,0.66657,,,,,,,,0.66657,1,,,,,,125,WORD,UN,16,enough,NICKEL,m,,,,,,0.700925926,-0.332407407,0,0,0,,0,264,264,184,1,
,,,,,,,,,,,,,,,,,,5c0822f550d77a000164d7ce,2020-11-27_15h05.27.052,lexical_decision_task_MP_exp2,2020.2.5,Win32,60,z,1,0.65459,,,,,,,,0.65459,1,,,,,,451,NW,"ID",33,cainky,CAINKY,z,,,,,,0.700925926,-0.332407407,0,0,0,,0,265,265,270,1,
,,,,,,,,,,,,,,,,,,5c0822f550d77a000164d7ce,2020-11-27_15h05.27.052,lexical_decision_task_MP_exp2,2020.2.5,Win32,60,z,1,0.75737,,,,,,,,0.75737,1,,,,,,338,NW,UN,33,fachow,WREASH,z,,,,,,0.700925926,-0.332407407,0,0,0,,0,266,266,397,1,
,,,,,,,,,,,,,,,,,,5c0822f550d77a000164d7ce,2020-11-27_15h05.27.052,lexical_decision_task_MP_exp2,2020.2.5,Win32,60,m,1,0.753765,,,,,,,,0.753765,1,,,,,,81,WORD,UN,33,stigma,FRIEND,m,,,,,,0.700925926,-0.332407407,0,0,0,,0,267,267,140,1,
,,,,,,,,,,,,,,,,,,5c0822f550d77a000164d7ce,2020-11-27_15h05.27.052,lexical_decision_task_MP_exp2,2020.2.5,Win32,60,z,1,0.606065,,,,,,,,0.606065,1,,,,,,241,NW,"ID",16,smenco,SMENCO,z,,,,,,0.700925926,-0.332407407,0,0,0,,0,268,268,300,1,
,,,,,,,,,,,,,,,,,,5c0822f550d77a000164d7ce,2020-11-27_15h05.27.052,lexical_decision_task_MP_exp2,2020.2.5,Win32,60,m,1,0.65101,,,,,,,,0.65101,1,,,,,,181,WORD,"ID",33,glance,GLANCE,m,,,,,,0.700925926,-0.332407407,0,0,0,,0,269,269,0,1,
,,,,,,,,,,,,,,,,,,5c0822f550d77a000164d7ce,2020-11-27_15h05.27.052,lexical_decision_task_MP_exp2,2020.2.5,Win32,60,z,1,0.70361,,,,,,,,0.70361,1,,,,,,380,NW,UN,16,huniek,CAVORY,z,,,,,,0.700925926,-0.332407407,0,0,0,,0,270,270,439,1,
,,,,,,,,,,,,,,,,,,5c0822f550d77a000164d7ce,2020-11-27_15h05.27.052,lexical_decision_task_MP_exp2,2020.2.5,Win32,60,m,1,0.61345,,,,,,,,0.61345,1,,,,,,46,WORD,"ID",16,single,SINGLE,m,,,,,,0.700925926,-0.332407407,0,0,0,,0,271,271,105,1,
,,,,,,,,,,,,,,,,,,5c0822f550d77a000164d7ce,2020-11-27_15h05.27.052,lexical_decision_task_MP_exp2,2020.2.5,Win32,60,m,1,0.767365,,,,,,,,0.767365,1,,,,,,185,WORD,"ID",33,bother,BOTHER,m,,,,,,0.700925926,-0.332407407,0,0,0,,0,272,272,4,1,
,,,,,,,,,,,,,,,,,,5c0822f550d77a000164d7ce,2020-11-27_15h05.27.052,lexical_decision_task_MP_exp2,2020.2.5,Win32,60,m,1,0.651295,,,,,,,,0.651295,1,,,,,,113,WORD,UN,33,placid,CHORUS,m,,,,,,0.700925926,-0.332407407,0,0,0,,0,273,273,172,1,
,,,,,,,,,,,,,,,,,,5c0822f550d77a000164d7ce,2020-11-27_15h05.27.052,lexical_decision_task_MP_exp2,2020.2.5,Win32,60,m,0,0.647885,,,,,,,,0.647885,0,,,,,,341,NW,UN,33,randow,MYRTIE,z,,,,,,0.700925926,-0.332407407,0,0,0,,0,274,274,400,1,
,,,,,,,,,,,,,,,,,,5c0822f550d77a000164d7ce,2020-11-27_15h05.27.052,lexical_decision_task_MP_exp2,2020.2.5,Win32,60,m,1,0.5819,,,,,,,,0.5819,1,,,,,,28,WORD,"ID",16,comedy,COMEDY,m,,,,,,0.700925926,-0.332407407,0,0,0,,0,275,275,87,1,
,,,,,,,,,,,,,,,,,,5c0822f550d77a000164d7ce,2020-11-27_15h05.27.052,lexical_decision_task_MP_exp2,2020.2.5,Win32,60,m,1,0.56664,,,,,,,,0.56664,1,,,,,,115,WORD,UN,33,tumble,GUITAR,m,,,,,,0.700925926,-0.332407407,0,0,0,,0,276,276,174,1,
,,,,,,,,,,,,,,,,,,5c0822f550d77a000164d7ce,2020-11-27_15h05.27.052,lexical_decision_task_MP_exp2,2020.2.5,Win32,60,z,1,0.589385,,,,,,,,0.589385,1,,,,,,428,NW,"ID",33,tandly,TANDLY,z,,,,,,0.700925926,-0.332407407,0,0,0,,0,277,277,247,1,
,,,,,,,,,,,,,,,,,,5c0822f550d77a000164d7ce,2020-11-27_15h05.27.052,lexical_decision_task_MP_exp2,2020.2.5,Win32,60,m,1,0.59133,,,,,,,,0.59133,1,,,,,,84,WORD,UN,33,strand,MORTAL,m,,,,,,0.700925926,-0.332407407,0,0,0,,0,278,278,143,1,
,,,,,,,,,,,,,,,,,,5c0822f550d77a000164d7ce,2020-11-27_15h05.27.052,lexical_decision_task_MP_exp2,2020.2.5,Win32,60,m,1,0.61581,,,,,,,,0.61581,1,,,,,,11,WORD,"ID",16,cruise,CRUISE,m,,,,,,0.700925926,-0.332407407,0,0,0,,0,279,279,70,1,
,,,,,,,,,,,,,,,,,,5c0822f550d77a000164d7ce,2020-11-27_15h05.27.052,lexical_decision_task_MP_exp2,2020.2.5,Win32,60,z,1,0.83422,,,,,,,,0.83422,1,,,,,,449,NW,"ID",33,brunge,BRUNGE,z,,,,,,0.700925926,-0.332407407,0,0,0,,0,280,280,268,1,
,,,,,,,,,,,,,,,,,,5c0822f550d77a000164d7ce,2020-11-27_15h05.27.052,lexical_decision_task_MP_exp2,2020.2.5,Win32,60,m,1,0.69965,,,,,,,,0.69965,1,,,,,,24,WORD,"ID",16,praise,PRAISE,m,,,,,,0.700925926,-0.332407407,0,0,0,,0,281,281,83,1,
,,,,,,,,,,,,,,,,,,5c0822f550d77a000164d7ce,2020-11-27_15h05.27.052,lexical_decision_task_MP_exp2,2020.2.5,Win32,60,m,1,0.575875,,,,,,,,0.575875,1,,,,,,231,WORD,"ID",33,export,EXPORT,m,,,,,,0.700925926,-0.332407407,0,0,0,,0,282,282,50,1,
,,,,,,,,,,,,,,,,,,5c0822f550d77a000164d7ce,2020-11-27_15h05.27.052,lexical_decision_task_MP_exp2,2020.2.5,Win32,60,z,1,0.69019,,,,,,,,0.69019,1,,,,,,337,NW,UN,33,wreash,REJOLS,z,,,,,,0.700925926,-0.332407407,0,0,0,,0,283,283,396,1,
,,,,,,,,,,,,,,,,,,5c0822f550d77a000164d7ce,2020-11-27_15h05.27.052,lexical_decision_task_MP_exp2,2020.2.5,Win32,60,m,1,0.62352,,,,,,,,0.62352,1,,,,,,22,WORD,"ID",16,jockey,JOCKEY,m,,,,,,0.700925926,-0.332407407,0,0,0,,0,284,284,81,1,
,,,,,,,,,,,,,,,,,,5c0822f550d77a000164d7ce,2020-11-27_15h05.27.052,lexical_decision_task_MP_exp2,2020.2.5,Win32,60,m,1,0.738075,,,,,,,,0.738075,1,,,,,,194,WORD,"ID",33,absent,ABSENT,m,,,,,,0.700925926,-0.332407407,0,0,0,,0,285,285,13,1,
,,,,,,,,,,,,,,,,,,5c0822f550d77a000164d7ce,2020-11-27_15h05.27.052,lexical_decision_task_MP_exp2,2020.2.5,Win32,60,z,1,0.558215,,,,,,,,0.558215,1,,,,,,446,NW,"ID",33,runamo,RUNAMO,z,,,,,,0.700925926,-0.332407407,0,0,0,,0,286,286,265,1,
,,,,,,,,,,,,,,,,,,5c0822f550d77a000164d7ce,2020-11-27_15h05.27.052,lexical_decision_task_MP_exp2,2020.2.5,Win32,60,z,1,0.81004,,,,,,,,0.81004,1,,,,,,264,NW,"ID",16,vackel,VACKEL,z,,,,,,0.700925926,-0.332407407,0,0,0,,0,287,287,323,1,
,,,,,,,,,,,,,,,,,,5c0822f550d77a000164d7ce,2020-11-27_15h05.27.052,lexical_decision_task_MP_exp2,2020.2.5,Win32,60,m,0,0.71643,,,,,,,,0.71643,0,,,,,,397,NW,UN,16,blunde,CAMBLE,z,,,,,,0.700925926,-0.332407407,0,0,0,,0,288,288,456,1,
,,,,,,,,,,,,,,,,,,5c0822f550d77a000164d7ce,2020-11-27_15h05.27.052,lexical_decision_task_MP_exp2,2020.2.5,Win32,60,z,1,1.007055,,,,,,,,1.007055,1,,,,,,414,NW,UN,16,higsta,SERBOL,z,,,,,,0.700925926,-0.332407407,0,0,0,,0,289,289,473,1,
,,,,,,,,,,,,,,,,,,5c0822f550d77a000164d7ce,2020-11-27_15h05.27.052,lexical_decision_task_MP_exp2,2020.2.5,Win32,60,z,1,0.70573,,,,,,,,0.70573,1,,,,,,353,NW,UN,33,virlex,CLUREY,z,,,,,,0.700925926,-0.332407407,0,0,0,,0,290,290,412,1,
,,,,,,,,,,,,,,,,,,5c0822f550d77a000164d7ce,2020-11-27_15h05.27.052,lexical_decision_task_MP_exp2,2020.2.5,Win32,60,m,1,0.71372,,,,,,,,0.71372,1,,,,,,61,WORD,UN,33,region,PONDER,m,,,,,,0.700925926,-0.332407407,0,0,0,,0,291,291,120,1,
,,,,,,,,,,,,,,,,,,5c0822f550d77a000164d7ce,2020-11-27_15h05.27.052,lexical_decision_task_MP_exp2,2020.2.5,Win32,60,m,1,0.66853,,,,,,,,0.66853,1,,,,,,239,WORD,"ID",33,lumber,LUMBER,m,,,,,,0.700925926,-0.332407407,0,0,0,,0,292,292,58,1,
,,,,,,,,,,,,,,,,,,5c0822f550d77a000164d7ce,2020-11-27_15h05.27.052,lexical_decision_task_MP_exp2,2020.2.5,Win32,60,m,1,0.674835,,,,,,,,0.674835,1,,,,,,107,WORD,UN,33,reckon,SLOGAN,m,,,,,,0.700925926,-0.332407407,0,0,0,,0,293,293,166,1,
,,,,,,,,,,,,,,,,,,5c0822f550d77a000164d7ce,2020-11-27_15h05.27.052,lexical_decision_task_MP_exp2,2020.2.5,Win32,60,z,1,0.60247,,,,,,,,0.60247,1,,,,,,324,NW,UN,33,thruse,STEIKH,z,,,,,,0.700925926,-0.332407407,0,0,0,,0,294,294,383,1,
,,,,,,,,,,,,,,,,,,5c0822f550d77a000164d7ce,2020-11-27_15h05.27.052,lexical_decision_task_MP_exp2,2020.2.5,Win32,60,m,1,1.186335,,,,,,,,1.186335,1,,,,,,102,WORD,UN,33,bounce,DIRECT,m,,,,,,0.700925926,-0.332407407,0,0,0,,0,295,295,161,1,
,,,,,,,,,,,,,,,,,,5c0822f550d77a000164d7ce,2020-11-27_15h05.27.052,lexical_decision_task_MP_exp2,2020.2.5,Win32,60,m,1,0.622525,,,,,,,,0.622525,1,,,,,,26,WORD,"ID",16,sprint,SPRINT,m,,,,,,0.700925926,-0.332407407,0,0,0,,0,296,296,85,1,
,,,,,,,,,,,,,,,,,,5c0822f550d77a000164d7ce,2020-11-27_15h05.27.052,lexical_decision_task_MP_exp2,2020.2.5,Win32,60,m,1,0.591385,,,,,,,,0.591385,1,,,,,,58,WORD,"ID",16,foster,FOSTER,m,,,,,,0.700925926,-0.332407407,0,0,0,,0,297,297,117,1,
,,,,,,,,,,,,,,,,,,5c0822f550d77a000164d7ce,2020-11-27_15h05.27.052,lexical_decision_task_MP_exp2,2020.2.5,Win32,60,z,1,0.777855,,,,,,,,0.777855,1,,,,,,265,NW,"ID",16,distar,DISTAR,z,,,,,,0.700925926,-0.332407407,0,0,0,,0,298,298,324,1,
,,,,,,,,,,,,,,,,,,5c0822f550d77a000164d7ce,2020-11-27_15h05.27.052,lexical_decision_task_MP_exp2,2020.2.5,Win32,60,z,1,0.67574,,,,,,,,0.67574,1,,,,,,394,NW,UN,16,colury,SPAQUX,z,,,,,,0.700925926,-0.332407407,0,0,0,,0,299,299,453,1,
,,,,,,,,,,,,,,,,,,5c0822f550d77a000164d7ce,2020-11-27_15h05.27.052,lexical_decision_task_MP_exp2,2020.2.5,Win32,60,m,1,1.23336,,,,,,,,1.23336,1,,,,,,176,WORD,UN,16,advent,STRIFE,m,,,,,,0.700925926,-0.332407407,0,0,0,,0,300,300,235,1,
,,,,,,,,,,,,,,,,,,5c0822f550d77a000164d7ce,2020-11-27_15h05.27.052,lexical_decision_task_MP_exp2,2020.2.5,Win32,60,z,1,0.676965,,,,,,,,0.676965,1,,,,,,310,NW,UN,33,sproly,DANIET,z,,,,,,0.700925926,-0.332407407,0,0,0,,0,301,301,369,1,
,,,,,,,,,,,,,,,,,,5c0822f550d77a000164d7ce,2020-11-27_15h05.27.052,lexical_decision_task_MP_exp2,2020.2.5,Win32,60,m,1,0.61939,,,,,,,,0.61939,1,,,,,,153,WORD,UN,16,author,BEHOLD,m,,,,,,0.700925926,-0.332407407,0,0,0,,0,302,302,212,1,
,,,,,,,,,,,,,,,,,,5c0822f550d77a000164d7ce,2020-11-27_15h05.27.052,lexical_decision_task_MP_exp2,2020.2.5,Win32,60,z,1,0.78455,,,,,,,,0.78455,1,,,,,,340,NW,UN,33,myrtie,FIATCH,z,,,,,,0.700925926,-0.332407407,0,0,0,,0,303,303,399,1,
,,,,,,,,,,,,,,,,,,5c0822f550d77a000164d7ce,2020-11-27_15h05.27.052,lexical_decision_task_MP_exp2,2020.2.5,Win32,60,m,1,0.70255,,,,,,,,0.70255,1,,,,,,236,WORD,"ID",33,pirate,PIRATE,m,,,,,,0.700925926,-0.332407407,0,0,0,,0,304,304,55,1,
,,,,,,,,,,,,,,,,,,5c0822f550d77a000164d7ce,2020-11-27_15h05.27.052,lexical_decision_task_MP_exp2,2020.2.5,Win32,60,z,1,0.756645,,,,,,,,0.756645,1,,,,,,378,NW,UN,16,auting,SHRILE,z,,,,,,0.700925926,-0.332407407,0,0,0,,0,305,305,437,1,
,,,,,,,,,,,,,,,,,,5c0822f550d77a000164d7ce,2020-11-27_15h05.27.052,lexical_decision_task_MP_exp2,2020.2.5,Win32,60,z,1,0.719125,,,,,,,,0.719125,1,,,,,,439,NW,"ID",33,limpor,LIMPOR,z,,,,,,0.700925926,-0.332407407,0,0,0,,0,306,306,258,1,
,,,,,,,,,,,,,,,,,,5c0822f550d77a000164d7ce,2020-11-27_15h05.27.052,lexical_decision_task_MP_exp2,2020.2.5,Win32,60,m,1,0.600325,,,,,,,,0.600325,1,,,,,,195,WORD,"ID",33,resign,RESIGN,m,,,,,,0.700925926,-0.332407407,0,0,0,,0,307,307,14,1,
,,,,,,,,,,,,,,,,,,5c0822f550d77a000164d7ce,2020-11-27_15h05.27.052,lexical_decision_task_MP_exp2,2020.2.5,Win32,60,z,1,0.702035,,,,,,,,0.702035,1,,,,,,361,NW,UN,16,tireau,PAUCHE,z,,,,,,0.700925926,-0.332407407,0,0,0,,0,308,308,420,1,
,,,,,,,,,,,,,,,,,,5c0822f550d77a000164d7ce,2020-11-27_15h05.27.052,lexical_decision_task_MP_exp2,2020.2.5,Win32,60,z,1,1.557085,,,,,,,,1.557085,1,,,,,,257,NW,"ID",16,veniod,VENIOD,z,,,,,,0.700925926,-0.332407407,0,0,0,,0,309,309,316,1,
,,,,,,,,,,,,,,,,,,5c0822f550d77a000164d7ce,2020-11-27_15h05.27.052,lexical_decision_task_MP_exp2,2020.2.5,Win32,60,m,1,0.823375,,,,,,,,0.823375,1,,,,,,100,WORD,UN,33,wrench,CARBON,m,,,,,,0.700925926,-0.332407407,0,0,0,,0,310,310,159,1,
,,,,,,,,,,,,,,,,,,5c0822f550d77a000164d7ce,2020-11-27_15h05.27.052,lexical_decision_task_MP_exp2,2020.2.5,Win32,60,z,1,1.00086,,,,,,,,1.00086,1,,,,,,357,NW,UN,33,fleack,DERAIN,z,,,,,,0.700925926,-0.332407407,0,0,0,,0,311,311,416,1,
,,,,,,,,,,,,,,,,,,5c0822f550d77a000164d7ce,2020-11-27_15h05.27.052,lexical_decision_task_MP_exp2,2020.2.5,Win32,60,z,1,1.45012,,,,,,,,1.45012,1,,,,,,379,NW,UN,16,cavory,AUTING,z,,,,,,0.700925926,-0.332407407,0,0,0,,0,312,312,438,1,
,,,,,,,,,,,,,,,,,,5c0822f550d77a000164d7ce,2020-11-27_15h05.27.052,lexical_decision_task_MP_exp2,2020.2.5,Win32,60,m,1,1.166125,,,,,,,,1.166125,1,,,,,,166,WORD,UN,16,design,STARCH,m,,,,,,0.700925926,-0.332407407,0,0,0,,0,313,313,225,1,
,,,,,,,,,,,,,,,,,,5c0822f550d77a000164d7ce,2020-11-27_15h05.27.052,lexical_decision_task_MP_exp2,2020.2.5,Win32,60,m,1,0.58459,,,,,,,,0.58459,1,,,,,,53,WORD,"ID",16,police,POLICE,m,,,,,,0.700925926,-0.332407407,0,0,0,,0,314,314,112,1,
,,,,,,,,,,,,,,,,,,5c0822f550d77a000164d7ce,2020-11-27_15h05.27.052,lexical_decision_task_MP_exp2,2020.2.5,Win32,60,z,1,0.57536,,,,,,,,0.57536,1,,,,,,435,NW,"ID",33,impurb,IMPURB,z,,,,,,0.700925926,-0.332407407,0,0,0,,0,315,315,254,1,
,,,,,,,,,,,,,,,,,,5c0822f550d77a000164d7ce,2020-11-27_15h05.27.052,lexical_decision_task_MP_exp2,2020.2.5,Win32,60,m,1,0.99917,,,,,,,,0.99917,1,,,,,,155,WORD,UN,16,cradle,LIZARD,m,,,,,,0.700925926,-0.332407407,0,0,0,,0,316,316,214,1,
,,,,,,,,,,,,,,,,,,5c0822f550d77a000164d7ce,2020-11-27_15h05.27.052,lexical_decision_task_MP_exp2,2020.2.5,Win32,60,z,0,0.548305,,,,,,,,0.548305,0,,,,,,158,WORD,UN,16,detail,ISLAND,m,,,,,,0.700925926,-0.332407407,0,0,0,,0,317,317,217,1,
,,,,,,,,,,,,,,,,,,5c0822f550d77a000164d7ce,2020-11-27_15h05.27.052,lexical_decision_task_MP_exp2,2020.2.5,Win32,60,m,1,0.58549,,,,,,,,0.58549,1,,,,,,186,WORD,"ID",33,portal,PORTAL,m,,,,,,0.700925926,-0.332407407,0,0,0,,0,318,318,5,1,
,,,,,,,,,,,,,,,,,,5c0822f550d77a000164d7ce,2020-11-27_15h05.27.052,lexical_decision_task_MP_exp2,2020.2.5,Win32,60,z,1,0.66676,,,,,,,,0.66676,1,,,,,,253,NW,"ID",16,resait,RESAIT,z,,,,,,0.700925926,-0.332407407,0,0,0,,0,319,319,312,1,
,,,,,,,,,,,,,,,,,,5c0822f550d77a000164d7ce,2020-11-27_15h05.27.052,lexical_decision_task_MP_exp2,2020.2.5,Win32,60,m,1,0.99339,,,,,,,,0.99339,1,,,,,,154,WORD,UN,16,lizard,AUTHOR,m,,,,,,0.700925926,-0.332407407,0,0,0,,0,320,320,213,1,
,,,,,,,,,,,,,,,,,,5c0822f550d77a000164d7ce,2020-11-27_15h05.27.052,lexical_decision_task_MP_exp2,2020.2.5,Win32,60,m,1,0.54799,,,,,,,,0.54799,1,,,,,,121,WORD,UN,16,linger,THRIVE,m,,,,,,0.700925926,-0.332407407,0,0,0,,0,321,321,180,1,
,,,,,,,,,,,,,,,,,,5c0822f550d77a000164d7ce,2020-11-27_15h05.27.052,lexical_decision_task_MP_exp2,2020.2.5,Win32,60,z,1,0.55294,,,,,,,,0.55294,1,,,,,,334,NW,UN,33,desion,WATMEG,z,,,,,,0.700925926,-0.332407407,0,0,0,,0,322,322,393,1,
,,,,,,,,,,,,,,,,,,5c0822f550d77a000164d7ce,2020-11-27_15h05.27.052,lexical_decision_task_MP_exp2,2020.2.5,Win32,60,z,1,0.94087,,,,,,,,0.94087,1,,,,,,402,NW,UN,16,bruats,SYNTIC,z,,,,,,0.700925926,-0.332407407,0,0,0,,0,323,323,461,1,
,,,,,,,,,,,,,,,,,,5c0822f550d77a000164d7ce,2020-11-27_15h05.27.052,lexical_decision_task_MP_exp2,2020.2.5,Win32,60,m,1,0.65177,,,,,,,,0.65177,1,,,,,,99,WORD,UN,33,carbon,FLUENT,m,,,,,,0.700925926,-0.332407407,0,0,0,,0,324,324,158,1,
,,,,,,,,,,,,,,,,,,5c0822f550d77a000164d7ce,2020-11-27_15h05.27.052,lexical_decision_task_MP_exp2,2020.2.5,Win32,60,m,1,0.624725,,,,,,,,0.624725,1,,,,,,19,WORD,"ID",16,patron,PATRON,m,,,,,,0.700925926,-0.332407407,0,0,0,,0,325,325,78,1,
,,,,,,,,,,,,,,,,,,5c0822f550d77a000164d7ce,2020-11-27_15h05.27.052,lexical_decision_task_MP_exp2,2020.2.5,Win32,60,m,1,0.61815,,,,,,,,0.61815,1,,,,,,131,WORD,UN,16,strong,QUENCH,m,,,,,,0.700925926,-0.332407407,0,0,0,,0,326,326,190,1,
,,,,,,,,,,,,,,,,,,5c0822f550d77a000164d7ce,2020-11-27_15h05.27.052,lexical_decision_task_MP_exp2,2020.2.5,Win32,60,z,1,1.037955,,,,,,,,1.037955,1,,,,,,401,NW,UN,16,syntic,MUSTIL,z,,,,,,0.700925926,-0.332407407,0,0,0,,0,327,327,460,1,
,,,,,,,,,,,,,,,,,,5c0822f550d77a000164d7ce,2020-11-27_15h05.27.052,lexical_decision_task_MP_exp2,2020.2.5,Win32,60,z,1,0.68346,,,,,,,,0.68346,1,,,,,,286,NW,"ID",16,reldon,RELDON,z,,,,,,0.700925926,-0.332407407,0,0,0,,0,328,328,345,1,
,,,,,,,,,,,,,,,,,,5c0822f550d77a000164d7ce,2020-11-27_15h05.27.052,lexical_decision_task_MP_exp2,2020.2.5,Win32,60,m,1,0.59991,,,,,,,,0.59991,1,,,,,,165,WORD,UN,16,starch,INVEST,m,,,,,,0.700925926,-0.332407407,0,0,0,,0,329,329,224,1,
,,,,,,,,,,,,,,,,,,5c0822f550d77a000164d7ce,2020-11-27_15h05.27.052,lexical_decision_task_MP_exp2,2020.2.5,Win32,60,m,1,0.70096,,,,,,,,0.70096,1,,,,,,118,WORD,UN,33,spider,FLIGHT,m,,,,,,0.700925926,-0.332407407,0,0,0,,0,330,330,177,1,
,,,,,,,,,,,,,,,,,,5c0822f550d77a000164d7ce,2020-11-27_15h05.27.052,lexical_decision_task_MP_exp2,2020.2.5,Win32,60,z,1,0.634625,,,,,,,,0.634625,1,,,,,,259,NW,"ID",16,soudal,SOUDAL,z,,,,,,0.700925926,-0.332407407,0,0,0,,0,331,331,318,1,
,,,,,,,,,,,,,,,,,,5c0822f550d77a000164d7ce,2020-11-27_15h05.27.052,lexical_decision_task_MP_exp2,2020.2.5,Win32,60,z,1,0.716635,,,,,,,,0.716635,1,,,,,,280,NW,"ID",16,curbol,CURBOL,z,,,,,,0.700925926,-0.332407407,0,0,0,,0,332,332,339,1,
,,,,,,,,,,,,,,,,,,5c0822f550d77a000164d7ce,2020-11-27_15h05.27.052,lexical_decision_task_MP_exp2,2020.2.5,Win32,60,m,1,0.68363,,,,,,,,0.68363,1,,,,,,137,WORD,UN,16,melody,FINGER,m,,,,,,0.700925926,-0.332407407,0,0,0,,0,333,333,196,1,
,,,,,,,,,,,,,,,,,,5c0822f550d77a000164d7ce,2020-11-27_15h05.27.052,lexical_decision_task_MP_exp2,2020.2.5,Win32,60,z,1,0.65034,,,,,,,,0.65034,1,,,,,,377,NW,UN,16,shrile,INJORE,z,,,,,,0.700925926,-0.332407407,0,0,0,,0,334,334,436,1,
,,,,,,,,,,,,,,,,,,5c0822f550d77a000164d7ce,2020-11-27_15h05.27.052,lexical_decision_task_MP_exp2,2020.2.5,Win32,60,z,1,0.601405,,,,,,,,0.601405,1,,,,,,296,NW,"ID",16,beinch,BEINCH,z,,,,,,0.700925926,-0.332407407,0,0,0,,0,335,335,355,1,
,,,,,,,,,,,,,,,,,,5c0822f550d77a000164d7ce,2020-11-27_15h05.27.052,lexical_decision_task_MP_exp2,2020.2.5,Win32,60,m,1,0.56721,,,,,,,,0.56721,1,,,,,,14,WORD,"ID",16,almost,ALMOST,m,,,,,,0.700925926,-0.332407407,0,0,0,,0,336,336,73,1,
,,,,,,,,,,,,,,,,,,5c0822f550d77a000164d7ce,2020-11-27_15h05.27.052,lexical_decision_task_MP_exp2,2020.2.5,Win32,60,z,1,0.600505,,,,,,,,0.600505,1,,,,,,275,NW,"ID",16,sleirt,SLEIRT,z,,,,,,0.700925926,-0.332407407,0,0,0,,0,337,337,334,1,
,,,,,,,,,,,,,,,,,,5c0822f550d77a000164d7ce,2020-11-27_15h05.27.052,lexical_decision_task_MP_exp2,2020.2.5,Win32,60,z,1,0.575705,,,,,,,,0.575705,1,,,,,,479,NW,"ID",33,lobush,LOBUSH,z,,,,,,0.700925926,-0.332407407,0,0,0,,0,338,338,298,1,
,,,,,,,,,,,,,,,,,,5c0822f550d77a000164d7ce,2020-11-27_15h05.27.052,lexical_decision_task_MP_exp2,2020.2.5,Win32,60,m,1,0.56694,,,,,,,,0.56694,1,,,,,,173,WORD,UN,16,turkey,SHOWER,m,,,,,,0.700925926,-0.332407407,0,0,0,,0,339,339,232,1,
,,,,,,,,,,,,,,,,,,5c0822f550d77a000164d7ce,2020-11-27_15h05.27.052,lexical_decision_task_MP_exp2,2020.2.5,Win32,60,z,1,0.58445,,,,,,,,0.58445,1,,,,,,460,NW,"ID",33,mingar,MINGAR,z,,,,,,0.700925926,-0.332407407,0,0,0,,0,340,340,279,1,
,,,,,,,,,,,,,,,,,,5c0822f550d77a000164d7ce,2020-11-27_15h05.27.052,lexical_decision_task_MP_exp2,2020.2.5,Win32,60,m,1,0.5832,,,,,,,,0.5832,1,,,,,,203,WORD,"ID",33,phrase,PHRASE,m,,,,,,0.700925926,-0.332407407,0,0,0,,0,341,341,22,1,
,,,,,,,,,,,,,,,,,,5c0822f550d77a000164d7ce,2020-11-27_15h05.27.052,lexical_decision_task_MP_exp2,2020.2.5,Win32,60,z,1,0.53386,,,,,,,,0.53386,1,,,,,,429,NW,"ID",33,funtle,FUNTLE,z,,,,,,0.700925926,-0.332407407,0,0,0,,0,342,342,248,1,
,,,,,,,,,,,,,,,,,,5c0822f550d77a000164d7ce,2020-11-27_15h05.27.052,lexical_decision_task_MP_exp2,2020.2.5,Win32,60,m,1,0.634045,,,,,,,,0.634045,1,,,,,,70,WORD,UN,33,garden,SQUARE,m,,,,,,0.700925926,-0.332407407,0,0,0,,0,343,343,129,1,
,,,,,,,,,,,,,,,,,,5c0822f550d77a000164d7ce,2020-11-27_15h05.27.052,lexical_decision_task_MP_exp2,2020.2.5,Win32,60,z,1,0.60136,,,,,,,,0.60136,1,,,,,,362,NW,UN,16,breali,TIREAU,z,,,,,,0.700925926,-0.332407407,0,0,0,,0,344,344,421,1,
,,,,,,,,,,,,,,,,,,5c0822f550d77a000164d7ce,2020-11-27_15h05.27.052,lexical_decision_task_MP_exp2,2020.2.5,Win32,60,z,1,0.593145,,,,,,,,0.593145,1,,,,,,276,NW,"ID",16,yarmon,YARMON,z,,,,,,0.700925926,-0.332407407,0,0,0,,0,345,345,335,1,
,,,,,,,,,,,,,,,,,,5c0822f550d77a000164d7ce,2020-11-27_15h05.27.052,lexical_decision_task_MP_exp2,2020.2.5,Win32,60,m,1,0.56159,,,,,,,,0.56159,1,,,,,,63,WORD,UN,33,throne,LAUNCH,m,,,,,,0.700925926,-0.332407407,0,0,0,,0,346,346,122,1,
,,,,,,,,,,,,,,,,,,5c0822f550d77a000164d7ce,2020-11-27_15h05.27.052,lexical_decision_task_MP_exp2,2020.2.5,Win32,60,m,1,0.525705,,,,,,,,0.525705,1,,,,,,143,WORD,UN,16,sponge,REASON,m,,,,,,0.700925926,-0.332407407,0,0,0,,0,347,347,202,1,
,,,,,,,,,,,,,,,,,,5c0822f550d77a000164d7ce,2020-11-27_15h05.27.052,lexical_decision_task_MP_exp2,2020.2.5,Win32,60,m,1,0.600035,,,,,,,,0.600035,1,,,,,,124,WORD,UN,16,nickel,BLOUSE,m,,,,,,0.700925926,-0.332407407,0,0,0,,0,348,348,183,1,
,,,,,,,,,,,,,,,,,,5c0822f550d77a000164d7ce,2020-11-27_15h05.27.052,lexical_decision_task_MP_exp2,2020.2.5,Win32,60,m,1,0.58464,,,,,,,,0.58464,1,,,,,,3,WORD,"ID",16,knight,KNIGHT,m,,,,,,0.700925926,-0.332407407,0,0,0,,0,349,349,62,1,
,,,,,,,,,,,,,,,,,,5c0822f550d77a000164d7ce,2020-11-27_15h05.27.052,lexical_decision_task_MP_exp2,2020.2.5,Win32,60,m,1,0.53426,,,,,,,,0.53426,1,,,,,,138,WORD,UN,16,debris,MELODY,m,,,,,,0.700925926,-0.332407407,0,0,0,,0,350,350,197,1,
,,,,,,,,,,,,,,,,,,5c0822f550d77a000164d7ce,2020-11-27_15h05.27.052,lexical_decision_task_MP_exp2,2020.2.5,Win32,60,m,1,0.485135,,,,,,,,0.485135,1,,,,,,88,WORD,UN,33,permit,HUNGER,m,,,,,,0.700925926,-0.332407407,0,0,0,,0,351,351,147,1,
,,,,,,,,,,,,,,,,,,5c0822f550d77a000164d7ce,2020-11-27_15h05.27.052,lexical_decision_task_MP_exp2,2020.2.5,Win32,60,z,1,0.583485,,,,,,,,0.583485,1,,,,,,347,NW,UN,33,dumple,KERIFT,z,,,,,,0.700925926,-0.332407407,0,0,0,,0,352,352,406,1,
,,,,,,,,,,,,,,,,,,5c0822f550d77a000164d7ce,2020-11-27_15h05.27.052,lexical_decision_task_MP_exp2,2020.2.5,Win32,60,z,1,0.80412,,,,,,,,0.80412,1,,,,,,343,NW,UN,33,scrily,AIMOSY,z,,,,,,0.700925926,-0.332407407,0,0,0,,0,353,353,402,1,
,,,,,,,,,,,,,,,,,,5c0822f550d77a000164d7ce,2020-11-27_15h05.27.052,lexical_decision_task_MP_exp2,2020.2.5,Win32,60,z,1,0.73453,,,,,,,,0.73453,1,,,,,,248,NW,"ID",16,strole,STROLE,z,,,,,,0.700925926,-0.332407407,0,0,0,,0,354,354,307,1,
,,,,,,,,,,,,,,,,,,5c0822f550d77a000164d7ce,2020-11-27_15h05.27.052,lexical_decision_task_MP_exp2,2020.2.5,Win32,60,m,1,0.68391,,,,,,,,0.68391,1,,,,,,111,WORD,UN,33,breath,INDUCE,m,,,,,,0.700925926,-0.332407407,0,0,0,,0,355,355,170,1,
,,,,,,,,,,,,,,,,,,5c0822f550d77a000164d7ce,2020-11-27_15h05.27.052,lexical_decision_task_MP_exp2,2020.2.5,Win32,60,m,1,0.617075,,,,,,,,0.617075,1,,,,,,83,WORD,UN,33,mortal,RESULT,m,,,,,,0.700925926,-0.332407407,0,0,0,,0,356,356,142,1,
,,,,,,,,,,,,,,,,,,5c0822f550d77a000164d7ce,2020-11-27_15h05.27.052,lexical_decision_task_MP_exp2,2020.2.5,Win32,60,z,1,0.5762,,,,,,,,0.5762,1,,,,,,447,NW,"ID",33,gircue,GIRCUE,z,,,,,,0.700925926,-0.332407407,0,0,0,,0,357,357,266,1,
,,,,,,,,,,,,,,,,,,5c0822f550d77a000164d7ce,2020-11-27_15h05.27.052,lexical_decision_task_MP_exp2,2020.2.5,Win32,60,m,1,0.700205,,,,,,,,0.700205,1,,,,,,23,WORD,"ID",16,wealth,WEALTH,m,,,,,,0.700925926,-0.332407407,0,0,0,,0,358,358,82,1,
,,,,,,,,,,,,,,,,,,5c0822f550d77a000164d7ce,2020-11-27_15h05.27.052,lexical_decision_task_MP_exp2,2020.2.5,Win32,60,m,1,0.640845,,,,,,,,0.640845,1,,,,,,129,WORD,UN,16,stupid,MARVEL,m,,,,,,0.700925926,-0.332407407,0,0,0,,0,359,359,188,1,
,,,,,,,,,,,,,,,,,,5c0822f550d77a000164d7ce,2020-11-27_15h05.27.052,lexical_decision_task_MP_exp2,2020.2.5,Win32,60,m,1,0.60125,,,,,,,,0.60125,1,,,,,,103,WORD,UN,33,studio,BOUNCE,m,,,,,,0.700925926,-0.332407407,0,0,0,,0,360,360,162,1,
,,,,,,,,,,,,,,,,,,5c0822f550d77a000164d7ce,2020-11-27_15h05.27.052,lexical_decision_task_MP_exp2,2020.2.5,Win32,60,m,1,0.634335,,,,,,,,0.634335,1,,,,,,31,WORD,"ID",16,weapon,WEAPON,m,,,,,,0.700925926,-0.332407407,0,0,0,,0,361,361,90,1,
,,,,,,,,,,,,,,,,,,5c0822f550d77a000164d7ce,2020-11-27_15h05.27.052,lexical_decision_task_MP_exp2,2020.2.5,Win32,60,z,1,0.83337,,,,,,,,0.83337,1,,,,,,425,NW,"ID",33,frudge,FRUDGE,z,,,,,,-0.272222222,0.325925926,0,0,0,space,0,362,362,244,1,21.625265
,,,,,,,,,,,,,,,,,,5c0822f550d77a000164d7ce,2020-11-27_15h05.27.052,lexical_decision_task_MP_exp2,2020.2.5,Win32,60,z,1,1.71847,,,,,,,,1.71847,1,,,,,,389,NW,UN,16,hatrus,WITMER,z,,,,,,-0.272222222,0.325925926,0,0,0,,0,363,363,448,1,
,,,,,,,,,,,,,,,,,,5c0822f550d77a000164d7ce,2020-11-27_15h05.27.052,lexical_decision_task_MP_exp2,2020.2.5,Win32,60,m,1,0.55095,,,,,,,,0.55095,1,,,,,,227,WORD,"ID",33,seldom,SELDOM,m,,,,,,-0.272222222,0.325925926,0,0,0,,0,364,364,46,1,
,,,,,,,,,,,,,,,,,,5c0822f550d77a000164d7ce,2020-11-27_15h05.27.052,lexical_decision_task_MP_exp2,2020.2.5,Win32,60,z,1,0.731415,,,,,,,,0.731415,1,,,,,,399,NW,UN,16,wearox,FOURET,z,,,,,,-0.272222222,0.325925926,0,0,0,,0,365,365,458,1,
,,,,,,,,,,,,,,,,,,5c0822f550d77a000164d7ce,2020-11-27_15h05.27.052,lexical_decision_task_MP_exp2,2020.2.5,Win32,60,z,0,0.932505,,,,,,,,0.932505,0,,,,,,25,WORD,"ID",16,domain,DOMAIN,m,,,,,,-0.272222222,0.325925926,0,0,0,,0,366,366,84,1,
,,,,,,,,,,,,,,,,,,5c0822f550d77a000164d7ce,2020-11-27_15h05.27.052,lexical_decision_task_MP_exp2,2020.2.5,Win32,60,z,1,0.568155,,,,,,,,0.568155,1,,,,,,441,NW,"ID",33,rastoe,RASTOE,z,,,,,,-0.272222222,0.325925926,0,0,0,,0,367,367,260,1,
,,,,,,,,,,,,,,,,,,5c0822f550d77a000164d7ce,2020-11-27_15h05.27.052,lexical_decision_task_MP_exp2,2020.2.5,Win32,60,z,1,0.52546,,,,,,,,0.52546,1,,,,,,407,NW,UN,16,hurnia,SUIVER,z,,,,,,-0.272222222,0.325925926,0,0,0,,0,368,368,466,1,
,,,,,,,,,,,,,,,,,,5c0822f550d77a000164d7ce,2020-11-27_15h05.27.052,lexical_decision_task_MP_exp2,2020.2.5,Win32,60,z,1,0.539165,,,,,,,,0.539165,1,,,,,,252,NW,"ID",16,stapod,STAPOD,z,,,,,,-0.272222222,0.325925926,0,0,0,,0,369,369,311,1,
,,,,,,,,,,,,,,,,,,5c0822f550d77a000164d7ce,2020-11-27_15h05.27.052,lexical_decision_task_MP_exp2,2020.2.5,Win32,60,z,1,0.519685,,,,,,,,0.519685,1,,,,,,323,NW,UN,33,steikh,ROSAIL,z,,,,,,-0.272222222,0.325925926,0,0,0,,0,370,370,382,1,
,,,,,,,,,,,,,,,,,,5c0822f550d77a000164d7ce,2020-11-27_15h05.27.052,lexical_decision_task_MP_exp2,2020.2.5,Win32,60,m,1,0.49062,,,,,,,,0.49062,1,,,,,,206,WORD,"ID",33,tailor,TAILOR,m,,,,,,-0.272222222,0.325925926,0,0,0,,0,371,371,25,1,
,,,,,,,,,,,,,,,,,,5c0822f550d77a000164d7ce,2020-11-27_15h05.27.052,lexical_decision_task_MP_exp2,2020.2.5,Win32,60,m,1,0.5705,,,,,,,,0.5705,1,,,,,,114,WORD,UN,33,guitar,PLACID,m,,,,,,-0.272222222,0.325925926,0,0,0,,0,372,372,173,1,
,,,,,,,,,,,,,,,,,,5c0822f550d77a000164d7ce,2020-11-27_15h05.27.052,lexical_decision_task_MP_exp2,2020.2.5,Win32,60,z,1,0.74078,,,,,,,,0.74078,1,,,,,,322,NW,UN,33,rosail,SLANCH,z,,,,,,-0.272222222,0.325925926,0,0,0,,0,373,373,381,1,
,,,,,,,,,,,,,,,,,,5c0822f550d77a000164d7ce,2020-11-27_15h05.27.052,lexical_decision_task_MP_exp2,2020.2.5,Win32,60,m,1,0.76866,,,,,,,,0.76866,1,,,,,,218,WORD,"ID",33,shrink,SHRINK,m,,,,,,-0.272222222,0.325925926,0,0,0,,0,374,374,37,1,
,,,,,,,,,,,,,,,,,,5c0822f550d77a000164d7ce,2020-11-27_15h05.27.052,lexical_decision_task_MP_exp2,2020.2.5,Win32,60,m,1,0.722635,,,,,,,,0.722635,1,,,,,,16,WORD,"ID",16,faucet,FAUCET,m,,,,,,-0.272222222,0.325925926,0,0,0,,0,375,375,75,1,
,,,,,,,,,,,,,,,,,,5c0822f550d77a000164d7ce,2020-11-27_15h05.27.052,lexical_decision_task_MP_exp2,2020.2.5,Win32,60,z,1,0.54563,,,,,,,,0.54563,1,,,,,,350,NW,UN,33,tiesch,NAGURS,z,,,,,,-0.272222222,0.325925926,0,0,0,,0,376,376,409,1,
,,,,,,,,,,,,,,,,,,5c0822f550d77a000164d7ce,2020-11-27_15h05.27.052,lexical_decision_task_MP_exp2,2020.2.5,Win32,60,m,1,0.605375,,,,,,,,0.605375,1,,,,,,215,WORD,"ID",33,phobia,PHOBIA,m,,,,,,-0.272222222,0.325925926,0,0,0,,0,377,377,34,1,
,,,,,,,,,,,,,,,,,,5c0822f550d77a000164d7ce,2020-11-27_15h05.27.052,lexical_decision_task_MP_exp2,2020.2.5,Win32,60,z,1,0.5735,,,,,,,,0.5735,1,,,,,,328,NW,UN,33,yarike,BROAKE,z,,,,,,-0.272222222,0.325925926,0,0,0,,0,378,378,387,1,
,,,,,,,,,,,,,,,,,,5c0822f550d77a000164d7ce,2020-11-27_15h05.27.052,lexical_decision_task_MP_exp2,2020.2.5,Win32,60,m,1,0.553275,,,,,,,,0.553275,1,,,,,,200,WORD,"ID",33,beacon,BEACON,m,,,,,,-0.272222222,0.325925926,0,0,0,,0,379,379,19,1,
,,,,,,,,,,,,,,,,,,5c0822f550d77a000164d7ce,2020-11-27_15h05.27.052,lexical_decision_task_MP_exp2,2020.2.5,Win32,60,z,0,0.748405,,,,,,,,0.748405,0,,,,,,197,WORD,"ID",33,stream,STREAM,m,,,,,,-0.272222222,0.325925926,0,0,0,,0,380,380,16,1,
,,,,,,,,,,,,,,,,,,5c0822f550d77a000164d7ce,2020-11-27_15h05.27.052,lexical_decision_task_MP_exp2,2020.2.5,Win32,60,m,1,0.60643,,,,,,,,0.60643,1,,,,,,144,WORD,UN,16,parish,SPONGE,m,,,,,,-0.272222222,0.325925926,0,0,0,,0,381,381,203,1,
,,,,,,,,,,,,,,,,,,5c0822f550d77a000164d7ce,2020-11-27_15h05.27.052,lexical_decision_task_MP_exp2,2020.2.5,Win32,60,m,1,0.52224,,,,,,,,0.52224,1,,,,,,52,WORD,"ID",16,impose,IMPOSE,m,,,,,,-0.272222222,0.325925926,0,0,0,,0,382,382,111,1,
,,,,,,,,,,,,,,,,,,5c0822f550d77a000164d7ce,2020-11-27_15h05.27.052,lexical_decision_task_MP_exp2,2020.2.5,Win32,60,m,1,0.485045,,,,,,,,0.485045,1,,,,,,193,WORD,"ID",33,object,OBJECT,m,,,,,,-0.272222222,0.325925926,0,0,0,,0,383,383,12,1,
,,,,,,,,,,,,,,,,,,5c0822f550d77a000164d7ce,2020-11-27_15h05.27.052,lexical_decision_task_MP_exp2,2020.2.5,Win32,60,m,1,0.54037,,,,,,,,0.54037,1,,,,,,156,WORD,UN,16,depart,CRADLE,m,,,,,,-0.272222222,0.325925926,0,0,0,,0,384,384,215,1,
,,,,,,,,,,,,,,,,,,5c0822f550d77a000164d7ce,2020-11-27_15h05.27.052,lexical_decision_task_MP_exp2,2020.2.5,Win32,60,z,0,0.56624,,,,,,,,0.56624,0,,,,,,40,WORD,"ID",16,convey,CONVEY,m,,,,,,-0.272222222,0.325925926,0,0,0,,0,385,385,99,1,
,,,,,,,,,,,,,,,,,,5c0822f550d77a000164d7ce,2020-11-27_15h05.27.052,lexical_decision_task_MP_exp2,2020.2.5,Win32,60,z,1,0.78896,,,,,,,,0.78896,1,,,,,,478,NW,"ID",33,acrise,ACRISE,z,,,,,,-0.272222222,0.325925926,0,0,0,,0,386,386,297,1,
,,,,,,,,,,,,,,,,,,5c0822f550d77a000164d7ce,2020-11-27_15h05.27.052,lexical_decision_task_MP_exp2,2020.2.5,Win32,60,m,1,0.59107,,,,,,,,0.59107,1,,,,,,36,WORD,"ID",16,vanish,VANISH,m,,,,,,-0.272222222,0.325925926,0,0,0,,0,387,387,95,1,
,,,,,,,,,,,,,,,,,,5c0822f550d77a000164d7ce,2020-11-27_15h05.27.052,lexical_decision_task_MP_exp2,2020.2.5,Win32,60,z,1,0.6841,,,,,,,,0.6841,1,,,,,,405,NW,UN,16,nouply,FLUMNI,z,,,,,,-0.272222222,0.325925926,0,0,0,,0,388,388,464,1,
,,,,,,,,,,,,,,,,,,5c0822f550d77a000164d7ce,2020-11-27_15h05.27.052,lexical_decision_task_MP_exp2,2020.2.5,Win32,60,z,1,0.67973,,,,,,,,0.67973,1,,,,,,308,NW,UN,33,amiloy,PSETCH,z,,,,,,-0.272222222,0.325925926,0,0,0,,0,389,389,367,1,
,,,,,,,,,,,,,,,,,,5c0822f550d77a000164d7ce,2020-11-27_15h05.27.052,lexical_decision_task_MP_exp2,2020.2.5,Win32,60,z,1,0.6143,,,,,,,,0.6143,1,,,,,,382,NW,UN,16,aungre,SARLEY,z,,,,,,-0.272222222,0.325925926,0,0,0,,0,390,390,441,1,
,,,,,,,,,,,,,,,,,,5c0822f550d77a000164d7ce,2020-11-27_15h05.27.052,lexical_decision_task_MP_exp2,2020.2.5,Win32,60,z,1,0.60722,,,,,,,,0.60722,1,,,,,,351,NW,UN,33,tringe,TIESCH,z,,,,,,-0.272222222,0.325925926,0,0,0,,0,391,391,410,1,
,,,,,,,,,,,,,,,,,,5c0822f550d77a000164d7ce,2020-11-27_15h05.27.052,lexical_decision_task_MP_exp2,2020.2.5,Win32,60,z,1,0.56122,,,,,,,,0.56122,1,,,,,,307,NW,UN,33,psetch,KIRAFE,z,,,,,,-0.272222222,0.325925926,0,0,0,,0,392,392,366,1,
,,,,,,,,,,,,,,,,,,5c0822f550d77a000164d7ce,2020-11-27_15h05.27.052,lexical_decision_task_MP_exp2,2020.2.5,Win32,60,z,1,0.557035,,,,,,,,0.557035,1,,,,,,283,NW,"ID",16,veralf,VERALF,z,,,,,,-0.272222222,0.325925926,0,0,0,,0,393,393,342,1,
,,,,,,,,,,,,,,,,,,5c0822f550d77a000164d7ce,2020-11-27_15h05.27.052,lexical_decision_task_MP_exp2,2020.2.5,Win32,60,m,1,0.49938,,,,,,,,0.49938,1,,,,,,174,WORD,UN,16,fabric,TURKEY,m,,,,,,-0.272222222,0.325925926,0,0,0,,0,394,394,233,1,
