counterbalancing_condition,instr_done_keyboard.keys,instr_done_touch.x,instr_done_touch.y,instr_done_touch.leftButton,instr_done_touch.midButton,instr_done_touch.rightButton,instr_done_touch.clicked_name,instruction_pages.thisRepN,instruction_pages.thisTrialN,instruction_pages.thisN,instruction_pages.thisIndex,instruction_pages.ran,pageN,phase,instruct_text,has_image,instruct_image,participant,date,expName,psychopyVersion,OS,frameRate,response.keys,response.corr,response.rt,touch_resp.x,touch_resp.y,touch_resp.leftButton,touch_resp.midButton,touch_resp.rightButton,touch_resp.time,touch_resp.clicked_name,rt,corr,practice_trials.thisRepN,practice_trials.thisTrialN,practice_trials.thisN,practice_trials.thisIndex,practice_trials.ran,TrialID,StimulusType,Condition,PrimeDuration,Prime,Target,corrAns,end_of_practice_trials_pages.thisRepN,end_of_practice_trials_pages.thisTrialN,end_of_practice_trials_pages.thisN,end_of_practice_trials_pages.thisIndex,end_of_practice_trials_pages.ran,break_done_touch.x,break_done_touch.y,break_done_touch.leftButton,break_done_touch.midButton,break_done_touch.rightButton,break_done_keyboard.keys,trials.thisRepN,trials.thisTrialN,trials.thisN,trials.thisIndex,trials.ran
2,,0.033854167,-0.42578125,1,0,0,instr_done_button,0,0,0,0,1,1,instructions,"INSTRUCTIONS
At the start of each trial, look at the hash marks (######) in the center of the screen. After a moment, a string of letters will appear. Your task is to indicate if the letter string forms a word or not (i.e., if it is a nonword). For example, AUTHOR is a word while AUTHON is a nonword.

Press the space bar or touch the button below to continue.",0,,5c4c488a620ba700010c054d,2020-11-25_16h36.49.552,lexical_decision_task_MP_exp2,2020.2.5,Win32,60,,,,,,,,,,,,,,,,,,,,,,,,,,,,,,,,,,,,,,,,
,,0.033854167,-0.42578125,1,0,0,instr_done_button,0,1,1,1,1,2,instructions,"If your device has a keyboard, press the 'Z' key for nonwords and the 'M' key for words.





Press the space bar or touch the button below to continue.",1,keyboard-example.gif,5c4c488a620ba700010c054d,2020-11-25_16h36.49.552,lexical_decision_task_MP_exp2,2020.2.5,Win32,60,,,,,,,,,,,,,,,,,,,,,,,,,,,,,,,,,,,,,,,,
,,0.033854167,-0.42578125,1,0,0,instr_done_button,0,2,2,2,1,3,instructions,"If you are using a touchscreen only device, use the buttons on the screen. Do not use the mouse.





Press the space bar or touch the button below to continue.",1,touchscreen-example.gif,5c4c488a620ba700010c054d,2020-11-25_16h36.49.552,lexical_decision_task_MP_exp2,2020.2.5,Win32,60,,,,,,,,,,,,,,,,,,,,,,,,,,,,,,,,,,,,,,,,
,,0.033854167,-0.42578125,1,0,0,instr_done_button,0,3,3,3,1,4,instructions,"It is very important that you respond as quickly and accurately as possible, as each letter string will only be on the screen for two seconds. If you do not respond within this time, the message 'Too slow!' will be displayed and the experiment will progress to the next letter string. The first 20 trials will be practice trials and you will receive feedback on your answers. 

Press the space bar or touch the button below to start the practice trials.",0,,5c4c488a620ba700010c054d,2020-11-25_16h36.49.552,lexical_decision_task_MP_exp2,2020.2.5,Win32,60,,,,,,,,,,,,,,,,,,,,,,,,,,,,,,,,,,,,,,,,
,,,,,,,,,,,,,,,,,,5c4c488a620ba700010c054d,2020-11-25_16h36.49.552,lexical_decision_task_MP_exp2,2020.2.5,Win32,60,m,1,1.966205,,,,,,,,1.966205,1,0,0,0,1,1,1002,WORD,"ID",33,adjust,ADJUST,m,,,,,,,,,,,,,,,,
,,,,,,,,,,,,,,,,,,5c4c488a620ba700010c054d,2020-11-25_16h36.49.552,lexical_decision_task_MP_exp2,2020.2.5,Win32,60,z,1,1.290925,,,,,,,,1.290925,1,0,1,1,9,1,1010,NW,"ID",33,fariny,FARINY,z,,,,,,,,,,,,,,,,
,,,,,,,,,,,,,,,,,,5c4c488a620ba700010c054d,2020-11-25_16h36.49.552,lexical_decision_task_MP_exp2,2020.2.5,Win32,60,z,1,0.921065,,,,,,,,0.921065,1,0,2,2,10,1,1011,NW,"ID",16,inlade,INLADE,z,,,,,,,,,,,,,,,,
,,,,,,,,,,,,,,,,,,5c4c488a620ba700010c054d,2020-11-25_16h36.49.552,lexical_decision_task_MP_exp2,2020.2.5,Win32,60,z,1,1.072255,,,,,,,,1.072255,1,0,3,3,12,1,1013,NW,UN,33,adveil,SPRINY,z,,,,,,,,,,,,,,,,
,,,,,,,,,,,,,,,,,,5c4c488a620ba700010c054d,2020-11-25_16h36.49.552,lexical_decision_task_MP_exp2,2020.2.5,Win32,60,m,1,0.78828,,,,,,,,0.78828,1,0,4,4,3,1,1004,WORD,"ID",16,matrix,MATRIX,m,,,,,,,,,,,,,,,,
,,,,,,,,,,,,,,,,,,5c4c488a620ba700010c054d,2020-11-25_16h36.49.552,lexical_decision_task_MP_exp2,2020.2.5,Win32,60,z,0,0.582715,,,,,,,,0.582715,0,0,5,5,0,1,1001,WORD,"ID",33,utopia,UTOPIA,m,,,,,,,,,,,,,,,,
,,,,,,,,,,,,,,,,,,5c4c488a620ba700010c054d,2020-11-25_16h36.49.552,lexical_decision_task_MP_exp2,2020.2.5,Win32,60,m,1,0.56733,,,,,,,,0.56733,1,0,6,6,7,1,1008,WORD,UN,16,hurdle,VOLUME,m,,,,,,,,,,,,,,,,
,,,,,,,,,,,,,,,,,,5c4c488a620ba700010c054d,2020-11-25_16h36.49.552,lexical_decision_task_MP_exp2,2020.2.5,Win32,60,z,1,0.956855,,,,,,,,0.956855,1,0,7,7,14,1,1015,NW,UN,16,miaber,THRALE,z,,,,,,,,,,,,,,,,
,,,,,,,,,,,,,,,,,,5c4c488a620ba700010c054d,2020-11-25_16h36.49.552,lexical_decision_task_MP_exp2,2020.2.5,Win32,60,z,1,0.84729,,,,,,,,0.84729,1,0,8,8,13,1,1014,NW,UN,33,winfer,ROUPET,z,,,,,,,,,,,,,,,,
,,,,,,,,,,,,,,,,,,5c4c488a620ba700010c054d,2020-11-25_16h36.49.552,lexical_decision_task_MP_exp2,2020.2.5,Win32,60,m,1,0.663305,,,,,,,,0.663305,1,0,9,9,6,1,1007,WORD,UN,16,tropic,ZOMBIE,m,,,,,,,,,,,,,,,,
,,,,,,,,,,,,,,,,,,5c4c488a620ba700010c054d,2020-11-25_16h36.49.552,lexical_decision_task_MP_exp2,2020.2.5,Win32,60,m,1,0.61488,,,,,,,,0.61488,1,0,10,10,4,1,1005,WORD,UN,33,abound,SQUEAK,m,,,,,,,,,,,,,,,,
,,,,,,,,,,,,,,,,,,5c4c488a620ba700010c054d,2020-11-25_16h36.49.552,lexical_decision_task_MP_exp2,2020.2.5,Win32,60,m,1,0.714805,,,,,,,,0.714805,1,0,11,11,5,1,1006,WORD,UN,33,frenzy,OBTAIN,m,,,,,,,,,,,,,,,,
,,,,,,,,,,,,,,,,,,5c4c488a620ba700010c054d,2020-11-25_16h36.49.552,lexical_decision_task_MP_exp2,2020.2.5,Win32,60,z,1,0.77196,,,,,,,,0.77196,1,0,12,12,8,1,1009,NW,"ID",33,aslert,ASLERT,z,,,,,,,,,,,,,,,,
,,,,,,,,,,,,,,,,,,5c4c488a620ba700010c054d,2020-11-25_16h36.49.552,lexical_decision_task_MP_exp2,2020.2.5,Win32,60,m,1,0.697555,,,,,,,,0.697555,1,0,13,13,2,1,1003,WORD,"ID",16,almond,ALMOND,m,,,,,,,,,,,,,,,,
,,,,,,,,,,,,,,,,,,5c4c488a620ba700010c054d,2020-11-25_16h36.49.552,lexical_decision_task_MP_exp2,2020.2.5,Win32,60,m,0,0.981255,,,,,,,,0.981255,0,0,14,14,15,1,1016,NW,UN,16,mushed,WHAISE,z,,,,,,,,,,,,,,,,
,,,,,,,,,,,,,,,,,,5c4c488a620ba700010c054d,2020-11-25_16h36.49.552,lexical_decision_task_MP_exp2,2020.2.5,Win32,60,z,1,0.734735,,,,,,,,0.734735,1,0,15,15,11,1,1012,NW,"ID",16,rashet,RASHET,z,,,,,,,,,,,,,,,,
,,-0.022135417,-0.440104167,1,0,0,instr_done_button,,,,,,1,end_of_practice,"You have completed the practice trials. During the experimental trials, you will not receive feedback, but it is very important that you respond as quickly and accurately as possible. 
Before you begin, please ensure that you are in a comfortable and quiet location and will not be disturbed for about 15 minutes, as we cannot use your data if you do not complete all the trials. 
There will be opportunities to take breaks at regular intervals during the experiment. When you are ready to start the experimental trials, please press space or touch the button below.",,,5c4c488a620ba700010c054d,2020-11-25_16h36.49.552,lexical_decision_task_MP_exp2,2020.2.5,Win32,60,,,,,,,,,,,,,,,,,,,,,,,,,0,0,0,0,1,,,,,,,,,,,
,,,,,,,,,,,,,,,,,,5c4c488a620ba700010c054d,2020-11-25_16h36.49.552,lexical_decision_task_MP_exp2,2020.2.5,Win32,60,m,1,0.988745,,,,,,,,0.988745,1,,,,,,60,WORD,UN,16,fright,PENCIL,m,,,,,,-0.022135417,-0.440104167,0,0,0,,0,0,0,239,1
,,,,,,,,,,,,,,,,,,5c4c488a620ba700010c054d,2020-11-25_16h36.49.552,lexical_decision_task_MP_exp2,2020.2.5,Win32,60,m,1,1.265755,,,,,,,,1.265755,1,,,,,,183,WORD,UN,33,sleazy,MILDEW,m,,,,,,-0.022135417,-0.440104167,0,0,0,,0,1,1,122,1
,,,,,,,,,,,,,,,,,,5c4c488a620ba700010c054d,2020-11-25_16h36.49.552,lexical_decision_task_MP_exp2,2020.2.5,Win32,60,m,1,1.2487,,,,,,,,1.2487,1,,,,,,19,WORD,UN,16,breast,PATRON,m,,,,,,-0.022135417,-0.440104167,0,0,0,,0,2,2,198,1
,,,,,,,,,,,,,,,,,,5c4c488a620ba700010c054d,2020-11-25_16h36.49.552,lexical_decision_task_MP_exp2,2020.2.5,Win32,60,z,1,0.99857,,,,,,,,0.99857,1,,,,,,305,NW,"ID",33,forgle,FORGLE,z,,,,,,-0.022135417,-0.440104167,0,0,0,,0,3,3,244,1
,,,,,,,,,,,,,,,,,,5c4c488a620ba700010c054d,2020-11-25_16h36.49.552,lexical_decision_task_MP_exp2,2020.2.5,Win32,60,z,1,0.96526,,,,,,,,0.96526,1,,,,,,412,NW,"ID",16,jiluer,JILUER,z,,,,,,-0.022135417,-0.440104167,0,0,0,,0,4,4,351,1
,,,,,,,,,,,,,,,,,,5c4c488a620ba700010c054d,2020-11-25_16h36.49.552,lexical_decision_task_MP_exp2,2020.2.5,Win32,60,m,1,1.297,,,,,,,,1.297,1,,,,,,131,WORD,"ID",16,quench,QUENCH,m,,,,,,-0.022135417,-0.440104167,0,0,0,,0,5,5,70,1
,,,,,,,,,,,,,,,,,,5c4c488a620ba700010c054d,2020-11-25_16h36.49.552,lexical_decision_task_MP_exp2,2020.2.5,Win32,60,z,1,1.52285,,,,,,,,1.52285,1,,,,,,272,NW,UN,16,sortel,DAMILT,z,,,,,,-0.022135417,-0.440104167,0,0,0,,0,6,6,451,1
,,,,,,,,,,,,,,,,,,5c4c488a620ba700010c054d,2020-11-25_16h36.49.552,lexical_decision_task_MP_exp2,2020.2.5,Win32,60,m,1,0.81443,,,,,,,,0.81443,1,,,,,,47,WORD,UN,16,walnut,INCOME,m,,,,,,-0.022135417,-0.440104167,0,0,0,,0,7,7,226,1
,,,,,,,,,,,,,,,,,,5c4c488a620ba700010c054d,2020-11-25_16h36.49.552,lexical_decision_task_MP_exp2,2020.2.5,Win32,60,m,1,0.791005,,,,,,,,0.791005,1,,,,,,211,WORD,UN,33,verify,INFECT,m,,,,,,-0.022135417,-0.440104167,0,0,0,,0,8,8,150,1
,,,,,,,,,,,,,,,,,,5c4c488a620ba700010c054d,2020-11-25_16h36.49.552,lexical_decision_task_MP_exp2,2020.2.5,Win32,60,m,1,0.63572,,,,,,,,0.63572,1,,,,,,192,WORD,UN,33,object,PLAGUE,m,,,,,,-0.022135417,-0.440104167,0,0,0,,0,9,9,131,1
,,,,,,,,,,,,,,,,,,5c4c488a620ba700010c054d,2020-11-25_16h36.49.552,lexical_decision_task_MP_exp2,2020.2.5,Win32,60,m,0,0.797485,,,,,,,,0.797485,0,,,,,,248,NW,UN,16,batrol,STROLE,z,,,,,,-0.022135417,-0.440104167,0,0,0,,0,10,10,427,1
,,,,,,,,,,,,,,,,,,5c4c488a620ba700010c054d,2020-11-25_16h36.49.552,lexical_decision_task_MP_exp2,2020.2.5,Win32,60,z,1,1.115035,,,,,,,,1.115035,1,,,,,,428,NW,UN,33,funtle,TANDLY,z,,,,,,-0.022135417,-0.440104167,0,0,0,,0,11,11,367,1
,,,,,,,,,,,,,,,,,,5c4c488a620ba700010c054d,2020-11-25_16h36.49.552,lexical_decision_task_MP_exp2,2020.2.5,Win32,60,m,1,0.575955,,,,,,,,0.575955,1,,,,,,193,WORD,UN,33,mildew,OBJECT,m,,,,,,-0.022135417,-0.440104167,0,0,0,,0,12,12,132,1
,,,,,,,,,,,,,,,,,,5c4c488a620ba700010c054d,2020-11-25_16h36.49.552,lexical_decision_task_MP_exp2,2020.2.5,Win32,60,m,1,0.553215,,,,,,,,0.553215,1,,,,,,174,WORD,"ID",16,turkey,TURKEY,m,,,,,,-0.022135417,-0.440104167,0,0,0,,0,13,13,113,1
,,,,,,,,,,,,,,,,,,5c4c488a620ba700010c054d,2020-11-25_16h36.49.552,lexical_decision_task_MP_exp2,2020.2.5,Win32,60,z,1,1.272025,,,,,,,,1.272025,1,,,,,,388,NW,"ID",16,cragin,CRAGIN,z,,,,,,-0.022135417,-0.440104167,0,0,0,,0,14,14,327,1
,,,,,,,,,,,,,,,,,,5c4c488a620ba700010c054d,2020-11-25_16h36.49.552,lexical_decision_task_MP_exp2,2020.2.5,Win32,60,m,1,0.86513,,,,,,,,0.86513,1,,,,,,102,WORD,"ID",33,direct,DIRECT,m,,,,,,-0.022135417,-0.440104167,0,0,0,,0,15,15,41,1
,,,,,,,,,,,,,,,,,,5c4c488a620ba700010c054d,2020-11-25_16h36.49.552,lexical_decision_task_MP_exp2,2020.2.5,Win32,60,m,1,0.50886,,,,,,,,0.50886,1,,,,,,78,WORD,"ID",33,column,COLUMN,m,,,,,,-0.022135417,-0.440104167,0,0,0,,0,16,16,17,1
,,,,,,,,,,,,,,,,,,5c4c488a620ba700010c054d,2020-11-25_16h36.49.552,lexical_decision_task_MP_exp2,2020.2.5,Win32,60,z,1,0.93147,,,,,,,,0.93147,1,,,,,,268,NW,UN,16,orchet,PACKES,z,,,,,,-0.022135417,-0.440104167,0,0,0,,0,17,17,447,1
,,,,,,,,,,,,,,,,,,5c4c488a620ba700010c054d,2020-11-25_16h36.49.552,lexical_decision_task_MP_exp2,2020.2.5,Win32,60,m,1,0.97129,,,,,,,,0.97129,1,,,,,,138,WORD,"ID",16,melody,MELODY,m,,,,,,-0.022135417,-0.440104167,0,0,0,,0,18,18,77,1
,,,,,,,,,,,,,,,,,,5c4c488a620ba700010c054d,2020-11-25_16h36.49.552,lexical_decision_task_MP_exp2,2020.2.5,Win32,60,m,1,0.680505,,,,,,,,0.680505,1,,,,,,41,WORD,UN,16,chapel,SPRING,m,,,,,,-0.022135417,-0.440104167,0,0,0,,0,19,19,220,1
,,,,,,,,,,,,,,,,,,5c4c488a620ba700010c054d,2020-11-25_16h36.49.552,lexical_decision_task_MP_exp2,2020.2.5,Win32,60,m,1,0.964255,,,,,,,,0.964255,1,,,,,,114,WORD,"ID",33,placid,PLACID,m,,,,,,-0.022135417,-0.440104167,0,0,0,,0,20,20,53,1
,,,,,,,,,,,,,,,,,,5c4c488a620ba700010c054d,2020-11-25_16h36.49.552,lexical_decision_task_MP_exp2,2020.2.5,Win32,60,m,1,0.56607,,,,,,,,0.56607,1,,,,,,6,WORD,UN,16,anchor,BUNDLE,m,,,,,,-0.022135417,-0.440104167,0,0,0,,0,21,21,185,1
,,,,,,,,,,,,,,,,,,5c4c488a620ba700010c054d,2020-11-25_16h36.49.552,lexical_decision_task_MP_exp2,2020.2.5,Win32,60,z,1,0.896955,,,,,,,,0.896955,1,,,,,,290,NW,UN,16,pretch,SPLINO,z,,,,,,-0.022135417,-0.440104167,0,0,0,,0,22,22,469,1
,,,,,,,,,,,,,,,,,,5c4c488a620ba700010c054d,2020-11-25_16h36.49.552,lexical_decision_task_MP_exp2,2020.2.5,Win32,60,m,0,1.00263,,,,,,,,1.00263,0,,,,,,247,NW,UN,16,strole,BLARGE,z,,,,,,-0.022135417,-0.440104167,0,0,0,,0,23,23,426,1
,,,,,,,,,,,,,,,,,,5c4c488a620ba700010c054d,2020-11-25_16h36.49.552,lexical_decision_task_MP_exp2,2020.2.5,Win32,60,z,0,1.508475,,,,,,,,1.508475,0,,,,,,93,WORD,"ID",33,public,PUBLIC,m,,,,,,-0.022135417,-0.440104167,0,0,0,,0,24,24,32,1
,,,,,,,,,,,,,,,,,,5c4c488a620ba700010c054d,2020-11-25_16h36.49.552,lexical_decision_task_MP_exp2,2020.2.5,Win32,60,m,0,1.784905,,,,,,,,1.784905,0,,,,,,379,NW,"ID",16,auting,AUTING,z,,,,,,-0.022135417,-0.440104167,0,0,0,,0,25,25,318,1
,,,,,,,,,,,,,,,,,,5c4c488a620ba700010c054d,2020-11-25_16h36.49.552,lexical_decision_task_MP_exp2,2020.2.5,Win32,60,m,1,0.81442,,,,,,,,0.81442,1,,,,,,194,WORD,UN,33,resign,ABSENT,m,,,,,,-0.022135417,-0.440104167,0,0,0,,0,26,26,133,1
,,,,,,,,,,,,,,,,,,5c4c488a620ba700010c054d,2020-11-25_16h36.49.552,lexical_decision_task_MP_exp2,2020.2.5,Win32,60,m,1,0.568885,,,,,,,,0.568885,1,,,,,,224,WORD,UN,33,vulgar,PERIOD,m,,,,,,-0.022135417,-0.440104167,0,0,0,,0,27,27,163,1
,,,,,,,,,,,,,,,,,,5c4c488a620ba700010c054d,2020-11-25_16h36.49.552,lexical_decision_task_MP_exp2,2020.2.5,Win32,60,z,1,1.13113,,,,,,,,1.13113,1,,,,,,475,NW,UN,33,josted,PEBRIC,z,,,,,,-0.022135417,-0.440104167,0,0,0,,0,28,28,414,1
,,,,,,,,,,,,,,,,,,5c4c488a620ba700010c054d,2020-11-25_16h36.49.552,lexical_decision_task_MP_exp2,2020.2.5,Win32,60,z,1,0.65671,,,,,,,,0.65671,1,,,,,,479,NW,UN,33,crible,LOBUSH,z,,,,,,-0.022135417,-0.440104167,0,0,0,,0,29,29,418,1
,,,,,,,,,,,,,,,,,,5c4c488a620ba700010c054d,2020-11-25_16h36.49.552,lexical_decision_task_MP_exp2,2020.2.5,Win32,60,z,1,0.709395,,,,,,,,0.709395,1,,,,,,312,NW,"ID",33,nerawl,NERAWL,z,,,,,,-0.022135417,-0.440104167,0,0,0,,0,30,30,251,1
,,,,,,,,,,,,,,,,,,5c4c488a620ba700010c054d,2020-11-25_16h36.49.552,lexical_decision_task_MP_exp2,2020.2.5,Win32,60,m,1,0.95481,,,,,,,,0.95481,1,,,,,,84,WORD,"ID",33,mortal,MORTAL,m,,,,,,-0.022135417,-0.440104167,0,0,0,,0,31,31,23,1
,,,,,,,,,,,,,,,,,,5c4c488a620ba700010c054d,2020-11-25_16h36.49.552,lexical_decision_task_MP_exp2,2020.2.5,Win32,60,,0,,,,,,,,,0.95481,-1,,,,,,460,NW,UN,33,justre,MINGAR,z,,,,,,-0.022135417,-0.440104167,0,0,0,,0,32,32,399,1
,,,,,,,,,,,,,,,,,,5c4c488a620ba700010c054d,2020-11-25_16h36.49.552,lexical_decision_task_MP_exp2,2020.2.5,Win32,60,z,1,0.855745,,,,,,,,0.855745,1,,,,,,452,NW,UN,33,bolvis,SURDEN,z,,,,,,-0.022135417,-0.440104167,0,0,0,,0,33,33,391,1
,,,,,,,,,,,,,,,,,,5c4c488a620ba700010c054d,2020-11-25_16h36.49.552,lexical_decision_task_MP_exp2,2020.2.5,Win32,60,z,1,0.606115,,,,,,,,0.606115,1,,,,,,313,NW,"ID",33,paurse,PAURSE,z,,,,,,-0.022135417,-0.440104167,0,0,0,,0,34,34,252,1
,,,,,,,,,,,,,,,,,,5c4c488a620ba700010c054d,2020-11-25_16h36.49.552,lexical_decision_task_MP_exp2,2020.2.5,Win32,60,z,1,0.734265,,,,,,,,0.734265,1,,,,,,456,NW,UN,33,wanigh,BROGET,z,,,,,,-0.022135417,-0.440104167,0,0,0,,0,35,35,395,1
,,,,,,,,,,,,,,,,,,5c4c488a620ba700010c054d,2020-11-25_16h36.49.552,lexical_decision_task_MP_exp2,2020.2.5,Win32,60,m,1,0.810215,,,,,,,,0.810215,1,,,,,,79,WORD,"ID",33,theory,THEORY,m,,,,,,-0.022135417,-0.440104167,0,0,0,,0,36,36,18,1
,,,,,,,,,,,,,,,,,,5c4c488a620ba700010c054d,2020-11-25_16h36.49.552,lexical_decision_task_MP_exp2,2020.2.5,Win32,60,z,0,0.78107,,,,,,,,0.78107,0,,,,,,66,WORD,"ID",33,gospel,GOSPEL,m,,,,,,-0.022135417,-0.440104167,0,0,0,,0,37,37,5,1
,,,,,,,,,,,,,,,,,,5c4c488a620ba700010c054d,2020-11-25_16h36.49.552,lexical_decision_task_MP_exp2,2020.2.5,Win32,60,z,1,0.81409,,,,,,,,0.81409,1,,,,,,256,NW,UN,16,veniod,INLORS,z,,,,,,-0.022135417,-0.440104167,0,0,0,,0,38,38,435,1
,,,,,,,,,,,,,,,,,,5c4c488a620ba700010c054d,2020-11-25_16h36.49.552,lexical_decision_task_MP_exp2,2020.2.5,Win32,60,m,1,0.91746,,,,,,,,0.91746,1,,,,,,231,WORD,UN,33,inject,EXPORT,m,,,,,,-0.022135417,-0.440104167,0,0,0,,0,39,39,170,1
,,,,,,,,,,,,,,,,,,5c4c488a620ba700010c054d,2020-11-25_16h36.49.552,lexical_decision_task_MP_exp2,2020.2.5,Win32,60,z,1,0.82066,,,,,,,,0.82066,1,,,,,,244,NW,UN,16,anougs,EATRIC,z,,,,,,-0.022135417,-0.440104167,0,0,0,,0,40,40,423,1
,,,,,,,,,,,,,,,,,,5c4c488a620ba700010c054d,2020-11-25_16h36.49.552,lexical_decision_task_MP_exp2,2020.2.5,Win32,60,m,1,1.011925,,,,,,,,1.011925,1,,,,,,1,WORD,UN,16,ethnic,FRIGHT,m,,,,,,-0.022135417,-0.440104167,0,0,0,,0,41,41,180,1
,,,,,,,,,,,,,,,,,,5c4c488a620ba700010c054d,2020-11-25_16h36.49.552,lexical_decision_task_MP_exp2,2020.2.5,Win32,60,z,1,0.969885,,,,,,,,0.969885,1,,,,,,288,NW,UN,16,starby,YACEUP,z,,,,,,-0.022135417,-0.440104167,0,0,0,,0,42,42,467,1
,,,,,,,,,,,,,,,,,,5c4c488a620ba700010c054d,2020-11-25_16h36.49.552,lexical_decision_task_MP_exp2,2020.2.5,Win32,60,z,1,0.991765,,,,,,,,0.991765,1,,,,,,399,NW,"ID",16,fouret,FOURET,z,,,,,,-0.022135417,-0.440104167,0,0,0,,0,43,43,338,1
,,,,,,,,,,,,,,,,,,5c4c488a620ba700010c054d,2020-11-25_16h36.49.552,lexical_decision_task_MP_exp2,2020.2.5,Win32,60,z,1,1.73041,,,,,,,,1.73041,1,,,,,,260,NW,UN,16,stunch,UNJECT,z,,,,,,-0.022135417,-0.440104167,0,0,0,,0,44,44,439,1
,,,,,,,,,,,,,,,,,,5c4c488a620ba700010c054d,2020-11-25_16h36.49.552,lexical_decision_task_MP_exp2,2020.2.5,Win32,60,z,1,1.12247,,,,,,,,1.12247,1,,,,,,304,NW,"ID",33,cludie,CLUDIE,z,,,,,,-0.022135417,-0.440104167,0,0,0,,0,45,45,243,1
,,,,,,,,,,,,,,,,,,5c4c488a620ba700010c054d,2020-11-25_16h36.49.552,lexical_decision_task_MP_exp2,2020.2.5,Win32,60,m,1,0.675855,,,,,,,,0.675855,1,,,,,,39,WORD,UN,16,convey,INSECT,m,,,,,,-0.022135417,-0.440104167,0,0,0,,0,46,46,218,1
,,,,,,,,,,,,,,,,,,5c4c488a620ba700010c054d,2020-11-25_16h36.49.552,lexical_decision_task_MP_exp2,2020.2.5,Win32,60,z,1,0.73511,,,,,,,,0.73511,1,,,,,,361,NW,"ID",16,pauche,PAUCHE,z,,,,,,-0.022135417,-0.440104167,0,0,0,,0,47,47,300,1
,,,,,,,,,,,,,,,,,,5c4c488a620ba700010c054d,2020-11-25_16h36.49.552,lexical_decision_task_MP_exp2,2020.2.5,Win32,60,z,1,0.659785,,,,,,,,0.659785,1,,,,,,406,NW,"ID",16,nouply,NOUPLY,z,,,,,,-0.022135417,-0.440104167,0,0,0,,0,48,48,345,1
,,,,,,,,,,,,,,,,,,5c4c488a620ba700010c054d,2020-11-25_16h36.49.552,lexical_decision_task_MP_exp2,2020.2.5,Win32,60,m,1,0.82429,,,,,,,,0.82429,1,,,,,,16,WORD,UN,16,charge,FAUCET,m,,,,,,-0.022135417,-0.440104167,0,0,0,,0,49,49,195,1
,,,,,,,,,,,,,,,,,,5c4c488a620ba700010c054d,2020-11-25_16h36.49.552,lexical_decision_task_MP_exp2,2020.2.5,Win32,60,z,1,0.953795,,,,,,,,0.953795,1,,,,,,439,NW,UN,33,saride,LIMPOR,z,,,,,,-0.022135417,-0.440104167,0,0,0,,0,50,50,378,1
,,,,,,,,,,,,,,,,,,5c4c488a620ba700010c054d,2020-11-25_16h36.49.552,lexical_decision_task_MP_exp2,2020.2.5,Win32,60,z,1,1.024185,,,,,,,,1.024185,1,,,,,,255,NW,UN,16,inlors,APIGHT,z,,,,,,-0.022135417,-0.440104167,0,0,0,,0,51,51,434,1
,,,,,,,,,,,,,,,,,,5c4c488a620ba700010c054d,2020-11-25_16h36.49.552,lexical_decision_task_MP_exp2,2020.2.5,Win32,60,m,1,0.67137,,,,,,,,0.67137,1,,,,,,221,WORD,UN,33,hinder,MASCOT,m,,,,,,-0.022135417,-0.440104167,0,0,0,,0,52,52,160,1
,,,,,,,,,,,,,,,,,,5c4c488a620ba700010c054d,2020-11-25_16h36.49.552,lexical_decision_task_MP_exp2,2020.2.5,Win32,60,m,1,0.981205,,,,,,,,0.981205,1,,,,,,218,WORD,UN,33,bucket,SHRINK,m,,,,,,-0.022135417,-0.440104167,0,0,0,,0,53,53,157,1
,,,,,,,,,,,,,,,,,,5c4c488a620ba700010c054d,2020-11-25_16h36.49.552,lexical_decision_task_MP_exp2,2020.2.5,Win32,60,m,1,0.88555,,,,,,,,0.88555,1,,,,,,215,WORD,UN,33,lumber,PHOBIA,m,,,,,,-0.022135417,-0.440104167,0,0,0,,0,54,54,154,1
,,,,,,,,,,,,,,,,,,5c4c488a620ba700010c054d,2020-11-25_16h36.49.552,lexical_decision_task_MP_exp2,2020.2.5,Win32,60,z,1,1.057905,,,,,,,,1.057905,1,,,,,,461,NW,UN,33,absult,JUSTRE,z,,,,,,-0.022135417,-0.440104167,0,0,0,,0,55,55,400,1
,,,,,,,,,,,,,,,,,,5c4c488a620ba700010c054d,2020-11-25_16h36.49.552,lexical_decision_task_MP_exp2,2020.2.5,Win32,60,m,1,0.652935,,,,,,,,0.652935,1,,,,,,179,WORD,"ID",16,basket,BASKET,m,,,,,,-0.022135417,-0.440104167,0,0,0,,0,56,56,118,1
,,,,,,,,,,,,,,,,,,5c4c488a620ba700010c054d,2020-11-25_16h36.49.552,lexical_decision_task_MP_exp2,2020.2.5,Win32,60,m,1,1.181455,,,,,,,,1.181455,1,,,,,,134,WORD,"ID",16,staple,STAPLE,m,,,,,,-0.022135417,-0.440104167,0,0,0,,0,57,57,73,1
,,,,,,,,,,,,,,,,,,5c4c488a620ba700010c054d,2020-11-25_16h36.49.552,lexical_decision_task_MP_exp2,2020.2.5,Win32,60,m,0,0.907265,,,,,,,,0.907265,0,,,,,,245,NW,UN,16,piaton,ANOUGS,z,,,,,,-0.022135417,-0.440104167,0,0,0,,0,58,58,424,1
,,,,,,,,,,,,,,,,,,5c4c488a620ba700010c054d,2020-11-25_16h36.49.552,lexical_decision_task_MP_exp2,2020.2.5,Win32,60,m,1,0.658495,,,,,,,,0.658495,1,,,,,,109,WORD,"ID",33,wonder,WONDER,m,,,,,,-0.022135417,-0.440104167,0,0,0,,0,59,59,48,1
,,,,,,,,,,,,,,,,,,5c4c488a620ba700010c054d,2020-11-25_16h36.49.552,lexical_decision_task_MP_exp2,2020.2.5,Win32,60,z,1,0.88025,,,,,,,,0.88025,1,,,,,,441,NW,UN,33,aboune,RASTOE,z,,,,,,-0.022135417,-0.440104167,0,0,0,,0,60,60,380,1
,,,,,,,,,,,,,,,,,,5c4c488a620ba700010c054d,2020-11-25_16h36.49.552,lexical_decision_task_MP_exp2,2020.2.5,Win32,60,z,0,0.573075,,,,,,,,0.573075,0,,,,,,13,WORD,UN,16,almost,STRIVE,m,,,,,,-0.022135417,-0.440104167,0,0,0,,0,61,61,192,1
,,,,,,,,,,,,,,,,,,5c4c488a620ba700010c054d,2020-11-25_16h36.49.552,lexical_decision_task_MP_exp2,2020.2.5,Win32,60,m,1,0.688325,,,,,,,,0.688325,1,,,,,,11,WORD,UN,16,amount,CRUISE,m,,,,,,-0.022135417,-0.440104167,0,0,0,,0,62,62,190,1
,,,,,,,,,,,,,,,,,,5c4c488a620ba700010c054d,2020-11-25_16h36.49.552,lexical_decision_task_MP_exp2,2020.2.5,Win32,60,m,1,0.57232,,,,,,,,0.57232,1,,,,,,73,WORD,"ID",33,source,SOURCE,m,,,,,,-0.022135417,-0.440104167,0,0,0,,0,63,63,12,1
,,,,,,,,,,,,,,,,,,5c4c488a620ba700010c054d,2020-11-25_16h36.49.552,lexical_decision_task_MP_exp2,2020.2.5,Win32,60,z,1,1.09017,,,,,,,,1.09017,1,,,,,,303,NW,"ID",33,fiream,FIREAM,z,,,,,,-0.022135417,-0.440104167,0,0,0,,0,64,64,242,1
,,,,,,,,,,,,,,,,,,5c4c488a620ba700010c054d,2020-11-25_16h36.49.552,lexical_decision_task_MP_exp2,2020.2.5,Win32,60,z,1,1.42357,,,,,,,,1.42357,1,,,,,,324,NW,"ID",33,steikh,STEIKH,z,,,,,,-0.022135417,-0.440104167,0,0,0,,0,65,65,263,1
,,,,,,,,,,,,,,,,,,5c4c488a620ba700010c054d,2020-11-25_16h36.49.552,lexical_decision_task_MP_exp2,2020.2.5,Win32,60,z,1,1.26392,,,,,,,,1.26392,1,,,,,,469,NW,UN,33,crudio,PADIFS,z,,,,,,-0.022135417,-0.440104167,0,0,0,,0,66,66,408,1
,,,,,,,,,,,,,,,,,,5c4c488a620ba700010c054d,2020-11-25_16h36.49.552,lexical_decision_task_MP_exp2,2020.2.5,Win32,60,z,1,0.65193,,,,,,,,0.65193,1,,,,,,478,NW,UN,33,pebric,ACRISE,z,,,,,,-0.022135417,-0.440104167,0,0,0,,0,67,67,417,1
,,,,,,,,,,,,,,,,,,5c4c488a620ba700010c054d,2020-11-25_16h36.49.552,lexical_decision_task_MP_exp2,2020.2.5,Win32,60,z,1,0.51493,,,,,,,,0.51493,1,,,,,,317,NW,"ID",33,worbal,WORBAL,z,,,,,,-0.022135417,-0.440104167,0,0,0,,0,68,68,256,1
,,,,,,,,,,,,,,,,,,5c4c488a620ba700010c054d,2020-11-25_16h36.49.552,lexical_decision_task_MP_exp2,2020.2.5,Win32,60,z,1,0.665,,,,,,,,0.665,1,,,,,,364,NW,"ID",16,impote,IMPOTE,z,,,,,,-0.022135417,-0.440104167,0,0,0,,0,69,69,303,1
,,,,,,,,,,,,,,,,,,5c4c488a620ba700010c054d,2020-11-25_16h36.49.552,lexical_decision_task_MP_exp2,2020.2.5,Win32,60,m,0,0.97265,,,,,,,,0.97265,0,,,,,,367,NW,"ID",16,slique,SLIQUE,z,,,,,,-0.022135417,-0.440104167,0,0,0,,0,70,70,306,1
,,,,,,,,,,,,,,,,,,5c4c488a620ba700010c054d,2020-11-25_16h36.49.552,lexical_decision_task_MP_exp2,2020.2.5,Win32,60,m,1,0.58151,,,,,,,,0.58151,1,,,,,,180,WORD,"ID",16,silent,SILENT,m,,,,,,-0.022135417,-0.440104167,0,0,0,,0,71,71,119,1
,,,,,,,,,,,,,,,,,,5c4c488a620ba700010c054d,2020-11-25_16h36.49.552,lexical_decision_task_MP_exp2,2020.2.5,Win32,60,m,1,0.55656,,,,,,,,0.55656,1,,,,,,26,WORD,UN,16,butler,SPRINT,m,,,,,,-0.022135417,-0.440104167,0,0,0,,0,72,72,205,1
,,,,,,,,,,,,,,,,,,5c4c488a620ba700010c054d,2020-11-25_16h36.49.552,lexical_decision_task_MP_exp2,2020.2.5,Win32,60,m,0,0.81476,,,,,,,,0.81476,0,,,,,,382,NW,"ID",16,sarley,SARLEY,z,,,,,,-0.022135417,-0.440104167,0,0,0,,0,73,73,321,1
,,,,,,,,,,,,,,,,,,5c4c488a620ba700010c054d,2020-11-25_16h36.49.552,lexical_decision_task_MP_exp2,2020.2.5,Win32,60,m,1,0.864685,,,,,,,,0.864685,1,,,,,,189,WORD,UN,33,backup,CENSOR,m,,,,,,-0.022135417,-0.440104167,0,0,0,,0,74,74,128,1
,,,,,,,,,,,,,,,,,,5c4c488a620ba700010c054d,2020-11-25_16h36.49.552,lexical_decision_task_MP_exp2,2020.2.5,Win32,60,m,1,0.51562,,,,,,,,0.51562,1,,,,,,147,WORD,"ID",16,garlic,GARLIC,m,,,,,,-0.022135417,-0.440104167,0,0,0,,0,75,75,86,1
,,,,,,,,,,,,,,,,,,5c4c488a620ba700010c054d,2020-11-25_16h36.49.552,lexical_decision_task_MP_exp2,2020.2.5,Win32,60,m,1,0.85236,,,,,,,,0.85236,1,,,,,,77,WORD,"ID",33,racket,RACKET,m,,,,,,-0.022135417,-0.440104167,0,0,0,,0,76,76,16,1
,,,,,,,,,,,,,,,,,,5c4c488a620ba700010c054d,2020-11-25_16h36.49.552,lexical_decision_task_MP_exp2,2020.2.5,Win32,60,m,0,0.692175,,,,,,,,0.692175,0,,,,,,421,NW,UN,33,alcoud,KNISMA,z,,,,,,-0.022135417,-0.440104167,0,0,0,,0,77,77,360,1
,,,,,,,,,,,,,,,,,,5c4c488a620ba700010c054d,2020-11-25_16h36.49.552,lexical_decision_task_MP_exp2,2020.2.5,Win32,60,z,1,0.620635,,,,,,,,0.620635,1,,,,,,321,NW,"ID",33,miator,MIATOR,z,,,,,,-0.022135417,-0.440104167,0,0,0,,0,78,78,260,1
,,,,,,,,,,,,,,,,,,5c4c488a620ba700010c054d,2020-11-25_16h36.49.552,lexical_decision_task_MP_exp2,2020.2.5,Win32,60,m,1,0.865465,,,,,,,,0.865465,1,,,,,,123,WORD,"ID",16,strike,STRIKE,m,,,,,,-0.022135417,-0.440104167,0,0,0,,0,79,79,62,1
,,,,,,,,,,,,,,,,,,5c4c488a620ba700010c054d,2020-11-25_16h36.49.552,lexical_decision_task_MP_exp2,2020.2.5,Win32,60,z,1,0.7336,,,,,,,,0.7336,1,,,,,,381,NW,"ID",16,huniek,HUNIEK,z,,,,,,-0.022135417,-0.440104167,0,0,0,,0,80,80,320,1
,,,,,,,,,,,,,,,,,,5c4c488a620ba700010c054d,2020-11-25_16h36.49.552,lexical_decision_task_MP_exp2,2020.2.5,Win32,60,m,1,1.079,,,,,,,,1.079,1,,,,,,25,WORD,UN,16,sprint,DOMAIN,m,,,,,,-0.022135417,-0.440104167,0,0,0,,0,81,81,204,1
,,,,,,,,,,,,,,,,,,5c4c488a620ba700010c054d,2020-11-25_16h36.49.552,lexical_decision_task_MP_exp2,2020.2.5,Win32,60,,0,,,,,,,,,1.079,-1,,,,,,375,NW,"ID",16,yorque,YORQUE,z,,,,,,-0.022135417,-0.440104167,0,0,0,,0,82,82,314,1
,,,,,,,,,,,,,,,,,,5c4c488a620ba700010c054d,2020-11-25_16h36.49.552,lexical_decision_task_MP_exp2,2020.2.5,Win32,60,m,1,0.947285,,,,,,,,0.947285,1,,,,,,214,WORD,UN,33,phobia,INTAKE,m,,,,,,-0.022135417,-0.440104167,0,0,0,,0,83,83,153,1
,,,,,,,,,,,,,,,,,,5c4c488a620ba700010c054d,2020-11-25_16h36.49.552,lexical_decision_task_MP_exp2,2020.2.5,Win32,60,m,0,1.633525,,,,,,,,1.633525,0,,,,,,326,NW,"ID",33,iguade,IGUADE,z,,,,,,-0.022135417,-0.440104167,0,0,0,,0,84,84,265,1
,,,,,,,,,,,,,,,,,,5c4c488a620ba700010c054d,2020-11-25_16h36.49.552,lexical_decision_task_MP_exp2,2020.2.5,Win32,60,m,1,0.76601,,,,,,,,0.76601,1,,,,,,117,WORD,"ID",33,branch,BRANCH,m,,,,,,-0.022135417,-0.440104167,0,0,0,,0,85,85,56,1
,,,,,,,,,,,,,,,,,,5c4c488a620ba700010c054d,2020-11-25_16h36.49.552,lexical_decision_task_MP_exp2,2020.2.5,Win32,60,m,1,0.559005,,,,,,,,0.559005,1,,,,,,43,WORD,UN,16,foster,TONGUE,m,,,,,,-0.022135417,-0.440104167,0,0,0,,0,86,86,222,1
,,,,,,,,,,,,,,,,,,5c4c488a620ba700010c054d,2020-11-25_16h36.49.552,lexical_decision_task_MP_exp2,2020.2.5,Win32,60,m,1,0.50879,,,,,,,,0.50879,1,,,,,,144,WORD,"ID",16,sponge,SPONGE,m,,,,,,-0.022135417,-0.440104167,0,0,0,,0,87,87,83,1
,,,,,,,,,,,,,,,,,,5c4c488a620ba700010c054d,2020-11-25_16h36.49.552,lexical_decision_task_MP_exp2,2020.2.5,Win32,60,m,1,0.665185,,,,,,,,0.665185,1,,,,,,103,WORD,"ID",33,bounce,BOUNCE,m,,,,,,-0.022135417,-0.440104167,0,0,0,,0,88,88,42,1
,,,,,,,,,,,,,,,,,,5c4c488a620ba700010c054d,2020-11-25_16h36.49.552,lexical_decision_task_MP_exp2,2020.2.5,Win32,60,,0,,,,,,,,,0.665185,-1,,,,,,242,NW,UN,16,musied,UNWERT,z,,,,,,-0.022135417,-0.440104167,0,0,0,,0,89,89,421,1
,,,,,,,,,,,,,,,,,,5c4c488a620ba700010c054d,2020-11-25_16h36.49.552,lexical_decision_task_MP_exp2,2020.2.5,Win32,60,z,1,0.416495,,,,,,,,0.416495,1,,,,,,453,NW,UN,33,scouge,BOLVIS,z,,,,,,-0.022135417,-0.440104167,0,0,0,,0,90,90,392,1
,,,,,,,,,,,,,,,,,,5c4c488a620ba700010c054d,2020-11-25_16h36.49.552,lexical_decision_task_MP_exp2,2020.2.5,Win32,60,m,1,1.931095,,,,,,,,1.931095,1,,,,,,37,WORD,UN,16,powder,INSULT,m,,,,,,-0.022135417,-0.440104167,0,0,0,,0,91,91,216,1
,,,,,,,,,,,,,,,,,,5c4c488a620ba700010c054d,2020-11-25_16h36.49.552,lexical_decision_task_MP_exp2,2020.2.5,Win32,60,z,1,0.65745,,,,,,,,0.65745,1,,,,,,414,NW,"ID",16,serbol,SERBOL,z,,,,,,-0.022135417,-0.440104167,0,0,0,,0,92,92,353,1
,,,,,,,,,,,,,,,,,,5c4c488a620ba700010c054d,2020-11-25_16h36.49.552,lexical_decision_task_MP_exp2,2020.2.5,Win32,60,z,1,0.759645,,,,,,,,0.759645,1,,,,,,301,NW,"ID",33,fainch,FAINCH,z,,,,,,-0.022135417,-0.440104167,0,0,0,,0,93,93,240,1
,,,,,,,,,,,,,,,,,,5c4c488a620ba700010c054d,2020-11-25_16h36.49.552,lexical_decision_task_MP_exp2,2020.2.5,Win32,60,m,1,0.80603,,,,,,,,0.80603,1,,,,,,36,WORD,UN,16,insult,VANISH,m,,,,,,-0.022135417,-0.440104167,0,0,0,,0,94,94,215,1
,,,,,,,,,,,,,,,,,,5c4c488a620ba700010c054d,2020-11-25_16h36.49.552,lexical_decision_task_MP_exp2,2020.2.5,Win32,60,z,1,0.751015,,,,,,,,0.751015,1,,,,,,380,NW,"ID",16,cavory,CAVORY,z,,,,,,-0.022135417,-0.440104167,0,0,0,,0,95,95,319,1
,,,,,,,,,,,,,,,,,,5c4c488a620ba700010c054d,2020-11-25_16h36.49.552,lexical_decision_task_MP_exp2,2020.2.5,Win32,60,m,1,0.655605,,,,,,,,0.655605,1,,,,,,238,WORD,UN,33,behalf,FLOWER,m,,,,,,-0.022135417,-0.440104167,0,0,0,,0,96,96,177,1
,,,,,,,,,,,,,,,,,,5c4c488a620ba700010c054d,2020-11-25_16h36.49.552,lexical_decision_task_MP_exp2,2020.2.5,Win32,60,m,1,0.5398,,,,,,,,0.5398,1,,,,,,75,WORD,"ID",33,trophy,TROPHY,m,,,,,,-0.022135417,-0.440104167,0,0,0,,0,97,97,14,1
,,,,,,,,,,,,,,,,,,5c4c488a620ba700010c054d,2020-11-25_16h36.49.552,lexical_decision_task_MP_exp2,2020.2.5,Win32,60,m,0,0.43631,,,,,,,,0.43631,0,,,,,,328,NW,"ID",33,broake,BROAKE,z,,,,,,-0.022135417,-0.440104167,0,0,0,,0,98,98,267,1
,,,,,,,,,,,,,,,,,,5c4c488a620ba700010c054d,2020-11-25_16h36.49.552,lexical_decision_task_MP_exp2,2020.2.5,Win32,60,m,1,0.650365,,,,,,,,0.650365,1,,,,,,210,WORD,UN,33,infect,MONKEY,m,,,,,,-0.022135417,-0.440104167,0,0,0,,0,99,99,149,1
,,,,,,,,,,,,,,,,,,5c4c488a620ba700010c054d,2020-11-25_16h36.49.552,lexical_decision_task_MP_exp2,2020.2.5,Win32,60,m,0,0.58138,,,,,,,,0.58138,0,,,,,,280,NW,UN,16,melaty,CURBOL,z,,,,,,-0.022135417,-0.440104167,0,0,0,,0,100,100,459,1
,,,,,,,,,,,,,,,,,,5c4c488a620ba700010c054d,2020-11-25_16h36.49.552,lexical_decision_task_MP_exp2,2020.2.5,Win32,60,z,1,0.77335,,,,,,,,0.77335,1,,,,,,249,NW,UN,16,milted,BATROL,z,,,,,,-0.022135417,-0.440104167,0,0,0,,0,101,101,428,1
,,,,,,,,,,,,,,,,,,5c4c488a620ba700010c054d,2020-11-25_16h36.49.552,lexical_decision_task_MP_exp2,2020.2.5,Win32,60,m,1,0.80337,,,,,,,,0.80337,1,,,,,,59,WORD,UN,16,pencil,SPLINT,m,,,,,,-0.022135417,-0.440104167,0,0,0,,0,102,102,238,1
,,,,,,,,,,,,,,,,,,5c4c488a620ba700010c054d,2020-11-25_16h36.49.552,lexical_decision_task_MP_exp2,2020.2.5,Win32,60,m,1,0.521845,,,,,,,,0.521845,1,,,,,,157,WORD,"ID",16,dragon,DRAGON,m,,,,,,-0.022135417,-0.440104167,0,0,0,,0,103,103,96,1
,,,,,,,,,,,,,,,,,,5c4c488a620ba700010c054d,2020-11-25_16h36.49.552,lexical_decision_task_MP_exp2,2020.2.5,Win32,60,m,1,0.621575,,,,,,,,0.621575,1,,,,,,107,WORD,"ID",33,slogan,SLOGAN,m,,,,,,-0.022135417,-0.440104167,0,0,0,,0,104,104,46,1
,,,,,,,,,,,,,,,,,,5c4c488a620ba700010c054d,2020-11-25_16h36.49.552,lexical_decision_task_MP_exp2,2020.2.5,Win32,60,z,1,0.717625,,,,,,,,0.717625,1,,,,,,274,NW,UN,16,sleirt,FUMBLO,z,,,,,,-0.022135417,-0.440104167,0,0,0,,0,105,105,453,1
,,,,,,,,,,,,,,,,,,5c4c488a620ba700010c054d,2020-11-25_16h36.49.552,lexical_decision_task_MP_exp2,2020.2.5,Win32,60,m,1,0.714675,,,,,,,,0.714675,1,,,,,,32,WORD,UN,16,scream,BUCKLE,m,,,,,,-0.022135417,-0.440104167,0,0,0,,0,106,106,211,1
,,,,,,,,,,,,,,,,,,5c4c488a620ba700010c054d,2020-11-25_16h36.49.552,lexical_decision_task_MP_exp2,2020.2.5,Win32,60,z,1,1.01734,,,,,,,,1.01734,1,,,,,,358,NW,"ID",33,fleack,FLEACK,z,,,,,,-0.022135417,-0.440104167,0,0,0,,0,107,107,297,1
,,,,,,,,,,,,,,,,,,5c4c488a620ba700010c054d,2020-11-25_16h36.49.552,lexical_decision_task_MP_exp2,2020.2.5,Win32,60,m,1,1.184935,,,,,,,,1.184935,1,,,,,,49,WORD,UN,16,snatch,SURVEY,m,,,,,,-0.022135417,-0.440104167,0,0,0,,0,108,108,228,1
,,,,,,,,,,,,,,,,,,5c4c488a620ba700010c054d,2020-11-25_16h36.49.552,lexical_decision_task_MP_exp2,2020.2.5,Win32,60,m,1,0.565865,,,,,,,,0.565865,1,,,,,,76,WORD,"ID",33,exotic,EXOTIC,m,,,,,,-0.022135417,-0.440104167,0,0,0,,0,109,109,15,1
,,,,,,,,,,,,,,,,,,5c4c488a620ba700010c054d,2020-11-25_16h36.49.552,lexical_decision_task_MP_exp2,2020.2.5,Win32,60,m,1,0.78623,,,,,,,,0.78623,1,,,,,,206,WORD,UN,33,wreath,TAILOR,m,,,,,,-0.022135417,-0.440104167,0,0,0,,0,110,110,145,1
,,,,,,,,,,,,,,,,,,5c4c488a620ba700010c054d,2020-11-25_16h36.49.552,lexical_decision_task_MP_exp2,2020.2.5,Win32,60,z,1,1.21863,,,,,,,,1.21863,1,,,,,,471,NW,UN,33,cigney,NOBEST,z,,,,,,-0.022135417,-0.440104167,0,0,0,,0,111,111,410,1
,,,,,,,,,,,,,,,,,,5c4c488a620ba700010c054d,2020-11-25_16h36.49.552,lexical_decision_task_MP_exp2,2020.2.5,Win32,60,z,1,0.881585,,,,,,,,0.881585,1,,,,,,409,NW,"ID",16,elopia,ELOPIA,z,,,,,,-0.022135417,-0.440104167,0,0,0,,0,112,112,348,1
,,,,,,,,,,,,,,,,,,5c4c488a620ba700010c054d,2020-11-25_16h36.49.552,lexical_decision_task_MP_exp2,2020.2.5,Win32,60,z,1,1.51508,,,,,,,,1.51508,1,,,,,,264,NW,UN,16,distar,VACKEL,z,,,,,,-0.022135417,-0.440104167,0,0,0,,0,113,113,443,1
,,,,,,,,,,,,,,,,,,5c4c488a620ba700010c054d,2020-11-25_16h36.49.552,lexical_decision_task_MP_exp2,2020.2.5,Win32,60,m,1,0.50712,,,,,,,,0.50712,1,,,,,,233,WORD,UN,33,clumsy,NATURE,m,,,,,,-0.022135417,-0.440104167,0,0,0,,0,114,114,172,1
,,,,,,,,,,,,,,,,,,5c4c488a620ba700010c054d,2020-11-25_16h36.49.552,lexical_decision_task_MP_exp2,2020.2.5,Win32,60,z,1,1.14019,,,,,,,,1.14019,1,,,,,,445,NW,UN,33,runamo,MINKEL,z,,,,,,-0.022135417,-0.440104167,0,0,0,,0,115,115,384,1
,,,,,,,,,,,,,,,,,,5c4c488a620ba700010c054d,2020-11-25_16h36.49.552,lexical_decision_task_MP_exp2,2020.2.5,Win32,60,m,1,0.707975,,,,,,,,0.707975,1,,,,,,87,WORD,"ID",33,filter,FILTER,m,,,,,,-0.022135417,-0.440104167,0,0,0,,0,116,116,26,1
,,,,,,,,,,,,,,,,,,5c4c488a620ba700010c054d,2020-11-25_16h36.49.552,lexical_decision_task_MP_exp2,2020.2.5,Win32,60,m,0,1.41409,,,,,,,,1.41409,0,,,,,,273,NW,UN,16,fumblo,SORTEL,z,,,,,,-0.022135417,-0.440104167,0,0,0,,0,117,117,452,1
,,,,,,,,,,,,,,,,,,5c4c488a620ba700010c054d,2020-11-25_16h36.49.552,lexical_decision_task_MP_exp2,2020.2.5,Win32,60,z,1,0.701975,,,,,,,,0.701975,1,,,,,,330,NW,"ID",33,kensom,KENSOM,z,,,,,,-0.022135417,-0.440104167,0,0,0,,0,118,118,269,1
,,,,,,,,,,,,,,,,,,5c4c488a620ba700010c054d,2020-11-25_16h36.49.552,lexical_decision_task_MP_exp2,2020.2.5,Win32,60,m,1,0.543945,,,,,,,,0.543945,1,,,,,,2,WORD,UN,16,knight,BRIDGE,m,,,,,,-0.022135417,-0.440104167,0,0,0,,0,119,119,181,1
,,,,,,,,,,,,,,,,,,5c4c488a620ba700010c054d,2020-11-25_16h36.49.552,lexical_decision_task_MP_exp2,2020.2.5,Win32,60,z,1,0.75329,,,,,,,,0.75329,1,,,,,,308,NW,"ID",33,psetch,PSETCH,z,,,,,,-0.022135417,-0.440104167,0,0,0,,0,120,120,247,1
,,,,,,,,,,,,,,,,,,5c4c488a620ba700010c054d,2020-11-25_16h36.49.552,lexical_decision_task_MP_exp2,2020.2.5,Win32,60,z,1,0.52728,,,,,,,,0.52728,1,,,,,,349,NW,"ID",33,asylen,ASYLEN,z,,,,,,-0.022135417,-0.440104167,0,0,0,,0,121,121,288,1
,,,,,,,,,,,,,,,,,,5c4c488a620ba700010c054d,2020-11-25_16h36.49.552,lexical_decision_task_MP_exp2,2020.2.5,Win32,60,z,1,0.831665,,,,,,,,0.831665,1,,,,,,430,NW,UN,33,chrums,CAROEY,z,,,,,,-0.022135417,-0.440104167,0,0,0,,0,122,122,369,1
,,,,,,,,,,,,,,,,,,5c4c488a620ba700010c054d,2020-11-25_16h36.49.552,lexical_decision_task_MP_exp2,2020.2.5,Win32,60,m,1,0.77447,,,,,,,,0.77447,1,,,,,,148,WORD,"ID",16,custom,CUSTOM,m,,,,,,-0.022135417,-0.440104167,0,0,0,,0,123,123,87,1
,,,,,,,,,,,,,,,,,,5c4c488a620ba700010c054d,2020-11-25_16h36.49.552,lexical_decision_task_MP_exp2,2020.2.5,Win32,60,z,1,0.50623,,,,,,,,0.50623,1,,,,,,357,NW,"ID",33,derain,DERAIN,z,,,,,,-0.022135417,-0.440104167,0,0,0,,0,124,124,296,1
,,,,,,,,,,,,,,,,,,5c4c488a620ba700010c054d,2020-11-25_16h36.49.552,lexical_decision_task_MP_exp2,2020.2.5,Win32,60,z,1,0.58772,,,,,,,,0.58772,1,,,,,,292,NW,UN,16,swance,ABLINT,z,,,,,,-0.022135417,-0.440104167,0,0,0,,0,125,125,471,1
,,,,,,,,,,,,,,,,,,5c4c488a620ba700010c054d,2020-11-25_16h36.49.552,lexical_decision_task_MP_exp2,2020.2.5,Win32,60,z,1,0.56821,,,,,,,,0.56821,1,,,,,,295,NW,UN,16,beinch,GLEATH,z,,,,,,-0.022135417,-0.440104167,0,0,0,,0,126,126,474,1
,,,,,,,,,,,,,,,,,,5c4c488a620ba700010c054d,2020-11-25_16h36.49.552,lexical_decision_task_MP_exp2,2020.2.5,Win32,60,z,0,0.57103,,,,,,,,0.57103,0,,,,,,85,WORD,"ID",33,sprawl,SPRAWL,m,,,,,,-0.022135417,-0.440104167,0,0,0,,0,127,127,24,1
,,,,,,,,,,,,,,,,,,5c4c488a620ba700010c054d,2020-11-25_16h36.49.552,lexical_decision_task_MP_exp2,2020.2.5,Win32,60,z,1,1.492735,,,,,,,,1.492735,1,,,,,,385,NW,"ID",16,veigma,VEIGMA,z,,,,,,-0.022135417,-0.440104167,0,0,0,,0,128,128,324,1
,,,,,,,,,,,,,,,,,,5c4c488a620ba700010c054d,2020-11-25_16h36.49.552,lexical_decision_task_MP_exp2,2020.2.5,Win32,60,z,1,0.640535,,,,,,,,0.640535,1,,,,,,315,NW,"ID",33,laston,LASTON,z,,,,,,-0.022135417,-0.440104167,0,0,0,,0,129,129,254,1
,,,,,,,,,,,,,,,,,,5c4c488a620ba700010c054d,2020-11-25_16h36.49.552,lexical_decision_task_MP_exp2,2020.2.5,Win32,60,z,1,0.763035,,,,,,,,0.763035,1,,,,,,384,NW,"ID",16,guesco,GUESCO,z,,,,,,-0.022135417,-0.440104167,0,0,0,,0,130,130,323,1
,,,,,,,,,,,,,,,,,,5c4c488a620ba700010c054d,2020-11-25_16h36.49.552,lexical_decision_task_MP_exp2,2020.2.5,Win32,60,m,1,0.671535,,,,,,,,0.671535,1,,,,,,14,WORD,UN,16,orange,ALMOST,m,,,,,,-0.022135417,-0.440104167,0,0,0,,0,131,131,193,1
,,,,,,,,,,,,,,,,,,5c4c488a620ba700010c054d,2020-11-25_16h36.49.552,lexical_decision_task_MP_exp2,2020.2.5,Win32,60,z,1,0.688555,,,,,,,,0.688555,1,,,,,,300,NW,UN,16,smenco,YARION,z,,,,,,-0.022135417,-0.440104167,0,0,0,,0,132,132,479,1
,,,,,,,,,,,,,,,,,,5c4c488a620ba700010c054d,2020-11-25_16h36.49.552,lexical_decision_task_MP_exp2,2020.2.5,Win32,60,m,1,0.78425,,,,,,,,0.78425,1,,,,,,8,WORD,UN,16,hustle,ABRUPT,m,,,,,,-0.022135417,-0.440104167,0,0,0,,0,133,133,187,1
,,,,,,,,,,,,,,,,,,5c4c488a620ba700010c054d,2020-11-25_16h36.49.552,lexical_decision_task_MP_exp2,2020.2.5,Win32,60,m,1,0.505995,,,,,,,,0.505995,1,,,,,,20,WORD,UN,16,simple,BREAST,m,,,,,,-0.022135417,-0.440104167,0,0,0,,0,134,134,199,1
,,,,,,,,,,,,,,,,,,5c4c488a620ba700010c054d,2020-11-25_16h36.49.552,lexical_decision_task_MP_exp2,2020.2.5,Win32,60,m,1,0.520095,,,,,,,,0.520095,1,,,,,,97,WORD,"ID",33,client,CLIENT,m,,,,,,-0.022135417,-0.440104167,0,0,0,,0,135,135,36,1
,,,,,,,,,,,,,,,,,,5c4c488a620ba700010c054d,2020-11-25_16h36.49.552,lexical_decision_task_MP_exp2,2020.2.5,Win32,60,m,1,0.486525,,,,,,,,0.486525,1,,,,,,51,WORD,UN,16,impose,HUNGRY,m,,,,,,-0.022135417,-0.440104167,0,0,0,,0,136,136,230,1
,,,,,,,,,,,,,,,,,,5c4c488a620ba700010c054d,2020-11-25_16h36.49.552,lexical_decision_task_MP_exp2,2020.2.5,Win32,60,z,1,0.646065,,,,,,,,0.646065,1,,,,,,279,NW,UN,16,curbol,CELOND,z,,,,,,-0.022135417,-0.440104167,0,0,0,,0,137,137,458,1
,,,,,,,,,,,,,,,,,,5c4c488a620ba700010c054d,2020-11-25_16h36.49.552,lexical_decision_task_MP_exp2,2020.2.5,Win32,60,z,1,0.78679,,,,,,,,0.78679,1,,,,,,423,NW,UN,33,praile,STRELD,z,,,,,,-0.022135417,-0.440104167,0,0,0,,0,138,138,362,1
,,,,,,,,,,,,,,,,,,5c4c488a620ba700010c054d,2020-11-25_16h36.49.552,lexical_decision_task_MP_exp2,2020.2.5,Win32,60,m,1,0.467745,,,,,,,,0.467745,1,,,,,,154,WORD,"ID",16,author,AUTHOR,m,,,,,,-0.022135417,-0.440104167,0,0,0,,0,139,139,93,1
,,,,,,,,,,,,,,,,,,5c4c488a620ba700010c054d,2020-11-25_16h36.49.552,lexical_decision_task_MP_exp2,2020.2.5,Win32,60,z,1,0.57641,,,,,,,,0.57641,1,,,,,,443,NW,UN,33,jaunce,DORSEX,z,,,,,,-0.022135417,-0.440104167,0,0,0,,0,140,140,382,1
,,,,,,,,,,,,,,,,,,5c4c488a620ba700010c054d,2020-11-25_16h36.49.552,lexical_decision_task_MP_exp2,2020.2.5,Win32,60,z,1,0.685165,,,,,,,,0.685165,1,,,,,,270,NW,UN,16,aubrid,WRIMSY,z,,,,,,-0.022135417,-0.440104167,0,0,0,,0,141,141,449,1
,,,,,,,,,,,,,,,,,,5c4c488a620ba700010c054d,2020-11-25_16h36.49.552,lexical_decision_task_MP_exp2,2020.2.5,Win32,60,z,1,0.5081,,,,,,,,0.5081,1,,,,,,396,NW,"ID",16,flengy,FLENGY,z,,,,,,-0.022135417,-0.440104167,0,0,0,,0,142,142,335,1
,,,,,,,,,,,,,,,,,,5c4c488a620ba700010c054d,2020-11-25_16h36.49.552,lexical_decision_task_MP_exp2,2020.2.5,Win32,60,m,1,0.535225,,,,,,,,0.535225,1,,,,,,92,WORD,"ID",33,strand,STRAND,m,,,,,,-0.022135417,-0.440104167,0,0,0,,0,143,143,31,1
,,,,,,,,,,,,,,,,,,5c4c488a620ba700010c054d,2020-11-25_16h36.49.552,lexical_decision_task_MP_exp2,2020.2.5,Win32,60,m,1,0.46416,,,,,,,,0.46416,1,,,,,,12,WORD,UN,16,strive,ORANGE,m,,,,,,-0.022135417,-0.440104167,0,0,0,,0,144,144,191,1
,,,,,,,,,,,,,,,,,,5c4c488a620ba700010c054d,2020-11-25_16h36.49.552,lexical_decision_task_MP_exp2,2020.2.5,Win32,60,z,1,0.76655,,,,,,,,0.76655,1,,,,,,366,NW,"ID",16,toshel,TOSHEL,z,,,,,,-0.022135417,-0.440104167,0,0,0,,0,145,145,305,1
,,,,,,,,,,,,,,,,,,5c4c488a620ba700010c054d,2020-11-25_16h36.49.552,lexical_decision_task_MP_exp2,2020.2.5,Win32,60,m,1,0.520895,,,,,,,,0.520895,1,,,,,,57,WORD,UN,16,danger,CHANGE,m,,,,,,-0.022135417,-0.440104167,0,0,0,,0,146,146,236,1
,,,,,,,,,,,,,,,,,,5c4c488a620ba700010c054d,2020-11-25_16h36.49.552,lexical_decision_task_MP_exp2,2020.2.5,Win32,60,m,1,0.52071,,,,,,,,0.52071,1,,,,,,150,WORD,"ID",16,random,RANDOM,m,,,,,,-0.022135417,-0.440104167,0,0,0,,0,147,147,89,1
,,,,,,,,,,,,,,,,,,5c4c488a620ba700010c054d,2020-11-25_16h36.49.552,lexical_decision_task_MP_exp2,2020.2.5,Win32,60,m,1,0.431665,,,,,,,,0.431665,1,,,,,,44,WORD,UN,16,clergy,DANGER,m,,,,,,-0.022135417,-0.440104167,0,0,0,,0,148,148,223,1
,,,,,,,,,,,,,,,,,,5c4c488a620ba700010c054d,2020-11-25_16h36.49.552,lexical_decision_task_MP_exp2,2020.2.5,Win32,60,z,1,0.52747,,,,,,,,0.52747,1,,,,,,347,NW,"ID",33,kerift,KERIFT,z,,,,,,-0.022135417,-0.440104167,0,0,0,,0,149,149,286,1
,,,,,,,,,,,,,,,,,,5c4c488a620ba700010c054d,2020-11-25_16h36.49.552,lexical_decision_task_MP_exp2,2020.2.5,Win32,60,z,1,1.796915,,,,,,,,1.796915,1,,,,,,440,NW,UN,33,rastoe,SARIDE,z,,,,,,-0.022135417,-0.440104167,0,0,0,,0,150,150,379,1
,,,,,,,,,,,,,,,,,,5c4c488a620ba700010c054d,2020-11-25_16h36.49.552,lexical_decision_task_MP_exp2,2020.2.5,Win32,60,m,1,0.916185,,,,,,,,0.916185,1,,,,,,216,WORD,UN,33,liquor,BEHALF,m,,,,,,-0.022135417,-0.440104167,0,0,0,,0,151,151,155,1
,,,,,,,,,,,,,,,,,,5c4c488a620ba700010c054d,2020-11-25_16h36.49.552,lexical_decision_task_MP_exp2,2020.2.5,Win32,60,m,1,0.504835,,,,,,,,0.504835,1,,,,,,168,WORD,"ID",16,answer,ANSWER,m,,,,,,-0.022135417,-0.440104167,0,0,0,,0,152,152,107,1
,,,,,,,,,,,,,,,,,,5c4c488a620ba700010c054d,2020-11-25_16h36.49.552,lexical_decision_task_MP_exp2,2020.2.5,Win32,60,m,0,0.398205,,,,,,,,0.398205,0,,,,,,451,NW,UN,33,surden,CAINKY,z,,,,,,-0.022135417,-0.440104167,0,0,0,,0,153,153,390,1
,,,,,,,,,,,,,,,,,,5c4c488a620ba700010c054d,2020-11-25_16h36.49.552,lexical_decision_task_MP_exp2,2020.2.5,Win32,60,m,0,0.66416,,,,,,,,0.66416,0,,,,,,476,NW,UN,33,photie,JOSTED,z,,,,,,-0.022135417,-0.440104167,0,0,0,,0,154,154,415,1
,,,,,,,,,,,,,,,,,,5c4c488a620ba700010c054d,2020-11-25_16h36.49.552,lexical_decision_task_MP_exp2,2020.2.5,Win32,60,z,0,0.724785,,,,,,,,0.724785,0,,,,,,203,WORD,UN,33,burden,PHRASE,m,,,,,,-0.022135417,-0.440104167,0,0,0,,0,155,155,142,1
,,,,,,,,,,,,,,,,,,5c4c488a620ba700010c054d,2020-11-25_16h36.49.552,lexical_decision_task_MP_exp2,2020.2.5,Win32,60,m,1,0.64021,,,,,,,,0.64021,1,,,,,,21,WORD,UN,16,jockey,SIMPLE,m,,,,,,-0.022135417,-0.440104167,0,0,0,,0,156,156,200,1
,,,,,,,,,,,,,,,,,,5c4c488a620ba700010c054d,2020-11-25_16h36.49.552,lexical_decision_task_MP_exp2,2020.2.5,Win32,60,m,1,0.53184,,,,,,,,0.53184,1,,,,,,104,WORD,"ID",33,studio,STUDIO,m,,,,,,-0.022135417,-0.440104167,0,0,0,,0,157,157,43,1
,,,,,,,,,,,,,,,,,,5c4c488a620ba700010c054d,2020-11-25_16h36.49.552,lexical_decision_task_MP_exp2,2020.2.5,Win32,60,z,0,0.757235,,,,,,,,0.757235,0,,,,,,45,WORD,UN,16,single,CLERGY,m,,,,,,-0.022135417,-0.440104167,0,0,0,,0,158,158,224,1
,,,,,,,,,,,,,,,,,,5c4c488a620ba700010c054d,2020-11-25_16h36.49.552,lexical_decision_task_MP_exp2,2020.2.5,Win32,60,z,1,1.08053,,,,,,,,1.08053,1,,,,,,444,NW,UN,33,minkel,JAUNCE,z,,,,,,-0.022135417,-0.440104167,0,0,0,,0,159,159,383,1
,,,,,,,,,,,,,,,,,,5c4c488a620ba700010c054d,2020-11-25_16h36.49.552,lexical_decision_task_MP_exp2,2020.2.5,Win32,60,z,1,0.85614,,,,,,,,0.85614,1,,,,,,275,NW,UN,16,yarmon,SLEIRT,z,,,,,,-0.022135417,-0.440104167,0,0,0,,0,160,160,454,1
,,,,,,,,,,,,,,,,,,5c4c488a620ba700010c054d,2020-11-25_16h36.49.552,lexical_decision_task_MP_exp2,2020.2.5,Win32,60,z,1,1.083295,,,,,,,,1.083295,1,,,,,,277,NW,UN,16,unighs,PETAIN,z,,,,,,-0.022135417,-0.440104167,0,0,0,,0,161,161,456,1
,,,,,,,,,,,,,,,,,,5c4c488a620ba700010c054d,2020-11-25_16h36.49.552,lexical_decision_task_MP_exp2,2020.2.5,Win32,60,z,1,1.51985,,,,,,,,1.51985,1,,,,,,293,NW,UN,16,inhort,SWANCE,z,,,,,,-0.022135417,-0.440104167,0,0,0,,0,162,162,472,1
,,,,,,,,,,,,,,,,,,5c4c488a620ba700010c054d,2020-11-25_16h36.49.552,lexical_decision_task_MP_exp2,2020.2.5,Win32,60,z,1,0.643225,,,,,,,,0.643225,1,,,,,,283,NW,UN,16,shaple,VERALF,z,,,,,,-0.022135417,-0.440104167,0,0,0,,0,163,163,462,1
,,,,,,,,,,,,,,,,,,5c4c488a620ba700010c054d,2020-11-25_16h36.49.552,lexical_decision_task_MP_exp2,2020.2.5,Win32,60,m,1,0.62815,,,,,,,,0.62815,1,,,,,,112,WORD,"ID",33,breath,BREATH,m,,,,,,-0.022135417,-0.440104167,0,0,0,,0,164,164,51,1
,,,,,,,,,,,,,,,,,,5c4c488a620ba700010c054d,2020-11-25_16h36.49.552,lexical_decision_task_MP_exp2,2020.2.5,Win32,60,m,0,1.01362,,,,,,,,1.01362,0,,,,,,426,NW,UN,33,schind,URIVEL,z,,,,,,-0.022135417,-0.440104167,0,0,0,,0,165,165,365,1
,,,,,,,,,,,,,,,,,,5c4c488a620ba700010c054d,2020-11-25_16h36.49.552,lexical_decision_task_MP_exp2,2020.2.5,Win32,60,m,1,0.626125,,,,,,,,0.626125,1,,,,,,149,WORD,"ID",16,invade,INVADE,m,,,,,,-0.022135417,-0.440104167,0,0,0,,0,166,166,88,1
,,,,,,,,,,,,,,,,,,5c4c488a620ba700010c054d,2020-11-25_16h36.49.552,lexical_decision_task_MP_exp2,2020.2.5,Win32,60,m,1,0.677985,,,,,,,,0.677985,1,,,,,,122,WORD,"ID",16,linger,LINGER,m,,,,,,-0.022135417,-0.440104167,0,0,0,,0,167,167,61,1
,,,,,,,,,,,,,,,,,,5c4c488a620ba700010c054d,2020-11-25_16h36.49.552,lexical_decision_task_MP_exp2,2020.2.5,Win32,60,m,0,0.59414,,,,,,,,0.59414,0,,,,,,392,NW,"ID",16,rouncy,ROUNCY,z,,,,,,-0.022135417,-0.440104167,0,0,0,,0,168,168,331,1
,,,,,,,,,,,,,,,,,,5c4c488a620ba700010c054d,2020-11-25_16h36.49.552,lexical_decision_task_MP_exp2,2020.2.5,Win32,60,z,0,0.577985,,,,,,,,0.577985,0,,,,,,213,WORD,UN,33,intake,SQUEAL,m,,,,,,-0.022135417,-0.440104167,0,0,0,,0,169,169,152,1
,,,,,,,,,,,,,,,,,,5c4c488a620ba700010c054d,2020-11-25_16h36.49.552,lexical_decision_task_MP_exp2,2020.2.5,Win32,60,z,1,0.614685,,,,,,,,0.614685,1,,,,,,459,NW,UN,33,mingar,BAFENT,z,,,,,,-0.022135417,-0.440104167,0,0,0,,0,170,170,398,1
,,,,,,,,,,,,,,,,,,5c4c488a620ba700010c054d,2020-11-25_16h36.49.552,lexical_decision_task_MP_exp2,2020.2.5,Win32,60,m,1,0.49448,,,,,,,,0.49448,1,,,,,,34,WORD,UN,16,socket,JUNGLE,m,,,,,,-0.022135417,-0.440104167,0,0,0,,0,171,171,213,1
,,,,,,,,,,,,,,,,,,5c4c488a620ba700010c054d,2020-11-25_16h36.49.552,lexical_decision_task_MP_exp2,2020.2.5,Win32,60,m,1,0.839235,,,,,,,,0.839235,1,,,,,,166,WORD,"ID",16,starch,STARCH,m,,,,,,-0.022135417,-0.440104167,0,0,0,,0,172,172,105,1
,,,,,,,,,,,,,,,,,,5c4c488a620ba700010c054d,2020-11-25_16h36.49.552,lexical_decision_task_MP_exp2,2020.2.5,Win32,60,m,1,0.55193,,,,,,,,0.55193,1,,,,,,17,WORD,UN,16,humble,CHARGE,m,,,,,,-0.022135417,-0.440104167,0,0,0,,0,173,173,196,1
,,,,,,,,,,,,,,,,,,5c4c488a620ba700010c054d,2020-11-25_16h36.49.552,lexical_decision_task_MP_exp2,2020.2.5,Win32,60,m,1,0.58145,,,,,,,,0.58145,1,,,,,,135,WORD,"ID",16,import,IMPORT,m,,,,,,-0.022135417,-0.440104167,0,0,0,,0,174,174,74,1
,,,,,,,,,,,,,,,,,,5c4c488a620ba700010c054d,2020-11-25_16h36.49.552,lexical_decision_task_MP_exp2,2020.2.5,Win32,60,z,1,0.658055,,,,,,,,0.658055,1,,,,,,457,NW,UN,33,barcet,WANIGH,z,,,,,,-0.022135417,-0.440104167,0,0,0,,0,175,175,396,1
,,,,,,,,,,,,,,,,,,5c4c488a620ba700010c054d,2020-11-25_16h36.49.552,lexical_decision_task_MP_exp2,2020.2.5,Win32,60,m,1,0.83135,,,,,,,,0.83135,1,,,,,,113,WORD,"ID",33,chorus,CHORUS,m,,,,,,-0.022135417,-0.440104167,0,0,0,,0,176,176,52,1
,,,,,,,,,,,,,,,,,,5c4c488a620ba700010c054d,2020-11-25_16h36.49.552,lexical_decision_task_MP_exp2,2020.2.5,Win32,60,m,1,0.47342,,,,,,,,0.47342,1,,,,,,190,WORD,UN,33,stable,BACKUP,m,,,,,,-0.022135417,-0.440104167,0,0,0,,0,177,177,129,1
,,,,,,,,,,,,,,,,,,5c4c488a620ba700010c054d,2020-11-25_16h36.49.552,lexical_decision_task_MP_exp2,2020.2.5,Win32,60,z,1,0.533,,,,,,,,0.533,1,,,,,,354,NW,"ID",33,virlex,VIRLEX,z,,,,,,-0.022135417,-0.440104167,0,0,0,,0,178,178,293,1
,,,,,,,,,,,,,,,,,,5c4c488a620ba700010c054d,2020-11-25_16h36.49.552,lexical_decision_task_MP_exp2,2020.2.5,Win32,60,z,1,0.616155,,,,,,,,0.616155,1,,,,,,397,NW,"ID",16,camble,CAMBLE,z,,,,,,-0.022135417,-0.440104167,0,0,0,,0,179,179,336,1
,,,,,,,,,,,,,,,,,,5c4c488a620ba700010c054d,2020-11-25_16h36.49.552,lexical_decision_task_MP_exp2,2020.2.5,Win32,60,m,1,1.237585,,,,,,,,1.237585,1,,,,,,169,WORD,"ID",16,genius,GENIUS,m,,,,,,-0.022135417,-0.440104167,0,0,0,,0,180,180,108,1
,,,,,,,,,,,,,,,,,,5c4c488a620ba700010c054d,2020-11-25_16h36.49.552,lexical_decision_task_MP_exp2,2020.2.5,Win32,60,m,1,0.648185,,,,,,,,0.648185,1,,,,,,160,WORD,"ID",16,violet,VIOLET,m,,,,,,-0.022135417,-0.440104167,0,0,0,,0,181,181,99,1
,,,,,,,,,,,,,,,,,,5c4c488a620ba700010c054d,2020-11-25_16h36.49.552,lexical_decision_task_MP_exp2,2020.2.5,Win32,60,m,1,0.52261,,,,,,,,0.52261,1,,,,,,232,WORD,UN,33,nature,INJECT,m,,,,,,-0.022135417,-0.440104167,0,0,0,,0,182,182,171,1
,,,,,,,,,,,,,,,,,,5c4c488a620ba700010c054d,2020-11-25_16h36.49.552,lexical_decision_task_MP_exp2,2020.2.5,Win32,60,z,1,0.88361,,,,,,,,0.88361,1,,,,,,339,NW,"ID",33,fachow,FACHOW,z,,,,,,-0.022135417,-0.440104167,0,0,0,,0,183,183,278,1
,,,,,,,,,,,,,,,,,,5c4c488a620ba700010c054d,2020-11-25_16h36.49.552,lexical_decision_task_MP_exp2,2020.2.5,Win32,60,z,1,0.689,,,,,,,,0.689,1,,,,,,387,NW,"ID",16,gronce,GRONCE,z,,,,,,-0.022135417,-0.440104167,0,0,0,,0,184,184,326,1
,,,,,,,,,,,,,,,,,,5c4c488a620ba700010c054d,2020-11-25_16h36.49.552,lexical_decision_task_MP_exp2,2020.2.5,Win32,60,z,1,0.36645,,,,,,,,0.36645,1,,,,,,325,NW,"ID",33,thruse,THRUSE,z,,,,,,-0.022135417,-0.440104167,0,0,0,,0,185,185,264,1
,,,,,,,,,,,,,,,,,,5c4c488a620ba700010c054d,2020-11-25_16h36.49.552,lexical_decision_task_MP_exp2,2020.2.5,Win32,60,m,1,0.69418,,,,,,,,0.69418,1,,,,,,115,WORD,"ID",33,guitar,GUITAR,m,,,,,,-0.022135417,-0.440104167,0,0,0,,0,186,186,54,1
,,,,,,,,,,,,,,,,,,5c4c488a620ba700010c054d,2020-11-25_16h36.49.552,lexical_decision_task_MP_exp2,2020.2.5,Win32,60,z,1,0.530425,,,,,,,,0.530425,1,,,,,,287,NW,UN,16,yaceup,NYMBEL,z,,,,,,-0.022135417,-0.440104167,0,0,0,,0,187,187,466,1
,,,,,,,,,,,,,,,,,,5c4c488a620ba700010c054d,2020-11-25_16h36.49.552,lexical_decision_task_MP_exp2,2020.2.5,Win32,60,z,1,1.316175,,,,,,,,1.316175,1,,,,,,258,NW,UN,16,soudal,POLUTH,z,,,,,,-0.022135417,-0.440104167,0,0,0,,0,188,188,437,1
,,,,,,,,,,,,,,,,,,5c4c488a620ba700010c054d,2020-11-25_16h36.49.552,lexical_decision_task_MP_exp2,2020.2.5,Win32,60,m,1,0.59785,,,,,,,,0.59785,1,,,,,,209,WORD,UN,33,monkey,SEARCH,m,,,,,,-0.022135417,-0.440104167,0,0,0,,0,189,189,148,1
,,,,,,,,,,,,,,,,,,5c4c488a620ba700010c054d,2020-11-25_16h36.49.552,lexical_decision_task_MP_exp2,2020.2.5,Win32,60,m,1,0.46752,,,,,,,,0.46752,1,,,,,,187,WORD,UN,33,social,COURSE,m,,,,,,-0.022135417,-0.440104167,0,0,0,,0,190,190,126,1
,,,,,,,,,,,,,,,,,,5c4c488a620ba700010c054d,2020-11-25_16h36.49.552,lexical_decision_task_MP_exp2,2020.2.5,Win32,60,m,1,0.481685,,,,,,,,0.481685,1,,,,,,83,WORD,"ID",33,result,RESULT,m,,,,,,-0.022135417,-0.440104167,0,0,0,,0,191,191,22,1
,,,,,,,,,,,,,,,,,,5c4c488a620ba700010c054d,2020-11-25_16h36.49.552,lexical_decision_task_MP_exp2,2020.2.5,Win32,60,z,1,0.735835,,,,,,,,0.735835,1,,,,,,318,NW,"ID",33,reagly,REAGLY,z,,,,,,-0.022135417,-0.440104167,0,0,0,,0,192,192,257,1
,,,,,,,,,,,,,,,,,,5c4c488a620ba700010c054d,2020-11-25_16h36.49.552,lexical_decision_task_MP_exp2,2020.2.5,Win32,60,m,0,0.465355,,,,,,,,0.465355,0,,,,,,342,NW,"ID",33,randow,RANDOW,z,,,,,,-0.022135417,-0.440104167,0,0,0,,0,193,193,281,1
,,,,,,,,,,,,,,,,,,5c4c488a620ba700010c054d,2020-11-25_16h36.49.552,lexical_decision_task_MP_exp2,2020.2.5,Win32,60,m,1,0.765375,,,,,,,,0.765375,1,,,,,,56,WORD,UN,16,change,AMBUSH,m,,,,,,-0.022135417,-0.440104167,0,0,0,,0,194,194,235,1
,,,,,,,,,,,,,,,,,,5c4c488a620ba700010c054d,2020-11-25_16h36.49.552,lexical_decision_task_MP_exp2,2020.2.5,Win32,60,z,1,0.98983,,,,,,,,0.98983,1,,,,,,442,NW,UN,33,dorsex,ABOUNE,z,,,,,,-0.022135417,-0.440104167,0,0,0,,0,195,195,381,1
,,,,,,,,,,,,,,,,,,5c4c488a620ba700010c054d,2020-11-25_16h36.49.552,lexical_decision_task_MP_exp2,2020.2.5,Win32,60,z,0,0.53381,,,,,,,,0.53381,0,,,,,,80,WORD,"ID",33,family,FAMILY,m,,,,,,-0.022135417,-0.440104167,0,0,0,,0,196,196,19,1
,,,,,,,,,,,,,,,,,,5c4c488a620ba700010c054d,2020-11-25_16h36.49.552,lexical_decision_task_MP_exp2,2020.2.5,Win32,60,m,1,0.54823,,,,,,,,0.54823,1,,,,,,146,WORD,"ID",16,couple,COUPLE,m,,,,,,-0.022135417,-0.440104167,0,0,0,,0,197,197,85,1
,,,,,,,,,,,,,,,,,,5c4c488a620ba700010c054d,2020-11-25_16h36.49.552,lexical_decision_task_MP_exp2,2020.2.5,Win32,60,z,1,0.70736,,,,,,,,0.70736,1,,,,,,411,NW,"ID",16,orchin,ORCHIN,z,,,,,,-0.022135417,-0.440104167,0,0,0,,0,198,198,350,1
,,,,,,,,,,,,,,,,,,5c4c488a620ba700010c054d,2020-11-25_16h36.49.552,lexical_decision_task_MP_exp2,2020.2.5,Win32,60,m,1,0.6005,,,,,,,,0.6005,1,,,,,,70,WORD,"ID",33,square,SQUARE,m,,,,,,-0.022135417,-0.440104167,0,0,0,,0,199,199,9,1
,,,,,,,,,,,,,,,,,,5c4c488a620ba700010c054d,2020-11-25_16h36.49.552,lexical_decision_task_MP_exp2,2020.2.5,Win32,60,z,1,0.67179,,,,,,,,0.67179,1,,,,,,309,NW,"ID",33,amiloy,AMILOY,z,,,,,,-0.022135417,-0.440104167,0,0,0,,0,200,200,248,1
,,,,,,,,,,,,,,,,,,5c4c488a620ba700010c054d,2020-11-25_16h36.49.552,lexical_decision_task_MP_exp2,2020.2.5,Win32,60,m,1,0.83259,,,,,,,,0.83259,1,,,,,,140,WORD,"ID",16,prince,PRINCE,m,,,,,,-0.022135417,-0.440104167,0,0,0,,0,201,201,79,1
,,,,,,,,,,,,,,,,,,5c4c488a620ba700010c054d,2020-11-25_16h36.49.552,lexical_decision_task_MP_exp2,2020.2.5,Win32,60,m,1,0.55019,,,,,,,,0.55019,1,,,,,,222,WORD,UN,33,export,HINDER,m,,,,,,-0.022135417,-0.440104167,0,0,0,,0,202,202,161,1
,,,,,,,,,,,,,,,,,,5c4c488a620ba700010c054d,2020-11-25_16h36.49.552,lexical_decision_task_MP_exp2,2020.2.5,Win32,60,m,1,0.468475,,,,,,,,0.468475,1,,,,,,91,WORD,"ID",33,expand,EXPAND,m,,,,,,-0.022135417,-0.440104167,0,0,0,,0,203,203,30,1
,,,,,,,,,,,,,,,,,,5c4c488a620ba700010c054d,2020-11-25_16h36.49.552,lexical_decision_task_MP_exp2,2020.2.5,Win32,60,m,0,0.78498,,,,,,,,0.78498,0,,,,,,404,NW,"ID",16,cluirm,CLUIRM,z,,,,,,-0.022135417,-0.440104167,0,0,0,,0,204,204,343,1
,,,,,,,,,,,,,,,,,,5c4c488a620ba700010c054d,2020-11-25_16h36.49.552,lexical_decision_task_MP_exp2,2020.2.5,Win32,60,m,1,0.710075,,,,,,,,0.710075,1,,,,,,96,WORD,"ID",33,ignore,IGNORE,m,,,,,,-0.022135417,-0.440104167,0,0,0,,0,205,205,35,1
,,,,,,,,,,,,,,,,,,5c4c488a620ba700010c054d,2020-11-25_16h36.49.552,lexical_decision_task_MP_exp2,2020.2.5,Win32,60,m,1,0.493165,,,,,,,,0.493165,1,,,,,,22,WORD,UN,16,wealth,JOCKEY,m,,,,,,-0.022135417,-0.440104167,0,0,0,,0,206,206,201,1
,,,,,,,,,,,,,,,,,,5c4c488a620ba700010c054d,2020-11-25_16h36.49.552,lexical_decision_task_MP_exp2,2020.2.5,Win32,60,z,1,0.701135,,,,,,,,0.701135,1,,,,,,438,NW,UN,33,limpor,BAITCH,z,,,,,,-0.022135417,-0.440104167,0,0,0,,0,207,207,377,1
,,,,,,,,,,,,,,,,,,5c4c488a620ba700010c054d,2020-11-25_16h36.49.552,lexical_decision_task_MP_exp2,2020.2.5,Win32,60,z,1,0.568625,,,,,,,,0.568625,1,,,,,,278,NW,UN,16,celond,UNIGHS,z,,,,,,-0.022135417,-0.440104167,0,0,0,,0,208,208,457,1
,,,,,,,,,,,,,,,,,,5c4c488a620ba700010c054d,2020-11-25_16h36.49.552,lexical_decision_task_MP_exp2,2020.2.5,Win32,60,m,0,0.59788,,,,,,,,0.59788,0,,,,,,314,NW,"ID",33,sprine,SPRINE,z,,,,,,-0.022135417,-0.440104167,0,0,0,,0,209,209,253,1
,,,,,,,,,,,,,,,,,,5c4c488a620ba700010c054d,2020-11-25_16h36.49.552,lexical_decision_task_MP_exp2,2020.2.5,Win32,60,m,1,0.479835,,,,,,,,0.479835,1,,,,,,205,WORD,UN,33,tailor,LOUNGE,m,,,,,,-0.022135417,-0.440104167,0,0,0,,0,210,210,144,1
,,,,,,,,,,,,,,,,,,5c4c488a620ba700010c054d,2020-11-25_16h36.49.552,lexical_decision_task_MP_exp2,2020.2.5,Win32,60,z,1,0.605845,,,,,,,,0.605845,1,,,,,,241,NW,UN,16,unwert,SMENCO,z,,,,,,-0.022135417,-0.440104167,0,0,0,,0,211,211,420,1
,,,,,,,,,,,,,,,,,,5c4c488a620ba700010c054d,2020-11-25_16h36.49.552,lexical_decision_task_MP_exp2,2020.2.5,Win32,60,z,1,0.59618,,,,,,,,0.59618,1,,,,,,373,NW,"ID",16,bigent,BIGENT,z,,,,,,-0.022135417,-0.440104167,0,0,0,,0,212,212,312,1
,,,,,,,,,,,,,,,,,,5c4c488a620ba700010c054d,2020-11-25_16h36.49.552,lexical_decision_task_MP_exp2,2020.2.5,Win32,60,m,1,0.606745,,,,,,,,0.606745,1,,,,,,240,WORD,UN,33,seldom,FOREST,m,,,,,,-0.022135417,-0.440104167,0,0,0,,0,213,213,179,1
,,,,,,,,,,,,,,,,,,5c4c488a620ba700010c054d,2020-11-25_16h36.49.552,lexical_decision_task_MP_exp2,2020.2.5,Win32,60,m,1,0.52312,,,,,,,,0.52312,1,,,,,,145,WORD,"ID",16,parish,PARISH,m,,,,,,-0.022135417,-0.440104167,0,0,0,,0,214,214,84,1
,,,,,,,,,,,,,,,,,,5c4c488a620ba700010c054d,2020-11-25_16h36.49.552,lexical_decision_task_MP_exp2,2020.2.5,Win32,60,m,1,0.706725,,,,,,,,0.706725,1,,,,,,171,WORD,"ID",16,depart,DEPART,m,,,,,,-0.022135417,-0.440104167,0,0,0,,0,215,215,110,1
,,,,,,,,,,,,,,,,,,5c4c488a620ba700010c054d,2020-11-25_16h36.49.552,lexical_decision_task_MP_exp2,2020.2.5,Win32,60,m,1,0.50652,,,,,,,,0.50652,1,,,,,,61,WORD,"ID",33,ponder,PONDER,m,,,,,,-0.022135417,-0.440104167,0,0,0,,0,216,216,0,1
,,,,,,,,,,,,,,,,,,5c4c488a620ba700010c054d,2020-11-25_16h36.49.552,lexical_decision_task_MP_exp2,2020.2.5,Win32,60,z,1,0.71513,,,,,,,,0.71513,1,,,,,,429,NW,UN,33,caroey,FUNTLE,z,,,,,,-0.022135417,-0.440104167,0,0,0,,0,217,217,368,1
,,,,,,,,,,,,,,,,,,5c4c488a620ba700010c054d,2020-11-25_16h36.49.552,lexical_decision_task_MP_exp2,2020.2.5,Win32,60,m,1,0.52865,,,,,,,,0.52865,1,,,,,,191,WORD,UN,33,beacon,STABLE,m,,,,,,-0.022135417,-0.440104167,0,0,0,,0,218,218,130,1
,,,,,,,,,,,,,,,,,,5c4c488a620ba700010c054d,2020-11-25_16h36.49.552,lexical_decision_task_MP_exp2,2020.2.5,Win32,60,m,0,0.92884,,,,,,,,0.92884,0,,,,,,333,NW,"ID",33,catrie,CATRIE,z,,,,,,-0.022135417,-0.440104167,0,0,0,,0,219,219,272,1
,,,,,,,,,,,,,,,,,,5c4c488a620ba700010c054d,2020-11-25_16h36.49.552,lexical_decision_task_MP_exp2,2020.2.5,Win32,60,z,1,0.849785,,,,,,,,0.849785,1,,,,,,286,NW,UN,16,nymbel,RELDON,z,,,,,,-0.022135417,-0.440104167,0,0,0,,0,220,220,465,1
,,,,,,,,,,,,,,,,,,5c4c488a620ba700010c054d,2020-11-25_16h36.49.552,lexical_decision_task_MP_exp2,2020.2.5,Win32,60,m,1,0.719525,,,,,,,,0.719525,1,,,,,,55,WORD,UN,16,ambush,STROKE,m,,,,,,-0.022135417,-0.440104167,0,0,0,,0,221,221,234,1
,,,,,,,,,,,,,,,,,,5c4c488a620ba700010c054d,2020-11-25_16h36.49.552,lexical_decision_task_MP_exp2,2020.2.5,Win32,60,m,1,0.5318,,,,,,,,0.5318,1,,,,,,235,WORD,UN,33,pirate,GRUMPY,m,,,,,,-0.022135417,-0.440104167,0,0,0,,0,222,222,174,1
,,,,,,,,,,,,,,,,,,5c4c488a620ba700010c054d,2020-11-25_16h36.49.552,lexical_decision_task_MP_exp2,2020.2.5,Win32,60,m,1,0.51978,,,,,,,,0.51978,1,,,,,,195,WORD,UN,33,credit,RESIGN,m,,,,,,-0.022135417,-0.440104167,0,0,0,,0,223,223,134,1
,,,,,,,,,,,,,,,,,,5c4c488a620ba700010c054d,2020-11-25_16h36.49.552,lexical_decision_task_MP_exp2,2020.2.5,Win32,60,m,0,0.651915,,,,,,,,0.651915,0,,,,,,425,NW,UN,33,urivel,FRUDGE,z,,,,,,-0.022135417,-0.440104167,0,0,0,,0,224,224,364,1
,,,,,,,,,,,,,,,,,,5c4c488a620ba700010c054d,2020-11-25_16h36.49.552,lexical_decision_task_MP_exp2,2020.2.5,Win32,60,m,0,1.59689,,,,,,,,1.59689,0,,,,,,307,NW,"ID",33,kirafe,KIRAFE,z,,,,,,-0.022135417,-0.440104167,0,0,0,,0,225,225,246,1
,,,,,,,,,,,,,,,,,,5c4c488a620ba700010c054d,2020-11-25_16h36.49.552,lexical_decision_task_MP_exp2,2020.2.5,Win32,60,m,1,0.834035,,,,,,,,0.834035,1,,,,,,217,WORD,UN,33,shrink,LIQUOR,m,,,,,,-0.022135417,-0.440104167,0,0,0,,0,226,226,156,1
,,,,,,,,,,,,,,,,,,5c4c488a620ba700010c054d,2020-11-25_16h36.49.552,lexical_decision_task_MP_exp2,2020.2.5,Win32,60,m,1,0.59944,,,,,,,,0.59944,1,,,,,,7,WORD,UN,16,abrupt,ANCHOR,m,,,,,,-0.022135417,-0.440104167,0,0,0,,0,227,227,186,1
,,,,,,,,,,,,,,,,,,5c4c488a620ba700010c054d,2020-11-25_16h36.49.552,lexical_decision_task_MP_exp2,2020.2.5,Win32,60,m,1,0.43693,,,,,,,,0.43693,1,,,,,,119,WORD,"ID",33,spider,SPIDER,m,,,,,,-0.022135417,-0.440104167,0,0,0,,0,228,228,58,1
,,,,,,,,,,,,,,,,,,5c4c488a620ba700010c054d,2020-11-25_16h36.49.552,lexical_decision_task_MP_exp2,2020.2.5,Win32,60,m,0,0.381175,,,,,,,,0.381175,0,,,,,,386,NW,"ID",16,ancust,ANCUST,z,,,,,,-0.022135417,-0.440104167,0,0,0,,0,229,229,325,1
,,,,,,,,,,,,,,,,,,5c4c488a620ba700010c054d,2020-11-25_16h36.49.552,lexical_decision_task_MP_exp2,2020.2.5,Win32,60,m,1,0.90173,,,,,,,,0.90173,1,,,,,,239,WORD,UN,33,forest,LUMBER,m,,,,,,-0.022135417,-0.440104167,0,0,0,,0,230,230,178,1
,,,,,,,,,,,,,,,,,,5c4c488a620ba700010c054d,2020-11-25_16h36.49.552,lexical_decision_task_MP_exp2,2020.2.5,Win32,60,m,0,0.807545,,,,,,,,0.807545,0,,,,,,353,NW,"ID",33,clurey,CLUREY,z,,,,,,-0.022135417,-0.440104167,0,0,0,,0,231,231,292,1
,,,,,,,,,,,,,,,,,,5c4c488a620ba700010c054d,2020-11-25_16h36.49.552,lexical_decision_task_MP_exp2,2020.2.5,Win32,60,z,1,1.3841,,,,,,,,1.3841,1,,,,,,419,NW,"ID",16,slount,SLOUNT,z,,,,,,-0.022135417,-0.440104167,0,0,0,,0,232,232,358,1
,,,,,,,,,,,,,,,,,,5c4c488a620ba700010c054d,2020-11-25_16h36.49.552,lexical_decision_task_MP_exp2,2020.2.5,Win32,60,z,1,0.633665,,,,,,,,0.633665,1,,,,,,298,NW,UN,16,sturch,PIERGY,z,,,,,,-0.022135417,-0.440104167,0,0,0,,0,233,233,477,1
,,,,,,,,,,,,,,,,,,5c4c488a620ba700010c054d,2020-11-25_16h36.49.552,lexical_decision_task_MP_exp2,2020.2.5,Win32,60,z,1,1.01455,,,,,,,,1.01455,1,,,,,,470,NW,UN,33,nobest,CRUDIO,z,,,,,,-0.022135417,-0.440104167,0,0,0,,0,234,234,409,1
,,,,,,,,,,,,,,,,,,5c4c488a620ba700010c054d,2020-11-25_16h36.49.552,lexical_decision_task_MP_exp2,2020.2.5,Win32,60,z,0,0.51289,,,,,,,,0.51289,0,,,,,,137,WORD,"ID",16,finger,FINGER,m,,,,,,-0.022135417,-0.440104167,0,0,0,,0,235,235,76,1
,,,,,,,,,,,,,,,,,,5c4c488a620ba700010c054d,2020-11-25_16h36.49.552,lexical_decision_task_MP_exp2,2020.2.5,Win32,60,z,1,0.768755,,,,,,,,0.768755,1,,,,,,435,NW,UN,33,frutan,IMPURB,z,,,,,,-0.022135417,-0.440104167,0,0,0,,0,236,236,374,1
,,,,,,,,,,,,,,,,,,5c4c488a620ba700010c054d,2020-11-25_16h36.49.552,lexical_decision_task_MP_exp2,2020.2.5,Win32,60,m,0,0.86533,,,,,,,,0.86533,0,,,,,,431,NW,UN,33,lunker,CHRUMS,z,,,,,,-0.022135417,-0.440104167,0,0,0,,0,237,237,370,1
,,,,,,,,,,,,,,,,,,5c4c488a620ba700010c054d,2020-11-25_16h36.49.552,lexical_decision_task_MP_exp2,2020.2.5,Win32,60,z,0,0.915015,,,,,,,,0.915015,0,,,,,,82,WORD,"ID",33,stigma,STIGMA,m,,,,,,-0.022135417,-0.440104167,0,0,0,,0,238,238,21,1
,,,,,,,,,,,,,,,,,,5c4c488a620ba700010c054d,2020-11-25_16h36.49.552,lexical_decision_task_MP_exp2,2020.2.5,Win32,60,z,1,0.53588,,,,,,,,0.53588,1,,,,,,448,NW,UN,33,brunge,SADENT,z,,,,,,-0.022135417,-0.440104167,0,0,0,,0,239,239,387,1
,,,,,,,,,,,,,,,,,,5c4c488a620ba700010c054d,2020-11-25_16h36.49.552,lexical_decision_task_MP_exp2,2020.2.5,Win32,60,m,1,0.73123,,,,,,,,0.73123,1,,,,,,28,WORD,UN,16,sketch,COMEDY,m,,,,,,-0.022135417,-0.440104167,0,0,0,,0,240,240,207,1
,,,,,,,,,,,,,,,,,,5c4c488a620ba700010c054d,2020-11-25_16h36.49.552,lexical_decision_task_MP_exp2,2020.2.5,Win32,60,z,1,0.696895,,,,,,,,0.696895,1,,,,,,344,NW,"ID",33,scrily,SCRILY,z,,,,,,-0.022135417,-0.440104167,0,0,0,,0,241,241,283,1
,,,,,,,,,,,,,,,,,,5c4c488a620ba700010c054d,2020-11-25_16h36.49.552,lexical_decision_task_MP_exp2,2020.2.5,Win32,60,z,1,0.55252,,,,,,,,0.55252,1,,,,,,480,NW,UN,33,knisma,ROBULY,z,,,,,,-0.022135417,-0.440104167,0,0,0,,0,242,242,419,1
,,,,,,,,,,,,,,,,,,5c4c488a620ba700010c054d,2020-11-25_16h36.49.552,lexical_decision_task_MP_exp2,2020.2.5,Win32,60,m,1,0.57941,,,,,,,,0.57941,1,,,,,,29,WORD,UN,16,orient,SKETCH,m,,,,,,-0.022135417,-0.440104167,0,0,0,,0,243,243,208,1
,,,,,,,,,,,,,,,,,,5c4c488a620ba700010c054d,2020-11-25_16h36.49.552,lexical_decision_task_MP_exp2,2020.2.5,Win32,60,m,0,0.598155,,,,,,,,0.598155,0,,,,,,284,NW,UN,16,prudge,SHAPLE,z,,,,,,-0.022135417,-0.440104167,0,0,0,,0,244,244,463,1
,,,,,,,,,,,,,,,,,,5c4c488a620ba700010c054d,2020-11-25_16h36.49.552,lexical_decision_task_MP_exp2,2020.2.5,Win32,60,z,1,0.63755,,,,,,,,0.63755,1,,,,,,465,NW,UN,33,bafent,WHIVEX,z,,,,,,-0.022135417,-0.440104167,0,0,0,,0,245,245,404,1
,,,,,,,,,,,,,,,,,,5c4c488a620ba700010c054d,2020-11-25_16h36.49.552,lexical_decision_task_MP_exp2,2020.2.5,Win32,60,m,0,0.569405,,,,,,,,0.569405,0,,,,,,282,NW,UN,16,veralf,PORLEX,z,,,,,,-0.022135417,-0.440104167,0,0,0,,0,246,246,461,1
,,,,,,,,,,,,,,,,,,5c4c488a620ba700010c054d,2020-11-25_16h36.49.552,lexical_decision_task_MP_exp2,2020.2.5,Win32,60,z,1,0.64713,,,,,,,,0.64713,1,,,,,,374,NW,"ID",16,sliant,SLIANT,z,,,,,,-0.022135417,-0.440104167,0,0,0,,0,247,247,313,1
,,,,,,,,,,,,,,,,,,5c4c488a620ba700010c054d,2020-11-25_16h36.49.552,lexical_decision_task_MP_exp2,2020.2.5,Win32,60,m,0,0.582885,,,,,,,,0.582885,0,,,,,,458,NW,UN,33,hocite,BARCET,z,,,,,,-0.022135417,-0.440104167,0,0,0,,0,248,248,397,1
,,,,,,,,,,,,,,,,,,5c4c488a620ba700010c054d,2020-11-25_16h36.49.552,lexical_decision_task_MP_exp2,2020.2.5,Win32,60,m,0,0.73722,,,,,,,,0.73722,0,,,,,,427,NW,UN,33,tandly,SCHIND,z,,,,,,-0.022135417,-0.440104167,0,0,0,,0,249,249,366,1
,,,,,,,,,,,,,,,,,,5c4c488a620ba700010c054d,2020-11-25_16h36.49.552,lexical_decision_task_MP_exp2,2020.2.5,Win32,60,z,1,0.46454,,,,,,,,0.46454,1,,,,,,271,NW,UN,16,damilt,AUBRID,z,,,,,,-0.022135417,-0.440104167,0,0,0,,0,250,250,450,1
,,,,,,,,,,,,,,,,,,5c4c488a620ba700010c054d,2020-11-25_16h36.49.552,lexical_decision_task_MP_exp2,2020.2.5,Win32,60,m,1,0.247605,,,,,,,,0.247605,1,,,,,,118,WORD,"ID",33,flight,FLIGHT,m,,,,,,-0.022135417,-0.440104167,0,0,0,,0,251,251,57,1
,,,,,,,,,,,,,,,,,,5c4c488a620ba700010c054d,2020-11-25_16h36.49.552,lexical_decision_task_MP_exp2,2020.2.5,Win32,60,z,1,0.70319,,,,,,,,0.70319,1,,,,,,327,NW,"ID",33,plenac,PLENAC,z,,,,,,-0.022135417,-0.440104167,0,0,0,,0,252,252,266,1
,,,,,,,,,,,,,,,,,,5c4c488a620ba700010c054d,2020-11-25_16h36.49.552,lexical_decision_task_MP_exp2,2020.2.5,Win32,60,z,1,0.63413,,,,,,,,0.63413,1,,,,,,266,NW,UN,16,pasink,VARMIT,z,,,,,,-0.022135417,-0.440104167,0,0,0,,0,253,253,445,1
,,,,,,,,,,,,,,,,,,5c4c488a620ba700010c054d,2020-11-25_16h36.49.552,lexical_decision_task_MP_exp2,2020.2.5,Win32,60,z,0,1.20815,,,,,,,,1.20815,0,,,,,,125,WORD,"ID",16,nickel,NICKEL,m,,,,,,-0.022135417,-0.440104167,0,0,0,,0,254,254,64,1
,,,,,,,,,,,,,,,,,,5c4c488a620ba700010c054d,2020-11-25_16h36.49.552,lexical_decision_task_MP_exp2,2020.2.5,Win32,60,z,1,1.163855,,,,,,,,1.163855,1,,,,,,356,NW,"ID",33,othnis,OTHNIS,z,,,,,,-0.022135417,-0.440104167,0,0,0,,0,255,255,295,1
,,,,,,,,,,,,,,,,,,5c4c488a620ba700010c054d,2020-11-25_16h36.49.552,lexical_decision_task_MP_exp2,2020.2.5,Win32,60,m,1,0.4812,,,,,,,,0.4812,1,,,,,,65,WORD,"ID",33,symbol,SYMBOL,m,,,,,,-0.022135417,-0.440104167,0,0,0,,0,256,256,4,1
,,,,,,,,,,,,,,,,,,5c4c488a620ba700010c054d,2020-11-25_16h36.49.552,lexical_decision_task_MP_exp2,2020.2.5,Win32,60,m,1,1.335555,,,,,,,,1.335555,1,,,,,,139,WORD,"ID",16,debris,DEBRIS,m,,,,,,-0.022135417,-0.440104167,0,0,0,,0,257,257,78,1
,,,,,,,,,,,,,,,,,,5c4c488a620ba700010c054d,2020-11-25_16h36.49.552,lexical_decision_task_MP_exp2,2020.2.5,Win32,60,z,1,0.74794,,,,,,,,0.74794,1,,,,,,351,NW,"ID",33,tiesch,TIESCH,z,,,,,,-0.022135417,-0.440104167,0,0,0,,0,258,258,290,1
,,,,,,,,,,,,,,,,,,5c4c488a620ba700010c054d,2020-11-25_16h36.49.552,lexical_decision_task_MP_exp2,2020.2.5,Win32,60,m,1,0.619045,,,,,,,,0.619045,1,,,,,,81,WORD,"ID",33,friend,FRIEND,m,,,,,,-0.022135417,-0.440104167,0,0,0,,0,259,259,20,1
,,,,,,,,,,,,,,,,,,5c4c488a620ba700010c054d,2020-11-25_16h36.49.552,lexical_decision_task_MP_exp2,2020.2.5,Win32,60,m,0,0.716315,,,,,,,,0.716315,0,,,,,,449,NW,UN,33,phrect,BRUNGE,z,,,,,,-0.022135417,-0.440104167,0,0,0,,0,260,260,388,1
,,,,,,,,,,,,,,,,,,5c4c488a620ba700010c054d,2020-11-25_16h36.49.552,lexical_decision_task_MP_exp2,2020.2.5,Win32,60,m,1,0.51421,,,,,,,,0.51421,1,,,,,,163,WORD,"ID",16,string,STRING,m,,,,,,-0.022135417,-0.440104167,0,0,0,,0,261,261,102,1
,,,,,,,,,,,,,,,,,,5c4c488a620ba700010c054d,2020-11-25_16h36.49.552,lexical_decision_task_MP_exp2,2020.2.5,Win32,60,m,0,0.631815,,,,,,,,0.631815,0,,,,,,322,NW,"ID",33,slanch,SLANCH,z,,,,,,-0.022135417,-0.440104167,0,0,0,,0,262,262,261,1
,,,,,,,,,,,,,,,,,,5c4c488a620ba700010c054d,2020-11-25_16h36.49.552,lexical_decision_task_MP_exp2,2020.2.5,Win32,60,m,0,0.57976,,,,,,,,0.57976,0,,,,,,348,NW,"ID",33,dumple,DUMPLE,z,,,,,,-0.022135417,-0.440104167,0,0,0,,0,263,263,287,1
,,,,,,,,,,,,,,,,,,5c4c488a620ba700010c054d,2020-11-25_16h36.49.552,lexical_decision_task_MP_exp2,2020.2.5,Win32,60,m,1,0.585585,,,,,,,,0.585585,1,,,,,,15,WORD,UN,16,faucet,AMOUNT,m,,,,,,-0.022135417,-0.440104167,0,0,0,,0,264,264,194,1
,,,,,,,,,,,,,,,,,,5c4c488a620ba700010c054d,2020-11-25_16h36.49.552,lexical_decision_task_MP_exp2,2020.2.5,Win32,60,m,1,0.548255,,,,,,,,0.548255,1,,,,,,108,WORD,"ID",33,reckon,RECKON,m,,,,,,-0.022135417,-0.440104167,0,0,0,,0,265,265,47,1
,,,,,,,,,,,,,,,,,,5c4c488a620ba700010c054d,2020-11-25_16h36.49.552,lexical_decision_task_MP_exp2,2020.2.5,Win32,60,m,1,0.984435,,,,,,,,0.984435,1,,,,,,89,WORD,"ID",33,permit,PERMIT,m,,,,,,-0.022135417,-0.440104167,0,0,0,,0,266,266,28,1
,,,,,,,,,,,,,,,,,,5c4c488a620ba700010c054d,2020-11-25_16h36.49.552,lexical_decision_task_MP_exp2,2020.2.5,Win32,60,m,1,0.46474,,,,,,,,0.46474,1,,,,,,94,WORD,"ID",33,travel,TRAVEL,m,,,,,,-0.022135417,-0.440104167,0,0,0,,0,267,267,33,1
,,,,,,,,,,,,,,,,,,5c4c488a620ba700010c054d,2020-11-25_16h36.49.552,lexical_decision_task_MP_exp2,2020.2.5,Win32,60,m,1,0.597805,,,,,,,,0.597805,1,,,,,,220,WORD,UN,33,mascot,VOYAGE,m,,,,,,-0.022135417,-0.440104167,0,0,0,,0,268,268,159,1
,,,,,,,,,,,,,,,,,,5c4c488a620ba700010c054d,2020-11-25_16h36.49.552,lexical_decision_task_MP_exp2,2020.2.5,Win32,60,m,1,0.030225,,,,,,,,0.030225,1,,,,,,170,WORD,"ID",16,pounce,POUNCE,m,,,,,,-0.022135417,-0.440104167,0,0,0,,0,269,269,109,1
,,,,,,,,,,,,,,,,,,5c4c488a620ba700010c054d,2020-11-25_16h36.49.552,lexical_decision_task_MP_exp2,2020.2.5,Win32,60,m,1,0.831665,,,,,,,,0.831665,1,,,,,,58,WORD,UN,16,splint,FOSTER,m,,,,,,-0.022135417,-0.440104167,0,0,0,,0,270,270,237,1
,,,,,,,,,,,,,,,,,,5c4c488a620ba700010c054d,2020-11-25_16h36.49.552,lexical_decision_task_MP_exp2,2020.2.5,Win32,60,m,1,0.92243,,,,,,,,0.92243,1,,,,,,212,WORD,UN,33,squeal,VERIFY,m,,,,,,-0.022135417,-0.440104167,0,0,0,,0,271,271,151,1
,,,,,,,,,,,,,,,,,,5c4c488a620ba700010c054d,2020-11-25_16h36.49.552,lexical_decision_task_MP_exp2,2020.2.5,Win32,60,m,1,1.006115,,,,,,,,1.006115,1,,,,,,185,WORD,UN,33,portal,BOTHER,m,,,,,,-0.022135417,-0.440104167,0,0,0,,0,272,272,124,1
,,,,,,,,,,,,,,,,,,5c4c488a620ba700010c054d,2020-11-25_16h36.49.552,lexical_decision_task_MP_exp2,2020.2.5,Win32,60,z,1,1.61718,,,,,,,,1.61718,1,,,,,,455,NW,UN,33,broget,TONDLE,z,,,,,,-0.022135417,-0.440104167,0,0,0,,0,273,273,394,1
,,,,,,,,,,,,,,,,,,5c4c488a620ba700010c054d,2020-11-25_16h36.49.552,lexical_decision_task_MP_exp2,2020.2.5,Win32,60,z,1,0.91627,,,,,,,,0.91627,1,,,,,,350,NW,"ID",33,nagurs,NAGURS,z,,,,,,-0.022135417,-0.440104167,0,0,0,,0,274,274,289,1
,,,,,,,,,,,,,,,,,,5c4c488a620ba700010c054d,2020-11-25_16h36.49.552,lexical_decision_task_MP_exp2,2020.2.5,Win32,60,,0,,,,,,,,,0.91627,-1,,,,,,403,NW,"ID",16,bruats,BRUATS,z,,,,,,-0.022135417,-0.440104167,0,0,0,,0,275,275,342,1
,,,,,,,,,,,,,,,,,,5c4c488a620ba700010c054d,2020-11-25_16h36.49.552,lexical_decision_task_MP_exp2,2020.2.5,Win32,60,m,1,0.63966,,,,,,,,0.63966,1,,,,,,74,WORD,"ID",33,plaque,PLAQUE,m,,,,,,-0.022135417,-0.440104167,0,0,0,,0,276,276,13,1
,,,,,,,,,,,,,,,,,,5c4c488a620ba700010c054d,2020-11-25_16h36.49.552,lexical_decision_task_MP_exp2,2020.2.5,Win32,60,m,1,1.13456,,,,,,,,1.13456,1,,,,,,46,WORD,UN,16,income,SINGLE,m,,,,,,-0.022135417,-0.440104167,0,0,0,,0,277,277,225,1
,,,,,,,,,,,,,,,,,,5c4c488a620ba700010c054d,2020-11-25_16h36.49.552,lexical_decision_task_MP_exp2,2020.2.5,Win32,60,z,1,0.88667,,,,,,,,0.88667,1,,,,,,253,NW,UN,16,varosh,RESAIT,z,,,,,,-0.022135417,-0.440104167,0,0,0,,0,278,278,432,1
,,,,,,,,,,,,,,,,,,5c4c488a620ba700010c054d,2020-11-25_16h36.49.552,lexical_decision_task_MP_exp2,2020.2.5,Win32,60,m,0,0.79926,,,,,,,,0.79926,0,,,,,,310,NW,"ID",33,daniet,DANIET,z,,,,,,-0.022135417,-0.440104167,0,0,0,,0,279,279,249,1
,,,,,,,,,,,,,,,,,,5c4c488a620ba700010c054d,2020-11-25_16h36.49.552,lexical_decision_task_MP_exp2,2020.2.5,Win32,60,z,1,1.287475,,,,,,,,1.287475,1,,,,,,389,NW,"ID",16,witmer,WITMER,z,,,,,,-0.022135417,-0.440104167,0,0,0,,0,280,280,328,1
,,,,,,,,,,,,,,,,,,5c4c488a620ba700010c054d,2020-11-25_16h36.49.552,lexical_decision_task_MP_exp2,2020.2.5,Win32,60,z,1,0.61549,,,,,,,,0.61549,1,,,,,,311,NW,"ID",33,sproly,SPROLY,z,,,,,,-0.022135417,-0.440104167,0,0,0,,0,281,281,250,1
,,,,,,,,,,,,,,,,,,5c4c488a620ba700010c054d,2020-11-25_16h36.49.552,lexical_decision_task_MP_exp2,2020.2.5,Win32,60,z,1,0.465775,,,,,,,,0.465775,1,,,,,,468,NW,UN,33,padifs,WICTOR,z,,,,,,-0.022135417,-0.440104167,0,0,0,,0,282,282,407,1
,,,,,,,,,,,,,,,,,,5c4c488a620ba700010c054d,2020-11-25_16h36.49.552,lexical_decision_task_MP_exp2,2020.2.5,Win32,60,z,0,0.265015,,,,,,,,0.265015,0,,,,,,155,WORD,"ID",16,lizard,LIZARD,m,,,,,,-0.022135417,-0.440104167,0,0,0,,0,283,283,94,1
,,,,,,,,,,,,,,,,,,5c4c488a620ba700010c054d,2020-11-25_16h36.49.552,lexical_decision_task_MP_exp2,2020.2.5,Win32,60,m,1,0.314845,,,,,,,,0.314845,1,,,,,,120,WORD,"ID",33,strain,STRAIN,m,,,,,,-0.022135417,-0.440104167,0,0,0,,0,284,284,59,1
,,,,,,,,,,,,,,,,,,5c4c488a620ba700010c054d,2020-11-25_16h36.49.552,lexical_decision_task_MP_exp2,2020.2.5,Win32,60,m,1,0.31688,,,,,,,,0.31688,1,,,,,,99,WORD,"ID",33,fluent,FLUENT,m,,,,,,-0.022135417,-0.440104167,0,0,0,,0,285,285,38,1
,,,,,,,,,,,,,,,,,,5c4c488a620ba700010c054d,2020-11-25_16h36.49.552,lexical_decision_task_MP_exp2,2020.2.5,Win32,60,m,0,0.685315,,,,,,,,0.685315,0,,,,,,360,NW,"ID",33,desory,DESORY,z,,,,,,-0.022135417,-0.440104167,0,0,0,,0,286,286,299,1
,,,,,,,,,,,,,,,,,,5c4c488a620ba700010c054d,2020-11-25_16h36.49.552,lexical_decision_task_MP_exp2,2020.2.5,Win32,60,z,0,0.25593,,,,,,,,0.25593,0,,,,,,54,WORD,UN,16,stroke,RAMBLE,m,,,,,,-0.022135417,-0.440104167,0,0,0,,0,287,287,233,1
,,,,,,,,,,,,,,,,,,5c4c488a620ba700010c054d,2020-11-25_16h36.49.552,lexical_decision_task_MP_exp2,2020.2.5,Win32,60,z,1,0.78175,,,,,,,,0.78175,1,,,,,,450,NW,UN,33,cainky,PHRECT,z,,,,,,-0.022135417,-0.440104167,0,0,0,,0,288,288,389,1
,,,,,,,,,,,,,,,,,,5c4c488a620ba700010c054d,2020-11-25_16h36.49.552,lexical_decision_task_MP_exp2,2020.2.5,Win32,60,z,1,0.534655,,,,,,,,0.534655,1,,,,,,332,NW,"ID",33,vangue,VANGUE,z,,,,,,-0.022135417,-0.440104167,0,0,0,,0,289,289,271,1
,,,,,,,,,,,,,,,,,,5c4c488a620ba700010c054d,2020-11-25_16h36.49.552,lexical_decision_task_MP_exp2,2020.2.5,Win32,60,m,0,0.564385,,,,,,,,0.564385,0,,,,,,434,NW,UN,33,impurb,PITROM,z,,,,,,-0.022135417,-0.440104167,0,0,0,,0,290,290,373,1
,,,,,,,,,,,,,,,,,,5c4c488a620ba700010c054d,2020-11-25_16h36.49.552,lexical_decision_task_MP_exp2,2020.2.5,Win32,60,z,1,1.398025,,,,,,,,1.398025,1,,,,,,454,NW,UN,33,tondle,SCOUGE,z,,,,,,-0.022135417,-0.440104167,0,0,0,,0,291,291,393,1
,,,,,,,,,,,,,,,,,,5c4c488a620ba700010c054d,2020-11-25_16h36.49.552,lexical_decision_task_MP_exp2,2020.2.5,Win32,60,z,0,0.55415,,,,,,,,0.55415,0,,,,,,71,WORD,"ID",33,garden,GARDEN,m,,,,,,-0.022135417,-0.440104167,0,0,0,,0,292,292,10,1
,,,,,,,,,,,,,,,,,,5c4c488a620ba700010c054d,2020-11-25_16h36.49.552,lexical_decision_task_MP_exp2,2020.2.5,Win32,60,m,0,0.530315,,,,,,,,0.530315,0,,,,,,377,NW,"ID",16,injore,INJORE,z,,,,,,-0.022135417,-0.440104167,0,0,0,,0,293,293,316,1
,,,,,,,,,,,,,,,,,,5c4c488a620ba700010c054d,2020-11-25_16h36.49.552,lexical_decision_task_MP_exp2,2020.2.5,Win32,60,m,0,1.00379,,,,,,,,1.00379,0,,,,,,417,NW,"ID",16,earoud,EAROUD,z,,,,,,-0.022135417,-0.440104167,0,0,0,,0,294,294,356,1
,,,,,,,,,,,,,,,,,,5c4c488a620ba700010c054d,2020-11-25_16h36.49.552,lexical_decision_task_MP_exp2,2020.2.5,Win32,60,z,1,1.263375,,,,,,,,1.263375,1,,,,,,418,NW,"ID",16,suidle,SUIDLE,z,,,,,,-0.022135417,-0.440104167,0,0,0,,0,295,295,357,1
,,,,,,,,,,,,,,,,,,5c4c488a620ba700010c054d,2020-11-25_16h36.49.552,lexical_decision_task_MP_exp2,2020.2.5,Win32,60,z,0,0.744915,,,,,,,,0.744915,0,,,,,,40,WORD,UN,16,spring,CONVEY,m,,,,,,-0.022135417,-0.440104167,0,0,0,,0,296,296,219,1
,,,,,,,,,,,,,,,,,,5c4c488a620ba700010c054d,2020-11-25_16h36.49.552,lexical_decision_task_MP_exp2,2020.2.5,Win32,60,m,1,0.730575,,,,,,,,0.730575,1,,,,,,95,WORD,"ID",33,thread,THREAD,m,,,,,,-0.022135417,-0.440104167,0,0,0,,0,297,297,34,1
,,,,,,,,,,,,,,,,,,5c4c488a620ba700010c054d,2020-11-25_16h36.49.552,lexical_decision_task_MP_exp2,2020.2.5,Win32,60,m,1,0.58712,,,,,,,,0.58712,1,,,,,,151,WORD,"ID",16,mystic,MYSTIC,m,,,,,,-0.022135417,-0.440104167,0,0,0,,0,298,298,90,1
,,,,,,,,,,,,,,,,,,5c4c488a620ba700010c054d,2020-11-25_16h36.49.552,lexical_decision_task_MP_exp2,2020.2.5,Win32,60,m,1,0.503355,,,,,,,,0.503355,1,,,,,,3,WORD,UN,16,trench,KNIGHT,m,,,,,,-0.022135417,-0.440104167,0,0,0,,0,299,299,182,1
,,,,,,,,,,,,,,,,,,5c4c488a620ba700010c054d,2020-11-25_16h36.49.552,lexical_decision_task_MP_exp2,2020.2.5,Win32,60,z,1,1.221575,,,,,,,,1.221575,1,,,,,,346,NW,"ID",33,saudic,SAUDIC,z,,,,,,-0.022135417,-0.440104167,0,0,0,,0,300,300,285,1
,,,,,,,,,,,,,,,,,,5c4c488a620ba700010c054d,2020-11-25_16h36.49.552,lexical_decision_task_MP_exp2,2020.2.5,Win32,60,z,1,1.895935,,,,,,,,1.895935,1,,,,,,400,NW,"ID",16,wearox,WEAROX,z,,,,,,-0.022135417,-0.440104167,0,0,0,,0,301,301,339,1
,,,,,,,,,,,,,,,,,,5c4c488a620ba700010c054d,2020-11-25_16h36.49.552,lexical_decision_task_MP_exp2,2020.2.5,Win32,60,z,1,1.27906,,,,,,,,1.27906,1,,,,,,250,NW,UN,16,lupict,MILTED,z,,,,,,-0.022135417,-0.440104167,0,0,0,,0,302,302,429,1
,,,,,,,,,,,,,,,,,,5c4c488a620ba700010c054d,2020-11-25_16h36.49.552,lexical_decision_task_MP_exp2,2020.2.5,Win32,60,z,1,1.063745,,,,,,,,1.063745,1,,,,,,474,NW,UN,33,acrise,HABLIN,z,,,,,,-0.022135417,-0.440104167,0,0,0,,0,303,303,413,1
,,,,,,,,,,,,,,,,,,5c4c488a620ba700010c054d,2020-11-25_16h36.49.552,lexical_decision_task_MP_exp2,2020.2.5,Win32,60,m,1,0.73704,,,,,,,,0.73704,1,,,,,,159,WORD,"ID",16,detail,DETAIL,m,,,,,,-0.022135417,-0.440104167,0,0,0,,0,304,304,98,1
,,,,,,,,,,,,,,,,,,5c4c488a620ba700010c054d,2020-11-25_16h36.49.552,lexical_decision_task_MP_exp2,2020.2.5,Win32,60,m,1,0.497925,,,,,,,,0.497925,1,,,,,,229,WORD,UN,33,fringe,MOTHER,m,,,,,,-0.022135417,-0.440104167,0,0,0,,0,305,305,168,1
,,,,,,,,,,,,,,,,,,5c4c488a620ba700010c054d,2020-11-25_16h36.49.552,lexical_decision_task_MP_exp2,2020.2.5,Win32,60,z,1,0.898765,,,,,,,,0.898765,1,,,,,,463,NW,UN,33,chaite,KISPEL,z,,,,,,-0.022135417,-0.440104167,0,0,0,,0,306,306,402,1
,,,,,,,,,,,,,,,,,,5c4c488a620ba700010c054d,2020-11-25_16h36.49.552,lexical_decision_task_MP_exp2,2020.2.5,Win32,60,z,1,0.987775,,,,,,,,0.987775,1,,,,,,376,NW,"ID",16,iguare,IGUARE,z,,,,,,-0.022135417,-0.440104167,0,0,0,,0,307,307,315,1
,,,,,,,,,,,,,,,,,,5c4c488a620ba700010c054d,2020-11-25_16h36.49.552,lexical_decision_task_MP_exp2,2020.2.5,Win32,60,m,1,0.81566,,,,,,,,0.81566,1,,,,,,164,WORD,"ID",16,market,MARKET,m,,,,,,-0.022135417,-0.440104167,0,0,0,,0,308,308,103,1
,,,,,,,,,,,,,,,,,,5c4c488a620ba700010c054d,2020-11-25_16h36.49.552,lexical_decision_task_MP_exp2,2020.2.5,Win32,60,m,1,0.53985,,,,,,,,0.53985,1,,,,,,31,WORD,UN,16,buckle,WEAPON,m,,,,,,-0.022135417,-0.440104167,0,0,0,,0,309,309,210,1
,,,,,,,,,,,,,,,,,,5c4c488a620ba700010c054d,2020-11-25_16h36.49.552,lexical_decision_task_MP_exp2,2020.2.5,Win32,60,z,1,0.971015,,,,,,,,0.971015,1,,,,,,261,NW,UN,16,quilew,STUNCH,z,,,,,,-0.022135417,-0.440104167,0,0,0,,0,310,310,440,1
,,,,,,,,,,,,,,,,,,5c4c488a620ba700010c054d,2020-11-25_16h36.49.552,lexical_decision_task_MP_exp2,2020.2.5,Win32,60,z,1,0.748,,,,,,,,0.748,1,,,,,,363,NW,"ID",16,breali,BREALI,z,,,,,,-0.022135417,-0.440104167,0,0,0,,0,311,311,302,1
,,,,,,,,,,,,,,,,,,5c4c488a620ba700010c054d,2020-11-25_16h36.49.552,lexical_decision_task_MP_exp2,2020.2.5,Win32,60,m,1,0.74856,,,,,,,,0.74856,1,,,,,,10,WORD,UN,16,cruise,ETHNIC,m,,,,,,-0.022135417,-0.440104167,0,0,0,,0,312,312,189,1
,,,,,,,,,,,,,,,,,,5c4c488a620ba700010c054d,2020-11-25_16h36.49.552,lexical_decision_task_MP_exp2,2020.2.5,Win32,60,m,1,0.700895,,,,,,,,0.700895,1,,,,,,223,WORD,UN,33,period,KIDNEY,m,,,,,,-0.022135417,-0.440104167,0,0,0,,0,313,313,162,1
,,,,,,,,,,,,,,,,,,5c4c488a620ba700010c054d,2020-11-25_16h36.49.552,lexical_decision_task_MP_exp2,2020.2.5,Win32,60,m,0,1.813215,,,,,,,,1.813215,0,,,,,,297,NW,UN,16,piergy,FERTIC,z,,,,,,-0.022135417,-0.440104167,0,0,0,,0,314,314,476,1
,,,,,,,,,,,,,,,,,,5c4c488a620ba700010c054d,2020-11-25_16h36.49.552,lexical_decision_task_MP_exp2,2020.2.5,Win32,60,z,1,0.80393,,,,,,,,0.80393,1,,,,,,340,NW,"ID",33,fiatch,FIATCH,z,,,,,,-0.022135417,-0.440104167,0,0,0,,0,315,315,279,1
,,,,,,,,,,,,,,,,,,5c4c488a620ba700010c054d,2020-11-25_16h36.49.552,lexical_decision_task_MP_exp2,2020.2.5,Win32,60,z,0,0.579365,,,,,,,,0.579365,0,,,,,,181,WORD,UN,33,winter,GLANCE,m,,,,,,-0.022135417,-0.440104167,0,0,0,,0,316,316,120,1
,,,,,,,,,,,,,,,,,,5c4c488a620ba700010c054d,2020-11-25_16h36.49.552,lexical_decision_task_MP_exp2,2020.2.5,Win32,60,m,1,0.49912,,,,,,,,0.49912,1,,,,,,53,WORD,UN,16,ramble,POLICE,m,,,,,,-0.022135417,-0.440104167,0,0,0,,0,317,317,232,1
,,,,,,,,,,,,,,,,,,5c4c488a620ba700010c054d,2020-11-25_16h36.49.552,lexical_decision_task_MP_exp2,2020.2.5,Win32,60,m,1,0.448785,,,,,,,,0.448785,1,,,,,,237,WORD,UN,33,glance,POSTER,m,,,,,,-0.022135417,-0.440104167,0,0,0,,0,318,318,176,1
,,,,,,,,,,,,,,,,,,5c4c488a620ba700010c054d,2020-11-25_16h36.49.552,lexical_decision_task_MP_exp2,2020.2.5,Win32,60,m,1,0.748535,,,,,,,,0.748535,1,,,,,,207,WORD,UN,33,hockey,WREATH,m,,,,,,-0.022135417,-0.440104167,0,0,0,,0,319,319,146,1
,,,,,,,,,,,,,,,,,,5c4c488a620ba700010c054d,2020-11-25_16h36.49.552,lexical_decision_task_MP_exp2,2020.2.5,Win32,60,m,1,0.6004,,,,,,,,0.6004,1,,,,,,4,WORD,UN,16,plunge,TRENCH,m,,,,,,-0.022135417,-0.440104167,0,0,0,,0,320,320,183,1
,,,,,,,,,,,,,,,,,,5c4c488a620ba700010c054d,2020-11-25_16h36.49.552,lexical_decision_task_MP_exp2,2020.2.5,Win32,60,z,1,0.948435,,,,,,,,0.948435,1,,,,,,329,NW,"ID",33,yarike,YARIKE,z,,,,,,-0.022135417,-0.440104167,0,0,0,,0,321,321,268,1
,,,,,,,,,,,,,,,,,,5c4c488a620ba700010c054d,2020-11-25_16h36.49.552,lexical_decision_task_MP_exp2,2020.2.5,Win32,60,,0,,,,,,,,,0.948435,-1,,,,,,462,NW,UN,33,kispel,ABSULT,z,,,,,,-0.022135417,-0.440104167,0,0,0,,0,322,322,401,1
,,,,,,,,,,,,,,,,,,5c4c488a620ba700010c054d,2020-11-25_16h36.49.552,lexical_decision_task_MP_exp2,2020.2.5,Win32,60,z,1,0.87997,,,,,,,,0.87997,1,,,,,,299,NW,UN,16,yarion,STURCH,z,,,,,,-0.022135417,-0.440104167,0,0,0,,0,323,323,478,1
,,,,,,,,,,,,,,,,,,5c4c488a620ba700010c054d,2020-11-25_16h36.49.552,lexical_decision_task_MP_exp2,2020.2.5,Win32,60,z,0,0.44664,,,,,,,,0.44664,0,,,,,,50,WORD,UN,16,hungry,SNATCH,m,,,,,,-0.022135417,-0.440104167,0,0,0,,0,324,324,229,1
,,,,,,,,,,,,,,,,,,5c4c488a620ba700010c054d,2020-11-25_16h36.49.552,lexical_decision_task_MP_exp2,2020.2.5,Win32,60,z,1,0.536775,,,,,,,,0.536775,1,,,,,,281,NW,UN,16,porlex,MELATY,z,,,,,,-0.022135417,-0.440104167,0,0,0,,0,325,325,460,1
,,,,,,,,,,,,,,,,,,5c4c488a620ba700010c054d,2020-11-25_16h36.49.552,lexical_decision_task_MP_exp2,2020.2.5,Win32,60,z,1,0.869115,,,,,,,,0.869115,1,,,,,,433,NW,UN,33,pitrom,DRANCE,z,,,,,,-0.022135417,-0.440104167,0,0,0,,0,326,326,372,1
,,,,,,,,,,,,,,,,,,5c4c488a620ba700010c054d,2020-11-25_16h36.49.552,lexical_decision_task_MP_exp2,2020.2.5,Win32,60,m,1,1.006955,,,,,,,,1.006955,1,,,,,,18,WORD,UN,16,patron,HUMBLE,m,,,,,,-0.022135417,-0.440104167,0,0,0,,0,327,327,197,1
,,,,,,,,,,,,,,,,,,5c4c488a620ba700010c054d,2020-11-25_16h36.49.552,lexical_decision_task_MP_exp2,2020.2.5,Win32,60,m,1,0.46523,,,,,,,,0.46523,1,,,,,,116,WORD,"ID",33,tumble,TUMBLE,m,,,,,,-0.022135417,-0.440104167,0,0,0,,0,328,328,55,1
,,,,,,,,,,,,,,,,,,5c4c488a620ba700010c054d,2020-11-25_16h36.49.552,lexical_decision_task_MP_exp2,2020.2.5,Win32,60,z,1,0.73654,,,,,,,,0.73654,1,,,,,,432,NW,UN,33,drance,LUNKER,z,,,,,,-0.022135417,-0.440104167,0,0,0,,0,329,329,371,1
,,,,,,,,,,,,,,,,,,5c4c488a620ba700010c054d,2020-11-25_16h36.49.552,lexical_decision_task_MP_exp2,2020.2.5,Win32,60,z,1,1.09771,,,,,,,,1.09771,1,,,,,,259,NW,UN,16,unject,SOUDAL,z,,,,,,-0.022135417,-0.440104167,0,0,0,,0,330,330,438,1
,,,,,,,,,,,,,,,,,,5c4c488a620ba700010c054d,2020-11-25_16h36.49.552,lexical_decision_task_MP_exp2,2020.2.5,Win32,60,m,1,0.69303,,,,,,,,0.69303,1,,,,,,128,WORD,"ID",16,senior,SENIOR,m,,,,,,-0.022135417,-0.440104167,0,0,0,,0,331,331,67,1
,,,,,,,,,,,,,,,,,,5c4c488a620ba700010c054d,2020-11-25_16h36.49.552,lexical_decision_task_MP_exp2,2020.2.5,Win32,60,m,1,0.568615,,,,,,,,0.568615,1,,,,,,127,WORD,"ID",16,castle,CASTLE,m,,,,,,-0.022135417,-0.440104167,0,0,0,,0,332,332,66,1
,,,,,,,,,,,,,,,,,,5c4c488a620ba700010c054d,2020-11-25_16h36.49.552,lexical_decision_task_MP_exp2,2020.2.5,Win32,60,m,1,0.630905,,,,,,,,0.630905,1,,,,,,48,WORD,UN,16,survey,WALNUT,m,,,,,,-0.022135417,-0.440104167,0,0,0,,0,333,333,227,1
,,,,,,,,,,,,,,,,,,5c4c488a620ba700010c054d,2020-11-25_16h36.49.552,lexical_decision_task_MP_exp2,2020.2.5,Win32,60,m,0,0.39936,,,,,,,,0.39936,0,,,,,,391,NW,"ID",16,theldy,THELDY,z,,,,,,-0.022135417,-0.440104167,0,0,0,,0,334,334,330,1
,,,,,,,,,,,,,,,,,,5c4c488a620ba700010c054d,2020-11-25_16h36.49.552,lexical_decision_task_MP_exp2,2020.2.5,Win32,60,z,1,0.88012,,,,,,,,0.88012,1,,,,,,424,NW,UN,33,frudge,PRAILE,z,,,,,,-0.022135417,-0.440104167,0,0,0,,0,335,335,363,1
,,,,,,,,,,,,,,,,,,5c4c488a620ba700010c054d,2020-11-25_16h36.49.552,lexical_decision_task_MP_exp2,2020.2.5,Win32,60,z,0,0.539865,,,,,,,,0.539865,0,,,,,,226,WORD,UN,33,flower,CASINO,m,,,,,,-0.022135417,-0.440104167,0,0,0,,0,336,336,165,1
,,,,,,,,,,,,,,,,,,5c4c488a620ba700010c054d,2020-11-25_16h36.49.552,lexical_decision_task_MP_exp2,2020.2.5,Win32,60,m,1,0.601075,,,,,,,,0.601075,1,,,,,,130,WORD,"ID",16,stupid,STUPID,m,,,,,,-0.022135417,-0.440104167,0,0,0,,0,337,337,69,1
,,,,,,,,,,,,,,,,,,5c4c488a620ba700010c054d,2020-11-25_16h36.49.552,lexical_decision_task_MP_exp2,2020.2.5,Win32,60,m,1,0.79725,,,,,,,,0.79725,1,,,,,,173,WORD,"ID",16,shower,SHOWER,m,,,,,,-0.022135417,-0.440104167,0,0,0,,0,338,338,112,1
,,,,,,,,,,,,,,,,,,5c4c488a620ba700010c054d,2020-11-25_16h36.49.552,lexical_decision_task_MP_exp2,2020.2.5,Win32,60,z,1,1.19744,,,,,,,,1.19744,1,,,,,,473,NW,UN,33,hablin,CRIBLE,z,,,,,,-0.022135417,-0.440104167,0,0,0,,0,339,339,412,1
,,,,,,,,,,,,,,,,,,5c4c488a620ba700010c054d,2020-11-25_16h36.49.552,lexical_decision_task_MP_exp2,2020.2.5,Win32,60,z,1,1.72994,,,,,,,,1.72994,1,,,,,,289,NW,UN,16,splino,STARBY,z,,,,,,-0.022135417,-0.440104167,0,0,0,,0,340,340,468,1
,,,,,,,,,,,,,,,,,,5c4c488a620ba700010c054d,2020-11-25_16h36.49.552,lexical_decision_task_MP_exp2,2020.2.5,Win32,60,z,1,0.746515,,,,,,,,0.746515,1,,,,,,401,NW,"ID",16,mustil,MUSTIL,z,,,,,,-0.022135417,-0.440104167,0,0,0,,0,341,341,340,1
,,,,,,,,,,,,,,,,,,5c4c488a620ba700010c054d,2020-11-25_16h36.49.552,lexical_decision_task_MP_exp2,2020.2.5,Win32,60,z,1,0.598455,,,,,,,,0.598455,1,,,,,,405,NW,"ID",16,flumni,FLUMNI,z,,,,,,-0.022135417,-0.440104167,0,0,0,,0,342,342,344,1
,,,,,,,,,,,,,,,,,,5c4c488a620ba700010c054d,2020-11-25_16h36.49.552,lexical_decision_task_MP_exp2,2020.2.5,Win32,60,z,1,0.566455,,,,,,,,0.566455,1,,,,,,394,NW,"ID",16,spaqux,SPAQUX,z,,,,,,-0.022135417,-0.440104167,0,0,0,,0,343,343,333,1
,,,,,,,,,,,,,,,,,,5c4c488a620ba700010c054d,2020-11-25_16h36.49.552,lexical_decision_task_MP_exp2,2020.2.5,Win32,60,z,1,0.56553,,,,,,,,0.56553,1,,,,,,345,NW,"ID",33,absend,ABSEND,z,,,,,,-0.022135417,-0.440104167,0,0,0,,0,344,344,284,1
,,,,,,,,,,,,,,,,,,5c4c488a620ba700010c054d,2020-11-25_16h36.49.552,lexical_decision_task_MP_exp2,2020.2.5,Win32,60,m,1,0.397915,,,,,,,,0.397915,1,,,,,,110,WORD,"ID",33,polite,POLITE,m,,,,,,-0.022135417,-0.440104167,0,0,0,,0,345,345,49,1
,,,,,,,,,,,,,,,,,,5c4c488a620ba700010c054d,2020-11-25_16h36.49.552,lexical_decision_task_MP_exp2,2020.2.5,Win32,60,m,1,0.55361,,,,,,,,0.55361,1,,,,,,167,WORD,"ID",16,design,DESIGN,m,,,,,,-0.022135417,-0.440104167,0,0,0,,0,346,346,106,1
,,,,,,,,,,,,,,,,,,5c4c488a620ba700010c054d,2020-11-25_16h36.49.552,lexical_decision_task_MP_exp2,2020.2.5,Win32,60,m,1,0.472115,,,,,,,,0.472115,1,,,,,,30,WORD,UN,16,weapon,ORIENT,m,,,,,,-0.022135417,-0.440104167,0,0,0,,0,347,347,209,1
,,,,,,,,,,,,,,,,,,5c4c488a620ba700010c054d,2020-11-25_16h36.49.552,lexical_decision_task_MP_exp2,2020.2.5,Win32,60,m,0,0.646425,,,,,,,,0.646425,0,,,,,,413,NW,"ID",16,equats,EQUATS,z,,,,,,-0.022135417,-0.440104167,0,0,0,,0,348,348,352,1
,,,,,,,,,,,,,,,,,,5c4c488a620ba700010c054d,2020-11-25_16h36.49.552,lexical_decision_task_MP_exp2,2020.2.5,Win32,60,z,1,0.571955,,,,,,,,0.571955,1,,,,,,257,NW,UN,16,poluth,VENIOD,z,,,,,,-0.022135417,-0.440104167,0,0,0,,0,349,349,436,1
,,,,,,,,,,,,,,,,,,5c4c488a620ba700010c054d,2020-11-25_16h36.49.552,lexical_decision_task_MP_exp2,2020.2.5,Win32,60,m,1,0.455935,,,,,,,,0.455935,1,,,,,,69,WORD,"ID",33,plenty,PLENTY,m,,,,,,-0.022135417,-0.440104167,0,0,0,,0,350,350,8,1
,,,,,,,,,,,,,,,,,,5c4c488a620ba700010c054d,2020-11-25_16h36.49.552,lexical_decision_task_MP_exp2,2020.2.5,Win32,60,z,1,0.783855,,,,,,,,0.783855,1,,,,,,437,NW,UN,33,baitch,SNAPEL,z,,,,,,-0.022135417,-0.440104167,0,0,0,,0,351,351,376,1
,,,,,,,,,,,,,,,,,,5c4c488a620ba700010c054d,2020-11-25_16h36.49.552,lexical_decision_task_MP_exp2,2020.2.5,Win32,60,z,0,0.73191,,,,,,,,0.73191,0,,,,,,52,WORD,UN,16,police,IMPOSE,m,,,,,,-0.022135417,-0.440104167,0,0,0,,0,352,352,231,1
,,,,,,,,,,,,,,,,,,5c4c488a620ba700010c054d,2020-11-25_16h36.49.552,lexical_decision_task_MP_exp2,2020.2.5,Win32,60,m,0,0.630975,,,,,,,,0.630975,0,,,,,,263,NW,UN,16,vackel,DOLICA,z,,,,,,-0.022135417,-0.440104167,0,0,0,,0,353,353,442,1
,,,,,,,,,,,,,,,,,,5c4c488a620ba700010c054d,2020-11-25_16h36.49.552,lexical_decision_task_MP_exp2,2020.2.5,Win32,60,m,1,0.59878,,,,,,,,0.59878,1,,,,,,178,WORD,"ID",16,inform,INFORM,m,,,,,,-0.022135417,-0.440104167,0,0,0,,0,354,354,117,1
,,,,,,,,,,,,,,,,,,5c4c488a620ba700010c054d,2020-11-25_16h36.49.552,lexical_decision_task_MP_exp2,2020.2.5,Win32,60,m,0,0.58275,,,,,,,,0.58275,0,,,,,,395,NW,"ID",16,colury,COLURY,z,,,,,,-0.022135417,-0.440104167,0,0,0,,0,355,355,334,1
,,,,,,,,,,,,,,,,,,5c4c488a620ba700010c054d,2020-11-25_16h36.49.552,lexical_decision_task_MP_exp2,2020.2.5,Win32,60,m,0,0.581035,,,,,,,,0.581035,0,,,,,,302,NW,"ID",33,miluer,MILUER,z,,,,,,-0.022135417,-0.440104167,0,0,0,,0,356,356,241,1
,,,,,,,,,,,,,,,,,,5c4c488a620ba700010c054d,2020-11-25_16h36.49.552,lexical_decision_task_MP_exp2,2020.2.5,Win32,60,m,1,0.913865,,,,,,,,0.913865,1,,,,,,38,WORD,UN,16,insect,POWDER,m,,,,,,-0.022135417,-0.440104167,0,0,0,,0,357,357,217,1
,,,,,,,,,,,,,,,,,,5c4c488a620ba700010c054d,2020-11-25_16h36.49.552,lexical_decision_task_MP_exp2,2020.2.5,Win32,60,m,0,0.6109,,,,,,,,0.6109,0,,,,,,254,NW,UN,16,apight,VAROSH,z,,,,,,-0.022135417,-0.440104167,0,0,0,,0,358,358,433,1
,,,,,,,,,,,,,,,,,,5c4c488a620ba700010c054d,2020-11-25_16h36.49.552,lexical_decision_task_MP_exp2,2020.2.5,Win32,60,m,1,0.66973,,,,,,,,0.66973,1,,,,,,101,WORD,"ID",33,wrench,WRENCH,m,,,,,,-0.022135417,-0.440104167,0,0,0,,0,359,359,40,1
,,,,,,,,,,,,,,,,,,5c4c488a620ba700010c054d,2020-11-25_16h36.49.552,lexical_decision_task_MP_exp2,2020.2.5,Win32,60,m,1,0.56464,,,,,,,,0.56464,1,,,,,,88,WORD,"ID",33,hunger,HUNGER,m,,,,,,-0.022135417,-0.440104167,0,0,0,,0,360,360,27,1
,,,,,,,,,,,,,,,,,,5c4c488a620ba700010c054d,2020-11-25_16h36.49.552,lexical_decision_task_MP_exp2,2020.2.5,Win32,60,z,1,0.66707,,,,,,,,0.66707,1,,,,,,402,NW,"ID",16,syntic,SYNTIC,z,,,,,,-0.022135417,-0.440104167,0,0,0,,0,361,361,341,1
,,,,,,,,,,,,,,,,,,5c4c488a620ba700010c054d,2020-11-25_16h36.49.552,lexical_decision_task_MP_exp2,2020.2.5,Win32,60,m,1,0.48213,,,,,,,,0.48213,1,,,,,,62,WORD,"ID",33,region,REGION,m,,,,,,-0.022135417,-0.440104167,0,0,0,,0,362,362,1,1
,,,,,,,,,,,,,,,,,,5c4c488a620ba700010c054d,2020-11-25_16h36.49.552,lexical_decision_task_MP_exp2,2020.2.5,Win32,60,m,1,0.515585,,,,,,,,0.515585,1,,,,,,23,WORD,UN,16,praise,WEALTH,m,,,,,,-0.022135417,-0.440104167,0,0,0,,0,363,363,202,1
,,,,,,,,,,,,,,,,,,5c4c488a620ba700010c054d,2020-11-25_16h36.49.552,lexical_decision_task_MP_exp2,2020.2.5,Win32,60,m,0,0.57228,,,,,,,,0.57228,0,,,,,,291,NW,UN,16,ablint,PRETCH,z,,,,,,-0.022135417,-0.440104167,0,0,0,,0,364,364,470,1
,,,,,,,,,,,,,,,,,,5c4c488a620ba700010c054d,2020-11-25_16h36.49.552,lexical_decision_task_MP_exp2,2020.2.5,Win32,60,m,1,0.67323,,,,,,,,0.67323,1,,,,,,86,WORD,"ID",33,rodent,RODENT,m,,,,,,-0.022135417,-0.440104167,0,0,0,,0,365,365,25,1
,,,,,,,,,,,,,,,,,,5c4c488a620ba700010c054d,2020-11-25_16h36.49.552,lexical_decision_task_MP_exp2,2020.2.5,Win32,60,m,0,0.403865,,,,,,,,0.403865,0,,,,,,269,NW,UN,16,wrimsy,ORCHET,z,,,,,,-0.022135417,-0.440104167,0,0,0,,0,366,366,448,1
,,,,,,,,,,,,,,,,,,5c4c488a620ba700010c054d,2020-11-25_16h36.49.552,lexical_decision_task_MP_exp2,2020.2.5,Win32,60,m,1,0.529955,,,,,,,,0.529955,1,,,,,,27,WORD,UN,16,comedy,SCREAM,m,,,,,,-0.022135417,-0.440104167,0,0,0,,0,367,367,206,1
,,,,,,,,,,,,,,,,,,5c4c488a620ba700010c054d,2020-11-25_16h36.49.552,lexical_decision_task_MP_exp2,2020.2.5,Win32,60,m,1,0.41503,,,,,,,,0.41503,1,,,,,,184,WORD,UN,33,bother,SLEAZY,m,,,,,,-0.022135417,-0.440104167,0,0,0,,0,368,368,123,1
,,,,,,,,,,,,,,,,,,5c4c488a620ba700010c054d,2020-11-25_16h36.49.552,lexical_decision_task_MP_exp2,2020.2.5,Win32,60,m,0,0.73873,,,,,,,,0.73873,0,,,,,,285,NW,UN,16,reldon,PRUDGE,z,,,,,,-0.022135417,-0.440104167,0,0,0,,0,369,369,464,1
,,,,,,,,,,,,,,,,,,5c4c488a620ba700010c054d,2020-11-25_16h36.49.552,lexical_decision_task_MP_exp2,2020.2.5,Win32,60,m,1,0.60276,,,,,,,,0.60276,1,,,,,,204,WORD,UN,33,lounge,BURDEN,m,,,,,,-0.022135417,-0.440104167,0,0,0,,0,370,370,143,1
,,,,,,,,,,,,,,,,,,5c4c488a620ba700010c054d,2020-11-25_16h36.49.552,lexical_decision_task_MP_exp2,2020.2.5,Win32,60,m,0,0.53195,,,,,,,,0.53195,0,,,,,,246,NW,UN,16,blarge,PIATON,z,,,,,,-0.022135417,-0.440104167,0,0,0,,0,371,371,425,1
,,,,,,,,,,,,,,,,,,5c4c488a620ba700010c054d,2020-11-25_16h36.49.552,lexical_decision_task_MP_exp2,2020.2.5,Win32,60,m,1,0.69764,,,,,,,,0.69764,1,,,,,,188,WORD,UN,33,censor,SOCIAL,m,,,,,,-0.022135417,-0.440104167,0,0,0,,0,372,372,127,1
,,,,,,,,,,,,,,,,,,5c4c488a620ba700010c054d,2020-11-25_16h36.49.552,lexical_decision_task_MP_exp2,2020.2.5,Win32,60,m,0,0.46471,,,,,,,,0.46471,0,,,,,,370,NW,"ID",16,sleact,SLEACT,z,,,,,,-0.022135417,-0.440104167,0,0,0,,0,373,373,309,1
,,,,,,,,,,,,,,,,,,5c4c488a620ba700010c054d,2020-11-25_16h36.49.552,lexical_decision_task_MP_exp2,2020.2.5,Win32,60,m,1,0.61574,,,,,,,,0.61574,1,,,,,,142,WORD,"ID",16,spruce,SPRUCE,m,,,,,,-0.022135417,-0.440104167,0,0,0,,0,374,374,81,1
,,,,,,,,,,,,,,,,,,5c4c488a620ba700010c054d,2020-11-25_16h36.49.552,lexical_decision_task_MP_exp2,2020.2.5,Win32,60,m,1,0.58352,,,,,,,,0.58352,1,,,,,,136,WORD,"ID",16,bleach,BLEACH,m,,,,,,-0.022135417,-0.440104167,0,0,0,,0,375,375,75,1
,,,,,,,,,,,,,,,,,,5c4c488a620ba700010c054d,2020-11-25_16h36.49.552,lexical_decision_task_MP_exp2,2020.2.5,Win32,60,m,0,0.6818,,,,,,,,0.6818,0,,,,,,352,NW,"ID",33,tringe,TRINGE,z,,,,,,-0.022135417,-0.440104167,0,0,0,,0,376,376,291,1
,,,,,,,,,,,,,,,,,,5c4c488a620ba700010c054d,2020-11-25_16h36.49.552,lexical_decision_task_MP_exp2,2020.2.5,Win32,60,m,1,0.649385,,,,,,,,0.649385,1,,,,,,162,WORD,"ID",16,candle,CANDLE,m,,,,,,-0.022135417,-0.440104167,0,0,0,,0,377,377,101,1
,,,,,,,,,,,,,,,,,,5c4c488a620ba700010c054d,2020-11-25_16h36.49.552,lexical_decision_task_MP_exp2,2020.2.5,Win32,60,m,0,0.515545,,,,,,,,0.515545,0,,,,,,306,NW,"ID",33,sounge,SOUNGE,z,,,,,,-0.022135417,-0.440104167,0,0,0,,0,378,378,245,1
,,,,,,,,,,,,,,,,,,5c4c488a620ba700010c054d,2020-11-25_16h36.49.552,lexical_decision_task_MP_exp2,2020.2.5,Win32,60,z,0,0.533145,,,,,,,,0.533145,0,,,,,,201,WORD,UN,33,factor,ADMIRE,m,,,,,,-0.022135417,-0.440104167,0,0,0,,0,379,379,140,1
,,,,,,,,,,,,,,,,,,5c4c488a620ba700010c054d,2020-11-25_16h36.49.552,lexical_decision_task_MP_exp2,2020.2.5,Win32,60,m,1,0.546635,,,,,,,,0.546635,1,,,,,,175,WORD,"ID",16,fabric,FABRIC,m,,,,,,-0.022135417,-0.440104167,0,0,0,,0,380,380,114,1
,,,,,,,,,,,,,,,,,,5c4c488a620ba700010c054d,2020-11-25_16h36.49.552,lexical_decision_task_MP_exp2,2020.2.5,Win32,60,z,1,1.25236,,,,,,,,1.25236,1,,,,,,338,NW,"ID",33,wreash,WREASH,z,,,,,,-0.022135417,-0.440104167,0,0,0,,0,381,381,277,1
,,,,,,,,,,,,,,,,,,5c4c488a620ba700010c054d,2020-11-25_16h36.49.552,lexical_decision_task_MP_exp2,2020.2.5,Win32,60,m,1,0.34855,,,,,,,,0.34855,1,,,,,,208,WORD,UN,33,search,HOCKEY,m,,,,,,-0.022135417,-0.440104167,0,0,0,,0,382,382,147,1
,,,,,,,,,,,,,,,,,,5c4c488a620ba700010c054d,2020-11-25_16h36.49.552,lexical_decision_task_MP_exp2,2020.2.5,Win32,60,z,1,0.61515,,,,,,,,0.61515,1,,,,,,371,NW,"ID",16,geiloy,GEILOY,z,,,,,,-0.022135417,-0.440104167,0,0,0,,0,383,383,310,1
,,,,,,,,,,,,,,,,,,5c4c488a620ba700010c054d,2020-11-25_16h36.49.552,lexical_decision_task_MP_exp2,2020.2.5,Win32,60,z,0,0.34744,,,,,,,,0.34744,0,,,,,,35,WORD,UN,16,vanish,SOCKET,m,,,,,,-0.022135417,-0.440104167,0,0,0,,0,384,384,214,1
,,,,,,,,,,,,,,,,,,5c4c488a620ba700010c054d,2020-11-25_16h36.49.552,lexical_decision_task_MP_exp2,2020.2.5,Win32,60,m,1,0.66401,,,,,,,,0.66401,1,,,,,,98,WORD,"ID",33,belong,BELONG,m,,,,,,-0.022135417,-0.440104167,0,0,0,,0,385,385,37,1
,,,,,,,,,,,,,,,,,,5c4c488a620ba700010c054d,2020-11-25_16h36.49.552,lexical_decision_task_MP_exp2,2020.2.5,Win32,60,m,1,0.66668,,,,,,,,0.66668,1,,,,,,33,WORD,UN,16,jungle,BUTLER,m,,,,,,-0.022135417,-0.440104167,0,0,0,,0,386,386,212,1
,,,,,,,,,,,,,,,,,,5c4c488a620ba700010c054d,2020-11-25_16h36.49.552,lexical_decision_task_MP_exp2,2020.2.5,Win32,60,m,0,0.402225,,,,,,,,0.402225,0,,,,,,320,NW,"ID",33,jockal,JOCKAL,z,,,,,,-0.022135417,-0.440104167,0,0,0,,0,387,387,259,1
,,,,,,,,,,,,,,,,,,5c4c488a620ba700010c054d,2020-11-25_16h36.49.552,lexical_decision_task_MP_exp2,2020.2.5,Win32,60,z,1,1.256625,,,,,,,,1.256625,1,,,,,,447,NW,UN,33,sadent,GIRCUE,z,,,,,,-0.022135417,-0.440104167,0,0,0,,0,388,388,386,1
,,,,,,,,,,,,,,,,,,5c4c488a620ba700010c054d,2020-11-25_16h36.49.552,lexical_decision_task_MP_exp2,2020.2.5,Win32,60,m,1,0.56695,,,,,,,,0.56695,1,,,,,,9,WORD,UN,16,bridge,HUSTLE,m,,,,,,-0.022135417,-0.440104167,0,0,0,,0,389,389,188,1
,,,,,,,,,,,,,,,,,,5c4c488a620ba700010c054d,2020-11-25_16h36.49.552,lexical_decision_task_MP_exp2,2020.2.5,Win32,60,m,0,0.389295,,,,,,,,0.389295,0,,,,,,359,NW,"ID",33,fonver,FONVER,z,,,,,,-0.022135417,-0.440104167,0,0,0,,0,390,390,298,1
,,,,,,,,,,,,,,,,,,5c4c488a620ba700010c054d,2020-11-25_16h36.49.552,lexical_decision_task_MP_exp2,2020.2.5,Win32,60,m,1,0.84915,,,,,,,,0.84915,1,,,,,,199,WORD,UN,33,plague,INVOKE,m,,,,,,-0.022135417,-0.440104167,0,0,0,,0,391,391,138,1
,,,,,,,,,,,,,,,,,,5c4c488a620ba700010c054d,2020-11-25_16h36.49.552,lexical_decision_task_MP_exp2,2020.2.5,Win32,60,z,0,1.04675,,,,,,,,1.04675,0,,,,,,24,WORD,UN,16,domain,PRAISE,m,,,,,,-0.022135417,-0.440104167,0,0,0,,0,392,392,203,1
,,,,,,,,,,,,,,,,,,5c4c488a620ba700010c054d,2020-11-25_16h36.49.552,lexical_decision_task_MP_exp2,2020.2.5,Win32,60,z,1,0.45169,,,,,,,,0.45169,1,,,,,,316,NW,"ID",33,scregm,SCREGM,z,,,,,,-0.022135417,-0.440104167,0,0,0,,0,393,393,255,1
,,,,,,,,,,,,,,,,,,5c4c488a620ba700010c054d,2020-11-25_16h36.49.552,lexical_decision_task_MP_exp2,2020.2.5,Win32,60,m,0,0.648025,,,,,,,,0.648025,0,,,,,,319,NW,"ID",33,zomber,ZOMBER,z,,,,,,-0.022135417,-0.440104167,0,0,0,,0,394,394,258,1
,,,,,,,,,,,,,,,,,,5c4c488a620ba700010c054d,2020-11-25_16h36.49.552,lexical_decision_task_MP_exp2,2020.2.5,Win32,60,z,1,1.417205,,,,,,,,1.417205,1,,,,,,477,NW,UN,33,lobush,PHOTIE,z,,,,,,-0.022135417,-0.440104167,0,0,0,,0,395,395,416,1
