counterbalancing_condition,instr_done_keyboard.keys,instr_done_touch.x,instr_done_touch.y,instr_done_touch.leftButton,instr_done_touch.midButton,instr_done_touch.rightButton,instr_done_touch.clicked_name,instruction_pages.thisRepN,instruction_pages.thisTrialN,instruction_pages.thisN,instruction_pages.thisIndex,instruction_pages.ran,pageN,phase,instruct_text,has_image,instruct_image,participant,date,expName,psychopyVersion,OS,frameRate,instr_done_keyboard.rt,response.keys,response.corr,response.rt,touch_resp.x,touch_resp.y,touch_resp.leftButton,touch_resp.midButton,touch_resp.rightButton,touch_resp.time,touch_resp.clicked_name,rt,corr,practice_trials.thisRepN,practice_trials.thisTrialN,practice_trials.thisN,practice_trials.thisIndex,practice_trials.ran,TrialID,StimulusType,Condition,PrimeDuration,Prime,Target,corrAns,end_of_practice_trials_pages.thisRepN,end_of_practice_trials_pages.thisTrialN,end_of_practice_trials_pages.thisN,end_of_practice_trials_pages.thisIndex,end_of_practice_trials_pages.ran,break_done_touch.x,break_done_touch.y,break_done_touch.leftButton,break_done_touch.midButton,break_done_touch.rightButton,break_done_keyboard.keys,experiment_trials.thisRepN,experiment_trials.thisTrialN,experiment_trials.thisN,experiment_trials.thisIndex,experiment_trials.ran,break_done_keyboard.rt
0,,0.010416667,-0.401041667,1,0,0,instr_done_button,0,0,0,0,1,1,instructions,"INSTRUCTIONS
At the start of each trial, look at the hash marks (######) in the center of the screen. After a moment, a string of letters will appear. Your task is to indicate if the letter string forms a word or not (i.e., if it is a nonword). For example, AUTHOR is a word while AUTHON is a nonword.

Press the space bar or touch the button below to continue.",0,,5c58bdb5a2f0f6000157e4e6,2020-11-27_15h06.26.486,lexical_decision_task_MP_exp2,2020.2.5,Win32,60,,,,,,,,,,,,,,,,,,,,,,,,,,,,,,,,,,,,,,,,,,
,space,0.3828125,-0.330729167,0,0,0,,0,1,1,1,1,2,instructions,"If your device has a keyboard, press the 'Z' key for nonwords and the 'M' key for words.





Press the space bar or touch the button below to continue.",1,keyboard-example.gif,5c58bdb5a2f0f6000157e4e6,2020-11-27_15h06.26.486,lexical_decision_task_MP_exp2,2020.2.5,Win32,60,23.857015,,,,,,,,,,,,,,,,,,,,,,,,,,,,,,,,,,,,,,,,,
,space,0.3828125,-0.330729167,0,0,0,,0,2,2,2,1,3,instructions,"If you are using a touchscreen only device, use the buttons on the screen. Do not use the mouse.





Press the space bar or touch the button below to continue.",1,touchscreen-example.gif,5c58bdb5a2f0f6000157e4e6,2020-11-27_15h06.26.486,lexical_decision_task_MP_exp2,2020.2.5,Win32,60,3.62512,,,,,,,,,,,,,,,,,,,,,,,,,,,,,,,,,,,,,,,,,
,space,0.3828125,-0.330729167,0,0,0,,0,3,3,3,1,4,instructions,"It is very important that you respond as quickly and accurately as possible, as each letter string will only be on the screen for two seconds. If you do not respond within this time, the message 'Too slow!' will be displayed and the experiment will progress to the next letter string. The first 20 trials will be practice trials and you will receive feedback on your answers. 

Press the space bar or touch the button below to start the practice trials.",0,,5c58bdb5a2f0f6000157e4e6,2020-11-27_15h06.26.486,lexical_decision_task_MP_exp2,2020.2.5,Win32,60,14.16946,,,,,,,,,,,,,,,,,,,,,,,,,,,,,,,,,,,,,,,,,
,,,,,,,,,,,,,,,,,,5c58bdb5a2f0f6000157e4e6,2020-11-27_15h06.26.486,lexical_decision_task_MP_exp2,2020.2.5,Win32,60,,m,1,1.37571,,,,,,,,1.37571,1,0,0,0,0,1,1001,WORD,"ID",33,utopia,UTOPIA,m,,,,,,,,,,,,,,,,,
,,,,,,,,,,,,,,,,,,5c58bdb5a2f0f6000157e4e6,2020-11-27_15h06.26.486,lexical_decision_task_MP_exp2,2020.2.5,Win32,60,,m,1,0.91814,,,,,,,,0.91814,1,0,1,1,7,1,1008,WORD,UN,16,hurdle,VOLUME,m,,,,,,,,,,,,,,,,,
,,,,,,,,,,,,,,,,,,5c58bdb5a2f0f6000157e4e6,2020-11-27_15h06.26.486,lexical_decision_task_MP_exp2,2020.2.5,Win32,60,,z,1,0.69356,,,,,,,,0.69356,1,0,2,2,9,1,1010,NW,"ID",33,fariny,FARINY,z,,,,,,,,,,,,,,,,,
,,,,,,,,,,,,,,,,,,5c58bdb5a2f0f6000157e4e6,2020-11-27_15h06.26.486,lexical_decision_task_MP_exp2,2020.2.5,Win32,60,,z,1,0.626945,,,,,,,,0.626945,1,0,3,3,13,1,1014,NW,UN,33,winfer,ROUPET,z,,,,,,,,,,,,,,,,,
,,,,,,,,,,,,,,,,,,5c58bdb5a2f0f6000157e4e6,2020-11-27_15h06.26.486,lexical_decision_task_MP_exp2,2020.2.5,Win32,60,,z,1,0.68431,,,,,,,,0.68431,1,0,4,4,8,1,1009,NW,"ID",33,aslert,ASLERT,z,,,,,,,,,,,,,,,,,
,,,,,,,,,,,,,,,,,,5c58bdb5a2f0f6000157e4e6,2020-11-27_15h06.26.486,lexical_decision_task_MP_exp2,2020.2.5,Win32,60,,z,1,0.622765,,,,,,,,0.622765,1,0,5,5,14,1,1015,NW,UN,16,miaber,THRALE,z,,,,,,,,,,,,,,,,,
,,,,,,,,,,,,,,,,,,5c58bdb5a2f0f6000157e4e6,2020-11-27_15h06.26.486,lexical_decision_task_MP_exp2,2020.2.5,Win32,60,,m,0,0.85157,,,,,,,,0.85157,0,0,6,6,10,1,1011,NW,"ID",16,inlade,INLADE,z,,,,,,,,,,,,,,,,,
,,,,,,,,,,,,,,,,,,5c58bdb5a2f0f6000157e4e6,2020-11-27_15h06.26.486,lexical_decision_task_MP_exp2,2020.2.5,Win32,60,,m,1,0.709525,,,,,,,,0.709525,1,0,7,7,2,1,1003,WORD,"ID",16,almond,ALMOND,m,,,,,,,,,,,,,,,,,
,,,,,,,,,,,,,,,,,,5c58bdb5a2f0f6000157e4e6,2020-11-27_15h06.26.486,lexical_decision_task_MP_exp2,2020.2.5,Win32,60,,m,1,0.848815,,,,,,,,0.848815,1,0,8,8,3,1,1004,WORD,"ID",16,matrix,MATRIX,m,,,,,,,,,,,,,,,,,
,,,,,,,,,,,,,,,,,,5c58bdb5a2f0f6000157e4e6,2020-11-27_15h06.26.486,lexical_decision_task_MP_exp2,2020.2.5,Win32,60,,z,1,0.666145,,,,,,,,0.666145,1,0,9,9,15,1,1016,NW,UN,16,mushed,WHAISE,z,,,,,,,,,,,,,,,,,
,,,,,,,,,,,,,,,,,,5c58bdb5a2f0f6000157e4e6,2020-11-27_15h06.26.486,lexical_decision_task_MP_exp2,2020.2.5,Win32,60,,m,1,0.667725,,,,,,,,0.667725,1,0,10,10,5,1,1006,WORD,UN,33,frenzy,OBTAIN,m,,,,,,,,,,,,,,,,,
,,,,,,,,,,,,,,,,,,5c58bdb5a2f0f6000157e4e6,2020-11-27_15h06.26.486,lexical_decision_task_MP_exp2,2020.2.5,Win32,60,,m,1,0.550235,,,,,,,,0.550235,1,0,11,11,1,1,1002,WORD,"ID",33,adjust,ADJUST,m,,,,,,,,,,,,,,,,,
,,,,,,,,,,,,,,,,,,5c58bdb5a2f0f6000157e4e6,2020-11-27_15h06.26.486,lexical_decision_task_MP_exp2,2020.2.5,Win32,60,,m,1,0.533885,,,,,,,,0.533885,1,0,12,12,6,1,1007,WORD,UN,16,tropic,ZOMBIE,m,,,,,,,,,,,,,,,,,
,,,,,,,,,,,,,,,,,,5c58bdb5a2f0f6000157e4e6,2020-11-27_15h06.26.486,lexical_decision_task_MP_exp2,2020.2.5,Win32,60,,z,1,0.790795,,,,,,,,0.790795,1,0,13,13,11,1,1012,NW,"ID",16,rashet,RASHET,z,,,,,,,,,,,,,,,,,
,,,,,,,,,,,,,,,,,,5c58bdb5a2f0f6000157e4e6,2020-11-27_15h06.26.486,lexical_decision_task_MP_exp2,2020.2.5,Win32,60,,z,1,0.636445,,,,,,,,0.636445,1,0,14,14,12,1,1013,NW,UN,33,adveil,SPRINY,z,,,,,,,,,,,,,,,,,
,,,,,,,,,,,,,,,,,,5c58bdb5a2f0f6000157e4e6,2020-11-27_15h06.26.486,lexical_decision_task_MP_exp2,2020.2.5,Win32,60,,m,1,0.51758,,,,,,,,0.51758,1,0,15,15,4,1,1005,WORD,UN,33,abound,SQUEAK,m,,,,,,,,,,,,,,,,,
,space,0.3828125,-0.330729167,0,0,0,,,,,,,1,end_of_practice,"You have completed the practice trials. During the experimental trials, you will not receive feedback, but it is very important that you respond as quickly and accurately as possible. 
Before you begin, please ensure that you are in a comfortable and quiet location and will not be disturbed for about 15 minutes, as we cannot use your data if you do not complete all the trials. 
There will be opportunities to take breaks at regular intervals during the experiment. When you are ready to start the experimental trials, please press space or touch the button below.",,,5c58bdb5a2f0f6000157e4e6,2020-11-27_15h06.26.486,lexical_decision_task_MP_exp2,2020.2.5,Win32,60,31.576145,,,,,,,,,,,,,,,,,,,,,,,,,0,0,0,0,1,,,,,,,,,,,,
,,,,,,,,,,,,,,,,,,5c58bdb5a2f0f6000157e4e6,2020-11-27_15h06.26.486,lexical_decision_task_MP_exp2,2020.2.5,Win32,60,,m,1,0.579605,,,,,,,,0.579605,1,,,,,,130,WORD,UN,16,quench,STUPID,m,,,,,,0.3828125,-0.330729167,0,0,0,,0,0,0,189,1,
,,,,,,,,,,,,,,,,,,5c58bdb5a2f0f6000157e4e6,2020-11-27_15h06.26.486,lexical_decision_task_MP_exp2,2020.2.5,Win32,60,,z,1,0.618495,,,,,,,,0.618495,1,,,,,,251,NW,"ID",16,lupict,LUPICT,z,,,,,,0.3828125,-0.330729167,0,0,0,,0,1,1,310,1,
,,,,,,,,,,,,,,,,,,5c58bdb5a2f0f6000157e4e6,2020-11-27_15h06.26.486,lexical_decision_task_MP_exp2,2020.2.5,Win32,60,,m,1,0.61248,,,,,,,,0.61248,1,,,,,,77,WORD,UN,33,column,RACKET,m,,,,,,0.3828125,-0.330729167,0,0,0,,0,2,2,136,1,
,,,,,,,,,,,,,,,,,,5c58bdb5a2f0f6000157e4e6,2020-11-27_15h06.26.486,lexical_decision_task_MP_exp2,2020.2.5,Win32,60,,m,1,0.583585,,,,,,,,0.583585,1,,,,,,79,WORD,UN,33,family,THEORY,m,,,,,,0.3828125,-0.330729167,0,0,0,,0,3,3,138,1,
,,,,,,,,,,,,,,,,,,5c58bdb5a2f0f6000157e4e6,2020-11-27_15h06.26.486,lexical_decision_task_MP_exp2,2020.2.5,Win32,60,,z,1,0.602535,,,,,,,,0.602535,1,,,,,,359,NW,UN,33,desory,FONVER,z,,,,,,0.3828125,-0.330729167,0,0,0,,0,4,4,418,1,
,,,,,,,,,,,,,,,,,,5c58bdb5a2f0f6000157e4e6,2020-11-27_15h06.26.486,lexical_decision_task_MP_exp2,2020.2.5,Win32,60,,z,1,0.607285,,,,,,,,0.607285,1,,,,,,412,NW,UN,16,equats,JILUER,z,,,,,,0.3828125,-0.330729167,0,0,0,,0,5,5,471,1,
,,,,,,,,,,,,,,,,,,5c58bdb5a2f0f6000157e4e6,2020-11-27_15h06.26.486,lexical_decision_task_MP_exp2,2020.2.5,Win32,60,,z,1,0.54886,,,,,,,,0.54886,1,,,,,,346,NW,UN,33,kerift,SAUDIC,z,,,,,,0.3828125,-0.330729167,0,0,0,,0,6,6,405,1,
,,,,,,,,,,,,,,,,,,5c58bdb5a2f0f6000157e4e6,2020-11-27_15h06.26.486,lexical_decision_task_MP_exp2,2020.2.5,Win32,60,,z,1,0.58757,,,,,,,,0.58757,1,,,,,,406,NW,UN,16,suiver,NOUPLY,z,,,,,,0.3828125,-0.330729167,0,0,0,,0,7,7,465,1,
,,,,,,,,,,,,,,,,,,5c58bdb5a2f0f6000157e4e6,2020-11-27_15h06.26.486,lexical_decision_task_MP_exp2,2020.2.5,Win32,60,,m,1,0.56041,,,,,,,,0.56041,1,,,,,,3,WORD,"ID",16,knight,KNIGHT,m,,,,,,0.3828125,-0.330729167,0,0,0,,0,8,8,62,1,
,,,,,,,,,,,,,,,,,,5c58bdb5a2f0f6000157e4e6,2020-11-27_15h06.26.486,lexical_decision_task_MP_exp2,2020.2.5,Win32,60,,m,1,0.51926,,,,,,,,0.51926,1,,,,,,22,WORD,"ID",16,jockey,JOCKEY,m,,,,,,0.3828125,-0.330729167,0,0,0,,0,9,9,81,1,
,,,,,,,,,,,,,,,,,,5c58bdb5a2f0f6000157e4e6,2020-11-27_15h06.26.486,lexical_decision_task_MP_exp2,2020.2.5,Win32,60,,m,1,0.602575,,,,,,,,0.602575,1,,,,,,199,WORD,"ID",33,invoke,INVOKE,m,,,,,,0.3828125,-0.330729167,0,0,0,,0,10,10,18,1,
,,,,,,,,,,,,,,,,,,5c58bdb5a2f0f6000157e4e6,2020-11-27_15h06.26.486,lexical_decision_task_MP_exp2,2020.2.5,Win32,60,,z,1,0.584835,,,,,,,,0.584835,1,,,,,,448,NW,"ID",33,sadent,SADENT,z,,,,,,0.3828125,-0.330729167,0,0,0,,0,11,11,267,1,
,,,,,,,,,,,,,,,,,,5c58bdb5a2f0f6000157e4e6,2020-11-27_15h06.26.486,lexical_decision_task_MP_exp2,2020.2.5,Win32,60,,z,1,0.63792,,,,,,,,0.63792,1,,,,,,371,NW,UN,16,ramily,GEILOY,z,,,,,,0.3828125,-0.330729167,0,0,0,,0,12,12,430,1,
,,,,,,,,,,,,,,,,,,5c58bdb5a2f0f6000157e4e6,2020-11-27_15h06.26.486,lexical_decision_task_MP_exp2,2020.2.5,Win32,60,,m,1,0.60233,,,,,,,,0.60233,1,,,,,,169,WORD,UN,16,pounce,GENIUS,m,,,,,,0.3828125,-0.330729167,0,0,0,,0,13,13,228,1,
,,,,,,,,,,,,,,,,,,5c58bdb5a2f0f6000157e4e6,2020-11-27_15h06.26.486,lexical_decision_task_MP_exp2,2020.2.5,Win32,60,,m,1,0.53205,,,,,,,,0.53205,1,,,,,,207,WORD,"ID",33,wreath,WREATH,m,,,,,,0.3828125,-0.330729167,0,0,0,,0,14,14,26,1,
,,,,,,,,,,,,,,,,,,5c58bdb5a2f0f6000157e4e6,2020-11-27_15h06.26.486,lexical_decision_task_MP_exp2,2020.2.5,Win32,60,,z,1,0.95155,,,,,,,,0.95155,1,,,,,,397,NW,UN,16,blunde,CAMBLE,z,,,,,,0.3828125,-0.330729167,0,0,0,,0,15,15,456,1,
,,,,,,,,,,,,,,,,,,5c58bdb5a2f0f6000157e4e6,2020-11-27_15h06.26.486,lexical_decision_task_MP_exp2,2020.2.5,Win32,60,,z,1,0.739505,,,,,,,,0.739505,1,,,,,,320,NW,UN,33,miator,JOCKAL,z,,,,,,0.3828125,-0.330729167,0,0,0,,0,16,16,379,1,
,,,,,,,,,,,,,,,,,,5c58bdb5a2f0f6000157e4e6,2020-11-27_15h06.26.486,lexical_decision_task_MP_exp2,2020.2.5,Win32,60,,z,1,0.627605,,,,,,,,0.627605,1,,,,,,302,NW,UN,33,fiream,MILUER,z,,,,,,0.3828125,-0.330729167,0,0,0,,0,17,17,361,1,
,,,,,,,,,,,,,,,,,,5c58bdb5a2f0f6000157e4e6,2020-11-27_15h06.26.486,lexical_decision_task_MP_exp2,2020.2.5,Win32,60,,z,1,0.624055,,,,,,,,0.624055,1,,,,,,387,NW,UN,16,cragin,GRONCE,z,,,,,,0.3828125,-0.330729167,0,0,0,,0,18,18,446,1,
,,,,,,,,,,,,,,,,,,5c58bdb5a2f0f6000157e4e6,2020-11-27_15h06.26.486,lexical_decision_task_MP_exp2,2020.2.5,Win32,60,,m,1,0.581325,,,,,,,,0.581325,1,,,,,,236,WORD,"ID",33,pirate,PIRATE,m,,,,,,0.3828125,-0.330729167,0,0,0,,0,19,19,55,1,
,,,,,,,,,,,,,,,,,,5c58bdb5a2f0f6000157e4e6,2020-11-27_15h06.26.486,lexical_decision_task_MP_exp2,2020.2.5,Win32,60,,z,1,0.720245,,,,,,,,0.720245,1,,,,,,460,NW,"ID",33,mingar,MINGAR,z,,,,,,0.3828125,-0.330729167,0,0,0,,0,20,20,279,1,
,,,,,,,,,,,,,,,,,,5c58bdb5a2f0f6000157e4e6,2020-11-27_15h06.26.486,lexical_decision_task_MP_exp2,2020.2.5,Win32,60,,m,1,0.609225,,,,,,,,0.609225,1,,,,,,126,WORD,UN,16,castle,ENOUGH,m,,,,,,0.3828125,-0.330729167,0,0,0,,0,21,21,185,1,
,,,,,,,,,,,,,,,,,,5c58bdb5a2f0f6000157e4e6,2020-11-27_15h06.26.486,lexical_decision_task_MP_exp2,2020.2.5,Win32,60,,z,1,0.60314,,,,,,,,0.60314,1,,,,,,441,NW,"ID",33,rastoe,RASTOE,z,,,,,,0.3828125,-0.330729167,0,0,0,,0,22,22,260,1,
,,,,,,,,,,,,,,,,,,5c58bdb5a2f0f6000157e4e6,2020-11-27_15h06.26.486,lexical_decision_task_MP_exp2,2020.2.5,Win32,60,,m,1,0.697415,,,,,,,,0.697415,1,,,,,,157,WORD,UN,16,island,DRAGON,m,,,,,,0.3828125,-0.330729167,0,0,0,,0,23,23,216,1,
,,,,,,,,,,,,,,,,,,5c58bdb5a2f0f6000157e4e6,2020-11-27_15h06.26.486,lexical_decision_task_MP_exp2,2020.2.5,Win32,60,,z,1,0.626475,,,,,,,,0.626475,1,,,,,,400,NW,UN,16,mustil,WEAROX,z,,,,,,0.3828125,-0.330729167,0,0,0,,0,24,24,459,1,
,,,,,,,,,,,,,,,,,,5c58bdb5a2f0f6000157e4e6,2020-11-27_15h06.26.486,lexical_decision_task_MP_exp2,2020.2.5,Win32,60,,m,1,0.53724,,,,,,,,0.53724,1,,,,,,108,WORD,UN,33,wonder,RECKON,m,,,,,,0.3828125,-0.330729167,0,0,0,,0,25,25,167,1,
,,,,,,,,,,,,,,,,,,5c58bdb5a2f0f6000157e4e6,2020-11-27_15h06.26.486,lexical_decision_task_MP_exp2,2020.2.5,Win32,60,,m,1,0.638195,,,,,,,,0.638195,1,,,,,,86,WORD,UN,33,filter,RODENT,m,,,,,,0.3828125,-0.330729167,0,0,0,,0,26,26,145,1,
,,,,,,,,,,,,,,,,,,5c58bdb5a2f0f6000157e4e6,2020-11-27_15h06.26.486,lexical_decision_task_MP_exp2,2020.2.5,Win32,60,,z,1,0.720645,,,,,,,,0.720645,1,,,,,,261,NW,"ID",16,stunch,STUNCH,z,,,,,,0.3828125,-0.330729167,0,0,0,,0,27,27,320,1,
,,,,,,,,,,,,,,,,,,5c58bdb5a2f0f6000157e4e6,2020-11-27_15h06.26.486,lexical_decision_task_MP_exp2,2020.2.5,Win32,60,,m,1,0.63501,,,,,,,,0.63501,1,,,,,,215,WORD,"ID",33,phobia,PHOBIA,m,,,,,,0.3828125,-0.330729167,0,0,0,,0,28,28,34,1,
,,,,,,,,,,,,,,,,,,5c58bdb5a2f0f6000157e4e6,2020-11-27_15h06.26.486,lexical_decision_task_MP_exp2,2020.2.5,Win32,60,,z,1,1.09386,,,,,,,,1.09386,1,,,,,,299,NW,"ID",16,sturch,STURCH,z,,,,,,0.3828125,-0.330729167,0,0,0,,0,29,29,358,1,
,,,,,,,,,,,,,,,,,,5c58bdb5a2f0f6000157e4e6,2020-11-27_15h06.26.486,lexical_decision_task_MP_exp2,2020.2.5,Win32,60,,z,1,0.713675,,,,,,,,0.713675,1,,,,,,298,NW,"ID",16,piergy,PIERGY,z,,,,,,0.3828125,-0.330729167,0,0,0,,0,30,30,357,1,
,,,,,,,,,,,,,,,,,,5c58bdb5a2f0f6000157e4e6,2020-11-27_15h06.26.486,lexical_decision_task_MP_exp2,2020.2.5,Win32,60,,m,1,0.65848,,,,,,,,0.65848,1,,,,,,10,WORD,"ID",16,ethnic,ETHNIC,m,,,,,,0.3828125,-0.330729167,0,0,0,,0,31,31,69,1,
,,,,,,,,,,,,,,,,,,5c58bdb5a2f0f6000157e4e6,2020-11-27_15h06.26.486,lexical_decision_task_MP_exp2,2020.2.5,Win32,60,,m,1,0.51836,,,,,,,,0.51836,1,,,,,,237,WORD,"ID",33,poster,POSTER,m,,,,,,0.3828125,-0.330729167,0,0,0,,0,32,32,56,1,
,,,,,,,,,,,,,,,,,,5c58bdb5a2f0f6000157e4e6,2020-11-27_15h06.26.486,lexical_decision_task_MP_exp2,2020.2.5,Win32,60,,m,1,0.58386,,,,,,,,0.58386,1,,,,,,101,WORD,UN,33,direct,WRENCH,m,,,,,,0.3828125,-0.330729167,0,0,0,,0,33,33,160,1,
,,,,,,,,,,,,,,,,,,5c58bdb5a2f0f6000157e4e6,2020-11-27_15h06.26.486,lexical_decision_task_MP_exp2,2020.2.5,Win32,60,,m,1,0.48309,,,,,,,,0.48309,1,,,,,,148,WORD,UN,16,invade,CUSTOM,m,,,,,,0.3828125,-0.330729167,0,0,0,,0,34,34,207,1,
,,,,,,,,,,,,,,,,,,5c58bdb5a2f0f6000157e4e6,2020-11-27_15h06.26.486,lexical_decision_task_MP_exp2,2020.2.5,Win32,60,,z,1,0.634235,,,,,,,,0.634235,1,,,,,,319,NW,UN,33,jockal,ZOMBER,z,,,,,,0.3828125,-0.330729167,0,0,0,,0,35,35,378,1,
,,,,,,,,,,,,,,,,,,5c58bdb5a2f0f6000157e4e6,2020-11-27_15h06.26.486,lexical_decision_task_MP_exp2,2020.2.5,Win32,60,,z,1,0.586515,,,,,,,,0.586515,1,,,,,,421,NW,"ID",33,knisma,KNISMA,z,,,,,,0.3828125,-0.330729167,0,0,0,,0,36,36,240,1,
,,,,,,,,,,,,,,,,,,5c58bdb5a2f0f6000157e4e6,2020-11-27_15h06.26.486,lexical_decision_task_MP_exp2,2020.2.5,Win32,60,,z,1,0.57565,,,,,,,,0.57565,1,,,,,,440,NW,"ID",33,saride,SARIDE,z,,,,,,0.3828125,-0.330729167,0,0,0,,0,37,37,259,1,
,,,,,,,,,,,,,,,,,,5c58bdb5a2f0f6000157e4e6,2020-11-27_15h06.26.486,lexical_decision_task_MP_exp2,2020.2.5,Win32,60,,m,1,0.598675,,,,,,,,0.598675,1,,,,,,47,WORD,"ID",16,income,INCOME,m,,,,,,0.3828125,-0.330729167,0,0,0,,0,38,38,106,1,
,,,,,,,,,,,,,,,,,,5c58bdb5a2f0f6000157e4e6,2020-11-27_15h06.26.486,lexical_decision_task_MP_exp2,2020.2.5,Win32,60,,m,1,0.53688,,,,,,,,0.53688,1,,,,,,197,WORD,"ID",33,stream,STREAM,m,,,,,,0.3828125,-0.330729167,0,0,0,,0,39,39,16,1,
,,,,,,,,,,,,,,,,,,5c58bdb5a2f0f6000157e4e6,2020-11-27_15h06.26.486,lexical_decision_task_MP_exp2,2020.2.5,Win32,60,,z,1,0.616885,,,,,,,,0.616885,1,,,,,,279,NW,"ID",16,celond,CELOND,z,,,,,,0.3828125,-0.330729167,0,0,0,,0,40,40,338,1,
,,,,,,,,,,,,,,,,,,5c58bdb5a2f0f6000157e4e6,2020-11-27_15h06.26.486,lexical_decision_task_MP_exp2,2020.2.5,Win32,60,,m,1,0.581665,,,,,,,,0.581665,1,,,,,,165,WORD,UN,16,starch,INVEST,m,,,,,,0.3828125,-0.330729167,0,0,0,,0,41,41,224,1,
,,,,,,,,,,,,,,,,,,5c58bdb5a2f0f6000157e4e6,2020-11-27_15h06.26.486,lexical_decision_task_MP_exp2,2020.2.5,Win32,60,,z,1,0.613595,,,,,,,,0.613595,1,,,,,,420,NW,UN,16,pauche,GUSHOP,z,,,,,,0.3828125,-0.330729167,0,0,0,,0,42,42,479,1,
,,,,,,,,,,,,,,,,,,5c58bdb5a2f0f6000157e4e6,2020-11-27_15h06.26.486,lexical_decision_task_MP_exp2,2020.2.5,Win32,60,,m,1,0.707225,,,,,,,,0.707225,1,,,,,,82,WORD,UN,33,result,STIGMA,m,,,,,,0.3828125,-0.330729167,0,0,0,,0,43,43,141,1,
,,,,,,,,,,,,,,,,,,5c58bdb5a2f0f6000157e4e6,2020-11-27_15h06.26.486,lexical_decision_task_MP_exp2,2020.2.5,Win32,60,,z,1,0.632675,,,,,,,,0.632675,1,,,,,,437,NW,"ID",33,snapel,SNAPEL,z,,,,,,0.3828125,-0.330729167,0,0,0,,0,44,44,256,1,
,,,,,,,,,,,,,,,,,,5c58bdb5a2f0f6000157e4e6,2020-11-27_15h06.26.486,lexical_decision_task_MP_exp2,2020.2.5,Win32,60,,m,1,0.685205,,,,,,,,0.685205,1,,,,,,52,WORD,"ID",16,impose,IMPOSE,m,,,,,,0.3828125,-0.330729167,0,0,0,,0,45,45,111,1,
,,,,,,,,,,,,,,,,,,5c58bdb5a2f0f6000157e4e6,2020-11-27_15h06.26.486,lexical_decision_task_MP_exp2,2020.2.5,Win32,60,,z,1,0.640285,,,,,,,,0.640285,1,,,,,,329,NW,UN,33,kensom,YARIKE,z,,,,,,0.3828125,-0.330729167,0,0,0,,0,46,46,388,1,
,,,,,,,,,,,,,,,,,,5c58bdb5a2f0f6000157e4e6,2020-11-27_15h06.26.486,lexical_decision_task_MP_exp2,2020.2.5,Win32,60,,m,1,0.620665,,,,,,,,0.620665,1,,,,,,200,WORD,"ID",33,beacon,BEACON,m,,,,,,0.3828125,-0.330729167,0,0,0,,0,47,47,19,1,
,,,,,,,,,,,,,,,,,,5c58bdb5a2f0f6000157e4e6,2020-11-27_15h06.26.486,lexical_decision_task_MP_exp2,2020.2.5,Win32,60,,m,1,0.552095,,,,,,,,0.552095,1,,,,,,15,WORD,"ID",16,amount,AMOUNT,m,,,,,,0.3828125,-0.330729167,0,0,0,,0,48,48,74,1,
,,,,,,,,,,,,,,,,,,5c58bdb5a2f0f6000157e4e6,2020-11-27_15h06.26.486,lexical_decision_task_MP_exp2,2020.2.5,Win32,60,,m,1,0.609725,,,,,,,,0.609725,1,,,,,,111,WORD,UN,33,breath,INDUCE,m,,,,,,0.3828125,-0.330729167,0,0,0,,0,49,49,170,1,
,,,,,,,,,,,,,,,,,,5c58bdb5a2f0f6000157e4e6,2020-11-27_15h06.26.486,lexical_decision_task_MP_exp2,2020.2.5,Win32,60,,z,1,0.59956,,,,,,,,0.59956,1,,,,,,263,NW,"ID",16,dolica,DOLICA,z,,,,,,0.3828125,-0.330729167,0,0,0,,0,50,50,322,1,
,,,,,,,,,,,,,,,,,,5c58bdb5a2f0f6000157e4e6,2020-11-27_15h06.26.486,lexical_decision_task_MP_exp2,2020.2.5,Win32,60,,m,0,0.71793,,,,,,,,0.71793,0,,,,,,408,NW,UN,16,elopia,HURNIA,z,,,,,,0.3828125,-0.330729167,0,0,0,,0,51,51,467,1,
,,,,,,,,,,,,,,,,,,5c58bdb5a2f0f6000157e4e6,2020-11-27_15h06.26.486,lexical_decision_task_MP_exp2,2020.2.5,Win32,60,,m,1,0.70421,,,,,,,,0.70421,1,,,,,,41,WORD,"ID",16,spring,SPRING,m,,,,,,0.3828125,-0.330729167,0,0,0,,0,52,52,100,1,
,,,,,,,,,,,,,,,,,,5c58bdb5a2f0f6000157e4e6,2020-11-27_15h06.26.486,lexical_decision_task_MP_exp2,2020.2.5,Win32,60,,m,1,0.68884,,,,,,,,0.68884,1,,,,,,204,WORD,"ID",33,burden,BURDEN,m,,,,,,0.3828125,-0.330729167,0,0,0,,0,53,53,23,1,
,,,,,,,,,,,,,,,,,,5c58bdb5a2f0f6000157e4e6,2020-11-27_15h06.26.486,lexical_decision_task_MP_exp2,2020.2.5,Win32,60,,z,1,0.66957,,,,,,,,0.66957,1,,,,,,309,NW,UN,33,daniet,AMILOY,z,,,,,,0.3828125,-0.330729167,0,0,0,,0,54,54,368,1,
,,,,,,,,,,,,,,,,,,5c58bdb5a2f0f6000157e4e6,2020-11-27_15h06.26.486,lexical_decision_task_MP_exp2,2020.2.5,Win32,60,,m,1,0.63372,,,,,,,,0.63372,1,,,,,,172,WORD,UN,16,shower,PATROL,m,,,,,,0.3828125,-0.330729167,0,0,0,,0,55,55,231,1,
,,,,,,,,,,,,,,,,,,5c58bdb5a2f0f6000157e4e6,2020-11-27_15h06.26.486,lexical_decision_task_MP_exp2,2020.2.5,Win32,60,,m,1,0.60895,,,,,,,,0.60895,1,,,,,,96,WORD,UN,33,client,IGNORE,m,,,,,,0.3828125,-0.330729167,0,0,0,,0,56,56,155,1,
,,,,,,,,,,,,,,,,,,5c58bdb5a2f0f6000157e4e6,2020-11-27_15h06.26.486,lexical_decision_task_MP_exp2,2020.2.5,Win32,60,,z,1,0.620635,,,,,,,,0.620635,1,,,,,,286,NW,"ID",16,reldon,RELDON,z,,,,,,0.3828125,-0.330729167,0,0,0,,0,57,57,345,1,
,,,,,,,,,,,,,,,,,,5c58bdb5a2f0f6000157e4e6,2020-11-27_15h06.26.486,lexical_decision_task_MP_exp2,2020.2.5,Win32,60,,m,1,0.622685,,,,,,,,0.622685,1,,,,,,34,WORD,"ID",16,jungle,JUNGLE,m,,,,,,0.3828125,-0.330729167,0,0,0,,0,58,58,93,1,
,,,,,,,,,,,,,,,,,,5c58bdb5a2f0f6000157e4e6,2020-11-27_15h06.26.486,lexical_decision_task_MP_exp2,2020.2.5,Win32,60,,z,1,0.624955,,,,,,,,0.624955,1,,,,,,373,NW,UN,16,sliant,BIGENT,z,,,,,,0.3828125,-0.330729167,0,0,0,,0,59,59,432,1,
,,,,,,,,,,,,,,,,,,5c58bdb5a2f0f6000157e4e6,2020-11-27_15h06.26.486,lexical_decision_task_MP_exp2,2020.2.5,Win32,60,,m,1,0.624925,,,,,,,,0.624925,1,,,,,,49,WORD,"ID",16,survey,SURVEY,m,,,,,,0.3828125,-0.330729167,0,0,0,,0,60,60,108,1,
,,,,,,,,,,,,,,,,,,5c58bdb5a2f0f6000157e4e6,2020-11-27_15h06.26.486,lexical_decision_task_MP_exp2,2020.2.5,Win32,60,,m,1,0.59858,,,,,,,,0.59858,1,,,,,,28,WORD,"ID",16,comedy,COMEDY,m,,,,,,0.3828125,-0.330729167,0,0,0,,0,61,61,87,1,
,,,,,,,,,,,,,,,,,,5c58bdb5a2f0f6000157e4e6,2020-11-27_15h06.26.486,lexical_decision_task_MP_exp2,2020.2.5,Win32,60,,z,1,0.700505,,,,,,,,0.700505,1,,,,,,455,NW,"ID",33,tondle,TONDLE,z,,,,,,0.3828125,-0.330729167,0,0,0,,0,62,62,274,1,
,,,,,,,,,,,,,,,,,,5c58bdb5a2f0f6000157e4e6,2020-11-27_15h06.26.486,lexical_decision_task_MP_exp2,2020.2.5,Win32,60,,m,1,0.650875,,,,,,,,0.650875,1,,,,,,94,WORD,UN,33,thread,TRAVEL,m,,,,,,0.3828125,-0.330729167,0,0,0,,0,63,63,153,1,
,,,,,,,,,,,,,,,,,,5c58bdb5a2f0f6000157e4e6,2020-11-27_15h06.26.486,lexical_decision_task_MP_exp2,2020.2.5,Win32,60,,z,1,0.68575,,,,,,,,0.68575,1,,,,,,391,NW,UN,16,rouncy,THELDY,z,,,,,,0.3828125,-0.330729167,0,0,0,,0,64,64,450,1,
,,,,,,,,,,,,,,,,,,5c58bdb5a2f0f6000157e4e6,2020-11-27_15h06.26.486,lexical_decision_task_MP_exp2,2020.2.5,Win32,60,,z,1,0.66916,,,,,,,,0.66916,1,,,,,,433,NW,"ID",33,drance,DRANCE,z,,,,,,0.3828125,-0.330729167,0,0,0,,0,65,65,252,1,
,,,,,,,,,,,,,,,,,,5c58bdb5a2f0f6000157e4e6,2020-11-27_15h06.26.486,lexical_decision_task_MP_exp2,2020.2.5,Win32,60,,m,1,0.61507,,,,,,,,0.61507,1,,,,,,161,WORD,UN,16,candle,PASTOR,m,,,,,,0.3828125,-0.330729167,0,0,0,,0,66,66,220,1,
,,,,,,,,,,,,,,,,,,5c58bdb5a2f0f6000157e4e6,2020-11-27_15h06.26.486,lexical_decision_task_MP_exp2,2020.2.5,Win32,60,,m,1,0.57163,,,,,,,,0.57163,1,,,,,,48,WORD,"ID",16,walnut,WALNUT,m,,,,,,0.3828125,-0.330729167,0,0,0,,0,67,67,107,1,
,,,,,,,,,,,,,,,,,,5c58bdb5a2f0f6000157e4e6,2020-11-27_15h06.26.486,lexical_decision_task_MP_exp2,2020.2.5,Win32,60,,z,1,0.684595,,,,,,,,0.684595,1,,,,,,322,NW,UN,33,rosail,SLANCH,z,,,,,,0.3828125,-0.330729167,0,0,0,,0,68,68,381,1,
,,,,,,,,,,,,,,,,,,5c58bdb5a2f0f6000157e4e6,2020-11-27_15h06.26.486,lexical_decision_task_MP_exp2,2020.2.5,Win32,60,,z,1,0.583405,,,,,,,,0.583405,1,,,,,,480,NW,"ID",33,robuly,ROBULY,z,,,,,,0.3828125,-0.330729167,0,0,0,,0,69,69,299,1,
,,,,,,,,,,,,,,,,,,5c58bdb5a2f0f6000157e4e6,2020-11-27_15h06.26.486,lexical_decision_task_MP_exp2,2020.2.5,Win32,60,,m,1,0.601275,,,,,,,,0.601275,1,,,,,,167,WORD,UN,16,answer,DESIGN,m,,,,,,0.3828125,-0.330729167,0,0,0,,0,70,70,226,1,
,,,,,,,,,,,,,,,,,,5c58bdb5a2f0f6000157e4e6,2020-11-27_15h06.26.486,lexical_decision_task_MP_exp2,2020.2.5,Win32,60,,z,1,0.60483,,,,,,,,0.60483,1,,,,,,446,NW,"ID",33,runamo,RUNAMO,z,,,,,,0.3828125,-0.330729167,0,0,0,,0,71,71,265,1,
,,,,,,,,,,,,,,,,,,5c58bdb5a2f0f6000157e4e6,2020-11-27_15h06.26.486,lexical_decision_task_MP_exp2,2020.2.5,Win32,60,,m,1,0.600335,,,,,,,,0.600335,1,,,,,,214,WORD,"ID",33,intake,INTAKE,m,,,,,,0.3828125,-0.330729167,0,0,0,,0,72,72,33,1,
,,,,,,,,,,,,,,,,,,5c58bdb5a2f0f6000157e4e6,2020-11-27_15h06.26.486,lexical_decision_task_MP_exp2,2020.2.5,Win32,60,,m,1,0.56187,,,,,,,,0.56187,1,,,,,,38,WORD,"ID",16,powder,POWDER,m,,,,,,0.3828125,-0.330729167,0,0,0,,0,73,73,97,1,
,,,,,,,,,,,,,,,,,,5c58bdb5a2f0f6000157e4e6,2020-11-27_15h06.26.486,lexical_decision_task_MP_exp2,2020.2.5,Win32,60,,m,1,0.599635,,,,,,,,0.599635,1,,,,,,151,WORD,UN,16,rocket,MYSTIC,m,,,,,,0.3828125,-0.330729167,0,0,0,,0,74,74,210,1,
,,,,,,,,,,,,,,,,,,5c58bdb5a2f0f6000157e4e6,2020-11-27_15h06.26.486,lexical_decision_task_MP_exp2,2020.2.5,Win32,60,,z,1,0.57522,,,,,,,,0.57522,1,,,,,,478,NW,"ID",33,acrise,ACRISE,z,,,,,,0.3828125,-0.330729167,0,0,0,,0,75,75,297,1,
,,,,,,,,,,,,,,,,,,5c58bdb5a2f0f6000157e4e6,2020-11-27_15h06.26.486,lexical_decision_task_MP_exp2,2020.2.5,Win32,60,,m,1,0.614985,,,,,,,,0.614985,1,,,,,,128,WORD,UN,16,marvel,SENIOR,m,,,,,,0.3828125,-0.330729167,0,0,0,,0,76,76,187,1,
,,,,,,,,,,,,,,,,,,5c58bdb5a2f0f6000157e4e6,2020-11-27_15h06.26.486,lexical_decision_task_MP_exp2,2020.2.5,Win32,60,,m,1,0.519705,,,,,,,,0.519705,1,,,,,,147,WORD,UN,16,custom,GARLIC,m,,,,,,0.3828125,-0.330729167,0,0,0,,0,77,77,206,1,
,,,,,,,,,,,,,,,,,,5c58bdb5a2f0f6000157e4e6,2020-11-27_15h06.26.486,lexical_decision_task_MP_exp2,2020.2.5,Win32,60,,m,1,0.78222,,,,,,,,0.78222,1,,,,,,176,WORD,UN,16,advent,STRIFE,m,,,,,,0.3828125,-0.330729167,0,0,0,,0,78,78,235,1,
,,,,,,,,,,,,,,,,,,5c58bdb5a2f0f6000157e4e6,2020-11-27_15h06.26.486,lexical_decision_task_MP_exp2,2020.2.5,Win32,60,,m,1,0.517945,,,,,,,,0.517945,1,,,,,,226,WORD,"ID",33,casino,CASINO,m,,,,,,0.3828125,-0.330729167,0,0,0,,0,79,79,45,1,
,,,,,,,,,,,,,,,,,,5c58bdb5a2f0f6000157e4e6,2020-11-27_15h06.26.486,lexical_decision_task_MP_exp2,2020.2.5,Win32,60,,m,1,0.57334,,,,,,,,0.57334,1,,,,,,168,WORD,UN,16,genius,ANSWER,m,,,,,,0.3828125,-0.330729167,0,0,0,,0,80,80,227,1,
,,,,,,,,,,,,,,,,,,5c58bdb5a2f0f6000157e4e6,2020-11-27_15h06.26.486,lexical_decision_task_MP_exp2,2020.2.5,Win32,60,,m,1,0.507215,,,,,,,,0.507215,1,,,,,,201,WORD,"ID",33,admire,ADMIRE,m,,,,,,0.3828125,-0.330729167,0,0,0,,0,81,81,20,1,
,,,,,,,,,,,,,,,,,,5c58bdb5a2f0f6000157e4e6,2020-11-27_15h06.26.486,lexical_decision_task_MP_exp2,2020.2.5,Win32,60,,m,1,0.523085,,,,,,,,0.523085,1,,,,,,171,WORD,UN,16,patrol,DEPART,m,,,,,,0.3828125,-0.330729167,0,0,0,,0,82,82,230,1,
,,,,,,,,,,,,,,,,,,5c58bdb5a2f0f6000157e4e6,2020-11-27_15h06.26.486,lexical_decision_task_MP_exp2,2020.2.5,Win32,60,,m,1,0.548355,,,,,,,,0.548355,1,,,,,,12,WORD,"ID",16,orange,ORANGE,m,,,,,,0.3828125,-0.330729167,0,0,0,,0,83,83,71,1,
,,,,,,,,,,,,,,,,,,5c58bdb5a2f0f6000157e4e6,2020-11-27_15h06.26.486,lexical_decision_task_MP_exp2,2020.2.5,Win32,60,,m,1,0.54873,,,,,,,,0.54873,1,,,,,,42,WORD,"ID",16,chapel,CHAPEL,m,,,,,,0.3828125,-0.330729167,0,0,0,,0,84,84,101,1,
,,,,,,,,,,,,,,,,,,5c58bdb5a2f0f6000157e4e6,2020-11-27_15h06.26.486,lexical_decision_task_MP_exp2,2020.2.5,Win32,60,,m,1,0.55328,,,,,,,,0.55328,1,,,,,,117,WORD,UN,33,flight,BRANCH,m,,,,,,0.3828125,-0.330729167,0,0,0,,0,85,85,176,1,
,,,,,,,,,,,,,,,,,,5c58bdb5a2f0f6000157e4e6,2020-11-27_15h06.26.486,lexical_decision_task_MP_exp2,2020.2.5,Win32,60,,z,1,0.65176,,,,,,,,0.65176,1,,,,,,249,NW,"ID",16,batrol,BATROL,z,,,,,,0.3828125,-0.330729167,0,0,0,,0,86,86,308,1,
,,,,,,,,,,,,,,,,,,5c58bdb5a2f0f6000157e4e6,2020-11-27_15h06.26.486,lexical_decision_task_MP_exp2,2020.2.5,Win32,60,,m,1,0.617225,,,,,,,,0.617225,1,,,,,,231,WORD,"ID",33,export,EXPORT,m,,,,,,0.3828125,-0.330729167,0,0,0,,0,87,87,50,1,
,,,,,,,,,,,,,,,,,,5c58bdb5a2f0f6000157e4e6,2020-11-27_15h06.26.486,lexical_decision_task_MP_exp2,2020.2.5,Win32,60,,z,1,0.591755,,,,,,,,0.591755,1,,,,,,274,NW,"ID",16,fumblo,FUMBLO,z,,,,,,0.3828125,-0.330729167,0,0,0,,0,88,88,333,1,
,,,,,,,,,,,,,,,,,,5c58bdb5a2f0f6000157e4e6,2020-11-27_15h06.26.486,lexical_decision_task_MP_exp2,2020.2.5,Win32,60,,m,1,0.552255,,,,,,,,0.552255,1,,,,,,228,WORD,"ID",33,master,MASTER,m,,,,,,0.3828125,-0.330729167,0,0,0,,0,89,89,47,1,
,,,,,,,,,,,,,,,,,,5c58bdb5a2f0f6000157e4e6,2020-11-27_15h06.26.486,lexical_decision_task_MP_exp2,2020.2.5,Win32,60,,z,1,0.59533,,,,,,,,0.59533,1,,,,,,426,NW,"ID",33,urivel,URIVEL,z,,,,,,0.3828125,-0.330729167,0,0,0,,0,90,90,245,1,
,,,,,,,,,,,,,,,,,,5c58bdb5a2f0f6000157e4e6,2020-11-27_15h06.26.486,lexical_decision_task_MP_exp2,2020.2.5,Win32,60,,z,1,0.602625,,,,,,,,0.602625,1,,,,,,456,NW,"ID",33,broget,BROGET,z,,,,,,0.3828125,-0.330729167,0,0,0,,0,91,91,275,1,
,,,,,,,,,,,,,,,,,,5c58bdb5a2f0f6000157e4e6,2020-11-27_15h06.26.486,lexical_decision_task_MP_exp2,2020.2.5,Win32,60,,m,1,0.56765,,,,,,,,0.56765,1,,,,,,166,WORD,UN,16,design,STARCH,m,,,,,,0.3828125,-0.330729167,0,0,0,,0,92,92,225,1,
,,,,,,,,,,,,,,,,,,5c58bdb5a2f0f6000157e4e6,2020-11-27_15h06.26.486,lexical_decision_task_MP_exp2,2020.2.5,Win32,60,,z,1,0.57659,,,,,,,,0.57659,1,,,,,,316,NW,UN,33,worbal,SCREGM,z,,,,,,0.3828125,-0.330729167,0,0,0,,0,93,93,375,1,
,,,,,,,,,,,,,,,,,,5c58bdb5a2f0f6000157e4e6,2020-11-27_15h06.26.486,lexical_decision_task_MP_exp2,2020.2.5,Win32,60,,z,1,0.650815,,,,,,,,0.650815,1,,,,,,436,NW,"ID",33,frutan,FRUTAN,z,,,,,,0.3828125,-0.330729167,0,0,0,,0,94,94,255,1,
,,,,,,,,,,,,,,,,,,5c58bdb5a2f0f6000157e4e6,2020-11-27_15h06.26.486,lexical_decision_task_MP_exp2,2020.2.5,Win32,60,,m,1,0.531685,,,,,,,,0.531685,1,,,,,,220,WORD,"ID",33,voyage,VOYAGE,m,,,,,,0.3828125,-0.330729167,0,0,0,,0,95,95,39,1,
,,,,,,,,,,,,,,,,,,5c58bdb5a2f0f6000157e4e6,2020-11-27_15h06.26.486,lexical_decision_task_MP_exp2,2020.2.5,Win32,60,,m,1,0.56607,,,,,,,,0.56607,1,,,,,,106,WORD,UN,33,slogan,RANSOM,m,,,,,,0.3828125,-0.330729167,0,0,0,,0,96,96,165,1,
,,,,,,,,,,,,,,,,,,5c58bdb5a2f0f6000157e4e6,2020-11-27_15h06.26.486,lexical_decision_task_MP_exp2,2020.2.5,Win32,60,,m,1,0.50808,,,,,,,,0.50808,1,,,,,,187,WORD,"ID",33,course,COURSE,m,,,,,,0.3828125,-0.330729167,0,0,0,,0,97,97,6,1,
,,,,,,,,,,,,,,,,,,5c58bdb5a2f0f6000157e4e6,2020-11-27_15h06.26.486,lexical_decision_task_MP_exp2,2020.2.5,Win32,60,,z,1,0.56683,,,,,,,,0.56683,1,,,,,,405,NW,UN,16,nouply,FLUMNI,z,,,,,,0.3828125,-0.330729167,0,0,0,,0,98,98,464,1,
,,,,,,,,,,,,,,,,,,5c58bdb5a2f0f6000157e4e6,2020-11-27_15h06.26.486,lexical_decision_task_MP_exp2,2020.2.5,Win32,60,,z,1,0.51972,,,,,,,,0.51972,1,,,,,,301,NW,UN,33,miluer,FAINCH,z,,,,,,0.3828125,-0.330729167,0,0,0,,0,99,99,360,1,
,,,,,,,,,,,,,,,,,,5c58bdb5a2f0f6000157e4e6,2020-11-27_15h06.26.486,lexical_decision_task_MP_exp2,2020.2.5,Win32,60,,m,1,0.5333,,,,,,,,0.5333,1,,,,,,112,WORD,UN,33,chorus,BREATH,m,,,,,,0.3828125,-0.330729167,0,0,0,,0,100,100,171,1,
,,,,,,,,,,,,,,,,,,5c58bdb5a2f0f6000157e4e6,2020-11-27_15h06.26.486,lexical_decision_task_MP_exp2,2020.2.5,Win32,60,,z,1,0.60312,,,,,,,,0.60312,1,,,,,,401,NW,UN,16,syntic,MUSTIL,z,,,,,,0.3828125,-0.330729167,0,0,0,,0,101,101,460,1,
,,,,,,,,,,,,,,,,,,5c58bdb5a2f0f6000157e4e6,2020-11-27_15h06.26.486,lexical_decision_task_MP_exp2,2020.2.5,Win32,60,,z,1,0.515435,,,,,,,,0.515435,1,,,,,,353,NW,UN,33,virlex,CLUREY,z,,,,,,0.3828125,-0.330729167,0,0,0,,0,102,102,412,1,
,,,,,,,,,,,,,,,,,,5c58bdb5a2f0f6000157e4e6,2020-11-27_15h06.26.486,lexical_decision_task_MP_exp2,2020.2.5,Win32,60,,m,1,0.603045,,,,,,,,0.603045,1,,,,,,175,WORD,UN,16,strife,FABRIC,m,,,,,,0.3828125,-0.330729167,0,0,0,,0,103,103,234,1,
,,,,,,,,,,,,,,,,,,5c58bdb5a2f0f6000157e4e6,2020-11-27_15h06.26.486,lexical_decision_task_MP_exp2,2020.2.5,Win32,60,,m,1,0.50618,,,,,,,,0.50618,1,,,,,,75,WORD,UN,33,exotic,TROPHY,m,,,,,,0.3828125,-0.330729167,0,0,0,,0,104,104,134,1,
,,,,,,,,,,,,,,,,,,5c58bdb5a2f0f6000157e4e6,2020-11-27_15h06.26.486,lexical_decision_task_MP_exp2,2020.2.5,Win32,60,,z,1,0.584255,,,,,,,,0.584255,1,,,,,,311,NW,UN,33,nerawl,SPROLY,z,,,,,,0.3828125,-0.330729167,0,0,0,,0,105,105,370,1,
,,,,,,,,,,,,,,,,,,5c58bdb5a2f0f6000157e4e6,2020-11-27_15h06.26.486,lexical_decision_task_MP_exp2,2020.2.5,Win32,60,,m,0,0.69945,,,,,,,,0.69945,0,,,,,,369,NW,UN,16,sleact,WRONCH,z,,,,,,0.3828125,-0.330729167,0,0,0,,0,106,106,428,1,
,,,,,,,,,,,,,,,,,,5c58bdb5a2f0f6000157e4e6,2020-11-27_15h06.26.486,lexical_decision_task_MP_exp2,2020.2.5,Win32,60,,m,1,0.61834,,,,,,,,0.61834,1,,,,,,140,WORD,UN,16,chrome,PRINCE,m,,,,,,0.3828125,-0.330729167,0,0,0,,0,107,107,199,1,
,,,,,,,,,,,,,,,,,,5c58bdb5a2f0f6000157e4e6,2020-11-27_15h06.26.486,lexical_decision_task_MP_exp2,2020.2.5,Win32,60,,z,1,0.768705,,,,,,,,0.768705,1,,,,,,479,NW,"ID",33,lobush,LOBUSH,z,,,,,,0.3828125,-0.330729167,0,0,0,,0,108,108,298,1,
,,,,,,,,,,,,,,,,,,5c58bdb5a2f0f6000157e4e6,2020-11-27_15h06.26.486,lexical_decision_task_MP_exp2,2020.2.5,Win32,60,,z,1,0.552215,,,,,,,,0.552215,1,,,,,,291,NW,"ID",16,pretch,PRETCH,z,,,,,,0.3828125,-0.330729167,0,0,0,,0,109,109,350,1,
,,,,,,,,,,,,,,,,,,5c58bdb5a2f0f6000157e4e6,2020-11-27_15h06.26.486,lexical_decision_task_MP_exp2,2020.2.5,Win32,60,,z,1,0.6055,,,,,,,,0.6055,1,,,,,,361,NW,UN,16,tireau,PAUCHE,z,,,,,,0.3828125,-0.330729167,0,0,0,,0,110,110,420,1,
,,,,,,,,,,,,,,,,,,5c58bdb5a2f0f6000157e4e6,2020-11-27_15h06.26.486,lexical_decision_task_MP_exp2,2020.2.5,Win32,60,,m,1,0.631705,,,,,,,,0.631705,1,,,,,,123,WORD,UN,16,blouse,STRIKE,m,,,,,,0.3828125,-0.330729167,0,0,0,,0,111,111,182,1,
,,,,,,,,,,,,,,,,,,5c58bdb5a2f0f6000157e4e6,2020-11-27_15h06.26.486,lexical_decision_task_MP_exp2,2020.2.5,Win32,60,,z,1,0.641885,,,,,,,,0.641885,1,,,,,,380,NW,UN,16,huniek,CAVORY,z,,,,,,0.3828125,-0.330729167,0,0,0,,0,112,112,439,1,
,,,,,,,,,,,,,,,,,,5c58bdb5a2f0f6000157e4e6,2020-11-27_15h06.26.486,lexical_decision_task_MP_exp2,2020.2.5,Win32,60,,z,1,0.95078,,,,,,,,0.95078,1,,,,,,462,NW,"ID",33,absult,ABSULT,z,,,,,,0.3828125,-0.330729167,0,0,0,,0,113,113,281,1,
,,,,,,,,,,,,,,,,,,5c58bdb5a2f0f6000157e4e6,2020-11-27_15h06.26.486,lexical_decision_task_MP_exp2,2020.2.5,Win32,60,,z,1,0.62019,,,,,,,,0.62019,1,,,,,,381,NW,UN,16,sarley,HUNIEK,z,,,,,,0.3828125,-0.330729167,0,0,0,,0,114,114,440,1,
,,,,,,,,,,,,,,,,,,5c58bdb5a2f0f6000157e4e6,2020-11-27_15h06.26.486,lexical_decision_task_MP_exp2,2020.2.5,Win32,60,,m,1,0.60015,,,,,,,,0.60015,1,,,,,,150,WORD,UN,16,mystic,RANDOM,m,,,,,,0.3828125,-0.330729167,0,0,0,,0,115,115,209,1,
,,,,,,,,,,,,,,,,,,5c58bdb5a2f0f6000157e4e6,2020-11-27_15h06.26.486,lexical_decision_task_MP_exp2,2020.2.5,Win32,60,,z,1,0.609755,,,,,,,,0.609755,1,,,,,,388,NW,UN,16,witmer,CRAGIN,z,,,,,,0.3828125,-0.330729167,0,0,0,,0,116,116,447,1,
,,,,,,,,,,,,,,,,,,5c58bdb5a2f0f6000157e4e6,2020-11-27_15h06.26.486,lexical_decision_task_MP_exp2,2020.2.5,Win32,60,,m,1,0.50095,,,,,,,,0.50095,1,,,,,,51,WORD,"ID",16,hungry,HUNGRY,m,,,,,,0.3828125,-0.330729167,0,0,0,,0,117,117,110,1,
,,,,,,,,,,,,,,,,,,5c58bdb5a2f0f6000157e4e6,2020-11-27_15h06.26.486,lexical_decision_task_MP_exp2,2020.2.5,Win32,60,,z,1,0.62485,,,,,,,,0.62485,1,,,,,,404,NW,UN,16,flumni,CLUIRM,z,,,,,,0.3828125,-0.330729167,0,0,0,,0,118,118,463,1,
,,,,,,,,,,,,,,,,,,5c58bdb5a2f0f6000157e4e6,2020-11-27_15h06.26.486,lexical_decision_task_MP_exp2,2020.2.5,Win32,60,,z,1,0.80376,,,,,,,,0.80376,1,,,,,,342,NW,UN,33,aimosy,RANDOW,z,,,,,,0.3828125,-0.330729167,0,0,0,,0,119,119,401,1,
,,,,,,,,,,,,,,,,,,5c58bdb5a2f0f6000157e4e6,2020-11-27_15h06.26.486,lexical_decision_task_MP_exp2,2020.2.5,Win32,60,,z,1,0.655945,,,,,,,,0.655945,1,,,,,,430,NW,"ID",33,caroey,CAROEY,z,,,,,,0.3828125,-0.330729167,0,0,0,space,0,120,120,249,1,79.835655
,,,,,,,,,,,,,,,,,,5c58bdb5a2f0f6000157e4e6,2020-11-27_15h06.26.486,lexical_decision_task_MP_exp2,2020.2.5,Win32,60,,z,1,0.666805,,,,,,,,0.666805,1,,,,,,418,NW,UN,16,slount,SUIDLE,z,,,,,,0.3828125,-0.330729167,0,0,0,,0,121,121,477,1,
,,,,,,,,,,,,,,,,,,5c58bdb5a2f0f6000157e4e6,2020-11-27_15h06.26.486,lexical_decision_task_MP_exp2,2020.2.5,Win32,60,,m,1,0.57778,,,,,,,,0.57778,1,,,,,,43,WORD,"ID",16,tongue,TONGUE,m,,,,,,0.3828125,-0.330729167,0,0,0,,0,122,122,102,1,
,,,,,,,,,,,,,,,,,,5c58bdb5a2f0f6000157e4e6,2020-11-27_15h06.26.486,lexical_decision_task_MP_exp2,2020.2.5,Win32,60,,m,1,0.500765,,,,,,,,0.500765,1,,,,,,186,WORD,"ID",33,portal,PORTAL,m,,,,,,0.3828125,-0.330729167,0,0,0,,0,123,123,5,1,
,,,,,,,,,,,,,,,,,,5c58bdb5a2f0f6000157e4e6,2020-11-27_15h06.26.486,lexical_decision_task_MP_exp2,2020.2.5,Win32,60,,m,1,0.73575,,,,,,,,0.73575,1,,,,,,121,WORD,UN,16,linger,THRIVE,m,,,,,,0.3828125,-0.330729167,0,0,0,,0,124,124,180,1,
,,,,,,,,,,,,,,,,,,5c58bdb5a2f0f6000157e4e6,2020-11-27_15h06.26.486,lexical_decision_task_MP_exp2,2020.2.5,Win32,60,,z,1,0.50003,,,,,,,,0.50003,1,,,,,,358,NW,UN,33,fonver,FLEACK,z,,,,,,0.3828125,-0.330729167,0,0,0,,0,125,125,417,1,
,,,,,,,,,,,,,,,,,,5c58bdb5a2f0f6000157e4e6,2020-11-27_15h06.26.486,lexical_decision_task_MP_exp2,2020.2.5,Win32,60,,m,1,0.550375,,,,,,,,0.550375,1,,,,,,155,WORD,UN,16,cradle,LIZARD,m,,,,,,0.3828125,-0.330729167,0,0,0,,0,126,126,214,1,
,,,,,,,,,,,,,,,,,,5c58bdb5a2f0f6000157e4e6,2020-11-27_15h06.26.486,lexical_decision_task_MP_exp2,2020.2.5,Win32,60,,z,1,0.55706,,,,,,,,0.55706,1,,,,,,334,NW,UN,33,desion,WATMEG,z,,,,,,0.3828125,-0.330729167,0,0,0,,0,127,127,393,1,
,,,,,,,,,,,,,,,,,,5c58bdb5a2f0f6000157e4e6,2020-11-27_15h06.26.486,lexical_decision_task_MP_exp2,2020.2.5,Win32,60,,z,1,0.58392,,,,,,,,0.58392,1,,,,,,255,NW,"ID",16,apight,APIGHT,z,,,,,,0.3828125,-0.330729167,0,0,0,,0,128,128,314,1,
,,,,,,,,,,,,,,,,,,5c58bdb5a2f0f6000157e4e6,2020-11-27_15h06.26.486,lexical_decision_task_MP_exp2,2020.2.5,Win32,60,,z,1,0.53329,,,,,,,,0.53329,1,,,,,,471,NW,"ID",33,nobest,NOBEST,z,,,,,,0.3828125,-0.330729167,0,0,0,,0,129,129,290,1,
,,,,,,,,,,,,,,,,,,5c58bdb5a2f0f6000157e4e6,2020-11-27_15h06.26.486,lexical_decision_task_MP_exp2,2020.2.5,Win32,60,,m,1,0.63509,,,,,,,,0.63509,1,,,,,,114,WORD,UN,33,guitar,PLACID,m,,,,,,0.3828125,-0.330729167,0,0,0,,0,130,130,173,1,
,,,,,,,,,,,,,,,,,,5c58bdb5a2f0f6000157e4e6,2020-11-27_15h06.26.486,lexical_decision_task_MP_exp2,2020.2.5,Win32,60,,z,1,0.570215,,,,,,,,0.570215,1,,,,,,275,NW,"ID",16,sleirt,SLEIRT,z,,,,,,0.3828125,-0.330729167,0,0,0,,0,131,131,334,1,
,,,,,,,,,,,,,,,,,,5c58bdb5a2f0f6000157e4e6,2020-11-27_15h06.26.486,lexical_decision_task_MP_exp2,2020.2.5,Win32,60,,z,1,0.550035,,,,,,,,0.550035,1,,,,,,452,NW,"ID",33,surden,SURDEN,z,,,,,,0.3828125,-0.330729167,0,0,0,,0,132,132,271,1,
,,,,,,,,,,,,,,,,,,5c58bdb5a2f0f6000157e4e6,2020-11-27_15h06.26.486,lexical_decision_task_MP_exp2,2020.2.5,Win32,60,,m,1,0.536325,,,,,,,,0.536325,1,,,,,,223,WORD,"ID",33,kidney,KIDNEY,m,,,,,,0.3828125,-0.330729167,0,0,0,,0,133,133,42,1,
,,,,,,,,,,,,,,,,,,5c58bdb5a2f0f6000157e4e6,2020-11-27_15h06.26.486,lexical_decision_task_MP_exp2,2020.2.5,Win32,60,,z,1,0.55317,,,,,,,,0.55317,1,,,,,,469,NW,"ID",33,padifs,PADIFS,z,,,,,,0.3828125,-0.330729167,0,0,0,,0,134,134,288,1,
,,,,,,,,,,,,,,,,,,5c58bdb5a2f0f6000157e4e6,2020-11-27_15h06.26.486,lexical_decision_task_MP_exp2,2020.2.5,Win32,60,,m,1,0.57703,,,,,,,,0.57703,1,,,,,,131,WORD,UN,16,strong,QUENCH,m,,,,,,0.3828125,-0.330729167,0,0,0,,0,135,135,190,1,
,,,,,,,,,,,,,,,,,,5c58bdb5a2f0f6000157e4e6,2020-11-27_15h06.26.486,lexical_decision_task_MP_exp2,2020.2.5,Win32,60,,z,1,0.56958,,,,,,,,0.56958,1,,,,,,308,NW,UN,33,amiloy,PSETCH,z,,,,,,0.3828125,-0.330729167,0,0,0,,0,136,136,367,1,
,,,,,,,,,,,,,,,,,,5c58bdb5a2f0f6000157e4e6,2020-11-27_15h06.26.486,lexical_decision_task_MP_exp2,2020.2.5,Win32,60,,m,1,0.666,,,,,,,,0.666,1,,,,,,142,WORD,UN,16,reason,SPRUCE,m,,,,,,0.3828125,-0.330729167,0,0,0,,0,137,137,201,1,
,,,,,,,,,,,,,,,,,,5c58bdb5a2f0f6000157e4e6,2020-11-27_15h06.26.486,lexical_decision_task_MP_exp2,2020.2.5,Win32,60,,m,1,0.53815,,,,,,,,0.53815,1,,,,,,145,WORD,UN,16,couple,PARISH,m,,,,,,0.3828125,-0.330729167,0,0,0,,0,138,138,204,1,
,,,,,,,,,,,,,,,,,,5c58bdb5a2f0f6000157e4e6,2020-11-27_15h06.26.486,lexical_decision_task_MP_exp2,2020.2.5,Win32,60,,m,0,0.566675,,,,,,,,0.566675,0,,,,,,411,NW,UN,16,jiluer,ORCHIN,z,,,,,,0.3828125,-0.330729167,0,0,0,,0,139,139,470,1,
,,,,,,,,,,,,,,,,,,5c58bdb5a2f0f6000157e4e6,2020-11-27_15h06.26.486,lexical_decision_task_MP_exp2,2020.2.5,Win32,60,,z,1,0.72578,,,,,,,,0.72578,1,,,,,,271,NW,"ID",16,aubrid,AUBRID,z,,,,,,0.3828125,-0.330729167,0,0,0,,0,140,140,330,1,
,,,,,,,,,,,,,,,,,,5c58bdb5a2f0f6000157e4e6,2020-11-27_15h06.26.486,lexical_decision_task_MP_exp2,2020.2.5,Win32,60,,m,1,0.59756,,,,,,,,0.59756,1,,,,,,18,WORD,"ID",16,humble,HUMBLE,m,,,,,,0.3828125,-0.330729167,0,0,0,,0,141,141,77,1,
,,,,,,,,,,,,,,,,,,5c58bdb5a2f0f6000157e4e6,2020-11-27_15h06.26.486,lexical_decision_task_MP_exp2,2020.2.5,Win32,60,,m,1,0.616385,,,,,,,,0.616385,1,,,,,,36,WORD,"ID",16,vanish,VANISH,m,,,,,,0.3828125,-0.330729167,0,0,0,,0,142,142,95,1,
,,,,,,,,,,,,,,,,,,5c58bdb5a2f0f6000157e4e6,2020-11-27_15h06.26.486,lexical_decision_task_MP_exp2,2020.2.5,Win32,60,,z,1,0.62686,,,,,,,,0.62686,1,,,,,,276,NW,"ID",16,yarmon,YARMON,z,,,,,,0.3828125,-0.330729167,0,0,0,,0,143,143,335,1,
,,,,,,,,,,,,,,,,,,5c58bdb5a2f0f6000157e4e6,2020-11-27_15h06.26.486,lexical_decision_task_MP_exp2,2020.2.5,Win32,60,,m,1,0.627315,,,,,,,,0.627315,1,,,,,,124,WORD,UN,16,nickel,BLOUSE,m,,,,,,0.3828125,-0.330729167,0,0,0,,0,144,144,183,1,
,,,,,,,,,,,,,,,,,,5c58bdb5a2f0f6000157e4e6,2020-11-27_15h06.26.486,lexical_decision_task_MP_exp2,2020.2.5,Win32,60,,m,1,0.81895,,,,,,,,0.81895,1,,,,,,225,WORD,"ID",33,vulgar,VULGAR,m,,,,,,0.3828125,-0.330729167,0,0,0,,0,145,145,44,1,
,,,,,,,,,,,,,,,,,,5c58bdb5a2f0f6000157e4e6,2020-11-27_15h06.26.486,lexical_decision_task_MP_exp2,2020.2.5,Win32,60,,m,1,0.47862,,,,,,,,0.47862,1,,,,,,20,WORD,"ID",16,breast,BREAST,m,,,,,,0.3828125,-0.330729167,0,0,0,,0,146,146,79,1,
,,,,,,,,,,,,,,,,,,5c58bdb5a2f0f6000157e4e6,2020-11-27_15h06.26.486,lexical_decision_task_MP_exp2,2020.2.5,Win32,60,,m,1,0.618585,,,,,,,,0.618585,1,,,,,,116,WORD,UN,33,branch,TUMBLE,m,,,,,,0.3828125,-0.330729167,0,0,0,,0,147,147,175,1,
,,,,,,,,,,,,,,,,,,5c58bdb5a2f0f6000157e4e6,2020-11-27_15h06.26.486,lexical_decision_task_MP_exp2,2020.2.5,Win32,60,,z,1,0.63499,,,,,,,,0.63499,1,,,,,,393,NW,UN,16,spaqux,GANOUS,z,,,,,,0.3828125,-0.330729167,0,0,0,,0,148,148,452,1,
,,,,,,,,,,,,,,,,,,5c58bdb5a2f0f6000157e4e6,2020-11-27_15h06.26.486,lexical_decision_task_MP_exp2,2020.2.5,Win32,60,,m,1,0.619965,,,,,,,,0.619965,1,,,,,,109,WORD,UN,33,polite,WONDER,m,,,,,,0.3828125,-0.330729167,0,0,0,,0,149,149,168,1,
,,,,,,,,,,,,,,,,,,5c58bdb5a2f0f6000157e4e6,2020-11-27_15h06.26.486,lexical_decision_task_MP_exp2,2020.2.5,Win32,60,,z,1,0.583025,,,,,,,,0.583025,1,,,,,,415,NW,UN,16,pathel,HIGSTA,z,,,,,,0.3828125,-0.330729167,0,0,0,,0,150,150,474,1,
,,,,,,,,,,,,,,,,,,5c58bdb5a2f0f6000157e4e6,2020-11-27_15h06.26.486,lexical_decision_task_MP_exp2,2020.2.5,Win32,60,,z,1,0.815615,,,,,,,,0.815615,1,,,,,,340,NW,UN,33,myrtie,FIATCH,z,,,,,,0.3828125,-0.330729167,0,0,0,,0,151,151,399,1,
,,,,,,,,,,,,,,,,,,5c58bdb5a2f0f6000157e4e6,2020-11-27_15h06.26.486,lexical_decision_task_MP_exp2,2020.2.5,Win32,60,,z,1,0.54097,,,,,,,,0.54097,1,,,,,,457,NW,"ID",33,wanigh,WANIGH,z,,,,,,0.3828125,-0.330729167,0,0,0,,0,152,152,276,1,
,,,,,,,,,,,,,,,,,,5c58bdb5a2f0f6000157e4e6,2020-11-27_15h06.26.486,lexical_decision_task_MP_exp2,2020.2.5,Win32,60,,z,1,0.52199,,,,,,,,0.52199,1,,,,,,351,NW,UN,33,tringe,TIESCH,z,,,,,,0.3828125,-0.330729167,0,0,0,,0,153,153,410,1,
,,,,,,,,,,,,,,,,,,5c58bdb5a2f0f6000157e4e6,2020-11-27_15h06.26.486,lexical_decision_task_MP_exp2,2020.2.5,Win32,60,,z,1,0.670505,,,,,,,,0.670505,1,,,,,,317,NW,UN,33,reagly,WORBAL,z,,,,,,0.3828125,-0.330729167,0,0,0,,0,154,154,376,1,
,,,,,,,,,,,,,,,,,,5c58bdb5a2f0f6000157e4e6,2020-11-27_15h06.26.486,lexical_decision_task_MP_exp2,2020.2.5,Win32,60,,z,1,0.69004,,,,,,,,0.69004,1,,,,,,341,NW,UN,33,randow,MYRTIE,z,,,,,,0.3828125,-0.330729167,0,0,0,,0,155,155,400,1,
,,,,,,,,,,,,,,,,,,5c58bdb5a2f0f6000157e4e6,2020-11-27_15h06.26.486,lexical_decision_task_MP_exp2,2020.2.5,Win32,60,,m,1,0.70331,,,,,,,,0.70331,1,,,,,,66,WORD,UN,33,policy,GOSPEL,m,,,,,,0.3828125,-0.330729167,0,0,0,,0,156,156,125,1,
,,,,,,,,,,,,,,,,,,5c58bdb5a2f0f6000157e4e6,2020-11-27_15h06.26.486,lexical_decision_task_MP_exp2,2020.2.5,Win32,60,,m,1,0.553445,,,,,,,,0.553445,1,,,,,,115,WORD,UN,33,tumble,GUITAR,m,,,,,,0.3828125,-0.330729167,0,0,0,,0,157,157,174,1,
,,,,,,,,,,,,,,,,,,5c58bdb5a2f0f6000157e4e6,2020-11-27_15h06.26.486,lexical_decision_task_MP_exp2,2020.2.5,Win32,60,,z,1,0.68261,,,,,,,,0.68261,1,,,,,,424,NW,"ID",33,praile,PRAILE,z,,,,,,0.3828125,-0.330729167,0,0,0,,0,158,158,243,1,
,,,,,,,,,,,,,,,,,,5c58bdb5a2f0f6000157e4e6,2020-11-27_15h06.26.486,lexical_decision_task_MP_exp2,2020.2.5,Win32,60,,z,1,0.53981,,,,,,,,0.53981,1,,,,,,356,NW,UN,33,derain,OTHNIS,z,,,,,,0.3828125,-0.330729167,0,0,0,,0,159,159,415,1,
,,,,,,,,,,,,,,,,,,5c58bdb5a2f0f6000157e4e6,2020-11-27_15h06.26.486,lexical_decision_task_MP_exp2,2020.2.5,Win32,60,,z,1,0.7004,,,,,,,,0.7004,1,,,,,,305,NW,UN,33,sounge,FORGLE,z,,,,,,0.3828125,-0.330729167,0,0,0,,0,160,160,364,1,
,,,,,,,,,,,,,,,,,,5c58bdb5a2f0f6000157e4e6,2020-11-27_15h06.26.486,lexical_decision_task_MP_exp2,2020.2.5,Win32,60,,z,1,0.63125,,,,,,,,0.63125,1,,,,,,355,NW,UN,33,othnis,ZINGLY,z,,,,,,0.3828125,-0.330729167,0,0,0,,0,161,161,414,1,
,,,,,,,,,,,,,,,,,,5c58bdb5a2f0f6000157e4e6,2020-11-27_15h06.26.486,lexical_decision_task_MP_exp2,2020.2.5,Win32,60,,m,1,0.633175,,,,,,,,0.633175,1,,,,,,1,WORD,"ID",16,fright,FRIGHT,m,,,,,,0.3828125,-0.330729167,0,0,0,,0,162,162,60,1,
,,,,,,,,,,,,,,,,,,5c58bdb5a2f0f6000157e4e6,2020-11-27_15h06.26.486,lexical_decision_task_MP_exp2,2020.2.5,Win32,60,,z,1,0.548885,,,,,,,,0.548885,1,,,,,,268,NW,"ID",16,packes,PACKES,z,,,,,,0.3828125,-0.330729167,0,0,0,,0,163,163,327,1,
,,,,,,,,,,,,,,,,,,5c58bdb5a2f0f6000157e4e6,2020-11-27_15h06.26.486,lexical_decision_task_MP_exp2,2020.2.5,Win32,60,,m,1,0.58314,,,,,,,,0.58314,1,,,,,,203,WORD,"ID",33,phrase,PHRASE,m,,,,,,0.3828125,-0.330729167,0,0,0,,0,164,164,22,1,
,,,,,,,,,,,,,,,,,,5c58bdb5a2f0f6000157e4e6,2020-11-27_15h06.26.486,lexical_decision_task_MP_exp2,2020.2.5,Win32,60,,m,1,0.585055,,,,,,,,0.585055,1,,,,,,105,WORD,UN,33,ransom,NUMBER,m,,,,,,0.3828125,-0.330729167,0,0,0,,0,165,165,164,1,
,,,,,,,,,,,,,,,,,,5c58bdb5a2f0f6000157e4e6,2020-11-27_15h06.26.486,lexical_decision_task_MP_exp2,2020.2.5,Win32,60,,m,1,0.63285,,,,,,,,0.63285,1,,,,,,189,WORD,"ID",33,censor,CENSOR,m,,,,,,0.3828125,-0.330729167,0,0,0,,0,166,166,8,1,
,,,,,,,,,,,,,,,,,,5c58bdb5a2f0f6000157e4e6,2020-11-27_15h06.26.486,lexical_decision_task_MP_exp2,2020.2.5,Win32,60,,m,1,0.58995,,,,,,,,0.58995,1,,,,,,80,WORD,UN,33,friend,FAMILY,m,,,,,,0.3828125,-0.330729167,0,0,0,,0,167,167,139,1,
,,,,,,,,,,,,,,,,,,5c58bdb5a2f0f6000157e4e6,2020-11-27_15h06.26.486,lexical_decision_task_MP_exp2,2020.2.5,Win32,60,,m,1,0.639415,,,,,,,,0.639415,1,,,,,,153,WORD,UN,16,author,BEHOLD,m,,,,,,0.3828125,-0.330729167,0,0,0,,0,168,168,212,1,
,,,,,,,,,,,,,,,,,,5c58bdb5a2f0f6000157e4e6,2020-11-27_15h06.26.486,lexical_decision_task_MP_exp2,2020.2.5,Win32,60,,m,1,0.58135,,,,,,,,0.58135,1,,,,,,206,WORD,"ID",33,tailor,TAILOR,m,,,,,,0.3828125,-0.330729167,0,0,0,,0,169,169,25,1,
,,,,,,,,,,,,,,,,,,5c58bdb5a2f0f6000157e4e6,2020-11-27_15h06.26.486,lexical_decision_task_MP_exp2,2020.2.5,Win32,60,,z,1,0.789705,,,,,,,,0.789705,1,,,,,,402,NW,UN,16,bruats,SYNTIC,z,,,,,,0.3828125,-0.330729167,0,0,0,,0,170,170,461,1,
,,,,,,,,,,,,,,,,,,5c58bdb5a2f0f6000157e4e6,2020-11-27_15h06.26.486,lexical_decision_task_MP_exp2,2020.2.5,Win32,60,,m,1,0.66523,,,,,,,,0.66523,1,,,,,,118,WORD,UN,33,spider,FLIGHT,m,,,,,,0.3828125,-0.330729167,0,0,0,,0,171,171,177,1,
,,,,,,,,,,,,,,,,,,5c58bdb5a2f0f6000157e4e6,2020-11-27_15h06.26.486,lexical_decision_task_MP_exp2,2020.2.5,Win32,60,,m,1,0.61607,,,,,,,,0.61607,1,,,,,,90,WORD,UN,33,expand,RELISH,m,,,,,,0.3828125,-0.330729167,0,0,0,,0,172,172,149,1,
,,,,,,,,,,,,,,,,,,5c58bdb5a2f0f6000157e4e6,2020-11-27_15h06.26.486,lexical_decision_task_MP_exp2,2020.2.5,Win32,60,,z,1,0.673205,,,,,,,,0.673205,1,,,,,,396,NW,UN,16,camble,FLENGY,z,,,,,,0.3828125,-0.330729167,0,0,0,,0,173,173,455,1,
,,,,,,,,,,,,,,,,,,5c58bdb5a2f0f6000157e4e6,2020-11-27_15h06.26.486,lexical_decision_task_MP_exp2,2020.2.5,Win32,60,,z,1,0.85286,,,,,,,,0.85286,1,,,,,,260,NW,"ID",16,unject,UNJECT,z,,,,,,0.3828125,-0.330729167,0,0,0,,0,174,174,319,1,
,,,,,,,,,,,,,,,,,,5c58bdb5a2f0f6000157e4e6,2020-11-27_15h06.26.486,lexical_decision_task_MP_exp2,2020.2.5,Win32,60,,z,1,0.616415,,,,,,,,0.616415,1,,,,,,285,NW,"ID",16,prudge,PRUDGE,z,,,,,,0.3828125,-0.330729167,0,0,0,,0,175,175,344,1,
,,,,,,,,,,,,,,,,,,5c58bdb5a2f0f6000157e4e6,2020-11-27_15h06.26.486,lexical_decision_task_MP_exp2,2020.2.5,Win32,60,,m,1,0.53684,,,,,,,,0.53684,1,,,,,,160,WORD,UN,16,pastor,VIOLET,m,,,,,,0.3828125,-0.330729167,0,0,0,,0,176,176,219,1,
,,,,,,,,,,,,,,,,,,5c58bdb5a2f0f6000157e4e6,2020-11-27_15h06.26.486,lexical_decision_task_MP_exp2,2020.2.5,Win32,60,,z,1,0.70543,,,,,,,,0.70543,1,,,,,,292,NW,"ID",16,ablint,ABLINT,z,,,,,,0.3828125,-0.330729167,0,0,0,,0,177,177,351,1,
,,,,,,,,,,,,,,,,,,5c58bdb5a2f0f6000157e4e6,2020-11-27_15h06.26.486,lexical_decision_task_MP_exp2,2020.2.5,Win32,60,,m,1,0.605155,,,,,,,,0.605155,1,,,,,,217,WORD,"ID",33,liquor,LIQUOR,m,,,,,,0.3828125,-0.330729167,0,0,0,,0,178,178,36,1,
,,,,,,,,,,,,,,,,,,5c58bdb5a2f0f6000157e4e6,2020-11-27_15h06.26.486,lexical_decision_task_MP_exp2,2020.2.5,Win32,60,,m,1,0.58781,,,,,,,,0.58781,1,,,,,,233,WORD,"ID",33,nature,NATURE,m,,,,,,0.3828125,-0.330729167,0,0,0,,0,179,179,52,1,
,,,,,,,,,,,,,,,,,,5c58bdb5a2f0f6000157e4e6,2020-11-27_15h06.26.486,lexical_decision_task_MP_exp2,2020.2.5,Win32,60,,z,1,0.60033,,,,,,,,0.60033,1,,,,,,295,NW,"ID",16,gleath,GLEATH,z,,,,,,0.3828125,-0.330729167,0,0,0,,0,180,180,354,1,
,,,,,,,,,,,,,,,,,,5c58bdb5a2f0f6000157e4e6,2020-11-27_15h06.26.486,lexical_decision_task_MP_exp2,2020.2.5,Win32,60,,z,1,0.587445,,,,,,,,0.587445,1,,,,,,363,NW,UN,16,impote,BREALI,z,,,,,,0.3828125,-0.330729167,0,0,0,,0,181,181,422,1,
,,,,,,,,,,,,,,,,,,5c58bdb5a2f0f6000157e4e6,2020-11-27_15h06.26.486,lexical_decision_task_MP_exp2,2020.2.5,Win32,60,,m,1,0.601865,,,,,,,,0.601865,1,,,,,,210,WORD,"ID",33,monkey,MONKEY,m,,,,,,0.3828125,-0.330729167,0,0,0,,0,182,182,29,1,
,,,,,,,,,,,,,,,,,,5c58bdb5a2f0f6000157e4e6,2020-11-27_15h06.26.486,lexical_decision_task_MP_exp2,2020.2.5,Win32,60,,z,1,0.59113,,,,,,,,0.59113,1,,,,,,324,NW,UN,33,thruse,STEIKH,z,,,,,,0.3828125,-0.330729167,0,0,0,,0,183,183,383,1,
,,,,,,,,,,,,,,,,,,5c58bdb5a2f0f6000157e4e6,2020-11-27_15h06.26.486,lexical_decision_task_MP_exp2,2020.2.5,Win32,60,,z,1,0.59912,,,,,,,,0.59912,1,,,,,,414,NW,UN,16,higsta,SERBOL,z,,,,,,0.3828125,-0.330729167,0,0,0,,0,184,184,473,1,
,,,,,,,,,,,,,,,,,,5c58bdb5a2f0f6000157e4e6,2020-11-27_15h06.26.486,lexical_decision_task_MP_exp2,2020.2.5,Win32,60,,m,1,0.601425,,,,,,,,0.601425,1,,,,,,232,WORD,"ID",33,inject,INJECT,m,,,,,,0.3828125,-0.330729167,0,0,0,,0,185,185,51,1,
,,,,,,,,,,,,,,,,,,5c58bdb5a2f0f6000157e4e6,2020-11-27_15h06.26.486,lexical_decision_task_MP_exp2,2020.2.5,Win32,60,,z,1,0.61632,,,,,,,,0.61632,1,,,,,,257,NW,"ID",16,veniod,VENIOD,z,,,,,,0.3828125,-0.330729167,0,0,0,,0,186,186,316,1,
,,,,,,,,,,,,,,,,,,5c58bdb5a2f0f6000157e4e6,2020-11-27_15h06.26.486,lexical_decision_task_MP_exp2,2020.2.5,Win32,60,,z,1,0.677345,,,,,,,,0.677345,1,,,,,,335,NW,UN,33,ghodus,DESION,z,,,,,,0.3828125,-0.330729167,0,0,0,,0,187,187,394,1,
,,,,,,,,,,,,,,,,,,5c58bdb5a2f0f6000157e4e6,2020-11-27_15h06.26.486,lexical_decision_task_MP_exp2,2020.2.5,Win32,60,,z,1,0.53625,,,,,,,,0.53625,1,,,,,,442,NW,"ID",33,aboune,ABOUNE,z,,,,,,0.3828125,-0.330729167,0,0,0,,0,188,188,261,1,
,,,,,,,,,,,,,,,,,,5c58bdb5a2f0f6000157e4e6,2020-11-27_15h06.26.486,lexical_decision_task_MP_exp2,2020.2.5,Win32,60,,m,1,0.57186,,,,,,,,0.57186,1,,,,,,64,WORD,UN,33,symbol,THRONE,m,,,,,,0.3828125,-0.330729167,0,0,0,,0,189,189,123,1,
,,,,,,,,,,,,,,,,,,5c58bdb5a2f0f6000157e4e6,2020-11-27_15h06.26.486,lexical_decision_task_MP_exp2,2020.2.5,Win32,60,,m,1,0.5332,,,,,,,,0.5332,1,,,,,,44,WORD,"ID",16,danger,DANGER,m,,,,,,0.3828125,-0.330729167,0,0,0,,0,190,190,103,1,
,,,,,,,,,,,,,,,,,,5c58bdb5a2f0f6000157e4e6,2020-11-27_15h06.26.486,lexical_decision_task_MP_exp2,2020.2.5,Win32,60,,m,1,0.549725,,,,,,,,0.549725,1,,,,,,194,WORD,"ID",33,absent,ABSENT,m,,,,,,0.3828125,-0.330729167,0,0,0,,0,191,191,13,1,
,,,,,,,,,,,,,,,,,,5c58bdb5a2f0f6000157e4e6,2020-11-27_15h06.26.486,lexical_decision_task_MP_exp2,2020.2.5,Win32,60,,m,1,0.551985,,,,,,,,0.551985,1,,,,,,164,WORD,UN,16,invest,MARKET,m,,,,,,0.3828125,-0.330729167,0,0,0,,0,192,192,223,1,
,,,,,,,,,,,,,,,,,,5c58bdb5a2f0f6000157e4e6,2020-11-27_15h06.26.486,lexical_decision_task_MP_exp2,2020.2.5,Win32,60,,m,1,0.58336,,,,,,,,0.58336,1,,,,,,135,WORD,UN,16,bleach,IMPORT,m,,,,,,0.3828125,-0.330729167,0,0,0,,0,193,193,194,1,
,,,,,,,,,,,,,,,,,,5c58bdb5a2f0f6000157e4e6,2020-11-27_15h06.26.486,lexical_decision_task_MP_exp2,2020.2.5,Win32,60,,z,1,0.609355,,,,,,,,0.609355,1,,,,,,357,NW,UN,33,fleack,DERAIN,z,,,,,,0.3828125,-0.330729167,0,0,0,,0,194,194,416,1,
,,,,,,,,,,,,,,,,,,5c58bdb5a2f0f6000157e4e6,2020-11-27_15h06.26.486,lexical_decision_task_MP_exp2,2020.2.5,Win32,60,,m,1,0.63115,,,,,,,,0.63115,1,,,,,,138,WORD,UN,16,debris,MELODY,m,,,,,,0.3828125,-0.330729167,0,0,0,,0,195,195,197,1,
,,,,,,,,,,,,,,,,,,5c58bdb5a2f0f6000157e4e6,2020-11-27_15h06.26.486,lexical_decision_task_MP_exp2,2020.2.5,Win32,60,,m,1,0.63221,,,,,,,,0.63221,1,,,,,,57,WORD,"ID",16,change,CHANGE,m,,,,,,0.3828125,-0.330729167,0,0,0,,0,196,196,116,1,
,,,,,,,,,,,,,,,,,,5c58bdb5a2f0f6000157e4e6,2020-11-27_15h06.26.486,lexical_decision_task_MP_exp2,2020.2.5,Win32,60,,z,1,0.667135,,,,,,,,0.667135,1,,,,,,307,NW,UN,33,psetch,KIRAFE,z,,,,,,0.3828125,-0.330729167,0,0,0,,0,197,197,366,1,
,,,,,,,,,,,,,,,,,,5c58bdb5a2f0f6000157e4e6,2020-11-27_15h06.26.486,lexical_decision_task_MP_exp2,2020.2.5,Win32,60,,z,1,0.897675,,,,,,,,0.897675,1,,,,,,419,NW,UN,16,gushop,SLOUNT,z,,,,,,0.3828125,-0.330729167,0,0,0,,0,198,198,478,1,
,,,,,,,,,,,,,,,,,,5c58bdb5a2f0f6000157e4e6,2020-11-27_15h06.26.486,lexical_decision_task_MP_exp2,2020.2.5,Win32,60,,m,1,0.550625,,,,,,,,0.550625,1,,,,,,71,WORD,UN,33,bright,GARDEN,m,,,,,,0.3828125,-0.330729167,0,0,0,,0,199,199,130,1,
,,,,,,,,,,,,,,,,,,5c58bdb5a2f0f6000157e4e6,2020-11-27_15h06.26.486,lexical_decision_task_MP_exp2,2020.2.5,Win32,60,,z,1,0.701395,,,,,,,,0.701395,1,,,,,,473,NW,"ID",33,crible,CRIBLE,z,,,,,,0.3828125,-0.330729167,0,0,0,,0,200,200,292,1,
,,,,,,,,,,,,,,,,,,5c58bdb5a2f0f6000157e4e6,2020-11-27_15h06.26.486,lexical_decision_task_MP_exp2,2020.2.5,Win32,60,,z,1,0.652195,,,,,,,,0.652195,1,,,,,,392,NW,UN,16,ganous,ROUNCY,z,,,,,,0.3828125,-0.330729167,0,0,0,,0,201,201,451,1,
,,,,,,,,,,,,,,,,,,5c58bdb5a2f0f6000157e4e6,2020-11-27_15h06.26.486,lexical_decision_task_MP_exp2,2020.2.5,Win32,60,,m,1,0.694265,,,,,,,,0.694265,1,,,,,,184,WORD,"ID",33,sleazy,SLEAZY,m,,,,,,0.3828125,-0.330729167,0,0,0,,0,202,202,3,1,
,,,,,,,,,,,,,,,,,,5c58bdb5a2f0f6000157e4e6,2020-11-27_15h06.26.486,lexical_decision_task_MP_exp2,2020.2.5,Win32,60,,z,1,0.68268,,,,,,,,0.68268,1,,,,,,281,NW,"ID",16,melaty,MELATY,z,,,,,,0.3828125,-0.330729167,0,0,0,,0,203,203,340,1,
,,,,,,,,,,,,,,,,,,5c58bdb5a2f0f6000157e4e6,2020-11-27_15h06.26.486,lexical_decision_task_MP_exp2,2020.2.5,Win32,60,,m,1,0.585885,,,,,,,,0.585885,1,,,,,,177,WORD,UN,16,inform,ADVENT,m,,,,,,0.3828125,-0.330729167,0,0,0,,0,204,204,236,1,
,,,,,,,,,,,,,,,,,,5c58bdb5a2f0f6000157e4e6,2020-11-27_15h06.26.486,lexical_decision_task_MP_exp2,2020.2.5,Win32,60,,m,1,0.549575,,,,,,,,0.549575,1,,,,,,149,WORD,UN,16,random,INVADE,m,,,,,,0.3828125,-0.330729167,0,0,0,,0,205,205,208,1,
,,,,,,,,,,,,,,,,,,5c58bdb5a2f0f6000157e4e6,2020-11-27_15h06.26.486,lexical_decision_task_MP_exp2,2020.2.5,Win32,60,,m,1,0.618025,,,,,,,,0.618025,1,,,,,,107,WORD,UN,33,reckon,SLOGAN,m,,,,,,0.3828125,-0.330729167,0,0,0,,0,206,206,166,1,
,,,,,,,,,,,,,,,,,,5c58bdb5a2f0f6000157e4e6,2020-11-27_15h06.26.486,lexical_decision_task_MP_exp2,2020.2.5,Win32,60,,z,1,0.570895,,,,,,,,0.570895,1,,,,,,339,NW,UN,33,fiatch,FACHOW,z,,,,,,0.3828125,-0.330729167,0,0,0,,0,207,207,398,1,
,,,,,,,,,,,,,,,,,,5c58bdb5a2f0f6000157e4e6,2020-11-27_15h06.26.486,lexical_decision_task_MP_exp2,2020.2.5,Win32,60,,z,1,0.60231,,,,,,,,0.60231,1,,,,,,297,NW,"ID",16,fertic,FERTIC,z,,,,,,0.3828125,-0.330729167,0,0,0,,0,208,208,356,1,
,,,,,,,,,,,,,,,,,,5c58bdb5a2f0f6000157e4e6,2020-11-27_15h06.26.486,lexical_decision_task_MP_exp2,2020.2.5,Win32,60,,m,1,0.587585,,,,,,,,0.587585,1,,,,,,4,WORD,"ID",16,trench,TRENCH,m,,,,,,0.3828125,-0.330729167,0,0,0,,0,209,209,63,1,
,,,,,,,,,,,,,,,,,,5c58bdb5a2f0f6000157e4e6,2020-11-27_15h06.26.486,lexical_decision_task_MP_exp2,2020.2.5,Win32,60,,m,1,0.635435,,,,,,,,0.635435,1,,,,,,40,WORD,"ID",16,convey,CONVEY,m,,,,,,0.3828125,-0.330729167,0,0,0,,0,210,210,99,1,
,,,,,,,,,,,,,,,,,,5c58bdb5a2f0f6000157e4e6,2020-11-27_15h06.26.486,lexical_decision_task_MP_exp2,2020.2.5,Win32,60,,z,1,0.552825,,,,,,,,0.552825,1,,,,,,435,NW,"ID",33,impurb,IMPURB,z,,,,,,0.3828125,-0.330729167,0,0,0,,0,211,211,254,1,
,,,,,,,,,,,,,,,,,,5c58bdb5a2f0f6000157e4e6,2020-11-27_15h06.26.486,lexical_decision_task_MP_exp2,2020.2.5,Win32,60,,z,1,0.539145,,,,,,,,0.539145,1,,,,,,323,NW,UN,33,steikh,ROSAIL,z,,,,,,0.3828125,-0.330729167,0,0,0,,0,212,212,382,1,
,,,,,,,,,,,,,,,,,,5c58bdb5a2f0f6000157e4e6,2020-11-27_15h06.26.486,lexical_decision_task_MP_exp2,2020.2.5,Win32,60,,z,1,0.606335,,,,,,,,0.606335,1,,,,,,266,NW,"ID",16,varmit,VARMIT,z,,,,,,0.3828125,-0.330729167,0,0,0,,0,213,213,325,1,
,,,,,,,,,,,,,,,,,,5c58bdb5a2f0f6000157e4e6,2020-11-27_15h06.26.486,lexical_decision_task_MP_exp2,2020.2.5,Win32,60,,m,1,0.616385,,,,,,,,0.616385,1,,,,,,240,WORD,"ID",33,forest,FOREST,m,,,,,,0.3828125,-0.330729167,0,0,0,,0,214,214,59,1,
,,,,,,,,,,,,,,,,,,5c58bdb5a2f0f6000157e4e6,2020-11-27_15h06.26.486,lexical_decision_task_MP_exp2,2020.2.5,Win32,60,,z,1,0.53275,,,,,,,,0.53275,1,,,,,,354,NW,UN,33,zingly,VIRLEX,z,,,,,,0.3828125,-0.330729167,0,0,0,,0,215,215,413,1,
,,,,,,,,,,,,,,,,,,5c58bdb5a2f0f6000157e4e6,2020-11-27_15h06.26.486,lexical_decision_task_MP_exp2,2020.2.5,Win32,60,,z,1,0.584135,,,,,,,,0.584135,1,,,,,,300,NW,"ID",16,yarion,YARION,z,,,,,,0.3828125,-0.330729167,0,0,0,,0,216,216,359,1,
,,,,,,,,,,,,,,,,,,5c58bdb5a2f0f6000157e4e6,2020-11-27_15h06.26.486,lexical_decision_task_MP_exp2,2020.2.5,Win32,60,,m,1,0.58921,,,,,,,,0.58921,1,,,,,,227,WORD,"ID",33,seldom,SELDOM,m,,,,,,0.3828125,-0.330729167,0,0,0,,0,217,217,46,1,
,,,,,,,,,,,,,,,,,,5c58bdb5a2f0f6000157e4e6,2020-11-27_15h06.26.486,lexical_decision_task_MP_exp2,2020.2.5,Win32,60,,z,1,0.57467,,,,,,,,0.57467,1,,,,,,347,NW,UN,33,dumple,KERIFT,z,,,,,,0.3828125,-0.330729167,0,0,0,,0,218,218,406,1,
,,,,,,,,,,,,,,,,,,5c58bdb5a2f0f6000157e4e6,2020-11-27_15h06.26.486,lexical_decision_task_MP_exp2,2020.2.5,Win32,60,,m,0,0.573775,,,,,,,,0.573775,0,,,,,,345,NW,UN,33,saudic,ABSEND,z,,,,,,0.3828125,-0.330729167,0,0,0,,0,219,219,404,1,
,,,,,,,,,,,,,,,,,,5c58bdb5a2f0f6000157e4e6,2020-11-27_15h06.26.486,lexical_decision_task_MP_exp2,2020.2.5,Win32,60,,m,1,0.73318,,,,,,,,0.73318,1,,,,,,95,WORD,UN,33,ignore,THREAD,m,,,,,,0.3828125,-0.330729167,0,0,0,,0,220,220,154,1,
,,,,,,,,,,,,,,,,,,5c58bdb5a2f0f6000157e4e6,2020-11-27_15h06.26.486,lexical_decision_task_MP_exp2,2020.2.5,Win32,60,,m,1,0.76537,,,,,,,,0.76537,1,,,,,,229,WORD,"ID",33,mother,MOTHER,m,,,,,,0.3828125,-0.330729167,0,0,0,,0,221,221,48,1,
,,,,,,,,,,,,,,,,,,5c58bdb5a2f0f6000157e4e6,2020-11-27_15h06.26.486,lexical_decision_task_MP_exp2,2020.2.5,Win32,60,,m,1,0.608955,,,,,,,,0.608955,1,,,,,,162,WORD,UN,16,string,CANDLE,m,,,,,,0.3828125,-0.330729167,0,0,0,,0,222,222,221,1,
,,,,,,,,,,,,,,,,,,5c58bdb5a2f0f6000157e4e6,2020-11-27_15h06.26.486,lexical_decision_task_MP_exp2,2020.2.5,Win32,60,,m,1,0.835965,,,,,,,,0.835965,1,,,,,,221,WORD,"ID",33,mascot,MASCOT,m,,,,,,0.3828125,-0.330729167,0,0,0,,0,223,223,40,1,
,,,,,,,,,,,,,,,,,,5c58bdb5a2f0f6000157e4e6,2020-11-27_15h06.26.486,lexical_decision_task_MP_exp2,2020.2.5,Win32,60,,z,1,0.62572,,,,,,,,0.62572,1,,,,,,332,NW,UN,33,catrie,VANGUE,z,,,,,,0.3828125,-0.330729167,0,0,0,,0,224,224,391,1,
,,,,,,,,,,,,,,,,,,5c58bdb5a2f0f6000157e4e6,2020-11-27_15h06.26.486,lexical_decision_task_MP_exp2,2020.2.5,Win32,60,,m,1,0.692815,,,,,,,,0.692815,1,,,,,,234,WORD,"ID",33,clumsy,CLUMSY,m,,,,,,0.3828125,-0.330729167,0,0,0,,0,225,225,53,1,
,,,,,,,,,,,,,,,,,,5c58bdb5a2f0f6000157e4e6,2020-11-27_15h06.26.486,lexical_decision_task_MP_exp2,2020.2.5,Win32,60,,m,1,0.62151,,,,,,,,0.62151,1,,,,,,33,WORD,"ID",16,butler,BUTLER,m,,,,,,0.3828125,-0.330729167,0,0,0,,0,226,226,92,1,
,,,,,,,,,,,,,,,,,,5c58bdb5a2f0f6000157e4e6,2020-11-27_15h06.26.486,lexical_decision_task_MP_exp2,2020.2.5,Win32,60,,z,1,0.638655,,,,,,,,0.638655,1,,,,,,474,NW,"ID",33,hablin,HABLIN,z,,,,,,0.3828125,-0.330729167,0,0,0,,0,227,227,293,1,
,,,,,,,,,,,,,,,,,,5c58bdb5a2f0f6000157e4e6,2020-11-27_15h06.26.486,lexical_decision_task_MP_exp2,2020.2.5,Win32,60,,m,1,0.58601,,,,,,,,0.58601,1,,,,,,195,WORD,"ID",33,resign,RESIGN,m,,,,,,0.3828125,-0.330729167,0,0,0,,0,228,228,14,1,
,,,,,,,,,,,,,,,,,,5c58bdb5a2f0f6000157e4e6,2020-11-27_15h06.26.486,lexical_decision_task_MP_exp2,2020.2.5,Win32,60,,z,1,0.585065,,,,,,,,0.585065,1,,,,,,331,NW,UN,33,vangue,GILFEW,z,,,,,,0.3828125,-0.330729167,0,0,0,,0,229,229,390,1,
,,,,,,,,,,,,,,,,,,5c58bdb5a2f0f6000157e4e6,2020-11-27_15h06.26.486,lexical_decision_task_MP_exp2,2020.2.5,Win32,60,,m,1,0.636135,,,,,,,,0.636135,1,,,,,,7,WORD,"ID",16,anchor,ANCHOR,m,,,,,,0.3828125,-0.330729167,0,0,0,,0,230,230,66,1,
,,,,,,,,,,,,,,,,,,5c58bdb5a2f0f6000157e4e6,2020-11-27_15h06.26.486,lexical_decision_task_MP_exp2,2020.2.5,Win32,60,,z,1,0.68115,,,,,,,,0.68115,1,,,,,,372,NW,UN,16,bigent,RAMILY,z,,,,,,0.3828125,-0.330729167,0,0,0,,0,231,231,431,1,
,,,,,,,,,,,,,,,,,,5c58bdb5a2f0f6000157e4e6,2020-11-27_15h06.26.486,lexical_decision_task_MP_exp2,2020.2.5,Win32,60,,m,1,0.59865,,,,,,,,0.59865,1,,,,,,205,WORD,"ID",33,lounge,LOUNGE,m,,,,,,0.3828125,-0.330729167,0,0,0,,0,232,232,24,1,
,,,,,,,,,,,,,,,,,,5c58bdb5a2f0f6000157e4e6,2020-11-27_15h06.26.486,lexical_decision_task_MP_exp2,2020.2.5,Win32,60,,m,1,0.538475,,,,,,,,0.538475,1,,,,,,127,WORD,UN,16,senior,CASTLE,m,,,,,,0.3828125,-0.330729167,0,0,0,,0,233,233,186,1,
,,,,,,,,,,,,,,,,,,5c58bdb5a2f0f6000157e4e6,2020-11-27_15h06.26.486,lexical_decision_task_MP_exp2,2020.2.5,Win32,60,,m,1,0.553835,,,,,,,,0.553835,1,,,,,,152,WORD,UN,16,behold,ROCKET,m,,,,,,0.3828125,-0.330729167,0,0,0,,0,234,234,211,1,
,,,,,,,,,,,,,,,,,,5c58bdb5a2f0f6000157e4e6,2020-11-27_15h06.26.486,lexical_decision_task_MP_exp2,2020.2.5,Win32,60,,z,1,0.555985,,,,,,,,0.555985,1,,,,,,374,NW,UN,16,yorque,SLIANT,z,,,,,,0.3828125,-0.330729167,0,0,0,,0,235,235,433,1,
,,,,,,,,,,,,,,,,,,5c58bdb5a2f0f6000157e4e6,2020-11-27_15h06.26.486,lexical_decision_task_MP_exp2,2020.2.5,Win32,60,,m,1,0.755965,,,,,,,,0.755965,1,,,,,,230,WORD,"ID",33,fringe,FRINGE,m,,,,,,0.3828125,-0.330729167,0,0,0,,0,236,236,49,1,
,,,,,,,,,,,,,,,,,,5c58bdb5a2f0f6000157e4e6,2020-11-27_15h06.26.486,lexical_decision_task_MP_exp2,2020.2.5,Win32,60,,m,1,0.69264,,,,,,,,0.69264,1,,,,,,87,WORD,UN,33,sprawl,FILTER,m,,,,,,0.3828125,-0.330729167,0,0,0,,0,237,237,146,1,
,,,,,,,,,,,,,,,,,,5c58bdb5a2f0f6000157e4e6,2020-11-27_15h06.26.486,lexical_decision_task_MP_exp2,2020.2.5,Win32,60,,m,1,0.524295,,,,,,,,0.524295,1,,,,,,53,WORD,"ID",16,police,POLICE,m,,,,,,0.3828125,-0.330729167,0,0,0,,0,238,238,112,1,
,,,,,,,,,,,,,,,,,,5c58bdb5a2f0f6000157e4e6,2020-11-27_15h06.26.486,lexical_decision_task_MP_exp2,2020.2.5,Win32,60,,z,1,0.621145,,,,,,,,0.621145,1,,,,,,318,NW,UN,33,zomber,REAGLY,z,,,,,,0.3828125,-0.330729167,0,0,0,,0,239,239,377,1,
,,,,,,,,,,,,,,,,,,5c58bdb5a2f0f6000157e4e6,2020-11-27_15h06.26.486,lexical_decision_task_MP_exp2,2020.2.5,Win32,60,,z,1,0.6042,,,,,,,,0.6042,1,,,,,,459,NW,"ID",33,bafent,BAFENT,z,,,,,,0.3828125,-0.330729167,0,0,0,,0,240,240,278,1,
,,,,,,,,,,,,,,,,,,5c58bdb5a2f0f6000157e4e6,2020-11-27_15h06.26.486,lexical_decision_task_MP_exp2,2020.2.5,Win32,60,,m,1,0.617765,,,,,,,,0.617765,1,,,,,,81,WORD,UN,33,stigma,FRIEND,m,,,,,,0.346354167,-0.345052083,0,0,0,space,0,241,241,140,1,101.67945
,,,,,,,,,,,,,,,,,,5c58bdb5a2f0f6000157e4e6,2020-11-27_15h06.26.486,lexical_decision_task_MP_exp2,2020.2.5,Win32,60,,z,1,0.58587,,,,,,,,0.58587,1,,,,,,475,NW,"ID",33,pebric,PEBRIC,z,,,,,,0.346354167,-0.345052083,0,0,0,,0,242,242,294,1,
,,,,,,,,,,,,,,,,,,5c58bdb5a2f0f6000157e4e6,2020-11-27_15h06.26.486,lexical_decision_task_MP_exp2,2020.2.5,Win32,60,,m,1,0.62157,,,,,,,,0.62157,1,,,,,,191,WORD,"ID",33,stable,STABLE,m,,,,,,0.346354167,-0.345052083,0,0,0,,0,243,243,10,1,
,,,,,,,,,,,,,,,,,,5c58bdb5a2f0f6000157e4e6,2020-11-27_15h06.26.486,lexical_decision_task_MP_exp2,2020.2.5,Win32,60,,z,1,0.60467,,,,,,,,0.60467,1,,,,,,468,NW,"ID",33,wictor,WICTOR,z,,,,,,0.346354167,-0.345052083,0,0,0,,0,244,244,287,1,
,,,,,,,,,,,,,,,,,,5c58bdb5a2f0f6000157e4e6,2020-11-27_15h06.26.486,lexical_decision_task_MP_exp2,2020.2.5,Win32,60,,m,1,0.68308,,,,,,,,0.68308,1,,,,,,84,WORD,UN,33,strand,MORTAL,m,,,,,,0.346354167,-0.345052083,0,0,0,,0,245,245,143,1,
,,,,,,,,,,,,,,,,,,5c58bdb5a2f0f6000157e4e6,2020-11-27_15h06.26.486,lexical_decision_task_MP_exp2,2020.2.5,Win32,60,,m,1,0.465975,,,,,,,,0.465975,1,,,,,,110,WORD,UN,33,induce,POLITE,m,,,,,,0.346354167,-0.345052083,0,0,0,,0,246,246,169,1,
,,,,,,,,,,,,,,,,,,5c58bdb5a2f0f6000157e4e6,2020-11-27_15h06.26.486,lexical_decision_task_MP_exp2,2020.2.5,Win32,60,,z,1,0.652635,,,,,,,,0.652635,1,,,,,,250,NW,"ID",16,milted,MILTED,z,,,,,,0.346354167,-0.345052083,0,0,0,,0,247,247,309,1,
,,,,,,,,,,,,,,,,,,5c58bdb5a2f0f6000157e4e6,2020-11-27_15h06.26.486,lexical_decision_task_MP_exp2,2020.2.5,Win32,60,,z,1,0.56947,,,,,,,,0.56947,1,,,,,,328,NW,UN,33,yarike,BROAKE,z,,,,,,0.346354167,-0.345052083,0,0,0,,0,248,248,387,1,
,,,,,,,,,,,,,,,,,,5c58bdb5a2f0f6000157e4e6,2020-11-27_15h06.26.486,lexical_decision_task_MP_exp2,2020.2.5,Win32,60,,m,1,0.55134,,,,,,,,0.55134,1,,,,,,59,WORD,"ID",16,splint,SPLINT,m,,,,,,0.346354167,-0.345052083,0,0,0,,0,249,249,118,1,
,,,,,,,,,,,,,,,,,,5c58bdb5a2f0f6000157e4e6,2020-11-27_15h06.26.486,lexical_decision_task_MP_exp2,2020.2.5,Win32,60,,m,1,0.56997,,,,,,,,0.56997,1,,,,,,183,WORD,"ID",33,mildew,MILDEW,m,,,,,,0.346354167,-0.345052083,0,0,0,,0,250,250,2,1,
,,,,,,,,,,,,,,,,,,5c58bdb5a2f0f6000157e4e6,2020-11-27_15h06.26.486,lexical_decision_task_MP_exp2,2020.2.5,Win32,60,,z,1,0.618795,,,,,,,,0.618795,1,,,,,,444,NW,"ID",33,jaunce,JAUNCE,z,,,,,,0.346354167,-0.345052083,0,0,0,,0,251,251,263,1,
,,,,,,,,,,,,,,,,,,5c58bdb5a2f0f6000157e4e6,2020-11-27_15h06.26.486,lexical_decision_task_MP_exp2,2020.2.5,Win32,60,,m,1,0.588825,,,,,,,,0.588825,1,,,,,,97,WORD,UN,33,belong,CLIENT,m,,,,,,0.346354167,-0.345052083,0,0,0,,0,252,252,156,1,
,,,,,,,,,,,,,,,,,,5c58bdb5a2f0f6000157e4e6,2020-11-27_15h06.26.486,lexical_decision_task_MP_exp2,2020.2.5,Win32,60,,m,1,0.60291,,,,,,,,0.60291,1,,,,,,134,WORD,UN,16,import,STAPLE,m,,,,,,0.346354167,-0.345052083,0,0,0,,0,253,253,193,1,
,,,,,,,,,,,,,,,,,,5c58bdb5a2f0f6000157e4e6,2020-11-27_15h06.26.486,lexical_decision_task_MP_exp2,2020.2.5,Win32,60,,z,1,0.636905,,,,,,,,0.636905,1,,,,,,439,NW,"ID",33,limpor,LIMPOR,z,,,,,,0.346354167,-0.345052083,0,0,0,,0,254,254,258,1,
,,,,,,,,,,,,,,,,,,5c58bdb5a2f0f6000157e4e6,2020-11-27_15h06.26.486,lexical_decision_task_MP_exp2,2020.2.5,Win32,60,,m,1,0.550045,,,,,,,,0.550045,1,,,,,,213,WORD,"ID",33,squeal,SQUEAL,m,,,,,,0.346354167,-0.345052083,0,0,0,,0,255,255,32,1,
,,,,,,,,,,,,,,,,,,5c58bdb5a2f0f6000157e4e6,2020-11-27_15h06.26.486,lexical_decision_task_MP_exp2,2020.2.5,Win32,60,,z,1,0.653615,,,,,,,,0.653615,1,,,,,,449,NW,"ID",33,brunge,BRUNGE,z,,,,,,0.346354167,-0.345052083,0,0,0,,0,256,256,268,1,
,,,,,,,,,,,,,,,,,,5c58bdb5a2f0f6000157e4e6,2020-11-27_15h06.26.486,lexical_decision_task_MP_exp2,2020.2.5,Win32,60,,m,1,0.50544,,,,,,,,0.50544,1,,,,,,173,WORD,UN,16,turkey,SHOWER,m,,,,,,0.346354167,-0.345052083,0,0,0,,0,257,257,232,1,
,,,,,,,,,,,,,,,,,,5c58bdb5a2f0f6000157e4e6,2020-11-27_15h06.26.486,lexical_decision_task_MP_exp2,2020.2.5,Win32,60,,m,1,0.54849,,,,,,,,0.54849,1,,,,,,50,WORD,"ID",16,snatch,SNATCH,m,,,,,,0.346354167,-0.345052083,0,0,0,,0,258,258,109,1,
,,,,,,,,,,,,,,,,,,5c58bdb5a2f0f6000157e4e6,2020-11-27_15h06.26.486,lexical_decision_task_MP_exp2,2020.2.5,Win32,60,,m,1,0.531085,,,,,,,,0.531085,1,,,,,,24,WORD,"ID",16,praise,PRAISE,m,,,,,,0.346354167,-0.345052083,0,0,0,,0,259,259,83,1,
,,,,,,,,,,,,,,,,,,5c58bdb5a2f0f6000157e4e6,2020-11-27_15h06.26.486,lexical_decision_task_MP_exp2,2020.2.5,Win32,60,,z,1,0.60045,,,,,,,,0.60045,1,,,,,,461,NW,"ID",33,justre,JUSTRE,z,,,,,,0.346354167,-0.345052083,0,0,0,,0,260,260,280,1,
,,,,,,,,,,,,,,,,,,5c58bdb5a2f0f6000157e4e6,2020-11-27_15h06.26.486,lexical_decision_task_MP_exp2,2020.2.5,Win32,60,,m,1,0.602985,,,,,,,,0.602985,1,,,,,,23,WORD,"ID",16,wealth,WEALTH,m,,,,,,0.346354167,-0.345052083,0,0,0,,0,261,261,82,1,
,,,,,,,,,,,,,,,,,,5c58bdb5a2f0f6000157e4e6,2020-11-27_15h06.26.486,lexical_decision_task_MP_exp2,2020.2.5,Win32,60,,z,1,0.615895,,,,,,,,0.615895,1,,,,,,470,NW,"ID",33,crudio,CRUDIO,z,,,,,,0.346354167,-0.345052083,0,0,0,,0,262,262,289,1,
,,,,,,,,,,,,,,,,,,5c58bdb5a2f0f6000157e4e6,2020-11-27_15h06.26.486,lexical_decision_task_MP_exp2,2020.2.5,Win32,60,,m,1,0.507905,,,,,,,,0.507905,1,,,,,,198,WORD,"ID",33,wicked,WICKED,m,,,,,,0.346354167,-0.345052083,0,0,0,,0,263,263,17,1,
,,,,,,,,,,,,,,,,,,5c58bdb5a2f0f6000157e4e6,2020-11-27_15h06.26.486,lexical_decision_task_MP_exp2,2020.2.5,Win32,60,,m,1,0.60704,,,,,,,,0.60704,1,,,,,,170,WORD,UN,16,dragon,POUNCE,m,,,,,,0.346354167,-0.345052083,0,0,0,,0,264,264,229,1,
,,,,,,,,,,,,,,,,,,5c58bdb5a2f0f6000157e4e6,2020-11-27_15h06.26.486,lexical_decision_task_MP_exp2,2020.2.5,Win32,60,,m,1,0.65032,,,,,,,,0.65032,1,,,,,,8,WORD,"ID",16,abrupt,ABRUPT,m,,,,,,0.346354167,-0.345052083,0,0,0,,0,265,265,67,1,
,,,,,,,,,,,,,,,,,,5c58bdb5a2f0f6000157e4e6,2020-11-27_15h06.26.486,lexical_decision_task_MP_exp2,2020.2.5,Win32,60,,m,1,0.55621,,,,,,,,0.55621,1,,,,,,235,WORD,"ID",33,grumpy,GRUMPY,m,,,,,,0.346354167,-0.345052083,0,0,0,,0,266,266,54,1,
,,,,,,,,,,,,,,,,,,5c58bdb5a2f0f6000157e4e6,2020-11-27_15h06.26.486,lexical_decision_task_MP_exp2,2020.2.5,Win32,60,,z,1,0.600465,,,,,,,,0.600465,1,,,,,,333,NW,UN,33,watmeg,CATRIE,z,,,,,,0.346354167,-0.345052083,0,0,0,,0,267,267,392,1,
,,,,,,,,,,,,,,,,,,5c58bdb5a2f0f6000157e4e6,2020-11-27_15h06.26.486,lexical_decision_task_MP_exp2,2020.2.5,Win32,60,,m,1,0.60133,,,,,,,,0.60133,1,,,,,,91,WORD,UN,33,hunger,EXPAND,m,,,,,,0.346354167,-0.345052083,0,0,0,,0,268,268,150,1,
,,,,,,,,,,,,,,,,,,5c58bdb5a2f0f6000157e4e6,2020-11-27_15h06.26.486,lexical_decision_task_MP_exp2,2020.2.5,Win32,60,,z,1,0.690595,,,,,,,,0.690595,1,,,,,,269,NW,"ID",16,orchet,ORCHET,z,,,,,,0.346354167,-0.345052083,0,0,0,,0,269,269,328,1,
,,,,,,,,,,,,,,,,,,5c58bdb5a2f0f6000157e4e6,2020-11-27_15h06.26.486,lexical_decision_task_MP_exp2,2020.2.5,Win32,60,,m,1,0.589725,,,,,,,,0.589725,1,,,,,,62,WORD,UN,33,launch,REGION,m,,,,,,0.346354167,-0.345052083,0,0,0,,0,270,270,121,1,
,,,,,,,,,,,,,,,,,,5c58bdb5a2f0f6000157e4e6,2020-11-27_15h06.26.486,lexical_decision_task_MP_exp2,2020.2.5,Win32,60,,z,1,0.643465,,,,,,,,0.643465,1,,,,,,326,NW,UN,33,plenac,IGUADE,z,,,,,,0.346354167,-0.345052083,0,0,0,,0,271,271,385,1,
,,,,,,,,,,,,,,,,,,5c58bdb5a2f0f6000157e4e6,2020-11-27_15h06.26.486,lexical_decision_task_MP_exp2,2020.2.5,Win32,60,,m,1,0.61124,,,,,,,,0.61124,1,,,,,,185,WORD,"ID",33,bother,BOTHER,m,,,,,,0.346354167,-0.345052083,0,0,0,,0,272,272,4,1,
,,,,,,,,,,,,,,,,,,5c58bdb5a2f0f6000157e4e6,2020-11-27_15h06.26.486,lexical_decision_task_MP_exp2,2020.2.5,Win32,60,,m,1,0.589115,,,,,,,,0.589115,1,,,,,,68,WORD,UN,33,plenty,FUMBLE,m,,,,,,0.346354167,-0.345052083,0,0,0,,0,273,273,127,1,
,,,,,,,,,,,,,,,,,,5c58bdb5a2f0f6000157e4e6,2020-11-27_15h06.26.486,lexical_decision_task_MP_exp2,2020.2.5,Win32,60,,m,1,0.570105,,,,,,,,0.570105,1,,,,,,58,WORD,"ID",16,foster,FOSTER,m,,,,,,0.346354167,-0.345052083,0,0,0,,0,274,274,117,1,
,,,,,,,,,,,,,,,,,,5c58bdb5a2f0f6000157e4e6,2020-11-27_15h06.26.486,lexical_decision_task_MP_exp2,2020.2.5,Win32,60,,z,1,0.63339,,,,,,,,0.63339,1,,,,,,280,NW,"ID",16,curbol,CURBOL,z,,,,,,0.346354167,-0.345052083,0,0,0,,0,275,275,339,1,
,,,,,,,,,,,,,,,,,,5c58bdb5a2f0f6000157e4e6,2020-11-27_15h06.26.486,lexical_decision_task_MP_exp2,2020.2.5,Win32,60,,m,1,0.66999,,,,,,,,0.66999,1,,,,,,85,WORD,UN,33,rodent,SPRAWL,m,,,,,,0.346354167,-0.345052083,0,0,0,,0,276,276,144,1,
,,,,,,,,,,,,,,,,,,5c58bdb5a2f0f6000157e4e6,2020-11-27_15h06.26.486,lexical_decision_task_MP_exp2,2020.2.5,Win32,60,,m,1,0.57001,,,,,,,,0.57001,1,,,,,,13,WORD,"ID",16,strive,STRIVE,m,,,,,,0.346354167,-0.345052083,0,0,0,,0,277,277,72,1,
,,,,,,,,,,,,,,,,,,5c58bdb5a2f0f6000157e4e6,2020-11-27_15h06.26.486,lexical_decision_task_MP_exp2,2020.2.5,Win32,60,,m,1,0.606885,,,,,,,,0.606885,1,,,,,,5,WORD,"ID",16,plunge,PLUNGE,m,,,,,,0.346354167,-0.345052083,0,0,0,,0,278,278,64,1,
,,,,,,,,,,,,,,,,,,5c58bdb5a2f0f6000157e4e6,2020-11-27_15h06.26.486,lexical_decision_task_MP_exp2,2020.2.5,Win32,60,,m,1,0.65723,,,,,,,,0.65723,1,,,,,,125,WORD,UN,16,enough,NICKEL,m,,,,,,0.346354167,-0.345052083,0,0,0,,0,279,279,184,1,
,,,,,,,,,,,,,,,,,,5c58bdb5a2f0f6000157e4e6,2020-11-27_15h06.26.486,lexical_decision_task_MP_exp2,2020.2.5,Win32,60,,z,1,0.65496,,,,,,,,0.65496,1,,,,,,428,NW,"ID",33,tandly,TANDLY,z,,,,,,0.346354167,-0.345052083,0,0,0,,0,280,280,247,1,
,,,,,,,,,,,,,,,,,,5c58bdb5a2f0f6000157e4e6,2020-11-27_15h06.26.486,lexical_decision_task_MP_exp2,2020.2.5,Win32,60,,z,1,0.600125,,,,,,,,0.600125,1,,,,,,383,NW,UN,16,guesco,AUNGRE,z,,,,,,0.346354167,-0.345052083,0,0,0,,0,281,281,442,1,
,,,,,,,,,,,,,,,,,,5c58bdb5a2f0f6000157e4e6,2020-11-27_15h06.26.486,lexical_decision_task_MP_exp2,2020.2.5,Win32,60,,m,1,0.517495,,,,,,,,0.517495,1,,,,,,31,WORD,"ID",16,weapon,WEAPON,m,,,,,,0.346354167,-0.345052083,0,0,0,,0,282,282,90,1,
,,,,,,,,,,,,,,,,,,5c58bdb5a2f0f6000157e4e6,2020-11-27_15h06.26.486,lexical_decision_task_MP_exp2,2020.2.5,Win32,60,,z,1,0.56886,,,,,,,,0.56886,1,,,,,,453,NW,"ID",33,bolvis,BOLVIS,z,,,,,,0.346354167,-0.345052083,0,0,0,,0,283,283,272,1,
,,,,,,,,,,,,,,,,,,5c58bdb5a2f0f6000157e4e6,2020-11-27_15h06.26.486,lexical_decision_task_MP_exp2,2020.2.5,Win32,60,,m,1,0.53447,,,,,,,,0.53447,1,,,,,,100,WORD,UN,33,wrench,CARBON,m,,,,,,0.346354167,-0.345052083,0,0,0,,0,284,284,159,1,
,,,,,,,,,,,,,,,,,,5c58bdb5a2f0f6000157e4e6,2020-11-27_15h06.26.486,lexical_decision_task_MP_exp2,2020.2.5,Win32,60,,z,1,0.641025,,,,,,,,0.641025,1,,,,,,278,NW,"ID",16,unighs,UNIGHS,z,,,,,,0.346354167,-0.345052083,0,0,0,,0,285,285,337,1,
,,,,,,,,,,,,,,,,,,5c58bdb5a2f0f6000157e4e6,2020-11-27_15h06.26.486,lexical_decision_task_MP_exp2,2020.2.5,Win32,60,,z,1,0.60899,,,,,,,,0.60899,1,,,,,,304,NW,UN,33,forgle,CLUDIE,z,,,,,,0.346354167,-0.345052083,0,0,0,,0,286,286,363,1,
,,,,,,,,,,,,,,,,,,5c58bdb5a2f0f6000157e4e6,2020-11-27_15h06.26.486,lexical_decision_task_MP_exp2,2020.2.5,Win32,60,,m,1,0.58295,,,,,,,,0.58295,1,,,,,,136,WORD,UN,16,finger,BLEACH,m,,,,,,0.346354167,-0.345052083,0,0,0,,0,287,287,195,1,
,,,,,,,,,,,,,,,,,,5c58bdb5a2f0f6000157e4e6,2020-11-27_15h06.26.486,lexical_decision_task_MP_exp2,2020.2.5,Win32,60,,z,1,0.766715,,,,,,,,0.766715,1,,,,,,348,NW,UN,33,asylen,DUMPLE,z,,,,,,0.346354167,-0.345052083,0,0,0,,0,288,288,407,1,
,,,,,,,,,,,,,,,,,,5c58bdb5a2f0f6000157e4e6,2020-11-27_15h06.26.486,lexical_decision_task_MP_exp2,2020.2.5,Win32,60,,m,1,0.655735,,,,,,,,0.655735,1,,,,,,45,WORD,"ID",16,clergy,CLERGY,m,,,,,,0.346354167,-0.345052083,0,0,0,,0,289,289,104,1,
,,,,,,,,,,,,,,,,,,5c58bdb5a2f0f6000157e4e6,2020-11-27_15h06.26.486,lexical_decision_task_MP_exp2,2020.2.5,Win32,60,,m,1,0.541285,,,,,,,,0.541285,1,,,,,,209,WORD,"ID",33,search,SEARCH,m,,,,,,0.346354167,-0.345052083,0,0,0,,0,290,290,28,1,
,,,,,,,,,,,,,,,,,,5c58bdb5a2f0f6000157e4e6,2020-11-27_15h06.26.486,lexical_decision_task_MP_exp2,2020.2.5,Win32,60,,m,1,0.633155,,,,,,,,0.633155,1,,,,,,83,WORD,UN,33,mortal,RESULT,m,,,,,,0.346354167,-0.345052083,0,0,0,,0,291,291,142,1,
,,,,,,,,,,,,,,,,,,5c58bdb5a2f0f6000157e4e6,2020-11-27_15h06.26.486,lexical_decision_task_MP_exp2,2020.2.5,Win32,60,,m,1,0.599465,,,,,,,,0.599465,1,,,,,,46,WORD,"ID",16,single,SINGLE,m,,,,,,0.346354167,-0.345052083,0,0,0,,0,292,292,105,1,
,,,,,,,,,,,,,,,,,,5c58bdb5a2f0f6000157e4e6,2020-11-27_15h06.26.486,lexical_decision_task_MP_exp2,2020.2.5,Win32,60,,z,1,0.552225,,,,,,,,0.552225,1,,,,,,327,NW,UN,33,broake,PLENAC,z,,,,,,0.346354167,-0.345052083,0,0,0,,0,293,293,386,1,
,,,,,,,,,,,,,,,,,,5c58bdb5a2f0f6000157e4e6,2020-11-27_15h06.26.486,lexical_decision_task_MP_exp2,2020.2.5,Win32,60,,m,1,0.532055,,,,,,,,0.532055,1,,,,,,196,WORD,"ID",33,credit,CREDIT,m,,,,,,0.346354167,-0.345052083,0,0,0,,0,294,294,15,1,
,,,,,,,,,,,,,,,,,,5c58bdb5a2f0f6000157e4e6,2020-11-27_15h06.26.486,lexical_decision_task_MP_exp2,2020.2.5,Win32,60,,m,1,0.58473,,,,,,,,0.58473,1,,,,,,188,WORD,"ID",33,social,SOCIAL,m,,,,,,0.346354167,-0.345052083,0,0,0,,0,295,295,7,1,
,,,,,,,,,,,,,,,,,,5c58bdb5a2f0f6000157e4e6,2020-11-27_15h06.26.486,lexical_decision_task_MP_exp2,2020.2.5,Win32,60,,z,1,0.58179,,,,,,,,0.58179,1,,,,,,310,NW,UN,33,sproly,DANIET,z,,,,,,0.346354167,-0.345052083,0,0,0,,0,296,296,369,1,
,,,,,,,,,,,,,,,,,,5c58bdb5a2f0f6000157e4e6,2020-11-27_15h06.26.486,lexical_decision_task_MP_exp2,2020.2.5,Win32,60,,z,1,1.003995,,,,,,,,1.003995,1,,,,,,432,NW,"ID",33,lunker,LUNKER,z,,,,,,0.346354167,-0.345052083,0,0,0,,0,297,297,251,1,
,,,,,,,,,,,,,,,,,,5c58bdb5a2f0f6000157e4e6,2020-11-27_15h06.26.486,lexical_decision_task_MP_exp2,2020.2.5,Win32,60,,z,1,0.69143,,,,,,,,0.69143,1,,,,,,360,NW,UN,33,fainch,DESORY,z,,,,,,0.346354167,-0.345052083,0,0,0,,0,298,298,419,1,
,,,,,,,,,,,,,,,,,,5c58bdb5a2f0f6000157e4e6,2020-11-27_15h06.26.486,lexical_decision_task_MP_exp2,2020.2.5,Win32,60,,m,1,0.667045,,,,,,,,0.667045,1,,,,,,181,WORD,"ID",33,glance,GLANCE,m,,,,,,0.346354167,-0.345052083,0,0,0,,0,299,299,0,1,
,,,,,,,,,,,,,,,,,,5c58bdb5a2f0f6000157e4e6,2020-11-27_15h06.26.486,lexical_decision_task_MP_exp2,2020.2.5,Win32,60,,m,1,0.55028,,,,,,,,0.55028,1,,,,,,21,WORD,"ID",16,simple,SIMPLE,m,,,,,,0.346354167,-0.345052083,0,0,0,,0,300,300,80,1,
,,,,,,,,,,,,,,,,,,5c58bdb5a2f0f6000157e4e6,2020-11-27_15h06.26.486,lexical_decision_task_MP_exp2,2020.2.5,Win32,60,,z,1,0.66577,,,,,,,,0.66577,1,,,,,,379,NW,UN,16,cavory,AUTING,z,,,,,,0.346354167,-0.345052083,0,0,0,,0,301,301,438,1,
,,,,,,,,,,,,,,,,,,5c58bdb5a2f0f6000157e4e6,2020-11-27_15h06.26.486,lexical_decision_task_MP_exp2,2020.2.5,Win32,60,,m,1,0.602425,,,,,,,,0.602425,1,,,,,,61,WORD,UN,33,region,PONDER,m,,,,,,0.346354167,-0.345052083,0,0,0,,0,302,302,120,1,
,,,,,,,,,,,,,,,,,,5c58bdb5a2f0f6000157e4e6,2020-11-27_15h06.26.486,lexical_decision_task_MP_exp2,2020.2.5,Win32,60,,z,1,0.560635,,,,,,,,0.560635,1,,,,,,417,NW,UN,16,suidle,EAROUD,z,,,,,,0.346354167,-0.345052083,0,0,0,,0,303,303,476,1,
,,,,,,,,,,,,,,,,,,5c58bdb5a2f0f6000157e4e6,2020-11-27_15h06.26.486,lexical_decision_task_MP_exp2,2020.2.5,Win32,60,,z,1,0.56258,,,,,,,,0.56258,1,,,,,,463,NW,"ID",33,kispel,KISPEL,z,,,,,,0.346354167,-0.345052083,0,0,0,,0,304,304,282,1,
,,,,,,,,,,,,,,,,,,5c58bdb5a2f0f6000157e4e6,2020-11-27_15h06.26.486,lexical_decision_task_MP_exp2,2020.2.5,Win32,60,,m,1,0.578495,,,,,,,,0.578495,1,,,,,,119,WORD,UN,33,strain,SPIDER,m,,,,,,0.346354167,-0.345052083,0,0,0,,0,305,305,178,1,
,,,,,,,,,,,,,,,,,,5c58bdb5a2f0f6000157e4e6,2020-11-27_15h06.26.486,lexical_decision_task_MP_exp2,2020.2.5,Win32,60,,z,1,0.625015,,,,,,,,0.625015,1,,,,,,264,NW,"ID",16,vackel,VACKEL,z,,,,,,0.346354167,-0.345052083,0,0,0,,0,306,306,323,1,
,,,,,,,,,,,,,,,,,,5c58bdb5a2f0f6000157e4e6,2020-11-27_15h06.26.486,lexical_decision_task_MP_exp2,2020.2.5,Win32,60,,z,1,0.60057,,,,,,,,0.60057,1,,,,,,256,NW,"ID",16,inlors,INLORS,z,,,,,,0.346354167,-0.345052083,0,0,0,,0,307,307,315,1,
,,,,,,,,,,,,,,,,,,5c58bdb5a2f0f6000157e4e6,2020-11-27_15h06.26.486,lexical_decision_task_MP_exp2,2020.2.5,Win32,60,,m,1,0.687965,,,,,,,,0.687965,1,,,,,,180,WORD,UN,16,thrive,SILENT,m,,,,,,0.346354167,-0.345052083,0,0,0,,0,308,308,239,1,
,,,,,,,,,,,,,,,,,,5c58bdb5a2f0f6000157e4e6,2020-11-27_15h06.26.486,lexical_decision_task_MP_exp2,2020.2.5,Win32,60,,z,1,0.568865,,,,,,,,0.568865,1,,,,,,476,NW,"ID",33,josted,JOSTED,z,,,,,,0.346354167,-0.345052083,0,0,0,,0,309,309,295,1,
,,,,,,,,,,,,,,,,,,5c58bdb5a2f0f6000157e4e6,2020-11-27_15h06.26.486,lexical_decision_task_MP_exp2,2020.2.5,Win32,60,,z,1,0.51526,,,,,,,,0.51526,1,,,,,,336,NW,UN,33,rejols,GHODUS,z,,,,,,0.346354167,-0.345052083,0,0,0,,0,310,310,395,1,
,,,,,,,,,,,,,,,,,,5c58bdb5a2f0f6000157e4e6,2020-11-27_15h06.26.486,lexical_decision_task_MP_exp2,2020.2.5,Win32,60,,z,1,0.56565,,,,,,,,0.56565,1,,,,,,272,NW,"ID",16,damilt,DAMILT,z,,,,,,0.346354167,-0.345052083,0,0,0,,0,311,311,331,1,
,,,,,,,,,,,,,,,,,,5c58bdb5a2f0f6000157e4e6,2020-11-27_15h06.26.486,lexical_decision_task_MP_exp2,2020.2.5,Win32,60,,z,1,0.56603,,,,,,,,0.56603,1,,,,,,378,NW,UN,16,auting,SHRILE,z,,,,,,0.346354167,-0.345052083,0,0,0,,0,312,312,437,1,
,,,,,,,,,,,,,,,,,,5c58bdb5a2f0f6000157e4e6,2020-11-27_15h06.26.486,lexical_decision_task_MP_exp2,2020.2.5,Win32,60,,z,1,0.530885,,,,,,,,0.530885,1,,,,,,427,NW,"ID",33,schind,SCHIND,z,,,,,,0.346354167,-0.345052083,0,0,0,,0,313,313,246,1,
,,,,,,,,,,,,,,,,,,5c58bdb5a2f0f6000157e4e6,2020-11-27_15h06.26.486,lexical_decision_task_MP_exp2,2020.2.5,Win32,60,,m,0,0.65055,,,,,,,,0.65055,0,,,,,,277,NW,"ID",16,petain,PETAIN,z,,,,,,0.346354167,-0.345052083,0,0,0,,0,314,314,336,1,
,,,,,,,,,,,,,,,,,,5c58bdb5a2f0f6000157e4e6,2020-11-27_15h06.26.486,lexical_decision_task_MP_exp2,2020.2.5,Win32,60,,z,1,0.93249,,,,,,,,0.93249,1,,,,,,416,NW,UN,16,earoud,PATHEL,z,,,,,,0.346354167,-0.345052083,0,0,0,,0,315,315,475,1,
,,,,,,,,,,,,,,,,,,5c58bdb5a2f0f6000157e4e6,2020-11-27_15h06.26.486,lexical_decision_task_MP_exp2,2020.2.5,Win32,60,,z,1,0.684715,,,,,,,,0.684715,1,,,,,,451,NW,"ID",33,cainky,CAINKY,z,,,,,,0.346354167,-0.345052083,0,0,0,,0,316,316,270,1,
,,,,,,,,,,,,,,,,,,5c58bdb5a2f0f6000157e4e6,2020-11-27_15h06.26.486,lexical_decision_task_MP_exp2,2020.2.5,Win32,60,,z,1,0.632185,,,,,,,,0.632185,1,,,,,,467,NW,"ID",33,gorbie,GORBIE,z,,,,,,0.346354167,-0.345052083,0,0,0,,0,317,317,286,1,
,,,,,,,,,,,,,,,,,,5c58bdb5a2f0f6000157e4e6,2020-11-27_15h06.26.486,lexical_decision_task_MP_exp2,2020.2.5,Win32,60,,z,1,0.702215,,,,,,,,0.702215,1,,,,,,287,NW,"ID",16,nymbel,NYMBEL,z,,,,,,0.346354167,-0.345052083,0,0,0,,0,318,318,346,1,
,,,,,,,,,,,,,,,,,,5c58bdb5a2f0f6000157e4e6,2020-11-27_15h06.26.486,lexical_decision_task_MP_exp2,2020.2.5,Win32,60,,z,1,0.685595,,,,,,,,0.685595,1,,,,,,422,NW,"ID",33,alcoud,ALCOUD,z,,,,,,0.346354167,-0.345052083,0,0,0,,0,319,319,241,1,
,,,,,,,,,,,,,,,,,,5c58bdb5a2f0f6000157e4e6,2020-11-27_15h06.26.486,lexical_decision_task_MP_exp2,2020.2.5,Win32,60,,m,1,0.68444,,,,,,,,0.68444,1,,,,,,102,WORD,UN,33,bounce,DIRECT,m,,,,,,0.346354167,-0.345052083,0,0,0,,0,320,320,161,1,
,,,,,,,,,,,,,,,,,,5c58bdb5a2f0f6000157e4e6,2020-11-27_15h06.26.486,lexical_decision_task_MP_exp2,2020.2.5,Win32,60,,z,1,0.66711,,,,,,,,0.66711,1,,,,,,454,NW,"ID",33,scouge,SCOUGE,z,,,,,,0.346354167,-0.345052083,0,0,0,,0,321,321,273,1,
,,,,,,,,,,,,,,,,,,5c58bdb5a2f0f6000157e4e6,2020-11-27_15h06.26.486,lexical_decision_task_MP_exp2,2020.2.5,Win32,60,,z,1,0.582735,,,,,,,,0.582735,1,,,,,,445,NW,"ID",33,minkel,MINKEL,z,,,,,,0.346354167,-0.345052083,0,0,0,,0,322,322,264,1,
,,,,,,,,,,,,,,,,,,5c58bdb5a2f0f6000157e4e6,2020-11-27_15h06.26.486,lexical_decision_task_MP_exp2,2020.2.5,Win32,60,,z,1,0.58853,,,,,,,,0.58853,1,,,,,,472,NW,"ID",33,cigney,CIGNEY,z,,,,,,0.346354167,-0.345052083,0,0,0,,0,323,323,291,1,
,,,,,,,,,,,,,,,,,,5c58bdb5a2f0f6000157e4e6,2020-11-27_15h06.26.486,lexical_decision_task_MP_exp2,2020.2.5,Win32,60,,m,1,0.62089,,,,,,,,0.62089,1,,,,,,143,WORD,UN,16,sponge,REASON,m,,,,,,0.346354167,-0.345052083,0,0,0,,0,324,324,202,1,
,,,,,,,,,,,,,,,,,,5c58bdb5a2f0f6000157e4e6,2020-11-27_15h06.26.486,lexical_decision_task_MP_exp2,2020.2.5,Win32,60,,m,1,0.75341,,,,,,,,0.75341,1,,,,,,222,WORD,"ID",33,hinder,HINDER,m,,,,,,0.346354167,-0.345052083,0,0,0,,0,325,325,41,1,
,,,,,,,,,,,,,,,,,,5c58bdb5a2f0f6000157e4e6,2020-11-27_15h06.26.486,lexical_decision_task_MP_exp2,2020.2.5,Win32,60,,m,1,0.66639,,,,,,,,0.66639,1,,,,,,92,WORD,UN,33,public,STRAND,m,,,,,,0.346354167,-0.345052083,0,0,0,,0,326,326,151,1,
,,,,,,,,,,,,,,,,,,5c58bdb5a2f0f6000157e4e6,2020-11-27_15h06.26.486,lexical_decision_task_MP_exp2,2020.2.5,Win32,60,,z,1,0.599115,,,,,,,,0.599115,1,,,,,,241,NW,"ID",16,smenco,SMENCO,z,,,,,,0.346354167,-0.345052083,0,0,0,,0,327,327,300,1,
,,,,,,,,,,,,,,,,,,5c58bdb5a2f0f6000157e4e6,2020-11-27_15h06.26.486,lexical_decision_task_MP_exp2,2020.2.5,Win32,60,,z,1,0.55064,,,,,,,,0.55064,1,,,,,,245,NW,"ID",16,anougs,ANOUGS,z,,,,,,0.346354167,-0.345052083,0,0,0,,0,328,328,304,1,
,,,,,,,,,,,,,,,,,,5c58bdb5a2f0f6000157e4e6,2020-11-27_15h06.26.486,lexical_decision_task_MP_exp2,2020.2.5,Win32,60,,z,1,0.56692,,,,,,,,0.56692,1,,,,,,362,NW,UN,16,breali,TIREAU,z,,,,,,0.346354167,-0.345052083,0,0,0,,0,329,329,421,1,
,,,,,,,,,,,,,,,,,,5c58bdb5a2f0f6000157e4e6,2020-11-27_15h06.26.486,lexical_decision_task_MP_exp2,2020.2.5,Win32,60,,m,1,0.70186,,,,,,,,0.70186,1,,,,,,212,WORD,"ID",33,verify,VERIFY,m,,,,,,0.346354167,-0.345052083,0,0,0,,0,330,330,31,1,
,,,,,,,,,,,,,,,,,,5c58bdb5a2f0f6000157e4e6,2020-11-27_15h06.26.486,lexical_decision_task_MP_exp2,2020.2.5,Win32,60,,z,1,0.63939,,,,,,,,0.63939,1,,,,,,294,NW,"ID",16,inhort,INHORT,z,,,,,,0.346354167,-0.345052083,0,0,0,,0,331,331,353,1,
,,,,,,,,,,,,,,,,,,5c58bdb5a2f0f6000157e4e6,2020-11-27_15h06.26.486,lexical_decision_task_MP_exp2,2020.2.5,Win32,60,,z,1,0.550205,,,,,,,,0.550205,1,,,,,,382,NW,UN,16,aungre,SARLEY,z,,,,,,0.346354167,-0.345052083,0,0,0,,0,332,332,441,1,
,,,,,,,,,,,,,,,,,,5c58bdb5a2f0f6000157e4e6,2020-11-27_15h06.26.486,lexical_decision_task_MP_exp2,2020.2.5,Win32,60,,z,1,0.683885,,,,,,,,0.683885,1,,,,,,352,NW,UN,33,clurey,TRINGE,z,,,,,,0.346354167,-0.345052083,0,0,0,,0,333,333,411,1,
,,,,,,,,,,,,,,,,,,5c58bdb5a2f0f6000157e4e6,2020-11-27_15h06.26.486,lexical_decision_task_MP_exp2,2020.2.5,Win32,60,,m,1,0.62836,,,,,,,,0.62836,1,,,,,,192,WORD,"ID",33,plague,PLAGUE,m,,,,,,0.346354167,-0.345052083,0,0,0,,0,334,334,11,1,
,,,,,,,,,,,,,,,,,,5c58bdb5a2f0f6000157e4e6,2020-11-27_15h06.26.486,lexical_decision_task_MP_exp2,2020.2.5,Win32,60,,z,1,0.628315,,,,,,,,0.628315,1,,,,,,344,NW,UN,33,absend,SCRILY,z,,,,,,0.346354167,-0.345052083,0,0,0,,0,335,335,403,1,
,,,,,,,,,,,,,,,,,,5c58bdb5a2f0f6000157e4e6,2020-11-27_15h06.26.486,lexical_decision_task_MP_exp2,2020.2.5,Win32,60,,m,1,0.67527,,,,,,,,0.67527,1,,,,,,129,WORD,UN,16,stupid,MARVEL,m,,,,,,0.346354167,-0.345052083,0,0,0,,0,336,336,188,1,
,,,,,,,,,,,,,,,,,,5c58bdb5a2f0f6000157e4e6,2020-11-27_15h06.26.486,lexical_decision_task_MP_exp2,2020.2.5,Win32,60,,z,1,0.627745,,,,,,,,0.627745,1,,,,,,365,NW,UN,16,toshel,GUAIRT,z,,,,,,0.346354167,-0.345052083,0,0,0,,0,337,337,424,1,
,,,,,,,,,,,,,,,,,,5c58bdb5a2f0f6000157e4e6,2020-11-27_15h06.26.486,lexical_decision_task_MP_exp2,2020.2.5,Win32,60,,z,1,0.647185,,,,,,,,0.647185,1,,,,,,364,NW,UN,16,guairt,IMPOTE,z,,,,,,0.346354167,-0.345052083,0,0,0,,0,338,338,423,1,
,,,,,,,,,,,,,,,,,,5c58bdb5a2f0f6000157e4e6,2020-11-27_15h06.26.486,lexical_decision_task_MP_exp2,2020.2.5,Win32,60,,m,1,0.6499,,,,,,,,0.6499,1,,,,,,19,WORD,"ID",16,patron,PATRON,m,,,,,,0.346354167,-0.345052083,0,0,0,,0,339,339,78,1,
,,,,,,,,,,,,,,,,,,5c58bdb5a2f0f6000157e4e6,2020-11-27_15h06.26.486,lexical_decision_task_MP_exp2,2020.2.5,Win32,60,,z,1,0.58427,,,,,,,,0.58427,1,,,,,,375,NW,UN,16,iguare,YORQUE,z,,,,,,0.346354167,-0.345052083,0,0,0,,0,340,340,434,1,
,,,,,,,,,,,,,,,,,,5c58bdb5a2f0f6000157e4e6,2020-11-27_15h06.26.486,lexical_decision_task_MP_exp2,2020.2.5,Win32,60,,z,1,0.586085,,,,,,,,0.586085,1,,,,,,407,NW,UN,16,hurnia,SUIVER,z,,,,,,0.346354167,-0.345052083,0,0,0,,0,341,341,466,1,
,,,,,,,,,,,,,,,,,,5c58bdb5a2f0f6000157e4e6,2020-11-27_15h06.26.486,lexical_decision_task_MP_exp2,2020.2.5,Win32,60,,z,1,0.584005,,,,,,,,0.584005,1,,,,,,438,NW,"ID",33,baitch,BAITCH,z,,,,,,0.346354167,-0.345052083,0,0,0,,0,342,342,257,1,
,,,,,,,,,,,,,,,,,,5c58bdb5a2f0f6000157e4e6,2020-11-27_15h06.26.486,lexical_decision_task_MP_exp2,2020.2.5,Win32,60,,m,1,0.651235,,,,,,,,0.651235,1,,,,,,27,WORD,"ID",16,scream,SCREAM,m,,,,,,0.346354167,-0.345052083,0,0,0,,0,343,343,86,1,
,,,,,,,,,,,,,,,,,,5c58bdb5a2f0f6000157e4e6,2020-11-27_15h06.26.486,lexical_decision_task_MP_exp2,2020.2.5,Win32,60,,z,1,0.6935,,,,,,,,0.6935,1,,,,,,425,NW,"ID",33,frudge,FRUDGE,z,,,,,,0.346354167,-0.345052083,0,0,0,,0,344,344,244,1,
,,,,,,,,,,,,,,,,,,5c58bdb5a2f0f6000157e4e6,2020-11-27_15h06.26.486,lexical_decision_task_MP_exp2,2020.2.5,Win32,60,,m,1,0.624285,,,,,,,,0.624285,1,,,,,,74,WORD,UN,33,trophy,PLAQUE,m,,,,,,0.346354167,-0.345052083,0,0,0,,0,345,345,133,1,
,,,,,,,,,,,,,,,,,,5c58bdb5a2f0f6000157e4e6,2020-11-27_15h06.26.486,lexical_decision_task_MP_exp2,2020.2.5,Win32,60,,z,1,0.53904,,,,,,,,0.53904,1,,,,,,321,NW,UN,33,slanch,MIATOR,z,,,,,,0.346354167,-0.345052083,0,0,0,,0,346,346,380,1,
,,,,,,,,,,,,,,,,,,5c58bdb5a2f0f6000157e4e6,2020-11-27_15h06.26.486,lexical_decision_task_MP_exp2,2020.2.5,Win32,60,,m,1,0.632695,,,,,,,,0.632695,1,,,,,,120,WORD,UN,33,ponder,STRAIN,m,,,,,,0.346354167,-0.345052083,0,0,0,,0,347,347,179,1,
,,,,,,,,,,,,,,,,,,5c58bdb5a2f0f6000157e4e6,2020-11-27_15h06.26.486,lexical_decision_task_MP_exp2,2020.2.5,Win32,60,,m,1,0.61502,,,,,,,,0.61502,1,,,,,,89,WORD,UN,33,relish,PERMIT,m,,,,,,0.346354167,-0.345052083,0,0,0,,0,348,348,148,1,
,,,,,,,,,,,,,,,,,,5c58bdb5a2f0f6000157e4e6,2020-11-27_15h06.26.486,lexical_decision_task_MP_exp2,2020.2.5,Win32,60,,m,1,0.57423,,,,,,,,0.57423,1,,,,,,65,WORD,UN,33,gospel,SYMBOL,m,,,,,,0.346354167,-0.345052083,0,0,0,,0,349,349,124,1,
,,,,,,,,,,,,,,,,,,5c58bdb5a2f0f6000157e4e6,2020-11-27_15h06.26.486,lexical_decision_task_MP_exp2,2020.2.5,Win32,60,,m,1,0.550535,,,,,,,,0.550535,1,,,,,,132,WORD,UN,16,orphan,STRONG,m,,,,,,0.346354167,-0.345052083,0,0,0,,0,350,350,191,1,
,,,,,,,,,,,,,,,,,,5c58bdb5a2f0f6000157e4e6,2020-11-27_15h06.26.486,lexical_decision_task_MP_exp2,2020.2.5,Win32,60,,m,1,0.581395,,,,,,,,0.581395,1,,,,,,32,WORD,"ID",16,buckle,BUCKLE,m,,,,,,0.346354167,-0.345052083,0,0,0,,0,351,351,91,1,
,,,,,,,,,,,,,,,,,,5c58bdb5a2f0f6000157e4e6,2020-11-27_15h06.26.486,lexical_decision_task_MP_exp2,2020.2.5,Win32,60,,m,1,0.583505,,,,,,,,0.583505,1,,,,,,163,WORD,UN,16,market,STRING,m,,,,,,0.346354167,-0.345052083,0,0,0,,0,352,352,222,1,
,,,,,,,,,,,,,,,,,,5c58bdb5a2f0f6000157e4e6,2020-11-27_15h06.26.486,lexical_decision_task_MP_exp2,2020.2.5,Win32,60,,z,1,0.66668,,,,,,,,0.66668,1,,,,,,398,NW,UN,16,fouret,BLUNDE,z,,,,,,0.346354167,-0.345052083,0,0,0,,0,353,353,457,1,
,,,,,,,,,,,,,,,,,,5c58bdb5a2f0f6000157e4e6,2020-11-27_15h06.26.486,lexical_decision_task_MP_exp2,2020.2.5,Win32,60,,m,1,0.605885,,,,,,,,0.605885,1,,,,,,39,WORD,"ID",16,insect,INSECT,m,,,,,,0.346354167,-0.345052083,0,0,0,,0,354,354,98,1,
,,,,,,,,,,,,,,,,,,5c58bdb5a2f0f6000157e4e6,2020-11-27_15h06.26.486,lexical_decision_task_MP_exp2,2020.2.5,Win32,60,,z,1,0.573665,,,,,,,,0.573665,1,,,,,,246,NW,"ID",16,piaton,PIATON,z,,,,,,0.346354167,-0.345052083,0,0,0,,0,355,355,305,1,
,,,,,,,,,,,,,,,,,,5c58bdb5a2f0f6000157e4e6,2020-11-27_15h06.26.486,lexical_decision_task_MP_exp2,2020.2.5,Win32,60,,z,1,0.57143,,,,,,,,0.57143,1,,,,,,465,NW,"ID",33,whivex,WHIVEX,z,,,,,,0.346354167,-0.345052083,0,0,0,,0,356,356,284,1,
,,,,,,,,,,,,,,,,,,5c58bdb5a2f0f6000157e4e6,2020-11-27_15h06.26.486,lexical_decision_task_MP_exp2,2020.2.5,Win32,60,,z,1,0.6368,,,,,,,,0.6368,1,,,,,,253,NW,"ID",16,resait,RESAIT,z,,,,,,0.346354167,-0.345052083,0,0,0,,0,357,357,312,1,
,,,,,,,,,,,,,,,,,,5c58bdb5a2f0f6000157e4e6,2020-11-27_15h06.26.486,lexical_decision_task_MP_exp2,2020.2.5,Win32,60,,z,1,0.67273,,,,,,,,0.67273,1,,,,,,423,NW,"ID",33,streld,STRELD,z,,,,,,0.346354167,-0.345052083,0,0,0,,0,358,358,242,1,
,,,,,,,,,,,,,,,,,,5c58bdb5a2f0f6000157e4e6,2020-11-27_15h06.26.486,lexical_decision_task_MP_exp2,2020.2.5,Win32,60,,z,1,0.616405,,,,,,,,0.616405,1,,,,,,431,NW,"ID",33,chrums,CHRUMS,z,,,,,,0.346354167,-0.345052083,0,0,0,,0,359,359,250,1,
,,,,,,,,,,,,,,,,,,5c58bdb5a2f0f6000157e4e6,2020-11-27_15h06.26.486,lexical_decision_task_MP_exp2,2020.2.5,Win32,60,,z,1,0.64972,,,,,,,,0.64972,1,,,,,,399,NW,UN,16,wearox,FOURET,z,,,,,,0.346354167,-0.345052083,0,0,0,,0,360,360,458,1,
,,,,,,,,,,,,,,,,,,5c58bdb5a2f0f6000157e4e6,2020-11-27_15h06.26.486,lexical_decision_task_MP_exp2,2020.2.5,Win32,60,,z,1,0.631265,,,,,,,,0.631265,1,,,,,,377,NW,UN,16,shrile,INJORE,z,,,,,,0.346354167,-0.345052083,0,0,0,,0,361,361,436,1,
,,,,,,,,,,,,,,,,,,5c58bdb5a2f0f6000157e4e6,2020-11-27_15h06.26.486,lexical_decision_task_MP_exp2,2020.2.5,Win32,60,,z,1,0.53521,,,,,,,,0.53521,1,,,,,,384,NW,UN,16,injore,GUESCO,z,,,,,,0.346354167,-0.345052083,0,0,0,space,0,362,362,443,1,138.80231
,,,,,,,,,,,,,,,,,,5c58bdb5a2f0f6000157e4e6,2020-11-27_15h06.26.486,lexical_decision_task_MP_exp2,2020.2.5,Win32,60,,m,1,1.01081,,,,,,,,1.01081,1,,,,,,35,WORD,"ID",16,socket,SOCKET,m,,,,,,0.346354167,-0.345052083,0,0,0,,0,363,363,94,1,
,,,,,,,,,,,,,,,,,,5c58bdb5a2f0f6000157e4e6,2020-11-27_15h06.26.486,lexical_decision_task_MP_exp2,2020.2.5,Win32,60,,m,1,0.43483,,,,,,,,0.43483,1,,,,,,202,WORD,"ID",33,factor,FACTOR,m,,,,,,0.346354167,-0.345052083,0,0,0,,0,364,364,21,1,
,,,,,,,,,,,,,,,,,,5c58bdb5a2f0f6000157e4e6,2020-11-27_15h06.26.486,lexical_decision_task_MP_exp2,2020.2.5,Win32,60,,m,1,0.44999,,,,,,,,0.44999,1,,,,,,67,WORD,UN,33,fumble,POLICY,m,,,,,,0.346354167,-0.345052083,0,0,0,,0,365,365,126,1,
,,,,,,,,,,,,,,,,,,5c58bdb5a2f0f6000157e4e6,2020-11-27_15h06.26.486,lexical_decision_task_MP_exp2,2020.2.5,Win32,60,,z,1,0.619515,,,,,,,,0.619515,1,,,,,,258,NW,"ID",16,poluth,POLUTH,z,,,,,,0.346354167,-0.345052083,0,0,0,,0,366,366,317,1,
,,,,,,,,,,,,,,,,,,5c58bdb5a2f0f6000157e4e6,2020-11-27_15h06.26.486,lexical_decision_task_MP_exp2,2020.2.5,Win32,60,,z,1,0.687305,,,,,,,,0.687305,1,,,,,,248,NW,"ID",16,strole,STROLE,z,,,,,,0.346354167,-0.345052083,0,0,0,,0,367,367,307,1,
,,,,,,,,,,,,,,,,,,5c58bdb5a2f0f6000157e4e6,2020-11-27_15h06.26.486,lexical_decision_task_MP_exp2,2020.2.5,Win32,60,,m,1,0.55403,,,,,,,,0.55403,1,,,,,,218,WORD,"ID",33,shrink,SHRINK,m,,,,,,0.346354167,-0.345052083,0,0,0,,0,368,368,37,1,
,,,,,,,,,,,,,,,,,,5c58bdb5a2f0f6000157e4e6,2020-11-27_15h06.26.486,lexical_decision_task_MP_exp2,2020.2.5,Win32,60,,m,1,0.59453,,,,,,,,0.59453,1,,,,,,73,WORD,UN,33,plaque,SOURCE,m,,,,,,0.346354167,-0.345052083,0,0,0,,0,369,369,132,1,
,,,,,,,,,,,,,,,,,,5c58bdb5a2f0f6000157e4e6,2020-11-27_15h06.26.486,lexical_decision_task_MP_exp2,2020.2.5,Win32,60,,m,1,0.451965,,,,,,,,0.451965,1,,,,,,219,WORD,"ID",33,bucket,BUCKET,m,,,,,,0.346354167,-0.345052083,0,0,0,,0,370,370,38,1,
,,,,,,,,,,,,,,,,,,5c58bdb5a2f0f6000157e4e6,2020-11-27_15h06.26.486,lexical_decision_task_MP_exp2,2020.2.5,Win32,60,,z,1,0.587195,,,,,,,,0.587195,1,,,,,,429,NW,"ID",33,funtle,FUNTLE,z,,,,,,0.346354167,-0.345052083,0,0,0,,0,371,371,248,1,
,,,,,,,,,,,,,,,,,,5c58bdb5a2f0f6000157e4e6,2020-11-27_15h06.26.486,lexical_decision_task_MP_exp2,2020.2.5,Win32,60,,m,1,0.633335,,,,,,,,0.633335,1,,,,,,76,WORD,UN,33,racket,EXOTIC,m,,,,,,0.346354167,-0.345052083,0,0,0,,0,372,372,135,1,
,,,,,,,,,,,,,,,,,,5c58bdb5a2f0f6000157e4e6,2020-11-27_15h06.26.486,lexical_decision_task_MP_exp2,2020.2.5,Win32,60,,z,1,0.66746,,,,,,,,0.66746,1,,,,,,413,NW,UN,16,serbol,EQUATS,z,,,,,,0.346354167,-0.345052083,0,0,0,,0,373,373,472,1,
,,,,,,,,,,,,,,,,,,5c58bdb5a2f0f6000157e4e6,2020-11-27_15h06.26.486,lexical_decision_task_MP_exp2,2020.2.5,Win32,60,,z,1,0.53274,,,,,,,,0.53274,1,,,,,,390,NW,UN,16,theldy,HATRUS,z,,,,,,0.346354167,-0.345052083,0,0,0,,0,374,374,449,1,
,,,,,,,,,,,,,,,,,,5c58bdb5a2f0f6000157e4e6,2020-11-27_15h06.26.486,lexical_decision_task_MP_exp2,2020.2.5,Win32,60,,m,1,0.57061,,,,,,,,0.57061,1,,,,,,174,WORD,UN,16,fabric,TURKEY,m,,,,,,0.346354167,-0.345052083,0,0,0,,0,375,375,233,1,
,,,,,,,,,,,,,,,,,,5c58bdb5a2f0f6000157e4e6,2020-11-27_15h06.26.486,lexical_decision_task_MP_exp2,2020.2.5,Win32,60,,z,1,0.60245,,,,,,,,0.60245,1,,,,,,403,NW,UN,16,cluirm,BRUATS,z,,,,,,0.346354167,-0.345052083,0,0,0,,0,376,376,462,1,
,,,,,,,,,,,,,,,,,,5c58bdb5a2f0f6000157e4e6,2020-11-27_15h06.26.486,lexical_decision_task_MP_exp2,2020.2.5,Win32,60,,m,1,0.603175,,,,,,,,0.603175,1,,,,,,156,WORD,UN,16,depart,CRADLE,m,,,,,,0.346354167,-0.345052083,0,0,0,,0,377,377,215,1,
,,,,,,,,,,,,,,,,,,5c58bdb5a2f0f6000157e4e6,2020-11-27_15h06.26.486,lexical_decision_task_MP_exp2,2020.2.5,Win32,60,,z,1,0.53785,,,,,,,,0.53785,1,,,,,,282,NW,"ID",16,porlex,PORLEX,z,,,,,,0.346354167,-0.345052083,0,0,0,,0,378,378,341,1,
,,,,,,,,,,,,,,,,,,5c58bdb5a2f0f6000157e4e6,2020-11-27_15h06.26.486,lexical_decision_task_MP_exp2,2020.2.5,Win32,60,,z,1,0.630415,,,,,,,,0.630415,1,,,,,,385,NW,UN,16,ancust,VEIGMA,z,,,,,,0.346354167,-0.345052083,0,0,0,,0,379,379,444,1,
,,,,,,,,,,,,,,,,,,5c58bdb5a2f0f6000157e4e6,2020-11-27_15h06.26.486,lexical_decision_task_MP_exp2,2020.2.5,Win32,60,,z,1,0.79407,,,,,,,,0.79407,1,,,,,,443,NW,"ID",33,dorsex,DORSEX,z,,,,,,0.346354167,-0.345052083,0,0,0,,0,380,380,262,1,
,,,,,,,,,,,,,,,,,,5c58bdb5a2f0f6000157e4e6,2020-11-27_15h06.26.486,lexical_decision_task_MP_exp2,2020.2.5,Win32,60,,z,1,0.564675,,,,,,,,0.564675,1,,,,,,262,NW,"ID",16,quilew,QUILEW,z,,,,,,0.346354167,-0.345052083,0,0,0,,0,381,381,321,1,
,,,,,,,,,,,,,,,,,,5c58bdb5a2f0f6000157e4e6,2020-11-27_15h06.26.486,lexical_decision_task_MP_exp2,2020.2.5,Win32,60,,z,1,0.53891,,,,,,,,0.53891,1,,,,,,283,NW,"ID",16,veralf,VERALF,z,,,,,,0.346354167,-0.345052083,0,0,0,,0,382,382,342,1,
,,,,,,,,,,,,,,,,,,5c58bdb5a2f0f6000157e4e6,2020-11-27_15h06.26.486,lexical_decision_task_MP_exp2,2020.2.5,Win32,60,,m,1,0.554035,,,,,,,,0.554035,1,,,,,,93,WORD,UN,33,travel,PUBLIC,m,,,,,,0.346354167,-0.345052083,0,0,0,,0,383,383,152,1,
,,,,,,,,,,,,,,,,,,5c58bdb5a2f0f6000157e4e6,2020-11-27_15h06.26.486,lexical_decision_task_MP_exp2,2020.2.5,Win32,60,,m,1,0.64006,,,,,,,,0.64006,1,,,,,,239,WORD,"ID",33,lumber,LUMBER,m,,,,,,0.346354167,-0.345052083,0,0,0,,0,384,384,58,1,
,,,,,,,,,,,,,,,,,,5c58bdb5a2f0f6000157e4e6,2020-11-27_15h06.26.486,lexical_decision_task_MP_exp2,2020.2.5,Win32,60,,z,1,0.682255,,,,,,,,0.682255,1,,,,,,477,NW,"ID",33,photie,PHOTIE,z,,,,,,0.346354167,-0.345052083,0,0,0,,0,385,385,296,1,
,,,,,,,,,,,,,,,,,,5c58bdb5a2f0f6000157e4e6,2020-11-27_15h06.26.486,lexical_decision_task_MP_exp2,2020.2.5,Win32,60,,m,1,0.706425,,,,,,,,0.706425,1,,,,,,190,WORD,"ID",33,backup,BACKUP,m,,,,,,0.346354167,-0.345052083,0,0,0,,0,386,386,9,1,
,,,,,,,,,,,,,,,,,,5c58bdb5a2f0f6000157e4e6,2020-11-27_15h06.26.486,lexical_decision_task_MP_exp2,2020.2.5,Win32,60,,m,1,0.51875,,,,,,,,0.51875,1,,,,,,54,WORD,"ID",16,ramble,RAMBLE,m,,,,,,0.346354167,-0.345052083,0,0,0,,0,387,387,113,1,
,,,,,,,,,,,,,,,,,,5c58bdb5a2f0f6000157e4e6,2020-11-27_15h06.26.486,lexical_decision_task_MP_exp2,2020.2.5,Win32,60,,m,1,0.536545,,,,,,,,0.536545,1,,,,,,122,WORD,UN,16,strike,LINGER,m,,,,,,0.346354167,-0.345052083,0,0,0,,0,388,388,181,1,
,,,,,,,,,,,,,,,,,,5c58bdb5a2f0f6000157e4e6,2020-11-27_15h06.26.486,lexical_decision_task_MP_exp2,2020.2.5,Win32,60,,z,1,0.62721,,,,,,,,0.62721,1,,,,,,313,NW,UN,33,sprine,PAURSE,z,,,,,,0.346354167,-0.345052083,0,0,0,,0,389,389,372,1,
,,,,,,,,,,,,,,,,,,5c58bdb5a2f0f6000157e4e6,2020-11-27_15h06.26.486,lexical_decision_task_MP_exp2,2020.2.5,Win32,60,,z,1,0.56696,,,,,,,,0.56696,1,,,,,,350,NW,UN,33,tiesch,NAGURS,z,,,,,,0.346354167,-0.345052083,0,0,0,,0,390,390,409,1,
,,,,,,,,,,,,,,,,,,5c58bdb5a2f0f6000157e4e6,2020-11-27_15h06.26.486,lexical_decision_task_MP_exp2,2020.2.5,Win32,60,,m,1,0.667815,,,,,,,,0.667815,1,,,,,,56,WORD,"ID",16,ambush,AMBUSH,m,,,,,,0.346354167,-0.345052083,0,0,0,,0,391,391,115,1,
,,,,,,,,,,,,,,,,,,5c58bdb5a2f0f6000157e4e6,2020-11-27_15h06.26.486,lexical_decision_task_MP_exp2,2020.2.5,Win32,60,,z,1,0.620205,,,,,,,,0.620205,1,,,,,,466,NW,"ID",33,hocite,HOCITE,z,,,,,,0.346354167,-0.345052083,0,0,0,,0,392,392,285,1,
,,,,,,,,,,,,,,,,,,5c58bdb5a2f0f6000157e4e6,2020-11-27_15h06.26.486,lexical_decision_task_MP_exp2,2020.2.5,Win32,60,,m,1,0.70935,,,,,,,,0.70935,1,,,,,,16,WORD,"ID",16,faucet,FAUCET,m,,,,,,0.346354167,-0.345052083,0,0,0,,0,393,393,75,1,
,,,,,,,,,,,,,,,,,,5c58bdb5a2f0f6000157e4e6,2020-11-27_15h06.26.486,lexical_decision_task_MP_exp2,2020.2.5,Win32,60,,m,1,0.563885,,,,,,,,0.563885,1,,,,,,11,WORD,"ID",16,cruise,CRUISE,m,,,,,,0.346354167,-0.345052083,0,0,0,,0,394,394,70,1,
