counterbalancing_condition,instr_done_keyboard.keys,instr_done_touch.x,instr_done_touch.y,instr_done_touch.leftButton,instr_done_touch.midButton,instr_done_touch.rightButton,instr_done_touch.clicked_name,instruction_pages.thisRepN,instruction_pages.thisTrialN,instruction_pages.thisN,instruction_pages.thisIndex,instruction_pages.ran,pageN,phase,instruct_text,has_image,instruct_image,participant,date,expName,psychopyVersion,OS,frameRate,instr_done_keyboard.rt,response.keys,response.corr,touch_resp.x,touch_resp.y,touch_resp.leftButton,touch_resp.midButton,touch_resp.rightButton,touch_resp.time,touch_resp.clicked_name,rt,corr,practice_trials.thisRepN,practice_trials.thisTrialN,practice_trials.thisN,practice_trials.thisIndex,practice_trials.ran,TrialID,StimulusType,Condition,PrimeDuration,Prime,Target,corrAns,response.rt,end_of_practice_trials_pages.thisRepN,end_of_practice_trials_pages.thisTrialN,end_of_practice_trials_pages.thisN,end_of_practice_trials_pages.thisIndex,end_of_practice_trials_pages.ran,break_done_touch.x,break_done_touch.y,break_done_touch.leftButton,break_done_touch.midButton,break_done_touch.rightButton,break_done_keyboard.keys,trials.thisRepN,trials.thisTrialN,trials.thisN,trials.thisIndex,trials.ran
3,,0.0418744,-0.384679322,1,0,0,instr_done_button,0,0,0,0,1,1,instructions,"INSTRUCTIONS
At the start of each trial, look at the hash marks (######) in the center of the screen. After a moment, a string of letters will appear. Your task is to indicate if the letter string forms a word or not (i.e., if it is a nonword). For example, AUTHOR is a word while AUTHON is a nonword.

Press the space bar or touch the button below to continue.",0,,5cb36149a9827c0001e7ec46,2020-11-25_16h38.04.308,lexical_decision_task_MP_exp2,2020.2.5,Win32,60,,,,,,,,,,,,,,,,,,,,,,,,,,,,,,,,,,,,,,,,,
,,0.0418744,-0.384679322,1,0,0,instr_done_button,0,1,1,1,1,2,instructions,"If your device has a keyboard, press the 'Z' key for nonwords and the 'M' key for words.





Press the space bar or touch the button below to continue.",1,keyboard-example.gif,5cb36149a9827c0001e7ec46,2020-11-25_16h38.04.308,lexical_decision_task_MP_exp2,2020.2.5,Win32,60,,,,,,,,,,,,,,,,,,,,,,,,,,,,,,,,,,,,,,,,,
,space,0.0418744,-0.384679322,0,0,0,,0,2,2,2,1,3,instructions,"If you are using a touchscreen only device, use the buttons on the screen. Do not use the mouse.





Press the space bar or touch the button below to continue.",1,touchscreen-example.gif,5cb36149a9827c0001e7ec46,2020-11-25_16h38.04.308,lexical_decision_task_MP_exp2,2020.2.5,Win32,60,15.08717,,,,,,,,,,,,,,,,,,,,,,,,,,,,,,,,,,,,,,,,
,space,0.0418744,-0.384679322,0,0,0,,0,3,3,3,1,4,instructions,"It is very important that you respond as quickly and accurately as possible, as each letter string will only be on the screen for two seconds. If you do not respond within this time, the message 'Too slow!' will be displayed and the experiment will progress to the next letter string. The first 20 trials will be practice trials and you will receive feedback on your answers. 

Press the space bar or touch the button below to start the practice trials.",0,,5cb36149a9827c0001e7ec46,2020-11-25_16h38.04.308,lexical_decision_task_MP_exp2,2020.2.5,Win32,60,11.84485,,,,,,,,,,,,,,,,,,,,,,,,,,,,,,,,,,,,,,,,
,,,,,,,,,,,,,,,,,,5cb36149a9827c0001e7ec46,2020-11-25_16h38.04.308,lexical_decision_task_MP_exp2,2020.2.5,Win32,60,,,0,,,,,,,,,-1,0,0,0,8,1,1009,NW,"ID",33,aslert,ASLERT,z,,,,,,,,,,,,,,,,,
,,,,,,,,,,,,,,,,,,5cb36149a9827c0001e7ec46,2020-11-25_16h38.04.308,lexical_decision_task_MP_exp2,2020.2.5,Win32,60,,m,1,,,,,,,,1.59085,1,0,1,1,4,1,1005,WORD,UN,33,abound,SQUEAK,m,1.59085,,,,,,,,,,,,,,,,
,,,,,,,,,,,,,,,,,,5cb36149a9827c0001e7ec46,2020-11-25_16h38.04.308,lexical_decision_task_MP_exp2,2020.2.5,Win32,60,,m,1,,,,,,,,1.36155,1,0,2,2,3,1,1004,WORD,"ID",16,matrix,MATRIX,m,1.36155,,,,,,,,,,,,,,,,
,,,,,,,,,,,,,,,,,,5cb36149a9827c0001e7ec46,2020-11-25_16h38.04.308,lexical_decision_task_MP_exp2,2020.2.5,Win32,60,,z,1,,,,,,,,1.114175,1,0,3,3,12,1,1013,NW,UN,33,adveil,SPRINY,z,1.114175,,,,,,,,,,,,,,,,
,,,,,,,,,,,,,,,,,,5cb36149a9827c0001e7ec46,2020-11-25_16h38.04.308,lexical_decision_task_MP_exp2,2020.2.5,Win32,60,,m,0,,,,,,,,0.67356,0,0,4,4,14,1,1015,NW,UN,16,miaber,THRALE,z,0.67356,,,,,,,,,,,,,,,,
,,,,,,,,,,,,,,,,,,5cb36149a9827c0001e7ec46,2020-11-25_16h38.04.308,lexical_decision_task_MP_exp2,2020.2.5,Win32,60,,m,1,,,,,,,,1.02518,1,0,5,5,7,1,1008,WORD,UN,16,hurdle,VOLUME,m,1.02518,,,,,,,,,,,,,,,,
,,,,,,,,,,,,,,,,,,5cb36149a9827c0001e7ec46,2020-11-25_16h38.04.308,lexical_decision_task_MP_exp2,2020.2.5,Win32,60,,m,1,,,,,,,,0.83047,1,0,6,6,5,1,1006,WORD,UN,33,frenzy,OBTAIN,m,0.83047,,,,,,,,,,,,,,,,
,,,,,,,,,,,,,,,,,,5cb36149a9827c0001e7ec46,2020-11-25_16h38.04.308,lexical_decision_task_MP_exp2,2020.2.5,Win32,60,,m,1,,,,,,,,0.67436,1,0,7,7,2,1,1003,WORD,"ID",16,almond,ALMOND,m,0.67436,,,,,,,,,,,,,,,,
,,,,,,,,,,,,,,,,,,5cb36149a9827c0001e7ec46,2020-11-25_16h38.04.308,lexical_decision_task_MP_exp2,2020.2.5,Win32,60,,z,1,,,,,,,,0.616845,1,0,8,8,13,1,1014,NW,UN,33,winfer,ROUPET,z,0.616845,,,,,,,,,,,,,,,,
,,,,,,,,,,,,,,,,,,5cb36149a9827c0001e7ec46,2020-11-25_16h38.04.308,lexical_decision_task_MP_exp2,2020.2.5,Win32,60,,m,1,,,,,,,,0.819655,1,0,9,9,6,1,1007,WORD,UN,16,tropic,ZOMBIE,m,0.819655,,,,,,,,,,,,,,,,
,,,,,,,,,,,,,,,,,,5cb36149a9827c0001e7ec46,2020-11-25_16h38.04.308,lexical_decision_task_MP_exp2,2020.2.5,Win32,60,,m,0,,,,,,,,0.931585,0,0,10,10,15,1,1016,NW,UN,16,mushed,WHAISE,z,0.931585,,,,,,,,,,,,,,,,
,,,,,,,,,,,,,,,,,,5cb36149a9827c0001e7ec46,2020-11-25_16h38.04.308,lexical_decision_task_MP_exp2,2020.2.5,Win32,60,,m,0,,,,,,,,1.108545,0,0,11,11,10,1,1011,NW,"ID",16,inlade,INLADE,z,1.108545,,,,,,,,,,,,,,,,
,,,,,,,,,,,,,,,,,,5cb36149a9827c0001e7ec46,2020-11-25_16h38.04.308,lexical_decision_task_MP_exp2,2020.2.5,Win32,60,,m,1,,,,,,,,1.09849,1,0,12,12,0,1,1001,WORD,"ID",33,utopia,UTOPIA,m,1.09849,,,,,,,,,,,,,,,,
,,,,,,,,,,,,,,,,,,5cb36149a9827c0001e7ec46,2020-11-25_16h38.04.308,lexical_decision_task_MP_exp2,2020.2.5,Win32,60,,z,1,,,,,,,,0.643575,1,0,13,13,11,1,1012,NW,"ID",16,rashet,RASHET,z,0.643575,,,,,,,,,,,,,,,,
,,,,,,,,,,,,,,,,,,5cb36149a9827c0001e7ec46,2020-11-25_16h38.04.308,lexical_decision_task_MP_exp2,2020.2.5,Win32,60,,z,1,,,,,,,,0.72622,1,0,14,14,9,1,1010,NW,"ID",33,fariny,FARINY,z,0.72622,,,,,,,,,,,,,,,,
,,,,,,,,,,,,,,,,,,5cb36149a9827c0001e7ec46,2020-11-25_16h38.04.308,lexical_decision_task_MP_exp2,2020.2.5,Win32,60,,m,1,,,,,,,,0.934705,1,0,15,15,1,1,1002,WORD,"ID",33,adjust,ADJUST,m,0.934705,,,,,,,,,,,,,,,,
,space,0.066467289,-0.479062841,0,0,0,,,,,,,1,end_of_practice,"You have completed the practice trials. During the experimental trials, you will not receive feedback, but it is very important that you respond as quickly and accurately as possible. 
Before you begin, please ensure that you are in a comfortable and quiet location and will not be disturbed for about 15 minutes, as we cannot use your data if you do not complete all the trials. 
There will be opportunities to take breaks at regular intervals during the experiment. When you are ready to start the experimental trials, please press space or touch the button below.",,,5cb36149a9827c0001e7ec46,2020-11-25_16h38.04.308,lexical_decision_task_MP_exp2,2020.2.5,Win32,60,18.51921,,,,,,,,,,,,,,,,,,,,,,,,,0,0,0,0,1,,,,,,,,,,,
,,,,,,,,,,,,,,,,,,5cb36149a9827c0001e7ec46,2020-11-25_16h38.04.308,lexical_decision_task_MP_exp2,2020.2.5,Win32,60,,m,1,,,,,,,,0.941085,1,,,,,,77,WORD,"ID",33,racket,RACKET,m,0.941085,,,,,,0.066467289,-0.479062841,0,0,0,,0,0,0,16,1
,,,,,,,,,,,,,,,,,,5cb36149a9827c0001e7ec46,2020-11-25_16h38.04.308,lexical_decision_task_MP_exp2,2020.2.5,Win32,60,,m,1,,,,,,,,1.151395,1,,,,,,216,WORD,UN,33,liquor,BEHALF,m,1.151395,,,,,,0.066467289,-0.479062841,0,0,0,,0,1,1,155,1
,,,,,,,,,,,,,,,,,,5cb36149a9827c0001e7ec46,2020-11-25_16h38.04.308,lexical_decision_task_MP_exp2,2020.2.5,Win32,60,,z,1,,,,,,,,0.73291,1,,,,,,311,NW,"ID",33,sproly,SPROLY,z,0.73291,,,,,,0.066467289,-0.479062841,0,0,0,,0,2,2,250,1
,,,,,,,,,,,,,,,,,,5cb36149a9827c0001e7ec46,2020-11-25_16h38.04.308,lexical_decision_task_MP_exp2,2020.2.5,Win32,60,,m,1,,,,,,,,1.047805,1,,,,,,233,WORD,UN,33,clumsy,NATURE,m,1.047805,,,,,,0.066467289,-0.479062841,0,0,0,,0,3,3,172,1
,,,,,,,,,,,,,,,,,,5cb36149a9827c0001e7ec46,2020-11-25_16h38.04.308,lexical_decision_task_MP_exp2,2020.2.5,Win32,60,,z,1,,,,,,,,0.802415,1,,,,,,441,NW,UN,33,aboune,RASTOE,z,0.802415,,,,,,0.066467289,-0.479062841,0,0,0,,0,4,4,380,1
,,,,,,,,,,,,,,,,,,5cb36149a9827c0001e7ec46,2020-11-25_16h38.04.308,lexical_decision_task_MP_exp2,2020.2.5,Win32,60,,z,1,,,,,,,,0.750045,1,,,,,,412,NW,"ID",16,jiluer,JILUER,z,0.750045,,,,,,0.066467289,-0.479062841,0,0,0,,0,5,5,351,1
,,,,,,,,,,,,,,,,,,5cb36149a9827c0001e7ec46,2020-11-25_16h38.04.308,lexical_decision_task_MP_exp2,2020.2.5,Win32,60,,m,1,,,,,,,,1.21171,1,,,,,,217,WORD,UN,33,shrink,LIQUOR,m,1.21171,,,,,,0.066467289,-0.479062841,0,0,0,,0,6,6,156,1
,,,,,,,,,,,,,,,,,,5cb36149a9827c0001e7ec46,2020-11-25_16h38.04.308,lexical_decision_task_MP_exp2,2020.2.5,Win32,60,,z,1,,,,,,,,0.650385,1,,,,,,270,NW,UN,16,aubrid,WRIMSY,z,0.650385,,,,,,0.066467289,-0.479062841,0,0,0,,0,7,7,449,1
,,,,,,,,,,,,,,,,,,5cb36149a9827c0001e7ec46,2020-11-25_16h38.04.308,lexical_decision_task_MP_exp2,2020.2.5,Win32,60,,m,1,,,,,,,,0.7312,1,,,,,,30,WORD,UN,16,weapon,ORIENT,m,0.7312,,,,,,0.066467289,-0.479062841,0,0,0,,0,8,8,209,1
,,,,,,,,,,,,,,,,,,5cb36149a9827c0001e7ec46,2020-11-25_16h38.04.308,lexical_decision_task_MP_exp2,2020.2.5,Win32,60,,z,0,,,,,,,,0.669985,0,,,,,,79,WORD,"ID",33,theory,THEORY,m,0.669985,,,,,,0.066467289,-0.479062841,0,0,0,,0,9,9,18,1
,,,,,,,,,,,,,,,,,,5cb36149a9827c0001e7ec46,2020-11-25_16h38.04.308,lexical_decision_task_MP_exp2,2020.2.5,Win32,60,,m,1,,,,,,,,0.797075,1,,,,,,176,WORD,"ID",16,strife,STRIFE,m,0.797075,,,,,,0.066467289,-0.479062841,0,0,0,,0,10,10,115,1
,,,,,,,,,,,,,,,,,,5cb36149a9827c0001e7ec46,2020-11-25_16h38.04.308,lexical_decision_task_MP_exp2,2020.2.5,Win32,60,,m,1,,,,,,,,0.73435,1,,,,,,74,WORD,"ID",33,plaque,PLAQUE,m,0.73435,,,,,,0.066467289,-0.479062841,0,0,0,,0,11,11,13,1
,,,,,,,,,,,,,,,,,,5cb36149a9827c0001e7ec46,2020-11-25_16h38.04.308,lexical_decision_task_MP_exp2,2020.2.5,Win32,60,,z,1,,,,,,,,0.732925,1,,,,,,344,NW,"ID",33,scrily,SCRILY,z,0.732925,,,,,,0.066467289,-0.479062841,0,0,0,,0,12,12,283,1
,,,,,,,,,,,,,,,,,,5cb36149a9827c0001e7ec46,2020-11-25_16h38.04.308,lexical_decision_task_MP_exp2,2020.2.5,Win32,60,,z,1,,,,,,,,1.380895,1,,,,,,341,NW,"ID",33,myrtie,MYRTIE,z,1.380895,,,,,,0.066467289,-0.479062841,0,0,0,,0,13,13,280,1
,,,,,,,,,,,,,,,,,,5cb36149a9827c0001e7ec46,2020-11-25_16h38.04.308,lexical_decision_task_MP_exp2,2020.2.5,Win32,60,,m,1,,,,,,,,0.947595,1,,,,,,214,WORD,UN,33,phobia,INTAKE,m,0.947595,,,,,,0.066467289,-0.479062841,0,0,0,,0,14,14,153,1
,,,,,,,,,,,,,,,,,,5cb36149a9827c0001e7ec46,2020-11-25_16h38.04.308,lexical_decision_task_MP_exp2,2020.2.5,Win32,60,,z,1,,,,,,,,0.93196,1,,,,,,286,NW,UN,16,nymbel,RELDON,z,0.93196,,,,,,0.066467289,-0.479062841,0,0,0,,0,15,15,465,1
,,,,,,,,,,,,,,,,,,5cb36149a9827c0001e7ec46,2020-11-25_16h38.04.308,lexical_decision_task_MP_exp2,2020.2.5,Win32,60,,z,1,,,,,,,,0.879985,1,,,,,,318,NW,"ID",33,reagly,REAGLY,z,0.879985,,,,,,0.066467289,-0.479062841,0,0,0,,0,16,16,257,1
,,,,,,,,,,,,,,,,,,5cb36149a9827c0001e7ec46,2020-11-25_16h38.04.308,lexical_decision_task_MP_exp2,2020.2.5,Win32,60,,z,1,,,,,,,,0.910245,1,,,,,,241,NW,UN,16,unwert,SMENCO,z,0.910245,,,,,,0.066467289,-0.479062841,0,0,0,,0,17,17,420,1
,,,,,,,,,,,,,,,,,,5cb36149a9827c0001e7ec46,2020-11-25_16h38.04.308,lexical_decision_task_MP_exp2,2020.2.5,Win32,60,,z,1,,,,,,,,0.81696,1,,,,,,301,NW,"ID",33,fainch,FAINCH,z,0.81696,,,,,,0.066467289,-0.479062841,0,0,0,,0,18,18,240,1
,,,,,,,,,,,,,,,,,,5cb36149a9827c0001e7ec46,2020-11-25_16h38.04.308,lexical_decision_task_MP_exp2,2020.2.5,Win32,60,,m,1,,,,,,,,0.69173,1,,,,,,239,WORD,UN,33,forest,LUMBER,m,0.69173,,,,,,0.066467289,-0.479062841,0,0,0,,0,19,19,178,1
,,,,,,,,,,,,,,,,,,5cb36149a9827c0001e7ec46,2020-11-25_16h38.04.308,lexical_decision_task_MP_exp2,2020.2.5,Win32,60,,m,1,,,,,,,,0.690905,1,,,,,,27,WORD,UN,16,comedy,SCREAM,m,0.690905,,,,,,0.066467289,-0.479062841,0,0,0,,0,20,20,206,1
,,,,,,,,,,,,,,,,,,5cb36149a9827c0001e7ec46,2020-11-25_16h38.04.308,lexical_decision_task_MP_exp2,2020.2.5,Win32,60,,m,1,,,,,,,,0.723845,1,,,,,,166,WORD,"ID",16,starch,STARCH,m,0.723845,,,,,,0.066467289,-0.479062841,0,0,0,,0,21,21,105,1
,,,,,,,,,,,,,,,,,,5cb36149a9827c0001e7ec46,2020-11-25_16h38.04.308,lexical_decision_task_MP_exp2,2020.2.5,Win32,60,,m,1,,,,,,,,0.74376,1,,,,,,76,WORD,"ID",33,exotic,EXOTIC,m,0.74376,,,,,,0.066467289,-0.479062841,0,0,0,,0,22,22,15,1
,,,,,,,,,,,,,,,,,,5cb36149a9827c0001e7ec46,2020-11-25_16h38.04.308,lexical_decision_task_MP_exp2,2020.2.5,Win32,60,,z,1,,,,,,,,0.70116,1,,,,,,447,NW,UN,33,sadent,GIRCUE,z,0.70116,,,,,,0.066467289,-0.479062841,0,0,0,,0,23,23,386,1
,,,,,,,,,,,,,,,,,,5cb36149a9827c0001e7ec46,2020-11-25_16h38.04.308,lexical_decision_task_MP_exp2,2020.2.5,Win32,60,,z,1,,,,,,,,0.86905,1,,,,,,445,NW,UN,33,runamo,MINKEL,z,0.86905,,,,,,0.066467289,-0.479062841,0,0,0,,0,24,24,384,1
,,,,,,,,,,,,,,,,,,5cb36149a9827c0001e7ec46,2020-11-25_16h38.04.308,lexical_decision_task_MP_exp2,2020.2.5,Win32,60,,m,1,,,,,,,,0.69615,1,,,,,,94,WORD,"ID",33,travel,TRAVEL,m,0.69615,,,,,,0.066467289,-0.479062841,0,0,0,,0,25,25,33,1
,,,,,,,,,,,,,,,,,,5cb36149a9827c0001e7ec46,2020-11-25_16h38.04.308,lexical_decision_task_MP_exp2,2020.2.5,Win32,60,,m,1,,,,,,,,0.72622,1,,,,,,12,WORD,UN,16,strive,ORANGE,m,0.72622,,,,,,0.066467289,-0.479062841,0,0,0,,0,26,26,191,1
,,,,,,,,,,,,,,,,,,5cb36149a9827c0001e7ec46,2020-11-25_16h38.04.308,lexical_decision_task_MP_exp2,2020.2.5,Win32,60,,m,1,,,,,,,,0.7498,1,,,,,,24,WORD,UN,16,domain,PRAISE,m,0.7498,,,,,,0.066467289,-0.479062841,0,0,0,,0,27,27,203,1
,,,,,,,,,,,,,,,,,,5cb36149a9827c0001e7ec46,2020-11-25_16h38.04.308,lexical_decision_task_MP_exp2,2020.2.5,Win32,60,,z,1,,,,,,,,1.37688,1,,,,,,354,NW,"ID",33,virlex,VIRLEX,z,1.37688,,,,,,0.066467289,-0.479062841,0,0,0,,0,28,28,293,1
,,,,,,,,,,,,,,,,,,5cb36149a9827c0001e7ec46,2020-11-25_16h38.04.308,lexical_decision_task_MP_exp2,2020.2.5,Win32,60,,m,1,,,,,,,,0.993255,1,,,,,,117,WORD,"ID",33,branch,BRANCH,m,0.993255,,,,,,0.066467289,-0.479062841,0,0,0,,0,29,29,56,1
,,,,,,,,,,,,,,,,,,5cb36149a9827c0001e7ec46,2020-11-25_16h38.04.308,lexical_decision_task_MP_exp2,2020.2.5,Win32,60,,z,1,,,,,,,,1.152105,1,,,,,,442,NW,UN,33,dorsex,ABOUNE,z,1.152105,,,,,,0.066467289,-0.479062841,0,0,0,,0,30,30,381,1
,,,,,,,,,,,,,,,,,,5cb36149a9827c0001e7ec46,2020-11-25_16h38.04.308,lexical_decision_task_MP_exp2,2020.2.5,Win32,60,,z,1,,,,,,,,1.010545,1,,,,,,335,NW,"ID",33,desion,DESION,z,1.010545,,,,,,0.066467289,-0.479062841,0,0,0,,0,31,31,274,1
,,,,,,,,,,,,,,,,,,5cb36149a9827c0001e7ec46,2020-11-25_16h38.04.308,lexical_decision_task_MP_exp2,2020.2.5,Win32,60,,z,1,,,,,,,,0.718205,1,,,,,,427,NW,UN,33,tandly,SCHIND,z,0.718205,,,,,,0.066467289,-0.479062841,0,0,0,,0,32,32,366,1
,,,,,,,,,,,,,,,,,,5cb36149a9827c0001e7ec46,2020-11-25_16h38.04.308,lexical_decision_task_MP_exp2,2020.2.5,Win32,60,,z,1,,,,,,,,0.74363,1,,,,,,443,NW,UN,33,jaunce,DORSEX,z,0.74363,,,,,,0.066467289,-0.479062841,0,0,0,,0,33,33,382,1
,,,,,,,,,,,,,,,,,,5cb36149a9827c0001e7ec46,2020-11-25_16h38.04.308,lexical_decision_task_MP_exp2,2020.2.5,Win32,60,,z,1,,,,,,,,0.749295,1,,,,,,410,NW,"ID",16,tunory,TUNORY,z,0.749295,,,,,,0.066467289,-0.479062841,0,0,0,,0,34,34,349,1
,,,,,,,,,,,,,,,,,,5cb36149a9827c0001e7ec46,2020-11-25_16h38.04.308,lexical_decision_task_MP_exp2,2020.2.5,Win32,60,,m,1,,,,,,,,0.74196,1,,,,,,226,WORD,UN,33,flower,CASINO,m,0.74196,,,,,,0.066467289,-0.479062841,0,0,0,,0,35,35,165,1
,,,,,,,,,,,,,,,,,,5cb36149a9827c0001e7ec46,2020-11-25_16h38.04.308,lexical_decision_task_MP_exp2,2020.2.5,Win32,60,,z,1,,,,,,,,0.65058,1,,,,,,268,NW,UN,16,orchet,PACKES,z,0.65058,,,,,,0.066467289,-0.479062841,0,0,0,,0,36,36,447,1
,,,,,,,,,,,,,,,,,,5cb36149a9827c0001e7ec46,2020-11-25_16h38.04.308,lexical_decision_task_MP_exp2,2020.2.5,Win32,60,,m,1,,,,,,,,0.674585,1,,,,,,70,WORD,"ID",33,square,SQUARE,m,0.674585,,,,,,0.066467289,-0.479062841,0,0,0,,0,37,37,9,1
,,,,,,,,,,,,,,,,,,5cb36149a9827c0001e7ec46,2020-11-25_16h38.04.308,lexical_decision_task_MP_exp2,2020.2.5,Win32,60,,m,1,,,,,,,,0.926265,1,,,,,,119,WORD,"ID",33,spider,SPIDER,m,0.926265,,,,,,0.066467289,-0.479062841,0,0,0,,0,38,38,58,1
,,,,,,,,,,,,,,,,,,5cb36149a9827c0001e7ec46,2020-11-25_16h38.04.308,lexical_decision_task_MP_exp2,2020.2.5,Win32,60,,m,1,,,,,,,,1.02466,1,,,,,,125,WORD,"ID",16,nickel,NICKEL,m,1.02466,,,,,,0.066467289,-0.479062841,0,0,0,,0,39,39,64,1
,,,,,,,,,,,,,,,,,,5cb36149a9827c0001e7ec46,2020-11-25_16h38.04.308,lexical_decision_task_MP_exp2,2020.2.5,Win32,60,,m,1,,,,,,,,0.825975,1,,,,,,46,WORD,UN,16,income,SINGLE,m,0.825975,,,,,,0.066467289,-0.479062841,0,0,0,,0,40,40,225,1
,,,,,,,,,,,,,,,,,,5cb36149a9827c0001e7ec46,2020-11-25_16h38.04.308,lexical_decision_task_MP_exp2,2020.2.5,Win32,60,,m,1,,,,,,,,0.634055,1,,,,,,81,WORD,"ID",33,friend,FRIEND,m,0.634055,,,,,,0.066467289,-0.479062841,0,0,0,,0,41,41,20,1
,,,,,,,,,,,,,,,,,,5cb36149a9827c0001e7ec46,2020-11-25_16h38.04.308,lexical_decision_task_MP_exp2,2020.2.5,Win32,60,,m,1,,,,,,,,0.749435,1,,,,,,231,WORD,UN,33,inject,EXPORT,m,0.749435,,,,,,0.066467289,-0.479062841,0,0,0,,0,42,42,170,1
,,,,,,,,,,,,,,,,,,5cb36149a9827c0001e7ec46,2020-11-25_16h38.04.308,lexical_decision_task_MP_exp2,2020.2.5,Win32,60,,m,0,,,,,,,,0.649395,0,,,,,,260,NW,UN,16,stunch,UNJECT,z,0.649395,,,,,,0.066467289,-0.479062841,0,0,0,,0,43,43,439,1
,,,,,,,,,,,,,,,,,,5cb36149a9827c0001e7ec46,2020-11-25_16h38.04.308,lexical_decision_task_MP_exp2,2020.2.5,Win32,60,,m,1,,,,,,,,0.75101,1,,,,,,19,WORD,UN,16,breast,PATRON,m,0.75101,,,,,,0.066467289,-0.479062841,0,0,0,,0,44,44,198,1
,,,,,,,,,,,,,,,,,,5cb36149a9827c0001e7ec46,2020-11-25_16h38.04.308,lexical_decision_task_MP_exp2,2020.2.5,Win32,60,,z,1,,,,,,,,0.73387,1,,,,,,293,NW,UN,16,inhort,SWANCE,z,0.73387,,,,,,0.066467289,-0.479062841,0,0,0,,0,45,45,472,1
,,,,,,,,,,,,,,,,,,5cb36149a9827c0001e7ec46,2020-11-25_16h38.04.308,lexical_decision_task_MP_exp2,2020.2.5,Win32,60,,z,1,,,,,,,,0.798665,1,,,,,,358,NW,"ID",33,fleack,FLEACK,z,0.798665,,,,,,0.066467289,-0.479062841,0,0,0,,0,46,46,297,1
,,,,,,,,,,,,,,,,,,5cb36149a9827c0001e7ec46,2020-11-25_16h38.04.308,lexical_decision_task_MP_exp2,2020.2.5,Win32,60,,z,1,,,,,,,,0.70117,1,,,,,,326,NW,"ID",33,iguade,IGUADE,z,0.70117,,,,,,0.066467289,-0.479062841,0,0,0,,0,47,47,265,1
,,,,,,,,,,,,,,,,,,5cb36149a9827c0001e7ec46,2020-11-25_16h38.04.308,lexical_decision_task_MP_exp2,2020.2.5,Win32,60,,m,1,,,,,,,,0.62022,1,,,,,,182,WORD,UN,33,absent,WINTER,m,0.62022,,,,,,0.066467289,-0.479062841,0,0,0,,0,48,48,121,1
,,,,,,,,,,,,,,,,,,5cb36149a9827c0001e7ec46,2020-11-25_16h38.04.308,lexical_decision_task_MP_exp2,2020.2.5,Win32,60,,m,1,,,,,,,,0.766695,1,,,,,,11,WORD,UN,16,amount,CRUISE,m,0.766695,,,,,,0.066467289,-0.479062841,0,0,0,,0,49,49,190,1
,,,,,,,,,,,,,,,,,,5cb36149a9827c0001e7ec46,2020-11-25_16h38.04.308,lexical_decision_task_MP_exp2,2020.2.5,Win32,60,,z,1,,,,,,,,1.060665,1,,,,,,432,NW,UN,33,drance,LUNKER,z,1.060665,,,,,,0.066467289,-0.479062841,0,0,0,,0,50,50,371,1
,,,,,,,,,,,,,,,,,,5cb36149a9827c0001e7ec46,2020-11-25_16h38.04.308,lexical_decision_task_MP_exp2,2020.2.5,Win32,60,,z,1,,,,,,,,0.851725,1,,,,,,411,NW,"ID",16,orchin,ORCHIN,z,0.851725,,,,,,0.066467289,-0.479062841,0,0,0,,0,51,51,350,1
,,,,,,,,,,,,,,,,,,5cb36149a9827c0001e7ec46,2020-11-25_16h38.04.308,lexical_decision_task_MP_exp2,2020.2.5,Win32,60,,z,1,,,,,,,,0.759735,1,,,,,,254,NW,UN,16,apight,VAROSH,z,0.759735,,,,,,0.066467289,-0.479062841,0,0,0,,0,52,52,433,1
,,,,,,,,,,,,,,,,,,5cb36149a9827c0001e7ec46,2020-11-25_16h38.04.308,lexical_decision_task_MP_exp2,2020.2.5,Win32,60,,z,1,,,,,,,,0.636245,1,,,,,,245,NW,UN,16,piaton,ANOUGS,z,0.636245,,,,,,0.066467289,-0.479062841,0,0,0,,0,53,53,424,1
,,,,,,,,,,,,,,,,,,5cb36149a9827c0001e7ec46,2020-11-25_16h38.04.308,lexical_decision_task_MP_exp2,2020.2.5,Win32,60,,m,1,,,,,,,,0.59853,1,,,,,,229,WORD,UN,33,fringe,MOTHER,m,0.59853,,,,,,0.066467289,-0.479062841,0,0,0,,0,54,54,168,1
,,,,,,,,,,,,,,,,,,5cb36149a9827c0001e7ec46,2020-11-25_16h38.04.308,lexical_decision_task_MP_exp2,2020.2.5,Win32,60,,z,1,,,,,,,,0.650665,1,,,,,,476,NW,UN,33,photie,JOSTED,z,0.650665,,,,,,0.066467289,-0.479062841,0,0,0,,0,55,55,415,1
,,,,,,,,,,,,,,,,,,5cb36149a9827c0001e7ec46,2020-11-25_16h38.04.308,lexical_decision_task_MP_exp2,2020.2.5,Win32,60,,z,1,,,,,,,,0.592455,1,,,,,,449,NW,UN,33,phrect,BRUNGE,z,0.592455,,,,,,0.066467289,-0.479062841,0,0,0,,0,56,56,388,1
,,,,,,,,,,,,,,,,,,5cb36149a9827c0001e7ec46,2020-11-25_16h38.04.308,lexical_decision_task_MP_exp2,2020.2.5,Win32,60,,z,1,,,,,,,,0.584905,1,,,,,,377,NW,"ID",16,injore,INJORE,z,0.584905,,,,,,0.066467289,-0.479062841,0,0,0,,0,57,57,316,1
,,,,,,,,,,,,,,,,,,5cb36149a9827c0001e7ec46,2020-11-25_16h38.04.308,lexical_decision_task_MP_exp2,2020.2.5,Win32,60,,m,1,,,,,,,,0.867335,1,,,,,,96,WORD,"ID",33,ignore,IGNORE,m,0.867335,,,,,,0.066467289,-0.479062841,0,0,0,,0,58,58,35,1
,,,,,,,,,,,,,,,,,,5cb36149a9827c0001e7ec46,2020-11-25_16h38.04.308,lexical_decision_task_MP_exp2,2020.2.5,Win32,60,,m,1,,,,,,,,0.767315,1,,,,,,238,WORD,UN,33,behalf,FLOWER,m,0.767315,,,,,,0.066467289,-0.479062841,0,0,0,,0,59,59,177,1
,,,,,,,,,,,,,,,,,,5cb36149a9827c0001e7ec46,2020-11-25_16h38.04.308,lexical_decision_task_MP_exp2,2020.2.5,Win32,60,,m,1,,,,,,,,0.71857,1,,,,,,108,WORD,"ID",33,reckon,RECKON,m,0.71857,,,,,,0.066467289,-0.479062841,0,0,0,,0,60,60,47,1
,,,,,,,,,,,,,,,,,,5cb36149a9827c0001e7ec46,2020-11-25_16h38.04.308,lexical_decision_task_MP_exp2,2020.2.5,Win32,60,,z,1,,,,,,,,0.598445,1,,,,,,472,NW,UN,33,gorbie,CIGNEY,z,0.598445,,,,,,0.066467289,-0.479062841,0,0,0,,0,61,61,411,1
,,,,,,,,,,,,,,,,,,5cb36149a9827c0001e7ec46,2020-11-25_16h38.04.308,lexical_decision_task_MP_exp2,2020.2.5,Win32,60,,z,1,,,,,,,,0.60196,1,,,,,,259,NW,UN,16,unject,SOUDAL,z,0.60196,,,,,,0.066467289,-0.479062841,0,0,0,,0,62,62,438,1
,,,,,,,,,,,,,,,,,,5cb36149a9827c0001e7ec46,2020-11-25_16h38.04.308,lexical_decision_task_MP_exp2,2020.2.5,Win32,60,,z,1,,,,,,,,0.74835,1,,,,,,360,NW,"ID",33,desory,DESORY,z,0.74835,,,,,,0.066467289,-0.479062841,0,0,0,,0,63,63,299,1
,,,,,,,,,,,,,,,,,,5cb36149a9827c0001e7ec46,2020-11-25_16h38.04.308,lexical_decision_task_MP_exp2,2020.2.5,Win32,60,,z,1,,,,,,,,0.62532,1,,,,,,391,NW,"ID",16,theldy,THELDY,z,0.62532,,,,,,0.066467289,-0.479062841,0,0,0,,0,64,64,330,1
,,,,,,,,,,,,,,,,,,5cb36149a9827c0001e7ec46,2020-11-25_16h38.04.308,lexical_decision_task_MP_exp2,2020.2.5,Win32,60,,z,1,,,,,,,,0.575495,1,,,,,,309,NW,"ID",33,amiloy,AMILOY,z,0.575495,,,,,,0.066467289,-0.479062841,0,0,0,,0,65,65,248,1
,,,,,,,,,,,,,,,,,,5cb36149a9827c0001e7ec46,2020-11-25_16h38.04.308,lexical_decision_task_MP_exp2,2020.2.5,Win32,60,,z,1,,,,,,,,0.73528,1,,,,,,394,NW,"ID",16,spaqux,SPAQUX,z,0.73528,,,,,,0.066467289,-0.479062841,0,0,0,,0,66,66,333,1
,,,,,,,,,,,,,,,,,,5cb36149a9827c0001e7ec46,2020-11-25_16h38.04.308,lexical_decision_task_MP_exp2,2020.2.5,Win32,60,,m,1,,,,,,,,0.783755,1,,,,,,159,WORD,"ID",16,detail,DETAIL,m,0.783755,,,,,,0.066467289,-0.479062841,0,0,0,,0,67,67,98,1
,,,,,,,,,,,,,,,,,,5cb36149a9827c0001e7ec46,2020-11-25_16h38.04.308,lexical_decision_task_MP_exp2,2020.2.5,Win32,60,,z,1,,,,,,,,0.558635,1,,,,,,312,NW,"ID",33,nerawl,NERAWL,z,0.558635,,,,,,0.066467289,-0.479062841,0,0,0,,0,68,68,251,1
,,,,,,,,,,,,,,,,,,5cb36149a9827c0001e7ec46,2020-11-25_16h38.04.308,lexical_decision_task_MP_exp2,2020.2.5,Win32,60,,m,1,,,,,,,,0.68344,1,,,,,,49,WORD,UN,16,snatch,SURVEY,m,0.68344,,,,,,0.066467289,-0.479062841,0,0,0,,0,69,69,228,1
,,,,,,,,,,,,,,,,,,5cb36149a9827c0001e7ec46,2020-11-25_16h38.04.308,lexical_decision_task_MP_exp2,2020.2.5,Win32,60,,m,1,,,,,,,,0.6513,1,,,,,,135,WORD,"ID",16,import,IMPORT,m,0.6513,,,,,,0.066467289,-0.479062841,0,0,0,,0,70,70,74,1
,,,,,,,,,,,,,,,,,,5cb36149a9827c0001e7ec46,2020-11-25_16h38.04.308,lexical_decision_task_MP_exp2,2020.2.5,Win32,60,,z,1,,,,,,,,0.80222,1,,,,,,364,NW,"ID",16,impote,IMPOTE,z,0.80222,,,,,,0.066467289,-0.479062841,0,0,0,,0,71,71,303,1
,,,,,,,,,,,,,,,,,,5cb36149a9827c0001e7ec46,2020-11-25_16h38.04.308,lexical_decision_task_MP_exp2,2020.2.5,Win32,60,,m,1,,,,,,,,0.709895,1,,,,,,83,WORD,"ID",33,result,RESULT,m,0.709895,,,,,,0.066467289,-0.479062841,0,0,0,,0,72,72,22,1
,,,,,,,,,,,,,,,,,,5cb36149a9827c0001e7ec46,2020-11-25_16h38.04.308,lexical_decision_task_MP_exp2,2020.2.5,Win32,60,,z,1,,,,,,,,0.66913,1,,,,,,463,NW,UN,33,chaite,KISPEL,z,0.66913,,,,,,0.066467289,-0.479062841,0,0,0,,0,73,73,402,1
,,,,,,,,,,,,,,,,,,5cb36149a9827c0001e7ec46,2020-11-25_16h38.04.308,lexical_decision_task_MP_exp2,2020.2.5,Win32,60,,m,1,,,,,,,,0.836405,1,,,,,,181,WORD,UN,33,winter,GLANCE,m,0.836405,,,,,,0.066467289,-0.479062841,0,0,0,,0,74,74,120,1
,,,,,,,,,,,,,,,,,,5cb36149a9827c0001e7ec46,2020-11-25_16h38.04.308,lexical_decision_task_MP_exp2,2020.2.5,Win32,60,,z,1,,,,,,,,0.67645,1,,,,,,384,NW,"ID",16,guesco,GUESCO,z,0.67645,,,,,,0.066467289,-0.479062841,0,0,0,,0,75,75,323,1
,,,,,,,,,,,,,,,,,,5cb36149a9827c0001e7ec46,2020-11-25_16h38.04.308,lexical_decision_task_MP_exp2,2020.2.5,Win32,60,,m,1,,,,,,,,0.682565,1,,,,,,110,WORD,"ID",33,polite,POLITE,m,0.682565,,,,,,0.066467289,-0.479062841,0,0,0,,0,76,76,49,1
,,,,,,,,,,,,,,,,,,5cb36149a9827c0001e7ec46,2020-11-25_16h38.04.308,lexical_decision_task_MP_exp2,2020.2.5,Win32,60,,m,1,,,,,,,,0.891135,1,,,,,,59,WORD,UN,16,pencil,SPLINT,m,0.891135,,,,,,0.066467289,-0.479062841,0,0,0,,0,77,77,238,1
,,,,,,,,,,,,,,,,,,5cb36149a9827c0001e7ec46,2020-11-25_16h38.04.308,lexical_decision_task_MP_exp2,2020.2.5,Win32,60,,z,1,,,,,,,,0.85284,1,,,,,,424,NW,UN,33,frudge,PRAILE,z,0.85284,,,,,,0.066467289,-0.479062841,0,0,0,,0,78,78,363,1
,,,,,,,,,,,,,,,,,,5cb36149a9827c0001e7ec46,2020-11-25_16h38.04.308,lexical_decision_task_MP_exp2,2020.2.5,Win32,60,,m,1,,,,,,,,0.82651,1,,,,,,177,WORD,"ID",16,advent,ADVENT,m,0.82651,,,,,,0.066467289,-0.479062841,0,0,0,,0,79,79,116,1
,,,,,,,,,,,,,,,,,,5cb36149a9827c0001e7ec46,2020-11-25_16h38.04.308,lexical_decision_task_MP_exp2,2020.2.5,Win32,60,,z,1,,,,,,,,0.67586,1,,,,,,480,NW,UN,33,knisma,ROBULY,z,0.67586,,,,,,0.066467289,-0.479062841,0,0,0,,0,80,80,419,1
,,,,,,,,,,,,,,,,,,5cb36149a9827c0001e7ec46,2020-11-25_16h38.04.308,lexical_decision_task_MP_exp2,2020.2.5,Win32,60,,m,1,,,,,,,,0.56607,1,,,,,,228,WORD,UN,33,kidney,MASTER,m,0.56607,,,,,,0.066467289,-0.479062841,0,0,0,,0,81,81,167,1
,,,,,,,,,,,,,,,,,,5cb36149a9827c0001e7ec46,2020-11-25_16h38.04.308,lexical_decision_task_MP_exp2,2020.2.5,Win32,60,,m,1,,,,,,,,0.77552,1,,,,,,116,WORD,"ID",33,tumble,TUMBLE,m,0.77552,,,,,,0.066467289,-0.479062841,0,0,0,,0,82,82,55,1
,,,,,,,,,,,,,,,,,,5cb36149a9827c0001e7ec46,2020-11-25_16h38.04.308,lexical_decision_task_MP_exp2,2020.2.5,Win32,60,,z,1,,,,,,,,0.70878,1,,,,,,382,NW,"ID",16,sarley,SARLEY,z,0.70878,,,,,,0.066467289,-0.479062841,0,0,0,,0,83,83,321,1
,,,,,,,,,,,,,,,,,,5cb36149a9827c0001e7ec46,2020-11-25_16h38.04.308,lexical_decision_task_MP_exp2,2020.2.5,Win32,60,,m,1,,,,,,,,0.7361,1,,,,,,111,WORD,"ID",33,induce,INDUCE,m,0.7361,,,,,,0.066467289,-0.479062841,0,0,0,,0,84,84,50,1
,,,,,,,,,,,,,,,,,,5cb36149a9827c0001e7ec46,2020-11-25_16h38.04.308,lexical_decision_task_MP_exp2,2020.2.5,Win32,60,,z,1,,,,,,,,0.598665,1,,,,,,281,NW,UN,16,porlex,MELATY,z,0.598665,,,,,,0.066467289,-0.479062841,0,0,0,,0,85,85,460,1
,,,,,,,,,,,,,,,,,,5cb36149a9827c0001e7ec46,2020-11-25_16h38.04.308,lexical_decision_task_MP_exp2,2020.2.5,Win32,60,,m,1,,,,,,,,0.975,1,,,,,,189,WORD,UN,33,backup,CENSOR,m,0.975,,,,,,0.066467289,-0.479062841,0,0,0,,0,86,86,128,1
,,,,,,,,,,,,,,,,,,5cb36149a9827c0001e7ec46,2020-11-25_16h38.04.308,lexical_decision_task_MP_exp2,2020.2.5,Win32,60,,m,1,,,,,,,,0.57436,1,,,,,,165,WORD,"ID",16,invest,INVEST,m,0.57436,,,,,,0.066467289,-0.479062841,0,0,0,,0,87,87,104,1
,,,,,,,,,,,,,,,,,,5cb36149a9827c0001e7ec46,2020-11-25_16h38.04.308,lexical_decision_task_MP_exp2,2020.2.5,Win32,60,,z,1,,,,,,,,0.694315,1,,,,,,421,NW,UN,33,alcoud,KNISMA,z,0.694315,,,,,,0.066467289,-0.479062841,0,0,0,,0,88,88,360,1
,,,,,,,,,,,,,,,,,,5cb36149a9827c0001e7ec46,2020-11-25_16h38.04.308,lexical_decision_task_MP_exp2,2020.2.5,Win32,60,,z,1,,,,,,,,0.950925,1,,,,,,306,NW,"ID",33,sounge,SOUNGE,z,0.950925,,,,,,0.066467289,-0.479062841,0,0,0,,0,89,89,245,1
,,,,,,,,,,,,,,,,,,5cb36149a9827c0001e7ec46,2020-11-25_16h38.04.308,lexical_decision_task_MP_exp2,2020.2.5,Win32,60,,m,1,,,,,,,,0.59232,1,,,,,,41,WORD,UN,16,chapel,SPRING,m,0.59232,,,,,,0.066467289,-0.479062841,0,0,0,,0,90,90,220,1
,,,,,,,,,,,,,,,,,,5cb36149a9827c0001e7ec46,2020-11-25_16h38.04.308,lexical_decision_task_MP_exp2,2020.2.5,Win32,60,,z,1,,,,,,,,0.569415,1,,,,,,331,NW,"ID",33,gilfew,GILFEW,z,0.569415,,,,,,0.066467289,-0.479062841,0,0,0,,0,91,91,270,1
,,,,,,,,,,,,,,,,,,5cb36149a9827c0001e7ec46,2020-11-25_16h38.04.308,lexical_decision_task_MP_exp2,2020.2.5,Win32,60,,m,1,,,,,,,,0.56485,1,,,,,,127,WORD,"ID",16,castle,CASTLE,m,0.56485,,,,,,0.066467289,-0.479062841,0,0,0,,0,92,92,66,1
,,,,,,,,,,,,,,,,,,5cb36149a9827c0001e7ec46,2020-11-25_16h38.04.308,lexical_decision_task_MP_exp2,2020.2.5,Win32,60,,z,0,,,,,,,,0.576675,0,,,,,,160,WORD,"ID",16,violet,VIOLET,m,0.576675,,,,,,0.066467289,-0.479062841,0,0,0,,0,93,93,99,1
,,,,,,,,,,,,,,,,,,5cb36149a9827c0001e7ec46,2020-11-25_16h38.04.308,lexical_decision_task_MP_exp2,2020.2.5,Win32,60,,z,1,,,,,,,,1.02719,1,,,,,,346,NW,"ID",33,saudic,SAUDIC,z,1.02719,,,,,,0.066467289,-0.479062841,0,0,0,,0,94,94,285,1
,,,,,,,,,,,,,,,,,,5cb36149a9827c0001e7ec46,2020-11-25_16h38.04.308,lexical_decision_task_MP_exp2,2020.2.5,Win32,60,,z,1,,,,,,,,0.64498,1,,,,,,337,NW,"ID",33,rejols,REJOLS,z,0.64498,,,,,,0.066467289,-0.479062841,0,0,0,,0,95,95,276,1
,,,,,,,,,,,,,,,,,,5cb36149a9827c0001e7ec46,2020-11-25_16h38.04.308,lexical_decision_task_MP_exp2,2020.2.5,Win32,60,,m,1,,,,,,,,0.55031,1,,,,,,237,WORD,UN,33,glance,POSTER,m,0.55031,,,,,,0.066467289,-0.479062841,0,0,0,,0,96,96,176,1
,,,,,,,,,,,,,,,,,,5cb36149a9827c0001e7ec46,2020-11-25_16h38.04.308,lexical_decision_task_MP_exp2,2020.2.5,Win32,60,,z,1,,,,,,,,0.88144,1,,,,,,462,NW,UN,33,kispel,ABSULT,z,0.88144,,,,,,0.066467289,-0.479062841,0,0,0,,0,97,97,401,1
,,,,,,,,,,,,,,,,,,5cb36149a9827c0001e7ec46,2020-11-25_16h38.04.308,lexical_decision_task_MP_exp2,2020.2.5,Win32,60,,m,1,,,,,,,,0.967,1,,,,,,139,WORD,"ID",16,debris,DEBRIS,m,0.967,,,,,,0.066467289,-0.479062841,0,0,0,,0,98,98,78,1
,,,,,,,,,,,,,,,,,,5cb36149a9827c0001e7ec46,2020-11-25_16h38.04.308,lexical_decision_task_MP_exp2,2020.2.5,Win32,60,,m,1,,,,,,,,0.63501,1,,,,,,198,WORD,UN,33,invoke,WICKED,m,0.63501,,,,,,0.066467289,-0.479062841,0,0,0,,0,99,99,137,1
,,,,,,,,,,,,,,,,,,5cb36149a9827c0001e7ec46,2020-11-25_16h38.04.308,lexical_decision_task_MP_exp2,2020.2.5,Win32,60,,m,1,,,,,,,,0.693015,1,,,,,,71,WORD,"ID",33,garden,GARDEN,m,0.693015,,,,,,0.066467289,-0.479062841,0,0,0,,0,100,100,10,1
,,,,,,,,,,,,,,,,,,5cb36149a9827c0001e7ec46,2020-11-25_16h38.04.308,lexical_decision_task_MP_exp2,2020.2.5,Win32,60,,m,1,,,,,,,,0.719545,1,,,,,,222,WORD,UN,33,export,HINDER,m,0.719545,,,,,,0.066467289,-0.479062841,0,0,0,,0,101,101,161,1
,,,,,,,,,,,,,,,,,,5cb36149a9827c0001e7ec46,2020-11-25_16h38.04.308,lexical_decision_task_MP_exp2,2020.2.5,Win32,60,,z,1,,,,,,,,0.733345,1,,,,,,310,NW,"ID",33,daniet,DANIET,z,0.733345,,,,,,0.066467289,-0.479062841,0,0,0,,0,102,102,249,1
,,,,,,,,,,,,,,,,,,5cb36149a9827c0001e7ec46,2020-11-25_16h38.04.308,lexical_decision_task_MP_exp2,2020.2.5,Win32,60,,m,1,,,,,,,,0.70224,1,,,,,,183,WORD,UN,33,sleazy,MILDEW,m,0.70224,,,,,,0.066467289,-0.479062841,0,0,0,,0,103,103,122,1
,,,,,,,,,,,,,,,,,,5cb36149a9827c0001e7ec46,2020-11-25_16h38.04.308,lexical_decision_task_MP_exp2,2020.2.5,Win32,60,,m,1,,,,,,,,0.826115,1,,,,,,203,WORD,UN,33,burden,PHRASE,m,0.826115,,,,,,0.066467289,-0.479062841,0,0,0,,0,104,104,142,1
,,,,,,,,,,,,,,,,,,5cb36149a9827c0001e7ec46,2020-11-25_16h38.04.308,lexical_decision_task_MP_exp2,2020.2.5,Win32,60,,m,1,,,,,,,,0.758685,1,,,,,,144,WORD,"ID",16,sponge,SPONGE,m,0.758685,,,,,,0.066467289,-0.479062841,0,0,0,,0,105,105,83,1
,,,,,,,,,,,,,,,,,,5cb36149a9827c0001e7ec46,2020-11-25_16h38.04.308,lexical_decision_task_MP_exp2,2020.2.5,Win32,60,,z,1,,,,,,,,0.86695,1,,,,,,299,NW,UN,16,yarion,STURCH,z,0.86695,,,,,,0.066467289,-0.479062841,0,0,0,,0,106,106,478,1
,,,,,,,,,,,,,,,,,,5cb36149a9827c0001e7ec46,2020-11-25_16h38.04.308,lexical_decision_task_MP_exp2,2020.2.5,Win32,60,,z,1,,,,,,,,0.709465,1,,,,,,298,NW,UN,16,sturch,PIERGY,z,0.709465,,,,,,0.066467289,-0.479062841,0,0,0,,0,107,107,477,1
,,,,,,,,,,,,,,,,,,5cb36149a9827c0001e7ec46,2020-11-25_16h38.04.308,lexical_decision_task_MP_exp2,2020.2.5,Win32,60,,z,1,,,,,,,,0.510495,1,,,,,,336,NW,"ID",33,ghodus,GHODUS,z,0.510495,,,,,,0.066467289,-0.479062841,0,0,0,,0,108,108,275,1
,,,,,,,,,,,,,,,,,,5cb36149a9827c0001e7ec46,2020-11-25_16h38.04.308,lexical_decision_task_MP_exp2,2020.2.5,Win32,60,,z,1,,,,,,,,0.94754,1,,,,,,454,NW,UN,33,tondle,SCOUGE,z,0.94754,,,,,,0.066467289,-0.479062841,0,0,0,,0,109,109,393,1
,,,,,,,,,,,,,,,,,,5cb36149a9827c0001e7ec46,2020-11-25_16h38.04.308,lexical_decision_task_MP_exp2,2020.2.5,Win32,60,,m,1,,,,,,,,0.651265,1,,,,,,85,WORD,"ID",33,sprawl,SPRAWL,m,0.651265,,,,,,0.066467289,-0.479062841,0,0,0,,0,110,110,24,1
,,,,,,,,,,,,,,,,,,5cb36149a9827c0001e7ec46,2020-11-25_16h38.04.308,lexical_decision_task_MP_exp2,2020.2.5,Win32,60,,m,1,,,,,,,,0.718525,1,,,,,,92,WORD,"ID",33,strand,STRAND,m,0.718525,,,,,,0.066467289,-0.479062841,0,0,0,,0,111,111,31,1
,,,,,,,,,,,,,,,,,,5cb36149a9827c0001e7ec46,2020-11-25_16h38.04.308,lexical_decision_task_MP_exp2,2020.2.5,Win32,60,,z,1,,,,,,,,0.65852,1,,,,,,401,NW,"ID",16,mustil,MUSTIL,z,0.65852,,,,,,0.066467289,-0.479062841,0,0,0,,0,112,112,340,1
,,,,,,,,,,,,,,,,,,5cb36149a9827c0001e7ec46,2020-11-25_16h38.04.308,lexical_decision_task_MP_exp2,2020.2.5,Win32,60,,z,1,,,,,,,,0.510735,1,,,,,,466,NW,UN,33,robuly,HOCITE,z,0.510735,,,,,,0.066467289,-0.479062841,0,0,0,,0,113,113,405,1
,,,,,,,,,,,,,,,,,,5cb36149a9827c0001e7ec46,2020-11-25_16h38.04.308,lexical_decision_task_MP_exp2,2020.2.5,Win32,60,,m,1,,,,,,,,0.64972,1,,,,,,90,WORD,"ID",33,relish,RELISH,m,0.64972,,,,,,0.066467289,-0.479062841,0,0,0,,0,114,114,29,1
,,,,,,,,,,,,,,,,,,5cb36149a9827c0001e7ec46,2020-11-25_16h38.04.308,lexical_decision_task_MP_exp2,2020.2.5,Win32,60,,m,1,,,,,,,,0.652495,1,,,,,,115,WORD,"ID",33,guitar,GUITAR,m,0.652495,,,,,,0.066467289,-0.479062841,0,0,0,,0,115,115,54,1
,,,,,,,,,,,,,,,,,,5cb36149a9827c0001e7ec46,2020-11-25_16h38.04.308,lexical_decision_task_MP_exp2,2020.2.5,Win32,60,,z,1,,,,,,,,0.631495,1,,,,,,242,NW,UN,16,musied,UNWERT,z,0.631495,,,,,,0.066467289,-0.479062841,0,0,0,,0,116,116,421,1
,,,,,,,,,,,,,,,,,,5cb36149a9827c0001e7ec46,2020-11-25_16h38.04.308,lexical_decision_task_MP_exp2,2020.2.5,Win32,60,,z,1,,,,,,,,0.69828,1,,,,,,303,NW,"ID",33,fiream,FIREAM,z,0.69828,,,,,,0.066467289,-0.479062841,0,0,0,,0,117,117,242,1
,,,,,,,,,,,,,,,,,,5cb36149a9827c0001e7ec46,2020-11-25_16h38.04.308,lexical_decision_task_MP_exp2,2020.2.5,Win32,60,,m,1,,,,,,,,0.7004,1,,,,,,162,WORD,"ID",16,candle,CANDLE,m,0.7004,,,,,,0.066467289,-0.479062841,0,0,0,,0,118,118,101,1
,,,,,,,,,,,,,,,,,,5cb36149a9827c0001e7ec46,2020-11-25_16h38.04.308,lexical_decision_task_MP_exp2,2020.2.5,Win32,60,,m,1,,,,,,,,0.98155,1,,,,,,161,WORD,"ID",16,pastor,PASTOR,m,0.98155,,,,,,0.066467289,-0.479062841,0,0,0,,0,119,119,100,1
,,,,,,,,,,,,,,,,,,5cb36149a9827c0001e7ec46,2020-11-25_16h38.04.308,lexical_decision_task_MP_exp2,2020.2.5,Win32,60,,m,1,,,,,,,,0.707675,1,,,,,,168,WORD,"ID",16,answer,ANSWER,m,0.707675,,,,,,0.066467289,-0.479062841,0,0,0,,0,120,120,107,1
,,,,,,,,,,,,,,,,,,5cb36149a9827c0001e7ec46,2020-11-25_16h38.04.308,lexical_decision_task_MP_exp2,2020.2.5,Win32,60,,m,1,,,,,,,,0.61896,1,,,,,,63,WORD,"ID",33,launch,LAUNCH,m,0.61896,,,,,,0.066467289,-0.479062841,0,0,0,,0,121,121,2,1
,,,,,,,,,,,,,,,,,,5cb36149a9827c0001e7ec46,2020-11-25_16h38.04.308,lexical_decision_task_MP_exp2,2020.2.5,Win32,60,,z,1,,,,,,,,0.700435,1,,,,,,296,NW,UN,16,fertic,BEINCH,z,0.700435,,,,,,0.066467289,-0.479062841,0,0,0,,0,122,122,475,1
,,,,,,,,,,,,,,,,,,5cb36149a9827c0001e7ec46,2020-11-25_16h38.04.308,lexical_decision_task_MP_exp2,2020.2.5,Win32,60,,z,1,,,,,,,,0.87011,1,,,,,,455,NW,UN,33,broget,TONDLE,z,0.87011,,,,,,0.066467289,-0.479062841,0,0,0,,0,123,123,394,1
,,,,,,,,,,,,,,,,,,5cb36149a9827c0001e7ec46,2020-11-25_16h38.04.308,lexical_decision_task_MP_exp2,2020.2.5,Win32,60,,z,1,,,,,,,,0.799745,1,,,,,,255,NW,UN,16,inlors,APIGHT,z,0.799745,,,,,,0.066467289,-0.479062841,0,0,0,,0,124,124,434,1
,,,,,,,,,,,,,,,,,,5cb36149a9827c0001e7ec46,2020-11-25_16h38.04.308,lexical_decision_task_MP_exp2,2020.2.5,Win32,60,,z,1,,,,,,,,0.841975,1,,,,,,355,NW,"ID",33,zingly,ZINGLY,z,0.841975,,,,,,0.066467289,-0.479062841,0,0,0,,0,125,125,294,1
,,,,,,,,,,,,,,,,,,5cb36149a9827c0001e7ec46,2020-11-25_16h38.04.308,lexical_decision_task_MP_exp2,2020.2.5,Win32,60,,m,1,,,,,,,,0.750245,1,,,,,,158,WORD,"ID",16,island,ISLAND,m,0.750245,,,,,,0.066467289,-0.479062841,0,0,0,,0,126,126,97,1
,,,,,,,,,,,,,,,,,,5cb36149a9827c0001e7ec46,2020-11-25_16h38.04.308,lexical_decision_task_MP_exp2,2020.2.5,Win32,60,,z,1,,,,,,,,0.68003,1,,,,,,367,NW,"ID",16,slique,SLIQUE,z,0.68003,,,,,,0.066467289,-0.479062841,0,0,0,,0,127,127,306,1
,,,,,,,,,,,,,,,,,,5cb36149a9827c0001e7ec46,2020-11-25_16h38.04.308,lexical_decision_task_MP_exp2,2020.2.5,Win32,60,,m,1,,,,,,,,0.91169,1,,,,,,34,WORD,UN,16,socket,JUNGLE,m,0.91169,,,,,,0.066467289,-0.479062841,0,0,0,,0,128,128,213,1
,,,,,,,,,,,,,,,,,,5cb36149a9827c0001e7ec46,2020-11-25_16h38.04.308,lexical_decision_task_MP_exp2,2020.2.5,Win32,60,,m,1,,,,,,,,0.63315,1,,,,,,29,WORD,UN,16,orient,SKETCH,m,0.63315,,,,,,0.066467289,-0.479062841,0,0,0,,0,129,129,208,1
,,,,,,,,,,,,,,,,,,5cb36149a9827c0001e7ec46,2020-11-25_16h38.04.308,lexical_decision_task_MP_exp2,2020.2.5,Win32,60,,z,1,,,,,,,,1.0663,1,,,,,,378,NW,"ID",16,shrile,SHRILE,z,1.0663,,,,,,0.066467289,-0.479062841,0,0,0,,0,130,130,317,1
,,,,,,,,,,,,,,,,,,5cb36149a9827c0001e7ec46,2020-11-25_16h38.04.308,lexical_decision_task_MP_exp2,2020.2.5,Win32,60,,m,1,,,,,,,,0.63358,1,,,,,,192,WORD,UN,33,object,PLAGUE,m,0.63358,,,,,,0.066467289,-0.479062841,0,0,0,,0,131,131,131,1
,,,,,,,,,,,,,,,,,,5cb36149a9827c0001e7ec46,2020-11-25_16h38.04.308,lexical_decision_task_MP_exp2,2020.2.5,Win32,60,,m,1,,,,,,,,0.8922,1,,,,,,227,WORD,UN,33,master,SELDOM,m,0.8922,,,,,,0.066467289,-0.479062841,0,0,0,,0,132,132,166,1
,,,,,,,,,,,,,,,,,,5cb36149a9827c0001e7ec46,2020-11-25_16h38.04.308,lexical_decision_task_MP_exp2,2020.2.5,Win32,60,,z,1,,,,,,,,0.65178,1,,,,,,465,NW,UN,33,bafent,WHIVEX,z,0.65178,,,,,,0.066467289,-0.479062841,0,0,0,,0,133,133,404,1
,,,,,,,,,,,,,,,,,,5cb36149a9827c0001e7ec46,2020-11-25_16h38.04.308,lexical_decision_task_MP_exp2,2020.2.5,Win32,60,,z,1,,,,,,,,0.699395,1,,,,,,282,NW,UN,16,veralf,PORLEX,z,0.699395,,,,,,0.066467289,-0.479062841,0,0,0,,0,134,134,461,1
,,,,,,,,,,,,,,,,,,5cb36149a9827c0001e7ec46,2020-11-25_16h38.04.308,lexical_decision_task_MP_exp2,2020.2.5,Win32,60,,m,1,,,,,,,,0.642395,1,,,,,,205,WORD,UN,33,tailor,LOUNGE,m,0.642395,,,,,,0.066467289,-0.479062841,0,0,0,,0,135,135,144,1
,,,,,,,,,,,,,,,,,,5cb36149a9827c0001e7ec46,2020-11-25_16h38.04.308,lexical_decision_task_MP_exp2,2020.2.5,Win32,60,,m,1,,,,,,,,0.598375,1,,,,,,52,WORD,UN,16,police,IMPOSE,m,0.598375,,,,,,0.066467289,-0.479062841,0,0,0,,0,136,136,231,1
,,,,,,,,,,,,,,,,,,5cb36149a9827c0001e7ec46,2020-11-25_16h38.04.308,lexical_decision_task_MP_exp2,2020.2.5,Win32,60,,z,1,,,,,,,,0.676635,1,,,,,,340,NW,"ID",33,fiatch,FIATCH,z,0.676635,,,,,,0.066467289,-0.479062841,0,0,0,,0,137,137,279,1
,,,,,,,,,,,,,,,,,,5cb36149a9827c0001e7ec46,2020-11-25_16h38.04.308,lexical_decision_task_MP_exp2,2020.2.5,Win32,60,,m,1,,,,,,,,0.5224,1,,,,,,197,WORD,UN,33,wicked,STREAM,m,0.5224,,,,,,0.066467289,-0.479062841,0,0,0,,0,138,138,136,1
,,,,,,,,,,,,,,,,,,5cb36149a9827c0001e7ec46,2020-11-25_16h38.04.308,lexical_decision_task_MP_exp2,2020.2.5,Win32,60,,m,1,,,,,,,,0.693725,1,,,,,,84,WORD,"ID",33,mortal,MORTAL,m,0.693725,,,,,,0.066467289,-0.479062841,0,0,0,,0,139,139,23,1
,,,,,,,,,,,,,,,,,,5cb36149a9827c0001e7ec46,2020-11-25_16h38.04.308,lexical_decision_task_MP_exp2,2020.2.5,Win32,60,,m,1,,,,,,,,0.67612,1,,,,,,196,WORD,UN,33,stream,CREDIT,m,0.67612,,,,,,0.066467289,-0.479062841,0,0,0,,0,140,140,135,1
,,,,,,,,,,,,,,,,,,5cb36149a9827c0001e7ec46,2020-11-25_16h38.04.308,lexical_decision_task_MP_exp2,2020.2.5,Win32,60,,m,1,,,,,,,,0.55819,1,,,,,,3,WORD,UN,16,trench,KNIGHT,m,0.55819,,,,,,0.066467289,-0.479062841,0,0,0,,0,141,141,182,1
,,,,,,,,,,,,,,,,,,5cb36149a9827c0001e7ec46,2020-11-25_16h38.04.308,lexical_decision_task_MP_exp2,2020.2.5,Win32,60,,z,1,,,,,,,,0.673535,1,,,,,,290,NW,UN,16,pretch,SPLINO,z,0.673535,,,,,,0.066467289,-0.479062841,0,0,0,,0,142,142,469,1
,,,,,,,,,,,,,,,,,,5cb36149a9827c0001e7ec46,2020-11-25_16h38.04.308,lexical_decision_task_MP_exp2,2020.2.5,Win32,60,,m,0,,,,,,,,0.544375,0,,,,,,461,NW,UN,33,absult,JUSTRE,z,0.544375,,,,,,0.066467289,-0.479062841,0,0,0,,0,143,143,400,1
,,,,,,,,,,,,,,,,,,5cb36149a9827c0001e7ec46,2020-11-25_16h38.04.308,lexical_decision_task_MP_exp2,2020.2.5,Win32,60,,z,1,,,,,,,,0.828555,1,,,,,,450,NW,UN,33,cainky,PHRECT,z,0.828555,,,,,,0.066467289,-0.479062841,0,0,0,,0,144,144,389,1
,,,,,,,,,,,,,,,,,,5cb36149a9827c0001e7ec46,2020-11-25_16h38.04.308,lexical_decision_task_MP_exp2,2020.2.5,Win32,60,,m,1,,,,,,,,0.61131,1,,,,,,102,WORD,"ID",33,direct,DIRECT,m,0.61131,,,,,,0.066467289,-0.479062841,0,0,0,,0,145,145,41,1
,,,,,,,,,,,,,,,,,,5cb36149a9827c0001e7ec46,2020-11-25_16h38.04.308,lexical_decision_task_MP_exp2,2020.2.5,Win32,60,,m,1,,,,,,,,0.690055,1,,,,,,169,WORD,"ID",16,genius,GENIUS,m,0.690055,,,,,,0.066467289,-0.479062841,0,0,0,,0,146,146,108,1
,,,,,,,,,,,,,,,,,,5cb36149a9827c0001e7ec46,2020-11-25_16h38.04.308,lexical_decision_task_MP_exp2,2020.2.5,Win32,60,,m,1,,,,,,,,0.747935,1,,,,,,193,WORD,UN,33,mildew,OBJECT,m,0.747935,,,,,,0.066467289,-0.479062841,0,0,0,,0,147,147,132,1
,,,,,,,,,,,,,,,,,,5cb36149a9827c0001e7ec46,2020-11-25_16h38.04.308,lexical_decision_task_MP_exp2,2020.2.5,Win32,60,,m,1,,,,,,,,0.573825,1,,,,,,72,WORD,"ID",33,bright,BRIGHT,m,0.573825,,,,,,0.066467289,-0.479062841,0,0,0,,0,148,148,11,1
,,,,,,,,,,,,,,,,,,5cb36149a9827c0001e7ec46,2020-11-25_16h38.04.308,lexical_decision_task_MP_exp2,2020.2.5,Win32,60,,m,1,,,,,,,,0.624955,1,,,,,,25,WORD,UN,16,sprint,DOMAIN,m,0.624955,,,,,,0.066467289,-0.479062841,0,0,0,,0,149,149,204,1
,,,,,,,,,,,,,,,,,,5cb36149a9827c0001e7ec46,2020-11-25_16h38.04.308,lexical_decision_task_MP_exp2,2020.2.5,Win32,60,,m,1,,,,,,,,0.498205,1,,,,,,104,WORD,"ID",33,studio,STUDIO,m,0.498205,,,,,,0.066467289,-0.479062841,0,0,0,,0,150,150,43,1
,,,,,,,,,,,,,,,,,,5cb36149a9827c0001e7ec46,2020-11-25_16h38.04.308,lexical_decision_task_MP_exp2,2020.2.5,Win32,60,,m,1,,,,,,,,0.50012,1,,,,,,60,WORD,UN,16,fright,PENCIL,m,0.50012,,,,,,0.066467289,-0.479062841,0,0,0,,0,151,151,239,1
,,,,,,,,,,,,,,,,,,5cb36149a9827c0001e7ec46,2020-11-25_16h38.04.308,lexical_decision_task_MP_exp2,2020.2.5,Win32,60,,m,1,,,,,,,,0.71419,1,,,,,,151,WORD,"ID",16,mystic,MYSTIC,m,0.71419,,,,,,0.066467289,-0.479062841,0,0,0,,0,152,152,90,1
,,,,,,,,,,,,,,,,,,5cb36149a9827c0001e7ec46,2020-11-25_16h38.04.308,lexical_decision_task_MP_exp2,2020.2.5,Win32,60,,m,1,,,,,,,,0.64764,1,,,,,,82,WORD,"ID",33,stigma,STIGMA,m,0.64764,,,,,,0.066467289,-0.479062841,0,0,0,,0,153,153,21,1
,,,,,,,,,,,,,,,,,,5cb36149a9827c0001e7ec46,2020-11-25_16h38.04.308,lexical_decision_task_MP_exp2,2020.2.5,Win32,60,,m,1,,,,,,,,0.65001,1,,,,,,23,WORD,UN,16,praise,WEALTH,m,0.65001,,,,,,0.066467289,-0.479062841,0,0,0,,0,154,154,202,1
,,,,,,,,,,,,,,,,,,5cb36149a9827c0001e7ec46,2020-11-25_16h38.04.308,lexical_decision_task_MP_exp2,2020.2.5,Win32,60,,z,1,,,,,,,,0.663215,1,,,,,,252,NW,UN,16,resait,STAPOD,z,0.663215,,,,,,0.066467289,-0.479062841,0,0,0,,0,155,155,431,1
,,,,,,,,,,,,,,,,,,5cb36149a9827c0001e7ec46,2020-11-25_16h38.04.308,lexical_decision_task_MP_exp2,2020.2.5,Win32,60,,z,1,,,,,,,,0.608845,1,,,,,,393,NW,"ID",16,ganous,GANOUS,z,0.608845,,,,,,0.066467289,-0.479062841,0,0,0,,0,156,156,332,1
,,,,,,,,,,,,,,,,,,5cb36149a9827c0001e7ec46,2020-11-25_16h38.04.308,lexical_decision_task_MP_exp2,2020.2.5,Win32,60,,m,1,,,,,,,,0.63906,1,,,,,,42,WORD,UN,16,tongue,CHAPEL,m,0.63906,,,,,,0.066467289,-0.479062841,0,0,0,,0,157,157,221,1
,,,,,,,,,,,,,,,,,,5cb36149a9827c0001e7ec46,2020-11-25_16h38.04.308,lexical_decision_task_MP_exp2,2020.2.5,Win32,60,,m,1,,,,,,,,0.63399,1,,,,,,2,WORD,UN,16,knight,BRIDGE,m,0.63399,,,,,,0.066467289,-0.479062841,0,0,0,,0,158,158,181,1
,,,,,,,,,,,,,,,,,,5cb36149a9827c0001e7ec46,2020-11-25_16h38.04.308,lexical_decision_task_MP_exp2,2020.2.5,Win32,60,,z,1,,,,,,,,0.8653,1,,,,,,388,NW,"ID",16,cragin,CRAGIN,z,0.8653,,,,,,0.066467289,-0.479062841,0,0,0,,0,159,159,327,1
,,,,,,,,,,,,,,,,,,5cb36149a9827c0001e7ec46,2020-11-25_16h38.04.308,lexical_decision_task_MP_exp2,2020.2.5,Win32,60,,m,1,,,,,,,,0.618435,1,,,,,,140,WORD,"ID",16,prince,PRINCE,m,0.618435,,,,,,0.066467289,-0.479062841,0,0,0,,0,160,160,79,1
,,,,,,,,,,,,,,,,,,5cb36149a9827c0001e7ec46,2020-11-25_16h38.04.308,lexical_decision_task_MP_exp2,2020.2.5,Win32,60,,m,1,,,,,,,,0.642405,1,,,,,,164,WORD,"ID",16,market,MARKET,m,0.642405,,,,,,0.066467289,-0.479062841,0,0,0,,0,161,161,103,1
,,,,,,,,,,,,,,,,,,5cb36149a9827c0001e7ec46,2020-11-25_16h38.04.308,lexical_decision_task_MP_exp2,2020.2.5,Win32,60,,m,1,,,,,,,,0.513755,1,,,,,,186,WORD,UN,33,course,PORTAL,m,0.513755,,,,,,0.066467289,-0.479062841,0,0,0,,0,162,162,125,1
,,,,,,,,,,,,,,,,,,5cb36149a9827c0001e7ec46,2020-11-25_16h38.04.308,lexical_decision_task_MP_exp2,2020.2.5,Win32,60,,m,1,,,,,,,,0.90253,1,,,,,,207,WORD,UN,33,hockey,WREATH,m,0.90253,,,,,,0.066467289,-0.479062841,0,0,0,,0,163,163,146,1
,,,,,,,,,,,,,,,,,,5cb36149a9827c0001e7ec46,2020-11-25_16h38.04.308,lexical_decision_task_MP_exp2,2020.2.5,Win32,60,,z,1,,,,,,,,0.632785,1,,,,,,399,NW,"ID",16,fouret,FOURET,z,0.632785,,,,,,0.066467289,-0.479062841,0,0,0,,0,164,164,338,1
,,,,,,,,,,,,,,,,,,5cb36149a9827c0001e7ec46,2020-11-25_16h38.04.308,lexical_decision_task_MP_exp2,2020.2.5,Win32,60,,z,1,,,,,,,,0.66644,1,,,,,,440,NW,UN,33,rastoe,SARIDE,z,0.66644,,,,,,0.066467289,-0.479062841,0,0,0,,0,165,165,379,1
,,,,,,,,,,,,,,,,,,5cb36149a9827c0001e7ec46,2020-11-25_16h38.04.308,lexical_decision_task_MP_exp2,2020.2.5,Win32,60,,z,1,,,,,,,,0.59361,1,,,,,,423,NW,UN,33,praile,STRELD,z,0.59361,,,,,,0.066467289,-0.479062841,0,0,0,,0,166,166,362,1
,,,,,,,,,,,,,,,,,,5cb36149a9827c0001e7ec46,2020-11-25_16h38.04.308,lexical_decision_task_MP_exp2,2020.2.5,Win32,60,,z,1,,,,,,,,0.63059,1,,,,,,395,NW,"ID",16,colury,COLURY,z,0.63059,,,,,,0.066467289,-0.479062841,0,0,0,,0,167,167,334,1
,,,,,,,,,,,,,,,,,,5cb36149a9827c0001e7ec46,2020-11-25_16h38.04.308,lexical_decision_task_MP_exp2,2020.2.5,Win32,60,,z,1,,,,,,,,0.57625,1,,,,,,308,NW,"ID",33,psetch,PSETCH,z,0.57625,,,,,,0.066467289,-0.479062841,0,0,0,,0,168,168,247,1
,,,,,,,,,,,,,,,,,,5cb36149a9827c0001e7ec46,2020-11-25_16h38.04.308,lexical_decision_task_MP_exp2,2020.2.5,Win32,60,,m,1,,,,,,,,0.63396,1,,,,,,153,WORD,"ID",16,behold,BEHOLD,m,0.63396,,,,,,0.066467289,-0.479062841,0,0,0,,0,169,169,92,1
,,,,,,,,,,,,,,,,,,5cb36149a9827c0001e7ec46,2020-11-25_16h38.04.308,lexical_decision_task_MP_exp2,2020.2.5,Win32,60,,z,1,,,,,,,,0.60275,1,,,,,,439,NW,UN,33,saride,LIMPOR,z,0.60275,,,,,,0.066467289,-0.479062841,0,0,0,,0,170,170,378,1
,,,,,,,,,,,,,,,,,,5cb36149a9827c0001e7ec46,2020-11-25_16h38.04.308,lexical_decision_task_MP_exp2,2020.2.5,Win32,60,,z,1,,,,,,,,0.54724,1,,,,,,444,NW,UN,33,minkel,JAUNCE,z,0.54724,,,,,,0.066467289,-0.479062841,0,0,0,,0,171,171,383,1
,,,,,,,,,,,,,,,,,,5cb36149a9827c0001e7ec46,2020-11-25_16h38.04.308,lexical_decision_task_MP_exp2,2020.2.5,Win32,60,,z,1,,,,,,,,0.79652,1,,,,,,405,NW,"ID",16,flumni,FLUMNI,z,0.79652,,,,,,0.066467289,-0.479062841,0,0,0,,0,172,172,344,1
,,,,,,,,,,,,,,,,,,5cb36149a9827c0001e7ec46,2020-11-25_16h38.04.308,lexical_decision_task_MP_exp2,2020.2.5,Win32,60,,m,1,,,,,,,,1.017725,1,,,,,,184,WORD,UN,33,bother,SLEAZY,m,1.017725,,,,,,0.066467289,-0.479062841,0,0,0,,0,173,173,123,1
,,,,,,,,,,,,,,,,,,5cb36149a9827c0001e7ec46,2020-11-25_16h38.04.308,lexical_decision_task_MP_exp2,2020.2.5,Win32,60,,z,1,,,,,,,,0.74247,1,,,,,,330,NW,"ID",33,kensom,KENSOM,z,0.74247,,,,,,0.066467289,-0.479062841,0,0,0,,0,174,174,269,1
,,,,,,,,,,,,,,,,,,5cb36149a9827c0001e7ec46,2020-11-25_16h38.04.308,lexical_decision_task_MP_exp2,2020.2.5,Win32,60,,z,1,,,,,,,,0.700565,1,,,,,,371,NW,"ID",16,geiloy,GEILOY,z,0.700565,,,,,,0.066467289,-0.479062841,0,0,0,,0,175,175,310,1
,,,,,,,,,,,,,,,,,,5cb36149a9827c0001e7ec46,2020-11-25_16h38.04.308,lexical_decision_task_MP_exp2,2020.2.5,Win32,60,,z,1,,,,,,,,0.983245,1,,,,,,304,NW,"ID",33,cludie,CLUDIE,z,0.983245,,,,,,0.066467289,-0.479062841,0,0,0,,0,176,176,243,1
,,,,,,,,,,,,,,,,,,5cb36149a9827c0001e7ec46,2020-11-25_16h38.04.308,lexical_decision_task_MP_exp2,2020.2.5,Win32,60,,m,1,,,,,,,,0.624565,1,,,,,,86,WORD,"ID",33,rodent,RODENT,m,0.624565,,,,,,0.066467289,-0.479062841,0,0,0,,0,177,177,25,1
,,,,,,,,,,,,,,,,,,5cb36149a9827c0001e7ec46,2020-11-25_16h38.04.308,lexical_decision_task_MP_exp2,2020.2.5,Win32,60,,z,1,,,,,,,,0.66381,1,,,,,,426,NW,UN,33,schind,URIVEL,z,0.66381,,,,,,0.066467289,-0.479062841,0,0,0,,0,178,178,365,1
,,,,,,,,,,,,,,,,,,5cb36149a9827c0001e7ec46,2020-11-25_16h38.04.308,lexical_decision_task_MP_exp2,2020.2.5,Win32,60,,m,1,,,,,,,,0.7316,1,,,,,,174,WORD,"ID",16,turkey,TURKEY,m,0.7316,,,,,,0.066467289,-0.479062841,0,0,0,,0,179,179,113,1
,,,,,,,,,,,,,,,,,,5cb36149a9827c0001e7ec46,2020-11-25_16h38.04.308,lexical_decision_task_MP_exp2,2020.2.5,Win32,60,,z,1,,,,,,,,0.666085,1,,,,,,428,NW,UN,33,funtle,TANDLY,z,0.666085,,,,,,0.066467289,-0.479062841,0,0,0,,0,180,180,367,1
,,,,,,,,,,,,,,,,,,5cb36149a9827c0001e7ec46,2020-11-25_16h38.04.308,lexical_decision_task_MP_exp2,2020.2.5,Win32,60,,m,1,,,,,,,,0.576115,1,,,,,,7,WORD,UN,16,abrupt,ANCHOR,m,0.576115,,,,,,0.066467289,-0.479062841,0,0,0,,0,181,181,186,1
,,,,,,,,,,,,,,,,,,5cb36149a9827c0001e7ec46,2020-11-25_16h38.04.308,lexical_decision_task_MP_exp2,2020.2.5,Win32,60,,z,0,,,,,,,,0.76864,0,,,,,,156,WORD,"ID",16,cradle,CRADLE,m,0.76864,,,,,,0.066467289,-0.479062841,0,0,0,,0,182,182,95,1
,,,,,,,,,,,,,,,,,,5cb36149a9827c0001e7ec46,2020-11-25_16h38.04.308,lexical_decision_task_MP_exp2,2020.2.5,Win32,60,,z,1,,,,,,,,1.42385,1,,,,,,413,NW,"ID",16,equats,EQUATS,z,1.42385,,,,,,0.066467289,-0.479062841,0,0,0,,0,183,183,352,1
,,,,,,,,,,,,,,,,,,5cb36149a9827c0001e7ec46,2020-11-25_16h38.04.308,lexical_decision_task_MP_exp2,2020.2.5,Win32,60,,m,1,,,,,,,,0.88453,1,,,,,,6,WORD,UN,16,anchor,BUNDLE,m,0.88453,,,,,,0.066467289,-0.479062841,0,0,0,,0,184,184,185,1
,,,,,,,,,,,,,,,,,,5cb36149a9827c0001e7ec46,2020-11-25_16h38.04.308,lexical_decision_task_MP_exp2,2020.2.5,Win32,60,,z,1,,,,,,,,0.800755,1,,,,,,379,NW,"ID",16,auting,AUTING,z,0.800755,,,,,,0.066467289,-0.479062841,0,0,0,,0,185,185,318,1
,,,,,,,,,,,,,,,,,,5cb36149a9827c0001e7ec46,2020-11-25_16h38.04.308,lexical_decision_task_MP_exp2,2020.2.5,Win32,60,,z,1,,,,,,,,0.66687,1,,,,,,302,NW,"ID",33,miluer,MILUER,z,0.66687,,,,,,0.066467289,-0.479062841,0,0,0,,0,186,186,241,1
,,,,,,,,,,,,,,,,,,5cb36149a9827c0001e7ec46,2020-11-25_16h38.04.308,lexical_decision_task_MP_exp2,2020.2.5,Win32,60,,z,1,,,,,,,,0.642335,1,,,,,,385,NW,"ID",16,veigma,VEIGMA,z,0.642335,,,,,,0.066467289,-0.479062841,0,0,0,,0,187,187,324,1
,,,,,,,,,,,,,,,,,,5cb36149a9827c0001e7ec46,2020-11-25_16h38.04.308,lexical_decision_task_MP_exp2,2020.2.5,Win32,60,,m,0,,,,,,,,0.665335,0,,,,,,248,NW,UN,16,batrol,STROLE,z,0.665335,,,,,,0.066467289,-0.479062841,0,0,0,,0,188,188,427,1
,,,,,,,,,,,,,,,,,,5cb36149a9827c0001e7ec46,2020-11-25_16h38.04.308,lexical_decision_task_MP_exp2,2020.2.5,Win32,60,,z,1,,,,,,,,1.03553,1,,,,,,471,NW,UN,33,cigney,NOBEST,z,1.03553,,,,,,0.066467289,-0.479062841,0,0,0,,0,189,189,410,1
,,,,,,,,,,,,,,,,,,5cb36149a9827c0001e7ec46,2020-11-25_16h38.04.308,lexical_decision_task_MP_exp2,2020.2.5,Win32,60,,m,1,,,,,,,,0.674425,1,,,,,,8,WORD,UN,16,hustle,ABRUPT,m,0.674425,,,,,,0.066467289,-0.479062841,0,0,0,,0,190,190,187,1
,,,,,,,,,,,,,,,,,,5cb36149a9827c0001e7ec46,2020-11-25_16h38.04.308,lexical_decision_task_MP_exp2,2020.2.5,Win32,60,,m,1,,,,,,,,0.68305,1,,,,,,89,WORD,"ID",33,permit,PERMIT,m,0.68305,,,,,,0.066467289,-0.479062841,0,0,0,,0,191,191,28,1
,,,,,,,,,,,,,,,,,,5cb36149a9827c0001e7ec46,2020-11-25_16h38.04.308,lexical_decision_task_MP_exp2,2020.2.5,Win32,60,,m,0,,,,,,,,1.70932,0,,,,,,277,NW,UN,16,unighs,PETAIN,z,1.70932,,,,,,0.066467289,-0.479062841,0,0,0,,0,192,192,456,1
,,,,,,,,,,,,,,,,,,5cb36149a9827c0001e7ec46,2020-11-25_16h38.04.308,lexical_decision_task_MP_exp2,2020.2.5,Win32,60,,m,1,,,,,,,,0.800485,1,,,,,,36,WORD,UN,16,insult,VANISH,m,0.800485,,,,,,0.066467289,-0.479062841,0,0,0,,0,193,193,215,1
,,,,,,,,,,,,,,,,,,5cb36149a9827c0001e7ec46,2020-11-25_16h38.04.308,lexical_decision_task_MP_exp2,2020.2.5,Win32,60,,m,1,,,,,,,,0.68163,1,,,,,,147,WORD,"ID",16,garlic,GARLIC,m,0.68163,,,,,,0.066467289,-0.479062841,0,0,0,,0,194,194,86,1
,,,,,,,,,,,,,,,,,,5cb36149a9827c0001e7ec46,2020-11-25_16h38.04.308,lexical_decision_task_MP_exp2,2020.2.5,Win32,60,,z,1,,,,,,,,1.11757,1,,,,,,261,NW,UN,16,quilew,STUNCH,z,1.11757,,,,,,0.066467289,-0.479062841,0,0,0,,0,195,195,440,1
,,,,,,,,,,,,,,,,,,5cb36149a9827c0001e7ec46,2020-11-25_16h38.04.308,lexical_decision_task_MP_exp2,2020.2.5,Win32,60,,m,1,,,,,,,,0.70873,1,,,,,,39,WORD,UN,16,convey,INSECT,m,0.70873,,,,,,0.066467289,-0.479062841,0,0,0,,0,196,196,218,1
,,,,,,,,,,,,,,,,,,5cb36149a9827c0001e7ec46,2020-11-25_16h38.04.308,lexical_decision_task_MP_exp2,2020.2.5,Win32,60,,z,1,,,,,,,,0.809585,1,,,,,,435,NW,UN,33,frutan,IMPURB,z,0.809585,,,,,,0.066467289,-0.479062841,0,0,0,,0,197,197,374,1
,,,,,,,,,,,,,,,,,,5cb36149a9827c0001e7ec46,2020-11-25_16h38.04.308,lexical_decision_task_MP_exp2,2020.2.5,Win32,60,,z,1,,,,,,,,0.89056,1,,,,,,262,NW,UN,16,dolica,QUILEW,z,0.89056,,,,,,0.066467289,-0.479062841,0,0,0,,0,198,198,441,1
,,,,,,,,,,,,,,,,,,5cb36149a9827c0001e7ec46,2020-11-25_16h38.04.308,lexical_decision_task_MP_exp2,2020.2.5,Win32,60,,m,1,,,,,,,,0.62791,1,,,,,,134,WORD,"ID",16,staple,STAPLE,m,0.62791,,,,,,0.066467289,-0.479062841,0,0,0,,0,199,199,73,1
,,,,,,,,,,,,,,,,,,5cb36149a9827c0001e7ec46,2020-11-25_16h38.04.308,lexical_decision_task_MP_exp2,2020.2.5,Win32,60,,z,1,,,,,,,,0.699995,1,,,,,,475,NW,UN,33,josted,PEBRIC,z,0.699995,,,,,,0.066467289,-0.479062841,0,0,0,,0,200,200,414,1
,,,,,,,,,,,,,,,,,,5cb36149a9827c0001e7ec46,2020-11-25_16h38.04.308,lexical_decision_task_MP_exp2,2020.2.5,Win32,60,,z,1,,,,,,,,0.699935,1,,,,,,350,NW,"ID",33,nagurs,NAGURS,z,0.699935,,,,,,0.066467289,-0.479062841,0,0,0,,0,201,201,289,1
,,,,,,,,,,,,,,,,,,5cb36149a9827c0001e7ec46,2020-11-25_16h38.04.308,lexical_decision_task_MP_exp2,2020.2.5,Win32,60,,z,1,,,,,,,,0.56746,1,,,,,,359,NW,"ID",33,fonver,FONVER,z,0.56746,,,,,,0.066467289,-0.479062841,0,0,0,,0,202,202,298,1
,,,,,,,,,,,,,,,,,,5cb36149a9827c0001e7ec46,2020-11-25_16h38.04.308,lexical_decision_task_MP_exp2,2020.2.5,Win32,60,,m,1,,,,,,,,0.615005,1,,,,,,224,WORD,UN,33,vulgar,PERIOD,m,0.615005,,,,,,0.066467289,-0.479062841,0,0,0,,0,203,203,163,1
,,,,,,,,,,,,,,,,,,5cb36149a9827c0001e7ec46,2020-11-25_16h38.04.308,lexical_decision_task_MP_exp2,2020.2.5,Win32,60,,z,1,,,,,,,,0.70655,1,,,,,,460,NW,UN,33,justre,MINGAR,z,0.70655,,,,,,0.066467289,-0.479062841,0,0,0,,0,204,204,399,1
,,,,,,,,,,,,,,,,,,5cb36149a9827c0001e7ec46,2020-11-25_16h38.04.308,lexical_decision_task_MP_exp2,2020.2.5,Win32,60,,z,1,,,,,,,,1.21064,1,,,,,,251,NW,UN,16,stapod,LUPICT,z,1.21064,,,,,,0.066467289,-0.479062841,0,0,0,,0,205,205,430,1
,,,,,,,,,,,,,,,,,,5cb36149a9827c0001e7ec46,2020-11-25_16h38.04.308,lexical_decision_task_MP_exp2,2020.2.5,Win32,60,,m,1,,,,,,,,0.750365,1,,,,,,155,WORD,"ID",16,lizard,LIZARD,m,0.750365,,,,,,0.066467289,-0.479062841,0,0,0,,0,206,206,94,1
,,,,,,,,,,,,,,,,,,5cb36149a9827c0001e7ec46,2020-11-25_16h38.04.308,lexical_decision_task_MP_exp2,2020.2.5,Win32,60,,z,1,,,,,,,,1.14226,1,,,,,,474,NW,UN,33,acrise,HABLIN,z,1.14226,,,,,,0.066467289,-0.479062841,0,0,0,,0,207,207,413,1
,,,,,,,,,,,,,,,,,,5cb36149a9827c0001e7ec46,2020-11-25_16h38.04.308,lexical_decision_task_MP_exp2,2020.2.5,Win32,60,,m,1,,,,,,,,0.64157,1,,,,,,219,WORD,UN,33,voyage,BUCKET,m,0.64157,,,,,,0.066467289,-0.479062841,0,0,0,,0,208,208,158,1
,,,,,,,,,,,,,,,,,,5cb36149a9827c0001e7ec46,2020-11-25_16h38.04.308,lexical_decision_task_MP_exp2,2020.2.5,Win32,60,,m,1,,,,,,,,0.61405,1,,,,,,58,WORD,UN,16,splint,FOSTER,m,0.61405,,,,,,0.066467289,-0.479062841,0,0,0,,0,209,209,237,1
,,,,,,,,,,,,,,,,,,5cb36149a9827c0001e7ec46,2020-11-25_16h38.04.308,lexical_decision_task_MP_exp2,2020.2.5,Win32,60,,m,1,,,,,,,,0.720535,1,,,,,,141,WORD,"ID",16,orphan,ORPHAN,m,0.720535,,,,,,0.066467289,-0.479062841,0,0,0,,0,210,210,80,1
,,,,,,,,,,,,,,,,,,5cb36149a9827c0001e7ec46,2020-11-25_16h38.04.308,lexical_decision_task_MP_exp2,2020.2.5,Win32,60,,z,1,,,,,,,,0.652325,1,,,,,,479,NW,UN,33,crible,LOBUSH,z,0.652325,,,,,,0.066467289,-0.479062841,0,0,0,,0,211,211,418,1
,,,,,,,,,,,,,,,,,,5cb36149a9827c0001e7ec46,2020-11-25_16h38.04.308,lexical_decision_task_MP_exp2,2020.2.5,Win32,60,,z,1,,,,,,,,0.6092,1,,,,,,324,NW,"ID",33,steikh,STEIKH,z,0.6092,,,,,,0.066467289,-0.479062841,0,0,0,,0,212,212,263,1
,,,,,,,,,,,,,,,,,,5cb36149a9827c0001e7ec46,2020-11-25_16h38.04.308,lexical_decision_task_MP_exp2,2020.2.5,Win32,60,,z,1,,,,,,,,0.75785,1,,,,,,315,NW,"ID",33,laston,LASTON,z,0.75785,,,,,,0.066467289,-0.479062841,0,0,0,,0,213,213,254,1
,,,,,,,,,,,,,,,,,,5cb36149a9827c0001e7ec46,2020-11-25_16h38.04.308,lexical_decision_task_MP_exp2,2020.2.5,Win32,60,,z,1,,,,,,,,0.794145,1,,,,,,272,NW,UN,16,sortel,DAMILT,z,0.794145,,,,,,0.066467289,-0.479062841,0,0,0,,0,214,214,451,1
,,,,,,,,,,,,,,,,,,5cb36149a9827c0001e7ec46,2020-11-25_16h38.04.308,lexical_decision_task_MP_exp2,2020.2.5,Win32,60,,z,1,,,,,,,,0.613945,1,,,,,,258,NW,UN,16,soudal,POLUTH,z,0.613945,,,,,,0.066467289,-0.479062841,0,0,0,,0,215,215,437,1
,,,,,,,,,,,,,,,,,,5cb36149a9827c0001e7ec46,2020-11-25_16h38.04.308,lexical_decision_task_MP_exp2,2020.2.5,Win32,60,,z,1,,,,,,,,1.06958,1,,,,,,273,NW,UN,16,fumblo,SORTEL,z,1.06958,,,,,,0.066467289,-0.479062841,0,0,0,,0,216,216,452,1
,,,,,,,,,,,,,,,,,,5cb36149a9827c0001e7ec46,2020-11-25_16h38.04.308,lexical_decision_task_MP_exp2,2020.2.5,Win32,60,,m,1,,,,,,,,0.58447,1,,,,,,65,WORD,"ID",33,symbol,SYMBOL,m,0.58447,,,,,,0.066467289,-0.479062841,0,0,0,,0,217,217,4,1
,,,,,,,,,,,,,,,,,,5cb36149a9827c0001e7ec46,2020-11-25_16h38.04.308,lexical_decision_task_MP_exp2,2020.2.5,Win32,60,,m,1,,,,,,,,0.60242,1,,,,,,171,WORD,"ID",16,depart,DEPART,m,0.60242,,,,,,0.066467289,-0.479062841,0,0,0,,0,218,218,110,1
,,,,,,,,,,,,,,,,,,5cb36149a9827c0001e7ec46,2020-11-25_16h38.04.308,lexical_decision_task_MP_exp2,2020.2.5,Win32,60,,m,1,,,,,,,,0.6264,1,,,,,,120,WORD,"ID",33,strain,STRAIN,m,0.6264,,,,,,0.066467289,-0.479062841,0,0,0,,0,219,219,59,1
,,,,,,,,,,,,,,,,,,5cb36149a9827c0001e7ec46,2020-11-25_16h38.04.308,lexical_decision_task_MP_exp2,2020.2.5,Win32,60,,m,1,,,,,,,,0.59275,1,,,,,,57,WORD,UN,16,danger,CHANGE,m,0.59275,,,,,,0.066467289,-0.479062841,0,0,0,,0,220,220,236,1
,,,,,,,,,,,,,,,,,,5cb36149a9827c0001e7ec46,2020-11-25_16h38.04.308,lexical_decision_task_MP_exp2,2020.2.5,Win32,60,,m,1,,,,,,,,0.72665,1,,,,,,10,WORD,UN,16,cruise,ETHNIC,m,0.72665,,,,,,0.066467289,-0.479062841,0,0,0,,0,221,221,189,1
,,,,,,,,,,,,,,,,,,5cb36149a9827c0001e7ec46,2020-11-25_16h38.04.308,lexical_decision_task_MP_exp2,2020.2.5,Win32,60,,z,1,,,,,,,,0.776225,1,,,,,,269,NW,UN,16,wrimsy,ORCHET,z,0.776225,,,,,,0.066467289,-0.479062841,0,0,0,,0,222,222,448,1
,,,,,,,,,,,,,,,,,,5cb36149a9827c0001e7ec46,2020-11-25_16h38.04.308,lexical_decision_task_MP_exp2,2020.2.5,Win32,60,,m,1,,,,,,,,0.611195,1,,,,,,100,WORD,"ID",33,carbon,CARBON,m,0.611195,,,,,,0.066467289,-0.479062841,0,0,0,,0,223,223,39,1
,,,,,,,,,,,,,,,,,,5cb36149a9827c0001e7ec46,2020-11-25_16h38.04.308,lexical_decision_task_MP_exp2,2020.2.5,Win32,60,,m,1,,,,,,,,0.583165,1,,,,,,232,WORD,UN,33,nature,INJECT,m,0.583165,,,,,,0.066467289,-0.479062841,0,0,0,,0,224,224,171,1
,,,,,,,,,,,,,,,,,,5cb36149a9827c0001e7ec46,2020-11-25_16h38.04.308,lexical_decision_task_MP_exp2,2020.2.5,Win32,60,,z,1,,,,,,,,0.666625,1,,,,,,453,NW,UN,33,scouge,BOLVIS,z,0.666625,,,,,,0.066467289,-0.479062841,0,0,0,,0,225,225,392,1
,,,,,,,,,,,,,,,,,,5cb36149a9827c0001e7ec46,2020-11-25_16h38.04.308,lexical_decision_task_MP_exp2,2020.2.5,Win32,60,,z,1,,,,,,,,0.7335,1,,,,,,253,NW,UN,16,varosh,RESAIT,z,0.7335,,,,,,0.066467289,-0.479062841,0,0,0,,0,226,226,432,1
,,,,,,,,,,,,,,,,,,5cb36149a9827c0001e7ec46,2020-11-25_16h38.04.308,lexical_decision_task_MP_exp2,2020.2.5,Win32,60,,z,1,,,,,,,,1.566255,1,,,,,,386,NW,"ID",16,ancust,ANCUST,z,1.566255,,,,,,0.066467289,-0.479062841,0,0,0,,0,227,227,325,1
,,,,,,,,,,,,,,,,,,5cb36149a9827c0001e7ec46,2020-11-25_16h38.04.308,lexical_decision_task_MP_exp2,2020.2.5,Win32,60,,z,1,,,,,,,,1.19206,1,,,,,,418,NW,"ID",16,suidle,SUIDLE,z,1.19206,,,,,,0.066467289,-0.479062841,0,0,0,,0,228,228,357,1
,,,,,,,,,,,,,,,,,,5cb36149a9827c0001e7ec46,2020-11-25_16h38.04.308,lexical_decision_task_MP_exp2,2020.2.5,Win32,60,,m,1,,,,,,,,0.616645,1,,,,,,129,WORD,"ID",16,marvel,MARVEL,m,0.616645,,,,,,0.066467289,-0.479062841,0,0,0,,0,229,229,68,1
,,,,,,,,,,,,,,,,,,5cb36149a9827c0001e7ec46,2020-11-25_16h38.04.308,lexical_decision_task_MP_exp2,2020.2.5,Win32,60,,z,1,,,,,,,,1.126745,1,,,,,,451,NW,UN,33,surden,CAINKY,z,1.126745,,,,,,0.066467289,-0.479062841,0,0,0,,0,230,230,390,1
,,,,,,,,,,,,,,,,,,5cb36149a9827c0001e7ec46,2020-11-25_16h38.04.308,lexical_decision_task_MP_exp2,2020.2.5,Win32,60,,z,1,,,,,,,,0.60022,1,,,,,,343,NW,"ID",33,aimosy,AIMOSY,z,0.60022,,,,,,0.066467289,-0.479062841,0,0,0,,0,231,231,282,1
,,,,,,,,,,,,,,,,,,5cb36149a9827c0001e7ec46,2020-11-25_16h38.04.308,lexical_decision_task_MP_exp2,2020.2.5,Win32,60,,z,1,,,,,,,,0.63299,1,,,,,,376,NW,"ID",16,iguare,IGUARE,z,0.63299,,,,,,0.066467289,-0.479062841,0,0,0,,0,232,232,315,1
,,,,,,,,,,,,,,,,,,5cb36149a9827c0001e7ec46,2020-11-25_16h38.04.308,lexical_decision_task_MP_exp2,2020.2.5,Win32,60,,z,1,,,,,,,,0.63324,1,,,,,,400,NW,"ID",16,wearox,WEAROX,z,0.63324,,,,,,0.066467289,-0.479062841,0,0,0,,0,233,233,339,1
,,,,,,,,,,,,,,,,,,5cb36149a9827c0001e7ec46,2020-11-25_16h38.04.308,lexical_decision_task_MP_exp2,2020.2.5,Win32,60,,m,1,,,,,,,,0.561935,1,,,,,,80,WORD,"ID",33,family,FAMILY,m,0.561935,,,,,,0.066467289,-0.479062841,0,0,0,,0,234,234,19,1
,,,,,,,,,,,,,,,,,,5cb36149a9827c0001e7ec46,2020-11-25_16h38.04.308,lexical_decision_task_MP_exp2,2020.2.5,Win32,60,,z,1,,,,,,,,0.629605,1,,,,,,292,NW,UN,16,swance,ABLINT,z,0.629605,,,,,,0.066467289,-0.479062841,0,0,0,,0,235,235,471,1
,,,,,,,,,,,,,,,,,,5cb36149a9827c0001e7ec46,2020-11-25_16h38.04.308,lexical_decision_task_MP_exp2,2020.2.5,Win32,60,,m,1,,,,,,,,0.5593,1,,,,,,179,WORD,"ID",16,basket,BASKET,m,0.5593,,,,,,0.066467289,-0.479062841,0,0,0,,0,236,236,118,1
,,,,,,,,,,,,,,,,,,5cb36149a9827c0001e7ec46,2020-11-25_16h38.04.308,lexical_decision_task_MP_exp2,2020.2.5,Win32,60,,m,1,,,,,,,,0.6763,1,,,,,,121,WORD,"ID",16,thrive,THRIVE,m,0.6763,,,,,,0.066467289,-0.479062841,0,0,0,,0,237,237,60,1
,,,,,,,,,,,,,,,,,,5cb36149a9827c0001e7ec46,2020-11-25_16h38.04.308,lexical_decision_task_MP_exp2,2020.2.5,Win32,60,,z,0,,,,,,,,0.53189,0,,,,,,225,WORD,UN,33,casino,VULGAR,m,0.53189,,,,,,0.066467289,-0.479062841,0,0,0,,0,238,238,164,1
,,,,,,,,,,,,,,,,,,5cb36149a9827c0001e7ec46,2020-11-25_16h38.04.308,lexical_decision_task_MP_exp2,2020.2.5,Win32,60,,z,1,,,,,,,,0.88427,1,,,,,,325,NW,"ID",33,thruse,THRUSE,z,0.88427,,,,,,0.066467289,-0.479062841,0,0,0,,0,239,239,264,1
,,,,,,,,,,,,,,,,,,5cb36149a9827c0001e7ec46,2020-11-25_16h38.04.308,lexical_decision_task_MP_exp2,2020.2.5,Win32,60,,m,1,,,,,,,,0.537465,1,,,,,,137,WORD,"ID",16,finger,FINGER,m,0.537465,,,,,,0.066467289,-0.479062841,0,0,0,,0,240,240,76,1
,,,,,,,,,,,,,,,,,,5cb36149a9827c0001e7ec46,2020-11-25_16h38.04.308,lexical_decision_task_MP_exp2,2020.2.5,Win32,60,,z,1,,,,,,,,1.00773,1,,,,,,429,NW,UN,33,caroey,FUNTLE,z,1.00773,,,,,,0.066467289,-0.479062841,0,0,0,,0,241,241,368,1
,,,,,,,,,,,,,,,,,,5cb36149a9827c0001e7ec46,2020-11-25_16h38.04.308,lexical_decision_task_MP_exp2,2020.2.5,Win32,60,,m,1,,,,,,,,0.636795,1,,,,,,143,WORD,"ID",16,reason,REASON,m,0.636795,,,,,,0.066467289,-0.479062841,0,0,0,,0,242,242,82,1
,,,,,,,,,,,,,,,,,,5cb36149a9827c0001e7ec46,2020-11-25_16h38.04.308,lexical_decision_task_MP_exp2,2020.2.5,Win32,60,,m,1,,,,,,,,0.720535,1,,,,,,40,WORD,UN,16,spring,CONVEY,m,0.720535,,,,,,0.066467289,-0.479062841,0,0,0,,0,243,243,219,1
,,,,,,,,,,,,,,,,,,5cb36149a9827c0001e7ec46,2020-11-25_16h38.04.308,lexical_decision_task_MP_exp2,2020.2.5,Win32,60,,m,1,,,,,,,,0.651975,1,,,,,,235,WORD,UN,33,pirate,GRUMPY,m,0.651975,,,,,,0.066467289,-0.479062841,0,0,0,,0,244,244,174,1
,,,,,,,,,,,,,,,,,,5cb36149a9827c0001e7ec46,2020-11-25_16h38.04.308,lexical_decision_task_MP_exp2,2020.2.5,Win32,60,,m,1,,,,,,,,0.700875,1,,,,,,172,WORD,"ID",16,patrol,PATROL,m,0.700875,,,,,,0.066467289,-0.479062841,0,0,0,,0,245,245,111,1
,,,,,,,,,,,,,,,,,,5cb36149a9827c0001e7ec46,2020-11-25_16h38.04.308,lexical_decision_task_MP_exp2,2020.2.5,Win32,60,,z,1,,,,,,,,0.716255,1,,,,,,407,NW,"ID",16,suiver,SUIVER,z,0.716255,,,,,,0.066467289,-0.479062841,0,0,0,,0,246,246,346,1
,,,,,,,,,,,,,,,,,,5cb36149a9827c0001e7ec46,2020-11-25_16h38.04.308,lexical_decision_task_MP_exp2,2020.2.5,Win32,60,,z,1,,,,,,,,1.44239,1,,,,,,383,NW,"ID",16,aungre,AUNGRE,z,1.44239,,,,,,0.066467289,-0.479062841,0,0,0,,0,247,247,322,1
,,,,,,,,,,,,,,,,,,5cb36149a9827c0001e7ec46,2020-11-25_16h38.04.308,lexical_decision_task_MP_exp2,2020.2.5,Win32,60,,m,1,,,,,,,,0.60143,1,,,,,,98,WORD,"ID",33,belong,BELONG,m,0.60143,,,,,,0.066467289,-0.479062841,0,0,0,,0,248,248,37,1
,,,,,,,,,,,,,,,,,,5cb36149a9827c0001e7ec46,2020-11-25_16h38.04.308,lexical_decision_task_MP_exp2,2020.2.5,Win32,60,,m,1,,,,,,,,0.61627,1,,,,,,78,WORD,"ID",33,column,COLUMN,m,0.61627,,,,,,0.066467289,-0.479062841,0,0,0,,0,249,249,17,1
,,,,,,,,,,,,,,,,,,5cb36149a9827c0001e7ec46,2020-11-25_16h38.04.308,lexical_decision_task_MP_exp2,2020.2.5,Win32,60,,z,1,,,,,,,,0.71815,1,,,,,,417,NW,"ID",16,earoud,EAROUD,z,0.71815,,,,,,0.066467289,-0.479062841,0,0,0,,0,250,250,356,1
,,,,,,,,,,,,,,,,,,5cb36149a9827c0001e7ec46,2020-11-25_16h38.04.308,lexical_decision_task_MP_exp2,2020.2.5,Win32,60,,z,1,,,,,,,,0.569995,1,,,,,,334,NW,"ID",33,watmeg,WATMEG,z,0.569995,,,,,,0.066467289,-0.479062841,0,0,0,,0,251,251,273,1
,,,,,,,,,,,,,,,,,,5cb36149a9827c0001e7ec46,2020-11-25_16h38.04.308,lexical_decision_task_MP_exp2,2020.2.5,Win32,60,,m,1,,,,,,,,0.700935,1,,,,,,236,WORD,UN,33,grumpy,PIRATE,m,0.700935,,,,,,0.066467289,-0.479062841,0,0,0,,0,252,252,175,1
,,,,,,,,,,,,,,,,,,5cb36149a9827c0001e7ec46,2020-11-25_16h38.04.308,lexical_decision_task_MP_exp2,2020.2.5,Win32,60,,z,1,,,,,,,,0.672285,1,,,,,,244,NW,UN,16,anougs,EATRIC,z,0.672285,,,,,,0.066467289,-0.479062841,0,0,0,,0,253,253,423,1
,,,,,,,,,,,,,,,,,,5cb36149a9827c0001e7ec46,2020-11-25_16h38.04.308,lexical_decision_task_MP_exp2,2020.2.5,Win32,60,,m,1,,,,,,,,0.696315,1,,,,,,47,WORD,UN,16,walnut,INCOME,m,0.696315,,,,,,0.066467289,-0.479062841,0,0,0,,0,254,254,226,1
,,,,,,,,,,,,,,,,,,5cb36149a9827c0001e7ec46,2020-11-25_16h38.04.308,lexical_decision_task_MP_exp2,2020.2.5,Win32,60,,z,1,,,,,,,,0.667435,1,,,,,,363,NW,"ID",16,breali,BREALI,z,0.667435,,,,,,0.066467289,-0.479062841,0,0,0,,0,255,255,302,1
,,,,,,,,,,,,,,,,,,5cb36149a9827c0001e7ec46,2020-11-25_16h38.04.308,lexical_decision_task_MP_exp2,2020.2.5,Win32,60,,m,1,,,,,,,,0.609565,1,,,,,,97,WORD,"ID",33,client,CLIENT,m,0.609565,,,,,,0.066467289,-0.479062841,0,0,0,,0,256,256,36,1
,,,,,,,,,,,,,,,,,,5cb36149a9827c0001e7ec46,2020-11-25_16h38.04.308,lexical_decision_task_MP_exp2,2020.2.5,Win32,60,,m,1,,,,,,,,0.646365,1,,,,,,163,WORD,"ID",16,string,STRING,m,0.646365,,,,,,0.066467289,-0.479062841,0,0,0,,0,257,257,102,1
,,,,,,,,,,,,,,,,,,5cb36149a9827c0001e7ec46,2020-11-25_16h38.04.308,lexical_decision_task_MP_exp2,2020.2.5,Win32,60,,z,1,,,,,,,,0.64891,1,,,,,,294,NW,UN,16,gleath,INHORT,z,0.64891,,,,,,0.066467289,-0.479062841,0,0,0,,0,258,258,473,1
,,,,,,,,,,,,,,,,,,5cb36149a9827c0001e7ec46,2020-11-25_16h38.04.308,lexical_decision_task_MP_exp2,2020.2.5,Win32,60,,m,1,,,,,,,,0.54959,1,,,,,,133,WORD,"ID",16,chrome,CHROME,m,0.54959,,,,,,0.066467289,-0.479062841,0,0,0,,0,259,259,72,1
,,,,,,,,,,,,,,,,,,5cb36149a9827c0001e7ec46,2020-11-25_16h38.04.308,lexical_decision_task_MP_exp2,2020.2.5,Win32,60,,z,1,,,,,,,,1.6157,1,,,,,,345,NW,"ID",33,absend,ABSEND,z,1.6157,,,,,,0.066467289,-0.479062841,0,0,0,,0,260,260,284,1
,,,,,,,,,,,,,,,,,,5cb36149a9827c0001e7ec46,2020-11-25_16h38.04.308,lexical_decision_task_MP_exp2,2020.2.5,Win32,60,,z,1,,,,,,,,0.84178,1,,,,,,329,NW,"ID",33,yarike,YARIKE,z,0.84178,,,,,,0.066467289,-0.479062841,0,0,0,,0,261,261,268,1
,,,,,,,,,,,,,,,,,,5cb36149a9827c0001e7ec46,2020-11-25_16h38.04.308,lexical_decision_task_MP_exp2,2020.2.5,Win32,60,,z,1,,,,,,,,0.648925,1,,,,,,448,NW,UN,33,brunge,SADENT,z,0.648925,,,,,,0.066467289,-0.479062841,0,0,0,,0,262,262,387,1
,,,,,,,,,,,,,,,,,,5cb36149a9827c0001e7ec46,2020-11-25_16h38.04.308,lexical_decision_task_MP_exp2,2020.2.5,Win32,60,,z,1,,,,,,,,1.36524,1,,,,,,468,NW,UN,33,padifs,WICTOR,z,1.36524,,,,,,0.066467289,-0.479062841,0,0,0,,0,263,263,407,1
,,,,,,,,,,,,,,,,,,5cb36149a9827c0001e7ec46,2020-11-25_16h38.04.308,lexical_decision_task_MP_exp2,2020.2.5,Win32,60,,z,1,,,,,,,,0.732895,1,,,,,,458,NW,UN,33,hocite,BARCET,z,0.732895,,,,,,0.066467289,-0.479062841,0,0,0,,0,264,264,397,1
,,,,,,,,,,,,,,,,,,5cb36149a9827c0001e7ec46,2020-11-25_16h38.04.308,lexical_decision_task_MP_exp2,2020.2.5,Win32,60,,z,1,,,,,,,,1.099765,1,,,,,,247,NW,UN,16,strole,BLARGE,z,1.099765,,,,,,0.066467289,-0.479062841,0,0,0,,0,265,265,426,1
,,,,,,,,,,,,,,,,,,5cb36149a9827c0001e7ec46,2020-11-25_16h38.04.308,lexical_decision_task_MP_exp2,2020.2.5,Win32,60,,z,1,,,,,,,,0.76672,1,,,,,,257,NW,UN,16,poluth,VENIOD,z,0.76672,,,,,,0.066467289,-0.479062841,0,0,0,,0,266,266,436,1
,,,,,,,,,,,,,,,,,,5cb36149a9827c0001e7ec46,2020-11-25_16h38.04.308,lexical_decision_task_MP_exp2,2020.2.5,Win32,60,,m,1,,,,,,,,0.793985,1,,,,,,234,WORD,UN,33,poster,CLUMSY,m,0.793985,,,,,,0.066467289,-0.479062841,0,0,0,,0,267,267,173,1
,,,,,,,,,,,,,,,,,,5cb36149a9827c0001e7ec46,2020-11-25_16h38.04.308,lexical_decision_task_MP_exp2,2020.2.5,Win32,60,,z,1,,,,,,,,0.57512,1,,,,,,403,NW,"ID",16,bruats,BRUATS,z,0.57512,,,,,,0.066467289,-0.479062841,0,0,0,,0,268,268,342,1
,,,,,,,,,,,,,,,,,,5cb36149a9827c0001e7ec46,2020-11-25_16h38.04.308,lexical_decision_task_MP_exp2,2020.2.5,Win32,60,,m,1,,,,,,,,0.56677,1,,,,,,18,WORD,UN,16,patron,HUMBLE,m,0.56677,,,,,,0.066467289,-0.479062841,0,0,0,,0,269,269,197,1
,,,,,,,,,,,,,,,,,,5cb36149a9827c0001e7ec46,2020-11-25_16h38.04.308,lexical_decision_task_MP_exp2,2020.2.5,Win32,60,,m,1,,,,,,,,0.985695,1,,,,,,105,WORD,"ID",33,number,NUMBER,m,0.985695,,,,,,0.066467289,-0.479062841,0,0,0,,0,270,270,44,1
,,,,,,,,,,,,,,,,,,5cb36149a9827c0001e7ec46,2020-11-25_16h38.04.308,lexical_decision_task_MP_exp2,2020.2.5,Win32,60,,m,1,,,,,,,,0.803525,1,,,,,,220,WORD,UN,33,mascot,VOYAGE,m,0.803525,,,,,,0.066467289,-0.479062841,0,0,0,,0,271,271,159,1
,,,,,,,,,,,,,,,,,,5cb36149a9827c0001e7ec46,2020-11-25_16h38.04.308,lexical_decision_task_MP_exp2,2020.2.5,Win32,60,,z,1,,,,,,,,0.7054,1,,,,,,274,NW,UN,16,sleirt,FUMBLO,z,0.7054,,,,,,0.066467289,-0.479062841,0,0,0,,0,272,272,453,1
,,,,,,,,,,,,,,,,,,5cb36149a9827c0001e7ec46,2020-11-25_16h38.04.308,lexical_decision_task_MP_exp2,2020.2.5,Win32,60,,z,1,,,,,,,,0.789455,1,,,,,,256,NW,UN,16,veniod,INLORS,z,0.789455,,,,,,0.066467289,-0.479062841,0,0,0,,0,273,273,435,1
,,,,,,,,,,,,,,,,,,5cb36149a9827c0001e7ec46,2020-11-25_16h38.04.308,lexical_decision_task_MP_exp2,2020.2.5,Win32,60,,m,0,,,,,,,,0.83244,0,,,,,,319,NW,"ID",33,zomber,ZOMBER,z,0.83244,,,,,,0.066467289,-0.479062841,0,0,0,,0,274,274,258,1
,,,,,,,,,,,,,,,,,,5cb36149a9827c0001e7ec46,2020-11-25_16h38.04.308,lexical_decision_task_MP_exp2,2020.2.5,Win32,60,,m,1,,,,,,,,0.70079,1,,,,,,210,WORD,UN,33,infect,MONKEY,m,0.70079,,,,,,0.066467289,-0.479062841,0,0,0,,0,275,275,149,1
,,,,,,,,,,,,,,,,,,5cb36149a9827c0001e7ec46,2020-11-25_16h38.04.308,lexical_decision_task_MP_exp2,2020.2.5,Win32,60,,z,1,,,,,,,,1.300375,1,,,,,,369,NW,"ID",16,wronch,WRONCH,z,1.300375,,,,,,0.066467289,-0.479062841,0,0,0,,0,276,276,308,1
,,,,,,,,,,,,,,,,,,5cb36149a9827c0001e7ec46,2020-11-25_16h38.04.308,lexical_decision_task_MP_exp2,2020.2.5,Win32,60,,m,1,,,,,,,,0.68276,1,,,,,,204,WORD,UN,33,lounge,BURDEN,m,0.68276,,,,,,0.066467289,-0.479062841,0,0,0,,0,277,277,143,1
,,,,,,,,,,,,,,,,,,5cb36149a9827c0001e7ec46,2020-11-25_16h38.04.308,lexical_decision_task_MP_exp2,2020.2.5,Win32,60,,m,1,,,,,,,,0.582245,1,,,,,,149,WORD,"ID",16,invade,INVADE,m,0.582245,,,,,,0.066467289,-0.479062841,0,0,0,,0,278,278,88,1
,,,,,,,,,,,,,,,,,,5cb36149a9827c0001e7ec46,2020-11-25_16h38.04.308,lexical_decision_task_MP_exp2,2020.2.5,Win32,60,,z,1,,,,,,,,0.74234,1,,,,,,347,NW,"ID",33,kerift,KERIFT,z,0.74234,,,,,,0.066467289,-0.479062841,0,0,0,,0,279,279,286,1
,,,,,,,,,,,,,,,,,,5cb36149a9827c0001e7ec46,2020-11-25_16h38.04.308,lexical_decision_task_MP_exp2,2020.2.5,Win32,60,,m,1,,,,,,,,0.95955,1,,,,,,221,WORD,UN,33,hinder,MASCOT,m,0.95955,,,,,,0.066467289,-0.479062841,0,0,0,,0,280,280,160,1
,,,,,,,,,,,,,,,,,,5cb36149a9827c0001e7ec46,2020-11-25_16h38.04.308,lexical_decision_task_MP_exp2,2020.2.5,Win32,60,,m,1,,,,,,,,0.7332,1,,,,,,213,WORD,UN,33,intake,SQUEAL,m,0.7332,,,,,,0.066467289,-0.479062841,0,0,0,,0,281,281,152,1
,,,,,,,,,,,,,,,,,,5cb36149a9827c0001e7ec46,2020-11-25_16h38.04.308,lexical_decision_task_MP_exp2,2020.2.5,Win32,60,,z,1,,,,,,,,0.712225,1,,,,,,375,NW,"ID",16,yorque,YORQUE,z,0.712225,,,,,,0.066467289,-0.479062841,0,0,0,,0,282,282,314,1
,,,,,,,,,,,,,,,,,,5cb36149a9827c0001e7ec46,2020-11-25_16h38.04.308,lexical_decision_task_MP_exp2,2020.2.5,Win32,60,,z,1,,,,,,,,1.116255,1,,,,,,353,NW,"ID",33,clurey,CLUREY,z,1.116255,,,,,,0.066467289,-0.479062841,0,0,0,,0,283,283,292,1
,,,,,,,,,,,,,,,,,,5cb36149a9827c0001e7ec46,2020-11-25_16h38.04.308,lexical_decision_task_MP_exp2,2020.2.5,Win32,60,,m,1,,,,,,,,0.936635,1,,,,,,142,WORD,"ID",16,spruce,SPRUCE,m,0.936635,,,,,,0.066467289,-0.479062841,0,0,0,,0,284,284,81,1
,,,,,,,,,,,,,,,,,,5cb36149a9827c0001e7ec46,2020-11-25_16h38.04.308,lexical_decision_task_MP_exp2,2020.2.5,Win32,60,,z,1,,,,,,,,0.714195,1,,,,,,365,NW,"ID",16,guairt,GUAIRT,z,0.714195,,,,,,0.066467289,-0.479062841,0,0,0,,0,285,285,304,1
,,,,,,,,,,,,,,,,,,5cb36149a9827c0001e7ec46,2020-11-25_16h38.04.308,lexical_decision_task_MP_exp2,2020.2.5,Win32,60,,m,1,,,,,,,,0.531295,1,,,,,,43,WORD,UN,16,foster,TONGUE,m,0.531295,,,,,,0.066467289,-0.479062841,0,0,0,,0,286,286,222,1
,,,,,,,,,,,,,,,,,,5cb36149a9827c0001e7ec46,2020-11-25_16h38.04.308,lexical_decision_task_MP_exp2,2020.2.5,Win32,60,,m,1,,,,,,,,0.50079,1,,,,,,112,WORD,"ID",33,breath,BREATH,m,0.50079,,,,,,0.066467289,-0.479062841,0,0,0,,0,287,287,51,1
,,,,,,,,,,,,,,,,,,5cb36149a9827c0001e7ec46,2020-11-25_16h38.04.308,lexical_decision_task_MP_exp2,2020.2.5,Win32,60,,m,1,,,,,,,,0.59185,1,,,,,,194,WORD,UN,33,resign,ABSENT,m,0.59185,,,,,,0.066467289,-0.479062841,0,0,0,,0,288,288,133,1
,,,,,,,,,,,,,,,,,,5cb36149a9827c0001e7ec46,2020-11-25_16h38.04.308,lexical_decision_task_MP_exp2,2020.2.5,Win32,60,,m,1,,,,,,,,1.08357,1,,,,,,206,WORD,UN,33,wreath,TAILOR,m,1.08357,,,,,,0.066467289,-0.479062841,0,0,0,,0,289,289,145,1
,,,,,,,,,,,,,,,,,,5cb36149a9827c0001e7ec46,2020-11-25_16h38.04.308,lexical_decision_task_MP_exp2,2020.2.5,Win32,60,,m,1,,,,,,,,0.58482,1,,,,,,54,WORD,UN,16,stroke,RAMBLE,m,0.58482,,,,,,0.066467289,-0.479062841,0,0,0,,0,290,290,233,1
,,,,,,,,,,,,,,,,,,5cb36149a9827c0001e7ec46,2020-11-25_16h38.04.308,lexical_decision_task_MP_exp2,2020.2.5,Win32,60,,z,1,,,,,,,,1.174645,1,,,,,,477,NW,UN,33,lobush,PHOTIE,z,1.174645,,,,,,0.066467289,-0.479062841,0,0,0,,0,291,291,416,1
,,,,,,,,,,,,,,,,,,5cb36149a9827c0001e7ec46,2020-11-25_16h38.04.308,lexical_decision_task_MP_exp2,2020.2.5,Win32,60,,z,1,,,,,,,,0.838955,1,,,,,,246,NW,UN,16,blarge,PIATON,z,0.838955,,,,,,0.066467289,-0.479062841,0,0,0,,0,292,292,425,1
,,,,,,,,,,,,,,,,,,5cb36149a9827c0001e7ec46,2020-11-25_16h38.04.308,lexical_decision_task_MP_exp2,2020.2.5,Win32,60,,z,1,,,,,,,,0.858395,1,,,,,,349,NW,"ID",33,asylen,ASYLEN,z,0.858395,,,,,,0.066467289,-0.479062841,0,0,0,,0,293,293,288,1
,,,,,,,,,,,,,,,,,,5cb36149a9827c0001e7ec46,2020-11-25_16h38.04.308,lexical_decision_task_MP_exp2,2020.2.5,Win32,60,,z,1,,,,,,,,0.718185,1,,,,,,283,NW,UN,16,shaple,VERALF,z,0.718185,,,,,,0.066467289,-0.479062841,0,0,0,,0,294,294,462,1
,,,,,,,,,,,,,,,,,,5cb36149a9827c0001e7ec46,2020-11-25_16h38.04.308,lexical_decision_task_MP_exp2,2020.2.5,Win32,60,,m,1,,,,,,,,0.693225,1,,,,,,118,WORD,"ID",33,flight,FLIGHT,m,0.693225,,,,,,0.066467289,-0.479062841,0,0,0,,0,295,295,57,1
,,,,,,,,,,,,,,,,,,5cb36149a9827c0001e7ec46,2020-11-25_16h38.04.308,lexical_decision_task_MP_exp2,2020.2.5,Win32,60,,m,1,,,,,,,,0.620625,1,,,,,,101,WORD,"ID",33,wrench,WRENCH,m,0.620625,,,,,,0.066467289,-0.479062841,0,0,0,,0,296,296,40,1
,,,,,,,,,,,,,,,,,,5cb36149a9827c0001e7ec46,2020-11-25_16h38.04.308,lexical_decision_task_MP_exp2,2020.2.5,Win32,60,,m,1,,,,,,,,0.734355,1,,,,,,195,WORD,UN,33,credit,RESIGN,m,0.734355,,,,,,0.066467289,-0.479062841,0,0,0,,0,297,297,134,1
,,,,,,,,,,,,,,,,,,5cb36149a9827c0001e7ec46,2020-11-25_16h38.04.308,lexical_decision_task_MP_exp2,2020.2.5,Win32,60,,m,1,,,,,,,,0.697435,1,,,,,,51,WORD,UN,16,impose,HUNGRY,m,0.697435,,,,,,0.066467289,-0.479062841,0,0,0,,0,298,298,230,1
,,,,,,,,,,,,,,,,,,5cb36149a9827c0001e7ec46,2020-11-25_16h38.04.308,lexical_decision_task_MP_exp2,2020.2.5,Win32,60,,z,1,,,,,,,,0.692995,1,,,,,,408,NW,"ID",16,hurnia,HURNIA,z,0.692995,,,,,,0.066467289,-0.479062841,0,0,0,,0,299,299,347,1
,,,,,,,,,,,,,,,,,,5cb36149a9827c0001e7ec46,2020-11-25_16h38.04.308,lexical_decision_task_MP_exp2,2020.2.5,Win32,60,,m,1,,,,,,,,1.250605,1,,,,,,126,WORD,"ID",16,enough,ENOUGH,m,1.250605,,,,,,0.066467289,-0.479062841,0,0,0,,0,300,300,65,1
,,,,,,,,,,,,,,,,,,5cb36149a9827c0001e7ec46,2020-11-25_16h38.04.308,lexical_decision_task_MP_exp2,2020.2.5,Win32,60,,z,1,,,,,,,,1.193115,1,,,,,,434,NW,UN,33,impurb,PITROM,z,1.193115,,,,,,0.066467289,-0.479062841,0,0,0,,0,301,301,373,1
,,,,,,,,,,,,,,,,,,5cb36149a9827c0001e7ec46,2020-11-25_16h38.04.308,lexical_decision_task_MP_exp2,2020.2.5,Win32,60,,m,1,,,,,,,,1.05148,1,,,,,,4,WORD,UN,16,plunge,TRENCH,m,1.05148,,,,,,0.066467289,-0.479062841,0,0,0,,0,302,302,183,1
,,,,,,,,,,,,,,,,,,5cb36149a9827c0001e7ec46,2020-11-25_16h38.04.308,lexical_decision_task_MP_exp2,2020.2.5,Win32,60,,m,1,,,,,,,,0.80247,1,,,,,,106,WORD,"ID",33,ransom,RANSOM,m,0.80247,,,,,,0.066467289,-0.479062841,0,0,0,,0,303,303,45,1
,,,,,,,,,,,,,,,,,,5cb36149a9827c0001e7ec46,2020-11-25_16h38.04.308,lexical_decision_task_MP_exp2,2020.2.5,Win32,60,,m,1,,,,,,,,0.699745,1,,,,,,20,WORD,UN,16,simple,BREAST,m,0.699745,,,,,,0.066467289,-0.479062841,0,0,0,,0,304,304,199,1
,,,,,,,,,,,,,,,,,,5cb36149a9827c0001e7ec46,2020-11-25_16h38.04.308,lexical_decision_task_MP_exp2,2020.2.5,Win32,60,,z,1,,,,,,,,0.8506,1,,,,,,338,NW,"ID",33,wreash,WREASH,z,0.8506,,,,,,0.066467289,-0.479062841,0,0,0,,0,305,305,277,1
,,,,,,,,,,,,,,,,,,5cb36149a9827c0001e7ec46,2020-11-25_16h38.04.308,lexical_decision_task_MP_exp2,2020.2.5,Win32,60,,m,0,,,,,,,,0.749805,0,,,,,,271,NW,UN,16,damilt,AUBRID,z,0.749805,,,,,,0.066467289,-0.479062841,0,0,0,,0,306,306,450,1
,,,,,,,,,,,,,,,,,,5cb36149a9827c0001e7ec46,2020-11-25_16h38.04.308,lexical_decision_task_MP_exp2,2020.2.5,Win32,60,,z,1,,,,,,,,0.700535,1,,,,,,464,NW,UN,33,whivex,CHAITE,z,0.700535,,,,,,0.066467289,-0.479062841,0,0,0,,0,307,307,403,1
,,,,,,,,,,,,,,,,,,5cb36149a9827c0001e7ec46,2020-11-25_16h38.04.308,lexical_decision_task_MP_exp2,2020.2.5,Win32,60,,m,1,,,,,,,,0.6759,1,,,,,,187,WORD,UN,33,social,COURSE,m,0.6759,,,,,,0.066467289,-0.479062841,0,0,0,,0,308,308,126,1
,,,,,,,,,,,,,,,,,,5cb36149a9827c0001e7ec46,2020-11-25_16h38.04.308,lexical_decision_task_MP_exp2,2020.2.5,Win32,60,,z,1,,,,,,,,0.881955,1,,,,,,374,NW,"ID",16,sliant,SLIANT,z,0.881955,,,,,,0.066467289,-0.479062841,0,0,0,,0,309,309,313,1
,,,,,,,,,,,,,,,,,,5cb36149a9827c0001e7ec46,2020-11-25_16h38.04.308,lexical_decision_task_MP_exp2,2020.2.5,Win32,60,,m,1,,,,,,,,0.60335,1,,,,,,88,WORD,"ID",33,hunger,HUNGER,m,0.60335,,,,,,0.066467289,-0.479062841,0,0,0,,0,310,310,27,1
,,,,,,,,,,,,,,,,,,5cb36149a9827c0001e7ec46,2020-11-25_16h38.04.308,lexical_decision_task_MP_exp2,2020.2.5,Win32,60,,m,1,,,,,,,,0.9342,1,,,,,,136,WORD,"ID",16,bleach,BLEACH,m,0.9342,,,,,,0.066467289,-0.479062841,0,0,0,,0,311,311,75,1
,,,,,,,,,,,,,,,,,,5cb36149a9827c0001e7ec46,2020-11-25_16h38.04.308,lexical_decision_task_MP_exp2,2020.2.5,Win32,60,,m,1,,,,,,,,0.664605,1,,,,,,55,WORD,UN,16,ambush,STROKE,m,0.664605,,,,,,0.066467289,-0.479062841,0,0,0,,0,312,312,234,1
,,,,,,,,,,,,,,,,,,5cb36149a9827c0001e7ec46,2020-11-25_16h38.04.308,lexical_decision_task_MP_exp2,2020.2.5,Win32,60,,m,1,,,,,,,,0.73573,1,,,,,,56,WORD,UN,16,change,AMBUSH,m,0.73573,,,,,,0.066467289,-0.479062841,0,0,0,,0,313,313,235,1
,,,,,,,,,,,,,,,,,,5cb36149a9827c0001e7ec46,2020-11-25_16h38.04.308,lexical_decision_task_MP_exp2,2020.2.5,Win32,60,,m,1,,,,,,,,0.642005,1,,,,,,191,WORD,UN,33,beacon,STABLE,m,0.642005,,,,,,0.066467289,-0.479062841,0,0,0,,0,314,314,130,1
,,,,,,,,,,,,,,,,,,5cb36149a9827c0001e7ec46,2020-11-25_16h38.04.308,lexical_decision_task_MP_exp2,2020.2.5,Win32,60,,m,0,,,,,,,,0.58204,0,,,,,,275,NW,UN,16,yarmon,SLEIRT,z,0.58204,,,,,,0.066467289,-0.479062841,0,0,0,,0,315,315,454,1
,,,,,,,,,,,,,,,,,,5cb36149a9827c0001e7ec46,2020-11-25_16h38.04.308,lexical_decision_task_MP_exp2,2020.2.5,Win32,60,,z,1,,,,,,,,0.803725,1,,,,,,446,NW,UN,33,gircue,RUNAMO,z,0.803725,,,,,,0.066467289,-0.479062841,0,0,0,,0,316,316,385,1
,,,,,,,,,,,,,,,,,,5cb36149a9827c0001e7ec46,2020-11-25_16h38.04.308,lexical_decision_task_MP_exp2,2020.2.5,Win32,60,,m,1,,,,,,,,0.77501,1,,,,,,173,WORD,"ID",16,shower,SHOWER,m,0.77501,,,,,,0.066467289,-0.479062841,0,0,0,,0,317,317,112,1
,,,,,,,,,,,,,,,,,,5cb36149a9827c0001e7ec46,2020-11-25_16h38.04.308,lexical_decision_task_MP_exp2,2020.2.5,Win32,60,,m,1,,,,,,,,0.625375,1,,,,,,22,WORD,UN,16,wealth,JOCKEY,m,0.625375,,,,,,0.066467289,-0.479062841,0,0,0,,0,318,318,201,1
,,,,,,,,,,,,,,,,,,5cb36149a9827c0001e7ec46,2020-11-25_16h38.04.308,lexical_decision_task_MP_exp2,2020.2.5,Win32,60,,m,1,,,,,,,,0.61079,1,,,,,,130,WORD,"ID",16,stupid,STUPID,m,0.61079,,,,,,0.066467289,-0.479062841,0,0,0,,0,319,319,69,1
,,,,,,,,,,,,,,,,,,5cb36149a9827c0001e7ec46,2020-11-25_16h38.04.308,lexical_decision_task_MP_exp2,2020.2.5,Win32,60,,z,1,,,,,,,,0.70228,1,,,,,,420,NW,"ID",16,gushop,GUSHOP,z,0.70228,,,,,,0.066467289,-0.479062841,0,0,0,,0,320,320,359,1
,,,,,,,,,,,,,,,,,,5cb36149a9827c0001e7ec46,2020-11-25_16h38.04.308,lexical_decision_task_MP_exp2,2020.2.5,Win32,60,,m,1,,,,,,,,0.65897,1,,,,,,37,WORD,UN,16,powder,INSULT,m,0.65897,,,,,,0.066467289,-0.479062841,0,0,0,,0,321,321,216,1
,,,,,,,,,,,,,,,,,,5cb36149a9827c0001e7ec46,2020-11-25_16h38.04.308,lexical_decision_task_MP_exp2,2020.2.5,Win32,60,,z,1,,,,,,,,0.5854,1,,,,,,438,NW,UN,33,limpor,BAITCH,z,0.5854,,,,,,0.066467289,-0.479062841,0,0,0,,0,322,322,377,1
,,,,,,,,,,,,,,,,,,5cb36149a9827c0001e7ec46,2020-11-25_16h38.04.308,lexical_decision_task_MP_exp2,2020.2.5,Win32,60,,z,1,,,,,,,,0.759715,1,,,,,,452,NW,UN,33,bolvis,SURDEN,z,0.759715,,,,,,0.066467289,-0.479062841,0,0,0,,0,323,323,391,1
,,,,,,,,,,,,,,,,,,5cb36149a9827c0001e7ec46,2020-11-25_16h38.04.308,lexical_decision_task_MP_exp2,2020.2.5,Win32,60,,m,1,,,,,,,,0.668385,1,,,,,,31,WORD,UN,16,buckle,WEAPON,m,0.668385,,,,,,0.066467289,-0.479062841,0,0,0,,0,324,324,210,1
,,,,,,,,,,,,,,,,,,5cb36149a9827c0001e7ec46,2020-11-25_16h38.04.308,lexical_decision_task_MP_exp2,2020.2.5,Win32,60,,m,1,,,,,,,,0.626945,1,,,,,,188,WORD,UN,33,censor,SOCIAL,m,0.626945,,,,,,0.066467289,-0.479062841,0,0,0,,0,325,325,127,1
,,,,,,,,,,,,,,,,,,5cb36149a9827c0001e7ec46,2020-11-25_16h38.04.308,lexical_decision_task_MP_exp2,2020.2.5,Win32,60,,m,1,,,,,,,,0.683585,1,,,,,,93,WORD,"ID",33,public,PUBLIC,m,0.683585,,,,,,0.066467289,-0.479062841,0,0,0,,0,326,326,32,1
,,,,,,,,,,,,,,,,,,5cb36149a9827c0001e7ec46,2020-11-25_16h38.04.308,lexical_decision_task_MP_exp2,2020.2.5,Win32,60,,z,1,,,,,,,,0.60213,1,,,,,,300,NW,UN,16,smenco,YARION,z,0.60213,,,,,,0.066467289,-0.479062841,0,0,0,,0,327,327,479,1
,,,,,,,,,,,,,,,,,,5cb36149a9827c0001e7ec46,2020-11-25_16h38.04.308,lexical_decision_task_MP_exp2,2020.2.5,Win32,60,,z,1,,,,,,,,0.64174,1,,,,,,436,NW,UN,33,snapel,FRUTAN,z,0.64174,,,,,,0.066467289,-0.479062841,0,0,0,,0,328,328,375,1
,,,,,,,,,,,,,,,,,,5cb36149a9827c0001e7ec46,2020-11-25_16h38.04.308,lexical_decision_task_MP_exp2,2020.2.5,Win32,60,,m,1,,,,,,,,0.748845,1,,,,,,175,WORD,"ID",16,fabric,FABRIC,m,0.748845,,,,,,0.066467289,-0.479062841,0,0,0,,0,329,329,114,1
,,,,,,,,,,,,,,,,,,5cb36149a9827c0001e7ec46,2020-11-25_16h38.04.308,lexical_decision_task_MP_exp2,2020.2.5,Win32,60,,z,1,,,,,,,,0.533225,1,,,,,,457,NW,UN,33,barcet,WANIGH,z,0.533225,,,,,,0.066467289,-0.479062841,0,0,0,,0,330,330,396,1
,,,,,,,,,,,,,,,,,,5cb36149a9827c0001e7ec46,2020-11-25_16h38.04.308,lexical_decision_task_MP_exp2,2020.2.5,Win32,60,,m,1,,,,,,,,0.532015,1,,,,,,138,WORD,"ID",16,melody,MELODY,m,0.532015,,,,,,0.066467289,-0.479062841,0,0,0,,0,331,331,77,1
,,,,,,,,,,,,,,,,,,5cb36149a9827c0001e7ec46,2020-11-25_16h38.04.308,lexical_decision_task_MP_exp2,2020.2.5,Win32,60,,z,1,,,,,,,,0.593805,1,,,,,,278,NW,UN,16,celond,UNIGHS,z,0.593805,,,,,,0.066467289,-0.479062841,0,0,0,,0,332,332,457,1
,,,,,,,,,,,,,,,,,,5cb36149a9827c0001e7ec46,2020-11-25_16h38.04.308,lexical_decision_task_MP_exp2,2020.2.5,Win32,60,,m,1,,,,,,,,0.602085,1,,,,,,200,WORD,UN,33,admire,BEACON,m,0.602085,,,,,,0.066467289,-0.479062841,0,0,0,,0,333,333,139,1
,,,,,,,,,,,,,,,,,,5cb36149a9827c0001e7ec46,2020-11-25_16h38.04.308,lexical_decision_task_MP_exp2,2020.2.5,Win32,60,,z,1,,,,,,,,0.891115,1,,,,,,433,NW,UN,33,pitrom,DRANCE,z,0.891115,,,,,,0.066467289,-0.479062841,0,0,0,,0,334,334,372,1
,,,,,,,,,,,,,,,,,,5cb36149a9827c0001e7ec46,2020-11-25_16h38.04.308,lexical_decision_task_MP_exp2,2020.2.5,Win32,60,,z,1,,,,,,,,0.652165,1,,,,,,295,NW,UN,16,beinch,GLEATH,z,0.652165,,,,,,0.066467289,-0.479062841,0,0,0,,0,335,335,474,1
,,,,,,,,,,,,,,,,,,5cb36149a9827c0001e7ec46,2020-11-25_16h38.04.308,lexical_decision_task_MP_exp2,2020.2.5,Win32,60,,z,0,,,,,,,,0.550365,0,,,,,,16,WORD,UN,16,charge,FAUCET,m,0.550365,,,,,,0.066467289,-0.479062841,0,0,0,,0,336,336,195,1
,,,,,,,,,,,,,,,,,,5cb36149a9827c0001e7ec46,2020-11-25_16h38.04.308,lexical_decision_task_MP_exp2,2020.2.5,Win32,60,,z,1,,,,,,,,1.518785,1,,,,,,250,NW,UN,16,lupict,MILTED,z,1.518785,,,,,,0.066467289,-0.479062841,0,0,0,,0,337,337,429,1
,,,,,,,,,,,,,,,,,,5cb36149a9827c0001e7ec46,2020-11-25_16h38.04.308,lexical_decision_task_MP_exp2,2020.2.5,Win32,60,,z,1,,,,,,,,0.775585,1,,,,,,431,NW,UN,33,lunker,CHRUMS,z,0.775585,,,,,,0.066467289,-0.479062841,0,0,0,,0,338,338,370,1
,,,,,,,,,,,,,,,,,,5cb36149a9827c0001e7ec46,2020-11-25_16h38.04.308,lexical_decision_task_MP_exp2,2020.2.5,Win32,60,,z,1,,,,,,,,1.019275,1,,,,,,419,NW,"ID",16,slount,SLOUNT,z,1.019275,,,,,,0.066467289,-0.479062841,0,0,0,,0,339,339,358,1
,,,,,,,,,,,,,,,,,,5cb36149a9827c0001e7ec46,2020-11-25_16h38.04.308,lexical_decision_task_MP_exp2,2020.2.5,Win32,60,,m,1,,,,,,,,0.614855,1,,,,,,148,WORD,"ID",16,custom,CUSTOM,m,0.614855,,,,,,0.066467289,-0.479062841,0,0,0,,0,340,340,87,1
,,,,,,,,,,,,,,,,,,5cb36149a9827c0001e7ec46,2020-11-25_16h38.04.308,lexical_decision_task_MP_exp2,2020.2.5,Win32,60,,z,1,,,,,,,,0.887325,1,,,,,,266,NW,UN,16,pasink,VARMIT,z,0.887325,,,,,,0.066467289,-0.479062841,0,0,0,,0,341,341,445,1
,,,,,,,,,,,,,,,,,,5cb36149a9827c0001e7ec46,2020-11-25_16h38.04.308,lexical_decision_task_MP_exp2,2020.2.5,Win32,60,,m,1,,,,,,,,0.633015,1,,,,,,66,WORD,"ID",33,gospel,GOSPEL,m,0.633015,,,,,,0.066467289,-0.479062841,0,0,0,,0,342,342,5,1
,,,,,,,,,,,,,,,,,,5cb36149a9827c0001e7ec46,2020-11-25_16h38.04.308,lexical_decision_task_MP_exp2,2020.2.5,Win32,60,,m,1,,,,,,,,0.64879,1,,,,,,201,WORD,UN,33,factor,ADMIRE,m,0.64879,,,,,,0.066467289,-0.479062841,0,0,0,,0,343,343,140,1
,,,,,,,,,,,,,,,,,,5cb36149a9827c0001e7ec46,2020-11-25_16h38.04.308,lexical_decision_task_MP_exp2,2020.2.5,Win32,60,,z,1,,,,,,,,0.693285,1,,,,,,389,NW,"ID",16,witmer,WITMER,z,0.693285,,,,,,0.066467289,-0.479062841,0,0,0,,0,344,344,328,1
,,,,,,,,,,,,,,,,,,5cb36149a9827c0001e7ec46,2020-11-25_16h38.04.308,lexical_decision_task_MP_exp2,2020.2.5,Win32,60,,z,1,,,,,,,,0.79412,1,,,,,,279,NW,UN,16,curbol,CELOND,z,0.79412,,,,,,0.066467289,-0.479062841,0,0,0,,0,345,345,458,1
,,,,,,,,,,,,,,,,,,5cb36149a9827c0001e7ec46,2020-11-25_16h38.04.308,lexical_decision_task_MP_exp2,2020.2.5,Win32,60,,m,1,,,,,,,,0.618035,1,,,,,,87,WORD,"ID",33,filter,FILTER,m,0.618035,,,,,,0.066467289,-0.479062841,0,0,0,,0,346,346,26,1
,,,,,,,,,,,,,,,,,,5cb36149a9827c0001e7ec46,2020-11-25_16h38.04.308,lexical_decision_task_MP_exp2,2020.2.5,Win32,60,,z,1,,,,,,,,1.48174,1,,,,,,352,NW,"ID",33,tringe,TRINGE,z,1.48174,,,,,,0.066467289,-0.479062841,0,0,0,,0,347,347,291,1
,,,,,,,,,,,,,,,,,,5cb36149a9827c0001e7ec46,2020-11-25_16h38.04.308,lexical_decision_task_MP_exp2,2020.2.5,Win32,60,,m,1,,,,,,,,0.669815,1,,,,,,99,WORD,"ID",33,fluent,FLUENT,m,0.669815,,,,,,0.066467289,-0.479062841,0,0,0,,0,348,348,38,1
,,,,,,,,,,,,,,,,,,5cb36149a9827c0001e7ec46,2020-11-25_16h38.04.308,lexical_decision_task_MP_exp2,2020.2.5,Win32,60,,z,1,,,,,,,,0.685305,1,,,,,,470,NW,UN,33,nobest,CRUDIO,z,0.685305,,,,,,0.066467289,-0.479062841,0,0,0,,0,349,349,409,1
,,,,,,,,,,,,,,,,,,5cb36149a9827c0001e7ec46,2020-11-25_16h38.04.308,lexical_decision_task_MP_exp2,2020.2.5,Win32,60,,z,1,,,,,,,,0.7004,1,,,,,,416,NW,"ID",16,pathel,PATHEL,z,0.7004,,,,,,0.066467289,-0.479062841,0,0,0,,0,350,350,355,1
,,,,,,,,,,,,,,,,,,5cb36149a9827c0001e7ec46,2020-11-25_16h38.04.308,lexical_decision_task_MP_exp2,2020.2.5,Win32,60,,z,1,,,,,,,,0.65685,1,,,,,,316,NW,"ID",33,scregm,SCREGM,z,0.65685,,,,,,0.066467289,-0.479062841,0,0,0,,0,351,351,255,1
,,,,,,,,,,,,,,,,,,5cb36149a9827c0001e7ec46,2020-11-25_16h38.04.308,lexical_decision_task_MP_exp2,2020.2.5,Win32,60,,z,1,,,,,,,,0.66274,1,,,,,,370,NW,"ID",16,sleact,SLEACT,z,0.66274,,,,,,0.066467289,-0.479062841,0,0,0,,0,352,352,309,1
,,,,,,,,,,,,,,,,,,5cb36149a9827c0001e7ec46,2020-11-25_16h38.04.308,lexical_decision_task_MP_exp2,2020.2.5,Win32,60,,m,1,,,,,,,,0.593835,1,,,,,,223,WORD,UN,33,period,KIDNEY,m,0.593835,,,,,,0.066467289,-0.479062841,0,0,0,,0,353,353,162,1
,,,,,,,,,,,,,,,,,,5cb36149a9827c0001e7ec46,2020-11-25_16h38.04.308,lexical_decision_task_MP_exp2,2020.2.5,Win32,60,,z,1,,,,,,,,0.821075,1,,,,,,313,NW,"ID",33,paurse,PAURSE,z,0.821075,,,,,,0.066467289,-0.479062841,0,0,0,,0,354,354,252,1
,,,,,,,,,,,,,,,,,,5cb36149a9827c0001e7ec46,2020-11-25_16h38.04.308,lexical_decision_task_MP_exp2,2020.2.5,Win32,60,,m,1,,,,,,,,0.684495,1,,,,,,62,WORD,"ID",33,region,REGION,m,0.684495,,,,,,0.066467289,-0.479062841,0,0,0,,0,355,355,1,1
,,,,,,,,,,,,,,,,,,5cb36149a9827c0001e7ec46,2020-11-25_16h38.04.308,lexical_decision_task_MP_exp2,2020.2.5,Win32,60,,z,1,,,,,,,,0.65016,1,,,,,,459,NW,UN,33,mingar,BAFENT,z,0.65016,,,,,,0.066467289,-0.479062841,0,0,0,,0,356,356,398,1
,,,,,,,,,,,,,,,,,,5cb36149a9827c0001e7ec46,2020-11-25_16h38.04.308,lexical_decision_task_MP_exp2,2020.2.5,Win32,60,,z,1,,,,,,,,0.690975,1,,,,,,404,NW,"ID",16,cluirm,CLUIRM,z,0.690975,,,,,,0.066467289,-0.479062841,0,0,0,,0,357,357,343,1
,,,,,,,,,,,,,,,,,,5cb36149a9827c0001e7ec46,2020-11-25_16h38.04.308,lexical_decision_task_MP_exp2,2020.2.5,Win32,60,,m,1,,,,,,,,0.751905,1,,,,,,73,WORD,"ID",33,source,SOURCE,m,0.751905,,,,,,0.066467289,-0.479062841,0,0,0,,0,358,358,12,1
,,,,,,,,,,,,,,,,,,5cb36149a9827c0001e7ec46,2020-11-25_16h38.04.308,lexical_decision_task_MP_exp2,2020.2.5,Win32,60,,z,1,,,,,,,,0.901625,1,,,,,,409,NW,"ID",16,elopia,ELOPIA,z,0.901625,,,,,,0.066467289,-0.479062841,0,0,0,,0,359,359,348,1
,,,,,,,,,,,,,,,,,,5cb36149a9827c0001e7ec46,2020-11-25_16h38.04.308,lexical_decision_task_MP_exp2,2020.2.5,Win32,60,,z,1,,,,,,,,0.964755,1,,,,,,398,NW,"ID",16,blunde,BLUNDE,z,0.964755,,,,,,0.066467289,-0.479062841,0,0,0,,0,360,360,337,1
,,,,,,,,,,,,,,,,,,5cb36149a9827c0001e7ec46,2020-11-25_16h38.04.308,lexical_decision_task_MP_exp2,2020.2.5,Win32,60,,z,1,,,,,,,,0.69266,1,,,,,,415,NW,"ID",16,higsta,HIGSTA,z,0.69266,,,,,,0.066467289,-0.479062841,0,0,0,,0,361,361,354,1
,,,,,,,,,,,,,,,,,,5cb36149a9827c0001e7ec46,2020-11-25_16h38.04.308,lexical_decision_task_MP_exp2,2020.2.5,Win32,60,,m,1,,,,,,,,0.617985,1,,,,,,202,WORD,UN,33,phrase,FACTOR,m,0.617985,,,,,,0.066467289,-0.479062841,0,0,0,,0,362,362,141,1
,,,,,,,,,,,,,,,,,,5cb36149a9827c0001e7ec46,2020-11-25_16h38.04.308,lexical_decision_task_MP_exp2,2020.2.5,Win32,60,,z,1,,,,,,,,0.64293,1,,,,,,317,NW,"ID",33,worbal,WORBAL,z,0.64293,,,,,,0.066467289,-0.479062841,0,0,0,,0,363,363,256,1
,,,,,,,,,,,,,,,,,,5cb36149a9827c0001e7ec46,2020-11-25_16h38.04.308,lexical_decision_task_MP_exp2,2020.2.5,Win32,60,,m,1,,,,,,,,0.75924,1,,,,,,122,WORD,"ID",16,linger,LINGER,m,0.75924,,,,,,0.066467289,-0.479062841,0,0,0,,0,364,364,61,1
,,,,,,,,,,,,,,,,,,5cb36149a9827c0001e7ec46,2020-11-25_16h38.04.308,lexical_decision_task_MP_exp2,2020.2.5,Win32,60,,z,1,,,,,,,,0.756295,1,,,,,,314,NW,"ID",33,sprine,SPRINE,z,0.756295,,,,,,0.066467289,-0.479062841,0,0,0,,0,365,365,253,1
,,,,,,,,,,,,,,,,,,5cb36149a9827c0001e7ec46,2020-11-25_16h38.04.308,lexical_decision_task_MP_exp2,2020.2.5,Win32,60,,m,1,,,,,,,,0.69262,1,,,,,,123,WORD,"ID",16,strike,STRIKE,m,0.69262,,,,,,0.066467289,-0.479062841,0,0,0,,0,366,366,62,1
,,,,,,,,,,,,,,,,,,5cb36149a9827c0001e7ec46,2020-11-25_16h38.04.308,lexical_decision_task_MP_exp2,2020.2.5,Win32,60,,m,1,,,,,,,,0.59637,1,,,,,,64,WORD,"ID",33,throne,THRONE,m,0.59637,,,,,,0.066467289,-0.479062841,0,0,0,,0,367,367,3,1
,,,,,,,,,,,,,,,,,,5cb36149a9827c0001e7ec46,2020-11-25_16h38.04.308,lexical_decision_task_MP_exp2,2020.2.5,Win32,60,,m,1,,,,,,,,0.81659,1,,,,,,131,WORD,"ID",16,quench,QUENCH,m,0.81659,,,,,,0.066467289,-0.479062841,0,0,0,,0,368,368,70,1
,,,,,,,,,,,,,,,,,,5cb36149a9827c0001e7ec46,2020-11-25_16h38.04.308,lexical_decision_task_MP_exp2,2020.2.5,Win32,60,,m,1,,,,,,,,0.725135,1,,,,,,170,WORD,"ID",16,pounce,POUNCE,m,0.725135,,,,,,0.066467289,-0.479062841,0,0,0,,0,369,369,109,1
,,,,,,,,,,,,,,,,,,5cb36149a9827c0001e7ec46,2020-11-25_16h38.04.308,lexical_decision_task_MP_exp2,2020.2.5,Win32,60,,z,1,,,,,,,,0.7344,1,,,,,,307,NW,"ID",33,kirafe,KIRAFE,z,0.7344,,,,,,0.066467289,-0.479062841,0,0,0,,0,370,370,246,1
,,,,,,,,,,,,,,,,,,5cb36149a9827c0001e7ec46,2020-11-25_16h38.04.308,lexical_decision_task_MP_exp2,2020.2.5,Win32,60,,z,1,,,,,,,,0.882135,1,,,,,,392,NW,"ID",16,rouncy,ROUNCY,z,0.882135,,,,,,0.066467289,-0.479062841,0,0,0,,0,371,371,331,1
,,,,,,,,,,,,,,,,,,5cb36149a9827c0001e7ec46,2020-11-25_16h38.04.308,lexical_decision_task_MP_exp2,2020.2.5,Win32,60,,m,1,,,,,,,,0.567705,1,,,,,,21,WORD,UN,16,jockey,SIMPLE,m,0.567705,,,,,,0.066467289,-0.479062841,0,0,0,,0,372,372,200,1
,,,,,,,,,,,,,,,,,,5cb36149a9827c0001e7ec46,2020-11-25_16h38.04.308,lexical_decision_task_MP_exp2,2020.2.5,Win32,60,,z,1,,,,,,,,0.87812,1,,,,,,425,NW,UN,33,urivel,FRUDGE,z,0.87812,,,,,,0.066467289,-0.479062841,0,0,0,,0,373,373,364,1
,,,,,,,,,,,,,,,,,,5cb36149a9827c0001e7ec46,2020-11-25_16h38.04.308,lexical_decision_task_MP_exp2,2020.2.5,Win32,60,,z,1,,,,,,,,1.00277,1,,,,,,456,NW,UN,33,wanigh,BROGET,z,1.00277,,,,,,0.066467289,-0.479062841,0,0,0,,0,374,374,395,1
,,,,,,,,,,,,,,,,,,5cb36149a9827c0001e7ec46,2020-11-25_16h38.04.308,lexical_decision_task_MP_exp2,2020.2.5,Win32,60,,m,1,,,,,,,,0.592415,1,,,,,,190,WORD,UN,33,stable,BACKUP,m,0.592415,,,,,,0.066467289,-0.479062841,0,0,0,,0,375,375,129,1
,,,,,,,,,,,,,,,,,,5cb36149a9827c0001e7ec46,2020-11-25_16h38.04.308,lexical_decision_task_MP_exp2,2020.2.5,Win32,60,,z,1,,,,,,,,0.815135,1,,,,,,264,NW,UN,16,distar,VACKEL,z,0.815135,,,,,,0.066467289,-0.479062841,0,0,0,,0,376,376,443,1
,,,,,,,,,,,,,,,,,,5cb36149a9827c0001e7ec46,2020-11-25_16h38.04.308,lexical_decision_task_MP_exp2,2020.2.5,Win32,60,,m,1,,,,,,,,0.664435,1,,,,,,211,WORD,UN,33,verify,INFECT,m,0.664435,,,,,,0.066467289,-0.479062841,0,0,0,,0,377,377,150,1
,,,,,,,,,,,,,,,,,,5cb36149a9827c0001e7ec46,2020-11-25_16h38.04.308,lexical_decision_task_MP_exp2,2020.2.5,Win32,60,,z,1,,,,,,,,0.626395,1,,,,,,469,NW,UN,33,crudio,PADIFS,z,0.626395,,,,,,0.066467289,-0.479062841,0,0,0,,0,378,378,408,1
,,,,,,,,,,,,,,,,,,5cb36149a9827c0001e7ec46,2020-11-25_16h38.04.308,lexical_decision_task_MP_exp2,2020.2.5,Win32,60,,z,1,,,,,,,,0.802405,1,,,,,,387,NW,"ID",16,gronce,GRONCE,z,0.802405,,,,,,0.066467289,-0.479062841,0,0,0,,0,379,379,326,1
,,,,,,,,,,,,,,,,,,5cb36149a9827c0001e7ec46,2020-11-25_16h38.04.308,lexical_decision_task_MP_exp2,2020.2.5,Win32,60,,m,1,,,,,,,,0.61402,1,,,,,,180,WORD,"ID",16,silent,SILENT,m,0.61402,,,,,,0.066467289,-0.479062841,0,0,0,,0,380,380,119,1
,,,,,,,,,,,,,,,,,,5cb36149a9827c0001e7ec46,2020-11-25_16h38.04.308,lexical_decision_task_MP_exp2,2020.2.5,Win32,60,,z,1,,,,,,,,1.04323,1,,,,,,284,NW,UN,16,prudge,SHAPLE,z,1.04323,,,,,,0.066467289,-0.479062841,0,0,0,,0,381,381,463,1
,,,,,,,,,,,,,,,,,,5cb36149a9827c0001e7ec46,2020-11-25_16h38.04.308,lexical_decision_task_MP_exp2,2020.2.5,Win32,60,,z,1,,,,,,,,0.68145,1,,,,,,381,NW,"ID",16,huniek,HUNIEK,z,0.68145,,,,,,0.066467289,-0.479062841,0,0,0,,0,382,382,320,1
,,,,,,,,,,,,,,,,,,5cb36149a9827c0001e7ec46,2020-11-25_16h38.04.308,lexical_decision_task_MP_exp2,2020.2.5,Win32,60,,m,1,,,,,,,,0.63692,1,,,,,,215,WORD,UN,33,lumber,PHOBIA,m,0.63692,,,,,,0.066467289,-0.479062841,0,0,0,,0,383,383,154,1
,,,,,,,,,,,,,,,,,,5cb36149a9827c0001e7ec46,2020-11-25_16h38.04.308,lexical_decision_task_MP_exp2,2020.2.5,Win32,60,,m,1,,,,,,,,0.735505,1,,,,,,113,WORD,"ID",33,chorus,CHORUS,m,0.735505,,,,,,0.066467289,-0.479062841,0,0,0,,0,384,384,52,1
,,,,,,,,,,,,,,,,,,5cb36149a9827c0001e7ec46,2020-11-25_16h38.04.308,lexical_decision_task_MP_exp2,2020.2.5,Win32,60,,m,1,,,,,,,,0.600345,1,,,,,,44,WORD,UN,16,clergy,DANGER,m,0.600345,,,,,,0.066467289,-0.479062841,0,0,0,,0,385,385,223,1
,,,,,,,,,,,,,,,,,,5cb36149a9827c0001e7ec46,2020-11-25_16h38.04.308,lexical_decision_task_MP_exp2,2020.2.5,Win32,60,,z,1,,,,,,,,0.68683,1,,,,,,243,NW,UN,16,eatric,MUSIED,z,0.68683,,,,,,0.066467289,-0.479062841,0,0,0,,0,386,386,422,1
,,,,,,,,,,,,,,,,,,5cb36149a9827c0001e7ec46,2020-11-25_16h38.04.308,lexical_decision_task_MP_exp2,2020.2.5,Win32,60,,z,1,,,,,,,,0.98358,1,,,,,,348,NW,"ID",33,dumple,DUMPLE,z,0.98358,,,,,,0.066467289,-0.479062841,0,0,0,,0,387,387,287,1
,,,,,,,,,,,,,,,,,,5cb36149a9827c0001e7ec46,2020-11-25_16h38.04.308,lexical_decision_task_MP_exp2,2020.2.5,Win32,60,,z,1,,,,,,,,1.232415,1,,,,,,297,NW,UN,16,piergy,FERTIC,z,1.232415,,,,,,0.066467289,-0.479062841,0,0,0,,0,388,388,476,1
,,,,,,,,,,,,,,,,,,5cb36149a9827c0001e7ec46,2020-11-25_16h38.04.308,lexical_decision_task_MP_exp2,2020.2.5,Win32,60,,m,1,,,,,,,,0.83222,1,,,,,,13,WORD,UN,16,almost,STRIVE,m,0.83222,,,,,,0.066467289,-0.479062841,0,0,0,,0,389,389,192,1
,,,,,,,,,,,,,,,,,,5cb36149a9827c0001e7ec46,2020-11-25_16h38.04.308,lexical_decision_task_MP_exp2,2020.2.5,Win32,60,,z,1,,,,,,,,0.800355,1,,,,,,332,NW,"ID",33,vangue,VANGUE,z,0.800355,,,,,,0.066467289,-0.479062841,0,0,0,,0,390,390,271,1
,,,,,,,,,,,,,,,,,,5cb36149a9827c0001e7ec46,2020-11-25_16h38.04.308,lexical_decision_task_MP_exp2,2020.2.5,Win32,60,,z,1,,,,,,,,0.895625,1,,,,,,473,NW,UN,33,hablin,CRIBLE,z,0.895625,,,,,,0.066467289,-0.479062841,0,0,0,,0,391,391,412,1
,,,,,,,,,,,,,,,,,,5cb36149a9827c0001e7ec46,2020-11-25_16h38.04.308,lexical_decision_task_MP_exp2,2020.2.5,Win32,60,,m,1,,,,,,,,0.81512,1,,,,,,124,WORD,"ID",16,blouse,BLOUSE,m,0.81512,,,,,,0.066467289,-0.479062841,0,0,0,,0,392,392,63,1
,,,,,,,,,,,,,,,,,,5cb36149a9827c0001e7ec46,2020-11-25_16h38.04.308,lexical_decision_task_MP_exp2,2020.2.5,Win32,60,,z,1,,,,,,,,0.58209,1,,,,,,478,NW,UN,33,pebric,ACRISE,z,0.58209,,,,,,0.066467289,-0.479062841,0,0,0,,0,393,393,417,1
,,,,,,,,,,,,,,,,,,5cb36149a9827c0001e7ec46,2020-11-25_16h38.04.308,lexical_decision_task_MP_exp2,2020.2.5,Win32,60,,z,1,,,,,,,,0.693475,1,,,,,,321,NW,"ID",33,miator,MIATOR,z,0.693475,,,,,,0.066467289,-0.479062841,0,0,0,,0,394,394,260,1
,,,,,,,,,,,,,,,,,,5cb36149a9827c0001e7ec46,2020-11-25_16h38.04.308,lexical_decision_task_MP_exp2,2020.2.5,Win32,60,,z,1,,,,,,,,0.56717,1,,,,,,351,NW,"ID",33,tiesch,TIESCH,z,0.56717,,,,,,0.066467289,-0.479062841,0,0,0,,0,395,395,290,1
