counterbalancing_condition,instr_done_keyboard.keys,instr_done_touch.x,instr_done_touch.y,instr_done_touch.leftButton,instr_done_touch.midButton,instr_done_touch.rightButton,instr_done_touch.clicked_name,instruction_pages.thisRepN,instruction_pages.thisTrialN,instruction_pages.thisN,instruction_pages.thisIndex,instruction_pages.ran,pageN,phase,instruct_text,has_image,instruct_image,participant,date,expName,psychopyVersion,OS,frameRate,response.keys,response.corr,response.rt,touch_resp.x,touch_resp.y,touch_resp.leftButton,touch_resp.midButton,touch_resp.rightButton,touch_resp.time,touch_resp.clicked_name,rt,corr,practice_trials.thisRepN,practice_trials.thisTrialN,practice_trials.thisN,practice_trials.thisIndex,practice_trials.ran,TrialID,StimulusType,Condition,PrimeDuration,Prime,Target,corrAns,end_of_practice_trials_pages.thisRepN,end_of_practice_trials_pages.thisTrialN,end_of_practice_trials_pages.thisN,end_of_practice_trials_pages.thisIndex,end_of_practice_trials_pages.ran,break_done_touch.x,break_done_touch.y,break_done_touch.leftButton,break_done_touch.midButton,break_done_touch.rightButton,break_done_keyboard.keys,experiment_trials.thisRepN,experiment_trials.thisTrialN,experiment_trials.thisN,experiment_trials.thisIndex,experiment_trials.ran,break_done_keyboard.rt,break_done_touch.clicked_name
2,,0.018229167,-0.3984375,1,0,0,instr_done_button,0,0,0,0,1,1,instructions,"INSTRUCTIONS
At the start of each trial, look at the hash marks (######) in the center of the screen. After a moment, a string of letters will appear. Your task is to indicate if the letter string forms a word or not (i.e., if it is a nonword). For example, AUTHOR is a word while AUTHON is a nonword.

Press the space bar or touch the button below to continue.",0,,5cba2e9af429ff00159dda71,2020-11-26_16h00.20.925,lexical_decision_task_MP_exp2,2020.2.5,Win32,60,,,,,,,,,,,,,,,,,,,,,,,,,,,,,,,,,,,,,,,,,,
,,0.08203125,-0.391927083,1,0,0,instr_done_button,0,1,1,1,1,2,instructions,"If your device has a keyboard, press the 'Z' key for nonwords and the 'M' key for words.





Press the space bar or touch the button below to continue.",1,keyboard-example.gif,5cba2e9af429ff00159dda71,2020-11-26_16h00.20.925,lexical_decision_task_MP_exp2,2020.2.5,Win32,60,,,,,,,,,,,,,,,,,,,,,,,,,,,,,,,,,,,,,,,,,,
,,0.1640625,-0.41015625,1,0,0,instr_done_button,0,2,2,2,1,3,instructions,"If you are using a touchscreen only device, use the buttons on the screen. Do not use the mouse.





Press the space bar or touch the button below to continue.",1,touchscreen-example.gif,5cba2e9af429ff00159dda71,2020-11-26_16h00.20.925,lexical_decision_task_MP_exp2,2020.2.5,Win32,60,,,,,,,,,,,,,,,,,,,,,,,,,,,,,,,,,,,,,,,,,,
,,0.029947917,-0.397135417,1,0,0,instr_done_button,0,3,3,3,1,4,instructions,"It is very important that you respond as quickly and accurately as possible, as each letter string will only be on the screen for two seconds. If you do not respond within this time, the message 'Too slow!' will be displayed and the experiment will progress to the next letter string. The first 20 trials will be practice trials and you will receive feedback on your answers. 

Press the space bar or touch the button below to start the practice trials.",0,,5cba2e9af429ff00159dda71,2020-11-26_16h00.20.925,lexical_decision_task_MP_exp2,2020.2.5,Win32,60,,,,,,,,,,,,,,,,,,,,,,,,,,,,,,,,,,,,,,,,,,
,,,,,,,,,,,,,,,,,,5cba2e9af429ff00159dda71,2020-11-26_16h00.20.925,lexical_decision_task_MP_exp2,2020.2.5,Win32,60,z,1,1.68401,,,,,,,,1.68401,1,0,0,0,12,1,1013,NW,UN,33,adveil,SPRINY,z,,,,,,,,,,,,,,,,,,
,,,,,,,,,,,,,,,,,,5cba2e9af429ff00159dda71,2020-11-26_16h00.20.925,lexical_decision_task_MP_exp2,2020.2.5,Win32,60,m,1,1.16399,,,,,,,,1.16399,1,0,1,1,4,1,1005,WORD,UN,33,abound,SQUEAK,m,,,,,,,,,,,,,,,,,,
,,,,,,,,,,,,,,,,,,5cba2e9af429ff00159dda71,2020-11-26_16h00.20.925,lexical_decision_task_MP_exp2,2020.2.5,Win32,60,m,1,1.03652,,,,,,,,1.03652,1,0,2,2,2,1,1003,WORD,"ID",16,almond,ALMOND,m,,,,,,,,,,,,,,,,,,
,,,,,,,,,,,,,,,,,,5cba2e9af429ff00159dda71,2020-11-26_16h00.20.925,lexical_decision_task_MP_exp2,2020.2.5,Win32,60,z,1,1.06499,,,,,,,,1.06499,1,0,3,3,11,1,1012,NW,"ID",16,rashet,RASHET,z,,,,,,,,,,,,,,,,,,
,,,,,,,,,,,,,,,,,,5cba2e9af429ff00159dda71,2020-11-26_16h00.20.925,lexical_decision_task_MP_exp2,2020.2.5,Win32,60,z,1,0.91401,,,,,,,,0.91401,1,0,4,4,14,1,1015,NW,UN,16,miaber,THRALE,z,,,,,,,,,,,,,,,,,,
,,,,,,,,,,,,,,,,,,5cba2e9af429ff00159dda71,2020-11-26_16h00.20.925,lexical_decision_task_MP_exp2,2020.2.5,Win32,60,m,1,1.01685,,,,,,,,1.01685,1,0,5,5,3,1,1004,WORD,"ID",16,matrix,MATRIX,m,,,,,,,,,,,,,,,,,,
,,,,,,,,,,,,,,,,,,5cba2e9af429ff00159dda71,2020-11-26_16h00.20.925,lexical_decision_task_MP_exp2,2020.2.5,Win32,60,z,1,1.35054,,,,,,,,1.35054,1,0,6,6,9,1,1010,NW,"ID",33,fariny,FARINY,z,,,,,,,,,,,,,,,,,,
,,,,,,,,,,,,,,,,,,5cba2e9af429ff00159dda71,2020-11-26_16h00.20.925,lexical_decision_task_MP_exp2,2020.2.5,Win32,60,m,1,0.86466,,,,,,,,0.86466,1,0,7,7,7,1,1008,WORD,UN,16,hurdle,VOLUME,m,,,,,,,,,,,,,,,,,,
,,,,,,,,,,,,,,,,,,5cba2e9af429ff00159dda71,2020-11-26_16h00.20.925,lexical_decision_task_MP_exp2,2020.2.5,Win32,60,z,1,0.746675,,,,,,,,0.746675,1,0,8,8,15,1,1016,NW,UN,16,mushed,WHAISE,z,,,,,,,,,,,,,,,,,,
,,,,,,,,,,,,,,,,,,5cba2e9af429ff00159dda71,2020-11-26_16h00.20.925,lexical_decision_task_MP_exp2,2020.2.5,Win32,60,m,1,0.86487,,,,,,,,0.86487,1,0,9,9,1,1,1002,WORD,"ID",33,adjust,ADJUST,m,,,,,,,,,,,,,,,,,,
,,,,,,,,,,,,,,,,,,5cba2e9af429ff00159dda71,2020-11-26_16h00.20.925,lexical_decision_task_MP_exp2,2020.2.5,Win32,60,m,1,0.8875,,,,,,,,0.8875,1,0,10,10,5,1,1006,WORD,UN,33,frenzy,OBTAIN,m,,,,,,,,,,,,,,,,,,
,,,,,,,,,,,,,,,,,,5cba2e9af429ff00159dda71,2020-11-26_16h00.20.925,lexical_decision_task_MP_exp2,2020.2.5,Win32,60,m,1,0.859035,,,,,,,,0.859035,1,0,11,11,6,1,1007,WORD,UN,16,tropic,ZOMBIE,m,,,,,,,,,,,,,,,,,,
,,,,,,,,,,,,,,,,,,5cba2e9af429ff00159dda71,2020-11-26_16h00.20.925,lexical_decision_task_MP_exp2,2020.2.5,Win32,60,z,1,1.284665,,,,,,,,1.284665,1,0,12,12,10,1,1011,NW,"ID",16,inlade,INLADE,z,,,,,,,,,,,,,,,,,,
,,,,,,,,,,,,,,,,,,5cba2e9af429ff00159dda71,2020-11-26_16h00.20.925,lexical_decision_task_MP_exp2,2020.2.5,Win32,60,z,1,1.3899,,,,,,,,1.3899,1,0,13,13,8,1,1009,NW,"ID",33,aslert,ASLERT,z,,,,,,,,,,,,,,,,,,
,,,,,,,,,,,,,,,,,,5cba2e9af429ff00159dda71,2020-11-26_16h00.20.925,lexical_decision_task_MP_exp2,2020.2.5,Win32,60,m,1,0.863195,,,,,,,,0.863195,1,0,14,14,0,1,1001,WORD,"ID",33,utopia,UTOPIA,m,,,,,,,,,,,,,,,,,,
,,,,,,,,,,,,,,,,,,5cba2e9af429ff00159dda71,2020-11-26_16h00.20.925,lexical_decision_task_MP_exp2,2020.2.5,Win32,60,z,1,0.90128,,,,,,,,0.90128,1,0,15,15,13,1,1014,NW,UN,33,winfer,ROUPET,z,,,,,,,,,,,,,,,,,,
,,-0.026041667,-0.40625,1,0,0,instr_done_button,,,,,,1,end_of_practice,"You have completed the practice trials. During the experimental trials, you will not receive feedback, but it is very important that you respond as quickly and accurately as possible. 
Before you begin, please ensure that you are in a comfortable and quiet location and will not be disturbed for about 15 minutes, as we cannot use your data if you do not complete all the trials. 
There will be opportunities to take breaks at regular intervals during the experiment. When you are ready to start the experimental trials, please press space or touch the button below.",,,5cba2e9af429ff00159dda71,2020-11-26_16h00.20.925,lexical_decision_task_MP_exp2,2020.2.5,Win32,60,,,,,,,,,,,,,,,,,,,,,,,,,0,0,0,0,1,,,,,,,,,,,,,
,,,,,,,,,,,,,,,,,,5cba2e9af429ff00159dda71,2020-11-26_16h00.20.925,lexical_decision_task_MP_exp2,2020.2.5,Win32,60,z,1,0.79718,,,,,,,,0.79718,1,,,,,,268,NW,UN,16,orchet,PACKES,z,,,,,,0.62109375,-0.421875,0,0,0,,0,0,0,447,1,,
,,,,,,,,,,,,,,,,,,5cba2e9af429ff00159dda71,2020-11-26_16h00.20.925,lexical_decision_task_MP_exp2,2020.2.5,Win32,60,z,1,0.905485,,,,,,,,0.905485,1,,,,,,349,NW,"ID",33,asylen,ASYLEN,z,,,,,,0.62109375,-0.421875,0,0,0,,0,1,1,288,1,,
,,,,,,,,,,,,,,,,,,5cba2e9af429ff00159dda71,2020-11-26_16h00.20.925,lexical_decision_task_MP_exp2,2020.2.5,Win32,60,m,1,0.65838,,,,,,,,0.65838,1,,,,,,14,WORD,UN,16,orange,ALMOST,m,,,,,,0.62109375,-0.421875,0,0,0,,0,2,2,193,1,,
,,,,,,,,,,,,,,,,,,5cba2e9af429ff00159dda71,2020-11-26_16h00.20.925,lexical_decision_task_MP_exp2,2020.2.5,Win32,60,m,1,0.784735,,,,,,,,0.784735,1,,,,,,118,WORD,"ID",33,flight,FLIGHT,m,,,,,,0.62109375,-0.421875,0,0,0,,0,3,3,57,1,,
,,,,,,,,,,,,,,,,,,5cba2e9af429ff00159dda71,2020-11-26_16h00.20.925,lexical_decision_task_MP_exp2,2020.2.5,Win32,60,z,1,0.668815,,,,,,,,0.668815,1,,,,,,446,NW,UN,33,gircue,RUNAMO,z,,,,,,0.62109375,-0.421875,0,0,0,,0,4,4,385,1,,
,,,,,,,,,,,,,,,,,,5cba2e9af429ff00159dda71,2020-11-26_16h00.20.925,lexical_decision_task_MP_exp2,2020.2.5,Win32,60,m,1,0.707515,,,,,,,,0.707515,1,,,,,,121,WORD,"ID",16,thrive,THRIVE,m,,,,,,0.62109375,-0.421875,0,0,0,,0,5,5,60,1,,
,,,,,,,,,,,,,,,,,,5cba2e9af429ff00159dda71,2020-11-26_16h00.20.925,lexical_decision_task_MP_exp2,2020.2.5,Win32,60,z,1,0.6485,,,,,,,,0.6485,1,,,,,,401,NW,"ID",16,mustil,MUSTIL,z,,,,,,0.62109375,-0.421875,0,0,0,,0,6,6,340,1,,
,,,,,,,,,,,,,,,,,,5cba2e9af429ff00159dda71,2020-11-26_16h00.20.925,lexical_decision_task_MP_exp2,2020.2.5,Win32,60,z,1,0.85446,,,,,,,,0.85446,1,,,,,,364,NW,"ID",16,impote,IMPOTE,z,,,,,,0.62109375,-0.421875,0,0,0,,0,7,7,303,1,,
,,,,,,,,,,,,,,,,,,5cba2e9af429ff00159dda71,2020-11-26_16h00.20.925,lexical_decision_task_MP_exp2,2020.2.5,Win32,60,z,1,0.745635,,,,,,,,0.745635,1,,,,,,346,NW,"ID",33,saudic,SAUDIC,z,,,,,,0.62109375,-0.421875,0,0,0,,0,8,8,285,1,,
,,,,,,,,,,,,,,,,,,5cba2e9af429ff00159dda71,2020-11-26_16h00.20.925,lexical_decision_task_MP_exp2,2020.2.5,Win32,60,m,1,0.70481,,,,,,,,0.70481,1,,,,,,85,WORD,"ID",33,sprawl,SPRAWL,m,,,,,,0.62109375,-0.421875,0,0,0,,0,9,9,24,1,,
,,,,,,,,,,,,,,,,,,5cba2e9af429ff00159dda71,2020-11-26_16h00.20.925,lexical_decision_task_MP_exp2,2020.2.5,Win32,60,z,0,0.700045,,,,,,,,0.700045,0,,,,,,208,WORD,UN,33,search,HOCKEY,m,,,,,,0.62109375,-0.421875,0,0,0,,0,10,10,147,1,,
,,,,,,,,,,,,,,,,,,5cba2e9af429ff00159dda71,2020-11-26_16h00.20.925,lexical_decision_task_MP_exp2,2020.2.5,Win32,60,m,1,1.45656,,,,,,,,1.45656,1,,,,,,173,WORD,"ID",16,shower,SHOWER,m,,,,,,0.62109375,-0.421875,0,0,0,,0,11,11,112,1,,
,,,,,,,,,,,,,,,,,,5cba2e9af429ff00159dda71,2020-11-26_16h00.20.925,lexical_decision_task_MP_exp2,2020.2.5,Win32,60,z,1,0.88289,,,,,,,,0.88289,1,,,,,,280,NW,UN,16,melaty,CURBOL,z,,,,,,0.62109375,-0.421875,0,0,0,,0,12,12,459,1,,
,,,,,,,,,,,,,,,,,,5cba2e9af429ff00159dda71,2020-11-26_16h00.20.925,lexical_decision_task_MP_exp2,2020.2.5,Win32,60,m,1,0.76628,,,,,,,,0.76628,1,,,,,,149,WORD,"ID",16,invade,INVADE,m,,,,,,0.62109375,-0.421875,0,0,0,,0,13,13,88,1,,
,,,,,,,,,,,,,,,,,,5cba2e9af429ff00159dda71,2020-11-26_16h00.20.925,lexical_decision_task_MP_exp2,2020.2.5,Win32,60,m,1,0.957105,,,,,,,,0.957105,1,,,,,,127,WORD,"ID",16,castle,CASTLE,m,,,,,,0.62109375,-0.421875,0,0,0,,0,14,14,66,1,,
,,,,,,,,,,,,,,,,,,5cba2e9af429ff00159dda71,2020-11-26_16h00.20.925,lexical_decision_task_MP_exp2,2020.2.5,Win32,60,,0,,,,,,,,,0.957105,-1,,,,,,277,NW,UN,16,unighs,PETAIN,z,,,,,,0.62109375,-0.421875,0,0,0,,0,15,15,456,1,,
,,,,,,,,,,,,,,,,,,5cba2e9af429ff00159dda71,2020-11-26_16h00.20.925,lexical_decision_task_MP_exp2,2020.2.5,Win32,60,m,1,0.7811,,,,,,,,0.7811,1,,,,,,12,WORD,UN,16,strive,ORANGE,m,,,,,,0.62109375,-0.421875,0,0,0,,0,16,16,191,1,,
,,,,,,,,,,,,,,,,,,5cba2e9af429ff00159dda71,2020-11-26_16h00.20.925,lexical_decision_task_MP_exp2,2020.2.5,Win32,60,m,1,0.93242,,,,,,,,0.93242,1,,,,,,206,WORD,UN,33,wreath,TAILOR,m,,,,,,0.62109375,-0.421875,0,0,0,,0,17,17,145,1,,
,,,,,,,,,,,,,,,,,,5cba2e9af429ff00159dda71,2020-11-26_16h00.20.925,lexical_decision_task_MP_exp2,2020.2.5,Win32,60,m,1,0.8979,,,,,,,,0.8979,1,,,,,,37,WORD,UN,16,powder,INSULT,m,,,,,,0.62109375,-0.421875,0,0,0,,0,18,18,216,1,,
,,,,,,,,,,,,,,,,,,5cba2e9af429ff00159dda71,2020-11-26_16h00.20.925,lexical_decision_task_MP_exp2,2020.2.5,Win32,60,m,1,0.820095,,,,,,,,0.820095,1,,,,,,209,WORD,UN,33,monkey,SEARCH,m,,,,,,0.62109375,-0.421875,0,0,0,,0,19,19,148,1,,
,,,,,,,,,,,,,,,,,,5cba2e9af429ff00159dda71,2020-11-26_16h00.20.925,lexical_decision_task_MP_exp2,2020.2.5,Win32,60,z,1,0.802125,,,,,,,,0.802125,1,,,,,,399,NW,"ID",16,fouret,FOURET,z,,,,,,0.62109375,-0.421875,0,0,0,,0,20,20,338,1,,
,,,,,,,,,,,,,,,,,,5cba2e9af429ff00159dda71,2020-11-26_16h00.20.925,lexical_decision_task_MP_exp2,2020.2.5,Win32,60,z,1,0.847775,,,,,,,,0.847775,1,,,,,,287,NW,UN,16,yaceup,NYMBEL,z,,,,,,0.62109375,-0.421875,0,0,0,,0,21,21,466,1,,
,,,,,,,,,,,,,,,,,,5cba2e9af429ff00159dda71,2020-11-26_16h00.20.925,lexical_decision_task_MP_exp2,2020.2.5,Win32,60,m,1,0.59835,,,,,,,,0.59835,1,,,,,,53,WORD,UN,16,ramble,POLICE,m,,,,,,0.62109375,-0.421875,0,0,0,,0,22,22,232,1,,
,,,,,,,,,,,,,,,,,,5cba2e9af429ff00159dda71,2020-11-26_16h00.20.925,lexical_decision_task_MP_exp2,2020.2.5,Win32,60,z,1,0.962885,,,,,,,,0.962885,1,,,,,,393,NW,"ID",16,ganous,GANOUS,z,,,,,,0.62109375,-0.421875,0,0,0,,0,23,23,332,1,,
,,,,,,,,,,,,,,,,,,5cba2e9af429ff00159dda71,2020-11-26_16h00.20.925,lexical_decision_task_MP_exp2,2020.2.5,Win32,60,m,1,0.74156,,,,,,,,0.74156,1,,,,,,61,WORD,"ID",33,ponder,PONDER,m,,,,,,0.62109375,-0.421875,0,0,0,,0,24,24,0,1,,
,,,,,,,,,,,,,,,,,,5cba2e9af429ff00159dda71,2020-11-26_16h00.20.925,lexical_decision_task_MP_exp2,2020.2.5,Win32,60,m,1,0.77996,,,,,,,,0.77996,1,,,,,,212,WORD,UN,33,squeal,VERIFY,m,,,,,,0.62109375,-0.421875,0,0,0,,0,25,25,151,1,,
,,,,,,,,,,,,,,,,,,5cba2e9af429ff00159dda71,2020-11-26_16h00.20.925,lexical_decision_task_MP_exp2,2020.2.5,Win32,60,m,1,0.839585,,,,,,,,0.839585,1,,,,,,211,WORD,UN,33,verify,INFECT,m,,,,,,0.62109375,-0.421875,0,0,0,,0,26,26,150,1,,
,,,,,,,,,,,,,,,,,,5cba2e9af429ff00159dda71,2020-11-26_16h00.20.925,lexical_decision_task_MP_exp2,2020.2.5,Win32,60,m,1,0.652845,,,,,,,,0.652845,1,,,,,,150,WORD,"ID",16,random,RANDOM,m,,,,,,0.62109375,-0.421875,0,0,0,,0,27,27,89,1,,
,,,,,,,,,,,,,,,,,,5cba2e9af429ff00159dda71,2020-11-26_16h00.20.925,lexical_decision_task_MP_exp2,2020.2.5,Win32,60,m,1,0.59548,,,,,,,,0.59548,1,,,,,,201,WORD,UN,33,factor,ADMIRE,m,,,,,,0.62109375,-0.421875,0,0,0,,0,28,28,140,1,,
,,,,,,,,,,,,,,,,,,5cba2e9af429ff00159dda71,2020-11-26_16h00.20.925,lexical_decision_task_MP_exp2,2020.2.5,Win32,60,z,1,0.679685,,,,,,,,0.679685,1,,,,,,251,NW,UN,16,stapod,LUPICT,z,,,,,,0.62109375,-0.421875,0,0,0,,0,29,29,430,1,,
,,,,,,,,,,,,,,,,,,5cba2e9af429ff00159dda71,2020-11-26_16h00.20.925,lexical_decision_task_MP_exp2,2020.2.5,Win32,60,z,1,0.77208,,,,,,,,0.77208,1,,,,,,304,NW,"ID",33,cludie,CLUDIE,z,,,,,,0.62109375,-0.421875,0,0,0,,0,30,30,243,1,,
,,,,,,,,,,,,,,,,,,5cba2e9af429ff00159dda71,2020-11-26_16h00.20.925,lexical_decision_task_MP_exp2,2020.2.5,Win32,60,z,1,0.67681,,,,,,,,0.67681,1,,,,,,447,NW,UN,33,sadent,GIRCUE,z,,,,,,0.62109375,-0.421875,0,0,0,,0,31,31,386,1,,
,,,,,,,,,,,,,,,,,,5cba2e9af429ff00159dda71,2020-11-26_16h00.20.925,lexical_decision_task_MP_exp2,2020.2.5,Win32,60,z,1,0.706305,,,,,,,,0.706305,1,,,,,,377,NW,"ID",16,injore,INJORE,z,,,,,,0.62109375,-0.421875,0,0,0,,0,32,32,316,1,,
,,,,,,,,,,,,,,,,,,5cba2e9af429ff00159dda71,2020-11-26_16h00.20.925,lexical_decision_task_MP_exp2,2020.2.5,Win32,60,m,1,0.657105,,,,,,,,0.657105,1,,,,,,67,WORD,"ID",33,policy,POLICY,m,,,,,,0.62109375,-0.421875,0,0,0,,0,33,33,6,1,,
,,,,,,,,,,,,,,,,,,5cba2e9af429ff00159dda71,2020-11-26_16h00.20.925,lexical_decision_task_MP_exp2,2020.2.5,Win32,60,m,1,0.58414,,,,,,,,0.58414,1,,,,,,22,WORD,UN,16,wealth,JOCKEY,m,,,,,,0.62109375,-0.421875,0,0,0,,0,34,34,201,1,,
,,,,,,,,,,,,,,,,,,5cba2e9af429ff00159dda71,2020-11-26_16h00.20.925,lexical_decision_task_MP_exp2,2020.2.5,Win32,60,m,1,0.74725,,,,,,,,0.74725,1,,,,,,239,WORD,UN,33,forest,LUMBER,m,,,,,,0.62109375,-0.421875,0,0,0,,0,35,35,178,1,,
,,,,,,,,,,,,,,,,,,5cba2e9af429ff00159dda71,2020-11-26_16h00.20.925,lexical_decision_task_MP_exp2,2020.2.5,Win32,60,z,1,0.7518,,,,,,,,0.7518,1,,,,,,290,NW,UN,16,pretch,SPLINO,z,,,,,,0.62109375,-0.421875,0,0,0,,0,36,36,469,1,,
,,,,,,,,,,,,,,,,,,5cba2e9af429ff00159dda71,2020-11-26_16h00.20.925,lexical_decision_task_MP_exp2,2020.2.5,Win32,60,m,1,0.697245,,,,,,,,0.697245,1,,,,,,159,WORD,"ID",16,detail,DETAIL,m,,,,,,0.62109375,-0.421875,0,0,0,,0,37,37,98,1,,
,,,,,,,,,,,,,,,,,,5cba2e9af429ff00159dda71,2020-11-26_16h00.20.925,lexical_decision_task_MP_exp2,2020.2.5,Win32,60,m,1,0.71723,,,,,,,,0.71723,1,,,,,,227,WORD,UN,33,master,SELDOM,m,,,,,,0.62109375,-0.421875,0,0,0,,0,38,38,166,1,,
,,,,,,,,,,,,,,,,,,5cba2e9af429ff00159dda71,2020-11-26_16h00.20.925,lexical_decision_task_MP_exp2,2020.2.5,Win32,60,z,1,0.94956,,,,,,,,0.94956,1,,,,,,370,NW,"ID",16,sleact,SLEACT,z,,,,,,0.62109375,-0.421875,0,0,0,,0,39,39,309,1,,
,,,,,,,,,,,,,,,,,,5cba2e9af429ff00159dda71,2020-11-26_16h00.20.925,lexical_decision_task_MP_exp2,2020.2.5,Win32,60,z,1,0.765255,,,,,,,,0.765255,1,,,,,,330,NW,"ID",33,kensom,KENSOM,z,,,,,,0.62109375,-0.421875,0,0,0,,0,40,40,269,1,,
,,,,,,,,,,,,,,,,,,5cba2e9af429ff00159dda71,2020-11-26_16h00.20.925,lexical_decision_task_MP_exp2,2020.2.5,Win32,60,m,1,0.58304,,,,,,,,0.58304,1,,,,,,210,WORD,UN,33,infect,MONKEY,m,,,,,,0.62109375,-0.421875,0,0,0,,0,41,41,149,1,,
,,,,,,,,,,,,,,,,,,5cba2e9af429ff00159dda71,2020-11-26_16h00.20.925,lexical_decision_task_MP_exp2,2020.2.5,Win32,60,z,1,0.89714,,,,,,,,0.89714,1,,,,,,305,NW,"ID",33,forgle,FORGLE,z,,,,,,0.62109375,-0.421875,0,0,0,,0,42,42,244,1,,
,,,,,,,,,,,,,,,,,,5cba2e9af429ff00159dda71,2020-11-26_16h00.20.925,lexical_decision_task_MP_exp2,2020.2.5,Win32,60,z,1,0.9446,,,,,,,,0.9446,1,,,,,,379,NW,"ID",16,auting,AUTING,z,,,,,,0.62109375,-0.421875,0,0,0,,0,43,43,318,1,,
,,,,,,,,,,,,,,,,,,5cba2e9af429ff00159dda71,2020-11-26_16h00.20.925,lexical_decision_task_MP_exp2,2020.2.5,Win32,60,z,1,0.98344,,,,,,,,0.98344,1,,,,,,478,NW,UN,33,pebric,ACRISE,z,,,,,,0.62109375,-0.421875,0,0,0,,0,44,44,417,1,,
,,,,,,,,,,,,,,,,,,5cba2e9af429ff00159dda71,2020-11-26_16h00.20.925,lexical_decision_task_MP_exp2,2020.2.5,Win32,60,z,1,0.832005,,,,,,,,0.832005,1,,,,,,271,NW,UN,16,damilt,AUBRID,z,,,,,,0.62109375,-0.421875,0,0,0,,0,45,45,450,1,,
,,,,,,,,,,,,,,,,,,5cba2e9af429ff00159dda71,2020-11-26_16h00.20.925,lexical_decision_task_MP_exp2,2020.2.5,Win32,60,m,1,0.63006,,,,,,,,0.63006,1,,,,,,163,WORD,"ID",16,string,STRING,m,,,,,,0.62109375,-0.421875,0,0,0,,0,46,46,102,1,,
,,,,,,,,,,,,,,,,,,5cba2e9af429ff00159dda71,2020-11-26_16h00.20.925,lexical_decision_task_MP_exp2,2020.2.5,Win32,60,z,1,0.73048,,,,,,,,0.73048,1,,,,,,459,NW,UN,33,mingar,BAFENT,z,,,,,,0.62109375,-0.421875,0,0,0,,0,47,47,398,1,,
,,,,,,,,,,,,,,,,,,5cba2e9af429ff00159dda71,2020-11-26_16h00.20.925,lexical_decision_task_MP_exp2,2020.2.5,Win32,60,m,1,0.797505,,,,,,,,0.797505,1,,,,,,64,WORD,"ID",33,throne,THRONE,m,,,,,,0.62109375,-0.421875,0,0,0,,0,48,48,3,1,,
,,,,,,,,,,,,,,,,,,5cba2e9af429ff00159dda71,2020-11-26_16h00.20.925,lexical_decision_task_MP_exp2,2020.2.5,Win32,60,m,1,0.718465,,,,,,,,0.718465,1,,,,,,224,WORD,UN,33,vulgar,PERIOD,m,,,,,,0.62109375,-0.421875,0,0,0,,0,49,49,163,1,,
,,,,,,,,,,,,,,,,,,5cba2e9af429ff00159dda71,2020-11-26_16h00.20.925,lexical_decision_task_MP_exp2,2020.2.5,Win32,60,m,1,0.63185,,,,,,,,0.63185,1,,,,,,157,WORD,"ID",16,dragon,DRAGON,m,,,,,,0.62109375,-0.421875,0,0,0,,0,50,50,96,1,,
,,,,,,,,,,,,,,,,,,5cba2e9af429ff00159dda71,2020-11-26_16h00.20.925,lexical_decision_task_MP_exp2,2020.2.5,Win32,60,m,1,0.55383,,,,,,,,0.55383,1,,,,,,129,WORD,"ID",16,marvel,MARVEL,m,,,,,,0.62109375,-0.421875,0,0,0,,0,51,51,68,1,,
,,,,,,,,,,,,,,,,,,5cba2e9af429ff00159dda71,2020-11-26_16h00.20.925,lexical_decision_task_MP_exp2,2020.2.5,Win32,60,m,1,0.71554,,,,,,,,0.71554,1,,,,,,134,WORD,"ID",16,staple,STAPLE,m,,,,,,0.62109375,-0.421875,0,0,0,,0,52,52,73,1,,
,,,,,,,,,,,,,,,,,,5cba2e9af429ff00159dda71,2020-11-26_16h00.20.925,lexical_decision_task_MP_exp2,2020.2.5,Win32,60,z,1,0.55213,,,,,,,,0.55213,1,,,,,,279,NW,UN,16,curbol,CELOND,z,,,,,,0.62109375,-0.421875,0,0,0,,0,53,53,458,1,,
,,,,,,,,,,,,,,,,,,5cba2e9af429ff00159dda71,2020-11-26_16h00.20.925,lexical_decision_task_MP_exp2,2020.2.5,Win32,60,m,1,0.731935,,,,,,,,0.731935,1,,,,,,171,WORD,"ID",16,depart,DEPART,m,,,,,,0.62109375,-0.421875,0,0,0,,0,54,54,110,1,,
,,,,,,,,,,,,,,,,,,5cba2e9af429ff00159dda71,2020-11-26_16h00.20.925,lexical_decision_task_MP_exp2,2020.2.5,Win32,60,z,1,0.62633,,,,,,,,0.62633,1,,,,,,421,NW,UN,33,alcoud,KNISMA,z,,,,,,0.62109375,-0.421875,0,0,0,,0,55,55,360,1,,
,,,,,,,,,,,,,,,,,,5cba2e9af429ff00159dda71,2020-11-26_16h00.20.925,lexical_decision_task_MP_exp2,2020.2.5,Win32,60,m,1,0.66642,,,,,,,,0.66642,1,,,,,,177,WORD,"ID",16,advent,ADVENT,m,,,,,,0.62109375,-0.421875,0,0,0,,0,56,56,116,1,,
,,,,,,,,,,,,,,,,,,5cba2e9af429ff00159dda71,2020-11-26_16h00.20.925,lexical_decision_task_MP_exp2,2020.2.5,Win32,60,z,1,0.647465,,,,,,,,0.647465,1,,,,,,306,NW,"ID",33,sounge,SOUNGE,z,,,,,,0.62109375,-0.421875,0,0,0,,0,57,57,245,1,,
,,,,,,,,,,,,,,,,,,5cba2e9af429ff00159dda71,2020-11-26_16h00.20.925,lexical_decision_task_MP_exp2,2020.2.5,Win32,60,m,1,0.898165,,,,,,,,0.898165,1,,,,,,130,WORD,"ID",16,stupid,STUPID,m,,,,,,0.62109375,-0.421875,0,0,0,,0,58,58,69,1,,
,,,,,,,,,,,,,,,,,,5cba2e9af429ff00159dda71,2020-11-26_16h00.20.925,lexical_decision_task_MP_exp2,2020.2.5,Win32,60,m,1,0.741395,,,,,,,,0.741395,1,,,,,,50,WORD,UN,16,hungry,SNATCH,m,,,,,,0.62109375,-0.421875,0,0,0,,0,59,59,229,1,,
,,,,,,,,,,,,,,,,,,5cba2e9af429ff00159dda71,2020-11-26_16h00.20.925,lexical_decision_task_MP_exp2,2020.2.5,Win32,60,m,1,0.75152,,,,,,,,0.75152,1,,,,,,3,WORD,UN,16,trench,KNIGHT,m,,,,,,0.62109375,-0.421875,0,0,0,,0,60,60,182,1,,
,,,,,,,,,,,,,,,,,,5cba2e9af429ff00159dda71,2020-11-26_16h00.20.925,lexical_decision_task_MP_exp2,2020.2.5,Win32,60,m,0,1.166135,,,,,,,,1.166135,0,,,,,,360,NW,"ID",33,desory,DESORY,z,,,,,,0.62109375,-0.421875,0,0,0,,0,61,61,299,1,,
,,,,,,,,,,,,,,,,,,5cba2e9af429ff00159dda71,2020-11-26_16h00.20.925,lexical_decision_task_MP_exp2,2020.2.5,Win32,60,z,1,0.757655,,,,,,,,0.757655,1,,,,,,390,NW,"ID",16,hatrus,HATRUS,z,,,,,,0.62109375,-0.421875,0,0,0,,0,62,62,329,1,,
,,,,,,,,,,,,,,,,,,5cba2e9af429ff00159dda71,2020-11-26_16h00.20.925,lexical_decision_task_MP_exp2,2020.2.5,Win32,60,m,1,0.798325,,,,,,,,0.798325,1,,,,,,145,WORD,"ID",16,parish,PARISH,m,,,,,,0.62109375,-0.421875,0,0,0,,0,63,63,84,1,,
,,,,,,,,,,,,,,,,,,5cba2e9af429ff00159dda71,2020-11-26_16h00.20.925,lexical_decision_task_MP_exp2,2020.2.5,Win32,60,m,1,0.7886,,,,,,,,0.7886,1,,,,,,187,WORD,UN,33,social,COURSE,m,,,,,,0.62109375,-0.421875,0,0,0,,0,64,64,126,1,,
,,,,,,,,,,,,,,,,,,5cba2e9af429ff00159dda71,2020-11-26_16h00.20.925,lexical_decision_task_MP_exp2,2020.2.5,Win32,60,z,1,0.953835,,,,,,,,0.953835,1,,,,,,418,NW,"ID",16,suidle,SUIDLE,z,,,,,,0.62109375,-0.421875,0,0,0,,0,65,65,357,1,,
,,,,,,,,,,,,,,,,,,5cba2e9af429ff00159dda71,2020-11-26_16h00.20.925,lexical_decision_task_MP_exp2,2020.2.5,Win32,60,m,1,0.92018,,,,,,,,0.92018,1,,,,,,29,WORD,UN,16,orient,SKETCH,m,,,,,,0.62109375,-0.421875,0,0,0,,0,66,66,208,1,,
,,,,,,,,,,,,,,,,,,5cba2e9af429ff00159dda71,2020-11-26_16h00.20.925,lexical_decision_task_MP_exp2,2020.2.5,Win32,60,z,1,0.8171,,,,,,,,0.8171,1,,,,,,471,NW,UN,33,cigney,NOBEST,z,,,,,,0.62109375,-0.421875,0,0,0,,0,67,67,410,1,,
,,,,,,,,,,,,,,,,,,5cba2e9af429ff00159dda71,2020-11-26_16h00.20.925,lexical_decision_task_MP_exp2,2020.2.5,Win32,60,m,1,0.68278,,,,,,,,0.68278,1,,,,,,26,WORD,UN,16,butler,SPRINT,m,,,,,,0.62109375,-0.421875,0,0,0,,0,68,68,205,1,,
,,,,,,,,,,,,,,,,,,5cba2e9af429ff00159dda71,2020-11-26_16h00.20.925,lexical_decision_task_MP_exp2,2020.2.5,Win32,60,m,1,0.790775,,,,,,,,0.790775,1,,,,,,122,WORD,"ID",16,linger,LINGER,m,,,,,,0.62109375,-0.421875,0,0,0,,0,69,69,61,1,,
,,,,,,,,,,,,,,,,,,5cba2e9af429ff00159dda71,2020-11-26_16h00.20.925,lexical_decision_task_MP_exp2,2020.2.5,Win32,60,z,1,0.731645,,,,,,,,0.731645,1,,,,,,480,NW,UN,33,knisma,ROBULY,z,,,,,,0.62109375,-0.421875,0,0,0,,0,70,70,419,1,,
,,,,,,,,,,,,,,,,,,5cba2e9af429ff00159dda71,2020-11-26_16h00.20.925,lexical_decision_task_MP_exp2,2020.2.5,Win32,60,z,1,0.781415,,,,,,,,0.781415,1,,,,,,451,NW,UN,33,surden,CAINKY,z,,,,,,0.62109375,-0.421875,0,0,0,,0,71,71,390,1,,
,,,,,,,,,,,,,,,,,,5cba2e9af429ff00159dda71,2020-11-26_16h00.20.925,lexical_decision_task_MP_exp2,2020.2.5,Win32,60,z,1,0.65769,,,,,,,,0.65769,1,,,,,,405,NW,"ID",16,flumni,FLUMNI,z,,,,,,0.62109375,-0.421875,0,0,0,,0,72,72,344,1,,
,,,,,,,,,,,,,,,,,,5cba2e9af429ff00159dda71,2020-11-26_16h00.20.925,lexical_decision_task_MP_exp2,2020.2.5,Win32,60,z,1,0.992875,,,,,,,,0.992875,1,,,,,,444,NW,UN,33,minkel,JAUNCE,z,,,,,,0.62109375,-0.421875,0,0,0,,0,73,73,383,1,,
,,,,,,,,,,,,,,,,,,5cba2e9af429ff00159dda71,2020-11-26_16h00.20.925,lexical_decision_task_MP_exp2,2020.2.5,Win32,60,m,1,0.633665,,,,,,,,0.633665,1,,,,,,70,WORD,"ID",33,square,SQUARE,m,,,,,,0.62109375,-0.421875,0,0,0,,0,74,74,9,1,,
,,,,,,,,,,,,,,,,,,5cba2e9af429ff00159dda71,2020-11-26_16h00.20.925,lexical_decision_task_MP_exp2,2020.2.5,Win32,60,z,1,0.76223,,,,,,,,0.76223,1,,,,,,283,NW,UN,16,shaple,VERALF,z,,,,,,0.62109375,-0.421875,0,0,0,,0,75,75,462,1,,
,,,,,,,,,,,,,,,,,,5cba2e9af429ff00159dda71,2020-11-26_16h00.20.925,lexical_decision_task_MP_exp2,2020.2.5,Win32,60,z,1,0.8683,,,,,,,,0.8683,1,,,,,,443,NW,UN,33,jaunce,DORSEX,z,,,,,,0.62109375,-0.421875,0,0,0,,0,76,76,382,1,,
,,,,,,,,,,,,,,,,,,5cba2e9af429ff00159dda71,2020-11-26_16h00.20.925,lexical_decision_task_MP_exp2,2020.2.5,Win32,60,z,1,0.824495,,,,,,,,0.824495,1,,,,,,276,NW,UN,16,petain,YARMON,z,,,,,,0.62109375,-0.421875,0,0,0,,0,77,77,455,1,,
,,,,,,,,,,,,,,,,,,5cba2e9af429ff00159dda71,2020-11-26_16h00.20.925,lexical_decision_task_MP_exp2,2020.2.5,Win32,60,m,1,0.80121,,,,,,,,0.80121,1,,,,,,120,WORD,"ID",33,strain,STRAIN,m,,,,,,0.62109375,-0.421875,0,0,0,,0,78,78,59,1,,
,,,,,,,,,,,,,,,,,,5cba2e9af429ff00159dda71,2020-11-26_16h00.20.925,lexical_decision_task_MP_exp2,2020.2.5,Win32,60,z,1,0.750855,,,,,,,,0.750855,1,,,,,,378,NW,"ID",16,shrile,SHRILE,z,,,,,,0.62109375,-0.421875,0,0,0,,0,79,79,317,1,,
,,,,,,,,,,,,,,,,,,5cba2e9af429ff00159dda71,2020-11-26_16h00.20.925,lexical_decision_task_MP_exp2,2020.2.5,Win32,60,m,1,0.615945,,,,,,,,0.615945,1,,,,,,154,WORD,"ID",16,author,AUTHOR,m,,,,,,0.62109375,-0.421875,0,0,0,,0,80,80,93,1,,
,,,,,,,,,,,,,,,,,,5cba2e9af429ff00159dda71,2020-11-26_16h00.20.925,lexical_decision_task_MP_exp2,2020.2.5,Win32,60,z,1,0.74032,,,,,,,,0.74032,1,,,,,,385,NW,"ID",16,veigma,VEIGMA,z,,,,,,0.62109375,-0.421875,0,0,0,,0,81,81,324,1,,
,,,,,,,,,,,,,,,,,,5cba2e9af429ff00159dda71,2020-11-26_16h00.20.925,lexical_decision_task_MP_exp2,2020.2.5,Win32,60,z,1,0.696095,,,,,,,,0.696095,1,,,,,,396,NW,"ID",16,flengy,FLENGY,z,,,,,,0.62109375,-0.421875,0,0,0,,0,82,82,335,1,,
,,,,,,,,,,,,,,,,,,5cba2e9af429ff00159dda71,2020-11-26_16h00.20.925,lexical_decision_task_MP_exp2,2020.2.5,Win32,60,m,1,0.68266,,,,,,,,0.68266,1,,,,,,87,WORD,"ID",33,filter,FILTER,m,,,,,,0.62109375,-0.421875,0,0,0,,0,83,83,26,1,,
,,,,,,,,,,,,,,,,,,5cba2e9af429ff00159dda71,2020-11-26_16h00.20.925,lexical_decision_task_MP_exp2,2020.2.5,Win32,60,m,1,0.77892,,,,,,,,0.77892,1,,,,,,223,WORD,UN,33,period,KIDNEY,m,,,,,,0.62109375,-0.421875,0,0,0,,0,84,84,162,1,,
,,,,,,,,,,,,,,,,,,5cba2e9af429ff00159dda71,2020-11-26_16h00.20.925,lexical_decision_task_MP_exp2,2020.2.5,Win32,60,m,1,0.6378,,,,,,,,0.6378,1,,,,,,140,WORD,"ID",16,prince,PRINCE,m,,,,,,0.62109375,-0.421875,0,0,0,,0,85,85,79,1,,
,,,,,,,,,,,,,,,,,,5cba2e9af429ff00159dda71,2020-11-26_16h00.20.925,lexical_decision_task_MP_exp2,2020.2.5,Win32,60,m,1,0.6367,,,,,,,,0.6367,1,,,,,,229,WORD,UN,33,fringe,MOTHER,m,,,,,,0.62109375,-0.421875,0,0,0,,0,86,86,168,1,,
,,,,,,,,,,,,,,,,,,5cba2e9af429ff00159dda71,2020-11-26_16h00.20.925,lexical_decision_task_MP_exp2,2020.2.5,Win32,60,m,1,0.656145,,,,,,,,0.656145,1,,,,,,17,WORD,UN,16,humble,CHARGE,m,,,,,,0.62109375,-0.421875,0,0,0,,0,87,87,196,1,,
,,,,,,,,,,,,,,,,,,5cba2e9af429ff00159dda71,2020-11-26_16h00.20.925,lexical_decision_task_MP_exp2,2020.2.5,Win32,60,z,1,0.585045,,,,,,,,0.585045,1,,,,,,414,NW,"ID",16,serbol,SERBOL,z,,,,,,0.62109375,-0.421875,0,0,0,,0,88,88,353,1,,
,,,,,,,,,,,,,,,,,,5cba2e9af429ff00159dda71,2020-11-26_16h00.20.925,lexical_decision_task_MP_exp2,2020.2.5,Win32,60,z,1,1.016395,,,,,,,,1.016395,1,,,,,,244,NW,UN,16,anougs,EATRIC,z,,,,,,0.62109375,-0.421875,0,0,0,,0,89,89,423,1,,
,,,,,,,,,,,,,,,,,,5cba2e9af429ff00159dda71,2020-11-26_16h00.20.925,lexical_decision_task_MP_exp2,2020.2.5,Win32,60,m,1,0.75546,,,,,,,,0.75546,1,,,,,,99,WORD,"ID",33,fluent,FLUENT,m,,,,,,0.62109375,-0.421875,0,0,0,,0,90,90,38,1,,
,,,,,,,,,,,,,,,,,,5cba2e9af429ff00159dda71,2020-11-26_16h00.20.925,lexical_decision_task_MP_exp2,2020.2.5,Win32,60,m,1,0.7212,,,,,,,,0.7212,1,,,,,,97,WORD,"ID",33,client,CLIENT,m,,,,,,0.62109375,-0.421875,0,0,0,,0,91,91,36,1,,
,,,,,,,,,,,,,,,,,,5cba2e9af429ff00159dda71,2020-11-26_16h00.20.925,lexical_decision_task_MP_exp2,2020.2.5,Win32,60,m,1,0.786485,,,,,,,,0.786485,1,,,,,,234,WORD,UN,33,poster,CLUMSY,m,,,,,,0.62109375,-0.421875,0,0,0,,0,92,92,173,1,,
,,,,,,,,,,,,,,,,,,5cba2e9af429ff00159dda71,2020-11-26_16h00.20.925,lexical_decision_task_MP_exp2,2020.2.5,Win32,60,m,1,0.813655,,,,,,,,0.813655,1,,,,,,43,WORD,UN,16,foster,TONGUE,m,,,,,,0.62109375,-0.421875,0,0,0,,0,93,93,222,1,,
,,,,,,,,,,,,,,,,,,5cba2e9af429ff00159dda71,2020-11-26_16h00.20.925,lexical_decision_task_MP_exp2,2020.2.5,Win32,60,z,1,0.684255,,,,,,,,0.684255,1,,,,,,332,NW,"ID",33,vangue,VANGUE,z,,,,,,0.62109375,-0.421875,0,0,0,,0,94,94,271,1,,
,,,,,,,,,,,,,,,,,,5cba2e9af429ff00159dda71,2020-11-26_16h00.20.925,lexical_decision_task_MP_exp2,2020.2.5,Win32,60,z,1,0.670875,,,,,,,,0.670875,1,,,,,,479,NW,UN,33,crible,LOBUSH,z,,,,,,0.62109375,-0.421875,0,0,0,,0,95,95,418,1,,
,,,,,,,,,,,,,,,,,,5cba2e9af429ff00159dda71,2020-11-26_16h00.20.925,lexical_decision_task_MP_exp2,2020.2.5,Win32,60,m,1,0.63296,,,,,,,,0.63296,1,,,,,,136,WORD,"ID",16,bleach,BLEACH,m,,,,,,0.62109375,-0.421875,0,0,0,,0,96,96,75,1,,
,,,,,,,,,,,,,,,,,,5cba2e9af429ff00159dda71,2020-11-26_16h00.20.925,lexical_decision_task_MP_exp2,2020.2.5,Win32,60,z,1,0.653805,,,,,,,,0.653805,1,,,,,,436,NW,UN,33,snapel,FRUTAN,z,,,,,,0.62109375,-0.421875,0,0,0,,0,97,97,375,1,,
,,,,,,,,,,,,,,,,,,5cba2e9af429ff00159dda71,2020-11-26_16h00.20.925,lexical_decision_task_MP_exp2,2020.2.5,Win32,60,m,1,0.73867,,,,,,,,0.73867,1,,,,,,196,WORD,UN,33,stream,CREDIT,m,,,,,,0.62109375,-0.421875,0,0,0,,0,98,98,135,1,,
,,,,,,,,,,,,,,,,,,5cba2e9af429ff00159dda71,2020-11-26_16h00.20.925,lexical_decision_task_MP_exp2,2020.2.5,Win32,60,z,1,0.716685,,,,,,,,0.716685,1,,,,,,442,NW,UN,33,dorsex,ABOUNE,z,,,,,,0.62109375,-0.421875,0,0,0,,0,99,99,381,1,,
,,,,,,,,,,,,,,,,,,5cba2e9af429ff00159dda71,2020-11-26_16h00.20.925,lexical_decision_task_MP_exp2,2020.2.5,Win32,60,m,1,0.782665,,,,,,,,0.782665,1,,,,,,125,WORD,"ID",16,nickel,NICKEL,m,,,,,,0.62109375,-0.421875,0,0,0,,0,100,100,64,1,,
,,,,,,,,,,,,,,,,,,5cba2e9af429ff00159dda71,2020-11-26_16h00.20.925,lexical_decision_task_MP_exp2,2020.2.5,Win32,60,z,1,0.765015,,,,,,,,0.765015,1,,,,,,362,NW,"ID",16,tireau,TIREAU,z,,,,,,0.62109375,-0.421875,0,0,0,,0,101,101,301,1,,
,,,,,,,,,,,,,,,,,,5cba2e9af429ff00159dda71,2020-11-26_16h00.20.925,lexical_decision_task_MP_exp2,2020.2.5,Win32,60,m,1,0.86396,,,,,,,,0.86396,1,,,,,,62,WORD,"ID",33,region,REGION,m,,,,,,0.62109375,-0.421875,0,0,0,,0,102,102,1,1,,
,,,,,,,,,,,,,,,,,,5cba2e9af429ff00159dda71,2020-11-26_16h00.20.925,lexical_decision_task_MP_exp2,2020.2.5,Win32,60,z,1,0.74221,,,,,,,,0.74221,1,,,,,,374,NW,"ID",16,sliant,SLIANT,z,,,,,,0.62109375,-0.421875,0,0,0,,0,103,103,313,1,,
,,,,,,,,,,,,,,,,,,5cba2e9af429ff00159dda71,2020-11-26_16h00.20.925,lexical_decision_task_MP_exp2,2020.2.5,Win32,60,z,1,0.91196,,,,,,,,0.91196,1,,,,,,335,NW,"ID",33,desion,DESION,z,,,,,,0.62109375,-0.421875,0,0,0,,0,104,104,274,1,,
,,,,,,,,,,,,,,,,,,5cba2e9af429ff00159dda71,2020-11-26_16h00.20.925,lexical_decision_task_MP_exp2,2020.2.5,Win32,60,m,1,0.81216,,,,,,,,0.81216,1,,,,,,160,WORD,"ID",16,violet,VIOLET,m,,,,,,0.62109375,-0.421875,0,0,0,,0,105,105,99,1,,
,,,,,,,,,,,,,,,,,,5cba2e9af429ff00159dda71,2020-11-26_16h00.20.925,lexical_decision_task_MP_exp2,2020.2.5,Win32,60,z,1,0.86353,,,,,,,,0.86353,1,,,,,,366,NW,"ID",16,toshel,TOSHEL,z,,,,,,0.62109375,-0.421875,0,0,0,,0,106,106,305,1,,
,,,,,,,,,,,,,,,,,,5cba2e9af429ff00159dda71,2020-11-26_16h00.20.925,lexical_decision_task_MP_exp2,2020.2.5,Win32,60,z,1,0.780625,,,,,,,,0.780625,1,,,,,,460,NW,UN,33,justre,MINGAR,z,,,,,,0.62109375,-0.421875,0,0,0,,0,107,107,399,1,,
,,,,,,,,,,,,,,,,,,5cba2e9af429ff00159dda71,2020-11-26_16h00.20.925,lexical_decision_task_MP_exp2,2020.2.5,Win32,60,m,1,0.813,,,,,,,,0.813,1,,,,,,166,WORD,"ID",16,starch,STARCH,m,,,,,,0.62109375,-0.421875,0,0,0,,0,108,108,105,1,,
,,,,,,,,,,,,,,,,,,5cba2e9af429ff00159dda71,2020-11-26_16h00.20.925,lexical_decision_task_MP_exp2,2020.2.5,Win32,60,z,1,0.67941,,,,,,,,0.67941,1,,,,,,339,NW,"ID",33,fachow,FACHOW,z,,,,,,0.62109375,-0.421875,0,0,0,,0,109,109,278,1,,
,,,,,,,,,,,,,,,,,,5cba2e9af429ff00159dda71,2020-11-26_16h00.20.925,lexical_decision_task_MP_exp2,2020.2.5,Win32,60,m,1,0.687175,,,,,,,,0.687175,1,,,,,,95,WORD,"ID",33,thread,THREAD,m,,,,,,0.62109375,-0.421875,0,0,0,,0,110,110,34,1,,
,,,,,,,,,,,,,,,,,,5cba2e9af429ff00159dda71,2020-11-26_16h00.20.925,lexical_decision_task_MP_exp2,2020.2.5,Win32,60,z,1,0.70563,,,,,,,,0.70563,1,,,,,,269,NW,UN,16,wrimsy,ORCHET,z,,,,,,0.62109375,-0.421875,0,0,0,,0,111,111,448,1,,
,,,,,,,,,,,,,,,,,,5cba2e9af429ff00159dda71,2020-11-26_16h00.20.925,lexical_decision_task_MP_exp2,2020.2.5,Win32,60,m,1,0.6562,,,,,,,,0.6562,1,,,,,,148,WORD,"ID",16,custom,CUSTOM,m,,,,,,0.62109375,-0.421875,0,0,0,,0,112,112,87,1,,
,,,,,,,,,,,,,,,,,,5cba2e9af429ff00159dda71,2020-11-26_16h00.20.925,lexical_decision_task_MP_exp2,2020.2.5,Win32,60,m,1,0.797065,,,,,,,,0.797065,1,,,,,,60,WORD,UN,16,fright,PENCIL,m,,,,,,0.62109375,-0.421875,0,0,0,,0,113,113,239,1,,
,,,,,,,,,,,,,,,,,,5cba2e9af429ff00159dda71,2020-11-26_16h00.20.925,lexical_decision_task_MP_exp2,2020.2.5,Win32,60,m,1,0.67891,,,,,,,,0.67891,1,,,,,,20,WORD,UN,16,simple,BREAST,m,,,,,,0.62109375,-0.421875,0,0,0,,0,114,114,199,1,,
,,,,,,,,,,,,,,,,,,5cba2e9af429ff00159dda71,2020-11-26_16h00.20.925,lexical_decision_task_MP_exp2,2020.2.5,Win32,60,m,1,0.677935,,,,,,,,0.677935,1,,,,,,202,WORD,UN,33,phrase,FACTOR,m,,,,,,0.62109375,-0.421875,0,0,0,,0,115,115,141,1,,
,,,,,,,,,,,,,,,,,,5cba2e9af429ff00159dda71,2020-11-26_16h00.20.925,lexical_decision_task_MP_exp2,2020.2.5,Win32,60,m,1,0.66967,,,,,,,,0.66967,1,,,,,,74,WORD,"ID",33,plaque,PLAQUE,m,,,,,,0.62109375,-0.421875,0,0,0,,0,116,116,13,1,,
,,,,,,,,,,,,,,,,,,5cba2e9af429ff00159dda71,2020-11-26_16h00.20.925,lexical_decision_task_MP_exp2,2020.2.5,Win32,60,z,1,0.812785,,,,,,,,0.812785,1,,,,,,284,NW,UN,16,prudge,SHAPLE,z,,,,,,0.62109375,-0.421875,0,0,0,,0,117,117,463,1,,
,,,,,,,,,,,,,,,,,,5cba2e9af429ff00159dda71,2020-11-26_16h00.20.925,lexical_decision_task_MP_exp2,2020.2.5,Win32,60,z,1,1.057835,,,,,,,,1.057835,1,,,,,,402,NW,"ID",16,syntic,SYNTIC,z,,,,,,0.62109375,-0.421875,0,0,0,,0,118,118,341,1,,
,,,,,,,,,,,,,,,,,,5cba2e9af429ff00159dda71,2020-11-26_16h00.20.925,lexical_decision_task_MP_exp2,2020.2.5,Win32,60,m,1,0.676485,,,,,,,,0.676485,1,,,,,,6,WORD,UN,16,anchor,BUNDLE,m,,,,,,0.62109375,-0.421875,0,0,0,,0,119,119,185,1,,
,,,,,,,,,,,,,,,,,,5cba2e9af429ff00159dda71,2020-11-26_16h00.20.925,lexical_decision_task_MP_exp2,2020.2.5,Win32,60,z,1,0.636915,,,,,,,,0.636915,1,,,,,,387,NW,"ID",16,gronce,GRONCE,z,,,,,,0.673177083,-0.325520833,0,0,0,space,0,120,120,326,1,66.574735,
,,,,,,,,,,,,,,,,,,5cba2e9af429ff00159dda71,2020-11-26_16h00.20.925,lexical_decision_task_MP_exp2,2020.2.5,Win32,60,m,1,1.03205,,,,,,,,1.03205,1,,,,,,90,WORD,"ID",33,relish,RELISH,m,,,,,,0.673177083,-0.325520833,0,0,0,,0,121,121,29,1,,
,,,,,,,,,,,,,,,,,,5cba2e9af429ff00159dda71,2020-11-26_16h00.20.925,lexical_decision_task_MP_exp2,2020.2.5,Win32,60,z,1,0.64731,,,,,,,,0.64731,1,,,,,,351,NW,"ID",33,tiesch,TIESCH,z,,,,,,0.673177083,-0.325520833,0,0,0,,0,122,122,290,1,,
,,,,,,,,,,,,,,,,,,5cba2e9af429ff00159dda71,2020-11-26_16h00.20.925,lexical_decision_task_MP_exp2,2020.2.5,Win32,60,z,1,0.868915,,,,,,,,0.868915,1,,,,,,369,NW,"ID",16,wronch,WRONCH,z,,,,,,0.671875,-0.325520833,0,0,0,,0,123,123,308,1,,
,,,,,,,,,,,,,,,,,,5cba2e9af429ff00159dda71,2020-11-26_16h00.20.925,lexical_decision_task_MP_exp2,2020.2.5,Win32,60,z,1,0.68841,,,,,,,,0.68841,1,,,,,,465,NW,UN,33,bafent,WHIVEX,z,,,,,,0.671875,-0.325520833,0,0,0,,0,124,124,404,1,,
,,,,,,,,,,,,,,,,,,5cba2e9af429ff00159dda71,2020-11-26_16h00.20.925,lexical_decision_task_MP_exp2,2020.2.5,Win32,60,m,1,0.91564,,,,,,,,0.91564,1,,,,,,207,WORD,UN,33,hockey,WREATH,m,,,,,,0.671875,-0.325520833,0,0,0,,0,125,125,146,1,,
,,,,,,,,,,,,,,,,,,5cba2e9af429ff00159dda71,2020-11-26_16h00.20.925,lexical_decision_task_MP_exp2,2020.2.5,Win32,60,z,1,0.7762,,,,,,,,0.7762,1,,,,,,409,NW,"ID",16,elopia,ELOPIA,z,,,,,,0.671875,-0.325520833,0,0,0,,0,126,126,348,1,,
,,,,,,,,,,,,,,,,,,5cba2e9af429ff00159dda71,2020-11-26_16h00.20.925,lexical_decision_task_MP_exp2,2020.2.5,Win32,60,m,1,0.76963,,,,,,,,0.76963,1,,,,,,103,WORD,"ID",33,bounce,BOUNCE,m,,,,,,0.671875,-0.325520833,0,0,0,,0,127,127,42,1,,
,,,,,,,,,,,,,,,,,,5cba2e9af429ff00159dda71,2020-11-26_16h00.20.925,lexical_decision_task_MP_exp2,2020.2.5,Win32,60,m,1,0.76288,,,,,,,,0.76288,1,,,,,,165,WORD,"ID",16,invest,INVEST,m,,,,,,0.671875,-0.325520833,0,0,0,,0,128,128,104,1,,
,,,,,,,,,,,,,,,,,,5cba2e9af429ff00159dda71,2020-11-26_16h00.20.925,lexical_decision_task_MP_exp2,2020.2.5,Win32,60,m,1,0.627695,,,,,,,,0.627695,1,,,,,,138,WORD,"ID",16,melody,MELODY,m,,,,,,0.671875,-0.325520833,0,0,0,,0,129,129,77,1,,
,,,,,,,,,,,,,,,,,,5cba2e9af429ff00159dda71,2020-11-26_16h00.20.925,lexical_decision_task_MP_exp2,2020.2.5,Win32,60,m,1,0.60694,,,,,,,,0.60694,1,,,,,,123,WORD,"ID",16,strike,STRIKE,m,,,,,,0.671875,-0.325520833,0,0,0,,0,130,130,62,1,,
,,,,,,,,,,,,,,,,,,5cba2e9af429ff00159dda71,2020-11-26_16h00.20.925,lexical_decision_task_MP_exp2,2020.2.5,Win32,60,z,1,0.62031,,,,,,,,0.62031,1,,,,,,329,NW,"ID",33,yarike,YARIKE,z,,,,,,0.671875,-0.325520833,0,0,0,,0,131,131,268,1,,
,,,,,,,,,,,,,,,,,,5cba2e9af429ff00159dda71,2020-11-26_16h00.20.925,lexical_decision_task_MP_exp2,2020.2.5,Win32,60,m,1,0.58385,,,,,,,,0.58385,1,,,,,,98,WORD,"ID",33,belong,BELONG,m,,,,,,0.671875,-0.325520833,0,0,0,,0,132,132,37,1,,
,,,,,,,,,,,,,,,,,,5cba2e9af429ff00159dda71,2020-11-26_16h00.20.925,lexical_decision_task_MP_exp2,2020.2.5,Win32,60,m,1,0.90319,,,,,,,,0.90319,1,,,,,,218,WORD,UN,33,bucket,SHRINK,m,,,,,,0.671875,-0.325520833,0,0,0,,0,133,133,157,1,,
,,,,,,,,,,,,,,,,,,5cba2e9af429ff00159dda71,2020-11-26_16h00.20.925,lexical_decision_task_MP_exp2,2020.2.5,Win32,60,m,1,0.841745,,,,,,,,0.841745,1,,,,,,68,WORD,"ID",33,fumble,FUMBLE,m,,,,,,0.671875,-0.325520833,0,0,0,,0,134,134,7,1,,
,,,,,,,,,,,,,,,,,,5cba2e9af429ff00159dda71,2020-11-26_16h00.20.925,lexical_decision_task_MP_exp2,2020.2.5,Win32,60,z,1,0.78513,,,,,,,,0.78513,1,,,,,,265,NW,UN,16,varmit,DISTAR,z,,,,,,0.671875,-0.325520833,0,0,0,,0,135,135,444,1,,
,,,,,,,,,,,,,,,,,,5cba2e9af429ff00159dda71,2020-11-26_16h00.20.925,lexical_decision_task_MP_exp2,2020.2.5,Win32,60,z,1,0.86728,,,,,,,,0.86728,1,,,,,,295,NW,UN,16,beinch,GLEATH,z,,,,,,0.671875,-0.325520833,0,0,0,,0,136,136,474,1,,
,,,,,,,,,,,,,,,,,,5cba2e9af429ff00159dda71,2020-11-26_16h00.20.925,lexical_decision_task_MP_exp2,2020.2.5,Win32,60,m,1,0.613975,,,,,,,,0.613975,1,,,,,,31,WORD,UN,16,buckle,WEAPON,m,,,,,,0.671875,-0.325520833,0,0,0,,0,137,137,210,1,,
,,,,,,,,,,,,,,,,,,5cba2e9af429ff00159dda71,2020-11-26_16h00.20.925,lexical_decision_task_MP_exp2,2020.2.5,Win32,60,z,1,0.663945,,,,,,,,0.663945,1,,,,,,241,NW,UN,16,unwert,SMENCO,z,,,,,,0.671875,-0.325520833,0,0,0,,0,138,138,420,1,,
,,,,,,,,,,,,,,,,,,5cba2e9af429ff00159dda71,2020-11-26_16h00.20.925,lexical_decision_task_MP_exp2,2020.2.5,Win32,60,m,1,0.739715,,,,,,,,0.739715,1,,,,,,4,WORD,UN,16,plunge,TRENCH,m,,,,,,0.671875,-0.325520833,0,0,0,,0,139,139,183,1,,
,,,,,,,,,,,,,,,,,,5cba2e9af429ff00159dda71,2020-11-26_16h00.20.925,lexical_decision_task_MP_exp2,2020.2.5,Win32,60,z,1,0.64705,,,,,,,,0.64705,1,,,,,,324,NW,"ID",33,steikh,STEIKH,z,,,,,,0.671875,-0.325520833,0,0,0,,0,140,140,263,1,,
,,,,,,,,,,,,,,,,,,5cba2e9af429ff00159dda71,2020-11-26_16h00.20.925,lexical_decision_task_MP_exp2,2020.2.5,Win32,60,z,1,0.87285,,,,,,,,0.87285,1,,,,,,427,NW,UN,33,tandly,SCHIND,z,,,,,,0.671875,-0.325520833,0,0,0,,0,141,141,366,1,,
,,,,,,,,,,,,,,,,,,5cba2e9af429ff00159dda71,2020-11-26_16h00.20.925,lexical_decision_task_MP_exp2,2020.2.5,Win32,60,z,1,0.89147,,,,,,,,0.89147,1,,,,,,302,NW,"ID",33,miluer,MILUER,z,,,,,,0.671875,-0.325520833,0,0,0,,0,142,142,241,1,,
,,,,,,,,,,,,,,,,,,5cba2e9af429ff00159dda71,2020-11-26_16h00.20.925,lexical_decision_task_MP_exp2,2020.2.5,Win32,60,m,1,0.62579,,,,,,,,0.62579,1,,,,,,35,WORD,UN,16,vanish,SOCKET,m,,,,,,0.671875,-0.325520833,0,0,0,,0,143,143,214,1,,
,,,,,,,,,,,,,,,,,,5cba2e9af429ff00159dda71,2020-11-26_16h00.20.925,lexical_decision_task_MP_exp2,2020.2.5,Win32,60,z,1,0.71766,,,,,,,,0.71766,1,,,,,,375,NW,"ID",16,yorque,YORQUE,z,,,,,,0.671875,-0.325520833,0,0,0,,0,144,144,314,1,,
,,,,,,,,,,,,,,,,,,5cba2e9af429ff00159dda71,2020-11-26_16h00.20.925,lexical_decision_task_MP_exp2,2020.2.5,Win32,60,m,1,0.81537,,,,,,,,0.81537,1,,,,,,110,WORD,"ID",33,polite,POLITE,m,,,,,,0.671875,-0.325520833,0,0,0,,0,145,145,49,1,,
,,,,,,,,,,,,,,,,,,5cba2e9af429ff00159dda71,2020-11-26_16h00.20.925,lexical_decision_task_MP_exp2,2020.2.5,Win32,60,m,1,0.824945,,,,,,,,0.824945,1,,,,,,114,WORD,"ID",33,placid,PLACID,m,,,,,,0.671875,-0.325520833,0,0,0,,0,146,146,53,1,,
,,,,,,,,,,,,,,,,,,5cba2e9af429ff00159dda71,2020-11-26_16h00.20.925,lexical_decision_task_MP_exp2,2020.2.5,Win32,60,m,1,0.69567,,,,,,,,0.69567,1,,,,,,193,WORD,UN,33,mildew,OBJECT,m,,,,,,0.671875,-0.325520833,0,0,0,,0,147,147,132,1,,
,,,,,,,,,,,,,,,,,,5cba2e9af429ff00159dda71,2020-11-26_16h00.20.925,lexical_decision_task_MP_exp2,2020.2.5,Win32,60,m,1,0.83985,,,,,,,,0.83985,1,,,,,,96,WORD,"ID",33,ignore,IGNORE,m,,,,,,0.671875,-0.325520833,0,0,0,,0,148,148,35,1,,
,,,,,,,,,,,,,,,,,,5cba2e9af429ff00159dda71,2020-11-26_16h00.20.925,lexical_decision_task_MP_exp2,2020.2.5,Win32,60,m,1,0.656405,,,,,,,,0.656405,1,,,,,,18,WORD,UN,16,patron,HUMBLE,m,,,,,,0.671875,-0.325520833,0,0,0,,0,149,149,197,1,,
,,,,,,,,,,,,,,,,,,5cba2e9af429ff00159dda71,2020-11-26_16h00.20.925,lexical_decision_task_MP_exp2,2020.2.5,Win32,60,m,1,0.650795,,,,,,,,0.650795,1,,,,,,128,WORD,"ID",16,senior,SENIOR,m,,,,,,0.671875,-0.325520833,0,0,0,,0,150,150,67,1,,
,,,,,,,,,,,,,,,,,,5cba2e9af429ff00159dda71,2020-11-26_16h00.20.925,lexical_decision_task_MP_exp2,2020.2.5,Win32,60,z,1,0.718575,,,,,,,,0.718575,1,,,,,,403,NW,"ID",16,bruats,BRUATS,z,,,,,,0.671875,-0.325520833,0,0,0,,0,151,151,342,1,,
,,,,,,,,,,,,,,,,,,5cba2e9af429ff00159dda71,2020-11-26_16h00.20.925,lexical_decision_task_MP_exp2,2020.2.5,Win32,60,m,1,0.720845,,,,,,,,0.720845,1,,,,,,162,WORD,"ID",16,candle,CANDLE,m,,,,,,0.671875,-0.325520833,0,0,0,,0,152,152,101,1,,
,,,,,,,,,,,,,,,,,,5cba2e9af429ff00159dda71,2020-11-26_16h00.20.925,lexical_decision_task_MP_exp2,2020.2.5,Win32,60,z,1,0.78037,,,,,,,,0.78037,1,,,,,,291,NW,UN,16,ablint,PRETCH,z,,,,,,0.671875,-0.325520833,0,0,0,,0,153,153,470,1,,
,,,,,,,,,,,,,,,,,,5cba2e9af429ff00159dda71,2020-11-26_16h00.20.925,lexical_decision_task_MP_exp2,2020.2.5,Win32,60,z,1,0.910755,,,,,,,,0.910755,1,,,,,,338,NW,"ID",33,wreash,WREASH,z,,,,,,0.671875,-0.325520833,0,0,0,,0,154,154,277,1,,
,,,,,,,,,,,,,,,,,,5cba2e9af429ff00159dda71,2020-11-26_16h00.20.925,lexical_decision_task_MP_exp2,2020.2.5,Win32,60,m,1,0.75008,,,,,,,,0.75008,1,,,,,,199,WORD,UN,33,plague,INVOKE,m,,,,,,0.671875,-0.325520833,0,0,0,,0,155,155,138,1,,
,,,,,,,,,,,,,,,,,,5cba2e9af429ff00159dda71,2020-11-26_16h00.20.925,lexical_decision_task_MP_exp2,2020.2.5,Win32,60,z,1,0.79513,,,,,,,,0.79513,1,,,,,,288,NW,UN,16,starby,YACEUP,z,,,,,,0.671875,-0.325520833,0,0,0,,0,156,156,467,1,,
,,,,,,,,,,,,,,,,,,5cba2e9af429ff00159dda71,2020-11-26_16h00.20.925,lexical_decision_task_MP_exp2,2020.2.5,Win32,60,z,1,0.798065,,,,,,,,0.798065,1,,,,,,359,NW,"ID",33,fonver,FONVER,z,,,,,,0.671875,-0.325520833,0,0,0,,0,157,157,298,1,,
,,,,,,,,,,,,,,,,,,5cba2e9af429ff00159dda71,2020-11-26_16h00.20.925,lexical_decision_task_MP_exp2,2020.2.5,Win32,60,m,1,0.766145,,,,,,,,0.766145,1,,,,,,175,WORD,"ID",16,fabric,FABRIC,m,,,,,,0.671875,-0.325520833,0,0,0,,0,158,158,114,1,,
,,,,,,,,,,,,,,,,,,5cba2e9af429ff00159dda71,2020-11-26_16h00.20.925,lexical_decision_task_MP_exp2,2020.2.5,Win32,60,z,1,0.68298,,,,,,,,0.68298,1,,,,,,286,NW,UN,16,nymbel,RELDON,z,,,,,,0.671875,-0.325520833,0,0,0,,0,159,159,465,1,,
,,,,,,,,,,,,,,,,,,5cba2e9af429ff00159dda71,2020-11-26_16h00.20.925,lexical_decision_task_MP_exp2,2020.2.5,Win32,60,m,1,0.74021,,,,,,,,0.74021,1,,,,,,133,WORD,"ID",16,chrome,CHROME,m,,,,,,0.671875,-0.325520833,0,0,0,,0,160,160,72,1,,
,,,,,,,,,,,,,,,,,,5cba2e9af429ff00159dda71,2020-11-26_16h00.20.925,lexical_decision_task_MP_exp2,2020.2.5,Win32,60,z,1,0.81355,,,,,,,,0.81355,1,,,,,,389,NW,"ID",16,witmer,WITMER,z,,,,,,0.671875,-0.325520833,0,0,0,,0,161,161,328,1,,
,,,,,,,,,,,,,,,,,,5cba2e9af429ff00159dda71,2020-11-26_16h00.20.925,lexical_decision_task_MP_exp2,2020.2.5,Win32,60,z,1,0.795195,,,,,,,,0.795195,1,,,,,,292,NW,UN,16,swance,ABLINT,z,,,,,,0.671875,-0.325520833,0,0,0,,0,162,162,471,1,,
,,,,,,,,,,,,,,,,,,5cba2e9af429ff00159dda71,2020-11-26_16h00.20.925,lexical_decision_task_MP_exp2,2020.2.5,Win32,60,m,1,0.66144,,,,,,,,0.66144,1,,,,,,198,WORD,UN,33,invoke,WICKED,m,,,,,,0.671875,-0.325520833,0,0,0,,0,163,163,137,1,,
,,,,,,,,,,,,,,,,,,5cba2e9af429ff00159dda71,2020-11-26_16h00.20.925,lexical_decision_task_MP_exp2,2020.2.5,Win32,60,z,1,0.79804,,,,,,,,0.79804,1,,,,,,298,NW,UN,16,sturch,PIERGY,z,,,,,,0.671875,-0.325520833,0,0,0,,0,164,164,477,1,,
,,,,,,,,,,,,,,,,,,5cba2e9af429ff00159dda71,2020-11-26_16h00.20.925,lexical_decision_task_MP_exp2,2020.2.5,Win32,60,z,1,0.63239,,,,,,,,0.63239,1,,,,,,331,NW,"ID",33,gilfew,GILFEW,z,,,,,,0.671875,-0.325520833,0,0,0,,0,165,165,270,1,,
,,,,,,,,,,,,,,,,,,5cba2e9af429ff00159dda71,2020-11-26_16h00.20.925,lexical_decision_task_MP_exp2,2020.2.5,Win32,60,z,1,0.73045,,,,,,,,0.73045,1,,,,,,255,NW,UN,16,inlors,APIGHT,z,,,,,,0.671875,-0.325520833,0,0,0,,0,166,166,434,1,,
,,,,,,,,,,,,,,,,,,5cba2e9af429ff00159dda71,2020-11-26_16h00.20.925,lexical_decision_task_MP_exp2,2020.2.5,Win32,60,m,1,0.592255,,,,,,,,0.592255,1,,,,,,191,WORD,UN,33,beacon,STABLE,m,,,,,,0.671875,-0.325520833,0,0,0,,0,167,167,130,1,,
,,,,,,,,,,,,,,,,,,5cba2e9af429ff00159dda71,2020-11-26_16h00.20.925,lexical_decision_task_MP_exp2,2020.2.5,Win32,60,z,1,0.722665,,,,,,,,0.722665,1,,,,,,420,NW,"ID",16,gushop,GUSHOP,z,,,,,,0.671875,-0.325520833,0,0,0,,0,168,168,359,1,,
,,,,,,,,,,,,,,,,,,5cba2e9af429ff00159dda71,2020-11-26_16h00.20.925,lexical_decision_task_MP_exp2,2020.2.5,Win32,60,m,1,0.635435,,,,,,,,0.635435,1,,,,,,51,WORD,UN,16,impose,HUNGRY,m,,,,,,0.671875,-0.325520833,0,0,0,,0,169,169,230,1,,
,,,,,,,,,,,,,,,,,,5cba2e9af429ff00159dda71,2020-11-26_16h00.20.925,lexical_decision_task_MP_exp2,2020.2.5,Win32,60,m,1,0.599135,,,,,,,,0.599135,1,,,,,,2,WORD,UN,16,knight,BRIDGE,m,,,,,,0.671875,-0.325520833,0,0,0,,0,170,170,181,1,,
,,,,,,,,,,,,,,,,,,5cba2e9af429ff00159dda71,2020-11-26_16h00.20.925,lexical_decision_task_MP_exp2,2020.2.5,Win32,60,z,1,0.59709,,,,,,,,0.59709,1,,,,,,243,NW,UN,16,eatric,MUSIED,z,,,,,,0.671875,-0.325520833,0,0,0,,0,171,171,422,1,,
,,,,,,,,,,,,,,,,,,5cba2e9af429ff00159dda71,2020-11-26_16h00.20.925,lexical_decision_task_MP_exp2,2020.2.5,Win32,60,z,1,0.612305,,,,,,,,0.612305,1,,,,,,272,NW,UN,16,sortel,DAMILT,z,,,,,,0.671875,-0.325520833,0,0,0,,0,172,172,451,1,,
,,,,,,,,,,,,,,,,,,5cba2e9af429ff00159dda71,2020-11-26_16h00.20.925,lexical_decision_task_MP_exp2,2020.2.5,Win32,60,z,1,0.61478,,,,,,,,0.61478,1,,,,,,448,NW,UN,33,brunge,SADENT,z,,,,,,0.671875,-0.325520833,0,0,0,,0,173,173,387,1,,
,,,,,,,,,,,,,,,,,,5cba2e9af429ff00159dda71,2020-11-26_16h00.20.925,lexical_decision_task_MP_exp2,2020.2.5,Win32,60,m,1,0.60538,,,,,,,,0.60538,1,,,,,,73,WORD,"ID",33,source,SOURCE,m,,,,,,0.671875,-0.325520833,0,0,0,,0,174,174,12,1,,
,,,,,,,,,,,,,,,,,,5cba2e9af429ff00159dda71,2020-11-26_16h00.20.925,lexical_decision_task_MP_exp2,2020.2.5,Win32,60,z,1,0.87528,,,,,,,,0.87528,1,,,,,,461,NW,UN,33,absult,JUSTRE,z,,,,,,0.671875,-0.325520833,0,0,0,,0,175,175,400,1,,
,,,,,,,,,,,,,,,,,,5cba2e9af429ff00159dda71,2020-11-26_16h00.20.925,lexical_decision_task_MP_exp2,2020.2.5,Win32,60,m,1,0.89509,,,,,,,,0.89509,1,,,,,,190,WORD,UN,33,stable,BACKUP,m,,,,,,0.671875,-0.325520833,0,0,0,,0,176,176,129,1,,
,,,,,,,,,,,,,,,,,,5cba2e9af429ff00159dda71,2020-11-26_16h00.20.925,lexical_decision_task_MP_exp2,2020.2.5,Win32,60,m,1,0.77675,,,,,,,,0.77675,1,,,,,,100,WORD,"ID",33,carbon,CARBON,m,,,,,,0.671875,-0.325520833,0,0,0,,0,177,177,39,1,,
,,,,,,,,,,,,,,,,,,5cba2e9af429ff00159dda71,2020-11-26_16h00.20.925,lexical_decision_task_MP_exp2,2020.2.5,Win32,60,m,1,0.712115,,,,,,,,0.712115,1,,,,,,5,WORD,UN,16,bundle,PLUNGE,m,,,,,,0.671875,-0.325520833,0,0,0,,0,178,178,184,1,,
,,,,,,,,,,,,,,,,,,5cba2e9af429ff00159dda71,2020-11-26_16h00.20.925,lexical_decision_task_MP_exp2,2020.2.5,Win32,60,z,1,0.734065,,,,,,,,0.734065,1,,,,,,250,NW,UN,16,lupict,MILTED,z,,,,,,0.671875,-0.325520833,0,0,0,,0,179,179,429,1,,
,,,,,,,,,,,,,,,,,,5cba2e9af429ff00159dda71,2020-11-26_16h00.20.925,lexical_decision_task_MP_exp2,2020.2.5,Win32,60,m,1,0.78172,,,,,,,,0.78172,1,,,,,,183,WORD,UN,33,sleazy,MILDEW,m,,,,,,0.671875,-0.325520833,0,0,0,,0,180,180,122,1,,
,,,,,,,,,,,,,,,,,,5cba2e9af429ff00159dda71,2020-11-26_16h00.20.925,lexical_decision_task_MP_exp2,2020.2.5,Win32,60,m,1,0.803485,,,,,,,,0.803485,1,,,,,,131,WORD,"ID",16,quench,QUENCH,m,,,,,,0.671875,-0.325520833,0,0,0,,0,181,181,70,1,,
,,,,,,,,,,,,,,,,,,5cba2e9af429ff00159dda71,2020-11-26_16h00.20.925,lexical_decision_task_MP_exp2,2020.2.5,Win32,60,m,1,0.748305,,,,,,,,0.748305,1,,,,,,115,WORD,"ID",33,guitar,GUITAR,m,,,,,,0.671875,-0.325520833,0,0,0,,0,182,182,54,1,,
,,,,,,,,,,,,,,,,,,5cba2e9af429ff00159dda71,2020-11-26_16h00.20.925,lexical_decision_task_MP_exp2,2020.2.5,Win32,60,z,1,0.77,,,,,,,,0.77,1,,,,,,320,NW,"ID",33,jockal,JOCKAL,z,,,,,,0.671875,-0.325520833,0,0,0,,0,183,183,259,1,,
,,,,,,,,,,,,,,,,,,5cba2e9af429ff00159dda71,2020-11-26_16h00.20.925,lexical_decision_task_MP_exp2,2020.2.5,Win32,60,z,1,0.74158,,,,,,,,0.74158,1,,,,,,343,NW,"ID",33,aimosy,AIMOSY,z,,,,,,0.671875,-0.325520833,0,0,0,,0,184,184,282,1,,
,,,,,,,,,,,,,,,,,,5cba2e9af429ff00159dda71,2020-11-26_16h00.20.925,lexical_decision_task_MP_exp2,2020.2.5,Win32,60,z,1,0.69864,,,,,,,,0.69864,1,,,,,,367,NW,"ID",16,slique,SLIQUE,z,,,,,,0.671875,-0.325520833,0,0,0,,0,185,185,306,1,,
,,,,,,,,,,,,,,,,,,5cba2e9af429ff00159dda71,2020-11-26_16h00.20.925,lexical_decision_task_MP_exp2,2020.2.5,Win32,60,z,1,0.642095,,,,,,,,0.642095,1,,,,,,289,NW,UN,16,splino,STARBY,z,,,,,,0.671875,-0.325520833,0,0,0,,0,186,186,468,1,,
,,,,,,,,,,,,,,,,,,5cba2e9af429ff00159dda71,2020-11-26_16h00.20.925,lexical_decision_task_MP_exp2,2020.2.5,Win32,60,m,1,0.665005,,,,,,,,0.665005,1,,,,,,153,WORD,"ID",16,behold,BEHOLD,m,,,,,,0.671875,-0.325520833,0,0,0,,0,187,187,92,1,,
,,,,,,,,,,,,,,,,,,5cba2e9af429ff00159dda71,2020-11-26_16h00.20.925,lexical_decision_task_MP_exp2,2020.2.5,Win32,60,m,1,0.9676,,,,,,,,0.9676,1,,,,,,238,WORD,UN,33,behalf,FLOWER,m,,,,,,0.671875,-0.325520833,0,0,0,,0,188,188,177,1,,
,,,,,,,,,,,,,,,,,,5cba2e9af429ff00159dda71,2020-11-26_16h00.20.925,lexical_decision_task_MP_exp2,2020.2.5,Win32,60,z,1,0.729085,,,,,,,,0.729085,1,,,,,,352,NW,"ID",33,tringe,TRINGE,z,,,,,,0.671875,-0.325520833,0,0,0,,0,189,189,291,1,,
,,,,,,,,,,,,,,,,,,5cba2e9af429ff00159dda71,2020-11-26_16h00.20.925,lexical_decision_task_MP_exp2,2020.2.5,Win32,60,z,1,0.933745,,,,,,,,0.933745,1,,,,,,326,NW,"ID",33,iguade,IGUADE,z,,,,,,0.671875,-0.325520833,0,0,0,,0,190,190,265,1,,
,,,,,,,,,,,,,,,,,,5cba2e9af429ff00159dda71,2020-11-26_16h00.20.925,lexical_decision_task_MP_exp2,2020.2.5,Win32,60,z,1,0.81887,,,,,,,,0.81887,1,,,,,,388,NW,"ID",16,cragin,CRAGIN,z,,,,,,0.671875,-0.325520833,0,0,0,,0,191,191,327,1,,
,,,,,,,,,,,,,,,,,,5cba2e9af429ff00159dda71,2020-11-26_16h00.20.925,lexical_decision_task_MP_exp2,2020.2.5,Win32,60,m,1,0.83018,,,,,,,,0.83018,1,,,,,,142,WORD,"ID",16,spruce,SPRUCE,m,,,,,,0.671875,-0.325520833,0,0,0,,0,192,192,81,1,,
,,,,,,,,,,,,,,,,,,5cba2e9af429ff00159dda71,2020-11-26_16h00.20.925,lexical_decision_task_MP_exp2,2020.2.5,Win32,60,m,1,0.78628,,,,,,,,0.78628,1,,,,,,231,WORD,UN,33,inject,EXPORT,m,,,,,,0.671875,-0.325520833,0,0,0,,0,193,193,170,1,,
,,,,,,,,,,,,,,,,,,5cba2e9af429ff00159dda71,2020-11-26_16h00.20.925,lexical_decision_task_MP_exp2,2020.2.5,Win32,60,m,1,0.822435,,,,,,,,0.822435,1,,,,,,204,WORD,UN,33,lounge,BURDEN,m,,,,,,0.671875,-0.325520833,0,0,0,,0,194,194,143,1,,
,,,,,,,,,,,,,,,,,,5cba2e9af429ff00159dda71,2020-11-26_16h00.20.925,lexical_decision_task_MP_exp2,2020.2.5,Win32,60,z,1,0.95199,,,,,,,,0.95199,1,,,,,,392,NW,"ID",16,rouncy,ROUNCY,z,,,,,,0.671875,-0.325520833,0,0,0,,0,195,195,331,1,,
,,,,,,,,,,,,,,,,,,5cba2e9af429ff00159dda71,2020-11-26_16h00.20.925,lexical_decision_task_MP_exp2,2020.2.5,Win32,60,z,1,0.89616,,,,,,,,0.89616,1,,,,,,336,NW,"ID",33,ghodus,GHODUS,z,,,,,,0.671875,-0.325520833,0,0,0,,0,196,196,275,1,,
,,,,,,,,,,,,,,,,,,5cba2e9af429ff00159dda71,2020-11-26_16h00.20.925,lexical_decision_task_MP_exp2,2020.2.5,Win32,60,z,1,0.85458,,,,,,,,0.85458,1,,,,,,342,NW,"ID",33,randow,RANDOW,z,,,,,,0.671875,-0.325520833,0,0,0,,0,197,197,281,1,,
,,,,,,,,,,,,,,,,,,5cba2e9af429ff00159dda71,2020-11-26_16h00.20.925,lexical_decision_task_MP_exp2,2020.2.5,Win32,60,m,1,0.780775,,,,,,,,0.780775,1,,,,,,59,WORD,UN,16,pencil,SPLINT,m,,,,,,0.671875,-0.325520833,0,0,0,,0,198,198,238,1,,
,,,,,,,,,,,,,,,,,,5cba2e9af429ff00159dda71,2020-11-26_16h00.20.925,lexical_decision_task_MP_exp2,2020.2.5,Win32,60,m,1,0.920345,,,,,,,,0.920345,1,,,,,,143,WORD,"ID",16,reason,REASON,m,,,,,,0.671875,-0.325520833,0,0,0,,0,199,199,82,1,,
,,,,,,,,,,,,,,,,,,5cba2e9af429ff00159dda71,2020-11-26_16h00.20.925,lexical_decision_task_MP_exp2,2020.2.5,Win32,60,z,1,0.773215,,,,,,,,0.773215,1,,,,,,400,NW,"ID",16,wearox,WEAROX,z,,,,,,0.671875,-0.325520833,0,0,0,,0,200,200,339,1,,
,,,,,,,,,,,,,,,,,,5cba2e9af429ff00159dda71,2020-11-26_16h00.20.925,lexical_decision_task_MP_exp2,2020.2.5,Win32,60,z,1,0.68159,,,,,,,,0.68159,1,,,,,,307,NW,"ID",33,kirafe,KIRAFE,z,,,,,,0.671875,-0.325520833,0,0,0,,0,201,201,246,1,,
,,,,,,,,,,,,,,,,,,5cba2e9af429ff00159dda71,2020-11-26_16h00.20.925,lexical_decision_task_MP_exp2,2020.2.5,Win32,60,z,1,0.933955,,,,,,,,0.933955,1,,,,,,398,NW,"ID",16,blunde,BLUNDE,z,,,,,,0.671875,-0.325520833,0,0,0,,0,202,202,337,1,,
,,,,,,,,,,,,,,,,,,5cba2e9af429ff00159dda71,2020-11-26_16h00.20.925,lexical_decision_task_MP_exp2,2020.2.5,Win32,60,m,1,0.63819,,,,,,,,0.63819,1,,,,,,164,WORD,"ID",16,market,MARKET,m,,,,,,0.671875,-0.325520833,0,0,0,,0,203,203,103,1,,
,,,,,,,,,,,,,,,,,,5cba2e9af429ff00159dda71,2020-11-26_16h00.20.925,lexical_decision_task_MP_exp2,2020.2.5,Win32,60,m,1,0.782895,,,,,,,,0.782895,1,,,,,,36,WORD,UN,16,insult,VANISH,m,,,,,,0.671875,-0.325520833,0,0,0,,0,204,204,215,1,,
,,,,,,,,,,,,,,,,,,5cba2e9af429ff00159dda71,2020-11-26_16h00.20.925,lexical_decision_task_MP_exp2,2020.2.5,Win32,60,z,1,0.720765,,,,,,,,0.720765,1,,,,,,415,NW,"ID",16,higsta,HIGSTA,z,,,,,,0.671875,-0.325520833,0,0,0,,0,205,205,354,1,,
,,,,,,,,,,,,,,,,,,5cba2e9af429ff00159dda71,2020-11-26_16h00.20.925,lexical_decision_task_MP_exp2,2020.2.5,Win32,60,z,1,0.771085,,,,,,,,0.771085,1,,,,,,267,NW,UN,16,packes,PASINK,z,,,,,,0.671875,-0.325520833,0,0,0,,0,206,206,446,1,,
,,,,,,,,,,,,,,,,,,5cba2e9af429ff00159dda71,2020-11-26_16h00.20.925,lexical_decision_task_MP_exp2,2020.2.5,Win32,60,m,1,0.69707,,,,,,,,0.69707,1,,,,,,113,WORD,"ID",33,chorus,CHORUS,m,,,,,,0.671875,-0.325520833,0,0,0,,0,207,207,52,1,,
,,,,,,,,,,,,,,,,,,5cba2e9af429ff00159dda71,2020-11-26_16h00.20.925,lexical_decision_task_MP_exp2,2020.2.5,Win32,60,m,1,0.714805,,,,,,,,0.714805,1,,,,,,80,WORD,"ID",33,family,FAMILY,m,,,,,,0.671875,-0.325520833,0,0,0,,0,208,208,19,1,,
,,,,,,,,,,,,,,,,,,5cba2e9af429ff00159dda71,2020-11-26_16h00.20.925,lexical_decision_task_MP_exp2,2020.2.5,Win32,60,m,1,0.64322,,,,,,,,0.64322,1,,,,,,104,WORD,"ID",33,studio,STUDIO,m,,,,,,0.671875,-0.325520833,0,0,0,,0,209,209,43,1,,
,,,,,,,,,,,,,,,,,,5cba2e9af429ff00159dda71,2020-11-26_16h00.20.925,lexical_decision_task_MP_exp2,2020.2.5,Win32,60,z,1,0.646635,,,,,,,,0.646635,1,,,,,,467,NW,UN,33,wictor,GORBIE,z,,,,,,0.671875,-0.325520833,0,0,0,,0,210,210,406,1,,
,,,,,,,,,,,,,,,,,,5cba2e9af429ff00159dda71,2020-11-26_16h00.20.925,lexical_decision_task_MP_exp2,2020.2.5,Win32,60,z,1,0.6695,,,,,,,,0.6695,1,,,,,,438,NW,UN,33,limpor,BAITCH,z,,,,,,0.671875,-0.325520833,0,0,0,,0,211,211,377,1,,
,,,,,,,,,,,,,,,,,,5cba2e9af429ff00159dda71,2020-11-26_16h00.20.925,lexical_decision_task_MP_exp2,2020.2.5,Win32,60,z,1,0.76469,,,,,,,,0.76469,1,,,,,,435,NW,UN,33,frutan,IMPURB,z,,,,,,0.671875,-0.325520833,0,0,0,,0,212,212,374,1,,
,,,,,,,,,,,,,,,,,,5cba2e9af429ff00159dda71,2020-11-26_16h00.20.925,lexical_decision_task_MP_exp2,2020.2.5,Win32,60,z,1,1.620195,,,,,,,,1.620195,1,,,,,,303,NW,"ID",33,fiream,FIREAM,z,,,,,,0.671875,-0.325520833,0,0,0,,0,213,213,242,1,,
,,,,,,,,,,,,,,,,,,5cba2e9af429ff00159dda71,2020-11-26_16h00.20.925,lexical_decision_task_MP_exp2,2020.2.5,Win32,60,m,1,0.72573,,,,,,,,0.72573,1,,,,,,194,WORD,UN,33,resign,ABSENT,m,,,,,,0.671875,-0.325520833,0,0,0,,0,214,214,133,1,,
,,,,,,,,,,,,,,,,,,5cba2e9af429ff00159dda71,2020-11-26_16h00.20.925,lexical_decision_task_MP_exp2,2020.2.5,Win32,60,m,1,0.67412,,,,,,,,0.67412,1,,,,,,76,WORD,"ID",33,exotic,EXOTIC,m,,,,,,0.671875,-0.325520833,0,0,0,,0,215,215,15,1,,
,,,,,,,,,,,,,,,,,,5cba2e9af429ff00159dda71,2020-11-26_16h00.20.925,lexical_decision_task_MP_exp2,2020.2.5,Win32,60,z,1,0.63253,,,,,,,,0.63253,1,,,,,,408,NW,"ID",16,hurnia,HURNIA,z,,,,,,0.671875,-0.325520833,0,0,0,,0,216,216,347,1,,
,,,,,,,,,,,,,,,,,,5cba2e9af429ff00159dda71,2020-11-26_16h00.20.925,lexical_decision_task_MP_exp2,2020.2.5,Win32,60,m,1,0.73307,,,,,,,,0.73307,1,,,,,,220,WORD,UN,33,mascot,VOYAGE,m,,,,,,0.671875,-0.325520833,0,0,0,,0,217,217,159,1,,
,,,,,,,,,,,,,,,,,,5cba2e9af429ff00159dda71,2020-11-26_16h00.20.925,lexical_decision_task_MP_exp2,2020.2.5,Win32,60,m,1,0.84808,,,,,,,,0.84808,1,,,,,,54,WORD,UN,16,stroke,RAMBLE,m,,,,,,0.671875,-0.325520833,0,0,0,,0,218,218,233,1,,
,,,,,,,,,,,,,,,,,,5cba2e9af429ff00159dda71,2020-11-26_16h00.20.925,lexical_decision_task_MP_exp2,2020.2.5,Win32,60,z,1,0.649745,,,,,,,,0.649745,1,,,,,,318,NW,"ID",33,reagly,REAGLY,z,,,,,,0.671875,-0.325520833,0,0,0,,0,219,219,257,1,,
,,,,,,,,,,,,,,,,,,5cba2e9af429ff00159dda71,2020-11-26_16h00.20.925,lexical_decision_task_MP_exp2,2020.2.5,Win32,60,m,1,0.703975,,,,,,,,0.703975,1,,,,,,13,WORD,UN,16,almost,STRIVE,m,,,,,,0.671875,-0.325520833,0,0,0,,0,220,220,192,1,,
,,,,,,,,,,,,,,,,,,5cba2e9af429ff00159dda71,2020-11-26_16h00.20.925,lexical_decision_task_MP_exp2,2020.2.5,Win32,60,z,1,0.651085,,,,,,,,0.651085,1,,,,,,395,NW,"ID",16,colury,COLURY,z,,,,,,0.671875,-0.325520833,0,0,0,,0,221,221,334,1,,
,,,,,,,,,,,,,,,,,,5cba2e9af429ff00159dda71,2020-11-26_16h00.20.925,lexical_decision_task_MP_exp2,2020.2.5,Win32,60,m,1,0.885135,,,,,,,,0.885135,1,,,,,,213,WORD,UN,33,intake,SQUEAL,m,,,,,,0.671875,-0.325520833,0,0,0,,0,222,222,152,1,,
,,,,,,,,,,,,,,,,,,5cba2e9af429ff00159dda71,2020-11-26_16h00.20.925,lexical_decision_task_MP_exp2,2020.2.5,Win32,60,m,1,0.61835,,,,,,,,0.61835,1,,,,,,7,WORD,UN,16,abrupt,ANCHOR,m,,,,,,0.671875,-0.325520833,0,0,0,,0,223,223,186,1,,
,,,,,,,,,,,,,,,,,,5cba2e9af429ff00159dda71,2020-11-26_16h00.20.925,lexical_decision_task_MP_exp2,2020.2.5,Win32,60,m,1,0.49101,,,,,,,,0.49101,1,,,,,,168,WORD,"ID",16,answer,ANSWER,m,,,,,,0.671875,-0.325520833,0,0,0,,0,224,224,107,1,,
,,,,,,,,,,,,,,,,,,5cba2e9af429ff00159dda71,2020-11-26_16h00.20.925,lexical_decision_task_MP_exp2,2020.2.5,Win32,60,m,1,0.64629,,,,,,,,0.64629,1,,,,,,69,WORD,"ID",33,plenty,PLENTY,m,,,,,,0.671875,-0.325520833,0,0,0,,0,225,225,8,1,,
,,,,,,,,,,,,,,,,,,5cba2e9af429ff00159dda71,2020-11-26_16h00.20.925,lexical_decision_task_MP_exp2,2020.2.5,Win32,60,m,1,0.67328,,,,,,,,0.67328,1,,,,,,203,WORD,UN,33,burden,PHRASE,m,,,,,,0.671875,-0.325520833,0,0,0,,0,226,226,142,1,,
,,,,,,,,,,,,,,,,,,5cba2e9af429ff00159dda71,2020-11-26_16h00.20.925,lexical_decision_task_MP_exp2,2020.2.5,Win32,60,z,1,0.682645,,,,,,,,0.682645,1,,,,,,262,NW,UN,16,dolica,QUILEW,z,,,,,,0.671875,-0.325520833,0,0,0,,0,227,227,441,1,,
,,,,,,,,,,,,,,,,,,5cba2e9af429ff00159dda71,2020-11-26_16h00.20.925,lexical_decision_task_MP_exp2,2020.2.5,Win32,60,z,1,0.833435,,,,,,,,0.833435,1,,,,,,315,NW,"ID",33,laston,LASTON,z,,,,,,0.671875,-0.325520833,0,0,0,,0,228,228,254,1,,
,,,,,,,,,,,,,,,,,,5cba2e9af429ff00159dda71,2020-11-26_16h00.20.925,lexical_decision_task_MP_exp2,2020.2.5,Win32,60,z,1,0.8311,,,,,,,,0.8311,1,,,,,,278,NW,UN,16,celond,UNIGHS,z,,,,,,0.671875,-0.325520833,0,0,0,,0,229,229,457,1,,
,,,,,,,,,,,,,,,,,,5cba2e9af429ff00159dda71,2020-11-26_16h00.20.925,lexical_decision_task_MP_exp2,2020.2.5,Win32,60,z,1,0.65507,,,,,,,,0.65507,1,,,,,,391,NW,"ID",16,theldy,THELDY,z,,,,,,0.671875,-0.325520833,0,0,0,,0,230,230,330,1,,
,,,,,,,,,,,,,,,,,,5cba2e9af429ff00159dda71,2020-11-26_16h00.20.925,lexical_decision_task_MP_exp2,2020.2.5,Win32,60,m,1,0.78115,,,,,,,,0.78115,1,,,,,,215,WORD,UN,33,lumber,PHOBIA,m,,,,,,0.671875,-0.325520833,0,0,0,,0,231,231,154,1,,
,,,,,,,,,,,,,,,,,,5cba2e9af429ff00159dda71,2020-11-26_16h00.20.925,lexical_decision_task_MP_exp2,2020.2.5,Win32,60,m,1,0.584225,,,,,,,,0.584225,1,,,,,,152,WORD,"ID",16,rocket,ROCKET,m,,,,,,0.671875,-0.325520833,0,0,0,,0,232,232,91,1,,
,,,,,,,,,,,,,,,,,,5cba2e9af429ff00159dda71,2020-11-26_16h00.20.925,lexical_decision_task_MP_exp2,2020.2.5,Win32,60,m,1,0.55163,,,,,,,,0.55163,1,,,,,,197,WORD,UN,33,wicked,STREAM,m,,,,,,0.671875,-0.325520833,0,0,0,,0,233,233,136,1,,
,,,,,,,,,,,,,,,,,,5cba2e9af429ff00159dda71,2020-11-26_16h00.20.925,lexical_decision_task_MP_exp2,2020.2.5,Win32,60,z,1,0.70146,,,,,,,,0.70146,1,,,,,,325,NW,"ID",33,thruse,THRUSE,z,,,,,,0.671875,-0.325520833,0,0,0,,0,234,234,264,1,,
,,,,,,,,,,,,,,,,,,5cba2e9af429ff00159dda71,2020-11-26_16h00.20.925,lexical_decision_task_MP_exp2,2020.2.5,Win32,60,z,1,0.682855,,,,,,,,0.682855,1,,,,,,261,NW,UN,16,quilew,STUNCH,z,,,,,,0.671875,-0.325520833,0,0,0,,0,235,235,440,1,,
,,,,,,,,,,,,,,,,,,5cba2e9af429ff00159dda71,2020-11-26_16h00.20.925,lexical_decision_task_MP_exp2,2020.2.5,Win32,60,z,1,0.80881,,,,,,,,0.80881,1,,,,,,363,NW,"ID",16,breali,BREALI,z,,,,,,0.671875,-0.325520833,0,0,0,,0,236,236,302,1,,
,,,,,,,,,,,,,,,,,,5cba2e9af429ff00159dda71,2020-11-26_16h00.20.925,lexical_decision_task_MP_exp2,2020.2.5,Win32,60,z,1,0.68004,,,,,,,,0.68004,1,,,,,,383,NW,"ID",16,aungre,AUNGRE,z,,,,,,0.671875,-0.325520833,0,0,0,,0,237,237,322,1,,
,,,,,,,,,,,,,,,,,,5cba2e9af429ff00159dda71,2020-11-26_16h00.20.925,lexical_decision_task_MP_exp2,2020.2.5,Win32,60,z,1,0.78197,,,,,,,,0.78197,1,,,,,,260,NW,UN,16,stunch,UNJECT,z,,,,,,0.671875,-0.325520833,0,0,0,,0,238,238,439,1,,
,,,,,,,,,,,,,,,,,,5cba2e9af429ff00159dda71,2020-11-26_16h00.20.925,lexical_decision_task_MP_exp2,2020.2.5,Win32,60,z,1,0.84868,,,,,,,,0.84868,1,,,,,,348,NW,"ID",33,dumple,DUMPLE,z,,,,,,0.671875,-0.325520833,0,0,0,,0,239,239,287,1,,
,,,,,,,,,,,,,,,,,,5cba2e9af429ff00159dda71,2020-11-26_16h00.20.925,lexical_decision_task_MP_exp2,2020.2.5,Win32,60,z,1,0.646145,,,,,,,,0.646145,1,,,,,,382,NW,"ID",16,sarley,SARLEY,z,,,,,,0.671875,-0.325520833,0,0,0,,0,240,240,321,1,,
,,,,,,,,,,,,,,,,,,5cba2e9af429ff00159dda71,2020-11-26_16h00.20.925,lexical_decision_task_MP_exp2,2020.2.5,Win32,60,z,1,0.694045,,,,,,,,0.694045,1,,,,,,297,NW,UN,16,piergy,FERTIC,z,,,,,,-0.024739583,-0.411458333,1,0,0,,0,241,241,476,1,,break_done_button
,,,,,,,,,,,,,,,,,,5cba2e9af429ff00159dda71,2020-11-26_16h00.20.925,lexical_decision_task_MP_exp2,2020.2.5,Win32,60,z,1,0.93227,,,,,,,,0.93227,1,,,,,,285,NW,UN,16,reldon,PRUDGE,z,,,,,,-0.024739583,-0.411458333,0,0,0,,0,242,242,464,1,,
,,,,,,,,,,,,,,,,,,5cba2e9af429ff00159dda71,2020-11-26_16h00.20.925,lexical_decision_task_MP_exp2,2020.2.5,Win32,60,m,1,0.773455,,,,,,,,0.773455,1,,,,,,84,WORD,"ID",33,mortal,MORTAL,m,,,,,,-0.024739583,-0.411458333,0,0,0,,0,243,243,23,1,,
,,,,,,,,,,,,,,,,,,5cba2e9af429ff00159dda71,2020-11-26_16h00.20.925,lexical_decision_task_MP_exp2,2020.2.5,Win32,60,z,1,0.749705,,,,,,,,0.749705,1,,,,,,353,NW,"ID",33,clurey,CLUREY,z,,,,,,-0.024739583,-0.411458333,0,0,0,,0,244,244,292,1,,
,,,,,,,,,,,,,,,,,,5cba2e9af429ff00159dda71,2020-11-26_16h00.20.925,lexical_decision_task_MP_exp2,2020.2.5,Win32,60,m,1,0.728185,,,,,,,,0.728185,1,,,,,,185,WORD,UN,33,portal,BOTHER,m,,,,,,-0.024739583,-0.411458333,0,0,0,,0,245,245,124,1,,
,,,,,,,,,,,,,,,,,,5cba2e9af429ff00159dda71,2020-11-26_16h00.20.925,lexical_decision_task_MP_exp2,2020.2.5,Win32,60,m,1,0.834085,,,,,,,,0.834085,1,,,,,,156,WORD,"ID",16,cradle,CRADLE,m,,,,,,-0.024739583,-0.411458333,0,0,0,,0,246,246,95,1,,
,,,,,,,,,,,,,,,,,,5cba2e9af429ff00159dda71,2020-11-26_16h00.20.925,lexical_decision_task_MP_exp2,2020.2.5,Win32,60,z,1,0.916685,,,,,,,,0.916685,1,,,,,,440,NW,UN,33,rastoe,SARIDE,z,,,,,,-0.024739583,-0.411458333,0,0,0,,0,247,247,379,1,,
,,,,,,,,,,,,,,,,,,5cba2e9af429ff00159dda71,2020-11-26_16h00.20.925,lexical_decision_task_MP_exp2,2020.2.5,Win32,60,m,1,0.690835,,,,,,,,0.690835,1,,,,,,117,WORD,"ID",33,branch,BRANCH,m,,,,,,-0.024739583,-0.411458333,0,0,0,,0,248,248,56,1,,
,,,,,,,,,,,,,,,,,,5cba2e9af429ff00159dda71,2020-11-26_16h00.20.925,lexical_decision_task_MP_exp2,2020.2.5,Win32,60,z,1,0.999215,,,,,,,,0.999215,1,,,,,,357,NW,"ID",33,derain,DERAIN,z,,,,,,-0.026041667,-0.411458333,0,0,0,,0,249,249,296,1,,
,,,,,,,,,,,,,,,,,,5cba2e9af429ff00159dda71,2020-11-26_16h00.20.925,lexical_decision_task_MP_exp2,2020.2.5,Win32,60,m,1,0.706755,,,,,,,,0.706755,1,,,,,,91,WORD,"ID",33,expand,EXPAND,m,,,,,,-0.026041667,-0.411458333,0,0,0,,0,250,250,30,1,,
,,,,,,,,,,,,,,,,,,5cba2e9af429ff00159dda71,2020-11-26_16h00.20.925,lexical_decision_task_MP_exp2,2020.2.5,Win32,60,m,1,0.981135,,,,,,,,0.981135,1,,,,,,16,WORD,UN,16,charge,FAUCET,m,,,,,,-0.026041667,-0.411458333,0,0,0,,0,251,251,195,1,,
,,,,,,,,,,,,,,,,,,5cba2e9af429ff00159dda71,2020-11-26_16h00.20.925,lexical_decision_task_MP_exp2,2020.2.5,Win32,60,m,1,0.681245,,,,,,,,0.681245,1,,,,,,41,WORD,UN,16,chapel,SPRING,m,,,,,,-0.026041667,-0.411458333,0,0,0,,0,252,252,220,1,,
,,,,,,,,,,,,,,,,,,5cba2e9af429ff00159dda71,2020-11-26_16h00.20.925,lexical_decision_task_MP_exp2,2020.2.5,Win32,60,z,1,0.777755,,,,,,,,0.777755,1,,,,,,373,NW,"ID",16,bigent,BIGENT,z,,,,,,-0.026041667,-0.411458333,0,0,0,,0,253,253,312,1,,
,,,,,,,,,,,,,,,,,,5cba2e9af429ff00159dda71,2020-11-26_16h00.20.925,lexical_decision_task_MP_exp2,2020.2.5,Win32,60,z,1,0.68245,,,,,,,,0.68245,1,,,,,,475,NW,UN,33,josted,PEBRIC,z,,,,,,-0.026041667,-0.411458333,0,0,0,,0,254,254,414,1,,
,,,,,,,,,,,,,,,,,,5cba2e9af429ff00159dda71,2020-11-26_16h00.20.925,lexical_decision_task_MP_exp2,2020.2.5,Win32,60,m,1,0.687455,,,,,,,,0.687455,1,,,,,,107,WORD,"ID",33,slogan,SLOGAN,m,,,,,,-0.026041667,-0.411458333,0,0,0,,0,255,255,46,1,,
,,,,,,,,,,,,,,,,,,5cba2e9af429ff00159dda71,2020-11-26_16h00.20.925,lexical_decision_task_MP_exp2,2020.2.5,Win32,60,z,1,0.84414,,,,,,,,0.84414,1,,,,,,301,NW,"ID",33,fainch,FAINCH,z,,,,,,-0.026041667,-0.411458333,0,0,0,,0,256,256,240,1,,
,,,,,,,,,,,,,,,,,,5cba2e9af429ff00159dda71,2020-11-26_16h00.20.925,lexical_decision_task_MP_exp2,2020.2.5,Win32,60,m,1,0.882325,,,,,,,,0.882325,1,,,,,,186,WORD,UN,33,course,PORTAL,m,,,,,,-0.026041667,-0.411458333,0,0,0,,0,257,257,125,1,,
,,,,,,,,,,,,,,,,,,5cba2e9af429ff00159dda71,2020-11-26_16h00.20.925,lexical_decision_task_MP_exp2,2020.2.5,Win32,60,z,1,0.71786,,,,,,,,0.71786,1,,,,,,476,NW,UN,33,photie,JOSTED,z,,,,,,-0.026041667,-0.411458333,0,0,0,,0,258,258,415,1,,
,,,,,,,,,,,,,,,,,,5cba2e9af429ff00159dda71,2020-11-26_16h00.20.925,lexical_decision_task_MP_exp2,2020.2.5,Win32,60,z,1,0.771865,,,,,,,,0.771865,1,,,,,,424,NW,UN,33,frudge,PRAILE,z,,,,,,-0.026041667,-0.411458333,0,0,0,,0,259,259,363,1,,
,,,,,,,,,,,,,,,,,,5cba2e9af429ff00159dda71,2020-11-26_16h00.20.925,lexical_decision_task_MP_exp2,2020.2.5,Win32,60,z,1,0.714625,,,,,,,,0.714625,1,,,,,,354,NW,"ID",33,virlex,VIRLEX,z,,,,,,-0.026041667,-0.411458333,0,0,0,,0,260,260,293,1,,
,,,,,,,,,,,,,,,,,,5cba2e9af429ff00159dda71,2020-11-26_16h00.20.925,lexical_decision_task_MP_exp2,2020.2.5,Win32,60,z,1,0.80491,,,,,,,,0.80491,1,,,,,,316,NW,"ID",33,scregm,SCREGM,z,,,,,,-0.026041667,-0.411458333,0,0,0,,0,261,261,255,1,,
,,,,,,,,,,,,,,,,,,5cba2e9af429ff00159dda71,2020-11-26_16h00.20.925,lexical_decision_task_MP_exp2,2020.2.5,Win32,60,m,1,0.76984,,,,,,,,0.76984,1,,,,,,40,WORD,UN,16,spring,CONVEY,m,,,,,,-0.026041667,-0.411458333,0,0,0,,0,262,262,219,1,,
,,,,,,,,,,,,,,,,,,5cba2e9af429ff00159dda71,2020-11-26_16h00.20.925,lexical_decision_task_MP_exp2,2020.2.5,Win32,60,z,1,0.78404,,,,,,,,0.78404,1,,,,,,428,NW,UN,33,funtle,TANDLY,z,,,,,,-0.026041667,-0.411458333,0,0,0,,0,263,263,367,1,,
,,,,,,,,,,,,,,,,,,5cba2e9af429ff00159dda71,2020-11-26_16h00.20.925,lexical_decision_task_MP_exp2,2020.2.5,Win32,60,m,1,0.70251,,,,,,,,0.70251,1,,,,,,161,WORD,"ID",16,pastor,PASTOR,m,,,,,,-0.026041667,-0.411458333,0,0,0,,0,264,264,100,1,,
,,,,,,,,,,,,,,,,,,5cba2e9af429ff00159dda71,2020-11-26_16h00.20.925,lexical_decision_task_MP_exp2,2020.2.5,Win32,60,z,1,0.66829,,,,,,,,0.66829,1,,,,,,384,NW,"ID",16,guesco,GUESCO,z,,,,,,-0.026041667,-0.411458333,0,0,0,,0,265,265,323,1,,
,,,,,,,,,,,,,,,,,,5cba2e9af429ff00159dda71,2020-11-26_16h00.20.925,lexical_decision_task_MP_exp2,2020.2.5,Win32,60,m,1,0.71476,,,,,,,,0.71476,1,,,,,,108,WORD,"ID",33,reckon,RECKON,m,,,,,,-0.026041667,-0.411458333,0,0,0,,0,266,266,47,1,,
,,,,,,,,,,,,,,,,,,5cba2e9af429ff00159dda71,2020-11-26_16h00.20.925,lexical_decision_task_MP_exp2,2020.2.5,Win32,60,z,1,0.858615,,,,,,,,0.858615,1,,,,,,458,NW,UN,33,hocite,BARCET,z,,,,,,-0.026041667,-0.411458333,0,0,0,,0,267,267,397,1,,
,,,,,,,,,,,,,,,,,,5cba2e9af429ff00159dda71,2020-11-26_16h00.20.925,lexical_decision_task_MP_exp2,2020.2.5,Win32,60,m,0,1.11884,,,,,,,,1.11884,0,,,,,,294,NW,UN,16,gleath,INHORT,z,,,,,,-0.026041667,-0.411458333,0,0,0,,0,268,268,473,1,,
,,,,,,,,,,,,,,,,,,5cba2e9af429ff00159dda71,2020-11-26_16h00.20.925,lexical_decision_task_MP_exp2,2020.2.5,Win32,60,z,1,1.1127,,,,,,,,1.1127,1,,,,,,337,NW,"ID",33,rejols,REJOLS,z,,,,,,-0.026041667,-0.411458333,0,0,0,,0,269,269,276,1,,
,,,,,,,,,,,,,,,,,,5cba2e9af429ff00159dda71,2020-11-26_16h00.20.925,lexical_decision_task_MP_exp2,2020.2.5,Win32,60,z,1,0.65063,,,,,,,,0.65063,1,,,,,,308,NW,"ID",33,psetch,PSETCH,z,,,,,,-0.026041667,-0.411458333,0,0,0,,0,270,270,247,1,,
,,,,,,,,,,,,,,,,,,5cba2e9af429ff00159dda71,2020-11-26_16h00.20.925,lexical_decision_task_MP_exp2,2020.2.5,Win32,60,m,1,0.90206,,,,,,,,0.90206,1,,,,,,1,WORD,UN,16,ethnic,FRIGHT,m,,,,,,-0.026041667,-0.411458333,0,0,0,,0,271,271,180,1,,
,,,,,,,,,,,,,,,,,,5cba2e9af429ff00159dda71,2020-11-26_16h00.20.925,lexical_decision_task_MP_exp2,2020.2.5,Win32,60,z,1,0.820165,,,,,,,,0.820165,1,,,,,,464,NW,UN,33,whivex,CHAITE,z,,,,,,-0.026041667,-0.411458333,0,0,0,,0,272,272,403,1,,
,,,,,,,,,,,,,,,,,,5cba2e9af429ff00159dda71,2020-11-26_16h00.20.925,lexical_decision_task_MP_exp2,2020.2.5,Win32,60,m,1,0.83379,,,,,,,,0.83379,1,,,,,,58,WORD,UN,16,splint,FOSTER,m,,,,,,-0.026041667,-0.411458333,0,0,0,,0,273,273,237,1,,
,,,,,,,,,,,,,,,,,,5cba2e9af429ff00159dda71,2020-11-26_16h00.20.925,lexical_decision_task_MP_exp2,2020.2.5,Win32,60,m,1,0.812375,,,,,,,,0.812375,1,,,,,,46,WORD,UN,16,income,SINGLE,m,,,,,,-0.026041667,-0.411458333,0,0,0,,0,274,274,225,1,,
,,,,,,,,,,,,,,,,,,5cba2e9af429ff00159dda71,2020-11-26_16h00.20.925,lexical_decision_task_MP_exp2,2020.2.5,Win32,60,m,1,0.765735,,,,,,,,0.765735,1,,,,,,105,WORD,"ID",33,number,NUMBER,m,,,,,,-0.026041667,-0.411458333,0,0,0,,0,275,275,44,1,,
,,,,,,,,,,,,,,,,,,5cba2e9af429ff00159dda71,2020-11-26_16h00.20.925,lexical_decision_task_MP_exp2,2020.2.5,Win32,60,z,1,0.732095,,,,,,,,0.732095,1,,,,,,386,NW,"ID",16,ancust,ANCUST,z,,,,,,-0.026041667,-0.411458333,0,0,0,,0,276,276,325,1,,
,,,,,,,,,,,,,,,,,,5cba2e9af429ff00159dda71,2020-11-26_16h00.20.925,lexical_decision_task_MP_exp2,2020.2.5,Win32,60,z,1,0.931625,,,,,,,,0.931625,1,,,,,,413,NW,"ID",16,equats,EQUATS,z,,,,,,-0.026041667,-0.411458333,0,0,0,,0,277,277,352,1,,
,,,,,,,,,,,,,,,,,,5cba2e9af429ff00159dda71,2020-11-26_16h00.20.925,lexical_decision_task_MP_exp2,2020.2.5,Win32,60,z,1,0.81685,,,,,,,,0.81685,1,,,,,,453,NW,UN,33,scouge,BOLVIS,z,,,,,,-0.026041667,-0.411458333,0,0,0,,0,278,278,392,1,,
,,,,,,,,,,,,,,,,,,5cba2e9af429ff00159dda71,2020-11-26_16h00.20.925,lexical_decision_task_MP_exp2,2020.2.5,Win32,60,z,1,0.91824,,,,,,,,0.91824,1,,,,,,350,NW,"ID",33,nagurs,NAGURS,z,,,,,,-0.026041667,-0.411458333,0,0,0,,0,279,279,289,1,,
,,,,,,,,,,,,,,,,,,5cba2e9af429ff00159dda71,2020-11-26_16h00.20.925,lexical_decision_task_MP_exp2,2020.2.5,Win32,60,z,1,0.962845,,,,,,,,0.962845,1,,,,,,299,NW,UN,16,yarion,STURCH,z,,,,,,-0.026041667,-0.411458333,0,0,0,,0,280,280,478,1,,
,,,,,,,,,,,,,,,,,,5cba2e9af429ff00159dda71,2020-11-26_16h00.20.925,lexical_decision_task_MP_exp2,2020.2.5,Win32,60,m,1,0.834865,,,,,,,,0.834865,1,,,,,,111,WORD,"ID",33,induce,INDUCE,m,,,,,,-0.026041667,-0.411458333,0,0,0,,0,281,281,50,1,,
,,,,,,,,,,,,,,,,,,5cba2e9af429ff00159dda71,2020-11-26_16h00.20.925,lexical_decision_task_MP_exp2,2020.2.5,Win32,60,z,1,0.87734,,,,,,,,0.87734,1,,,,,,463,NW,UN,33,chaite,KISPEL,z,,,,,,-0.026041667,-0.411458333,0,0,0,,0,282,282,402,1,,
,,,,,,,,,,,,,,,,,,5cba2e9af429ff00159dda71,2020-11-26_16h00.20.925,lexical_decision_task_MP_exp2,2020.2.5,Win32,60,m,1,0.883175,,,,,,,,0.883175,1,,,,,,75,WORD,"ID",33,trophy,TROPHY,m,,,,,,-0.026041667,-0.411458333,0,0,0,,0,283,283,14,1,,
,,,,,,,,,,,,,,,,,,5cba2e9af429ff00159dda71,2020-11-26_16h00.20.925,lexical_decision_task_MP_exp2,2020.2.5,Win32,60,m,1,0.99847,,,,,,,,0.99847,1,,,,,,135,WORD,"ID",16,import,IMPORT,m,,,,,,-0.026041667,-0.411458333,0,0,0,,0,284,284,74,1,,
,,,,,,,,,,,,,,,,,,5cba2e9af429ff00159dda71,2020-11-26_16h00.20.925,lexical_decision_task_MP_exp2,2020.2.5,Win32,60,m,1,0.7704,,,,,,,,0.7704,1,,,,,,126,WORD,"ID",16,enough,ENOUGH,m,,,,,,-0.026041667,-0.411458333,0,0,0,,0,285,285,65,1,,
,,,,,,,,,,,,,,,,,,5cba2e9af429ff00159dda71,2020-11-26_16h00.20.925,lexical_decision_task_MP_exp2,2020.2.5,Win32,60,z,1,1.10865,,,,,,,,1.10865,1,,,,,,341,NW,"ID",33,myrtie,MYRTIE,z,,,,,,-0.026041667,-0.411458333,0,0,0,,0,286,286,280,1,,
,,,,,,,,,,,,,,,,,,5cba2e9af429ff00159dda71,2020-11-26_16h00.20.925,lexical_decision_task_MP_exp2,2020.2.5,Win32,60,m,1,0.83611,,,,,,,,0.83611,1,,,,,,27,WORD,UN,16,comedy,SCREAM,m,,,,,,-0.026041667,-0.411458333,0,0,0,,0,287,287,206,1,,
,,,,,,,,,,,,,,,,,,5cba2e9af429ff00159dda71,2020-11-26_16h00.20.925,lexical_decision_task_MP_exp2,2020.2.5,Win32,60,z,1,0.84988,,,,,,,,0.84988,1,,,,,,457,NW,UN,33,barcet,WANIGH,z,,,,,,-0.026041667,-0.411458333,0,0,0,,0,288,288,396,1,,
,,,,,,,,,,,,,,,,,,5cba2e9af429ff00159dda71,2020-11-26_16h00.20.925,lexical_decision_task_MP_exp2,2020.2.5,Win32,60,z,1,1.91957,,,,,,,,1.91957,1,,,,,,248,NW,UN,16,batrol,STROLE,z,,,,,,-0.026041667,-0.411458333,0,0,0,,0,289,289,427,1,,
,,,,,,,,,,,,,,,,,,5cba2e9af429ff00159dda71,2020-11-26_16h00.20.925,lexical_decision_task_MP_exp2,2020.2.5,Win32,60,m,1,0.739805,,,,,,,,0.739805,1,,,,,,32,WORD,UN,16,scream,BUCKLE,m,,,,,,-0.026041667,-0.411458333,0,0,0,,0,290,290,211,1,,
,,,,,,,,,,,,,,,,,,5cba2e9af429ff00159dda71,2020-11-26_16h00.20.925,lexical_decision_task_MP_exp2,2020.2.5,Win32,60,m,1,1.224215,,,,,,,,1.224215,1,,,,,,184,WORD,UN,33,bother,SLEAZY,m,,,,,,-0.026041667,-0.411458333,0,0,0,,0,291,291,123,1,,
,,,,,,,,,,,,,,,,,,5cba2e9af429ff00159dda71,2020-11-26_16h00.20.925,lexical_decision_task_MP_exp2,2020.2.5,Win32,60,m,1,0.66988,,,,,,,,0.66988,1,,,,,,200,WORD,UN,33,admire,BEACON,m,,,,,,-0.026041667,-0.411458333,0,0,0,,0,292,292,139,1,,
,,,,,,,,,,,,,,,,,,5cba2e9af429ff00159dda71,2020-11-26_16h00.20.925,lexical_decision_task_MP_exp2,2020.2.5,Win32,60,m,1,0.69909,,,,,,,,0.69909,1,,,,,,119,WORD,"ID",33,spider,SPIDER,m,,,,,,-0.026041667,-0.411458333,0,0,0,,0,293,293,58,1,,
,,,,,,,,,,,,,,,,,,5cba2e9af429ff00159dda71,2020-11-26_16h00.20.925,lexical_decision_task_MP_exp2,2020.2.5,Win32,60,z,1,0.837085,,,,,,,,0.837085,1,,,,,,432,NW,UN,33,drance,LUNKER,z,,,,,,-0.026041667,-0.411458333,0,0,0,,0,294,294,371,1,,
,,,,,,,,,,,,,,,,,,5cba2e9af429ff00159dda71,2020-11-26_16h00.20.925,lexical_decision_task_MP_exp2,2020.2.5,Win32,60,m,1,0.95113,,,,,,,,0.95113,1,,,,,,141,WORD,"ID",16,orphan,ORPHAN,m,,,,,,-0.026041667,-0.411458333,0,0,0,,0,295,295,80,1,,
,,,,,,,,,,,,,,,,,,5cba2e9af429ff00159dda71,2020-11-26_16h00.20.925,lexical_decision_task_MP_exp2,2020.2.5,Win32,60,m,1,1.114245,,,,,,,,1.114245,1,,,,,,10,WORD,UN,16,cruise,ETHNIC,m,,,,,,-0.026041667,-0.411458333,0,0,0,,0,296,296,189,1,,
,,,,,,,,,,,,,,,,,,5cba2e9af429ff00159dda71,2020-11-26_16h00.20.925,lexical_decision_task_MP_exp2,2020.2.5,Win32,60,m,1,1.133205,,,,,,,,1.133205,1,,,,,,176,WORD,"ID",16,strife,STRIFE,m,,,,,,-0.026041667,-0.411458333,0,0,0,,0,297,297,115,1,,
,,,,,,,,,,,,,,,,,,5cba2e9af429ff00159dda71,2020-11-26_16h00.20.925,lexical_decision_task_MP_exp2,2020.2.5,Win32,60,z,1,0.949005,,,,,,,,0.949005,1,,,,,,263,NW,UN,16,vackel,DOLICA,z,,,,,,-0.026041667,-0.411458333,0,0,0,,0,298,298,442,1,,
,,,,,,,,,,,,,,,,,,5cba2e9af429ff00159dda71,2020-11-26_16h00.20.925,lexical_decision_task_MP_exp2,2020.2.5,Win32,60,z,1,0.64913,,,,,,,,0.64913,1,,,,,,340,NW,"ID",33,fiatch,FIATCH,z,,,,,,-0.026041667,-0.411458333,0,0,0,,0,299,299,279,1,,
,,,,,,,,,,,,,,,,,,5cba2e9af429ff00159dda71,2020-11-26_16h00.20.925,lexical_decision_task_MP_exp2,2020.2.5,Win32,60,z,1,0.59048,,,,,,,,0.59048,1,,,,,,317,NW,"ID",33,worbal,WORBAL,z,,,,,,-0.026041667,-0.411458333,0,0,0,,0,300,300,256,1,,
,,,,,,,,,,,,,,,,,,5cba2e9af429ff00159dda71,2020-11-26_16h00.20.925,lexical_decision_task_MP_exp2,2020.2.5,Win32,60,z,1,0.68058,,,,,,,,0.68058,1,,,,,,469,NW,UN,33,crudio,PADIFS,z,,,,,,-0.026041667,-0.411458333,0,0,0,,0,301,301,408,1,,
,,,,,,,,,,,,,,,,,,5cba2e9af429ff00159dda71,2020-11-26_16h00.20.925,lexical_decision_task_MP_exp2,2020.2.5,Win32,60,z,1,1.00143,,,,,,,,1.00143,1,,,,,,253,NW,UN,16,varosh,RESAIT,z,,,,,,-0.026041667,-0.411458333,0,0,0,,0,302,302,432,1,,
,,,,,,,,,,,,,,,,,,5cba2e9af429ff00159dda71,2020-11-26_16h00.20.925,lexical_decision_task_MP_exp2,2020.2.5,Win32,60,z,1,0.61966,,,,,,,,0.61966,1,,,,,,439,NW,UN,33,saride,LIMPOR,z,,,,,,-0.026041667,-0.411458333,0,0,0,,0,303,303,378,1,,
,,,,,,,,,,,,,,,,,,5cba2e9af429ff00159dda71,2020-11-26_16h00.20.925,lexical_decision_task_MP_exp2,2020.2.5,Win32,60,m,1,0.63455,,,,,,,,0.63455,1,,,,,,48,WORD,UN,16,survey,WALNUT,m,,,,,,-0.026041667,-0.411458333,0,0,0,,0,304,304,227,1,,
,,,,,,,,,,,,,,,,,,5cba2e9af429ff00159dda71,2020-11-26_16h00.20.925,lexical_decision_task_MP_exp2,2020.2.5,Win32,60,z,1,0.748025,,,,,,,,0.748025,1,,,,,,245,NW,UN,16,piaton,ANOUGS,z,,,,,,-0.026041667,-0.411458333,0,0,0,,0,305,305,424,1,,
,,,,,,,,,,,,,,,,,,5cba2e9af429ff00159dda71,2020-11-26_16h00.20.925,lexical_decision_task_MP_exp2,2020.2.5,Win32,60,z,1,0.73634,,,,,,,,0.73634,1,,,,,,323,NW,"ID",33,rosail,ROSAIL,z,,,,,,-0.026041667,-0.411458333,0,0,0,,0,306,306,262,1,,
,,,,,,,,,,,,,,,,,,5cba2e9af429ff00159dda71,2020-11-26_16h00.20.925,lexical_decision_task_MP_exp2,2020.2.5,Win32,60,m,1,0.68183,,,,,,,,0.68183,1,,,,,,167,WORD,"ID",16,design,DESIGN,m,,,,,,-0.026041667,-0.411458333,0,0,0,,0,307,307,106,1,,
,,,,,,,,,,,,,,,,,,5cba2e9af429ff00159dda71,2020-11-26_16h00.20.925,lexical_decision_task_MP_exp2,2020.2.5,Win32,60,m,1,0.87152,,,,,,,,0.87152,1,,,,,,89,WORD,"ID",33,permit,PERMIT,m,,,,,,-0.026041667,-0.411458333,0,0,0,,0,308,308,28,1,,
,,,,,,,,,,,,,,,,,,5cba2e9af429ff00159dda71,2020-11-26_16h00.20.925,lexical_decision_task_MP_exp2,2020.2.5,Win32,60,z,1,1.01704,,,,,,,,1.01704,1,,,,,,417,NW,"ID",16,earoud,EAROUD,z,,,,,,-0.026041667,-0.411458333,0,0,0,,0,309,309,356,1,,
,,,,,,,,,,,,,,,,,,5cba2e9af429ff00159dda71,2020-11-26_16h00.20.925,lexical_decision_task_MP_exp2,2020.2.5,Win32,60,z,1,0.633675,,,,,,,,0.633675,1,,,,,,474,NW,UN,33,acrise,HABLIN,z,,,,,,-0.026041667,-0.411458333,0,0,0,,0,310,310,413,1,,
,,,,,,,,,,,,,,,,,,5cba2e9af429ff00159dda71,2020-11-26_16h00.20.925,lexical_decision_task_MP_exp2,2020.2.5,Win32,60,z,1,0.69241,,,,,,,,0.69241,1,,,,,,456,NW,UN,33,wanigh,BROGET,z,,,,,,-0.026041667,-0.411458333,0,0,0,,0,311,311,395,1,,
,,,,,,,,,,,,,,,,,,5cba2e9af429ff00159dda71,2020-11-26_16h00.20.925,lexical_decision_task_MP_exp2,2020.2.5,Win32,60,m,1,0.749495,,,,,,,,0.749495,1,,,,,,116,WORD,"ID",33,tumble,TUMBLE,m,,,,,,-0.026041667,-0.411458333,0,0,0,,0,312,312,55,1,,
,,,,,,,,,,,,,,,,,,5cba2e9af429ff00159dda71,2020-11-26_16h00.20.925,lexical_decision_task_MP_exp2,2020.2.5,Win32,60,m,1,0.849255,,,,,,,,0.849255,1,,,,,,11,WORD,UN,16,amount,CRUISE,m,,,,,,-0.026041667,-0.411458333,0,0,0,,0,313,313,190,1,,
,,,,,,,,,,,,,,,,,,5cba2e9af429ff00159dda71,2020-11-26_16h00.20.925,lexical_decision_task_MP_exp2,2020.2.5,Win32,60,m,1,0.738965,,,,,,,,0.738965,1,,,,,,77,WORD,"ID",33,racket,RACKET,m,,,,,,-0.026041667,-0.411458333,0,0,0,,0,314,314,16,1,,
,,,,,,,,,,,,,,,,,,5cba2e9af429ff00159dda71,2020-11-26_16h00.20.925,lexical_decision_task_MP_exp2,2020.2.5,Win32,60,m,1,0.68218,,,,,,,,0.68218,1,,,,,,44,WORD,UN,16,clergy,DANGER,m,,,,,,-0.026041667,-0.411458333,0,0,0,,0,315,315,223,1,,
,,,,,,,,,,,,,,,,,,5cba2e9af429ff00159dda71,2020-11-26_16h00.20.925,lexical_decision_task_MP_exp2,2020.2.5,Win32,60,z,1,0.614895,,,,,,,,0.614895,1,,,,,,361,NW,"ID",16,pauche,PAUCHE,z,,,,,,-0.026041667,-0.411458333,0,0,0,,0,316,316,300,1,,
,,,,,,,,,,,,,,,,,,5cba2e9af429ff00159dda71,2020-11-26_16h00.20.925,lexical_decision_task_MP_exp2,2020.2.5,Win32,60,m,1,0.81698,,,,,,,,0.81698,1,,,,,,78,WORD,"ID",33,column,COLUMN,m,,,,,,-0.026041667,-0.411458333,0,0,0,,0,317,317,17,1,,
,,,,,,,,,,,,,,,,,,5cba2e9af429ff00159dda71,2020-11-26_16h00.20.925,lexical_decision_task_MP_exp2,2020.2.5,Win32,60,m,1,0.879135,,,,,,,,0.879135,1,,,,,,24,WORD,UN,16,domain,PRAISE,m,,,,,,-0.026041667,-0.411458333,0,0,0,,0,318,318,203,1,,
,,,,,,,,,,,,,,,,,,5cba2e9af429ff00159dda71,2020-11-26_16h00.20.925,lexical_decision_task_MP_exp2,2020.2.5,Win32,60,m,1,0.816595,,,,,,,,0.816595,1,,,,,,232,WORD,UN,33,nature,INJECT,m,,,,,,-0.026041667,-0.411458333,0,0,0,,0,319,319,171,1,,
,,,,,,,,,,,,,,,,,,5cba2e9af429ff00159dda71,2020-11-26_16h00.20.925,lexical_decision_task_MP_exp2,2020.2.5,Win32,60,z,1,0.91982,,,,,,,,0.91982,1,,,,,,249,NW,UN,16,milted,BATROL,z,,,,,,-0.026041667,-0.411458333,0,0,0,,0,320,320,428,1,,
,,,,,,,,,,,,,,,,,,5cba2e9af429ff00159dda71,2020-11-26_16h00.20.925,lexical_decision_task_MP_exp2,2020.2.5,Win32,60,z,1,0.86524,,,,,,,,0.86524,1,,,,,,445,NW,UN,33,runamo,MINKEL,z,,,,,,-0.026041667,-0.411458333,0,0,0,,0,321,321,384,1,,
,,,,,,,,,,,,,,,,,,5cba2e9af429ff00159dda71,2020-11-26_16h00.20.925,lexical_decision_task_MP_exp2,2020.2.5,Win32,60,z,1,0.815095,,,,,,,,0.815095,1,,,,,,266,NW,UN,16,pasink,VARMIT,z,,,,,,-0.026041667,-0.411458333,0,0,0,,0,322,322,445,1,,
,,,,,,,,,,,,,,,,,,5cba2e9af429ff00159dda71,2020-11-26_16h00.20.925,lexical_decision_task_MP_exp2,2020.2.5,Win32,60,m,1,0.749555,,,,,,,,0.749555,1,,,,,,170,WORD,"ID",16,pounce,POUNCE,m,,,,,,-0.026041667,-0.411458333,0,0,0,,0,323,323,109,1,,
,,,,,,,,,,,,,,,,,,5cba2e9af429ff00159dda71,2020-11-26_16h00.20.925,lexical_decision_task_MP_exp2,2020.2.5,Win32,60,z,1,0.744695,,,,,,,,0.744695,1,,,,,,394,NW,"ID",16,spaqux,SPAQUX,z,,,,,,-0.026041667,-0.411458333,0,0,0,,0,324,324,333,1,,
,,,,,,,,,,,,,,,,,,5cba2e9af429ff00159dda71,2020-11-26_16h00.20.925,lexical_decision_task_MP_exp2,2020.2.5,Win32,60,z,1,0.646355,,,,,,,,0.646355,1,,,,,,327,NW,"ID",33,plenac,PLENAC,z,,,,,,-0.026041667,-0.411458333,0,0,0,,0,325,325,266,1,,
,,,,,,,,,,,,,,,,,,5cba2e9af429ff00159dda71,2020-11-26_16h00.20.925,lexical_decision_task_MP_exp2,2020.2.5,Win32,60,z,1,0.559785,,,,,,,,0.559785,1,,,,,,273,NW,UN,16,fumblo,SORTEL,z,,,,,,-0.026041667,-0.411458333,0,0,0,,0,326,326,452,1,,
,,,,,,,,,,,,,,,,,,5cba2e9af429ff00159dda71,2020-11-26_16h00.20.925,lexical_decision_task_MP_exp2,2020.2.5,Win32,60,z,1,0.626555,,,,,,,,0.626555,1,,,,,,270,NW,UN,16,aubrid,WRIMSY,z,,,,,,-0.026041667,-0.411458333,0,0,0,,0,327,327,449,1,,
,,,,,,,,,,,,,,,,,,5cba2e9af429ff00159dda71,2020-11-26_16h00.20.925,lexical_decision_task_MP_exp2,2020.2.5,Win32,60,m,1,0.59956,,,,,,,,0.59956,1,,,,,,106,WORD,"ID",33,ransom,RANSOM,m,,,,,,-0.026041667,-0.411458333,0,0,0,,0,328,328,45,1,,
,,,,,,,,,,,,,,,,,,5cba2e9af429ff00159dda71,2020-11-26_16h00.20.925,lexical_decision_task_MP_exp2,2020.2.5,Win32,60,z,1,0.812755,,,,,,,,0.812755,1,,,,,,449,NW,UN,33,phrect,BRUNGE,z,,,,,,-0.026041667,-0.411458333,0,0,0,,0,329,329,388,1,,
,,,,,,,,,,,,,,,,,,5cba2e9af429ff00159dda71,2020-11-26_16h00.20.925,lexical_decision_task_MP_exp2,2020.2.5,Win32,60,m,1,0.788375,,,,,,,,0.788375,1,,,,,,49,WORD,UN,16,snatch,SURVEY,m,,,,,,-0.026041667,-0.411458333,0,0,0,,0,330,330,228,1,,
,,,,,,,,,,,,,,,,,,5cba2e9af429ff00159dda71,2020-11-26_16h00.20.925,lexical_decision_task_MP_exp2,2020.2.5,Win32,60,m,1,0.71083,,,,,,,,0.71083,1,,,,,,79,WORD,"ID",33,theory,THEORY,m,,,,,,-0.026041667,-0.411458333,0,0,0,,0,331,331,18,1,,
,,,,,,,,,,,,,,,,,,5cba2e9af429ff00159dda71,2020-11-26_16h00.20.925,lexical_decision_task_MP_exp2,2020.2.5,Win32,60,m,1,0.867905,,,,,,,,0.867905,1,,,,,,8,WORD,UN,16,hustle,ABRUPT,m,,,,,,-0.026041667,-0.411458333,0,0,0,,0,332,332,187,1,,
,,,,,,,,,,,,,,,,,,5cba2e9af429ff00159dda71,2020-11-26_16h00.20.925,lexical_decision_task_MP_exp2,2020.2.5,Win32,60,z,1,0.680945,,,,,,,,0.680945,1,,,,,,368,NW,"ID",16,hornal,HORNAL,z,,,,,,-0.026041667,-0.411458333,0,0,0,,0,333,333,307,1,,
,,,,,,,,,,,,,,,,,,5cba2e9af429ff00159dda71,2020-11-26_16h00.20.925,lexical_decision_task_MP_exp2,2020.2.5,Win32,60,z,1,0.608225,,,,,,,,0.608225,1,,,,,,371,NW,"ID",16,geiloy,GEILOY,z,,,,,,-0.026041667,-0.411458333,0,0,0,,0,334,334,310,1,,
,,,,,,,,,,,,,,,,,,5cba2e9af429ff00159dda71,2020-11-26_16h00.20.925,lexical_decision_task_MP_exp2,2020.2.5,Win32,60,m,1,0.69938,,,,,,,,0.69938,1,,,,,,109,WORD,"ID",33,wonder,WONDER,m,,,,,,-0.026041667,-0.411458333,0,0,0,,0,335,335,48,1,,
,,,,,,,,,,,,,,,,,,5cba2e9af429ff00159dda71,2020-11-26_16h00.20.925,lexical_decision_task_MP_exp2,2020.2.5,Win32,60,z,1,0.65005,,,,,,,,0.65005,1,,,,,,300,NW,UN,16,smenco,YARION,z,,,,,,-0.026041667,-0.411458333,0,0,0,,0,336,336,479,1,,
,,,,,,,,,,,,,,,,,,5cba2e9af429ff00159dda71,2020-11-26_16h00.20.925,lexical_decision_task_MP_exp2,2020.2.5,Win32,60,m,1,0.740885,,,,,,,,0.740885,1,,,,,,102,WORD,"ID",33,direct,DIRECT,m,,,,,,-0.026041667,-0.411458333,0,0,0,,0,337,337,41,1,,
,,,,,,,,,,,,,,,,,,5cba2e9af429ff00159dda71,2020-11-26_16h00.20.925,lexical_decision_task_MP_exp2,2020.2.5,Win32,60,m,1,0.748845,,,,,,,,0.748845,1,,,,,,101,WORD,"ID",33,wrench,WRENCH,m,,,,,,-0.026041667,-0.411458333,0,0,0,,0,338,338,40,1,,
,,,,,,,,,,,,,,,,,,5cba2e9af429ff00159dda71,2020-11-26_16h00.20.925,lexical_decision_task_MP_exp2,2020.2.5,Win32,60,z,1,0.61341,,,,,,,,0.61341,1,,,,,,252,NW,UN,16,resait,STAPOD,z,,,,,,-0.026041667,-0.411458333,0,0,0,,0,339,339,431,1,,
,,,,,,,,,,,,,,,,,,5cba2e9af429ff00159dda71,2020-11-26_16h00.20.925,lexical_decision_task_MP_exp2,2020.2.5,Win32,60,z,1,0.768565,,,,,,,,0.768565,1,,,,,,419,NW,"ID",16,slount,SLOUNT,z,,,,,,-0.026041667,-0.411458333,0,0,0,,0,340,340,358,1,,
,,,,,,,,,,,,,,,,,,5cba2e9af429ff00159dda71,2020-11-26_16h00.20.925,lexical_decision_task_MP_exp2,2020.2.5,Win32,60,m,1,0.73399,,,,,,,,0.73399,1,,,,,,233,WORD,UN,33,clumsy,NATURE,m,,,,,,-0.026041667,-0.411458333,0,0,0,,0,341,341,172,1,,
,,,,,,,,,,,,,,,,,,5cba2e9af429ff00159dda71,2020-11-26_16h00.20.925,lexical_decision_task_MP_exp2,2020.2.5,Win32,60,m,1,0.86326,,,,,,,,0.86326,1,,,,,,181,WORD,UN,33,winter,GLANCE,m,,,,,,-0.026041667,-0.411458333,0,0,0,,0,342,342,120,1,,
,,,,,,,,,,,,,,,,,,5cba2e9af429ff00159dda71,2020-11-26_16h00.20.925,lexical_decision_task_MP_exp2,2020.2.5,Win32,60,m,1,0.89168,,,,,,,,0.89168,1,,,,,,151,WORD,"ID",16,mystic,MYSTIC,m,,,,,,-0.026041667,-0.411458333,0,0,0,,0,343,343,90,1,,
,,,,,,,,,,,,,,,,,,5cba2e9af429ff00159dda71,2020-11-26_16h00.20.925,lexical_decision_task_MP_exp2,2020.2.5,Win32,60,z,1,0.697965,,,,,,,,0.697965,1,,,,,,410,NW,"ID",16,tunory,TUNORY,z,,,,,,-0.026041667,-0.411458333,0,0,0,,0,344,344,349,1,,
,,,,,,,,,,,,,,,,,,5cba2e9af429ff00159dda71,2020-11-26_16h00.20.925,lexical_decision_task_MP_exp2,2020.2.5,Win32,60,z,1,0.912745,,,,,,,,0.912745,1,,,,,,258,NW,UN,16,soudal,POLUTH,z,,,,,,-0.026041667,-0.411458333,0,0,0,,0,345,345,437,1,,
,,,,,,,,,,,,,,,,,,5cba2e9af429ff00159dda71,2020-11-26_16h00.20.925,lexical_decision_task_MP_exp2,2020.2.5,Win32,60,m,1,0.770495,,,,,,,,0.770495,1,,,,,,9,WORD,UN,16,bridge,HUSTLE,m,,,,,,-0.026041667,-0.411458333,0,0,0,,0,346,346,188,1,,
,,,,,,,,,,,,,,,,,,5cba2e9af429ff00159dda71,2020-11-26_16h00.20.925,lexical_decision_task_MP_exp2,2020.2.5,Win32,60,m,1,0.962185,,,,,,,,0.962185,1,,,,,,81,WORD,"ID",33,friend,FRIEND,m,,,,,,-0.026041667,-0.411458333,0,0,0,,0,347,347,20,1,,
,,,,,,,,,,,,,,,,,,5cba2e9af429ff00159dda71,2020-11-26_16h00.20.925,lexical_decision_task_MP_exp2,2020.2.5,Win32,60,z,1,0.66826,,,,,,,,0.66826,1,,,,,,468,NW,UN,33,padifs,WICTOR,z,,,,,,-0.026041667,-0.411458333,0,0,0,,0,348,348,407,1,,
,,,,,,,,,,,,,,,,,,5cba2e9af429ff00159dda71,2020-11-26_16h00.20.925,lexical_decision_task_MP_exp2,2020.2.5,Win32,60,z,1,0.586895,,,,,,,,0.586895,1,,,,,,455,NW,UN,33,broget,TONDLE,z,,,,,,-0.026041667,-0.411458333,0,0,0,,0,349,349,394,1,,
,,,,,,,,,,,,,,,,,,5cba2e9af429ff00159dda71,2020-11-26_16h00.20.925,lexical_decision_task_MP_exp2,2020.2.5,Win32,60,m,1,0.681235,,,,,,,,0.681235,1,,,,,,112,WORD,"ID",33,breath,BREATH,m,,,,,,-0.026041667,-0.411458333,0,0,0,,0,350,350,51,1,,
,,,,,,,,,,,,,,,,,,5cba2e9af429ff00159dda71,2020-11-26_16h00.20.925,lexical_decision_task_MP_exp2,2020.2.5,Win32,60,z,1,0.95265,,,,,,,,0.95265,1,,,,,,433,NW,UN,33,pitrom,DRANCE,z,,,,,,-0.026041667,-0.411458333,0,0,0,,0,351,351,372,1,,
,,,,,,,,,,,,,,,,,,5cba2e9af429ff00159dda71,2020-11-26_16h00.20.925,lexical_decision_task_MP_exp2,2020.2.5,Win32,60,z,1,0.90304,,,,,,,,0.90304,1,,,,,,309,NW,"ID",33,amiloy,AMILOY,z,,,,,,-0.026041667,-0.411458333,0,0,0,,0,352,352,248,1,,
,,,,,,,,,,,,,,,,,,5cba2e9af429ff00159dda71,2020-11-26_16h00.20.925,lexical_decision_task_MP_exp2,2020.2.5,Win32,60,m,1,0.75374,,,,,,,,0.75374,1,,,,,,174,WORD,"ID",16,turkey,TURKEY,m,,,,,,-0.026041667,-0.411458333,0,0,0,,0,353,353,113,1,,
,,,,,,,,,,,,,,,,,,5cba2e9af429ff00159dda71,2020-11-26_16h00.20.925,lexical_decision_task_MP_exp2,2020.2.5,Win32,60,z,1,0.900615,,,,,,,,0.900615,1,,,,,,430,NW,UN,33,chrums,CAROEY,z,,,,,,-0.026041667,-0.411458333,0,0,0,,0,354,354,369,1,,
,,,,,,,,,,,,,,,,,,5cba2e9af429ff00159dda71,2020-11-26_16h00.20.925,lexical_decision_task_MP_exp2,2020.2.5,Win32,60,m,1,0.902605,,,,,,,,0.902605,1,,,,,,155,WORD,"ID",16,lizard,LIZARD,m,,,,,,-0.026041667,-0.411458333,0,0,0,,0,355,355,94,1,,
,,,,,,,,,,,,,,,,,,5cba2e9af429ff00159dda71,2020-11-26_16h00.20.925,lexical_decision_task_MP_exp2,2020.2.5,Win32,60,m,1,0.87943,,,,,,,,0.87943,1,,,,,,47,WORD,UN,16,walnut,INCOME,m,,,,,,-0.026041667,-0.411458333,0,0,0,,0,356,356,226,1,,
,,,,,,,,,,,,,,,,,,5cba2e9af429ff00159dda71,2020-11-26_16h00.20.925,lexical_decision_task_MP_exp2,2020.2.5,Win32,60,z,1,0.698765,,,,,,,,0.698765,1,,,,,,293,NW,UN,16,inhort,SWANCE,z,,,,,,-0.026041667,-0.411458333,0,0,0,,0,357,357,472,1,,
,,,,,,,,,,,,,,,,,,5cba2e9af429ff00159dda71,2020-11-26_16h00.20.925,lexical_decision_task_MP_exp2,2020.2.5,Win32,60,z,1,1.42156,,,,,,,,1.42156,1,,,,,,381,NW,"ID",16,huniek,HUNIEK,z,,,,,,-0.026041667,-0.411458333,0,0,0,,0,358,358,320,1,,
,,,,,,,,,,,,,,,,,,5cba2e9af429ff00159dda71,2020-11-26_16h00.20.925,lexical_decision_task_MP_exp2,2020.2.5,Win32,60,m,1,0.69025,,,,,,,,0.69025,1,,,,,,39,WORD,UN,16,convey,INSECT,m,,,,,,-0.026041667,-0.411458333,0,0,0,,0,359,359,218,1,,
,,,,,,,,,,,,,,,,,,5cba2e9af429ff00159dda71,2020-11-26_16h00.20.925,lexical_decision_task_MP_exp2,2020.2.5,Win32,60,m,1,0.835805,,,,,,,,0.835805,1,,,,,,71,WORD,"ID",33,garden,GARDEN,m,,,,,,-0.026041667,-0.411458333,0,0,0,,0,360,360,10,1,,
,,,,,,,,,,,,,,,,,,5cba2e9af429ff00159dda71,2020-11-26_16h00.20.925,lexical_decision_task_MP_exp2,2020.2.5,Win32,60,z,1,0.63197,,,,,,,,0.63197,1,,,,,,281,NW,UN,16,porlex,MELATY,z,,,,,,-0.026041667,-0.411458333,0,0,0,,0,361,361,460,1,,
,,,,,,,,,,,,,,,,,,5cba2e9af429ff00159dda71,2020-11-26_16h00.20.925,lexical_decision_task_MP_exp2,2020.2.5,Win32,60,m,1,0.864575,,,,,,,,0.864575,1,,,,,,15,WORD,UN,16,faucet,AMOUNT,m,,,,,,0.067708333,-0.393229167,1,0,0,,0,362,362,194,1,,break_done_button
,,,,,,,,,,,,,,,,,,5cba2e9af429ff00159dda71,2020-11-26_16h00.20.925,lexical_decision_task_MP_exp2,2020.2.5,Win32,60,m,1,1.53852,,,,,,,,1.53852,1,,,,,,195,WORD,UN,33,credit,RESIGN,m,,,,,,0.115885417,-0.391927083,0,0,0,,0,363,363,134,1,,
,,,,,,,,,,,,,,,,,,5cba2e9af429ff00159dda71,2020-11-26_16h00.20.925,lexical_decision_task_MP_exp2,2020.2.5,Win32,60,z,1,0.82856,0.115885417,-0.391927083,1,0,0,0.49921,,0.82856,1,,,,,,254,NW,UN,16,apight,VAROSH,z,,,,,,0.115885417,-0.391927083,0,0,0,,0,364,364,433,1,,
,,,,,,,,,,,,,,,,,,5cba2e9af429ff00159dda71,2020-11-26_16h00.20.925,lexical_decision_task_MP_exp2,2020.2.5,Win32,60,m,1,0.915775,,,,,,,,0.915775,1,,,,,,216,WORD,UN,33,liquor,BEHALF,m,,,,,,0.115885417,-0.391927083,0,0,0,,0,365,365,155,1,,
,,,,,,,,,,,,,,,,,,5cba2e9af429ff00159dda71,2020-11-26_16h00.20.925,lexical_decision_task_MP_exp2,2020.2.5,Win32,60,m,1,0.789835,,,,,,,,0.789835,1,,,,,,56,WORD,UN,16,change,AMBUSH,m,,,,,,0.115885417,-0.391927083,0,0,0,,0,366,366,235,1,,
,,,,,,,,,,,,,,,,,,5cba2e9af429ff00159dda71,2020-11-26_16h00.20.925,lexical_decision_task_MP_exp2,2020.2.5,Win32,60,z,1,0.665025,,,,,,,,0.665025,1,,,,,,397,NW,"ID",16,camble,CAMBLE,z,,,,,,0.115885417,-0.391927083,0,0,0,,0,367,367,336,1,,
,,,,,,,,,,,,,,,,,,5cba2e9af429ff00159dda71,2020-11-26_16h00.20.925,lexical_decision_task_MP_exp2,2020.2.5,Win32,60,m,1,0.83208,,,,,,,,0.83208,1,,,,,,226,WORD,UN,33,flower,CASINO,m,,,,,,0.115885417,-0.391927083,0,0,0,,0,368,368,165,1,,
,,,,,,,,,,,,,,,,,,5cba2e9af429ff00159dda71,2020-11-26_16h00.20.925,lexical_decision_task_MP_exp2,2020.2.5,Win32,60,z,1,0.68209,,,,,,,,0.68209,1,,,,,,452,NW,UN,33,bolvis,SURDEN,z,,,,,,0.115885417,-0.391927083,0,0,0,,0,369,369,391,1,,
,,,,,,,,,,,,,,,,,,5cba2e9af429ff00159dda71,2020-11-26_16h00.20.925,lexical_decision_task_MP_exp2,2020.2.5,Win32,60,z,1,0.82082,,,,,,,,0.82082,1,,,,,,466,NW,UN,33,robuly,HOCITE,z,,,,,,0.115885417,-0.391927083,0,0,0,,0,370,370,405,1,,
,,,,,,,,,,,,,,,,,,5cba2e9af429ff00159dda71,2020-11-26_16h00.20.925,lexical_decision_task_MP_exp2,2020.2.5,Win32,60,z,1,0.651245,,,,,,,,0.651245,1,,,,,,356,NW,"ID",33,othnis,OTHNIS,z,,,,,,0.115885417,-0.393229167,0,0,0,,0,371,371,295,1,,
,,,,,,,,,,,,,,,,,,5cba2e9af429ff00159dda71,2020-11-26_16h00.20.925,lexical_decision_task_MP_exp2,2020.2.5,Win32,60,m,1,0.55819,,,,,,,,0.55819,1,,,,,,228,WORD,UN,33,kidney,MASTER,m,,,,,,0.115885417,-0.393229167,0,0,0,,0,372,372,167,1,,
,,,,,,,,,,,,,,,,,,5cba2e9af429ff00159dda71,2020-11-26_16h00.20.925,lexical_decision_task_MP_exp2,2020.2.5,Win32,60,m,1,0.80521,,,,,,,,0.80521,1,,,,,,139,WORD,"ID",16,debris,DEBRIS,m,,,,,,0.115885417,-0.393229167,0,0,0,,0,373,373,78,1,,
,,,,,,,,,,,,,,,,,,5cba2e9af429ff00159dda71,2020-11-26_16h00.20.925,lexical_decision_task_MP_exp2,2020.2.5,Win32,60,m,1,0.816285,,,,,,,,0.816285,1,,,,,,235,WORD,UN,33,pirate,GRUMPY,m,,,,,,0.115885417,-0.393229167,0,0,0,,0,374,374,174,1,,
,,,,,,,,,,,,,,,,,,5cba2e9af429ff00159dda71,2020-11-26_16h00.20.925,lexical_decision_task_MP_exp2,2020.2.5,Win32,60,z,1,0.63201,,,,,,,,0.63201,1,,,,,,355,NW,"ID",33,zingly,ZINGLY,z,,,,,,0.115885417,-0.393229167,0,0,0,,0,375,375,294,1,,
,,,,,,,,,,,,,,,,,,5cba2e9af429ff00159dda71,2020-11-26_16h00.20.925,lexical_decision_task_MP_exp2,2020.2.5,Win32,60,m,1,0.64687,,,,,,,,0.64687,1,,,,,,93,WORD,"ID",33,public,PUBLIC,m,,,,,,0.115885417,-0.393229167,0,0,0,,0,376,376,32,1,,
,,,,,,,,,,,,,,,,,,5cba2e9af429ff00159dda71,2020-11-26_16h00.20.925,lexical_decision_task_MP_exp2,2020.2.5,Win32,60,m,1,0.70023,,,,,,,,0.70023,1,,,,,,57,WORD,UN,16,danger,CHANGE,m,,,,,,0.115885417,-0.393229167,0,0,0,,0,377,377,236,1,,
,,,,,,,,,,,,,,,,,,5cba2e9af429ff00159dda71,2020-11-26_16h00.20.925,lexical_decision_task_MP_exp2,2020.2.5,Win32,60,z,1,0.86516,,,,,,,,0.86516,1,,,,,,431,NW,UN,33,lunker,CHRUMS,z,,,,,,0.115885417,-0.393229167,0,0,0,,0,378,378,370,1,,
,,,,,,,,,,,,,,,,,,5cba2e9af429ff00159dda71,2020-11-26_16h00.20.925,lexical_decision_task_MP_exp2,2020.2.5,Win32,60,z,1,0.758,,,,,,,,0.758,1,,,,,,365,NW,"ID",16,guairt,GUAIRT,z,,,,,,0.115885417,-0.393229167,0,0,0,,0,379,379,304,1,,
,,,,,,,,,,,,,,,,,,5cba2e9af429ff00159dda71,2020-11-26_16h00.20.925,lexical_decision_task_MP_exp2,2020.2.5,Win32,60,z,1,0.730145,,,,,,,,0.730145,1,,,,,,412,NW,"ID",16,jiluer,JILUER,z,,,,,,0.115885417,-0.393229167,0,0,0,,0,380,380,351,1,,
,,,,,,,,,,,,,,,,,,5cba2e9af429ff00159dda71,2020-11-26_16h00.20.925,lexical_decision_task_MP_exp2,2020.2.5,Win32,60,z,1,0.568305,,,,,,,,0.568305,1,,,,,,347,NW,"ID",33,kerift,KERIFT,z,,,,,,0.115885417,-0.393229167,0,0,0,,0,381,381,286,1,,
,,,,,,,,,,,,,,,,,,5cba2e9af429ff00159dda71,2020-11-26_16h00.20.925,lexical_decision_task_MP_exp2,2020.2.5,Win32,60,m,1,0.61184,,,,,,,,0.61184,1,,,,,,237,WORD,UN,33,glance,POSTER,m,,,,,,0.115885417,-0.393229167,0,0,0,,0,382,382,176,1,,
,,,,,,,,,,,,,,,,,,5cba2e9af429ff00159dda71,2020-11-26_16h00.20.925,lexical_decision_task_MP_exp2,2020.2.5,Win32,60,m,1,0.671295,,,,,,,,0.671295,1,,,,,,169,WORD,"ID",16,genius,GENIUS,m,,,,,,0.115885417,-0.393229167,0,0,0,,0,383,383,108,1,,
,,,,,,,,,,,,,,,,,,5cba2e9af429ff00159dda71,2020-11-26_16h00.20.925,lexical_decision_task_MP_exp2,2020.2.5,Win32,60,z,1,0.54281,,,,,,,,0.54281,1,,,,,,247,NW,UN,16,strole,BLARGE,z,,,,,,0.115885417,-0.393229167,0,0,0,,0,384,384,426,1,,
,,,,,,,,,,,,,,,,,,5cba2e9af429ff00159dda71,2020-11-26_16h00.20.925,lexical_decision_task_MP_exp2,2020.2.5,Win32,60,z,1,0.75172,,,,,,,,0.75172,1,,,,,,334,NW,"ID",33,watmeg,WATMEG,z,,,,,,0.115885417,-0.393229167,0,0,0,,0,385,385,273,1,,
,,,,,,,,,,,,,,,,,,5cba2e9af429ff00159dda71,2020-11-26_16h00.20.925,lexical_decision_task_MP_exp2,2020.2.5,Win32,60,m,1,0.71679,,,,,,,,0.71679,1,,,,,,230,WORD,UN,33,mother,FRINGE,m,,,,,,0.115885417,-0.393229167,0,0,0,,0,386,386,169,1,,
,,,,,,,,,,,,,,,,,,5cba2e9af429ff00159dda71,2020-11-26_16h00.20.925,lexical_decision_task_MP_exp2,2020.2.5,Win32,60,z,1,0.62563,,,,,,,,0.62563,1,,,,,,274,NW,UN,16,sleirt,FUMBLO,z,,,,,,0.115885417,-0.393229167,0,0,0,,0,387,387,453,1,,
,,,,,,,,,,,,,,,,,,5cba2e9af429ff00159dda71,2020-11-26_16h00.20.925,lexical_decision_task_MP_exp2,2020.2.5,Win32,60,z,1,0.717445,,,,,,,,0.717445,1,,,,,,319,NW,"ID",33,zomber,ZOMBER,z,,,,,,0.115885417,-0.393229167,0,0,0,,0,388,388,258,1,,
,,,,,,,,,,,,,,,,,,5cba2e9af429ff00159dda71,2020-11-26_16h00.20.925,lexical_decision_task_MP_exp2,2020.2.5,Win32,60,m,1,0.70693,,,,,,,,0.70693,1,,,,,,236,WORD,UN,33,grumpy,PIRATE,m,,,,,,0.115885417,-0.393229167,0,0,0,,0,389,389,175,1,,
,,,,,,,,,,,,,,,,,,5cba2e9af429ff00159dda71,2020-11-26_16h00.20.925,lexical_decision_task_MP_exp2,2020.2.5,Win32,60,m,1,0.68139,,,,,,,,0.68139,1,,,,,,19,WORD,UN,16,breast,PATRON,m,,,,,,0.115885417,-0.393229167,0,0,0,,0,390,390,198,1,,
,,,,,,,,,,,,,,,,,,5cba2e9af429ff00159dda71,2020-11-26_16h00.20.925,lexical_decision_task_MP_exp2,2020.2.5,Win32,60,z,1,0.6412,,,,,,,,0.6412,1,,,,,,256,NW,UN,16,veniod,INLORS,z,,,,,,0.115885417,-0.393229167,0,0,0,,0,391,391,435,1,,
,,,,,,,,,,,,,,,,,,5cba2e9af429ff00159dda71,2020-11-26_16h00.20.925,lexical_decision_task_MP_exp2,2020.2.5,Win32,60,m,1,0.780255,,,,,,,,0.780255,1,,,,,,137,WORD,"ID",16,finger,FINGER,m,,,,,,0.115885417,-0.393229167,0,0,0,,0,392,392,76,1,,
,,,,,,,,,,,,,,,,,,5cba2e9af429ff00159dda71,2020-11-26_16h00.20.925,lexical_decision_task_MP_exp2,2020.2.5,Win32,60,z,1,0.97218,,,,,,,,0.97218,1,,,,,,314,NW,"ID",33,sprine,SPRINE,z,,,,,,0.115885417,-0.393229167,0,0,0,,0,393,393,253,1,,
,,,,,,,,,,,,,,,,,,5cba2e9af429ff00159dda71,2020-11-26_16h00.20.925,lexical_decision_task_MP_exp2,2020.2.5,Win32,60,m,1,0.66969,,,,,,,,0.66969,1,,,,,,52,WORD,UN,16,police,IMPOSE,m,,,,,,0.115885417,-0.393229167,0,0,0,,0,394,394,231,1,,
,,,,,,,,,,,,,,,,,,5cba2e9af429ff00159dda71,2020-11-26_16h00.20.925,lexical_decision_task_MP_exp2,2020.2.5,Win32,60,m,1,0.777715,,,,,,,,0.777715,1,,,,,,158,WORD,"ID",16,island,ISLAND,m,,,,,,0.115885417,-0.393229167,0,0,0,,0,395,395,97,1,,
