counterbalancing_condition,instr_done_keyboard.keys,instr_done_touch.x,instr_done_touch.y,instr_done_touch.leftButton,instr_done_touch.midButton,instr_done_touch.rightButton,instr_done_touch.clicked_name,instruction_pages.thisRepN,instruction_pages.thisTrialN,instruction_pages.thisN,instruction_pages.thisIndex,instruction_pages.ran,pageN,phase,instruct_text,has_image,instruct_image,participant,date,expName,psychopyVersion,OS,frameRate,instr_done_keyboard.rt,response.keys,response.corr,response.rt,touch_resp.x,touch_resp.y,touch_resp.leftButton,touch_resp.midButton,touch_resp.rightButton,touch_resp.time,touch_resp.clicked_name,rt,corr,practice_trials.thisRepN,practice_trials.thisTrialN,practice_trials.thisN,practice_trials.thisIndex,practice_trials.ran,TrialID,StimulusType,Condition,PrimeDuration,Prime,Target,corrAns,end_of_practice_trials_pages.thisRepN,end_of_practice_trials_pages.thisTrialN,end_of_practice_trials_pages.thisN,end_of_practice_trials_pages.thisIndex,end_of_practice_trials_pages.ran,break_done_touch.x,break_done_touch.y,break_done_touch.leftButton,break_done_touch.midButton,break_done_touch.rightButton,break_done_keyboard.keys,experiment_trials.thisRepN,experiment_trials.thisTrialN,experiment_trials.thisN,experiment_trials.thisIndex,experiment_trials.ran,break_done_keyboard.rt
1,,0.002500022,-0.417500027,1,0,0,instr_done_button,0,0,0,0,1,1,instructions,"INSTRUCTIONS
At the start of each trial, look at the hash marks (######) in the center of the screen. After a moment, a string of letters will appear. Your task is to indicate if the letter string forms a word or not (i.e., if it is a nonword). For example, AUTHOR is a word while AUTHON is a nonword.

Press the space bar or touch the button below to continue.",0,,5d82d28977546f00166ae702,2020-11-27_10h05.00.631,lexical_decision_task_MP_exp2,2020.2.5,Win32,60,,,,,,,,,,,,,,,,,,,,,,,,,,,,,,,,,,,,,,,,,,
,space,0.672500042,0.028333319,0,0,0,,0,1,1,1,1,2,instructions,"If your device has a keyboard, press the 'Z' key for nonwords and the 'M' key for words.





Press the space bar or touch the button below to continue.",1,keyboard-example.gif,5d82d28977546f00166ae702,2020-11-27_10h05.00.631,lexical_decision_task_MP_exp2,2020.2.5,Win32,60,10.104125,,,,,,,,,,,,,,,,,,,,,,,,,,,,,,,,,,,,,,,,,
,space,0.672500042,0.028333319,0,0,0,,0,2,2,2,1,3,instructions,"If you are using a touchscreen only device, use the buttons on the screen. Do not use the mouse.





Press the space bar or touch the button below to continue.",1,touchscreen-example.gif,5d82d28977546f00166ae702,2020-11-27_10h05.00.631,lexical_decision_task_MP_exp2,2020.2.5,Win32,60,2.428065,,,,,,,,,,,,,,,,,,,,,,,,,,,,,,,,,,,,,,,,,
,space,0.749166711,0.119999989,0,0,0,,0,3,3,3,1,4,instructions,"It is very important that you respond as quickly and accurately as possible, as each letter string will only be on the screen for two seconds. If you do not respond within this time, the message 'Too slow!' will be displayed and the experiment will progress to the next letter string. The first 20 trials will be practice trials and you will receive feedback on your answers. 

Press the space bar or touch the button below to start the practice trials.",0,,5d82d28977546f00166ae702,2020-11-27_10h05.00.631,lexical_decision_task_MP_exp2,2020.2.5,Win32,60,37.626775,,,,,,,,,,,,,,,,,,,,,,,,,,,,,,,,,,,,,,,,,
,,,,,,,,,,,,,,,,,,5d82d28977546f00166ae702,2020-11-27_10h05.00.631,lexical_decision_task_MP_exp2,2020.2.5,Win32,60,,z,1,0.98521,,,,,,,,0.98521,1,0,0,0,12,1,1013,NW,UN,33,adveil,SPRINY,z,,,,,,,,,,,,,,,,,
,,,,,,,,,,,,,,,,,,5d82d28977546f00166ae702,2020-11-27_10h05.00.631,lexical_decision_task_MP_exp2,2020.2.5,Win32,60,,m,1,0.51485,,,,,,,,0.51485,1,0,1,1,1,1,1002,WORD,"ID",33,adjust,ADJUST,m,,,,,,,,,,,,,,,,,
,,,,,,,,,,,,,,,,,,5d82d28977546f00166ae702,2020-11-27_10h05.00.631,lexical_decision_task_MP_exp2,2020.2.5,Win32,60,,m,1,0.62874,,,,,,,,0.62874,1,0,2,2,4,1,1005,WORD,UN,33,abound,SQUEAK,m,,,,,,,,,,,,,,,,,
,,,,,,,,,,,,,,,,,,5d82d28977546f00166ae702,2020-11-27_10h05.00.631,lexical_decision_task_MP_exp2,2020.2.5,Win32,60,,m,0,0.468875,,,,,,,,0.468875,0,0,3,3,8,1,1009,NW,"ID",33,aslert,ASLERT,z,,,,,,,,,,,,,,,,,
,,,,,,,,,,,,,,,,,,5d82d28977546f00166ae702,2020-11-27_10h05.00.631,lexical_decision_task_MP_exp2,2020.2.5,Win32,60,,m,1,0.51626,,,,,,,,0.51626,1,0,4,4,6,1,1007,WORD,UN,16,tropic,ZOMBIE,m,,,,,,,,,,,,,,,,,
,,,,,,,,,,,,,,,,,,5d82d28977546f00166ae702,2020-11-27_10h05.00.631,lexical_decision_task_MP_exp2,2020.2.5,Win32,60,,z,1,0.55346,,,,,,,,0.55346,1,0,5,5,10,1,1011,NW,"ID",16,inlade,INLADE,z,,,,,,,,,,,,,,,,,
,,,,,,,,,,,,,,,,,,5d82d28977546f00166ae702,2020-11-27_10h05.00.631,lexical_decision_task_MP_exp2,2020.2.5,Win32,60,,m,1,0.52035,,,,,,,,0.52035,1,0,6,6,2,1,1003,WORD,"ID",16,almond,ALMOND,m,,,,,,,,,,,,,,,,,
,,,,,,,,,,,,,,,,,,5d82d28977546f00166ae702,2020-11-27_10h05.00.631,lexical_decision_task_MP_exp2,2020.2.5,Win32,60,,z,1,0.5588,,,,,,,,0.5588,1,0,7,7,11,1,1012,NW,"ID",16,rashet,RASHET,z,,,,,,,,,,,,,,,,,
,,,,,,,,,,,,,,,,,,5d82d28977546f00166ae702,2020-11-27_10h05.00.631,lexical_decision_task_MP_exp2,2020.2.5,Win32,60,,m,1,0.50759,,,,,,,,0.50759,1,0,8,8,0,1,1001,WORD,"ID",33,utopia,UTOPIA,m,,,,,,,,,,,,,,,,,
,,,,,,,,,,,,,,,,,,5d82d28977546f00166ae702,2020-11-27_10h05.00.631,lexical_decision_task_MP_exp2,2020.2.5,Win32,60,,m,1,0.506715,,,,,,,,0.506715,1,0,9,9,3,1,1004,WORD,"ID",16,matrix,MATRIX,m,,,,,,,,,,,,,,,,,
,,,,,,,,,,,,,,,,,,5d82d28977546f00166ae702,2020-11-27_10h05.00.631,lexical_decision_task_MP_exp2,2020.2.5,Win32,60,,z,1,0.482825,,,,,,,,0.482825,1,0,10,10,14,1,1015,NW,UN,16,miaber,THRALE,z,,,,,,,,,,,,,,,,,
,,,,,,,,,,,,,,,,,,5d82d28977546f00166ae702,2020-11-27_10h05.00.631,lexical_decision_task_MP_exp2,2020.2.5,Win32,60,,m,1,0.546395,,,,,,,,0.546395,1,0,11,11,7,1,1008,WORD,UN,16,hurdle,VOLUME,m,,,,,,,,,,,,,,,,,
,,,,,,,,,,,,,,,,,,5d82d28977546f00166ae702,2020-11-27_10h05.00.631,lexical_decision_task_MP_exp2,2020.2.5,Win32,60,,z,1,0.50642,,,,,,,,0.50642,1,0,12,12,15,1,1016,NW,UN,16,mushed,WHAISE,z,,,,,,,,,,,,,,,,,
,,,,,,,,,,,,,,,,,,5d82d28977546f00166ae702,2020-11-27_10h05.00.631,lexical_decision_task_MP_exp2,2020.2.5,Win32,60,,m,1,0.52003,,,,,,,,0.52003,1,0,13,13,5,1,1006,WORD,UN,33,frenzy,OBTAIN,m,,,,,,,,,,,,,,,,,
,,,,,,,,,,,,,,,,,,5d82d28977546f00166ae702,2020-11-27_10h05.00.631,lexical_decision_task_MP_exp2,2020.2.5,Win32,60,,z,1,0.54113,,,,,,,,0.54113,1,0,14,14,9,1,1010,NW,"ID",33,fariny,FARINY,z,,,,,,,,,,,,,,,,,
,,,,,,,,,,,,,,,,,,5d82d28977546f00166ae702,2020-11-27_10h05.00.631,lexical_decision_task_MP_exp2,2020.2.5,Win32,60,,z,1,0.490605,,,,,,,,0.490605,1,0,15,15,13,1,1014,NW,UN,33,winfer,ROUPET,z,,,,,,,,,,,,,,,,,
,space,0.749166711,0.119999989,0,0,0,,,,,,,1,end_of_practice,"You have completed the practice trials. During the experimental trials, you will not receive feedback, but it is very important that you respond as quickly and accurately as possible. 
Before you begin, please ensure that you are in a comfortable and quiet location and will not be disturbed for about 15 minutes, as we cannot use your data if you do not complete all the trials. 
There will be opportunities to take breaks at regular intervals during the experiment. When you are ready to start the experimental trials, please press space or touch the button below.",,,5d82d28977546f00166ae702,2020-11-27_10h05.00.631,lexical_decision_task_MP_exp2,2020.2.5,Win32,60,48.91643,,,,,,,,,,,,,,,,,,,,,,,,,0,0,0,0,1,,,,,,,,,,,,
,,,,,,,,,,,,,,,,,,5d82d28977546f00166ae702,2020-11-27_10h05.00.631,lexical_decision_task_MP_exp2,2020.2.5,Win32,60,,z,1,0.680805,,,,,,,,0.680805,1,,,,,,454,NW,UN,16,tondle,SCOUGE,z,,,,,,0.749166711,0.119999989,0,0,0,,0,0,0,453,1,
,,,,,,,,,,,,,,,,,,5d82d28977546f00166ae702,2020-11-27_10h05.00.631,lexical_decision_task_MP_exp2,2020.2.5,Win32,60,,z,1,0.5321,,,,,,,,0.5321,1,,,,,,388,NW,UN,33,witmer,CRAGIN,z,,,,,,0.749166711,0.119999989,0,0,0,,0,1,1,387,1,
,,,,,,,,,,,,,,,,,,5d82d28977546f00166ae702,2020-11-27_10h05.00.631,lexical_decision_task_MP_exp2,2020.2.5,Win32,60,,m,1,0.46914,,,,,,,,0.46914,1,,,,,,70,WORD,"ID",16,square,SQUARE,m,,,,,,0.749166711,0.119999989,0,0,0,,0,2,2,69,1,
,,,,,,,,,,,,,,,,,,5d82d28977546f00166ae702,2020-11-27_10h05.00.631,lexical_decision_task_MP_exp2,2020.2.5,Win32,60,,m,1,0.49645,,,,,,,,0.49645,1,,,,,,134,WORD,UN,33,import,STAPLE,m,,,,,,0.749166711,0.119999989,0,0,0,,0,3,3,133,1,
,,,,,,,,,,,,,,,,,,5d82d28977546f00166ae702,2020-11-27_10h05.00.631,lexical_decision_task_MP_exp2,2020.2.5,Win32,60,,z,1,0.635775,,,,,,,,0.635775,1,,,,,,257,NW,"ID",33,veniod,VENIOD,z,,,,,,0.749166711,0.119999989,0,0,0,,0,4,4,256,1,
,,,,,,,,,,,,,,,,,,5d82d28977546f00166ae702,2020-11-27_10h05.00.631,lexical_decision_task_MP_exp2,2020.2.5,Win32,60,,z,1,0.5478,,,,,,,,0.5478,1,,,,,,448,NW,UN,16,brunge,SADENT,z,,,,,,0.749166711,0.119999989,0,0,0,,0,5,5,447,1,
,,,,,,,,,,,,,,,,,,5d82d28977546f00166ae702,2020-11-27_10h05.00.631,lexical_decision_task_MP_exp2,2020.2.5,Win32,60,,m,1,0.48981,,,,,,,,0.48981,1,,,,,,143,WORD,UN,33,sponge,REASON,m,,,,,,0.749166711,0.119999989,0,0,0,,0,6,6,142,1,
,,,,,,,,,,,,,,,,,,5d82d28977546f00166ae702,2020-11-27_10h05.00.631,lexical_decision_task_MP_exp2,2020.2.5,Win32,60,,z,1,0.50278,,,,,,,,0.50278,1,,,,,,302,NW,"ID",16,miluer,MILUER,z,,,,,,0.749166711,0.119999989,0,0,0,,0,7,7,301,1,
,,,,,,,,,,,,,,,,,,5d82d28977546f00166ae702,2020-11-27_10h05.00.631,lexical_decision_task_MP_exp2,2020.2.5,Win32,60,,z,1,0.61855,,,,,,,,0.61855,1,,,,,,476,NW,UN,16,photie,JOSTED,z,,,,,,0.749166711,0.119999989,0,0,0,,0,8,8,475,1,
,,,,,,,,,,,,,,,,,,5d82d28977546f00166ae702,2020-11-27_10h05.00.631,lexical_decision_task_MP_exp2,2020.2.5,Win32,60,,z,1,0.49435,,,,,,,,0.49435,1,,,,,,246,NW,"ID",33,piaton,PIATON,z,,,,,,0.749166711,0.119999989,0,0,0,,0,9,9,245,1,
,,,,,,,,,,,,,,,,,,5d82d28977546f00166ae702,2020-11-27_10h05.00.631,lexical_decision_task_MP_exp2,2020.2.5,Win32,60,,m,1,0.51514,,,,,,,,0.51514,1,,,,,,92,WORD,"ID",16,strand,STRAND,m,,,,,,0.749166711,0.119999989,0,0,0,,0,10,10,91,1,
,,,,,,,,,,,,,,,,,,5d82d28977546f00166ae702,2020-11-27_10h05.00.631,lexical_decision_task_MP_exp2,2020.2.5,Win32,60,,z,1,0.597965,,,,,,,,0.597965,1,,,,,,314,NW,"ID",16,sprine,SPRINE,z,,,,,,0.749166711,0.119999989,0,0,0,,0,11,11,313,1,
,,,,,,,,,,,,,,,,,,5d82d28977546f00166ae702,2020-11-27_10h05.00.631,lexical_decision_task_MP_exp2,2020.2.5,Win32,60,,m,1,0.813065,,,,,,,,0.813065,1,,,,,,110,WORD,"ID",16,polite,POLITE,m,,,,,,0.749166711,0.119999989,0,0,0,,0,12,12,109,1,
,,,,,,,,,,,,,,,,,,5d82d28977546f00166ae702,2020-11-27_10h05.00.631,lexical_decision_task_MP_exp2,2020.2.5,Win32,60,,z,1,0.682905,,,,,,,,0.682905,1,,,,,,428,NW,UN,16,chrums,TANDLY,z,,,,,,0.749166711,0.119999989,0,0,0,,0,13,13,427,1,
,,,,,,,,,,,,,,,,,,5d82d28977546f00166ae702,2020-11-27_10h05.00.631,lexical_decision_task_MP_exp2,2020.2.5,Win32,60,,z,1,0.662865,,,,,,,,0.662865,1,,,,,,424,NW,UN,16,urivel,PRAILE,z,,,,,,0.749166711,0.119999989,0,0,0,,0,14,14,423,1,
,,,,,,,,,,,,,,,,,,5d82d28977546f00166ae702,2020-11-27_10h05.00.631,lexical_decision_task_MP_exp2,2020.2.5,Win32,60,,m,1,0.63043,,,,,,,,0.63043,1,,,,,,230,WORD,UN,16,export,FRINGE,m,,,,,,0.749166711,0.119999989,0,0,0,,0,15,15,229,1,
,,,,,,,,,,,,,,,,,,5d82d28977546f00166ae702,2020-11-27_10h05.00.631,lexical_decision_task_MP_exp2,2020.2.5,Win32,60,,z,1,0.668015,,,,,,,,0.668015,1,,,,,,295,NW,"ID",33,gleath,GLEATH,z,,,,,,0.749166711,0.119999989,0,0,0,,0,16,16,294,1,
,,,,,,,,,,,,,,,,,,5d82d28977546f00166ae702,2020-11-27_10h05.00.631,lexical_decision_task_MP_exp2,2020.2.5,Win32,60,,z,1,0.533215,,,,,,,,0.533215,1,,,,,,384,NW,UN,33,veigma,GUESCO,z,,,,,,0.749166711,0.119999989,0,0,0,,0,17,17,383,1,
,,,,,,,,,,,,,,,,,,5d82d28977546f00166ae702,2020-11-27_10h05.00.631,lexical_decision_task_MP_exp2,2020.2.5,Win32,60,,z,1,0.4997,,,,,,,,0.4997,1,,,,,,474,NW,UN,16,gorbie,HABLIN,z,,,,,,0.749166711,0.119999989,0,0,0,,0,18,18,473,1,
,,,,,,,,,,,,,,,,,,5d82d28977546f00166ae702,2020-11-27_10h05.00.631,lexical_decision_task_MP_exp2,2020.2.5,Win32,60,,m,1,0.496565,,,,,,,,0.496565,1,,,,,,219,WORD,UN,16,voyage,BUCKET,m,,,,,,0.749166711,0.119999989,0,0,0,,0,19,19,218,1,
,,,,,,,,,,,,,,,,,,5d82d28977546f00166ae702,2020-11-27_10h05.00.631,lexical_decision_task_MP_exp2,2020.2.5,Win32,60,,m,1,0.46706,,,,,,,,0.46706,1,,,,,,95,WORD,"ID",16,thread,THREAD,m,,,,,,0.749166711,0.119999989,0,0,0,,0,20,20,94,1,
,,,,,,,,,,,,,,,,,,5d82d28977546f00166ae702,2020-11-27_10h05.00.631,lexical_decision_task_MP_exp2,2020.2.5,Win32,60,,z,1,0.450665,,,,,,,,0.450665,1,,,,,,298,NW,"ID",33,piergy,PIERGY,z,,,,,,0.749166711,0.119999989,0,0,0,,0,21,21,297,1,
,,,,,,,,,,,,,,,,,,5d82d28977546f00166ae702,2020-11-27_10h05.00.631,lexical_decision_task_MP_exp2,2020.2.5,Win32,60,,z,1,0.667545,,,,,,,,0.667545,1,,,,,,290,NW,"ID",33,splino,SPLINO,z,,,,,,0.749166711,0.119999989,0,0,0,,0,22,22,289,1,
,,,,,,,,,,,,,,,,,,5d82d28977546f00166ae702,2020-11-27_10h05.00.631,lexical_decision_task_MP_exp2,2020.2.5,Win32,60,,z,1,0.585285,,,,,,,,0.585285,1,,,,,,369,NW,UN,33,sleact,WRONCH,z,,,,,,0.749166711,0.119999989,0,0,0,,0,23,23,368,1,
,,,,,,,,,,,,,,,,,,5d82d28977546f00166ae702,2020-11-27_10h05.00.631,lexical_decision_task_MP_exp2,2020.2.5,Win32,60,,z,1,0.481205,,,,,,,,0.481205,1,,,,,,417,NW,UN,33,suidle,EAROUD,z,,,,,,0.749166711,0.119999989,0,0,0,,0,24,24,416,1,
,,,,,,,,,,,,,,,,,,5d82d28977546f00166ae702,2020-11-27_10h05.00.631,lexical_decision_task_MP_exp2,2020.2.5,Win32,60,,m,1,0.500095,,,,,,,,0.500095,1,,,,,,60,WORD,"ID",33,pencil,PENCIL,m,,,,,,0.749166711,0.119999989,0,0,0,,0,25,25,59,1,
,,,,,,,,,,,,,,,,,,5d82d28977546f00166ae702,2020-11-27_10h05.00.631,lexical_decision_task_MP_exp2,2020.2.5,Win32,60,,m,1,0.532355,,,,,,,,0.532355,1,,,,,,73,WORD,"ID",16,source,SOURCE,m,,,,,,0.749166711,0.119999989,0,0,0,,0,26,26,72,1,
,,,,,,,,,,,,,,,,,,5d82d28977546f00166ae702,2020-11-27_10h05.00.631,lexical_decision_task_MP_exp2,2020.2.5,Win32,60,,z,1,0.663695,,,,,,,,0.663695,1,,,,,,433,NW,UN,16,pitrom,DRANCE,z,,,,,,0.749166711,0.119999989,0,0,0,,0,27,27,432,1,
,,,,,,,,,,,,,,,,,,5d82d28977546f00166ae702,2020-11-27_10h05.00.631,lexical_decision_task_MP_exp2,2020.2.5,Win32,60,,z,1,0.566575,,,,,,,,0.566575,1,,,,,,244,NW,"ID",33,eatric,EATRIC,z,,,,,,0.749166711,0.119999989,0,0,0,,0,28,28,243,1,
,,,,,,,,,,,,,,,,,,5d82d28977546f00166ae702,2020-11-27_10h05.00.631,lexical_decision_task_MP_exp2,2020.2.5,Win32,60,,m,1,0.502845,,,,,,,,0.502845,1,,,,,,224,WORD,UN,16,vulgar,PERIOD,m,,,,,,0.749166711,0.119999989,0,0,0,,0,29,29,223,1,
,,,,,,,,,,,,,,,,,,5d82d28977546f00166ae702,2020-11-27_10h05.00.631,lexical_decision_task_MP_exp2,2020.2.5,Win32,60,,m,1,0.54799,,,,,,,,0.54799,1,,,,,,58,WORD,"ID",33,foster,FOSTER,m,,,,,,0.749166711,0.119999989,0,0,0,,0,30,30,57,1,
,,,,,,,,,,,,,,,,,,5d82d28977546f00166ae702,2020-11-27_10h05.00.631,lexical_decision_task_MP_exp2,2020.2.5,Win32,60,,m,1,0.478745,,,,,,,,0.478745,1,,,,,,212,WORD,UN,16,squeal,VERIFY,m,,,,,,0.749166711,0.119999989,0,0,0,,0,31,31,211,1,
,,,,,,,,,,,,,,,,,,5d82d28977546f00166ae702,2020-11-27_10h05.00.631,lexical_decision_task_MP_exp2,2020.2.5,Win32,60,,z,1,0.63014,,,,,,,,0.63014,1,,,,,,335,NW,"ID",16,desion,DESION,z,,,,,,0.749166711,0.119999989,0,0,0,,0,32,32,334,1,
,,,,,,,,,,,,,,,,,,5d82d28977546f00166ae702,2020-11-27_10h05.00.631,lexical_decision_task_MP_exp2,2020.2.5,Win32,60,,m,1,0.547755,,,,,,,,0.547755,1,,,,,,135,WORD,UN,33,chrome,IMPORT,m,,,,,,0.749166711,0.119999989,0,0,0,,0,33,33,134,1,
,,,,,,,,,,,,,,,,,,5d82d28977546f00166ae702,2020-11-27_10h05.00.631,lexical_decision_task_MP_exp2,2020.2.5,Win32,60,,m,0,0.70362,,,,,,,,0.70362,0,,,,,,301,NW,"ID",16,fainch,FAINCH,z,,,,,,0.749166711,0.119999989,0,0,0,,0,34,34,300,1,
,,,,,,,,,,,,,,,,,,5d82d28977546f00166ae702,2020-11-27_10h05.00.631,lexical_decision_task_MP_exp2,2020.2.5,Win32,60,,m,1,0.620475,,,,,,,,0.620475,1,,,,,,4,WORD,"ID",33,trench,TRENCH,m,,,,,,0.749166711,0.119999989,0,0,0,,0,35,35,3,1,
,,,,,,,,,,,,,,,,,,5d82d28977546f00166ae702,2020-11-27_10h05.00.631,lexical_decision_task_MP_exp2,2020.2.5,Win32,60,,z,0,0.477255,,,,,,,,0.477255,0,,,,,,148,WORD,UN,33,invade,CUSTOM,m,,,,,,0.749166711,0.119999989,0,0,0,,0,36,36,147,1,
,,,,,,,,,,,,,,,,,,5d82d28977546f00166ae702,2020-11-27_10h05.00.631,lexical_decision_task_MP_exp2,2020.2.5,Win32,60,,z,1,0.882895,,,,,,,,0.882895,1,,,,,,346,NW,"ID",16,saudic,SAUDIC,z,,,,,,0.749166711,0.119999989,0,0,0,,0,37,37,345,1,
,,,,,,,,,,,,,,,,,,5d82d28977546f00166ae702,2020-11-27_10h05.00.631,lexical_decision_task_MP_exp2,2020.2.5,Win32,60,,z,1,0.6474,,,,,,,,0.6474,1,,,,,,397,NW,UN,33,blunde,CAMBLE,z,,,,,,0.749166711,0.119999989,0,0,0,,0,38,38,396,1,
,,,,,,,,,,,,,,,,,,5d82d28977546f00166ae702,2020-11-27_10h05.00.631,lexical_decision_task_MP_exp2,2020.2.5,Win32,60,,m,1,0.504175,,,,,,,,0.504175,1,,,,,,32,WORD,"ID",33,buckle,BUCKLE,m,,,,,,0.749166711,0.119999989,0,0,0,,0,39,39,31,1,
,,,,,,,,,,,,,,,,,,5d82d28977546f00166ae702,2020-11-27_10h05.00.631,lexical_decision_task_MP_exp2,2020.2.5,Win32,60,,z,1,0.705465,,,,,,,,0.705465,1,,,,,,466,NW,UN,16,pebric,HOCITE,z,,,,,,0.749166711,0.119999989,0,0,0,,0,40,40,465,1,
,,,,,,,,,,,,,,,,,,5d82d28977546f00166ae702,2020-11-27_10h05.00.631,lexical_decision_task_MP_exp2,2020.2.5,Win32,60,,m,1,0.486725,,,,,,,,0.486725,1,,,,,,91,WORD,"ID",16,expand,EXPAND,m,,,,,,0.749166711,0.119999989,0,0,0,,0,41,41,90,1,
,,,,,,,,,,,,,,,,,,5d82d28977546f00166ae702,2020-11-27_10h05.00.631,lexical_decision_task_MP_exp2,2020.2.5,Win32,60,,m,1,0.58692,,,,,,,,0.58692,1,,,,,,101,WORD,"ID",16,wrench,WRENCH,m,,,,,,0.749166711,0.119999989,0,0,0,,0,42,42,100,1,
,,,,,,,,,,,,,,,,,,5d82d28977546f00166ae702,2020-11-27_10h05.00.631,lexical_decision_task_MP_exp2,2020.2.5,Win32,60,,m,1,0.50601,,,,,,,,0.50601,1,,,,,,169,WORD,UN,33,pounce,GENIUS,m,,,,,,0.749166711,0.119999989,0,0,0,,0,43,43,168,1,
,,,,,,,,,,,,,,,,,,5d82d28977546f00166ae702,2020-11-27_10h05.00.631,lexical_decision_task_MP_exp2,2020.2.5,Win32,60,,m,1,0.507345,,,,,,,,0.507345,1,,,,,,28,WORD,"ID",33,comedy,COMEDY,m,,,,,,0.749166711,0.119999989,0,0,0,,0,44,44,27,1,
,,,,,,,,,,,,,,,,,,5d82d28977546f00166ae702,2020-11-27_10h05.00.631,lexical_decision_task_MP_exp2,2020.2.5,Win32,60,,m,1,0.5118,,,,,,,,0.5118,1,,,,,,126,WORD,UN,33,castle,ENOUGH,m,,,,,,0.749166711,0.119999989,0,0,0,,0,45,45,125,1,
,,,,,,,,,,,,,,,,,,5d82d28977546f00166ae702,2020-11-27_10h05.00.631,lexical_decision_task_MP_exp2,2020.2.5,Win32,60,,m,1,0.651265,,,,,,,,0.651265,1,,,,,,111,WORD,"ID",16,induce,INDUCE,m,,,,,,0.749166711,0.119999989,0,0,0,,0,46,46,110,1,
,,,,,,,,,,,,,,,,,,5d82d28977546f00166ae702,2020-11-27_10h05.00.631,lexical_decision_task_MP_exp2,2020.2.5,Win32,60,,z,1,0.55968,,,,,,,,0.55968,1,,,,,,266,NW,"ID",33,varmit,VARMIT,z,,,,,,0.749166711,0.119999989,0,0,0,,0,47,47,265,1,
,,,,,,,,,,,,,,,,,,5d82d28977546f00166ae702,2020-11-27_10h05.00.631,lexical_decision_task_MP_exp2,2020.2.5,Win32,60,,z,1,0.62549,,,,,,,,0.62549,1,,,,,,308,NW,"ID",16,psetch,PSETCH,z,,,,,,0.749166711,0.119999989,0,0,0,,0,48,48,307,1,
,,,,,,,,,,,,,,,,,,5d82d28977546f00166ae702,2020-11-27_10h05.00.631,lexical_decision_task_MP_exp2,2020.2.5,Win32,60,,m,1,0.620135,,,,,,,,0.620135,1,,,,,,172,WORD,UN,33,shower,PATROL,m,,,,,,0.749166711,0.119999989,0,0,0,,0,49,49,171,1,
,,,,,,,,,,,,,,,,,,5d82d28977546f00166ae702,2020-11-27_10h05.00.631,lexical_decision_task_MP_exp2,2020.2.5,Win32,60,,z,1,0.56668,,,,,,,,0.56668,1,,,,,,292,NW,"ID",33,ablint,ABLINT,z,,,,,,0.749166711,0.119999989,0,0,0,,0,50,50,291,1,
,,,,,,,,,,,,,,,,,,5d82d28977546f00166ae702,2020-11-27_10h05.00.631,lexical_decision_task_MP_exp2,2020.2.5,Win32,60,,m,1,0.54764,,,,,,,,0.54764,1,,,,,,127,WORD,UN,33,senior,CASTLE,m,,,,,,0.749166711,0.119999989,0,0,0,,0,51,51,126,1,
,,,,,,,,,,,,,,,,,,5d82d28977546f00166ae702,2020-11-27_10h05.00.631,lexical_decision_task_MP_exp2,2020.2.5,Win32,60,,m,1,0.495735,,,,,,,,0.495735,1,,,,,,215,WORD,UN,16,behalf,PHOBIA,m,,,,,,0.749166711,0.119999989,0,0,0,,0,52,52,214,1,
,,,,,,,,,,,,,,,,,,5d82d28977546f00166ae702,2020-11-27_10h05.00.631,lexical_decision_task_MP_exp2,2020.2.5,Win32,60,,m,1,0.45435,,,,,,,,0.45435,1,,,,,,182,WORD,UN,16,basket,WINTER,m,,,,,,0.749166711,0.119999989,0,0,0,,0,53,53,181,1,
,,,,,,,,,,,,,,,,,,5d82d28977546f00166ae702,2020-11-27_10h05.00.631,lexical_decision_task_MP_exp2,2020.2.5,Win32,60,,m,1,0.5659,,,,,,,,0.5659,1,,,,,,66,WORD,"ID",16,gospel,GOSPEL,m,,,,,,0.749166711,0.119999989,0,0,0,,0,54,54,65,1,
,,,,,,,,,,,,,,,,,,5d82d28977546f00166ae702,2020-11-27_10h05.00.631,lexical_decision_task_MP_exp2,2020.2.5,Win32,60,,m,1,0.438,,,,,,,,0.438,1,,,,,,33,WORD,"ID",33,butler,BUTLER,m,,,,,,0.749166711,0.119999989,0,0,0,,0,55,55,32,1,
,,,,,,,,,,,,,,,,,,5d82d28977546f00166ae702,2020-11-27_10h05.00.631,lexical_decision_task_MP_exp2,2020.2.5,Win32,60,,m,1,0.48405,,,,,,,,0.48405,1,,,,,,151,WORD,UN,33,rocket,MYSTIC,m,,,,,,0.749166711,0.119999989,0,0,0,,0,56,56,150,1,
,,,,,,,,,,,,,,,,,,5d82d28977546f00166ae702,2020-11-27_10h05.00.631,lexical_decision_task_MP_exp2,2020.2.5,Win32,60,,m,1,0.48249,,,,,,,,0.48249,1,,,,,,37,WORD,"ID",33,insult,INSULT,m,,,,,,0.749166711,0.119999989,0,0,0,,0,57,57,36,1,
,,,,,,,,,,,,,,,,,,5d82d28977546f00166ae702,2020-11-27_10h05.00.631,lexical_decision_task_MP_exp2,2020.2.5,Win32,60,,m,1,0.43016,,,,,,,,0.43016,1,,,,,,47,WORD,"ID",33,income,INCOME,m,,,,,,0.749166711,0.119999989,0,0,0,,0,58,58,46,1,
,,,,,,,,,,,,,,,,,,5d82d28977546f00166ae702,2020-11-27_10h05.00.631,lexical_decision_task_MP_exp2,2020.2.5,Win32,60,,m,1,0.49723,,,,,,,,0.49723,1,,,,,,64,WORD,"ID",16,throne,THRONE,m,,,,,,0.749166711,0.119999989,0,0,0,,0,59,59,63,1,
,,,,,,,,,,,,,,,,,,5d82d28977546f00166ae702,2020-11-27_10h05.00.631,lexical_decision_task_MP_exp2,2020.2.5,Win32,60,,z,1,0.648345,,,,,,,,0.648345,1,,,,,,415,NW,UN,33,pathel,HIGSTA,z,,,,,,0.749166711,0.119999989,0,0,0,,0,60,60,414,1,
,,,,,,,,,,,,,,,,,,5d82d28977546f00166ae702,2020-11-27_10h05.00.631,lexical_decision_task_MP_exp2,2020.2.5,Win32,60,,m,1,0.51287,,,,,,,,0.51287,1,,,,,,233,WORD,UN,16,clumsy,NATURE,m,,,,,,0.749166711,0.119999989,0,0,0,,0,61,61,232,1,
,,,,,,,,,,,,,,,,,,5d82d28977546f00166ae702,2020-11-27_10h05.00.631,lexical_decision_task_MP_exp2,2020.2.5,Win32,60,,z,1,0.632565,,,,,,,,0.632565,1,,,,,,380,NW,UN,33,huniek,CAVORY,z,,,,,,0.749166711,0.119999989,0,0,0,,0,62,62,379,1,
,,,,,,,,,,,,,,,,,,5d82d28977546f00166ae702,2020-11-27_10h05.00.631,lexical_decision_task_MP_exp2,2020.2.5,Win32,60,,m,1,0.496375,,,,,,,,0.496375,1,,,,,,63,WORD,"ID",16,launch,LAUNCH,m,,,,,,0.749166711,0.119999989,0,0,0,,0,63,63,62,1,
,,,,,,,,,,,,,,,,,,5d82d28977546f00166ae702,2020-11-27_10h05.00.631,lexical_decision_task_MP_exp2,2020.2.5,Win32,60,,z,1,0.59868,,,,,,,,0.59868,1,,,,,,242,NW,"ID",33,unwert,UNWERT,z,,,,,,0.749166711,0.119999989,0,0,0,,0,64,64,241,1,
,,,,,,,,,,,,,,,,,,5d82d28977546f00166ae702,2020-11-27_10h05.00.631,lexical_decision_task_MP_exp2,2020.2.5,Win32,60,,m,1,0.606425,,,,,,,,0.606425,1,,,,,,50,WORD,"ID",33,snatch,SNATCH,m,,,,,,0.749166711,0.119999989,0,0,0,,0,65,65,49,1,
,,,,,,,,,,,,,,,,,,5d82d28977546f00166ae702,2020-11-27_10h05.00.631,lexical_decision_task_MP_exp2,2020.2.5,Win32,60,,m,1,0.50682,,,,,,,,0.50682,1,,,,,,128,WORD,UN,33,marvel,SENIOR,m,,,,,,0.749166711,0.119999989,0,0,0,,0,66,66,127,1,
,,,,,,,,,,,,,,,,,,5d82d28977546f00166ae702,2020-11-27_10h05.00.631,lexical_decision_task_MP_exp2,2020.2.5,Win32,60,,z,1,0.65988,,,,,,,,0.65988,1,,,,,,327,NW,"ID",16,plenac,PLENAC,z,,,,,,0.749166711,0.119999989,0,0,0,,0,67,67,326,1,
,,,,,,,,,,,,,,,,,,5d82d28977546f00166ae702,2020-11-27_10h05.00.631,lexical_decision_task_MP_exp2,2020.2.5,Win32,60,,m,1,0.506825,,,,,,,,0.506825,1,,,,,,104,WORD,"ID",16,studio,STUDIO,m,,,,,,0.749166711,0.119999989,0,0,0,,0,68,68,103,1,
,,,,,,,,,,,,,,,,,,5d82d28977546f00166ae702,2020-11-27_10h05.00.631,lexical_decision_task_MP_exp2,2020.2.5,Win32,60,,m,1,0.48967,,,,,,,,0.48967,1,,,,,,2,WORD,"ID",33,bridge,BRIDGE,m,,,,,,0.749166711,0.119999989,0,0,0,,0,69,69,1,1,
,,,,,,,,,,,,,,,,,,5d82d28977546f00166ae702,2020-11-27_10h05.00.631,lexical_decision_task_MP_exp2,2020.2.5,Win32,60,,z,1,0.553195,,,,,,,,0.553195,1,,,,,,360,NW,"ID",16,desory,DESORY,z,,,,,,0.749166711,0.119999989,0,0,0,,0,70,70,359,1,
,,,,,,,,,,,,,,,,,,5d82d28977546f00166ae702,2020-11-27_10h05.00.631,lexical_decision_task_MP_exp2,2020.2.5,Win32,60,,m,1,0.54194,,,,,,,,0.54194,1,,,,,,83,WORD,"ID",16,result,RESULT,m,,,,,,0.749166711,0.119999989,0,0,0,,0,71,71,82,1,
,,,,,,,,,,,,,,,,,,5d82d28977546f00166ae702,2020-11-27_10h05.00.631,lexical_decision_task_MP_exp2,2020.2.5,Win32,60,,z,1,0.55663,,,,,,,,0.55663,1,,,,,,320,NW,"ID",16,jockal,JOCKAL,z,,,,,,0.749166711,0.119999989,0,0,0,,0,72,72,319,1,
,,,,,,,,,,,,,,,,,,5d82d28977546f00166ae702,2020-11-27_10h05.00.631,lexical_decision_task_MP_exp2,2020.2.5,Win32,60,,z,1,0.564935,,,,,,,,0.564935,1,,,,,,315,NW,"ID",16,laston,LASTON,z,,,,,,0.749166711,0.119999989,0,0,0,,0,73,73,314,1,
,,,,,,,,,,,,,,,,,,5d82d28977546f00166ae702,2020-11-27_10h05.00.631,lexical_decision_task_MP_exp2,2020.2.5,Win32,60,,m,1,0.49981,,,,,,,,0.49981,1,,,,,,117,WORD,"ID",16,branch,BRANCH,m,,,,,,0.749166711,0.119999989,0,0,0,,0,74,74,116,1,
,,,,,,,,,,,,,,,,,,5d82d28977546f00166ae702,2020-11-27_10h05.00.631,lexical_decision_task_MP_exp2,2020.2.5,Win32,60,,z,1,0.63077,,,,,,,,0.63077,1,,,,,,319,NW,"ID",16,zomber,ZOMBER,z,,,,,,0.749166711,0.119999989,0,0,0,,0,75,75,318,1,
,,,,,,,,,,,,,,,,,,5d82d28977546f00166ae702,2020-11-27_10h05.00.631,lexical_decision_task_MP_exp2,2020.2.5,Win32,60,,z,1,0.64594,,,,,,,,0.64594,1,,,,,,435,NW,UN,16,frutan,IMPURB,z,,,,,,0.749166711,0.119999989,0,0,0,,0,76,76,434,1,
,,,,,,,,,,,,,,,,,,5d82d28977546f00166ae702,2020-11-27_10h05.00.631,lexical_decision_task_MP_exp2,2020.2.5,Win32,60,,z,1,0.52479,,,,,,,,0.52479,1,,,,,,391,NW,UN,33,rouncy,THELDY,z,,,,,,0.749166711,0.119999989,0,0,0,,0,77,77,390,1,
,,,,,,,,,,,,,,,,,,5d82d28977546f00166ae702,2020-11-27_10h05.00.631,lexical_decision_task_MP_exp2,2020.2.5,Win32,60,,m,1,0.502615,,,,,,,,0.502615,1,,,,,,78,WORD,"ID",16,column,COLUMN,m,,,,,,0.749166711,0.119999989,0,0,0,,0,78,78,77,1,
,,,,,,,,,,,,,,,,,,5d82d28977546f00166ae702,2020-11-27_10h05.00.631,lexical_decision_task_MP_exp2,2020.2.5,Win32,60,,m,1,0.71648,,,,,,,,0.71648,1,,,,,,15,WORD,"ID",33,amount,AMOUNT,m,,,,,,0.749166711,0.119999989,0,0,0,,0,79,79,14,1,
,,,,,,,,,,,,,,,,,,5d82d28977546f00166ae702,2020-11-27_10h05.00.631,lexical_decision_task_MP_exp2,2020.2.5,Win32,60,,z,1,0.6073,,,,,,,,0.6073,1,,,,,,407,NW,UN,33,hurnia,SUIVER,z,,,,,,0.749166711,0.119999989,0,0,0,,0,80,80,406,1,
,,,,,,,,,,,,,,,,,,5d82d28977546f00166ae702,2020-11-27_10h05.00.631,lexical_decision_task_MP_exp2,2020.2.5,Win32,60,,m,1,0.503175,,,,,,,,0.503175,1,,,,,,35,WORD,"ID",33,socket,SOCKET,m,,,,,,0.749166711,0.119999989,0,0,0,,0,81,81,34,1,
,,,,,,,,,,,,,,,,,,5d82d28977546f00166ae702,2020-11-27_10h05.00.631,lexical_decision_task_MP_exp2,2020.2.5,Win32,60,,m,1,0.591605,,,,,,,,0.591605,1,,,,,,220,WORD,UN,16,mascot,VOYAGE,m,,,,,,0.749166711,0.119999989,0,0,0,,0,82,82,219,1,
,,,,,,,,,,,,,,,,,,5d82d28977546f00166ae702,2020-11-27_10h05.00.631,lexical_decision_task_MP_exp2,2020.2.5,Win32,60,,m,1,0.4738,,,,,,,,0.4738,1,,,,,,171,WORD,UN,33,patrol,DEPART,m,,,,,,0.749166711,0.119999989,0,0,0,,0,83,83,170,1,
,,,,,,,,,,,,,,,,,,5d82d28977546f00166ae702,2020-11-27_10h05.00.631,lexical_decision_task_MP_exp2,2020.2.5,Win32,60,,m,1,0.473115,,,,,,,,0.473115,1,,,,,,34,WORD,"ID",33,jungle,JUNGLE,m,,,,,,0.749166711,0.119999989,0,0,0,,0,84,84,33,1,
,,,,,,,,,,,,,,,,,,5d82d28977546f00166ae702,2020-11-27_10h05.00.631,lexical_decision_task_MP_exp2,2020.2.5,Win32,60,,m,1,0.46972,,,,,,,,0.46972,1,,,,,,55,WORD,"ID",33,stroke,STROKE,m,,,,,,0.749166711,0.119999989,0,0,0,,0,85,85,54,1,
,,,,,,,,,,,,,,,,,,5d82d28977546f00166ae702,2020-11-27_10h05.00.631,lexical_decision_task_MP_exp2,2020.2.5,Win32,60,,m,1,0.473285,,,,,,,,0.473285,1,,,,,,231,WORD,UN,16,mother,EXPORT,m,,,,,,0.749166711,0.119999989,0,0,0,,0,86,86,230,1,
,,,,,,,,,,,,,,,,,,5d82d28977546f00166ae702,2020-11-27_10h05.00.631,lexical_decision_task_MP_exp2,2020.2.5,Win32,60,,z,1,0.548395,,,,,,,,0.548395,1,,,,,,321,NW,"ID",16,miator,MIATOR,z,,,,,,0.749166711,0.119999989,0,0,0,,0,87,87,320,1,
,,,,,,,,,,,,,,,,,,5d82d28977546f00166ae702,2020-11-27_10h05.00.631,lexical_decision_task_MP_exp2,2020.2.5,Win32,60,,m,1,0.54291,,,,,,,,0.54291,1,,,,,,223,WORD,UN,16,period,KIDNEY,m,,,,,,0.749166711,0.119999989,0,0,0,,0,88,88,222,1,
,,,,,,,,,,,,,,,,,,5d82d28977546f00166ae702,2020-11-27_10h05.00.631,lexical_decision_task_MP_exp2,2020.2.5,Win32,60,,m,1,0.46807,,,,,,,,0.46807,1,,,,,,195,WORD,UN,16,credit,RESIGN,m,,,,,,0.749166711,0.119999989,0,0,0,,0,89,89,194,1,
,,,,,,,,,,,,,,,,,,5d82d28977546f00166ae702,2020-11-27_10h05.00.631,lexical_decision_task_MP_exp2,2020.2.5,Win32,60,,z,1,0.53701,,,,,,,,0.53701,1,,,,,,456,NW,UN,16,wanigh,BROGET,z,,,,,,0.749166711,0.119999989,0,0,0,,0,90,90,455,1,
,,,,,,,,,,,,,,,,,,5d82d28977546f00166ae702,2020-11-27_10h05.00.631,lexical_decision_task_MP_exp2,2020.2.5,Win32,60,,z,1,0.603705,,,,,,,,0.603705,1,,,,,,465,NW,UN,16,hocite,WHIVEX,z,,,,,,0.749166711,0.119999989,0,0,0,,0,91,91,464,1,
,,,,,,,,,,,,,,,,,,5d82d28977546f00166ae702,2020-11-27_10h05.00.631,lexical_decision_task_MP_exp2,2020.2.5,Win32,60,,z,1,0.5193,,,,,,,,0.5193,1,,,,,,330,NW,"ID",16,kensom,KENSOM,z,,,,,,0.749166711,0.119999989,0,0,0,,0,92,92,329,1,
,,,,,,,,,,,,,,,,,,5d82d28977546f00166ae702,2020-11-27_10h05.00.631,lexical_decision_task_MP_exp2,2020.2.5,Win32,60,,z,1,0.540435,,,,,,,,0.540435,1,,,,,,285,NW,"ID",33,prudge,PRUDGE,z,,,,,,0.749166711,0.119999989,0,0,0,,0,93,93,284,1,
,,,,,,,,,,,,,,,,,,5d82d28977546f00166ae702,2020-11-27_10h05.00.631,lexical_decision_task_MP_exp2,2020.2.5,Win32,60,,z,1,0.54132,,,,,,,,0.54132,1,,,,,,294,NW,"ID",33,inhort,INHORT,z,,,,,,0.749166711,0.119999989,0,0,0,,0,94,94,293,1,
,,,,,,,,,,,,,,,,,,5d82d28977546f00166ae702,2020-11-27_10h05.00.631,lexical_decision_task_MP_exp2,2020.2.5,Win32,60,,m,1,0.536205,,,,,,,,0.536205,1,,,,,,20,WORD,"ID",33,breast,BREAST,m,,,,,,0.749166711,0.119999989,0,0,0,,0,95,95,19,1,
,,,,,,,,,,,,,,,,,,5d82d28977546f00166ae702,2020-11-27_10h05.00.631,lexical_decision_task_MP_exp2,2020.2.5,Win32,60,,z,1,0.539585,,,,,,,,0.539585,1,,,,,,368,NW,UN,33,wronch,HORNAL,z,,,,,,0.749166711,0.119999989,0,0,0,,0,96,96,367,1,
,,,,,,,,,,,,,,,,,,5d82d28977546f00166ae702,2020-11-27_10h05.00.631,lexical_decision_task_MP_exp2,2020.2.5,Win32,60,,m,1,0.52057,,,,,,,,0.52057,1,,,,,,221,WORD,UN,16,hinder,MASCOT,m,,,,,,0.749166711,0.119999989,0,0,0,,0,97,97,220,1,
,,,,,,,,,,,,,,,,,,5d82d28977546f00166ae702,2020-11-27_10h05.00.631,lexical_decision_task_MP_exp2,2020.2.5,Win32,60,,z,1,0.478565,,,,,,,,0.478565,1,,,,,,339,NW,"ID",16,fachow,FACHOW,z,,,,,,0.749166711,0.119999989,0,0,0,,0,98,98,338,1,
,,,,,,,,,,,,,,,,,,5d82d28977546f00166ae702,2020-11-27_10h05.00.631,lexical_decision_task_MP_exp2,2020.2.5,Win32,60,,z,1,0.60371,,,,,,,,0.60371,1,,,,,,371,NW,UN,33,ramily,GEILOY,z,,,,,,0.749166711,0.119999989,0,0,0,,0,99,99,370,1,
,,,,,,,,,,,,,,,,,,5d82d28977546f00166ae702,2020-11-27_10h05.00.631,lexical_decision_task_MP_exp2,2020.2.5,Win32,60,,m,1,0.50317,,,,,,,,0.50317,1,,,,,,165,WORD,UN,33,starch,INVEST,m,,,,,,0.749166711,0.119999989,0,0,0,,0,100,100,164,1,
,,,,,,,,,,,,,,,,,,5d82d28977546f00166ae702,2020-11-27_10h05.00.631,lexical_decision_task_MP_exp2,2020.2.5,Win32,60,,z,1,0.51175,,,,,,,,0.51175,1,,,,,,306,NW,"ID",16,sounge,SOUNGE,z,,,,,,0.749166711,0.119999989,0,0,0,,0,101,101,305,1,
,,,,,,,,,,,,,,,,,,5d82d28977546f00166ae702,2020-11-27_10h05.00.631,lexical_decision_task_MP_exp2,2020.2.5,Win32,60,,z,1,0.59602,,,,,,,,0.59602,1,,,,,,401,NW,UN,33,elopia,MUSTIL,z,,,,,,0.749166711,0.119999989,0,0,0,,0,102,102,400,1,
,,,,,,,,,,,,,,,,,,5d82d28977546f00166ae702,2020-11-27_10h05.00.631,lexical_decision_task_MP_exp2,2020.2.5,Win32,60,,z,1,0.47028,,,,,,,,0.47028,1,,,,,,480,NW,UN,16,knisma,ROBULY,z,,,,,,0.749166711,0.119999989,0,0,0,,0,103,103,479,1,
,,,,,,,,,,,,,,,,,,5d82d28977546f00166ae702,2020-11-27_10h05.00.631,lexical_decision_task_MP_exp2,2020.2.5,Win32,60,,z,1,0.487685,,,,,,,,0.487685,1,,,,,,464,NW,UN,16,whivex,CHAITE,z,,,,,,0.749166711,0.119999989,0,0,0,,0,104,104,463,1,
,,,,,,,,,,,,,,,,,,5d82d28977546f00166ae702,2020-11-27_10h05.00.631,lexical_decision_task_MP_exp2,2020.2.5,Win32,60,,z,1,0.48224,,,,,,,,0.48224,1,,,,,,440,NW,UN,16,cainky,SARIDE,z,,,,,,0.749166711,0.119999989,0,0,0,,0,105,105,439,1,
,,,,,,,,,,,,,,,,,,5d82d28977546f00166ae702,2020-11-27_10h05.00.631,lexical_decision_task_MP_exp2,2020.2.5,Win32,60,,m,1,0.5211,,,,,,,,0.5211,1,,,,,,161,WORD,UN,33,candle,PASTOR,m,,,,,,0.749166711,0.119999989,0,0,0,,0,106,106,160,1,
,,,,,,,,,,,,,,,,,,5d82d28977546f00166ae702,2020-11-27_10h05.00.631,lexical_decision_task_MP_exp2,2020.2.5,Win32,60,,z,1,0.62244,,,,,,,,0.62244,1,,,,,,453,NW,UN,16,scouge,BOLVIS,z,,,,,,0.749166711,0.119999989,0,0,0,,0,107,107,452,1,
,,,,,,,,,,,,,,,,,,5d82d28977546f00166ae702,2020-11-27_10h05.00.631,lexical_decision_task_MP_exp2,2020.2.5,Win32,60,,m,0,0.55694,,,,,,,,0.55694,0,,,,,,303,NW,"ID",16,fiream,FIREAM,z,,,,,,0.749166711,0.119999989,0,0,0,,0,108,108,302,1,
,,,,,,,,,,,,,,,,,,5d82d28977546f00166ae702,2020-11-27_10h05.00.631,lexical_decision_task_MP_exp2,2020.2.5,Win32,60,,z,1,0.598435,,,,,,,,0.598435,1,,,,,,262,NW,"ID",33,quilew,QUILEW,z,,,,,,0.749166711,0.119999989,0,0,0,,0,109,109,261,1,
,,,,,,,,,,,,,,,,,,5d82d28977546f00166ae702,2020-11-27_10h05.00.631,lexical_decision_task_MP_exp2,2020.2.5,Win32,60,,z,1,0.586255,,,,,,,,0.586255,1,,,,,,444,NW,UN,16,minkel,JAUNCE,z,,,,,,0.749166711,0.119999989,0,0,0,,0,110,110,443,1,
,,,,,,,,,,,,,,,,,,5d82d28977546f00166ae702,2020-11-27_10h05.00.631,lexical_decision_task_MP_exp2,2020.2.5,Win32,60,,m,1,0.537485,,,,,,,,0.537485,1,,,,,,193,WORD,UN,16,plague,OBJECT,m,,,,,,0.749166711,0.119999989,0,0,0,,0,111,111,192,1,
,,,,,,,,,,,,,,,,,,5d82d28977546f00166ae702,2020-11-27_10h05.00.631,lexical_decision_task_MP_exp2,2020.2.5,Win32,60,,z,1,0.503115,,,,,,,,0.503115,1,,,,,,355,NW,"ID",16,zingly,ZINGLY,z,,,,,,0.749166711,0.119999989,0,0,0,,0,112,112,354,1,
,,,,,,,,,,,,,,,,,,5d82d28977546f00166ae702,2020-11-27_10h05.00.631,lexical_decision_task_MP_exp2,2020.2.5,Win32,60,,m,1,0.532545,,,,,,,,0.532545,1,,,,,,71,WORD,"ID",16,garden,GARDEN,m,,,,,,0.749166711,0.119999989,0,0,0,,0,113,113,70,1,
,,,,,,,,,,,,,,,,,,5d82d28977546f00166ae702,2020-11-27_10h05.00.631,lexical_decision_task_MP_exp2,2020.2.5,Win32,60,,z,1,0.50602,,,,,,,,0.50602,1,,,,,,304,NW,"ID",16,cludie,CLUDIE,z,,,,,,0.749166711,0.119999989,0,0,0,,0,114,114,303,1,
,,,,,,,,,,,,,,,,,,5d82d28977546f00166ae702,2020-11-27_10h05.00.631,lexical_decision_task_MP_exp2,2020.2.5,Win32,60,,z,1,0.57262,,,,,,,,0.57262,1,,,,,,322,NW,"ID",16,slanch,SLANCH,z,,,,,,0.749166711,0.119999989,0,0,0,,0,115,115,321,1,
,,,,,,,,,,,,,,,,,,5d82d28977546f00166ae702,2020-11-27_10h05.00.631,lexical_decision_task_MP_exp2,2020.2.5,Win32,60,,m,1,0.52005,,,,,,,,0.52005,1,,,,,,21,WORD,"ID",33,simple,SIMPLE,m,,,,,,0.749166711,0.119999989,0,0,0,,0,116,116,20,1,
,,,,,,,,,,,,,,,,,,5d82d28977546f00166ae702,2020-11-27_10h05.00.631,lexical_decision_task_MP_exp2,2020.2.5,Win32,60,,z,1,0.464045,,,,,,,,0.464045,1,,,,,,264,NW,"ID",33,vackel,VACKEL,z,,,,,,0.749166711,0.119999989,0,0,0,,0,117,117,263,1,
,,,,,,,,,,,,,,,,,,5d82d28977546f00166ae702,2020-11-27_10h05.00.631,lexical_decision_task_MP_exp2,2020.2.5,Win32,60,,z,1,0.76613,,,,,,,,0.76613,1,,,,,,338,NW,"ID",16,wreash,WREASH,z,,,,,,0.749166711,0.119999989,0,0,0,,0,118,118,337,1,
,,,,,,,,,,,,,,,,,,5d82d28977546f00166ae702,2020-11-27_10h05.00.631,lexical_decision_task_MP_exp2,2020.2.5,Win32,60,,m,1,0.72007,,,,,,,,0.72007,1,,,,,,90,WORD,"ID",16,relish,RELISH,m,,,,,,0.749166711,0.119999989,0,0,0,,0,119,119,89,1,
,,,,,,,,,,,,,,,,,,5d82d28977546f00166ae702,2020-11-27_10h05.00.631,lexical_decision_task_MP_exp2,2020.2.5,Win32,60,,z,1,0.549265,,,,,,,,0.549265,1,,,,,,469,NW,UN,16,crudio,PADIFS,z,,,,,,0.749166711,0.119999989,0,0,0,space,0,120,120,468,1,105.19861
,,,,,,,,,,,,,,,,,,5d82d28977546f00166ae702,2020-11-27_10h05.00.631,lexical_decision_task_MP_exp2,2020.2.5,Win32,60,,m,1,0.45133,,,,,,,,0.45133,1,,,,,,116,WORD,"ID",16,tumble,TUMBLE,m,,,,,,0.749166711,0.119999989,0,0,0,,0,121,121,115,1,
,,,,,,,,,,,,,,,,,,5d82d28977546f00166ae702,2020-11-27_10h05.00.631,lexical_decision_task_MP_exp2,2020.2.5,Win32,60,,m,1,0.419375,,,,,,,,0.419375,1,,,,,,156,WORD,UN,33,pastor,CRADLE,m,,,,,,0.749166711,0.119999989,0,0,0,,0,122,122,155,1,
,,,,,,,,,,,,,,,,,,5d82d28977546f00166ae702,2020-11-27_10h05.00.631,lexical_decision_task_MP_exp2,2020.2.5,Win32,60,,m,1,0.40237,,,,,,,,0.40237,1,,,,,,154,WORD,UN,33,lizard,AUTHOR,m,,,,,,0.749166711,0.119999989,0,0,0,,0,123,123,153,1,
,,,,,,,,,,,,,,,,,,5d82d28977546f00166ae702,2020-11-27_10h05.00.631,lexical_decision_task_MP_exp2,2020.2.5,Win32,60,,z,1,0.48442,,,,,,,,0.48442,1,,,,,,370,NW,UN,33,geiloy,SLEACT,z,,,,,,0.749166711,0.119999989,0,0,0,,0,124,124,369,1,
,,,,,,,,,,,,,,,,,,5d82d28977546f00166ae702,2020-11-27_10h05.00.631,lexical_decision_task_MP_exp2,2020.2.5,Win32,60,,z,1,0.383115,,,,,,,,0.383115,1,,,,,,281,NW,"ID",33,melaty,MELATY,z,,,,,,0.749166711,0.119999989,0,0,0,,0,125,125,280,1,
,,,,,,,,,,,,,,,,,,5d82d28977546f00166ae702,2020-11-27_10h05.00.631,lexical_decision_task_MP_exp2,2020.2.5,Win32,60,,z,1,0.3665,,,,,,,,0.3665,1,,,,,,373,NW,UN,33,injore,BIGENT,z,,,,,,0.749166711,0.119999989,0,0,0,,0,126,126,372,1,
,,,,,,,,,,,,,,,,,,5d82d28977546f00166ae702,2020-11-27_10h05.00.631,lexical_decision_task_MP_exp2,2020.2.5,Win32,60,,z,1,0.40853,,,,,,,,0.40853,1,,,,,,333,NW,"ID",16,catrie,CATRIE,z,,,,,,0.749166711,0.119999989,0,0,0,,0,127,127,332,1,
,,,,,,,,,,,,,,,,,,5d82d28977546f00166ae702,2020-11-27_10h05.00.631,lexical_decision_task_MP_exp2,2020.2.5,Win32,60,,z,1,0.41975,,,,,,,,0.41975,1,,,,,,366,NW,UN,33,slique,TOSHEL,z,,,,,,0.749166711,0.119999989,0,0,0,,0,128,128,365,1,
,,,,,,,,,,,,,,,,,,5d82d28977546f00166ae702,2020-11-27_10h05.00.631,lexical_decision_task_MP_exp2,2020.2.5,Win32,60,,z,1,0.39197,,,,,,,,0.39197,1,,,,,,356,NW,"ID",16,othnis,OTHNIS,z,,,,,,0.749166711,0.119999989,0,0,0,,0,129,129,355,1,
,,,,,,,,,,,,,,,,,,5d82d28977546f00166ae702,2020-11-27_10h05.00.631,lexical_decision_task_MP_exp2,2020.2.5,Win32,60,,z,1,0.60333,,,,,,,,0.60333,1,,,,,,429,NW,UN,16,caroey,FUNTLE,z,,,,,,0.749166711,0.119999989,0,0,0,,0,130,130,428,1,
,,,,,,,,,,,,,,,,,,5d82d28977546f00166ae702,2020-11-27_10h05.00.631,lexical_decision_task_MP_exp2,2020.2.5,Win32,60,,z,1,0.490055,,,,,,,,0.490055,1,,,,,,389,NW,UN,33,hatrus,WITMER,z,,,,,,0.749166711,0.119999989,0,0,0,,0,131,131,388,1,
,,,,,,,,,,,,,,,,,,5d82d28977546f00166ae702,2020-11-27_10h05.00.631,lexical_decision_task_MP_exp2,2020.2.5,Win32,60,,m,1,0.590225,,,,,,,,0.590225,1,,,,,,10,WORD,"ID",33,ethnic,ETHNIC,m,,,,,,0.749166711,0.119999989,0,0,0,,0,132,132,9,1,
,,,,,,,,,,,,,,,,,,5d82d28977546f00166ae702,2020-11-27_10h05.00.631,lexical_decision_task_MP_exp2,2020.2.5,Win32,60,,m,1,0.452755,,,,,,,,0.452755,1,,,,,,136,WORD,UN,33,finger,BLEACH,m,,,,,,0.749166711,0.119999989,0,0,0,,0,133,133,135,1,
,,,,,,,,,,,,,,,,,,5d82d28977546f00166ae702,2020-11-27_10h05.00.631,lexical_decision_task_MP_exp2,2020.2.5,Win32,60,,z,1,0.52304,,,,,,,,0.52304,1,,,,,,250,NW,"ID",33,milted,MILTED,z,,,,,,0.749166711,0.119999989,0,0,0,,0,134,134,249,1,
,,,,,,,,,,,,,,,,,,5d82d28977546f00166ae702,2020-11-27_10h05.00.631,lexical_decision_task_MP_exp2,2020.2.5,Win32,60,,z,0,0.61331,,,,,,,,0.61331,0,,,,,,226,WORD,UN,16,flower,CASINO,m,,,,,,0.749166711,0.119999989,0,0,0,,0,135,135,225,1,
,,,,,,,,,,,,,,,,,,5d82d28977546f00166ae702,2020-11-27_10h05.00.631,lexical_decision_task_MP_exp2,2020.2.5,Win32,60,,z,1,0.50378,,,,,,,,0.50378,1,,,,,,362,NW,UN,33,breali,TIREAU,z,,,,,,0.749166711,0.119999989,0,0,0,,0,136,136,361,1,
,,,,,,,,,,,,,,,,,,5d82d28977546f00166ae702,2020-11-27_10h05.00.631,lexical_decision_task_MP_exp2,2020.2.5,Win32,60,,m,1,0.457285,,,,,,,,0.457285,1,,,,,,119,WORD,"ID",16,spider,SPIDER,m,,,,,,0.749166711,0.119999989,0,0,0,,0,137,137,118,1,
,,,,,,,,,,,,,,,,,,5d82d28977546f00166ae702,2020-11-27_10h05.00.631,lexical_decision_task_MP_exp2,2020.2.5,Win32,60,,z,1,0.57697,,,,,,,,0.57697,1,,,,,,426,NW,UN,16,frudge,URIVEL,z,,,,,,0.749166711,0.119999989,0,0,0,,0,138,138,425,1,
,,,,,,,,,,,,,,,,,,5d82d28977546f00166ae702,2020-11-27_10h05.00.631,lexical_decision_task_MP_exp2,2020.2.5,Win32,60,,z,1,0.45765,,,,,,,,0.45765,1,,,,,,361,NW,UN,33,tireau,PAUCHE,z,,,,,,0.749166711,0.119999989,0,0,0,,0,139,139,360,1,
,,,,,,,,,,,,,,,,,,5d82d28977546f00166ae702,2020-11-27_10h05.00.631,lexical_decision_task_MP_exp2,2020.2.5,Win32,60,,m,1,0.536985,,,,,,,,0.536985,1,,,,,,113,WORD,"ID",16,chorus,CHORUS,m,,,,,,0.749166711,0.119999989,0,0,0,,0,140,140,112,1,
,,,,,,,,,,,,,,,,,,5d82d28977546f00166ae702,2020-11-27_10h05.00.631,lexical_decision_task_MP_exp2,2020.2.5,Win32,60,,z,1,0.519715,,,,,,,,0.519715,1,,,,,,396,NW,UN,33,camble,FLENGY,z,,,,,,0.749166711,0.119999989,0,0,0,,0,141,141,395,1,
,,,,,,,,,,,,,,,,,,5d82d28977546f00166ae702,2020-11-27_10h05.00.631,lexical_decision_task_MP_exp2,2020.2.5,Win32,60,,z,1,0.714365,,,,,,,,0.714365,1,,,,,,475,NW,UN,16,robuly,PEBRIC,z,,,,,,0.749166711,0.119999989,0,0,0,,0,142,142,474,1,
,,,,,,,,,,,,,,,,,,5d82d28977546f00166ae702,2020-11-27_10h05.00.631,lexical_decision_task_MP_exp2,2020.2.5,Win32,60,,m,1,0.492695,,,,,,,,0.492695,1,,,,,,168,WORD,UN,33,genius,ANSWER,m,,,,,,0.749166711,0.119999989,0,0,0,,0,143,143,167,1,
,,,,,,,,,,,,,,,,,,5d82d28977546f00166ae702,2020-11-27_10h05.00.631,lexical_decision_task_MP_exp2,2020.2.5,Win32,60,,z,1,0.49552,,,,,,,,0.49552,1,,,,,,277,NW,"ID",33,petain,PETAIN,z,,,,,,0.749166711,0.119999989,0,0,0,,0,144,144,276,1,
,,,,,,,,,,,,,,,,,,5d82d28977546f00166ae702,2020-11-27_10h05.00.631,lexical_decision_task_MP_exp2,2020.2.5,Win32,60,,m,1,0.53212,,,,,,,,0.53212,1,,,,,,147,WORD,UN,33,custom,GARLIC,m,,,,,,0.749166711,0.119999989,0,0,0,,0,145,145,146,1,
,,,,,,,,,,,,,,,,,,5d82d28977546f00166ae702,2020-11-27_10h05.00.631,lexical_decision_task_MP_exp2,2020.2.5,Win32,60,,z,1,0.438665,,,,,,,,0.438665,1,,,,,,443,NW,UN,16,jaunce,DORSEX,z,,,,,,0.749166711,0.119999989,0,0,0,,0,146,146,442,1,
,,,,,,,,,,,,,,,,,,5d82d28977546f00166ae702,2020-11-27_10h05.00.631,lexical_decision_task_MP_exp2,2020.2.5,Win32,60,,z,1,0.46607,,,,,,,,0.46607,1,,,,,,288,NW,"ID",33,yaceup,YACEUP,z,,,,,,0.749166711,0.119999989,0,0,0,,0,147,147,287,1,
,,,,,,,,,,,,,,,,,,5d82d28977546f00166ae702,2020-11-27_10h05.00.631,lexical_decision_task_MP_exp2,2020.2.5,Win32,60,,z,1,0.37854,,,,,,,,0.37854,1,,,,,,329,NW,"ID",16,yarike,YARIKE,z,,,,,,0.749166711,0.119999989,0,0,0,,0,148,148,328,1,
,,,,,,,,,,,,,,,,,,5d82d28977546f00166ae702,2020-11-27_10h05.00.631,lexical_decision_task_MP_exp2,2020.2.5,Win32,60,,m,1,0.630185,,,,,,,,0.630185,1,,,,,,106,WORD,"ID",16,ransom,RANSOM,m,,,,,,0.749166711,0.119999989,0,0,0,,0,149,149,105,1,
,,,,,,,,,,,,,,,,,,5d82d28977546f00166ae702,2020-11-27_10h05.00.631,lexical_decision_task_MP_exp2,2020.2.5,Win32,60,,m,1,0.465085,,,,,,,,0.465085,1,,,,,,157,WORD,UN,33,island,DRAGON,m,,,,,,0.749166711,0.119999989,0,0,0,,0,150,150,156,1,
,,,,,,,,,,,,,,,,,,5d82d28977546f00166ae702,2020-11-27_10h05.00.631,lexical_decision_task_MP_exp2,2020.2.5,Win32,60,,z,1,0.713085,,,,,,,,0.713085,1,,,,,,284,NW,"ID",33,shaple,SHAPLE,z,,,,,,0.749166711,0.119999989,0,0,0,,0,151,151,283,1,
,,,,,,,,,,,,,,,,,,5d82d28977546f00166ae702,2020-11-27_10h05.00.631,lexical_decision_task_MP_exp2,2020.2.5,Win32,60,,z,1,0.508375,,,,,,,,0.508375,1,,,,,,420,NW,UN,33,pauche,GUSHOP,z,,,,,,0.749166711,0.119999989,0,0,0,,0,152,152,419,1,
,,,,,,,,,,,,,,,,,,5d82d28977546f00166ae702,2020-11-27_10h05.00.631,lexical_decision_task_MP_exp2,2020.2.5,Win32,60,,m,1,0.553665,,,,,,,,0.553665,1,,,,,,217,WORD,UN,16,shrink,LIQUOR,m,,,,,,0.749166711,0.119999989,0,0,0,,0,153,153,216,1,
,,,,,,,,,,,,,,,,,,5d82d28977546f00166ae702,2020-11-27_10h05.00.631,lexical_decision_task_MP_exp2,2020.2.5,Win32,60,,z,1,0.553365,,,,,,,,0.553365,1,,,,,,347,NW,"ID",16,kerift,KERIFT,z,,,,,,0.749166711,0.119999989,0,0,0,,0,154,154,346,1,
,,,,,,,,,,,,,,,,,,5d82d28977546f00166ae702,2020-11-27_10h05.00.631,lexical_decision_task_MP_exp2,2020.2.5,Win32,60,,z,1,0.41964,,,,,,,,0.41964,1,,,,,,406,NW,UN,33,suiver,NOUPLY,z,,,,,,0.749166711,0.119999989,0,0,0,,0,155,155,405,1,
,,,,,,,,,,,,,,,,,,5d82d28977546f00166ae702,2020-11-27_10h05.00.631,lexical_decision_task_MP_exp2,2020.2.5,Win32,60,,m,1,0.55583,,,,,,,,0.55583,1,,,,,,189,WORD,UN,16,backup,CENSOR,m,,,,,,0.749166711,0.119999989,0,0,0,,0,156,156,188,1,
,,,,,,,,,,,,,,,,,,5d82d28977546f00166ae702,2020-11-27_10h05.00.631,lexical_decision_task_MP_exp2,2020.2.5,Win32,60,,z,1,0.442875,,,,,,,,0.442875,1,,,,,,419,NW,UN,33,gushop,SLOUNT,z,,,,,,0.749166711,0.119999989,0,0,0,,0,157,157,418,1,
,,,,,,,,,,,,,,,,,,5d82d28977546f00166ae702,2020-11-27_10h05.00.631,lexical_decision_task_MP_exp2,2020.2.5,Win32,60,,m,1,0.528965,,,,,,,,0.528965,1,,,,,,39,WORD,"ID",33,insect,INSECT,m,,,,,,0.749166711,0.119999989,0,0,0,,0,158,158,38,1,
,,,,,,,,,,,,,,,,,,5d82d28977546f00166ae702,2020-11-27_10h05.00.631,lexical_decision_task_MP_exp2,2020.2.5,Win32,60,,m,1,0.49228,,,,,,,,0.49228,1,,,,,,201,WORD,UN,16,factor,ADMIRE,m,,,,,,0.749166711,0.119999989,0,0,0,,0,159,159,200,1,
,,,,,,,,,,,,,,,,,,5d82d28977546f00166ae702,2020-11-27_10h05.00.631,lexical_decision_task_MP_exp2,2020.2.5,Win32,60,,z,1,0.495815,,,,,,,,0.495815,1,,,,,,395,NW,UN,33,flengy,COLURY,z,,,,,,0.749166711,0.119999989,0,0,0,,0,160,160,394,1,
,,,,,,,,,,,,,,,,,,5d82d28977546f00166ae702,2020-11-27_10h05.00.631,lexical_decision_task_MP_exp2,2020.2.5,Win32,60,,z,1,0.50414,,,,,,,,0.50414,1,,,,,,459,NW,UN,16,mingar,BAFENT,z,,,,,,0.749166711,0.119999989,0,0,0,,0,161,161,458,1,
,,,,,,,,,,,,,,,,,,5d82d28977546f00166ae702,2020-11-27_10h05.00.631,lexical_decision_task_MP_exp2,2020.2.5,Win32,60,,z,1,0.50415,,,,,,,,0.50415,1,,,,,,282,NW,"ID",33,porlex,PORLEX,z,,,,,,0.749166711,0.119999989,0,0,0,,0,162,162,281,1,
,,,,,,,,,,,,,,,,,,5d82d28977546f00166ae702,2020-11-27_10h05.00.631,lexical_decision_task_MP_exp2,2020.2.5,Win32,60,,m,1,0.454725,,,,,,,,0.454725,1,,,,,,132,WORD,UN,33,bleach,STRONG,m,,,,,,0.749166711,0.119999989,0,0,0,,0,163,163,131,1,
,,,,,,,,,,,,,,,,,,5d82d28977546f00166ae702,2020-11-27_10h05.00.631,lexical_decision_task_MP_exp2,2020.2.5,Win32,60,,z,1,0.561305,,,,,,,,0.561305,1,,,,,,261,NW,"ID",33,stunch,STUNCH,z,,,,,,0.749166711,0.119999989,0,0,0,,0,164,164,260,1,
,,,,,,,,,,,,,,,,,,5d82d28977546f00166ae702,2020-11-27_10h05.00.631,lexical_decision_task_MP_exp2,2020.2.5,Win32,60,,z,1,0.49029,,,,,,,,0.49029,1,,,,,,283,NW,"ID",33,veralf,VERALF,z,,,,,,0.749166711,0.119999989,0,0,0,,0,165,165,282,1,
,,,,,,,,,,,,,,,,,,5d82d28977546f00166ae702,2020-11-27_10h05.00.631,lexical_decision_task_MP_exp2,2020.2.5,Win32,60,,m,1,0.558985,,,,,,,,0.558985,1,,,,,,166,WORD,UN,33,design,STARCH,m,,,,,,0.749166711,0.119999989,0,0,0,,0,166,166,165,1,
,,,,,,,,,,,,,,,,,,5d82d28977546f00166ae702,2020-11-27_10h05.00.631,lexical_decision_task_MP_exp2,2020.2.5,Win32,60,,z,1,0.56039,,,,,,,,0.56039,1,,,,,,451,NW,UN,16,surden,CAINKY,z,,,,,,0.749166711,0.119999989,0,0,0,,0,167,167,450,1,
,,,,,,,,,,,,,,,,,,5d82d28977546f00166ae702,2020-11-27_10h05.00.631,lexical_decision_task_MP_exp2,2020.2.5,Win32,60,,m,0,0.519975,,,,,,,,0.519975,0,,,,,,291,NW,"ID",33,pretch,PRETCH,z,,,,,,0.749166711,0.119999989,0,0,0,,0,168,168,290,1,
,,,,,,,,,,,,,,,,,,5d82d28977546f00166ae702,2020-11-27_10h05.00.631,lexical_decision_task_MP_exp2,2020.2.5,Win32,60,,z,1,0.43711,,,,,,,,0.43711,1,,,,,,460,NW,UN,16,justre,MINGAR,z,,,,,,0.749166711,0.119999989,0,0,0,,0,169,169,459,1,
,,,,,,,,,,,,,,,,,,5d82d28977546f00166ae702,2020-11-27_10h05.00.631,lexical_decision_task_MP_exp2,2020.2.5,Win32,60,,z,0,0.40246,,,,,,,,0.40246,0,,,,,,45,WORD,"ID",33,clergy,CLERGY,m,,,,,,0.749166711,0.119999989,0,0,0,,0,170,170,44,1,
,,,,,,,,,,,,,,,,,,5d82d28977546f00166ae702,2020-11-27_10h05.00.631,lexical_decision_task_MP_exp2,2020.2.5,Win32,60,,z,1,0.77433,,,,,,,,0.77433,1,,,,,,364,NW,UN,33,guairt,IMPOTE,z,,,,,,0.749166711,0.119999989,0,0,0,,0,171,171,363,1,
,,,,,,,,,,,,,,,,,,5d82d28977546f00166ae702,2020-11-27_10h05.00.631,lexical_decision_task_MP_exp2,2020.2.5,Win32,60,,z,1,0.453085,,,,,,,,0.453085,1,,,,,,382,NW,UN,33,aungre,SARLEY,z,,,,,,0.749166711,0.119999989,0,0,0,,0,172,172,381,1,
,,,,,,,,,,,,,,,,,,5d82d28977546f00166ae702,2020-11-27_10h05.00.631,lexical_decision_task_MP_exp2,2020.2.5,Win32,60,,m,1,0.573175,,,,,,,,0.573175,1,,,,,,209,WORD,UN,16,monkey,SEARCH,m,,,,,,0.749166711,0.119999989,0,0,0,,0,173,173,208,1,
,,,,,,,,,,,,,,,,,,5d82d28977546f00166ae702,2020-11-27_10h05.00.631,lexical_decision_task_MP_exp2,2020.2.5,Win32,60,,m,1,0.65369,,,,,,,,0.65369,1,,,,,,99,WORD,"ID",16,fluent,FLUENT,m,,,,,,0.749166711,0.119999989,0,0,0,,0,174,174,98,1,
,,,,,,,,,,,,,,,,,,5d82d28977546f00166ae702,2020-11-27_10h05.00.631,lexical_decision_task_MP_exp2,2020.2.5,Win32,60,,z,1,0.474175,,,,,,,,0.474175,1,,,,,,352,NW,"ID",16,tringe,TRINGE,z,,,,,,0.749166711,0.119999989,0,0,0,,0,175,175,351,1,
,,,,,,,,,,,,,,,,,,5d82d28977546f00166ae702,2020-11-27_10h05.00.631,lexical_decision_task_MP_exp2,2020.2.5,Win32,60,,m,0,0.53974,,,,,,,,0.53974,0,,,,,,289,NW,"ID",33,starby,STARBY,z,,,,,,0.749166711,0.119999989,0,0,0,,0,176,176,288,1,
,,,,,,,,,,,,,,,,,,5d82d28977546f00166ae702,2020-11-27_10h05.00.631,lexical_decision_task_MP_exp2,2020.2.5,Win32,60,,m,1,0.588195,,,,,,,,0.588195,1,,,,,,121,WORD,UN,33,linger,THRIVE,m,,,,,,0.749166711,0.119999989,0,0,0,,0,177,177,120,1,
,,,,,,,,,,,,,,,,,,5d82d28977546f00166ae702,2020-11-27_10h05.00.631,lexical_decision_task_MP_exp2,2020.2.5,Win32,60,,z,1,0.52887,,,,,,,,0.52887,1,,,,,,427,NW,UN,16,tandly,SCHIND,z,,,,,,0.749166711,0.119999989,0,0,0,,0,178,178,426,1,
,,,,,,,,,,,,,,,,,,5d82d28977546f00166ae702,2020-11-27_10h05.00.631,lexical_decision_task_MP_exp2,2020.2.5,Win32,60,,m,1,0.656985,,,,,,,,0.656985,1,,,,,,234,WORD,UN,16,lumber,CLUMSY,m,,,,,,0.749166711,0.119999989,0,0,0,,0,179,179,233,1,
,,,,,,,,,,,,,,,,,,5d82d28977546f00166ae702,2020-11-27_10h05.00.631,lexical_decision_task_MP_exp2,2020.2.5,Win32,60,,m,1,0.53829,,,,,,,,0.53829,1,,,,,,181,WORD,UN,16,winter,GLANCE,m,,,,,,0.749166711,0.119999989,0,0,0,,0,180,180,180,1,
,,,,,,,,,,,,,,,,,,5d82d28977546f00166ae702,2020-11-27_10h05.00.631,lexical_decision_task_MP_exp2,2020.2.5,Win32,60,,z,1,0.492015,,,,,,,,0.492015,1,,,,,,467,NW,UN,16,wictor,GORBIE,z,,,,,,0.749166711,0.119999989,0,0,0,,0,181,181,466,1,
,,,,,,,,,,,,,,,,,,5d82d28977546f00166ae702,2020-11-27_10h05.00.631,lexical_decision_task_MP_exp2,2020.2.5,Win32,60,,m,1,0.50534,,,,,,,,0.50534,1,,,,,,88,WORD,"ID",16,hunger,HUNGER,m,,,,,,0.749166711,0.119999989,0,0,0,,0,182,182,87,1,
,,,,,,,,,,,,,,,,,,5d82d28977546f00166ae702,2020-11-27_10h05.00.631,lexical_decision_task_MP_exp2,2020.2.5,Win32,60,,m,1,0.514655,,,,,,,,0.514655,1,,,,,,27,WORD,"ID",33,scream,SCREAM,m,,,,,,0.749166711,0.119999989,0,0,0,,0,183,183,26,1,
,,,,,,,,,,,,,,,,,,5d82d28977546f00166ae702,2020-11-27_10h05.00.631,lexical_decision_task_MP_exp2,2020.2.5,Win32,60,,z,1,0.478335,,,,,,,,0.478335,1,,,,,,305,NW,"ID",16,forgle,FORGLE,z,,,,,,0.749166711,0.119999989,0,0,0,,0,184,184,304,1,
,,,,,,,,,,,,,,,,,,5d82d28977546f00166ae702,2020-11-27_10h05.00.631,lexical_decision_task_MP_exp2,2020.2.5,Win32,60,,z,1,0.619735,,,,,,,,0.619735,1,,,,,,299,NW,"ID",33,sturch,STURCH,z,,,,,,0.749166711,0.119999989,0,0,0,,0,185,185,298,1,
,,,,,,,,,,,,,,,,,,5d82d28977546f00166ae702,2020-11-27_10h05.00.631,lexical_decision_task_MP_exp2,2020.2.5,Win32,60,,m,1,0.692645,,,,,,,,0.692645,1,,,,,,112,WORD,"ID",16,breath,BREATH,m,,,,,,0.749166711,0.119999989,0,0,0,,0,186,186,111,1,
,,,,,,,,,,,,,,,,,,5d82d28977546f00166ae702,2020-11-27_10h05.00.631,lexical_decision_task_MP_exp2,2020.2.5,Win32,60,,m,1,0.57421,,,,,,,,0.57421,1,,,,,,144,WORD,UN,33,parish,SPONGE,m,,,,,,0.749166711,0.119999989,0,0,0,,0,187,187,143,1,
,,,,,,,,,,,,,,,,,,5d82d28977546f00166ae702,2020-11-27_10h05.00.631,lexical_decision_task_MP_exp2,2020.2.5,Win32,60,,z,1,0.43974,,,,,,,,0.43974,1,,,,,,400,NW,UN,33,mustil,WEAROX,z,,,,,,0.749166711,0.119999989,0,0,0,,0,188,188,399,1,
,,,,,,,,,,,,,,,,,,5d82d28977546f00166ae702,2020-11-27_10h05.00.631,lexical_decision_task_MP_exp2,2020.2.5,Win32,60,,m,1,0.475685,,,,,,,,0.475685,1,,,,,,184,WORD,UN,16,bother,SLEAZY,m,,,,,,0.749166711,0.119999989,0,0,0,,0,189,189,183,1,
,,,,,,,,,,,,,,,,,,5d82d28977546f00166ae702,2020-11-27_10h05.00.631,lexical_decision_task_MP_exp2,2020.2.5,Win32,60,,m,1,0.787535,,,,,,,,0.787535,1,,,,,,211,WORD,UN,16,verify,INFECT,m,,,,,,0.749166711,0.119999989,0,0,0,,0,190,190,210,1,
,,,,,,,,,,,,,,,,,,5d82d28977546f00166ae702,2020-11-27_10h05.00.631,lexical_decision_task_MP_exp2,2020.2.5,Win32,60,,m,1,0.47374,,,,,,,,0.47374,1,,,,,,69,WORD,"ID",16,plenty,PLENTY,m,,,,,,0.749166711,0.119999989,0,0,0,,0,191,191,68,1,
,,,,,,,,,,,,,,,,,,5d82d28977546f00166ae702,2020-11-27_10h05.00.631,lexical_decision_task_MP_exp2,2020.2.5,Win32,60,,z,1,0.439895,,,,,,,,0.439895,1,,,,,,256,NW,"ID",33,inlors,INLORS,z,,,,,,0.749166711,0.119999989,0,0,0,,0,192,192,255,1,
,,,,,,,,,,,,,,,,,,5d82d28977546f00166ae702,2020-11-27_10h05.00.631,lexical_decision_task_MP_exp2,2020.2.5,Win32,60,,m,1,0.552685,,,,,,,,0.552685,1,,,,,,79,WORD,"ID",16,theory,THEORY,m,,,,,,0.749166711,0.119999989,0,0,0,,0,193,193,78,1,
,,,,,,,,,,,,,,,,,,5d82d28977546f00166ae702,2020-11-27_10h05.00.631,lexical_decision_task_MP_exp2,2020.2.5,Win32,60,,m,1,0.503235,,,,,,,,0.503235,1,,,,,,123,WORD,UN,33,enough,STRIKE,m,,,,,,0.749166711,0.119999989,0,0,0,,0,194,194,122,1,
,,,,,,,,,,,,,,,,,,5d82d28977546f00166ae702,2020-11-27_10h05.00.631,lexical_decision_task_MP_exp2,2020.2.5,Win32,60,,z,1,0.44428,,,,,,,,0.44428,1,,,,,,414,NW,UN,33,higsta,SERBOL,z,,,,,,0.749166711,0.119999989,0,0,0,,0,195,195,413,1,
,,,,,,,,,,,,,,,,,,5d82d28977546f00166ae702,2020-11-27_10h05.00.631,lexical_decision_task_MP_exp2,2020.2.5,Win32,60,,m,1,0.49592,,,,,,,,0.49592,1,,,,,,206,WORD,UN,16,wreath,TAILOR,m,,,,,,0.749166711,0.119999989,0,0,0,,0,196,196,205,1,
,,,,,,,,,,,,,,,,,,5d82d28977546f00166ae702,2020-11-27_10h05.00.631,lexical_decision_task_MP_exp2,2020.2.5,Win32,60,,z,1,0.52949,,,,,,,,0.52949,1,,,,,,449,NW,UN,16,phrect,BRUNGE,z,,,,,,0.749166711,0.119999989,0,0,0,,0,197,197,448,1,
,,,,,,,,,,,,,,,,,,5d82d28977546f00166ae702,2020-11-27_10h05.00.631,lexical_decision_task_MP_exp2,2020.2.5,Win32,60,,z,1,0.474255,,,,,,,,0.474255,1,,,,,,423,NW,UN,16,praile,STRELD,z,,,,,,0.749166711,0.119999989,0,0,0,,0,198,198,422,1,
,,,,,,,,,,,,,,,,,,5d82d28977546f00166ae702,2020-11-27_10h05.00.631,lexical_decision_task_MP_exp2,2020.2.5,Win32,60,,z,1,0.46692,,,,,,,,0.46692,1,,,,,,450,NW,UN,16,rastoe,PHRECT,z,,,,,,0.749166711,0.119999989,0,0,0,,0,199,199,449,1,
,,,,,,,,,,,,,,,,,,5d82d28977546f00166ae702,2020-11-27_10h05.00.631,lexical_decision_task_MP_exp2,2020.2.5,Win32,60,,m,1,0.491415,,,,,,,,0.491415,1,,,,,,235,WORD,UN,16,pirate,GRUMPY,m,,,,,,0.749166711,0.119999989,0,0,0,,0,200,200,234,1,
,,,,,,,,,,,,,,,,,,5d82d28977546f00166ae702,2020-11-27_10h05.00.631,lexical_decision_task_MP_exp2,2020.2.5,Win32,60,,m,1,0.61944,,,,,,,,0.61944,1,,,,,,89,WORD,"ID",16,permit,PERMIT,m,,,,,,0.749166711,0.119999989,0,0,0,,0,201,201,88,1,
,,,,,,,,,,,,,,,,,,5d82d28977546f00166ae702,2020-11-27_10h05.00.631,lexical_decision_task_MP_exp2,2020.2.5,Win32,60,,z,1,0.614195,,,,,,,,0.614195,1,,,,,,317,NW,"ID",16,worbal,WORBAL,z,,,,,,0.749166711,0.119999989,0,0,0,,0,202,202,316,1,
,,,,,,,,,,,,,,,,,,5d82d28977546f00166ae702,2020-11-27_10h05.00.631,lexical_decision_task_MP_exp2,2020.2.5,Win32,60,,m,1,0.53797,,,,,,,,0.53797,1,,,,,,94,WORD,"ID",16,travel,TRAVEL,m,,,,,,0.749166711,0.119999989,0,0,0,,0,203,203,93,1,
,,,,,,,,,,,,,,,,,,5d82d28977546f00166ae702,2020-11-27_10h05.00.631,lexical_decision_task_MP_exp2,2020.2.5,Win32,60,,z,1,0.60749,,,,,,,,0.60749,1,,,,,,273,NW,"ID",33,sortel,SORTEL,z,,,,,,0.749166711,0.119999989,0,0,0,,0,204,204,272,1,
,,,,,,,,,,,,,,,,,,5d82d28977546f00166ae702,2020-11-27_10h05.00.631,lexical_decision_task_MP_exp2,2020.2.5,Win32,60,,m,0,0.54882,,,,,,,,0.54882,0,,,,,,434,NW,UN,16,impurb,PITROM,z,,,,,,0.749166711,0.119999989,0,0,0,,0,205,205,433,1,
,,,,,,,,,,,,,,,,,,5d82d28977546f00166ae702,2020-11-27_10h05.00.631,lexical_decision_task_MP_exp2,2020.2.5,Win32,60,,m,1,0.518605,,,,,,,,0.518605,1,,,,,,115,WORD,"ID",16,guitar,GUITAR,m,,,,,,0.749166711,0.119999989,0,0,0,,0,206,206,114,1,
,,,,,,,,,,,,,,,,,,5d82d28977546f00166ae702,2020-11-27_10h05.00.631,lexical_decision_task_MP_exp2,2020.2.5,Win32,60,,m,1,0.460695,,,,,,,,0.460695,1,,,,,,56,WORD,"ID",33,ambush,AMBUSH,m,,,,,,0.749166711,0.119999989,0,0,0,,0,207,207,55,1,
,,,,,,,,,,,,,,,,,,5d82d28977546f00166ae702,2020-11-27_10h05.00.631,lexical_decision_task_MP_exp2,2020.2.5,Win32,60,,m,1,0.426005,,,,,,,,0.426005,1,,,,,,100,WORD,"ID",16,carbon,CARBON,m,,,,,,0.749166711,0.119999989,0,0,0,,0,208,208,99,1,
,,,,,,,,,,,,,,,,,,5d82d28977546f00166ae702,2020-11-27_10h05.00.631,lexical_decision_task_MP_exp2,2020.2.5,Win32,60,,z,1,0.487125,,,,,,,,0.487125,1,,,,,,270,NW,"ID",33,wrimsy,WRIMSY,z,,,,,,0.749166711,0.119999989,0,0,0,,0,209,209,269,1,
,,,,,,,,,,,,,,,,,,5d82d28977546f00166ae702,2020-11-27_10h05.00.631,lexical_decision_task_MP_exp2,2020.2.5,Win32,60,,m,1,0.56954,,,,,,,,0.56954,1,,,,,,41,WORD,"ID",33,spring,SPRING,m,,,,,,0.749166711,0.119999989,0,0,0,,0,210,210,40,1,
,,,,,,,,,,,,,,,,,,5d82d28977546f00166ae702,2020-11-27_10h05.00.631,lexical_decision_task_MP_exp2,2020.2.5,Win32,60,,m,1,0.68661,,,,,,,,0.68661,1,,,,,,14,WORD,"ID",33,almost,ALMOST,m,,,,,,0.749166711,0.119999989,0,0,0,,0,211,211,13,1,
,,,,,,,,,,,,,,,,,,5d82d28977546f00166ae702,2020-11-27_10h05.00.631,lexical_decision_task_MP_exp2,2020.2.5,Win32,60,,m,1,0.389715,,,,,,,,0.389715,1,,,,,,18,WORD,"ID",33,humble,HUMBLE,m,,,,,,0.749166711,0.119999989,0,0,0,,0,212,212,17,1,
,,,,,,,,,,,,,,,,,,5d82d28977546f00166ae702,2020-11-27_10h05.00.631,lexical_decision_task_MP_exp2,2020.2.5,Win32,60,,z,1,0.48646,,,,,,,,0.48646,1,,,,,,293,NW,"ID",33,swance,SWANCE,z,,,,,,0.749166711,0.119999989,0,0,0,,0,213,213,292,1,
,,,,,,,,,,,,,,,,,,5d82d28977546f00166ae702,2020-11-27_10h05.00.631,lexical_decision_task_MP_exp2,2020.2.5,Win32,60,,m,1,0.455165,,,,,,,,0.455165,1,,,,,,240,WORD,UN,16,glance,FOREST,m,,,,,,0.749166711,0.119999989,0,0,0,,0,214,214,239,1,
,,,,,,,,,,,,,,,,,,5d82d28977546f00166ae702,2020-11-27_10h05.00.631,lexical_decision_task_MP_exp2,2020.2.5,Win32,60,,z,1,0.4603,,,,,,,,0.4603,1,,,,,,473,NW,UN,16,hablin,CRIBLE,z,,,,,,0.749166711,0.119999989,0,0,0,,0,215,215,472,1,
,,,,,,,,,,,,,,,,,,5d82d28977546f00166ae702,2020-11-27_10h05.00.631,lexical_decision_task_MP_exp2,2020.2.5,Win32,60,,m,1,0.562715,,,,,,,,0.562715,1,,,,,,194,WORD,UN,16,resign,ABSENT,m,,,,,,0.749166711,0.119999989,0,0,0,,0,216,216,193,1,
,,,,,,,,,,,,,,,,,,5d82d28977546f00166ae702,2020-11-27_10h05.00.631,lexical_decision_task_MP_exp2,2020.2.5,Win32,60,,m,1,0.87536,,,,,,,,0.87536,1,,,,,,22,WORD,"ID",33,jockey,JOCKEY,m,,,,,,0.749166711,0.119999989,0,0,0,,0,217,217,21,1,
,,,,,,,,,,,,,,,,,,5d82d28977546f00166ae702,2020-11-27_10h05.00.631,lexical_decision_task_MP_exp2,2020.2.5,Win32,60,,m,1,0.55292,,,,,,,,0.55292,1,,,,,,138,WORD,UN,33,staple,MELODY,m,,,,,,0.749166711,0.119999989,0,0,0,,0,218,218,137,1,
,,,,,,,,,,,,,,,,,,5d82d28977546f00166ae702,2020-11-27_10h05.00.631,lexical_decision_task_MP_exp2,2020.2.5,Win32,60,,m,1,0.434015,,,,,,,,0.434015,1,,,,,,158,WORD,UN,33,detail,ISLAND,m,,,,,,0.749166711,0.119999989,0,0,0,,0,219,219,157,1,
,,,,,,,,,,,,,,,,,,5d82d28977546f00166ae702,2020-11-27_10h05.00.631,lexical_decision_task_MP_exp2,2020.2.5,Win32,60,,m,1,0.366905,,,,,,,,0.366905,1,,,,,,178,WORD,UN,33,mildew,INFORM,m,,,,,,0.749166711,0.119999989,0,0,0,,0,220,220,177,1,
,,,,,,,,,,,,,,,,,,5d82d28977546f00166ae702,2020-11-27_10h05.00.631,lexical_decision_task_MP_exp2,2020.2.5,Win32,60,,z,1,0.44848,,,,,,,,0.44848,1,,,,,,463,NW,UN,16,bafent,KISPEL,z,,,,,,0.749166711,0.119999989,0,0,0,,0,221,221,462,1,
,,,,,,,,,,,,,,,,,,5d82d28977546f00166ae702,2020-11-27_10h05.00.631,lexical_decision_task_MP_exp2,2020.2.5,Win32,60,,m,0,0.45352,,,,,,,,0.45352,0,,,,,,357,NW,"ID",16,derain,DERAIN,z,,,,,,0.749166711,0.119999989,0,0,0,,0,222,222,356,1,
,,,,,,,,,,,,,,,,,,5d82d28977546f00166ae702,2020-11-27_10h05.00.631,lexical_decision_task_MP_exp2,2020.2.5,Win32,60,,m,1,0.5634,,,,,,,,0.5634,1,,,,,,191,WORD,UN,16,absent,STABLE,m,,,,,,0.749166711,0.119999989,0,0,0,,0,223,223,190,1,
,,,,,,,,,,,,,,,,,,5d82d28977546f00166ae702,2020-11-27_10h05.00.631,lexical_decision_task_MP_exp2,2020.2.5,Win32,60,,m,1,0.566045,,,,,,,,0.566045,1,,,,,,51,WORD,"ID",33,hungry,HUNGRY,m,,,,,,0.749166711,0.119999989,0,0,0,,0,224,224,50,1,
,,,,,,,,,,,,,,,,,,5d82d28977546f00166ae702,2020-11-27_10h05.00.631,lexical_decision_task_MP_exp2,2020.2.5,Win32,60,,z,1,0.519885,,,,,,,,0.519885,1,,,,,,437,NW,UN,16,baitch,SNAPEL,z,,,,,,0.749166711,0.119999989,0,0,0,,0,225,225,436,1,
,,,,,,,,,,,,,,,,,,5d82d28977546f00166ae702,2020-11-27_10h05.00.631,lexical_decision_task_MP_exp2,2020.2.5,Win32,60,,m,1,0.61455,,,,,,,,0.61455,1,,,,,,176,WORD,UN,33,advent,STRIFE,m,,,,,,0.749166711,0.119999989,0,0,0,,0,226,226,175,1,
,,,,,,,,,,,,,,,,,,5d82d28977546f00166ae702,2020-11-27_10h05.00.631,lexical_decision_task_MP_exp2,2020.2.5,Win32,60,,m,1,0.530065,,,,,,,,0.530065,1,,,,,,67,WORD,"ID",16,policy,POLICY,m,,,,,,0.749166711,0.119999989,0,0,0,,0,227,227,66,1,
,,,,,,,,,,,,,,,,,,5d82d28977546f00166ae702,2020-11-27_10h05.00.631,lexical_decision_task_MP_exp2,2020.2.5,Win32,60,,m,1,0.575065,,,,,,,,0.575065,1,,,,,,74,WORD,"ID",16,plaque,PLAQUE,m,,,,,,0.749166711,0.119999989,0,0,0,,0,228,228,73,1,
,,,,,,,,,,,,,,,,,,5d82d28977546f00166ae702,2020-11-27_10h05.00.631,lexical_decision_task_MP_exp2,2020.2.5,Win32,60,,z,1,0.753575,,,,,,,,0.753575,1,,,,,,390,NW,UN,33,theldy,HATRUS,z,,,,,,0.749166711,0.119999989,0,0,0,,0,229,229,389,1,
,,,,,,,,,,,,,,,,,,5d82d28977546f00166ae702,2020-11-27_10h05.00.631,lexical_decision_task_MP_exp2,2020.2.5,Win32,60,,m,1,0.497865,,,,,,,,0.497865,1,,,,,,216,WORD,UN,16,liquor,BEHALF,m,,,,,,0.749166711,0.119999989,0,0,0,,0,230,230,215,1,
,,,,,,,,,,,,,,,,,,5d82d28977546f00166ae702,2020-11-27_10h05.00.631,lexical_decision_task_MP_exp2,2020.2.5,Win32,60,,z,1,0.508225,,,,,,,,0.508225,1,,,,,,431,NW,UN,16,lunker,CHRUMS,z,,,,,,0.749166711,0.119999989,0,0,0,,0,231,231,430,1,
,,,,,,,,,,,,,,,,,,5d82d28977546f00166ae702,2020-11-27_10h05.00.631,lexical_decision_task_MP_exp2,2020.2.5,Win32,60,,z,1,0.673565,,,,,,,,0.673565,1,,,,,,378,NW,UN,33,auting,SHRILE,z,,,,,,0.749166711,0.119999989,0,0,0,,0,232,232,377,1,
,,,,,,,,,,,,,,,,,,5d82d28977546f00166ae702,2020-11-27_10h05.00.631,lexical_decision_task_MP_exp2,2020.2.5,Win32,60,,z,1,0.42833,,,,,,,,0.42833,1,,,,,,471,NW,UN,16,cigney,NOBEST,z,,,,,,0.749166711,0.119999989,0,0,0,,0,233,233,470,1,
,,,,,,,,,,,,,,,,,,5d82d28977546f00166ae702,2020-11-27_10h05.00.631,lexical_decision_task_MP_exp2,2020.2.5,Win32,60,,m,1,0.66861,,,,,,,,0.66861,1,,,,,,232,WORD,UN,16,nature,INJECT,m,,,,,,0.749166711,0.119999989,0,0,0,,0,234,234,231,1,
,,,,,,,,,,,,,,,,,,5d82d28977546f00166ae702,2020-11-27_10h05.00.631,lexical_decision_task_MP_exp2,2020.2.5,Win32,60,,m,1,0.625595,,,,,,,,0.625595,1,,,,,,133,WORD,UN,33,debris,CHROME,m,,,,,,0.749166711,0.119999989,0,0,0,,0,235,235,132,1,
,,,,,,,,,,,,,,,,,,5d82d28977546f00166ae702,2020-11-27_10h05.00.631,lexical_decision_task_MP_exp2,2020.2.5,Win32,60,,z,1,0.543755,,,,,,,,0.543755,1,,,,,,418,NW,UN,33,slount,SUIDLE,z,,,,,,0.749166711,0.119999989,0,0,0,,0,236,236,417,1,
,,,,,,,,,,,,,,,,,,5d82d28977546f00166ae702,2020-11-27_10h05.00.631,lexical_decision_task_MP_exp2,2020.2.5,Win32,60,,z,1,0.607735,,,,,,,,0.607735,1,,,,,,446,NW,UN,16,gircue,RUNAMO,z,,,,,,0.749166711,0.119999989,0,0,0,,0,237,237,445,1,
,,,,,,,,,,,,,,,,,,5d82d28977546f00166ae702,2020-11-27_10h05.00.631,lexical_decision_task_MP_exp2,2020.2.5,Win32,60,,m,1,0.531545,,,,,,,,0.531545,1,,,,,,107,WORD,"ID",16,slogan,SLOGAN,m,,,,,,0.749166711,0.119999989,0,0,0,,0,238,238,106,1,
,,,,,,,,,,,,,,,,,,5d82d28977546f00166ae702,2020-11-27_10h05.00.631,lexical_decision_task_MP_exp2,2020.2.5,Win32,60,,m,1,0.5365,,,,,,,,0.5365,1,,,,,,183,WORD,UN,16,sleazy,MILDEW,m,,,,,,0.749166711,0.119999989,0,0,0,,0,239,239,182,1,
,,,,,,,,,,,,,,,,,,5d82d28977546f00166ae702,2020-11-27_10h05.00.631,lexical_decision_task_MP_exp2,2020.2.5,Win32,60,,z,1,0.520105,,,,,,,,0.520105,1,,,,,,387,NW,UN,33,cragin,GRONCE,z,,,,,,0.749166711,0.119999989,0,0,0,,0,240,240,386,1,
,,,,,,,,,,,,,,,,,,5d82d28977546f00166ae702,2020-11-27_10h05.00.631,lexical_decision_task_MP_exp2,2020.2.5,Win32,60,,m,1,0.507405,,,,,,,,0.507405,1,,,,,,59,WORD,"ID",33,splint,SPLINT,m,,,,,,0.749166711,0.119999989,0,0,0,space,0,241,241,58,1,91.876605
,,,,,,,,,,,,,,,,,,5d82d28977546f00166ae702,2020-11-27_10h05.00.631,lexical_decision_task_MP_exp2,2020.2.5,Win32,60,,z,1,0.53774,,,,,,,,0.53774,1,,,,,,274,NW,"ID",33,fumblo,FUMBLO,z,,,,,,0.749166711,0.119999989,0,0,0,,0,242,242,273,1,
,,,,,,,,,,,,,,,,,,5d82d28977546f00166ae702,2020-11-27_10h05.00.631,lexical_decision_task_MP_exp2,2020.2.5,Win32,60,,z,1,0.46013,,,,,,,,0.46013,1,,,,,,365,NW,UN,33,toshel,GUAIRT,z,,,,,,0.749166711,0.119999989,0,0,0,,0,243,243,364,1,
,,,,,,,,,,,,,,,,,,5d82d28977546f00166ae702,2020-11-27_10h05.00.631,lexical_decision_task_MP_exp2,2020.2.5,Win32,60,,z,1,0.536305,,,,,,,,0.536305,1,,,,,,325,NW,"ID",16,thruse,THRUSE,z,,,,,,0.749166711,0.119999989,0,0,0,,0,244,244,324,1,
,,,,,,,,,,,,,,,,,,5d82d28977546f00166ae702,2020-11-27_10h05.00.631,lexical_decision_task_MP_exp2,2020.2.5,Win32,60,,z,1,0.5018,,,,,,,,0.5018,1,,,,,,478,NW,UN,16,lobush,ACRISE,z,,,,,,0.749166711,0.119999989,0,0,0,,0,245,245,477,1,
,,,,,,,,,,,,,,,,,,5d82d28977546f00166ae702,2020-11-27_10h05.00.631,lexical_decision_task_MP_exp2,2020.2.5,Win32,60,,m,1,0.501905,,,,,,,,0.501905,1,,,,,,210,WORD,UN,16,infect,MONKEY,m,,,,,,0.749166711,0.119999989,0,0,0,,0,246,246,209,1,
,,,,,,,,,,,,,,,,,,5d82d28977546f00166ae702,2020-11-27_10h05.00.631,lexical_decision_task_MP_exp2,2020.2.5,Win32,60,,m,1,0.41966,,,,,,,,0.41966,1,,,,,,40,WORD,"ID",33,convey,CONVEY,m,,,,,,0.749166711,0.119999989,0,0,0,,0,247,247,39,1,
,,,,,,,,,,,,,,,,,,5d82d28977546f00166ae702,2020-11-27_10h05.00.631,lexical_decision_task_MP_exp2,2020.2.5,Win32,60,,m,1,0.454815,,,,,,,,0.454815,1,,,,,,208,WORD,UN,16,search,HOCKEY,m,,,,,,0.749166711,0.119999989,0,0,0,,0,248,248,207,1,
,,,,,,,,,,,,,,,,,,5d82d28977546f00166ae702,2020-11-27_10h05.00.631,lexical_decision_task_MP_exp2,2020.2.5,Win32,60,,z,0,0.52133,,,,,,,,0.52133,0,,,,,,114,WORD,"ID",16,placid,PLACID,m,,,,,,0.749166711,0.119999989,0,0,0,,0,249,249,113,1,
,,,,,,,,,,,,,,,,,,5d82d28977546f00166ae702,2020-11-27_10h05.00.631,lexical_decision_task_MP_exp2,2020.2.5,Win32,60,,z,1,0.535205,,,,,,,,0.535205,1,,,,,,372,NW,UN,33,bigent,RAMILY,z,,,,,,0.749166711,0.119999989,0,0,0,,0,250,250,371,1,
,,,,,,,,,,,,,,,,,,5d82d28977546f00166ae702,2020-11-27_10h05.00.631,lexical_decision_task_MP_exp2,2020.2.5,Win32,60,,z,1,0.668855,,,,,,,,0.668855,1,,,,,,425,NW,UN,16,schind,FRUDGE,z,,,,,,0.749166711,0.119999989,0,0,0,,0,251,251,424,1,
,,,,,,,,,,,,,,,,,,5d82d28977546f00166ae702,2020-11-27_10h05.00.631,lexical_decision_task_MP_exp2,2020.2.5,Win32,60,,m,1,0.49671,,,,,,,,0.49671,1,,,,,,44,WORD,"ID",33,danger,DANGER,m,,,,,,0.749166711,0.119999989,0,0,0,,0,252,252,43,1,
,,,,,,,,,,,,,,,,,,5d82d28977546f00166ae702,2020-11-27_10h05.00.631,lexical_decision_task_MP_exp2,2020.2.5,Win32,60,,z,1,0.54082,,,,,,,,0.54082,1,,,,,,243,NW,"ID",33,musied,MUSIED,z,,,,,,0.749166711,0.119999989,0,0,0,,0,253,253,242,1,
,,,,,,,,,,,,,,,,,,5d82d28977546f00166ae702,2020-11-27_10h05.00.631,lexical_decision_task_MP_exp2,2020.2.5,Win32,60,,z,0,0.442735,,,,,,,,0.442735,0,,,,,,199,WORD,UN,16,beacon,INVOKE,m,,,,,,0.749166711,0.119999989,0,0,0,,0,254,254,198,1,
,,,,,,,,,,,,,,,,,,5d82d28977546f00166ae702,2020-11-27_10h05.00.631,lexical_decision_task_MP_exp2,2020.2.5,Win32,60,,z,1,0.525705,,,,,,,,0.525705,1,,,,,,351,NW,"ID",16,tiesch,TIESCH,z,,,,,,0.749166711,0.119999989,0,0,0,,0,255,255,350,1,
,,,,,,,,,,,,,,,,,,5d82d28977546f00166ae702,2020-11-27_10h05.00.631,lexical_decision_task_MP_exp2,2020.2.5,Win32,60,,m,1,0.484965,,,,,,,,0.484965,1,,,,,,81,WORD,"ID",16,friend,FRIEND,m,,,,,,0.749166711,0.119999989,0,0,0,,0,256,256,80,1,
,,,,,,,,,,,,,,,,,,5d82d28977546f00166ae702,2020-11-27_10h05.00.631,lexical_decision_task_MP_exp2,2020.2.5,Win32,60,,z,1,0.552315,,,,,,,,0.552315,1,,,,,,458,NW,UN,16,chaite,BARCET,z,,,,,,0.749166711,0.119999989,0,0,0,,0,257,257,457,1,
,,,,,,,,,,,,,,,,,,5d82d28977546f00166ae702,2020-11-27_10h05.00.631,lexical_decision_task_MP_exp2,2020.2.5,Win32,60,,m,1,0.527315,,,,,,,,0.527315,1,,,,,,236,WORD,UN,16,poster,PIRATE,m,,,,,,0.749166711,0.119999989,0,0,0,,0,258,258,235,1,
,,,,,,,,,,,,,,,,,,5d82d28977546f00166ae702,2020-11-27_10h05.00.631,lexical_decision_task_MP_exp2,2020.2.5,Win32,60,,z,1,1.12447,,,,,,,,1.12447,1,,,,,,332,NW,"ID",16,vangue,VANGUE,z,,,,,,0.749166711,0.119999989,0,0,0,,0,259,259,331,1,
,,,,,,,,,,,,,,,,,,5d82d28977546f00166ae702,2020-11-27_10h05.00.631,lexical_decision_task_MP_exp2,2020.2.5,Win32,60,,m,1,0.66754,,,,,,,,0.66754,1,,,,,,6,WORD,"ID",33,bundle,BUNDLE,m,,,,,,0.749166711,0.119999989,0,0,0,,0,260,260,5,1,
,,,,,,,,,,,,,,,,,,5d82d28977546f00166ae702,2020-11-27_10h05.00.631,lexical_decision_task_MP_exp2,2020.2.5,Win32,60,,m,1,0.435285,,,,,,,,0.435285,1,,,,,,12,WORD,"ID",33,orange,ORANGE,m,,,,,,0.749166711,0.119999989,0,0,0,,0,261,261,11,1,
,,,,,,,,,,,,,,,,,,5d82d28977546f00166ae702,2020-11-27_10h05.00.631,lexical_decision_task_MP_exp2,2020.2.5,Win32,60,,z,1,0.545085,,,,,,,,0.545085,1,,,,,,447,NW,UN,16,sadent,GIRCUE,z,,,,,,0.749166711,0.119999989,0,0,0,,0,262,262,446,1,
,,,,,,,,,,,,,,,,,,5d82d28977546f00166ae702,2020-11-27_10h05.00.631,lexical_decision_task_MP_exp2,2020.2.5,Win32,60,,z,1,0.62493,,,,,,,,0.62493,1,,,,,,455,NW,UN,16,broget,TONDLE,z,,,,,,0.749166711,0.119999989,0,0,0,,0,263,263,454,1,
,,,,,,,,,,,,,,,,,,5d82d28977546f00166ae702,2020-11-27_10h05.00.631,lexical_decision_task_MP_exp2,2020.2.5,Win32,60,,m,1,0.518605,,,,,,,,0.518605,1,,,,,,102,WORD,"ID",16,direct,DIRECT,m,,,,,,0.749166711,0.119999989,0,0,0,,0,264,264,101,1,
,,,,,,,,,,,,,,,,,,5d82d28977546f00166ae702,2020-11-27_10h05.00.631,lexical_decision_task_MP_exp2,2020.2.5,Win32,60,,m,1,0.418035,,,,,,,,0.418035,1,,,,,,228,WORD,UN,16,inject,MASTER,m,,,,,,0.749166711,0.119999989,0,0,0,,0,265,265,227,1,
,,,,,,,,,,,,,,,,,,5d82d28977546f00166ae702,2020-11-27_10h05.00.631,lexical_decision_task_MP_exp2,2020.2.5,Win32,60,,m,1,0.435445,,,,,,,,0.435445,1,,,,,,105,WORD,"ID",16,number,NUMBER,m,,,,,,0.749166711,0.119999989,0,0,0,,0,266,266,104,1,
,,,,,,,,,,,,,,,,,,5d82d28977546f00166ae702,2020-11-27_10h05.00.631,lexical_decision_task_MP_exp2,2020.2.5,Win32,60,,z,1,0.52463,,,,,,,,0.52463,1,,,,,,297,NW,"ID",33,fertic,FERTIC,z,,,,,,0.749166711,0.119999989,0,0,0,,0,267,267,296,1,
,,,,,,,,,,,,,,,,,,5d82d28977546f00166ae702,2020-11-27_10h05.00.631,lexical_decision_task_MP_exp2,2020.2.5,Win32,60,,m,1,0.60188,,,,,,,,0.60188,1,,,,,,213,WORD,UN,16,intake,SQUEAL,m,,,,,,0.749166711,0.119999989,0,0,0,,0,268,268,212,1,
,,,,,,,,,,,,,,,,,,5d82d28977546f00166ae702,2020-11-27_10h05.00.631,lexical_decision_task_MP_exp2,2020.2.5,Win32,60,,z,1,0.673405,,,,,,,,0.673405,1,,,,,,345,NW,"ID",16,absend,ABSEND,z,,,,,,0.749166711,0.119999989,0,0,0,,0,269,269,344,1,
,,,,,,,,,,,,,,,,,,5d82d28977546f00166ae702,2020-11-27_10h05.00.631,lexical_decision_task_MP_exp2,2020.2.5,Win32,60,,z,1,0.5685,,,,,,,,0.5685,1,,,,,,309,NW,"ID",16,amiloy,AMILOY,z,,,,,,0.749166711,0.119999989,0,0,0,,0,270,270,308,1,
,,,,,,,,,,,,,,,,,,5d82d28977546f00166ae702,2020-11-27_10h05.00.631,lexical_decision_task_MP_exp2,2020.2.5,Win32,60,,z,1,0.53417,,,,,,,,0.53417,1,,,,,,375,NW,UN,33,iguare,YORQUE,z,,,,,,0.749166711,0.119999989,0,0,0,,0,271,271,374,1,
,,,,,,,,,,,,,,,,,,5d82d28977546f00166ae702,2020-11-27_10h05.00.631,lexical_decision_task_MP_exp2,2020.2.5,Win32,60,,m,1,0.58498,,,,,,,,0.58498,1,,,,,,163,WORD,UN,33,market,STRING,m,,,,,,0.749166711,0.119999989,0,0,0,,0,272,272,162,1,
,,,,,,,,,,,,,,,,,,5d82d28977546f00166ae702,2020-11-27_10h05.00.631,lexical_decision_task_MP_exp2,2020.2.5,Win32,60,,z,1,0.570225,,,,,,,,0.570225,1,,,,,,331,NW,"ID",16,gilfew,GILFEW,z,,,,,,0.749166711,0.119999989,0,0,0,,0,273,273,330,1,
,,,,,,,,,,,,,,,,,,5d82d28977546f00166ae702,2020-11-27_10h05.00.631,lexical_decision_task_MP_exp2,2020.2.5,Win32,60,,m,1,0.43643,,,,,,,,0.43643,1,,,,,,187,WORD,UN,16,social,COURSE,m,,,,,,0.749166711,0.119999989,0,0,0,,0,274,274,186,1,
,,,,,,,,,,,,,,,,,,5d82d28977546f00166ae702,2020-11-27_10h05.00.631,lexical_decision_task_MP_exp2,2020.2.5,Win32,60,,m,1,0.47357,,,,,,,,0.47357,1,,,,,,164,WORD,UN,33,invest,MARKET,m,,,,,,0.749166711,0.119999989,0,0,0,,0,275,275,163,1,
,,,,,,,,,,,,,,,,,,5d82d28977546f00166ae702,2020-11-27_10h05.00.631,lexical_decision_task_MP_exp2,2020.2.5,Win32,60,,m,1,0.42231,,,,,,,,0.42231,1,,,,,,30,WORD,"ID",33,orient,ORIENT,m,,,,,,0.749166711,0.119999989,0,0,0,,0,276,276,29,1,
,,,,,,,,,,,,,,,,,,5d82d28977546f00166ae702,2020-11-27_10h05.00.631,lexical_decision_task_MP_exp2,2020.2.5,Win32,60,,z,1,0.493745,,,,,,,,0.493745,1,,,,,,272,NW,"ID",33,damilt,DAMILT,z,,,,,,0.749166711,0.119999989,0,0,0,,0,277,277,271,1,
,,,,,,,,,,,,,,,,,,5d82d28977546f00166ae702,2020-11-27_10h05.00.631,lexical_decision_task_MP_exp2,2020.2.5,Win32,60,,z,1,0.426145,,,,,,,,0.426145,1,,,,,,326,NW,"ID",16,iguade,IGUADE,z,,,,,,0.749166711,0.119999989,0,0,0,,0,278,278,325,1,
,,,,,,,,,,,,,,,,,,5d82d28977546f00166ae702,2020-11-27_10h05.00.631,lexical_decision_task_MP_exp2,2020.2.5,Win32,60,,z,1,0.48917,,,,,,,,0.48917,1,,,,,,379,NW,UN,33,cavory,AUTING,z,,,,,,0.749166711,0.119999989,0,0,0,,0,279,279,378,1,
,,,,,,,,,,,,,,,,,,5d82d28977546f00166ae702,2020-11-27_10h05.00.631,lexical_decision_task_MP_exp2,2020.2.5,Win32,60,,m,1,0.606915,,,,,,,,0.606915,1,,,,,,5,WORD,"ID",33,plunge,PLUNGE,m,,,,,,0.749166711,0.119999989,0,0,0,,0,280,280,4,1,
,,,,,,,,,,,,,,,,,,5d82d28977546f00166ae702,2020-11-27_10h05.00.631,lexical_decision_task_MP_exp2,2020.2.5,Win32,60,,m,1,0.58861,,,,,,,,0.58861,1,,,,,,84,WORD,"ID",16,mortal,MORTAL,m,,,,,,0.749166711,0.119999989,0,0,0,,0,281,281,83,1,
,,,,,,,,,,,,,,,,,,5d82d28977546f00166ae702,2020-11-27_10h05.00.631,lexical_decision_task_MP_exp2,2020.2.5,Win32,60,,z,1,0.446535,,,,,,,,0.446535,1,,,,,,279,NW,"ID",33,celond,CELOND,z,,,,,,0.749166711,0.119999989,0,0,0,,0,282,282,278,1,
,,,,,,,,,,,,,,,,,,5d82d28977546f00166ae702,2020-11-27_10h05.00.631,lexical_decision_task_MP_exp2,2020.2.5,Win32,60,,m,1,0.52316,,,,,,,,0.52316,1,,,,,,118,WORD,"ID",16,flight,FLIGHT,m,,,,,,0.749166711,0.119999989,0,0,0,,0,283,283,117,1,
,,,,,,,,,,,,,,,,,,5d82d28977546f00166ae702,2020-11-27_10h05.00.631,lexical_decision_task_MP_exp2,2020.2.5,Win32,60,,z,1,0.477655,,,,,,,,0.477655,1,,,,,,271,NW,"ID",33,aubrid,AUBRID,z,,,,,,0.749166711,0.119999989,0,0,0,,0,284,284,270,1,
,,,,,,,,,,,,,,,,,,5d82d28977546f00166ae702,2020-11-27_10h05.00.631,lexical_decision_task_MP_exp2,2020.2.5,Win32,60,,m,1,0.568385,,,,,,,,0.568385,1,,,,,,227,WORD,UN,16,master,SELDOM,m,,,,,,0.749166711,0.119999989,0,0,0,,0,285,285,226,1,
,,,,,,,,,,,,,,,,,,5d82d28977546f00166ae702,2020-11-27_10h05.00.631,lexical_decision_task_MP_exp2,2020.2.5,Win32,60,,z,1,0.571635,,,,,,,,0.571635,1,,,,,,287,NW,"ID",33,nymbel,NYMBEL,z,,,,,,0.749166711,0.119999989,0,0,0,,0,286,286,286,1,
,,,,,,,,,,,,,,,,,,5d82d28977546f00166ae702,2020-11-27_10h05.00.631,lexical_decision_task_MP_exp2,2020.2.5,Win32,60,,m,1,0.502205,,,,,,,,0.502205,1,,,,,,152,WORD,UN,33,behold,ROCKET,m,,,,,,0.749166711,0.119999989,0,0,0,,0,287,287,151,1,
,,,,,,,,,,,,,,,,,,5d82d28977546f00166ae702,2020-11-27_10h05.00.631,lexical_decision_task_MP_exp2,2020.2.5,Win32,60,,m,1,0.485675,,,,,,,,0.485675,1,,,,,,162,WORD,UN,33,string,CANDLE,m,,,,,,0.749166711,0.119999989,0,0,0,,0,288,288,161,1,
,,,,,,,,,,,,,,,,,,5d82d28977546f00166ae702,2020-11-27_10h05.00.631,lexical_decision_task_MP_exp2,2020.2.5,Win32,60,,z,1,0.59021,,,,,,,,0.59021,1,,,,,,421,NW,UN,16,alcoud,KNISMA,z,,,,,,0.749166711,0.119999989,0,0,0,,0,289,289,420,1,
,,,,,,,,,,,,,,,,,,5d82d28977546f00166ae702,2020-11-27_10h05.00.631,lexical_decision_task_MP_exp2,2020.2.5,Win32,60,,m,1,0.46435,,,,,,,,0.46435,1,,,,,,109,WORD,"ID",16,wonder,WONDER,m,,,,,,0.749166711,0.119999989,0,0,0,,0,290,290,108,1,
,,,,,,,,,,,,,,,,,,5d82d28977546f00166ae702,2020-11-27_10h05.00.631,lexical_decision_task_MP_exp2,2020.2.5,Win32,60,,m,1,0.76442,,,,,,,,0.76442,1,,,,,,3,WORD,"ID",33,knight,KNIGHT,m,,,,,,0.749166711,0.119999989,0,0,0,,0,291,291,2,1,
,,,,,,,,,,,,,,,,,,5d82d28977546f00166ae702,2020-11-27_10h05.00.631,lexical_decision_task_MP_exp2,2020.2.5,Win32,60,,m,1,0.462335,,,,,,,,0.462335,1,,,,,,77,WORD,"ID",16,racket,RACKET,m,,,,,,0.749166711,0.119999989,0,0,0,,0,292,292,76,1,
,,,,,,,,,,,,,,,,,,5d82d28977546f00166ae702,2020-11-27_10h05.00.631,lexical_decision_task_MP_exp2,2020.2.5,Win32,60,,z,1,0.67598,,,,,,,,0.67598,1,,,,,,310,NW,"ID",16,daniet,DANIET,z,,,,,,0.749166711,0.119999989,0,0,0,,0,293,293,309,1,
,,,,,,,,,,,,,,,,,,5d82d28977546f00166ae702,2020-11-27_10h05.00.631,lexical_decision_task_MP_exp2,2020.2.5,Win32,60,,z,1,0.627525,,,,,,,,0.627525,1,,,,,,462,NW,UN,16,kispel,ABSULT,z,,,,,,0.749166711,0.119999989,0,0,0,,0,294,294,461,1,
,,,,,,,,,,,,,,,,,,5d82d28977546f00166ae702,2020-11-27_10h05.00.631,lexical_decision_task_MP_exp2,2020.2.5,Win32,60,,m,1,0.519585,,,,,,,,0.519585,1,,,,,,48,WORD,"ID",33,walnut,WALNUT,m,,,,,,0.749166711,0.119999989,0,0,0,,0,295,295,47,1,
,,,,,,,,,,,,,,,,,,5d82d28977546f00166ae702,2020-11-27_10h05.00.631,lexical_decision_task_MP_exp2,2020.2.5,Win32,60,,m,1,0.472845,,,,,,,,0.472845,1,,,,,,130,WORD,UN,33,quench,STUPID,m,,,,,,0.749166711,0.119999989,0,0,0,,0,296,296,129,1,
,,,,,,,,,,,,,,,,,,5d82d28977546f00166ae702,2020-11-27_10h05.00.631,lexical_decision_task_MP_exp2,2020.2.5,Win32,60,,z,1,0.45694,,,,,,,,0.45694,1,,,,,,436,NW,UN,16,snapel,FRUTAN,z,,,,,,0.749166711,0.119999989,0,0,0,,0,297,297,435,1,
,,,,,,,,,,,,,,,,,,5d82d28977546f00166ae702,2020-11-27_10h05.00.631,lexical_decision_task_MP_exp2,2020.2.5,Win32,60,,m,1,0.487575,,,,,,,,0.487575,1,,,,,,190,WORD,UN,16,stable,BACKUP,m,,,,,,0.749166711,0.119999989,0,0,0,,0,298,298,189,1,
,,,,,,,,,,,,,,,,,,5d82d28977546f00166ae702,2020-11-27_10h05.00.631,lexical_decision_task_MP_exp2,2020.2.5,Win32,60,,m,1,0.58236,,,,,,,,0.58236,1,,,,,,214,WORD,UN,16,phobia,INTAKE,m,,,,,,0.749166711,0.119999989,0,0,0,,0,299,299,213,1,
,,,,,,,,,,,,,,,,,,5d82d28977546f00166ae702,2020-11-27_10h05.00.631,lexical_decision_task_MP_exp2,2020.2.5,Win32,60,,z,1,0.47555,,,,,,,,0.47555,1,,,,,,307,NW,"ID",16,kirafe,KIRAFE,z,,,,,,0.749166711,0.119999989,0,0,0,,0,300,300,306,1,
,,,,,,,,,,,,,,,,,,5d82d28977546f00166ae702,2020-11-27_10h05.00.631,lexical_decision_task_MP_exp2,2020.2.5,Win32,60,,m,1,0.49004,,,,,,,,0.49004,1,,,,,,170,WORD,UN,33,depart,POUNCE,m,,,,,,0.749166711,0.119999989,0,0,0,,0,301,301,169,1,
,,,,,,,,,,,,,,,,,,5d82d28977546f00166ae702,2020-11-27_10h05.00.631,lexical_decision_task_MP_exp2,2020.2.5,Win32,60,,m,1,0.5703,,,,,,,,0.5703,1,,,,,,222,WORD,UN,16,casino,HINDER,m,,,,,,0.749166711,0.119999989,0,0,0,,0,302,302,221,1,
,,,,,,,,,,,,,,,,,,5d82d28977546f00166ae702,2020-11-27_10h05.00.631,lexical_decision_task_MP_exp2,2020.2.5,Win32,60,,z,1,0.68393,,,,,,,,0.68393,1,,,,,,348,NW,"ID",16,dumple,DUMPLE,z,,,,,,0.749166711,0.119999989,0,0,0,,0,303,303,347,1,
,,,,,,,,,,,,,,,,,,5d82d28977546f00166ae702,2020-11-27_10h05.00.631,lexical_decision_task_MP_exp2,2020.2.5,Win32,60,,z,1,0.642765,,,,,,,,0.642765,1,,,,,,267,NW,"ID",33,pasink,PASINK,z,,,,,,0.749166711,0.119999989,0,0,0,,0,304,304,266,1,
,,,,,,,,,,,,,,,,,,5d82d28977546f00166ae702,2020-11-27_10h05.00.631,lexical_decision_task_MP_exp2,2020.2.5,Win32,60,,m,1,0.64059,,,,,,,,0.64059,1,,,,,,42,WORD,"ID",33,chapel,CHAPEL,m,,,,,,0.749166711,0.119999989,0,0,0,,0,305,305,41,1,
,,,,,,,,,,,,,,,,,,5d82d28977546f00166ae702,2020-11-27_10h05.00.631,lexical_decision_task_MP_exp2,2020.2.5,Win32,60,,m,1,0.702795,,,,,,,,0.702795,1,,,,,,19,WORD,"ID",33,patron,PATRON,m,,,,,,0.749166711,0.119999989,0,0,0,,0,306,306,18,1,
,,,,,,,,,,,,,,,,,,5d82d28977546f00166ae702,2020-11-27_10h05.00.631,lexical_decision_task_MP_exp2,2020.2.5,Win32,60,,z,1,0.5941,,,,,,,,0.5941,1,,,,,,359,NW,"ID",16,fonver,FONVER,z,,,,,,0.749166711,0.119999989,0,0,0,,0,307,307,358,1,
,,,,,,,,,,,,,,,,,,5d82d28977546f00166ae702,2020-11-27_10h05.00.631,lexical_decision_task_MP_exp2,2020.2.5,Win32,60,,z,1,0.487325,,,,,,,,0.487325,1,,,,,,472,NW,UN,16,crible,CIGNEY,z,,,,,,0.749166711,0.119999989,0,0,0,,0,308,308,471,1,
,,,,,,,,,,,,,,,,,,5d82d28977546f00166ae702,2020-11-27_10h05.00.631,lexical_decision_task_MP_exp2,2020.2.5,Win32,60,,z,1,0.54926,,,,,,,,0.54926,1,,,,,,385,NW,UN,33,ancust,VEIGMA,z,,,,,,0.749166711,0.119999989,0,0,0,,0,309,309,384,1,
,,,,,,,,,,,,,,,,,,5d82d28977546f00166ae702,2020-11-27_10h05.00.631,lexical_decision_task_MP_exp2,2020.2.5,Win32,60,,m,0,0.782285,,,,,,,,0.782285,0,,,,,,268,NW,"ID",33,packes,PACKES,z,,,,,,0.749166711,0.119999989,0,0,0,,0,310,310,267,1,
,,,,,,,,,,,,,,,,,,5d82d28977546f00166ae702,2020-11-27_10h05.00.631,lexical_decision_task_MP_exp2,2020.2.5,Win32,60,,m,1,0.4635,,,,,,,,0.4635,1,,,,,,38,WORD,"ID",33,powder,POWDER,m,,,,,,0.749166711,0.119999989,0,0,0,,0,311,311,37,1,
,,,,,,,,,,,,,,,,,,5d82d28977546f00166ae702,2020-11-27_10h05.00.631,lexical_decision_task_MP_exp2,2020.2.5,Win32,60,,z,1,0.664585,,,,,,,,0.664585,1,,,,,,248,NW,"ID",33,strole,STROLE,z,,,,,,0.749166711,0.119999989,0,0,0,,0,312,312,247,1,
,,,,,,,,,,,,,,,,,,5d82d28977546f00166ae702,2020-11-27_10h05.00.631,lexical_decision_task_MP_exp2,2020.2.5,Win32,60,,m,1,0.48719,,,,,,,,0.48719,1,,,,,,57,WORD,"ID",33,change,CHANGE,m,,,,,,0.749166711,0.119999989,0,0,0,,0,313,313,56,1,
,,,,,,,,,,,,,,,,,,5d82d28977546f00166ae702,2020-11-27_10h05.00.631,lexical_decision_task_MP_exp2,2020.2.5,Win32,60,,z,1,0.541965,,,,,,,,0.541965,1,,,,,,252,NW,"ID",33,stapod,STAPOD,z,,,,,,0.749166711,0.119999989,0,0,0,,0,314,314,251,1,
,,,,,,,,,,,,,,,,,,5d82d28977546f00166ae702,2020-11-27_10h05.00.631,lexical_decision_task_MP_exp2,2020.2.5,Win32,60,,z,1,0.38242,,,,,,,,0.38242,1,,,,,,349,NW,"ID",16,asylen,ASYLEN,z,,,,,,0.749166711,0.119999989,0,0,0,,0,315,315,348,1,
,,,,,,,,,,,,,,,,,,5d82d28977546f00166ae702,2020-11-27_10h05.00.631,lexical_decision_task_MP_exp2,2020.2.5,Win32,60,,m,1,0.50126,,,,,,,,0.50126,1,,,,,,16,WORD,"ID",33,faucet,FAUCET,m,,,,,,0.749166711,0.119999989,0,0,0,,0,316,316,15,1,
,,,,,,,,,,,,,,,,,,5d82d28977546f00166ae702,2020-11-27_10h05.00.631,lexical_decision_task_MP_exp2,2020.2.5,Win32,60,,z,1,0.562895,,,,,,,,0.562895,1,,,,,,286,NW,"ID",33,reldon,RELDON,z,,,,,,0.749166711,0.119999989,0,0,0,,0,317,317,285,1,
,,,,,,,,,,,,,,,,,,5d82d28977546f00166ae702,2020-11-27_10h05.00.631,lexical_decision_task_MP_exp2,2020.2.5,Win32,60,,m,1,0.49936,,,,,,,,0.49936,1,,,,,,7,WORD,"ID",33,anchor,ANCHOR,m,,,,,,0.749166711,0.119999989,0,0,0,,0,318,318,6,1,
,,,,,,,,,,,,,,,,,,5d82d28977546f00166ae702,2020-11-27_10h05.00.631,lexical_decision_task_MP_exp2,2020.2.5,Win32,60,,m,1,0.63304,,,,,,,,0.63304,1,,,,,,23,WORD,"ID",33,wealth,WEALTH,m,,,,,,0.749166711,0.119999989,0,0,0,,0,319,319,22,1,
,,,,,,,,,,,,,,,,,,5d82d28977546f00166ae702,2020-11-27_10h05.00.631,lexical_decision_task_MP_exp2,2020.2.5,Win32,60,,z,1,0.56679,,,,,,,,0.56679,1,,,,,,255,NW,"ID",33,apight,APIGHT,z,,,,,,0.749166711,0.119999989,0,0,0,,0,320,320,254,1,
,,,,,,,,,,,,,,,,,,5d82d28977546f00166ae702,2020-11-27_10h05.00.631,lexical_decision_task_MP_exp2,2020.2.5,Win32,60,,z,1,0.4331,,,,,,,,0.4331,1,,,,,,394,NW,UN,33,colury,SPAQUX,z,,,,,,0.749166711,0.119999989,0,0,0,,0,321,321,393,1,
,,,,,,,,,,,,,,,,,,5d82d28977546f00166ae702,2020-11-27_10h05.00.631,lexical_decision_task_MP_exp2,2020.2.5,Win32,60,,m,1,0.47073,,,,,,,,0.47073,1,,,,,,80,WORD,"ID",16,family,FAMILY,m,,,,,,0.749166711,0.119999989,0,0,0,,0,322,322,79,1,
,,,,,,,,,,,,,,,,,,5d82d28977546f00166ae702,2020-11-27_10h05.00.631,lexical_decision_task_MP_exp2,2020.2.5,Win32,60,,m,1,0.404195,,,,,,,,0.404195,1,,,,,,11,WORD,"ID",33,cruise,CRUISE,m,,,,,,0.749166711,0.119999989,0,0,0,,0,323,323,10,1,
,,,,,,,,,,,,,,,,,,5d82d28977546f00166ae702,2020-11-27_10h05.00.631,lexical_decision_task_MP_exp2,2020.2.5,Win32,60,,z,1,0.387515,,,,,,,,0.387515,1,,,,,,312,NW,"ID",16,nerawl,NERAWL,z,,,,,,0.749166711,0.119999989,0,0,0,,0,324,324,311,1,
,,,,,,,,,,,,,,,,,,5d82d28977546f00166ae702,2020-11-27_10h05.00.631,lexical_decision_task_MP_exp2,2020.2.5,Win32,60,,z,1,0.4099,,,,,,,,0.4099,1,,,,,,323,NW,"ID",16,rosail,ROSAIL,z,,,,,,0.749166711,0.119999989,0,0,0,,0,325,325,322,1,
,,,,,,,,,,,,,,,,,,5d82d28977546f00166ae702,2020-11-27_10h05.00.631,lexical_decision_task_MP_exp2,2020.2.5,Win32,60,,z,1,0.38256,,,,,,,,0.38256,1,,,,,,340,NW,"ID",16,fiatch,FIATCH,z,,,,,,0.749166711,0.119999989,0,0,0,,0,326,326,339,1,
,,,,,,,,,,,,,,,,,,5d82d28977546f00166ae702,2020-11-27_10h05.00.631,lexical_decision_task_MP_exp2,2020.2.5,Win32,60,,z,1,0.50436,,,,,,,,0.50436,1,,,,,,422,NW,UN,16,streld,ALCOUD,z,,,,,,0.749166711,0.119999989,0,0,0,,0,327,327,421,1,
,,,,,,,,,,,,,,,,,,5d82d28977546f00166ae702,2020-11-27_10h05.00.631,lexical_decision_task_MP_exp2,2020.2.5,Win32,60,,m,1,0.4809,,,,,,,,0.4809,1,,,,,,13,WORD,"ID",33,strive,STRIVE,m,,,,,,0.749166711,0.119999989,0,0,0,,0,328,328,12,1,
,,,,,,,,,,,,,,,,,,5d82d28977546f00166ae702,2020-11-27_10h05.00.631,lexical_decision_task_MP_exp2,2020.2.5,Win32,60,,m,1,0.480815,,,,,,,,0.480815,1,,,,,,65,WORD,"ID",16,symbol,SYMBOL,m,,,,,,0.749166711,0.119999989,0,0,0,,0,329,329,64,1,
,,,,,,,,,,,,,,,,,,5d82d28977546f00166ae702,2020-11-27_10h05.00.631,lexical_decision_task_MP_exp2,2020.2.5,Win32,60,,m,1,0.43731,,,,,,,,0.43731,1,,,,,,8,WORD,"ID",33,abrupt,ABRUPT,m,,,,,,0.749166711,0.119999989,0,0,0,,0,330,330,7,1,
,,,,,,,,,,,,,,,,,,5d82d28977546f00166ae702,2020-11-27_10h05.00.631,lexical_decision_task_MP_exp2,2020.2.5,Win32,60,,z,1,0.48076,,,,,,,,0.48076,1,,,,,,336,NW,"ID",16,ghodus,GHODUS,z,,,,,,0.749166711,0.119999989,0,0,0,,0,331,331,335,1,
,,,,,,,,,,,,,,,,,,5d82d28977546f00166ae702,2020-11-27_10h05.00.631,lexical_decision_task_MP_exp2,2020.2.5,Win32,60,,z,1,0.46489,,,,,,,,0.46489,1,,,,,,367,NW,UN,33,hornal,SLIQUE,z,,,,,,0.749166711,0.119999989,0,0,0,,0,332,332,366,1,
,,,,,,,,,,,,,,,,,,5d82d28977546f00166ae702,2020-11-27_10h05.00.631,lexical_decision_task_MP_exp2,2020.2.5,Win32,60,,z,1,0.44623,,,,,,,,0.44623,1,,,,,,479,NW,UN,16,josted,LOBUSH,z,,,,,,0.749166711,0.119999989,0,0,0,,0,333,333,478,1,
,,,,,,,,,,,,,,,,,,5d82d28977546f00166ae702,2020-11-27_10h05.00.631,lexical_decision_task_MP_exp2,2020.2.5,Win32,60,,m,1,0.5229,,,,,,,,0.5229,1,,,,,,200,WORD,UN,16,admire,BEACON,m,,,,,,0.749166711,0.119999989,0,0,0,,0,334,334,199,1,
,,,,,,,,,,,,,,,,,,5d82d28977546f00166ae702,2020-11-27_10h05.00.631,lexical_decision_task_MP_exp2,2020.2.5,Win32,60,,m,1,0.570305,,,,,,,,0.570305,1,,,,,,82,WORD,"ID",16,stigma,STIGMA,m,,,,,,0.749166711,0.119999989,0,0,0,,0,335,335,81,1,
,,,,,,,,,,,,,,,,,,5d82d28977546f00166ae702,2020-11-27_10h05.00.631,lexical_decision_task_MP_exp2,2020.2.5,Win32,60,,m,1,0.43985,,,,,,,,0.43985,1,,,,,,52,WORD,"ID",33,impose,IMPOSE,m,,,,,,0.749166711,0.119999989,0,0,0,,0,336,336,51,1,
,,,,,,,,,,,,,,,,,,5d82d28977546f00166ae702,2020-11-27_10h05.00.631,lexical_decision_task_MP_exp2,2020.2.5,Win32,60,,m,1,0.40775,,,,,,,,0.40775,1,,,,,,122,WORD,UN,33,strike,LINGER,m,,,,,,0.749166711,0.119999989,0,0,0,,0,337,337,121,1,
,,,,,,,,,,,,,,,,,,5d82d28977546f00166ae702,2020-11-27_10h05.00.631,lexical_decision_task_MP_exp2,2020.2.5,Win32,60,,m,1,0.4028,,,,,,,,0.4028,1,,,,,,72,WORD,"ID",16,bright,BRIGHT,m,,,,,,0.749166711,0.119999989,0,0,0,,0,338,338,71,1,
,,,,,,,,,,,,,,,,,,5d82d28977546f00166ae702,2020-11-27_10h05.00.631,lexical_decision_task_MP_exp2,2020.2.5,Win32,60,,m,1,0.729495,,,,,,,,0.729495,1,,,,,,139,WORD,UN,33,prince,DEBRIS,m,,,,,,0.749166711,0.119999989,0,0,0,,0,339,339,138,1,
,,,,,,,,,,,,,,,,,,5d82d28977546f00166ae702,2020-11-27_10h05.00.631,lexical_decision_task_MP_exp2,2020.2.5,Win32,60,,m,1,0.4648,,,,,,,,0.4648,1,,,,,,186,WORD,UN,16,course,PORTAL,m,,,,,,0.749166711,0.119999989,0,0,0,,0,340,340,185,1,
,,,,,,,,,,,,,,,,,,5d82d28977546f00166ae702,2020-11-27_10h05.00.631,lexical_decision_task_MP_exp2,2020.2.5,Win32,60,,m,1,0.41382,,,,,,,,0.41382,1,,,,,,24,WORD,"ID",33,praise,PRAISE,m,,,,,,0.749166711,0.119999989,0,0,0,,0,341,341,23,1,
,,,,,,,,,,,,,,,,,,5d82d28977546f00166ae702,2020-11-27_10h05.00.631,lexical_decision_task_MP_exp2,2020.2.5,Win32,60,,z,1,0.5416,,,,,,,,0.5416,1,,,,,,313,NW,"ID",16,paurse,PAURSE,z,,,,,,0.749166711,0.119999989,0,0,0,,0,342,342,312,1,
,,,,,,,,,,,,,,,,,,5d82d28977546f00166ae702,2020-11-27_10h05.00.631,lexical_decision_task_MP_exp2,2020.2.5,Win32,60,,m,0,0.53647,,,,,,,,0.53647,0,,,,,,278,NW,"ID",33,unighs,UNIGHS,z,,,,,,0.749166711,0.119999989,0,0,0,,0,343,343,277,1,
,,,,,,,,,,,,,,,,,,5d82d28977546f00166ae702,2020-11-27_10h05.00.631,lexical_decision_task_MP_exp2,2020.2.5,Win32,60,,z,1,0.67316,,,,,,,,0.67316,1,,,,,,311,NW,"ID",16,sproly,SPROLY,z,,,,,,0.749166711,0.119999989,0,0,0,,0,344,344,310,1,
,,,,,,,,,,,,,,,,,,5d82d28977546f00166ae702,2020-11-27_10h05.00.631,lexical_decision_task_MP_exp2,2020.2.5,Win32,60,,m,1,0.64592,,,,,,,,0.64592,1,,,,,,124,WORD,UN,33,nickel,BLOUSE,m,,,,,,0.749166711,0.119999989,0,0,0,,0,345,345,123,1,
,,,,,,,,,,,,,,,,,,5d82d28977546f00166ae702,2020-11-27_10h05.00.631,lexical_decision_task_MP_exp2,2020.2.5,Win32,60,,z,1,0.52373,,,,,,,,0.52373,1,,,,,,296,NW,"ID",33,beinch,BEINCH,z,,,,,,0.749166711,0.119999989,0,0,0,,0,346,346,295,1,
,,,,,,,,,,,,,,,,,,5d82d28977546f00166ae702,2020-11-27_10h05.00.631,lexical_decision_task_MP_exp2,2020.2.5,Win32,60,,m,1,0.448505,,,,,,,,0.448505,1,,,,,,53,WORD,"ID",33,police,POLICE,m,,,,,,0.749166711,0.119999989,0,0,0,,0,347,347,52,1,
,,,,,,,,,,,,,,,,,,5d82d28977546f00166ae702,2020-11-27_10h05.00.631,lexical_decision_task_MP_exp2,2020.2.5,Win32,60,,z,1,0.52053,,,,,,,,0.52053,1,,,,,,241,NW,"ID",33,smenco,SMENCO,z,,,,,,0.749166711,0.119999989,0,0,0,,0,348,348,240,1,
,,,,,,,,,,,,,,,,,,5d82d28977546f00166ae702,2020-11-27_10h05.00.631,lexical_decision_task_MP_exp2,2020.2.5,Win32,60,,m,1,0.552435,,,,,,,,0.552435,1,,,,,,98,WORD,"ID",16,belong,BELONG,m,,,,,,0.749166711,0.119999989,0,0,0,,0,349,349,97,1,
,,,,,,,,,,,,,,,,,,5d82d28977546f00166ae702,2020-11-27_10h05.00.631,lexical_decision_task_MP_exp2,2020.2.5,Win32,60,,z,1,0.729675,,,,,,,,0.729675,1,,,,,,358,NW,"ID",16,fleack,FLEACK,z,,,,,,0.749166711,0.119999989,0,0,0,,0,350,350,357,1,
,,,,,,,,,,,,,,,,,,5d82d28977546f00166ae702,2020-11-27_10h05.00.631,lexical_decision_task_MP_exp2,2020.2.5,Win32,60,,z,1,0.58512,,,,,,,,0.58512,1,,,,,,383,NW,UN,33,guesco,AUNGRE,z,,,,,,0.749166711,0.119999989,0,0,0,,0,351,351,382,1,
,,,,,,,,,,,,,,,,,,5d82d28977546f00166ae702,2020-11-27_10h05.00.631,lexical_decision_task_MP_exp2,2020.2.5,Win32,60,,z,1,0.57125,,,,,,,,0.57125,1,,,,,,398,NW,UN,33,fouret,BLUNDE,z,,,,,,0.749166711,0.119999989,0,0,0,,0,352,352,397,1,
,,,,,,,,,,,,,,,,,,5d82d28977546f00166ae702,2020-11-27_10h05.00.631,lexical_decision_task_MP_exp2,2020.2.5,Win32,60,,m,1,0.56294,,,,,,,,0.56294,1,,,,,,237,WORD,UN,16,seldom,POSTER,m,,,,,,0.749166711,0.119999989,0,0,0,,0,353,353,236,1,
,,,,,,,,,,,,,,,,,,5d82d28977546f00166ae702,2020-11-27_10h05.00.631,lexical_decision_task_MP_exp2,2020.2.5,Win32,60,,z,1,0.58208,,,,,,,,0.58208,1,,,,,,445,NW,UN,16,runamo,MINKEL,z,,,,,,0.749166711,0.119999989,0,0,0,,0,354,354,444,1,
,,,,,,,,,,,,,,,,,,5d82d28977546f00166ae702,2020-11-27_10h05.00.631,lexical_decision_task_MP_exp2,2020.2.5,Win32,60,,z,1,0.60008,,,,,,,,0.60008,1,,,,,,416,NW,UN,33,earoud,PATHEL,z,,,,,,0.749166711,0.119999989,0,0,0,,0,355,355,415,1,
,,,,,,,,,,,,,,,,,,5d82d28977546f00166ae702,2020-11-27_10h05.00.631,lexical_decision_task_MP_exp2,2020.2.5,Win32,60,,m,1,0.548175,,,,,,,,0.548175,1,,,,,,238,WORD,UN,16,grumpy,FLOWER,m,,,,,,0.749166711,0.119999989,0,0,0,,0,356,356,237,1,
,,,,,,,,,,,,,,,,,,5d82d28977546f00166ae702,2020-11-27_10h05.00.631,lexical_decision_task_MP_exp2,2020.2.5,Win32,60,,m,1,0.58034,,,,,,,,0.58034,1,,,,,,159,WORD,UN,33,violet,DETAIL,m,,,,,,0.749166711,0.119999989,0,0,0,,0,357,357,158,1,
,,,,,,,,,,,,,,,,,,5d82d28977546f00166ae702,2020-11-27_10h05.00.631,lexical_decision_task_MP_exp2,2020.2.5,Win32,60,,z,1,0.464895,,,,,,,,0.464895,1,,,,,,452,NW,UN,16,bolvis,SURDEN,z,,,,,,0.749166711,0.119999989,0,0,0,,0,358,358,451,1,
,,,,,,,,,,,,,,,,,,5d82d28977546f00166ae702,2020-11-27_10h05.00.631,lexical_decision_task_MP_exp2,2020.2.5,Win32,60,,z,1,0.51923,,,,,,,,0.51923,1,,,,,,337,NW,"ID",16,rejols,REJOLS,z,,,,,,0.749166711,0.119999989,0,0,0,,0,359,359,336,1,
,,,,,,,,,,,,,,,,,,5d82d28977546f00166ae702,2020-11-27_10h05.00.631,lexical_decision_task_MP_exp2,2020.2.5,Win32,60,,m,1,0.48212,,,,,,,,0.48212,1,,,,,,54,WORD,"ID",33,ramble,RAMBLE,m,,,,,,0.749166711,0.119999989,0,0,0,,0,360,360,53,1,
,,,,,,,,,,,,,,,,,,5d82d28977546f00166ae702,2020-11-27_10h05.00.631,lexical_decision_task_MP_exp2,2020.2.5,Win32,60,,z,0,0.39868,,,,,,,,0.39868,0,,,,,,129,WORD,UN,33,stupid,MARVEL,m,,,,,,0.749166711,0.119999989,0,0,0,,0,361,361,128,1,
,,,,,,,,,,,,,,,,,,5d82d28977546f00166ae702,2020-11-27_10h05.00.631,lexical_decision_task_MP_exp2,2020.2.5,Win32,60,,m,1,0.44785,,,,,,,,0.44785,1,,,,,,149,WORD,UN,33,random,INVADE,m,,,,,,0.749166711,0.119999989,0,0,0,space,0,362,362,148,1,102.559705
,,,,,,,,,,,,,,,,,,5d82d28977546f00166ae702,2020-11-27_10h05.00.631,lexical_decision_task_MP_exp2,2020.2.5,Win32,60,,z,1,0.578615,,,,,,,,0.578615,1,,,,,,249,NW,"ID",33,batrol,BATROL,z,,,,,,0.749166711,0.119999989,0,0,0,,0,363,363,248,1,
,,,,,,,,,,,,,,,,,,5d82d28977546f00166ae702,2020-11-27_10h05.00.631,lexical_decision_task_MP_exp2,2020.2.5,Win32,60,,m,1,0.52986,,,,,,,,0.52986,1,,,,,,173,WORD,UN,33,turkey,SHOWER,m,,,,,,0.749166711,0.119999989,0,0,0,,0,364,364,172,1,
,,,,,,,,,,,,,,,,,,5d82d28977546f00166ae702,2020-11-27_10h05.00.631,lexical_decision_task_MP_exp2,2020.2.5,Win32,60,,z,1,0.48225,,,,,,,,0.48225,1,,,,,,300,NW,"ID",33,yarion,YARION,z,,,,,,0.749166711,0.119999989,0,0,0,,0,365,365,299,1,
,,,,,,,,,,,,,,,,,,5d82d28977546f00166ae702,2020-11-27_10h05.00.631,lexical_decision_task_MP_exp2,2020.2.5,Win32,60,,m,1,0.44795,,,,,,,,0.44795,1,,,,,,93,WORD,"ID",16,public,PUBLIC,m,,,,,,0.749166711,0.119999989,0,0,0,,0,366,366,92,1,
,,,,,,,,,,,,,,,,,,5d82d28977546f00166ae702,2020-11-27_10h05.00.631,lexical_decision_task_MP_exp2,2020.2.5,Win32,60,,m,1,0.40198,,,,,,,,0.40198,1,,,,,,43,WORD,"ID",33,tongue,TONGUE,m,,,,,,0.749166711,0.119999989,0,0,0,,0,367,367,42,1,
,,,,,,,,,,,,,,,,,,5d82d28977546f00166ae702,2020-11-27_10h05.00.631,lexical_decision_task_MP_exp2,2020.2.5,Win32,60,,z,1,0.6827,,,,,,,,0.6827,1,,,,,,402,NW,UN,33,bruats,SYNTIC,z,,,,,,0.749166711,0.119999989,0,0,0,,0,368,368,401,1,
,,,,,,,,,,,,,,,,,,5d82d28977546f00166ae702,2020-11-27_10h05.00.631,lexical_decision_task_MP_exp2,2020.2.5,Win32,60,,z,1,0.69841,,,,,,,,0.69841,1,,,,,,363,NW,UN,33,impote,BREALI,z,,,,,,0.749166711,0.119999989,0,0,0,,0,369,369,362,1,
,,,,,,,,,,,,,,,,,,5d82d28977546f00166ae702,2020-11-27_10h05.00.631,lexical_decision_task_MP_exp2,2020.2.5,Win32,60,,m,1,0.516745,,,,,,,,0.516745,1,,,,,,120,WORD,"ID",16,strain,STRAIN,m,,,,,,0.749166711,0.119999989,0,0,0,,0,370,370,119,1,
,,,,,,,,,,,,,,,,,,5d82d28977546f00166ae702,2020-11-27_10h05.00.631,lexical_decision_task_MP_exp2,2020.2.5,Win32,60,,m,1,0.583165,,,,,,,,0.583165,1,,,,,,29,WORD,"ID",33,sketch,SKETCH,m,,,,,,0.749166711,0.119999989,0,0,0,,0,371,371,28,1,
,,,,,,,,,,,,,,,,,,5d82d28977546f00166ae702,2020-11-27_10h05.00.631,lexical_decision_task_MP_exp2,2020.2.5,Win32,60,,z,1,0.55171,,,,,,,,0.55171,1,,,,,,457,NW,UN,16,barcet,WANIGH,z,,,,,,0.749166711,0.119999989,0,0,0,,0,372,372,456,1,
,,,,,,,,,,,,,,,,,,5d82d28977546f00166ae702,2020-11-27_10h05.00.631,lexical_decision_task_MP_exp2,2020.2.5,Win32,60,,m,1,0.48698,,,,,,,,0.48698,1,,,,,,203,WORD,UN,16,burden,PHRASE,m,,,,,,0.749166711,0.119999989,0,0,0,,0,373,373,202,1,
,,,,,,,,,,,,,,,,,,5d82d28977546f00166ae702,2020-11-27_10h05.00.631,lexical_decision_task_MP_exp2,2020.2.5,Win32,60,,m,1,0.45241,,,,,,,,0.45241,1,,,,,,205,WORD,UN,16,tailor,LOUNGE,m,,,,,,0.749166711,0.119999989,0,0,0,,0,374,374,204,1,
,,,,,,,,,,,,,,,,,,5d82d28977546f00166ae702,2020-11-27_10h05.00.631,lexical_decision_task_MP_exp2,2020.2.5,Win32,60,,z,1,0.57192,,,,,,,,0.57192,1,,,,,,409,NW,UN,33,tunory,ELOPIA,z,,,,,,0.749166711,0.119999989,0,0,0,,0,375,375,408,1,
,,,,,,,,,,,,,,,,,,5d82d28977546f00166ae702,2020-11-27_10h05.00.631,lexical_decision_task_MP_exp2,2020.2.5,Win32,60,,m,1,0.498965,,,,,,,,0.498965,1,,,,,,61,WORD,"ID",16,ponder,PONDER,m,,,,,,0.749166711,0.119999989,0,0,0,,0,376,376,60,1,
,,,,,,,,,,,,,,,,,,5d82d28977546f00166ae702,2020-11-27_10h05.00.631,lexical_decision_task_MP_exp2,2020.2.5,Win32,60,,z,1,0.55137,,,,,,,,0.55137,1,,,,,,328,NW,"ID",16,broake,BROAKE,z,,,,,,0.749166711,0.119999989,0,0,0,,0,377,377,327,1,
,,,,,,,,,,,,,,,,,,5d82d28977546f00166ae702,2020-11-27_10h05.00.631,lexical_decision_task_MP_exp2,2020.2.5,Win32,60,,m,1,0.4991,,,,,,,,0.4991,1,,,,,,46,WORD,"ID",33,single,SINGLE,m,,,,,,0.749166711,0.119999989,0,0,0,,0,378,378,45,1,
,,,,,,,,,,,,,,,,,,5d82d28977546f00166ae702,2020-11-27_10h05.00.631,lexical_decision_task_MP_exp2,2020.2.5,Win32,60,,m,1,0.41614,,,,,,,,0.41614,1,,,,,,137,WORD,UN,33,melody,FINGER,m,,,,,,0.749166711,0.119999989,0,0,0,,0,379,379,136,1,
,,,,,,,,,,,,,,,,,,5d82d28977546f00166ae702,2020-11-27_10h05.00.631,lexical_decision_task_MP_exp2,2020.2.5,Win32,60,,m,0,0.414245,,,,,,,,0.414245,0,,,,,,316,NW,"ID",16,scregm,SCREGM,z,,,,,,0.749166711,0.119999989,0,0,0,,0,380,380,315,1,
,,,,,,,,,,,,,,,,,,5d82d28977546f00166ae702,2020-11-27_10h05.00.631,lexical_decision_task_MP_exp2,2020.2.5,Win32,60,,m,1,0.695925,,,,,,,,0.695925,1,,,,,,204,WORD,UN,16,lounge,BURDEN,m,,,,,,0.749166711,0.119999989,0,0,0,,0,381,381,203,1,
,,,,,,,,,,,,,,,,,,5d82d28977546f00166ae702,2020-11-27_10h05.00.631,lexical_decision_task_MP_exp2,2020.2.5,Win32,60,,m,1,0.63501,,,,,,,,0.63501,1,,,,,,68,WORD,"ID",16,fumble,FUMBLE,m,,,,,,0.749166711,0.119999989,0,0,0,,0,382,382,67,1,
,,,,,,,,,,,,,,,,,,5d82d28977546f00166ae702,2020-11-27_10h05.00.631,lexical_decision_task_MP_exp2,2020.2.5,Win32,60,,z,1,0.56873,,,,,,,,0.56873,1,,,,,,245,NW,"ID",33,anougs,ANOUGS,z,,,,,,0.749166711,0.119999989,0,0,0,,0,383,383,244,1,
,,,,,,,,,,,,,,,,,,5d82d28977546f00166ae702,2020-11-27_10h05.00.631,lexical_decision_task_MP_exp2,2020.2.5,Win32,60,,z,1,0.497515,,,,,,,,0.497515,1,,,,,,468,NW,UN,16,padifs,WICTOR,z,,,,,,0.749166711,0.119999989,0,0,0,,0,384,384,467,1,
,,,,,,,,,,,,,,,,,,5d82d28977546f00166ae702,2020-11-27_10h05.00.631,lexical_decision_task_MP_exp2,2020.2.5,Win32,60,,z,1,0.581975,,,,,,,,0.581975,1,,,,,,269,NW,"ID",33,orchet,ORCHET,z,,,,,,0.749166711,0.119999989,0,0,0,,0,385,385,268,1,
,,,,,,,,,,,,,,,,,,5d82d28977546f00166ae702,2020-11-27_10h05.00.631,lexical_decision_task_MP_exp2,2020.2.5,Win32,60,,m,1,0.50223,,,,,,,,0.50223,1,,,,,,96,WORD,"ID",16,ignore,IGNORE,m,,,,,,0.749166711,0.119999989,0,0,0,,0,386,386,95,1,
,,,,,,,,,,,,,,,,,,5d82d28977546f00166ae702,2020-11-27_10h05.00.631,lexical_decision_task_MP_exp2,2020.2.5,Win32,60,,z,1,0.7284,,,,,,,,0.7284,1,,,,,,432,NW,UN,16,drance,LUNKER,z,,,,,,0.749166711,0.119999989,0,0,0,,0,387,387,431,1,
,,,,,,,,,,,,,,,,,,5d82d28977546f00166ae702,2020-11-27_10h05.00.631,lexical_decision_task_MP_exp2,2020.2.5,Win32,60,,z,1,0.5174,,,,,,,,0.5174,1,,,,,,392,NW,UN,33,ganous,ROUNCY,z,,,,,,0.749166711,0.119999989,0,0,0,,0,388,388,391,1,
,,,,,,,,,,,,,,,,,,5d82d28977546f00166ae702,2020-11-27_10h05.00.631,lexical_decision_task_MP_exp2,2020.2.5,Win32,60,,m,1,0.64793,,,,,,,,0.64793,1,,,,,,160,WORD,UN,33,dragon,VIOLET,m,,,,,,0.749166711,0.119999989,0,0,0,,0,389,389,159,1,
,,,,,,,,,,,,,,,,,,5d82d28977546f00166ae702,2020-11-27_10h05.00.631,lexical_decision_task_MP_exp2,2020.2.5,Win32,60,,m,1,0.61256,,,,,,,,0.61256,1,,,,,,26,WORD,"ID",33,sprint,SPRINT,m,,,,,,0.749166711,0.119999989,0,0,0,,0,390,390,25,1,
,,,,,,,,,,,,,,,,,,5d82d28977546f00166ae702,2020-11-27_10h05.00.631,lexical_decision_task_MP_exp2,2020.2.5,Win32,60,,z,1,0.51889,,,,,,,,0.51889,1,,,,,,280,NW,"ID",33,curbol,CURBOL,z,,,,,,0.749166711,0.119999989,0,0,0,,0,391,391,279,1,
,,,,,,,,,,,,,,,,,,5d82d28977546f00166ae702,2020-11-27_10h05.00.631,lexical_decision_task_MP_exp2,2020.2.5,Win32,60,,m,1,0.64836,,,,,,,,0.64836,1,,,,,,36,WORD,"ID",33,vanish,VANISH,m,,,,,,0.749166711,0.119999989,0,0,0,,0,392,392,35,1,
,,,,,,,,,,,,,,,,,,5d82d28977546f00166ae702,2020-11-27_10h05.00.631,lexical_decision_task_MP_exp2,2020.2.5,Win32,60,,m,1,0.46305,,,,,,,,0.46305,1,,,,,,155,WORD,UN,33,cradle,LIZARD,m,,,,,,0.749166711,0.119999989,0,0,0,,0,393,393,154,1,
,,,,,,,,,,,,,,,,,,5d82d28977546f00166ae702,2020-11-27_10h05.00.631,lexical_decision_task_MP_exp2,2020.2.5,Win32,60,,z,1,0.45146,,,,,,,,0.45146,1,,,,,,251,NW,"ID",33,lupict,LUPICT,z,,,,,,0.749166711,0.119999989,0,0,0,,0,394,394,250,1,
