counterbalancing_condition,instr_done_keyboard.keys,instr_done_keyboard.rt,instr_done_touch.x,instr_done_touch.y,instr_done_touch.leftButton,instr_done_touch.midButton,instr_done_touch.rightButton,instruction_pages.thisRepN,instruction_pages.thisTrialN,instruction_pages.thisN,instruction_pages.thisIndex,instruction_pages.ran,pageN,phase,instruct_text,has_image,instruct_image,participant,date,expName,psychopyVersion,OS,frameRate,response.keys,response.corr,touch_resp.x,touch_resp.y,touch_resp.leftButton,touch_resp.midButton,touch_resp.rightButton,touch_resp.time,touch_resp.clicked_name,rt,corr,practice_trials.thisRepN,practice_trials.thisTrialN,practice_trials.thisN,practice_trials.thisIndex,practice_trials.ran,TrialID,StimulusType,Condition,PrimeDuration,Prime,Target,corrAns,response.rt,instr_done_touch.clicked_name,end_of_practice_trials_pages.thisRepN,end_of_practice_trials_pages.thisTrialN,end_of_practice_trials_pages.thisN,end_of_practice_trials_pages.thisIndex,end_of_practice_trials_pages.ran,break_done_touch.x,break_done_touch.y,break_done_touch.leftButton,break_done_touch.midButton,break_done_touch.rightButton,break_done_keyboard.keys,experiment_trials.thisRepN,experiment_trials.thisTrialN,experiment_trials.thisN,experiment_trials.thisIndex,experiment_trials.ran,break_done_keyboard.rt
0,space,16.954,0.05859375,-0.123697917,0,0,0,0,0,0,0,1,1,instructions,"INSTRUCTIONS
At the start of each trial, look at the hash marks (######) in the center of the screen. After a moment, a string of letters will appear. Your task is to indicate if the letter string forms a word or not (i.e., if it is a nonword). For example, AUTHOR is a word while AUTHON is a nonword.

Press the space bar or touch the button below to continue.",0,,5dc5da21d999de45a504651b,2020-11-27_15h02.54.057,lexical_decision_task_MP_exp2,2020.2.5,Win32,60,,,,,,,,,,,,,,,,,,,,,,,,,,,,,,,,,,,,,,,,,,
,space,19.328,0.3515625,0.015625,0,0,0,0,1,1,1,1,2,instructions,"If your device has a keyboard, press the 'Z' key for nonwords and the 'M' key for words.





Press the space bar or touch the button below to continue.",1,keyboard-example.gif,5dc5da21d999de45a504651b,2020-11-27_15h02.54.057,lexical_decision_task_MP_exp2,2020.2.5,Win32,60,,,,,,,,,,,,,,,,,,,,,,,,,,,,,,,,,,,,,,,,,,
,space,7.179,0.3515625,0.015625,0,0,0,0,2,2,2,1,3,instructions,"If you are using a touchscreen only device, use the buttons on the screen. Do not use the mouse.





Press the space bar or touch the button below to continue.",1,touchscreen-example.gif,5dc5da21d999de45a504651b,2020-11-27_15h02.54.057,lexical_decision_task_MP_exp2,2020.2.5,Win32,60,,,,,,,,,,,,,,,,,,,,,,,,,,,,,,,,,,,,,,,,,,
,space,17.929,0.3515625,0.015625,0,0,0,0,3,3,3,1,4,instructions,"It is very important that you respond as quickly and accurately as possible, as each letter string will only be on the screen for two seconds. If you do not respond within this time, the message 'Too slow!' will be displayed and the experiment will progress to the next letter string. The first 20 trials will be practice trials and you will receive feedback on your answers. 

Press the space bar or touch the button below to start the practice trials.",0,,5dc5da21d999de45a504651b,2020-11-27_15h02.54.057,lexical_decision_task_MP_exp2,2020.2.5,Win32,60,,,,,,,,,,,,,,,,,,,,,,,,,,,,,,,,,,,,,,,,,,
,,,,,,,,,,,,,,,,,,5dc5da21d999de45a504651b,2020-11-27_15h02.54.057,lexical_decision_task_MP_exp2,2020.2.5,Win32,60,,0,,,,,,,,,-1,0,0,0,6,1,1007,WORD,UN,16,tropic,ZOMBIE,m,,,,,,,,,,,,,,,,,,,
,,,,,,,,,,,,,,,,,,5dc5da21d999de45a504651b,2020-11-27_15h02.54.057,lexical_decision_task_MP_exp2,2020.2.5,Win32,60,,0,,,,,,,,,-1,0,1,1,1,1,1002,WORD,"ID",33,adjust,ADJUST,m,,,,,,,,,,,,,,,,,,,
,,,,,,,,,,,,,,,,,,5dc5da21d999de45a504651b,2020-11-27_15h02.54.057,lexical_decision_task_MP_exp2,2020.2.5,Win32,60,z,1,,,,,,,,1.044,1,0,2,2,9,1,1010,NW,"ID",33,fariny,FARINY,z,1.044,,,,,,,,,,,,,,,,,,
,,,,,,,,,,,,,,,,,,5dc5da21d999de45a504651b,2020-11-27_15h02.54.057,lexical_decision_task_MP_exp2,2020.2.5,Win32,60,m,1,,,,,,,,0.764,1,0,3,3,3,1,1004,WORD,"ID",16,matrix,MATRIX,m,0.764,,,,,,,,,,,,,,,,,,
,,,,,,,,,,,,,,,,,,5dc5da21d999de45a504651b,2020-11-27_15h02.54.057,lexical_decision_task_MP_exp2,2020.2.5,Win32,60,z,1,,,,,,,,0.752,1,0,4,4,15,1,1016,NW,UN,16,mushed,WHAISE,z,0.752,,,,,,,,,,,,,,,,,,
,,,,,,,,,,,,,,,,,,5dc5da21d999de45a504651b,2020-11-27_15h02.54.057,lexical_decision_task_MP_exp2,2020.2.5,Win32,60,z,1,,,,,,,,0.907,1,0,5,5,13,1,1014,NW,UN,33,winfer,ROUPET,z,0.907,,,,,,,,,,,,,,,,,,
,,,,,,,,,,,,,,,,,,5dc5da21d999de45a504651b,2020-11-27_15h02.54.057,lexical_decision_task_MP_exp2,2020.2.5,Win32,60,z,1,,,,,,,,0.666,1,0,6,6,12,1,1013,NW,UN,33,adveil,SPRINY,z,0.666,,,,,,,,,,,,,,,,,,
,,,,,,,,,,,,,,,,,,5dc5da21d999de45a504651b,2020-11-27_15h02.54.057,lexical_decision_task_MP_exp2,2020.2.5,Win32,60,m,1,,,,,,,,0.736,1,0,7,7,4,1,1005,WORD,UN,33,abound,SQUEAK,m,0.736,,,,,,,,,,,,,,,,,,
,,,,,,,,,,,,,,,,,,5dc5da21d999de45a504651b,2020-11-27_15h02.54.057,lexical_decision_task_MP_exp2,2020.2.5,Win32,60,m,1,,,,,,,,0.621,1,0,8,8,2,1,1003,WORD,"ID",16,almond,ALMOND,m,0.621,,,,,,,,,,,,,,,,,,
,,,,,,,,,,,,,,,,,,5dc5da21d999de45a504651b,2020-11-27_15h02.54.057,lexical_decision_task_MP_exp2,2020.2.5,Win32,60,z,1,,,,,,,,0.773,1,0,9,9,11,1,1012,NW,"ID",16,rashet,RASHET,z,0.773,,,,,,,,,,,,,,,,,,
,,,,,,,,,,,,,,,,,,5dc5da21d999de45a504651b,2020-11-27_15h02.54.057,lexical_decision_task_MP_exp2,2020.2.5,Win32,60,z,0,,,,,,,,0.768,0,0,10,10,7,1,1008,WORD,UN,16,hurdle,VOLUME,m,0.768,,,,,,,,,,,,,,,,,,
,,,,,,,,,,,,,,,,,,5dc5da21d999de45a504651b,2020-11-27_15h02.54.057,lexical_decision_task_MP_exp2,2020.2.5,Win32,60,m,0,,,,,,,,0.921,0,0,11,11,14,1,1015,NW,UN,16,miaber,THRALE,z,0.921,,,,,,,,,,,,,,,,,,
,,,,,,,,,,,,,,,,,,5dc5da21d999de45a504651b,2020-11-27_15h02.54.057,lexical_decision_task_MP_exp2,2020.2.5,Win32,60,m,0,,,,,,,,1.153,0,0,12,12,8,1,1009,NW,"ID",33,aslert,ASLERT,z,1.153,,,,,,,,,,,,,,,,,,
,,,,,,,,,,,,,,,,,,5dc5da21d999de45a504651b,2020-11-27_15h02.54.057,lexical_decision_task_MP_exp2,2020.2.5,Win32,60,m,1,,,,,,,,1.306,1,0,13,13,0,1,1001,WORD,"ID",33,utopia,UTOPIA,m,1.306,,,,,,,,,,,,,,,,,,
,,,,,,,,,,,,,,,,,,5dc5da21d999de45a504651b,2020-11-27_15h02.54.057,lexical_decision_task_MP_exp2,2020.2.5,Win32,60,z,1,,,,,,,,0.871,1,0,14,14,10,1,1011,NW,"ID",16,inlade,INLADE,z,0.871,,,,,,,,,,,,,,,,,,
,,,,,,,,,,,,,,,,,,5dc5da21d999de45a504651b,2020-11-27_15h02.54.057,lexical_decision_task_MP_exp2,2020.2.5,Win32,60,m,1,,,,,,,,1.199,1,0,15,15,5,1,1006,WORD,UN,33,frenzy,OBTAIN,m,1.199,,,,,,,,,,,,,,,,,,
,,,0.009114583,-0.399739583,1,0,0,,,,,,1,end_of_practice,"You have completed the practice trials. During the experimental trials, you will not receive feedback, but it is very important that you respond as quickly and accurately as possible. 
Before you begin, please ensure that you are in a comfortable and quiet location and will not be disturbed for about 15 minutes, as we cannot use your data if you do not complete all the trials. 
There will be opportunities to take breaks at regular intervals during the experiment. When you are ready to start the experimental trials, please press space or touch the button below.",,,5dc5da21d999de45a504651b,2020-11-27_15h02.54.057,lexical_decision_task_MP_exp2,2020.2.5,Win32,60,,,,,,,,,,,,,,,,,,,,,,,,,instr_done_button,0,0,0,0,1,,,,,,,,,,,,
,,,,,,,,,,,,,,,,,,5dc5da21d999de45a504651b,2020-11-27_15h02.54.057,lexical_decision_task_MP_exp2,2020.2.5,Win32,60,m,0,,,,,,,,0.922,0,,,,,,418,NW,UN,16,slount,SUIDLE,z,0.922,,,,,,,0.009114583,-0.399739583,0,0,0,,0,0,0,477,1,
,,,,,,,,,,,,,,,,,,5dc5da21d999de45a504651b,2020-11-27_15h02.54.057,lexical_decision_task_MP_exp2,2020.2.5,Win32,60,z,1,,,,,,,,1.055,1,,,,,,384,NW,UN,16,injore,GUESCO,z,1.055,,,,,,,0.009114583,-0.399739583,0,0,0,,0,1,1,443,1,
,,,,,,,,,,,,,,,,,,5dc5da21d999de45a504651b,2020-11-27_15h02.54.057,lexical_decision_task_MP_exp2,2020.2.5,Win32,60,z,1,,,,,,,,1.006,1,,,,,,305,NW,UN,33,sounge,FORGLE,z,1.006,,,,,,,0.009114583,-0.399739583,0,0,0,,0,2,2,364,1,
,,,,,,,,,,,,,,,,,,5dc5da21d999de45a504651b,2020-11-27_15h02.54.057,lexical_decision_task_MP_exp2,2020.2.5,Win32,60,z,1,,,,,,,,0.818,1,,,,,,359,NW,UN,33,desory,FONVER,z,0.818,,,,,,,0.009114583,-0.399739583,0,0,0,,0,3,3,418,1,
,,,,,,,,,,,,,,,,,,5dc5da21d999de45a504651b,2020-11-27_15h02.54.057,lexical_decision_task_MP_exp2,2020.2.5,Win32,60,m,0,,,,,,,,0.974,0,,,,,,299,NW,"ID",16,sturch,STURCH,z,0.974,,,,,,,0.009114583,-0.399739583,0,0,0,,0,4,4,358,1,
,,,,,,,,,,,,,,,,,,5dc5da21d999de45a504651b,2020-11-27_15h02.54.057,lexical_decision_task_MP_exp2,2020.2.5,Win32,60,m,1,,,,,,,,1.213,1,,,,,,96,WORD,UN,33,client,IGNORE,m,1.213,,,,,,,0.009114583,-0.399739583,0,0,0,,0,5,5,155,1,
,,,,,,,,,,,,,,,,,,5dc5da21d999de45a504651b,2020-11-27_15h02.54.057,lexical_decision_task_MP_exp2,2020.2.5,Win32,60,z,1,,,,,,,,0.754,1,,,,,,274,NW,"ID",16,fumblo,FUMBLO,z,0.754,,,,,,,0.009114583,-0.399739583,0,0,0,,0,6,6,333,1,
,,,,,,,,,,,,,,,,,,5dc5da21d999de45a504651b,2020-11-27_15h02.54.057,lexical_decision_task_MP_exp2,2020.2.5,Win32,60,m,1,,,,,,,,0.785,1,,,,,,146,WORD,UN,16,garlic,COUPLE,m,0.785,,,,,,,0.009114583,-0.399739583,0,0,0,,0,7,7,205,1,
,,,,,,,,,,,,,,,,,,5dc5da21d999de45a504651b,2020-11-27_15h02.54.057,lexical_decision_task_MP_exp2,2020.2.5,Win32,60,m,1,,,,,,,,0.614,1,,,,,,188,WORD,"ID",33,social,SOCIAL,m,0.614,,,,,,,0.009114583,-0.399739583,0,0,0,,0,8,8,7,1,
,,,,,,,,,,,,,,,,,,5dc5da21d999de45a504651b,2020-11-27_15h02.54.057,lexical_decision_task_MP_exp2,2020.2.5,Win32,60,m,1,,,,,,,,0.815,1,,,,,,183,WORD,"ID",33,mildew,MILDEW,m,0.815,,,,,,,0.009114583,-0.399739583,0,0,0,,0,9,9,2,1,
,,,,,,,,,,,,,,,,,,5dc5da21d999de45a504651b,2020-11-27_15h02.54.057,lexical_decision_task_MP_exp2,2020.2.5,Win32,60,m,1,,,,,,,,0.552,1,,,,,,38,WORD,"ID",16,powder,POWDER,m,0.552,,,,,,,0.009114583,-0.399739583,0,0,0,,0,10,10,97,1,
,,,,,,,,,,,,,,,,,,5dc5da21d999de45a504651b,2020-11-27_15h02.54.057,lexical_decision_task_MP_exp2,2020.2.5,Win32,60,m,1,,,,,,,,0.847,1,,,,,,142,WORD,UN,16,reason,SPRUCE,m,0.847,,,,,,,0.009114583,-0.399739583,0,0,0,,0,11,11,201,1,
,,,,,,,,,,,,,,,,,,5dc5da21d999de45a504651b,2020-11-27_15h02.54.057,lexical_decision_task_MP_exp2,2020.2.5,Win32,60,m,1,,,,,,,,0.606,1,,,,,,58,WORD,"ID",16,foster,FOSTER,m,0.606,,,,,,,0.009114583,-0.399739583,0,0,0,,0,12,12,117,1,
,,,,,,,,,,,,,,,,,,5dc5da21d999de45a504651b,2020-11-27_15h02.54.057,lexical_decision_task_MP_exp2,2020.2.5,Win32,60,m,1,,,,,,,,0.595,1,,,,,,136,WORD,UN,16,finger,BLEACH,m,0.595,,,,,,,0.009114583,-0.399739583,0,0,0,,0,13,13,195,1,
,,,,,,,,,,,,,,,,,,5dc5da21d999de45a504651b,2020-11-27_15h02.54.057,lexical_decision_task_MP_exp2,2020.2.5,Win32,60,m,1,,,,,,,,0.735,1,,,,,,66,WORD,UN,33,policy,GOSPEL,m,0.735,,,,,,,0.009114583,-0.399739583,0,0,0,,0,14,14,125,1,
,,,,,,,,,,,,,,,,,,5dc5da21d999de45a504651b,2020-11-27_15h02.54.057,lexical_decision_task_MP_exp2,2020.2.5,Win32,60,m,1,,,,,,,,0.644,1,,,,,,177,WORD,UN,16,inform,ADVENT,m,0.644,,,,,,,0.009114583,-0.399739583,0,0,0,,0,15,15,236,1,
,,,,,,,,,,,,,,,,,,5dc5da21d999de45a504651b,2020-11-27_15h02.54.057,lexical_decision_task_MP_exp2,2020.2.5,Win32,60,z,1,,,,,,,,0.721,1,,,,,,258,NW,"ID",16,poluth,POLUTH,z,0.721,,,,,,,0.009114583,-0.399739583,0,0,0,,0,16,16,317,1,
,,,,,,,,,,,,,,,,,,5dc5da21d999de45a504651b,2020-11-27_15h02.54.057,lexical_decision_task_MP_exp2,2020.2.5,Win32,60,m,0,,,,,,,,0.636,0,,,,,,350,NW,UN,33,tiesch,NAGURS,z,0.636,,,,,,,0.009114583,-0.399739583,0,0,0,,0,17,17,409,1,
,,,,,,,,,,,,,,,,,,5dc5da21d999de45a504651b,2020-11-27_15h02.54.057,lexical_decision_task_MP_exp2,2020.2.5,Win32,60,z,1,,,,,,,,1.018,1,,,,,,306,NW,UN,33,kirafe,SOUNGE,z,1.018,,,,,,,0.009114583,-0.399739583,0,0,0,,0,18,18,365,1,
,,,,,,,,,,,,,,,,,,5dc5da21d999de45a504651b,2020-11-27_15h02.54.057,lexical_decision_task_MP_exp2,2020.2.5,Win32,60,z,1,,,,,,,,0.784,1,,,,,,347,NW,UN,33,dumple,KERIFT,z,0.784,,,,,,,0.009114583,-0.399739583,0,0,0,,0,19,19,406,1,
,,,,,,,,,,,,,,,,,,5dc5da21d999de45a504651b,2020-11-27_15h02.54.057,lexical_decision_task_MP_exp2,2020.2.5,Win32,60,m,1,,,,,,,,0.782,1,,,,,,111,WORD,UN,33,breath,INDUCE,m,0.782,,,,,,,0.009114583,-0.399739583,0,0,0,,0,20,20,170,1,
,,,,,,,,,,,,,,,,,,5dc5da21d999de45a504651b,2020-11-27_15h02.54.057,lexical_decision_task_MP_exp2,2020.2.5,Win32,60,z,1,,,,,,,,0.696,1,,,,,,383,NW,UN,16,guesco,AUNGRE,z,0.696,,,,,,,0.009114583,-0.399739583,0,0,0,,0,21,21,442,1,
,,,,,,,,,,,,,,,,,,5dc5da21d999de45a504651b,2020-11-27_15h02.54.057,lexical_decision_task_MP_exp2,2020.2.5,Win32,60,z,1,,,,,,,,0.835,1,,,,,,465,NW,"ID",33,whivex,WHIVEX,z,0.835,,,,,,,0.009114583,-0.399739583,0,0,0,,0,22,22,284,1,
,,,,,,,,,,,,,,,,,,5dc5da21d999de45a504651b,2020-11-27_15h02.54.057,lexical_decision_task_MP_exp2,2020.2.5,Win32,60,m,1,,,,,,,,0.703,1,,,,,,69,WORD,UN,33,square,PLENTY,m,0.703,,,,,,,0.009114583,-0.399739583,0,0,0,,0,23,23,128,1,
,,,,,,,,,,,,,,,,,,5dc5da21d999de45a504651b,2020-11-27_15h02.54.057,lexical_decision_task_MP_exp2,2020.2.5,Win32,60,z,0,,,,,,,,0.924,0,,,,,,40,WORD,"ID",16,convey,CONVEY,m,0.924,,,,,,,0.009114583,-0.399739583,0,0,0,,0,24,24,99,1,
,,,,,,,,,,,,,,,,,,5dc5da21d999de45a504651b,2020-11-27_15h02.54.057,lexical_decision_task_MP_exp2,2020.2.5,Win32,60,z,1,,,,,,,,0.863,1,,,,,,386,NW,UN,16,gronce,ANCUST,z,0.863,,,,,,,0.009114583,-0.399739583,0,0,0,,0,25,25,445,1,
,,,,,,,,,,,,,,,,,,5dc5da21d999de45a504651b,2020-11-27_15h02.54.057,lexical_decision_task_MP_exp2,2020.2.5,Win32,60,m,1,,,,,,,,0.736,1,,,,,,140,WORD,UN,16,chrome,PRINCE,m,0.736,,,,,,,0.009114583,-0.399739583,0,0,0,,0,26,26,199,1,
,,,,,,,,,,,,,,,,,,5dc5da21d999de45a504651b,2020-11-27_15h02.54.057,lexical_decision_task_MP_exp2,2020.2.5,Win32,60,m,1,,,,,,,,0.942,1,,,,,,16,WORD,"ID",16,faucet,FAUCET,m,0.942,,,,,,,0.009114583,-0.399739583,0,0,0,,0,27,27,75,1,
,,,,,,,,,,,,,,,,,,5dc5da21d999de45a504651b,2020-11-27_15h02.54.057,lexical_decision_task_MP_exp2,2020.2.5,Win32,60,m,1,,,,,,,,0.593,1,,,,,,83,WORD,UN,33,mortal,RESULT,m,0.593,,,,,,,0.009114583,-0.399739583,0,0,0,,0,28,28,142,1,
,,,,,,,,,,,,,,,,,,5dc5da21d999de45a504651b,2020-11-27_15h02.54.057,lexical_decision_task_MP_exp2,2020.2.5,Win32,60,z,1,,,,,,,,0.788,1,,,,,,307,NW,UN,33,psetch,KIRAFE,z,0.788,,,,,,,0.009114583,-0.399739583,0,0,0,,0,29,29,366,1,
,,,,,,,,,,,,,,,,,,5dc5da21d999de45a504651b,2020-11-27_15h02.54.057,lexical_decision_task_MP_exp2,2020.2.5,Win32,60,m,1,,,,,,,,0.655,1,,,,,,18,WORD,"ID",16,humble,HUMBLE,m,0.655,,,,,,,0.009114583,-0.399739583,0,0,0,,0,30,30,77,1,
,,,,,,,,,,,,,,,,,,5dc5da21d999de45a504651b,2020-11-27_15h02.54.057,lexical_decision_task_MP_exp2,2020.2.5,Win32,60,z,1,,,,,,,,0.905,1,,,,,,456,NW,"ID",33,broget,BROGET,z,0.905,,,,,,,0.009114583,-0.399739583,0,0,0,,0,31,31,275,1,
,,,,,,,,,,,,,,,,,,5dc5da21d999de45a504651b,2020-11-27_15h02.54.057,lexical_decision_task_MP_exp2,2020.2.5,Win32,60,m,1,,,,,,,,0.741,1,,,,,,48,WORD,"ID",16,walnut,WALNUT,m,0.741,,,,,,,0.009114583,-0.399739583,0,0,0,,0,32,32,107,1,
,,,,,,,,,,,,,,,,,,5dc5da21d999de45a504651b,2020-11-27_15h02.54.057,lexical_decision_task_MP_exp2,2020.2.5,Win32,60,m,1,,,,,,,,0.658,1,,,,,,101,WORD,UN,33,direct,WRENCH,m,0.658,,,,,,,0.009114583,-0.399739583,0,0,0,,0,33,33,160,1,
,,,,,,,,,,,,,,,,,,5dc5da21d999de45a504651b,2020-11-27_15h02.54.057,lexical_decision_task_MP_exp2,2020.2.5,Win32,60,m,1,,,,,,,,0.834,1,,,,,,200,WORD,"ID",33,beacon,BEACON,m,0.834,,,,,,,0.009114583,-0.399739583,0,0,0,,0,34,34,19,1,
,,,,,,,,,,,,,,,,,,5dc5da21d999de45a504651b,2020-11-27_15h02.54.057,lexical_decision_task_MP_exp2,2020.2.5,Win32,60,z,1,,,,,,,,0.843,1,,,,,,304,NW,UN,33,forgle,CLUDIE,z,0.843,,,,,,,0.009114583,-0.399739583,0,0,0,,0,35,35,363,1,
,,,,,,,,,,,,,,,,,,5dc5da21d999de45a504651b,2020-11-27_15h02.54.057,lexical_decision_task_MP_exp2,2020.2.5,Win32,60,m,1,,,,,,,,0.57,1,,,,,,76,WORD,UN,33,racket,EXOTIC,m,0.57,,,,,,,0.009114583,-0.399739583,0,0,0,,0,36,36,135,1,
,,,,,,,,,,,,,,,,,,5dc5da21d999de45a504651b,2020-11-27_15h02.54.057,lexical_decision_task_MP_exp2,2020.2.5,Win32,60,z,1,,,,,,,,1.389,1,,,,,,438,NW,"ID",33,baitch,BAITCH,z,1.389,,,,,,,0.009114583,-0.399739583,0,0,0,,0,37,37,257,1,
,,,,,,,,,,,,,,,,,,5dc5da21d999de45a504651b,2020-11-27_15h02.54.057,lexical_decision_task_MP_exp2,2020.2.5,Win32,60,m,1,,,,,,,,0.56,1,,,,,,24,WORD,"ID",16,praise,PRAISE,m,0.56,,,,,,,0.009114583,-0.399739583,0,0,0,,0,38,38,83,1,
,,,,,,,,,,,,,,,,,,5dc5da21d999de45a504651b,2020-11-27_15h02.54.057,lexical_decision_task_MP_exp2,2020.2.5,Win32,60,z,1,,,,,,,,1.016,1,,,,,,433,NW,"ID",33,drance,DRANCE,z,1.016,,,,,,,0.009114583,-0.399739583,0,0,0,,0,39,39,252,1,
,,,,,,,,,,,,,,,,,,5dc5da21d999de45a504651b,2020-11-27_15h02.54.057,lexical_decision_task_MP_exp2,2020.2.5,Win32,60,m,0,,,,,,,,1.03,0,,,,,,263,NW,"ID",16,dolica,DOLICA,z,1.03,,,,,,,0.009114583,-0.399739583,0,0,0,,0,40,40,322,1,
,,,,,,,,,,,,,,,,,,5dc5da21d999de45a504651b,2020-11-27_15h02.54.057,lexical_decision_task_MP_exp2,2020.2.5,Win32,60,m,1,,,,,,,,0.557,1,,,,,,236,WORD,"ID",33,pirate,PIRATE,m,0.557,,,,,,,0.009114583,-0.399739583,0,0,0,,0,41,41,55,1,
,,,,,,,,,,,,,,,,,,5dc5da21d999de45a504651b,2020-11-27_15h02.54.057,lexical_decision_task_MP_exp2,2020.2.5,Win32,60,m,1,,,,,,,,0.574,1,,,,,,204,WORD,"ID",33,burden,BURDEN,m,0.574,,,,,,,0.009114583,-0.399739583,0,0,0,,0,42,42,23,1,
,,,,,,,,,,,,,,,,,,5dc5da21d999de45a504651b,2020-11-27_15h02.54.057,lexical_decision_task_MP_exp2,2020.2.5,Win32,60,m,1,,,,,,,,0.502,1,,,,,,202,WORD,"ID",33,factor,FACTOR,m,0.502,,,,,,,0.009114583,-0.399739583,0,0,0,,0,43,43,21,1,
,,,,,,,,,,,,,,,,,,5dc5da21d999de45a504651b,2020-11-27_15h02.54.057,lexical_decision_task_MP_exp2,2020.2.5,Win32,60,z,1,,,,,,,,0.652,1,,,,,,412,NW,UN,16,equats,JILUER,z,0.652,,,,,,,0.009114583,-0.399739583,0,0,0,,0,44,44,471,1,
,,,,,,,,,,,,,,,,,,5dc5da21d999de45a504651b,2020-11-27_15h02.54.057,lexical_decision_task_MP_exp2,2020.2.5,Win32,60,z,1,,,,,,,,0.894,1,,,,,,468,NW,"ID",33,wictor,WICTOR,z,0.894,,,,,,,0.009114583,-0.399739583,0,0,0,,0,45,45,287,1,
,,,,,,,,,,,,,,,,,,5dc5da21d999de45a504651b,2020-11-27_15h02.54.057,lexical_decision_task_MP_exp2,2020.2.5,Win32,60,z,1,,,,,,,,0.754,1,,,,,,300,NW,"ID",16,yarion,YARION,z,0.754,,,,,,,0.009114583,-0.399739583,0,0,0,,0,46,46,359,1,
,,,,,,,,,,,,,,,,,,5dc5da21d999de45a504651b,2020-11-27_15h02.54.057,lexical_decision_task_MP_exp2,2020.2.5,Win32,60,z,1,,,,,,,,0.762,1,,,,,,405,NW,UN,16,nouply,FLUMNI,z,0.762,,,,,,,0.009114583,-0.399739583,0,0,0,,0,47,47,464,1,
,,,,,,,,,,,,,,,,,,5dc5da21d999de45a504651b,2020-11-27_15h02.54.057,lexical_decision_task_MP_exp2,2020.2.5,Win32,60,z,1,,,,,,,,0.596,1,,,,,,393,NW,UN,16,spaqux,GANOUS,z,0.596,,,,,,,0.009114583,-0.399739583,0,0,0,,0,48,48,452,1,
,,,,,,,,,,,,,,,,,,5dc5da21d999de45a504651b,2020-11-27_15h02.54.057,lexical_decision_task_MP_exp2,2020.2.5,Win32,60,m,1,,,,,,,,0.601,1,,,,,,192,WORD,"ID",33,plague,PLAGUE,m,0.601,,,,,,,0.009114583,-0.399739583,0,0,0,,0,49,49,11,1,
,,,,,,,,,,,,,,,,,,5dc5da21d999de45a504651b,2020-11-27_15h02.54.057,lexical_decision_task_MP_exp2,2020.2.5,Win32,60,z,1,,,,,,,,0.758,1,,,,,,466,NW,"ID",33,hocite,HOCITE,z,0.758,,,,,,,0.009114583,-0.399739583,0,0,0,,0,50,50,285,1,
,,,,,,,,,,,,,,,,,,5dc5da21d999de45a504651b,2020-11-27_15h02.54.057,lexical_decision_task_MP_exp2,2020.2.5,Win32,60,z,1,,,,,,,,0.955,1,,,,,,428,NW,"ID",33,tandly,TANDLY,z,0.955,,,,,,,0.009114583,-0.399739583,0,0,0,,0,51,51,247,1,
,,,,,,,,,,,,,,,,,,5dc5da21d999de45a504651b,2020-11-27_15h02.54.057,lexical_decision_task_MP_exp2,2020.2.5,Win32,60,z,1,,,,,,,,0.765,1,,,,,,273,NW,"ID",16,sortel,SORTEL,z,0.765,,,,,,,0.009114583,-0.399739583,0,0,0,,0,52,52,332,1,
,,,,,,,,,,,,,,,,,,5dc5da21d999de45a504651b,2020-11-27_15h02.54.057,lexical_decision_task_MP_exp2,2020.2.5,Win32,60,z,1,,,,,,,,0.635,1,,,,,,475,NW,"ID",33,pebric,PEBRIC,z,0.635,,,,,,,0.009114583,-0.399739583,0,0,0,,0,53,53,294,1,
,,,,,,,,,,,,,,,,,,5dc5da21d999de45a504651b,2020-11-27_15h02.54.057,lexical_decision_task_MP_exp2,2020.2.5,Win32,60,z,1,,,,,,,,0.606,1,,,,,,331,NW,UN,33,vangue,GILFEW,z,0.606,,,,,,,0.009114583,-0.399739583,0,0,0,,0,54,54,390,1,
,,,,,,,,,,,,,,,,,,5dc5da21d999de45a504651b,2020-11-27_15h02.54.057,lexical_decision_task_MP_exp2,2020.2.5,Win32,60,m,1,,,,,,,,0.573,1,,,,,,61,WORD,UN,33,region,PONDER,m,0.573,,,,,,,0.009114583,-0.399739583,0,0,0,,0,55,55,120,1,
,,,,,,,,,,,,,,,,,,5dc5da21d999de45a504651b,2020-11-27_15h02.54.057,lexical_decision_task_MP_exp2,2020.2.5,Win32,60,z,1,,,,,,,,0.685,1,,,,,,459,NW,"ID",33,bafent,BAFENT,z,0.685,,,,,,,0.009114583,-0.399739583,0,0,0,,0,56,56,278,1,
,,,,,,,,,,,,,,,,,,5dc5da21d999de45a504651b,2020-11-27_15h02.54.057,lexical_decision_task_MP_exp2,2020.2.5,Win32,60,z,1,,,,,,,,0.986,1,,,,,,453,NW,"ID",33,bolvis,BOLVIS,z,0.986,,,,,,,0.009114583,-0.399739583,0,0,0,,0,57,57,272,1,
,,,,,,,,,,,,,,,,,,5dc5da21d999de45a504651b,2020-11-27_15h02.54.057,lexical_decision_task_MP_exp2,2020.2.5,Win32,60,z,1,,,,,,,,0.563,1,,,,,,429,NW,"ID",33,funtle,FUNTLE,z,0.563,,,,,,,0.009114583,-0.399739583,0,0,0,,0,58,58,248,1,
,,,,,,,,,,,,,,,,,,5dc5da21d999de45a504651b,2020-11-27_15h02.54.057,lexical_decision_task_MP_exp2,2020.2.5,Win32,60,m,1,,,,,,,,0.629,1,,,,,,131,WORD,UN,16,strong,QUENCH,m,0.629,,,,,,,0.009114583,-0.399739583,0,0,0,,0,59,59,190,1,
,,,,,,,,,,,,,,,,,,5dc5da21d999de45a504651b,2020-11-27_15h02.54.057,lexical_decision_task_MP_exp2,2020.2.5,Win32,60,z,1,,,,,,,,0.645,1,,,,,,387,NW,UN,16,cragin,GRONCE,z,0.645,,,,,,,0.009114583,-0.399739583,0,0,0,,0,60,60,446,1,
,,,,,,,,,,,,,,,,,,5dc5da21d999de45a504651b,2020-11-27_15h02.54.057,lexical_decision_task_MP_exp2,2020.2.5,Win32,60,m,0,,,,,,,,1.406,0,,,,,,357,NW,UN,33,fleack,DERAIN,z,1.406,,,,,,,0.009114583,-0.399739583,0,0,0,,0,61,61,416,1,
,,,,,,,,,,,,,,,,,,5dc5da21d999de45a504651b,2020-11-27_15h02.54.057,lexical_decision_task_MP_exp2,2020.2.5,Win32,60,m,1,,,,,,,,0.669,1,,,,,,230,WORD,"ID",33,fringe,FRINGE,m,0.669,,,,,,,0.009114583,-0.399739583,0,0,0,,0,62,62,49,1,
,,,,,,,,,,,,,,,,,,5dc5da21d999de45a504651b,2020-11-27_15h02.54.057,lexical_decision_task_MP_exp2,2020.2.5,Win32,60,m,1,,,,,,,,0.553,1,,,,,,132,WORD,UN,16,orphan,STRONG,m,0.553,,,,,,,0.009114583,-0.399739583,0,0,0,,0,63,63,191,1,
,,,,,,,,,,,,,,,,,,5dc5da21d999de45a504651b,2020-11-27_15h02.54.057,lexical_decision_task_MP_exp2,2020.2.5,Win32,60,m,1,,,,,,,,0.631,1,,,,,,117,WORD,UN,33,flight,BRANCH,m,0.631,,,,,,,0.009114583,-0.399739583,0,0,0,,0,64,64,176,1,
,,,,,,,,,,,,,,,,,,5dc5da21d999de45a504651b,2020-11-27_15h02.54.057,lexical_decision_task_MP_exp2,2020.2.5,Win32,60,m,1,,,,,,,,0.614,1,,,,,,77,WORD,UN,33,column,RACKET,m,0.614,,,,,,,0.009114583,-0.399739583,0,0,0,,0,65,65,136,1,
,,,,,,,,,,,,,,,,,,5dc5da21d999de45a504651b,2020-11-27_15h02.54.057,lexical_decision_task_MP_exp2,2020.2.5,Win32,60,m,1,,,,,,,,0.604,1,,,,,,197,WORD,"ID",33,stream,STREAM,m,0.604,,,,,,,0.009114583,-0.399739583,0,0,0,,0,66,66,16,1,
,,,,,,,,,,,,,,,,,,5dc5da21d999de45a504651b,2020-11-27_15h02.54.057,lexical_decision_task_MP_exp2,2020.2.5,Win32,60,m,0,,,,,,,,0.69,0,,,,,,298,NW,"ID",16,piergy,PIERGY,z,0.69,,,,,,,0.009114583,-0.399739583,0,0,0,,0,67,67,357,1,
,,,,,,,,,,,,,,,,,,5dc5da21d999de45a504651b,2020-11-27_15h02.54.057,lexical_decision_task_MP_exp2,2020.2.5,Win32,60,z,1,,,,,,,,0.843,1,,,,,,480,NW,"ID",33,robuly,ROBULY,z,0.843,,,,,,,0.009114583,-0.399739583,0,0,0,,0,68,68,299,1,
,,,,,,,,,,,,,,,,,,5dc5da21d999de45a504651b,2020-11-27_15h02.54.057,lexical_decision_task_MP_exp2,2020.2.5,Win32,60,m,1,,,,,,,,0.633,1,,,,,,198,WORD,"ID",33,wicked,WICKED,m,0.633,,,,,,,0.009114583,-0.399739583,0,0,0,,0,69,69,17,1,
,,,,,,,,,,,,,,,,,,5dc5da21d999de45a504651b,2020-11-27_15h02.54.057,lexical_decision_task_MP_exp2,2020.2.5,Win32,60,m,1,,,,,,,,0.649,1,,,,,,19,WORD,"ID",16,patron,PATRON,m,0.649,,,,,,,0.009114583,-0.399739583,0,0,0,,0,70,70,78,1,
,,,,,,,,,,,,,,,,,,5dc5da21d999de45a504651b,2020-11-27_15h02.54.057,lexical_decision_task_MP_exp2,2020.2.5,Win32,60,z,1,,,,,,,,1.465,1,,,,,,451,NW,"ID",33,cainky,CAINKY,z,1.465,,,,,,,0.009114583,-0.399739583,0,0,0,,0,71,71,270,1,
,,,,,,,,,,,,,,,,,,5dc5da21d999de45a504651b,2020-11-27_15h02.54.057,lexical_decision_task_MP_exp2,2020.2.5,Win32,60,z,1,,,,,,,,0.716,1,,,,,,410,NW,UN,16,orchin,TUNORY,z,0.716,,,,,,,0.009114583,-0.399739583,0,0,0,,0,72,72,469,1,
,,,,,,,,,,,,,,,,,,5dc5da21d999de45a504651b,2020-11-27_15h02.54.057,lexical_decision_task_MP_exp2,2020.2.5,Win32,60,m,1,,,,,,,,0.571,1,,,,,,112,WORD,UN,33,chorus,BREATH,m,0.571,,,,,,,0.009114583,-0.399739583,0,0,0,,0,73,73,171,1,
,,,,,,,,,,,,,,,,,,5dc5da21d999de45a504651b,2020-11-27_15h02.54.057,lexical_decision_task_MP_exp2,2020.2.5,Win32,60,m,1,,,,,,,,0.686,1,,,,,,68,WORD,UN,33,plenty,FUMBLE,m,0.686,,,,,,,0.009114583,-0.399739583,0,0,0,,0,74,74,127,1,
,,,,,,,,,,,,,,,,,,5dc5da21d999de45a504651b,2020-11-27_15h02.54.057,lexical_decision_task_MP_exp2,2020.2.5,Win32,60,m,1,,,,,,,,0.579,1,,,,,,208,WORD,"ID",33,hockey,HOCKEY,m,0.579,,,,,,,0.009114583,-0.399739583,0,0,0,,0,75,75,27,1,
,,,,,,,,,,,,,,,,,,5dc5da21d999de45a504651b,2020-11-27_15h02.54.057,lexical_decision_task_MP_exp2,2020.2.5,Win32,60,z,1,,,,,,,,0.714,1,,,,,,339,NW,UN,33,fiatch,FACHOW,z,0.714,,,,,,,0.009114583,-0.399739583,0,0,0,,0,76,76,398,1,
,,,,,,,,,,,,,,,,,,5dc5da21d999de45a504651b,2020-11-27_15h02.54.057,lexical_decision_task_MP_exp2,2020.2.5,Win32,60,z,1,,,,,,,,0.861,1,,,,,,319,NW,UN,33,jockal,ZOMBER,z,0.861,,,,,,,0.009114583,-0.399739583,0,0,0,,0,77,77,378,1,
,,,,,,,,,,,,,,,,,,5dc5da21d999de45a504651b,2020-11-27_15h02.54.057,lexical_decision_task_MP_exp2,2020.2.5,Win32,60,m,1,,,,,,,,0.641,1,,,,,,64,WORD,UN,33,symbol,THRONE,m,0.641,,,,,,,0.009114583,-0.399739583,0,0,0,,0,78,78,123,1,
,,,,,,,,,,,,,,,,,,5dc5da21d999de45a504651b,2020-11-27_15h02.54.057,lexical_decision_task_MP_exp2,2020.2.5,Win32,60,z,1,,,,,,,,0.704,1,,,,,,417,NW,UN,16,suidle,EAROUD,z,0.704,,,,,,,0.009114583,-0.399739583,0,0,0,,0,79,79,476,1,
,,,,,,,,,,,,,,,,,,5dc5da21d999de45a504651b,2020-11-27_15h02.54.057,lexical_decision_task_MP_exp2,2020.2.5,Win32,60,z,1,,,,,,,,0.834,1,,,,,,392,NW,UN,16,ganous,ROUNCY,z,0.834,,,,,,,0.009114583,-0.399739583,0,0,0,,0,80,80,451,1,
,,,,,,,,,,,,,,,,,,5dc5da21d999de45a504651b,2020-11-27_15h02.54.057,lexical_decision_task_MP_exp2,2020.2.5,Win32,60,m,1,,,,,,,,0.668,1,,,,,,50,WORD,"ID",16,snatch,SNATCH,m,0.668,,,,,,,0.009114583,-0.399739583,0,0,0,,0,81,81,109,1,
,,,,,,,,,,,,,,,,,,5dc5da21d999de45a504651b,2020-11-27_15h02.54.057,lexical_decision_task_MP_exp2,2020.2.5,Win32,60,m,1,,,,,,,,0.569,1,,,,,,144,WORD,UN,16,parish,SPONGE,m,0.569,,,,,,,0.009114583,-0.399739583,0,0,0,,0,82,82,203,1,
,,,,,,,,,,,,,,,,,,5dc5da21d999de45a504651b,2020-11-27_15h02.54.057,lexical_decision_task_MP_exp2,2020.2.5,Win32,60,m,1,,,,,,,,0.599,1,,,,,,147,WORD,UN,16,custom,GARLIC,m,0.599,,,,,,,0.009114583,-0.399739583,0,0,0,,0,83,83,206,1,
,,,,,,,,,,,,,,,,,,5dc5da21d999de45a504651b,2020-11-27_15h02.54.057,lexical_decision_task_MP_exp2,2020.2.5,Win32,60,z,1,,,,,,,,0.654,1,,,,,,374,NW,UN,16,yorque,SLIANT,z,0.654,,,,,,,0.009114583,-0.399739583,0,0,0,,0,84,84,433,1,
,,,,,,,,,,,,,,,,,,5dc5da21d999de45a504651b,2020-11-27_15h02.54.057,lexical_decision_task_MP_exp2,2020.2.5,Win32,60,m,1,,,,,,,,0.584,1,,,,,,46,WORD,"ID",16,single,SINGLE,m,0.584,,,,,,,0.009114583,-0.399739583,0,0,0,,0,85,85,105,1,
,,,,,,,,,,,,,,,,,,5dc5da21d999de45a504651b,2020-11-27_15h02.54.057,lexical_decision_task_MP_exp2,2020.2.5,Win32,60,z,1,,,,,,,,0.583,1,,,,,,469,NW,"ID",33,padifs,PADIFS,z,0.583,,,,,,,0.009114583,-0.399739583,0,0,0,,0,86,86,288,1,
,,,,,,,,,,,,,,,,,,5dc5da21d999de45a504651b,2020-11-27_15h02.54.057,lexical_decision_task_MP_exp2,2020.2.5,Win32,60,m,1,,,,,,,,0.569,1,,,,,,164,WORD,UN,16,invest,MARKET,m,0.569,,,,,,,0.009114583,-0.399739583,0,0,0,,0,87,87,223,1,
,,,,,,,,,,,,,,,,,,5dc5da21d999de45a504651b,2020-11-27_15h02.54.057,lexical_decision_task_MP_exp2,2020.2.5,Win32,60,m,1,,,,,,,,0.625,1,,,,,,102,WORD,UN,33,bounce,DIRECT,m,0.625,,,,,,,0.009114583,-0.399739583,0,0,0,,0,88,88,161,1,
,,,,,,,,,,,,,,,,,,5dc5da21d999de45a504651b,2020-11-27_15h02.54.057,lexical_decision_task_MP_exp2,2020.2.5,Win32,60,m,1,,,,,,,,0.627,1,,,,,,239,WORD,"ID",33,lumber,LUMBER,m,0.627,,,,,,,0.009114583,-0.399739583,0,0,0,,0,89,89,58,1,
,,,,,,,,,,,,,,,,,,5dc5da21d999de45a504651b,2020-11-27_15h02.54.057,lexical_decision_task_MP_exp2,2020.2.5,Win32,60,z,1,,,,,,,,0.731,1,,,,,,452,NW,"ID",33,surden,SURDEN,z,0.731,,,,,,,0.009114583,-0.399739583,0,0,0,,0,90,90,271,1,
,,,,,,,,,,,,,,,,,,5dc5da21d999de45a504651b,2020-11-27_15h02.54.057,lexical_decision_task_MP_exp2,2020.2.5,Win32,60,m,1,,,,,,,,0.626,1,,,,,,106,WORD,UN,33,slogan,RANSOM,m,0.626,,,,,,,0.009114583,-0.399739583,0,0,0,,0,91,91,165,1,
,,,,,,,,,,,,,,,,,,5dc5da21d999de45a504651b,2020-11-27_15h02.54.057,lexical_decision_task_MP_exp2,2020.2.5,Win32,60,m,1,,,,,,,,0.746,1,,,,,,221,WORD,"ID",33,mascot,MASCOT,m,0.746,,,,,,,0.009114583,-0.399739583,0,0,0,,0,92,92,40,1,
,,,,,,,,,,,,,,,,,,5dc5da21d999de45a504651b,2020-11-27_15h02.54.057,lexical_decision_task_MP_exp2,2020.2.5,Win32,60,m,1,,,,,,,,0.581,1,,,,,,78,WORD,UN,33,theory,COLUMN,m,0.581,,,,,,,0.009114583,-0.399739583,0,0,0,,0,93,93,137,1,
,,,,,,,,,,,,,,,,,,5dc5da21d999de45a504651b,2020-11-27_15h02.54.057,lexical_decision_task_MP_exp2,2020.2.5,Win32,60,m,1,,,,,,,,0.549,1,,,,,,201,WORD,"ID",33,admire,ADMIRE,m,0.549,,,,,,,0.009114583,-0.399739583,0,0,0,,0,94,94,20,1,
,,,,,,,,,,,,,,,,,,5dc5da21d999de45a504651b,2020-11-27_15h02.54.057,lexical_decision_task_MP_exp2,2020.2.5,Win32,60,m,1,,,,,,,,0.581,1,,,,,,212,WORD,"ID",33,verify,VERIFY,m,0.581,,,,,,,0.009114583,-0.399739583,0,0,0,,0,95,95,31,1,
,,,,,,,,,,,,,,,,,,5dc5da21d999de45a504651b,2020-11-27_15h02.54.057,lexical_decision_task_MP_exp2,2020.2.5,Win32,60,m,1,,,,,,,,0.561,1,,,,,,179,WORD,UN,16,silent,BASKET,m,0.561,,,,,,,0.009114583,-0.399739583,0,0,0,,0,96,96,238,1,
,,,,,,,,,,,,,,,,,,5dc5da21d999de45a504651b,2020-11-27_15h02.54.057,lexical_decision_task_MP_exp2,2020.2.5,Win32,60,m,1,,,,,,,,0.59,1,,,,,,15,WORD,"ID",16,amount,AMOUNT,m,0.59,,,,,,,0.009114583,-0.399739583,0,0,0,,0,97,97,74,1,
,,,,,,,,,,,,,,,,,,5dc5da21d999de45a504651b,2020-11-27_15h02.54.057,lexical_decision_task_MP_exp2,2020.2.5,Win32,60,z,1,,,,,,,,0.984,1,,,,,,423,NW,"ID",33,streld,STRELD,z,0.984,,,,,,,0.009114583,-0.399739583,0,0,0,,0,98,98,242,1,
,,,,,,,,,,,,,,,,,,5dc5da21d999de45a504651b,2020-11-27_15h02.54.057,lexical_decision_task_MP_exp2,2020.2.5,Win32,60,z,1,,,,,,,,0.709,1,,,,,,302,NW,UN,33,fiream,MILUER,z,0.709,,,,,,,0.009114583,-0.399739583,0,0,0,,0,99,99,361,1,
,,,,,,,,,,,,,,,,,,5dc5da21d999de45a504651b,2020-11-27_15h02.54.057,lexical_decision_task_MP_exp2,2020.2.5,Win32,60,m,1,,,,,,,,0.591,1,,,,,,23,WORD,"ID",16,wealth,WEALTH,m,0.591,,,,,,,0.009114583,-0.399739583,0,0,0,,0,100,100,82,1,
,,,,,,,,,,,,,,,,,,5dc5da21d999de45a504651b,2020-11-27_15h02.54.057,lexical_decision_task_MP_exp2,2020.2.5,Win32,60,z,1,,,,,,,,0.69,1,,,,,,362,NW,UN,16,breali,TIREAU,z,0.69,,,,,,,0.009114583,-0.399739583,0,0,0,,0,101,101,421,1,
,,,,,,,,,,,,,,,,,,5dc5da21d999de45a504651b,2020-11-27_15h02.54.057,lexical_decision_task_MP_exp2,2020.2.5,Win32,60,m,1,,,,,,,,0.518,1,,,,,,187,WORD,"ID",33,course,COURSE,m,0.518,,,,,,,0.009114583,-0.399739583,0,0,0,,0,102,102,6,1,
,,,,,,,,,,,,,,,,,,5dc5da21d999de45a504651b,2020-11-27_15h02.54.057,lexical_decision_task_MP_exp2,2020.2.5,Win32,60,m,1,,,,,,,,0.656,1,,,,,,225,WORD,"ID",33,vulgar,VULGAR,m,0.656,,,,,,,0.009114583,-0.399739583,0,0,0,,0,103,103,44,1,
,,,,,,,,,,,,,,,,,,5dc5da21d999de45a504651b,2020-11-27_15h02.54.057,lexical_decision_task_MP_exp2,2020.2.5,Win32,60,m,1,,,,,,,,0.514,1,,,,,,35,WORD,"ID",16,socket,SOCKET,m,0.514,,,,,,,0.009114583,-0.399739583,0,0,0,,0,104,104,94,1,
,,,,,,,,,,,,,,,,,,5dc5da21d999de45a504651b,2020-11-27_15h02.54.057,lexical_decision_task_MP_exp2,2020.2.5,Win32,60,z,1,,,,,,,,0.667,1,,,,,,448,NW,"ID",33,sadent,SADENT,z,0.667,,,,,,,0.009114583,-0.399739583,0,0,0,,0,105,105,267,1,
,,,,,,,,,,,,,,,,,,5dc5da21d999de45a504651b,2020-11-27_15h02.54.057,lexical_decision_task_MP_exp2,2020.2.5,Win32,60,m,1,,,,,,,,0.52,1,,,,,,218,WORD,"ID",33,shrink,SHRINK,m,0.52,,,,,,,0.009114583,-0.399739583,0,0,0,,0,106,106,37,1,
,,,,,,,,,,,,,,,,,,5dc5da21d999de45a504651b,2020-11-27_15h02.54.057,lexical_decision_task_MP_exp2,2020.2.5,Win32,60,z,1,,,,,,,,0.642,1,,,,,,373,NW,UN,16,sliant,BIGENT,z,0.642,,,,,,,0.009114583,-0.399739583,0,0,0,,0,107,107,432,1,
,,,,,,,,,,,,,,,,,,5dc5da21d999de45a504651b,2020-11-27_15h02.54.057,lexical_decision_task_MP_exp2,2020.2.5,Win32,60,z,1,,,,,,,,0.666,1,,,,,,245,NW,"ID",16,anougs,ANOUGS,z,0.666,,,,,,,0.009114583,-0.399739583,0,0,0,,0,108,108,304,1,
,,,,,,,,,,,,,,,,,,5dc5da21d999de45a504651b,2020-11-27_15h02.54.057,lexical_decision_task_MP_exp2,2020.2.5,Win32,60,m,1,,,,,,,,0.454,1,,,,,,205,WORD,"ID",33,lounge,LOUNGE,m,0.454,,,,,,,0.009114583,-0.399739583,0,0,0,,0,109,109,24,1,
,,,,,,,,,,,,,,,,,,5dc5da21d999de45a504651b,2020-11-27_15h02.54.057,lexical_decision_task_MP_exp2,2020.2.5,Win32,60,m,1,,,,,,,,0.46,1,,,,,,51,WORD,"ID",16,hungry,HUNGRY,m,0.46,,,,,,,0.009114583,-0.399739583,0,0,0,,0,110,110,110,1,
,,,,,,,,,,,,,,,,,,5dc5da21d999de45a504651b,2020-11-27_15h02.54.057,lexical_decision_task_MP_exp2,2020.2.5,Win32,60,z,1,,,,,,,,0.624,1,,,,,,243,NW,"ID",16,musied,MUSIED,z,0.624,,,,,,,0.009114583,-0.399739583,0,0,0,,0,111,111,302,1,
,,,,,,,,,,,,,,,,,,5dc5da21d999de45a504651b,2020-11-27_15h02.54.057,lexical_decision_task_MP_exp2,2020.2.5,Win32,60,z,1,,,,,,,,0.735,1,,,,,,441,NW,"ID",33,rastoe,RASTOE,z,0.735,,,,,,,0.009114583,-0.399739583,0,0,0,,0,112,112,260,1,
,,,,,,,,,,,,,,,,,,5dc5da21d999de45a504651b,2020-11-27_15h02.54.057,lexical_decision_task_MP_exp2,2020.2.5,Win32,60,m,1,,,,,,,,0.53,1,,,,,,186,WORD,"ID",33,portal,PORTAL,m,0.53,,,,,,,0.009114583,-0.399739583,0,0,0,,0,113,113,5,1,
,,,,,,,,,,,,,,,,,,5dc5da21d999de45a504651b,2020-11-27_15h02.54.057,lexical_decision_task_MP_exp2,2020.2.5,Win32,60,z,1,,,,,,,,0.563,1,,,,,,268,NW,"ID",16,packes,PACKES,z,0.563,,,,,,,0.009114583,-0.399739583,0,0,0,,0,114,114,327,1,
,,,,,,,,,,,,,,,,,,5dc5da21d999de45a504651b,2020-11-27_15h02.54.057,lexical_decision_task_MP_exp2,2020.2.5,Win32,60,z,1,,,,,,,,0.67,1,,,,,,474,NW,"ID",33,hablin,HABLIN,z,0.67,,,,,,,0.009114583,-0.399739583,0,0,0,,0,115,115,293,1,
,,,,,,,,,,,,,,,,,,5dc5da21d999de45a504651b,2020-11-27_15h02.54.057,lexical_decision_task_MP_exp2,2020.2.5,Win32,60,z,1,,,,,,,,0.568,1,,,,,,351,NW,UN,33,tringe,TIESCH,z,0.568,,,,,,,0.009114583,-0.399739583,0,0,0,,0,116,116,410,1,
,,,,,,,,,,,,,,,,,,5dc5da21d999de45a504651b,2020-11-27_15h02.54.057,lexical_decision_task_MP_exp2,2020.2.5,Win32,60,z,1,,,,,,,,0.976,1,,,,,,285,NW,"ID",16,prudge,PRUDGE,z,0.976,,,,,,,0.009114583,-0.399739583,0,0,0,,0,117,117,344,1,
,,,,,,,,,,,,,,,,,,5dc5da21d999de45a504651b,2020-11-27_15h02.54.057,lexical_decision_task_MP_exp2,2020.2.5,Win32,60,m,1,,,,,,,,0.682,1,,,,,,116,WORD,UN,33,branch,TUMBLE,m,0.682,,,,,,,0.009114583,-0.399739583,0,0,0,,0,118,118,175,1,
,,,,,,,,,,,,,,,,,,5dc5da21d999de45a504651b,2020-11-27_15h02.54.057,lexical_decision_task_MP_exp2,2020.2.5,Win32,60,z,1,,,,,,,,0.823,1,,,,,,369,NW,UN,16,sleact,WRONCH,z,0.823,,,,,,,0.009114583,-0.399739583,0,0,0,,0,119,119,428,1,
,,,,,,,,,,,,,,,,,,5dc5da21d999de45a504651b,2020-11-27_15h02.54.057,lexical_decision_task_MP_exp2,2020.2.5,Win32,60,m,1,,,,,,,,0.477,1,,,,,,152,WORD,UN,16,behold,ROCKET,m,0.477,,,,,,,-0.233072917,-0.328125,0,0,0,space,0,120,120,211,1,15.209
,,,,,,,,,,,,,,,,,,5dc5da21d999de45a504651b,2020-11-27_15h02.54.057,lexical_decision_task_MP_exp2,2020.2.5,Win32,60,z,1,,,,,,,,1.399,1,,,,,,292,NW,"ID",16,ablint,ABLINT,z,1.399,,,,,,,-0.233072917,-0.328125,0,0,0,,0,121,121,351,1,
,,,,,,,,,,,,,,,,,,5dc5da21d999de45a504651b,2020-11-27_15h02.54.057,lexical_decision_task_MP_exp2,2020.2.5,Win32,60,m,1,,,,,,,,0.664,1,,,,,,135,WORD,UN,16,bleach,IMPORT,m,0.664,,,,,,,-0.233072917,-0.328125,0,0,0,,0,122,122,194,1,
,,,,,,,,,,,,,,,,,,5dc5da21d999de45a504651b,2020-11-27_15h02.54.057,lexical_decision_task_MP_exp2,2020.2.5,Win32,60,m,1,,,,,,,,0.696,1,,,,,,107,WORD,UN,33,reckon,SLOGAN,m,0.696,,,,,,,-0.233072917,-0.328125,0,0,0,,0,123,123,166,1,
,,,,,,,,,,,,,,,,,,5dc5da21d999de45a504651b,2020-11-27_15h02.54.057,lexical_decision_task_MP_exp2,2020.2.5,Win32,60,z,1,,,,,,,,1.415,1,,,,,,379,NW,UN,16,cavory,AUTING,z,1.415,,,,,,,-0.233072917,-0.328125,0,0,0,,0,124,124,438,1,
,,,,,,,,,,,,,,,,,,5dc5da21d999de45a504651b,2020-11-27_15h02.54.057,lexical_decision_task_MP_exp2,2020.2.5,Win32,60,m,1,,,,,,,,0.537,1,,,,,,195,WORD,"ID",33,resign,RESIGN,m,0.537,,,,,,,-0.233072917,-0.328125,0,0,0,,0,125,125,14,1,
,,,,,,,,,,,,,,,,,,5dc5da21d999de45a504651b,2020-11-27_15h02.54.057,lexical_decision_task_MP_exp2,2020.2.5,Win32,60,m,1,,,,,,,,0.667,1,,,,,,139,WORD,UN,16,prince,DEBRIS,m,0.667,,,,,,,-0.233072917,-0.328125,0,0,0,,0,126,126,198,1,
,,,,,,,,,,,,,,,,,,5dc5da21d999de45a504651b,2020-11-27_15h02.54.057,lexical_decision_task_MP_exp2,2020.2.5,Win32,60,z,1,,,,,,,,0.625,1,,,,,,382,NW,UN,16,aungre,SARLEY,z,0.625,,,,,,,-0.233072917,-0.328125,0,0,0,,0,127,127,441,1,
,,,,,,,,,,,,,,,,,,5dc5da21d999de45a504651b,2020-11-27_15h02.54.057,lexical_decision_task_MP_exp2,2020.2.5,Win32,60,z,1,,,,,,,,0.676,1,,,,,,277,NW,"ID",16,petain,PETAIN,z,0.676,,,,,,,-0.233072917,-0.328125,0,0,0,,0,128,128,336,1,
,,,,,,,,,,,,,,,,,,5dc5da21d999de45a504651b,2020-11-27_15h02.54.057,lexical_decision_task_MP_exp2,2020.2.5,Win32,60,m,1,,,,,,,,0.567,1,,,,,,53,WORD,"ID",16,police,POLICE,m,0.567,,,,,,,-0.233072917,-0.328125,0,0,0,,0,129,129,112,1,
,,,,,,,,,,,,,,,,,,5dc5da21d999de45a504651b,2020-11-27_15h02.54.057,lexical_decision_task_MP_exp2,2020.2.5,Win32,60,z,1,,,,,,,,0.81,1,,,,,,367,NW,UN,16,hornal,SLIQUE,z,0.81,,,,,,,-0.233072917,-0.328125,0,0,0,,0,130,130,426,1,
,,,,,,,,,,,,,,,,,,5dc5da21d999de45a504651b,2020-11-27_15h02.54.057,lexical_decision_task_MP_exp2,2020.2.5,Win32,60,z,1,,,,,,,,0.612,1,,,,,,371,NW,UN,16,ramily,GEILOY,z,0.612,,,,,,,-0.233072917,-0.328125,0,0,0,,0,131,131,430,1,
,,,,,,,,,,,,,,,,,,5dc5da21d999de45a504651b,2020-11-27_15h02.54.057,lexical_decision_task_MP_exp2,2020.2.5,Win32,60,m,1,,,,,,,,0.659,1,,,,,,118,WORD,UN,33,spider,FLIGHT,m,0.659,,,,,,,-0.233072917,-0.328125,0,0,0,,0,132,132,177,1,
,,,,,,,,,,,,,,,,,,5dc5da21d999de45a504651b,2020-11-27_15h02.54.057,lexical_decision_task_MP_exp2,2020.2.5,Win32,60,z,1,,,,,,,,0.705,1,,,,,,399,NW,UN,16,wearox,FOURET,z,0.705,,,,,,,-0.233072917,-0.328125,0,0,0,,0,133,133,458,1,
,,,,,,,,,,,,,,,,,,5dc5da21d999de45a504651b,2020-11-27_15h02.54.057,lexical_decision_task_MP_exp2,2020.2.5,Win32,60,m,0,,,,,,,,0.635,0,,,,,,338,NW,UN,33,fachow,WREASH,z,0.635,,,,,,,-0.233072917,-0.328125,0,0,0,,0,134,134,397,1,
,,,,,,,,,,,,,,,,,,5dc5da21d999de45a504651b,2020-11-27_15h02.54.057,lexical_decision_task_MP_exp2,2020.2.5,Win32,60,m,1,,,,,,,,0.705,1,,,,,,129,WORD,UN,16,stupid,MARVEL,m,0.705,,,,,,,-0.233072917,-0.328125,0,0,0,,0,135,135,188,1,
,,,,,,,,,,,,,,,,,,5dc5da21d999de45a504651b,2020-11-27_15h02.54.057,lexical_decision_task_MP_exp2,2020.2.5,Win32,60,m,1,,,,,,,,0.548,1,,,,,,185,WORD,"ID",33,bother,BOTHER,m,0.548,,,,,,,-0.233072917,-0.328125,0,0,0,,0,136,136,4,1,
,,,,,,,,,,,,,,,,,,5dc5da21d999de45a504651b,2020-11-27_15h02.54.057,lexical_decision_task_MP_exp2,2020.2.5,Win32,60,m,1,,,,,,,,0.635,1,,,,,,161,WORD,UN,16,candle,PASTOR,m,0.635,,,,,,,-0.233072917,-0.328125,0,0,0,,0,137,137,220,1,
,,,,,,,,,,,,,,,,,,5dc5da21d999de45a504651b,2020-11-27_15h02.54.057,lexical_decision_task_MP_exp2,2020.2.5,Win32,60,m,1,,,,,,,,0.578,1,,,,,,166,WORD,UN,16,design,STARCH,m,0.578,,,,,,,-0.233072917,-0.328125,0,0,0,,0,138,138,225,1,
,,,,,,,,,,,,,,,,,,5dc5da21d999de45a504651b,2020-11-27_15h02.54.057,lexical_decision_task_MP_exp2,2020.2.5,Win32,60,z,1,,,,,,,,0.706,1,,,,,,420,NW,UN,16,pauche,GUSHOP,z,0.706,,,,,,,-0.233072917,-0.328125,0,0,0,,0,139,139,479,1,
,,,,,,,,,,,,,,,,,,5dc5da21d999de45a504651b,2020-11-27_15h02.54.057,lexical_decision_task_MP_exp2,2020.2.5,Win32,60,m,1,,,,,,,,0.518,1,,,,,,193,WORD,"ID",33,object,OBJECT,m,0.518,,,,,,,-0.233072917,-0.328125,0,0,0,,0,140,140,12,1,
,,,,,,,,,,,,,,,,,,5dc5da21d999de45a504651b,2020-11-27_15h02.54.057,lexical_decision_task_MP_exp2,2020.2.5,Win32,60,m,1,,,,,,,,0.639,1,,,,,,171,WORD,UN,16,patrol,DEPART,m,0.639,,,,,,,-0.233072917,-0.328125,0,0,0,,0,141,141,230,1,
,,,,,,,,,,,,,,,,,,5dc5da21d999de45a504651b,2020-11-27_15h02.54.057,lexical_decision_task_MP_exp2,2020.2.5,Win32,60,m,1,,,,,,,,0.529,1,,,,,,49,WORD,"ID",16,survey,SURVEY,m,0.529,,,,,,,-0.233072917,-0.328125,0,0,0,,0,142,142,108,1,
,,,,,,,,,,,,,,,,,,5dc5da21d999de45a504651b,2020-11-27_15h02.54.057,lexical_decision_task_MP_exp2,2020.2.5,Win32,60,z,1,,,,,,,,0.587,1,,,,,,414,NW,UN,16,higsta,SERBOL,z,0.587,,,,,,,-0.233072917,-0.328125,0,0,0,,0,143,143,473,1,
,,,,,,,,,,,,,,,,,,5dc5da21d999de45a504651b,2020-11-27_15h02.54.057,lexical_decision_task_MP_exp2,2020.2.5,Win32,60,z,1,,,,,,,,0.651,1,,,,,,271,NW,"ID",16,aubrid,AUBRID,z,0.651,,,,,,,-0.233072917,-0.328125,0,0,0,,0,144,144,330,1,
,,,,,,,,,,,,,,,,,,5dc5da21d999de45a504651b,2020-11-27_15h02.54.057,lexical_decision_task_MP_exp2,2020.2.5,Win32,60,m,1,,,,,,,,0.513,1,,,,,,199,WORD,"ID",33,invoke,INVOKE,m,0.513,,,,,,,-0.233072917,-0.328125,0,0,0,,0,145,145,18,1,
,,,,,,,,,,,,,,,,,,5dc5da21d999de45a504651b,2020-11-27_15h02.54.057,lexical_decision_task_MP_exp2,2020.2.5,Win32,60,m,1,,,,,,,,0.609,1,,,,,,184,WORD,"ID",33,sleazy,SLEAZY,m,0.609,,,,,,,-0.233072917,-0.328125,0,0,0,,0,146,146,3,1,
,,,,,,,,,,,,,,,,,,5dc5da21d999de45a504651b,2020-11-27_15h02.54.057,lexical_decision_task_MP_exp2,2020.2.5,Win32,60,z,1,,,,,,,,0.65,1,,,,,,265,NW,"ID",16,distar,DISTAR,z,0.65,,,,,,,-0.233072917,-0.328125,0,0,0,,0,147,147,324,1,
,,,,,,,,,,,,,,,,,,5dc5da21d999de45a504651b,2020-11-27_15h02.54.057,lexical_decision_task_MP_exp2,2020.2.5,Win32,60,z,1,,,,,,,,0.863,1,,,,,,255,NW,"ID",16,apight,APIGHT,z,0.863,,,,,,,-0.233072917,-0.328125,0,0,0,,0,148,148,314,1,
,,,,,,,,,,,,,,,,,,5dc5da21d999de45a504651b,2020-11-27_15h02.54.057,lexical_decision_task_MP_exp2,2020.2.5,Win32,60,m,0,,,,,,,,0.569,0,,,,,,377,NW,UN,16,shrile,INJORE,z,0.569,,,,,,,-0.233072917,-0.328125,0,0,0,,0,149,149,436,1,
,,,,,,,,,,,,,,,,,,5dc5da21d999de45a504651b,2020-11-27_15h02.54.057,lexical_decision_task_MP_exp2,2020.2.5,Win32,60,z,1,,,,,,,,0.644,1,,,,,,354,NW,UN,33,zingly,VIRLEX,z,0.644,,,,,,,-0.233072917,-0.328125,0,0,0,,0,150,150,413,1,
,,,,,,,,,,,,,,,,,,5dc5da21d999de45a504651b,2020-11-27_15h02.54.057,lexical_decision_task_MP_exp2,2020.2.5,Win32,60,z,1,,,,,,,,1.026,1,,,,,,325,NW,UN,33,iguade,THRUSE,z,1.026,,,,,,,-0.233072917,-0.328125,0,0,0,,0,151,151,384,1,
,,,,,,,,,,,,,,,,,,5dc5da21d999de45a504651b,2020-11-27_15h02.54.057,lexical_decision_task_MP_exp2,2020.2.5,Win32,60,z,1,,,,,,,,0.566,1,,,,,,394,NW,UN,16,colury,SPAQUX,z,0.566,,,,,,,-0.233072917,-0.328125,0,0,0,,0,152,152,453,1,
,,,,,,,,,,,,,,,,,,5dc5da21d999de45a504651b,2020-11-27_15h02.54.057,lexical_decision_task_MP_exp2,2020.2.5,Win32,60,z,1,,,,,,,,0.67,1,,,,,,257,NW,"ID",16,veniod,VENIOD,z,0.67,,,,,,,-0.233072917,-0.328125,0,0,0,,0,153,153,316,1,
,,,,,,,,,,,,,,,,,,5dc5da21d999de45a504651b,2020-11-27_15h02.54.057,lexical_decision_task_MP_exp2,2020.2.5,Win32,60,z,1,,,,,,,,0.853,1,,,,,,342,NW,UN,33,aimosy,RANDOW,z,0.853,,,,,,,-0.233072917,-0.328125,0,0,0,,0,154,154,401,1,
,,,,,,,,,,,,,,,,,,5dc5da21d999de45a504651b,2020-11-27_15h02.54.057,lexical_decision_task_MP_exp2,2020.2.5,Win32,60,m,1,,,,,,,,0.709,1,,,,,,32,WORD,"ID",16,buckle,BUCKLE,m,0.709,,,,,,,-0.233072917,-0.328125,0,0,0,,0,155,155,91,1,
,,,,,,,,,,,,,,,,,,5dc5da21d999de45a504651b,2020-11-27_15h02.54.057,lexical_decision_task_MP_exp2,2020.2.5,Win32,60,z,1,,,,,,,,0.696,1,,,,,,321,NW,UN,33,slanch,MIATOR,z,0.696,,,,,,,-0.233072917,-0.328125,0,0,0,,0,156,156,380,1,
,,,,,,,,,,,,,,,,,,5dc5da21d999de45a504651b,2020-11-27_15h02.54.057,lexical_decision_task_MP_exp2,2020.2.5,Win32,60,z,1,,,,,,,,0.563,1,,,,,,401,NW,UN,16,syntic,MUSTIL,z,0.563,,,,,,,-0.233072917,-0.328125,0,0,0,,0,157,157,460,1,
,,,,,,,,,,,,,,,,,,5dc5da21d999de45a504651b,2020-11-27_15h02.54.057,lexical_decision_task_MP_exp2,2020.2.5,Win32,60,z,1,,,,,,,,0.589,1,,,,,,381,NW,UN,16,sarley,HUNIEK,z,0.589,,,,,,,-0.233072917,-0.328125,0,0,0,,0,158,158,440,1,
,,,,,,,,,,,,,,,,,,5dc5da21d999de45a504651b,2020-11-27_15h02.54.057,lexical_decision_task_MP_exp2,2020.2.5,Win32,60,m,1,,,,,,,,0.727,1,,,,,,95,WORD,UN,33,ignore,THREAD,m,0.727,,,,,,,-0.233072917,-0.328125,0,0,0,,0,159,159,154,1,
,,,,,,,,,,,,,,,,,,5dc5da21d999de45a504651b,2020-11-27_15h02.54.057,lexical_decision_task_MP_exp2,2020.2.5,Win32,60,z,1,,,,,,,,0.745,1,,,,,,316,NW,UN,33,worbal,SCREGM,z,0.745,,,,,,,-0.233072917,-0.328125,0,0,0,,0,160,160,375,1,
,,,,,,,,,,,,,,,,,,5dc5da21d999de45a504651b,2020-11-27_15h02.54.057,lexical_decision_task_MP_exp2,2020.2.5,Win32,60,z,1,,,,,,,,0.644,1,,,,,,397,NW,UN,16,blunde,CAMBLE,z,0.644,,,,,,,-0.233072917,-0.328125,0,0,0,,0,161,161,456,1,
,,,,,,,,,,,,,,,,,,5dc5da21d999de45a504651b,2020-11-27_15h02.54.057,lexical_decision_task_MP_exp2,2020.2.5,Win32,60,z,1,,,,,,,,0.613,1,,,,,,400,NW,UN,16,mustil,WEAROX,z,0.613,,,,,,,-0.233072917,-0.328125,0,0,0,,0,162,162,459,1,
,,,,,,,,,,,,,,,,,,5dc5da21d999de45a504651b,2020-11-27_15h02.54.057,lexical_decision_task_MP_exp2,2020.2.5,Win32,60,z,1,,,,,,,,0.561,1,,,,,,403,NW,UN,16,cluirm,BRUATS,z,0.561,,,,,,,-0.233072917,-0.328125,0,0,0,,0,163,163,462,1,
,,,,,,,,,,,,,,,,,,5dc5da21d999de45a504651b,2020-11-27_15h02.54.057,lexical_decision_task_MP_exp2,2020.2.5,Win32,60,m,1,,,,,,,,0.734,1,,,,,,17,WORD,"ID",16,charge,CHARGE,m,0.734,,,,,,,-0.233072917,-0.328125,0,0,0,,0,164,164,76,1,
,,,,,,,,,,,,,,,,,,5dc5da21d999de45a504651b,2020-11-27_15h02.54.057,lexical_decision_task_MP_exp2,2020.2.5,Win32,60,z,1,,,,,,,,0.71,1,,,,,,360,NW,UN,33,fainch,DESORY,z,0.71,,,,,,,-0.233072917,-0.328125,0,0,0,,0,165,165,419,1,
,,,,,,,,,,,,,,,,,,5dc5da21d999de45a504651b,2020-11-27_15h02.54.057,lexical_decision_task_MP_exp2,2020.2.5,Win32,60,m,1,,,,,,,,0.75,1,,,,,,113,WORD,UN,33,placid,CHORUS,m,0.75,,,,,,,-0.233072917,-0.328125,0,0,0,,0,166,166,172,1,
,,,,,,,,,,,,,,,,,,5dc5da21d999de45a504651b,2020-11-27_15h02.54.057,lexical_decision_task_MP_exp2,2020.2.5,Win32,60,m,1,,,,,,,,0.606,1,,,,,,160,WORD,UN,16,pastor,VIOLET,m,0.606,,,,,,,-0.233072917,-0.328125,0,0,0,,0,167,167,219,1,
,,,,,,,,,,,,,,,,,,5dc5da21d999de45a504651b,2020-11-27_15h02.54.057,lexical_decision_task_MP_exp2,2020.2.5,Win32,60,m,1,,,,,,,,0.604,1,,,,,,22,WORD,"ID",16,jockey,JOCKEY,m,0.604,,,,,,,-0.233072917,-0.328125,0,0,0,,0,168,168,81,1,
,,,,,,,,,,,,,,,,,,5dc5da21d999de45a504651b,2020-11-27_15h02.54.057,lexical_decision_task_MP_exp2,2020.2.5,Win32,60,m,1,,,,,,,,0.568,1,,,,,,143,WORD,UN,16,sponge,REASON,m,0.568,,,,,,,-0.233072917,-0.328125,0,0,0,,0,169,169,202,1,
,,,,,,,,,,,,,,,,,,5dc5da21d999de45a504651b,2020-11-27_15h02.54.057,lexical_decision_task_MP_exp2,2020.2.5,Win32,60,z,1,,,,,,,,0.755,1,,,,,,314,NW,UN,33,laston,SPRINE,z,0.755,,,,,,,-0.233072917,-0.328125,0,0,0,,0,170,170,373,1,
,,,,,,,,,,,,,,,,,,5dc5da21d999de45a504651b,2020-11-27_15h02.54.057,lexical_decision_task_MP_exp2,2020.2.5,Win32,60,z,1,,,,,,,,0.561,1,,,,,,323,NW,UN,33,steikh,ROSAIL,z,0.561,,,,,,,-0.233072917,-0.328125,0,0,0,,0,171,171,382,1,
,,,,,,,,,,,,,,,,,,5dc5da21d999de45a504651b,2020-11-27_15h02.54.057,lexical_decision_task_MP_exp2,2020.2.5,Win32,60,m,1,,,,,,,,0.569,1,,,,,,233,WORD,"ID",33,nature,NATURE,m,0.569,,,,,,,-0.233072917,-0.328125,0,0,0,,0,172,172,52,1,
,,,,,,,,,,,,,,,,,,5dc5da21d999de45a504651b,2020-11-27_15h02.54.057,lexical_decision_task_MP_exp2,2020.2.5,Win32,60,z,0,,,,,,,,0.48,0,,,,,,47,WORD,"ID",16,income,INCOME,m,0.48,,,,,,,-0.233072917,-0.328125,0,0,0,,0,173,173,106,1,
,,,,,,,,,,,,,,,,,,5dc5da21d999de45a504651b,2020-11-27_15h02.54.057,lexical_decision_task_MP_exp2,2020.2.5,Win32,60,m,1,,,,,,,,1.145,1,,,,,,207,WORD,"ID",33,wreath,WREATH,m,1.145,,,,,,,-0.233072917,-0.328125,0,0,0,,0,174,174,26,1,
,,,,,,,,,,,,,,,,,,5dc5da21d999de45a504651b,2020-11-27_15h02.54.057,lexical_decision_task_MP_exp2,2020.2.5,Win32,60,m,0,,,,,,,,0.654,0,,,,,,425,NW,"ID",33,frudge,FRUDGE,z,0.654,,,,,,,-0.233072917,-0.328125,0,0,0,,0,175,175,244,1,
,,,,,,,,,,,,,,,,,,5dc5da21d999de45a504651b,2020-11-27_15h02.54.057,lexical_decision_task_MP_exp2,2020.2.5,Win32,60,m,1,,,,,,,,0.616,1,,,,,,5,WORD,"ID",16,plunge,PLUNGE,m,0.616,,,,,,,-0.233072917,-0.328125,0,0,0,,0,176,176,64,1,
,,,,,,,,,,,,,,,,,,5dc5da21d999de45a504651b,2020-11-27_15h02.54.057,lexical_decision_task_MP_exp2,2020.2.5,Win32,60,z,1,,,,,,,,0.694,1,,,,,,463,NW,"ID",33,kispel,KISPEL,z,0.694,,,,,,,-0.233072917,-0.328125,0,0,0,,0,177,177,282,1,
,,,,,,,,,,,,,,,,,,5dc5da21d999de45a504651b,2020-11-27_15h02.54.057,lexical_decision_task_MP_exp2,2020.2.5,Win32,60,z,1,,,,,,,,0.619,1,,,,,,262,NW,"ID",16,quilew,QUILEW,z,0.619,,,,,,,-0.233072917,-0.328125,0,0,0,,0,178,178,321,1,
,,,,,,,,,,,,,,,,,,5dc5da21d999de45a504651b,2020-11-27_15h02.54.057,lexical_decision_task_MP_exp2,2020.2.5,Win32,60,m,1,,,,,,,,0.783,1,,,,,,21,WORD,"ID",16,simple,SIMPLE,m,0.783,,,,,,,-0.233072917,-0.328125,0,0,0,,0,179,179,80,1,
,,,,,,,,,,,,,,,,,,5dc5da21d999de45a504651b,2020-11-27_15h02.54.057,lexical_decision_task_MP_exp2,2020.2.5,Win32,60,z,1,,,,,,,,0.631,1,,,,,,460,NW,"ID",33,mingar,MINGAR,z,0.631,,,,,,,-0.233072917,-0.328125,0,0,0,,0,180,180,279,1,
,,,,,,,,,,,,,,,,,,5dc5da21d999de45a504651b,2020-11-27_15h02.54.057,lexical_decision_task_MP_exp2,2020.2.5,Win32,60,z,1,,,,,,,,0.61,1,,,,,,445,NW,"ID",33,minkel,MINKEL,z,0.61,,,,,,,-0.233072917,-0.328125,0,0,0,,0,181,181,264,1,
,,,,,,,,,,,,,,,,,,5dc5da21d999de45a504651b,2020-11-27_15h02.54.057,lexical_decision_task_MP_exp2,2020.2.5,Win32,60,m,1,,,,,,,,0.582,1,,,,,,79,WORD,UN,33,family,THEORY,m,0.582,,,,,,,-0.233072917,-0.328125,0,0,0,,0,182,182,138,1,
,,,,,,,,,,,,,,,,,,5dc5da21d999de45a504651b,2020-11-27_15h02.54.057,lexical_decision_task_MP_exp2,2020.2.5,Win32,60,z,1,,,,,,,,0.556,1,,,,,,427,NW,"ID",33,schind,SCHIND,z,0.556,,,,,,,-0.233072917,-0.328125,0,0,0,,0,183,183,246,1,
,,,,,,,,,,,,,,,,,,5dc5da21d999de45a504651b,2020-11-27_15h02.54.057,lexical_decision_task_MP_exp2,2020.2.5,Win32,60,z,1,,,,,,,,0.6,1,,,,,,289,NW,"ID",16,starby,STARBY,z,0.6,,,,,,,-0.233072917,-0.328125,0,0,0,,0,184,184,348,1,
,,,,,,,,,,,,,,,,,,5dc5da21d999de45a504651b,2020-11-27_15h02.54.057,lexical_decision_task_MP_exp2,2020.2.5,Win32,60,m,1,,,,,,,,0.573,1,,,,,,84,WORD,UN,33,strand,MORTAL,m,0.573,,,,,,,-0.233072917,-0.328125,0,0,0,,0,185,185,143,1,
,,,,,,,,,,,,,,,,,,5dc5da21d999de45a504651b,2020-11-27_15h02.54.057,lexical_decision_task_MP_exp2,2020.2.5,Win32,60,z,1,,,,,,,,0.554,1,,,,,,333,NW,UN,33,watmeg,CATRIE,z,0.554,,,,,,,-0.233072917,-0.328125,0,0,0,,0,186,186,392,1,
,,,,,,,,,,,,,,,,,,5dc5da21d999de45a504651b,2020-11-27_15h02.54.057,lexical_decision_task_MP_exp2,2020.2.5,Win32,60,z,1,,,,,,,,0.596,1,,,,,,332,NW,UN,33,catrie,VANGUE,z,0.596,,,,,,,-0.233072917,-0.328125,0,0,0,,0,187,187,391,1,
,,,,,,,,,,,,,,,,,,5dc5da21d999de45a504651b,2020-11-27_15h02.54.057,lexical_decision_task_MP_exp2,2020.2.5,Win32,60,z,1,,,,,,,,0.616,1,,,,,,345,NW,UN,33,saudic,ABSEND,z,0.616,,,,,,,-0.233072917,-0.328125,0,0,0,,0,188,188,404,1,
,,,,,,,,,,,,,,,,,,5dc5da21d999de45a504651b,2020-11-27_15h02.54.057,lexical_decision_task_MP_exp2,2020.2.5,Win32,60,m,0,,,,,,,,0.617,0,,,,,,322,NW,UN,33,rosail,SLANCH,z,0.617,,,,,,,-0.233072917,-0.328125,0,0,0,,0,189,189,381,1,
,,,,,,,,,,,,,,,,,,5dc5da21d999de45a504651b,2020-11-27_15h02.54.057,lexical_decision_task_MP_exp2,2020.2.5,Win32,60,z,1,,,,,,,,0.603,1,,,,,,426,NW,"ID",33,urivel,URIVEL,z,0.603,,,,,,,-0.233072917,-0.328125,0,0,0,,0,190,190,245,1,
,,,,,,,,,,,,,,,,,,5dc5da21d999de45a504651b,2020-11-27_15h02.54.057,lexical_decision_task_MP_exp2,2020.2.5,Win32,60,m,1,,,,,,,,0.626,1,,,,,,25,WORD,"ID",16,domain,DOMAIN,m,0.626,,,,,,,-0.233072917,-0.328125,0,0,0,,0,191,191,84,1,
,,,,,,,,,,,,,,,,,,5dc5da21d999de45a504651b,2020-11-27_15h02.54.057,lexical_decision_task_MP_exp2,2020.2.5,Win32,60,z,0,,,,,,,,1.152,0,,,,,,85,WORD,UN,33,rodent,SPRAWL,m,1.152,,,,,,,-0.233072917,-0.328125,0,0,0,,0,192,192,144,1,
,,,,,,,,,,,,,,,,,,5dc5da21d999de45a504651b,2020-11-27_15h02.54.057,lexical_decision_task_MP_exp2,2020.2.5,Win32,60,m,1,,,,,,,,0.458,1,,,,,,28,WORD,"ID",16,comedy,COMEDY,m,0.458,,,,,,,-0.233072917,-0.328125,0,0,0,,0,193,193,87,1,
,,,,,,,,,,,,,,,,,,5dc5da21d999de45a504651b,2020-11-27_15h02.54.057,lexical_decision_task_MP_exp2,2020.2.5,Win32,60,m,1,,,,,,,,0.415,1,,,,,,229,WORD,"ID",33,mother,MOTHER,m,0.415,,,,,,,-0.233072917,-0.328125,0,0,0,,0,194,194,48,1,
,,,,,,,,,,,,,,,,,,5dc5da21d999de45a504651b,2020-11-27_15h02.54.057,lexical_decision_task_MP_exp2,2020.2.5,Win32,60,m,1,,,,,,,,0.474,1,,,,,,167,WORD,UN,16,answer,DESIGN,m,0.474,,,,,,,-0.233072917,-0.328125,0,0,0,,0,195,195,226,1,
,,,,,,,,,,,,,,,,,,5dc5da21d999de45a504651b,2020-11-27_15h02.54.057,lexical_decision_task_MP_exp2,2020.2.5,Win32,60,z,1,,,,,,,,0.647,1,,,,,,341,NW,UN,33,randow,MYRTIE,z,0.647,,,,,,,-0.233072917,-0.328125,0,0,0,,0,196,196,400,1,
,,,,,,,,,,,,,,,,,,5dc5da21d999de45a504651b,2020-11-27_15h02.54.057,lexical_decision_task_MP_exp2,2020.2.5,Win32,60,m,1,,,,,,,,0.502,1,,,,,,150,WORD,UN,16,mystic,RANDOM,m,0.502,,,,,,,-0.233072917,-0.328125,0,0,0,,0,197,197,209,1,
,,,,,,,,,,,,,,,,,,5dc5da21d999de45a504651b,2020-11-27_15h02.54.057,lexical_decision_task_MP_exp2,2020.2.5,Win32,60,z,1,,,,,,,,0.563,1,,,,,,278,NW,"ID",16,unighs,UNIGHS,z,0.563,,,,,,,-0.233072917,-0.328125,0,0,0,,0,198,198,337,1,
,,,,,,,,,,,,,,,,,,5dc5da21d999de45a504651b,2020-11-27_15h02.54.057,lexical_decision_task_MP_exp2,2020.2.5,Win32,60,z,1,,,,,,,,0.925,1,,,,,,416,NW,UN,16,earoud,PATHEL,z,0.925,,,,,,,-0.233072917,-0.328125,0,0,0,,0,199,199,475,1,
,,,,,,,,,,,,,,,,,,5dc5da21d999de45a504651b,2020-11-27_15h02.54.057,lexical_decision_task_MP_exp2,2020.2.5,Win32,60,m,1,,,,,,,,0.666,1,,,,,,153,WORD,UN,16,author,BEHOLD,m,0.666,,,,,,,-0.233072917,-0.328125,0,0,0,,0,200,200,212,1,
,,,,,,,,,,,,,,,,,,5dc5da21d999de45a504651b,2020-11-27_15h02.54.057,lexical_decision_task_MP_exp2,2020.2.5,Win32,60,z,1,,,,,,,,0.572,1,,,,,,328,NW,UN,33,yarike,BROAKE,z,0.572,,,,,,,-0.233072917,-0.328125,0,0,0,,0,201,201,387,1,
,,,,,,,,,,,,,,,,,,5dc5da21d999de45a504651b,2020-11-27_15h02.54.057,lexical_decision_task_MP_exp2,2020.2.5,Win32,60,z,1,,,,,,,,0.594,1,,,,,,470,NW,"ID",33,crudio,CRUDIO,z,0.594,,,,,,,-0.233072917,-0.328125,0,0,0,,0,202,202,289,1,
,,,,,,,,,,,,,,,,,,5dc5da21d999de45a504651b,2020-11-27_15h02.54.057,lexical_decision_task_MP_exp2,2020.2.5,Win32,60,z,1,,,,,,,,0.569,1,,,,,,443,NW,"ID",33,dorsex,DORSEX,z,0.569,,,,,,,-0.233072917,-0.328125,0,0,0,,0,203,203,262,1,
,,,,,,,,,,,,,,,,,,5dc5da21d999de45a504651b,2020-11-27_15h02.54.057,lexical_decision_task_MP_exp2,2020.2.5,Win32,60,m,1,,,,,,,,0.619,1,,,,,,72,WORD,UN,33,source,BRIGHT,m,0.619,,,,,,,-0.233072917,-0.328125,0,0,0,,0,204,204,131,1,
,,,,,,,,,,,,,,,,,,5dc5da21d999de45a504651b,2020-11-27_15h02.54.057,lexical_decision_task_MP_exp2,2020.2.5,Win32,60,m,1,,,,,,,,0.518,1,,,,,,41,WORD,"ID",16,spring,SPRING,m,0.518,,,,,,,-0.233072917,-0.328125,0,0,0,,0,205,205,100,1,
,,,,,,,,,,,,,,,,,,5dc5da21d999de45a504651b,2020-11-27_15h02.54.057,lexical_decision_task_MP_exp2,2020.2.5,Win32,60,m,1,,,,,,,,0.549,1,,,,,,104,WORD,UN,33,number,STUDIO,m,0.549,,,,,,,-0.233072917,-0.328125,0,0,0,,0,206,206,163,1,
,,,,,,,,,,,,,,,,,,5dc5da21d999de45a504651b,2020-11-27_15h02.54.057,lexical_decision_task_MP_exp2,2020.2.5,Win32,60,m,0,,,,,,,,0.683,0,,,,,,284,NW,"ID",16,shaple,SHAPLE,z,0.683,,,,,,,-0.233072917,-0.328125,0,0,0,,0,207,207,343,1,
,,,,,,,,,,,,,,,,,,5dc5da21d999de45a504651b,2020-11-27_15h02.54.057,lexical_decision_task_MP_exp2,2020.2.5,Win32,60,m,1,,,,,,,,0.555,1,,,,,,56,WORD,"ID",16,ambush,AMBUSH,m,0.555,,,,,,,-0.233072917,-0.328125,0,0,0,,0,208,208,115,1,
,,,,,,,,,,,,,,,,,,5dc5da21d999de45a504651b,2020-11-27_15h02.54.057,lexical_decision_task_MP_exp2,2020.2.5,Win32,60,m,1,,,,,,,,0.527,1,,,,,,235,WORD,"ID",33,grumpy,GRUMPY,m,0.527,,,,,,,-0.233072917,-0.328125,0,0,0,,0,209,209,54,1,
,,,,,,,,,,,,,,,,,,5dc5da21d999de45a504651b,2020-11-27_15h02.54.057,lexical_decision_task_MP_exp2,2020.2.5,Win32,60,m,1,,,,,,,,0.873,1,,,,,,4,WORD,"ID",16,trench,TRENCH,m,0.873,,,,,,,-0.233072917,-0.328125,0,0,0,,0,210,210,63,1,
,,,,,,,,,,,,,,,,,,5dc5da21d999de45a504651b,2020-11-27_15h02.54.057,lexical_decision_task_MP_exp2,2020.2.5,Win32,60,z,1,,,,,,,,0.698,1,,,,,,365,NW,UN,16,toshel,GUAIRT,z,0.698,,,,,,,-0.233072917,-0.328125,0,0,0,,0,211,211,424,1,
,,,,,,,,,,,,,,,,,,5dc5da21d999de45a504651b,2020-11-27_15h02.54.057,lexical_decision_task_MP_exp2,2020.2.5,Win32,60,m,1,,,,,,,,0.632,1,,,,,,172,WORD,UN,16,shower,PATROL,m,0.632,,,,,,,-0.233072917,-0.328125,0,0,0,,0,212,212,231,1,
,,,,,,,,,,,,,,,,,,5dc5da21d999de45a504651b,2020-11-27_15h02.54.057,lexical_decision_task_MP_exp2,2020.2.5,Win32,60,m,0,,,,,,,,0.708,0,,,,,,462,NW,"ID",33,absult,ABSULT,z,0.708,,,,,,,-0.233072917,-0.328125,0,0,0,,0,213,213,281,1,
,,,,,,,,,,,,,,,,,,5dc5da21d999de45a504651b,2020-11-27_15h02.54.057,lexical_decision_task_MP_exp2,2020.2.5,Win32,60,m,1,,,,,,,,0.57,1,,,,,,3,WORD,"ID",16,knight,KNIGHT,m,0.57,,,,,,,-0.233072917,-0.328125,0,0,0,,0,214,214,62,1,
,,,,,,,,,,,,,,,,,,5dc5da21d999de45a504651b,2020-11-27_15h02.54.057,lexical_decision_task_MP_exp2,2020.2.5,Win32,60,z,1,,,,,,,,0.626,1,,,,,,270,NW,"ID",16,wrimsy,WRIMSY,z,0.626,,,,,,,-0.233072917,-0.328125,0,0,0,,0,215,215,329,1,
,,,,,,,,,,,,,,,,,,5dc5da21d999de45a504651b,2020-11-27_15h02.54.057,lexical_decision_task_MP_exp2,2020.2.5,Win32,60,z,1,,,,,,,,0.732,1,,,,,,320,NW,UN,33,miator,JOCKAL,z,0.732,,,,,,,-0.233072917,-0.328125,0,0,0,,0,216,216,379,1,
,,,,,,,,,,,,,,,,,,5dc5da21d999de45a504651b,2020-11-27_15h02.54.057,lexical_decision_task_MP_exp2,2020.2.5,Win32,60,z,1,,,,,,,,0.872,1,,,,,,364,NW,UN,16,guairt,IMPOTE,z,0.872,,,,,,,-0.233072917,-0.328125,0,0,0,,0,217,217,423,1,
,,,,,,,,,,,,,,,,,,5dc5da21d999de45a504651b,2020-11-27_15h02.54.057,lexical_decision_task_MP_exp2,2020.2.5,Win32,60,z,1,,,,,,,,0.666,1,,,,,,366,NW,UN,16,slique,TOSHEL,z,0.666,,,,,,,-0.233072917,-0.328125,0,0,0,,0,218,218,425,1,
,,,,,,,,,,,,,,,,,,5dc5da21d999de45a504651b,2020-11-27_15h02.54.057,lexical_decision_task_MP_exp2,2020.2.5,Win32,60,z,1,,,,,,,,0.613,1,,,,,,461,NW,"ID",33,justre,JUSTRE,z,0.613,,,,,,,-0.233072917,-0.328125,0,0,0,,0,219,219,280,1,
,,,,,,,,,,,,,,,,,,5dc5da21d999de45a504651b,2020-11-27_15h02.54.057,lexical_decision_task_MP_exp2,2020.2.5,Win32,60,z,1,,,,,,,,0.471,1,,,,,,242,NW,"ID",16,unwert,UNWERT,z,0.471,,,,,,,-0.233072917,-0.328125,0,0,0,,0,220,220,301,1,
,,,,,,,,,,,,,,,,,,5dc5da21d999de45a504651b,2020-11-27_15h02.54.057,lexical_decision_task_MP_exp2,2020.2.5,Win32,60,m,1,,,,,,,,0.621,1,,,,,,43,WORD,"ID",16,tongue,TONGUE,m,0.621,,,,,,,-0.233072917,-0.328125,0,0,0,,0,221,221,102,1,
,,,,,,,,,,,,,,,,,,5dc5da21d999de45a504651b,2020-11-27_15h02.54.057,lexical_decision_task_MP_exp2,2020.2.5,Win32,60,m,1,,,,,,,,0.636,1,,,,,,90,WORD,UN,33,expand,RELISH,m,0.636,,,,,,,-0.233072917,-0.328125,0,0,0,,0,222,222,149,1,
,,,,,,,,,,,,,,,,,,5dc5da21d999de45a504651b,2020-11-27_15h02.54.057,lexical_decision_task_MP_exp2,2020.2.5,Win32,60,z,1,,,,,,,,0.528,1,,,,,,259,NW,"ID",16,soudal,SOUDAL,z,0.528,,,,,,,-0.233072917,-0.328125,0,0,0,,0,223,223,318,1,
,,,,,,,,,,,,,,,,,,5dc5da21d999de45a504651b,2020-11-27_15h02.54.057,lexical_decision_task_MP_exp2,2020.2.5,Win32,60,z,1,,,,,,,,0.518,1,,,,,,324,NW,UN,33,thruse,STEIKH,z,0.518,,,,,,,-0.233072917,-0.328125,0,0,0,,0,224,224,383,1,
,,,,,,,,,,,,,,,,,,5dc5da21d999de45a504651b,2020-11-27_15h02.54.057,lexical_decision_task_MP_exp2,2020.2.5,Win32,60,m,1,,,,,,,,0.551,1,,,,,,163,WORD,UN,16,market,STRING,m,0.551,,,,,,,-0.233072917,-0.328125,0,0,0,,0,225,225,222,1,
,,,,,,,,,,,,,,,,,,5dc5da21d999de45a504651b,2020-11-27_15h02.54.057,lexical_decision_task_MP_exp2,2020.2.5,Win32,60,m,1,,,,,,,,0.565,1,,,,,,97,WORD,UN,33,belong,CLIENT,m,0.565,,,,,,,-0.233072917,-0.328125,0,0,0,,0,226,226,156,1,
,,,,,,,,,,,,,,,,,,5dc5da21d999de45a504651b,2020-11-27_15h02.54.057,lexical_decision_task_MP_exp2,2020.2.5,Win32,60,z,1,,,,,,,,0.616,1,,,,,,297,NW,"ID",16,fertic,FERTIC,z,0.616,,,,,,,-0.233072917,-0.328125,0,0,0,,0,227,227,356,1,
,,,,,,,,,,,,,,,,,,5dc5da21d999de45a504651b,2020-11-27_15h02.54.057,lexical_decision_task_MP_exp2,2020.2.5,Win32,60,z,1,,,,,,,,0.604,1,,,,,,422,NW,"ID",33,alcoud,ALCOUD,z,0.604,,,,,,,-0.233072917,-0.328125,0,0,0,,0,228,228,241,1,
,,,,,,,,,,,,,,,,,,5dc5da21d999de45a504651b,2020-11-27_15h02.54.057,lexical_decision_task_MP_exp2,2020.2.5,Win32,60,z,1,,,,,,,,0.513,1,,,,,,388,NW,UN,16,witmer,CRAGIN,z,0.513,,,,,,,-0.233072917,-0.328125,0,0,0,,0,229,229,447,1,
,,,,,,,,,,,,,,,,,,5dc5da21d999de45a504651b,2020-11-27_15h02.54.057,lexical_decision_task_MP_exp2,2020.2.5,Win32,60,m,1,,,,,,,,0.513,1,,,,,,44,WORD,"ID",16,danger,DANGER,m,0.513,,,,,,,-0.233072917,-0.328125,0,0,0,,0,230,230,103,1,
,,,,,,,,,,,,,,,,,,5dc5da21d999de45a504651b,2020-11-27_15h02.54.057,lexical_decision_task_MP_exp2,2020.2.5,Win32,60,m,1,,,,,,,,0.601,1,,,,,,148,WORD,UN,16,invade,CUSTOM,m,0.601,,,,,,,-0.233072917,-0.328125,0,0,0,,0,231,231,207,1,
,,,,,,,,,,,,,,,,,,5dc5da21d999de45a504651b,2020-11-27_15h02.54.057,lexical_decision_task_MP_exp2,2020.2.5,Win32,60,m,1,,,,,,,,0.763,1,,,,,,1,WORD,"ID",16,fright,FRIGHT,m,0.763,,,,,,,-0.233072917,-0.328125,0,0,0,,0,232,232,60,1,
,,,,,,,,,,,,,,,,,,5dc5da21d999de45a504651b,2020-11-27_15h02.54.057,lexical_decision_task_MP_exp2,2020.2.5,Win32,60,m,1,,,,,,,,0.614,1,,,,,,124,WORD,UN,16,nickel,BLOUSE,m,0.614,,,,,,,-0.233072917,-0.328125,0,0,0,,0,233,233,183,1,
,,,,,,,,,,,,,,,,,,5dc5da21d999de45a504651b,2020-11-27_15h02.54.057,lexical_decision_task_MP_exp2,2020.2.5,Win32,60,m,1,,,,,,,,0.56,1,,,,,,138,WORD,UN,16,debris,MELODY,m,0.56,,,,,,,-0.233072917,-0.328125,0,0,0,,0,234,234,197,1,
,,,,,,,,,,,,,,,,,,5dc5da21d999de45a504651b,2020-11-27_15h02.54.057,lexical_decision_task_MP_exp2,2020.2.5,Win32,60,z,1,,,,,,,,0.614,1,,,,,,241,NW,"ID",16,smenco,SMENCO,z,0.614,,,,,,,-0.233072917,-0.328125,0,0,0,,0,235,235,300,1,
,,,,,,,,,,,,,,,,,,5dc5da21d999de45a504651b,2020-11-27_15h02.54.057,lexical_decision_task_MP_exp2,2020.2.5,Win32,60,z,1,,,,,,,,0.554,1,,,,,,479,NW,"ID",33,lobush,LOBUSH,z,0.554,,,,,,,-0.233072917,-0.328125,0,0,0,,0,236,236,298,1,
,,,,,,,,,,,,,,,,,,5dc5da21d999de45a504651b,2020-11-27_15h02.54.057,lexical_decision_task_MP_exp2,2020.2.5,Win32,60,z,1,,,,,,,,0.513,1,,,,,,311,NW,UN,33,nerawl,SPROLY,z,0.513,,,,,,,-0.233072917,-0.328125,0,0,0,,0,237,237,370,1,
,,,,,,,,,,,,,,,,,,5dc5da21d999de45a504651b,2020-11-27_15h02.54.057,lexical_decision_task_MP_exp2,2020.2.5,Win32,60,m,1,,,,,,,,0.544,1,,,,,,39,WORD,"ID",16,insect,INSECT,m,0.544,,,,,,,-0.233072917,-0.328125,0,0,0,,0,238,238,98,1,
,,,,,,,,,,,,,,,,,,5dc5da21d999de45a504651b,2020-11-27_15h02.54.057,lexical_decision_task_MP_exp2,2020.2.5,Win32,60,z,1,,,,,,,,0.665,1,,,,,,419,NW,UN,16,gushop,SLOUNT,z,0.665,,,,,,,-0.233072917,-0.328125,0,0,0,,0,239,239,478,1,
,,,,,,,,,,,,,,,,,,5dc5da21d999de45a504651b,2020-11-27_15h02.54.057,lexical_decision_task_MP_exp2,2020.2.5,Win32,60,m,1,,,,,,,,0.602,1,,,,,,158,WORD,UN,16,detail,ISLAND,m,0.602,,,,,,,-0.233072917,-0.328125,0,0,0,,0,240,240,217,1,
,,,,,,,,,,,,,,,,,,5dc5da21d999de45a504651b,2020-11-27_15h02.54.057,lexical_decision_task_MP_exp2,2020.2.5,Win32,60,z,1,,,,,,,,0.613,1,,,,,,260,NW,"ID",16,unject,UNJECT,z,0.613,,,,,,,-0.233072917,-0.328125,0,0,0,space,0,241,241,319,1,3.915
,,,,,,,,,,,,,,,,,,5dc5da21d999de45a504651b,2020-11-27_15h02.54.057,lexical_decision_task_MP_exp2,2020.2.5,Win32,60,z,1,,,,,,,,0.914,1,,,,,,431,NW,"ID",33,chrums,CHRUMS,z,0.914,,,,,,,-0.233072917,-0.328125,0,0,0,,0,242,242,250,1,
,,,,,,,,,,,,,,,,,,5dc5da21d999de45a504651b,2020-11-27_15h02.54.057,lexical_decision_task_MP_exp2,2020.2.5,Win32,60,z,1,,,,,,,,0.816,1,,,,,,464,NW,"ID",33,chaite,CHAITE,z,0.816,,,,,,,-0.233072917,-0.328125,0,0,0,,0,243,243,283,1,
,,,,,,,,,,,,,,,,,,5dc5da21d999de45a504651b,2020-11-27_15h02.54.057,lexical_decision_task_MP_exp2,2020.2.5,Win32,60,z,1,,,,,,,,0.636,1,,,,,,330,NW,UN,33,gilfew,KENSOM,z,0.636,,,,,,,-0.233072917,-0.328125,0,0,0,,0,244,244,389,1,
,,,,,,,,,,,,,,,,,,5dc5da21d999de45a504651b,2020-11-27_15h02.54.057,lexical_decision_task_MP_exp2,2020.2.5,Win32,60,m,1,,,,,,,,0.614,1,,,,,,33,WORD,"ID",16,butler,BUTLER,m,0.614,,,,,,,-0.233072917,-0.328125,0,0,0,,0,245,245,92,1,
,,,,,,,,,,,,,,,,,,5dc5da21d999de45a504651b,2020-11-27_15h02.54.057,lexical_decision_task_MP_exp2,2020.2.5,Win32,60,m,1,,,,,,,,0.551,1,,,,,,196,WORD,"ID",33,credit,CREDIT,m,0.551,,,,,,,-0.233072917,-0.328125,0,0,0,,0,246,246,15,1,
,,,,,,,,,,,,,,,,,,5dc5da21d999de45a504651b,2020-11-27_15h02.54.057,lexical_decision_task_MP_exp2,2020.2.5,Win32,60,m,1,,,,,,,,0.499,1,,,,,,219,WORD,"ID",33,bucket,BUCKET,m,0.499,,,,,,,-0.233072917,-0.328125,0,0,0,,0,247,247,38,1,
,,,,,,,,,,,,,,,,,,5dc5da21d999de45a504651b,2020-11-27_15h02.54.057,lexical_decision_task_MP_exp2,2020.2.5,Win32,60,m,1,,,,,,,,0.532,1,,,,,,31,WORD,"ID",16,weapon,WEAPON,m,0.532,,,,,,,-0.233072917,-0.328125,0,0,0,,0,248,248,90,1,
,,,,,,,,,,,,,,,,,,5dc5da21d999de45a504651b,2020-11-27_15h02.54.057,lexical_decision_task_MP_exp2,2020.2.5,Win32,60,m,1,,,,,,,,1.016,1,,,,,,141,WORD,UN,16,spruce,ORPHAN,m,1.016,,,,,,,-0.233072917,-0.328125,0,0,0,,0,249,249,200,1,
,,,,,,,,,,,,,,,,,,5dc5da21d999de45a504651b,2020-11-27_15h02.54.057,lexical_decision_task_MP_exp2,2020.2.5,Win32,60,z,1,,,,,,,,0.605,1,,,,,,476,NW,"ID",33,josted,JOSTED,z,0.605,,,,,,,-0.233072917,-0.328125,0,0,0,,0,250,250,295,1,
,,,,,,,,,,,,,,,,,,5dc5da21d999de45a504651b,2020-11-27_15h02.54.057,lexical_decision_task_MP_exp2,2020.2.5,Win32,60,m,0,,,,,,,,0.838,0,,,,,,334,NW,UN,33,desion,WATMEG,z,0.838,,,,,,,-0.233072917,-0.328125,0,0,0,,0,251,251,393,1,
,,,,,,,,,,,,,,,,,,5dc5da21d999de45a504651b,2020-11-27_15h02.54.057,lexical_decision_task_MP_exp2,2020.2.5,Win32,60,z,1,,,,,,,,0.642,1,,,,,,477,NW,"ID",33,photie,PHOTIE,z,0.642,,,,,,,-0.233072917,-0.328125,0,0,0,,0,252,252,296,1,
,,,,,,,,,,,,,,,,,,5dc5da21d999de45a504651b,2020-11-27_15h02.54.057,lexical_decision_task_MP_exp2,2020.2.5,Win32,60,m,1,,,,,,,,0.579,1,,,,,,215,WORD,"ID",33,phobia,PHOBIA,m,0.579,,,,,,,-0.233072917,-0.328125,0,0,0,,0,253,253,34,1,
,,,,,,,,,,,,,,,,,,5dc5da21d999de45a504651b,2020-11-27_15h02.54.057,lexical_decision_task_MP_exp2,2020.2.5,Win32,60,m,1,,,,,,,,0.795,1,,,,,,213,WORD,"ID",33,squeal,SQUEAL,m,0.795,,,,,,,-0.233072917,-0.328125,0,0,0,,0,254,254,32,1,
,,,,,,,,,,,,,,,,,,5dc5da21d999de45a504651b,2020-11-27_15h02.54.057,lexical_decision_task_MP_exp2,2020.2.5,Win32,60,m,1,,,,,,,,0.582,1,,,,,,169,WORD,UN,16,pounce,GENIUS,m,0.582,,,,,,,-0.233072917,-0.328125,0,0,0,,0,255,255,228,1,
,,,,,,,,,,,,,,,,,,5dc5da21d999de45a504651b,2020-11-27_15h02.54.057,lexical_decision_task_MP_exp2,2020.2.5,Win32,60,m,1,,,,,,,,0.521,1,,,,,,34,WORD,"ID",16,jungle,JUNGLE,m,0.521,,,,,,,-0.233072917,-0.328125,0,0,0,,0,256,256,93,1,
,,,,,,,,,,,,,,,,,,5dc5da21d999de45a504651b,2020-11-27_15h02.54.057,lexical_decision_task_MP_exp2,2020.2.5,Win32,60,m,1,,,,,,,,0.6,1,,,,,,151,WORD,UN,16,rocket,MYSTIC,m,0.6,,,,,,,-0.233072917,-0.328125,0,0,0,,0,257,257,210,1,
,,,,,,,,,,,,,,,,,,5dc5da21d999de45a504651b,2020-11-27_15h02.54.057,lexical_decision_task_MP_exp2,2020.2.5,Win32,60,z,1,,,,,,,,0.637,1,,,,,,327,NW,UN,33,broake,PLENAC,z,0.637,,,,,,,-0.233072917,-0.328125,0,0,0,,0,258,258,386,1,
,,,,,,,,,,,,,,,,,,5dc5da21d999de45a504651b,2020-11-27_15h02.54.057,lexical_decision_task_MP_exp2,2020.2.5,Win32,60,z,1,,,,,,,,0.624,1,,,,,,395,NW,UN,16,flengy,COLURY,z,0.624,,,,,,,-0.233072917,-0.328125,0,0,0,,0,259,259,454,1,
,,,,,,,,,,,,,,,,,,5dc5da21d999de45a504651b,2020-11-27_15h02.54.057,lexical_decision_task_MP_exp2,2020.2.5,Win32,60,m,1,,,,,,,,0.579,1,,,,,,12,WORD,"ID",16,orange,ORANGE,m,0.579,,,,,,,-0.233072917,-0.328125,0,0,0,,0,260,260,71,1,
,,,,,,,,,,,,,,,,,,5dc5da21d999de45a504651b,2020-11-27_15h02.54.057,lexical_decision_task_MP_exp2,2020.2.5,Win32,60,m,1,,,,,,,,0.988,1,,,,,,168,WORD,UN,16,genius,ANSWER,m,0.988,,,,,,,-0.233072917,-0.328125,0,0,0,,0,261,261,227,1,
,,,,,,,,,,,,,,,,,,5dc5da21d999de45a504651b,2020-11-27_15h02.54.057,lexical_decision_task_MP_exp2,2020.2.5,Win32,60,m,1,,,,,,,,0.526,1,,,,,,238,WORD,"ID",33,flower,FLOWER,m,0.526,,,,,,,-0.233072917,-0.328125,0,0,0,,0,262,262,57,1,
,,,,,,,,,,,,,,,,,,5dc5da21d999de45a504651b,2020-11-27_15h02.54.057,lexical_decision_task_MP_exp2,2020.2.5,Win32,60,z,1,,,,,,,,0.676,1,,,,,,279,NW,"ID",16,celond,CELOND,z,0.676,,,,,,,-0.233072917,-0.328125,0,0,0,,0,263,263,338,1,
,,,,,,,,,,,,,,,,,,5dc5da21d999de45a504651b,2020-11-27_15h02.54.057,lexical_decision_task_MP_exp2,2020.2.5,Win32,60,z,1,,,,,,,,0.564,1,,,,,,409,NW,UN,16,tunory,ELOPIA,z,0.564,,,,,,,-0.233072917,-0.328125,0,0,0,,0,264,264,468,1,
,,,,,,,,,,,,,,,,,,5dc5da21d999de45a504651b,2020-11-27_15h02.54.057,lexical_decision_task_MP_exp2,2020.2.5,Win32,60,z,1,,,,,,,,0.565,1,,,,,,253,NW,"ID",16,resait,RESAIT,z,0.565,,,,,,,-0.233072917,-0.328125,0,0,0,,0,265,265,312,1,
,,,,,,,,,,,,,,,,,,5dc5da21d999de45a504651b,2020-11-27_15h02.54.057,lexical_decision_task_MP_exp2,2020.2.5,Win32,60,m,1,,,,,,,,0.577,1,,,,,,178,WORD,UN,16,basket,INFORM,m,0.577,,,,,,,-0.233072917,-0.328125,0,0,0,,0,266,266,237,1,
,,,,,,,,,,,,,,,,,,5dc5da21d999de45a504651b,2020-11-27_15h02.54.057,lexical_decision_task_MP_exp2,2020.2.5,Win32,60,m,1,,,,,,,,0.694,1,,,,,,75,WORD,UN,33,exotic,TROPHY,m,0.694,,,,,,,-0.233072917,-0.328125,0,0,0,,0,267,267,134,1,
,,,,,,,,,,,,,,,,,,5dc5da21d999de45a504651b,2020-11-27_15h02.54.057,lexical_decision_task_MP_exp2,2020.2.5,Win32,60,z,1,,,,,,,,0.516,1,,,,,,329,NW,UN,33,kensom,YARIKE,z,0.516,,,,,,,-0.233072917,-0.328125,0,0,0,,0,268,268,388,1,
,,,,,,,,,,,,,,,,,,5dc5da21d999de45a504651b,2020-11-27_15h02.54.057,lexical_decision_task_MP_exp2,2020.2.5,Win32,60,z,1,,,,,,,,0.563,1,,,,,,355,NW,UN,33,othnis,ZINGLY,z,0.563,,,,,,,-0.233072917,-0.328125,0,0,0,,0,269,269,414,1,
,,,,,,,,,,,,,,,,,,5dc5da21d999de45a504651b,2020-11-27_15h02.54.057,lexical_decision_task_MP_exp2,2020.2.5,Win32,60,m,1,,,,,,,,0.512,1,,,,,,128,WORD,UN,16,marvel,SENIOR,m,0.512,,,,,,,-0.233072917,-0.328125,0,0,0,,0,270,270,187,1,
,,,,,,,,,,,,,,,,,,5dc5da21d999de45a504651b,2020-11-27_15h02.54.057,lexical_decision_task_MP_exp2,2020.2.5,Win32,60,m,1,,,,,,,,0.5,1,,,,,,109,WORD,UN,33,polite,WONDER,m,0.5,,,,,,,-0.233072917,-0.328125,0,0,0,,0,271,271,168,1,
,,,,,,,,,,,,,,,,,,5dc5da21d999de45a504651b,2020-11-27_15h02.54.057,lexical_decision_task_MP_exp2,2020.2.5,Win32,60,m,1,,,,,,,,0.468,1,,,,,,220,WORD,"ID",33,voyage,VOYAGE,m,0.468,,,,,,,-0.233072917,-0.328125,0,0,0,,0,272,272,39,1,
,,,,,,,,,,,,,,,,,,5dc5da21d999de45a504651b,2020-11-27_15h02.54.057,lexical_decision_task_MP_exp2,2020.2.5,Win32,60,m,1,,,,,,,,0.5,1,,,,,,216,WORD,"ID",33,behalf,BEHALF,m,0.5,,,,,,,-0.233072917,-0.328125,0,0,0,,0,273,273,35,1,
,,,,,,,,,,,,,,,,,,5dc5da21d999de45a504651b,2020-11-27_15h02.54.057,lexical_decision_task_MP_exp2,2020.2.5,Win32,60,m,1,,,,,,,,0.512,1,,,,,,80,WORD,UN,33,friend,FAMILY,m,0.512,,,,,,,-0.233072917,-0.328125,0,0,0,,0,274,274,139,1,
,,,,,,,,,,,,,,,,,,5dc5da21d999de45a504651b,2020-11-27_15h02.54.057,lexical_decision_task_MP_exp2,2020.2.5,Win32,60,z,1,,,,,,,,0.67,1,,,,,,275,NW,"ID",16,sleirt,SLEIRT,z,0.67,,,,,,,-0.233072917,-0.328125,0,0,0,,0,275,275,334,1,
,,,,,,,,,,,,,,,,,,5dc5da21d999de45a504651b,2020-11-27_15h02.54.057,lexical_decision_task_MP_exp2,2020.2.5,Win32,60,z,1,,,,,,,,0.688,1,,,,,,389,NW,UN,16,hatrus,WITMER,z,0.688,,,,,,,-0.233072917,-0.328125,0,0,0,,0,276,276,448,1,
,,,,,,,,,,,,,,,,,,5dc5da21d999de45a504651b,2020-11-27_15h02.54.057,lexical_decision_task_MP_exp2,2020.2.5,Win32,60,m,1,,,,,,,,0.513,1,,,,,,100,WORD,UN,33,wrench,CARBON,m,0.513,,,,,,,-0.233072917,-0.328125,0,0,0,,0,277,277,159,1,
,,,,,,,,,,,,,,,,,,5dc5da21d999de45a504651b,2020-11-27_15h02.54.057,lexical_decision_task_MP_exp2,2020.2.5,Win32,60,m,1,,,,,,,,0.553,1,,,,,,74,WORD,UN,33,trophy,PLAQUE,m,0.553,,,,,,,-0.233072917,-0.328125,0,0,0,,0,278,278,133,1,
,,,,,,,,,,,,,,,,,,5dc5da21d999de45a504651b,2020-11-27_15h02.54.057,lexical_decision_task_MP_exp2,2020.2.5,Win32,60,z,1,,,,,,,,0.729,1,,,,,,244,NW,"ID",16,eatric,EATRIC,z,0.729,,,,,,,-0.233072917,-0.328125,0,0,0,,0,279,279,303,1,
,,,,,,,,,,,,,,,,,,5dc5da21d999de45a504651b,2020-11-27_15h02.54.057,lexical_decision_task_MP_exp2,2020.2.5,Win32,60,m,1,,,,,,,,0.511,1,,,,,,11,WORD,"ID",16,cruise,CRUISE,m,0.511,,,,,,,-0.233072917,-0.328125,0,0,0,,0,280,280,70,1,
,,,,,,,,,,,,,,,,,,5dc5da21d999de45a504651b,2020-11-27_15h02.54.057,lexical_decision_task_MP_exp2,2020.2.5,Win32,60,m,1,,,,,,,,0.74,1,,,,,,45,WORD,"ID",16,clergy,CLERGY,m,0.74,,,,,,,-0.233072917,-0.328125,0,0,0,,0,281,281,104,1,
,,,,,,,,,,,,,,,,,,5dc5da21d999de45a504651b,2020-11-27_15h02.54.057,lexical_decision_task_MP_exp2,2020.2.5,Win32,60,z,1,,,,,,,,0.616,1,,,,,,408,NW,UN,16,elopia,HURNIA,z,0.616,,,,,,,-0.233072917,-0.328125,0,0,0,,0,282,282,467,1,
,,,,,,,,,,,,,,,,,,5dc5da21d999de45a504651b,2020-11-27_15h02.54.057,lexical_decision_task_MP_exp2,2020.2.5,Win32,60,m,1,,,,,,,,0.503,1,,,,,,127,WORD,UN,16,senior,CASTLE,m,0.503,,,,,,,-0.233072917,-0.328125,0,0,0,,0,283,283,186,1,
,,,,,,,,,,,,,,,,,,5dc5da21d999de45a504651b,2020-11-27_15h02.54.057,lexical_decision_task_MP_exp2,2020.2.5,Win32,60,z,1,,,,,,,,0.629,1,,,,,,473,NW,"ID",33,crible,CRIBLE,z,0.629,,,,,,,-0.233072917,-0.328125,0,0,0,,0,284,284,292,1,
,,,,,,,,,,,,,,,,,,5dc5da21d999de45a504651b,2020-11-27_15h02.54.057,lexical_decision_task_MP_exp2,2020.2.5,Win32,60,m,0,,,,,,,,0.73,0,,,,,,335,NW,UN,33,ghodus,DESION,z,0.73,,,,,,,-0.233072917,-0.328125,0,0,0,,0,285,285,394,1,
,,,,,,,,,,,,,,,,,,5dc5da21d999de45a504651b,2020-11-27_15h02.54.057,lexical_decision_task_MP_exp2,2020.2.5,Win32,60,z,1,,,,,,,,1.054,1,,,,,,348,NW,UN,33,asylen,DUMPLE,z,1.054,,,,,,,-0.233072917,-0.328125,0,0,0,,0,286,286,407,1,
,,,,,,,,,,,,,,,,,,5dc5da21d999de45a504651b,2020-11-27_15h02.54.057,lexical_decision_task_MP_exp2,2020.2.5,Win32,60,z,1,,,,,,,,0.614,1,,,,,,267,NW,"ID",16,pasink,PASINK,z,0.614,,,,,,,-0.233072917,-0.328125,0,0,0,,0,287,287,326,1,
,,,,,,,,,,,,,,,,,,5dc5da21d999de45a504651b,2020-11-27_15h02.54.057,lexical_decision_task_MP_exp2,2020.2.5,Win32,60,m,1,,,,,,,,0.657,1,,,,,,125,WORD,UN,16,enough,NICKEL,m,0.657,,,,,,,-0.233072917,-0.328125,0,0,0,,0,288,288,184,1,
,,,,,,,,,,,,,,,,,,5dc5da21d999de45a504651b,2020-11-27_15h02.54.057,lexical_decision_task_MP_exp2,2020.2.5,Win32,60,m,1,,,,,,,,0.591,1,,,,,,145,WORD,UN,16,couple,PARISH,m,0.591,,,,,,,-0.233072917,-0.328125,0,0,0,,0,289,289,204,1,
,,,,,,,,,,,,,,,,,,5dc5da21d999de45a504651b,2020-11-27_15h02.54.057,lexical_decision_task_MP_exp2,2020.2.5,Win32,60,m,1,,,,,,,,0.715,1,,,,,,92,WORD,UN,33,public,STRAND,m,0.715,,,,,,,-0.233072917,-0.328125,0,0,0,,0,290,290,151,1,
,,,,,,,,,,,,,,,,,,5dc5da21d999de45a504651b,2020-11-27_15h02.54.057,lexical_decision_task_MP_exp2,2020.2.5,Win32,60,z,1,,,,,,,,1.16,1,,,,,,439,NW,"ID",33,limpor,LIMPOR,z,1.16,,,,,,,-0.233072917,-0.328125,0,0,0,,0,291,291,258,1,
,,,,,,,,,,,,,,,,,,5dc5da21d999de45a504651b,2020-11-27_15h02.54.057,lexical_decision_task_MP_exp2,2020.2.5,Win32,60,m,1,,,,,,,,0.554,1,,,,,,189,WORD,"ID",33,censor,CENSOR,m,0.554,,,,,,,-0.233072917,-0.328125,0,0,0,,0,292,292,8,1,
,,,,,,,,,,,,,,,,,,5dc5da21d999de45a504651b,2020-11-27_15h02.54.057,lexical_decision_task_MP_exp2,2020.2.5,Win32,60,z,1,,,,,,,,0.707,1,,,,,,446,NW,"ID",33,runamo,RUNAMO,z,0.707,,,,,,,-0.233072917,-0.328125,0,0,0,,0,293,293,265,1,
,,,,,,,,,,,,,,,,,,5dc5da21d999de45a504651b,2020-11-27_15h02.54.057,lexical_decision_task_MP_exp2,2020.2.5,Win32,60,m,1,,,,,,,,0.639,1,,,,,,123,WORD,UN,16,blouse,STRIKE,m,0.639,,,,,,,-0.233072917,-0.328125,0,0,0,,0,294,294,182,1,
,,,,,,,,,,,,,,,,,,5dc5da21d999de45a504651b,2020-11-27_15h02.54.057,lexical_decision_task_MP_exp2,2020.2.5,Win32,60,z,1,,,,,,,,0.692,1,,,,,,272,NW,"ID",16,damilt,DAMILT,z,0.692,,,,,,,-0.233072917,-0.328125,0,0,0,,0,295,295,331,1,
,,,,,,,,,,,,,,,,,,5dc5da21d999de45a504651b,2020-11-27_15h02.54.057,lexical_decision_task_MP_exp2,2020.2.5,Win32,60,m,1,,,,,,,,0.579,1,,,,,,37,WORD,"ID",16,insult,INSULT,m,0.579,,,,,,,-0.233072917,-0.328125,0,0,0,,0,296,296,96,1,
,,,,,,,,,,,,,,,,,,5dc5da21d999de45a504651b,2020-11-27_15h02.54.057,lexical_decision_task_MP_exp2,2020.2.5,Win32,60,m,1,,,,,,,,0.613,1,,,,,,52,WORD,"ID",16,impose,IMPOSE,m,0.613,,,,,,,-0.233072917,-0.328125,0,0,0,,0,297,297,111,1,
,,,,,,,,,,,,,,,,,,5dc5da21d999de45a504651b,2020-11-27_15h02.54.057,lexical_decision_task_MP_exp2,2020.2.5,Win32,60,m,1,,,,,,,,0.643,1,,,,,,54,WORD,"ID",16,ramble,RAMBLE,m,0.643,,,,,,,-0.233072917,-0.328125,0,0,0,,0,298,298,113,1,
,,,,,,,,,,,,,,,,,,5dc5da21d999de45a504651b,2020-11-27_15h02.54.057,lexical_decision_task_MP_exp2,2020.2.5,Win32,60,m,0,,,,,,,,0.649,0,,,,,,352,NW,UN,33,clurey,TRINGE,z,0.649,,,,,,,-0.233072917,-0.328125,0,0,0,,0,299,299,411,1,
,,,,,,,,,,,,,,,,,,5dc5da21d999de45a504651b,2020-11-27_15h02.54.057,lexical_decision_task_MP_exp2,2020.2.5,Win32,60,m,1,,,,,,,,0.582,1,,,,,,228,WORD,"ID",33,master,MASTER,m,0.582,,,,,,,-0.233072917,-0.328125,0,0,0,,0,300,300,47,1,
,,,,,,,,,,,,,,,,,,5dc5da21d999de45a504651b,2020-11-27_15h02.54.057,lexical_decision_task_MP_exp2,2020.2.5,Win32,60,m,1,,,,,,,,0.5,1,,,,,,103,WORD,UN,33,studio,BOUNCE,m,0.5,,,,,,,-0.233072917,-0.328125,0,0,0,,0,301,301,162,1,
,,,,,,,,,,,,,,,,,,5dc5da21d999de45a504651b,2020-11-27_15h02.54.057,lexical_decision_task_MP_exp2,2020.2.5,Win32,60,z,0,,,,,,,,0.601,0,,,,,,114,WORD,UN,33,guitar,PLACID,m,0.601,,,,,,,-0.233072917,-0.328125,0,0,0,,0,302,302,173,1,
,,,,,,,,,,,,,,,,,,5dc5da21d999de45a504651b,2020-11-27_15h02.54.057,lexical_decision_task_MP_exp2,2020.2.5,Win32,60,m,1,,,,,,,,0.529,1,,,,,,30,WORD,"ID",16,orient,ORIENT,m,0.529,,,,,,,-0.233072917,-0.328125,0,0,0,,0,303,303,89,1,
,,,,,,,,,,,,,,,,,,5dc5da21d999de45a504651b,2020-11-27_15h02.54.057,lexical_decision_task_MP_exp2,2020.2.5,Win32,60,m,0,,,,,,,,0.5,0,,,,,,449,NW,"ID",33,brunge,BRUNGE,z,0.5,,,,,,,-0.233072917,-0.328125,0,0,0,,0,304,304,268,1,
,,,,,,,,,,,,,,,,,,5dc5da21d999de45a504651b,2020-11-27_15h02.54.057,lexical_decision_task_MP_exp2,2020.2.5,Win32,60,z,1,,,,,,,,0.739,1,,,,,,368,NW,UN,16,wronch,HORNAL,z,0.739,,,,,,,-0.233072917,-0.328125,0,0,0,,0,305,305,427,1,
,,,,,,,,,,,,,,,,,,5dc5da21d999de45a504651b,2020-11-27_15h02.54.057,lexical_decision_task_MP_exp2,2020.2.5,Win32,60,z,1,,,,,,,,0.621,1,,,,,,326,NW,UN,33,plenac,IGUADE,z,0.621,,,,,,,-0.233072917,-0.328125,0,0,0,,0,306,306,385,1,
,,,,,,,,,,,,,,,,,,5dc5da21d999de45a504651b,2020-11-27_15h02.54.057,lexical_decision_task_MP_exp2,2020.2.5,Win32,60,m,1,,,,,,,,0.64,1,,,,,,226,WORD,"ID",33,casino,CASINO,m,0.64,,,,,,,-0.233072917,-0.328125,0,0,0,,0,307,307,45,1,
,,,,,,,,,,,,,,,,,,5dc5da21d999de45a504651b,2020-11-27_15h02.54.057,lexical_decision_task_MP_exp2,2020.2.5,Win32,60,z,1,,,,,,,,0.759,1,,,,,,378,NW,UN,16,auting,SHRILE,z,0.759,,,,,,,-0.233072917,-0.328125,0,0,0,,0,308,308,437,1,
,,,,,,,,,,,,,,,,,,5dc5da21d999de45a504651b,2020-11-27_15h02.54.057,lexical_decision_task_MP_exp2,2020.2.5,Win32,60,m,1,,,,,,,,0.574,1,,,,,,98,WORD,UN,33,fluent,BELONG,m,0.574,,,,,,,-0.233072917,-0.328125,0,0,0,,0,309,309,157,1,
,,,,,,,,,,,,,,,,,,5dc5da21d999de45a504651b,2020-11-27_15h02.54.057,lexical_decision_task_MP_exp2,2020.2.5,Win32,60,z,1,,,,,,,,0.659,1,,,,,,313,NW,UN,33,sprine,PAURSE,z,0.659,,,,,,,-0.233072917,-0.328125,0,0,0,,0,310,310,372,1,
,,,,,,,,,,,,,,,,,,5dc5da21d999de45a504651b,2020-11-27_15h02.54.057,lexical_decision_task_MP_exp2,2020.2.5,Win32,60,z,1,,,,,,,,0.67,1,,,,,,358,NW,UN,33,fonver,FLEACK,z,0.67,,,,,,,-0.233072917,-0.328125,0,0,0,,0,311,311,417,1,
,,,,,,,,,,,,,,,,,,5dc5da21d999de45a504651b,2020-11-27_15h02.54.057,lexical_decision_task_MP_exp2,2020.2.5,Win32,60,m,1,,,,,,,,0.615,1,,,,,,81,WORD,UN,33,stigma,FRIEND,m,0.615,,,,,,,-0.233072917,-0.328125,0,0,0,,0,312,312,140,1,
,,,,,,,,,,,,,,,,,,5dc5da21d999de45a504651b,2020-11-27_15h02.54.057,lexical_decision_task_MP_exp2,2020.2.5,Win32,60,m,1,,,,,,,,0.617,1,,,,,,134,WORD,UN,16,import,STAPLE,m,0.617,,,,,,,-0.233072917,-0.328125,0,0,0,,0,313,313,193,1,
,,,,,,,,,,,,,,,,,,5dc5da21d999de45a504651b,2020-11-27_15h02.54.057,lexical_decision_task_MP_exp2,2020.2.5,Win32,60,z,1,,,,,,,,0.621,1,,,,,,363,NW,UN,16,impote,BREALI,z,0.621,,,,,,,-0.233072917,-0.328125,0,0,0,,0,314,314,422,1,
,,,,,,,,,,,,,,,,,,5dc5da21d999de45a504651b,2020-11-27_15h02.54.057,lexical_decision_task_MP_exp2,2020.2.5,Win32,60,z,1,,,,,,,,0.669,1,,,,,,295,NW,"ID",16,gleath,GLEATH,z,0.669,,,,,,,-0.233072917,-0.328125,0,0,0,,0,315,315,354,1,
,,,,,,,,,,,,,,,,,,5dc5da21d999de45a504651b,2020-11-27_15h02.54.057,lexical_decision_task_MP_exp2,2020.2.5,Win32,60,z,1,,,,,,,,0.656,1,,,,,,421,NW,"ID",33,knisma,KNISMA,z,0.656,,,,,,,-0.233072917,-0.328125,0,0,0,,0,316,316,240,1,
,,,,,,,,,,,,,,,,,,5dc5da21d999de45a504651b,2020-11-27_15h02.54.057,lexical_decision_task_MP_exp2,2020.2.5,Win32,60,z,1,,,,,,,,0.511,1,,,,,,290,NW,"ID",16,splino,SPLINO,z,0.511,,,,,,,-0.233072917,-0.328125,0,0,0,,0,317,317,349,1,
,,,,,,,,,,,,,,,,,,5dc5da21d999de45a504651b,2020-11-27_15h02.54.057,lexical_decision_task_MP_exp2,2020.2.5,Win32,60,m,1,,,,,,,,0.632,1,,,,,,224,WORD,"ID",33,period,PERIOD,m,0.632,,,,,,,-0.233072917,-0.328125,0,0,0,,0,318,318,43,1,
,,,,,,,,,,,,,,,,,,5dc5da21d999de45a504651b,2020-11-27_15h02.54.057,lexical_decision_task_MP_exp2,2020.2.5,Win32,60,z,1,,,,,,,,0.627,1,,,,,,256,NW,"ID",16,inlors,INLORS,z,0.627,,,,,,,-0.233072917,-0.328125,0,0,0,,0,319,319,315,1,
,,,,,,,,,,,,,,,,,,5dc5da21d999de45a504651b,2020-11-27_15h02.54.057,lexical_decision_task_MP_exp2,2020.2.5,Win32,60,m,1,,,,,,,,0.515,1,,,,,,231,WORD,"ID",33,export,EXPORT,m,0.515,,,,,,,-0.233072917,-0.328125,0,0,0,,0,320,320,50,1,
,,,,,,,,,,,,,,,,,,5dc5da21d999de45a504651b,2020-11-27_15h02.54.057,lexical_decision_task_MP_exp2,2020.2.5,Win32,60,z,1,,,,,,,,0.728,1,,,,,,344,NW,UN,33,absend,SCRILY,z,0.728,,,,,,,-0.233072917,-0.328125,0,0,0,,0,321,321,403,1,
,,,,,,,,,,,,,,,,,,5dc5da21d999de45a504651b,2020-11-27_15h02.54.057,lexical_decision_task_MP_exp2,2020.2.5,Win32,60,z,1,,,,,,,,0.727,1,,,,,,442,NW,"ID",33,aboune,ABOUNE,z,0.727,,,,,,,-0.233072917,-0.328125,0,0,0,,0,322,322,261,1,
,,,,,,,,,,,,,,,,,,5dc5da21d999de45a504651b,2020-11-27_15h02.54.057,lexical_decision_task_MP_exp2,2020.2.5,Win32,60,z,1,,,,,,,,0.851,1,,,,,,372,NW,UN,16,bigent,RAMILY,z,0.851,,,,,,,-0.233072917,-0.328125,0,0,0,,0,323,323,431,1,
,,,,,,,,,,,,,,,,,,5dc5da21d999de45a504651b,2020-11-27_15h02.54.057,lexical_decision_task_MP_exp2,2020.2.5,Win32,60,z,1,,,,,,,,0.487,1,,,,,,444,NW,"ID",33,jaunce,JAUNCE,z,0.487,,,,,,,-0.233072917,-0.328125,0,0,0,,0,324,324,263,1,
,,,,,,,,,,,,,,,,,,5dc5da21d999de45a504651b,2020-11-27_15h02.54.057,lexical_decision_task_MP_exp2,2020.2.5,Win32,60,z,0,,,,,,,,0.534,0,,,,,,176,WORD,UN,16,advent,STRIFE,m,0.534,,,,,,,-0.233072917,-0.328125,0,0,0,,0,325,325,235,1,
,,,,,,,,,,,,,,,,,,5dc5da21d999de45a504651b,2020-11-27_15h02.54.057,lexical_decision_task_MP_exp2,2020.2.5,Win32,60,m,1,,,,,,,,0.56,1,,,,,,165,WORD,UN,16,starch,INVEST,m,0.56,,,,,,,-0.233072917,-0.328125,0,0,0,,0,326,326,224,1,
,,,,,,,,,,,,,,,,,,5dc5da21d999de45a504651b,2020-11-27_15h02.54.057,lexical_decision_task_MP_exp2,2020.2.5,Win32,60,z,1,,,,,,,,0.737,1,,,,,,315,NW,UN,33,scregm,LASTON,z,0.737,,,,,,,-0.233072917,-0.328125,0,0,0,,0,327,327,374,1,
,,,,,,,,,,,,,,,,,,5dc5da21d999de45a504651b,2020-11-27_15h02.54.057,lexical_decision_task_MP_exp2,2020.2.5,Win32,60,z,1,,,,,,,,0.606,1,,,,,,286,NW,"ID",16,reldon,RELDON,z,0.606,,,,,,,-0.233072917,-0.328125,0,0,0,,0,328,328,345,1,
,,,,,,,,,,,,,,,,,,5dc5da21d999de45a504651b,2020-11-27_15h02.54.057,lexical_decision_task_MP_exp2,2020.2.5,Win32,60,z,1,,,,,,,,0.498,1,,,,,,436,NW,"ID",33,frutan,FRUTAN,z,0.498,,,,,,,-0.233072917,-0.328125,0,0,0,,0,329,329,255,1,
,,,,,,,,,,,,,,,,,,5dc5da21d999de45a504651b,2020-11-27_15h02.54.057,lexical_decision_task_MP_exp2,2020.2.5,Win32,60,z,1,,,,,,,,0.348,1,,,,,,309,NW,UN,33,daniet,AMILOY,z,0.348,,,,,,,-0.233072917,-0.328125,0,0,0,,0,330,330,368,1,
,,,,,,,,,,,,,,,,,,5dc5da21d999de45a504651b,2020-11-27_15h02.54.057,lexical_decision_task_MP_exp2,2020.2.5,Win32,60,z,1,,,,,,,,0.496,1,,,,,,413,NW,UN,16,serbol,EQUATS,z,0.496,,,,,,,-0.233072917,-0.328125,0,0,0,,0,331,331,472,1,
,,,,,,,,,,,,,,,,,,5dc5da21d999de45a504651b,2020-11-27_15h02.54.057,lexical_decision_task_MP_exp2,2020.2.5,Win32,60,z,1,,,,,,,,0.714,1,,,,,,249,NW,"ID",16,batrol,BATROL,z,0.714,,,,,,,-0.233072917,-0.328125,0,0,0,,0,332,332,308,1,
,,,,,,,,,,,,,,,,,,5dc5da21d999de45a504651b,2020-11-27_15h02.54.057,lexical_decision_task_MP_exp2,2020.2.5,Win32,60,z,1,,,,,,,,0.452,1,,,,,,404,NW,UN,16,flumni,CLUIRM,z,0.452,,,,,,,-0.233072917,-0.328125,0,0,0,,0,333,333,463,1,
,,,,,,,,,,,,,,,,,,5dc5da21d999de45a504651b,2020-11-27_15h02.54.057,lexical_decision_task_MP_exp2,2020.2.5,Win32,60,z,1,,,,,,,,0.433,1,,,,,,447,NW,"ID",33,gircue,GIRCUE,z,0.433,,,,,,,-0.233072917,-0.328125,0,0,0,,0,334,334,266,1,
,,,,,,,,,,,,,,,,,,5dc5da21d999de45a504651b,2020-11-27_15h02.54.057,lexical_decision_task_MP_exp2,2020.2.5,Win32,60,z,0,,,,,,,,0.403,0,,,,,,194,WORD,"ID",33,absent,ABSENT,m,0.403,,,,,,,-0.233072917,-0.328125,0,0,0,,0,335,335,13,1,
,,,,,,,,,,,,,,,,,,5dc5da21d999de45a504651b,2020-11-27_15h02.54.057,lexical_decision_task_MP_exp2,2020.2.5,Win32,60,z,0,,,,,,,,0.429,0,,,,,,130,WORD,UN,16,quench,STUPID,m,0.429,,,,,,,-0.233072917,-0.328125,0,0,0,,0,336,336,189,1,
,,,,,,,,,,,,,,,,,,5dc5da21d999de45a504651b,2020-11-27_15h02.54.057,lexical_decision_task_MP_exp2,2020.2.5,Win32,60,z,1,,,,,,,,0.362,1,,,,,,353,NW,UN,33,virlex,CLUREY,z,0.362,,,,,,,-0.233072917,-0.328125,0,0,0,,0,337,337,412,1,
,,,,,,,,,,,,,,,,,,5dc5da21d999de45a504651b,2020-11-27_15h02.54.057,lexical_decision_task_MP_exp2,2020.2.5,Win32,60,,0,,,,,,,,0.362,-1,,,,,,346,NW,UN,33,kerift,SAUDIC,z,,,,,,,,-0.233072917,-0.328125,0,0,0,,0,338,338,405,1,
,,,,,,,,,,,,,,,,,,5dc5da21d999de45a504651b,2020-11-27_15h02.54.057,lexical_decision_task_MP_exp2,2020.2.5,Win32,60,z,0,,,,,,,,0.977,0,,,,,,99,WORD,UN,33,carbon,FLUENT,m,0.977,,,,,,,-0.233072917,-0.328125,0,0,0,,0,339,339,158,1,
,,,,,,,,,,,,,,,,,,5dc5da21d999de45a504651b,2020-11-27_15h02.54.057,lexical_decision_task_MP_exp2,2020.2.5,Win32,60,z,1,,,,,,,,0.767,1,,,,,,294,NW,"ID",16,inhort,INHORT,z,0.767,,,,,,,-0.233072917,-0.328125,0,0,0,,0,340,340,353,1,
,,,,,,,,,,,,,,,,,,5dc5da21d999de45a504651b,2020-11-27_15h02.54.057,lexical_decision_task_MP_exp2,2020.2.5,Win32,60,z,0,,,,,,,,0.385,0,,,,,,2,WORD,"ID",16,bridge,BRIDGE,m,0.385,,,,,,,-0.233072917,-0.328125,0,0,0,,0,341,341,61,1,
,,,,,,,,,,,,,,,,,,5dc5da21d999de45a504651b,2020-11-27_15h02.54.057,lexical_decision_task_MP_exp2,2020.2.5,Win32,60,m,1,,,,,,,,0.564,1,,,,,,155,WORD,UN,16,cradle,LIZARD,m,0.564,,,,,,,-0.233072917,-0.328125,0,0,0,,0,342,342,214,1,
,,,,,,,,,,,,,,,,,,5dc5da21d999de45a504651b,2020-11-27_15h02.54.057,lexical_decision_task_MP_exp2,2020.2.5,Win32,60,z,1,,,,,,,,0.605,1,,,,,,283,NW,"ID",16,veralf,VERALF,z,0.605,,,,,,,-0.233072917,-0.328125,0,0,0,,0,343,343,342,1,
,,,,,,,,,,,,,,,,,,5dc5da21d999de45a504651b,2020-11-27_15h02.54.057,lexical_decision_task_MP_exp2,2020.2.5,Win32,60,m,1,,,,,,,,0.879,1,,,,,,108,WORD,UN,33,wonder,RECKON,m,0.879,,,,,,,-0.233072917,-0.328125,0,0,0,,0,344,344,167,1,
,,,,,,,,,,,,,,,,,,5dc5da21d999de45a504651b,2020-11-27_15h02.54.057,lexical_decision_task_MP_exp2,2020.2.5,Win32,60,m,1,,,,,,,,0.58,1,,,,,,234,WORD,"ID",33,clumsy,CLUMSY,m,0.58,,,,,,,-0.233072917,-0.328125,0,0,0,,0,345,345,53,1,
,,,,,,,,,,,,,,,,,,5dc5da21d999de45a504651b,2020-11-27_15h02.54.057,lexical_decision_task_MP_exp2,2020.2.5,Win32,60,z,1,,,,,,,,0.95,1,,,,,,380,NW,UN,16,huniek,CAVORY,z,0.95,,,,,,,-0.233072917,-0.328125,0,0,0,,0,346,346,439,1,
,,,,,,,,,,,,,,,,,,5dc5da21d999de45a504651b,2020-11-27_15h02.54.057,lexical_decision_task_MP_exp2,2020.2.5,Win32,60,m,1,,,,,,,,0.633,1,,,,,,223,WORD,"ID",33,kidney,KIDNEY,m,0.633,,,,,,,-0.233072917,-0.328125,0,0,0,,0,347,347,42,1,
,,,,,,,,,,,,,,,,,,5dc5da21d999de45a504651b,2020-11-27_15h02.54.057,lexical_decision_task_MP_exp2,2020.2.5,Win32,60,,0,,,,,,,,0.633,-1,,,,,,415,NW,UN,16,pathel,HIGSTA,z,,,,,,,,-0.233072917,-0.328125,0,0,0,,0,348,348,474,1,
,,,,,,,,,,,,,,,,,,5dc5da21d999de45a504651b,2020-11-27_15h02.54.057,lexical_decision_task_MP_exp2,2020.2.5,Win32,60,,0,,,,,,,,0.633,-1,,,,,,14,WORD,"ID",16,almost,ALMOST,m,,,,,,,,-0.233072917,-0.328125,0,0,0,,0,349,349,73,1,
,,,,,,,,,,,,,,,,,,5dc5da21d999de45a504651b,2020-11-27_15h02.54.057,lexical_decision_task_MP_exp2,2020.2.5,Win32,60,,0,,,,,,,,0.633,-1,,,,,,407,NW,UN,16,hurnia,SUIVER,z,,,,,,,,-0.233072917,-0.328125,0,0,0,,0,350,350,466,1,
,,,,,,,,,,,,,,,,,,5dc5da21d999de45a504651b,2020-11-27_15h02.54.057,lexical_decision_task_MP_exp2,2020.2.5,Win32,60,,0,,,,,,,,0.633,-1,,,,,,175,WORD,UN,16,strife,FABRIC,m,,,,,,,,-0.233072917,-0.328125,0,0,0,,0,351,351,234,1,
,,,,,,,,,,,,,,,,,,5dc5da21d999de45a504651b,2020-11-27_15h02.54.057,lexical_decision_task_MP_exp2,2020.2.5,Win32,60,,0,,,,,,,,0.633,-1,,,,,,336,NW,UN,33,rejols,GHODUS,z,,,,,,,,-0.233072917,-0.328125,0,0,0,,0,352,352,395,1,
,,,,,,,,,,,,,,,,,,5dc5da21d999de45a504651b,2020-11-27_15h02.54.057,lexical_decision_task_MP_exp2,2020.2.5,Win32,60,,0,,,,,,,,0.633,-1,,,,,,86,WORD,UN,33,filter,RODENT,m,,,,,,,,-0.233072917,-0.328125,0,0,0,,0,353,353,145,1,
,,,,,,,,,,,,,,,,,,5dc5da21d999de45a504651b,2020-11-27_15h02.54.057,lexical_decision_task_MP_exp2,2020.2.5,Win32,60,,0,,,,,,,,0.633,-1,,,,,,282,NW,"ID",16,porlex,PORLEX,z,,,,,,,,-0.233072917,-0.328125,0,0,0,,0,354,354,341,1,
,,,,,,,,,,,,,,,,,,5dc5da21d999de45a504651b,2020-11-27_15h02.54.057,lexical_decision_task_MP_exp2,2020.2.5,Win32,60,,0,,,,,,,,0.633,-1,,,,,,391,NW,UN,16,rouncy,THELDY,z,,,,,,,,-0.233072917,-0.328125,0,0,0,,0,355,355,450,1,
,,,,,,,,,,,,,,,,,,5dc5da21d999de45a504651b,2020-11-27_15h02.54.057,lexical_decision_task_MP_exp2,2020.2.5,Win32,60,,0,,,,,,,,0.633,-1,,,,,,206,WORD,"ID",33,tailor,TAILOR,m,,,,,,,,-0.233072917,-0.328125,0,0,0,,0,356,356,25,1,
,,,,,,,,,,,,,,,,,,5dc5da21d999de45a504651b,2020-11-27_15h02.54.057,lexical_decision_task_MP_exp2,2020.2.5,Win32,60,,0,,,,,,,,0.633,-1,,,,,,115,WORD,UN,33,tumble,GUITAR,m,,,,,,,,-0.233072917,-0.328125,0,0,0,,0,357,357,174,1,
,,,,,,,,,,,,,,,,,,5dc5da21d999de45a504651b,2020-11-27_15h02.54.057,lexical_decision_task_MP_exp2,2020.2.5,Win32,60,,0,,,,,,,,0.633,-1,,,,,,252,NW,"ID",16,stapod,STAPOD,z,,,,,,,,-0.233072917,-0.328125,0,0,0,,0,358,358,311,1,
,,,,,,,,,,,,,,,,,,5dc5da21d999de45a504651b,2020-11-27_15h02.54.057,lexical_decision_task_MP_exp2,2020.2.5,Win32,60,z,1,,,,,,,,0.768,1,,,,,,248,NW,"ID",16,strole,STROLE,z,0.768,,,,,,,-0.233072917,-0.328125,0,0,0,,0,359,359,307,1,
,,,,,,,,,,,,,,,,,,5dc5da21d999de45a504651b,2020-11-27_15h02.54.057,lexical_decision_task_MP_exp2,2020.2.5,Win32,60,z,1,,,,,,,,0.767,1,,,,,,376,NW,UN,16,veigma,IGUARE,z,0.767,,,,,,,-0.233072917,-0.328125,0,0,0,,0,360,360,435,1,
,,,,,,,,,,,,,,,,,,5dc5da21d999de45a504651b,2020-11-27_15h02.54.057,lexical_decision_task_MP_exp2,2020.2.5,Win32,60,z,1,,,,,,,,0.47,1,,,,,,457,NW,"ID",33,wanigh,WANIGH,z,0.47,,,,,,,-0.233072917,-0.328125,0,0,0,,0,361,361,276,1,
,,,,,,,,,,,,,,,,,,5dc5da21d999de45a504651b,2020-11-27_15h02.54.057,lexical_decision_task_MP_exp2,2020.2.5,Win32,60,m,1,,,,,,,,0.657,1,,,,,,149,WORD,UN,16,random,INVADE,m,0.657,,,,,,,-0.233072917,-0.328125,0,0,0,space,0,362,362,208,1,22.598
,,,,,,,,,,,,,,,,,,5dc5da21d999de45a504651b,2020-11-27_15h02.54.057,lexical_decision_task_MP_exp2,2020.2.5,Win32,60,z,1,,,,,,,,1.277,1,,,,,,432,NW,"ID",33,lunker,LUNKER,z,1.277,,,,,,,-0.233072917,-0.328125,0,0,0,,0,363,363,251,1,
,,,,,,,,,,,,,,,,,,5dc5da21d999de45a504651b,2020-11-27_15h02.54.057,lexical_decision_task_MP_exp2,2020.2.5,Win32,60,z,1,,,,,,,,0.641,1,,,,,,430,NW,"ID",33,caroey,CAROEY,z,0.641,,,,,,,-0.233072917,-0.328125,0,0,0,,0,364,364,249,1,
,,,,,,,,,,,,,,,,,,5dc5da21d999de45a504651b,2020-11-27_15h02.54.057,lexical_decision_task_MP_exp2,2020.2.5,Win32,60,z,1,,,,,,,,0.558,1,,,,,,281,NW,"ID",16,melaty,MELATY,z,0.558,,,,,,,-0.233072917,-0.328125,0,0,0,,0,365,365,340,1,
,,,,,,,,,,,,,,,,,,5dc5da21d999de45a504651b,2020-11-27_15h02.54.057,lexical_decision_task_MP_exp2,2020.2.5,Win32,60,m,1,,,,,,,,0.852,1,,,,,,211,WORD,"ID",33,infect,INFECT,m,0.852,,,,,,,-0.233072917,-0.328125,0,0,0,,0,366,366,30,1,
,,,,,,,,,,,,,,,,,,5dc5da21d999de45a504651b,2020-11-27_15h02.54.057,lexical_decision_task_MP_exp2,2020.2.5,Win32,60,m,1,,,,,,,,0.698,1,,,,,,10,WORD,"ID",16,ethnic,ETHNIC,m,0.698,,,,,,,-0.233072917,-0.328125,0,0,0,,0,367,367,69,1,
,,,,,,,,,,,,,,,,,,5dc5da21d999de45a504651b,2020-11-27_15h02.54.057,lexical_decision_task_MP_exp2,2020.2.5,Win32,60,m,1,,,,,,,,0.652,1,,,,,,29,WORD,"ID",16,sketch,SKETCH,m,0.652,,,,,,,-0.233072917,-0.328125,0,0,0,,0,368,368,88,1,
,,,,,,,,,,,,,,,,,,5dc5da21d999de45a504651b,2020-11-27_15h02.54.057,lexical_decision_task_MP_exp2,2020.2.5,Win32,60,z,1,,,,,,,,0.73,1,,,,,,264,NW,"ID",16,vackel,VACKEL,z,0.73,,,,,,,-0.233072917,-0.328125,0,0,0,,0,369,369,323,1,
,,,,,,,,,,,,,,,,,,5dc5da21d999de45a504651b,2020-11-27_15h02.54.057,lexical_decision_task_MP_exp2,2020.2.5,Win32,60,z,1,,,,,,,,0.57,1,,,,,,247,NW,"ID",16,blarge,BLARGE,z,0.57,,,,,,,-0.233072917,-0.328125,0,0,0,,0,370,370,306,1,
,,,,,,,,,,,,,,,,,,5dc5da21d999de45a504651b,2020-11-27_15h02.54.057,lexical_decision_task_MP_exp2,2020.2.5,Win32,60,z,1,,,,,,,,0.588,1,,,,,,396,NW,UN,16,camble,FLENGY,z,0.588,,,,,,,-0.233072917,-0.328125,0,0,0,,0,371,371,455,1,
,,,,,,,,,,,,,,,,,,5dc5da21d999de45a504651b,2020-11-27_15h02.54.057,lexical_decision_task_MP_exp2,2020.2.5,Win32,60,m,1,,,,,,,,0.617,1,,,,,,60,WORD,"ID",16,pencil,PENCIL,m,0.617,,,,,,,-0.233072917,-0.328125,0,0,0,,0,372,372,119,1,
,,,,,,,,,,,,,,,,,,5dc5da21d999de45a504651b,2020-11-27_15h02.54.057,lexical_decision_task_MP_exp2,2020.2.5,Win32,60,m,1,,,,,,,,0.621,1,,,,,,7,WORD,"ID",16,anchor,ANCHOR,m,0.621,,,,,,,-0.233072917,-0.328125,0,0,0,,0,373,373,66,1,
,,,,,,,,,,,,,,,,,,5dc5da21d999de45a504651b,2020-11-27_15h02.54.057,lexical_decision_task_MP_exp2,2020.2.5,Win32,60,m,1,,,,,,,,0.556,1,,,,,,170,WORD,UN,16,dragon,POUNCE,m,0.556,,,,,,,-0.233072917,-0.328125,0,0,0,,0,374,374,229,1,
,,,,,,,,,,,,,,,,,,5dc5da21d999de45a504651b,2020-11-27_15h02.54.057,lexical_decision_task_MP_exp2,2020.2.5,Win32,60,m,1,,,,,,,,0.537,1,,,,,,137,WORD,UN,16,melody,FINGER,m,0.537,,,,,,,-0.233072917,-0.328125,0,0,0,,0,375,375,196,1,
,,,,,,,,,,,,,,,,,,5dc5da21d999de45a504651b,2020-11-27_15h02.54.057,lexical_decision_task_MP_exp2,2020.2.5,Win32,60,m,1,,,,,,,,0.865,1,,,,,,122,WORD,UN,16,strike,LINGER,m,0.865,,,,,,,-0.233072917,-0.328125,0,0,0,,0,376,376,181,1,
,,,,,,,,,,,,,,,,,,5dc5da21d999de45a504651b,2020-11-27_15h02.54.057,lexical_decision_task_MP_exp2,2020.2.5,Win32,60,m,1,,,,,,,,0.706,1,,,,,,159,WORD,UN,16,violet,DETAIL,m,0.706,,,,,,,-0.233072917,-0.328125,0,0,0,,0,377,377,218,1,
,,,,,,,,,,,,,,,,,,5dc5da21d999de45a504651b,2020-11-27_15h02.54.057,lexical_decision_task_MP_exp2,2020.2.5,Win32,60,z,1,,,,,,,,0.579,1,,,,,,440,NW,"ID",33,saride,SARIDE,z,0.579,,,,,,,-0.233072917,-0.328125,0,0,0,,0,378,378,259,1,
,,,,,,,,,,,,,,,,,,5dc5da21d999de45a504651b,2020-11-27_15h02.54.057,lexical_decision_task_MP_exp2,2020.2.5,Win32,60,z,1,,,,,,,,0.532,1,,,,,,478,NW,"ID",33,acrise,ACRISE,z,0.532,,,,,,,-0.233072917,-0.328125,0,0,0,,0,379,379,297,1,
,,,,,,,,,,,,,,,,,,5dc5da21d999de45a504651b,2020-11-27_15h02.54.057,lexical_decision_task_MP_exp2,2020.2.5,Win32,60,z,1,,,,,,,,0.514,1,,,,,,254,NW,"ID",16,varosh,VAROSH,z,0.514,,,,,,,-0.233072917,-0.328125,0,0,0,,0,380,380,313,1,
,,,,,,,,,,,,,,,,,,5dc5da21d999de45a504651b,2020-11-27_15h02.54.057,lexical_decision_task_MP_exp2,2020.2.5,Win32,60,z,0,,,,,,,,0.567,0,,,,,,20,WORD,"ID",16,breast,BREAST,m,0.567,,,,,,,-0.233072917,-0.328125,0,0,0,,0,381,381,79,1,
,,,,,,,,,,,,,,,,,,5dc5da21d999de45a504651b,2020-11-27_15h02.54.057,lexical_decision_task_MP_exp2,2020.2.5,Win32,60,m,1,,,,,,,,0.612,1,,,,,,105,WORD,UN,33,ransom,NUMBER,m,0.612,,,,,,,-0.233072917,-0.328125,0,0,0,,0,382,382,164,1,
,,,,,,,,,,,,,,,,,,5dc5da21d999de45a504651b,2020-11-27_15h02.54.057,lexical_decision_task_MP_exp2,2020.2.5,Win32,60,z,1,,,,,,,,0.682,1,,,,,,435,NW,"ID",33,impurb,IMPURB,z,0.682,,,,,,,-0.233072917,-0.328125,0,0,0,,0,383,383,254,1,
,,,,,,,,,,,,,,,,,,5dc5da21d999de45a504651b,2020-11-27_15h02.54.057,lexical_decision_task_MP_exp2,2020.2.5,Win32,60,m,1,,,,,,,,0.465,1,,,,,,93,WORD,UN,33,travel,PUBLIC,m,0.465,,,,,,,-0.233072917,-0.328125,0,0,0,,0,384,384,152,1,
,,,,,,,,,,,,,,,,,,5dc5da21d999de45a504651b,2020-11-27_15h02.54.057,lexical_decision_task_MP_exp2,2020.2.5,Win32,60,z,1,,,,,,,,0.518,1,,,,,,308,NW,UN,33,amiloy,PSETCH,z,0.518,,,,,,,-0.233072917,-0.328125,0,0,0,,0,385,385,367,1,
,,,,,,,,,,,,,,,,,,5dc5da21d999de45a504651b,2020-11-27_15h02.54.057,lexical_decision_task_MP_exp2,2020.2.5,Win32,60,z,1,,,,,,,,0.64,1,,,,,,310,NW,UN,33,sproly,DANIET,z,0.64,,,,,,,-0.233072917,-0.328125,0,0,0,,0,386,386,369,1,
,,,,,,,,,,,,,,,,,,5dc5da21d999de45a504651b,2020-11-27_15h02.54.057,lexical_decision_task_MP_exp2,2020.2.5,Win32,60,z,1,,,,,,,,0.58,1,,,,,,406,NW,UN,16,suiver,NOUPLY,z,0.58,,,,,,,-0.233072917,-0.328125,0,0,0,,0,387,387,465,1,
,,,,,,,,,,,,,,,,,,5dc5da21d999de45a504651b,2020-11-27_15h02.54.057,lexical_decision_task_MP_exp2,2020.2.5,Win32,60,z,1,,,,,,,,0.622,1,,,,,,467,NW,"ID",33,gorbie,GORBIE,z,0.622,,,,,,,-0.233072917,-0.328125,0,0,0,,0,388,388,286,1,
,,,,,,,,,,,,,,,,,,5dc5da21d999de45a504651b,2020-11-27_15h02.54.057,lexical_decision_task_MP_exp2,2020.2.5,Win32,60,z,1,,,,,,,,0.521,1,,,,,,472,NW,"ID",33,cigney,CIGNEY,z,0.521,,,,,,,-0.233072917,-0.328125,0,0,0,,0,389,389,291,1,
,,,,,,,,,,,,,,,,,,5dc5da21d999de45a504651b,2020-11-27_15h02.54.057,lexical_decision_task_MP_exp2,2020.2.5,Win32,60,m,1,,,,,,,,0.504,1,,,,,,157,WORD,UN,16,island,DRAGON,m,0.504,,,,,,,-0.233072917,-0.328125,0,0,0,,0,390,390,216,1,
,,,,,,,,,,,,,,,,,,5dc5da21d999de45a504651b,2020-11-27_15h02.54.057,lexical_decision_task_MP_exp2,2020.2.5,Win32,60,m,1,,,,,,,,0.461,1,,,,,,119,WORD,UN,33,strain,SPIDER,m,0.461,,,,,,,-0.233072917,-0.328125,0,0,0,,0,391,391,178,1,
,,,,,,,,,,,,,,,,,,5dc5da21d999de45a504651b,2020-11-27_15h02.54.057,lexical_decision_task_MP_exp2,2020.2.5,Win32,60,m,1,,,,,,,,0.825,1,,,,,,82,WORD,UN,33,result,STIGMA,m,0.825,,,,,,,-0.233072917,-0.328125,0,0,0,,0,392,392,141,1,
,,,,,,,,,,,,,,,,,,5dc5da21d999de45a504651b,2020-11-27_15h02.54.057,lexical_decision_task_MP_exp2,2020.2.5,Win32,60,m,1,,,,,,,,0.504,1,,,,,,173,WORD,UN,16,turkey,SHOWER,m,0.504,,,,,,,-0.233072917,-0.328125,0,0,0,,0,393,393,232,1,
,,,,,,,,,,,,,,,,,,5dc5da21d999de45a504651b,2020-11-27_15h02.54.057,lexical_decision_task_MP_exp2,2020.2.5,Win32,60,m,1,,,,,,,,0.451,1,,,,,,217,WORD,"ID",33,liquor,LIQUOR,m,0.451,,,,,,,-0.233072917,-0.328125,0,0,0,,0,394,394,36,1,
,,,,,,,,,,,,,,,,,,5dc5da21d999de45a504651b,2020-11-27_15h02.54.057,lexical_decision_task_MP_exp2,2020.2.5,Win32,60,m,1,,,,,,,,0.554,1,,,,,,65,WORD,UN,33,gospel,SYMBOL,m,0.554,,,,,,,-0.233072917,-0.328125,0,0,0,,0,395,395,124,1,
,,,,,,,,,,,,,,,,,,5dc5da21d999de45a504651b,2020-11-27_15h02.54.057,lexical_decision_task_MP_exp2,2020.2.5,Win32,60,m,1,,,,,,,,0.522,1,,,,,,89,WORD,UN,33,relish,PERMIT,m,0.522,,,,,,,-0.233072917,-0.328125,0,0,0,,0,396,396,148,1,
,,,,,,,,,,,,,,,,,,5dc5da21d999de45a504651b,2020-11-27_15h02.54.057,lexical_decision_task_MP_exp2,2020.2.5,Win32,60,m,1,,,,,,,,0.469,1,,,,,,63,WORD,UN,33,throne,LAUNCH,m,0.469,,,,,,,-0.233072917,-0.328125,0,0,0,,0,397,397,122,1,
,,,,,,,,,,,,,,,,,,5dc5da21d999de45a504651b,2020-11-27_15h02.54.057,lexical_decision_task_MP_exp2,2020.2.5,Win32,60,m,1,,,,,,,,0.419,1,,,,,,174,WORD,UN,16,fabric,TURKEY,m,0.419,,,,,,,-0.233072917,-0.328125,0,0,0,,0,398,398,233,1,
,,,,,,,,,,,,,,,,,,5dc5da21d999de45a504651b,2020-11-27_15h02.54.057,lexical_decision_task_MP_exp2,2020.2.5,Win32,60,z,1,,,,,,,,0.745,1,,,,,,276,NW,"ID",16,yarmon,YARMON,z,0.745,,,,,,,-0.233072917,-0.328125,0,0,0,,0,399,399,335,1,
,,,,,,,,,,,,,,,,,,5dc5da21d999de45a504651b,2020-11-27_15h02.54.057,lexical_decision_task_MP_exp2,2020.2.5,Win32,60,m,1,,,,,,,,0.454,1,,,,,,6,WORD,"ID",16,bundle,BUNDLE,m,0.454,,,,,,,-0.233072917,-0.328125,0,0,0,,0,400,400,65,1,
,,,,,,,,,,,,,,,,,,5dc5da21d999de45a504651b,2020-11-27_15h02.54.057,lexical_decision_task_MP_exp2,2020.2.5,Win32,60,m,1,,,,,,,,0.502,1,,,,,,71,WORD,UN,33,bright,GARDEN,m,0.502,,,,,,,-0.233072917,-0.328125,0,0,0,,0,401,401,130,1,
,,,,,,,,,,,,,,,,,,5dc5da21d999de45a504651b,2020-11-27_15h02.54.057,lexical_decision_task_MP_exp2,2020.2.5,Win32,60,z,1,,,,,,,,0.637,1,,,,,,349,NW,UN,33,nagurs,ASYLEN,z,0.637,,,,,,,-0.233072917,-0.328125,0,0,0,,0,402,402,408,1,
,,,,,,,,,,,,,,,,,,5dc5da21d999de45a504651b,2020-11-27_15h02.54.057,lexical_decision_task_MP_exp2,2020.2.5,Win32,60,z,1,,,,,,,,0.552,1,,,,,,343,NW,UN,33,scrily,AIMOSY,z,0.552,,,,,,,-0.233072917,-0.328125,0,0,0,,0,403,403,402,1,
,,,,,,,,,,,,,,,,,,5dc5da21d999de45a504651b,2020-11-27_15h02.54.057,lexical_decision_task_MP_exp2,2020.2.5,Win32,60,m,0,,,,,,,,0.682,0,,,,,,411,NW,UN,16,jiluer,ORCHIN,z,0.682,,,,,,,-0.233072917,-0.328125,0,0,0,,0,404,404,470,1,
,,,,,,,,,,,,,,,,,,5dc5da21d999de45a504651b,2020-11-27_15h02.54.057,lexical_decision_task_MP_exp2,2020.2.5,Win32,60,m,1,,,,,,,,0.476,1,,,,,,59,WORD,"ID",16,splint,SPLINT,m,0.476,,,,,,,-0.233072917,-0.328125,0,0,0,,0,405,405,118,1,
