counterbalancing_condition,instr_done_keyboard.keys,instr_done_touch.x,instr_done_touch.y,instr_done_touch.leftButton,instr_done_touch.midButton,instr_done_touch.rightButton,instr_done_touch.clicked_name,instruction_pages.thisRepN,instruction_pages.thisTrialN,instruction_pages.thisN,instruction_pages.thisIndex,instruction_pages.ran,pageN,phase,instruct_text,has_image,instruct_image,participant,date,expName,psychopyVersion,OS,frameRate,response.keys,response.corr,touch_resp.x,touch_resp.y,touch_resp.leftButton,touch_resp.midButton,touch_resp.rightButton,touch_resp.time,touch_resp.clicked_name,rt,corr,practice_trials.thisRepN,practice_trials.thisTrialN,practice_trials.thisN,practice_trials.thisIndex,practice_trials.ran,TrialID,StimulusType,Condition,PrimeDuration,Prime,Target,corrAns,response.rt,end_of_practice_trials_pages.thisRepN,end_of_practice_trials_pages.thisTrialN,end_of_practice_trials_pages.thisN,end_of_practice_trials_pages.thisIndex,end_of_practice_trials_pages.ran,break_done_touch.x,break_done_touch.y,break_done_touch.leftButton,break_done_touch.midButton,break_done_touch.rightButton,break_done_keyboard.keys,experiment_trials.thisRepN,experiment_trials.thisTrialN,experiment_trials.thisN,experiment_trials.thisIndex,experiment_trials.ran,break_done_touch.clicked_name
0,,-0.02734375,-0.381510417,1,0,0,instr_done_button,0,0,0,0,1,1,instructions,"INSTRUCTIONS
At the start of each trial, look at the hash marks (######) in the center of the screen. After a moment, a string of letters will appear. Your task is to indicate if the letter string forms a word or not (i.e., if it is a nonword). For example, AUTHOR is a word while AUTHON is a nonword.

Press the space bar or touch the button below to continue.",0,,5dd5e27fe25acf59990e1adf,2020-11-27_10h05.17.083,lexical_decision_task_MP_exp2,2020.2.5,Win32,60,,,,,,,,,,,,,,,,,,,,,,,,,,,,,,,,,,,,,,,,,
,,-0.02734375,-0.381510417,1,0,0,instr_done_button,0,1,1,1,1,2,instructions,"If your device has a keyboard, press the 'Z' key for nonwords and the 'M' key for words.





Press the space bar or touch the button below to continue.",1,keyboard-example.gif,5dd5e27fe25acf59990e1adf,2020-11-27_10h05.17.083,lexical_decision_task_MP_exp2,2020.2.5,Win32,60,,,,,,,,,,,,,,,,,,,,,,,,,,,,,,,,,,,,,,,,,
,,-0.02734375,-0.381510417,1,0,0,instr_done_button,0,2,2,2,1,3,instructions,"If you are using a touchscreen only device, use the buttons on the screen. Do not use the mouse.





Press the space bar or touch the button below to continue.",1,touchscreen-example.gif,5dd5e27fe25acf59990e1adf,2020-11-27_10h05.17.083,lexical_decision_task_MP_exp2,2020.2.5,Win32,60,,,,,,,,,,,,,,,,,,,,,,,,,,,,,,,,,,,,,,,,,
,,-0.02734375,-0.381510417,1,0,0,instr_done_button,0,3,3,3,1,4,instructions,"It is very important that you respond as quickly and accurately as possible, as each letter string will only be on the screen for two seconds. If you do not respond within this time, the message 'Too slow!' will be displayed and the experiment will progress to the next letter string. The first 20 trials will be practice trials and you will receive feedback on your answers. 

Press the space bar or touch the button below to start the practice trials.",0,,5dd5e27fe25acf59990e1adf,2020-11-27_10h05.17.083,lexical_decision_task_MP_exp2,2020.2.5,Win32,60,,,,,,,,,,,,,,,,,,,,,,,,,,,,,,,,,,,,,,,,,
,,,,,,,,,,,,,,,,,,5dd5e27fe25acf59990e1adf,2020-11-27_10h05.17.083,lexical_decision_task_MP_exp2,2020.2.5,Win32,60,,0,,,,,,,,,-1,0,0,0,0,1,1001,WORD,"ID",33,utopia,UTOPIA,m,,,,,,,,,,,,,,,,,,
,,,,,,,,,,,,,,,,,,5dd5e27fe25acf59990e1adf,2020-11-27_10h05.17.083,lexical_decision_task_MP_exp2,2020.2.5,Win32,60,z,0,,,,,,,,0.593425,0,0,1,1,1,1,1002,WORD,"ID",33,adjust,ADJUST,m,0.593425,,,,,,,,,,,,,,,,,
,,,,,,,,,,,,,,,,,,5dd5e27fe25acf59990e1adf,2020-11-27_10h05.17.083,lexical_decision_task_MP_exp2,2020.2.5,Win32,60,m,0,,,,,,,,0.400025,0,0,2,2,10,1,1011,NW,"ID",16,inlade,INLADE,z,0.400025,,,,,,,,,,,,,,,,,
,,,,,,,,,,,,,,,,,,5dd5e27fe25acf59990e1adf,2020-11-27_10h05.17.083,lexical_decision_task_MP_exp2,2020.2.5,Win32,60,z,1,,,,,,,,0.45072,1,0,3,3,13,1,1014,NW,UN,33,winfer,ROUPET,z,0.45072,,,,,,,,,,,,,,,,,
,,,,,,,,,,,,,,,,,,5dd5e27fe25acf59990e1adf,2020-11-27_10h05.17.083,lexical_decision_task_MP_exp2,2020.2.5,Win32,60,m,0,,,,,,,,1.26717,0,0,4,4,14,1,1015,NW,UN,16,miaber,THRALE,z,1.26717,,,,,,,,,,,,,,,,,
,,,,,,,,,,,,,,,,,,5dd5e27fe25acf59990e1adf,2020-11-27_10h05.17.083,lexical_decision_task_MP_exp2,2020.2.5,Win32,60,z,0,,,,,,,,0.833735,0,0,5,5,7,1,1008,WORD,UN,16,hurdle,VOLUME,m,0.833735,,,,,,,,,,,,,,,,,
,,,,,,,,,,,,,,,,,,5dd5e27fe25acf59990e1adf,2020-11-27_10h05.17.083,lexical_decision_task_MP_exp2,2020.2.5,Win32,60,m,1,,,,,,,,0.70755,1,0,6,6,5,1,1006,WORD,UN,33,frenzy,OBTAIN,m,0.70755,,,,,,,,,,,,,,,,,
,,,,,,,,,,,,,,,,,,5dd5e27fe25acf59990e1adf,2020-11-27_10h05.17.083,lexical_decision_task_MP_exp2,2020.2.5,Win32,60,z,1,,,,,,,,1.028575,1,0,7,7,12,1,1013,NW,UN,33,adveil,SPRINY,z,1.028575,,,,,,,,,,,,,,,,,
,,,,,,,,,,,,,,,,,,5dd5e27fe25acf59990e1adf,2020-11-27_10h05.17.083,lexical_decision_task_MP_exp2,2020.2.5,Win32,60,z,1,,,,,,,,0.90287,1,0,8,8,11,1,1012,NW,"ID",16,rashet,RASHET,z,0.90287,,,,,,,,,,,,,,,,,
,,,,,,,,,,,,,,,,,,5dd5e27fe25acf59990e1adf,2020-11-27_10h05.17.083,lexical_decision_task_MP_exp2,2020.2.5,Win32,60,m,1,,,,,,,,0.891885,1,0,9,9,6,1,1007,WORD,UN,16,tropic,ZOMBIE,m,0.891885,,,,,,,,,,,,,,,,,
,,,,,,,,,,,,,,,,,,5dd5e27fe25acf59990e1adf,2020-11-27_10h05.17.083,lexical_decision_task_MP_exp2,2020.2.5,Win32,60,z,1,,,,,,,,0.90241,1,0,10,10,15,1,1016,NW,UN,16,mushed,WHAISE,z,0.90241,,,,,,,,,,,,,,,,,
,,,,,,,,,,,,,,,,,,5dd5e27fe25acf59990e1adf,2020-11-27_10h05.17.083,lexical_decision_task_MP_exp2,2020.2.5,Win32,60,z,1,,,,,,,,0.835995,1,0,11,11,8,1,1009,NW,"ID",33,aslert,ASLERT,z,0.835995,,,,,,,,,,,,,,,,,
,,,,,,,,,,,,,,,,,,5dd5e27fe25acf59990e1adf,2020-11-27_10h05.17.083,lexical_decision_task_MP_exp2,2020.2.5,Win32,60,m,1,,,,,,,,0.76297,1,0,12,12,3,1,1004,WORD,"ID",16,matrix,MATRIX,m,0.76297,,,,,,,,,,,,,,,,,
,,,,,,,,,,,,,,,,,,5dd5e27fe25acf59990e1adf,2020-11-27_10h05.17.083,lexical_decision_task_MP_exp2,2020.2.5,Win32,60,z,1,,,,,,,,0.795665,1,0,13,13,9,1,1010,NW,"ID",33,fariny,FARINY,z,0.795665,,,,,,,,,,,,,,,,,
,,,,,,,,,,,,,,,,,,5dd5e27fe25acf59990e1adf,2020-11-27_10h05.17.083,lexical_decision_task_MP_exp2,2020.2.5,Win32,60,m,1,,,,,,,,0.625215,1,0,14,14,2,1,1003,WORD,"ID",16,almond,ALMOND,m,0.625215,,,,,,,,,,,,,,,,,
,,,,,,,,,,,,,,,,,,5dd5e27fe25acf59990e1adf,2020-11-27_10h05.17.083,lexical_decision_task_MP_exp2,2020.2.5,Win32,60,m,1,,,,,,,,0.82988,1,0,15,15,4,1,1005,WORD,UN,33,abound,SQUEAK,m,0.82988,,,,,,,,,,,,,,,,,
,,-0.02734375,-0.381510417,1,0,0,instr_done_button,,,,,,1,end_of_practice,"You have completed the practice trials. During the experimental trials, you will not receive feedback, but it is very important that you respond as quickly and accurately as possible. 
Before you begin, please ensure that you are in a comfortable and quiet location and will not be disturbed for about 15 minutes, as we cannot use your data if you do not complete all the trials. 
There will be opportunities to take breaks at regular intervals during the experiment. When you are ready to start the experimental trials, please press space or touch the button below.",,,5dd5e27fe25acf59990e1adf,2020-11-27_10h05.17.083,lexical_decision_task_MP_exp2,2020.2.5,Win32,60,,,,,,,,,,,,,,,,,,,,,,,,,0,0,0,0,1,,,,,,,,,,,,
,,,,,,,,,,,,,,,,,,5dd5e27fe25acf59990e1adf,2020-11-27_10h05.17.083,lexical_decision_task_MP_exp2,2020.2.5,Win32,60,z,1,,,,,,,,0.937425,1,,,,,,454,NW,"ID",33,scouge,SCOUGE,z,0.937425,,,,,,-0.02734375,-0.381510417,0,0,0,,0,0,0,273,1,
,,,,,,,,,,,,,,,,,,5dd5e27fe25acf59990e1adf,2020-11-27_10h05.17.083,lexical_decision_task_MP_exp2,2020.2.5,Win32,60,z,1,,,,,,,,1.01547,1,,,,,,371,NW,UN,16,ramily,GEILOY,z,1.01547,,,,,,-0.02734375,-0.381510417,0,0,0,,0,1,1,430,1,
,,,,,,,,,,,,,,,,,,5dd5e27fe25acf59990e1adf,2020-11-27_10h05.17.083,lexical_decision_task_MP_exp2,2020.2.5,Win32,60,z,1,,,,,,,,0.85876,1,,,,,,343,NW,UN,33,scrily,AIMOSY,z,0.85876,,,,,,-0.02734375,-0.381510417,0,0,0,,0,2,2,402,1,
,,,,,,,,,,,,,,,,,,5dd5e27fe25acf59990e1adf,2020-11-27_10h05.17.083,lexical_decision_task_MP_exp2,2020.2.5,Win32,60,m,1,,,,,,,,0.65602,1,,,,,,109,WORD,UN,33,polite,WONDER,m,0.65602,,,,,,-0.02734375,-0.381510417,0,0,0,,0,3,3,168,1,
,,,,,,,,,,,,,,,,,,5dd5e27fe25acf59990e1adf,2020-11-27_10h05.17.083,lexical_decision_task_MP_exp2,2020.2.5,Win32,60,z,1,,,,,,,,0.86141,1,,,,,,426,NW,"ID",33,urivel,URIVEL,z,0.86141,,,,,,-0.02734375,-0.381510417,0,0,0,,0,4,4,245,1,
,,,,,,,,,,,,,,,,,,5dd5e27fe25acf59990e1adf,2020-11-27_10h05.17.083,lexical_decision_task_MP_exp2,2020.2.5,Win32,60,z,1,,,,,,,,0.743515,1,,,,,,417,NW,UN,16,suidle,EAROUD,z,0.743515,,,,,,-0.02734375,-0.381510417,0,0,0,,0,5,5,476,1,
,,,,,,,,,,,,,,,,,,5dd5e27fe25acf59990e1adf,2020-11-27_10h05.17.083,lexical_decision_task_MP_exp2,2020.2.5,Win32,60,z,1,,,,,,,,1.066685,1,,,,,,397,NW,UN,16,blunde,CAMBLE,z,1.066685,,,,,,-0.02734375,-0.381510417,0,0,0,,0,6,6,456,1,
,,,,,,,,,,,,,,,,,,5dd5e27fe25acf59990e1adf,2020-11-27_10h05.17.083,lexical_decision_task_MP_exp2,2020.2.5,Win32,60,z,1,,,,,,,,0.88331,1,,,,,,437,NW,"ID",33,snapel,SNAPEL,z,0.88331,,,,,,-0.02734375,-0.381510417,0,0,0,,0,7,7,256,1,
,,,,,,,,,,,,,,,,,,5dd5e27fe25acf59990e1adf,2020-11-27_10h05.17.083,lexical_decision_task_MP_exp2,2020.2.5,Win32,60,m,1,,,,,,,,0.684085,1,,,,,,230,WORD,"ID",33,fringe,FRINGE,m,0.684085,,,,,,-0.02734375,-0.381510417,0,0,0,,0,8,8,49,1,
,,,,,,,,,,,,,,,,,,5dd5e27fe25acf59990e1adf,2020-11-27_10h05.17.083,lexical_decision_task_MP_exp2,2020.2.5,Win32,60,m,1,,,,,,,,0.5415,1,,,,,,208,WORD,"ID",33,hockey,HOCKEY,m,0.5415,,,,,,-0.02734375,-0.381510417,0,0,0,,0,9,9,27,1,
,,,,,,,,,,,,,,,,,,5dd5e27fe25acf59990e1adf,2020-11-27_10h05.17.083,lexical_decision_task_MP_exp2,2020.2.5,Win32,60,m,0,,,,,,,,0.99944,0,,,,,,432,NW,"ID",33,lunker,LUNKER,z,0.99944,,,,,,-0.02734375,-0.381510417,0,0,0,,0,10,10,251,1,
,,,,,,,,,,,,,,,,,,5dd5e27fe25acf59990e1adf,2020-11-27_10h05.17.083,lexical_decision_task_MP_exp2,2020.2.5,Win32,60,m,1,,,,,,,,0.61899,1,,,,,,204,WORD,"ID",33,burden,BURDEN,m,0.61899,,,,,,-0.02734375,-0.381510417,0,0,0,,0,11,11,23,1,
,,,,,,,,,,,,,,,,,,5dd5e27fe25acf59990e1adf,2020-11-27_10h05.17.083,lexical_decision_task_MP_exp2,2020.2.5,Win32,60,z,1,,,,,,,,0.88807,1,,,,,,284,NW,"ID",16,shaple,SHAPLE,z,0.88807,,,,,,-0.02734375,-0.381510417,0,0,0,,0,12,12,343,1,
,,,,,,,,,,,,,,,,,,5dd5e27fe25acf59990e1adf,2020-11-27_10h05.17.083,lexical_decision_task_MP_exp2,2020.2.5,Win32,60,m,1,,,,,,,,0.750175,1,,,,,,214,WORD,"ID",33,intake,INTAKE,m,0.750175,,,,,,-0.02734375,-0.381510417,0,0,0,,0,13,13,33,1,
,,,,,,,,,,,,,,,,,,5dd5e27fe25acf59990e1adf,2020-11-27_10h05.17.083,lexical_decision_task_MP_exp2,2020.2.5,Win32,60,m,1,,,,,,,,0.866825,1,,,,,,154,WORD,UN,16,lizard,AUTHOR,m,0.866825,,,,,,-0.02734375,-0.381510417,0,0,0,,0,14,14,213,1,
,,,,,,,,,,,,,,,,,,5dd5e27fe25acf59990e1adf,2020-11-27_10h05.17.083,lexical_decision_task_MP_exp2,2020.2.5,Win32,60,z,1,,,,,,,,0.71123,1,,,,,,477,NW,"ID",33,photie,PHOTIE,z,0.71123,,,,,,-0.02734375,-0.381510417,0,0,0,,0,15,15,296,1,
,,,,,,,,,,,,,,,,,,5dd5e27fe25acf59990e1adf,2020-11-27_10h05.17.083,lexical_decision_task_MP_exp2,2020.2.5,Win32,60,m,1,,,,,,,,0.67021,1,,,,,,195,WORD,"ID",33,resign,RESIGN,m,0.67021,,,,,,-0.02734375,-0.381510417,0,0,0,,0,16,16,14,1,
,,,,,,,,,,,,,,,,,,5dd5e27fe25acf59990e1adf,2020-11-27_10h05.17.083,lexical_decision_task_MP_exp2,2020.2.5,Win32,60,m,1,,,,,,,,0.66611,1,,,,,,190,WORD,"ID",33,backup,BACKUP,m,0.66611,,,,,,-0.02734375,-0.381510417,0,0,0,,0,17,17,9,1,
,,,,,,,,,,,,,,,,,,5dd5e27fe25acf59990e1adf,2020-11-27_10h05.17.083,lexical_decision_task_MP_exp2,2020.2.5,Win32,60,m,1,,,,,,,,0.69908,1,,,,,,238,WORD,"ID",33,flower,FLOWER,m,0.69908,,,,,,-0.02734375,-0.381510417,0,0,0,,0,18,18,57,1,
,,,,,,,,,,,,,,,,,,5dd5e27fe25acf59990e1adf,2020-11-27_10h05.17.083,lexical_decision_task_MP_exp2,2020.2.5,Win32,60,m,1,,,,,,,,0.61834,1,,,,,,3,WORD,"ID",16,knight,KNIGHT,m,0.61834,,,,,,-0.02734375,-0.381510417,0,0,0,,0,19,19,62,1,
,,,,,,,,,,,,,,,,,,5dd5e27fe25acf59990e1adf,2020-11-27_10h05.17.083,lexical_decision_task_MP_exp2,2020.2.5,Win32,60,z,1,,,,,,,,0.69188,1,,,,,,262,NW,"ID",16,quilew,QUILEW,z,0.69188,,,,,,-0.02734375,-0.381510417,0,0,0,,0,20,20,321,1,
,,,,,,,,,,,,,,,,,,5dd5e27fe25acf59990e1adf,2020-11-27_10h05.17.083,lexical_decision_task_MP_exp2,2020.2.5,Win32,60,m,1,,,,,,,,0.61085,1,,,,,,84,WORD,UN,33,strand,MORTAL,m,0.61085,,,,,,-0.02734375,-0.381510417,0,0,0,,0,21,21,143,1,
,,,,,,,,,,,,,,,,,,5dd5e27fe25acf59990e1adf,2020-11-27_10h05.17.083,lexical_decision_task_MP_exp2,2020.2.5,Win32,60,z,1,,,,,,,,0.808615,1,,,,,,248,NW,"ID",16,strole,STROLE,z,0.808615,,,,,,-0.02734375,-0.381510417,0,0,0,,0,22,22,307,1,
,,,,,,,,,,,,,,,,,,5dd5e27fe25acf59990e1adf,2020-11-27_10h05.17.083,lexical_decision_task_MP_exp2,2020.2.5,Win32,60,m,1,,,,,,,,0.824955,1,,,,,,82,WORD,UN,33,result,STIGMA,m,0.824955,,,,,,-0.02734375,-0.381510417,0,0,0,,0,23,23,141,1,
,,,,,,,,,,,,,,,,,,5dd5e27fe25acf59990e1adf,2020-11-27_10h05.17.083,lexical_decision_task_MP_exp2,2020.2.5,Win32,60,z,1,,,,,,,,0.735445,1,,,,,,307,NW,UN,33,psetch,KIRAFE,z,0.735445,,,,,,-0.02734375,-0.381510417,0,0,0,,0,24,24,366,1,
,,,,,,,,,,,,,,,,,,5dd5e27fe25acf59990e1adf,2020-11-27_10h05.17.083,lexical_decision_task_MP_exp2,2020.2.5,Win32,60,m,0,,,,,,,,0.64946,0,,,,,,250,NW,"ID",16,milted,MILTED,z,0.64946,,,,,,-0.02734375,-0.381510417,0,0,0,,0,25,25,309,1,
,,,,,,,,,,,,,,,,,,5dd5e27fe25acf59990e1adf,2020-11-27_10h05.17.083,lexical_decision_task_MP_exp2,2020.2.5,Win32,60,m,1,,,,,,,,0.732335,1,,,,,,19,WORD,"ID",16,patron,PATRON,m,0.732335,,,,,,-0.02734375,-0.381510417,0,0,0,,0,26,26,78,1,
,,,,,,,,,,,,,,,,,,5dd5e27fe25acf59990e1adf,2020-11-27_10h05.17.083,lexical_decision_task_MP_exp2,2020.2.5,Win32,60,z,1,,,,,,,,0.636225,1,,,,,,241,NW,"ID",16,smenco,SMENCO,z,0.636225,,,,,,-0.02734375,-0.381510417,0,0,0,,0,27,27,300,1,
,,,,,,,,,,,,,,,,,,5dd5e27fe25acf59990e1adf,2020-11-27_10h05.17.083,lexical_decision_task_MP_exp2,2020.2.5,Win32,60,z,1,,,,,,,,0.86841,1,,,,,,314,NW,UN,33,laston,SPRINE,z,0.86841,,,,,,-0.02734375,-0.381510417,0,0,0,,0,28,28,373,1,
,,,,,,,,,,,,,,,,,,5dd5e27fe25acf59990e1adf,2020-11-27_10h05.17.083,lexical_decision_task_MP_exp2,2020.2.5,Win32,60,m,1,,,,,,,,0.70205,1,,,,,,119,WORD,UN,33,strain,SPIDER,m,0.70205,,,,,,-0.02734375,-0.381510417,0,0,0,,0,29,29,178,1,
,,,,,,,,,,,,,,,,,,5dd5e27fe25acf59990e1adf,2020-11-27_10h05.17.083,lexical_decision_task_MP_exp2,2020.2.5,Win32,60,z,1,,,,,,,,0.83239,1,,,,,,264,NW,"ID",16,vackel,VACKEL,z,0.83239,,,,,,-0.02734375,-0.381510417,0,0,0,,0,30,30,323,1,
,,,,,,,,,,,,,,,,,,5dd5e27fe25acf59990e1adf,2020-11-27_10h05.17.083,lexical_decision_task_MP_exp2,2020.2.5,Win32,60,m,1,,,,,,,,0.71628,1,,,,,,200,WORD,"ID",33,beacon,BEACON,m,0.71628,,,,,,-0.02734375,-0.381510417,0,0,0,,0,31,31,19,1,
,,,,,,,,,,,,,,,,,,5dd5e27fe25acf59990e1adf,2020-11-27_10h05.17.083,lexical_decision_task_MP_exp2,2020.2.5,Win32,60,z,1,,,,,,,,0.75078,1,,,,,,298,NW,"ID",16,piergy,PIERGY,z,0.75078,,,,,,-0.02734375,-0.381510417,0,0,0,,0,32,32,357,1,
,,,,,,,,,,,,,,,,,,5dd5e27fe25acf59990e1adf,2020-11-27_10h05.17.083,lexical_decision_task_MP_exp2,2020.2.5,Win32,60,m,1,,,,,,,,0.653395,1,,,,,,176,WORD,UN,16,advent,STRIFE,m,0.653395,,,,,,-0.02734375,-0.381510417,0,0,0,,0,33,33,235,1,
,,,,,,,,,,,,,,,,,,5dd5e27fe25acf59990e1adf,2020-11-27_10h05.17.083,lexical_decision_task_MP_exp2,2020.2.5,Win32,60,z,1,,,,,,,,0.749145,1,,,,,,326,NW,UN,33,plenac,IGUADE,z,0.749145,,,,,,-0.02734375,-0.381510417,0,0,0,,0,34,34,385,1,
,,,,,,,,,,,,,,,,,,5dd5e27fe25acf59990e1adf,2020-11-27_10h05.17.083,lexical_decision_task_MP_exp2,2020.2.5,Win32,60,m,1,,,,,,,,0.607795,1,,,,,,168,WORD,UN,16,genius,ANSWER,m,0.607795,,,,,,-0.02734375,-0.381510417,0,0,0,,0,35,35,227,1,
,,,,,,,,,,,,,,,,,,5dd5e27fe25acf59990e1adf,2020-11-27_10h05.17.083,lexical_decision_task_MP_exp2,2020.2.5,Win32,60,z,1,,,,,,,,0.81118,1,,,,,,268,NW,"ID",16,packes,PACKES,z,0.81118,,,,,,-0.02734375,-0.381510417,0,0,0,,0,36,36,327,1,
,,,,,,,,,,,,,,,,,,5dd5e27fe25acf59990e1adf,2020-11-27_10h05.17.083,lexical_decision_task_MP_exp2,2020.2.5,Win32,60,z,1,,,,,,,,0.71906,1,,,,,,378,NW,UN,16,auting,SHRILE,z,0.71906,,,,,,-0.02734375,-0.381510417,0,0,0,,0,37,37,437,1,
,,,,,,,,,,,,,,,,,,5dd5e27fe25acf59990e1adf,2020-11-27_10h05.17.083,lexical_decision_task_MP_exp2,2020.2.5,Win32,60,z,1,,,,,,,,0.839145,1,,,,,,349,NW,UN,33,nagurs,ASYLEN,z,0.839145,,,,,,-0.02734375,-0.381510417,0,0,0,,0,38,38,408,1,
,,,,,,,,,,,,,,,,,,5dd5e27fe25acf59990e1adf,2020-11-27_10h05.17.083,lexical_decision_task_MP_exp2,2020.2.5,Win32,60,z,1,,,,,,,,0.74933,1,,,,,,296,NW,"ID",16,beinch,BEINCH,z,0.74933,,,,,,-0.02734375,-0.381510417,0,0,0,,0,39,39,355,1,
,,,,,,,,,,,,,,,,,,5dd5e27fe25acf59990e1adf,2020-11-27_10h05.17.083,lexical_decision_task_MP_exp2,2020.2.5,Win32,60,z,1,,,,,,,,0.77462,1,,,,,,415,NW,UN,16,pathel,HIGSTA,z,0.77462,,,,,,-0.02734375,-0.381510417,0,0,0,,0,40,40,474,1,
,,,,,,,,,,,,,,,,,,5dd5e27fe25acf59990e1adf,2020-11-27_10h05.17.083,lexical_decision_task_MP_exp2,2020.2.5,Win32,60,m,1,,,,,,,,0.575015,1,,,,,,29,WORD,"ID",16,sketch,SKETCH,m,0.575015,,,,,,-0.02734375,-0.381510417,0,0,0,,0,41,41,88,1,
,,,,,,,,,,,,,,,,,,5dd5e27fe25acf59990e1adf,2020-11-27_10h05.17.083,lexical_decision_task_MP_exp2,2020.2.5,Win32,60,m,1,,,,,,,,0.57733,1,,,,,,134,WORD,UN,16,import,STAPLE,m,0.57733,,,,,,-0.02734375,-0.381510417,0,0,0,,0,42,42,193,1,
,,,,,,,,,,,,,,,,,,5dd5e27fe25acf59990e1adf,2020-11-27_10h05.17.083,lexical_decision_task_MP_exp2,2020.2.5,Win32,60,m,1,,,,,,,,0.701125,1,,,,,,91,WORD,UN,33,hunger,EXPAND,m,0.701125,,,,,,-0.02734375,-0.381510417,0,0,0,,0,43,43,150,1,
,,,,,,,,,,,,,,,,,,5dd5e27fe25acf59990e1adf,2020-11-27_10h05.17.083,lexical_decision_task_MP_exp2,2020.2.5,Win32,60,z,1,,,,,,,,0.716365,1,,,,,,464,NW,"ID",33,chaite,CHAITE,z,0.716365,,,,,,-0.02734375,-0.381510417,0,0,0,,0,44,44,283,1,
,,,,,,,,,,,,,,,,,,5dd5e27fe25acf59990e1adf,2020-11-27_10h05.17.083,lexical_decision_task_MP_exp2,2020.2.5,Win32,60,m,1,,,,,,,,0.632575,1,,,,,,35,WORD,"ID",16,socket,SOCKET,m,0.632575,,,,,,-0.02734375,-0.381510417,0,0,0,,0,45,45,94,1,
,,,,,,,,,,,,,,,,,,5dd5e27fe25acf59990e1adf,2020-11-27_10h05.17.083,lexical_decision_task_MP_exp2,2020.2.5,Win32,60,z,1,,,,,,,,0.635575,1,,,,,,279,NW,"ID",16,celond,CELOND,z,0.635575,,,,,,-0.02734375,-0.381510417,0,0,0,,0,46,46,338,1,
,,,,,,,,,,,,,,,,,,5dd5e27fe25acf59990e1adf,2020-11-27_10h05.17.083,lexical_decision_task_MP_exp2,2020.2.5,Win32,60,z,1,,,,,,,,0.707535,1,,,,,,243,NW,"ID",16,musied,MUSIED,z,0.707535,,,,,,-0.02734375,-0.381510417,0,0,0,,0,47,47,302,1,
,,,,,,,,,,,,,,,,,,5dd5e27fe25acf59990e1adf,2020-11-27_10h05.17.083,lexical_decision_task_MP_exp2,2020.2.5,Win32,60,z,1,,,,,,,,0.77452,1,,,,,,443,NW,"ID",33,dorsex,DORSEX,z,0.77452,,,,,,-0.02734375,-0.381510417,0,0,0,,0,48,48,262,1,
,,,,,,,,,,,,,,,,,,5dd5e27fe25acf59990e1adf,2020-11-27_10h05.17.083,lexical_decision_task_MP_exp2,2020.2.5,Win32,60,z,1,,,,,,,,0.754045,1,,,,,,313,NW,UN,33,sprine,PAURSE,z,0.754045,,,,,,-0.02734375,-0.381510417,0,0,0,,0,49,49,372,1,
,,,,,,,,,,,,,,,,,,5dd5e27fe25acf59990e1adf,2020-11-27_10h05.17.083,lexical_decision_task_MP_exp2,2020.2.5,Win32,60,m,1,,,,,,,,0.581905,1,,,,,,161,WORD,UN,16,candle,PASTOR,m,0.581905,,,,,,-0.02734375,-0.381510417,0,0,0,,0,50,50,220,1,
,,,,,,,,,,,,,,,,,,5dd5e27fe25acf59990e1adf,2020-11-27_10h05.17.083,lexical_decision_task_MP_exp2,2020.2.5,Win32,60,z,1,,,,,,,,0.705985,1,,,,,,359,NW,UN,33,desory,FONVER,z,0.705985,,,,,,-0.02734375,-0.381510417,0,0,0,,0,51,51,418,1,
,,,,,,,,,,,,,,,,,,5dd5e27fe25acf59990e1adf,2020-11-27_10h05.17.083,lexical_decision_task_MP_exp2,2020.2.5,Win32,60,m,1,,,,,,,,0.62066,1,,,,,,81,WORD,UN,33,stigma,FRIEND,m,0.62066,,,,,,-0.02734375,-0.381510417,0,0,0,,0,52,52,140,1,
,,,,,,,,,,,,,,,,,,5dd5e27fe25acf59990e1adf,2020-11-27_10h05.17.083,lexical_decision_task_MP_exp2,2020.2.5,Win32,60,m,1,,,,,,,,0.77894,1,,,,,,68,WORD,UN,33,plenty,FUMBLE,m,0.77894,,,,,,-0.02734375,-0.381510417,0,0,0,,0,53,53,127,1,
,,,,,,,,,,,,,,,,,,5dd5e27fe25acf59990e1adf,2020-11-27_10h05.17.083,lexical_decision_task_MP_exp2,2020.2.5,Win32,60,m,1,,,,,,,,0.61644,1,,,,,,220,WORD,"ID",33,voyage,VOYAGE,m,0.61644,,,,,,-0.02734375,-0.381510417,0,0,0,,0,54,54,39,1,
,,,,,,,,,,,,,,,,,,5dd5e27fe25acf59990e1adf,2020-11-27_10h05.17.083,lexical_decision_task_MP_exp2,2020.2.5,Win32,60,z,1,,,,,,,,0.699215,1,,,,,,457,NW,"ID",33,wanigh,WANIGH,z,0.699215,,,,,,-0.02734375,-0.381510417,0,0,0,,0,55,55,276,1,
,,,,,,,,,,,,,,,,,,5dd5e27fe25acf59990e1adf,2020-11-27_10h05.17.083,lexical_decision_task_MP_exp2,2020.2.5,Win32,60,m,1,,,,,,,,0.549535,1,,,,,,83,WORD,UN,33,mortal,RESULT,m,0.549535,,,,,,-0.02734375,-0.381510417,0,0,0,,0,56,56,142,1,
,,,,,,,,,,,,,,,,,,5dd5e27fe25acf59990e1adf,2020-11-27_10h05.17.083,lexical_decision_task_MP_exp2,2020.2.5,Win32,60,z,1,,,,,,,,0.621575,1,,,,,,410,NW,UN,16,orchin,TUNORY,z,0.621575,,,,,,-0.02734375,-0.381510417,0,0,0,,0,57,57,469,1,
,,,,,,,,,,,,,,,,,,5dd5e27fe25acf59990e1adf,2020-11-27_10h05.17.083,lexical_decision_task_MP_exp2,2020.2.5,Win32,60,m,1,,,,,,,,0.63614,1,,,,,,90,WORD,UN,33,expand,RELISH,m,0.63614,,,,,,-0.02734375,-0.381510417,0,0,0,,0,58,58,149,1,
,,,,,,,,,,,,,,,,,,5dd5e27fe25acf59990e1adf,2020-11-27_10h05.17.083,lexical_decision_task_MP_exp2,2020.2.5,Win32,60,m,1,,,,,,,,0.589105,1,,,,,,142,WORD,UN,16,reason,SPRUCE,m,0.589105,,,,,,-0.02734375,-0.381510417,0,0,0,,0,59,59,201,1,
,,,,,,,,,,,,,,,,,,5dd5e27fe25acf59990e1adf,2020-11-27_10h05.17.083,lexical_decision_task_MP_exp2,2020.2.5,Win32,60,z,1,,,,,,,,0.683435,1,,,,,,419,NW,UN,16,gushop,SLOUNT,z,0.683435,,,,,,-0.02734375,-0.381510417,0,0,0,,0,60,60,478,1,
,,,,,,,,,,,,,,,,,,5dd5e27fe25acf59990e1adf,2020-11-27_10h05.17.083,lexical_decision_task_MP_exp2,2020.2.5,Win32,60,z,1,,,,,,,,0.789095,1,,,,,,404,NW,UN,16,flumni,CLUIRM,z,0.789095,,,,,,-0.02734375,-0.381510417,0,0,0,,0,61,61,463,1,
,,,,,,,,,,,,,,,,,,5dd5e27fe25acf59990e1adf,2020-11-27_10h05.17.083,lexical_decision_task_MP_exp2,2020.2.5,Win32,60,z,1,,,,,,,,0.637505,1,,,,,,255,NW,"ID",16,apight,APIGHT,z,0.637505,,,,,,-0.02734375,-0.381510417,0,0,0,,0,62,62,314,1,
,,,,,,,,,,,,,,,,,,5dd5e27fe25acf59990e1adf,2020-11-27_10h05.17.083,lexical_decision_task_MP_exp2,2020.2.5,Win32,60,z,1,,,,,,,,0.70343,1,,,,,,286,NW,"ID",16,reldon,RELDON,z,0.70343,,,,,,-0.02734375,-0.381510417,0,0,0,,0,63,63,345,1,
,,,,,,,,,,,,,,,,,,5dd5e27fe25acf59990e1adf,2020-11-27_10h05.17.083,lexical_decision_task_MP_exp2,2020.2.5,Win32,60,m,1,,,,,,,,0.510335,1,,,,,,18,WORD,"ID",16,humble,HUMBLE,m,0.510335,,,,,,-0.02734375,-0.381510417,0,0,0,,0,64,64,77,1,
,,,,,,,,,,,,,,,,,,5dd5e27fe25acf59990e1adf,2020-11-27_10h05.17.083,lexical_decision_task_MP_exp2,2020.2.5,Win32,60,m,1,,,,,,,,0.55459,1,,,,,,211,WORD,"ID",33,infect,INFECT,m,0.55459,,,,,,-0.02734375,-0.381510417,0,0,0,,0,65,65,30,1,
,,,,,,,,,,,,,,,,,,5dd5e27fe25acf59990e1adf,2020-11-27_10h05.17.083,lexical_decision_task_MP_exp2,2020.2.5,Win32,60,m,1,,,,,,,,0.594045,1,,,,,,158,WORD,UN,16,detail,ISLAND,m,0.594045,,,,,,-0.02734375,-0.381510417,0,0,0,,0,66,66,217,1,
,,,,,,,,,,,,,,,,,,5dd5e27fe25acf59990e1adf,2020-11-27_10h05.17.083,lexical_decision_task_MP_exp2,2020.2.5,Win32,60,z,1,,,,,,,,0.68852,1,,,,,,473,NW,"ID",33,crible,CRIBLE,z,0.68852,,,,,,-0.02734375,-0.381510417,0,0,0,,0,67,67,292,1,
,,,,,,,,,,,,,,,,,,5dd5e27fe25acf59990e1adf,2020-11-27_10h05.17.083,lexical_decision_task_MP_exp2,2020.2.5,Win32,60,z,1,,,,,,,,0.700965,1,,,,,,348,NW,UN,33,asylen,DUMPLE,z,0.700965,,,,,,-0.02734375,-0.381510417,0,0,0,,0,68,68,407,1,
,,,,,,,,,,,,,,,,,,5dd5e27fe25acf59990e1adf,2020-11-27_10h05.17.083,lexical_decision_task_MP_exp2,2020.2.5,Win32,60,z,1,,,,,,,,0.627555,1,,,,,,387,NW,UN,16,cragin,GRONCE,z,0.627555,,,,,,-0.02734375,-0.381510417,0,0,0,,0,69,69,446,1,
,,,,,,,,,,,,,,,,,,5dd5e27fe25acf59990e1adf,2020-11-27_10h05.17.083,lexical_decision_task_MP_exp2,2020.2.5,Win32,60,z,1,,,,,,,,0.640165,1,,,,,,280,NW,"ID",16,curbol,CURBOL,z,0.640165,,,,,,-0.02734375,-0.381510417,0,0,0,,0,70,70,339,1,
,,,,,,,,,,,,,,,,,,5dd5e27fe25acf59990e1adf,2020-11-27_10h05.17.083,lexical_decision_task_MP_exp2,2020.2.5,Win32,60,m,1,,,,,,,,0.500945,1,,,,,,112,WORD,UN,33,chorus,BREATH,m,0.500945,,,,,,-0.02734375,-0.381510417,0,0,0,,0,71,71,171,1,
,,,,,,,,,,,,,,,,,,5dd5e27fe25acf59990e1adf,2020-11-27_10h05.17.083,lexical_decision_task_MP_exp2,2020.2.5,Win32,60,m,1,,,,,,,,0.639745,1,,,,,,21,WORD,"ID",16,simple,SIMPLE,m,0.639745,,,,,,-0.02734375,-0.381510417,0,0,0,,0,72,72,80,1,
,,,,,,,,,,,,,,,,,,5dd5e27fe25acf59990e1adf,2020-11-27_10h05.17.083,lexical_decision_task_MP_exp2,2020.2.5,Win32,60,z,1,,,,,,,,0.603235,1,,,,,,372,NW,UN,16,bigent,RAMILY,z,0.603235,,,,,,-0.02734375,-0.381510417,0,0,0,,0,73,73,431,1,
,,,,,,,,,,,,,,,,,,5dd5e27fe25acf59990e1adf,2020-11-27_10h05.17.083,lexical_decision_task_MP_exp2,2020.2.5,Win32,60,z,1,,,,,,,,0.64967,1,,,,,,444,NW,"ID",33,jaunce,JAUNCE,z,0.64967,,,,,,-0.02734375,-0.381510417,0,0,0,,0,74,74,263,1,
,,,,,,,,,,,,,,,,,,5dd5e27fe25acf59990e1adf,2020-11-27_10h05.17.083,lexical_decision_task_MP_exp2,2020.2.5,Win32,60,z,1,,,,,,,,0.619545,1,,,,,,357,NW,UN,33,fleack,DERAIN,z,0.619545,,,,,,-0.02734375,-0.381510417,0,0,0,,0,75,75,416,1,
,,,,,,,,,,,,,,,,,,5dd5e27fe25acf59990e1adf,2020-11-27_10h05.17.083,lexical_decision_task_MP_exp2,2020.2.5,Win32,60,z,1,,,,,,,,0.65456,1,,,,,,456,NW,"ID",33,broget,BROGET,z,0.65456,,,,,,-0.02734375,-0.381510417,0,0,0,,0,76,76,275,1,
,,,,,,,,,,,,,,,,,,5dd5e27fe25acf59990e1adf,2020-11-27_10h05.17.083,lexical_decision_task_MP_exp2,2020.2.5,Win32,60,z,1,,,,,,,,0.96185,1,,,,,,364,NW,UN,16,guairt,IMPOTE,z,0.96185,,,,,,-0.02734375,-0.381510417,0,0,0,,0,77,77,423,1,
,,,,,,,,,,,,,,,,,,5dd5e27fe25acf59990e1adf,2020-11-27_10h05.17.083,lexical_decision_task_MP_exp2,2020.2.5,Win32,60,m,1,,,,,,,,0.59589,1,,,,,,197,WORD,"ID",33,stream,STREAM,m,0.59589,,,,,,-0.02734375,-0.381510417,0,0,0,,0,78,78,16,1,
,,,,,,,,,,,,,,,,,,5dd5e27fe25acf59990e1adf,2020-11-27_10h05.17.083,lexical_decision_task_MP_exp2,2020.2.5,Win32,60,m,1,,,,,,,,0.572595,1,,,,,,235,WORD,"ID",33,grumpy,GRUMPY,m,0.572595,,,,,,-0.02734375,-0.381510417,0,0,0,,0,79,79,54,1,
,,,,,,,,,,,,,,,,,,5dd5e27fe25acf59990e1adf,2020-11-27_10h05.17.083,lexical_decision_task_MP_exp2,2020.2.5,Win32,60,m,1,,,,,,,,0.715885,1,,,,,,132,WORD,UN,16,orphan,STRONG,m,0.715885,,,,,,-0.02734375,-0.381510417,0,0,0,,0,80,80,191,1,
,,,,,,,,,,,,,,,,,,5dd5e27fe25acf59990e1adf,2020-11-27_10h05.17.083,lexical_decision_task_MP_exp2,2020.2.5,Win32,60,m,1,,,,,,,,0.69993,1,,,,,,67,WORD,UN,33,fumble,POLICY,m,0.69993,,,,,,-0.02734375,-0.381510417,0,0,0,,0,81,81,126,1,
,,,,,,,,,,,,,,,,,,5dd5e27fe25acf59990e1adf,2020-11-27_10h05.17.083,lexical_decision_task_MP_exp2,2020.2.5,Win32,60,z,1,,,,,,,,0.606995,1,,,,,,403,NW,UN,16,cluirm,BRUATS,z,0.606995,,,,,,-0.02734375,-0.381510417,0,0,0,,0,82,82,462,1,
,,,,,,,,,,,,,,,,,,5dd5e27fe25acf59990e1adf,2020-11-27_10h05.17.083,lexical_decision_task_MP_exp2,2020.2.5,Win32,60,z,1,,,,,,,,0.66936,1,,,,,,369,NW,UN,16,sleact,WRONCH,z,0.66936,,,,,,-0.02734375,-0.381510417,0,0,0,,0,83,83,428,1,
,,,,,,,,,,,,,,,,,,5dd5e27fe25acf59990e1adf,2020-11-27_10h05.17.083,lexical_decision_task_MP_exp2,2020.2.5,Win32,60,m,1,,,,,,,,0.666125,1,,,,,,76,WORD,UN,33,racket,EXOTIC,m,0.666125,,,,,,-0.02734375,-0.381510417,0,0,0,,0,84,84,135,1,
,,,,,,,,,,,,,,,,,,5dd5e27fe25acf59990e1adf,2020-11-27_10h05.17.083,lexical_decision_task_MP_exp2,2020.2.5,Win32,60,z,1,,,,,,,,0.6422,1,,,,,,353,NW,UN,33,virlex,CLUREY,z,0.6422,,,,,,-0.02734375,-0.381510417,0,0,0,,0,85,85,412,1,
,,,,,,,,,,,,,,,,,,5dd5e27fe25acf59990e1adf,2020-11-27_10h05.17.083,lexical_decision_task_MP_exp2,2020.2.5,Win32,60,m,1,,,,,,,,0.67158,1,,,,,,58,WORD,"ID",16,foster,FOSTER,m,0.67158,,,,,,-0.02734375,-0.381510417,0,0,0,,0,86,86,117,1,
,,,,,,,,,,,,,,,,,,5dd5e27fe25acf59990e1adf,2020-11-27_10h05.17.083,lexical_decision_task_MP_exp2,2020.2.5,Win32,60,m,1,,,,,,,,0.605305,1,,,,,,5,WORD,"ID",16,plunge,PLUNGE,m,0.605305,,,,,,-0.02734375,-0.381510417,0,0,0,,0,87,87,64,1,
,,,,,,,,,,,,,,,,,,5dd5e27fe25acf59990e1adf,2020-11-27_10h05.17.083,lexical_decision_task_MP_exp2,2020.2.5,Win32,60,m,1,,,,,,,,0.599255,1,,,,,,73,WORD,UN,33,plaque,SOURCE,m,0.599255,,,,,,-0.02734375,-0.381510417,0,0,0,,0,88,88,132,1,
,,,,,,,,,,,,,,,,,,5dd5e27fe25acf59990e1adf,2020-11-27_10h05.17.083,lexical_decision_task_MP_exp2,2020.2.5,Win32,60,z,1,,,,,,,,0.68782,1,,,,,,448,NW,"ID",33,sadent,SADENT,z,0.68782,,,,,,-0.02734375,-0.381510417,0,0,0,,0,89,89,267,1,
,,,,,,,,,,,,,,,,,,5dd5e27fe25acf59990e1adf,2020-11-27_10h05.17.083,lexical_decision_task_MP_exp2,2020.2.5,Win32,60,z,1,,,,,,,,0.81013,1,,,,,,449,NW,"ID",33,brunge,BRUNGE,z,0.81013,,,,,,-0.02734375,-0.381510417,0,0,0,,0,90,90,268,1,
,,,,,,,,,,,,,,,,,,5dd5e27fe25acf59990e1adf,2020-11-27_10h05.17.083,lexical_decision_task_MP_exp2,2020.2.5,Win32,60,m,1,,,,,,,,0.66595,1,,,,,,216,WORD,"ID",33,behalf,BEHALF,m,0.66595,,,,,,-0.02734375,-0.381510417,0,0,0,,0,91,91,35,1,
,,,,,,,,,,,,,,,,,,5dd5e27fe25acf59990e1adf,2020-11-27_10h05.17.083,lexical_decision_task_MP_exp2,2020.2.5,Win32,60,m,1,,,,,,,,0.54366,1,,,,,,146,WORD,UN,16,garlic,COUPLE,m,0.54366,,,,,,-0.02734375,-0.381510417,0,0,0,,0,92,92,205,1,
,,,,,,,,,,,,,,,,,,5dd5e27fe25acf59990e1adf,2020-11-27_10h05.17.083,lexical_decision_task_MP_exp2,2020.2.5,Win32,60,m,1,,,,,,,,0.57231,1,,,,,,218,WORD,"ID",33,shrink,SHRINK,m,0.57231,,,,,,-0.02734375,-0.381510417,0,0,0,,0,93,93,37,1,
,,,,,,,,,,,,,,,,,,5dd5e27fe25acf59990e1adf,2020-11-27_10h05.17.083,lexical_decision_task_MP_exp2,2020.2.5,Win32,60,m,1,,,,,,,,0.65568,1,,,,,,145,WORD,UN,16,couple,PARISH,m,0.65568,,,,,,-0.02734375,-0.381510417,0,0,0,,0,94,94,204,1,
,,,,,,,,,,,,,,,,,,5dd5e27fe25acf59990e1adf,2020-11-27_10h05.17.083,lexical_decision_task_MP_exp2,2020.2.5,Win32,60,z,1,,,,,,,,0.634615,1,,,,,,275,NW,"ID",16,sleirt,SLEIRT,z,0.634615,,,,,,-0.02734375,-0.381510417,0,0,0,,0,95,95,334,1,
,,,,,,,,,,,,,,,,,,5dd5e27fe25acf59990e1adf,2020-11-27_10h05.17.083,lexical_decision_task_MP_exp2,2020.2.5,Win32,60,z,1,,,,,,,,0.55936,1,,,,,,391,NW,UN,16,rouncy,THELDY,z,0.55936,,,,,,-0.02734375,-0.381510417,0,0,0,,0,96,96,450,1,
,,,,,,,,,,,,,,,,,,5dd5e27fe25acf59990e1adf,2020-11-27_10h05.17.083,lexical_decision_task_MP_exp2,2020.2.5,Win32,60,z,1,,,,,,,,0.651345,1,,,,,,382,NW,UN,16,aungre,SARLEY,z,0.651345,,,,,,-0.02734375,-0.381510417,0,0,0,,0,97,97,441,1,
,,,,,,,,,,,,,,,,,,5dd5e27fe25acf59990e1adf,2020-11-27_10h05.17.083,lexical_decision_task_MP_exp2,2020.2.5,Win32,60,z,1,,,,,,,,0.727315,1,,,,,,347,NW,UN,33,dumple,KERIFT,z,0.727315,,,,,,-0.02734375,-0.381510417,0,0,0,,0,98,98,406,1,
,,,,,,,,,,,,,,,,,,5dd5e27fe25acf59990e1adf,2020-11-27_10h05.17.083,lexical_decision_task_MP_exp2,2020.2.5,Win32,60,z,1,,,,,,,,0.631595,1,,,,,,400,NW,UN,16,mustil,WEAROX,z,0.631595,,,,,,-0.02734375,-0.381510417,0,0,0,,0,99,99,459,1,
,,,,,,,,,,,,,,,,,,5dd5e27fe25acf59990e1adf,2020-11-27_10h05.17.083,lexical_decision_task_MP_exp2,2020.2.5,Win32,60,z,1,,,,,,,,0.65541,1,,,,,,401,NW,UN,16,syntic,MUSTIL,z,0.65541,,,,,,-0.02734375,-0.381510417,0,0,0,,0,100,100,460,1,
,,,,,,,,,,,,,,,,,,5dd5e27fe25acf59990e1adf,2020-11-27_10h05.17.083,lexical_decision_task_MP_exp2,2020.2.5,Win32,60,m,1,,,,,,,,0.653885,1,,,,,,1,WORD,"ID",16,fright,FRIGHT,m,0.653885,,,,,,-0.02734375,-0.381510417,0,0,0,,0,101,101,60,1,
,,,,,,,,,,,,,,,,,,5dd5e27fe25acf59990e1adf,2020-11-27_10h05.17.083,lexical_decision_task_MP_exp2,2020.2.5,Win32,60,z,1,,,,,,,,0.736705,1,,,,,,336,NW,UN,33,rejols,GHODUS,z,0.736705,,,,,,-0.02734375,-0.381510417,0,0,0,,0,102,102,395,1,
,,,,,,,,,,,,,,,,,,5dd5e27fe25acf59990e1adf,2020-11-27_10h05.17.083,lexical_decision_task_MP_exp2,2020.2.5,Win32,60,m,1,,,,,,,,0.515885,1,,,,,,110,WORD,UN,33,induce,POLITE,m,0.515885,,,,,,-0.02734375,-0.381510417,0,0,0,,0,103,103,169,1,
,,,,,,,,,,,,,,,,,,5dd5e27fe25acf59990e1adf,2020-11-27_10h05.17.083,lexical_decision_task_MP_exp2,2020.2.5,Win32,60,z,1,,,,,,,,0.609395,1,,,,,,360,NW,UN,33,fainch,DESORY,z,0.609395,,,,,,-0.02734375,-0.381510417,0,0,0,,0,104,104,419,1,
,,,,,,,,,,,,,,,,,,5dd5e27fe25acf59990e1adf,2020-11-27_10h05.17.083,lexical_decision_task_MP_exp2,2020.2.5,Win32,60,z,1,,,,,,,,0.736625,1,,,,,,416,NW,UN,16,earoud,PATHEL,z,0.736625,,,,,,-0.02734375,-0.381510417,0,0,0,,0,105,105,475,1,
,,,,,,,,,,,,,,,,,,5dd5e27fe25acf59990e1adf,2020-11-27_10h05.17.083,lexical_decision_task_MP_exp2,2020.2.5,Win32,60,z,1,,,,,,,,0.76664,1,,,,,,278,NW,"ID",16,unighs,UNIGHS,z,0.76664,,,,,,-0.02734375,-0.381510417,0,0,0,,0,106,106,337,1,
,,,,,,,,,,,,,,,,,,5dd5e27fe25acf59990e1adf,2020-11-27_10h05.17.083,lexical_decision_task_MP_exp2,2020.2.5,Win32,60,m,1,,,,,,,,0.620495,1,,,,,,53,WORD,"ID",16,police,POLICE,m,0.620495,,,,,,-0.02734375,-0.381510417,0,0,0,,0,107,107,112,1,
,,,,,,,,,,,,,,,,,,5dd5e27fe25acf59990e1adf,2020-11-27_10h05.17.083,lexical_decision_task_MP_exp2,2020.2.5,Win32,60,m,1,,,,,,,,0.589235,1,,,,,,8,WORD,"ID",16,abrupt,ABRUPT,m,0.589235,,,,,,-0.02734375,-0.381510417,0,0,0,,0,108,108,67,1,
,,,,,,,,,,,,,,,,,,5dd5e27fe25acf59990e1adf,2020-11-27_10h05.17.083,lexical_decision_task_MP_exp2,2020.2.5,Win32,60,z,1,,,,,,,,0.58676,1,,,,,,305,NW,UN,33,sounge,FORGLE,z,0.58676,,,,,,-0.02734375,-0.381510417,0,0,0,,0,109,109,364,1,
,,,,,,,,,,,,,,,,,,5dd5e27fe25acf59990e1adf,2020-11-27_10h05.17.083,lexical_decision_task_MP_exp2,2020.2.5,Win32,60,z,1,,,,,,,,0.770865,1,,,,,,269,NW,"ID",16,orchet,ORCHET,z,0.770865,,,,,,-0.02734375,-0.381510417,0,0,0,,0,110,110,328,1,
,,,,,,,,,,,,,,,,,,5dd5e27fe25acf59990e1adf,2020-11-27_10h05.17.083,lexical_decision_task_MP_exp2,2020.2.5,Win32,60,z,1,,,,,,,,0.623215,1,,,,,,273,NW,"ID",16,sortel,SORTEL,z,0.623215,,,,,,-0.02734375,-0.381510417,0,0,0,,0,111,111,332,1,
,,,,,,,,,,,,,,,,,,5dd5e27fe25acf59990e1adf,2020-11-27_10h05.17.083,lexical_decision_task_MP_exp2,2020.2.5,Win32,60,z,1,,,,,,,,0.619065,1,,,,,,436,NW,"ID",33,frutan,FRUTAN,z,0.619065,,,,,,-0.02734375,-0.381510417,0,0,0,,0,112,112,255,1,
,,,,,,,,,,,,,,,,,,5dd5e27fe25acf59990e1adf,2020-11-27_10h05.17.083,lexical_decision_task_MP_exp2,2020.2.5,Win32,60,m,1,,,,,,,,0.625875,1,,,,,,219,WORD,"ID",33,bucket,BUCKET,m,0.625875,,,,,,-0.02734375,-0.381510417,0,0,0,,0,113,113,38,1,
,,,,,,,,,,,,,,,,,,5dd5e27fe25acf59990e1adf,2020-11-27_10h05.17.083,lexical_decision_task_MP_exp2,2020.2.5,Win32,60,m,1,,,,,,,,0.56517,1,,,,,,17,WORD,"ID",16,charge,CHARGE,m,0.56517,,,,,,-0.02734375,-0.381510417,0,0,0,,0,114,114,76,1,
,,,,,,,,,,,,,,,,,,5dd5e27fe25acf59990e1adf,2020-11-27_10h05.17.083,lexical_decision_task_MP_exp2,2020.2.5,Win32,60,m,1,,,,,,,,0.51123,1,,,,,,210,WORD,"ID",33,monkey,MONKEY,m,0.51123,,,,,,-0.02734375,-0.381510417,0,0,0,,0,115,115,29,1,
,,,,,,,,,,,,,,,,,,5dd5e27fe25acf59990e1adf,2020-11-27_10h05.17.083,lexical_decision_task_MP_exp2,2020.2.5,Win32,60,m,1,,,,,,,,0.460895,1,,,,,,80,WORD,UN,33,friend,FAMILY,m,0.460895,,,,,,-0.02734375,-0.381510417,0,0,0,,0,116,116,139,1,
,,,,,,,,,,,,,,,,,,5dd5e27fe25acf59990e1adf,2020-11-27_10h05.17.083,lexical_decision_task_MP_exp2,2020.2.5,Win32,60,z,1,,,,,,,,0.59889,1,,,,,,468,NW,"ID",33,wictor,WICTOR,z,0.59889,,,,,,-0.02734375,-0.381510417,0,0,0,,0,117,117,287,1,
,,,,,,,,,,,,,,,,,,5dd5e27fe25acf59990e1adf,2020-11-27_10h05.17.083,lexical_decision_task_MP_exp2,2020.2.5,Win32,60,m,1,,,,,,,,0.737365,1,,,,,,185,WORD,"ID",33,bother,BOTHER,m,0.737365,,,,,,-0.02734375,-0.381510417,0,0,0,,0,118,118,4,1,
,,,,,,,,,,,,,,,,,,5dd5e27fe25acf59990e1adf,2020-11-27_10h05.17.083,lexical_decision_task_MP_exp2,2020.2.5,Win32,60,m,1,,,,,,,,0.668455,1,,,,,,133,WORD,UN,16,staple,CHROME,m,0.668455,,,,,,-0.02734375,-0.381510417,0,0,0,,0,119,119,192,1,
,,,,,,,,,,,,,,,,,,5dd5e27fe25acf59990e1adf,2020-11-27_10h05.17.083,lexical_decision_task_MP_exp2,2020.2.5,Win32,60,m,1,,,,,,,,0.615465,1,,,,,,171,WORD,UN,16,patrol,DEPART,m,0.615465,,,,,,-0.02734375,-0.381510417,1,0,0,,0,120,120,230,1,break_done_button
,,,,,,,,,,,,,,,,,,5dd5e27fe25acf59990e1adf,2020-11-27_10h05.17.083,lexical_decision_task_MP_exp2,2020.2.5,Win32,60,z,1,,,,,,,,1.165545,1,,,,,,388,NW,UN,16,witmer,CRAGIN,z,1.165545,,,,,,-0.02734375,-0.381510417,0,0,0,,0,121,121,447,1,
,,,,,,,,,,,,,,,,,,5dd5e27fe25acf59990e1adf,2020-11-27_10h05.17.083,lexical_decision_task_MP_exp2,2020.2.5,Win32,60,m,1,,,,,,,,0.636425,1,,,,,,224,WORD,"ID",33,period,PERIOD,m,0.636425,,,,,,-0.02734375,-0.381510417,0,0,0,,0,122,122,43,1,
,,,,,,,,,,,,,,,,,,5dd5e27fe25acf59990e1adf,2020-11-27_10h05.17.083,lexical_decision_task_MP_exp2,2020.2.5,Win32,60,z,1,,,,,,,,0.64249,1,,,,,,310,NW,UN,33,sproly,DANIET,z,0.64249,,,,,,-0.02734375,-0.381510417,0,0,0,,0,123,123,369,1,
,,,,,,,,,,,,,,,,,,5dd5e27fe25acf59990e1adf,2020-11-27_10h05.17.083,lexical_decision_task_MP_exp2,2020.2.5,Win32,60,z,1,,,,,,,,0.61643,1,,,,,,384,NW,UN,16,injore,GUESCO,z,0.61643,,,,,,-0.02734375,-0.381510417,0,0,0,,0,124,124,443,1,
,,,,,,,,,,,,,,,,,,5dd5e27fe25acf59990e1adf,2020-11-27_10h05.17.083,lexical_decision_task_MP_exp2,2020.2.5,Win32,60,m,0,,,,,,,,0.65001,0,,,,,,303,NW,UN,33,cludie,FIREAM,z,0.65001,,,,,,-0.02734375,-0.381510417,0,0,0,,0,125,125,362,1,
,,,,,,,,,,,,,,,,,,5dd5e27fe25acf59990e1adf,2020-11-27_10h05.17.083,lexical_decision_task_MP_exp2,2020.2.5,Win32,60,m,1,,,,,,,,0.719865,1,,,,,,15,WORD,"ID",16,amount,AMOUNT,m,0.719865,,,,,,-0.02734375,-0.381510417,0,0,0,,0,126,126,74,1,
,,,,,,,,,,,,,,,,,,5dd5e27fe25acf59990e1adf,2020-11-27_10h05.17.083,lexical_decision_task_MP_exp2,2020.2.5,Win32,60,m,1,,,,,,,,0.641615,1,,,,,,26,WORD,"ID",16,sprint,SPRINT,m,0.641615,,,,,,-0.02734375,-0.381510417,0,0,0,,0,127,127,85,1,
,,,,,,,,,,,,,,,,,,5dd5e27fe25acf59990e1adf,2020-11-27_10h05.17.083,lexical_decision_task_MP_exp2,2020.2.5,Win32,60,m,1,,,,,,,,0.61633,1,,,,,,89,WORD,UN,33,relish,PERMIT,m,0.61633,,,,,,-0.02734375,-0.381510417,0,0,0,,0,128,128,148,1,
,,,,,,,,,,,,,,,,,,5dd5e27fe25acf59990e1adf,2020-11-27_10h05.17.083,lexical_decision_task_MP_exp2,2020.2.5,Win32,60,m,1,,,,,,,,0.720785,1,,,,,,62,WORD,UN,33,launch,REGION,m,0.720785,,,,,,-0.02734375,-0.381510417,0,0,0,,0,129,129,121,1,
,,,,,,,,,,,,,,,,,,5dd5e27fe25acf59990e1adf,2020-11-27_10h05.17.083,lexical_decision_task_MP_exp2,2020.2.5,Win32,60,z,1,,,,,,,,0.672055,1,,,,,,304,NW,UN,33,forgle,CLUDIE,z,0.672055,,,,,,-0.02734375,-0.381510417,0,0,0,,0,130,130,363,1,
,,,,,,,,,,,,,,,,,,5dd5e27fe25acf59990e1adf,2020-11-27_10h05.17.083,lexical_decision_task_MP_exp2,2020.2.5,Win32,60,z,1,,,,,,,,0.682865,1,,,,,,399,NW,UN,16,wearox,FOURET,z,0.682865,,,,,,-0.02734375,-0.381510417,0,0,0,,0,131,131,458,1,
,,,,,,,,,,,,,,,,,,5dd5e27fe25acf59990e1adf,2020-11-27_10h05.17.083,lexical_decision_task_MP_exp2,2020.2.5,Win32,60,z,1,,,,,,,,0.799935,1,,,,,,342,NW,UN,33,aimosy,RANDOW,z,0.799935,,,,,,-0.02734375,-0.381510417,0,0,0,,0,132,132,401,1,
,,,,,,,,,,,,,,,,,,5dd5e27fe25acf59990e1adf,2020-11-27_10h05.17.083,lexical_decision_task_MP_exp2,2020.2.5,Win32,60,z,1,,,,,,,,0.64866,1,,,,,,459,NW,"ID",33,bafent,BAFENT,z,0.64866,,,,,,-0.02734375,-0.381510417,0,0,0,,0,133,133,278,1,
,,,,,,,,,,,,,,,,,,5dd5e27fe25acf59990e1adf,2020-11-27_10h05.17.083,lexical_decision_task_MP_exp2,2020.2.5,Win32,60,z,0,,,,,,,,0.58403,0,,,,,,97,WORD,UN,33,belong,CLIENT,m,0.58403,,,,,,-0.02734375,-0.381510417,0,0,0,,0,134,134,156,1,
,,,,,,,,,,,,,,,,,,5dd5e27fe25acf59990e1adf,2020-11-27_10h05.17.083,lexical_decision_task_MP_exp2,2020.2.5,Win32,60,m,1,,,,,,,,0.605235,1,,,,,,61,WORD,UN,33,region,PONDER,m,0.605235,,,,,,-0.02734375,-0.381510417,0,0,0,,0,135,135,120,1,
,,,,,,,,,,,,,,,,,,5dd5e27fe25acf59990e1adf,2020-11-27_10h05.17.083,lexical_decision_task_MP_exp2,2020.2.5,Win32,60,m,1,,,,,,,,0.654995,1,,,,,,16,WORD,"ID",16,faucet,FAUCET,m,0.654995,,,,,,-0.02734375,-0.381510417,0,0,0,,0,136,136,75,1,
,,,,,,,,,,,,,,,,,,5dd5e27fe25acf59990e1adf,2020-11-27_10h05.17.083,lexical_decision_task_MP_exp2,2020.2.5,Win32,60,z,1,,,,,,,,0.80116,1,,,,,,260,NW,"ID",16,unject,UNJECT,z,0.80116,,,,,,-0.02734375,-0.381510417,0,0,0,,0,137,137,319,1,
,,,,,,,,,,,,,,,,,,5dd5e27fe25acf59990e1adf,2020-11-27_10h05.17.083,lexical_decision_task_MP_exp2,2020.2.5,Win32,60,m,1,,,,,,,,0.74902,1,,,,,,128,WORD,UN,16,marvel,SENIOR,m,0.74902,,,,,,-0.02734375,-0.381510417,0,0,0,,0,138,138,187,1,
,,,,,,,,,,,,,,,,,,5dd5e27fe25acf59990e1adf,2020-11-27_10h05.17.083,lexical_decision_task_MP_exp2,2020.2.5,Win32,60,z,1,,,,,,,,0.733635,1,,,,,,452,NW,"ID",33,surden,SURDEN,z,0.733635,,,,,,-0.02734375,-0.381510417,0,0,0,,0,139,139,271,1,
,,,,,,,,,,,,,,,,,,5dd5e27fe25acf59990e1adf,2020-11-27_10h05.17.083,lexical_decision_task_MP_exp2,2020.2.5,Win32,60,m,1,,,,,,,,0.687985,1,,,,,,231,WORD,"ID",33,export,EXPORT,m,0.687985,,,,,,-0.02734375,-0.381510417,0,0,0,,0,140,140,50,1,
,,,,,,,,,,,,,,,,,,5dd5e27fe25acf59990e1adf,2020-11-27_10h05.17.083,lexical_decision_task_MP_exp2,2020.2.5,Win32,60,m,1,,,,,,,,0.652655,1,,,,,,240,WORD,"ID",33,forest,FOREST,m,0.652655,,,,,,-0.02734375,-0.381510417,0,0,0,,0,141,141,59,1,
,,,,,,,,,,,,,,,,,,5dd5e27fe25acf59990e1adf,2020-11-27_10h05.17.083,lexical_decision_task_MP_exp2,2020.2.5,Win32,60,z,1,,,,,,,,0.699525,1,,,,,,453,NW,"ID",33,bolvis,BOLVIS,z,0.699525,,,,,,-0.02734375,-0.381510417,0,0,0,,0,142,142,272,1,
,,,,,,,,,,,,,,,,,,5dd5e27fe25acf59990e1adf,2020-11-27_10h05.17.083,lexical_decision_task_MP_exp2,2020.2.5,Win32,60,m,1,,,,,,,,0.85908,1,,,,,,10,WORD,"ID",16,ethnic,ETHNIC,m,0.85908,,,,,,-0.02734375,-0.381510417,0,0,0,,0,143,143,69,1,
,,,,,,,,,,,,,,,,,,5dd5e27fe25acf59990e1adf,2020-11-27_10h05.17.083,lexical_decision_task_MP_exp2,2020.2.5,Win32,60,m,1,,,,,,,,0.692715,1,,,,,,187,WORD,"ID",33,course,COURSE,m,0.692715,,,,,,-0.02734375,-0.381510417,0,0,0,,0,144,144,6,1,
,,,,,,,,,,,,,,,,,,5dd5e27fe25acf59990e1adf,2020-11-27_10h05.17.083,lexical_decision_task_MP_exp2,2020.2.5,Win32,60,m,1,,,,,,,,0.661075,1,,,,,,188,WORD,"ID",33,social,SOCIAL,m,0.661075,,,,,,-0.02734375,-0.381510417,0,0,0,,0,145,145,7,1,
,,,,,,,,,,,,,,,,,,5dd5e27fe25acf59990e1adf,2020-11-27_10h05.17.083,lexical_decision_task_MP_exp2,2020.2.5,Win32,60,m,1,,,,,,,,0.67319,1,,,,,,100,WORD,UN,33,wrench,CARBON,m,0.67319,,,,,,-0.02734375,-0.381510417,0,0,0,,0,146,146,159,1,
,,,,,,,,,,,,,,,,,,5dd5e27fe25acf59990e1adf,2020-11-27_10h05.17.083,lexical_decision_task_MP_exp2,2020.2.5,Win32,60,z,1,,,,,,,,0.73522,1,,,,,,355,NW,UN,33,othnis,ZINGLY,z,0.73522,,,,,,-0.02734375,-0.381510417,0,0,0,,0,147,147,414,1,
,,,,,,,,,,,,,,,,,,5dd5e27fe25acf59990e1adf,2020-11-27_10h05.17.083,lexical_decision_task_MP_exp2,2020.2.5,Win32,60,m,1,,,,,,,,0.88589,1,,,,,,181,WORD,"ID",33,glance,GLANCE,m,0.88589,,,,,,-0.02734375,-0.381510417,0,0,0,,0,148,148,0,1,
,,,,,,,,,,,,,,,,,,5dd5e27fe25acf59990e1adf,2020-11-27_10h05.17.083,lexical_decision_task_MP_exp2,2020.2.5,Win32,60,z,1,,,,,,,,0.74937,1,,,,,,306,NW,UN,33,kirafe,SOUNGE,z,0.74937,,,,,,-0.02734375,-0.381510417,0,0,0,,0,149,149,365,1,
,,,,,,,,,,,,,,,,,,5dd5e27fe25acf59990e1adf,2020-11-27_10h05.17.083,lexical_decision_task_MP_exp2,2020.2.5,Win32,60,m,1,,,,,,,,0.69574,1,,,,,,101,WORD,UN,33,direct,WRENCH,m,0.69574,,,,,,-0.02734375,-0.381510417,0,0,0,,0,150,150,160,1,
,,,,,,,,,,,,,,,,,,5dd5e27fe25acf59990e1adf,2020-11-27_10h05.17.083,lexical_decision_task_MP_exp2,2020.2.5,Win32,60,m,1,,,,,,,,0.717295,1,,,,,,42,WORD,"ID",16,chapel,CHAPEL,m,0.717295,,,,,,-0.02734375,-0.381510417,0,0,0,,0,151,151,101,1,
,,,,,,,,,,,,,,,,,,5dd5e27fe25acf59990e1adf,2020-11-27_10h05.17.083,lexical_decision_task_MP_exp2,2020.2.5,Win32,60,z,1,,,,,,,,0.719365,1,,,,,,312,NW,UN,33,paurse,NERAWL,z,0.719365,,,,,,-0.02734375,-0.381510417,0,0,0,,0,152,152,371,1,
,,,,,,,,,,,,,,,,,,5dd5e27fe25acf59990e1adf,2020-11-27_10h05.17.083,lexical_decision_task_MP_exp2,2020.2.5,Win32,60,z,1,,,,,,,,0.826865,1,,,,,,291,NW,"ID",16,pretch,PRETCH,z,0.826865,,,,,,-0.02734375,-0.381510417,0,0,0,,0,153,153,350,1,
,,,,,,,,,,,,,,,,,,5dd5e27fe25acf59990e1adf,2020-11-27_10h05.17.083,lexical_decision_task_MP_exp2,2020.2.5,Win32,60,z,1,,,,,,,,0.749845,1,,,,,,370,NW,UN,16,geiloy,SLEACT,z,0.749845,,,,,,-0.02734375,-0.381510417,0,0,0,,0,154,154,429,1,
,,,,,,,,,,,,,,,,,,5dd5e27fe25acf59990e1adf,2020-11-27_10h05.17.083,lexical_decision_task_MP_exp2,2020.2.5,Win32,60,m,1,,,,,,,,0.64135,1,,,,,,13,WORD,"ID",16,strive,STRIVE,m,0.64135,,,,,,-0.02734375,-0.381510417,0,0,0,,0,155,155,72,1,
,,,,,,,,,,,,,,,,,,5dd5e27fe25acf59990e1adf,2020-11-27_10h05.17.083,lexical_decision_task_MP_exp2,2020.2.5,Win32,60,m,1,,,,,,,,0.76629,1,,,,,,236,WORD,"ID",33,pirate,PIRATE,m,0.76629,,,,,,-0.02734375,-0.381510417,0,0,0,,0,156,156,55,1,
,,,,,,,,,,,,,,,,,,5dd5e27fe25acf59990e1adf,2020-11-27_10h05.17.083,lexical_decision_task_MP_exp2,2020.2.5,Win32,60,m,1,,,,,,,,0.782705,1,,,,,,215,WORD,"ID",33,phobia,PHOBIA,m,0.782705,,,,,,-0.02734375,-0.381510417,0,0,0,,0,157,157,34,1,
,,,,,,,,,,,,,,,,,,5dd5e27fe25acf59990e1adf,2020-11-27_10h05.17.083,lexical_decision_task_MP_exp2,2020.2.5,Win32,60,m,1,,,,,,,,0.60982,1,,,,,,189,WORD,"ID",33,censor,CENSOR,m,0.60982,,,,,,-0.02734375,-0.381510417,0,0,0,,0,158,158,8,1,
,,,,,,,,,,,,,,,,,,5dd5e27fe25acf59990e1adf,2020-11-27_10h05.17.083,lexical_decision_task_MP_exp2,2020.2.5,Win32,60,z,1,,,,,,,,0.7216,1,,,,,,258,NW,"ID",16,poluth,POLUTH,z,0.7216,,,,,,-0.02734375,-0.381510417,0,0,0,,0,159,159,317,1,
,,,,,,,,,,,,,,,,,,5dd5e27fe25acf59990e1adf,2020-11-27_10h05.17.083,lexical_decision_task_MP_exp2,2020.2.5,Win32,60,z,1,,,,,,,,0.721725,1,,,,,,327,NW,UN,33,broake,PLENAC,z,0.721725,,,,,,-0.02734375,-0.381510417,0,0,0,,0,160,160,386,1,
,,,,,,,,,,,,,,,,,,5dd5e27fe25acf59990e1adf,2020-11-27_10h05.17.083,lexical_decision_task_MP_exp2,2020.2.5,Win32,60,m,1,,,,,,,,0.76813,1,,,,,,213,WORD,"ID",33,squeal,SQUEAL,m,0.76813,,,,,,-0.02734375,-0.381510417,0,0,0,,0,161,161,32,1,
,,,,,,,,,,,,,,,,,,5dd5e27fe25acf59990e1adf,2020-11-27_10h05.17.083,lexical_decision_task_MP_exp2,2020.2.5,Win32,60,m,1,,,,,,,,0.6331,1,,,,,,57,WORD,"ID",16,change,CHANGE,m,0.6331,,,,,,-0.02734375,-0.381510417,0,0,0,,0,162,162,116,1,
,,,,,,,,,,,,,,,,,,5dd5e27fe25acf59990e1adf,2020-11-27_10h05.17.083,lexical_decision_task_MP_exp2,2020.2.5,Win32,60,z,1,,,,,,,,0.677345,1,,,,,,254,NW,"ID",16,varosh,VAROSH,z,0.677345,,,,,,-0.02734375,-0.381510417,0,0,0,,0,163,163,313,1,
,,,,,,,,,,,,,,,,,,5dd5e27fe25acf59990e1adf,2020-11-27_10h05.17.083,lexical_decision_task_MP_exp2,2020.2.5,Win32,60,m,1,,,,,,,,0.58671,1,,,,,,147,WORD,UN,16,custom,GARLIC,m,0.58671,,,,,,-0.02734375,-0.381510417,0,0,0,,0,164,164,206,1,
,,,,,,,,,,,,,,,,,,5dd5e27fe25acf59990e1adf,2020-11-27_10h05.17.083,lexical_decision_task_MP_exp2,2020.2.5,Win32,60,z,1,,,,,,,,0.71636,1,,,,,,460,NW,"ID",33,mingar,MINGAR,z,0.71636,,,,,,-0.02734375,-0.381510417,0,0,0,,0,165,165,279,1,
,,,,,,,,,,,,,,,,,,5dd5e27fe25acf59990e1adf,2020-11-27_10h05.17.083,lexical_decision_task_MP_exp2,2020.2.5,Win32,60,m,1,,,,,,,,0.622755,1,,,,,,226,WORD,"ID",33,casino,CASINO,m,0.622755,,,,,,-0.02734375,-0.381510417,0,0,0,,0,166,166,45,1,
,,,,,,,,,,,,,,,,,,5dd5e27fe25acf59990e1adf,2020-11-27_10h05.17.083,lexical_decision_task_MP_exp2,2020.2.5,Win32,60,z,1,,,,,,,,0.634455,1,,,,,,263,NW,"ID",16,dolica,DOLICA,z,0.634455,,,,,,-0.02734375,-0.381510417,0,0,0,,0,167,167,322,1,
,,,,,,,,,,,,,,,,,,5dd5e27fe25acf59990e1adf,2020-11-27_10h05.17.083,lexical_decision_task_MP_exp2,2020.2.5,Win32,60,m,1,,,,,,,,0.68285,1,,,,,,125,WORD,UN,16,enough,NICKEL,m,0.68285,,,,,,-0.02734375,-0.381510417,0,0,0,,0,168,168,184,1,
,,,,,,,,,,,,,,,,,,5dd5e27fe25acf59990e1adf,2020-11-27_10h05.17.083,lexical_decision_task_MP_exp2,2020.2.5,Win32,60,z,1,,,,,,,,0.65006,1,,,,,,455,NW,"ID",33,tondle,TONDLE,z,0.65006,,,,,,-0.02734375,-0.381510417,0,0,0,,0,169,169,274,1,
,,,,,,,,,,,,,,,,,,5dd5e27fe25acf59990e1adf,2020-11-27_10h05.17.083,lexical_decision_task_MP_exp2,2020.2.5,Win32,60,m,1,,,,,,,,0.57822,1,,,,,,28,WORD,"ID",16,comedy,COMEDY,m,0.57822,,,,,,-0.02734375,-0.381510417,0,0,0,,0,170,170,87,1,
,,,,,,,,,,,,,,,,,,5dd5e27fe25acf59990e1adf,2020-11-27_10h05.17.083,lexical_decision_task_MP_exp2,2020.2.5,Win32,60,z,1,,,,,,,,0.54435,1,,,,,,351,NW,UN,33,tringe,TIESCH,z,0.54435,,,,,,-0.02734375,-0.381510417,0,0,0,,0,171,171,410,1,
,,,,,,,,,,,,,,,,,,5dd5e27fe25acf59990e1adf,2020-11-27_10h05.17.083,lexical_decision_task_MP_exp2,2020.2.5,Win32,60,m,1,,,,,,,,0.65896,1,,,,,,167,WORD,UN,16,answer,DESIGN,m,0.65896,,,,,,-0.02734375,-0.381510417,0,0,0,,0,172,172,226,1,
,,,,,,,,,,,,,,,,,,5dd5e27fe25acf59990e1adf,2020-11-27_10h05.17.083,lexical_decision_task_MP_exp2,2020.2.5,Win32,60,z,1,,,,,,,,0.76488,1,,,,,,398,NW,UN,16,fouret,BLUNDE,z,0.76488,,,,,,-0.02734375,-0.381510417,0,0,0,,0,173,173,457,1,
,,,,,,,,,,,,,,,,,,5dd5e27fe25acf59990e1adf,2020-11-27_10h05.17.083,lexical_decision_task_MP_exp2,2020.2.5,Win32,60,m,1,,,,,,,,0.63126,1,,,,,,74,WORD,UN,33,trophy,PLAQUE,m,0.63126,,,,,,-0.02734375,-0.381510417,0,0,0,,0,174,174,133,1,
,,,,,,,,,,,,,,,,,,5dd5e27fe25acf59990e1adf,2020-11-27_10h05.17.083,lexical_decision_task_MP_exp2,2020.2.5,Win32,60,z,1,,,,,,,,0.61661,1,,,,,,345,NW,UN,33,saudic,ABSEND,z,0.61661,,,,,,-0.02734375,-0.381510417,0,0,0,,0,175,175,404,1,
,,,,,,,,,,,,,,,,,,5dd5e27fe25acf59990e1adf,2020-11-27_10h05.17.083,lexical_decision_task_MP_exp2,2020.2.5,Win32,60,m,1,,,,,,,,0.58422,1,,,,,,115,WORD,UN,33,tumble,GUITAR,m,0.58422,,,,,,-0.02734375,-0.381510417,0,0,0,,0,176,176,174,1,
,,,,,,,,,,,,,,,,,,5dd5e27fe25acf59990e1adf,2020-11-27_10h05.17.083,lexical_decision_task_MP_exp2,2020.2.5,Win32,60,m,1,,,,,,,,0.652655,1,,,,,,232,WORD,"ID",33,inject,INJECT,m,0.652655,,,,,,-0.02734375,-0.381510417,0,0,0,,0,177,177,51,1,
,,,,,,,,,,,,,,,,,,5dd5e27fe25acf59990e1adf,2020-11-27_10h05.17.083,lexical_decision_task_MP_exp2,2020.2.5,Win32,60,m,1,,,,,,,,0.7017,1,,,,,,182,WORD,"ID",33,winter,WINTER,m,0.7017,,,,,,-0.02734375,-0.381510417,0,0,0,,0,178,178,1,1,
,,,,,,,,,,,,,,,,,,5dd5e27fe25acf59990e1adf,2020-11-27_10h05.17.083,lexical_decision_task_MP_exp2,2020.2.5,Win32,60,z,1,,,,,,,,0.71018,1,,,,,,325,NW,UN,33,iguade,THRUSE,z,0.71018,,,,,,-0.02734375,-0.381510417,0,0,0,,0,179,179,384,1,
,,,,,,,,,,,,,,,,,,5dd5e27fe25acf59990e1adf,2020-11-27_10h05.17.083,lexical_decision_task_MP_exp2,2020.2.5,Win32,60,m,1,,,,,,,,0.69841,1,,,,,,153,WORD,UN,16,author,BEHOLD,m,0.69841,,,,,,-0.02734375,-0.381510417,0,0,0,,0,180,180,212,1,
,,,,,,,,,,,,,,,,,,5dd5e27fe25acf59990e1adf,2020-11-27_10h05.17.083,lexical_decision_task_MP_exp2,2020.2.5,Win32,60,z,1,,,,,,,,0.756015,1,,,,,,315,NW,UN,33,scregm,LASTON,z,0.756015,,,,,,-0.02734375,-0.381510417,0,0,0,,0,181,181,374,1,
,,,,,,,,,,,,,,,,,,5dd5e27fe25acf59990e1adf,2020-11-27_10h05.17.083,lexical_decision_task_MP_exp2,2020.2.5,Win32,60,z,1,,,,,,,,0.63808,1,,,,,,471,NW,"ID",33,nobest,NOBEST,z,0.63808,,,,,,-0.02734375,-0.381510417,0,0,0,,0,182,182,290,1,
,,,,,,,,,,,,,,,,,,5dd5e27fe25acf59990e1adf,2020-11-27_10h05.17.083,lexical_decision_task_MP_exp2,2020.2.5,Win32,60,m,1,,,,,,,,0.73946,1,,,,,,180,WORD,UN,16,thrive,SILENT,m,0.73946,,,,,,-0.02734375,-0.381510417,0,0,0,,0,183,183,239,1,
,,,,,,,,,,,,,,,,,,5dd5e27fe25acf59990e1adf,2020-11-27_10h05.17.083,lexical_decision_task_MP_exp2,2020.2.5,Win32,60,m,1,,,,,,,,0.59481,1,,,,,,137,WORD,UN,16,melody,FINGER,m,0.59481,,,,,,-0.02734375,-0.381510417,0,0,0,,0,184,184,196,1,
,,,,,,,,,,,,,,,,,,5dd5e27fe25acf59990e1adf,2020-11-27_10h05.17.083,lexical_decision_task_MP_exp2,2020.2.5,Win32,60,z,1,,,,,,,,0.626965,1,,,,,,427,NW,"ID",33,schind,SCHIND,z,0.626965,,,,,,-0.02734375,-0.381510417,0,0,0,,0,185,185,246,1,
,,,,,,,,,,,,,,,,,,5dd5e27fe25acf59990e1adf,2020-11-27_10h05.17.083,lexical_decision_task_MP_exp2,2020.2.5,Win32,60,z,1,,,,,,,,0.67551,1,,,,,,253,NW,"ID",16,resait,RESAIT,z,0.67551,,,,,,-0.02734375,-0.381510417,0,0,0,,0,186,186,312,1,
,,,,,,,,,,,,,,,,,,5dd5e27fe25acf59990e1adf,2020-11-27_10h05.17.083,lexical_decision_task_MP_exp2,2020.2.5,Win32,60,z,1,,,,,,,,0.650585,1,,,,,,293,NW,"ID",16,swance,SWANCE,z,0.650585,,,,,,-0.02734375,-0.381510417,0,0,0,,0,187,187,352,1,
,,,,,,,,,,,,,,,,,,5dd5e27fe25acf59990e1adf,2020-11-27_10h05.17.083,lexical_decision_task_MP_exp2,2020.2.5,Win32,60,m,1,,,,,,,,0.65235,1,,,,,,143,WORD,UN,16,sponge,REASON,m,0.65235,,,,,,-0.02734375,-0.381510417,0,0,0,,0,188,188,202,1,
,,,,,,,,,,,,,,,,,,5dd5e27fe25acf59990e1adf,2020-11-27_10h05.17.083,lexical_decision_task_MP_exp2,2020.2.5,Win32,60,z,1,,,,,,,,0.705895,1,,,,,,301,NW,UN,33,miluer,FAINCH,z,0.705895,,,,,,-0.02734375,-0.381510417,0,0,0,,0,189,189,360,1,
,,,,,,,,,,,,,,,,,,5dd5e27fe25acf59990e1adf,2020-11-27_10h05.17.083,lexical_decision_task_MP_exp2,2020.2.5,Win32,60,m,1,,,,,,,,0.65929,1,,,,,,56,WORD,"ID",16,ambush,AMBUSH,m,0.65929,,,,,,-0.02734375,-0.381510417,0,0,0,,0,190,190,115,1,
,,,,,,,,,,,,,,,,,,5dd5e27fe25acf59990e1adf,2020-11-27_10h05.17.083,lexical_decision_task_MP_exp2,2020.2.5,Win32,60,m,1,,,,,,,,0.585695,1,,,,,,123,WORD,UN,16,blouse,STRIKE,m,0.585695,,,,,,-0.02734375,-0.381510417,0,0,0,,0,191,191,182,1,
,,,,,,,,,,,,,,,,,,5dd5e27fe25acf59990e1adf,2020-11-27_10h05.17.083,lexical_decision_task_MP_exp2,2020.2.5,Win32,60,z,1,,,,,,,,0.803025,1,,,,,,289,NW,"ID",16,starby,STARBY,z,0.803025,,,,,,-0.02734375,-0.381510417,0,0,0,,0,192,192,348,1,
,,,,,,,,,,,,,,,,,,5dd5e27fe25acf59990e1adf,2020-11-27_10h05.17.083,lexical_decision_task_MP_exp2,2020.2.5,Win32,60,m,1,,,,,,,,0.678325,1,,,,,,54,WORD,"ID",16,ramble,RAMBLE,m,0.678325,,,,,,-0.02734375,-0.381510417,0,0,0,,0,193,193,113,1,
,,,,,,,,,,,,,,,,,,5dd5e27fe25acf59990e1adf,2020-11-27_10h05.17.083,lexical_decision_task_MP_exp2,2020.2.5,Win32,60,m,1,,,,,,,,0.733105,1,,,,,,138,WORD,UN,16,debris,MELODY,m,0.733105,,,,,,-0.02734375,-0.381510417,0,0,0,,0,194,194,197,1,
,,,,,,,,,,,,,,,,,,5dd5e27fe25acf59990e1adf,2020-11-27_10h05.17.083,lexical_decision_task_MP_exp2,2020.2.5,Win32,60,m,1,,,,,,,,0.611985,1,,,,,,179,WORD,UN,16,silent,BASKET,m,0.611985,,,,,,-0.02734375,-0.381510417,0,0,0,,0,195,195,238,1,
,,,,,,,,,,,,,,,,,,5dd5e27fe25acf59990e1adf,2020-11-27_10h05.17.083,lexical_decision_task_MP_exp2,2020.2.5,Win32,60,z,1,,,,,,,,0.592575,1,,,,,,329,NW,UN,33,kensom,YARIKE,z,0.592575,,,,,,-0.02734375,-0.381510417,0,0,0,,0,196,196,388,1,
,,,,,,,,,,,,,,,,,,5dd5e27fe25acf59990e1adf,2020-11-27_10h05.17.083,lexical_decision_task_MP_exp2,2020.2.5,Win32,60,z,1,,,,,,,,0.69533,1,,,,,,439,NW,"ID",33,limpor,LIMPOR,z,0.69533,,,,,,-0.02734375,-0.381510417,0,0,0,,0,197,197,258,1,
,,,,,,,,,,,,,,,,,,5dd5e27fe25acf59990e1adf,2020-11-27_10h05.17.083,lexical_decision_task_MP_exp2,2020.2.5,Win32,60,m,1,,,,,,,,0.7165,1,,,,,,212,WORD,"ID",33,verify,VERIFY,m,0.7165,,,,,,-0.02734375,-0.381510417,0,0,0,,0,198,198,31,1,
,,,,,,,,,,,,,,,,,,5dd5e27fe25acf59990e1adf,2020-11-27_10h05.17.083,lexical_decision_task_MP_exp2,2020.2.5,Win32,60,m,1,,,,,,,,0.765805,1,,,,,,131,WORD,UN,16,strong,QUENCH,m,0.765805,,,,,,-0.02734375,-0.381510417,0,0,0,,0,199,199,190,1,
,,,,,,,,,,,,,,,,,,5dd5e27fe25acf59990e1adf,2020-11-27_10h05.17.083,lexical_decision_task_MP_exp2,2020.2.5,Win32,60,z,1,,,,,,,,0.61775,1,,,,,,316,NW,UN,33,worbal,SCREGM,z,0.61775,,,,,,-0.02734375,-0.381510417,0,0,0,,0,200,200,375,1,
,,,,,,,,,,,,,,,,,,5dd5e27fe25acf59990e1adf,2020-11-27_10h05.17.083,lexical_decision_task_MP_exp2,2020.2.5,Win32,60,z,1,,,,,,,,0.876705,1,,,,,,462,NW,"ID",33,absult,ABSULT,z,0.876705,,,,,,-0.02734375,-0.381510417,0,0,0,,0,201,201,281,1,
,,,,,,,,,,,,,,,,,,5dd5e27fe25acf59990e1adf,2020-11-27_10h05.17.083,lexical_decision_task_MP_exp2,2020.2.5,Win32,60,z,1,,,,,,,,0.74233,1,,,,,,299,NW,"ID",16,sturch,STURCH,z,0.74233,,,,,,-0.02734375,-0.381510417,0,0,0,,0,202,202,358,1,
,,,,,,,,,,,,,,,,,,5dd5e27fe25acf59990e1adf,2020-11-27_10h05.17.083,lexical_decision_task_MP_exp2,2020.2.5,Win32,60,m,1,,,,,,,,0.75612,1,,,,,,50,WORD,"ID",16,snatch,SNATCH,m,0.75612,,,,,,-0.02734375,-0.381510417,0,0,0,,0,203,203,109,1,
,,,,,,,,,,,,,,,,,,5dd5e27fe25acf59990e1adf,2020-11-27_10h05.17.083,lexical_decision_task_MP_exp2,2020.2.5,Win32,60,m,1,,,,,,,,0.604455,1,,,,,,162,WORD,UN,16,string,CANDLE,m,0.604455,,,,,,-0.02734375,-0.381510417,0,0,0,,0,204,204,221,1,
,,,,,,,,,,,,,,,,,,5dd5e27fe25acf59990e1adf,2020-11-27_10h05.17.083,lexical_decision_task_MP_exp2,2020.2.5,Win32,60,m,1,,,,,,,,0.74128,1,,,,,,66,WORD,UN,33,policy,GOSPEL,m,0.74128,,,,,,-0.02734375,-0.381510417,0,0,0,,0,205,205,125,1,
,,,,,,,,,,,,,,,,,,5dd5e27fe25acf59990e1adf,2020-11-27_10h05.17.083,lexical_decision_task_MP_exp2,2020.2.5,Win32,60,z,1,,,,,,,,0.693925,1,,,,,,425,NW,"ID",33,frudge,FRUDGE,z,0.693925,,,,,,-0.02734375,-0.381510417,0,0,0,,0,206,206,244,1,
,,,,,,,,,,,,,,,,,,5dd5e27fe25acf59990e1adf,2020-11-27_10h05.17.083,lexical_decision_task_MP_exp2,2020.2.5,Win32,60,m,1,,,,,,,,0.69499,1,,,,,,102,WORD,UN,33,bounce,DIRECT,m,0.69499,,,,,,-0.02734375,-0.381510417,0,0,0,,0,207,207,161,1,
,,,,,,,,,,,,,,,,,,5dd5e27fe25acf59990e1adf,2020-11-27_10h05.17.083,lexical_decision_task_MP_exp2,2020.2.5,Win32,60,m,1,,,,,,,,0.77434,1,,,,,,6,WORD,"ID",16,bundle,BUNDLE,m,0.77434,,,,,,-0.02734375,-0.381510417,0,0,0,,0,208,208,65,1,
,,,,,,,,,,,,,,,,,,5dd5e27fe25acf59990e1adf,2020-11-27_10h05.17.083,lexical_decision_task_MP_exp2,2020.2.5,Win32,60,m,1,,,,,,,,0.632825,1,,,,,,150,WORD,UN,16,mystic,RANDOM,m,0.632825,,,,,,-0.02734375,-0.381510417,0,0,0,,0,209,209,209,1,
,,,,,,,,,,,,,,,,,,5dd5e27fe25acf59990e1adf,2020-11-27_10h05.17.083,lexical_decision_task_MP_exp2,2020.2.5,Win32,60,m,1,,,,,,,,0.824275,1,,,,,,88,WORD,UN,33,permit,HUNGER,m,0.824275,,,,,,-0.02734375,-0.381510417,0,0,0,,0,210,210,147,1,
,,,,,,,,,,,,,,,,,,5dd5e27fe25acf59990e1adf,2020-11-27_10h05.17.083,lexical_decision_task_MP_exp2,2020.2.5,Win32,60,z,1,,,,,,,,0.599645,1,,,,,,414,NW,UN,16,higsta,SERBOL,z,0.599645,,,,,,-0.02734375,-0.381510417,0,0,0,,0,211,211,473,1,
,,,,,,,,,,,,,,,,,,5dd5e27fe25acf59990e1adf,2020-11-27_10h05.17.083,lexical_decision_task_MP_exp2,2020.2.5,Win32,60,z,1,,,,,,,,0.85203,1,,,,,,332,NW,UN,33,catrie,VANGUE,z,0.85203,,,,,,-0.02734375,-0.381510417,0,0,0,,0,212,212,391,1,
,,,,,,,,,,,,,,,,,,5dd5e27fe25acf59990e1adf,2020-11-27_10h05.17.083,lexical_decision_task_MP_exp2,2020.2.5,Win32,60,m,1,,,,,,,,0.704415,1,,,,,,64,WORD,UN,33,symbol,THRONE,m,0.704415,,,,,,-0.02734375,-0.381510417,0,0,0,,0,213,213,123,1,
,,,,,,,,,,,,,,,,,,5dd5e27fe25acf59990e1adf,2020-11-27_10h05.17.083,lexical_decision_task_MP_exp2,2020.2.5,Win32,60,m,1,,,,,,,,0.70108,1,,,,,,155,WORD,UN,16,cradle,LIZARD,m,0.70108,,,,,,-0.02734375,-0.381510417,0,0,0,,0,214,214,214,1,
,,,,,,,,,,,,,,,,,,5dd5e27fe25acf59990e1adf,2020-11-27_10h05.17.083,lexical_decision_task_MP_exp2,2020.2.5,Win32,60,m,1,,,,,,,,0.821815,1,,,,,,139,WORD,UN,16,prince,DEBRIS,m,0.821815,,,,,,-0.02734375,-0.381510417,0,0,0,,0,215,215,198,1,
,,,,,,,,,,,,,,,,,,5dd5e27fe25acf59990e1adf,2020-11-27_10h05.17.083,lexical_decision_task_MP_exp2,2020.2.5,Win32,60,z,1,,,,,,,,0.73292,1,,,,,,331,NW,UN,33,vangue,GILFEW,z,0.73292,,,,,,-0.02734375,-0.381510417,0,0,0,,0,216,216,390,1,
,,,,,,,,,,,,,,,,,,5dd5e27fe25acf59990e1adf,2020-11-27_10h05.17.083,lexical_decision_task_MP_exp2,2020.2.5,Win32,60,m,1,,,,,,,,0.657805,1,,,,,,149,WORD,UN,16,random,INVADE,m,0.657805,,,,,,-0.02734375,-0.381510417,0,0,0,,0,217,217,208,1,
,,,,,,,,,,,,,,,,,,5dd5e27fe25acf59990e1adf,2020-11-27_10h05.17.083,lexical_decision_task_MP_exp2,2020.2.5,Win32,60,m,1,,,,,,,,0.682515,1,,,,,,7,WORD,"ID",16,anchor,ANCHOR,m,0.682515,,,,,,-0.02734375,-0.381510417,0,0,0,,0,218,218,66,1,
,,,,,,,,,,,,,,,,,,5dd5e27fe25acf59990e1adf,2020-11-27_10h05.17.083,lexical_decision_task_MP_exp2,2020.2.5,Win32,60,m,1,,,,,,,,0.65654,1,,,,,,174,WORD,UN,16,fabric,TURKEY,m,0.65654,,,,,,-0.02734375,-0.381510417,0,0,0,,0,219,219,233,1,
,,,,,,,,,,,,,,,,,,5dd5e27fe25acf59990e1adf,2020-11-27_10h05.17.083,lexical_decision_task_MP_exp2,2020.2.5,Win32,60,z,1,,,,,,,,0.726705,1,,,,,,376,NW,UN,16,veigma,IGUARE,z,0.726705,,,,,,-0.02734375,-0.381510417,0,0,0,,0,220,220,435,1,
,,,,,,,,,,,,,,,,,,5dd5e27fe25acf59990e1adf,2020-11-27_10h05.17.083,lexical_decision_task_MP_exp2,2020.2.5,Win32,60,m,1,,,,,,,,0.750185,1,,,,,,225,WORD,"ID",33,vulgar,VULGAR,m,0.750185,,,,,,-0.02734375,-0.381510417,0,0,0,,0,221,221,44,1,
,,,,,,,,,,,,,,,,,,5dd5e27fe25acf59990e1adf,2020-11-27_10h05.17.083,lexical_decision_task_MP_exp2,2020.2.5,Win32,60,z,1,,,,,,,,0.799835,1,,,,,,367,NW,UN,16,hornal,SLIQUE,z,0.799835,,,,,,-0.02734375,-0.381510417,0,0,0,,0,222,222,426,1,
,,,,,,,,,,,,,,,,,,5dd5e27fe25acf59990e1adf,2020-11-27_10h05.17.083,lexical_decision_task_MP_exp2,2020.2.5,Win32,60,z,1,,,,,,,,0.99937,1,,,,,,433,NW,"ID",33,drance,DRANCE,z,0.99937,,,,,,-0.02734375,-0.381510417,0,0,0,,0,223,223,252,1,
,,,,,,,,,,,,,,,,,,5dd5e27fe25acf59990e1adf,2020-11-27_10h05.17.083,lexical_decision_task_MP_exp2,2020.2.5,Win32,60,z,1,,,,,,,,0.65007,1,,,,,,440,NW,"ID",33,saride,SARIDE,z,0.65007,,,,,,-0.02734375,-0.381510417,0,0,0,,0,224,224,259,1,
,,,,,,,,,,,,,,,,,,5dd5e27fe25acf59990e1adf,2020-11-27_10h05.17.083,lexical_decision_task_MP_exp2,2020.2.5,Win32,60,m,1,,,,,,,,0.61542,1,,,,,,223,WORD,"ID",33,kidney,KIDNEY,m,0.61542,,,,,,-0.02734375,-0.381510417,0,0,0,,0,225,225,42,1,
,,,,,,,,,,,,,,,,,,5dd5e27fe25acf59990e1adf,2020-11-27_10h05.17.083,lexical_decision_task_MP_exp2,2020.2.5,Win32,60,z,1,,,,,,,,0.60012,1,,,,,,324,NW,UN,33,thruse,STEIKH,z,0.60012,,,,,,-0.02734375,-0.381510417,0,0,0,,0,226,226,383,1,
,,,,,,,,,,,,,,,,,,5dd5e27fe25acf59990e1adf,2020-11-27_10h05.17.083,lexical_decision_task_MP_exp2,2020.2.5,Win32,60,z,1,,,,,,,,0.72821,1,,,,,,330,NW,UN,33,gilfew,KENSOM,z,0.72821,,,,,,-0.02734375,-0.381510417,0,0,0,,0,227,227,389,1,
,,,,,,,,,,,,,,,,,,5dd5e27fe25acf59990e1adf,2020-11-27_10h05.17.083,lexical_decision_task_MP_exp2,2020.2.5,Win32,60,z,1,,,,,,,,0.74447,1,,,,,,346,NW,UN,33,kerift,SAUDIC,z,0.74447,,,,,,-0.02734375,-0.381510417,0,0,0,,0,228,228,405,1,
,,,,,,,,,,,,,,,,,,5dd5e27fe25acf59990e1adf,2020-11-27_10h05.17.083,lexical_decision_task_MP_exp2,2020.2.5,Win32,60,z,1,,,,,,,,0.84897,1,,,,,,394,NW,UN,16,colury,SPAQUX,z,0.84897,,,,,,-0.02734375,-0.381510417,0,0,0,,0,229,229,453,1,
,,,,,,,,,,,,,,,,,,5dd5e27fe25acf59990e1adf,2020-11-27_10h05.17.083,lexical_decision_task_MP_exp2,2020.2.5,Win32,60,m,0,,,,,,,,0.70994,0,,,,,,341,NW,UN,33,randow,MYRTIE,z,0.70994,,,,,,-0.02734375,-0.381510417,0,0,0,,0,230,230,400,1,
,,,,,,,,,,,,,,,,,,5dd5e27fe25acf59990e1adf,2020-11-27_10h05.17.083,lexical_decision_task_MP_exp2,2020.2.5,Win32,60,m,1,,,,,,,,0.574875,1,,,,,,209,WORD,"ID",33,search,SEARCH,m,0.574875,,,,,,-0.02734375,-0.381510417,0,0,0,,0,231,231,28,1,
,,,,,,,,,,,,,,,,,,5dd5e27fe25acf59990e1adf,2020-11-27_10h05.17.083,lexical_decision_task_MP_exp2,2020.2.5,Win32,60,m,1,,,,,,,,0.60021,1,,,,,,202,WORD,"ID",33,factor,FACTOR,m,0.60021,,,,,,-0.02734375,-0.381510417,0,0,0,,0,232,232,21,1,
,,,,,,,,,,,,,,,,,,5dd5e27fe25acf59990e1adf,2020-11-27_10h05.17.083,lexical_decision_task_MP_exp2,2020.2.5,Win32,60,z,1,,,,,,,,0.70277,1,,,,,,344,NW,UN,33,absend,SCRILY,z,0.70277,,,,,,-0.02734375,-0.381510417,0,0,0,,0,233,233,403,1,
,,,,,,,,,,,,,,,,,,5dd5e27fe25acf59990e1adf,2020-11-27_10h05.17.083,lexical_decision_task_MP_exp2,2020.2.5,Win32,60,z,1,,,,,,,,0.66933,1,,,,,,446,NW,"ID",33,runamo,RUNAMO,z,0.66933,,,,,,-0.02734375,-0.381510417,0,0,0,,0,234,234,265,1,
,,,,,,,,,,,,,,,,,,5dd5e27fe25acf59990e1adf,2020-11-27_10h05.17.083,lexical_decision_task_MP_exp2,2020.2.5,Win32,60,z,1,,,,,,,,0.715635,1,,,,,,267,NW,"ID",16,pasink,PASINK,z,0.715635,,,,,,-0.02734375,-0.381510417,0,0,0,,0,235,235,326,1,
,,,,,,,,,,,,,,,,,,5dd5e27fe25acf59990e1adf,2020-11-27_10h05.17.083,lexical_decision_task_MP_exp2,2020.2.5,Win32,60,z,1,,,,,,,,0.727975,1,,,,,,402,NW,UN,16,bruats,SYNTIC,z,0.727975,,,,,,-0.02734375,-0.381510417,0,0,0,,0,236,236,461,1,
,,,,,,,,,,,,,,,,,,5dd5e27fe25acf59990e1adf,2020-11-27_10h05.17.083,lexical_decision_task_MP_exp2,2020.2.5,Win32,60,z,1,,,,,,,,0.66565,1,,,,,,447,NW,"ID",33,gircue,GIRCUE,z,0.66565,,,,,,-0.02734375,-0.381510417,0,0,0,,0,237,237,266,1,
,,,,,,,,,,,,,,,,,,5dd5e27fe25acf59990e1adf,2020-11-27_10h05.17.083,lexical_decision_task_MP_exp2,2020.2.5,Win32,60,m,1,,,,,,,,0.752435,1,,,,,,130,WORD,UN,16,quench,STUPID,m,0.752435,,,,,,-0.02734375,-0.381510417,0,0,0,,0,238,238,189,1,
,,,,,,,,,,,,,,,,,,5dd5e27fe25acf59990e1adf,2020-11-27_10h05.17.083,lexical_decision_task_MP_exp2,2020.2.5,Win32,60,z,1,,,,,,,,0.792975,1,,,,,,428,NW,"ID",33,tandly,TANDLY,z,0.792975,,,,,,-0.02734375,-0.381510417,0,0,0,,0,239,239,247,1,
,,,,,,,,,,,,,,,,,,5dd5e27fe25acf59990e1adf,2020-11-27_10h05.17.083,lexical_decision_task_MP_exp2,2020.2.5,Win32,60,z,1,,,,,,,,0.739945,1,,,,,,285,NW,"ID",16,prudge,PRUDGE,z,0.739945,,,,,,-0.02734375,-0.381510417,0,0,0,,0,240,240,344,1,
,,,,,,,,,,,,,,,,,,5dd5e27fe25acf59990e1adf,2020-11-27_10h05.17.083,lexical_decision_task_MP_exp2,2020.2.5,Win32,60,z,1,,,,,,,,0.628135,1,,,,,,252,NW,"ID",16,stapod,STAPOD,z,0.628135,,,,,,-0.02734375,-0.381510417,1,0,0,,0,241,241,311,1,break_done_button
,,,,,,,,,,,,,,,,,,5dd5e27fe25acf59990e1adf,2020-11-27_10h05.17.083,lexical_decision_task_MP_exp2,2020.2.5,Win32,60,z,1,,,,,,,,0.68523,1,,,,,,259,NW,"ID",16,soudal,SOUDAL,z,0.68523,,,,,,-0.02734375,-0.381510417,0,0,0,,0,242,242,318,1,
,,,,,,,,,,,,,,,,,,5dd5e27fe25acf59990e1adf,2020-11-27_10h05.17.083,lexical_decision_task_MP_exp2,2020.2.5,Win32,60,m,1,,,,,,,,0.63262,1,,,,,,122,WORD,UN,16,strike,LINGER,m,0.63262,,,,,,-0.02734375,-0.381510417,0,0,0,,0,243,243,181,1,
,,,,,,,,,,,,,,,,,,5dd5e27fe25acf59990e1adf,2020-11-27_10h05.17.083,lexical_decision_task_MP_exp2,2020.2.5,Win32,60,z,1,,,,,,,,0.73265,1,,,,,,261,NW,"ID",16,stunch,STUNCH,z,0.73265,,,,,,-0.02734375,-0.381510417,0,0,0,,0,244,244,320,1,
,,,,,,,,,,,,,,,,,,5dd5e27fe25acf59990e1adf,2020-11-27_10h05.17.083,lexical_decision_task_MP_exp2,2020.2.5,Win32,60,z,1,,,,,,,,0.7072,1,,,,,,445,NW,"ID",33,minkel,MINKEL,z,0.7072,,,,,,-0.02734375,-0.381510417,0,0,0,,0,245,245,264,1,
,,,,,,,,,,,,,,,,,,5dd5e27fe25acf59990e1adf,2020-11-27_10h05.17.083,lexical_decision_task_MP_exp2,2020.2.5,Win32,60,z,1,,,,,,,,0.761655,1,,,,,,338,NW,UN,33,fachow,WREASH,z,0.761655,,,,,,-0.02734375,-0.381510417,0,0,0,,0,246,246,397,1,
,,,,,,,,,,,,,,,,,,5dd5e27fe25acf59990e1adf,2020-11-27_10h05.17.083,lexical_decision_task_MP_exp2,2020.2.5,Win32,60,z,1,,,,,,,,0.69902,1,,,,,,247,NW,"ID",16,blarge,BLARGE,z,0.69902,,,,,,-0.02734375,-0.381510417,0,0,0,,0,247,247,306,1,
,,,,,,,,,,,,,,,,,,5dd5e27fe25acf59990e1adf,2020-11-27_10h05.17.083,lexical_decision_task_MP_exp2,2020.2.5,Win32,60,z,1,,,,,,,,0.803995,1,,,,,,294,NW,"ID",16,inhort,INHORT,z,0.803995,,,,,,-0.02734375,-0.381510417,0,0,0,,0,248,248,353,1,
,,,,,,,,,,,,,,,,,,5dd5e27fe25acf59990e1adf,2020-11-27_10h05.17.083,lexical_decision_task_MP_exp2,2020.2.5,Win32,60,m,1,,,,,,,,0.66589,1,,,,,,175,WORD,UN,16,strife,FABRIC,m,0.66589,,,,,,-0.02734375,-0.381510417,0,0,0,,0,249,249,234,1,
,,,,,,,,,,,,,,,,,,5dd5e27fe25acf59990e1adf,2020-11-27_10h05.17.083,lexical_decision_task_MP_exp2,2020.2.5,Win32,60,m,1,,,,,,,,0.58614,1,,,,,,178,WORD,UN,16,basket,INFORM,m,0.58614,,,,,,-0.02734375,-0.381510417,0,0,0,,0,250,250,237,1,
,,,,,,,,,,,,,,,,,,5dd5e27fe25acf59990e1adf,2020-11-27_10h05.17.083,lexical_decision_task_MP_exp2,2020.2.5,Win32,60,z,1,,,,,,,,0.666285,1,,,,,,277,NW,"ID",16,petain,PETAIN,z,0.666285,,,,,,-0.02734375,-0.381510417,0,0,0,,0,251,251,336,1,
,,,,,,,,,,,,,,,,,,5dd5e27fe25acf59990e1adf,2020-11-27_10h05.17.083,lexical_decision_task_MP_exp2,2020.2.5,Win32,60,m,1,,,,,,,,0.607065,1,,,,,,234,WORD,"ID",33,clumsy,CLUMSY,m,0.607065,,,,,,-0.02734375,-0.381510417,0,0,0,,0,252,252,53,1,
,,,,,,,,,,,,,,,,,,5dd5e27fe25acf59990e1adf,2020-11-27_10h05.17.083,lexical_decision_task_MP_exp2,2020.2.5,Win32,60,m,1,,,,,,,,0.61119,1,,,,,,183,WORD,"ID",33,mildew,MILDEW,m,0.61119,,,,,,-0.02734375,-0.381510417,0,0,0,,0,253,253,2,1,
,,,,,,,,,,,,,,,,,,5dd5e27fe25acf59990e1adf,2020-11-27_10h05.17.083,lexical_decision_task_MP_exp2,2020.2.5,Win32,60,z,1,,,,,,,,0.59984,1,,,,,,365,NW,UN,16,toshel,GUAIRT,z,0.59984,,,,,,-0.02734375,-0.381510417,0,0,0,,0,254,254,424,1,
,,,,,,,,,,,,,,,,,,5dd5e27fe25acf59990e1adf,2020-11-27_10h05.17.083,lexical_decision_task_MP_exp2,2020.2.5,Win32,60,z,1,,,,,,,,0.70795,1,,,,,,272,NW,"ID",16,damilt,DAMILT,z,0.70795,,,,,,-0.02734375,-0.381510417,0,0,0,,0,255,255,331,1,
,,,,,,,,,,,,,,,,,,5dd5e27fe25acf59990e1adf,2020-11-27_10h05.17.083,lexical_decision_task_MP_exp2,2020.2.5,Win32,60,m,1,,,,,,,,0.62291,1,,,,,,193,WORD,"ID",33,object,OBJECT,m,0.62291,,,,,,-0.02734375,-0.381510417,0,0,0,,0,256,256,12,1,
,,,,,,,,,,,,,,,,,,5dd5e27fe25acf59990e1adf,2020-11-27_10h05.17.083,lexical_decision_task_MP_exp2,2020.2.5,Win32,60,m,1,,,,,,,,0.650775,1,,,,,,194,WORD,"ID",33,absent,ABSENT,m,0.650775,,,,,,-0.02734375,-0.381510417,0,0,0,,0,257,257,13,1,
,,,,,,,,,,,,,,,,,,5dd5e27fe25acf59990e1adf,2020-11-27_10h05.17.083,lexical_decision_task_MP_exp2,2020.2.5,Win32,60,z,1,,,,,,,,0.72399,1,,,,,,368,NW,UN,16,wronch,HORNAL,z,0.72399,,,,,,-0.02734375,-0.381510417,0,0,0,,0,258,258,427,1,
,,,,,,,,,,,,,,,,,,5dd5e27fe25acf59990e1adf,2020-11-27_10h05.17.083,lexical_decision_task_MP_exp2,2020.2.5,Win32,60,m,1,,,,,,,,0.61735,1,,,,,,41,WORD,"ID",16,spring,SPRING,m,0.61735,,,,,,-0.02734375,-0.381510417,0,0,0,,0,259,259,100,1,
,,,,,,,,,,,,,,,,,,5dd5e27fe25acf59990e1adf,2020-11-27_10h05.17.083,lexical_decision_task_MP_exp2,2020.2.5,Win32,60,m,1,,,,,,,,0.577825,1,,,,,,33,WORD,"ID",16,butler,BUTLER,m,0.577825,,,,,,-0.02734375,-0.381510417,0,0,0,,0,260,260,92,1,
,,,,,,,,,,,,,,,,,,5dd5e27fe25acf59990e1adf,2020-11-27_10h05.17.083,lexical_decision_task_MP_exp2,2020.2.5,Win32,60,z,1,,,,,,,,0.594155,1,,,,,,311,NW,UN,33,nerawl,SPROLY,z,0.594155,,,,,,-0.02734375,-0.381510417,0,0,0,,0,261,261,370,1,
,,,,,,,,,,,,,,,,,,5dd5e27fe25acf59990e1adf,2020-11-27_10h05.17.083,lexical_decision_task_MP_exp2,2020.2.5,Win32,60,m,1,,,,,,,,0.691655,1,,,,,,152,WORD,UN,16,behold,ROCKET,m,0.691655,,,,,,-0.02734375,-0.381510417,0,0,0,,0,262,262,211,1,
,,,,,,,,,,,,,,,,,,5dd5e27fe25acf59990e1adf,2020-11-27_10h05.17.083,lexical_decision_task_MP_exp2,2020.2.5,Win32,60,m,1,,,,,,,,0.571455,1,,,,,,237,WORD,"ID",33,poster,POSTER,m,0.571455,,,,,,-0.02734375,-0.381510417,0,0,0,,0,263,263,56,1,
,,,,,,,,,,,,,,,,,,5dd5e27fe25acf59990e1adf,2020-11-27_10h05.17.083,lexical_decision_task_MP_exp2,2020.2.5,Win32,60,z,1,,,,,,,,0.683615,1,,,,,,290,NW,"ID",16,splino,SPLINO,z,0.683615,,,,,,-0.02734375,-0.381510417,0,0,0,,0,264,264,349,1,
,,,,,,,,,,,,,,,,,,5dd5e27fe25acf59990e1adf,2020-11-27_10h05.17.083,lexical_decision_task_MP_exp2,2020.2.5,Win32,60,z,1,,,,,,,,0.74967,1,,,,,,288,NW,"ID",16,yaceup,YACEUP,z,0.74967,,,,,,-0.02734375,-0.381510417,0,0,0,,0,265,265,347,1,
,,,,,,,,,,,,,,,,,,5dd5e27fe25acf59990e1adf,2020-11-27_10h05.17.083,lexical_decision_task_MP_exp2,2020.2.5,Win32,60,m,1,,,,,,,,0.658975,1,,,,,,32,WORD,"ID",16,buckle,BUCKLE,m,0.658975,,,,,,-0.02734375,-0.381510417,0,0,0,,0,266,266,91,1,
,,,,,,,,,,,,,,,,,,5dd5e27fe25acf59990e1adf,2020-11-27_10h05.17.083,lexical_decision_task_MP_exp2,2020.2.5,Win32,60,m,1,,,,,,,,0.60714,1,,,,,,163,WORD,UN,16,market,STRING,m,0.60714,,,,,,-0.02734375,-0.381510417,0,0,0,,0,267,267,222,1,
,,,,,,,,,,,,,,,,,,5dd5e27fe25acf59990e1adf,2020-11-27_10h05.17.083,lexical_decision_task_MP_exp2,2020.2.5,Win32,60,m,1,,,,,,,,0.655725,1,,,,,,159,WORD,UN,16,violet,DETAIL,m,0.655725,,,,,,-0.02734375,-0.381510417,0,0,0,,0,268,268,218,1,
,,,,,,,,,,,,,,,,,,5dd5e27fe25acf59990e1adf,2020-11-27_10h05.17.083,lexical_decision_task_MP_exp2,2020.2.5,Win32,60,m,1,,,,,,,,0.66653,1,,,,,,63,WORD,UN,33,throne,LAUNCH,m,0.66653,,,,,,-0.02734375,-0.381510417,0,0,0,,0,269,269,122,1,
,,,,,,,,,,,,,,,,,,5dd5e27fe25acf59990e1adf,2020-11-27_10h05.17.083,lexical_decision_task_MP_exp2,2020.2.5,Win32,60,m,1,,,,,,,,0.60046,1,,,,,,12,WORD,"ID",16,orange,ORANGE,m,0.60046,,,,,,-0.02734375,-0.381510417,0,0,0,,0,270,270,71,1,
,,,,,,,,,,,,,,,,,,5dd5e27fe25acf59990e1adf,2020-11-27_10h05.17.083,lexical_decision_task_MP_exp2,2020.2.5,Win32,60,m,1,,,,,,,,0.56606,1,,,,,,136,WORD,UN,16,finger,BLEACH,m,0.56606,,,,,,-0.02734375,-0.381510417,0,0,0,,0,271,271,195,1,
,,,,,,,,,,,,,,,,,,5dd5e27fe25acf59990e1adf,2020-11-27_10h05.17.083,lexical_decision_task_MP_exp2,2020.2.5,Win32,60,m,1,,,,,,,,0.559095,1,,,,,,229,WORD,"ID",33,mother,MOTHER,m,0.559095,,,,,,-0.02734375,-0.381510417,0,0,0,,0,272,272,48,1,
,,,,,,,,,,,,,,,,,,5dd5e27fe25acf59990e1adf,2020-11-27_10h05.17.083,lexical_decision_task_MP_exp2,2020.2.5,Win32,60,m,1,,,,,,,,0.568565,1,,,,,,43,WORD,"ID",16,tongue,TONGUE,m,0.568565,,,,,,-0.02734375,-0.381510417,0,0,0,,0,273,273,102,1,
,,,,,,,,,,,,,,,,,,5dd5e27fe25acf59990e1adf,2020-11-27_10h05.17.083,lexical_decision_task_MP_exp2,2020.2.5,Win32,60,z,1,,,,,,,,0.615655,1,,,,,,470,NW,"ID",33,crudio,CRUDIO,z,0.615655,,,,,,-0.02734375,-0.381510417,0,0,0,,0,274,274,289,1,
,,,,,,,,,,,,,,,,,,5dd5e27fe25acf59990e1adf,2020-11-27_10h05.17.083,lexical_decision_task_MP_exp2,2020.2.5,Win32,60,z,1,,,,,,,,0.59554,1,,,,,,393,NW,UN,16,spaqux,GANOUS,z,0.59554,,,,,,-0.02734375,-0.381510417,0,0,0,,0,275,275,452,1,
,,,,,,,,,,,,,,,,,,5dd5e27fe25acf59990e1adf,2020-11-27_10h05.17.083,lexical_decision_task_MP_exp2,2020.2.5,Win32,60,z,1,,,,,,,,0.71035,1,,,,,,352,NW,UN,33,clurey,TRINGE,z,0.71035,,,,,,-0.02734375,-0.381510417,0,0,0,,0,276,276,411,1,
,,,,,,,,,,,,,,,,,,5dd5e27fe25acf59990e1adf,2020-11-27_10h05.17.083,lexical_decision_task_MP_exp2,2020.2.5,Win32,60,m,1,,,,,,,,0.62195,1,,,,,,120,WORD,UN,33,ponder,STRAIN,m,0.62195,,,,,,-0.02734375,-0.381510417,0,0,0,,0,277,277,179,1,
,,,,,,,,,,,,,,,,,,5dd5e27fe25acf59990e1adf,2020-11-27_10h05.17.083,lexical_decision_task_MP_exp2,2020.2.5,Win32,60,m,1,,,,,,,,0.599225,1,,,,,,117,WORD,UN,33,flight,BRANCH,m,0.599225,,,,,,-0.02734375,-0.381510417,0,0,0,,0,278,278,176,1,
,,,,,,,,,,,,,,,,,,5dd5e27fe25acf59990e1adf,2020-11-27_10h05.17.083,lexical_decision_task_MP_exp2,2020.2.5,Win32,60,z,1,,,,,,,,0.60921,1,,,,,,242,NW,"ID",16,unwert,UNWERT,z,0.60921,,,,,,-0.02734375,-0.381510417,0,0,0,,0,279,279,301,1,
,,,,,,,,,,,,,,,,,,5dd5e27fe25acf59990e1adf,2020-11-27_10h05.17.083,lexical_decision_task_MP_exp2,2020.2.5,Win32,60,z,1,,,,,,,,0.6741,1,,,,,,321,NW,UN,33,slanch,MIATOR,z,0.6741,,,,,,-0.02734375,-0.381510417,0,0,0,,0,280,280,380,1,
,,,,,,,,,,,,,,,,,,5dd5e27fe25acf59990e1adf,2020-11-27_10h05.17.083,lexical_decision_task_MP_exp2,2020.2.5,Win32,60,m,1,,,,,,,,0.58435,1,,,,,,23,WORD,"ID",16,wealth,WEALTH,m,0.58435,,,,,,-0.02734375,-0.381510417,0,0,0,,0,281,281,82,1,
,,,,,,,,,,,,,,,,,,5dd5e27fe25acf59990e1adf,2020-11-27_10h05.17.083,lexical_decision_task_MP_exp2,2020.2.5,Win32,60,z,1,,,,,,,,0.674775,1,,,,,,461,NW,"ID",33,justre,JUSTRE,z,0.674775,,,,,,-0.02734375,-0.381510417,0,0,0,,0,282,282,280,1,
,,,,,,,,,,,,,,,,,,5dd5e27fe25acf59990e1adf,2020-11-27_10h05.17.083,lexical_decision_task_MP_exp2,2020.2.5,Win32,60,m,1,,,,,,,,0.65794,1,,,,,,157,WORD,UN,16,island,DRAGON,m,0.65794,,,,,,-0.02734375,-0.381510417,0,0,0,,0,283,283,216,1,
,,,,,,,,,,,,,,,,,,5dd5e27fe25acf59990e1adf,2020-11-27_10h05.17.083,lexical_decision_task_MP_exp2,2020.2.5,Win32,60,z,1,,,,,,,,0.783135,1,,,,,,377,NW,UN,16,shrile,INJORE,z,0.783135,,,,,,-0.02734375,-0.381510417,0,0,0,,0,284,284,436,1,
,,,,,,,,,,,,,,,,,,5dd5e27fe25acf59990e1adf,2020-11-27_10h05.17.083,lexical_decision_task_MP_exp2,2020.2.5,Win32,60,m,1,,,,,,,,0.606045,1,,,,,,140,WORD,UN,16,chrome,PRINCE,m,0.606045,,,,,,-0.02734375,-0.381510417,0,0,0,,0,285,285,199,1,
,,,,,,,,,,,,,,,,,,5dd5e27fe25acf59990e1adf,2020-11-27_10h05.17.083,lexical_decision_task_MP_exp2,2020.2.5,Win32,60,z,1,,,,,,,,0.62765,1,,,,,,475,NW,"ID",33,pebric,PEBRIC,z,0.62765,,,,,,-0.02734375,-0.381510417,0,0,0,,0,286,286,294,1,
,,,,,,,,,,,,,,,,,,5dd5e27fe25acf59990e1adf,2020-11-27_10h05.17.083,lexical_decision_task_MP_exp2,2020.2.5,Win32,60,z,1,,,,,,,,0.62186,1,,,,,,300,NW,"ID",16,yarion,YARION,z,0.62186,,,,,,-0.02734375,-0.381510417,0,0,0,,0,287,287,359,1,
,,,,,,,,,,,,,,,,,,5dd5e27fe25acf59990e1adf,2020-11-27_10h05.17.083,lexical_decision_task_MP_exp2,2020.2.5,Win32,60,m,1,,,,,,,,0.64275,1,,,,,,20,WORD,"ID",16,breast,BREAST,m,0.64275,,,,,,-0.02734375,-0.381510417,0,0,0,,0,288,288,79,1,
,,,,,,,,,,,,,,,,,,5dd5e27fe25acf59990e1adf,2020-11-27_10h05.17.083,lexical_decision_task_MP_exp2,2020.2.5,Win32,60,z,1,,,,,,,,0.592365,1,,,,,,337,NW,UN,33,wreash,REJOLS,z,0.592365,,,,,,-0.02734375,-0.381510417,0,0,0,,0,289,289,396,1,
,,,,,,,,,,,,,,,,,,5dd5e27fe25acf59990e1adf,2020-11-27_10h05.17.083,lexical_decision_task_MP_exp2,2020.2.5,Win32,60,m,1,,,,,,,,0.53331,1,,,,,,95,WORD,UN,33,ignore,THREAD,m,0.53331,,,,,,-0.02734375,-0.381510417,0,0,0,,0,290,290,154,1,
,,,,,,,,,,,,,,,,,,5dd5e27fe25acf59990e1adf,2020-11-27_10h05.17.083,lexical_decision_task_MP_exp2,2020.2.5,Win32,60,z,1,,,,,,,,0.600975,1,,,,,,476,NW,"ID",33,josted,JOSTED,z,0.600975,,,,,,-0.02734375,-0.381510417,0,0,0,,0,291,291,295,1,
,,,,,,,,,,,,,,,,,,5dd5e27fe25acf59990e1adf,2020-11-27_10h05.17.083,lexical_decision_task_MP_exp2,2020.2.5,Win32,60,z,1,,,,,,,,0.73337,1,,,,,,249,NW,"ID",16,batrol,BATROL,z,0.73337,,,,,,-0.02734375,-0.381510417,0,0,0,,0,292,292,308,1,
,,,,,,,,,,,,,,,,,,5dd5e27fe25acf59990e1adf,2020-11-27_10h05.17.083,lexical_decision_task_MP_exp2,2020.2.5,Win32,60,m,1,,,,,,,,0.60813,1,,,,,,27,WORD,"ID",16,scream,SCREAM,m,0.60813,,,,,,-0.02734375,-0.381510417,0,0,0,,0,293,293,86,1,
,,,,,,,,,,,,,,,,,,5dd5e27fe25acf59990e1adf,2020-11-27_10h05.17.083,lexical_decision_task_MP_exp2,2020.2.5,Win32,60,m,1,,,,,,,,0.51475,1,,,,,,151,WORD,UN,16,rocket,MYSTIC,m,0.51475,,,,,,-0.02734375,-0.381510417,0,0,0,,0,294,294,210,1,
,,,,,,,,,,,,,,,,,,5dd5e27fe25acf59990e1adf,2020-11-27_10h05.17.083,lexical_decision_task_MP_exp2,2020.2.5,Win32,60,m,1,,,,,,,,0.566385,1,,,,,,164,WORD,UN,16,invest,MARKET,m,0.566385,,,,,,-0.02734375,-0.381510417,0,0,0,,0,295,295,223,1,
,,,,,,,,,,,,,,,,,,5dd5e27fe25acf59990e1adf,2020-11-27_10h05.17.083,lexical_decision_task_MP_exp2,2020.2.5,Win32,60,z,1,,,,,,,,0.717555,1,,,,,,281,NW,"ID",16,melaty,MELATY,z,0.717555,,,,,,-0.02734375,-0.381510417,0,0,0,,0,296,296,340,1,
,,,,,,,,,,,,,,,,,,5dd5e27fe25acf59990e1adf,2020-11-27_10h05.17.083,lexical_decision_task_MP_exp2,2020.2.5,Win32,60,z,1,,,,,,,,0.73301,1,,,,,,323,NW,UN,33,steikh,ROSAIL,z,0.73301,,,,,,-0.02734375,-0.381510417,0,0,0,,0,297,297,382,1,
,,,,,,,,,,,,,,,,,,5dd5e27fe25acf59990e1adf,2020-11-27_10h05.17.083,lexical_decision_task_MP_exp2,2020.2.5,Win32,60,m,1,,,,,,,,0.682505,1,,,,,,59,WORD,"ID",16,splint,SPLINT,m,0.682505,,,,,,-0.02734375,-0.381510417,0,0,0,,0,298,298,118,1,
,,,,,,,,,,,,,,,,,,5dd5e27fe25acf59990e1adf,2020-11-27_10h05.17.083,lexical_decision_task_MP_exp2,2020.2.5,Win32,60,m,1,,,,,,,,0.609485,1,,,,,,129,WORD,UN,16,stupid,MARVEL,m,0.609485,,,,,,-0.02734375,-0.381510417,0,0,0,,0,299,299,188,1,
,,,,,,,,,,,,,,,,,,5dd5e27fe25acf59990e1adf,2020-11-27_10h05.17.083,lexical_decision_task_MP_exp2,2020.2.5,Win32,60,m,1,,,,,,,,0.59052,1,,,,,,94,WORD,UN,33,thread,TRAVEL,m,0.59052,,,,,,-0.02734375,-0.381510417,0,0,0,,0,300,300,153,1,
,,,,,,,,,,,,,,,,,,5dd5e27fe25acf59990e1adf,2020-11-27_10h05.17.083,lexical_decision_task_MP_exp2,2020.2.5,Win32,60,z,1,,,,,,,,0.70329,1,,,,,,424,NW,"ID",33,praile,PRAILE,z,0.70329,,,,,,-0.02734375,-0.381510417,0,0,0,,0,301,301,243,1,
,,,,,,,,,,,,,,,,,,5dd5e27fe25acf59990e1adf,2020-11-27_10h05.17.083,lexical_decision_task_MP_exp2,2020.2.5,Win32,60,m,1,,,,,,,,0.90479,1,,,,,,201,WORD,"ID",33,admire,ADMIRE,m,0.90479,,,,,,-0.02734375,-0.381510417,0,0,0,,0,302,302,20,1,
,,,,,,,,,,,,,,,,,,5dd5e27fe25acf59990e1adf,2020-11-27_10h05.17.083,lexical_decision_task_MP_exp2,2020.2.5,Win32,60,z,1,,,,,,,,0.774865,1,,,,,,413,NW,UN,16,serbol,EQUATS,z,0.774865,,,,,,-0.02734375,-0.381510417,0,0,0,,0,303,303,472,1,
,,,,,,,,,,,,,,,,,,5dd5e27fe25acf59990e1adf,2020-11-27_10h05.17.083,lexical_decision_task_MP_exp2,2020.2.5,Win32,60,z,1,,,,,,,,0.649385,1,,,,,,396,NW,UN,16,camble,FLENGY,z,0.649385,,,,,,-0.02734375,-0.381510417,0,0,0,,0,304,304,455,1,
,,,,,,,,,,,,,,,,,,5dd5e27fe25acf59990e1adf,2020-11-27_10h05.17.083,lexical_decision_task_MP_exp2,2020.2.5,Win32,60,z,1,,,,,,,,0.73217,1,,,,,,469,NW,"ID",33,padifs,PADIFS,z,0.73217,,,,,,-0.02734375,-0.381510417,0,0,0,,0,305,305,288,1,
,,,,,,,,,,,,,,,,,,5dd5e27fe25acf59990e1adf,2020-11-27_10h05.17.083,lexical_decision_task_MP_exp2,2020.2.5,Win32,60,m,1,,,,,,,,0.684765,1,,,,,,37,WORD,"ID",16,insult,INSULT,m,0.684765,,,,,,-0.02734375,-0.381510417,0,0,0,,0,306,306,96,1,
,,,,,,,,,,,,,,,,,,5dd5e27fe25acf59990e1adf,2020-11-27_10h05.17.083,lexical_decision_task_MP_exp2,2020.2.5,Win32,60,z,1,,,,,,,,0.623565,1,,,,,,405,NW,UN,16,nouply,FLUMNI,z,0.623565,,,,,,-0.02734375,-0.381510417,0,0,0,,0,307,307,464,1,
,,,,,,,,,,,,,,,,,,5dd5e27fe25acf59990e1adf,2020-11-27_10h05.17.083,lexical_decision_task_MP_exp2,2020.2.5,Win32,60,m,1,,,,,,,,0.66628,1,,,,,,14,WORD,"ID",16,almost,ALMOST,m,0.66628,,,,,,-0.02734375,-0.381510417,0,0,0,,0,308,308,73,1,
,,,,,,,,,,,,,,,,,,5dd5e27fe25acf59990e1adf,2020-11-27_10h05.17.083,lexical_decision_task_MP_exp2,2020.2.5,Win32,60,m,1,,,,,,,,0.670425,1,,,,,,141,WORD,UN,16,spruce,ORPHAN,m,0.670425,,,,,,-0.02734375,-0.381510417,0,0,0,,0,309,309,200,1,
,,,,,,,,,,,,,,,,,,5dd5e27fe25acf59990e1adf,2020-11-27_10h05.17.083,lexical_decision_task_MP_exp2,2020.2.5,Win32,60,z,1,,,,,,,,0.67264,1,,,,,,374,NW,UN,16,yorque,SLIANT,z,0.67264,,,,,,-0.02734375,-0.381510417,0,0,0,,0,310,310,433,1,
,,,,,,,,,,,,,,,,,,5dd5e27fe25acf59990e1adf,2020-11-27_10h05.17.083,lexical_decision_task_MP_exp2,2020.2.5,Win32,60,z,1,,,,,,,,0.66603,1,,,,,,389,NW,UN,16,hatrus,WITMER,z,0.66603,,,,,,-0.02734375,-0.381510417,0,0,0,,0,311,311,448,1,
,,,,,,,,,,,,,,,,,,5dd5e27fe25acf59990e1adf,2020-11-27_10h05.17.083,lexical_decision_task_MP_exp2,2020.2.5,Win32,60,z,1,,,,,,,,0.66898,1,,,,,,256,NW,"ID",16,inlors,INLORS,z,0.66898,,,,,,-0.02734375,-0.381510417,0,0,0,,0,312,312,315,1,
,,,,,,,,,,,,,,,,,,5dd5e27fe25acf59990e1adf,2020-11-27_10h05.17.083,lexical_decision_task_MP_exp2,2020.2.5,Win32,60,z,1,,,,,,,,0.558765,1,,,,,,276,NW,"ID",16,yarmon,YARMON,z,0.558765,,,,,,-0.02734375,-0.381510417,0,0,0,,0,313,313,335,1,
,,,,,,,,,,,,,,,,,,5dd5e27fe25acf59990e1adf,2020-11-27_10h05.17.083,lexical_decision_task_MP_exp2,2020.2.5,Win32,60,m,1,,,,,,,,0.641905,1,,,,,,78,WORD,UN,33,theory,COLUMN,m,0.641905,,,,,,-0.02734375,-0.381510417,0,0,0,,0,314,314,137,1,
,,,,,,,,,,,,,,,,,,5dd5e27fe25acf59990e1adf,2020-11-27_10h05.17.083,lexical_decision_task_MP_exp2,2020.2.5,Win32,60,m,1,,,,,,,,0.60208,1,,,,,,47,WORD,"ID",16,income,INCOME,m,0.60208,,,,,,-0.02734375,-0.381510417,0,0,0,,0,315,315,106,1,
,,,,,,,,,,,,,,,,,,5dd5e27fe25acf59990e1adf,2020-11-27_10h05.17.083,lexical_decision_task_MP_exp2,2020.2.5,Win32,60,m,1,,,,,,,,0.56863,1,,,,,,34,WORD,"ID",16,jungle,JUNGLE,m,0.56863,,,,,,-0.02734375,-0.381510417,0,0,0,,0,316,316,93,1,
,,,,,,,,,,,,,,,,,,5dd5e27fe25acf59990e1adf,2020-11-27_10h05.17.083,lexical_decision_task_MP_exp2,2020.2.5,Win32,60,z,1,,,,,,,,0.64471,1,,,,,,466,NW,"ID",33,hocite,HOCITE,z,0.64471,,,,,,-0.02734375,-0.381510417,0,0,0,,0,317,317,285,1,
,,,,,,,,,,,,,,,,,,5dd5e27fe25acf59990e1adf,2020-11-27_10h05.17.083,lexical_decision_task_MP_exp2,2020.2.5,Win32,60,m,1,,,,,,,,0.65069,1,,,,,,11,WORD,"ID",16,cruise,CRUISE,m,0.65069,,,,,,-0.02734375,-0.381510417,0,0,0,,0,318,318,70,1,
,,,,,,,,,,,,,,,,,,5dd5e27fe25acf59990e1adf,2020-11-27_10h05.17.083,lexical_decision_task_MP_exp2,2020.2.5,Win32,60,z,1,,,,,,,,0.55828,1,,,,,,381,NW,UN,16,sarley,HUNIEK,z,0.55828,,,,,,-0.02734375,-0.381510417,0,0,0,,0,319,319,440,1,
,,,,,,,,,,,,,,,,,,5dd5e27fe25acf59990e1adf,2020-11-27_10h05.17.083,lexical_decision_task_MP_exp2,2020.2.5,Win32,60,z,1,,,,,,,,0.64964,1,,,,,,287,NW,"ID",16,nymbel,NYMBEL,z,0.64964,,,,,,-0.02734375,-0.381510417,0,0,0,,0,320,320,346,1,
,,,,,,,,,,,,,,,,,,5dd5e27fe25acf59990e1adf,2020-11-27_10h05.17.083,lexical_decision_task_MP_exp2,2020.2.5,Win32,60,m,1,,,,,,,,0.650875,1,,,,,,96,WORD,UN,33,client,IGNORE,m,0.650875,,,,,,-0.02734375,-0.381510417,0,0,0,,0,321,321,155,1,
,,,,,,,,,,,,,,,,,,5dd5e27fe25acf59990e1adf,2020-11-27_10h05.17.083,lexical_decision_task_MP_exp2,2020.2.5,Win32,60,z,1,,,,,,,,0.739175,1,,,,,,319,NW,UN,33,jockal,ZOMBER,z,0.739175,,,,,,-0.02734375,-0.381510417,0,0,0,,0,322,322,378,1,
,,,,,,,,,,,,,,,,,,5dd5e27fe25acf59990e1adf,2020-11-27_10h05.17.083,lexical_decision_task_MP_exp2,2020.2.5,Win32,60,z,1,,,,,,,,0.68596,1,,,,,,395,NW,UN,16,flengy,COLURY,z,0.68596,,,,,,-0.02734375,-0.381510417,0,0,0,,0,323,323,454,1,
,,,,,,,,,,,,,,,,,,5dd5e27fe25acf59990e1adf,2020-11-27_10h05.17.083,lexical_decision_task_MP_exp2,2020.2.5,Win32,60,m,1,,,,,,,,0.599265,1,,,,,,227,WORD,"ID",33,seldom,SELDOM,m,0.599265,,,,,,-0.02734375,-0.381510417,0,0,0,,0,324,324,46,1,
,,,,,,,,,,,,,,,,,,5dd5e27fe25acf59990e1adf,2020-11-27_10h05.17.083,lexical_decision_task_MP_exp2,2020.2.5,Win32,60,z,1,,,,,,,,0.574735,1,,,,,,408,NW,UN,16,elopia,HURNIA,z,0.574735,,,,,,-0.02734375,-0.381510417,0,0,0,,0,325,325,467,1,
,,,,,,,,,,,,,,,,,,5dd5e27fe25acf59990e1adf,2020-11-27_10h05.17.083,lexical_decision_task_MP_exp2,2020.2.5,Win32,60,m,1,,,,,,,,0.66599,1,,,,,,166,WORD,UN,16,design,STARCH,m,0.66599,,,,,,-0.02734375,-0.381510417,0,0,0,,0,326,326,225,1,
,,,,,,,,,,,,,,,,,,5dd5e27fe25acf59990e1adf,2020-11-27_10h05.17.083,lexical_decision_task_MP_exp2,2020.2.5,Win32,60,m,1,,,,,,,,0.674865,1,,,,,,113,WORD,UN,33,placid,CHORUS,m,0.674865,,,,,,-0.02734375,-0.381510417,0,0,0,,0,327,327,172,1,
,,,,,,,,,,,,,,,,,,5dd5e27fe25acf59990e1adf,2020-11-27_10h05.17.083,lexical_decision_task_MP_exp2,2020.2.5,Win32,60,m,1,,,,,,,,0.886015,1,,,,,,107,WORD,UN,33,reckon,SLOGAN,m,0.886015,,,,,,-0.02734375,-0.381510417,0,0,0,,0,328,328,166,1,
,,,,,,,,,,,,,,,,,,5dd5e27fe25acf59990e1adf,2020-11-27_10h05.17.083,lexical_decision_task_MP_exp2,2020.2.5,Win32,60,m,1,,,,,,,,0.55172,1,,,,,,105,WORD,UN,33,ransom,NUMBER,m,0.55172,,,,,,-0.02734375,-0.381510417,0,0,0,,0,329,329,164,1,
,,,,,,,,,,,,,,,,,,5dd5e27fe25acf59990e1adf,2020-11-27_10h05.17.083,lexical_decision_task_MP_exp2,2020.2.5,Win32,60,z,1,,,,,,,,0.65291,1,,,,,,340,NW,UN,33,myrtie,FIATCH,z,0.65291,,,,,,-0.02734375,-0.381510417,0,0,0,,0,330,330,399,1,
,,,,,,,,,,,,,,,,,,5dd5e27fe25acf59990e1adf,2020-11-27_10h05.17.083,lexical_decision_task_MP_exp2,2020.2.5,Win32,60,m,1,,,,,,,,0.64209,1,,,,,,198,WORD,"ID",33,wicked,WICKED,m,0.64209,,,,,,-0.02734375,-0.381510417,0,0,0,,0,331,331,17,1,
,,,,,,,,,,,,,,,,,,5dd5e27fe25acf59990e1adf,2020-11-27_10h05.17.083,lexical_decision_task_MP_exp2,2020.2.5,Win32,60,m,1,,,,,,,,0.5989,1,,,,,,160,WORD,UN,16,pastor,VIOLET,m,0.5989,,,,,,-0.02734375,-0.381510417,0,0,0,,0,332,332,219,1,
,,,,,,,,,,,,,,,,,,5dd5e27fe25acf59990e1adf,2020-11-27_10h05.17.083,lexical_decision_task_MP_exp2,2020.2.5,Win32,60,m,1,,,,,,,,0.66934,1,,,,,,30,WORD,"ID",16,orient,ORIENT,m,0.66934,,,,,,-0.02734375,-0.381510417,0,0,0,,0,333,333,89,1,
,,,,,,,,,,,,,,,,,,5dd5e27fe25acf59990e1adf,2020-11-27_10h05.17.083,lexical_decision_task_MP_exp2,2020.2.5,Win32,60,z,1,,,,,,,,0.706315,1,,,,,,420,NW,UN,16,pauche,GUSHOP,z,0.706315,,,,,,-0.02734375,-0.381510417,0,0,0,,0,334,334,479,1,
,,,,,,,,,,,,,,,,,,5dd5e27fe25acf59990e1adf,2020-11-27_10h05.17.083,lexical_decision_task_MP_exp2,2020.2.5,Win32,60,m,1,,,,,,,,0.61553,1,,,,,,165,WORD,UN,16,starch,INVEST,m,0.61553,,,,,,-0.02734375,-0.381510417,0,0,0,,0,335,335,224,1,
,,,,,,,,,,,,,,,,,,5dd5e27fe25acf59990e1adf,2020-11-27_10h05.17.083,lexical_decision_task_MP_exp2,2020.2.5,Win32,60,z,1,,,,,,,,0.77658,1,,,,,,283,NW,"ID",16,veralf,VERALF,z,0.77658,,,,,,-0.02734375,-0.381510417,0,0,0,,0,336,336,342,1,
,,,,,,,,,,,,,,,,,,5dd5e27fe25acf59990e1adf,2020-11-27_10h05.17.083,lexical_decision_task_MP_exp2,2020.2.5,Win32,60,z,1,,,,,,,,0.685405,1,,,,,,472,NW,"ID",33,cigney,CIGNEY,z,0.685405,,,,,,-0.02734375,-0.381510417,0,0,0,,0,337,337,291,1,
,,,,,,,,,,,,,,,,,,5dd5e27fe25acf59990e1adf,2020-11-27_10h05.17.083,lexical_decision_task_MP_exp2,2020.2.5,Win32,60,z,1,,,,,,,,0.63507,1,,,,,,350,NW,UN,33,tiesch,NAGURS,z,0.63507,,,,,,-0.02734375,-0.381510417,0,0,0,,0,338,338,409,1,
,,,,,,,,,,,,,,,,,,5dd5e27fe25acf59990e1adf,2020-11-27_10h05.17.083,lexical_decision_task_MP_exp2,2020.2.5,Win32,60,z,1,,,,,,,,0.603105,1,,,,,,309,NW,UN,33,daniet,AMILOY,z,0.603105,,,,,,-0.02734375,-0.381510417,0,0,0,,0,339,339,368,1,
,,,,,,,,,,,,,,,,,,5dd5e27fe25acf59990e1adf,2020-11-27_10h05.17.083,lexical_decision_task_MP_exp2,2020.2.5,Win32,60,m,1,,,,,,,,0.56964,1,,,,,,39,WORD,"ID",16,insect,INSECT,m,0.56964,,,,,,-0.02734375,-0.381510417,0,0,0,,0,340,340,98,1,
,,,,,,,,,,,,,,,,,,5dd5e27fe25acf59990e1adf,2020-11-27_10h05.17.083,lexical_decision_task_MP_exp2,2020.2.5,Win32,60,z,1,,,,,,,,0.743155,1,,,,,,244,NW,"ID",16,eatric,EATRIC,z,0.743155,,,,,,-0.02734375,-0.381510417,0,0,0,,0,341,341,303,1,
,,,,,,,,,,,,,,,,,,5dd5e27fe25acf59990e1adf,2020-11-27_10h05.17.083,lexical_decision_task_MP_exp2,2020.2.5,Win32,60,m,1,,,,,,,,0.60119,1,,,,,,203,WORD,"ID",33,phrase,PHRASE,m,0.60119,,,,,,-0.02734375,-0.381510417,0,0,0,,0,342,342,22,1,
,,,,,,,,,,,,,,,,,,5dd5e27fe25acf59990e1adf,2020-11-27_10h05.17.083,lexical_decision_task_MP_exp2,2020.2.5,Win32,60,z,1,,,,,,,,0.74955,1,,,,,,479,NW,"ID",33,lobush,LOBUSH,z,0.74955,,,,,,-0.02734375,-0.381510417,0,0,0,,0,343,343,298,1,
,,,,,,,,,,,,,,,,,,5dd5e27fe25acf59990e1adf,2020-11-27_10h05.17.083,lexical_decision_task_MP_exp2,2020.2.5,Win32,60,z,1,,,,,,,,0.685495,1,,,,,,318,NW,UN,33,zomber,REAGLY,z,0.685495,,,,,,-0.02734375,-0.381510417,0,0,0,,0,344,344,377,1,
,,,,,,,,,,,,,,,,,,5dd5e27fe25acf59990e1adf,2020-11-27_10h05.17.083,lexical_decision_task_MP_exp2,2020.2.5,Win32,60,z,1,,,,,,,,0.69989,1,,,,,,366,NW,UN,16,slique,TOSHEL,z,0.69989,,,,,,-0.02734375,-0.381510417,0,0,0,,0,345,345,425,1,
,,,,,,,,,,,,,,,,,,5dd5e27fe25acf59990e1adf,2020-11-27_10h05.17.083,lexical_decision_task_MP_exp2,2020.2.5,Win32,60,z,1,,,,,,,,0.64883,1,,,,,,246,NW,"ID",16,piaton,PIATON,z,0.64883,,,,,,-0.02734375,-0.381510417,0,0,0,,0,346,346,305,1,
,,,,,,,,,,,,,,,,,,5dd5e27fe25acf59990e1adf,2020-11-27_10h05.17.083,lexical_decision_task_MP_exp2,2020.2.5,Win32,60,m,1,,,,,,,,0.641245,1,,,,,,92,WORD,UN,33,public,STRAND,m,0.641245,,,,,,-0.02734375,-0.381510417,0,0,0,,0,347,347,151,1,
,,,,,,,,,,,,,,,,,,5dd5e27fe25acf59990e1adf,2020-11-27_10h05.17.083,lexical_decision_task_MP_exp2,2020.2.5,Win32,60,m,1,,,,,,,,0.541355,1,,,,,,71,WORD,UN,33,bright,GARDEN,m,0.541355,,,,,,-0.02734375,-0.381510417,0,0,0,,0,348,348,130,1,
,,,,,,,,,,,,,,,,,,5dd5e27fe25acf59990e1adf,2020-11-27_10h05.17.083,lexical_decision_task_MP_exp2,2020.2.5,Win32,60,m,1,,,,,,,,0.666655,1,,,,,,184,WORD,"ID",33,sleazy,SLEAZY,m,0.666655,,,,,,-0.02734375,-0.381510417,0,0,0,,0,349,349,3,1,
,,,,,,,,,,,,,,,,,,5dd5e27fe25acf59990e1adf,2020-11-27_10h05.17.083,lexical_decision_task_MP_exp2,2020.2.5,Win32,60,m,1,,,,,,,,0.523635,1,,,,,,22,WORD,"ID",16,jockey,JOCKEY,m,0.523635,,,,,,-0.02734375,-0.381510417,0,0,0,,0,350,350,81,1,
,,,,,,,,,,,,,,,,,,5dd5e27fe25acf59990e1adf,2020-11-27_10h05.17.083,lexical_decision_task_MP_exp2,2020.2.5,Win32,60,m,1,,,,,,,,0.585015,1,,,,,,60,WORD,"ID",16,pencil,PENCIL,m,0.585015,,,,,,-0.02734375,-0.381510417,0,0,0,,0,351,351,119,1,
,,,,,,,,,,,,,,,,,,5dd5e27fe25acf59990e1adf,2020-11-27_10h05.17.083,lexical_decision_task_MP_exp2,2020.2.5,Win32,60,z,1,,,,,,,,0.56554,1,,,,,,412,NW,UN,16,equats,JILUER,z,0.56554,,,,,,-0.02734375,-0.381510417,0,0,0,,0,352,352,471,1,
,,,,,,,,,,,,,,,,,,5dd5e27fe25acf59990e1adf,2020-11-27_10h05.17.083,lexical_decision_task_MP_exp2,2020.2.5,Win32,60,m,1,,,,,,,,0.75136,1,,,,,,77,WORD,UN,33,column,RACKET,m,0.75136,,,,,,-0.02734375,-0.381510417,0,0,0,,0,353,353,136,1,
,,,,,,,,,,,,,,,,,,5dd5e27fe25acf59990e1adf,2020-11-27_10h05.17.083,lexical_decision_task_MP_exp2,2020.2.5,Win32,60,z,1,,,,,,,,0.67886,1,,,,,,434,NW,"ID",33,pitrom,PITROM,z,0.67886,,,,,,-0.02734375,-0.381510417,0,0,0,,0,354,354,253,1,
,,,,,,,,,,,,,,,,,,5dd5e27fe25acf59990e1adf,2020-11-27_10h05.17.083,lexical_decision_task_MP_exp2,2020.2.5,Win32,60,z,1,,,,,,,,0.592845,1,,,,,,421,NW,"ID",33,knisma,KNISMA,z,0.592845,,,,,,-0.02734375,-0.381510417,0,0,0,,0,355,355,240,1,
,,,,,,,,,,,,,,,,,,5dd5e27fe25acf59990e1adf,2020-11-27_10h05.17.083,lexical_decision_task_MP_exp2,2020.2.5,Win32,60,m,1,,,,,,,,0.67742,1,,,,,,25,WORD,"ID",16,domain,DOMAIN,m,0.67742,,,,,,-0.02734375,-0.381510417,0,0,0,,0,356,356,84,1,
,,,,,,,,,,,,,,,,,,5dd5e27fe25acf59990e1adf,2020-11-27_10h05.17.083,lexical_decision_task_MP_exp2,2020.2.5,Win32,60,z,1,,,,,,,,0.718835,1,,,,,,356,NW,UN,33,derain,OTHNIS,z,0.718835,,,,,,-0.02734375,-0.381510417,0,0,0,,0,357,357,415,1,
,,,,,,,,,,,,,,,,,,5dd5e27fe25acf59990e1adf,2020-11-27_10h05.17.083,lexical_decision_task_MP_exp2,2020.2.5,Win32,60,m,1,,,,,,,,0.50057,1,,,,,,239,WORD,"ID",33,lumber,LUMBER,m,0.50057,,,,,,-0.02734375,-0.381510417,0,0,0,,0,358,358,58,1,
,,,,,,,,,,,,,,,,,,5dd5e27fe25acf59990e1adf,2020-11-27_10h05.17.083,lexical_decision_task_MP_exp2,2020.2.5,Win32,60,z,1,,,,,,,,0.599685,1,,,,,,373,NW,UN,16,sliant,BIGENT,z,0.599685,,,,,,-0.02734375,-0.381510417,0,0,0,,0,359,359,432,1,
,,,,,,,,,,,,,,,,,,5dd5e27fe25acf59990e1adf,2020-11-27_10h05.17.083,lexical_decision_task_MP_exp2,2020.2.5,Win32,60,m,1,,,,,,,,0.540255,1,,,,,,79,WORD,UN,33,family,THEORY,m,0.540255,,,,,,-0.02734375,-0.381510417,0,0,0,,0,360,360,138,1,
,,,,,,,,,,,,,,,,,,5dd5e27fe25acf59990e1adf,2020-11-27_10h05.17.083,lexical_decision_task_MP_exp2,2020.2.5,Win32,60,m,1,,,,,,,,0.525605,1,,,,,,144,WORD,UN,16,parish,SPONGE,m,0.525605,,,,,,-0.02734375,-0.381510417,0,0,0,,0,361,361,203,1,
,,,,,,,,,,,,,,,,,,5dd5e27fe25acf59990e1adf,2020-11-27_10h05.17.083,lexical_decision_task_MP_exp2,2020.2.5,Win32,60,z,1,,,,,,,,0.649775,1,,,,,,383,NW,UN,16,guesco,AUNGRE,z,0.649775,,,,,,-0.02734375,-0.381510417,1,0,0,,0,362,362,442,1,break_done_button
,,,,,,,,,,,,,,,,,,5dd5e27fe25acf59990e1adf,2020-11-27_10h05.17.083,lexical_decision_task_MP_exp2,2020.2.5,Win32,60,m,1,,,,,,,,0.973785,1,,,,,,207,WORD,"ID",33,wreath,WREATH,m,0.973785,,,,,,-0.02734375,-0.381510417,0,0,0,,0,363,363,26,1,
,,,,,,,,,,,,,,,,,,5dd5e27fe25acf59990e1adf,2020-11-27_10h05.17.083,lexical_decision_task_MP_exp2,2020.2.5,Win32,60,z,1,,,,,,,,0.726255,1,,,,,,362,NW,UN,16,breali,TIREAU,z,0.726255,,,,,,-0.02734375,-0.381510417,0,0,0,,0,364,364,421,1,
,,,,,,,,,,,,,,,,,,5dd5e27fe25acf59990e1adf,2020-11-27_10h05.17.083,lexical_decision_task_MP_exp2,2020.2.5,Win32,60,z,1,,,,,,,,0.71963,1,,,,,,406,NW,UN,16,suiver,NOUPLY,z,0.71963,,,,,,-0.02734375,-0.381510417,0,0,0,,0,365,365,465,1,
,,,,,,,,,,,,,,,,,,5dd5e27fe25acf59990e1adf,2020-11-27_10h05.17.083,lexical_decision_task_MP_exp2,2020.2.5,Win32,60,m,1,,,,,,,,0.61595,1,,,,,,31,WORD,"ID",16,weapon,WEAPON,m,0.61595,,,,,,-0.02734375,-0.381510417,0,0,0,,0,366,366,90,1,
,,,,,,,,,,,,,,,,,,5dd5e27fe25acf59990e1adf,2020-11-27_10h05.17.083,lexical_decision_task_MP_exp2,2020.2.5,Win32,60,z,1,,,,,,,,0.68337,1,,,,,,270,NW,"ID",16,wrimsy,WRIMSY,z,0.68337,,,,,,-0.02734375,-0.381510417,0,0,0,,0,367,367,329,1,
,,,,,,,,,,,,,,,,,,5dd5e27fe25acf59990e1adf,2020-11-27_10h05.17.083,lexical_decision_task_MP_exp2,2020.2.5,Win32,60,m,1,,,,,,,,0.616655,1,,,,,,192,WORD,"ID",33,plague,PLAGUE,m,0.616655,,,,,,-0.02734375,-0.381510417,0,0,0,,0,368,368,11,1,
,,,,,,,,,,,,,,,,,,5dd5e27fe25acf59990e1adf,2020-11-27_10h05.17.083,lexical_decision_task_MP_exp2,2020.2.5,Win32,60,m,1,,,,,,,,0.59178,1,,,,,,106,WORD,UN,33,slogan,RANSOM,m,0.59178,,,,,,-0.02734375,-0.381510417,0,0,0,,0,369,369,165,1,
,,,,,,,,,,,,,,,,,,5dd5e27fe25acf59990e1adf,2020-11-27_10h05.17.083,lexical_decision_task_MP_exp2,2020.2.5,Win32,60,z,1,,,,,,,,0.550345,1,,,,,,465,NW,"ID",33,whivex,WHIVEX,z,0.550345,,,,,,-0.02734375,-0.381510417,0,0,0,,0,370,370,284,1,
,,,,,,,,,,,,,,,,,,5dd5e27fe25acf59990e1adf,2020-11-27_10h05.17.083,lexical_decision_task_MP_exp2,2020.2.5,Win32,60,z,1,,,,,,,,0.722475,1,,,,,,430,NW,"ID",33,caroey,CAROEY,z,0.722475,,,,,,-0.02734375,-0.381510417,0,0,0,,0,371,371,249,1,
,,,,,,,,,,,,,,,,,,5dd5e27fe25acf59990e1adf,2020-11-27_10h05.17.083,lexical_decision_task_MP_exp2,2020.2.5,Win32,60,z,1,,,,,,,,0.599925,1,,,,,,335,NW,UN,33,ghodus,DESION,z,0.599925,,,,,,-0.02734375,-0.381510417,0,0,0,,0,372,372,394,1,
,,,,,,,,,,,,,,,,,,5dd5e27fe25acf59990e1adf,2020-11-27_10h05.17.083,lexical_decision_task_MP_exp2,2020.2.5,Win32,60,m,1,,,,,,,,0.60337,1,,,,,,46,WORD,"ID",16,single,SINGLE,m,0.60337,,,,,,-0.02734375,-0.381510417,0,0,0,,0,373,373,105,1,
,,,,,,,,,,,,,,,,,,5dd5e27fe25acf59990e1adf,2020-11-27_10h05.17.083,lexical_decision_task_MP_exp2,2020.2.5,Win32,60,m,1,,,,,,,,0.61808,1,,,,,,103,WORD,UN,33,studio,BOUNCE,m,0.61808,,,,,,-0.02734375,-0.381510417,0,0,0,,0,374,374,162,1,
,,,,,,,,,,,,,,,,,,5dd5e27fe25acf59990e1adf,2020-11-27_10h05.17.083,lexical_decision_task_MP_exp2,2020.2.5,Win32,60,m,1,,,,,,,,0.62014,1,,,,,,40,WORD,"ID",16,convey,CONVEY,m,0.62014,,,,,,-0.02734375,-0.381510417,0,0,0,,0,375,375,99,1,
,,,,,,,,,,,,,,,,,,5dd5e27fe25acf59990e1adf,2020-11-27_10h05.17.083,lexical_decision_task_MP_exp2,2020.2.5,Win32,60,m,1,,,,,,,,0.549325,1,,,,,,69,WORD,UN,33,square,PLENTY,m,0.549325,,,,,,-0.02734375,-0.381510417,0,0,0,,0,376,376,128,1,
,,,,,,,,,,,,,,,,,,5dd5e27fe25acf59990e1adf,2020-11-27_10h05.17.083,lexical_decision_task_MP_exp2,2020.2.5,Win32,60,m,1,,,,,,,,0.566435,1,,,,,,116,WORD,UN,33,branch,TUMBLE,m,0.566435,,,,,,-0.02734375,-0.381510417,0,0,0,,0,377,377,175,1,
,,,,,,,,,,,,,,,,,,5dd5e27fe25acf59990e1adf,2020-11-27_10h05.17.083,lexical_decision_task_MP_exp2,2020.2.5,Win32,60,z,1,,,,,,,,0.66056,1,,,,,,423,NW,"ID",33,streld,STRELD,z,0.66056,,,,,,-0.02734375,-0.381510417,0,0,0,,0,378,378,242,1,
,,,,,,,,,,,,,,,,,,5dd5e27fe25acf59990e1adf,2020-11-27_10h05.17.083,lexical_decision_task_MP_exp2,2020.2.5,Win32,60,m,1,,,,,,,,0.606685,1,,,,,,172,WORD,UN,16,shower,PATROL,m,0.606685,,,,,,-0.02734375,-0.381510417,0,0,0,,0,379,379,231,1,
,,,,,,,,,,,,,,,,,,5dd5e27fe25acf59990e1adf,2020-11-27_10h05.17.083,lexical_decision_task_MP_exp2,2020.2.5,Win32,60,m,1,,,,,,,,0.59928,1,,,,,,86,WORD,UN,33,filter,RODENT,m,0.59928,,,,,,-0.02734375,-0.381510417,0,0,0,,0,380,380,145,1,
,,,,,,,,,,,,,,,,,,5dd5e27fe25acf59990e1adf,2020-11-27_10h05.17.083,lexical_decision_task_MP_exp2,2020.2.5,Win32,60,z,1,,,,,,,,0.61658,1,,,,,,320,NW,UN,33,miator,JOCKAL,z,0.61658,,,,,,-0.02734375,-0.381510417,0,0,0,,0,381,381,379,1,
,,,,,,,,,,,,,,,,,,5dd5e27fe25acf59990e1adf,2020-11-27_10h05.17.083,lexical_decision_task_MP_exp2,2020.2.5,Win32,60,z,1,,,,,,,,0.552915,1,,,,,,251,NW,"ID",16,lupict,LUPICT,z,0.552915,,,,,,-0.02734375,-0.381510417,0,0,0,,0,382,382,310,1,
,,,,,,,,,,,,,,,,,,5dd5e27fe25acf59990e1adf,2020-11-27_10h05.17.083,lexical_decision_task_MP_exp2,2020.2.5,Win32,60,m,1,,,,,,,,0.585065,1,,,,,,70,WORD,UN,33,garden,SQUARE,m,0.585065,,,,,,-0.02734375,-0.381510417,0,0,0,,0,383,383,129,1,
,,,,,,,,,,,,,,,,,,5dd5e27fe25acf59990e1adf,2020-11-27_10h05.17.083,lexical_decision_task_MP_exp2,2020.2.5,Win32,60,m,1,,,,,,,,0.572945,1,,,,,,196,WORD,"ID",33,credit,CREDIT,m,0.572945,,,,,,-0.02734375,-0.381510417,0,0,0,,0,384,384,15,1,
,,,,,,,,,,,,,,,,,,5dd5e27fe25acf59990e1adf,2020-11-27_10h05.17.083,lexical_decision_task_MP_exp2,2020.2.5,Win32,60,m,1,,,,,,,,0.51639,1,,,,,,2,WORD,"ID",16,bridge,BRIDGE,m,0.51639,,,,,,-0.02734375,-0.381510417,0,0,0,,0,385,385,61,1,
,,,,,,,,,,,,,,,,,,5dd5e27fe25acf59990e1adf,2020-11-27_10h05.17.083,lexical_decision_task_MP_exp2,2020.2.5,Win32,60,z,1,,,,,,,,0.570575,1,,,,,,317,NW,UN,33,reagly,WORBAL,z,0.570575,,,,,,-0.02734375,-0.381510417,0,0,0,,0,386,386,376,1,
,,,,,,,,,,,,,,,,,,5dd5e27fe25acf59990e1adf,2020-11-27_10h05.17.083,lexical_decision_task_MP_exp2,2020.2.5,Win32,60,z,1,,,,,,,,0.573815,1,,,,,,474,NW,"ID",33,hablin,HABLIN,z,0.573815,,,,,,-0.02734375,-0.381510417,0,0,0,,0,387,387,293,1,
,,,,,,,,,,,,,,,,,,5dd5e27fe25acf59990e1adf,2020-11-27_10h05.17.083,lexical_decision_task_MP_exp2,2020.2.5,Win32,60,m,1,,,,,,,,0.57471,1,,,,,,173,WORD,UN,16,turkey,SHOWER,m,0.57471,,,,,,-0.02734375,-0.381510417,0,0,0,,0,388,388,232,1,
,,,,,,,,,,,,,,,,,,5dd5e27fe25acf59990e1adf,2020-11-27_10h05.17.083,lexical_decision_task_MP_exp2,2020.2.5,Win32,60,m,1,,,,,,,,0.583495,1,,,,,,65,WORD,UN,33,gospel,SYMBOL,m,0.583495,,,,,,-0.02734375,-0.381510417,0,0,0,,0,389,389,124,1,
,,,,,,,,,,,,,,,,,,5dd5e27fe25acf59990e1adf,2020-11-27_10h05.17.083,lexical_decision_task_MP_exp2,2020.2.5,Win32,60,m,1,,,,,,,,0.49918,1,,,,,,206,WORD,"ID",33,tailor,TAILOR,m,0.49918,,,,,,-0.02734375,-0.381510417,0,0,0,,0,390,390,25,1,
,,,,,,,,,,,,,,,,,,5dd5e27fe25acf59990e1adf,2020-11-27_10h05.17.083,lexical_decision_task_MP_exp2,2020.2.5,Win32,60,z,1,,,,,,,,0.61049,1,,,,,,435,NW,"ID",33,impurb,IMPURB,z,0.61049,,,,,,-0.02734375,-0.381510417,0,0,0,,0,391,391,254,1,
,,,,,,,,,,,,,,,,,,5dd5e27fe25acf59990e1adf,2020-11-27_10h05.17.083,lexical_decision_task_MP_exp2,2020.2.5,Win32,60,z,1,,,,,,,,0.56971,1,,,,,,361,NW,UN,16,tireau,PAUCHE,z,0.56971,,,,,,-0.02734375,-0.381510417,0,0,0,,0,392,392,420,1,
,,,,,,,,,,,,,,,,,,5dd5e27fe25acf59990e1adf,2020-11-27_10h05.17.083,lexical_decision_task_MP_exp2,2020.2.5,Win32,60,z,1,,,,,,,,0.553865,1,,,,,,333,NW,UN,33,watmeg,CATRIE,z,0.553865,,,,,,-0.02734375,-0.381510417,0,0,0,,0,393,393,392,1,
,,,,,,,,,,,,,,,,,,5dd5e27fe25acf59990e1adf,2020-11-27_10h05.17.083,lexical_decision_task_MP_exp2,2020.2.5,Win32,60,m,1,,,,,,,,0.649395,1,,,,,,170,WORD,UN,16,dragon,POUNCE,m,0.649395,,,,,,-0.02734375,-0.381510417,0,0,0,,0,394,394,229,1,
