counterbalancing_condition,instr_done_keyboard.keys,instr_done_touch.x,instr_done_touch.y,instr_done_touch.leftButton,instr_done_touch.midButton,instr_done_touch.rightButton,instr_done_touch.clicked_name,instruction_pages.thisRepN,instruction_pages.thisTrialN,instruction_pages.thisN,instruction_pages.thisIndex,instruction_pages.ran,pageN,phase,instruct_text,has_image,instruct_image,participant,date,expName,psychopyVersion,OS,frameRate,response.keys,response.corr,touch_resp.x,touch_resp.y,touch_resp.leftButton,touch_resp.midButton,touch_resp.rightButton,touch_resp.time,touch_resp.clicked_name,rt,corr,practice_trials.thisRepN,practice_trials.thisTrialN,practice_trials.thisN,practice_trials.thisIndex,practice_trials.ran,TrialID,StimulusType,Condition,PrimeDuration,Prime,Target,corrAns,end_of_practice_trials_pages.thisRepN,end_of_practice_trials_pages.thisTrialN,end_of_practice_trials_pages.thisN,end_of_practice_trials_pages.thisIndex,end_of_practice_trials_pages.ran,break_done_touch.x,break_done_touch.y,break_done_touch.leftButton,break_done_touch.midButton,break_done_touch.rightButton,break_done_keyboard.keys,experiment_trials.thisRepN,experiment_trials.thisTrialN,experiment_trials.thisN,experiment_trials.thisIndex,experiment_trials.ran,break_done_touch.clicked_name
1,,-0.0525,-0.3925,1,0,0,instr_done_button,0,0,0,0,1,1,instructions,"INSTRUCTIONS
At the start of each trial, look at the hash marks (######) in the center of the screen. After a moment, a string of letters will appear. Your task is to indicate if the letter string forms a word or not (i.e., if it is a nonword). For example, AUTHOR is a word while AUTHON is a nonword.

Press the space bar or touch the button below to continue.",0,,5df03fabc1ef790aa5595f8f,2020-11-27_15h13.37.905,lexical_decision_task_MP_exp2,2020.2.5,Linux armv7l,60,,,,,,,,,,,,,,,,,,,,,,,,,,,,,,,,,,,,,,,,
,,-0.025,-0.3925,1,0,0,instr_done_button,0,1,1,1,1,2,instructions,"If your device has a keyboard, press the 'Z' key for nonwords and the 'M' key for words.





Press the space bar or touch the button below to continue.",1,keyboard-example.gif,5df03fabc1ef790aa5595f8f,2020-11-27_15h13.37.905,lexical_decision_task_MP_exp2,2020.2.5,Linux armv7l,60,,,,,,,,,,,,,,,,,,,,,,,,,,,,,,,,,,,,,,,,
,,-0.03625,-0.38375,1,0,0,instr_done_button,0,2,2,2,1,3,instructions,"If you are using a touchscreen only device, use the buttons on the screen. Do not use the mouse.





Press the space bar or touch the button below to continue.",1,touchscreen-example.gif,5df03fabc1ef790aa5595f8f,2020-11-27_15h13.37.905,lexical_decision_task_MP_exp2,2020.2.5,Linux armv7l,60,,,,,,,,,,,,,,,,,,,,,,,,,,,,,,,,,,,,,,,,
,,0,-0.39375,1,0,0,instr_done_button,0,3,3,3,1,4,instructions,"It is very important that you respond as quickly and accurately as possible, as each letter string will only be on the screen for two seconds. If you do not respond within this time, the message 'Too slow!' will be displayed and the experiment will progress to the next letter string. The first 20 trials will be practice trials and you will receive feedback on your answers. 

Press the space bar or touch the button below to start the practice trials.",0,,5df03fabc1ef790aa5595f8f,2020-11-27_15h13.37.905,lexical_decision_task_MP_exp2,2020.2.5,Linux armv7l,60,,,,,,,,,,,,,,,,,,,,,,,,,,,,,,,,,,,,,,,,
,,,,,,,,,,,,,,,,,,5df03fabc1ef790aa5595f8f,2020-11-27_15h13.37.905,lexical_decision_task_MP_exp2,2020.2.5,Linux armv7l,60,,0,0.3575,-0.285,1,0,0,1.849,button_right,1.849,0,0,0,0,11,1,1012,NW,"ID",16,rashet,RASHET,z,,,,,,,,,,,,,,,,,
,,,,,,,,,,,,,,,,,,5df03fabc1ef790aa5595f8f,2020-11-27_15h13.37.905,lexical_decision_task_MP_exp2,2020.2.5,Linux armv7l,60,,0,0.36875,-0.3,1,0,0,1.598,button_right,1.598,0,0,1,1,14,1,1015,NW,UN,16,miaber,THRALE,z,,,,,,,,,,,,,,,,,
,,,,,,,,,,,,,,,,,,5df03fabc1ef790aa5595f8f,2020-11-27_15h13.37.905,lexical_decision_task_MP_exp2,2020.2.5,Linux armv7l,60,,0,0.33875,-0.2775,1,0,0,1.013,button_right,1.013,1,0,2,2,2,1,1003,WORD,"ID",16,almond,ALMOND,m,,,,,,,,,,,,,,,,,
,,,,,,,,,,,,,,,,,,5df03fabc1ef790aa5595f8f,2020-11-27_15h13.37.905,lexical_decision_task_MP_exp2,2020.2.5,Linux armv7l,60,,0,-0.42125,-0.2875,1,0,0,1.234,button_left,1.234,1,0,3,3,10,1,1011,NW,"ID",16,inlade,INLADE,z,,,,,,,,,,,,,,,,,
,,,,,,,,,,,,,,,,,,5df03fabc1ef790aa5595f8f,2020-11-27_15h13.37.905,lexical_decision_task_MP_exp2,2020.2.5,Linux armv7l,60,,0,0.36,-0.29375,1,0,0,1.257,button_right,1.257,1,0,4,4,0,1,1001,WORD,"ID",33,utopia,UTOPIA,m,,,,,,,,,,,,,,,,,
,,,,,,,,,,,,,,,,,,5df03fabc1ef790aa5595f8f,2020-11-27_15h13.37.905,lexical_decision_task_MP_exp2,2020.2.5,Linux armv7l,60,,0,-0.395,-0.26875,1,0,0,0.988,button_left,0.988,1,0,5,5,13,1,1014,NW,UN,33,winfer,ROUPET,z,,,,,,,,,,,,,,,,,
,,,,,,,,,,,,,,,,,,5df03fabc1ef790aa5595f8f,2020-11-27_15h13.37.905,lexical_decision_task_MP_exp2,2020.2.5,Linux armv7l,60,,0,0.31625,-0.30125,1,0,0,0.789,button_right,0.789,1,0,6,6,6,1,1007,WORD,UN,16,tropic,ZOMBIE,m,,,,,,,,,,,,,,,,,
,,,,,,,,,,,,,,,,,,5df03fabc1ef790aa5595f8f,2020-11-27_15h13.37.905,lexical_decision_task_MP_exp2,2020.2.5,Linux armv7l,60,,0,0.3375,-0.2725,1,0,0,1.071,button_right,1.071,1,0,7,7,3,1,1004,WORD,"ID",16,matrix,MATRIX,m,,,,,,,,,,,,,,,,,
,,,,,,,,,,,,,,,,,,5df03fabc1ef790aa5595f8f,2020-11-27_15h13.37.905,lexical_decision_task_MP_exp2,2020.2.5,Linux armv7l,60,,0,-0.3775,-0.2975,1,0,0,1.003,button_left,1.003,1,0,8,8,8,1,1009,NW,"ID",33,aslert,ASLERT,z,,,,,,,,,,,,,,,,,
,,,,,,,,,,,,,,,,,,5df03fabc1ef790aa5595f8f,2020-11-27_15h13.37.905,lexical_decision_task_MP_exp2,2020.2.5,Linux armv7l,60,,0,-0.33125,-0.3175,1,0,0,0.822,button_left,0.822,1,0,9,9,15,1,1016,NW,UN,16,mushed,WHAISE,z,,,,,,,,,,,,,,,,,
,,,,,,,,,,,,,,,,,,5df03fabc1ef790aa5595f8f,2020-11-27_15h13.37.905,lexical_decision_task_MP_exp2,2020.2.5,Linux armv7l,60,,0,-0.35125,-0.30875,1,0,0,0.867,button_left,0.867,1,0,10,10,9,1,1010,NW,"ID",33,fariny,FARINY,z,,,,,,,,,,,,,,,,,
,,,,,,,,,,,,,,,,,,5df03fabc1ef790aa5595f8f,2020-11-27_15h13.37.905,lexical_decision_task_MP_exp2,2020.2.5,Linux armv7l,60,,0,-0.39625,-0.29625,1,0,0,1.703,button_left,1.703,1,0,11,11,12,1,1013,NW,UN,33,adveil,SPRINY,z,,,,,,,,,,,,,,,,,
,,,,,,,,,,,,,,,,,,5df03fabc1ef790aa5595f8f,2020-11-27_15h13.37.905,lexical_decision_task_MP_exp2,2020.2.5,Linux armv7l,60,,0,0.35375,-0.29375,1,0,0,1.079,button_right,1.079,1,0,12,12,7,1,1008,WORD,UN,16,hurdle,VOLUME,m,,,,,,,,,,,,,,,,,
,,,,,,,,,,,,,,,,,,5df03fabc1ef790aa5595f8f,2020-11-27_15h13.37.905,lexical_decision_task_MP_exp2,2020.2.5,Linux armv7l,60,,0,0.365,-0.305,1,0,0,0.904,button_right,0.904,1,0,13,13,1,1,1002,WORD,"ID",33,adjust,ADJUST,m,,,,,,,,,,,,,,,,,
,,,,,,,,,,,,,,,,,,5df03fabc1ef790aa5595f8f,2020-11-27_15h13.37.905,lexical_decision_task_MP_exp2,2020.2.5,Linux armv7l,60,,0,0.38125,-0.25375,1,0,0,0.807,button_right,0.807,1,0,14,14,5,1,1006,WORD,UN,33,frenzy,OBTAIN,m,,,,,,,,,,,,,,,,,
,,,,,,,,,,,,,,,,,,5df03fabc1ef790aa5595f8f,2020-11-27_15h13.37.905,lexical_decision_task_MP_exp2,2020.2.5,Linux armv7l,60,,0,0.3125,-0.28625,1,0,0,0.695,button_right,0.695,1,0,15,15,4,1,1005,WORD,UN,33,abound,SQUEAK,m,,,,,,,,,,,,,,,,,
,,-0.02125,-0.3875,1,0,0,instr_done_button,,,,,,1,end_of_practice,"You have completed the practice trials. During the experimental trials, you will not receive feedback, but it is very important that you respond as quickly and accurately as possible. 
Before you begin, please ensure that you are in a comfortable and quiet location and will not be disturbed for about 15 minutes, as we cannot use your data if you do not complete all the trials. 
There will be opportunities to take breaks at regular intervals during the experiment. When you are ready to start the experimental trials, please press space or touch the button below.",,,5df03fabc1ef790aa5595f8f,2020-11-27_15h13.37.905,lexical_decision_task_MP_exp2,2020.2.5,Linux armv7l,60,,,,,,,,,,,,,,,,,,,,,,,,0,0,0,0,1,,,,,,,,,,,,
,,,,,,,,,,,,,,,,,,5df03fabc1ef790aa5595f8f,2020-11-27_15h13.37.905,lexical_decision_task_MP_exp2,2020.2.5,Linux armv7l,60,,0,0.305,-0.27625,1,0,0,0.786,button_right,0.786,1,,,,,,126,WORD,UN,33,castle,ENOUGH,m,,,,,,0.305,-0.27625,1,0,0,,0,0,0,125,1,
,,,,,,,,,,,,,,,,,,5df03fabc1ef790aa5595f8f,2020-11-27_15h13.37.905,lexical_decision_task_MP_exp2,2020.2.5,Linux armv7l,60,,0,0.30875,-0.30875,1,0,0,0.629,button_right,0.629,1,,,,,,228,WORD,UN,16,inject,MASTER,m,,,,,,0.30875,-0.30875,1,0,0,,0,1,1,227,1,
,,,,,,,,,,,,,,,,,,5df03fabc1ef790aa5595f8f,2020-11-27_15h13.37.905,lexical_decision_task_MP_exp2,2020.2.5,Linux armv7l,60,,0,0.32625,-0.33,1,0,0,0.652,button_right,0.652,1,,,,,,21,WORD,"ID",33,simple,SIMPLE,m,,,,,,0.32625,-0.33,1,0,0,,0,2,2,20,1,
,,,,,,,,,,,,,,,,,,5df03fabc1ef790aa5595f8f,2020-11-27_15h13.37.905,lexical_decision_task_MP_exp2,2020.2.5,Linux armv7l,60,,0,0.3375,-0.345,1,0,0,0.709,button_right,0.709,1,,,,,,149,WORD,UN,33,random,INVADE,m,,,,,,0.3375,-0.345,1,0,0,,0,3,3,148,1,
,,,,,,,,,,,,,,,,,,5df03fabc1ef790aa5595f8f,2020-11-27_15h13.37.905,lexical_decision_task_MP_exp2,2020.2.5,Linux armv7l,60,,0,0.33375,-0.33125,1,0,0,0.682,button_right,0.682,1,,,,,,52,WORD,"ID",33,impose,IMPOSE,m,,,,,,0.33375,-0.33125,1,0,0,,0,4,4,51,1,
,,,,,,,,,,,,,,,,,,5df03fabc1ef790aa5595f8f,2020-11-27_15h13.37.905,lexical_decision_task_MP_exp2,2020.2.5,Linux armv7l,60,,0,0.35625,-0.34375,1,0,0,0.698,button_right,0.698,1,,,,,,96,WORD,"ID",16,ignore,IGNORE,m,,,,,,0.35625,-0.34375,1,0,0,,0,5,5,95,1,
,,,,,,,,,,,,,,,,,,5df03fabc1ef790aa5595f8f,2020-11-27_15h13.37.905,lexical_decision_task_MP_exp2,2020.2.5,Linux armv7l,60,,0,-0.37625,-0.3025,1,0,0,1.506,button_left,1.506,1,,,,,,268,NW,"ID",33,packes,PACKES,z,,,,,,-0.37625,-0.3025,1,0,0,,0,6,6,267,1,
,,,,,,,,,,,,,,,,,,5df03fabc1ef790aa5595f8f,2020-11-27_15h13.37.905,lexical_decision_task_MP_exp2,2020.2.5,Linux armv7l,60,,0,-0.32375,-0.27,1,0,0,1.021,button_left,1.021,1,,,,,,308,NW,"ID",16,psetch,PSETCH,z,,,,,,-0.32375,-0.27,1,0,0,,0,7,7,307,1,
,,,,,,,,,,,,,,,,,,5df03fabc1ef790aa5595f8f,2020-11-27_15h13.37.905,lexical_decision_task_MP_exp2,2020.2.5,Linux armv7l,60,,0,-0.35875,-0.27125,1,0,0,1.246,button_left,1.246,1,,,,,,437,NW,UN,16,baitch,SNAPEL,z,,,,,,-0.35875,-0.27125,1,0,0,,0,8,8,436,1,
,,,,,,,,,,,,,,,,,,5df03fabc1ef790aa5595f8f,2020-11-27_15h13.37.905,lexical_decision_task_MP_exp2,2020.2.5,Linux armv7l,60,,0,0.3125,-0.27,1,0,0,0.763,button_right,0.763,1,,,,,,31,WORD,"ID",33,weapon,WEAPON,m,,,,,,0.3125,-0.27,1,0,0,,0,9,9,30,1,
,,,,,,,,,,,,,,,,,,5df03fabc1ef790aa5595f8f,2020-11-27_15h13.37.905,lexical_decision_task_MP_exp2,2020.2.5,Linux armv7l,60,,0,0.36375,-0.315,1,0,0,0.641,button_right,0.641,1,,,,,,182,WORD,UN,16,basket,WINTER,m,,,,,,0.36375,-0.315,1,0,0,,0,10,10,181,1,
,,,,,,,,,,,,,,,,,,5df03fabc1ef790aa5595f8f,2020-11-27_15h13.37.905,lexical_decision_task_MP_exp2,2020.2.5,Linux armv7l,60,,0,0.3525,-0.32875,1,0,0,0.561,button_right,0.561,1,,,,,,223,WORD,UN,16,period,KIDNEY,m,,,,,,0.3525,-0.32875,1,0,0,,0,11,11,222,1,
,,,,,,,,,,,,,,,,,,5df03fabc1ef790aa5595f8f,2020-11-27_15h13.37.905,lexical_decision_task_MP_exp2,2020.2.5,Linux armv7l,60,,0,-0.36125,-0.255,1,0,0,0.919,button_left,0.919,1,,,,,,421,NW,UN,16,alcoud,KNISMA,z,,,,,,-0.36125,-0.255,1,0,0,,0,12,12,420,1,
,,,,,,,,,,,,,,,,,,5df03fabc1ef790aa5595f8f,2020-11-27_15h13.37.905,lexical_decision_task_MP_exp2,2020.2.5,Linux armv7l,60,,0,0.30625,-0.27875,1,0,0,0.765,button_right,0.765,1,,,,,,127,WORD,UN,33,senior,CASTLE,m,,,,,,0.30625,-0.27875,1,0,0,,0,13,13,126,1,
,,,,,,,,,,,,,,,,,,5df03fabc1ef790aa5595f8f,2020-11-27_15h13.37.905,lexical_decision_task_MP_exp2,2020.2.5,Linux armv7l,60,,0,-0.35875,-0.28875,1,0,0,1.028,button_left,1.028,1,,,,,,254,NW,"ID",33,varosh,VAROSH,z,,,,,,-0.35875,-0.28875,1,0,0,,0,14,14,253,1,
,,,,,,,,,,,,,,,,,,5df03fabc1ef790aa5595f8f,2020-11-27_15h13.37.905,lexical_decision_task_MP_exp2,2020.2.5,Linux armv7l,60,,0,,,,,,,,1.028,-1,,,,,,176,WORD,UN,33,advent,STRIFE,m,,,,,,0.2875,-0.27875,0,0,0,,0,15,15,175,1,
,,,,,,,,,,,,,,,,,,5df03fabc1ef790aa5595f8f,2020-11-27_15h13.37.905,lexical_decision_task_MP_exp2,2020.2.5,Linux armv7l,60,,0,0.335,-0.32,1,0,0,0.718,button_right,0.718,1,,,,,,196,WORD,UN,16,stream,CREDIT,m,,,,,,0.335,-0.32,1,0,0,,0,16,16,195,1,
,,,,,,,,,,,,,,,,,,5df03fabc1ef790aa5595f8f,2020-11-27_15h13.37.905,lexical_decision_task_MP_exp2,2020.2.5,Linux armv7l,60,,0,-0.37375,-0.2575,1,0,0,0.985,button_left,0.985,1,,,,,,243,NW,"ID",33,musied,MUSIED,z,,,,,,-0.37375,-0.2575,1,0,0,,0,17,17,242,1,
,,,,,,,,,,,,,,,,,,5df03fabc1ef790aa5595f8f,2020-11-27_15h13.37.905,lexical_decision_task_MP_exp2,2020.2.5,Linux armv7l,60,,0,-0.37625,-0.29,1,0,0,1.138,button_left,1.138,1,,,,,,358,NW,"ID",16,fleack,FLEACK,z,,,,,,-0.37625,-0.29,1,0,0,,0,18,18,357,1,
,,,,,,,,,,,,,,,,,,5df03fabc1ef790aa5595f8f,2020-11-27_15h13.37.905,lexical_decision_task_MP_exp2,2020.2.5,Linux armv7l,60,,0,0.30875,-0.2975,1,0,0,0.902,button_right,0.902,1,,,,,,13,WORD,"ID",33,strive,STRIVE,m,,,,,,0.30875,-0.2975,1,0,0,,0,19,19,12,1,
,,,,,,,,,,,,,,,,,,5df03fabc1ef790aa5595f8f,2020-11-27_15h13.37.905,lexical_decision_task_MP_exp2,2020.2.5,Linux armv7l,60,,0,0.34625,-0.28875,1,0,0,0.78,button_right,0.78,1,,,,,,222,WORD,UN,16,casino,HINDER,m,,,,,,0.34625,-0.28875,1,0,0,,0,20,20,221,1,
,,,,,,,,,,,,,,,,,,5df03fabc1ef790aa5595f8f,2020-11-27_15h13.37.905,lexical_decision_task_MP_exp2,2020.2.5,Linux armv7l,60,,0,-0.39875,-0.3,1,0,0,0.845,button_left,0.845,1,,,,,,329,NW,"ID",16,yarike,YARIKE,z,,,,,,-0.39875,-0.3,1,0,0,,0,21,21,328,1,
,,,,,,,,,,,,,,,,,,5df03fabc1ef790aa5595f8f,2020-11-27_15h13.37.905,lexical_decision_task_MP_exp2,2020.2.5,Linux armv7l,60,,0,-0.35375,-0.3075,1,0,0,0.881,button_left,0.881,1,,,,,,418,NW,UN,33,slount,SUIDLE,z,,,,,,-0.35375,-0.3075,1,0,0,,0,22,22,417,1,
,,,,,,,,,,,,,,,,,,5df03fabc1ef790aa5595f8f,2020-11-27_15h13.37.905,lexical_decision_task_MP_exp2,2020.2.5,Linux armv7l,60,,0,0.3425,-0.2875,1,0,0,0.977,button_right,0.977,1,,,,,,225,WORD,UN,16,kidney,VULGAR,m,,,,,,0.3425,-0.2875,1,0,0,,0,23,23,224,1,
,,,,,,,,,,,,,,,,,,5df03fabc1ef790aa5595f8f,2020-11-27_15h13.37.905,lexical_decision_task_MP_exp2,2020.2.5,Linux armv7l,60,,0,-0.38375,-0.2825,1,0,0,0.836,button_left,0.836,1,,,,,,339,NW,"ID",16,fachow,FACHOW,z,,,,,,-0.38375,-0.2825,1,0,0,,0,24,24,338,1,
,,,,,,,,,,,,,,,,,,5df03fabc1ef790aa5595f8f,2020-11-27_15h13.37.905,lexical_decision_task_MP_exp2,2020.2.5,Linux armv7l,60,,0,0.325,-0.2775,1,0,0,1.009,button_right,1.009,1,,,,,,45,WORD,"ID",33,clergy,CLERGY,m,,,,,,0.325,-0.2775,1,0,0,,0,25,25,44,1,
,,,,,,,,,,,,,,,,,,5df03fabc1ef790aa5595f8f,2020-11-27_15h13.37.905,lexical_decision_task_MP_exp2,2020.2.5,Linux armv7l,60,,0,-0.4025,-0.295,1,0,0,0.856,button_left,0.856,1,,,,,,316,NW,"ID",16,scregm,SCREGM,z,,,,,,-0.4025,-0.295,1,0,0,,0,26,26,315,1,
,,,,,,,,,,,,,,,,,,5df03fabc1ef790aa5595f8f,2020-11-27_15h13.37.905,lexical_decision_task_MP_exp2,2020.2.5,Linux armv7l,60,,0,0.29875,-0.25375,1,0,0,0.841,button_right,0.841,1,,,,,,197,WORD,UN,16,wicked,STREAM,m,,,,,,0.29875,-0.25375,1,0,0,,0,27,27,196,1,
,,,,,,,,,,,,,,,,,,5df03fabc1ef790aa5595f8f,2020-11-27_15h13.37.905,lexical_decision_task_MP_exp2,2020.2.5,Linux armv7l,60,,0,-0.3725,-0.3025,1,0,0,1.212,button_left,1.212,1,,,,,,368,NW,UN,33,wronch,HORNAL,z,,,,,,-0.3725,-0.3025,1,0,0,,0,28,28,367,1,
,,,,,,,,,,,,,,,,,,5df03fabc1ef790aa5595f8f,2020-11-27_15h13.37.905,lexical_decision_task_MP_exp2,2020.2.5,Linux armv7l,60,,0,0.29125,-0.26875,1,0,0,0.776,button_right,0.776,1,,,,,,164,WORD,UN,33,invest,MARKET,m,,,,,,0.29125,-0.26875,1,0,0,,0,29,29,163,1,
,,,,,,,,,,,,,,,,,,5df03fabc1ef790aa5595f8f,2020-11-27_15h13.37.905,lexical_decision_task_MP_exp2,2020.2.5,Linux armv7l,60,,0,0.2975,-0.295,1,0,0,0.654,button_right,0.654,1,,,,,,55,WORD,"ID",33,stroke,STROKE,m,,,,,,0.2975,-0.295,1,0,0,,0,30,30,54,1,
,,,,,,,,,,,,,,,,,,5df03fabc1ef790aa5595f8f,2020-11-27_15h13.37.905,lexical_decision_task_MP_exp2,2020.2.5,Linux armv7l,60,,0,0.29875,-0.31875,1,0,0,0.579,button_right,0.579,1,,,,,,62,WORD,"ID",16,region,REGION,m,,,,,,0.29875,-0.31875,1,0,0,,0,31,31,61,1,
,,,,,,,,,,,,,,,,,,5df03fabc1ef790aa5595f8f,2020-11-27_15h13.37.905,lexical_decision_task_MP_exp2,2020.2.5,Linux armv7l,60,,0,-0.3475,-0.31875,1,0,0,0.733,button_left,0.733,1,,,,,,375,NW,UN,33,iguare,YORQUE,z,,,,,,-0.3475,-0.31875,1,0,0,,0,32,32,374,1,
,,,,,,,,,,,,,,,,,,5df03fabc1ef790aa5595f8f,2020-11-27_15h13.37.905,lexical_decision_task_MP_exp2,2020.2.5,Linux armv7l,60,,0,-0.3925,-0.30375,1,0,0,0.899,button_left,0.899,1,,,,,,454,NW,UN,16,tondle,SCOUGE,z,,,,,,-0.3925,-0.30375,1,0,0,,0,33,33,453,1,
,,,,,,,,,,,,,,,,,,5df03fabc1ef790aa5595f8f,2020-11-27_15h13.37.905,lexical_decision_task_MP_exp2,2020.2.5,Linux armv7l,60,,0,0.3125,-0.27125,1,0,0,1.086,button_right,1.086,1,,,,,,151,WORD,UN,33,rocket,MYSTIC,m,,,,,,0.3125,-0.27125,1,0,0,,0,34,34,150,1,
,,,,,,,,,,,,,,,,,,5df03fabc1ef790aa5595f8f,2020-11-27_15h13.37.905,lexical_decision_task_MP_exp2,2020.2.5,Linux armv7l,60,,0,-0.41,-0.23375,1,0,0,1.677,button_left,1.677,1,,,,,,284,NW,"ID",33,shaple,SHAPLE,z,,,,,,-0.41,-0.23375,1,0,0,,0,35,35,283,1,
,,,,,,,,,,,,,,,,,,5df03fabc1ef790aa5595f8f,2020-11-27_15h13.37.905,lexical_decision_task_MP_exp2,2020.2.5,Linux armv7l,60,,0,0.295,-0.3025,1,0,0,0.809,button_right,0.809,1,,,,,,27,WORD,"ID",33,scream,SCREAM,m,,,,,,0.295,-0.3025,1,0,0,,0,36,36,26,1,
,,,,,,,,,,,,,,,,,,5df03fabc1ef790aa5595f8f,2020-11-27_15h13.37.905,lexical_decision_task_MP_exp2,2020.2.5,Linux armv7l,60,,0,-0.34875,-0.275,1,0,0,0.968,button_left,0.968,1,,,,,,247,NW,"ID",33,blarge,BLARGE,z,,,,,,-0.34875,-0.275,1,0,0,,0,37,37,246,1,
,,,,,,,,,,,,,,,,,,5df03fabc1ef790aa5595f8f,2020-11-27_15h13.37.905,lexical_decision_task_MP_exp2,2020.2.5,Linux armv7l,60,,0,-0.3475,-0.30375,1,0,0,0.729,button_left,0.729,1,,,,,,467,NW,UN,16,wictor,GORBIE,z,,,,,,-0.3475,-0.30375,1,0,0,,0,38,38,466,1,
,,,,,,,,,,,,,,,,,,5df03fabc1ef790aa5595f8f,2020-11-27_15h13.37.905,lexical_decision_task_MP_exp2,2020.2.5,Linux armv7l,60,,0,-0.35,-0.295,1,0,0,0.783,button_left,0.783,1,,,,,,382,NW,UN,33,aungre,SARLEY,z,,,,,,-0.35,-0.295,1,0,0,,0,39,39,381,1,
,,,,,,,,,,,,,,,,,,5df03fabc1ef790aa5595f8f,2020-11-27_15h13.37.905,lexical_decision_task_MP_exp2,2020.2.5,Linux armv7l,60,,0,0.28875,-0.2825,1,0,0,0.87,button_right,0.87,1,,,,,,217,WORD,UN,16,shrink,LIQUOR,m,,,,,,0.28875,-0.2825,1,0,0,,0,40,40,216,1,
,,,,,,,,,,,,,,,,,,5df03fabc1ef790aa5595f8f,2020-11-27_15h13.37.905,lexical_decision_task_MP_exp2,2020.2.5,Linux armv7l,60,,0,0.2925,-0.29875,1,0,0,0.716,button_right,0.716,0,,,,,,273,NW,"ID",33,sortel,SORTEL,z,,,,,,0.2925,-0.29875,1,0,0,,0,41,41,272,1,
,,,,,,,,,,,,,,,,,,5df03fabc1ef790aa5595f8f,2020-11-27_15h13.37.905,lexical_decision_task_MP_exp2,2020.2.5,Linux armv7l,60,,0,0.30625,-0.315,1,0,0,0.566,button_right,0.566,1,,,,,,233,WORD,UN,16,clumsy,NATURE,m,,,,,,0.30625,-0.315,1,0,0,,0,42,42,232,1,
,,,,,,,,,,,,,,,,,,5df03fabc1ef790aa5595f8f,2020-11-27_15h13.37.905,lexical_decision_task_MP_exp2,2020.2.5,Linux armv7l,60,,0,0.30875,-0.29,1,0,0,0.951,button_right,0.951,1,,,,,,234,WORD,UN,16,lumber,CLUMSY,m,,,,,,0.30875,-0.29,1,0,0,,0,43,43,233,1,
,,,,,,,,,,,,,,,,,,5df03fabc1ef790aa5595f8f,2020-11-27_15h13.37.905,lexical_decision_task_MP_exp2,2020.2.5,Linux armv7l,60,,0,0.33125,-0.3025,1,0,0,0.787,button_right,0.787,1,,,,,,85,WORD,"ID",16,sprawl,SPRAWL,m,,,,,,0.33125,-0.3025,1,0,0,,0,44,44,84,1,
,,,,,,,,,,,,,,,,,,5df03fabc1ef790aa5595f8f,2020-11-27_15h13.37.905,lexical_decision_task_MP_exp2,2020.2.5,Linux armv7l,60,,0,0.32375,-0.305,1,0,0,0.539,button_right,0.539,1,,,,,,124,WORD,UN,33,nickel,BLOUSE,m,,,,,,0.32375,-0.305,1,0,0,,0,45,45,123,1,
,,,,,,,,,,,,,,,,,,5df03fabc1ef790aa5595f8f,2020-11-27_15h13.37.905,lexical_decision_task_MP_exp2,2020.2.5,Linux armv7l,60,,0,-0.38375,-0.27875,1,0,0,1.101,button_left,1.101,1,,,,,,314,NW,"ID",16,sprine,SPRINE,z,,,,,,-0.38375,-0.27875,1,0,0,,0,46,46,313,1,
,,,,,,,,,,,,,,,,,,5df03fabc1ef790aa5595f8f,2020-11-27_15h13.37.905,lexical_decision_task_MP_exp2,2020.2.5,Linux armv7l,60,,0,0.27375,-0.30375,1,0,0,1,button_right,1,1,,,,,,184,WORD,UN,16,bother,SLEAZY,m,,,,,,0.27375,-0.30375,1,0,0,,0,47,47,183,1,
,,,,,,,,,,,,,,,,,,5df03fabc1ef790aa5595f8f,2020-11-27_15h13.37.905,lexical_decision_task_MP_exp2,2020.2.5,Linux armv7l,60,,0,-0.40625,-0.29625,1,0,0,0.797,button_left,0.797,1,,,,,,389,NW,UN,33,hatrus,WITMER,z,,,,,,-0.40625,-0.29625,1,0,0,,0,48,48,388,1,
,,,,,,,,,,,,,,,,,,5df03fabc1ef790aa5595f8f,2020-11-27_15h13.37.905,lexical_decision_task_MP_exp2,2020.2.5,Linux armv7l,60,,0,-0.345,-0.26625,1,0,0,0.98,button_left,0.98,1,,,,,,448,NW,UN,16,brunge,SADENT,z,,,,,,-0.345,-0.26625,1,0,0,,0,49,49,447,1,
,,,,,,,,,,,,,,,,,,5df03fabc1ef790aa5595f8f,2020-11-27_15h13.37.905,lexical_decision_task_MP_exp2,2020.2.5,Linux armv7l,60,,0,0.2725,-0.27875,1,0,0,0.902,button_right,0.902,1,,,,,,237,WORD,UN,16,seldom,POSTER,m,,,,,,0.2725,-0.27875,1,0,0,,0,50,50,236,1,
,,,,,,,,,,,,,,,,,,5df03fabc1ef790aa5595f8f,2020-11-27_15h13.37.905,lexical_decision_task_MP_exp2,2020.2.5,Linux armv7l,60,,0,-0.3475,-0.27125,1,0,0,0.82,button_left,0.82,1,,,,,,253,NW,"ID",33,resait,RESAIT,z,,,,,,-0.3475,-0.27125,1,0,0,,0,51,51,252,1,
,,,,,,,,,,,,,,,,,,5df03fabc1ef790aa5595f8f,2020-11-27_15h13.37.905,lexical_decision_task_MP_exp2,2020.2.5,Linux armv7l,60,,0,0.29125,-0.27375,1,0,0,0.728,button_right,0.728,1,,,,,,53,WORD,"ID",33,police,POLICE,m,,,,,,0.29125,-0.27375,1,0,0,,0,52,52,52,1,
,,,,,,,,,,,,,,,,,,5df03fabc1ef790aa5595f8f,2020-11-27_15h13.37.905,lexical_decision_task_MP_exp2,2020.2.5,Linux armv7l,60,,0,0.305,-0.29375,1,0,0,0.707,button_right,0.707,1,,,,,,63,WORD,"ID",16,launch,LAUNCH,m,,,,,,0.305,-0.29375,1,0,0,,0,53,53,62,1,
,,,,,,,,,,,,,,,,,,5df03fabc1ef790aa5595f8f,2020-11-27_15h13.37.905,lexical_decision_task_MP_exp2,2020.2.5,Linux armv7l,60,,0,-0.36375,-0.29875,1,0,0,0.733,button_left,0.733,1,,,,,,246,NW,"ID",33,piaton,PIATON,z,,,,,,-0.36375,-0.29875,1,0,0,,0,54,54,245,1,
,,,,,,,,,,,,,,,,,,5df03fabc1ef790aa5595f8f,2020-11-27_15h13.37.905,lexical_decision_task_MP_exp2,2020.2.5,Linux armv7l,60,,0,0.29625,-0.3125,1,0,0,1.485,button_right,1.485,1,,,,,,139,WORD,UN,33,prince,DEBRIS,m,,,,,,0.29625,-0.3125,1,0,0,,0,55,55,138,1,
,,,,,,,,,,,,,,,,,,5df03fabc1ef790aa5595f8f,2020-11-27_15h13.37.905,lexical_decision_task_MP_exp2,2020.2.5,Linux armv7l,60,,0,-0.37125,-0.30875,1,0,0,1.929,button_left,1.929,1,,,,,,342,NW,"ID",16,randow,RANDOW,z,,,,,,-0.37125,-0.30875,1,0,0,,0,56,56,341,1,
,,,,,,,,,,,,,,,,,,5df03fabc1ef790aa5595f8f,2020-11-27_15h13.37.905,lexical_decision_task_MP_exp2,2020.2.5,Linux armv7l,60,,0,0.285,-0.28125,1,0,0,0.914,button_right,0.914,1,,,,,,67,WORD,"ID",16,policy,POLICY,m,,,,,,0.285,-0.28125,1,0,0,,0,57,57,66,1,
,,,,,,,,,,,,,,,,,,5df03fabc1ef790aa5595f8f,2020-11-27_15h13.37.905,lexical_decision_task_MP_exp2,2020.2.5,Linux armv7l,60,,0,-0.3475,-0.2875,1,0,0,0.992,button_left,0.992,1,,,,,,323,NW,"ID",16,rosail,ROSAIL,z,,,,,,-0.3475,-0.2875,1,0,0,,0,58,58,322,1,
,,,,,,,,,,,,,,,,,,5df03fabc1ef790aa5595f8f,2020-11-27_15h13.37.905,lexical_decision_task_MP_exp2,2020.2.5,Linux armv7l,60,,0,0.30875,-0.27375,1,0,0,0.941,button_right,0.941,1,,,,,,86,WORD,"ID",16,rodent,RODENT,m,,,,,,0.30875,-0.27375,1,0,0,,0,59,59,85,1,
,,,,,,,,,,,,,,,,,,5df03fabc1ef790aa5595f8f,2020-11-27_15h13.37.905,lexical_decision_task_MP_exp2,2020.2.5,Linux armv7l,60,,0,0.30625,-0.30375,1,0,0,0.737,button_right,0.737,1,,,,,,61,WORD,"ID",16,ponder,PONDER,m,,,,,,0.30625,-0.30375,1,0,0,,0,60,60,60,1,
,,,,,,,,,,,,,,,,,,5df03fabc1ef790aa5595f8f,2020-11-27_15h13.37.905,lexical_decision_task_MP_exp2,2020.2.5,Linux armv7l,60,,0,-0.39125,-0.3025,1,0,0,0.812,button_left,0.812,1,,,,,,351,NW,"ID",16,tiesch,TIESCH,z,,,,,,-0.39125,-0.3025,1,0,0,,0,61,61,350,1,
,,,,,,,,,,,,,,,,,,5df03fabc1ef790aa5595f8f,2020-11-27_15h13.37.905,lexical_decision_task_MP_exp2,2020.2.5,Linux armv7l,60,,0,-0.3625,-0.29375,1,0,0,0.784,button_left,0.784,1,,,,,,457,NW,UN,16,barcet,WANIGH,z,,,,,,-0.3625,-0.29375,1,0,0,,0,62,62,456,1,
,,,,,,,,,,,,,,,,,,5df03fabc1ef790aa5595f8f,2020-11-27_15h13.37.905,lexical_decision_task_MP_exp2,2020.2.5,Linux armv7l,60,,0,0.3125,-0.26875,1,0,0,0.935,button_right,0.935,0,,,,,,248,NW,"ID",33,strole,STROLE,z,,,,,,0.3125,-0.26875,1,0,0,,0,63,63,247,1,
,,,,,,,,,,,,,,,,,,5df03fabc1ef790aa5595f8f,2020-11-27_15h13.37.905,lexical_decision_task_MP_exp2,2020.2.5,Linux armv7l,60,,0,0.32625,-0.285,1,0,0,0.783,button_right,0.783,1,,,,,,134,WORD,UN,33,import,STAPLE,m,,,,,,0.32625,-0.285,1,0,0,,0,64,64,133,1,
,,,,,,,,,,,,,,,,,,5df03fabc1ef790aa5595f8f,2020-11-27_15h13.37.905,lexical_decision_task_MP_exp2,2020.2.5,Linux armv7l,60,,0,0.30875,-0.29875,1,0,0,0.633,button_right,0.633,1,,,,,,143,WORD,UN,33,sponge,REASON,m,,,,,,0.30875,-0.29875,1,0,0,,0,65,65,142,1,
,,,,,,,,,,,,,,,,,,5df03fabc1ef790aa5595f8f,2020-11-27_15h13.37.905,lexical_decision_task_MP_exp2,2020.2.5,Linux armv7l,60,,0,0.325,-0.3,1,0,0,0.705,button_right,0.705,1,,,,,,115,WORD,"ID",16,guitar,GUITAR,m,,,,,,0.325,-0.3,1,0,0,,0,66,66,114,1,
,,,,,,,,,,,,,,,,,,5df03fabc1ef790aa5595f8f,2020-11-27_15h13.37.905,lexical_decision_task_MP_exp2,2020.2.5,Linux armv7l,60,,0,-0.39875,-0.295,1,0,0,0.777,button_left,0.777,1,,,,,,390,NW,UN,33,theldy,HATRUS,z,,,,,,-0.39875,-0.295,1,0,0,,0,67,67,389,1,
,,,,,,,,,,,,,,,,,,5df03fabc1ef790aa5595f8f,2020-11-27_15h13.37.905,lexical_decision_task_MP_exp2,2020.2.5,Linux armv7l,60,,0,0.29875,-0.305,1,0,0,0.905,button_right,0.905,1,,,,,,46,WORD,"ID",33,single,SINGLE,m,,,,,,0.29875,-0.305,1,0,0,,0,68,68,45,1,
,,,,,,,,,,,,,,,,,,5df03fabc1ef790aa5595f8f,2020-11-27_15h13.37.905,lexical_decision_task_MP_exp2,2020.2.5,Linux armv7l,60,,0,-0.36125,-0.30875,1,0,0,0.721,button_left,0.721,1,,,,,,449,NW,UN,16,phrect,BRUNGE,z,,,,,,-0.36125,-0.30875,1,0,0,,0,69,69,448,1,
,,,,,,,,,,,,,,,,,,5df03fabc1ef790aa5595f8f,2020-11-27_15h13.37.905,lexical_decision_task_MP_exp2,2020.2.5,Linux armv7l,60,,0,-0.36625,-0.2925,1,0,0,1.118,button_left,1.118,1,,,,,,409,NW,UN,33,tunory,ELOPIA,z,,,,,,-0.36625,-0.2925,1,0,0,,0,70,70,408,1,
,,,,,,,,,,,,,,,,,,5df03fabc1ef790aa5595f8f,2020-11-27_15h13.37.905,lexical_decision_task_MP_exp2,2020.2.5,Linux armv7l,60,,0,0.28875,-0.2725,1,0,0,0.81,button_right,0.81,1,,,,,,18,WORD,"ID",33,humble,HUMBLE,m,,,,,,0.28875,-0.2725,1,0,0,,0,71,71,17,1,
,,,,,,,,,,,,,,,,,,5df03fabc1ef790aa5595f8f,2020-11-27_15h13.37.905,lexical_decision_task_MP_exp2,2020.2.5,Linux armv7l,60,,0,0.28875,-0.27,1,0,0,0.75,button_right,0.75,1,,,,,,60,WORD,"ID",33,pencil,PENCIL,m,,,,,,0.28875,-0.27,1,0,0,,0,72,72,59,1,
,,,,,,,,,,,,,,,,,,5df03fabc1ef790aa5595f8f,2020-11-27_15h13.37.905,lexical_decision_task_MP_exp2,2020.2.5,Linux armv7l,60,,0,-0.375,-0.29625,1,0,0,1.104,button_left,1.104,1,,,,,,476,NW,UN,16,photie,JOSTED,z,,,,,,-0.375,-0.29625,1,0,0,,0,73,73,475,1,
,,,,,,,,,,,,,,,,,,5df03fabc1ef790aa5595f8f,2020-11-27_15h13.37.905,lexical_decision_task_MP_exp2,2020.2.5,Linux armv7l,60,,0,0.28875,-0.27375,1,0,0,0.885,button_right,0.885,1,,,,,,235,WORD,UN,16,pirate,GRUMPY,m,,,,,,0.28875,-0.27375,1,0,0,,0,74,74,234,1,
,,,,,,,,,,,,,,,,,,5df03fabc1ef790aa5595f8f,2020-11-27_15h13.37.905,lexical_decision_task_MP_exp2,2020.2.5,Linux armv7l,60,,0,-0.35875,-0.29125,1,0,0,0.791,button_left,0.791,1,,,,,,461,NW,UN,16,absult,JUSTRE,z,,,,,,-0.35875,-0.29125,1,0,0,,0,75,75,460,1,
,,,,,,,,,,,,,,,,,,5df03fabc1ef790aa5595f8f,2020-11-27_15h13.37.905,lexical_decision_task_MP_exp2,2020.2.5,Linux armv7l,60,,0,0.245,-0.27875,1,0,0,0.9,button_right,0.9,1,,,,,,218,WORD,UN,16,bucket,SHRINK,m,,,,,,0.245,-0.27875,1,0,0,,0,76,76,217,1,
,,,,,,,,,,,,,,,,,,5df03fabc1ef790aa5595f8f,2020-11-27_15h13.37.905,lexical_decision_task_MP_exp2,2020.2.5,Linux armv7l,60,,0,-0.34875,-0.2775,1,0,0,0.67,button_left,0.67,1,,,,,,267,NW,"ID",33,pasink,PASINK,z,,,,,,-0.34875,-0.2775,1,0,0,,0,77,77,266,1,
,,,,,,,,,,,,,,,,,,5df03fabc1ef790aa5595f8f,2020-11-27_15h13.37.905,lexical_decision_task_MP_exp2,2020.2.5,Linux armv7l,60,,0,-0.35375,-0.3,1,0,0,1.132,button_left,1.132,1,,,,,,413,NW,UN,33,serbol,EQUATS,z,,,,,,-0.35375,-0.3,1,0,0,,0,78,78,412,1,
,,,,,,,,,,,,,,,,,,5df03fabc1ef790aa5595f8f,2020-11-27_15h13.37.905,lexical_decision_task_MP_exp2,2020.2.5,Linux armv7l,60,,0,,,,,,,,1.132,-1,,,,,,68,WORD,"ID",16,fumble,FUMBLE,m,,,,,,0.33625,-0.28875,0,0,0,,0,79,79,67,1,
,,,,,,,,,,,,,,,,,,5df03fabc1ef790aa5595f8f,2020-11-27_15h13.37.905,lexical_decision_task_MP_exp2,2020.2.5,Linux armv7l,60,,0,-0.375,-0.29375,1,0,0,0.993,button_left,0.993,1,,,,,,313,NW,"ID",16,paurse,PAURSE,z,,,,,,-0.375,-0.29375,1,0,0,,0,80,80,312,1,
,,,,,,,,,,,,,,,,,,5df03fabc1ef790aa5595f8f,2020-11-27_15h13.37.905,lexical_decision_task_MP_exp2,2020.2.5,Linux armv7l,60,,0,0.33625,-0.3,1,0,0,0.925,button_right,0.925,1,,,,,,72,WORD,"ID",16,bright,BRIGHT,m,,,,,,0.33625,-0.3,1,0,0,,0,81,81,71,1,
,,,,,,,,,,,,,,,,,,5df03fabc1ef790aa5595f8f,2020-11-27_15h13.37.905,lexical_decision_task_MP_exp2,2020.2.5,Linux armv7l,60,,0,0.31375,-0.30375,1,0,0,0.66,button_right,0.66,1,,,,,,102,WORD,"ID",16,direct,DIRECT,m,,,,,,0.31375,-0.30375,1,0,0,,0,82,82,101,1,
,,,,,,,,,,,,,,,,,,5df03fabc1ef790aa5595f8f,2020-11-27_15h13.37.905,lexical_decision_task_MP_exp2,2020.2.5,Linux armv7l,60,,0,-0.36875,-0.29,1,0,0,0.72,button_left,0.72,1,,,,,,281,NW,"ID",33,melaty,MELATY,z,,,,,,-0.36875,-0.29,1,0,0,,0,83,83,280,1,
,,,,,,,,,,,,,,,,,,5df03fabc1ef790aa5595f8f,2020-11-27_15h13.37.905,lexical_decision_task_MP_exp2,2020.2.5,Linux armv7l,60,,0,-0.38375,-0.295,1,0,0,0.623,button_left,0.623,1,,,,,,256,NW,"ID",33,inlors,INLORS,z,,,,,,-0.38375,-0.295,1,0,0,,0,84,84,255,1,
,,,,,,,,,,,,,,,,,,5df03fabc1ef790aa5595f8f,2020-11-27_15h13.37.905,lexical_decision_task_MP_exp2,2020.2.5,Linux armv7l,60,,0,-0.38,-0.31,1,0,0,0.024,button_left,0.024,0,,,,,,121,WORD,UN,33,linger,THRIVE,m,,,,,,-0.38,-0.31,1,0,0,,0,85,85,120,1,
,,,,,,,,,,,,,,,,,,5df03fabc1ef790aa5595f8f,2020-11-27_15h13.37.905,lexical_decision_task_MP_exp2,2020.2.5,Linux armv7l,60,,0,0.30625,-0.32,1,0,0,1.01,button_right,1.01,1,,,,,,227,WORD,UN,16,master,SELDOM,m,,,,,,0.30625,-0.32,1,0,0,,0,86,86,226,1,
,,,,,,,,,,,,,,,,,,5df03fabc1ef790aa5595f8f,2020-11-27_15h13.37.905,lexical_decision_task_MP_exp2,2020.2.5,Linux armv7l,60,,0,-0.38625,-0.31375,1,0,0,1,button_left,1,1,,,,,,325,NW,"ID",16,thruse,THRUSE,z,,,,,,-0.38625,-0.31375,1,0,0,,0,87,87,324,1,
,,,,,,,,,,,,,,,,,,5df03fabc1ef790aa5595f8f,2020-11-27_15h13.37.905,lexical_decision_task_MP_exp2,2020.2.5,Linux armv7l,60,,0,0.30375,-0.28375,1,0,0,0.947,button_right,0.947,1,,,,,,22,WORD,"ID",33,jockey,JOCKEY,m,,,,,,0.30375,-0.28375,1,0,0,,0,88,88,21,1,
,,,,,,,,,,,,,,,,,,5df03fabc1ef790aa5595f8f,2020-11-27_15h13.37.905,lexical_decision_task_MP_exp2,2020.2.5,Linux armv7l,60,,0,-0.38625,-0.2975,1,0,0,1.124,button_left,1.124,1,,,,,,377,NW,UN,33,shrile,INJORE,z,,,,,,-0.38625,-0.2975,1,0,0,,0,89,89,376,1,
,,,,,,,,,,,,,,,,,,5df03fabc1ef790aa5595f8f,2020-11-27_15h13.37.905,lexical_decision_task_MP_exp2,2020.2.5,Linux armv7l,60,,0,0.2875,-0.30125,1,0,0,0.869,button_right,0.869,1,,,,,,128,WORD,UN,33,marvel,SENIOR,m,,,,,,0.2875,-0.30125,1,0,0,,0,90,90,127,1,
,,,,,,,,,,,,,,,,,,5df03fabc1ef790aa5595f8f,2020-11-27_15h13.37.905,lexical_decision_task_MP_exp2,2020.2.5,Linux armv7l,60,,0,-0.3425,-0.33875,1,0,0,1.267,button_left,1.267,1,,,,,,383,NW,UN,33,guesco,AUNGRE,z,,,,,,-0.3425,-0.33875,1,0,0,,0,91,91,382,1,
,,,,,,,,,,,,,,,,,,5df03fabc1ef790aa5595f8f,2020-11-27_15h13.37.905,lexical_decision_task_MP_exp2,2020.2.5,Linux armv7l,60,,0,0.3525,-0.28875,1,0,0,0.789,button_right,0.789,1,,,,,,119,WORD,"ID",16,spider,SPIDER,m,,,,,,0.3525,-0.28875,1,0,0,,0,92,92,118,1,
,,,,,,,,,,,,,,,,,,5df03fabc1ef790aa5595f8f,2020-11-27_15h13.37.905,lexical_decision_task_MP_exp2,2020.2.5,Linux armv7l,60,,0,0.37125,-0.29625,1,0,0,0.912,button_right,0.912,1,,,,,,236,WORD,UN,16,poster,PIRATE,m,,,,,,0.37125,-0.29625,1,0,0,,0,93,93,235,1,
,,,,,,,,,,,,,,,,,,5df03fabc1ef790aa5595f8f,2020-11-27_15h13.37.905,lexical_decision_task_MP_exp2,2020.2.5,Linux armv7l,60,,0,0.35625,-0.295,1,0,0,0.643,button_right,0.643,1,,,,,,29,WORD,"ID",33,sketch,SKETCH,m,,,,,,0.35625,-0.295,1,0,0,,0,94,94,28,1,
,,,,,,,,,,,,,,,,,,5df03fabc1ef790aa5595f8f,2020-11-27_15h13.37.905,lexical_decision_task_MP_exp2,2020.2.5,Linux armv7l,60,,0,0.375,-0.2775,1,0,0,0.874,button_right,0.874,1,,,,,,155,WORD,UN,33,cradle,LIZARD,m,,,,,,0.375,-0.2775,1,0,0,,0,95,95,154,1,
,,,,,,,,,,,,,,,,,,5df03fabc1ef790aa5595f8f,2020-11-27_15h13.37.905,lexical_decision_task_MP_exp2,2020.2.5,Linux armv7l,60,,0,0.35625,-0.3125,1,0,0,0.674,button_right,0.674,1,,,,,,6,WORD,"ID",33,bundle,BUNDLE,m,,,,,,0.35625,-0.3125,1,0,0,,0,96,96,5,1,
,,,,,,,,,,,,,,,,,,5df03fabc1ef790aa5595f8f,2020-11-27_15h13.37.905,lexical_decision_task_MP_exp2,2020.2.5,Linux armv7l,60,,0,-0.3925,-0.255,1,0,0,0.817,button_left,0.817,1,,,,,,480,NW,UN,16,knisma,ROBULY,z,,,,,,-0.3925,-0.255,1,0,0,,0,97,97,479,1,
,,,,,,,,,,,,,,,,,,5df03fabc1ef790aa5595f8f,2020-11-27_15h13.37.905,lexical_decision_task_MP_exp2,2020.2.5,Linux armv7l,60,,0,-0.36375,-0.2575,1,0,0,0.68,button_left,0.68,1,,,,,,276,NW,"ID",33,yarmon,YARMON,z,,,,,,-0.36375,-0.2575,1,0,0,,0,98,98,275,1,
,,,,,,,,,,,,,,,,,,5df03fabc1ef790aa5595f8f,2020-11-27_15h13.37.905,lexical_decision_task_MP_exp2,2020.2.5,Linux armv7l,60,,0,-0.35125,-0.26,1,0,0,0.778,button_left,0.778,1,,,,,,400,NW,UN,33,mustil,WEAROX,z,,,,,,-0.35125,-0.26,1,0,0,,0,99,99,399,1,
,,,,,,,,,,,,,,,,,,5df03fabc1ef790aa5595f8f,2020-11-27_15h13.37.905,lexical_decision_task_MP_exp2,2020.2.5,Linux armv7l,60,,0,-0.34375,-0.26125,1,0,0,0.749,button_left,0.749,1,,,,,,324,NW,"ID",16,steikh,STEIKH,z,,,,,,-0.34375,-0.26125,1,0,0,,0,100,100,323,1,
,,,,,,,,,,,,,,,,,,5df03fabc1ef790aa5595f8f,2020-11-27_15h13.37.905,lexical_decision_task_MP_exp2,2020.2.5,Linux armv7l,60,,0,0.35875,-0.2575,1,0,0,0.945,button_right,0.945,1,,,,,,211,WORD,UN,16,verify,INFECT,m,,,,,,0.35875,-0.2575,1,0,0,,0,101,101,210,1,
,,,,,,,,,,,,,,,,,,5df03fabc1ef790aa5595f8f,2020-11-27_15h13.37.905,lexical_decision_task_MP_exp2,2020.2.5,Linux armv7l,60,,0,0.35625,-0.27875,1,0,0,0.907,button_right,0.907,1,,,,,,8,WORD,"ID",33,abrupt,ABRUPT,m,,,,,,0.35625,-0.27875,1,0,0,,0,102,102,7,1,
,,,,,,,,,,,,,,,,,,5df03fabc1ef790aa5595f8f,2020-11-27_15h13.37.905,lexical_decision_task_MP_exp2,2020.2.5,Linux armv7l,60,,0,0.35125,-0.29375,1,0,0,0.83,button_right,0.83,1,,,,,,230,WORD,UN,16,export,FRINGE,m,,,,,,0.35125,-0.29375,1,0,0,,0,103,103,229,1,
,,,,,,,,,,,,,,,,,,5df03fabc1ef790aa5595f8f,2020-11-27_15h13.37.905,lexical_decision_task_MP_exp2,2020.2.5,Linux armv7l,60,,0,-0.3625,-0.295,1,0,0,1.018,button_left,1.018,1,,,,,,261,NW,"ID",33,stunch,STUNCH,z,,,,,,-0.3625,-0.295,1,0,0,,0,104,104,260,1,
,,,,,,,,,,,,,,,,,,5df03fabc1ef790aa5595f8f,2020-11-27_15h13.37.905,lexical_decision_task_MP_exp2,2020.2.5,Linux armv7l,60,,0,-0.3625,-0.2725,1,0,0,0.815,button_left,0.815,1,,,,,,340,NW,"ID",16,fiatch,FIATCH,z,,,,,,-0.3625,-0.2725,1,0,0,,0,105,105,339,1,
,,,,,,,,,,,,,,,,,,5df03fabc1ef790aa5595f8f,2020-11-27_15h13.37.905,lexical_decision_task_MP_exp2,2020.2.5,Linux armv7l,60,,0,-0.3575,-0.26625,1,0,0,1.048,button_left,1.048,1,,,,,,440,NW,UN,16,cainky,SARIDE,z,,,,,,-0.3575,-0.26625,1,0,0,,0,106,106,439,1,
,,,,,,,,,,,,,,,,,,5df03fabc1ef790aa5595f8f,2020-11-27_15h13.37.905,lexical_decision_task_MP_exp2,2020.2.5,Linux armv7l,60,,0,0.31125,-0.275,1,0,0,0.892,button_right,0.892,1,,,,,,3,WORD,"ID",33,knight,KNIGHT,m,,,,,,0.31125,-0.275,1,0,0,,0,107,107,2,1,
,,,,,,,,,,,,,,,,,,5df03fabc1ef790aa5595f8f,2020-11-27_15h13.37.905,lexical_decision_task_MP_exp2,2020.2.5,Linux armv7l,60,,0,0.36,-0.28,1,0,0,1.388,button_right,1.388,0,,,,,,321,NW,"ID",16,miator,MIATOR,z,,,,,,0.36,-0.28,1,0,0,,0,108,108,320,1,
,,,,,,,,,,,,,,,,,,5df03fabc1ef790aa5595f8f,2020-11-27_15h13.37.905,lexical_decision_task_MP_exp2,2020.2.5,Linux armv7l,60,,0,0.355,-0.28,1,0,0,0.89,button_right,0.89,1,,,,,,238,WORD,UN,16,grumpy,FLOWER,m,,,,,,0.355,-0.28,1,0,0,,0,109,109,237,1,
,,,,,,,,,,,,,,,,,,5df03fabc1ef790aa5595f8f,2020-11-27_15h13.37.905,lexical_decision_task_MP_exp2,2020.2.5,Linux armv7l,60,,0,0.35125,-0.29375,1,0,0,0.591,button_right,0.591,1,,,,,,80,WORD,"ID",16,family,FAMILY,m,,,,,,0.35125,-0.29375,1,0,0,,0,110,110,79,1,
,,,,,,,,,,,,,,,,,,5df03fabc1ef790aa5595f8f,2020-11-27_15h13.37.905,lexical_decision_task_MP_exp2,2020.2.5,Linux armv7l,60,,0,-0.3625,-0.28625,1,0,0,1.122,button_left,1.122,1,,,,,,470,NW,UN,16,nobest,CRUDIO,z,,,,,,-0.3625,-0.28625,1,0,0,,0,111,111,469,1,
,,,,,,,,,,,,,,,,,,5df03fabc1ef790aa5595f8f,2020-11-27_15h13.37.905,lexical_decision_task_MP_exp2,2020.2.5,Linux armv7l,60,,0,0.3075,-0.29625,1,0,0,0.973,button_right,0.973,1,,,,,,56,WORD,"ID",33,ambush,AMBUSH,m,,,,,,0.3075,-0.29625,1,0,0,,0,112,112,55,1,
,,,,,,,,,,,,,,,,,,5df03fabc1ef790aa5595f8f,2020-11-27_15h13.37.905,lexical_decision_task_MP_exp2,2020.2.5,Linux armv7l,60,,0,0.31125,-0.2925,1,0,0,0.901,button_right,0.901,1,,,,,,183,WORD,UN,16,sleazy,MILDEW,m,,,,,,0.31125,-0.2925,1,0,0,,0,113,113,182,1,
,,,,,,,,,,,,,,,,,,5df03fabc1ef790aa5595f8f,2020-11-27_15h13.37.905,lexical_decision_task_MP_exp2,2020.2.5,Linux armv7l,60,,0,-0.35625,-0.26375,1,0,0,1.045,button_left,1.045,1,,,,,,307,NW,"ID",16,kirafe,KIRAFE,z,,,,,,-0.35625,-0.26375,1,0,0,,0,114,114,306,1,
,,,,,,,,,,,,,,,,,,5df03fabc1ef790aa5595f8f,2020-11-27_15h13.37.905,lexical_decision_task_MP_exp2,2020.2.5,Linux armv7l,60,,0,-0.35,-0.27125,1,0,0,0.838,button_left,0.838,1,,,,,,420,NW,UN,33,pauche,GUSHOP,z,,,,,,-0.35,-0.27125,1,0,0,,0,115,115,419,1,
,,,,,,,,,,,,,,,,,,5df03fabc1ef790aa5595f8f,2020-11-27_15h13.37.905,lexical_decision_task_MP_exp2,2020.2.5,Linux armv7l,60,,0,-0.3575,-0.27,1,0,0,0.893,button_left,0.893,1,,,,,,438,NW,UN,16,limpor,BAITCH,z,,,,,,-0.3575,-0.27,1,0,0,,0,116,116,437,1,
,,,,,,,,,,,,,,,,,,5df03fabc1ef790aa5595f8f,2020-11-27_15h13.37.905,lexical_decision_task_MP_exp2,2020.2.5,Linux armv7l,60,,0,-0.3625,-0.26875,1,0,0,0.972,button_left,0.972,1,,,,,,443,NW,UN,16,jaunce,DORSEX,z,,,,,,-0.3625,-0.26875,1,0,0,,0,117,117,442,1,
,,,,,,,,,,,,,,,,,,5df03fabc1ef790aa5595f8f,2020-11-27_15h13.37.905,lexical_decision_task_MP_exp2,2020.2.5,Linux armv7l,60,,0,0.3275,-0.27125,1,0,0,0.987,button_right,0.987,1,,,,,,66,WORD,"ID",16,gospel,GOSPEL,m,,,,,,0.3275,-0.27125,1,0,0,,0,118,118,65,1,
,,,,,,,,,,,,,,,,,,5df03fabc1ef790aa5595f8f,2020-11-27_15h13.37.905,lexical_decision_task_MP_exp2,2020.2.5,Linux armv7l,60,,0,0.30125,-0.29,1,0,0,0.791,button_right,0.791,1,,,,,,133,WORD,UN,33,debris,CHROME,m,,,,,,0.30125,-0.29,1,0,0,,0,119,119,132,1,
,,,,,,,,,,,,,,,,,,5df03fabc1ef790aa5595f8f,2020-11-27_15h13.37.905,lexical_decision_task_MP_exp2,2020.2.5,Linux armv7l,60,,0,0.3125,-0.30375,1,0,0,0.653,button_right,0.653,1,,,,,,92,WORD,"ID",16,strand,STRAND,m,,,,,,0.05375,-0.40875,1,0,0,,0,120,120,91,1,break_done_button
,,,,,,,,,,,,,,,,,,5df03fabc1ef790aa5595f8f,2020-11-27_15h13.37.905,lexical_decision_task_MP_exp2,2020.2.5,Linux armv7l,60,,0,-0.455,-0.31,1,0,0,1.264,button_left,1.264,1,,,,,,447,NW,UN,16,sadent,GIRCUE,z,,,,,,-0.455,-0.31,1,0,0,,0,121,121,446,1,
,,,,,,,,,,,,,,,,,,5df03fabc1ef790aa5595f8f,2020-11-27_15h13.37.905,lexical_decision_task_MP_exp2,2020.2.5,Linux armv7l,60,,0,-0.405,-0.31625,1,0,0,0.861,button_left,0.861,1,,,,,,357,NW,"ID",16,derain,DERAIN,z,,,,,,-0.405,-0.31625,1,0,0,,0,122,122,356,1,
,,,,,,,,,,,,,,,,,,5df03fabc1ef790aa5595f8f,2020-11-27_15h13.37.905,lexical_decision_task_MP_exp2,2020.2.5,Linux armv7l,60,,0,-0.40625,-0.31375,1,0,0,0.651,button_left,0.651,1,,,,,,311,NW,"ID",16,sproly,SPROLY,z,,,,,,-0.40625,-0.31375,1,0,0,,0,123,123,310,1,
,,,,,,,,,,,,,,,,,,5df03fabc1ef790aa5595f8f,2020-11-27_15h13.37.905,lexical_decision_task_MP_exp2,2020.2.5,Linux armv7l,60,,0,0.42,-0.30125,1,0,0,0.579,button_right,0.579,1,,,,,,103,WORD,"ID",16,bounce,BOUNCE,m,,,,,,0.42,-0.30125,1,0,0,,0,124,124,102,1,
,,,,,,,,,,,,,,,,,,5df03fabc1ef790aa5595f8f,2020-11-27_15h13.37.905,lexical_decision_task_MP_exp2,2020.2.5,Linux armv7l,60,,0,-0.41375,-0.325,1,0,0,0.907,button_left,0.907,1,,,,,,244,NW,"ID",33,eatric,EATRIC,z,,,,,,-0.41375,-0.325,1,0,0,,0,125,125,243,1,
,,,,,,,,,,,,,,,,,,5df03fabc1ef790aa5595f8f,2020-11-27_15h13.37.905,lexical_decision_task_MP_exp2,2020.2.5,Linux armv7l,60,,0,-0.41375,-0.30875,1,0,0,0.991,button_left,0.991,1,,,,,,332,NW,"ID",16,vangue,VANGUE,z,,,,,,-0.41375,-0.30875,1,0,0,,0,126,126,331,1,
,,,,,,,,,,,,,,,,,,5df03fabc1ef790aa5595f8f,2020-11-27_15h13.37.905,lexical_decision_task_MP_exp2,2020.2.5,Linux armv7l,60,,0,0.39625,-0.315,1,0,0,0.804,button_right,0.804,1,,,,,,114,WORD,"ID",16,placid,PLACID,m,,,,,,0.39625,-0.315,1,0,0,,0,127,127,113,1,
,,,,,,,,,,,,,,,,,,5df03fabc1ef790aa5595f8f,2020-11-27_15h13.37.905,lexical_decision_task_MP_exp2,2020.2.5,Linux armv7l,60,,0,0.4175,-0.3025,1,0,0,0.639,button_right,0.639,1,,,,,,180,WORD,UN,33,thrive,SILENT,m,,,,,,0.4175,-0.3025,1,0,0,,0,128,128,179,1,
,,,,,,,,,,,,,,,,,,5df03fabc1ef790aa5595f8f,2020-11-27_15h13.37.905,lexical_decision_task_MP_exp2,2020.2.5,Linux armv7l,60,,0,-0.40125,-0.29375,1,0,0,0.581,button_left,0.581,1,,,,,,394,NW,UN,33,colury,SPAQUX,z,,,,,,-0.40125,-0.29375,1,0,0,,0,129,129,393,1,
,,,,,,,,,,,,,,,,,,5df03fabc1ef790aa5595f8f,2020-11-27_15h13.37.905,lexical_decision_task_MP_exp2,2020.2.5,Linux armv7l,60,,0,0.40375,-0.31,1,0,0,0.693,button_right,0.693,1,,,,,,89,WORD,"ID",16,permit,PERMIT,m,,,,,,0.40375,-0.31,1,0,0,,0,130,130,88,1,
,,,,,,,,,,,,,,,,,,5df03fabc1ef790aa5595f8f,2020-11-27_15h13.37.905,lexical_decision_task_MP_exp2,2020.2.5,Linux armv7l,60,,0,0.4075,-0.3075,1,0,0,0.806,button_right,0.806,1,,,,,,37,WORD,"ID",33,insult,INSULT,m,,,,,,0.4075,-0.3075,1,0,0,,0,131,131,36,1,
,,,,,,,,,,,,,,,,,,5df03fabc1ef790aa5595f8f,2020-11-27_15h13.37.905,lexical_decision_task_MP_exp2,2020.2.5,Linux armv7l,60,,0,0.41375,-0.30625,1,0,0,0.547,button_right,0.547,1,,,,,,117,WORD,"ID",16,branch,BRANCH,m,,,,,,0.41375,-0.30625,1,0,0,,0,132,132,116,1,
,,,,,,,,,,,,,,,,,,5df03fabc1ef790aa5595f8f,2020-11-27_15h13.37.905,lexical_decision_task_MP_exp2,2020.2.5,Linux armv7l,60,,0,0.41,-0.30875,1,0,0,0.727,button_right,0.727,1,,,,,,82,WORD,"ID",16,stigma,STIGMA,m,,,,,,0.41,-0.30875,1,0,0,,0,133,133,81,1,
,,,,,,,,,,,,,,,,,,5df03fabc1ef790aa5595f8f,2020-11-27_15h13.37.905,lexical_decision_task_MP_exp2,2020.2.5,Linux armv7l,60,,0,-0.37625,-0.3075,1,0,0,0.619,button_left,0.619,1,,,,,,415,NW,UN,33,pathel,HIGSTA,z,,,,,,-0.37625,-0.3075,1,0,0,,0,134,134,414,1,
,,,,,,,,,,,,,,,,,,5df03fabc1ef790aa5595f8f,2020-11-27_15h13.37.905,lexical_decision_task_MP_exp2,2020.2.5,Linux armv7l,60,,0,-0.3825,-0.295,1,0,0,0.651,button_left,0.651,1,,,,,,411,NW,UN,33,jiluer,ORCHIN,z,,,,,,-0.3825,-0.295,1,0,0,,0,135,135,410,1,
,,,,,,,,,,,,,,,,,,5df03fabc1ef790aa5595f8f,2020-11-27_15h13.37.905,lexical_decision_task_MP_exp2,2020.2.5,Linux armv7l,60,,0,0.41125,-0.305,1,0,0,0.659,button_right,0.659,1,,,,,,54,WORD,"ID",33,ramble,RAMBLE,m,,,,,,0.41125,-0.305,1,0,0,,0,136,136,53,1,
,,,,,,,,,,,,,,,,,,5df03fabc1ef790aa5595f8f,2020-11-27_15h13.37.905,lexical_decision_task_MP_exp2,2020.2.5,Linux armv7l,60,,0,0.41125,-0.30625,1,0,0,0.718,button_right,0.718,1,,,,,,240,WORD,UN,16,glance,FOREST,m,,,,,,0.41125,-0.30625,1,0,0,,0,137,137,239,1,
,,,,,,,,,,,,,,,,,,5df03fabc1ef790aa5595f8f,2020-11-27_15h13.37.905,lexical_decision_task_MP_exp2,2020.2.5,Linux armv7l,60,,0,-0.38125,-0.31125,1,0,0,0.607,button_left,0.607,1,,,,,,410,NW,UN,33,orchin,TUNORY,z,,,,,,-0.38125,-0.31125,1,0,0,,0,138,138,409,1,
,,,,,,,,,,,,,,,,,,5df03fabc1ef790aa5595f8f,2020-11-27_15h13.37.905,lexical_decision_task_MP_exp2,2020.2.5,Linux armv7l,60,,0,0.4125,-0.305,1,0,0,0.592,button_right,0.592,1,,,,,,105,WORD,"ID",16,number,NUMBER,m,,,,,,0.4125,-0.305,1,0,0,,0,139,139,104,1,
,,,,,,,,,,,,,,,,,,5df03fabc1ef790aa5595f8f,2020-11-27_15h13.37.905,lexical_decision_task_MP_exp2,2020.2.5,Linux armv7l,60,,0,-0.38625,-0.31125,1,0,0,0.7,button_left,0.7,1,,,,,,407,NW,UN,33,hurnia,SUIVER,z,,,,,,-0.38625,-0.31125,1,0,0,,0,140,140,406,1,
,,,,,,,,,,,,,,,,,,5df03fabc1ef790aa5595f8f,2020-11-27_15h13.37.905,lexical_decision_task_MP_exp2,2020.2.5,Linux armv7l,60,,0,0.41125,-0.3075,1,0,0,0.678,button_right,0.678,1,,,,,,99,WORD,"ID",16,fluent,FLUENT,m,,,,,,0.41125,-0.3075,1,0,0,,0,141,141,98,1,
,,,,,,,,,,,,,,,,,,5df03fabc1ef790aa5595f8f,2020-11-27_15h13.37.905,lexical_decision_task_MP_exp2,2020.2.5,Linux armv7l,60,,0,0.415,-0.30625,1,0,0,0.616,button_right,0.616,1,,,,,,157,WORD,UN,33,island,DRAGON,m,,,,,,0.415,-0.30625,1,0,0,,0,142,142,156,1,
,,,,,,,,,,,,,,,,,,5df03fabc1ef790aa5595f8f,2020-11-27_15h13.37.905,lexical_decision_task_MP_exp2,2020.2.5,Linux armv7l,60,,0,0.415,-0.30375,1,0,0,0.621,button_right,0.621,0,,,,,,372,NW,UN,33,bigent,RAMILY,z,,,,,,0.415,-0.30375,1,0,0,,0,143,143,371,1,
,,,,,,,,,,,,,,,,,,5df03fabc1ef790aa5595f8f,2020-11-27_15h13.37.905,lexical_decision_task_MP_exp2,2020.2.5,Linux armv7l,60,,0,-0.37875,-0.31625,1,0,0,1.387,button_left,1.387,1,,,,,,376,NW,UN,33,sliant,IGUARE,z,,,,,,-0.37875,-0.31625,1,0,0,,0,144,144,375,1,
,,,,,,,,,,,,,,,,,,5df03fabc1ef790aa5595f8f,2020-11-27_15h13.37.905,lexical_decision_task_MP_exp2,2020.2.5,Linux armv7l,60,,0,0.41125,-0.30625,1,0,0,0.649,button_right,0.649,1,,,,,,163,WORD,UN,33,market,STRING,m,,,,,,0.41125,-0.30625,1,0,0,,0,145,145,162,1,
,,,,,,,,,,,,,,,,,,5df03fabc1ef790aa5595f8f,2020-11-27_15h13.37.905,lexical_decision_task_MP_exp2,2020.2.5,Linux armv7l,60,,0,0.415,-0.3075,1,0,0,0.626,button_right,0.626,1,,,,,,202,WORD,UN,16,phrase,FACTOR,m,,,,,,0.415,-0.3075,1,0,0,,0,146,146,201,1,
,,,,,,,,,,,,,,,,,,5df03fabc1ef790aa5595f8f,2020-11-27_15h13.37.905,lexical_decision_task_MP_exp2,2020.2.5,Linux armv7l,60,,0,-0.37625,-0.31875,1,0,0,0.623,button_left,0.623,1,,,,,,274,NW,"ID",33,fumblo,FUMBLO,z,,,,,,-0.37625,-0.31875,1,0,0,,0,147,147,273,1,
,,,,,,,,,,,,,,,,,,5df03fabc1ef790aa5595f8f,2020-11-27_15h13.37.905,lexical_decision_task_MP_exp2,2020.2.5,Linux armv7l,60,,0,0.41375,-0.30625,1,0,0,0.96,button_right,0.96,1,,,,,,16,WORD,"ID",33,faucet,FAUCET,m,,,,,,0.41375,-0.30625,1,0,0,,0,148,148,15,1,
,,,,,,,,,,,,,,,,,,5df03fabc1ef790aa5595f8f,2020-11-27_15h13.37.905,lexical_decision_task_MP_exp2,2020.2.5,Linux armv7l,60,,0,-0.375,-0.30875,1,0,0,1.347,button_left,1.347,1,,,,,,474,NW,UN,16,gorbie,HABLIN,z,,,,,,-0.375,-0.30875,1,0,0,,0,149,149,473,1,
,,,,,,,,,,,,,,,,,,5df03fabc1ef790aa5595f8f,2020-11-27_15h13.37.905,lexical_decision_task_MP_exp2,2020.2.5,Linux armv7l,60,,0,-0.38375,-0.30125,1,0,0,1.232,button_left,1.232,1,,,,,,328,NW,"ID",16,broake,BROAKE,z,,,,,,-0.38375,-0.30125,1,0,0,,0,150,150,327,1,
,,,,,,,,,,,,,,,,,,5df03fabc1ef790aa5595f8f,2020-11-27_15h13.37.905,lexical_decision_task_MP_exp2,2020.2.5,Linux armv7l,60,,0,-0.3875,-0.29875,1,0,0,0.754,button_left,0.754,1,,,,,,442,NW,UN,16,dorsex,ABOUNE,z,,,,,,-0.3875,-0.29875,1,0,0,,0,151,151,441,1,
,,,,,,,,,,,,,,,,,,5df03fabc1ef790aa5595f8f,2020-11-27_15h13.37.905,lexical_decision_task_MP_exp2,2020.2.5,Linux armv7l,60,,0,-0.3775,-0.3025,1,0,0,0.626,button_left,0.626,1,,,,,,295,NW,"ID",33,gleath,GLEATH,z,,,,,,-0.3775,-0.3025,1,0,0,,0,152,152,294,1,
,,,,,,,,,,,,,,,,,,5df03fabc1ef790aa5595f8f,2020-11-27_15h13.37.905,lexical_decision_task_MP_exp2,2020.2.5,Linux armv7l,60,,0,0.3975,-0.30875,1,0,0,0.635,button_right,0.635,1,,,,,,83,WORD,"ID",16,result,RESULT,m,,,,,,0.3975,-0.30875,1,0,0,,0,153,153,82,1,
,,,,,,,,,,,,,,,,,,5df03fabc1ef790aa5595f8f,2020-11-27_15h13.37.905,lexical_decision_task_MP_exp2,2020.2.5,Linux armv7l,60,,0,-0.38375,-0.305,1,0,0,0.654,button_left,0.654,1,,,,,,405,NW,UN,33,nouply,FLUMNI,z,,,,,,-0.38375,-0.305,1,0,0,,0,154,154,404,1,
,,,,,,,,,,,,,,,,,,5df03fabc1ef790aa5595f8f,2020-11-27_15h13.37.905,lexical_decision_task_MP_exp2,2020.2.5,Linux armv7l,60,,0,-0.37625,-0.3025,1,0,0,1.385,button_left,1.385,1,,,,,,345,NW,"ID",16,absend,ABSEND,z,,,,,,-0.37625,-0.3025,1,0,0,,0,155,155,344,1,
,,,,,,,,,,,,,,,,,,5df03fabc1ef790aa5595f8f,2020-11-27_15h13.37.905,lexical_decision_task_MP_exp2,2020.2.5,Linux armv7l,60,,0,0.41125,-0.31,1,0,0,0.657,button_right,0.657,1,,,,,,10,WORD,"ID",33,ethnic,ETHNIC,m,,,,,,0.41125,-0.31,1,0,0,,0,156,156,9,1,
,,,,,,,,,,,,,,,,,,5df03fabc1ef790aa5595f8f,2020-11-27_15h13.37.905,lexical_decision_task_MP_exp2,2020.2.5,Linux armv7l,60,,0,0.4075,-0.31375,1,0,0,0.564,button_right,0.564,1,,,,,,192,WORD,UN,16,object,PLAGUE,m,,,,,,0.4075,-0.31375,1,0,0,,0,157,157,191,1,
,,,,,,,,,,,,,,,,,,5df03fabc1ef790aa5595f8f,2020-11-27_15h13.37.905,lexical_decision_task_MP_exp2,2020.2.5,Linux armv7l,60,,0,-0.385,-0.31125,1,0,0,0.636,button_left,0.636,1,,,,,,386,NW,UN,33,gronce,ANCUST,z,,,,,,-0.385,-0.31125,1,0,0,,0,158,158,385,1,
,,,,,,,,,,,,,,,,,,5df03fabc1ef790aa5595f8f,2020-11-27_15h13.37.905,lexical_decision_task_MP_exp2,2020.2.5,Linux armv7l,60,,0,-0.385,-0.2975,1,0,0,0.66,button_left,0.66,1,,,,,,456,NW,UN,16,wanigh,BROGET,z,,,,,,-0.385,-0.2975,1,0,0,,0,159,159,455,1,
,,,,,,,,,,,,,,,,,,5df03fabc1ef790aa5595f8f,2020-11-27_15h13.37.905,lexical_decision_task_MP_exp2,2020.2.5,Linux armv7l,60,,0,-0.3875,-0.3,1,0,0,0.879,button_left,0.879,1,,,,,,294,NW,"ID",33,inhort,INHORT,z,,,,,,-0.3875,-0.3,1,0,0,,0,160,160,293,1,
,,,,,,,,,,,,,,,,,,5df03fabc1ef790aa5595f8f,2020-11-27_15h13.37.905,lexical_decision_task_MP_exp2,2020.2.5,Linux armv7l,60,,0,0.405,-0.30625,1,0,0,0.686,button_right,0.686,1,,,,,,214,WORD,UN,16,phobia,INTAKE,m,,,,,,0.405,-0.30625,1,0,0,,0,161,161,213,1,
,,,,,,,,,,,,,,,,,,5df03fabc1ef790aa5595f8f,2020-11-27_15h13.37.905,lexical_decision_task_MP_exp2,2020.2.5,Linux armv7l,60,,0,-0.38625,-0.3025,1,0,0,0.598,button_left,0.598,1,,,,,,290,NW,"ID",33,splino,SPLINO,z,,,,,,-0.38625,-0.3025,1,0,0,,0,162,162,289,1,
,,,,,,,,,,,,,,,,,,5df03fabc1ef790aa5595f8f,2020-11-27_15h13.37.905,lexical_decision_task_MP_exp2,2020.2.5,Linux armv7l,60,,0,0.41125,-0.31,1,0,0,0.802,button_right,0.802,1,,,,,,33,WORD,"ID",33,butler,BUTLER,m,,,,,,0.41125,-0.31,1,0,0,,0,163,163,32,1,
,,,,,,,,,,,,,,,,,,5df03fabc1ef790aa5595f8f,2020-11-27_15h13.37.905,lexical_decision_task_MP_exp2,2020.2.5,Linux armv7l,60,,0,0.40625,-0.305,1,0,0,0.676,button_right,0.676,1,,,,,,23,WORD,"ID",33,wealth,WEALTH,m,,,,,,0.40625,-0.305,1,0,0,,0,164,164,22,1,
,,,,,,,,,,,,,,,,,,5df03fabc1ef790aa5595f8f,2020-11-27_15h13.37.905,lexical_decision_task_MP_exp2,2020.2.5,Linux armv7l,60,,0,-0.375,-0.30875,1,0,0,0.784,button_left,0.784,1,,,,,,450,NW,UN,16,rastoe,PHRECT,z,,,,,,-0.375,-0.30875,1,0,0,,0,165,165,449,1,
,,,,,,,,,,,,,,,,,,5df03fabc1ef790aa5595f8f,2020-11-27_15h13.37.905,lexical_decision_task_MP_exp2,2020.2.5,Linux armv7l,60,,0,0.40125,-0.30625,1,0,0,0.839,button_right,0.839,1,,,,,,221,WORD,UN,16,hinder,MASCOT,m,,,,,,0.40125,-0.30625,1,0,0,,0,166,166,220,1,
,,,,,,,,,,,,,,,,,,5df03fabc1ef790aa5595f8f,2020-11-27_15h13.37.905,lexical_decision_task_MP_exp2,2020.2.5,Linux armv7l,60,,0,0.40375,-0.30375,1,0,0,0.861,button_right,0.861,1,,,,,,19,WORD,"ID",33,patron,PATRON,m,,,,,,0.40375,-0.30375,1,0,0,,0,167,167,18,1,
,,,,,,,,,,,,,,,,,,5df03fabc1ef790aa5595f8f,2020-11-27_15h13.37.905,lexical_decision_task_MP_exp2,2020.2.5,Linux armv7l,60,,0,0.41,-0.305,1,0,0,0.659,button_right,0.659,1,,,,,,204,WORD,UN,16,lounge,BURDEN,m,,,,,,0.41,-0.305,1,0,0,,0,168,168,203,1,
,,,,,,,,,,,,,,,,,,5df03fabc1ef790aa5595f8f,2020-11-27_15h13.37.905,lexical_decision_task_MP_exp2,2020.2.5,Linux armv7l,60,,0,-0.37375,-0.305,1,0,0,0.666,button_left,0.666,1,,,,,,287,NW,"ID",33,nymbel,NYMBEL,z,,,,,,-0.37375,-0.305,1,0,0,,0,169,169,286,1,
,,,,,,,,,,,,,,,,,,5df03fabc1ef790aa5595f8f,2020-11-27_15h13.37.905,lexical_decision_task_MP_exp2,2020.2.5,Linux armv7l,60,,0,0.40375,-0.29375,1,0,0,0.682,button_right,0.682,1,,,,,,77,WORD,"ID",16,racket,RACKET,m,,,,,,0.40375,-0.29375,1,0,0,,0,170,170,76,1,
,,,,,,,,,,,,,,,,,,5df03fabc1ef790aa5595f8f,2020-11-27_15h13.37.905,lexical_decision_task_MP_exp2,2020.2.5,Linux armv7l,60,,0,0.39375,-0.2975,1,0,0,0.946,button_right,0.946,1,,,,,,150,WORD,UN,33,mystic,RANDOM,m,,,,,,0.39375,-0.2975,1,0,0,,0,171,171,149,1,
,,,,,,,,,,,,,,,,,,5df03fabc1ef790aa5595f8f,2020-11-27_15h13.37.905,lexical_decision_task_MP_exp2,2020.2.5,Linux armv7l,60,,0,-0.3625,-0.29375,1,0,0,0.688,button_left,0.688,1,,,,,,278,NW,"ID",33,unighs,UNIGHS,z,,,,,,-0.3625,-0.29375,1,0,0,,0,172,172,277,1,
,,,,,,,,,,,,,,,,,,5df03fabc1ef790aa5595f8f,2020-11-27_15h13.37.905,lexical_decision_task_MP_exp2,2020.2.5,Linux armv7l,60,,0,-0.36375,-0.29375,1,0,0,0.72,button_left,0.72,1,,,,,,445,NW,UN,16,runamo,MINKEL,z,,,,,,-0.36375,-0.29375,1,0,0,,0,173,173,444,1,
,,,,,,,,,,,,,,,,,,5df03fabc1ef790aa5595f8f,2020-11-27_15h13.37.905,lexical_decision_task_MP_exp2,2020.2.5,Linux armv7l,60,,0,-0.3625,-0.29875,1,0,0,1.249,button_left,1.249,1,,,,,,475,NW,UN,16,robuly,PEBRIC,z,,,,,,-0.3625,-0.29875,1,0,0,,0,174,174,474,1,
,,,,,,,,,,,,,,,,,,5df03fabc1ef790aa5595f8f,2020-11-27_15h13.37.905,lexical_decision_task_MP_exp2,2020.2.5,Linux armv7l,60,,0,0.4075,-0.29625,1,0,0,0.592,button_right,0.592,1,,,,,,209,WORD,UN,16,monkey,SEARCH,m,,,,,,0.4075,-0.29625,1,0,0,,0,175,175,208,1,
,,,,,,,,,,,,,,,,,,5df03fabc1ef790aa5595f8f,2020-11-27_15h13.37.905,lexical_decision_task_MP_exp2,2020.2.5,Linux armv7l,60,,0,0.40875,-0.29625,1,0,0,0.625,button_right,0.625,1,,,,,,109,WORD,"ID",16,wonder,WONDER,m,,,,,,0.40875,-0.29625,1,0,0,,0,176,176,108,1,
,,,,,,,,,,,,,,,,,,5df03fabc1ef790aa5595f8f,2020-11-27_15h13.37.905,lexical_decision_task_MP_exp2,2020.2.5,Linux armv7l,60,,0,-0.3625,-0.305,1,0,0,0.67,button_left,0.67,1,,,,,,424,NW,UN,16,urivel,PRAILE,z,,,,,,-0.3625,-0.305,1,0,0,,0,177,177,423,1,
,,,,,,,,,,,,,,,,,,5df03fabc1ef790aa5595f8f,2020-11-27_15h13.37.905,lexical_decision_task_MP_exp2,2020.2.5,Linux armv7l,60,,0,0.41,-0.29375,1,0,0,0.738,button_right,0.738,1,,,,,,142,WORD,UN,33,orphan,SPRUCE,m,,,,,,0.41,-0.29375,1,0,0,,0,178,178,141,1,
,,,,,,,,,,,,,,,,,,5df03fabc1ef790aa5595f8f,2020-11-27_15h13.37.905,lexical_decision_task_MP_exp2,2020.2.5,Linux armv7l,60,,0,-0.3625,-0.29375,1,0,0,0.747,button_left,0.747,1,,,,,,343,NW,"ID",16,aimosy,AIMOSY,z,,,,,,-0.3625,-0.29375,1,0,0,,0,179,179,342,1,
,,,,,,,,,,,,,,,,,,5df03fabc1ef790aa5595f8f,2020-11-27_15h13.37.905,lexical_decision_task_MP_exp2,2020.2.5,Linux armv7l,60,,0,0.41,-0.305,1,0,0,0.649,button_right,0.649,1,,,,,,188,WORD,UN,16,censor,SOCIAL,m,,,,,,0.41,-0.305,1,0,0,,0,180,180,187,1,
,,,,,,,,,,,,,,,,,,5df03fabc1ef790aa5595f8f,2020-11-27_15h13.37.905,lexical_decision_task_MP_exp2,2020.2.5,Linux armv7l,60,,0,-0.3625,-0.3025,1,0,0,0.59,button_left,0.59,1,,,,,,349,NW,"ID",16,asylen,ASYLEN,z,,,,,,-0.3625,-0.3025,1,0,0,,0,181,181,348,1,
,,,,,,,,,,,,,,,,,,5df03fabc1ef790aa5595f8f,2020-11-27_15h13.37.905,lexical_decision_task_MP_exp2,2020.2.5,Linux armv7l,60,,0,-0.36625,-0.305,1,0,0,0.944,button_left,0.944,1,,,,,,398,NW,UN,33,fouret,BLUNDE,z,,,,,,-0.36625,-0.305,1,0,0,,0,182,182,397,1,
,,,,,,,,,,,,,,,,,,5df03fabc1ef790aa5595f8f,2020-11-27_15h13.37.905,lexical_decision_task_MP_exp2,2020.2.5,Linux armv7l,60,,0,-0.3625,-0.3,1,0,0,0.672,button_left,0.672,1,,,,,,439,NW,UN,16,saride,LIMPOR,z,,,,,,-0.3625,-0.3,1,0,0,,0,183,183,438,1,
,,,,,,,,,,,,,,,,,,5df03fabc1ef790aa5595f8f,2020-11-27_15h13.37.905,lexical_decision_task_MP_exp2,2020.2.5,Linux armv7l,60,,0,0.41,-0.29875,1,0,0,0.565,button_right,0.565,1,,,,,,43,WORD,"ID",33,tongue,TONGUE,m,,,,,,0.41,-0.29875,1,0,0,,0,184,184,42,1,
,,,,,,,,,,,,,,,,,,5df03fabc1ef790aa5595f8f,2020-11-27_15h13.37.905,lexical_decision_task_MP_exp2,2020.2.5,Linux armv7l,60,,0,0.41,-0.30125,1,0,0,0.805,button_right,0.805,1,,,,,,131,WORD,UN,33,strong,QUENCH,m,,,,,,0.41,-0.30125,1,0,0,,0,185,185,130,1,
,,,,,,,,,,,,,,,,,,5df03fabc1ef790aa5595f8f,2020-11-27_15h13.37.905,lexical_decision_task_MP_exp2,2020.2.5,Linux armv7l,60,,0,-0.3625,-0.305,1,0,0,0.534,button_left,0.534,1,,,,,,464,NW,UN,16,whivex,CHAITE,z,,,,,,-0.3625,-0.305,1,0,0,,0,186,186,463,1,
,,,,,,,,,,,,,,,,,,5df03fabc1ef790aa5595f8f,2020-11-27_15h13.37.905,lexical_decision_task_MP_exp2,2020.2.5,Linux armv7l,60,,0,-0.36,-0.295,1,0,0,0.731,button_left,0.731,1,,,,,,315,NW,"ID",16,laston,LASTON,z,,,,,,-0.36,-0.295,1,0,0,,0,187,187,314,1,
,,,,,,,,,,,,,,,,,,5df03fabc1ef790aa5595f8f,2020-11-27_15h13.37.905,lexical_decision_task_MP_exp2,2020.2.5,Linux armv7l,60,,0,0.3925,-0.3025,1,0,0,0.642,button_right,0.642,1,,,,,,123,WORD,UN,33,enough,STRIKE,m,,,,,,0.3925,-0.3025,1,0,0,,0,188,188,122,1,
,,,,,,,,,,,,,,,,,,5df03fabc1ef790aa5595f8f,2020-11-27_15h13.37.905,lexical_decision_task_MP_exp2,2020.2.5,Linux armv7l,60,,0,-0.34875,-0.28125,1,0,0,1.243,button_left,1.243,1,,,,,,320,NW,"ID",16,jockal,JOCKAL,z,,,,,,-0.34875,-0.28125,1,0,0,,0,189,189,319,1,
,,,,,,,,,,,,,,,,,,5df03fabc1ef790aa5595f8f,2020-11-27_15h13.37.905,lexical_decision_task_MP_exp2,2020.2.5,Linux armv7l,60,,0,-0.36375,-0.2925,1,0,0,0.687,button_left,0.687,1,,,,,,282,NW,"ID",33,porlex,PORLEX,z,,,,,,-0.36375,-0.2925,1,0,0,,0,190,190,281,1,
,,,,,,,,,,,,,,,,,,5df03fabc1ef790aa5595f8f,2020-11-27_15h13.37.905,lexical_decision_task_MP_exp2,2020.2.5,Linux armv7l,60,,0,-0.37625,-0.29375,1,0,0,0.548,button_left,0.548,1,,,,,,384,NW,UN,33,veigma,GUESCO,z,,,,,,-0.37625,-0.29375,1,0,0,,0,191,191,383,1,
,,,,,,,,,,,,,,,,,,5df03fabc1ef790aa5595f8f,2020-11-27_15h13.37.905,lexical_decision_task_MP_exp2,2020.2.5,Linux armv7l,60,,0,0.41,-0.2975,1,0,0,0.957,button_right,0.957,1,,,,,,81,WORD,"ID",16,friend,FRIEND,m,,,,,,0.41,-0.2975,1,0,0,,0,192,192,80,1,
,,,,,,,,,,,,,,,,,,5df03fabc1ef790aa5595f8f,2020-11-27_15h13.37.905,lexical_decision_task_MP_exp2,2020.2.5,Linux armv7l,60,,0,-0.37625,-0.295,1,0,0,0.665,button_left,0.665,1,,,,,,347,NW,"ID",16,kerift,KERIFT,z,,,,,,-0.37625,-0.295,1,0,0,,0,193,193,346,1,
,,,,,,,,,,,,,,,,,,5df03fabc1ef790aa5595f8f,2020-11-27_15h13.37.905,lexical_decision_task_MP_exp2,2020.2.5,Linux armv7l,60,,0,-0.3725,-0.30125,1,0,0,0.651,button_left,0.651,1,,,,,,346,NW,"ID",16,saudic,SAUDIC,z,,,,,,-0.3725,-0.30125,1,0,0,,0,194,194,345,1,
,,,,,,,,,,,,,,,,,,5df03fabc1ef790aa5595f8f,2020-11-27_15h13.37.905,lexical_decision_task_MP_exp2,2020.2.5,Linux armv7l,60,,0,-0.3775,-0.30125,1,0,0,0.646,button_left,0.646,1,,,,,,302,NW,"ID",16,miluer,MILUER,z,,,,,,-0.3775,-0.30125,1,0,0,,0,195,195,301,1,
,,,,,,,,,,,,,,,,,,5df03fabc1ef790aa5595f8f,2020-11-27_15h13.37.905,lexical_decision_task_MP_exp2,2020.2.5,Linux armv7l,60,,0,-0.36375,-0.30625,1,0,0,0.562,button_left,0.562,1,,,,,,288,NW,"ID",33,yaceup,YACEUP,z,,,,,,-0.36375,-0.30625,1,0,0,,0,196,196,287,1,
,,,,,,,,,,,,,,,,,,5df03fabc1ef790aa5595f8f,2020-11-27_15h13.37.905,lexical_decision_task_MP_exp2,2020.2.5,Linux armv7l,60,,0,-0.3825,-0.30125,1,0,0,0.643,button_left,0.643,1,,,,,,327,NW,"ID",16,plenac,PLENAC,z,,,,,,-0.3825,-0.30125,1,0,0,,0,197,197,326,1,
,,,,,,,,,,,,,,,,,,5df03fabc1ef790aa5595f8f,2020-11-27_15h13.37.905,lexical_decision_task_MP_exp2,2020.2.5,Linux armv7l,60,,0,-0.38,-0.3,1,0,0,0.636,button_left,0.636,1,,,,,,333,NW,"ID",16,catrie,CATRIE,z,,,,,,-0.38,-0.3,1,0,0,,0,198,198,332,1,
,,,,,,,,,,,,,,,,,,5df03fabc1ef790aa5595f8f,2020-11-27_15h13.37.905,lexical_decision_task_MP_exp2,2020.2.5,Linux armv7l,60,,0,-0.375,-0.2975,1,0,0,0.707,button_left,0.707,1,,,,,,455,NW,UN,16,broget,TONDLE,z,,,,,,-0.375,-0.2975,1,0,0,,0,199,199,454,1,
,,,,,,,,,,,,,,,,,,5df03fabc1ef790aa5595f8f,2020-11-27_15h13.37.905,lexical_decision_task_MP_exp2,2020.2.5,Linux armv7l,60,,0,-0.3675,-0.31125,1,0,0,1.287,button_left,1.287,1,,,,,,269,NW,"ID",33,orchet,ORCHET,z,,,,,,-0.3675,-0.31125,1,0,0,,0,200,200,268,1,
,,,,,,,,,,,,,,,,,,5df03fabc1ef790aa5595f8f,2020-11-27_15h13.37.905,lexical_decision_task_MP_exp2,2020.2.5,Linux armv7l,60,,0,0.39375,-0.305,1,0,0,0.606,button_right,0.606,1,,,,,,168,WORD,UN,33,genius,ANSWER,m,,,,,,0.39375,-0.305,1,0,0,,0,201,201,167,1,
,,,,,,,,,,,,,,,,,,5df03fabc1ef790aa5595f8f,2020-11-27_15h13.37.905,lexical_decision_task_MP_exp2,2020.2.5,Linux armv7l,60,,0,-0.3625,-0.295,1,0,0,0.662,button_left,0.662,1,,,,,,272,NW,"ID",33,damilt,DAMILT,z,,,,,,-0.3625,-0.295,1,0,0,,0,202,202,271,1,
,,,,,,,,,,,,,,,,,,5df03fabc1ef790aa5595f8f,2020-11-27_15h13.37.905,lexical_decision_task_MP_exp2,2020.2.5,Linux armv7l,60,,0,0.41,-0.30875,1,0,0,0.57,button_right,0.57,1,,,,,,71,WORD,"ID",16,garden,GARDEN,m,,,,,,0.41,-0.30875,1,0,0,,0,203,203,70,1,
,,,,,,,,,,,,,,,,,,5df03fabc1ef790aa5595f8f,2020-11-27_15h13.37.905,lexical_decision_task_MP_exp2,2020.2.5,Linux armv7l,60,,0,-0.36375,-0.295,1,0,0,0.776,button_left,0.776,1,,,,,,403,NW,UN,33,cluirm,BRUATS,z,,,,,,-0.36375,-0.295,1,0,0,,0,204,204,402,1,
,,,,,,,,,,,,,,,,,,5df03fabc1ef790aa5595f8f,2020-11-27_15h13.37.905,lexical_decision_task_MP_exp2,2020.2.5,Linux armv7l,60,,0,0.41,-0.3125,1,0,0,0.812,button_right,0.812,1,,,,,,181,WORD,UN,16,winter,GLANCE,m,,,,,,0.41,-0.3125,1,0,0,,0,205,205,180,1,
,,,,,,,,,,,,,,,,,,5df03fabc1ef790aa5595f8f,2020-11-27_15h13.37.905,lexical_decision_task_MP_exp2,2020.2.5,Linux armv7l,60,,0,0.41,-0.3075,1,0,0,0.539,button_right,0.539,1,,,,,,35,WORD,"ID",33,socket,SOCKET,m,,,,,,0.41,-0.3075,1,0,0,,0,206,206,34,1,
,,,,,,,,,,,,,,,,,,5df03fabc1ef790aa5595f8f,2020-11-27_15h13.37.905,lexical_decision_task_MP_exp2,2020.2.5,Linux armv7l,60,,0,0.41,-0.31375,1,0,0,0.501,button_right,0.501,1,,,,,,208,WORD,UN,16,search,HOCKEY,m,,,,,,0.41,-0.31375,1,0,0,,0,207,207,207,1,
,,,,,,,,,,,,,,,,,,5df03fabc1ef790aa5595f8f,2020-11-27_15h13.37.905,lexical_decision_task_MP_exp2,2020.2.5,Linux armv7l,60,,0,0.41125,-0.3125,1,0,0,0.467,button_right,0.467,1,,,,,,152,WORD,UN,33,behold,ROCKET,m,,,,,,0.41125,-0.3125,1,0,0,,0,208,208,151,1,
,,,,,,,,,,,,,,,,,,5df03fabc1ef790aa5595f8f,2020-11-27_15h13.37.905,lexical_decision_task_MP_exp2,2020.2.5,Linux armv7l,60,,0,-0.3775,-0.29375,1,0,0,0.858,button_left,0.858,1,,,,,,380,NW,UN,33,huniek,CAVORY,z,,,,,,-0.3775,-0.29375,1,0,0,,0,209,209,379,1,
,,,,,,,,,,,,,,,,,,5df03fabc1ef790aa5595f8f,2020-11-27_15h13.37.905,lexical_decision_task_MP_exp2,2020.2.5,Linux armv7l,60,,0,-0.3825,-0.29625,1,0,0,0.771,button_left,0.771,1,,,,,,392,NW,UN,33,ganous,ROUNCY,z,,,,,,-0.3825,-0.29625,1,0,0,,0,210,210,391,1,
,,,,,,,,,,,,,,,,,,5df03fabc1ef790aa5595f8f,2020-11-27_15h13.37.905,lexical_decision_task_MP_exp2,2020.2.5,Linux armv7l,60,,0,-0.37875,-0.29625,1,0,0,0.879,button_left,0.879,1,,,,,,468,NW,UN,16,padifs,WICTOR,z,,,,,,-0.37875,-0.29625,1,0,0,,0,211,211,467,1,
,,,,,,,,,,,,,,,,,,5df03fabc1ef790aa5595f8f,2020-11-27_15h13.37.905,lexical_decision_task_MP_exp2,2020.2.5,Linux armv7l,60,,0,-0.39,-0.29375,1,0,0,0.56,button_left,0.56,1,,,,,,401,NW,UN,33,elopia,MUSTIL,z,,,,,,-0.39,-0.29375,1,0,0,,0,212,212,400,1,
,,,,,,,,,,,,,,,,,,5df03fabc1ef790aa5595f8f,2020-11-27_15h13.37.905,lexical_decision_task_MP_exp2,2020.2.5,Linux armv7l,60,,0,-0.38875,-0.295,1,0,0,0.589,button_left,0.589,1,,,,,,356,NW,"ID",16,othnis,OTHNIS,z,,,,,,-0.38875,-0.295,1,0,0,,0,213,213,355,1,
,,,,,,,,,,,,,,,,,,5df03fabc1ef790aa5595f8f,2020-11-27_15h13.37.905,lexical_decision_task_MP_exp2,2020.2.5,Linux armv7l,60,,0,-0.3925,-0.295,1,0,0,0.52,button_left,0.52,1,,,,,,336,NW,"ID",16,ghodus,GHODUS,z,,,,,,-0.3925,-0.295,1,0,0,,0,214,214,335,1,
,,,,,,,,,,,,,,,,,,5df03fabc1ef790aa5595f8f,2020-11-27_15h13.37.905,lexical_decision_task_MP_exp2,2020.2.5,Linux armv7l,60,,0,0.41125,-0.3025,1,0,0,0.714,button_right,0.714,1,,,,,,26,WORD,"ID",33,sprint,SPRINT,m,,,,,,0.41125,-0.3025,1,0,0,,0,215,215,25,1,
,,,,,,,,,,,,,,,,,,5df03fabc1ef790aa5595f8f,2020-11-27_15h13.37.905,lexical_decision_task_MP_exp2,2020.2.5,Linux armv7l,60,,0,0.41125,-0.2975,1,0,0,0.563,button_right,0.563,1,,,,,,110,WORD,"ID",16,polite,POLITE,m,,,,,,0.41125,-0.2975,1,0,0,,0,216,216,109,1,
,,,,,,,,,,,,,,,,,,5df03fabc1ef790aa5595f8f,2020-11-27_15h13.37.905,lexical_decision_task_MP_exp2,2020.2.5,Linux armv7l,60,,0,-0.38875,-0.29875,1,0,0,0.868,button_left,0.868,1,,,,,,355,NW,"ID",16,zingly,ZINGLY,z,,,,,,-0.38875,-0.29875,1,0,0,,0,217,217,354,1,
,,,,,,,,,,,,,,,,,,5df03fabc1ef790aa5595f8f,2020-11-27_15h13.37.905,lexical_decision_task_MP_exp2,2020.2.5,Linux armv7l,60,,0,0.41125,-0.30125,1,0,0,0.569,button_right,0.569,1,,,,,,95,WORD,"ID",16,thread,THREAD,m,,,,,,0.41125,-0.30125,1,0,0,,0,218,218,94,1,
,,,,,,,,,,,,,,,,,,5df03fabc1ef790aa5595f8f,2020-11-27_15h13.37.905,lexical_decision_task_MP_exp2,2020.2.5,Linux armv7l,60,,0,0.4075,-0.3175,1,0,0,0.644,button_right,0.644,1,,,,,,125,WORD,UN,33,blouse,NICKEL,m,,,,,,0.4075,-0.3175,1,0,0,,0,219,219,124,1,
,,,,,,,,,,,,,,,,,,5df03fabc1ef790aa5595f8f,2020-11-27_15h13.37.905,lexical_decision_task_MP_exp2,2020.2.5,Linux armv7l,60,,0,0.4225,-0.295,1,0,0,0.632,button_right,0.632,1,,,,,,97,WORD,"ID",16,client,CLIENT,m,,,,,,0.4225,-0.295,1,0,0,,0,220,220,96,1,
,,,,,,,,,,,,,,,,,,5df03fabc1ef790aa5595f8f,2020-11-27_15h13.37.905,lexical_decision_task_MP_exp2,2020.2.5,Linux armv7l,60,,0,0.4275,-0.29375,1,0,0,0.889,button_right,0.889,1,,,,,,239,WORD,UN,16,forest,LUMBER,m,,,,,,0.4275,-0.29375,1,0,0,,0,221,221,238,1,
,,,,,,,,,,,,,,,,,,5df03fabc1ef790aa5595f8f,2020-11-27_15h13.37.905,lexical_decision_task_MP_exp2,2020.2.5,Linux armv7l,60,,0,-0.37625,-0.3075,1,0,0,0.549,button_left,0.549,1,,,,,,257,NW,"ID",33,veniod,VENIOD,z,,,,,,-0.37625,-0.3075,1,0,0,,0,222,222,256,1,
,,,,,,,,,,,,,,,,,,5df03fabc1ef790aa5595f8f,2020-11-27_15h13.37.905,lexical_decision_task_MP_exp2,2020.2.5,Linux armv7l,60,,0,-0.38625,-0.29625,1,0,0,0.669,button_left,0.669,1,,,,,,309,NW,"ID",16,amiloy,AMILOY,z,,,,,,-0.38625,-0.29625,1,0,0,,0,223,223,308,1,
,,,,,,,,,,,,,,,,,,5df03fabc1ef790aa5595f8f,2020-11-27_15h13.37.905,lexical_decision_task_MP_exp2,2020.2.5,Linux armv7l,60,,0,0.4325,-0.28875,1,0,0,0.866,button_right,0.866,1,,,,,,42,WORD,"ID",33,chapel,CHAPEL,m,,,,,,0.4325,-0.28875,1,0,0,,0,224,224,41,1,
,,,,,,,,,,,,,,,,,,5df03fabc1ef790aa5595f8f,2020-11-27_15h13.37.905,lexical_decision_task_MP_exp2,2020.2.5,Linux armv7l,60,,0,0.44125,-0.29,1,0,0,0.655,button_right,0.655,1,,,,,,65,WORD,"ID",16,symbol,SYMBOL,m,,,,,,0.44125,-0.29,1,0,0,,0,225,225,64,1,
,,,,,,,,,,,,,,,,,,5df03fabc1ef790aa5595f8f,2020-11-27_15h13.37.905,lexical_decision_task_MP_exp2,2020.2.5,Linux armv7l,60,,0,0.4425,-0.29375,1,0,0,0.647,button_right,0.647,1,,,,,,113,WORD,"ID",16,chorus,CHORUS,m,,,,,,0.4425,-0.29375,1,0,0,,0,226,226,112,1,
,,,,,,,,,,,,,,,,,,5df03fabc1ef790aa5595f8f,2020-11-27_15h13.37.905,lexical_decision_task_MP_exp2,2020.2.5,Linux armv7l,60,,0,-0.38625,-0.305,1,0,0,0.683,button_left,0.683,1,,,,,,283,NW,"ID",33,veralf,VERALF,z,,,,,,-0.38625,-0.305,1,0,0,,0,227,227,282,1,
,,,,,,,,,,,,,,,,,,5df03fabc1ef790aa5595f8f,2020-11-27_15h13.37.905,lexical_decision_task_MP_exp2,2020.2.5,Linux armv7l,60,,0,0.45125,-0.2975,1,0,0,1.222,button_right,1.222,1,,,,,,17,WORD,"ID",33,charge,CHARGE,m,,,,,,0.45125,-0.2975,1,0,0,,0,228,228,16,1,
,,,,,,,,,,,,,,,,,,5df03fabc1ef790aa5595f8f,2020-11-27_15h13.37.905,lexical_decision_task_MP_exp2,2020.2.5,Linux armv7l,60,,0,0.4475,-0.29625,1,0,0,0.732,button_right,0.732,1,,,,,,104,WORD,"ID",16,studio,STUDIO,m,,,,,,0.4475,-0.29625,1,0,0,,0,229,229,103,1,
,,,,,,,,,,,,,,,,,,5df03fabc1ef790aa5595f8f,2020-11-27_15h13.37.905,lexical_decision_task_MP_exp2,2020.2.5,Linux armv7l,60,,0,-0.39625,-0.30625,1,0,0,0.648,button_left,0.648,1,,,,,,334,NW,"ID",16,watmeg,WATMEG,z,,,,,,-0.39625,-0.30625,1,0,0,,0,230,230,333,1,
,,,,,,,,,,,,,,,,,,5df03fabc1ef790aa5595f8f,2020-11-27_15h13.37.905,lexical_decision_task_MP_exp2,2020.2.5,Linux armv7l,60,,0,0.42875,-0.29625,1,0,0,0.741,button_right,0.741,0,,,,,,286,NW,"ID",33,reldon,RELDON,z,,,,,,0.42875,-0.29625,1,0,0,,0,231,231,285,1,
,,,,,,,,,,,,,,,,,,5df03fabc1ef790aa5595f8f,2020-11-27_15h13.37.905,lexical_decision_task_MP_exp2,2020.2.5,Linux armv7l,60,,0,-0.37625,-0.30125,1,0,0,1.009,button_left,1.009,1,,,,,,419,NW,UN,33,gushop,SLOUNT,z,,,,,,-0.37625,-0.30125,1,0,0,,0,232,232,418,1,
,,,,,,,,,,,,,,,,,,5df03fabc1ef790aa5595f8f,2020-11-27_15h13.37.905,lexical_decision_task_MP_exp2,2020.2.5,Linux armv7l,60,,0,-0.3675,-0.2775,1,0,0,1.303,button_left,1.303,1,,,,,,266,NW,"ID",33,varmit,VARMIT,z,,,,,,-0.3675,-0.2775,1,0,0,,0,233,233,265,1,
,,,,,,,,,,,,,,,,,,5df03fabc1ef790aa5595f8f,2020-11-27_15h13.37.905,lexical_decision_task_MP_exp2,2020.2.5,Linux armv7l,60,,0,-0.37,-0.2925,1,0,0,0.633,button_left,0.633,1,,,,,,463,NW,UN,16,bafent,KISPEL,z,,,,,,-0.37,-0.2925,1,0,0,,0,234,234,462,1,
,,,,,,,,,,,,,,,,,,5df03fabc1ef790aa5595f8f,2020-11-27_15h13.37.905,lexical_decision_task_MP_exp2,2020.2.5,Linux armv7l,60,,0,0.43125,-0.30125,1,0,0,0.718,button_right,0.718,1,,,,,,25,WORD,"ID",33,domain,DOMAIN,m,,,,,,0.43125,-0.30125,1,0,0,,0,235,235,24,1,
,,,,,,,,,,,,,,,,,,5df03fabc1ef790aa5595f8f,2020-11-27_15h13.37.905,lexical_decision_task_MP_exp2,2020.2.5,Linux armv7l,60,,0,0.4325,-0.3025,1,0,0,0.635,button_right,0.635,1,,,,,,231,WORD,UN,16,mother,EXPORT,m,,,,,,0.4325,-0.3025,1,0,0,,0,236,236,230,1,
,,,,,,,,,,,,,,,,,,5df03fabc1ef790aa5595f8f,2020-11-27_15h13.37.905,lexical_decision_task_MP_exp2,2020.2.5,Linux armv7l,60,,0,-0.37125,-0.29125,1,0,0,0.631,button_left,0.631,1,,,,,,427,NW,UN,16,tandly,SCHIND,z,,,,,,-0.37125,-0.29125,1,0,0,,0,237,237,426,1,
,,,,,,,,,,,,,,,,,,5df03fabc1ef790aa5595f8f,2020-11-27_15h13.37.905,lexical_decision_task_MP_exp2,2020.2.5,Linux armv7l,60,,0,-0.3675,-0.29375,1,0,0,0.704,button_left,0.704,1,,,,,,446,NW,UN,16,gircue,RUNAMO,z,,,,,,-0.3675,-0.29375,1,0,0,,0,238,238,445,1,
,,,,,,,,,,,,,,,,,,5df03fabc1ef790aa5595f8f,2020-11-27_15h13.37.905,lexical_decision_task_MP_exp2,2020.2.5,Linux armv7l,60,,0,-0.37375,-0.29375,1,0,0,0.628,button_left,0.628,1,,,,,,469,NW,UN,16,crudio,PADIFS,z,,,,,,-0.37375,-0.29375,1,0,0,,0,239,239,468,1,
,,,,,,,,,,,,,,,,,,5df03fabc1ef790aa5595f8f,2020-11-27_15h13.37.905,lexical_decision_task_MP_exp2,2020.2.5,Linux armv7l,60,,0,-0.36625,-0.28875,1,0,0,0.583,button_left,0.583,1,,,,,,385,NW,UN,33,ancust,VEIGMA,z,,,,,,-0.36625,-0.28875,1,0,0,,0,240,240,384,1,
,,,,,,,,,,,,,,,,,,5df03fabc1ef790aa5595f8f,2020-11-27_15h13.37.905,lexical_decision_task_MP_exp2,2020.2.5,Linux armv7l,60,,0,-0.37625,-0.29375,1,0,0,0.708,button_left,0.708,1,,,,,,435,NW,UN,16,frutan,IMPURB,z,,,,,,0.11875,-0.39,1,0,0,,0,241,241,434,1,break_done_button
,,,,,,,,,,,,,,,,,,5df03fabc1ef790aa5595f8f,2020-11-27_15h13.37.905,lexical_decision_task_MP_exp2,2020.2.5,Linux armv7l,60,,0,0.42875,-0.3025,1,0,0,0.798,button_right,0.798,1,,,,,,165,WORD,UN,33,starch,INVEST,m,,,,,,0.42875,-0.3025,1,0,0,,0,242,242,164,1,
,,,,,,,,,,,,,,,,,,5df03fabc1ef790aa5595f8f,2020-11-27_15h13.37.905,lexical_decision_task_MP_exp2,2020.2.5,Linux armv7l,60,,0,-0.3975,-0.315,1,0,0,1.011,button_left,1.011,1,,,,,,458,NW,UN,16,chaite,BARCET,z,,,,,,-0.3975,-0.315,1,0,0,,0,243,243,457,1,
,,,,,,,,,,,,,,,,,,5df03fabc1ef790aa5595f8f,2020-11-27_15h13.37.905,lexical_decision_task_MP_exp2,2020.2.5,Linux armv7l,60,,0,0.425,-0.29125,1,0,0,0.761,button_right,0.761,1,,,,,,24,WORD,"ID",33,praise,PRAISE,m,,,,,,0.425,-0.29125,1,0,0,,0,244,244,23,1,
,,,,,,,,,,,,,,,,,,5df03fabc1ef790aa5595f8f,2020-11-27_15h13.37.905,lexical_decision_task_MP_exp2,2020.2.5,Linux armv7l,60,,0,-0.4225,-0.3,1,0,0,0.593,button_left,0.593,1,,,,,,365,NW,UN,33,toshel,GUAIRT,z,,,,,,-0.4225,-0.3,1,0,0,,0,245,245,364,1,
,,,,,,,,,,,,,,,,,,5df03fabc1ef790aa5595f8f,2020-11-27_15h13.37.905,lexical_decision_task_MP_exp2,2020.2.5,Linux armv7l,60,,0,-0.435,-0.295,1,0,0,0.597,button_left,0.597,1,,,,,,422,NW,UN,16,streld,ALCOUD,z,,,,,,-0.435,-0.295,1,0,0,,0,246,246,421,1,
,,,,,,,,,,,,,,,,,,5df03fabc1ef790aa5595f8f,2020-11-27_15h13.37.905,lexical_decision_task_MP_exp2,2020.2.5,Linux armv7l,60,,0,-0.435,-0.30375,1,0,0,1.24,button_left,1.24,1,,,,,,277,NW,"ID",33,petain,PETAIN,z,,,,,,-0.435,-0.30375,1,0,0,,0,247,247,276,1,
,,,,,,,,,,,,,,,,,,5df03fabc1ef790aa5595f8f,2020-11-27_15h13.37.905,lexical_decision_task_MP_exp2,2020.2.5,Linux armv7l,60,,0,0.465,-0.27875,1,0,0,0.612,button_right,0.612,1,,,,,,178,WORD,UN,33,mildew,INFORM,m,,,,,,0.465,-0.27875,1,0,0,,0,248,248,177,1,
,,,,,,,,,,,,,,,,,,5df03fabc1ef790aa5595f8f,2020-11-27_15h13.37.905,lexical_decision_task_MP_exp2,2020.2.5,Linux armv7l,60,,0,0.4825,-0.275,1,0,0,0.512,button_right,0.512,1,,,,,,51,WORD,"ID",33,hungry,HUNGRY,m,,,,,,0.4825,-0.275,1,0,0,,0,249,249,50,1,
,,,,,,,,,,,,,,,,,,5df03fabc1ef790aa5595f8f,2020-11-27_15h13.37.905,lexical_decision_task_MP_exp2,2020.2.5,Linux armv7l,60,,0,-0.45125,-0.31125,1,0,0,0.583,button_left,0.583,1,,,,,,374,NW,UN,33,yorque,SLIANT,z,,,,,,-0.45125,-0.31125,1,0,0,,0,250,250,373,1,
,,,,,,,,,,,,,,,,,,5df03fabc1ef790aa5595f8f,2020-11-27_15h13.37.905,lexical_decision_task_MP_exp2,2020.2.5,Linux armv7l,60,,0,-0.43875,-0.30625,1,0,0,0.868,button_left,0.868,1,,,,,,396,NW,UN,33,camble,FLENGY,z,,,,,,-0.43875,-0.30625,1,0,0,,0,251,251,395,1,
,,,,,,,,,,,,,,,,,,5df03fabc1ef790aa5595f8f,2020-11-27_15h13.37.905,lexical_decision_task_MP_exp2,2020.2.5,Linux armv7l,60,,0,-0.44625,-0.3075,1,0,0,1.223,button_left,1.223,1,,,,,,291,NW,"ID",33,pretch,PRETCH,z,,,,,,-0.44625,-0.3075,1,0,0,,0,252,252,290,1,
,,,,,,,,,,,,,,,,,,5df03fabc1ef790aa5595f8f,2020-11-27_15h13.37.905,lexical_decision_task_MP_exp2,2020.2.5,Linux armv7l,60,,0,0.45875,-0.285,1,0,0,0.547,button_right,0.547,1,,,,,,47,WORD,"ID",33,income,INCOME,m,,,,,,0.45875,-0.285,1,0,0,,0,253,253,46,1,
,,,,,,,,,,,,,,,,,,5df03fabc1ef790aa5595f8f,2020-11-27_15h13.37.905,lexical_decision_task_MP_exp2,2020.2.5,Linux armv7l,60,,0,0.47875,-0.29375,1,0,0,0.551,button_right,0.551,1,,,,,,147,WORD,UN,33,custom,GARLIC,m,,,,,,0.47875,-0.29375,1,0,0,,0,254,254,146,1,
,,,,,,,,,,,,,,,,,,5df03fabc1ef790aa5595f8f,2020-11-27_15h13.37.905,lexical_decision_task_MP_exp2,2020.2.5,Linux armv7l,60,,0,0.46,-0.2975,1,0,0,0.808,button_right,0.808,1,,,,,,101,WORD,"ID",16,wrench,WRENCH,m,,,,,,0.46,-0.2975,1,0,0,,0,255,255,100,1,
,,,,,,,,,,,,,,,,,,5df03fabc1ef790aa5595f8f,2020-11-27_15h13.37.905,lexical_decision_task_MP_exp2,2020.2.5,Linux armv7l,60,,0,0.46625,-0.29,1,0,0,0.569,button_right,0.569,1,,,,,,49,WORD,"ID",33,survey,SURVEY,m,,,,,,0.46625,-0.29,1,0,0,,0,256,256,48,1,
,,,,,,,,,,,,,,,,,,5df03fabc1ef790aa5595f8f,2020-11-27_15h13.37.905,lexical_decision_task_MP_exp2,2020.2.5,Linux armv7l,60,,0,0.4625,-0.29375,1,0,0,0.679,button_right,0.679,1,,,,,,12,WORD,"ID",33,orange,ORANGE,m,,,,,,0.4625,-0.29375,1,0,0,,0,257,257,11,1,
,,,,,,,,,,,,,,,,,,5df03fabc1ef790aa5595f8f,2020-11-27_15h13.37.905,lexical_decision_task_MP_exp2,2020.2.5,Linux armv7l,60,,0,-0.43375,-0.2975,1,0,0,1.144,button_left,1.144,1,,,,,,335,NW,"ID",16,desion,DESION,z,,,,,,-0.43375,-0.2975,1,0,0,,0,258,258,334,1,
,,,,,,,,,,,,,,,,,,5df03fabc1ef790aa5595f8f,2020-11-27_15h13.37.905,lexical_decision_task_MP_exp2,2020.2.5,Linux armv7l,60,,0,-0.4375,-0.2975,1,0,0,0.721,button_left,0.721,1,,,,,,275,NW,"ID",33,sleirt,SLEIRT,z,,,,,,-0.4375,-0.2975,1,0,0,,0,259,259,274,1,
,,,,,,,,,,,,,,,,,,5df03fabc1ef790aa5595f8f,2020-11-27_15h13.37.905,lexical_decision_task_MP_exp2,2020.2.5,Linux armv7l,60,,0,-0.44875,-0.30125,1,0,0,0.552,button_left,0.552,1,,,,,,430,NW,UN,16,funtle,CAROEY,z,,,,,,-0.44875,-0.30125,1,0,0,,0,260,260,429,1,
,,,,,,,,,,,,,,,,,,5df03fabc1ef790aa5595f8f,2020-11-27_15h13.37.905,lexical_decision_task_MP_exp2,2020.2.5,Linux armv7l,60,,0,-0.44875,-0.2975,1,0,0,0.639,button_left,0.639,1,,,,,,417,NW,UN,33,suidle,EAROUD,z,,,,,,-0.44875,-0.2975,1,0,0,,0,261,261,416,1,
,,,,,,,,,,,,,,,,,,5df03fabc1ef790aa5595f8f,2020-11-27_15h13.37.905,lexical_decision_task_MP_exp2,2020.2.5,Linux armv7l,60,,0,0.45375,-0.30375,1,0,0,0.711,button_right,0.711,1,,,,,,191,WORD,UN,16,absent,STABLE,m,,,,,,0.45375,-0.30375,1,0,0,,0,262,262,190,1,
,,,,,,,,,,,,,,,,,,5df03fabc1ef790aa5595f8f,2020-11-27_15h13.37.905,lexical_decision_task_MP_exp2,2020.2.5,Linux armv7l,60,,0,0.4625,-0.2875,1,0,0,0.613,button_right,0.613,1,,,,,,216,WORD,UN,16,liquor,BEHALF,m,,,,,,0.4625,-0.2875,1,0,0,,0,263,263,215,1,
,,,,,,,,,,,,,,,,,,5df03fabc1ef790aa5595f8f,2020-11-27_15h13.37.905,lexical_decision_task_MP_exp2,2020.2.5,Linux armv7l,60,,0,-0.43,-0.31125,1,0,0,0.665,button_left,0.665,1,,,,,,429,NW,UN,16,caroey,FUNTLE,z,,,,,,-0.43,-0.31125,1,0,0,,0,264,264,428,1,
,,,,,,,,,,,,,,,,,,5df03fabc1ef790aa5595f8f,2020-11-27_15h13.37.905,lexical_decision_task_MP_exp2,2020.2.5,Linux armv7l,60,,0,-0.425,-0.29375,1,0,0,0.726,button_left,0.726,1,,,,,,252,NW,"ID",33,stapod,STAPOD,z,,,,,,-0.425,-0.29375,1,0,0,,0,265,265,251,1,
,,,,,,,,,,,,,,,,,,5df03fabc1ef790aa5595f8f,2020-11-27_15h13.37.905,lexical_decision_task_MP_exp2,2020.2.5,Linux armv7l,60,,0,-0.43125,-0.28125,1,0,0,0.592,button_left,0.592,1,,,,,,251,NW,"ID",33,lupict,LUPICT,z,,,,,,-0.43125,-0.28125,1,0,0,,0,266,266,250,1,
,,,,,,,,,,,,,,,,,,5df03fabc1ef790aa5595f8f,2020-11-27_15h13.37.905,lexical_decision_task_MP_exp2,2020.2.5,Linux armv7l,60,,0,0.4575,-0.29625,1,0,0,0.581,button_right,0.581,1,,,,,,48,WORD,"ID",33,walnut,WALNUT,m,,,,,,0.4575,-0.29625,1,0,0,,0,267,267,47,1,
,,,,,,,,,,,,,,,,,,5df03fabc1ef790aa5595f8f,2020-11-27_15h13.37.905,lexical_decision_task_MP_exp2,2020.2.5,Linux armv7l,60,,0,0.465,-0.28625,1,0,0,0.574,button_right,0.574,1,,,,,,205,WORD,UN,16,tailor,LOUNGE,m,,,,,,0.465,-0.28625,1,0,0,,0,268,268,204,1,
,,,,,,,,,,,,,,,,,,5df03fabc1ef790aa5595f8f,2020-11-27_15h13.37.905,lexical_decision_task_MP_exp2,2020.2.5,Linux armv7l,60,,0,0.44375,-0.29625,1,0,0,0.709,button_right,0.709,1,,,,,,215,WORD,UN,16,behalf,PHOBIA,m,,,,,,0.44375,-0.29625,1,0,0,,0,269,269,214,1,
,,,,,,,,,,,,,,,,,,5df03fabc1ef790aa5595f8f,2020-11-27_15h13.37.905,lexical_decision_task_MP_exp2,2020.2.5,Linux armv7l,60,,0,0.4475,-0.285,1,0,0,0.803,button_right,0.803,1,,,,,,212,WORD,UN,16,squeal,VERIFY,m,,,,,,0.4475,-0.285,1,0,0,,0,270,270,211,1,
,,,,,,,,,,,,,,,,,,5df03fabc1ef790aa5595f8f,2020-11-27_15h13.37.905,lexical_decision_task_MP_exp2,2020.2.5,Linux armv7l,60,,0,-0.43,-0.285,1,0,0,1.123,button_left,1.123,1,,,,,,305,NW,"ID",16,forgle,FORGLE,z,,,,,,-0.43,-0.285,1,0,0,,0,271,271,304,1,
,,,,,,,,,,,,,,,,,,5df03fabc1ef790aa5595f8f,2020-11-27_15h13.37.905,lexical_decision_task_MP_exp2,2020.2.5,Linux armv7l,60,,0,-0.44,-0.28625,1,0,0,0.683,button_left,0.683,1,,,,,,432,NW,UN,16,drance,LUNKER,z,,,,,,-0.44,-0.28625,1,0,0,,0,272,272,431,1,
,,,,,,,,,,,,,,,,,,5df03fabc1ef790aa5595f8f,2020-11-27_15h13.37.905,lexical_decision_task_MP_exp2,2020.2.5,Linux armv7l,60,,0,0.45,-0.27875,1,0,0,0.84,button_right,0.84,1,,,,,,190,WORD,UN,16,stable,BACKUP,m,,,,,,0.45,-0.27875,1,0,0,,0,273,273,189,1,
,,,,,,,,,,,,,,,,,,5df03fabc1ef790aa5595f8f,2020-11-27_15h13.37.905,lexical_decision_task_MP_exp2,2020.2.5,Linux armv7l,60,,0,0.45375,-0.2875,1,0,0,0.806,button_right,0.806,1,,,,,,28,WORD,"ID",33,comedy,COMEDY,m,,,,,,0.45375,-0.2875,1,0,0,,0,274,274,27,1,
,,,,,,,,,,,,,,,,,,5df03fabc1ef790aa5595f8f,2020-11-27_15h13.37.905,lexical_decision_task_MP_exp2,2020.2.5,Linux armv7l,60,,0,0.46125,-0.285,1,0,0,0.69,button_right,0.69,1,,,,,,161,WORD,UN,33,candle,PASTOR,m,,,,,,0.46125,-0.285,1,0,0,,0,275,275,160,1,
,,,,,,,,,,,,,,,,,,5df03fabc1ef790aa5595f8f,2020-11-27_15h13.37.905,lexical_decision_task_MP_exp2,2020.2.5,Linux armv7l,60,,0,-0.43875,-0.29875,1,0,0,0.685,button_left,0.685,1,,,,,,451,NW,UN,16,surden,CAINKY,z,,,,,,-0.43875,-0.29875,1,0,0,,0,276,276,450,1,
,,,,,,,,,,,,,,,,,,5df03fabc1ef790aa5595f8f,2020-11-27_15h13.37.905,lexical_decision_task_MP_exp2,2020.2.5,Linux armv7l,60,,0,-0.4525,-0.295,1,0,0,0.692,button_left,0.692,1,,,,,,428,NW,UN,16,chrums,TANDLY,z,,,,,,-0.4525,-0.295,1,0,0,,0,277,277,427,1,
,,,,,,,,,,,,,,,,,,5df03fabc1ef790aa5595f8f,2020-11-27_15h13.37.905,lexical_decision_task_MP_exp2,2020.2.5,Linux armv7l,60,,0,-0.445,-0.29375,1,0,0,0.6,button_left,0.6,1,,,,,,465,NW,UN,16,hocite,WHIVEX,z,,,,,,-0.445,-0.29375,1,0,0,,0,278,278,464,1,
,,,,,,,,,,,,,,,,,,5df03fabc1ef790aa5595f8f,2020-11-27_15h13.37.905,lexical_decision_task_MP_exp2,2020.2.5,Linux armv7l,60,,0,-0.45125,-0.295,1,0,0,0.657,button_left,0.657,1,,,,,,388,NW,UN,33,witmer,CRAGIN,z,,,,,,-0.45125,-0.295,1,0,0,,0,279,279,387,1,
,,,,,,,,,,,,,,,,,,5df03fabc1ef790aa5595f8f,2020-11-27_15h13.37.905,lexical_decision_task_MP_exp2,2020.2.5,Linux armv7l,60,,0,-0.45625,-0.29125,1,0,0,0.855,button_left,0.855,1,,,,,,387,NW,UN,33,cragin,GRONCE,z,,,,,,-0.45625,-0.29125,1,0,0,,0,280,280,386,1,
,,,,,,,,,,,,,,,,,,5df03fabc1ef790aa5595f8f,2020-11-27_15h13.37.905,lexical_decision_task_MP_exp2,2020.2.5,Linux armv7l,60,,0,-0.45375,-0.285,1,0,0,0.602,button_left,0.602,1,,,,,,264,NW,"ID",33,vackel,VACKEL,z,,,,,,-0.45375,-0.285,1,0,0,,0,281,281,263,1,
,,,,,,,,,,,,,,,,,,5df03fabc1ef790aa5595f8f,2020-11-27_15h13.37.905,lexical_decision_task_MP_exp2,2020.2.5,Linux armv7l,60,,0,0.46875,-0.295,1,0,0,0.685,button_right,0.685,1,,,,,,156,WORD,UN,33,pastor,CRADLE,m,,,,,,0.46875,-0.295,1,0,0,,0,282,282,155,1,
,,,,,,,,,,,,,,,,,,5df03fabc1ef790aa5595f8f,2020-11-27_15h13.37.905,lexical_decision_task_MP_exp2,2020.2.5,Linux armv7l,60,,0,-0.43125,-0.27875,1,0,0,1.136,button_left,1.136,1,,,,,,433,NW,UN,16,pitrom,DRANCE,z,,,,,,-0.43125,-0.27875,1,0,0,,0,283,283,432,1,
,,,,,,,,,,,,,,,,,,5df03fabc1ef790aa5595f8f,2020-11-27_15h13.37.905,lexical_decision_task_MP_exp2,2020.2.5,Linux armv7l,60,,0,0.4625,-0.2825,1,0,0,0.69,button_right,0.69,1,,,,,,154,WORD,UN,33,lizard,AUTHOR,m,,,,,,0.4625,-0.2825,1,0,0,,0,284,284,153,1,
,,,,,,,,,,,,,,,,,,5df03fabc1ef790aa5595f8f,2020-11-27_15h13.37.905,lexical_decision_task_MP_exp2,2020.2.5,Linux armv7l,60,,0,-0.45125,-0.2925,1,0,0,1.07,button_left,1.07,1,,,,,,298,NW,"ID",33,piergy,PIERGY,z,,,,,,-0.45125,-0.2925,1,0,0,,0,285,285,297,1,
,,,,,,,,,,,,,,,,,,5df03fabc1ef790aa5595f8f,2020-11-27_15h13.37.905,lexical_decision_task_MP_exp2,2020.2.5,Linux armv7l,60,,0,-0.4575,-0.285,1,0,0,0.875,button_left,0.875,1,,,,,,293,NW,"ID",33,swance,SWANCE,z,,,,,,-0.4575,-0.285,1,0,0,,0,286,286,292,1,
,,,,,,,,,,,,,,,,,,5df03fabc1ef790aa5595f8f,2020-11-27_15h13.37.905,lexical_decision_task_MP_exp2,2020.2.5,Linux armv7l,60,,0,0.47625,-0.285,1,0,0,0.802,button_right,0.802,1,,,,,,169,WORD,UN,33,pounce,GENIUS,m,,,,,,0.47625,-0.285,1,0,0,,0,287,287,168,1,
,,,,,,,,,,,,,,,,,,5df03fabc1ef790aa5595f8f,2020-11-27_15h13.37.905,lexical_decision_task_MP_exp2,2020.2.5,Linux armv7l,60,,0,0.47375,-0.285,1,0,0,0.567,button_right,0.567,1,,,,,,14,WORD,"ID",33,almost,ALMOST,m,,,,,,0.47375,-0.285,1,0,0,,0,288,288,13,1,
,,,,,,,,,,,,,,,,,,5df03fabc1ef790aa5595f8f,2020-11-27_15h13.37.905,lexical_decision_task_MP_exp2,2020.2.5,Linux armv7l,60,,0,-0.4575,-0.28375,1,0,0,0.626,button_left,0.626,1,,,,,,354,NW,"ID",16,virlex,VIRLEX,z,,,,,,-0.4575,-0.28375,1,0,0,,0,289,289,353,1,
,,,,,,,,,,,,,,,,,,5df03fabc1ef790aa5595f8f,2020-11-27_15h13.37.905,lexical_decision_task_MP_exp2,2020.2.5,Linux armv7l,60,,0,-0.455,-0.2775,1,0,0,1.044,button_left,1.044,1,,,,,,402,NW,UN,33,bruats,SYNTIC,z,,,,,,-0.455,-0.2775,1,0,0,,0,290,290,401,1,
,,,,,,,,,,,,,,,,,,5df03fabc1ef790aa5595f8f,2020-11-27_15h13.37.905,lexical_decision_task_MP_exp2,2020.2.5,Linux armv7l,60,,0,-0.435,-0.27625,1,0,0,0.664,button_left,0.664,1,,,,,,363,NW,UN,33,impote,BREALI,z,,,,,,-0.435,-0.27625,1,0,0,,0,291,291,362,1,
,,,,,,,,,,,,,,,,,,5df03fabc1ef790aa5595f8f,2020-11-27_15h13.37.905,lexical_decision_task_MP_exp2,2020.2.5,Linux armv7l,60,,0,0.475,-0.28,1,0,0,0.594,button_right,0.594,1,,,,,,112,WORD,"ID",16,breath,BREATH,m,,,,,,0.475,-0.28,1,0,0,,0,292,292,111,1,
,,,,,,,,,,,,,,,,,,5df03fabc1ef790aa5595f8f,2020-11-27_15h13.37.905,lexical_decision_task_MP_exp2,2020.2.5,Linux armv7l,60,,0,-0.45125,-0.29,1,0,0,0.662,button_left,0.662,1,,,,,,459,NW,UN,16,mingar,BAFENT,z,,,,,,-0.45125,-0.29,1,0,0,,0,293,293,458,1,
,,,,,,,,,,,,,,,,,,5df03fabc1ef790aa5595f8f,2020-11-27_15h13.37.905,lexical_decision_task_MP_exp2,2020.2.5,Linux armv7l,60,,0,0.46875,-0.28125,1,0,0,0.654,button_right,0.654,1,,,,,,140,WORD,UN,33,reason,PRINCE,m,,,,,,0.46875,-0.28125,1,0,0,,0,294,294,139,1,
,,,,,,,,,,,,,,,,,,5df03fabc1ef790aa5595f8f,2020-11-27_15h13.37.905,lexical_decision_task_MP_exp2,2020.2.5,Linux armv7l,60,,0,-0.46125,-0.2825,1,0,0,0.839,button_left,0.839,1,,,,,,373,NW,UN,33,injore,BIGENT,z,,,,,,-0.46125,-0.2825,1,0,0,,0,295,295,372,1,
,,,,,,,,,,,,,,,,,,5df03fabc1ef790aa5595f8f,2020-11-27_15h13.37.905,lexical_decision_task_MP_exp2,2020.2.5,Linux armv7l,60,,0,-0.46,-0.28125,1,0,0,0.765,button_left,0.765,1,,,,,,317,NW,"ID",16,worbal,WORBAL,z,,,,,,-0.46,-0.28125,1,0,0,,0,296,296,316,1,
,,,,,,,,,,,,,,,,,,5df03fabc1ef790aa5595f8f,2020-11-27_15h13.37.905,lexical_decision_task_MP_exp2,2020.2.5,Linux armv7l,60,,0,0.47375,-0.28125,1,0,0,0.587,button_right,0.587,1,,,,,,232,WORD,UN,16,nature,INJECT,m,,,,,,0.47375,-0.28125,1,0,0,,0,297,297,231,1,
,,,,,,,,,,,,,,,,,,5df03fabc1ef790aa5595f8f,2020-11-27_15h13.37.905,lexical_decision_task_MP_exp2,2020.2.5,Linux armv7l,60,,0,0.47,-0.28375,1,0,0,0.593,button_right,0.593,1,,,,,,187,WORD,UN,16,social,COURSE,m,,,,,,0.47,-0.28375,1,0,0,,0,298,298,186,1,
,,,,,,,,,,,,,,,,,,5df03fabc1ef790aa5595f8f,2020-11-27_15h13.37.905,lexical_decision_task_MP_exp2,2020.2.5,Linux armv7l,60,,0,-0.45,-0.29,1,0,0,0.756,button_left,0.756,1,,,,,,466,NW,UN,16,pebric,HOCITE,z,,,,,,-0.45,-0.29,1,0,0,,0,299,299,465,1,
,,,,,,,,,,,,,,,,,,5df03fabc1ef790aa5595f8f,2020-11-27_15h13.37.905,lexical_decision_task_MP_exp2,2020.2.5,Linux armv7l,60,,0,0.41375,-0.3075,1,0,0,0.695,button_right,0.695,1,,,,,,179,WORD,UN,33,silent,BASKET,m,,,,,,0.41375,-0.3075,1,0,0,,0,300,300,178,1,
,,,,,,,,,,,,,,,,,,5df03fabc1ef790aa5595f8f,2020-11-27_15h13.37.905,lexical_decision_task_MP_exp2,2020.2.5,Linux armv7l,60,,0,0.41375,-0.295,1,0,0,0.887,button_right,0.887,1,,,,,,94,WORD,"ID",16,travel,TRAVEL,m,,,,,,0.41375,-0.295,1,0,0,,0,301,301,93,1,
,,,,,,,,,,,,,,,,,,5df03fabc1ef790aa5595f8f,2020-11-27_15h13.37.905,lexical_decision_task_MP_exp2,2020.2.5,Linux armv7l,60,,0,0.42375,-0.29625,1,0,0,0.579,button_right,0.579,1,,,,,,130,WORD,UN,33,quench,STUPID,m,,,,,,0.42375,-0.29625,1,0,0,,0,302,302,129,1,
,,,,,,,,,,,,,,,,,,5df03fabc1ef790aa5595f8f,2020-11-27_15h13.37.905,lexical_decision_task_MP_exp2,2020.2.5,Linux armv7l,60,,0,-0.38625,-0.2875,1,0,0,0.642,button_left,0.642,1,,,,,,472,NW,UN,16,crible,CIGNEY,z,,,,,,-0.38625,-0.2875,1,0,0,,0,303,303,471,1,
,,,,,,,,,,,,,,,,,,5df03fabc1ef790aa5595f8f,2020-11-27_15h13.37.905,lexical_decision_task_MP_exp2,2020.2.5,Linux armv7l,60,,0,0.425,-0.2925,1,0,0,0.649,button_right,0.649,1,,,,,,88,WORD,"ID",16,hunger,HUNGER,m,,,,,,0.425,-0.2925,1,0,0,,0,304,304,87,1,
,,,,,,,,,,,,,,,,,,5df03fabc1ef790aa5595f8f,2020-11-27_15h13.37.905,lexical_decision_task_MP_exp2,2020.2.5,Linux armv7l,60,,0,-0.39875,-0.28875,1,0,0,0.636,button_left,0.636,1,,,,,,426,NW,UN,16,frudge,URIVEL,z,,,,,,-0.39875,-0.28875,1,0,0,,0,305,305,425,1,
,,,,,,,,,,,,,,,,,,5df03fabc1ef790aa5595f8f,2020-11-27_15h13.37.905,lexical_decision_task_MP_exp2,2020.2.5,Linux armv7l,60,,0,-0.405,-0.29875,1,0,0,0.648,button_left,0.648,1,,,,,,471,NW,UN,16,cigney,NOBEST,z,,,,,,-0.405,-0.29875,1,0,0,,0,306,306,470,1,
,,,,,,,,,,,,,,,,,,5df03fabc1ef790aa5595f8f,2020-11-27_15h13.37.905,lexical_decision_task_MP_exp2,2020.2.5,Linux armv7l,60,,0,0.43375,-0.29125,1,0,0,0.663,button_right,0.663,1,,,,,,177,WORD,UN,33,inform,ADVENT,m,,,,,,0.43375,-0.29125,1,0,0,,0,307,307,176,1,
,,,,,,,,,,,,,,,,,,5df03fabc1ef790aa5595f8f,2020-11-27_15h13.37.905,lexical_decision_task_MP_exp2,2020.2.5,Linux armv7l,60,,0,0.45,-0.2925,1,0,0,0.528,button_right,0.528,1,,,,,,146,WORD,UN,33,garlic,COUPLE,m,,,,,,0.45,-0.2925,1,0,0,,0,308,308,145,1,
,,,,,,,,,,,,,,,,,,5df03fabc1ef790aa5595f8f,2020-11-27_15h13.37.905,lexical_decision_task_MP_exp2,2020.2.5,Linux armv7l,60,,0,-0.405,-0.29875,1,0,0,0.76,button_left,0.76,1,,,,,,452,NW,UN,16,bolvis,SURDEN,z,,,,,,-0.405,-0.29875,1,0,0,,0,309,309,451,1,
,,,,,,,,,,,,,,,,,,5df03fabc1ef790aa5595f8f,2020-11-27_15h13.37.905,lexical_decision_task_MP_exp2,2020.2.5,Linux armv7l,60,,0,0.4325,-0.2975,1,0,0,0.682,button_right,0.682,1,,,,,,206,WORD,UN,16,wreath,TAILOR,m,,,,,,0.4325,-0.2975,1,0,0,,0,310,310,205,1,
,,,,,,,,,,,,,,,,,,5df03fabc1ef790aa5595f8f,2020-11-27_15h13.37.905,lexical_decision_task_MP_exp2,2020.2.5,Linux armv7l,60,,0,-0.3975,-0.3075,1,0,0,0.624,button_left,0.624,1,,,,,,344,NW,"ID",16,scrily,SCRILY,z,,,,,,-0.3975,-0.3075,1,0,0,,0,311,311,343,1,
,,,,,,,,,,,,,,,,,,5df03fabc1ef790aa5595f8f,2020-11-27_15h13.37.905,lexical_decision_task_MP_exp2,2020.2.5,Linux armv7l,60,,0,-0.40875,-0.3025,1,0,0,0.582,button_left,0.582,1,,,,,,262,NW,"ID",33,quilew,QUILEW,z,,,,,,-0.40875,-0.3025,1,0,0,,0,312,312,261,1,
,,,,,,,,,,,,,,,,,,5df03fabc1ef790aa5595f8f,2020-11-27_15h13.37.905,lexical_decision_task_MP_exp2,2020.2.5,Linux armv7l,60,,0,-0.4075,-0.30125,1,0,0,0.629,button_left,0.629,1,,,,,,322,NW,"ID",16,slanch,SLANCH,z,,,,,,-0.4075,-0.30125,1,0,0,,0,313,313,321,1,
,,,,,,,,,,,,,,,,,,5df03fabc1ef790aa5595f8f,2020-11-27_15h13.37.905,lexical_decision_task_MP_exp2,2020.2.5,Linux armv7l,60,,0,-0.41375,-0.29625,1,0,0,0.692,button_left,0.692,1,,,,,,478,NW,UN,16,lobush,ACRISE,z,,,,,,-0.41375,-0.29625,1,0,0,,0,314,314,477,1,
,,,,,,,,,,,,,,,,,,5df03fabc1ef790aa5595f8f,2020-11-27_15h13.37.905,lexical_decision_task_MP_exp2,2020.2.5,Linux armv7l,60,,0,0.4475,-0.29875,1,0,0,0.573,button_right,0.573,1,,,,,,58,WORD,"ID",33,foster,FOSTER,m,,,,,,0.4475,-0.29875,1,0,0,,0,315,315,57,1,
,,,,,,,,,,,,,,,,,,5df03fabc1ef790aa5595f8f,2020-11-27_15h13.37.905,lexical_decision_task_MP_exp2,2020.2.5,Linux armv7l,60,,0,0.43875,-0.29375,1,0,0,0.794,button_right,0.794,1,,,,,,1,WORD,"ID",33,fright,FRIGHT,m,,,,,,0.43875,-0.29375,1,0,0,,0,316,316,0,1,
,,,,,,,,,,,,,,,,,,5df03fabc1ef790aa5595f8f,2020-11-27_15h13.37.905,lexical_decision_task_MP_exp2,2020.2.5,Linux armv7l,60,,0,0.44125,-0.28625,1,0,0,0.601,button_right,0.601,1,,,,,,226,WORD,UN,16,flower,CASINO,m,,,,,,0.44125,-0.28625,1,0,0,,0,317,317,225,1,
,,,,,,,,,,,,,,,,,,5df03fabc1ef790aa5595f8f,2020-11-27_15h13.37.905,lexical_decision_task_MP_exp2,2020.2.5,Linux armv7l,60,,0,0.43625,-0.29125,1,0,0,0.696,button_right,0.696,1,,,,,,4,WORD,"ID",33,trench,TRENCH,m,,,,,,0.43625,-0.29125,1,0,0,,0,318,318,3,1,
,,,,,,,,,,,,,,,,,,5df03fabc1ef790aa5595f8f,2020-11-27_15h13.37.905,lexical_decision_task_MP_exp2,2020.2.5,Linux armv7l,60,,0,0.435,-0.29625,1,0,0,0.608,button_right,0.608,1,,,,,,64,WORD,"ID",16,throne,THRONE,m,,,,,,0.435,-0.29625,1,0,0,,0,319,319,63,1,
,,,,,,,,,,,,,,,,,,5df03fabc1ef790aa5595f8f,2020-11-27_15h13.37.905,lexical_decision_task_MP_exp2,2020.2.5,Linux armv7l,60,,0,0.43625,-0.3,1,0,0,0.58,button_right,0.58,1,,,,,,136,WORD,UN,33,finger,BLEACH,m,,,,,,0.43625,-0.3,1,0,0,,0,320,320,135,1,
,,,,,,,,,,,,,,,,,,5df03fabc1ef790aa5595f8f,2020-11-27_15h13.37.905,lexical_decision_task_MP_exp2,2020.2.5,Linux armv7l,60,,0,-0.41375,-0.295,1,0,0,0.619,button_left,0.619,1,,,,,,300,NW,"ID",33,yarion,YARION,z,,,,,,-0.41375,-0.295,1,0,0,,0,321,321,299,1,
,,,,,,,,,,,,,,,,,,5df03fabc1ef790aa5595f8f,2020-11-27_15h13.37.905,lexical_decision_task_MP_exp2,2020.2.5,Linux armv7l,60,,0,0.43375,-0.29875,1,0,0,1.176,button_right,1.176,1,,,,,,207,WORD,UN,16,hockey,WREATH,m,,,,,,0.43375,-0.29875,1,0,0,,0,322,322,206,1,
,,,,,,,,,,,,,,,,,,5df03fabc1ef790aa5595f8f,2020-11-27_15h13.37.905,lexical_decision_task_MP_exp2,2020.2.5,Linux armv7l,60,,0,0.43875,-0.3025,1,0,0,1,button_right,1,1,,,,,,195,WORD,UN,16,credit,RESIGN,m,,,,,,0.43875,-0.3025,1,0,0,,0,323,323,194,1,
,,,,,,,,,,,,,,,,,,5df03fabc1ef790aa5595f8f,2020-11-27_15h13.37.905,lexical_decision_task_MP_exp2,2020.2.5,Linux armv7l,60,,0,0.44375,-0.29625,1,0,0,0.599,button_right,0.599,1,,,,,,129,WORD,UN,33,stupid,MARVEL,m,,,,,,0.44375,-0.29625,1,0,0,,0,324,324,128,1,
,,,,,,,,,,,,,,,,,,5df03fabc1ef790aa5595f8f,2020-11-27_15h13.37.905,lexical_decision_task_MP_exp2,2020.2.5,Linux armv7l,60,,0,0.4425,-0.30125,1,0,0,0.623,button_right,0.623,1,,,,,,74,WORD,"ID",16,plaque,PLAQUE,m,,,,,,0.4425,-0.30125,1,0,0,,0,325,325,73,1,
,,,,,,,,,,,,,,,,,,5df03fabc1ef790aa5595f8f,2020-11-27_15h13.37.905,lexical_decision_task_MP_exp2,2020.2.5,Linux armv7l,60,,0,0.4425,-0.29875,1,0,0,0.588,button_right,0.588,1,,,,,,120,WORD,"ID",16,strain,STRAIN,m,,,,,,0.4425,-0.29875,1,0,0,,0,326,326,119,1,
,,,,,,,,,,,,,,,,,,5df03fabc1ef790aa5595f8f,2020-11-27_15h13.37.905,lexical_decision_task_MP_exp2,2020.2.5,Linux armv7l,60,,0,0.43875,-0.3,1,0,0,0.558,button_right,0.558,1,,,,,,57,WORD,"ID",33,change,CHANGE,m,,,,,,0.43875,-0.3,1,0,0,,0,327,327,56,1,
,,,,,,,,,,,,,,,,,,5df03fabc1ef790aa5595f8f,2020-11-27_15h13.37.905,lexical_decision_task_MP_exp2,2020.2.5,Linux armv7l,60,,0,-0.39375,-0.30125,1,0,0,0.583,button_left,0.583,1,,,,,,393,NW,UN,33,spaqux,GANOUS,z,,,,,,-0.39375,-0.30125,1,0,0,,0,328,328,392,1,
,,,,,,,,,,,,,,,,,,5df03fabc1ef790aa5595f8f,2020-11-27_15h13.37.905,lexical_decision_task_MP_exp2,2020.2.5,Linux armv7l,60,,0,0.41375,-0.3075,1,0,0,0.658,button_right,0.658,1,,,,,,118,WORD,"ID",16,flight,FLIGHT,m,,,,,,0.41375,-0.3075,1,0,0,,0,329,329,117,1,
,,,,,,,,,,,,,,,,,,5df03fabc1ef790aa5595f8f,2020-11-27_15h13.37.905,lexical_decision_task_MP_exp2,2020.2.5,Linux armv7l,60,,0,0.44375,-0.3,1,0,0,0.667,button_right,0.667,1,,,,,,213,WORD,UN,16,intake,SQUEAL,m,,,,,,0.44375,-0.3,1,0,0,,0,330,330,212,1,
,,,,,,,,,,,,,,,,,,5df03fabc1ef790aa5595f8f,2020-11-27_15h13.37.905,lexical_decision_task_MP_exp2,2020.2.5,Linux armv7l,60,,0,0.45125,-0.295,1,0,0,0.573,button_right,0.573,1,,,,,,203,WORD,UN,16,burden,PHRASE,m,,,,,,0.45125,-0.295,1,0,0,,0,331,331,202,1,
,,,,,,,,,,,,,,,,,,5df03fabc1ef790aa5595f8f,2020-11-27_15h13.37.905,lexical_decision_task_MP_exp2,2020.2.5,Linux armv7l,60,,0,0.4475,-0.3,1,0,0,0.533,button_right,0.533,1,,,,,,210,WORD,UN,16,infect,MONKEY,m,,,,,,0.4475,-0.3,1,0,0,,0,332,332,209,1,
,,,,,,,,,,,,,,,,,,5df03fabc1ef790aa5595f8f,2020-11-27_15h13.37.905,lexical_decision_task_MP_exp2,2020.2.5,Linux armv7l,60,,0,0.44625,-0.29375,1,0,0,0.802,button_right,0.802,1,,,,,,194,WORD,UN,16,resign,ABSENT,m,,,,,,0.44625,-0.29375,1,0,0,,0,333,333,193,1,
,,,,,,,,,,,,,,,,,,5df03fabc1ef790aa5595f8f,2020-11-27_15h13.37.905,lexical_decision_task_MP_exp2,2020.2.5,Linux armv7l,60,,0,-0.39625,-0.31,1,0,0,0.7,button_left,0.7,1,,,,,,249,NW,"ID",33,batrol,BATROL,z,,,,,,-0.39625,-0.31,1,0,0,,0,334,334,248,1,
,,,,,,,,,,,,,,,,,,5df03fabc1ef790aa5595f8f,2020-11-27_15h13.37.905,lexical_decision_task_MP_exp2,2020.2.5,Linux armv7l,60,,0,0.445,-0.3075,1,0,0,0.625,button_right,0.625,1,,,,,,159,WORD,UN,33,violet,DETAIL,m,,,,,,0.445,-0.3075,1,0,0,,0,335,335,158,1,
,,,,,,,,,,,,,,,,,,5df03fabc1ef790aa5595f8f,2020-11-27_15h13.37.905,lexical_decision_task_MP_exp2,2020.2.5,Linux armv7l,60,,0,-0.405,-0.30375,1,0,0,0.626,button_left,0.626,1,,,,,,444,NW,UN,16,minkel,JAUNCE,z,,,,,,-0.405,-0.30375,1,0,0,,0,336,336,443,1,
,,,,,,,,,,,,,,,,,,5df03fabc1ef790aa5595f8f,2020-11-27_15h13.37.905,lexical_decision_task_MP_exp2,2020.2.5,Linux armv7l,60,,0,0.44375,-0.30125,1,0,0,1.038,button_right,1.038,1,,,,,,111,WORD,"ID",16,induce,INDUCE,m,,,,,,0.44375,-0.30125,1,0,0,,0,337,337,110,1,
,,,,,,,,,,,,,,,,,,5df03fabc1ef790aa5595f8f,2020-11-27_15h13.37.905,lexical_decision_task_MP_exp2,2020.2.5,Linux armv7l,60,,0,0.4425,-0.30125,1,0,0,0.52,button_right,0.52,1,,,,,,38,WORD,"ID",33,powder,POWDER,m,,,,,,0.4425,-0.30125,1,0,0,,0,338,338,37,1,
,,,,,,,,,,,,,,,,,,5df03fabc1ef790aa5595f8f,2020-11-27_15h13.37.905,lexical_decision_task_MP_exp2,2020.2.5,Linux armv7l,60,,0,0.44,-0.3025,1,0,0,0.514,button_right,0.514,1,,,,,,20,WORD,"ID",33,breast,BREAST,m,,,,,,0.44,-0.3025,1,0,0,,0,339,339,19,1,
,,,,,,,,,,,,,,,,,,5df03fabc1ef790aa5595f8f,2020-11-27_15h13.37.905,lexical_decision_task_MP_exp2,2020.2.5,Linux armv7l,60,,0,0.445,-0.30375,1,0,0,0.542,button_right,0.542,1,,,,,,70,WORD,"ID",16,square,SQUARE,m,,,,,,0.445,-0.30375,1,0,0,,0,340,340,69,1,
,,,,,,,,,,,,,,,,,,5df03fabc1ef790aa5595f8f,2020-11-27_15h13.37.905,lexical_decision_task_MP_exp2,2020.2.5,Linux armv7l,60,,0,-0.4,-0.3,1,0,0,0.721,button_left,0.721,1,,,,,,360,NW,"ID",16,desory,DESORY,z,,,,,,-0.4,-0.3,1,0,0,,0,341,341,359,1,
,,,,,,,,,,,,,,,,,,5df03fabc1ef790aa5595f8f,2020-11-27_15h13.37.905,lexical_decision_task_MP_exp2,2020.2.5,Linux armv7l,60,,0,-0.38625,-0.29375,1,0,0,0.715,button_left,0.715,1,,,,,,296,NW,"ID",33,beinch,BEINCH,z,,,,,,-0.38625,-0.29375,1,0,0,,0,342,342,295,1,
,,,,,,,,,,,,,,,,,,5df03fabc1ef790aa5595f8f,2020-11-27_15h13.37.905,lexical_decision_task_MP_exp2,2020.2.5,Linux armv7l,60,,0,-0.395,-0.3,1,0,0,0.523,button_left,0.523,1,,,,,,271,NW,"ID",33,aubrid,AUBRID,z,,,,,,-0.395,-0.3,1,0,0,,0,343,343,270,1,
,,,,,,,,,,,,,,,,,,5df03fabc1ef790aa5595f8f,2020-11-27_15h13.37.905,lexical_decision_task_MP_exp2,2020.2.5,Linux armv7l,60,,0,0.44,-0.32,1,0,0,0.561,button_right,0.561,1,,,,,,162,WORD,UN,33,string,CANDLE,m,,,,,,0.44,-0.32,1,0,0,,0,344,344,161,1,
,,,,,,,,,,,,,,,,,,5df03fabc1ef790aa5595f8f,2020-11-27_15h13.37.905,lexical_decision_task_MP_exp2,2020.2.5,Linux armv7l,60,,0,-0.39625,-0.2975,1,0,0,1.058,button_left,1.058,1,,,,,,319,NW,"ID",16,zomber,ZOMBER,z,,,,,,-0.39625,-0.2975,1,0,0,,0,345,345,318,1,
,,,,,,,,,,,,,,,,,,5df03fabc1ef790aa5595f8f,2020-11-27_15h13.37.905,lexical_decision_task_MP_exp2,2020.2.5,Linux armv7l,60,,0,0.4575,-0.30625,1,0,0,0.735,button_right,0.735,1,,,,,,200,WORD,UN,16,admire,BEACON,m,,,,,,0.4575,-0.30625,1,0,0,,0,346,346,199,1,
,,,,,,,,,,,,,,,,,,5df03fabc1ef790aa5595f8f,2020-11-27_15h13.37.905,lexical_decision_task_MP_exp2,2020.2.5,Linux armv7l,60,,0,0.46125,-0.2975,1,0,0,0.712,button_right,0.712,1,,,,,,135,WORD,UN,33,chrome,IMPORT,m,,,,,,0.46125,-0.2975,1,0,0,,0,347,347,134,1,
,,,,,,,,,,,,,,,,,,5df03fabc1ef790aa5595f8f,2020-11-27_15h13.37.905,lexical_decision_task_MP_exp2,2020.2.5,Linux armv7l,60,,0,-0.41625,-0.29,1,0,0,1.242,button_left,1.242,1,,,,,,285,NW,"ID",33,prudge,PRUDGE,z,,,,,,-0.41625,-0.29,1,0,0,,0,348,348,284,1,
,,,,,,,,,,,,,,,,,,5df03fabc1ef790aa5595f8f,2020-11-27_15h13.37.905,lexical_decision_task_MP_exp2,2020.2.5,Linux armv7l,60,,0,-0.41,-0.2875,1,0,0,0.804,button_left,0.804,1,,,,,,297,NW,"ID",33,fertic,FERTIC,z,,,,,,-0.41,-0.2875,1,0,0,,0,349,349,296,1,
,,,,,,,,,,,,,,,,,,5df03fabc1ef790aa5595f8f,2020-11-27_15h13.37.905,lexical_decision_task_MP_exp2,2020.2.5,Linux armv7l,60,,0,0.46125,-0.30625,1,0,0,0.946,button_right,0.946,1,,,,,,91,WORD,"ID",16,expand,EXPAND,m,,,,,,0.46125,-0.30625,1,0,0,,0,350,350,90,1,
,,,,,,,,,,,,,,,,,,5df03fabc1ef790aa5595f8f,2020-11-27_15h13.37.905,lexical_decision_task_MP_exp2,2020.2.5,Linux armv7l,60,,0,0.45,-0.30125,1,0,0,0.906,button_right,0.906,1,,,,,,185,WORD,UN,16,portal,BOTHER,m,,,,,,0.45,-0.30125,1,0,0,,0,351,351,184,1,
,,,,,,,,,,,,,,,,,,5df03fabc1ef790aa5595f8f,2020-11-27_15h13.37.905,lexical_decision_task_MP_exp2,2020.2.5,Linux armv7l,60,,0,0.43875,-0.3025,1,0,0,0.604,button_right,0.604,1,,,,,,15,WORD,"ID",33,amount,AMOUNT,m,,,,,,0.43875,-0.3025,1,0,0,,0,352,352,14,1,
,,,,,,,,,,,,,,,,,,5df03fabc1ef790aa5595f8f,2020-11-27_15h13.37.905,lexical_decision_task_MP_exp2,2020.2.5,Linux armv7l,60,,0,0.4375,-0.29625,1,0,0,0.693,button_right,0.693,1,,,,,,116,WORD,"ID",16,tumble,TUMBLE,m,,,,,,0.4375,-0.29625,1,0,0,,0,353,353,115,1,
,,,,,,,,,,,,,,,,,,5df03fabc1ef790aa5595f8f,2020-11-27_15h13.37.905,lexical_decision_task_MP_exp2,2020.2.5,Linux armv7l,60,,0,-0.39875,-0.29375,1,0,0,0.718,button_left,0.718,1,,,,,,280,NW,"ID",33,curbol,CURBOL,z,,,,,,-0.39875,-0.29375,1,0,0,,0,354,354,279,1,
,,,,,,,,,,,,,,,,,,5df03fabc1ef790aa5595f8f,2020-11-27_15h13.37.905,lexical_decision_task_MP_exp2,2020.2.5,Linux armv7l,60,,0,-0.41375,-0.295,1,0,0,0.708,button_left,0.708,1,,,,,,381,NW,UN,33,sarley,HUNIEK,z,,,,,,-0.41375,-0.295,1,0,0,,0,355,355,380,1,
,,,,,,,,,,,,,,,,,,5df03fabc1ef790aa5595f8f,2020-11-27_15h13.37.905,lexical_decision_task_MP_exp2,2020.2.5,Linux armv7l,60,,0,-0.4175,-0.28875,1,0,0,0.651,button_left,0.651,1,,,,,,362,NW,UN,33,breali,TIREAU,z,,,,,,-0.4175,-0.28875,1,0,0,,0,356,356,361,1,
,,,,,,,,,,,,,,,,,,5df03fabc1ef790aa5595f8f,2020-11-27_15h13.37.905,lexical_decision_task_MP_exp2,2020.2.5,Linux armv7l,60,,0,-0.42375,-0.28125,1,0,0,0.62,button_left,0.62,1,,,,,,371,NW,UN,33,ramily,GEILOY,z,,,,,,-0.42375,-0.28125,1,0,0,,0,357,357,370,1,
,,,,,,,,,,,,,,,,,,5df03fabc1ef790aa5595f8f,2020-11-27_15h13.37.905,lexical_decision_task_MP_exp2,2020.2.5,Linux armv7l,60,,0,0.445,-0.3,1,0,0,0.701,button_right,0.701,1,,,,,,90,WORD,"ID",16,relish,RELISH,m,,,,,,0.445,-0.3,1,0,0,,0,358,358,89,1,
,,,,,,,,,,,,,,,,,,5df03fabc1ef790aa5595f8f,2020-11-27_15h13.37.905,lexical_decision_task_MP_exp2,2020.2.5,Linux armv7l,60,,0,0.44,-0.3,1,0,0,0.58,button_right,0.58,1,,,,,,145,WORD,UN,33,couple,PARISH,m,,,,,,0.44,-0.3,1,0,0,,0,359,359,144,1,
,,,,,,,,,,,,,,,,,,5df03fabc1ef790aa5595f8f,2020-11-27_15h13.37.905,lexical_decision_task_MP_exp2,2020.2.5,Linux armv7l,60,,0,-0.40625,-0.28875,1,0,0,0.665,button_left,0.665,1,,,,,,330,NW,"ID",16,kensom,KENSOM,z,,,,,,-0.40625,-0.28875,1,0,0,,0,360,360,329,1,
,,,,,,,,,,,,,,,,,,5df03fabc1ef790aa5595f8f,2020-11-27_15h13.37.905,lexical_decision_task_MP_exp2,2020.2.5,Linux armv7l,60,,0,-0.3775,-0.28,1,0,0,0.639,button_left,0.639,1,,,,,,259,NW,"ID",33,soudal,SOUDAL,z,,,,,,-0.3775,-0.28,1,0,0,,0,361,361,258,1,
,,,,,,,,,,,,,,,,,,5df03fabc1ef790aa5595f8f,2020-11-27_15h13.37.905,lexical_decision_task_MP_exp2,2020.2.5,Linux armv7l,60,,0,-0.38625,-0.2775,1,0,0,0.608,button_left,0.608,1,,,,,,391,NW,UN,33,rouncy,THELDY,z,,,,,,-0.08375,-0.39625,1,0,0,,0,362,362,390,1,break_done_button
,,,,,,,,,,,,,,,,,,5df03fabc1ef790aa5595f8f,2020-11-27_15h13.37.905,lexical_decision_task_MP_exp2,2020.2.5,Linux armv7l,60,,0,0.45625,-0.3125,1,0,0,0.745,button_right,0.745,1,,,,,,75,WORD,"ID",16,trophy,TROPHY,m,,,,,,0.45625,-0.3125,1,0,0,,0,363,363,74,1,
