counterbalancing_condition,instr_done_keyboard.keys,instr_done_touch.x,instr_done_touch.y,instr_done_touch.leftButton,instr_done_touch.midButton,instr_done_touch.rightButton,instr_done_touch.clicked_name,instruction_pages.thisRepN,instruction_pages.thisTrialN,instruction_pages.thisN,instruction_pages.thisIndex,instruction_pages.ran,pageN,phase,instruct_text,has_image,instruct_image,participant,date,expName,psychopyVersion,OS,frameRate,instr_done_keyboard.rt,response.keys,response.corr,touch_resp.x,touch_resp.y,touch_resp.leftButton,touch_resp.midButton,touch_resp.rightButton,touch_resp.time,touch_resp.clicked_name,rt,corr,practice_trials.thisRepN,practice_trials.thisTrialN,practice_trials.thisN,practice_trials.thisIndex,practice_trials.ran,TrialID,StimulusType,Condition,PrimeDuration,Prime,Target,corrAns,response.rt,end_of_practice_trials_pages.thisRepN,end_of_practice_trials_pages.thisTrialN,end_of_practice_trials_pages.thisN,end_of_practice_trials_pages.thisIndex,end_of_practice_trials_pages.ran,break_done_touch.x,break_done_touch.y,break_done_touch.leftButton,break_done_touch.midButton,break_done_touch.rightButton,break_done_keyboard.keys,trials.thisRepN,trials.thisTrialN,trials.thisN,trials.thisIndex,trials.ran
2,,0.022222222,-0.394444444,1,0,0,instr_done_button,0,0,0,0,1,1,instructions,"INSTRUCTIONS
At the start of each trial, look at the hash marks (######) in the center of the screen. After a moment, a string of letters will appear. Your task is to indicate if the letter string forms a word or not (i.e., if it is a nonword). For example, AUTHOR is a word while AUTHON is a nonword.

Press the space bar or touch the button below to continue.",0,,5e19b24b2bf9512392d6dd90,2020-11-25_16h38.49.439,lexical_decision_task_MP_exp2,2020.2.5,Win32,60,,,,,,,,,,,,,,,,,,,,,,,,,,,,,,,,,,,,,,,,,
,space,0.022222222,-0.394444444,0,0,0,,0,1,1,1,1,2,instructions,"If your device has a keyboard, press the 'Z' key for nonwords and the 'M' key for words.





Press the space bar or touch the button below to continue.",1,keyboard-example.gif,5e19b24b2bf9512392d6dd90,2020-11-25_16h38.49.439,lexical_decision_task_MP_exp2,2020.2.5,Win32,60,12.23034,,,,,,,,,,,,,,,,,,,,,,,,,,,,,,,,,,,,,,,,
,space,0.022222222,-0.394444444,0,0,0,,0,2,2,2,1,3,instructions,"If you are using a touchscreen only device, use the buttons on the screen. Do not use the mouse.





Press the space bar or touch the button below to continue.",1,touchscreen-example.gif,5e19b24b2bf9512392d6dd90,2020-11-25_16h38.49.439,lexical_decision_task_MP_exp2,2020.2.5,Win32,60,7.445615,,,,,,,,,,,,,,,,,,,,,,,,,,,,,,,,,,,,,,,,
,space,0.022222222,-0.394444444,0,0,0,,0,3,3,3,1,4,instructions,"It is very important that you respond as quickly and accurately as possible, as each letter string will only be on the screen for two seconds. If you do not respond within this time, the message 'Too slow!' will be displayed and the experiment will progress to the next letter string. The first 20 trials will be practice trials and you will receive feedback on your answers. 

Press the space bar or touch the button below to start the practice trials.",0,,5e19b24b2bf9512392d6dd90,2020-11-25_16h38.49.439,lexical_decision_task_MP_exp2,2020.2.5,Win32,60,15.444955,,,,,,,,,,,,,,,,,,,,,,,,,,,,,,,,,,,,,,,,
,,,,,,,,,,,,,,,,,,5e19b24b2bf9512392d6dd90,2020-11-25_16h38.49.439,lexical_decision_task_MP_exp2,2020.2.5,Win32,60,,,0,,,,,,,,,-1,0,0,0,9,1,1010,NW,"ID",33,fariny,FARINY,z,,,,,,,,,,,,,,,,,
,,,,,,,,,,,,,,,,,,5e19b24b2bf9512392d6dd90,2020-11-25_16h38.49.439,lexical_decision_task_MP_exp2,2020.2.5,Win32,60,,,0,,,,,,,,,-1,0,1,1,15,1,1016,NW,UN,16,mushed,WHAISE,z,,,,,,,,,,,,,,,,,
,,,,,,,,,,,,,,,,,,5e19b24b2bf9512392d6dd90,2020-11-25_16h38.49.439,lexical_decision_task_MP_exp2,2020.2.5,Win32,60,,,0,,,,,,,,,-1,0,2,2,6,1,1007,WORD,UN,16,tropic,ZOMBIE,m,,,,,,,,,,,,,,,,,
,,,,,,,,,,,,,,,,,,5e19b24b2bf9512392d6dd90,2020-11-25_16h38.49.439,lexical_decision_task_MP_exp2,2020.2.5,Win32,60,,,0,,,,,,,,,-1,0,3,3,11,1,1012,NW,"ID",16,rashet,RASHET,z,,,,,,,,,,,,,,,,,
,,,,,,,,,,,,,,,,,,5e19b24b2bf9512392d6dd90,2020-11-25_16h38.49.439,lexical_decision_task_MP_exp2,2020.2.5,Win32,60,,m,1,,,,,,,,1.180005,1,0,4,4,4,1,1005,WORD,UN,33,abound,SQUEAK,m,1.180005,,,,,,,,,,,,,,,,
,,,,,,,,,,,,,,,,,,5e19b24b2bf9512392d6dd90,2020-11-25_16h38.49.439,lexical_decision_task_MP_exp2,2020.2.5,Win32,60,,m,1,,,,,,,,1.16429,1,0,5,5,0,1,1001,WORD,"ID",33,utopia,UTOPIA,m,1.16429,,,,,,,,,,,,,,,,
,,,,,,,,,,,,,,,,,,5e19b24b2bf9512392d6dd90,2020-11-25_16h38.49.439,lexical_decision_task_MP_exp2,2020.2.5,Win32,60,,m,1,,,,,,,,1.579285,1,0,6,6,5,1,1006,WORD,UN,33,frenzy,OBTAIN,m,1.579285,,,,,,,,,,,,,,,,
,,,,,,,,,,,,,,,,,,5e19b24b2bf9512392d6dd90,2020-11-25_16h38.49.439,lexical_decision_task_MP_exp2,2020.2.5,Win32,60,,z,1,,,,,,,,1.01496,1,0,7,7,14,1,1015,NW,UN,16,miaber,THRALE,z,1.01496,,,,,,,,,,,,,,,,
,,,,,,,,,,,,,,,,,,5e19b24b2bf9512392d6dd90,2020-11-25_16h38.49.439,lexical_decision_task_MP_exp2,2020.2.5,Win32,60,,m,1,,,,,,,,1.605925,1,0,8,8,1,1,1002,WORD,"ID",33,adjust,ADJUST,m,1.605925,,,,,,,,,,,,,,,,
,,,,,,,,,,,,,,,,,,5e19b24b2bf9512392d6dd90,2020-11-25_16h38.49.439,lexical_decision_task_MP_exp2,2020.2.5,Win32,60,,,0,,,,,,,,1.605925,-1,0,9,9,8,1,1009,NW,"ID",33,aslert,ASLERT,z,,,,,,,,,,,,,,,,,
,,,,,,,,,,,,,,,,,,5e19b24b2bf9512392d6dd90,2020-11-25_16h38.49.439,lexical_decision_task_MP_exp2,2020.2.5,Win32,60,,m,1,,,,,,,,1.28269,1,0,10,10,2,1,1003,WORD,"ID",16,almond,ALMOND,m,1.28269,,,,,,,,,,,,,,,,
,,,,,,,,,,,,,,,,,,5e19b24b2bf9512392d6dd90,2020-11-25_16h38.49.439,lexical_decision_task_MP_exp2,2020.2.5,Win32,60,,z,1,,,,,,,,0.948065,1,0,11,11,12,1,1013,NW,UN,33,adveil,SPRINY,z,0.948065,,,,,,,,,,,,,,,,
,,,,,,,,,,,,,,,,,,5e19b24b2bf9512392d6dd90,2020-11-25_16h38.49.439,lexical_decision_task_MP_exp2,2020.2.5,Win32,60,,m,1,,,,,,,,1.13725,1,0,12,12,3,1,1004,WORD,"ID",16,matrix,MATRIX,m,1.13725,,,,,,,,,,,,,,,,
,,,,,,,,,,,,,,,,,,5e19b24b2bf9512392d6dd90,2020-11-25_16h38.49.439,lexical_decision_task_MP_exp2,2020.2.5,Win32,60,,m,1,,,,,,,,1.096425,1,0,13,13,7,1,1008,WORD,UN,16,hurdle,VOLUME,m,1.096425,,,,,,,,,,,,,,,,
,,,,,,,,,,,,,,,,,,5e19b24b2bf9512392d6dd90,2020-11-25_16h38.49.439,lexical_decision_task_MP_exp2,2020.2.5,Win32,60,,z,1,,,,,,,,0.90861,1,0,14,14,13,1,1014,NW,UN,33,winfer,ROUPET,z,0.90861,,,,,,,,,,,,,,,,
,,,,,,,,,,,,,,,,,,5e19b24b2bf9512392d6dd90,2020-11-25_16h38.49.439,lexical_decision_task_MP_exp2,2020.2.5,Win32,60,,z,1,,,,,,,,1.56691,1,0,15,15,10,1,1011,NW,"ID",16,inlade,INLADE,z,1.56691,,,,,,,,,,,,,,,,
,,-0.006944444,-0.418055556,1,0,0,instr_done_button,,,,,,1,end_of_practice,"You have completed the practice trials. During the experimental trials, you will not receive feedback, but it is very important that you respond as quickly and accurately as possible. 
Before you begin, please ensure that you are in a comfortable and quiet location and will not be disturbed for about 15 minutes, as we cannot use your data if you do not complete all the trials. 
There will be opportunities to take breaks at regular intervals during the experiment. When you are ready to start the experimental trials, please press space or touch the button below.",,,5e19b24b2bf9512392d6dd90,2020-11-25_16h38.49.439,lexical_decision_task_MP_exp2,2020.2.5,Win32,60,,,,,,,,,,,,,,,,,,,,,,,,,,0,0,0,0,1,,,,,,,,,,,
,,,,,,,,,,,,,,,,,,5e19b24b2bf9512392d6dd90,2020-11-25_16h38.49.439,lexical_decision_task_MP_exp2,2020.2.5,Win32,60,,z,1,,,,,,,,1.03068,1,,,,,,431,NW,UN,33,lunker,CHRUMS,z,1.03068,,,,,,-0.006944444,-0.418055556,0,0,0,,0,0,0,370,1
,,,,,,,,,,,,,,,,,,5e19b24b2bf9512392d6dd90,2020-11-25_16h38.49.439,lexical_decision_task_MP_exp2,2020.2.5,Win32,60,,z,1,,,,,,,,0.850805,1,,,,,,316,NW,"ID",33,scregm,SCREGM,z,0.850805,,,,,,-0.006944444,-0.418055556,0,0,0,,0,1,1,255,1
,,,,,,,,,,,,,,,,,,5e19b24b2bf9512392d6dd90,2020-11-25_16h38.49.439,lexical_decision_task_MP_exp2,2020.2.5,Win32,60,,z,1,,,,,,,,0.887135,1,,,,,,433,NW,UN,33,pitrom,DRANCE,z,0.887135,,,,,,-0.006944444,-0.418055556,0,0,0,,0,2,2,372,1
,,,,,,,,,,,,,,,,,,5e19b24b2bf9512392d6dd90,2020-11-25_16h38.49.439,lexical_decision_task_MP_exp2,2020.2.5,Win32,60,,z,1,,,,,,,,0.888705,1,,,,,,458,NW,UN,33,hocite,BARCET,z,0.888705,,,,,,-0.006944444,-0.418055556,0,0,0,,0,3,3,397,1
,,,,,,,,,,,,,,,,,,5e19b24b2bf9512392d6dd90,2020-11-25_16h38.49.439,lexical_decision_task_MP_exp2,2020.2.5,Win32,60,,m,1,,,,,,,,0.60819,1,,,,,,65,WORD,"ID",33,symbol,SYMBOL,m,0.60819,,,,,,-0.006944444,-0.418055556,0,0,0,,0,4,4,4,1
,,,,,,,,,,,,,,,,,,5e19b24b2bf9512392d6dd90,2020-11-25_16h38.49.439,lexical_decision_task_MP_exp2,2020.2.5,Win32,60,,z,0,,,,,,,,0.77282,0,,,,,,21,WORD,UN,16,jockey,SIMPLE,m,0.77282,,,,,,-0.006944444,-0.418055556,0,0,0,,0,5,5,200,1
,,,,,,,,,,,,,,,,,,5e19b24b2bf9512392d6dd90,2020-11-25_16h38.49.439,lexical_decision_task_MP_exp2,2020.2.5,Win32,60,,z,1,,,,,,,,0.855675,1,,,,,,468,NW,UN,33,padifs,WICTOR,z,0.855675,,,,,,-0.006944444,-0.418055556,0,0,0,,0,6,6,407,1
,,,,,,,,,,,,,,,,,,5e19b24b2bf9512392d6dd90,2020-11-25_16h38.49.439,lexical_decision_task_MP_exp2,2020.2.5,Win32,60,,z,1,,,,,,,,0.77927,1,,,,,,353,NW,"ID",33,clurey,CLUREY,z,0.77927,,,,,,-0.006944444,-0.418055556,0,0,0,,0,7,7,292,1
,,,,,,,,,,,,,,,,,,5e19b24b2bf9512392d6dd90,2020-11-25_16h38.49.439,lexical_decision_task_MP_exp2,2020.2.5,Win32,60,,z,1,,,,,,,,0.81311,1,,,,,,407,NW,"ID",16,suiver,SUIVER,z,0.81311,,,,,,-0.006944444,-0.418055556,0,0,0,,0,8,8,346,1
,,,,,,,,,,,,,,,,,,5e19b24b2bf9512392d6dd90,2020-11-25_16h38.49.439,lexical_decision_task_MP_exp2,2020.2.5,Win32,60,,z,1,,,,,,,,0.6081,1,,,,,,448,NW,UN,33,brunge,SADENT,z,0.6081,,,,,,-0.006944444,-0.418055556,0,0,0,,0,9,9,387,1
,,,,,,,,,,,,,,,,,,5e19b24b2bf9512392d6dd90,2020-11-25_16h38.49.439,lexical_decision_task_MP_exp2,2020.2.5,Win32,60,,z,1,,,,,,,,0.73698,1,,,,,,375,NW,"ID",16,yorque,YORQUE,z,0.73698,,,,,,-0.006944444,-0.418055556,0,0,0,,0,10,10,314,1
,,,,,,,,,,,,,,,,,,5e19b24b2bf9512392d6dd90,2020-11-25_16h38.49.439,lexical_decision_task_MP_exp2,2020.2.5,Win32,60,,z,1,,,,,,,,0.79026,1,,,,,,268,NW,UN,16,orchet,PACKES,z,0.79026,,,,,,-0.006944444,-0.418055556,0,0,0,,0,11,11,447,1
,,,,,,,,,,,,,,,,,,5e19b24b2bf9512392d6dd90,2020-11-25_16h38.49.439,lexical_decision_task_MP_exp2,2020.2.5,Win32,60,,m,1,,,,,,,,0.635915,1,,,,,,48,WORD,UN,16,survey,WALNUT,m,0.635915,,,,,,-0.006944444,-0.418055556,0,0,0,,0,12,12,227,1
,,,,,,,,,,,,,,,,,,5e19b24b2bf9512392d6dd90,2020-11-25_16h38.49.439,lexical_decision_task_MP_exp2,2020.2.5,Win32,60,,m,1,,,,,,,,0.27997,1,,,,,,61,WORD,"ID",33,ponder,PONDER,m,0.27997,,,,,,-0.006944444,-0.418055556,0,0,0,,0,13,13,0,1
,,,,,,,,,,,,,,,,,,5e19b24b2bf9512392d6dd90,2020-11-25_16h38.49.439,lexical_decision_task_MP_exp2,2020.2.5,Win32,60,,z,1,,,,,,,,0.61932,1,,,,,,356,NW,"ID",33,othnis,OTHNIS,z,0.61932,,,,,,-0.006944444,-0.418055556,0,0,0,,0,14,14,295,1
,,,,,,,,,,,,,,,,,,5e19b24b2bf9512392d6dd90,2020-11-25_16h38.49.439,lexical_decision_task_MP_exp2,2020.2.5,Win32,60,,z,0,,,,,,,,0.78153,0,,,,,,62,WORD,"ID",33,region,REGION,m,0.78153,,,,,,-0.006944444,-0.418055556,0,0,0,,0,15,15,1,1
,,,,,,,,,,,,,,,,,,5e19b24b2bf9512392d6dd90,2020-11-25_16h38.49.439,lexical_decision_task_MP_exp2,2020.2.5,Win32,60,,m,0,,,,,,,,0.76557,0,,,,,,272,NW,UN,16,sortel,DAMILT,z,0.76557,,,,,,-0.006944444,-0.418055556,0,0,0,,0,16,16,451,1
,,,,,,,,,,,,,,,,,,5e19b24b2bf9512392d6dd90,2020-11-25_16h38.49.439,lexical_decision_task_MP_exp2,2020.2.5,Win32,60,,z,0,,,,,,,,0.76396,0,,,,,,36,WORD,UN,16,insult,VANISH,m,0.76396,,,,,,-0.006944444,-0.418055556,0,0,0,,0,17,17,215,1
,,,,,,,,,,,,,,,,,,5e19b24b2bf9512392d6dd90,2020-11-25_16h38.49.439,lexical_decision_task_MP_exp2,2020.2.5,Win32,60,,m,1,,,,,,,,1.51464,1,,,,,,209,WORD,UN,33,monkey,SEARCH,m,1.51464,,,,,,-0.006944444,-0.418055556,0,0,0,,0,18,18,148,1
,,,,,,,,,,,,,,,,,,5e19b24b2bf9512392d6dd90,2020-11-25_16h38.49.439,lexical_decision_task_MP_exp2,2020.2.5,Win32,60,,m,1,,,,,,,,0.67378,1,,,,,,52,WORD,UN,16,police,IMPOSE,m,0.67378,,,,,,-0.006944444,-0.418055556,0,0,0,,0,19,19,231,1
,,,,,,,,,,,,,,,,,,5e19b24b2bf9512392d6dd90,2020-11-25_16h38.49.439,lexical_decision_task_MP_exp2,2020.2.5,Win32,60,,z,1,,,,,,,,0.71925,1,,,,,,254,NW,UN,16,apight,VAROSH,z,0.71925,,,,,,-0.006944444,-0.418055556,0,0,0,,0,20,20,433,1
,,,,,,,,,,,,,,,,,,5e19b24b2bf9512392d6dd90,2020-11-25_16h38.49.439,lexical_decision_task_MP_exp2,2020.2.5,Win32,60,,m,1,,,,,,,,0.673825,1,,,,,,2,WORD,UN,16,knight,BRIDGE,m,0.673825,,,,,,-0.006944444,-0.418055556,0,0,0,,0,21,21,181,1
,,,,,,,,,,,,,,,,,,5e19b24b2bf9512392d6dd90,2020-11-25_16h38.49.439,lexical_decision_task_MP_exp2,2020.2.5,Win32,60,,z,1,,,,,,,,0.765635,1,,,,,,430,NW,UN,33,chrums,CAROEY,z,0.765635,,,,,,-0.006944444,-0.418055556,0,0,0,,0,22,22,369,1
,,,,,,,,,,,,,,,,,,5e19b24b2bf9512392d6dd90,2020-11-25_16h38.49.439,lexical_decision_task_MP_exp2,2020.2.5,Win32,60,,z,1,,,,,,,,0.953695,1,,,,,,445,NW,UN,33,runamo,MINKEL,z,0.953695,,,,,,-0.006944444,-0.418055556,0,0,0,,0,23,23,384,1
,,,,,,,,,,,,,,,,,,5e19b24b2bf9512392d6dd90,2020-11-25_16h38.49.439,lexical_decision_task_MP_exp2,2020.2.5,Win32,60,,z,1,,,,,,,,0.836365,1,,,,,,360,NW,"ID",33,desory,DESORY,z,0.836365,,,,,,-0.006944444,-0.418055556,0,0,0,,0,24,24,299,1
,,,,,,,,,,,,,,,,,,5e19b24b2bf9512392d6dd90,2020-11-25_16h38.49.439,lexical_decision_task_MP_exp2,2020.2.5,Win32,60,,z,1,,,,,,,,0.9975,1,,,,,,432,NW,UN,33,drance,LUNKER,z,0.9975,,,,,,-0.006944444,-0.418055556,0,0,0,,0,25,25,371,1
,,,,,,,,,,,,,,,,,,5e19b24b2bf9512392d6dd90,2020-11-25_16h38.49.439,lexical_decision_task_MP_exp2,2020.2.5,Win32,60,,m,1,,,,,,,,0.567075,1,,,,,,127,WORD,"ID",16,castle,CASTLE,m,0.567075,,,,,,-0.006944444,-0.418055556,0,0,0,,0,26,26,66,1
,,,,,,,,,,,,,,,,,,5e19b24b2bf9512392d6dd90,2020-11-25_16h38.49.439,lexical_decision_task_MP_exp2,2020.2.5,Win32,60,,z,1,,,,,,,,0.66872,1,,,,,,354,NW,"ID",33,virlex,VIRLEX,z,0.66872,,,,,,-0.006944444,-0.418055556,0,0,0,,0,27,27,293,1
,,,,,,,,,,,,,,,,,,5e19b24b2bf9512392d6dd90,2020-11-25_16h38.49.439,lexical_decision_task_MP_exp2,2020.2.5,Win32,60,,m,1,,,,,,,,0.781975,1,,,,,,227,WORD,UN,33,master,SELDOM,m,0.781975,,,,,,-0.006944444,-0.418055556,0,0,0,,0,28,28,166,1
,,,,,,,,,,,,,,,,,,5e19b24b2bf9512392d6dd90,2020-11-25_16h38.49.439,lexical_decision_task_MP_exp2,2020.2.5,Win32,60,,m,1,,,,,,,,1.68326,1,,,,,,16,WORD,UN,16,charge,FAUCET,m,1.68326,,,,,,-0.006944444,-0.418055556,0,0,0,,0,29,29,195,1
,,,,,,,,,,,,,,,,,,5e19b24b2bf9512392d6dd90,2020-11-25_16h38.49.439,lexical_decision_task_MP_exp2,2020.2.5,Win32,60,,m,1,,,,,,,,0.73115,1,,,,,,188,WORD,UN,33,censor,SOCIAL,m,0.73115,,,,,,-0.006944444,-0.418055556,0,0,0,,0,30,30,127,1
,,,,,,,,,,,,,,,,,,5e19b24b2bf9512392d6dd90,2020-11-25_16h38.49.439,lexical_decision_task_MP_exp2,2020.2.5,Win32,60,,z,1,,,,,,,,0.93808,1,,,,,,454,NW,UN,33,tondle,SCOUGE,z,0.93808,,,,,,-0.006944444,-0.418055556,0,0,0,,0,31,31,393,1
,,,,,,,,,,,,,,,,,,5e19b24b2bf9512392d6dd90,2020-11-25_16h38.49.439,lexical_decision_task_MP_exp2,2020.2.5,Win32,60,,m,1,,,,,,,,1.03294,1,,,,,,74,WORD,"ID",33,plaque,PLAQUE,m,1.03294,,,,,,-0.006944444,-0.418055556,0,0,0,,0,32,32,13,1
,,,,,,,,,,,,,,,,,,5e19b24b2bf9512392d6dd90,2020-11-25_16h38.49.439,lexical_decision_task_MP_exp2,2020.2.5,Win32,60,,z,1,,,,,,,,0.93019,1,,,,,,374,NW,"ID",16,sliant,SLIANT,z,0.93019,,,,,,-0.006944444,-0.418055556,0,0,0,,0,33,33,313,1
,,,,,,,,,,,,,,,,,,5e19b24b2bf9512392d6dd90,2020-11-25_16h38.49.439,lexical_decision_task_MP_exp2,2020.2.5,Win32,60,,m,1,,,,,,,,0.863965,1,,,,,,126,WORD,"ID",16,enough,ENOUGH,m,0.863965,,,,,,-0.006944444,-0.418055556,0,0,0,,0,34,34,65,1
,,,,,,,,,,,,,,,,,,5e19b24b2bf9512392d6dd90,2020-11-25_16h38.49.439,lexical_decision_task_MP_exp2,2020.2.5,Win32,60,,m,1,,,,,,,,0.781125,1,,,,,,232,WORD,UN,33,nature,INJECT,m,0.781125,,,,,,-0.006944444,-0.418055556,0,0,0,,0,35,35,171,1
,,,,,,,,,,,,,,,,,,5e19b24b2bf9512392d6dd90,2020-11-25_16h38.49.439,lexical_decision_task_MP_exp2,2020.2.5,Win32,60,,m,1,,,,,,,,0.931365,1,,,,,,197,WORD,UN,33,wicked,STREAM,m,0.931365,,,,,,-0.006944444,-0.418055556,0,0,0,,0,36,36,136,1
,,,,,,,,,,,,,,,,,,5e19b24b2bf9512392d6dd90,2020-11-25_16h38.49.439,lexical_decision_task_MP_exp2,2020.2.5,Win32,60,,z,1,,,,,,,,0.81189,1,,,,,,419,NW,"ID",16,slount,SLOUNT,z,0.81189,,,,,,-0.006944444,-0.418055556,0,0,0,,0,37,37,358,1
,,,,,,,,,,,,,,,,,,5e19b24b2bf9512392d6dd90,2020-11-25_16h38.49.439,lexical_decision_task_MP_exp2,2020.2.5,Win32,60,,m,1,,,,,,,,0.830245,1,,,,,,88,WORD,"ID",33,hunger,HUNGER,m,0.830245,,,,,,-0.006944444,-0.418055556,0,0,0,,0,38,38,27,1
,,,,,,,,,,,,,,,,,,5e19b24b2bf9512392d6dd90,2020-11-25_16h38.49.439,lexical_decision_task_MP_exp2,2020.2.5,Win32,60,,m,1,,,,,,,,0.773325,1,,,,,,47,WORD,UN,16,walnut,INCOME,m,0.773325,,,,,,-0.006944444,-0.418055556,0,0,0,,0,39,39,226,1
,,,,,,,,,,,,,,,,,,5e19b24b2bf9512392d6dd90,2020-11-25_16h38.49.439,lexical_decision_task_MP_exp2,2020.2.5,Win32,60,,m,1,,,,,,,,0.806095,1,,,,,,24,WORD,UN,16,domain,PRAISE,m,0.806095,,,,,,-0.006944444,-0.418055556,0,0,0,,0,40,40,203,1
,,,,,,,,,,,,,,,,,,5e19b24b2bf9512392d6dd90,2020-11-25_16h38.49.439,lexical_decision_task_MP_exp2,2020.2.5,Win32,60,,m,1,,,,,,,,0.697335,1,,,,,,20,WORD,UN,16,simple,BREAST,m,0.697335,,,,,,-0.006944444,-0.418055556,0,0,0,,0,41,41,199,1
,,,,,,,,,,,,,,,,,,5e19b24b2bf9512392d6dd90,2020-11-25_16h38.49.439,lexical_decision_task_MP_exp2,2020.2.5,Win32,60,,m,1,,,,,,,,0.731375,1,,,,,,137,WORD,"ID",16,finger,FINGER,m,0.731375,,,,,,-0.006944444,-0.418055556,0,0,0,,0,42,42,76,1
,,,,,,,,,,,,,,,,,,5e19b24b2bf9512392d6dd90,2020-11-25_16h38.49.439,lexical_decision_task_MP_exp2,2020.2.5,Win32,60,,m,1,,,,,,,,1.08776,1,,,,,,194,WORD,UN,33,resign,ABSENT,m,1.08776,,,,,,-0.006944444,-0.418055556,0,0,0,,0,43,43,133,1
,,,,,,,,,,,,,,,,,,5e19b24b2bf9512392d6dd90,2020-11-25_16h38.49.439,lexical_decision_task_MP_exp2,2020.2.5,Win32,60,,z,1,,,,,,,,1.014105,1,,,,,,264,NW,UN,16,distar,VACKEL,z,1.014105,,,,,,-0.006944444,-0.418055556,0,0,0,,0,44,44,443,1
,,,,,,,,,,,,,,,,,,5e19b24b2bf9512392d6dd90,2020-11-25_16h38.49.439,lexical_decision_task_MP_exp2,2020.2.5,Win32,60,,m,1,,,,,,,,1.230875,1,,,,,,183,WORD,UN,33,sleazy,MILDEW,m,1.230875,,,,,,-0.006944444,-0.418055556,0,0,0,,0,45,45,122,1
,,,,,,,,,,,,,,,,,,5e19b24b2bf9512392d6dd90,2020-11-25_16h38.49.439,lexical_decision_task_MP_exp2,2020.2.5,Win32,60,,m,1,,,,,,,,0.764705,1,,,,,,198,WORD,UN,33,invoke,WICKED,m,0.764705,,,,,,-0.006944444,-0.418055556,0,0,0,,0,46,46,137,1
,,,,,,,,,,,,,,,,,,5e19b24b2bf9512392d6dd90,2020-11-25_16h38.49.439,lexical_decision_task_MP_exp2,2020.2.5,Win32,60,,z,1,,,,,,,,0.74114,1,,,,,,308,NW,"ID",33,psetch,PSETCH,z,0.74114,,,,,,-0.006944444,-0.418055556,0,0,0,,0,47,47,247,1
,,,,,,,,,,,,,,,,,,5e19b24b2bf9512392d6dd90,2020-11-25_16h38.49.439,lexical_decision_task_MP_exp2,2020.2.5,Win32,60,,z,0,,,,,,,,1.383545,0,,,,,,176,WORD,"ID",16,strife,STRIFE,m,1.383545,,,,,,-0.006944444,-0.418055556,0,0,0,,0,48,48,115,1
,,,,,,,,,,,,,,,,,,5e19b24b2bf9512392d6dd90,2020-11-25_16h38.49.439,lexical_decision_task_MP_exp2,2020.2.5,Win32,60,,m,0,,,,,,,,1.130515,0,,,,,,253,NW,UN,16,varosh,RESAIT,z,1.130515,,,,,,-0.006944444,-0.418055556,0,0,0,,0,49,49,432,1
,,,,,,,,,,,,,,,,,,5e19b24b2bf9512392d6dd90,2020-11-25_16h38.49.439,lexical_decision_task_MP_exp2,2020.2.5,Win32,60,,m,0,,,,,,,,0.85117,0,,,,,,469,NW,UN,33,crudio,PADIFS,z,0.85117,,,,,,-0.006944444,-0.418055556,0,0,0,,0,50,50,408,1
,,,,,,,,,,,,,,,,,,5e19b24b2bf9512392d6dd90,2020-11-25_16h38.49.439,lexical_decision_task_MP_exp2,2020.2.5,Win32,60,,z,1,,,,,,,,1.114205,1,,,,,,296,NW,UN,16,fertic,BEINCH,z,1.114205,,,,,,-0.006944444,-0.418055556,0,0,0,,0,51,51,475,1
,,,,,,,,,,,,,,,,,,5e19b24b2bf9512392d6dd90,2020-11-25_16h38.49.439,lexical_decision_task_MP_exp2,2020.2.5,Win32,60,,z,1,,,,,,,,1.04466,1,,,,,,295,NW,UN,16,beinch,GLEATH,z,1.04466,,,,,,-0.006944444,-0.418055556,0,0,0,,0,52,52,474,1
,,,,,,,,,,,,,,,,,,5e19b24b2bf9512392d6dd90,2020-11-25_16h38.49.439,lexical_decision_task_MP_exp2,2020.2.5,Win32,60,,z,1,,,,,,,,1.11365,1,,,,,,290,NW,UN,16,pretch,SPLINO,z,1.11365,,,,,,-0.006944444,-0.418055556,0,0,0,,0,53,53,469,1
,,,,,,,,,,,,,,,,,,5e19b24b2bf9512392d6dd90,2020-11-25_16h38.49.439,lexical_decision_task_MP_exp2,2020.2.5,Win32,60,,m,1,,,,,,,,0.796595,1,,,,,,13,WORD,UN,16,almost,STRIVE,m,0.796595,,,,,,-0.006944444,-0.418055556,0,0,0,,0,54,54,192,1
,,,,,,,,,,,,,,,,,,5e19b24b2bf9512392d6dd90,2020-11-25_16h38.49.439,lexical_decision_task_MP_exp2,2020.2.5,Win32,60,,z,1,,,,,,,,0.75774,1,,,,,,404,NW,"ID",16,cluirm,CLUIRM,z,0.75774,,,,,,-0.006944444,-0.418055556,0,0,0,,0,55,55,343,1
,,,,,,,,,,,,,,,,,,5e19b24b2bf9512392d6dd90,2020-11-25_16h38.49.439,lexical_decision_task_MP_exp2,2020.2.5,Win32,60,,m,1,,,,,,,,0.90378,1,,,,,,234,WORD,UN,33,poster,CLUMSY,m,0.90378,,,,,,-0.006944444,-0.418055556,0,0,0,,0,56,56,173,1
,,,,,,,,,,,,,,,,,,5e19b24b2bf9512392d6dd90,2020-11-25_16h38.49.439,lexical_decision_task_MP_exp2,2020.2.5,Win32,60,,m,1,,,,,,,,1.103215,1,,,,,,50,WORD,UN,16,hungry,SNATCH,m,1.103215,,,,,,-0.006944444,-0.418055556,0,0,0,,0,57,57,229,1
,,,,,,,,,,,,,,,,,,5e19b24b2bf9512392d6dd90,2020-11-25_16h38.49.439,lexical_decision_task_MP_exp2,2020.2.5,Win32,60,,z,1,,,,,,,,1.684155,1,,,,,,437,NW,UN,33,baitch,SNAPEL,z,1.684155,,,,,,-0.006944444,-0.418055556,0,0,0,,0,58,58,376,1
,,,,,,,,,,,,,,,,,,5e19b24b2bf9512392d6dd90,2020-11-25_16h38.49.439,lexical_decision_task_MP_exp2,2020.2.5,Win32,60,,z,1,,,,,,,,1.23446,1,,,,,,314,NW,"ID",33,sprine,SPRINE,z,1.23446,,,,,,-0.006944444,-0.418055556,0,0,0,,0,59,59,253,1
,,,,,,,,,,,,,,,,,,5e19b24b2bf9512392d6dd90,2020-11-25_16h38.49.439,lexical_decision_task_MP_exp2,2020.2.5,Win32,60,,z,1,,,,,,,,1.3642,1,,,,,,364,NW,"ID",16,impote,IMPOTE,z,1.3642,,,,,,-0.006944444,-0.418055556,0,0,0,,0,60,60,303,1
,,,,,,,,,,,,,,,,,,5e19b24b2bf9512392d6dd90,2020-11-25_16h38.49.439,lexical_decision_task_MP_exp2,2020.2.5,Win32,60,,z,1,,,,,,,,1.147785,1,,,,,,330,NW,"ID",33,kensom,KENSOM,z,1.147785,,,,,,-0.006944444,-0.418055556,0,0,0,,0,61,61,269,1
,,,,,,,,,,,,,,,,,,5e19b24b2bf9512392d6dd90,2020-11-25_16h38.49.439,lexical_decision_task_MP_exp2,2020.2.5,Win32,60,,z,1,,,,,,,,1.18986,1,,,,,,474,NW,UN,33,acrise,HABLIN,z,1.18986,,,,,,-0.006944444,-0.418055556,0,0,0,,0,62,62,413,1
,,,,,,,,,,,,,,,,,,5e19b24b2bf9512392d6dd90,2020-11-25_16h38.49.439,lexical_decision_task_MP_exp2,2020.2.5,Win32,60,,m,1,,,,,,,,0.7299,1,,,,,,150,WORD,"ID",16,random,RANDOM,m,0.7299,,,,,,-0.006944444,-0.418055556,0,0,0,,0,63,63,89,1
,,,,,,,,,,,,,,,,,,5e19b24b2bf9512392d6dd90,2020-11-25_16h38.49.439,lexical_decision_task_MP_exp2,2020.2.5,Win32,60,,m,1,,,,,,,,0.77462,1,,,,,,145,WORD,"ID",16,parish,PARISH,m,0.77462,,,,,,-0.006944444,-0.418055556,0,0,0,,0,64,64,84,1
,,,,,,,,,,,,,,,,,,5e19b24b2bf9512392d6dd90,2020-11-25_16h38.49.439,lexical_decision_task_MP_exp2,2020.2.5,Win32,60,,m,1,,,,,,,,0.818805,1,,,,,,4,WORD,UN,16,plunge,TRENCH,m,0.818805,,,,,,-0.006944444,-0.418055556,0,0,0,,0,65,65,183,1
,,,,,,,,,,,,,,,,,,5e19b24b2bf9512392d6dd90,2020-11-25_16h38.49.439,lexical_decision_task_MP_exp2,2020.2.5,Win32,60,,z,1,,,,,,,,1.038625,1,,,,,,306,NW,"ID",33,sounge,SOUNGE,z,1.038625,,,,,,-0.006944444,-0.418055556,0,0,0,,0,66,66,245,1
,,,,,,,,,,,,,,,,,,5e19b24b2bf9512392d6dd90,2020-11-25_16h38.49.439,lexical_decision_task_MP_exp2,2020.2.5,Win32,60,,m,1,,,,,,,,0.930225,1,,,,,,122,WORD,"ID",16,linger,LINGER,m,0.930225,,,,,,-0.006944444,-0.418055556,0,0,0,,0,67,67,61,1
,,,,,,,,,,,,,,,,,,5e19b24b2bf9512392d6dd90,2020-11-25_16h38.49.439,lexical_decision_task_MP_exp2,2020.2.5,Win32,60,,m,1,,,,,,,,0.792755,1,,,,,,77,WORD,"ID",33,racket,RACKET,m,0.792755,,,,,,-0.006944444,-0.418055556,0,0,0,,0,68,68,16,1
,,,,,,,,,,,,,,,,,,5e19b24b2bf9512392d6dd90,2020-11-25_16h38.49.439,lexical_decision_task_MP_exp2,2020.2.5,Win32,60,,m,1,,,,,,,,0.935335,1,,,,,,40,WORD,UN,16,spring,CONVEY,m,0.935335,,,,,,-0.006944444,-0.418055556,0,0,0,,0,69,69,219,1
,,,,,,,,,,,,,,,,,,5e19b24b2bf9512392d6dd90,2020-11-25_16h38.49.439,lexical_decision_task_MP_exp2,2020.2.5,Win32,60,,m,1,,,,,,,,1.015825,1,,,,,,156,WORD,"ID",16,cradle,CRADLE,m,1.015825,,,,,,-0.006944444,-0.418055556,0,0,0,,0,70,70,95,1
,,,,,,,,,,,,,,,,,,5e19b24b2bf9512392d6dd90,2020-11-25_16h38.49.439,lexical_decision_task_MP_exp2,2020.2.5,Win32,60,,m,1,,,,,,,,0.830675,1,,,,,,202,WORD,UN,33,phrase,FACTOR,m,0.830675,,,,,,-0.006944444,-0.418055556,0,0,0,,0,71,71,141,1
,,,,,,,,,,,,,,,,,,5e19b24b2bf9512392d6dd90,2020-11-25_16h38.49.439,lexical_decision_task_MP_exp2,2020.2.5,Win32,60,,m,1,,,,,,,,0.865445,1,,,,,,165,WORD,"ID",16,invest,INVEST,m,0.865445,,,,,,-0.006944444,-0.418055556,0,0,0,,0,72,72,104,1
,,,,,,,,,,,,,,,,,,5e19b24b2bf9512392d6dd90,2020-11-25_16h38.49.439,lexical_decision_task_MP_exp2,2020.2.5,Win32,60,,m,1,,,,,,,,0.968485,1,,,,,,106,WORD,"ID",33,ransom,RANSOM,m,0.968485,,,,,,-0.006944444,-0.418055556,0,0,0,,0,73,73,45,1
,,,,,,,,,,,,,,,,,,5e19b24b2bf9512392d6dd90,2020-11-25_16h38.49.439,lexical_decision_task_MP_exp2,2020.2.5,Win32,60,,m,1,,,,,,,,0.8742,1,,,,,,143,WORD,"ID",16,reason,REASON,m,0.8742,,,,,,-0.006944444,-0.418055556,0,0,0,,0,74,74,82,1
,,,,,,,,,,,,,,,,,,5e19b24b2bf9512392d6dd90,2020-11-25_16h38.49.439,lexical_decision_task_MP_exp2,2020.2.5,Win32,60,,m,1,,,,,,,,0.953435,1,,,,,,69,WORD,"ID",33,plenty,PLENTY,m,0.953435,,,,,,-0.006944444,-0.418055556,0,0,0,,0,75,75,8,1
,,,,,,,,,,,,,,,,,,5e19b24b2bf9512392d6dd90,2020-11-25_16h38.49.439,lexical_decision_task_MP_exp2,2020.2.5,Win32,60,,m,1,,,,,,,,0.874355,1,,,,,,107,WORD,"ID",33,slogan,SLOGAN,m,0.874355,,,,,,-0.006944444,-0.418055556,0,0,0,,0,76,76,46,1
,,,,,,,,,,,,,,,,,,5e19b24b2bf9512392d6dd90,2020-11-25_16h38.49.439,lexical_decision_task_MP_exp2,2020.2.5,Win32,60,,m,1,,,,,,,,0.82143,1,,,,,,113,WORD,"ID",33,chorus,CHORUS,m,0.82143,,,,,,-0.006944444,-0.418055556,0,0,0,,0,77,77,52,1
,,,,,,,,,,,,,,,,,,5e19b24b2bf9512392d6dd90,2020-11-25_16h38.49.439,lexical_decision_task_MP_exp2,2020.2.5,Win32,60,,z,1,,,,,,,,1.366825,1,,,,,,248,NW,UN,16,batrol,STROLE,z,1.366825,,,,,,-0.006944444,-0.418055556,0,0,0,,0,78,78,427,1
,,,,,,,,,,,,,,,,,,5e19b24b2bf9512392d6dd90,2020-11-25_16h38.49.439,lexical_decision_task_MP_exp2,2020.2.5,Win32,60,,m,1,,,,,,,,1.280915,1,,,,,,184,WORD,UN,33,bother,SLEAZY,m,1.280915,,,,,,-0.006944444,-0.418055556,0,0,0,,0,79,79,123,1
,,,,,,,,,,,,,,,,,,5e19b24b2bf9512392d6dd90,2020-11-25_16h38.49.439,lexical_decision_task_MP_exp2,2020.2.5,Win32,60,,m,1,,,,,,,,0.999295,1,,,,,,98,WORD,"ID",33,belong,BELONG,m,0.999295,,,,,,-0.006944444,-0.418055556,0,0,0,,0,80,80,37,1
,,,,,,,,,,,,,,,,,,5e19b24b2bf9512392d6dd90,2020-11-25_16h38.49.439,lexical_decision_task_MP_exp2,2020.2.5,Win32,60,,m,1,,,,,,,,1.013945,1,,,,,,151,WORD,"ID",16,mystic,MYSTIC,m,1.013945,,,,,,-0.006944444,-0.418055556,0,0,0,,0,81,81,90,1
,,,,,,,,,,,,,,,,,,5e19b24b2bf9512392d6dd90,2020-11-25_16h38.49.439,lexical_decision_task_MP_exp2,2020.2.5,Win32,60,,m,1,,,,,,,,1.16091,1,,,,,,51,WORD,UN,16,impose,HUNGRY,m,1.16091,,,,,,-0.006944444,-0.418055556,0,0,0,,0,82,82,230,1
,,,,,,,,,,,,,,,,,,5e19b24b2bf9512392d6dd90,2020-11-25_16h38.49.439,lexical_decision_task_MP_exp2,2020.2.5,Win32,60,,z,1,,,,,,,,1.136155,1,,,,,,277,NW,UN,16,unighs,PETAIN,z,1.136155,,,,,,-0.006944444,-0.418055556,0,0,0,,0,83,83,456,1
,,,,,,,,,,,,,,,,,,5e19b24b2bf9512392d6dd90,2020-11-25_16h38.49.439,lexical_decision_task_MP_exp2,2020.2.5,Win32,60,,z,1,,,,,,,,1.114225,1,,,,,,397,NW,"ID",16,camble,CAMBLE,z,1.114225,,,,,,-0.006944444,-0.418055556,0,0,0,,0,84,84,336,1
,,,,,,,,,,,,,,,,,,5e19b24b2bf9512392d6dd90,2020-11-25_16h38.49.439,lexical_decision_task_MP_exp2,2020.2.5,Win32,60,,z,1,,,,,,,,1.175385,1,,,,,,358,NW,"ID",33,fleack,FLEACK,z,1.175385,,,,,,-0.006944444,-0.418055556,0,0,0,,0,85,85,297,1
,,,,,,,,,,,,,,,,,,5e19b24b2bf9512392d6dd90,2020-11-25_16h38.49.439,lexical_decision_task_MP_exp2,2020.2.5,Win32,60,,z,1,,,,,,,,1.317495,1,,,,,,242,NW,UN,16,musied,UNWERT,z,1.317495,,,,,,-0.006944444,-0.418055556,0,0,0,,0,86,86,421,1
,,,,,,,,,,,,,,,,,,5e19b24b2bf9512392d6dd90,2020-11-25_16h38.49.439,lexical_decision_task_MP_exp2,2020.2.5,Win32,60,,z,1,,,,,,,,0.980465,1,,,,,,406,NW,"ID",16,nouply,NOUPLY,z,0.980465,,,,,,-0.006944444,-0.418055556,0,0,0,,0,87,87,345,1
,,,,,,,,,,,,,,,,,,5e19b24b2bf9512392d6dd90,2020-11-25_16h38.49.439,lexical_decision_task_MP_exp2,2020.2.5,Win32,60,,z,1,,,,,,,,0.98113,1,,,,,,450,NW,UN,33,cainky,PHRECT,z,0.98113,,,,,,-0.006944444,-0.418055556,0,0,0,,0,88,88,389,1
,,,,,,,,,,,,,,,,,,5e19b24b2bf9512392d6dd90,2020-11-25_16h38.49.439,lexical_decision_task_MP_exp2,2020.2.5,Win32,60,,z,1,,,,,,,,0.8473,1,,,,,,480,NW,UN,33,knisma,ROBULY,z,0.8473,,,,,,-0.006944444,-0.418055556,0,0,0,,0,89,89,419,1
,,,,,,,,,,,,,,,,,,5e19b24b2bf9512392d6dd90,2020-11-25_16h38.49.439,lexical_decision_task_MP_exp2,2020.2.5,Win32,60,,z,1,,,,,,,,0.97311,1,,,,,,261,NW,UN,16,quilew,STUNCH,z,0.97311,,,,,,-0.006944444,-0.418055556,0,0,0,,0,90,90,440,1
,,,,,,,,,,,,,,,,,,5e19b24b2bf9512392d6dd90,2020-11-25_16h38.49.439,lexical_decision_task_MP_exp2,2020.2.5,Win32,60,,z,1,,,,,,,,0.86398,1,,,,,,312,NW,"ID",33,nerawl,NERAWL,z,0.86398,,,,,,-0.006944444,-0.418055556,0,0,0,,0,91,91,251,1
,,,,,,,,,,,,,,,,,,5e19b24b2bf9512392d6dd90,2020-11-25_16h38.49.439,lexical_decision_task_MP_exp2,2020.2.5,Win32,60,,z,1,,,,,,,,1.073905,1,,,,,,473,NW,UN,33,hablin,CRIBLE,z,1.073905,,,,,,-0.006944444,-0.418055556,0,0,0,,0,92,92,412,1
,,,,,,,,,,,,,,,,,,5e19b24b2bf9512392d6dd90,2020-11-25_16h38.49.439,lexical_decision_task_MP_exp2,2020.2.5,Win32,60,,m,1,,,,,,,,0.837515,1,,,,,,86,WORD,"ID",33,rodent,RODENT,m,0.837515,,,,,,-0.006944444,-0.418055556,0,0,0,,0,93,93,25,1
,,,,,,,,,,,,,,,,,,5e19b24b2bf9512392d6dd90,2020-11-25_16h38.49.439,lexical_decision_task_MP_exp2,2020.2.5,Win32,60,,m,1,,,,,,,,0.681435,1,,,,,,221,WORD,UN,33,hinder,MASCOT,m,0.681435,,,,,,-0.006944444,-0.418055556,0,0,0,,0,94,94,160,1
,,,,,,,,,,,,,,,,,,5e19b24b2bf9512392d6dd90,2020-11-25_16h38.49.439,lexical_decision_task_MP_exp2,2020.2.5,Win32,60,,m,1,,,,,,,,0.73504,1,,,,,,3,WORD,UN,16,trench,KNIGHT,m,0.73504,,,,,,-0.006944444,-0.418055556,0,0,0,,0,95,95,182,1
,,,,,,,,,,,,,,,,,,5e19b24b2bf9512392d6dd90,2020-11-25_16h38.49.439,lexical_decision_task_MP_exp2,2020.2.5,Win32,60,,m,1,,,,,,,,0.90076,1,,,,,,199,WORD,UN,33,plague,INVOKE,m,0.90076,,,,,,-0.006944444,-0.418055556,0,0,0,,0,96,96,138,1
,,,,,,,,,,,,,,,,,,5e19b24b2bf9512392d6dd90,2020-11-25_16h38.49.439,lexical_decision_task_MP_exp2,2020.2.5,Win32,60,,m,1,,,,,,,,0.75501,1,,,,,,44,WORD,UN,16,clergy,DANGER,m,0.75501,,,,,,-0.006944444,-0.418055556,0,0,0,,0,97,97,223,1
,,,,,,,,,,,,,,,,,,5e19b24b2bf9512392d6dd90,2020-11-25_16h38.49.439,lexical_decision_task_MP_exp2,2020.2.5,Win32,60,,z,1,,,,,,,,0.94003,1,,,,,,372,NW,"ID",16,ramily,RAMILY,z,0.94003,,,,,,-0.006944444,-0.418055556,0,0,0,,0,98,98,311,1
,,,,,,,,,,,,,,,,,,5e19b24b2bf9512392d6dd90,2020-11-25_16h38.49.439,lexical_decision_task_MP_exp2,2020.2.5,Win32,60,,z,1,,,,,,,,0.900875,1,,,,,,333,NW,"ID",33,catrie,CATRIE,z,0.900875,,,,,,-0.006944444,-0.418055556,0,0,0,,0,99,99,272,1
,,,,,,,,,,,,,,,,,,5e19b24b2bf9512392d6dd90,2020-11-25_16h38.49.439,lexical_decision_task_MP_exp2,2020.2.5,Win32,60,,z,1,,,,,,,,0.772095,1,,,,,,367,NW,"ID",16,slique,SLIQUE,z,0.772095,,,,,,-0.006944444,-0.418055556,0,0,0,,0,100,100,306,1
,,,,,,,,,,,,,,,,,,5e19b24b2bf9512392d6dd90,2020-11-25_16h38.49.439,lexical_decision_task_MP_exp2,2020.2.5,Win32,60,,z,1,,,,,,,,0.91991,1,,,,,,429,NW,UN,33,caroey,FUNTLE,z,0.91991,,,,,,-0.006944444,-0.418055556,0,0,0,,0,101,101,368,1
,,,,,,,,,,,,,,,,,,5e19b24b2bf9512392d6dd90,2020-11-25_16h38.49.439,lexical_decision_task_MP_exp2,2020.2.5,Win32,60,,z,1,,,,,,,,1.21432,1,,,,,,274,NW,UN,16,sleirt,FUMBLO,z,1.21432,,,,,,-0.006944444,-0.418055556,0,0,0,,0,102,102,453,1
,,,,,,,,,,,,,,,,,,5e19b24b2bf9512392d6dd90,2020-11-25_16h38.49.439,lexical_decision_task_MP_exp2,2020.2.5,Win32,60,,m,1,,,,,,,,0.80246,1,,,,,,131,WORD,"ID",16,quench,QUENCH,m,0.80246,,,,,,-0.006944444,-0.418055556,0,0,0,,0,103,103,70,1
,,,,,,,,,,,,,,,,,,5e19b24b2bf9512392d6dd90,2020-11-25_16h38.49.439,lexical_decision_task_MP_exp2,2020.2.5,Win32,60,,z,1,,,,,,,,0.92073,1,,,,,,383,NW,"ID",16,aungre,AUNGRE,z,0.92073,,,,,,-0.006944444,-0.418055556,0,0,0,,0,104,104,322,1
,,,,,,,,,,,,,,,,,,5e19b24b2bf9512392d6dd90,2020-11-25_16h38.49.439,lexical_decision_task_MP_exp2,2020.2.5,Win32,60,,m,1,,,,,,,,0.94996,1,,,,,,83,WORD,"ID",33,result,RESULT,m,0.94996,,,,,,-0.006944444,-0.418055556,0,0,0,,0,105,105,22,1
,,,,,,,,,,,,,,,,,,5e19b24b2bf9512392d6dd90,2020-11-25_16h38.49.439,lexical_decision_task_MP_exp2,2020.2.5,Win32,60,,m,1,,,,,,,,0.8496,1,,,,,,14,WORD,UN,16,orange,ALMOST,m,0.8496,,,,,,-0.006944444,-0.418055556,0,0,0,,0,106,106,193,1
,,,,,,,,,,,,,,,,,,5e19b24b2bf9512392d6dd90,2020-11-25_16h38.49.439,lexical_decision_task_MP_exp2,2020.2.5,Win32,60,,m,1,,,,,,,,0.880815,1,,,,,,159,WORD,"ID",16,detail,DETAIL,m,0.880815,,,,,,-0.006944444,-0.418055556,0,0,0,,0,107,107,98,1
,,,,,,,,,,,,,,,,,,5e19b24b2bf9512392d6dd90,2020-11-25_16h38.49.439,lexical_decision_task_MP_exp2,2020.2.5,Win32,60,,m,1,,,,,,,,0.880815,1,,,,,,216,WORD,UN,33,liquor,BEHALF,m,0.880815,,,,,,-0.006944444,-0.418055556,0,0,0,,0,108,108,155,1
,,,,,,,,,,,,,,,,,,5e19b24b2bf9512392d6dd90,2020-11-25_16h38.49.439,lexical_decision_task_MP_exp2,2020.2.5,Win32,60,,m,1,,,,,,,,0.89836,1,,,,,,102,WORD,"ID",33,direct,DIRECT,m,0.89836,,,,,,-0.006944444,-0.418055556,0,0,0,,0,109,109,41,1
,,,,,,,,,,,,,,,,,,5e19b24b2bf9512392d6dd90,2020-11-25_16h38.49.439,lexical_decision_task_MP_exp2,2020.2.5,Win32,60,,m,1,,,,,,,,1.25069,1,,,,,,59,WORD,UN,16,pencil,SPLINT,m,1.25069,,,,,,-0.006944444,-0.418055556,0,0,0,,0,110,110,238,1
,,,,,,,,,,,,,,,,,,5e19b24b2bf9512392d6dd90,2020-11-25_16h38.49.439,lexical_decision_task_MP_exp2,2020.2.5,Win32,60,,z,1,,,,,,,,0.75489,1,,,,,,245,NW,UN,16,piaton,ANOUGS,z,0.75489,,,,,,-0.006944444,-0.418055556,0,0,0,,0,111,111,424,1
,,,,,,,,,,,,,,,,,,5e19b24b2bf9512392d6dd90,2020-11-25_16h38.49.439,lexical_decision_task_MP_exp2,2020.2.5,Win32,60,,z,1,,,,,,,,0.98405,1,,,,,,334,NW,"ID",33,watmeg,WATMEG,z,0.98405,,,,,,-0.006944444,-0.418055556,0,0,0,,0,112,112,273,1
,,,,,,,,,,,,,,,,,,5e19b24b2bf9512392d6dd90,2020-11-25_16h38.49.439,lexical_decision_task_MP_exp2,2020.2.5,Win32,60,,z,1,,,,,,,,0.838085,1,,,,,,275,NW,UN,16,yarmon,SLEIRT,z,0.838085,,,,,,-0.006944444,-0.418055556,0,0,0,,0,113,113,454,1
,,,,,,,,,,,,,,,,,,5e19b24b2bf9512392d6dd90,2020-11-25_16h38.49.439,lexical_decision_task_MP_exp2,2020.2.5,Win32,60,,m,1,,,,,,,,0.871405,1,,,,,,114,WORD,"ID",33,placid,PLACID,m,0.871405,,,,,,-0.006944444,-0.418055556,0,0,0,,0,114,114,53,1
,,,,,,,,,,,,,,,,,,5e19b24b2bf9512392d6dd90,2020-11-25_16h38.49.439,lexical_decision_task_MP_exp2,2020.2.5,Win32,60,,z,1,,,,,,,,0.835505,1,,,,,,466,NW,UN,33,robuly,HOCITE,z,0.835505,,,,,,-0.006944444,-0.418055556,0,0,0,,0,115,115,405,1
,,,,,,,,,,,,,,,,,,5e19b24b2bf9512392d6dd90,2020-11-25_16h38.49.439,lexical_decision_task_MP_exp2,2020.2.5,Win32,60,,m,1,,,,,,,,0.814825,1,,,,,,210,WORD,UN,33,infect,MONKEY,m,0.814825,,,,,,-0.006944444,-0.418055556,0,0,0,,0,116,116,149,1
,,,,,,,,,,,,,,,,,,5e19b24b2bf9512392d6dd90,2020-11-25_16h38.49.439,lexical_decision_task_MP_exp2,2020.2.5,Win32,60,,z,1,,,,,,,,1.46374,1,,,,,,250,NW,UN,16,lupict,MILTED,z,1.46374,,,,,,-0.006944444,-0.418055556,0,0,0,,0,117,117,429,1
,,,,,,,,,,,,,,,,,,5e19b24b2bf9512392d6dd90,2020-11-25_16h38.49.439,lexical_decision_task_MP_exp2,2020.2.5,Win32,60,,z,1,,,,,,,,1.58741,1,,,,,,285,NW,UN,16,reldon,PRUDGE,z,1.58741,,,,,,-0.006944444,-0.418055556,0,0,0,,0,118,118,464,1
,,,,,,,,,,,,,,,,,,5e19b24b2bf9512392d6dd90,2020-11-25_16h38.49.439,lexical_decision_task_MP_exp2,2020.2.5,Win32,60,,m,1,,,,,,,,0.857325,1,,,,,,29,WORD,UN,16,orient,SKETCH,m,0.857325,,,,,,-0.006944444,-0.418055556,0,0,0,,0,119,119,208,1
,,,,,,,,,,,,,,,,,,5e19b24b2bf9512392d6dd90,2020-11-25_16h38.49.439,lexical_decision_task_MP_exp2,2020.2.5,Win32,60,,z,1,,,,,,,,1.130515,1,,,,,,478,NW,UN,33,pebric,ACRISE,z,1.130515,,,,,,-0.006944444,-0.418055556,0,0,0,,0,120,120,417,1
,,,,,,,,,,,,,,,,,,5e19b24b2bf9512392d6dd90,2020-11-25_16h38.49.439,lexical_decision_task_MP_exp2,2020.2.5,Win32,60,,m,1,,,,,,,,0.850075,1,,,,,,187,WORD,UN,33,social,COURSE,m,0.850075,,,,,,-0.006944444,-0.418055556,0,0,0,,0,121,121,126,1
,,,,,,,,,,,,,,,,,,5e19b24b2bf9512392d6dd90,2020-11-25_16h38.49.439,lexical_decision_task_MP_exp2,2020.2.5,Win32,60,,z,1,,,,,,,,0.92336,1,,,,,,270,NW,UN,16,aubrid,WRIMSY,z,0.92336,,,,,,-0.006944444,-0.418055556,0,0,0,,0,122,122,449,1
,,,,,,,,,,,,,,,,,,5e19b24b2bf9512392d6dd90,2020-11-25_16h38.49.439,lexical_decision_task_MP_exp2,2020.2.5,Win32,60,,z,1,,,,,,,,0.99468,1,,,,,,266,NW,UN,16,pasink,VARMIT,z,0.99468,,,,,,-0.006944444,-0.418055556,0,0,0,,0,123,123,445,1
,,,,,,,,,,,,,,,,,,5e19b24b2bf9512392d6dd90,2020-11-25_16h38.49.439,lexical_decision_task_MP_exp2,2020.2.5,Win32,60,,z,1,,,,,,,,1.02807,1,,,,,,420,NW,"ID",16,gushop,GUSHOP,z,1.02807,,,,,,-0.006944444,-0.418055556,0,0,0,,0,124,124,359,1
,,,,,,,,,,,,,,,,,,5e19b24b2bf9512392d6dd90,2020-11-25_16h38.49.439,lexical_decision_task_MP_exp2,2020.2.5,Win32,60,,m,1,,,,,,,,1.03969,1,,,,,,111,WORD,"ID",33,induce,INDUCE,m,1.03969,,,,,,-0.006944444,-0.418055556,0,0,0,,0,125,125,50,1
,,,,,,,,,,,,,,,,,,5e19b24b2bf9512392d6dd90,2020-11-25_16h38.49.439,lexical_decision_task_MP_exp2,2020.2.5,Win32,60,,z,1,,,,,,,,0.98625,1,,,,,,263,NW,UN,16,vackel,DOLICA,z,0.98625,,,,,,-0.006944444,-0.418055556,0,0,0,,0,126,126,442,1
,,,,,,,,,,,,,,,,,,5e19b24b2bf9512392d6dd90,2020-11-25_16h38.49.439,lexical_decision_task_MP_exp2,2020.2.5,Win32,60,,m,1,,,,,,,,0.93051,1,,,,,,162,WORD,"ID",16,candle,CANDLE,m,0.93051,,,,,,-0.006944444,-0.418055556,0,0,0,,0,127,127,101,1
,,,,,,,,,,,,,,,,,,5e19b24b2bf9512392d6dd90,2020-11-25_16h38.49.439,lexical_decision_task_MP_exp2,2020.2.5,Win32,60,,z,1,,,,,,,,0.92481,1,,,,,,428,NW,UN,33,funtle,TANDLY,z,0.92481,,,,,,-0.006944444,-0.418055556,0,0,0,,0,128,128,367,1
,,,,,,,,,,,,,,,,,,5e19b24b2bf9512392d6dd90,2020-11-25_16h38.49.439,lexical_decision_task_MP_exp2,2020.2.5,Win32,60,,z,1,,,,,,,,1.28076,1,,,,,,442,NW,UN,33,dorsex,ABOUNE,z,1.28076,,,,,,-0.006944444,-0.418055556,0,0,0,,0,129,129,381,1
,,,,,,,,,,,,,,,,,,5e19b24b2bf9512392d6dd90,2020-11-25_16h38.49.439,lexical_decision_task_MP_exp2,2020.2.5,Win32,60,,z,1,,,,,,,,0.965305,1,,,,,,460,NW,UN,33,justre,MINGAR,z,0.965305,,,,,,-0.006944444,-0.418055556,0,0,0,,0,130,130,399,1
,,,,,,,,,,,,,,,,,,5e19b24b2bf9512392d6dd90,2020-11-25_16h38.49.439,lexical_decision_task_MP_exp2,2020.2.5,Win32,60,,z,1,,,,,,,,0.91803,1,,,,,,315,NW,"ID",33,laston,LASTON,z,0.91803,,,,,,-0.006944444,-0.418055556,0,0,0,,0,131,131,254,1
,,,,,,,,,,,,,,,,,,5e19b24b2bf9512392d6dd90,2020-11-25_16h38.49.439,lexical_decision_task_MP_exp2,2020.2.5,Win32,60,,z,1,,,,,,,,0.913705,1,,,,,,411,NW,"ID",16,orchin,ORCHIN,z,0.913705,,,,,,-0.006944444,-0.418055556,0,0,0,,0,132,132,350,1
,,,,,,,,,,,,,,,,,,5e19b24b2bf9512392d6dd90,2020-11-25_16h38.49.439,lexical_decision_task_MP_exp2,2020.2.5,Win32,60,,m,1,,,,,,,,0.831195,1,,,,,,219,WORD,UN,33,voyage,BUCKET,m,0.831195,,,,,,-0.006944444,-0.418055556,0,0,0,,0,133,133,158,1
,,,,,,,,,,,,,,,,,,5e19b24b2bf9512392d6dd90,2020-11-25_16h38.49.439,lexical_decision_task_MP_exp2,2020.2.5,Win32,60,,m,1,,,,,,,,0.750185,1,,,,,,207,WORD,UN,33,hockey,WREATH,m,0.750185,,,,,,-0.006944444,-0.418055556,0,0,0,,0,134,134,146,1
,,,,,,,,,,,,,,,,,,5e19b24b2bf9512392d6dd90,2020-11-25_16h38.49.439,lexical_decision_task_MP_exp2,2020.2.5,Win32,60,,m,1,,,,,,,,0.74805,1,,,,,,56,WORD,UN,16,change,AMBUSH,m,0.74805,,,,,,-0.006944444,-0.418055556,0,0,0,,0,135,135,235,1
,,,,,,,,,,,,,,,,,,5e19b24b2bf9512392d6dd90,2020-11-25_16h38.49.439,lexical_decision_task_MP_exp2,2020.2.5,Win32,60,,z,1,,,,,,,,0.98406,1,,,,,,262,NW,UN,16,dolica,QUILEW,z,0.98406,,,,,,-0.006944444,-0.418055556,0,0,0,,0,136,136,441,1
,,,,,,,,,,,,,,,,,,5e19b24b2bf9512392d6dd90,2020-11-25_16h38.49.439,lexical_decision_task_MP_exp2,2020.2.5,Win32,60,,z,1,,,,,,,,0.798365,1,,,,,,279,NW,UN,16,curbol,CELOND,z,0.798365,,,,,,-0.006944444,-0.418055556,0,0,0,,0,137,137,458,1
,,,,,,,,,,,,,,,,,,5e19b24b2bf9512392d6dd90,2020-11-25_16h38.49.439,lexical_decision_task_MP_exp2,2020.2.5,Win32,60,,z,1,,,,,,,,0.780635,1,,,,,,331,NW,"ID",33,gilfew,GILFEW,z,0.780635,,,,,,-0.006944444,-0.418055556,0,0,0,,0,138,138,270,1
,,,,,,,,,,,,,,,,,,5e19b24b2bf9512392d6dd90,2020-11-25_16h38.49.439,lexical_decision_task_MP_exp2,2020.2.5,Win32,60,,m,1,,,,,,,,0.73098,1,,,,,,80,WORD,"ID",33,family,FAMILY,m,0.73098,,,,,,-0.006944444,-0.418055556,0,0,0,,0,139,139,19,1
,,,,,,,,,,,,,,,,,,5e19b24b2bf9512392d6dd90,2020-11-25_16h38.49.439,lexical_decision_task_MP_exp2,2020.2.5,Win32,60,,z,1,,,,,,,,0.81424,1,,,,,,309,NW,"ID",33,amiloy,AMILOY,z,0.81424,,,,,,-0.006944444,-0.418055556,0,0,0,,0,140,140,248,1
,,,,,,,,,,,,,,,,,,5e19b24b2bf9512392d6dd90,2020-11-25_16h38.49.439,lexical_decision_task_MP_exp2,2020.2.5,Win32,60,,m,1,,,,,,,,0.770105,1,,,,,,177,WORD,"ID",16,advent,ADVENT,m,0.770105,,,,,,-0.006944444,-0.418055556,0,0,0,,0,141,141,116,1
,,,,,,,,,,,,,,,,,,5e19b24b2bf9512392d6dd90,2020-11-25_16h38.49.439,lexical_decision_task_MP_exp2,2020.2.5,Win32,60,,m,1,,,,,,,,0.953445,1,,,,,,19,WORD,UN,16,breast,PATRON,m,0.953445,,,,,,-0.006944444,-0.418055556,0,0,0,,0,142,142,198,1
,,,,,,,,,,,,,,,,,,5e19b24b2bf9512392d6dd90,2020-11-25_16h38.49.439,lexical_decision_task_MP_exp2,2020.2.5,Win32,60,,z,1,,,,,,,,0.81415,1,,,,,,301,NW,"ID",33,fainch,FAINCH,z,0.81415,,,,,,-0.006944444,-0.418055556,0,0,0,,0,143,143,240,1
,,,,,,,,,,,,,,,,,,5e19b24b2bf9512392d6dd90,2020-11-25_16h38.49.439,lexical_decision_task_MP_exp2,2020.2.5,Win32,60,,m,1,,,,,,,,0.93076,1,,,,,,101,WORD,"ID",33,wrench,WRENCH,m,0.93076,,,,,,-0.006944444,-0.418055556,0,0,0,,0,144,144,40,1
,,,,,,,,,,,,,,,,,,5e19b24b2bf9512392d6dd90,2020-11-25_16h38.49.439,lexical_decision_task_MP_exp2,2020.2.5,Win32,60,,z,1,,,,,,,,0.853835,1,,,,,,321,NW,"ID",33,miator,MIATOR,z,0.853835,,,,,,-0.006944444,-0.418055556,0,0,0,,0,145,145,260,1
,,,,,,,,,,,,,,,,,,5e19b24b2bf9512392d6dd90,2020-11-25_16h38.49.439,lexical_decision_task_MP_exp2,2020.2.5,Win32,60,,z,1,,,,,,,,0.98476,1,,,,,,438,NW,UN,33,limpor,BAITCH,z,0.98476,,,,,,-0.006944444,-0.418055556,0,0,0,,0,146,146,377,1
,,,,,,,,,,,,,,,,,,5e19b24b2bf9512392d6dd90,2020-11-25_16h38.49.439,lexical_decision_task_MP_exp2,2020.2.5,Win32,60,,z,1,,,,,,,,0.83225,1,,,,,,337,NW,"ID",33,rejols,REJOLS,z,0.83225,,,,,,-0.006944444,-0.418055556,0,0,0,,0,147,147,276,1
,,,,,,,,,,,,,,,,,,5e19b24b2bf9512392d6dd90,2020-11-25_16h38.49.439,lexical_decision_task_MP_exp2,2020.2.5,Win32,60,,m,1,,,,,,,,0.747005,1,,,,,,26,WORD,UN,16,butler,SPRINT,m,0.747005,,,,,,-0.006944444,-0.418055556,0,0,0,,0,148,148,205,1
,,,,,,,,,,,,,,,,,,5e19b24b2bf9512392d6dd90,2020-11-25_16h38.49.439,lexical_decision_task_MP_exp2,2020.2.5,Win32,60,,z,1,,,,,,,,0.84737,1,,,,,,408,NW,"ID",16,hurnia,HURNIA,z,0.84737,,,,,,-0.006944444,-0.418055556,0,0,0,,0,149,149,347,1
,,,,,,,,,,,,,,,,,,5e19b24b2bf9512392d6dd90,2020-11-25_16h38.49.439,lexical_decision_task_MP_exp2,2020.2.5,Win32,60,,m,1,,,,,,,,1.015275,1,,,,,,9,WORD,UN,16,bridge,HUSTLE,m,1.015275,,,,,,-0.006944444,-0.418055556,0,0,0,,0,150,150,188,1
,,,,,,,,,,,,,,,,,,5e19b24b2bf9512392d6dd90,2020-11-25_16h38.49.439,lexical_decision_task_MP_exp2,2020.2.5,Win32,60,,m,1,,,,,,,,1.1863,1,,,,,,67,WORD,"ID",33,policy,POLICY,m,1.1863,,,,,,-0.006944444,-0.418055556,0,0,0,,0,151,151,6,1
,,,,,,,,,,,,,,,,,,5e19b24b2bf9512392d6dd90,2020-11-25_16h38.49.439,lexical_decision_task_MP_exp2,2020.2.5,Win32,60,,m,1,,,,,,,,0.88076,1,,,,,,35,WORD,UN,16,vanish,SOCKET,m,0.88076,,,,,,-0.006944444,-0.418055556,0,0,0,,0,152,152,214,1
,,,,,,,,,,,,,,,,,,5e19b24b2bf9512392d6dd90,2020-11-25_16h38.49.439,lexical_decision_task_MP_exp2,2020.2.5,Win32,60,,z,1,,,,,,,,0.89771,1,,,,,,416,NW,"ID",16,pathel,PATHEL,z,0.89771,,,,,,-0.006944444,-0.418055556,0,0,0,,0,153,153,355,1
,,,,,,,,,,,,,,,,,,5e19b24b2bf9512392d6dd90,2020-11-25_16h38.49.439,lexical_decision_task_MP_exp2,2020.2.5,Win32,60,,z,1,,,,,,,,0.923525,1,,,,,,461,NW,UN,33,absult,JUSTRE,z,0.923525,,,,,,-0.006944444,-0.418055556,0,0,0,,0,154,154,400,1
,,,,,,,,,,,,,,,,,,5e19b24b2bf9512392d6dd90,2020-11-25_16h38.49.439,lexical_decision_task_MP_exp2,2020.2.5,Win32,60,,z,0,,,,,,,,1.173045,0,,,,,,22,WORD,UN,16,wealth,JOCKEY,m,1.173045,,,,,,-0.006944444,-0.418055556,0,0,0,,0,155,155,201,1
,,,,,,,,,,,,,,,,,,5e19b24b2bf9512392d6dd90,2020-11-25_16h38.49.439,lexical_decision_task_MP_exp2,2020.2.5,Win32,60,,z,1,,,,,,,,1.1016,1,,,,,,392,NW,"ID",16,rouncy,ROUNCY,z,1.1016,,,,,,-0.006944444,-0.418055556,0,0,0,,0,156,156,331,1
,,,,,,,,,,,,,,,,,,5e19b24b2bf9512392d6dd90,2020-11-25_16h38.49.439,lexical_decision_task_MP_exp2,2020.2.5,Win32,60,,m,1,,,,,,,,0.782045,1,,,,,,45,WORD,UN,16,single,CLERGY,m,0.782045,,,,,,-0.006944444,-0.418055556,0,0,0,,0,157,157,224,1
,,,,,,,,,,,,,,,,,,5e19b24b2bf9512392d6dd90,2020-11-25_16h38.49.439,lexical_decision_task_MP_exp2,2020.2.5,Win32,60,,z,1,,,,,,,,1.270055,1,,,,,,434,NW,UN,33,impurb,PITROM,z,1.270055,,,,,,-0.006944444,-0.418055556,0,0,0,,0,158,158,373,1
,,,,,,,,,,,,,,,,,,5e19b24b2bf9512392d6dd90,2020-11-25_16h38.49.439,lexical_decision_task_MP_exp2,2020.2.5,Win32,60,,z,1,,,,,,,,1.60436,1,,,,,,401,NW,"ID",16,mustil,MUSTIL,z,1.60436,,,,,,-0.006944444,-0.418055556,0,0,0,,0,159,159,340,1
,,,,,,,,,,,,,,,,,,5e19b24b2bf9512392d6dd90,2020-11-25_16h38.49.439,lexical_decision_task_MP_exp2,2020.2.5,Win32,60,,m,1,,,,,,,,0.8488,1,,,,,,31,WORD,UN,16,buckle,WEAPON,m,0.8488,,,,,,-0.006944444,-0.418055556,0,0,0,,0,160,160,210,1
,,,,,,,,,,,,,,,,,,5e19b24b2bf9512392d6dd90,2020-11-25_16h38.49.439,lexical_decision_task_MP_exp2,2020.2.5,Win32,60,,m,1,,,,,,,,1.216185,1,,,,,,55,WORD,UN,16,ambush,STROKE,m,1.216185,,,,,,-0.006944444,-0.418055556,0,0,0,,0,161,161,234,1
,,,,,,,,,,,,,,,,,,5e19b24b2bf9512392d6dd90,2020-11-25_16h38.49.439,lexical_decision_task_MP_exp2,2020.2.5,Win32,60,,z,1,,,,,,,,0.797225,1,,,,,,328,NW,"ID",33,broake,BROAKE,z,0.797225,,,,,,-0.006944444,-0.418055556,0,0,0,,0,162,162,267,1
,,,,,,,,,,,,,,,,,,5e19b24b2bf9512392d6dd90,2020-11-25_16h38.49.439,lexical_decision_task_MP_exp2,2020.2.5,Win32,60,,z,1,,,,,,,,0.73661,1,,,,,,394,NW,"ID",16,spaqux,SPAQUX,z,0.73661,,,,,,-0.006944444,-0.418055556,0,0,0,,0,163,163,333,1
,,,,,,,,,,,,,,,,,,5e19b24b2bf9512392d6dd90,2020-11-25_16h38.49.439,lexical_decision_task_MP_exp2,2020.2.5,Win32,60,,z,1,,,,,,,,0.852485,1,,,,,,342,NW,"ID",33,randow,RANDOW,z,0.852485,,,,,,-0.006944444,-0.418055556,0,0,0,,0,164,164,281,1
,,,,,,,,,,,,,,,,,,5e19b24b2bf9512392d6dd90,2020-11-25_16h38.49.439,lexical_decision_task_MP_exp2,2020.2.5,Win32,60,,m,1,,,,,,,,1.36459,1,,,,,,10,WORD,UN,16,cruise,ETHNIC,m,1.36459,,,,,,-0.006944444,-0.418055556,0,0,0,,0,165,165,189,1
,,,,,,,,,,,,,,,,,,5e19b24b2bf9512392d6dd90,2020-11-25_16h38.49.439,lexical_decision_task_MP_exp2,2020.2.5,Win32,60,,z,1,,,,,,,,0.847765,1,,,,,,365,NW,"ID",16,guairt,GUAIRT,z,0.847765,,,,,,-0.006944444,-0.418055556,0,0,0,,0,166,166,304,1
,,,,,,,,,,,,,,,,,,5e19b24b2bf9512392d6dd90,2020-11-25_16h38.49.439,lexical_decision_task_MP_exp2,2020.2.5,Win32,60,,m,1,,,,,,,,0.79767,1,,,,,,30,WORD,UN,16,weapon,ORIENT,m,0.79767,,,,,,-0.006944444,-0.418055556,0,0,0,,0,167,167,209,1
,,,,,,,,,,,,,,,,,,5e19b24b2bf9512392d6dd90,2020-11-25_16h38.49.439,lexical_decision_task_MP_exp2,2020.2.5,Win32,60,,z,1,,,,,,,,1.33159,1,,,,,,344,NW,"ID",33,scrily,SCRILY,z,1.33159,,,,,,-0.006944444,-0.418055556,0,0,0,,0,168,168,283,1
,,,,,,,,,,,,,,,,,,5e19b24b2bf9512392d6dd90,2020-11-25_16h38.49.439,lexical_decision_task_MP_exp2,2020.2.5,Win32,60,,m,1,,,,,,,,0.785455,1,,,,,,11,WORD,UN,16,amount,CRUISE,m,0.785455,,,,,,-0.006944444,-0.418055556,0,0,0,,0,169,169,190,1
,,,,,,,,,,,,,,,,,,5e19b24b2bf9512392d6dd90,2020-11-25_16h38.49.439,lexical_decision_task_MP_exp2,2020.2.5,Win32,60,,m,1,,,,,,,,1.73006,1,,,,,,167,WORD,"ID",16,design,DESIGN,m,1.73006,,,,,,-0.006944444,-0.418055556,0,0,0,,0,170,170,106,1
,,,,,,,,,,,,,,,,,,5e19b24b2bf9512392d6dd90,2020-11-25_16h38.49.439,lexical_decision_task_MP_exp2,2020.2.5,Win32,60,,m,1,,,,,,,,1.019815,1,,,,,,140,WORD,"ID",16,prince,PRINCE,m,1.019815,,,,,,-0.006944444,-0.418055556,0,0,0,,0,171,171,79,1
,,,,,,,,,,,,,,,,,,5e19b24b2bf9512392d6dd90,2020-11-25_16h38.49.439,lexical_decision_task_MP_exp2,2020.2.5,Win32,60,,m,1,,,,,,,,1.051965,1,,,,,,208,WORD,UN,33,search,HOCKEY,m,1.051965,,,,,,-0.006944444,-0.418055556,0,0,0,,0,172,172,147,1
,,,,,,,,,,,,,,,,,,5e19b24b2bf9512392d6dd90,2020-11-25_16h38.49.439,lexical_decision_task_MP_exp2,2020.2.5,Win32,60,,z,1,,,,,,,,0.81827,1,,,,,,292,NW,UN,16,swance,ABLINT,z,0.81827,,,,,,-0.006944444,-0.418055556,0,0,0,,0,173,173,471,1
,,,,,,,,,,,,,,,,,,5e19b24b2bf9512392d6dd90,2020-11-25_16h38.49.439,lexical_decision_task_MP_exp2,2020.2.5,Win32,60,,m,1,,,,,,,,1.0478,1,,,,,,175,WORD,"ID",16,fabric,FABRIC,m,1.0478,,,,,,-0.006944444,-0.418055556,0,0,0,,0,174,174,114,1
,,,,,,,,,,,,,,,,,,5e19b24b2bf9512392d6dd90,2020-11-25_16h38.49.439,lexical_decision_task_MP_exp2,2020.2.5,Win32,60,,m,1,,,,,,,,0.819585,1,,,,,,236,WORD,UN,33,grumpy,PIRATE,m,0.819585,,,,,,-0.006944444,-0.418055556,0,0,0,,0,175,175,175,1
,,,,,,,,,,,,,,,,,,5e19b24b2bf9512392d6dd90,2020-11-25_16h38.49.439,lexical_decision_task_MP_exp2,2020.2.5,Win32,60,,z,1,,,,,,,,0.8143,1,,,,,,415,NW,"ID",16,higsta,HIGSTA,z,0.8143,,,,,,-0.006944444,-0.418055556,0,0,0,,0,176,176,354,1
,,,,,,,,,,,,,,,,,,5e19b24b2bf9512392d6dd90,2020-11-25_16h38.49.439,lexical_decision_task_MP_exp2,2020.2.5,Win32,60,,m,0,,,,,,,,1.74059,0,,,,,,348,NW,"ID",33,dumple,DUMPLE,z,1.74059,,,,,,-0.006944444,-0.418055556,0,0,0,,0,177,177,287,1
,,,,,,,,,,,,,,,,,,5e19b24b2bf9512392d6dd90,2020-11-25_16h38.49.439,lexical_decision_task_MP_exp2,2020.2.5,Win32,60,,,0,,,,,,,,1.74059,-1,,,,,,380,NW,"ID",16,cavory,CAVORY,z,,,,,,,-0.006944444,-0.418055556,0,0,0,,0,178,178,319,1
,,,,,,,,,,,,,,,,,,5e19b24b2bf9512392d6dd90,2020-11-25_16h38.49.439,lexical_decision_task_MP_exp2,2020.2.5,Win32,60,,z,0,,,,,,,,1.003665,0,,,,,,128,WORD,"ID",16,senior,SENIOR,m,1.003665,,,,,,-0.006944444,-0.418055556,0,0,0,,0,179,179,67,1
,,,,,,,,,,,,,,,,,,5e19b24b2bf9512392d6dd90,2020-11-25_16h38.49.439,lexical_decision_task_MP_exp2,2020.2.5,Win32,60,,m,1,,,,,,,,0.84798,1,,,,,,235,WORD,UN,33,pirate,GRUMPY,m,0.84798,,,,,,-0.006944444,-0.418055556,0,0,0,,0,180,180,174,1
,,,,,,,,,,,,,,,,,,5e19b24b2bf9512392d6dd90,2020-11-25_16h38.49.439,lexical_decision_task_MP_exp2,2020.2.5,Win32,60,,z,1,,,,,,,,0.84182,1,,,,,,391,NW,"ID",16,theldy,THELDY,z,0.84182,,,,,,-0.006944444,-0.418055556,0,0,0,,0,181,181,330,1
,,,,,,,,,,,,,,,,,,5e19b24b2bf9512392d6dd90,2020-11-25_16h38.49.439,lexical_decision_task_MP_exp2,2020.2.5,Win32,60,,m,1,,,,,,,,0.93198,1,,,,,,84,WORD,"ID",33,mortal,MORTAL,m,0.93198,,,,,,-0.006944444,-0.418055556,0,0,0,,0,182,182,23,1
,,,,,,,,,,,,,,,,,,5e19b24b2bf9512392d6dd90,2020-11-25_16h38.49.439,lexical_decision_task_MP_exp2,2020.2.5,Win32,60,,z,1,,,,,,,,1.082025,1,,,,,,346,NW,"ID",33,saudic,SAUDIC,z,1.082025,,,,,,-0.006944444,-0.418055556,0,0,0,,0,183,183,285,1
,,,,,,,,,,,,,,,,,,5e19b24b2bf9512392d6dd90,2020-11-25_16h38.49.439,lexical_decision_task_MP_exp2,2020.2.5,Win32,60,,m,1,,,,,,,,0.867385,1,,,,,,133,WORD,"ID",16,chrome,CHROME,m,0.867385,,,,,,-0.006944444,-0.418055556,0,0,0,,0,184,184,72,1
,,,,,,,,,,,,,,,,,,5e19b24b2bf9512392d6dd90,2020-11-25_16h38.49.439,lexical_decision_task_MP_exp2,2020.2.5,Win32,60,,z,1,,,,,,,,1.131645,1,,,,,,425,NW,UN,33,urivel,FRUDGE,z,1.131645,,,,,,-0.006944444,-0.418055556,0,0,0,,0,185,185,364,1
,,,,,,,,,,,,,,,,,,5e19b24b2bf9512392d6dd90,2020-11-25_16h38.49.439,lexical_decision_task_MP_exp2,2020.2.5,Win32,60,,m,1,,,,,,,,0.93143,1,,,,,,93,WORD,"ID",33,public,PUBLIC,m,0.93143,,,,,,-0.006944444,-0.418055556,0,0,0,,0,186,186,32,1
,,,,,,,,,,,,,,,,,,5e19b24b2bf9512392d6dd90,2020-11-25_16h38.49.439,lexical_decision_task_MP_exp2,2020.2.5,Win32,60,,z,1,,,,,,,,1.17189,1,,,,,,475,NW,UN,33,josted,PEBRIC,z,1.17189,,,,,,-0.006944444,-0.418055556,0,0,0,,0,187,187,414,1
,,,,,,,,,,,,,,,,,,5e19b24b2bf9512392d6dd90,2020-11-25_16h38.49.439,lexical_decision_task_MP_exp2,2020.2.5,Win32,60,,m,1,,,,,,,,0.913475,1,,,,,,178,WORD,"ID",16,inform,INFORM,m,0.913475,,,,,,-0.006944444,-0.418055556,0,0,0,,0,188,188,117,1
,,,,,,,,,,,,,,,,,,5e19b24b2bf9512392d6dd90,2020-11-25_16h38.49.439,lexical_decision_task_MP_exp2,2020.2.5,Win32,60,,z,1,,,,,,,,0.81317,1,,,,,,288,NW,UN,16,starby,YACEUP,z,0.81317,,,,,,-0.006944444,-0.418055556,0,0,0,,0,189,189,467,1
,,,,,,,,,,,,,,,,,,5e19b24b2bf9512392d6dd90,2020-11-25_16h38.49.439,lexical_decision_task_MP_exp2,2020.2.5,Win32,60,,m,1,,,,,,,,1.899455,1,,,,,,39,WORD,UN,16,convey,INSECT,m,1.899455,,,,,,-0.006944444,-0.418055556,0,0,0,,0,190,190,218,1
,,,,,,,,,,,,,,,,,,5e19b24b2bf9512392d6dd90,2020-11-25_16h38.49.439,lexical_decision_task_MP_exp2,2020.2.5,Win32,60,,m,1,,,,,,,,0.788445,1,,,,,,72,WORD,"ID",33,bright,BRIGHT,m,0.788445,,,,,,-0.006944444,-0.418055556,0,0,0,,0,191,191,11,1
,,,,,,,,,,,,,,,,,,5e19b24b2bf9512392d6dd90,2020-11-25_16h38.49.439,lexical_decision_task_MP_exp2,2020.2.5,Win32,60,,m,1,,,,,,,,0.73134,1,,,,,,233,WORD,UN,33,clumsy,NATURE,m,0.73134,,,,,,-0.006944444,-0.418055556,0,0,0,,0,192,192,172,1
,,,,,,,,,,,,,,,,,,5e19b24b2bf9512392d6dd90,2020-11-25_16h38.49.439,lexical_decision_task_MP_exp2,2020.2.5,Win32,60,,m,1,,,,,,,,0.798165,1,,,,,,192,WORD,UN,33,object,PLAGUE,m,0.798165,,,,,,-0.006944444,-0.418055556,0,0,0,,0,193,193,131,1
,,,,,,,,,,,,,,,,,,5e19b24b2bf9512392d6dd90,2020-11-25_16h38.49.439,lexical_decision_task_MP_exp2,2020.2.5,Win32,60,,m,1,,,,,,,,0.784645,1,,,,,,118,WORD,"ID",33,flight,FLIGHT,m,0.784645,,,,,,-0.006944444,-0.418055556,0,0,0,,0,194,194,57,1
,,,,,,,,,,,,,,,,,,5e19b24b2bf9512392d6dd90,2020-11-25_16h38.49.439,lexical_decision_task_MP_exp2,2020.2.5,Win32,60,,z,1,,,,,,,,0.98147,1,,,,,,343,NW,"ID",33,aimosy,AIMOSY,z,0.98147,,,,,,-0.006944444,-0.418055556,0,0,0,,0,195,195,282,1
,,,,,,,,,,,,,,,,,,5e19b24b2bf9512392d6dd90,2020-11-25_16h38.49.439,lexical_decision_task_MP_exp2,2020.2.5,Win32,60,,z,1,,,,,,,,0.947955,1,,,,,,349,NW,"ID",33,asylen,ASYLEN,z,0.947955,,,,,,-0.006944444,-0.418055556,0,0,0,,0,196,196,288,1
,,,,,,,,,,,,,,,,,,5e19b24b2bf9512392d6dd90,2020-11-25_16h38.49.439,lexical_decision_task_MP_exp2,2020.2.5,Win32,60,,z,1,,,,,,,,0.907235,1,,,,,,447,NW,UN,33,sadent,GIRCUE,z,0.907235,,,,,,-0.006944444,-0.418055556,0,0,0,,0,197,197,386,1
,,,,,,,,,,,,,,,,,,5e19b24b2bf9512392d6dd90,2020-11-25_16h38.49.439,lexical_decision_task_MP_exp2,2020.2.5,Win32,60,,z,1,,,,,,,,0.83793,1,,,,,,265,NW,UN,16,varmit,DISTAR,z,0.83793,,,,,,-0.006944444,-0.418055556,0,0,0,,0,198,198,444,1
,,,,,,,,,,,,,,,,,,5e19b24b2bf9512392d6dd90,2020-11-25_16h38.49.439,lexical_decision_task_MP_exp2,2020.2.5,Win32,60,,z,1,,,,,,,,0.897385,1,,,,,,305,NW,"ID",33,forgle,FORGLE,z,0.897385,,,,,,-0.006944444,-0.418055556,0,0,0,,0,199,199,244,1
,,,,,,,,,,,,,,,,,,5e19b24b2bf9512392d6dd90,2020-11-25_16h38.49.439,lexical_decision_task_MP_exp2,2020.2.5,Win32,60,,z,1,,,,,,,,0.85023,1,,,,,,347,NW,"ID",33,kerift,KERIFT,z,0.85023,,,,,,-0.006944444,-0.418055556,0,0,0,,0,200,200,286,1
,,,,,,,,,,,,,,,,,,5e19b24b2bf9512392d6dd90,2020-11-25_16h38.49.439,lexical_decision_task_MP_exp2,2020.2.5,Win32,60,,m,1,,,,,,,,0.739155,1,,,,,,53,WORD,UN,16,ramble,POLICE,m,0.739155,,,,,,-0.006944444,-0.418055556,0,0,0,,0,201,201,232,1
,,,,,,,,,,,,,,,,,,5e19b24b2bf9512392d6dd90,2020-11-25_16h38.49.439,lexical_decision_task_MP_exp2,2020.2.5,Win32,60,,m,1,,,,,,,,0.85501,1,,,,,,25,WORD,UN,16,sprint,DOMAIN,m,0.85501,,,,,,-0.006944444,-0.418055556,0,0,0,,0,202,202,204,1
,,,,,,,,,,,,,,,,,,5e19b24b2bf9512392d6dd90,2020-11-25_16h38.49.439,lexical_decision_task_MP_exp2,2020.2.5,Win32,60,,m,1,,,,,,,,0.763975,1,,,,,,34,WORD,UN,16,socket,JUNGLE,m,0.763975,,,,,,-0.006944444,-0.418055556,0,0,0,,0,203,203,213,1
,,,,,,,,,,,,,,,,,,5e19b24b2bf9512392d6dd90,2020-11-25_16h38.49.439,lexical_decision_task_MP_exp2,2020.2.5,Win32,60,,z,1,,,,,,,,0.93284,1,,,,,,310,NW,"ID",33,daniet,DANIET,z,0.93284,,,,,,-0.006944444,-0.418055556,0,0,0,,0,204,204,249,1
,,,,,,,,,,,,,,,,,,5e19b24b2bf9512392d6dd90,2020-11-25_16h38.49.439,lexical_decision_task_MP_exp2,2020.2.5,Win32,60,,z,1,,,,,,,,0.85333,1,,,,,,414,NW,"ID",16,serbol,SERBOL,z,0.85333,,,,,,-0.006944444,-0.418055556,0,0,0,,0,205,205,353,1
,,,,,,,,,,,,,,,,,,5e19b24b2bf9512392d6dd90,2020-11-25_16h38.49.439,lexical_decision_task_MP_exp2,2020.2.5,Win32,60,,m,1,,,,,,,,0.80607,1,,,,,,130,WORD,"ID",16,stupid,STUPID,m,0.80607,,,,,,-0.006944444,-0.418055556,0,0,0,,0,206,206,69,1
,,,,,,,,,,,,,,,,,,5e19b24b2bf9512392d6dd90,2020-11-25_16h38.49.439,lexical_decision_task_MP_exp2,2020.2.5,Win32,60,,m,1,,,,,,,,0.740015,1,,,,,,112,WORD,"ID",33,breath,BREATH,m,0.740015,,,,,,-0.006944444,-0.418055556,0,0,0,,0,207,207,51,1
,,,,,,,,,,,,,,,,,,5e19b24b2bf9512392d6dd90,2020-11-25_16h38.49.439,lexical_decision_task_MP_exp2,2020.2.5,Win32,60,,z,1,,,,,,,,1.236405,1,,,,,,282,NW,UN,16,veralf,PORLEX,z,1.236405,,,,,,-0.006944444,-0.418055556,0,0,0,,0,208,208,461,1
,,,,,,,,,,,,,,,,,,5e19b24b2bf9512392d6dd90,2020-11-25_16h38.49.439,lexical_decision_task_MP_exp2,2020.2.5,Win32,60,,z,1,,,,,,,,0.95128,1,,,,,,377,NW,"ID",16,injore,INJORE,z,0.95128,,,,,,-0.006944444,-0.418055556,0,0,0,,0,209,209,316,1
,,,,,,,,,,,,,,,,,,5e19b24b2bf9512392d6dd90,2020-11-25_16h38.49.439,lexical_decision_task_MP_exp2,2020.2.5,Win32,60,,m,1,,,,,,,,0.86948,1,,,,,,152,WORD,"ID",16,rocket,ROCKET,m,0.86948,,,,,,-0.006944444,-0.418055556,0,0,0,,0,210,210,91,1
,,,,,,,,,,,,,,,,,,5e19b24b2bf9512392d6dd90,2020-11-25_16h38.49.439,lexical_decision_task_MP_exp2,2020.2.5,Win32,60,,z,1,,,,,,,,0.91433,1,,,,,,243,NW,UN,16,eatric,MUSIED,z,0.91433,,,,,,-0.006944444,-0.418055556,0,0,0,,0,211,211,422,1
,,,,,,,,,,,,,,,,,,5e19b24b2bf9512392d6dd90,2020-11-25_16h38.49.439,lexical_decision_task_MP_exp2,2020.2.5,Win32,60,,z,1,,,,,,,,0.90271,1,,,,,,339,NW,"ID",33,fachow,FACHOW,z,0.90271,,,,,,-0.006944444,-0.418055556,0,0,0,,0,212,212,278,1
,,,,,,,,,,,,,,,,,,5e19b24b2bf9512392d6dd90,2020-11-25_16h38.49.439,lexical_decision_task_MP_exp2,2020.2.5,Win32,60,,m,1,,,,,,,,0.865285,1,,,,,,70,WORD,"ID",33,square,SQUARE,m,0.865285,,,,,,-0.006944444,-0.418055556,0,0,0,,0,213,213,9,1
,,,,,,,,,,,,,,,,,,5e19b24b2bf9512392d6dd90,2020-11-25_16h38.49.439,lexical_decision_task_MP_exp2,2020.2.5,Win32,60,,z,1,,,,,,,,0.94821,1,,,,,,422,NW,UN,33,streld,ALCOUD,z,0.94821,,,,,,-0.006944444,-0.418055556,0,0,0,,0,214,214,361,1
,,,,,,,,,,,,,,,,,,5e19b24b2bf9512392d6dd90,2020-11-25_16h38.49.439,lexical_decision_task_MP_exp2,2020.2.5,Win32,60,,m,1,,,,,,,,0.818945,1,,,,,,79,WORD,"ID",33,theory,THEORY,m,0.818945,,,,,,-0.006944444,-0.418055556,0,0,0,,0,215,215,18,1
,,,,,,,,,,,,,,,,,,5e19b24b2bf9512392d6dd90,2020-11-25_16h38.49.439,lexical_decision_task_MP_exp2,2020.2.5,Win32,60,,m,1,,,,,,,,0.70436,1,,,,,,181,WORD,UN,33,winter,GLANCE,m,0.70436,,,,,,-0.006944444,-0.418055556,0,0,0,,0,216,216,120,1
,,,,,,,,,,,,,,,,,,5e19b24b2bf9512392d6dd90,2020-11-25_16h38.49.439,lexical_decision_task_MP_exp2,2020.2.5,Win32,60,,z,1,,,,,,,,0.73853,1,,,,,,341,NW,"ID",33,myrtie,MYRTIE,z,0.73853,,,,,,-0.006944444,-0.418055556,0,0,0,,0,217,217,280,1
,,,,,,,,,,,,,,,,,,5e19b24b2bf9512392d6dd90,2020-11-25_16h38.49.439,lexical_decision_task_MP_exp2,2020.2.5,Win32,60,,m,1,,,,,,,,0.83549,1,,,,,,228,WORD,UN,33,kidney,MASTER,m,0.83549,,,,,,-0.006944444,-0.418055556,0,0,0,,0,218,218,167,1
,,,,,,,,,,,,,,,,,,5e19b24b2bf9512392d6dd90,2020-11-25_16h38.49.439,lexical_decision_task_MP_exp2,2020.2.5,Win32,60,,m,1,,,,,,,,0.73325,1,,,,,,136,WORD,"ID",16,bleach,BLEACH,m,0.73325,,,,,,-0.006944444,-0.418055556,0,0,0,,0,219,219,75,1
,,,,,,,,,,,,,,,,,,5e19b24b2bf9512392d6dd90,2020-11-25_16h38.49.439,lexical_decision_task_MP_exp2,2020.2.5,Win32,60,,z,1,,,,,,,,0.7919,1,,,,,,467,NW,UN,33,wictor,GORBIE,z,0.7919,,,,,,-0.006944444,-0.418055556,0,0,0,,0,220,220,406,1
,,,,,,,,,,,,,,,,,,5e19b24b2bf9512392d6dd90,2020-11-25_16h38.49.439,lexical_decision_task_MP_exp2,2020.2.5,Win32,60,,m,1,,,,,,,,1.3575,1,,,,,,142,WORD,"ID",16,spruce,SPRUCE,m,1.3575,,,,,,-0.006944444,-0.418055556,0,0,0,,0,221,221,81,1
,,,,,,,,,,,,,,,,,,5e19b24b2bf9512392d6dd90,2020-11-25_16h38.49.439,lexical_decision_task_MP_exp2,2020.2.5,Win32,60,,z,1,,,,,,,,0.75598,1,,,,,,436,NW,UN,33,snapel,FRUTAN,z,0.75598,,,,,,-0.006944444,-0.418055556,0,0,0,,0,222,222,375,1
,,,,,,,,,,,,,,,,,,5e19b24b2bf9512392d6dd90,2020-11-25_16h38.49.439,lexical_decision_task_MP_exp2,2020.2.5,Win32,60,,z,1,,,,,,,,0.838515,1,,,,,,410,NW,"ID",16,tunory,TUNORY,z,0.838515,,,,,,-0.006944444,-0.418055556,0,0,0,,0,223,223,349,1
,,,,,,,,,,,,,,,,,,5e19b24b2bf9512392d6dd90,2020-11-25_16h38.49.439,lexical_decision_task_MP_exp2,2020.2.5,Win32,60,,m,1,,,,,,,,0.857775,1,,,,,,8,WORD,UN,16,hustle,ABRUPT,m,0.857775,,,,,,-0.006944444,-0.418055556,0,0,0,,0,224,224,187,1
,,,,,,,,,,,,,,,,,,5e19b24b2bf9512392d6dd90,2020-11-25_16h38.49.439,lexical_decision_task_MP_exp2,2020.2.5,Win32,60,,z,1,,,,,,,,0.798545,1,,,,,,463,NW,UN,33,chaite,KISPEL,z,0.798545,,,,,,-0.006944444,-0.418055556,0,0,0,,0,225,225,402,1
,,,,,,,,,,,,,,,,,,5e19b24b2bf9512392d6dd90,2020-11-25_16h38.49.439,lexical_decision_task_MP_exp2,2020.2.5,Win32,60,,m,1,,,,,,,,0.863605,1,,,,,,163,WORD,"ID",16,string,STRING,m,0.863605,,,,,,-0.006944444,-0.418055556,0,0,0,,0,226,226,102,1
,,,,,,,,,,,,,,,,,,5e19b24b2bf9512392d6dd90,2020-11-25_16h38.49.439,lexical_decision_task_MP_exp2,2020.2.5,Win32,60,,m,1,,,,,,,,0.76437,1,,,,,,132,WORD,"ID",16,strong,STRONG,m,0.76437,,,,,,-0.006944444,-0.418055556,0,0,0,,0,227,227,71,1
,,,,,,,,,,,,,,,,,,5e19b24b2bf9512392d6dd90,2020-11-25_16h38.49.439,lexical_decision_task_MP_exp2,2020.2.5,Win32,60,,z,1,,,,,,,,0.753925,1,,,,,,385,NW,"ID",16,veigma,VEIGMA,z,0.753925,,,,,,-0.006944444,-0.418055556,0,0,0,,0,228,228,324,1
,,,,,,,,,,,,,,,,,,5e19b24b2bf9512392d6dd90,2020-11-25_16h38.49.439,lexical_decision_task_MP_exp2,2020.2.5,Win32,60,,z,1,,,,,,,,0.81403,1,,,,,,418,NW,"ID",16,suidle,SUIDLE,z,0.81403,,,,,,-0.006944444,-0.418055556,0,0,0,,0,229,229,357,1
,,,,,,,,,,,,,,,,,,5e19b24b2bf9512392d6dd90,2020-11-25_16h38.49.439,lexical_decision_task_MP_exp2,2020.2.5,Win32,60,,z,1,,,,,,,,1.20448,1,,,,,,357,NW,"ID",33,derain,DERAIN,z,1.20448,,,,,,-0.006944444,-0.418055556,0,0,0,,0,230,230,296,1
,,,,,,,,,,,,,,,,,,5e19b24b2bf9512392d6dd90,2020-11-25_16h38.49.439,lexical_decision_task_MP_exp2,2020.2.5,Win32,60,,m,1,,,,,,,,0.653225,1,,,,,,32,WORD,UN,16,scream,BUCKLE,m,0.653225,,,,,,-0.006944444,-0.418055556,0,0,0,,0,231,231,211,1
,,,,,,,,,,,,,,,,,,5e19b24b2bf9512392d6dd90,2020-11-25_16h38.49.439,lexical_decision_task_MP_exp2,2020.2.5,Win32,60,,z,1,,,,,,,,0.813905,1,,,,,,390,NW,"ID",16,hatrus,HATRUS,z,0.813905,,,,,,-0.006944444,-0.418055556,0,0,0,,0,232,232,329,1
,,,,,,,,,,,,,,,,,,5e19b24b2bf9512392d6dd90,2020-11-25_16h38.49.439,lexical_decision_task_MP_exp2,2020.2.5,Win32,60,,m,1,,,,,,,,0.93304,1,,,,,,97,WORD,"ID",33,client,CLIENT,m,0.93304,,,,,,-0.006944444,-0.418055556,0,0,0,,0,233,233,36,1
,,,,,,,,,,,,,,,,,,5e19b24b2bf9512392d6dd90,2020-11-25_16h38.49.439,lexical_decision_task_MP_exp2,2020.2.5,Win32,60,,z,1,,,,,,,,0.780645,1,,,,,,258,NW,UN,16,soudal,POLUTH,z,0.780645,,,,,,-0.006944444,-0.418055556,0,0,0,,0,234,234,437,1
,,,,,,,,,,,,,,,,,,5e19b24b2bf9512392d6dd90,2020-11-25_16h38.49.439,lexical_decision_task_MP_exp2,2020.2.5,Win32,60,,z,1,,,,,,,,0.805655,1,,,,,,389,NW,"ID",16,witmer,WITMER,z,0.805655,,,,,,-0.006944444,-0.418055556,0,0,0,,0,235,235,328,1
,,,,,,,,,,,,,,,,,,5e19b24b2bf9512392d6dd90,2020-11-25_16h38.49.439,lexical_decision_task_MP_exp2,2020.2.5,Win32,60,,m,1,,,,,,,,0.7151,1,,,,,,87,WORD,"ID",33,filter,FILTER,m,0.7151,,,,,,-0.006944444,-0.418055556,0,0,0,,0,236,236,26,1
,,,,,,,,,,,,,,,,,,5e19b24b2bf9512392d6dd90,2020-11-25_16h38.49.439,lexical_decision_task_MP_exp2,2020.2.5,Win32,60,,m,1,,,,,,,,0.7503,1,,,,,,100,WORD,"ID",33,carbon,CARBON,m,0.7503,,,,,,-0.006944444,-0.418055556,0,0,0,,0,237,237,39,1
,,,,,,,,,,,,,,,,,,5e19b24b2bf9512392d6dd90,2020-11-25_16h38.49.439,lexical_decision_task_MP_exp2,2020.2.5,Win32,60,,z,1,,,,,,,,0.781785,1,,,,,,439,NW,UN,33,saride,LIMPOR,z,0.781785,,,,,,-0.006944444,-0.418055556,0,0,0,,0,238,238,378,1
,,,,,,,,,,,,,,,,,,5e19b24b2bf9512392d6dd90,2020-11-25_16h38.49.439,lexical_decision_task_MP_exp2,2020.2.5,Win32,60,,m,1,,,,,,,,0.72518,1,,,,,,144,WORD,"ID",16,sponge,SPONGE,m,0.72518,,,,,,-0.006944444,-0.418055556,0,0,0,,0,239,239,83,1
,,,,,,,,,,,,,,,,,,5e19b24b2bf9512392d6dd90,2020-11-25_16h38.49.439,lexical_decision_task_MP_exp2,2020.2.5,Win32,60,,m,1,,,,,,,,0.916915,1,,,,,,105,WORD,"ID",33,number,NUMBER,m,0.916915,,,,,,-0.006944444,-0.418055556,0,0,0,,0,240,240,44,1
,,,,,,,,,,,,,,,,,,5e19b24b2bf9512392d6dd90,2020-11-25_16h38.49.439,lexical_decision_task_MP_exp2,2020.2.5,Win32,60,,m,1,,,,,,,,0.77588,1,,,,,,64,WORD,"ID",33,throne,THRONE,m,0.77588,,,,,,-0.006944444,-0.418055556,0,0,0,,0,241,241,3,1
,,,,,,,,,,,,,,,,,,5e19b24b2bf9512392d6dd90,2020-11-25_16h38.49.439,lexical_decision_task_MP_exp2,2020.2.5,Win32,60,,z,1,,,,,,,,0.989705,1,,,,,,399,NW,"ID",16,fouret,FOURET,z,0.989705,,,,,,-0.006944444,-0.418055556,0,0,0,,0,242,242,338,1
,,,,,,,,,,,,,,,,,,5e19b24b2bf9512392d6dd90,2020-11-25_16h38.49.439,lexical_decision_task_MP_exp2,2020.2.5,Win32,60,,z,1,,,,,,,,0.783075,1,,,,,,259,NW,UN,16,unject,SOUDAL,z,0.783075,,,,,,-0.006944444,-0.418055556,0,0,0,,0,243,243,438,1
,,,,,,,,,,,,,,,,,,5e19b24b2bf9512392d6dd90,2020-11-25_16h38.49.439,lexical_decision_task_MP_exp2,2020.2.5,Win32,60,,m,1,,,,,,,,0.814505,1,,,,,,85,WORD,"ID",33,sprawl,SPRAWL,m,0.814505,,,,,,-0.006944444,-0.418055556,0,0,0,,0,244,244,24,1
,,,,,,,,,,,,,,,,,,5e19b24b2bf9512392d6dd90,2020-11-25_16h38.49.439,lexical_decision_task_MP_exp2,2020.2.5,Win32,60,,m,1,,,,,,,,0.94677,1,,,,,,161,WORD,"ID",16,pastor,PASTOR,m,0.94677,,,,,,-0.006944444,-0.418055556,0,0,0,,0,245,245,100,1
,,,,,,,,,,,,,,,,,,5e19b24b2bf9512392d6dd90,2020-11-25_16h38.49.439,lexical_decision_task_MP_exp2,2020.2.5,Win32,60,,z,1,,,,,,,,1.363855,1,,,,,,260,NW,UN,16,stunch,UNJECT,z,1.363855,,,,,,-0.006944444,-0.418055556,0,0,0,,0,246,246,439,1
,,,,,,,,,,,,,,,,,,5e19b24b2bf9512392d6dd90,2020-11-25_16h38.49.439,lexical_decision_task_MP_exp2,2020.2.5,Win32,60,,z,1,,,,,,,,0.754205,1,,,,,,273,NW,UN,16,fumblo,SORTEL,z,0.754205,,,,,,-0.006944444,-0.418055556,0,0,0,,0,247,247,452,1
,,,,,,,,,,,,,,,,,,5e19b24b2bf9512392d6dd90,2020-11-25_16h38.49.439,lexical_decision_task_MP_exp2,2020.2.5,Win32,60,,m,1,,,,,,,,0.74627,1,,,,,,27,WORD,UN,16,comedy,SCREAM,m,0.74627,,,,,,-0.006944444,-0.418055556,0,0,0,,0,248,248,206,1
,,,,,,,,,,,,,,,,,,5e19b24b2bf9512392d6dd90,2020-11-25_16h38.49.439,lexical_decision_task_MP_exp2,2020.2.5,Win32,60,,m,1,,,,,,,,0.8018,1,,,,,,46,WORD,UN,16,income,SINGLE,m,0.8018,,,,,,-0.006944444,-0.418055556,0,0,0,,0,249,249,225,1
,,,,,,,,,,,,,,,,,,5e19b24b2bf9512392d6dd90,2020-11-25_16h38.49.439,lexical_decision_task_MP_exp2,2020.2.5,Win32,60,,m,1,,,,,,,,1.18141,1,,,,,,206,WORD,UN,33,wreath,TAILOR,m,1.18141,,,,,,-0.006944444,-0.418055556,0,0,0,,0,250,250,145,1
,,,,,,,,,,,,,,,,,,5e19b24b2bf9512392d6dd90,2020-11-25_16h38.49.439,lexical_decision_task_MP_exp2,2020.2.5,Win32,60,,m,1,,,,,,,,0.764265,1,,,,,,71,WORD,"ID",33,garden,GARDEN,m,0.764265,,,,,,-0.006944444,-0.418055556,0,0,0,,0,251,251,10,1
,,,,,,,,,,,,,,,,,,5e19b24b2bf9512392d6dd90,2020-11-25_16h38.49.439,lexical_decision_task_MP_exp2,2020.2.5,Win32,60,,m,1,,,,,,,,0.765155,1,,,,,,41,WORD,UN,16,chapel,SPRING,m,0.765155,,,,,,-0.006944444,-0.418055556,0,0,0,,0,252,252,220,1
,,,,,,,,,,,,,,,,,,5e19b24b2bf9512392d6dd90,2020-11-25_16h38.49.439,lexical_decision_task_MP_exp2,2020.2.5,Win32,60,,z,1,,,,,,,,1.0526,1,,,,,,293,NW,UN,16,inhort,SWANCE,z,1.0526,,,,,,-0.006944444,-0.418055556,0,0,0,,0,253,253,472,1
,,,,,,,,,,,,,,,,,,5e19b24b2bf9512392d6dd90,2020-11-25_16h38.49.439,lexical_decision_task_MP_exp2,2020.2.5,Win32,60,,m,1,,,,,,,,0.964125,1,,,,,,104,WORD,"ID",33,studio,STUDIO,m,0.964125,,,,,,-0.006944444,-0.418055556,0,0,0,,0,254,254,43,1
,,,,,,,,,,,,,,,,,,5e19b24b2bf9512392d6dd90,2020-11-25_16h38.49.439,lexical_decision_task_MP_exp2,2020.2.5,Win32,60,,z,1,,,,,,,,0.83107,1,,,,,,241,NW,UN,16,unwert,SMENCO,z,0.83107,,,,,,-0.006944444,-0.418055556,0,0,0,,0,255,255,420,1
,,,,,,,,,,,,,,,,,,5e19b24b2bf9512392d6dd90,2020-11-25_16h38.49.439,lexical_decision_task_MP_exp2,2020.2.5,Win32,60,,m,1,,,,,,,,0.880985,1,,,,,,138,WORD,"ID",16,melody,MELODY,m,0.880985,,,,,,-0.006944444,-0.418055556,0,0,0,,0,256,256,77,1
,,,,,,,,,,,,,,,,,,5e19b24b2bf9512392d6dd90,2020-11-25_16h38.49.439,lexical_decision_task_MP_exp2,2020.2.5,Win32,60,,m,1,,,,,,,,0.698945,1,,,,,,190,WORD,UN,33,stable,BACKUP,m,0.698945,,,,,,-0.006944444,-0.418055556,0,0,0,,0,257,257,129,1
,,,,,,,,,,,,,,,,,,5e19b24b2bf9512392d6dd90,2020-11-25_16h38.49.439,lexical_decision_task_MP_exp2,2020.2.5,Win32,60,,m,1,,,,,,,,0.764855,1,,,,,,96,WORD,"ID",33,ignore,IGNORE,m,0.764855,,,,,,-0.006944444,-0.418055556,0,0,0,,0,258,258,35,1
,,,,,,,,,,,,,,,,,,5e19b24b2bf9512392d6dd90,2020-11-25_16h38.49.439,lexical_decision_task_MP_exp2,2020.2.5,Win32,60,,z,1,,,,,,,,0.914455,1,,,,,,368,NW,"ID",16,hornal,HORNAL,z,0.914455,,,,,,-0.006944444,-0.418055556,0,0,0,,0,259,259,307,1
,,,,,,,,,,,,,,,,,,5e19b24b2bf9512392d6dd90,2020-11-25_16h38.49.439,lexical_decision_task_MP_exp2,2020.2.5,Win32,60,,z,1,,,,,,,,0.734845,1,,,,,,311,NW,"ID",33,sproly,SPROLY,z,0.734845,,,,,,-0.006944444,-0.418055556,0,0,0,,0,260,260,250,1
,,,,,,,,,,,,,,,,,,5e19b24b2bf9512392d6dd90,2020-11-25_16h38.49.439,lexical_decision_task_MP_exp2,2020.2.5,Win32,60,,z,1,,,,,,,,0.64742,1,,,,,,298,NW,UN,16,sturch,PIERGY,z,0.64742,,,,,,-0.006944444,-0.418055556,0,0,0,,0,261,261,477,1
,,,,,,,,,,,,,,,,,,5e19b24b2bf9512392d6dd90,2020-11-25_16h38.49.439,lexical_decision_task_MP_exp2,2020.2.5,Win32,60,,m,1,,,,,,,,0.697255,1,,,,,,146,WORD,"ID",16,couple,COUPLE,m,0.697255,,,,,,-0.006944444,-0.418055556,0,0,0,,0,262,262,85,1
,,,,,,,,,,,,,,,,,,5e19b24b2bf9512392d6dd90,2020-11-25_16h38.49.439,lexical_decision_task_MP_exp2,2020.2.5,Win32,60,,m,1,,,,,,,,0.717125,1,,,,,,154,WORD,"ID",16,author,AUTHOR,m,0.717125,,,,,,-0.006944444,-0.418055556,0,0,0,,0,263,263,93,1
,,,,,,,,,,,,,,,,,,5e19b24b2bf9512392d6dd90,2020-11-25_16h38.49.439,lexical_decision_task_MP_exp2,2020.2.5,Win32,60,,z,1,,,,,,,,0.71993,1,,,,,,378,NW,"ID",16,shrile,SHRILE,z,0.71993,,,,,,-0.006944444,-0.418055556,0,0,0,,0,264,264,317,1
,,,,,,,,,,,,,,,,,,5e19b24b2bf9512392d6dd90,2020-11-25_16h38.49.439,lexical_decision_task_MP_exp2,2020.2.5,Win32,60,,z,1,,,,,,,,1.07428,1,,,,,,424,NW,UN,33,frudge,PRAILE,z,1.07428,,,,,,-0.006944444,-0.418055556,0,0,0,,0,265,265,363,1
,,,,,,,,,,,,,,,,,,5e19b24b2bf9512392d6dd90,2020-11-25_16h38.49.439,lexical_decision_task_MP_exp2,2020.2.5,Win32,60,,m,1,,,,,,,,1.03041,1,,,,,,124,WORD,"ID",16,blouse,BLOUSE,m,1.03041,,,,,,-0.006944444,-0.418055556,0,0,0,,0,266,266,63,1
,,,,,,,,,,,,,,,,,,5e19b24b2bf9512392d6dd90,2020-11-25_16h38.49.439,lexical_decision_task_MP_exp2,2020.2.5,Win32,60,,m,1,,,,,,,,0.77138,1,,,,,,213,WORD,UN,33,intake,SQUEAL,m,0.77138,,,,,,-0.006944444,-0.418055556,0,0,0,,0,267,267,152,1
,,,,,,,,,,,,,,,,,,5e19b24b2bf9512392d6dd90,2020-11-25_16h38.49.439,lexical_decision_task_MP_exp2,2020.2.5,Win32,60,,m,1,,,,,,,,0.75424,1,,,,,,99,WORD,"ID",33,fluent,FLUENT,m,0.75424,,,,,,-0.006944444,-0.418055556,0,0,0,,0,268,268,38,1
,,,,,,,,,,,,,,,,,,5e19b24b2bf9512392d6dd90,2020-11-25_16h38.49.439,lexical_decision_task_MP_exp2,2020.2.5,Win32,60,,z,1,,,,,,,,0.79917,1,,,,,,396,NW,"ID",16,flengy,FLENGY,z,0.79917,,,,,,-0.006944444,-0.418055556,0,0,0,,0,269,269,335,1
,,,,,,,,,,,,,,,,,,5e19b24b2bf9512392d6dd90,2020-11-25_16h38.49.439,lexical_decision_task_MP_exp2,2020.2.5,Win32,60,,m,1,,,,,,,,1.670875,1,,,,,,49,WORD,UN,16,snatch,SURVEY,m,1.670875,,,,,,-0.006944444,-0.418055556,0,0,0,,0,270,270,228,1
,,,,,,,,,,,,,,,,,,5e19b24b2bf9512392d6dd90,2020-11-25_16h38.49.439,lexical_decision_task_MP_exp2,2020.2.5,Win32,60,,m,1,,,,,,,,0.772965,1,,,,,,173,WORD,"ID",16,shower,SHOWER,m,0.772965,,,,,,-0.006944444,-0.418055556,0,0,0,,0,271,271,112,1
,,,,,,,,,,,,,,,,,,5e19b24b2bf9512392d6dd90,2020-11-25_16h38.49.439,lexical_decision_task_MP_exp2,2020.2.5,Win32,60,,z,1,,,,,,,,1.122005,1,,,,,,464,NW,UN,33,whivex,CHAITE,z,1.122005,,,,,,-0.006944444,-0.418055556,0,0,0,,0,272,272,403,1
,,,,,,,,,,,,,,,,,,5e19b24b2bf9512392d6dd90,2020-11-25_16h38.49.439,lexical_decision_task_MP_exp2,2020.2.5,Win32,60,,m,1,,,,,,,,0.70879,1,,,,,,172,WORD,"ID",16,patrol,PATROL,m,0.70879,,,,,,-0.006944444,-0.418055556,0,0,0,,0,273,273,111,1
,,,,,,,,,,,,,,,,,,5e19b24b2bf9512392d6dd90,2020-11-25_16h38.49.439,lexical_decision_task_MP_exp2,2020.2.5,Win32,60,,z,1,,,,,,,,0.838035,1,,,,,,267,NW,UN,16,packes,PASINK,z,0.838035,,,,,,-0.006944444,-0.418055556,0,0,0,,0,274,274,446,1
,,,,,,,,,,,,,,,,,,5e19b24b2bf9512392d6dd90,2020-11-25_16h38.49.439,lexical_decision_task_MP_exp2,2020.2.5,Win32,60,,z,1,,,,,,,,1.213895,1,,,,,,294,NW,UN,16,gleath,INHORT,z,1.213895,,,,,,-0.006944444,-0.418055556,0,0,0,,0,275,275,473,1
,,,,,,,,,,,,,,,,,,5e19b24b2bf9512392d6dd90,2020-11-25_16h38.49.439,lexical_decision_task_MP_exp2,2020.2.5,Win32,60,,z,1,,,,,,,,0.92033,1,,,,,,413,NW,"ID",16,equats,EQUATS,z,0.92033,,,,,,-0.006944444,-0.418055556,0,0,0,,0,276,276,352,1
,,,,,,,,,,,,,,,,,,5e19b24b2bf9512392d6dd90,2020-11-25_16h38.49.439,lexical_decision_task_MP_exp2,2020.2.5,Win32,60,,m,1,,,,,,,,0.9025,1,,,,,,129,WORD,"ID",16,marvel,MARVEL,m,0.9025,,,,,,-0.006944444,-0.418055556,0,0,0,,0,277,277,68,1
,,,,,,,,,,,,,,,,,,5e19b24b2bf9512392d6dd90,2020-11-25_16h38.49.439,lexical_decision_task_MP_exp2,2020.2.5,Win32,60,,m,1,,,,,,,,0.82491,1,,,,,,42,WORD,UN,16,tongue,CHAPEL,m,0.82491,,,,,,-0.006944444,-0.418055556,0,0,0,,0,278,278,221,1
,,,,,,,,,,,,,,,,,,5e19b24b2bf9512392d6dd90,2020-11-25_16h38.49.439,lexical_decision_task_MP_exp2,2020.2.5,Win32,60,,m,1,,,,,,,,0.764675,1,,,,,,200,WORD,UN,33,admire,BEACON,m,0.764675,,,,,,-0.006944444,-0.418055556,0,0,0,,0,279,279,139,1
,,,,,,,,,,,,,,,,,,5e19b24b2bf9512392d6dd90,2020-11-25_16h38.49.439,lexical_decision_task_MP_exp2,2020.2.5,Win32,60,,z,1,,,,,,,,0.724355,1,,,,,,286,NW,UN,16,nymbel,RELDON,z,0.724355,,,,,,-0.006944444,-0.418055556,0,0,0,,0,280,280,465,1
,,,,,,,,,,,,,,,,,,5e19b24b2bf9512392d6dd90,2020-11-25_16h38.49.439,lexical_decision_task_MP_exp2,2020.2.5,Win32,60,,m,1,,,,,,,,0.76542,1,,,,,,66,WORD,"ID",33,gospel,GOSPEL,m,0.76542,,,,,,-0.006944444,-0.418055556,0,0,0,,0,281,281,5,1
,,,,,,,,,,,,,,,,,,5e19b24b2bf9512392d6dd90,2020-11-25_16h38.49.439,lexical_decision_task_MP_exp2,2020.2.5,Win32,60,,z,1,,,,,,,,1.08284,1,,,,,,402,NW,"ID",16,syntic,SYNTIC,z,1.08284,,,,,,-0.006944444,-0.418055556,0,0,0,,0,282,282,341,1
,,,,,,,,,,,,,,,,,,5e19b24b2bf9512392d6dd90,2020-11-25_16h38.49.439,lexical_decision_task_MP_exp2,2020.2.5,Win32,60,,z,1,,,,,,,,0.85345,1,,,,,,381,NW,"ID",16,huniek,HUNIEK,z,0.85345,,,,,,-0.006944444,-0.418055556,0,0,0,,0,283,283,320,1
,,,,,,,,,,,,,,,,,,5e19b24b2bf9512392d6dd90,2020-11-25_16h38.49.439,lexical_decision_task_MP_exp2,2020.2.5,Win32,60,,z,1,,,,,,,,0.84793,1,,,,,,278,NW,UN,16,celond,UNIGHS,z,0.84793,,,,,,-0.006944444,-0.418055556,0,0,0,,0,284,284,457,1
,,,,,,,,,,,,,,,,,,5e19b24b2bf9512392d6dd90,2020-11-25_16h38.49.439,lexical_decision_task_MP_exp2,2020.2.5,Win32,60,,z,1,,,,,,,,0.66467,1,,,,,,256,NW,UN,16,veniod,INLORS,z,0.66467,,,,,,-0.006944444,-0.418055556,0,0,0,,0,285,285,435,1
,,,,,,,,,,,,,,,,,,5e19b24b2bf9512392d6dd90,2020-11-25_16h38.49.439,lexical_decision_task_MP_exp2,2020.2.5,Win32,60,,m,1,,,,,,,,0.69742,1,,,,,,6,WORD,UN,16,anchor,BUNDLE,m,0.69742,,,,,,-0.006944444,-0.418055556,0,0,0,,0,286,286,185,1
,,,,,,,,,,,,,,,,,,5e19b24b2bf9512392d6dd90,2020-11-25_16h38.49.439,lexical_decision_task_MP_exp2,2020.2.5,Win32,60,,m,1,,,,,,,,1.621435,1,,,,,,95,WORD,"ID",33,thread,THREAD,m,1.621435,,,,,,-0.006944444,-0.418055556,0,0,0,,0,287,287,34,1
,,,,,,,,,,,,,,,,,,5e19b24b2bf9512392d6dd90,2020-11-25_16h38.49.439,lexical_decision_task_MP_exp2,2020.2.5,Win32,60,,m,1,,,,,,,,0.61824,1,,,,,,205,WORD,UN,33,tailor,LOUNGE,m,0.61824,,,,,,-0.006944444,-0.418055556,0,0,0,,0,288,288,144,1
,,,,,,,,,,,,,,,,,,5e19b24b2bf9512392d6dd90,2020-11-25_16h38.49.439,lexical_decision_task_MP_exp2,2020.2.5,Win32,60,,m,1,,,,,,,,0.714255,1,,,,,,239,WORD,UN,33,forest,LUMBER,m,0.714255,,,,,,-0.006944444,-0.418055556,0,0,0,,0,289,289,178,1
,,,,,,,,,,,,,,,,,,5e19b24b2bf9512392d6dd90,2020-11-25_16h38.49.439,lexical_decision_task_MP_exp2,2020.2.5,Win32,60,,m,1,,,,,,,,0.689085,1,,,,,,121,WORD,"ID",16,thrive,THRIVE,m,0.689085,,,,,,-0.006944444,-0.418055556,0,0,0,,0,290,290,60,1
,,,,,,,,,,,,,,,,,,5e19b24b2bf9512392d6dd90,2020-11-25_16h38.49.439,lexical_decision_task_MP_exp2,2020.2.5,Win32,60,,m,1,,,,,,,,0.687625,1,,,,,,75,WORD,"ID",33,trophy,TROPHY,m,0.687625,,,,,,-0.006944444,-0.418055556,0,0,0,,0,291,291,14,1
,,,,,,,,,,,,,,,,,,5e19b24b2bf9512392d6dd90,2020-11-25_16h38.49.439,lexical_decision_task_MP_exp2,2020.2.5,Win32,60,,m,1,,,,,,,,0.730915,1,,,,,,214,WORD,UN,33,phobia,INTAKE,m,0.730915,,,,,,-0.006944444,-0.418055556,0,0,0,,0,292,292,153,1
,,,,,,,,,,,,,,,,,,5e19b24b2bf9512392d6dd90,2020-11-25_16h38.49.439,lexical_decision_task_MP_exp2,2020.2.5,Win32,60,,m,1,,,,,,,,0.6814,1,,,,,,201,WORD,UN,33,factor,ADMIRE,m,0.6814,,,,,,-0.006944444,-0.418055556,0,0,0,,0,293,293,140,1
,,,,,,,,,,,,,,,,,,5e19b24b2bf9512392d6dd90,2020-11-25_16h38.49.439,lexical_decision_task_MP_exp2,2020.2.5,Win32,60,,z,1,,,,,,,,0.632335,1,,,,,,317,NW,"ID",33,worbal,WORBAL,z,0.632335,,,,,,-0.006944444,-0.418055556,0,0,0,,0,294,294,256,1
,,,,,,,,,,,,,,,,,,5e19b24b2bf9512392d6dd90,2020-11-25_16h38.49.439,lexical_decision_task_MP_exp2,2020.2.5,Win32,60,,m,1,,,,,,,,0.76428,1,,,,,,63,WORD,"ID",33,launch,LAUNCH,m,0.76428,,,,,,-0.006944444,-0.418055556,0,0,0,,0,295,295,2,1
,,,,,,,,,,,,,,,,,,5e19b24b2bf9512392d6dd90,2020-11-25_16h38.49.439,lexical_decision_task_MP_exp2,2020.2.5,Win32,60,,m,1,,,,,,,,1.22996,1,,,,,,139,WORD,"ID",16,debris,DEBRIS,m,1.22996,,,,,,-0.006944444,-0.418055556,0,0,0,,0,296,296,78,1
,,,,,,,,,,,,,,,,,,5e19b24b2bf9512392d6dd90,2020-11-25_16h38.49.439,lexical_decision_task_MP_exp2,2020.2.5,Win32,60,,m,1,,,,,,,,0.96398,1,,,,,,193,WORD,UN,33,mildew,OBJECT,m,0.96398,,,,,,-0.006944444,-0.418055556,0,0,0,,0,297,297,132,1
,,,,,,,,,,,,,,,,,,5e19b24b2bf9512392d6dd90,2020-11-25_16h38.49.439,lexical_decision_task_MP_exp2,2020.2.5,Win32,60,,m,1,,,,,,,,0.669925,1,,,,,,17,WORD,UN,16,humble,CHARGE,m,0.669925,,,,,,-0.006944444,-0.418055556,0,0,0,,0,298,298,196,1
,,,,,,,,,,,,,,,,,,5e19b24b2bf9512392d6dd90,2020-11-25_16h38.49.439,lexical_decision_task_MP_exp2,2020.2.5,Win32,60,,m,1,,,,,,,,0.6645,1,,,,,,191,WORD,UN,33,beacon,STABLE,m,0.6645,,,,,,-0.006944444,-0.418055556,0,0,0,,0,299,299,130,1
,,,,,,,,,,,,,,,,,,5e19b24b2bf9512392d6dd90,2020-11-25_16h38.49.439,lexical_decision_task_MP_exp2,2020.2.5,Win32,60,,z,1,,,,,,,,1.116125,1,,,,,,289,NW,UN,16,splino,STARBY,z,1.116125,,,,,,-0.006944444,-0.418055556,0,0,0,,0,300,300,468,1
,,,,,,,,,,,,,,,,,,5e19b24b2bf9512392d6dd90,2020-11-25_16h38.49.439,lexical_decision_task_MP_exp2,2020.2.5,Win32,60,,m,1,,,,,,,,0.75129,1,,,,,,119,WORD,"ID",33,spider,SPIDER,m,0.75129,,,,,,-0.006944444,-0.418055556,0,0,0,,0,301,301,58,1
,,,,,,,,,,,,,,,,,,5e19b24b2bf9512392d6dd90,2020-11-25_16h38.49.439,lexical_decision_task_MP_exp2,2020.2.5,Win32,60,,m,1,,,,,,,,0.88178,1,,,,,,204,WORD,UN,33,lounge,BURDEN,m,0.88178,,,,,,-0.006944444,-0.418055556,0,0,0,,0,302,302,143,1
,,,,,,,,,,,,,,,,,,5e19b24b2bf9512392d6dd90,2020-11-25_16h38.49.439,lexical_decision_task_MP_exp2,2020.2.5,Win32,60,,z,1,,,,,,,,0.77199,1,,,,,,421,NW,UN,33,alcoud,KNISMA,z,0.77199,,,,,,-0.006944444,-0.418055556,0,0,0,,0,303,303,360,1
,,,,,,,,,,,,,,,,,,5e19b24b2bf9512392d6dd90,2020-11-25_16h38.49.439,lexical_decision_task_MP_exp2,2020.2.5,Win32,60,,m,1,,,,,,,,0.76834,1,,,,,,171,WORD,"ID",16,depart,DEPART,m,0.76834,,,,,,-0.006944444,-0.418055556,0,0,0,,0,304,304,110,1
,,,,,,,,,,,,,,,,,,5e19b24b2bf9512392d6dd90,2020-11-25_16h38.49.439,lexical_decision_task_MP_exp2,2020.2.5,Win32,60,,m,1,,,,,,,,1.151885,1,,,,,,223,WORD,UN,33,period,KIDNEY,m,1.151885,,,,,,-0.006944444,-0.418055556,0,0,0,,0,305,305,162,1
,,,,,,,,,,,,,,,,,,5e19b24b2bf9512392d6dd90,2020-11-25_16h38.49.439,lexical_decision_task_MP_exp2,2020.2.5,Win32,60,,m,1,,,,,,,,0.648045,1,,,,,,91,WORD,"ID",33,expand,EXPAND,m,0.648045,,,,,,-0.006944444,-0.418055556,0,0,0,,0,306,306,30,1
,,,,,,,,,,,,,,,,,,5e19b24b2bf9512392d6dd90,2020-11-25_16h38.49.439,lexical_decision_task_MP_exp2,2020.2.5,Win32,60,,z,1,,,,,,,,0.75318,1,,,,,,276,NW,UN,16,petain,YARMON,z,0.75318,,,,,,-0.006944444,-0.418055556,0,0,0,,0,307,307,455,1
,,,,,,,,,,,,,,,,,,5e19b24b2bf9512392d6dd90,2020-11-25_16h38.49.439,lexical_decision_task_MP_exp2,2020.2.5,Win32,60,,m,1,,,,,,,,0.68001,1,,,,,,158,WORD,"ID",16,island,ISLAND,m,0.68001,,,,,,-0.006944444,-0.418055556,0,0,0,,0,308,308,97,1
,,,,,,,,,,,,,,,,,,5e19b24b2bf9512392d6dd90,2020-11-25_16h38.49.439,lexical_decision_task_MP_exp2,2020.2.5,Win32,60,,m,1,,,,,,,,0.81812,1,,,,,,185,WORD,UN,33,portal,BOTHER,m,0.81812,,,,,,-0.006944444,-0.418055556,0,0,0,,0,309,309,124,1
,,,,,,,,,,,,,,,,,,5e19b24b2bf9512392d6dd90,2020-11-25_16h38.49.439,lexical_decision_task_MP_exp2,2020.2.5,Win32,60,,m,1,,,,,,,,0.68797,1,,,,,,92,WORD,"ID",33,strand,STRAND,m,0.68797,,,,,,-0.006944444,-0.418055556,0,0,0,,0,310,310,31,1
,,,,,,,,,,,,,,,,,,5e19b24b2bf9512392d6dd90,2020-11-25_16h38.49.439,lexical_decision_task_MP_exp2,2020.2.5,Win32,60,,m,0,,,,,,,,0.91471,0,,,,,,303,NW,"ID",33,fiream,FIREAM,z,0.91471,,,,,,-0.006944444,-0.418055556,0,0,0,,0,311,311,242,1
,,,,,,,,,,,,,,,,,,5e19b24b2bf9512392d6dd90,2020-11-25_16h38.49.439,lexical_decision_task_MP_exp2,2020.2.5,Win32,60,,z,1,,,,,,,,0.63138,1,,,,,,324,NW,"ID",33,steikh,STEIKH,z,0.63138,,,,,,-0.006944444,-0.418055556,0,0,0,,0,312,312,263,1
,,,,,,,,,,,,,,,,,,5e19b24b2bf9512392d6dd90,2020-11-25_16h38.49.439,lexical_decision_task_MP_exp2,2020.2.5,Win32,60,,z,1,,,,,,,,1.21398,1,,,,,,371,NW,"ID",16,geiloy,GEILOY,z,1.21398,,,,,,-0.006944444,-0.418055556,0,0,0,,0,313,313,310,1
,,,,,,,,,,,,,,,,,,5e19b24b2bf9512392d6dd90,2020-11-25_16h38.49.439,lexical_decision_task_MP_exp2,2020.2.5,Win32,60,,z,1,,,,,,,,1.03415,1,,,,,,440,NW,UN,33,rastoe,SARIDE,z,1.03415,,,,,,-0.006944444,-0.418055556,0,0,0,,0,314,314,379,1
,,,,,,,,,,,,,,,,,,5e19b24b2bf9512392d6dd90,2020-11-25_16h38.49.439,lexical_decision_task_MP_exp2,2020.2.5,Win32,60,,m,1,,,,,,,,0.70535,1,,,,,,160,WORD,"ID",16,violet,VIOLET,m,0.70535,,,,,,-0.006944444,-0.418055556,0,0,0,,0,315,315,99,1
,,,,,,,,,,,,,,,,,,5e19b24b2bf9512392d6dd90,2020-11-25_16h38.49.439,lexical_decision_task_MP_exp2,2020.2.5,Win32,60,,m,1,,,,,,,,0.749575,1,,,,,,120,WORD,"ID",33,strain,STRAIN,m,0.749575,,,,,,-0.006944444,-0.418055556,0,0,0,,0,316,316,59,1
,,,,,,,,,,,,,,,,,,5e19b24b2bf9512392d6dd90,2020-11-25_16h38.49.439,lexical_decision_task_MP_exp2,2020.2.5,Win32,60,,z,1,,,,,,,,0.765155,1,,,,,,462,NW,UN,33,kispel,ABSULT,z,0.765155,,,,,,-0.006944444,-0.418055556,0,0,0,,0,317,317,401,1
,,,,,,,,,,,,,,,,,,5e19b24b2bf9512392d6dd90,2020-11-25_16h38.49.439,lexical_decision_task_MP_exp2,2020.2.5,Win32,60,,m,1,,,,,,,,0.74973,1,,,,,,123,WORD,"ID",16,strike,STRIKE,m,0.74973,,,,,,-0.006944444,-0.418055556,0,0,0,,0,318,318,62,1
,,,,,,,,,,,,,,,,,,5e19b24b2bf9512392d6dd90,2020-11-25_16h38.49.439,lexical_decision_task_MP_exp2,2020.2.5,Win32,60,,m,1,,,,,,,,0.70179,1,,,,,,103,WORD,"ID",33,bounce,BOUNCE,m,0.70179,,,,,,-0.006944444,-0.418055556,0,0,0,,0,319,319,42,1
,,,,,,,,,,,,,,,,,,5e19b24b2bf9512392d6dd90,2020-11-25_16h38.49.439,lexical_decision_task_MP_exp2,2020.2.5,Win32,60,,m,1,,,,,,,,1.269285,1,,,,,,217,WORD,UN,33,shrink,LIQUOR,m,1.269285,,,,,,-0.006944444,-0.418055556,0,0,0,,0,320,320,156,1
,,,,,,,,,,,,,,,,,,5e19b24b2bf9512392d6dd90,2020-11-25_16h38.49.439,lexical_decision_task_MP_exp2,2020.2.5,Win32,60,,m,1,,,,,,,,0.91735,1,,,,,,174,WORD,"ID",16,turkey,TURKEY,m,0.91735,,,,,,-0.006944444,-0.418055556,0,0,0,,0,321,321,113,1
,,,,,,,,,,,,,,,,,,5e19b24b2bf9512392d6dd90,2020-11-25_16h38.49.439,lexical_decision_task_MP_exp2,2020.2.5,Win32,60,,m,1,,,,,,,,0.73851,1,,,,,,157,WORD,"ID",16,dragon,DRAGON,m,0.73851,,,,,,-0.006944444,-0.418055556,0,0,0,,0,322,322,96,1
,,,,,,,,,,,,,,,,,,5e19b24b2bf9512392d6dd90,2020-11-25_16h38.49.439,lexical_decision_task_MP_exp2,2020.2.5,Win32,60,,z,1,,,,,,,,0.77205,1,,,,,,405,NW,"ID",16,flumni,FLUMNI,z,0.77205,,,,,,-0.006944444,-0.418055556,0,0,0,,0,323,323,344,1
,,,,,,,,,,,,,,,,,,5e19b24b2bf9512392d6dd90,2020-11-25_16h38.49.439,lexical_decision_task_MP_exp2,2020.2.5,Win32,60,,m,1,,,,,,,,0.914095,1,,,,,,240,WORD,UN,33,seldom,FOREST,m,0.914095,,,,,,-0.006944444,-0.418055556,0,0,0,,0,324,324,179,1
,,,,,,,,,,,,,,,,,,5e19b24b2bf9512392d6dd90,2020-11-25_16h38.49.439,lexical_decision_task_MP_exp2,2020.2.5,Win32,60,,z,1,,,,,,,,0.836335,1,,,,,,323,NW,"ID",33,rosail,ROSAIL,z,0.836335,,,,,,-0.006944444,-0.418055556,0,0,0,,0,325,325,262,1
,,,,,,,,,,,,,,,,,,5e19b24b2bf9512392d6dd90,2020-11-25_16h38.49.439,lexical_decision_task_MP_exp2,2020.2.5,Win32,60,,m,1,,,,,,,,0.913875,1,,,,,,58,WORD,UN,16,splint,FOSTER,m,0.913875,,,,,,-0.006944444,-0.418055556,0,0,0,,0,326,326,237,1
,,,,,,,,,,,,,,,,,,5e19b24b2bf9512392d6dd90,2020-11-25_16h38.49.439,lexical_decision_task_MP_exp2,2020.2.5,Win32,60,,m,1,,,,,,,,1.40636,1,,,,,,225,WORD,UN,33,casino,VULGAR,m,1.40636,,,,,,-0.006944444,-0.418055556,0,0,0,,0,327,327,164,1
,,,,,,,,,,,,,,,,,,5e19b24b2bf9512392d6dd90,2020-11-25_16h38.49.439,lexical_decision_task_MP_exp2,2020.2.5,Win32,60,,m,1,,,,,,,,0.74785,1,,,,,,215,WORD,UN,33,lumber,PHOBIA,m,0.74785,,,,,,-0.006944444,-0.418055556,0,0,0,,0,328,328,154,1
,,,,,,,,,,,,,,,,,,5e19b24b2bf9512392d6dd90,2020-11-25_16h38.49.439,lexical_decision_task_MP_exp2,2020.2.5,Win32,60,,z,1,,,,,,,,0.79779,1,,,,,,376,NW,"ID",16,iguare,IGUARE,z,0.79779,,,,,,-0.006944444,-0.418055556,0,0,0,,0,329,329,315,1
,,,,,,,,,,,,,,,,,,5e19b24b2bf9512392d6dd90,2020-11-25_16h38.49.439,lexical_decision_task_MP_exp2,2020.2.5,Win32,60,,m,1,,,,,,,,0.767765,1,,,,,,89,WORD,"ID",33,permit,PERMIT,m,0.767765,,,,,,-0.006944444,-0.418055556,0,0,0,,0,330,330,28,1
,,,,,,,,,,,,,,,,,,5e19b24b2bf9512392d6dd90,2020-11-25_16h38.49.439,lexical_decision_task_MP_exp2,2020.2.5,Win32,60,,z,1,,,,,,,,0.9493,1,,,,,,304,NW,"ID",33,cludie,CLUDIE,z,0.9493,,,,,,-0.006944444,-0.418055556,0,0,0,,0,331,331,243,1
,,,,,,,,,,,,,,,,,,5e19b24b2bf9512392d6dd90,2020-11-25_16h38.49.439,lexical_decision_task_MP_exp2,2020.2.5,Win32,60,,m,1,,,,,,,,1.05105,1,,,,,,226,WORD,UN,33,flower,CASINO,m,1.05105,,,,,,-0.006944444,-0.418055556,0,0,0,,0,332,332,165,1
,,,,,,,,,,,,,,,,,,5e19b24b2bf9512392d6dd90,2020-11-25_16h38.49.439,lexical_decision_task_MP_exp2,2020.2.5,Win32,60,,z,1,,,,,,,,0.83073,1,,,,,,382,NW,"ID",16,sarley,SARLEY,z,0.83073,,,,,,-0.006944444,-0.418055556,0,0,0,,0,333,333,321,1
,,,,,,,,,,,,,,,,,,5e19b24b2bf9512392d6dd90,2020-11-25_16h38.49.439,lexical_decision_task_MP_exp2,2020.2.5,Win32,60,,z,1,,,,,,,,0.66613,1,,,,,,302,NW,"ID",33,miluer,MILUER,z,0.66613,,,,,,-0.006944444,-0.418055556,0,0,0,,0,334,334,241,1
,,,,,,,,,,,,,,,,,,5e19b24b2bf9512392d6dd90,2020-11-25_16h38.49.439,lexical_decision_task_MP_exp2,2020.2.5,Win32,60,,z,1,,,,,,,,0.73942,1,,,,,,400,NW,"ID",16,wearox,WEAROX,z,0.73942,,,,,,-0.006944444,-0.418055556,0,0,0,,0,335,335,339,1
,,,,,,,,,,,,,,,,,,5e19b24b2bf9512392d6dd90,2020-11-25_16h38.49.439,lexical_decision_task_MP_exp2,2020.2.5,Win32,60,,z,1,,,,,,,,1.164375,1,,,,,,345,NW,"ID",33,absend,ABSEND,z,1.164375,,,,,,-0.006944444,-0.418055556,0,0,0,,0,336,336,284,1
,,,,,,,,,,,,,,,,,,5e19b24b2bf9512392d6dd90,2020-11-25_16h38.49.439,lexical_decision_task_MP_exp2,2020.2.5,Win32,60,,m,1,,,,,,,,1.047525,1,,,,,,222,WORD,UN,33,export,HINDER,m,1.047525,,,,,,-0.006944444,-0.418055556,0,0,0,,0,337,337,161,1
,,,,,,,,,,,,,,,,,,5e19b24b2bf9512392d6dd90,2020-11-25_16h38.49.439,lexical_decision_task_MP_exp2,2020.2.5,Win32,60,,z,1,,,,,,,,0.806605,1,,,,,,427,NW,UN,33,tandly,SCHIND,z,0.806605,,,,,,-0.006944444,-0.418055556,0,0,0,,0,338,338,366,1
,,,,,,,,,,,,,,,,,,5e19b24b2bf9512392d6dd90,2020-11-25_16h38.49.439,lexical_decision_task_MP_exp2,2020.2.5,Win32,60,,m,1,,,,,,,,0.627535,1,,,,,,134,WORD,"ID",16,staple,STAPLE,m,0.627535,,,,,,-0.006944444,-0.418055556,0,0,0,,0,339,339,73,1
,,,,,,,,,,,,,,,,,,5e19b24b2bf9512392d6dd90,2020-11-25_16h38.49.439,lexical_decision_task_MP_exp2,2020.2.5,Win32,60,,m,1,,,,,,,,0.740855,1,,,,,,37,WORD,UN,16,powder,INSULT,m,0.740855,,,,,,-0.006944444,-0.418055556,0,0,0,,0,340,340,216,1
,,,,,,,,,,,,,,,,,,5e19b24b2bf9512392d6dd90,2020-11-25_16h38.49.439,lexical_decision_task_MP_exp2,2020.2.5,Win32,60,,z,1,,,,,,,,0.797735,1,,,,,,350,NW,"ID",33,nagurs,NAGURS,z,0.797735,,,,,,-0.006944444,-0.418055556,0,0,0,,0,341,341,289,1
,,,,,,,,,,,,,,,,,,5e19b24b2bf9512392d6dd90,2020-11-25_16h38.49.439,lexical_decision_task_MP_exp2,2020.2.5,Win32,60,,m,1,,,,,,,,0.633165,1,,,,,,238,WORD,UN,33,behalf,FLOWER,m,0.633165,,,,,,-0.006944444,-0.418055556,0,0,0,,0,342,342,177,1
,,,,,,,,,,,,,,,,,,5e19b24b2bf9512392d6dd90,2020-11-25_16h38.49.439,lexical_decision_task_MP_exp2,2020.2.5,Win32,60,,m,1,,,,,,,,0.735525,1,,,,,,218,WORD,UN,33,bucket,SHRINK,m,0.735525,,,,,,-0.006944444,-0.418055556,0,0,0,,0,343,343,157,1
,,,,,,,,,,,,,,,,,,5e19b24b2bf9512392d6dd90,2020-11-25_16h38.49.439,lexical_decision_task_MP_exp2,2020.2.5,Win32,60,,z,1,,,,,,,,0.76421,1,,,,,,441,NW,UN,33,aboune,RASTOE,z,0.76421,,,,,,-0.006944444,-0.418055556,0,0,0,,0,344,344,380,1
,,,,,,,,,,,,,,,,,,5e19b24b2bf9512392d6dd90,2020-11-25_16h38.49.439,lexical_decision_task_MP_exp2,2020.2.5,Win32,60,,z,1,,,,,,,,0.73369,1,,,,,,387,NW,"ID",16,gronce,GRONCE,z,0.73369,,,,,,-0.006944444,-0.418055556,0,0,0,,0,345,345,326,1
,,,,,,,,,,,,,,,,,,5e19b24b2bf9512392d6dd90,2020-11-25_16h38.49.439,lexical_decision_task_MP_exp2,2020.2.5,Win32,60,,z,1,,,,,,,,0.70653,1,,,,,,398,NW,"ID",16,blunde,BLUNDE,z,0.70653,,,,,,-0.006944444,-0.418055556,0,0,0,,0,346,346,337,1
,,,,,,,,,,,,,,,,,,5e19b24b2bf9512392d6dd90,2020-11-25_16h38.49.439,lexical_decision_task_MP_exp2,2020.2.5,Win32,60,,m,1,,,,,,,,0.788265,1,,,,,,57,WORD,UN,16,danger,CHANGE,m,0.788265,,,,,,-0.006944444,-0.418055556,0,0,0,,0,347,347,236,1
,,,,,,,,,,,,,,,,,,5e19b24b2bf9512392d6dd90,2020-11-25_16h38.49.439,lexical_decision_task_MP_exp2,2020.2.5,Win32,60,,m,1,,,,,,,,0.765365,1,,,,,,7,WORD,UN,16,abrupt,ANCHOR,m,0.765365,,,,,,-0.006944444,-0.418055556,0,0,0,,0,348,348,186,1
,,,,,,,,,,,,,,,,,,5e19b24b2bf9512392d6dd90,2020-11-25_16h38.49.439,lexical_decision_task_MP_exp2,2020.2.5,Win32,60,,m,1,,,,,,,,0.80146,1,,,,,,1,WORD,UN,16,ethnic,FRIGHT,m,0.80146,,,,,,-0.006944444,-0.418055556,0,0,0,,0,349,349,180,1
,,,,,,,,,,,,,,,,,,5e19b24b2bf9512392d6dd90,2020-11-25_16h38.49.439,lexical_decision_task_MP_exp2,2020.2.5,Win32,60,,m,1,,,,,,,,0.969215,1,,,,,,211,WORD,UN,33,verify,INFECT,m,0.969215,,,,,,-0.006944444,-0.418055556,0,0,0,,0,350,350,150,1
,,,,,,,,,,,,,,,,,,5e19b24b2bf9512392d6dd90,2020-11-25_16h38.49.439,lexical_decision_task_MP_exp2,2020.2.5,Win32,60,,z,1,,,,,,,,1.102895,1,,,,,,247,NW,UN,16,strole,BLARGE,z,1.102895,,,,,,-0.006944444,-0.418055556,0,0,0,,0,351,351,426,1
,,,,,,,,,,,,,,,,,,5e19b24b2bf9512392d6dd90,2020-11-25_16h38.49.439,lexical_decision_task_MP_exp2,2020.2.5,Win32,60,,z,1,,,,,,,,0.692725,1,,,,,,386,NW,"ID",16,ancust,ANCUST,z,0.692725,,,,,,-0.006944444,-0.418055556,0,0,0,,0,352,352,325,1
,,,,,,,,,,,,,,,,,,5e19b24b2bf9512392d6dd90,2020-11-25_16h38.49.439,lexical_decision_task_MP_exp2,2020.2.5,Win32,60,,m,1,,,,,,,,0.797985,1,,,,,,220,WORD,UN,33,mascot,VOYAGE,m,0.797985,,,,,,-0.006944444,-0.418055556,0,0,0,,0,353,353,159,1
,,,,,,,,,,,,,,,,,,5e19b24b2bf9512392d6dd90,2020-11-25_16h38.49.439,lexical_decision_task_MP_exp2,2020.2.5,Win32,60,,m,1,,,,,,,,0.665085,1,,,,,,229,WORD,UN,33,fringe,MOTHER,m,0.665085,,,,,,-0.006944444,-0.418055556,0,0,0,,0,354,354,168,1
,,,,,,,,,,,,,,,,,,5e19b24b2bf9512392d6dd90,2020-11-25_16h38.49.439,lexical_decision_task_MP_exp2,2020.2.5,Win32,60,,z,1,,,,,,,,0.757785,1,,,,,,444,NW,UN,33,minkel,JAUNCE,z,0.757785,,,,,,-0.006944444,-0.418055556,0,0,0,,0,355,355,383,1
,,,,,,,,,,,,,,,,,,5e19b24b2bf9512392d6dd90,2020-11-25_16h38.49.439,lexical_decision_task_MP_exp2,2020.2.5,Win32,60,,m,1,,,,,,,,0.847445,1,,,,,,164,WORD,"ID",16,market,MARKET,m,0.847445,,,,,,-0.006944444,-0.418055556,0,0,0,,0,356,356,103,1
,,,,,,,,,,,,,,,,,,5e19b24b2bf9512392d6dd90,2020-11-25_16h38.49.439,lexical_decision_task_MP_exp2,2020.2.5,Win32,60,,z,1,,,,,,,,0.814495,1,,,,,,451,NW,UN,33,surden,CAINKY,z,0.814495,,,,,,-0.006944444,-0.418055556,0,0,0,,0,357,357,390,1
,,,,,,,,,,,,,,,,,,5e19b24b2bf9512392d6dd90,2020-11-25_16h38.49.439,lexical_decision_task_MP_exp2,2020.2.5,Win32,60,,z,1,,,,,,,,0.88588,1,,,,,,384,NW,"ID",16,guesco,GUESCO,z,0.88588,,,,,,-0.006944444,-0.418055556,0,0,0,,0,358,358,323,1
,,,,,,,,,,,,,,,,,,5e19b24b2bf9512392d6dd90,2020-11-25_16h38.49.439,lexical_decision_task_MP_exp2,2020.2.5,Win32,60,,z,1,,,,,,,,0.697385,1,,,,,,395,NW,"ID",16,colury,COLURY,z,0.697385,,,,,,-0.006944444,-0.418055556,0,0,0,,0,359,359,334,1
,,,,,,,,,,,,,,,,,,5e19b24b2bf9512392d6dd90,2020-11-25_16h38.49.439,lexical_decision_task_MP_exp2,2020.2.5,Win32,60,,z,1,,,,,,,,0.61428,1,,,,,,369,NW,"ID",16,wronch,WRONCH,z,0.61428,,,,,,-0.006944444,-0.418055556,0,0,0,,0,360,360,308,1
,,,,,,,,,,,,,,,,,,5e19b24b2bf9512392d6dd90,2020-11-25_16h38.49.439,lexical_decision_task_MP_exp2,2020.2.5,Win32,60,,m,1,,,,,,,,0.90327,1,,,,,,117,WORD,"ID",33,branch,BRANCH,m,0.90327,,,,,,-0.006944444,-0.418055556,0,0,0,,0,361,361,56,1
,,,,,,,,,,,,,,,,,,5e19b24b2bf9512392d6dd90,2020-11-25_16h38.49.439,lexical_decision_task_MP_exp2,2020.2.5,Win32,60,,z,1,,,,,,,,0.724085,1,,,,,,359,NW,"ID",33,fonver,FONVER,z,0.724085,,,,,,-0.006944444,-0.418055556,0,0,0,,0,362,362,298,1
,,,,,,,,,,,,,,,,,,5e19b24b2bf9512392d6dd90,2020-11-25_16h38.49.439,lexical_decision_task_MP_exp2,2020.2.5,Win32,60,,z,1,,,,,,,,0.91403,1,,,,,,329,NW,"ID",33,yarike,YARIKE,z,0.91403,,,,,,-0.006944444,-0.418055556,0,0,0,,0,363,363,268,1
,,,,,,,,,,,,,,,,,,5e19b24b2bf9512392d6dd90,2020-11-25_16h38.49.439,lexical_decision_task_MP_exp2,2020.2.5,Win32,60,,m,1,,,,,,,,0.682235,1,,,,,,149,WORD,"ID",16,invade,INVADE,m,0.682235,,,,,,-0.006944444,-0.418055556,0,0,0,,0,364,364,88,1
,,,,,,,,,,,,,,,,,,5e19b24b2bf9512392d6dd90,2020-11-25_16h38.49.439,lexical_decision_task_MP_exp2,2020.2.5,Win32,60,,z,1,,,,,,,,0.93481,1,,,,,,352,NW,"ID",33,tringe,TRINGE,z,0.93481,,,,,,-0.006944444,-0.418055556,0,0,0,,0,365,365,291,1
,,,,,,,,,,,,,,,,,,5e19b24b2bf9512392d6dd90,2020-11-25_16h38.49.439,lexical_decision_task_MP_exp2,2020.2.5,Win32,60,,m,1,,,,,,,,0.718225,1,,,,,,54,WORD,UN,16,stroke,RAMBLE,m,0.718225,,,,,,-0.006944444,-0.418055556,0,0,0,,0,366,366,233,1
,,,,,,,,,,,,,,,,,,5e19b24b2bf9512392d6dd90,2020-11-25_16h38.49.439,lexical_decision_task_MP_exp2,2020.2.5,Win32,60,,m,0,,,,,,,,1.006735,0,,,,,,476,NW,UN,33,photie,JOSTED,z,1.006735,,,,,,-0.006944444,-0.418055556,0,0,0,,0,367,367,415,1
,,,,,,,,,,,,,,,,,,5e19b24b2bf9512392d6dd90,2020-11-25_16h38.49.439,lexical_decision_task_MP_exp2,2020.2.5,Win32,60,,z,1,,,,,,,,0.81622,1,,,,,,455,NW,UN,33,broget,TONDLE,z,0.81622,,,,,,-0.006944444,-0.418055556,0,0,0,,0,368,368,394,1
,,,,,,,,,,,,,,,,,,5e19b24b2bf9512392d6dd90,2020-11-25_16h38.49.439,lexical_decision_task_MP_exp2,2020.2.5,Win32,60,,z,1,,,,,,,,0.714985,1,,,,,,351,NW,"ID",33,tiesch,TIESCH,z,0.714985,,,,,,-0.006944444,-0.418055556,0,0,0,,0,369,369,290,1
,,,,,,,,,,,,,,,,,,5e19b24b2bf9512392d6dd90,2020-11-25_16h38.49.439,lexical_decision_task_MP_exp2,2020.2.5,Win32,60,,m,1,,,,,,,,0.765585,1,,,,,,148,WORD,"ID",16,custom,CUSTOM,m,0.765585,,,,,,-0.006944444,-0.418055556,0,0,0,,0,370,370,87,1
,,,,,,,,,,,,,,,,,,5e19b24b2bf9512392d6dd90,2020-11-25_16h38.49.439,lexical_decision_task_MP_exp2,2020.2.5,Win32,60,,z,1,,,,,,,,1.069175,1,,,,,,320,NW,"ID",33,jockal,JOCKAL,z,1.069175,,,,,,-0.006944444,-0.418055556,0,0,0,,0,371,371,259,1
,,,,,,,,,,,,,,,,,,5e19b24b2bf9512392d6dd90,2020-11-25_16h38.49.439,lexical_decision_task_MP_exp2,2020.2.5,Win32,60,,z,1,,,,,,,,1.14796,1,,,,,,453,NW,UN,33,scouge,BOLVIS,z,1.14796,,,,,,-0.006944444,-0.418055556,0,0,0,,0,372,372,392,1
,,,,,,,,,,,,,,,,,,5e19b24b2bf9512392d6dd90,2020-11-25_16h38.49.439,lexical_decision_task_MP_exp2,2020.2.5,Win32,60,,z,1,,,,,,,,0.88966,1,,,,,,297,NW,UN,16,piergy,FERTIC,z,0.88966,,,,,,-0.006944444,-0.418055556,0,0,0,,0,373,373,476,1
,,,,,,,,,,,,,,,,,,5e19b24b2bf9512392d6dd90,2020-11-25_16h38.49.439,lexical_decision_task_MP_exp2,2020.2.5,Win32,60,,m,1,,,,,,,,0.789105,1,,,,,,108,WORD,"ID",33,reckon,RECKON,m,0.789105,,,,,,-0.006944444,-0.418055556,0,0,0,,0,374,374,47,1
,,,,,,,,,,,,,,,,,,5e19b24b2bf9512392d6dd90,2020-11-25_16h38.49.439,lexical_decision_task_MP_exp2,2020.2.5,Win32,60,,m,1,,,,,,,,0.775175,1,,,,,,231,WORD,UN,33,inject,EXPORT,m,0.775175,,,,,,-0.006944444,-0.418055556,0,0,0,,0,375,375,170,1
,,,,,,,,,,,,,,,,,,5e19b24b2bf9512392d6dd90,2020-11-25_16h38.49.439,lexical_decision_task_MP_exp2,2020.2.5,Win32,60,,z,1,,,,,,,,1.05481,1,,,,,,255,NW,UN,16,inlors,APIGHT,z,1.05481,,,,,,-0.006944444,-0.418055556,0,0,0,,0,376,376,434,1
,,,,,,,,,,,,,,,,,,5e19b24b2bf9512392d6dd90,2020-11-25_16h38.49.439,lexical_decision_task_MP_exp2,2020.2.5,Win32,60,,z,1,,,,,,,,0.7585,1,,,,,,283,NW,UN,16,shaple,VERALF,z,0.7585,,,,,,-0.006944444,-0.418055556,0,0,0,,0,377,377,462,1
,,,,,,,,,,,,,,,,,,5e19b24b2bf9512392d6dd90,2020-11-25_16h38.49.439,lexical_decision_task_MP_exp2,2020.2.5,Win32,60,,m,1,,,,,,,,0.74766,1,,,,,,224,WORD,UN,33,vulgar,PERIOD,m,0.74766,,,,,,-0.006944444,-0.418055556,0,0,0,,0,378,378,163,1
,,,,,,,,,,,,,,,,,,5e19b24b2bf9512392d6dd90,2020-11-25_16h38.49.439,lexical_decision_task_MP_exp2,2020.2.5,Win32,60,,m,1,,,,,,,,0.72346,1,,,,,,135,WORD,"ID",16,import,IMPORT,m,0.72346,,,,,,-0.006944444,-0.418055556,0,0,0,,0,379,379,74,1
,,,,,,,,,,,,,,,,,,5e19b24b2bf9512392d6dd90,2020-11-25_16h38.49.439,lexical_decision_task_MP_exp2,2020.2.5,Win32,60,,m,1,,,,,,,,0.73988,1,,,,,,15,WORD,UN,16,faucet,AMOUNT,m,0.73988,,,,,,-0.006944444,-0.418055556,0,0,0,,0,380,380,194,1
,,,,,,,,,,,,,,,,,,5e19b24b2bf9512392d6dd90,2020-11-25_16h38.49.439,lexical_decision_task_MP_exp2,2020.2.5,Win32,60,,m,1,,,,,,,,0.731,1,,,,,,78,WORD,"ID",33,column,COLUMN,m,0.731,,,,,,-0.006944444,-0.418055556,0,0,0,,0,381,381,17,1
,,,,,,,,,,,,,,,,,,5e19b24b2bf9512392d6dd90,2020-11-25_16h38.49.439,lexical_decision_task_MP_exp2,2020.2.5,Win32,60,,m,1,,,,,,,,0.78889,1,,,,,,203,WORD,UN,33,burden,PHRASE,m,0.78889,,,,,,-0.006944444,-0.418055556,0,0,0,,0,382,382,142,1
,,,,,,,,,,,,,,,,,,5e19b24b2bf9512392d6dd90,2020-11-25_16h38.49.439,lexical_decision_task_MP_exp2,2020.2.5,Win32,60,,z,1,,,,,,,,0.782585,1,,,,,,318,NW,"ID",33,reagly,REAGLY,z,0.782585,,,,,,-0.006944444,-0.418055556,0,0,0,,0,383,383,257,1
,,,,,,,,,,,,,,,,,,5e19b24b2bf9512392d6dd90,2020-11-25_16h38.49.439,lexical_decision_task_MP_exp2,2020.2.5,Win32,60,,z,1,,,,,,,,0.84751,1,,,,,,426,NW,UN,33,schind,URIVEL,z,0.84751,,,,,,-0.006944444,-0.418055556,0,0,0,,0,384,384,365,1
,,,,,,,,,,,,,,,,,,5e19b24b2bf9512392d6dd90,2020-11-25_16h38.49.439,lexical_decision_task_MP_exp2,2020.2.5,Win32,60,,m,1,,,,,,,,0.732505,1,,,,,,81,WORD,"ID",33,friend,FRIEND,m,0.732505,,,,,,-0.006944444,-0.418055556,0,0,0,,0,385,385,20,1
,,,,,,,,,,,,,,,,,,5e19b24b2bf9512392d6dd90,2020-11-25_16h38.49.439,lexical_decision_task_MP_exp2,2020.2.5,Win32,60,,z,1,,,,,,,,0.814315,1,,,,,,443,NW,UN,33,jaunce,DORSEX,z,0.814315,,,,,,-0.006944444,-0.418055556,0,0,0,,0,386,386,382,1
,,,,,,,,,,,,,,,,,,5e19b24b2bf9512392d6dd90,2020-11-25_16h38.49.439,lexical_decision_task_MP_exp2,2020.2.5,Win32,60,,z,1,,,,,,,,0.931715,1,,,,,,456,NW,UN,33,wanigh,BROGET,z,0.931715,,,,,,-0.006944444,-0.418055556,0,0,0,,0,387,387,395,1
,,,,,,,,,,,,,,,,,,5e19b24b2bf9512392d6dd90,2020-11-25_16h38.49.439,lexical_decision_task_MP_exp2,2020.2.5,Win32,60,,z,1,,,,,,,,0.91812,1,,,,,,471,NW,UN,33,cigney,NOBEST,z,0.91812,,,,,,-0.006944444,-0.418055556,0,0,0,,0,388,388,410,1
,,,,,,,,,,,,,,,,,,5e19b24b2bf9512392d6dd90,2020-11-25_16h38.49.439,lexical_decision_task_MP_exp2,2020.2.5,Win32,60,,z,1,,,,,,,,0.914705,1,,,,,,249,NW,UN,16,milted,BATROL,z,0.914705,,,,,,-0.006944444,-0.418055556,0,0,0,,0,389,389,428,1
,,,,,,,,,,,,,,,,,,5e19b24b2bf9512392d6dd90,2020-11-25_16h38.49.439,lexical_decision_task_MP_exp2,2020.2.5,Win32,60,,z,1,,,,,,,,0.797975,1,,,,,,361,NW,"ID",16,pauche,PAUCHE,z,0.797975,,,,,,-0.006944444,-0.418055556,0,0,0,,0,390,390,300,1
,,,,,,,,,,,,,,,,,,5e19b24b2bf9512392d6dd90,2020-11-25_16h38.49.439,lexical_decision_task_MP_exp2,2020.2.5,Win32,60,,m,1,,,,,,,,0.837965,1,,,,,,82,WORD,"ID",33,stigma,STIGMA,m,0.837965,,,,,,-0.006944444,-0.418055556,0,0,0,,0,391,391,21,1
,,,,,,,,,,,,,,,,,,5e19b24b2bf9512392d6dd90,2020-11-25_16h38.49.439,lexical_decision_task_MP_exp2,2020.2.5,Win32,60,,m,1,,,,,,,,0.868025,1,,,,,,186,WORD,UN,33,course,PORTAL,m,0.868025,,,,,,-0.006944444,-0.418055556,0,0,0,,0,392,392,125,1
,,,,,,,,,,,,,,,,,,5e19b24b2bf9512392d6dd90,2020-11-25_16h38.49.439,lexical_decision_task_MP_exp2,2020.2.5,Win32,60,,z,1,,,,,,,,1.689745,1,,,,,,300,NW,UN,16,smenco,YARION,z,1.689745,,,,,,-0.006944444,-0.418055556,0,0,0,,0,393,393,479,1
