counterbalancing_condition,instr_done_keyboard.keys,instr_done_keyboard.rt,instr_done_touch.x,instr_done_touch.y,instr_done_touch.leftButton,instr_done_touch.midButton,instr_done_touch.rightButton,instruction_pages.thisRepN,instruction_pages.thisTrialN,instruction_pages.thisN,instruction_pages.thisIndex,instruction_pages.ran,pageN,phase,instruct_text,has_image,instruct_image,participant,date,expName,psychopyVersion,OS,frameRate,response.keys,response.corr,response.rt,touch_resp.x,touch_resp.y,touch_resp.leftButton,touch_resp.midButton,touch_resp.rightButton,touch_resp.time,touch_resp.clicked_name,rt,corr,practice_trials.thisRepN,practice_trials.thisTrialN,practice_trials.thisN,practice_trials.thisIndex,practice_trials.ran,TrialID,StimulusType,Condition,PrimeDuration,Prime,Target,corrAns,end_of_practice_trials_pages.thisRepN,end_of_practice_trials_pages.thisTrialN,end_of_practice_trials_pages.thisN,end_of_practice_trials_pages.thisIndex,end_of_practice_trials_pages.ran,break_done_touch.x,break_done_touch.y,break_done_touch.leftButton,break_done_touch.midButton,break_done_touch.rightButton,break_done_keyboard.keys,experiment_trials.thisRepN,experiment_trials.thisTrialN,experiment_trials.thisN,experiment_trials.thisIndex,experiment_trials.ran,break_done_touch.clicked_name,break_done_keyboard.rt
0,space,9.13,0.04248366,-0.001633987,0,0,0,0,0,0,0,1,1,instructions,"INSTRUCTIONS
At the start of each trial, look at the hash marks (######) in the center of the screen. After a moment, a string of letters will appear. Your task is to indicate if the letter string forms a word or not (i.e., if it is a nonword). For example, AUTHOR is a word while AUTHON is a nonword.

Press the space bar or touch the button below to continue.",0,,5e1ee2050c0b3120e01eeec1,2020-11-26_15h56.49.970,lexical_decision_task_MP_exp2,2020.2.5,Win32,60,,,,,,,,,,,,,,,,,,,,,,,,,,,,,,,,,,,,,,,,,,
,space,7.001,0.071895425,0.052287582,0,0,0,0,1,1,1,1,2,instructions,"If your device has a keyboard, press the 'Z' key for nonwords and the 'M' key for words.





Press the space bar or touch the button below to continue.",1,keyboard-example.gif,5e1ee2050c0b3120e01eeec1,2020-11-26_15h56.49.970,lexical_decision_task_MP_exp2,2020.2.5,Win32,60,,,,,,,,,,,,,,,,,,,,,,,,,,,,,,,,,,,,,,,,,,
,space,3.815,0.071895425,0.052287582,0,0,0,0,2,2,2,1,3,instructions,"If you are using a touchscreen only device, use the buttons on the screen. Do not use the mouse.





Press the space bar or touch the button below to continue.",1,touchscreen-example.gif,5e1ee2050c0b3120e01eeec1,2020-11-26_15h56.49.970,lexical_decision_task_MP_exp2,2020.2.5,Win32,60,,,,,,,,,,,,,,,,,,,,,,,,,,,,,,,,,,,,,,,,,,
,space,1.698,0.071895425,0.052287582,0,0,0,0,3,3,3,1,4,instructions,"It is very important that you respond as quickly and accurately as possible, as each letter string will only be on the screen for two seconds. If you do not respond within this time, the message 'Too slow!' will be displayed and the experiment will progress to the next letter string. The first 20 trials will be practice trials and you will receive feedback on your answers. 

Press the space bar or touch the button below to start the practice trials.",0,,5e1ee2050c0b3120e01eeec1,2020-11-26_15h56.49.970,lexical_decision_task_MP_exp2,2020.2.5,Win32,60,,,,,,,,,,,,,,,,,,,,,,,,,,,,,,,,,,,,,,,,,,
,,,,,,,,,,,,,,,,,,5e1ee2050c0b3120e01eeec1,2020-11-26_15h56.49.970,lexical_decision_task_MP_exp2,2020.2.5,Win32,60,z,1,1.635,,,,,,,,1.635,1,0,0,0,13,1,1014,NW,UN,33,winfer,ROUPET,z,,,,,,,,,,,,,,,,,,
,,,,,,,,,,,,,,,,,,5e1ee2050c0b3120e01eeec1,2020-11-26_15h56.49.970,lexical_decision_task_MP_exp2,2020.2.5,Win32,60,m,1,0.97,,,,,,,,0.97,1,0,1,1,7,1,1008,WORD,UN,16,hurdle,VOLUME,m,,,,,,,,,,,,,,,,,,
,,,,,,,,,,,,,,,,,,5e1ee2050c0b3120e01eeec1,2020-11-26_15h56.49.970,lexical_decision_task_MP_exp2,2020.2.5,Win32,60,z,1,0.654,,,,,,,,0.654,1,0,2,2,11,1,1012,NW,"ID",16,rashet,RASHET,z,,,,,,,,,,,,,,,,,,
,,,,,,,,,,,,,,,,,,5e1ee2050c0b3120e01eeec1,2020-11-26_15h56.49.970,lexical_decision_task_MP_exp2,2020.2.5,Win32,60,m,1,0.722,,,,,,,,0.722,1,0,3,3,0,1,1001,WORD,"ID",33,utopia,UTOPIA,m,,,,,,,,,,,,,,,,,,
,,,,,,,,,,,,,,,,,,5e1ee2050c0b3120e01eeec1,2020-11-26_15h56.49.970,lexical_decision_task_MP_exp2,2020.2.5,Win32,60,m,1,0.6,,,,,,,,0.6,1,0,4,4,4,1,1005,WORD,UN,33,abound,SQUEAK,m,,,,,,,,,,,,,,,,,,
,,,,,,,,,,,,,,,,,,5e1ee2050c0b3120e01eeec1,2020-11-26_15h56.49.970,lexical_decision_task_MP_exp2,2020.2.5,Win32,60,z,1,0.644,,,,,,,,0.644,1,0,5,5,10,1,1011,NW,"ID",16,inlade,INLADE,z,,,,,,,,,,,,,,,,,,
,,,,,,,,,,,,,,,,,,5e1ee2050c0b3120e01eeec1,2020-11-26_15h56.49.970,lexical_decision_task_MP_exp2,2020.2.5,Win32,60,m,1,0.516,,,,,,,,0.516,1,0,6,6,5,1,1006,WORD,UN,33,frenzy,OBTAIN,m,,,,,,,,,,,,,,,,,,
,,,,,,,,,,,,,,,,,,5e1ee2050c0b3120e01eeec1,2020-11-26_15h56.49.970,lexical_decision_task_MP_exp2,2020.2.5,Win32,60,z,1,0.634,,,,,,,,0.634,1,0,7,7,9,1,1010,NW,"ID",33,fariny,FARINY,z,,,,,,,,,,,,,,,,,,
,,,,,,,,,,,,,,,,,,5e1ee2050c0b3120e01eeec1,2020-11-26_15h56.49.970,lexical_decision_task_MP_exp2,2020.2.5,Win32,60,m,1,0.787,,,,,,,,0.787,1,0,8,8,3,1,1004,WORD,"ID",16,matrix,MATRIX,m,,,,,,,,,,,,,,,,,,
,,,,,,,,,,,,,,,,,,5e1ee2050c0b3120e01eeec1,2020-11-26_15h56.49.970,lexical_decision_task_MP_exp2,2020.2.5,Win32,60,z,1,0.644,,,,,,,,0.644,1,0,9,9,15,1,1016,NW,UN,16,mushed,WHAISE,z,,,,,,,,,,,,,,,,,,
,,,,,,,,,,,,,,,,,,5e1ee2050c0b3120e01eeec1,2020-11-26_15h56.49.970,lexical_decision_task_MP_exp2,2020.2.5,Win32,60,m,1,0.573,,,,,,,,0.573,1,0,10,10,2,1,1003,WORD,"ID",16,almond,ALMOND,m,,,,,,,,,,,,,,,,,,
,,,,,,,,,,,,,,,,,,5e1ee2050c0b3120e01eeec1,2020-11-26_15h56.49.970,lexical_decision_task_MP_exp2,2020.2.5,Win32,60,z,1,0.705,,,,,,,,0.705,1,0,11,11,8,1,1009,NW,"ID",33,aslert,ASLERT,z,,,,,,,,,,,,,,,,,,
,,,,,,,,,,,,,,,,,,5e1ee2050c0b3120e01eeec1,2020-11-26_15h56.49.970,lexical_decision_task_MP_exp2,2020.2.5,Win32,60,m,1,0.602,,,,,,,,0.602,1,0,12,12,6,1,1007,WORD,UN,16,tropic,ZOMBIE,m,,,,,,,,,,,,,,,,,,
,,,,,,,,,,,,,,,,,,5e1ee2050c0b3120e01eeec1,2020-11-26_15h56.49.970,lexical_decision_task_MP_exp2,2020.2.5,Win32,60,z,1,0.635,,,,,,,,0.635,1,0,13,13,14,1,1015,NW,UN,16,miaber,THRALE,z,,,,,,,,,,,,,,,,,,
,,,,,,,,,,,,,,,,,,5e1ee2050c0b3120e01eeec1,2020-11-26_15h56.49.970,lexical_decision_task_MP_exp2,2020.2.5,Win32,60,m,1,0.552,,,,,,,,0.552,1,0,14,14,1,1,1002,WORD,"ID",33,adjust,ADJUST,m,,,,,,,,,,,,,,,,,,
,,,,,,,,,,,,,,,,,,5e1ee2050c0b3120e01eeec1,2020-11-26_15h56.49.970,lexical_decision_task_MP_exp2,2020.2.5,Win32,60,z,1,0.605,,,,,,,,0.605,1,0,15,15,12,1,1013,NW,UN,33,adveil,SPRINY,z,,,,,,,,,,,,,,,,,,
,space,4.808,0.640522876,0.083333333,0,0,0,,,,,,1,end_of_practice,"You have completed the practice trials. During the experimental trials, you will not receive feedback, but it is very important that you respond as quickly and accurately as possible. 
Before you begin, please ensure that you are in a comfortable and quiet location and will not be disturbed for about 15 minutes, as we cannot use your data if you do not complete all the trials. 
There will be opportunities to take breaks at regular intervals during the experiment. When you are ready to start the experimental trials, please press space or touch the button below.",,,5e1ee2050c0b3120e01eeec1,2020-11-26_15h56.49.970,lexical_decision_task_MP_exp2,2020.2.5,Win32,60,,,,,,,,,,,,,,,,,,,,,,,,,0,0,0,0,1,,,,,,,,,,,,,
,,,,,,,,,,,,,,,,,,5e1ee2050c0b3120e01eeec1,2020-11-26_15h56.49.970,lexical_decision_task_MP_exp2,2020.2.5,Win32,60,m,1,1.099,,,,,,,,1.099,1,,,,,,191,WORD,"ID",33,stable,STABLE,m,,,,,,0.640522876,0.083333333,0,0,0,,0,0,0,10,1,,
,,,,,,,,,,,,,,,,,,5e1ee2050c0b3120e01eeec1,2020-11-26_15h56.49.970,lexical_decision_task_MP_exp2,2020.2.5,Win32,60,m,1,0.635,,,,,,,,0.635,1,,,,,,6,WORD,"ID",16,bundle,BUNDLE,m,,,,,,0.637254902,0.08496732,0,0,0,,0,1,1,65,1,,
,,,,,,,,,,,,,,,,,,5e1ee2050c0b3120e01eeec1,2020-11-26_15h56.49.970,lexical_decision_task_MP_exp2,2020.2.5,Win32,60,z,1,0.558,,,,,,,,0.558,1,,,,,,362,NW,UN,16,breali,TIREAU,z,,,,,,0.642156863,0.070261438,0,0,0,,0,2,2,421,1,,
,,,,,,,,,,,,,,,,,,5e1ee2050c0b3120e01eeec1,2020-11-26_15h56.49.970,lexical_decision_task_MP_exp2,2020.2.5,Win32,60,m,1,0.639,,,,,,,,0.639,1,,,,,,159,WORD,UN,16,violet,DETAIL,m,,,,,,0.635620915,0.099673203,0,0,0,,0,3,3,218,1,,
,,,,,,,,,,,,,,,,,,5e1ee2050c0b3120e01eeec1,2020-11-26_15h56.49.970,lexical_decision_task_MP_exp2,2020.2.5,Win32,60,m,1,0.554,,,,,,,,0.554,1,,,,,,147,WORD,UN,16,custom,GARLIC,m,,,,,,0.640522876,0.104575163,0,0,0,,0,4,4,206,1,,
,,,,,,,,,,,,,,,,,,5e1ee2050c0b3120e01eeec1,2020-11-26_15h56.49.970,lexical_decision_task_MP_exp2,2020.2.5,Win32,60,z,1,0.573,,,,,,,,0.573,1,,,,,,262,NW,"ID",16,quilew,QUILEW,z,,,,,,0.645424837,0.096405229,0,0,0,,0,5,5,321,1,,
,,,,,,,,,,,,,,,,,,5e1ee2050c0b3120e01eeec1,2020-11-26_15h56.49.970,lexical_decision_task_MP_exp2,2020.2.5,Win32,60,z,1,0.711,,,,,,,,0.711,1,,,,,,252,NW,"ID",16,stapod,STAPOD,z,,,,,,0.64379085,0.102941176,0,0,0,,0,6,6,311,1,,
,,,,,,,,,,,,,,,,,,5e1ee2050c0b3120e01eeec1,2020-11-26_15h56.49.970,lexical_decision_task_MP_exp2,2020.2.5,Win32,60,z,1,0.605,,,,,,,,0.605,1,,,,,,429,NW,"ID",33,funtle,FUNTLE,z,,,,,,0.645424837,0.104575163,0,0,0,,0,7,7,248,1,,
,,,,,,,,,,,,,,,,,,5e1ee2050c0b3120e01eeec1,2020-11-26_15h56.49.970,lexical_decision_task_MP_exp2,2020.2.5,Win32,60,z,1,0.648,,,,,,,,0.648,1,,,,,,316,NW,UN,33,worbal,SCREGM,z,,,,,,0.645424837,0.107843137,0,0,0,,0,8,8,375,1,,
,,,,,,,,,,,,,,,,,,5e1ee2050c0b3120e01eeec1,2020-11-26_15h56.49.970,lexical_decision_task_MP_exp2,2020.2.5,Win32,60,z,1,0.627,,,,,,,,0.627,1,,,,,,328,NW,UN,33,yarike,BROAKE,z,,,,,,0.645424837,0.114379085,0,0,0,,0,9,9,387,1,,
,,,,,,,,,,,,,,,,,,5e1ee2050c0b3120e01eeec1,2020-11-26_15h56.49.970,lexical_decision_task_MP_exp2,2020.2.5,Win32,60,m,1,0.655,,,,,,,,0.655,1,,,,,,11,WORD,"ID",16,cruise,CRUISE,m,,,,,,0.645424837,0.12254902,0,0,0,,0,10,10,70,1,,
,,,,,,,,,,,,,,,,,,5e1ee2050c0b3120e01eeec1,2020-11-26_15h56.49.970,lexical_decision_task_MP_exp2,2020.2.5,Win32,60,m,1,0.582,,,,,,,,0.582,1,,,,,,151,WORD,UN,16,rocket,MYSTIC,m,,,,,,0.650326797,0.12254902,0,0,0,,0,11,11,210,1,,
,,,,,,,,,,,,,,,,,,5e1ee2050c0b3120e01eeec1,2020-11-26_15h56.49.970,lexical_decision_task_MP_exp2,2020.2.5,Win32,60,z,1,0.701,,,,,,,,0.701,1,,,,,,317,NW,UN,33,reagly,WORBAL,z,,,,,,0.650326797,0.124183007,0,0,0,,0,12,12,376,1,,
,,,,,,,,,,,,,,,,,,5e1ee2050c0b3120e01eeec1,2020-11-26_15h56.49.970,lexical_decision_task_MP_exp2,2020.2.5,Win32,60,m,1,0.619,,,,,,,,0.619,1,,,,,,201,WORD,"ID",33,admire,ADMIRE,m,,,,,,0.645424837,0.137254902,0,0,0,,0,13,13,20,1,,
,,,,,,,,,,,,,,,,,,5e1ee2050c0b3120e01eeec1,2020-11-26_15h56.49.970,lexical_decision_task_MP_exp2,2020.2.5,Win32,60,z,1,0.651,,,,,,,,0.651,1,,,,,,291,NW,"ID",16,pretch,PRETCH,z,,,,,,0.647058824,0.130718954,0,0,0,,0,14,14,350,1,,
,,,,,,,,,,,,,,,,,,5e1ee2050c0b3120e01eeec1,2020-11-26_15h56.49.970,lexical_decision_task_MP_exp2,2020.2.5,Win32,60,z,1,0.58,,,,,,,,0.58,1,,,,,,281,NW,"ID",16,melaty,MELATY,z,,,,,,0.647058824,0.135620915,0,0,0,,0,15,15,340,1,,
,,,,,,,,,,,,,,,,,,5e1ee2050c0b3120e01eeec1,2020-11-26_15h56.49.970,lexical_decision_task_MP_exp2,2020.2.5,Win32,60,z,1,0.707,,,,,,,,0.707,1,,,,,,471,NW,"ID",33,nobest,NOBEST,z,,,,,,0.647058824,0.138888889,0,0,0,,0,16,16,290,1,,
,,,,,,,,,,,,,,,,,,5e1ee2050c0b3120e01eeec1,2020-11-26_15h56.49.970,lexical_decision_task_MP_exp2,2020.2.5,Win32,60,z,1,0.658,,,,,,,,0.658,1,,,,,,408,NW,UN,16,elopia,HURNIA,z,,,,,,0.647058824,0.138888889,0,0,0,,0,17,17,467,1,,
,,,,,,,,,,,,,,,,,,5e1ee2050c0b3120e01eeec1,2020-11-26_15h56.49.970,lexical_decision_task_MP_exp2,2020.2.5,Win32,60,z,1,0.633,,,,,,,,0.633,1,,,,,,245,NW,"ID",16,anougs,ANOUGS,z,,,,,,0.647058824,0.138888889,0,0,0,,0,18,18,304,1,,
,,,,,,,,,,,,,,,,,,5e1ee2050c0b3120e01eeec1,2020-11-26_15h56.49.970,lexical_decision_task_MP_exp2,2020.2.5,Win32,60,m,1,0.614,,,,,,,,0.614,1,,,,,,60,WORD,"ID",16,pencil,PENCIL,m,,,,,,0.647058824,0.138888889,0,0,0,,0,19,19,119,1,,
,,,,,,,,,,,,,,,,,,5e1ee2050c0b3120e01eeec1,2020-11-26_15h56.49.970,lexical_decision_task_MP_exp2,2020.2.5,Win32,60,z,1,1.004,,,,,,,,1.004,1,,,,,,338,NW,UN,33,fachow,WREASH,z,,,,,,0.647058824,0.142156863,0,0,0,,0,20,20,397,1,,
,,,,,,,,,,,,,,,,,,5e1ee2050c0b3120e01eeec1,2020-11-26_15h56.49.970,lexical_decision_task_MP_exp2,2020.2.5,Win32,60,m,1,0.689,,,,,,,,0.689,1,,,,,,188,WORD,"ID",33,social,SOCIAL,m,,,,,,0.647058824,0.142156863,0,0,0,,0,21,21,7,1,,
,,,,,,,,,,,,,,,,,,5e1ee2050c0b3120e01eeec1,2020-11-26_15h56.49.970,lexical_decision_task_MP_exp2,2020.2.5,Win32,60,z,1,0.705,,,,,,,,0.705,1,,,,,,460,NW,"ID",33,mingar,MINGAR,z,,,,,,0.64869281,0.142156863,0,0,0,,0,22,22,279,1,,
,,,,,,,,,,,,,,,,,,5e1ee2050c0b3120e01eeec1,2020-11-26_15h56.49.970,lexical_decision_task_MP_exp2,2020.2.5,Win32,60,z,1,0.647,,,,,,,,0.647,1,,,,,,372,NW,UN,16,bigent,RAMILY,z,,,,,,0.64869281,0.14379085,0,0,0,,0,23,23,431,1,,
,,,,,,,,,,,,,,,,,,5e1ee2050c0b3120e01eeec1,2020-11-26_15h56.49.970,lexical_decision_task_MP_exp2,2020.2.5,Win32,60,z,1,0.535,,,,,,,,0.535,1,,,,,,344,NW,UN,33,absend,SCRILY,z,,,,,,0.64869281,0.14379085,0,0,0,,0,24,24,403,1,,
,,,,,,,,,,,,,,,,,,5e1ee2050c0b3120e01eeec1,2020-11-26_15h56.49.970,lexical_decision_task_MP_exp2,2020.2.5,Win32,60,m,1,0.641,,,,,,,,0.641,1,,,,,,203,WORD,"ID",33,phrase,PHRASE,m,,,,,,0.64869281,0.14379085,0,0,0,,0,25,25,22,1,,
,,,,,,,,,,,,,,,,,,5e1ee2050c0b3120e01eeec1,2020-11-26_15h56.49.970,lexical_decision_task_MP_exp2,2020.2.5,Win32,60,m,1,0.602,,,,,,,,0.602,1,,,,,,177,WORD,UN,16,inform,ADVENT,m,,,,,,0.650326797,0.142156863,0,0,0,,0,26,26,236,1,,
,,,,,,,,,,,,,,,,,,5e1ee2050c0b3120e01eeec1,2020-11-26_15h56.49.970,lexical_decision_task_MP_exp2,2020.2.5,Win32,60,z,1,0.564,,,,,,,,0.564,1,,,,,,472,NW,"ID",33,cigney,CIGNEY,z,,,,,,0.650326797,0.142156863,0,0,0,,0,27,27,291,1,,
,,,,,,,,,,,,,,,,,,5e1ee2050c0b3120e01eeec1,2020-11-26_15h56.49.970,lexical_decision_task_MP_exp2,2020.2.5,Win32,60,z,1,0.547,,,,,,,,0.547,1,,,,,,334,NW,UN,33,desion,WATMEG,z,,,,,,0.650326797,0.138888889,0,0,0,,0,28,28,393,1,,
,,,,,,,,,,,,,,,,,,5e1ee2050c0b3120e01eeec1,2020-11-26_15h56.49.970,lexical_decision_task_MP_exp2,2020.2.5,Win32,60,z,1,0.528,,,,,,,,0.528,1,,,,,,360,NW,UN,33,fainch,DESORY,z,,,,,,0.650326797,0.138888889,0,0,0,,0,29,29,419,1,,
,,,,,,,,,,,,,,,,,,5e1ee2050c0b3120e01eeec1,2020-11-26_15h56.49.970,lexical_decision_task_MP_exp2,2020.2.5,Win32,60,z,1,0.837,,,,,,,,0.837,1,,,,,,348,NW,UN,33,asylen,DUMPLE,z,,,,,,0.650326797,0.138888889,0,0,0,,0,30,30,407,1,,
,,,,,,,,,,,,,,,,,,5e1ee2050c0b3120e01eeec1,2020-11-26_15h56.49.970,lexical_decision_task_MP_exp2,2020.2.5,Win32,60,m,1,0.534,,,,,,,,0.534,1,,,,,,233,WORD,"ID",33,nature,NATURE,m,,,,,,0.650326797,0.140522876,0,0,0,,0,31,31,52,1,,
,,,,,,,,,,,,,,,,,,5e1ee2050c0b3120e01eeec1,2020-11-26_15h56.49.970,lexical_decision_task_MP_exp2,2020.2.5,Win32,60,z,1,0.939,,,,,,,,0.939,1,,,,,,403,NW,UN,16,cluirm,BRUATS,z,,,,,,0.653594771,0.140522876,0,0,0,,0,32,32,462,1,,
,,,,,,,,,,,,,,,,,,5e1ee2050c0b3120e01eeec1,2020-11-26_15h56.49.970,lexical_decision_task_MP_exp2,2020.2.5,Win32,60,m,1,0.597,,,,,,,,0.597,1,,,,,,178,WORD,UN,16,basket,INFORM,m,,,,,,0.653594771,0.140522876,0,0,0,,0,33,33,237,1,,
,,,,,,,,,,,,,,,,,,5e1ee2050c0b3120e01eeec1,2020-11-26_15h56.49.970,lexical_decision_task_MP_exp2,2020.2.5,Win32,60,m,1,0.62,,,,,,,,0.62,1,,,,,,21,WORD,"ID",16,simple,SIMPLE,m,,,,,,0.653594771,0.138888889,0,0,0,,0,34,34,80,1,,
,,,,,,,,,,,,,,,,,,5e1ee2050c0b3120e01eeec1,2020-11-26_15h56.49.970,lexical_decision_task_MP_exp2,2020.2.5,Win32,60,z,1,0.689,,,,,,,,0.689,1,,,,,,476,NW,"ID",33,josted,JOSTED,z,,,,,,0.653594771,0.140522876,0,0,0,,0,35,35,295,1,,
,,,,,,,,,,,,,,,,,,5e1ee2050c0b3120e01eeec1,2020-11-26_15h56.49.970,lexical_decision_task_MP_exp2,2020.2.5,Win32,60,z,1,0.713,,,,,,,,0.713,1,,,,,,436,NW,"ID",33,frutan,FRUTAN,z,,,,,,0.653594771,0.142156863,0,0,0,,0,36,36,255,1,,
,,,,,,,,,,,,,,,,,,5e1ee2050c0b3120e01eeec1,2020-11-26_15h56.49.970,lexical_decision_task_MP_exp2,2020.2.5,Win32,60,m,1,0.528,,,,,,,,0.528,1,,,,,,77,WORD,UN,33,column,RACKET,m,,,,,,0.653594771,0.14379085,0,0,0,,0,37,37,136,1,,
,,,,,,,,,,,,,,,,,,5e1ee2050c0b3120e01eeec1,2020-11-26_15h56.49.970,lexical_decision_task_MP_exp2,2020.2.5,Win32,60,z,1,0.633,,,,,,,,0.633,1,,,,,,390,NW,UN,16,theldy,HATRUS,z,,,,,,0.653594771,0.145424837,0,0,0,,0,38,38,449,1,,
,,,,,,,,,,,,,,,,,,5e1ee2050c0b3120e01eeec1,2020-11-26_15h56.49.970,lexical_decision_task_MP_exp2,2020.2.5,Win32,60,m,1,0.658,,,,,,,,0.658,1,,,,,,217,WORD,"ID",33,liquor,LIQUOR,m,,,,,,0.653594771,0.14869281,0,0,0,,0,39,39,36,1,,
,,,,,,,,,,,,,,,,,,5e1ee2050c0b3120e01eeec1,2020-11-26_15h56.49.970,lexical_decision_task_MP_exp2,2020.2.5,Win32,60,m,0,1.525,,,,,,,,1.525,0,,,,,,345,NW,UN,33,saudic,ABSEND,z,,,,,,0.653594771,0.147058824,0,0,0,,0,40,40,404,1,,
,,,,,,,,,,,,,,,,,,5e1ee2050c0b3120e01eeec1,2020-11-26_15h56.49.970,lexical_decision_task_MP_exp2,2020.2.5,Win32,60,m,1,0.653,,,,,,,,0.653,1,,,,,,94,WORD,UN,33,thread,TRAVEL,m,,,,,,0.653594771,0.14869281,0,0,0,,0,41,41,153,1,,
,,,,,,,,,,,,,,,,,,5e1ee2050c0b3120e01eeec1,2020-11-26_15h56.49.970,lexical_decision_task_MP_exp2,2020.2.5,Win32,60,z,1,0.919,,,,,,,,0.919,1,,,,,,411,NW,UN,16,jiluer,ORCHIN,z,,,,,,0.656862745,0.150326797,0,0,0,,0,42,42,470,1,,
,,,,,,,,,,,,,,,,,,5e1ee2050c0b3120e01eeec1,2020-11-26_15h56.49.970,lexical_decision_task_MP_exp2,2020.2.5,Win32,60,z,1,0.654,,,,,,,,0.654,1,,,,,,286,NW,"ID",16,reldon,RELDON,z,,,,,,0.656862745,0.150326797,0,0,0,,0,43,43,345,1,,
,,,,,,,,,,,,,,,,,,5e1ee2050c0b3120e01eeec1,2020-11-26_15h56.49.970,lexical_decision_task_MP_exp2,2020.2.5,Win32,60,m,1,0.557,,,,,,,,0.557,1,,,,,,79,WORD,UN,33,family,THEORY,m,,,,,,0.656862745,0.151960784,0,0,0,,0,44,44,138,1,,
,,,,,,,,,,,,,,,,,,5e1ee2050c0b3120e01eeec1,2020-11-26_15h56.49.970,lexical_decision_task_MP_exp2,2020.2.5,Win32,60,z,1,0.598,,,,,,,,0.598,1,,,,,,407,NW,UN,16,hurnia,SUIVER,z,,,,,,0.656862745,0.155228758,0,0,0,,0,45,45,466,1,,
,,,,,,,,,,,,,,,,,,5e1ee2050c0b3120e01eeec1,2020-11-26_15h56.49.970,lexical_decision_task_MP_exp2,2020.2.5,Win32,60,z,1,0.625,,,,,,,,0.625,1,,,,,,367,NW,UN,16,hornal,SLIQUE,z,,,,,,0.656862745,0.155228758,0,0,0,,0,46,46,426,1,,
,,,,,,,,,,,,,,,,,,5e1ee2050c0b3120e01eeec1,2020-11-26_15h56.49.970,lexical_decision_task_MP_exp2,2020.2.5,Win32,60,z,1,0.851,,,,,,,,0.851,1,,,,,,303,NW,UN,33,cludie,FIREAM,z,,,,,,0.656862745,0.155228758,0,0,0,,0,47,47,362,1,,
,,,,,,,,,,,,,,,,,,5e1ee2050c0b3120e01eeec1,2020-11-26_15h56.49.970,lexical_decision_task_MP_exp2,2020.2.5,Win32,60,z,1,1.15,,,,,,,,1.15,1,,,,,,342,NW,UN,33,aimosy,RANDOW,z,,,,,,0.656862745,0.156862745,0,0,0,,0,48,48,401,1,,
,,,,,,,,,,,,,,,,,,5e1ee2050c0b3120e01eeec1,2020-11-26_15h56.49.970,lexical_decision_task_MP_exp2,2020.2.5,Win32,60,m,1,0.685,,,,,,,,0.685,1,,,,,,118,WORD,UN,33,spider,FLIGHT,m,,,,,,0.656862745,0.155228758,0,0,0,,0,49,49,177,1,,
,,,,,,,,,,,,,,,,,,5e1ee2050c0b3120e01eeec1,2020-11-26_15h56.49.970,lexical_decision_task_MP_exp2,2020.2.5,Win32,60,z,1,1.412,,,,,,,,1.412,1,,,,,,356,NW,UN,33,derain,OTHNIS,z,,,,,,0.656862745,0.150326797,0,0,0,,0,50,50,415,1,,
,,,,,,,,,,,,,,,,,,5e1ee2050c0b3120e01eeec1,2020-11-26_15h56.49.970,lexical_decision_task_MP_exp2,2020.2.5,Win32,60,m,1,0.739,,,,,,,,0.739,1,,,,,,234,WORD,"ID",33,clumsy,CLUMSY,m,,,,,,0.656862745,0.151960784,0,0,0,,0,51,51,53,1,,
,,,,,,,,,,,,,,,,,,5e1ee2050c0b3120e01eeec1,2020-11-26_15h56.49.970,lexical_decision_task_MP_exp2,2020.2.5,Win32,60,z,1,0.926,,,,,,,,0.926,1,,,,,,430,NW,"ID",33,caroey,CAROEY,z,,,,,,0.660130719,0.137254902,0,0,0,,0,52,52,249,1,,
,,,,,,,,,,,,,,,,,,5e1ee2050c0b3120e01eeec1,2020-11-26_15h56.49.970,lexical_decision_task_MP_exp2,2020.2.5,Win32,60,z,1,0.617,,,,,,,,0.617,1,,,,,,479,NW,"ID",33,lobush,LOBUSH,z,,,,,,0.660130719,0.137254902,0,0,0,,0,53,53,298,1,,
,,,,,,,,,,,,,,,,,,5e1ee2050c0b3120e01eeec1,2020-11-26_15h56.49.970,lexical_decision_task_MP_exp2,2020.2.5,Win32,60,m,1,0.674,,,,,,,,0.674,1,,,,,,10,WORD,"ID",16,ethnic,ETHNIC,m,,,,,,0.660130719,0.137254902,0,0,0,,0,54,54,69,1,,
,,,,,,,,,,,,,,,,,,5e1ee2050c0b3120e01eeec1,2020-11-26_15h56.49.970,lexical_decision_task_MP_exp2,2020.2.5,Win32,60,m,1,0.631,,,,,,,,0.631,1,,,,,,123,WORD,UN,16,blouse,STRIKE,m,,,,,,0.660130719,0.137254902,0,0,0,,0,55,55,182,1,,
,,,,,,,,,,,,,,,,,,5e1ee2050c0b3120e01eeec1,2020-11-26_15h56.49.970,lexical_decision_task_MP_exp2,2020.2.5,Win32,60,m,1,0.573,,,,,,,,0.573,1,,,,,,169,WORD,UN,16,pounce,GENIUS,m,,,,,,0.653594771,0.14869281,0,0,0,,0,56,56,228,1,,
,,,,,,,,,,,,,,,,,,5e1ee2050c0b3120e01eeec1,2020-11-26_15h56.49.970,lexical_decision_task_MP_exp2,2020.2.5,Win32,60,m,1,0.709,,,,,,,,0.709,1,,,,,,52,WORD,"ID",16,impose,IMPOSE,m,,,,,,0.653594771,0.158496732,0,0,0,,0,57,57,111,1,,
,,,,,,,,,,,,,,,,,,5e1ee2050c0b3120e01eeec1,2020-11-26_15h56.49.970,lexical_decision_task_MP_exp2,2020.2.5,Win32,60,m,1,0.541,,,,,,,,0.541,1,,,,,,17,WORD,"ID",16,charge,CHARGE,m,,,,,,0.653594771,0.161764706,0,0,0,,0,58,58,76,1,,
,,,,,,,,,,,,,,,,,,5e1ee2050c0b3120e01eeec1,2020-11-26_15h56.49.970,lexical_decision_task_MP_exp2,2020.2.5,Win32,60,m,1,0.573,,,,,,,,0.573,1,,,,,,197,WORD,"ID",33,stream,STREAM,m,,,,,,0.651960784,0.161764706,0,0,0,,0,59,59,16,1,,
,,,,,,,,,,,,,,,,,,5e1ee2050c0b3120e01eeec1,2020-11-26_15h56.49.970,lexical_decision_task_MP_exp2,2020.2.5,Win32,60,m,1,0.496,,,,,,,,0.496,1,,,,,,205,WORD,"ID",33,lounge,LOUNGE,m,,,,,,0.64869281,0.168300654,0,0,0,,0,60,60,24,1,,
,,,,,,,,,,,,,,,,,,5e1ee2050c0b3120e01eeec1,2020-11-26_15h56.49.970,lexical_decision_task_MP_exp2,2020.2.5,Win32,60,m,1,0.538,,,,,,,,0.538,1,,,,,,171,WORD,UN,16,patrol,DEPART,m,,,,,,0.64869281,0.169934641,0,0,0,,0,61,61,230,1,,
,,,,,,,,,,,,,,,,,,5e1ee2050c0b3120e01eeec1,2020-11-26_15h56.49.970,lexical_decision_task_MP_exp2,2020.2.5,Win32,60,z,1,0.669,,,,,,,,0.669,1,,,,,,478,NW,"ID",33,acrise,ACRISE,z,,,,,,0.650326797,0.168300654,0,0,0,,0,62,62,297,1,,
,,,,,,,,,,,,,,,,,,5e1ee2050c0b3120e01eeec1,2020-11-26_15h56.49.970,lexical_decision_task_MP_exp2,2020.2.5,Win32,60,m,1,0.638,,,,,,,,0.638,1,,,,,,165,WORD,UN,16,starch,INVEST,m,,,,,,0.64869281,0.169934641,0,0,0,,0,63,63,224,1,,
,,,,,,,,,,,,,,,,,,5e1ee2050c0b3120e01eeec1,2020-11-26_15h56.49.970,lexical_decision_task_MP_exp2,2020.2.5,Win32,60,m,1,0.79,,,,,,,,0.79,1,,,,,,181,WORD,"ID",33,glance,GLANCE,m,,,,,,0.64869281,0.174836601,0,0,0,,0,64,64,0,1,,
,,,,,,,,,,,,,,,,,,5e1ee2050c0b3120e01eeec1,2020-11-26_15h56.49.970,lexical_decision_task_MP_exp2,2020.2.5,Win32,60,z,1,0.566,,,,,,,,0.566,1,,,,,,414,NW,UN,16,higsta,SERBOL,z,,,,,,0.64869281,0.174836601,0,0,0,,0,65,65,473,1,,
,,,,,,,,,,,,,,,,,,5e1ee2050c0b3120e01eeec1,2020-11-26_15h56.49.970,lexical_decision_task_MP_exp2,2020.2.5,Win32,60,z,0,0.69,,,,,,,,0.69,0,,,,,,131,WORD,UN,16,strong,QUENCH,m,,,,,,0.64869281,0.174836601,0,0,0,,0,66,66,190,1,,
,,,,,,,,,,,,,,,,,,5e1ee2050c0b3120e01eeec1,2020-11-26_15h56.49.970,lexical_decision_task_MP_exp2,2020.2.5,Win32,60,z,1,0.95,,,,,,,,0.95,1,,,,,,374,NW,UN,16,yorque,SLIANT,z,,,,,,0.64869281,0.176470588,0,0,0,,0,67,67,433,1,,
,,,,,,,,,,,,,,,,,,5e1ee2050c0b3120e01eeec1,2020-11-26_15h56.49.970,lexical_decision_task_MP_exp2,2020.2.5,Win32,60,m,1,0.63,,,,,,,,0.63,1,,,,,,211,WORD,"ID",33,infect,INFECT,m,,,,,,0.64869281,0.179738562,0,0,0,,0,68,68,30,1,,
,,,,,,,,,,,,,,,,,,5e1ee2050c0b3120e01eeec1,2020-11-26_15h56.49.970,lexical_decision_task_MP_exp2,2020.2.5,Win32,60,m,1,0.584,,,,,,,,0.584,1,,,,,,163,WORD,UN,16,market,STRING,m,,,,,,0.64869281,0.181372549,0,0,0,,0,69,69,222,1,,
,,,,,,,,,,,,,,,,,,5e1ee2050c0b3120e01eeec1,2020-11-26_15h56.49.970,lexical_decision_task_MP_exp2,2020.2.5,Win32,60,z,1,0.724,,,,,,,,0.724,1,,,,,,249,NW,"ID",16,batrol,BATROL,z,,,,,,0.64869281,0.184640523,0,0,0,,0,70,70,308,1,,
,,,,,,,,,,,,,,,,,,5e1ee2050c0b3120e01eeec1,2020-11-26_15h56.49.970,lexical_decision_task_MP_exp2,2020.2.5,Win32,60,m,1,0.675,,,,,,,,0.675,1,,,,,,238,WORD,"ID",33,flower,FLOWER,m,,,,,,0.64869281,0.187908497,0,0,0,,0,71,71,57,1,,
,,,,,,,,,,,,,,,,,,5e1ee2050c0b3120e01eeec1,2020-11-26_15h56.49.970,lexical_decision_task_MP_exp2,2020.2.5,Win32,60,m,1,0.602,,,,,,,,0.602,1,,,,,,56,WORD,"ID",16,ambush,AMBUSH,m,,,,,,0.647058824,0.189542484,0,0,0,,0,72,72,115,1,,
,,,,,,,,,,,,,,,,,,5e1ee2050c0b3120e01eeec1,2020-11-26_15h56.49.970,lexical_decision_task_MP_exp2,2020.2.5,Win32,60,z,1,0.752,,,,,,,,0.752,1,,,,,,386,NW,UN,16,gronce,ANCUST,z,,,,,,0.647058824,0.189542484,0,0,0,,0,73,73,445,1,,
,,,,,,,,,,,,,,,,,,5e1ee2050c0b3120e01eeec1,2020-11-26_15h56.49.970,lexical_decision_task_MP_exp2,2020.2.5,Win32,60,z,1,0.653,,,,,,,,0.653,1,,,,,,445,NW,"ID",33,minkel,MINKEL,z,,,,,,0.647058824,0.191176471,0,0,0,,0,74,74,264,1,,
,,,,,,,,,,,,,,,,,,5e1ee2050c0b3120e01eeec1,2020-11-26_15h56.49.970,lexical_decision_task_MP_exp2,2020.2.5,Win32,60,z,1,0.683,,,,,,,,0.683,1,,,,,,331,NW,UN,33,vangue,GILFEW,z,,,,,,0.647058824,0.192810458,0,0,0,,0,75,75,390,1,,
,,,,,,,,,,,,,,,,,,5e1ee2050c0b3120e01eeec1,2020-11-26_15h56.49.970,lexical_decision_task_MP_exp2,2020.2.5,Win32,60,z,1,0.635,,,,,,,,0.635,1,,,,,,417,NW,UN,16,suidle,EAROUD,z,,,,,,0.647058824,0.192810458,0,0,0,,0,76,76,476,1,,
,,,,,,,,,,,,,,,,,,5e1ee2050c0b3120e01eeec1,2020-11-26_15h56.49.970,lexical_decision_task_MP_exp2,2020.2.5,Win32,60,z,1,0.685,,,,,,,,0.685,1,,,,,,320,NW,UN,33,miator,JOCKAL,z,,,,,,0.647058824,0.192810458,0,0,0,,0,77,77,379,1,,
,,,,,,,,,,,,,,,,,,5e1ee2050c0b3120e01eeec1,2020-11-26_15h56.49.970,lexical_decision_task_MP_exp2,2020.2.5,Win32,60,m,1,0.635,,,,,,,,0.635,1,,,,,,196,WORD,"ID",33,credit,CREDIT,m,,,,,,0.647058824,0.192810458,0,0,0,,0,78,78,15,1,,
,,,,,,,,,,,,,,,,,,5e1ee2050c0b3120e01eeec1,2020-11-26_15h56.49.970,lexical_decision_task_MP_exp2,2020.2.5,Win32,60,z,1,0.549,,,,,,,,0.549,1,,,,,,350,NW,UN,33,tiesch,NAGURS,z,,,,,,0.647058824,0.192810458,0,0,0,,0,79,79,409,1,,
,,,,,,,,,,,,,,,,,,5e1ee2050c0b3120e01eeec1,2020-11-26_15h56.49.970,lexical_decision_task_MP_exp2,2020.2.5,Win32,60,z,1,0.615,,,,,,,,0.615,1,,,,,,480,NW,"ID",33,robuly,ROBULY,z,,,,,,0.647058824,0.192810458,0,0,0,,0,80,80,299,1,,
,,,,,,,,,,,,,,,,,,5e1ee2050c0b3120e01eeec1,2020-11-26_15h56.49.970,lexical_decision_task_MP_exp2,2020.2.5,Win32,60,m,1,0.64,,,,,,,,0.64,1,,,,,,5,WORD,"ID",16,plunge,PLUNGE,m,,,,,,0.647058824,0.192810458,0,0,0,,0,81,81,64,1,,
,,,,,,,,,,,,,,,,,,5e1ee2050c0b3120e01eeec1,2020-11-26_15h56.49.970,lexical_decision_task_MP_exp2,2020.2.5,Win32,60,z,1,1.825,,,,,,,,1.825,1,,,,,,314,NW,UN,33,laston,SPRINE,z,,,,,,0.647058824,0.191176471,0,0,0,,0,82,82,373,1,,
,,,,,,,,,,,,,,,,,,5e1ee2050c0b3120e01eeec1,2020-11-26_15h56.49.970,lexical_decision_task_MP_exp2,2020.2.5,Win32,60,m,1,0.837,,,,,,,,0.837,1,,,,,,25,WORD,"ID",16,domain,DOMAIN,m,,,,,,0.647058824,0.191176471,0,0,0,,0,83,83,84,1,,
,,,,,,,,,,,,,,,,,,5e1ee2050c0b3120e01eeec1,2020-11-26_15h56.49.970,lexical_decision_task_MP_exp2,2020.2.5,Win32,60,m,1,1.089,,,,,,,,1.089,1,,,,,,200,WORD,"ID",33,beacon,BEACON,m,,,,,,0.651960784,0.181372549,0,0,0,,0,84,84,19,1,,
,,,,,,,,,,,,,,,,,,5e1ee2050c0b3120e01eeec1,2020-11-26_15h56.49.970,lexical_decision_task_MP_exp2,2020.2.5,Win32,60,z,1,0.73,,,,,,,,0.73,1,,,,,,285,NW,"ID",16,prudge,PRUDGE,z,,,,,,0.651960784,0.181372549,0,0,0,,0,85,85,344,1,,
,,,,,,,,,,,,,,,,,,5e1ee2050c0b3120e01eeec1,2020-11-26_15h56.49.970,lexical_decision_task_MP_exp2,2020.2.5,Win32,60,z,1,0.631,,,,,,,,0.631,1,,,,,,355,NW,UN,33,othnis,ZINGLY,z,,,,,,0.651960784,0.181372549,0,0,0,,0,86,86,414,1,,
,,,,,,,,,,,,,,,,,,5e1ee2050c0b3120e01eeec1,2020-11-26_15h56.49.970,lexical_decision_task_MP_exp2,2020.2.5,Win32,60,z,1,0.521,,,,,,,,0.521,1,,,,,,351,NW,UN,33,tringe,TIESCH,z,,,,,,0.651960784,0.181372549,0,0,0,,0,87,87,410,1,,
,,,,,,,,,,,,,,,,,,5e1ee2050c0b3120e01eeec1,2020-11-26_15h56.49.970,lexical_decision_task_MP_exp2,2020.2.5,Win32,60,m,1,0.866,,,,,,,,0.866,1,,,,,,183,WORD,"ID",33,mildew,MILDEW,m,,,,,,0.651960784,0.181372549,0,0,0,,0,88,88,2,1,,
,,,,,,,,,,,,,,,,,,5e1ee2050c0b3120e01eeec1,2020-11-26_15h56.49.970,lexical_decision_task_MP_exp2,2020.2.5,Win32,60,z,1,0.718,,,,,,,,0.718,1,,,,,,442,NW,"ID",33,aboune,ABOUNE,z,,,,,,0.651960784,0.181372549,0,0,0,,0,89,89,261,1,,
,,,,,,,,,,,,,,,,,,5e1ee2050c0b3120e01eeec1,2020-11-26_15h56.49.970,lexical_decision_task_MP_exp2,2020.2.5,Win32,60,m,1,0.603,,,,,,,,0.603,1,,,,,,129,WORD,UN,16,stupid,MARVEL,m,,,,,,0.651960784,0.181372549,0,0,0,,0,90,90,188,1,,
,,,,,,,,,,,,,,,,,,5e1ee2050c0b3120e01eeec1,2020-11-26_15h56.49.970,lexical_decision_task_MP_exp2,2020.2.5,Win32,60,m,1,0.552,,,,,,,,0.552,1,,,,,,126,WORD,UN,16,castle,ENOUGH,m,,,,,,0.651960784,0.181372549,0,0,0,,0,91,91,185,1,,
,,,,,,,,,,,,,,,,,,5e1ee2050c0b3120e01eeec1,2020-11-26_15h56.49.970,lexical_decision_task_MP_exp2,2020.2.5,Win32,60,m,1,0.536,,,,,,,,0.536,1,,,,,,30,WORD,"ID",16,orient,ORIENT,m,,,,,,0.651960784,0.181372549,0,0,0,,0,92,92,89,1,,
,,,,,,,,,,,,,,,,,,5e1ee2050c0b3120e01eeec1,2020-11-26_15h56.49.970,lexical_decision_task_MP_exp2,2020.2.5,Win32,60,m,1,0.593,,,,,,,,0.593,1,,,,,,49,WORD,"ID",16,survey,SURVEY,m,,,,,,0.651960784,0.181372549,0,0,0,,0,93,93,108,1,,
,,,,,,,,,,,,,,,,,,5e1ee2050c0b3120e01eeec1,2020-11-26_15h56.49.970,lexical_decision_task_MP_exp2,2020.2.5,Win32,60,m,1,0.584,,,,,,,,0.584,1,,,,,,23,WORD,"ID",16,wealth,WEALTH,m,,,,,,0.651960784,0.181372549,0,0,0,,0,94,94,82,1,,
,,,,,,,,,,,,,,,,,,5e1ee2050c0b3120e01eeec1,2020-11-26_15h56.49.970,lexical_decision_task_MP_exp2,2020.2.5,Win32,60,m,1,0.539,,,,,,,,0.539,1,,,,,,150,WORD,UN,16,mystic,RANDOM,m,,,,,,0.651960784,0.181372549,0,0,0,,0,95,95,209,1,,
,,,,,,,,,,,,,,,,,,5e1ee2050c0b3120e01eeec1,2020-11-26_15h56.49.970,lexical_decision_task_MP_exp2,2020.2.5,Win32,60,z,1,0.716,,,,,,,,0.716,1,,,,,,401,NW,UN,16,syntic,MUSTIL,z,,,,,,0.651960784,0.181372549,0,0,0,,0,96,96,460,1,,
,,,,,,,,,,,,,,,,,,5e1ee2050c0b3120e01eeec1,2020-11-26_15h56.49.970,lexical_decision_task_MP_exp2,2020.2.5,Win32,60,z,1,0.735,,,,,,,,0.735,1,,,,,,276,NW,"ID",16,yarmon,YARMON,z,,,,,,0.651960784,0.181372549,0,0,0,,0,97,97,335,1,,
,,,,,,,,,,,,,,,,,,5e1ee2050c0b3120e01eeec1,2020-11-26_15h56.49.970,lexical_decision_task_MP_exp2,2020.2.5,Win32,60,m,0,0.568,,,,,,,,0.568,0,,,,,,361,NW,UN,16,tireau,PAUCHE,z,,,,,,0.651960784,0.181372549,0,0,0,,0,98,98,420,1,,
,,,,,,,,,,,,,,,,,,5e1ee2050c0b3120e01eeec1,2020-11-26_15h56.49.970,lexical_decision_task_MP_exp2,2020.2.5,Win32,60,m,1,0.605,,,,,,,,0.605,1,,,,,,185,WORD,"ID",33,bother,BOTHER,m,,,,,,0.651960784,0.181372549,0,0,0,,0,99,99,4,1,,
,,,,,,,,,,,,,,,,,,5e1ee2050c0b3120e01eeec1,2020-11-26_15h56.49.970,lexical_decision_task_MP_exp2,2020.2.5,Win32,60,m,1,0.648,,,,,,,,0.648,1,,,,,,115,WORD,UN,33,tumble,GUITAR,m,,,,,,0.651960784,0.181372549,0,0,0,,0,100,100,174,1,,
,,,,,,,,,,,,,,,,,,5e1ee2050c0b3120e01eeec1,2020-11-26_15h56.49.970,lexical_decision_task_MP_exp2,2020.2.5,Win32,60,m,1,0.58,,,,,,,,0.58,1,,,,,,157,WORD,UN,16,island,DRAGON,m,,,,,,0.651960784,0.181372549,0,0,0,,0,101,101,216,1,,
,,,,,,,,,,,,,,,,,,5e1ee2050c0b3120e01eeec1,2020-11-26_15h56.49.970,lexical_decision_task_MP_exp2,2020.2.5,Win32,60,m,1,0.552,,,,,,,,0.552,1,,,,,,64,WORD,UN,33,symbol,THRONE,m,,,,,,0.651960784,0.181372549,0,0,0,,0,102,102,123,1,,
,,,,,,,,,,,,,,,,,,5e1ee2050c0b3120e01eeec1,2020-11-26_15h56.49.970,lexical_decision_task_MP_exp2,2020.2.5,Win32,60,z,1,0.701,,,,,,,,0.701,1,,,,,,313,NW,UN,33,sprine,PAURSE,z,,,,,,0.651960784,0.181372549,0,0,0,,0,103,103,372,1,,
,,,,,,,,,,,,,,,,,,5e1ee2050c0b3120e01eeec1,2020-11-26_15h56.49.970,lexical_decision_task_MP_exp2,2020.2.5,Win32,60,z,1,0.501,,,,,,,,0.501,1,,,,,,455,NW,"ID",33,tondle,TONDLE,z,,,,,,0.651960784,0.181372549,0,0,0,,0,104,104,274,1,,
,,,,,,,,,,,,,,,,,,5e1ee2050c0b3120e01eeec1,2020-11-26_15h56.49.970,lexical_decision_task_MP_exp2,2020.2.5,Win32,60,m,1,0.753,,,,,,,,0.753,1,,,,,,24,WORD,"ID",16,praise,PRAISE,m,,,,,,0.651960784,0.181372549,0,0,0,,0,105,105,83,1,,
,,,,,,,,,,,,,,,,,,5e1ee2050c0b3120e01eeec1,2020-11-26_15h56.49.970,lexical_decision_task_MP_exp2,2020.2.5,Win32,60,m,1,0.555,,,,,,,,0.555,1,,,,,,193,WORD,"ID",33,object,OBJECT,m,,,,,,0.651960784,0.181372549,0,0,0,,0,106,106,12,1,,
,,,,,,,,,,,,,,,,,,5e1ee2050c0b3120e01eeec1,2020-11-26_15h56.49.970,lexical_decision_task_MP_exp2,2020.2.5,Win32,60,m,1,0.532,,,,,,,,0.532,1,,,,,,167,WORD,UN,16,answer,DESIGN,m,,,,,,0.651960784,0.181372549,0,0,0,,0,107,107,226,1,,
,,,,,,,,,,,,,,,,,,5e1ee2050c0b3120e01eeec1,2020-11-26_15h56.49.970,lexical_decision_task_MP_exp2,2020.2.5,Win32,60,z,1,0.633,,,,,,,,0.633,1,,,,,,336,NW,UN,33,rejols,GHODUS,z,,,,,,0.651960784,0.181372549,0,0,0,,0,108,108,395,1,,
,,,,,,,,,,,,,,,,,,5e1ee2050c0b3120e01eeec1,2020-11-26_15h56.49.970,lexical_decision_task_MP_exp2,2020.2.5,Win32,60,m,1,0.807,,,,,,,,0.807,1,,,,,,41,WORD,"ID",16,spring,SPRING,m,,,,,,0.651960784,0.181372549,0,0,0,,0,109,109,100,1,,
,,,,,,,,,,,,,,,,,,5e1ee2050c0b3120e01eeec1,2020-11-26_15h56.49.970,lexical_decision_task_MP_exp2,2020.2.5,Win32,60,z,1,0.775,,,,,,,,0.775,1,,,,,,312,NW,UN,33,paurse,NERAWL,z,,,,,,0.651960784,0.181372549,0,0,0,,0,110,110,371,1,,
,,,,,,,,,,,,,,,,,,5e1ee2050c0b3120e01eeec1,2020-11-26_15h56.49.970,lexical_decision_task_MP_exp2,2020.2.5,Win32,60,z,1,0.582,,,,,,,,0.582,1,,,,,,467,NW,"ID",33,gorbie,GORBIE,z,,,,,,0.651960784,0.181372549,0,0,0,,0,111,111,286,1,,
,,,,,,,,,,,,,,,,,,5e1ee2050c0b3120e01eeec1,2020-11-26_15h56.49.970,lexical_decision_task_MP_exp2,2020.2.5,Win32,60,z,1,0.655,,,,,,,,0.655,1,,,,,,366,NW,UN,16,slique,TOSHEL,z,,,,,,0.651960784,0.181372549,0,0,0,,0,112,112,425,1,,
,,,,,,,,,,,,,,,,,,5e1ee2050c0b3120e01eeec1,2020-11-26_15h56.49.970,lexical_decision_task_MP_exp2,2020.2.5,Win32,60,m,1,0.673,,,,,,,,0.673,1,,,,,,31,WORD,"ID",16,weapon,WEAPON,m,,,,,,0.651960784,0.181372549,0,0,0,,0,113,113,90,1,,
,,,,,,,,,,,,,,,,,,5e1ee2050c0b3120e01eeec1,2020-11-26_15h56.49.970,lexical_decision_task_MP_exp2,2020.2.5,Win32,60,m,1,0.658,,,,,,,,0.658,1,,,,,,153,WORD,UN,16,author,BEHOLD,m,,,,,,0.651960784,0.181372549,0,0,0,,0,114,114,212,1,,
,,,,,,,,,,,,,,,,,,5e1ee2050c0b3120e01eeec1,2020-11-26_15h56.49.970,lexical_decision_task_MP_exp2,2020.2.5,Win32,60,z,1,0.681,,,,,,,,0.681,1,,,,,,292,NW,"ID",16,ablint,ABLINT,z,,,,,,0.651960784,0.181372549,0,0,0,,0,115,115,351,1,,
,,,,,,,,,,,,,,,,,,5e1ee2050c0b3120e01eeec1,2020-11-26_15h56.49.970,lexical_decision_task_MP_exp2,2020.2.5,Win32,60,m,1,0.688,,,,,,,,0.688,1,,,,,,85,WORD,UN,33,rodent,SPRAWL,m,,,,,,0.651960784,0.181372549,0,0,0,,0,116,116,144,1,,
,,,,,,,,,,,,,,,,,,5e1ee2050c0b3120e01eeec1,2020-11-26_15h56.49.970,lexical_decision_task_MP_exp2,2020.2.5,Win32,60,z,1,0.697,,,,,,,,0.697,1,,,,,,322,NW,UN,33,rosail,SLANCH,z,,,,,,0.651960784,0.181372549,0,0,0,,0,117,117,381,1,,
,,,,,,,,,,,,,,,,,,5e1ee2050c0b3120e01eeec1,2020-11-26_15h56.49.970,lexical_decision_task_MP_exp2,2020.2.5,Win32,60,z,1,0.87,,,,,,,,0.87,1,,,,,,437,NW,"ID",33,snapel,SNAPEL,z,,,,,,0.651960784,0.181372549,0,0,0,,0,118,118,256,1,,
,,,,,,,,,,,,,,,,,,5e1ee2050c0b3120e01eeec1,2020-11-26_15h56.49.970,lexical_decision_task_MP_exp2,2020.2.5,Win32,60,m,1,0.619,,,,,,,,0.619,1,,,,,,86,WORD,UN,33,filter,RODENT,m,,,,,,0.651960784,0.181372549,0,0,0,,0,119,119,145,1,,
,,,,,,,,,,,,,,,,,,5e1ee2050c0b3120e01eeec1,2020-11-26_15h56.49.970,lexical_decision_task_MP_exp2,2020.2.5,Win32,60,z,1,1.503,,,,,,,,1.503,1,,,,,,462,NW,"ID",33,absult,ABSULT,z,,,,,,-0.053921569,-0.405228758,1,0,0,,0,120,120,281,1,break_done_button,
,,,,,,,,,,,,,,,,,,5e1ee2050c0b3120e01eeec1,2020-11-26_15h56.49.970,lexical_decision_task_MP_exp2,2020.2.5,Win32,60,m,1,1.864,,,,,,,,1.864,1,,,,,,125,WORD,UN,16,enough,NICKEL,m,,,,,,-0.024509804,-0.132352941,0,0,0,,0,121,121,184,1,,
,,,,,,,,,,,,,,,,,,5e1ee2050c0b3120e01eeec1,2020-11-26_15h56.49.970,lexical_decision_task_MP_exp2,2020.2.5,Win32,60,m,1,0.504,,,,,,,,0.504,1,,,,,,12,WORD,"ID",16,orange,ORANGE,m,,,,,,-0.024509804,-0.132352941,0,0,0,,0,122,122,71,1,,
,,,,,,,,,,,,,,,,,,5e1ee2050c0b3120e01eeec1,2020-11-26_15h56.49.970,lexical_decision_task_MP_exp2,2020.2.5,Win32,60,m,1,0.488,,,,,,,,0.488,1,,,,,,198,WORD,"ID",33,wicked,WICKED,m,,,,,,-0.024509804,-0.132352941,0,0,0,,0,123,123,17,1,,
,,,,,,,,,,,,,,,,,,5e1ee2050c0b3120e01eeec1,2020-11-26_15h56.49.970,lexical_decision_task_MP_exp2,2020.2.5,Win32,60,m,1,0.488,,,,,,,,0.488,1,,,,,,98,WORD,UN,33,fluent,BELONG,m,,,,,,-0.024509804,-0.132352941,0,0,0,,0,124,124,157,1,,
,,,,,,,,,,,,,,,,,,5e1ee2050c0b3120e01eeec1,2020-11-26_15h56.49.970,lexical_decision_task_MP_exp2,2020.2.5,Win32,60,m,1,0.516,,,,,,,,0.516,1,,,,,,8,WORD,"ID",16,abrupt,ABRUPT,m,,,,,,-0.024509804,-0.132352941,0,0,0,,0,125,125,67,1,,
,,,,,,,,,,,,,,,,,,5e1ee2050c0b3120e01eeec1,2020-11-26_15h56.49.970,lexical_decision_task_MP_exp2,2020.2.5,Win32,60,m,1,0.5,,,,,,,,0.5,1,,,,,,182,WORD,"ID",33,winter,WINTER,m,,,,,,-0.024509804,-0.132352941,0,0,0,,0,126,126,1,1,,
,,,,,,,,,,,,,,,,,,5e1ee2050c0b3120e01eeec1,2020-11-26_15h56.49.970,lexical_decision_task_MP_exp2,2020.2.5,Win32,60,z,1,0.557,,,,,,,,0.557,1,,,,,,434,NW,"ID",33,pitrom,PITROM,z,,,,,,-0.024509804,-0.132352941,0,0,0,,0,127,127,253,1,,
,,,,,,,,,,,,,,,,,,5e1ee2050c0b3120e01eeec1,2020-11-26_15h56.49.970,lexical_decision_task_MP_exp2,2020.2.5,Win32,60,m,1,0.637,,,,,,,,0.637,1,,,,,,50,WORD,"ID",16,snatch,SNATCH,m,,,,,,-0.024509804,-0.132352941,0,0,0,,0,128,128,109,1,,
,,,,,,,,,,,,,,,,,,5e1ee2050c0b3120e01eeec1,2020-11-26_15h56.49.970,lexical_decision_task_MP_exp2,2020.2.5,Win32,60,z,1,0.602,,,,,,,,0.602,1,,,,,,294,NW,"ID",16,inhort,INHORT,z,,,,,,-0.024509804,-0.132352941,0,0,0,,0,129,129,353,1,,
,,,,,,,,,,,,,,,,,,5e1ee2050c0b3120e01eeec1,2020-11-26_15h56.49.970,lexical_decision_task_MP_exp2,2020.2.5,Win32,60,z,1,0.581,,,,,,,,0.581,1,,,,,,383,NW,UN,16,guesco,AUNGRE,z,,,,,,-0.024509804,-0.132352941,0,0,0,,0,130,130,442,1,,
,,,,,,,,,,,,,,,,,,5e1ee2050c0b3120e01eeec1,2020-11-26_15h56.49.970,lexical_decision_task_MP_exp2,2020.2.5,Win32,60,z,1,0.518,,,,,,,,0.518,1,,,,,,364,NW,UN,16,guairt,IMPOTE,z,,,,,,-0.024509804,-0.132352941,0,0,0,,0,131,131,423,1,,
,,,,,,,,,,,,,,,,,,5e1ee2050c0b3120e01eeec1,2020-11-26_15h56.49.970,lexical_decision_task_MP_exp2,2020.2.5,Win32,60,m,1,0.504,,,,,,,,0.504,1,,,,,,70,WORD,UN,33,garden,SQUARE,m,,,,,,-0.024509804,-0.132352941,0,0,0,,0,132,132,129,1,,
,,,,,,,,,,,,,,,,,,5e1ee2050c0b3120e01eeec1,2020-11-26_15h56.49.970,lexical_decision_task_MP_exp2,2020.2.5,Win32,60,m,1,0.485,,,,,,,,0.485,1,,,,,,73,WORD,UN,33,plaque,SOURCE,m,,,,,,-0.024509804,-0.132352941,0,0,0,,0,133,133,132,1,,
,,,,,,,,,,,,,,,,,,5e1ee2050c0b3120e01eeec1,2020-11-26_15h56.49.970,lexical_decision_task_MP_exp2,2020.2.5,Win32,60,m,1,0.483,,,,,,,,0.483,1,,,,,,81,WORD,UN,33,stigma,FRIEND,m,,,,,,-0.024509804,-0.132352941,0,0,0,,0,134,134,140,1,,
,,,,,,,,,,,,,,,,,,5e1ee2050c0b3120e01eeec1,2020-11-26_15h56.49.970,lexical_decision_task_MP_exp2,2020.2.5,Win32,60,m,1,0.502,,,,,,,,0.502,1,,,,,,111,WORD,UN,33,breath,INDUCE,m,,,,,,-0.024509804,-0.132352941,0,0,0,,0,135,135,170,1,,
,,,,,,,,,,,,,,,,,,5e1ee2050c0b3120e01eeec1,2020-11-26_15h56.49.970,lexical_decision_task_MP_exp2,2020.2.5,Win32,60,m,1,0.537,,,,,,,,0.537,1,,,,,,187,WORD,"ID",33,course,COURSE,m,,,,,,-0.024509804,-0.132352941,0,0,0,,0,136,136,6,1,,
,,,,,,,,,,,,,,,,,,5e1ee2050c0b3120e01eeec1,2020-11-26_15h56.49.970,lexical_decision_task_MP_exp2,2020.2.5,Win32,60,z,1,0.612,,,,,,,,0.612,1,,,,,,253,NW,"ID",16,resait,RESAIT,z,,,,,,-0.024509804,-0.132352941,0,0,0,,0,137,137,312,1,,
,,,,,,,,,,,,,,,,,,5e1ee2050c0b3120e01eeec1,2020-11-26_15h56.49.970,lexical_decision_task_MP_exp2,2020.2.5,Win32,60,m,1,0.586,,,,,,,,0.586,1,,,,,,166,WORD,UN,16,design,STARCH,m,,,,,,-0.024509804,-0.132352941,0,0,0,,0,138,138,225,1,,
,,,,,,,,,,,,,,,,,,5e1ee2050c0b3120e01eeec1,2020-11-26_15h56.49.970,lexical_decision_task_MP_exp2,2020.2.5,Win32,60,m,1,0.603,,,,,,,,0.603,1,,,,,,122,WORD,UN,16,strike,LINGER,m,,,,,,-0.024509804,-0.132352941,0,0,0,,0,139,139,181,1,,
,,,,,,,,,,,,,,,,,,5e1ee2050c0b3120e01eeec1,2020-11-26_15h56.49.970,lexical_decision_task_MP_exp2,2020.2.5,Win32,60,z,1,0.629,,,,,,,,0.629,1,,,,,,353,NW,UN,33,virlex,CLUREY,z,,,,,,-0.024509804,-0.132352941,0,0,0,,0,140,140,412,1,,
,,,,,,,,,,,,,,,,,,5e1ee2050c0b3120e01eeec1,2020-11-26_15h56.49.970,lexical_decision_task_MP_exp2,2020.2.5,Win32,60,z,1,0.606,,,,,,,,0.606,1,,,,,,463,NW,"ID",33,kispel,KISPEL,z,,,,,,-0.024509804,-0.132352941,0,0,0,,0,141,141,282,1,,
,,,,,,,,,,,,,,,,,,5e1ee2050c0b3120e01eeec1,2020-11-26_15h56.49.970,lexical_decision_task_MP_exp2,2020.2.5,Win32,60,z,1,0.672,,,,,,,,0.672,1,,,,,,275,NW,"ID",16,sleirt,SLEIRT,z,,,,,,-0.024509804,-0.132352941,0,0,0,,0,142,142,334,1,,
,,,,,,,,,,,,,,,,,,5e1ee2050c0b3120e01eeec1,2020-11-26_15h56.49.970,lexical_decision_task_MP_exp2,2020.2.5,Win32,60,m,1,0.585,,,,,,,,0.585,1,,,,,,33,WORD,"ID",16,butler,BUTLER,m,,,,,,-0.024509804,-0.132352941,0,0,0,,0,143,143,92,1,,
,,,,,,,,,,,,,,,,,,5e1ee2050c0b3120e01eeec1,2020-11-26_15h56.49.970,lexical_decision_task_MP_exp2,2020.2.5,Win32,60,z,1,0.534,,,,,,,,0.534,1,,,,,,272,NW,"ID",16,damilt,DAMILT,z,,,,,,-0.024509804,-0.132352941,0,0,0,,0,144,144,331,1,,
,,,,,,,,,,,,,,,,,,5e1ee2050c0b3120e01eeec1,2020-11-26_15h56.49.970,lexical_decision_task_MP_exp2,2020.2.5,Win32,60,m,1,0.649,,,,,,,,0.649,1,,,,,,29,WORD,"ID",16,sketch,SKETCH,m,,,,,,-0.024509804,-0.132352941,0,0,0,,0,145,145,88,1,,
,,,,,,,,,,,,,,,,,,5e1ee2050c0b3120e01eeec1,2020-11-26_15h56.49.970,lexical_decision_task_MP_exp2,2020.2.5,Win32,60,m,1,0.598,,,,,,,,0.598,1,,,,,,101,WORD,UN,33,direct,WRENCH,m,,,,,,-0.024509804,-0.132352941,0,0,0,,0,146,146,160,1,,
,,,,,,,,,,,,,,,,,,5e1ee2050c0b3120e01eeec1,2020-11-26_15h56.49.970,lexical_decision_task_MP_exp2,2020.2.5,Win32,60,z,1,0.586,,,,,,,,0.586,1,,,,,,384,NW,UN,16,injore,GUESCO,z,,,,,,-0.024509804,-0.132352941,0,0,0,,0,147,147,443,1,,
,,,,,,,,,,,,,,,,,,5e1ee2050c0b3120e01eeec1,2020-11-26_15h56.49.970,lexical_decision_task_MP_exp2,2020.2.5,Win32,60,m,1,0.552,,,,,,,,0.552,1,,,,,,91,WORD,UN,33,hunger,EXPAND,m,,,,,,-0.024509804,-0.132352941,0,0,0,,0,148,148,150,1,,
,,,,,,,,,,,,,,,,,,5e1ee2050c0b3120e01eeec1,2020-11-26_15h56.49.970,lexical_decision_task_MP_exp2,2020.2.5,Win32,60,m,1,0.521,,,,,,,,0.521,1,,,,,,88,WORD,UN,33,permit,HUNGER,m,,,,,,-0.024509804,-0.132352941,0,0,0,,0,149,149,147,1,,
,,,,,,,,,,,,,,,,,,5e1ee2050c0b3120e01eeec1,2020-11-26_15h56.49.970,lexical_decision_task_MP_exp2,2020.2.5,Win32,60,z,1,0.577,,,,,,,,0.577,1,,,,,,428,NW,"ID",33,tandly,TANDLY,z,,,,,,-0.024509804,-0.132352941,0,0,0,,0,150,150,247,1,,
,,,,,,,,,,,,,,,,,,5e1ee2050c0b3120e01eeec1,2020-11-26_15h56.49.970,lexical_decision_task_MP_exp2,2020.2.5,Win32,60,m,1,0.633,,,,,,,,0.633,1,,,,,,213,WORD,"ID",33,squeal,SQUEAL,m,,,,,,-0.024509804,-0.132352941,0,0,0,,0,151,151,32,1,,
,,,,,,,,,,,,,,,,,,5e1ee2050c0b3120e01eeec1,2020-11-26_15h56.49.970,lexical_decision_task_MP_exp2,2020.2.5,Win32,60,m,1,0.52,,,,,,,,0.52,1,,,,,,224,WORD,"ID",33,period,PERIOD,m,,,,,,-0.024509804,-0.132352941,0,0,0,,0,152,152,43,1,,
,,,,,,,,,,,,,,,,,,5e1ee2050c0b3120e01eeec1,2020-11-26_15h56.49.970,lexical_decision_task_MP_exp2,2020.2.5,Win32,60,z,1,1.28,,,,,,,,1.28,1,,,,,,357,NW,UN,33,fleack,DERAIN,z,,,,,,-0.024509804,-0.132352941,0,0,0,,0,153,153,416,1,,
,,,,,,,,,,,,,,,,,,5e1ee2050c0b3120e01eeec1,2020-11-26_15h56.49.970,lexical_decision_task_MP_exp2,2020.2.5,Win32,60,m,1,1.135,,,,,,,,1.135,1,,,,,,142,WORD,UN,16,reason,SPRUCE,m,,,,,,-0.024509804,-0.132352941,0,0,0,,0,154,154,201,1,,
,,,,,,,,,,,,,,,,,,5e1ee2050c0b3120e01eeec1,2020-11-26_15h56.49.970,lexical_decision_task_MP_exp2,2020.2.5,Win32,60,,0,,,,,,,,,1.135,-1,,,,,,413,NW,UN,16,serbol,EQUATS,z,,,,,,-0.024509804,-0.132352941,0,0,0,,0,155,155,472,1,,
,,,,,,,,,,,,,,,,,,5e1ee2050c0b3120e01eeec1,2020-11-26_15h56.49.970,lexical_decision_task_MP_exp2,2020.2.5,Win32,60,z,1,0.756,,,,,,,,0.756,1,,,,,,389,NW,UN,16,hatrus,WITMER,z,,,,,,-0.024509804,-0.132352941,0,0,0,,0,156,156,448,1,,
,,,,,,,,,,,,,,,,,,5e1ee2050c0b3120e01eeec1,2020-11-26_15h56.49.970,lexical_decision_task_MP_exp2,2020.2.5,Win32,60,z,1,0.484,,,,,,,,0.484,1,,,,,,461,NW,"ID",33,justre,JUSTRE,z,,,,,,-0.024509804,-0.132352941,0,0,0,,0,157,157,280,1,,
,,,,,,,,,,,,,,,,,,5e1ee2050c0b3120e01eeec1,2020-11-26_15h56.49.970,lexical_decision_task_MP_exp2,2020.2.5,Win32,60,z,1,0.619,,,,,,,,0.619,1,,,,,,373,NW,UN,16,sliant,BIGENT,z,,,,,,-0.024509804,-0.132352941,0,0,0,,0,158,158,432,1,,
,,,,,,,,,,,,,,,,,,5e1ee2050c0b3120e01eeec1,2020-11-26_15h56.49.970,lexical_decision_task_MP_exp2,2020.2.5,Win32,60,m,1,0.635,,,,,,,,0.635,1,,,,,,107,WORD,UN,33,reckon,SLOGAN,m,,,,,,-0.024509804,-0.132352941,0,0,0,,0,159,159,166,1,,
,,,,,,,,,,,,,,,,,,5e1ee2050c0b3120e01eeec1,2020-11-26_15h56.49.970,lexical_decision_task_MP_exp2,2020.2.5,Win32,60,z,1,0.704,,,,,,,,0.704,1,,,,,,454,NW,"ID",33,scouge,SCOUGE,z,,,,,,-0.024509804,-0.132352941,0,0,0,,0,160,160,273,1,,
,,,,,,,,,,,,,,,,,,5e1ee2050c0b3120e01eeec1,2020-11-26_15h56.49.970,lexical_decision_task_MP_exp2,2020.2.5,Win32,60,z,1,0.479,,,,,,,,0.479,1,,,,,,290,NW,"ID",16,splino,SPLINO,z,,,,,,-0.024509804,-0.132352941,0,0,0,,0,161,161,349,1,,
,,,,,,,,,,,,,,,,,,5e1ee2050c0b3120e01eeec1,2020-11-26_15h56.49.970,lexical_decision_task_MP_exp2,2020.2.5,Win32,60,z,1,0.467,,,,,,,,0.467,1,,,,,,310,NW,UN,33,sproly,DANIET,z,,,,,,-0.024509804,-0.132352941,0,0,0,,0,162,162,369,1,,
,,,,,,,,,,,,,,,,,,5e1ee2050c0b3120e01eeec1,2020-11-26_15h56.49.970,lexical_decision_task_MP_exp2,2020.2.5,Win32,60,m,1,0.55,,,,,,,,0.55,1,,,,,,226,WORD,"ID",33,casino,CASINO,m,,,,,,-0.024509804,-0.132352941,0,0,0,,0,163,163,45,1,,
,,,,,,,,,,,,,,,,,,5e1ee2050c0b3120e01eeec1,2020-11-26_15h56.49.970,lexical_decision_task_MP_exp2,2020.2.5,Win32,60,z,1,0.684,,,,,,,,0.684,1,,,,,,308,NW,UN,33,amiloy,PSETCH,z,,,,,,-0.024509804,-0.132352941,0,0,0,,0,164,164,367,1,,
,,,,,,,,,,,,,,,,,,5e1ee2050c0b3120e01eeec1,2020-11-26_15h56.49.970,lexical_decision_task_MP_exp2,2020.2.5,Win32,60,z,1,0.63,,,,,,,,0.63,1,,,,,,443,NW,"ID",33,dorsex,DORSEX,z,,,,,,-0.024509804,-0.132352941,0,0,0,,0,165,165,262,1,,
,,,,,,,,,,,,,,,,,,5e1ee2050c0b3120e01eeec1,2020-11-26_15h56.49.970,lexical_decision_task_MP_exp2,2020.2.5,Win32,60,z,1,0.532,,,,,,,,0.532,1,,,,,,341,NW,UN,33,randow,MYRTIE,z,,,,,,-0.024509804,-0.132352941,0,0,0,,0,166,166,400,1,,
,,,,,,,,,,,,,,,,,,5e1ee2050c0b3120e01eeec1,2020-11-26_15h56.49.970,lexical_decision_task_MP_exp2,2020.2.5,Win32,60,m,1,0.562,,,,,,,,0.562,1,,,,,,219,WORD,"ID",33,bucket,BUCKET,m,,,,,,-0.024509804,-0.132352941,0,0,0,,0,167,167,38,1,,
,,,,,,,,,,,,,,,,,,5e1ee2050c0b3120e01eeec1,2020-11-26_15h56.49.970,lexical_decision_task_MP_exp2,2020.2.5,Win32,60,z,1,0.823,,,,,,,,0.823,1,,,,,,260,NW,"ID",16,unject,UNJECT,z,,,,,,-0.022875817,-0.132352941,0,0,0,,0,168,168,319,1,,
,,,,,,,,,,,,,,,,,,5e1ee2050c0b3120e01eeec1,2020-11-26_15h56.49.970,lexical_decision_task_MP_exp2,2020.2.5,Win32,60,z,1,0.825,,,,,,,,0.825,1,,,,,,268,NW,"ID",16,packes,PACKES,z,,,,,,-0.022875817,-0.133986928,0,0,0,,0,169,169,327,1,,
,,,,,,,,,,,,,,,,,,5e1ee2050c0b3120e01eeec1,2020-11-26_15h56.49.970,lexical_decision_task_MP_exp2,2020.2.5,Win32,60,z,1,0.567,,,,,,,,0.567,1,,,,,,323,NW,UN,33,steikh,ROSAIL,z,,,,,,-0.02124183,-0.140522876,0,0,0,,0,170,170,382,1,,
,,,,,,,,,,,,,,,,,,5e1ee2050c0b3120e01eeec1,2020-11-26_15h56.49.970,lexical_decision_task_MP_exp2,2020.2.5,Win32,60,z,1,0.529,,,,,,,,0.529,1,,,,,,321,NW,UN,33,slanch,MIATOR,z,,,,,,-0.02124183,-0.140522876,0,0,0,,0,171,171,380,1,,
,,,,,,,,,,,,,,,,,,5e1ee2050c0b3120e01eeec1,2020-11-26_15h56.49.970,lexical_decision_task_MP_exp2,2020.2.5,Win32,60,m,1,0.541,,,,,,,,0.541,1,,,,,,130,WORD,UN,16,quench,STUPID,m,,,,,,-0.019607843,-0.137254902,0,0,0,,0,172,172,189,1,,
,,,,,,,,,,,,,,,,,,5e1ee2050c0b3120e01eeec1,2020-11-26_15h56.49.970,lexical_decision_task_MP_exp2,2020.2.5,Win32,60,z,0,0.541,,,,,,,,0.541,0,,,,,,158,WORD,UN,16,detail,ISLAND,m,,,,,,-0.014705882,-0.147058824,0,0,0,,0,173,173,217,1,,
,,,,,,,,,,,,,,,,,,5e1ee2050c0b3120e01eeec1,2020-11-26_15h56.49.970,lexical_decision_task_MP_exp2,2020.2.5,Win32,60,z,1,0.684,,,,,,,,0.684,1,,,,,,440,NW,"ID",33,saride,SARIDE,z,,,,,,-0.014705882,-0.14869281,0,0,0,,0,174,174,259,1,,
,,,,,,,,,,,,,,,,,,5e1ee2050c0b3120e01eeec1,2020-11-26_15h56.49.970,lexical_decision_task_MP_exp2,2020.2.5,Win32,60,z,1,0.64,,,,,,,,0.64,1,,,,,,289,NW,"ID",16,starby,STARBY,z,,,,,,-0.014705882,-0.14869281,0,0,0,,0,175,175,348,1,,
,,,,,,,,,,,,,,,,,,5e1ee2050c0b3120e01eeec1,2020-11-26_15h56.49.970,lexical_decision_task_MP_exp2,2020.2.5,Win32,60,z,1,0.69,,,,,,,,0.69,1,,,,,,243,NW,"ID",16,musied,MUSIED,z,,,,,,-0.014705882,-0.14869281,0,0,0,,0,176,176,302,1,,
,,,,,,,,,,,,,,,,,,5e1ee2050c0b3120e01eeec1,2020-11-26_15h56.49.970,lexical_decision_task_MP_exp2,2020.2.5,Win32,60,z,1,0.653,,,,,,,,0.653,1,,,,,,438,NW,"ID",33,baitch,BAITCH,z,,,,,,-0.014705882,-0.14869281,0,0,0,,0,177,177,257,1,,
,,,,,,,,,,,,,,,,,,5e1ee2050c0b3120e01eeec1,2020-11-26_15h56.49.970,lexical_decision_task_MP_exp2,2020.2.5,Win32,60,z,1,0.657,,,,,,,,0.657,1,,,,,,266,NW,"ID",16,varmit,VARMIT,z,,,,,,-0.014705882,-0.14869281,0,0,0,,0,178,178,325,1,,
,,,,,,,,,,,,,,,,,,5e1ee2050c0b3120e01eeec1,2020-11-26_15h56.49.970,lexical_decision_task_MP_exp2,2020.2.5,Win32,60,m,1,0.818,,,,,,,,0.818,1,,,,,,176,WORD,UN,16,advent,STRIFE,m,,,,,,-0.014705882,-0.14869281,0,0,0,,0,179,179,235,1,,
,,,,,,,,,,,,,,,,,,5e1ee2050c0b3120e01eeec1,2020-11-26_15h56.49.970,lexical_decision_task_MP_exp2,2020.2.5,Win32,60,m,1,0.482,,,,,,,,0.482,1,,,,,,162,WORD,UN,16,string,CANDLE,m,,,,,,-0.019607843,-0.137254902,0,0,0,,0,180,180,221,1,,
,,,,,,,,,,,,,,,,,,5e1ee2050c0b3120e01eeec1,2020-11-26_15h56.49.970,lexical_decision_task_MP_exp2,2020.2.5,Win32,60,z,1,0.633,,,,,,,,0.633,1,,,,,,365,NW,UN,16,toshel,GUAIRT,z,,,,,,-0.014705882,-0.14869281,0,0,0,,0,181,181,424,1,,
,,,,,,,,,,,,,,,,,,5e1ee2050c0b3120e01eeec1,2020-11-26_15h56.49.970,lexical_decision_task_MP_exp2,2020.2.5,Win32,60,z,0,0.57,,,,,,,,0.57,0,,,,,,103,WORD,UN,33,studio,BOUNCE,m,,,,,,-0.014705882,-0.14869281,0,0,0,,0,182,182,162,1,,
,,,,,,,,,,,,,,,,,,5e1ee2050c0b3120e01eeec1,2020-11-26_15h56.49.970,lexical_decision_task_MP_exp2,2020.2.5,Win32,60,m,1,0.606,,,,,,,,0.606,1,,,,,,92,WORD,UN,33,public,STRAND,m,,,,,,-0.014705882,-0.14869281,0,0,0,,0,183,183,151,1,,
,,,,,,,,,,,,,,,,,,5e1ee2050c0b3120e01eeec1,2020-11-26_15h56.49.970,lexical_decision_task_MP_exp2,2020.2.5,Win32,60,z,1,0.699,,,,,,,,0.699,1,,,,,,447,NW,"ID",33,gircue,GIRCUE,z,,,,,,-0.011437908,-0.153594771,0,0,0,,0,184,184,266,1,,
,,,,,,,,,,,,,,,,,,5e1ee2050c0b3120e01eeec1,2020-11-26_15h56.49.970,lexical_decision_task_MP_exp2,2020.2.5,Win32,60,z,1,1.119,,,,,,,,1.119,1,,,,,,358,NW,UN,33,fonver,FLEACK,z,,,,,,-0.011437908,-0.155228758,0,0,0,,0,185,185,417,1,,
,,,,,,,,,,,,,,,,,,5e1ee2050c0b3120e01eeec1,2020-11-26_15h56.49.970,lexical_decision_task_MP_exp2,2020.2.5,Win32,60,z,1,0.533,,,,,,,,0.533,1,,,,,,340,NW,UN,33,myrtie,FIATCH,z,,,,,,-0.011437908,-0.155228758,0,0,0,,0,186,186,399,1,,
,,,,,,,,,,,,,,,,,,5e1ee2050c0b3120e01eeec1,2020-11-26_15h56.49.970,lexical_decision_task_MP_exp2,2020.2.5,Win32,60,z,1,0.588,,,,,,,,0.588,1,,,,,,427,NW,"ID",33,schind,SCHIND,z,,,,,,-0.011437908,-0.155228758,0,0,0,,0,187,187,246,1,,
,,,,,,,,,,,,,,,,,,5e1ee2050c0b3120e01eeec1,2020-11-26_15h56.49.970,lexical_decision_task_MP_exp2,2020.2.5,Win32,60,z,1,0.571,,,,,,,,0.571,1,,,,,,387,NW,UN,16,cragin,GRONCE,z,,,,,,-0.011437908,-0.155228758,0,0,0,,0,188,188,446,1,,
,,,,,,,,,,,,,,,,,,5e1ee2050c0b3120e01eeec1,2020-11-26_15h56.49.970,lexical_decision_task_MP_exp2,2020.2.5,Win32,60,m,1,0.555,,,,,,,,0.555,1,,,,,,148,WORD,UN,16,invade,CUSTOM,m,,,,,,-0.011437908,-0.155228758,0,0,0,,0,189,189,207,1,,
,,,,,,,,,,,,,,,,,,5e1ee2050c0b3120e01eeec1,2020-11-26_15h56.49.970,lexical_decision_task_MP_exp2,2020.2.5,Win32,60,m,1,0.502,,,,,,,,0.502,1,,,,,,132,WORD,UN,16,orphan,STRONG,m,,,,,,-0.009803922,-0.158496732,0,0,0,,0,190,190,191,1,,
,,,,,,,,,,,,,,,,,,5e1ee2050c0b3120e01eeec1,2020-11-26_15h56.49.970,lexical_decision_task_MP_exp2,2020.2.5,Win32,60,m,1,0.535,,,,,,,,0.535,1,,,,,,207,WORD,"ID",33,wreath,WREATH,m,,,,,,-0.008169935,-0.161764706,0,0,0,,0,191,191,26,1,,
,,,,,,,,,,,,,,,,,,5e1ee2050c0b3120e01eeec1,2020-11-26_15h56.49.970,lexical_decision_task_MP_exp2,2020.2.5,Win32,60,m,1,0.879,,,,,,,,0.879,1,,,,,,16,WORD,"ID",16,faucet,FAUCET,m,,,,,,-0.008169935,-0.161764706,0,0,0,,0,192,192,75,1,,
,,,,,,,,,,,,,,,,,,5e1ee2050c0b3120e01eeec1,2020-11-26_15h56.49.970,lexical_decision_task_MP_exp2,2020.2.5,Win32,60,z,1,0.756,,,,,,,,0.756,1,,,,,,248,NW,"ID",16,strole,STROLE,z,,,,,,-0.004901961,-0.16503268,0,0,0,,0,193,193,307,1,,
,,,,,,,,,,,,,,,,,,5e1ee2050c0b3120e01eeec1,2020-11-26_15h56.49.970,lexical_decision_task_MP_exp2,2020.2.5,Win32,60,z,1,0.672,,,,,,,,0.672,1,,,,,,295,NW,"ID",16,gleath,GLEATH,z,,,,,,-0.004901961,-0.163398693,0,0,0,,0,194,194,354,1,,
,,,,,,,,,,,,,,,,,,5e1ee2050c0b3120e01eeec1,2020-11-26_15h56.49.970,lexical_decision_task_MP_exp2,2020.2.5,Win32,60,z,1,0.551,,,,,,,,0.551,1,,,,,,309,NW,UN,33,daniet,AMILOY,z,,,,,,-0.004901961,-0.163398693,0,0,0,,0,195,195,368,1,,
,,,,,,,,,,,,,,,,,,5e1ee2050c0b3120e01eeec1,2020-11-26_15h56.49.970,lexical_decision_task_MP_exp2,2020.2.5,Win32,60,z,1,0.536,,,,,,,,0.536,1,,,,,,418,NW,UN,16,slount,SUIDLE,z,,,,,,-0.004901961,-0.161764706,0,0,0,,0,196,196,477,1,,
,,,,,,,,,,,,,,,,,,5e1ee2050c0b3120e01eeec1,2020-11-26_15h56.49.970,lexical_decision_task_MP_exp2,2020.2.5,Win32,60,m,1,0.686,,,,,,,,0.686,1,,,,,,195,WORD,"ID",33,resign,RESIGN,m,,,,,,-0.008169935,-0.153594771,0,0,0,,0,197,197,14,1,,
,,,,,,,,,,,,,,,,,,5e1ee2050c0b3120e01eeec1,2020-11-26_15h56.49.970,lexical_decision_task_MP_exp2,2020.2.5,Win32,60,m,1,0.538,,,,,,,,0.538,1,,,,,,83,WORD,UN,33,mortal,RESULT,m,,,,,,-0.006535948,-0.160130719,0,0,0,,0,198,198,142,1,,
,,,,,,,,,,,,,,,,,,5e1ee2050c0b3120e01eeec1,2020-11-26_15h56.49.970,lexical_decision_task_MP_exp2,2020.2.5,Win32,60,m,1,0.5,,,,,,,,0.5,1,,,,,,55,WORD,"ID",16,stroke,STROKE,m,,,,,,-0.003267974,-0.160130719,0,0,0,,0,199,199,114,1,,
,,,,,,,,,,,,,,,,,,5e1ee2050c0b3120e01eeec1,2020-11-26_15h56.49.970,lexical_decision_task_MP_exp2,2020.2.5,Win32,60,m,1,0.54,,,,,,,,0.54,1,,,,,,110,WORD,UN,33,induce,POLITE,m,,,,,,-0.001633987,-0.16503268,0,0,0,,0,200,200,169,1,,
,,,,,,,,,,,,,,,,,,5e1ee2050c0b3120e01eeec1,2020-11-26_15h56.49.970,lexical_decision_task_MP_exp2,2020.2.5,Win32,60,m,1,0.633,,,,,,,,0.633,1,,,,,,40,WORD,"ID",16,convey,CONVEY,m,,,,,,-0.003267974,-0.163398693,0,0,0,,0,201,201,99,1,,
,,,,,,,,,,,,,,,,,,5e1ee2050c0b3120e01eeec1,2020-11-26_15h56.49.970,lexical_decision_task_MP_exp2,2020.2.5,Win32,60,m,1,0.485,,,,,,,,0.485,1,,,,,,223,WORD,"ID",33,kidney,KIDNEY,m,,,,,,0,-0.16503268,0,0,0,,0,202,202,42,1,,
,,,,,,,,,,,,,,,,,,5e1ee2050c0b3120e01eeec1,2020-11-26_15h56.49.970,lexical_decision_task_MP_exp2,2020.2.5,Win32,60,m,1,0.519,,,,,,,,0.519,1,,,,,,113,WORD,UN,33,placid,CHORUS,m,,,,,,0,-0.171568627,0,0,0,,0,203,203,172,1,,
,,,,,,,,,,,,,,,,,,5e1ee2050c0b3120e01eeec1,2020-11-26_15h56.49.970,lexical_decision_task_MP_exp2,2020.2.5,Win32,60,z,1,0.549,,,,,,,,0.549,1,,,,,,332,NW,UN,33,catrie,VANGUE,z,,,,,,0.004901961,-0.178104575,0,0,0,,0,204,204,391,1,,
,,,,,,,,,,,,,,,,,,5e1ee2050c0b3120e01eeec1,2020-11-26_15h56.49.970,lexical_decision_task_MP_exp2,2020.2.5,Win32,60,m,1,0.633,,,,,,,,0.633,1,,,,,,156,WORD,UN,16,depart,CRADLE,m,,,,,,0.004901961,-0.178104575,0,0,0,,0,205,205,215,1,,
,,,,,,,,,,,,,,,,,,5e1ee2050c0b3120e01eeec1,2020-11-26_15h56.49.970,lexical_decision_task_MP_exp2,2020.2.5,Win32,60,m,0,0.537,,,,,,,,0.537,0,,,,,,399,NW,UN,16,wearox,FOURET,z,,,,,,0.006535948,-0.181372549,0,0,0,,0,206,206,458,1,,
,,,,,,,,,,,,,,,,,,5e1ee2050c0b3120e01eeec1,2020-11-26_15h56.49.970,lexical_decision_task_MP_exp2,2020.2.5,Win32,60,m,1,0.77,,,,,,,,0.77,1,,,,,,26,WORD,"ID",16,sprint,SPRINT,m,,,,,,0.006535948,-0.181372549,0,0,0,,0,207,207,85,1,,
,,,,,,,,,,,,,,,,,,5e1ee2050c0b3120e01eeec1,2020-11-26_15h56.49.970,lexical_decision_task_MP_exp2,2020.2.5,Win32,60,z,1,0.685,,,,,,,,0.685,1,,,,,,250,NW,"ID",16,milted,MILTED,z,,,,,,0.014705882,-0.194444444,0,0,0,,0,208,208,309,1,,
,,,,,,,,,,,,,,,,,,5e1ee2050c0b3120e01eeec1,2020-11-26_15h56.49.970,lexical_decision_task_MP_exp2,2020.2.5,Win32,60,z,1,0.532,,,,,,,,0.532,1,,,,,,359,NW,UN,33,desory,FONVER,z,,,,,,0.014705882,-0.194444444,0,0,0,,0,209,209,418,1,,
,,,,,,,,,,,,,,,,,,5e1ee2050c0b3120e01eeec1,2020-11-26_15h56.49.970,lexical_decision_task_MP_exp2,2020.2.5,Win32,60,m,1,0.615,,,,,,,,0.615,1,,,,,,3,WORD,"ID",16,knight,KNIGHT,m,,,,,,0.011437908,-0.183006536,0,0,0,,0,210,210,62,1,,
,,,,,,,,,,,,,,,,,,5e1ee2050c0b3120e01eeec1,2020-11-26_15h56.49.970,lexical_decision_task_MP_exp2,2020.2.5,Win32,60,m,1,0.505,,,,,,,,0.505,1,,,,,,89,WORD,UN,33,relish,PERMIT,m,,,,,,0.016339869,-0.192810458,0,0,0,,0,211,211,148,1,,
,,,,,,,,,,,,,,,,,,5e1ee2050c0b3120e01eeec1,2020-11-26_15h56.49.970,lexical_decision_task_MP_exp2,2020.2.5,Win32,60,m,1,0.487,,,,,,,,0.487,1,,,,,,225,WORD,"ID",33,vulgar,VULGAR,m,,,,,,0.016339869,-0.192810458,0,0,0,,0,212,212,44,1,,
,,,,,,,,,,,,,,,,,,5e1ee2050c0b3120e01eeec1,2020-11-26_15h56.49.970,lexical_decision_task_MP_exp2,2020.2.5,Win32,60,m,1,1.009,,,,,,,,1.009,1,,,,,,164,WORD,UN,16,invest,MARKET,m,,,,,,0.017973856,-0.194444444,0,0,0,,0,213,213,223,1,,
,,,,,,,,,,,,,,,,,,5e1ee2050c0b3120e01eeec1,2020-11-26_15h56.49.970,lexical_decision_task_MP_exp2,2020.2.5,Win32,60,m,1,0.469,,,,,,,,0.469,1,,,,,,210,WORD,"ID",33,monkey,MONKEY,m,,,,,,0.02124183,-0.184640523,0,0,0,,0,214,214,29,1,,
,,,,,,,,,,,,,,,,,,5e1ee2050c0b3120e01eeec1,2020-11-26_15h56.49.970,lexical_decision_task_MP_exp2,2020.2.5,Win32,60,z,0,0.516,,,,,,,,0.516,0,,,,,,145,WORD,UN,16,couple,PARISH,m,,,,,,0.02124183,-0.192810458,0,0,0,,0,215,215,204,1,,
,,,,,,,,,,,,,,,,,,5e1ee2050c0b3120e01eeec1,2020-11-26_15h56.49.970,lexical_decision_task_MP_exp2,2020.2.5,Win32,60,m,1,0.599,,,,,,,,0.599,1,,,,,,139,WORD,UN,16,prince,DEBRIS,m,,,,,,0.02124183,-0.187908497,0,0,0,,0,216,216,198,1,,
,,,,,,,,,,,,,,,,,,5e1ee2050c0b3120e01eeec1,2020-11-26_15h56.49.970,lexical_decision_task_MP_exp2,2020.2.5,Win32,60,m,1,0.515,,,,,,,,0.515,1,,,,,,160,WORD,UN,16,pastor,VIOLET,m,,,,,,0.02124183,-0.187908497,0,0,0,,0,217,217,219,1,,
,,,,,,,,,,,,,,,,,,5e1ee2050c0b3120e01eeec1,2020-11-26_15h56.49.970,lexical_decision_task_MP_exp2,2020.2.5,Win32,60,m,1,0.45,,,,,,,,0.45,1,,,,,,102,WORD,UN,33,bounce,DIRECT,m,,,,,,0.02124183,-0.189542484,0,0,0,,0,218,218,161,1,,
,,,,,,,,,,,,,,,,,,5e1ee2050c0b3120e01eeec1,2020-11-26_15h56.49.970,lexical_decision_task_MP_exp2,2020.2.5,Win32,60,m,1,0.638,,,,,,,,0.638,1,,,,,,190,WORD,"ID",33,backup,BACKUP,m,,,,,,0.02124183,-0.192810458,0,0,0,,0,219,219,9,1,,
,,,,,,,,,,,,,,,,,,5e1ee2050c0b3120e01eeec1,2020-11-26_15h56.49.970,lexical_decision_task_MP_exp2,2020.2.5,Win32,60,z,1,0.669,,,,,,,,0.669,1,,,,,,368,NW,UN,16,wronch,HORNAL,z,,,,,,0.022875817,-0.196078431,0,0,0,,0,220,220,427,1,,
,,,,,,,,,,,,,,,,,,5e1ee2050c0b3120e01eeec1,2020-11-26_15h56.49.970,lexical_decision_task_MP_exp2,2020.2.5,Win32,60,z,1,0.943,,,,,,,,0.943,1,,,,,,269,NW,"ID",16,orchet,ORCHET,z,,,,,,0.022875817,-0.196078431,0,0,0,,0,221,221,328,1,,
,,,,,,,,,,,,,,,,,,5e1ee2050c0b3120e01eeec1,2020-11-26_15h56.49.970,lexical_decision_task_MP_exp2,2020.2.5,Win32,60,m,1,0.641,,,,,,,,0.641,1,,,,,,108,WORD,UN,33,wonder,RECKON,m,,,,,,0.022875817,-0.196078431,0,0,0,,0,222,222,167,1,,
,,,,,,,,,,,,,,,,,,5e1ee2050c0b3120e01eeec1,2020-11-26_15h56.49.970,lexical_decision_task_MP_exp2,2020.2.5,Win32,60,z,1,0.676,,,,,,,,0.676,1,,,,,,306,NW,UN,33,kirafe,SOUNGE,z,,,,,,0.026143791,-0.202614379,0,0,0,,0,223,223,365,1,,
,,,,,,,,,,,,,,,,,,5e1ee2050c0b3120e01eeec1,2020-11-26_15h56.49.970,lexical_decision_task_MP_exp2,2020.2.5,Win32,60,z,1,0.549,,,,,,,,0.549,1,,,,,,333,NW,UN,33,watmeg,CATRIE,z,,,,,,0.026143791,-0.204248366,0,0,0,,0,224,224,392,1,,
,,,,,,,,,,,,,,,,,,5e1ee2050c0b3120e01eeec1,2020-11-26_15h56.49.970,lexical_decision_task_MP_exp2,2020.2.5,Win32,60,z,1,0.52,,,,,,,,0.52,1,,,,,,282,NW,"ID",16,porlex,PORLEX,z,,,,,,0.026143791,-0.204248366,0,0,0,,0,225,225,341,1,,
,,,,,,,,,,,,,,,,,,5e1ee2050c0b3120e01eeec1,2020-11-26_15h56.49.970,lexical_decision_task_MP_exp2,2020.2.5,Win32,60,m,1,0.749,,,,,,,,0.749,1,,,,,,106,WORD,UN,33,slogan,RANSOM,m,,,,,,0.022875817,-0.196078431,0,0,0,,0,226,226,165,1,,
,,,,,,,,,,,,,,,,,,5e1ee2050c0b3120e01eeec1,2020-11-26_15h56.49.970,lexical_decision_task_MP_exp2,2020.2.5,Win32,60,m,1,1.865,,,,,,,,1.865,1,,,,,,240,WORD,"ID",33,forest,FOREST,m,,,,,,0.017973856,-0.197712418,0,0,0,,0,227,227,59,1,,
,,,,,,,,,,,,,,,,,,5e1ee2050c0b3120e01eeec1,2020-11-26_15h56.49.970,lexical_decision_task_MP_exp2,2020.2.5,Win32,60,m,1,0.555,,,,,,,,0.555,1,,,,,,144,WORD,UN,16,parish,SPONGE,m,,,,,,0.017973856,-0.212418301,0,0,0,,0,228,228,203,1,,
,,,,,,,,,,,,,,,,,,5e1ee2050c0b3120e01eeec1,2020-11-26_15h56.49.970,lexical_decision_task_MP_exp2,2020.2.5,Win32,60,z,1,0.521,,,,,,,,0.521,1,,,,,,337,NW,UN,33,wreash,REJOLS,z,,,,,,0.013071895,-0.205882353,0,0,0,,0,229,229,396,1,,
,,,,,,,,,,,,,,,,,,5e1ee2050c0b3120e01eeec1,2020-11-26_15h56.49.970,lexical_decision_task_MP_exp2,2020.2.5,Win32,60,z,1,0.75,,,,,,,,0.75,1,,,,,,464,NW,"ID",33,chaite,CHAITE,z,,,,,,0.011437908,-0.200980392,0,0,0,,0,230,230,283,1,,
,,,,,,,,,,,,,,,,,,5e1ee2050c0b3120e01eeec1,2020-11-26_15h56.49.970,lexical_decision_task_MP_exp2,2020.2.5,Win32,60,z,1,0.551,,,,,,,,0.551,1,,,,,,247,NW,"ID",16,blarge,BLARGE,z,,,,,,0.013071895,-0.202614379,0,0,0,,0,231,231,306,1,,
,,,,,,,,,,,,,,,,,,5e1ee2050c0b3120e01eeec1,2020-11-26_15h56.49.970,lexical_decision_task_MP_exp2,2020.2.5,Win32,60,m,1,1.334,,,,,,,,1.334,1,,,,,,51,WORD,"ID",16,hungry,HUNGRY,m,,,,,,0.011437908,-0.191176471,0,0,0,,0,232,232,110,1,,
,,,,,,,,,,,,,,,,,,5e1ee2050c0b3120e01eeec1,2020-11-26_15h56.49.970,lexical_decision_task_MP_exp2,2020.2.5,Win32,60,m,1,0.67,,,,,,,,0.67,1,,,,,,212,WORD,"ID",33,verify,VERIFY,m,,,,,,0.013071895,-0.197712418,0,0,0,,0,233,233,31,1,,
,,,,,,,,,,,,,,,,,,5e1ee2050c0b3120e01eeec1,2020-11-26_15h56.49.970,lexical_decision_task_MP_exp2,2020.2.5,Win32,60,m,1,0.435,,,,,,,,0.435,1,,,,,,204,WORD,"ID",33,burden,BURDEN,m,,,,,,0.016339869,-0.204248366,0,0,0,,0,234,234,23,1,,
,,,,,,,,,,,,,,,,,,5e1ee2050c0b3120e01eeec1,2020-11-26_15h56.49.970,lexical_decision_task_MP_exp2,2020.2.5,Win32,60,z,1,0.663,,,,,,,,0.663,1,,,,,,326,NW,UN,33,plenac,IGUADE,z,,,,,,0.019607843,-0.210784314,0,0,0,,0,235,235,385,1,,
,,,,,,,,,,,,,,,,,,5e1ee2050c0b3120e01eeec1,2020-11-26_15h56.49.970,lexical_decision_task_MP_exp2,2020.2.5,Win32,60,m,1,0.683,,,,,,,,0.683,1,,,,,,230,WORD,"ID",33,fringe,FRINGE,m,,,,,,0.019607843,-0.210784314,0,0,0,,0,236,236,49,1,,
,,,,,,,,,,,,,,,,,,5e1ee2050c0b3120e01eeec1,2020-11-26_15h56.49.970,lexical_decision_task_MP_exp2,2020.2.5,Win32,60,z,1,0.664,,,,,,,,0.664,1,,,,,,255,NW,"ID",16,apight,APIGHT,z,,,,,,0.026143791,-0.220588235,0,0,0,,0,237,237,314,1,,
,,,,,,,,,,,,,,,,,,5e1ee2050c0b3120e01eeec1,2020-11-26_15h56.49.970,lexical_decision_task_MP_exp2,2020.2.5,Win32,60,m,1,0.751,,,,,,,,0.751,1,,,,,,154,WORD,UN,16,lizard,AUTHOR,m,,,,,,0.024509804,-0.209150327,0,0,0,,0,238,238,213,1,,
,,,,,,,,,,,,,,,,,,5e1ee2050c0b3120e01eeec1,2020-11-26_15h56.49.970,lexical_decision_task_MP_exp2,2020.2.5,Win32,60,z,1,0.637,,,,,,,,0.637,1,,,,,,298,NW,"ID",16,piergy,PIERGY,z,,,,,,0.029411765,-0.218954248,0,0,0,,0,239,239,357,1,,
,,,,,,,,,,,,,,,,,,5e1ee2050c0b3120e01eeec1,2020-11-26_15h56.49.970,lexical_decision_task_MP_exp2,2020.2.5,Win32,60,m,1,0.738,,,,,,,,0.738,1,,,,,,38,WORD,"ID",16,powder,POWDER,m,,,,,,0.024509804,-0.209150327,0,0,0,,0,240,240,97,1,,
,,,,,,,,,,,,,,,,,,5e1ee2050c0b3120e01eeec1,2020-11-26_15h56.49.970,lexical_decision_task_MP_exp2,2020.2.5,Win32,60,m,1,0.456,,,,,,,,0.456,1,,,,,,84,WORD,UN,33,strand,MORTAL,m,,,,,,-0.192810458,0.473856209,0,0,0,space,0,241,241,143,1,,12.203
,,,,,,,,,,,,,,,,,,5e1ee2050c0b3120e01eeec1,2020-11-26_15h56.49.970,lexical_decision_task_MP_exp2,2020.2.5,Win32,60,z,1,1.534,,,,,,,,1.534,1,,,,,,451,NW,"ID",33,cainky,CAINKY,z,,,,,,-0.192810458,0.473856209,0,0,0,,0,242,242,270,1,,
,,,,,,,,,,,,,,,,,,5e1ee2050c0b3120e01eeec1,2020-11-26_15h56.49.970,lexical_decision_task_MP_exp2,2020.2.5,Win32,60,z,1,0.763,,,,,,,,0.763,1,,,,,,297,NW,"ID",16,fertic,FERTIC,z,,,,,,-0.192810458,0.473856209,0,0,0,,0,243,243,356,1,,
,,,,,,,,,,,,,,,,,,5e1ee2050c0b3120e01eeec1,2020-11-26_15h56.49.970,lexical_decision_task_MP_exp2,2020.2.5,Win32,60,z,1,0.478,,,,,,,,0.478,1,,,,,,458,NW,"ID",33,barcet,BARCET,z,,,,,,-0.192810458,0.473856209,0,0,0,,0,244,244,277,1,,
,,,,,,,,,,,,,,,,,,5e1ee2050c0b3120e01eeec1,2020-11-26_15h56.49.970,lexical_decision_task_MP_exp2,2020.2.5,Win32,60,m,1,0.636,,,,,,,,0.636,1,,,,,,80,WORD,UN,33,friend,FAMILY,m,,,,,,-0.192810458,0.473856209,0,0,0,,0,245,245,139,1,,
,,,,,,,,,,,,,,,,,,5e1ee2050c0b3120e01eeec1,2020-11-26_15h56.49.970,lexical_decision_task_MP_exp2,2020.2.5,Win32,60,z,1,0.491,,,,,,,,0.491,1,,,,,,446,NW,"ID",33,runamo,RUNAMO,z,,,,,,-0.192810458,0.473856209,0,0,0,,0,246,246,265,1,,
,,,,,,,,,,,,,,,,,,5e1ee2050c0b3120e01eeec1,2020-11-26_15h56.49.970,lexical_decision_task_MP_exp2,2020.2.5,Win32,60,m,1,0.555,,,,,,,,0.555,1,,,,,,206,WORD,"ID",33,tailor,TAILOR,m,,,,,,-0.192810458,0.473856209,0,0,0,,0,247,247,25,1,,
,,,,,,,,,,,,,,,,,,5e1ee2050c0b3120e01eeec1,2020-11-26_15h56.49.970,lexical_decision_task_MP_exp2,2020.2.5,Win32,60,m,1,0.575,,,,,,,,0.575,1,,,,,,100,WORD,UN,33,wrench,CARBON,m,,,,,,-0.192810458,0.473856209,0,0,0,,0,248,248,159,1,,
,,,,,,,,,,,,,,,,,,5e1ee2050c0b3120e01eeec1,2020-11-26_15h56.49.970,lexical_decision_task_MP_exp2,2020.2.5,Win32,60,m,1,0.635,,,,,,,,0.635,1,,,,,,96,WORD,UN,33,client,IGNORE,m,,,,,,-0.192810458,0.473856209,0,0,0,,0,249,249,155,1,,
,,,,,,,,,,,,,,,,,,5e1ee2050c0b3120e01eeec1,2020-11-26_15h56.49.970,lexical_decision_task_MP_exp2,2020.2.5,Win32,60,z,1,0.582,,,,,,,,0.582,1,,,,,,456,NW,"ID",33,broget,BROGET,z,,,,,,-0.192810458,0.473856209,0,0,0,,0,250,250,275,1,,
,,,,,,,,,,,,,,,,,,5e1ee2050c0b3120e01eeec1,2020-11-26_15h56.49.970,lexical_decision_task_MP_exp2,2020.2.5,Win32,60,z,1,0.618,,,,,,,,0.618,1,,,,,,378,NW,UN,16,auting,SHRILE,z,,,,,,-0.192810458,0.473856209,0,0,0,,0,251,251,437,1,,
,,,,,,,,,,,,,,,,,,5e1ee2050c0b3120e01eeec1,2020-11-26_15h56.49.970,lexical_decision_task_MP_exp2,2020.2.5,Win32,60,z,1,0.669,,,,,,,,0.669,1,,,,,,261,NW,"ID",16,stunch,STUNCH,z,,,,,,-0.192810458,0.473856209,0,0,0,,0,252,252,320,1,,
,,,,,,,,,,,,,,,,,,5e1ee2050c0b3120e01eeec1,2020-11-26_15h56.49.970,lexical_decision_task_MP_exp2,2020.2.5,Win32,60,z,0,0.471,,,,,,,,0.471,0,,,,,,35,WORD,"ID",16,socket,SOCKET,m,,,,,,-0.192810458,0.473856209,0,0,0,,0,253,253,94,1,,
,,,,,,,,,,,,,,,,,,5e1ee2050c0b3120e01eeec1,2020-11-26_15h56.49.970,lexical_decision_task_MP_exp2,2020.2.5,Win32,60,m,1,0.514,,,,,,,,0.514,1,,,,,,46,WORD,"ID",16,single,SINGLE,m,,,,,,-0.192810458,0.473856209,0,0,0,,0,254,254,105,1,,
,,,,,,,,,,,,,,,,,,5e1ee2050c0b3120e01eeec1,2020-11-26_15h56.49.970,lexical_decision_task_MP_exp2,2020.2.5,Win32,60,z,1,0.672,,,,,,,,0.672,1,,,,,,270,NW,"ID",16,wrimsy,WRIMSY,z,,,,,,-0.192810458,0.473856209,0,0,0,,0,255,255,329,1,,
,,,,,,,,,,,,,,,,,,5e1ee2050c0b3120e01eeec1,2020-11-26_15h56.49.970,lexical_decision_task_MP_exp2,2020.2.5,Win32,60,m,1,0.52,,,,,,,,0.52,1,,,,,,68,WORD,UN,33,plenty,FUMBLE,m,,,,,,-0.192810458,0.473856209,0,0,0,,0,256,256,127,1,,
,,,,,,,,,,,,,,,,,,5e1ee2050c0b3120e01eeec1,2020-11-26_15h56.49.970,lexical_decision_task_MP_exp2,2020.2.5,Win32,60,m,1,0.6,,,,,,,,0.6,1,,,,,,135,WORD,UN,16,bleach,IMPORT,m,,,,,,-0.192810458,0.473856209,0,0,0,,0,257,257,194,1,,
,,,,,,,,,,,,,,,,,,5e1ee2050c0b3120e01eeec1,2020-11-26_15h56.49.970,lexical_decision_task_MP_exp2,2020.2.5,Win32,60,z,1,0.601,,,,,,,,0.601,1,,,,,,363,NW,UN,16,impote,BREALI,z,,,,,,-0.192810458,0.473856209,0,0,0,,0,258,258,422,1,,
,,,,,,,,,,,,,,,,,,5e1ee2050c0b3120e01eeec1,2020-11-26_15h56.49.970,lexical_decision_task_MP_exp2,2020.2.5,Win32,60,m,0,0.554,,,,,,,,0.554,0,,,,,,433,NW,"ID",33,drance,DRANCE,z,,,,,,-0.192810458,0.473856209,0,0,0,,0,259,259,252,1,,
,,,,,,,,,,,,,,,,,,5e1ee2050c0b3120e01eeec1,2020-11-26_15h56.49.970,lexical_decision_task_MP_exp2,2020.2.5,Win32,60,z,1,0.617,,,,,,,,0.617,1,,,,,,318,NW,UN,33,zomber,REAGLY,z,,,,,,-0.192810458,0.473856209,0,0,0,,0,260,260,377,1,,
,,,,,,,,,,,,,,,,,,5e1ee2050c0b3120e01eeec1,2020-11-26_15h56.49.970,lexical_decision_task_MP_exp2,2020.2.5,Win32,60,m,1,0.624,,,,,,,,0.624,1,,,,,,87,WORD,UN,33,sprawl,FILTER,m,,,,,,-0.192810458,0.473856209,0,0,0,,0,261,261,146,1,,
,,,,,,,,,,,,,,,,,,5e1ee2050c0b3120e01eeec1,2020-11-26_15h56.49.970,lexical_decision_task_MP_exp2,2020.2.5,Win32,60,m,1,0.539,,,,,,,,0.539,1,,,,,,54,WORD,"ID",16,ramble,RAMBLE,m,,,,,,-0.192810458,0.473856209,0,0,0,,0,262,262,113,1,,
,,,,,,,,,,,,,,,,,,5e1ee2050c0b3120e01eeec1,2020-11-26_15h56.49.970,lexical_decision_task_MP_exp2,2020.2.5,Win32,60,m,1,0.706,,,,,,,,0.706,1,,,,,,228,WORD,"ID",33,master,MASTER,m,,,,,,-0.192810458,0.473856209,0,0,0,,0,263,263,47,1,,
,,,,,,,,,,,,,,,,,,5e1ee2050c0b3120e01eeec1,2020-11-26_15h56.49.970,lexical_decision_task_MP_exp2,2020.2.5,Win32,60,m,1,1.118,,,,,,,,1.118,1,,,,,,128,WORD,UN,16,marvel,SENIOR,m,,,,,,-0.192810458,0.473856209,0,0,0,,0,264,264,187,1,,
,,,,,,,,,,,,,,,,,,5e1ee2050c0b3120e01eeec1,2020-11-26_15h56.49.970,lexical_decision_task_MP_exp2,2020.2.5,Win32,60,z,1,1.27,,,,,,,,1.27,1,,,,,,385,NW,UN,16,ancust,VEIGMA,z,,,,,,-0.192810458,0.473856209,0,0,0,,0,265,265,444,1,,
,,,,,,,,,,,,,,,,,,5e1ee2050c0b3120e01eeec1,2020-11-26_15h56.49.970,lexical_decision_task_MP_exp2,2020.2.5,Win32,60,m,1,0.566,,,,,,,,0.566,1,,,,,,59,WORD,"ID",16,splint,SPLINT,m,,,,,,-0.192810458,0.473856209,0,0,0,,0,266,266,118,1,,
,,,,,,,,,,,,,,,,,,5e1ee2050c0b3120e01eeec1,2020-11-26_15h56.49.970,lexical_decision_task_MP_exp2,2020.2.5,Win32,60,z,1,0.659,,,,,,,,0.659,1,,,,,,388,NW,UN,16,witmer,CRAGIN,z,,,,,,-0.192810458,0.473856209,0,0,0,,0,267,267,447,1,,
,,,,,,,,,,,,,,,,,,5e1ee2050c0b3120e01eeec1,2020-11-26_15h56.49.970,lexical_decision_task_MP_exp2,2020.2.5,Win32,60,z,1,1.072,,,,,,,,1.072,1,,,,,,382,NW,UN,16,aungre,SARLEY,z,,,,,,-0.192810458,0.473856209,0,0,0,,0,268,268,441,1,,
,,,,,,,,,,,,,,,,,,5e1ee2050c0b3120e01eeec1,2020-11-26_15h56.49.970,lexical_decision_task_MP_exp2,2020.2.5,Win32,60,m,1,1.305,,,,,,,,1.305,1,,,,,,97,WORD,UN,33,belong,CLIENT,m,,,,,,-0.192810458,0.473856209,0,0,0,,0,269,269,156,1,,
,,,,,,,,,,,,,,,,,,5e1ee2050c0b3120e01eeec1,2020-11-26_15h56.49.970,lexical_decision_task_MP_exp2,2020.2.5,Win32,60,m,1,0.583,,,,,,,,0.583,1,,,,,,42,WORD,"ID",16,chapel,CHAPEL,m,,,,,,-0.192810458,0.473856209,0,0,0,,0,270,270,101,1,,
,,,,,,,,,,,,,,,,,,5e1ee2050c0b3120e01eeec1,2020-11-26_15h56.49.970,lexical_decision_task_MP_exp2,2020.2.5,Win32,60,m,1,0.52,,,,,,,,0.52,1,,,,,,13,WORD,"ID",16,strive,STRIVE,m,,,,,,-0.192810458,0.473856209,0,0,0,,0,271,271,72,1,,
,,,,,,,,,,,,,,,,,,5e1ee2050c0b3120e01eeec1,2020-11-26_15h56.49.970,lexical_decision_task_MP_exp2,2020.2.5,Win32,60,z,1,0.716,,,,,,,,0.716,1,,,,,,474,NW,"ID",33,hablin,HABLIN,z,,,,,,-0.192810458,0.473856209,0,0,0,,0,272,272,293,1,,
,,,,,,,,,,,,,,,,,,5e1ee2050c0b3120e01eeec1,2020-11-26_15h56.49.970,lexical_decision_task_MP_exp2,2020.2.5,Win32,60,z,1,0.552,,,,,,,,0.552,1,,,,,,265,NW,"ID",16,distar,DISTAR,z,,,,,,-0.192810458,0.473856209,0,0,0,,0,273,273,324,1,,
,,,,,,,,,,,,,,,,,,5e1ee2050c0b3120e01eeec1,2020-11-26_15h56.49.970,lexical_decision_task_MP_exp2,2020.2.5,Win32,60,z,1,0.514,,,,,,,,0.514,1,,,,,,420,NW,UN,16,pauche,GUSHOP,z,,,,,,-0.192810458,0.473856209,0,0,0,,0,274,274,479,1,,
,,,,,,,,,,,,,,,,,,5e1ee2050c0b3120e01eeec1,2020-11-26_15h56.49.970,lexical_decision_task_MP_exp2,2020.2.5,Win32,60,z,1,0.605,,,,,,,,0.605,1,,,,,,469,NW,"ID",33,padifs,PADIFS,z,,,,,,-0.192810458,0.473856209,0,0,0,,0,275,275,288,1,,
,,,,,,,,,,,,,,,,,,5e1ee2050c0b3120e01eeec1,2020-11-26_15h56.49.970,lexical_decision_task_MP_exp2,2020.2.5,Win32,60,m,1,0.536,,,,,,,,0.536,1,,,,,,124,WORD,UN,16,nickel,BLOUSE,m,,,,,,-0.192810458,0.473856209,0,0,0,,0,276,276,183,1,,
,,,,,,,,,,,,,,,,,,5e1ee2050c0b3120e01eeec1,2020-11-26_15h56.49.970,lexical_decision_task_MP_exp2,2020.2.5,Win32,60,m,1,0.457,,,,,,,,0.457,1,,,,,,104,WORD,UN,33,number,STUDIO,m,,,,,,-0.192810458,0.473856209,0,0,0,,0,277,277,163,1,,
,,,,,,,,,,,,,,,,,,5e1ee2050c0b3120e01eeec1,2020-11-26_15h56.49.970,lexical_decision_task_MP_exp2,2020.2.5,Win32,60,m,1,0.453,,,,,,,,0.453,1,,,,,,2,WORD,"ID",16,bridge,BRIDGE,m,,,,,,-0.192810458,0.473856209,0,0,0,,0,278,278,61,1,,
,,,,,,,,,,,,,,,,,,5e1ee2050c0b3120e01eeec1,2020-11-26_15h56.49.970,lexical_decision_task_MP_exp2,2020.2.5,Win32,60,m,1,0.484,,,,,,,,0.484,1,,,,,,112,WORD,UN,33,chorus,BREATH,m,,,,,,-0.192810458,0.473856209,0,0,0,,0,279,279,171,1,,
,,,,,,,,,,,,,,,,,,5e1ee2050c0b3120e01eeec1,2020-11-26_15h56.49.970,lexical_decision_task_MP_exp2,2020.2.5,Win32,60,z,1,0.537,,,,,,,,0.537,1,,,,,,391,NW,UN,16,rouncy,THELDY,z,,,,,,-0.192810458,0.473856209,0,0,0,,0,280,280,450,1,,
,,,,,,,,,,,,,,,,,,5e1ee2050c0b3120e01eeec1,2020-11-26_15h56.49.970,lexical_decision_task_MP_exp2,2020.2.5,Win32,60,z,0,0.364,,,,,,,,0.364,0,,,,,,215,WORD,"ID",33,phobia,PHOBIA,m,,,,,,-0.192810458,0.473856209,0,0,0,,0,281,281,34,1,,
,,,,,,,,,,,,,,,,,,5e1ee2050c0b3120e01eeec1,2020-11-26_15h56.49.970,lexical_decision_task_MP_exp2,2020.2.5,Win32,60,z,1,0.649,,,,,,,,0.649,1,,,,,,324,NW,UN,33,thruse,STEIKH,z,,,,,,-0.192810458,0.473856209,0,0,0,,0,282,282,383,1,,
,,,,,,,,,,,,,,,,,,5e1ee2050c0b3120e01eeec1,2020-11-26_15h56.49.970,lexical_decision_task_MP_exp2,2020.2.5,Win32,60,z,1,0.599,,,,,,,,0.599,1,,,,,,371,NW,UN,16,ramily,GEILOY,z,,,,,,-0.192810458,0.473856209,0,0,0,,0,283,283,430,1,,
,,,,,,,,,,,,,,,,,,5e1ee2050c0b3120e01eeec1,2020-11-26_15h56.49.970,lexical_decision_task_MP_exp2,2020.2.5,Win32,60,z,1,0.637,,,,,,,,0.637,1,,,,,,244,NW,"ID",16,eatric,EATRIC,z,,,,,,-0.192810458,0.473856209,0,0,0,,0,284,284,303,1,,
,,,,,,,,,,,,,,,,,,5e1ee2050c0b3120e01eeec1,2020-11-26_15h56.49.970,lexical_decision_task_MP_exp2,2020.2.5,Win32,60,z,1,0.856,,,,,,,,0.856,1,,,,,,284,NW,"ID",16,shaple,SHAPLE,z,,,,,,-0.192810458,0.473856209,0,0,0,,0,285,285,343,1,,
,,,,,,,,,,,,,,,,,,5e1ee2050c0b3120e01eeec1,2020-11-26_15h56.49.970,lexical_decision_task_MP_exp2,2020.2.5,Win32,60,m,1,0.493,,,,,,,,0.493,1,,,,,,179,WORD,UN,16,silent,BASKET,m,,,,,,-0.192810458,0.473856209,0,0,0,,0,286,286,238,1,,
,,,,,,,,,,,,,,,,,,5e1ee2050c0b3120e01eeec1,2020-11-26_15h56.49.970,lexical_decision_task_MP_exp2,2020.2.5,Win32,60,z,1,0.627,,,,,,,,0.627,1,,,,,,335,NW,UN,33,ghodus,DESION,z,,,,,,-0.192810458,0.473856209,0,0,0,,0,287,287,394,1,,
,,,,,,,,,,,,,,,,,,5e1ee2050c0b3120e01eeec1,2020-11-26_15h56.49.970,lexical_decision_task_MP_exp2,2020.2.5,Win32,60,m,1,0.555,,,,,,,,0.555,1,,,,,,71,WORD,UN,33,bright,GARDEN,m,,,,,,-0.192810458,0.473856209,0,0,0,,0,288,288,130,1,,
,,,,,,,,,,,,,,,,,,5e1ee2050c0b3120e01eeec1,2020-11-26_15h56.49.970,lexical_decision_task_MP_exp2,2020.2.5,Win32,60,m,1,0.571,,,,,,,,0.571,1,,,,,,93,WORD,UN,33,travel,PUBLIC,m,,,,,,-0.192810458,0.473856209,0,0,0,,0,289,289,152,1,,
,,,,,,,,,,,,,,,,,,5e1ee2050c0b3120e01eeec1,2020-11-26_15h56.49.970,lexical_decision_task_MP_exp2,2020.2.5,Win32,60,z,1,0.589,,,,,,,,0.589,1,,,,,,459,NW,"ID",33,bafent,BAFENT,z,,,,,,-0.192810458,0.473856209,0,0,0,,0,290,290,278,1,,
,,,,,,,,,,,,,,,,,,5e1ee2050c0b3120e01eeec1,2020-11-26_15h56.49.970,lexical_decision_task_MP_exp2,2020.2.5,Win32,60,z,1,0.742,,,,,,,,0.742,1,,,,,,426,NW,"ID",33,urivel,URIVEL,z,,,,,,-0.192810458,0.473856209,0,0,0,,0,291,291,245,1,,
,,,,,,,,,,,,,,,,,,5e1ee2050c0b3120e01eeec1,2020-11-26_15h56.49.970,lexical_decision_task_MP_exp2,2020.2.5,Win32,60,m,1,0.398,,,,,,,,0.398,1,,,,,,194,WORD,"ID",33,absent,ABSENT,m,,,,,,-0.192810458,0.473856209,0,0,0,,0,292,292,13,1,,
,,,,,,,,,,,,,,,,,,5e1ee2050c0b3120e01eeec1,2020-11-26_15h56.49.970,lexical_decision_task_MP_exp2,2020.2.5,Win32,60,z,1,0.664,,,,,,,,0.664,1,,,,,,307,NW,UN,33,psetch,KIRAFE,z,,,,,,-0.192810458,0.473856209,0,0,0,,0,293,293,366,1,,
,,,,,,,,,,,,,,,,,,5e1ee2050c0b3120e01eeec1,2020-11-26_15h56.49.970,lexical_decision_task_MP_exp2,2020.2.5,Win32,60,m,1,0.554,,,,,,,,0.554,1,,,,,,214,WORD,"ID",33,intake,INTAKE,m,,,,,,-0.192810458,0.473856209,0,0,0,,0,294,294,33,1,,
,,,,,,,,,,,,,,,,,,5e1ee2050c0b3120e01eeec1,2020-11-26_15h56.49.970,lexical_decision_task_MP_exp2,2020.2.5,Win32,60,z,1,0.639,,,,,,,,0.639,1,,,,,,419,NW,UN,16,gushop,SLOUNT,z,,,,,,-0.192810458,0.473856209,0,0,0,,0,295,295,478,1,,
,,,,,,,,,,,,,,,,,,5e1ee2050c0b3120e01eeec1,2020-11-26_15h56.49.970,lexical_decision_task_MP_exp2,2020.2.5,Win32,60,m,1,0.767,,,,,,,,0.767,1,,,,,,34,WORD,"ID",16,jungle,JUNGLE,m,,,,,,-0.192810458,0.473856209,0,0,0,,0,296,296,93,1,,
,,,,,,,,,,,,,,,,,,5e1ee2050c0b3120e01eeec1,2020-11-26_15h56.49.970,lexical_decision_task_MP_exp2,2020.2.5,Win32,60,z,1,0.617,,,,,,,,0.617,1,,,,,,394,NW,UN,16,colury,SPAQUX,z,,,,,,-0.192810458,0.473856209,0,0,0,,0,297,297,453,1,,
,,,,,,,,,,,,,,,,,,5e1ee2050c0b3120e01eeec1,2020-11-26_15h56.49.970,lexical_decision_task_MP_exp2,2020.2.5,Win32,60,m,1,1.203,,,,,,,,1.203,1,,,,,,121,WORD,UN,16,linger,THRIVE,m,,,,,,-0.192810458,0.473856209,0,0,0,,0,298,298,180,1,,
,,,,,,,,,,,,,,,,,,5e1ee2050c0b3120e01eeec1,2020-11-26_15h56.49.970,lexical_decision_task_MP_exp2,2020.2.5,Win32,60,m,1,0.487,,,,,,,,0.487,1,,,,,,134,WORD,UN,16,import,STAPLE,m,,,,,,-0.192810458,0.473856209,0,0,0,,0,299,299,193,1,,
,,,,,,,,,,,,,,,,,,5e1ee2050c0b3120e01eeec1,2020-11-26_15h56.49.970,lexical_decision_task_MP_exp2,2020.2.5,Win32,60,m,1,0.465,,,,,,,,0.465,1,,,,,,27,WORD,"ID",16,scream,SCREAM,m,,,,,,-0.192810458,0.473856209,0,0,0,,0,300,300,86,1,,
,,,,,,,,,,,,,,,,,,5e1ee2050c0b3120e01eeec1,2020-11-26_15h56.49.970,lexical_decision_task_MP_exp2,2020.2.5,Win32,60,z,1,0.701,,,,,,,,0.701,1,,,,,,477,NW,"ID",33,photie,PHOTIE,z,,,,,,-0.192810458,0.473856209,0,0,0,,0,301,301,296,1,,
,,,,,,,,,,,,,,,,,,5e1ee2050c0b3120e01eeec1,2020-11-26_15h56.49.970,lexical_decision_task_MP_exp2,2020.2.5,Win32,60,z,0,0.43,,,,,,,,0.43,0,,,,,,117,WORD,UN,33,flight,BRANCH,m,,,,,,-0.192810458,0.473856209,0,0,0,,0,302,302,176,1,,
,,,,,,,,,,,,,,,,,,5e1ee2050c0b3120e01eeec1,2020-11-26_15h56.49.970,lexical_decision_task_MP_exp2,2020.2.5,Win32,60,m,1,0.848,,,,,,,,0.848,1,,,,,,105,WORD,UN,33,ransom,NUMBER,m,,,,,,-0.192810458,0.473856209,0,0,0,,0,303,303,164,1,,
,,,,,,,,,,,,,,,,,,5e1ee2050c0b3120e01eeec1,2020-11-26_15h56.49.970,lexical_decision_task_MP_exp2,2020.2.5,Win32,60,z,1,0.52,,,,,,,,0.52,1,,,,,,379,NW,UN,16,cavory,AUTING,z,,,,,,-0.192810458,0.473856209,0,0,0,,0,304,304,438,1,,
,,,,,,,,,,,,,,,,,,5e1ee2050c0b3120e01eeec1,2020-11-26_15h56.49.970,lexical_decision_task_MP_exp2,2020.2.5,Win32,60,z,1,0.794,,,,,,,,0.794,1,,,,,,425,NW,"ID",33,frudge,FRUDGE,z,,,,,,-0.192810458,0.473856209,0,0,0,,0,305,305,244,1,,
,,,,,,,,,,,,,,,,,,5e1ee2050c0b3120e01eeec1,2020-11-26_15h56.49.970,lexical_decision_task_MP_exp2,2020.2.5,Win32,60,m,1,0.496,,,,,,,,0.496,1,,,,,,209,WORD,"ID",33,search,SEARCH,m,,,,,,-0.192810458,0.473856209,0,0,0,,0,306,306,28,1,,
,,,,,,,,,,,,,,,,,,5e1ee2050c0b3120e01eeec1,2020-11-26_15h56.49.970,lexical_decision_task_MP_exp2,2020.2.5,Win32,60,m,1,0.485,,,,,,,,0.485,1,,,,,,65,WORD,UN,33,gospel,SYMBOL,m,,,,,,-0.192810458,0.473856209,0,0,0,,0,307,307,124,1,,
,,,,,,,,,,,,,,,,,,5e1ee2050c0b3120e01eeec1,2020-11-26_15h56.49.970,lexical_decision_task_MP_exp2,2020.2.5,Win32,60,m,1,0.589,,,,,,,,0.589,1,,,,,,184,WORD,"ID",33,sleazy,SLEAZY,m,,,,,,-0.192810458,0.473856209,0,0,0,,0,308,308,3,1,,
,,,,,,,,,,,,,,,,,,5e1ee2050c0b3120e01eeec1,2020-11-26_15h56.49.970,lexical_decision_task_MP_exp2,2020.2.5,Win32,60,z,1,0.598,,,,,,,,0.598,1,,,,,,395,NW,UN,16,flengy,COLURY,z,,,,,,-0.192810458,0.473856209,0,0,0,,0,309,309,454,1,,
,,,,,,,,,,,,,,,,,,5e1ee2050c0b3120e01eeec1,2020-11-26_15h56.49.970,lexical_decision_task_MP_exp2,2020.2.5,Win32,60,m,1,0.681,,,,,,,,0.681,1,,,,,,18,WORD,"ID",16,humble,HUMBLE,m,,,,,,-0.192810458,0.473856209,0,0,0,,0,310,310,77,1,,
,,,,,,,,,,,,,,,,,,5e1ee2050c0b3120e01eeec1,2020-11-26_15h56.49.970,lexical_decision_task_MP_exp2,2020.2.5,Win32,60,z,1,0.791,,,,,,,,0.791,1,,,,,,444,NW,"ID",33,jaunce,JAUNCE,z,,,,,,-0.192810458,0.473856209,0,0,0,,0,311,311,263,1,,
,,,,,,,,,,,,,,,,,,5e1ee2050c0b3120e01eeec1,2020-11-26_15h56.49.970,lexical_decision_task_MP_exp2,2020.2.5,Win32,60,m,1,0.67,,,,,,,,0.67,1,,,,,,199,WORD,"ID",33,invoke,INVOKE,m,,,,,,-0.192810458,0.473856209,0,0,0,,0,312,312,18,1,,
,,,,,,,,,,,,,,,,,,5e1ee2050c0b3120e01eeec1,2020-11-26_15h56.49.970,lexical_decision_task_MP_exp2,2020.2.5,Win32,60,m,1,0.52,,,,,,,,0.52,1,,,,,,239,WORD,"ID",33,lumber,LUMBER,m,,,,,,-0.192810458,0.473856209,0,0,0,,0,313,313,58,1,,
,,,,,,,,,,,,,,,,,,5e1ee2050c0b3120e01eeec1,2020-11-26_15h56.49.970,lexical_decision_task_MP_exp2,2020.2.5,Win32,60,m,1,0.469,,,,,,,,0.469,1,,,,,,67,WORD,UN,33,fumble,POLICY,m,,,,,,-0.192810458,0.473856209,0,0,0,,0,314,314,126,1,,
,,,,,,,,,,,,,,,,,,5e1ee2050c0b3120e01eeec1,2020-11-26_15h56.49.970,lexical_decision_task_MP_exp2,2020.2.5,Win32,60,m,1,0.499,,,,,,,,0.499,1,,,,,,152,WORD,UN,16,behold,ROCKET,m,,,,,,-0.192810458,0.473856209,0,0,0,,0,315,315,211,1,,
,,,,,,,,,,,,,,,,,,5e1ee2050c0b3120e01eeec1,2020-11-26_15h56.49.970,lexical_decision_task_MP_exp2,2020.2.5,Win32,60,z,1,0.689,,,,,,,,0.689,1,,,,,,397,NW,UN,16,blunde,CAMBLE,z,,,,,,-0.192810458,0.473856209,0,0,0,,0,316,316,456,1,,
,,,,,,,,,,,,,,,,,,5e1ee2050c0b3120e01eeec1,2020-11-26_15h56.49.970,lexical_decision_task_MP_exp2,2020.2.5,Win32,60,m,1,0.634,,,,,,,,0.634,1,,,,,,116,WORD,UN,33,branch,TUMBLE,m,,,,,,-0.192810458,0.473856209,0,0,0,,0,317,317,175,1,,
,,,,,,,,,,,,,,,,,,5e1ee2050c0b3120e01eeec1,2020-11-26_15h56.49.970,lexical_decision_task_MP_exp2,2020.2.5,Win32,60,m,1,0.468,,,,,,,,0.468,1,,,,,,43,WORD,"ID",16,tongue,TONGUE,m,,,,,,-0.192810458,0.473856209,0,0,0,,0,318,318,102,1,,
,,,,,,,,,,,,,,,,,,5e1ee2050c0b3120e01eeec1,2020-11-26_15h56.49.970,lexical_decision_task_MP_exp2,2020.2.5,Win32,60,m,1,0.484,,,,,,,,0.484,1,,,,,,37,WORD,"ID",16,insult,INSULT,m,,,,,,-0.192810458,0.473856209,0,0,0,,0,319,319,96,1,,
,,,,,,,,,,,,,,,,,,5e1ee2050c0b3120e01eeec1,2020-11-26_15h56.49.970,lexical_decision_task_MP_exp2,2020.2.5,Win32,60,m,1,0.471,,,,,,,,0.471,1,,,,,,62,WORD,UN,33,launch,REGION,m,,,,,,-0.192810458,0.473856209,0,0,0,,0,320,320,121,1,,
,,,,,,,,,,,,,,,,,,5e1ee2050c0b3120e01eeec1,2020-11-26_15h56.49.970,lexical_decision_task_MP_exp2,2020.2.5,Win32,60,m,1,0.621,,,,,,,,0.621,1,,,,,,39,WORD,"ID",16,insect,INSECT,m,,,,,,-0.192810458,0.473856209,0,0,0,,0,321,321,98,1,,
,,,,,,,,,,,,,,,,,,5e1ee2050c0b3120e01eeec1,2020-11-26_15h56.49.970,lexical_decision_task_MP_exp2,2020.2.5,Win32,60,z,1,0.657,,,,,,,,0.657,1,,,,,,300,NW,"ID",16,yarion,YARION,z,,,,,,-0.192810458,0.473856209,0,0,0,,0,322,322,359,1,,
,,,,,,,,,,,,,,,,,,5e1ee2050c0b3120e01eeec1,2020-11-26_15h56.49.970,lexical_decision_task_MP_exp2,2020.2.5,Win32,60,z,1,0.667,,,,,,,,0.667,1,,,,,,327,NW,UN,33,broake,PLENAC,z,,,,,,-0.192810458,0.473856209,0,0,0,,0,323,323,386,1,,
,,,,,,,,,,,,,,,,,,5e1ee2050c0b3120e01eeec1,2020-11-26_15h56.49.970,lexical_decision_task_MP_exp2,2020.2.5,Win32,60,m,0,0.56,,,,,,,,0.56,0,,,,,,301,NW,UN,33,miluer,FAINCH,z,,,,,,-0.192810458,0.473856209,0,0,0,,0,324,324,360,1,,
,,,,,,,,,,,,,,,,,,5e1ee2050c0b3120e01eeec1,2020-11-26_15h56.49.970,lexical_decision_task_MP_exp2,2020.2.5,Win32,60,z,1,0.716,,,,,,,,0.716,1,,,,,,449,NW,"ID",33,brunge,BRUNGE,z,,,,,,-0.192810458,0.473856209,0,0,0,,0,325,325,268,1,,
,,,,,,,,,,,,,,,,,,5e1ee2050c0b3120e01eeec1,2020-11-26_15h56.49.970,lexical_decision_task_MP_exp2,2020.2.5,Win32,60,z,1,0.488,,,,,,,,0.488,1,,,,,,302,NW,UN,33,fiream,MILUER,z,,,,,,-0.192810458,0.473856209,0,0,0,,0,326,326,361,1,,
,,,,,,,,,,,,,,,,,,5e1ee2050c0b3120e01eeec1,2020-11-26_15h56.49.970,lexical_decision_task_MP_exp2,2020.2.5,Win32,60,z,1,0.498,,,,,,,,0.498,1,,,,,,410,NW,UN,16,orchin,TUNORY,z,,,,,,-0.192810458,0.473856209,0,0,0,,0,327,327,469,1,,
,,,,,,,,,,,,,,,,,,5e1ee2050c0b3120e01eeec1,2020-11-26_15h56.49.970,lexical_decision_task_MP_exp2,2020.2.5,Win32,60,z,1,0.457,,,,,,,,0.457,1,,,,,,315,NW,UN,33,scregm,LASTON,z,,,,,,-0.192810458,0.473856209,0,0,0,,0,328,328,374,1,,
,,,,,,,,,,,,,,,,,,5e1ee2050c0b3120e01eeec1,2020-11-26_15h56.49.970,lexical_decision_task_MP_exp2,2020.2.5,Win32,60,z,1,0.601,,,,,,,,0.601,1,,,,,,453,NW,"ID",33,bolvis,BOLVIS,z,,,,,,-0.192810458,0.473856209,0,0,0,,0,329,329,272,1,,
,,,,,,,,,,,,,,,,,,5e1ee2050c0b3120e01eeec1,2020-11-26_15h56.49.970,lexical_decision_task_MP_exp2,2020.2.5,Win32,60,z,1,0.502,,,,,,,,0.502,1,,,,,,273,NW,"ID",16,sortel,SORTEL,z,,,,,,-0.192810458,0.473856209,0,0,0,,0,330,330,332,1,,
,,,,,,,,,,,,,,,,,,5e1ee2050c0b3120e01eeec1,2020-11-26_15h56.49.970,lexical_decision_task_MP_exp2,2020.2.5,Win32,60,m,1,0.602,,,,,,,,0.602,1,,,,,,75,WORD,UN,33,exotic,TROPHY,m,,,,,,-0.192810458,0.473856209,0,0,0,,0,331,331,134,1,,
,,,,,,,,,,,,,,,,,,5e1ee2050c0b3120e01eeec1,2020-11-26_15h56.49.970,lexical_decision_task_MP_exp2,2020.2.5,Win32,60,z,1,0.552,,,,,,,,0.552,1,,,,,,349,NW,UN,33,nagurs,ASYLEN,z,,,,,,-0.192810458,0.473856209,0,0,0,,0,332,332,408,1,,
,,,,,,,,,,,,,,,,,,5e1ee2050c0b3120e01eeec1,2020-11-26_15h56.49.970,lexical_decision_task_MP_exp2,2020.2.5,Win32,60,z,0,0.458,,,,,,,,0.458,0,,,,,,137,WORD,UN,16,melody,FINGER,m,,,,,,-0.192810458,0.473856209,0,0,0,,0,333,333,196,1,,
,,,,,,,,,,,,,,,,,,5e1ee2050c0b3120e01eeec1,2020-11-26_15h56.49.970,lexical_decision_task_MP_exp2,2020.2.5,Win32,60,m,1,0.867,,,,,,,,0.867,1,,,,,,141,WORD,UN,16,spruce,ORPHAN,m,,,,,,-0.192810458,0.473856209,0,0,0,,0,334,334,200,1,,
,,,,,,,,,,,,,,,,,,5e1ee2050c0b3120e01eeec1,2020-11-26_15h56.49.970,lexical_decision_task_MP_exp2,2020.2.5,Win32,60,m,1,0.58,,,,,,,,0.58,1,,,,,,95,WORD,UN,33,ignore,THREAD,m,,,,,,-0.192810458,0.473856209,0,0,0,,0,335,335,154,1,,
,,,,,,,,,,,,,,,,,,5e1ee2050c0b3120e01eeec1,2020-11-26_15h56.49.970,lexical_decision_task_MP_exp2,2020.2.5,Win32,60,z,1,0.604,,,,,,,,0.604,1,,,,,,299,NW,"ID",16,sturch,STURCH,z,,,,,,-0.192810458,0.473856209,0,0,0,,0,336,336,358,1,,
,,,,,,,,,,,,,,,,,,5e1ee2050c0b3120e01eeec1,2020-11-26_15h56.49.970,lexical_decision_task_MP_exp2,2020.2.5,Win32,60,z,1,0.583,,,,,,,,0.583,1,,,,,,457,NW,"ID",33,wanigh,WANIGH,z,,,,,,-0.192810458,0.473856209,0,0,0,,0,337,337,276,1,,
,,,,,,,,,,,,,,,,,,5e1ee2050c0b3120e01eeec1,2020-11-26_15h56.49.970,lexical_decision_task_MP_exp2,2020.2.5,Win32,60,m,1,0.65,,,,,,,,0.65,1,,,,,,127,WORD,UN,16,senior,CASTLE,m,,,,,,-0.192810458,0.473856209,0,0,0,,0,338,338,186,1,,
,,,,,,,,,,,,,,,,,,5e1ee2050c0b3120e01eeec1,2020-11-26_15h56.49.970,lexical_decision_task_MP_exp2,2020.2.5,Win32,60,m,1,0.595,,,,,,,,0.595,1,,,,,,45,WORD,"ID",16,clergy,CLERGY,m,,,,,,-0.192810458,0.473856209,0,0,0,,0,339,339,104,1,,
,,,,,,,,,,,,,,,,,,5e1ee2050c0b3120e01eeec1,2020-11-26_15h56.49.970,lexical_decision_task_MP_exp2,2020.2.5,Win32,60,m,1,0.449,,,,,,,,0.449,1,,,,,,61,WORD,UN,33,region,PONDER,m,,,,,,-0.192810458,0.473856209,0,0,0,,0,340,340,120,1,,
,,,,,,,,,,,,,,,,,,5e1ee2050c0b3120e01eeec1,2020-11-26_15h56.49.970,lexical_decision_task_MP_exp2,2020.2.5,Win32,60,z,1,0.621,,,,,,,,0.621,1,,,,,,343,NW,UN,33,scrily,AIMOSY,z,,,,,,-0.192810458,0.473856209,0,0,0,,0,341,341,402,1,,
,,,,,,,,,,,,,,,,,,5e1ee2050c0b3120e01eeec1,2020-11-26_15h56.49.970,lexical_decision_task_MP_exp2,2020.2.5,Win32,60,m,1,0.687,,,,,,,,0.687,1,,,,,,7,WORD,"ID",16,anchor,ANCHOR,m,,,,,,-0.192810458,0.473856209,0,0,0,,0,342,342,66,1,,
,,,,,,,,,,,,,,,,,,5e1ee2050c0b3120e01eeec1,2020-11-26_15h56.49.970,lexical_decision_task_MP_exp2,2020.2.5,Win32,60,z,1,0.755,,,,,,,,0.755,1,,,,,,409,NW,UN,16,tunory,ELOPIA,z,,,,,,-0.192810458,0.473856209,0,0,0,,0,343,343,468,1,,
,,,,,,,,,,,,,,,,,,5e1ee2050c0b3120e01eeec1,2020-11-26_15h56.49.970,lexical_decision_task_MP_exp2,2020.2.5,Win32,60,m,1,0.705,,,,,,,,0.705,1,,,,,,44,WORD,"ID",16,danger,DANGER,m,,,,,,-0.192810458,0.473856209,0,0,0,,0,344,344,103,1,,
,,,,,,,,,,,,,,,,,,5e1ee2050c0b3120e01eeec1,2020-11-26_15h56.49.970,lexical_decision_task_MP_exp2,2020.2.5,Win32,60,z,1,1.201,,,,,,,,1.201,1,,,,,,448,NW,"ID",33,sadent,SADENT,z,,,,,,-0.192810458,0.473856209,0,0,0,,0,345,345,267,1,,
,,,,,,,,,,,,,,,,,,5e1ee2050c0b3120e01eeec1,2020-11-26_15h56.49.970,lexical_decision_task_MP_exp2,2020.2.5,Win32,60,m,1,0.655,,,,,,,,0.655,1,,,,,,146,WORD,UN,16,garlic,COUPLE,m,,,,,,-0.192810458,0.473856209,0,0,0,,0,346,346,205,1,,
,,,,,,,,,,,,,,,,,,5e1ee2050c0b3120e01eeec1,2020-11-26_15h56.49.970,lexical_decision_task_MP_exp2,2020.2.5,Win32,60,z,1,0.567,,,,,,,,0.567,1,,,,,,267,NW,"ID",16,pasink,PASINK,z,,,,,,-0.192810458,0.473856209,0,0,0,,0,347,347,326,1,,
,,,,,,,,,,,,,,,,,,5e1ee2050c0b3120e01eeec1,2020-11-26_15h56.49.970,lexical_decision_task_MP_exp2,2020.2.5,Win32,60,z,1,0.451,,,,,,,,0.451,1,,,,,,375,NW,UN,16,iguare,YORQUE,z,,,,,,-0.192810458,0.473856209,0,0,0,,0,348,348,434,1,,
,,,,,,,,,,,,,,,,,,5e1ee2050c0b3120e01eeec1,2020-11-26_15h56.49.970,lexical_decision_task_MP_exp2,2020.2.5,Win32,60,m,1,0.753,,,,,,,,0.753,1,,,,,,174,WORD,UN,16,fabric,TURKEY,m,,,,,,-0.192810458,0.473856209,0,0,0,,0,349,349,233,1,,
,,,,,,,,,,,,,,,,,,5e1ee2050c0b3120e01eeec1,2020-11-26_15h56.49.970,lexical_decision_task_MP_exp2,2020.2.5,Win32,60,m,1,0.595,,,,,,,,0.595,1,,,,,,138,WORD,UN,16,debris,MELODY,m,,,,,,-0.192810458,0.473856209,0,0,0,,0,350,350,197,1,,
,,,,,,,,,,,,,,,,,,5e1ee2050c0b3120e01eeec1,2020-11-26_15h56.49.970,lexical_decision_task_MP_exp2,2020.2.5,Win32,60,z,1,0.547,,,,,,,,0.547,1,,,,,,325,NW,UN,33,iguade,THRUSE,z,,,,,,-0.192810458,0.473856209,0,0,0,,0,351,351,384,1,,
,,,,,,,,,,,,,,,,,,5e1ee2050c0b3120e01eeec1,2020-11-26_15h56.49.970,lexical_decision_task_MP_exp2,2020.2.5,Win32,60,m,1,0.738,,,,,,,,0.738,1,,,,,,236,WORD,"ID",33,pirate,PIRATE,m,,,,,,-0.192810458,0.473856209,0,0,0,,0,352,352,55,1,,
,,,,,,,,,,,,,,,,,,5e1ee2050c0b3120e01eeec1,2020-11-26_15h56.49.970,lexical_decision_task_MP_exp2,2020.2.5,Win32,60,m,1,0.648,,,,,,,,0.648,1,,,,,,15,WORD,"ID",16,amount,AMOUNT,m,,,,,,-0.192810458,0.473856209,0,0,0,,0,353,353,74,1,,
,,,,,,,,,,,,,,,,,,5e1ee2050c0b3120e01eeec1,2020-11-26_15h56.49.970,lexical_decision_task_MP_exp2,2020.2.5,Win32,60,z,1,0.541,,,,,,,,0.541,1,,,,,,423,NW,"ID",33,streld,STRELD,z,,,,,,-0.192810458,0.473856209,0,0,0,,0,354,354,242,1,,
,,,,,,,,,,,,,,,,,,5e1ee2050c0b3120e01eeec1,2020-11-26_15h56.49.970,lexical_decision_task_MP_exp2,2020.2.5,Win32,60,z,1,0.829,,,,,,,,0.829,1,,,,,,254,NW,"ID",16,varosh,VAROSH,z,,,,,,-0.192810458,0.473856209,0,0,0,,0,355,355,313,1,,
,,,,,,,,,,,,,,,,,,5e1ee2050c0b3120e01eeec1,2020-11-26_15h56.49.970,lexical_decision_task_MP_exp2,2020.2.5,Win32,60,z,1,0.738,,,,,,,,0.738,1,,,,,,452,NW,"ID",33,surden,SURDEN,z,,,,,,-0.192810458,0.473856209,0,0,0,,0,356,356,271,1,,
,,,,,,,,,,,,,,,,,,5e1ee2050c0b3120e01eeec1,2020-11-26_15h56.49.970,lexical_decision_task_MP_exp2,2020.2.5,Win32,60,z,1,0.78,,,,,,,,0.78,1,,,,,,475,NW,"ID",33,pebric,PEBRIC,z,,,,,,-0.192810458,0.473856209,0,0,0,,0,357,357,294,1,,
,,,,,,,,,,,,,,,,,,5e1ee2050c0b3120e01eeec1,2020-11-26_15h56.49.970,lexical_decision_task_MP_exp2,2020.2.5,Win32,60,z,1,0.619,,,,,,,,0.619,1,,,,,,288,NW,"ID",16,yaceup,YACEUP,z,,,,,,-0.192810458,0.473856209,0,0,0,,0,358,358,347,1,,
,,,,,,,,,,,,,,,,,,5e1ee2050c0b3120e01eeec1,2020-11-26_15h56.49.970,lexical_decision_task_MP_exp2,2020.2.5,Win32,60,m,1,0.622,,,,,,,,0.622,1,,,,,,114,WORD,UN,33,guitar,PLACID,m,,,,,,-0.192810458,0.473856209,0,0,0,,0,359,359,173,1,,
,,,,,,,,,,,,,,,,,,5e1ee2050c0b3120e01eeec1,2020-11-26_15h56.49.970,lexical_decision_task_MP_exp2,2020.2.5,Win32,60,m,1,0.554,,,,,,,,0.554,1,,,,,,180,WORD,UN,16,thrive,SILENT,m,,,,,,-0.192810458,0.473856209,0,0,0,,0,360,360,239,1,,
,,,,,,,,,,,,,,,,,,5e1ee2050c0b3120e01eeec1,2020-11-26_15h56.49.970,lexical_decision_task_MP_exp2,2020.2.5,Win32,60,z,1,1.513,,,,,,,,1.513,1,,,,,,421,NW,"ID",33,knisma,KNISMA,z,,,,,,-0.192810458,0.473856209,0,0,0,,0,361,361,240,1,,
,,,,,,,,,,,,,,,,,,5e1ee2050c0b3120e01eeec1,2020-11-26_15h56.49.970,lexical_decision_task_MP_exp2,2020.2.5,Win32,60,z,0,0.468,,,,,,,,0.468,0,,,,,,170,WORD,UN,16,dragon,POUNCE,m,,,,,,0.024509804,0.35130719,0,0,0,space,0,362,362,229,1,,86.319
,,,,,,,,,,,,,,,,,,5e1ee2050c0b3120e01eeec1,2020-11-26_15h56.49.970,lexical_decision_task_MP_exp2,2020.2.5,Win32,60,,0,,,,,,,,,0.468,-1,,,,,,259,NW,"ID",16,soudal,SOUDAL,z,,,,,,0.024509804,0.35130719,0,0,0,,0,363,363,318,1,,
,,,,,,,,,,,,,,,,,,5e1ee2050c0b3120e01eeec1,2020-11-26_15h56.49.970,lexical_decision_task_MP_exp2,2020.2.5,Win32,60,z,1,1.503,,,,,,,,1.503,1,,,,,,277,NW,"ID",16,petain,PETAIN,z,,,,,,0.024509804,0.35130719,0,0,0,,0,364,364,336,1,,
,,,,,,,,,,,,,,,,,,5e1ee2050c0b3120e01eeec1,2020-11-26_15h56.49.970,lexical_decision_task_MP_exp2,2020.2.5,Win32,60,m,1,0.648,,,,,,,,0.648,1,,,,,,218,WORD,"ID",33,shrink,SHRINK,m,,,,,,0.024509804,0.35130719,0,0,0,,0,365,365,37,1,,
,,,,,,,,,,,,,,,,,,5e1ee2050c0b3120e01eeec1,2020-11-26_15h56.49.970,lexical_decision_task_MP_exp2,2020.2.5,Win32,60,,0,,,,,,,,,0.648,-1,,,,,,9,WORD,"ID",16,hustle,HUSTLE,m,,,,,,0.024509804,0.35130719,0,0,0,,0,366,366,68,1,,
,,,,,,,,,,,,,,,,,,5e1ee2050c0b3120e01eeec1,2020-11-26_15h56.49.970,lexical_decision_task_MP_exp2,2020.2.5,Win32,60,,0,,,,,,,,,0.648,-1,,,,,,435,NW,"ID",33,impurb,IMPURB,z,,,,,,0.024509804,0.35130719,0,0,0,,0,367,367,254,1,,
,,,,,,,,,,,,,,,,,,5e1ee2050c0b3120e01eeec1,2020-11-26_15h56.49.970,lexical_decision_task_MP_exp2,2020.2.5,Win32,60,,0,,,,,,,,,0.648,-1,,,,,,369,NW,UN,16,sleact,WRONCH,z,,,,,,0.024509804,0.35130719,0,0,0,,0,368,368,428,1,,
,,,,,,,,,,,,,,,,,,5e1ee2050c0b3120e01eeec1,2020-11-26_15h56.49.970,lexical_decision_task_MP_exp2,2020.2.5,Win32,60,m,1,0.822,,,,,,,,0.822,1,,,,,,36,WORD,"ID",16,vanish,VANISH,m,,,,,,0.024509804,0.35130719,0,0,0,,0,369,369,95,1,,
,,,,,,,,,,,,,,,,,,5e1ee2050c0b3120e01eeec1,2020-11-26_15h56.49.970,lexical_decision_task_MP_exp2,2020.2.5,Win32,60,z,0,1.085,,,,,,,,1.085,0,,,,,,173,WORD,UN,16,turkey,SHOWER,m,,,,,,0.024509804,0.35130719,0,0,0,,0,370,370,232,1,,
,,,,,,,,,,,,,,,,,,5e1ee2050c0b3120e01eeec1,2020-11-26_15h56.49.970,lexical_decision_task_MP_exp2,2020.2.5,Win32,60,,0,,,,,,,,,1.085,-1,,,,,,58,WORD,"ID",16,foster,FOSTER,m,,,,,,0.024509804,0.35130719,0,0,0,,0,371,371,117,1,,
,,,,,,,,,,,,,,,,,,5e1ee2050c0b3120e01eeec1,2020-11-26_15h56.49.970,lexical_decision_task_MP_exp2,2020.2.5,Win32,60,m,1,1.618,,,,,,,,1.618,1,,,,,,232,WORD,"ID",33,inject,INJECT,m,,,,,,0.024509804,0.35130719,0,0,0,,0,372,372,51,1,,
,,,,,,,,,,,,,,,,,,5e1ee2050c0b3120e01eeec1,2020-11-26_15h56.49.970,lexical_decision_task_MP_exp2,2020.2.5,Win32,60,m,1,0.672,,,,,,,,0.672,1,,,,,,237,WORD,"ID",33,poster,POSTER,m,,,,,,0.024509804,0.35130719,0,0,0,,0,373,373,56,1,,
,,,,,,,,,,,,,,,,,,5e1ee2050c0b3120e01eeec1,2020-11-26_15h56.49.970,lexical_decision_task_MP_exp2,2020.2.5,Win32,60,z,1,0.837,,,,,,,,0.837,1,,,,,,402,NW,UN,16,bruats,SYNTIC,z,,,,,,0.024509804,0.35130719,0,0,0,,0,374,374,461,1,,
,,,,,,,,,,,,,,,,,,5e1ee2050c0b3120e01eeec1,2020-11-26_15h56.49.970,lexical_decision_task_MP_exp2,2020.2.5,Win32,60,,0,,,,,,,,,0.837,-1,,,,,,241,NW,"ID",16,smenco,SMENCO,z,,,,,,0.024509804,0.35130719,0,0,0,,0,375,375,300,1,,
,,,,,,,,,,,,,,,,,,5e1ee2050c0b3120e01eeec1,2020-11-26_15h56.49.970,lexical_decision_task_MP_exp2,2020.2.5,Win32,60,,0,,,,,,,,,0.837,-1,,,,,,192,WORD,"ID",33,plague,PLAGUE,m,,,,,,0.024509804,0.35130719,0,0,0,,0,376,376,11,1,,
,,,,,,,,,,,,,,,,,,5e1ee2050c0b3120e01eeec1,2020-11-26_15h56.49.970,lexical_decision_task_MP_exp2,2020.2.5,Win32,60,,0,,,,,,,,,0.837,-1,,,,,,406,NW,UN,16,suiver,NOUPLY,z,,,,,,0.024509804,0.35130719,0,0,0,,0,377,377,465,1,,
,,,,,,,,,,,,,,,,,,5e1ee2050c0b3120e01eeec1,2020-11-26_15h56.49.970,lexical_decision_task_MP_exp2,2020.2.5,Win32,60,z,1,1.649,,,,,,,,1.649,1,,,,,,470,NW,"ID",33,crudio,CRUDIO,z,,,,,,0.024509804,0.35130719,0,0,0,,0,378,378,289,1,,
,,,,,,,,,,,,,,,,,,5e1ee2050c0b3120e01eeec1,2020-11-26_15h56.49.970,lexical_decision_task_MP_exp2,2020.2.5,Win32,60,z,1,0.678,,,,,,,,0.678,1,,,,,,405,NW,UN,16,nouply,FLUMNI,z,,,,,,0.024509804,0.35130719,0,0,0,,0,379,379,464,1,,
,,,,,,,,,,,,,,,,,,5e1ee2050c0b3120e01eeec1,2020-11-26_15h56.49.970,lexical_decision_task_MP_exp2,2020.2.5,Win32,60,z,1,0.549,,,,,,,,0.549,1,,,,,,257,NW,"ID",16,veniod,VENIOD,z,,,,,,0.024509804,0.35130719,0,0,0,,0,380,380,316,1,,
,,,,,,,,,,,,,,,,,,5e1ee2050c0b3120e01eeec1,2020-11-26_15h56.49.970,lexical_decision_task_MP_exp2,2020.2.5,Win32,60,z,1,0.651,,,,,,,,0.651,1,,,,,,329,NW,UN,33,kensom,YARIKE,z,,,,,,0.024509804,0.35130719,0,0,0,,0,381,381,388,1,,
,,,,,,,,,,,,,,,,,,5e1ee2050c0b3120e01eeec1,2020-11-26_15h56.49.970,lexical_decision_task_MP_exp2,2020.2.5,Win32,60,,0,,,,,,,,,0.651,-1,,,,,,1,WORD,"ID",16,fright,FRIGHT,m,,,,,,0.024509804,0.35130719,0,0,0,,0,382,382,60,1,,
,,,,,,,,,,,,,,,,,,5e1ee2050c0b3120e01eeec1,2020-11-26_15h56.49.970,lexical_decision_task_MP_exp2,2020.2.5,Win32,60,,0,,,,,,,,,0.651,-1,,,,,,377,NW,UN,16,shrile,INJORE,z,,,,,,0.024509804,0.35130719,0,0,0,,0,383,383,436,1,,
,,,,,,,,,,,,,,,,,,5e1ee2050c0b3120e01eeec1,2020-11-26_15h56.49.970,lexical_decision_task_MP_exp2,2020.2.5,Win32,60,,0,,,,,,,,,0.651,-1,,,,,,32,WORD,"ID",16,buckle,BUCKLE,m,,,,,,0.024509804,0.35130719,0,0,0,,0,384,384,91,1,,
,,,,,,,,,,,,,,,,,,5e1ee2050c0b3120e01eeec1,2020-11-26_15h56.49.970,lexical_decision_task_MP_exp2,2020.2.5,Win32,60,,0,,,,,,,,,0.651,-1,,,,,,136,WORD,UN,16,finger,BLEACH,m,,,,,,0.024509804,0.35130719,0,0,0,,0,385,385,195,1,,
,,,,,,,,,,,,,,,,,,5e1ee2050c0b3120e01eeec1,2020-11-26_15h56.49.970,lexical_decision_task_MP_exp2,2020.2.5,Win32,60,z,1,0.584,,,,,,,,0.584,1,,,,,,330,NW,UN,33,gilfew,KENSOM,z,,,,,,0.024509804,0.35130719,0,0,0,,0,386,386,389,1,,
,,,,,,,,,,,,,,,,,,5e1ee2050c0b3120e01eeec1,2020-11-26_15h56.49.970,lexical_decision_task_MP_exp2,2020.2.5,Win32,60,z,1,0.603,,,,,,,,0.603,1,,,,,,278,NW,"ID",16,unighs,UNIGHS,z,,,,,,0.024509804,0.35130719,0,0,0,,0,387,387,337,1,,
,,,,,,,,,,,,,,,,,,5e1ee2050c0b3120e01eeec1,2020-11-26_15h56.49.970,lexical_decision_task_MP_exp2,2020.2.5,Win32,60,z,1,0.706,,,,,,,,0.706,1,,,,,,370,NW,UN,16,geiloy,SLEACT,z,,,,,,0.024509804,0.35130719,0,0,0,,0,388,388,429,1,,
,,,,,,,,,,,,,,,,,,5e1ee2050c0b3120e01eeec1,2020-11-26_15h56.49.970,lexical_decision_task_MP_exp2,2020.2.5,Win32,60,m,1,0.663,,,,,,,,0.663,1,,,,,,99,WORD,UN,33,carbon,FLUENT,m,,,,,,0.024509804,0.35130719,0,0,0,,0,389,389,158,1,,
,,,,,,,,,,,,,,,,,,5e1ee2050c0b3120e01eeec1,2020-11-26_15h56.49.970,lexical_decision_task_MP_exp2,2020.2.5,Win32,60,,0,,,,,,,,,0.663,-1,,,,,,57,WORD,"ID",16,change,CHANGE,m,,,,,,0.024509804,0.35130719,0,0,0,,0,390,390,116,1,,
,,,,,,,,,,,,,,,,,,5e1ee2050c0b3120e01eeec1,2020-11-26_15h56.49.970,lexical_decision_task_MP_exp2,2020.2.5,Win32,60,m,1,0.794,,,,,,,,0.794,1,,,,,,69,WORD,UN,33,square,PLENTY,m,,,,,,0.024509804,0.35130719,0,0,0,,0,391,391,128,1,,
,,,,,,,,,,,,,,,,,,5e1ee2050c0b3120e01eeec1,2020-11-26_15h56.49.970,lexical_decision_task_MP_exp2,2020.2.5,Win32,60,z,1,0.852,,,,,,,,0.852,1,,,,,,319,NW,UN,33,jockal,ZOMBER,z,,,,,,0.024509804,0.35130719,0,0,0,,0,392,392,378,1,,
,,,,,,,,,,,,,,,,,,5e1ee2050c0b3120e01eeec1,2020-11-26_15h56.49.970,lexical_decision_task_MP_exp2,2020.2.5,Win32,60,z,1,0.781,,,,,,,,0.781,1,,,,,,283,NW,"ID",16,veralf,VERALF,z,,,,,,0.024509804,0.35130719,0,0,0,,0,393,393,342,1,,
,,,,,,,,,,,,,,,,,,5e1ee2050c0b3120e01eeec1,2020-11-26_15h56.49.970,lexical_decision_task_MP_exp2,2020.2.5,Win32,60,z,1,1.215,,,,,,,,1.215,1,,,,,,263,NW,"ID",16,dolica,DOLICA,z,,,,,,0.024509804,0.35130719,0,0,0,,0,394,394,322,1,,
,,,,,,,,,,,,,,,,,,5e1ee2050c0b3120e01eeec1,2020-11-26_15h56.49.970,lexical_decision_task_MP_exp2,2020.2.5,Win32,60,z,1,0.581,,,,,,,,0.581,1,,,,,,415,NW,UN,16,pathel,HIGSTA,z,,,,,,0.024509804,0.35130719,0,0,0,,0,395,395,474,1,,
,,,,,,,,,,,,,,,,,,5e1ee2050c0b3120e01eeec1,2020-11-26_15h56.49.970,lexical_decision_task_MP_exp2,2020.2.5,Win32,60,m,1,0.771,,,,,,,,0.771,1,,,,,,227,WORD,"ID",33,seldom,SELDOM,m,,,,,,0.024509804,0.35130719,0,0,0,,0,396,396,46,1,,
,,,,,,,,,,,,,,,,,,5e1ee2050c0b3120e01eeec1,2020-11-26_15h56.49.970,lexical_decision_task_MP_exp2,2020.2.5,Win32,60,m,1,1.056,,,,,,,,1.056,1,,,,,,221,WORD,"ID",33,mascot,MASCOT,m,,,,,,0.024509804,0.35130719,0,0,0,,0,397,397,40,1,,
,,,,,,,,,,,,,,,,,,5e1ee2050c0b3120e01eeec1,2020-11-26_15h56.49.970,lexical_decision_task_MP_exp2,2020.2.5,Win32,60,z,1,0.805,,,,,,,,0.805,1,,,,,,271,NW,"ID",16,aubrid,AUBRID,z,,,,,,0.024509804,0.35130719,0,0,0,,0,398,398,330,1,,
,,,,,,,,,,,,,,,,,,5e1ee2050c0b3120e01eeec1,2020-11-26_15h56.49.970,lexical_decision_task_MP_exp2,2020.2.5,Win32,60,m,1,0.688,,,,,,,,0.688,1,,,,,,208,WORD,"ID",33,hockey,HOCKEY,m,,,,,,0.024509804,0.35130719,0,0,0,,0,399,399,27,1,,
,,,,,,,,,,,,,,,,,,5e1ee2050c0b3120e01eeec1,2020-11-26_15h56.49.970,lexical_decision_task_MP_exp2,2020.2.5,Win32,60,m,1,1.92,,,,,,,,1.92,1,,,,,,119,WORD,UN,33,strain,SPIDER,m,,,,,,0.024509804,0.35130719,0,0,0,,0,400,400,178,1,,
,,,,,,,,,,,,,,,,,,5e1ee2050c0b3120e01eeec1,2020-11-26_15h56.49.970,lexical_decision_task_MP_exp2,2020.2.5,Win32,60,z,1,0.954,,,,,,,,0.954,1,,,,,,416,NW,UN,16,earoud,PATHEL,z,,,,,,0.024509804,0.35130719,0,0,0,,0,401,401,475,1,,
,,,,,,,,,,,,,,,,,,5e1ee2050c0b3120e01eeec1,2020-11-26_15h56.49.970,lexical_decision_task_MP_exp2,2020.2.5,Win32,60,z,1,1.404,,,,,,,,1.404,1,,,,,,293,NW,"ID",16,swance,SWANCE,z,,,,,,0.024509804,0.35130719,0,0,0,,0,402,402,352,1,,
,,,,,,,,,,,,,,,,,,5e1ee2050c0b3120e01eeec1,2020-11-26_15h56.49.970,lexical_decision_task_MP_exp2,2020.2.5,Win32,60,m,1,0.753,,,,,,,,0.753,1,,,,,,235,WORD,"ID",33,grumpy,GRUMPY,m,,,,,,0.024509804,0.35130719,0,0,0,,0,403,403,54,1,,
