counterbalancing_condition,instr_done_keyboard.keys,instr_done_keyboard.rt,instr_done_touch.x,instr_done_touch.y,instr_done_touch.leftButton,instr_done_touch.midButton,instr_done_touch.rightButton,instruction_pages.thisRepN,instruction_pages.thisTrialN,instruction_pages.thisN,instruction_pages.thisIndex,instruction_pages.ran,pageN,phase,instruct_text,has_image,instruct_image,participant,date,expName,psychopyVersion,OS,frameRate,instr_done_touch.clicked_name,response.keys,response.corr,response.rt,touch_resp.x,touch_resp.y,touch_resp.leftButton,touch_resp.midButton,touch_resp.rightButton,touch_resp.time,touch_resp.clicked_name,rt,corr,practice_trials.thisRepN,practice_trials.thisTrialN,practice_trials.thisN,practice_trials.thisIndex,practice_trials.ran,TrialID,StimulusType,Condition,PrimeDuration,Prime,Target,corrAns,end_of_practice_trials_pages.thisRepN,end_of_practice_trials_pages.thisTrialN,end_of_practice_trials_pages.thisN,end_of_practice_trials_pages.thisIndex,end_of_practice_trials_pages.ran,break_done_touch.x,break_done_touch.y,break_done_touch.leftButton,break_done_touch.midButton,break_done_touch.rightButton,break_done_keyboard.keys,experiment_trials.thisRepN,experiment_trials.thisTrialN,experiment_trials.thisN,experiment_trials.thisIndex,experiment_trials.ran,break_done_keyboard.rt,break_done_touch.clicked_name
2,space,20.9598,0.302222222,-0.157777778,0,0,0,0,0,0,0,1,1,instructions,"INSTRUCTIONS
At the start of each trial, look at the hash marks (######) in the center of the screen. After a moment, a string of letters will appear. Your task is to indicate if the letter string forms a word or not (i.e., if it is a nonword). For example, AUTHOR is a word while AUTHON is a nonword.

Press the space bar or touch the button below to continue.",0,,5e52baa6e8efe2000dbdee79,2020-11-27_15h06.21.374,lexical_decision_task_MP_exp2,2020.2.5,Linux x86_64,60,,,,,,,,,,,,,,,,,,,,,,,,,,,,,,,,,,,,,,,,,,,
,,,0.041111111,-0.416666667,1,0,0,0,1,1,1,1,2,instructions,"If your device has a keyboard, press the 'Z' key for nonwords and the 'M' key for words.





Press the space bar or touch the button below to continue.",1,keyboard-example.gif,5e52baa6e8efe2000dbdee79,2020-11-27_15h06.21.374,lexical_decision_task_MP_exp2,2020.2.5,Linux x86_64,60,instr_done_button,,,,,,,,,,,,,,,,,,,,,,,,,,,,,,,,,,,,,,,,,,
,space,6.305065,0.041111111,-0.416666667,0,0,0,0,2,2,2,1,3,instructions,"If you are using a touchscreen only device, use the buttons on the screen. Do not use the mouse.





Press the space bar or touch the button below to continue.",1,touchscreen-example.gif,5e52baa6e8efe2000dbdee79,2020-11-27_15h06.21.374,lexical_decision_task_MP_exp2,2020.2.5,Linux x86_64,60,,,,,,,,,,,,,,,,,,,,,,,,,,,,,,,,,,,,,,,,,,,
,space,17.63313,0.041111111,-0.416666667,0,0,0,0,3,3,3,1,4,instructions,"It is very important that you respond as quickly and accurately as possible, as each letter string will only be on the screen for two seconds. If you do not respond within this time, the message 'Too slow!' will be displayed and the experiment will progress to the next letter string. The first 20 trials will be practice trials and you will receive feedback on your answers. 

Press the space bar or touch the button below to start the practice trials.",0,,5e52baa6e8efe2000dbdee79,2020-11-27_15h06.21.374,lexical_decision_task_MP_exp2,2020.2.5,Linux x86_64,60,,,,,,,,,,,,,,,,,,,,,,,,,,,,,,,,,,,,,,,,,,,
,,,,,,,,,,,,,,,,,,5e52baa6e8efe2000dbdee79,2020-11-27_15h06.21.374,lexical_decision_task_MP_exp2,2020.2.5,Linux x86_64,60,,z,1,1.018625,,,,,,,,1.018625,1,0,0,0,9,1,1010,NW,"ID",33,fariny,FARINY,z,,,,,,,,,,,,,,,,,,
,,,,,,,,,,,,,,,,,,5e52baa6e8efe2000dbdee79,2020-11-27_15h06.21.374,lexical_decision_task_MP_exp2,2020.2.5,Linux x86_64,60,,z,1,0.250245,,,,,,,,0.250245,1,0,1,1,14,1,1015,NW,UN,16,miaber,THRALE,z,,,,,,,,,,,,,,,,,,
,,,,,,,,,,,,,,,,,,5e52baa6e8efe2000dbdee79,2020-11-27_15h06.21.374,lexical_decision_task_MP_exp2,2020.2.5,Linux x86_64,60,,z,1,0.808145,,,,,,,,0.808145,1,0,2,2,8,1,1009,NW,"ID",33,aslert,ASLERT,z,,,,,,,,,,,,,,,,,,
,,,,,,,,,,,,,,,,,,5e52baa6e8efe2000dbdee79,2020-11-27_15h06.21.374,lexical_decision_task_MP_exp2,2020.2.5,Linux x86_64,60,,m,1,0.63349,,,,,,,,0.63349,1,0,3,3,6,1,1007,WORD,UN,16,tropic,ZOMBIE,m,,,,,,,,,,,,,,,,,,
,,,,,,,,,,,,,,,,,,5e52baa6e8efe2000dbdee79,2020-11-27_15h06.21.374,lexical_decision_task_MP_exp2,2020.2.5,Linux x86_64,60,,z,1,0.83248,,,,,,,,0.83248,1,0,4,4,11,1,1012,NW,"ID",16,rashet,RASHET,z,,,,,,,,,,,,,,,,,,
,,,,,,,,,,,,,,,,,,5e52baa6e8efe2000dbdee79,2020-11-27_15h06.21.374,lexical_decision_task_MP_exp2,2020.2.5,Linux x86_64,60,,m,1,0.65244,,,,,,,,0.65244,1,0,5,5,1,1,1002,WORD,"ID",33,adjust,ADJUST,m,,,,,,,,,,,,,,,,,,
,,,,,,,,,,,,,,,,,,5e52baa6e8efe2000dbdee79,2020-11-27_15h06.21.374,lexical_decision_task_MP_exp2,2020.2.5,Linux x86_64,60,,z,0,0.68301,,,,,,,,0.68301,0,0,6,6,7,1,1008,WORD,UN,16,hurdle,VOLUME,m,,,,,,,,,,,,,,,,,,
,,,,,,,,,,,,,,,,,,5e52baa6e8efe2000dbdee79,2020-11-27_15h06.21.374,lexical_decision_task_MP_exp2,2020.2.5,Linux x86_64,60,,m,1,0.69972,,,,,,,,0.69972,1,0,7,7,3,1,1004,WORD,"ID",16,matrix,MATRIX,m,,,,,,,,,,,,,,,,,,
,,,,,,,,,,,,,,,,,,5e52baa6e8efe2000dbdee79,2020-11-27_15h06.21.374,lexical_decision_task_MP_exp2,2020.2.5,Linux x86_64,60,,m,1,0.668095,,,,,,,,0.668095,1,0,8,8,4,1,1005,WORD,UN,33,abound,SQUEAK,m,,,,,,,,,,,,,,,,,,
,,,,,,,,,,,,,,,,,,5e52baa6e8efe2000dbdee79,2020-11-27_15h06.21.374,lexical_decision_task_MP_exp2,2020.2.5,Linux x86_64,60,,m,1,0.71981,,,,,,,,0.71981,1,0,9,9,5,1,1006,WORD,UN,33,frenzy,OBTAIN,m,,,,,,,,,,,,,,,,,,
,,,,,,,,,,,,,,,,,,5e52baa6e8efe2000dbdee79,2020-11-27_15h06.21.374,lexical_decision_task_MP_exp2,2020.2.5,Linux x86_64,60,,z,1,0.88567,,,,,,,,0.88567,1,0,10,10,13,1,1014,NW,UN,33,winfer,ROUPET,z,,,,,,,,,,,,,,,,,,
,,,,,,,,,,,,,,,,,,5e52baa6e8efe2000dbdee79,2020-11-27_15h06.21.374,lexical_decision_task_MP_exp2,2020.2.5,Linux x86_64,60,,z,1,0.94925,,,,,,,,0.94925,1,0,11,11,15,1,1016,NW,UN,16,mushed,WHAISE,z,,,,,,,,,,,,,,,,,,
,,,,,,,,,,,,,,,,,,5e52baa6e8efe2000dbdee79,2020-11-27_15h06.21.374,lexical_decision_task_MP_exp2,2020.2.5,Linux x86_64,60,,z,1,0.734205,,,,,,,,0.734205,1,0,12,12,12,1,1013,NW,UN,33,adveil,SPRINY,z,,,,,,,,,,,,,,,,,,
,,,,,,,,,,,,,,,,,,5e52baa6e8efe2000dbdee79,2020-11-27_15h06.21.374,lexical_decision_task_MP_exp2,2020.2.5,Linux x86_64,60,,m,1,0.715685,,,,,,,,0.715685,1,0,13,13,2,1,1003,WORD,"ID",16,almond,ALMOND,m,,,,,,,,,,,,,,,,,,
,,,,,,,,,,,,,,,,,,5e52baa6e8efe2000dbdee79,2020-11-27_15h06.21.374,lexical_decision_task_MP_exp2,2020.2.5,Linux x86_64,60,,m,1,0.707745,,,,,,,,0.707745,1,0,14,14,0,1,1001,WORD,"ID",33,utopia,UTOPIA,m,,,,,,,,,,,,,,,,,,
,,,,,,,,,,,,,,,,,,5e52baa6e8efe2000dbdee79,2020-11-27_15h06.21.374,lexical_decision_task_MP_exp2,2020.2.5,Linux x86_64,60,,z,1,0.75384,,,,,,,,0.75384,1,0,15,15,10,1,1011,NW,"ID",16,inlade,INLADE,z,,,,,,,,,,,,,,,,,,
,,,0.041111111,-0.416666667,1,0,0,,,,,,1,end_of_practice,"You have completed the practice trials. During the experimental trials, you will not receive feedback, but it is very important that you respond as quickly and accurately as possible. 
Before you begin, please ensure that you are in a comfortable and quiet location and will not be disturbed for about 15 minutes, as we cannot use your data if you do not complete all the trials. 
There will be opportunities to take breaks at regular intervals during the experiment. When you are ready to start the experimental trials, please press space or touch the button below.",,,5e52baa6e8efe2000dbdee79,2020-11-27_15h06.21.374,lexical_decision_task_MP_exp2,2020.2.5,Linux x86_64,60,instr_done_button,,,,,,,,,,,,,,,,,,,,,,,,,0,0,0,0,1,,,,,,,,,,,,,
,,,,,,,,,,,,,,,,,,5e52baa6e8efe2000dbdee79,2020-11-27_15h06.21.374,lexical_decision_task_MP_exp2,2020.2.5,Linux x86_64,60,,z,1,0.594775,,,,,,,,0.594775,1,,,,,,381,NW,"ID",16,huniek,HUNIEK,z,,,,,,0.041111111,-0.416666667,0,0,0,,0,0,0,320,1,,
,,,,,,,,,,,,,,,,,,5e52baa6e8efe2000dbdee79,2020-11-27_15h06.21.374,lexical_decision_task_MP_exp2,2020.2.5,Linux x86_64,60,,m,1,0.53294,,,,,,,,0.53294,1,,,,,,43,WORD,UN,16,foster,TONGUE,m,,,,,,0.041111111,-0.416666667,0,0,0,,0,1,1,222,1,,
,,,,,,,,,,,,,,,,,,5e52baa6e8efe2000dbdee79,2020-11-27_15h06.21.374,lexical_decision_task_MP_exp2,2020.2.5,Linux x86_64,60,,z,1,0.71866,,,,,,,,0.71866,1,,,,,,309,NW,"ID",33,amiloy,AMILOY,z,,,,,,0.041111111,-0.416666667,0,0,0,,0,2,2,248,1,,
,,,,,,,,,,,,,,,,,,5e52baa6e8efe2000dbdee79,2020-11-27_15h06.21.374,lexical_decision_task_MP_exp2,2020.2.5,Linux x86_64,60,,z,1,0.716615,,,,,,,,0.716615,1,,,,,,451,NW,UN,33,surden,CAINKY,z,,,,,,0.041111111,-0.416666667,0,0,0,,0,3,3,390,1,,
,,,,,,,,,,,,,,,,,,5e52baa6e8efe2000dbdee79,2020-11-27_15h06.21.374,lexical_decision_task_MP_exp2,2020.2.5,Linux x86_64,60,,m,1,0.55924,,,,,,,,0.55924,1,,,,,,169,WORD,"ID",16,genius,GENIUS,m,,,,,,0.041111111,-0.416666667,0,0,0,,0,4,4,108,1,,
,,,,,,,,,,,,,,,,,,5e52baa6e8efe2000dbdee79,2020-11-27_15h06.21.374,lexical_decision_task_MP_exp2,2020.2.5,Linux x86_64,60,,z,1,0.634425,,,,,,,,0.634425,1,,,,,,291,NW,UN,16,ablint,PRETCH,z,,,,,,0.041111111,-0.416666667,0,0,0,,0,5,5,470,1,,
,,,,,,,,,,,,,,,,,,5e52baa6e8efe2000dbdee79,2020-11-27_15h06.21.374,lexical_decision_task_MP_exp2,2020.2.5,Linux x86_64,60,,m,1,0.78313,,,,,,,,0.78313,1,,,,,,4,WORD,UN,16,plunge,TRENCH,m,,,,,,0.041111111,-0.416666667,0,0,0,,0,6,6,183,1,,
,,,,,,,,,,,,,,,,,,5e52baa6e8efe2000dbdee79,2020-11-27_15h06.21.374,lexical_decision_task_MP_exp2,2020.2.5,Linux x86_64,60,,z,1,0.78395,,,,,,,,0.78395,1,,,,,,257,NW,UN,16,poluth,VENIOD,z,,,,,,0.041111111,-0.416666667,0,0,0,,0,7,7,436,1,,
,,,,,,,,,,,,,,,,,,5e52baa6e8efe2000dbdee79,2020-11-27_15h06.21.374,lexical_decision_task_MP_exp2,2020.2.5,Linux x86_64,60,,z,1,0.71859,,,,,,,,0.71859,1,,,,,,246,NW,UN,16,blarge,PIATON,z,,,,,,0.041111111,-0.416666667,0,0,0,,0,8,8,425,1,,
,,,,,,,,,,,,,,,,,,5e52baa6e8efe2000dbdee79,2020-11-27_15h06.21.374,lexical_decision_task_MP_exp2,2020.2.5,Linux x86_64,60,,z,1,0.61036,,,,,,,,0.61036,1,,,,,,316,NW,"ID",33,scregm,SCREGM,z,,,,,,0.041111111,-0.416666667,0,0,0,,0,9,9,255,1,,
,,,,,,,,,,,,,,,,,,5e52baa6e8efe2000dbdee79,2020-11-27_15h06.21.374,lexical_decision_task_MP_exp2,2020.2.5,Linux x86_64,60,,z,1,0.67537,,,,,,,,0.67537,1,,,,,,255,NW,UN,16,inlors,APIGHT,z,,,,,,0.041111111,-0.416666667,0,0,0,,0,10,10,434,1,,
,,,,,,,,,,,,,,,,,,5e52baa6e8efe2000dbdee79,2020-11-27_15h06.21.374,lexical_decision_task_MP_exp2,2020.2.5,Linux x86_64,60,,m,1,0.568555,,,,,,,,0.568555,1,,,,,,109,WORD,"ID",33,wonder,WONDER,m,,,,,,0.041111111,-0.416666667,0,0,0,,0,11,11,48,1,,
,,,,,,,,,,,,,,,,,,5e52baa6e8efe2000dbdee79,2020-11-27_15h06.21.374,lexical_decision_task_MP_exp2,2020.2.5,Linux x86_64,60,,z,1,0.7049,,,,,,,,0.7049,1,,,,,,371,NW,"ID",16,geiloy,GEILOY,z,,,,,,0.041111111,-0.416666667,0,0,0,,0,12,12,310,1,,
,,,,,,,,,,,,,,,,,,5e52baa6e8efe2000dbdee79,2020-11-27_15h06.21.374,lexical_decision_task_MP_exp2,2020.2.5,Linux x86_64,60,,m,1,0.56648,,,,,,,,0.56648,1,,,,,,91,WORD,"ID",33,expand,EXPAND,m,,,,,,0.041111111,-0.416666667,0,0,0,,0,13,13,30,1,,
,,,,,,,,,,,,,,,,,,5e52baa6e8efe2000dbdee79,2020-11-27_15h06.21.374,lexical_decision_task_MP_exp2,2020.2.5,Linux x86_64,60,,m,1,0.6251,,,,,,,,0.6251,1,,,,,,103,WORD,"ID",33,bounce,BOUNCE,m,,,,,,0.041111111,-0.416666667,0,0,0,,0,14,14,42,1,,
,,,,,,,,,,,,,,,,,,5e52baa6e8efe2000dbdee79,2020-11-27_15h06.21.374,lexical_decision_task_MP_exp2,2020.2.5,Linux x86_64,60,,m,1,0.54267,,,,,,,,0.54267,1,,,,,,57,WORD,UN,16,danger,CHANGE,m,,,,,,0.041111111,-0.416666667,0,0,0,,0,15,15,236,1,,
,,,,,,,,,,,,,,,,,,5e52baa6e8efe2000dbdee79,2020-11-27_15h06.21.374,lexical_decision_task_MP_exp2,2020.2.5,Linux x86_64,60,,m,1,0.566625,,,,,,,,0.566625,1,,,,,,205,WORD,UN,33,tailor,LOUNGE,m,,,,,,0.041111111,-0.416666667,0,0,0,,0,16,16,144,1,,
,,,,,,,,,,,,,,,,,,5e52baa6e8efe2000dbdee79,2020-11-27_15h06.21.374,lexical_decision_task_MP_exp2,2020.2.5,Linux x86_64,60,,m,1,0.600525,,,,,,,,0.600525,1,,,,,,203,WORD,UN,33,burden,PHRASE,m,,,,,,0.041111111,-0.416666667,0,0,0,,0,17,17,142,1,,
,,,,,,,,,,,,,,,,,,5e52baa6e8efe2000dbdee79,2020-11-27_15h06.21.374,lexical_decision_task_MP_exp2,2020.2.5,Linux x86_64,60,,z,1,0.58425,,,,,,,,0.58425,1,,,,,,241,NW,UN,16,unwert,SMENCO,z,,,,,,0.041111111,-0.416666667,0,0,0,,0,18,18,420,1,,
,,,,,,,,,,,,,,,,,,5e52baa6e8efe2000dbdee79,2020-11-27_15h06.21.374,lexical_decision_task_MP_exp2,2020.2.5,Linux x86_64,60,,m,1,0.60544,,,,,,,,0.60544,1,,,,,,219,WORD,UN,33,voyage,BUCKET,m,,,,,,0.041111111,-0.416666667,0,0,0,,0,19,19,158,1,,
,,,,,,,,,,,,,,,,,,5e52baa6e8efe2000dbdee79,2020-11-27_15h06.21.374,lexical_decision_task_MP_exp2,2020.2.5,Linux x86_64,60,,m,1,0.652865,,,,,,,,0.652865,1,,,,,,130,WORD,"ID",16,stupid,STUPID,m,,,,,,0.041111111,-0.416666667,0,0,0,,0,20,20,69,1,,
,,,,,,,,,,,,,,,,,,5e52baa6e8efe2000dbdee79,2020-11-27_15h06.21.374,lexical_decision_task_MP_exp2,2020.2.5,Linux x86_64,60,,m,1,0.67335,,,,,,,,0.67335,1,,,,,,211,WORD,UN,33,verify,INFECT,m,,,,,,0.041111111,-0.416666667,0,0,0,,0,21,21,150,1,,
,,,,,,,,,,,,,,,,,,5e52baa6e8efe2000dbdee79,2020-11-27_15h06.21.374,lexical_decision_task_MP_exp2,2020.2.5,Linux x86_64,60,,m,1,0.570505,,,,,,,,0.570505,1,,,,,,32,WORD,UN,16,scream,BUCKLE,m,,,,,,0.041111111,-0.416666667,0,0,0,,0,22,22,211,1,,
,,,,,,,,,,,,,,,,,,5e52baa6e8efe2000dbdee79,2020-11-27_15h06.21.374,lexical_decision_task_MP_exp2,2020.2.5,Linux x86_64,60,,z,1,0.740545,,,,,,,,0.740545,1,,,,,,392,NW,"ID",16,rouncy,ROUNCY,z,,,,,,0.041111111,-0.416666667,0,0,0,,0,23,23,331,1,,
,,,,,,,,,,,,,,,,,,5e52baa6e8efe2000dbdee79,2020-11-27_15h06.21.374,lexical_decision_task_MP_exp2,2020.2.5,Linux x86_64,60,,m,0,0.69809,,,,,,,,0.69809,0,,,,,,439,NW,UN,33,saride,LIMPOR,z,,,,,,0.041111111,-0.416666667,0,0,0,,0,24,24,378,1,,
,,,,,,,,,,,,,,,,,,5e52baa6e8efe2000dbdee79,2020-11-27_15h06.21.374,lexical_decision_task_MP_exp2,2020.2.5,Linux x86_64,60,,z,1,0.72516,,,,,,,,0.72516,1,,,,,,388,NW,"ID",16,cragin,CRAGIN,z,,,,,,0.041111111,-0.416666667,0,0,0,,0,25,25,327,1,,
,,,,,,,,,,,,,,,,,,5e52baa6e8efe2000dbdee79,2020-11-27_15h06.21.374,lexical_decision_task_MP_exp2,2020.2.5,Linux x86_64,60,,m,1,0.619035,,,,,,,,0.619035,1,,,,,,87,WORD,"ID",33,filter,FILTER,m,,,,,,0.041111111,-0.416666667,0,0,0,,0,26,26,26,1,,
,,,,,,,,,,,,,,,,,,5e52baa6e8efe2000dbdee79,2020-11-27_15h06.21.374,lexical_decision_task_MP_exp2,2020.2.5,Linux x86_64,60,,m,1,0.73378,,,,,,,,0.73378,1,,,,,,134,WORD,"ID",16,staple,STAPLE,m,,,,,,0.041111111,-0.416666667,0,0,0,,0,27,27,73,1,,
,,,,,,,,,,,,,,,,,,5e52baa6e8efe2000dbdee79,2020-11-27_15h06.21.374,lexical_decision_task_MP_exp2,2020.2.5,Linux x86_64,60,,m,1,0.98338,,,,,,,,0.98338,1,,,,,,207,WORD,UN,33,hockey,WREATH,m,,,,,,0.041111111,-0.416666667,0,0,0,,0,28,28,146,1,,
,,,,,,,,,,,,,,,,,,5e52baa6e8efe2000dbdee79,2020-11-27_15h06.21.374,lexical_decision_task_MP_exp2,2020.2.5,Linux x86_64,60,,z,1,0.903555,,,,,,,,0.903555,1,,,,,,429,NW,UN,33,caroey,FUNTLE,z,,,,,,0.041111111,-0.416666667,0,0,0,,0,29,29,368,1,,
,,,,,,,,,,,,,,,,,,5e52baa6e8efe2000dbdee79,2020-11-27_15h06.21.374,lexical_decision_task_MP_exp2,2020.2.5,Linux x86_64,60,,m,1,0.8032,,,,,,,,0.8032,1,,,,,,60,WORD,UN,16,fright,PENCIL,m,,,,,,0.041111111,-0.416666667,0,0,0,,0,30,30,239,1,,
,,,,,,,,,,,,,,,,,,5e52baa6e8efe2000dbdee79,2020-11-27_15h06.21.374,lexical_decision_task_MP_exp2,2020.2.5,Linux x86_64,60,,z,1,0.69413,,,,,,,,0.69413,1,,,,,,312,NW,"ID",33,nerawl,NERAWL,z,,,,,,0.041111111,-0.416666667,0,0,0,,0,31,31,251,1,,
,,,,,,,,,,,,,,,,,,5e52baa6e8efe2000dbdee79,2020-11-27_15h06.21.374,lexical_decision_task_MP_exp2,2020.2.5,Linux x86_64,60,,z,1,0.7022,,,,,,,,0.7022,1,,,,,,321,NW,"ID",33,miator,MIATOR,z,,,,,,0.041111111,-0.416666667,0,0,0,,0,32,32,260,1,,
,,,,,,,,,,,,,,,,,,5e52baa6e8efe2000dbdee79,2020-11-27_15h06.21.374,lexical_decision_task_MP_exp2,2020.2.5,Linux x86_64,60,,m,1,0.55372,,,,,,,,0.55372,1,,,,,,119,WORD,"ID",33,spider,SPIDER,m,,,,,,0.041111111,-0.416666667,0,0,0,,0,33,33,58,1,,
,,,,,,,,,,,,,,,,,,5e52baa6e8efe2000dbdee79,2020-11-27_15h06.21.374,lexical_decision_task_MP_exp2,2020.2.5,Linux x86_64,60,,z,1,0.73306,,,,,,,,0.73306,1,,,,,,342,NW,"ID",33,randow,RANDOW,z,,,,,,0.041111111,-0.416666667,0,0,0,,0,34,34,281,1,,
,,,,,,,,,,,,,,,,,,5e52baa6e8efe2000dbdee79,2020-11-27_15h06.21.374,lexical_decision_task_MP_exp2,2020.2.5,Linux x86_64,60,,z,0,1.28931,,,,,,,,1.28931,0,,,,,,195,WORD,UN,33,credit,RESIGN,m,,,,,,0.041111111,-0.416666667,0,0,0,,0,35,35,134,1,,
,,,,,,,,,,,,,,,,,,5e52baa6e8efe2000dbdee79,2020-11-27_15h06.21.374,lexical_decision_task_MP_exp2,2020.2.5,Linux x86_64,60,,m,1,0.703175,,,,,,,,0.703175,1,,,,,,143,WORD,"ID",16,reason,REASON,m,,,,,,0.041111111,-0.416666667,0,0,0,,0,36,36,82,1,,
,,,,,,,,,,,,,,,,,,5e52baa6e8efe2000dbdee79,2020-11-27_15h06.21.374,lexical_decision_task_MP_exp2,2020.2.5,Linux x86_64,60,,z,1,0.72388,,,,,,,,0.72388,1,,,,,,430,NW,UN,33,chrums,CAROEY,z,,,,,,0.041111111,-0.416666667,0,0,0,,0,37,37,369,1,,
,,,,,,,,,,,,,,,,,,5e52baa6e8efe2000dbdee79,2020-11-27_15h06.21.374,lexical_decision_task_MP_exp2,2020.2.5,Linux x86_64,60,,m,1,1.041145,,,,,,,,1.041145,1,,,,,,138,WORD,"ID",16,melody,MELODY,m,,,,,,0.041111111,-0.416666667,0,0,0,,0,38,38,77,1,,
,,,,,,,,,,,,,,,,,,5e52baa6e8efe2000dbdee79,2020-11-27_15h06.21.374,lexical_decision_task_MP_exp2,2020.2.5,Linux x86_64,60,,m,1,0.66732,,,,,,,,0.66732,1,,,,,,15,WORD,UN,16,faucet,AMOUNT,m,,,,,,0.041111111,-0.416666667,0,0,0,,0,39,39,194,1,,
,,,,,,,,,,,,,,,,,,5e52baa6e8efe2000dbdee79,2020-11-27_15h06.21.374,lexical_decision_task_MP_exp2,2020.2.5,Linux x86_64,60,,z,1,0.76034,,,,,,,,0.76034,1,,,,,,444,NW,UN,33,minkel,JAUNCE,z,,,,,,0.041111111,-0.416666667,0,0,0,,0,40,40,383,1,,
,,,,,,,,,,,,,,,,,,5e52baa6e8efe2000dbdee79,2020-11-27_15h06.21.374,lexical_decision_task_MP_exp2,2020.2.5,Linux x86_64,60,,m,1,0.70045,,,,,,,,0.70045,1,,,,,,3,WORD,UN,16,trench,KNIGHT,m,,,,,,0.041111111,-0.416666667,0,0,0,,0,41,41,182,1,,
,,,,,,,,,,,,,,,,,,5e52baa6e8efe2000dbdee79,2020-11-27_15h06.21.374,lexical_decision_task_MP_exp2,2020.2.5,Linux x86_64,60,,z,1,0.90266,,,,,,,,0.90266,1,,,,,,327,NW,"ID",33,plenac,PLENAC,z,,,,,,0.041111111,-0.416666667,0,0,0,,0,42,42,266,1,,
,,,,,,,,,,,,,,,,,,5e52baa6e8efe2000dbdee79,2020-11-27_15h06.21.374,lexical_decision_task_MP_exp2,2020.2.5,Linux x86_64,60,,z,1,0.690025,,,,,,,,0.690025,1,,,,,,288,NW,UN,16,starby,YACEUP,z,,,,,,0.041111111,-0.416666667,0,0,0,,0,43,43,467,1,,
,,,,,,,,,,,,,,,,,,5e52baa6e8efe2000dbdee79,2020-11-27_15h06.21.374,lexical_decision_task_MP_exp2,2020.2.5,Linux x86_64,60,,z,1,0.54865,,,,,,,,0.54865,1,,,,,,435,NW,UN,33,frutan,IMPURB,z,,,,,,0.041111111,-0.416666667,0,0,0,,0,44,44,374,1,,
,,,,,,,,,,,,,,,,,,5e52baa6e8efe2000dbdee79,2020-11-27_15h06.21.374,lexical_decision_task_MP_exp2,2020.2.5,Linux x86_64,60,,m,1,0.60024,,,,,,,,0.60024,1,,,,,,49,WORD,UN,16,snatch,SURVEY,m,,,,,,0.041111111,-0.416666667,0,0,0,,0,45,45,228,1,,
,,,,,,,,,,,,,,,,,,5e52baa6e8efe2000dbdee79,2020-11-27_15h06.21.374,lexical_decision_task_MP_exp2,2020.2.5,Linux x86_64,60,,z,1,0.739305,,,,,,,,0.739305,1,,,,,,323,NW,"ID",33,rosail,ROSAIL,z,,,,,,0.041111111,-0.416666667,0,0,0,,0,46,46,262,1,,
,,,,,,,,,,,,,,,,,,5e52baa6e8efe2000dbdee79,2020-11-27_15h06.21.374,lexical_decision_task_MP_exp2,2020.2.5,Linux x86_64,60,,z,1,0.602965,,,,,,,,0.602965,1,,,,,,365,NW,"ID",16,guairt,GUAIRT,z,,,,,,0.041111111,-0.416666667,0,0,0,,0,47,47,304,1,,
,,,,,,,,,,,,,,,,,,5e52baa6e8efe2000dbdee79,2020-11-27_15h06.21.374,lexical_decision_task_MP_exp2,2020.2.5,Linux x86_64,60,,z,1,0.954745,,,,,,,,0.954745,1,,,,,,248,NW,UN,16,batrol,STROLE,z,,,,,,0.041111111,-0.416666667,0,0,0,,0,48,48,427,1,,
,,,,,,,,,,,,,,,,,,5e52baa6e8efe2000dbdee79,2020-11-27_15h06.21.374,lexical_decision_task_MP_exp2,2020.2.5,Linux x86_64,60,,z,1,0.518545,,,,,,,,0.518545,1,,,,,,363,NW,"ID",16,breali,BREALI,z,,,,,,0.041111111,-0.416666667,0,0,0,,0,49,49,302,1,,
,,,,,,,,,,,,,,,,,,5e52baa6e8efe2000dbdee79,2020-11-27_15h06.21.374,lexical_decision_task_MP_exp2,2020.2.5,Linux x86_64,60,,z,1,0.954275,,,,,,,,0.954275,1,,,,,,273,NW,UN,16,fumblo,SORTEL,z,,,,,,0.041111111,-0.416666667,0,0,0,,0,50,50,452,1,,
,,,,,,,,,,,,,,,,,,5e52baa6e8efe2000dbdee79,2020-11-27_15h06.21.374,lexical_decision_task_MP_exp2,2020.2.5,Linux x86_64,60,,m,1,0.63126,,,,,,,,0.63126,1,,,,,,56,WORD,UN,16,change,AMBUSH,m,,,,,,0.041111111,-0.416666667,0,0,0,,0,51,51,235,1,,
,,,,,,,,,,,,,,,,,,5e52baa6e8efe2000dbdee79,2020-11-27_15h06.21.374,lexical_decision_task_MP_exp2,2020.2.5,Linux x86_64,60,,z,1,0.865725,,,,,,,,0.865725,1,,,,,,434,NW,UN,33,impurb,PITROM,z,,,,,,0.041111111,-0.416666667,0,0,0,,0,52,52,373,1,,
,,,,,,,,,,,,,,,,,,5e52baa6e8efe2000dbdee79,2020-11-27_15h06.21.374,lexical_decision_task_MP_exp2,2020.2.5,Linux x86_64,60,,z,1,1.05158,,,,,,,,1.05158,1,,,,,,420,NW,"ID",16,gushop,GUSHOP,z,,,,,,0.041111111,-0.416666667,0,0,0,,0,53,53,359,1,,
,,,,,,,,,,,,,,,,,,5e52baa6e8efe2000dbdee79,2020-11-27_15h06.21.374,lexical_decision_task_MP_exp2,2020.2.5,Linux x86_64,60,,z,1,0.71862,,,,,,,,0.71862,1,,,,,,252,NW,UN,16,resait,STAPOD,z,,,,,,0.041111111,-0.416666667,0,0,0,,0,54,54,431,1,,
,,,,,,,,,,,,,,,,,,5e52baa6e8efe2000dbdee79,2020-11-27_15h06.21.374,lexical_decision_task_MP_exp2,2020.2.5,Linux x86_64,60,,z,1,0.783115,,,,,,,,0.783115,1,,,,,,377,NW,"ID",16,injore,INJORE,z,,,,,,0.041111111,-0.416666667,0,0,0,,0,55,55,316,1,,
,,,,,,,,,,,,,,,,,,5e52baa6e8efe2000dbdee79,2020-11-27_15h06.21.374,lexical_decision_task_MP_exp2,2020.2.5,Linux x86_64,60,,z,1,0.623115,,,,,,,,0.623115,1,,,,,,389,NW,"ID",16,witmer,WITMER,z,,,,,,0.041111111,-0.416666667,0,0,0,,0,56,56,328,1,,
,,,,,,,,,,,,,,,,,,5e52baa6e8efe2000dbdee79,2020-11-27_15h06.21.374,lexical_decision_task_MP_exp2,2020.2.5,Linux x86_64,60,,z,1,0.58358,,,,,,,,0.58358,1,,,,,,294,NW,UN,16,gleath,INHORT,z,,,,,,0.041111111,-0.416666667,0,0,0,,0,57,57,473,1,,
,,,,,,,,,,,,,,,,,,5e52baa6e8efe2000dbdee79,2020-11-27_15h06.21.374,lexical_decision_task_MP_exp2,2020.2.5,Linux x86_64,60,,m,1,0.670695,,,,,,,,0.670695,1,,,,,,186,WORD,UN,33,course,PORTAL,m,,,,,,0.041111111,-0.416666667,0,0,0,,0,58,58,125,1,,
,,,,,,,,,,,,,,,,,,5e52baa6e8efe2000dbdee79,2020-11-27_15h06.21.374,lexical_decision_task_MP_exp2,2020.2.5,Linux x86_64,60,,m,1,0.791745,,,,,,,,0.791745,1,,,,,,1,WORD,UN,16,ethnic,FRIGHT,m,,,,,,0.041111111,-0.416666667,0,0,0,,0,59,59,180,1,,
,,,,,,,,,,,,,,,,,,5e52baa6e8efe2000dbdee79,2020-11-27_15h06.21.374,lexical_decision_task_MP_exp2,2020.2.5,Linux x86_64,60,,z,1,0.71707,,,,,,,,0.71707,1,,,,,,419,NW,"ID",16,slount,SLOUNT,z,,,,,,0.041111111,-0.416666667,0,0,0,,0,60,60,358,1,,
,,,,,,,,,,,,,,,,,,5e52baa6e8efe2000dbdee79,2020-11-27_15h06.21.374,lexical_decision_task_MP_exp2,2020.2.5,Linux x86_64,60,,m,1,0.626705,,,,,,,,0.626705,1,,,,,,47,WORD,UN,16,walnut,INCOME,m,,,,,,0.041111111,-0.416666667,0,0,0,,0,61,61,226,1,,
,,,,,,,,,,,,,,,,,,5e52baa6e8efe2000dbdee79,2020-11-27_15h06.21.374,lexical_decision_task_MP_exp2,2020.2.5,Linux x86_64,60,,z,1,0.63587,,,,,,,,0.63587,1,,,,,,256,NW,UN,16,veniod,INLORS,z,,,,,,0.041111111,-0.416666667,0,0,0,,0,62,62,435,1,,
,,,,,,,,,,,,,,,,,,5e52baa6e8efe2000dbdee79,2020-11-27_15h06.21.374,lexical_decision_task_MP_exp2,2020.2.5,Linux x86_64,60,,m,1,0.64994,,,,,,,,0.64994,1,,,,,,145,WORD,"ID",16,parish,PARISH,m,,,,,,0.041111111,-0.416666667,0,0,0,,0,63,63,84,1,,
,,,,,,,,,,,,,,,,,,5e52baa6e8efe2000dbdee79,2020-11-27_15h06.21.374,lexical_decision_task_MP_exp2,2020.2.5,Linux x86_64,60,,z,1,0.708185,,,,,,,,0.708185,1,,,,,,326,NW,"ID",33,iguade,IGUADE,z,,,,,,0.041111111,-0.416666667,0,0,0,,0,64,64,265,1,,
,,,,,,,,,,,,,,,,,,5e52baa6e8efe2000dbdee79,2020-11-27_15h06.21.374,lexical_decision_task_MP_exp2,2020.2.5,Linux x86_64,60,,m,1,0.618955,,,,,,,,0.618955,1,,,,,,164,WORD,"ID",16,market,MARKET,m,,,,,,0.041111111,-0.416666667,0,0,0,,0,65,65,103,1,,
,,,,,,,,,,,,,,,,,,5e52baa6e8efe2000dbdee79,2020-11-27_15h06.21.374,lexical_decision_task_MP_exp2,2020.2.5,Linux x86_64,60,,z,1,0.582735,,,,,,,,0.582735,1,,,,,,331,NW,"ID",33,gilfew,GILFEW,z,,,,,,0.041111111,-0.416666667,0,0,0,,0,66,66,270,1,,
,,,,,,,,,,,,,,,,,,5e52baa6e8efe2000dbdee79,2020-11-27_15h06.21.374,lexical_decision_task_MP_exp2,2020.2.5,Linux x86_64,60,,z,1,0.916105,,,,,,,,0.916105,1,,,,,,318,NW,"ID",33,reagly,REAGLY,z,,,,,,0.041111111,-0.416666667,0,0,0,,0,67,67,257,1,,
,,,,,,,,,,,,,,,,,,5e52baa6e8efe2000dbdee79,2020-11-27_15h06.21.374,lexical_decision_task_MP_exp2,2020.2.5,Linux x86_64,60,,m,1,0.57328,,,,,,,,0.57328,1,,,,,,71,WORD,"ID",33,garden,GARDEN,m,,,,,,0.041111111,-0.416666667,0,0,0,,0,68,68,10,1,,
,,,,,,,,,,,,,,,,,,5e52baa6e8efe2000dbdee79,2020-11-27_15h06.21.374,lexical_decision_task_MP_exp2,2020.2.5,Linux x86_64,60,,z,1,0.63565,,,,,,,,0.63565,1,,,,,,330,NW,"ID",33,kensom,KENSOM,z,,,,,,0.041111111,-0.416666667,0,0,0,,0,69,69,269,1,,
,,,,,,,,,,,,,,,,,,5e52baa6e8efe2000dbdee79,2020-11-27_15h06.21.374,lexical_decision_task_MP_exp2,2020.2.5,Linux x86_64,60,,z,1,0.766995,,,,,,,,0.766995,1,,,,,,423,NW,UN,33,praile,STRELD,z,,,,,,0.041111111,-0.416666667,0,0,0,,0,70,70,362,1,,
,,,,,,,,,,,,,,,,,,5e52baa6e8efe2000dbdee79,2020-11-27_15h06.21.374,lexical_decision_task_MP_exp2,2020.2.5,Linux x86_64,60,,m,1,0.599645,,,,,,,,0.599645,1,,,,,,81,WORD,"ID",33,friend,FRIEND,m,,,,,,0.041111111,-0.416666667,0,0,0,,0,71,71,20,1,,
,,,,,,,,,,,,,,,,,,5e52baa6e8efe2000dbdee79,2020-11-27_15h06.21.374,lexical_decision_task_MP_exp2,2020.2.5,Linux x86_64,60,,m,1,0.66805,,,,,,,,0.66805,1,,,,,,192,WORD,UN,33,object,PLAGUE,m,,,,,,0.041111111,-0.416666667,0,0,0,,0,72,72,131,1,,
,,,,,,,,,,,,,,,,,,5e52baa6e8efe2000dbdee79,2020-11-27_15h06.21.374,lexical_decision_task_MP_exp2,2020.2.5,Linux x86_64,60,,m,1,0.800255,,,,,,,,0.800255,1,,,,,,82,WORD,"ID",33,stigma,STIGMA,m,,,,,,0.041111111,-0.416666667,0,0,0,,0,73,73,21,1,,
,,,,,,,,,,,,,,,,,,5e52baa6e8efe2000dbdee79,2020-11-27_15h06.21.374,lexical_decision_task_MP_exp2,2020.2.5,Linux x86_64,60,,m,1,0.66893,,,,,,,,0.66893,1,,,,,,125,WORD,"ID",16,nickel,NICKEL,m,,,,,,0.041111111,-0.416666667,0,0,0,,0,74,74,64,1,,
,,,,,,,,,,,,,,,,,,5e52baa6e8efe2000dbdee79,2020-11-27_15h06.21.374,lexical_decision_task_MP_exp2,2020.2.5,Linux x86_64,60,,z,1,0.617125,,,,,,,,0.617125,1,,,,,,320,NW,"ID",33,jockal,JOCKAL,z,,,,,,0.041111111,-0.416666667,0,0,0,,0,75,75,259,1,,
,,,,,,,,,,,,,,,,,,5e52baa6e8efe2000dbdee79,2020-11-27_15h06.21.374,lexical_decision_task_MP_exp2,2020.2.5,Linux x86_64,60,,z,1,0.755695,,,,,,,,0.755695,1,,,,,,258,NW,UN,16,soudal,POLUTH,z,,,,,,0.041111111,-0.416666667,0,0,0,,0,76,76,437,1,,
,,,,,,,,,,,,,,,,,,5e52baa6e8efe2000dbdee79,2020-11-27_15h06.21.374,lexical_decision_task_MP_exp2,2020.2.5,Linux x86_64,60,,z,1,0.68301,,,,,,,,0.68301,1,,,,,,431,NW,UN,33,lunker,CHRUMS,z,,,,,,0.041111111,-0.416666667,0,0,0,,0,77,77,370,1,,
,,,,,,,,,,,,,,,,,,5e52baa6e8efe2000dbdee79,2020-11-27_15h06.21.374,lexical_decision_task_MP_exp2,2020.2.5,Linux x86_64,60,,m,1,0.58907,,,,,,,,0.58907,1,,,,,,50,WORD,UN,16,hungry,SNATCH,m,,,,,,0.041111111,-0.416666667,0,0,0,,0,78,78,229,1,,
,,,,,,,,,,,,,,,,,,5e52baa6e8efe2000dbdee79,2020-11-27_15h06.21.374,lexical_decision_task_MP_exp2,2020.2.5,Linux x86_64,60,,m,1,0.91641,,,,,,,,0.91641,1,,,,,,19,WORD,UN,16,breast,PATRON,m,,,,,,0.041111111,-0.416666667,0,0,0,,0,79,79,198,1,,
,,,,,,,,,,,,,,,,,,5e52baa6e8efe2000dbdee79,2020-11-27_15h06.21.374,lexical_decision_task_MP_exp2,2020.2.5,Linux x86_64,60,,z,1,0.58569,,,,,,,,0.58569,1,,,,,,393,NW,"ID",16,ganous,GANOUS,z,,,,,,0.041111111,-0.416666667,0,0,0,,0,80,80,332,1,,
,,,,,,,,,,,,,,,,,,5e52baa6e8efe2000dbdee79,2020-11-27_15h06.21.374,lexical_decision_task_MP_exp2,2020.2.5,Linux x86_64,60,,z,1,0.583085,,,,,,,,0.583085,1,,,,,,447,NW,UN,33,sadent,GIRCUE,z,,,,,,0.041111111,-0.416666667,0,0,0,,0,81,81,386,1,,
,,,,,,,,,,,,,,,,,,5e52baa6e8efe2000dbdee79,2020-11-27_15h06.21.374,lexical_decision_task_MP_exp2,2020.2.5,Linux x86_64,60,,z,1,0.714715,,,,,,,,0.714715,1,,,,,,387,NW,"ID",16,gronce,GRONCE,z,,,,,,0.041111111,-0.416666667,0,0,0,,0,82,82,326,1,,
,,,,,,,,,,,,,,,,,,5e52baa6e8efe2000dbdee79,2020-11-27_15h06.21.374,lexical_decision_task_MP_exp2,2020.2.5,Linux x86_64,60,,z,1,0.52536,,,,,,,,0.52536,1,,,,,,467,NW,UN,33,wictor,GORBIE,z,,,,,,0.041111111,-0.416666667,0,0,0,,0,83,83,406,1,,
,,,,,,,,,,,,,,,,,,5e52baa6e8efe2000dbdee79,2020-11-27_15h06.21.374,lexical_decision_task_MP_exp2,2020.2.5,Linux x86_64,60,,z,1,0.5703,,,,,,,,0.5703,1,,,,,,279,NW,UN,16,curbol,CELOND,z,,,,,,0.041111111,-0.416666667,0,0,0,,0,84,84,458,1,,
,,,,,,,,,,,,,,,,,,5e52baa6e8efe2000dbdee79,2020-11-27_15h06.21.374,lexical_decision_task_MP_exp2,2020.2.5,Linux x86_64,60,,z,1,0.77456,,,,,,,,0.77456,1,,,,,,399,NW,"ID",16,fouret,FOURET,z,,,,,,0.041111111,-0.416666667,0,0,0,,0,85,85,338,1,,
,,,,,,,,,,,,,,,,,,5e52baa6e8efe2000dbdee79,2020-11-27_15h06.21.374,lexical_decision_task_MP_exp2,2020.2.5,Linux x86_64,60,,z,1,0.633385,,,,,,,,0.633385,1,,,,,,357,NW,"ID",33,derain,DERAIN,z,,,,,,0.041111111,-0.416666667,0,0,0,,0,86,86,296,1,,
,,,,,,,,,,,,,,,,,,5e52baa6e8efe2000dbdee79,2020-11-27_15h06.21.374,lexical_decision_task_MP_exp2,2020.2.5,Linux x86_64,60,,m,1,0.62335,,,,,,,,0.62335,1,,,,,,61,WORD,"ID",33,ponder,PONDER,m,,,,,,0.041111111,-0.416666667,0,0,0,,0,87,87,0,1,,
,,,,,,,,,,,,,,,,,,5e52baa6e8efe2000dbdee79,2020-11-27_15h06.21.374,lexical_decision_task_MP_exp2,2020.2.5,Linux x86_64,60,,m,1,0.605815,,,,,,,,0.605815,1,,,,,,222,WORD,UN,33,export,HINDER,m,,,,,,0.041111111,-0.416666667,0,0,0,,0,88,88,161,1,,
,,,,,,,,,,,,,,,,,,5e52baa6e8efe2000dbdee79,2020-11-27_15h06.21.374,lexical_decision_task_MP_exp2,2020.2.5,Linux x86_64,60,,m,1,0.683025,,,,,,,,0.683025,1,,,,,,120,WORD,"ID",33,strain,STRAIN,m,,,,,,0.041111111,-0.416666667,0,0,0,,0,89,89,59,1,,
,,,,,,,,,,,,,,,,,,5e52baa6e8efe2000dbdee79,2020-11-27_15h06.21.374,lexical_decision_task_MP_exp2,2020.2.5,Linux x86_64,60,,m,1,0.591365,,,,,,,,0.591365,1,,,,,,99,WORD,"ID",33,fluent,FLUENT,m,,,,,,0.041111111,-0.416666667,0,0,0,,0,90,90,38,1,,
,,,,,,,,,,,,,,,,,,5e52baa6e8efe2000dbdee79,2020-11-27_15h06.21.374,lexical_decision_task_MP_exp2,2020.2.5,Linux x86_64,60,,m,1,0.667335,,,,,,,,0.667335,1,,,,,,2,WORD,UN,16,knight,BRIDGE,m,,,,,,0.041111111,-0.416666667,0,0,0,,0,91,91,181,1,,
,,,,,,,,,,,,,,,,,,5e52baa6e8efe2000dbdee79,2020-11-27_15h06.21.374,lexical_decision_task_MP_exp2,2020.2.5,Linux x86_64,60,,z,1,1.058025,,,,,,,,1.058025,1,,,,,,438,NW,UN,33,limpor,BAITCH,z,,,,,,0.041111111,-0.416666667,0,0,0,,0,92,92,377,1,,
,,,,,,,,,,,,,,,,,,5e52baa6e8efe2000dbdee79,2020-11-27_15h06.21.374,lexical_decision_task_MP_exp2,2020.2.5,Linux x86_64,60,,z,1,0.649715,,,,,,,,0.649715,1,,,,,,269,NW,UN,16,wrimsy,ORCHET,z,,,,,,0.041111111,-0.416666667,0,0,0,,0,93,93,448,1,,
,,,,,,,,,,,,,,,,,,5e52baa6e8efe2000dbdee79,2020-11-27_15h06.21.374,lexical_decision_task_MP_exp2,2020.2.5,Linux x86_64,60,,m,1,0.655895,,,,,,,,0.655895,1,,,,,,236,WORD,UN,33,grumpy,PIRATE,m,,,,,,0.041111111,-0.416666667,0,0,0,,0,94,94,175,1,,
,,,,,,,,,,,,,,,,,,5e52baa6e8efe2000dbdee79,2020-11-27_15h06.21.374,lexical_decision_task_MP_exp2,2020.2.5,Linux x86_64,60,,z,1,0.685675,,,,,,,,0.685675,1,,,,,,374,NW,"ID",16,sliant,SLIANT,z,,,,,,0.041111111,-0.416666667,0,0,0,,0,95,95,313,1,,
,,,,,,,,,,,,,,,,,,5e52baa6e8efe2000dbdee79,2020-11-27_15h06.21.374,lexical_decision_task_MP_exp2,2020.2.5,Linux x86_64,60,,z,1,0.702205,,,,,,,,0.702205,1,,,,,,329,NW,"ID",33,yarike,YARIKE,z,,,,,,0.041111111,-0.416666667,0,0,0,,0,96,96,268,1,,
,,,,,,,,,,,,,,,,,,5e52baa6e8efe2000dbdee79,2020-11-27_15h06.21.374,lexical_decision_task_MP_exp2,2020.2.5,Linux x86_64,60,,z,1,0.639395,,,,,,,,0.639395,1,,,,,,283,NW,UN,16,shaple,VERALF,z,,,,,,0.041111111,-0.416666667,0,0,0,,0,97,97,462,1,,
,,,,,,,,,,,,,,,,,,5e52baa6e8efe2000dbdee79,2020-11-27_15h06.21.374,lexical_decision_task_MP_exp2,2020.2.5,Linux x86_64,60,,z,1,0.726805,,,,,,,,0.726805,1,,,,,,379,NW,"ID",16,auting,AUTING,z,,,,,,0.041111111,-0.416666667,0,0,0,,0,98,98,318,1,,
,,,,,,,,,,,,,,,,,,5e52baa6e8efe2000dbdee79,2020-11-27_15h06.21.374,lexical_decision_task_MP_exp2,2020.2.5,Linux x86_64,60,,m,1,0.5994,,,,,,,,0.5994,1,,,,,,115,WORD,"ID",33,guitar,GUITAR,m,,,,,,0.041111111,-0.416666667,0,0,0,,0,99,99,54,1,,
,,,,,,,,,,,,,,,,,,5e52baa6e8efe2000dbdee79,2020-11-27_15h06.21.374,lexical_decision_task_MP_exp2,2020.2.5,Linux x86_64,60,,z,1,0.65058,,,,,,,,0.65058,1,,,,,,355,NW,"ID",33,zingly,ZINGLY,z,,,,,,0.041111111,-0.416666667,0,0,0,,0,100,100,294,1,,
,,,,,,,,,,,,,,,,,,5e52baa6e8efe2000dbdee79,2020-11-27_15h06.21.374,lexical_decision_task_MP_exp2,2020.2.5,Linux x86_64,60,,m,1,0.866475,,,,,,,,0.866475,1,,,,,,224,WORD,UN,33,vulgar,PERIOD,m,,,,,,0.041111111,-0.416666667,0,0,0,,0,101,101,163,1,,
,,,,,,,,,,,,,,,,,,5e52baa6e8efe2000dbdee79,2020-11-27_15h06.21.374,lexical_decision_task_MP_exp2,2020.2.5,Linux x86_64,60,,z,1,0.656805,,,,,,,,0.656805,1,,,,,,324,NW,"ID",33,steikh,STEIKH,z,,,,,,0.041111111,-0.416666667,0,0,0,,0,102,102,263,1,,
,,,,,,,,,,,,,,,,,,5e52baa6e8efe2000dbdee79,2020-11-27_15h06.21.374,lexical_decision_task_MP_exp2,2020.2.5,Linux x86_64,60,,z,1,0.718085,,,,,,,,0.718085,1,,,,,,366,NW,"ID",16,toshel,TOSHEL,z,,,,,,0.041111111,-0.416666667,0,0,0,,0,103,103,305,1,,
,,,,,,,,,,,,,,,,,,5e52baa6e8efe2000dbdee79,2020-11-27_15h06.21.374,lexical_decision_task_MP_exp2,2020.2.5,Linux x86_64,60,,z,1,0.636335,,,,,,,,0.636335,1,,,,,,407,NW,"ID",16,suiver,SUIVER,z,,,,,,0.041111111,-0.416666667,0,0,0,,0,104,104,346,1,,
,,,,,,,,,,,,,,,,,,5e52baa6e8efe2000dbdee79,2020-11-27_15h06.21.374,lexical_decision_task_MP_exp2,2020.2.5,Linux x86_64,60,,z,1,0.566855,,,,,,,,0.566855,1,,,,,,334,NW,"ID",33,watmeg,WATMEG,z,,,,,,0.041111111,-0.416666667,0,0,0,,0,105,105,273,1,,
,,,,,,,,,,,,,,,,,,5e52baa6e8efe2000dbdee79,2020-11-27_15h06.21.374,lexical_decision_task_MP_exp2,2020.2.5,Linux x86_64,60,,z,1,0.56919,,,,,,,,0.56919,1,,,,,,416,NW,"ID",16,pathel,PATHEL,z,,,,,,0.041111111,-0.416666667,0,0,0,,0,106,106,355,1,,
,,,,,,,,,,,,,,,,,,5e52baa6e8efe2000dbdee79,2020-11-27_15h06.21.374,lexical_decision_task_MP_exp2,2020.2.5,Linux x86_64,60,,m,1,0.688965,,,,,,,,0.688965,1,,,,,,26,WORD,UN,16,butler,SPRINT,m,,,,,,0.041111111,-0.416666667,0,0,0,,0,107,107,205,1,,
,,,,,,,,,,,,,,,,,,5e52baa6e8efe2000dbdee79,2020-11-27_15h06.21.374,lexical_decision_task_MP_exp2,2020.2.5,Linux x86_64,60,,m,1,0.69816,,,,,,,,0.69816,1,,,,,,16,WORD,UN,16,charge,FAUCET,m,,,,,,0.041111111,-0.416666667,0,0,0,,0,108,108,195,1,,
,,,,,,,,,,,,,,,,,,5e52baa6e8efe2000dbdee79,2020-11-27_15h06.21.374,lexical_decision_task_MP_exp2,2020.2.5,Linux x86_64,60,,z,0,0.601935,,,,,,,,0.601935,0,,,,,,239,WORD,UN,33,forest,LUMBER,m,,,,,,0.041111111,-0.416666667,0,0,0,,0,109,109,178,1,,
,,,,,,,,,,,,,,,,,,5e52baa6e8efe2000dbdee79,2020-11-27_15h06.21.374,lexical_decision_task_MP_exp2,2020.2.5,Linux x86_64,60,,m,1,0.806325,,,,,,,,0.806325,1,,,,,,181,WORD,UN,33,winter,GLANCE,m,,,,,,0.041111111,-0.416666667,0,0,0,,0,110,110,120,1,,
,,,,,,,,,,,,,,,,,,5e52baa6e8efe2000dbdee79,2020-11-27_15h06.21.374,lexical_decision_task_MP_exp2,2020.2.5,Linux x86_64,60,,m,1,0.602855,,,,,,,,0.602855,1,,,,,,162,WORD,"ID",16,candle,CANDLE,m,,,,,,0.041111111,-0.416666667,0,0,0,,0,111,111,101,1,,
,,,,,,,,,,,,,,,,,,5e52baa6e8efe2000dbdee79,2020-11-27_15h06.21.374,lexical_decision_task_MP_exp2,2020.2.5,Linux x86_64,60,,m,1,0.622515,,,,,,,,0.622515,1,,,,,,110,WORD,"ID",33,polite,POLITE,m,,,,,,0.041111111,-0.416666667,0,0,0,,0,112,112,49,1,,
,,,,,,,,,,,,,,,,,,5e52baa6e8efe2000dbdee79,2020-11-27_15h06.21.374,lexical_decision_task_MP_exp2,2020.2.5,Linux x86_64,60,,m,1,0.66833,,,,,,,,0.66833,1,,,,,,191,WORD,UN,33,beacon,STABLE,m,,,,,,0.041111111,-0.416666667,0,0,0,,0,113,113,130,1,,
,,,,,,,,,,,,,,,,,,5e52baa6e8efe2000dbdee79,2020-11-27_15h06.21.374,lexical_decision_task_MP_exp2,2020.2.5,Linux x86_64,60,,m,1,0.572005,,,,,,,,0.572005,1,,,,,,137,WORD,"ID",16,finger,FINGER,m,,,,,,0.041111111,-0.416666667,0,0,0,,0,114,114,76,1,,
,,,,,,,,,,,,,,,,,,5e52baa6e8efe2000dbdee79,2020-11-27_15h06.21.374,lexical_decision_task_MP_exp2,2020.2.5,Linux x86_64,60,,z,1,0.60206,,,,,,,,0.60206,1,,,,,,264,NW,UN,16,distar,VACKEL,z,,,,,,0.041111111,-0.416666667,0,0,0,,0,115,115,443,1,,
,,,,,,,,,,,,,,,,,,5e52baa6e8efe2000dbdee79,2020-11-27_15h06.21.374,lexical_decision_task_MP_exp2,2020.2.5,Linux x86_64,60,,m,1,0.62259,,,,,,,,0.62259,1,,,,,,75,WORD,"ID",33,trophy,TROPHY,m,,,,,,0.041111111,-0.416666667,0,0,0,,0,116,116,14,1,,
,,,,,,,,,,,,,,,,,,5e52baa6e8efe2000dbdee79,2020-11-27_15h06.21.374,lexical_decision_task_MP_exp2,2020.2.5,Linux x86_64,60,,m,1,0.655505,,,,,,,,0.655505,1,,,,,,179,WORD,"ID",16,basket,BASKET,m,,,,,,0.041111111,-0.416666667,0,0,0,,0,117,117,118,1,,
,,,,,,,,,,,,,,,,,,5e52baa6e8efe2000dbdee79,2020-11-27_15h06.21.374,lexical_decision_task_MP_exp2,2020.2.5,Linux x86_64,60,,m,1,0.62384,,,,,,,,0.62384,1,,,,,,27,WORD,UN,16,comedy,SCREAM,m,,,,,,0.041111111,-0.416666667,0,0,0,,0,118,118,206,1,,
,,,,,,,,,,,,,,,,,,5e52baa6e8efe2000dbdee79,2020-11-27_15h06.21.374,lexical_decision_task_MP_exp2,2020.2.5,Linux x86_64,60,,m,1,0.700275,,,,,,,,0.700275,1,,,,,,88,WORD,"ID",33,hunger,HUNGER,m,,,,,,0.041111111,-0.416666667,0,0,0,,0,119,119,27,1,,
,,,,,,,,,,,,,,,,,,5e52baa6e8efe2000dbdee79,2020-11-27_15h06.21.374,lexical_decision_task_MP_exp2,2020.2.5,Linux x86_64,60,,m,1,0.6577,,,,,,,,0.6577,1,,,,,,96,WORD,"ID",33,ignore,IGNORE,m,,,,,,0.041111111,-0.416666667,0,0,0,space,0,120,120,35,1,32.571225,
,,,,,,,,,,,,,,,,,,5e52baa6e8efe2000dbdee79,2020-11-27_15h06.21.374,lexical_decision_task_MP_exp2,2020.2.5,Linux x86_64,60,,m,1,0.667025,,,,,,,,0.667025,1,,,,,,144,WORD,"ID",16,sponge,SPONGE,m,,,,,,0.041111111,-0.416666667,0,0,0,,0,121,121,83,1,,
,,,,,,,,,,,,,,,,,,5e52baa6e8efe2000dbdee79,2020-11-27_15h06.21.374,lexical_decision_task_MP_exp2,2020.2.5,Linux x86_64,60,,z,1,0.60661,,,,,,,,0.60661,1,,,,,,400,NW,"ID",16,wearox,WEAROX,z,,,,,,0.041111111,-0.416666667,0,0,0,,0,122,122,339,1,,
,,,,,,,,,,,,,,,,,,5e52baa6e8efe2000dbdee79,2020-11-27_15h06.21.374,lexical_decision_task_MP_exp2,2020.2.5,Linux x86_64,60,,z,1,0.70755,,,,,,,,0.70755,1,,,,,,477,NW,UN,33,lobush,PHOTIE,z,,,,,,0.041111111,-0.416666667,0,0,0,,0,123,123,416,1,,
,,,,,,,,,,,,,,,,,,5e52baa6e8efe2000dbdee79,2020-11-27_15h06.21.374,lexical_decision_task_MP_exp2,2020.2.5,Linux x86_64,60,,m,1,0.6273,,,,,,,,0.6273,1,,,,,,170,WORD,"ID",16,pounce,POUNCE,m,,,,,,0.041111111,-0.416666667,0,0,0,,0,124,124,109,1,,
,,,,,,,,,,,,,,,,,,5e52baa6e8efe2000dbdee79,2020-11-27_15h06.21.374,lexical_decision_task_MP_exp2,2020.2.5,Linux x86_64,60,,m,1,0.76621,,,,,,,,0.76621,1,,,,,,190,WORD,UN,33,stable,BACKUP,m,,,,,,0.041111111,-0.416666667,0,0,0,,0,125,125,129,1,,
,,,,,,,,,,,,,,,,,,5e52baa6e8efe2000dbdee79,2020-11-27_15h06.21.374,lexical_decision_task_MP_exp2,2020.2.5,Linux x86_64,60,,m,1,0.60243,,,,,,,,0.60243,1,,,,,,29,WORD,UN,16,orient,SKETCH,m,,,,,,0.041111111,-0.416666667,0,0,0,,0,126,126,208,1,,
,,,,,,,,,,,,,,,,,,5e52baa6e8efe2000dbdee79,2020-11-27_15h06.21.374,lexical_decision_task_MP_exp2,2020.2.5,Linux x86_64,60,,z,1,0.69952,,,,,,,,0.69952,1,,,,,,354,NW,"ID",33,virlex,VIRLEX,z,,,,,,0.041111111,-0.416666667,0,0,0,,0,127,127,293,1,,
,,,,,,,,,,,,,,,,,,5e52baa6e8efe2000dbdee79,2020-11-27_15h06.21.374,lexical_decision_task_MP_exp2,2020.2.5,Linux x86_64,60,,m,1,0.605505,,,,,,,,0.605505,1,,,,,,113,WORD,"ID",33,chorus,CHORUS,m,,,,,,0.041111111,-0.416666667,0,0,0,,0,128,128,52,1,,
,,,,,,,,,,,,,,,,,,5e52baa6e8efe2000dbdee79,2020-11-27_15h06.21.374,lexical_decision_task_MP_exp2,2020.2.5,Linux x86_64,60,,m,1,0.675565,,,,,,,,0.675565,1,,,,,,38,WORD,UN,16,insect,POWDER,m,,,,,,0.041111111,-0.416666667,0,0,0,,0,129,129,217,1,,
,,,,,,,,,,,,,,,,,,5e52baa6e8efe2000dbdee79,2020-11-27_15h06.21.374,lexical_decision_task_MP_exp2,2020.2.5,Linux x86_64,60,,z,1,0.70438,,,,,,,,0.70438,1,,,,,,403,NW,"ID",16,bruats,BRUATS,z,,,,,,0.041111111,-0.416666667,0,0,0,,0,130,130,342,1,,
,,,,,,,,,,,,,,,,,,5e52baa6e8efe2000dbdee79,2020-11-27_15h06.21.374,lexical_decision_task_MP_exp2,2020.2.5,Linux x86_64,60,,z,1,0.733125,,,,,,,,0.733125,1,,,,,,332,NW,"ID",33,vangue,VANGUE,z,,,,,,0.041111111,-0.416666667,0,0,0,,0,131,131,271,1,,
,,,,,,,,,,,,,,,,,,5e52baa6e8efe2000dbdee79,2020-11-27_15h06.21.374,lexical_decision_task_MP_exp2,2020.2.5,Linux x86_64,60,,m,1,0.64408,,,,,,,,0.64408,1,,,,,,123,WORD,"ID",16,strike,STRIKE,m,,,,,,0.041111111,-0.416666667,0,0,0,,0,132,132,62,1,,
,,,,,,,,,,,,,,,,,,5e52baa6e8efe2000dbdee79,2020-11-27_15h06.21.374,lexical_decision_task_MP_exp2,2020.2.5,Linux x86_64,60,,z,1,0.749225,,,,,,,,0.749225,1,,,,,,457,NW,UN,33,barcet,WANIGH,z,,,,,,0.041111111,-0.416666667,0,0,0,,0,133,133,396,1,,
,,,,,,,,,,,,,,,,,,5e52baa6e8efe2000dbdee79,2020-11-27_15h06.21.374,lexical_decision_task_MP_exp2,2020.2.5,Linux x86_64,60,,m,1,0.691915,,,,,,,,0.691915,1,,,,,,166,WORD,"ID",16,starch,STARCH,m,,,,,,0.041111111,-0.416666667,0,0,0,,0,134,134,105,1,,
,,,,,,,,,,,,,,,,,,5e52baa6e8efe2000dbdee79,2020-11-27_15h06.21.374,lexical_decision_task_MP_exp2,2020.2.5,Linux x86_64,60,,m,1,0.683055,,,,,,,,0.683055,1,,,,,,14,WORD,UN,16,orange,ALMOST,m,,,,,,0.041111111,-0.416666667,0,0,0,,0,135,135,193,1,,
,,,,,,,,,,,,,,,,,,5e52baa6e8efe2000dbdee79,2020-11-27_15h06.21.374,lexical_decision_task_MP_exp2,2020.2.5,Linux x86_64,60,,z,1,0.64066,,,,,,,,0.64066,1,,,,,,459,NW,UN,33,mingar,BAFENT,z,,,,,,0.041111111,-0.416666667,0,0,0,,0,136,136,398,1,,
,,,,,,,,,,,,,,,,,,5e52baa6e8efe2000dbdee79,2020-11-27_15h06.21.374,lexical_decision_task_MP_exp2,2020.2.5,Linux x86_64,60,,z,1,0.700495,,,,,,,,0.700495,1,,,,,,424,NW,UN,33,frudge,PRAILE,z,,,,,,0.041111111,-0.416666667,0,0,0,,0,137,137,363,1,,
,,,,,,,,,,,,,,,,,,5e52baa6e8efe2000dbdee79,2020-11-27_15h06.21.374,lexical_decision_task_MP_exp2,2020.2.5,Linux x86_64,60,,m,1,0.91812,,,,,,,,0.91812,1,,,,,,108,WORD,"ID",33,reckon,RECKON,m,,,,,,0.041111111,-0.416666667,0,0,0,,0,138,138,47,1,,
,,,,,,,,,,,,,,,,,,5e52baa6e8efe2000dbdee79,2020-11-27_15h06.21.374,lexical_decision_task_MP_exp2,2020.2.5,Linux x86_64,60,,m,1,0.68315,,,,,,,,0.68315,1,,,,,,5,WORD,UN,16,bundle,PLUNGE,m,,,,,,0.041111111,-0.416666667,0,0,0,,0,139,139,184,1,,
,,,,,,,,,,,,,,,,,,5e52baa6e8efe2000dbdee79,2020-11-27_15h06.21.374,lexical_decision_task_MP_exp2,2020.2.5,Linux x86_64,60,,m,1,0.80708,,,,,,,,0.80708,1,,,,,,122,WORD,"ID",16,linger,LINGER,m,,,,,,0.041111111,-0.416666667,0,0,0,,0,140,140,61,1,,
,,,,,,,,,,,,,,,,,,5e52baa6e8efe2000dbdee79,2020-11-27_15h06.21.374,lexical_decision_task_MP_exp2,2020.2.5,Linux x86_64,60,,z,1,0.716,,,,,,,,0.716,1,,,,,,281,NW,UN,16,porlex,MELATY,z,,,,,,0.041111111,-0.416666667,0,0,0,,0,141,141,460,1,,
,,,,,,,,,,,,,,,,,,5e52baa6e8efe2000dbdee79,2020-11-27_15h06.21.374,lexical_decision_task_MP_exp2,2020.2.5,Linux x86_64,60,,z,1,0.68355,,,,,,,,0.68355,1,,,,,,286,NW,UN,16,nymbel,RELDON,z,,,,,,0.041111111,-0.416666667,0,0,0,,0,142,142,465,1,,
,,,,,,,,,,,,,,,,,,5e52baa6e8efe2000dbdee79,2020-11-27_15h06.21.374,lexical_decision_task_MP_exp2,2020.2.5,Linux x86_64,60,,z,1,0.724175,,,,,,,,0.724175,1,,,,,,358,NW,"ID",33,fleack,FLEACK,z,,,,,,0.041111111,-0.416666667,0,0,0,,0,143,143,297,1,,
,,,,,,,,,,,,,,,,,,5e52baa6e8efe2000dbdee79,2020-11-27_15h06.21.374,lexical_decision_task_MP_exp2,2020.2.5,Linux x86_64,60,,z,1,0.63584,,,,,,,,0.63584,1,,,,,,340,NW,"ID",33,fiatch,FIATCH,z,,,,,,0.041111111,-0.416666667,0,0,0,,0,144,144,279,1,,
,,,,,,,,,,,,,,,,,,5e52baa6e8efe2000dbdee79,2020-11-27_15h06.21.374,lexical_decision_task_MP_exp2,2020.2.5,Linux x86_64,60,,m,1,0.65106,,,,,,,,0.65106,1,,,,,,154,WORD,"ID",16,author,AUTHOR,m,,,,,,0.041111111,-0.416666667,0,0,0,,0,145,145,93,1,,
,,,,,,,,,,,,,,,,,,5e52baa6e8efe2000dbdee79,2020-11-27_15h06.21.374,lexical_decision_task_MP_exp2,2020.2.5,Linux x86_64,60,,z,1,1.017075,,,,,,,,1.017075,1,,,,,,417,NW,"ID",16,earoud,EAROUD,z,,,,,,0.041111111,-0.416666667,0,0,0,,0,146,146,356,1,,
,,,,,,,,,,,,,,,,,,5e52baa6e8efe2000dbdee79,2020-11-27_15h06.21.374,lexical_decision_task_MP_exp2,2020.2.5,Linux x86_64,60,,m,1,0.78802,,,,,,,,0.78802,1,,,,,,201,WORD,UN,33,factor,ADMIRE,m,,,,,,0.041111111,-0.416666667,0,0,0,,0,147,147,140,1,,
,,,,,,,,,,,,,,,,,,5e52baa6e8efe2000dbdee79,2020-11-27_15h06.21.374,lexical_decision_task_MP_exp2,2020.2.5,Linux x86_64,60,,m,1,1.089995,,,,,,,,1.089995,1,,,,,,235,WORD,UN,33,pirate,GRUMPY,m,,,,,,0.041111111,-0.416666667,0,0,0,,0,148,148,174,1,,
,,,,,,,,,,,,,,,,,,5e52baa6e8efe2000dbdee79,2020-11-27_15h06.21.374,lexical_decision_task_MP_exp2,2020.2.5,Linux x86_64,60,,m,1,0.59005,,,,,,,,0.59005,1,,,,,,152,WORD,"ID",16,rocket,ROCKET,m,,,,,,0.041111111,-0.416666667,0,0,0,,0,149,149,91,1,,
,,,,,,,,,,,,,,,,,,5e52baa6e8efe2000dbdee79,2020-11-27_15h06.21.374,lexical_decision_task_MP_exp2,2020.2.5,Linux x86_64,60,,z,1,0.67015,,,,,,,,0.67015,1,,,,,,272,NW,UN,16,sortel,DAMILT,z,,,,,,0.041111111,-0.416666667,0,0,0,,0,150,150,451,1,,
,,,,,,,,,,,,,,,,,,5e52baa6e8efe2000dbdee79,2020-11-27_15h06.21.374,lexical_decision_task_MP_exp2,2020.2.5,Linux x86_64,60,,m,1,0.66722,,,,,,,,0.66722,1,,,,,,136,WORD,"ID",16,bleach,BLEACH,m,,,,,,0.041111111,-0.416666667,0,0,0,,0,151,151,75,1,,
,,,,,,,,,,,,,,,,,,5e52baa6e8efe2000dbdee79,2020-11-27_15h06.21.374,lexical_decision_task_MP_exp2,2020.2.5,Linux x86_64,60,,z,1,0.74988,,,,,,,,0.74988,1,,,,,,278,NW,UN,16,celond,UNIGHS,z,,,,,,0.041111111,-0.416666667,0,0,0,,0,152,152,457,1,,
,,,,,,,,,,,,,,,,,,5e52baa6e8efe2000dbdee79,2020-11-27_15h06.21.374,lexical_decision_task_MP_exp2,2020.2.5,Linux x86_64,60,,m,1,0.79089,,,,,,,,0.79089,1,,,,,,23,WORD,UN,16,praise,WEALTH,m,,,,,,0.041111111,-0.416666667,0,0,0,,0,153,153,202,1,,
,,,,,,,,,,,,,,,,,,5e52baa6e8efe2000dbdee79,2020-11-27_15h06.21.374,lexical_decision_task_MP_exp2,2020.2.5,Linux x86_64,60,,m,1,0.716045,,,,,,,,0.716045,1,,,,,,20,WORD,UN,16,simple,BREAST,m,,,,,,0.041111111,-0.416666667,0,0,0,,0,154,154,199,1,,
,,,,,,,,,,,,,,,,,,5e52baa6e8efe2000dbdee79,2020-11-27_15h06.21.374,lexical_decision_task_MP_exp2,2020.2.5,Linux x86_64,60,,m,1,0.916825,,,,,,,,0.916825,1,,,,,,78,WORD,"ID",33,column,COLUMN,m,,,,,,0.041111111,-0.416666667,0,0,0,,0,155,155,17,1,,
,,,,,,,,,,,,,,,,,,5e52baa6e8efe2000dbdee79,2020-11-27_15h06.21.374,lexical_decision_task_MP_exp2,2020.2.5,Linux x86_64,60,,m,1,0.617865,,,,,,,,0.617865,1,,,,,,84,WORD,"ID",33,mortal,MORTAL,m,,,,,,0.041111111,-0.416666667,0,0,0,,0,156,156,23,1,,
,,,,,,,,,,,,,,,,,,5e52baa6e8efe2000dbdee79,2020-11-27_15h06.21.374,lexical_decision_task_MP_exp2,2020.2.5,Linux x86_64,60,,z,1,0.72418,,,,,,,,0.72418,1,,,,,,396,NW,"ID",16,flengy,FLENGY,z,,,,,,0.041111111,-0.416666667,0,0,0,,0,157,157,335,1,,
,,,,,,,,,,,,,,,,,,5e52baa6e8efe2000dbdee79,2020-11-27_15h06.21.374,lexical_decision_task_MP_exp2,2020.2.5,Linux x86_64,60,,z,1,0.652275,,,,,,,,0.652275,1,,,,,,385,NW,"ID",16,veigma,VEIGMA,z,,,,,,0.041111111,-0.416666667,0,0,0,,0,158,158,324,1,,
,,,,,,,,,,,,,,,,,,5e52baa6e8efe2000dbdee79,2020-11-27_15h06.21.374,lexical_decision_task_MP_exp2,2020.2.5,Linux x86_64,60,,m,1,0.65487,,,,,,,,0.65487,1,,,,,,172,WORD,"ID",16,patrol,PATROL,m,,,,,,0.041111111,-0.416666667,0,0,0,,0,159,159,111,1,,
,,,,,,,,,,,,,,,,,,5e52baa6e8efe2000dbdee79,2020-11-27_15h06.21.374,lexical_decision_task_MP_exp2,2020.2.5,Linux x86_64,60,,z,1,0.736235,,,,,,,,0.736235,1,,,,,,448,NW,UN,33,brunge,SADENT,z,,,,,,0.041111111,-0.416666667,0,0,0,,0,160,160,387,1,,
,,,,,,,,,,,,,,,,,,5e52baa6e8efe2000dbdee79,2020-11-27_15h06.21.374,lexical_decision_task_MP_exp2,2020.2.5,Linux x86_64,60,,m,1,0.77172,,,,,,,,0.77172,1,,,,,,227,WORD,UN,33,master,SELDOM,m,,,,,,0.041111111,-0.416666667,0,0,0,,0,161,161,166,1,,
,,,,,,,,,,,,,,,,,,5e52baa6e8efe2000dbdee79,2020-11-27_15h06.21.374,lexical_decision_task_MP_exp2,2020.2.5,Linux x86_64,60,,z,1,0.732705,,,,,,,,0.732705,1,,,,,,259,NW,UN,16,unject,SOUDAL,z,,,,,,0.041111111,-0.416666667,0,0,0,,0,162,162,438,1,,
,,,,,,,,,,,,,,,,,,5e52baa6e8efe2000dbdee79,2020-11-27_15h06.21.374,lexical_decision_task_MP_exp2,2020.2.5,Linux x86_64,60,,z,1,0.689825,,,,,,,,0.689825,1,,,,,,245,NW,UN,16,piaton,ANOUGS,z,,,,,,0.041111111,-0.416666667,0,0,0,,0,163,163,424,1,,
,,,,,,,,,,,,,,,,,,5e52baa6e8efe2000dbdee79,2020-11-27_15h06.21.374,lexical_decision_task_MP_exp2,2020.2.5,Linux x86_64,60,,m,1,0.611565,,,,,,,,0.611565,1,,,,,,6,WORD,UN,16,anchor,BUNDLE,m,,,,,,0.041111111,-0.416666667,0,0,0,,0,164,164,185,1,,
,,,,,,,,,,,,,,,,,,5e52baa6e8efe2000dbdee79,2020-11-27_15h06.21.374,lexical_decision_task_MP_exp2,2020.2.5,Linux x86_64,60,,z,1,0.66726,,,,,,,,0.66726,1,,,,,,242,NW,UN,16,musied,UNWERT,z,,,,,,0.041111111,-0.416666667,0,0,0,,0,165,165,421,1,,
,,,,,,,,,,,,,,,,,,5e52baa6e8efe2000dbdee79,2020-11-27_15h06.21.374,lexical_decision_task_MP_exp2,2020.2.5,Linux x86_64,60,,z,1,0.733735,,,,,,,,0.733735,1,,,,,,276,NW,UN,16,petain,YARMON,z,,,,,,0.041111111,-0.416666667,0,0,0,,0,166,166,455,1,,
,,,,,,,,,,,,,,,,,,5e52baa6e8efe2000dbdee79,2020-11-27_15h06.21.374,lexical_decision_task_MP_exp2,2020.2.5,Linux x86_64,60,,m,1,0.636255,,,,,,,,0.636255,1,,,,,,51,WORD,UN,16,impose,HUNGRY,m,,,,,,0.041111111,-0.416666667,0,0,0,,0,167,167,230,1,,
,,,,,,,,,,,,,,,,,,5e52baa6e8efe2000dbdee79,2020-11-27_15h06.21.374,lexical_decision_task_MP_exp2,2020.2.5,Linux x86_64,60,,m,1,0.70725,,,,,,,,0.70725,1,,,,,,86,WORD,"ID",33,rodent,RODENT,m,,,,,,0.041111111,-0.416666667,0,0,0,,0,168,168,25,1,,
,,,,,,,,,,,,,,,,,,5e52baa6e8efe2000dbdee79,2020-11-27_15h06.21.374,lexical_decision_task_MP_exp2,2020.2.5,Linux x86_64,60,,z,1,0.60231,,,,,,,,0.60231,1,,,,,,412,NW,"ID",16,jiluer,JILUER,z,,,,,,0.041111111,-0.416666667,0,0,0,,0,169,169,351,1,,
,,,,,,,,,,,,,,,,,,5e52baa6e8efe2000dbdee79,2020-11-27_15h06.21.374,lexical_decision_task_MP_exp2,2020.2.5,Linux x86_64,60,,z,1,0.599945,,,,,,,,0.599945,1,,,,,,271,NW,UN,16,damilt,AUBRID,z,,,,,,0.041111111,-0.416666667,0,0,0,,0,170,170,450,1,,
,,,,,,,,,,,,,,,,,,5e52baa6e8efe2000dbdee79,2020-11-27_15h06.21.374,lexical_decision_task_MP_exp2,2020.2.5,Linux x86_64,60,,m,1,0.623365,,,,,,,,0.623365,1,,,,,,206,WORD,UN,33,wreath,TAILOR,m,,,,,,0.041111111,-0.416666667,0,0,0,,0,171,171,145,1,,
,,,,,,,,,,,,,,,,,,5e52baa6e8efe2000dbdee79,2020-11-27_15h06.21.374,lexical_decision_task_MP_exp2,2020.2.5,Linux x86_64,60,,z,1,1.08567,,,,,,,,1.08567,1,,,,,,253,NW,UN,16,varosh,RESAIT,z,,,,,,0.041111111,-0.416666667,0,0,0,,0,172,172,432,1,,
,,,,,,,,,,,,,,,,,,5e52baa6e8efe2000dbdee79,2020-11-27_15h06.21.374,lexical_decision_task_MP_exp2,2020.2.5,Linux x86_64,60,,m,1,0.652755,,,,,,,,0.652755,1,,,,,,194,WORD,UN,33,resign,ABSENT,m,,,,,,0.041111111,-0.416666667,0,0,0,,0,173,173,133,1,,
,,,,,,,,,,,,,,,,,,5e52baa6e8efe2000dbdee79,2020-11-27_15h06.21.374,lexical_decision_task_MP_exp2,2020.2.5,Linux x86_64,60,,m,1,0.732655,,,,,,,,0.732655,1,,,,,,85,WORD,"ID",33,sprawl,SPRAWL,m,,,,,,0.041111111,-0.416666667,0,0,0,,0,174,174,24,1,,
,,,,,,,,,,,,,,,,,,5e52baa6e8efe2000dbdee79,2020-11-27_15h06.21.374,lexical_decision_task_MP_exp2,2020.2.5,Linux x86_64,60,,z,1,0.62089,,,,,,,,0.62089,1,,,,,,373,NW,"ID",16,bigent,BIGENT,z,,,,,,0.041111111,-0.416666667,0,0,0,,0,175,175,312,1,,
,,,,,,,,,,,,,,,,,,5e52baa6e8efe2000dbdee79,2020-11-27_15h06.21.374,lexical_decision_task_MP_exp2,2020.2.5,Linux x86_64,60,,m,1,0.618875,,,,,,,,0.618875,1,,,,,,54,WORD,UN,16,stroke,RAMBLE,m,,,,,,0.041111111,-0.416666667,0,0,0,,0,176,176,233,1,,
,,,,,,,,,,,,,,,,,,5e52baa6e8efe2000dbdee79,2020-11-27_15h06.21.374,lexical_decision_task_MP_exp2,2020.2.5,Linux x86_64,60,,z,1,0.81881,,,,,,,,0.81881,1,,,,,,243,NW,UN,16,eatric,MUSIED,z,,,,,,0.041111111,-0.416666667,0,0,0,,0,177,177,422,1,,
,,,,,,,,,,,,,,,,,,5e52baa6e8efe2000dbdee79,2020-11-27_15h06.21.374,lexical_decision_task_MP_exp2,2020.2.5,Linux x86_64,60,,m,1,0.617245,,,,,,,,0.617245,1,,,,,,46,WORD,UN,16,income,SINGLE,m,,,,,,0.041111111,-0.416666667,0,0,0,,0,178,178,225,1,,
,,,,,,,,,,,,,,,,,,5e52baa6e8efe2000dbdee79,2020-11-27_15h06.21.374,lexical_decision_task_MP_exp2,2020.2.5,Linux x86_64,60,,z,1,0.939875,,,,,,,,0.939875,1,,,,,,314,NW,"ID",33,sprine,SPRINE,z,,,,,,0.041111111,-0.416666667,0,0,0,,0,179,179,253,1,,
,,,,,,,,,,,,,,,,,,5e52baa6e8efe2000dbdee79,2020-11-27_15h06.21.374,lexical_decision_task_MP_exp2,2020.2.5,Linux x86_64,60,,m,1,0.6165,,,,,,,,0.6165,1,,,,,,45,WORD,UN,16,single,CLERGY,m,,,,,,0.041111111,-0.416666667,0,0,0,,0,180,180,224,1,,
,,,,,,,,,,,,,,,,,,5e52baa6e8efe2000dbdee79,2020-11-27_15h06.21.374,lexical_decision_task_MP_exp2,2020.2.5,Linux x86_64,60,,m,1,0.633075,,,,,,,,0.633075,1,,,,,,112,WORD,"ID",33,breath,BREATH,m,,,,,,0.041111111,-0.416666667,0,0,0,,0,181,181,51,1,,
,,,,,,,,,,,,,,,,,,5e52baa6e8efe2000dbdee79,2020-11-27_15h06.21.374,lexical_decision_task_MP_exp2,2020.2.5,Linux x86_64,60,,z,1,0.81694,,,,,,,,0.81694,1,,,,,,422,NW,UN,33,streld,ALCOUD,z,,,,,,0.041111111,-0.416666667,0,0,0,,0,182,182,361,1,,
,,,,,,,,,,,,,,,,,,5e52baa6e8efe2000dbdee79,2020-11-27_15h06.21.374,lexical_decision_task_MP_exp2,2020.2.5,Linux x86_64,60,,m,1,0.734845,,,,,,,,0.734845,1,,,,,,212,WORD,UN,33,squeal,VERIFY,m,,,,,,0.041111111,-0.416666667,0,0,0,,0,183,183,151,1,,
,,,,,,,,,,,,,,,,,,5e52baa6e8efe2000dbdee79,2020-11-27_15h06.21.374,lexical_decision_task_MP_exp2,2020.2.5,Linux x86_64,60,,m,1,0.594965,,,,,,,,0.594965,1,,,,,,126,WORD,"ID",16,enough,ENOUGH,m,,,,,,0.041111111,-0.416666667,0,0,0,,0,184,184,65,1,,
,,,,,,,,,,,,,,,,,,5e52baa6e8efe2000dbdee79,2020-11-27_15h06.21.374,lexical_decision_task_MP_exp2,2020.2.5,Linux x86_64,60,,z,1,0.657705,,,,,,,,0.657705,1,,,,,,310,NW,"ID",33,daniet,DANIET,z,,,,,,0.041111111,-0.416666667,0,0,0,,0,185,185,249,1,,
,,,,,,,,,,,,,,,,,,5e52baa6e8efe2000dbdee79,2020-11-27_15h06.21.374,lexical_decision_task_MP_exp2,2020.2.5,Linux x86_64,60,,m,1,0.60262,,,,,,,,0.60262,1,,,,,,117,WORD,"ID",33,branch,BRANCH,m,,,,,,0.041111111,-0.416666667,0,0,0,,0,186,186,56,1,,
,,,,,,,,,,,,,,,,,,5e52baa6e8efe2000dbdee79,2020-11-27_15h06.21.374,lexical_decision_task_MP_exp2,2020.2.5,Linux x86_64,60,,m,1,0.761855,,,,,,,,0.761855,1,,,,,,139,WORD,"ID",16,debris,DEBRIS,m,,,,,,0.041111111,-0.416666667,0,0,0,,0,187,187,78,1,,
,,,,,,,,,,,,,,,,,,5e52baa6e8efe2000dbdee79,2020-11-27_15h06.21.374,lexical_decision_task_MP_exp2,2020.2.5,Linux x86_64,60,,z,1,0.639935,,,,,,,,0.639935,1,,,,,,317,NW,"ID",33,worbal,WORBAL,z,,,,,,0.041111111,-0.416666667,0,0,0,,0,188,188,256,1,,
,,,,,,,,,,,,,,,,,,5e52baa6e8efe2000dbdee79,2020-11-27_15h06.21.374,lexical_decision_task_MP_exp2,2020.2.5,Linux x86_64,60,,z,1,0.752405,,,,,,,,0.752405,1,,,,,,386,NW,"ID",16,ancust,ANCUST,z,,,,,,0.041111111,-0.416666667,0,0,0,,0,189,189,325,1,,
,,,,,,,,,,,,,,,,,,5e52baa6e8efe2000dbdee79,2020-11-27_15h06.21.374,lexical_decision_task_MP_exp2,2020.2.5,Linux x86_64,60,,m,1,0.60722,,,,,,,,0.60722,1,,,,,,221,WORD,UN,33,hinder,MASCOT,m,,,,,,0.041111111,-0.416666667,0,0,0,,0,190,190,160,1,,
,,,,,,,,,,,,,,,,,,5e52baa6e8efe2000dbdee79,2020-11-27_15h06.21.374,lexical_decision_task_MP_exp2,2020.2.5,Linux x86_64,60,,m,1,0.83557,,,,,,,,0.83557,1,,,,,,168,WORD,"ID",16,answer,ANSWER,m,,,,,,0.041111111,-0.416666667,0,0,0,,0,191,191,107,1,,
,,,,,,,,,,,,,,,,,,5e52baa6e8efe2000dbdee79,2020-11-27_15h06.21.374,lexical_decision_task_MP_exp2,2020.2.5,Linux x86_64,60,,m,1,0.718235,,,,,,,,0.718235,1,,,,,,8,WORD,UN,16,hustle,ABRUPT,m,,,,,,0.041111111,-0.416666667,0,0,0,,0,192,192,187,1,,
,,,,,,,,,,,,,,,,,,5e52baa6e8efe2000dbdee79,2020-11-27_15h06.21.374,lexical_decision_task_MP_exp2,2020.2.5,Linux x86_64,60,,z,1,0.70713,,,,,,,,0.70713,1,,,,,,450,NW,UN,33,cainky,PHRECT,z,,,,,,0.041111111,-0.416666667,0,0,0,,0,193,193,389,1,,
,,,,,,,,,,,,,,,,,,5e52baa6e8efe2000dbdee79,2020-11-27_15h06.21.374,lexical_decision_task_MP_exp2,2020.2.5,Linux x86_64,60,,z,0,1.28562,,,,,,,,1.28562,0,,,,,,64,WORD,"ID",33,throne,THRONE,m,,,,,,0.041111111,-0.416666667,0,0,0,,0,194,194,3,1,,
,,,,,,,,,,,,,,,,,,5e52baa6e8efe2000dbdee79,2020-11-27_15h06.21.374,lexical_decision_task_MP_exp2,2020.2.5,Linux x86_64,60,,m,1,0.5838,,,,,,,,0.5838,1,,,,,,131,WORD,"ID",16,quench,QUENCH,m,,,,,,0.041111111,-0.416666667,0,0,0,,0,195,195,70,1,,
,,,,,,,,,,,,,,,,,,5e52baa6e8efe2000dbdee79,2020-11-27_15h06.21.374,lexical_decision_task_MP_exp2,2020.2.5,Linux x86_64,60,,z,1,0.80899,,,,,,,,0.80899,1,,,,,,466,NW,UN,33,robuly,HOCITE,z,,,,,,0.041111111,-0.416666667,0,0,0,,0,196,196,405,1,,
,,,,,,,,,,,,,,,,,,5e52baa6e8efe2000dbdee79,2020-11-27_15h06.21.374,lexical_decision_task_MP_exp2,2020.2.5,Linux x86_64,60,,m,1,0.62147,,,,,,,,0.62147,1,,,,,,33,WORD,UN,16,jungle,BUTLER,m,,,,,,0.041111111,-0.416666667,0,0,0,,0,197,197,212,1,,
,,,,,,,,,,,,,,,,,,5e52baa6e8efe2000dbdee79,2020-11-27_15h06.21.374,lexical_decision_task_MP_exp2,2020.2.5,Linux x86_64,60,,z,1,0.71527,,,,,,,,0.71527,1,,,,,,339,NW,"ID",33,fachow,FACHOW,z,,,,,,0.041111111,-0.416666667,0,0,0,,0,198,198,278,1,,
,,,,,,,,,,,,,,,,,,5e52baa6e8efe2000dbdee79,2020-11-27_15h06.21.374,lexical_decision_task_MP_exp2,2020.2.5,Linux x86_64,60,,m,1,0.898855,,,,,,,,0.898855,1,,,,,,189,WORD,UN,33,backup,CENSOR,m,,,,,,0.041111111,-0.416666667,0,0,0,,0,199,199,128,1,,
,,,,,,,,,,,,,,,,,,5e52baa6e8efe2000dbdee79,2020-11-27_15h06.21.374,lexical_decision_task_MP_exp2,2020.2.5,Linux x86_64,60,,m,1,0.9002,,,,,,,,0.9002,1,,,,,,183,WORD,UN,33,sleazy,MILDEW,m,,,,,,0.041111111,-0.416666667,0,0,0,,0,200,200,122,1,,
,,,,,,,,,,,,,,,,,,5e52baa6e8efe2000dbdee79,2020-11-27_15h06.21.374,lexical_decision_task_MP_exp2,2020.2.5,Linux x86_64,60,,z,1,0.799405,,,,,,,,0.799405,1,,,,,,249,NW,UN,16,milted,BATROL,z,,,,,,0.041111111,-0.416666667,0,0,0,,0,201,201,428,1,,
,,,,,,,,,,,,,,,,,,5e52baa6e8efe2000dbdee79,2020-11-27_15h06.21.374,lexical_decision_task_MP_exp2,2020.2.5,Linux x86_64,60,,z,1,0.68404,,,,,,,,0.68404,1,,,,,,426,NW,UN,33,schind,URIVEL,z,,,,,,0.041111111,-0.416666667,0,0,0,,0,202,202,365,1,,
,,,,,,,,,,,,,,,,,,5e52baa6e8efe2000dbdee79,2020-11-27_15h06.21.374,lexical_decision_task_MP_exp2,2020.2.5,Linux x86_64,60,,z,1,0.789705,,,,,,,,0.789705,1,,,,,,442,NW,UN,33,dorsex,ABOUNE,z,,,,,,0.041111111,-0.416666667,0,0,0,,0,203,203,381,1,,
,,,,,,,,,,,,,,,,,,5e52baa6e8efe2000dbdee79,2020-11-27_15h06.21.374,lexical_decision_task_MP_exp2,2020.2.5,Linux x86_64,60,,z,1,0.69125,,,,,,,,0.69125,1,,,,,,401,NW,"ID",16,mustil,MUSTIL,z,,,,,,0.041111111,-0.416666667,0,0,0,,0,204,204,340,1,,
,,,,,,,,,,,,,,,,,,5e52baa6e8efe2000dbdee79,2020-11-27_15h06.21.374,lexical_decision_task_MP_exp2,2020.2.5,Linux x86_64,60,,m,1,0.948865,,,,,,,,0.948865,1,,,,,,176,WORD,"ID",16,strife,STRIFE,m,,,,,,0.041111111,-0.416666667,0,0,0,,0,205,205,115,1,,
,,,,,,,,,,,,,,,,,,5e52baa6e8efe2000dbdee79,2020-11-27_15h06.21.374,lexical_decision_task_MP_exp2,2020.2.5,Linux x86_64,60,,m,1,0.703725,,,,,,,,0.703725,1,,,,,,102,WORD,"ID",33,direct,DIRECT,m,,,,,,0.041111111,-0.416666667,0,0,0,,0,206,206,41,1,,
,,,,,,,,,,,,,,,,,,5e52baa6e8efe2000dbdee79,2020-11-27_15h06.21.374,lexical_decision_task_MP_exp2,2020.2.5,Linux x86_64,60,,m,1,0.581795,,,,,,,,0.581795,1,,,,,,234,WORD,UN,33,poster,CLUMSY,m,,,,,,0.041111111,-0.416666667,0,0,0,,0,207,207,173,1,,
,,,,,,,,,,,,,,,,,,5e52baa6e8efe2000dbdee79,2020-11-27_15h06.21.374,lexical_decision_task_MP_exp2,2020.2.5,Linux x86_64,60,,m,1,0.604765,,,,,,,,0.604765,1,,,,,,196,WORD,UN,33,stream,CREDIT,m,,,,,,0.041111111,-0.416666667,0,0,0,,0,208,208,135,1,,
,,,,,,,,,,,,,,,,,,5e52baa6e8efe2000dbdee79,2020-11-27_15h06.21.374,lexical_decision_task_MP_exp2,2020.2.5,Linux x86_64,60,,z,1,0.835635,,,,,,,,0.835635,1,,,,,,304,NW,"ID",33,cludie,CLUDIE,z,,,,,,0.041111111,-0.416666667,0,0,0,,0,209,209,243,1,,
,,,,,,,,,,,,,,,,,,5e52baa6e8efe2000dbdee79,2020-11-27_15h06.21.374,lexical_decision_task_MP_exp2,2020.2.5,Linux x86_64,60,,m,1,0.61012,,,,,,,,0.61012,1,,,,,,240,WORD,UN,33,seldom,FOREST,m,,,,,,0.041111111,-0.416666667,0,0,0,,0,210,210,179,1,,
,,,,,,,,,,,,,,,,,,5e52baa6e8efe2000dbdee79,2020-11-27_15h06.21.374,lexical_decision_task_MP_exp2,2020.2.5,Linux x86_64,60,,z,1,0.69995,,,,,,,,0.69995,1,,,,,,367,NW,"ID",16,slique,SLIQUE,z,,,,,,0.041111111,-0.416666667,0,0,0,,0,211,211,306,1,,
,,,,,,,,,,,,,,,,,,5e52baa6e8efe2000dbdee79,2020-11-27_15h06.21.374,lexical_decision_task_MP_exp2,2020.2.5,Linux x86_64,60,,z,1,1.1002,,,,,,,,1.1002,1,,,,,,361,NW,"ID",16,pauche,PAUCHE,z,,,,,,0.041111111,-0.416666667,0,0,0,,0,212,212,300,1,,
,,,,,,,,,,,,,,,,,,5e52baa6e8efe2000dbdee79,2020-11-27_15h06.21.374,lexical_decision_task_MP_exp2,2020.2.5,Linux x86_64,60,,z,1,0.732645,,,,,,,,0.732645,1,,,,,,260,NW,UN,16,stunch,UNJECT,z,,,,,,0.041111111,-0.416666667,0,0,0,,0,213,213,439,1,,
,,,,,,,,,,,,,,,,,,5e52baa6e8efe2000dbdee79,2020-11-27_15h06.21.374,lexical_decision_task_MP_exp2,2020.2.5,Linux x86_64,60,,m,1,0.60172,,,,,,,,0.60172,1,,,,,,180,WORD,"ID",16,silent,SILENT,m,,,,,,0.041111111,-0.416666667,0,0,0,,0,214,214,119,1,,
,,,,,,,,,,,,,,,,,,5e52baa6e8efe2000dbdee79,2020-11-27_15h06.21.374,lexical_decision_task_MP_exp2,2020.2.5,Linux x86_64,60,,z,1,0.75775,,,,,,,,0.75775,1,,,,,,464,NW,UN,33,whivex,CHAITE,z,,,,,,0.041111111,-0.416666667,0,0,0,,0,215,215,403,1,,
,,,,,,,,,,,,,,,,,,5e52baa6e8efe2000dbdee79,2020-11-27_15h06.21.374,lexical_decision_task_MP_exp2,2020.2.5,Linux x86_64,60,,z,1,0.982765,,,,,,,,0.982765,1,,,,,,441,NW,UN,33,aboune,RASTOE,z,,,,,,0.041111111,-0.416666667,0,0,0,,0,216,216,380,1,,
,,,,,,,,,,,,,,,,,,5e52baa6e8efe2000dbdee79,2020-11-27_15h06.21.374,lexical_decision_task_MP_exp2,2020.2.5,Linux x86_64,60,,m,1,0.67126,,,,,,,,0.67126,1,,,,,,177,WORD,"ID",16,advent,ADVENT,m,,,,,,0.041111111,-0.416666667,0,0,0,,0,217,217,116,1,,
,,,,,,,,,,,,,,,,,,5e52baa6e8efe2000dbdee79,2020-11-27_15h06.21.374,lexical_decision_task_MP_exp2,2020.2.5,Linux x86_64,60,,z,1,0.78338,,,,,,,,0.78338,1,,,,,,397,NW,"ID",16,camble,CAMBLE,z,,,,,,0.041111111,-0.416666667,0,0,0,,0,218,218,336,1,,
,,,,,,,,,,,,,,,,,,5e52baa6e8efe2000dbdee79,2020-11-27_15h06.21.374,lexical_decision_task_MP_exp2,2020.2.5,Linux x86_64,60,,m,1,0.583945,,,,,,,,0.583945,1,,,,,,140,WORD,"ID",16,prince,PRINCE,m,,,,,,0.041111111,-0.416666667,0,0,0,,0,219,219,79,1,,
,,,,,,,,,,,,,,,,,,5e52baa6e8efe2000dbdee79,2020-11-27_15h06.21.374,lexical_decision_task_MP_exp2,2020.2.5,Linux x86_64,60,,m,1,0.7982,,,,,,,,0.7982,1,,,,,,165,WORD,"ID",16,invest,INVEST,m,,,,,,0.041111111,-0.416666667,0,0,0,,0,220,220,104,1,,
,,,,,,,,,,,,,,,,,,5e52baa6e8efe2000dbdee79,2020-11-27_15h06.21.374,lexical_decision_task_MP_exp2,2020.2.5,Linux x86_64,60,,z,1,0.70055,,,,,,,,0.70055,1,,,,,,250,NW,UN,16,lupict,MILTED,z,,,,,,0.041111111,-0.416666667,0,0,0,,0,221,221,429,1,,
,,,,,,,,,,,,,,,,,,5e52baa6e8efe2000dbdee79,2020-11-27_15h06.21.374,lexical_decision_task_MP_exp2,2020.2.5,Linux x86_64,60,,z,1,1.03553,,,,,,,,1.03553,1,,,,,,398,NW,"ID",16,blunde,BLUNDE,z,,,,,,0.041111111,-0.416666667,0,0,0,,0,222,222,337,1,,
,,,,,,,,,,,,,,,,,,5e52baa6e8efe2000dbdee79,2020-11-27_15h06.21.374,lexical_decision_task_MP_exp2,2020.2.5,Linux x86_64,60,,z,1,0.641195,,,,,,,,0.641195,1,,,,,,325,NW,"ID",33,thruse,THRUSE,z,,,,,,0.041111111,-0.416666667,0,0,0,,0,223,223,264,1,,
,,,,,,,,,,,,,,,,,,5e52baa6e8efe2000dbdee79,2020-11-27_15h06.21.374,lexical_decision_task_MP_exp2,2020.2.5,Linux x86_64,60,,z,0,0.6193,,,,,,,,0.6193,0,,,,,,59,WORD,UN,16,pencil,SPLINT,m,,,,,,0.041111111,-0.416666667,0,0,0,,0,224,224,238,1,,
,,,,,,,,,,,,,,,,,,5e52baa6e8efe2000dbdee79,2020-11-27_15h06.21.374,lexical_decision_task_MP_exp2,2020.2.5,Linux x86_64,60,,z,1,0.93705,,,,,,,,0.93705,1,,,,,,437,NW,UN,33,baitch,SNAPEL,z,,,,,,0.041111111,-0.416666667,0,0,0,,0,225,225,376,1,,
,,,,,,,,,,,,,,,,,,5e52baa6e8efe2000dbdee79,2020-11-27_15h06.21.374,lexical_decision_task_MP_exp2,2020.2.5,Linux x86_64,60,,z,1,0.6435,,,,,,,,0.6435,1,,,,,,346,NW,"ID",33,saudic,SAUDIC,z,,,,,,0.041111111,-0.416666667,0,0,0,,0,226,226,285,1,,
,,,,,,,,,,,,,,,,,,5e52baa6e8efe2000dbdee79,2020-11-27_15h06.21.374,lexical_decision_task_MP_exp2,2020.2.5,Linux x86_64,60,,z,1,0.65176,,,,,,,,0.65176,1,,,,,,376,NW,"ID",16,iguare,IGUARE,z,,,,,,0.041111111,-0.416666667,0,0,0,,0,227,227,315,1,,
,,,,,,,,,,,,,,,,,,5e52baa6e8efe2000dbdee79,2020-11-27_15h06.21.374,lexical_decision_task_MP_exp2,2020.2.5,Linux x86_64,60,,m,1,0.658725,,,,,,,,0.658725,1,,,,,,167,WORD,"ID",16,design,DESIGN,m,,,,,,0.041111111,-0.416666667,0,0,0,,0,228,228,106,1,,
,,,,,,,,,,,,,,,,,,5e52baa6e8efe2000dbdee79,2020-11-27_15h06.21.374,lexical_decision_task_MP_exp2,2020.2.5,Linux x86_64,60,,z,1,0.767505,,,,,,,,0.767505,1,,,,,,471,NW,UN,33,cigney,NOBEST,z,,,,,,0.041111111,-0.416666667,0,0,0,,0,229,229,410,1,,
,,,,,,,,,,,,,,,,,,5e52baa6e8efe2000dbdee79,2020-11-27_15h06.21.374,lexical_decision_task_MP_exp2,2020.2.5,Linux x86_64,60,,z,1,0.55269,,,,,,,,0.55269,1,,,,,,372,NW,"ID",16,ramily,RAMILY,z,,,,,,0.041111111,-0.416666667,0,0,0,,0,230,230,311,1,,
,,,,,,,,,,,,,,,,,,5e52baa6e8efe2000dbdee79,2020-11-27_15h06.21.374,lexical_decision_task_MP_exp2,2020.2.5,Linux x86_64,60,,m,1,0.578585,,,,,,,,0.578585,1,,,,,,158,WORD,"ID",16,island,ISLAND,m,,,,,,0.041111111,-0.416666667,0,0,0,,0,231,231,97,1,,
,,,,,,,,,,,,,,,,,,5e52baa6e8efe2000dbdee79,2020-11-27_15h06.21.374,lexical_decision_task_MP_exp2,2020.2.5,Linux x86_64,60,,z,1,0.799865,,,,,,,,0.799865,1,,,,,,244,NW,UN,16,anougs,EATRIC,z,,,,,,0.041111111,-0.416666667,0,0,0,,0,232,232,423,1,,
,,,,,,,,,,,,,,,,,,5e52baa6e8efe2000dbdee79,2020-11-27_15h06.21.374,lexical_decision_task_MP_exp2,2020.2.5,Linux x86_64,60,,m,1,0.65524,,,,,,,,0.65524,1,,,,,,184,WORD,UN,33,bother,SLEAZY,m,,,,,,0.041111111,-0.416666667,0,0,0,,0,233,233,123,1,,
,,,,,,,,,,,,,,,,,,5e52baa6e8efe2000dbdee79,2020-11-27_15h06.21.374,lexical_decision_task_MP_exp2,2020.2.5,Linux x86_64,60,,m,1,0.633795,,,,,,,,0.633795,1,,,,,,73,WORD,"ID",33,source,SOURCE,m,,,,,,0.041111111,-0.416666667,0,0,0,,0,234,234,12,1,,
,,,,,,,,,,,,,,,,,,5e52baa6e8efe2000dbdee79,2020-11-27_15h06.21.374,lexical_decision_task_MP_exp2,2020.2.5,Linux x86_64,60,,m,1,0.583385,,,,,,,,0.583385,1,,,,,,83,WORD,"ID",33,result,RESULT,m,,,,,,0.041111111,-0.416666667,0,0,0,,0,235,235,22,1,,
,,,,,,,,,,,,,,,,,,5e52baa6e8efe2000dbdee79,2020-11-27_15h06.21.374,lexical_decision_task_MP_exp2,2020.2.5,Linux x86_64,60,,m,1,0.781955,,,,,,,,0.781955,1,,,,,,25,WORD,UN,16,sprint,DOMAIN,m,,,,,,0.041111111,-0.416666667,0,0,0,,0,236,236,204,1,,
,,,,,,,,,,,,,,,,,,5e52baa6e8efe2000dbdee79,2020-11-27_15h06.21.374,lexical_decision_task_MP_exp2,2020.2.5,Linux x86_64,60,,m,1,0.73497,,,,,,,,0.73497,1,,,,,,40,WORD,UN,16,spring,CONVEY,m,,,,,,0.041111111,-0.416666667,0,0,0,,0,237,237,219,1,,
,,,,,,,,,,,,,,,,,,5e52baa6e8efe2000dbdee79,2020-11-27_15h06.21.374,lexical_decision_task_MP_exp2,2020.2.5,Linux x86_64,60,,z,1,0.6714,,,,,,,,0.6714,1,,,,,,461,NW,UN,33,absult,JUSTRE,z,,,,,,0.041111111,-0.416666667,0,0,0,,0,238,238,400,1,,
,,,,,,,,,,,,,,,,,,5e52baa6e8efe2000dbdee79,2020-11-27_15h06.21.374,lexical_decision_task_MP_exp2,2020.2.5,Linux x86_64,60,,z,1,0.866605,,,,,,,,0.866605,1,,,,,,465,NW,UN,33,bafent,WHIVEX,z,,,,,,0.041111111,-0.416666667,0,0,0,,0,239,239,404,1,,
,,,,,,,,,,,,,,,,,,5e52baa6e8efe2000dbdee79,2020-11-27_15h06.21.374,lexical_decision_task_MP_exp2,2020.2.5,Linux x86_64,60,,m,1,0.571705,,,,,,,,0.571705,1,,,,,,173,WORD,"ID",16,shower,SHOWER,m,,,,,,0.041111111,-0.416666667,0,0,0,,0,240,240,112,1,,
,,,,,,,,,,,,,,,,,,5e52baa6e8efe2000dbdee79,2020-11-27_15h06.21.374,lexical_decision_task_MP_exp2,2020.2.5,Linux x86_64,60,,z,1,0.649695,,,,,,,,0.649695,1,,,,,,335,NW,"ID",33,desion,DESION,z,,,,,,0.058888889,-0.405555556,1,0,0,,0,241,241,274,1,,break_done_button
,,,,,,,,,,,,,,,,,,5e52baa6e8efe2000dbdee79,2020-11-27_15h06.21.374,lexical_decision_task_MP_exp2,2020.2.5,Linux x86_64,60,,m,1,0.66878,,,,,,,,0.66878,1,,,,,,230,WORD,UN,33,mother,FRINGE,m,,,,,,0.058888889,-0.405555556,0,0,0,,0,242,242,169,1,,
,,,,,,,,,,,,,,,,,,5e52baa6e8efe2000dbdee79,2020-11-27_15h06.21.374,lexical_decision_task_MP_exp2,2020.2.5,Linux x86_64,60,,m,1,0.555035,,,,,,,,0.555035,1,,,,,,42,WORD,UN,16,tongue,CHAPEL,m,,,,,,0.058888889,-0.405555556,0,0,0,,0,243,243,221,1,,
,,,,,,,,,,,,,,,,,,5e52baa6e8efe2000dbdee79,2020-11-27_15h06.21.374,lexical_decision_task_MP_exp2,2020.2.5,Linux x86_64,60,,z,1,0.566635,,,,,,,,0.566635,1,,,,,,446,NW,UN,33,gircue,RUNAMO,z,,,,,,0.058888889,-0.405555556,0,0,0,,0,244,244,385,1,,
,,,,,,,,,,,,,,,,,,5e52baa6e8efe2000dbdee79,2020-11-27_15h06.21.374,lexical_decision_task_MP_exp2,2020.2.5,Linux x86_64,60,,z,1,0.684485,,,,,,,,0.684485,1,,,,,,302,NW,"ID",33,miluer,MILUER,z,,,,,,0.058888889,-0.405555556,0,0,0,,0,245,245,241,1,,
,,,,,,,,,,,,,,,,,,5e52baa6e8efe2000dbdee79,2020-11-27_15h06.21.374,lexical_decision_task_MP_exp2,2020.2.5,Linux x86_64,60,,m,1,0.70157,,,,,,,,0.70157,1,,,,,,114,WORD,"ID",33,placid,PLACID,m,,,,,,0.058888889,-0.405555556,0,0,0,,0,246,246,53,1,,
,,,,,,,,,,,,,,,,,,5e52baa6e8efe2000dbdee79,2020-11-27_15h06.21.374,lexical_decision_task_MP_exp2,2020.2.5,Linux x86_64,60,,z,1,1.05179,,,,,,,,1.05179,1,,,,,,289,NW,UN,16,splino,STARBY,z,,,,,,0.058888889,-0.405555556,0,0,0,,0,247,247,468,1,,
,,,,,,,,,,,,,,,,,,5e52baa6e8efe2000dbdee79,2020-11-27_15h06.21.374,lexical_decision_task_MP_exp2,2020.2.5,Linux x86_64,60,,m,0,0.786435,,,,,,,,0.786435,0,,,,,,266,NW,UN,16,pasink,VARMIT,z,,,,,,0.058888889,-0.405555556,0,0,0,,0,248,248,445,1,,
,,,,,,,,,,,,,,,,,,5e52baa6e8efe2000dbdee79,2020-11-27_15h06.21.374,lexical_decision_task_MP_exp2,2020.2.5,Linux x86_64,60,,z,1,0.624625,,,,,,,,0.624625,1,,,,,,460,NW,UN,33,justre,MINGAR,z,,,,,,0.058888889,-0.405555556,0,0,0,,0,249,249,399,1,,
,,,,,,,,,,,,,,,,,,5e52baa6e8efe2000dbdee79,2020-11-27_15h06.21.374,lexical_decision_task_MP_exp2,2020.2.5,Linux x86_64,60,,z,1,0.89925,,,,,,,,0.89925,1,,,,,,418,NW,"ID",16,suidle,SUIDLE,z,,,,,,0.058888889,-0.405555556,0,0,0,,0,250,250,357,1,,
,,,,,,,,,,,,,,,,,,5e52baa6e8efe2000dbdee79,2020-11-27_15h06.21.374,lexical_decision_task_MP_exp2,2020.2.5,Linux x86_64,60,,m,1,0.57173,,,,,,,,0.57173,1,,,,,,148,WORD,"ID",16,custom,CUSTOM,m,,,,,,0.058888889,-0.405555556,0,0,0,,0,251,251,87,1,,
,,,,,,,,,,,,,,,,,,5e52baa6e8efe2000dbdee79,2020-11-27_15h06.21.374,lexical_decision_task_MP_exp2,2020.2.5,Linux x86_64,60,,m,1,0.657705,,,,,,,,0.657705,1,,,,,,135,WORD,"ID",16,import,IMPORT,m,,,,,,0.058888889,-0.405555556,0,0,0,,0,252,252,74,1,,
,,,,,,,,,,,,,,,,,,5e52baa6e8efe2000dbdee79,2020-11-27_15h06.21.374,lexical_decision_task_MP_exp2,2020.2.5,Linux x86_64,60,,z,1,0.66885,,,,,,,,0.66885,1,,,,,,306,NW,"ID",33,sounge,SOUNGE,z,,,,,,0.058888889,-0.405555556,0,0,0,,0,253,253,245,1,,
,,,,,,,,,,,,,,,,,,5e52baa6e8efe2000dbdee79,2020-11-27_15h06.21.374,lexical_decision_task_MP_exp2,2020.2.5,Linux x86_64,60,,m,1,0.619745,,,,,,,,0.619745,1,,,,,,69,WORD,"ID",33,plenty,PLENTY,m,,,,,,0.058888889,-0.405555556,0,0,0,,0,254,254,8,1,,
,,,,,,,,,,,,,,,,,,5e52baa6e8efe2000dbdee79,2020-11-27_15h06.21.374,lexical_decision_task_MP_exp2,2020.2.5,Linux x86_64,60,,m,1,0.6718,,,,,,,,0.6718,1,,,,,,52,WORD,UN,16,police,IMPOSE,m,,,,,,0.058888889,-0.405555556,0,0,0,,0,255,255,231,1,,
,,,,,,,,,,,,,,,,,,5e52baa6e8efe2000dbdee79,2020-11-27_15h06.21.374,lexical_decision_task_MP_exp2,2020.2.5,Linux x86_64,60,,z,1,0.70177,,,,,,,,0.70177,1,,,,,,313,NW,"ID",33,paurse,PAURSE,z,,,,,,0.058888889,-0.405555556,0,0,0,,0,256,256,252,1,,
,,,,,,,,,,,,,,,,,,5e52baa6e8efe2000dbdee79,2020-11-27_15h06.21.374,lexical_decision_task_MP_exp2,2020.2.5,Linux x86_64,60,,m,1,0.64962,,,,,,,,0.64962,1,,,,,,41,WORD,UN,16,chapel,SPRING,m,,,,,,0.058888889,-0.405555556,0,0,0,,0,257,257,220,1,,
,,,,,,,,,,,,,,,,,,5e52baa6e8efe2000dbdee79,2020-11-27_15h06.21.374,lexical_decision_task_MP_exp2,2020.2.5,Linux x86_64,60,,m,1,0.669025,,,,,,,,0.669025,1,,,,,,150,WORD,"ID",16,random,RANDOM,m,,,,,,0.058888889,-0.405555556,0,0,0,,0,258,258,89,1,,
,,,,,,,,,,,,,,,,,,5e52baa6e8efe2000dbdee79,2020-11-27_15h06.21.374,lexical_decision_task_MP_exp2,2020.2.5,Linux x86_64,60,,m,1,0.674625,,,,,,,,0.674625,1,,,,,,22,WORD,UN,16,wealth,JOCKEY,m,,,,,,0.058888889,-0.405555556,0,0,0,,0,259,259,201,1,,
,,,,,,,,,,,,,,,,,,5e52baa6e8efe2000dbdee79,2020-11-27_15h06.21.374,lexical_decision_task_MP_exp2,2020.2.5,Linux x86_64,60,,m,1,0.681975,,,,,,,,0.681975,1,,,,,,232,WORD,UN,33,nature,INJECT,m,,,,,,0.058888889,-0.405555556,0,0,0,,0,260,260,171,1,,
,,,,,,,,,,,,,,,,,,5e52baa6e8efe2000dbdee79,2020-11-27_15h06.21.374,lexical_decision_task_MP_exp2,2020.2.5,Linux x86_64,60,,m,1,0.608795,,,,,,,,0.608795,1,,,,,,17,WORD,UN,16,humble,CHARGE,m,,,,,,0.058888889,-0.405555556,0,0,0,,0,261,261,196,1,,
,,,,,,,,,,,,,,,,,,5e52baa6e8efe2000dbdee79,2020-11-27_15h06.21.374,lexical_decision_task_MP_exp2,2020.2.5,Linux x86_64,60,,z,1,0.617215,,,,,,,,0.617215,1,,,,,,274,NW,UN,16,sleirt,FUMBLO,z,,,,,,0.058888889,-0.405555556,0,0,0,,0,262,262,453,1,,
,,,,,,,,,,,,,,,,,,5e52baa6e8efe2000dbdee79,2020-11-27_15h06.21.374,lexical_decision_task_MP_exp2,2020.2.5,Linux x86_64,60,,m,0,0.85726,,,,,,,,0.85726,0,,,,,,454,NW,UN,33,tondle,SCOUGE,z,,,,,,0.058888889,-0.405555556,0,0,0,,0,263,263,393,1,,
,,,,,,,,,,,,,,,,,,5e52baa6e8efe2000dbdee79,2020-11-27_15h06.21.374,lexical_decision_task_MP_exp2,2020.2.5,Linux x86_64,60,,z,1,0.677905,,,,,,,,0.677905,1,,,,,,337,NW,"ID",33,rejols,REJOLS,z,,,,,,0.058888889,-0.405555556,0,0,0,,0,264,264,276,1,,
,,,,,,,,,,,,,,,,,,5e52baa6e8efe2000dbdee79,2020-11-27_15h06.21.374,lexical_decision_task_MP_exp2,2020.2.5,Linux x86_64,60,,z,1,1.008095,,,,,,,,1.008095,1,,,,,,290,NW,UN,16,pretch,SPLINO,z,,,,,,0.058888889,-0.405555556,0,0,0,,0,265,265,469,1,,
,,,,,,,,,,,,,,,,,,5e52baa6e8efe2000dbdee79,2020-11-27_15h06.21.374,lexical_decision_task_MP_exp2,2020.2.5,Linux x86_64,60,,m,1,0.721375,,,,,,,,0.721375,1,,,,,,204,WORD,UN,33,lounge,BURDEN,m,,,,,,0.058888889,-0.405555556,0,0,0,,0,266,266,143,1,,
,,,,,,,,,,,,,,,,,,5e52baa6e8efe2000dbdee79,2020-11-27_15h06.21.374,lexical_decision_task_MP_exp2,2020.2.5,Linux x86_64,60,,z,1,0.76943,,,,,,,,0.76943,1,,,,,,409,NW,"ID",16,elopia,ELOPIA,z,,,,,,0.058888889,-0.405555556,0,0,0,,0,267,267,348,1,,
,,,,,,,,,,,,,,,,,,5e52baa6e8efe2000dbdee79,2020-11-27_15h06.21.374,lexical_decision_task_MP_exp2,2020.2.5,Linux x86_64,60,,z,1,1.156315,,,,,,,,1.156315,1,,,,,,473,NW,UN,33,hablin,CRIBLE,z,,,,,,0.058888889,-0.405555556,0,0,0,,0,268,268,412,1,,
,,,,,,,,,,,,,,,,,,5e52baa6e8efe2000dbdee79,2020-11-27_15h06.21.374,lexical_decision_task_MP_exp2,2020.2.5,Linux x86_64,60,,z,1,0.616395,,,,,,,,0.616395,1,,,,,,436,NW,UN,33,snapel,FRUTAN,z,,,,,,0.058888889,-0.405555556,0,0,0,,0,269,269,375,1,,
,,,,,,,,,,,,,,,,,,5e52baa6e8efe2000dbdee79,2020-11-27_15h06.21.374,lexical_decision_task_MP_exp2,2020.2.5,Linux x86_64,60,,m,1,0.584745,,,,,,,,0.584745,1,,,,,,12,WORD,UN,16,strive,ORANGE,m,,,,,,0.058888889,-0.405555556,0,0,0,,0,270,270,191,1,,
,,,,,,,,,,,,,,,,,,5e52baa6e8efe2000dbdee79,2020-11-27_15h06.21.374,lexical_decision_task_MP_exp2,2020.2.5,Linux x86_64,60,,z,1,1.12338,,,,,,,,1.12338,1,,,,,,468,NW,UN,33,padifs,WICTOR,z,,,,,,0.058888889,-0.405555556,0,0,0,,0,271,271,407,1,,
,,,,,,,,,,,,,,,,,,5e52baa6e8efe2000dbdee79,2020-11-27_15h06.21.374,lexical_decision_task_MP_exp2,2020.2.5,Linux x86_64,60,,m,1,1.251785,,,,,,,,1.251785,1,,,,,,9,WORD,UN,16,bridge,HUSTLE,m,,,,,,0.058888889,-0.405555556,0,0,0,,0,272,272,188,1,,
,,,,,,,,,,,,,,,,,,5e52baa6e8efe2000dbdee79,2020-11-27_15h06.21.374,lexical_decision_task_MP_exp2,2020.2.5,Linux x86_64,60,,z,0,1.123595,,,,,,,,1.123595,0,,,,,,185,WORD,UN,33,portal,BOTHER,m,,,,,,0.058888889,-0.405555556,0,0,0,,0,273,273,124,1,,
,,,,,,,,,,,,,,,,,,5e52baa6e8efe2000dbdee79,2020-11-27_15h06.21.374,lexical_decision_task_MP_exp2,2020.2.5,Linux x86_64,60,,m,1,0.87723,,,,,,,,0.87723,1,,,,,,178,WORD,"ID",16,inform,INFORM,m,,,,,,0.058888889,-0.405555556,0,0,0,,0,274,274,117,1,,
,,,,,,,,,,,,,,,,,,5e52baa6e8efe2000dbdee79,2020-11-27_15h06.21.374,lexical_decision_task_MP_exp2,2020.2.5,Linux x86_64,60,,z,1,1.18231,,,,,,,,1.18231,1,,,,,,383,NW,"ID",16,aungre,AUNGRE,z,,,,,,0.058888889,-0.405555556,0,0,0,,0,275,275,322,1,,
,,,,,,,,,,,,,,,,,,5e52baa6e8efe2000dbdee79,2020-11-27_15h06.21.374,lexical_decision_task_MP_exp2,2020.2.5,Linux x86_64,60,,z,1,1.251005,,,,,,,,1.251005,1,,,,,,285,NW,UN,16,reldon,PRUDGE,z,,,,,,0.058888889,-0.405555556,0,0,0,,0,276,276,464,1,,
,,,,,,,,,,,,,,,,,,5e52baa6e8efe2000dbdee79,2020-11-27_15h06.21.374,lexical_decision_task_MP_exp2,2020.2.5,Linux x86_64,60,,m,1,0.64822,,,,,,,,0.64822,1,,,,,,24,WORD,UN,16,domain,PRAISE,m,,,,,,0.058888889,-0.405555556,0,0,0,,0,277,277,203,1,,
,,,,,,,,,,,,,,,,,,5e52baa6e8efe2000dbdee79,2020-11-27_15h06.21.374,lexical_decision_task_MP_exp2,2020.2.5,Linux x86_64,60,,m,1,0.619435,,,,,,,,0.619435,1,,,,,,95,WORD,"ID",33,thread,THREAD,m,,,,,,0.058888889,-0.405555556,0,0,0,,0,278,278,34,1,,
,,,,,,,,,,,,,,,,,,5e52baa6e8efe2000dbdee79,2020-11-27_15h06.21.374,lexical_decision_task_MP_exp2,2020.2.5,Linux x86_64,60,,z,1,0.731165,,,,,,,,0.731165,1,,,,,,414,NW,"ID",16,serbol,SERBOL,z,,,,,,0.058888889,-0.405555556,0,0,0,,0,279,279,353,1,,
,,,,,,,,,,,,,,,,,,5e52baa6e8efe2000dbdee79,2020-11-27_15h06.21.374,lexical_decision_task_MP_exp2,2020.2.5,Linux x86_64,60,,m,1,0.86657,,,,,,,,0.86657,1,,,,,,132,WORD,"ID",16,strong,STRONG,m,,,,,,0.058888889,-0.405555556,0,0,0,,0,280,280,71,1,,
,,,,,,,,,,,,,,,,,,5e52baa6e8efe2000dbdee79,2020-11-27_15h06.21.374,lexical_decision_task_MP_exp2,2020.2.5,Linux x86_64,60,,m,1,0.54169,,,,,,,,0.54169,1,,,,,,174,WORD,"ID",16,turkey,TURKEY,m,,,,,,0.058888889,-0.405555556,0,0,0,,0,281,281,113,1,,
,,,,,,,,,,,,,,,,,,5e52baa6e8efe2000dbdee79,2020-11-27_15h06.21.374,lexical_decision_task_MP_exp2,2020.2.5,Linux x86_64,60,,m,1,0.9659,,,,,,,,0.9659,1,,,,,,187,WORD,UN,33,social,COURSE,m,,,,,,0.058888889,-0.405555556,0,0,0,,0,282,282,126,1,,
,,,,,,,,,,,,,,,,,,5e52baa6e8efe2000dbdee79,2020-11-27_15h06.21.374,lexical_decision_task_MP_exp2,2020.2.5,Linux x86_64,60,,z,1,0.652345,,,,,,,,0.652345,1,,,,,,475,NW,UN,33,josted,PEBRIC,z,,,,,,0.058888889,-0.405555556,0,0,0,,0,283,283,414,1,,
,,,,,,,,,,,,,,,,,,5e52baa6e8efe2000dbdee79,2020-11-27_15h06.21.374,lexical_decision_task_MP_exp2,2020.2.5,Linux x86_64,60,,z,1,0.75887,,,,,,,,0.75887,1,,,,,,247,NW,UN,16,strole,BLARGE,z,,,,,,0.058888889,-0.405555556,0,0,0,,0,284,284,426,1,,
,,,,,,,,,,,,,,,,,,5e52baa6e8efe2000dbdee79,2020-11-27_15h06.21.374,lexical_decision_task_MP_exp2,2020.2.5,Linux x86_64,60,,z,1,0.58584,,,,,,,,0.58584,1,,,,,,328,NW,"ID",33,broake,BROAKE,z,,,,,,0.058888889,-0.405555556,0,0,0,,0,285,285,267,1,,
,,,,,,,,,,,,,,,,,,5e52baa6e8efe2000dbdee79,2020-11-27_15h06.21.374,lexical_decision_task_MP_exp2,2020.2.5,Linux x86_64,60,,m,1,0.658205,,,,,,,,0.658205,1,,,,,,141,WORD,"ID",16,orphan,ORPHAN,m,,,,,,0.058888889,-0.405555556,0,0,0,,0,286,286,80,1,,
,,,,,,,,,,,,,,,,,,5e52baa6e8efe2000dbdee79,2020-11-27_15h06.21.374,lexical_decision_task_MP_exp2,2020.2.5,Linux x86_64,60,,m,1,0.606665,,,,,,,,0.606665,1,,,,,,79,WORD,"ID",33,theory,THEORY,m,,,,,,0.058888889,-0.405555556,0,0,0,,0,287,287,18,1,,
,,,,,,,,,,,,,,,,,,5e52baa6e8efe2000dbdee79,2020-11-27_15h06.21.374,lexical_decision_task_MP_exp2,2020.2.5,Linux x86_64,60,,z,1,0.68551,,,,,,,,0.68551,1,,,,,,425,NW,UN,33,urivel,FRUDGE,z,,,,,,0.058888889,-0.405555556,0,0,0,,0,288,288,364,1,,
,,,,,,,,,,,,,,,,,,5e52baa6e8efe2000dbdee79,2020-11-27_15h06.21.374,lexical_decision_task_MP_exp2,2020.2.5,Linux x86_64,60,,m,1,0.70326,,,,,,,,0.70326,1,,,,,,94,WORD,"ID",33,travel,TRAVEL,m,,,,,,0.058888889,-0.405555556,0,0,0,,0,289,289,33,1,,
,,,,,,,,,,,,,,,,,,5e52baa6e8efe2000dbdee79,2020-11-27_15h06.21.374,lexical_decision_task_MP_exp2,2020.2.5,Linux x86_64,60,,m,1,0.914455,,,,,,,,0.914455,1,,,,,,142,WORD,"ID",16,spruce,SPRUCE,m,,,,,,0.058888889,-0.405555556,0,0,0,,0,290,290,81,1,,
,,,,,,,,,,,,,,,,,,5e52baa6e8efe2000dbdee79,2020-11-27_15h06.21.374,lexical_decision_task_MP_exp2,2020.2.5,Linux x86_64,60,,z,1,0.616535,,,,,,,,0.616535,1,,,,,,322,NW,"ID",33,slanch,SLANCH,z,,,,,,0.058888889,-0.405555556,0,0,0,,0,291,291,261,1,,
,,,,,,,,,,,,,,,,,,5e52baa6e8efe2000dbdee79,2020-11-27_15h06.21.374,lexical_decision_task_MP_exp2,2020.2.5,Linux x86_64,60,,z,1,0.72296,,,,,,,,0.72296,1,,,,,,415,NW,"ID",16,higsta,HIGSTA,z,,,,,,0.058888889,-0.405555556,0,0,0,,0,292,292,354,1,,
,,,,,,,,,,,,,,,,,,5e52baa6e8efe2000dbdee79,2020-11-27_15h06.21.374,lexical_decision_task_MP_exp2,2020.2.5,Linux x86_64,60,,z,1,1.30218,,,,,,,,1.30218,1,,,,,,341,NW,"ID",33,myrtie,MYRTIE,z,,,,,,0.058888889,-0.405555556,0,0,0,,0,293,293,280,1,,
,,,,,,,,,,,,,,,,,,5e52baa6e8efe2000dbdee79,2020-11-27_15h06.21.374,lexical_decision_task_MP_exp2,2020.2.5,Linux x86_64,60,,m,1,0.8197,,,,,,,,0.8197,1,,,,,,18,WORD,UN,16,patron,HUMBLE,m,,,,,,0.058888889,-0.405555556,0,0,0,,0,294,294,197,1,,
,,,,,,,,,,,,,,,,,,5e52baa6e8efe2000dbdee79,2020-11-27_15h06.21.374,lexical_decision_task_MP_exp2,2020.2.5,Linux x86_64,60,,z,1,0.751035,,,,,,,,0.751035,1,,,,,,382,NW,"ID",16,sarley,SARLEY,z,,,,,,0.058888889,-0.405555556,0,0,0,,0,295,295,321,1,,
,,,,,,,,,,,,,,,,,,5e52baa6e8efe2000dbdee79,2020-11-27_15h06.21.374,lexical_decision_task_MP_exp2,2020.2.5,Linux x86_64,60,,m,1,0.68624,,,,,,,,0.68624,1,,,,,,127,WORD,"ID",16,castle,CASTLE,m,,,,,,0.058888889,-0.405555556,0,0,0,,0,296,296,66,1,,
,,,,,,,,,,,,,,,,,,5e52baa6e8efe2000dbdee79,2020-11-27_15h06.21.374,lexical_decision_task_MP_exp2,2020.2.5,Linux x86_64,60,,m,1,0.685355,,,,,,,,0.685355,1,,,,,,65,WORD,"ID",33,symbol,SYMBOL,m,,,,,,0.058888889,-0.405555556,0,0,0,,0,297,297,4,1,,
,,,,,,,,,,,,,,,,,,5e52baa6e8efe2000dbdee79,2020-11-27_15h06.21.374,lexical_decision_task_MP_exp2,2020.2.5,Linux x86_64,60,,m,1,0.687515,,,,,,,,0.687515,1,,,,,,100,WORD,"ID",33,carbon,CARBON,m,,,,,,0.058888889,-0.405555556,0,0,0,,0,298,298,39,1,,
,,,,,,,,,,,,,,,,,,5e52baa6e8efe2000dbdee79,2020-11-27_15h06.21.374,lexical_decision_task_MP_exp2,2020.2.5,Linux x86_64,60,,z,1,0.702055,,,,,,,,0.702055,1,,,,,,297,NW,UN,16,piergy,FERTIC,z,,,,,,0.058888889,-0.405555556,0,0,0,,0,299,299,476,1,,
,,,,,,,,,,,,,,,,,,5e52baa6e8efe2000dbdee79,2020-11-27_15h06.21.374,lexical_decision_task_MP_exp2,2020.2.5,Linux x86_64,60,,z,1,0.75135,,,,,,,,0.75135,1,,,,,,474,NW,UN,33,acrise,HABLIN,z,,,,,,0.058888889,-0.405555556,0,0,0,,0,300,300,413,1,,
,,,,,,,,,,,,,,,,,,5e52baa6e8efe2000dbdee79,2020-11-27_15h06.21.374,lexical_decision_task_MP_exp2,2020.2.5,Linux x86_64,60,,z,0,0.085125,,,,,,,,0.085125,0,,,,,,11,WORD,UN,16,amount,CRUISE,m,,,,,,0.058888889,-0.405555556,0,0,0,,0,301,301,190,1,,
,,,,,,,,,,,,,,,,,,5e52baa6e8efe2000dbdee79,2020-11-27_15h06.21.374,lexical_decision_task_MP_exp2,2020.2.5,Linux x86_64,60,,m,1,0.85091,,,,,,,,0.85091,1,,,,,,228,WORD,UN,33,kidney,MASTER,m,,,,,,0.058888889,-0.405555556,0,0,0,,0,302,302,167,1,,
,,,,,,,,,,,,,,,,,,5e52baa6e8efe2000dbdee79,2020-11-27_15h06.21.374,lexical_decision_task_MP_exp2,2020.2.5,Linux x86_64,60,,z,1,0.982965,,,,,,,,0.982965,1,,,,,,359,NW,"ID",33,fonver,FONVER,z,,,,,,0.058888889,-0.405555556,0,0,0,,0,303,303,298,1,,
,,,,,,,,,,,,,,,,,,5e52baa6e8efe2000dbdee79,2020-11-27_15h06.21.374,lexical_decision_task_MP_exp2,2020.2.5,Linux x86_64,60,,z,1,1.070035,,,,,,,,1.070035,1,,,,,,277,NW,UN,16,unighs,PETAIN,z,,,,,,0.058888889,-0.405555556,0,0,0,,0,304,304,456,1,,
,,,,,,,,,,,,,,,,,,5e52baa6e8efe2000dbdee79,2020-11-27_15h06.21.374,lexical_decision_task_MP_exp2,2020.2.5,Linux x86_64,60,,m,1,0.63896,,,,,,,,0.63896,1,,,,,,44,WORD,UN,16,clergy,DANGER,m,,,,,,0.058888889,-0.405555556,0,0,0,,0,305,305,223,1,,
,,,,,,,,,,,,,,,,,,5e52baa6e8efe2000dbdee79,2020-11-27_15h06.21.374,lexical_decision_task_MP_exp2,2020.2.5,Linux x86_64,60,,z,1,0.78349,,,,,,,,0.78349,1,,,,,,445,NW,UN,33,runamo,MINKEL,z,,,,,,0.058888889,-0.405555556,0,0,0,,0,306,306,384,1,,
,,,,,,,,,,,,,,,,,,5e52baa6e8efe2000dbdee79,2020-11-27_15h06.21.374,lexical_decision_task_MP_exp2,2020.2.5,Linux x86_64,60,,m,1,0.650875,,,,,,,,0.650875,1,,,,,,7,WORD,UN,16,abrupt,ANCHOR,m,,,,,,0.058888889,-0.405555556,0,0,0,,0,307,307,186,1,,
,,,,,,,,,,,,,,,,,,5e52baa6e8efe2000dbdee79,2020-11-27_15h06.21.374,lexical_decision_task_MP_exp2,2020.2.5,Linux x86_64,60,,z,1,0.705525,,,,,,,,0.705525,1,,,,,,378,NW,"ID",16,shrile,SHRILE,z,,,,,,0.058888889,-0.405555556,0,0,0,,0,308,308,317,1,,
,,,,,,,,,,,,,,,,,,5e52baa6e8efe2000dbdee79,2020-11-27_15h06.21.374,lexical_decision_task_MP_exp2,2020.2.5,Linux x86_64,60,,z,1,0.7437,,,,,,,,0.7437,1,,,,,,375,NW,"ID",16,yorque,YORQUE,z,,,,,,0.058888889,-0.405555556,0,0,0,,0,309,309,314,1,,
,,,,,,,,,,,,,,,,,,5e52baa6e8efe2000dbdee79,2020-11-27_15h06.21.374,lexical_decision_task_MP_exp2,2020.2.5,Linux x86_64,60,,z,1,0.67909,,,,,,,,0.67909,1,,,,,,300,NW,UN,16,smenco,YARION,z,,,,,,0.058888889,-0.405555556,0,0,0,,0,310,310,479,1,,
,,,,,,,,,,,,,,,,,,5e52baa6e8efe2000dbdee79,2020-11-27_15h06.21.374,lexical_decision_task_MP_exp2,2020.2.5,Linux x86_64,60,,m,1,0.68241,,,,,,,,0.68241,1,,,,,,105,WORD,"ID",33,number,NUMBER,m,,,,,,0.058888889,-0.405555556,0,0,0,,0,311,311,44,1,,
,,,,,,,,,,,,,,,,,,5e52baa6e8efe2000dbdee79,2020-11-27_15h06.21.374,lexical_decision_task_MP_exp2,2020.2.5,Linux x86_64,60,,z,1,0.88691,,,,,,,,0.88691,1,,,,,,348,NW,"ID",33,dumple,DUMPLE,z,,,,,,0.058888889,-0.405555556,0,0,0,,0,312,312,287,1,,
,,,,,,,,,,,,,,,,,,5e52baa6e8efe2000dbdee79,2020-11-27_15h06.21.374,lexical_decision_task_MP_exp2,2020.2.5,Linux x86_64,60,,m,1,0.81649,,,,,,,,0.81649,1,,,,,,161,WORD,"ID",16,pastor,PASTOR,m,,,,,,0.058888889,-0.405555556,0,0,0,,0,313,313,100,1,,
,,,,,,,,,,,,,,,,,,5e52baa6e8efe2000dbdee79,2020-11-27_15h06.21.374,lexical_decision_task_MP_exp2,2020.2.5,Linux x86_64,60,,m,1,0.649655,,,,,,,,0.649655,1,,,,,,93,WORD,"ID",33,public,PUBLIC,m,,,,,,0.058888889,-0.405555556,0,0,0,,0,314,314,32,1,,
,,,,,,,,,,,,,,,,,,5e52baa6e8efe2000dbdee79,2020-11-27_15h06.21.374,lexical_decision_task_MP_exp2,2020.2.5,Linux x86_64,60,,z,1,0.96847,,,,,,,,0.96847,1,,,,,,428,NW,UN,33,funtle,TANDLY,z,,,,,,0.058888889,-0.405555556,0,0,0,,0,315,315,367,1,,
,,,,,,,,,,,,,,,,,,5e52baa6e8efe2000dbdee79,2020-11-27_15h06.21.374,lexical_decision_task_MP_exp2,2020.2.5,Linux x86_64,60,,z,1,0.836665,,,,,,,,0.836665,1,,,,,,478,NW,UN,33,pebric,ACRISE,z,,,,,,0.058888889,-0.405555556,0,0,0,,0,316,316,417,1,,
,,,,,,,,,,,,,,,,,,5e52baa6e8efe2000dbdee79,2020-11-27_15h06.21.374,lexical_decision_task_MP_exp2,2020.2.5,Linux x86_64,60,,z,0,0.567445,,,,,,,,0.567445,0,,,,,,215,WORD,UN,33,lumber,PHOBIA,m,,,,,,0.058888889,-0.405555556,0,0,0,,0,317,317,154,1,,
,,,,,,,,,,,,,,,,,,5e52baa6e8efe2000dbdee79,2020-11-27_15h06.21.374,lexical_decision_task_MP_exp2,2020.2.5,Linux x86_64,60,,z,1,1.065875,,,,,,,,1.065875,1,,,,,,391,NW,"ID",16,theldy,THELDY,z,,,,,,0.058888889,-0.405555556,0,0,0,,0,318,318,330,1,,
,,,,,,,,,,,,,,,,,,5e52baa6e8efe2000dbdee79,2020-11-27_15h06.21.374,lexical_decision_task_MP_exp2,2020.2.5,Linux x86_64,60,,z,1,0.766345,,,,,,,,0.766345,1,,,,,,469,NW,UN,33,crudio,PADIFS,z,,,,,,0.058888889,-0.405555556,0,0,0,,0,319,319,408,1,,
,,,,,,,,,,,,,,,,,,5e52baa6e8efe2000dbdee79,2020-11-27_15h06.21.374,lexical_decision_task_MP_exp2,2020.2.5,Linux x86_64,60,,m,1,0.57405,,,,,,,,0.57405,1,,,,,,53,WORD,UN,16,ramble,POLICE,m,,,,,,0.058888889,-0.405555556,0,0,0,,0,320,320,232,1,,
,,,,,,,,,,,,,,,,,,5e52baa6e8efe2000dbdee79,2020-11-27_15h06.21.374,lexical_decision_task_MP_exp2,2020.2.5,Linux x86_64,60,,m,1,1.000365,,,,,,,,1.000365,1,,,,,,74,WORD,"ID",33,plaque,PLAQUE,m,,,,,,0.058888889,-0.405555556,0,0,0,,0,321,321,13,1,,
,,,,,,,,,,,,,,,,,,5e52baa6e8efe2000dbdee79,2020-11-27_15h06.21.374,lexical_decision_task_MP_exp2,2020.2.5,Linux x86_64,60,,m,1,0.582905,,,,,,,,0.582905,1,,,,,,80,WORD,"ID",33,family,FAMILY,m,,,,,,0.058888889,-0.405555556,0,0,0,,0,322,322,19,1,,
,,,,,,,,,,,,,,,,,,5e52baa6e8efe2000dbdee79,2020-11-27_15h06.21.374,lexical_decision_task_MP_exp2,2020.2.5,Linux x86_64,60,,m,1,0.750035,,,,,,,,0.750035,1,,,,,,216,WORD,UN,33,liquor,BEHALF,m,,,,,,0.058888889,-0.405555556,0,0,0,,0,323,323,155,1,,
,,,,,,,,,,,,,,,,,,5e52baa6e8efe2000dbdee79,2020-11-27_15h06.21.374,lexical_decision_task_MP_exp2,2020.2.5,Linux x86_64,60,,m,1,0.833745,,,,,,,,0.833745,1,,,,,,89,WORD,"ID",33,permit,PERMIT,m,,,,,,0.058888889,-0.405555556,0,0,0,,0,324,324,28,1,,
,,,,,,,,,,,,,,,,,,5e52baa6e8efe2000dbdee79,2020-11-27_15h06.21.374,lexical_decision_task_MP_exp2,2020.2.5,Linux x86_64,60,,m,1,0.594425,,,,,,,,0.594425,1,,,,,,21,WORD,UN,16,jockey,SIMPLE,m,,,,,,0.058888889,-0.405555556,0,0,0,,0,325,325,200,1,,
,,,,,,,,,,,,,,,,,,5e52baa6e8efe2000dbdee79,2020-11-27_15h06.21.374,lexical_decision_task_MP_exp2,2020.2.5,Linux x86_64,60,,m,1,0.836935,,,,,,,,0.836935,1,,,,,,163,WORD,"ID",16,string,STRING,m,,,,,,0.058888889,-0.405555556,0,0,0,,0,326,326,102,1,,
,,,,,,,,,,,,,,,,,,5e52baa6e8efe2000dbdee79,2020-11-27_15h06.21.374,lexical_decision_task_MP_exp2,2020.2.5,Linux x86_64,60,,z,1,1.18505,,,,,,,,1.18505,1,,,,,,427,NW,UN,33,tandly,SCHIND,z,,,,,,0.058888889,-0.405555556,0,0,0,,0,327,327,366,1,,
,,,,,,,,,,,,,,,,,,5e52baa6e8efe2000dbdee79,2020-11-27_15h06.21.374,lexical_decision_task_MP_exp2,2020.2.5,Linux x86_64,60,,m,1,0.768445,,,,,,,,0.768445,1,,,,,,198,WORD,UN,33,invoke,WICKED,m,,,,,,0.058888889,-0.405555556,0,0,0,,0,328,328,137,1,,
,,,,,,,,,,,,,,,,,,5e52baa6e8efe2000dbdee79,2020-11-27_15h06.21.374,lexical_decision_task_MP_exp2,2020.2.5,Linux x86_64,60,,z,1,0.751615,,,,,,,,0.751615,1,,,,,,315,NW,"ID",33,laston,LASTON,z,,,,,,0.058888889,-0.405555556,0,0,0,,0,329,329,254,1,,
,,,,,,,,,,,,,,,,,,5e52baa6e8efe2000dbdee79,2020-11-27_15h06.21.374,lexical_decision_task_MP_exp2,2020.2.5,Linux x86_64,60,,z,0,0.822355,,,,,,,,0.822355,0,,,,,,68,WORD,"ID",33,fumble,FUMBLE,m,,,,,,0.058888889,-0.405555556,0,0,0,,0,330,330,7,1,,
,,,,,,,,,,,,,,,,,,5e52baa6e8efe2000dbdee79,2020-11-27_15h06.21.374,lexical_decision_task_MP_exp2,2020.2.5,Linux x86_64,60,,m,1,0.62057,,,,,,,,0.62057,1,,,,,,34,WORD,UN,16,socket,JUNGLE,m,,,,,,0.058888889,-0.405555556,0,0,0,,0,331,331,213,1,,
,,,,,,,,,,,,,,,,,,5e52baa6e8efe2000dbdee79,2020-11-27_15h06.21.374,lexical_decision_task_MP_exp2,2020.2.5,Linux x86_64,60,,z,1,0.81649,,,,,,,,0.81649,1,,,,,,275,NW,UN,16,yarmon,SLEIRT,z,,,,,,0.058888889,-0.405555556,0,0,0,,0,332,332,454,1,,
,,,,,,,,,,,,,,,,,,5e52baa6e8efe2000dbdee79,2020-11-27_15h06.21.374,lexical_decision_task_MP_exp2,2020.2.5,Linux x86_64,60,,m,1,0.793925,,,,,,,,0.793925,1,,,,,,160,WORD,"ID",16,violet,VIOLET,m,,,,,,0.058888889,-0.405555556,0,0,0,,0,333,333,99,1,,
,,,,,,,,,,,,,,,,,,5e52baa6e8efe2000dbdee79,2020-11-27_15h06.21.374,lexical_decision_task_MP_exp2,2020.2.5,Linux x86_64,60,,z,1,0.866275,,,,,,,,0.866275,1,,,,,,338,NW,"ID",33,wreash,WREASH,z,,,,,,0.058888889,-0.405555556,0,0,0,,0,334,334,277,1,,
,,,,,,,,,,,,,,,,,,5e52baa6e8efe2000dbdee79,2020-11-27_15h06.21.374,lexical_decision_task_MP_exp2,2020.2.5,Linux x86_64,60,,m,1,0.75477,,,,,,,,0.75477,1,,,,,,92,WORD,"ID",33,strand,STRAND,m,,,,,,0.058888889,-0.405555556,0,0,0,,0,335,335,31,1,,
,,,,,,,,,,,,,,,,,,5e52baa6e8efe2000dbdee79,2020-11-27_15h06.21.374,lexical_decision_task_MP_exp2,2020.2.5,Linux x86_64,60,,z,1,0.834695,,,,,,,,0.834695,1,,,,,,282,NW,UN,16,veralf,PORLEX,z,,,,,,0.058888889,-0.405555556,0,0,0,,0,336,336,461,1,,
,,,,,,,,,,,,,,,,,,5e52baa6e8efe2000dbdee79,2020-11-27_15h06.21.374,lexical_decision_task_MP_exp2,2020.2.5,Linux x86_64,60,,z,1,0.78683,,,,,,,,0.78683,1,,,,,,408,NW,"ID",16,hurnia,HURNIA,z,,,,,,0.058888889,-0.405555556,0,0,0,,0,337,337,347,1,,
,,,,,,,,,,,,,,,,,,5e52baa6e8efe2000dbdee79,2020-11-27_15h06.21.374,lexical_decision_task_MP_exp2,2020.2.5,Linux x86_64,60,,m,1,0.89408,,,,,,,,0.89408,1,,,,,,129,WORD,"ID",16,marvel,MARVEL,m,,,,,,0.058888889,-0.405555556,0,0,0,,0,338,338,68,1,,
,,,,,,,,,,,,,,,,,,5e52baa6e8efe2000dbdee79,2020-11-27_15h06.21.374,lexical_decision_task_MP_exp2,2020.2.5,Linux x86_64,60,,m,1,0.70181,,,,,,,,0.70181,1,,,,,,111,WORD,"ID",33,induce,INDUCE,m,,,,,,0.058888889,-0.405555556,0,0,0,,0,339,339,50,1,,
,,,,,,,,,,,,,,,,,,5e52baa6e8efe2000dbdee79,2020-11-27_15h06.21.374,lexical_decision_task_MP_exp2,2020.2.5,Linux x86_64,60,,m,1,0.82079,,,,,,,,0.82079,1,,,,,,116,WORD,"ID",33,tumble,TUMBLE,m,,,,,,0.058888889,-0.405555556,0,0,0,,0,340,340,55,1,,
,,,,,,,,,,,,,,,,,,5e52baa6e8efe2000dbdee79,2020-11-27_15h06.21.374,lexical_decision_task_MP_exp2,2020.2.5,Linux x86_64,60,,m,1,0.87776,,,,,,,,0.87776,1,,,,,,63,WORD,"ID",33,launch,LAUNCH,m,,,,,,0.058888889,-0.405555556,0,0,0,,0,341,341,2,1,,
,,,,,,,,,,,,,,,,,,5e52baa6e8efe2000dbdee79,2020-11-27_15h06.21.374,lexical_decision_task_MP_exp2,2020.2.5,Linux x86_64,60,,z,1,0.77089,,,,,,,,0.77089,1,,,,,,476,NW,UN,33,photie,JOSTED,z,,,,,,0.058888889,-0.405555556,0,0,0,,0,342,342,415,1,,
,,,,,,,,,,,,,,,,,,5e52baa6e8efe2000dbdee79,2020-11-27_15h06.21.374,lexical_decision_task_MP_exp2,2020.2.5,Linux x86_64,60,,z,1,0.918955,,,,,,,,0.918955,1,,,,,,449,NW,UN,33,phrect,BRUNGE,z,,,,,,0.058888889,-0.405555556,0,0,0,,0,343,343,388,1,,
,,,,,,,,,,,,,,,,,,5e52baa6e8efe2000dbdee79,2020-11-27_15h06.21.374,lexical_decision_task_MP_exp2,2020.2.5,Linux x86_64,60,,z,1,0.79971,,,,,,,,0.79971,1,,,,,,433,NW,UN,33,pitrom,DRANCE,z,,,,,,0.058888889,-0.405555556,0,0,0,,0,344,344,372,1,,
,,,,,,,,,,,,,,,,,,5e52baa6e8efe2000dbdee79,2020-11-27_15h06.21.374,lexical_decision_task_MP_exp2,2020.2.5,Linux x86_64,60,,m,1,0.733055,,,,,,,,0.733055,1,,,,,,175,WORD,"ID",16,fabric,FABRIC,m,,,,,,0.058888889,-0.405555556,0,0,0,,0,345,345,114,1,,
,,,,,,,,,,,,,,,,,,5e52baa6e8efe2000dbdee79,2020-11-27_15h06.21.374,lexical_decision_task_MP_exp2,2020.2.5,Linux x86_64,60,,m,1,0.703515,,,,,,,,0.703515,1,,,,,,37,WORD,UN,16,powder,INSULT,m,,,,,,0.058888889,-0.405555556,0,0,0,,0,346,346,216,1,,
,,,,,,,,,,,,,,,,,,5e52baa6e8efe2000dbdee79,2020-11-27_15h06.21.374,lexical_decision_task_MP_exp2,2020.2.5,Linux x86_64,60,,z,1,0.82463,,,,,,,,0.82463,1,,,,,,344,NW,"ID",33,scrily,SCRILY,z,,,,,,0.058888889,-0.405555556,0,0,0,,0,347,347,283,1,,
,,,,,,,,,,,,,,,,,,5e52baa6e8efe2000dbdee79,2020-11-27_15h06.21.374,lexical_decision_task_MP_exp2,2020.2.5,Linux x86_64,60,,m,1,0.89161,,,,,,,,0.89161,1,,,,,,193,WORD,UN,33,mildew,OBJECT,m,,,,,,0.058888889,-0.405555556,0,0,0,,0,348,348,132,1,,
,,,,,,,,,,,,,,,,,,5e52baa6e8efe2000dbdee79,2020-11-27_15h06.21.374,lexical_decision_task_MP_exp2,2020.2.5,Linux x86_64,60,,m,1,0.816325,,,,,,,,0.816325,1,,,,,,226,WORD,UN,33,flower,CASINO,m,,,,,,0.058888889,-0.405555556,0,0,0,,0,349,349,165,1,,
,,,,,,,,,,,,,,,,,,5e52baa6e8efe2000dbdee79,2020-11-27_15h06.21.374,lexical_decision_task_MP_exp2,2020.2.5,Linux x86_64,60,,z,1,1.016445,,,,,,,,1.016445,1,,,,,,268,NW,UN,16,orchet,PACKES,z,,,,,,0.058888889,-0.405555556,0,0,0,,0,350,350,447,1,,
,,,,,,,,,,,,,,,,,,5e52baa6e8efe2000dbdee79,2020-11-27_15h06.21.374,lexical_decision_task_MP_exp2,2020.2.5,Linux x86_64,60,,m,1,0.701635,,,,,,,,0.701635,1,,,,,,233,WORD,UN,33,clumsy,NATURE,m,,,,,,0.058888889,-0.405555556,0,0,0,,0,351,351,172,1,,
,,,,,,,,,,,,,,,,,,5e52baa6e8efe2000dbdee79,2020-11-27_15h06.21.374,lexical_decision_task_MP_exp2,2020.2.5,Linux x86_64,60,,z,1,0.82058,,,,,,,,0.82058,1,,,,,,443,NW,UN,33,jaunce,DORSEX,z,,,,,,0.058888889,-0.405555556,0,0,0,,0,352,352,382,1,,
,,,,,,,,,,,,,,,,,,5e52baa6e8efe2000dbdee79,2020-11-27_15h06.21.374,lexical_decision_task_MP_exp2,2020.2.5,Linux x86_64,60,,z,1,1.03712,,,,,,,,1.03712,1,,,,,,280,NW,UN,16,melaty,CURBOL,z,,,,,,0.058888889,-0.405555556,0,0,0,,0,353,353,459,1,,
,,,,,,,,,,,,,,,,,,5e52baa6e8efe2000dbdee79,2020-11-27_15h06.21.374,lexical_decision_task_MP_exp2,2020.2.5,Linux x86_64,60,,m,1,0.75438,,,,,,,,0.75438,1,,,,,,229,WORD,UN,33,fringe,MOTHER,m,,,,,,0.058888889,-0.405555556,0,0,0,,0,354,354,168,1,,
,,,,,,,,,,,,,,,,,,5e52baa6e8efe2000dbdee79,2020-11-27_15h06.21.374,lexical_decision_task_MP_exp2,2020.2.5,Linux x86_64,60,,z,1,0.793035,,,,,,,,0.793035,1,,,,,,293,NW,UN,16,inhort,SWANCE,z,,,,,,0.058888889,-0.405555556,0,0,0,,0,355,355,472,1,,
,,,,,,,,,,,,,,,,,,5e52baa6e8efe2000dbdee79,2020-11-27_15h06.21.374,lexical_decision_task_MP_exp2,2020.2.5,Linux x86_64,60,,m,1,1.06701,,,,,,,,1.06701,1,,,,,,214,WORD,UN,33,phobia,INTAKE,m,,,,,,0.058888889,-0.405555556,0,0,0,,0,356,356,153,1,,
,,,,,,,,,,,,,,,,,,5e52baa6e8efe2000dbdee79,2020-11-27_15h06.21.374,lexical_decision_task_MP_exp2,2020.2.5,Linux x86_64,60,,m,1,0.89976,,,,,,,,0.89976,1,,,,,,10,WORD,UN,16,cruise,ETHNIC,m,,,,,,0.058888889,-0.405555556,0,0,0,,0,357,357,189,1,,
,,,,,,,,,,,,,,,,,,5e52baa6e8efe2000dbdee79,2020-11-27_15h06.21.374,lexical_decision_task_MP_exp2,2020.2.5,Linux x86_64,60,,m,1,0.775435,,,,,,,,0.775435,1,,,,,,124,WORD,"ID",16,blouse,BLOUSE,m,,,,,,0.058888889,-0.405555556,0,0,0,,0,358,358,63,1,,
,,,,,,,,,,,,,,,,,,5e52baa6e8efe2000dbdee79,2020-11-27_15h06.21.374,lexical_decision_task_MP_exp2,2020.2.5,Linux x86_64,60,,z,1,0.952545,,,,,,,,0.952545,1,,,,,,305,NW,"ID",33,forgle,FORGLE,z,,,,,,0.058888889,-0.405555556,0,0,0,,0,359,359,244,1,,
,,,,,,,,,,,,,,,,,,5e52baa6e8efe2000dbdee79,2020-11-27_15h06.21.374,lexical_decision_task_MP_exp2,2020.2.5,Linux x86_64,60,,z,1,0.85564,,,,,,,,0.85564,1,,,,,,421,NW,UN,33,alcoud,KNISMA,z,,,,,,0.058888889,-0.405555556,0,0,0,,0,360,360,360,1,,
,,,,,,,,,,,,,,,,,,5e52baa6e8efe2000dbdee79,2020-11-27_15h06.21.374,lexical_decision_task_MP_exp2,2020.2.5,Linux x86_64,60,,m,1,0.749785,,,,,,,,0.749785,1,,,,,,217,WORD,UN,33,shrink,LIQUOR,m,,,,,,0.058888889,-0.405555556,0,0,0,,0,361,361,156,1,,
,,,,,,,,,,,,,,,,,,5e52baa6e8efe2000dbdee79,2020-11-27_15h06.21.374,lexical_decision_task_MP_exp2,2020.2.5,Linux x86_64,60,,z,1,0.85827,,,,,,,,0.85827,1,,,,,,405,NW,"ID",16,flumni,FLUMNI,z,,,,,,0.058888889,-0.405555556,1,0,0,,0,362,362,344,1,,break_done_button
,,,,,,,,,,,,,,,,,,5e52baa6e8efe2000dbdee79,2020-11-27_15h06.21.374,lexical_decision_task_MP_exp2,2020.2.5,Linux x86_64,60,,z,1,1.10288,,,,,,,,1.10288,1,,,,,,265,NW,UN,16,varmit,DISTAR,z,,,,,,0.058888889,-0.405555556,0,0,0,,0,363,363,444,1,,
,,,,,,,,,,,,,,,,,,5e52baa6e8efe2000dbdee79,2020-11-27_15h06.21.374,lexical_decision_task_MP_exp2,2020.2.5,Linux x86_64,60,,z,1,1.007805,,,,,,,,1.007805,1,,,,,,352,NW,"ID",33,tringe,TRINGE,z,,,,,,0.058888889,-0.405555556,0,0,0,,0,364,364,291,1,,
,,,,,,,,,,,,,,,,,,5e52baa6e8efe2000dbdee79,2020-11-27_15h06.21.374,lexical_decision_task_MP_exp2,2020.2.5,Linux x86_64,60,,z,1,0.73608,,,,,,,,0.73608,1,,,,,,296,NW,UN,16,fertic,BEINCH,z,,,,,,0.058888889,-0.405555556,0,0,0,,0,365,365,475,1,,
,,,,,,,,,,,,,,,,,,5e52baa6e8efe2000dbdee79,2020-11-27_15h06.21.374,lexical_decision_task_MP_exp2,2020.2.5,Linux x86_64,60,,m,1,0.61767,,,,,,,,0.61767,1,,,,,,210,WORD,UN,33,infect,MONKEY,m,,,,,,0.058888889,-0.405555556,0,0,0,,0,366,366,149,1,,
,,,,,,,,,,,,,,,,,,5e52baa6e8efe2000dbdee79,2020-11-27_15h06.21.374,lexical_decision_task_MP_exp2,2020.2.5,Linux x86_64,60,,m,1,0.63375,,,,,,,,0.63375,1,,,,,,66,WORD,"ID",33,gospel,GOSPEL,m,,,,,,0.058888889,-0.405555556,0,0,0,,0,367,367,5,1,,
,,,,,,,,,,,,,,,,,,5e52baa6e8efe2000dbdee79,2020-11-27_15h06.21.374,lexical_decision_task_MP_exp2,2020.2.5,Linux x86_64,60,,m,1,0.63277,,,,,,,,0.63277,1,,,,,,76,WORD,"ID",33,exotic,EXOTIC,m,,,,,,0.058888889,-0.405555556,0,0,0,,0,368,368,15,1,,
,,,,,,,,,,,,,,,,,,5e52baa6e8efe2000dbdee79,2020-11-27_15h06.21.374,lexical_decision_task_MP_exp2,2020.2.5,Linux x86_64,60,,m,1,0.776035,,,,,,,,0.776035,1,,,,,,72,WORD,"ID",33,bright,BRIGHT,m,,,,,,0.058888889,-0.405555556,0,0,0,,0,369,369,11,1,,
,,,,,,,,,,,,,,,,,,5e52baa6e8efe2000dbdee79,2020-11-27_15h06.21.374,lexical_decision_task_MP_exp2,2020.2.5,Linux x86_64,60,,z,1,0.951685,,,,,,,,0.951685,1,,,,,,404,NW,"ID",16,cluirm,CLUIRM,z,,,,,,0.058888889,-0.405555556,0,0,0,,0,370,370,343,1,,
,,,,,,,,,,,,,,,,,,5e52baa6e8efe2000dbdee79,2020-11-27_15h06.21.374,lexical_decision_task_MP_exp2,2020.2.5,Linux x86_64,60,,z,1,0.61922,,,,,,,,0.61922,1,,,,,,463,NW,UN,33,chaite,KISPEL,z,,,,,,0.058888889,-0.405555556,0,0,0,,0,371,371,402,1,,
,,,,,,,,,,,,,,,,,,5e52baa6e8efe2000dbdee79,2020-11-27_15h06.21.374,lexical_decision_task_MP_exp2,2020.2.5,Linux x86_64,60,,z,1,1.64908,,,,,,,,1.64908,1,,,,,,303,NW,"ID",33,fiream,FIREAM,z,,,,,,0.058888889,-0.405555556,0,0,0,,0,372,372,242,1,,
,,,,,,,,,,,,,,,,,,5e52baa6e8efe2000dbdee79,2020-11-27_15h06.21.374,lexical_decision_task_MP_exp2,2020.2.5,Linux x86_64,60,,m,1,0.71555,,,,,,,,0.71555,1,,,,,,58,WORD,UN,16,splint,FOSTER,m,,,,,,0.058888889,-0.405555556,0,0,0,,0,373,373,237,1,,
,,,,,,,,,,,,,,,,,,5e52baa6e8efe2000dbdee79,2020-11-27_15h06.21.374,lexical_decision_task_MP_exp2,2020.2.5,Linux x86_64,60,,z,1,0.76652,,,,,,,,0.76652,1,,,,,,295,NW,UN,16,beinch,GLEATH,z,,,,,,0.058888889,-0.405555556,0,0,0,,0,374,374,474,1,,
,,,,,,,,,,,,,,,,,,5e52baa6e8efe2000dbdee79,2020-11-27_15h06.21.374,lexical_decision_task_MP_exp2,2020.2.5,Linux x86_64,60,,m,1,0.7002,,,,,,,,0.7002,1,,,,,,188,WORD,UN,33,censor,SOCIAL,m,,,,,,0.058888889,-0.405555556,0,0,0,,0,375,375,127,1,,
,,,,,,,,,,,,,,,,,,5e52baa6e8efe2000dbdee79,2020-11-27_15h06.21.374,lexical_decision_task_MP_exp2,2020.2.5,Linux x86_64,60,,z,1,0.70769,,,,,,,,0.70769,1,,,,,,455,NW,UN,33,broget,TONDLE,z,,,,,,0.058888889,-0.405555556,0,0,0,,0,376,376,394,1,,
,,,,,,,,,,,,,,,,,,5e52baa6e8efe2000dbdee79,2020-11-27_15h06.21.374,lexical_decision_task_MP_exp2,2020.2.5,Linux x86_64,60,,m,1,0.62763,,,,,,,,0.62763,1,,,,,,238,WORD,UN,33,behalf,FLOWER,m,,,,,,0.058888889,-0.405555556,0,0,0,,0,377,377,177,1,,
,,,,,,,,,,,,,,,,,,5e52baa6e8efe2000dbdee79,2020-11-27_15h06.21.374,lexical_decision_task_MP_exp2,2020.2.5,Linux x86_64,60,,z,1,0.7662,,,,,,,,0.7662,1,,,,,,343,NW,"ID",33,aimosy,AIMOSY,z,,,,,,0.058888889,-0.405555556,0,0,0,,0,378,378,282,1,,
,,,,,,,,,,,,,,,,,,5e52baa6e8efe2000dbdee79,2020-11-27_15h06.21.374,lexical_decision_task_MP_exp2,2020.2.5,Linux x86_64,60,,m,1,0.640045,,,,,,,,0.640045,1,,,,,,147,WORD,"ID",16,garlic,GARLIC,m,,,,,,0.058888889,-0.405555556,0,0,0,,0,379,379,86,1,,
