counterbalancing_condition,instr_done_keyboard.keys,instr_done_touch.x,instr_done_touch.y,instr_done_touch.leftButton,instr_done_touch.midButton,instr_done_touch.rightButton,instr_done_touch.clicked_name,instruction_pages.thisRepN,instruction_pages.thisTrialN,instruction_pages.thisN,instruction_pages.thisIndex,instruction_pages.ran,pageN,phase,instruct_text,has_image,instruct_image,participant,date,expName,psychopyVersion,OS,frameRate,instr_done_keyboard.rt,response.keys,response.corr,response.rt,touch_resp.x,touch_resp.y,touch_resp.leftButton,touch_resp.midButton,touch_resp.rightButton,touch_resp.time,touch_resp.clicked_name,rt,corr,practice_trials.thisRepN,practice_trials.thisTrialN,practice_trials.thisN,practice_trials.thisIndex,practice_trials.ran,TrialID,StimulusType,Condition,PrimeDuration,Prime,Target,corrAns,end_of_practice_trials_pages.thisRepN,end_of_practice_trials_pages.thisTrialN,end_of_practice_trials_pages.thisN,end_of_practice_trials_pages.thisIndex,end_of_practice_trials_pages.ran,break_done_touch.x,break_done_touch.y,break_done_touch.leftButton,break_done_touch.midButton,break_done_touch.rightButton,break_done_keyboard.keys,experiment_trials.thisRepN,experiment_trials.thisTrialN,experiment_trials.thisN,experiment_trials.thisIndex,experiment_trials.ran,break_done_keyboard.rt
0,,0.026851865,-0.408333347,1,0,0,instr_done_button,0,0,0,0,1,1,instructions,"INSTRUCTIONS
At the start of each trial, look at the hash marks (######) in the center of the screen. After a moment, a string of letters will appear. Your task is to indicate if the letter string forms a word or not (i.e., if it is a nonword). For example, AUTHOR is a word while AUTHON is a nonword.

Press the space bar or touch the button below to continue.",0,,5e66c77e8ebdaf4466e26326,2020-11-27_15h05.23.399,lexical_decision_task_MP_exp2,2020.2.5,Win32,60,,,,,,,,,,,,,,,,,,,,,,,,,,,,,,,,,,,,,,,,,,
,space,0.026851865,-0.408333347,0,0,0,,0,1,1,1,1,2,instructions,"If your device has a keyboard, press the 'Z' key for nonwords and the 'M' key for words.





Press the space bar or touch the button below to continue.",1,keyboard-example.gif,5e66c77e8ebdaf4466e26326,2020-11-27_15h05.23.399,lexical_decision_task_MP_exp2,2020.2.5,Win32,60,9.322545,,,,,,,,,,,,,,,,,,,,,,,,,,,,,,,,,,,,,,,,,
,space,0.026851865,-0.408333347,0,0,0,,0,2,2,2,1,3,instructions,"If you are using a touchscreen only device, use the buttons on the screen. Do not use the mouse.





Press the space bar or touch the button below to continue.",1,touchscreen-example.gif,5e66c77e8ebdaf4466e26326,2020-11-27_15h05.23.399,lexical_decision_task_MP_exp2,2020.2.5,Win32,60,2.609635,,,,,,,,,,,,,,,,,,,,,,,,,,,,,,,,,,,,,,,,,
,space,0.026851865,-0.408333347,0,0,0,,0,3,3,3,1,4,instructions,"It is very important that you respond as quickly and accurately as possible, as each letter string will only be on the screen for two seconds. If you do not respond within this time, the message 'Too slow!' will be displayed and the experiment will progress to the next letter string. The first 20 trials will be practice trials and you will receive feedback on your answers. 

Press the space bar or touch the button below to start the practice trials.",0,,5e66c77e8ebdaf4466e26326,2020-11-27_15h05.23.399,lexical_decision_task_MP_exp2,2020.2.5,Win32,60,3.07117,,,,,,,,,,,,,,,,,,,,,,,,,,,,,,,,,,,,,,,,,
,,,,,,,,,,,,,,,,,,5e66c77e8ebdaf4466e26326,2020-11-27_15h05.23.399,lexical_decision_task_MP_exp2,2020.2.5,Win32,60,,m,1,1.341745,,,,,,,,1.341745,1,0,0,0,5,1,1006,WORD,UN,33,frenzy,OBTAIN,m,,,,,,,,,,,,,,,,,
,,,,,,,,,,,,,,,,,,5e66c77e8ebdaf4466e26326,2020-11-27_15h05.23.399,lexical_decision_task_MP_exp2,2020.2.5,Win32,60,,m,1,0.75938,,,,,,,,0.75938,1,0,1,1,2,1,1003,WORD,"ID",16,almond,ALMOND,m,,,,,,,,,,,,,,,,,
,,,,,,,,,,,,,,,,,,5e66c77e8ebdaf4466e26326,2020-11-27_15h05.23.399,lexical_decision_task_MP_exp2,2020.2.5,Win32,60,,z,1,0.765985,,,,,,,,0.765985,1,0,2,2,9,1,1010,NW,"ID",33,fariny,FARINY,z,,,,,,,,,,,,,,,,,
,,,,,,,,,,,,,,,,,,5e66c77e8ebdaf4466e26326,2020-11-27_15h05.23.399,lexical_decision_task_MP_exp2,2020.2.5,Win32,60,,z,1,0.68769,,,,,,,,0.68769,1,0,3,3,10,1,1011,NW,"ID",16,inlade,INLADE,z,,,,,,,,,,,,,,,,,
,,,,,,,,,,,,,,,,,,5e66c77e8ebdaf4466e26326,2020-11-27_15h05.23.399,lexical_decision_task_MP_exp2,2020.2.5,Win32,60,,m,1,0.618005,,,,,,,,0.618005,1,0,4,4,1,1,1002,WORD,"ID",33,adjust,ADJUST,m,,,,,,,,,,,,,,,,,
,,,,,,,,,,,,,,,,,,5e66c77e8ebdaf4466e26326,2020-11-27_15h05.23.399,lexical_decision_task_MP_exp2,2020.2.5,Win32,60,,m,1,0.53972,,,,,,,,0.53972,1,0,5,5,3,1,1004,WORD,"ID",16,matrix,MATRIX,m,,,,,,,,,,,,,,,,,
,,,,,,,,,,,,,,,,,,5e66c77e8ebdaf4466e26326,2020-11-27_15h05.23.399,lexical_decision_task_MP_exp2,2020.2.5,Win32,60,,m,1,0.666845,,,,,,,,0.666845,1,0,6,6,0,1,1001,WORD,"ID",33,utopia,UTOPIA,m,,,,,,,,,,,,,,,,,
,,,,,,,,,,,,,,,,,,5e66c77e8ebdaf4466e26326,2020-11-27_15h05.23.399,lexical_decision_task_MP_exp2,2020.2.5,Win32,60,,z,1,0.717295,,,,,,,,0.717295,1,0,7,7,12,1,1013,NW,UN,33,adveil,SPRINY,z,,,,,,,,,,,,,,,,,
,,,,,,,,,,,,,,,,,,5e66c77e8ebdaf4466e26326,2020-11-27_15h05.23.399,lexical_decision_task_MP_exp2,2020.2.5,Win32,60,,m,1,0.52574,,,,,,,,0.52574,1,0,8,8,4,1,1005,WORD,UN,33,abound,SQUEAK,m,,,,,,,,,,,,,,,,,
,,,,,,,,,,,,,,,,,,5e66c77e8ebdaf4466e26326,2020-11-27_15h05.23.399,lexical_decision_task_MP_exp2,2020.2.5,Win32,60,,z,1,0.70716,,,,,,,,0.70716,1,0,9,9,11,1,1012,NW,"ID",16,rashet,RASHET,z,,,,,,,,,,,,,,,,,
,,,,,,,,,,,,,,,,,,5e66c77e8ebdaf4466e26326,2020-11-27_15h05.23.399,lexical_decision_task_MP_exp2,2020.2.5,Win32,60,,m,1,0.48001,,,,,,,,0.48001,1,0,10,10,7,1,1008,WORD,UN,16,hurdle,VOLUME,m,,,,,,,,,,,,,,,,,
,,,,,,,,,,,,,,,,,,5e66c77e8ebdaf4466e26326,2020-11-27_15h05.23.399,lexical_decision_task_MP_exp2,2020.2.5,Win32,60,,z,1,0.786725,,,,,,,,0.786725,1,0,11,11,14,1,1015,NW,UN,16,miaber,THRALE,z,,,,,,,,,,,,,,,,,
,,,,,,,,,,,,,,,,,,5e66c77e8ebdaf4466e26326,2020-11-27_15h05.23.399,lexical_decision_task_MP_exp2,2020.2.5,Win32,60,,z,1,0.762385,,,,,,,,0.762385,1,0,12,12,13,1,1014,NW,UN,33,winfer,ROUPET,z,,,,,,,,,,,,,,,,,
,,,,,,,,,,,,,,,,,,5e66c77e8ebdaf4466e26326,2020-11-27_15h05.23.399,lexical_decision_task_MP_exp2,2020.2.5,Win32,60,,m,1,0.496395,,,,,,,,0.496395,1,0,13,13,6,1,1007,WORD,UN,16,tropic,ZOMBIE,m,,,,,,,,,,,,,,,,,
,,,,,,,,,,,,,,,,,,5e66c77e8ebdaf4466e26326,2020-11-27_15h05.23.399,lexical_decision_task_MP_exp2,2020.2.5,Win32,60,,z,1,0.66313,,,,,,,,0.66313,1,0,14,14,15,1,1016,NW,UN,16,mushed,WHAISE,z,,,,,,,,,,,,,,,,,
,,,,,,,,,,,,,,,,,,5e66c77e8ebdaf4466e26326,2020-11-27_15h05.23.399,lexical_decision_task_MP_exp2,2020.2.5,Win32,60,,z,1,0.766145,,,,,,,,0.766145,1,0,15,15,8,1,1009,NW,"ID",33,aslert,ASLERT,z,,,,,,,,,,,,,,,,,
,space,0.026851865,-0.408333347,0,0,0,,,,,,,1,end_of_practice,"You have completed the practice trials. During the experimental trials, you will not receive feedback, but it is very important that you respond as quickly and accurately as possible. 
Before you begin, please ensure that you are in a comfortable and quiet location and will not be disturbed for about 15 minutes, as we cannot use your data if you do not complete all the trials. 
There will be opportunities to take breaks at regular intervals during the experiment. When you are ready to start the experimental trials, please press space or touch the button below.",,,5e66c77e8ebdaf4466e26326,2020-11-27_15h05.23.399,lexical_decision_task_MP_exp2,2020.2.5,Win32,60,3.25271,,,,,,,,,,,,,,,,,,,,,,,,,0,0,0,0,1,,,,,,,,,,,,
,,,,,,,,,,,,,,,,,,5e66c77e8ebdaf4466e26326,2020-11-27_15h05.23.399,lexical_decision_task_MP_exp2,2020.2.5,Win32,60,,m,1,0.54609,,,,,,,,0.54609,1,,,,,,105,WORD,UN,33,ransom,NUMBER,m,,,,,,0.026851865,-0.408333347,0,0,0,,0,0,0,164,1,
,,,,,,,,,,,,,,,,,,5e66c77e8ebdaf4466e26326,2020-11-27_15h05.23.399,lexical_decision_task_MP_exp2,2020.2.5,Win32,60,,m,1,1.01721,,,,,,,,1.01721,1,,,,,,191,WORD,"ID",33,stable,STABLE,m,,,,,,0.026851865,-0.408333347,0,0,0,,0,1,1,10,1,
,,,,,,,,,,,,,,,,,,5e66c77e8ebdaf4466e26326,2020-11-27_15h05.23.399,lexical_decision_task_MP_exp2,2020.2.5,Win32,60,,z,1,0.550035,,,,,,,,0.550035,1,,,,,,441,NW,"ID",33,rastoe,RASTOE,z,,,,,,0.026851865,-0.408333347,0,0,0,,0,2,2,260,1,
,,,,,,,,,,,,,,,,,,5e66c77e8ebdaf4466e26326,2020-11-27_15h05.23.399,lexical_decision_task_MP_exp2,2020.2.5,Win32,60,,m,1,0.5671,,,,,,,,0.5671,1,,,,,,237,WORD,"ID",33,poster,POSTER,m,,,,,,0.026851865,-0.408333347,0,0,0,,0,3,3,56,1,
,,,,,,,,,,,,,,,,,,5e66c77e8ebdaf4466e26326,2020-11-27_15h05.23.399,lexical_decision_task_MP_exp2,2020.2.5,Win32,60,,z,1,0.588075,,,,,,,,0.588075,1,,,,,,383,NW,UN,16,guesco,AUNGRE,z,,,,,,0.026851865,-0.408333347,0,0,0,,0,4,4,442,1,
,,,,,,,,,,,,,,,,,,5e66c77e8ebdaf4466e26326,2020-11-27_15h05.23.399,lexical_decision_task_MP_exp2,2020.2.5,Win32,60,,m,1,0.55256,,,,,,,,0.55256,1,,,,,,104,WORD,UN,33,number,STUDIO,m,,,,,,0.026851865,-0.408333347,0,0,0,,0,5,5,163,1,
,,,,,,,,,,,,,,,,,,5e66c77e8ebdaf4466e26326,2020-11-27_15h05.23.399,lexical_decision_task_MP_exp2,2020.2.5,Win32,60,,m,1,0.66988,,,,,,,,0.66988,1,,,,,,202,WORD,"ID",33,factor,FACTOR,m,,,,,,0.026851865,-0.408333347,0,0,0,,0,6,6,21,1,
,,,,,,,,,,,,,,,,,,5e66c77e8ebdaf4466e26326,2020-11-27_15h05.23.399,lexical_decision_task_MP_exp2,2020.2.5,Win32,60,,m,1,0.55357,,,,,,,,0.55357,1,,,,,,184,WORD,"ID",33,sleazy,SLEAZY,m,,,,,,0.026851865,-0.408333347,0,0,0,,0,7,7,3,1,
,,,,,,,,,,,,,,,,,,5e66c77e8ebdaf4466e26326,2020-11-27_15h05.23.399,lexical_decision_task_MP_exp2,2020.2.5,Win32,60,,z,1,0.564015,,,,,,,,0.564015,1,,,,,,273,NW,"ID",16,sortel,SORTEL,z,,,,,,0.026851865,-0.408333347,0,0,0,,0,8,8,332,1,
,,,,,,,,,,,,,,,,,,5e66c77e8ebdaf4466e26326,2020-11-27_15h05.23.399,lexical_decision_task_MP_exp2,2020.2.5,Win32,60,,z,1,0.56822,,,,,,,,0.56822,1,,,,,,356,NW,UN,33,derain,OTHNIS,z,,,,,,0.026851865,-0.408333347,0,0,0,,0,9,9,415,1,
,,,,,,,,,,,,,,,,,,5e66c77e8ebdaf4466e26326,2020-11-27_15h05.23.399,lexical_decision_task_MP_exp2,2020.2.5,Win32,60,,z,1,0.557795,,,,,,,,0.557795,1,,,,,,421,NW,"ID",33,knisma,KNISMA,z,,,,,,0.026851865,-0.408333347,0,0,0,,0,10,10,240,1,
,,,,,,,,,,,,,,,,,,5e66c77e8ebdaf4466e26326,2020-11-27_15h05.23.399,lexical_decision_task_MP_exp2,2020.2.5,Win32,60,,z,1,0.79913,,,,,,,,0.79913,1,,,,,,302,NW,UN,33,fiream,MILUER,z,,,,,,0.026851865,-0.408333347,0,0,0,,0,11,11,361,1,
,,,,,,,,,,,,,,,,,,5e66c77e8ebdaf4466e26326,2020-11-27_15h05.23.399,lexical_decision_task_MP_exp2,2020.2.5,Win32,60,,z,1,0.68532,,,,,,,,0.68532,1,,,,,,379,NW,UN,16,cavory,AUTING,z,,,,,,0.026851865,-0.408333347,0,0,0,,0,12,12,438,1,
,,,,,,,,,,,,,,,,,,5e66c77e8ebdaf4466e26326,2020-11-27_15h05.23.399,lexical_decision_task_MP_exp2,2020.2.5,Win32,60,,z,1,0.60674,,,,,,,,0.60674,1,,,,,,270,NW,"ID",16,wrimsy,WRIMSY,z,,,,,,0.026851865,-0.408333347,0,0,0,,0,13,13,329,1,
,,,,,,,,,,,,,,,,,,5e66c77e8ebdaf4466e26326,2020-11-27_15h05.23.399,lexical_decision_task_MP_exp2,2020.2.5,Win32,60,,m,1,0.53691,,,,,,,,0.53691,1,,,,,,15,WORD,"ID",16,amount,AMOUNT,m,,,,,,0.026851865,-0.408333347,0,0,0,,0,14,14,74,1,
,,,,,,,,,,,,,,,,,,5e66c77e8ebdaf4466e26326,2020-11-27_15h05.23.399,lexical_decision_task_MP_exp2,2020.2.5,Win32,60,,z,1,0.581755,,,,,,,,0.581755,1,,,,,,347,NW,UN,33,dumple,KERIFT,z,,,,,,0.026851865,-0.408333347,0,0,0,,0,15,15,406,1,
,,,,,,,,,,,,,,,,,,5e66c77e8ebdaf4466e26326,2020-11-27_15h05.23.399,lexical_decision_task_MP_exp2,2020.2.5,Win32,60,,z,1,0.72575,,,,,,,,0.72575,1,,,,,,385,NW,UN,16,ancust,VEIGMA,z,,,,,,0.026851865,-0.408333347,0,0,0,,0,16,16,444,1,
,,,,,,,,,,,,,,,,,,5e66c77e8ebdaf4466e26326,2020-11-27_15h05.23.399,lexical_decision_task_MP_exp2,2020.2.5,Win32,60,,z,0,0.556175,,,,,,,,0.556175,0,,,,,,1,WORD,"ID",16,fright,FRIGHT,m,,,,,,0.026851865,-0.408333347,0,0,0,,0,17,17,60,1,
,,,,,,,,,,,,,,,,,,5e66c77e8ebdaf4466e26326,2020-11-27_15h05.23.399,lexical_decision_task_MP_exp2,2020.2.5,Win32,60,,z,1,0.682475,,,,,,,,0.682475,1,,,,,,478,NW,"ID",33,acrise,ACRISE,z,,,,,,0.026851865,-0.408333347,0,0,0,,0,18,18,297,1,
,,,,,,,,,,,,,,,,,,5e66c77e8ebdaf4466e26326,2020-11-27_15h05.23.399,lexical_decision_task_MP_exp2,2020.2.5,Win32,60,,z,1,0.58169,,,,,,,,0.58169,1,,,,,,412,NW,UN,16,equats,JILUER,z,,,,,,0.026851865,-0.408333347,0,0,0,,0,19,19,471,1,
,,,,,,,,,,,,,,,,,,5e66c77e8ebdaf4466e26326,2020-11-27_15h05.23.399,lexical_decision_task_MP_exp2,2020.2.5,Win32,60,,z,1,0.569055,,,,,,,,0.569055,1,,,,,,393,NW,UN,16,spaqux,GANOUS,z,,,,,,0.026851865,-0.408333347,0,0,0,,0,20,20,452,1,
,,,,,,,,,,,,,,,,,,5e66c77e8ebdaf4466e26326,2020-11-27_15h05.23.399,lexical_decision_task_MP_exp2,2020.2.5,Win32,60,,z,1,0.641815,,,,,,,,0.641815,1,,,,,,439,NW,"ID",33,limpor,LIMPOR,z,,,,,,0.026851865,-0.408333347,0,0,0,,0,21,21,258,1,
,,,,,,,,,,,,,,,,,,5e66c77e8ebdaf4466e26326,2020-11-27_15h05.23.399,lexical_decision_task_MP_exp2,2020.2.5,Win32,60,,z,1,0.595355,,,,,,,,0.595355,1,,,,,,267,NW,"ID",16,pasink,PASINK,z,,,,,,0.026851865,-0.408333347,0,0,0,,0,22,22,326,1,
,,,,,,,,,,,,,,,,,,5e66c77e8ebdaf4466e26326,2020-11-27_15h05.23.399,lexical_decision_task_MP_exp2,2020.2.5,Win32,60,,z,1,0.634605,,,,,,,,0.634605,1,,,,,,479,NW,"ID",33,lobush,LOBUSH,z,,,,,,0.026851865,-0.408333347,0,0,0,,0,23,23,298,1,
,,,,,,,,,,,,,,,,,,5e66c77e8ebdaf4466e26326,2020-11-27_15h05.23.399,lexical_decision_task_MP_exp2,2020.2.5,Win32,60,,z,1,0.730255,,,,,,,,0.730255,1,,,,,,403,NW,UN,16,cluirm,BRUATS,z,,,,,,0.026851865,-0.408333347,0,0,0,,0,24,24,462,1,
,,,,,,,,,,,,,,,,,,5e66c77e8ebdaf4466e26326,2020-11-27_15h05.23.399,lexical_decision_task_MP_exp2,2020.2.5,Win32,60,,m,1,0.623735,,,,,,,,0.623735,1,,,,,,9,WORD,"ID",16,hustle,HUSTLE,m,,,,,,0.026851865,-0.408333347,0,0,0,,0,25,25,68,1,
,,,,,,,,,,,,,,,,,,5e66c77e8ebdaf4466e26326,2020-11-27_15h05.23.399,lexical_decision_task_MP_exp2,2020.2.5,Win32,60,,z,1,0.61962,,,,,,,,0.61962,1,,,,,,434,NW,"ID",33,pitrom,PITROM,z,,,,,,0.026851865,-0.408333347,0,0,0,,0,26,26,253,1,
,,,,,,,,,,,,,,,,,,5e66c77e8ebdaf4466e26326,2020-11-27_15h05.23.399,lexical_decision_task_MP_exp2,2020.2.5,Win32,60,,z,1,0.85576,,,,,,,,0.85576,1,,,,,,429,NW,"ID",33,funtle,FUNTLE,z,,,,,,0.026851865,-0.408333347,0,0,0,,0,27,27,248,1,
,,,,,,,,,,,,,,,,,,5e66c77e8ebdaf4466e26326,2020-11-27_15h05.23.399,lexical_decision_task_MP_exp2,2020.2.5,Win32,60,,m,1,0.55852,,,,,,,,0.55852,1,,,,,,168,WORD,UN,16,genius,ANSWER,m,,,,,,0.026851865,-0.408333347,0,0,0,,0,28,28,227,1,
,,,,,,,,,,,,,,,,,,5e66c77e8ebdaf4466e26326,2020-11-27_15h05.23.399,lexical_decision_task_MP_exp2,2020.2.5,Win32,60,,m,1,0.72269,,,,,,,,0.72269,1,,,,,,211,WORD,"ID",33,infect,INFECT,m,,,,,,0.026851865,-0.408333347,0,0,0,,0,29,29,30,1,
,,,,,,,,,,,,,,,,,,5e66c77e8ebdaf4466e26326,2020-11-27_15h05.23.399,lexical_decision_task_MP_exp2,2020.2.5,Win32,60,,z,1,0.664215,,,,,,,,0.664215,1,,,,,,365,NW,UN,16,toshel,GUAIRT,z,,,,,,0.026851865,-0.408333347,0,0,0,,0,30,30,424,1,
,,,,,,,,,,,,,,,,,,5e66c77e8ebdaf4466e26326,2020-11-27_15h05.23.399,lexical_decision_task_MP_exp2,2020.2.5,Win32,60,,z,1,0.76663,,,,,,,,0.76663,1,,,,,,376,NW,UN,16,veigma,IGUARE,z,,,,,,0.026851865,-0.408333347,0,0,0,,0,31,31,435,1,
,,,,,,,,,,,,,,,,,,5e66c77e8ebdaf4466e26326,2020-11-27_15h05.23.399,lexical_decision_task_MP_exp2,2020.2.5,Win32,60,,z,1,0.576775,,,,,,,,0.576775,1,,,,,,469,NW,"ID",33,padifs,PADIFS,z,,,,,,0.026851865,-0.408333347,0,0,0,,0,32,32,288,1,
,,,,,,,,,,,,,,,,,,5e66c77e8ebdaf4466e26326,2020-11-27_15h05.23.399,lexical_decision_task_MP_exp2,2020.2.5,Win32,60,,m,1,0.48884,,,,,,,,0.48884,1,,,,,,43,WORD,"ID",16,tongue,TONGUE,m,,,,,,0.026851865,-0.408333347,0,0,0,,0,33,33,102,1,
,,,,,,,,,,,,,,,,,,5e66c77e8ebdaf4466e26326,2020-11-27_15h05.23.399,lexical_decision_task_MP_exp2,2020.2.5,Win32,60,,m,1,0.52479,,,,,,,,0.52479,1,,,,,,42,WORD,"ID",16,chapel,CHAPEL,m,,,,,,0.026851865,-0.408333347,0,0,0,,0,34,34,101,1,
,,,,,,,,,,,,,,,,,,5e66c77e8ebdaf4466e26326,2020-11-27_15h05.23.399,lexical_decision_task_MP_exp2,2020.2.5,Win32,60,,m,1,0.667895,,,,,,,,0.667895,1,,,,,,16,WORD,"ID",16,faucet,FAUCET,m,,,,,,0.026851865,-0.408333347,0,0,0,,0,35,35,75,1,
,,,,,,,,,,,,,,,,,,5e66c77e8ebdaf4466e26326,2020-11-27_15h05.23.399,lexical_decision_task_MP_exp2,2020.2.5,Win32,60,,m,1,0.551565,,,,,,,,0.551565,1,,,,,,49,WORD,"ID",16,survey,SURVEY,m,,,,,,0.026851865,-0.408333347,0,0,0,,0,36,36,108,1,
,,,,,,,,,,,,,,,,,,5e66c77e8ebdaf4466e26326,2020-11-27_15h05.23.399,lexical_decision_task_MP_exp2,2020.2.5,Win32,60,,m,1,0.579825,,,,,,,,0.579825,1,,,,,,218,WORD,"ID",33,shrink,SHRINK,m,,,,,,0.026851865,-0.408333347,0,0,0,,0,37,37,37,1,
,,,,,,,,,,,,,,,,,,5e66c77e8ebdaf4466e26326,2020-11-27_15h05.23.399,lexical_decision_task_MP_exp2,2020.2.5,Win32,60,,m,1,0.63436,,,,,,,,0.63436,1,,,,,,239,WORD,"ID",33,lumber,LUMBER,m,,,,,,0.026851865,-0.408333347,0,0,0,,0,38,38,58,1,
,,,,,,,,,,,,,,,,,,5e66c77e8ebdaf4466e26326,2020-11-27_15h05.23.399,lexical_decision_task_MP_exp2,2020.2.5,Win32,60,,z,1,0.68059,,,,,,,,0.68059,1,,,,,,467,NW,"ID",33,gorbie,GORBIE,z,,,,,,0.026851865,-0.408333347,0,0,0,,0,39,39,286,1,
,,,,,,,,,,,,,,,,,,5e66c77e8ebdaf4466e26326,2020-11-27_15h05.23.399,lexical_decision_task_MP_exp2,2020.2.5,Win32,60,,m,1,0.525005,,,,,,,,0.525005,1,,,,,,86,WORD,UN,33,filter,RODENT,m,,,,,,0.026851865,-0.408333347,0,0,0,,0,40,40,145,1,
,,,,,,,,,,,,,,,,,,5e66c77e8ebdaf4466e26326,2020-11-27_15h05.23.399,lexical_decision_task_MP_exp2,2020.2.5,Win32,60,,m,1,0.749385,,,,,,,,0.749385,1,,,,,,19,WORD,"ID",16,patron,PATRON,m,,,,,,0.026851865,-0.408333347,0,0,0,,0,41,41,78,1,
,,,,,,,,,,,,,,,,,,5e66c77e8ebdaf4466e26326,2020-11-27_15h05.23.399,lexical_decision_task_MP_exp2,2020.2.5,Win32,60,,m,1,0.684105,,,,,,,,0.684105,1,,,,,,45,WORD,"ID",16,clergy,CLERGY,m,,,,,,0.026851865,-0.408333347,0,0,0,,0,42,42,104,1,
,,,,,,,,,,,,,,,,,,5e66c77e8ebdaf4466e26326,2020-11-27_15h05.23.399,lexical_decision_task_MP_exp2,2020.2.5,Win32,60,,m,1,0.565735,,,,,,,,0.565735,1,,,,,,206,WORD,"ID",33,tailor,TAILOR,m,,,,,,0.026851865,-0.408333347,0,0,0,,0,43,43,25,1,
,,,,,,,,,,,,,,,,,,5e66c77e8ebdaf4466e26326,2020-11-27_15h05.23.399,lexical_decision_task_MP_exp2,2020.2.5,Win32,60,,z,1,0.63616,,,,,,,,0.63616,1,,,,,,430,NW,"ID",33,caroey,CAROEY,z,,,,,,0.026851865,-0.408333347,0,0,0,,0,44,44,249,1,
,,,,,,,,,,,,,,,,,,5e66c77e8ebdaf4466e26326,2020-11-27_15h05.23.399,lexical_decision_task_MP_exp2,2020.2.5,Win32,60,,m,1,0.55914,,,,,,,,0.55914,1,,,,,,24,WORD,"ID",16,praise,PRAISE,m,,,,,,0.026851865,-0.408333347,0,0,0,,0,45,45,83,1,
,,,,,,,,,,,,,,,,,,5e66c77e8ebdaf4466e26326,2020-11-27_15h05.23.399,lexical_decision_task_MP_exp2,2020.2.5,Win32,60,,m,1,0.67375,,,,,,,,0.67375,1,,,,,,118,WORD,UN,33,spider,FLIGHT,m,,,,,,0.026851865,-0.408333347,0,0,0,,0,46,46,177,1,
,,,,,,,,,,,,,,,,,,5e66c77e8ebdaf4466e26326,2020-11-27_15h05.23.399,lexical_decision_task_MP_exp2,2020.2.5,Win32,60,,m,1,0.453285,,,,,,,,0.453285,1,,,,,,33,WORD,"ID",16,butler,BUTLER,m,,,,,,0.026851865,-0.408333347,0,0,0,,0,47,47,92,1,
,,,,,,,,,,,,,,,,,,5e66c77e8ebdaf4466e26326,2020-11-27_15h05.23.399,lexical_decision_task_MP_exp2,2020.2.5,Win32,60,,m,1,0.53331,,,,,,,,0.53331,1,,,,,,227,WORD,"ID",33,seldom,SELDOM,m,,,,,,0.026851865,-0.408333347,0,0,0,,0,48,48,46,1,
,,,,,,,,,,,,,,,,,,5e66c77e8ebdaf4466e26326,2020-11-27_15h05.23.399,lexical_decision_task_MP_exp2,2020.2.5,Win32,60,,m,1,0.522285,,,,,,,,0.522285,1,,,,,,148,WORD,UN,16,invade,CUSTOM,m,,,,,,0.026851865,-0.408333347,0,0,0,,0,49,49,207,1,
,,,,,,,,,,,,,,,,,,5e66c77e8ebdaf4466e26326,2020-11-27_15h05.23.399,lexical_decision_task_MP_exp2,2020.2.5,Win32,60,,m,1,0.565325,,,,,,,,0.565325,1,,,,,,32,WORD,"ID",16,buckle,BUCKLE,m,,,,,,0.026851865,-0.408333347,0,0,0,,0,50,50,91,1,
,,,,,,,,,,,,,,,,,,5e66c77e8ebdaf4466e26326,2020-11-27_15h05.23.399,lexical_decision_task_MP_exp2,2020.2.5,Win32,60,,z,1,0.81603,,,,,,,,0.81603,1,,,,,,440,NW,"ID",33,saride,SARIDE,z,,,,,,0.026851865,-0.408333347,0,0,0,,0,51,51,259,1,
,,,,,,,,,,,,,,,,,,5e66c77e8ebdaf4466e26326,2020-11-27_15h05.23.399,lexical_decision_task_MP_exp2,2020.2.5,Win32,60,,z,1,0.70608,,,,,,,,0.70608,1,,,,,,455,NW,"ID",33,tondle,TONDLE,z,,,,,,0.026851865,-0.408333347,0,0,0,,0,52,52,274,1,
,,,,,,,,,,,,,,,,,,5e66c77e8ebdaf4466e26326,2020-11-27_15h05.23.399,lexical_decision_task_MP_exp2,2020.2.5,Win32,60,,m,1,0.767335,,,,,,,,0.767335,1,,,,,,77,WORD,UN,33,column,RACKET,m,,,,,,0.026851865,-0.408333347,0,0,0,,0,53,53,136,1,
,,,,,,,,,,,,,,,,,,5e66c77e8ebdaf4466e26326,2020-11-27_15h05.23.399,lexical_decision_task_MP_exp2,2020.2.5,Win32,60,,m,1,0.52325,,,,,,,,0.52325,1,,,,,,169,WORD,UN,16,pounce,GENIUS,m,,,,,,0.026851865,-0.408333347,0,0,0,,0,54,54,228,1,
,,,,,,,,,,,,,,,,,,5e66c77e8ebdaf4466e26326,2020-11-27_15h05.23.399,lexical_decision_task_MP_exp2,2020.2.5,Win32,60,,z,1,0.53369,,,,,,,,0.53369,1,,,,,,263,NW,"ID",16,dolica,DOLICA,z,,,,,,0.026851865,-0.408333347,0,0,0,,0,55,55,322,1,
,,,,,,,,,,,,,,,,,,5e66c77e8ebdaf4466e26326,2020-11-27_15h05.23.399,lexical_decision_task_MP_exp2,2020.2.5,Win32,60,,z,1,0.637685,,,,,,,,0.637685,1,,,,,,268,NW,"ID",16,packes,PACKES,z,,,,,,0.026851865,-0.408333347,0,0,0,,0,56,56,327,1,
,,,,,,,,,,,,,,,,,,5e66c77e8ebdaf4466e26326,2020-11-27_15h05.23.399,lexical_decision_task_MP_exp2,2020.2.5,Win32,60,,m,0,0.72422,,,,,,,,0.72422,0,,,,,,377,NW,UN,16,shrile,INJORE,z,,,,,,0.026851865,-0.408333347,0,0,0,,0,57,57,436,1,
,,,,,,,,,,,,,,,,,,5e66c77e8ebdaf4466e26326,2020-11-27_15h05.23.399,lexical_decision_task_MP_exp2,2020.2.5,Win32,60,,m,1,0.57489,,,,,,,,0.57489,1,,,,,,159,WORD,UN,16,violet,DETAIL,m,,,,,,0.026851865,-0.408333347,0,0,0,,0,58,58,218,1,
,,,,,,,,,,,,,,,,,,5e66c77e8ebdaf4466e26326,2020-11-27_15h05.23.399,lexical_decision_task_MP_exp2,2020.2.5,Win32,60,,z,1,0.652215,,,,,,,,0.652215,1,,,,,,320,NW,UN,33,miator,JOCKAL,z,,,,,,0.026851865,-0.408333347,0,0,0,,0,59,59,379,1,
,,,,,,,,,,,,,,,,,,5e66c77e8ebdaf4466e26326,2020-11-27_15h05.23.399,lexical_decision_task_MP_exp2,2020.2.5,Win32,60,,m,1,0.520695,,,,,,,,0.520695,1,,,,,,224,WORD,"ID",33,period,PERIOD,m,,,,,,0.026851865,-0.408333347,0,0,0,,0,60,60,43,1,
,,,,,,,,,,,,,,,,,,5e66c77e8ebdaf4466e26326,2020-11-27_15h05.23.399,lexical_decision_task_MP_exp2,2020.2.5,Win32,60,,m,1,0.628245,,,,,,,,0.628245,1,,,,,,68,WORD,UN,33,plenty,FUMBLE,m,,,,,,0.026851865,-0.408333347,0,0,0,,0,61,61,127,1,
,,,,,,,,,,,,,,,,,,5e66c77e8ebdaf4466e26326,2020-11-27_15h05.23.399,lexical_decision_task_MP_exp2,2020.2.5,Win32,60,,z,0,0.56705,,,,,,,,0.56705,0,,,,,,127,WORD,UN,16,senior,CASTLE,m,,,,,,0.026851865,-0.408333347,0,0,0,,0,62,62,186,1,
,,,,,,,,,,,,,,,,,,5e66c77e8ebdaf4466e26326,2020-11-27_15h05.23.399,lexical_decision_task_MP_exp2,2020.2.5,Win32,60,,z,1,0.5967,,,,,,,,0.5967,1,,,,,,405,NW,UN,16,nouply,FLUMNI,z,,,,,,0.026851865,-0.408333347,0,0,0,,0,63,63,464,1,
,,,,,,,,,,,,,,,,,,5e66c77e8ebdaf4466e26326,2020-11-27_15h05.23.399,lexical_decision_task_MP_exp2,2020.2.5,Win32,60,,z,1,0.683915,,,,,,,,0.683915,1,,,,,,265,NW,"ID",16,distar,DISTAR,z,,,,,,0.026851865,-0.408333347,0,0,0,,0,64,64,324,1,
,,,,,,,,,,,,,,,,,,5e66c77e8ebdaf4466e26326,2020-11-27_15h05.23.399,lexical_decision_task_MP_exp2,2020.2.5,Win32,60,,z,1,0.648255,,,,,,,,0.648255,1,,,,,,432,NW,"ID",33,lunker,LUNKER,z,,,,,,0.026851865,-0.408333347,0,0,0,,0,65,65,251,1,
,,,,,,,,,,,,,,,,,,5e66c77e8ebdaf4466e26326,2020-11-27_15h05.23.399,lexical_decision_task_MP_exp2,2020.2.5,Win32,60,,z,1,0.595405,,,,,,,,0.595405,1,,,,,,401,NW,UN,16,syntic,MUSTIL,z,,,,,,0.026851865,-0.408333347,0,0,0,,0,66,66,460,1,
,,,,,,,,,,,,,,,,,,5e66c77e8ebdaf4466e26326,2020-11-27_15h05.23.399,lexical_decision_task_MP_exp2,2020.2.5,Win32,60,,m,1,0.491075,,,,,,,,0.491075,1,,,,,,146,WORD,UN,16,garlic,COUPLE,m,,,,,,0.026851865,-0.408333347,0,0,0,,0,67,67,205,1,
,,,,,,,,,,,,,,,,,,5e66c77e8ebdaf4466e26326,2020-11-27_15h05.23.399,lexical_decision_task_MP_exp2,2020.2.5,Win32,60,,z,1,0.657775,,,,,,,,0.657775,1,,,,,,305,NW,UN,33,sounge,FORGLE,z,,,,,,0.026851865,-0.408333347,0,0,0,,0,68,68,364,1,
,,,,,,,,,,,,,,,,,,5e66c77e8ebdaf4466e26326,2020-11-27_15h05.23.399,lexical_decision_task_MP_exp2,2020.2.5,Win32,60,,m,1,0.5045,,,,,,,,0.5045,1,,,,,,133,WORD,UN,16,staple,CHROME,m,,,,,,0.026851865,-0.408333347,0,0,0,,0,69,69,192,1,
,,,,,,,,,,,,,,,,,,5e66c77e8ebdaf4466e26326,2020-11-27_15h05.23.399,lexical_decision_task_MP_exp2,2020.2.5,Win32,60,,z,1,0.584545,,,,,,,,0.584545,1,,,,,,456,NW,"ID",33,broget,BROGET,z,,,,,,0.026851865,-0.408333347,0,0,0,,0,70,70,275,1,
,,,,,,,,,,,,,,,,,,5e66c77e8ebdaf4466e26326,2020-11-27_15h05.23.399,lexical_decision_task_MP_exp2,2020.2.5,Win32,60,,m,1,0.528925,,,,,,,,0.528925,1,,,,,,154,WORD,UN,16,lizard,AUTHOR,m,,,,,,0.026851865,-0.408333347,0,0,0,,0,71,71,213,1,
,,,,,,,,,,,,,,,,,,5e66c77e8ebdaf4466e26326,2020-11-27_15h05.23.399,lexical_decision_task_MP_exp2,2020.2.5,Win32,60,,m,1,0.471745,,,,,,,,0.471745,1,,,,,,177,WORD,UN,16,inform,ADVENT,m,,,,,,0.026851865,-0.408333347,0,0,0,,0,72,72,236,1,
,,,,,,,,,,,,,,,,,,5e66c77e8ebdaf4466e26326,2020-11-27_15h05.23.399,lexical_decision_task_MP_exp2,2020.2.5,Win32,60,,m,1,0.517435,,,,,,,,0.517435,1,,,,,,210,WORD,"ID",33,monkey,MONKEY,m,,,,,,0.026851865,-0.408333347,0,0,0,,0,73,73,29,1,
,,,,,,,,,,,,,,,,,,5e66c77e8ebdaf4466e26326,2020-11-27_15h05.23.399,lexical_decision_task_MP_exp2,2020.2.5,Win32,60,,z,1,0.56479,,,,,,,,0.56479,1,,,,,,387,NW,UN,16,cragin,GRONCE,z,,,,,,0.026851865,-0.408333347,0,0,0,,0,74,74,446,1,
,,,,,,,,,,,,,,,,,,5e66c77e8ebdaf4466e26326,2020-11-27_15h05.23.399,lexical_decision_task_MP_exp2,2020.2.5,Win32,60,,z,1,0.54938,,,,,,,,0.54938,1,,,,,,241,NW,"ID",16,smenco,SMENCO,z,,,,,,0.026851865,-0.408333347,0,0,0,,0,75,75,300,1,
,,,,,,,,,,,,,,,,,,5e66c77e8ebdaf4466e26326,2020-11-27_15h05.23.399,lexical_decision_task_MP_exp2,2020.2.5,Win32,60,,m,1,0.63329,,,,,,,,0.63329,1,,,,,,37,WORD,"ID",16,insult,INSULT,m,,,,,,0.026851865,-0.408333347,0,0,0,,0,76,76,96,1,
,,,,,,,,,,,,,,,,,,5e66c77e8ebdaf4466e26326,2020-11-27_15h05.23.399,lexical_decision_task_MP_exp2,2020.2.5,Win32,60,,z,1,0.53379,,,,,,,,0.53379,1,,,,,,410,NW,UN,16,orchin,TUNORY,z,,,,,,0.026851865,-0.408333347,0,0,0,,0,77,77,469,1,
,,,,,,,,,,,,,,,,,,5e66c77e8ebdaf4466e26326,2020-11-27_15h05.23.399,lexical_decision_task_MP_exp2,2020.2.5,Win32,60,,z,1,0.504025,,,,,,,,0.504025,1,,,,,,457,NW,"ID",33,wanigh,WANIGH,z,,,,,,0.026851865,-0.408333347,0,0,0,,0,78,78,276,1,
,,,,,,,,,,,,,,,,,,5e66c77e8ebdaf4466e26326,2020-11-27_15h05.23.399,lexical_decision_task_MP_exp2,2020.2.5,Win32,60,,z,1,0.585425,,,,,,,,0.585425,1,,,,,,452,NW,"ID",33,surden,SURDEN,z,,,,,,0.026851865,-0.408333347,0,0,0,,0,79,79,271,1,
,,,,,,,,,,,,,,,,,,5e66c77e8ebdaf4466e26326,2020-11-27_15h05.23.399,lexical_decision_task_MP_exp2,2020.2.5,Win32,60,,m,0,0.529335,,,,,,,,0.529335,0,,,,,,353,NW,UN,33,virlex,CLUREY,z,,,,,,0.026851865,-0.408333347,0,0,0,,0,80,80,412,1,
,,,,,,,,,,,,,,,,,,5e66c77e8ebdaf4466e26326,2020-11-27_15h05.23.399,lexical_decision_task_MP_exp2,2020.2.5,Win32,60,,z,1,0.6716,,,,,,,,0.6716,1,,,,,,310,NW,UN,33,sproly,DANIET,z,,,,,,0.026851865,-0.408333347,0,0,0,,0,81,81,369,1,
,,,,,,,,,,,,,,,,,,5e66c77e8ebdaf4466e26326,2020-11-27_15h05.23.399,lexical_decision_task_MP_exp2,2020.2.5,Win32,60,,z,1,0.9548,,,,,,,,0.9548,1,,,,,,344,NW,UN,33,absend,SCRILY,z,,,,,,0.026851865,-0.408333347,0,0,0,,0,82,82,403,1,
,,,,,,,,,,,,,,,,,,5e66c77e8ebdaf4466e26326,2020-11-27_15h05.23.399,lexical_decision_task_MP_exp2,2020.2.5,Win32,60,,m,1,0.855815,,,,,,,,0.855815,1,,,,,,29,WORD,"ID",16,sketch,SKETCH,m,,,,,,0.026851865,-0.408333347,0,0,0,,0,83,83,88,1,
,,,,,,,,,,,,,,,,,,5e66c77e8ebdaf4466e26326,2020-11-27_15h05.23.399,lexical_decision_task_MP_exp2,2020.2.5,Win32,60,,z,1,0.523965,,,,,,,,0.523965,1,,,,,,357,NW,UN,33,fleack,DERAIN,z,,,,,,0.026851865,-0.408333347,0,0,0,,0,84,84,416,1,
,,,,,,,,,,,,,,,,,,5e66c77e8ebdaf4466e26326,2020-11-27_15h05.23.399,lexical_decision_task_MP_exp2,2020.2.5,Win32,60,,m,1,0.61886,,,,,,,,0.61886,1,,,,,,215,WORD,"ID",33,phobia,PHOBIA,m,,,,,,0.026851865,-0.408333347,0,0,0,,0,85,85,34,1,
,,,,,,,,,,,,,,,,,,5e66c77e8ebdaf4466e26326,2020-11-27_15h05.23.399,lexical_decision_task_MP_exp2,2020.2.5,Win32,60,,z,1,0.516365,,,,,,,,0.516365,1,,,,,,331,NW,UN,33,vangue,GILFEW,z,,,,,,0.026851865,-0.408333347,0,0,0,,0,86,86,390,1,
,,,,,,,,,,,,,,,,,,5e66c77e8ebdaf4466e26326,2020-11-27_15h05.23.399,lexical_decision_task_MP_exp2,2020.2.5,Win32,60,,m,1,0.633895,,,,,,,,0.633895,1,,,,,,69,WORD,UN,33,square,PLENTY,m,,,,,,0.026851865,-0.408333347,0,0,0,,0,87,87,128,1,
,,,,,,,,,,,,,,,,,,5e66c77e8ebdaf4466e26326,2020-11-27_15h05.23.399,lexical_decision_task_MP_exp2,2020.2.5,Win32,60,,m,1,0.549605,,,,,,,,0.549605,1,,,,,,137,WORD,UN,16,melody,FINGER,m,,,,,,0.026851865,-0.408333347,0,0,0,,0,88,88,196,1,
,,,,,,,,,,,,,,,,,,5e66c77e8ebdaf4466e26326,2020-11-27_15h05.23.399,lexical_decision_task_MP_exp2,2020.2.5,Win32,60,,z,1,0.552685,,,,,,,,0.552685,1,,,,,,468,NW,"ID",33,wictor,WICTOR,z,,,,,,0.026851865,-0.408333347,0,0,0,,0,89,89,287,1,
,,,,,,,,,,,,,,,,,,5e66c77e8ebdaf4466e26326,2020-11-27_15h05.23.399,lexical_decision_task_MP_exp2,2020.2.5,Win32,60,,z,1,0.589935,,,,,,,,0.589935,1,,,,,,304,NW,UN,33,forgle,CLUDIE,z,,,,,,0.026851865,-0.408333347,0,0,0,,0,90,90,363,1,
,,,,,,,,,,,,,,,,,,5e66c77e8ebdaf4466e26326,2020-11-27_15h05.23.399,lexical_decision_task_MP_exp2,2020.2.5,Win32,60,,m,1,0.718185,,,,,,,,0.718185,1,,,,,,36,WORD,"ID",16,vanish,VANISH,m,,,,,,0.026851865,-0.408333347,0,0,0,,0,91,91,95,1,
,,,,,,,,,,,,,,,,,,5e66c77e8ebdaf4466e26326,2020-11-27_15h05.23.399,lexical_decision_task_MP_exp2,2020.2.5,Win32,60,,m,1,0.556515,,,,,,,,0.556515,1,,,,,,226,WORD,"ID",33,casino,CASINO,m,,,,,,0.026851865,-0.408333347,0,0,0,,0,92,92,45,1,
,,,,,,,,,,,,,,,,,,5e66c77e8ebdaf4466e26326,2020-11-27_15h05.23.399,lexical_decision_task_MP_exp2,2020.2.5,Win32,60,,z,0,0.50765,,,,,,,,0.50765,0,,,,,,92,WORD,UN,33,public,STRAND,m,,,,,,0.026851865,-0.408333347,0,0,0,,0,93,93,151,1,
,,,,,,,,,,,,,,,,,,5e66c77e8ebdaf4466e26326,2020-11-27_15h05.23.399,lexical_decision_task_MP_exp2,2020.2.5,Win32,60,,z,1,0.670745,,,,,,,,0.670745,1,,,,,,300,NW,"ID",16,yarion,YARION,z,,,,,,0.026851865,-0.408333347,0,0,0,,0,94,94,359,1,
,,,,,,,,,,,,,,,,,,5e66c77e8ebdaf4466e26326,2020-11-27_15h05.23.399,lexical_decision_task_MP_exp2,2020.2.5,Win32,60,,z,1,0.52516,,,,,,,,0.52516,1,,,,,,340,NW,UN,33,myrtie,FIATCH,z,,,,,,0.026851865,-0.408333347,0,0,0,,0,95,95,399,1,
,,,,,,,,,,,,,,,,,,5e66c77e8ebdaf4466e26326,2020-11-27_15h05.23.399,lexical_decision_task_MP_exp2,2020.2.5,Win32,60,,z,1,0.6362,,,,,,,,0.6362,1,,,,,,399,NW,UN,16,wearox,FOURET,z,,,,,,0.026851865,-0.408333347,0,0,0,,0,96,96,458,1,
,,,,,,,,,,,,,,,,,,5e66c77e8ebdaf4466e26326,2020-11-27_15h05.23.399,lexical_decision_task_MP_exp2,2020.2.5,Win32,60,,z,1,0.49658,,,,,,,,0.49658,1,,,,,,355,NW,UN,33,othnis,ZINGLY,z,,,,,,0.026851865,-0.408333347,0,0,0,,0,97,97,414,1,
,,,,,,,,,,,,,,,,,,5e66c77e8ebdaf4466e26326,2020-11-27_15h05.23.399,lexical_decision_task_MP_exp2,2020.2.5,Win32,60,,m,1,0.535675,,,,,,,,0.535675,1,,,,,,52,WORD,"ID",16,impose,IMPOSE,m,,,,,,0.026851865,-0.408333347,0,0,0,,0,98,98,111,1,
,,,,,,,,,,,,,,,,,,5e66c77e8ebdaf4466e26326,2020-11-27_15h05.23.399,lexical_decision_task_MP_exp2,2020.2.5,Win32,60,,m,1,0.522125,,,,,,,,0.522125,1,,,,,,112,WORD,UN,33,chorus,BREATH,m,,,,,,0.026851865,-0.408333347,0,0,0,,0,99,99,171,1,
,,,,,,,,,,,,,,,,,,5e66c77e8ebdaf4466e26326,2020-11-27_15h05.23.399,lexical_decision_task_MP_exp2,2020.2.5,Win32,60,,m,1,0.55568,,,,,,,,0.55568,1,,,,,,64,WORD,UN,33,symbol,THRONE,m,,,,,,0.026851865,-0.408333347,0,0,0,,0,100,100,123,1,
,,,,,,,,,,,,,,,,,,5e66c77e8ebdaf4466e26326,2020-11-27_15h05.23.399,lexical_decision_task_MP_exp2,2020.2.5,Win32,60,,m,1,0.51193,,,,,,,,0.51193,1,,,,,,223,WORD,"ID",33,kidney,KIDNEY,m,,,,,,0.026851865,-0.408333347,0,0,0,,0,101,101,42,1,
,,,,,,,,,,,,,,,,,,5e66c77e8ebdaf4466e26326,2020-11-27_15h05.23.399,lexical_decision_task_MP_exp2,2020.2.5,Win32,60,,m,1,0.5632,,,,,,,,0.5632,1,,,,,,62,WORD,UN,33,launch,REGION,m,,,,,,0.026851865,-0.408333347,0,0,0,,0,102,102,121,1,
,,,,,,,,,,,,,,,,,,5e66c77e8ebdaf4466e26326,2020-11-27_15h05.23.399,lexical_decision_task_MP_exp2,2020.2.5,Win32,60,,m,1,0.54236,,,,,,,,0.54236,1,,,,,,57,WORD,"ID",16,change,CHANGE,m,,,,,,0.026851865,-0.408333347,0,0,0,,0,103,103,116,1,
,,,,,,,,,,,,,,,,,,5e66c77e8ebdaf4466e26326,2020-11-27_15h05.23.399,lexical_decision_task_MP_exp2,2020.2.5,Win32,60,,z,1,0.631605,,,,,,,,0.631605,1,,,,,,295,NW,"ID",16,gleath,GLEATH,z,,,,,,0.026851865,-0.408333347,0,0,0,,0,104,104,354,1,
,,,,,,,,,,,,,,,,,,5e66c77e8ebdaf4466e26326,2020-11-27_15h05.23.399,lexical_decision_task_MP_exp2,2020.2.5,Win32,60,,m,1,0.498115,,,,,,,,0.498115,1,,,,,,232,WORD,"ID",33,inject,INJECT,m,,,,,,0.026851865,-0.408333347,0,0,0,,0,105,105,51,1,
,,,,,,,,,,,,,,,,,,5e66c77e8ebdaf4466e26326,2020-11-27_15h05.23.399,lexical_decision_task_MP_exp2,2020.2.5,Win32,60,,m,1,0.69105,,,,,,,,0.69105,1,,,,,,222,WORD,"ID",33,hinder,HINDER,m,,,,,,0.026851865,-0.408333347,0,0,0,,0,106,106,41,1,
,,,,,,,,,,,,,,,,,,5e66c77e8ebdaf4466e26326,2020-11-27_15h05.23.399,lexical_decision_task_MP_exp2,2020.2.5,Win32,60,,m,1,0.520335,,,,,,,,0.520335,1,,,,,,190,WORD,"ID",33,backup,BACKUP,m,,,,,,0.026851865,-0.408333347,0,0,0,,0,107,107,9,1,
,,,,,,,,,,,,,,,,,,5e66c77e8ebdaf4466e26326,2020-11-27_15h05.23.399,lexical_decision_task_MP_exp2,2020.2.5,Win32,60,,m,1,0.567045,,,,,,,,0.567045,1,,,,,,150,WORD,UN,16,mystic,RANDOM,m,,,,,,0.026851865,-0.408333347,0,0,0,,0,108,108,209,1,
,,,,,,,,,,,,,,,,,,5e66c77e8ebdaf4466e26326,2020-11-27_15h05.23.399,lexical_decision_task_MP_exp2,2020.2.5,Win32,60,,m,1,0.48532,,,,,,,,0.48532,1,,,,,,106,WORD,UN,33,slogan,RANSOM,m,,,,,,0.026851865,-0.408333347,0,0,0,,0,109,109,165,1,
,,,,,,,,,,,,,,,,,,5e66c77e8ebdaf4466e26326,2020-11-27_15h05.23.399,lexical_decision_task_MP_exp2,2020.2.5,Win32,60,,z,1,0.534865,,,,,,,,0.534865,1,,,,,,480,NW,"ID",33,robuly,ROBULY,z,,,,,,0.026851865,-0.408333347,0,0,0,,0,110,110,299,1,
,,,,,,,,,,,,,,,,,,5e66c77e8ebdaf4466e26326,2020-11-27_15h05.23.399,lexical_decision_task_MP_exp2,2020.2.5,Win32,60,,m,1,0.53476,,,,,,,,0.53476,1,,,,,,61,WORD,UN,33,region,PONDER,m,,,,,,0.026851865,-0.408333347,0,0,0,,0,111,111,120,1,
,,,,,,,,,,,,,,,,,,5e66c77e8ebdaf4466e26326,2020-11-27_15h05.23.399,lexical_decision_task_MP_exp2,2020.2.5,Win32,60,,m,1,0.4636,,,,,,,,0.4636,1,,,,,,209,WORD,"ID",33,search,SEARCH,m,,,,,,0.026851865,-0.408333347,0,0,0,,0,112,112,28,1,
,,,,,,,,,,,,,,,,,,5e66c77e8ebdaf4466e26326,2020-11-27_15h05.23.399,lexical_decision_task_MP_exp2,2020.2.5,Win32,60,,m,1,0.63099,,,,,,,,0.63099,1,,,,,,76,WORD,UN,33,racket,EXOTIC,m,,,,,,0.026851865,-0.408333347,0,0,0,,0,113,113,135,1,
,,,,,,,,,,,,,,,,,,5e66c77e8ebdaf4466e26326,2020-11-27_15h05.23.399,lexical_decision_task_MP_exp2,2020.2.5,Win32,60,,z,1,0.700865,,,,,,,,0.700865,1,,,,,,277,NW,"ID",16,petain,PETAIN,z,,,,,,0.026851865,-0.408333347,0,0,0,,0,114,114,336,1,
,,,,,,,,,,,,,,,,,,5e66c77e8ebdaf4466e26326,2020-11-27_15h05.23.399,lexical_decision_task_MP_exp2,2020.2.5,Win32,60,,z,1,0.66421,,,,,,,,0.66421,1,,,,,,381,NW,UN,16,sarley,HUNIEK,z,,,,,,0.026851865,-0.408333347,0,0,0,,0,115,115,440,1,
,,,,,,,,,,,,,,,,,,5e66c77e8ebdaf4466e26326,2020-11-27_15h05.23.399,lexical_decision_task_MP_exp2,2020.2.5,Win32,60,,z,1,0.679625,,,,,,,,0.679625,1,,,,,,274,NW,"ID",16,fumblo,FUMBLO,z,,,,,,0.026851865,-0.408333347,0,0,0,,0,116,116,333,1,
,,,,,,,,,,,,,,,,,,5e66c77e8ebdaf4466e26326,2020-11-27_15h05.23.399,lexical_decision_task_MP_exp2,2020.2.5,Win32,60,,z,1,0.873585,,,,,,,,0.873585,1,,,,,,315,NW,UN,33,scregm,LASTON,z,,,,,,0.026851865,-0.408333347,0,0,0,,0,117,117,374,1,
,,,,,,,,,,,,,,,,,,5e66c77e8ebdaf4466e26326,2020-11-27_15h05.23.399,lexical_decision_task_MP_exp2,2020.2.5,Win32,60,,m,1,0.573175,,,,,,,,0.573175,1,,,,,,181,WORD,"ID",33,glance,GLANCE,m,,,,,,0.026851865,-0.408333347,0,0,0,,0,118,118,0,1,
,,,,,,,,,,,,,,,,,,5e66c77e8ebdaf4466e26326,2020-11-27_15h05.23.399,lexical_decision_task_MP_exp2,2020.2.5,Win32,60,,z,1,0.63517,,,,,,,,0.63517,1,,,,,,427,NW,"ID",33,schind,SCHIND,z,,,,,,0.026851865,-0.408333347,0,0,0,,0,119,119,246,1,
,,,,,,,,,,,,,,,,,,5e66c77e8ebdaf4466e26326,2020-11-27_15h05.23.399,lexical_decision_task_MP_exp2,2020.2.5,Win32,60,,m,1,0.535575,,,,,,,,0.535575,1,,,,,,88,WORD,UN,33,permit,HUNGER,m,,,,,,0.026851865,-0.408333347,0,0,0,space,0,120,120,147,1,1.47874
,,,,,,,,,,,,,,,,,,5e66c77e8ebdaf4466e26326,2020-11-27_15h05.23.399,lexical_decision_task_MP_exp2,2020.2.5,Win32,60,,m,1,0.57104,,,,,,,,0.57104,1,,,,,,25,WORD,"ID",16,domain,DOMAIN,m,,,,,,0.026851865,-0.408333347,0,0,0,,0,121,121,84,1,
,,,,,,,,,,,,,,,,,,5e66c77e8ebdaf4466e26326,2020-11-27_15h05.23.399,lexical_decision_task_MP_exp2,2020.2.5,Win32,60,,m,1,0.558395,,,,,,,,0.558395,1,,,,,,113,WORD,UN,33,placid,CHORUS,m,,,,,,0.026851865,-0.408333347,0,0,0,,0,122,122,172,1,
,,,,,,,,,,,,,,,,,,5e66c77e8ebdaf4466e26326,2020-11-27_15h05.23.399,lexical_decision_task_MP_exp2,2020.2.5,Win32,60,,z,1,0.749105,,,,,,,,0.749105,1,,,,,,292,NW,"ID",16,ablint,ABLINT,z,,,,,,0.026851865,-0.408333347,0,0,0,,0,123,123,351,1,
,,,,,,,,,,,,,,,,,,5e66c77e8ebdaf4466e26326,2020-11-27_15h05.23.399,lexical_decision_task_MP_exp2,2020.2.5,Win32,60,,m,1,0.60656,,,,,,,,0.60656,1,,,,,,219,WORD,"ID",33,bucket,BUCKET,m,,,,,,0.026851865,-0.408333347,0,0,0,,0,124,124,38,1,
,,,,,,,,,,,,,,,,,,5e66c77e8ebdaf4466e26326,2020-11-27_15h05.23.399,lexical_decision_task_MP_exp2,2020.2.5,Win32,60,,z,1,0.59081,,,,,,,,0.59081,1,,,,,,474,NW,"ID",33,hablin,HABLIN,z,,,,,,0.026851865,-0.408333347,0,0,0,,0,125,125,293,1,
,,,,,,,,,,,,,,,,,,5e66c77e8ebdaf4466e26326,2020-11-27_15h05.23.399,lexical_decision_task_MP_exp2,2020.2.5,Win32,60,,z,1,0.701125,,,,,,,,0.701125,1,,,,,,450,NW,"ID",33,phrect,PHRECT,z,,,,,,0.026851865,-0.408333347,0,0,0,,0,126,126,269,1,
,,,,,,,,,,,,,,,,,,5e66c77e8ebdaf4466e26326,2020-11-27_15h05.23.399,lexical_decision_task_MP_exp2,2020.2.5,Win32,60,,m,1,0.68414,,,,,,,,0.68414,1,,,,,,48,WORD,"ID",16,walnut,WALNUT,m,,,,,,0.026851865,-0.408333347,0,0,0,,0,127,127,107,1,
,,,,,,,,,,,,,,,,,,5e66c77e8ebdaf4466e26326,2020-11-27_15h05.23.399,lexical_decision_task_MP_exp2,2020.2.5,Win32,60,,m,1,0.600575,,,,,,,,0.600575,1,,,,,,170,WORD,UN,16,dragon,POUNCE,m,,,,,,0.026851865,-0.408333347,0,0,0,,0,128,128,229,1,
,,,,,,,,,,,,,,,,,,5e66c77e8ebdaf4466e26326,2020-11-27_15h05.23.399,lexical_decision_task_MP_exp2,2020.2.5,Win32,60,,m,0,0.53325,,,,,,,,0.53325,0,,,,,,285,NW,"ID",16,prudge,PRUDGE,z,,,,,,0.026851865,-0.408333347,0,0,0,,0,129,129,344,1,
,,,,,,,,,,,,,,,,,,5e66c77e8ebdaf4466e26326,2020-11-27_15h05.23.399,lexical_decision_task_MP_exp2,2020.2.5,Win32,60,,m,1,0.49867,,,,,,,,0.49867,1,,,,,,172,WORD,UN,16,shower,PATROL,m,,,,,,0.026851865,-0.408333347,0,0,0,,0,130,130,231,1,
,,,,,,,,,,,,,,,,,,5e66c77e8ebdaf4466e26326,2020-11-27_15h05.23.399,lexical_decision_task_MP_exp2,2020.2.5,Win32,60,,m,1,0.53879,,,,,,,,0.53879,1,,,,,,156,WORD,UN,16,depart,CRADLE,m,,,,,,0.026851865,-0.408333347,0,0,0,,0,131,131,215,1,
,,,,,,,,,,,,,,,,,,5e66c77e8ebdaf4466e26326,2020-11-27_15h05.23.399,lexical_decision_task_MP_exp2,2020.2.5,Win32,60,,m,1,0.50348,,,,,,,,0.50348,1,,,,,,214,WORD,"ID",33,intake,INTAKE,m,,,,,,0.026851865,-0.408333347,0,0,0,,0,132,132,33,1,
,,,,,,,,,,,,,,,,,,5e66c77e8ebdaf4466e26326,2020-11-27_15h05.23.399,lexical_decision_task_MP_exp2,2020.2.5,Win32,60,,z,1,0.529425,,,,,,,,0.529425,1,,,,,,464,NW,"ID",33,chaite,CHAITE,z,,,,,,0.026851865,-0.408333347,0,0,0,,0,133,133,283,1,
,,,,,,,,,,,,,,,,,,5e66c77e8ebdaf4466e26326,2020-11-27_15h05.23.399,lexical_decision_task_MP_exp2,2020.2.5,Win32,60,,m,1,0.79299,,,,,,,,0.79299,1,,,,,,111,WORD,UN,33,breath,INDUCE,m,,,,,,0.026851865,-0.408333347,0,0,0,,0,134,134,170,1,
,,,,,,,,,,,,,,,,,,5e66c77e8ebdaf4466e26326,2020-11-27_15h05.23.399,lexical_decision_task_MP_exp2,2020.2.5,Win32,60,,z,1,0.68621,,,,,,,,0.68621,1,,,,,,248,NW,"ID",16,strole,STROLE,z,,,,,,0.026851865,-0.408333347,0,0,0,,0,135,135,307,1,
,,,,,,,,,,,,,,,,,,5e66c77e8ebdaf4466e26326,2020-11-27_15h05.23.399,lexical_decision_task_MP_exp2,2020.2.5,Win32,60,,z,1,0.61556,,,,,,,,0.61556,1,,,,,,402,NW,UN,16,bruats,SYNTIC,z,,,,,,0.026851865,-0.408333347,0,0,0,,0,136,136,461,1,
,,,,,,,,,,,,,,,,,,5e66c77e8ebdaf4466e26326,2020-11-27_15h05.23.399,lexical_decision_task_MP_exp2,2020.2.5,Win32,60,,m,1,0.61442,,,,,,,,0.61442,1,,,,,,89,WORD,UN,33,relish,PERMIT,m,,,,,,0.026851865,-0.408333347,0,0,0,,0,137,137,148,1,
,,,,,,,,,,,,,,,,,,5e66c77e8ebdaf4466e26326,2020-11-27_15h05.23.399,lexical_decision_task_MP_exp2,2020.2.5,Win32,60,,m,1,0.518825,,,,,,,,0.518825,1,,,,,,201,WORD,"ID",33,admire,ADMIRE,m,,,,,,0.026851865,-0.408333347,0,0,0,,0,138,138,20,1,
,,,,,,,,,,,,,,,,,,5e66c77e8ebdaf4466e26326,2020-11-27_15h05.23.399,lexical_decision_task_MP_exp2,2020.2.5,Win32,60,,z,1,0.627485,,,,,,,,0.627485,1,,,,,,297,NW,"ID",16,fertic,FERTIC,z,,,,,,0.026851865,-0.408333347,0,0,0,,0,139,139,356,1,
,,,,,,,,,,,,,,,,,,5e66c77e8ebdaf4466e26326,2020-11-27_15h05.23.399,lexical_decision_task_MP_exp2,2020.2.5,Win32,60,,z,1,0.73323,,,,,,,,0.73323,1,,,,,,298,NW,"ID",16,piergy,PIERGY,z,,,,,,0.026851865,-0.408333347,0,0,0,,0,140,140,357,1,
,,,,,,,,,,,,,,,,,,5e66c77e8ebdaf4466e26326,2020-11-27_15h05.23.399,lexical_decision_task_MP_exp2,2020.2.5,Win32,60,,z,1,0.553895,,,,,,,,0.553895,1,,,,,,343,NW,UN,33,scrily,AIMOSY,z,,,,,,0.026851865,-0.408333347,0,0,0,,0,141,141,402,1,
,,,,,,,,,,,,,,,,,,5e66c77e8ebdaf4466e26326,2020-11-27_15h05.23.399,lexical_decision_task_MP_exp2,2020.2.5,Win32,60,,m,1,0.51903,,,,,,,,0.51903,1,,,,,,220,WORD,"ID",33,voyage,VOYAGE,m,,,,,,0.026851865,-0.408333347,0,0,0,,0,142,142,39,1,
,,,,,,,,,,,,,,,,,,5e66c77e8ebdaf4466e26326,2020-11-27_15h05.23.399,lexical_decision_task_MP_exp2,2020.2.5,Win32,60,,m,1,0.532795,,,,,,,,0.532795,1,,,,,,230,WORD,"ID",33,fringe,FRINGE,m,,,,,,0.026851865,-0.408333347,0,0,0,,0,143,143,49,1,
,,,,,,,,,,,,,,,,,,5e66c77e8ebdaf4466e26326,2020-11-27_15h05.23.399,lexical_decision_task_MP_exp2,2020.2.5,Win32,60,,m,1,0.483685,,,,,,,,0.483685,1,,,,,,234,WORD,"ID",33,clumsy,CLUMSY,m,,,,,,0.026851865,-0.408333347,0,0,0,,0,144,144,53,1,
,,,,,,,,,,,,,,,,,,5e66c77e8ebdaf4466e26326,2020-11-27_15h05.23.399,lexical_decision_task_MP_exp2,2020.2.5,Win32,60,,m,1,0.52244,,,,,,,,0.52244,1,,,,,,82,WORD,UN,33,result,STIGMA,m,,,,,,0.026851865,-0.408333347,0,0,0,,0,145,145,141,1,
,,,,,,,,,,,,,,,,,,5e66c77e8ebdaf4466e26326,2020-11-27_15h05.23.399,lexical_decision_task_MP_exp2,2020.2.5,Win32,60,,m,1,0.50394,,,,,,,,0.50394,1,,,,,,217,WORD,"ID",33,liquor,LIQUOR,m,,,,,,0.026851865,-0.408333347,0,0,0,,0,146,146,36,1,
,,,,,,,,,,,,,,,,,,5e66c77e8ebdaf4466e26326,2020-11-27_15h05.23.399,lexical_decision_task_MP_exp2,2020.2.5,Win32,60,,z,1,0.59212,,,,,,,,0.59212,1,,,,,,335,NW,UN,33,ghodus,DESION,z,,,,,,0.026851865,-0.408333347,0,0,0,,0,147,147,394,1,
,,,,,,,,,,,,,,,,,,5e66c77e8ebdaf4466e26326,2020-11-27_15h05.23.399,lexical_decision_task_MP_exp2,2020.2.5,Win32,60,,m,1,0.58204,,,,,,,,0.58204,1,,,,,,124,WORD,UN,16,nickel,BLOUSE,m,,,,,,0.026851865,-0.408333347,0,0,0,,0,148,148,183,1,
,,,,,,,,,,,,,,,,,,5e66c77e8ebdaf4466e26326,2020-11-27_15h05.23.399,lexical_decision_task_MP_exp2,2020.2.5,Win32,60,,m,1,0.43896,,,,,,,,0.43896,1,,,,,,178,WORD,UN,16,basket,INFORM,m,,,,,,0.026851865,-0.408333347,0,0,0,,0,149,149,237,1,
,,,,,,,,,,,,,,,,,,5e66c77e8ebdaf4466e26326,2020-11-27_15h05.23.399,lexical_decision_task_MP_exp2,2020.2.5,Win32,60,,m,1,0.58019,,,,,,,,0.58019,1,,,,,,53,WORD,"ID",16,police,POLICE,m,,,,,,0.026851865,-0.408333347,0,0,0,,0,150,150,112,1,
,,,,,,,,,,,,,,,,,,5e66c77e8ebdaf4466e26326,2020-11-27_15h05.23.399,lexical_decision_task_MP_exp2,2020.2.5,Win32,60,,z,1,0.49541,,,,,,,,0.49541,1,,,,,,329,NW,UN,33,kensom,YARIKE,z,,,,,,0.026851865,-0.408333347,0,0,0,,0,151,151,388,1,
,,,,,,,,,,,,,,,,,,5e66c77e8ebdaf4466e26326,2020-11-27_15h05.23.399,lexical_decision_task_MP_exp2,2020.2.5,Win32,60,,m,1,0.567645,,,,,,,,0.567645,1,,,,,,166,WORD,UN,16,design,STARCH,m,,,,,,0.026851865,-0.408333347,0,0,0,,0,152,152,225,1,
,,,,,,,,,,,,,,,,,,5e66c77e8ebdaf4466e26326,2020-11-27_15h05.23.399,lexical_decision_task_MP_exp2,2020.2.5,Win32,60,,z,1,0.689855,,,,,,,,0.689855,1,,,,,,391,NW,UN,16,rouncy,THELDY,z,,,,,,0.026851865,-0.408333347,0,0,0,,0,153,153,450,1,
,,,,,,,,,,,,,,,,,,5e66c77e8ebdaf4466e26326,2020-11-27_15h05.23.399,lexical_decision_task_MP_exp2,2020.2.5,Win32,60,,z,1,0.51442,,,,,,,,0.51442,1,,,,,,324,NW,UN,33,thruse,STEIKH,z,,,,,,0.026851865,-0.408333347,0,0,0,,0,154,154,383,1,
,,,,,,,,,,,,,,,,,,5e66c77e8ebdaf4466e26326,2020-11-27_15h05.23.399,lexical_decision_task_MP_exp2,2020.2.5,Win32,60,,z,1,0.93448,,,,,,,,0.93448,1,,,,,,451,NW,"ID",33,cainky,CAINKY,z,,,,,,0.026851865,-0.408333347,0,0,0,,0,155,155,270,1,
,,,,,,,,,,,,,,,,,,5e66c77e8ebdaf4466e26326,2020-11-27_15h05.23.399,lexical_decision_task_MP_exp2,2020.2.5,Win32,60,,z,1,0.82985,,,,,,,,0.82985,1,,,,,,306,NW,UN,33,kirafe,SOUNGE,z,,,,,,0.026851865,-0.408333347,0,0,0,,0,156,156,365,1,
,,,,,,,,,,,,,,,,,,5e66c77e8ebdaf4466e26326,2020-11-27_15h05.23.399,lexical_decision_task_MP_exp2,2020.2.5,Win32,60,,z,1,0.59765,,,,,,,,0.59765,1,,,,,,256,NW,"ID",16,inlors,INLORS,z,,,,,,0.026851865,-0.408333347,0,0,0,,0,157,157,315,1,
,,,,,,,,,,,,,,,,,,5e66c77e8ebdaf4466e26326,2020-11-27_15h05.23.399,lexical_decision_task_MP_exp2,2020.2.5,Win32,60,,m,1,0.540665,,,,,,,,0.540665,1,,,,,,205,WORD,"ID",33,lounge,LOUNGE,m,,,,,,0.026851865,-0.408333347,0,0,0,,0,158,158,24,1,
,,,,,,,,,,,,,,,,,,5e66c77e8ebdaf4466e26326,2020-11-27_15h05.23.399,lexical_decision_task_MP_exp2,2020.2.5,Win32,60,,m,1,0.485145,,,,,,,,0.485145,1,,,,,,208,WORD,"ID",33,hockey,HOCKEY,m,,,,,,0.026851865,-0.408333347,0,0,0,,0,159,159,27,1,
,,,,,,,,,,,,,,,,,,5e66c77e8ebdaf4466e26326,2020-11-27_15h05.23.399,lexical_decision_task_MP_exp2,2020.2.5,Win32,60,,m,1,0.54013,,,,,,,,0.54013,1,,,,,,80,WORD,UN,33,friend,FAMILY,m,,,,,,0.026851865,-0.408333347,0,0,0,,0,160,160,139,1,
,,,,,,,,,,,,,,,,,,5e66c77e8ebdaf4466e26326,2020-11-27_15h05.23.399,lexical_decision_task_MP_exp2,2020.2.5,Win32,60,,m,1,0.5805,,,,,,,,0.5805,1,,,,,,231,WORD,"ID",33,export,EXPORT,m,,,,,,0.026851865,-0.408333347,0,0,0,,0,161,161,50,1,
,,,,,,,,,,,,,,,,,,5e66c77e8ebdaf4466e26326,2020-11-27_15h05.23.399,lexical_decision_task_MP_exp2,2020.2.5,Win32,60,,z,1,0.466995,,,,,,,,0.466995,1,,,,,,334,NW,UN,33,desion,WATMEG,z,,,,,,0.026851865,-0.408333347,0,0,0,,0,162,162,393,1,
,,,,,,,,,,,,,,,,,,5e66c77e8ebdaf4466e26326,2020-11-27_15h05.23.399,lexical_decision_task_MP_exp2,2020.2.5,Win32,60,,z,1,0.533115,,,,,,,,0.533115,1,,,,,,423,NW,"ID",33,streld,STRELD,z,,,,,,0.026851865,-0.408333347,0,0,0,,0,163,163,242,1,
,,,,,,,,,,,,,,,,,,5e66c77e8ebdaf4466e26326,2020-11-27_15h05.23.399,lexical_decision_task_MP_exp2,2020.2.5,Win32,60,,z,1,0.474385,,,,,,,,0.474385,1,,,,,,276,NW,"ID",16,yarmon,YARMON,z,,,,,,0.026851865,-0.408333347,0,0,0,,0,164,164,335,1,
,,,,,,,,,,,,,,,,,,5e66c77e8ebdaf4466e26326,2020-11-27_15h05.23.399,lexical_decision_task_MP_exp2,2020.2.5,Win32,60,,m,1,0.80075,,,,,,,,0.80075,1,,,,,,101,WORD,UN,33,direct,WRENCH,m,,,,,,0.026851865,-0.408333347,0,0,0,,0,165,165,160,1,
,,,,,,,,,,,,,,,,,,5e66c77e8ebdaf4466e26326,2020-11-27_15h05.23.399,lexical_decision_task_MP_exp2,2020.2.5,Win32,60,,z,0,0.44883,,,,,,,,0.44883,0,,,,,,125,WORD,UN,16,enough,NICKEL,m,,,,,,0.026851865,-0.408333347,0,0,0,,0,166,166,184,1,
,,,,,,,,,,,,,,,,,,5e66c77e8ebdaf4466e26326,2020-11-27_15h05.23.399,lexical_decision_task_MP_exp2,2020.2.5,Win32,60,,m,1,0.64419,,,,,,,,0.64419,1,,,,,,121,WORD,UN,16,linger,THRIVE,m,,,,,,0.026851865,-0.408333347,0,0,0,,0,167,167,180,1,
,,,,,,,,,,,,,,,,,,5e66c77e8ebdaf4466e26326,2020-11-27_15h05.23.399,lexical_decision_task_MP_exp2,2020.2.5,Win32,60,,m,1,0.601135,,,,,,,,0.601135,1,,,,,,4,WORD,"ID",16,trench,TRENCH,m,,,,,,0.026851865,-0.408333347,0,0,0,,0,168,168,63,1,
,,,,,,,,,,,,,,,,,,5e66c77e8ebdaf4466e26326,2020-11-27_15h05.23.399,lexical_decision_task_MP_exp2,2020.2.5,Win32,60,,z,1,0.85234,,,,,,,,0.85234,1,,,,,,422,NW,"ID",33,alcoud,ALCOUD,z,,,,,,0.026851865,-0.408333347,0,0,0,,0,169,169,241,1,
,,,,,,,,,,,,,,,,,,5e66c77e8ebdaf4466e26326,2020-11-27_15h05.23.399,lexical_decision_task_MP_exp2,2020.2.5,Win32,60,,m,1,0.50445,,,,,,,,0.50445,1,,,,,,5,WORD,"ID",16,plunge,PLUNGE,m,,,,,,0.026851865,-0.408333347,0,0,0,,0,170,170,64,1,
,,,,,,,,,,,,,,,,,,5e66c77e8ebdaf4466e26326,2020-11-27_15h05.23.399,lexical_decision_task_MP_exp2,2020.2.5,Win32,60,,z,1,0.598245,,,,,,,,0.598245,1,,,,,,322,NW,UN,33,rosail,SLANCH,z,,,,,,0.026851865,-0.408333347,0,0,0,,0,171,171,381,1,
,,,,,,,,,,,,,,,,,,5e66c77e8ebdaf4466e26326,2020-11-27_15h05.23.399,lexical_decision_task_MP_exp2,2020.2.5,Win32,60,,z,1,0.699065,,,,,,,,0.699065,1,,,,,,328,NW,UN,33,yarike,BROAKE,z,,,,,,0.026851865,-0.408333347,0,0,0,,0,172,172,387,1,
,,,,,,,,,,,,,,,,,,5e66c77e8ebdaf4466e26326,2020-11-27_15h05.23.399,lexical_decision_task_MP_exp2,2020.2.5,Win32,60,,z,1,0.59173,,,,,,,,0.59173,1,,,,,,407,NW,UN,16,hurnia,SUIVER,z,,,,,,0.026851865,-0.408333347,0,0,0,,0,173,173,466,1,
,,,,,,,,,,,,,,,,,,5e66c77e8ebdaf4466e26326,2020-11-27_15h05.23.399,lexical_decision_task_MP_exp2,2020.2.5,Win32,60,,m,1,0.49685,,,,,,,,0.49685,1,,,,,,131,WORD,UN,16,strong,QUENCH,m,,,,,,0.026851865,-0.408333347,0,0,0,,0,174,174,190,1,
,,,,,,,,,,,,,,,,,,5e66c77e8ebdaf4466e26326,2020-11-27_15h05.23.399,lexical_decision_task_MP_exp2,2020.2.5,Win32,60,,z,1,0.51402,,,,,,,,0.51402,1,,,,,,386,NW,UN,16,gronce,ANCUST,z,,,,,,0.026851865,-0.408333347,0,0,0,,0,175,175,445,1,
,,,,,,,,,,,,,,,,,,5e66c77e8ebdaf4466e26326,2020-11-27_15h05.23.399,lexical_decision_task_MP_exp2,2020.2.5,Win32,60,,z,1,0.512345,,,,,,,,0.512345,1,,,,,,446,NW,"ID",33,runamo,RUNAMO,z,,,,,,0.026851865,-0.408333347,0,0,0,,0,176,176,265,1,
,,,,,,,,,,,,,,,,,,5e66c77e8ebdaf4466e26326,2020-11-27_15h05.23.399,lexical_decision_task_MP_exp2,2020.2.5,Win32,60,,z,1,0.60849,,,,,,,,0.60849,1,,,,,,472,NW,"ID",33,cigney,CIGNEY,z,,,,,,0.026851865,-0.408333347,0,0,0,,0,177,177,291,1,
,,,,,,,,,,,,,,,,,,5e66c77e8ebdaf4466e26326,2020-11-27_15h05.23.399,lexical_decision_task_MP_exp2,2020.2.5,Win32,60,,m,1,0.654135,,,,,,,,0.654135,1,,,,,,63,WORD,UN,33,throne,LAUNCH,m,,,,,,0.026851865,-0.408333347,0,0,0,,0,178,178,122,1,
,,,,,,,,,,,,,,,,,,5e66c77e8ebdaf4466e26326,2020-11-27_15h05.23.399,lexical_decision_task_MP_exp2,2020.2.5,Win32,60,,m,1,0.600895,,,,,,,,0.600895,1,,,,,,83,WORD,UN,33,mortal,RESULT,m,,,,,,0.026851865,-0.408333347,0,0,0,,0,179,179,142,1,
,,,,,,,,,,,,,,,,,,5e66c77e8ebdaf4466e26326,2020-11-27_15h05.23.399,lexical_decision_task_MP_exp2,2020.2.5,Win32,60,,z,1,0.717435,,,,,,,,0.717435,1,,,,,,325,NW,UN,33,iguade,THRUSE,z,,,,,,0.026851865,-0.408333347,0,0,0,,0,180,180,384,1,
,,,,,,,,,,,,,,,,,,5e66c77e8ebdaf4466e26326,2020-11-27_15h05.23.399,lexical_decision_task_MP_exp2,2020.2.5,Win32,60,,m,1,0.489885,,,,,,,,0.489885,1,,,,,,41,WORD,"ID",16,spring,SPRING,m,,,,,,0.026851865,-0.408333347,0,0,0,,0,181,181,100,1,
,,,,,,,,,,,,,,,,,,5e66c77e8ebdaf4466e26326,2020-11-27_15h05.23.399,lexical_decision_task_MP_exp2,2020.2.5,Win32,60,,m,1,0.48991,,,,,,,,0.48991,1,,,,,,197,WORD,"ID",33,stream,STREAM,m,,,,,,0.026851865,-0.408333347,0,0,0,,0,182,182,16,1,
,,,,,,,,,,,,,,,,,,5e66c77e8ebdaf4466e26326,2020-11-27_15h05.23.399,lexical_decision_task_MP_exp2,2020.2.5,Win32,60,,z,0,0.53096,,,,,,,,0.53096,0,,,,,,176,WORD,UN,16,advent,STRIFE,m,,,,,,0.026851865,-0.408333347,0,0,0,,0,183,183,235,1,
,,,,,,,,,,,,,,,,,,5e66c77e8ebdaf4466e26326,2020-11-27_15h05.23.399,lexical_decision_task_MP_exp2,2020.2.5,Win32,60,,z,1,0.714115,,,,,,,,0.714115,1,,,,,,389,NW,UN,16,hatrus,WITMER,z,,,,,,0.026851865,-0.408333347,0,0,0,,0,184,184,448,1,
,,,,,,,,,,,,,,,,,,5e66c77e8ebdaf4466e26326,2020-11-27_15h05.23.399,lexical_decision_task_MP_exp2,2020.2.5,Win32,60,,m,1,0.70004,,,,,,,,0.70004,1,,,,,,114,WORD,UN,33,guitar,PLACID,m,,,,,,0.026851865,-0.408333347,0,0,0,,0,185,185,173,1,
,,,,,,,,,,,,,,,,,,5e66c77e8ebdaf4466e26326,2020-11-27_15h05.23.399,lexical_decision_task_MP_exp2,2020.2.5,Win32,60,,m,1,0.51228,,,,,,,,0.51228,1,,,,,,147,WORD,UN,16,custom,GARLIC,m,,,,,,0.026851865,-0.408333347,0,0,0,,0,186,186,206,1,
,,,,,,,,,,,,,,,,,,5e66c77e8ebdaf4466e26326,2020-11-27_15h05.23.399,lexical_decision_task_MP_exp2,2020.2.5,Win32,60,,z,1,0.62279,,,,,,,,0.62279,1,,,,,,384,NW,UN,16,injore,GUESCO,z,,,,,,0.026851865,-0.408333347,0,0,0,,0,187,187,443,1,
,,,,,,,,,,,,,,,,,,5e66c77e8ebdaf4466e26326,2020-11-27_15h05.23.399,lexical_decision_task_MP_exp2,2020.2.5,Win32,60,,z,1,0.97359,,,,,,,,0.97359,1,,,,,,341,NW,UN,33,randow,MYRTIE,z,,,,,,0.026851865,-0.408333347,0,0,0,,0,188,188,400,1,
,,,,,,,,,,,,,,,,,,5e66c77e8ebdaf4466e26326,2020-11-27_15h05.23.399,lexical_decision_task_MP_exp2,2020.2.5,Win32,60,,m,1,0.56697,,,,,,,,0.56697,1,,,,,,149,WORD,UN,16,random,INVADE,m,,,,,,0.026851865,-0.408333347,0,0,0,,0,189,189,208,1,
,,,,,,,,,,,,,,,,,,5e66c77e8ebdaf4466e26326,2020-11-27_15h05.23.399,lexical_decision_task_MP_exp2,2020.2.5,Win32,60,,m,1,0.56024,,,,,,,,0.56024,1,,,,,,198,WORD,"ID",33,wicked,WICKED,m,,,,,,0.026851865,-0.408333347,0,0,0,,0,190,190,17,1,
,,,,,,,,,,,,,,,,,,5e66c77e8ebdaf4466e26326,2020-11-27_15h05.23.399,lexical_decision_task_MP_exp2,2020.2.5,Win32,60,,z,1,0.62909,,,,,,,,0.62909,1,,,,,,253,NW,"ID",16,resait,RESAIT,z,,,,,,0.026851865,-0.408333347,0,0,0,,0,191,191,312,1,
,,,,,,,,,,,,,,,,,,5e66c77e8ebdaf4466e26326,2020-11-27_15h05.23.399,lexical_decision_task_MP_exp2,2020.2.5,Win32,60,,m,1,0.587575,,,,,,,,0.587575,1,,,,,,97,WORD,UN,33,belong,CLIENT,m,,,,,,0.026851865,-0.408333347,0,0,0,,0,192,192,156,1,
,,,,,,,,,,,,,,,,,,5e66c77e8ebdaf4466e26326,2020-11-27_15h05.23.399,lexical_decision_task_MP_exp2,2020.2.5,Win32,60,,m,1,0.49773,,,,,,,,0.49773,1,,,,,,130,WORD,UN,16,quench,STUPID,m,,,,,,0.026851865,-0.408333347,0,0,0,,0,193,193,189,1,
,,,,,,,,,,,,,,,,,,5e66c77e8ebdaf4466e26326,2020-11-27_15h05.23.399,lexical_decision_task_MP_exp2,2020.2.5,Win32,60,,m,1,0.531515,,,,,,,,0.531515,1,,,,,,109,WORD,UN,33,polite,WONDER,m,,,,,,0.026851865,-0.408333347,0,0,0,,0,194,194,168,1,
,,,,,,,,,,,,,,,,,,5e66c77e8ebdaf4466e26326,2020-11-27_15h05.23.399,lexical_decision_task_MP_exp2,2020.2.5,Win32,60,,z,1,0.772585,,,,,,,,0.772585,1,,,,,,271,NW,"ID",16,aubrid,AUBRID,z,,,,,,0.026851865,-0.408333347,0,0,0,,0,195,195,330,1,
,,,,,,,,,,,,,,,,,,5e66c77e8ebdaf4466e26326,2020-11-27_15h05.23.399,lexical_decision_task_MP_exp2,2020.2.5,Win32,60,,m,1,0.651535,,,,,,,,0.651535,1,,,,,,122,WORD,UN,16,strike,LINGER,m,,,,,,0.026851865,-0.408333347,0,0,0,,0,196,196,181,1,
,,,,,,,,,,,,,,,,,,5e66c77e8ebdaf4466e26326,2020-11-27_15h05.23.399,lexical_decision_task_MP_exp2,2020.2.5,Win32,60,,z,1,0.630665,,,,,,,,0.630665,1,,,,,,453,NW,"ID",33,bolvis,BOLVIS,z,,,,,,0.026851865,-0.408333347,0,0,0,,0,197,197,272,1,
,,,,,,,,,,,,,,,,,,5e66c77e8ebdaf4466e26326,2020-11-27_15h05.23.399,lexical_decision_task_MP_exp2,2020.2.5,Win32,60,,z,1,0.66959,,,,,,,,0.66959,1,,,,,,363,NW,UN,16,impote,BREALI,z,,,,,,0.026851865,-0.408333347,0,0,0,,0,198,198,422,1,
,,,,,,,,,,,,,,,,,,5e66c77e8ebdaf4466e26326,2020-11-27_15h05.23.399,lexical_decision_task_MP_exp2,2020.2.5,Win32,60,,z,1,0.561585,,,,,,,,0.561585,1,,,,,,288,NW,"ID",16,yaceup,YACEUP,z,,,,,,0.026851865,-0.408333347,0,0,0,,0,199,199,347,1,
,,,,,,,,,,,,,,,,,,5e66c77e8ebdaf4466e26326,2020-11-27_15h05.23.399,lexical_decision_task_MP_exp2,2020.2.5,Win32,60,,m,1,0.565,,,,,,,,0.565,1,,,,,,212,WORD,"ID",33,verify,VERIFY,m,,,,,,0.026851865,-0.408333347,0,0,0,,0,200,200,31,1,
,,,,,,,,,,,,,,,,,,5e66c77e8ebdaf4466e26326,2020-11-27_15h05.23.399,lexical_decision_task_MP_exp2,2020.2.5,Win32,60,,z,1,1.17878,,,,,,,,1.17878,1,,,,,,425,NW,"ID",33,frudge,FRUDGE,z,,,,,,0.026851865,-0.408333347,0,0,0,,0,201,201,244,1,
,,,,,,,,,,,,,,,,,,5e66c77e8ebdaf4466e26326,2020-11-27_15h05.23.399,lexical_decision_task_MP_exp2,2020.2.5,Win32,60,,z,1,0.61618,,,,,,,,0.61618,1,,,,,,370,NW,UN,16,geiloy,SLEACT,z,,,,,,0.026851865,-0.408333347,0,0,0,,0,202,202,429,1,
,,,,,,,,,,,,,,,,,,5e66c77e8ebdaf4466e26326,2020-11-27_15h05.23.399,lexical_decision_task_MP_exp2,2020.2.5,Win32,60,,m,1,0.548475,,,,,,,,0.548475,1,,,,,,96,WORD,UN,33,client,IGNORE,m,,,,,,0.026851865,-0.408333347,0,0,0,,0,203,203,155,1,
,,,,,,,,,,,,,,,,,,5e66c77e8ebdaf4466e26326,2020-11-27_15h05.23.399,lexical_decision_task_MP_exp2,2020.2.5,Win32,60,,z,1,0.605865,,,,,,,,0.605865,1,,,,,,284,NW,"ID",16,shaple,SHAPLE,z,,,,,,0.026851865,-0.408333347,0,0,0,,0,204,204,343,1,
,,,,,,,,,,,,,,,,,,5e66c77e8ebdaf4466e26326,2020-11-27_15h05.23.399,lexical_decision_task_MP_exp2,2020.2.5,Win32,60,,z,1,0.6035,,,,,,,,0.6035,1,,,,,,258,NW,"ID",16,poluth,POLUTH,z,,,,,,0.026851865,-0.408333347,0,0,0,,0,205,205,317,1,
,,,,,,,,,,,,,,,,,,5e66c77e8ebdaf4466e26326,2020-11-27_15h05.23.399,lexical_decision_task_MP_exp2,2020.2.5,Win32,60,,m,1,0.48994,,,,,,,,0.48994,1,,,,,,235,WORD,"ID",33,grumpy,GRUMPY,m,,,,,,0.026851865,-0.408333347,0,0,0,,0,206,206,54,1,
,,,,,,,,,,,,,,,,,,5e66c77e8ebdaf4466e26326,2020-11-27_15h05.23.399,lexical_decision_task_MP_exp2,2020.2.5,Win32,60,,z,1,0.63078,,,,,,,,0.63078,1,,,,,,366,NW,UN,16,slique,TOSHEL,z,,,,,,0.026851865,-0.408333347,0,0,0,,0,207,207,425,1,
,,,,,,,,,,,,,,,,,,5e66c77e8ebdaf4466e26326,2020-11-27_15h05.23.399,lexical_decision_task_MP_exp2,2020.2.5,Win32,60,,m,1,0.5408,,,,,,,,0.5408,1,,,,,,187,WORD,"ID",33,course,COURSE,m,,,,,,0.026851865,-0.408333347,0,0,0,,0,208,208,6,1,
,,,,,,,,,,,,,,,,,,5e66c77e8ebdaf4466e26326,2020-11-27_15h05.23.399,lexical_decision_task_MP_exp2,2020.2.5,Win32,60,,z,1,0.53276,,,,,,,,0.53276,1,,,,,,435,NW,"ID",33,impurb,IMPURB,z,,,,,,0.026851865,-0.408333347,0,0,0,,0,209,209,254,1,
,,,,,,,,,,,,,,,,,,5e66c77e8ebdaf4466e26326,2020-11-27_15h05.23.399,lexical_decision_task_MP_exp2,2020.2.5,Win32,60,,z,1,0.786135,,,,,,,,0.786135,1,,,,,,392,NW,UN,16,ganous,ROUNCY,z,,,,,,0.026851865,-0.408333347,0,0,0,,0,210,210,451,1,
,,,,,,,,,,,,,,,,,,5e66c77e8ebdaf4466e26326,2020-11-27_15h05.23.399,lexical_decision_task_MP_exp2,2020.2.5,Win32,60,,m,1,0.496055,,,,,,,,0.496055,1,,,,,,91,WORD,UN,33,hunger,EXPAND,m,,,,,,0.026851865,-0.408333347,0,0,0,,0,211,211,150,1,
,,,,,,,,,,,,,,,,,,5e66c77e8ebdaf4466e26326,2020-11-27_15h05.23.399,lexical_decision_task_MP_exp2,2020.2.5,Win32,60,,m,1,0.52588,,,,,,,,0.52588,1,,,,,,79,WORD,UN,33,family,THEORY,m,,,,,,0.026851865,-0.408333347,0,0,0,,0,212,212,138,1,
,,,,,,,,,,,,,,,,,,5e66c77e8ebdaf4466e26326,2020-11-27_15h05.23.399,lexical_decision_task_MP_exp2,2020.2.5,Win32,60,,z,1,0.589605,,,,,,,,0.589605,1,,,,,,477,NW,"ID",33,photie,PHOTIE,z,,,,,,0.026851865,-0.408333347,0,0,0,,0,213,213,296,1,
,,,,,,,,,,,,,,,,,,5e66c77e8ebdaf4466e26326,2020-11-27_15h05.23.399,lexical_decision_task_MP_exp2,2020.2.5,Win32,60,,z,1,0.674905,,,,,,,,0.674905,1,,,,,,338,NW,UN,33,fachow,WREASH,z,,,,,,0.026851865,-0.408333347,0,0,0,,0,214,214,397,1,
,,,,,,,,,,,,,,,,,,5e66c77e8ebdaf4466e26326,2020-11-27_15h05.23.399,lexical_decision_task_MP_exp2,2020.2.5,Win32,60,,z,1,0.562245,,,,,,,,0.562245,1,,,,,,250,NW,"ID",16,milted,MILTED,z,,,,,,0.026851865,-0.408333347,0,0,0,,0,215,215,309,1,
,,,,,,,,,,,,,,,,,,5e66c77e8ebdaf4466e26326,2020-11-27_15h05.23.399,lexical_decision_task_MP_exp2,2020.2.5,Win32,60,,m,1,0.58068,,,,,,,,0.58068,1,,,,,,141,WORD,UN,16,spruce,ORPHAN,m,,,,,,0.026851865,-0.408333347,0,0,0,,0,216,216,200,1,
,,,,,,,,,,,,,,,,,,5e66c77e8ebdaf4466e26326,2020-11-27_15h05.23.399,lexical_decision_task_MP_exp2,2020.2.5,Win32,60,,z,1,0.56356,,,,,,,,0.56356,1,,,,,,395,NW,UN,16,flengy,COLURY,z,,,,,,0.026851865,-0.408333347,0,0,0,,0,217,217,454,1,
,,,,,,,,,,,,,,,,,,5e66c77e8ebdaf4466e26326,2020-11-27_15h05.23.399,lexical_decision_task_MP_exp2,2020.2.5,Win32,60,,z,1,0.47871,,,,,,,,0.47871,1,,,,,,280,NW,"ID",16,curbol,CURBOL,z,,,,,,0.026851865,-0.408333347,0,0,0,,0,218,218,339,1,
,,,,,,,,,,,,,,,,,,5e66c77e8ebdaf4466e26326,2020-11-27_15h05.23.399,lexical_decision_task_MP_exp2,2020.2.5,Win32,60,,m,1,0.565015,,,,,,,,0.565015,1,,,,,,54,WORD,"ID",16,ramble,RAMBLE,m,,,,,,0.026851865,-0.408333347,0,0,0,,0,219,219,113,1,
,,,,,,,,,,,,,,,,,,5e66c77e8ebdaf4466e26326,2020-11-27_15h05.23.399,lexical_decision_task_MP_exp2,2020.2.5,Win32,60,,z,1,0.52094,,,,,,,,0.52094,1,,,,,,254,NW,"ID",16,varosh,VAROSH,z,,,,,,0.026851865,-0.408333347,0,0,0,,0,220,220,313,1,
,,,,,,,,,,,,,,,,,,5e66c77e8ebdaf4466e26326,2020-11-27_15h05.23.399,lexical_decision_task_MP_exp2,2020.2.5,Win32,60,,z,1,0.59632,,,,,,,,0.59632,1,,,,,,336,NW,UN,33,rejols,GHODUS,z,,,,,,0.026851865,-0.408333347,0,0,0,,0,221,221,395,1,
,,,,,,,,,,,,,,,,,,5e66c77e8ebdaf4466e26326,2020-11-27_15h05.23.399,lexical_decision_task_MP_exp2,2020.2.5,Win32,60,,m,1,0.580675,,,,,,,,0.580675,1,,,,,,11,WORD,"ID",16,cruise,CRUISE,m,,,,,,0.026851865,-0.408333347,0,0,0,,0,222,222,70,1,
,,,,,,,,,,,,,,,,,,5e66c77e8ebdaf4466e26326,2020-11-27_15h05.23.399,lexical_decision_task_MP_exp2,2020.2.5,Win32,60,,z,1,0.497225,,,,,,,,0.497225,1,,,,,,286,NW,"ID",16,reldon,RELDON,z,,,,,,0.026851865,-0.408333347,0,0,0,,0,223,223,345,1,
,,,,,,,,,,,,,,,,,,5e66c77e8ebdaf4466e26326,2020-11-27_15h05.23.399,lexical_decision_task_MP_exp2,2020.2.5,Win32,60,,z,1,0.51411,,,,,,,,0.51411,1,,,,,,409,NW,UN,16,tunory,ELOPIA,z,,,,,,0.026851865,-0.408333347,0,0,0,,0,224,224,468,1,
,,,,,,,,,,,,,,,,,,5e66c77e8ebdaf4466e26326,2020-11-27_15h05.23.399,lexical_decision_task_MP_exp2,2020.2.5,Win32,60,,m,1,0.472345,,,,,,,,0.472345,1,,,,,,229,WORD,"ID",33,mother,MOTHER,m,,,,,,0.026851865,-0.408333347,0,0,0,,0,225,225,48,1,
,,,,,,,,,,,,,,,,,,5e66c77e8ebdaf4466e26326,2020-11-27_15h05.23.399,lexical_decision_task_MP_exp2,2020.2.5,Win32,60,,z,1,0.77172,,,,,,,,0.77172,1,,,,,,243,NW,"ID",16,musied,MUSIED,z,,,,,,0.026851865,-0.408333347,0,0,0,,0,226,226,302,1,
,,,,,,,,,,,,,,,,,,5e66c77e8ebdaf4466e26326,2020-11-27_15h05.23.399,lexical_decision_task_MP_exp2,2020.2.5,Win32,60,,z,1,0.677745,,,,,,,,0.677745,1,,,,,,299,NW,"ID",16,sturch,STURCH,z,,,,,,0.026851865,-0.408333347,0,0,0,,0,227,227,358,1,
,,,,,,,,,,,,,,,,,,5e66c77e8ebdaf4466e26326,2020-11-27_15h05.23.399,lexical_decision_task_MP_exp2,2020.2.5,Win32,60,,m,1,0.52825,,,,,,,,0.52825,1,,,,,,108,WORD,UN,33,wonder,RECKON,m,,,,,,0.026851865,-0.408333347,0,0,0,,0,228,228,167,1,
,,,,,,,,,,,,,,,,,,5e66c77e8ebdaf4466e26326,2020-11-27_15h05.23.399,lexical_decision_task_MP_exp2,2020.2.5,Win32,60,,z,1,0.490485,,,,,,,,0.490485,1,,,,,,368,NW,UN,16,wronch,HORNAL,z,,,,,,0.026851865,-0.408333347,0,0,0,,0,229,229,427,1,
,,,,,,,,,,,,,,,,,,5e66c77e8ebdaf4466e26326,2020-11-27_15h05.23.399,lexical_decision_task_MP_exp2,2020.2.5,Win32,60,,z,1,0.642095,,,,,,,,0.642095,1,,,,,,470,NW,"ID",33,crudio,CRUDIO,z,,,,,,0.026851865,-0.408333347,0,0,0,,0,230,230,289,1,
,,,,,,,,,,,,,,,,,,5e66c77e8ebdaf4466e26326,2020-11-27_15h05.23.399,lexical_decision_task_MP_exp2,2020.2.5,Win32,60,,z,1,0.534025,,,,,,,,0.534025,1,,,,,,345,NW,UN,33,saudic,ABSEND,z,,,,,,0.026851865,-0.408333347,0,0,0,,0,231,231,404,1,
,,,,,,,,,,,,,,,,,,5e66c77e8ebdaf4466e26326,2020-11-27_15h05.23.399,lexical_decision_task_MP_exp2,2020.2.5,Win32,60,,m,1,0.602775,,,,,,,,0.602775,1,,,,,,164,WORD,UN,16,invest,MARKET,m,,,,,,0.026851865,-0.408333347,0,0,0,,0,232,232,223,1,
,,,,,,,,,,,,,,,,,,5e66c77e8ebdaf4466e26326,2020-11-27_15h05.23.399,lexical_decision_task_MP_exp2,2020.2.5,Win32,60,,m,1,0.601035,,,,,,,,0.601035,1,,,,,,116,WORD,UN,33,branch,TUMBLE,m,,,,,,0.026851865,-0.408333347,0,0,0,,0,233,233,175,1,
,,,,,,,,,,,,,,,,,,5e66c77e8ebdaf4466e26326,2020-11-27_15h05.23.399,lexical_decision_task_MP_exp2,2020.2.5,Win32,60,,m,1,0.690035,,,,,,,,0.690035,1,,,,,,167,WORD,UN,16,answer,DESIGN,m,,,,,,0.026851865,-0.408333347,0,0,0,,0,234,234,226,1,
,,,,,,,,,,,,,,,,,,5e66c77e8ebdaf4466e26326,2020-11-27_15h05.23.399,lexical_decision_task_MP_exp2,2020.2.5,Win32,60,,z,1,0.50362,,,,,,,,0.50362,1,,,,,,242,NW,"ID",16,unwert,UNWERT,z,,,,,,0.026851865,-0.408333347,0,0,0,,0,235,235,301,1,
,,,,,,,,,,,,,,,,,,5e66c77e8ebdaf4466e26326,2020-11-27_15h05.23.399,lexical_decision_task_MP_exp2,2020.2.5,Win32,60,,m,1,0.56496,,,,,,,,0.56496,1,,,,,,20,WORD,"ID",16,breast,BREAST,m,,,,,,0.026851865,-0.408333347,0,0,0,,0,236,236,79,1,
,,,,,,,,,,,,,,,,,,5e66c77e8ebdaf4466e26326,2020-11-27_15h05.23.399,lexical_decision_task_MP_exp2,2020.2.5,Win32,60,,m,1,0.56264,,,,,,,,0.56264,1,,,,,,225,WORD,"ID",33,vulgar,VULGAR,m,,,,,,0.026851865,-0.408333347,0,0,0,,0,237,237,44,1,
,,,,,,,,,,,,,,,,,,5e66c77e8ebdaf4466e26326,2020-11-27_15h05.23.399,lexical_decision_task_MP_exp2,2020.2.5,Win32,60,,z,1,0.49752,,,,,,,,0.49752,1,,,,,,354,NW,UN,33,zingly,VIRLEX,z,,,,,,0.026851865,-0.408333347,0,0,0,,0,238,238,413,1,
,,,,,,,,,,,,,,,,,,5e66c77e8ebdaf4466e26326,2020-11-27_15h05.23.399,lexical_decision_task_MP_exp2,2020.2.5,Win32,60,,z,1,0.488345,,,,,,,,0.488345,1,,,,,,361,NW,UN,16,tireau,PAUCHE,z,,,,,,0.026851865,-0.408333347,0,0,0,,0,239,239,420,1,
,,,,,,,,,,,,,,,,,,5e66c77e8ebdaf4466e26326,2020-11-27_15h05.23.399,lexical_decision_task_MP_exp2,2020.2.5,Win32,60,,m,0,0.581565,,,,,,,,0.581565,0,,,,,,443,NW,"ID",33,dorsex,DORSEX,z,,,,,,0.026851865,-0.408333347,0,0,0,,0,240,240,262,1,
,,,,,,,,,,,,,,,,,,5e66c77e8ebdaf4466e26326,2020-11-27_15h05.23.399,lexical_decision_task_MP_exp2,2020.2.5,Win32,60,,z,1,0.672985,,,,,,,,0.672985,1,,,,,,371,NW,UN,16,ramily,GEILOY,z,,,,,,0.026851865,-0.408333347,0,0,0,space,0,241,241,430,1,1.06669
,,,,,,,,,,,,,,,,,,5e66c77e8ebdaf4466e26326,2020-11-27_15h05.23.399,lexical_decision_task_MP_exp2,2020.2.5,Win32,60,,z,1,0.73634,,,,,,,,0.73634,1,,,,,,433,NW,"ID",33,drance,DRANCE,z,,,,,,0.026851865,-0.408333347,0,0,0,,0,242,242,252,1,
,,,,,,,,,,,,,,,,,,5e66c77e8ebdaf4466e26326,2020-11-27_15h05.23.399,lexical_decision_task_MP_exp2,2020.2.5,Win32,60,,m,1,0.43922,,,,,,,,0.43922,1,,,,,,34,WORD,"ID",16,jungle,JUNGLE,m,,,,,,0.026851865,-0.408333347,0,0,0,,0,243,243,93,1,
,,,,,,,,,,,,,,,,,,5e66c77e8ebdaf4466e26326,2020-11-27_15h05.23.399,lexical_decision_task_MP_exp2,2020.2.5,Win32,60,,m,1,0.567545,,,,,,,,0.567545,1,,,,,,120,WORD,UN,33,ponder,STRAIN,m,,,,,,0.026851865,-0.408333347,0,0,0,,0,244,244,179,1,
,,,,,,,,,,,,,,,,,,5e66c77e8ebdaf4466e26326,2020-11-27_15h05.23.399,lexical_decision_task_MP_exp2,2020.2.5,Win32,60,,z,1,0.48158,,,,,,,,0.48158,1,,,,,,437,NW,"ID",33,snapel,SNAPEL,z,,,,,,0.026851865,-0.408333347,0,0,0,,0,245,245,256,1,
,,,,,,,,,,,,,,,,,,5e66c77e8ebdaf4466e26326,2020-11-27_15h05.23.399,lexical_decision_task_MP_exp2,2020.2.5,Win32,60,,z,1,0.462805,,,,,,,,0.462805,1,,,,,,414,NW,UN,16,higsta,SERBOL,z,,,,,,0.026851865,-0.408333347,0,0,0,,0,246,246,473,1,
,,,,,,,,,,,,,,,,,,5e66c77e8ebdaf4466e26326,2020-11-27_15h05.23.399,lexical_decision_task_MP_exp2,2020.2.5,Win32,60,,z,1,0.466465,,,,,,,,0.466465,1,,,,,,448,NW,"ID",33,sadent,SADENT,z,,,,,,0.026851865,-0.408333347,0,0,0,,0,247,247,267,1,
,,,,,,,,,,,,,,,,,,5e66c77e8ebdaf4466e26326,2020-11-27_15h05.23.399,lexical_decision_task_MP_exp2,2020.2.5,Win32,60,,m,1,0.578275,,,,,,,,0.578275,1,,,,,,90,WORD,UN,33,expand,RELISH,m,,,,,,0.026851865,-0.408333347,0,0,0,,0,248,248,149,1,
,,,,,,,,,,,,,,,,,,5e66c77e8ebdaf4466e26326,2020-11-27_15h05.23.399,lexical_decision_task_MP_exp2,2020.2.5,Win32,60,,z,1,0.461985,,,,,,,,0.461985,1,,,,,,317,NW,UN,33,reagly,WORBAL,z,,,,,,0.026851865,-0.408333347,0,0,0,,0,249,249,376,1,
,,,,,,,,,,,,,,,,,,5e66c77e8ebdaf4466e26326,2020-11-27_15h05.23.399,lexical_decision_task_MP_exp2,2020.2.5,Win32,60,,m,1,0.569205,,,,,,,,0.569205,1,,,,,,46,WORD,"ID",16,single,SINGLE,m,,,,,,0.026851865,-0.408333347,0,0,0,,0,250,250,105,1,
,,,,,,,,,,,,,,,,,,5e66c77e8ebdaf4466e26326,2020-11-27_15h05.23.399,lexical_decision_task_MP_exp2,2020.2.5,Win32,60,,z,1,0.69076,,,,,,,,0.69076,1,,,,,,426,NW,"ID",33,urivel,URIVEL,z,,,,,,0.026851865,-0.408333347,0,0,0,,0,251,251,245,1,
,,,,,,,,,,,,,,,,,,5e66c77e8ebdaf4466e26326,2020-11-27_15h05.23.399,lexical_decision_task_MP_exp2,2020.2.5,Win32,60,,m,1,0.65311,,,,,,,,0.65311,1,,,,,,74,WORD,UN,33,trophy,PLAQUE,m,,,,,,0.026851865,-0.408333347,0,0,0,,0,252,252,133,1,
,,,,,,,,,,,,,,,,,,5e66c77e8ebdaf4466e26326,2020-11-27_15h05.23.399,lexical_decision_task_MP_exp2,2020.2.5,Win32,60,,z,1,0.572065,,,,,,,,0.572065,1,,,,,,418,NW,UN,16,slount,SUIDLE,z,,,,,,0.026851865,-0.408333347,0,0,0,,0,253,253,477,1,
,,,,,,,,,,,,,,,,,,5e66c77e8ebdaf4466e26326,2020-11-27_15h05.23.399,lexical_decision_task_MP_exp2,2020.2.5,Win32,60,,z,1,0.62247,,,,,,,,0.62247,1,,,,,,247,NW,"ID",16,blarge,BLARGE,z,,,,,,0.026851865,-0.408333347,0,0,0,,0,254,254,306,1,
,,,,,,,,,,,,,,,,,,5e66c77e8ebdaf4466e26326,2020-11-27_15h05.23.399,lexical_decision_task_MP_exp2,2020.2.5,Win32,60,,z,1,0.54032,,,,,,,,0.54032,1,,,,,,321,NW,UN,33,slanch,MIATOR,z,,,,,,0.026851865,-0.408333347,0,0,0,,0,255,255,380,1,
,,,,,,,,,,,,,,,,,,5e66c77e8ebdaf4466e26326,2020-11-27_15h05.23.399,lexical_decision_task_MP_exp2,2020.2.5,Win32,60,,z,1,0.69738,,,,,,,,0.69738,1,,,,,,332,NW,UN,33,catrie,VANGUE,z,,,,,,0.026851865,-0.408333347,0,0,0,,0,256,256,391,1,
,,,,,,,,,,,,,,,,,,5e66c77e8ebdaf4466e26326,2020-11-27_15h05.23.399,lexical_decision_task_MP_exp2,2020.2.5,Win32,60,,m,1,0.562705,,,,,,,,0.562705,1,,,,,,99,WORD,UN,33,carbon,FLUENT,m,,,,,,0.026851865,-0.408333347,0,0,0,,0,257,257,158,1,
,,,,,,,,,,,,,,,,,,5e66c77e8ebdaf4466e26326,2020-11-27_15h05.23.399,lexical_decision_task_MP_exp2,2020.2.5,Win32,60,,z,1,0.522085,,,,,,,,0.522085,1,,,,,,388,NW,UN,16,witmer,CRAGIN,z,,,,,,0.026851865,-0.408333347,0,0,0,,0,258,258,447,1,
,,,,,,,,,,,,,,,,,,5e66c77e8ebdaf4466e26326,2020-11-27_15h05.23.399,lexical_decision_task_MP_exp2,2020.2.5,Win32,60,,z,1,0.69285,,,,,,,,0.69285,1,,,,,,461,NW,"ID",33,justre,JUSTRE,z,,,,,,0.026851865,-0.408333347,0,0,0,,0,259,259,280,1,
,,,,,,,,,,,,,,,,,,5e66c77e8ebdaf4466e26326,2020-11-27_15h05.23.399,lexical_decision_task_MP_exp2,2020.2.5,Win32,60,,z,1,0.55451,,,,,,,,0.55451,1,,,,,,476,NW,"ID",33,josted,JOSTED,z,,,,,,0.026851865,-0.408333347,0,0,0,,0,260,260,295,1,
,,,,,,,,,,,,,,,,,,5e66c77e8ebdaf4466e26326,2020-11-27_15h05.23.399,lexical_decision_task_MP_exp2,2020.2.5,Win32,60,,m,1,0.529755,,,,,,,,0.529755,1,,,,,,189,WORD,"ID",33,censor,CENSOR,m,,,,,,0.026851865,-0.408333347,0,0,0,,0,261,261,8,1,
,,,,,,,,,,,,,,,,,,5e66c77e8ebdaf4466e26326,2020-11-27_15h05.23.399,lexical_decision_task_MP_exp2,2020.2.5,Win32,60,,m,1,0.541375,,,,,,,,0.541375,1,,,,,,30,WORD,"ID",16,orient,ORIENT,m,,,,,,0.026851865,-0.408333347,0,0,0,,0,262,262,89,1,
,,,,,,,,,,,,,,,,,,5e66c77e8ebdaf4466e26326,2020-11-27_15h05.23.399,lexical_decision_task_MP_exp2,2020.2.5,Win32,60,,z,1,0.56808,,,,,,,,0.56808,1,,,,,,408,NW,UN,16,elopia,HURNIA,z,,,,,,0.026851865,-0.408333347,0,0,0,,0,263,263,467,1,
,,,,,,,,,,,,,,,,,,5e66c77e8ebdaf4466e26326,2020-11-27_15h05.23.399,lexical_decision_task_MP_exp2,2020.2.5,Win32,60,,z,1,0.889195,,,,,,,,0.889195,1,,,,,,311,NW,UN,33,nerawl,SPROLY,z,,,,,,0.026851865,-0.408333347,0,0,0,,0,264,264,370,1,
,,,,,,,,,,,,,,,,,,5e66c77e8ebdaf4466e26326,2020-11-27_15h05.23.399,lexical_decision_task_MP_exp2,2020.2.5,Win32,60,,m,1,0.763655,,,,,,,,0.763655,1,,,,,,13,WORD,"ID",16,strive,STRIVE,m,,,,,,0.026851865,-0.408333347,0,0,0,,0,265,265,72,1,
,,,,,,,,,,,,,,,,,,5e66c77e8ebdaf4466e26326,2020-11-27_15h05.23.399,lexical_decision_task_MP_exp2,2020.2.5,Win32,60,,m,1,0.636005,,,,,,,,0.636005,1,,,,,,145,WORD,UN,16,couple,PARISH,m,,,,,,0.026851865,-0.408333347,0,0,0,,0,266,266,204,1,
,,,,,,,,,,,,,,,,,,5e66c77e8ebdaf4466e26326,2020-11-27_15h05.23.399,lexical_decision_task_MP_exp2,2020.2.5,Win32,60,,z,1,0.732975,,,,,,,,0.732975,1,,,,,,261,NW,"ID",16,stunch,STUNCH,z,,,,,,0.026851865,-0.408333347,0,0,0,,0,267,267,320,1,
,,,,,,,,,,,,,,,,,,5e66c77e8ebdaf4466e26326,2020-11-27_15h05.23.399,lexical_decision_task_MP_exp2,2020.2.5,Win32,60,,z,1,0.56431,,,,,,,,0.56431,1,,,,,,327,NW,UN,33,broake,PLENAC,z,,,,,,0.026851865,-0.408333347,0,0,0,,0,268,268,386,1,
,,,,,,,,,,,,,,,,,,5e66c77e8ebdaf4466e26326,2020-11-27_15h05.23.399,lexical_decision_task_MP_exp2,2020.2.5,Win32,60,,z,1,0.519755,,,,,,,,0.519755,1,,,,,,394,NW,UN,16,colury,SPAQUX,z,,,,,,0.026851865,-0.408333347,0,0,0,,0,269,269,453,1,
,,,,,,,,,,,,,,,,,,5e66c77e8ebdaf4466e26326,2020-11-27_15h05.23.399,lexical_decision_task_MP_exp2,2020.2.5,Win32,60,,m,1,0.53053,,,,,,,,0.53053,1,,,,,,188,WORD,"ID",33,social,SOCIAL,m,,,,,,0.026851865,-0.408333347,0,0,0,,0,270,270,7,1,
,,,,,,,,,,,,,,,,,,5e66c77e8ebdaf4466e26326,2020-11-27_15h05.23.399,lexical_decision_task_MP_exp2,2020.2.5,Win32,60,,m,1,0.512005,,,,,,,,0.512005,1,,,,,,22,WORD,"ID",16,jockey,JOCKEY,m,,,,,,0.026851865,-0.408333347,0,0,0,,0,271,271,81,1,
,,,,,,,,,,,,,,,,,,5e66c77e8ebdaf4466e26326,2020-11-27_15h05.23.399,lexical_decision_task_MP_exp2,2020.2.5,Win32,60,,m,1,0.59723,,,,,,,,0.59723,1,,,,,,8,WORD,"ID",16,abrupt,ABRUPT,m,,,,,,0.026851865,-0.408333347,0,0,0,,0,272,272,67,1,
,,,,,,,,,,,,,,,,,,5e66c77e8ebdaf4466e26326,2020-11-27_15h05.23.399,lexical_decision_task_MP_exp2,2020.2.5,Win32,60,,m,1,0.5237,,,,,,,,0.5237,1,,,,,,240,WORD,"ID",33,forest,FOREST,m,,,,,,0.026851865,-0.408333347,0,0,0,,0,273,273,59,1,
,,,,,,,,,,,,,,,,,,5e66c77e8ebdaf4466e26326,2020-11-27_15h05.23.399,lexical_decision_task_MP_exp2,2020.2.5,Win32,60,,m,1,0.778415,,,,,,,,0.778415,1,,,,,,58,WORD,"ID",16,foster,FOSTER,m,,,,,,0.026851865,-0.408333347,0,0,0,,0,274,274,117,1,
,,,,,,,,,,,,,,,,,,5e66c77e8ebdaf4466e26326,2020-11-27_15h05.23.399,lexical_decision_task_MP_exp2,2020.2.5,Win32,60,,m,1,0.598575,,,,,,,,0.598575,1,,,,,,102,WORD,UN,33,bounce,DIRECT,m,,,,,,0.026851865,-0.408333347,0,0,0,,0,275,275,161,1,
,,,,,,,,,,,,,,,,,,5e66c77e8ebdaf4466e26326,2020-11-27_15h05.23.399,lexical_decision_task_MP_exp2,2020.2.5,Win32,60,,m,1,0.56297,,,,,,,,0.56297,1,,,,,,59,WORD,"ID",16,splint,SPLINT,m,,,,,,0.026851865,-0.408333347,0,0,0,,0,276,276,118,1,
,,,,,,,,,,,,,,,,,,5e66c77e8ebdaf4466e26326,2020-11-27_15h05.23.399,lexical_decision_task_MP_exp2,2020.2.5,Win32,60,,m,1,0.495785,,,,,,,,0.495785,1,,,,,,27,WORD,"ID",16,scream,SCREAM,m,,,,,,0.026851865,-0.408333347,0,0,0,,0,277,277,86,1,
,,,,,,,,,,,,,,,,,,5e66c77e8ebdaf4466e26326,2020-11-27_15h05.23.399,lexical_decision_task_MP_exp2,2020.2.5,Win32,60,,m,1,0.53556,,,,,,,,0.53556,1,,,,,,162,WORD,UN,16,string,CANDLE,m,,,,,,0.026851865,-0.408333347,0,0,0,,0,278,278,221,1,
,,,,,,,,,,,,,,,,,,5e66c77e8ebdaf4466e26326,2020-11-27_15h05.23.399,lexical_decision_task_MP_exp2,2020.2.5,Win32,60,,m,1,0.49865,,,,,,,,0.49865,1,,,,,,194,WORD,"ID",33,absent,ABSENT,m,,,,,,0.026851865,-0.408333347,0,0,0,,0,279,279,13,1,
,,,,,,,,,,,,,,,,,,5e66c77e8ebdaf4466e26326,2020-11-27_15h05.23.399,lexical_decision_task_MP_exp2,2020.2.5,Win32,60,,m,1,0.533615,,,,,,,,0.533615,1,,,,,,3,WORD,"ID",16,knight,KNIGHT,m,,,,,,0.026851865,-0.408333347,0,0,0,,0,280,280,62,1,
,,,,,,,,,,,,,,,,,,5e66c77e8ebdaf4466e26326,2020-11-27_15h05.23.399,lexical_decision_task_MP_exp2,2020.2.5,Win32,60,,m,1,0.50035,,,,,,,,0.50035,1,,,,,,175,WORD,UN,16,strife,FABRIC,m,,,,,,0.026851865,-0.408333347,0,0,0,,0,281,281,234,1,
,,,,,,,,,,,,,,,,,,5e66c77e8ebdaf4466e26326,2020-11-27_15h05.23.399,lexical_decision_task_MP_exp2,2020.2.5,Win32,60,,m,1,0.62833,,,,,,,,0.62833,1,,,,,,10,WORD,"ID",16,ethnic,ETHNIC,m,,,,,,0.026851865,-0.408333347,0,0,0,,0,282,282,69,1,
,,,,,,,,,,,,,,,,,,5e66c77e8ebdaf4466e26326,2020-11-27_15h05.23.399,lexical_decision_task_MP_exp2,2020.2.5,Win32,60,,m,1,0.52139,,,,,,,,0.52139,1,,,,,,200,WORD,"ID",33,beacon,BEACON,m,,,,,,0.026851865,-0.408333347,0,0,0,,0,283,283,19,1,
,,,,,,,,,,,,,,,,,,5e66c77e8ebdaf4466e26326,2020-11-27_15h05.23.399,lexical_decision_task_MP_exp2,2020.2.5,Win32,60,,z,1,0.753115,,,,,,,,0.753115,1,,,,,,390,NW,UN,16,theldy,HATRUS,z,,,,,,0.026851865,-0.408333347,0,0,0,,0,284,284,449,1,
,,,,,,,,,,,,,,,,,,5e66c77e8ebdaf4466e26326,2020-11-27_15h05.23.399,lexical_decision_task_MP_exp2,2020.2.5,Win32,60,,m,1,0.50198,,,,,,,,0.50198,1,,,,,,179,WORD,UN,16,silent,BASKET,m,,,,,,0.026851865,-0.408333347,0,0,0,,0,285,285,238,1,
,,,,,,,,,,,,,,,,,,5e66c77e8ebdaf4466e26326,2020-11-27_15h05.23.399,lexical_decision_task_MP_exp2,2020.2.5,Win32,60,,m,1,0.595485,,,,,,,,0.595485,1,,,,,,2,WORD,"ID",16,bridge,BRIDGE,m,,,,,,0.026851865,-0.408333347,0,0,0,,0,286,286,61,1,
,,,,,,,,,,,,,,,,,,5e66c77e8ebdaf4466e26326,2020-11-27_15h05.23.399,lexical_decision_task_MP_exp2,2020.2.5,Win32,60,,m,1,0.649745,,,,,,,,0.649745,1,,,,,,207,WORD,"ID",33,wreath,WREATH,m,,,,,,0.026851865,-0.408333347,0,0,0,,0,287,287,26,1,
,,,,,,,,,,,,,,,,,,5e66c77e8ebdaf4466e26326,2020-11-27_15h05.23.399,lexical_decision_task_MP_exp2,2020.2.5,Win32,60,,z,1,0.716405,,,,,,,,0.716405,1,,,,,,289,NW,"ID",16,starby,STARBY,z,,,,,,0.026851865,-0.408333347,0,0,0,,0,288,288,348,1,
,,,,,,,,,,,,,,,,,,5e66c77e8ebdaf4466e26326,2020-11-27_15h05.23.399,lexical_decision_task_MP_exp2,2020.2.5,Win32,60,,m,1,0.555715,,,,,,,,0.555715,1,,,,,,66,WORD,UN,33,policy,GOSPEL,m,,,,,,0.026851865,-0.408333347,0,0,0,,0,289,289,125,1,
,,,,,,,,,,,,,,,,,,5e66c77e8ebdaf4466e26326,2020-11-27_15h05.23.399,lexical_decision_task_MP_exp2,2020.2.5,Win32,60,,m,1,0.57228,,,,,,,,0.57228,1,,,,,,65,WORD,UN,33,gospel,SYMBOL,m,,,,,,0.026851865,-0.408333347,0,0,0,,0,290,290,124,1,
,,,,,,,,,,,,,,,,,,5e66c77e8ebdaf4466e26326,2020-11-27_15h05.23.399,lexical_decision_task_MP_exp2,2020.2.5,Win32,60,,z,1,0.579405,,,,,,,,0.579405,1,,,,,,272,NW,"ID",16,damilt,DAMILT,z,,,,,,0.026851865,-0.408333347,0,0,0,,0,291,291,331,1,
,,,,,,,,,,,,,,,,,,5e66c77e8ebdaf4466e26326,2020-11-27_15h05.23.399,lexical_decision_task_MP_exp2,2020.2.5,Win32,60,,m,1,0.50287,,,,,,,,0.50287,1,,,,,,84,WORD,UN,33,strand,MORTAL,m,,,,,,0.026851865,-0.408333347,0,0,0,,0,292,292,143,1,
,,,,,,,,,,,,,,,,,,5e66c77e8ebdaf4466e26326,2020-11-27_15h05.23.399,lexical_decision_task_MP_exp2,2020.2.5,Win32,60,,m,1,0.50112,,,,,,,,0.50112,1,,,,,,6,WORD,"ID",16,bundle,BUNDLE,m,,,,,,0.026851865,-0.408333347,0,0,0,,0,293,293,65,1,
,,,,,,,,,,,,,,,,,,5e66c77e8ebdaf4466e26326,2020-11-27_15h05.23.399,lexical_decision_task_MP_exp2,2020.2.5,Win32,60,,m,1,0.545785,,,,,,,,0.545785,1,,,,,,160,WORD,UN,16,pastor,VIOLET,m,,,,,,0.026851865,-0.408333347,0,0,0,,0,294,294,219,1,
,,,,,,,,,,,,,,,,,,5e66c77e8ebdaf4466e26326,2020-11-27_15h05.23.399,lexical_decision_task_MP_exp2,2020.2.5,Win32,60,,m,1,0.84206,,,,,,,,0.84206,1,,,,,,40,WORD,"ID",16,convey,CONVEY,m,,,,,,0.026851865,-0.408333347,0,0,0,,0,295,295,99,1,
,,,,,,,,,,,,,,,,,,5e66c77e8ebdaf4466e26326,2020-11-27_15h05.23.399,lexical_decision_task_MP_exp2,2020.2.5,Win32,60,,m,1,0.502135,,,,,,,,0.502135,1,,,,,,238,WORD,"ID",33,flower,FLOWER,m,,,,,,0.026851865,-0.408333347,0,0,0,,0,296,296,57,1,
,,,,,,,,,,,,,,,,,,5e66c77e8ebdaf4466e26326,2020-11-27_15h05.23.399,lexical_decision_task_MP_exp2,2020.2.5,Win32,60,,z,1,0.60865,,,,,,,,0.60865,1,,,,,,382,NW,UN,16,aungre,SARLEY,z,,,,,,0.026851865,-0.408333347,0,0,0,,0,297,297,441,1,
,,,,,,,,,,,,,,,,,,5e66c77e8ebdaf4466e26326,2020-11-27_15h05.23.399,lexical_decision_task_MP_exp2,2020.2.5,Win32,60,,m,1,0.56803,,,,,,,,0.56803,1,,,,,,161,WORD,UN,16,candle,PASTOR,m,,,,,,0.026851865,-0.408333347,0,0,0,,0,298,298,220,1,
,,,,,,,,,,,,,,,,,,5e66c77e8ebdaf4466e26326,2020-11-27_15h05.23.399,lexical_decision_task_MP_exp2,2020.2.5,Win32,60,,z,1,0.54893,,,,,,,,0.54893,1,,,,,,259,NW,"ID",16,soudal,SOUDAL,z,,,,,,0.026851865,-0.408333347,0,0,0,,0,299,299,318,1,
,,,,,,,,,,,,,,,,,,5e66c77e8ebdaf4466e26326,2020-11-27_15h05.23.399,lexical_decision_task_MP_exp2,2020.2.5,Win32,60,,m,0,0.69726,,,,,,,,0.69726,0,,,,,,244,NW,"ID",16,eatric,EATRIC,z,,,,,,0.026851865,-0.408333347,0,0,0,,0,300,300,303,1,
,,,,,,,,,,,,,,,,,,5e66c77e8ebdaf4466e26326,2020-11-27_15h05.23.399,lexical_decision_task_MP_exp2,2020.2.5,Win32,60,,z,1,0.647655,,,,,,,,0.647655,1,,,,,,257,NW,"ID",16,veniod,VENIOD,z,,,,,,0.026851865,-0.408333347,0,0,0,,0,301,301,316,1,
,,,,,,,,,,,,,,,,,,5e66c77e8ebdaf4466e26326,2020-11-27_15h05.23.399,lexical_decision_task_MP_exp2,2020.2.5,Win32,60,,m,1,0.56222,,,,,,,,0.56222,1,,,,,,151,WORD,UN,16,rocket,MYSTIC,m,,,,,,0.026851865,-0.408333347,0,0,0,,0,302,302,210,1,
,,,,,,,,,,,,,,,,,,5e66c77e8ebdaf4466e26326,2020-11-27_15h05.23.399,lexical_decision_task_MP_exp2,2020.2.5,Win32,60,,z,1,0.548555,,,,,,,,0.548555,1,,,,,,424,NW,"ID",33,praile,PRAILE,z,,,,,,0.026851865,-0.408333347,0,0,0,,0,303,303,243,1,
,,,,,,,,,,,,,,,,,,5e66c77e8ebdaf4466e26326,2020-11-27_15h05.23.399,lexical_decision_task_MP_exp2,2020.2.5,Win32,60,,z,1,0.56274,,,,,,,,0.56274,1,,,,,,358,NW,UN,33,fonver,FLEACK,z,,,,,,0.026851865,-0.408333347,0,0,0,,0,304,304,417,1,
,,,,,,,,,,,,,,,,,,5e66c77e8ebdaf4466e26326,2020-11-27_15h05.23.399,lexical_decision_task_MP_exp2,2020.2.5,Win32,60,,m,1,0.56555,,,,,,,,0.56555,1,,,,,,93,WORD,UN,33,travel,PUBLIC,m,,,,,,0.026851865,-0.408333347,0,0,0,,0,305,305,152,1,
,,,,,,,,,,,,,,,,,,5e66c77e8ebdaf4466e26326,2020-11-27_15h05.23.399,lexical_decision_task_MP_exp2,2020.2.5,Win32,60,,z,1,0.58891,,,,,,,,0.58891,1,,,,,,431,NW,"ID",33,chrums,CHRUMS,z,,,,,,0.026851865,-0.408333347,0,0,0,,0,306,306,250,1,
,,,,,,,,,,,,,,,,,,5e66c77e8ebdaf4466e26326,2020-11-27_15h05.23.399,lexical_decision_task_MP_exp2,2020.2.5,Win32,60,,m,1,0.54765,,,,,,,,0.54765,1,,,,,,39,WORD,"ID",16,insect,INSECT,m,,,,,,0.026851865,-0.408333347,0,0,0,,0,307,307,98,1,
,,,,,,,,,,,,,,,,,,5e66c77e8ebdaf4466e26326,2020-11-27_15h05.23.399,lexical_decision_task_MP_exp2,2020.2.5,Win32,60,,z,1,0.5147,,,,,,,,0.5147,1,,,,,,333,NW,UN,33,watmeg,CATRIE,z,,,,,,0.026851865,-0.408333347,0,0,0,,0,308,308,392,1,
,,,,,,,,,,,,,,,,,,5e66c77e8ebdaf4466e26326,2020-11-27_15h05.23.399,lexical_decision_task_MP_exp2,2020.2.5,Win32,60,,m,1,0.527565,,,,,,,,0.527565,1,,,,,,95,WORD,UN,33,ignore,THREAD,m,,,,,,0.026851865,-0.408333347,0,0,0,,0,309,309,154,1,
,,,,,,,,,,,,,,,,,,5e66c77e8ebdaf4466e26326,2020-11-27_15h05.23.399,lexical_decision_task_MP_exp2,2020.2.5,Win32,60,,m,1,0.50531,,,,,,,,0.50531,1,,,,,,38,WORD,"ID",16,powder,POWDER,m,,,,,,0.026851865,-0.408333347,0,0,0,,0,310,310,97,1,
,,,,,,,,,,,,,,,,,,5e66c77e8ebdaf4466e26326,2020-11-27_15h05.23.399,lexical_decision_task_MP_exp2,2020.2.5,Win32,60,,m,1,0.48837,,,,,,,,0.48837,1,,,,,,117,WORD,UN,33,flight,BRANCH,m,,,,,,0.026851865,-0.408333347,0,0,0,,0,311,311,176,1,
,,,,,,,,,,,,,,,,,,5e66c77e8ebdaf4466e26326,2020-11-27_15h05.23.399,lexical_decision_task_MP_exp2,2020.2.5,Win32,60,,z,1,0.498355,,,,,,,,0.498355,1,,,,,,308,NW,UN,33,amiloy,PSETCH,z,,,,,,0.026851865,-0.408333347,0,0,0,,0,312,312,367,1,
,,,,,,,,,,,,,,,,,,5e66c77e8ebdaf4466e26326,2020-11-27_15h05.23.399,lexical_decision_task_MP_exp2,2020.2.5,Win32,60,,m,1,0.514715,,,,,,,,0.514715,1,,,,,,135,WORD,UN,16,bleach,IMPORT,m,,,,,,0.026851865,-0.408333347,0,0,0,,0,313,313,194,1,
,,,,,,,,,,,,,,,,,,5e66c77e8ebdaf4466e26326,2020-11-27_15h05.23.399,lexical_decision_task_MP_exp2,2020.2.5,Win32,60,,m,1,0.524285,,,,,,,,0.524285,1,,,,,,182,WORD,"ID",33,winter,WINTER,m,,,,,,0.026851865,-0.408333347,0,0,0,,0,314,314,1,1,
,,,,,,,,,,,,,,,,,,5e66c77e8ebdaf4466e26326,2020-11-27_15h05.23.399,lexical_decision_task_MP_exp2,2020.2.5,Win32,60,,z,1,0.583925,,,,,,,,0.583925,1,,,,,,420,NW,UN,16,pauche,GUSHOP,z,,,,,,0.026851865,-0.408333347,0,0,0,,0,315,315,479,1,
,,,,,,,,,,,,,,,,,,5e66c77e8ebdaf4466e26326,2020-11-27_15h05.23.399,lexical_decision_task_MP_exp2,2020.2.5,Win32,60,,m,1,0.58176,,,,,,,,0.58176,1,,,,,,195,WORD,"ID",33,resign,RESIGN,m,,,,,,0.026851865,-0.408333347,0,0,0,,0,316,316,14,1,
,,,,,,,,,,,,,,,,,,5e66c77e8ebdaf4466e26326,2020-11-27_15h05.23.399,lexical_decision_task_MP_exp2,2020.2.5,Win32,60,,m,1,0.52288,,,,,,,,0.52288,1,,,,,,21,WORD,"ID",16,simple,SIMPLE,m,,,,,,0.026851865,-0.408333347,0,0,0,,0,317,317,80,1,
,,,,,,,,,,,,,,,,,,5e66c77e8ebdaf4466e26326,2020-11-27_15h05.23.399,lexical_decision_task_MP_exp2,2020.2.5,Win32,60,,m,1,0.554185,,,,,,,,0.554185,1,,,,,,153,WORD,UN,16,author,BEHOLD,m,,,,,,0.026851865,-0.408333347,0,0,0,,0,318,318,212,1,
,,,,,,,,,,,,,,,,,,5e66c77e8ebdaf4466e26326,2020-11-27_15h05.23.399,lexical_decision_task_MP_exp2,2020.2.5,Win32,60,,z,1,1.096895,,,,,,,,1.096895,1,,,,,,411,NW,UN,16,jiluer,ORCHIN,z,,,,,,0.026851865,-0.408333347,0,0,0,,0,319,319,470,1,
,,,,,,,,,,,,,,,,,,5e66c77e8ebdaf4466e26326,2020-11-27_15h05.23.399,lexical_decision_task_MP_exp2,2020.2.5,Win32,60,,m,1,0.591345,,,,,,,,0.591345,1,,,,,,98,WORD,UN,33,fluent,BELONG,m,,,,,,0.026851865,-0.408333347,0,0,0,,0,320,320,157,1,
,,,,,,,,,,,,,,,,,,5e66c77e8ebdaf4466e26326,2020-11-27_15h05.23.399,lexical_decision_task_MP_exp2,2020.2.5,Win32,60,,m,1,0.5373,,,,,,,,0.5373,1,,,,,,192,WORD,"ID",33,plague,PLAGUE,m,,,,,,0.026851865,-0.408333347,0,0,0,,0,321,321,11,1,
,,,,,,,,,,,,,,,,,,5e66c77e8ebdaf4466e26326,2020-11-27_15h05.23.399,lexical_decision_task_MP_exp2,2020.2.5,Win32,60,,z,1,0.514735,,,,,,,,0.514735,1,,,,,,287,NW,"ID",16,nymbel,NYMBEL,z,,,,,,0.026851865,-0.408333347,0,0,0,,0,322,322,346,1,
,,,,,,,,,,,,,,,,,,5e66c77e8ebdaf4466e26326,2020-11-27_15h05.23.399,lexical_decision_task_MP_exp2,2020.2.5,Win32,60,,z,1,0.779715,,,,,,,,0.779715,1,,,,,,281,NW,"ID",16,melaty,MELATY,z,,,,,,0.026851865,-0.408333347,0,0,0,,0,323,323,340,1,
,,,,,,,,,,,,,,,,,,5e66c77e8ebdaf4466e26326,2020-11-27_15h05.23.399,lexical_decision_task_MP_exp2,2020.2.5,Win32,60,,m,1,0.473215,,,,,,,,0.473215,1,,,,,,196,WORD,"ID",33,credit,CREDIT,m,,,,,,0.026851865,-0.408333347,0,0,0,,0,324,324,15,1,
,,,,,,,,,,,,,,,,,,5e66c77e8ebdaf4466e26326,2020-11-27_15h05.23.399,lexical_decision_task_MP_exp2,2020.2.5,Win32,60,,z,1,0.536275,,,,,,,,0.536275,1,,,,,,342,NW,UN,33,aimosy,RANDOW,z,,,,,,0.026851865,-0.408333347,0,0,0,,0,325,325,401,1,
,,,,,,,,,,,,,,,,,,5e66c77e8ebdaf4466e26326,2020-11-27_15h05.23.399,lexical_decision_task_MP_exp2,2020.2.5,Win32,60,,z,1,0.826805,,,,,,,,0.826805,1,,,,,,326,NW,UN,33,plenac,IGUADE,z,,,,,,0.026851865,-0.408333347,0,0,0,,0,326,326,385,1,
,,,,,,,,,,,,,,,,,,5e66c77e8ebdaf4466e26326,2020-11-27_15h05.23.399,lexical_decision_task_MP_exp2,2020.2.5,Win32,60,,m,1,0.503935,,,,,,,,0.503935,1,,,,,,103,WORD,UN,33,studio,BOUNCE,m,,,,,,0.026851865,-0.408333347,0,0,0,,0,327,327,162,1,
,,,,,,,,,,,,,,,,,,5e66c77e8ebdaf4466e26326,2020-11-27_15h05.23.399,lexical_decision_task_MP_exp2,2020.2.5,Win32,60,,z,1,0.516475,,,,,,,,0.516475,1,,,,,,339,NW,UN,33,fiatch,FACHOW,z,,,,,,0.026851865,-0.408333347,0,0,0,,0,328,328,398,1,
,,,,,,,,,,,,,,,,,,5e66c77e8ebdaf4466e26326,2020-11-27_15h05.23.399,lexical_decision_task_MP_exp2,2020.2.5,Win32,60,,m,0,0.56901,,,,,,,,0.56901,0,,,,,,303,NW,UN,33,cludie,FIREAM,z,,,,,,0.026851865,-0.408333347,0,0,0,,0,329,329,362,1,
,,,,,,,,,,,,,,,,,,5e66c77e8ebdaf4466e26326,2020-11-27_15h05.23.399,lexical_decision_task_MP_exp2,2020.2.5,Win32,60,,z,1,0.569635,,,,,,,,0.569635,1,,,,,,282,NW,"ID",16,porlex,PORLEX,z,,,,,,0.026851865,-0.408333347,0,0,0,,0,330,330,341,1,
,,,,,,,,,,,,,,,,,,5e66c77e8ebdaf4466e26326,2020-11-27_15h05.23.399,lexical_decision_task_MP_exp2,2020.2.5,Win32,60,,m,1,0.565885,,,,,,,,0.565885,1,,,,,,31,WORD,"ID",16,weapon,WEAPON,m,,,,,,0.026851865,-0.408333347,0,0,0,,0,331,331,90,1,
,,,,,,,,,,,,,,,,,,5e66c77e8ebdaf4466e26326,2020-11-27_15h05.23.399,lexical_decision_task_MP_exp2,2020.2.5,Win32,60,,z,1,0.52509,,,,,,,,0.52509,1,,,,,,415,NW,UN,16,pathel,HIGSTA,z,,,,,,0.026851865,-0.408333347,0,0,0,,0,332,332,474,1,
,,,,,,,,,,,,,,,,,,5e66c77e8ebdaf4466e26326,2020-11-27_15h05.23.399,lexical_decision_task_MP_exp2,2020.2.5,Win32,60,,m,1,0.48606,,,,,,,,0.48606,1,,,,,,94,WORD,UN,33,thread,TRAVEL,m,,,,,,0.026851865,-0.408333347,0,0,0,,0,333,333,153,1,
,,,,,,,,,,,,,,,,,,5e66c77e8ebdaf4466e26326,2020-11-27_15h05.23.399,lexical_decision_task_MP_exp2,2020.2.5,Win32,60,,z,1,0.573515,,,,,,,,0.573515,1,,,,,,473,NW,"ID",33,crible,CRIBLE,z,,,,,,0.026851865,-0.408333347,0,0,0,,0,334,334,292,1,
,,,,,,,,,,,,,,,,,,5e66c77e8ebdaf4466e26326,2020-11-27_15h05.23.399,lexical_decision_task_MP_exp2,2020.2.5,Win32,60,,z,1,0.546675,,,,,,,,0.546675,1,,,,,,351,NW,UN,33,tringe,TIESCH,z,,,,,,0.026851865,-0.408333347,0,0,0,,0,335,335,410,1,
,,,,,,,,,,,,,,,,,,5e66c77e8ebdaf4466e26326,2020-11-27_15h05.23.399,lexical_decision_task_MP_exp2,2020.2.5,Win32,60,,m,1,0.55035,,,,,,,,0.55035,1,,,,,,55,WORD,"ID",16,stroke,STROKE,m,,,,,,0.026851865,-0.408333347,0,0,0,,0,336,336,114,1,
,,,,,,,,,,,,,,,,,,5e66c77e8ebdaf4466e26326,2020-11-27_15h05.23.399,lexical_decision_task_MP_exp2,2020.2.5,Win32,60,,z,1,0.44665,,,,,,,,0.44665,1,,,,,,283,NW,"ID",16,veralf,VERALF,z,,,,,,0.026851865,-0.408333347,0,0,0,,0,337,337,342,1,
,,,,,,,,,,,,,,,,,,5e66c77e8ebdaf4466e26326,2020-11-27_15h05.23.399,lexical_decision_task_MP_exp2,2020.2.5,Win32,60,,m,1,0.649385,,,,,,,,0.649385,1,,,,,,75,WORD,UN,33,exotic,TROPHY,m,,,,,,0.026851865,-0.408333347,0,0,0,,0,338,338,134,1,
,,,,,,,,,,,,,,,,,,5e66c77e8ebdaf4466e26326,2020-11-27_15h05.23.399,lexical_decision_task_MP_exp2,2020.2.5,Win32,60,,m,1,0.547615,,,,,,,,0.547615,1,,,,,,73,WORD,UN,33,plaque,SOURCE,m,,,,,,0.026851865,-0.408333347,0,0,0,,0,339,339,132,1,
,,,,,,,,,,,,,,,,,,5e66c77e8ebdaf4466e26326,2020-11-27_15h05.23.399,lexical_decision_task_MP_exp2,2020.2.5,Win32,60,,z,1,0.6174,,,,,,,,0.6174,1,,,,,,380,NW,UN,16,huniek,CAVORY,z,,,,,,0.026851865,-0.408333347,0,0,0,,0,340,340,439,1,
,,,,,,,,,,,,,,,,,,5e66c77e8ebdaf4466e26326,2020-11-27_15h05.23.399,lexical_decision_task_MP_exp2,2020.2.5,Win32,60,,m,1,1.50665,,,,,,,,1.50665,1,,,,,,171,WORD,UN,16,patrol,DEPART,m,,,,,,0.026851865,-0.408333347,0,0,0,,0,341,341,230,1,
,,,,,,,,,,,,,,,,,,5e66c77e8ebdaf4466e26326,2020-11-27_15h05.23.399,lexical_decision_task_MP_exp2,2020.2.5,Win32,60,,m,1,0.538745,,,,,,,,0.538745,1,,,,,,185,WORD,"ID",33,bother,BOTHER,m,,,,,,0.026851865,-0.408333347,0,0,0,,0,342,342,4,1,
,,,,,,,,,,,,,,,,,,5e66c77e8ebdaf4466e26326,2020-11-27_15h05.23.399,lexical_decision_task_MP_exp2,2020.2.5,Win32,60,,z,1,0.798545,,,,,,,,0.798545,1,,,,,,454,NW,"ID",33,scouge,SCOUGE,z,,,,,,0.026851865,-0.408333347,0,0,0,,0,343,343,273,1,
,,,,,,,,,,,,,,,,,,5e66c77e8ebdaf4466e26326,2020-11-27_15h05.23.399,lexical_decision_task_MP_exp2,2020.2.5,Win32,60,,z,1,0.88561,,,,,,,,0.88561,1,,,,,,275,NW,"ID",16,sleirt,SLEIRT,z,,,,,,0.026851865,-0.408333347,0,0,0,,0,344,344,334,1,
,,,,,,,,,,,,,,,,,,5e66c77e8ebdaf4466e26326,2020-11-27_15h05.23.399,lexical_decision_task_MP_exp2,2020.2.5,Win32,60,,m,1,0.51714,,,,,,,,0.51714,1,,,,,,44,WORD,"ID",16,danger,DANGER,m,,,,,,0.026851865,-0.408333347,0,0,0,,0,345,345,103,1,
,,,,,,,,,,,,,,,,,,5e66c77e8ebdaf4466e26326,2020-11-27_15h05.23.399,lexical_decision_task_MP_exp2,2020.2.5,Win32,60,,z,1,0.47863,,,,,,,,0.47863,1,,,,,,367,NW,UN,16,hornal,SLIQUE,z,,,,,,0.026851865,-0.408333347,0,0,0,,0,346,346,426,1,
,,,,,,,,,,,,,,,,,,5e66c77e8ebdaf4466e26326,2020-11-27_15h05.23.399,lexical_decision_task_MP_exp2,2020.2.5,Win32,60,,m,1,0.551685,,,,,,,,0.551685,1,,,,,,100,WORD,UN,33,wrench,CARBON,m,,,,,,0.026851865,-0.408333347,0,0,0,,0,347,347,159,1,
,,,,,,,,,,,,,,,,,,5e66c77e8ebdaf4466e26326,2020-11-27_15h05.23.399,lexical_decision_task_MP_exp2,2020.2.5,Win32,60,,m,1,0.599945,,,,,,,,0.599945,1,,,,,,204,WORD,"ID",33,burden,BURDEN,m,,,,,,0.026851865,-0.408333347,0,0,0,,0,348,348,23,1,
,,,,,,,,,,,,,,,,,,5e66c77e8ebdaf4466e26326,2020-11-27_15h05.23.399,lexical_decision_task_MP_exp2,2020.2.5,Win32,60,,m,1,0.599415,,,,,,,,0.599415,1,,,,,,78,WORD,UN,33,theory,COLUMN,m,,,,,,0.026851865,-0.408333347,0,0,0,,0,349,349,137,1,
,,,,,,,,,,,,,,,,,,5e66c77e8ebdaf4466e26326,2020-11-27_15h05.23.399,lexical_decision_task_MP_exp2,2020.2.5,Win32,60,,z,1,0.530185,,,,,,,,0.530185,1,,,,,,316,NW,UN,33,worbal,SCREGM,z,,,,,,0.026851865,-0.408333347,0,0,0,,0,350,350,375,1,
,,,,,,,,,,,,,,,,,,5e66c77e8ebdaf4466e26326,2020-11-27_15h05.23.399,lexical_decision_task_MP_exp2,2020.2.5,Win32,60,,m,1,0.793155,,,,,,,,0.793155,1,,,,,,107,WORD,UN,33,reckon,SLOGAN,m,,,,,,0.026851865,-0.408333347,0,0,0,,0,351,351,166,1,
,,,,,,,,,,,,,,,,,,5e66c77e8ebdaf4466e26326,2020-11-27_15h05.23.399,lexical_decision_task_MP_exp2,2020.2.5,Win32,60,,m,1,0.580995,,,,,,,,0.580995,1,,,,,,23,WORD,"ID",16,wealth,WEALTH,m,,,,,,0.026851865,-0.408333347,0,0,0,,0,352,352,82,1,
,,,,,,,,,,,,,,,,,,5e66c77e8ebdaf4466e26326,2020-11-27_15h05.23.399,lexical_decision_task_MP_exp2,2020.2.5,Win32,60,,z,1,0.8206,,,,,,,,0.8206,1,,,,,,255,NW,"ID",16,apight,APIGHT,z,,,,,,0.026851865,-0.408333347,0,0,0,,0,353,353,314,1,
,,,,,,,,,,,,,,,,,,5e66c77e8ebdaf4466e26326,2020-11-27_15h05.23.399,lexical_decision_task_MP_exp2,2020.2.5,Win32,60,,m,1,0.663255,,,,,,,,0.663255,1,,,,,,60,WORD,"ID",16,pencil,PENCIL,m,,,,,,0.026851865,-0.408333347,0,0,0,,0,354,354,119,1,
,,,,,,,,,,,,,,,,,,5e66c77e8ebdaf4466e26326,2020-11-27_15h05.23.399,lexical_decision_task_MP_exp2,2020.2.5,Win32,60,,z,1,0.76992,,,,,,,,0.76992,1,,,,,,398,NW,UN,16,fouret,BLUNDE,z,,,,,,0.026851865,-0.408333347,0,0,0,,0,355,355,457,1,
,,,,,,,,,,,,,,,,,,5e66c77e8ebdaf4466e26326,2020-11-27_15h05.23.399,lexical_decision_task_MP_exp2,2020.2.5,Win32,60,,z,1,0.65245,,,,,,,,0.65245,1,,,,,,359,NW,UN,33,desory,FONVER,z,,,,,,0.026851865,-0.408333347,0,0,0,,0,356,356,418,1,
,,,,,,,,,,,,,,,,,,5e66c77e8ebdaf4466e26326,2020-11-27_15h05.23.399,lexical_decision_task_MP_exp2,2020.2.5,Win32,60,,m,1,0.606285,,,,,,,,0.606285,1,,,,,,123,WORD,UN,16,blouse,STRIKE,m,,,,,,0.026851865,-0.408333347,0,0,0,,0,357,357,182,1,
,,,,,,,,,,,,,,,,,,5e66c77e8ebdaf4466e26326,2020-11-27_15h05.23.399,lexical_decision_task_MP_exp2,2020.2.5,Win32,60,,z,1,0.58274,,,,,,,,0.58274,1,,,,,,475,NW,"ID",33,pebric,PEBRIC,z,,,,,,0.026851865,-0.408333347,0,0,0,,0,358,358,294,1,
,,,,,,,,,,,,,,,,,,5e66c77e8ebdaf4466e26326,2020-11-27_15h05.23.399,lexical_decision_task_MP_exp2,2020.2.5,Win32,60,,m,1,0.601865,,,,,,,,0.601865,1,,,,,,56,WORD,"ID",16,ambush,AMBUSH,m,,,,,,0.026851865,-0.408333347,0,0,0,,0,359,359,115,1,
,,,,,,,,,,,,,,,,,,5e66c77e8ebdaf4466e26326,2020-11-27_15h05.23.399,lexical_decision_task_MP_exp2,2020.2.5,Win32,60,,m,1,0.48761,,,,,,,,0.48761,1,,,,,,144,WORD,UN,16,parish,SPONGE,m,,,,,,0.026851865,-0.408333347,0,0,0,,0,360,360,203,1,
,,,,,,,,,,,,,,,,,,5e66c77e8ebdaf4466e26326,2020-11-27_15h05.23.399,lexical_decision_task_MP_exp2,2020.2.5,Win32,60,,z,1,0.583815,,,,,,,,0.583815,1,,,,,,319,NW,UN,33,jockal,ZOMBER,z,,,,,,0.026851865,-0.408333347,0,0,0,,0,361,361,378,1,
,,,,,,,,,,,,,,,,,,5e66c77e8ebdaf4466e26326,2020-11-27_15h05.23.399,lexical_decision_task_MP_exp2,2020.2.5,Win32,60,,z,1,0.719105,,,,,,,,0.719105,1,,,,,,293,NW,"ID",16,swance,SWANCE,z,,,,,,0.026851865,-0.408333347,0,0,0,space,0,362,362,352,1,1.34688
,,,,,,,,,,,,,,,,,,5e66c77e8ebdaf4466e26326,2020-11-27_15h05.23.399,lexical_decision_task_MP_exp2,2020.2.5,Win32,60,,m,1,0.487895,,,,,,,,0.487895,1,,,,,,155,WORD,UN,16,cradle,LIZARD,m,,,,,,0.026851865,-0.408333347,0,0,0,,0,363,363,214,1,
,,,,,,,,,,,,,,,,,,5e66c77e8ebdaf4466e26326,2020-11-27_15h05.23.399,lexical_decision_task_MP_exp2,2020.2.5,Win32,60,,z,1,0.56448,,,,,,,,0.56448,1,,,,,,246,NW,"ID",16,piaton,PIATON,z,,,,,,0.026851865,-0.408333347,0,0,0,,0,364,364,305,1,
,,,,,,,,,,,,,,,,,,5e66c77e8ebdaf4466e26326,2020-11-27_15h05.23.399,lexical_decision_task_MP_exp2,2020.2.5,Win32,60,,m,1,0.51577,,,,,,,,0.51577,1,,,,,,186,WORD,"ID",33,portal,PORTAL,m,,,,,,0.026851865,-0.408333347,0,0,0,,0,365,365,5,1,
,,,,,,,,,,,,,,,,,,5e66c77e8ebdaf4466e26326,2020-11-27_15h05.23.399,lexical_decision_task_MP_exp2,2020.2.5,Win32,60,,z,1,0.548725,,,,,,,,0.548725,1,,,,,,449,NW,"ID",33,brunge,BRUNGE,z,,,,,,0.026851865,-0.408333347,0,0,0,,0,366,366,268,1,
,,,,,,,,,,,,,,,,,,5e66c77e8ebdaf4466e26326,2020-11-27_15h05.23.399,lexical_decision_task_MP_exp2,2020.2.5,Win32,60,,z,1,0.48746,,,,,,,,0.48746,1,,,,,,416,NW,UN,16,earoud,PATHEL,z,,,,,,0.026851865,-0.408333347,0,0,0,,0,367,367,475,1,
,,,,,,,,,,,,,,,,,,5e66c77e8ebdaf4466e26326,2020-11-27_15h05.23.399,lexical_decision_task_MP_exp2,2020.2.5,Win32,60,,z,1,0.48695,,,,,,,,0.48695,1,,,,,,378,NW,UN,16,auting,SHRILE,z,,,,,,0.026851865,-0.408333347,0,0,0,,0,368,368,437,1,
,,,,,,,,,,,,,,,,,,5e66c77e8ebdaf4466e26326,2020-11-27_15h05.23.399,lexical_decision_task_MP_exp2,2020.2.5,Win32,60,,z,1,0.490215,,,,,,,,0.490215,1,,,,,,245,NW,"ID",16,anougs,ANOUGS,z,,,,,,0.026851865,-0.408333347,0,0,0,,0,369,369,304,1,
,,,,,,,,,,,,,,,,,,5e66c77e8ebdaf4466e26326,2020-11-27_15h05.23.399,lexical_decision_task_MP_exp2,2020.2.5,Win32,60,,m,0,0.565385,,,,,,,,0.565385,0,,,,,,462,NW,"ID",33,absult,ABSULT,z,,,,,,0.026851865,-0.408333347,0,0,0,,0,370,370,281,1,
,,,,,,,,,,,,,,,,,,5e66c77e8ebdaf4466e26326,2020-11-27_15h05.23.399,lexical_decision_task_MP_exp2,2020.2.5,Win32,60,,z,1,0.5782,,,,,,,,0.5782,1,,,,,,444,NW,"ID",33,jaunce,JAUNCE,z,,,,,,0.026851865,-0.408333347,0,0,0,,0,371,371,263,1,
,,,,,,,,,,,,,,,,,,5e66c77e8ebdaf4466e26326,2020-11-27_15h05.23.399,lexical_decision_task_MP_exp2,2020.2.5,Win32,60,,z,1,0.538335,,,,,,,,0.538335,1,,,,,,447,NW,"ID",33,gircue,GIRCUE,z,,,,,,0.026851865,-0.408333347,0,0,0,,0,372,372,266,1,
,,,,,,,,,,,,,,,,,,5e66c77e8ebdaf4466e26326,2020-11-27_15h05.23.399,lexical_decision_task_MP_exp2,2020.2.5,Win32,60,,z,1,0.51448,,,,,,,,0.51448,1,,,,,,269,NW,"ID",16,orchet,ORCHET,z,,,,,,0.026851865,-0.408333347,0,0,0,,0,373,373,328,1,
,,,,,,,,,,,,,,,,,,5e66c77e8ebdaf4466e26326,2020-11-27_15h05.23.399,lexical_decision_task_MP_exp2,2020.2.5,Win32,60,,z,1,0.635475,,,,,,,,0.635475,1,,,,,,459,NW,"ID",33,bafent,BAFENT,z,,,,,,0.026851865,-0.408333347,0,0,0,,0,374,374,278,1,
,,,,,,,,,,,,,,,,,,5e66c77e8ebdaf4466e26326,2020-11-27_15h05.23.399,lexical_decision_task_MP_exp2,2020.2.5,Win32,60,,z,1,0.51429,,,,,,,,0.51429,1,,,,,,406,NW,UN,16,suiver,NOUPLY,z,,,,,,0.026851865,-0.408333347,0,0,0,,0,375,375,465,1,
,,,,,,,,,,,,,,,,,,5e66c77e8ebdaf4466e26326,2020-11-27_15h05.23.399,lexical_decision_task_MP_exp2,2020.2.5,Win32,60,,z,1,0.45525,,,,,,,,0.45525,1,,,,,,346,NW,UN,33,kerift,SAUDIC,z,,,,,,0.026851865,-0.408333347,0,0,0,,0,376,376,405,1,
,,,,,,,,,,,,,,,,,,5e66c77e8ebdaf4466e26326,2020-11-27_15h05.23.399,lexical_decision_task_MP_exp2,2020.2.5,Win32,60,,m,1,0.530445,,,,,,,,0.530445,1,,,,,,152,WORD,UN,16,behold,ROCKET,m,,,,,,0.026851865,-0.408333347,0,0,0,,0,377,377,211,1,
,,,,,,,,,,,,,,,,,,5e66c77e8ebdaf4466e26326,2020-11-27_15h05.23.399,lexical_decision_task_MP_exp2,2020.2.5,Win32,60,,z,1,0.548095,,,,,,,,0.548095,1,,,,,,296,NW,"ID",16,beinch,BEINCH,z,,,,,,0.026851865,-0.408333347,0,0,0,,0,378,378,355,1,
,,,,,,,,,,,,,,,,,,5e66c77e8ebdaf4466e26326,2020-11-27_15h05.23.399,lexical_decision_task_MP_exp2,2020.2.5,Win32,60,,z,1,0.53292,,,,,,,,0.53292,1,,,,,,369,NW,UN,16,sleact,WRONCH,z,,,,,,0.026851865,-0.408333347,0,0,0,,0,379,379,428,1,
,,,,,,,,,,,,,,,,,,5e66c77e8ebdaf4466e26326,2020-11-27_15h05.23.399,lexical_decision_task_MP_exp2,2020.2.5,Win32,60,,z,1,0.50083,,,,,,,,0.50083,1,,,,,,290,NW,"ID",16,splino,SPLINO,z,,,,,,0.026851865,-0.408333347,0,0,0,,0,380,380,349,1,
,,,,,,,,,,,,,,,,,,5e66c77e8ebdaf4466e26326,2020-11-27_15h05.23.399,lexical_decision_task_MP_exp2,2020.2.5,Win32,60,,z,1,0.569585,,,,,,,,0.569585,1,,,,,,436,NW,"ID",33,frutan,FRUTAN,z,,,,,,0.026851865,-0.408333347,0,0,0,,0,381,381,255,1,
,,,,,,,,,,,,,,,,,,5e66c77e8ebdaf4466e26326,2020-11-27_15h05.23.399,lexical_decision_task_MP_exp2,2020.2.5,Win32,60,,z,1,0.587055,,,,,,,,0.587055,1,,,,,,348,NW,UN,33,asylen,DUMPLE,z,,,,,,0.026851865,-0.408333347,0,0,0,,0,382,382,407,1,
,,,,,,,,,,,,,,,,,,5e66c77e8ebdaf4466e26326,2020-11-27_15h05.23.399,lexical_decision_task_MP_exp2,2020.2.5,Win32,60,,z,0,0.567725,,,,,,,,0.567725,0,,,,,,213,WORD,"ID",33,squeal,SQUEAL,m,,,,,,0.026851865,-0.408333347,0,0,0,,0,383,383,32,1,
,,,,,,,,,,,,,,,,,,5e66c77e8ebdaf4466e26326,2020-11-27_15h05.23.399,lexical_decision_task_MP_exp2,2020.2.5,Win32,60,,z,1,0.562985,,,,,,,,0.562985,1,,,,,,260,NW,"ID",16,unject,UNJECT,z,,,,,,0.026851865,-0.408333347,0,0,0,,0,384,384,319,1,
,,,,,,,,,,,,,,,,,,5e66c77e8ebdaf4466e26326,2020-11-27_15h05.23.399,lexical_decision_task_MP_exp2,2020.2.5,Win32,60,,m,1,0.485945,,,,,,,,0.485945,1,,,,,,28,WORD,"ID",16,comedy,COMEDY,m,,,,,,0.026851865,-0.408333347,0,0,0,,0,385,385,87,1,
,,,,,,,,,,,,,,,,,,5e66c77e8ebdaf4466e26326,2020-11-27_15h05.23.399,lexical_decision_task_MP_exp2,2020.2.5,Win32,60,,m,1,0.50702,,,,,,,,0.50702,1,,,,,,203,WORD,"ID",33,phrase,PHRASE,m,,,,,,0.026851865,-0.408333347,0,0,0,,0,386,386,22,1,
,,,,,,,,,,,,,,,,,,5e66c77e8ebdaf4466e26326,2020-11-27_15h05.23.399,lexical_decision_task_MP_exp2,2020.2.5,Win32,60,,m,0,0.761775,,,,,,,,0.761775,0,,,,,,314,NW,UN,33,laston,SPRINE,z,,,,,,0.026851865,-0.408333347,0,0,0,,0,387,387,373,1,
,,,,,,,,,,,,,,,,,,5e66c77e8ebdaf4466e26326,2020-11-27_15h05.23.399,lexical_decision_task_MP_exp2,2020.2.5,Win32,60,,z,1,0.498755,,,,,,,,0.498755,1,,,,,,350,NW,UN,33,tiesch,NAGURS,z,,,,,,0.026851865,-0.408333347,0,0,0,,0,388,388,409,1,
,,,,,,,,,,,,,,,,,,5e66c77e8ebdaf4466e26326,2020-11-27_15h05.23.399,lexical_decision_task_MP_exp2,2020.2.5,Win32,60,,z,1,0.534565,,,,,,,,0.534565,1,,,,,,400,NW,UN,16,mustil,WEAROX,z,,,,,,0.026851865,-0.408333347,0,0,0,,0,389,389,459,1,
,,,,,,,,,,,,,,,,,,5e66c77e8ebdaf4466e26326,2020-11-27_15h05.23.399,lexical_decision_task_MP_exp2,2020.2.5,Win32,60,,z,0,0.544675,,,,,,,,0.544675,0,,,,,,134,WORD,UN,16,import,STAPLE,m,,,,,,0.026851865,-0.408333347,0,0,0,,0,390,390,193,1,
,,,,,,,,,,,,,,,,,,5e66c77e8ebdaf4466e26326,2020-11-27_15h05.23.399,lexical_decision_task_MP_exp2,2020.2.5,Win32,60,,z,1,0.763755,,,,,,,,0.763755,1,,,,,,313,NW,UN,33,sprine,PAURSE,z,,,,,,0.026851865,-0.408333347,0,0,0,,0,391,391,372,1,
,,,,,,,,,,,,,,,,,,5e66c77e8ebdaf4466e26326,2020-11-27_15h05.23.399,lexical_decision_task_MP_exp2,2020.2.5,Win32,60,,z,1,0.603915,,,,,,,,0.603915,1,,,,,,249,NW,"ID",16,batrol,BATROL,z,,,,,,0.026851865,-0.408333347,0,0,0,,0,392,392,308,1,
