counterbalancing_condition,instr_done_keyboard.keys,instr_done_keyboard.rt,instr_done_touch.x,instr_done_touch.y,instr_done_touch.leftButton,instr_done_touch.midButton,instr_done_touch.rightButton,instruction_pages.thisRepN,instruction_pages.thisTrialN,instruction_pages.thisN,instruction_pages.thisIndex,instruction_pages.ran,pageN,phase,instruct_text,has_image,instruct_image,participant,date,expName,psychopyVersion,OS,frameRate,response.keys,response.corr,response.rt,touch_resp.x,touch_resp.y,touch_resp.leftButton,touch_resp.midButton,touch_resp.rightButton,touch_resp.time,touch_resp.clicked_name,rt,corr,practice_trials.thisRepN,practice_trials.thisTrialN,practice_trials.thisN,practice_trials.thisIndex,practice_trials.ran,TrialID,StimulusType,Condition,PrimeDuration,Prime,Target,corrAns,end_of_practice_trials_pages.thisRepN,end_of_practice_trials_pages.thisTrialN,end_of_practice_trials_pages.thisN,end_of_practice_trials_pages.thisIndex,end_of_practice_trials_pages.ran,break_done_touch.x,break_done_touch.y,break_done_touch.leftButton,break_done_touch.midButton,break_done_touch.rightButton,break_done_keyboard.keys,experiment_trials.thisRepN,experiment_trials.thisTrialN,experiment_trials.thisN,experiment_trials.thisIndex,experiment_trials.ran,break_done_keyboard.rt
1,space,13.936195,0.52962963,-0.209259259,0,0,0,0,0,0,0,1,1,instructions,"INSTRUCTIONS
At the start of each trial, look at the hash marks (######) in the center of the screen. After a moment, a string of letters will appear. Your task is to indicate if the letter string forms a word or not (i.e., if it is a nonword). For example, AUTHOR is a word while AUTHON is a nonword.

Press the space bar or touch the button below to continue.",0,,5e8421d0df483e18852ff25e,2020-11-27_09h04.08.236,lexical_decision_task_MP_exp2,2020.2.5,Win32,60,,,,,,,,,,,,,,,,,,,,,,,,,,,,,,,,,,,,,,,,,
,space,13.40083,0.787037037,-0.136111111,0,0,0,0,1,1,1,1,2,instructions,"If your device has a keyboard, press the 'Z' key for nonwords and the 'M' key for words.





Press the space bar or touch the button below to continue.",1,keyboard-example.gif,5e8421d0df483e18852ff25e,2020-11-27_09h04.08.236,lexical_decision_task_MP_exp2,2020.2.5,Win32,60,,,,,,,,,,,,,,,,,,,,,,,,,,,,,,,,,,,,,,,,,
,space,4.064185,0.787037037,-0.136111111,0,0,0,0,2,2,2,1,3,instructions,"If you are using a touchscreen only device, use the buttons on the screen. Do not use the mouse.





Press the space bar or touch the button below to continue.",1,touchscreen-example.gif,5e8421d0df483e18852ff25e,2020-11-27_09h04.08.236,lexical_decision_task_MP_exp2,2020.2.5,Win32,60,,,,,,,,,,,,,,,,,,,,,,,,,,,,,,,,,,,,,,,,,
,space,9.634275,0.787037037,-0.136111111,0,0,0,0,3,3,3,1,4,instructions,"It is very important that you respond as quickly and accurately as possible, as each letter string will only be on the screen for two seconds. If you do not respond within this time, the message 'Too slow!' will be displayed and the experiment will progress to the next letter string. The first 20 trials will be practice trials and you will receive feedback on your answers. 

Press the space bar or touch the button below to start the practice trials.",0,,5e8421d0df483e18852ff25e,2020-11-27_09h04.08.236,lexical_decision_task_MP_exp2,2020.2.5,Win32,60,,,,,,,,,,,,,,,,,,,,,,,,,,,,,,,,,,,,,,,,,
,,,,,,,,,,,,,,,,,,5e8421d0df483e18852ff25e,2020-11-27_09h04.08.236,lexical_decision_task_MP_exp2,2020.2.5,Win32,60,m,1,0.792835,,,,,,,,0.792835,1,0,0,0,7,1,1008,WORD,UN,16,hurdle,VOLUME,m,,,,,,,,,,,,,,,,,
,,,,,,,,,,,,,,,,,,5e8421d0df483e18852ff25e,2020-11-27_09h04.08.236,lexical_decision_task_MP_exp2,2020.2.5,Win32,60,m,1,0.66498,,,,,,,,0.66498,1,0,1,1,1,1,1002,WORD,"ID",33,adjust,ADJUST,m,,,,,,,,,,,,,,,,,
,,,,,,,,,,,,,,,,,,5e8421d0df483e18852ff25e,2020-11-27_09h04.08.236,lexical_decision_task_MP_exp2,2020.2.5,Win32,60,z,1,0.68399,,,,,,,,0.68399,1,0,2,2,8,1,1009,NW,"ID",33,aslert,ASLERT,z,,,,,,,,,,,,,,,,,
,,,,,,,,,,,,,,,,,,5e8421d0df483e18852ff25e,2020-11-27_09h04.08.236,lexical_decision_task_MP_exp2,2020.2.5,Win32,60,z,1,0.81413,,,,,,,,0.81413,1,0,3,3,13,1,1014,NW,UN,33,winfer,ROUPET,z,,,,,,,,,,,,,,,,,
,,,,,,,,,,,,,,,,,,5e8421d0df483e18852ff25e,2020-11-27_09h04.08.236,lexical_decision_task_MP_exp2,2020.2.5,Win32,60,z,1,0.77777,,,,,,,,0.77777,1,0,4,4,9,1,1010,NW,"ID",33,fariny,FARINY,z,,,,,,,,,,,,,,,,,
,,,,,,,,,,,,,,,,,,5e8421d0df483e18852ff25e,2020-11-27_09h04.08.236,lexical_decision_task_MP_exp2,2020.2.5,Win32,60,m,1,0.60211,,,,,,,,0.60211,1,0,5,5,0,1,1001,WORD,"ID",33,utopia,UTOPIA,m,,,,,,,,,,,,,,,,,
,,,,,,,,,,,,,,,,,,5e8421d0df483e18852ff25e,2020-11-27_09h04.08.236,lexical_decision_task_MP_exp2,2020.2.5,Win32,60,z,1,0.667775,,,,,,,,0.667775,1,0,6,6,15,1,1016,NW,UN,16,mushed,WHAISE,z,,,,,,,,,,,,,,,,,
,,,,,,,,,,,,,,,,,,5e8421d0df483e18852ff25e,2020-11-27_09h04.08.236,lexical_decision_task_MP_exp2,2020.2.5,Win32,60,m,1,0.60161,,,,,,,,0.60161,1,0,7,7,6,1,1007,WORD,UN,16,tropic,ZOMBIE,m,,,,,,,,,,,,,,,,,
,,,,,,,,,,,,,,,,,,5e8421d0df483e18852ff25e,2020-11-27_09h04.08.236,lexical_decision_task_MP_exp2,2020.2.5,Win32,60,z,1,0.673095,,,,,,,,0.673095,1,0,8,8,12,1,1013,NW,UN,33,adveil,SPRINY,z,,,,,,,,,,,,,,,,,
,,,,,,,,,,,,,,,,,,5e8421d0df483e18852ff25e,2020-11-27_09h04.08.236,lexical_decision_task_MP_exp2,2020.2.5,Win32,60,z,1,0.723045,,,,,,,,0.723045,1,0,9,9,14,1,1015,NW,UN,16,miaber,THRALE,z,,,,,,,,,,,,,,,,,
,,,,,,,,,,,,,,,,,,5e8421d0df483e18852ff25e,2020-11-27_09h04.08.236,lexical_decision_task_MP_exp2,2020.2.5,Win32,60,m,1,0.56607,,,,,,,,0.56607,1,0,10,10,4,1,1005,WORD,UN,33,abound,SQUEAK,m,,,,,,,,,,,,,,,,,
,,,,,,,,,,,,,,,,,,5e8421d0df483e18852ff25e,2020-11-27_09h04.08.236,lexical_decision_task_MP_exp2,2020.2.5,Win32,60,z,1,0.667245,,,,,,,,0.667245,1,0,11,11,11,1,1012,NW,"ID",16,rashet,RASHET,z,,,,,,,,,,,,,,,,,
,,,,,,,,,,,,,,,,,,5e8421d0df483e18852ff25e,2020-11-27_09h04.08.236,lexical_decision_task_MP_exp2,2020.2.5,Win32,60,m,1,0.58474,,,,,,,,0.58474,1,0,12,12,2,1,1003,WORD,"ID",16,almond,ALMOND,m,,,,,,,,,,,,,,,,,
,,,,,,,,,,,,,,,,,,5e8421d0df483e18852ff25e,2020-11-27_09h04.08.236,lexical_decision_task_MP_exp2,2020.2.5,Win32,60,m,1,0.664805,,,,,,,,0.664805,1,0,13,13,5,1,1006,WORD,UN,33,frenzy,OBTAIN,m,,,,,,,,,,,,,,,,,
,,,,,,,,,,,,,,,,,,5e8421d0df483e18852ff25e,2020-11-27_09h04.08.236,lexical_decision_task_MP_exp2,2020.2.5,Win32,60,m,1,0.698305,,,,,,,,0.698305,1,0,14,14,3,1,1004,WORD,"ID",16,matrix,MATRIX,m,,,,,,,,,,,,,,,,,
,,,,,,,,,,,,,,,,,,5e8421d0df483e18852ff25e,2020-11-27_09h04.08.236,lexical_decision_task_MP_exp2,2020.2.5,Win32,60,z,1,0.7249,,,,,,,,0.7249,1,0,15,15,10,1,1011,NW,"ID",16,inlade,INLADE,z,,,,,,,,,,,,,,,,,
,space,15.65952,0.787037037,-0.136111111,0,0,0,,,,,,1,end_of_practice,"You have completed the practice trials. During the experimental trials, you will not receive feedback, but it is very important that you respond as quickly and accurately as possible. 
Before you begin, please ensure that you are in a comfortable and quiet location and will not be disturbed for about 15 minutes, as we cannot use your data if you do not complete all the trials. 
There will be opportunities to take breaks at regular intervals during the experiment. When you are ready to start the experimental trials, please press space or touch the button below.",,,5e8421d0df483e18852ff25e,2020-11-27_09h04.08.236,lexical_decision_task_MP_exp2,2020.2.5,Win32,60,,,,,,,,,,,,,,,,,,,,,,,,,0,0,0,0,1,,,,,,,,,,,,
,,,,,,,,,,,,,,,,,,5e8421d0df483e18852ff25e,2020-11-27_09h04.08.236,lexical_decision_task_MP_exp2,2020.2.5,Win32,60,m,1,0.70453,,,,,,,,0.70453,1,,,,,,205,WORD,UN,16,tailor,LOUNGE,m,,,,,,0.787037037,-0.136111111,0,0,0,,0,0,0,204,1,
,,,,,,,,,,,,,,,,,,5e8421d0df483e18852ff25e,2020-11-27_09h04.08.236,lexical_decision_task_MP_exp2,2020.2.5,Win32,60,m,1,0.652555,,,,,,,,0.652555,1,,,,,,85,WORD,"ID",16,sprawl,SPRAWL,m,,,,,,0.787037037,-0.136111111,0,0,0,,0,1,1,84,1,
,,,,,,,,,,,,,,,,,,5e8421d0df483e18852ff25e,2020-11-27_09h04.08.236,lexical_decision_task_MP_exp2,2020.2.5,Win32,60,z,1,0.741065,,,,,,,,0.741065,1,,,,,,332,NW,"ID",16,vangue,VANGUE,z,,,,,,0.787037037,-0.136111111,0,0,0,,0,2,2,331,1,
,,,,,,,,,,,,,,,,,,5e8421d0df483e18852ff25e,2020-11-27_09h04.08.236,lexical_decision_task_MP_exp2,2020.2.5,Win32,60,z,1,0.608085,,,,,,,,0.608085,1,,,,,,288,NW,"ID",33,yaceup,YACEUP,z,,,,,,0.787037037,-0.136111111,0,0,0,,0,3,3,287,1,
,,,,,,,,,,,,,,,,,,5e8421d0df483e18852ff25e,2020-11-27_09h04.08.236,lexical_decision_task_MP_exp2,2020.2.5,Win32,60,z,1,0.619365,,,,,,,,0.619365,1,,,,,,408,NW,UN,33,flumni,HURNIA,z,,,,,,0.787037037,-0.136111111,0,0,0,,0,4,4,407,1,
,,,,,,,,,,,,,,,,,,5e8421d0df483e18852ff25e,2020-11-27_09h04.08.236,lexical_decision_task_MP_exp2,2020.2.5,Win32,60,z,1,0.708025,,,,,,,,0.708025,1,,,,,,334,NW,"ID",16,watmeg,WATMEG,z,,,,,,0.787037037,-0.136111111,0,0,0,,0,5,5,333,1,
,,,,,,,,,,,,,,,,,,5e8421d0df483e18852ff25e,2020-11-27_09h04.08.236,lexical_decision_task_MP_exp2,2020.2.5,Win32,60,z,1,0.70586,,,,,,,,0.70586,1,,,,,,244,NW,"ID",33,eatric,EATRIC,z,,,,,,0.787037037,-0.136111111,0,0,0,,0,6,6,243,1,
,,,,,,,,,,,,,,,,,,5e8421d0df483e18852ff25e,2020-11-27_09h04.08.236,lexical_decision_task_MP_exp2,2020.2.5,Win32,60,m,1,0.66403,,,,,,,,0.66403,1,,,,,,172,WORD,UN,33,shower,PATROL,m,,,,,,0.787037037,-0.136111111,0,0,0,,0,7,7,171,1,
,,,,,,,,,,,,,,,,,,5e8421d0df483e18852ff25e,2020-11-27_09h04.08.236,lexical_decision_task_MP_exp2,2020.2.5,Win32,60,m,1,0.854015,,,,,,,,0.854015,1,,,,,,134,WORD,UN,33,import,STAPLE,m,,,,,,0.787037037,-0.136111111,0,0,0,,0,8,8,133,1,
,,,,,,,,,,,,,,,,,,5e8421d0df483e18852ff25e,2020-11-27_09h04.08.236,lexical_decision_task_MP_exp2,2020.2.5,Win32,60,m,1,0.51729,,,,,,,,0.51729,1,,,,,,21,WORD,"ID",33,simple,SIMPLE,m,,,,,,0.787037037,-0.136111111,0,0,0,,0,9,9,20,1,
,,,,,,,,,,,,,,,,,,5e8421d0df483e18852ff25e,2020-11-27_09h04.08.236,lexical_decision_task_MP_exp2,2020.2.5,Win32,60,m,1,0.54599,,,,,,,,0.54599,1,,,,,,123,WORD,UN,33,enough,STRIKE,m,,,,,,0.787037037,-0.136111111,0,0,0,,0,10,10,122,1,
,,,,,,,,,,,,,,,,,,5e8421d0df483e18852ff25e,2020-11-27_09h04.08.236,lexical_decision_task_MP_exp2,2020.2.5,Win32,60,m,1,0.48623,,,,,,,,0.48623,1,,,,,,44,WORD,"ID",33,danger,DANGER,m,,,,,,0.787037037,-0.136111111,0,0,0,,0,11,11,43,1,
,,,,,,,,,,,,,,,,,,5e8421d0df483e18852ff25e,2020-11-27_09h04.08.236,lexical_decision_task_MP_exp2,2020.2.5,Win32,60,z,1,0.92086,,,,,,,,0.92086,1,,,,,,345,NW,"ID",16,absend,ABSEND,z,,,,,,0.787037037,-0.136111111,0,0,0,,0,12,12,344,1,
,,,,,,,,,,,,,,,,,,5e8421d0df483e18852ff25e,2020-11-27_09h04.08.236,lexical_decision_task_MP_exp2,2020.2.5,Win32,60,z,1,0.83339,,,,,,,,0.83339,1,,,,,,277,NW,"ID",33,petain,PETAIN,z,,,,,,0.787037037,-0.136111111,0,0,0,,0,13,13,276,1,
,,,,,,,,,,,,,,,,,,5e8421d0df483e18852ff25e,2020-11-27_09h04.08.236,lexical_decision_task_MP_exp2,2020.2.5,Win32,60,m,1,1.0169,,,,,,,,1.0169,1,,,,,,33,WORD,"ID",33,butler,BUTLER,m,,,,,,0.787037037,-0.136111111,0,0,0,,0,14,14,32,1,
,,,,,,,,,,,,,,,,,,5e8421d0df483e18852ff25e,2020-11-27_09h04.08.236,lexical_decision_task_MP_exp2,2020.2.5,Win32,60,z,1,0.67524,,,,,,,,0.67524,1,,,,,,389,NW,UN,33,hatrus,WITMER,z,,,,,,0.787037037,-0.136111111,0,0,0,,0,15,15,388,1,
,,,,,,,,,,,,,,,,,,5e8421d0df483e18852ff25e,2020-11-27_09h04.08.236,lexical_decision_task_MP_exp2,2020.2.5,Win32,60,m,1,0.75975,,,,,,,,0.75975,1,,,,,,106,WORD,"ID",16,ransom,RANSOM,m,,,,,,0.787037037,-0.136111111,0,0,0,,0,16,16,105,1,
,,,,,,,,,,,,,,,,,,5e8421d0df483e18852ff25e,2020-11-27_09h04.08.236,lexical_decision_task_MP_exp2,2020.2.5,Win32,60,m,1,0.818605,,,,,,,,0.818605,1,,,,,,207,WORD,UN,16,hockey,WREATH,m,,,,,,0.787037037,-0.136111111,0,0,0,,0,17,17,206,1,
,,,,,,,,,,,,,,,,,,5e8421d0df483e18852ff25e,2020-11-27_09h04.08.236,lexical_decision_task_MP_exp2,2020.2.5,Win32,60,z,1,0.701745,,,,,,,,0.701745,1,,,,,,367,NW,UN,33,hornal,SLIQUE,z,,,,,,0.787037037,-0.136111111,0,0,0,,0,18,18,366,1,
,,,,,,,,,,,,,,,,,,5e8421d0df483e18852ff25e,2020-11-27_09h04.08.236,lexical_decision_task_MP_exp2,2020.2.5,Win32,60,z,1,0.586815,,,,,,,,0.586815,1,,,,,,264,NW,"ID",33,vackel,VACKEL,z,,,,,,0.787037037,-0.136111111,0,0,0,,0,19,19,263,1,
,,,,,,,,,,,,,,,,,,5e8421d0df483e18852ff25e,2020-11-27_09h04.08.236,lexical_decision_task_MP_exp2,2020.2.5,Win32,60,m,1,0.556955,,,,,,,,0.556955,1,,,,,,202,WORD,UN,16,phrase,FACTOR,m,,,,,,0.787037037,-0.136111111,0,0,0,,0,20,20,201,1,
,,,,,,,,,,,,,,,,,,5e8421d0df483e18852ff25e,2020-11-27_09h04.08.236,lexical_decision_task_MP_exp2,2020.2.5,Win32,60,z,1,0.83284,,,,,,,,0.83284,1,,,,,,442,NW,UN,16,dorsex,ABOUNE,z,,,,,,0.787037037,-0.136111111,0,0,0,,0,21,21,441,1,
,,,,,,,,,,,,,,,,,,5e8421d0df483e18852ff25e,2020-11-27_09h04.08.236,lexical_decision_task_MP_exp2,2020.2.5,Win32,60,z,1,0.85781,,,,,,,,0.85781,1,,,,,,294,NW,"ID",33,inhort,INHORT,z,,,,,,0.787037037,-0.136111111,0,0,0,,0,22,22,293,1,
,,,,,,,,,,,,,,,,,,5e8421d0df483e18852ff25e,2020-11-27_09h04.08.236,lexical_decision_task_MP_exp2,2020.2.5,Win32,60,m,1,0.520795,,,,,,,,0.520795,1,,,,,,232,WORD,UN,16,nature,INJECT,m,,,,,,0.787037037,-0.136111111,0,0,0,,0,23,23,231,1,
,,,,,,,,,,,,,,,,,,5e8421d0df483e18852ff25e,2020-11-27_09h04.08.236,lexical_decision_task_MP_exp2,2020.2.5,Win32,60,m,1,0.76718,,,,,,,,0.76718,1,,,,,,42,WORD,"ID",33,chapel,CHAPEL,m,,,,,,0.787037037,-0.136111111,0,0,0,,0,24,24,41,1,
,,,,,,,,,,,,,,,,,,5e8421d0df483e18852ff25e,2020-11-27_09h04.08.236,lexical_decision_task_MP_exp2,2020.2.5,Win32,60,m,1,0.56117,,,,,,,,0.56117,1,,,,,,171,WORD,UN,33,patrol,DEPART,m,,,,,,0.787037037,-0.136111111,0,0,0,,0,25,25,170,1,
,,,,,,,,,,,,,,,,,,5e8421d0df483e18852ff25e,2020-11-27_09h04.08.236,lexical_decision_task_MP_exp2,2020.2.5,Win32,60,z,1,0.563665,,,,,,,,0.563665,1,,,,,,375,NW,UN,33,iguare,YORQUE,z,,,,,,0.787037037,-0.136111111,0,0,0,,0,26,26,374,1,
,,,,,,,,,,,,,,,,,,5e8421d0df483e18852ff25e,2020-11-27_09h04.08.236,lexical_decision_task_MP_exp2,2020.2.5,Win32,60,m,1,0.53474,,,,,,,,0.53474,1,,,,,,152,WORD,UN,33,behold,ROCKET,m,,,,,,0.787037037,-0.136111111,0,0,0,,0,27,27,151,1,
,,,,,,,,,,,,,,,,,,5e8421d0df483e18852ff25e,2020-11-27_09h04.08.236,lexical_decision_task_MP_exp2,2020.2.5,Win32,60,m,1,0.54705,,,,,,,,0.54705,1,,,,,,48,WORD,"ID",33,walnut,WALNUT,m,,,,,,0.787037037,-0.136111111,0,0,0,,0,28,28,47,1,
,,,,,,,,,,,,,,,,,,5e8421d0df483e18852ff25e,2020-11-27_09h04.08.236,lexical_decision_task_MP_exp2,2020.2.5,Win32,60,z,1,0.60653,,,,,,,,0.60653,1,,,,,,279,NW,"ID",33,celond,CELOND,z,,,,,,0.787037037,-0.136111111,0,0,0,,0,29,29,278,1,
,,,,,,,,,,,,,,,,,,5e8421d0df483e18852ff25e,2020-11-27_09h04.08.236,lexical_decision_task_MP_exp2,2020.2.5,Win32,60,z,1,0.59077,,,,,,,,0.59077,1,,,,,,474,NW,UN,16,gorbie,HABLIN,z,,,,,,0.787037037,-0.136111111,0,0,0,,0,30,30,473,1,
,,,,,,,,,,,,,,,,,,5e8421d0df483e18852ff25e,2020-11-27_09h04.08.236,lexical_decision_task_MP_exp2,2020.2.5,Win32,60,m,1,0.514615,,,,,,,,0.514615,1,,,,,,35,WORD,"ID",33,socket,SOCKET,m,,,,,,0.787037037,-0.136111111,0,0,0,,0,31,31,34,1,
,,,,,,,,,,,,,,,,,,5e8421d0df483e18852ff25e,2020-11-27_09h04.08.236,lexical_decision_task_MP_exp2,2020.2.5,Win32,60,z,1,0.936205,,,,,,,,0.936205,1,,,,,,281,NW,"ID",33,melaty,MELATY,z,,,,,,0.787037037,-0.136111111,0,0,0,,0,32,32,280,1,
,,,,,,,,,,,,,,,,,,5e8421d0df483e18852ff25e,2020-11-27_09h04.08.236,lexical_decision_task_MP_exp2,2020.2.5,Win32,60,z,1,0.650665,,,,,,,,0.650665,1,,,,,,292,NW,"ID",33,ablint,ABLINT,z,,,,,,0.787037037,-0.136111111,0,0,0,,0,33,33,291,1,
,,,,,,,,,,,,,,,,,,5e8421d0df483e18852ff25e,2020-11-27_09h04.08.236,lexical_decision_task_MP_exp2,2020.2.5,Win32,60,m,1,0.5455,,,,,,,,0.5455,1,,,,,,73,WORD,"ID",16,source,SOURCE,m,,,,,,0.787037037,-0.136111111,0,0,0,,0,34,34,72,1,
,,,,,,,,,,,,,,,,,,5e8421d0df483e18852ff25e,2020-11-27_09h04.08.236,lexical_decision_task_MP_exp2,2020.2.5,Win32,60,m,1,0.630375,,,,,,,,0.630375,1,,,,,,128,WORD,UN,33,marvel,SENIOR,m,,,,,,0.787037037,-0.136111111,0,0,0,,0,35,35,127,1,
,,,,,,,,,,,,,,,,,,5e8421d0df483e18852ff25e,2020-11-27_09h04.08.236,lexical_decision_task_MP_exp2,2020.2.5,Win32,60,m,1,0.462435,,,,,,,,0.462435,1,,,,,,155,WORD,UN,33,cradle,LIZARD,m,,,,,,0.787037037,-0.136111111,0,0,0,,0,36,36,154,1,
,,,,,,,,,,,,,,,,,,5e8421d0df483e18852ff25e,2020-11-27_09h04.08.236,lexical_decision_task_MP_exp2,2020.2.5,Win32,60,z,1,0.564105,,,,,,,,0.564105,1,,,,,,456,NW,UN,16,wanigh,BROGET,z,,,,,,0.787037037,-0.136111111,0,0,0,,0,37,37,455,1,
,,,,,,,,,,,,,,,,,,5e8421d0df483e18852ff25e,2020-11-27_09h04.08.236,lexical_decision_task_MP_exp2,2020.2.5,Win32,60,z,1,0.55114,,,,,,,,0.55114,1,,,,,,330,NW,"ID",16,kensom,KENSOM,z,,,,,,0.787037037,-0.136111111,0,0,0,,0,38,38,329,1,
,,,,,,,,,,,,,,,,,,5e8421d0df483e18852ff25e,2020-11-27_09h04.08.236,lexical_decision_task_MP_exp2,2020.2.5,Win32,60,z,1,0.499755,,,,,,,,0.499755,1,,,,,,274,NW,"ID",33,fumblo,FUMBLO,z,,,,,,0.787037037,-0.136111111,0,0,0,,0,39,39,273,1,
,,,,,,,,,,,,,,,,,,5e8421d0df483e18852ff25e,2020-11-27_09h04.08.236,lexical_decision_task_MP_exp2,2020.2.5,Win32,60,m,1,0.57726,,,,,,,,0.57726,1,,,,,,180,WORD,UN,33,thrive,SILENT,m,,,,,,0.787037037,-0.136111111,0,0,0,,0,40,40,179,1,
,,,,,,,,,,,,,,,,,,5e8421d0df483e18852ff25e,2020-11-27_09h04.08.236,lexical_decision_task_MP_exp2,2020.2.5,Win32,60,m,1,0.48354,,,,,,,,0.48354,1,,,,,,80,WORD,"ID",16,family,FAMILY,m,,,,,,0.787037037,-0.136111111,0,0,0,,0,41,41,79,1,
,,,,,,,,,,,,,,,,,,5e8421d0df483e18852ff25e,2020-11-27_09h04.08.236,lexical_decision_task_MP_exp2,2020.2.5,Win32,60,z,1,0.65957,,,,,,,,0.65957,1,,,,,,428,NW,UN,16,chrums,TANDLY,z,,,,,,0.787037037,-0.136111111,0,0,0,,0,42,42,427,1,
,,,,,,,,,,,,,,,,,,5e8421d0df483e18852ff25e,2020-11-27_09h04.08.236,lexical_decision_task_MP_exp2,2020.2.5,Win32,60,m,1,0.55397,,,,,,,,0.55397,1,,,,,,201,WORD,UN,16,factor,ADMIRE,m,,,,,,0.787037037,-0.136111111,0,0,0,,0,43,43,200,1,
,,,,,,,,,,,,,,,,,,5e8421d0df483e18852ff25e,2020-11-27_09h04.08.236,lexical_decision_task_MP_exp2,2020.2.5,Win32,60,m,1,0.51797,,,,,,,,0.51797,1,,,,,,210,WORD,UN,16,infect,MONKEY,m,,,,,,0.787037037,-0.136111111,0,0,0,,0,44,44,209,1,
,,,,,,,,,,,,,,,,,,5e8421d0df483e18852ff25e,2020-11-27_09h04.08.236,lexical_decision_task_MP_exp2,2020.2.5,Win32,60,z,1,0.63506,,,,,,,,0.63506,1,,,,,,427,NW,UN,16,tandly,SCHIND,z,,,,,,0.787037037,-0.136111111,0,0,0,,0,45,45,426,1,
,,,,,,,,,,,,,,,,,,5e8421d0df483e18852ff25e,2020-11-27_09h04.08.236,lexical_decision_task_MP_exp2,2020.2.5,Win32,60,m,1,0.539485,,,,,,,,0.539485,1,,,,,,215,WORD,UN,16,behalf,PHOBIA,m,,,,,,0.787037037,-0.136111111,0,0,0,,0,46,46,214,1,
,,,,,,,,,,,,,,,,,,5e8421d0df483e18852ff25e,2020-11-27_09h04.08.236,lexical_decision_task_MP_exp2,2020.2.5,Win32,60,m,1,0.46595,,,,,,,,0.46595,1,,,,,,55,WORD,"ID",33,stroke,STROKE,m,,,,,,0.787037037,-0.136111111,0,0,0,,0,47,47,54,1,
,,,,,,,,,,,,,,,,,,5e8421d0df483e18852ff25e,2020-11-27_09h04.08.236,lexical_decision_task_MP_exp2,2020.2.5,Win32,60,z,1,1.24836,,,,,,,,1.24836,1,,,,,,393,NW,UN,33,spaqux,GANOUS,z,,,,,,0.787037037,-0.136111111,0,0,0,,0,48,48,392,1,
,,,,,,,,,,,,,,,,,,5e8421d0df483e18852ff25e,2020-11-27_09h04.08.236,lexical_decision_task_MP_exp2,2020.2.5,Win32,60,m,1,0.59962,,,,,,,,0.59962,1,,,,,,230,WORD,UN,16,export,FRINGE,m,,,,,,0.787037037,-0.136111111,0,0,0,,0,49,49,229,1,
,,,,,,,,,,,,,,,,,,5e8421d0df483e18852ff25e,2020-11-27_09h04.08.236,lexical_decision_task_MP_exp2,2020.2.5,Win32,60,z,1,0.72959,,,,,,,,0.72959,1,,,,,,403,NW,UN,33,cluirm,BRUATS,z,,,,,,0.787037037,-0.136111111,0,0,0,,0,50,50,402,1,
,,,,,,,,,,,,,,,,,,5e8421d0df483e18852ff25e,2020-11-27_09h04.08.236,lexical_decision_task_MP_exp2,2020.2.5,Win32,60,m,1,0.597535,,,,,,,,0.597535,1,,,,,,112,WORD,"ID",16,breath,BREATH,m,,,,,,0.787037037,-0.136111111,0,0,0,,0,51,51,111,1,
,,,,,,,,,,,,,,,,,,5e8421d0df483e18852ff25e,2020-11-27_09h04.08.236,lexical_decision_task_MP_exp2,2020.2.5,Win32,60,z,1,0.79808,,,,,,,,0.79808,1,,,,,,331,NW,"ID",16,gilfew,GILFEW,z,,,,,,0.787037037,-0.136111111,0,0,0,,0,52,52,330,1,
,,,,,,,,,,,,,,,,,,5e8421d0df483e18852ff25e,2020-11-27_09h04.08.236,lexical_decision_task_MP_exp2,2020.2.5,Win32,60,m,1,0.656355,,,,,,,,0.656355,1,,,,,,212,WORD,UN,16,squeal,VERIFY,m,,,,,,0.787037037,-0.136111111,0,0,0,,0,53,53,211,1,
,,,,,,,,,,,,,,,,,,5e8421d0df483e18852ff25e,2020-11-27_09h04.08.236,lexical_decision_task_MP_exp2,2020.2.5,Win32,60,m,1,0.52144,,,,,,,,0.52144,1,,,,,,5,WORD,"ID",33,plunge,PLUNGE,m,,,,,,0.787037037,-0.136111111,0,0,0,,0,54,54,4,1,
,,,,,,,,,,,,,,,,,,5e8421d0df483e18852ff25e,2020-11-27_09h04.08.236,lexical_decision_task_MP_exp2,2020.2.5,Win32,60,z,1,0.59854,,,,,,,,0.59854,1,,,,,,373,NW,UN,33,injore,BIGENT,z,,,,,,0.787037037,-0.136111111,0,0,0,,0,55,55,372,1,
,,,,,,,,,,,,,,,,,,5e8421d0df483e18852ff25e,2020-11-27_09h04.08.236,lexical_decision_task_MP_exp2,2020.2.5,Win32,60,m,1,0.55931,,,,,,,,0.55931,1,,,,,,58,WORD,"ID",33,foster,FOSTER,m,,,,,,0.787037037,-0.136111111,0,0,0,,0,56,56,57,1,
,,,,,,,,,,,,,,,,,,5e8421d0df483e18852ff25e,2020-11-27_09h04.08.236,lexical_decision_task_MP_exp2,2020.2.5,Win32,60,z,1,0.737955,,,,,,,,0.737955,1,,,,,,307,NW,"ID",16,kirafe,KIRAFE,z,,,,,,0.787037037,-0.136111111,0,0,0,,0,57,57,306,1,
,,,,,,,,,,,,,,,,,,5e8421d0df483e18852ff25e,2020-11-27_09h04.08.236,lexical_decision_task_MP_exp2,2020.2.5,Win32,60,z,1,0.62289,,,,,,,,0.62289,1,,,,,,385,NW,UN,33,ancust,VEIGMA,z,,,,,,0.787037037,-0.136111111,0,0,0,,0,58,58,384,1,
,,,,,,,,,,,,,,,,,,5e8421d0df483e18852ff25e,2020-11-27_09h04.08.236,lexical_decision_task_MP_exp2,2020.2.5,Win32,60,z,1,0.63218,,,,,,,,0.63218,1,,,,,,249,NW,"ID",33,batrol,BATROL,z,,,,,,0.787037037,-0.136111111,0,0,0,,0,59,59,248,1,
,,,,,,,,,,,,,,,,,,5e8421d0df483e18852ff25e,2020-11-27_09h04.08.236,lexical_decision_task_MP_exp2,2020.2.5,Win32,60,z,1,0.60962,,,,,,,,0.60962,1,,,,,,290,NW,"ID",33,splino,SPLINO,z,,,,,,0.787037037,-0.136111111,0,0,0,,0,60,60,289,1,
,,,,,,,,,,,,,,,,,,5e8421d0df483e18852ff25e,2020-11-27_09h04.08.236,lexical_decision_task_MP_exp2,2020.2.5,Win32,60,z,1,0.75358,,,,,,,,0.75358,1,,,,,,242,NW,"ID",33,unwert,UNWERT,z,,,,,,0.787037037,-0.136111111,0,0,0,,0,61,61,241,1,
,,,,,,,,,,,,,,,,,,5e8421d0df483e18852ff25e,2020-11-27_09h04.08.236,lexical_decision_task_MP_exp2,2020.2.5,Win32,60,z,1,0.56538,,,,,,,,0.56538,1,,,,,,400,NW,UN,33,mustil,WEAROX,z,,,,,,0.787037037,-0.136111111,0,0,0,,0,62,62,399,1,
,,,,,,,,,,,,,,,,,,5e8421d0df483e18852ff25e,2020-11-27_09h04.08.236,lexical_decision_task_MP_exp2,2020.2.5,Win32,60,z,1,0.70374,,,,,,,,0.70374,1,,,,,,372,NW,UN,33,bigent,RAMILY,z,,,,,,0.787037037,-0.136111111,0,0,0,,0,63,63,371,1,
,,,,,,,,,,,,,,,,,,5e8421d0df483e18852ff25e,2020-11-27_09h04.08.236,lexical_decision_task_MP_exp2,2020.2.5,Win32,60,z,1,0.54106,,,,,,,,0.54106,1,,,,,,466,NW,UN,16,pebric,HOCITE,z,,,,,,0.787037037,-0.136111111,0,0,0,,0,64,64,465,1,
,,,,,,,,,,,,,,,,,,5e8421d0df483e18852ff25e,2020-11-27_09h04.08.236,lexical_decision_task_MP_exp2,2020.2.5,Win32,60,z,1,0.561135,,,,,,,,0.561135,1,,,,,,465,NW,UN,16,hocite,WHIVEX,z,,,,,,0.787037037,-0.136111111,0,0,0,,0,65,65,464,1,
,,,,,,,,,,,,,,,,,,5e8421d0df483e18852ff25e,2020-11-27_09h04.08.236,lexical_decision_task_MP_exp2,2020.2.5,Win32,60,m,1,0.571565,,,,,,,,0.571565,1,,,,,,223,WORD,UN,16,period,KIDNEY,m,,,,,,0.787037037,-0.136111111,0,0,0,,0,66,66,222,1,
,,,,,,,,,,,,,,,,,,5e8421d0df483e18852ff25e,2020-11-27_09h04.08.236,lexical_decision_task_MP_exp2,2020.2.5,Win32,60,m,1,0.663035,,,,,,,,0.663035,1,,,,,,79,WORD,"ID",16,theory,THEORY,m,,,,,,0.787037037,-0.136111111,0,0,0,,0,67,67,78,1,
,,,,,,,,,,,,,,,,,,5e8421d0df483e18852ff25e,2020-11-27_09h04.08.236,lexical_decision_task_MP_exp2,2020.2.5,Win32,60,z,1,0.527805,,,,,,,,0.527805,1,,,,,,371,NW,UN,33,ramily,GEILOY,z,,,,,,0.787037037,-0.136111111,0,0,0,,0,68,68,370,1,
,,,,,,,,,,,,,,,,,,5e8421d0df483e18852ff25e,2020-11-27_09h04.08.236,lexical_decision_task_MP_exp2,2020.2.5,Win32,60,m,1,0.516285,,,,,,,,0.516285,1,,,,,,117,WORD,"ID",16,branch,BRANCH,m,,,,,,0.787037037,-0.136111111,0,0,0,,0,69,69,116,1,
,,,,,,,,,,,,,,,,,,5e8421d0df483e18852ff25e,2020-11-27_09h04.08.236,lexical_decision_task_MP_exp2,2020.2.5,Win32,60,m,1,0.481115,,,,,,,,0.481115,1,,,,,,53,WORD,"ID",33,police,POLICE,m,,,,,,0.787037037,-0.136111111,0,0,0,,0,70,70,52,1,
,,,,,,,,,,,,,,,,,,5e8421d0df483e18852ff25e,2020-11-27_09h04.08.236,lexical_decision_task_MP_exp2,2020.2.5,Win32,60,z,1,0.6227,,,,,,,,0.6227,1,,,,,,409,NW,UN,33,tunory,ELOPIA,z,,,,,,0.787037037,-0.136111111,0,0,0,,0,71,71,408,1,
,,,,,,,,,,,,,,,,,,5e8421d0df483e18852ff25e,2020-11-27_09h04.08.236,lexical_decision_task_MP_exp2,2020.2.5,Win32,60,m,1,0.53577,,,,,,,,0.53577,1,,,,,,113,WORD,"ID",16,chorus,CHORUS,m,,,,,,0.787037037,-0.136111111,0,0,0,,0,72,72,112,1,
,,,,,,,,,,,,,,,,,,5e8421d0df483e18852ff25e,2020-11-27_09h04.08.236,lexical_decision_task_MP_exp2,2020.2.5,Win32,60,m,1,0.7004,,,,,,,,0.7004,1,,,,,,122,WORD,UN,33,strike,LINGER,m,,,,,,0.787037037,-0.136111111,0,0,0,,0,73,73,121,1,
,,,,,,,,,,,,,,,,,,5e8421d0df483e18852ff25e,2020-11-27_09h04.08.236,lexical_decision_task_MP_exp2,2020.2.5,Win32,60,m,1,0.67428,,,,,,,,0.67428,1,,,,,,136,WORD,UN,33,finger,BLEACH,m,,,,,,0.787037037,-0.136111111,0,0,0,,0,74,74,135,1,
,,,,,,,,,,,,,,,,,,5e8421d0df483e18852ff25e,2020-11-27_09h04.08.236,lexical_decision_task_MP_exp2,2020.2.5,Win32,60,m,1,0.59978,,,,,,,,0.59978,1,,,,,,203,WORD,UN,16,burden,PHRASE,m,,,,,,0.787037037,-0.136111111,0,0,0,,0,75,75,202,1,
,,,,,,,,,,,,,,,,,,5e8421d0df483e18852ff25e,2020-11-27_09h04.08.236,lexical_decision_task_MP_exp2,2020.2.5,Win32,60,z,1,0.63447,,,,,,,,0.63447,1,,,,,,293,NW,"ID",33,swance,SWANCE,z,,,,,,0.787037037,-0.136111111,0,0,0,,0,76,76,292,1,
,,,,,,,,,,,,,,,,,,5e8421d0df483e18852ff25e,2020-11-27_09h04.08.236,lexical_decision_task_MP_exp2,2020.2.5,Win32,60,m,0,0.57098,,,,,,,,0.57098,0,,,,,,284,NW,"ID",33,shaple,SHAPLE,z,,,,,,0.787037037,-0.136111111,0,0,0,,0,77,77,283,1,
,,,,,,,,,,,,,,,,,,5e8421d0df483e18852ff25e,2020-11-27_09h04.08.236,lexical_decision_task_MP_exp2,2020.2.5,Win32,60,z,1,0.717735,,,,,,,,0.717735,1,,,,,,479,NW,UN,16,josted,LOBUSH,z,,,,,,0.787037037,-0.136111111,0,0,0,,0,78,78,478,1,
,,,,,,,,,,,,,,,,,,5e8421d0df483e18852ff25e,2020-11-27_09h04.08.236,lexical_decision_task_MP_exp2,2020.2.5,Win32,60,z,1,0.554745,,,,,,,,0.554745,1,,,,,,241,NW,"ID",33,smenco,SMENCO,z,,,,,,0.787037037,-0.136111111,0,0,0,,0,79,79,240,1,
,,,,,,,,,,,,,,,,,,5e8421d0df483e18852ff25e,2020-11-27_09h04.08.236,lexical_decision_task_MP_exp2,2020.2.5,Win32,60,m,1,0.50975,,,,,,,,0.50975,1,,,,,,173,WORD,UN,33,turkey,SHOWER,m,,,,,,0.787037037,-0.136111111,0,0,0,,0,80,80,172,1,
,,,,,,,,,,,,,,,,,,5e8421d0df483e18852ff25e,2020-11-27_09h04.08.236,lexical_decision_task_MP_exp2,2020.2.5,Win32,60,z,1,0.68206,,,,,,,,0.68206,1,,,,,,451,NW,UN,16,surden,CAINKY,z,,,,,,0.787037037,-0.136111111,0,0,0,,0,81,81,450,1,
,,,,,,,,,,,,,,,,,,5e8421d0df483e18852ff25e,2020-11-27_09h04.08.236,lexical_decision_task_MP_exp2,2020.2.5,Win32,60,z,1,0.521125,,,,,,,,0.521125,1,,,,,,351,NW,"ID",16,tiesch,TIESCH,z,,,,,,0.787037037,-0.136111111,0,0,0,,0,82,82,350,1,
,,,,,,,,,,,,,,,,,,5e8421d0df483e18852ff25e,2020-11-27_09h04.08.236,lexical_decision_task_MP_exp2,2020.2.5,Win32,60,z,1,0.56748,,,,,,,,0.56748,1,,,,,,369,NW,UN,33,sleact,WRONCH,z,,,,,,0.787037037,-0.136111111,0,0,0,,0,83,83,368,1,
,,,,,,,,,,,,,,,,,,5e8421d0df483e18852ff25e,2020-11-27_09h04.08.236,lexical_decision_task_MP_exp2,2020.2.5,Win32,60,m,1,0.570465,,,,,,,,0.570465,1,,,,,,32,WORD,"ID",33,buckle,BUCKLE,m,,,,,,0.787037037,-0.136111111,0,0,0,,0,84,84,31,1,
,,,,,,,,,,,,,,,,,,5e8421d0df483e18852ff25e,2020-11-27_09h04.08.236,lexical_decision_task_MP_exp2,2020.2.5,Win32,60,z,1,0.45269,,,,,,,,0.45269,1,,,,,,254,NW,"ID",33,varosh,VAROSH,z,,,,,,0.787037037,-0.136111111,0,0,0,,0,85,85,253,1,
,,,,,,,,,,,,,,,,,,5e8421d0df483e18852ff25e,2020-11-27_09h04.08.236,lexical_decision_task_MP_exp2,2020.2.5,Win32,60,m,1,0.61969,,,,,,,,0.61969,1,,,,,,183,WORD,UN,16,sleazy,MILDEW,m,,,,,,0.787037037,-0.136111111,0,0,0,,0,86,86,182,1,
,,,,,,,,,,,,,,,,,,5e8421d0df483e18852ff25e,2020-11-27_09h04.08.236,lexical_decision_task_MP_exp2,2020.2.5,Win32,60,z,1,0.711045,,,,,,,,0.711045,1,,,,,,368,NW,UN,33,wronch,HORNAL,z,,,,,,0.787037037,-0.136111111,0,0,0,,0,87,87,367,1,
,,,,,,,,,,,,,,,,,,5e8421d0df483e18852ff25e,2020-11-27_09h04.08.236,lexical_decision_task_MP_exp2,2020.2.5,Win32,60,m,1,0.48304,,,,,,,,0.48304,1,,,,,,36,WORD,"ID",33,vanish,VANISH,m,,,,,,0.787037037,-0.136111111,0,0,0,,0,88,88,35,1,
,,,,,,,,,,,,,,,,,,5e8421d0df483e18852ff25e,2020-11-27_09h04.08.236,lexical_decision_task_MP_exp2,2020.2.5,Win32,60,z,1,0.768995,,,,,,,,0.768995,1,,,,,,260,NW,"ID",33,unject,UNJECT,z,,,,,,0.787037037,-0.136111111,0,0,0,,0,89,89,259,1,
,,,,,,,,,,,,,,,,,,5e8421d0df483e18852ff25e,2020-11-27_09h04.08.236,lexical_decision_task_MP_exp2,2020.2.5,Win32,60,z,1,0.665785,,,,,,,,0.665785,1,,,,,,480,NW,UN,16,knisma,ROBULY,z,,,,,,0.787037037,-0.136111111,0,0,0,,0,90,90,479,1,
,,,,,,,,,,,,,,,,,,5e8421d0df483e18852ff25e,2020-11-27_09h04.08.236,lexical_decision_task_MP_exp2,2020.2.5,Win32,60,z,1,0.635005,,,,,,,,0.635005,1,,,,,,261,NW,"ID",33,stunch,STUNCH,z,,,,,,0.787037037,-0.136111111,0,0,0,,0,91,91,260,1,
,,,,,,,,,,,,,,,,,,5e8421d0df483e18852ff25e,2020-11-27_09h04.08.236,lexical_decision_task_MP_exp2,2020.2.5,Win32,60,m,1,1.083225,,,,,,,,1.083225,1,,,,,,45,WORD,"ID",33,clergy,CLERGY,m,,,,,,0.787037037,-0.136111111,0,0,0,,0,92,92,44,1,
,,,,,,,,,,,,,,,,,,5e8421d0df483e18852ff25e,2020-11-27_09h04.08.236,lexical_decision_task_MP_exp2,2020.2.5,Win32,60,z,1,0.7508,,,,,,,,0.7508,1,,,,,,424,NW,UN,16,urivel,PRAILE,z,,,,,,0.787037037,-0.136111111,0,0,0,,0,93,93,423,1,
,,,,,,,,,,,,,,,,,,5e8421d0df483e18852ff25e,2020-11-27_09h04.08.236,lexical_decision_task_MP_exp2,2020.2.5,Win32,60,m,1,0.789205,,,,,,,,0.789205,1,,,,,,156,WORD,UN,33,pastor,CRADLE,m,,,,,,0.787037037,-0.136111111,0,0,0,,0,94,94,155,1,
,,,,,,,,,,,,,,,,,,5e8421d0df483e18852ff25e,2020-11-27_09h04.08.236,lexical_decision_task_MP_exp2,2020.2.5,Win32,60,m,1,0.495395,,,,,,,,0.495395,1,,,,,,65,WORD,"ID",16,symbol,SYMBOL,m,,,,,,0.787037037,-0.136111111,0,0,0,,0,95,95,64,1,
,,,,,,,,,,,,,,,,,,5e8421d0df483e18852ff25e,2020-11-27_09h04.08.236,lexical_decision_task_MP_exp2,2020.2.5,Win32,60,m,1,0.74802,,,,,,,,0.74802,1,,,,,,118,WORD,"ID",16,flight,FLIGHT,m,,,,,,0.787037037,-0.136111111,0,0,0,,0,96,96,117,1,
,,,,,,,,,,,,,,,,,,5e8421d0df483e18852ff25e,2020-11-27_09h04.08.236,lexical_decision_task_MP_exp2,2020.2.5,Win32,60,z,1,0.77646,,,,,,,,0.77646,1,,,,,,464,NW,UN,16,whivex,CHAITE,z,,,,,,0.787037037,-0.136111111,0,0,0,,0,97,97,463,1,
,,,,,,,,,,,,,,,,,,5e8421d0df483e18852ff25e,2020-11-27_09h04.08.236,lexical_decision_task_MP_exp2,2020.2.5,Win32,60,z,1,0.748005,,,,,,,,0.748005,1,,,,,,298,NW,"ID",33,piergy,PIERGY,z,,,,,,0.787037037,-0.136111111,0,0,0,,0,98,98,297,1,
,,,,,,,,,,,,,,,,,,5e8421d0df483e18852ff25e,2020-11-27_09h04.08.236,lexical_decision_task_MP_exp2,2020.2.5,Win32,60,m,1,0.615465,,,,,,,,0.615465,1,,,,,,178,WORD,UN,33,mildew,INFORM,m,,,,,,0.787037037,-0.136111111,0,0,0,,0,99,99,177,1,
,,,,,,,,,,,,,,,,,,5e8421d0df483e18852ff25e,2020-11-27_09h04.08.236,lexical_decision_task_MP_exp2,2020.2.5,Win32,60,m,1,0.766375,,,,,,,,0.766375,1,,,,,,237,WORD,UN,16,seldom,POSTER,m,,,,,,0.787037037,-0.136111111,0,0,0,,0,100,100,236,1,
,,,,,,,,,,,,,,,,,,5e8421d0df483e18852ff25e,2020-11-27_09h04.08.236,lexical_decision_task_MP_exp2,2020.2.5,Win32,60,z,1,0.65014,,,,,,,,0.65014,1,,,,,,322,NW,"ID",16,slanch,SLANCH,z,,,,,,0.787037037,-0.136111111,0,0,0,,0,101,101,321,1,
,,,,,,,,,,,,,,,,,,5e8421d0df483e18852ff25e,2020-11-27_09h04.08.236,lexical_decision_task_MP_exp2,2020.2.5,Win32,60,z,1,0.6166,,,,,,,,0.6166,1,,,,,,349,NW,"ID",16,asylen,ASYLEN,z,,,,,,0.787037037,-0.136111111,0,0,0,,0,102,102,348,1,
,,,,,,,,,,,,,,,,,,5e8421d0df483e18852ff25e,2020-11-27_09h04.08.236,lexical_decision_task_MP_exp2,2020.2.5,Win32,60,m,1,0.547585,,,,,,,,0.547585,1,,,,,,236,WORD,UN,16,poster,PIRATE,m,,,,,,0.787037037,-0.136111111,0,0,0,,0,103,103,235,1,
,,,,,,,,,,,,,,,,,,5e8421d0df483e18852ff25e,2020-11-27_09h04.08.236,lexical_decision_task_MP_exp2,2020.2.5,Win32,60,m,1,0.648935,,,,,,,,0.648935,1,,,,,,114,WORD,"ID",16,placid,PLACID,m,,,,,,0.787037037,-0.136111111,0,0,0,,0,104,104,113,1,
,,,,,,,,,,,,,,,,,,5e8421d0df483e18852ff25e,2020-11-27_09h04.08.236,lexical_decision_task_MP_exp2,2020.2.5,Win32,60,m,1,0.58479,,,,,,,,0.58479,1,,,,,,138,WORD,UN,33,staple,MELODY,m,,,,,,0.787037037,-0.136111111,0,0,0,,0,105,105,137,1,
,,,,,,,,,,,,,,,,,,5e8421d0df483e18852ff25e,2020-11-27_09h04.08.236,lexical_decision_task_MP_exp2,2020.2.5,Win32,60,z,1,0.922145,,,,,,,,0.922145,1,,,,,,364,NW,UN,33,guairt,IMPOTE,z,,,,,,0.787037037,-0.136111111,0,0,0,,0,106,106,363,1,
,,,,,,,,,,,,,,,,,,5e8421d0df483e18852ff25e,2020-11-27_09h04.08.236,lexical_decision_task_MP_exp2,2020.2.5,Win32,60,m,1,0.5739,,,,,,,,0.5739,1,,,,,,100,WORD,"ID",16,carbon,CARBON,m,,,,,,0.787037037,-0.136111111,0,0,0,,0,107,107,99,1,
,,,,,,,,,,,,,,,,,,5e8421d0df483e18852ff25e,2020-11-27_09h04.08.236,lexical_decision_task_MP_exp2,2020.2.5,Win32,60,m,1,0.47459,,,,,,,,0.47459,1,,,,,,27,WORD,"ID",33,scream,SCREAM,m,,,,,,0.787037037,-0.136111111,0,0,0,,0,108,108,26,1,
,,,,,,,,,,,,,,,,,,5e8421d0df483e18852ff25e,2020-11-27_09h04.08.236,lexical_decision_task_MP_exp2,2020.2.5,Win32,60,m,1,0.520415,,,,,,,,0.520415,1,,,,,,97,WORD,"ID",16,client,CLIENT,m,,,,,,0.787037037,-0.136111111,0,0,0,,0,109,109,96,1,
,,,,,,,,,,,,,,,,,,5e8421d0df483e18852ff25e,2020-11-27_09h04.08.236,lexical_decision_task_MP_exp2,2020.2.5,Win32,60,z,1,0.6375,,,,,,,,0.6375,1,,,,,,435,NW,UN,16,frutan,IMPURB,z,,,,,,0.787037037,-0.136111111,0,0,0,,0,110,110,434,1,
,,,,,,,,,,,,,,,,,,5e8421d0df483e18852ff25e,2020-11-27_09h04.08.236,lexical_decision_task_MP_exp2,2020.2.5,Win32,60,m,1,0.591555,,,,,,,,0.591555,1,,,,,,170,WORD,UN,33,depart,POUNCE,m,,,,,,0.787037037,-0.136111111,0,0,0,,0,111,111,169,1,
,,,,,,,,,,,,,,,,,,5e8421d0df483e18852ff25e,2020-11-27_09h04.08.236,lexical_decision_task_MP_exp2,2020.2.5,Win32,60,z,1,0.585215,,,,,,,,0.585215,1,,,,,,256,NW,"ID",33,inlors,INLORS,z,,,,,,0.787037037,-0.136111111,0,0,0,,0,112,112,255,1,
,,,,,,,,,,,,,,,,,,5e8421d0df483e18852ff25e,2020-11-27_09h04.08.236,lexical_decision_task_MP_exp2,2020.2.5,Win32,60,m,1,0.50062,,,,,,,,0.50062,1,,,,,,179,WORD,UN,33,silent,BASKET,m,,,,,,0.787037037,-0.136111111,0,0,0,,0,113,113,178,1,
,,,,,,,,,,,,,,,,,,5e8421d0df483e18852ff25e,2020-11-27_09h04.08.236,lexical_decision_task_MP_exp2,2020.2.5,Win32,60,m,1,0.552395,,,,,,,,0.552395,1,,,,,,121,WORD,UN,33,linger,THRIVE,m,,,,,,0.787037037,-0.136111111,0,0,0,,0,114,114,120,1,
,,,,,,,,,,,,,,,,,,5e8421d0df483e18852ff25e,2020-11-27_09h04.08.236,lexical_decision_task_MP_exp2,2020.2.5,Win32,60,z,1,0.597375,,,,,,,,0.597375,1,,,,,,388,NW,UN,33,witmer,CRAGIN,z,,,,,,0.787037037,-0.136111111,0,0,0,,0,115,115,387,1,
,,,,,,,,,,,,,,,,,,5e8421d0df483e18852ff25e,2020-11-27_09h04.08.236,lexical_decision_task_MP_exp2,2020.2.5,Win32,60,m,1,0.533235,,,,,,,,0.533235,1,,,,,,11,WORD,"ID",33,cruise,CRUISE,m,,,,,,0.787037037,-0.136111111,0,0,0,,0,116,116,10,1,
,,,,,,,,,,,,,,,,,,5e8421d0df483e18852ff25e,2020-11-27_09h04.08.236,lexical_decision_task_MP_exp2,2020.2.5,Win32,60,z,1,0.641105,,,,,,,,0.641105,1,,,,,,275,NW,"ID",33,sleirt,SLEIRT,z,,,,,,0.787037037,-0.136111111,0,0,0,,0,117,117,274,1,
,,,,,,,,,,,,,,,,,,5e8421d0df483e18852ff25e,2020-11-27_09h04.08.236,lexical_decision_task_MP_exp2,2020.2.5,Win32,60,z,1,0.577275,,,,,,,,0.577275,1,,,,,,457,NW,UN,16,barcet,WANIGH,z,,,,,,0.787037037,-0.136111111,0,0,0,,0,118,118,456,1,
,,,,,,,,,,,,,,,,,,5e8421d0df483e18852ff25e,2020-11-27_09h04.08.236,lexical_decision_task_MP_exp2,2020.2.5,Win32,60,z,1,0.619405,,,,,,,,0.619405,1,,,,,,248,NW,"ID",33,strole,STROLE,z,,,,,,0.787037037,-0.136111111,0,0,0,,0,119,119,247,1,
,,,,,,,,,,,,,,,,,,5e8421d0df483e18852ff25e,2020-11-27_09h04.08.236,lexical_decision_task_MP_exp2,2020.2.5,Win32,60,z,1,0.55652,,,,,,,,0.55652,1,,,,,,453,NW,UN,16,scouge,BOLVIS,z,,,,,,0.787037037,-0.136111111,0,0,0,space,0,120,120,452,1,12.62774
,,,,,,,,,,,,,,,,,,5e8421d0df483e18852ff25e,2020-11-27_09h04.08.236,lexical_decision_task_MP_exp2,2020.2.5,Win32,60,m,1,0.59004,,,,,,,,0.59004,1,,,,,,64,WORD,"ID",16,throne,THRONE,m,,,,,,0.787037037,-0.136111111,0,0,0,,0,121,121,63,1,
,,,,,,,,,,,,,,,,,,5e8421d0df483e18852ff25e,2020-11-27_09h04.08.236,lexical_decision_task_MP_exp2,2020.2.5,Win32,60,z,1,0.62496,,,,,,,,0.62496,1,,,,,,252,NW,"ID",33,stapod,STAPOD,z,,,,,,0.787037037,-0.136111111,0,0,0,,0,122,122,251,1,
,,,,,,,,,,,,,,,,,,5e8421d0df483e18852ff25e,2020-11-27_09h04.08.236,lexical_decision_task_MP_exp2,2020.2.5,Win32,60,m,1,0.59391,,,,,,,,0.59391,1,,,,,,99,WORD,"ID",16,fluent,FLUENT,m,,,,,,0.787037037,-0.136111111,0,0,0,,0,123,123,98,1,
,,,,,,,,,,,,,,,,,,5e8421d0df483e18852ff25e,2020-11-27_09h04.08.236,lexical_decision_task_MP_exp2,2020.2.5,Win32,60,m,1,0.61966,,,,,,,,0.61966,1,,,,,,161,WORD,UN,33,candle,PASTOR,m,,,,,,0.787037037,-0.136111111,0,0,0,,0,124,124,160,1,
,,,,,,,,,,,,,,,,,,5e8421d0df483e18852ff25e,2020-11-27_09h04.08.236,lexical_decision_task_MP_exp2,2020.2.5,Win32,60,m,1,0.53176,,,,,,,,0.53176,1,,,,,,22,WORD,"ID",33,jockey,JOCKEY,m,,,,,,0.787037037,-0.136111111,0,0,0,,0,125,125,21,1,
,,,,,,,,,,,,,,,,,,5e8421d0df483e18852ff25e,2020-11-27_09h04.08.236,lexical_decision_task_MP_exp2,2020.2.5,Win32,60,m,1,0.81564,,,,,,,,0.81564,1,,,,,,211,WORD,UN,16,verify,INFECT,m,,,,,,0.787037037,-0.136111111,0,0,0,,0,126,126,210,1,
,,,,,,,,,,,,,,,,,,5e8421d0df483e18852ff25e,2020-11-27_09h04.08.236,lexical_decision_task_MP_exp2,2020.2.5,Win32,60,z,1,0.538035,,,,,,,,0.538035,1,,,,,,415,NW,UN,33,pathel,HIGSTA,z,,,,,,0.787037037,-0.136111111,0,0,0,,0,127,127,414,1,
,,,,,,,,,,,,,,,,,,5e8421d0df483e18852ff25e,2020-11-27_09h04.08.236,lexical_decision_task_MP_exp2,2020.2.5,Win32,60,m,0,0.597275,,,,,,,,0.597275,0,,,,,,475,NW,UN,16,robuly,PEBRIC,z,,,,,,0.787037037,-0.136111111,0,0,0,,0,128,128,474,1,
,,,,,,,,,,,,,,,,,,5e8421d0df483e18852ff25e,2020-11-27_09h04.08.236,lexical_decision_task_MP_exp2,2020.2.5,Win32,60,m,0,0.808705,,,,,,,,0.808705,0,,,,,,436,NW,UN,16,snapel,FRUTAN,z,,,,,,0.787037037,-0.136111111,0,0,0,,0,129,129,435,1,
,,,,,,,,,,,,,,,,,,5e8421d0df483e18852ff25e,2020-11-27_09h04.08.236,lexical_decision_task_MP_exp2,2020.2.5,Win32,60,z,1,1.54551,,,,,,,,1.54551,1,,,,,,312,NW,"ID",16,nerawl,NERAWL,z,,,,,,0.787037037,-0.136111111,0,0,0,,0,130,130,311,1,
,,,,,,,,,,,,,,,,,,5e8421d0df483e18852ff25e,2020-11-27_09h04.08.236,lexical_decision_task_MP_exp2,2020.2.5,Win32,60,m,1,0.700625,,,,,,,,0.700625,1,,,,,,192,WORD,UN,16,object,PLAGUE,m,,,,,,0.787037037,-0.136111111,0,0,0,,0,131,131,191,1,
,,,,,,,,,,,,,,,,,,5e8421d0df483e18852ff25e,2020-11-27_09h04.08.236,lexical_decision_task_MP_exp2,2020.2.5,Win32,60,m,1,0.986975,,,,,,,,0.986975,1,,,,,,219,WORD,UN,16,voyage,BUCKET,m,,,,,,0.787037037,-0.136111111,0,0,0,,0,132,132,218,1,
,,,,,,,,,,,,,,,,,,5e8421d0df483e18852ff25e,2020-11-27_09h04.08.236,lexical_decision_task_MP_exp2,2020.2.5,Win32,60,m,1,1.028075,,,,,,,,1.028075,1,,,,,,96,WORD,"ID",16,ignore,IGNORE,m,,,,,,0.787037037,-0.136111111,0,0,0,,0,133,133,95,1,
,,,,,,,,,,,,,,,,,,5e8421d0df483e18852ff25e,2020-11-27_09h04.08.236,lexical_decision_task_MP_exp2,2020.2.5,Win32,60,z,1,1.01505,,,,,,,,1.01505,1,,,,,,417,NW,UN,33,suidle,EAROUD,z,,,,,,0.787037037,-0.136111111,0,0,0,,0,134,134,416,1,
,,,,,,,,,,,,,,,,,,5e8421d0df483e18852ff25e,2020-11-27_09h04.08.236,lexical_decision_task_MP_exp2,2020.2.5,Win32,60,m,1,0.90227,,,,,,,,0.90227,1,,,,,,214,WORD,UN,16,phobia,INTAKE,m,,,,,,0.787037037,-0.136111111,0,0,0,,0,135,135,213,1,
,,,,,,,,,,,,,,,,,,5e8421d0df483e18852ff25e,2020-11-27_09h04.08.236,lexical_decision_task_MP_exp2,2020.2.5,Win32,60,z,1,0.839165,,,,,,,,0.839165,1,,,,,,278,NW,"ID",33,unighs,UNIGHS,z,,,,,,0.787037037,-0.136111111,0,0,0,,0,136,136,277,1,
,,,,,,,,,,,,,,,,,,5e8421d0df483e18852ff25e,2020-11-27_09h04.08.236,lexical_decision_task_MP_exp2,2020.2.5,Win32,60,m,1,0.84695,,,,,,,,0.84695,1,,,,,,1,WORD,"ID",33,fright,FRIGHT,m,,,,,,0.787037037,-0.136111111,0,0,0,,0,137,137,0,1,
,,,,,,,,,,,,,,,,,,5e8421d0df483e18852ff25e,2020-11-27_09h04.08.236,lexical_decision_task_MP_exp2,2020.2.5,Win32,60,m,1,0.67879,,,,,,,,0.67879,1,,,,,,221,WORD,UN,16,hinder,MASCOT,m,,,,,,0.787037037,-0.136111111,0,0,0,,0,138,138,220,1,
,,,,,,,,,,,,,,,,,,5e8421d0df483e18852ff25e,2020-11-27_09h04.08.236,lexical_decision_task_MP_exp2,2020.2.5,Win32,60,m,1,0.659145,,,,,,,,0.659145,1,,,,,,63,WORD,"ID",16,launch,LAUNCH,m,,,,,,0.787037037,-0.136111111,0,0,0,,0,139,139,62,1,
,,,,,,,,,,,,,,,,,,5e8421d0df483e18852ff25e,2020-11-27_09h04.08.236,lexical_decision_task_MP_exp2,2020.2.5,Win32,60,z,0,0.883045,,,,,,,,0.883045,0,,,,,,135,WORD,UN,33,chrome,IMPORT,m,,,,,,0.787037037,-0.136111111,0,0,0,,0,140,140,134,1,
,,,,,,,,,,,,,,,,,,5e8421d0df483e18852ff25e,2020-11-27_09h04.08.236,lexical_decision_task_MP_exp2,2020.2.5,Win32,60,m,1,1.265435,,,,,,,,1.265435,1,,,,,,174,WORD,UN,33,fabric,TURKEY,m,,,,,,0.787037037,-0.136111111,0,0,0,,0,141,141,173,1,
,,,,,,,,,,,,,,,,,,5e8421d0df483e18852ff25e,2020-11-27_09h04.08.236,lexical_decision_task_MP_exp2,2020.2.5,Win32,60,m,1,0.680435,,,,,,,,0.680435,1,,,,,,166,WORD,UN,33,design,STARCH,m,,,,,,0.787037037,-0.136111111,0,0,0,,0,142,142,165,1,
,,,,,,,,,,,,,,,,,,5e8421d0df483e18852ff25e,2020-11-27_09h04.08.236,lexical_decision_task_MP_exp2,2020.2.5,Win32,60,m,1,0.51698,,,,,,,,0.51698,1,,,,,,188,WORD,UN,16,censor,SOCIAL,m,,,,,,0.787037037,-0.136111111,0,0,0,,0,143,143,187,1,
,,,,,,,,,,,,,,,,,,5e8421d0df483e18852ff25e,2020-11-27_09h04.08.236,lexical_decision_task_MP_exp2,2020.2.5,Win32,60,z,1,1.325355,,,,,,,,1.325355,1,,,,,,243,NW,"ID",33,musied,MUSIED,z,,,,,,0.787037037,-0.136111111,0,0,0,,0,144,144,242,1,
,,,,,,,,,,,,,,,,,,5e8421d0df483e18852ff25e,2020-11-27_09h04.08.236,lexical_decision_task_MP_exp2,2020.2.5,Win32,60,m,1,0.69577,,,,,,,,0.69577,1,,,,,,226,WORD,UN,16,flower,CASINO,m,,,,,,0.787037037,-0.136111111,0,0,0,,0,145,145,225,1,
,,,,,,,,,,,,,,,,,,5e8421d0df483e18852ff25e,2020-11-27_09h04.08.236,lexical_decision_task_MP_exp2,2020.2.5,Win32,60,m,1,0.58087,,,,,,,,0.58087,1,,,,,,66,WORD,"ID",16,gospel,GOSPEL,m,,,,,,0.787037037,-0.136111111,0,0,0,,0,146,146,65,1,
,,,,,,,,,,,,,,,,,,5e8421d0df483e18852ff25e,2020-11-27_09h04.08.236,lexical_decision_task_MP_exp2,2020.2.5,Win32,60,m,1,0.625205,,,,,,,,0.625205,1,,,,,,209,WORD,UN,16,monkey,SEARCH,m,,,,,,0.787037037,-0.136111111,0,0,0,,0,147,147,208,1,
,,,,,,,,,,,,,,,,,,5e8421d0df483e18852ff25e,2020-11-27_09h04.08.236,lexical_decision_task_MP_exp2,2020.2.5,Win32,60,m,1,0.59478,,,,,,,,0.59478,1,,,,,,56,WORD,"ID",33,ambush,AMBUSH,m,,,,,,0.787037037,-0.136111111,0,0,0,,0,148,148,55,1,
,,,,,,,,,,,,,,,,,,5e8421d0df483e18852ff25e,2020-11-27_09h04.08.236,lexical_decision_task_MP_exp2,2020.2.5,Win32,60,m,1,0.548355,,,,,,,,0.548355,1,,,,,,61,WORD,"ID",16,ponder,PONDER,m,,,,,,0.787037037,-0.136111111,0,0,0,,0,149,149,60,1,
,,,,,,,,,,,,,,,,,,5e8421d0df483e18852ff25e,2020-11-27_09h04.08.236,lexical_decision_task_MP_exp2,2020.2.5,Win32,60,z,1,0.575675,,,,,,,,0.575675,1,,,,,,421,NW,UN,16,alcoud,KNISMA,z,,,,,,0.787037037,-0.136111111,0,0,0,,0,150,150,420,1,
,,,,,,,,,,,,,,,,,,5e8421d0df483e18852ff25e,2020-11-27_09h04.08.236,lexical_decision_task_MP_exp2,2020.2.5,Win32,60,m,1,0.52145,,,,,,,,0.52145,1,,,,,,95,WORD,"ID",16,thread,THREAD,m,,,,,,0.787037037,-0.136111111,0,0,0,,0,151,151,94,1,
,,,,,,,,,,,,,,,,,,5e8421d0df483e18852ff25e,2020-11-27_09h04.08.236,lexical_decision_task_MP_exp2,2020.2.5,Win32,60,m,1,0.577205,,,,,,,,0.577205,1,,,,,,147,WORD,UN,33,custom,GARLIC,m,,,,,,0.787037037,-0.136111111,0,0,0,,0,152,152,146,1,
,,,,,,,,,,,,,,,,,,5e8421d0df483e18852ff25e,2020-11-27_09h04.08.236,lexical_decision_task_MP_exp2,2020.2.5,Win32,60,z,1,0.61385,,,,,,,,0.61385,1,,,,,,392,NW,UN,33,ganous,ROUNCY,z,,,,,,0.787037037,-0.136111111,0,0,0,,0,153,153,391,1,
,,,,,,,,,,,,,,,,,,5e8421d0df483e18852ff25e,2020-11-27_09h04.08.236,lexical_decision_task_MP_exp2,2020.2.5,Win32,60,z,1,0.596015,,,,,,,,0.596015,1,,,,,,426,NW,UN,16,frudge,URIVEL,z,,,,,,0.787037037,-0.136111111,0,0,0,,0,154,154,425,1,
,,,,,,,,,,,,,,,,,,5e8421d0df483e18852ff25e,2020-11-27_09h04.08.236,lexical_decision_task_MP_exp2,2020.2.5,Win32,60,z,1,0.629,,,,,,,,0.629,1,,,,,,478,NW,UN,16,lobush,ACRISE,z,,,,,,0.787037037,-0.136111111,0,0,0,,0,155,155,477,1,
,,,,,,,,,,,,,,,,,,5e8421d0df483e18852ff25e,2020-11-27_09h04.08.236,lexical_decision_task_MP_exp2,2020.2.5,Win32,60,m,1,0.527455,,,,,,,,0.527455,1,,,,,,157,WORD,UN,33,island,DRAGON,m,,,,,,0.787037037,-0.136111111,0,0,0,,0,156,156,156,1,
,,,,,,,,,,,,,,,,,,5e8421d0df483e18852ff25e,2020-11-27_09h04.08.236,lexical_decision_task_MP_exp2,2020.2.5,Win32,60,z,1,0.80361,,,,,,,,0.80361,1,,,,,,283,NW,"ID",33,veralf,VERALF,z,,,,,,0.787037037,-0.136111111,0,0,0,,0,157,157,282,1,
,,,,,,,,,,,,,,,,,,5e8421d0df483e18852ff25e,2020-11-27_09h04.08.236,lexical_decision_task_MP_exp2,2020.2.5,Win32,60,z,1,0.60473,,,,,,,,0.60473,1,,,,,,459,NW,UN,16,mingar,BAFENT,z,,,,,,0.787037037,-0.136111111,0,0,0,,0,158,158,458,1,
,,,,,,,,,,,,,,,,,,5e8421d0df483e18852ff25e,2020-11-27_09h04.08.236,lexical_decision_task_MP_exp2,2020.2.5,Win32,60,m,1,0.575055,,,,,,,,0.575055,1,,,,,,131,WORD,UN,33,strong,QUENCH,m,,,,,,0.787037037,-0.136111111,0,0,0,,0,159,159,130,1,
,,,,,,,,,,,,,,,,,,5e8421d0df483e18852ff25e,2020-11-27_09h04.08.236,lexical_decision_task_MP_exp2,2020.2.5,Win32,60,m,1,0.48208,,,,,,,,0.48208,1,,,,,,23,WORD,"ID",33,wealth,WEALTH,m,,,,,,0.787037037,-0.136111111,0,0,0,,0,160,160,22,1,
,,,,,,,,,,,,,,,,,,5e8421d0df483e18852ff25e,2020-11-27_09h04.08.236,lexical_decision_task_MP_exp2,2020.2.5,Win32,60,m,1,0.63825,,,,,,,,0.63825,1,,,,,,204,WORD,UN,16,lounge,BURDEN,m,,,,,,0.787037037,-0.136111111,0,0,0,,0,161,161,203,1,
,,,,,,,,,,,,,,,,,,5e8421d0df483e18852ff25e,2020-11-27_09h04.08.236,lexical_decision_task_MP_exp2,2020.2.5,Win32,60,m,1,0.65633,,,,,,,,0.65633,1,,,,,,206,WORD,UN,16,wreath,TAILOR,m,,,,,,0.787037037,-0.136111111,0,0,0,,0,162,162,205,1,
,,,,,,,,,,,,,,,,,,5e8421d0df483e18852ff25e,2020-11-27_09h04.08.236,lexical_decision_task_MP_exp2,2020.2.5,Win32,60,m,1,0.511345,,,,,,,,0.511345,1,,,,,,193,WORD,UN,16,plague,OBJECT,m,,,,,,0.787037037,-0.136111111,0,0,0,,0,163,163,192,1,
,,,,,,,,,,,,,,,,,,5e8421d0df483e18852ff25e,2020-11-27_09h04.08.236,lexical_decision_task_MP_exp2,2020.2.5,Win32,60,z,1,0.613595,,,,,,,,0.613595,1,,,,,,407,NW,UN,33,hurnia,SUIVER,z,,,,,,0.787037037,-0.136111111,0,0,0,,0,164,164,406,1,
,,,,,,,,,,,,,,,,,,5e8421d0df483e18852ff25e,2020-11-27_09h04.08.236,lexical_decision_task_MP_exp2,2020.2.5,Win32,60,z,1,0.693685,,,,,,,,0.693685,1,,,,,,259,NW,"ID",33,soudal,SOUDAL,z,,,,,,0.787037037,-0.136111111,0,0,0,,0,165,165,258,1,
,,,,,,,,,,,,,,,,,,5e8421d0df483e18852ff25e,2020-11-27_09h04.08.236,lexical_decision_task_MP_exp2,2020.2.5,Win32,60,m,1,0.668755,,,,,,,,0.668755,1,,,,,,125,WORD,UN,33,blouse,NICKEL,m,,,,,,0.787037037,-0.136111111,0,0,0,,0,166,166,124,1,
,,,,,,,,,,,,,,,,,,5e8421d0df483e18852ff25e,2020-11-27_09h04.08.236,lexical_decision_task_MP_exp2,2020.2.5,Win32,60,z,1,0.56226,,,,,,,,0.56226,1,,,,,,359,NW,"ID",16,fonver,FONVER,z,,,,,,0.787037037,-0.136111111,0,0,0,,0,167,167,358,1,
,,,,,,,,,,,,,,,,,,5e8421d0df483e18852ff25e,2020-11-27_09h04.08.236,lexical_decision_task_MP_exp2,2020.2.5,Win32,60,z,1,0.557395,,,,,,,,0.557395,1,,,,,,449,NW,UN,16,phrect,BRUNGE,z,,,,,,0.787037037,-0.136111111,0,0,0,,0,168,168,448,1,
,,,,,,,,,,,,,,,,,,5e8421d0df483e18852ff25e,2020-11-27_09h04.08.236,lexical_decision_task_MP_exp2,2020.2.5,Win32,60,m,1,0.810005,,,,,,,,0.810005,1,,,,,,160,WORD,UN,33,dragon,VIOLET,m,,,,,,0.787037037,-0.136111111,0,0,0,,0,169,169,159,1,
,,,,,,,,,,,,,,,,,,5e8421d0df483e18852ff25e,2020-11-27_09h04.08.236,lexical_decision_task_MP_exp2,2020.2.5,Win32,60,m,1,0.53819,,,,,,,,0.53819,1,,,,,,98,WORD,"ID",16,belong,BELONG,m,,,,,,0.787037037,-0.136111111,0,0,0,,0,170,170,97,1,
,,,,,,,,,,,,,,,,,,5e8421d0df483e18852ff25e,2020-11-27_09h04.08.236,lexical_decision_task_MP_exp2,2020.2.5,Win32,60,m,1,0.49852,,,,,,,,0.49852,1,,,,,,169,WORD,UN,33,pounce,GENIUS,m,,,,,,0.787037037,-0.136111111,0,0,0,,0,171,171,168,1,
,,,,,,,,,,,,,,,,,,5e8421d0df483e18852ff25e,2020-11-27_09h04.08.236,lexical_decision_task_MP_exp2,2020.2.5,Win32,60,z,1,0.54072,,,,,,,,0.54072,1,,,,,,339,NW,"ID",16,fachow,FACHOW,z,,,,,,0.787037037,-0.136111111,0,0,0,,0,172,172,338,1,
,,,,,,,,,,,,,,,,,,5e8421d0df483e18852ff25e,2020-11-27_09h04.08.236,lexical_decision_task_MP_exp2,2020.2.5,Win32,60,m,1,0.497505,,,,,,,,0.497505,1,,,,,,105,WORD,"ID",16,number,NUMBER,m,,,,,,0.787037037,-0.136111111,0,0,0,,0,173,173,104,1,
,,,,,,,,,,,,,,,,,,5e8421d0df483e18852ff25e,2020-11-27_09h04.08.236,lexical_decision_task_MP_exp2,2020.2.5,Win32,60,z,1,0.639705,,,,,,,,0.639705,1,,,,,,353,NW,"ID",16,clurey,CLUREY,z,,,,,,0.787037037,-0.136111111,0,0,0,,0,174,174,352,1,
,,,,,,,,,,,,,,,,,,5e8421d0df483e18852ff25e,2020-11-27_09h04.08.236,lexical_decision_task_MP_exp2,2020.2.5,Win32,60,z,1,0.58504,,,,,,,,0.58504,1,,,,,,287,NW,"ID",33,nymbel,NYMBEL,z,,,,,,0.787037037,-0.136111111,0,0,0,,0,175,175,286,1,
,,,,,,,,,,,,,,,,,,5e8421d0df483e18852ff25e,2020-11-27_09h04.08.236,lexical_decision_task_MP_exp2,2020.2.5,Win32,60,m,1,0.81184,,,,,,,,0.81184,1,,,,,,184,WORD,UN,16,bother,SLEAZY,m,,,,,,0.787037037,-0.136111111,0,0,0,,0,176,176,183,1,
,,,,,,,,,,,,,,,,,,5e8421d0df483e18852ff25e,2020-11-27_09h04.08.236,lexical_decision_task_MP_exp2,2020.2.5,Win32,60,z,1,0.588295,,,,,,,,0.588295,1,,,,,,404,NW,UN,33,syntic,CLUIRM,z,,,,,,0.787037037,-0.136111111,0,0,0,,0,177,177,403,1,
,,,,,,,,,,,,,,,,,,5e8421d0df483e18852ff25e,2020-11-27_09h04.08.236,lexical_decision_task_MP_exp2,2020.2.5,Win32,60,z,1,0.830265,,,,,,,,0.830265,1,,,,,,420,NW,UN,33,pauche,GUSHOP,z,,,,,,0.787037037,-0.136111111,0,0,0,,0,178,178,419,1,
,,,,,,,,,,,,,,,,,,5e8421d0df483e18852ff25e,2020-11-27_09h04.08.236,lexical_decision_task_MP_exp2,2020.2.5,Win32,60,z,1,0.5028,,,,,,,,0.5028,1,,,,,,412,NW,UN,33,equats,JILUER,z,,,,,,0.787037037,-0.136111111,0,0,0,,0,179,179,411,1,
,,,,,,,,,,,,,,,,,,5e8421d0df483e18852ff25e,2020-11-27_09h04.08.236,lexical_decision_task_MP_exp2,2020.2.5,Win32,60,z,1,0.4914,,,,,,,,0.4914,1,,,,,,328,NW,"ID",16,broake,BROAKE,z,,,,,,0.787037037,-0.136111111,0,0,0,,0,180,180,327,1,
,,,,,,,,,,,,,,,,,,5e8421d0df483e18852ff25e,2020-11-27_09h04.08.236,lexical_decision_task_MP_exp2,2020.2.5,Win32,60,z,1,0.83321,,,,,,,,0.83321,1,,,,,,454,NW,UN,16,tondle,SCOUGE,z,,,,,,0.787037037,-0.136111111,0,0,0,,0,181,181,453,1,
,,,,,,,,,,,,,,,,,,5e8421d0df483e18852ff25e,2020-11-27_09h04.08.236,lexical_decision_task_MP_exp2,2020.2.5,Win32,60,z,1,0.537345,,,,,,,,0.537345,1,,,,,,460,NW,UN,16,justre,MINGAR,z,,,,,,0.787037037,-0.136111111,0,0,0,,0,182,182,459,1,
,,,,,,,,,,,,,,,,,,5e8421d0df483e18852ff25e,2020-11-27_09h04.08.236,lexical_decision_task_MP_exp2,2020.2.5,Win32,60,z,1,0.518495,,,,,,,,0.518495,1,,,,,,325,NW,"ID",16,thruse,THRUSE,z,,,,,,0.787037037,-0.136111111,0,0,0,,0,183,183,324,1,
,,,,,,,,,,,,,,,,,,5e8421d0df483e18852ff25e,2020-11-27_09h04.08.236,lexical_decision_task_MP_exp2,2020.2.5,Win32,60,z,1,0.46126,,,,,,,,0.46126,1,,,,,,455,NW,UN,16,broget,TONDLE,z,,,,,,0.787037037,-0.136111111,0,0,0,,0,184,184,454,1,
,,,,,,,,,,,,,,,,,,5e8421d0df483e18852ff25e,2020-11-27_09h04.08.236,lexical_decision_task_MP_exp2,2020.2.5,Win32,60,m,1,0.55617,,,,,,,,0.55617,1,,,,,,52,WORD,"ID",33,impose,IMPOSE,m,,,,,,0.787037037,-0.136111111,0,0,0,,0,185,185,51,1,
,,,,,,,,,,,,,,,,,,5e8421d0df483e18852ff25e,2020-11-27_09h04.08.236,lexical_decision_task_MP_exp2,2020.2.5,Win32,60,m,1,0.65281,,,,,,,,0.65281,1,,,,,,4,WORD,"ID",33,trench,TRENCH,m,,,,,,0.787037037,-0.136111111,0,0,0,,0,186,186,3,1,
,,,,,,,,,,,,,,,,,,5e8421d0df483e18852ff25e,2020-11-27_09h04.08.236,lexical_decision_task_MP_exp2,2020.2.5,Win32,60,z,1,0.75766,,,,,,,,0.75766,1,,,,,,432,NW,UN,16,drance,LUNKER,z,,,,,,0.787037037,-0.136111111,0,0,0,,0,187,187,431,1,
,,,,,,,,,,,,,,,,,,5e8421d0df483e18852ff25e,2020-11-27_09h04.08.236,lexical_decision_task_MP_exp2,2020.2.5,Win32,60,m,1,0.554035,,,,,,,,0.554035,1,,,,,,198,WORD,UN,16,invoke,WICKED,m,,,,,,0.787037037,-0.136111111,0,0,0,,0,188,188,197,1,
,,,,,,,,,,,,,,,,,,5e8421d0df483e18852ff25e,2020-11-27_09h04.08.236,lexical_decision_task_MP_exp2,2020.2.5,Win32,60,m,1,0.65558,,,,,,,,0.65558,1,,,,,,82,WORD,"ID",16,stigma,STIGMA,m,,,,,,0.787037037,-0.136111111,0,0,0,,0,189,189,81,1,
,,,,,,,,,,,,,,,,,,5e8421d0df483e18852ff25e,2020-11-27_09h04.08.236,lexical_decision_task_MP_exp2,2020.2.5,Win32,60,z,1,0.58229,,,,,,,,0.58229,1,,,,,,406,NW,UN,33,suiver,NOUPLY,z,,,,,,0.787037037,-0.136111111,0,0,0,,0,190,190,405,1,
,,,,,,,,,,,,,,,,,,5e8421d0df483e18852ff25e,2020-11-27_09h04.08.236,lexical_decision_task_MP_exp2,2020.2.5,Win32,60,z,1,0.58528,,,,,,,,0.58528,1,,,,,,251,NW,"ID",33,lupict,LUPICT,z,,,,,,0.787037037,-0.136111111,0,0,0,,0,191,191,250,1,
,,,,,,,,,,,,,,,,,,5e8421d0df483e18852ff25e,2020-11-27_09h04.08.236,lexical_decision_task_MP_exp2,2020.2.5,Win32,60,m,1,0.54588,,,,,,,,0.54588,1,,,,,,83,WORD,"ID",16,result,RESULT,m,,,,,,0.787037037,-0.136111111,0,0,0,,0,192,192,82,1,
,,,,,,,,,,,,,,,,,,5e8421d0df483e18852ff25e,2020-11-27_09h04.08.236,lexical_decision_task_MP_exp2,2020.2.5,Win32,60,m,1,0.64576,,,,,,,,0.64576,1,,,,,,217,WORD,UN,16,shrink,LIQUOR,m,,,,,,0.787037037,-0.136111111,0,0,0,,0,193,193,216,1,
,,,,,,,,,,,,,,,,,,5e8421d0df483e18852ff25e,2020-11-27_09h04.08.236,lexical_decision_task_MP_exp2,2020.2.5,Win32,60,z,1,0.66991,,,,,,,,0.66991,1,,,,,,439,NW,UN,16,saride,LIMPOR,z,,,,,,0.787037037,-0.136111111,0,0,0,,0,194,194,438,1,
,,,,,,,,,,,,,,,,,,5e8421d0df483e18852ff25e,2020-11-27_09h04.08.236,lexical_decision_task_MP_exp2,2020.2.5,Win32,60,m,1,0.78923,,,,,,,,0.78923,1,,,,,,87,WORD,"ID",16,filter,FILTER,m,,,,,,0.787037037,-0.136111111,0,0,0,,0,195,195,86,1,
,,,,,,,,,,,,,,,,,,5e8421d0df483e18852ff25e,2020-11-27_09h04.08.236,lexical_decision_task_MP_exp2,2020.2.5,Win32,60,z,1,0.551945,,,,,,,,0.551945,1,,,,,,310,NW,"ID",16,daniet,DANIET,z,,,,,,0.787037037,-0.136111111,0,0,0,,0,196,196,309,1,
,,,,,,,,,,,,,,,,,,5e8421d0df483e18852ff25e,2020-11-27_09h04.08.236,lexical_decision_task_MP_exp2,2020.2.5,Win32,60,z,1,0.604125,,,,,,,,0.604125,1,,,,,,323,NW,"ID",16,rosail,ROSAIL,z,,,,,,0.787037037,-0.136111111,0,0,0,,0,197,197,322,1,
,,,,,,,,,,,,,,,,,,5e8421d0df483e18852ff25e,2020-11-27_09h04.08.236,lexical_decision_task_MP_exp2,2020.2.5,Win32,60,m,1,0.558775,,,,,,,,0.558775,1,,,,,,104,WORD,"ID",16,studio,STUDIO,m,,,,,,0.787037037,-0.136111111,0,0,0,,0,198,198,103,1,
,,,,,,,,,,,,,,,,,,5e8421d0df483e18852ff25e,2020-11-27_09h04.08.236,lexical_decision_task_MP_exp2,2020.2.5,Win32,60,m,1,0.482555,,,,,,,,0.482555,1,,,,,,14,WORD,"ID",33,almost,ALMOST,m,,,,,,0.787037037,-0.136111111,0,0,0,,0,199,199,13,1,
,,,,,,,,,,,,,,,,,,5e8421d0df483e18852ff25e,2020-11-27_09h04.08.236,lexical_decision_task_MP_exp2,2020.2.5,Win32,60,m,1,0.44052,,,,,,,,0.44052,1,,,,,,12,WORD,"ID",33,orange,ORANGE,m,,,,,,0.787037037,-0.136111111,0,0,0,,0,200,200,11,1,
,,,,,,,,,,,,,,,,,,5e8421d0df483e18852ff25e,2020-11-27_09h04.08.236,lexical_decision_task_MP_exp2,2020.2.5,Win32,60,m,1,0.561395,,,,,,,,0.561395,1,,,,,,26,WORD,"ID",33,sprint,SPRINT,m,,,,,,0.787037037,-0.136111111,0,0,0,,0,201,201,25,1,
,,,,,,,,,,,,,,,,,,5e8421d0df483e18852ff25e,2020-11-27_09h04.08.236,lexical_decision_task_MP_exp2,2020.2.5,Win32,60,m,1,0.89233,,,,,,,,0.89233,1,,,,,,127,WORD,UN,33,senior,CASTLE,m,,,,,,0.787037037,-0.136111111,0,0,0,,0,202,202,126,1,
,,,,,,,,,,,,,,,,,,5e8421d0df483e18852ff25e,2020-11-27_09h04.08.236,lexical_decision_task_MP_exp2,2020.2.5,Win32,60,m,1,0.512105,,,,,,,,0.512105,1,,,,,,76,WORD,"ID",16,exotic,EXOTIC,m,,,,,,0.787037037,-0.136111111,0,0,0,,0,203,203,75,1,
,,,,,,,,,,,,,,,,,,5e8421d0df483e18852ff25e,2020-11-27_09h04.08.236,lexical_decision_task_MP_exp2,2020.2.5,Win32,60,z,1,0.607885,,,,,,,,0.607885,1,,,,,,405,NW,UN,33,nouply,FLUMNI,z,,,,,,0.787037037,-0.136111111,0,0,0,,0,204,204,404,1,
,,,,,,,,,,,,,,,,,,5e8421d0df483e18852ff25e,2020-11-27_09h04.08.236,lexical_decision_task_MP_exp2,2020.2.5,Win32,60,m,0,0.63855,,,,,,,,0.63855,0,,,,,,433,NW,UN,16,pitrom,DRANCE,z,,,,,,0.787037037,-0.136111111,0,0,0,,0,205,205,432,1,
,,,,,,,,,,,,,,,,,,5e8421d0df483e18852ff25e,2020-11-27_09h04.08.236,lexical_decision_task_MP_exp2,2020.2.5,Win32,60,z,1,0.60119,,,,,,,,0.60119,1,,,,,,272,NW,"ID",33,damilt,DAMILT,z,,,,,,0.787037037,-0.136111111,0,0,0,,0,206,206,271,1,
,,,,,,,,,,,,,,,,,,5e8421d0df483e18852ff25e,2020-11-27_09h04.08.236,lexical_decision_task_MP_exp2,2020.2.5,Win32,60,m,1,0.532345,,,,,,,,0.532345,1,,,,,,2,WORD,"ID",33,bridge,BRIDGE,m,,,,,,0.787037037,-0.136111111,0,0,0,,0,207,207,1,1,
,,,,,,,,,,,,,,,,,,5e8421d0df483e18852ff25e,2020-11-27_09h04.08.236,lexical_decision_task_MP_exp2,2020.2.5,Win32,60,z,1,0.57391,,,,,,,,0.57391,1,,,,,,337,NW,"ID",16,rejols,REJOLS,z,,,,,,0.787037037,-0.136111111,0,0,0,,0,208,208,336,1,
,,,,,,,,,,,,,,,,,,5e8421d0df483e18852ff25e,2020-11-27_09h04.08.236,lexical_decision_task_MP_exp2,2020.2.5,Win32,60,z,1,0.994095,,,,,,,,0.994095,1,,,,,,462,NW,UN,16,kispel,ABSULT,z,,,,,,0.787037037,-0.136111111,0,0,0,,0,209,209,461,1,
,,,,,,,,,,,,,,,,,,5e8421d0df483e18852ff25e,2020-11-27_09h04.08.236,lexical_decision_task_MP_exp2,2020.2.5,Win32,60,m,1,0.50688,,,,,,,,0.50688,1,,,,,,227,WORD,UN,16,master,SELDOM,m,,,,,,0.787037037,-0.136111111,0,0,0,,0,210,210,226,1,
,,,,,,,,,,,,,,,,,,5e8421d0df483e18852ff25e,2020-11-27_09h04.08.236,lexical_decision_task_MP_exp2,2020.2.5,Win32,60,m,1,0.505525,,,,,,,,0.505525,1,,,,,,18,WORD,"ID",33,humble,HUMBLE,m,,,,,,0.787037037,-0.136111111,0,0,0,,0,211,211,17,1,
,,,,,,,,,,,,,,,,,,5e8421d0df483e18852ff25e,2020-11-27_09h04.08.236,lexical_decision_task_MP_exp2,2020.2.5,Win32,60,m,1,0.63924,,,,,,,,0.63924,1,,,,,,158,WORD,UN,33,detail,ISLAND,m,,,,,,0.787037037,-0.136111111,0,0,0,,0,212,212,157,1,
,,,,,,,,,,,,,,,,,,5e8421d0df483e18852ff25e,2020-11-27_09h04.08.236,lexical_decision_task_MP_exp2,2020.2.5,Win32,60,z,1,0.54358,,,,,,,,0.54358,1,,,,,,374,NW,UN,33,yorque,SLIANT,z,,,,,,0.787037037,-0.136111111,0,0,0,,0,213,213,373,1,
,,,,,,,,,,,,,,,,,,5e8421d0df483e18852ff25e,2020-11-27_09h04.08.236,lexical_decision_task_MP_exp2,2020.2.5,Win32,60,z,1,0.691805,,,,,,,,0.691805,1,,,,,,268,NW,"ID",33,packes,PACKES,z,,,,,,0.787037037,-0.136111111,0,0,0,,0,214,214,267,1,
,,,,,,,,,,,,,,,,,,5e8421d0df483e18852ff25e,2020-11-27_09h04.08.236,lexical_decision_task_MP_exp2,2020.2.5,Win32,60,z,1,0.752275,,,,,,,,0.752275,1,,,,,,340,NW,"ID",16,fiatch,FIATCH,z,,,,,,0.787037037,-0.136111111,0,0,0,,0,215,215,339,1,
,,,,,,,,,,,,,,,,,,5e8421d0df483e18852ff25e,2020-11-27_09h04.08.236,lexical_decision_task_MP_exp2,2020.2.5,Win32,60,z,1,0.525895,,,,,,,,0.525895,1,,,,,,446,NW,UN,16,gircue,RUNAMO,z,,,,,,0.787037037,-0.136111111,0,0,0,,0,216,216,445,1,
,,,,,,,,,,,,,,,,,,5e8421d0df483e18852ff25e,2020-11-27_09h04.08.236,lexical_decision_task_MP_exp2,2020.2.5,Win32,60,z,1,0.722845,,,,,,,,0.722845,1,,,,,,291,NW,"ID",33,pretch,PRETCH,z,,,,,,0.787037037,-0.136111111,0,0,0,,0,217,217,290,1,
,,,,,,,,,,,,,,,,,,5e8421d0df483e18852ff25e,2020-11-27_09h04.08.236,lexical_decision_task_MP_exp2,2020.2.5,Win32,60,z,1,0.68647,,,,,,,,0.68647,1,,,,,,342,NW,"ID",16,randow,RANDOW,z,,,,,,0.787037037,-0.136111111,0,0,0,,0,218,218,341,1,
,,,,,,,,,,,,,,,,,,5e8421d0df483e18852ff25e,2020-11-27_09h04.08.236,lexical_decision_task_MP_exp2,2020.2.5,Win32,60,m,1,0.74971,,,,,,,,0.74971,1,,,,,,145,WORD,UN,33,couple,PARISH,m,,,,,,0.787037037,-0.136111111,0,0,0,,0,219,219,144,1,
,,,,,,,,,,,,,,,,,,5e8421d0df483e18852ff25e,2020-11-27_09h04.08.236,lexical_decision_task_MP_exp2,2020.2.5,Win32,60,m,1,0.457125,,,,,,,,0.457125,1,,,,,,213,WORD,UN,16,intake,SQUEAL,m,,,,,,0.787037037,-0.136111111,0,0,0,,0,220,220,212,1,
,,,,,,,,,,,,,,,,,,5e8421d0df483e18852ff25e,2020-11-27_09h04.08.236,lexical_decision_task_MP_exp2,2020.2.5,Win32,60,z,1,0.561515,,,,,,,,0.561515,1,,,,,,447,NW,UN,16,sadent,GIRCUE,z,,,,,,0.787037037,-0.136111111,0,0,0,,0,221,221,446,1,
,,,,,,,,,,,,,,,,,,5e8421d0df483e18852ff25e,2020-11-27_09h04.08.236,lexical_decision_task_MP_exp2,2020.2.5,Win32,60,m,1,0.51625,,,,,,,,0.51625,1,,,,,,218,WORD,UN,16,bucket,SHRINK,m,,,,,,0.787037037,-0.136111111,0,0,0,,0,222,222,217,1,
,,,,,,,,,,,,,,,,,,5e8421d0df483e18852ff25e,2020-11-27_09h04.08.236,lexical_decision_task_MP_exp2,2020.2.5,Win32,60,z,1,0.538305,,,,,,,,0.538305,1,,,,,,354,NW,"ID",16,virlex,VIRLEX,z,,,,,,0.787037037,-0.136111111,0,0,0,,0,223,223,353,1,
,,,,,,,,,,,,,,,,,,5e8421d0df483e18852ff25e,2020-11-27_09h04.08.236,lexical_decision_task_MP_exp2,2020.2.5,Win32,60,z,1,0.694405,,,,,,,,0.694405,1,,,,,,363,NW,UN,33,impote,BREALI,z,,,,,,0.787037037,-0.136111111,0,0,0,,0,224,224,362,1,
,,,,,,,,,,,,,,,,,,5e8421d0df483e18852ff25e,2020-11-27_09h04.08.236,lexical_decision_task_MP_exp2,2020.2.5,Win32,60,m,1,0.52572,,,,,,,,0.52572,1,,,,,,9,WORD,"ID",33,hustle,HUSTLE,m,,,,,,0.787037037,-0.136111111,0,0,0,,0,225,225,8,1,
,,,,,,,,,,,,,,,,,,5e8421d0df483e18852ff25e,2020-11-27_09h04.08.236,lexical_decision_task_MP_exp2,2020.2.5,Win32,60,m,1,0.56972,,,,,,,,0.56972,1,,,,,,153,WORD,UN,33,author,BEHOLD,m,,,,,,0.787037037,-0.136111111,0,0,0,,0,226,226,152,1,
,,,,,,,,,,,,,,,,,,5e8421d0df483e18852ff25e,2020-11-27_09h04.08.236,lexical_decision_task_MP_exp2,2020.2.5,Win32,60,z,1,0.50012,,,,,,,,0.50012,1,,,,,,387,NW,UN,33,cragin,GRONCE,z,,,,,,0.787037037,-0.136111111,0,0,0,,0,227,227,386,1,
,,,,,,,,,,,,,,,,,,5e8421d0df483e18852ff25e,2020-11-27_09h04.08.236,lexical_decision_task_MP_exp2,2020.2.5,Win32,60,z,1,0.577285,,,,,,,,0.577285,1,,,,,,379,NW,UN,33,cavory,AUTING,z,,,,,,0.787037037,-0.136111111,0,0,0,,0,228,228,378,1,
,,,,,,,,,,,,,,,,,,5e8421d0df483e18852ff25e,2020-11-27_09h04.08.236,lexical_decision_task_MP_exp2,2020.2.5,Win32,60,z,1,0.515875,,,,,,,,0.515875,1,,,,,,324,NW,"ID",16,steikh,STEIKH,z,,,,,,0.787037037,-0.136111111,0,0,0,,0,229,229,323,1,
,,,,,,,,,,,,,,,,,,5e8421d0df483e18852ff25e,2020-11-27_09h04.08.236,lexical_decision_task_MP_exp2,2020.2.5,Win32,60,z,1,0.672615,,,,,,,,0.672615,1,,,,,,378,NW,UN,33,auting,SHRILE,z,,,,,,0.787037037,-0.136111111,0,0,0,,0,230,230,377,1,
,,,,,,,,,,,,,,,,,,5e8421d0df483e18852ff25e,2020-11-27_09h04.08.236,lexical_decision_task_MP_exp2,2020.2.5,Win32,60,z,1,0.736245,,,,,,,,0.736245,1,,,,,,419,NW,UN,33,gushop,SLOUNT,z,,,,,,0.787037037,-0.136111111,0,0,0,,0,231,231,418,1,
,,,,,,,,,,,,,,,,,,5e8421d0df483e18852ff25e,2020-11-27_09h04.08.236,lexical_decision_task_MP_exp2,2020.2.5,Win32,60,z,1,0.548285,,,,,,,,0.548285,1,,,,,,255,NW,"ID",33,apight,APIGHT,z,,,,,,0.787037037,-0.136111111,0,0,0,,0,232,232,254,1,
,,,,,,,,,,,,,,,,,,5e8421d0df483e18852ff25e,2020-11-27_09h04.08.236,lexical_decision_task_MP_exp2,2020.2.5,Win32,60,m,1,0.685975,,,,,,,,0.685975,1,,,,,,195,WORD,UN,16,credit,RESIGN,m,,,,,,0.787037037,-0.136111111,0,0,0,,0,233,233,194,1,
,,,,,,,,,,,,,,,,,,5e8421d0df483e18852ff25e,2020-11-27_09h04.08.236,lexical_decision_task_MP_exp2,2020.2.5,Win32,60,m,1,0.534155,,,,,,,,0.534155,1,,,,,,8,WORD,"ID",33,abrupt,ABRUPT,m,,,,,,0.787037037,-0.136111111,0,0,0,,0,234,234,7,1,
,,,,,,,,,,,,,,,,,,5e8421d0df483e18852ff25e,2020-11-27_09h04.08.236,lexical_decision_task_MP_exp2,2020.2.5,Win32,60,m,1,0.450445,,,,,,,,0.450445,1,,,,,,168,WORD,UN,33,genius,ANSWER,m,,,,,,0.787037037,-0.136111111,0,0,0,,0,235,235,167,1,
,,,,,,,,,,,,,,,,,,5e8421d0df483e18852ff25e,2020-11-27_09h04.08.236,lexical_decision_task_MP_exp2,2020.2.5,Win32,60,m,1,0.47856,,,,,,,,0.47856,1,,,,,,43,WORD,"ID",33,tongue,TONGUE,m,,,,,,0.787037037,-0.136111111,0,0,0,,0,236,236,42,1,
,,,,,,,,,,,,,,,,,,5e8421d0df483e18852ff25e,2020-11-27_09h04.08.236,lexical_decision_task_MP_exp2,2020.2.5,Win32,60,z,1,0.51053,,,,,,,,0.51053,1,,,,,,443,NW,UN,16,jaunce,DORSEX,z,,,,,,0.787037037,-0.136111111,0,0,0,,0,237,237,442,1,
,,,,,,,,,,,,,,,,,,5e8421d0df483e18852ff25e,2020-11-27_09h04.08.236,lexical_decision_task_MP_exp2,2020.2.5,Win32,60,m,1,0.70072,,,,,,,,0.70072,1,,,,,,101,WORD,"ID",16,wrench,WRENCH,m,,,,,,0.787037037,-0.136111111,0,0,0,,0,238,238,100,1,
,,,,,,,,,,,,,,,,,,5e8421d0df483e18852ff25e,2020-11-27_09h04.08.236,lexical_decision_task_MP_exp2,2020.2.5,Win32,60,m,0,0.76295,,,,,,,,0.76295,0,,,,,,397,NW,UN,33,blunde,CAMBLE,z,,,,,,0.787037037,-0.136111111,0,0,0,,0,239,239,396,1,
,,,,,,,,,,,,,,,,,,5e8421d0df483e18852ff25e,2020-11-27_09h04.08.236,lexical_decision_task_MP_exp2,2020.2.5,Win32,60,z,1,0.67722,,,,,,,,0.67722,1,,,,,,366,NW,UN,33,slique,TOSHEL,z,,,,,,0.787037037,-0.136111111,0,0,0,,0,240,240,365,1,
,,,,,,,,,,,,,,,,,,5e8421d0df483e18852ff25e,2020-11-27_09h04.08.236,lexical_decision_task_MP_exp2,2020.2.5,Win32,60,m,1,0.61173,,,,,,,,0.61173,1,,,,,,119,WORD,"ID",16,spider,SPIDER,m,,,,,,0.787037037,-0.136111111,0,0,0,space,0,241,241,118,1,0.93946
,,,,,,,,,,,,,,,,,,5e8421d0df483e18852ff25e,2020-11-27_09h04.08.236,lexical_decision_task_MP_exp2,2020.2.5,Win32,60,m,1,0.59296,,,,,,,,0.59296,1,,,,,,150,WORD,UN,33,mystic,RANDOM,m,,,,,,0.787037037,-0.136111111,0,0,0,,0,242,242,149,1,
,,,,,,,,,,,,,,,,,,5e8421d0df483e18852ff25e,2020-11-27_09h04.08.236,lexical_decision_task_MP_exp2,2020.2.5,Win32,60,m,1,0.71354,,,,,,,,0.71354,1,,,,,,142,WORD,UN,33,orphan,SPRUCE,m,,,,,,0.787037037,-0.136111111,0,0,0,,0,243,243,141,1,
,,,,,,,,,,,,,,,,,,5e8421d0df483e18852ff25e,2020-11-27_09h04.08.236,lexical_decision_task_MP_exp2,2020.2.5,Win32,60,z,1,0.652695,,,,,,,,0.652695,1,,,,,,440,NW,UN,16,cainky,SARIDE,z,,,,,,0.787037037,-0.136111111,0,0,0,,0,244,244,439,1,
,,,,,,,,,,,,,,,,,,5e8421d0df483e18852ff25e,2020-11-27_09h04.08.236,lexical_decision_task_MP_exp2,2020.2.5,Win32,60,z,1,0.653945,,,,,,,,0.653945,1,,,,,,295,NW,"ID",33,gleath,GLEATH,z,,,,,,0.787037037,-0.136111111,0,0,0,,0,245,245,294,1,
,,,,,,,,,,,,,,,,,,5e8421d0df483e18852ff25e,2020-11-27_09h04.08.236,lexical_decision_task_MP_exp2,2020.2.5,Win32,60,m,0,0.756695,,,,,,,,0.756695,0,,,,,,266,NW,"ID",33,varmit,VARMIT,z,,,,,,0.787037037,-0.136111111,0,0,0,,0,246,246,265,1,
,,,,,,,,,,,,,,,,,,5e8421d0df483e18852ff25e,2020-11-27_09h04.08.236,lexical_decision_task_MP_exp2,2020.2.5,Win32,60,m,1,0.58416,,,,,,,,0.58416,1,,,,,,116,WORD,"ID",16,tumble,TUMBLE,m,,,,,,0.787037037,-0.136111111,0,0,0,,0,247,247,115,1,
,,,,,,,,,,,,,,,,,,5e8421d0df483e18852ff25e,2020-11-27_09h04.08.236,lexical_decision_task_MP_exp2,2020.2.5,Win32,60,z,1,0.681865,,,,,,,,0.681865,1,,,,,,473,NW,UN,16,hablin,CRIBLE,z,,,,,,0.787037037,-0.136111111,0,0,0,,0,248,248,472,1,
,,,,,,,,,,,,,,,,,,5e8421d0df483e18852ff25e,2020-11-27_09h04.08.236,lexical_decision_task_MP_exp2,2020.2.5,Win32,60,z,1,0.95416,,,,,,,,0.95416,1,,,,,,269,NW,"ID",33,orchet,ORCHET,z,,,,,,0.787037037,-0.136111111,0,0,0,,0,249,249,268,1,
,,,,,,,,,,,,,,,,,,5e8421d0df483e18852ff25e,2020-11-27_09h04.08.236,lexical_decision_task_MP_exp2,2020.2.5,Win32,60,z,1,0.5408,,,,,,,,0.5408,1,,,,,,296,NW,"ID",33,beinch,BEINCH,z,,,,,,0.787037037,-0.136111111,0,0,0,,0,250,250,295,1,
,,,,,,,,,,,,,,,,,,5e8421d0df483e18852ff25e,2020-11-27_09h04.08.236,lexical_decision_task_MP_exp2,2020.2.5,Win32,60,m,1,0.51404,,,,,,,,0.51404,1,,,,,,126,WORD,UN,33,castle,ENOUGH,m,,,,,,0.787037037,-0.136111111,0,0,0,,0,251,251,125,1,
,,,,,,,,,,,,,,,,,,5e8421d0df483e18852ff25e,2020-11-27_09h04.08.236,lexical_decision_task_MP_exp2,2020.2.5,Win32,60,m,1,0.479325,,,,,,,,0.479325,1,,,,,,17,WORD,"ID",33,charge,CHARGE,m,,,,,,0.787037037,-0.136111111,0,0,0,,0,252,252,16,1,
,,,,,,,,,,,,,,,,,,5e8421d0df483e18852ff25e,2020-11-27_09h04.08.236,lexical_decision_task_MP_exp2,2020.2.5,Win32,60,m,1,0.603505,,,,,,,,0.603505,1,,,,,,10,WORD,"ID",33,ethnic,ETHNIC,m,,,,,,0.787037037,-0.136111111,0,0,0,,0,253,253,9,1,
,,,,,,,,,,,,,,,,,,5e8421d0df483e18852ff25e,2020-11-27_09h04.08.236,lexical_decision_task_MP_exp2,2020.2.5,Win32,60,z,1,0.58904,,,,,,,,0.58904,1,,,,,,438,NW,UN,16,limpor,BAITCH,z,,,,,,0.787037037,-0.136111111,0,0,0,,0,254,254,437,1,
,,,,,,,,,,,,,,,,,,5e8421d0df483e18852ff25e,2020-11-27_09h04.08.236,lexical_decision_task_MP_exp2,2020.2.5,Win32,60,m,1,0.51297,,,,,,,,0.51297,1,,,,,,20,WORD,"ID",33,breast,BREAST,m,,,,,,0.787037037,-0.136111111,0,0,0,,0,255,255,19,1,
,,,,,,,,,,,,,,,,,,5e8421d0df483e18852ff25e,2020-11-27_09h04.08.236,lexical_decision_task_MP_exp2,2020.2.5,Win32,60,m,1,0.55676,,,,,,,,0.55676,1,,,,,,41,WORD,"ID",33,spring,SPRING,m,,,,,,0.787037037,-0.136111111,0,0,0,,0,256,256,40,1,
,,,,,,,,,,,,,,,,,,5e8421d0df483e18852ff25e,2020-11-27_09h04.08.236,lexical_decision_task_MP_exp2,2020.2.5,Win32,60,z,1,0.5028,,,,,,,,0.5028,1,,,,,,441,NW,UN,16,aboune,RASTOE,z,,,,,,0.787037037,-0.136111111,0,0,0,,0,257,257,440,1,
,,,,,,,,,,,,,,,,,,5e8421d0df483e18852ff25e,2020-11-27_09h04.08.236,lexical_decision_task_MP_exp2,2020.2.5,Win32,60,z,1,0.58888,,,,,,,,0.58888,1,,,,,,315,NW,"ID",16,laston,LASTON,z,,,,,,0.787037037,-0.136111111,0,0,0,,0,258,258,314,1,
,,,,,,,,,,,,,,,,,,5e8421d0df483e18852ff25e,2020-11-27_09h04.08.236,lexical_decision_task_MP_exp2,2020.2.5,Win32,60,m,1,0.59976,,,,,,,,0.59976,1,,,,,,24,WORD,"ID",33,praise,PRAISE,m,,,,,,0.787037037,-0.136111111,0,0,0,,0,259,259,23,1,
,,,,,,,,,,,,,,,,,,5e8421d0df483e18852ff25e,2020-11-27_09h04.08.236,lexical_decision_task_MP_exp2,2020.2.5,Win32,60,m,1,0.97937,,,,,,,,0.97937,1,,,,,,163,WORD,UN,33,market,STRING,m,,,,,,0.787037037,-0.136111111,0,0,0,,0,260,260,162,1,
,,,,,,,,,,,,,,,,,,5e8421d0df483e18852ff25e,2020-11-27_09h04.08.236,lexical_decision_task_MP_exp2,2020.2.5,Win32,60,z,1,0.66003,,,,,,,,0.66003,1,,,,,,297,NW,"ID",33,fertic,FERTIC,z,,,,,,0.787037037,-0.136111111,0,0,0,,0,261,261,296,1,
,,,,,,,,,,,,,,,,,,5e8421d0df483e18852ff25e,2020-11-27_09h04.08.236,lexical_decision_task_MP_exp2,2020.2.5,Win32,60,z,1,0.618265,,,,,,,,0.618265,1,,,,,,430,NW,UN,16,funtle,CAROEY,z,,,,,,0.787037037,-0.136111111,0,0,0,,0,262,262,429,1,
,,,,,,,,,,,,,,,,,,5e8421d0df483e18852ff25e,2020-11-27_09h04.08.236,lexical_decision_task_MP_exp2,2020.2.5,Win32,60,z,1,0.55561,,,,,,,,0.55561,1,,,,,,344,NW,"ID",16,scrily,SCRILY,z,,,,,,0.787037037,-0.136111111,0,0,0,,0,263,263,343,1,
,,,,,,,,,,,,,,,,,,5e8421d0df483e18852ff25e,2020-11-27_09h04.08.236,lexical_decision_task_MP_exp2,2020.2.5,Win32,60,z,1,0.46463,,,,,,,,0.46463,1,,,,,,463,NW,UN,16,bafent,KISPEL,z,,,,,,0.787037037,-0.136111111,0,0,0,,0,264,264,462,1,
,,,,,,,,,,,,,,,,,,5e8421d0df483e18852ff25e,2020-11-27_09h04.08.236,lexical_decision_task_MP_exp2,2020.2.5,Win32,60,m,1,0.63189,,,,,,,,0.63189,1,,,,,,78,WORD,"ID",16,column,COLUMN,m,,,,,,0.787037037,-0.136111111,0,0,0,,0,265,265,77,1,
,,,,,,,,,,,,,,,,,,5e8421d0df483e18852ff25e,2020-11-27_09h04.08.236,lexical_decision_task_MP_exp2,2020.2.5,Win32,60,z,1,0.67254,,,,,,,,0.67254,1,,,,,,308,NW,"ID",16,psetch,PSETCH,z,,,,,,0.787037037,-0.136111111,0,0,0,,0,266,266,307,1,
,,,,,,,,,,,,,,,,,,5e8421d0df483e18852ff25e,2020-11-27_09h04.08.236,lexical_decision_task_MP_exp2,2020.2.5,Win32,60,m,1,0.632185,,,,,,,,0.632185,1,,,,,,59,WORD,"ID",33,splint,SPLINT,m,,,,,,0.787037037,-0.136111111,0,0,0,,0,267,267,58,1,
,,,,,,,,,,,,,,,,,,5e8421d0df483e18852ff25e,2020-11-27_09h04.08.236,lexical_decision_task_MP_exp2,2020.2.5,Win32,60,m,1,0.54358,,,,,,,,0.54358,1,,,,,,93,WORD,"ID",16,public,PUBLIC,m,,,,,,0.787037037,-0.136111111,0,0,0,,0,268,268,92,1,
,,,,,,,,,,,,,,,,,,5e8421d0df483e18852ff25e,2020-11-27_09h04.08.236,lexical_decision_task_MP_exp2,2020.2.5,Win32,60,m,0,0.523795,,,,,,,,0.523795,0,,,,,,425,NW,UN,16,schind,FRUDGE,z,,,,,,0.787037037,-0.136111111,0,0,0,,0,269,269,424,1,
,,,,,,,,,,,,,,,,,,5e8421d0df483e18852ff25e,2020-11-27_09h04.08.236,lexical_decision_task_MP_exp2,2020.2.5,Win32,60,z,1,0.719745,,,,,,,,0.719745,1,,,,,,396,NW,UN,33,camble,FLENGY,z,,,,,,0.787037037,-0.136111111,0,0,0,,0,270,270,395,1,
,,,,,,,,,,,,,,,,,,5e8421d0df483e18852ff25e,2020-11-27_09h04.08.236,lexical_decision_task_MP_exp2,2020.2.5,Win32,60,m,1,0.55694,,,,,,,,0.55694,1,,,,,,110,WORD,"ID",16,polite,POLITE,m,,,,,,0.787037037,-0.136111111,0,0,0,,0,271,271,109,1,
,,,,,,,,,,,,,,,,,,5e8421d0df483e18852ff25e,2020-11-27_09h04.08.236,lexical_decision_task_MP_exp2,2020.2.5,Win32,60,z,1,0.985355,,,,,,,,0.985355,1,,,,,,285,NW,"ID",33,prudge,PRUDGE,z,,,,,,0.787037037,-0.136111111,0,0,0,,0,272,272,284,1,
,,,,,,,,,,,,,,,,,,5e8421d0df483e18852ff25e,2020-11-27_09h04.08.236,lexical_decision_task_MP_exp2,2020.2.5,Win32,60,m,1,0.683835,,,,,,,,0.683835,1,,,,,,148,WORD,UN,33,invade,CUSTOM,m,,,,,,0.787037037,-0.136111111,0,0,0,,0,273,273,147,1,
,,,,,,,,,,,,,,,,,,5e8421d0df483e18852ff25e,2020-11-27_09h04.08.236,lexical_decision_task_MP_exp2,2020.2.5,Win32,60,z,1,0.5366,,,,,,,,0.5366,1,,,,,,350,NW,"ID",16,nagurs,NAGURS,z,,,,,,0.787037037,-0.136111111,0,0,0,,0,274,274,349,1,
,,,,,,,,,,,,,,,,,,5e8421d0df483e18852ff25e,2020-11-27_09h04.08.236,lexical_decision_task_MP_exp2,2020.2.5,Win32,60,z,1,0.574465,,,,,,,,0.574465,1,,,,,,267,NW,"ID",33,pasink,PASINK,z,,,,,,0.787037037,-0.136111111,0,0,0,,0,275,275,266,1,
,,,,,,,,,,,,,,,,,,5e8421d0df483e18852ff25e,2020-11-27_09h04.08.236,lexical_decision_task_MP_exp2,2020.2.5,Win32,60,m,1,0.552675,,,,,,,,0.552675,1,,,,,,144,WORD,UN,33,parish,SPONGE,m,,,,,,0.787037037,-0.136111111,0,0,0,,0,276,276,143,1,
,,,,,,,,,,,,,,,,,,5e8421d0df483e18852ff25e,2020-11-27_09h04.08.236,lexical_decision_task_MP_exp2,2020.2.5,Win32,60,m,1,0.523585,,,,,,,,0.523585,1,,,,,,115,WORD,"ID",16,guitar,GUITAR,m,,,,,,0.787037037,-0.136111111,0,0,0,,0,277,277,114,1,
,,,,,,,,,,,,,,,,,,5e8421d0df483e18852ff25e,2020-11-27_09h04.08.236,lexical_decision_task_MP_exp2,2020.2.5,Win32,60,z,1,0.554085,,,,,,,,0.554085,1,,,,,,448,NW,UN,16,brunge,SADENT,z,,,,,,0.787037037,-0.136111111,0,0,0,,0,278,278,447,1,
,,,,,,,,,,,,,,,,,,5e8421d0df483e18852ff25e,2020-11-27_09h04.08.236,lexical_decision_task_MP_exp2,2020.2.5,Win32,60,m,1,0.43682,,,,,,,,0.43682,1,,,,,,88,WORD,"ID",16,hunger,HUNGER,m,,,,,,0.787037037,-0.136111111,0,0,0,,0,279,279,87,1,
,,,,,,,,,,,,,,,,,,5e8421d0df483e18852ff25e,2020-11-27_09h04.08.236,lexical_decision_task_MP_exp2,2020.2.5,Win32,60,z,1,1.221825,,,,,,,,1.221825,1,,,,,,413,NW,UN,33,serbol,EQUATS,z,,,,,,0.787037037,-0.136111111,0,0,0,,0,280,280,412,1,
,,,,,,,,,,,,,,,,,,5e8421d0df483e18852ff25e,2020-11-27_09h04.08.236,lexical_decision_task_MP_exp2,2020.2.5,Win32,60,z,1,0.89616,,,,,,,,0.89616,1,,,,,,246,NW,"ID",33,piaton,PIATON,z,,,,,,0.787037037,-0.136111111,0,0,0,,0,281,281,245,1,
,,,,,,,,,,,,,,,,,,5e8421d0df483e18852ff25e,2020-11-27_09h04.08.236,lexical_decision_task_MP_exp2,2020.2.5,Win32,60,m,1,0.819355,,,,,,,,0.819355,1,,,,,,222,WORD,UN,16,casino,HINDER,m,,,,,,0.787037037,-0.136111111,0,0,0,,0,282,282,221,1,
,,,,,,,,,,,,,,,,,,5e8421d0df483e18852ff25e,2020-11-27_09h04.08.236,lexical_decision_task_MP_exp2,2020.2.5,Win32,60,z,1,0.72568,,,,,,,,0.72568,1,,,,,,247,NW,"ID",33,blarge,BLARGE,z,,,,,,0.787037037,-0.136111111,0,0,0,,0,283,283,246,1,
,,,,,,,,,,,,,,,,,,5e8421d0df483e18852ff25e,2020-11-27_09h04.08.236,lexical_decision_task_MP_exp2,2020.2.5,Win32,60,z,1,0.62653,,,,,,,,0.62653,1,,,,,,461,NW,UN,16,absult,JUSTRE,z,,,,,,0.787037037,-0.136111111,0,0,0,,0,284,284,460,1,
,,,,,,,,,,,,,,,,,,5e8421d0df483e18852ff25e,2020-11-27_09h04.08.236,lexical_decision_task_MP_exp2,2020.2.5,Win32,60,m,1,0.49208,,,,,,,,0.49208,1,,,,,,49,WORD,"ID",33,survey,SURVEY,m,,,,,,0.787037037,-0.136111111,0,0,0,,0,285,285,48,1,
,,,,,,,,,,,,,,,,,,5e8421d0df483e18852ff25e,2020-11-27_09h04.08.236,lexical_decision_task_MP_exp2,2020.2.5,Win32,60,m,1,0.44935,,,,,,,,0.44935,1,,,,,,91,WORD,"ID",16,expand,EXPAND,m,,,,,,0.787037037,-0.136111111,0,0,0,,0,286,286,90,1,
,,,,,,,,,,,,,,,,,,5e8421d0df483e18852ff25e,2020-11-27_09h04.08.236,lexical_decision_task_MP_exp2,2020.2.5,Win32,60,m,1,0.56108,,,,,,,,0.56108,1,,,,,,81,WORD,"ID",16,friend,FRIEND,m,,,,,,0.787037037,-0.136111111,0,0,0,,0,287,287,80,1,
,,,,,,,,,,,,,,,,,,5e8421d0df483e18852ff25e,2020-11-27_09h04.08.236,lexical_decision_task_MP_exp2,2020.2.5,Win32,60,m,1,0.500545,,,,,,,,0.500545,1,,,,,,69,WORD,"ID",16,plenty,PLENTY,m,,,,,,0.787037037,-0.136111111,0,0,0,,0,288,288,68,1,
,,,,,,,,,,,,,,,,,,5e8421d0df483e18852ff25e,2020-11-27_09h04.08.236,lexical_decision_task_MP_exp2,2020.2.5,Win32,60,z,1,0.507035,,,,,,,,0.507035,1,,,,,,282,NW,"ID",33,porlex,PORLEX,z,,,,,,0.787037037,-0.136111111,0,0,0,,0,289,289,281,1,
,,,,,,,,,,,,,,,,,,5e8421d0df483e18852ff25e,2020-11-27_09h04.08.236,lexical_decision_task_MP_exp2,2020.2.5,Win32,60,z,1,0.583965,,,,,,,,0.583965,1,,,,,,416,NW,UN,33,earoud,PATHEL,z,,,,,,0.787037037,-0.136111111,0,0,0,,0,290,290,415,1,
,,,,,,,,,,,,,,,,,,5e8421d0df483e18852ff25e,2020-11-27_09h04.08.236,lexical_decision_task_MP_exp2,2020.2.5,Win32,60,z,1,0.546465,,,,,,,,0.546465,1,,,,,,273,NW,"ID",33,sortel,SORTEL,z,,,,,,0.787037037,-0.136111111,0,0,0,,0,291,291,272,1,
,,,,,,,,,,,,,,,,,,5e8421d0df483e18852ff25e,2020-11-27_09h04.08.236,lexical_decision_task_MP_exp2,2020.2.5,Win32,60,m,1,0.646045,,,,,,,,0.646045,1,,,,,,239,WORD,UN,16,forest,LUMBER,m,,,,,,0.787037037,-0.136111111,0,0,0,,0,292,292,238,1,
,,,,,,,,,,,,,,,,,,5e8421d0df483e18852ff25e,2020-11-27_09h04.08.236,lexical_decision_task_MP_exp2,2020.2.5,Win32,60,z,1,0.51717,,,,,,,,0.51717,1,,,,,,382,NW,UN,33,aungre,SARLEY,z,,,,,,0.787037037,-0.136111111,0,0,0,,0,293,293,381,1,
,,,,,,,,,,,,,,,,,,5e8421d0df483e18852ff25e,2020-11-27_09h04.08.236,lexical_decision_task_MP_exp2,2020.2.5,Win32,60,m,1,0.48256,,,,,,,,0.48256,1,,,,,,133,WORD,UN,33,debris,CHROME,m,,,,,,0.787037037,-0.136111111,0,0,0,,0,294,294,132,1,
,,,,,,,,,,,,,,,,,,5e8421d0df483e18852ff25e,2020-11-27_09h04.08.236,lexical_decision_task_MP_exp2,2020.2.5,Win32,60,m,1,0.463945,,,,,,,,0.463945,1,,,,,,15,WORD,"ID",33,amount,AMOUNT,m,,,,,,0.787037037,-0.136111111,0,0,0,,0,295,295,14,1,
,,,,,,,,,,,,,,,,,,5e8421d0df483e18852ff25e,2020-11-27_09h04.08.236,lexical_decision_task_MP_exp2,2020.2.5,Win32,60,m,1,0.454735,,,,,,,,0.454735,1,,,,,,196,WORD,UN,16,stream,CREDIT,m,,,,,,0.787037037,-0.136111111,0,0,0,,0,296,296,195,1,
,,,,,,,,,,,,,,,,,,5e8421d0df483e18852ff25e,2020-11-27_09h04.08.236,lexical_decision_task_MP_exp2,2020.2.5,Win32,60,m,1,0.454905,,,,,,,,0.454905,1,,,,,,39,WORD,"ID",33,insect,INSECT,m,,,,,,0.787037037,-0.136111111,0,0,0,,0,297,297,38,1,
,,,,,,,,,,,,,,,,,,5e8421d0df483e18852ff25e,2020-11-27_09h04.08.236,lexical_decision_task_MP_exp2,2020.2.5,Win32,60,m,1,0.526255,,,,,,,,0.526255,1,,,,,,129,WORD,UN,33,stupid,MARVEL,m,,,,,,0.787037037,-0.136111111,0,0,0,,0,298,298,128,1,
,,,,,,,,,,,,,,,,,,5e8421d0df483e18852ff25e,2020-11-27_09h04.08.236,lexical_decision_task_MP_exp2,2020.2.5,Win32,60,m,1,0.521555,,,,,,,,0.521555,1,,,,,,235,WORD,UN,16,pirate,GRUMPY,m,,,,,,0.787037037,-0.136111111,0,0,0,,0,299,299,234,1,
,,,,,,,,,,,,,,,,,,5e8421d0df483e18852ff25e,2020-11-27_09h04.08.236,lexical_decision_task_MP_exp2,2020.2.5,Win32,60,m,1,0.53596,,,,,,,,0.53596,1,,,,,,68,WORD,"ID",16,fumble,FUMBLE,m,,,,,,0.787037037,-0.136111111,0,0,0,,0,300,300,67,1,
,,,,,,,,,,,,,,,,,,5e8421d0df483e18852ff25e,2020-11-27_09h04.08.236,lexical_decision_task_MP_exp2,2020.2.5,Win32,60,z,1,0.54826,,,,,,,,0.54826,1,,,,,,358,NW,"ID",16,fleack,FLEACK,z,,,,,,0.787037037,-0.136111111,0,0,0,,0,301,301,357,1,
,,,,,,,,,,,,,,,,,,5e8421d0df483e18852ff25e,2020-11-27_09h04.08.236,lexical_decision_task_MP_exp2,2020.2.5,Win32,60,z,1,0.473135,,,,,,,,0.473135,1,,,,,,302,NW,"ID",16,miluer,MILUER,z,,,,,,0.787037037,-0.136111111,0,0,0,,0,302,302,301,1,
,,,,,,,,,,,,,,,,,,5e8421d0df483e18852ff25e,2020-11-27_09h04.08.236,lexical_decision_task_MP_exp2,2020.2.5,Win32,60,m,1,0.735755,,,,,,,,0.735755,1,,,,,,162,WORD,UN,33,string,CANDLE,m,,,,,,0.787037037,-0.136111111,0,0,0,,0,303,303,161,1,
,,,,,,,,,,,,,,,,,,5e8421d0df483e18852ff25e,2020-11-27_09h04.08.236,lexical_decision_task_MP_exp2,2020.2.5,Win32,60,m,1,0.51598,,,,,,,,0.51598,1,,,,,,72,WORD,"ID",16,bright,BRIGHT,m,,,,,,0.787037037,-0.136111111,0,0,0,,0,304,304,71,1,
,,,,,,,,,,,,,,,,,,5e8421d0df483e18852ff25e,2020-11-27_09h04.08.236,lexical_decision_task_MP_exp2,2020.2.5,Win32,60,z,1,0.60036,,,,,,,,0.60036,1,,,,,,333,NW,"ID",16,catrie,CATRIE,z,,,,,,0.787037037,-0.136111111,0,0,0,,0,305,305,332,1,
,,,,,,,,,,,,,,,,,,5e8421d0df483e18852ff25e,2020-11-27_09h04.08.236,lexical_decision_task_MP_exp2,2020.2.5,Win32,60,z,1,0.47702,,,,,,,,0.47702,1,,,,,,361,NW,UN,33,tireau,PAUCHE,z,,,,,,0.787037037,-0.136111111,0,0,0,,0,306,306,360,1,
,,,,,,,,,,,,,,,,,,5e8421d0df483e18852ff25e,2020-11-27_09h04.08.236,lexical_decision_task_MP_exp2,2020.2.5,Win32,60,z,1,0.51348,,,,,,,,0.51348,1,,,,,,370,NW,UN,33,geiloy,SLEACT,z,,,,,,0.787037037,-0.136111111,0,0,0,,0,307,307,369,1,
,,,,,,,,,,,,,,,,,,5e8421d0df483e18852ff25e,2020-11-27_09h04.08.236,lexical_decision_task_MP_exp2,2020.2.5,Win32,60,m,1,0.49408,,,,,,,,0.49408,1,,,,,,71,WORD,"ID",16,garden,GARDEN,m,,,,,,0.787037037,-0.136111111,0,0,0,,0,308,308,70,1,
,,,,,,,,,,,,,,,,,,5e8421d0df483e18852ff25e,2020-11-27_09h04.08.236,lexical_decision_task_MP_exp2,2020.2.5,Win32,60,z,1,0.596905,,,,,,,,0.596905,1,,,,,,271,NW,"ID",33,aubrid,AUBRID,z,,,,,,0.787037037,-0.136111111,0,0,0,,0,309,309,270,1,
,,,,,,,,,,,,,,,,,,5e8421d0df483e18852ff25e,2020-11-27_09h04.08.236,lexical_decision_task_MP_exp2,2020.2.5,Win32,60,z,1,0.53431,,,,,,,,0.53431,1,,,,,,335,NW,"ID",16,desion,DESION,z,,,,,,0.787037037,-0.136111111,0,0,0,,0,310,310,334,1,
,,,,,,,,,,,,,,,,,,5e8421d0df483e18852ff25e,2020-11-27_09h04.08.236,lexical_decision_task_MP_exp2,2020.2.5,Win32,60,z,1,0.570925,,,,,,,,0.570925,1,,,,,,422,NW,UN,16,streld,ALCOUD,z,,,,,,0.787037037,-0.136111111,0,0,0,,0,311,311,421,1,
,,,,,,,,,,,,,,,,,,5e8421d0df483e18852ff25e,2020-11-27_09h04.08.236,lexical_decision_task_MP_exp2,2020.2.5,Win32,60,z,1,0.54233,,,,,,,,0.54233,1,,,,,,276,NW,"ID",33,yarmon,YARMON,z,,,,,,0.787037037,-0.136111111,0,0,0,,0,312,312,275,1,
,,,,,,,,,,,,,,,,,,5e8421d0df483e18852ff25e,2020-11-27_09h04.08.236,lexical_decision_task_MP_exp2,2020.2.5,Win32,60,m,1,0.49851,,,,,,,,0.49851,1,,,,,,182,WORD,UN,16,basket,WINTER,m,,,,,,0.787037037,-0.136111111,0,0,0,,0,313,313,181,1,
,,,,,,,,,,,,,,,,,,5e8421d0df483e18852ff25e,2020-11-27_09h04.08.236,lexical_decision_task_MP_exp2,2020.2.5,Win32,60,z,1,0.557745,,,,,,,,0.557745,1,,,,,,467,NW,UN,16,wictor,GORBIE,z,,,,,,0.787037037,-0.136111111,0,0,0,,0,314,314,466,1,
,,,,,,,,,,,,,,,,,,5e8421d0df483e18852ff25e,2020-11-27_09h04.08.236,lexical_decision_task_MP_exp2,2020.2.5,Win32,60,m,1,0.676155,,,,,,,,0.676155,1,,,,,,124,WORD,UN,33,nickel,BLOUSE,m,,,,,,0.787037037,-0.136111111,0,0,0,,0,315,315,123,1,
,,,,,,,,,,,,,,,,,,5e8421d0df483e18852ff25e,2020-11-27_09h04.08.236,lexical_decision_task_MP_exp2,2020.2.5,Win32,60,z,1,0.61294,,,,,,,,0.61294,1,,,,,,395,NW,UN,33,flengy,COLURY,z,,,,,,0.787037037,-0.136111111,0,0,0,,0,316,316,394,1,
,,,,,,,,,,,,,,,,,,5e8421d0df483e18852ff25e,2020-11-27_09h04.08.236,lexical_decision_task_MP_exp2,2020.2.5,Win32,60,m,1,0.570855,,,,,,,,0.570855,1,,,,,,25,WORD,"ID",33,domain,DOMAIN,m,,,,,,0.787037037,-0.136111111,0,0,0,,0,317,317,24,1,
,,,,,,,,,,,,,,,,,,5e8421d0df483e18852ff25e,2020-11-27_09h04.08.236,lexical_decision_task_MP_exp2,2020.2.5,Win32,60,z,1,0.572525,,,,,,,,0.572525,1,,,,,,336,NW,"ID",16,ghodus,GHODUS,z,,,,,,0.787037037,-0.136111111,0,0,0,,0,318,318,335,1,
,,,,,,,,,,,,,,,,,,5e8421d0df483e18852ff25e,2020-11-27_09h04.08.236,lexical_decision_task_MP_exp2,2020.2.5,Win32,60,m,1,0.514285,,,,,,,,0.514285,1,,,,,,37,WORD,"ID",33,insult,INSULT,m,,,,,,0.787037037,-0.136111111,0,0,0,,0,319,319,36,1,
,,,,,,,,,,,,,,,,,,5e8421d0df483e18852ff25e,2020-11-27_09h04.08.236,lexical_decision_task_MP_exp2,2020.2.5,Win32,60,z,1,0.701855,,,,,,,,0.701855,1,,,,,,355,NW,"ID",16,zingly,ZINGLY,z,,,,,,0.787037037,-0.136111111,0,0,0,,0,320,320,354,1,
,,,,,,,,,,,,,,,,,,5e8421d0df483e18852ff25e,2020-11-27_09h04.08.236,lexical_decision_task_MP_exp2,2020.2.5,Win32,60,z,1,0.436375,,,,,,,,0.436375,1,,,,,,270,NW,"ID",33,wrimsy,WRIMSY,z,,,,,,0.787037037,-0.136111111,0,0,0,,0,321,321,269,1,
,,,,,,,,,,,,,,,,,,5e8421d0df483e18852ff25e,2020-11-27_09h04.08.236,lexical_decision_task_MP_exp2,2020.2.5,Win32,60,m,1,0.531575,,,,,,,,0.531575,1,,,,,,185,WORD,UN,16,portal,BOTHER,m,,,,,,0.787037037,-0.136111111,0,0,0,,0,322,322,184,1,
,,,,,,,,,,,,,,,,,,5e8421d0df483e18852ff25e,2020-11-27_09h04.08.236,lexical_decision_task_MP_exp2,2020.2.5,Win32,60,m,1,0.463895,,,,,,,,0.463895,1,,,,,,102,WORD,"ID",16,direct,DIRECT,m,,,,,,0.787037037,-0.136111111,0,0,0,,0,323,323,101,1,
,,,,,,,,,,,,,,,,,,5e8421d0df483e18852ff25e,2020-11-27_09h04.08.236,lexical_decision_task_MP_exp2,2020.2.5,Win32,60,z,1,0.57527,,,,,,,,0.57527,1,,,,,,319,NW,"ID",16,zomber,ZOMBER,z,,,,,,0.787037037,-0.136111111,0,0,0,,0,324,324,318,1,
,,,,,,,,,,,,,,,,,,5e8421d0df483e18852ff25e,2020-11-27_09h04.08.236,lexical_decision_task_MP_exp2,2020.2.5,Win32,60,z,1,0.72494,,,,,,,,0.72494,1,,,,,,265,NW,"ID",33,distar,DISTAR,z,,,,,,0.787037037,-0.136111111,0,0,0,,0,325,325,264,1,
,,,,,,,,,,,,,,,,,,5e8421d0df483e18852ff25e,2020-11-27_09h04.08.236,lexical_decision_task_MP_exp2,2020.2.5,Win32,60,m,1,0.51192,,,,,,,,0.51192,1,,,,,,199,WORD,UN,16,beacon,INVOKE,m,,,,,,0.787037037,-0.136111111,0,0,0,,0,326,326,198,1,
,,,,,,,,,,,,,,,,,,5e8421d0df483e18852ff25e,2020-11-27_09h04.08.236,lexical_decision_task_MP_exp2,2020.2.5,Win32,60,z,1,0.739735,,,,,,,,0.739735,1,,,,,,320,NW,"ID",16,jockal,JOCKAL,z,,,,,,0.787037037,-0.136111111,0,0,0,,0,327,327,319,1,
,,,,,,,,,,,,,,,,,,5e8421d0df483e18852ff25e,2020-11-27_09h04.08.236,lexical_decision_task_MP_exp2,2020.2.5,Win32,60,z,1,0.73644,,,,,,,,0.73644,1,,,,,,321,NW,"ID",16,miator,MIATOR,z,,,,,,0.787037037,-0.136111111,0,0,0,,0,328,328,320,1,
,,,,,,,,,,,,,,,,,,5e8421d0df483e18852ff25e,2020-11-27_09h04.08.236,lexical_decision_task_MP_exp2,2020.2.5,Win32,60,m,1,0.60628,,,,,,,,0.60628,1,,,,,,108,WORD,"ID",16,reckon,RECKON,m,,,,,,0.787037037,-0.136111111,0,0,0,,0,329,329,107,1,
,,,,,,,,,,,,,,,,,,5e8421d0df483e18852ff25e,2020-11-27_09h04.08.236,lexical_decision_task_MP_exp2,2020.2.5,Win32,60,z,1,0.649095,,,,,,,,0.649095,1,,,,,,348,NW,"ID",16,dumple,DUMPLE,z,,,,,,0.787037037,-0.136111111,0,0,0,,0,330,330,347,1,
,,,,,,,,,,,,,,,,,,5e8421d0df483e18852ff25e,2020-11-27_09h04.08.236,lexical_decision_task_MP_exp2,2020.2.5,Win32,60,m,1,0.609,,,,,,,,0.609,1,,,,,,120,WORD,"ID",16,strain,STRAIN,m,,,,,,0.787037037,-0.136111111,0,0,0,,0,331,331,119,1,
,,,,,,,,,,,,,,,,,,5e8421d0df483e18852ff25e,2020-11-27_09h04.08.236,lexical_decision_task_MP_exp2,2020.2.5,Win32,60,m,1,0.49023,,,,,,,,0.49023,1,,,,,,62,WORD,"ID",16,region,REGION,m,,,,,,0.787037037,-0.136111111,0,0,0,,0,332,332,61,1,
,,,,,,,,,,,,,,,,,,5e8421d0df483e18852ff25e,2020-11-27_09h04.08.236,lexical_decision_task_MP_exp2,2020.2.5,Win32,60,z,0,0.641345,,,,,,,,0.641345,0,,,,,,92,WORD,"ID",16,strand,STRAND,m,,,,,,0.787037037,-0.136111111,0,0,0,,0,333,333,91,1,
,,,,,,,,,,,,,,,,,,5e8421d0df483e18852ff25e,2020-11-27_09h04.08.236,lexical_decision_task_MP_exp2,2020.2.5,Win32,60,m,1,0.946895,,,,,,,,0.946895,1,,,,,,220,WORD,UN,16,mascot,VOYAGE,m,,,,,,0.787037037,-0.136111111,0,0,0,,0,334,334,219,1,
,,,,,,,,,,,,,,,,,,5e8421d0df483e18852ff25e,2020-11-27_09h04.08.236,lexical_decision_task_MP_exp2,2020.2.5,Win32,60,m,1,0.590155,,,,,,,,0.590155,1,,,,,,149,WORD,UN,33,random,INVADE,m,,,,,,0.787037037,-0.136111111,0,0,0,,0,335,335,148,1,
,,,,,,,,,,,,,,,,,,5e8421d0df483e18852ff25e,2020-11-27_09h04.08.236,lexical_decision_task_MP_exp2,2020.2.5,Win32,60,m,1,0.638995,,,,,,,,0.638995,1,,,,,,74,WORD,"ID",16,plaque,PLAQUE,m,,,,,,0.787037037,-0.136111111,0,0,0,,0,336,336,73,1,
,,,,,,,,,,,,,,,,,,5e8421d0df483e18852ff25e,2020-11-27_09h04.08.236,lexical_decision_task_MP_exp2,2020.2.5,Win32,60,m,1,0.870655,,,,,,,,0.870655,1,,,,,,154,WORD,UN,33,lizard,AUTHOR,m,,,,,,0.787037037,-0.136111111,0,0,0,,0,337,337,153,1,
,,,,,,,,,,,,,,,,,,5e8421d0df483e18852ff25e,2020-11-27_09h04.08.236,lexical_decision_task_MP_exp2,2020.2.5,Win32,60,m,1,0.50307,,,,,,,,0.50307,1,,,,,,151,WORD,UN,33,rocket,MYSTIC,m,,,,,,0.787037037,-0.136111111,0,0,0,,0,338,338,150,1,
,,,,,,,,,,,,,,,,,,5e8421d0df483e18852ff25e,2020-11-27_09h04.08.236,lexical_decision_task_MP_exp2,2020.2.5,Win32,60,z,1,0.579725,,,,,,,,0.579725,1,,,,,,318,NW,"ID",16,reagly,REAGLY,z,,,,,,0.787037037,-0.136111111,0,0,0,,0,339,339,317,1,
,,,,,,,,,,,,,,,,,,5e8421d0df483e18852ff25e,2020-11-27_09h04.08.236,lexical_decision_task_MP_exp2,2020.2.5,Win32,60,z,1,0.63008,,,,,,,,0.63008,1,,,,,,477,NW,UN,16,acrise,PHOTIE,z,,,,,,0.787037037,-0.136111111,0,0,0,,0,340,340,476,1,
,,,,,,,,,,,,,,,,,,5e8421d0df483e18852ff25e,2020-11-27_09h04.08.236,lexical_decision_task_MP_exp2,2020.2.5,Win32,60,z,1,0.55158,,,,,,,,0.55158,1,,,,,,289,NW,"ID",33,starby,STARBY,z,,,,,,0.787037037,-0.136111111,0,0,0,,0,341,341,288,1,
,,,,,,,,,,,,,,,,,,5e8421d0df483e18852ff25e,2020-11-27_09h04.08.236,lexical_decision_task_MP_exp2,2020.2.5,Win32,60,z,1,0.55458,,,,,,,,0.55458,1,,,,,,341,NW,"ID",16,myrtie,MYRTIE,z,,,,,,0.787037037,-0.136111111,0,0,0,,0,342,342,340,1,
,,,,,,,,,,,,,,,,,,5e8421d0df483e18852ff25e,2020-11-27_09h04.08.236,lexical_decision_task_MP_exp2,2020.2.5,Win32,60,z,1,0.544785,,,,,,,,0.544785,1,,,,,,362,NW,UN,33,breali,TIREAU,z,,,,,,0.787037037,-0.136111111,0,0,0,,0,343,343,361,1,
,,,,,,,,,,,,,,,,,,5e8421d0df483e18852ff25e,2020-11-27_09h04.08.236,lexical_decision_task_MP_exp2,2020.2.5,Win32,60,m,1,0.578235,,,,,,,,0.578235,1,,,,,,197,WORD,UN,16,wicked,STREAM,m,,,,,,0.787037037,-0.136111111,0,0,0,,0,344,344,196,1,
,,,,,,,,,,,,,,,,,,5e8421d0df483e18852ff25e,2020-11-27_09h04.08.236,lexical_decision_task_MP_exp2,2020.2.5,Win32,60,m,1,0.517015,,,,,,,,0.517015,1,,,,,,190,WORD,UN,16,stable,BACKUP,m,,,,,,0.787037037,-0.136111111,0,0,0,,0,345,345,189,1,
,,,,,,,,,,,,,,,,,,5e8421d0df483e18852ff25e,2020-11-27_09h04.08.236,lexical_decision_task_MP_exp2,2020.2.5,Win32,60,m,1,0.61929,,,,,,,,0.61929,1,,,,,,137,WORD,UN,33,melody,FINGER,m,,,,,,0.787037037,-0.136111111,0,0,0,,0,346,346,136,1,
,,,,,,,,,,,,,,,,,,5e8421d0df483e18852ff25e,2020-11-27_09h04.08.236,lexical_decision_task_MP_exp2,2020.2.5,Win32,60,m,1,0.49901,,,,,,,,0.49901,1,,,,,,233,WORD,UN,16,clumsy,NATURE,m,,,,,,0.787037037,-0.136111111,0,0,0,,0,347,347,232,1,
,,,,,,,,,,,,,,,,,,5e8421d0df483e18852ff25e,2020-11-27_09h04.08.236,lexical_decision_task_MP_exp2,2020.2.5,Win32,60,m,1,0.55426,,,,,,,,0.55426,1,,,,,,164,WORD,UN,33,invest,MARKET,m,,,,,,0.787037037,-0.136111111,0,0,0,,0,348,348,163,1,
,,,,,,,,,,,,,,,,,,5e8421d0df483e18852ff25e,2020-11-27_09h04.08.236,lexical_decision_task_MP_exp2,2020.2.5,Win32,60,m,1,0.68528,,,,,,,,0.68528,1,,,,,,191,WORD,UN,16,absent,STABLE,m,,,,,,0.787037037,-0.136111111,0,0,0,,0,349,349,190,1,
,,,,,,,,,,,,,,,,,,5e8421d0df483e18852ff25e,2020-11-27_09h04.08.236,lexical_decision_task_MP_exp2,2020.2.5,Win32,60,z,1,0.57213,,,,,,,,0.57213,1,,,,,,434,NW,UN,16,impurb,PITROM,z,,,,,,0.787037037,-0.136111111,0,0,0,,0,350,350,433,1,
,,,,,,,,,,,,,,,,,,5e8421d0df483e18852ff25e,2020-11-27_09h04.08.236,lexical_decision_task_MP_exp2,2020.2.5,Win32,60,m,1,0.662995,,,,,,,,0.662995,1,,,,,,86,WORD,"ID",16,rodent,RODENT,m,,,,,,0.787037037,-0.136111111,0,0,0,,0,351,351,85,1,
,,,,,,,,,,,,,,,,,,5e8421d0df483e18852ff25e,2020-11-27_09h04.08.236,lexical_decision_task_MP_exp2,2020.2.5,Win32,60,m,1,0.775925,,,,,,,,0.775925,1,,,,,,194,WORD,UN,16,resign,ABSENT,m,,,,,,0.787037037,-0.136111111,0,0,0,,0,352,352,193,1,
,,,,,,,,,,,,,,,,,,5e8421d0df483e18852ff25e,2020-11-27_09h04.08.236,lexical_decision_task_MP_exp2,2020.2.5,Win32,60,m,1,0.570255,,,,,,,,0.570255,1,,,,,,7,WORD,"ID",33,anchor,ANCHOR,m,,,,,,0.787037037,-0.136111111,0,0,0,,0,353,353,6,1,
,,,,,,,,,,,,,,,,,,5e8421d0df483e18852ff25e,2020-11-27_09h04.08.236,lexical_decision_task_MP_exp2,2020.2.5,Win32,60,z,1,0.539455,,,,,,,,0.539455,1,,,,,,450,NW,UN,16,rastoe,PHRECT,z,,,,,,0.787037037,-0.136111111,0,0,0,,0,354,354,449,1,
,,,,,,,,,,,,,,,,,,5e8421d0df483e18852ff25e,2020-11-27_09h04.08.236,lexical_decision_task_MP_exp2,2020.2.5,Win32,60,z,1,0.736075,,,,,,,,0.736075,1,,,,,,458,NW,UN,16,chaite,BARCET,z,,,,,,0.787037037,-0.136111111,0,0,0,,0,355,355,457,1,
,,,,,,,,,,,,,,,,,,5e8421d0df483e18852ff25e,2020-11-27_09h04.08.236,lexical_decision_task_MP_exp2,2020.2.5,Win32,60,z,0,0.52424,,,,,,,,0.52424,0,,,,,,89,WORD,"ID",16,permit,PERMIT,m,,,,,,0.787037037,-0.136111111,0,0,0,,0,356,356,88,1,
,,,,,,,,,,,,,,,,,,5e8421d0df483e18852ff25e,2020-11-27_09h04.08.236,lexical_decision_task_MP_exp2,2020.2.5,Win32,60,m,1,0.563265,,,,,,,,0.563265,1,,,,,,3,WORD,"ID",33,knight,KNIGHT,m,,,,,,0.787037037,-0.136111111,0,0,0,,0,357,357,2,1,
,,,,,,,,,,,,,,,,,,5e8421d0df483e18852ff25e,2020-11-27_09h04.08.236,lexical_decision_task_MP_exp2,2020.2.5,Win32,60,z,1,0.79779,,,,,,,,0.79779,1,,,,,,346,NW,"ID",16,saudic,SAUDIC,z,,,,,,0.787037037,-0.136111111,0,0,0,,0,358,358,345,1,
,,,,,,,,,,,,,,,,,,5e8421d0df483e18852ff25e,2020-11-27_09h04.08.236,lexical_decision_task_MP_exp2,2020.2.5,Win32,60,z,1,0.55177,,,,,,,,0.55177,1,,,,,,280,NW,"ID",33,curbol,CURBOL,z,,,,,,0.787037037,-0.136111111,0,0,0,,0,359,359,279,1,
,,,,,,,,,,,,,,,,,,5e8421d0df483e18852ff25e,2020-11-27_09h04.08.236,lexical_decision_task_MP_exp2,2020.2.5,Win32,60,z,1,0.539175,,,,,,,,0.539175,1,,,,,,476,NW,UN,16,photie,JOSTED,z,,,,,,0.787037037,-0.136111111,0,0,0,,0,360,360,475,1,
,,,,,,,,,,,,,,,,,,5e8421d0df483e18852ff25e,2020-11-27_09h04.08.236,lexical_decision_task_MP_exp2,2020.2.5,Win32,60,z,1,0.569375,,,,,,,,0.569375,1,,,,,,386,NW,UN,33,gronce,ANCUST,z,,,,,,0.787037037,-0.136111111,0,0,0,,0,361,361,385,1,
,,,,,,,,,,,,,,,,,,5e8421d0df483e18852ff25e,2020-11-27_09h04.08.236,lexical_decision_task_MP_exp2,2020.2.5,Win32,60,m,1,0.47395,,,,,,,,0.47395,1,,,,,,228,WORD,UN,16,inject,MASTER,m,,,,,,0.787037037,-0.136111111,0,0,0,space,0,362,362,227,1,0.892875
,,,,,,,,,,,,,,,,,,5e8421d0df483e18852ff25e,2020-11-27_09h04.08.236,lexical_decision_task_MP_exp2,2020.2.5,Win32,60,z,1,0.62186,,,,,,,,0.62186,1,,,,,,390,NW,UN,33,theldy,HATRUS,z,,,,,,0.787037037,-0.136111111,0,0,0,,0,363,363,389,1,
,,,,,,,,,,,,,,,,,,5e8421d0df483e18852ff25e,2020-11-27_09h04.08.236,lexical_decision_task_MP_exp2,2020.2.5,Win32,60,m,1,0.486905,,,,,,,,0.486905,1,,,,,,46,WORD,"ID",33,single,SINGLE,m,,,,,,0.787037037,-0.136111111,0,0,0,,0,364,364,45,1,
,,,,,,,,,,,,,,,,,,5e8421d0df483e18852ff25e,2020-11-27_09h04.08.236,lexical_decision_task_MP_exp2,2020.2.5,Win32,60,z,1,0.860845,,,,,,,,0.860845,1,,,,,,357,NW,"ID",16,derain,DERAIN,z,,,,,,0.787037037,-0.136111111,0,0,0,,0,365,365,356,1,
,,,,,,,,,,,,,,,,,,5e8421d0df483e18852ff25e,2020-11-27_09h04.08.236,lexical_decision_task_MP_exp2,2020.2.5,Win32,60,m,1,0.563745,,,,,,,,0.563745,1,,,,,,50,WORD,"ID",33,snatch,SNATCH,m,,,,,,0.787037037,-0.136111111,0,0,0,,0,366,366,49,1,
,,,,,,,,,,,,,,,,,,5e8421d0df483e18852ff25e,2020-11-27_09h04.08.236,lexical_decision_task_MP_exp2,2020.2.5,Win32,60,m,1,0.581675,,,,,,,,0.581675,1,,,,,,225,WORD,UN,16,kidney,VULGAR,m,,,,,,0.787037037,-0.136111111,0,0,0,,0,367,367,224,1,
,,,,,,,,,,,,,,,,,,5e8421d0df483e18852ff25e,2020-11-27_09h04.08.236,lexical_decision_task_MP_exp2,2020.2.5,Win32,60,z,1,0.53665,,,,,,,,0.53665,1,,,,,,472,NW,UN,16,crible,CIGNEY,z,,,,,,0.787037037,-0.136111111,0,0,0,,0,368,368,471,1,
,,,,,,,,,,,,,,,,,,5e8421d0df483e18852ff25e,2020-11-27_09h04.08.236,lexical_decision_task_MP_exp2,2020.2.5,Win32,60,z,1,0.68696,,,,,,,,0.68696,1,,,,,,445,NW,UN,16,runamo,MINKEL,z,,,,,,0.787037037,-0.136111111,0,0,0,,0,369,369,444,1,
,,,,,,,,,,,,,,,,,,5e8421d0df483e18852ff25e,2020-11-27_09h04.08.236,lexical_decision_task_MP_exp2,2020.2.5,Win32,60,z,1,0.90871,,,,,,,,0.90871,1,,,,,,303,NW,"ID",16,fiream,FIREAM,z,,,,,,0.787037037,-0.136111111,0,0,0,,0,370,370,302,1,
,,,,,,,,,,,,,,,,,,5e8421d0df483e18852ff25e,2020-11-27_09h04.08.236,lexical_decision_task_MP_exp2,2020.2.5,Win32,60,z,1,0.6339,,,,,,,,0.6339,1,,,,,,309,NW,"ID",16,amiloy,AMILOY,z,,,,,,0.787037037,-0.136111111,0,0,0,,0,371,371,308,1,
,,,,,,,,,,,,,,,,,,5e8421d0df483e18852ff25e,2020-11-27_09h04.08.236,lexical_decision_task_MP_exp2,2020.2.5,Win32,60,m,1,0.531,,,,,,,,0.531,1,,,,,,31,WORD,"ID",33,weapon,WEAPON,m,,,,,,0.787037037,-0.136111111,0,0,0,,0,372,372,30,1,
,,,,,,,,,,,,,,,,,,5e8421d0df483e18852ff25e,2020-11-27_09h04.08.236,lexical_decision_task_MP_exp2,2020.2.5,Win32,60,z,1,0.557625,,,,,,,,0.557625,1,,,,,,347,NW,"ID",16,kerift,KERIFT,z,,,,,,0.787037037,-0.136111111,0,0,0,,0,373,373,346,1,
,,,,,,,,,,,,,,,,,,5e8421d0df483e18852ff25e,2020-11-27_09h04.08.236,lexical_decision_task_MP_exp2,2020.2.5,Win32,60,m,1,0.49015,,,,,,,,0.49015,1,,,,,,224,WORD,UN,16,vulgar,PERIOD,m,,,,,,0.787037037,-0.136111111,0,0,0,,0,374,374,223,1,
,,,,,,,,,,,,,,,,,,5e8421d0df483e18852ff25e,2020-11-27_09h04.08.236,lexical_decision_task_MP_exp2,2020.2.5,Win32,60,m,1,0.561335,,,,,,,,0.561335,1,,,,,,216,WORD,UN,16,liquor,BEHALF,m,,,,,,0.787037037,-0.136111111,0,0,0,,0,375,375,215,1,
,,,,,,,,,,,,,,,,,,5e8421d0df483e18852ff25e,2020-11-27_09h04.08.236,lexical_decision_task_MP_exp2,2020.2.5,Win32,60,m,1,0.52433,,,,,,,,0.52433,1,,,,,,186,WORD,UN,16,course,PORTAL,m,,,,,,0.787037037,-0.136111111,0,0,0,,0,376,376,185,1,
,,,,,,,,,,,,,,,,,,5e8421d0df483e18852ff25e,2020-11-27_09h04.08.236,lexical_decision_task_MP_exp2,2020.2.5,Win32,60,m,1,0.69835,,,,,,,,0.69835,1,,,,,,107,WORD,"ID",16,slogan,SLOGAN,m,,,,,,0.787037037,-0.136111111,0,0,0,,0,377,377,106,1,
,,,,,,,,,,,,,,,,,,5e8421d0df483e18852ff25e,2020-11-27_09h04.08.236,lexical_decision_task_MP_exp2,2020.2.5,Win32,60,m,1,0.96987,,,,,,,,0.96987,1,,,,,,90,WORD,"ID",16,relish,RELISH,m,,,,,,0.787037037,-0.136111111,0,0,0,,0,378,378,89,1,
,,,,,,,,,,,,,,,,,,5e8421d0df483e18852ff25e,2020-11-27_09h04.08.236,lexical_decision_task_MP_exp2,2020.2.5,Win32,60,z,1,0.58058,,,,,,,,0.58058,1,,,,,,381,NW,UN,33,sarley,HUNIEK,z,,,,,,0.787037037,-0.136111111,0,0,0,,0,379,379,380,1,
,,,,,,,,,,,,,,,,,,5e8421d0df483e18852ff25e,2020-11-27_09h04.08.236,lexical_decision_task_MP_exp2,2020.2.5,Win32,60,m,1,0.51796,,,,,,,,0.51796,1,,,,,,165,WORD,UN,33,starch,INVEST,m,,,,,,0.787037037,-0.136111111,0,0,0,,0,380,380,164,1,
,,,,,,,,,,,,,,,,,,5e8421d0df483e18852ff25e,2020-11-27_09h04.08.236,lexical_decision_task_MP_exp2,2020.2.5,Win32,60,z,1,0.72105,,,,,,,,0.72105,1,,,,,,314,NW,"ID",16,sprine,SPRINE,z,,,,,,0.787037037,-0.136111111,0,0,0,,0,381,381,313,1,
,,,,,,,,,,,,,,,,,,5e8421d0df483e18852ff25e,2020-11-27_09h04.08.236,lexical_decision_task_MP_exp2,2020.2.5,Win32,60,z,1,0.719755,,,,,,,,0.719755,1,,,,,,262,NW,"ID",33,quilew,QUILEW,z,,,,,,0.787037037,-0.136111111,0,0,0,,0,382,382,261,1,
,,,,,,,,,,,,,,,,,,5e8421d0df483e18852ff25e,2020-11-27_09h04.08.236,lexical_decision_task_MP_exp2,2020.2.5,Win32,60,m,1,0.57994,,,,,,,,0.57994,1,,,,,,177,WORD,UN,33,inform,ADVENT,m,,,,,,0.787037037,-0.136111111,0,0,0,,0,383,383,176,1,
,,,,,,,,,,,,,,,,,,5e8421d0df483e18852ff25e,2020-11-27_09h04.08.236,lexical_decision_task_MP_exp2,2020.2.5,Win32,60,z,1,0.582325,,,,,,,,0.582325,1,,,,,,414,NW,UN,33,higsta,SERBOL,z,,,,,,0.787037037,-0.136111111,0,0,0,,0,384,384,413,1,
,,,,,,,,,,,,,,,,,,5e8421d0df483e18852ff25e,2020-11-27_09h04.08.236,lexical_decision_task_MP_exp2,2020.2.5,Win32,60,m,1,0.5293,,,,,,,,0.5293,1,,,,,,132,WORD,UN,33,bleach,STRONG,m,,,,,,0.787037037,-0.136111111,0,0,0,,0,385,385,131,1,
,,,,,,,,,,,,,,,,,,5e8421d0df483e18852ff25e,2020-11-27_09h04.08.236,lexical_decision_task_MP_exp2,2020.2.5,Win32,60,m,1,0.49156,,,,,,,,0.49156,1,,,,,,240,WORD,UN,16,glance,FOREST,m,,,,,,0.787037037,-0.136111111,0,0,0,,0,386,386,239,1,
,,,,,,,,,,,,,,,,,,5e8421d0df483e18852ff25e,2020-11-27_09h04.08.236,lexical_decision_task_MP_exp2,2020.2.5,Win32,60,z,1,0.61208,,,,,,,,0.61208,1,,,,,,356,NW,"ID",16,othnis,OTHNIS,z,,,,,,0.787037037,-0.136111111,0,0,0,,0,387,387,355,1,
,,,,,,,,,,,,,,,,,,5e8421d0df483e18852ff25e,2020-11-27_09h04.08.236,lexical_decision_task_MP_exp2,2020.2.5,Win32,60,m,1,0.460275,,,,,,,,0.460275,1,,,,,,94,WORD,"ID",16,travel,TRAVEL,m,,,,,,0.787037037,-0.136111111,0,0,0,,0,388,388,93,1,
,,,,,,,,,,,,,,,,,,5e8421d0df483e18852ff25e,2020-11-27_09h04.08.236,lexical_decision_task_MP_exp2,2020.2.5,Win32,60,m,1,0.629085,,,,,,,,0.629085,1,,,,,,176,WORD,UN,33,advent,STRIFE,m,,,,,,0.787037037,-0.136111111,0,0,0,,0,389,389,175,1,
,,,,,,,,,,,,,,,,,,5e8421d0df483e18852ff25e,2020-11-27_09h04.08.236,lexical_decision_task_MP_exp2,2020.2.5,Win32,60,m,1,0.515595,,,,,,,,0.515595,1,,,,,,181,WORD,UN,16,winter,GLANCE,m,,,,,,0.787037037,-0.136111111,0,0,0,,0,390,390,180,1,
,,,,,,,,,,,,,,,,,,5e8421d0df483e18852ff25e,2020-11-27_09h04.08.236,lexical_decision_task_MP_exp2,2020.2.5,Win32,60,z,1,0.545025,,,,,,,,0.545025,1,,,,,,304,NW,"ID",16,cludie,CLUDIE,z,,,,,,0.787037037,-0.136111111,0,0,0,,0,391,391,303,1,
,,,,,,,,,,,,,,,,,,5e8421d0df483e18852ff25e,2020-11-27_09h04.08.236,lexical_decision_task_MP_exp2,2020.2.5,Win32,60,m,1,0.50991,,,,,,,,0.50991,1,,,,,,175,WORD,UN,33,strife,FABRIC,m,,,,,,0.787037037,-0.136111111,0,0,0,,0,392,392,174,1,
,,,,,,,,,,,,,,,,,,5e8421d0df483e18852ff25e,2020-11-27_09h04.08.236,lexical_decision_task_MP_exp2,2020.2.5,Win32,60,m,1,0.46776,,,,,,,,0.46776,1,,,,,,143,WORD,UN,33,sponge,REASON,m,,,,,,0.787037037,-0.136111111,0,0,0,,0,393,393,142,1,
,,,,,,,,,,,,,,,,,,5e8421d0df483e18852ff25e,2020-11-27_09h04.08.236,lexical_decision_task_MP_exp2,2020.2.5,Win32,60,m,0,0.45594,,,,,,,,0.45594,0,,,,,,360,NW,"ID",16,desory,DESORY,z,,,,,,0.787037037,-0.136111111,0,0,0,,0,394,394,359,1,
