counterbalancing_condition,instr_done_keyboard.keys,instr_done_touch.x,instr_done_touch.y,instr_done_touch.leftButton,instr_done_touch.midButton,instr_done_touch.rightButton,instr_done_touch.clicked_name,instruction_pages.thisRepN,instruction_pages.thisTrialN,instruction_pages.thisN,instruction_pages.thisIndex,instruction_pages.ran,pageN,phase,instruct_text,has_image,instruct_image,participant,date,expName,psychopyVersion,OS,frameRate,response.keys,response.corr,response.rt,touch_resp.x,touch_resp.y,touch_resp.leftButton,touch_resp.midButton,touch_resp.rightButton,touch_resp.time,touch_resp.clicked_name,rt,corr,practice_trials.thisRepN,practice_trials.thisTrialN,practice_trials.thisN,practice_trials.thisIndex,practice_trials.ran,TrialID,StimulusType,Condition,PrimeDuration,Prime,Target,corrAns,end_of_practice_trials_pages.thisRepN,end_of_practice_trials_pages.thisTrialN,end_of_practice_trials_pages.thisN,end_of_practice_trials_pages.thisIndex,end_of_practice_trials_pages.ran,break_done_touch.x,break_done_touch.y,break_done_touch.leftButton,break_done_touch.midButton,break_done_touch.rightButton,break_done_keyboard.keys,experiment_trials.thisRepN,experiment_trials.thisTrialN,experiment_trials.thisN,experiment_trials.thisIndex,experiment_trials.ran,break_done_touch.clicked_name,break_done_keyboard.rt
3,,-0.092699218,-0.395506565,1,0,0,instr_done_button,0,0,0,0,1,1,instructions,"INSTRUCTIONS
At the start of each trial, look at the hash marks (######) in the center of the screen. After a moment, a string of letters will appear. Your task is to indicate if the letter string forms a word or not (i.e., if it is a nonword). For example, AUTHOR is a word while AUTHON is a nonword.

Press the space bar or touch the button below to continue.",0,,5e870606f9dd66349540b880,2020-11-27_15h10.22.097,lexical_decision_task_MP_exp2,2020.2.5,Win32,60,,,,,,,,,,,,,,,,,,,,,,,,,,,,,,,,,,,,,,,,,,
,,0.001227501,-0.392304451,1,0,0,instr_done_button,0,1,1,1,1,2,instructions,"If your device has a keyboard, press the 'Z' key for nonwords and the 'M' key for words.





Press the space bar or touch the button below to continue.",1,keyboard-example.gif,5e870606f9dd66349540b880,2020-11-27_15h10.22.097,lexical_decision_task_MP_exp2,2020.2.5,Win32,60,,,,,,,,,,,,,,,,,,,,,,,,,,,,,,,,,,,,,,,,,,
,,0.001227501,-0.392304451,1,0,0,instr_done_button,0,2,2,2,1,3,instructions,"If you are using a touchscreen only device, use the buttons on the screen. Do not use the mouse.





Press the space bar or touch the button below to continue.",1,touchscreen-example.gif,5e870606f9dd66349540b880,2020-11-27_15h10.22.097,lexical_decision_task_MP_exp2,2020.2.5,Win32,60,,,,,,,,,,,,,,,,,,,,,,,,,,,,,,,,,,,,,,,,,,
,,-0.010513282,-0.412584162,1,0,0,instr_done_button,0,3,3,3,1,4,instructions,"It is very important that you respond as quickly and accurately as possible, as each letter string will only be on the screen for two seconds. If you do not respond within this time, the message 'Too slow!' will be displayed and the experiment will progress to the next letter string. The first 20 trials will be practice trials and you will receive feedback on your answers. 

Press the space bar or touch the button below to start the practice trials.",0,,5e870606f9dd66349540b880,2020-11-27_15h10.22.097,lexical_decision_task_MP_exp2,2020.2.5,Win32,60,,,,,,,,,,,,,,,,,,,,,,,,,,,,,,,,,,,,,,,,,,
,,,,,,,,,,,,,,,,,,5e870606f9dd66349540b880,2020-11-27_15h10.22.097,lexical_decision_task_MP_exp2,2020.2.5,Win32,60,m,1,0.93811,,,,,,,,0.93811,1,0,0,0,2,1,1003,WORD,"ID",16,almond,ALMOND,m,,,,,,,,,,,,,,,,,,
,,,,,,,,,,,,,,,,,,5e870606f9dd66349540b880,2020-11-27_15h10.22.097,lexical_decision_task_MP_exp2,2020.2.5,Win32,60,z,1,0.53812,,,,,,,,0.53812,1,0,1,1,11,1,1012,NW,"ID",16,rashet,RASHET,z,,,,,,,,,,,,,,,,,,
,,,,,,,,,,,,,,,,,,5e870606f9dd66349540b880,2020-11-27_15h10.22.097,lexical_decision_task_MP_exp2,2020.2.5,Win32,60,z,1,0.522035,,,,,,,,0.522035,1,0,2,2,13,1,1014,NW,UN,33,winfer,ROUPET,z,,,,,,,,,,,,,,,,,,
,,,,,,,,,,,,,,,,,,5e870606f9dd66349540b880,2020-11-27_15h10.22.097,lexical_decision_task_MP_exp2,2020.2.5,Win32,60,z,1,0.61278,,,,,,,,0.61278,1,0,3,3,9,1,1010,NW,"ID",33,fariny,FARINY,z,,,,,,,,,,,,,,,,,,
,,,,,,,,,,,,,,,,,,5e870606f9dd66349540b880,2020-11-27_15h10.22.097,lexical_decision_task_MP_exp2,2020.2.5,Win32,60,m,1,0.77864,,,,,,,,0.77864,1,0,4,4,1,1,1002,WORD,"ID",33,adjust,ADJUST,m,,,,,,,,,,,,,,,,,,
,,,,,,,,,,,,,,,,,,5e870606f9dd66349540b880,2020-11-27_15h10.22.097,lexical_decision_task_MP_exp2,2020.2.5,Win32,60,m,1,0.63138,,,,,,,,0.63138,1,0,5,5,6,1,1007,WORD,UN,16,tropic,ZOMBIE,m,,,,,,,,,,,,,,,,,,
,,,,,,,,,,,,,,,,,,5e870606f9dd66349540b880,2020-11-27_15h10.22.097,lexical_decision_task_MP_exp2,2020.2.5,Win32,60,m,1,0.677275,,,,,,,,0.677275,1,0,6,6,0,1,1001,WORD,"ID",33,utopia,UTOPIA,m,,,,,,,,,,,,,,,,,,
,,,,,,,,,,,,,,,,,,5e870606f9dd66349540b880,2020-11-27_15h10.22.097,lexical_decision_task_MP_exp2,2020.2.5,Win32,60,z,1,0.704365,,,,,,,,0.704365,1,0,7,7,8,1,1009,NW,"ID",33,aslert,ASLERT,z,,,,,,,,,,,,,,,,,,
,,,,,,,,,,,,,,,,,,5e870606f9dd66349540b880,2020-11-27_15h10.22.097,lexical_decision_task_MP_exp2,2020.2.5,Win32,60,z,1,0.807435,,,,,,,,0.807435,1,0,8,8,12,1,1013,NW,UN,33,adveil,SPRINY,z,,,,,,,,,,,,,,,,,,
,,,,,,,,,,,,,,,,,,5e870606f9dd66349540b880,2020-11-27_15h10.22.097,lexical_decision_task_MP_exp2,2020.2.5,Win32,60,m,1,0.57612,,,,,,,,0.57612,1,0,9,9,4,1,1005,WORD,UN,33,abound,SQUEAK,m,,,,,,,,,,,,,,,,,,
,,,,,,,,,,,,,,,,,,5e870606f9dd66349540b880,2020-11-27_15h10.22.097,lexical_decision_task_MP_exp2,2020.2.5,Win32,60,z,1,0.77248,,,,,,,,0.77248,1,0,10,10,10,1,1011,NW,"ID",16,inlade,INLADE,z,,,,,,,,,,,,,,,,,,
,,,,,,,,,,,,,,,,,,5e870606f9dd66349540b880,2020-11-27_15h10.22.097,lexical_decision_task_MP_exp2,2020.2.5,Win32,60,m,1,0.583585,,,,,,,,0.583585,1,0,11,11,3,1,1004,WORD,"ID",16,matrix,MATRIX,m,,,,,,,,,,,,,,,,,,
,,,,,,,,,,,,,,,,,,5e870606f9dd66349540b880,2020-11-27_15h10.22.097,lexical_decision_task_MP_exp2,2020.2.5,Win32,60,m,1,0.709585,,,,,,,,0.709585,1,0,12,12,5,1,1006,WORD,UN,33,frenzy,OBTAIN,m,,,,,,,,,,,,,,,,,,
,,,,,,,,,,,,,,,,,,5e870606f9dd66349540b880,2020-11-27_15h10.22.097,lexical_decision_task_MP_exp2,2020.2.5,Win32,60,z,1,0.645495,,,,,,,,0.645495,1,0,13,13,14,1,1015,NW,UN,16,miaber,THRALE,z,,,,,,,,,,,,,,,,,,
,,,,,,,,,,,,,,,,,,5e870606f9dd66349540b880,2020-11-27_15h10.22.097,lexical_decision_task_MP_exp2,2020.2.5,Win32,60,m,1,0.767225,,,,,,,,0.767225,1,0,14,14,7,1,1008,WORD,UN,16,hurdle,VOLUME,m,,,,,,,,,,,,,,,,,,
,,,,,,,,,,,,,,,,,,5e870606f9dd66349540b880,2020-11-27_15h10.22.097,lexical_decision_task_MP_exp2,2020.2.5,Win32,60,z,1,0.66782,,,,,,,,0.66782,1,0,15,15,15,1,1016,NW,UN,16,mushed,WHAISE,z,,,,,,,,,,,,,,,,,,
,,0.015103114,-0.375226854,1,0,0,instr_done_button,,,,,,1,end_of_practice,"You have completed the practice trials. During the experimental trials, you will not receive feedback, but it is very important that you respond as quickly and accurately as possible. 
Before you begin, please ensure that you are in a comfortable and quiet location and will not be disturbed for about 15 minutes, as we cannot use your data if you do not complete all the trials. 
There will be opportunities to take breaks at regular intervals during the experiment. When you are ready to start the experimental trials, please press space or touch the button below.",,,5e870606f9dd66349540b880,2020-11-27_15h10.22.097,lexical_decision_task_MP_exp2,2020.2.5,Win32,60,,,,,,,,,,,,,,,,,,,,,,,,,0,0,0,0,1,,,,,,,,,,,,,
,,,,,,,,,,,,,,,,,,5e870606f9dd66349540b880,2020-11-27_15h10.22.097,lexical_decision_task_MP_exp2,2020.2.5,Win32,60,z,1,0.80525,0.024709262,-0.147881342,1,0,0,0.082795,,0.80525,1,,,,,,271,NW,UN,16,damilt,AUBRID,z,,,,,,0.024709262,-0.147881342,0,0,0,,0,0,0,450,1,,
,,,,,,,,,,,,,,,,,,5e870606f9dd66349540b880,2020-11-27_15h10.22.097,lexical_decision_task_MP_exp2,2020.2.5,Win32,60,m,1,0.69775,,,,,,,,0.69775,1,,,,,,14,WORD,UN,16,orange,ALMOST,m,,,,,,0.024709262,-0.147881342,0,0,0,,0,1,1,193,1,,
,,,,,,,,,,,,,,,,,,5e870606f9dd66349540b880,2020-11-27_15h10.22.097,lexical_decision_task_MP_exp2,2020.2.5,Win32,60,z,1,0.667845,,,,,,,,0.667845,1,,,,,,279,NW,UN,16,curbol,CELOND,z,,,,,,0.023641913,-0.147881342,0,0,0,,0,2,2,458,1,,
,,,,,,,,,,,,,,,,,,5e870606f9dd66349540b880,2020-11-27_15h10.22.097,lexical_decision_task_MP_exp2,2020.2.5,Win32,60,z,1,0.83963,,,,,,,,0.83963,1,,,,,,317,NW,"ID",33,worbal,WORBAL,z,,,,,,0.023641913,-0.147881342,0,0,0,,0,3,3,256,1,,
,,,,,,,,,,,,,,,,,,5e870606f9dd66349540b880,2020-11-27_15h10.22.097,lexical_decision_task_MP_exp2,2020.2.5,Win32,60,z,1,0.719285,,,,,,,,0.719285,1,,,,,,424,NW,UN,33,frudge,PRAILE,z,,,,,,0.023641913,-0.147881342,0,0,0,,0,4,4,363,1,,
,,,,,,,,,,,,,,,,,,5e870606f9dd66349540b880,2020-11-27_15h10.22.097,lexical_decision_task_MP_exp2,2020.2.5,Win32,60,z,1,0.61932,,,,,,,,0.61932,1,,,,,,454,NW,UN,33,tondle,SCOUGE,z,,,,,,0.023641913,-0.147881342,0,0,0,,0,5,5,393,1,,
,,,,,,,,,,,,,,,,,,5e870606f9dd66349540b880,2020-11-27_15h10.22.097,lexical_decision_task_MP_exp2,2020.2.5,Win32,60,m,1,0.69989,,,,,,,,0.69989,1,,,,,,196,WORD,UN,33,stream,CREDIT,m,,,,,,0.023641913,-0.147881342,0,0,0,,0,6,6,135,1,,
,,,,,,,,,,,,,,,,,,5e870606f9dd66349540b880,2020-11-27_15h10.22.097,lexical_decision_task_MP_exp2,2020.2.5,Win32,60,z,1,0.60919,,,,,,,,0.60919,1,,,,,,304,NW,"ID",33,cludie,CLUDIE,z,,,,,,0.023641913,-0.147881342,0,0,0,,0,7,7,243,1,,
,,,,,,,,,,,,,,,,,,5e870606f9dd66349540b880,2020-11-27_15h10.22.097,lexical_decision_task_MP_exp2,2020.2.5,Win32,60,z,1,1.001475,,,,,,,,1.001475,1,,,,,,401,NW,"ID",16,mustil,MUSTIL,z,,,,,,0.023641913,-0.147881342,0,0,0,,0,8,8,340,1,,
,,,,,,,,,,,,,,,,,,5e870606f9dd66349540b880,2020-11-27_15h10.22.097,lexical_decision_task_MP_exp2,2020.2.5,Win32,60,m,1,0.62614,,,,,,,,0.62614,1,,,,,,40,WORD,UN,16,spring,CONVEY,m,,,,,,0.023641913,-0.147881342,0,0,0,,0,9,9,219,1,,
,,,,,,,,,,,,,,,,,,5e870606f9dd66349540b880,2020-11-27_15h10.22.097,lexical_decision_task_MP_exp2,2020.2.5,Win32,60,m,1,0.69328,,,,,,,,0.69328,1,,,,,,80,WORD,"ID",33,family,FAMILY,m,,,,,,0.023641913,-0.147881342,0,0,0,,0,10,10,19,1,,
,,,,,,,,,,,,,,,,,,5e870606f9dd66349540b880,2020-11-27_15h10.22.097,lexical_decision_task_MP_exp2,2020.2.5,Win32,60,z,1,0.532365,,,,,,,,0.532365,1,,,,,,432,NW,UN,33,drance,LUNKER,z,,,,,,0.023641913,-0.147881342,0,0,0,,0,11,11,371,1,,
,,,,,,,,,,,,,,,,,,5e870606f9dd66349540b880,2020-11-27_15h10.22.097,lexical_decision_task_MP_exp2,2020.2.5,Win32,60,z,0,0.580865,,,,,,,,0.580865,0,,,,,,28,WORD,UN,16,sketch,COMEDY,m,,,,,,0.023641913,-0.147881342,0,0,0,,0,12,12,207,1,,
,,,,,,,,,,,,,,,,,,5e870606f9dd66349540b880,2020-11-27_15h10.22.097,lexical_decision_task_MP_exp2,2020.2.5,Win32,60,m,1,0.69712,,,,,,,,0.69712,1,,,,,,55,WORD,UN,16,ambush,STROKE,m,,,,,,0.023641913,-0.147881342,0,0,0,,0,13,13,234,1,,
,,,,,,,,,,,,,,,,,,5e870606f9dd66349540b880,2020-11-27_15h10.22.097,lexical_decision_task_MP_exp2,2020.2.5,Win32,60,m,1,0.55426,,,,,,,,0.55426,1,,,,,,37,WORD,UN,16,powder,INSULT,m,,,,,,0.023641913,-0.147881342,0,0,0,,0,14,14,216,1,,
,,,,,,,,,,,,,,,,,,5e870606f9dd66349540b880,2020-11-27_15h10.22.097,lexical_decision_task_MP_exp2,2020.2.5,Win32,60,z,1,0.579875,,,,,,,,0.579875,1,,,,,,434,NW,UN,33,impurb,PITROM,z,,,,,,0.023641913,-0.147881342,0,0,0,,0,15,15,373,1,,
,,,,,,,,,,,,,,,,,,5e870606f9dd66349540b880,2020-11-27_15h10.22.097,lexical_decision_task_MP_exp2,2020.2.5,Win32,60,z,1,0.663575,,,,,,,,0.663575,1,,,,,,377,NW,"ID",16,injore,INJORE,z,,,,,,0.023641913,-0.147881342,0,0,0,,0,16,16,316,1,,
,,,,,,,,,,,,,,,,,,5e870606f9dd66349540b880,2020-11-27_15h10.22.097,lexical_decision_task_MP_exp2,2020.2.5,Win32,60,m,1,0.572935,,,,,,,,0.572935,1,,,,,,179,WORD,"ID",16,basket,BASKET,m,,,,,,0.023641913,-0.147881342,0,0,0,,0,17,17,118,1,,
,,,,,,,,,,,,,,,,,,5e870606f9dd66349540b880,2020-11-27_15h10.22.097,lexical_decision_task_MP_exp2,2020.2.5,Win32,60,z,1,0.585775,,,,,,,,0.585775,1,,,,,,478,NW,UN,33,pebric,ACRISE,z,,,,,,0.023641913,-0.147881342,0,0,0,,0,18,18,417,1,,
,,,,,,,,,,,,,,,,,,5e870606f9dd66349540b880,2020-11-27_15h10.22.097,lexical_decision_task_MP_exp2,2020.2.5,Win32,60,z,0,0.62121,,,,,,,,0.62121,0,,,,,,32,WORD,UN,16,scream,BUCKLE,m,,,,,,0.023641913,-0.147881342,0,0,0,,0,19,19,211,1,,
,,,,,,,,,,,,,,,,,,5e870606f9dd66349540b880,2020-11-27_15h10.22.097,lexical_decision_task_MP_exp2,2020.2.5,Win32,60,m,1,0.594025,,,,,,,,0.594025,1,,,,,,105,WORD,"ID",33,number,NUMBER,m,,,,,,0.023641913,-0.147881342,0,0,0,,0,20,20,44,1,,
,,,,,,,,,,,,,,,,,,5e870606f9dd66349540b880,2020-11-27_15h10.22.097,lexical_decision_task_MP_exp2,2020.2.5,Win32,60,m,0,0.68697,,,,,,,,0.68697,0,,,,,,285,NW,UN,16,reldon,PRUDGE,z,,,,,,0.023641913,-0.147881342,0,0,0,,0,21,21,464,1,,
,,,,,,,,,,,,,,,,,,5e870606f9dd66349540b880,2020-11-27_15h10.22.097,lexical_decision_task_MP_exp2,2020.2.5,Win32,60,z,1,0.732305,,,,,,,,0.732305,1,,,,,,241,NW,UN,16,unwert,SMENCO,z,,,,,,0.023641913,-0.147881342,0,0,0,,0,22,22,420,1,,
,,,,,,,,,,,,,,,,,,5e870606f9dd66349540b880,2020-11-27_15h10.22.097,lexical_decision_task_MP_exp2,2020.2.5,Win32,60,m,1,0.62257,,,,,,,,0.62257,1,,,,,,97,WORD,"ID",33,client,CLIENT,m,,,,,,0.023641913,-0.147881342,0,0,0,,0,23,23,36,1,,
,,,,,,,,,,,,,,,,,,5e870606f9dd66349540b880,2020-11-27_15h10.22.097,lexical_decision_task_MP_exp2,2020.2.5,Win32,60,z,1,1.15369,,,,,,,,1.15369,1,,,,,,448,NW,UN,33,brunge,SADENT,z,,,,,,0.023641913,-0.147881342,0,0,0,,0,24,24,387,1,,
,,,,,,,,,,,,,,,,,,5e870606f9dd66349540b880,2020-11-27_15h10.22.097,lexical_decision_task_MP_exp2,2020.2.5,Win32,60,z,1,0.596185,,,,,,,,0.596185,1,,,,,,360,NW,"ID",33,desory,DESORY,z,,,,,,0.023641913,-0.147881342,0,0,0,,0,25,25,299,1,,
,,,,,,,,,,,,,,,,,,5e870606f9dd66349540b880,2020-11-27_15h10.22.097,lexical_decision_task_MP_exp2,2020.2.5,Win32,60,m,1,0.65616,,,,,,,,0.65616,1,,,,,,126,WORD,"ID",16,enough,ENOUGH,m,,,,,,0.023641913,-0.147881342,0,0,0,,0,26,26,65,1,,
,,,,,,,,,,,,,,,,,,5e870606f9dd66349540b880,2020-11-27_15h10.22.097,lexical_decision_task_MP_exp2,2020.2.5,Win32,60,m,1,0.551295,,,,,,,,0.551295,1,,,,,,11,WORD,UN,16,amount,CRUISE,m,,,,,,0.023641913,-0.147881342,0,0,0,,0,27,27,190,1,,
,,,,,,,,,,,,,,,,,,5e870606f9dd66349540b880,2020-11-27_15h10.22.097,lexical_decision_task_MP_exp2,2020.2.5,Win32,60,z,1,0.64387,,,,,,,,0.64387,1,,,,,,245,NW,UN,16,piaton,ANOUGS,z,,,,,,0.023641913,-0.147881342,0,0,0,,0,28,28,424,1,,
,,,,,,,,,,,,,,,,,,5e870606f9dd66349540b880,2020-11-27_15h10.22.097,lexical_decision_task_MP_exp2,2020.2.5,Win32,60,m,1,1.051535,,,,,,,,1.051535,1,,,,,,90,WORD,"ID",33,relish,RELISH,m,,,,,,0.023641913,-0.147881342,0,0,0,,0,29,29,29,1,,
,,,,,,,,,,,,,,,,,,5e870606f9dd66349540b880,2020-11-27_15h10.22.097,lexical_decision_task_MP_exp2,2020.2.5,Win32,60,z,1,0.51226,,,,,,,,0.51226,1,,,,,,437,NW,UN,33,baitch,SNAPEL,z,,,,,,0.023641913,-0.147881342,0,0,0,,0,30,30,376,1,,
,,,,,,,,,,,,,,,,,,5e870606f9dd66349540b880,2020-11-27_15h10.22.097,lexical_decision_task_MP_exp2,2020.2.5,Win32,60,m,1,0.68735,,,,,,,,0.68735,1,,,,,,205,WORD,UN,33,tailor,LOUNGE,m,,,,,,0.023641913,-0.147881342,0,0,0,,0,31,31,144,1,,
,,,,,,,,,,,,,,,,,,5e870606f9dd66349540b880,2020-11-27_15h10.22.097,lexical_decision_task_MP_exp2,2020.2.5,Win32,60,m,1,0.56581,,,,,,,,0.56581,1,,,,,,209,WORD,UN,33,monkey,SEARCH,m,,,,,,0.023641913,-0.147881342,0,0,0,,0,32,32,148,1,,
,,,,,,,,,,,,,,,,,,5e870606f9dd66349540b880,2020-11-27_15h10.22.097,lexical_decision_task_MP_exp2,2020.2.5,Win32,60,z,1,0.57369,,,,,,,,0.57369,1,,,,,,408,NW,"ID",16,hurnia,HURNIA,z,,,,,,0.023641913,-0.147881342,0,0,0,,0,33,33,347,1,,
,,,,,,,,,,,,,,,,,,5e870606f9dd66349540b880,2020-11-27_15h10.22.097,lexical_decision_task_MP_exp2,2020.2.5,Win32,60,z,1,0.694775,,,,,,,,0.694775,1,,,,,,421,NW,UN,33,alcoud,KNISMA,z,,,,,,0.023641913,-0.147881342,0,0,0,,0,34,34,360,1,,
,,,,,,,,,,,,,,,,,,5e870606f9dd66349540b880,2020-11-27_15h10.22.097,lexical_decision_task_MP_exp2,2020.2.5,Win32,60,m,1,0.79608,,,,,,,,0.79608,1,,,,,,36,WORD,UN,16,insult,VANISH,m,,,,,,0.023641913,-0.147881342,0,0,0,,0,35,35,215,1,,
,,,,,,,,,,,,,,,,,,5e870606f9dd66349540b880,2020-11-27_15h10.22.097,lexical_decision_task_MP_exp2,2020.2.5,Win32,60,z,1,0.68874,,,,,,,,0.68874,1,,,,,,306,NW,"ID",33,sounge,SOUNGE,z,,,,,,0.023641913,-0.147881342,0,0,0,,0,36,36,245,1,,
,,,,,,,,,,,,,,,,,,5e870606f9dd66349540b880,2020-11-27_15h10.22.097,lexical_decision_task_MP_exp2,2020.2.5,Win32,60,m,1,0.52896,,,,,,,,0.52896,1,,,,,,61,WORD,"ID",33,ponder,PONDER,m,,,,,,0.023641913,-0.147881342,0,0,0,,0,37,37,0,1,,
,,,,,,,,,,,,,,,,,,5e870606f9dd66349540b880,2020-11-27_15h10.22.097,lexical_decision_task_MP_exp2,2020.2.5,Win32,60,m,1,0.82937,,,,,,,,0.82937,1,,,,,,114,WORD,"ID",33,placid,PLACID,m,,,,,,0.023641913,-0.147881342,0,0,0,,0,38,38,53,1,,
,,,,,,,,,,,,,,,,,,5e870606f9dd66349540b880,2020-11-27_15h10.22.097,lexical_decision_task_MP_exp2,2020.2.5,Win32,60,z,1,0.590425,,,,,,,,0.590425,1,,,,,,405,NW,"ID",16,flumni,FLUMNI,z,,,,,,0.023641913,-0.147881342,0,0,0,,0,39,39,344,1,,
,,,,,,,,,,,,,,,,,,5e870606f9dd66349540b880,2020-11-27_15h10.22.097,lexical_decision_task_MP_exp2,2020.2.5,Win32,60,m,1,0.62268,,,,,,,,0.62268,1,,,,,,52,WORD,UN,16,police,IMPOSE,m,,,,,,0.023641913,-0.147881342,0,0,0,,0,40,40,231,1,,
,,,,,,,,,,,,,,,,,,5e870606f9dd66349540b880,2020-11-27_15h10.22.097,lexical_decision_task_MP_exp2,2020.2.5,Win32,60,m,1,0.66319,,,,,,,,0.66319,1,,,,,,87,WORD,"ID",33,filter,FILTER,m,,,,,,0.023641913,-0.147881342,0,0,0,,0,41,41,26,1,,
,,,,,,,,,,,,,,,,,,5e870606f9dd66349540b880,2020-11-27_15h10.22.097,lexical_decision_task_MP_exp2,2020.2.5,Win32,60,z,0,0.768025,,,,,,,,0.768025,0,,,,,,102,WORD,"ID",33,direct,DIRECT,m,,,,,,0.023641913,-0.147881342,0,0,0,,0,42,42,41,1,,
,,,,,,,,,,,,,,,,,,5e870606f9dd66349540b880,2020-11-27_15h10.22.097,lexical_decision_task_MP_exp2,2020.2.5,Win32,60,z,1,1.09594,,,,,,,,1.09594,1,,,,,,477,NW,UN,33,lobush,PHOTIE,z,,,,,,0.023641913,-0.147881342,0,0,0,,0,43,43,416,1,,
,,,,,,,,,,,,,,,,,,5e870606f9dd66349540b880,2020-11-27_15h10.22.097,lexical_decision_task_MP_exp2,2020.2.5,Win32,60,m,1,0.68369,,,,,,,,0.68369,1,,,,,,152,WORD,"ID",16,rocket,ROCKET,m,,,,,,0.023641913,-0.147881342,0,0,0,,0,44,44,91,1,,
,,,,,,,,,,,,,,,,,,5e870606f9dd66349540b880,2020-11-27_15h10.22.097,lexical_decision_task_MP_exp2,2020.2.5,Win32,60,z,0,0.99931,,,,,,,,0.99931,0,,,,,,131,WORD,"ID",16,quench,QUENCH,m,,,,,,0.023641913,-0.147881342,0,0,0,,0,45,45,70,1,,
,,,,,,,,,,,,,,,,,,5e870606f9dd66349540b880,2020-11-27_15h10.22.097,lexical_decision_task_MP_exp2,2020.2.5,Win32,60,z,1,0.646995,,,,,,,,0.646995,1,,,,,,293,NW,UN,16,inhort,SWANCE,z,,,,,,0.023641913,-0.147881342,0,0,0,,0,46,46,472,1,,
,,,,,,,,,,,,,,,,,,5e870606f9dd66349540b880,2020-11-27_15h10.22.097,lexical_decision_task_MP_exp2,2020.2.5,Win32,60,m,1,0.793515,,,,,,,,0.793515,1,,,,,,47,WORD,UN,16,walnut,INCOME,m,,,,,,0.023641913,-0.147881342,0,0,0,,0,47,47,226,1,,
,,,,,,,,,,,,,,,,,,5e870606f9dd66349540b880,2020-11-27_15h10.22.097,lexical_decision_task_MP_exp2,2020.2.5,Win32,60,z,1,0.75609,,,,,,,,0.75609,1,,,,,,398,NW,"ID",16,blunde,BLUNDE,z,,,,,,0.023641913,-0.147881342,0,0,0,,0,48,48,337,1,,
,,,,,,,,,,,,,,,,,,5e870606f9dd66349540b880,2020-11-27_15h10.22.097,lexical_decision_task_MP_exp2,2020.2.5,Win32,60,z,1,0.70919,,,,,,,,0.70919,1,,,,,,417,NW,"ID",16,earoud,EAROUD,z,,,,,,0.023641913,-0.147881342,0,0,0,,0,49,49,356,1,,
,,,,,,,,,,,,,,,,,,5e870606f9dd66349540b880,2020-11-27_15h10.22.097,lexical_decision_task_MP_exp2,2020.2.5,Win32,60,z,1,1.02577,,,,,,,,1.02577,1,,,,,,425,NW,UN,33,urivel,FRUDGE,z,,,,,,0.023641913,-0.147881342,0,0,0,,0,50,50,364,1,,
,,,,,,,,,,,,,,,,,,5e870606f9dd66349540b880,2020-11-27_15h10.22.097,lexical_decision_task_MP_exp2,2020.2.5,Win32,60,m,1,0.54484,,,,,,,,0.54484,1,,,,,,79,WORD,"ID",33,theory,THEORY,m,,,,,,0.023641913,-0.147881342,0,0,0,,0,51,51,18,1,,
,,,,,,,,,,,,,,,,,,5e870606f9dd66349540b880,2020-11-27_15h10.22.097,lexical_decision_task_MP_exp2,2020.2.5,Win32,60,m,1,0.54481,,,,,,,,0.54481,1,,,,,,230,WORD,UN,33,mother,FRINGE,m,,,,,,0.023641913,-0.147881342,0,0,0,,0,52,52,169,1,,
,,,,,,,,,,,,,,,,,,5e870606f9dd66349540b880,2020-11-27_15h10.22.097,lexical_decision_task_MP_exp2,2020.2.5,Win32,60,m,1,0.580955,,,,,,,,0.580955,1,,,,,,191,WORD,UN,33,beacon,STABLE,m,,,,,,0.023641913,-0.147881342,0,0,0,,0,53,53,130,1,,
,,,,,,,,,,,,,,,,,,5e870606f9dd66349540b880,2020-11-27_15h10.22.097,lexical_decision_task_MP_exp2,2020.2.5,Win32,60,z,1,0.935535,,,,,,,,0.935535,1,,,,,,345,NW,"ID",33,absend,ABSEND,z,,,,,,0.023641913,-0.147881342,0,0,0,,0,54,54,284,1,,
,,,,,,,,,,,,,,,,,,5e870606f9dd66349540b880,2020-11-27_15h10.22.097,lexical_decision_task_MP_exp2,2020.2.5,Win32,60,z,1,0.707175,,,,,,,,0.707175,1,,,,,,353,NW,"ID",33,clurey,CLUREY,z,,,,,,0.023641913,-0.147881342,0,0,0,,0,55,55,292,1,,
,,,,,,,,,,,,,,,,,,5e870606f9dd66349540b880,2020-11-27_15h10.22.097,lexical_decision_task_MP_exp2,2020.2.5,Win32,60,z,1,0.7106,,,,,,,,0.7106,1,,,,,,251,NW,UN,16,stapod,LUPICT,z,,,,,,0.023641913,-0.147881342,0,0,0,,0,56,56,430,1,,
,,,,,,,,,,,,,,,,,,5e870606f9dd66349540b880,2020-11-27_15h10.22.097,lexical_decision_task_MP_exp2,2020.2.5,Win32,60,z,1,0.549905,,,,,,,,0.549905,1,,,,,,475,NW,UN,33,josted,PEBRIC,z,,,,,,0.023641913,-0.147881342,0,0,0,,0,57,57,414,1,,
,,,,,,,,,,,,,,,,,,5e870606f9dd66349540b880,2020-11-27_15h10.22.097,lexical_decision_task_MP_exp2,2020.2.5,Win32,60,z,1,0.60116,,,,,,,,0.60116,1,,,,,,286,NW,UN,16,nymbel,RELDON,z,,,,,,0.023641913,-0.147881342,0,0,0,,0,58,58,465,1,,
,,,,,,,,,,,,,,,,,,5e870606f9dd66349540b880,2020-11-27_15h10.22.097,lexical_decision_task_MP_exp2,2020.2.5,Win32,60,m,1,0.554975,,,,,,,,0.554975,1,,,,,,201,WORD,UN,33,factor,ADMIRE,m,,,,,,0.023641913,-0.147881342,0,0,0,,0,59,59,140,1,,
,,,,,,,,,,,,,,,,,,5e870606f9dd66349540b880,2020-11-27_15h10.22.097,lexical_decision_task_MP_exp2,2020.2.5,Win32,60,z,1,0.599205,,,,,,,,0.599205,1,,,,,,329,NW,"ID",33,yarike,YARIKE,z,,,,,,0.023641913,-0.147881342,0,0,0,,0,60,60,268,1,,
,,,,,,,,,,,,,,,,,,5e870606f9dd66349540b880,2020-11-27_15h10.22.097,lexical_decision_task_MP_exp2,2020.2.5,Win32,60,z,1,0.744335,,,,,,,,0.744335,1,,,,,,363,NW,"ID",16,breali,BREALI,z,,,,,,0.023641913,-0.147881342,0,0,0,,0,61,61,302,1,,
,,,,,,,,,,,,,,,,,,5e870606f9dd66349540b880,2020-11-27_15h10.22.097,lexical_decision_task_MP_exp2,2020.2.5,Win32,60,m,1,0.578765,,,,,,,,0.578765,1,,,,,,208,WORD,UN,33,search,HOCKEY,m,,,,,,0.023641913,-0.147881342,0,0,0,,0,62,62,147,1,,
,,,,,,,,,,,,,,,,,,5e870606f9dd66349540b880,2020-11-27_15h10.22.097,lexical_decision_task_MP_exp2,2020.2.5,Win32,60,m,1,0.53435,,,,,,,,0.53435,1,,,,,,150,WORD,"ID",16,random,RANDOM,m,,,,,,0.023641913,-0.147881342,0,0,0,,0,63,63,89,1,,
,,,,,,,,,,,,,,,,,,5e870606f9dd66349540b880,2020-11-27_15h10.22.097,lexical_decision_task_MP_exp2,2020.2.5,Win32,60,m,1,0.611115,,,,,,,,0.611115,1,,,,,,127,WORD,"ID",16,castle,CASTLE,m,,,,,,0.023641913,-0.147881342,0,0,0,,0,64,64,66,1,,
,,,,,,,,,,,,,,,,,,5e870606f9dd66349540b880,2020-11-27_15h10.22.097,lexical_decision_task_MP_exp2,2020.2.5,Win32,60,z,1,0.524795,,,,,,,,0.524795,1,,,,,,465,NW,UN,33,bafent,WHIVEX,z,,,,,,0.023641913,-0.147881342,0,0,0,,0,65,65,404,1,,
,,,,,,,,,,,,,,,,,,5e870606f9dd66349540b880,2020-11-27_15h10.22.097,lexical_decision_task_MP_exp2,2020.2.5,Win32,60,z,1,0.551135,,,,,,,,0.551135,1,,,,,,403,NW,"ID",16,bruats,BRUATS,z,,,,,,0.023641913,-0.147881342,0,0,0,,0,66,66,342,1,,
,,,,,,,,,,,,,,,,,,5e870606f9dd66349540b880,2020-11-27_15h10.22.097,lexical_decision_task_MP_exp2,2020.2.5,Win32,60,m,0,0.523585,,,,,,,,0.523585,0,,,,,,264,NW,UN,16,distar,VACKEL,z,,,,,,0.023641913,-0.147881342,0,0,0,,0,67,67,443,1,,
,,,,,,,,,,,,,,,,,,5e870606f9dd66349540b880,2020-11-27_15h10.22.097,lexical_decision_task_MP_exp2,2020.2.5,Win32,60,m,1,0.65564,,,,,,,,0.65564,1,,,,,,124,WORD,"ID",16,blouse,BLOUSE,m,,,,,,0.023641913,-0.147881342,0,0,0,,0,68,68,63,1,,
,,,,,,,,,,,,,,,,,,5e870606f9dd66349540b880,2020-11-27_15h10.22.097,lexical_decision_task_MP_exp2,2020.2.5,Win32,60,m,1,0.612665,,,,,,,,0.612665,1,,,,,,117,WORD,"ID",33,branch,BRANCH,m,,,,,,0.023641913,-0.147881342,0,0,0,,0,69,69,56,1,,
,,,,,,,,,,,,,,,,,,5e870606f9dd66349540b880,2020-11-27_15h10.22.097,lexical_decision_task_MP_exp2,2020.2.5,Win32,60,m,1,0.508395,,,,,,,,0.508395,1,,,,,,72,WORD,"ID",33,bright,BRIGHT,m,,,,,,0.023641913,-0.147881342,0,0,0,,0,70,70,11,1,,
,,,,,,,,,,,,,,,,,,5e870606f9dd66349540b880,2020-11-27_15h10.22.097,lexical_decision_task_MP_exp2,2020.2.5,Win32,60,m,1,0.590925,,,,,,,,0.590925,1,,,,,,155,WORD,"ID",16,lizard,LIZARD,m,,,,,,0.023641913,-0.147881342,0,0,0,,0,71,71,94,1,,
,,,,,,,,,,,,,,,,,,5e870606f9dd66349540b880,2020-11-27_15h10.22.097,lexical_decision_task_MP_exp2,2020.2.5,Win32,60,z,1,0.555155,,,,,,,,0.555155,1,,,,,,444,NW,UN,33,minkel,JAUNCE,z,,,,,,0.023641913,-0.147881342,0,0,0,,0,72,72,383,1,,
,,,,,,,,,,,,,,,,,,5e870606f9dd66349540b880,2020-11-27_15h10.22.097,lexical_decision_task_MP_exp2,2020.2.5,Win32,60,z,1,0.671585,,,,,,,,0.671585,1,,,,,,410,NW,"ID",16,tunory,TUNORY,z,,,,,,0.023641913,-0.147881342,0,0,0,,0,73,73,349,1,,
,,,,,,,,,,,,,,,,,,5e870606f9dd66349540b880,2020-11-27_15h10.22.097,lexical_decision_task_MP_exp2,2020.2.5,Win32,60,z,0,0.520945,,,,,,,,0.520945,0,,,,,,119,WORD,"ID",33,spider,SPIDER,m,,,,,,0.023641913,-0.147881342,0,0,0,,0,74,74,58,1,,
,,,,,,,,,,,,,,,,,,5e870606f9dd66349540b880,2020-11-27_15h10.22.097,lexical_decision_task_MP_exp2,2020.2.5,Win32,60,m,1,0.62523,,,,,,,,0.62523,1,,,,,,68,WORD,"ID",33,fumble,FUMBLE,m,,,,,,0.023641913,-0.147881342,0,0,0,,0,75,75,7,1,,
,,,,,,,,,,,,,,,,,,5e870606f9dd66349540b880,2020-11-27_15h10.22.097,lexical_decision_task_MP_exp2,2020.2.5,Win32,60,m,1,0.536855,,,,,,,,0.536855,1,,,,,,141,WORD,"ID",16,orphan,ORPHAN,m,,,,,,0.023641913,-0.147881342,0,0,0,,0,76,76,80,1,,
,,,,,,,,,,,,,,,,,,5e870606f9dd66349540b880,2020-11-27_15h10.22.097,lexical_decision_task_MP_exp2,2020.2.5,Win32,60,m,1,0.52778,,,,,,,,0.52778,1,,,,,,39,WORD,UN,16,convey,INSECT,m,,,,,,0.023641913,-0.147881342,0,0,0,,0,77,77,218,1,,
,,,,,,,,,,,,,,,,,,5e870606f9dd66349540b880,2020-11-27_15h10.22.097,lexical_decision_task_MP_exp2,2020.2.5,Win32,60,z,1,0.59674,,,,,,,,0.59674,1,,,,,,274,NW,UN,16,sleirt,FUMBLO,z,,,,,,0.023641913,-0.147881342,0,0,0,,0,78,78,453,1,,
,,,,,,,,,,,,,,,,,,5e870606f9dd66349540b880,2020-11-27_15h10.22.097,lexical_decision_task_MP_exp2,2020.2.5,Win32,60,z,1,0.66928,,,,,,,,0.66928,1,,,,,,366,NW,"ID",16,toshel,TOSHEL,z,,,,,,0.023641913,-0.147881342,0,0,0,,0,79,79,305,1,,
,,,,,,,,,,,,,,,,,,5e870606f9dd66349540b880,2020-11-27_15h10.22.097,lexical_decision_task_MP_exp2,2020.2.5,Win32,60,z,1,0.78175,,,,,,,,0.78175,1,,,,,,273,NW,UN,16,fumblo,SORTEL,z,,,,,,0.023641913,-0.147881342,0,0,0,,0,80,80,452,1,,
,,,,,,,,,,,,,,,,,,5e870606f9dd66349540b880,2020-11-27_15h10.22.097,lexical_decision_task_MP_exp2,2020.2.5,Win32,60,m,1,0.738845,,,,,,,,0.738845,1,,,,,,59,WORD,UN,16,pencil,SPLINT,m,,,,,,0.023641913,-0.147881342,0,0,0,,0,81,81,238,1,,
,,,,,,,,,,,,,,,,,,5e870606f9dd66349540b880,2020-11-27_15h10.22.097,lexical_decision_task_MP_exp2,2020.2.5,Win32,60,z,1,0.6157,,,,,,,,0.6157,1,,,,,,347,NW,"ID",33,kerift,KERIFT,z,,,,,,0.023641913,-0.147881342,0,0,0,,0,82,82,286,1,,
,,,,,,,,,,,,,,,,,,5e870606f9dd66349540b880,2020-11-27_15h10.22.097,lexical_decision_task_MP_exp2,2020.2.5,Win32,60,z,1,0.74314,,,,,,,,0.74314,1,,,,,,269,NW,UN,16,wrimsy,ORCHET,z,,,,,,0.023641913,-0.147881342,0,0,0,,0,83,83,448,1,,
,,,,,,,,,,,,,,,,,,5e870606f9dd66349540b880,2020-11-27_15h10.22.097,lexical_decision_task_MP_exp2,2020.2.5,Win32,60,z,1,0.65766,,,,,,,,0.65766,1,,,,,,367,NW,"ID",16,slique,SLIQUE,z,,,,,,0.023641913,-0.147881342,0,0,0,,0,84,84,306,1,,
,,,,,,,,,,,,,,,,,,5e870606f9dd66349540b880,2020-11-27_15h10.22.097,lexical_decision_task_MP_exp2,2020.2.5,Win32,60,z,0,0.666095,,,,,,,,0.666095,0,,,,,,221,WORD,UN,33,hinder,MASCOT,m,,,,,,0.023641913,-0.147881342,0,0,0,,0,85,85,160,1,,
,,,,,,,,,,,,,,,,,,5e870606f9dd66349540b880,2020-11-27_15h10.22.097,lexical_decision_task_MP_exp2,2020.2.5,Win32,60,z,1,0.69716,,,,,,,,0.69716,1,,,,,,461,NW,UN,33,absult,JUSTRE,z,,,,,,0.023641913,-0.147881342,0,0,0,,0,86,86,400,1,,
,,,,,,,,,,,,,,,,,,5e870606f9dd66349540b880,2020-11-27_15h10.22.097,lexical_decision_task_MP_exp2,2020.2.5,Win32,60,z,1,0.759445,,,,,,,,0.759445,1,,,,,,341,NW,"ID",33,myrtie,MYRTIE,z,,,,,,0.023641913,-0.147881342,0,0,0,,0,87,87,280,1,,
,,,,,,,,,,,,,,,,,,5e870606f9dd66349540b880,2020-11-27_15h10.22.097,lexical_decision_task_MP_exp2,2020.2.5,Win32,60,z,1,0.61874,,,,,,,,0.61874,1,,,,,,315,NW,"ID",33,laston,LASTON,z,,,,,,0.023641913,-0.147881342,0,0,0,,0,88,88,254,1,,
,,,,,,,,,,,,,,,,,,5e870606f9dd66349540b880,2020-11-27_15h10.22.097,lexical_decision_task_MP_exp2,2020.2.5,Win32,60,z,1,0.537445,,,,,,,,0.537445,1,,,,,,375,NW,"ID",16,yorque,YORQUE,z,,,,,,0.023641913,-0.147881342,0,0,0,,0,89,89,314,1,,
,,,,,,,,,,,,,,,,,,5e870606f9dd66349540b880,2020-11-27_15h10.22.097,lexical_decision_task_MP_exp2,2020.2.5,Win32,60,z,1,0.617035,,,,,,,,0.617035,1,,,,,,259,NW,UN,16,unject,SOUDAL,z,,,,,,0.023641913,-0.147881342,0,0,0,,0,90,90,438,1,,
,,,,,,,,,,,,,,,,,,5e870606f9dd66349540b880,2020-11-27_15h10.22.097,lexical_decision_task_MP_exp2,2020.2.5,Win32,60,z,1,0.569225,,,,,,,,0.569225,1,,,,,,327,NW,"ID",33,plenac,PLENAC,z,,,,,,0.023641913,-0.147881342,0,0,0,,0,91,91,266,1,,
,,,,,,,,,,,,,,,,,,5e870606f9dd66349540b880,2020-11-27_15h10.22.097,lexical_decision_task_MP_exp2,2020.2.5,Win32,60,z,1,0.504515,,,,,,,,0.504515,1,,,,,,350,NW,"ID",33,nagurs,NAGURS,z,,,,,,0.023641913,-0.147881342,0,0,0,,0,92,92,289,1,,
,,,,,,,,,,,,,,,,,,5e870606f9dd66349540b880,2020-11-27_15h10.22.097,lexical_decision_task_MP_exp2,2020.2.5,Win32,60,z,1,0.702025,,,,,,,,0.702025,1,,,,,,289,NW,UN,16,splino,STARBY,z,,,,,,0.023641913,-0.147881342,0,0,0,,0,93,93,468,1,,
,,,,,,,,,,,,,,,,,,5e870606f9dd66349540b880,2020-11-27_15h10.22.097,lexical_decision_task_MP_exp2,2020.2.5,Win32,60,z,1,1.035795,,,,,,,,1.035795,1,,,,,,372,NW,"ID",16,ramily,RAMILY,z,,,,,,0.023641913,-0.147881342,0,0,0,,0,94,94,311,1,,
,,,,,,,,,,,,,,,,,,5e870606f9dd66349540b880,2020-11-27_15h10.22.097,lexical_decision_task_MP_exp2,2020.2.5,Win32,60,m,1,0.643375,,,,,,,,0.643375,1,,,,,,129,WORD,"ID",16,marvel,MARVEL,m,,,,,,0.023641913,-0.147881342,0,0,0,,0,95,95,68,1,,
,,,,,,,,,,,,,,,,,,5e870606f9dd66349540b880,2020-11-27_15h10.22.097,lexical_decision_task_MP_exp2,2020.2.5,Win32,60,m,1,0.73509,,,,,,,,0.73509,1,,,,,,172,WORD,"ID",16,patrol,PATROL,m,,,,,,0.023641913,-0.147881342,0,0,0,,0,96,96,111,1,,
,,,,,,,,,,,,,,,,,,5e870606f9dd66349540b880,2020-11-27_15h10.22.097,lexical_decision_task_MP_exp2,2020.2.5,Win32,60,m,1,0.58847,,,,,,,,0.58847,1,,,,,,156,WORD,"ID",16,cradle,CRADLE,m,,,,,,0.023641913,-0.147881342,0,0,0,,0,97,97,95,1,,
,,,,,,,,,,,,,,,,,,5e870606f9dd66349540b880,2020-11-27_15h10.22.097,lexical_decision_task_MP_exp2,2020.2.5,Win32,60,z,1,0.75197,,,,,,,,0.75197,1,,,,,,386,NW,"ID",16,ancust,ANCUST,z,,,,,,0.023641913,-0.147881342,0,0,0,,0,98,98,325,1,,
,,,,,,,,,,,,,,,,,,5e870606f9dd66349540b880,2020-11-27_15h10.22.097,lexical_decision_task_MP_exp2,2020.2.5,Win32,60,m,1,0.73044,,,,,,,,0.73044,1,,,,,,44,WORD,UN,16,clergy,DANGER,m,,,,,,0.023641913,-0.147881342,0,0,0,,0,99,99,223,1,,
,,,,,,,,,,,,,,,,,,5e870606f9dd66349540b880,2020-11-27_15h10.22.097,lexical_decision_task_MP_exp2,2020.2.5,Win32,60,m,1,0.86296,,,,,,,,0.86296,1,,,,,,226,WORD,UN,33,flower,CASINO,m,,,,,,0.023641913,-0.147881342,0,0,0,,0,100,100,165,1,,
,,,,,,,,,,,,,,,,,,5e870606f9dd66349540b880,2020-11-27_15h10.22.097,lexical_decision_task_MP_exp2,2020.2.5,Win32,60,m,1,0.57498,,,,,,,,0.57498,1,,,,,,168,WORD,"ID",16,answer,ANSWER,m,,,,,,0.023641913,-0.147881342,0,0,0,,0,101,101,107,1,,
,,,,,,,,,,,,,,,,,,5e870606f9dd66349540b880,2020-11-27_15h10.22.097,lexical_decision_task_MP_exp2,2020.2.5,Win32,60,m,0,0.51849,,,,,,,,0.51849,0,,,,,,314,NW,"ID",33,sprine,SPRINE,z,,,,,,0.023641913,-0.147881342,0,0,0,,0,102,102,253,1,,
,,,,,,,,,,,,,,,,,,5e870606f9dd66349540b880,2020-11-27_15h10.22.097,lexical_decision_task_MP_exp2,2020.2.5,Win32,60,z,1,0.86008,,,,,,,,0.86008,1,,,,,,373,NW,"ID",16,bigent,BIGENT,z,,,,,,0.023641913,-0.147881342,0,0,0,,0,103,103,312,1,,
,,,,,,,,,,,,,,,,,,5e870606f9dd66349540b880,2020-11-27_15h10.22.097,lexical_decision_task_MP_exp2,2020.2.5,Win32,60,m,1,1.146905,,,,,,,,1.146905,1,,,,,,176,WORD,"ID",16,strife,STRIFE,m,,,,,,0.023641913,-0.147881342,0,0,0,,0,104,104,115,1,,
,,,,,,,,,,,,,,,,,,5e870606f9dd66349540b880,2020-11-27_15h10.22.097,lexical_decision_task_MP_exp2,2020.2.5,Win32,60,m,1,1.13001,,,,,,,,1.13001,1,,,,,,140,WORD,"ID",16,prince,PRINCE,m,,,,,,0.023641913,-0.147881342,0,0,0,,0,105,105,79,1,,
,,,,,,,,,,,,,,,,,,5e870606f9dd66349540b880,2020-11-27_15h10.22.097,lexical_decision_task_MP_exp2,2020.2.5,Win32,60,m,1,0.86272,,,,,,,,0.86272,1,,,,,,180,WORD,"ID",16,silent,SILENT,m,,,,,,0.023641913,-0.147881342,0,0,0,,0,106,106,119,1,,
,,,,,,,,,,,,,,,,,,5e870606f9dd66349540b880,2020-11-27_15h10.22.097,lexical_decision_task_MP_exp2,2020.2.5,Win32,60,m,1,0.5317,,,,,,,,0.5317,1,,,,,,233,WORD,UN,33,clumsy,NATURE,m,,,,,,0.023641913,-0.147881342,0,0,0,,0,107,107,172,1,,
,,,,,,,,,,,,,,,,,,5e870606f9dd66349540b880,2020-11-27_15h10.22.097,lexical_decision_task_MP_exp2,2020.2.5,Win32,60,m,1,0.617215,,,,,,,,0.617215,1,,,,,,167,WORD,"ID",16,design,DESIGN,m,,,,,,0.023641913,-0.147881342,0,0,0,,0,108,108,106,1,,
,,,,,,,,,,,,,,,,,,5e870606f9dd66349540b880,2020-11-27_15h10.22.097,lexical_decision_task_MP_exp2,2020.2.5,Win32,60,z,1,0.721175,,,,,,,,0.721175,1,,,,,,385,NW,"ID",16,veigma,VEIGMA,z,,,,,,0.023641913,-0.147881342,0,0,0,,0,109,109,324,1,,
,,,,,,,,,,,,,,,,,,5e870606f9dd66349540b880,2020-11-27_15h10.22.097,lexical_decision_task_MP_exp2,2020.2.5,Win32,60,z,1,0.82824,,,,,,,,0.82824,1,,,,,,435,NW,UN,33,frutan,IMPURB,z,,,,,,0.023641913,-0.147881342,0,0,0,,0,110,110,374,1,,
,,,,,,,,,,,,,,,,,,5e870606f9dd66349540b880,2020-11-27_15h10.22.097,lexical_decision_task_MP_exp2,2020.2.5,Win32,60,m,1,0.994605,,,,,,,,0.994605,1,,,,,,22,WORD,UN,16,wealth,JOCKEY,m,,,,,,0.023641913,-0.147881342,0,0,0,,0,111,111,201,1,,
,,,,,,,,,,,,,,,,,,5e870606f9dd66349540b880,2020-11-27_15h10.22.097,lexical_decision_task_MP_exp2,2020.2.5,Win32,60,z,1,0.738855,,,,,,,,0.738855,1,,,,,,422,NW,UN,33,streld,ALCOUD,z,,,,,,0.023641913,-0.147881342,0,0,0,,0,112,112,361,1,,
,,,,,,,,,,,,,,,,,,5e870606f9dd66349540b880,2020-11-27_15h10.22.097,lexical_decision_task_MP_exp2,2020.2.5,Win32,60,z,1,0.870905,,,,,,,,0.870905,1,,,,,,328,NW,"ID",33,broake,BROAKE,z,,,,,,0.023641913,-0.147881342,0,0,0,,0,113,113,267,1,,
,,,,,,,,,,,,,,,,,,5e870606f9dd66349540b880,2020-11-27_15h10.22.097,lexical_decision_task_MP_exp2,2020.2.5,Win32,60,z,1,0.66668,,,,,,,,0.66668,1,,,,,,411,NW,"ID",16,orchin,ORCHIN,z,,,,,,0.023641913,-0.147881342,0,0,0,,0,114,114,350,1,,
,,,,,,,,,,,,,,,,,,5e870606f9dd66349540b880,2020-11-27_15h10.22.097,lexical_decision_task_MP_exp2,2020.2.5,Win32,60,m,1,0.88554,,,,,,,,0.88554,1,,,,,,135,WORD,"ID",16,import,IMPORT,m,,,,,,0.023641913,-0.147881342,0,0,0,,0,115,115,74,1,,
,,,,,,,,,,,,,,,,,,5e870606f9dd66349540b880,2020-11-27_15h10.22.097,lexical_decision_task_MP_exp2,2020.2.5,Win32,60,z,1,0.76348,,,,,,,,0.76348,1,,,,,,436,NW,UN,33,snapel,FRUTAN,z,,,,,,0.023641913,-0.147881342,0,0,0,,0,116,116,375,1,,
,,,,,,,,,,,,,,,,,,5e870606f9dd66349540b880,2020-11-27_15h10.22.097,lexical_decision_task_MP_exp2,2020.2.5,Win32,60,z,1,0.806155,,,,,,,,0.806155,1,,,,,,426,NW,UN,33,schind,URIVEL,z,,,,,,0.023641913,-0.147881342,0,0,0,,0,117,117,365,1,,
,,,,,,,,,,,,,,,,,,5e870606f9dd66349540b880,2020-11-27_15h10.22.097,lexical_decision_task_MP_exp2,2020.2.5,Win32,60,z,1,0.6139,,,,,,,,0.6139,1,,,,,,294,NW,UN,16,gleath,INHORT,z,,,,,,0.023641913,-0.147881342,0,0,0,,0,118,118,473,1,,
,,,,,,,,,,,,,,,,,,5e870606f9dd66349540b880,2020-11-27_15h10.22.097,lexical_decision_task_MP_exp2,2020.2.5,Win32,60,m,1,0.60043,,,,,,,,0.60043,1,,,,,,107,WORD,"ID",33,slogan,SLOGAN,m,,,,,,0.023641913,-0.147881342,0,0,0,,0,119,119,46,1,,
,,,,,,,,,,,,,,,,,,5e870606f9dd66349540b880,2020-11-27_15h10.22.097,lexical_decision_task_MP_exp2,2020.2.5,Win32,60,z,1,0.71638,,,,,,,,0.71638,1,,,,,,300,NW,UN,16,smenco,YARION,z,,,,,,-0.045735891,-0.395506565,1,0,0,,0,120,120,479,1,break_done_button,
,,,,,,,,,,,,,,,,,,5e870606f9dd66349540b880,2020-11-27_15h10.22.097,lexical_decision_task_MP_exp2,2020.2.5,Win32,60,m,1,0.78337,,,,,,,,0.78337,1,,,,,,33,WORD,UN,16,jungle,BUTLER,m,,,,,,-0.036129743,-0.380563603,0,0,0,,0,121,121,212,1,,
,,,,,,,,,,,,,,,,,,5e870606f9dd66349540b880,2020-11-27_15h10.22.097,lexical_decision_task_MP_exp2,2020.2.5,Win32,60,m,1,0.67206,,,,,,,,0.67206,1,,,,,,38,WORD,UN,16,insect,POWDER,m,,,,,,-0.036129743,-0.380563603,0,0,0,,0,122,122,217,1,,
,,,,,,,,,,,,,,,,,,5e870606f9dd66349540b880,2020-11-27_15h10.22.097,lexical_decision_task_MP_exp2,2020.2.5,Win32,60,z,1,0.759645,,,,,,,,0.759645,1,,,,,,427,NW,UN,33,tandly,SCHIND,z,,,,,,-0.036129743,-0.380563603,0,0,0,,0,123,123,366,1,,
,,,,,,,,,,,,,,,,,,5e870606f9dd66349540b880,2020-11-27_15h10.22.097,lexical_decision_task_MP_exp2,2020.2.5,Win32,60,z,1,0.651145,,,,,,,,0.651145,1,,,,,,450,NW,UN,33,cainky,PHRECT,z,,,,,,-0.036129743,-0.380563603,0,0,0,,0,124,124,389,1,,
,,,,,,,,,,,,,,,,,,5e870606f9dd66349540b880,2020-11-27_15h10.22.097,lexical_decision_task_MP_exp2,2020.2.5,Win32,60,z,1,0.759875,,,,,,,,0.759875,1,,,,,,374,NW,"ID",16,sliant,SLIANT,z,,,,,,-0.036129743,-0.380563603,0,0,0,,0,125,125,313,1,,
,,,,,,,,,,,,,,,,,,5e870606f9dd66349540b880,2020-11-27_15h10.22.097,lexical_decision_task_MP_exp2,2020.2.5,Win32,60,z,1,0.6147,,,,,,,,0.6147,1,,,,,,296,NW,UN,16,fertic,BEINCH,z,,,,,,-0.036129743,-0.380563603,0,0,0,,0,126,126,475,1,,
,,,,,,,,,,,,,,,,,,5e870606f9dd66349540b880,2020-11-27_15h10.22.097,lexical_decision_task_MP_exp2,2020.2.5,Win32,60,m,1,0.65664,,,,,,,,0.65664,1,,,,,,187,WORD,UN,33,social,COURSE,m,,,,,,-0.036129743,-0.380563603,0,0,0,,0,127,127,126,1,,
,,,,,,,,,,,,,,,,,,5e870606f9dd66349540b880,2020-11-27_15h10.22.097,lexical_decision_task_MP_exp2,2020.2.5,Win32,60,m,1,0.679525,,,,,,,,0.679525,1,,,,,,108,WORD,"ID",33,reckon,RECKON,m,,,,,,-0.036129743,-0.380563603,0,0,0,,0,128,128,47,1,,
,,,,,,,,,,,,,,,,,,5e870606f9dd66349540b880,2020-11-27_15h10.22.097,lexical_decision_task_MP_exp2,2020.2.5,Win32,60,z,1,0.915685,,,,,,,,0.915685,1,,,,,,282,NW,UN,16,veralf,PORLEX,z,,,,,,-0.036129743,-0.380563603,0,0,0,,0,129,129,461,1,,
,,,,,,,,,,,,,,,,,,5e870606f9dd66349540b880,2020-11-27_15h10.22.097,lexical_decision_task_MP_exp2,2020.2.5,Win32,60,m,1,1.0754,,,,,,,,1.0754,1,,,,,,48,WORD,UN,16,survey,WALNUT,m,,,,,,-0.036129743,-0.380563603,0,0,0,,0,130,130,227,1,,
,,,,,,,,,,,,,,,,,,5e870606f9dd66349540b880,2020-11-27_15h10.22.097,lexical_decision_task_MP_exp2,2020.2.5,Win32,60,z,1,0.87478,,,,,,,,0.87478,1,,,,,,284,NW,UN,16,prudge,SHAPLE,z,,,,,,-0.036129743,-0.380563603,0,0,0,,0,131,131,463,1,,
,,,,,,,,,,,,,,,,,,5e870606f9dd66349540b880,2020-11-27_15h10.22.097,lexical_decision_task_MP_exp2,2020.2.5,Win32,60,z,1,0.982735,,,,,,,,0.982735,1,,,,,,467,NW,UN,33,wictor,GORBIE,z,,,,,,-0.036129743,-0.380563603,0,0,0,,0,132,132,406,1,,
,,,,,,,,,,,,,,,,,,5e870606f9dd66349540b880,2020-11-27_15h10.22.097,lexical_decision_task_MP_exp2,2020.2.5,Win32,60,z,1,1.458185,,,,,,,,1.458185,1,,,,,,404,NW,"ID",16,cluirm,CLUIRM,z,,,,,,-0.036129743,-0.380563603,0,0,0,,0,133,133,343,1,,
,,,,,,,,,,,,,,,,,,5e870606f9dd66349540b880,2020-11-27_15h10.22.097,lexical_decision_task_MP_exp2,2020.2.5,Win32,60,z,1,0.587665,,,,,,,,0.587665,1,,,,,,400,NW,"ID",16,wearox,WEAROX,z,,,,,,-0.036129743,-0.380563603,0,0,0,,0,134,134,339,1,,
,,,,,,,,,,,,,,,,,,5e870606f9dd66349540b880,2020-11-27_15h10.22.097,lexical_decision_task_MP_exp2,2020.2.5,Win32,60,m,1,0.644575,,,,,,,,0.644575,1,,,,,,214,WORD,UN,33,phobia,INTAKE,m,,,,,,-0.036129743,-0.380563603,0,0,0,,0,135,135,153,1,,
,,,,,,,,,,,,,,,,,,5e870606f9dd66349540b880,2020-11-27_15h10.22.097,lexical_decision_task_MP_exp2,2020.2.5,Win32,60,z,1,0.878725,,,,,,,,0.878725,1,,,,,,290,NW,UN,16,pretch,SPLINO,z,,,,,,-0.036129743,-0.380563603,0,0,0,,0,136,136,469,1,,
,,,,,,,,,,,,,,,,,,5e870606f9dd66349540b880,2020-11-27_15h10.22.097,lexical_decision_task_MP_exp2,2020.2.5,Win32,60,m,1,0.74712,,,,,,,,0.74712,1,,,,,,130,WORD,"ID",16,stupid,STUPID,m,,,,,,-0.036129743,-0.380563603,0,0,0,,0,137,137,69,1,,
,,,,,,,,,,,,,,,,,,5e870606f9dd66349540b880,2020-11-27_15h10.22.097,lexical_decision_task_MP_exp2,2020.2.5,Win32,60,m,1,0.841905,,,,,,,,0.841905,1,,,,,,147,WORD,"ID",16,garlic,GARLIC,m,,,,,,-0.036129743,-0.380563603,0,0,0,,0,138,138,86,1,,
,,,,,,,,,,,,,,,,,,5e870606f9dd66349540b880,2020-11-27_15h10.22.097,lexical_decision_task_MP_exp2,2020.2.5,Win32,60,m,1,0.713835,,,,,,,,0.713835,1,,,,,,223,WORD,UN,33,period,KIDNEY,m,,,,,,-0.036129743,-0.380563603,0,0,0,,0,139,139,162,1,,
,,,,,,,,,,,,,,,,,,5e870606f9dd66349540b880,2020-11-27_15h10.22.097,lexical_decision_task_MP_exp2,2020.2.5,Win32,60,z,1,0.71134,,,,,,,,0.71134,1,,,,,,346,NW,"ID",33,saudic,SAUDIC,z,,,,,,-0.036129743,-0.380563603,0,0,0,,0,140,140,285,1,,
,,,,,,,,,,,,,,,,,,5e870606f9dd66349540b880,2020-11-27_15h10.22.097,lexical_decision_task_MP_exp2,2020.2.5,Win32,60,z,1,1.14767,,,,,,,,1.14767,1,,,,,,440,NW,UN,33,rastoe,SARIDE,z,,,,,,-0.036129743,-0.380563603,0,0,0,,0,141,141,379,1,,
,,,,,,,,,,,,,,,,,,5e870606f9dd66349540b880,2020-11-27_15h10.22.097,lexical_decision_task_MP_exp2,2020.2.5,Win32,60,z,1,1.056585,,,,,,,,1.056585,1,,,,,,463,NW,UN,33,chaite,KISPEL,z,,,,,,-0.036129743,-0.380563603,0,0,0,,0,142,142,402,1,,
,,,,,,,,,,,,,,,,,,5e870606f9dd66349540b880,2020-11-27_15h10.22.097,lexical_decision_task_MP_exp2,2020.2.5,Win32,60,z,1,0.616915,,,,,,,,0.616915,1,,,,,,318,NW,"ID",33,reagly,REAGLY,z,,,,,,-0.036129743,-0.380563603,0,0,0,,0,143,143,257,1,,
,,,,,,,,,,,,,,,,,,5e870606f9dd66349540b880,2020-11-27_15h10.22.097,lexical_decision_task_MP_exp2,2020.2.5,Win32,60,m,1,1.161245,,,,,,,,1.161245,1,,,,,,9,WORD,UN,16,bridge,HUSTLE,m,,,,,,-0.036129743,-0.380563603,0,0,0,,0,144,144,188,1,,
,,,,,,,,,,,,,,,,,,5e870606f9dd66349540b880,2020-11-27_15h10.22.097,lexical_decision_task_MP_exp2,2020.2.5,Win32,60,z,1,0.98023,,,,,,,,0.98023,1,,,,,,325,NW,"ID",33,thruse,THRUSE,z,,,,,,-0.036129743,-0.380563603,0,0,0,,0,145,145,264,1,,
,,,,,,,,,,,,,,,,,,5e870606f9dd66349540b880,2020-11-27_15h10.22.097,lexical_decision_task_MP_exp2,2020.2.5,Win32,60,m,1,0.71169,,,,,,,,0.71169,1,,,,,,57,WORD,UN,16,danger,CHANGE,m,,,,,,-0.036129743,-0.380563603,0,0,0,,0,146,146,236,1,,
,,,,,,,,,,,,,,,,,,5e870606f9dd66349540b880,2020-11-27_15h10.22.097,lexical_decision_task_MP_exp2,2020.2.5,Win32,60,z,1,0.88949,,,,,,,,0.88949,1,,,,,,382,NW,"ID",16,sarley,SARLEY,z,,,,,,-0.036129743,-0.380563603,0,0,0,,0,147,147,321,1,,
,,,,,,,,,,,,,,,,,,5e870606f9dd66349540b880,2020-11-27_15h10.22.097,lexical_decision_task_MP_exp2,2020.2.5,Win32,60,z,1,0.94726,,,,,,,,0.94726,1,,,,,,266,NW,UN,16,pasink,VARMIT,z,,,,,,-0.036129743,-0.380563603,0,0,0,,0,148,148,445,1,,
,,,,,,,,,,,,,,,,,,5e870606f9dd66349540b880,2020-11-27_15h10.22.097,lexical_decision_task_MP_exp2,2020.2.5,Win32,60,z,1,0.878195,,,,,,,,0.878195,1,,,,,,244,NW,UN,16,anougs,EATRIC,z,,,,,,-0.036129743,-0.380563603,0,0,0,,0,149,149,423,1,,
,,,,,,,,,,,,,,,,,,5e870606f9dd66349540b880,2020-11-27_15h10.22.097,lexical_decision_task_MP_exp2,2020.2.5,Win32,60,z,1,0.973265,,,,,,,,0.973265,1,,,,,,442,NW,UN,33,dorsex,ABOUNE,z,,,,,,-0.036129743,-0.380563603,0,0,0,,0,150,150,381,1,,
,,,,,,,,,,,,,,,,,,5e870606f9dd66349540b880,2020-11-27_15h10.22.097,lexical_decision_task_MP_exp2,2020.2.5,Win32,60,m,1,0.623675,,,,,,,,0.623675,1,,,,,,197,WORD,UN,33,wicked,STREAM,m,,,,,,-0.036129743,-0.380563603,0,0,0,,0,151,151,136,1,,
,,,,,,,,,,,,,,,,,,5e870606f9dd66349540b880,2020-11-27_15h10.22.097,lexical_decision_task_MP_exp2,2020.2.5,Win32,60,z,1,0.65732,,,,,,,,0.65732,1,,,,,,387,NW,"ID",16,gronce,GRONCE,z,,,,,,-0.036129743,-0.380563603,0,0,0,,0,152,152,326,1,,
,,,,,,,,,,,,,,,,,,5e870606f9dd66349540b880,2020-11-27_15h10.22.097,lexical_decision_task_MP_exp2,2020.2.5,Win32,60,m,1,1.65672,,,,,,,,1.65672,1,,,,,,77,WORD,"ID",33,racket,RACKET,m,,,,,,-0.036129743,-0.380563603,0,0,0,,0,153,153,16,1,,
,,,,,,,,,,,,,,,,,,5e870606f9dd66349540b880,2020-11-27_15h10.22.097,lexical_decision_task_MP_exp2,2020.2.5,Win32,60,m,1,1.128795,,,,,,,,1.128795,1,,,,,,194,WORD,UN,33,resign,ABSENT,m,,,,,,-0.036129743,-0.380563603,0,0,0,,0,154,154,133,1,,
,,,,,,,,,,,,,,,,,,5e870606f9dd66349540b880,2020-11-27_15h10.22.097,lexical_decision_task_MP_exp2,2020.2.5,Win32,60,m,1,0.585445,,,,,,,,0.585445,1,,,,,,25,WORD,UN,16,sprint,DOMAIN,m,,,,,,-0.036129743,-0.380563603,0,0,0,,0,155,155,204,1,,
,,,,,,,,,,,,,,,,,,5e870606f9dd66349540b880,2020-11-27_15h10.22.097,lexical_decision_task_MP_exp2,2020.2.5,Win32,60,z,1,0.949265,,,,,,,,0.949265,1,,,,,,243,NW,UN,16,eatric,MUSIED,z,,,,,,-0.036129743,-0.380563603,0,0,0,,0,156,156,422,1,,
,,,,,,,,,,,,,,,,,,5e870606f9dd66349540b880,2020-11-27_15h10.22.097,lexical_decision_task_MP_exp2,2020.2.5,Win32,60,z,1,1.274615,,,,,,,,1.274615,1,,,,,,288,NW,UN,16,starby,YACEUP,z,,,,,,-0.036129743,-0.380563603,0,0,0,,0,157,157,467,1,,
,,,,,,,,,,,,,,,,,,5e870606f9dd66349540b880,2020-11-27_15h10.22.097,lexical_decision_task_MP_exp2,2020.2.5,Win32,60,m,1,0.584525,,,,,,,,0.584525,1,,,,,,149,WORD,"ID",16,invade,INVADE,m,,,,,,-0.036129743,-0.380563603,0,0,0,,0,158,158,88,1,,
,,,,,,,,,,,,,,,,,,5e870606f9dd66349540b880,2020-11-27_15h10.22.097,lexical_decision_task_MP_exp2,2020.2.5,Win32,60,z,1,0.63034,,,,,,,,0.63034,1,,,,,,393,NW,"ID",16,ganous,GANOUS,z,,,,,,-0.036129743,-0.380563603,0,0,0,,0,159,159,332,1,,
,,,,,,,,,,,,,,,,,,5e870606f9dd66349540b880,2020-11-27_15h10.22.097,lexical_decision_task_MP_exp2,2020.2.5,Win32,60,z,1,1.20694,,,,,,,,1.20694,1,,,,,,364,NW,"ID",16,impote,IMPOTE,z,,,,,,-0.036129743,-0.380563603,0,0,0,,0,160,160,303,1,,
,,,,,,,,,,,,,,,,,,5e870606f9dd66349540b880,2020-11-27_15h10.22.097,lexical_decision_task_MP_exp2,2020.2.5,Win32,60,z,1,1.775955,,,,,,,,1.775955,1,,,,,,332,NW,"ID",33,vangue,VANGUE,z,,,,,,-0.036129743,-0.380563603,0,0,0,,0,161,161,271,1,,
,,,,,,,,,,,,,,,,,,5e870606f9dd66349540b880,2020-11-27_15h10.22.097,lexical_decision_task_MP_exp2,2020.2.5,Win32,60,z,1,0.53566,,,,,,,,0.53566,1,,,,,,324,NW,"ID",33,steikh,STEIKH,z,,,,,,-0.036129743,-0.380563603,0,0,0,,0,162,162,263,1,,
,,,,,,,,,,,,,,,,,,5e870606f9dd66349540b880,2020-11-27_15h10.22.097,lexical_decision_task_MP_exp2,2020.2.5,Win32,60,z,1,1.126885,,,,,,,,1.126885,1,,,,,,349,NW,"ID",33,asylen,ASYLEN,z,,,,,,-0.036129743,-0.380563603,0,0,0,,0,163,163,288,1,,
,,,,,,,,,,,,,,,,,,5e870606f9dd66349540b880,2020-11-27_15h10.22.097,lexical_decision_task_MP_exp2,2020.2.5,Win32,60,m,1,0.82384,,,,,,,,0.82384,1,,,,,,190,WORD,UN,33,stable,BACKUP,m,,,,,,-0.036129743,-0.380563603,0,0,0,,0,164,164,129,1,,
,,,,,,,,,,,,,,,,,,5e870606f9dd66349540b880,2020-11-27_15h10.22.097,lexical_decision_task_MP_exp2,2020.2.5,Win32,60,m,1,0.64119,,,,,,,,0.64119,1,,,,,,18,WORD,UN,16,patron,HUMBLE,m,,,,,,-0.036129743,-0.380563603,0,0,0,,0,165,165,197,1,,
,,,,,,,,,,,,,,,,,,5e870606f9dd66349540b880,2020-11-27_15h10.22.097,lexical_decision_task_MP_exp2,2020.2.5,Win32,60,z,1,1.92367,,,,,,,,1.92367,1,,,,,,303,NW,"ID",33,fiream,FIREAM,z,,,,,,-0.036129743,-0.380563603,0,0,0,,0,166,166,242,1,,
,,,,,,,,,,,,,,,,,,5e870606f9dd66349540b880,2020-11-27_15h10.22.097,lexical_decision_task_MP_exp2,2020.2.5,Win32,60,m,1,1.09646,,,,,,,,1.09646,1,,,,,,219,WORD,UN,33,voyage,BUCKET,m,,,,,,-0.036129743,-0.380563603,0,0,0,,0,167,167,158,1,,
,,,,,,,,,,,,,,,,,,5e870606f9dd66349540b880,2020-11-27_15h10.22.097,lexical_decision_task_MP_exp2,2020.2.5,Win32,60,z,1,0.7594,,,,,,,,0.7594,1,,,,,,378,NW,"ID",16,shrile,SHRILE,z,,,,,,-0.036129743,-0.380563603,0,0,0,,0,168,168,317,1,,
,,,,,,,,,,,,,,,,,,5e870606f9dd66349540b880,2020-11-27_15h10.22.097,lexical_decision_task_MP_exp2,2020.2.5,Win32,60,m,1,1.234375,,,,,,,,1.234375,1,,,,,,120,WORD,"ID",33,strain,STRAIN,m,,,,,,-0.036129743,-0.380563603,0,0,0,,0,169,169,59,1,,
,,,,,,,,,,,,,,,,,,5e870606f9dd66349540b880,2020-11-27_15h10.22.097,lexical_decision_task_MP_exp2,2020.2.5,Win32,60,z,1,0.9701,,,,,,,,0.9701,1,,,,,,453,NW,UN,33,scouge,BOLVIS,z,,,,,,-0.036129743,-0.380563603,0,0,0,,0,170,170,392,1,,
,,,,,,,,,,,,,,,,,,5e870606f9dd66349540b880,2020-11-27_15h10.22.097,lexical_decision_task_MP_exp2,2020.2.5,Win32,60,m,1,1.65135,,,,,,,,1.65135,1,,,,,,1,WORD,UN,16,ethnic,FRIGHT,m,,,,,,-0.036129743,-0.380563603,0,0,0,,0,171,171,180,1,,
,,,,,,,,,,,,,,,,,,5e870606f9dd66349540b880,2020-11-27_15h10.22.097,lexical_decision_task_MP_exp2,2020.2.5,Win32,60,z,1,0.921625,,,,,,,,0.921625,1,,,,,,441,NW,UN,33,aboune,RASTOE,z,,,,,,-0.036129743,-0.380563603,0,0,0,,0,172,172,380,1,,
,,,,,,,,,,,,,,,,,,5e870606f9dd66349540b880,2020-11-27_15h10.22.097,lexical_decision_task_MP_exp2,2020.2.5,Win32,60,m,1,0.82705,,,,,,,,0.82705,1,,,,,,56,WORD,UN,16,change,AMBUSH,m,,,,,,-0.036129743,-0.380563603,0,0,0,,0,173,173,235,1,,
,,,,,,,,,,,,,,,,,,5e870606f9dd66349540b880,2020-11-27_15h10.22.097,lexical_decision_task_MP_exp2,2020.2.5,Win32,60,z,1,0.795715,,,,,,,,0.795715,1,,,,,,414,NW,"ID",16,serbol,SERBOL,z,,,,,,-0.036129743,-0.380563603,0,0,0,,0,174,174,353,1,,
,,,,,,,,,,,,,,,,,,5e870606f9dd66349540b880,2020-11-27_15h10.22.097,lexical_decision_task_MP_exp2,2020.2.5,Win32,60,m,1,0.64256,,,,,,,,0.64256,1,,,,,,6,WORD,UN,16,anchor,BUNDLE,m,,,,,,-0.036129743,-0.380563603,0,0,0,,0,175,175,185,1,,
,,,,,,,,,,,,,,,,,,5e870606f9dd66349540b880,2020-11-27_15h10.22.097,lexical_decision_task_MP_exp2,2020.2.5,Win32,60,z,1,0.69166,,,,,,,,0.69166,1,,,,,,254,NW,UN,16,apight,VAROSH,z,,,,,,-0.036129743,-0.380563603,0,0,0,,0,176,176,433,1,,
,,,,,,,,,,,,,,,,,,5e870606f9dd66349540b880,2020-11-27_15h10.22.097,lexical_decision_task_MP_exp2,2020.2.5,Win32,60,m,1,0.647705,,,,,,,,0.647705,1,,,,,,217,WORD,UN,33,shrink,LIQUOR,m,,,,,,-0.036129743,-0.380563603,0,0,0,,0,177,177,156,1,,
,,,,,,,,,,,,,,,,,,5e870606f9dd66349540b880,2020-11-27_15h10.22.097,lexical_decision_task_MP_exp2,2020.2.5,Win32,60,z,1,1.786685,,,,,,,,1.786685,1,,,,,,409,NW,"ID",16,elopia,ELOPIA,z,,,,,,-0.036129743,-0.380563603,0,0,0,,0,178,178,348,1,,
,,,,,,,,,,,,,,,,,,5e870606f9dd66349540b880,2020-11-27_15h10.22.097,lexical_decision_task_MP_exp2,2020.2.5,Win32,60,m,1,0.68661,,,,,,,,0.68661,1,,,,,,69,WORD,"ID",33,plenty,PLENTY,m,,,,,,-0.036129743,-0.380563603,0,0,0,,0,179,179,8,1,,
,,,,,,,,,,,,,,,,,,5e870606f9dd66349540b880,2020-11-27_15h10.22.097,lexical_decision_task_MP_exp2,2020.2.5,Win32,60,m,1,0.747615,,,,,,,,0.747615,1,,,,,,64,WORD,"ID",33,throne,THRONE,m,,,,,,-0.036129743,-0.380563603,0,0,0,,0,180,180,3,1,,
,,,,,,,,,,,,,,,,,,5e870606f9dd66349540b880,2020-11-27_15h10.22.097,lexical_decision_task_MP_exp2,2020.2.5,Win32,60,m,1,1.58292,,,,,,,,1.58292,1,,,,,,188,WORD,UN,33,censor,SOCIAL,m,,,,,,-0.036129743,-0.380563603,0,0,0,,0,181,181,127,1,,
,,,,,,,,,,,,,,,,,,5e870606f9dd66349540b880,2020-11-27_15h10.22.097,lexical_decision_task_MP_exp2,2020.2.5,Win32,60,m,1,1.129585,,,,,,,,1.129585,1,,,,,,162,WORD,"ID",16,candle,CANDLE,m,,,,,,-0.036129743,-0.380563603,0,0,0,,0,182,182,101,1,,
,,,,,,,,,,,,,,,,,,5e870606f9dd66349540b880,2020-11-27_15h10.22.097,lexical_decision_task_MP_exp2,2020.2.5,Win32,60,m,0,0.50254,,,,,,,,0.50254,0,,,,,,402,NW,"ID",16,syntic,SYNTIC,z,,,,,,-0.036129743,-0.380563603,0,0,0,,0,183,183,341,1,,
,,,,,,,,,,,,,,,,,,5e870606f9dd66349540b880,2020-11-27_15h10.22.097,lexical_decision_task_MP_exp2,2020.2.5,Win32,60,m,1,0.59784,,,,,,,,0.59784,1,,,,,,177,WORD,"ID",16,advent,ADVENT,m,,,,,,-0.036129743,-0.380563603,0,0,0,,0,184,184,116,1,,
,,,,,,,,,,,,,,,,,,5e870606f9dd66349540b880,2020-11-27_15h10.22.097,lexical_decision_task_MP_exp2,2020.2.5,Win32,60,m,1,0.62072,,,,,,,,0.62072,1,,,,,,154,WORD,"ID",16,author,AUTHOR,m,,,,,,-0.036129743,-0.380563603,0,0,0,,0,185,185,93,1,,
,,,,,,,,,,,,,,,,,,5e870606f9dd66349540b880,2020-11-27_15h10.22.097,lexical_decision_task_MP_exp2,2020.2.5,Win32,60,z,1,0.84962,,,,,,,,0.84962,1,,,,,,278,NW,UN,16,celond,UNIGHS,z,,,,,,-0.036129743,-0.380563603,0,0,0,,0,186,186,457,1,,
,,,,,,,,,,,,,,,,,,5e870606f9dd66349540b880,2020-11-27_15h10.22.097,lexical_decision_task_MP_exp2,2020.2.5,Win32,60,m,0,1.30919,,,,,,,,1.30919,0,,,,,,476,NW,UN,33,photie,JOSTED,z,,,,,,-0.036129743,-0.380563603,0,0,0,,0,187,187,415,1,,
,,,,,,,,,,,,,,,,,,5e870606f9dd66349540b880,2020-11-27_15h10.22.097,lexical_decision_task_MP_exp2,2020.2.5,Win32,60,z,1,0.72492,,,,,,,,0.72492,1,,,,,,356,NW,"ID",33,othnis,OTHNIS,z,,,,,,-0.036129743,-0.380563603,0,0,0,,0,188,188,295,1,,
,,,,,,,,,,,,,,,,,,5e870606f9dd66349540b880,2020-11-27_15h10.22.097,lexical_decision_task_MP_exp2,2020.2.5,Win32,60,z,1,1.190715,,,,,,,,1.190715,1,,,,,,291,NW,UN,16,ablint,PRETCH,z,,,,,,-0.036129743,-0.380563603,0,0,0,,0,189,189,470,1,,
,,,,,,,,,,,,,,,,,,5e870606f9dd66349540b880,2020-11-27_15h10.22.097,lexical_decision_task_MP_exp2,2020.2.5,Win32,60,z,1,0.739935,,,,,,,,0.739935,1,,,,,,416,NW,"ID",16,pathel,PATHEL,z,,,,,,-0.036129743,-0.380563603,0,0,0,,0,190,190,355,1,,
,,,,,,,,,,,,,,,,,,5e870606f9dd66349540b880,2020-11-27_15h10.22.097,lexical_decision_task_MP_exp2,2020.2.5,Win32,60,z,1,0.958735,,,,,,,,0.958735,1,,,,,,423,NW,UN,33,praile,STRELD,z,,,,,,-0.036129743,-0.380563603,0,0,0,,0,191,191,362,1,,
,,,,,,,,,,,,,,,,,,5e870606f9dd66349540b880,2020-11-27_15h10.22.097,lexical_decision_task_MP_exp2,2020.2.5,Win32,60,z,1,1.153835,,,,,,,,1.153835,1,,,,,,358,NW,"ID",33,fleack,FLEACK,z,,,,,,-0.036129743,-0.380563603,0,0,0,,0,192,192,297,1,,
,,,,,,,,,,,,,,,,,,5e870606f9dd66349540b880,2020-11-27_15h10.22.097,lexical_decision_task_MP_exp2,2020.2.5,Win32,60,m,1,0.75094,,,,,,,,0.75094,1,,,,,,23,WORD,UN,16,praise,WEALTH,m,,,,,,-0.036129743,-0.380563603,0,0,0,,0,193,193,202,1,,
,,,,,,,,,,,,,,,,,,5e870606f9dd66349540b880,2020-11-27_15h10.22.097,lexical_decision_task_MP_exp2,2020.2.5,Win32,60,z,1,0.707165,,,,,,,,0.707165,1,,,,,,439,NW,UN,33,saride,LIMPOR,z,,,,,,-0.036129743,-0.380563603,0,0,0,,0,194,194,378,1,,
,,,,,,,,,,,,,,,,,,5e870606f9dd66349540b880,2020-11-27_15h10.22.097,lexical_decision_task_MP_exp2,2020.2.5,Win32,60,z,1,0.607285,,,,,,,,0.607285,1,,,,,,351,NW,"ID",33,tiesch,TIESCH,z,,,,,,-0.036129743,-0.380563603,0,0,0,,0,195,195,290,1,,
,,,,,,,,,,,,,,,,,,5e870606f9dd66349540b880,2020-11-27_15h10.22.097,lexical_decision_task_MP_exp2,2020.2.5,Win32,60,z,1,0.86613,,,,,,,,0.86613,1,,,,,,268,NW,UN,16,orchet,PACKES,z,,,,,,-0.036129743,-0.380563603,0,0,0,,0,196,196,447,1,,
,,,,,,,,,,,,,,,,,,5e870606f9dd66349540b880,2020-11-27_15h10.22.097,lexical_decision_task_MP_exp2,2020.2.5,Win32,60,m,1,0.703145,,,,,,,,0.703145,1,,,,,,67,WORD,"ID",33,policy,POLICY,m,,,,,,-0.036129743,-0.380563603,0,0,0,,0,197,197,6,1,,
,,,,,,,,,,,,,,,,,,5e870606f9dd66349540b880,2020-11-27_15h10.22.097,lexical_decision_task_MP_exp2,2020.2.5,Win32,60,z,0,1.613115,,,,,,,,1.613115,0,,,,,,183,WORD,UN,33,sleazy,MILDEW,m,,,,,,-0.036129743,-0.380563603,0,0,0,,0,198,198,122,1,,
,,,,,,,,,,,,,,,,,,5e870606f9dd66349540b880,2020-11-27_15h10.22.097,lexical_decision_task_MP_exp2,2020.2.5,Win32,60,m,1,0.65483,,,,,,,,0.65483,1,,,,,,91,WORD,"ID",33,expand,EXPAND,m,,,,,,-0.036129743,-0.380563603,0,0,0,,0,199,199,30,1,,
,,,,,,,,,,,,,,,,,,5e870606f9dd66349540b880,2020-11-27_15h10.22.097,lexical_decision_task_MP_exp2,2020.2.5,Win32,60,m,1,1.043425,,,,,,,,1.043425,1,,,,,,144,WORD,"ID",16,sponge,SPONGE,m,,,,,,-0.036129743,-0.380563603,0,0,0,,0,200,200,83,1,,
,,,,,,,,,,,,,,,,,,5e870606f9dd66349540b880,2020-11-27_15h10.22.097,lexical_decision_task_MP_exp2,2020.2.5,Win32,60,m,1,0.956305,,,,,,,,0.956305,1,,,,,,21,WORD,UN,16,jockey,SIMPLE,m,,,,,,-0.036129743,-0.380563603,0,0,0,,0,201,201,200,1,,
,,,,,,,,,,,,,,,,,,5e870606f9dd66349540b880,2020-11-27_15h10.22.097,lexical_decision_task_MP_exp2,2020.2.5,Win32,60,m,1,1.0489,,,,,,,,1.0489,1,,,,,,116,WORD,"ID",33,tumble,TUMBLE,m,,,,,,-0.036129743,-0.380563603,0,0,0,,0,202,202,55,1,,
,,,,,,,,,,,,,,,,,,5e870606f9dd66349540b880,2020-11-27_15h10.22.097,lexical_decision_task_MP_exp2,2020.2.5,Win32,60,z,1,1.065215,,,,,,,,1.065215,1,,,,,,320,NW,"ID",33,jockal,JOCKAL,z,,,,,,-0.036129743,-0.380563603,0,0,0,,0,203,203,259,1,,
,,,,,,,,,,,,,,,,,,5e870606f9dd66349540b880,2020-11-27_15h10.22.097,lexical_decision_task_MP_exp2,2020.2.5,Win32,60,m,1,0.76085,,,,,,,,0.76085,1,,,,,,185,WORD,UN,33,portal,BOTHER,m,,,,,,-0.036129743,-0.380563603,0,0,0,,0,204,204,124,1,,
,,,,,,,,,,,,,,,,,,5e870606f9dd66349540b880,2020-11-27_15h10.22.097,lexical_decision_task_MP_exp2,2020.2.5,Win32,60,m,1,1.05587,,,,,,,,1.05587,1,,,,,,139,WORD,"ID",16,debris,DEBRIS,m,,,,,,-0.036129743,-0.380563603,0,0,0,,0,205,205,78,1,,
,,,,,,,,,,,,,,,,,,5e870606f9dd66349540b880,2020-11-27_15h10.22.097,lexical_decision_task_MP_exp2,2020.2.5,Win32,60,m,1,0.69555,,,,,,,,0.69555,1,,,,,,225,WORD,UN,33,casino,VULGAR,m,,,,,,-0.036129743,-0.380563603,0,0,0,,0,206,206,164,1,,
,,,,,,,,,,,,,,,,,,5e870606f9dd66349540b880,2020-11-27_15h10.22.097,lexical_decision_task_MP_exp2,2020.2.5,Win32,60,z,1,0.888425,,,,,,,,0.888425,1,,,,,,369,NW,"ID",16,wronch,WRONCH,z,,,,,,-0.036129743,-0.380563603,0,0,0,,0,207,207,308,1,,
,,,,,,,,,,,,,,,,,,5e870606f9dd66349540b880,2020-11-27_15h10.22.097,lexical_decision_task_MP_exp2,2020.2.5,Win32,60,m,1,0.702405,,,,,,,,0.702405,1,,,,,,96,WORD,"ID",33,ignore,IGNORE,m,,,,,,-0.036129743,-0.380563603,0,0,0,,0,208,208,35,1,,
,,,,,,,,,,,,,,,,,,5e870606f9dd66349540b880,2020-11-27_15h10.22.097,lexical_decision_task_MP_exp2,2020.2.5,Win32,60,z,0,0.627485,,,,,,,,0.627485,0,,,,,,227,WORD,UN,33,master,SELDOM,m,,,,,,-0.036129743,-0.380563603,0,0,0,,0,209,209,166,1,,
,,,,,,,,,,,,,,,,,,5e870606f9dd66349540b880,2020-11-27_15h10.22.097,lexical_decision_task_MP_exp2,2020.2.5,Win32,60,m,1,0.77256,,,,,,,,0.77256,1,,,,,,24,WORD,UN,16,domain,PRAISE,m,,,,,,-0.036129743,-0.380563603,0,0,0,,0,210,210,203,1,,
,,,,,,,,,,,,,,,,,,5e870606f9dd66349540b880,2020-11-27_15h10.22.097,lexical_decision_task_MP_exp2,2020.2.5,Win32,60,z,1,0.6793,,,,,,,,0.6793,1,,,,,,319,NW,"ID",33,zomber,ZOMBER,z,,,,,,-0.036129743,-0.380563603,0,0,0,,0,211,211,258,1,,
,,,,,,,,,,,,,,,,,,5e870606f9dd66349540b880,2020-11-27_15h10.22.097,lexical_decision_task_MP_exp2,2020.2.5,Win32,60,m,1,0.789905,,,,,,,,0.789905,1,,,,,,112,WORD,"ID",33,breath,BREATH,m,,,,,,-0.036129743,-0.380563603,0,0,0,,0,212,212,51,1,,
,,,,,,,,,,,,,,,,,,5e870606f9dd66349540b880,2020-11-27_15h10.22.097,lexical_decision_task_MP_exp2,2020.2.5,Win32,60,m,1,0.71704,,,,,,,,0.71704,1,,,,,,133,WORD,"ID",16,chrome,CHROME,m,,,,,,-0.036129743,-0.380563603,0,0,0,,0,213,213,72,1,,
,,,,,,,,,,,,,,,,,,5e870606f9dd66349540b880,2020-11-27_15h10.22.097,lexical_decision_task_MP_exp2,2020.2.5,Win32,60,z,1,0.62171,,,,,,,,0.62171,1,,,,,,459,NW,UN,33,mingar,BAFENT,z,,,,,,-0.036129743,-0.380563603,0,0,0,,0,214,214,398,1,,
,,,,,,,,,,,,,,,,,,5e870606f9dd66349540b880,2020-11-27_15h10.22.097,lexical_decision_task_MP_exp2,2020.2.5,Win32,60,m,1,0.94967,,,,,,,,0.94967,1,,,,,,115,WORD,"ID",33,guitar,GUITAR,m,,,,,,-0.036129743,-0.380563603,0,0,0,,0,215,215,54,1,,
,,,,,,,,,,,,,,,,,,5e870606f9dd66349540b880,2020-11-27_15h10.22.097,lexical_decision_task_MP_exp2,2020.2.5,Win32,60,m,1,1.61825,,,,,,,,1.61825,1,,,,,,123,WORD,"ID",16,strike,STRIKE,m,,,,,,-0.036129743,-0.380563603,0,0,0,,0,216,216,62,1,,
,,,,,,,,,,,,,,,,,,5e870606f9dd66349540b880,2020-11-27_15h10.22.097,lexical_decision_task_MP_exp2,2020.2.5,Win32,60,m,1,0.92826,,,,,,,,0.92826,1,,,,,,75,WORD,"ID",33,trophy,TROPHY,m,,,,,,-0.036129743,-0.380563603,0,0,0,,0,217,217,14,1,,
,,,,,,,,,,,,,,,,,,5e870606f9dd66349540b880,2020-11-27_15h10.22.097,lexical_decision_task_MP_exp2,2020.2.5,Win32,60,z,1,1.86289,,,,,,,,1.86289,1,,,,,,433,NW,UN,33,pitrom,DRANCE,z,,,,,,-0.036129743,-0.380563603,0,0,0,,0,218,218,372,1,,
,,,,,,,,,,,,,,,,,,5e870606f9dd66349540b880,2020-11-27_15h10.22.097,lexical_decision_task_MP_exp2,2020.2.5,Win32,60,m,1,0.80581,,,,,,,,0.80581,1,,,,,,158,WORD,"ID",16,island,ISLAND,m,,,,,,-0.036129743,-0.380563603,0,0,0,,0,219,219,97,1,,
,,,,,,,,,,,,,,,,,,5e870606f9dd66349540b880,2020-11-27_15h10.22.097,lexical_decision_task_MP_exp2,2020.2.5,Win32,60,m,1,1.78464,,,,,,,,1.78464,1,,,,,,174,WORD,"ID",16,turkey,TURKEY,m,,,,,,-0.036129743,-0.380563603,0,0,0,,0,220,220,113,1,,
,,,,,,,,,,,,,,,,,,5e870606f9dd66349540b880,2020-11-27_15h10.22.097,lexical_decision_task_MP_exp2,2020.2.5,Win32,60,m,1,0.874545,,,,,,,,0.874545,1,,,,,,178,WORD,"ID",16,inform,INFORM,m,,,,,,-0.036129743,-0.380563603,0,0,0,,0,221,221,117,1,,
,,,,,,,,,,,,,,,,,,5e870606f9dd66349540b880,2020-11-27_15h10.22.097,lexical_decision_task_MP_exp2,2020.2.5,Win32,60,m,1,0.609325,,,,,,,,0.609325,1,,,,,,30,WORD,UN,16,weapon,ORIENT,m,,,,,,-0.036129743,-0.380563603,0,0,0,,0,222,222,209,1,,
,,,,,,,,,,,,,,,,,,5e870606f9dd66349540b880,2020-11-27_15h10.22.097,lexical_decision_task_MP_exp2,2020.2.5,Win32,60,z,1,0.57237,,,,,,,,0.57237,1,,,,,,415,NW,"ID",16,higsta,HIGSTA,z,,,,,,-0.036129743,-0.380563603,0,0,0,,0,223,223,354,1,,
,,,,,,,,,,,,,,,,,,5e870606f9dd66349540b880,2020-11-27_15h10.22.097,lexical_decision_task_MP_exp2,2020.2.5,Win32,60,z,1,0.63775,,,,,,,,0.63775,1,,,,,,334,NW,"ID",33,watmeg,WATMEG,z,,,,,,-0.036129743,-0.380563603,0,0,0,,0,224,224,273,1,,
,,,,,,,,,,,,,,,,,,5e870606f9dd66349540b880,2020-11-27_15h10.22.097,lexical_decision_task_MP_exp2,2020.2.5,Win32,60,m,1,0.661015,,,,,,,,0.661015,1,,,,,,13,WORD,UN,16,almost,STRIVE,m,,,,,,-0.036129743,-0.380563603,0,0,0,,0,225,225,192,1,,
,,,,,,,,,,,,,,,,,,5e870606f9dd66349540b880,2020-11-27_15h10.22.097,lexical_decision_task_MP_exp2,2020.2.5,Win32,60,m,1,0.47025,,,,,,,,0.47025,1,,,,,,41,WORD,UN,16,chapel,SPRING,m,,,,,,-0.036129743,-0.380563603,0,0,0,,0,226,226,220,1,,
,,,,,,,,,,,,,,,,,,5e870606f9dd66349540b880,2020-11-27_15h10.22.097,lexical_decision_task_MP_exp2,2020.2.5,Win32,60,z,1,0.541985,,,,,,,,0.541985,1,,,,,,258,NW,UN,16,soudal,POLUTH,z,,,,,,-0.036129743,-0.380563603,0,0,0,,0,227,227,437,1,,
,,,,,,,,,,,,,,,,,,5e870606f9dd66349540b880,2020-11-27_15h10.22.097,lexical_decision_task_MP_exp2,2020.2.5,Win32,60,z,1,0.606665,,,,,,,,0.606665,1,,,,,,261,NW,UN,16,quilew,STUNCH,z,,,,,,-0.036129743,-0.380563603,0,0,0,,0,228,228,440,1,,
,,,,,,,,,,,,,,,,,,5e870606f9dd66349540b880,2020-11-27_15h10.22.097,lexical_decision_task_MP_exp2,2020.2.5,Win32,60,m,1,0.575805,,,,,,,,0.575805,1,,,,,,85,WORD,"ID",33,sprawl,SPRAWL,m,,,,,,-0.036129743,-0.380563603,0,0,0,,0,229,229,24,1,,
,,,,,,,,,,,,,,,,,,5e870606f9dd66349540b880,2020-11-27_15h10.22.097,lexical_decision_task_MP_exp2,2020.2.5,Win32,60,z,1,0.55527,,,,,,,,0.55527,1,,,,,,399,NW,"ID",16,fouret,FOURET,z,,,,,,-0.036129743,-0.380563603,0,0,0,,0,230,230,338,1,,
,,,,,,,,,,,,,,,,,,5e870606f9dd66349540b880,2020-11-27_15h10.22.097,lexical_decision_task_MP_exp2,2020.2.5,Win32,60,z,1,0.56027,,,,,,,,0.56027,1,,,,,,445,NW,UN,33,runamo,MINKEL,z,,,,,,-0.036129743,-0.380563603,0,0,0,,0,231,231,384,1,,
,,,,,,,,,,,,,,,,,,5e870606f9dd66349540b880,2020-11-27_15h10.22.097,lexical_decision_task_MP_exp2,2020.2.5,Win32,60,m,1,0.547575,,,,,,,,0.547575,1,,,,,,222,WORD,UN,33,export,HINDER,m,,,,,,-0.036129743,-0.380563603,0,0,0,,0,232,232,161,1,,
,,,,,,,,,,,,,,,,,,5e870606f9dd66349540b880,2020-11-27_15h10.22.097,lexical_decision_task_MP_exp2,2020.2.5,Win32,60,z,1,0.783205,,,,,,,,0.783205,1,,,,,,322,NW,"ID",33,slanch,SLANCH,z,,,,,,-0.036129743,-0.380563603,0,0,0,,0,233,233,261,1,,
,,,,,,,,,,,,,,,,,,5e870606f9dd66349540b880,2020-11-27_15h10.22.097,lexical_decision_task_MP_exp2,2020.2.5,Win32,60,z,1,0.67161,,,,,,,,0.67161,1,,,,,,395,NW,"ID",16,colury,COLURY,z,,,,,,-0.036129743,-0.380563603,0,0,0,,0,234,234,334,1,,
,,,,,,,,,,,,,,,,,,5e870606f9dd66349540b880,2020-11-27_15h10.22.097,lexical_decision_task_MP_exp2,2020.2.5,Win32,60,m,1,0.60057,,,,,,,,0.60057,1,,,,,,165,WORD,"ID",16,invest,INVEST,m,,,,,,-0.036129743,-0.380563603,0,0,0,,0,235,235,104,1,,
,,,,,,,,,,,,,,,,,,5e870606f9dd66349540b880,2020-11-27_15h10.22.097,lexical_decision_task_MP_exp2,2020.2.5,Win32,60,m,1,0.553815,,,,,,,,0.553815,1,,,,,,198,WORD,UN,33,invoke,WICKED,m,,,,,,-0.036129743,-0.380563603,0,0,0,,0,236,236,137,1,,
,,,,,,,,,,,,,,,,,,5e870606f9dd66349540b880,2020-11-27_15h10.22.097,lexical_decision_task_MP_exp2,2020.2.5,Win32,60,z,1,0.506105,,,,,,,,0.506105,1,,,,,,456,NW,UN,33,wanigh,BROGET,z,,,,,,-0.036129743,-0.380563603,0,0,0,,0,237,237,395,1,,
,,,,,,,,,,,,,,,,,,5e870606f9dd66349540b880,2020-11-27_15h10.22.097,lexical_decision_task_MP_exp2,2020.2.5,Win32,60,z,1,0.55333,,,,,,,,0.55333,1,,,,,,474,NW,UN,33,acrise,HABLIN,z,,,,,,-0.036129743,-0.380563603,0,0,0,,0,238,238,413,1,,
,,,,,,,,,,,,,,,,,,5e870606f9dd66349540b880,2020-11-27_15h10.22.097,lexical_decision_task_MP_exp2,2020.2.5,Win32,60,z,1,0.57791,,,,,,,,0.57791,1,,,,,,265,NW,UN,16,varmit,DISTAR,z,,,,,,-0.036129743,-0.380563603,0,0,0,,0,239,239,444,1,,
,,,,,,,,,,,,,,,,,,5e870606f9dd66349540b880,2020-11-27_15h10.22.097,lexical_decision_task_MP_exp2,2020.2.5,Win32,60,z,1,0.56631,,,,,,,,0.56631,1,,,,,,277,NW,UN,16,unighs,PETAIN,z,,,,,,-0.036129743,-0.380563603,0,0,0,,0,240,240,456,1,,
,,,,,,,,,,,,,,,,,,5e870606f9dd66349540b880,2020-11-27_15h10.22.097,lexical_decision_task_MP_exp2,2020.2.5,Win32,60,z,1,0.528045,,,,,,,,0.528045,1,,,,,,420,NW,"ID",16,gushop,GUSHOP,z,,,,,,0.117568632,-0.393371866,1,0,0,,0,241,241,359,1,break_done_button,
,,,,,,,,,,,,,,,,,,5e870606f9dd66349540b880,2020-11-27_15h10.22.097,lexical_decision_task_MP_exp2,2020.2.5,Win32,60,z,1,0.636525,0.179474921,-0.128669045,1,0,0,0.28293,,0.636525,1,,,,,,321,NW,"ID",33,miator,MIATOR,z,,,,,,0.179474921,-0.128669045,0,0,0,,0,242,242,260,1,,
,,,,,,,,,,,,,,,,,,5e870606f9dd66349540b880,2020-11-27_15h10.22.097,lexical_decision_task_MP_exp2,2020.2.5,Win32,60,z,1,0.621445,,,,,,,,0.621445,1,,,,,,310,NW,"ID",33,daniet,DANIET,z,,,,,,0.179474921,-0.128669045,0,0,0,,0,243,243,249,1,,
,,,,,,,,,,,,,,,,,,5e870606f9dd66349540b880,2020-11-27_15h10.22.097,lexical_decision_task_MP_exp2,2020.2.5,Win32,60,z,1,0.48486,,,,,,,,0.48486,1,,,,,,392,NW,"ID",16,rouncy,ROUNCY,z,,,,,,0.179474921,-0.128669045,0,0,0,,0,244,244,331,1,,
,,,,,,,,,,,,,,,,,,5e870606f9dd66349540b880,2020-11-27_15h10.22.097,lexical_decision_task_MP_exp2,2020.2.5,Win32,60,z,1,0.50496,,,,,,,,0.50496,1,,,,,,412,NW,"ID",16,jiluer,JILUER,z,,,,,,0.179474921,-0.128669045,0,0,0,,0,245,245,351,1,,
,,,,,,,,,,,,,,,,,,5e870606f9dd66349540b880,2020-11-27_15h10.22.097,lexical_decision_task_MP_exp2,2020.2.5,Win32,60,z,1,0.449115,,,,,,,,0.449115,1,,,,,,246,NW,UN,16,blarge,PIATON,z,,,,,,0.179474921,-0.128669045,0,0,0,,0,246,246,425,1,,
,,,,,,,,,,,,,,,,,,5e870606f9dd66349540b880,2020-11-27_15h10.22.097,lexical_decision_task_MP_exp2,2020.2.5,Win32,60,m,1,0.61667,,,,,,,,0.61667,1,,,,,,84,WORD,"ID",33,mortal,MORTAL,m,,,,,,0.179474921,-0.128669045,0,0,0,,0,247,247,23,1,,
,,,,,,,,,,,,,,,,,,5e870606f9dd66349540b880,2020-11-27_15h10.22.097,lexical_decision_task_MP_exp2,2020.2.5,Win32,60,m,1,0.59298,,,,,,,,0.59298,1,,,,,,240,WORD,UN,33,seldom,FOREST,m,,,,,,0.179474921,-0.128669045,0,0,0,,0,248,248,179,1,,
,,,,,,,,,,,,,,,,,,5e870606f9dd66349540b880,2020-11-27_15h10.22.097,lexical_decision_task_MP_exp2,2020.2.5,Win32,60,m,1,0.57168,,,,,,,,0.57168,1,,,,,,74,WORD,"ID",33,plaque,PLAQUE,m,,,,,,0.179474921,-0.128669045,0,0,0,,0,249,249,13,1,,
,,,,,,,,,,,,,,,,,,5e870606f9dd66349540b880,2020-11-27_15h10.22.097,lexical_decision_task_MP_exp2,2020.2.5,Win32,60,z,1,0.502315,,,,,,,,0.502315,1,,,,,,339,NW,"ID",33,fachow,FACHOW,z,,,,,,0.179474921,-0.128669045,0,0,0,,0,250,250,278,1,,
,,,,,,,,,,,,,,,,,,5e870606f9dd66349540b880,2020-11-27_15h10.22.097,lexical_decision_task_MP_exp2,2020.2.5,Win32,60,z,1,0.547425,,,,,,,,0.547425,1,,,,,,302,NW,"ID",33,miluer,MILUER,z,,,,,,0.179474921,-0.128669045,0,0,0,,0,251,251,241,1,,
,,,,,,,,,,,,,,,,,,5e870606f9dd66349540b880,2020-11-27_15h10.22.097,lexical_decision_task_MP_exp2,2020.2.5,Win32,60,m,1,0.467615,,,,,,,,0.467615,1,,,,,,73,WORD,"ID",33,source,SOURCE,m,,,,,,0.179474921,-0.128669045,0,0,0,,0,252,252,12,1,,
,,,,,,,,,,,,,,,,,,5e870606f9dd66349540b880,2020-11-27_15h10.22.097,lexical_decision_task_MP_exp2,2020.2.5,Win32,60,z,1,0.491175,,,,,,,,0.491175,1,,,,,,297,NW,UN,16,piergy,FERTIC,z,,,,,,0.179474921,-0.128669045,0,0,0,,0,253,253,476,1,,
,,,,,,,,,,,,,,,,,,5e870606f9dd66349540b880,2020-11-27_15h10.22.097,lexical_decision_task_MP_exp2,2020.2.5,Win32,60,z,1,0.540325,,,,,,,,0.540325,1,,,,,,371,NW,"ID",16,geiloy,GEILOY,z,,,,,,0.179474921,-0.128669045,0,0,0,,0,254,254,310,1,,
,,,,,,,,,,,,,,,,,,5e870606f9dd66349540b880,2020-11-27_15h10.22.097,lexical_decision_task_MP_exp2,2020.2.5,Win32,60,z,1,0.48969,,,,,,,,0.48969,1,,,,,,252,NW,UN,16,resait,STAPOD,z,,,,,,0.179474921,-0.128669045,0,0,0,,0,255,255,431,1,,
,,,,,,,,,,,,,,,,,,5e870606f9dd66349540b880,2020-11-27_15h10.22.097,lexical_decision_task_MP_exp2,2020.2.5,Win32,60,z,1,0.50384,,,,,,,,0.50384,1,,,,,,480,NW,UN,33,knisma,ROBULY,z,,,,,,0.179474921,-0.128669045,0,0,0,,0,256,256,419,1,,
,,,,,,,,,,,,,,,,,,5e870606f9dd66349540b880,2020-11-27_15h10.22.097,lexical_decision_task_MP_exp2,2020.2.5,Win32,60,z,1,0.49859,,,,,,,,0.49859,1,,,,,,361,NW,"ID",16,pauche,PAUCHE,z,,,,,,0.179474921,-0.128669045,0,0,0,,0,257,257,300,1,,
,,,,,,,,,,,,,,,,,,5e870606f9dd66349540b880,2020-11-27_15h10.22.097,lexical_decision_task_MP_exp2,2020.2.5,Win32,60,m,1,0.57097,,,,,,,,0.57097,1,,,,,,93,WORD,"ID",33,public,PUBLIC,m,,,,,,0.179474921,-0.128669045,0,0,0,,0,258,258,32,1,,
,,,,,,,,,,,,,,,,,,5e870606f9dd66349540b880,2020-11-27_15h10.22.097,lexical_decision_task_MP_exp2,2020.2.5,Win32,60,z,1,0.59485,,,,,,,,0.59485,1,,,,,,257,NW,UN,16,poluth,VENIOD,z,,,,,,0.179474921,-0.128669045,0,0,0,,0,259,259,436,1,,
,,,,,,,,,,,,,,,,,,5e870606f9dd66349540b880,2020-11-27_15h10.22.097,lexical_decision_task_MP_exp2,2020.2.5,Win32,60,z,1,0.511245,,,,,,,,0.511245,1,,,,,,330,NW,"ID",33,kensom,KENSOM,z,,,,,,0.179474921,-0.128669045,0,0,0,,0,260,260,269,1,,
,,,,,,,,,,,,,,,,,,5e870606f9dd66349540b880,2020-11-27_15h10.22.097,lexical_decision_task_MP_exp2,2020.2.5,Win32,60,z,1,0.4768,,,,,,,,0.4768,1,,,,,,308,NW,"ID",33,psetch,PSETCH,z,,,,,,0.179474921,-0.128669045,0,0,0,,0,261,261,247,1,,
,,,,,,,,,,,,,,,,,,5e870606f9dd66349540b880,2020-11-27_15h10.22.097,lexical_decision_task_MP_exp2,2020.2.5,Win32,60,z,0,0.440545,,,,,,,,0.440545,0,,,,,,146,WORD,"ID",16,couple,COUPLE,m,,,,,,0.179474921,-0.128669045,0,0,0,,0,262,262,85,1,,
,,,,,,,,,,,,,,,,,,5e870606f9dd66349540b880,2020-11-27_15h10.22.097,lexical_decision_task_MP_exp2,2020.2.5,Win32,60,z,1,0.49944,,,,,,,,0.49944,1,,,,,,299,NW,UN,16,yarion,STURCH,z,,,,,,0.179474921,-0.128669045,0,0,0,,0,263,263,478,1,,
,,,,,,,,,,,,,,,,,,5e870606f9dd66349540b880,2020-11-27_15h10.22.097,lexical_decision_task_MP_exp2,2020.2.5,Win32,60,m,1,0.456805,,,,,,,,0.456805,1,,,,,,220,WORD,UN,33,mascot,VOYAGE,m,,,,,,0.179474921,-0.128669045,0,0,0,,0,264,264,159,1,,
,,,,,,,,,,,,,,,,,,5e870606f9dd66349540b880,2020-11-27_15h10.22.097,lexical_decision_task_MP_exp2,2020.2.5,Win32,60,m,1,0.76857,,,,,,,,0.76857,1,,,,,,122,WORD,"ID",16,linger,LINGER,m,,,,,,0.179474921,-0.128669045,0,0,0,,0,265,265,61,1,,
,,,,,,,,,,,,,,,,,,5e870606f9dd66349540b880,2020-11-27_15h10.22.097,lexical_decision_task_MP_exp2,2020.2.5,Win32,60,z,1,0.604515,,,,,,,,0.604515,1,,,,,,370,NW,"ID",16,sleact,SLEACT,z,,,,,,0.179474921,-0.128669045,0,0,0,,0,266,266,309,1,,
,,,,,,,,,,,,,,,,,,5e870606f9dd66349540b880,2020-11-27_15h10.22.097,lexical_decision_task_MP_exp2,2020.2.5,Win32,60,m,1,0.523265,,,,,,,,0.523265,1,,,,,,4,WORD,UN,16,plunge,TRENCH,m,,,,,,0.179474921,-0.128669045,0,0,0,,0,267,267,183,1,,
,,,,,,,,,,,,,,,,,,5e870606f9dd66349540b880,2020-11-27_15h10.22.097,lexical_decision_task_MP_exp2,2020.2.5,Win32,60,z,0,0.52326,,,,,,,,0.52326,0,,,,,,17,WORD,UN,16,humble,CHARGE,m,,,,,,0.179474921,-0.128669045,0,0,0,,0,268,268,196,1,,
,,,,,,,,,,,,,,,,,,5e870606f9dd66349540b880,2020-11-27_15h10.22.097,lexical_decision_task_MP_exp2,2020.2.5,Win32,60,z,0,0.463855,,,,,,,,0.463855,0,,,,,,29,WORD,UN,16,orient,SKETCH,m,,,,,,0.179474921,-0.128669045,0,0,0,,0,269,269,208,1,,
,,,,,,,,,,,,,,,,,,5e870606f9dd66349540b880,2020-11-27_15h10.22.097,lexical_decision_task_MP_exp2,2020.2.5,Win32,60,m,1,0.55876,,,,,,,,0.55876,1,,,,,,236,WORD,UN,33,grumpy,PIRATE,m,,,,,,0.179474921,-0.128669045,0,0,0,,0,270,270,175,1,,
,,,,,,,,,,,,,,,,,,5e870606f9dd66349540b880,2020-11-27_15h10.22.097,lexical_decision_task_MP_exp2,2020.2.5,Win32,60,z,1,0.52984,,,,,,,,0.52984,1,,,,,,256,NW,UN,16,veniod,INLORS,z,,,,,,0.179474921,-0.128669045,0,0,0,,0,271,271,435,1,,
,,,,,,,,,,,,,,,,,,5e870606f9dd66349540b880,2020-11-27_15h10.22.097,lexical_decision_task_MP_exp2,2020.2.5,Win32,60,m,1,0.62981,,,,,,,,0.62981,1,,,,,,169,WORD,"ID",16,genius,GENIUS,m,,,,,,0.179474921,-0.128669045,0,0,0,,0,272,272,108,1,,
,,,,,,,,,,,,,,,,,,5e870606f9dd66349540b880,2020-11-27_15h10.22.097,lexical_decision_task_MP_exp2,2020.2.5,Win32,60,m,1,0.511765,,,,,,,,0.511765,1,,,,,,12,WORD,UN,16,strive,ORANGE,m,,,,,,0.179474921,-0.128669045,0,0,0,,0,273,273,191,1,,
,,,,,,,,,,,,,,,,,,5e870606f9dd66349540b880,2020-11-27_15h10.22.097,lexical_decision_task_MP_exp2,2020.2.5,Win32,60,z,1,0.796835,,,,,,,,0.796835,1,,,,,,335,NW,"ID",33,desion,DESION,z,,,,,,0.179474921,-0.128669045,0,0,0,,0,274,274,274,1,,
,,,,,,,,,,,,,,,,,,5e870606f9dd66349540b880,2020-11-27_15h10.22.097,lexical_decision_task_MP_exp2,2020.2.5,Win32,60,z,0,0.51889,,,,,,,,0.51889,0,,,,,,92,WORD,"ID",33,strand,STRAND,m,,,,,,0.179474921,-0.128669045,0,0,0,,0,275,275,31,1,,
,,,,,,,,,,,,,,,,,,5e870606f9dd66349540b880,2020-11-27_15h10.22.097,lexical_decision_task_MP_exp2,2020.2.5,Win32,60,z,1,0.65326,,,,,,,,0.65326,1,,,,,,262,NW,UN,16,dolica,QUILEW,z,,,,,,0.179474921,-0.128669045,0,0,0,,0,276,276,441,1,,
,,,,,,,,,,,,,,,,,,5e870606f9dd66349540b880,2020-11-27_15h10.22.097,lexical_decision_task_MP_exp2,2020.2.5,Win32,60,z,1,0.4762,,,,,,,,0.4762,1,,,,,,280,NW,UN,16,melaty,CURBOL,z,,,,,,0.179474921,-0.128669045,0,0,0,,0,277,277,459,1,,
,,,,,,,,,,,,,,,,,,5e870606f9dd66349540b880,2020-11-27_15h10.22.097,lexical_decision_task_MP_exp2,2020.2.5,Win32,60,m,1,0.505275,,,,,,,,0.505275,1,,,,,,224,WORD,UN,33,vulgar,PERIOD,m,,,,,,0.179474921,-0.128669045,0,0,0,,0,278,278,163,1,,
,,,,,,,,,,,,,,,,,,5e870606f9dd66349540b880,2020-11-27_15h10.22.097,lexical_decision_task_MP_exp2,2020.2.5,Win32,60,m,1,0.60809,,,,,,,,0.60809,1,,,,,,211,WORD,UN,33,verify,INFECT,m,,,,,,0.179474921,-0.128669045,0,0,0,,0,279,279,150,1,,
,,,,,,,,,,,,,,,,,,5e870606f9dd66349540b880,2020-11-27_15h10.22.097,lexical_decision_task_MP_exp2,2020.2.5,Win32,60,z,1,0.662545,,,,,,,,0.662545,1,,,,,,352,NW,"ID",33,tringe,TRINGE,z,,,,,,0.179474921,-0.128669045,0,0,0,,0,280,280,291,1,,
,,,,,,,,,,,,,,,,,,5e870606f9dd66349540b880,2020-11-27_15h10.22.097,lexical_decision_task_MP_exp2,2020.2.5,Win32,60,m,1,0.53599,,,,,,,,0.53599,1,,,,,,43,WORD,UN,16,foster,TONGUE,m,,,,,,0.179474921,-0.128669045,0,0,0,,0,281,281,222,1,,
,,,,,,,,,,,,,,,,,,5e870606f9dd66349540b880,2020-11-27_15h10.22.097,lexical_decision_task_MP_exp2,2020.2.5,Win32,60,m,1,0.534775,,,,,,,,0.534775,1,,,,,,98,WORD,"ID",33,belong,BELONG,m,,,,,,0.179474921,-0.128669045,0,0,0,,0,282,282,37,1,,
,,,,,,,,,,,,,,,,,,5e870606f9dd66349540b880,2020-11-27_15h10.22.097,lexical_decision_task_MP_exp2,2020.2.5,Win32,60,z,1,0.832455,,,,,,,,0.832455,1,,,,,,283,NW,UN,16,shaple,VERALF,z,,,,,,0.179474921,-0.128669045,0,0,0,,0,283,283,462,1,,
,,,,,,,,,,,,,,,,,,5e870606f9dd66349540b880,2020-11-27_15h10.22.097,lexical_decision_task_MP_exp2,2020.2.5,Win32,60,m,0,0.617485,,,,,,,,0.617485,0,,,,,,250,NW,UN,16,lupict,MILTED,z,,,,,,0.179474921,-0.128669045,0,0,0,,0,284,284,429,1,,
,,,,,,,,,,,,,,,,,,5e870606f9dd66349540b880,2020-11-27_15h10.22.097,lexical_decision_task_MP_exp2,2020.2.5,Win32,60,m,1,0.5062,,,,,,,,0.5062,1,,,,,,195,WORD,UN,33,credit,RESIGN,m,,,,,,0.179474921,-0.128669045,0,0,0,,0,285,285,134,1,,
,,,,,,,,,,,,,,,,,,5e870606f9dd66349540b880,2020-11-27_15h10.22.097,lexical_decision_task_MP_exp2,2020.2.5,Win32,60,z,1,0.579405,,,,,,,,0.579405,1,,,,,,429,NW,UN,33,caroey,FUNTLE,z,,,,,,0.179474921,-0.128669045,0,0,0,,0,286,286,368,1,,
,,,,,,,,,,,,,,,,,,5e870606f9dd66349540b880,2020-11-27_15h10.22.097,lexical_decision_task_MP_exp2,2020.2.5,Win32,60,m,1,0.589855,,,,,,,,0.589855,1,,,,,,171,WORD,"ID",16,depart,DEPART,m,,,,,,0.179474921,-0.128669045,0,0,0,,0,287,287,110,1,,
,,,,,,,,,,,,,,,,,,5e870606f9dd66349540b880,2020-11-27_15h10.22.097,lexical_decision_task_MP_exp2,2020.2.5,Win32,60,z,1,0.583125,,,,,,,,0.583125,1,,,,,,292,NW,UN,16,swance,ABLINT,z,,,,,,0.179474921,-0.128669045,0,0,0,,0,288,288,471,1,,
,,,,,,,,,,,,,,,,,,5e870606f9dd66349540b880,2020-11-27_15h10.22.097,lexical_decision_task_MP_exp2,2020.2.5,Win32,60,z,1,0.73973,,,,,,,,0.73973,1,,,,,,380,NW,"ID",16,cavory,CAVORY,z,,,,,,0.179474921,-0.128669045,0,0,0,,0,289,289,319,1,,
,,,,,,,,,,,,,,,,,,5e870606f9dd66349540b880,2020-11-27_15h10.22.097,lexical_decision_task_MP_exp2,2020.2.5,Win32,60,z,1,0.690405,,,,,,,,0.690405,1,,,,,,430,NW,UN,33,chrums,CAROEY,z,,,,,,0.179474921,-0.128669045,0,0,0,,0,290,290,369,1,,
,,,,,,,,,,,,,,,,,,5e870606f9dd66349540b880,2020-11-27_15h10.22.097,lexical_decision_task_MP_exp2,2020.2.5,Win32,60,m,1,0.576265,,,,,,,,0.576265,1,,,,,,45,WORD,UN,16,single,CLERGY,m,,,,,,0.179474921,-0.128669045,0,0,0,,0,291,291,224,1,,
,,,,,,,,,,,,,,,,,,5e870606f9dd66349540b880,2020-11-27_15h10.22.097,lexical_decision_task_MP_exp2,2020.2.5,Win32,60,z,1,0.6121,,,,,,,,0.6121,1,,,,,,391,NW,"ID",16,theldy,THELDY,z,,,,,,0.179474921,-0.128669045,0,0,0,,0,292,292,330,1,,
,,,,,,,,,,,,,,,,,,5e870606f9dd66349540b880,2020-11-27_15h10.22.097,lexical_decision_task_MP_exp2,2020.2.5,Win32,60,m,1,0.630605,,,,,,,,0.630605,1,,,,,,49,WORD,UN,16,snatch,SURVEY,m,,,,,,0.179474921,-0.128669045,0,0,0,,0,293,293,228,1,,
,,,,,,,,,,,,,,,,,,5e870606f9dd66349540b880,2020-11-27_15h10.22.097,lexical_decision_task_MP_exp2,2020.2.5,Win32,60,z,1,0.612335,,,,,,,,0.612335,1,,,,,,460,NW,UN,33,justre,MINGAR,z,,,,,,0.179474921,-0.128669045,0,0,0,,0,294,294,399,1,,
,,,,,,,,,,,,,,,,,,5e870606f9dd66349540b880,2020-11-27_15h10.22.097,lexical_decision_task_MP_exp2,2020.2.5,Win32,60,m,1,0.616245,,,,,,,,0.616245,1,,,,,,31,WORD,UN,16,buckle,WEAPON,m,,,,,,0.179474921,-0.128669045,0,0,0,,0,295,295,210,1,,
,,,,,,,,,,,,,,,,,,5e870606f9dd66349540b880,2020-11-27_15h10.22.097,lexical_decision_task_MP_exp2,2020.2.5,Win32,60,m,1,0.64677,,,,,,,,0.64677,1,,,,,,58,WORD,UN,16,splint,FOSTER,m,,,,,,0.179474921,-0.128669045,0,0,0,,0,296,296,237,1,,
,,,,,,,,,,,,,,,,,,5e870606f9dd66349540b880,2020-11-27_15h10.22.097,lexical_decision_task_MP_exp2,2020.2.5,Win32,60,m,1,0.61514,,,,,,,,0.61514,1,,,,,,184,WORD,UN,33,bother,SLEAZY,m,,,,,,0.179474921,-0.128669045,0,0,0,,0,297,297,123,1,,
,,,,,,,,,,,,,,,,,,5e870606f9dd66349540b880,2020-11-27_15h10.22.097,lexical_decision_task_MP_exp2,2020.2.5,Win32,60,z,1,0.568175,,,,,,,,0.568175,1,,,,,,276,NW,UN,16,petain,YARMON,z,,,,,,0.179474921,-0.128669045,0,0,0,,0,298,298,455,1,,
,,,,,,,,,,,,,,,,,,5e870606f9dd66349540b880,2020-11-27_15h10.22.097,lexical_decision_task_MP_exp2,2020.2.5,Win32,60,m,1,0.56219,,,,,,,,0.56219,1,,,,,,104,WORD,"ID",33,studio,STUDIO,m,,,,,,0.179474921,-0.128669045,0,0,0,,0,299,299,43,1,,
,,,,,,,,,,,,,,,,,,5e870606f9dd66349540b880,2020-11-27_15h10.22.097,lexical_decision_task_MP_exp2,2020.2.5,Win32,60,z,1,0.5675,,,,,,,,0.5675,1,,,,,,340,NW,"ID",33,fiatch,FIATCH,z,,,,,,0.179474921,-0.128669045,0,0,0,,0,300,300,279,1,,
,,,,,,,,,,,,,,,,,,5e870606f9dd66349540b880,2020-11-27_15h10.22.097,lexical_decision_task_MP_exp2,2020.2.5,Win32,60,m,1,0.628225,,,,,,,,0.628225,1,,,,,,86,WORD,"ID",33,rodent,RODENT,m,,,,,,0.179474921,-0.128669045,0,0,0,,0,301,301,25,1,,
,,,,,,,,,,,,,,,,,,5e870606f9dd66349540b880,2020-11-27_15h10.22.097,lexical_decision_task_MP_exp2,2020.2.5,Win32,60,z,1,0.562855,,,,,,,,0.562855,1,,,,,,468,NW,UN,33,padifs,WICTOR,z,,,,,,0.179474921,-0.128669045,0,0,0,,0,302,302,407,1,,
,,,,,,,,,,,,,,,,,,5e870606f9dd66349540b880,2020-11-27_15h10.22.097,lexical_decision_task_MP_exp2,2020.2.5,Win32,60,m,1,0.70226,,,,,,,,0.70226,1,,,,,,192,WORD,UN,33,object,PLAGUE,m,,,,,,0.179474921,-0.128669045,0,0,0,,0,303,303,131,1,,
,,,,,,,,,,,,,,,,,,5e870606f9dd66349540b880,2020-11-27_15h10.22.097,lexical_decision_task_MP_exp2,2020.2.5,Win32,60,z,1,0.57707,,,,,,,,0.57707,1,,,,,,383,NW,"ID",16,aungre,AUNGRE,z,,,,,,0.179474921,-0.128669045,0,0,0,,0,304,304,322,1,,
,,,,,,,,,,,,,,,,,,5e870606f9dd66349540b880,2020-11-27_15h10.22.097,lexical_decision_task_MP_exp2,2020.2.5,Win32,60,z,1,0.566385,,,,,,,,0.566385,1,,,,,,312,NW,"ID",33,nerawl,NERAWL,z,,,,,,0.179474921,-0.128669045,0,0,0,,0,305,305,251,1,,
,,,,,,,,,,,,,,,,,,5e870606f9dd66349540b880,2020-11-27_15h10.22.097,lexical_decision_task_MP_exp2,2020.2.5,Win32,60,z,1,0.59898,,,,,,,,0.59898,1,,,,,,272,NW,UN,16,sortel,DAMILT,z,,,,,,0.179474921,-0.128669045,0,0,0,,0,306,306,451,1,,
,,,,,,,,,,,,,,,,,,5e870606f9dd66349540b880,2020-11-27_15h10.22.097,lexical_decision_task_MP_exp2,2020.2.5,Win32,60,z,1,0.62533,,,,,,,,0.62533,1,,,,,,394,NW,"ID",16,spaqux,SPAQUX,z,,,,,,0.179474921,-0.128669045,0,0,0,,0,307,307,333,1,,
,,,,,,,,,,,,,,,,,,5e870606f9dd66349540b880,2020-11-27_15h10.22.097,lexical_decision_task_MP_exp2,2020.2.5,Win32,60,m,1,0.524805,,,,,,,,0.524805,1,,,,,,173,WORD,"ID",16,shower,SHOWER,m,,,,,,0.179474921,-0.128669045,0,0,0,,0,308,308,112,1,,
,,,,,,,,,,,,,,,,,,5e870606f9dd66349540b880,2020-11-27_15h10.22.097,lexical_decision_task_MP_exp2,2020.2.5,Win32,60,m,1,0.653175,,,,,,,,0.653175,1,,,,,,200,WORD,UN,33,admire,BEACON,m,,,,,,0.179474921,-0.128669045,0,0,0,,0,309,309,139,1,,
,,,,,,,,,,,,,,,,,,5e870606f9dd66349540b880,2020-11-27_15h10.22.097,lexical_decision_task_MP_exp2,2020.2.5,Win32,60,m,1,0.51869,,,,,,,,0.51869,1,,,,,,128,WORD,"ID",16,senior,SENIOR,m,,,,,,0.179474921,-0.128669045,0,0,0,,0,310,310,67,1,,
,,,,,,,,,,,,,,,,,,5e870606f9dd66349540b880,2020-11-27_15h10.22.097,lexical_decision_task_MP_exp2,2020.2.5,Win32,60,m,1,0.46722,,,,,,,,0.46722,1,,,,,,3,WORD,UN,16,trench,KNIGHT,m,,,,,,0.179474921,-0.128669045,0,0,0,,0,311,311,182,1,,
,,,,,,,,,,,,,,,,,,5e870606f9dd66349540b880,2020-11-27_15h10.22.097,lexical_decision_task_MP_exp2,2020.2.5,Win32,60,z,1,0.53495,,,,,,,,0.53495,1,,,,,,270,NW,UN,16,aubrid,WRIMSY,z,,,,,,0.179474921,-0.128669045,0,0,0,,0,312,312,449,1,,
,,,,,,,,,,,,,,,,,,5e870606f9dd66349540b880,2020-11-27_15h10.22.097,lexical_decision_task_MP_exp2,2020.2.5,Win32,60,m,1,0.535595,,,,,,,,0.535595,1,,,,,,164,WORD,"ID",16,market,MARKET,m,,,,,,0.179474921,-0.128669045,0,0,0,,0,313,313,103,1,,
,,,,,,,,,,,,,,,,,,5e870606f9dd66349540b880,2020-11-27_15h10.22.097,lexical_decision_task_MP_exp2,2020.2.5,Win32,60,z,1,0.55166,,,,,,,,0.55166,1,,,,,,275,NW,UN,16,yarmon,SLEIRT,z,,,,,,0.179474921,-0.128669045,0,0,0,,0,314,314,454,1,,
,,,,,,,,,,,,,,,,,,5e870606f9dd66349540b880,2020-11-27_15h10.22.097,lexical_decision_task_MP_exp2,2020.2.5,Win32,60,z,1,0.532765,,,,,,,,0.532765,1,,,,,,242,NW,UN,16,musied,UNWERT,z,,,,,,0.179474921,-0.128669045,0,0,0,,0,315,315,421,1,,
,,,,,,,,,,,,,,,,,,5e870606f9dd66349540b880,2020-11-27_15h10.22.097,lexical_decision_task_MP_exp2,2020.2.5,Win32,60,z,1,0.739255,,,,,,,,0.739255,1,,,,,,343,NW,"ID",33,aimosy,AIMOSY,z,,,,,,0.179474921,-0.128669045,0,0,0,,0,316,316,282,1,,
,,,,,,,,,,,,,,,,,,5e870606f9dd66349540b880,2020-11-27_15h10.22.097,lexical_decision_task_MP_exp2,2020.2.5,Win32,60,m,1,0.49989,,,,,,,,0.49989,1,,,,,,216,WORD,UN,33,liquor,BEHALF,m,,,,,,0.179474921,-0.128669045,0,0,0,,0,317,317,155,1,,
,,,,,,,,,,,,,,,,,,5e870606f9dd66349540b880,2020-11-27_15h10.22.097,lexical_decision_task_MP_exp2,2020.2.5,Win32,60,z,1,0.65718,,,,,,,,0.65718,1,,,,,,249,NW,UN,16,milted,BATROL,z,,,,,,0.179474921,-0.128669045,0,0,0,,0,318,318,428,1,,
,,,,,,,,,,,,,,,,,,5e870606f9dd66349540b880,2020-11-27_15h10.22.097,lexical_decision_task_MP_exp2,2020.2.5,Win32,60,m,1,0.52024,,,,,,,,0.52024,1,,,,,,186,WORD,UN,33,course,PORTAL,m,,,,,,0.179474921,-0.128669045,0,0,0,,0,319,319,125,1,,
,,,,,,,,,,,,,,,,,,5e870606f9dd66349540b880,2020-11-27_15h10.22.097,lexical_decision_task_MP_exp2,2020.2.5,Win32,60,z,1,0.546095,,,,,,,,0.546095,1,,,,,,389,NW,"ID",16,witmer,WITMER,z,,,,,,0.179474921,-0.128669045,0,0,0,,0,320,320,328,1,,
,,,,,,,,,,,,,,,,,,5e870606f9dd66349540b880,2020-11-27_15h10.22.097,lexical_decision_task_MP_exp2,2020.2.5,Win32,60,m,1,0.60974,,,,,,,,0.60974,1,,,,,,145,WORD,"ID",16,parish,PARISH,m,,,,,,0.179474921,-0.128669045,0,0,0,,0,321,321,84,1,,
,,,,,,,,,,,,,,,,,,5e870606f9dd66349540b880,2020-11-27_15h10.22.097,lexical_decision_task_MP_exp2,2020.2.5,Win32,60,z,1,0.70846,,,,,,,,0.70846,1,,,,,,368,NW,"ID",16,hornal,HORNAL,z,,,,,,0.179474921,-0.128669045,0,0,0,,0,322,322,307,1,,
,,,,,,,,,,,,,,,,,,5e870606f9dd66349540b880,2020-11-27_15h10.22.097,lexical_decision_task_MP_exp2,2020.2.5,Win32,60,z,1,1.011235,,,,,,,,1.011235,1,,,,,,413,NW,"ID",16,equats,EQUATS,z,,,,,,0.179474921,-0.128669045,0,0,0,,0,323,323,352,1,,
,,,,,,,,,,,,,,,,,,5e870606f9dd66349540b880,2020-11-27_15h10.22.097,lexical_decision_task_MP_exp2,2020.2.5,Win32,60,z,0,0.49851,,,,,,,,0.49851,0,,,,,,66,WORD,"ID",33,gospel,GOSPEL,m,,,,,,0.179474921,-0.128669045,0,0,0,,0,324,324,5,1,,
,,,,,,,,,,,,,,,,,,5e870606f9dd66349540b880,2020-11-27_15h10.22.097,lexical_decision_task_MP_exp2,2020.2.5,Win32,60,z,1,0.569885,,,,,,,,0.569885,1,,,,,,355,NW,"ID",33,zingly,ZINGLY,z,,,,,,0.179474921,-0.128669045,0,0,0,,0,325,325,294,1,,
,,,,,,,,,,,,,,,,,,5e870606f9dd66349540b880,2020-11-27_15h10.22.097,lexical_decision_task_MP_exp2,2020.2.5,Win32,60,z,1,0.740805,,,,,,,,0.740805,1,,,,,,396,NW,"ID",16,flengy,FLENGY,z,,,,,,0.179474921,-0.128669045,0,0,0,,0,326,326,335,1,,
,,,,,,,,,,,,,,,,,,5e870606f9dd66349540b880,2020-11-27_15h10.22.097,lexical_decision_task_MP_exp2,2020.2.5,Win32,60,m,1,0.49715,,,,,,,,0.49715,1,,,,,,202,WORD,UN,33,phrase,FACTOR,m,,,,,,0.179474921,-0.128669045,0,0,0,,0,327,327,141,1,,
,,,,,,,,,,,,,,,,,,5e870606f9dd66349540b880,2020-11-27_15h10.22.097,lexical_decision_task_MP_exp2,2020.2.5,Win32,60,m,1,0.566905,,,,,,,,0.566905,1,,,,,,212,WORD,UN,33,squeal,VERIFY,m,,,,,,0.179474921,-0.128669045,0,0,0,,0,328,328,151,1,,
,,,,,,,,,,,,,,,,,,5e870606f9dd66349540b880,2020-11-27_15h10.22.097,lexical_decision_task_MP_exp2,2020.2.5,Win32,60,m,1,0.519475,,,,,,,,0.519475,1,,,,,,15,WORD,UN,16,faucet,AMOUNT,m,,,,,,0.179474921,-0.128669045,0,0,0,,0,329,329,194,1,,
,,,,,,,,,,,,,,,,,,5e870606f9dd66349540b880,2020-11-27_15h10.22.097,lexical_decision_task_MP_exp2,2020.2.5,Win32,60,m,1,0.51601,,,,,,,,0.51601,1,,,,,,232,WORD,UN,33,nature,INJECT,m,,,,,,0.179474921,-0.128669045,0,0,0,,0,330,330,171,1,,
,,,,,,,,,,,,,,,,,,5e870606f9dd66349540b880,2020-11-27_15h10.22.097,lexical_decision_task_MP_exp2,2020.2.5,Win32,60,m,1,0.42774,,,,,,,,0.42774,1,,,,,,88,WORD,"ID",33,hunger,HUNGER,m,,,,,,0.179474921,-0.128669045,0,0,0,,0,331,331,27,1,,
,,,,,,,,,,,,,,,,,,5e870606f9dd66349540b880,2020-11-27_15h10.22.097,lexical_decision_task_MP_exp2,2020.2.5,Win32,60,m,1,0.43677,,,,,,,,0.43677,1,,,,,,2,WORD,UN,16,knight,BRIDGE,m,,,,,,0.179474921,-0.128669045,0,0,0,,0,332,332,181,1,,
,,,,,,,,,,,,,,,,,,5e870606f9dd66349540b880,2020-11-27_15h10.22.097,lexical_decision_task_MP_exp2,2020.2.5,Win32,60,m,0,0.39669,,,,,,,,0.39669,0,,,,,,305,NW,"ID",33,forgle,FORGLE,z,,,,,,0.179474921,-0.128669045,0,0,0,,0,333,333,244,1,,
,,,,,,,,,,,,,,,,,,5e870606f9dd66349540b880,2020-11-27_15h10.22.097,lexical_decision_task_MP_exp2,2020.2.5,Win32,60,z,1,0.543215,,,,,,,,0.543215,1,,,,,,407,NW,"ID",16,suiver,SUIVER,z,,,,,,0.179474921,-0.128669045,0,0,0,,0,334,334,346,1,,
,,,,,,,,,,,,,,,,,,5e870606f9dd66349540b880,2020-11-27_15h10.22.097,lexical_decision_task_MP_exp2,2020.2.5,Win32,60,m,1,0.643775,,,,,,,,0.643775,1,,,,,,148,WORD,"ID",16,custom,CUSTOM,m,,,,,,0.179474921,-0.128669045,0,0,0,,0,335,335,87,1,,
,,,,,,,,,,,,,,,,,,5e870606f9dd66349540b880,2020-11-27_15h10.22.097,lexical_decision_task_MP_exp2,2020.2.5,Win32,60,m,1,0.46645,,,,,,,,0.46645,1,,,,,,20,WORD,UN,16,simple,BREAST,m,,,,,,0.179474921,-0.128669045,0,0,0,,0,336,336,199,1,,
,,,,,,,,,,,,,,,,,,5e870606f9dd66349540b880,2020-11-27_15h10.22.097,lexical_decision_task_MP_exp2,2020.2.5,Win32,60,m,0,0.48373,,,,,,,,0.48373,0,,,,,,260,NW,UN,16,stunch,UNJECT,z,,,,,,0.179474921,-0.128669045,0,0,0,,0,337,337,439,1,,
,,,,,,,,,,,,,,,,,,5e870606f9dd66349540b880,2020-11-27_15h10.22.097,lexical_decision_task_MP_exp2,2020.2.5,Win32,60,z,1,0.6265,,,,,,,,0.6265,1,,,,,,464,NW,UN,33,whivex,CHAITE,z,,,,,,0.179474921,-0.128669045,0,0,0,,0,338,338,403,1,,
,,,,,,,,,,,,,,,,,,5e870606f9dd66349540b880,2020-11-27_15h10.22.097,lexical_decision_task_MP_exp2,2020.2.5,Win32,60,m,1,0.632175,,,,,,,,0.632175,1,,,,,,161,WORD,"ID",16,pastor,PASTOR,m,,,,,,0.179474921,-0.128669045,0,0,0,,0,339,339,100,1,,
,,,,,,,,,,,,,,,,,,5e870606f9dd66349540b880,2020-11-27_15h10.22.097,lexical_decision_task_MP_exp2,2020.2.5,Win32,60,m,1,0.51275,,,,,,,,0.51275,1,,,,,,113,WORD,"ID",33,chorus,CHORUS,m,,,,,,0.179474921,-0.128669045,0,0,0,,0,340,340,52,1,,
,,,,,,,,,,,,,,,,,,5e870606f9dd66349540b880,2020-11-27_15h10.22.097,lexical_decision_task_MP_exp2,2020.2.5,Win32,60,m,1,0.63305,,,,,,,,0.63305,1,,,,,,215,WORD,UN,33,lumber,PHOBIA,m,,,,,,0.179474921,-0.128669045,0,0,0,,0,341,341,154,1,,
,,,,,,,,,,,,,,,,,,5e870606f9dd66349540b880,2020-11-27_15h10.22.097,lexical_decision_task_MP_exp2,2020.2.5,Win32,60,m,1,0.864575,,,,,,,,0.864575,1,,,,,,207,WORD,UN,33,hockey,WREATH,m,,,,,,0.179474921,-0.128669045,0,0,0,,0,342,342,146,1,,
,,,,,,,,,,,,,,,,,,5e870606f9dd66349540b880,2020-11-27_15h10.22.097,lexical_decision_task_MP_exp2,2020.2.5,Win32,60,m,1,0.533295,,,,,,,,0.533295,1,,,,,,234,WORD,UN,33,poster,CLUMSY,m,,,,,,0.179474921,-0.128669045,0,0,0,,0,343,343,173,1,,
,,,,,,,,,,,,,,,,,,5e870606f9dd66349540b880,2020-11-27_15h10.22.097,lexical_decision_task_MP_exp2,2020.2.5,Win32,60,m,1,0.52408,,,,,,,,0.52408,1,,,,,,151,WORD,"ID",16,mystic,MYSTIC,m,,,,,,0.179474921,-0.128669045,0,0,0,,0,344,344,90,1,,
,,,,,,,,,,,,,,,,,,5e870606f9dd66349540b880,2020-11-27_15h10.22.097,lexical_decision_task_MP_exp2,2020.2.5,Win32,60,m,1,1.05396,,,,,,,,1.05396,1,,,,,,82,WORD,"ID",33,stigma,STIGMA,m,,,,,,0.179474921,-0.128669045,0,0,0,,0,345,345,21,1,,
,,,,,,,,,,,,,,,,,,5e870606f9dd66349540b880,2020-11-27_15h10.22.097,lexical_decision_task_MP_exp2,2020.2.5,Win32,60,m,1,0.4881,,,,,,,,0.4881,1,,,,,,101,WORD,"ID",33,wrench,WRENCH,m,,,,,,0.179474921,-0.128669045,0,0,0,,0,346,346,40,1,,
,,,,,,,,,,,,,,,,,,5e870606f9dd66349540b880,2020-11-27_15h10.22.097,lexical_decision_task_MP_exp2,2020.2.5,Win32,60,m,1,0.46747,,,,,,,,0.46747,1,,,,,,7,WORD,UN,16,abrupt,ANCHOR,m,,,,,,0.179474921,-0.128669045,0,0,0,,0,347,347,186,1,,
,,,,,,,,,,,,,,,,,,5e870606f9dd66349540b880,2020-11-27_15h10.22.097,lexical_decision_task_MP_exp2,2020.2.5,Win32,60,m,1,0.42566,,,,,,,,0.42566,1,,,,,,53,WORD,UN,16,ramble,POLICE,m,,,,,,0.179474921,-0.128669045,0,0,0,,0,348,348,232,1,,
,,,,,,,,,,,,,,,,,,5e870606f9dd66349540b880,2020-11-27_15h10.22.097,lexical_decision_task_MP_exp2,2020.2.5,Win32,60,m,1,0.509965,,,,,,,,0.509965,1,,,,,,237,WORD,UN,33,glance,POSTER,m,,,,,,0.179474921,-0.128669045,0,0,0,,0,349,349,176,1,,
,,,,,,,,,,,,,,,,,,5e870606f9dd66349540b880,2020-11-27_15h10.22.097,lexical_decision_task_MP_exp2,2020.2.5,Win32,60,z,1,0.58665,,,,,,,,0.58665,1,,,,,,446,NW,UN,33,gircue,RUNAMO,z,,,,,,0.179474921,-0.128669045,0,0,0,,0,350,350,385,1,,
,,,,,,,,,,,,,,,,,,5e870606f9dd66349540b880,2020-11-27_15h10.22.097,lexical_decision_task_MP_exp2,2020.2.5,Win32,60,m,1,0.540715,,,,,,,,0.540715,1,,,,,,189,WORD,UN,33,backup,CENSOR,m,,,,,,0.179474921,-0.128669045,0,0,0,,0,351,351,128,1,,
,,,,,,,,,,,,,,,,,,5e870606f9dd66349540b880,2020-11-27_15h10.22.097,lexical_decision_task_MP_exp2,2020.2.5,Win32,60,z,1,0.61604,,,,,,,,0.61604,1,,,,,,466,NW,UN,33,robuly,HOCITE,z,,,,,,0.179474921,-0.128669045,0,0,0,,0,352,352,405,1,,
,,,,,,,,,,,,,,,,,,5e870606f9dd66349540b880,2020-11-27_15h10.22.097,lexical_decision_task_MP_exp2,2020.2.5,Win32,60,m,1,0.553765,,,,,,,,0.553765,1,,,,,,100,WORD,"ID",33,carbon,CARBON,m,,,,,,0.179474921,-0.128669045,0,0,0,,0,353,353,39,1,,
,,,,,,,,,,,,,,,,,,5e870606f9dd66349540b880,2020-11-27_15h10.22.097,lexical_decision_task_MP_exp2,2020.2.5,Win32,60,m,1,0.50115,,,,,,,,0.50115,1,,,,,,26,WORD,UN,16,butler,SPRINT,m,,,,,,0.179474921,-0.128669045,0,0,0,,0,354,354,205,1,,
,,,,,,,,,,,,,,,,,,5e870606f9dd66349540b880,2020-11-27_15h10.22.097,lexical_decision_task_MP_exp2,2020.2.5,Win32,60,z,1,0.66097,,,,,,,,0.66097,1,,,,,,388,NW,"ID",16,cragin,CRAGIN,z,,,,,,0.179474921,-0.128669045,0,0,0,,0,355,355,327,1,,
,,,,,,,,,,,,,,,,,,5e870606f9dd66349540b880,2020-11-27_15h10.22.097,lexical_decision_task_MP_exp2,2020.2.5,Win32,60,z,1,0.59537,,,,,,,,0.59537,1,,,,,,309,NW,"ID",33,amiloy,AMILOY,z,,,,,,0.179474921,-0.128669045,0,0,0,,0,356,356,248,1,,
,,,,,,,,,,,,,,,,,,5e870606f9dd66349540b880,2020-11-27_15h10.22.097,lexical_decision_task_MP_exp2,2020.2.5,Win32,60,m,1,0.61172,,,,,,,,0.61172,1,,,,,,204,WORD,UN,33,lounge,BURDEN,m,,,,,,0.179474921,-0.128669045,0,0,0,,0,357,357,143,1,,
,,,,,,,,,,,,,,,,,,5e870606f9dd66349540b880,2020-11-27_15h10.22.097,lexical_decision_task_MP_exp2,2020.2.5,Win32,60,z,1,0.649935,,,,,,,,0.649935,1,,,,,,313,NW,"ID",33,paurse,PAURSE,z,,,,,,0.179474921,-0.128669045,0,0,0,,0,358,358,252,1,,
,,,,,,,,,,,,,,,,,,5e870606f9dd66349540b880,2020-11-27_15h10.22.097,lexical_decision_task_MP_exp2,2020.2.5,Win32,60,z,1,0.61128,,,,,,,,0.61128,1,,,,,,311,NW,"ID",33,sproly,SPROLY,z,,,,,,0.179474921,-0.128669045,0,0,0,,0,359,359,250,1,,
,,,,,,,,,,,,,,,,,,5e870606f9dd66349540b880,2020-11-27_15h10.22.097,lexical_decision_task_MP_exp2,2020.2.5,Win32,60,z,1,0.525515,,,,,,,,0.525515,1,,,,,,331,NW,"ID",33,gilfew,GILFEW,z,,,,,,0.179474921,-0.128669045,0,0,0,,0,360,360,270,1,,
,,,,,,,,,,,,,,,,,,5e870606f9dd66349540b880,2020-11-27_15h10.22.097,lexical_decision_task_MP_exp2,2020.2.5,Win32,60,z,1,0.55474,,,,,,,,0.55474,1,,,,,,438,NW,UN,33,limpor,BAITCH,z,,,,,,0.179474921,-0.128669045,0,0,0,,0,361,361,377,1,,
,,,,,,,,,,,,,,,,,,5e870606f9dd66349540b880,2020-11-27_15h10.22.097,lexical_decision_task_MP_exp2,2020.2.5,Win32,60,z,1,0.701735,,,,,,,,0.701735,1,,,,,,479,NW,UN,33,crible,LOBUSH,z,,,,,,0.004429616,-0.085975052,0,0,0,space,0,362,362,418,1,,19.67523
,,,,,,,,,,,,,,,,,,5e870606f9dd66349540b880,2020-11-27_15h10.22.097,lexical_decision_task_MP_exp2,2020.2.5,Win32,60,m,1,1.079075,,,,,,,,1.079075,1,,,,,,83,WORD,"ID",33,result,RESULT,m,,,,,,0.001227501,-0.196979433,0,0,0,,0,363,363,22,1,,
,,,,,,,,,,,,,,,,,,5e870606f9dd66349540b880,2020-11-27_15h10.22.097,lexical_decision_task_MP_exp2,2020.2.5,Win32,60,z,1,0.534775,,,,,,,,0.534775,1,,,,,,298,NW,UN,16,sturch,PIERGY,z,,,,,,0.001227501,-0.196979433,0,0,0,,0,364,364,477,1,,
,,,,,,,,,,,,,,,,,,5e870606f9dd66349540b880,2020-11-27_15h10.22.097,lexical_decision_task_MP_exp2,2020.2.5,Win32,60,z,0,0.522545,,,,,,,,0.522545,0,,,,,,16,WORD,UN,16,charge,FAUCET,m,,,,,,0.001227501,-0.196979433,0,0,0,,0,365,365,195,1,,
,,,,,,,,,,,,,,,,,,5e870606f9dd66349540b880,2020-11-27_15h10.22.097,lexical_decision_task_MP_exp2,2020.2.5,Win32,60,z,0,0.599055,,,,,,,,0.599055,0,,,,,,163,WORD,"ID",16,string,STRING,m,,,,,,0.001227501,-0.196979433,0,0,0,,0,366,366,102,1,,
,,,,,,,,,,,,,,,,,,5e870606f9dd66349540b880,2020-11-27_15h10.22.097,lexical_decision_task_MP_exp2,2020.2.5,Win32,60,m,1,0.54514,,,,,,,,0.54514,1,,,,,,206,WORD,UN,33,wreath,TAILOR,m,,,,,,0.001227501,-0.196979433,0,0,0,,0,367,367,145,1,,
,,,,,,,,,,,,,,,,,,5e870606f9dd66349540b880,2020-11-27_15h10.22.097,lexical_decision_task_MP_exp2,2020.2.5,Win32,60,m,1,0.49294,,,,,,,,0.49294,1,,,,,,137,WORD,"ID",16,finger,FINGER,m,,,,,,0.001227501,-0.196979433,0,0,0,,0,368,368,76,1,,
,,,,,,,,,,,,,,,,,,5e870606f9dd66349540b880,2020-11-27_15h10.22.097,lexical_decision_task_MP_exp2,2020.2.5,Win32,60,m,1,0.459185,,,,,,,,0.459185,1,,,,,,35,WORD,UN,16,vanish,SOCKET,m,,,,,,0.001227501,-0.196979433,0,0,0,,0,369,369,214,1,,
,,,,,,,,,,,,,,,,,,5e870606f9dd66349540b880,2020-11-27_15h10.22.097,lexical_decision_task_MP_exp2,2020.2.5,Win32,60,z,1,0.62682,,,,,,,,0.62682,1,,,,,,397,NW,"ID",16,camble,CAMBLE,z,,,,,,0.001227501,-0.196979433,0,0,0,,0,370,370,336,1,,
,,,,,,,,,,,,,,,,,,5e870606f9dd66349540b880,2020-11-27_15h10.22.097,lexical_decision_task_MP_exp2,2020.2.5,Win32,60,m,1,0.51613,,,,,,,,0.51613,1,,,,,,60,WORD,UN,16,fright,PENCIL,m,,,,,,0.001227501,-0.196979433,0,0,0,,0,371,371,239,1,,
,,,,,,,,,,,,,,,,,,5e870606f9dd66349540b880,2020-11-27_15h10.22.097,lexical_decision_task_MP_exp2,2020.2.5,Win32,60,m,1,0.584585,,,,,,,,0.584585,1,,,,,,153,WORD,"ID",16,behold,BEHOLD,m,,,,,,0.001227501,-0.196979433,0,0,0,,0,372,372,92,1,,
,,,,,,,,,,,,,,,,,,5e870606f9dd66349540b880,2020-11-27_15h10.22.097,lexical_decision_task_MP_exp2,2020.2.5,Win32,60,m,1,0.530855,,,,,,,,0.530855,1,,,,,,235,WORD,UN,33,pirate,GRUMPY,m,,,,,,0.001227501,-0.196979433,0,0,0,,0,373,373,174,1,,
,,,,,,,,,,,,,,,,,,5e870606f9dd66349540b880,2020-11-27_15h10.22.097,lexical_decision_task_MP_exp2,2020.2.5,Win32,60,m,1,0.494975,,,,,,,,0.494975,1,,,,,,118,WORD,"ID",33,flight,FLIGHT,m,,,,,,0.001227501,-0.196979433,0,0,0,,0,374,374,57,1,,
,,,,,,,,,,,,,,,,,,5e870606f9dd66349540b880,2020-11-27_15h10.22.097,lexical_decision_task_MP_exp2,2020.2.5,Win32,60,m,1,0.46092,,,,,,,,0.46092,1,,,,,,138,WORD,"ID",16,melody,MELODY,m,,,,,,0.001227501,-0.196979433,0,0,0,,0,375,375,77,1,,
,,,,,,,,,,,,,,,,,,5e870606f9dd66349540b880,2020-11-27_15h10.22.097,lexical_decision_task_MP_exp2,2020.2.5,Win32,60,m,1,0.476645,,,,,,,,0.476645,1,,,,,,132,WORD,"ID",16,strong,STRONG,m,,,,,,0.001227501,-0.196979433,0,0,0,,0,376,376,71,1,,
,,,,,,,,,,,,,,,,,,5e870606f9dd66349540b880,2020-11-27_15h10.22.097,lexical_decision_task_MP_exp2,2020.2.5,Win32,60,z,1,0.54589,,,,,,,,0.54589,1,,,,,,470,NW,UN,33,nobest,CRUDIO,z,,,,,,0.001227501,-0.196979433,0,0,0,,0,377,377,409,1,,
,,,,,,,,,,,,,,,,,,5e870606f9dd66349540b880,2020-11-27_15h10.22.097,lexical_decision_task_MP_exp2,2020.2.5,Win32,60,z,1,0.581695,,,,,,,,0.581695,1,,,,,,354,NW,"ID",33,virlex,VIRLEX,z,,,,,,0.001227501,-0.196979433,0,0,0,,0,378,378,293,1,,
,,,,,,,,,,,,,,,,,,5e870606f9dd66349540b880,2020-11-27_15h10.22.097,lexical_decision_task_MP_exp2,2020.2.5,Win32,60,m,1,0.56862,,,,,,,,0.56862,1,,,,,,99,WORD,"ID",33,fluent,FLUENT,m,,,,,,0.001227501,-0.196979433,0,0,0,,0,379,379,38,1,,
,,,,,,,,,,,,,,,,,,5e870606f9dd66349540b880,2020-11-27_15h10.22.097,lexical_decision_task_MP_exp2,2020.2.5,Win32,60,m,1,0.52951,,,,,,,,0.52951,1,,,,,,5,WORD,UN,16,bundle,PLUNGE,m,,,,,,0.001227501,-0.196979433,0,0,0,,0,380,380,184,1,,
,,,,,,,,,,,,,,,,,,5e870606f9dd66349540b880,2020-11-27_15h10.22.097,lexical_decision_task_MP_exp2,2020.2.5,Win32,60,m,1,0.472555,,,,,,,,0.472555,1,,,,,,19,WORD,UN,16,breast,PATRON,m,,,,,,0.001227501,-0.196979433,0,0,0,,0,381,381,198,1,,
,,,,,,,,,,,,,,,,,,5e870606f9dd66349540b880,2020-11-27_15h10.22.097,lexical_decision_task_MP_exp2,2020.2.5,Win32,60,z,1,0.5679,,,,,,,,0.5679,1,,,,,,253,NW,UN,16,varosh,RESAIT,z,,,,,,0.001227501,-0.196979433,0,0,0,,0,382,382,432,1,,
,,,,,,,,,,,,,,,,,,5e870606f9dd66349540b880,2020-11-27_15h10.22.097,lexical_decision_task_MP_exp2,2020.2.5,Win32,60,m,1,0.537295,,,,,,,,0.537295,1,,,,,,110,WORD,"ID",33,polite,POLITE,m,,,,,,0.001227501,-0.196979433,0,0,0,,0,383,383,49,1,,
,,,,,,,,,,,,,,,,,,5e870606f9dd66349540b880,2020-11-27_15h10.22.097,lexical_decision_task_MP_exp2,2020.2.5,Win32,60,z,1,0.589145,,,,,,,,0.589145,1,,,,,,419,NW,"ID",16,slount,SLOUNT,z,,,,,,0.001227501,-0.196979433,0,0,0,,0,384,384,358,1,,
,,,,,,,,,,,,,,,,,,5e870606f9dd66349540b880,2020-11-27_15h10.22.097,lexical_decision_task_MP_exp2,2020.2.5,Win32,60,z,0,0.503415,,,,,,,,0.503415,0,,,,,,78,WORD,"ID",33,column,COLUMN,m,,,,,,0.001227501,-0.196979433,0,0,0,,0,385,385,17,1,,
,,,,,,,,,,,,,,,,,,5e870606f9dd66349540b880,2020-11-27_15h10.22.097,lexical_decision_task_MP_exp2,2020.2.5,Win32,60,z,1,0.60611,,,,,,,,0.60611,1,,,,,,381,NW,"ID",16,huniek,HUNIEK,z,,,,,,0.001227501,-0.196979433,0,0,0,,0,386,386,320,1,,
,,,,,,,,,,,,,,,,,,5e870606f9dd66349540b880,2020-11-27_15h10.22.097,lexical_decision_task_MP_exp2,2020.2.5,Win32,60,m,1,0.477165,,,,,,,,0.477165,1,,,,,,70,WORD,"ID",33,square,SQUARE,m,,,,,,0.001227501,-0.196979433,0,0,0,,0,387,387,9,1,,
,,,,,,,,,,,,,,,,,,5e870606f9dd66349540b880,2020-11-27_15h10.22.097,lexical_decision_task_MP_exp2,2020.2.5,Win32,60,z,1,0.58367,,,,,,,,0.58367,1,,,,,,344,NW,"ID",33,scrily,SCRILY,z,,,,,,0.001227501,-0.196979433,0,0,0,,0,388,388,283,1,,
,,,,,,,,,,,,,,,,,,5e870606f9dd66349540b880,2020-11-27_15h10.22.097,lexical_decision_task_MP_exp2,2020.2.5,Win32,60,m,1,0.57431,,,,,,,,0.57431,1,,,,,,136,WORD,"ID",16,bleach,BLEACH,m,,,,,,0.001227501,-0.196979433,0,0,0,,0,389,389,75,1,,
,,,,,,,,,,,,,,,,,,5e870606f9dd66349540b880,2020-11-27_15h10.22.097,lexical_decision_task_MP_exp2,2020.2.5,Win32,60,m,1,0.45694,,,,,,,,0.45694,1,,,,,,229,WORD,UN,33,fringe,MOTHER,m,,,,,,0.001227501,-0.196979433,0,0,0,,0,390,390,168,1,,
,,,,,,,,,,,,,,,,,,5e870606f9dd66349540b880,2020-11-27_15h10.22.097,lexical_decision_task_MP_exp2,2020.2.5,Win32,60,m,0,0.688135,,,,,,,,0.688135,0,,,,,,458,NW,UN,33,hocite,BARCET,z,,,,,,0.001227501,-0.196979433,0,0,0,,0,391,391,397,1,,
,,,,,,,,,,,,,,,,,,5e870606f9dd66349540b880,2020-11-27_15h10.22.097,lexical_decision_task_MP_exp2,2020.2.5,Win32,60,z,1,0.60585,,,,,,,,0.60585,1,,,,,,255,NW,UN,16,inlors,APIGHT,z,,,,,,0.001227501,-0.196979433,0,0,0,,0,392,392,434,1,,
