counterbalancing_condition,instr_done_keyboard.keys,instr_done_keyboard.rt,instr_done_touch.x,instr_done_touch.y,instr_done_touch.leftButton,instr_done_touch.midButton,instr_done_touch.rightButton,instruction_pages.thisRepN,instruction_pages.thisTrialN,instruction_pages.thisN,instruction_pages.thisIndex,instruction_pages.ran,pageN,phase,instruct_text,has_image,instruct_image,participant,date,expName,psychopyVersion,OS,frameRate,response.keys,response.corr,response.rt,touch_resp.x,touch_resp.y,touch_resp.leftButton,touch_resp.midButton,touch_resp.rightButton,touch_resp.time,touch_resp.clicked_name,rt,corr,practice_trials.thisRepN,practice_trials.thisTrialN,practice_trials.thisN,practice_trials.thisIndex,practice_trials.ran,TrialID,StimulusType,Condition,PrimeDuration,Prime,Target,corrAns,end_of_practice_trials_pages.thisRepN,end_of_practice_trials_pages.thisTrialN,end_of_practice_trials_pages.thisN,end_of_practice_trials_pages.thisIndex,end_of_practice_trials_pages.ran,break_done_touch.x,break_done_touch.y,break_done_touch.leftButton,break_done_touch.midButton,break_done_touch.rightButton,break_done_keyboard.keys,experiment_trials.thisRepN,experiment_trials.thisTrialN,experiment_trials.thisN,experiment_trials.thisIndex,experiment_trials.ran,break_done_keyboard.rt
1,space,13.442605,0.193518519,-0.15462963,0,0,0,0,0,0,0,1,1,instructions,"INSTRUCTIONS
At the start of each trial, look at the hash marks (######) in the center of the screen. After a moment, a string of letters will appear. Your task is to indicate if the letter string forms a word or not (i.e., if it is a nonword). For example, AUTHOR is a word while AUTHON is a nonword.

Press the space bar or touch the button below to continue.",0,,5e9a12283ede3b09d611fc63,2020-11-26_15h57.32.207,lexical_decision_task_MP_exp2,2020.2.5,Win32,60,,,,,,,,,,,,,,,,,,,,,,,,,,,,,,,,,,,,,,,,,
,space,29.815785,0.193518519,-0.15462963,0,0,0,0,1,1,1,1,2,instructions,"If your device has a keyboard, press the 'Z' key for nonwords and the 'M' key for words.





Press the space bar or touch the button below to continue.",1,keyboard-example.gif,5e9a12283ede3b09d611fc63,2020-11-26_15h57.32.207,lexical_decision_task_MP_exp2,2020.2.5,Win32,60,,,,,,,,,,,,,,,,,,,,,,,,,,,,,,,,,,,,,,,,,
,space,2.83482,0.193518519,-0.15462963,0,0,0,0,2,2,2,1,3,instructions,"If you are using a touchscreen only device, use the buttons on the screen. Do not use the mouse.





Press the space bar or touch the button below to continue.",1,touchscreen-example.gif,5e9a12283ede3b09d611fc63,2020-11-26_15h57.32.207,lexical_decision_task_MP_exp2,2020.2.5,Win32,60,,,,,,,,,,,,,,,,,,,,,,,,,,,,,,,,,,,,,,,,,
,space,11.4458,0.193518519,-0.15462963,0,0,0,0,3,3,3,1,4,instructions,"It is very important that you respond as quickly and accurately as possible, as each letter string will only be on the screen for two seconds. If you do not respond within this time, the message 'Too slow!' will be displayed and the experiment will progress to the next letter string. The first 20 trials will be practice trials and you will receive feedback on your answers. 

Press the space bar or touch the button below to start the practice trials.",0,,5e9a12283ede3b09d611fc63,2020-11-26_15h57.32.207,lexical_decision_task_MP_exp2,2020.2.5,Win32,60,,,,,,,,,,,,,,,,,,,,,,,,,,,,,,,,,,,,,,,,,
,,,,,,,,,,,,,,,,,,5e9a12283ede3b09d611fc63,2020-11-26_15h57.32.207,lexical_decision_task_MP_exp2,2020.2.5,Win32,60,z,1,0.83553,,,,,,,,0.83553,1,0,0,0,11,1,1012,NW,"ID",16,rashet,RASHET,z,,,,,,,,,,,,,,,,,
,,,,,,,,,,,,,,,,,,5e9a12283ede3b09d611fc63,2020-11-26_15h57.32.207,lexical_decision_task_MP_exp2,2020.2.5,Win32,60,m,1,0.555345,,,,,,,,0.555345,1,0,1,1,4,1,1005,WORD,UN,33,abound,SQUEAK,m,,,,,,,,,,,,,,,,,
,,,,,,,,,,,,,,,,,,5e9a12283ede3b09d611fc63,2020-11-26_15h57.32.207,lexical_decision_task_MP_exp2,2020.2.5,Win32,60,z,1,0.807775,,,,,,,,0.807775,1,0,2,2,9,1,1010,NW,"ID",33,fariny,FARINY,z,,,,,,,,,,,,,,,,,
,,,,,,,,,,,,,,,,,,5e9a12283ede3b09d611fc63,2020-11-26_15h57.32.207,lexical_decision_task_MP_exp2,2020.2.5,Win32,60,z,1,0.65023,,,,,,,,0.65023,1,0,3,3,8,1,1009,NW,"ID",33,aslert,ASLERT,z,,,,,,,,,,,,,,,,,
,,,,,,,,,,,,,,,,,,5e9a12283ede3b09d611fc63,2020-11-26_15h57.32.207,lexical_decision_task_MP_exp2,2020.2.5,Win32,60,m,1,0.49679,,,,,,,,0.49679,1,0,4,4,6,1,1007,WORD,UN,16,tropic,ZOMBIE,m,,,,,,,,,,,,,,,,,
,,,,,,,,,,,,,,,,,,5e9a12283ede3b09d611fc63,2020-11-26_15h57.32.207,lexical_decision_task_MP_exp2,2020.2.5,Win32,60,m,0,0.635315,,,,,,,,0.635315,0,0,5,5,12,1,1013,NW,UN,33,adveil,SPRINY,z,,,,,,,,,,,,,,,,,
,,,,,,,,,,,,,,,,,,5e9a12283ede3b09d611fc63,2020-11-26_15h57.32.207,lexical_decision_task_MP_exp2,2020.2.5,Win32,60,m,1,0.64894,,,,,,,,0.64894,1,0,6,6,1,1,1002,WORD,"ID",33,adjust,ADJUST,m,,,,,,,,,,,,,,,,,
,,,,,,,,,,,,,,,,,,5e9a12283ede3b09d611fc63,2020-11-26_15h57.32.207,lexical_decision_task_MP_exp2,2020.2.5,Win32,60,z,1,0.621155,,,,,,,,0.621155,1,0,7,7,10,1,1011,NW,"ID",16,inlade,INLADE,z,,,,,,,,,,,,,,,,,
,,,,,,,,,,,,,,,,,,5e9a12283ede3b09d611fc63,2020-11-26_15h57.32.207,lexical_decision_task_MP_exp2,2020.2.5,Win32,60,m,1,0.550575,,,,,,,,0.550575,1,0,8,8,3,1,1004,WORD,"ID",16,matrix,MATRIX,m,,,,,,,,,,,,,,,,,
,,,,,,,,,,,,,,,,,,5e9a12283ede3b09d611fc63,2020-11-26_15h57.32.207,lexical_decision_task_MP_exp2,2020.2.5,Win32,60,z,1,0.81504,,,,,,,,0.81504,1,0,9,9,13,1,1014,NW,UN,33,winfer,ROUPET,z,,,,,,,,,,,,,,,,,
,,,,,,,,,,,,,,,,,,5e9a12283ede3b09d611fc63,2020-11-26_15h57.32.207,lexical_decision_task_MP_exp2,2020.2.5,Win32,60,m,1,0.52237,,,,,,,,0.52237,1,0,10,10,2,1,1003,WORD,"ID",16,almond,ALMOND,m,,,,,,,,,,,,,,,,,
,,,,,,,,,,,,,,,,,,5e9a12283ede3b09d611fc63,2020-11-26_15h57.32.207,lexical_decision_task_MP_exp2,2020.2.5,Win32,60,m,0,0.736955,,,,,,,,0.736955,0,0,11,11,14,1,1015,NW,UN,16,miaber,THRALE,z,,,,,,,,,,,,,,,,,
,,,,,,,,,,,,,,,,,,5e9a12283ede3b09d611fc63,2020-11-26_15h57.32.207,lexical_decision_task_MP_exp2,2020.2.5,Win32,60,z,1,0.732855,,,,,,,,0.732855,1,0,12,12,15,1,1016,NW,UN,16,mushed,WHAISE,z,,,,,,,,,,,,,,,,,
,,,,,,,,,,,,,,,,,,5e9a12283ede3b09d611fc63,2020-11-26_15h57.32.207,lexical_decision_task_MP_exp2,2020.2.5,Win32,60,m,1,0.524395,,,,,,,,0.524395,1,0,13,13,7,1,1008,WORD,UN,16,hurdle,VOLUME,m,,,,,,,,,,,,,,,,,
,,,,,,,,,,,,,,,,,,5e9a12283ede3b09d611fc63,2020-11-26_15h57.32.207,lexical_decision_task_MP_exp2,2020.2.5,Win32,60,m,1,0.62115,,,,,,,,0.62115,1,0,14,14,5,1,1006,WORD,UN,33,frenzy,OBTAIN,m,,,,,,,,,,,,,,,,,
,,,,,,,,,,,,,,,,,,5e9a12283ede3b09d611fc63,2020-11-26_15h57.32.207,lexical_decision_task_MP_exp2,2020.2.5,Win32,60,m,1,0.6575,,,,,,,,0.6575,1,0,15,15,0,1,1001,WORD,"ID",33,utopia,UTOPIA,m,,,,,,,,,,,,,,,,,
,space,6.88601,0.193518519,-0.15462963,0,0,0,,,,,,1,end_of_practice,"You have completed the practice trials. During the experimental trials, you will not receive feedback, but it is very important that you respond as quickly and accurately as possible. 
Before you begin, please ensure that you are in a comfortable and quiet location and will not be disturbed for about 15 minutes, as we cannot use your data if you do not complete all the trials. 
There will be opportunities to take breaks at regular intervals during the experiment. When you are ready to start the experimental trials, please press space or touch the button below.",,,5e9a12283ede3b09d611fc63,2020-11-26_15h57.32.207,lexical_decision_task_MP_exp2,2020.2.5,Win32,60,,,,,,,,,,,,,,,,,,,,,,,,,0,0,0,0,1,,,,,,,,,,,,
,,,,,,,,,,,,,,,,,,5e9a12283ede3b09d611fc63,2020-11-26_15h57.32.207,lexical_decision_task_MP_exp2,2020.2.5,Win32,60,z,1,0.791705,,,,,,,,0.791705,1,,,,,,282,NW,"ID",33,porlex,PORLEX,z,,,,,,0.193518519,-0.15462963,0,0,0,,0,0,0,281,1,
,,,,,,,,,,,,,,,,,,5e9a12283ede3b09d611fc63,2020-11-26_15h57.32.207,lexical_decision_task_MP_exp2,2020.2.5,Win32,60,m,1,0.524005,,,,,,,,0.524005,1,,,,,,150,WORD,UN,33,mystic,RANDOM,m,,,,,,0.193518519,-0.15462963,0,0,0,,0,1,1,149,1,
,,,,,,,,,,,,,,,,,,5e9a12283ede3b09d611fc63,2020-11-26_15h57.32.207,lexical_decision_task_MP_exp2,2020.2.5,Win32,60,z,1,0.698,,,,,,,,0.698,1,,,,,,315,NW,"ID",16,laston,LASTON,z,,,,,,0.193518519,-0.15462963,0,0,0,,0,2,2,314,1,
,,,,,,,,,,,,,,,,,,5e9a12283ede3b09d611fc63,2020-11-26_15h57.32.207,lexical_decision_task_MP_exp2,2020.2.5,Win32,60,z,1,0.72391,,,,,,,,0.72391,1,,,,,,444,NW,UN,16,minkel,JAUNCE,z,,,,,,0.193518519,-0.15462963,0,0,0,,0,3,3,443,1,
,,,,,,,,,,,,,,,,,,5e9a12283ede3b09d611fc63,2020-11-26_15h57.32.207,lexical_decision_task_MP_exp2,2020.2.5,Win32,60,z,1,0.714495,,,,,,,,0.714495,1,,,,,,475,NW,UN,16,robuly,PEBRIC,z,,,,,,0.193518519,-0.15462963,0,0,0,,0,4,4,474,1,
,,,,,,,,,,,,,,,,,,5e9a12283ede3b09d611fc63,2020-11-26_15h57.32.207,lexical_decision_task_MP_exp2,2020.2.5,Win32,60,z,1,1.03191,,,,,,,,1.03191,1,,,,,,357,NW,"ID",16,derain,DERAIN,z,,,,,,0.193518519,-0.15462963,0,0,0,,0,5,5,356,1,
,,,,,,,,,,,,,,,,,,5e9a12283ede3b09d611fc63,2020-11-26_15h57.32.207,lexical_decision_task_MP_exp2,2020.2.5,Win32,60,z,1,0.92603,,,,,,,,0.92603,1,,,,,,464,NW,UN,16,whivex,CHAITE,z,,,,,,0.193518519,-0.15462963,0,0,0,,0,6,6,463,1,
,,,,,,,,,,,,,,,,,,5e9a12283ede3b09d611fc63,2020-11-26_15h57.32.207,lexical_decision_task_MP_exp2,2020.2.5,Win32,60,m,1,0.45295,,,,,,,,0.45295,1,,,,,,22,WORD,"ID",33,jockey,JOCKEY,m,,,,,,0.193518519,-0.15462963,0,0,0,,0,7,7,21,1,
,,,,,,,,,,,,,,,,,,5e9a12283ede3b09d611fc63,2020-11-26_15h57.32.207,lexical_decision_task_MP_exp2,2020.2.5,Win32,60,m,1,0.64253,,,,,,,,0.64253,1,,,,,,134,WORD,UN,33,import,STAPLE,m,,,,,,0.193518519,-0.15462963,0,0,0,,0,8,8,133,1,
,,,,,,,,,,,,,,,,,,5e9a12283ede3b09d611fc63,2020-11-26_15h57.32.207,lexical_decision_task_MP_exp2,2020.2.5,Win32,60,z,1,0.64303,,,,,,,,0.64303,1,,,,,,451,NW,UN,16,surden,CAINKY,z,,,,,,0.193518519,-0.15462963,0,0,0,,0,9,9,450,1,
,,,,,,,,,,,,,,,,,,5e9a12283ede3b09d611fc63,2020-11-26_15h57.32.207,lexical_decision_task_MP_exp2,2020.2.5,Win32,60,m,1,0.526515,,,,,,,,0.526515,1,,,,,,153,WORD,UN,33,author,BEHOLD,m,,,,,,0.193518519,-0.15462963,0,0,0,,0,10,10,152,1,
,,,,,,,,,,,,,,,,,,5e9a12283ede3b09d611fc63,2020-11-26_15h57.32.207,lexical_decision_task_MP_exp2,2020.2.5,Win32,60,z,1,0.719945,,,,,,,,0.719945,1,,,,,,429,NW,UN,16,caroey,FUNTLE,z,,,,,,0.193518519,-0.15462963,0,0,0,,0,11,11,428,1,
,,,,,,,,,,,,,,,,,,5e9a12283ede3b09d611fc63,2020-11-26_15h57.32.207,lexical_decision_task_MP_exp2,2020.2.5,Win32,60,m,1,0.742765,,,,,,,,0.742765,1,,,,,,124,WORD,UN,33,nickel,BLOUSE,m,,,,,,0.193518519,-0.15462963,0,0,0,,0,12,12,123,1,
,,,,,,,,,,,,,,,,,,5e9a12283ede3b09d611fc63,2020-11-26_15h57.32.207,lexical_decision_task_MP_exp2,2020.2.5,Win32,60,z,1,0.68251,,,,,,,,0.68251,1,,,,,,382,NW,UN,33,aungre,SARLEY,z,,,,,,0.193518519,-0.15462963,0,0,0,,0,13,13,381,1,
,,,,,,,,,,,,,,,,,,5e9a12283ede3b09d611fc63,2020-11-26_15h57.32.207,lexical_decision_task_MP_exp2,2020.2.5,Win32,60,m,1,0.54187,,,,,,,,0.54187,1,,,,,,218,WORD,UN,16,bucket,SHRINK,m,,,,,,0.193518519,-0.15462963,0,0,0,,0,14,14,217,1,
,,,,,,,,,,,,,,,,,,5e9a12283ede3b09d611fc63,2020-11-26_15h57.32.207,lexical_decision_task_MP_exp2,2020.2.5,Win32,60,m,0,0.822995,,,,,,,,0.822995,0,,,,,,268,NW,"ID",33,packes,PACKES,z,,,,,,0.193518519,-0.15462963,0,0,0,,0,15,15,267,1,
,,,,,,,,,,,,,,,,,,5e9a12283ede3b09d611fc63,2020-11-26_15h57.32.207,lexical_decision_task_MP_exp2,2020.2.5,Win32,60,m,1,0.58269,,,,,,,,0.58269,1,,,,,,71,WORD,"ID",16,garden,GARDEN,m,,,,,,0.193518519,-0.15462963,0,0,0,,0,16,16,70,1,
,,,,,,,,,,,,,,,,,,5e9a12283ede3b09d611fc63,2020-11-26_15h57.32.207,lexical_decision_task_MP_exp2,2020.2.5,Win32,60,m,1,0.594225,,,,,,,,0.594225,1,,,,,,26,WORD,"ID",33,sprint,SPRINT,m,,,,,,0.193518519,-0.15462963,0,0,0,,0,17,17,25,1,
,,,,,,,,,,,,,,,,,,5e9a12283ede3b09d611fc63,2020-11-26_15h57.32.207,lexical_decision_task_MP_exp2,2020.2.5,Win32,60,m,1,0.958675,,,,,,,,0.958675,1,,,,,,78,WORD,"ID",16,column,COLUMN,m,,,,,,0.193518519,-0.15462963,0,0,0,,0,18,18,77,1,
,,,,,,,,,,,,,,,,,,5e9a12283ede3b09d611fc63,2020-11-26_15h57.32.207,lexical_decision_task_MP_exp2,2020.2.5,Win32,60,m,1,0.652875,,,,,,,,0.652875,1,,,,,,36,WORD,"ID",33,vanish,VANISH,m,,,,,,0.193518519,-0.15462963,0,0,0,,0,19,19,35,1,
,,,,,,,,,,,,,,,,,,5e9a12283ede3b09d611fc63,2020-11-26_15h57.32.207,lexical_decision_task_MP_exp2,2020.2.5,Win32,60,m,1,0.6261,,,,,,,,0.6261,1,,,,,,237,WORD,UN,16,seldom,POSTER,m,,,,,,0.193518519,-0.15462963,0,0,0,,0,20,20,236,1,
,,,,,,,,,,,,,,,,,,5e9a12283ede3b09d611fc63,2020-11-26_15h57.32.207,lexical_decision_task_MP_exp2,2020.2.5,Win32,60,z,1,0.771565,,,,,,,,0.771565,1,,,,,,294,NW,"ID",33,inhort,INHORT,z,,,,,,0.193518519,-0.15462963,0,0,0,,0,21,21,293,1,
,,,,,,,,,,,,,,,,,,5e9a12283ede3b09d611fc63,2020-11-26_15h57.32.207,lexical_decision_task_MP_exp2,2020.2.5,Win32,60,m,1,0.56508,,,,,,,,0.56508,1,,,,,,197,WORD,UN,16,wicked,STREAM,m,,,,,,0.193518519,-0.15462963,0,0,0,,0,22,22,196,1,
,,,,,,,,,,,,,,,,,,5e9a12283ede3b09d611fc63,2020-11-26_15h57.32.207,lexical_decision_task_MP_exp2,2020.2.5,Win32,60,m,1,0.63434,,,,,,,,0.63434,1,,,,,,117,WORD,"ID",16,branch,BRANCH,m,,,,,,0.193518519,-0.15462963,0,0,0,,0,23,23,116,1,
,,,,,,,,,,,,,,,,,,5e9a12283ede3b09d611fc63,2020-11-26_15h57.32.207,lexical_decision_task_MP_exp2,2020.2.5,Win32,60,z,1,0.57731,,,,,,,,0.57731,1,,,,,,256,NW,"ID",33,inlors,INLORS,z,,,,,,0.193518519,-0.15462963,0,0,0,,0,24,24,255,1,
,,,,,,,,,,,,,,,,,,5e9a12283ede3b09d611fc63,2020-11-26_15h57.32.207,lexical_decision_task_MP_exp2,2020.2.5,Win32,60,z,1,0.667065,,,,,,,,0.667065,1,,,,,,250,NW,"ID",33,milted,MILTED,z,,,,,,0.193518519,-0.15462963,0,0,0,,0,25,25,249,1,
,,,,,,,,,,,,,,,,,,5e9a12283ede3b09d611fc63,2020-11-26_15h57.32.207,lexical_decision_task_MP_exp2,2020.2.5,Win32,60,z,1,0.56718,,,,,,,,0.56718,1,,,,,,394,NW,UN,33,colury,SPAQUX,z,,,,,,0.193518519,-0.15462963,0,0,0,,0,26,26,393,1,
,,,,,,,,,,,,,,,,,,5e9a12283ede3b09d611fc63,2020-11-26_15h57.32.207,lexical_decision_task_MP_exp2,2020.2.5,Win32,60,m,1,0.60206,,,,,,,,0.60206,1,,,,,,5,WORD,"ID",33,plunge,PLUNGE,m,,,,,,0.193518519,-0.15462963,0,0,0,,0,27,27,4,1,
,,,,,,,,,,,,,,,,,,5e9a12283ede3b09d611fc63,2020-11-26_15h57.32.207,lexical_decision_task_MP_exp2,2020.2.5,Win32,60,m,1,0.569915,,,,,,,,0.569915,1,,,,,,104,WORD,"ID",16,studio,STUDIO,m,,,,,,0.193518519,-0.15462963,0,0,0,,0,28,28,103,1,
,,,,,,,,,,,,,,,,,,5e9a12283ede3b09d611fc63,2020-11-26_15h57.32.207,lexical_decision_task_MP_exp2,2020.2.5,Win32,60,z,1,0.619815,,,,,,,,0.619815,1,,,,,,328,NW,"ID",16,broake,BROAKE,z,,,,,,0.193518519,-0.15462963,0,0,0,,0,29,29,327,1,
,,,,,,,,,,,,,,,,,,5e9a12283ede3b09d611fc63,2020-11-26_15h57.32.207,lexical_decision_task_MP_exp2,2020.2.5,Win32,60,z,1,0.74072,,,,,,,,0.74072,1,,,,,,338,NW,"ID",16,wreash,WREASH,z,,,,,,0.193518519,-0.15462963,0,0,0,,0,30,30,337,1,
,,,,,,,,,,,,,,,,,,5e9a12283ede3b09d611fc63,2020-11-26_15h57.32.207,lexical_decision_task_MP_exp2,2020.2.5,Win32,60,m,0,0.70629,,,,,,,,0.70629,0,,,,,,352,NW,"ID",16,tringe,TRINGE,z,,,,,,0.193518519,-0.15462963,0,0,0,,0,31,31,351,1,
,,,,,,,,,,,,,,,,,,5e9a12283ede3b09d611fc63,2020-11-26_15h57.32.207,lexical_decision_task_MP_exp2,2020.2.5,Win32,60,z,1,0.590555,,,,,,,,0.590555,1,,,,,,278,NW,"ID",33,unighs,UNIGHS,z,,,,,,0.193518519,-0.15462963,0,0,0,,0,32,32,277,1,
,,,,,,,,,,,,,,,,,,5e9a12283ede3b09d611fc63,2020-11-26_15h57.32.207,lexical_decision_task_MP_exp2,2020.2.5,Win32,60,m,1,0.754135,,,,,,,,0.754135,1,,,,,,45,WORD,"ID",33,clergy,CLERGY,m,,,,,,0.193518519,-0.15462963,0,0,0,,0,33,33,44,1,
,,,,,,,,,,,,,,,,,,5e9a12283ede3b09d611fc63,2020-11-26_15h57.32.207,lexical_decision_task_MP_exp2,2020.2.5,Win32,60,m,1,0.54001,,,,,,,,0.54001,1,,,,,,28,WORD,"ID",33,comedy,COMEDY,m,,,,,,0.193518519,-0.15462963,0,0,0,,0,34,34,27,1,
,,,,,,,,,,,,,,,,,,5e9a12283ede3b09d611fc63,2020-11-26_15h57.32.207,lexical_decision_task_MP_exp2,2020.2.5,Win32,60,m,1,0.63218,,,,,,,,0.63218,1,,,,,,24,WORD,"ID",33,praise,PRAISE,m,,,,,,0.193518519,-0.15462963,0,0,0,,0,35,35,23,1,
,,,,,,,,,,,,,,,,,,5e9a12283ede3b09d611fc63,2020-11-26_15h57.32.207,lexical_decision_task_MP_exp2,2020.2.5,Win32,60,m,1,0.58086,,,,,,,,0.58086,1,,,,,,102,WORD,"ID",16,direct,DIRECT,m,,,,,,0.193518519,-0.15462963,0,0,0,,0,36,36,101,1,
,,,,,,,,,,,,,,,,,,5e9a12283ede3b09d611fc63,2020-11-26_15h57.32.207,lexical_decision_task_MP_exp2,2020.2.5,Win32,60,z,1,0.671515,,,,,,,,0.671515,1,,,,,,396,NW,UN,33,camble,FLENGY,z,,,,,,0.193518519,-0.15462963,0,0,0,,0,37,37,395,1,
,,,,,,,,,,,,,,,,,,5e9a12283ede3b09d611fc63,2020-11-26_15h57.32.207,lexical_decision_task_MP_exp2,2020.2.5,Win32,60,z,1,0.53813,,,,,,,,0.53813,1,,,,,,427,NW,UN,16,tandly,SCHIND,z,,,,,,0.193518519,-0.15462963,0,0,0,,0,38,38,426,1,
,,,,,,,,,,,,,,,,,,5e9a12283ede3b09d611fc63,2020-11-26_15h57.32.207,lexical_decision_task_MP_exp2,2020.2.5,Win32,60,z,1,0.59869,,,,,,,,0.59869,1,,,,,,397,NW,UN,33,blunde,CAMBLE,z,,,,,,0.193518519,-0.15462963,0,0,0,,0,39,39,396,1,
,,,,,,,,,,,,,,,,,,5e9a12283ede3b09d611fc63,2020-11-26_15h57.32.207,lexical_decision_task_MP_exp2,2020.2.5,Win32,60,m,1,0.605915,,,,,,,,0.605915,1,,,,,,137,WORD,UN,33,melody,FINGER,m,,,,,,0.193518519,-0.15462963,0,0,0,,0,40,40,136,1,
,,,,,,,,,,,,,,,,,,5e9a12283ede3b09d611fc63,2020-11-26_15h57.32.207,lexical_decision_task_MP_exp2,2020.2.5,Win32,60,m,1,0.686765,,,,,,,,0.686765,1,,,,,,32,WORD,"ID",33,buckle,BUCKLE,m,,,,,,0.193518519,-0.15462963,0,0,0,,0,41,41,31,1,
,,,,,,,,,,,,,,,,,,5e9a12283ede3b09d611fc63,2020-11-26_15h57.32.207,lexical_decision_task_MP_exp2,2020.2.5,Win32,60,z,1,0.860635,,,,,,,,0.860635,1,,,,,,438,NW,UN,16,limpor,BAITCH,z,,,,,,0.193518519,-0.15462963,0,0,0,,0,42,42,437,1,
,,,,,,,,,,,,,,,,,,5e9a12283ede3b09d611fc63,2020-11-26_15h57.32.207,lexical_decision_task_MP_exp2,2020.2.5,Win32,60,m,1,0.51927,,,,,,,,0.51927,1,,,,,,44,WORD,"ID",33,danger,DANGER,m,,,,,,0.193518519,-0.15462963,0,0,0,,0,43,43,43,1,
,,,,,,,,,,,,,,,,,,5e9a12283ede3b09d611fc63,2020-11-26_15h57.32.207,lexical_decision_task_MP_exp2,2020.2.5,Win32,60,z,1,0.640595,,,,,,,,0.640595,1,,,,,,324,NW,"ID",16,steikh,STEIKH,z,,,,,,0.193518519,-0.15462963,0,0,0,,0,44,44,323,1,
,,,,,,,,,,,,,,,,,,5e9a12283ede3b09d611fc63,2020-11-26_15h57.32.207,lexical_decision_task_MP_exp2,2020.2.5,Win32,60,m,1,0.70802,,,,,,,,0.70802,1,,,,,,204,WORD,UN,16,lounge,BURDEN,m,,,,,,0.193518519,-0.15462963,0,0,0,,0,45,45,203,1,
,,,,,,,,,,,,,,,,,,5e9a12283ede3b09d611fc63,2020-11-26_15h57.32.207,lexical_decision_task_MP_exp2,2020.2.5,Win32,60,m,1,0.569415,,,,,,,,0.569415,1,,,,,,72,WORD,"ID",16,bright,BRIGHT,m,,,,,,0.193518519,-0.15462963,0,0,0,,0,46,46,71,1,
,,,,,,,,,,,,,,,,,,5e9a12283ede3b09d611fc63,2020-11-26_15h57.32.207,lexical_decision_task_MP_exp2,2020.2.5,Win32,60,m,1,0.597975,,,,,,,,0.597975,1,,,,,,121,WORD,UN,33,linger,THRIVE,m,,,,,,0.193518519,-0.15462963,0,0,0,,0,47,47,120,1,
,,,,,,,,,,,,,,,,,,5e9a12283ede3b09d611fc63,2020-11-26_15h57.32.207,lexical_decision_task_MP_exp2,2020.2.5,Win32,60,z,1,0.552025,,,,,,,,0.552025,1,,,,,,346,NW,"ID",16,saudic,SAUDIC,z,,,,,,0.193518519,-0.15462963,0,0,0,,0,48,48,345,1,
,,,,,,,,,,,,,,,,,,5e9a12283ede3b09d611fc63,2020-11-26_15h57.32.207,lexical_decision_task_MP_exp2,2020.2.5,Win32,60,m,1,0.550425,,,,,,,,0.550425,1,,,,,,127,WORD,UN,33,senior,CASTLE,m,,,,,,0.193518519,-0.15462963,0,0,0,,0,49,49,126,1,
,,,,,,,,,,,,,,,,,,5e9a12283ede3b09d611fc63,2020-11-26_15h57.32.207,lexical_decision_task_MP_exp2,2020.2.5,Win32,60,z,1,0.557545,,,,,,,,0.557545,1,,,,,,245,NW,"ID",33,anougs,ANOUGS,z,,,,,,0.193518519,-0.15462963,0,0,0,,0,50,50,244,1,
,,,,,,,,,,,,,,,,,,5e9a12283ede3b09d611fc63,2020-11-26_15h57.32.207,lexical_decision_task_MP_exp2,2020.2.5,Win32,60,z,1,0.59371,,,,,,,,0.59371,1,,,,,,322,NW,"ID",16,slanch,SLANCH,z,,,,,,0.193518519,-0.15462963,0,0,0,,0,51,51,321,1,
,,,,,,,,,,,,,,,,,,5e9a12283ede3b09d611fc63,2020-11-26_15h57.32.207,lexical_decision_task_MP_exp2,2020.2.5,Win32,60,z,1,0.60156,,,,,,,,0.60156,1,,,,,,400,NW,UN,33,mustil,WEAROX,z,,,,,,0.193518519,-0.15462963,0,0,0,,0,52,52,399,1,
,,,,,,,,,,,,,,,,,,5e9a12283ede3b09d611fc63,2020-11-26_15h57.32.207,lexical_decision_task_MP_exp2,2020.2.5,Win32,60,m,1,0.6048,,,,,,,,0.6048,1,,,,,,82,WORD,"ID",16,stigma,STIGMA,m,,,,,,0.193518519,-0.15462963,0,0,0,,0,53,53,81,1,
,,,,,,,,,,,,,,,,,,5e9a12283ede3b09d611fc63,2020-11-26_15h57.32.207,lexical_decision_task_MP_exp2,2020.2.5,Win32,60,z,1,0.62489,,,,,,,,0.62489,1,,,,,,407,NW,UN,33,hurnia,SUIVER,z,,,,,,0.193518519,-0.15462963,0,0,0,,0,54,54,406,1,
,,,,,,,,,,,,,,,,,,5e9a12283ede3b09d611fc63,2020-11-26_15h57.32.207,lexical_decision_task_MP_exp2,2020.2.5,Win32,60,z,1,0.533745,,,,,,,,0.533745,1,,,,,,244,NW,"ID",33,eatric,EATRIC,z,,,,,,0.193518519,-0.15462963,0,0,0,,0,55,55,243,1,
,,,,,,,,,,,,,,,,,,5e9a12283ede3b09d611fc63,2020-11-26_15h57.32.207,lexical_decision_task_MP_exp2,2020.2.5,Win32,60,z,1,0.569125,,,,,,,,0.569125,1,,,,,,277,NW,"ID",33,petain,PETAIN,z,,,,,,0.193518519,-0.15462963,0,0,0,,0,56,56,276,1,
,,,,,,,,,,,,,,,,,,5e9a12283ede3b09d611fc63,2020-11-26_15h57.32.207,lexical_decision_task_MP_exp2,2020.2.5,Win32,60,m,1,0.607405,,,,,,,,0.607405,1,,,,,,180,WORD,UN,33,thrive,SILENT,m,,,,,,0.193518519,-0.15462963,0,0,0,,0,57,57,179,1,
,,,,,,,,,,,,,,,,,,5e9a12283ede3b09d611fc63,2020-11-26_15h57.32.207,lexical_decision_task_MP_exp2,2020.2.5,Win32,60,m,0,0.5431,,,,,,,,0.5431,0,,,,,,402,NW,UN,33,bruats,SYNTIC,z,,,,,,0.193518519,-0.15462963,0,0,0,,0,58,58,401,1,
,,,,,,,,,,,,,,,,,,5e9a12283ede3b09d611fc63,2020-11-26_15h57.32.207,lexical_decision_task_MP_exp2,2020.2.5,Win32,60,m,1,0.537025,,,,,,,,0.537025,1,,,,,,168,WORD,UN,33,genius,ANSWER,m,,,,,,0.193518519,-0.15462963,0,0,0,,0,59,59,167,1,
,,,,,,,,,,,,,,,,,,5e9a12283ede3b09d611fc63,2020-11-26_15h57.32.207,lexical_decision_task_MP_exp2,2020.2.5,Win32,60,m,1,0.76447,,,,,,,,0.76447,1,,,,,,207,WORD,UN,16,hockey,WREATH,m,,,,,,0.193518519,-0.15462963,0,0,0,,0,60,60,206,1,
,,,,,,,,,,,,,,,,,,5e9a12283ede3b09d611fc63,2020-11-26_15h57.32.207,lexical_decision_task_MP_exp2,2020.2.5,Win32,60,z,1,0.66508,,,,,,,,0.66508,1,,,,,,363,NW,UN,33,impote,BREALI,z,,,,,,0.193518519,-0.15462963,0,0,0,,0,61,61,362,1,
,,,,,,,,,,,,,,,,,,5e9a12283ede3b09d611fc63,2020-11-26_15h57.32.207,lexical_decision_task_MP_exp2,2020.2.5,Win32,60,z,1,0.73436,,,,,,,,0.73436,1,,,,,,360,NW,"ID",16,desory,DESORY,z,,,,,,0.193518519,-0.15462963,0,0,0,,0,62,62,359,1,
,,,,,,,,,,,,,,,,,,5e9a12283ede3b09d611fc63,2020-11-26_15h57.32.207,lexical_decision_task_MP_exp2,2020.2.5,Win32,60,z,1,0.499985,,,,,,,,0.499985,1,,,,,,323,NW,"ID",16,rosail,ROSAIL,z,,,,,,0.193518519,-0.15462963,0,0,0,,0,63,63,322,1,
,,,,,,,,,,,,,,,,,,5e9a12283ede3b09d611fc63,2020-11-26_15h57.32.207,lexical_decision_task_MP_exp2,2020.2.5,Win32,60,z,1,0.649085,,,,,,,,0.649085,1,,,,,,341,NW,"ID",16,myrtie,MYRTIE,z,,,,,,0.193518519,-0.15462963,0,0,0,,0,64,64,340,1,
,,,,,,,,,,,,,,,,,,5e9a12283ede3b09d611fc63,2020-11-26_15h57.32.207,lexical_decision_task_MP_exp2,2020.2.5,Win32,60,m,1,0.534425,,,,,,,,0.534425,1,,,,,,38,WORD,"ID",33,powder,POWDER,m,,,,,,0.193518519,-0.15462963,0,0,0,,0,65,65,37,1,
,,,,,,,,,,,,,,,,,,5e9a12283ede3b09d611fc63,2020-11-26_15h57.32.207,lexical_decision_task_MP_exp2,2020.2.5,Win32,60,z,1,0.5427,,,,,,,,0.5427,1,,,,,,269,NW,"ID",33,orchet,ORCHET,z,,,,,,0.193518519,-0.15462963,0,0,0,,0,66,66,268,1,
,,,,,,,,,,,,,,,,,,5e9a12283ede3b09d611fc63,2020-11-26_15h57.32.207,lexical_decision_task_MP_exp2,2020.2.5,Win32,60,z,1,0.585245,,,,,,,,0.585245,1,,,,,,466,NW,UN,16,pebric,HOCITE,z,,,,,,0.193518519,-0.15462963,0,0,0,,0,67,67,465,1,
,,,,,,,,,,,,,,,,,,5e9a12283ede3b09d611fc63,2020-11-26_15h57.32.207,lexical_decision_task_MP_exp2,2020.2.5,Win32,60,m,1,0.625395,,,,,,,,0.625395,1,,,,,,19,WORD,"ID",33,patron,PATRON,m,,,,,,0.193518519,-0.15462963,0,0,0,,0,68,68,18,1,
,,,,,,,,,,,,,,,,,,5e9a12283ede3b09d611fc63,2020-11-26_15h57.32.207,lexical_decision_task_MP_exp2,2020.2.5,Win32,60,m,0,0.739675,,,,,,,,0.739675,0,,,,,,452,NW,UN,16,bolvis,SURDEN,z,,,,,,0.193518519,-0.15462963,0,0,0,,0,69,69,451,1,
,,,,,,,,,,,,,,,,,,5e9a12283ede3b09d611fc63,2020-11-26_15h57.32.207,lexical_decision_task_MP_exp2,2020.2.5,Win32,60,m,1,0.55434,,,,,,,,0.55434,1,,,,,,91,WORD,"ID",16,expand,EXPAND,m,,,,,,0.193518519,-0.15462963,0,0,0,,0,70,70,90,1,
,,,,,,,,,,,,,,,,,,5e9a12283ede3b09d611fc63,2020-11-26_15h57.32.207,lexical_decision_task_MP_exp2,2020.2.5,Win32,60,z,1,0.635895,,,,,,,,0.635895,1,,,,,,435,NW,UN,16,frutan,IMPURB,z,,,,,,0.193518519,-0.15462963,0,0,0,,0,71,71,434,1,
,,,,,,,,,,,,,,,,,,5e9a12283ede3b09d611fc63,2020-11-26_15h57.32.207,lexical_decision_task_MP_exp2,2020.2.5,Win32,60,m,1,0.58396,,,,,,,,0.58396,1,,,,,,55,WORD,"ID",33,stroke,STROKE,m,,,,,,0.193518519,-0.15462963,0,0,0,,0,72,72,54,1,
,,,,,,,,,,,,,,,,,,5e9a12283ede3b09d611fc63,2020-11-26_15h57.32.207,lexical_decision_task_MP_exp2,2020.2.5,Win32,60,m,1,0.55774,,,,,,,,0.55774,1,,,,,,110,WORD,"ID",16,polite,POLITE,m,,,,,,0.193518519,-0.15462963,0,0,0,,0,73,73,109,1,
,,,,,,,,,,,,,,,,,,5e9a12283ede3b09d611fc63,2020-11-26_15h57.32.207,lexical_decision_task_MP_exp2,2020.2.5,Win32,60,z,1,0.56851,,,,,,,,0.56851,1,,,,,,317,NW,"ID",16,worbal,WORBAL,z,,,,,,0.193518519,-0.15462963,0,0,0,,0,74,74,316,1,
,,,,,,,,,,,,,,,,,,5e9a12283ede3b09d611fc63,2020-11-26_15h57.32.207,lexical_decision_task_MP_exp2,2020.2.5,Win32,60,z,1,0.603475,,,,,,,,0.603475,1,,,,,,304,NW,"ID",16,cludie,CLUDIE,z,,,,,,0.193518519,-0.15462963,0,0,0,,0,75,75,303,1,
,,,,,,,,,,,,,,,,,,5e9a12283ede3b09d611fc63,2020-11-26_15h57.32.207,lexical_decision_task_MP_exp2,2020.2.5,Win32,60,z,1,0.533475,,,,,,,,0.533475,1,,,,,,410,NW,UN,33,orchin,TUNORY,z,,,,,,0.193518519,-0.15462963,0,0,0,,0,76,76,409,1,
,,,,,,,,,,,,,,,,,,5e9a12283ede3b09d611fc63,2020-11-26_15h57.32.207,lexical_decision_task_MP_exp2,2020.2.5,Win32,60,m,1,0.560585,,,,,,,,0.560585,1,,,,,,229,WORD,UN,16,fringe,MOTHER,m,,,,,,0.193518519,-0.15462963,0,0,0,,0,77,77,228,1,
,,,,,,,,,,,,,,,,,,5e9a12283ede3b09d611fc63,2020-11-26_15h57.32.207,lexical_decision_task_MP_exp2,2020.2.5,Win32,60,z,1,0.619305,,,,,,,,0.619305,1,,,,,,309,NW,"ID",16,amiloy,AMILOY,z,,,,,,0.193518519,-0.15462963,0,0,0,,0,78,78,308,1,
,,,,,,,,,,,,,,,,,,5e9a12283ede3b09d611fc63,2020-11-26_15h57.32.207,lexical_decision_task_MP_exp2,2020.2.5,Win32,60,m,1,0.802415,,,,,,,,0.802415,1,,,,,,182,WORD,UN,16,basket,WINTER,m,,,,,,0.193518519,-0.15462963,0,0,0,,0,79,79,181,1,
,,,,,,,,,,,,,,,,,,5e9a12283ede3b09d611fc63,2020-11-26_15h57.32.207,lexical_decision_task_MP_exp2,2020.2.5,Win32,60,m,1,0.56072,,,,,,,,0.56072,1,,,,,,190,WORD,UN,16,stable,BACKUP,m,,,,,,0.193518519,-0.15462963,0,0,0,,0,80,80,189,1,
,,,,,,,,,,,,,,,,,,5e9a12283ede3b09d611fc63,2020-11-26_15h57.32.207,lexical_decision_task_MP_exp2,2020.2.5,Win32,60,z,1,0.51693,,,,,,,,0.51693,1,,,,,,270,NW,"ID",33,wrimsy,WRIMSY,z,,,,,,0.193518519,-0.15462963,0,0,0,,0,81,81,269,1,
,,,,,,,,,,,,,,,,,,5e9a12283ede3b09d611fc63,2020-11-26_15h57.32.207,lexical_decision_task_MP_exp2,2020.2.5,Win32,60,z,1,0.686505,,,,,,,,0.686505,1,,,,,,336,NW,"ID",16,ghodus,GHODUS,z,,,,,,0.193518519,-0.15462963,0,0,0,,0,82,82,335,1,
,,,,,,,,,,,,,,,,,,5e9a12283ede3b09d611fc63,2020-11-26_15h57.32.207,lexical_decision_task_MP_exp2,2020.2.5,Win32,60,z,1,0.536555,,,,,,,,0.536555,1,,,,,,262,NW,"ID",33,quilew,QUILEW,z,,,,,,0.193518519,-0.15462963,0,0,0,,0,83,83,261,1,
,,,,,,,,,,,,,,,,,,5e9a12283ede3b09d611fc63,2020-11-26_15h57.32.207,lexical_decision_task_MP_exp2,2020.2.5,Win32,60,m,1,0.649595,,,,,,,,0.649595,1,,,,,,215,WORD,UN,16,behalf,PHOBIA,m,,,,,,0.193518519,-0.15462963,0,0,0,,0,84,84,214,1,
,,,,,,,,,,,,,,,,,,5e9a12283ede3b09d611fc63,2020-11-26_15h57.32.207,lexical_decision_task_MP_exp2,2020.2.5,Win32,60,z,0,0.593965,,,,,,,,0.593965,0,,,,,,16,WORD,"ID",33,faucet,FAUCET,m,,,,,,0.193518519,-0.15462963,0,0,0,,0,85,85,15,1,
,,,,,,,,,,,,,,,,,,5e9a12283ede3b09d611fc63,2020-11-26_15h57.32.207,lexical_decision_task_MP_exp2,2020.2.5,Win32,60,m,1,0.58627,,,,,,,,0.58627,1,,,,,,160,WORD,UN,33,dragon,VIOLET,m,,,,,,0.193518519,-0.15462963,0,0,0,,0,86,86,159,1,
,,,,,,,,,,,,,,,,,,5e9a12283ede3b09d611fc63,2020-11-26_15h57.32.207,lexical_decision_task_MP_exp2,2020.2.5,Win32,60,z,1,0.600135,,,,,,,,0.600135,1,,,,,,426,NW,UN,16,frudge,URIVEL,z,,,,,,0.193518519,-0.15462963,0,0,0,,0,87,87,425,1,
,,,,,,,,,,,,,,,,,,5e9a12283ede3b09d611fc63,2020-11-26_15h57.32.207,lexical_decision_task_MP_exp2,2020.2.5,Win32,60,z,1,0.703785,,,,,,,,0.703785,1,,,,,,325,NW,"ID",16,thruse,THRUSE,z,,,,,,0.193518519,-0.15462963,0,0,0,,0,88,88,324,1,
,,,,,,,,,,,,,,,,,,5e9a12283ede3b09d611fc63,2020-11-26_15h57.32.207,lexical_decision_task_MP_exp2,2020.2.5,Win32,60,z,1,0.501605,,,,,,,,0.501605,1,,,,,,308,NW,"ID",16,psetch,PSETCH,z,,,,,,0.193518519,-0.15462963,0,0,0,,0,89,89,307,1,
,,,,,,,,,,,,,,,,,,5e9a12283ede3b09d611fc63,2020-11-26_15h57.32.207,lexical_decision_task_MP_exp2,2020.2.5,Win32,60,z,0,0.56618,,,,,,,,0.56618,0,,,,,,8,WORD,"ID",33,abrupt,ABRUPT,m,,,,,,0.193518519,-0.15462963,0,0,0,,0,90,90,7,1,
,,,,,,,,,,,,,,,,,,5e9a12283ede3b09d611fc63,2020-11-26_15h57.32.207,lexical_decision_task_MP_exp2,2020.2.5,Win32,60,m,0,0.70644,,,,,,,,0.70644,0,,,,,,433,NW,UN,16,pitrom,DRANCE,z,,,,,,0.193518519,-0.15462963,0,0,0,,0,91,91,432,1,
,,,,,,,,,,,,,,,,,,5e9a12283ede3b09d611fc63,2020-11-26_15h57.32.207,lexical_decision_task_MP_exp2,2020.2.5,Win32,60,z,0,0.5754,,,,,,,,0.5754,0,,,,,,115,WORD,"ID",16,guitar,GUITAR,m,,,,,,0.193518519,-0.15462963,0,0,0,,0,92,92,114,1,
,,,,,,,,,,,,,,,,,,5e9a12283ede3b09d611fc63,2020-11-26_15h57.32.207,lexical_decision_task_MP_exp2,2020.2.5,Win32,60,m,1,0.633535,,,,,,,,0.633535,1,,,,,,172,WORD,UN,33,shower,PATROL,m,,,,,,0.193518519,-0.15462963,0,0,0,,0,93,93,171,1,
,,,,,,,,,,,,,,,,,,5e9a12283ede3b09d611fc63,2020-11-26_15h57.32.207,lexical_decision_task_MP_exp2,2020.2.5,Win32,60,z,1,0.63249,,,,,,,,0.63249,1,,,,,,279,NW,"ID",33,celond,CELOND,z,,,,,,0.193518519,-0.15462963,0,0,0,,0,94,94,278,1,
,,,,,,,,,,,,,,,,,,5e9a12283ede3b09d611fc63,2020-11-26_15h57.32.207,lexical_decision_task_MP_exp2,2020.2.5,Win32,60,z,1,0.63913,,,,,,,,0.63913,1,,,,,,467,NW,UN,16,wictor,GORBIE,z,,,,,,0.193518519,-0.15462963,0,0,0,,0,95,95,466,1,
,,,,,,,,,,,,,,,,,,5e9a12283ede3b09d611fc63,2020-11-26_15h57.32.207,lexical_decision_task_MP_exp2,2020.2.5,Win32,60,m,1,0.53126,,,,,,,,0.53126,1,,,,,,105,WORD,"ID",16,number,NUMBER,m,,,,,,0.193518519,-0.15462963,0,0,0,,0,96,96,104,1,
,,,,,,,,,,,,,,,,,,5e9a12283ede3b09d611fc63,2020-11-26_15h57.32.207,lexical_decision_task_MP_exp2,2020.2.5,Win32,60,m,1,0.524425,,,,,,,,0.524425,1,,,,,,67,WORD,"ID",16,policy,POLICY,m,,,,,,0.193518519,-0.15462963,0,0,0,,0,97,97,66,1,
,,,,,,,,,,,,,,,,,,5e9a12283ede3b09d611fc63,2020-11-26_15h57.32.207,lexical_decision_task_MP_exp2,2020.2.5,Win32,60,m,1,0.504265,,,,,,,,0.504265,1,,,,,,145,WORD,UN,33,couple,PARISH,m,,,,,,0.193518519,-0.15462963,0,0,0,,0,98,98,144,1,
,,,,,,,,,,,,,,,,,,5e9a12283ede3b09d611fc63,2020-11-26_15h57.32.207,lexical_decision_task_MP_exp2,2020.2.5,Win32,60,m,1,0.557355,,,,,,,,0.557355,1,,,,,,30,WORD,"ID",33,orient,ORIENT,m,,,,,,0.193518519,-0.15462963,0,0,0,,0,99,99,29,1,
,,,,,,,,,,,,,,,,,,5e9a12283ede3b09d611fc63,2020-11-26_15h57.32.207,lexical_decision_task_MP_exp2,2020.2.5,Win32,60,z,1,1.14745,,,,,,,,1.14745,1,,,,,,314,NW,"ID",16,sprine,SPRINE,z,,,,,,0.193518519,-0.15462963,0,0,0,,0,100,100,313,1,
,,,,,,,,,,,,,,,,,,5e9a12283ede3b09d611fc63,2020-11-26_15h57.32.207,lexical_decision_task_MP_exp2,2020.2.5,Win32,60,z,1,0.950075,,,,,,,,0.950075,1,,,,,,368,NW,UN,33,wronch,HORNAL,z,,,,,,0.193518519,-0.15462963,0,0,0,,0,101,101,367,1,
,,,,,,,,,,,,,,,,,,5e9a12283ede3b09d611fc63,2020-11-26_15h57.32.207,lexical_decision_task_MP_exp2,2020.2.5,Win32,60,z,1,0.542415,,,,,,,,0.542415,1,,,,,,470,NW,UN,16,nobest,CRUDIO,z,,,,,,0.193518519,-0.15462963,0,0,0,,0,102,102,469,1,
,,,,,,,,,,,,,,,,,,5e9a12283ede3b09d611fc63,2020-11-26_15h57.32.207,lexical_decision_task_MP_exp2,2020.2.5,Win32,60,m,1,0.66735,,,,,,,,0.66735,1,,,,,,41,WORD,"ID",33,spring,SPRING,m,,,,,,0.193518519,-0.15462963,0,0,0,,0,103,103,40,1,
,,,,,,,,,,,,,,,,,,5e9a12283ede3b09d611fc63,2020-11-26_15h57.32.207,lexical_decision_task_MP_exp2,2020.2.5,Win32,60,z,1,0.67472,,,,,,,,0.67472,1,,,,,,379,NW,UN,33,cavory,AUTING,z,,,,,,0.193518519,-0.15462963,0,0,0,,0,104,104,378,1,
,,,,,,,,,,,,,,,,,,5e9a12283ede3b09d611fc63,2020-11-26_15h57.32.207,lexical_decision_task_MP_exp2,2020.2.5,Win32,60,z,1,0.55063,,,,,,,,0.55063,1,,,,,,446,NW,UN,16,gircue,RUNAMO,z,,,,,,0.193518519,-0.15462963,0,0,0,,0,105,105,445,1,
,,,,,,,,,,,,,,,,,,5e9a12283ede3b09d611fc63,2020-11-26_15h57.32.207,lexical_decision_task_MP_exp2,2020.2.5,Win32,60,z,1,0.6337,,,,,,,,0.6337,1,,,,,,369,NW,UN,33,sleact,WRONCH,z,,,,,,0.193518519,-0.15462963,0,0,0,,0,106,106,368,1,
,,,,,,,,,,,,,,,,,,5e9a12283ede3b09d611fc63,2020-11-26_15h57.32.207,lexical_decision_task_MP_exp2,2020.2.5,Win32,60,m,1,0.590475,,,,,,,,0.590475,1,,,,,,149,WORD,UN,33,random,INVADE,m,,,,,,0.193518519,-0.15462963,0,0,0,,0,107,107,148,1,
,,,,,,,,,,,,,,,,,,5e9a12283ede3b09d611fc63,2020-11-26_15h57.32.207,lexical_decision_task_MP_exp2,2020.2.5,Win32,60,m,1,0.642375,,,,,,,,0.642375,1,,,,,,194,WORD,UN,16,resign,ABSENT,m,,,,,,0.193518519,-0.15462963,0,0,0,,0,108,108,193,1,
,,,,,,,,,,,,,,,,,,5e9a12283ede3b09d611fc63,2020-11-26_15h57.32.207,lexical_decision_task_MP_exp2,2020.2.5,Win32,60,z,1,0.742395,,,,,,,,0.742395,1,,,,,,472,NW,UN,16,crible,CIGNEY,z,,,,,,0.193518519,-0.15462963,0,0,0,,0,109,109,471,1,
,,,,,,,,,,,,,,,,,,5e9a12283ede3b09d611fc63,2020-11-26_15h57.32.207,lexical_decision_task_MP_exp2,2020.2.5,Win32,60,z,1,0.63145,,,,,,,,0.63145,1,,,,,,302,NW,"ID",16,miluer,MILUER,z,,,,,,0.193518519,-0.15462963,0,0,0,,0,110,110,301,1,
,,,,,,,,,,,,,,,,,,5e9a12283ede3b09d611fc63,2020-11-26_15h57.32.207,lexical_decision_task_MP_exp2,2020.2.5,Win32,60,m,1,0.589315,,,,,,,,0.589315,1,,,,,,99,WORD,"ID",16,fluent,FLUENT,m,,,,,,0.193518519,-0.15462963,0,0,0,,0,111,111,98,1,
,,,,,,,,,,,,,,,,,,5e9a12283ede3b09d611fc63,2020-11-26_15h57.32.207,lexical_decision_task_MP_exp2,2020.2.5,Win32,60,z,1,0.626005,,,,,,,,0.626005,1,,,,,,337,NW,"ID",16,rejols,REJOLS,z,,,,,,0.193518519,-0.15462963,0,0,0,,0,112,112,336,1,
,,,,,,,,,,,,,,,,,,5e9a12283ede3b09d611fc63,2020-11-26_15h57.32.207,lexical_decision_task_MP_exp2,2020.2.5,Win32,60,z,1,0.531455,,,,,,,,0.531455,1,,,,,,384,NW,UN,33,veigma,GUESCO,z,,,,,,0.193518519,-0.15462963,0,0,0,,0,113,113,383,1,
,,,,,,,,,,,,,,,,,,5e9a12283ede3b09d611fc63,2020-11-26_15h57.32.207,lexical_decision_task_MP_exp2,2020.2.5,Win32,60,z,1,0.6353,,,,,,,,0.6353,1,,,,,,436,NW,UN,16,snapel,FRUTAN,z,,,,,,0.193518519,-0.15462963,0,0,0,,0,114,114,435,1,
,,,,,,,,,,,,,,,,,,5e9a12283ede3b09d611fc63,2020-11-26_15h57.32.207,lexical_decision_task_MP_exp2,2020.2.5,Win32,60,z,1,0.633455,,,,,,,,0.633455,1,,,,,,289,NW,"ID",33,starby,STARBY,z,,,,,,0.193518519,-0.15462963,0,0,0,,0,115,115,288,1,
,,,,,,,,,,,,,,,,,,5e9a12283ede3b09d611fc63,2020-11-26_15h57.32.207,lexical_decision_task_MP_exp2,2020.2.5,Win32,60,z,1,0.70044,,,,,,,,0.70044,1,,,,,,374,NW,UN,33,yorque,SLIANT,z,,,,,,0.193518519,-0.15462963,0,0,0,,0,116,116,373,1,
,,,,,,,,,,,,,,,,,,5e9a12283ede3b09d611fc63,2020-11-26_15h57.32.207,lexical_decision_task_MP_exp2,2020.2.5,Win32,60,z,0,0.690825,,,,,,,,0.690825,0,,,,,,144,WORD,UN,33,parish,SPONGE,m,,,,,,0.193518519,-0.15462963,0,0,0,,0,117,117,143,1,
,,,,,,,,,,,,,,,,,,5e9a12283ede3b09d611fc63,2020-11-26_15h57.32.207,lexical_decision_task_MP_exp2,2020.2.5,Win32,60,m,1,0.53313,,,,,,,,0.53313,1,,,,,,223,WORD,UN,16,period,KIDNEY,m,,,,,,0.193518519,-0.15462963,0,0,0,,0,118,118,222,1,
,,,,,,,,,,,,,,,,,,5e9a12283ede3b09d611fc63,2020-11-26_15h57.32.207,lexical_decision_task_MP_exp2,2020.2.5,Win32,60,m,0,0.540555,,,,,,,,0.540555,0,,,,,,320,NW,"ID",16,jockal,JOCKAL,z,,,,,,0.193518519,-0.15462963,0,0,0,,0,119,119,319,1,
,,,,,,,,,,,,,,,,,,5e9a12283ede3b09d611fc63,2020-11-26_15h57.32.207,lexical_decision_task_MP_exp2,2020.2.5,Win32,60,z,1,0.574945,,,,,,,,0.574945,1,,,,,,371,NW,UN,33,ramily,GEILOY,z,,,,,,0.193518519,-0.15462963,0,0,0,space,0,120,120,370,1,7.14624
,,,,,,,,,,,,,,,,,,5e9a12283ede3b09d611fc63,2020-11-26_15h57.32.207,lexical_decision_task_MP_exp2,2020.2.5,Win32,60,z,1,0.57851,,,,,,,,0.57851,1,,,,,,391,NW,UN,33,rouncy,THELDY,z,,,,,,0.193518519,-0.15462963,0,0,0,,0,121,121,390,1,
,,,,,,,,,,,,,,,,,,5e9a12283ede3b09d611fc63,2020-11-26_15h57.32.207,lexical_decision_task_MP_exp2,2020.2.5,Win32,60,m,1,0.54255,,,,,,,,0.54255,1,,,,,,147,WORD,UN,33,custom,GARLIC,m,,,,,,0.193518519,-0.15462963,0,0,0,,0,122,122,146,1,
,,,,,,,,,,,,,,,,,,5e9a12283ede3b09d611fc63,2020-11-26_15h57.32.207,lexical_decision_task_MP_exp2,2020.2.5,Win32,60,z,1,0.507895,,,,,,,,0.507895,1,,,,,,264,NW,"ID",33,vackel,VACKEL,z,,,,,,0.193518519,-0.15462963,0,0,0,,0,123,123,263,1,
,,,,,,,,,,,,,,,,,,5e9a12283ede3b09d611fc63,2020-11-26_15h57.32.207,lexical_decision_task_MP_exp2,2020.2.5,Win32,60,m,1,0.58358,,,,,,,,0.58358,1,,,,,,42,WORD,"ID",33,chapel,CHAPEL,m,,,,,,0.193518519,-0.15462963,0,0,0,,0,124,124,41,1,
,,,,,,,,,,,,,,,,,,5e9a12283ede3b09d611fc63,2020-11-26_15h57.32.207,lexical_decision_task_MP_exp2,2020.2.5,Win32,60,m,1,0.53887,,,,,,,,0.53887,1,,,,,,62,WORD,"ID",16,region,REGION,m,,,,,,0.193518519,-0.15462963,0,0,0,,0,125,125,61,1,
,,,,,,,,,,,,,,,,,,5e9a12283ede3b09d611fc63,2020-11-26_15h57.32.207,lexical_decision_task_MP_exp2,2020.2.5,Win32,60,z,1,0.50125,,,,,,,,0.50125,1,,,,,,358,NW,"ID",16,fleack,FLEACK,z,,,,,,0.193518519,-0.15462963,0,0,0,,0,126,126,357,1,
,,,,,,,,,,,,,,,,,,5e9a12283ede3b09d611fc63,2020-11-26_15h57.32.207,lexical_decision_task_MP_exp2,2020.2.5,Win32,60,m,1,0.57035,,,,,,,,0.57035,1,,,,,,132,WORD,UN,33,bleach,STRONG,m,,,,,,0.193518519,-0.15462963,0,0,0,,0,127,127,131,1,
,,,,,,,,,,,,,,,,,,5e9a12283ede3b09d611fc63,2020-11-26_15h57.32.207,lexical_decision_task_MP_exp2,2020.2.5,Win32,60,z,0,0.521085,,,,,,,,0.521085,0,,,,,,151,WORD,UN,33,rocket,MYSTIC,m,,,,,,0.193518519,-0.15462963,0,0,0,,0,128,128,150,1,
,,,,,,,,,,,,,,,,,,5e9a12283ede3b09d611fc63,2020-11-26_15h57.32.207,lexical_decision_task_MP_exp2,2020.2.5,Win32,60,m,1,0.458465,,,,,,,,0.458465,1,,,,,,61,WORD,"ID",16,ponder,PONDER,m,,,,,,0.193518519,-0.15462963,0,0,0,,0,129,129,60,1,
,,,,,,,,,,,,,,,,,,5e9a12283ede3b09d611fc63,2020-11-26_15h57.32.207,lexical_decision_task_MP_exp2,2020.2.5,Win32,60,z,1,0.69431,,,,,,,,0.69431,1,,,,,,297,NW,"ID",33,fertic,FERTIC,z,,,,,,0.193518519,-0.15462963,0,0,0,,0,130,130,296,1,
,,,,,,,,,,,,,,,,,,5e9a12283ede3b09d611fc63,2020-11-26_15h57.32.207,lexical_decision_task_MP_exp2,2020.2.5,Win32,60,m,1,0.81599,,,,,,,,0.81599,1,,,,,,166,WORD,UN,33,design,STARCH,m,,,,,,0.193518519,-0.15462963,0,0,0,,0,131,131,165,1,
,,,,,,,,,,,,,,,,,,5e9a12283ede3b09d611fc63,2020-11-26_15h57.32.207,lexical_decision_task_MP_exp2,2020.2.5,Win32,60,m,1,0.586625,,,,,,,,0.586625,1,,,,,,211,WORD,UN,16,verify,INFECT,m,,,,,,0.193518519,-0.15462963,0,0,0,,0,132,132,210,1,
,,,,,,,,,,,,,,,,,,5e9a12283ede3b09d611fc63,2020-11-26_15h57.32.207,lexical_decision_task_MP_exp2,2020.2.5,Win32,60,z,1,0.567425,,,,,,,,0.567425,1,,,,,,408,NW,UN,33,flumni,HURNIA,z,,,,,,0.193518519,-0.15462963,0,0,0,,0,133,133,407,1,
,,,,,,,,,,,,,,,,,,5e9a12283ede3b09d611fc63,2020-11-26_15h57.32.207,lexical_decision_task_MP_exp2,2020.2.5,Win32,60,m,1,0.59876,,,,,,,,0.59876,1,,,,,,33,WORD,"ID",33,butler,BUTLER,m,,,,,,0.193518519,-0.15462963,0,0,0,,0,134,134,32,1,
,,,,,,,,,,,,,,,,,,5e9a12283ede3b09d611fc63,2020-11-26_15h57.32.207,lexical_decision_task_MP_exp2,2020.2.5,Win32,60,z,1,0.49955,,,,,,,,0.49955,1,,,,,,455,NW,UN,16,broget,TONDLE,z,,,,,,0.193518519,-0.15462963,0,0,0,,0,135,135,454,1,
,,,,,,,,,,,,,,,,,,5e9a12283ede3b09d611fc63,2020-11-26_15h57.32.207,lexical_decision_task_MP_exp2,2020.2.5,Win32,60,z,1,0.683475,,,,,,,,0.683475,1,,,,,,378,NW,UN,33,auting,SHRILE,z,,,,,,0.193518519,-0.15462963,0,0,0,,0,136,136,377,1,
,,,,,,,,,,,,,,,,,,5e9a12283ede3b09d611fc63,2020-11-26_15h57.32.207,lexical_decision_task_MP_exp2,2020.2.5,Win32,60,m,1,0.609925,,,,,,,,0.609925,1,,,,,,95,WORD,"ID",16,thread,THREAD,m,,,,,,0.193518519,-0.15462963,0,0,0,,0,137,137,94,1,
,,,,,,,,,,,,,,,,,,5e9a12283ede3b09d611fc63,2020-11-26_15h57.32.207,lexical_decision_task_MP_exp2,2020.2.5,Win32,60,m,1,0.8233,,,,,,,,0.8233,1,,,,,,50,WORD,"ID",33,snatch,SNATCH,m,,,,,,0.193518519,-0.15462963,0,0,0,,0,138,138,49,1,
,,,,,,,,,,,,,,,,,,5e9a12283ede3b09d611fc63,2020-11-26_15h57.32.207,lexical_decision_task_MP_exp2,2020.2.5,Win32,60,m,1,0.584085,,,,,,,,0.584085,1,,,,,,129,WORD,UN,33,stupid,MARVEL,m,,,,,,0.193518519,-0.15462963,0,0,0,,0,139,139,128,1,
,,,,,,,,,,,,,,,,,,5e9a12283ede3b09d611fc63,2020-11-26_15h57.32.207,lexical_decision_task_MP_exp2,2020.2.5,Win32,60,m,1,0.516245,,,,,,,,0.516245,1,,,,,,234,WORD,UN,16,lumber,CLUMSY,m,,,,,,0.193518519,-0.15462963,0,0,0,,0,140,140,233,1,
,,,,,,,,,,,,,,,,,,5e9a12283ede3b09d611fc63,2020-11-26_15h57.32.207,lexical_decision_task_MP_exp2,2020.2.5,Win32,60,z,1,0.604645,,,,,,,,0.604645,1,,,,,,453,NW,UN,16,scouge,BOLVIS,z,,,,,,0.193518519,-0.15462963,0,0,0,,0,141,141,452,1,
,,,,,,,,,,,,,,,,,,5e9a12283ede3b09d611fc63,2020-11-26_15h57.32.207,lexical_decision_task_MP_exp2,2020.2.5,Win32,60,z,0,0.58345,,,,,,,,0.58345,0,,,,,,23,WORD,"ID",33,wealth,WEALTH,m,,,,,,0.193518519,-0.15462963,0,0,0,,0,142,142,22,1,
,,,,,,,,,,,,,,,,,,5e9a12283ede3b09d611fc63,2020-11-26_15h57.32.207,lexical_decision_task_MP_exp2,2020.2.5,Win32,60,m,0,0.941475,,,,,,,,0.941475,0,,,,,,476,NW,UN,16,photie,JOSTED,z,,,,,,0.193518519,-0.15462963,0,0,0,,0,143,143,475,1,
,,,,,,,,,,,,,,,,,,5e9a12283ede3b09d611fc63,2020-11-26_15h57.32.207,lexical_decision_task_MP_exp2,2020.2.5,Win32,60,m,1,0.582395,,,,,,,,0.582395,1,,,,,,136,WORD,UN,33,finger,BLEACH,m,,,,,,0.193518519,-0.15462963,0,0,0,,0,144,144,135,1,
,,,,,,,,,,,,,,,,,,5e9a12283ede3b09d611fc63,2020-11-26_15h57.32.207,lexical_decision_task_MP_exp2,2020.2.5,Win32,60,z,1,0.538585,,,,,,,,0.538585,1,,,,,,431,NW,UN,16,lunker,CHRUMS,z,,,,,,0.193518519,-0.15462963,0,0,0,,0,145,145,430,1,
,,,,,,,,,,,,,,,,,,5e9a12283ede3b09d611fc63,2020-11-26_15h57.32.207,lexical_decision_task_MP_exp2,2020.2.5,Win32,60,z,1,0.570445,,,,,,,,0.570445,1,,,,,,450,NW,UN,16,rastoe,PHRECT,z,,,,,,0.193518519,-0.15462963,0,0,0,,0,146,146,449,1,
,,,,,,,,,,,,,,,,,,5e9a12283ede3b09d611fc63,2020-11-26_15h57.32.207,lexical_decision_task_MP_exp2,2020.2.5,Win32,60,z,1,0.717095,,,,,,,,0.717095,1,,,,,,449,NW,UN,16,phrect,BRUNGE,z,,,,,,0.193518519,-0.15462963,0,0,0,,0,147,147,448,1,
,,,,,,,,,,,,,,,,,,5e9a12283ede3b09d611fc63,2020-11-26_15h57.32.207,lexical_decision_task_MP_exp2,2020.2.5,Win32,60,m,1,0.6931,,,,,,,,0.6931,1,,,,,,213,WORD,UN,16,intake,SQUEAL,m,,,,,,0.193518519,-0.15462963,0,0,0,,0,148,148,212,1,
,,,,,,,,,,,,,,,,,,5e9a12283ede3b09d611fc63,2020-11-26_15h57.32.207,lexical_decision_task_MP_exp2,2020.2.5,Win32,60,z,1,0.469655,,,,,,,,0.469655,1,,,,,,362,NW,UN,33,breali,TIREAU,z,,,,,,0.193518519,-0.15462963,0,0,0,,0,149,149,361,1,
,,,,,,,,,,,,,,,,,,5e9a12283ede3b09d611fc63,2020-11-26_15h57.32.207,lexical_decision_task_MP_exp2,2020.2.5,Win32,60,z,1,0.48173,,,,,,,,0.48173,1,,,,,,350,NW,"ID",16,nagurs,NAGURS,z,,,,,,0.193518519,-0.15462963,0,0,0,,0,150,150,349,1,
,,,,,,,,,,,,,,,,,,5e9a12283ede3b09d611fc63,2020-11-26_15h57.32.207,lexical_decision_task_MP_exp2,2020.2.5,Win32,60,m,1,0.604335,,,,,,,,0.604335,1,,,,,,138,WORD,UN,33,staple,MELODY,m,,,,,,0.193518519,-0.15462963,0,0,0,,0,151,151,137,1,
,,,,,,,,,,,,,,,,,,5e9a12283ede3b09d611fc63,2020-11-26_15h57.32.207,lexical_decision_task_MP_exp2,2020.2.5,Win32,60,z,1,0.63829,,,,,,,,0.63829,1,,,,,,460,NW,UN,16,justre,MINGAR,z,,,,,,0.193518519,-0.15462963,0,0,0,,0,152,152,459,1,
,,,,,,,,,,,,,,,,,,5e9a12283ede3b09d611fc63,2020-11-26_15h57.32.207,lexical_decision_task_MP_exp2,2020.2.5,Win32,60,z,1,0.700015,,,,,,,,0.700015,1,,,,,,462,NW,UN,16,kispel,ABSULT,z,,,,,,0.193518519,-0.15462963,0,0,0,,0,153,153,461,1,
,,,,,,,,,,,,,,,,,,5e9a12283ede3b09d611fc63,2020-11-26_15h57.32.207,lexical_decision_task_MP_exp2,2020.2.5,Win32,60,m,1,0.6182,,,,,,,,0.6182,1,,,,,,48,WORD,"ID",33,walnut,WALNUT,m,,,,,,0.193518519,-0.15462963,0,0,0,,0,154,154,47,1,
,,,,,,,,,,,,,,,,,,5e9a12283ede3b09d611fc63,2020-11-26_15h57.32.207,lexical_decision_task_MP_exp2,2020.2.5,Win32,60,z,1,0.77235,,,,,,,,0.77235,1,,,,,,442,NW,UN,16,dorsex,ABOUNE,z,,,,,,0.193518519,-0.15462963,0,0,0,,0,155,155,441,1,
,,,,,,,,,,,,,,,,,,5e9a12283ede3b09d611fc63,2020-11-26_15h57.32.207,lexical_decision_task_MP_exp2,2020.2.5,Win32,60,m,1,0.803955,,,,,,,,0.803955,1,,,,,,203,WORD,UN,16,burden,PHRASE,m,,,,,,0.193518519,-0.15462963,0,0,0,,0,156,156,202,1,
,,,,,,,,,,,,,,,,,,5e9a12283ede3b09d611fc63,2020-11-26_15h57.32.207,lexical_decision_task_MP_exp2,2020.2.5,Win32,60,m,1,0.54854,,,,,,,,0.54854,1,,,,,,185,WORD,UN,16,portal,BOTHER,m,,,,,,0.193518519,-0.15462963,0,0,0,,0,157,157,184,1,
,,,,,,,,,,,,,,,,,,5e9a12283ede3b09d611fc63,2020-11-26_15h57.32.207,lexical_decision_task_MP_exp2,2020.2.5,Win32,60,z,1,0.604255,,,,,,,,0.604255,1,,,,,,375,NW,UN,33,iguare,YORQUE,z,,,,,,0.193518519,-0.15462963,0,0,0,,0,158,158,374,1,
,,,,,,,,,,,,,,,,,,5e9a12283ede3b09d611fc63,2020-11-26_15h57.32.207,lexical_decision_task_MP_exp2,2020.2.5,Win32,60,z,1,0.739955,,,,,,,,0.739955,1,,,,,,469,NW,UN,16,crudio,PADIFS,z,,,,,,0.193518519,-0.15462963,0,0,0,,0,159,159,468,1,
,,,,,,,,,,,,,,,,,,5e9a12283ede3b09d611fc63,2020-11-26_15h57.32.207,lexical_decision_task_MP_exp2,2020.2.5,Win32,60,m,1,0.515185,,,,,,,,0.515185,1,,,,,,152,WORD,UN,33,behold,ROCKET,m,,,,,,0.193518519,-0.15462963,0,0,0,,0,160,160,151,1,
,,,,,,,,,,,,,,,,,,5e9a12283ede3b09d611fc63,2020-11-26_15h57.32.207,lexical_decision_task_MP_exp2,2020.2.5,Win32,60,z,1,0.634535,,,,,,,,0.634535,1,,,,,,281,NW,"ID",33,melaty,MELATY,z,,,,,,0.193518519,-0.15462963,0,0,0,,0,161,161,280,1,
,,,,,,,,,,,,,,,,,,5e9a12283ede3b09d611fc63,2020-11-26_15h57.32.207,lexical_decision_task_MP_exp2,2020.2.5,Win32,60,z,1,0.81512,,,,,,,,0.81512,1,,,,,,365,NW,UN,33,toshel,GUAIRT,z,,,,,,0.193518519,-0.15462963,0,0,0,,0,162,162,364,1,
,,,,,,,,,,,,,,,,,,5e9a12283ede3b09d611fc63,2020-11-26_15h57.32.207,lexical_decision_task_MP_exp2,2020.2.5,Win32,60,m,1,0.571875,,,,,,,,0.571875,1,,,,,,174,WORD,UN,33,fabric,TURKEY,m,,,,,,0.193518519,-0.15462963,0,0,0,,0,163,163,173,1,
,,,,,,,,,,,,,,,,,,5e9a12283ede3b09d611fc63,2020-11-26_15h57.32.207,lexical_decision_task_MP_exp2,2020.2.5,Win32,60,m,0,0.491885,,,,,,,,0.491885,0,,,,,,316,NW,"ID",16,scregm,SCREGM,z,,,,,,0.193518519,-0.15462963,0,0,0,,0,164,164,315,1,
,,,,,,,,,,,,,,,,,,5e9a12283ede3b09d611fc63,2020-11-26_15h57.32.207,lexical_decision_task_MP_exp2,2020.2.5,Win32,60,m,1,0.931685,,,,,,,,0.931685,1,,,,,,1,WORD,"ID",33,fright,FRIGHT,m,,,,,,0.193518519,-0.15462963,0,0,0,,0,165,165,0,1,
,,,,,,,,,,,,,,,,,,5e9a12283ede3b09d611fc63,2020-11-26_15h57.32.207,lexical_decision_task_MP_exp2,2020.2.5,Win32,60,m,1,0.58576,,,,,,,,0.58576,1,,,,,,221,WORD,UN,16,hinder,MASCOT,m,,,,,,0.193518519,-0.15462963,0,0,0,,0,166,166,220,1,
,,,,,,,,,,,,,,,,,,5e9a12283ede3b09d611fc63,2020-11-26_15h57.32.207,lexical_decision_task_MP_exp2,2020.2.5,Win32,60,m,1,0.650035,,,,,,,,0.650035,1,,,,,,187,WORD,UN,16,social,COURSE,m,,,,,,0.193518519,-0.15462963,0,0,0,,0,167,167,186,1,
,,,,,,,,,,,,,,,,,,5e9a12283ede3b09d611fc63,2020-11-26_15h57.32.207,lexical_decision_task_MP_exp2,2020.2.5,Win32,60,z,1,0.568035,,,,,,,,0.568035,1,,,,,,348,NW,"ID",16,dumple,DUMPLE,z,,,,,,0.193518519,-0.15462963,0,0,0,,0,168,168,347,1,
,,,,,,,,,,,,,,,,,,5e9a12283ede3b09d611fc63,2020-11-26_15h57.32.207,lexical_decision_task_MP_exp2,2020.2.5,Win32,60,z,1,0.61997,,,,,,,,0.61997,1,,,,,,329,NW,"ID",16,yarike,YARIKE,z,,,,,,0.193518519,-0.15462963,0,0,0,,0,169,169,328,1,
,,,,,,,,,,,,,,,,,,5e9a12283ede3b09d611fc63,2020-11-26_15h57.32.207,lexical_decision_task_MP_exp2,2020.2.5,Win32,60,z,0,0.63554,,,,,,,,0.63554,0,,,,,,161,WORD,UN,33,candle,PASTOR,m,,,,,,0.193518519,-0.15462963,0,0,0,,0,170,170,160,1,
,,,,,,,,,,,,,,,,,,5e9a12283ede3b09d611fc63,2020-11-26_15h57.32.207,lexical_decision_task_MP_exp2,2020.2.5,Win32,60,m,1,0.698125,,,,,,,,0.698125,1,,,,,,141,WORD,UN,33,spruce,ORPHAN,m,,,,,,0.193518519,-0.15462963,0,0,0,,0,171,171,140,1,
,,,,,,,,,,,,,,,,,,5e9a12283ede3b09d611fc63,2020-11-26_15h57.32.207,lexical_decision_task_MP_exp2,2020.2.5,Win32,60,z,1,0.604605,,,,,,,,0.604605,1,,,,,,247,NW,"ID",33,blarge,BLARGE,z,,,,,,0.193518519,-0.15462963,0,0,0,,0,172,172,246,1,
,,,,,,,,,,,,,,,,,,5e9a12283ede3b09d611fc63,2020-11-26_15h57.32.207,lexical_decision_task_MP_exp2,2020.2.5,Win32,60,z,1,1.03191,,,,,,,,1.03191,1,,,,,,437,NW,UN,16,baitch,SNAPEL,z,,,,,,0.193518519,-0.15462963,0,0,0,,0,173,173,436,1,
,,,,,,,,,,,,,,,,,,5e9a12283ede3b09d611fc63,2020-11-26_15h57.32.207,lexical_decision_task_MP_exp2,2020.2.5,Win32,60,m,1,0.516615,,,,,,,,0.516615,1,,,,,,126,WORD,UN,33,castle,ENOUGH,m,,,,,,0.193518519,-0.15462963,0,0,0,,0,174,174,125,1,
,,,,,,,,,,,,,,,,,,5e9a12283ede3b09d611fc63,2020-11-26_15h57.32.207,lexical_decision_task_MP_exp2,2020.2.5,Win32,60,z,0,0.803265,,,,,,,,0.803265,0,,,,,,66,WORD,"ID",16,gospel,GOSPEL,m,,,,,,0.193518519,-0.15462963,0,0,0,,0,175,175,65,1,
,,,,,,,,,,,,,,,,,,5e9a12283ede3b09d611fc63,2020-11-26_15h57.32.207,lexical_decision_task_MP_exp2,2020.2.5,Win32,60,m,1,0.75057,,,,,,,,0.75057,1,,,,,,131,WORD,UN,33,strong,QUENCH,m,,,,,,0.193518519,-0.15462963,0,0,0,,0,176,176,130,1,
,,,,,,,,,,,,,,,,,,5e9a12283ede3b09d611fc63,2020-11-26_15h57.32.207,lexical_decision_task_MP_exp2,2020.2.5,Win32,60,m,1,0.50255,,,,,,,,0.50255,1,,,,,,54,WORD,"ID",33,ramble,RAMBLE,m,,,,,,0.193518519,-0.15462963,0,0,0,,0,177,177,53,1,
,,,,,,,,,,,,,,,,,,5e9a12283ede3b09d611fc63,2020-11-26_15h57.32.207,lexical_decision_task_MP_exp2,2020.2.5,Win32,60,z,1,0.526895,,,,,,,,0.526895,1,,,,,,463,NW,UN,16,bafent,KISPEL,z,,,,,,0.193518519,-0.15462963,0,0,0,,0,178,178,462,1,
,,,,,,,,,,,,,,,,,,5e9a12283ede3b09d611fc63,2020-11-26_15h57.32.207,lexical_decision_task_MP_exp2,2020.2.5,Win32,60,m,1,0.65045,,,,,,,,0.65045,1,,,,,,90,WORD,"ID",16,relish,RELISH,m,,,,,,0.193518519,-0.15462963,0,0,0,,0,179,179,89,1,
,,,,,,,,,,,,,,,,,,5e9a12283ede3b09d611fc63,2020-11-26_15h57.32.207,lexical_decision_task_MP_exp2,2020.2.5,Win32,60,m,1,0.643085,,,,,,,,0.643085,1,,,,,,114,WORD,"ID",16,placid,PLACID,m,,,,,,0.193518519,-0.15462963,0,0,0,,0,180,180,113,1,
,,,,,,,,,,,,,,,,,,5e9a12283ede3b09d611fc63,2020-11-26_15h57.32.207,lexical_decision_task_MP_exp2,2020.2.5,Win32,60,m,1,0.56875,,,,,,,,0.56875,1,,,,,,239,WORD,UN,16,forest,LUMBER,m,,,,,,0.193518519,-0.15462963,0,0,0,,0,181,181,238,1,
,,,,,,,,,,,,,,,,,,5e9a12283ede3b09d611fc63,2020-11-26_15h57.32.207,lexical_decision_task_MP_exp2,2020.2.5,Win32,60,z,1,0.65418,,,,,,,,0.65418,1,,,,,,405,NW,UN,33,nouply,FLUMNI,z,,,,,,0.193518519,-0.15462963,0,0,0,,0,182,182,404,1,
,,,,,,,,,,,,,,,,,,5e9a12283ede3b09d611fc63,2020-11-26_15h57.32.207,lexical_decision_task_MP_exp2,2020.2.5,Win32,60,m,1,0.58778,,,,,,,,0.58778,1,,,,,,235,WORD,UN,16,pirate,GRUMPY,m,,,,,,0.193518519,-0.15462963,0,0,0,,0,183,183,234,1,
,,,,,,,,,,,,,,,,,,5e9a12283ede3b09d611fc63,2020-11-26_15h57.32.207,lexical_decision_task_MP_exp2,2020.2.5,Win32,60,z,1,0.54991,,,,,,,,0.54991,1,,,,,,241,NW,"ID",33,smenco,SMENCO,z,,,,,,0.193518519,-0.15462963,0,0,0,,0,184,184,240,1,
,,,,,,,,,,,,,,,,,,5e9a12283ede3b09d611fc63,2020-11-26_15h57.32.207,lexical_decision_task_MP_exp2,2020.2.5,Win32,60,m,1,0.63686,,,,,,,,0.63686,1,,,,,,192,WORD,UN,16,object,PLAGUE,m,,,,,,0.193518519,-0.15462963,0,0,0,,0,185,185,191,1,
,,,,,,,,,,,,,,,,,,5e9a12283ede3b09d611fc63,2020-11-26_15h57.32.207,lexical_decision_task_MP_exp2,2020.2.5,Win32,60,m,1,0.581675,,,,,,,,0.581675,1,,,,,,184,WORD,UN,16,bother,SLEAZY,m,,,,,,0.193518519,-0.15462963,0,0,0,,0,186,186,183,1,
,,,,,,,,,,,,,,,,,,5e9a12283ede3b09d611fc63,2020-11-26_15h57.32.207,lexical_decision_task_MP_exp2,2020.2.5,Win32,60,z,1,0.515955,,,,,,,,0.515955,1,,,,,,389,NW,UN,33,hatrus,WITMER,z,,,,,,0.193518519,-0.15462963,0,0,0,,0,187,187,388,1,
,,,,,,,,,,,,,,,,,,5e9a12283ede3b09d611fc63,2020-11-26_15h57.32.207,lexical_decision_task_MP_exp2,2020.2.5,Win32,60,m,1,0.716215,,,,,,,,0.716215,1,,,,,,125,WORD,UN,33,blouse,NICKEL,m,,,,,,0.193518519,-0.15462963,0,0,0,,0,188,188,124,1,
,,,,,,,,,,,,,,,,,,5e9a12283ede3b09d611fc63,2020-11-26_15h57.32.207,lexical_decision_task_MP_exp2,2020.2.5,Win32,60,z,1,0.56461,,,,,,,,0.56461,1,,,,,,300,NW,"ID",33,yarion,YARION,z,,,,,,0.193518519,-0.15462963,0,0,0,,0,189,189,299,1,
,,,,,,,,,,,,,,,,,,5e9a12283ede3b09d611fc63,2020-11-26_15h57.32.207,lexical_decision_task_MP_exp2,2020.2.5,Win32,60,m,1,0.553345,,,,,,,,0.553345,1,,,,,,43,WORD,"ID",33,tongue,TONGUE,m,,,,,,0.193518519,-0.15462963,0,0,0,,0,190,190,42,1,
,,,,,,,,,,,,,,,,,,5e9a12283ede3b09d611fc63,2020-11-26_15h57.32.207,lexical_decision_task_MP_exp2,2020.2.5,Win32,60,z,1,0.551535,,,,,,,,0.551535,1,,,,,,292,NW,"ID",33,ablint,ABLINT,z,,,,,,0.193518519,-0.15462963,0,0,0,,0,191,191,291,1,
,,,,,,,,,,,,,,,,,,5e9a12283ede3b09d611fc63,2020-11-26_15h57.32.207,lexical_decision_task_MP_exp2,2020.2.5,Win32,60,m,1,0.665515,,,,,,,,0.665515,1,,,,,,25,WORD,"ID",33,domain,DOMAIN,m,,,,,,0.193518519,-0.15462963,0,0,0,,0,192,192,24,1,
,,,,,,,,,,,,,,,,,,5e9a12283ede3b09d611fc63,2020-11-26_15h57.32.207,lexical_decision_task_MP_exp2,2020.2.5,Win32,60,m,1,0.581205,,,,,,,,0.581205,1,,,,,,181,WORD,UN,16,winter,GLANCE,m,,,,,,0.193518519,-0.15462963,0,0,0,,0,193,193,180,1,
,,,,,,,,,,,,,,,,,,5e9a12283ede3b09d611fc63,2020-11-26_15h57.32.207,lexical_decision_task_MP_exp2,2020.2.5,Win32,60,m,1,0.604375,,,,,,,,0.604375,1,,,,,,89,WORD,"ID",16,permit,PERMIT,m,,,,,,0.193518519,-0.15462963,0,0,0,,0,194,194,88,1,
,,,,,,,,,,,,,,,,,,5e9a12283ede3b09d611fc63,2020-11-26_15h57.32.207,lexical_decision_task_MP_exp2,2020.2.5,Win32,60,m,1,0.53944,,,,,,,,0.53944,1,,,,,,171,WORD,UN,33,patrol,DEPART,m,,,,,,0.193518519,-0.15462963,0,0,0,,0,195,195,170,1,
,,,,,,,,,,,,,,,,,,5e9a12283ede3b09d611fc63,2020-11-26_15h57.32.207,lexical_decision_task_MP_exp2,2020.2.5,Win32,60,m,0,0.54993,,,,,,,,0.54993,0,,,,,,313,NW,"ID",16,paurse,PAURSE,z,,,,,,0.193518519,-0.15462963,0,0,0,,0,196,196,312,1,
,,,,,,,,,,,,,,,,,,5e9a12283ede3b09d611fc63,2020-11-26_15h57.32.207,lexical_decision_task_MP_exp2,2020.2.5,Win32,60,z,1,0.60002,,,,,,,,0.60002,1,,,,,,409,NW,UN,33,tunory,ELOPIA,z,,,,,,0.193518519,-0.15462963,0,0,0,,0,197,197,408,1,
,,,,,,,,,,,,,,,,,,5e9a12283ede3b09d611fc63,2020-11-26_15h57.32.207,lexical_decision_task_MP_exp2,2020.2.5,Win32,60,z,0,0.564965,,,,,,,,0.564965,0,,,,,,212,WORD,UN,16,squeal,VERIFY,m,,,,,,0.193518519,-0.15462963,0,0,0,,0,198,198,211,1,
,,,,,,,,,,,,,,,,,,5e9a12283ede3b09d611fc63,2020-11-26_15h57.32.207,lexical_decision_task_MP_exp2,2020.2.5,Win32,60,z,1,0.66534,,,,,,,,0.66534,1,,,,,,287,NW,"ID",33,nymbel,NYMBEL,z,,,,,,0.193518519,-0.15462963,0,0,0,,0,199,199,286,1,
,,,,,,,,,,,,,,,,,,5e9a12283ede3b09d611fc63,2020-11-26_15h57.32.207,lexical_decision_task_MP_exp2,2020.2.5,Win32,60,m,1,0.591705,,,,,,,,0.591705,1,,,,,,3,WORD,"ID",33,knight,KNIGHT,m,,,,,,0.193518519,-0.15462963,0,0,0,,0,200,200,2,1,
,,,,,,,,,,,,,,,,,,5e9a12283ede3b09d611fc63,2020-11-26_15h57.32.207,lexical_decision_task_MP_exp2,2020.2.5,Win32,60,z,1,0.81701,,,,,,,,0.81701,1,,,,,,418,NW,UN,33,slount,SUIDLE,z,,,,,,0.193518519,-0.15462963,0,0,0,,0,201,201,417,1,
,,,,,,,,,,,,,,,,,,5e9a12283ede3b09d611fc63,2020-11-26_15h57.32.207,lexical_decision_task_MP_exp2,2020.2.5,Win32,60,m,1,0.7204,,,,,,,,0.7204,1,,,,,,52,WORD,"ID",33,impose,IMPOSE,m,,,,,,0.193518519,-0.15462963,0,0,0,,0,202,202,51,1,
,,,,,,,,,,,,,,,,,,5e9a12283ede3b09d611fc63,2020-11-26_15h57.32.207,lexical_decision_task_MP_exp2,2020.2.5,Win32,60,m,1,0.58955,,,,,,,,0.58955,1,,,,,,224,WORD,UN,16,vulgar,PERIOD,m,,,,,,0.193518519,-0.15462963,0,0,0,,0,203,203,223,1,
,,,,,,,,,,,,,,,,,,5e9a12283ede3b09d611fc63,2020-11-26_15h57.32.207,lexical_decision_task_MP_exp2,2020.2.5,Win32,60,m,1,1.052975,,,,,,,,1.052975,1,,,,,,176,WORD,UN,33,advent,STRIFE,m,,,,,,0.193518519,-0.15462963,0,0,0,,0,204,204,175,1,
,,,,,,,,,,,,,,,,,,5e9a12283ede3b09d611fc63,2020-11-26_15h57.32.207,lexical_decision_task_MP_exp2,2020.2.5,Win32,60,z,1,0.60781,,,,,,,,0.60781,1,,,,,,332,NW,"ID",16,vangue,VANGUE,z,,,,,,0.193518519,-0.15462963,0,0,0,,0,205,205,331,1,
,,,,,,,,,,,,,,,,,,5e9a12283ede3b09d611fc63,2020-11-26_15h57.32.207,lexical_decision_task_MP_exp2,2020.2.5,Win32,60,z,1,0.70323,,,,,,,,0.70323,1,,,,,,406,NW,UN,33,suiver,NOUPLY,z,,,,,,0.193518519,-0.15462963,0,0,0,,0,206,206,405,1,
,,,,,,,,,,,,,,,,,,5e9a12283ede3b09d611fc63,2020-11-26_15h57.32.207,lexical_decision_task_MP_exp2,2020.2.5,Win32,60,m,1,0.61585,,,,,,,,0.61585,1,,,,,,39,WORD,"ID",33,insect,INSECT,m,,,,,,0.193518519,-0.15462963,0,0,0,,0,207,207,38,1,
,,,,,,,,,,,,,,,,,,5e9a12283ede3b09d611fc63,2020-11-26_15h57.32.207,lexical_decision_task_MP_exp2,2020.2.5,Win32,60,m,1,0.543995,,,,,,,,0.543995,1,,,,,,178,WORD,UN,33,mildew,INFORM,m,,,,,,0.193518519,-0.15462963,0,0,0,,0,208,208,177,1,
,,,,,,,,,,,,,,,,,,5e9a12283ede3b09d611fc63,2020-11-26_15h57.32.207,lexical_decision_task_MP_exp2,2020.2.5,Win32,60,m,1,0.499405,,,,,,,,0.499405,1,,,,,,112,WORD,"ID",16,breath,BREATH,m,,,,,,0.193518519,-0.15462963,0,0,0,,0,209,209,111,1,
,,,,,,,,,,,,,,,,,,5e9a12283ede3b09d611fc63,2020-11-26_15h57.32.207,lexical_decision_task_MP_exp2,2020.2.5,Win32,60,m,0,0.64023,,,,,,,,0.64023,0,,,,,,305,NW,"ID",16,forgle,FORGLE,z,,,,,,0.193518519,-0.15462963,0,0,0,,0,210,210,304,1,
,,,,,,,,,,,,,,,,,,5e9a12283ede3b09d611fc63,2020-11-26_15h57.32.207,lexical_decision_task_MP_exp2,2020.2.5,Win32,60,m,1,0.69204,,,,,,,,0.69204,1,,,,,,201,WORD,UN,16,factor,ADMIRE,m,,,,,,0.193518519,-0.15462963,0,0,0,,0,211,211,200,1,
,,,,,,,,,,,,,,,,,,5e9a12283ede3b09d611fc63,2020-11-26_15h57.32.207,lexical_decision_task_MP_exp2,2020.2.5,Win32,60,z,1,0.648655,,,,,,,,0.648655,1,,,,,,330,NW,"ID",16,kensom,KENSOM,z,,,,,,0.193518519,-0.15462963,0,0,0,,0,212,212,329,1,
,,,,,,,,,,,,,,,,,,5e9a12283ede3b09d611fc63,2020-11-26_15h57.32.207,lexical_decision_task_MP_exp2,2020.2.5,Win32,60,m,1,0.60767,,,,,,,,0.60767,1,,,,,,88,WORD,"ID",16,hunger,HUNGER,m,,,,,,0.193518519,-0.15462963,0,0,0,,0,213,213,87,1,
,,,,,,,,,,,,,,,,,,5e9a12283ede3b09d611fc63,2020-11-26_15h57.32.207,lexical_decision_task_MP_exp2,2020.2.5,Win32,60,z,1,0.50737,,,,,,,,0.50737,1,,,,,,265,NW,"ID",33,distar,DISTAR,z,,,,,,0.193518519,-0.15462963,0,0,0,,0,214,214,264,1,
,,,,,,,,,,,,,,,,,,5e9a12283ede3b09d611fc63,2020-11-26_15h57.32.207,lexical_decision_task_MP_exp2,2020.2.5,Win32,60,m,1,0.552215,,,,,,,,0.552215,1,,,,,,143,WORD,UN,33,sponge,REASON,m,,,,,,0.193518519,-0.15462963,0,0,0,,0,215,215,142,1,
,,,,,,,,,,,,,,,,,,5e9a12283ede3b09d611fc63,2020-11-26_15h57.32.207,lexical_decision_task_MP_exp2,2020.2.5,Win32,60,m,1,0.631185,,,,,,,,0.631185,1,,,,,,64,WORD,"ID",16,throne,THRONE,m,,,,,,0.193518519,-0.15462963,0,0,0,,0,216,216,63,1,
,,,,,,,,,,,,,,,,,,5e9a12283ede3b09d611fc63,2020-11-26_15h57.32.207,lexical_decision_task_MP_exp2,2020.2.5,Win32,60,z,1,0.643095,,,,,,,,0.643095,1,,,,,,387,NW,UN,33,cragin,GRONCE,z,,,,,,0.193518519,-0.15462963,0,0,0,,0,217,217,386,1,
,,,,,,,,,,,,,,,,,,5e9a12283ede3b09d611fc63,2020-11-26_15h57.32.207,lexical_decision_task_MP_exp2,2020.2.5,Win32,60,m,1,0.64034,,,,,,,,0.64034,1,,,,,,228,WORD,UN,16,inject,MASTER,m,,,,,,0.193518519,-0.15462963,0,0,0,,0,218,218,227,1,
,,,,,,,,,,,,,,,,,,5e9a12283ede3b09d611fc63,2020-11-26_15h57.32.207,lexical_decision_task_MP_exp2,2020.2.5,Win32,60,z,1,0.70461,,,,,,,,0.70461,1,,,,,,447,NW,UN,16,sadent,GIRCUE,z,,,,,,0.193518519,-0.15462963,0,0,0,,0,219,219,446,1,
,,,,,,,,,,,,,,,,,,5e9a12283ede3b09d611fc63,2020-11-26_15h57.32.207,lexical_decision_task_MP_exp2,2020.2.5,Win32,60,z,1,0.572765,,,,,,,,0.572765,1,,,,,,411,NW,UN,33,jiluer,ORCHIN,z,,,,,,0.193518519,-0.15462963,0,0,0,,0,220,220,410,1,
,,,,,,,,,,,,,,,,,,5e9a12283ede3b09d611fc63,2020-11-26_15h57.32.207,lexical_decision_task_MP_exp2,2020.2.5,Win32,60,m,1,0.59398,,,,,,,,0.59398,1,,,,,,157,WORD,UN,33,island,DRAGON,m,,,,,,0.193518519,-0.15462963,0,0,0,,0,221,221,156,1,
,,,,,,,,,,,,,,,,,,5e9a12283ede3b09d611fc63,2020-11-26_15h57.32.207,lexical_decision_task_MP_exp2,2020.2.5,Win32,60,m,1,0.55745,,,,,,,,0.55745,1,,,,,,130,WORD,UN,33,quench,STUPID,m,,,,,,0.193518519,-0.15462963,0,0,0,,0,222,222,129,1,
,,,,,,,,,,,,,,,,,,5e9a12283ede3b09d611fc63,2020-11-26_15h57.32.207,lexical_decision_task_MP_exp2,2020.2.5,Win32,60,m,1,0.569165,,,,,,,,0.569165,1,,,,,,225,WORD,UN,16,kidney,VULGAR,m,,,,,,0.193518519,-0.15462963,0,0,0,,0,223,223,224,1,
,,,,,,,,,,,,,,,,,,5e9a12283ede3b09d611fc63,2020-11-26_15h57.32.207,lexical_decision_task_MP_exp2,2020.2.5,Win32,60,m,1,0.54915,,,,,,,,0.54915,1,,,,,,34,WORD,"ID",33,jungle,JUNGLE,m,,,,,,0.193518519,-0.15462963,0,0,0,,0,224,224,33,1,
,,,,,,,,,,,,,,,,,,5e9a12283ede3b09d611fc63,2020-11-26_15h57.32.207,lexical_decision_task_MP_exp2,2020.2.5,Win32,60,z,1,1.017315,,,,,,,,1.017315,1,,,,,,370,NW,UN,33,geiloy,SLEACT,z,,,,,,0.193518519,-0.15462963,0,0,0,,0,225,225,369,1,
,,,,,,,,,,,,,,,,,,5e9a12283ede3b09d611fc63,2020-11-26_15h57.32.207,lexical_decision_task_MP_exp2,2020.2.5,Win32,60,m,1,0.625745,,,,,,,,0.625745,1,,,,,,75,WORD,"ID",16,trophy,TROPHY,m,,,,,,0.193518519,-0.15462963,0,0,0,,0,226,226,74,1,
,,,,,,,,,,,,,,,,,,5e9a12283ede3b09d611fc63,2020-11-26_15h57.32.207,lexical_decision_task_MP_exp2,2020.2.5,Win32,60,z,1,0.935,,,,,,,,0.935,1,,,,,,443,NW,UN,16,jaunce,DORSEX,z,,,,,,0.193518519,-0.15462963,0,0,0,,0,227,227,442,1,
,,,,,,,,,,,,,,,,,,5e9a12283ede3b09d611fc63,2020-11-26_15h57.32.207,lexical_decision_task_MP_exp2,2020.2.5,Win32,60,m,1,0.534615,,,,,,,,0.534615,1,,,,,,60,WORD,"ID",33,pencil,PENCIL,m,,,,,,0.193518519,-0.15462963,0,0,0,,0,228,228,59,1,
,,,,,,,,,,,,,,,,,,5e9a12283ede3b09d611fc63,2020-11-26_15h57.32.207,lexical_decision_task_MP_exp2,2020.2.5,Win32,60,z,1,0.57194,,,,,,,,0.57194,1,,,,,,326,NW,"ID",16,iguade,IGUADE,z,,,,,,0.193518519,-0.15462963,0,0,0,,0,229,229,325,1,
,,,,,,,,,,,,,,,,,,5e9a12283ede3b09d611fc63,2020-11-26_15h57.32.207,lexical_decision_task_MP_exp2,2020.2.5,Win32,60,m,1,0.48338,,,,,,,,0.48338,1,,,,,,57,WORD,"ID",33,change,CHANGE,m,,,,,,0.193518519,-0.15462963,0,0,0,,0,230,230,56,1,
,,,,,,,,,,,,,,,,,,5e9a12283ede3b09d611fc63,2020-11-26_15h57.32.207,lexical_decision_task_MP_exp2,2020.2.5,Win32,60,z,1,0.56514,,,,,,,,0.56514,1,,,,,,373,NW,UN,33,injore,BIGENT,z,,,,,,0.193518519,-0.15462963,0,0,0,,0,231,231,372,1,
,,,,,,,,,,,,,,,,,,5e9a12283ede3b09d611fc63,2020-11-26_15h57.32.207,lexical_decision_task_MP_exp2,2020.2.5,Win32,60,m,1,0.524465,,,,,,,,0.524465,1,,,,,,80,WORD,"ID",16,family,FAMILY,m,,,,,,0.193518519,-0.15462963,0,0,0,,0,232,232,79,1,
,,,,,,,,,,,,,,,,,,5e9a12283ede3b09d611fc63,2020-11-26_15h57.32.207,lexical_decision_task_MP_exp2,2020.2.5,Win32,60,z,1,0.523735,,,,,,,,0.523735,1,,,,,,257,NW,"ID",33,veniod,VENIOD,z,,,,,,0.193518519,-0.15462963,0,0,0,,0,233,233,256,1,
,,,,,,,,,,,,,,,,,,5e9a12283ede3b09d611fc63,2020-11-26_15h57.32.207,lexical_decision_task_MP_exp2,2020.2.5,Win32,60,z,1,0.67517,,,,,,,,0.67517,1,,,,,,291,NW,"ID",33,pretch,PRETCH,z,,,,,,0.193518519,-0.15462963,0,0,0,,0,234,234,290,1,
,,,,,,,,,,,,,,,,,,5e9a12283ede3b09d611fc63,2020-11-26_15h57.32.207,lexical_decision_task_MP_exp2,2020.2.5,Win32,60,z,0,0.753145,,,,,,,,0.753145,0,,,,,,206,WORD,UN,16,wreath,TAILOR,m,,,,,,0.193518519,-0.15462963,0,0,0,,0,235,235,205,1,
,,,,,,,,,,,,,,,,,,5e9a12283ede3b09d611fc63,2020-11-26_15h57.32.207,lexical_decision_task_MP_exp2,2020.2.5,Win32,60,z,1,0.659325,,,,,,,,0.659325,1,,,,,,271,NW,"ID",33,aubrid,AUBRID,z,,,,,,0.193518519,-0.15462963,0,0,0,,0,236,236,270,1,
,,,,,,,,,,,,,,,,,,5e9a12283ede3b09d611fc63,2020-11-26_15h57.32.207,lexical_decision_task_MP_exp2,2020.2.5,Win32,60,z,1,0.61605,,,,,,,,0.61605,1,,,,,,349,NW,"ID",16,asylen,ASYLEN,z,,,,,,0.193518519,-0.15462963,0,0,0,,0,237,237,348,1,
,,,,,,,,,,,,,,,,,,5e9a12283ede3b09d611fc63,2020-11-26_15h57.32.207,lexical_decision_task_MP_exp2,2020.2.5,Win32,60,m,1,0.571535,,,,,,,,0.571535,1,,,,,,6,WORD,"ID",33,bundle,BUNDLE,m,,,,,,0.193518519,-0.15462963,0,0,0,,0,238,238,5,1,
,,,,,,,,,,,,,,,,,,5e9a12283ede3b09d611fc63,2020-11-26_15h57.32.207,lexical_decision_task_MP_exp2,2020.2.5,Win32,60,m,1,0.65571,,,,,,,,0.65571,1,,,,,,188,WORD,UN,16,censor,SOCIAL,m,,,,,,0.193518519,-0.15462963,0,0,0,,0,239,239,187,1,
,,,,,,,,,,,,,,,,,,5e9a12283ede3b09d611fc63,2020-11-26_15h57.32.207,lexical_decision_task_MP_exp2,2020.2.5,Win32,60,z,1,0.62264,,,,,,,,0.62264,1,,,,,,430,NW,UN,16,funtle,CAROEY,z,,,,,,0.193518519,-0.15462963,0,0,0,,0,240,240,429,1,
,,,,,,,,,,,,,,,,,,5e9a12283ede3b09d611fc63,2020-11-26_15h57.32.207,lexical_decision_task_MP_exp2,2020.2.5,Win32,60,z,1,0.72077,,,,,,,,0.72077,1,,,,,,422,NW,UN,16,streld,ALCOUD,z,,,,,,0.193518519,-0.15462963,0,0,0,space,0,241,241,421,1,13.429495
,,,,,,,,,,,,,,,,,,5e9a12283ede3b09d611fc63,2020-11-26_15h57.32.207,lexical_decision_task_MP_exp2,2020.2.5,Win32,60,m,1,0.497855,,,,,,,,0.497855,1,,,,,,231,WORD,UN,16,mother,EXPORT,m,,,,,,0.193518519,-0.15462963,0,0,0,,0,242,242,230,1,
,,,,,,,,,,,,,,,,,,5e9a12283ede3b09d611fc63,2020-11-26_15h57.32.207,lexical_decision_task_MP_exp2,2020.2.5,Win32,60,m,1,0.666645,,,,,,,,0.666645,1,,,,,,214,WORD,UN,16,phobia,INTAKE,m,,,,,,0.193518519,-0.15462963,0,0,0,,0,243,243,213,1,
,,,,,,,,,,,,,,,,,,5e9a12283ede3b09d611fc63,2020-11-26_15h57.32.207,lexical_decision_task_MP_exp2,2020.2.5,Win32,60,m,1,0.47705,,,,,,,,0.47705,1,,,,,,27,WORD,"ID",33,scream,SCREAM,m,,,,,,0.193518519,-0.15462963,0,0,0,,0,244,244,26,1,
,,,,,,,,,,,,,,,,,,5e9a12283ede3b09d611fc63,2020-11-26_15h57.32.207,lexical_decision_task_MP_exp2,2020.2.5,Win32,60,m,1,0.50919,,,,,,,,0.50919,1,,,,,,58,WORD,"ID",33,foster,FOSTER,m,,,,,,0.193518519,-0.15462963,0,0,0,,0,245,245,57,1,
,,,,,,,,,,,,,,,,,,5e9a12283ede3b09d611fc63,2020-11-26_15h57.32.207,lexical_decision_task_MP_exp2,2020.2.5,Win32,60,m,1,0.51617,,,,,,,,0.51617,1,,,,,,159,WORD,UN,33,violet,DETAIL,m,,,,,,0.193518519,-0.15462963,0,0,0,,0,246,246,158,1,
,,,,,,,,,,,,,,,,,,5e9a12283ede3b09d611fc63,2020-11-26_15h57.32.207,lexical_decision_task_MP_exp2,2020.2.5,Win32,60,z,1,0.564565,,,,,,,,0.564565,1,,,,,,354,NW,"ID",16,virlex,VIRLEX,z,,,,,,0.193518519,-0.15462963,0,0,0,,0,247,247,353,1,
,,,,,,,,,,,,,,,,,,5e9a12283ede3b09d611fc63,2020-11-26_15h57.32.207,lexical_decision_task_MP_exp2,2020.2.5,Win32,60,m,1,0.65016,,,,,,,,0.65016,1,,,,,,119,WORD,"ID",16,spider,SPIDER,m,,,,,,0.193518519,-0.15462963,0,0,0,,0,248,248,118,1,
,,,,,,,,,,,,,,,,,,5e9a12283ede3b09d611fc63,2020-11-26_15h57.32.207,lexical_decision_task_MP_exp2,2020.2.5,Win32,60,m,1,0.550325,,,,,,,,0.550325,1,,,,,,96,WORD,"ID",16,ignore,IGNORE,m,,,,,,0.193518519,-0.15462963,0,0,0,,0,249,249,95,1,
,,,,,,,,,,,,,,,,,,5e9a12283ede3b09d611fc63,2020-11-26_15h57.32.207,lexical_decision_task_MP_exp2,2020.2.5,Win32,60,m,1,0.5095,,,,,,,,0.5095,1,,,,,,10,WORD,"ID",33,ethnic,ETHNIC,m,,,,,,0.193518519,-0.15462963,0,0,0,,0,250,250,9,1,
,,,,,,,,,,,,,,,,,,5e9a12283ede3b09d611fc63,2020-11-26_15h57.32.207,lexical_decision_task_MP_exp2,2020.2.5,Win32,60,z,1,1.06473,,,,,,,,1.06473,1,,,,,,445,NW,UN,16,runamo,MINKEL,z,,,,,,0.193518519,-0.15462963,0,0,0,,0,251,251,444,1,
,,,,,,,,,,,,,,,,,,5e9a12283ede3b09d611fc63,2020-11-26_15h57.32.207,lexical_decision_task_MP_exp2,2020.2.5,Win32,60,m,1,0.654915,,,,,,,,0.654915,1,,,,,,29,WORD,"ID",33,sketch,SKETCH,m,,,,,,0.193518519,-0.15462963,0,0,0,,0,252,252,28,1,
,,,,,,,,,,,,,,,,,,5e9a12283ede3b09d611fc63,2020-11-26_15h57.32.207,lexical_decision_task_MP_exp2,2020.2.5,Win32,60,m,1,0.618735,,,,,,,,0.618735,1,,,,,,222,WORD,UN,16,casino,HINDER,m,,,,,,0.193518519,-0.15462963,0,0,0,,0,253,253,221,1,
,,,,,,,,,,,,,,,,,,5e9a12283ede3b09d611fc63,2020-11-26_15h57.32.207,lexical_decision_task_MP_exp2,2020.2.5,Win32,60,m,1,0.58314,,,,,,,,0.58314,1,,,,,,169,WORD,UN,33,pounce,GENIUS,m,,,,,,0.193518519,-0.15462963,0,0,0,,0,254,254,168,1,
,,,,,,,,,,,,,,,,,,5e9a12283ede3b09d611fc63,2020-11-26_15h57.32.207,lexical_decision_task_MP_exp2,2020.2.5,Win32,60,z,1,0.55008,,,,,,,,0.55008,1,,,,,,417,NW,UN,33,suidle,EAROUD,z,,,,,,0.193518519,-0.15462963,0,0,0,,0,255,255,416,1,
,,,,,,,,,,,,,,,,,,5e9a12283ede3b09d611fc63,2020-11-26_15h57.32.207,lexical_decision_task_MP_exp2,2020.2.5,Win32,60,z,0,0.50119,,,,,,,,0.50119,0,,,,,,156,WORD,UN,33,pastor,CRADLE,m,,,,,,0.193518519,-0.15462963,0,0,0,,0,256,256,155,1,
,,,,,,,,,,,,,,,,,,5e9a12283ede3b09d611fc63,2020-11-26_15h57.32.207,lexical_decision_task_MP_exp2,2020.2.5,Win32,60,z,1,0.50953,,,,,,,,0.50953,1,,,,,,351,NW,"ID",16,tiesch,TIESCH,z,,,,,,0.193518519,-0.15462963,0,0,0,,0,257,257,350,1,
,,,,,,,,,,,,,,,,,,5e9a12283ede3b09d611fc63,2020-11-26_15h57.32.207,lexical_decision_task_MP_exp2,2020.2.5,Win32,60,z,1,0.691265,,,,,,,,0.691265,1,,,,,,246,NW,"ID",33,piaton,PIATON,z,,,,,,0.193518519,-0.15462963,0,0,0,,0,258,258,245,1,
,,,,,,,,,,,,,,,,,,5e9a12283ede3b09d611fc63,2020-11-26_15h57.32.207,lexical_decision_task_MP_exp2,2020.2.5,Win32,60,z,1,0.600265,,,,,,,,0.600265,1,,,,,,364,NW,UN,33,guairt,IMPOTE,z,,,,,,0.193518519,-0.15462963,0,0,0,,0,259,259,363,1,
,,,,,,,,,,,,,,,,,,5e9a12283ede3b09d611fc63,2020-11-26_15h57.32.207,lexical_decision_task_MP_exp2,2020.2.5,Win32,60,m,1,0.63175,,,,,,,,0.63175,1,,,,,,9,WORD,"ID",33,hustle,HUSTLE,m,,,,,,0.193518519,-0.15462963,0,0,0,,0,260,260,8,1,
,,,,,,,,,,,,,,,,,,5e9a12283ede3b09d611fc63,2020-11-26_15h57.32.207,lexical_decision_task_MP_exp2,2020.2.5,Win32,60,z,1,0.552075,,,,,,,,0.552075,1,,,,,,403,NW,UN,33,cluirm,BRUATS,z,,,,,,0.193518519,-0.15462963,0,0,0,,0,261,261,402,1,
,,,,,,,,,,,,,,,,,,5e9a12283ede3b09d611fc63,2020-11-26_15h57.32.207,lexical_decision_task_MP_exp2,2020.2.5,Win32,60,m,1,0.687975,,,,,,,,0.687975,1,,,,,,40,WORD,"ID",33,convey,CONVEY,m,,,,,,0.193518519,-0.15462963,0,0,0,,0,262,262,39,1,
,,,,,,,,,,,,,,,,,,5e9a12283ede3b09d611fc63,2020-11-26_15h57.32.207,lexical_decision_task_MP_exp2,2020.2.5,Win32,60,m,0,0.60723,,,,,,,,0.60723,0,,,,,,249,NW,"ID",33,batrol,BATROL,z,,,,,,0.193518519,-0.15462963,0,0,0,,0,263,263,248,1,
,,,,,,,,,,,,,,,,,,5e9a12283ede3b09d611fc63,2020-11-26_15h57.32.207,lexical_decision_task_MP_exp2,2020.2.5,Win32,60,z,1,0.867055,,,,,,,,0.867055,1,,,,,,248,NW,"ID",33,strole,STROLE,z,,,,,,0.193518519,-0.15462963,0,0,0,,0,264,264,247,1,
,,,,,,,,,,,,,,,,,,5e9a12283ede3b09d611fc63,2020-11-26_15h57.32.207,lexical_decision_task_MP_exp2,2020.2.5,Win32,60,z,1,0.65726,,,,,,,,0.65726,1,,,,,,385,NW,UN,33,ancust,VEIGMA,z,,,,,,0.193518519,-0.15462963,0,0,0,,0,265,265,384,1,
,,,,,,,,,,,,,,,,,,5e9a12283ede3b09d611fc63,2020-11-26_15h57.32.207,lexical_decision_task_MP_exp2,2020.2.5,Win32,60,m,1,0.981855,,,,,,,,0.981855,1,,,,,,128,WORD,UN,33,marvel,SENIOR,m,,,,,,0.193518519,-0.15462963,0,0,0,,0,266,266,127,1,
,,,,,,,,,,,,,,,,,,5e9a12283ede3b09d611fc63,2020-11-26_15h57.32.207,lexical_decision_task_MP_exp2,2020.2.5,Win32,60,z,1,0.720185,,,,,,,,0.720185,1,,,,,,310,NW,"ID",16,daniet,DANIET,z,,,,,,0.193518519,-0.15462963,0,0,0,,0,267,267,309,1,
,,,,,,,,,,,,,,,,,,5e9a12283ede3b09d611fc63,2020-11-26_15h57.32.207,lexical_decision_task_MP_exp2,2020.2.5,Win32,60,m,1,0.51606,,,,,,,,0.51606,1,,,,,,70,WORD,"ID",16,square,SQUARE,m,,,,,,0.193518519,-0.15462963,0,0,0,,0,268,268,69,1,
,,,,,,,,,,,,,,,,,,5e9a12283ede3b09d611fc63,2020-11-26_15h57.32.207,lexical_decision_task_MP_exp2,2020.2.5,Win32,60,m,1,0.55004,,,,,,,,0.55004,1,,,,,,97,WORD,"ID",16,client,CLIENT,m,,,,,,0.193518519,-0.15462963,0,0,0,,0,269,269,96,1,
,,,,,,,,,,,,,,,,,,5e9a12283ede3b09d611fc63,2020-11-26_15h57.32.207,lexical_decision_task_MP_exp2,2020.2.5,Win32,60,m,0,0.51556,,,,,,,,0.51556,0,,,,,,285,NW,"ID",33,prudge,PRUDGE,z,,,,,,0.193518519,-0.15462963,0,0,0,,0,270,270,284,1,
,,,,,,,,,,,,,,,,,,5e9a12283ede3b09d611fc63,2020-11-26_15h57.32.207,lexical_decision_task_MP_exp2,2020.2.5,Win32,60,z,1,0.63445,,,,,,,,0.63445,1,,,,,,311,NW,"ID",16,sproly,SPROLY,z,,,,,,0.193518519,-0.15462963,0,0,0,,0,271,271,310,1,
,,,,,,,,,,,,,,,,,,5e9a12283ede3b09d611fc63,2020-11-26_15h57.32.207,lexical_decision_task_MP_exp2,2020.2.5,Win32,60,z,0,0.51577,,,,,,,,0.51577,0,,,,,,59,WORD,"ID",33,splint,SPLINT,m,,,,,,0.193518519,-0.15462963,0,0,0,,0,272,272,58,1,
,,,,,,,,,,,,,,,,,,5e9a12283ede3b09d611fc63,2020-11-26_15h57.32.207,lexical_decision_task_MP_exp2,2020.2.5,Win32,60,z,1,0.790635,,,,,,,,0.790635,1,,,,,,266,NW,"ID",33,varmit,VARMIT,z,,,,,,0.193518519,-0.15462963,0,0,0,,0,273,273,265,1,
,,,,,,,,,,,,,,,,,,5e9a12283ede3b09d611fc63,2020-11-26_15h57.32.207,lexical_decision_task_MP_exp2,2020.2.5,Win32,60,z,1,0.80934,,,,,,,,0.80934,1,,,,,,458,NW,UN,16,chaite,BARCET,z,,,,,,0.193518519,-0.15462963,0,0,0,,0,274,274,457,1,
,,,,,,,,,,,,,,,,,,5e9a12283ede3b09d611fc63,2020-11-26_15h57.32.207,lexical_decision_task_MP_exp2,2020.2.5,Win32,60,m,1,0.749725,,,,,,,,0.749725,1,,,,,,101,WORD,"ID",16,wrench,WRENCH,m,,,,,,0.193518519,-0.15462963,0,0,0,,0,275,275,100,1,
,,,,,,,,,,,,,,,,,,5e9a12283ede3b09d611fc63,2020-11-26_15h57.32.207,lexical_decision_task_MP_exp2,2020.2.5,Win32,60,z,1,0.68339,,,,,,,,0.68339,1,,,,,,401,NW,UN,33,elopia,MUSTIL,z,,,,,,0.193518519,-0.15462963,0,0,0,,0,276,276,400,1,
,,,,,,,,,,,,,,,,,,5e9a12283ede3b09d611fc63,2020-11-26_15h57.32.207,lexical_decision_task_MP_exp2,2020.2.5,Win32,60,m,1,0.559385,,,,,,,,0.559385,1,,,,,,186,WORD,UN,16,course,PORTAL,m,,,,,,0.193518519,-0.15462963,0,0,0,,0,277,277,185,1,
,,,,,,,,,,,,,,,,,,5e9a12283ede3b09d611fc63,2020-11-26_15h57.32.207,lexical_decision_task_MP_exp2,2020.2.5,Win32,60,z,1,0.7858,,,,,,,,0.7858,1,,,,,,318,NW,"ID",16,reagly,REAGLY,z,,,,,,0.193518519,-0.15462963,0,0,0,,0,278,278,317,1,
,,,,,,,,,,,,,,,,,,5e9a12283ede3b09d611fc63,2020-11-26_15h57.32.207,lexical_decision_task_MP_exp2,2020.2.5,Win32,60,m,1,0.65801,,,,,,,,0.65801,1,,,,,,220,WORD,UN,16,mascot,VOYAGE,m,,,,,,0.193518519,-0.15462963,0,0,0,,0,279,279,219,1,
,,,,,,,,,,,,,,,,,,5e9a12283ede3b09d611fc63,2020-11-26_15h57.32.207,lexical_decision_task_MP_exp2,2020.2.5,Win32,60,m,1,0.665345,,,,,,,,0.665345,1,,,,,,118,WORD,"ID",16,flight,FLIGHT,m,,,,,,0.193518519,-0.15462963,0,0,0,,0,280,280,117,1,
,,,,,,,,,,,,,,,,,,5e9a12283ede3b09d611fc63,2020-11-26_15h57.32.207,lexical_decision_task_MP_exp2,2020.2.5,Win32,60,z,1,0.62769,,,,,,,,0.62769,1,,,,,,395,NW,UN,33,flengy,COLURY,z,,,,,,0.193518519,-0.15462963,0,0,0,,0,281,281,394,1,
,,,,,,,,,,,,,,,,,,5e9a12283ede3b09d611fc63,2020-11-26_15h57.32.207,lexical_decision_task_MP_exp2,2020.2.5,Win32,60,m,1,0.663235,,,,,,,,0.663235,1,,,,,,177,WORD,UN,33,inform,ADVENT,m,,,,,,0.193518519,-0.15462963,0,0,0,,0,282,282,176,1,
,,,,,,,,,,,,,,,,,,5e9a12283ede3b09d611fc63,2020-11-26_15h57.32.207,lexical_decision_task_MP_exp2,2020.2.5,Win32,60,z,1,0.717265,,,,,,,,0.717265,1,,,,,,380,NW,UN,33,huniek,CAVORY,z,,,,,,0.193518519,-0.15462963,0,0,0,,0,283,283,379,1,
,,,,,,,,,,,,,,,,,,5e9a12283ede3b09d611fc63,2020-11-26_15h57.32.207,lexical_decision_task_MP_exp2,2020.2.5,Win32,60,z,1,0.61733,,,,,,,,0.61733,1,,,,,,321,NW,"ID",16,miator,MIATOR,z,,,,,,0.193518519,-0.15462963,0,0,0,,0,284,284,320,1,
,,,,,,,,,,,,,,,,,,5e9a12283ede3b09d611fc63,2020-11-26_15h57.32.207,lexical_decision_task_MP_exp2,2020.2.5,Win32,60,m,1,0.70009,,,,,,,,0.70009,1,,,,,,111,WORD,"ID",16,induce,INDUCE,m,,,,,,0.193518519,-0.15462963,0,0,0,,0,285,285,110,1,
,,,,,,,,,,,,,,,,,,5e9a12283ede3b09d611fc63,2020-11-26_15h57.32.207,lexical_decision_task_MP_exp2,2020.2.5,Win32,60,m,1,0.61857,,,,,,,,0.61857,1,,,,,,103,WORD,"ID",16,bounce,BOUNCE,m,,,,,,0.193518519,-0.15462963,0,0,0,,0,286,286,102,1,
,,,,,,,,,,,,,,,,,,5e9a12283ede3b09d611fc63,2020-11-26_15h57.32.207,lexical_decision_task_MP_exp2,2020.2.5,Win32,60,z,1,0.50421,,,,,,,,0.50421,1,,,,,,334,NW,"ID",16,watmeg,WATMEG,z,,,,,,0.193518519,-0.15462963,0,0,0,,0,287,287,333,1,
,,,,,,,,,,,,,,,,,,5e9a12283ede3b09d611fc63,2020-11-26_15h57.32.207,lexical_decision_task_MP_exp2,2020.2.5,Win32,60,m,1,0.568805,,,,,,,,0.568805,1,,,,,,108,WORD,"ID",16,reckon,RECKON,m,,,,,,0.193518519,-0.15462963,0,0,0,,0,288,288,107,1,
,,,,,,,,,,,,,,,,,,5e9a12283ede3b09d611fc63,2020-11-26_15h57.32.207,lexical_decision_task_MP_exp2,2020.2.5,Win32,60,m,1,0.4392,,,,,,,,0.4392,1,,,,,,47,WORD,"ID",33,income,INCOME,m,,,,,,0.193518519,-0.15462963,0,0,0,,0,289,289,46,1,
,,,,,,,,,,,,,,,,,,5e9a12283ede3b09d611fc63,2020-11-26_15h57.32.207,lexical_decision_task_MP_exp2,2020.2.5,Win32,60,m,1,0.608885,,,,,,,,0.608885,1,,,,,,86,WORD,"ID",16,rodent,RODENT,m,,,,,,0.193518519,-0.15462963,0,0,0,,0,290,290,85,1,
,,,,,,,,,,,,,,,,,,5e9a12283ede3b09d611fc63,2020-11-26_15h57.32.207,lexical_decision_task_MP_exp2,2020.2.5,Win32,60,z,0,0.54879,,,,,,,,0.54879,0,,,,,,93,WORD,"ID",16,public,PUBLIC,m,,,,,,0.193518519,-0.15462963,0,0,0,,0,291,291,92,1,
,,,,,,,,,,,,,,,,,,5e9a12283ede3b09d611fc63,2020-11-26_15h57.32.207,lexical_decision_task_MP_exp2,2020.2.5,Win32,60,z,1,0.82694,,,,,,,,0.82694,1,,,,,,377,NW,UN,33,shrile,INJORE,z,,,,,,0.193518519,-0.15462963,0,0,0,,0,292,292,376,1,
,,,,,,,,,,,,,,,,,,5e9a12283ede3b09d611fc63,2020-11-26_15h57.32.207,lexical_decision_task_MP_exp2,2020.2.5,Win32,60,z,1,0.666405,,,,,,,,0.666405,1,,,,,,340,NW,"ID",16,fiatch,FIATCH,z,,,,,,0.193518519,-0.15462963,0,0,0,,0,293,293,339,1,
,,,,,,,,,,,,,,,,,,5e9a12283ede3b09d611fc63,2020-11-26_15h57.32.207,lexical_decision_task_MP_exp2,2020.2.5,Win32,60,m,1,0.553395,,,,,,,,0.553395,1,,,,,,191,WORD,UN,16,absent,STABLE,m,,,,,,0.193518519,-0.15462963,0,0,0,,0,294,294,190,1,
,,,,,,,,,,,,,,,,,,5e9a12283ede3b09d611fc63,2020-11-26_15h57.32.207,lexical_decision_task_MP_exp2,2020.2.5,Win32,60,z,1,0.600045,,,,,,,,0.600045,1,,,,,,479,NW,UN,16,josted,LOBUSH,z,,,,,,0.193518519,-0.15462963,0,0,0,,0,295,295,478,1,
,,,,,,,,,,,,,,,,,,5e9a12283ede3b09d611fc63,2020-11-26_15h57.32.207,lexical_decision_task_MP_exp2,2020.2.5,Win32,60,z,1,0.6004,,,,,,,,0.6004,1,,,,,,344,NW,"ID",16,scrily,SCRILY,z,,,,,,0.193518519,-0.15462963,0,0,0,,0,296,296,343,1,
,,,,,,,,,,,,,,,,,,5e9a12283ede3b09d611fc63,2020-11-26_15h57.32.207,lexical_decision_task_MP_exp2,2020.2.5,Win32,60,m,1,0.63333,,,,,,,,0.63333,1,,,,,,202,WORD,UN,16,phrase,FACTOR,m,,,,,,0.193518519,-0.15462963,0,0,0,,0,297,297,201,1,
,,,,,,,,,,,,,,,,,,5e9a12283ede3b09d611fc63,2020-11-26_15h57.32.207,lexical_decision_task_MP_exp2,2020.2.5,Win32,60,m,1,0.924295,,,,,,,,0.924295,1,,,,,,230,WORD,UN,16,export,FRINGE,m,,,,,,0.193518519,-0.15462963,0,0,0,,0,298,298,229,1,
,,,,,,,,,,,,,,,,,,5e9a12283ede3b09d611fc63,2020-11-26_15h57.32.207,lexical_decision_task_MP_exp2,2020.2.5,Win32,60,m,1,0.599005,,,,,,,,0.599005,1,,,,,,116,WORD,"ID",16,tumble,TUMBLE,m,,,,,,0.193518519,-0.15462963,0,0,0,,0,299,299,115,1,
,,,,,,,,,,,,,,,,,,5e9a12283ede3b09d611fc63,2020-11-26_15h57.32.207,lexical_decision_task_MP_exp2,2020.2.5,Win32,60,z,1,0.66081,,,,,,,,0.66081,1,,,,,,296,NW,"ID",33,beinch,BEINCH,z,,,,,,0.193518519,-0.15462963,0,0,0,,0,300,300,295,1,
,,,,,,,,,,,,,,,,,,5e9a12283ede3b09d611fc63,2020-11-26_15h57.32.207,lexical_decision_task_MP_exp2,2020.2.5,Win32,60,z,1,0.615195,,,,,,,,0.615195,1,,,,,,327,NW,"ID",16,plenac,PLENAC,z,,,,,,0.193518519,-0.15462963,0,0,0,,0,301,301,326,1,
,,,,,,,,,,,,,,,,,,5e9a12283ede3b09d611fc63,2020-11-26_15h57.32.207,lexical_decision_task_MP_exp2,2020.2.5,Win32,60,z,1,0.58642,,,,,,,,0.58642,1,,,,,,459,NW,UN,16,mingar,BAFENT,z,,,,,,0.193518519,-0.15462963,0,0,0,,0,302,302,458,1,
,,,,,,,,,,,,,,,,,,5e9a12283ede3b09d611fc63,2020-11-26_15h57.32.207,lexical_decision_task_MP_exp2,2020.2.5,Win32,60,z,1,0.588485,,,,,,,,0.588485,1,,,,,,434,NW,UN,16,impurb,PITROM,z,,,,,,0.193518519,-0.15462963,0,0,0,,0,303,303,433,1,
,,,,,,,,,,,,,,,,,,5e9a12283ede3b09d611fc63,2020-11-26_15h57.32.207,lexical_decision_task_MP_exp2,2020.2.5,Win32,60,m,1,0.583245,,,,,,,,0.583245,1,,,,,,140,WORD,UN,33,reason,PRINCE,m,,,,,,0.193518519,-0.15462963,0,0,0,,0,304,304,139,1,
,,,,,,,,,,,,,,,,,,5e9a12283ede3b09d611fc63,2020-11-26_15h57.32.207,lexical_decision_task_MP_exp2,2020.2.5,Win32,60,m,1,0.552265,,,,,,,,0.552265,1,,,,,,233,WORD,UN,16,clumsy,NATURE,m,,,,,,0.193518519,-0.15462963,0,0,0,,0,305,305,232,1,
,,,,,,,,,,,,,,,,,,5e9a12283ede3b09d611fc63,2020-11-26_15h57.32.207,lexical_decision_task_MP_exp2,2020.2.5,Win32,60,m,1,0.589345,,,,,,,,0.589345,1,,,,,,219,WORD,UN,16,voyage,BUCKET,m,,,,,,0.193518519,-0.15462963,0,0,0,,0,306,306,218,1,
,,,,,,,,,,,,,,,,,,5e9a12283ede3b09d611fc63,2020-11-26_15h57.32.207,lexical_decision_task_MP_exp2,2020.2.5,Win32,60,m,1,0.6228,,,,,,,,0.6228,1,,,,,,146,WORD,UN,33,garlic,COUPLE,m,,,,,,0.193518519,-0.15462963,0,0,0,,0,307,307,145,1,
,,,,,,,,,,,,,,,,,,5e9a12283ede3b09d611fc63,2020-11-26_15h57.32.207,lexical_decision_task_MP_exp2,2020.2.5,Win32,60,m,1,0.52539,,,,,,,,0.52539,1,,,,,,232,WORD,UN,16,nature,INJECT,m,,,,,,0.193518519,-0.15462963,0,0,0,,0,308,308,231,1,
,,,,,,,,,,,,,,,,,,5e9a12283ede3b09d611fc63,2020-11-26_15h57.32.207,lexical_decision_task_MP_exp2,2020.2.5,Win32,60,m,1,0.57368,,,,,,,,0.57368,1,,,,,,65,WORD,"ID",16,symbol,SYMBOL,m,,,,,,0.193518519,-0.15462963,0,0,0,,0,309,309,64,1,
,,,,,,,,,,,,,,,,,,5e9a12283ede3b09d611fc63,2020-11-26_15h57.32.207,lexical_decision_task_MP_exp2,2020.2.5,Win32,60,z,1,0.566355,,,,,,,,0.566355,1,,,,,,367,NW,UN,33,hornal,SLIQUE,z,,,,,,0.193518519,-0.15462963,0,0,0,,0,310,310,366,1,
,,,,,,,,,,,,,,,,,,5e9a12283ede3b09d611fc63,2020-11-26_15h57.32.207,lexical_decision_task_MP_exp2,2020.2.5,Win32,60,m,1,0.67095,,,,,,,,0.67095,1,,,,,,200,WORD,UN,16,admire,BEACON,m,,,,,,0.193518519,-0.15462963,0,0,0,,0,311,311,199,1,
,,,,,,,,,,,,,,,,,,5e9a12283ede3b09d611fc63,2020-11-26_15h57.32.207,lexical_decision_task_MP_exp2,2020.2.5,Win32,60,m,1,0.53856,,,,,,,,0.53856,1,,,,,,122,WORD,UN,33,strike,LINGER,m,,,,,,0.193518519,-0.15462963,0,0,0,,0,312,312,121,1,
,,,,,,,,,,,,,,,,,,5e9a12283ede3b09d611fc63,2020-11-26_15h57.32.207,lexical_decision_task_MP_exp2,2020.2.5,Win32,60,m,1,0.567645,,,,,,,,0.567645,1,,,,,,37,WORD,"ID",33,insult,INSULT,m,,,,,,0.193518519,-0.15462963,0,0,0,,0,313,313,36,1,
,,,,,,,,,,,,,,,,,,5e9a12283ede3b09d611fc63,2020-11-26_15h57.32.207,lexical_decision_task_MP_exp2,2020.2.5,Win32,60,z,1,0.532115,,,,,,,,0.532115,1,,,,,,276,NW,"ID",33,yarmon,YARMON,z,,,,,,0.193518519,-0.15462963,0,0,0,,0,314,314,275,1,
,,,,,,,,,,,,,,,,,,5e9a12283ede3b09d611fc63,2020-11-26_15h57.32.207,lexical_decision_task_MP_exp2,2020.2.5,Win32,60,z,1,0.61713,,,,,,,,0.61713,1,,,,,,263,NW,"ID",33,dolica,DOLICA,z,,,,,,0.193518519,-0.15462963,0,0,0,,0,315,315,262,1,
,,,,,,,,,,,,,,,,,,5e9a12283ede3b09d611fc63,2020-11-26_15h57.32.207,lexical_decision_task_MP_exp2,2020.2.5,Win32,60,m,1,0.776755,,,,,,,,0.776755,1,,,,,,98,WORD,"ID",16,belong,BELONG,m,,,,,,0.193518519,-0.15462963,0,0,0,,0,316,316,97,1,
,,,,,,,,,,,,,,,,,,5e9a12283ede3b09d611fc63,2020-11-26_15h57.32.207,lexical_decision_task_MP_exp2,2020.2.5,Win32,60,z,1,0.718,,,,,,,,0.718,1,,,,,,319,NW,"ID",16,zomber,ZOMBER,z,,,,,,0.193518519,-0.15462963,0,0,0,,0,317,317,318,1,
,,,,,,,,,,,,,,,,,,5e9a12283ede3b09d611fc63,2020-11-26_15h57.32.207,lexical_decision_task_MP_exp2,2020.2.5,Win32,60,z,1,0.616965,,,,,,,,0.616965,1,,,,,,333,NW,"ID",16,catrie,CATRIE,z,,,,,,0.193518519,-0.15462963,0,0,0,,0,318,318,332,1,
,,,,,,,,,,,,,,,,,,5e9a12283ede3b09d611fc63,2020-11-26_15h57.32.207,lexical_decision_task_MP_exp2,2020.2.5,Win32,60,m,0,0.604445,,,,,,,,0.604445,0,,,,,,425,NW,UN,16,schind,FRUDGE,z,,,,,,0.193518519,-0.15462963,0,0,0,,0,319,319,424,1,
,,,,,,,,,,,,,,,,,,5e9a12283ede3b09d611fc63,2020-11-26_15h57.32.207,lexical_decision_task_MP_exp2,2020.2.5,Win32,60,m,1,0.587045,,,,,,,,0.587045,1,,,,,,167,WORD,UN,33,answer,DESIGN,m,,,,,,0.193518519,-0.15462963,0,0,0,,0,320,320,166,1,
,,,,,,,,,,,,,,,,,,5e9a12283ede3b09d611fc63,2020-11-26_15h57.32.207,lexical_decision_task_MP_exp2,2020.2.5,Win32,60,m,0,0.783145,,,,,,,,0.783145,0,,,,,,416,NW,UN,33,earoud,PATHEL,z,,,,,,0.193518519,-0.15462963,0,0,0,,0,321,321,415,1,
,,,,,,,,,,,,,,,,,,5e9a12283ede3b09d611fc63,2020-11-26_15h57.32.207,lexical_decision_task_MP_exp2,2020.2.5,Win32,60,z,1,0.59798,,,,,,,,0.59798,1,,,,,,312,NW,"ID",16,nerawl,NERAWL,z,,,,,,0.193518519,-0.15462963,0,0,0,,0,322,322,311,1,
,,,,,,,,,,,,,,,,,,5e9a12283ede3b09d611fc63,2020-11-26_15h57.32.207,lexical_decision_task_MP_exp2,2020.2.5,Win32,60,m,1,0.5982,,,,,,,,0.5982,1,,,,,,165,WORD,UN,33,starch,INVEST,m,,,,,,0.193518519,-0.15462963,0,0,0,,0,323,323,164,1,
,,,,,,,,,,,,,,,,,,5e9a12283ede3b09d611fc63,2020-11-26_15h57.32.207,lexical_decision_task_MP_exp2,2020.2.5,Win32,60,m,1,0.659955,,,,,,,,0.659955,1,,,,,,139,WORD,UN,33,prince,DEBRIS,m,,,,,,0.193518519,-0.15462963,0,0,0,,0,324,324,138,1,
,,,,,,,,,,,,,,,,,,5e9a12283ede3b09d611fc63,2020-11-26_15h57.32.207,lexical_decision_task_MP_exp2,2020.2.5,Win32,60,z,1,0.7717,,,,,,,,0.7717,1,,,,,,419,NW,UN,33,gushop,SLOUNT,z,,,,,,0.193518519,-0.15462963,0,0,0,,0,325,325,418,1,
,,,,,,,,,,,,,,,,,,5e9a12283ede3b09d611fc63,2020-11-26_15h57.32.207,lexical_decision_task_MP_exp2,2020.2.5,Win32,60,m,1,0.61569,,,,,,,,0.61569,1,,,,,,123,WORD,UN,33,enough,STRIKE,m,,,,,,0.193518519,-0.15462963,0,0,0,,0,326,326,122,1,
,,,,,,,,,,,,,,,,,,5e9a12283ede3b09d611fc63,2020-11-26_15h57.32.207,lexical_decision_task_MP_exp2,2020.2.5,Win32,60,z,1,0.62103,,,,,,,,0.62103,1,,,,,,280,NW,"ID",33,curbol,CURBOL,z,,,,,,0.193518519,-0.15462963,0,0,0,,0,327,327,279,1,
,,,,,,,,,,,,,,,,,,5e9a12283ede3b09d611fc63,2020-11-26_15h57.32.207,lexical_decision_task_MP_exp2,2020.2.5,Win32,60,z,1,0.606425,,,,,,,,0.606425,1,,,,,,398,NW,UN,33,fouret,BLUNDE,z,,,,,,0.193518519,-0.15462963,0,0,0,,0,328,328,397,1,
,,,,,,,,,,,,,,,,,,5e9a12283ede3b09d611fc63,2020-11-26_15h57.32.207,lexical_decision_task_MP_exp2,2020.2.5,Win32,60,m,1,0.80581,,,,,,,,0.80581,1,,,,,,148,WORD,UN,33,invade,CUSTOM,m,,,,,,0.193518519,-0.15462963,0,0,0,,0,329,329,147,1,
,,,,,,,,,,,,,,,,,,5e9a12283ede3b09d611fc63,2020-11-26_15h57.32.207,lexical_decision_task_MP_exp2,2020.2.5,Win32,60,z,1,0.67255,,,,,,,,0.67255,1,,,,,,461,NW,UN,16,absult,JUSTRE,z,,,,,,0.193518519,-0.15462963,0,0,0,,0,330,330,460,1,
,,,,,,,,,,,,,,,,,,5e9a12283ede3b09d611fc63,2020-11-26_15h57.32.207,lexical_decision_task_MP_exp2,2020.2.5,Win32,60,z,1,0.676895,,,,,,,,0.676895,1,,,,,,242,NW,"ID",33,unwert,UNWERT,z,,,,,,0.193518519,-0.15462963,0,0,0,,0,331,331,241,1,
,,,,,,,,,,,,,,,,,,5e9a12283ede3b09d611fc63,2020-11-26_15h57.32.207,lexical_decision_task_MP_exp2,2020.2.5,Win32,60,z,1,0.716965,,,,,,,,0.716965,1,,,,,,272,NW,"ID",33,damilt,DAMILT,z,,,,,,0.193518519,-0.15462963,0,0,0,,0,332,332,271,1,
,,,,,,,,,,,,,,,,,,5e9a12283ede3b09d611fc63,2020-11-26_15h57.32.207,lexical_decision_task_MP_exp2,2020.2.5,Win32,60,m,1,0.635905,,,,,,,,0.635905,1,,,,,,46,WORD,"ID",33,single,SINGLE,m,,,,,,0.193518519,-0.15462963,0,0,0,,0,333,333,45,1,
,,,,,,,,,,,,,,,,,,5e9a12283ede3b09d611fc63,2020-11-26_15h57.32.207,lexical_decision_task_MP_exp2,2020.2.5,Win32,60,z,1,0.63343,,,,,,,,0.63343,1,,,,,,424,NW,UN,16,urivel,PRAILE,z,,,,,,0.193518519,-0.15462963,0,0,0,,0,334,334,423,1,
,,,,,,,,,,,,,,,,,,5e9a12283ede3b09d611fc63,2020-11-26_15h57.32.207,lexical_decision_task_MP_exp2,2020.2.5,Win32,60,m,1,0.50698,,,,,,,,0.50698,1,,,,,,85,WORD,"ID",16,sprawl,SPRAWL,m,,,,,,0.193518519,-0.15462963,0,0,0,,0,335,335,84,1,
,,,,,,,,,,,,,,,,,,5e9a12283ede3b09d611fc63,2020-11-26_15h57.32.207,lexical_decision_task_MP_exp2,2020.2.5,Win32,60,m,1,0.688505,,,,,,,,0.688505,1,,,,,,94,WORD,"ID",16,travel,TRAVEL,m,,,,,,0.193518519,-0.15462963,0,0,0,,0,336,336,93,1,
,,,,,,,,,,,,,,,,,,5e9a12283ede3b09d611fc63,2020-11-26_15h57.32.207,lexical_decision_task_MP_exp2,2020.2.5,Win32,60,m,1,0.593625,,,,,,,,0.593625,1,,,,,,164,WORD,UN,33,invest,MARKET,m,,,,,,0.193518519,-0.15462963,0,0,0,,0,337,337,163,1,
,,,,,,,,,,,,,,,,,,5e9a12283ede3b09d611fc63,2020-11-26_15h57.32.207,lexical_decision_task_MP_exp2,2020.2.5,Win32,60,z,1,0.54999,,,,,,,,0.54999,1,,,,,,456,NW,UN,16,wanigh,BROGET,z,,,,,,0.193518519,-0.15462963,0,0,0,,0,338,338,455,1,
,,,,,,,,,,,,,,,,,,5e9a12283ede3b09d611fc63,2020-11-26_15h57.32.207,lexical_decision_task_MP_exp2,2020.2.5,Win32,60,m,1,0.7099,,,,,,,,0.7099,1,,,,,,4,WORD,"ID",33,trench,TRENCH,m,,,,,,0.193518519,-0.15462963,0,0,0,,0,339,339,3,1,
,,,,,,,,,,,,,,,,,,5e9a12283ede3b09d611fc63,2020-11-26_15h57.32.207,lexical_decision_task_MP_exp2,2020.2.5,Win32,60,z,1,0.73364,,,,,,,,0.73364,1,,,,,,361,NW,UN,33,tireau,PAUCHE,z,,,,,,0.193518519,-0.15462963,0,0,0,,0,340,340,360,1,
,,,,,,,,,,,,,,,,,,5e9a12283ede3b09d611fc63,2020-11-26_15h57.32.207,lexical_decision_task_MP_exp2,2020.2.5,Win32,60,z,1,0.726755,,,,,,,,0.726755,1,,,,,,390,NW,UN,33,theldy,HATRUS,z,,,,,,0.193518519,-0.15462963,0,0,0,,0,341,341,389,1,
,,,,,,,,,,,,,,,,,,5e9a12283ede3b09d611fc63,2020-11-26_15h57.32.207,lexical_decision_task_MP_exp2,2020.2.5,Win32,60,z,1,0.621005,,,,,,,,0.621005,1,,,,,,376,NW,UN,33,sliant,IGUARE,z,,,,,,0.193518519,-0.15462963,0,0,0,,0,342,342,375,1,
,,,,,,,,,,,,,,,,,,5e9a12283ede3b09d611fc63,2020-11-26_15h57.32.207,lexical_decision_task_MP_exp2,2020.2.5,Win32,60,m,1,0.598145,,,,,,,,0.598145,1,,,,,,107,WORD,"ID",16,slogan,SLOGAN,m,,,,,,0.193518519,-0.15462963,0,0,0,,0,343,343,106,1,
,,,,,,,,,,,,,,,,,,5e9a12283ede3b09d611fc63,2020-11-26_15h57.32.207,lexical_decision_task_MP_exp2,2020.2.5,Win32,60,m,1,0.639495,,,,,,,,0.639495,1,,,,,,195,WORD,UN,16,credit,RESIGN,m,,,,,,0.193518519,-0.15462963,0,0,0,,0,344,344,194,1,
,,,,,,,,,,,,,,,,,,5e9a12283ede3b09d611fc63,2020-11-26_15h57.32.207,lexical_decision_task_MP_exp2,2020.2.5,Win32,60,m,1,0.53302,,,,,,,,0.53302,1,,,,,,205,WORD,UN,16,tailor,LOUNGE,m,,,,,,0.193518519,-0.15462963,0,0,0,,0,345,345,204,1,
,,,,,,,,,,,,,,,,,,5e9a12283ede3b09d611fc63,2020-11-26_15h57.32.207,lexical_decision_task_MP_exp2,2020.2.5,Win32,60,z,1,0.57029,,,,,,,,0.57029,1,,,,,,255,NW,"ID",33,apight,APIGHT,z,,,,,,0.193518519,-0.15462963,0,0,0,,0,346,346,254,1,
,,,,,,,,,,,,,,,,,,5e9a12283ede3b09d611fc63,2020-11-26_15h57.32.207,lexical_decision_task_MP_exp2,2020.2.5,Win32,60,m,1,0.54834,,,,,,,,0.54834,1,,,,,,179,WORD,UN,33,silent,BASKET,m,,,,,,0.193518519,-0.15462963,0,0,0,,0,347,347,178,1,
,,,,,,,,,,,,,,,,,,5e9a12283ede3b09d611fc63,2020-11-26_15h57.32.207,lexical_decision_task_MP_exp2,2020.2.5,Win32,60,m,1,0.59054,,,,,,,,0.59054,1,,,,,,100,WORD,"ID",16,carbon,CARBON,m,,,,,,0.193518519,-0.15462963,0,0,0,,0,348,348,99,1,
,,,,,,,,,,,,,,,,,,5e9a12283ede3b09d611fc63,2020-11-26_15h57.32.207,lexical_decision_task_MP_exp2,2020.2.5,Win32,60,m,1,0.55129,,,,,,,,0.55129,1,,,,,,189,WORD,UN,16,backup,CENSOR,m,,,,,,0.193518519,-0.15462963,0,0,0,,0,349,349,188,1,
,,,,,,,,,,,,,,,,,,5e9a12283ede3b09d611fc63,2020-11-26_15h57.32.207,lexical_decision_task_MP_exp2,2020.2.5,Win32,60,m,1,0.68962,,,,,,,,0.68962,1,,,,,,133,WORD,UN,33,debris,CHROME,m,,,,,,0.193518519,-0.15462963,0,0,0,,0,350,350,132,1,
,,,,,,,,,,,,,,,,,,5e9a12283ede3b09d611fc63,2020-11-26_15h57.32.207,lexical_decision_task_MP_exp2,2020.2.5,Win32,60,z,1,0.58597,,,,,,,,0.58597,1,,,,,,335,NW,"ID",16,desion,DESION,z,,,,,,0.193518519,-0.15462963,0,0,0,,0,351,351,334,1,
,,,,,,,,,,,,,,,,,,5e9a12283ede3b09d611fc63,2020-11-26_15h57.32.207,lexical_decision_task_MP_exp2,2020.2.5,Win32,60,z,1,0.58542,,,,,,,,0.58542,1,,,,,,306,NW,"ID",16,sounge,SOUNGE,z,,,,,,0.193518519,-0.15462963,0,0,0,,0,352,352,305,1,
,,,,,,,,,,,,,,,,,,5e9a12283ede3b09d611fc63,2020-11-26_15h57.32.207,lexical_decision_task_MP_exp2,2020.2.5,Win32,60,z,1,0.515045,,,,,,,,0.515045,1,,,,,,307,NW,"ID",16,kirafe,KIRAFE,z,,,,,,0.193518519,-0.15462963,0,0,0,,0,353,353,306,1,
,,,,,,,,,,,,,,,,,,5e9a12283ede3b09d611fc63,2020-11-26_15h57.32.207,lexical_decision_task_MP_exp2,2020.2.5,Win32,60,z,1,0.541005,,,,,,,,0.541005,1,,,,,,290,NW,"ID",33,splino,SPLINO,z,,,,,,0.193518519,-0.15462963,0,0,0,,0,354,354,289,1,
,,,,,,,,,,,,,,,,,,5e9a12283ede3b09d611fc63,2020-11-26_15h57.32.207,lexical_decision_task_MP_exp2,2020.2.5,Win32,60,z,1,0.582175,,,,,,,,0.582175,1,,,,,,254,NW,"ID",33,varosh,VAROSH,z,,,,,,0.193518519,-0.15462963,0,0,0,,0,355,355,253,1,
,,,,,,,,,,,,,,,,,,5e9a12283ede3b09d611fc63,2020-11-26_15h57.32.207,lexical_decision_task_MP_exp2,2020.2.5,Win32,60,m,1,0.720955,,,,,,,,0.720955,1,,,,,,87,WORD,"ID",16,filter,FILTER,m,,,,,,0.193518519,-0.15462963,0,0,0,,0,356,356,86,1,
,,,,,,,,,,,,,,,,,,5e9a12283ede3b09d611fc63,2020-11-26_15h57.32.207,lexical_decision_task_MP_exp2,2020.2.5,Win32,60,m,1,0.564465,,,,,,,,0.564465,1,,,,,,79,WORD,"ID",16,theory,THEORY,m,,,,,,0.193518519,-0.15462963,0,0,0,,0,357,357,78,1,
,,,,,,,,,,,,,,,,,,5e9a12283ede3b09d611fc63,2020-11-26_15h57.32.207,lexical_decision_task_MP_exp2,2020.2.5,Win32,60,z,1,0.80086,,,,,,,,0.80086,1,,,,,,471,NW,UN,16,cigney,NOBEST,z,,,,,,0.193518519,-0.15462963,0,0,0,,0,358,358,470,1,
,,,,,,,,,,,,,,,,,,5e9a12283ede3b09d611fc63,2020-11-26_15h57.32.207,lexical_decision_task_MP_exp2,2020.2.5,Win32,60,m,1,0.58355,,,,,,,,0.58355,1,,,,,,196,WORD,UN,16,stream,CREDIT,m,,,,,,0.193518519,-0.15462963,0,0,0,,0,359,359,195,1,
,,,,,,,,,,,,,,,,,,5e9a12283ede3b09d611fc63,2020-11-26_15h57.32.207,lexical_decision_task_MP_exp2,2020.2.5,Win32,60,z,1,0.571895,,,,,,,,0.571895,1,,,,,,293,NW,"ID",33,swance,SWANCE,z,,,,,,0.193518519,-0.15462963,0,0,0,,0,360,360,292,1,
,,,,,,,,,,,,,,,,,,5e9a12283ede3b09d611fc63,2020-11-26_15h57.32.207,lexical_decision_task_MP_exp2,2020.2.5,Win32,60,m,1,0.618915,,,,,,,,0.618915,1,,,,,,76,WORD,"ID",16,exotic,EXOTIC,m,,,,,,0.193518519,-0.15462963,0,0,0,,0,361,361,75,1,
,,,,,,,,,,,,,,,,,,5e9a12283ede3b09d611fc63,2020-11-26_15h57.32.207,lexical_decision_task_MP_exp2,2020.2.5,Win32,60,m,1,0.536655,,,,,,,,0.536655,1,,,,,,158,WORD,UN,33,detail,ISLAND,m,,,,,,0.193518519,-0.15462963,0,0,0,space,0,362,362,157,1,5.951175
,,,,,,,,,,,,,,,,,,5e9a12283ede3b09d611fc63,2020-11-26_15h57.32.207,lexical_decision_task_MP_exp2,2020.2.5,Win32,60,z,1,0.58383,,,,,,,,0.58383,1,,,,,,412,NW,UN,33,equats,JILUER,z,,,,,,0.193518519,-0.15462963,0,0,0,,0,363,363,411,1,
,,,,,,,,,,,,,,,,,,5e9a12283ede3b09d611fc63,2020-11-26_15h57.32.207,lexical_decision_task_MP_exp2,2020.2.5,Win32,60,m,1,0.514255,,,,,,,,0.514255,1,,,,,,81,WORD,"ID",16,friend,FRIEND,m,,,,,,0.193518519,-0.15462963,0,0,0,,0,364,364,80,1,
,,,,,,,,,,,,,,,,,,5e9a12283ede3b09d611fc63,2020-11-26_15h57.32.207,lexical_decision_task_MP_exp2,2020.2.5,Win32,60,m,1,0.876585,,,,,,,,0.876585,1,,,,,,183,WORD,UN,16,sleazy,MILDEW,m,,,,,,0.193518519,-0.15462963,0,0,0,,0,365,365,182,1,
,,,,,,,,,,,,,,,,,,5e9a12283ede3b09d611fc63,2020-11-26_15h57.32.207,lexical_decision_task_MP_exp2,2020.2.5,Win32,60,m,1,0.46697,,,,,,,,0.46697,1,,,,,,109,WORD,"ID",16,wonder,WONDER,m,,,,,,0.193518519,-0.15462963,0,0,0,,0,366,366,108,1,
,,,,,,,,,,,,,,,,,,5e9a12283ede3b09d611fc63,2020-11-26_15h57.32.207,lexical_decision_task_MP_exp2,2020.2.5,Win32,60,m,1,0.637045,,,,,,,,0.637045,1,,,,,,35,WORD,"ID",33,socket,SOCKET,m,,,,,,0.193518519,-0.15462963,0,0,0,,0,367,367,34,1,
,,,,,,,,,,,,,,,,,,5e9a12283ede3b09d611fc63,2020-11-26_15h57.32.207,lexical_decision_task_MP_exp2,2020.2.5,Win32,60,m,1,0.588215,,,,,,,,0.588215,1,,,,,,216,WORD,UN,16,liquor,BEHALF,m,,,,,,0.193518519,-0.15462963,0,0,0,,0,368,368,215,1,
,,,,,,,,,,,,,,,,,,5e9a12283ede3b09d611fc63,2020-11-26_15h57.32.207,lexical_decision_task_MP_exp2,2020.2.5,Win32,60,z,1,0.527455,,,,,,,,0.527455,1,,,,,,274,NW,"ID",33,fumblo,FUMBLO,z,,,,,,0.193518519,-0.15462963,0,0,0,,0,369,369,273,1,
,,,,,,,,,,,,,,,,,,5e9a12283ede3b09d611fc63,2020-11-26_15h57.32.207,lexical_decision_task_MP_exp2,2020.2.5,Win32,60,m,1,0.78208,,,,,,,,0.78208,1,,,,,,226,WORD,UN,16,flower,CASINO,m,,,,,,0.193518519,-0.15462963,0,0,0,,0,370,370,225,1,
,,,,,,,,,,,,,,,,,,5e9a12283ede3b09d611fc63,2020-11-26_15h57.32.207,lexical_decision_task_MP_exp2,2020.2.5,Win32,60,m,1,0.71537,,,,,,,,0.71537,1,,,,,,236,WORD,UN,16,poster,PIRATE,m,,,,,,0.193518519,-0.15462963,0,0,0,,0,371,371,235,1,
,,,,,,,,,,,,,,,,,,5e9a12283ede3b09d611fc63,2020-11-26_15h57.32.207,lexical_decision_task_MP_exp2,2020.2.5,Win32,60,m,1,0.615195,,,,,,,,0.615195,1,,,,,,210,WORD,UN,16,infect,MONKEY,m,,,,,,0.193518519,-0.15462963,0,0,0,,0,372,372,209,1,
,,,,,,,,,,,,,,,,,,5e9a12283ede3b09d611fc63,2020-11-26_15h57.32.207,lexical_decision_task_MP_exp2,2020.2.5,Win32,60,z,1,0.6165,,,,,,,,0.6165,1,,,,,,440,NW,UN,16,cainky,SARIDE,z,,,,,,0.193518519,-0.15462963,0,0,0,,0,373,373,439,1,
,,,,,,,,,,,,,,,,,,5e9a12283ede3b09d611fc63,2020-11-26_15h57.32.207,lexical_decision_task_MP_exp2,2020.2.5,Win32,60,m,1,0.75075,,,,,,,,0.75075,1,,,,,,199,WORD,UN,16,beacon,INVOKE,m,,,,,,0.193518519,-0.15462963,0,0,0,,0,374,374,198,1,
,,,,,,,,,,,,,,,,,,5e9a12283ede3b09d611fc63,2020-11-26_15h57.32.207,lexical_decision_task_MP_exp2,2020.2.5,Win32,60,z,1,0.564415,,,,,,,,0.564415,1,,,,,,251,NW,"ID",33,lupict,LUPICT,z,,,,,,0.193518519,-0.15462963,0,0,0,,0,375,375,250,1,
,,,,,,,,,,,,,,,,,,5e9a12283ede3b09d611fc63,2020-11-26_15h57.32.207,lexical_decision_task_MP_exp2,2020.2.5,Win32,60,m,1,0.50769,,,,,,,,0.50769,1,,,,,,155,WORD,UN,33,cradle,LIZARD,m,,,,,,0.193518519,-0.15462963,0,0,0,,0,376,376,154,1,
,,,,,,,,,,,,,,,,,,5e9a12283ede3b09d611fc63,2020-11-26_15h57.32.207,lexical_decision_task_MP_exp2,2020.2.5,Win32,60,z,1,0.74319,,,,,,,,0.74319,1,,,,,,275,NW,"ID",33,sleirt,SLEIRT,z,,,,,,0.193518519,-0.15462963,0,0,0,,0,377,377,274,1,
,,,,,,,,,,,,,,,,,,5e9a12283ede3b09d611fc63,2020-11-26_15h57.32.207,lexical_decision_task_MP_exp2,2020.2.5,Win32,60,z,1,0.58336,,,,,,,,0.58336,1,,,,,,356,NW,"ID",16,othnis,OTHNIS,z,,,,,,0.193518519,-0.15462963,0,0,0,,0,378,378,355,1,
,,,,,,,,,,,,,,,,,,5e9a12283ede3b09d611fc63,2020-11-26_15h57.32.207,lexical_decision_task_MP_exp2,2020.2.5,Win32,60,z,1,0.557655,,,,,,,,0.557655,1,,,,,,474,NW,UN,16,gorbie,HABLIN,z,,,,,,0.193518519,-0.15462963,0,0,0,,0,379,379,473,1,
,,,,,,,,,,,,,,,,,,5e9a12283ede3b09d611fc63,2020-11-26_15h57.32.207,lexical_decision_task_MP_exp2,2020.2.5,Win32,60,m,1,0.94981,,,,,,,,0.94981,1,,,,,,92,WORD,"ID",16,strand,STRAND,m,,,,,,0.193518519,-0.15462963,0,0,0,,0,380,380,91,1,
,,,,,,,,,,,,,,,,,,5e9a12283ede3b09d611fc63,2020-11-26_15h57.32.207,lexical_decision_task_MP_exp2,2020.2.5,Win32,60,m,1,0.487085,,,,,,,,0.487085,1,,,,,,56,WORD,"ID",33,ambush,AMBUSH,m,,,,,,0.193518519,-0.15462963,0,0,0,,0,381,381,55,1,
,,,,,,,,,,,,,,,,,,5e9a12283ede3b09d611fc63,2020-11-26_15h57.32.207,lexical_decision_task_MP_exp2,2020.2.5,Win32,60,m,1,0.44851,,,,,,,,0.44851,1,,,,,,53,WORD,"ID",33,police,POLICE,m,,,,,,0.193518519,-0.15462963,0,0,0,,0,382,382,52,1,
,,,,,,,,,,,,,,,,,,5e9a12283ede3b09d611fc63,2020-11-26_15h57.32.207,lexical_decision_task_MP_exp2,2020.2.5,Win32,60,z,1,0.458885,,,,,,,,0.458885,1,,,,,,267,NW,"ID",33,pasink,PASINK,z,,,,,,0.193518519,-0.15462963,0,0,0,,0,383,383,266,1,
,,,,,,,,,,,,,,,,,,5e9a12283ede3b09d611fc63,2020-11-26_15h57.32.207,lexical_decision_task_MP_exp2,2020.2.5,Win32,60,m,1,0.57653,,,,,,,,0.57653,1,,,,,,17,WORD,"ID",33,charge,CHARGE,m,,,,,,0.193518519,-0.15462963,0,0,0,,0,384,384,16,1,
,,,,,,,,,,,,,,,,,,5e9a12283ede3b09d611fc63,2020-11-26_15h57.32.207,lexical_decision_task_MP_exp2,2020.2.5,Win32,60,z,1,0.55443,,,,,,,,0.55443,1,,,,,,439,NW,UN,16,saride,LIMPOR,z,,,,,,0.193518519,-0.15462963,0,0,0,,0,385,385,438,1,
,,,,,,,,,,,,,,,,,,5e9a12283ede3b09d611fc63,2020-11-26_15h57.32.207,lexical_decision_task_MP_exp2,2020.2.5,Win32,60,z,1,0.548915,,,,,,,,0.548915,1,,,,,,473,NW,UN,16,hablin,CRIBLE,z,,,,,,0.193518519,-0.15462963,0,0,0,,0,386,386,472,1,
,,,,,,,,,,,,,,,,,,5e9a12283ede3b09d611fc63,2020-11-26_15h57.32.207,lexical_decision_task_MP_exp2,2020.2.5,Win32,60,z,1,0.49874,,,,,,,,0.49874,1,,,,,,468,NW,UN,16,padifs,WICTOR,z,,,,,,0.193518519,-0.15462963,0,0,0,,0,387,387,467,1,
,,,,,,,,,,,,,,,,,,5e9a12283ede3b09d611fc63,2020-11-26_15h57.32.207,lexical_decision_task_MP_exp2,2020.2.5,Win32,60,z,1,0.548525,,,,,,,,0.548525,1,,,,,,421,NW,UN,16,alcoud,KNISMA,z,,,,,,0.193518519,-0.15462963,0,0,0,,0,388,388,420,1,
,,,,,,,,,,,,,,,,,,5e9a12283ede3b09d611fc63,2020-11-26_15h57.32.207,lexical_decision_task_MP_exp2,2020.2.5,Win32,60,m,1,0.617035,,,,,,,,0.617035,1,,,,,,198,WORD,UN,16,invoke,WICKED,m,,,,,,0.193518519,-0.15462963,0,0,0,,0,389,389,197,1,
,,,,,,,,,,,,,,,,,,5e9a12283ede3b09d611fc63,2020-11-26_15h57.32.207,lexical_decision_task_MP_exp2,2020.2.5,Win32,60,m,1,0.572925,,,,,,,,0.572925,1,,,,,,2,WORD,"ID",33,bridge,BRIDGE,m,,,,,,0.193518519,-0.15462963,0,0,0,,0,390,390,1,1,
,,,,,,,,,,,,,,,,,,5e9a12283ede3b09d611fc63,2020-11-26_15h57.32.207,lexical_decision_task_MP_exp2,2020.2.5,Win32,60,m,1,0.51464,,,,,,,,0.51464,1,,,,,,49,WORD,"ID",33,survey,SURVEY,m,,,,,,0.193518519,-0.15462963,0,0,0,,0,391,391,48,1,
,,,,,,,,,,,,,,,,,,5e9a12283ede3b09d611fc63,2020-11-26_15h57.32.207,lexical_decision_task_MP_exp2,2020.2.5,Win32,60,m,1,0.45633,,,,,,,,0.45633,1,,,,,,51,WORD,"ID",33,hungry,HUNGRY,m,,,,,,0.193518519,-0.15462963,0,0,0,,0,392,392,50,1,
,,,,,,,,,,,,,,,,,,5e9a12283ede3b09d611fc63,2020-11-26_15h57.32.207,lexical_decision_task_MP_exp2,2020.2.5,Win32,60,m,1,0.73188,,,,,,,,0.73188,1,,,,,,15,WORD,"ID",33,amount,AMOUNT,m,,,,,,0.193518519,-0.15462963,0,0,0,,0,393,393,14,1,
,,,,,,,,,,,,,,,,,,5e9a12283ede3b09d611fc63,2020-11-26_15h57.32.207,lexical_decision_task_MP_exp2,2020.2.5,Win32,60,z,1,0.63311,,,,,,,,0.63311,1,,,,,,454,NW,UN,16,tondle,SCOUGE,z,,,,,,0.193518519,-0.15462963,0,0,0,,0,394,394,453,1,
,,,,,,,,,,,,,,,,,,5e9a12283ede3b09d611fc63,2020-11-26_15h57.32.207,lexical_decision_task_MP_exp2,2020.2.5,Win32,60,z,1,0.643195,,,,,,,,0.643195,1,,,,,,414,NW,UN,33,higsta,SERBOL,z,,,,,,0.193518519,-0.15462963,0,0,0,,0,395,395,413,1,
,,,,,,,,,,,,,,,,,,5e9a12283ede3b09d611fc63,2020-11-26_15h57.32.207,lexical_decision_task_MP_exp2,2020.2.5,Win32,60,m,1,0.941905,,,,,,,,0.941905,1,,,,,,7,WORD,"ID",33,anchor,ANCHOR,m,,,,,,0.193518519,-0.15462963,0,0,0,,0,396,396,6,1,
