counterbalancing_condition,instr_done_keyboard.keys,instr_done_keyboard.rt,instr_done_touch.x,instr_done_touch.y,instr_done_touch.leftButton,instr_done_touch.midButton,instr_done_touch.rightButton,instruction_pages.thisRepN,instruction_pages.thisTrialN,instruction_pages.thisN,instruction_pages.thisIndex,instruction_pages.ran,pageN,phase,instruct_text,has_image,instruct_image,participant,date,expName,psychopyVersion,OS,frameRate,response.keys,response.corr,touch_resp.x,touch_resp.y,touch_resp.leftButton,touch_resp.midButton,touch_resp.rightButton,touch_resp.time,touch_resp.clicked_name,rt,corr,practice_trials.thisRepN,practice_trials.thisTrialN,practice_trials.thisN,practice_trials.thisIndex,practice_trials.ran,TrialID,StimulusType,Condition,PrimeDuration,Prime,Target,corrAns,response.rt,end_of_practice_trials_pages.thisRepN,end_of_practice_trials_pages.thisTrialN,end_of_practice_trials_pages.thisN,end_of_practice_trials_pages.thisIndex,end_of_practice_trials_pages.ran,break_done_touch.x,break_done_touch.y,break_done_touch.leftButton,break_done_touch.midButton,break_done_touch.rightButton,break_done_keyboard.keys,experiment_trials.thisRepN,experiment_trials.thisTrialN,experiment_trials.thisN,experiment_trials.thisIndex,experiment_trials.ran,break_done_keyboard.rt
2,space,11.79919,-0.555555556,0.013333333,0,0,0,0,0,0,0,1,1,instructions,"INSTRUCTIONS
At the start of each trial, look at the hash marks (######) in the center of the screen. After a moment, a string of letters will appear. Your task is to indicate if the letter string forms a word or not (i.e., if it is a nonword). For example, AUTHOR is a word while AUTHON is a nonword.

Press the space bar or touch the button below to continue.",0,,5ea0355ad8cdd9000a122a30,2020-11-27_15h01.54.705,lexical_decision_task_MP_exp2,2020.2.5,Win32,60,,,,,,,,,,,,,,,,,,,,,,,,,,,,,,,,,,,,,,,,,
,space,12.20733,-0.555555556,0.013333333,0,0,0,0,1,1,1,1,2,instructions,"If your device has a keyboard, press the 'Z' key for nonwords and the 'M' key for words.





Press the space bar or touch the button below to continue.",1,keyboard-example.gif,5ea0355ad8cdd9000a122a30,2020-11-27_15h01.54.705,lexical_decision_task_MP_exp2,2020.2.5,Win32,60,,,,,,,,,,,,,,,,,,,,,,,,,,,,,,,,,,,,,,,,,
,space,4.571295,-0.555555556,0.013333333,0,0,0,0,2,2,2,1,3,instructions,"If you are using a touchscreen only device, use the buttons on the screen. Do not use the mouse.





Press the space bar or touch the button below to continue.",1,touchscreen-example.gif,5ea0355ad8cdd9000a122a30,2020-11-27_15h01.54.705,lexical_decision_task_MP_exp2,2020.2.5,Win32,60,,,,,,,,,,,,,,,,,,,,,,,,,,,,,,,,,,,,,,,,,
,space,12.525365,-0.555555556,0.013333333,0,0,0,0,3,3,3,1,4,instructions,"It is very important that you respond as quickly and accurately as possible, as each letter string will only be on the screen for two seconds. If you do not respond within this time, the message 'Too slow!' will be displayed and the experiment will progress to the next letter string. The first 20 trials will be practice trials and you will receive feedback on your answers. 

Press the space bar or touch the button below to start the practice trials.",0,,5ea0355ad8cdd9000a122a30,2020-11-27_15h01.54.705,lexical_decision_task_MP_exp2,2020.2.5,Win32,60,,,,,,,,,,,,,,,,,,,,,,,,,,,,,,,,,,,,,,,,,
,,,,,,,,,,,,,,,,,,5ea0355ad8cdd9000a122a30,2020-11-27_15h01.54.705,lexical_decision_task_MP_exp2,2020.2.5,Win32,60,,0,,,,,,,,,-1,0,0,0,5,1,1006,WORD,UN,33,frenzy,OBTAIN,m,,,,,,,,,,,,,,,,,,
,,,,,,,,,,,,,,,,,,5ea0355ad8cdd9000a122a30,2020-11-27_15h01.54.705,lexical_decision_task_MP_exp2,2020.2.5,Win32,60,m,1,,,,,,,,1.06576,1,0,1,1,7,1,1008,WORD,UN,16,hurdle,VOLUME,m,1.06576,,,,,,,,,,,,,,,,,
,,,,,,,,,,,,,,,,,,5ea0355ad8cdd9000a122a30,2020-11-27_15h01.54.705,lexical_decision_task_MP_exp2,2020.2.5,Win32,60,z,1,,,,,,,,1.0535,1,0,2,2,11,1,1012,NW,"ID",16,rashet,RASHET,z,1.0535,,,,,,,,,,,,,,,,,
,,,,,,,,,,,,,,,,,,5ea0355ad8cdd9000a122a30,2020-11-27_15h01.54.705,lexical_decision_task_MP_exp2,2020.2.5,Win32,60,z,1,,,,,,,,0.716785,1,0,3,3,12,1,1013,NW,UN,33,adveil,SPRINY,z,0.716785,,,,,,,,,,,,,,,,,
,,,,,,,,,,,,,,,,,,5ea0355ad8cdd9000a122a30,2020-11-27_15h01.54.705,lexical_decision_task_MP_exp2,2020.2.5,Win32,60,z,1,,,,,,,,0.853185,1,0,4,4,10,1,1011,NW,"ID",16,inlade,INLADE,z,0.853185,,,,,,,,,,,,,,,,,
,,,,,,,,,,,,,,,,,,5ea0355ad8cdd9000a122a30,2020-11-27_15h01.54.705,lexical_decision_task_MP_exp2,2020.2.5,Win32,60,z,1,,,,,,,,0.687155,1,0,5,5,15,1,1016,NW,UN,16,mushed,WHAISE,z,0.687155,,,,,,,,,,,,,,,,,
,,,,,,,,,,,,,,,,,,5ea0355ad8cdd9000a122a30,2020-11-27_15h01.54.705,lexical_decision_task_MP_exp2,2020.2.5,Win32,60,z,1,,,,,,,,0.665565,1,0,6,6,14,1,1015,NW,UN,16,miaber,THRALE,z,0.665565,,,,,,,,,,,,,,,,,
,,,,,,,,,,,,,,,,,,5ea0355ad8cdd9000a122a30,2020-11-27_15h01.54.705,lexical_decision_task_MP_exp2,2020.2.5,Win32,60,m,1,,,,,,,,0.558285,1,0,7,7,3,1,1004,WORD,"ID",16,matrix,MATRIX,m,0.558285,,,,,,,,,,,,,,,,,
,,,,,,,,,,,,,,,,,,5ea0355ad8cdd9000a122a30,2020-11-27_15h01.54.705,lexical_decision_task_MP_exp2,2020.2.5,Win32,60,m,1,,,,,,,,0.78137,1,0,8,8,4,1,1005,WORD,UN,33,abound,SQUEAK,m,0.78137,,,,,,,,,,,,,,,,,
,,,,,,,,,,,,,,,,,,5ea0355ad8cdd9000a122a30,2020-11-27_15h01.54.705,lexical_decision_task_MP_exp2,2020.2.5,Win32,60,m,1,,,,,,,,0.700935,1,0,9,9,6,1,1007,WORD,UN,16,tropic,ZOMBIE,m,0.700935,,,,,,,,,,,,,,,,,
,,,,,,,,,,,,,,,,,,5ea0355ad8cdd9000a122a30,2020-11-27_15h01.54.705,lexical_decision_task_MP_exp2,2020.2.5,Win32,60,z,0,,,,,,,,0.5359,0,0,10,10,2,1,1003,WORD,"ID",16,almond,ALMOND,m,0.5359,,,,,,,,,,,,,,,,,
,,,,,,,,,,,,,,,,,,5ea0355ad8cdd9000a122a30,2020-11-27_15h01.54.705,lexical_decision_task_MP_exp2,2020.2.5,Win32,60,m,1,,,,,,,,0.935,1,0,11,11,1,1,1002,WORD,"ID",33,adjust,ADJUST,m,0.935,,,,,,,,,,,,,,,,,
,,,,,,,,,,,,,,,,,,5ea0355ad8cdd9000a122a30,2020-11-27_15h01.54.705,lexical_decision_task_MP_exp2,2020.2.5,Win32,60,m,1,,,,,,,,0.67796,1,0,12,12,0,1,1001,WORD,"ID",33,utopia,UTOPIA,m,0.67796,,,,,,,,,,,,,,,,,
,,,,,,,,,,,,,,,,,,5ea0355ad8cdd9000a122a30,2020-11-27_15h01.54.705,lexical_decision_task_MP_exp2,2020.2.5,Win32,60,z,1,,,,,,,,0.720355,1,0,13,13,9,1,1010,NW,"ID",33,fariny,FARINY,z,0.720355,,,,,,,,,,,,,,,,,
,,,,,,,,,,,,,,,,,,5ea0355ad8cdd9000a122a30,2020-11-27_15h01.54.705,lexical_decision_task_MP_exp2,2020.2.5,Win32,60,z,1,,,,,,,,0.730225,1,0,14,14,13,1,1014,NW,UN,33,winfer,ROUPET,z,0.730225,,,,,,,,,,,,,,,,,
,,,,,,,,,,,,,,,,,,5ea0355ad8cdd9000a122a30,2020-11-27_15h01.54.705,lexical_decision_task_MP_exp2,2020.2.5,Win32,60,z,1,,,,,,,,0.721915,1,0,15,15,8,1,1009,NW,"ID",33,aslert,ASLERT,z,0.721915,,,,,,,,,,,,,,,,,
,space,8.827705,-0.555555556,0.013333333,0,0,0,,,,,,1,end_of_practice,"You have completed the practice trials. During the experimental trials, you will not receive feedback, but it is very important that you respond as quickly and accurately as possible. 
Before you begin, please ensure that you are in a comfortable and quiet location and will not be disturbed for about 15 minutes, as we cannot use your data if you do not complete all the trials. 
There will be opportunities to take breaks at regular intervals during the experiment. When you are ready to start the experimental trials, please press space or touch the button below.",,,5ea0355ad8cdd9000a122a30,2020-11-27_15h01.54.705,lexical_decision_task_MP_exp2,2020.2.5,Win32,60,,,,,,,,,,,,,,,,,,,,,,,,,0,0,0,0,1,,,,,,,,,,,,
,,,,,,,,,,,,,,,,,,5ea0355ad8cdd9000a122a30,2020-11-27_15h01.54.705,lexical_decision_task_MP_exp2,2020.2.5,Win32,60,z,1,,,,,,,,1.41503,1,,,,,,322,NW,"ID",33,slanch,SLANCH,z,1.41503,,,,,,-0.555555556,0.013333333,0,0,0,,0,0,0,261,1,
,,,,,,,,,,,,,,,,,,5ea0355ad8cdd9000a122a30,2020-11-27_15h01.54.705,lexical_decision_task_MP_exp2,2020.2.5,Win32,60,z,1,,,,,,,,0.73647,1,,,,,,439,NW,UN,33,saride,LIMPOR,z,0.73647,,,,,,-0.555555556,0.013333333,0,0,0,,0,1,1,378,1,
,,,,,,,,,,,,,,,,,,5ea0355ad8cdd9000a122a30,2020-11-27_15h01.54.705,lexical_decision_task_MP_exp2,2020.2.5,Win32,60,z,1,,,,,,,,0.751665,1,,,,,,373,NW,"ID",16,bigent,BIGENT,z,0.751665,,,,,,-0.555555556,0.013333333,0,0,0,,0,2,2,312,1,
,,,,,,,,,,,,,,,,,,5ea0355ad8cdd9000a122a30,2020-11-27_15h01.54.705,lexical_decision_task_MP_exp2,2020.2.5,Win32,60,m,1,,,,,,,,0.62082,1,,,,,,224,WORD,UN,33,vulgar,PERIOD,m,0.62082,,,,,,-0.555555556,0.013333333,0,0,0,,0,3,3,163,1,
,,,,,,,,,,,,,,,,,,5ea0355ad8cdd9000a122a30,2020-11-27_15h01.54.705,lexical_decision_task_MP_exp2,2020.2.5,Win32,60,m,1,,,,,,,,0.51495,1,,,,,,175,WORD,"ID",16,fabric,FABRIC,m,0.51495,,,,,,-0.555555556,0.013333333,0,0,0,,0,4,4,114,1,
,,,,,,,,,,,,,,,,,,5ea0355ad8cdd9000a122a30,2020-11-27_15h01.54.705,lexical_decision_task_MP_exp2,2020.2.5,Win32,60,z,1,,,,,,,,0.58765,1,,,,,,453,NW,UN,33,scouge,BOLVIS,z,0.58765,,,,,,-0.555555556,0.013333333,0,0,0,,0,5,5,392,1,
,,,,,,,,,,,,,,,,,,5ea0355ad8cdd9000a122a30,2020-11-27_15h01.54.705,lexical_decision_task_MP_exp2,2020.2.5,Win32,60,m,1,,,,,,,,0.541735,1,,,,,,88,WORD,"ID",33,hunger,HUNGER,m,0.541735,,,,,,-0.555555556,0.013333333,0,0,0,,0,6,6,27,1,
,,,,,,,,,,,,,,,,,,5ea0355ad8cdd9000a122a30,2020-11-27_15h01.54.705,lexical_decision_task_MP_exp2,2020.2.5,Win32,60,m,1,,,,,,,,0.620175,1,,,,,,12,WORD,UN,16,strive,ORANGE,m,0.620175,,,,,,-0.555555556,0.013333333,0,0,0,,0,7,7,191,1,
,,,,,,,,,,,,,,,,,,5ea0355ad8cdd9000a122a30,2020-11-27_15h01.54.705,lexical_decision_task_MP_exp2,2020.2.5,Win32,60,m,1,,,,,,,,0.604965,1,,,,,,236,WORD,UN,33,grumpy,PIRATE,m,0.604965,,,,,,-0.555555556,0.013333333,0,0,0,,0,8,8,175,1,
,,,,,,,,,,,,,,,,,,5ea0355ad8cdd9000a122a30,2020-11-27_15h01.54.705,lexical_decision_task_MP_exp2,2020.2.5,Win32,60,m,1,,,,,,,,0.619125,1,,,,,,239,WORD,UN,33,forest,LUMBER,m,0.619125,,,,,,-0.555555556,0.013333333,0,0,0,,0,9,9,178,1,
,,,,,,,,,,,,,,,,,,5ea0355ad8cdd9000a122a30,2020-11-27_15h01.54.705,lexical_decision_task_MP_exp2,2020.2.5,Win32,60,z,1,,,,,,,,0.60494,1,,,,,,405,NW,"ID",16,flumni,FLUMNI,z,0.60494,,,,,,-0.555555556,0.013333333,0,0,0,,0,10,10,344,1,
,,,,,,,,,,,,,,,,,,5ea0355ad8cdd9000a122a30,2020-11-27_15h01.54.705,lexical_decision_task_MP_exp2,2020.2.5,Win32,60,z,1,,,,,,,,0.67079,1,,,,,,377,NW,"ID",16,injore,INJORE,z,0.67079,,,,,,-0.555555556,0.013333333,0,0,0,,0,11,11,316,1,
,,,,,,,,,,,,,,,,,,5ea0355ad8cdd9000a122a30,2020-11-27_15h01.54.705,lexical_decision_task_MP_exp2,2020.2.5,Win32,60,z,1,,,,,,,,0.574795,1,,,,,,286,NW,UN,16,nymbel,RELDON,z,0.574795,,,,,,-0.555555556,0.013333333,0,0,0,,0,12,12,465,1,
,,,,,,,,,,,,,,,,,,5ea0355ad8cdd9000a122a30,2020-11-27_15h01.54.705,lexical_decision_task_MP_exp2,2020.2.5,Win32,60,m,1,,,,,,,,0.54759,1,,,,,,91,WORD,"ID",33,expand,EXPAND,m,0.54759,,,,,,-0.555555556,0.013333333,0,0,0,,0,13,13,30,1,
,,,,,,,,,,,,,,,,,,5ea0355ad8cdd9000a122a30,2020-11-27_15h01.54.705,lexical_decision_task_MP_exp2,2020.2.5,Win32,60,m,1,,,,,,,,0.5495,1,,,,,,93,WORD,"ID",33,public,PUBLIC,m,0.5495,,,,,,-0.555555556,0.013333333,0,0,0,,0,14,14,32,1,
,,,,,,,,,,,,,,,,,,5ea0355ad8cdd9000a122a30,2020-11-27_15h01.54.705,lexical_decision_task_MP_exp2,2020.2.5,Win32,60,z,1,,,,,,,,0.54948,1,,,,,,423,NW,UN,33,praile,STRELD,z,0.54948,,,,,,-0.555555556,0.013333333,0,0,0,,0,15,15,362,1,
,,,,,,,,,,,,,,,,,,5ea0355ad8cdd9000a122a30,2020-11-27_15h01.54.705,lexical_decision_task_MP_exp2,2020.2.5,Win32,60,z,1,,,,,,,,0.85781,1,,,,,,359,NW,"ID",33,fonver,FONVER,z,0.85781,,,,,,-0.555555556,0.013333333,0,0,0,,0,16,16,298,1,
,,,,,,,,,,,,,,,,,,5ea0355ad8cdd9000a122a30,2020-11-27_15h01.54.705,lexical_decision_task_MP_exp2,2020.2.5,Win32,60,z,1,,,,,,,,0.563905,1,,,,,,271,NW,UN,16,damilt,AUBRID,z,0.563905,,,,,,-0.555555556,0.013333333,0,0,0,,0,17,17,450,1,
,,,,,,,,,,,,,,,,,,5ea0355ad8cdd9000a122a30,2020-11-27_15h01.54.705,lexical_decision_task_MP_exp2,2020.2.5,Win32,60,m,1,,,,,,,,0.757535,1,,,,,,42,WORD,UN,16,tongue,CHAPEL,m,0.757535,,,,,,-0.555555556,0.013333333,0,0,0,,0,18,18,221,1,
,,,,,,,,,,,,,,,,,,5ea0355ad8cdd9000a122a30,2020-11-27_15h01.54.705,lexical_decision_task_MP_exp2,2020.2.5,Win32,60,m,1,,,,,,,,0.537425,1,,,,,,172,WORD,"ID",16,patrol,PATROL,m,0.537425,,,,,,-0.555555556,0.013333333,0,0,0,,0,19,19,111,1,
,,,,,,,,,,,,,,,,,,5ea0355ad8cdd9000a122a30,2020-11-27_15h01.54.705,lexical_decision_task_MP_exp2,2020.2.5,Win32,60,m,1,,,,,,,,0.58556,1,,,,,,20,WORD,UN,16,simple,BREAST,m,0.58556,,,,,,-0.555555556,0.013333333,0,0,0,,0,20,20,199,1,
,,,,,,,,,,,,,,,,,,5ea0355ad8cdd9000a122a30,2020-11-27_15h01.54.705,lexical_decision_task_MP_exp2,2020.2.5,Win32,60,z,1,,,,,,,,0.657045,1,,,,,,372,NW,"ID",16,ramily,RAMILY,z,0.657045,,,,,,-0.555555556,0.013333333,0,0,0,,0,21,21,311,1,
,,,,,,,,,,,,,,,,,,5ea0355ad8cdd9000a122a30,2020-11-27_15h01.54.705,lexical_decision_task_MP_exp2,2020.2.5,Win32,60,m,1,,,,,,,,0.63245,1,,,,,,146,WORD,"ID",16,couple,COUPLE,m,0.63245,,,,,,-0.555555556,0.013333333,0,0,0,,0,22,22,85,1,
,,,,,,,,,,,,,,,,,,5ea0355ad8cdd9000a122a30,2020-11-27_15h01.54.705,lexical_decision_task_MP_exp2,2020.2.5,Win32,60,m,1,,,,,,,,0.546825,1,,,,,,201,WORD,UN,33,factor,ADMIRE,m,0.546825,,,,,,-0.555555556,0.013333333,0,0,0,,0,23,23,140,1,
,,,,,,,,,,,,,,,,,,5ea0355ad8cdd9000a122a30,2020-11-27_15h01.54.705,lexical_decision_task_MP_exp2,2020.2.5,Win32,60,m,1,,,,,,,,0.54128,1,,,,,,3,WORD,UN,16,trench,KNIGHT,m,0.54128,,,,,,-0.555555556,0.013333333,0,0,0,,0,24,24,182,1,
,,,,,,,,,,,,,,,,,,5ea0355ad8cdd9000a122a30,2020-11-27_15h01.54.705,lexical_decision_task_MP_exp2,2020.2.5,Win32,60,m,1,,,,,,,,0.556835,1,,,,,,190,WORD,UN,33,stable,BACKUP,m,0.556835,,,,,,-0.555555556,0.013333333,0,0,0,,0,25,25,129,1,
,,,,,,,,,,,,,,,,,,5ea0355ad8cdd9000a122a30,2020-11-27_15h01.54.705,lexical_decision_task_MP_exp2,2020.2.5,Win32,60,m,1,,,,,,,,0.59718,1,,,,,,199,WORD,UN,33,plague,INVOKE,m,0.59718,,,,,,-0.555555556,0.013333333,0,0,0,,0,26,26,138,1,
,,,,,,,,,,,,,,,,,,5ea0355ad8cdd9000a122a30,2020-11-27_15h01.54.705,lexical_decision_task_MP_exp2,2020.2.5,Win32,60,z,1,,,,,,,,0.56675,1,,,,,,336,NW,"ID",33,ghodus,GHODUS,z,0.56675,,,,,,-0.555555556,0.013333333,0,0,0,,0,27,27,275,1,
,,,,,,,,,,,,,,,,,,5ea0355ad8cdd9000a122a30,2020-11-27_15h01.54.705,lexical_decision_task_MP_exp2,2020.2.5,Win32,60,m,1,,,,,,,,0.64589,1,,,,,,196,WORD,UN,33,stream,CREDIT,m,0.64589,,,,,,-0.555555556,0.013333333,0,0,0,,0,28,28,135,1,
,,,,,,,,,,,,,,,,,,5ea0355ad8cdd9000a122a30,2020-11-27_15h01.54.705,lexical_decision_task_MP_exp2,2020.2.5,Win32,60,m,1,,,,,,,,0.55144,1,,,,,,108,WORD,"ID",33,reckon,RECKON,m,0.55144,,,,,,-0.555555556,0.013333333,0,0,0,,0,29,29,47,1,
,,,,,,,,,,,,,,,,,,5ea0355ad8cdd9000a122a30,2020-11-27_15h01.54.705,lexical_decision_task_MP_exp2,2020.2.5,Win32,60,m,1,,,,,,,,0.56698,1,,,,,,218,WORD,UN,33,bucket,SHRINK,m,0.56698,,,,,,-0.555555556,0.013333333,0,0,0,,0,30,30,157,1,
,,,,,,,,,,,,,,,,,,5ea0355ad8cdd9000a122a30,2020-11-27_15h01.54.705,lexical_decision_task_MP_exp2,2020.2.5,Win32,60,z,1,,,,,,,,0.648635,1,,,,,,402,NW,"ID",16,syntic,SYNTIC,z,0.648635,,,,,,-0.555555556,0.013333333,0,0,0,,0,31,31,341,1,
,,,,,,,,,,,,,,,,,,5ea0355ad8cdd9000a122a30,2020-11-27_15h01.54.705,lexical_decision_task_MP_exp2,2020.2.5,Win32,60,m,1,,,,,,,,0.534475,1,,,,,,141,WORD,"ID",16,orphan,ORPHAN,m,0.534475,,,,,,-0.555555556,0.013333333,0,0,0,,0,32,32,80,1,
,,,,,,,,,,,,,,,,,,5ea0355ad8cdd9000a122a30,2020-11-27_15h01.54.705,lexical_decision_task_MP_exp2,2020.2.5,Win32,60,m,1,,,,,,,,0.585315,1,,,,,,178,WORD,"ID",16,inform,INFORM,m,0.585315,,,,,,-0.555555556,0.013333333,0,0,0,,0,33,33,117,1,
,,,,,,,,,,,,,,,,,,5ea0355ad8cdd9000a122a30,2020-11-27_15h01.54.705,lexical_decision_task_MP_exp2,2020.2.5,Win32,60,z,1,,,,,,,,0.60411,1,,,,,,441,NW,UN,33,aboune,RASTOE,z,0.60411,,,,,,-0.555555556,0.013333333,0,0,0,,0,34,34,380,1,
,,,,,,,,,,,,,,,,,,5ea0355ad8cdd9000a122a30,2020-11-27_15h01.54.705,lexical_decision_task_MP_exp2,2020.2.5,Win32,60,z,1,,,,,,,,0.535905,1,,,,,,307,NW,"ID",33,kirafe,KIRAFE,z,0.535905,,,,,,-0.555555556,0.013333333,0,0,0,,0,35,35,246,1,
,,,,,,,,,,,,,,,,,,5ea0355ad8cdd9000a122a30,2020-11-27_15h01.54.705,lexical_decision_task_MP_exp2,2020.2.5,Win32,60,m,1,,,,,,,,0.51019,1,,,,,,145,WORD,"ID",16,parish,PARISH,m,0.51019,,,,,,-0.555555556,0.013333333,0,0,0,,0,36,36,84,1,
,,,,,,,,,,,,,,,,,,5ea0355ad8cdd9000a122a30,2020-11-27_15h01.54.705,lexical_decision_task_MP_exp2,2020.2.5,Win32,60,m,0,,,,,,,,0.640995,0,,,,,,264,NW,UN,16,distar,VACKEL,z,0.640995,,,,,,-0.555555556,0.013333333,0,0,0,,0,37,37,443,1,
,,,,,,,,,,,,,,,,,,5ea0355ad8cdd9000a122a30,2020-11-27_15h01.54.705,lexical_decision_task_MP_exp2,2020.2.5,Win32,60,m,0,,,,,,,,1.387915,0,,,,,,297,NW,UN,16,piergy,FERTIC,z,1.387915,,,,,,-0.555555556,0.013333333,0,0,0,,0,38,38,476,1,
,,,,,,,,,,,,,,,,,,5ea0355ad8cdd9000a122a30,2020-11-27_15h01.54.705,lexical_decision_task_MP_exp2,2020.2.5,Win32,60,z,1,,,,,,,,1.683605,1,,,,,,447,NW,UN,33,sadent,GIRCUE,z,1.683605,,,,,,-0.555555556,0.013333333,0,0,0,,0,39,39,386,1,
,,,,,,,,,,,,,,,,,,5ea0355ad8cdd9000a122a30,2020-11-27_15h01.54.705,lexical_decision_task_MP_exp2,2020.2.5,Win32,60,m,1,,,,,,,,0.71575,1,,,,,,95,WORD,"ID",33,thread,THREAD,m,0.71575,,,,,,-0.555555556,0.013333333,0,0,0,,0,40,40,34,1,
,,,,,,,,,,,,,,,,,,5ea0355ad8cdd9000a122a30,2020-11-27_15h01.54.705,lexical_decision_task_MP_exp2,2020.2.5,Win32,60,z,1,,,,,,,,0.71217,1,,,,,,400,NW,"ID",16,wearox,WEAROX,z,0.71217,,,,,,-0.555555556,0.013333333,0,0,0,,0,41,41,339,1,
,,,,,,,,,,,,,,,,,,5ea0355ad8cdd9000a122a30,2020-11-27_15h01.54.705,lexical_decision_task_MP_exp2,2020.2.5,Win32,60,m,1,,,,,,,,0.710385,1,,,,,,154,WORD,"ID",16,author,AUTHOR,m,0.710385,,,,,,-0.555555556,0.013333333,0,0,0,,0,42,42,93,1,
,,,,,,,,,,,,,,,,,,5ea0355ad8cdd9000a122a30,2020-11-27_15h01.54.705,lexical_decision_task_MP_exp2,2020.2.5,Win32,60,m,1,,,,,,,,0.77715,1,,,,,,110,WORD,"ID",33,polite,POLITE,m,0.77715,,,,,,-0.555555556,0.013333333,0,0,0,,0,43,43,49,1,
,,,,,,,,,,,,,,,,,,5ea0355ad8cdd9000a122a30,2020-11-27_15h01.54.705,lexical_decision_task_MP_exp2,2020.2.5,Win32,60,z,1,,,,,,,,0.620005,1,,,,,,323,NW,"ID",33,rosail,ROSAIL,z,0.620005,,,,,,-0.555555556,0.013333333,0,0,0,,0,44,44,262,1,
,,,,,,,,,,,,,,,,,,5ea0355ad8cdd9000a122a30,2020-11-27_15h01.54.705,lexical_decision_task_MP_exp2,2020.2.5,Win32,60,m,1,,,,,,,,0.6473,1,,,,,,51,WORD,UN,16,impose,HUNGRY,m,0.6473,,,,,,-0.555555556,0.013333333,0,0,0,,0,45,45,230,1,
,,,,,,,,,,,,,,,,,,5ea0355ad8cdd9000a122a30,2020-11-27_15h01.54.705,lexical_decision_task_MP_exp2,2020.2.5,Win32,60,m,1,,,,,,,,0.66004,1,,,,,,76,WORD,"ID",33,exotic,EXOTIC,m,0.66004,,,,,,-0.555555556,0.013333333,0,0,0,,0,46,46,15,1,
,,,,,,,,,,,,,,,,,,5ea0355ad8cdd9000a122a30,2020-11-27_15h01.54.705,lexical_decision_task_MP_exp2,2020.2.5,Win32,60,z,1,,,,,,,,1.084385,1,,,,,,277,NW,UN,16,unighs,PETAIN,z,1.084385,,,,,,-0.555555556,0.013333333,0,0,0,,0,47,47,456,1,
,,,,,,,,,,,,,,,,,,5ea0355ad8cdd9000a122a30,2020-11-27_15h01.54.705,lexical_decision_task_MP_exp2,2020.2.5,Win32,60,z,1,,,,,,,,0.86016,1,,,,,,369,NW,"ID",16,wronch,WRONCH,z,0.86016,,,,,,-0.555555556,0.013333333,0,0,0,,0,48,48,308,1,
,,,,,,,,,,,,,,,,,,5ea0355ad8cdd9000a122a30,2020-11-27_15h01.54.705,lexical_decision_task_MP_exp2,2020.2.5,Win32,60,z,1,,,,,,,,0.764545,1,,,,,,475,NW,UN,33,josted,PEBRIC,z,0.764545,,,,,,-0.555555556,0.013333333,0,0,0,,0,49,49,414,1,
,,,,,,,,,,,,,,,,,,5ea0355ad8cdd9000a122a30,2020-11-27_15h01.54.705,lexical_decision_task_MP_exp2,2020.2.5,Win32,60,m,1,,,,,,,,0.741745,1,,,,,,163,WORD,"ID",16,string,STRING,m,0.741745,,,,,,-0.555555556,0.013333333,0,0,0,,0,50,50,102,1,
,,,,,,,,,,,,,,,,,,5ea0355ad8cdd9000a122a30,2020-11-27_15h01.54.705,lexical_decision_task_MP_exp2,2020.2.5,Win32,60,m,1,,,,,,,,0.853505,1,,,,,,58,WORD,UN,16,splint,FOSTER,m,0.853505,,,,,,-0.555555556,0.013333333,0,0,0,,0,51,51,237,1,
,,,,,,,,,,,,,,,,,,5ea0355ad8cdd9000a122a30,2020-11-27_15h01.54.705,lexical_decision_task_MP_exp2,2020.2.5,Win32,60,z,1,,,,,,,,0.745475,1,,,,,,449,NW,UN,33,phrect,BRUNGE,z,0.745475,,,,,,-0.555555556,0.013333333,0,0,0,,0,52,52,388,1,
,,,,,,,,,,,,,,,,,,5ea0355ad8cdd9000a122a30,2020-11-27_15h01.54.705,lexical_decision_task_MP_exp2,2020.2.5,Win32,60,z,1,,,,,,,,0.667895,1,,,,,,380,NW,"ID",16,cavory,CAVORY,z,0.667895,,,,,,-0.555555556,0.013333333,0,0,0,,0,53,53,319,1,
,,,,,,,,,,,,,,,,,,5ea0355ad8cdd9000a122a30,2020-11-27_15h01.54.705,lexical_decision_task_MP_exp2,2020.2.5,Win32,60,z,1,,,,,,,,0.73318,1,,,,,,468,NW,UN,33,padifs,WICTOR,z,0.73318,,,,,,-0.555555556,0.013333333,0,0,0,,0,54,54,407,1,
,,,,,,,,,,,,,,,,,,5ea0355ad8cdd9000a122a30,2020-11-27_15h01.54.705,lexical_decision_task_MP_exp2,2020.2.5,Win32,60,m,1,,,,,,,,0.641155,1,,,,,,52,WORD,UN,16,police,IMPOSE,m,0.641155,,,,,,-0.555555556,0.013333333,0,0,0,,0,55,55,231,1,
,,,,,,,,,,,,,,,,,,5ea0355ad8cdd9000a122a30,2020-11-27_15h01.54.705,lexical_decision_task_MP_exp2,2020.2.5,Win32,60,m,1,,,,,,,,0.768125,1,,,,,,61,WORD,"ID",33,ponder,PONDER,m,0.768125,,,,,,-0.555555556,0.013333333,0,0,0,,0,56,56,0,1,
,,,,,,,,,,,,,,,,,,5ea0355ad8cdd9000a122a30,2020-11-27_15h01.54.705,lexical_decision_task_MP_exp2,2020.2.5,Win32,60,z,1,,,,,,,,0.683935,1,,,,,,436,NW,UN,33,snapel,FRUTAN,z,0.683935,,,,,,-0.555555556,0.013333333,0,0,0,,0,57,57,375,1,
,,,,,,,,,,,,,,,,,,5ea0355ad8cdd9000a122a30,2020-11-27_15h01.54.705,lexical_decision_task_MP_exp2,2020.2.5,Win32,60,m,1,,,,,,,,0.64262,1,,,,,,168,WORD,"ID",16,answer,ANSWER,m,0.64262,,,,,,-0.555555556,0.013333333,0,0,0,,0,58,58,107,1,
,,,,,,,,,,,,,,,,,,5ea0355ad8cdd9000a122a30,2020-11-27_15h01.54.705,lexical_decision_task_MP_exp2,2020.2.5,Win32,60,m,1,,,,,,,,0.89048,1,,,,,,9,WORD,UN,16,bridge,HUSTLE,m,0.89048,,,,,,-0.555555556,0.013333333,0,0,0,,0,59,59,188,1,
,,,,,,,,,,,,,,,,,,5ea0355ad8cdd9000a122a30,2020-11-27_15h01.54.705,lexical_decision_task_MP_exp2,2020.2.5,Win32,60,z,1,,,,,,,,0.65681,1,,,,,,472,NW,UN,33,gorbie,CIGNEY,z,0.65681,,,,,,-0.555555556,0.013333333,0,0,0,,0,60,60,411,1,
,,,,,,,,,,,,,,,,,,5ea0355ad8cdd9000a122a30,2020-11-27_15h01.54.705,lexical_decision_task_MP_exp2,2020.2.5,Win32,60,m,1,,,,,,,,0.67311,1,,,,,,41,WORD,UN,16,chapel,SPRING,m,0.67311,,,,,,-0.555555556,0.013333333,0,0,0,,0,61,61,220,1,
,,,,,,,,,,,,,,,,,,5ea0355ad8cdd9000a122a30,2020-11-27_15h01.54.705,lexical_decision_task_MP_exp2,2020.2.5,Win32,60,m,1,,,,,,,,0.66982,1,,,,,,240,WORD,UN,33,seldom,FOREST,m,0.66982,,,,,,-0.555555556,0.013333333,0,0,0,,0,62,62,179,1,
,,,,,,,,,,,,,,,,,,5ea0355ad8cdd9000a122a30,2020-11-27_15h01.54.705,lexical_decision_task_MP_exp2,2020.2.5,Win32,60,z,1,,,,,,,,0.636915,1,,,,,,387,NW,"ID",16,gronce,GRONCE,z,0.636915,,,,,,-0.555555556,0.013333333,0,0,0,,0,63,63,326,1,
,,,,,,,,,,,,,,,,,,5ea0355ad8cdd9000a122a30,2020-11-27_15h01.54.705,lexical_decision_task_MP_exp2,2020.2.5,Win32,60,z,1,,,,,,,,0.76822,1,,,,,,440,NW,UN,33,rastoe,SARIDE,z,0.76822,,,,,,-0.555555556,0.013333333,0,0,0,,0,64,64,379,1,
,,,,,,,,,,,,,,,,,,5ea0355ad8cdd9000a122a30,2020-11-27_15h01.54.705,lexical_decision_task_MP_exp2,2020.2.5,Win32,60,m,1,,,,,,,,0.64806,1,,,,,,115,WORD,"ID",33,guitar,GUITAR,m,0.64806,,,,,,-0.555555556,0.013333333,0,0,0,,0,65,65,54,1,
,,,,,,,,,,,,,,,,,,5ea0355ad8cdd9000a122a30,2020-11-27_15h01.54.705,lexical_decision_task_MP_exp2,2020.2.5,Win32,60,m,1,,,,,,,,0.56178,1,,,,,,188,WORD,UN,33,censor,SOCIAL,m,0.56178,,,,,,-0.555555556,0.013333333,0,0,0,,0,66,66,127,1,
,,,,,,,,,,,,,,,,,,5ea0355ad8cdd9000a122a30,2020-11-27_15h01.54.705,lexical_decision_task_MP_exp2,2020.2.5,Win32,60,m,1,,,,,,,,0.65519,1,,,,,,139,WORD,"ID",16,debris,DEBRIS,m,0.65519,,,,,,-0.555555556,0.013333333,0,0,0,,0,67,67,78,1,
,,,,,,,,,,,,,,,,,,5ea0355ad8cdd9000a122a30,2020-11-27_15h01.54.705,lexical_decision_task_MP_exp2,2020.2.5,Win32,60,z,1,,,,,,,,0.756,1,,,,,,452,NW,UN,33,bolvis,SURDEN,z,0.756,,,,,,-0.555555556,0.013333333,0,0,0,,0,68,68,391,1,
,,,,,,,,,,,,,,,,,,5ea0355ad8cdd9000a122a30,2020-11-27_15h01.54.705,lexical_decision_task_MP_exp2,2020.2.5,Win32,60,m,1,,,,,,,,0.67,1,,,,,,233,WORD,UN,33,clumsy,NATURE,m,0.67,,,,,,-0.555555556,0.013333333,0,0,0,,0,69,69,172,1,
,,,,,,,,,,,,,,,,,,5ea0355ad8cdd9000a122a30,2020-11-27_15h01.54.705,lexical_decision_task_MP_exp2,2020.2.5,Win32,60,m,1,,,,,,,,1.462385,1,,,,,,138,WORD,"ID",16,melody,MELODY,m,1.462385,,,,,,-0.555555556,0.013333333,0,0,0,,0,70,70,77,1,
,,,,,,,,,,,,,,,,,,5ea0355ad8cdd9000a122a30,2020-11-27_15h01.54.705,lexical_decision_task_MP_exp2,2020.2.5,Win32,60,z,1,,,,,,,,0.75799,1,,,,,,476,NW,UN,33,photie,JOSTED,z,0.75799,,,,,,-0.555555556,0.013333333,0,0,0,,0,71,71,415,1,
,,,,,,,,,,,,,,,,,,5ea0355ad8cdd9000a122a30,2020-11-27_15h01.54.705,lexical_decision_task_MP_exp2,2020.2.5,Win32,60,m,1,,,,,,,,0.61764,1,,,,,,159,WORD,"ID",16,detail,DETAIL,m,0.61764,,,,,,-0.555555556,0.013333333,0,0,0,,0,72,72,98,1,
,,,,,,,,,,,,,,,,,,5ea0355ad8cdd9000a122a30,2020-11-27_15h01.54.705,lexical_decision_task_MP_exp2,2020.2.5,Win32,60,z,1,,,,,,,,0.620375,1,,,,,,291,NW,UN,16,ablint,PRETCH,z,0.620375,,,,,,-0.555555556,0.013333333,0,0,0,,0,73,73,470,1,
,,,,,,,,,,,,,,,,,,5ea0355ad8cdd9000a122a30,2020-11-27_15h01.54.705,lexical_decision_task_MP_exp2,2020.2.5,Win32,60,m,1,,,,,,,,0.71535,1,,,,,,137,WORD,"ID",16,finger,FINGER,m,0.71535,,,,,,-0.555555556,0.013333333,0,0,0,,0,74,74,76,1,
,,,,,,,,,,,,,,,,,,5ea0355ad8cdd9000a122a30,2020-11-27_15h01.54.705,lexical_decision_task_MP_exp2,2020.2.5,Win32,60,m,1,,,,,,,,0.63434,1,,,,,,173,WORD,"ID",16,shower,SHOWER,m,0.63434,,,,,,-0.555555556,0.013333333,0,0,0,,0,75,75,112,1,
,,,,,,,,,,,,,,,,,,5ea0355ad8cdd9000a122a30,2020-11-27_15h01.54.705,lexical_decision_task_MP_exp2,2020.2.5,Win32,60,z,1,,,,,,,,0.620075,1,,,,,,465,NW,UN,33,bafent,WHIVEX,z,0.620075,,,,,,-0.555555556,0.013333333,0,0,0,,0,76,76,404,1,
,,,,,,,,,,,,,,,,,,5ea0355ad8cdd9000a122a30,2020-11-27_15h01.54.705,lexical_decision_task_MP_exp2,2020.2.5,Win32,60,m,1,,,,,,,,0.57423,1,,,,,,72,WORD,"ID",33,bright,BRIGHT,m,0.57423,,,,,,-0.555555556,0.013333333,0,0,0,,0,77,77,11,1,
,,,,,,,,,,,,,,,,,,5ea0355ad8cdd9000a122a30,2020-11-27_15h01.54.705,lexical_decision_task_MP_exp2,2020.2.5,Win32,60,z,1,,,,,,,,1.301965,1,,,,,,443,NW,UN,33,jaunce,DORSEX,z,1.301965,,,,,,-0.555555556,0.013333333,0,0,0,,0,78,78,382,1,
,,,,,,,,,,,,,,,,,,5ea0355ad8cdd9000a122a30,2020-11-27_15h01.54.705,lexical_decision_task_MP_exp2,2020.2.5,Win32,60,m,1,,,,,,,,0.649125,1,,,,,,192,WORD,UN,33,object,PLAGUE,m,0.649125,,,,,,-0.555555556,0.013333333,0,0,0,,0,79,79,131,1,
,,,,,,,,,,,,,,,,,,5ea0355ad8cdd9000a122a30,2020-11-27_15h01.54.705,lexical_decision_task_MP_exp2,2020.2.5,Win32,60,z,1,,,,,,,,1.048625,1,,,,,,269,NW,UN,16,wrimsy,ORCHET,z,1.048625,,,,,,-0.555555556,0.013333333,0,0,0,,0,80,80,448,1,
,,,,,,,,,,,,,,,,,,5ea0355ad8cdd9000a122a30,2020-11-27_15h01.54.705,lexical_decision_task_MP_exp2,2020.2.5,Win32,60,m,1,,,,,,,,0.5845,1,,,,,,65,WORD,"ID",33,symbol,SYMBOL,m,0.5845,,,,,,-0.555555556,0.013333333,0,0,0,,0,81,81,4,1,
,,,,,,,,,,,,,,,,,,5ea0355ad8cdd9000a122a30,2020-11-27_15h01.54.705,lexical_decision_task_MP_exp2,2020.2.5,Win32,60,m,1,,,,,,,,0.75278,1,,,,,,111,WORD,"ID",33,induce,INDUCE,m,0.75278,,,,,,-0.555555556,0.013333333,0,0,0,,0,82,82,50,1,
,,,,,,,,,,,,,,,,,,5ea0355ad8cdd9000a122a30,2020-11-27_15h01.54.705,lexical_decision_task_MP_exp2,2020.2.5,Win32,60,z,1,,,,,,,,0.61418,1,,,,,,384,NW,"ID",16,guesco,GUESCO,z,0.61418,,,,,,-0.555555556,0.013333333,0,0,0,,0,83,83,323,1,
,,,,,,,,,,,,,,,,,,5ea0355ad8cdd9000a122a30,2020-11-27_15h01.54.705,lexical_decision_task_MP_exp2,2020.2.5,Win32,60,m,1,,,,,,,,0.73709,1,,,,,,101,WORD,"ID",33,wrench,WRENCH,m,0.73709,,,,,,-0.555555556,0.013333333,0,0,0,,0,84,84,40,1,
,,,,,,,,,,,,,,,,,,5ea0355ad8cdd9000a122a30,2020-11-27_15h01.54.705,lexical_decision_task_MP_exp2,2020.2.5,Win32,60,z,1,,,,,,,,0.9845,1,,,,,,424,NW,UN,33,frudge,PRAILE,z,0.9845,,,,,,-0.555555556,0.013333333,0,0,0,,0,85,85,363,1,
,,,,,,,,,,,,,,,,,,5ea0355ad8cdd9000a122a30,2020-11-27_15h01.54.705,lexical_decision_task_MP_exp2,2020.2.5,Win32,60,z,1,,,,,,,,0.78635,1,,,,,,249,NW,UN,16,milted,BATROL,z,0.78635,,,,,,-0.555555556,0.013333333,0,0,0,,0,86,86,428,1,
,,,,,,,,,,,,,,,,,,5ea0355ad8cdd9000a122a30,2020-11-27_15h01.54.705,lexical_decision_task_MP_exp2,2020.2.5,Win32,60,z,1,,,,,,,,0.72758,1,,,,,,280,NW,UN,16,melaty,CURBOL,z,0.72758,,,,,,-0.555555556,0.013333333,0,0,0,,0,87,87,459,1,
,,,,,,,,,,,,,,,,,,5ea0355ad8cdd9000a122a30,2020-11-27_15h01.54.705,lexical_decision_task_MP_exp2,2020.2.5,Win32,60,m,1,,,,,,,,0.71408,1,,,,,,103,WORD,"ID",33,bounce,BOUNCE,m,0.71408,,,,,,-0.555555556,0.013333333,0,0,0,,0,88,88,42,1,
,,,,,,,,,,,,,,,,,,5ea0355ad8cdd9000a122a30,2020-11-27_15h01.54.705,lexical_decision_task_MP_exp2,2020.2.5,Win32,60,m,1,,,,,,,,0.79113,1,,,,,,82,WORD,"ID",33,stigma,STIGMA,m,0.79113,,,,,,-0.555555556,0.013333333,0,0,0,,0,89,89,21,1,
,,,,,,,,,,,,,,,,,,5ea0355ad8cdd9000a122a30,2020-11-27_15h01.54.705,lexical_decision_task_MP_exp2,2020.2.5,Win32,60,z,1,,,,,,,,0.67353,1,,,,,,431,NW,UN,33,lunker,CHRUMS,z,0.67353,,,,,,-0.555555556,0.013333333,0,0,0,,0,90,90,370,1,
,,,,,,,,,,,,,,,,,,5ea0355ad8cdd9000a122a30,2020-11-27_15h01.54.705,lexical_decision_task_MP_exp2,2020.2.5,Win32,60,z,1,,,,,,,,0.88875,1,,,,,,242,NW,UN,16,musied,UNWERT,z,0.88875,,,,,,-0.555555556,0.013333333,0,0,0,,0,91,91,421,1,
,,,,,,,,,,,,,,,,,,5ea0355ad8cdd9000a122a30,2020-11-27_15h01.54.705,lexical_decision_task_MP_exp2,2020.2.5,Win32,60,m,1,,,,,,,,0.694945,1,,,,,,81,WORD,"ID",33,friend,FRIEND,m,0.694945,,,,,,-0.555555556,0.013333333,0,0,0,,0,92,92,20,1,
,,,,,,,,,,,,,,,,,,5ea0355ad8cdd9000a122a30,2020-11-27_15h01.54.705,lexical_decision_task_MP_exp2,2020.2.5,Win32,60,m,1,,,,,,,,0.55356,1,,,,,,80,WORD,"ID",33,family,FAMILY,m,0.55356,,,,,,-0.555555556,0.013333333,0,0,0,,0,93,93,19,1,
,,,,,,,,,,,,,,,,,,5ea0355ad8cdd9000a122a30,2020-11-27_15h01.54.705,lexical_decision_task_MP_exp2,2020.2.5,Win32,60,m,1,,,,,,,,0.66316,1,,,,,,35,WORD,UN,16,vanish,SOCKET,m,0.66316,,,,,,-0.555555556,0.013333333,0,0,0,,0,94,94,214,1,
,,,,,,,,,,,,,,,,,,5ea0355ad8cdd9000a122a30,2020-11-27_15h01.54.705,lexical_decision_task_MP_exp2,2020.2.5,Win32,60,z,1,,,,,,,,0.58754,1,,,,,,245,NW,UN,16,piaton,ANOUGS,z,0.58754,,,,,,-0.555555556,0.013333333,0,0,0,,0,95,95,424,1,
,,,,,,,,,,,,,,,,,,5ea0355ad8cdd9000a122a30,2020-11-27_15h01.54.705,lexical_decision_task_MP_exp2,2020.2.5,Win32,60,z,1,,,,,,,,0.62218,1,,,,,,394,NW,"ID",16,spaqux,SPAQUX,z,0.62218,,,,,,-0.555555556,0.013333333,0,0,0,,0,96,96,333,1,
,,,,,,,,,,,,,,,,,,5ea0355ad8cdd9000a122a30,2020-11-27_15h01.54.705,lexical_decision_task_MP_exp2,2020.2.5,Win32,60,m,1,,,,,,,,0.751755,1,,,,,,198,WORD,UN,33,invoke,WICKED,m,0.751755,,,,,,-0.555555556,0.013333333,0,0,0,,0,97,97,137,1,
,,,,,,,,,,,,,,,,,,5ea0355ad8cdd9000a122a30,2020-11-27_15h01.54.705,lexical_decision_task_MP_exp2,2020.2.5,Win32,60,z,1,,,,,,,,0.81273,1,,,,,,378,NW,"ID",16,shrile,SHRILE,z,0.81273,,,,,,-0.555555556,0.013333333,0,0,0,,0,98,98,317,1,
,,,,,,,,,,,,,,,,,,5ea0355ad8cdd9000a122a30,2020-11-27_15h01.54.705,lexical_decision_task_MP_exp2,2020.2.5,Win32,60,m,1,,,,,,,,0.718385,1,,,,,,133,WORD,"ID",16,chrome,CHROME,m,0.718385,,,,,,-0.555555556,0.013333333,0,0,0,,0,99,99,72,1,
,,,,,,,,,,,,,,,,,,5ea0355ad8cdd9000a122a30,2020-11-27_15h01.54.705,lexical_decision_task_MP_exp2,2020.2.5,Win32,60,z,1,,,,,,,,0.61993,1,,,,,,473,NW,UN,33,hablin,CRIBLE,z,0.61993,,,,,,-0.555555556,0.013333333,0,0,0,,0,100,100,412,1,
,,,,,,,,,,,,,,,,,,5ea0355ad8cdd9000a122a30,2020-11-27_15h01.54.705,lexical_decision_task_MP_exp2,2020.2.5,Win32,60,z,1,,,,,,,,0.68789,1,,,,,,457,NW,UN,33,barcet,WANIGH,z,0.68789,,,,,,-0.555555556,0.013333333,0,0,0,,0,101,101,396,1,
,,,,,,,,,,,,,,,,,,5ea0355ad8cdd9000a122a30,2020-11-27_15h01.54.705,lexical_decision_task_MP_exp2,2020.2.5,Win32,60,m,1,,,,,,,,0.544305,1,,,,,,119,WORD,"ID",33,spider,SPIDER,m,0.544305,,,,,,-0.555555556,0.013333333,0,0,0,,0,102,102,58,1,
,,,,,,,,,,,,,,,,,,5ea0355ad8cdd9000a122a30,2020-11-27_15h01.54.705,lexical_decision_task_MP_exp2,2020.2.5,Win32,60,z,1,,,,,,,,0.62028,1,,,,,,299,NW,UN,16,yarion,STURCH,z,0.62028,,,,,,-0.555555556,0.013333333,0,0,0,,0,103,103,478,1,
,,,,,,,,,,,,,,,,,,5ea0355ad8cdd9000a122a30,2020-11-27_15h01.54.705,lexical_decision_task_MP_exp2,2020.2.5,Win32,60,m,1,,,,,,,,0.79881,1,,,,,,167,WORD,"ID",16,design,DESIGN,m,0.79881,,,,,,-0.555555556,0.013333333,0,0,0,,0,104,104,106,1,
,,,,,,,,,,,,,,,,,,5ea0355ad8cdd9000a122a30,2020-11-27_15h01.54.705,lexical_decision_task_MP_exp2,2020.2.5,Win32,60,z,1,,,,,,,,0.616745,1,,,,,,451,NW,UN,33,surden,CAINKY,z,0.616745,,,,,,-0.555555556,0.013333333,0,0,0,,0,105,105,390,1,
,,,,,,,,,,,,,,,,,,5ea0355ad8cdd9000a122a30,2020-11-27_15h01.54.705,lexical_decision_task_MP_exp2,2020.2.5,Win32,60,m,1,,,,,,,,0.702575,1,,,,,,25,WORD,UN,16,sprint,DOMAIN,m,0.702575,,,,,,-0.555555556,0.013333333,0,0,0,,0,106,106,204,1,
,,,,,,,,,,,,,,,,,,5ea0355ad8cdd9000a122a30,2020-11-27_15h01.54.705,lexical_decision_task_MP_exp2,2020.2.5,Win32,60,z,0,,,,,,,,0.79758,0,,,,,,237,WORD,UN,33,glance,POSTER,m,0.79758,,,,,,-0.555555556,0.013333333,0,0,0,,0,107,107,176,1,
,,,,,,,,,,,,,,,,,,5ea0355ad8cdd9000a122a30,2020-11-27_15h01.54.705,lexical_decision_task_MP_exp2,2020.2.5,Win32,60,m,1,,,,,,,,0.64534,1,,,,,,121,WORD,"ID",16,thrive,THRIVE,m,0.64534,,,,,,-0.555555556,0.013333333,0,0,0,,0,108,108,60,1,
,,,,,,,,,,,,,,,,,,5ea0355ad8cdd9000a122a30,2020-11-27_15h01.54.705,lexical_decision_task_MP_exp2,2020.2.5,Win32,60,m,1,,,,,,,,0.617635,1,,,,,,200,WORD,UN,33,admire,BEACON,m,0.617635,,,,,,-0.555555556,0.013333333,0,0,0,,0,109,109,139,1,
,,,,,,,,,,,,,,,,,,5ea0355ad8cdd9000a122a30,2020-11-27_15h01.54.705,lexical_decision_task_MP_exp2,2020.2.5,Win32,60,m,1,,,,,,,,0.602075,1,,,,,,11,WORD,UN,16,amount,CRUISE,m,0.602075,,,,,,-0.555555556,0.013333333,0,0,0,,0,110,110,190,1,
,,,,,,,,,,,,,,,,,,5ea0355ad8cdd9000a122a30,2020-11-27_15h01.54.705,lexical_decision_task_MP_exp2,2020.2.5,Win32,60,m,1,,,,,,,,0.573495,1,,,,,,87,WORD,"ID",33,filter,FILTER,m,0.573495,,,,,,-0.555555556,0.013333333,0,0,0,,0,111,111,26,1,
,,,,,,,,,,,,,,,,,,5ea0355ad8cdd9000a122a30,2020-11-27_15h01.54.705,lexical_decision_task_MP_exp2,2020.2.5,Win32,60,m,1,,,,,,,,0.595415,1,,,,,,66,WORD,"ID",33,gospel,GOSPEL,m,0.595415,,,,,,-0.555555556,0.013333333,0,0,0,,0,112,112,5,1,
,,,,,,,,,,,,,,,,,,5ea0355ad8cdd9000a122a30,2020-11-27_15h01.54.705,lexical_decision_task_MP_exp2,2020.2.5,Win32,60,m,1,,,,,,,,0.553085,1,,,,,,219,WORD,UN,33,voyage,BUCKET,m,0.553085,,,,,,-0.555555556,0.013333333,0,0,0,,0,113,113,158,1,
,,,,,,,,,,,,,,,,,,5ea0355ad8cdd9000a122a30,2020-11-27_15h01.54.705,lexical_decision_task_MP_exp2,2020.2.5,Win32,60,m,1,,,,,,,,0.57297,1,,,,,,105,WORD,"ID",33,number,NUMBER,m,0.57297,,,,,,-0.555555556,0.013333333,0,0,0,,0,114,114,44,1,
,,,,,,,,,,,,,,,,,,5ea0355ad8cdd9000a122a30,2020-11-27_15h01.54.705,lexical_decision_task_MP_exp2,2020.2.5,Win32,60,z,1,,,,,,,,0.639025,1,,,,,,466,NW,UN,33,robuly,HOCITE,z,0.639025,,,,,,-0.555555556,0.013333333,0,0,0,,0,115,115,405,1,
,,,,,,,,,,,,,,,,,,5ea0355ad8cdd9000a122a30,2020-11-27_15h01.54.705,lexical_decision_task_MP_exp2,2020.2.5,Win32,60,z,1,,,,,,,,0.835185,1,,,,,,253,NW,UN,16,varosh,RESAIT,z,0.835185,,,,,,-0.555555556,0.013333333,0,0,0,,0,116,116,432,1,
,,,,,,,,,,,,,,,,,,5ea0355ad8cdd9000a122a30,2020-11-27_15h01.54.705,lexical_decision_task_MP_exp2,2020.2.5,Win32,60,z,1,,,,,,,,0.59379,1,,,,,,273,NW,UN,16,fumblo,SORTEL,z,0.59379,,,,,,-0.555555556,0.013333333,0,0,0,,0,117,117,452,1,
,,,,,,,,,,,,,,,,,,5ea0355ad8cdd9000a122a30,2020-11-27_15h01.54.705,lexical_decision_task_MP_exp2,2020.2.5,Win32,60,m,1,,,,,,,,0.63516,1,,,,,,19,WORD,UN,16,breast,PATRON,m,0.63516,,,,,,-0.555555556,0.013333333,0,0,0,,0,118,118,198,1,
,,,,,,,,,,,,,,,,,,5ea0355ad8cdd9000a122a30,2020-11-27_15h01.54.705,lexical_decision_task_MP_exp2,2020.2.5,Win32,60,m,1,,,,,,,,0.686135,1,,,,,,162,WORD,"ID",16,candle,CANDLE,m,0.686135,,,,,,-0.555555556,0.013333333,0,0,0,,0,119,119,101,1,
,,,,,,,,,,,,,,,,,,5ea0355ad8cdd9000a122a30,2020-11-27_15h01.54.705,lexical_decision_task_MP_exp2,2020.2.5,Win32,60,z,1,,,,,,,,0.57823,1,,,,,,290,NW,UN,16,pretch,SPLINO,z,0.57823,,,,,,-0.555555556,0.013333333,0,0,0,space,0,120,120,469,1,7.27135
,,,,,,,,,,,,,,,,,,5ea0355ad8cdd9000a122a30,2020-11-27_15h01.54.705,lexical_decision_task_MP_exp2,2020.2.5,Win32,60,z,1,,,,,,,,1.171535,1,,,,,,324,NW,"ID",33,steikh,STEIKH,z,1.171535,,,,,,-0.555555556,0.013333333,0,0,0,,0,121,121,263,1,
,,,,,,,,,,,,,,,,,,5ea0355ad8cdd9000a122a30,2020-11-27_15h01.54.705,lexical_decision_task_MP_exp2,2020.2.5,Win32,60,z,1,,,,,,,,0.778055,1,,,,,,362,NW,"ID",16,tireau,TIREAU,z,0.778055,,,,,,-0.555555556,0.013333333,0,0,0,,0,122,122,301,1,
,,,,,,,,,,,,,,,,,,5ea0355ad8cdd9000a122a30,2020-11-27_15h01.54.705,lexical_decision_task_MP_exp2,2020.2.5,Win32,60,z,1,,,,,,,,0.615805,1,,,,,,252,NW,UN,16,resait,STAPOD,z,0.615805,,,,,,-0.555555556,0.013333333,0,0,0,,0,123,123,431,1,
,,,,,,,,,,,,,,,,,,5ea0355ad8cdd9000a122a30,2020-11-27_15h01.54.705,lexical_decision_task_MP_exp2,2020.2.5,Win32,60,z,1,,,,,,,,0.619835,1,,,,,,393,NW,"ID",16,ganous,GANOUS,z,0.619835,,,,,,-0.555555556,0.013333333,0,0,0,,0,124,124,332,1,
,,,,,,,,,,,,,,,,,,5ea0355ad8cdd9000a122a30,2020-11-27_15h01.54.705,lexical_decision_task_MP_exp2,2020.2.5,Win32,60,m,1,,,,,,,,0.518255,1,,,,,,30,WORD,UN,16,weapon,ORIENT,m,0.518255,,,,,,-0.555555556,0.013333333,0,0,0,,0,125,125,209,1,
,,,,,,,,,,,,,,,,,,5ea0355ad8cdd9000a122a30,2020-11-27_15h01.54.705,lexical_decision_task_MP_exp2,2020.2.5,Win32,60,z,1,,,,,,,,0.60148,1,,,,,,442,NW,UN,33,dorsex,ABOUNE,z,0.60148,,,,,,-0.555555556,0.013333333,0,0,0,,0,126,126,381,1,
,,,,,,,,,,,,,,,,,,5ea0355ad8cdd9000a122a30,2020-11-27_15h01.54.705,lexical_decision_task_MP_exp2,2020.2.5,Win32,60,z,1,,,,,,,,0.60842,1,,,,,,379,NW,"ID",16,auting,AUTING,z,0.60842,,,,,,-0.555555556,0.013333333,0,0,0,,0,127,127,318,1,
,,,,,,,,,,,,,,,,,,5ea0355ad8cdd9000a122a30,2020-11-27_15h01.54.705,lexical_decision_task_MP_exp2,2020.2.5,Win32,60,m,0,,,,,,,,0.624715,0,,,,,,294,NW,UN,16,gleath,INHORT,z,0.624715,,,,,,-0.555555556,0.013333333,0,0,0,,0,128,128,473,1,
,,,,,,,,,,,,,,,,,,5ea0355ad8cdd9000a122a30,2020-11-27_15h01.54.705,lexical_decision_task_MP_exp2,2020.2.5,Win32,60,m,1,,,,,,,,0.576635,1,,,,,,223,WORD,UN,33,period,KIDNEY,m,0.576635,,,,,,-0.555555556,0.013333333,0,0,0,,0,129,129,162,1,
,,,,,,,,,,,,,,,,,,5ea0355ad8cdd9000a122a30,2020-11-27_15h01.54.705,lexical_decision_task_MP_exp2,2020.2.5,Win32,60,z,1,,,,,,,,0.74817,1,,,,,,251,NW,UN,16,stapod,LUPICT,z,0.74817,,,,,,-0.555555556,0.013333333,0,0,0,,0,130,130,430,1,
,,,,,,,,,,,,,,,,,,5ea0355ad8cdd9000a122a30,2020-11-27_15h01.54.705,lexical_decision_task_MP_exp2,2020.2.5,Win32,60,m,1,,,,,,,,0.695275,1,,,,,,182,WORD,UN,33,absent,WINTER,m,0.695275,,,,,,-0.555555556,0.013333333,0,0,0,,0,131,131,121,1,
,,,,,,,,,,,,,,,,,,5ea0355ad8cdd9000a122a30,2020-11-27_15h01.54.705,lexical_decision_task_MP_exp2,2020.2.5,Win32,60,z,1,,,,,,,,0.59905,1,,,,,,317,NW,"ID",33,worbal,WORBAL,z,0.59905,,,,,,-0.555555556,0.013333333,0,0,0,,0,132,132,256,1,
,,,,,,,,,,,,,,,,,,5ea0355ad8cdd9000a122a30,2020-11-27_15h01.54.705,lexical_decision_task_MP_exp2,2020.2.5,Win32,60,z,1,,,,,,,,0.68146,1,,,,,,388,NW,"ID",16,cragin,CRAGIN,z,0.68146,,,,,,-0.555555556,0.013333333,0,0,0,,0,133,133,327,1,
,,,,,,,,,,,,,,,,,,5ea0355ad8cdd9000a122a30,2020-11-27_15h01.54.705,lexical_decision_task_MP_exp2,2020.2.5,Win32,60,m,1,,,,,,,,0.61759,1,,,,,,21,WORD,UN,16,jockey,SIMPLE,m,0.61759,,,,,,-0.555555556,0.013333333,0,0,0,,0,134,134,200,1,
,,,,,,,,,,,,,,,,,,5ea0355ad8cdd9000a122a30,2020-11-27_15h01.54.705,lexical_decision_task_MP_exp2,2020.2.5,Win32,60,m,1,,,,,,,,0.63253,1,,,,,,210,WORD,UN,33,infect,MONKEY,m,0.63253,,,,,,-0.555555556,0.013333333,0,0,0,,0,135,135,149,1,
,,,,,,,,,,,,,,,,,,5ea0355ad8cdd9000a122a30,2020-11-27_15h01.54.705,lexical_decision_task_MP_exp2,2020.2.5,Win32,60,m,1,,,,,,,,0.58464,1,,,,,,73,WORD,"ID",33,source,SOURCE,m,0.58464,,,,,,-0.555555556,0.013333333,0,0,0,,0,136,136,12,1,
,,,,,,,,,,,,,,,,,,5ea0355ad8cdd9000a122a30,2020-11-27_15h01.54.705,lexical_decision_task_MP_exp2,2020.2.5,Win32,60,z,1,,,,,,,,0.70319,1,,,,,,348,NW,"ID",33,dumple,DUMPLE,z,0.70319,,,,,,-0.555555556,0.013333333,0,0,0,,0,137,137,287,1,
,,,,,,,,,,,,,,,,,,5ea0355ad8cdd9000a122a30,2020-11-27_15h01.54.705,lexical_decision_task_MP_exp2,2020.2.5,Win32,60,m,1,,,,,,,,0.58386,1,,,,,,202,WORD,UN,33,phrase,FACTOR,m,0.58386,,,,,,-0.555555556,0.013333333,0,0,0,,0,138,138,141,1,
,,,,,,,,,,,,,,,,,,5ea0355ad8cdd9000a122a30,2020-11-27_15h01.54.705,lexical_decision_task_MP_exp2,2020.2.5,Win32,60,z,1,,,,,,,,0.59447,1,,,,,,282,NW,UN,16,veralf,PORLEX,z,0.59447,,,,,,-0.555555556,0.013333333,0,0,0,,0,139,139,461,1,
,,,,,,,,,,,,,,,,,,5ea0355ad8cdd9000a122a30,2020-11-27_15h01.54.705,lexical_decision_task_MP_exp2,2020.2.5,Win32,60,z,1,,,,,,,,0.637345,1,,,,,,263,NW,UN,16,vackel,DOLICA,z,0.637345,,,,,,-0.555555556,0.013333333,0,0,0,,0,140,140,442,1,
,,,,,,,,,,,,,,,,,,5ea0355ad8cdd9000a122a30,2020-11-27_15h01.54.705,lexical_decision_task_MP_exp2,2020.2.5,Win32,60,z,1,,,,,,,,0.734155,1,,,,,,462,NW,UN,33,kispel,ABSULT,z,0.734155,,,,,,-0.555555556,0.013333333,0,0,0,,0,141,141,401,1,
,,,,,,,,,,,,,,,,,,5ea0355ad8cdd9000a122a30,2020-11-27_15h01.54.705,lexical_decision_task_MP_exp2,2020.2.5,Win32,60,m,1,,,,,,,,0.682045,1,,,,,,45,WORD,UN,16,single,CLERGY,m,0.682045,,,,,,-0.555555556,0.013333333,0,0,0,,0,142,142,224,1,
,,,,,,,,,,,,,,,,,,5ea0355ad8cdd9000a122a30,2020-11-27_15h01.54.705,lexical_decision_task_MP_exp2,2020.2.5,Win32,60,z,1,,,,,,,,0.638425,1,,,,,,287,NW,UN,16,yaceup,NYMBEL,z,0.638425,,,,,,-0.555555556,0.013333333,0,0,0,,0,143,143,466,1,
,,,,,,,,,,,,,,,,,,5ea0355ad8cdd9000a122a30,2020-11-27_15h01.54.705,lexical_decision_task_MP_exp2,2020.2.5,Win32,60,z,1,,,,,,,,0.737305,1,,,,,,364,NW,"ID",16,impote,IMPOTE,z,0.737305,,,,,,-0.555555556,0.013333333,0,0,0,,0,144,144,303,1,
,,,,,,,,,,,,,,,,,,5ea0355ad8cdd9000a122a30,2020-11-27_15h01.54.705,lexical_decision_task_MP_exp2,2020.2.5,Win32,60,z,1,,,,,,,,0.74831,1,,,,,,426,NW,UN,33,schind,URIVEL,z,0.74831,,,,,,-0.555555556,0.013333333,0,0,0,,0,145,145,365,1,
,,,,,,,,,,,,,,,,,,5ea0355ad8cdd9000a122a30,2020-11-27_15h01.54.705,lexical_decision_task_MP_exp2,2020.2.5,Win32,60,m,1,,,,,,,,0.582185,1,,,,,,232,WORD,UN,33,nature,INJECT,m,0.582185,,,,,,-0.555555556,0.013333333,0,0,0,,0,146,146,171,1,
,,,,,,,,,,,,,,,,,,5ea0355ad8cdd9000a122a30,2020-11-27_15h01.54.705,lexical_decision_task_MP_exp2,2020.2.5,Win32,60,z,1,,,,,,,,0.578185,1,,,,,,365,NW,"ID",16,guairt,GUAIRT,z,0.578185,,,,,,-0.555555556,0.013333333,0,0,0,,0,147,147,304,1,
,,,,,,,,,,,,,,,,,,5ea0355ad8cdd9000a122a30,2020-11-27_15h01.54.705,lexical_decision_task_MP_exp2,2020.2.5,Win32,60,m,1,,,,,,,,0.95041,1,,,,,,157,WORD,"ID",16,dragon,DRAGON,m,0.95041,,,,,,-0.555555556,0.013333333,0,0,0,,0,148,148,96,1,
,,,,,,,,,,,,,,,,,,5ea0355ad8cdd9000a122a30,2020-11-27_15h01.54.705,lexical_decision_task_MP_exp2,2020.2.5,Win32,60,z,1,,,,,,,,0.712185,1,,,,,,397,NW,"ID",16,camble,CAMBLE,z,0.712185,,,,,,-0.555555556,0.013333333,0,0,0,,0,149,149,336,1,
,,,,,,,,,,,,,,,,,,5ea0355ad8cdd9000a122a30,2020-11-27_15h01.54.705,lexical_decision_task_MP_exp2,2020.2.5,Win32,60,m,1,,,,,,,,0.620615,1,,,,,,229,WORD,UN,33,fringe,MOTHER,m,0.620615,,,,,,-0.555555556,0.013333333,0,0,0,,0,150,150,168,1,
,,,,,,,,,,,,,,,,,,5ea0355ad8cdd9000a122a30,2020-11-27_15h01.54.705,lexical_decision_task_MP_exp2,2020.2.5,Win32,60,m,1,,,,,,,,0.58879,1,,,,,,15,WORD,UN,16,faucet,AMOUNT,m,0.58879,,,,,,-0.555555556,0.013333333,0,0,0,,0,151,151,194,1,
,,,,,,,,,,,,,,,,,,5ea0355ad8cdd9000a122a30,2020-11-27_15h01.54.705,lexical_decision_task_MP_exp2,2020.2.5,Win32,60,z,1,,,,,,,,0.575975,1,,,,,,248,NW,UN,16,batrol,STROLE,z,0.575975,,,,,,-0.555555556,0.013333333,0,0,0,,0,152,152,427,1,
,,,,,,,,,,,,,,,,,,5ea0355ad8cdd9000a122a30,2020-11-27_15h01.54.705,lexical_decision_task_MP_exp2,2020.2.5,Win32,60,z,1,,,,,,,,0.68462,1,,,,,,344,NW,"ID",33,scrily,SCRILY,z,0.68462,,,,,,-0.555555556,0.013333333,0,0,0,,0,153,153,283,1,
,,,,,,,,,,,,,,,,,,5ea0355ad8cdd9000a122a30,2020-11-27_15h01.54.705,lexical_decision_task_MP_exp2,2020.2.5,Win32,60,m,1,,,,,,,,0.63255,1,,,,,,89,WORD,"ID",33,permit,PERMIT,m,0.63255,,,,,,-0.555555556,0.013333333,0,0,0,,0,154,154,28,1,
,,,,,,,,,,,,,,,,,,5ea0355ad8cdd9000a122a30,2020-11-27_15h01.54.705,lexical_decision_task_MP_exp2,2020.2.5,Win32,60,z,1,,,,,,,,0.557145,1,,,,,,343,NW,"ID",33,aimosy,AIMOSY,z,0.557145,,,,,,-0.555555556,0.013333333,0,0,0,,0,155,155,282,1,
,,,,,,,,,,,,,,,,,,5ea0355ad8cdd9000a122a30,2020-11-27_15h01.54.705,lexical_decision_task_MP_exp2,2020.2.5,Win32,60,z,1,,,,,,,,0.667155,1,,,,,,302,NW,"ID",33,miluer,MILUER,z,0.667155,,,,,,-0.555555556,0.013333333,0,0,0,,0,156,156,241,1,
,,,,,,,,,,,,,,,,,,5ea0355ad8cdd9000a122a30,2020-11-27_15h01.54.705,lexical_decision_task_MP_exp2,2020.2.5,Win32,60,z,1,,,,,,,,0.721475,1,,,,,,444,NW,UN,33,minkel,JAUNCE,z,0.721475,,,,,,-0.555555556,0.013333333,0,0,0,,0,157,157,383,1,
,,,,,,,,,,,,,,,,,,5ea0355ad8cdd9000a122a30,2020-11-27_15h01.54.705,lexical_decision_task_MP_exp2,2020.2.5,Win32,60,z,1,,,,,,,,0.651675,1,,,,,,266,NW,UN,16,pasink,VARMIT,z,0.651675,,,,,,-0.555555556,0.013333333,0,0,0,,0,158,158,445,1,
,,,,,,,,,,,,,,,,,,5ea0355ad8cdd9000a122a30,2020-11-27_15h01.54.705,lexical_decision_task_MP_exp2,2020.2.5,Win32,60,m,1,,,,,,,,0.541255,1,,,,,,209,WORD,UN,33,monkey,SEARCH,m,0.541255,,,,,,-0.555555556,0.013333333,0,0,0,,0,159,159,148,1,
,,,,,,,,,,,,,,,,,,5ea0355ad8cdd9000a122a30,2020-11-27_15h01.54.705,lexical_decision_task_MP_exp2,2020.2.5,Win32,60,m,1,,,,,,,,0.517865,1,,,,,,13,WORD,UN,16,almost,STRIVE,m,0.517865,,,,,,-0.555555556,0.013333333,0,0,0,,0,160,160,192,1,
,,,,,,,,,,,,,,,,,,5ea0355ad8cdd9000a122a30,2020-11-27_15h01.54.705,lexical_decision_task_MP_exp2,2020.2.5,Win32,60,m,1,,,,,,,,0.59488,1,,,,,,187,WORD,UN,33,social,COURSE,m,0.59488,,,,,,-0.555555556,0.013333333,0,0,0,,0,161,161,126,1,
,,,,,,,,,,,,,,,,,,5ea0355ad8cdd9000a122a30,2020-11-27_15h01.54.705,lexical_decision_task_MP_exp2,2020.2.5,Win32,60,m,1,,,,,,,,0.5728,1,,,,,,166,WORD,"ID",16,starch,STARCH,m,0.5728,,,,,,-0.555555556,0.013333333,0,0,0,,0,162,162,105,1,
,,,,,,,,,,,,,,,,,,5ea0355ad8cdd9000a122a30,2020-11-27_15h01.54.705,lexical_decision_task_MP_exp2,2020.2.5,Win32,60,z,1,,,,,,,,0.51438,1,,,,,,256,NW,UN,16,veniod,INLORS,z,0.51438,,,,,,-0.555555556,0.013333333,0,0,0,,0,163,163,435,1,
,,,,,,,,,,,,,,,,,,5ea0355ad8cdd9000a122a30,2020-11-27_15h01.54.705,lexical_decision_task_MP_exp2,2020.2.5,Win32,60,z,1,,,,,,,,0.665485,1,,,,,,467,NW,UN,33,wictor,GORBIE,z,0.665485,,,,,,-0.555555556,0.013333333,0,0,0,,0,164,164,406,1,
,,,,,,,,,,,,,,,,,,5ea0355ad8cdd9000a122a30,2020-11-27_15h01.54.705,lexical_decision_task_MP_exp2,2020.2.5,Win32,60,z,1,,,,,,,,0.63282,1,,,,,,312,NW,"ID",33,nerawl,NERAWL,z,0.63282,,,,,,-0.555555556,0.013333333,0,0,0,,0,165,165,251,1,
,,,,,,,,,,,,,,,,,,5ea0355ad8cdd9000a122a30,2020-11-27_15h01.54.705,lexical_decision_task_MP_exp2,2020.2.5,Win32,60,m,1,,,,,,,,0.58256,1,,,,,,234,WORD,UN,33,poster,CLUMSY,m,0.58256,,,,,,-0.555555556,0.013333333,0,0,0,,0,166,166,173,1,
,,,,,,,,,,,,,,,,,,5ea0355ad8cdd9000a122a30,2020-11-27_15h01.54.705,lexical_decision_task_MP_exp2,2020.2.5,Win32,60,z,1,,,,,,,,0.633985,1,,,,,,308,NW,"ID",33,psetch,PSETCH,z,0.633985,,,,,,-0.555555556,0.013333333,0,0,0,,0,167,167,247,1,
,,,,,,,,,,,,,,,,,,5ea0355ad8cdd9000a122a30,2020-11-27_15h01.54.705,lexical_decision_task_MP_exp2,2020.2.5,Win32,60,m,0,,,,,,,,0.520765,0,,,,,,301,NW,"ID",33,fainch,FAINCH,z,0.520765,,,,,,-0.555555556,0.013333333,0,0,0,,0,168,168,240,1,
,,,,,,,,,,,,,,,,,,5ea0355ad8cdd9000a122a30,2020-11-27_15h01.54.705,lexical_decision_task_MP_exp2,2020.2.5,Win32,60,m,1,,,,,,,,0.6512,1,,,,,,7,WORD,UN,16,abrupt,ANCHOR,m,0.6512,,,,,,-0.555555556,0.013333333,0,0,0,,0,169,169,186,1,
,,,,,,,,,,,,,,,,,,5ea0355ad8cdd9000a122a30,2020-11-27_15h01.54.705,lexical_decision_task_MP_exp2,2020.2.5,Win32,60,z,1,,,,,,,,0.578,1,,,,,,428,NW,UN,33,funtle,TANDLY,z,0.578,,,,,,-0.555555556,0.013333333,0,0,0,,0,170,170,367,1,
,,,,,,,,,,,,,,,,,,5ea0355ad8cdd9000a122a30,2020-11-27_15h01.54.705,lexical_decision_task_MP_exp2,2020.2.5,Win32,60,z,1,,,,,,,,0.78436,1,,,,,,327,NW,"ID",33,plenac,PLENAC,z,0.78436,,,,,,-0.555555556,0.013333333,0,0,0,,0,171,171,266,1,
,,,,,,,,,,,,,,,,,,5ea0355ad8cdd9000a122a30,2020-11-27_15h01.54.705,lexical_decision_task_MP_exp2,2020.2.5,Win32,60,z,1,,,,,,,,0.64041,1,,,,,,345,NW,"ID",33,absend,ABSEND,z,0.64041,,,,,,-0.555555556,0.013333333,0,0,0,,0,172,172,284,1,
,,,,,,,,,,,,,,,,,,5ea0355ad8cdd9000a122a30,2020-11-27_15h01.54.705,lexical_decision_task_MP_exp2,2020.2.5,Win32,60,m,1,,,,,,,,0.664675,1,,,,,,129,WORD,"ID",16,marvel,MARVEL,m,0.664675,,,,,,-0.555555556,0.013333333,0,0,0,,0,173,173,68,1,
,,,,,,,,,,,,,,,,,,5ea0355ad8cdd9000a122a30,2020-11-27_15h01.54.705,lexical_decision_task_MP_exp2,2020.2.5,Win32,60,z,1,,,,,,,,0.576025,1,,,,,,477,NW,UN,33,lobush,PHOTIE,z,0.576025,,,,,,-0.555555556,0.013333333,0,0,0,,0,174,174,416,1,
,,,,,,,,,,,,,,,,,,5ea0355ad8cdd9000a122a30,2020-11-27_15h01.54.705,lexical_decision_task_MP_exp2,2020.2.5,Win32,60,m,1,,,,,,,,0.555355,1,,,,,,22,WORD,UN,16,wealth,JOCKEY,m,0.555355,,,,,,-0.555555556,0.013333333,0,0,0,,0,175,175,201,1,
,,,,,,,,,,,,,,,,,,5ea0355ad8cdd9000a122a30,2020-11-27_15h01.54.705,lexical_decision_task_MP_exp2,2020.2.5,Win32,60,m,1,,,,,,,,0.636195,1,,,,,,2,WORD,UN,16,knight,BRIDGE,m,0.636195,,,,,,-0.555555556,0.013333333,0,0,0,,0,176,176,181,1,
,,,,,,,,,,,,,,,,,,5ea0355ad8cdd9000a122a30,2020-11-27_15h01.54.705,lexical_decision_task_MP_exp2,2020.2.5,Win32,60,m,1,,,,,,,,0.612555,1,,,,,,164,WORD,"ID",16,market,MARKET,m,0.612555,,,,,,-0.555555556,0.013333333,0,0,0,,0,177,177,103,1,
,,,,,,,,,,,,,,,,,,5ea0355ad8cdd9000a122a30,2020-11-27_15h01.54.705,lexical_decision_task_MP_exp2,2020.2.5,Win32,60,z,1,,,,,,,,0.574235,1,,,,,,326,NW,"ID",33,iguade,IGUADE,z,0.574235,,,,,,-0.555555556,0.013333333,0,0,0,,0,178,178,265,1,
,,,,,,,,,,,,,,,,,,5ea0355ad8cdd9000a122a30,2020-11-27_15h01.54.705,lexical_decision_task_MP_exp2,2020.2.5,Win32,60,m,1,,,,,,,,0.717045,1,,,,,,128,WORD,"ID",16,senior,SENIOR,m,0.717045,,,,,,-0.555555556,0.013333333,0,0,0,,0,179,179,67,1,
,,,,,,,,,,,,,,,,,,5ea0355ad8cdd9000a122a30,2020-11-27_15h01.54.705,lexical_decision_task_MP_exp2,2020.2.5,Win32,60,m,1,,,,,,,,0.658395,1,,,,,,149,WORD,"ID",16,invade,INVADE,m,0.658395,,,,,,-0.555555556,0.013333333,0,0,0,,0,180,180,88,1,
,,,,,,,,,,,,,,,,,,5ea0355ad8cdd9000a122a30,2020-11-27_15h01.54.705,lexical_decision_task_MP_exp2,2020.2.5,Win32,60,m,1,,,,,,,,0.60523,1,,,,,,204,WORD,UN,33,lounge,BURDEN,m,0.60523,,,,,,-0.555555556,0.013333333,0,0,0,,0,181,181,143,1,
,,,,,,,,,,,,,,,,,,5ea0355ad8cdd9000a122a30,2020-11-27_15h01.54.705,lexical_decision_task_MP_exp2,2020.2.5,Win32,60,z,1,,,,,,,,0.534925,1,,,,,,480,NW,UN,33,knisma,ROBULY,z,0.534925,,,,,,-0.555555556,0.013333333,0,0,0,,0,182,182,419,1,
,,,,,,,,,,,,,,,,,,5ea0355ad8cdd9000a122a30,2020-11-27_15h01.54.705,lexical_decision_task_MP_exp2,2020.2.5,Win32,60,m,1,,,,,,,,0.71585,1,,,,,,226,WORD,UN,33,flower,CASINO,m,0.71585,,,,,,-0.555555556,0.013333333,0,0,0,,0,183,183,165,1,
,,,,,,,,,,,,,,,,,,5ea0355ad8cdd9000a122a30,2020-11-27_15h01.54.705,lexical_decision_task_MP_exp2,2020.2.5,Win32,60,m,1,,,,,,,,0.66806,1,,,,,,197,WORD,UN,33,wicked,STREAM,m,0.66806,,,,,,-0.555555556,0.013333333,0,0,0,,0,184,184,136,1,
,,,,,,,,,,,,,,,,,,5ea0355ad8cdd9000a122a30,2020-11-27_15h01.54.705,lexical_decision_task_MP_exp2,2020.2.5,Win32,60,z,1,,,,,,,,0.58608,1,,,,,,450,NW,UN,33,cainky,PHRECT,z,0.58608,,,,,,-0.555555556,0.013333333,0,0,0,,0,185,185,389,1,
,,,,,,,,,,,,,,,,,,5ea0355ad8cdd9000a122a30,2020-11-27_15h01.54.705,lexical_decision_task_MP_exp2,2020.2.5,Win32,60,z,1,,,,,,,,0.75296,1,,,,,,347,NW,"ID",33,kerift,KERIFT,z,0.75296,,,,,,-0.555555556,0.013333333,0,0,0,,0,186,186,286,1,
,,,,,,,,,,,,,,,,,,5ea0355ad8cdd9000a122a30,2020-11-27_15h01.54.705,lexical_decision_task_MP_exp2,2020.2.5,Win32,60,m,1,,,,,,,,0.618045,1,,,,,,212,WORD,UN,33,squeal,VERIFY,m,0.618045,,,,,,-0.555555556,0.013333333,0,0,0,,0,187,187,151,1,
,,,,,,,,,,,,,,,,,,5ea0355ad8cdd9000a122a30,2020-11-27_15h01.54.705,lexical_decision_task_MP_exp2,2020.2.5,Win32,60,m,1,,,,,,,,0.55289,1,,,,,,228,WORD,UN,33,kidney,MASTER,m,0.55289,,,,,,-0.555555556,0.013333333,0,0,0,,0,188,188,167,1,
,,,,,,,,,,,,,,,,,,5ea0355ad8cdd9000a122a30,2020-11-27_15h01.54.705,lexical_decision_task_MP_exp2,2020.2.5,Win32,60,z,1,,,,,,,,0.61719,1,,,,,,241,NW,UN,16,unwert,SMENCO,z,0.61719,,,,,,-0.555555556,0.013333333,0,0,0,,0,189,189,420,1,
,,,,,,,,,,,,,,,,,,5ea0355ad8cdd9000a122a30,2020-11-27_15h01.54.705,lexical_decision_task_MP_exp2,2020.2.5,Win32,60,z,1,,,,,,,,1.004245,1,,,,,,352,NW,"ID",33,tringe,TRINGE,z,1.004245,,,,,,-0.555555556,0.013333333,0,0,0,,0,190,190,291,1,
,,,,,,,,,,,,,,,,,,5ea0355ad8cdd9000a122a30,2020-11-27_15h01.54.705,lexical_decision_task_MP_exp2,2020.2.5,Win32,60,m,1,,,,,,,,0.624455,1,,,,,,131,WORD,"ID",16,quench,QUENCH,m,0.624455,,,,,,-0.555555556,0.013333333,0,0,0,,0,191,191,70,1,
,,,,,,,,,,,,,,,,,,5ea0355ad8cdd9000a122a30,2020-11-27_15h01.54.705,lexical_decision_task_MP_exp2,2020.2.5,Win32,60,z,1,,,,,,,,0.58692,1,,,,,,463,NW,UN,33,chaite,KISPEL,z,0.58692,,,,,,-0.555555556,0.013333333,0,0,0,,0,192,192,402,1,
,,,,,,,,,,,,,,,,,,5ea0355ad8cdd9000a122a30,2020-11-27_15h01.54.705,lexical_decision_task_MP_exp2,2020.2.5,Win32,60,z,1,,,,,,,,0.567345,1,,,,,,375,NW,"ID",16,yorque,YORQUE,z,0.567345,,,,,,-0.555555556,0.013333333,0,0,0,,0,193,193,314,1,
,,,,,,,,,,,,,,,,,,5ea0355ad8cdd9000a122a30,2020-11-27_15h01.54.705,lexical_decision_task_MP_exp2,2020.2.5,Win32,60,z,1,,,,,,,,0.71084,1,,,,,,390,NW,"ID",16,hatrus,HATRUS,z,0.71084,,,,,,-0.555555556,0.013333333,0,0,0,,0,194,194,329,1,
,,,,,,,,,,,,,,,,,,5ea0355ad8cdd9000a122a30,2020-11-27_15h01.54.705,lexical_decision_task_MP_exp2,2020.2.5,Win32,60,m,1,,,,,,,,0.784875,1,,,,,,170,WORD,"ID",16,pounce,POUNCE,m,0.784875,,,,,,-0.555555556,0.013333333,0,0,0,,0,195,195,109,1,
,,,,,,,,,,,,,,,,,,5ea0355ad8cdd9000a122a30,2020-11-27_15h01.54.705,lexical_decision_task_MP_exp2,2020.2.5,Win32,60,z,1,,,,,,,,0.550695,1,,,,,,456,NW,UN,33,wanigh,BROGET,z,0.550695,,,,,,-0.555555556,0.013333333,0,0,0,,0,196,196,395,1,
,,,,,,,,,,,,,,,,,,5ea0355ad8cdd9000a122a30,2020-11-27_15h01.54.705,lexical_decision_task_MP_exp2,2020.2.5,Win32,60,m,1,,,,,,,,0.570785,1,,,,,,158,WORD,"ID",16,island,ISLAND,m,0.570785,,,,,,-0.555555556,0.013333333,0,0,0,,0,197,197,97,1,
,,,,,,,,,,,,,,,,,,5ea0355ad8cdd9000a122a30,2020-11-27_15h01.54.705,lexical_decision_task_MP_exp2,2020.2.5,Win32,60,z,1,,,,,,,,0.56592,1,,,,,,438,NW,UN,33,limpor,BAITCH,z,0.56592,,,,,,-0.555555556,0.013333333,0,0,0,,0,198,198,377,1,
,,,,,,,,,,,,,,,,,,5ea0355ad8cdd9000a122a30,2020-11-27_15h01.54.705,lexical_decision_task_MP_exp2,2020.2.5,Win32,60,z,1,,,,,,,,0.55732,1,,,,,,275,NW,UN,16,yarmon,SLEIRT,z,0.55732,,,,,,-0.555555556,0.013333333,0,0,0,,0,199,199,454,1,
,,,,,,,,,,,,,,,,,,5ea0355ad8cdd9000a122a30,2020-11-27_15h01.54.705,lexical_decision_task_MP_exp2,2020.2.5,Win32,60,z,1,,,,,,,,0.60354,1,,,,,,396,NW,"ID",16,flengy,FLENGY,z,0.60354,,,,,,-0.555555556,0.013333333,0,0,0,,0,200,200,335,1,
,,,,,,,,,,,,,,,,,,5ea0355ad8cdd9000a122a30,2020-11-27_15h01.54.705,lexical_decision_task_MP_exp2,2020.2.5,Win32,60,z,1,,,,,,,,0.676245,1,,,,,,319,NW,"ID",33,zomber,ZOMBER,z,0.676245,,,,,,-0.555555556,0.013333333,0,0,0,,0,201,201,258,1,
,,,,,,,,,,,,,,,,,,5ea0355ad8cdd9000a122a30,2020-11-27_15h01.54.705,lexical_decision_task_MP_exp2,2020.2.5,Win32,60,m,1,,,,,,,,0.594225,1,,,,,,104,WORD,"ID",33,studio,STUDIO,m,0.594225,,,,,,-0.555555556,0.013333333,0,0,0,,0,202,202,43,1,
,,,,,,,,,,,,,,,,,,5ea0355ad8cdd9000a122a30,2020-11-27_15h01.54.705,lexical_decision_task_MP_exp2,2020.2.5,Win32,60,z,1,,,,,,,,0.521745,1,,,,,,285,NW,UN,16,reldon,PRUDGE,z,0.521745,,,,,,-0.555555556,0.013333333,0,0,0,,0,203,203,464,1,
,,,,,,,,,,,,,,,,,,5ea0355ad8cdd9000a122a30,2020-11-27_15h01.54.705,lexical_decision_task_MP_exp2,2020.2.5,Win32,60,m,1,,,,,,,,0.68626,1,,,,,,86,WORD,"ID",33,rodent,RODENT,m,0.68626,,,,,,-0.555555556,0.013333333,0,0,0,,0,204,204,25,1,
,,,,,,,,,,,,,,,,,,5ea0355ad8cdd9000a122a30,2020-11-27_15h01.54.705,lexical_decision_task_MP_exp2,2020.2.5,Win32,60,z,1,,,,,,,,0.583755,1,,,,,,464,NW,UN,33,whivex,CHAITE,z,0.583755,,,,,,-0.555555556,0.013333333,0,0,0,,0,205,205,403,1,
,,,,,,,,,,,,,,,,,,5ea0355ad8cdd9000a122a30,2020-11-27_15h01.54.705,lexical_decision_task_MP_exp2,2020.2.5,Win32,60,m,1,,,,,,,,0.618155,1,,,,,,75,WORD,"ID",33,trophy,TROPHY,m,0.618155,,,,,,-0.555555556,0.013333333,0,0,0,,0,206,206,14,1,
,,,,,,,,,,,,,,,,,,5ea0355ad8cdd9000a122a30,2020-11-27_15h01.54.705,lexical_decision_task_MP_exp2,2020.2.5,Win32,60,m,1,,,,,,,,0.489265,1,,,,,,28,WORD,UN,16,sketch,COMEDY,m,0.489265,,,,,,-0.555555556,0.013333333,0,0,0,,0,207,207,207,1,
,,,,,,,,,,,,,,,,,,5ea0355ad8cdd9000a122a30,2020-11-27_15h01.54.705,lexical_decision_task_MP_exp2,2020.2.5,Win32,60,z,1,,,,,,,,0.50808,1,,,,,,354,NW,"ID",33,virlex,VIRLEX,z,0.50808,,,,,,-0.555555556,0.013333333,0,0,0,,0,208,208,293,1,
,,,,,,,,,,,,,,,,,,5ea0355ad8cdd9000a122a30,2020-11-27_15h01.54.705,lexical_decision_task_MP_exp2,2020.2.5,Win32,60,m,1,,,,,,,,0.604345,1,,,,,,109,WORD,"ID",33,wonder,WONDER,m,0.604345,,,,,,-0.555555556,0.013333333,0,0,0,,0,209,209,48,1,
,,,,,,,,,,,,,,,,,,5ea0355ad8cdd9000a122a30,2020-11-27_15h01.54.705,lexical_decision_task_MP_exp2,2020.2.5,Win32,60,z,1,,,,,,,,0.86825,1,,,,,,411,NW,"ID",16,orchin,ORCHIN,z,0.86825,,,,,,-0.555555556,0.013333333,0,0,0,,0,210,210,350,1,
,,,,,,,,,,,,,,,,,,5ea0355ad8cdd9000a122a30,2020-11-27_15h01.54.705,lexical_decision_task_MP_exp2,2020.2.5,Win32,60,z,1,,,,,,,,0.75139,1,,,,,,328,NW,"ID",33,broake,BROAKE,z,0.75139,,,,,,-0.555555556,0.013333333,0,0,0,,0,211,211,267,1,
,,,,,,,,,,,,,,,,,,5ea0355ad8cdd9000a122a30,2020-11-27_15h01.54.705,lexical_decision_task_MP_exp2,2020.2.5,Win32,60,z,1,,,,,,,,0.520045,1,,,,,,360,NW,"ID",33,desory,DESORY,z,0.520045,,,,,,-0.555555556,0.013333333,0,0,0,,0,212,212,299,1,
,,,,,,,,,,,,,,,,,,5ea0355ad8cdd9000a122a30,2020-11-27_15h01.54.705,lexical_decision_task_MP_exp2,2020.2.5,Win32,60,m,1,,,,,,,,0.54712,1,,,,,,208,WORD,UN,33,search,HOCKEY,m,0.54712,,,,,,-0.555555556,0.013333333,0,0,0,,0,213,213,147,1,
,,,,,,,,,,,,,,,,,,5ea0355ad8cdd9000a122a30,2020-11-27_15h01.54.705,lexical_decision_task_MP_exp2,2020.2.5,Win32,60,z,0,,,,,,,,0.619935,0,,,,,,92,WORD,"ID",33,strand,STRAND,m,0.619935,,,,,,-0.555555556,0.013333333,0,0,0,,0,214,214,31,1,
,,,,,,,,,,,,,,,,,,5ea0355ad8cdd9000a122a30,2020-11-27_15h01.54.705,lexical_decision_task_MP_exp2,2020.2.5,Win32,60,m,1,,,,,,,,0.91756,1,,,,,,215,WORD,UN,33,lumber,PHOBIA,m,0.91756,,,,,,-0.555555556,0.013333333,0,0,0,,0,215,215,154,1,
,,,,,,,,,,,,,,,,,,5ea0355ad8cdd9000a122a30,2020-11-27_15h01.54.705,lexical_decision_task_MP_exp2,2020.2.5,Win32,60,m,1,,,,,,,,0.57133,1,,,,,,6,WORD,UN,16,anchor,BUNDLE,m,0.57133,,,,,,-0.555555556,0.013333333,0,0,0,,0,216,216,185,1,
,,,,,,,,,,,,,,,,,,5ea0355ad8cdd9000a122a30,2020-11-27_15h01.54.705,lexical_decision_task_MP_exp2,2020.2.5,Win32,60,m,1,,,,,,,,0.56825,1,,,,,,69,WORD,"ID",33,plenty,PLENTY,m,0.56825,,,,,,-0.555555556,0.013333333,0,0,0,,0,217,217,8,1,
,,,,,,,,,,,,,,,,,,5ea0355ad8cdd9000a122a30,2020-11-27_15h01.54.705,lexical_decision_task_MP_exp2,2020.2.5,Win32,60,m,1,,,,,,,,0.49731,1,,,,,,179,WORD,"ID",16,basket,BASKET,m,0.49731,,,,,,-0.555555556,0.013333333,0,0,0,,0,218,218,118,1,
,,,,,,,,,,,,,,,,,,5ea0355ad8cdd9000a122a30,2020-11-27_15h01.54.705,lexical_decision_task_MP_exp2,2020.2.5,Win32,60,z,1,,,,,,,,0.618155,1,,,,,,318,NW,"ID",33,reagly,REAGLY,z,0.618155,,,,,,-0.555555556,0.013333333,0,0,0,,0,219,219,257,1,
,,,,,,,,,,,,,,,,,,5ea0355ad8cdd9000a122a30,2020-11-27_15h01.54.705,lexical_decision_task_MP_exp2,2020.2.5,Win32,60,z,1,,,,,,,,0.556165,1,,,,,,305,NW,"ID",33,forgle,FORGLE,z,0.556165,,,,,,-0.555555556,0.013333333,0,0,0,,0,220,220,244,1,
,,,,,,,,,,,,,,,,,,5ea0355ad8cdd9000a122a30,2020-11-27_15h01.54.705,lexical_decision_task_MP_exp2,2020.2.5,Win32,60,z,1,,,,,,,,0.5778,1,,,,,,437,NW,UN,33,baitch,SNAPEL,z,0.5778,,,,,,-0.555555556,0.013333333,0,0,0,,0,221,221,376,1,
,,,,,,,,,,,,,,,,,,5ea0355ad8cdd9000a122a30,2020-11-27_15h01.54.705,lexical_decision_task_MP_exp2,2020.2.5,Win32,60,m,1,,,,,,,,0.677155,1,,,,,,153,WORD,"ID",16,behold,BEHOLD,m,0.677155,,,,,,-0.555555556,0.013333333,0,0,0,,0,222,222,92,1,
,,,,,,,,,,,,,,,,,,5ea0355ad8cdd9000a122a30,2020-11-27_15h01.54.705,lexical_decision_task_MP_exp2,2020.2.5,Win32,60,m,1,,,,,,,,0.60114,1,,,,,,24,WORD,UN,16,domain,PRAISE,m,0.60114,,,,,,-0.555555556,0.013333333,0,0,0,,0,223,223,203,1,
,,,,,,,,,,,,,,,,,,5ea0355ad8cdd9000a122a30,2020-11-27_15h01.54.705,lexical_decision_task_MP_exp2,2020.2.5,Win32,60,z,1,,,,,,,,0.549785,1,,,,,,295,NW,UN,16,beinch,GLEATH,z,0.549785,,,,,,-0.555555556,0.013333333,0,0,0,,0,224,224,474,1,
,,,,,,,,,,,,,,,,,,5ea0355ad8cdd9000a122a30,2020-11-27_15h01.54.705,lexical_decision_task_MP_exp2,2020.2.5,Win32,60,z,1,,,,,,,,0.75438,1,,,,,,265,NW,UN,16,varmit,DISTAR,z,0.75438,,,,,,-0.555555556,0.013333333,0,0,0,,0,225,225,444,1,
,,,,,,,,,,,,,,,,,,5ea0355ad8cdd9000a122a30,2020-11-27_15h01.54.705,lexical_decision_task_MP_exp2,2020.2.5,Win32,60,z,1,,,,,,,,0.645955,1,,,,,,262,NW,UN,16,dolica,QUILEW,z,0.645955,,,,,,-0.555555556,0.013333333,0,0,0,,0,226,226,441,1,
,,,,,,,,,,,,,,,,,,5ea0355ad8cdd9000a122a30,2020-11-27_15h01.54.705,lexical_decision_task_MP_exp2,2020.2.5,Win32,60,m,1,,,,,,,,0.71661,1,,,,,,169,WORD,"ID",16,genius,GENIUS,m,0.71661,,,,,,-0.555555556,0.013333333,0,0,0,,0,227,227,108,1,
,,,,,,,,,,,,,,,,,,5ea0355ad8cdd9000a122a30,2020-11-27_15h01.54.705,lexical_decision_task_MP_exp2,2020.2.5,Win32,60,z,1,,,,,,,,0.617585,1,,,,,,385,NW,"ID",16,veigma,VEIGMA,z,0.617585,,,,,,-0.555555556,0.013333333,0,0,0,,0,228,228,324,1,
,,,,,,,,,,,,,,,,,,5ea0355ad8cdd9000a122a30,2020-11-27_15h01.54.705,lexical_decision_task_MP_exp2,2020.2.5,Win32,60,m,1,,,,,,,,0.601475,1,,,,,,152,WORD,"ID",16,rocket,ROCKET,m,0.601475,,,,,,-0.555555556,0.013333333,0,0,0,,0,229,229,91,1,
,,,,,,,,,,,,,,,,,,5ea0355ad8cdd9000a122a30,2020-11-27_15h01.54.705,lexical_decision_task_MP_exp2,2020.2.5,Win32,60,m,1,,,,,,,,0.59407,1,,,,,,206,WORD,UN,33,wreath,TAILOR,m,0.59407,,,,,,-0.555555556,0.013333333,0,0,0,,0,230,230,145,1,
,,,,,,,,,,,,,,,,,,5ea0355ad8cdd9000a122a30,2020-11-27_15h01.54.705,lexical_decision_task_MP_exp2,2020.2.5,Win32,60,z,1,,,,,,,,0.60643,1,,,,,,432,NW,UN,33,drance,LUNKER,z,0.60643,,,,,,-0.555555556,0.013333333,0,0,0,,0,231,231,371,1,
,,,,,,,,,,,,,,,,,,5ea0355ad8cdd9000a122a30,2020-11-27_15h01.54.705,lexical_decision_task_MP_exp2,2020.2.5,Win32,60,z,1,,,,,,,,0.684685,1,,,,,,410,NW,"ID",16,tunory,TUNORY,z,0.684685,,,,,,-0.555555556,0.013333333,0,0,0,,0,232,232,349,1,
,,,,,,,,,,,,,,,,,,5ea0355ad8cdd9000a122a30,2020-11-27_15h01.54.705,lexical_decision_task_MP_exp2,2020.2.5,Win32,60,m,1,,,,,,,,0.603345,1,,,,,,160,WORD,"ID",16,violet,VIOLET,m,0.603345,,,,,,-0.555555556,0.013333333,0,0,0,,0,233,233,99,1,
,,,,,,,,,,,,,,,,,,5ea0355ad8cdd9000a122a30,2020-11-27_15h01.54.705,lexical_decision_task_MP_exp2,2020.2.5,Win32,60,z,1,,,,,,,,0.58972,1,,,,,,320,NW,"ID",33,jockal,JOCKAL,z,0.58972,,,,,,-0.555555556,0.013333333,0,0,0,,0,234,234,259,1,
,,,,,,,,,,,,,,,,,,5ea0355ad8cdd9000a122a30,2020-11-27_15h01.54.705,lexical_decision_task_MP_exp2,2020.2.5,Win32,60,m,1,,,,,,,,0.719415,1,,,,,,117,WORD,"ID",33,branch,BRANCH,m,0.719415,,,,,,-0.555555556,0.013333333,0,0,0,,0,235,235,56,1,
,,,,,,,,,,,,,,,,,,5ea0355ad8cdd9000a122a30,2020-11-27_15h01.54.705,lexical_decision_task_MP_exp2,2020.2.5,Win32,60,m,1,,,,,,,,0.6224,1,,,,,,62,WORD,"ID",33,region,REGION,m,0.6224,,,,,,-0.555555556,0.013333333,0,0,0,,0,236,236,1,1,
,,,,,,,,,,,,,,,,,,5ea0355ad8cdd9000a122a30,2020-11-27_15h01.54.705,lexical_decision_task_MP_exp2,2020.2.5,Win32,60,z,1,,,,,,,,0.634785,1,,,,,,293,NW,UN,16,inhort,SWANCE,z,0.634785,,,,,,-0.555555556,0.013333333,0,0,0,,0,237,237,472,1,
,,,,,,,,,,,,,,,,,,5ea0355ad8cdd9000a122a30,2020-11-27_15h01.54.705,lexical_decision_task_MP_exp2,2020.2.5,Win32,60,z,1,,,,,,,,0.6224,1,,,,,,247,NW,UN,16,strole,BLARGE,z,0.6224,,,,,,-0.555555556,0.013333333,0,0,0,,0,238,238,426,1,
,,,,,,,,,,,,,,,,,,5ea0355ad8cdd9000a122a30,2020-11-27_15h01.54.705,lexical_decision_task_MP_exp2,2020.2.5,Win32,60,m,1,,,,,,,,0.631135,1,,,,,,221,WORD,UN,33,hinder,MASCOT,m,0.631135,,,,,,-0.555555556,0.013333333,0,0,0,,0,239,239,160,1,
,,,,,,,,,,,,,,,,,,5ea0355ad8cdd9000a122a30,2020-11-27_15h01.54.705,lexical_decision_task_MP_exp2,2020.2.5,Win32,60,z,1,,,,,,,,0.665255,1,,,,,,332,NW,"ID",33,vangue,VANGUE,z,0.665255,,,,,,-0.555555556,0.013333333,0,0,0,,0,240,240,271,1,
,,,,,,,,,,,,,,,,,,5ea0355ad8cdd9000a122a30,2020-11-27_15h01.54.705,lexical_decision_task_MP_exp2,2020.2.5,Win32,60,z,1,,,,,,,,0.60212,1,,,,,,274,NW,UN,16,sleirt,FUMBLO,z,0.60212,,,,,,-0.555555556,0.013333333,0,0,0,space,0,241,241,453,1,10.94503
,,,,,,,,,,,,,,,,,,5ea0355ad8cdd9000a122a30,2020-11-27_15h01.54.705,lexical_decision_task_MP_exp2,2020.2.5,Win32,60,m,0,,,,,,,,1.383985,0,,,,,,363,NW,"ID",16,breali,BREALI,z,1.383985,,,,,,-0.555555556,0.013333333,0,0,0,,0,242,242,302,1,
,,,,,,,,,,,,,,,,,,5ea0355ad8cdd9000a122a30,2020-11-27_15h01.54.705,lexical_decision_task_MP_exp2,2020.2.5,Win32,60,z,1,,,,,,,,0.69848,1,,,,,,478,NW,UN,33,pebric,ACRISE,z,0.69848,,,,,,-0.555555556,0.013333333,0,0,0,,0,243,243,417,1,
,,,,,,,,,,,,,,,,,,5ea0355ad8cdd9000a122a30,2020-11-27_15h01.54.705,lexical_decision_task_MP_exp2,2020.2.5,Win32,60,m,1,,,,,,,,0.586375,1,,,,,,99,WORD,"ID",33,fluent,FLUENT,m,0.586375,,,,,,-0.555555556,0.013333333,0,0,0,,0,244,244,38,1,
,,,,,,,,,,,,,,,,,,5ea0355ad8cdd9000a122a30,2020-11-27_15h01.54.705,lexical_decision_task_MP_exp2,2020.2.5,Win32,60,z,1,,,,,,,,0.665,1,,,,,,419,NW,"ID",16,slount,SLOUNT,z,0.665,,,,,,-0.555555556,0.013333333,0,0,0,,0,245,245,358,1,
,,,,,,,,,,,,,,,,,,5ea0355ad8cdd9000a122a30,2020-11-27_15h01.54.705,lexical_decision_task_MP_exp2,2020.2.5,Win32,60,m,1,,,,,,,,0.784095,1,,,,,,205,WORD,UN,33,tailor,LOUNGE,m,0.784095,,,,,,-0.555555556,0.013333333,0,0,0,,0,246,246,144,1,
,,,,,,,,,,,,,,,,,,5ea0355ad8cdd9000a122a30,2020-11-27_15h01.54.705,lexical_decision_task_MP_exp2,2020.2.5,Win32,60,m,1,,,,,,,,0.55392,1,,,,,,78,WORD,"ID",33,column,COLUMN,m,0.55392,,,,,,-0.555555556,0.013333333,0,0,0,,0,247,247,17,1,
,,,,,,,,,,,,,,,,,,5ea0355ad8cdd9000a122a30,2020-11-27_15h01.54.705,lexical_decision_task_MP_exp2,2020.2.5,Win32,60,m,1,,,,,,,,0.562255,1,,,,,,77,WORD,"ID",33,racket,RACKET,m,0.562255,,,,,,-0.555555556,0.013333333,0,0,0,,0,248,248,16,1,
,,,,,,,,,,,,,,,,,,5ea0355ad8cdd9000a122a30,2020-11-27_15h01.54.705,lexical_decision_task_MP_exp2,2020.2.5,Win32,60,m,1,,,,,,,,0.567545,1,,,,,,134,WORD,"ID",16,staple,STAPLE,m,0.567545,,,,,,-0.555555556,0.013333333,0,0,0,,0,249,249,73,1,
,,,,,,,,,,,,,,,,,,5ea0355ad8cdd9000a122a30,2020-11-27_15h01.54.705,lexical_decision_task_MP_exp2,2020.2.5,Win32,60,z,1,,,,,,,,0.553455,1,,,,,,334,NW,"ID",33,watmeg,WATMEG,z,0.553455,,,,,,-0.555555556,0.013333333,0,0,0,,0,250,250,273,1,
,,,,,,,,,,,,,,,,,,5ea0355ad8cdd9000a122a30,2020-11-27_15h01.54.705,lexical_decision_task_MP_exp2,2020.2.5,Win32,60,m,1,,,,,,,,0.68725,1,,,,,,132,WORD,"ID",16,strong,STRONG,m,0.68725,,,,,,-0.555555556,0.013333333,0,0,0,,0,251,251,71,1,
,,,,,,,,,,,,,,,,,,5ea0355ad8cdd9000a122a30,2020-11-27_15h01.54.705,lexical_decision_task_MP_exp2,2020.2.5,Win32,60,m,1,,,,,,,,0.69783,1,,,,,,151,WORD,"ID",16,mystic,MYSTIC,m,0.69783,,,,,,-0.555555556,0.013333333,0,0,0,,0,252,252,90,1,
,,,,,,,,,,,,,,,,,,5ea0355ad8cdd9000a122a30,2020-11-27_15h01.54.705,lexical_decision_task_MP_exp2,2020.2.5,Win32,60,m,1,,,,,,,,0.59149,1,,,,,,147,WORD,"ID",16,garlic,GARLIC,m,0.59149,,,,,,-0.555555556,0.013333333,0,0,0,,0,253,253,86,1,
,,,,,,,,,,,,,,,,,,5ea0355ad8cdd9000a122a30,2020-11-27_15h01.54.705,lexical_decision_task_MP_exp2,2020.2.5,Win32,60,z,1,,,,,,,,0.733885,1,,,,,,454,NW,UN,33,tondle,SCOUGE,z,0.733885,,,,,,-0.555555556,0.013333333,0,0,0,,0,254,254,393,1,
,,,,,,,,,,,,,,,,,,5ea0355ad8cdd9000a122a30,2020-11-27_15h01.54.705,lexical_decision_task_MP_exp2,2020.2.5,Win32,60,m,1,,,,,,,,0.665585,1,,,,,,60,WORD,UN,16,fright,PENCIL,m,0.665585,,,,,,-0.555555556,0.013333333,0,0,0,,0,255,255,239,1,
,,,,,,,,,,,,,,,,,,5ea0355ad8cdd9000a122a30,2020-11-27_15h01.54.705,lexical_decision_task_MP_exp2,2020.2.5,Win32,60,m,0,,,,,,,,0.81567,0,,,,,,250,NW,UN,16,lupict,MILTED,z,0.81567,,,,,,-0.555555556,0.013333333,0,0,0,,0,256,256,429,1,
,,,,,,,,,,,,,,,,,,5ea0355ad8cdd9000a122a30,2020-11-27_15h01.54.705,lexical_decision_task_MP_exp2,2020.2.5,Win32,60,m,1,,,,,,,,0.667675,1,,,,,,37,WORD,UN,16,powder,INSULT,m,0.667675,,,,,,-0.555555556,0.013333333,0,0,0,,0,257,257,216,1,
,,,,,,,,,,,,,,,,,,5ea0355ad8cdd9000a122a30,2020-11-27_15h01.54.705,lexical_decision_task_MP_exp2,2020.2.5,Win32,60,z,1,,,,,,,,0.75123,1,,,,,,257,NW,UN,16,poluth,VENIOD,z,0.75123,,,,,,-0.555555556,0.013333333,0,0,0,,0,258,258,436,1,
,,,,,,,,,,,,,,,,,,5ea0355ad8cdd9000a122a30,2020-11-27_15h01.54.705,lexical_decision_task_MP_exp2,2020.2.5,Win32,60,m,1,,,,,,,,0.715855,1,,,,,,222,WORD,UN,33,export,HINDER,m,0.715855,,,,,,-0.555555556,0.013333333,0,0,0,,0,259,259,161,1,
,,,,,,,,,,,,,,,,,,5ea0355ad8cdd9000a122a30,2020-11-27_15h01.54.705,lexical_decision_task_MP_exp2,2020.2.5,Win32,60,m,1,,,,,,,,0.670095,1,,,,,,185,WORD,UN,33,portal,BOTHER,m,0.670095,,,,,,-0.555555556,0.013333333,0,0,0,,0,260,260,124,1,
,,,,,,,,,,,,,,,,,,5ea0355ad8cdd9000a122a30,2020-11-27_15h01.54.705,lexical_decision_task_MP_exp2,2020.2.5,Win32,60,m,1,,,,,,,,0.645835,1,,,,,,116,WORD,"ID",33,tumble,TUMBLE,m,0.645835,,,,,,-0.555555556,0.013333333,0,0,0,,0,261,261,55,1,
,,,,,,,,,,,,,,,,,,5ea0355ad8cdd9000a122a30,2020-11-27_15h01.54.705,lexical_decision_task_MP_exp2,2020.2.5,Win32,60,m,1,,,,,,,,0.659995,1,,,,,,165,WORD,"ID",16,invest,INVEST,m,0.659995,,,,,,-0.555555556,0.013333333,0,0,0,,0,262,262,104,1,
,,,,,,,,,,,,,,,,,,5ea0355ad8cdd9000a122a30,2020-11-27_15h01.54.705,lexical_decision_task_MP_exp2,2020.2.5,Win32,60,m,1,,,,,,,,0.734565,1,,,,,,180,WORD,"ID",16,silent,SILENT,m,0.734565,,,,,,-0.555555556,0.013333333,0,0,0,,0,263,263,119,1,
,,,,,,,,,,,,,,,,,,5ea0355ad8cdd9000a122a30,2020-11-27_15h01.54.705,lexical_decision_task_MP_exp2,2020.2.5,Win32,60,m,1,,,,,,,,0.625815,1,,,,,,10,WORD,UN,16,cruise,ETHNIC,m,0.625815,,,,,,-0.555555556,0.013333333,0,0,0,,0,264,264,189,1,
,,,,,,,,,,,,,,,,,,5ea0355ad8cdd9000a122a30,2020-11-27_15h01.54.705,lexical_decision_task_MP_exp2,2020.2.5,Win32,60,z,1,,,,,,,,0.681795,1,,,,,,471,NW,UN,33,cigney,NOBEST,z,0.681795,,,,,,-0.555555556,0.013333333,0,0,0,,0,265,265,410,1,
,,,,,,,,,,,,,,,,,,5ea0355ad8cdd9000a122a30,2020-11-27_15h01.54.705,lexical_decision_task_MP_exp2,2020.2.5,Win32,60,m,1,,,,,,,,0.55465,1,,,,,,238,WORD,UN,33,behalf,FLOWER,m,0.55465,,,,,,-0.555555556,0.013333333,0,0,0,,0,266,266,177,1,
,,,,,,,,,,,,,,,,,,5ea0355ad8cdd9000a122a30,2020-11-27_15h01.54.705,lexical_decision_task_MP_exp2,2020.2.5,Win32,60,m,1,,,,,,,,0.892765,1,,,,,,23,WORD,UN,16,praise,WEALTH,m,0.892765,,,,,,-0.555555556,0.013333333,0,0,0,,0,267,267,202,1,
,,,,,,,,,,,,,,,,,,5ea0355ad8cdd9000a122a30,2020-11-27_15h01.54.705,lexical_decision_task_MP_exp2,2020.2.5,Win32,60,m,1,,,,,,,,0.601485,1,,,,,,230,WORD,UN,33,mother,FRINGE,m,0.601485,,,,,,-0.555555556,0.013333333,0,0,0,,0,268,268,169,1,
,,,,,,,,,,,,,,,,,,5ea0355ad8cdd9000a122a30,2020-11-27_15h01.54.705,lexical_decision_task_MP_exp2,2020.2.5,Win32,60,z,1,,,,,,,,0.61683,1,,,,,,281,NW,UN,16,porlex,MELATY,z,0.61683,,,,,,-0.555555556,0.013333333,0,0,0,,0,269,269,460,1,
,,,,,,,,,,,,,,,,,,5ea0355ad8cdd9000a122a30,2020-11-27_15h01.54.705,lexical_decision_task_MP_exp2,2020.2.5,Win32,60,m,1,,,,,,,,0.58532,1,,,,,,29,WORD,UN,16,orient,SKETCH,m,0.58532,,,,,,-0.555555556,0.013333333,0,0,0,,0,270,270,208,1,
,,,,,,,,,,,,,,,,,,5ea0355ad8cdd9000a122a30,2020-11-27_15h01.54.705,lexical_decision_task_MP_exp2,2020.2.5,Win32,60,m,1,,,,,,,,0.64577,1,,,,,,127,WORD,"ID",16,castle,CASTLE,m,0.64577,,,,,,-0.555555556,0.013333333,0,0,0,,0,271,271,66,1,
,,,,,,,,,,,,,,,,,,5ea0355ad8cdd9000a122a30,2020-11-27_15h01.54.705,lexical_decision_task_MP_exp2,2020.2.5,Win32,60,m,1,,,,,,,,0.603725,1,,,,,,94,WORD,"ID",33,travel,TRAVEL,m,0.603725,,,,,,-0.555555556,0.013333333,0,0,0,,0,272,272,33,1,
,,,,,,,,,,,,,,,,,,5ea0355ad8cdd9000a122a30,2020-11-27_15h01.54.705,lexical_decision_task_MP_exp2,2020.2.5,Win32,60,z,1,,,,,,,,0.586765,1,,,,,,276,NW,UN,16,petain,YARMON,z,0.586765,,,,,,-0.555555556,0.013333333,0,0,0,,0,273,273,455,1,
,,,,,,,,,,,,,,,,,,5ea0355ad8cdd9000a122a30,2020-11-27_15h01.54.705,lexical_decision_task_MP_exp2,2020.2.5,Win32,60,m,0,,,,,,,,0.7349,0,,,,,,404,NW,"ID",16,cluirm,CLUIRM,z,0.7349,,,,,,-0.555555556,0.013333333,0,0,0,,0,274,274,343,1,
,,,,,,,,,,,,,,,,,,5ea0355ad8cdd9000a122a30,2020-11-27_15h01.54.705,lexical_decision_task_MP_exp2,2020.2.5,Win32,60,z,1,,,,,,,,0.820265,1,,,,,,433,NW,UN,33,pitrom,DRANCE,z,0.820265,,,,,,-0.555555556,0.013333333,0,0,0,,0,275,275,372,1,
,,,,,,,,,,,,,,,,,,5ea0355ad8cdd9000a122a30,2020-11-27_15h01.54.705,lexical_decision_task_MP_exp2,2020.2.5,Win32,60,m,1,,,,,,,,0.623745,1,,,,,,36,WORD,UN,16,insult,VANISH,m,0.623745,,,,,,-0.555555556,0.013333333,0,0,0,,0,276,276,215,1,
,,,,,,,,,,,,,,,,,,5ea0355ad8cdd9000a122a30,2020-11-27_15h01.54.705,lexical_decision_task_MP_exp2,2020.2.5,Win32,60,z,1,,,,,,,,0.66294,1,,,,,,258,NW,UN,16,soudal,POLUTH,z,0.66294,,,,,,-0.555555556,0.013333333,0,0,0,,0,277,277,437,1,
,,,,,,,,,,,,,,,,,,5ea0355ad8cdd9000a122a30,2020-11-27_15h01.54.705,lexical_decision_task_MP_exp2,2020.2.5,Win32,60,m,1,,,,,,,,0.55171,1,,,,,,83,WORD,"ID",33,result,RESULT,m,0.55171,,,,,,-0.555555556,0.013333333,0,0,0,,0,278,278,22,1,
,,,,,,,,,,,,,,,,,,5ea0355ad8cdd9000a122a30,2020-11-27_15h01.54.705,lexical_decision_task_MP_exp2,2020.2.5,Win32,60,z,1,,,,,,,,0.674015,1,,,,,,289,NW,UN,16,splino,STARBY,z,0.674015,,,,,,-0.555555556,0.013333333,0,0,0,,0,279,279,468,1,
,,,,,,,,,,,,,,,,,,5ea0355ad8cdd9000a122a30,2020-11-27_15h01.54.705,lexical_decision_task_MP_exp2,2020.2.5,Win32,60,m,1,,,,,,,,0.61973,1,,,,,,156,WORD,"ID",16,cradle,CRADLE,m,0.61973,,,,,,-0.555555556,0.013333333,0,0,0,,0,280,280,95,1,
,,,,,,,,,,,,,,,,,,5ea0355ad8cdd9000a122a30,2020-11-27_15h01.54.705,lexical_decision_task_MP_exp2,2020.2.5,Win32,60,z,1,,,,,,,,0.617705,1,,,,,,259,NW,UN,16,unject,SOUDAL,z,0.617705,,,,,,-0.555555556,0.013333333,0,0,0,,0,281,281,438,1,
,,,,,,,,,,,,,,,,,,5ea0355ad8cdd9000a122a30,2020-11-27_15h01.54.705,lexical_decision_task_MP_exp2,2020.2.5,Win32,60,z,1,,,,,,,,0.74773,1,,,,,,383,NW,"ID",16,aungre,AUNGRE,z,0.74773,,,,,,-0.555555556,0.013333333,0,0,0,,0,282,282,322,1,
,,,,,,,,,,,,,,,,,,5ea0355ad8cdd9000a122a30,2020-11-27_15h01.54.705,lexical_decision_task_MP_exp2,2020.2.5,Win32,60,m,1,,,,,,,,0.59154,1,,,,,,96,WORD,"ID",33,ignore,IGNORE,m,0.59154,,,,,,-0.555555556,0.013333333,0,0,0,,0,283,283,35,1,
,,,,,,,,,,,,,,,,,,5ea0355ad8cdd9000a122a30,2020-11-27_15h01.54.705,lexical_decision_task_MP_exp2,2020.2.5,Win32,60,z,1,,,,,,,,0.761125,1,,,,,,399,NW,"ID",16,fouret,FOURET,z,0.761125,,,,,,-0.555555556,0.013333333,0,0,0,,0,284,284,338,1,
,,,,,,,,,,,,,,,,,,5ea0355ad8cdd9000a122a30,2020-11-27_15h01.54.705,lexical_decision_task_MP_exp2,2020.2.5,Win32,60,z,1,,,,,,,,0.68369,1,,,,,,407,NW,"ID",16,suiver,SUIVER,z,0.68369,,,,,,-0.555555556,0.013333333,0,0,0,,0,285,285,346,1,
,,,,,,,,,,,,,,,,,,5ea0355ad8cdd9000a122a30,2020-11-27_15h01.54.705,lexical_decision_task_MP_exp2,2020.2.5,Win32,60,m,1,,,,,,,,0.56336,1,,,,,,112,WORD,"ID",33,breath,BREATH,m,0.56336,,,,,,-0.555555556,0.013333333,0,0,0,,0,286,286,51,1,
,,,,,,,,,,,,,,,,,,5ea0355ad8cdd9000a122a30,2020-11-27_15h01.54.705,lexical_decision_task_MP_exp2,2020.2.5,Win32,60,m,1,,,,,,,,0.590495,1,,,,,,79,WORD,"ID",33,theory,THEORY,m,0.590495,,,,,,-0.555555556,0.013333333,0,0,0,,0,287,287,18,1,
,,,,,,,,,,,,,,,,,,5ea0355ad8cdd9000a122a30,2020-11-27_15h01.54.705,lexical_decision_task_MP_exp2,2020.2.5,Win32,60,z,1,,,,,,,,0.721065,1,,,,,,389,NW,"ID",16,witmer,WITMER,z,0.721065,,,,,,-0.555555556,0.013333333,0,0,0,,0,288,288,328,1,
,,,,,,,,,,,,,,,,,,5ea0355ad8cdd9000a122a30,2020-11-27_15h01.54.705,lexical_decision_task_MP_exp2,2020.2.5,Win32,60,m,0,,,,,,,,0.66662,0,,,,,,278,NW,UN,16,celond,UNIGHS,z,0.66662,,,,,,-0.555555556,0.013333333,0,0,0,,0,289,289,457,1,
,,,,,,,,,,,,,,,,,,5ea0355ad8cdd9000a122a30,2020-11-27_15h01.54.705,lexical_decision_task_MP_exp2,2020.2.5,Win32,60,m,1,,,,,,,,0.603955,1,,,,,,55,WORD,UN,16,ambush,STROKE,m,0.603955,,,,,,-0.555555556,0.013333333,0,0,0,,0,290,290,234,1,
,,,,,,,,,,,,,,,,,,5ea0355ad8cdd9000a122a30,2020-11-27_15h01.54.705,lexical_decision_task_MP_exp2,2020.2.5,Win32,60,z,1,,,,,,,,0.704065,1,,,,,,417,NW,"ID",16,earoud,EAROUD,z,0.704065,,,,,,-0.555555556,0.013333333,0,0,0,,0,291,291,356,1,
,,,,,,,,,,,,,,,,,,5ea0355ad8cdd9000a122a30,2020-11-27_15h01.54.705,lexical_decision_task_MP_exp2,2020.2.5,Win32,60,m,1,,,,,,,,1.06722,1,,,,,,8,WORD,UN,16,hustle,ABRUPT,m,1.06722,,,,,,-0.555555556,0.013333333,0,0,0,,0,292,292,187,1,
,,,,,,,,,,,,,,,,,,5ea0355ad8cdd9000a122a30,2020-11-27_15h01.54.705,lexical_decision_task_MP_exp2,2020.2.5,Win32,60,m,1,,,,,,,,0.585985,1,,,,,,148,WORD,"ID",16,custom,CUSTOM,m,0.585985,,,,,,-0.555555556,0.013333333,0,0,0,,0,293,293,87,1,
,,,,,,,,,,,,,,,,,,5ea0355ad8cdd9000a122a30,2020-11-27_15h01.54.705,lexical_decision_task_MP_exp2,2020.2.5,Win32,60,z,1,,,,,,,,0.647875,1,,,,,,244,NW,UN,16,anougs,EATRIC,z,0.647875,,,,,,-0.555555556,0.013333333,0,0,0,,0,294,294,423,1,
,,,,,,,,,,,,,,,,,,5ea0355ad8cdd9000a122a30,2020-11-27_15h01.54.705,lexical_decision_task_MP_exp2,2020.2.5,Win32,60,m,1,,,,,,,,0.56643,1,,,,,,53,WORD,UN,16,ramble,POLICE,m,0.56643,,,,,,-0.555555556,0.013333333,0,0,0,,0,295,295,232,1,
,,,,,,,,,,,,,,,,,,5ea0355ad8cdd9000a122a30,2020-11-27_15h01.54.705,lexical_decision_task_MP_exp2,2020.2.5,Win32,60,z,1,,,,,,,,0.640505,1,,,,,,338,NW,"ID",33,wreash,WREASH,z,0.640505,,,,,,-0.555555556,0.013333333,0,0,0,,0,296,296,277,1,
,,,,,,,,,,,,,,,,,,5ea0355ad8cdd9000a122a30,2020-11-27_15h01.54.705,lexical_decision_task_MP_exp2,2020.2.5,Win32,60,z,1,,,,,,,,0.607485,1,,,,,,391,NW,"ID",16,theldy,THELDY,z,0.607485,,,,,,-0.555555556,0.013333333,0,0,0,,0,297,297,330,1,
,,,,,,,,,,,,,,,,,,5ea0355ad8cdd9000a122a30,2020-11-27_15h01.54.705,lexical_decision_task_MP_exp2,2020.2.5,Win32,60,m,1,,,,,,,,0.918245,1,,,,,,31,WORD,UN,16,buckle,WEAPON,m,0.918245,,,,,,-0.555555556,0.013333333,0,0,0,,0,298,298,210,1,
,,,,,,,,,,,,,,,,,,5ea0355ad8cdd9000a122a30,2020-11-27_15h01.54.705,lexical_decision_task_MP_exp2,2020.2.5,Win32,60,m,1,,,,,,,,0.638645,1,,,,,,67,WORD,"ID",33,policy,POLICY,m,0.638645,,,,,,-0.555555556,0.013333333,0,0,0,,0,299,299,6,1,
,,,,,,,,,,,,,,,,,,5ea0355ad8cdd9000a122a30,2020-11-27_15h01.54.705,lexical_decision_task_MP_exp2,2020.2.5,Win32,60,z,1,,,,,,,,0.94083,1,,,,,,292,NW,UN,16,swance,ABLINT,z,0.94083,,,,,,-0.555555556,0.013333333,0,0,0,,0,300,300,471,1,
,,,,,,,,,,,,,,,,,,5ea0355ad8cdd9000a122a30,2020-11-27_15h01.54.705,lexical_decision_task_MP_exp2,2020.2.5,Win32,60,z,1,,,,,,,,0.637975,1,,,,,,376,NW,"ID",16,iguare,IGUARE,z,0.637975,,,,,,-0.555555556,0.013333333,0,0,0,,0,301,301,315,1,
,,,,,,,,,,,,,,,,,,5ea0355ad8cdd9000a122a30,2020-11-27_15h01.54.705,lexical_decision_task_MP_exp2,2020.2.5,Win32,60,z,1,,,,,,,,0.809265,1,,,,,,418,NW,"ID",16,suidle,SUIDLE,z,0.809265,,,,,,-0.555555556,0.013333333,0,0,0,,0,302,302,357,1,
,,,,,,,,,,,,,,,,,,5ea0355ad8cdd9000a122a30,2020-11-27_15h01.54.705,lexical_decision_task_MP_exp2,2020.2.5,Win32,60,z,1,,,,,,,,0.611845,1,,,,,,261,NW,UN,16,quilew,STUNCH,z,0.611845,,,,,,-0.555555556,0.013333333,0,0,0,,0,303,303,440,1,
,,,,,,,,,,,,,,,,,,5ea0355ad8cdd9000a122a30,2020-11-27_15h01.54.705,lexical_decision_task_MP_exp2,2020.2.5,Win32,60,z,1,,,,,,,,0.63788,1,,,,,,272,NW,UN,16,sortel,DAMILT,z,0.63788,,,,,,-0.555555556,0.013333333,0,0,0,,0,304,304,451,1,
,,,,,,,,,,,,,,,,,,5ea0355ad8cdd9000a122a30,2020-11-27_15h01.54.705,lexical_decision_task_MP_exp2,2020.2.5,Win32,60,m,1,,,,,,,,0.678555,1,,,,,,46,WORD,UN,16,income,SINGLE,m,0.678555,,,,,,-0.555555556,0.013333333,0,0,0,,0,305,305,225,1,
,,,,,,,,,,,,,,,,,,5ea0355ad8cdd9000a122a30,2020-11-27_15h01.54.705,lexical_decision_task_MP_exp2,2020.2.5,Win32,60,m,1,,,,,,,,0.66595,1,,,,,,49,WORD,UN,16,snatch,SURVEY,m,0.66595,,,,,,-0.555555556,0.013333333,0,0,0,,0,306,306,228,1,
,,,,,,,,,,,,,,,,,,5ea0355ad8cdd9000a122a30,2020-11-27_15h01.54.705,lexical_decision_task_MP_exp2,2020.2.5,Win32,60,z,1,,,,,,,,0.565635,1,,,,,,346,NW,"ID",33,saudic,SAUDIC,z,0.565635,,,,,,-0.555555556,0.013333333,0,0,0,,0,307,307,285,1,
,,,,,,,,,,,,,,,,,,5ea0355ad8cdd9000a122a30,2020-11-27_15h01.54.705,lexical_decision_task_MP_exp2,2020.2.5,Win32,60,m,1,,,,,,,,1.092105,1,,,,,,231,WORD,UN,33,inject,EXPORT,m,1.092105,,,,,,-0.555555556,0.013333333,0,0,0,,0,308,308,170,1,
,,,,,,,,,,,,,,,,,,5ea0355ad8cdd9000a122a30,2020-11-27_15h01.54.705,lexical_decision_task_MP_exp2,2020.2.5,Win32,60,z,1,,,,,,,,0.634615,1,,,,,,459,NW,UN,33,mingar,BAFENT,z,0.634615,,,,,,-0.555555556,0.013333333,0,0,0,,0,309,309,398,1,
,,,,,,,,,,,,,,,,,,5ea0355ad8cdd9000a122a30,2020-11-27_15h01.54.705,lexical_decision_task_MP_exp2,2020.2.5,Win32,60,m,1,,,,,,,,0.676095,1,,,,,,144,WORD,"ID",16,sponge,SPONGE,m,0.676095,,,,,,-0.555555556,0.013333333,0,0,0,,0,310,310,83,1,
,,,,,,,,,,,,,,,,,,5ea0355ad8cdd9000a122a30,2020-11-27_15h01.54.705,lexical_decision_task_MP_exp2,2020.2.5,Win32,60,z,1,,,,,,,,0.59605,1,,,,,,381,NW,"ID",16,huniek,HUNIEK,z,0.59605,,,,,,-0.555555556,0.013333333,0,0,0,,0,311,311,320,1,
,,,,,,,,,,,,,,,,,,5ea0355ad8cdd9000a122a30,2020-11-27_15h01.54.705,lexical_decision_task_MP_exp2,2020.2.5,Win32,60,m,1,,,,,,,,0.70391,1,,,,,,220,WORD,UN,33,mascot,VOYAGE,m,0.70391,,,,,,-0.555555556,0.013333333,0,0,0,,0,312,312,159,1,
,,,,,,,,,,,,,,,,,,5ea0355ad8cdd9000a122a30,2020-11-27_15h01.54.705,lexical_decision_task_MP_exp2,2020.2.5,Win32,60,z,0,,,,,,,,0.616775,0,,,,,,114,WORD,"ID",33,placid,PLACID,m,0.616775,,,,,,-0.555555556,0.013333333,0,0,0,,0,313,313,53,1,
,,,,,,,,,,,,,,,,,,5ea0355ad8cdd9000a122a30,2020-11-27_15h01.54.705,lexical_decision_task_MP_exp2,2020.2.5,Win32,60,z,1,,,,,,,,1.284505,1,,,,,,368,NW,"ID",16,hornal,HORNAL,z,1.284505,,,,,,-0.555555556,0.013333333,0,0,0,,0,314,314,307,1,
,,,,,,,,,,,,,,,,,,5ea0355ad8cdd9000a122a30,2020-11-27_15h01.54.705,lexical_decision_task_MP_exp2,2020.2.5,Win32,60,m,1,,,,,,,,0.784585,1,,,,,,177,WORD,"ID",16,advent,ADVENT,m,0.784585,,,,,,-0.555555556,0.013333333,0,0,0,,0,315,315,116,1,
,,,,,,,,,,,,,,,,,,5ea0355ad8cdd9000a122a30,2020-11-27_15h01.54.705,lexical_decision_task_MP_exp2,2020.2.5,Win32,60,z,1,,,,,,,,0.594045,1,,,,,,254,NW,UN,16,apight,VAROSH,z,0.594045,,,,,,-0.555555556,0.013333333,0,0,0,,0,316,316,433,1,
,,,,,,,,,,,,,,,,,,5ea0355ad8cdd9000a122a30,2020-11-27_15h01.54.705,lexical_decision_task_MP_exp2,2020.2.5,Win32,60,z,1,,,,,,,,1.167345,1,,,,,,341,NW,"ID",33,myrtie,MYRTIE,z,1.167345,,,,,,-0.555555556,0.013333333,0,0,0,,0,317,317,280,1,
,,,,,,,,,,,,,,,,,,5ea0355ad8cdd9000a122a30,2020-11-27_15h01.54.705,lexical_decision_task_MP_exp2,2020.2.5,Win32,60,m,1,,,,,,,,0.74777,1,,,,,,142,WORD,"ID",16,spruce,SPRUCE,m,0.74777,,,,,,-0.555555556,0.013333333,0,0,0,,0,318,318,81,1,
,,,,,,,,,,,,,,,,,,5ea0355ad8cdd9000a122a30,2020-11-27_15h01.54.705,lexical_decision_task_MP_exp2,2020.2.5,Win32,60,z,1,,,,,,,,0.66244,1,,,,,,406,NW,"ID",16,nouply,NOUPLY,z,0.66244,,,,,,-0.555555556,0.013333333,0,0,0,,0,319,319,345,1,
,,,,,,,,,,,,,,,,,,5ea0355ad8cdd9000a122a30,2020-11-27_15h01.54.705,lexical_decision_task_MP_exp2,2020.2.5,Win32,60,z,1,,,,,,,,0.77184,1,,,,,,403,NW,"ID",16,bruats,BRUATS,z,0.77184,,,,,,-0.555555556,0.013333333,0,0,0,,0,320,320,342,1,
,,,,,,,,,,,,,,,,,,5ea0355ad8cdd9000a122a30,2020-11-27_15h01.54.705,lexical_decision_task_MP_exp2,2020.2.5,Win32,60,m,1,,,,,,,,0.624695,1,,,,,,26,WORD,UN,16,butler,SPRINT,m,0.624695,,,,,,-0.555555556,0.013333333,0,0,0,,0,321,321,205,1,
,,,,,,,,,,,,,,,,,,5ea0355ad8cdd9000a122a30,2020-11-27_15h01.54.705,lexical_decision_task_MP_exp2,2020.2.5,Win32,60,z,1,,,,,,,,0.68402,1,,,,,,331,NW,"ID",33,gilfew,GILFEW,z,0.68402,,,,,,-0.555555556,0.013333333,0,0,0,,0,322,322,270,1,
,,,,,,,,,,,,,,,,,,5ea0355ad8cdd9000a122a30,2020-11-27_15h01.54.705,lexical_decision_task_MP_exp2,2020.2.5,Win32,60,z,1,,,,,,,,0.86661,1,,,,,,382,NW,"ID",16,sarley,SARLEY,z,0.86661,,,,,,-0.555555556,0.013333333,0,0,0,,0,323,323,321,1,
,,,,,,,,,,,,,,,,,,5ea0355ad8cdd9000a122a30,2020-11-27_15h01.54.705,lexical_decision_task_MP_exp2,2020.2.5,Win32,60,m,1,,,,,,,,0.63411,1,,,,,,1,WORD,UN,16,ethnic,FRIGHT,m,0.63411,,,,,,-0.555555556,0.013333333,0,0,0,,0,324,324,180,1,
,,,,,,,,,,,,,,,,,,5ea0355ad8cdd9000a122a30,2020-11-27_15h01.54.705,lexical_decision_task_MP_exp2,2020.2.5,Win32,60,z,1,,,,,,,,0.631565,1,,,,,,313,NW,"ID",33,paurse,PAURSE,z,0.631565,,,,,,-0.555555556,0.013333333,0,0,0,,0,325,325,252,1,
,,,,,,,,,,,,,,,,,,5ea0355ad8cdd9000a122a30,2020-11-27_15h01.54.705,lexical_decision_task_MP_exp2,2020.2.5,Win32,60,z,1,,,,,,,,0.684275,1,,,,,,316,NW,"ID",33,scregm,SCREGM,z,0.684275,,,,,,-0.555555556,0.013333333,0,0,0,,0,326,326,255,1,
,,,,,,,,,,,,,,,,,,5ea0355ad8cdd9000a122a30,2020-11-27_15h01.54.705,lexical_decision_task_MP_exp2,2020.2.5,Win32,60,m,1,,,,,,,,0.58872,1,,,,,,125,WORD,"ID",16,nickel,NICKEL,m,0.58872,,,,,,-0.555555556,0.013333333,0,0,0,,0,327,327,64,1,
,,,,,,,,,,,,,,,,,,5ea0355ad8cdd9000a122a30,2020-11-27_15h01.54.705,lexical_decision_task_MP_exp2,2020.2.5,Win32,60,m,1,,,,,,,,0.58726,1,,,,,,63,WORD,"ID",33,launch,LAUNCH,m,0.58726,,,,,,-0.555555556,0.013333333,0,0,0,,0,328,328,2,1,
,,,,,,,,,,,,,,,,,,5ea0355ad8cdd9000a122a30,2020-11-27_15h01.54.705,lexical_decision_task_MP_exp2,2020.2.5,Win32,60,m,1,,,,,,,,0.63658,1,,,,,,130,WORD,"ID",16,stupid,STUPID,m,0.63658,,,,,,-0.555555556,0.013333333,0,0,0,,0,329,329,69,1,
,,,,,,,,,,,,,,,,,,5ea0355ad8cdd9000a122a30,2020-11-27_15h01.54.705,lexical_decision_task_MP_exp2,2020.2.5,Win32,60,m,1,,,,,,,,0.611415,1,,,,,,140,WORD,"ID",16,prince,PRINCE,m,0.611415,,,,,,-0.555555556,0.013333333,0,0,0,,0,330,330,79,1,
,,,,,,,,,,,,,,,,,,5ea0355ad8cdd9000a122a30,2020-11-27_15h01.54.705,lexical_decision_task_MP_exp2,2020.2.5,Win32,60,m,1,,,,,,,,0.61992,1,,,,,,85,WORD,"ID",33,sprawl,SPRAWL,m,0.61992,,,,,,-0.555555556,0.013333333,0,0,0,,0,331,331,24,1,
,,,,,,,,,,,,,,,,,,5ea0355ad8cdd9000a122a30,2020-11-27_15h01.54.705,lexical_decision_task_MP_exp2,2020.2.5,Win32,60,m,1,,,,,,,,0.605525,1,,,,,,216,WORD,UN,33,liquor,BEHALF,m,0.605525,,,,,,-0.555555556,0.013333333,0,0,0,,0,332,332,155,1,
,,,,,,,,,,,,,,,,,,5ea0355ad8cdd9000a122a30,2020-11-27_15h01.54.705,lexical_decision_task_MP_exp2,2020.2.5,Win32,60,m,1,,,,,,,,0.90227,1,,,,,,183,WORD,UN,33,sleazy,MILDEW,m,0.90227,,,,,,-0.555555556,0.013333333,0,0,0,,0,333,333,122,1,
,,,,,,,,,,,,,,,,,,5ea0355ad8cdd9000a122a30,2020-11-27_15h01.54.705,lexical_decision_task_MP_exp2,2020.2.5,Win32,60,z,1,,,,,,,,0.73729,1,,,,,,310,NW,"ID",33,daniet,DANIET,z,0.73729,,,,,,-0.555555556,0.013333333,0,0,0,,0,334,334,249,1,
,,,,,,,,,,,,,,,,,,5ea0355ad8cdd9000a122a30,2020-11-27_15h01.54.705,lexical_decision_task_MP_exp2,2020.2.5,Win32,60,m,1,,,,,,,,0.6036,1,,,,,,97,WORD,"ID",33,client,CLIENT,m,0.6036,,,,,,-0.555555556,0.013333333,0,0,0,,0,335,335,36,1,
,,,,,,,,,,,,,,,,,,5ea0355ad8cdd9000a122a30,2020-11-27_15h01.54.705,lexical_decision_task_MP_exp2,2020.2.5,Win32,60,z,1,,,,,,,,0.67449,1,,,,,,300,NW,UN,16,smenco,YARION,z,0.67449,,,,,,-0.555555556,0.013333333,0,0,0,,0,336,336,479,1,
,,,,,,,,,,,,,,,,,,5ea0355ad8cdd9000a122a30,2020-11-27_15h01.54.705,lexical_decision_task_MP_exp2,2020.2.5,Win32,60,z,1,,,,,,,,0.918225,1,,,,,,448,NW,UN,33,brunge,SADENT,z,0.918225,,,,,,-0.555555556,0.013333333,0,0,0,,0,337,337,387,1,
,,,,,,,,,,,,,,,,,,5ea0355ad8cdd9000a122a30,2020-11-27_15h01.54.705,lexical_decision_task_MP_exp2,2020.2.5,Win32,60,z,1,,,,,,,,0.61474,1,,,,,,371,NW,"ID",16,geiloy,GEILOY,z,0.61474,,,,,,-0.555555556,0.013333333,0,0,0,,0,338,338,310,1,
,,,,,,,,,,,,,,,,,,5ea0355ad8cdd9000a122a30,2020-11-27_15h01.54.705,lexical_decision_task_MP_exp2,2020.2.5,Win32,60,m,1,,,,,,,,0.60188,1,,,,,,225,WORD,UN,33,casino,VULGAR,m,0.60188,,,,,,-0.555555556,0.013333333,0,0,0,,0,339,339,164,1,
,,,,,,,,,,,,,,,,,,5ea0355ad8cdd9000a122a30,2020-11-27_15h01.54.705,lexical_decision_task_MP_exp2,2020.2.5,Win32,60,z,1,,,,,,,,0.63405,1,,,,,,416,NW,"ID",16,pathel,PATHEL,z,0.63405,,,,,,-0.555555556,0.013333333,0,0,0,,0,340,340,355,1,
,,,,,,,,,,,,,,,,,,5ea0355ad8cdd9000a122a30,2020-11-27_15h01.54.705,lexical_decision_task_MP_exp2,2020.2.5,Win32,60,m,1,,,,,,,,0.84818,1,,,,,,44,WORD,UN,16,clergy,DANGER,m,0.84818,,,,,,-0.555555556,0.013333333,0,0,0,,0,341,341,223,1,
,,,,,,,,,,,,,,,,,,5ea0355ad8cdd9000a122a30,2020-11-27_15h01.54.705,lexical_decision_task_MP_exp2,2020.2.5,Win32,60,m,1,,,,,,,,0.71668,1,,,,,,214,WORD,UN,33,phobia,INTAKE,m,0.71668,,,,,,-0.555555556,0.013333333,0,0,0,,0,342,342,153,1,
,,,,,,,,,,,,,,,,,,5ea0355ad8cdd9000a122a30,2020-11-27_15h01.54.705,lexical_decision_task_MP_exp2,2020.2.5,Win32,60,z,1,,,,,,,,0.63774,1,,,,,,366,NW,"ID",16,toshel,TOSHEL,z,0.63774,,,,,,-0.555555556,0.013333333,0,0,0,,0,343,343,305,1,
,,,,,,,,,,,,,,,,,,5ea0355ad8cdd9000a122a30,2020-11-27_15h01.54.705,lexical_decision_task_MP_exp2,2020.2.5,Win32,60,m,1,,,,,,,,0.661445,1,,,,,,217,WORD,UN,33,shrink,LIQUOR,m,0.661445,,,,,,-0.555555556,0.013333333,0,0,0,,0,344,344,156,1,
,,,,,,,,,,,,,,,,,,5ea0355ad8cdd9000a122a30,2020-11-27_15h01.54.705,lexical_decision_task_MP_exp2,2020.2.5,Win32,60,z,1,,,,,,,,0.75656,1,,,,,,361,NW,"ID",16,pauche,PAUCHE,z,0.75656,,,,,,-0.555555556,0.013333333,0,0,0,,0,345,345,300,1,
,,,,,,,,,,,,,,,,,,5ea0355ad8cdd9000a122a30,2020-11-27_15h01.54.705,lexical_decision_task_MP_exp2,2020.2.5,Win32,60,m,1,,,,,,,,0.60119,1,,,,,,33,WORD,UN,16,jungle,BUTLER,m,0.60119,,,,,,-0.555555556,0.013333333,0,0,0,,0,346,346,212,1,
,,,,,,,,,,,,,,,,,,5ea0355ad8cdd9000a122a30,2020-11-27_15h01.54.705,lexical_decision_task_MP_exp2,2020.2.5,Win32,60,z,1,,,,,,,,0.70183,1,,,,,,474,NW,UN,33,acrise,HABLIN,z,0.70183,,,,,,-0.555555556,0.013333333,0,0,0,,0,347,347,413,1,
,,,,,,,,,,,,,,,,,,5ea0355ad8cdd9000a122a30,2020-11-27_15h01.54.705,lexical_decision_task_MP_exp2,2020.2.5,Win32,60,m,1,,,,,,,,0.850975,1,,,,,,39,WORD,UN,16,convey,INSECT,m,0.850975,,,,,,-0.555555556,0.013333333,0,0,0,,0,348,348,218,1,
,,,,,,,,,,,,,,,,,,5ea0355ad8cdd9000a122a30,2020-11-27_15h01.54.705,lexical_decision_task_MP_exp2,2020.2.5,Win32,60,m,1,,,,,,,,0.585725,1,,,,,,135,WORD,"ID",16,import,IMPORT,m,0.585725,,,,,,-0.555555556,0.013333333,0,0,0,,0,349,349,74,1,
,,,,,,,,,,,,,,,,,,5ea0355ad8cdd9000a122a30,2020-11-27_15h01.54.705,lexical_decision_task_MP_exp2,2020.2.5,Win32,60,z,1,,,,,,,,0.53766,1,,,,,,367,NW,"ID",16,slique,SLIQUE,z,0.53766,,,,,,-0.555555556,0.013333333,0,0,0,,0,350,350,306,1,
,,,,,,,,,,,,,,,,,,5ea0355ad8cdd9000a122a30,2020-11-27_15h01.54.705,lexical_decision_task_MP_exp2,2020.2.5,Win32,60,z,1,,,,,,,,0.836965,1,,,,,,349,NW,"ID",33,asylen,ASYLEN,z,0.836965,,,,,,-0.555555556,0.013333333,0,0,0,,0,351,351,288,1,
,,,,,,,,,,,,,,,,,,5ea0355ad8cdd9000a122a30,2020-11-27_15h01.54.705,lexical_decision_task_MP_exp2,2020.2.5,Win32,60,z,1,,,,,,,,0.68732,1,,,,,,461,NW,UN,33,absult,JUSTRE,z,0.68732,,,,,,-0.555555556,0.013333333,0,0,0,,0,352,352,400,1,
,,,,,,,,,,,,,,,,,,5ea0355ad8cdd9000a122a30,2020-11-27_15h01.54.705,lexical_decision_task_MP_exp2,2020.2.5,Win32,60,m,1,,,,,,,,0.614895,1,,,,,,18,WORD,UN,16,patron,HUMBLE,m,0.614895,,,,,,-0.555555556,0.013333333,0,0,0,,0,353,353,197,1,
,,,,,,,,,,,,,,,,,,5ea0355ad8cdd9000a122a30,2020-11-27_15h01.54.705,lexical_decision_task_MP_exp2,2020.2.5,Win32,60,m,1,,,,,,,,0.798025,1,,,,,,59,WORD,UN,16,pencil,SPLINT,m,0.798025,,,,,,-0.555555556,0.013333333,0,0,0,,0,354,354,238,1,
,,,,,,,,,,,,,,,,,,5ea0355ad8cdd9000a122a30,2020-11-27_15h01.54.705,lexical_decision_task_MP_exp2,2020.2.5,Win32,60,z,1,,,,,,,,0.741365,1,,,,,,255,NW,UN,16,inlors,APIGHT,z,0.741365,,,,,,-0.555555556,0.013333333,0,0,0,,0,355,355,434,1,
,,,,,,,,,,,,,,,,,,5ea0355ad8cdd9000a122a30,2020-11-27_15h01.54.705,lexical_decision_task_MP_exp2,2020.2.5,Win32,60,z,1,,,,,,,,0.800985,1,,,,,,306,NW,"ID",33,sounge,SOUNGE,z,0.800985,,,,,,-0.555555556,0.013333333,0,0,0,,0,356,356,245,1,
,,,,,,,,,,,,,,,,,,5ea0355ad8cdd9000a122a30,2020-11-27_15h01.54.705,lexical_decision_task_MP_exp2,2020.2.5,Win32,60,m,1,,,,,,,,0.6559,1,,,,,,27,WORD,UN,16,comedy,SCREAM,m,0.6559,,,,,,-0.555555556,0.013333333,0,0,0,,0,357,357,206,1,
,,,,,,,,,,,,,,,,,,5ea0355ad8cdd9000a122a30,2020-11-27_15h01.54.705,lexical_decision_task_MP_exp2,2020.2.5,Win32,60,m,1,,,,,,,,0.79361,1,,,,,,14,WORD,UN,16,orange,ALMOST,m,0.79361,,,,,,-0.555555556,0.013333333,0,0,0,,0,358,358,193,1,
,,,,,,,,,,,,,,,,,,5ea0355ad8cdd9000a122a30,2020-11-27_15h01.54.705,lexical_decision_task_MP_exp2,2020.2.5,Win32,60,z,1,,,,,,,,0.59001,1,,,,,,298,NW,UN,16,sturch,PIERGY,z,0.59001,,,,,,-0.555555556,0.013333333,0,0,0,,0,359,359,477,1,
,,,,,,,,,,,,,,,,,,5ea0355ad8cdd9000a122a30,2020-11-27_15h01.54.705,lexical_decision_task_MP_exp2,2020.2.5,Win32,60,z,1,,,,,,,,0.89627,1,,,,,,392,NW,"ID",16,rouncy,ROUNCY,z,0.89627,,,,,,-0.555555556,0.013333333,0,0,0,,0,360,360,331,1,
,,,,,,,,,,,,,,,,,,5ea0355ad8cdd9000a122a30,2020-11-27_15h01.54.705,lexical_decision_task_MP_exp2,2020.2.5,Win32,60,z,1,,,,,,,,0.71939,1,,,,,,288,NW,UN,16,starby,YACEUP,z,0.71939,,,,,,-0.555555556,0.013333333,0,0,0,,0,361,361,467,1,
,,,,,,,,,,,,,,,,,,5ea0355ad8cdd9000a122a30,2020-11-27_15h01.54.705,lexical_decision_task_MP_exp2,2020.2.5,Win32,60,m,1,,,,,,,,0.70823,1,,,,,,181,WORD,UN,33,winter,GLANCE,m,0.70823,,,,,,-0.555555556,0.013333333,0,0,0,space,0,362,362,120,1,8.83887
,,,,,,,,,,,,,,,,,,5ea0355ad8cdd9000a122a30,2020-11-27_15h01.54.705,lexical_decision_task_MP_exp2,2020.2.5,Win32,60,m,1,,,,,,,,1.09409,1,,,,,,120,WORD,"ID",33,strain,STRAIN,m,1.09409,,,,,,-0.555555556,0.013333333,0,0,0,,0,363,363,59,1,
,,,,,,,,,,,,,,,,,,5ea0355ad8cdd9000a122a30,2020-11-27_15h01.54.705,lexical_decision_task_MP_exp2,2020.2.5,Win32,60,z,1,,,,,,,,0.660835,1,,,,,,420,NW,"ID",16,gushop,GUSHOP,z,0.660835,,,,,,-0.555555556,0.013333333,0,0,0,,0,364,364,359,1,
,,,,,,,,,,,,,,,,,,5ea0355ad8cdd9000a122a30,2020-11-27_15h01.54.705,lexical_decision_task_MP_exp2,2020.2.5,Win32,60,z,1,,,,,,,,0.898175,1,,,,,,470,NW,UN,33,nobest,CRUDIO,z,0.898175,,,,,,-0.555555556,0.013333333,0,0,0,,0,365,365,409,1,
,,,,,,,,,,,,,,,,,,5ea0355ad8cdd9000a122a30,2020-11-27_15h01.54.705,lexical_decision_task_MP_exp2,2020.2.5,Win32,60,z,1,,,,,,,,0.650525,1,,,,,,321,NW,"ID",33,miator,MIATOR,z,0.650525,,,,,,-0.555555556,0.013333333,0,0,0,,0,366,366,260,1,
,,,,,,,,,,,,,,,,,,5ea0355ad8cdd9000a122a30,2020-11-27_15h01.54.705,lexical_decision_task_MP_exp2,2020.2.5,Win32,60,z,1,,,,,,,,0.667885,1,,,,,,458,NW,UN,33,hocite,BARCET,z,0.667885,,,,,,-0.555555556,0.013333333,0,0,0,,0,367,367,397,1,
,,,,,,,,,,,,,,,,,,5ea0355ad8cdd9000a122a30,2020-11-27_15h01.54.705,lexical_decision_task_MP_exp2,2020.2.5,Win32,60,m,1,,,,,,,,0.693035,1,,,,,,186,WORD,UN,33,course,PORTAL,m,0.693035,,,,,,-0.555555556,0.013333333,0,0,0,,0,368,368,125,1,
,,,,,,,,,,,,,,,,,,5ea0355ad8cdd9000a122a30,2020-11-27_15h01.54.705,lexical_decision_task_MP_exp2,2020.2.5,Win32,60,m,1,,,,,,,,0.56934,1,,,,,,213,WORD,UN,33,intake,SQUEAL,m,0.56934,,,,,,-0.555555556,0.013333333,0,0,0,,0,369,369,152,1,
,,,,,,,,,,,,,,,,,,5ea0355ad8cdd9000a122a30,2020-11-27_15h01.54.705,lexical_decision_task_MP_exp2,2020.2.5,Win32,60,m,1,,,,,,,,0.68527,1,,,,,,106,WORD,"ID",33,ransom,RANSOM,m,0.68527,,,,,,-0.555555556,0.013333333,0,0,0,,0,370,370,45,1,
,,,,,,,,,,,,,,,,,,5ea0355ad8cdd9000a122a30,2020-11-27_15h01.54.705,lexical_decision_task_MP_exp2,2020.2.5,Win32,60,m,1,,,,,,,,0.602395,1,,,,,,38,WORD,UN,16,insect,POWDER,m,0.602395,,,,,,-0.555555556,0.013333333,0,0,0,,0,371,371,217,1,
,,,,,,,,,,,,,,,,,,5ea0355ad8cdd9000a122a30,2020-11-27_15h01.54.705,lexical_decision_task_MP_exp2,2020.2.5,Win32,60,z,1,,,,,,,,0.63395,1,,,,,,268,NW,UN,16,orchet,PACKES,z,0.63395,,,,,,-0.555555556,0.013333333,0,0,0,,0,372,372,447,1,
,,,,,,,,,,,,,,,,,,5ea0355ad8cdd9000a122a30,2020-11-27_15h01.54.705,lexical_decision_task_MP_exp2,2020.2.5,Win32,60,m,1,,,,,,,,0.6688,1,,,,,,124,WORD,"ID",16,blouse,BLOUSE,m,0.6688,,,,,,-0.555555556,0.013333333,0,0,0,,0,373,373,63,1,
,,,,,,,,,,,,,,,,,,5ea0355ad8cdd9000a122a30,2020-11-27_15h01.54.705,lexical_decision_task_MP_exp2,2020.2.5,Win32,60,m,1,,,,,,,,0.91518,1,,,,,,176,WORD,"ID",16,strife,STRIFE,m,0.91518,,,,,,-0.555555556,0.013333333,0,0,0,,0,374,374,115,1,
,,,,,,,,,,,,,,,,,,5ea0355ad8cdd9000a122a30,2020-11-27_15h01.54.705,lexical_decision_task_MP_exp2,2020.2.5,Win32,60,z,1,,,,,,,,0.636835,1,,,,,,414,NW,"ID",16,serbol,SERBOL,z,0.636835,,,,,,-0.555555556,0.013333333,0,0,0,,0,375,375,353,1,
,,,,,,,,,,,,,,,,,,5ea0355ad8cdd9000a122a30,2020-11-27_15h01.54.705,lexical_decision_task_MP_exp2,2020.2.5,Win32,60,z,1,,,,,,,,0.64448,1,,,,,,337,NW,"ID",33,rejols,REJOLS,z,0.64448,,,,,,-0.555555556,0.013333333,0,0,0,,0,376,376,276,1,
,,,,,,,,,,,,,,,,,,5ea0355ad8cdd9000a122a30,2020-11-27_15h01.54.705,lexical_decision_task_MP_exp2,2020.2.5,Win32,60,z,1,,,,,,,,0.639065,1,,,,,,422,NW,UN,33,streld,ALCOUD,z,0.639065,,,,,,-0.555555556,0.013333333,0,0,0,,0,377,377,361,1,
,,,,,,,,,,,,,,,,,,5ea0355ad8cdd9000a122a30,2020-11-27_15h01.54.705,lexical_decision_task_MP_exp2,2020.2.5,Win32,60,m,1,,,,,,,,0.568635,1,,,,,,150,WORD,"ID",16,random,RANDOM,m,0.568635,,,,,,-0.555555556,0.013333333,0,0,0,,0,378,378,89,1,
,,,,,,,,,,,,,,,,,,5ea0355ad8cdd9000a122a30,2020-11-27_15h01.54.705,lexical_decision_task_MP_exp2,2020.2.5,Win32,60,m,1,,,,,,,,0.512395,1,,,,,,123,WORD,"ID",16,strike,STRIKE,m,0.512395,,,,,,-0.555555556,0.013333333,0,0,0,,0,379,379,62,1,
,,,,,,,,,,,,,,,,,,5ea0355ad8cdd9000a122a30,2020-11-27_15h01.54.705,lexical_decision_task_MP_exp2,2020.2.5,Win32,60,z,1,,,,,,,,0.641415,1,,,,,,333,NW,"ID",33,catrie,CATRIE,z,0.641415,,,,,,-0.555555556,0.013333333,0,0,0,,0,380,380,272,1,
,,,,,,,,,,,,,,,,,,5ea0355ad8cdd9000a122a30,2020-11-27_15h01.54.705,lexical_decision_task_MP_exp2,2020.2.5,Win32,60,m,0,,,,,,,,0.76122,0,,,,,,356,NW,"ID",33,othnis,OTHNIS,z,0.76122,,,,,,-0.555555556,0.013333333,0,0,0,,0,381,381,295,1,
,,,,,,,,,,,,,,,,,,5ea0355ad8cdd9000a122a30,2020-11-27_15h01.54.705,lexical_decision_task_MP_exp2,2020.2.5,Win32,60,z,1,,,,,,,,0.818595,1,,,,,,342,NW,"ID",33,randow,RANDOW,z,0.818595,,,,,,-0.555555556,0.013333333,0,0,0,,0,382,382,281,1,
,,,,,,,,,,,,,,,,,,5ea0355ad8cdd9000a122a30,2020-11-27_15h01.54.705,lexical_decision_task_MP_exp2,2020.2.5,Win32,60,z,1,,,,,,,,0.934185,1,,,,,,284,NW,UN,16,prudge,SHAPLE,z,0.934185,,,,,,-0.555555556,0.013333333,0,0,0,,0,383,383,463,1,
,,,,,,,,,,,,,,,,,,5ea0355ad8cdd9000a122a30,2020-11-27_15h01.54.705,lexical_decision_task_MP_exp2,2020.2.5,Win32,60,z,1,,,,,,,,0.809995,1,,,,,,335,NW,"ID",33,desion,DESION,z,0.809995,,,,,,-0.555555556,0.013333333,0,0,0,,0,384,384,274,1,
,,,,,,,,,,,,,,,,,,5ea0355ad8cdd9000a122a30,2020-11-27_15h01.54.705,lexical_decision_task_MP_exp2,2020.2.5,Win32,60,m,1,,,,,,,,0.556645,1,,,,,,174,WORD,"ID",16,turkey,TURKEY,m,0.556645,,,,,,-0.555555556,0.013333333,0,0,0,,0,385,385,113,1,
,,,,,,,,,,,,,,,,,,5ea0355ad8cdd9000a122a30,2020-11-27_15h01.54.705,lexical_decision_task_MP_exp2,2020.2.5,Win32,60,z,1,,,,,,,,0.660585,1,,,,,,325,NW,"ID",33,thruse,THRUSE,z,0.660585,,,,,,-0.555555556,0.013333333,0,0,0,,0,386,386,264,1,
,,,,,,,,,,,,,,,,,,5ea0355ad8cdd9000a122a30,2020-11-27_15h01.54.705,lexical_decision_task_MP_exp2,2020.2.5,Win32,60,m,1,,,,,,,,0.67184,1,,,,,,189,WORD,UN,33,backup,CENSOR,m,0.67184,,,,,,-0.555555556,0.013333333,0,0,0,,0,387,387,128,1,
,,,,,,,,,,,,,,,,,,5ea0355ad8cdd9000a122a30,2020-11-27_15h01.54.705,lexical_decision_task_MP_exp2,2020.2.5,Win32,60,z,1,,,,,,,,0.618805,1,,,,,,357,NW,"ID",33,derain,DERAIN,z,0.618805,,,,,,-0.555555556,0.013333333,0,0,0,,0,388,388,296,1,
,,,,,,,,,,,,,,,,,,5ea0355ad8cdd9000a122a30,2020-11-27_15h01.54.705,lexical_decision_task_MP_exp2,2020.2.5,Win32,60,m,1,,,,,,,,0.737095,1,,,,,,56,WORD,UN,16,change,AMBUSH,m,0.737095,,,,,,-0.555555556,0.013333333,0,0,0,,0,389,389,235,1,
,,,,,,,,,,,,,,,,,,5ea0355ad8cdd9000a122a30,2020-11-27_15h01.54.705,lexical_decision_task_MP_exp2,2020.2.5,Win32,60,z,1,,,,,,,,0.776765,1,,,,,,246,NW,UN,16,blarge,PIATON,z,0.776765,,,,,,-0.555555556,0.013333333,0,0,0,,0,390,390,425,1,
,,,,,,,,,,,,,,,,,,5ea0355ad8cdd9000a122a30,2020-11-27_15h01.54.705,lexical_decision_task_MP_exp2,2020.2.5,Win32,60,z,1,,,,,,,,0.70357,1,,,,,,353,NW,"ID",33,clurey,CLUREY,z,0.70357,,,,,,-0.555555556,0.013333333,0,0,0,,0,391,391,292,1,
,,,,,,,,,,,,,,,,,,5ea0355ad8cdd9000a122a30,2020-11-27_15h01.54.705,lexical_decision_task_MP_exp2,2020.2.5,Win32,60,z,1,,,,,,,,0.6172,1,,,,,,408,NW,"ID",16,hurnia,HURNIA,z,0.6172,,,,,,-0.555555556,0.013333333,0,0,0,,0,392,392,347,1,
,,,,,,,,,,,,,,,,,,5ea0355ad8cdd9000a122a30,2020-11-27_15h01.54.705,lexical_decision_task_MP_exp2,2020.2.5,Win32,60,m,1,,,,,,,,0.67073,1,,,,,,143,WORD,"ID",16,reason,REASON,m,0.67073,,,,,,-0.555555556,0.013333333,0,0,0,,0,393,393,82,1,
,,,,,,,,,,,,,,,,,,5ea0355ad8cdd9000a122a30,2020-11-27_15h01.54.705,lexical_decision_task_MP_exp2,2020.2.5,Win32,60,z,1,,,,,,,,0.595275,1,,,,,,413,NW,"ID",16,equats,EQUATS,z,0.595275,,,,,,-0.555555556,0.013333333,0,0,0,,0,394,394,352,1,
