counterbalancing_condition,instr_done_keyboard.keys,instr_done_touch.x,instr_done_touch.y,instr_done_touch.leftButton,instr_done_touch.midButton,instr_done_touch.rightButton,instr_done_touch.clicked_name,instruction_pages.thisRepN,instruction_pages.thisTrialN,instruction_pages.thisN,instruction_pages.thisIndex,instruction_pages.ran,pageN,phase,instruct_text,has_image,instruct_image,participant,date,expName,psychopyVersion,OS,frameRate,instr_done_keyboard.rt,response.keys,response.corr,response.rt,touch_resp.x,touch_resp.y,touch_resp.leftButton,touch_resp.midButton,touch_resp.rightButton,touch_resp.time,touch_resp.clicked_name,rt,corr,practice_trials.thisRepN,practice_trials.thisTrialN,practice_trials.thisN,practice_trials.thisIndex,practice_trials.ran,TrialID,StimulusType,Condition,PrimeDuration,Prime,Target,corrAns,end_of_practice_trials_pages.thisRepN,end_of_practice_trials_pages.thisTrialN,end_of_practice_trials_pages.thisN,end_of_practice_trials_pages.thisIndex,end_of_practice_trials_pages.ran,break_done_touch.x,break_done_touch.y,break_done_touch.leftButton,break_done_touch.midButton,break_done_touch.rightButton,break_done_keyboard.keys,experiment_trials.thisRepN,experiment_trials.thisTrialN,experiment_trials.thisN,experiment_trials.thisIndex,experiment_trials.ran,break_done_keyboard.rt
1,,-0.023730469,-0.366273329,1,0,0,instr_done_button,0,0,0,0,1,1,instructions,"INSTRUCTIONS
At the start of each trial, look at the hash marks (######) in the center of the screen. After a moment, a string of letters will appear. Your task is to indicate if the letter string forms a word or not (i.e., if it is a nonword). For example, AUTHOR is a word while AUTHON is a nonword.

Press the space bar or touch the button below to continue.",0,,5eadaff848b26f4483ae62d9,2020-11-27_15h01.07.252,lexical_decision_task_MP_exp2,2020.2.5,MacIntel,60,,,,,,,,,,,,,,,,,,,,,,,,,,,,,,,,,,,,,,,,,,
,space,-0.050021701,-0.401112196,0,0,0,,0,1,1,1,1,2,instructions,"If your device has a keyboard, press the 'Z' key for nonwords and the 'M' key for words.





Press the space bar or touch the button below to continue.",1,keyboard-example.gif,5eadaff848b26f4483ae62d9,2020-11-27_15h01.07.252,lexical_decision_task_MP_exp2,2020.2.5,MacIntel,60,3.11957,,,,,,,,,,,,,,,,,,,,,,,,,,,,,,,,,,,,,,,,,
,space,-0.050021701,-0.401112196,0,0,0,,0,2,2,2,1,3,instructions,"If you are using a touchscreen only device, use the buttons on the screen. Do not use the mouse.





Press the space bar or touch the button below to continue.",1,touchscreen-example.gif,5eadaff848b26f4483ae62d9,2020-11-27_15h01.07.252,lexical_decision_task_MP_exp2,2020.2.5,MacIntel,60,2.601355,,,,,,,,,,,,,,,,,,,,,,,,,,,,,,,,,,,,,,,,,
,space,-0.050021701,-0.401112196,0,0,0,,0,3,3,3,1,4,instructions,"It is very important that you respond as quickly and accurately as possible, as each letter string will only be on the screen for two seconds. If you do not respond within this time, the message 'Too slow!' will be displayed and the experiment will progress to the next letter string. The first 20 trials will be practice trials and you will receive feedback on your answers. 

Press the space bar or touch the button below to start the practice trials.",0,,5eadaff848b26f4483ae62d9,2020-11-27_15h01.07.252,lexical_decision_task_MP_exp2,2020.2.5,MacIntel,60,8.129925,,,,,,,,,,,,,,,,,,,,,,,,,,,,,,,,,,,,,,,,,
,,,,,,,,,,,,,,,,,,5eadaff848b26f4483ae62d9,2020-11-27_15h01.07.252,lexical_decision_task_MP_exp2,2020.2.5,MacIntel,60,,z,0,0.53437,,,,,,,,0.53437,0,0,0,0,1,1,1002,WORD,"ID",33,adjust,ADJUST,m,,,,,,,,,,,,,,,,,
,,,,,,,,,,,,,,,,,,5eadaff848b26f4483ae62d9,2020-11-27_15h01.07.252,lexical_decision_task_MP_exp2,2020.2.5,MacIntel,60,,m,1,0.81539,,,,,,,,0.81539,1,0,1,1,2,1,1003,WORD,"ID",16,almond,ALMOND,m,,,,,,,,,,,,,,,,,
,,,,,,,,,,,,,,,,,,5eadaff848b26f4483ae62d9,2020-11-27_15h01.07.252,lexical_decision_task_MP_exp2,2020.2.5,MacIntel,60,,m,1,0.63301,,,,,,,,0.63301,1,0,2,2,4,1,1005,WORD,UN,33,abound,SQUEAK,m,,,,,,,,,,,,,,,,,
,,,,,,,,,,,,,,,,,,5eadaff848b26f4483ae62d9,2020-11-27_15h01.07.252,lexical_decision_task_MP_exp2,2020.2.5,MacIntel,60,,m,1,0.60049,,,,,,,,0.60049,1,0,3,3,7,1,1008,WORD,UN,16,hurdle,VOLUME,m,,,,,,,,,,,,,,,,,
,,,,,,,,,,,,,,,,,,5eadaff848b26f4483ae62d9,2020-11-27_15h01.07.252,lexical_decision_task_MP_exp2,2020.2.5,MacIntel,60,,m,1,0.633635,,,,,,,,0.633635,1,0,4,4,0,1,1001,WORD,"ID",33,utopia,UTOPIA,m,,,,,,,,,,,,,,,,,
,,,,,,,,,,,,,,,,,,5eadaff848b26f4483ae62d9,2020-11-27_15h01.07.252,lexical_decision_task_MP_exp2,2020.2.5,MacIntel,60,,z,1,0.781775,,,,,,,,0.781775,1,0,5,5,9,1,1010,NW,"ID",33,fariny,FARINY,z,,,,,,,,,,,,,,,,,
,,,,,,,,,,,,,,,,,,5eadaff848b26f4483ae62d9,2020-11-27_15h01.07.252,lexical_decision_task_MP_exp2,2020.2.5,MacIntel,60,,z,1,0.681475,,,,,,,,0.681475,1,0,6,6,14,1,1015,NW,UN,16,miaber,THRALE,z,,,,,,,,,,,,,,,,,
,,,,,,,,,,,,,,,,,,5eadaff848b26f4483ae62d9,2020-11-27_15h01.07.252,lexical_decision_task_MP_exp2,2020.2.5,MacIntel,60,,m,1,0.566755,,,,,,,,0.566755,1,0,7,7,5,1,1006,WORD,UN,33,frenzy,OBTAIN,m,,,,,,,,,,,,,,,,,
,,,,,,,,,,,,,,,,,,5eadaff848b26f4483ae62d9,2020-11-27_15h01.07.252,lexical_decision_task_MP_exp2,2020.2.5,MacIntel,60,,z,1,0.69934,,,,,,,,0.69934,1,0,8,8,15,1,1016,NW,UN,16,mushed,WHAISE,z,,,,,,,,,,,,,,,,,
,,,,,,,,,,,,,,,,,,5eadaff848b26f4483ae62d9,2020-11-27_15h01.07.252,lexical_decision_task_MP_exp2,2020.2.5,MacIntel,60,,m,1,0.6579,,,,,,,,0.6579,1,0,9,9,3,1,1004,WORD,"ID",16,matrix,MATRIX,m,,,,,,,,,,,,,,,,,
,,,,,,,,,,,,,,,,,,5eadaff848b26f4483ae62d9,2020-11-27_15h01.07.252,lexical_decision_task_MP_exp2,2020.2.5,MacIntel,60,,z,1,0.70037,,,,,,,,0.70037,1,0,10,10,12,1,1013,NW,UN,33,adveil,SPRINY,z,,,,,,,,,,,,,,,,,
,,,,,,,,,,,,,,,,,,5eadaff848b26f4483ae62d9,2020-11-27_15h01.07.252,lexical_decision_task_MP_exp2,2020.2.5,MacIntel,60,,m,1,0.565975,,,,,,,,0.565975,1,0,11,11,6,1,1007,WORD,UN,16,tropic,ZOMBIE,m,,,,,,,,,,,,,,,,,
,,,,,,,,,,,,,,,,,,5eadaff848b26f4483ae62d9,2020-11-27_15h01.07.252,lexical_decision_task_MP_exp2,2020.2.5,MacIntel,60,,z,1,0.686265,,,,,,,,0.686265,1,0,12,12,8,1,1009,NW,"ID",33,aslert,ASLERT,z,,,,,,,,,,,,,,,,,
,,,,,,,,,,,,,,,,,,5eadaff848b26f4483ae62d9,2020-11-27_15h01.07.252,lexical_decision_task_MP_exp2,2020.2.5,MacIntel,60,,z,1,0.61665,,,,,,,,0.61665,1,0,13,13,13,1,1014,NW,UN,33,winfer,ROUPET,z,,,,,,,,,,,,,,,,,
,,,,,,,,,,,,,,,,,,5eadaff848b26f4483ae62d9,2020-11-27_15h01.07.252,lexical_decision_task_MP_exp2,2020.2.5,MacIntel,60,,z,1,0.65246,,,,,,,,0.65246,1,0,14,14,11,1,1012,NW,"ID",16,rashet,RASHET,z,,,,,,,,,,,,,,,,,
,,,,,,,,,,,,,,,,,,5eadaff848b26f4483ae62d9,2020-11-27_15h01.07.252,lexical_decision_task_MP_exp2,2020.2.5,MacIntel,60,,z,1,0.66649,,,,,,,,0.66649,1,0,15,15,10,1,1011,NW,"ID",16,inlade,INLADE,z,,,,,,,,,,,,,,,,,
,,-0.055786133,-0.405376519,1,0,0,instr_done_button,,,,,,1,end_of_practice,"You have completed the practice trials. During the experimental trials, you will not receive feedback, but it is very important that you respond as quickly and accurately as possible. 
Before you begin, please ensure that you are in a comfortable and quiet location and will not be disturbed for about 15 minutes, as we cannot use your data if you do not complete all the trials. 
There will be opportunities to take breaks at regular intervals during the experiment. When you are ready to start the experimental trials, please press space or touch the button below.",,,5eadaff848b26f4483ae62d9,2020-11-27_15h01.07.252,lexical_decision_task_MP_exp2,2020.2.5,MacIntel,60,,,,,,,,,,,,,,,,,,,,,,,,,,0,0,0,0,1,,,,,,,,,,,,
,,,,,,,,,,,,,,,,,,5eadaff848b26f4483ae62d9,2020-11-27_15h01.07.252,lexical_decision_task_MP_exp2,2020.2.5,MacIntel,60,,m,1,0.600075,,,,,,,,0.600075,1,,,,,,204,WORD,UN,16,lounge,BURDEN,m,,,,,,-0.055786133,-0.405376519,0,0,0,,0,0,0,203,1,
,,,,,,,,,,,,,,,,,,5eadaff848b26f4483ae62d9,2020-11-27_15h01.07.252,lexical_decision_task_MP_exp2,2020.2.5,MacIntel,60,,z,1,0.73232,,,,,,,,0.73232,1,,,,,,441,NW,UN,16,aboune,RASTOE,z,,,,,,-0.055786133,-0.405376519,0,0,0,,0,1,1,440,1,
,,,,,,,,,,,,,,,,,,5eadaff848b26f4483ae62d9,2020-11-27_15h01.07.252,lexical_decision_task_MP_exp2,2020.2.5,MacIntel,60,,m,1,0.489405,,,,,,,,0.489405,1,,,,,,72,WORD,"ID",16,bright,BRIGHT,m,,,,,,-0.055786133,-0.405376519,0,0,0,,0,2,2,71,1,
,,,,,,,,,,,,,,,,,,5eadaff848b26f4483ae62d9,2020-11-27_15h01.07.252,lexical_decision_task_MP_exp2,2020.2.5,MacIntel,60,,m,1,0.48456,,,,,,,,0.48456,1,,,,,,21,WORD,"ID",33,simple,SIMPLE,m,,,,,,-0.055786133,-0.405376519,0,0,0,,0,3,3,20,1,
,,,,,,,,,,,,,,,,,,5eadaff848b26f4483ae62d9,2020-11-27_15h01.07.252,lexical_decision_task_MP_exp2,2020.2.5,MacIntel,60,,z,1,0.74267,,,,,,,,0.74267,1,,,,,,298,NW,"ID",33,piergy,PIERGY,z,,,,,,-0.055786133,-0.405376519,0,0,0,,0,4,4,297,1,
,,,,,,,,,,,,,,,,,,5eadaff848b26f4483ae62d9,2020-11-27_15h01.07.252,lexical_decision_task_MP_exp2,2020.2.5,MacIntel,60,,z,1,0.616455,,,,,,,,0.616455,1,,,,,,401,NW,UN,33,elopia,MUSTIL,z,,,,,,-0.055786133,-0.405376519,0,0,0,,0,5,5,400,1,
,,,,,,,,,,,,,,,,,,5eadaff848b26f4483ae62d9,2020-11-27_15h01.07.252,lexical_decision_task_MP_exp2,2020.2.5,MacIntel,60,,z,1,0.566045,,,,,,,,0.566045,1,,,,,,335,NW,"ID",16,desion,DESION,z,,,,,,-0.055786133,-0.405376519,0,0,0,,0,6,6,334,1,
,,,,,,,,,,,,,,,,,,5eadaff848b26f4483ae62d9,2020-11-27_15h01.07.252,lexical_decision_task_MP_exp2,2020.2.5,MacIntel,60,,m,1,0.554265,,,,,,,,0.554265,1,,,,,,172,WORD,UN,33,shower,PATROL,m,,,,,,-0.055786133,-0.405376519,0,0,0,,0,7,7,171,1,
,,,,,,,,,,,,,,,,,,5eadaff848b26f4483ae62d9,2020-11-27_15h01.07.252,lexical_decision_task_MP_exp2,2020.2.5,MacIntel,60,,z,1,0.53595,,,,,,,,0.53595,1,,,,,,246,NW,"ID",33,piaton,PIATON,z,,,,,,-0.055786133,-0.405376519,0,0,0,,0,8,8,245,1,
,,,,,,,,,,,,,,,,,,5eadaff848b26f4483ae62d9,2020-11-27_15h01.07.252,lexical_decision_task_MP_exp2,2020.2.5,MacIntel,60,,m,1,0.583685,,,,,,,,0.583685,1,,,,,,64,WORD,"ID",16,throne,THRONE,m,,,,,,-0.055786133,-0.405376519,0,0,0,,0,9,9,63,1,
,,,,,,,,,,,,,,,,,,5eadaff848b26f4483ae62d9,2020-11-27_15h01.07.252,lexical_decision_task_MP_exp2,2020.2.5,MacIntel,60,,m,1,0.65115,,,,,,,,0.65115,1,,,,,,193,WORD,UN,16,plague,OBJECT,m,,,,,,-0.055786133,-0.405376519,0,0,0,,0,10,10,192,1,
,,,,,,,,,,,,,,,,,,5eadaff848b26f4483ae62d9,2020-11-27_15h01.07.252,lexical_decision_task_MP_exp2,2020.2.5,MacIntel,60,,z,1,0.91863,,,,,,,,0.91863,1,,,,,,380,NW,UN,33,huniek,CAVORY,z,,,,,,-0.055786133,-0.405376519,0,0,0,,0,11,11,379,1,
,,,,,,,,,,,,,,,,,,5eadaff848b26f4483ae62d9,2020-11-27_15h01.07.252,lexical_decision_task_MP_exp2,2020.2.5,MacIntel,60,,z,1,0.5669,,,,,,,,0.5669,1,,,,,,247,NW,"ID",33,blarge,BLARGE,z,,,,,,-0.055786133,-0.405376519,0,0,0,,0,12,12,246,1,
,,,,,,,,,,,,,,,,,,5eadaff848b26f4483ae62d9,2020-11-27_15h01.07.252,lexical_decision_task_MP_exp2,2020.2.5,MacIntel,60,,m,1,0.516525,,,,,,,,0.516525,1,,,,,,60,WORD,"ID",33,pencil,PENCIL,m,,,,,,-0.055786133,-0.405376519,0,0,0,,0,13,13,59,1,
,,,,,,,,,,,,,,,,,,5eadaff848b26f4483ae62d9,2020-11-27_15h01.07.252,lexical_decision_task_MP_exp2,2020.2.5,MacIntel,60,,z,1,0.73368,,,,,,,,0.73368,1,,,,,,260,NW,"ID",33,unject,UNJECT,z,,,,,,-0.055786133,-0.405376519,0,0,0,,0,14,14,259,1,
,,,,,,,,,,,,,,,,,,5eadaff848b26f4483ae62d9,2020-11-27_15h01.07.252,lexical_decision_task_MP_exp2,2020.2.5,MacIntel,60,,z,1,0.750965,,,,,,,,0.750965,1,,,,,,377,NW,UN,33,shrile,INJORE,z,,,,,,-0.055786133,-0.405376519,0,0,0,,0,15,15,376,1,
,,,,,,,,,,,,,,,,,,5eadaff848b26f4483ae62d9,2020-11-27_15h01.07.252,lexical_decision_task_MP_exp2,2020.2.5,MacIntel,60,,z,1,0.77376,,,,,,,,0.77376,1,,,,,,449,NW,UN,16,phrect,BRUNGE,z,,,,,,-0.055786133,-0.405376519,0,0,0,,0,16,16,448,1,
,,,,,,,,,,,,,,,,,,5eadaff848b26f4483ae62d9,2020-11-27_15h01.07.252,lexical_decision_task_MP_exp2,2020.2.5,MacIntel,60,,z,1,0.667005,,,,,,,,0.667005,1,,,,,,293,NW,"ID",33,swance,SWANCE,z,,,,,,-0.055786133,-0.405376519,0,0,0,,0,17,17,292,1,
,,,,,,,,,,,,,,,,,,5eadaff848b26f4483ae62d9,2020-11-27_15h01.07.252,lexical_decision_task_MP_exp2,2020.2.5,MacIntel,60,,z,1,0.60371,,,,,,,,0.60371,1,,,,,,304,NW,"ID",16,cludie,CLUDIE,z,,,,,,-0.055786133,-0.405376519,0,0,0,,0,18,18,303,1,
,,,,,,,,,,,,,,,,,,5eadaff848b26f4483ae62d9,2020-11-27_15h01.07.252,lexical_decision_task_MP_exp2,2020.2.5,MacIntel,60,,m,1,0.565005,,,,,,,,0.565005,1,,,,,,159,WORD,UN,33,violet,DETAIL,m,,,,,,-0.055786133,-0.405376519,0,0,0,,0,19,19,158,1,
,,,,,,,,,,,,,,,,,,5eadaff848b26f4483ae62d9,2020-11-27_15h01.07.252,lexical_decision_task_MP_exp2,2020.2.5,MacIntel,60,,m,1,0.616115,,,,,,,,0.616115,1,,,,,,117,WORD,"ID",16,branch,BRANCH,m,,,,,,-0.055786133,-0.405376519,0,0,0,,0,20,20,116,1,
,,,,,,,,,,,,,,,,,,5eadaff848b26f4483ae62d9,2020-11-27_15h01.07.252,lexical_decision_task_MP_exp2,2020.2.5,MacIntel,60,,m,1,0.716345,,,,,,,,0.716345,1,,,,,,68,WORD,"ID",16,fumble,FUMBLE,m,,,,,,-0.055786133,-0.405376519,0,0,0,,0,21,21,67,1,
,,,,,,,,,,,,,,,,,,5eadaff848b26f4483ae62d9,2020-11-27_15h01.07.252,lexical_decision_task_MP_exp2,2020.2.5,MacIntel,60,,m,1,0.59077,,,,,,,,0.59077,1,,,,,,127,WORD,UN,33,senior,CASTLE,m,,,,,,-0.055786133,-0.405376519,0,0,0,,0,22,22,126,1,
,,,,,,,,,,,,,,,,,,5eadaff848b26f4483ae62d9,2020-11-27_15h01.07.252,lexical_decision_task_MP_exp2,2020.2.5,MacIntel,60,,z,1,0.723885,,,,,,,,0.723885,1,,,,,,294,NW,"ID",33,inhort,INHORT,z,,,,,,-0.055786133,-0.405376519,0,0,0,,0,23,23,293,1,
,,,,,,,,,,,,,,,,,,5eadaff848b26f4483ae62d9,2020-11-27_15h01.07.252,lexical_decision_task_MP_exp2,2020.2.5,MacIntel,60,,m,1,0.571775,,,,,,,,0.571775,1,,,,,,150,WORD,UN,33,mystic,RANDOM,m,,,,,,-0.055786133,-0.405376519,0,0,0,,0,24,24,149,1,
,,,,,,,,,,,,,,,,,,5eadaff848b26f4483ae62d9,2020-11-27_15h01.07.252,lexical_decision_task_MP_exp2,2020.2.5,MacIntel,60,,z,1,0.623065,,,,,,,,0.623065,1,,,,,,320,NW,"ID",16,jockal,JOCKAL,z,,,,,,-0.055786133,-0.405376519,0,0,0,,0,25,25,319,1,
,,,,,,,,,,,,,,,,,,5eadaff848b26f4483ae62d9,2020-11-27_15h01.07.252,lexical_decision_task_MP_exp2,2020.2.5,MacIntel,60,,m,1,0.58178,,,,,,,,0.58178,1,,,,,,115,WORD,"ID",16,guitar,GUITAR,m,,,,,,-0.055786133,-0.405376519,0,0,0,,0,26,26,114,1,
,,,,,,,,,,,,,,,,,,5eadaff848b26f4483ae62d9,2020-11-27_15h01.07.252,lexical_decision_task_MP_exp2,2020.2.5,MacIntel,60,,z,1,0.58578,,,,,,,,0.58578,1,,,,,,459,NW,UN,16,mingar,BAFENT,z,,,,,,-0.055786133,-0.405376519,0,0,0,,0,27,27,458,1,
,,,,,,,,,,,,,,,,,,5eadaff848b26f4483ae62d9,2020-11-27_15h01.07.252,lexical_decision_task_MP_exp2,2020.2.5,MacIntel,60,,m,1,0.60853,,,,,,,,0.60853,1,,,,,,113,WORD,"ID",16,chorus,CHORUS,m,,,,,,-0.055786133,-0.405376519,0,0,0,,0,28,28,112,1,
,,,,,,,,,,,,,,,,,,5eadaff848b26f4483ae62d9,2020-11-27_15h01.07.252,lexical_decision_task_MP_exp2,2020.2.5,MacIntel,60,,z,1,0.567115,,,,,,,,0.567115,1,,,,,,368,NW,UN,33,wronch,HORNAL,z,,,,,,-0.055786133,-0.405376519,0,0,0,,0,29,29,367,1,
,,,,,,,,,,,,,,,,,,5eadaff848b26f4483ae62d9,2020-11-27_15h01.07.252,lexical_decision_task_MP_exp2,2020.2.5,MacIntel,60,,m,1,0.55167,,,,,,,,0.55167,1,,,,,,239,WORD,UN,16,forest,LUMBER,m,,,,,,-0.055786133,-0.405376519,0,0,0,,0,30,30,238,1,
,,,,,,,,,,,,,,,,,,5eadaff848b26f4483ae62d9,2020-11-27_15h01.07.252,lexical_decision_task_MP_exp2,2020.2.5,MacIntel,60,,m,1,0.6937,,,,,,,,0.6937,1,,,,,,124,WORD,UN,33,nickel,BLOUSE,m,,,,,,-0.055786133,-0.405376519,0,0,0,,0,31,31,123,1,
,,,,,,,,,,,,,,,,,,5eadaff848b26f4483ae62d9,2020-11-27_15h01.07.252,lexical_decision_task_MP_exp2,2020.2.5,MacIntel,60,,z,1,0.655045,,,,,,,,0.655045,1,,,,,,245,NW,"ID",33,anougs,ANOUGS,z,,,,,,-0.055786133,-0.405376519,0,0,0,,0,32,32,244,1,
,,,,,,,,,,,,,,,,,,5eadaff848b26f4483ae62d9,2020-11-27_15h01.07.252,lexical_decision_task_MP_exp2,2020.2.5,MacIntel,60,,z,1,0.584145,,,,,,,,0.584145,1,,,,,,374,NW,UN,33,yorque,SLIANT,z,,,,,,-0.055786133,-0.405376519,0,0,0,,0,33,33,373,1,
,,,,,,,,,,,,,,,,,,5eadaff848b26f4483ae62d9,2020-11-27_15h01.07.252,lexical_decision_task_MP_exp2,2020.2.5,MacIntel,60,,m,1,0.532775,,,,,,,,0.532775,1,,,,,,98,WORD,"ID",16,belong,BELONG,m,,,,,,-0.055786133,-0.405376519,0,0,0,,0,34,34,97,1,
,,,,,,,,,,,,,,,,,,5eadaff848b26f4483ae62d9,2020-11-27_15h01.07.252,lexical_decision_task_MP_exp2,2020.2.5,MacIntel,60,,z,1,0.603345,,,,,,,,0.603345,1,,,,,,334,NW,"ID",16,watmeg,WATMEG,z,,,,,,-0.055786133,-0.405376519,0,0,0,,0,35,35,333,1,
,,,,,,,,,,,,,,,,,,5eadaff848b26f4483ae62d9,2020-11-27_15h01.07.252,lexical_decision_task_MP_exp2,2020.2.5,MacIntel,60,,z,1,0.586105,,,,,,,,0.586105,1,,,,,,307,NW,"ID",16,kirafe,KIRAFE,z,,,,,,-0.055786133,-0.405376519,0,0,0,,0,36,36,306,1,
,,,,,,,,,,,,,,,,,,5eadaff848b26f4483ae62d9,2020-11-27_15h01.07.252,lexical_decision_task_MP_exp2,2020.2.5,MacIntel,60,,m,1,0.54974,,,,,,,,0.54974,1,,,,,,109,WORD,"ID",16,wonder,WONDER,m,,,,,,-0.055786133,-0.405376519,0,0,0,,0,37,37,108,1,
,,,,,,,,,,,,,,,,,,5eadaff848b26f4483ae62d9,2020-11-27_15h01.07.252,lexical_decision_task_MP_exp2,2020.2.5,MacIntel,60,,m,1,0.5492,,,,,,,,0.5492,1,,,,,,226,WORD,UN,16,flower,CASINO,m,,,,,,-0.055786133,-0.405376519,0,0,0,,0,38,38,225,1,
,,,,,,,,,,,,,,,,,,5eadaff848b26f4483ae62d9,2020-11-27_15h01.07.252,lexical_decision_task_MP_exp2,2020.2.5,MacIntel,60,,z,1,0.58473,,,,,,,,0.58473,1,,,,,,479,NW,UN,16,josted,LOBUSH,z,,,,,,-0.055786133,-0.405376519,0,0,0,,0,39,39,478,1,
,,,,,,,,,,,,,,,,,,5eadaff848b26f4483ae62d9,2020-11-27_15h01.07.252,lexical_decision_task_MP_exp2,2020.2.5,MacIntel,60,,m,1,0.48253,,,,,,,,0.48253,1,,,,,,26,WORD,"ID",33,sprint,SPRINT,m,,,,,,-0.055786133,-0.405376519,0,0,0,,0,40,40,25,1,
,,,,,,,,,,,,,,,,,,5eadaff848b26f4483ae62d9,2020-11-27_15h01.07.252,lexical_decision_task_MP_exp2,2020.2.5,MacIntel,60,,z,1,0.567395,,,,,,,,0.567395,1,,,,,,340,NW,"ID",16,fiatch,FIATCH,z,,,,,,-0.055786133,-0.405376519,0,0,0,,0,41,41,339,1,
,,,,,,,,,,,,,,,,,,5eadaff848b26f4483ae62d9,2020-11-27_15h01.07.252,lexical_decision_task_MP_exp2,2020.2.5,MacIntel,60,,m,1,0.586735,,,,,,,,0.586735,1,,,,,,23,WORD,"ID",33,wealth,WEALTH,m,,,,,,-0.055786133,-0.405376519,0,0,0,,0,42,42,22,1,
,,,,,,,,,,,,,,,,,,5eadaff848b26f4483ae62d9,2020-11-27_15h01.07.252,lexical_decision_task_MP_exp2,2020.2.5,MacIntel,60,,m,1,0.64983,,,,,,,,0.64983,1,,,,,,119,WORD,"ID",16,spider,SPIDER,m,,,,,,-0.055786133,-0.405376519,0,0,0,,0,43,43,118,1,
,,,,,,,,,,,,,,,,,,5eadaff848b26f4483ae62d9,2020-11-27_15h01.07.252,lexical_decision_task_MP_exp2,2020.2.5,MacIntel,60,,m,1,0.520265,,,,,,,,0.520265,1,,,,,,203,WORD,UN,16,burden,PHRASE,m,,,,,,-0.055786133,-0.405376519,0,0,0,,0,44,44,202,1,
,,,,,,,,,,,,,,,,,,5eadaff848b26f4483ae62d9,2020-11-27_15h01.07.252,lexical_decision_task_MP_exp2,2020.2.5,MacIntel,60,,z,1,0.53229,,,,,,,,0.53229,1,,,,,,292,NW,"ID",33,ablint,ABLINT,z,,,,,,-0.055786133,-0.405376519,0,0,0,,0,45,45,291,1,
,,,,,,,,,,,,,,,,,,5eadaff848b26f4483ae62d9,2020-11-27_15h01.07.252,lexical_decision_task_MP_exp2,2020.2.5,MacIntel,60,,z,1,0.55232,,,,,,,,0.55232,1,,,,,,400,NW,UN,33,mustil,WEAROX,z,,,,,,-0.055786133,-0.405376519,0,0,0,,0,46,46,399,1,
,,,,,,,,,,,,,,,,,,5eadaff848b26f4483ae62d9,2020-11-27_15h01.07.252,lexical_decision_task_MP_exp2,2020.2.5,MacIntel,60,,m,1,0.482995,,,,,,,,0.482995,1,,,,,,174,WORD,UN,33,fabric,TURKEY,m,,,,,,-0.055786133,-0.405376519,0,0,0,,0,47,47,173,1,
,,,,,,,,,,,,,,,,,,5eadaff848b26f4483ae62d9,2020-11-27_15h01.07.252,lexical_decision_task_MP_exp2,2020.2.5,MacIntel,60,,z,1,0.66736,,,,,,,,0.66736,1,,,,,,269,NW,"ID",33,orchet,ORCHET,z,,,,,,-0.055786133,-0.405376519,0,0,0,,0,48,48,268,1,
,,,,,,,,,,,,,,,,,,5eadaff848b26f4483ae62d9,2020-11-27_15h01.07.252,lexical_decision_task_MP_exp2,2020.2.5,MacIntel,60,,m,1,0.442115,,,,,,,,0.442115,1,,,,,,65,WORD,"ID",16,symbol,SYMBOL,m,,,,,,-0.055786133,-0.405376519,0,0,0,,0,49,49,64,1,
,,,,,,,,,,,,,,,,,,5eadaff848b26f4483ae62d9,2020-11-27_15h01.07.252,lexical_decision_task_MP_exp2,2020.2.5,MacIntel,60,,m,1,0.517365,,,,,,,,0.517365,1,,,,,,126,WORD,UN,33,castle,ENOUGH,m,,,,,,-0.055786133,-0.405376519,0,0,0,,0,50,50,125,1,
,,,,,,,,,,,,,,,,,,5eadaff848b26f4483ae62d9,2020-11-27_15h01.07.252,lexical_decision_task_MP_exp2,2020.2.5,MacIntel,60,,m,1,0.484305,,,,,,,,0.484305,1,,,,,,228,WORD,UN,16,inject,MASTER,m,,,,,,-0.055786133,-0.405376519,0,0,0,,0,51,51,227,1,
,,,,,,,,,,,,,,,,,,5eadaff848b26f4483ae62d9,2020-11-27_15h01.07.252,lexical_decision_task_MP_exp2,2020.2.5,MacIntel,60,,m,1,0.532115,,,,,,,,0.532115,1,,,,,,210,WORD,UN,16,infect,MONKEY,m,,,,,,-0.055786133,-0.405376519,0,0,0,,0,52,52,209,1,
,,,,,,,,,,,,,,,,,,5eadaff848b26f4483ae62d9,2020-11-27_15h01.07.252,lexical_decision_task_MP_exp2,2020.2.5,MacIntel,60,,m,1,0.59944,,,,,,,,0.59944,1,,,,,,175,WORD,UN,33,strife,FABRIC,m,,,,,,-0.055786133,-0.405376519,0,0,0,,0,53,53,174,1,
,,,,,,,,,,,,,,,,,,5eadaff848b26f4483ae62d9,2020-11-27_15h01.07.252,lexical_decision_task_MP_exp2,2020.2.5,MacIntel,60,,z,1,0.516905,,,,,,,,0.516905,1,,,,,,450,NW,UN,16,rastoe,PHRECT,z,,,,,,-0.055786133,-0.405376519,0,0,0,,0,54,54,449,1,
,,,,,,,,,,,,,,,,,,5eadaff848b26f4483ae62d9,2020-11-27_15h01.07.252,lexical_decision_task_MP_exp2,2020.2.5,MacIntel,60,,z,1,0.633065,,,,,,,,0.633065,1,,,,,,478,NW,UN,16,lobush,ACRISE,z,,,,,,-0.055786133,-0.405376519,0,0,0,,0,55,55,477,1,
,,,,,,,,,,,,,,,,,,5eadaff848b26f4483ae62d9,2020-11-27_15h01.07.252,lexical_decision_task_MP_exp2,2020.2.5,MacIntel,60,,z,1,0.515915,,,,,,,,0.515915,1,,,,,,388,NW,UN,33,witmer,CRAGIN,z,,,,,,-0.055786133,-0.405376519,0,0,0,,0,56,56,387,1,
,,,,,,,,,,,,,,,,,,5eadaff848b26f4483ae62d9,2020-11-27_15h01.07.252,lexical_decision_task_MP_exp2,2020.2.5,MacIntel,60,,m,1,0.61599,,,,,,,,0.61599,1,,,,,,86,WORD,"ID",16,rodent,RODENT,m,,,,,,-0.055786133,-0.405376519,0,0,0,,0,57,57,85,1,
,,,,,,,,,,,,,,,,,,5eadaff848b26f4483ae62d9,2020-11-27_15h01.07.252,lexical_decision_task_MP_exp2,2020.2.5,MacIntel,60,,m,1,0.56625,,,,,,,,0.56625,1,,,,,,225,WORD,UN,16,kidney,VULGAR,m,,,,,,-0.055786133,-0.405376519,0,0,0,,0,58,58,224,1,
,,,,,,,,,,,,,,,,,,5eadaff848b26f4483ae62d9,2020-11-27_15h01.07.252,lexical_decision_task_MP_exp2,2020.2.5,MacIntel,60,,m,1,0.553435,,,,,,,,0.553435,1,,,,,,40,WORD,"ID",33,convey,CONVEY,m,,,,,,-0.055786133,-0.405376519,0,0,0,,0,59,59,39,1,
,,,,,,,,,,,,,,,,,,5eadaff848b26f4483ae62d9,2020-11-27_15h01.07.252,lexical_decision_task_MP_exp2,2020.2.5,MacIntel,60,,z,1,0.484135,,,,,,,,0.484135,1,,,,,,288,NW,"ID",33,yaceup,YACEUP,z,,,,,,-0.055786133,-0.405376519,0,0,0,,0,60,60,287,1,
,,,,,,,,,,,,,,,,,,5eadaff848b26f4483ae62d9,2020-11-27_15h01.07.252,lexical_decision_task_MP_exp2,2020.2.5,MacIntel,60,,m,1,0.450395,,,,,,,,0.450395,1,,,,,,31,WORD,"ID",33,weapon,WEAPON,m,,,,,,-0.055786133,-0.405376519,0,0,0,,0,61,61,30,1,
,,,,,,,,,,,,,,,,,,5eadaff848b26f4483ae62d9,2020-11-27_15h01.07.252,lexical_decision_task_MP_exp2,2020.2.5,MacIntel,60,,z,1,0.83943,,,,,,,,0.83943,1,,,,,,453,NW,UN,16,scouge,BOLVIS,z,,,,,,-0.055786133,-0.405376519,0,0,0,,0,62,62,452,1,
,,,,,,,,,,,,,,,,,,5eadaff848b26f4483ae62d9,2020-11-27_15h01.07.252,lexical_decision_task_MP_exp2,2020.2.5,MacIntel,60,,m,1,0.5217,,,,,,,,0.5217,1,,,,,,185,WORD,UN,16,portal,BOTHER,m,,,,,,-0.055786133,-0.405376519,0,0,0,,0,63,63,184,1,
,,,,,,,,,,,,,,,,,,5eadaff848b26f4483ae62d9,2020-11-27_15h01.07.252,lexical_decision_task_MP_exp2,2020.2.5,MacIntel,60,,m,1,0.57204,,,,,,,,0.57204,1,,,,,,108,WORD,"ID",16,reckon,RECKON,m,,,,,,-0.055786133,-0.405376519,0,0,0,,0,64,64,107,1,
,,,,,,,,,,,,,,,,,,5eadaff848b26f4483ae62d9,2020-11-27_15h01.07.252,lexical_decision_task_MP_exp2,2020.2.5,MacIntel,60,,z,1,0.566715,,,,,,,,0.566715,1,,,,,,264,NW,"ID",33,vackel,VACKEL,z,,,,,,-0.055786133,-0.405376519,0,0,0,,0,65,65,263,1,
,,,,,,,,,,,,,,,,,,5eadaff848b26f4483ae62d9,2020-11-27_15h01.07.252,lexical_decision_task_MP_exp2,2020.2.5,MacIntel,60,,m,1,0.50067,,,,,,,,0.50067,1,,,,,,78,WORD,"ID",16,column,COLUMN,m,,,,,,-0.055786133,-0.405376519,0,0,0,,0,66,66,77,1,
,,,,,,,,,,,,,,,,,,5eadaff848b26f4483ae62d9,2020-11-27_15h01.07.252,lexical_decision_task_MP_exp2,2020.2.5,MacIntel,60,,m,1,0.568825,,,,,,,,0.568825,1,,,,,,125,WORD,UN,33,blouse,NICKEL,m,,,,,,-0.055786133,-0.405376519,0,0,0,,0,67,67,124,1,
,,,,,,,,,,,,,,,,,,5eadaff848b26f4483ae62d9,2020-11-27_15h01.07.252,lexical_decision_task_MP_exp2,2020.2.5,MacIntel,60,,m,1,0.576435,,,,,,,,0.576435,1,,,,,,102,WORD,"ID",16,direct,DIRECT,m,,,,,,-0.055786133,-0.405376519,0,0,0,,0,68,68,101,1,
,,,,,,,,,,,,,,,,,,5eadaff848b26f4483ae62d9,2020-11-27_15h01.07.252,lexical_decision_task_MP_exp2,2020.2.5,MacIntel,60,,m,1,0.73307,,,,,,,,0.73307,1,,,,,,79,WORD,"ID",16,theory,THEORY,m,,,,,,-0.055786133,-0.405376519,0,0,0,,0,69,69,78,1,
,,,,,,,,,,,,,,,,,,5eadaff848b26f4483ae62d9,2020-11-27_15h01.07.252,lexical_decision_task_MP_exp2,2020.2.5,MacIntel,60,,m,1,0.50034,,,,,,,,0.50034,1,,,,,,186,WORD,UN,16,course,PORTAL,m,,,,,,-0.055786133,-0.405376519,0,0,0,,0,70,70,185,1,
,,,,,,,,,,,,,,,,,,5eadaff848b26f4483ae62d9,2020-11-27_15h01.07.252,lexical_decision_task_MP_exp2,2020.2.5,MacIntel,60,,z,1,0.650185,,,,,,,,0.650185,1,,,,,,263,NW,"ID",33,dolica,DOLICA,z,,,,,,-0.055786133,-0.405376519,0,0,0,,0,71,71,262,1,
,,,,,,,,,,,,,,,,,,5eadaff848b26f4483ae62d9,2020-11-27_15h01.07.252,lexical_decision_task_MP_exp2,2020.2.5,MacIntel,60,,z,1,0.63256,,,,,,,,0.63256,1,,,,,,283,NW,"ID",33,veralf,VERALF,z,,,,,,-0.055786133,-0.405376519,0,0,0,,0,72,72,282,1,
,,,,,,,,,,,,,,,,,,5eadaff848b26f4483ae62d9,2020-11-27_15h01.07.252,lexical_decision_task_MP_exp2,2020.2.5,MacIntel,60,,z,1,0.9004,,,,,,,,0.9004,1,,,,,,268,NW,"ID",33,packes,PACKES,z,,,,,,-0.055786133,-0.405376519,0,0,0,,0,73,73,267,1,
,,,,,,,,,,,,,,,,,,5eadaff848b26f4483ae62d9,2020-11-27_15h01.07.252,lexical_decision_task_MP_exp2,2020.2.5,MacIntel,60,,m,1,0.50078,,,,,,,,0.50078,1,,,,,,35,WORD,"ID",33,socket,SOCKET,m,,,,,,-0.055786133,-0.405376519,0,0,0,,0,74,74,34,1,
,,,,,,,,,,,,,,,,,,5eadaff848b26f4483ae62d9,2020-11-27_15h01.07.252,lexical_decision_task_MP_exp2,2020.2.5,MacIntel,60,,m,1,0.50406,,,,,,,,0.50406,1,,,,,,27,WORD,"ID",33,scream,SCREAM,m,,,,,,-0.055786133,-0.405376519,0,0,0,,0,75,75,26,1,
,,,,,,,,,,,,,,,,,,5eadaff848b26f4483ae62d9,2020-11-27_15h01.07.252,lexical_decision_task_MP_exp2,2020.2.5,MacIntel,60,,m,1,0.53983,,,,,,,,0.53983,1,,,,,,93,WORD,"ID",16,public,PUBLIC,m,,,,,,-0.055786133,-0.405376519,0,0,0,,0,76,76,92,1,
,,,,,,,,,,,,,,,,,,5eadaff848b26f4483ae62d9,2020-11-27_15h01.07.252,lexical_decision_task_MP_exp2,2020.2.5,MacIntel,60,,m,1,0.63382,,,,,,,,0.63382,1,,,,,,92,WORD,"ID",16,strand,STRAND,m,,,,,,-0.055786133,-0.405376519,0,0,0,,0,77,77,91,1,
,,,,,,,,,,,,,,,,,,5eadaff848b26f4483ae62d9,2020-11-27_15h01.07.252,lexical_decision_task_MP_exp2,2020.2.5,MacIntel,60,,z,1,0.79998,,,,,,,,0.79998,1,,,,,,284,NW,"ID",33,shaple,SHAPLE,z,,,,,,-0.055786133,-0.405376519,0,0,0,,0,78,78,283,1,
,,,,,,,,,,,,,,,,,,5eadaff848b26f4483ae62d9,2020-11-27_15h01.07.252,lexical_decision_task_MP_exp2,2020.2.5,MacIntel,60,,z,1,0.800795,,,,,,,,0.800795,1,,,,,,314,NW,"ID",16,sprine,SPRINE,z,,,,,,-0.055786133,-0.405376519,0,0,0,,0,79,79,313,1,
,,,,,,,,,,,,,,,,,,5eadaff848b26f4483ae62d9,2020-11-27_15h01.07.252,lexical_decision_task_MP_exp2,2020.2.5,MacIntel,60,,z,1,0.566025,,,,,,,,0.566025,1,,,,,,379,NW,UN,33,cavory,AUTING,z,,,,,,-0.055786133,-0.405376519,0,0,0,,0,80,80,378,1,
,,,,,,,,,,,,,,,,,,5eadaff848b26f4483ae62d9,2020-11-27_15h01.07.252,lexical_decision_task_MP_exp2,2020.2.5,MacIntel,60,,z,1,0.703195,,,,,,,,0.703195,1,,,,,,369,NW,UN,33,sleact,WRONCH,z,,,,,,-0.055786133,-0.405376519,0,0,0,,0,81,81,368,1,
,,,,,,,,,,,,,,,,,,5eadaff848b26f4483ae62d9,2020-11-27_15h01.07.252,lexical_decision_task_MP_exp2,2020.2.5,MacIntel,60,,z,0,0.586025,,,,,,,,0.586025,0,,,,,,222,WORD,UN,16,casino,HINDER,m,,,,,,-0.055786133,-0.405376519,0,0,0,,0,82,82,221,1,
,,,,,,,,,,,,,,,,,,5eadaff848b26f4483ae62d9,2020-11-27_15h01.07.252,lexical_decision_task_MP_exp2,2020.2.5,MacIntel,60,,m,1,0.549645,,,,,,,,0.549645,1,,,,,,11,WORD,"ID",33,cruise,CRUISE,m,,,,,,-0.055786133,-0.405376519,0,0,0,,0,83,83,10,1,
,,,,,,,,,,,,,,,,,,5eadaff848b26f4483ae62d9,2020-11-27_15h01.07.252,lexical_decision_task_MP_exp2,2020.2.5,MacIntel,60,,z,1,0.73284,,,,,,,,0.73284,1,,,,,,297,NW,"ID",33,fertic,FERTIC,z,,,,,,-0.055786133,-0.405376519,0,0,0,,0,84,84,296,1,
,,,,,,,,,,,,,,,,,,5eadaff848b26f4483ae62d9,2020-11-27_15h01.07.252,lexical_decision_task_MP_exp2,2020.2.5,MacIntel,60,,z,1,0.66747,,,,,,,,0.66747,1,,,,,,384,NW,UN,33,veigma,GUESCO,z,,,,,,-0.055786133,-0.405376519,0,0,0,,0,85,85,383,1,
,,,,,,,,,,,,,,,,,,5eadaff848b26f4483ae62d9,2020-11-27_15h01.07.252,lexical_decision_task_MP_exp2,2020.2.5,MacIntel,60,,z,1,0.604695,,,,,,,,0.604695,1,,,,,,420,NW,UN,33,pauche,GUSHOP,z,,,,,,-0.055786133,-0.405376519,0,0,0,,0,86,86,419,1,
,,,,,,,,,,,,,,,,,,5eadaff848b26f4483ae62d9,2020-11-27_15h01.07.252,lexical_decision_task_MP_exp2,2020.2.5,MacIntel,60,,z,1,0.59951,,,,,,,,0.59951,1,,,,,,271,NW,"ID",33,aubrid,AUBRID,z,,,,,,-0.055786133,-0.405376519,0,0,0,,0,87,87,270,1,
,,,,,,,,,,,,,,,,,,5eadaff848b26f4483ae62d9,2020-11-27_15h01.07.252,lexical_decision_task_MP_exp2,2020.2.5,MacIntel,60,,m,1,0.95013,,,,,,,,0.95013,1,,,,,,20,WORD,"ID",33,breast,BREAST,m,,,,,,-0.055786133,-0.405376519,0,0,0,,0,88,88,19,1,
,,,,,,,,,,,,,,,,,,5eadaff848b26f4483ae62d9,2020-11-27_15h01.07.252,lexical_decision_task_MP_exp2,2020.2.5,MacIntel,60,,z,1,0.569975,,,,,,,,0.569975,1,,,,,,410,NW,UN,33,orchin,TUNORY,z,,,,,,-0.055786133,-0.405376519,0,0,0,,0,89,89,409,1,
,,,,,,,,,,,,,,,,,,5eadaff848b26f4483ae62d9,2020-11-27_15h01.07.252,lexical_decision_task_MP_exp2,2020.2.5,MacIntel,60,,m,1,0.51941,,,,,,,,0.51941,1,,,,,,201,WORD,UN,16,factor,ADMIRE,m,,,,,,-0.055786133,-0.405376519,0,0,0,,0,90,90,200,1,
,,,,,,,,,,,,,,,,,,5eadaff848b26f4483ae62d9,2020-11-27_15h01.07.252,lexical_decision_task_MP_exp2,2020.2.5,MacIntel,60,,z,1,0.63433,,,,,,,,0.63433,1,,,,,,270,NW,"ID",33,wrimsy,WRIMSY,z,,,,,,-0.055786133,-0.405376519,0,0,0,,0,91,91,269,1,
,,,,,,,,,,,,,,,,,,5eadaff848b26f4483ae62d9,2020-11-27_15h01.07.252,lexical_decision_task_MP_exp2,2020.2.5,MacIntel,60,,z,1,0.60352,,,,,,,,0.60352,1,,,,,,466,NW,UN,16,pebric,HOCITE,z,,,,,,-0.055786133,-0.405376519,0,0,0,,0,92,92,465,1,
,,,,,,,,,,,,,,,,,,5eadaff848b26f4483ae62d9,2020-11-27_15h01.07.252,lexical_decision_task_MP_exp2,2020.2.5,MacIntel,60,,m,1,0.583555,,,,,,,,0.583555,1,,,,,,197,WORD,UN,16,wicked,STREAM,m,,,,,,-0.055786133,-0.405376519,0,0,0,,0,93,93,196,1,
,,,,,,,,,,,,,,,,,,5eadaff848b26f4483ae62d9,2020-11-27_15h01.07.252,lexical_decision_task_MP_exp2,2020.2.5,MacIntel,60,,m,1,0.599715,,,,,,,,0.599715,1,,,,,,57,WORD,"ID",33,change,CHANGE,m,,,,,,-0.055786133,-0.405376519,0,0,0,,0,94,94,56,1,
,,,,,,,,,,,,,,,,,,5eadaff848b26f4483ae62d9,2020-11-27_15h01.07.252,lexical_decision_task_MP_exp2,2020.2.5,MacIntel,60,,z,1,0.547735,,,,,,,,0.547735,1,,,,,,326,NW,"ID",16,iguade,IGUADE,z,,,,,,-0.055786133,-0.405376519,0,0,0,,0,95,95,325,1,
,,,,,,,,,,,,,,,,,,5eadaff848b26f4483ae62d9,2020-11-27_15h01.07.252,lexical_decision_task_MP_exp2,2020.2.5,MacIntel,60,,m,1,0.87269,,,,,,,,0.87269,1,,,,,,84,WORD,"ID",16,mortal,MORTAL,m,,,,,,-0.055786133,-0.405376519,0,0,0,,0,96,96,83,1,
,,,,,,,,,,,,,,,,,,5eadaff848b26f4483ae62d9,2020-11-27_15h01.07.252,lexical_decision_task_MP_exp2,2020.2.5,MacIntel,60,,m,1,0.638345,,,,,,,,0.638345,1,,,,,,50,WORD,"ID",33,snatch,SNATCH,m,,,,,,-0.055786133,-0.405376519,0,0,0,,0,97,97,49,1,
,,,,,,,,,,,,,,,,,,5eadaff848b26f4483ae62d9,2020-11-27_15h01.07.252,lexical_decision_task_MP_exp2,2020.2.5,MacIntel,60,,m,1,0.61634,,,,,,,,0.61634,1,,,,,,110,WORD,"ID",16,polite,POLITE,m,,,,,,-0.055786133,-0.405376519,0,0,0,,0,98,98,109,1,
,,,,,,,,,,,,,,,,,,5eadaff848b26f4483ae62d9,2020-11-27_15h01.07.252,lexical_decision_task_MP_exp2,2020.2.5,MacIntel,60,,z,1,1.156675,,,,,,,,1.156675,1,,,,,,452,NW,UN,16,bolvis,SURDEN,z,,,,,,-0.055786133,-0.405376519,0,0,0,,0,99,99,451,1,
,,,,,,,,,,,,,,,,,,5eadaff848b26f4483ae62d9,2020-11-27_15h01.07.252,lexical_decision_task_MP_exp2,2020.2.5,MacIntel,60,,m,1,0.470445,,,,,,,,0.470445,1,,,,,,237,WORD,UN,16,seldom,POSTER,m,,,,,,-0.055786133,-0.405376519,0,0,0,,0,100,100,236,1,
,,,,,,,,,,,,,,,,,,5eadaff848b26f4483ae62d9,2020-11-27_15h01.07.252,lexical_decision_task_MP_exp2,2020.2.5,MacIntel,60,,z,1,0.549815,,,,,,,,0.549815,1,,,,,,300,NW,"ID",33,yarion,YARION,z,,,,,,-0.055786133,-0.405376519,0,0,0,,0,101,101,299,1,
,,,,,,,,,,,,,,,,,,5eadaff848b26f4483ae62d9,2020-11-27_15h01.07.252,lexical_decision_task_MP_exp2,2020.2.5,MacIntel,60,,m,1,0.63273,,,,,,,,0.63273,1,,,,,,213,WORD,UN,16,intake,SQUEAL,m,,,,,,-0.055786133,-0.405376519,0,0,0,,0,102,102,212,1,
,,,,,,,,,,,,,,,,,,5eadaff848b26f4483ae62d9,2020-11-27_15h01.07.252,lexical_decision_task_MP_exp2,2020.2.5,MacIntel,60,,z,1,0.638075,,,,,,,,0.638075,1,,,,,,330,NW,"ID",16,kensom,KENSOM,z,,,,,,-0.055786133,-0.405376519,0,0,0,,0,103,103,329,1,
,,,,,,,,,,,,,,,,,,5eadaff848b26f4483ae62d9,2020-11-27_15h01.07.252,lexical_decision_task_MP_exp2,2020.2.5,MacIntel,60,,m,1,0.79938,,,,,,,,0.79938,1,,,,,,30,WORD,"ID",33,orient,ORIENT,m,,,,,,-0.055786133,-0.405376519,0,0,0,,0,104,104,29,1,
,,,,,,,,,,,,,,,,,,5eadaff848b26f4483ae62d9,2020-11-27_15h01.07.252,lexical_decision_task_MP_exp2,2020.2.5,MacIntel,60,,m,1,0.62168,,,,,,,,0.62168,1,,,,,,101,WORD,"ID",16,wrench,WRENCH,m,,,,,,-0.055786133,-0.405376519,0,0,0,,0,105,105,100,1,
,,,,,,,,,,,,,,,,,,5eadaff848b26f4483ae62d9,2020-11-27_15h01.07.252,lexical_decision_task_MP_exp2,2020.2.5,MacIntel,60,,z,1,0.72396,,,,,,,,0.72396,1,,,,,,338,NW,"ID",16,wreash,WREASH,z,,,,,,-0.055786133,-0.405376519,0,0,0,,0,106,106,337,1,
,,,,,,,,,,,,,,,,,,5eadaff848b26f4483ae62d9,2020-11-27_15h01.07.252,lexical_decision_task_MP_exp2,2020.2.5,MacIntel,60,,z,1,0.617155,,,,,,,,0.617155,1,,,,,,477,NW,UN,16,acrise,PHOTIE,z,,,,,,-0.055786133,-0.405376519,0,0,0,,0,107,107,476,1,
,,,,,,,,,,,,,,,,,,5eadaff848b26f4483ae62d9,2020-11-27_15h01.07.252,lexical_decision_task_MP_exp2,2020.2.5,MacIntel,60,,m,1,0.498955,,,,,,,,0.498955,1,,,,,,104,WORD,"ID",16,studio,STUDIO,m,,,,,,-0.055786133,-0.405376519,0,0,0,,0,108,108,103,1,
,,,,,,,,,,,,,,,,,,5eadaff848b26f4483ae62d9,2020-11-27_15h01.07.252,lexical_decision_task_MP_exp2,2020.2.5,MacIntel,60,,m,1,0.58331,,,,,,,,0.58331,1,,,,,,216,WORD,UN,16,liquor,BEHALF,m,,,,,,-0.055786133,-0.405376519,0,0,0,,0,109,109,215,1,
,,,,,,,,,,,,,,,,,,5eadaff848b26f4483ae62d9,2020-11-27_15h01.07.252,lexical_decision_task_MP_exp2,2020.2.5,MacIntel,60,,z,1,0.816285,,,,,,,,0.816285,1,,,,,,402,NW,UN,33,bruats,SYNTIC,z,,,,,,-0.055786133,-0.405376519,0,0,0,,0,110,110,401,1,
,,,,,,,,,,,,,,,,,,5eadaff848b26f4483ae62d9,2020-11-27_15h01.07.252,lexical_decision_task_MP_exp2,2020.2.5,MacIntel,60,,m,1,0.78326,,,,,,,,0.78326,1,,,,,,179,WORD,UN,33,silent,BASKET,m,,,,,,-0.055786133,-0.405376519,0,0,0,,0,111,111,178,1,
,,,,,,,,,,,,,,,,,,5eadaff848b26f4483ae62d9,2020-11-27_15h01.07.252,lexical_decision_task_MP_exp2,2020.2.5,MacIntel,60,,m,1,0.61685,,,,,,,,0.61685,1,,,,,,8,WORD,"ID",33,abrupt,ABRUPT,m,,,,,,-0.055786133,-0.405376519,0,0,0,,0,112,112,7,1,
,,,,,,,,,,,,,,,,,,5eadaff848b26f4483ae62d9,2020-11-27_15h01.07.252,lexical_decision_task_MP_exp2,2020.2.5,MacIntel,60,,m,1,0.63714,,,,,,,,0.63714,1,,,,,,167,WORD,UN,33,answer,DESIGN,m,,,,,,-0.055786133,-0.405376519,0,0,0,,0,113,113,166,1,
,,,,,,,,,,,,,,,,,,5eadaff848b26f4483ae62d9,2020-11-27_15h01.07.252,lexical_decision_task_MP_exp2,2020.2.5,MacIntel,60,,m,1,0.66728,,,,,,,,0.66728,1,,,,,,208,WORD,UN,16,search,HOCKEY,m,,,,,,-0.055786133,-0.405376519,0,0,0,,0,114,114,207,1,
,,,,,,,,,,,,,,,,,,5eadaff848b26f4483ae62d9,2020-11-27_15h01.07.252,lexical_decision_task_MP_exp2,2020.2.5,MacIntel,60,,m,1,0.58508,,,,,,,,0.58508,1,,,,,,39,WORD,"ID",33,insect,INSECT,m,,,,,,-0.055786133,-0.405376519,0,0,0,,0,115,115,38,1,
,,,,,,,,,,,,,,,,,,5eadaff848b26f4483ae62d9,2020-11-27_15h01.07.252,lexical_decision_task_MP_exp2,2020.2.5,MacIntel,60,,m,1,0.55002,,,,,,,,0.55002,1,,,,,,80,WORD,"ID",16,family,FAMILY,m,,,,,,-0.055786133,-0.405376519,0,0,0,,0,116,116,79,1,
,,,,,,,,,,,,,,,,,,5eadaff848b26f4483ae62d9,2020-11-27_15h01.07.252,lexical_decision_task_MP_exp2,2020.2.5,MacIntel,60,,m,1,0.68666,,,,,,,,0.68666,1,,,,,,184,WORD,UN,16,bother,SLEAZY,m,,,,,,-0.055786133,-0.405376519,0,0,0,,0,117,117,183,1,
,,,,,,,,,,,,,,,,,,5eadaff848b26f4483ae62d9,2020-11-27_15h01.07.252,lexical_decision_task_MP_exp2,2020.2.5,MacIntel,60,,z,1,0.5328,,,,,,,,0.5328,1,,,,,,346,NW,"ID",16,saudic,SAUDIC,z,,,,,,-0.055786133,-0.405376519,0,0,0,,0,118,118,345,1,
,,,,,,,,,,,,,,,,,,5eadaff848b26f4483ae62d9,2020-11-27_15h01.07.252,lexical_decision_task_MP_exp2,2020.2.5,MacIntel,60,,z,1,0.602055,,,,,,,,0.602055,1,,,,,,390,NW,UN,33,theldy,HATRUS,z,,,,,,-0.055786133,-0.405376519,0,0,0,,0,119,119,389,1,
,,,,,,,,,,,,,,,,,,5eadaff848b26f4483ae62d9,2020-11-27_15h01.07.252,lexical_decision_task_MP_exp2,2020.2.5,MacIntel,60,,m,1,0.76689,,,,,,,,0.76689,1,,,,,,83,WORD,"ID",16,result,RESULT,m,,,,,,-0.053068034,-0.41081543,0,0,0,space,0,120,120,82,1,68.14949
,,,,,,,,,,,,,,,,,,5eadaff848b26f4483ae62d9,2020-11-27_15h01.07.252,lexical_decision_task_MP_exp2,2020.2.5,MacIntel,60,,z,1,0.55121,,,,,,,,0.55121,1,,,,,,241,NW,"ID",33,smenco,SMENCO,z,,,,,,-0.053068034,-0.41081543,0,0,0,,0,121,121,240,1,
,,,,,,,,,,,,,,,,,,5eadaff848b26f4483ae62d9,2020-11-27_15h01.07.252,lexical_decision_task_MP_exp2,2020.2.5,MacIntel,60,,z,1,0.651075,,,,,,,,0.651075,1,,,,,,262,NW,"ID",33,quilew,QUILEW,z,,,,,,-0.053068034,-0.41081543,0,0,0,,0,122,122,261,1,
,,,,,,,,,,,,,,,,,,5eadaff848b26f4483ae62d9,2020-11-27_15h01.07.252,lexical_decision_task_MP_exp2,2020.2.5,MacIntel,60,,m,1,0.682595,,,,,,,,0.682595,1,,,,,,135,WORD,UN,33,chrome,IMPORT,m,,,,,,-0.053068034,-0.41081543,0,0,0,,0,123,123,134,1,
,,,,,,,,,,,,,,,,,,5eadaff848b26f4483ae62d9,2020-11-27_15h01.07.252,lexical_decision_task_MP_exp2,2020.2.5,MacIntel,60,,z,1,0.541075,,,,,,,,0.541075,1,,,,,,438,NW,UN,16,limpor,BAITCH,z,,,,,,-0.053068034,-0.41081543,0,0,0,,0,124,124,437,1,
,,,,,,,,,,,,,,,,,,5eadaff848b26f4483ae62d9,2020-11-27_15h01.07.252,lexical_decision_task_MP_exp2,2020.2.5,MacIntel,60,,m,1,0.616535,,,,,,,,0.616535,1,,,,,,232,WORD,UN,16,nature,INJECT,m,,,,,,-0.053068034,-0.41081543,0,0,0,,0,125,125,231,1,
,,,,,,,,,,,,,,,,,,5eadaff848b26f4483ae62d9,2020-11-27_15h01.07.252,lexical_decision_task_MP_exp2,2020.2.5,MacIntel,60,,m,1,0.69988,,,,,,,,0.69988,1,,,,,,105,WORD,"ID",16,number,NUMBER,m,,,,,,-0.053068034,-0.41081543,0,0,0,,0,126,126,104,1,
,,,,,,,,,,,,,,,,,,5eadaff848b26f4483ae62d9,2020-11-27_15h01.07.252,lexical_decision_task_MP_exp2,2020.2.5,MacIntel,60,,m,1,0.60461,,,,,,,,0.60461,1,,,,,,180,WORD,UN,33,thrive,SILENT,m,,,,,,-0.053068034,-0.41081543,0,0,0,,0,127,127,179,1,
,,,,,,,,,,,,,,,,,,5eadaff848b26f4483ae62d9,2020-11-27_15h01.07.252,lexical_decision_task_MP_exp2,2020.2.5,MacIntel,60,,m,1,0.790815,,,,,,,,0.790815,1,,,,,,5,WORD,"ID",33,plunge,PLUNGE,m,,,,,,-0.053068034,-0.41081543,0,0,0,,0,128,128,4,1,
,,,,,,,,,,,,,,,,,,5eadaff848b26f4483ae62d9,2020-11-27_15h01.07.252,lexical_decision_task_MP_exp2,2020.2.5,MacIntel,60,,z,1,0.51723,,,,,,,,0.51723,1,,,,,,352,NW,"ID",16,tringe,TRINGE,z,,,,,,-0.053068034,-0.41081543,0,0,0,,0,129,129,351,1,
,,,,,,,,,,,,,,,,,,5eadaff848b26f4483ae62d9,2020-11-27_15h01.07.252,lexical_decision_task_MP_exp2,2020.2.5,MacIntel,60,,m,1,0.53252,,,,,,,,0.53252,1,,,,,,19,WORD,"ID",33,patron,PATRON,m,,,,,,-0.053068034,-0.41081543,0,0,0,,0,130,130,18,1,
,,,,,,,,,,,,,,,,,,5eadaff848b26f4483ae62d9,2020-11-27_15h01.07.252,lexical_decision_task_MP_exp2,2020.2.5,MacIntel,60,,z,1,0.6161,,,,,,,,0.6161,1,,,,,,276,NW,"ID",33,yarmon,YARMON,z,,,,,,-0.053068034,-0.41081543,0,0,0,,0,131,131,275,1,
,,,,,,,,,,,,,,,,,,5eadaff848b26f4483ae62d9,2020-11-27_15h01.07.252,lexical_decision_task_MP_exp2,2020.2.5,MacIntel,60,,z,1,0.63305,,,,,,,,0.63305,1,,,,,,317,NW,"ID",16,worbal,WORBAL,z,,,,,,-0.053068034,-0.41081543,0,0,0,,0,132,132,316,1,
,,,,,,,,,,,,,,,,,,5eadaff848b26f4483ae62d9,2020-11-27_15h01.07.252,lexical_decision_task_MP_exp2,2020.2.5,MacIntel,60,,z,1,0.5505,,,,,,,,0.5505,1,,,,,,252,NW,"ID",33,stapod,STAPOD,z,,,,,,-0.053068034,-0.41081543,0,0,0,,0,133,133,251,1,
,,,,,,,,,,,,,,,,,,5eadaff848b26f4483ae62d9,2020-11-27_15h01.07.252,lexical_decision_task_MP_exp2,2020.2.5,MacIntel,60,,z,1,0.61594,,,,,,,,0.61594,1,,,,,,416,NW,UN,33,earoud,PATHEL,z,,,,,,-0.053068034,-0.41081543,0,0,0,,0,134,134,415,1,
,,,,,,,,,,,,,,,,,,5eadaff848b26f4483ae62d9,2020-11-27_15h01.07.252,lexical_decision_task_MP_exp2,2020.2.5,MacIntel,60,,m,1,0.56643,,,,,,,,0.56643,1,,,,,,196,WORD,UN,16,stream,CREDIT,m,,,,,,-0.053068034,-0.41081543,0,0,0,,0,135,135,195,1,
,,,,,,,,,,,,,,,,,,5eadaff848b26f4483ae62d9,2020-11-27_15h01.07.252,lexical_decision_task_MP_exp2,2020.2.5,MacIntel,60,,m,1,0.717125,,,,,,,,0.717125,1,,,,,,120,WORD,"ID",16,strain,STRAIN,m,,,,,,-0.053068034,-0.41081543,0,0,0,,0,136,136,119,1,
,,,,,,,,,,,,,,,,,,5eadaff848b26f4483ae62d9,2020-11-27_15h01.07.252,lexical_decision_task_MP_exp2,2020.2.5,MacIntel,60,,m,1,0.58424,,,,,,,,0.58424,1,,,,,,223,WORD,UN,16,period,KIDNEY,m,,,,,,-0.053068034,-0.41081543,0,0,0,,0,137,137,222,1,
,,,,,,,,,,,,,,,,,,5eadaff848b26f4483ae62d9,2020-11-27_15h01.07.252,lexical_decision_task_MP_exp2,2020.2.5,MacIntel,60,,m,1,0.68151,,,,,,,,0.68151,1,,,,,,74,WORD,"ID",16,plaque,PLAQUE,m,,,,,,-0.053068034,-0.41081543,0,0,0,,0,138,138,73,1,
,,,,,,,,,,,,,,,,,,5eadaff848b26f4483ae62d9,2020-11-27_15h01.07.252,lexical_decision_task_MP_exp2,2020.2.5,MacIntel,60,,z,1,0.617315,,,,,,,,0.617315,1,,,,,,367,NW,UN,33,hornal,SLIQUE,z,,,,,,-0.053068034,-0.41081543,0,0,0,,0,139,139,366,1,
,,,,,,,,,,,,,,,,,,5eadaff848b26f4483ae62d9,2020-11-27_15h01.07.252,lexical_decision_task_MP_exp2,2020.2.5,MacIntel,60,,m,1,0.79979,,,,,,,,0.79979,1,,,,,,161,WORD,UN,33,candle,PASTOR,m,,,,,,-0.053068034,-0.41081543,0,0,0,,0,140,140,160,1,
,,,,,,,,,,,,,,,,,,5eadaff848b26f4483ae62d9,2020-11-27_15h01.07.252,lexical_decision_task_MP_exp2,2020.2.5,MacIntel,60,,z,1,0.58366,,,,,,,,0.58366,1,,,,,,424,NW,UN,16,urivel,PRAILE,z,,,,,,-0.053068034,-0.41081543,0,0,0,,0,141,141,423,1,
,,,,,,,,,,,,,,,,,,5eadaff848b26f4483ae62d9,2020-11-27_15h01.07.252,lexical_decision_task_MP_exp2,2020.2.5,MacIntel,60,,z,1,0.80784,,,,,,,,0.80784,1,,,,,,322,NW,"ID",16,slanch,SLANCH,z,,,,,,-0.053068034,-0.41081543,0,0,0,,0,142,142,321,1,
,,,,,,,,,,,,,,,,,,5eadaff848b26f4483ae62d9,2020-11-27_15h01.07.252,lexical_decision_task_MP_exp2,2020.2.5,MacIntel,60,,z,1,0.823685,,,,,,,,0.823685,1,,,,,,250,NW,"ID",33,milted,MILTED,z,,,,,,-0.053068034,-0.41081543,0,0,0,,0,143,143,249,1,
,,,,,,,,,,,,,,,,,,5eadaff848b26f4483ae62d9,2020-11-27_15h01.07.252,lexical_decision_task_MP_exp2,2020.2.5,MacIntel,60,,m,1,0.867695,,,,,,,,0.867695,1,,,,,,206,WORD,UN,16,wreath,TAILOR,m,,,,,,-0.053068034,-0.41081543,0,0,0,,0,144,144,205,1,
,,,,,,,,,,,,,,,,,,5eadaff848b26f4483ae62d9,2020-11-27_15h01.07.252,lexical_decision_task_MP_exp2,2020.2.5,MacIntel,60,,z,1,0.683285,,,,,,,,0.683285,1,,,,,,303,NW,"ID",16,fiream,FIREAM,z,,,,,,-0.053068034,-0.41081543,0,0,0,,0,145,145,302,1,
,,,,,,,,,,,,,,,,,,5eadaff848b26f4483ae62d9,2020-11-27_15h01.07.252,lexical_decision_task_MP_exp2,2020.2.5,MacIntel,60,,m,1,1.205205,,,,,,,,1.205205,1,,,,,,94,WORD,"ID",16,travel,TRAVEL,m,,,,,,-0.053068034,-0.41081543,0,0,0,,0,146,146,93,1,
,,,,,,,,,,,,,,,,,,5eadaff848b26f4483ae62d9,2020-11-27_15h01.07.252,lexical_decision_task_MP_exp2,2020.2.5,MacIntel,60,,z,1,0.602595,,,,,,,,0.602595,1,,,,,,280,NW,"ID",33,curbol,CURBOL,z,,,,,,-0.053068034,-0.41081543,0,0,0,,0,147,147,279,1,
,,,,,,,,,,,,,,,,,,5eadaff848b26f4483ae62d9,2020-11-27_15h01.07.252,lexical_decision_task_MP_exp2,2020.2.5,MacIntel,60,,z,1,0.65042,,,,,,,,0.65042,1,,,,,,311,NW,"ID",16,sproly,SPROLY,z,,,,,,-0.053068034,-0.41081543,0,0,0,,0,148,148,310,1,
,,,,,,,,,,,,,,,,,,5eadaff848b26f4483ae62d9,2020-11-27_15h01.07.252,lexical_decision_task_MP_exp2,2020.2.5,MacIntel,60,,m,1,0.67346,,,,,,,,0.67346,1,,,,,,100,WORD,"ID",16,carbon,CARBON,m,,,,,,-0.053068034,-0.41081543,0,0,0,,0,149,149,99,1,
,,,,,,,,,,,,,,,,,,5eadaff848b26f4483ae62d9,2020-11-27_15h01.07.252,lexical_decision_task_MP_exp2,2020.2.5,MacIntel,60,,m,1,0.538095,,,,,,,,0.538095,1,,,,,,58,WORD,"ID",33,foster,FOSTER,m,,,,,,-0.053068034,-0.41081543,0,0,0,,0,150,150,57,1,
,,,,,,,,,,,,,,,,,,5eadaff848b26f4483ae62d9,2020-11-27_15h01.07.252,lexical_decision_task_MP_exp2,2020.2.5,MacIntel,60,,m,1,0.720725,,,,,,,,0.720725,1,,,,,,46,WORD,"ID",33,single,SINGLE,m,,,,,,-0.053068034,-0.41081543,0,0,0,,0,151,151,45,1,
,,,,,,,,,,,,,,,,,,5eadaff848b26f4483ae62d9,2020-11-27_15h01.07.252,lexical_decision_task_MP_exp2,2020.2.5,MacIntel,60,,z,1,0.577235,,,,,,,,0.577235,1,,,,,,382,NW,UN,33,aungre,SARLEY,z,,,,,,-0.053068034,-0.41081543,0,0,0,,0,152,152,381,1,
,,,,,,,,,,,,,,,,,,5eadaff848b26f4483ae62d9,2020-11-27_15h01.07.252,lexical_decision_task_MP_exp2,2020.2.5,MacIntel,60,,m,1,0.53295,,,,,,,,0.53295,1,,,,,,95,WORD,"ID",16,thread,THREAD,m,,,,,,-0.053068034,-0.41081543,0,0,0,,0,153,153,94,1,
,,,,,,,,,,,,,,,,,,5eadaff848b26f4483ae62d9,2020-11-27_15h01.07.252,lexical_decision_task_MP_exp2,2020.2.5,MacIntel,60,,m,1,0.51644,,,,,,,,0.51644,1,,,,,,42,WORD,"ID",33,chapel,CHAPEL,m,,,,,,-0.053068034,-0.41081543,0,0,0,,0,154,154,41,1,
,,,,,,,,,,,,,,,,,,5eadaff848b26f4483ae62d9,2020-11-27_15h01.07.252,lexical_decision_task_MP_exp2,2020.2.5,MacIntel,60,,m,1,0.600015,,,,,,,,0.600015,1,,,,,,73,WORD,"ID",16,source,SOURCE,m,,,,,,-0.053068034,-0.41081543,0,0,0,,0,155,155,72,1,
,,,,,,,,,,,,,,,,,,5eadaff848b26f4483ae62d9,2020-11-27_15h01.07.252,lexical_decision_task_MP_exp2,2020.2.5,MacIntel,60,,z,1,0.547825,,,,,,,,0.547825,1,,,,,,349,NW,"ID",16,asylen,ASYLEN,z,,,,,,-0.053068034,-0.41081543,0,0,0,,0,156,156,348,1,
,,,,,,,,,,,,,,,,,,5eadaff848b26f4483ae62d9,2020-11-27_15h01.07.252,lexical_decision_task_MP_exp2,2020.2.5,MacIntel,60,,z,1,0.78374,,,,,,,,0.78374,1,,,,,,302,NW,"ID",16,miluer,MILUER,z,,,,,,-0.053068034,-0.41081543,0,0,0,,0,157,157,301,1,
,,,,,,,,,,,,,,,,,,5eadaff848b26f4483ae62d9,2020-11-27_15h01.07.252,lexical_decision_task_MP_exp2,2020.2.5,MacIntel,60,,m,1,0.666665,,,,,,,,0.666665,1,,,,,,160,WORD,UN,33,dragon,VIOLET,m,,,,,,-0.053068034,-0.41081543,0,0,0,,0,158,158,159,1,
,,,,,,,,,,,,,,,,,,5eadaff848b26f4483ae62d9,2020-11-27_15h01.07.252,lexical_decision_task_MP_exp2,2020.2.5,MacIntel,60,,z,1,0.866805,,,,,,,,0.866805,1,,,,,,428,NW,UN,16,chrums,TANDLY,z,,,,,,-0.053068034,-0.41081543,0,0,0,,0,159,159,427,1,
,,,,,,,,,,,,,,,,,,5eadaff848b26f4483ae62d9,2020-11-27_15h01.07.252,lexical_decision_task_MP_exp2,2020.2.5,MacIntel,60,,m,1,0.59948,,,,,,,,0.59948,1,,,,,,171,WORD,UN,33,patrol,DEPART,m,,,,,,-0.053068034,-0.41081543,0,0,0,,0,160,160,170,1,
,,,,,,,,,,,,,,,,,,5eadaff848b26f4483ae62d9,2020-11-27_15h01.07.252,lexical_decision_task_MP_exp2,2020.2.5,MacIntel,60,,z,1,0.67074,,,,,,,,0.67074,1,,,,,,423,NW,UN,16,praile,STRELD,z,,,,,,-0.053068034,-0.41081543,0,0,0,,0,161,161,422,1,
,,,,,,,,,,,,,,,,,,5eadaff848b26f4483ae62d9,2020-11-27_15h01.07.252,lexical_decision_task_MP_exp2,2020.2.5,MacIntel,60,,z,1,0.78462,,,,,,,,0.78462,1,,,,,,261,NW,"ID",33,stunch,STUNCH,z,,,,,,-0.053068034,-0.41081543,0,0,0,,0,162,162,260,1,
,,,,,,,,,,,,,,,,,,5eadaff848b26f4483ae62d9,2020-11-27_15h01.07.252,lexical_decision_task_MP_exp2,2020.2.5,MacIntel,60,,m,1,0.587705,,,,,,,,0.587705,1,,,,,,229,WORD,UN,16,fringe,MOTHER,m,,,,,,-0.053068034,-0.41081543,0,0,0,,0,163,163,228,1,
,,,,,,,,,,,,,,,,,,5eadaff848b26f4483ae62d9,2020-11-27_15h01.07.252,lexical_decision_task_MP_exp2,2020.2.5,MacIntel,60,,z,1,0.570115,,,,,,,,0.570115,1,,,,,,404,NW,UN,33,syntic,CLUIRM,z,,,,,,-0.053068034,-0.41081543,0,0,0,,0,164,164,403,1,
,,,,,,,,,,,,,,,,,,5eadaff848b26f4483ae62d9,2020-11-27_15h01.07.252,lexical_decision_task_MP_exp2,2020.2.5,MacIntel,60,,z,1,0.552265,,,,,,,,0.552265,1,,,,,,413,NW,UN,33,serbol,EQUATS,z,,,,,,-0.053068034,-0.41081543,0,0,0,,0,165,165,412,1,
,,,,,,,,,,,,,,,,,,5eadaff848b26f4483ae62d9,2020-11-27_15h01.07.252,lexical_decision_task_MP_exp2,2020.2.5,MacIntel,60,,m,1,0.559155,,,,,,,,0.559155,1,,,,,,151,WORD,UN,33,rocket,MYSTIC,m,,,,,,-0.053068034,-0.41081543,0,0,0,,0,166,166,150,1,
,,,,,,,,,,,,,,,,,,5eadaff848b26f4483ae62d9,2020-11-27_15h01.07.252,lexical_decision_task_MP_exp2,2020.2.5,MacIntel,60,,m,1,0.46711,,,,,,,,0.46711,1,,,,,,190,WORD,UN,16,stable,BACKUP,m,,,,,,-0.053068034,-0.41081543,0,0,0,,0,167,167,189,1,
,,,,,,,,,,,,,,,,,,5eadaff848b26f4483ae62d9,2020-11-27_15h01.07.252,lexical_decision_task_MP_exp2,2020.2.5,MacIntel,60,,m,1,0.550335,,,,,,,,0.550335,1,,,,,,25,WORD,"ID",33,domain,DOMAIN,m,,,,,,-0.053068034,-0.41081543,0,0,0,,0,168,168,24,1,
,,,,,,,,,,,,,,,,,,5eadaff848b26f4483ae62d9,2020-11-27_15h01.07.252,lexical_decision_task_MP_exp2,2020.2.5,MacIntel,60,,z,1,0.61688,,,,,,,,0.61688,1,,,,,,431,NW,UN,16,lunker,CHRUMS,z,,,,,,-0.053068034,-0.41081543,0,0,0,,0,169,169,430,1,
,,,,,,,,,,,,,,,,,,5eadaff848b26f4483ae62d9,2020-11-27_15h01.07.252,lexical_decision_task_MP_exp2,2020.2.5,MacIntel,60,,z,1,0.68918,,,,,,,,0.68918,1,,,,,,405,NW,UN,33,nouply,FLUMNI,z,,,,,,-0.053068034,-0.41081543,0,0,0,,0,170,170,404,1,
,,,,,,,,,,,,,,,,,,5eadaff848b26f4483ae62d9,2020-11-27_15h01.07.252,lexical_decision_task_MP_exp2,2020.2.5,MacIntel,60,,m,1,0.63407,,,,,,,,0.63407,1,,,,,,140,WORD,UN,33,reason,PRINCE,m,,,,,,-0.053068034,-0.41081543,0,0,0,,0,171,171,139,1,
,,,,,,,,,,,,,,,,,,5eadaff848b26f4483ae62d9,2020-11-27_15h01.07.252,lexical_decision_task_MP_exp2,2020.2.5,MacIntel,60,,m,1,0.59381,,,,,,,,0.59381,1,,,,,,156,WORD,UN,33,pastor,CRADLE,m,,,,,,-0.053068034,-0.41081543,0,0,0,,0,172,172,155,1,
,,,,,,,,,,,,,,,,,,5eadaff848b26f4483ae62d9,2020-11-27_15h01.07.252,lexical_decision_task_MP_exp2,2020.2.5,MacIntel,60,,m,1,0.71594,,,,,,,,0.71594,1,,,,,,52,WORD,"ID",33,impose,IMPOSE,m,,,,,,-0.053068034,-0.41081543,0,0,0,,0,173,173,51,1,
,,,,,,,,,,,,,,,,,,5eadaff848b26f4483ae62d9,2020-11-27_15h01.07.252,lexical_decision_task_MP_exp2,2020.2.5,MacIntel,60,,m,1,0.51904,,,,,,,,0.51904,1,,,,,,12,WORD,"ID",33,orange,ORANGE,m,,,,,,-0.053068034,-0.41081543,0,0,0,,0,174,174,11,1,
,,,,,,,,,,,,,,,,,,5eadaff848b26f4483ae62d9,2020-11-27_15h01.07.252,lexical_decision_task_MP_exp2,2020.2.5,MacIntel,60,,z,1,0.818095,,,,,,,,0.818095,1,,,,,,408,NW,UN,33,flumni,HURNIA,z,,,,,,-0.053068034,-0.41081543,0,0,0,,0,175,175,407,1,
,,,,,,,,,,,,,,,,,,5eadaff848b26f4483ae62d9,2020-11-27_15h01.07.252,lexical_decision_task_MP_exp2,2020.2.5,MacIntel,60,,m,1,0.632815,,,,,,,,0.632815,1,,,,,,164,WORD,UN,33,invest,MARKET,m,,,,,,-0.053068034,-0.41081543,0,0,0,,0,176,176,163,1,
,,,,,,,,,,,,,,,,,,5eadaff848b26f4483ae62d9,2020-11-27_15h01.07.252,lexical_decision_task_MP_exp2,2020.2.5,MacIntel,60,,m,1,0.55063,,,,,,,,0.55063,1,,,,,,28,WORD,"ID",33,comedy,COMEDY,m,,,,,,-0.053068034,-0.41081543,0,0,0,,0,177,177,27,1,
,,,,,,,,,,,,,,,,,,5eadaff848b26f4483ae62d9,2020-11-27_15h01.07.252,lexical_decision_task_MP_exp2,2020.2.5,MacIntel,60,,z,1,1.04984,,,,,,,,1.04984,1,,,,,,445,NW,UN,16,runamo,MINKEL,z,,,,,,-0.053068034,-0.41081543,0,0,0,,0,178,178,444,1,
,,,,,,,,,,,,,,,,,,5eadaff848b26f4483ae62d9,2020-11-27_15h01.07.252,lexical_decision_task_MP_exp2,2020.2.5,MacIntel,60,,z,1,0.884555,,,,,,,,0.884555,1,,,,,,439,NW,UN,16,saride,LIMPOR,z,,,,,,-0.053068034,-0.41081543,0,0,0,,0,179,179,438,1,
,,,,,,,,,,,,,,,,,,5eadaff848b26f4483ae62d9,2020-11-27_15h01.07.252,lexical_decision_task_MP_exp2,2020.2.5,MacIntel,60,,z,1,0.600505,,,,,,,,0.600505,1,,,,,,444,NW,UN,16,minkel,JAUNCE,z,,,,,,-0.053068034,-0.41081543,0,0,0,,0,180,180,443,1,
,,,,,,,,,,,,,,,,,,5eadaff848b26f4483ae62d9,2020-11-27_15h01.07.252,lexical_decision_task_MP_exp2,2020.2.5,MacIntel,60,,m,1,0.621235,,,,,,,,0.621235,1,,,,,,56,WORD,"ID",33,ambush,AMBUSH,m,,,,,,-0.053068034,-0.41081543,0,0,0,,0,181,181,55,1,
,,,,,,,,,,,,,,,,,,5eadaff848b26f4483ae62d9,2020-11-27_15h01.07.252,lexical_decision_task_MP_exp2,2020.2.5,MacIntel,60,,z,1,0.802865,,,,,,,,0.802865,1,,,,,,249,NW,"ID",33,batrol,BATROL,z,,,,,,-0.053068034,-0.41081543,0,0,0,,0,182,182,248,1,
,,,,,,,,,,,,,,,,,,5eadaff848b26f4483ae62d9,2020-11-27_15h01.07.252,lexical_decision_task_MP_exp2,2020.2.5,MacIntel,60,,z,1,0.55532,,,,,,,,0.55532,1,,,,,,321,NW,"ID",16,miator,MIATOR,z,,,,,,-0.053068034,-0.41081543,0,0,0,,0,183,183,320,1,
,,,,,,,,,,,,,,,,,,5eadaff848b26f4483ae62d9,2020-11-27_15h01.07.252,lexical_decision_task_MP_exp2,2020.2.5,MacIntel,60,,z,1,0.519885,,,,,,,,0.519885,1,,,,,,447,NW,UN,16,sadent,GIRCUE,z,,,,,,-0.053068034,-0.41081543,0,0,0,,0,184,184,446,1,
,,,,,,,,,,,,,,,,,,5eadaff848b26f4483ae62d9,2020-11-27_15h01.07.252,lexical_decision_task_MP_exp2,2020.2.5,MacIntel,60,,m,1,0.67692,,,,,,,,0.67692,1,,,,,,170,WORD,UN,33,depart,POUNCE,m,,,,,,-0.053068034,-0.41081543,0,0,0,,0,185,185,169,1,
,,,,,,,,,,,,,,,,,,5eadaff848b26f4483ae62d9,2020-11-27_15h01.07.252,lexical_decision_task_MP_exp2,2020.2.5,MacIntel,60,,m,0,0.564415,,,,,,,,0.564415,0,,,,,,345,NW,"ID",16,absend,ABSEND,z,,,,,,-0.053068034,-0.41081543,0,0,0,,0,186,186,344,1,
,,,,,,,,,,,,,,,,,,5eadaff848b26f4483ae62d9,2020-11-27_15h01.07.252,lexical_decision_task_MP_exp2,2020.2.5,MacIntel,60,,,0,,,,,,,,,0.564415,-1,,,,,,242,NW,"ID",33,unwert,UNWERT,z,,,,,,-0.053068034,-0.41081543,0,0,0,,0,187,187,241,1,
,,,,,,,,,,,,,,,,,,5eadaff848b26f4483ae62d9,2020-11-27_15h01.07.252,lexical_decision_task_MP_exp2,2020.2.5,MacIntel,60,,z,1,0.517045,,,,,,,,0.517045,1,,,,,,394,NW,UN,33,colury,SPAQUX,z,,,,,,-0.053068034,-0.41081543,0,0,0,,0,188,188,393,1,
,,,,,,,,,,,,,,,,,,5eadaff848b26f4483ae62d9,2020-11-27_15h01.07.252,lexical_decision_task_MP_exp2,2020.2.5,MacIntel,60,,z,1,0.81276,,,,,,,,0.81276,1,,,,,,248,NW,"ID",33,strole,STROLE,z,,,,,,-0.053068034,-0.41081543,0,0,0,,0,189,189,247,1,
,,,,,,,,,,,,,,,,,,5eadaff848b26f4483ae62d9,2020-11-27_15h01.07.252,lexical_decision_task_MP_exp2,2020.2.5,MacIntel,60,,m,1,0.785365,,,,,,,,0.785365,1,,,,,,176,WORD,UN,33,advent,STRIFE,m,,,,,,-0.053068034,-0.41081543,0,0,0,,0,190,190,175,1,
,,,,,,,,,,,,,,,,,,5eadaff848b26f4483ae62d9,2020-11-27_15h01.07.252,lexical_decision_task_MP_exp2,2020.2.5,MacIntel,60,,m,1,0.58065,,,,,,,,0.58065,1,,,,,,24,WORD,"ID",33,praise,PRAISE,m,,,,,,-0.053068034,-0.41081543,0,0,0,,0,191,191,23,1,
,,,,,,,,,,,,,,,,,,5eadaff848b26f4483ae62d9,2020-11-27_15h01.07.252,lexical_decision_task_MP_exp2,2020.2.5,MacIntel,60,,m,1,0.771205,,,,,,,,0.771205,1,,,,,,16,WORD,"ID",33,faucet,FAUCET,m,,,,,,-0.053068034,-0.41081543,0,0,0,,0,192,192,15,1,
,,,,,,,,,,,,,,,,,,5eadaff848b26f4483ae62d9,2020-11-27_15h01.07.252,lexical_decision_task_MP_exp2,2020.2.5,MacIntel,60,,z,1,0.55833,,,,,,,,0.55833,1,,,,,,412,NW,UN,33,equats,JILUER,z,,,,,,-0.053068034,-0.41081543,0,0,0,,0,193,193,411,1,
,,,,,,,,,,,,,,,,,,5eadaff848b26f4483ae62d9,2020-11-27_15h01.07.252,lexical_decision_task_MP_exp2,2020.2.5,MacIntel,60,,z,1,0.565805,,,,,,,,0.565805,1,,,,,,277,NW,"ID",33,petain,PETAIN,z,,,,,,-0.053068034,-0.41081543,0,0,0,,0,194,194,276,1,
,,,,,,,,,,,,,,,,,,5eadaff848b26f4483ae62d9,2020-11-27_15h01.07.252,lexical_decision_task_MP_exp2,2020.2.5,MacIntel,60,,m,1,0.50275,,,,,,,,0.50275,1,,,,,,123,WORD,UN,33,enough,STRIKE,m,,,,,,-0.053068034,-0.41081543,0,0,0,,0,195,195,122,1,
,,,,,,,,,,,,,,,,,,5eadaff848b26f4483ae62d9,2020-11-27_15h01.07.252,lexical_decision_task_MP_exp2,2020.2.5,MacIntel,60,,z,1,0.787285,,,,,,,,0.787285,1,,,,,,348,NW,"ID",16,dumple,DUMPLE,z,,,,,,-0.053068034,-0.41081543,0,0,0,,0,196,196,347,1,
,,,,,,,,,,,,,,,,,,5eadaff848b26f4483ae62d9,2020-11-27_15h01.07.252,lexical_decision_task_MP_exp2,2020.2.5,MacIntel,60,,m,1,0.54316,,,,,,,,0.54316,1,,,,,,205,WORD,UN,16,tailor,LOUNGE,m,,,,,,-0.053068034,-0.41081543,0,0,0,,0,197,197,204,1,
,,,,,,,,,,,,,,,,,,5eadaff848b26f4483ae62d9,2020-11-27_15h01.07.252,lexical_decision_task_MP_exp2,2020.2.5,MacIntel,60,,m,1,0.517885,,,,,,,,0.517885,1,,,,,,51,WORD,"ID",33,hungry,HUNGRY,m,,,,,,-0.053068034,-0.41081543,0,0,0,,0,198,198,50,1,
,,,,,,,,,,,,,,,,,,5eadaff848b26f4483ae62d9,2020-11-27_15h01.07.252,lexical_decision_task_MP_exp2,2020.2.5,MacIntel,60,,z,1,0.50591,,,,,,,,0.50591,1,,,,,,278,NW,"ID",33,unighs,UNIGHS,z,,,,,,-0.053068034,-0.41081543,0,0,0,,0,199,199,277,1,
,,,,,,,,,,,,,,,,,,5eadaff848b26f4483ae62d9,2020-11-27_15h01.07.252,lexical_decision_task_MP_exp2,2020.2.5,MacIntel,60,,z,1,0.89266,,,,,,,,0.89266,1,,,,,,398,NW,UN,33,fouret,BLUNDE,z,,,,,,-0.053068034,-0.41081543,0,0,0,,0,200,200,397,1,
,,,,,,,,,,,,,,,,,,5eadaff848b26f4483ae62d9,2020-11-27_15h01.07.252,lexical_decision_task_MP_exp2,2020.2.5,MacIntel,60,,z,1,0.55468,,,,,,,,0.55468,1,,,,,,451,NW,UN,16,surden,CAINKY,z,,,,,,-0.053068034,-0.41081543,0,0,0,,0,201,201,450,1,
,,,,,,,,,,,,,,,,,,5eadaff848b26f4483ae62d9,2020-11-27_15h01.07.252,lexical_decision_task_MP_exp2,2020.2.5,MacIntel,60,,z,1,0.63942,,,,,,,,0.63942,1,,,,,,272,NW,"ID",33,damilt,DAMILT,z,,,,,,-0.053068034,-0.41081543,0,0,0,,0,202,202,271,1,
,,,,,,,,,,,,,,,,,,5eadaff848b26f4483ae62d9,2020-11-27_15h01.07.252,lexical_decision_task_MP_exp2,2020.2.5,MacIntel,60,,z,1,0.60026,,,,,,,,0.60026,1,,,,,,329,NW,"ID",16,yarike,YARIKE,z,,,,,,-0.053068034,-0.41081543,0,0,0,,0,203,203,328,1,
,,,,,,,,,,,,,,,,,,5eadaff848b26f4483ae62d9,2020-11-27_15h01.07.252,lexical_decision_task_MP_exp2,2020.2.5,MacIntel,60,,m,1,0.50255,,,,,,,,0.50255,1,,,,,,240,WORD,UN,16,glance,FOREST,m,,,,,,-0.053068034,-0.41081543,0,0,0,,0,204,204,239,1,
,,,,,,,,,,,,,,,,,,5eadaff848b26f4483ae62d9,2020-11-27_15h01.07.252,lexical_decision_task_MP_exp2,2020.2.5,MacIntel,60,,m,1,0.53849,,,,,,,,0.53849,1,,,,,,118,WORD,"ID",16,flight,FLIGHT,m,,,,,,-0.053068034,-0.41081543,0,0,0,,0,205,205,117,1,
,,,,,,,,,,,,,,,,,,5eadaff848b26f4483ae62d9,2020-11-27_15h01.07.252,lexical_decision_task_MP_exp2,2020.2.5,MacIntel,60,,z,1,0.499685,,,,,,,,0.499685,1,,,,,,375,NW,UN,33,iguare,YORQUE,z,,,,,,-0.053068034,-0.41081543,0,0,0,,0,206,206,374,1,
,,,,,,,,,,,,,,,,,,5eadaff848b26f4483ae62d9,2020-11-27_15h01.07.252,lexical_decision_task_MP_exp2,2020.2.5,MacIntel,60,,m,1,0.61582,,,,,,,,0.61582,1,,,,,,69,WORD,"ID",16,plenty,PLENTY,m,,,,,,-0.053068034,-0.41081543,0,0,0,,0,207,207,68,1,
,,,,,,,,,,,,,,,,,,5eadaff848b26f4483ae62d9,2020-11-27_15h01.07.252,lexical_decision_task_MP_exp2,2020.2.5,MacIntel,60,,m,1,0.52176,,,,,,,,0.52176,1,,,,,,187,WORD,UN,16,social,COURSE,m,,,,,,-0.053068034,-0.41081543,0,0,0,,0,208,208,186,1,
,,,,,,,,,,,,,,,,,,5eadaff848b26f4483ae62d9,2020-11-27_15h01.07.252,lexical_decision_task_MP_exp2,2020.2.5,MacIntel,60,,m,1,0.66706,,,,,,,,0.66706,1,,,,,,221,WORD,UN,16,hinder,MASCOT,m,,,,,,-0.053068034,-0.41081543,0,0,0,,0,209,209,220,1,
,,,,,,,,,,,,,,,,,,5eadaff848b26f4483ae62d9,2020-11-27_15h01.07.252,lexical_decision_task_MP_exp2,2020.2.5,MacIntel,60,,z,1,0.532895,,,,,,,,0.532895,1,,,,,,467,NW,UN,16,wictor,GORBIE,z,,,,,,-0.053068034,-0.41081543,0,0,0,,0,210,210,466,1,
,,,,,,,,,,,,,,,,,,5eadaff848b26f4483ae62d9,2020-11-27_15h01.07.252,lexical_decision_task_MP_exp2,2020.2.5,MacIntel,60,,m,1,0.539135,,,,,,,,0.539135,1,,,,,,192,WORD,UN,16,object,PLAGUE,m,,,,,,-0.053068034,-0.41081543,0,0,0,,0,211,211,191,1,
,,,,,,,,,,,,,,,,,,5eadaff848b26f4483ae62d9,2020-11-27_15h01.07.252,lexical_decision_task_MP_exp2,2020.2.5,MacIntel,60,,z,1,0.58469,,,,,,,,0.58469,1,,,,,,437,NW,UN,16,baitch,SNAPEL,z,,,,,,-0.053068034,-0.41081543,0,0,0,,0,212,212,436,1,
,,,,,,,,,,,,,,,,,,5eadaff848b26f4483ae62d9,2020-11-27_15h01.07.252,lexical_decision_task_MP_exp2,2020.2.5,MacIntel,60,,m,1,0.514635,,,,,,,,0.514635,1,,,,,,15,WORD,"ID",33,amount,AMOUNT,m,,,,,,-0.053068034,-0.41081543,0,0,0,,0,213,213,14,1,
,,,,,,,,,,,,,,,,,,5eadaff848b26f4483ae62d9,2020-11-27_15h01.07.252,lexical_decision_task_MP_exp2,2020.2.5,MacIntel,60,,m,1,0.556095,,,,,,,,0.556095,1,,,,,,207,WORD,UN,16,hockey,WREATH,m,,,,,,-0.053068034,-0.41081543,0,0,0,,0,214,214,206,1,
,,,,,,,,,,,,,,,,,,5eadaff848b26f4483ae62d9,2020-11-27_15h01.07.252,lexical_decision_task_MP_exp2,2020.2.5,MacIntel,60,,m,1,0.484585,,,,,,,,0.484585,1,,,,,,3,WORD,"ID",33,knight,KNIGHT,m,,,,,,-0.053068034,-0.41081543,0,0,0,,0,215,215,2,1,
,,,,,,,,,,,,,,,,,,5eadaff848b26f4483ae62d9,2020-11-27_15h01.07.252,lexical_decision_task_MP_exp2,2020.2.5,MacIntel,60,,z,1,0.48642,,,,,,,,0.48642,1,,,,,,355,NW,"ID",16,zingly,ZINGLY,z,,,,,,-0.053068034,-0.41081543,0,0,0,,0,216,216,354,1,
,,,,,,,,,,,,,,,,,,5eadaff848b26f4483ae62d9,2020-11-27_15h01.07.252,lexical_decision_task_MP_exp2,2020.2.5,MacIntel,60,,z,1,0.51748,,,,,,,,0.51748,1,,,,,,403,NW,UN,33,cluirm,BRUATS,z,,,,,,-0.053068034,-0.41081543,0,0,0,,0,217,217,402,1,
,,,,,,,,,,,,,,,,,,5eadaff848b26f4483ae62d9,2020-11-27_15h01.07.252,lexical_decision_task_MP_exp2,2020.2.5,MacIntel,60,,m,1,0.69015,,,,,,,,0.69015,1,,,,,,149,WORD,UN,33,random,INVADE,m,,,,,,-0.053068034,-0.41081543,0,0,0,,0,218,218,148,1,
,,,,,,,,,,,,,,,,,,5eadaff848b26f4483ae62d9,2020-11-27_15h01.07.252,lexical_decision_task_MP_exp2,2020.2.5,MacIntel,60,,z,1,0.550245,,,,,,,,0.550245,1,,,,,,296,NW,"ID",33,beinch,BEINCH,z,,,,,,-0.053068034,-0.41081543,0,0,0,,0,219,219,295,1,
,,,,,,,,,,,,,,,,,,5eadaff848b26f4483ae62d9,2020-11-27_15h01.07.252,lexical_decision_task_MP_exp2,2020.2.5,MacIntel,60,,z,1,0.581915,,,,,,,,0.581915,1,,,,,,324,NW,"ID",16,steikh,STEIKH,z,,,,,,-0.053068034,-0.41081543,0,0,0,,0,220,220,323,1,
,,,,,,,,,,,,,,,,,,5eadaff848b26f4483ae62d9,2020-11-27_15h01.07.252,lexical_decision_task_MP_exp2,2020.2.5,MacIntel,60,,z,1,0.51724,,,,,,,,0.51724,1,,,,,,480,NW,UN,16,knisma,ROBULY,z,,,,,,-0.053068034,-0.41081543,0,0,0,,0,221,221,479,1,
,,,,,,,,,,,,,,,,,,5eadaff848b26f4483ae62d9,2020-11-27_15h01.07.252,lexical_decision_task_MP_exp2,2020.2.5,MacIntel,60,,z,1,0.53769,,,,,,,,0.53769,1,,,,,,253,NW,"ID",33,resait,RESAIT,z,,,,,,-0.053068034,-0.41081543,0,0,0,,0,222,222,252,1,
,,,,,,,,,,,,,,,,,,5eadaff848b26f4483ae62d9,2020-11-27_15h01.07.252,lexical_decision_task_MP_exp2,2020.2.5,MacIntel,60,,z,1,0.54963,,,,,,,,0.54963,1,,,,,,432,NW,UN,16,drance,LUNKER,z,,,,,,-0.053068034,-0.41081543,0,0,0,,0,223,223,431,1,
,,,,,,,,,,,,,,,,,,5eadaff848b26f4483ae62d9,2020-11-27_15h01.07.252,lexical_decision_task_MP_exp2,2020.2.5,MacIntel,60,,m,1,0.468675,,,,,,,,0.468675,1,,,,,,4,WORD,"ID",33,trench,TRENCH,m,,,,,,-0.053068034,-0.41081543,0,0,0,,0,224,224,3,1,
,,,,,,,,,,,,,,,,,,5eadaff848b26f4483ae62d9,2020-11-27_15h01.07.252,lexical_decision_task_MP_exp2,2020.2.5,MacIntel,60,,z,1,0.667275,,,,,,,,0.667275,1,,,,,,363,NW,UN,33,impote,BREALI,z,,,,,,-0.053068034,-0.41081543,0,0,0,,0,225,225,362,1,
,,,,,,,,,,,,,,,,,,5eadaff848b26f4483ae62d9,2020-11-27_15h01.07.252,lexical_decision_task_MP_exp2,2020.2.5,MacIntel,60,,m,1,0.553695,,,,,,,,0.553695,1,,,,,,90,WORD,"ID",16,relish,RELISH,m,,,,,,-0.053068034,-0.41081543,0,0,0,,0,226,226,89,1,
,,,,,,,,,,,,,,,,,,5eadaff848b26f4483ae62d9,2020-11-27_15h01.07.252,lexical_decision_task_MP_exp2,2020.2.5,MacIntel,60,,z,1,0.500925,,,,,,,,0.500925,1,,,,,,393,NW,UN,33,spaqux,GANOUS,z,,,,,,-0.053068034,-0.41081543,0,0,0,,0,227,227,392,1,
,,,,,,,,,,,,,,,,,,5eadaff848b26f4483ae62d9,2020-11-27_15h01.07.252,lexical_decision_task_MP_exp2,2020.2.5,MacIntel,60,,m,1,0.52201,,,,,,,,0.52201,1,,,,,,202,WORD,UN,16,phrase,FACTOR,m,,,,,,-0.053068034,-0.41081543,0,0,0,,0,228,228,201,1,
,,,,,,,,,,,,,,,,,,5eadaff848b26f4483ae62d9,2020-11-27_15h01.07.252,lexical_decision_task_MP_exp2,2020.2.5,MacIntel,60,,z,1,0.50319,,,,,,,,0.50319,1,,,,,,383,NW,UN,33,guesco,AUNGRE,z,,,,,,-0.053068034,-0.41081543,0,0,0,,0,229,229,382,1,
,,,,,,,,,,,,,,,,,,5eadaff848b26f4483ae62d9,2020-11-27_15h01.07.252,lexical_decision_task_MP_exp2,2020.2.5,MacIntel,60,,z,0,0.538575,,,,,,,,0.538575,0,,,,,,212,WORD,UN,16,squeal,VERIFY,m,,,,,,-0.053068034,-0.41081543,0,0,0,,0,230,230,211,1,
,,,,,,,,,,,,,,,,,,5eadaff848b26f4483ae62d9,2020-11-27_15h01.07.252,lexical_decision_task_MP_exp2,2020.2.5,MacIntel,60,,z,1,0.653285,,,,,,,,0.653285,1,,,,,,468,NW,UN,16,padifs,WICTOR,z,,,,,,-0.053068034,-0.41081543,0,0,0,,0,231,231,467,1,
,,,,,,,,,,,,,,,,,,5eadaff848b26f4483ae62d9,2020-11-27_15h01.07.252,lexical_decision_task_MP_exp2,2020.2.5,MacIntel,60,,m,1,0.567935,,,,,,,,0.567935,1,,,,,,129,WORD,UN,33,stupid,MARVEL,m,,,,,,-0.053068034,-0.41081543,0,0,0,,0,232,232,128,1,
,,,,,,,,,,,,,,,,,,5eadaff848b26f4483ae62d9,2020-11-27_15h01.07.252,lexical_decision_task_MP_exp2,2020.2.5,MacIntel,60,,z,1,0.649465,,,,,,,,0.649465,1,,,,,,471,NW,UN,16,cigney,NOBEST,z,,,,,,-0.053068034,-0.41081543,0,0,0,,0,233,233,470,1,
,,,,,,,,,,,,,,,,,,5eadaff848b26f4483ae62d9,2020-11-27_15h01.07.252,lexical_decision_task_MP_exp2,2020.2.5,MacIntel,60,,m,1,0.667395,,,,,,,,0.667395,1,,,,,,141,WORD,UN,33,spruce,ORPHAN,m,,,,,,-0.053068034,-0.41081543,0,0,0,,0,234,234,140,1,
,,,,,,,,,,,,,,,,,,5eadaff848b26f4483ae62d9,2020-11-27_15h01.07.252,lexical_decision_task_MP_exp2,2020.2.5,MacIntel,60,,m,1,0.584315,,,,,,,,0.584315,1,,,,,,89,WORD,"ID",16,permit,PERMIT,m,,,,,,-0.053068034,-0.41081543,0,0,0,,0,235,235,88,1,
,,,,,,,,,,,,,,,,,,5eadaff848b26f4483ae62d9,2020-11-27_15h01.07.252,lexical_decision_task_MP_exp2,2020.2.5,MacIntel,60,,m,1,0.516685,,,,,,,,0.516685,1,,,,,,173,WORD,UN,33,turkey,SHOWER,m,,,,,,-0.053068034,-0.41081543,0,0,0,,0,236,236,172,1,
,,,,,,,,,,,,,,,,,,5eadaff848b26f4483ae62d9,2020-11-27_15h01.07.252,lexical_decision_task_MP_exp2,2020.2.5,MacIntel,60,,m,1,0.551045,,,,,,,,0.551045,1,,,,,,106,WORD,"ID",16,ransom,RANSOM,m,,,,,,-0.053068034,-0.41081543,0,0,0,,0,237,237,105,1,
,,,,,,,,,,,,,,,,,,5eadaff848b26f4483ae62d9,2020-11-27_15h01.07.252,lexical_decision_task_MP_exp2,2020.2.5,MacIntel,60,,m,1,0.519785,,,,,,,,0.519785,1,,,,,,155,WORD,UN,33,cradle,LIZARD,m,,,,,,-0.053068034,-0.41081543,0,0,0,,0,238,238,154,1,
,,,,,,,,,,,,,,,,,,5eadaff848b26f4483ae62d9,2020-11-27_15h01.07.252,lexical_decision_task_MP_exp2,2020.2.5,MacIntel,60,,z,1,0.73422,,,,,,,,0.73422,1,,,,,,456,NW,UN,16,wanigh,BROGET,z,,,,,,-0.053068034,-0.41081543,0,0,0,,0,239,239,455,1,
,,,,,,,,,,,,,,,,,,5eadaff848b26f4483ae62d9,2020-11-27_15h01.07.252,lexical_decision_task_MP_exp2,2020.2.5,MacIntel,60,,z,1,0.567025,,,,,,,,0.567025,1,,,,,,255,NW,"ID",33,apight,APIGHT,z,,,,,,-0.053068034,-0.41081543,0,0,0,,0,240,240,254,1,
,,,,,,,,,,,,,,,,,,5eadaff848b26f4483ae62d9,2020-11-27_15h01.07.252,lexical_decision_task_MP_exp2,2020.2.5,MacIntel,60,,z,1,0.569145,,,,,,,,0.569145,1,,,,,,354,NW,"ID",16,virlex,VIRLEX,z,,,,,,0.308972453,-0.493670753,0,0,0,space,0,241,241,353,1,98.568565
,,,,,,,,,,,,,,,,,,5eadaff848b26f4483ae62d9,2020-11-27_15h01.07.252,lexical_decision_task_MP_exp2,2020.2.5,MacIntel,60,,z,1,0.63143,,,,,,,,0.63143,1,,,,,,443,NW,UN,16,jaunce,DORSEX,z,,,,,,0.308972453,-0.493670753,0,0,0,,0,242,242,442,1,
,,,,,,,,,,,,,,,,,,5eadaff848b26f4483ae62d9,2020-11-27_15h01.07.252,lexical_decision_task_MP_exp2,2020.2.5,MacIntel,60,,m,1,0.48416,,,,,,,,0.48416,1,,,,,,195,WORD,UN,16,credit,RESIGN,m,,,,,,0.308972453,-0.493670753,0,0,0,,0,243,243,194,1,
,,,,,,,,,,,,,,,,,,5eadaff848b26f4483ae62d9,2020-11-27_15h01.07.252,lexical_decision_task_MP_exp2,2020.2.5,MacIntel,60,,z,1,0.69856,,,,,,,,0.69856,1,,,,,,448,NW,UN,16,brunge,SADENT,z,,,,,,0.308972453,-0.493670753,0,0,0,,0,244,244,447,1,
,,,,,,,,,,,,,,,,,,5eadaff848b26f4483ae62d9,2020-11-27_15h01.07.252,lexical_decision_task_MP_exp2,2020.2.5,MacIntel,60,,m,1,0.60922,,,,,,,,0.60922,1,,,,,,163,WORD,UN,33,market,STRING,m,,,,,,0.308972453,-0.493670753,0,0,0,,0,245,245,162,1,
,,,,,,,,,,,,,,,,,,5eadaff848b26f4483ae62d9,2020-11-27_15h01.07.252,lexical_decision_task_MP_exp2,2020.2.5,MacIntel,60,,m,1,0.46867,,,,,,,,0.46867,1,,,,,,162,WORD,UN,33,string,CANDLE,m,,,,,,0.308972453,-0.493670753,0,0,0,,0,246,246,161,1,
,,,,,,,,,,,,,,,,,,5eadaff848b26f4483ae62d9,2020-11-27_15h01.07.252,lexical_decision_task_MP_exp2,2020.2.5,MacIntel,60,,m,1,0.56754,,,,,,,,0.56754,1,,,,,,235,WORD,UN,16,pirate,GRUMPY,m,,,,,,0.308972453,-0.493670753,0,0,0,,0,247,247,234,1,
,,,,,,,,,,,,,,,,,,5eadaff848b26f4483ae62d9,2020-11-27_15h01.07.252,lexical_decision_task_MP_exp2,2020.2.5,MacIntel,60,,z,1,0.47448,,,,,,,,0.47448,1,,,,,,470,NW,UN,16,nobest,CRUDIO,z,,,,,,0.308972453,-0.493670753,0,0,0,,0,248,248,469,1,
,,,,,,,,,,,,,,,,,,5eadaff848b26f4483ae62d9,2020-11-27_15h01.07.252,lexical_decision_task_MP_exp2,2020.2.5,MacIntel,60,,m,1,0.58286,,,,,,,,0.58286,1,,,,,,215,WORD,UN,16,behalf,PHOBIA,m,,,,,,0.308972453,-0.493670753,0,0,0,,0,249,249,214,1,
,,,,,,,,,,,,,,,,,,5eadaff848b26f4483ae62d9,2020-11-27_15h01.07.252,lexical_decision_task_MP_exp2,2020.2.5,MacIntel,60,,m,1,0.58327,,,,,,,,0.58327,1,,,,,,10,WORD,"ID",33,ethnic,ETHNIC,m,,,,,,0.308972453,-0.493670753,0,0,0,,0,250,250,9,1,
,,,,,,,,,,,,,,,,,,5eadaff848b26f4483ae62d9,2020-11-27_15h01.07.252,lexical_decision_task_MP_exp2,2020.2.5,MacIntel,60,,m,1,0.685385,,,,,,,,0.685385,1,,,,,,82,WORD,"ID",16,stigma,STIGMA,m,,,,,,0.308972453,-0.493670753,0,0,0,,0,251,251,81,1,
,,,,,,,,,,,,,,,,,,5eadaff848b26f4483ae62d9,2020-11-27_15h01.07.252,lexical_decision_task_MP_exp2,2020.2.5,MacIntel,60,,z,1,0.58496,,,,,,,,0.58496,1,,,,,,259,NW,"ID",33,soudal,SOUDAL,z,,,,,,0.308972453,-0.493670753,0,0,0,,0,252,252,258,1,
,,,,,,,,,,,,,,,,,,5eadaff848b26f4483ae62d9,2020-11-27_15h01.07.252,lexical_decision_task_MP_exp2,2020.2.5,MacIntel,60,,z,1,0.766705,,,,,,,,0.766705,1,,,,,,454,NW,UN,16,tondle,SCOUGE,z,,,,,,0.308972453,-0.493670753,0,0,0,,0,253,253,453,1,
,,,,,,,,,,,,,,,,,,5eadaff848b26f4483ae62d9,2020-11-27_15h01.07.252,lexical_decision_task_MP_exp2,2020.2.5,MacIntel,60,,m,1,0.60049,,,,,,,,0.60049,1,,,,,,45,WORD,"ID",33,clergy,CLERGY,m,,,,,,0.308972453,-0.493670753,0,0,0,,0,254,254,44,1,
,,,,,,,,,,,,,,,,,,5eadaff848b26f4483ae62d9,2020-11-27_15h01.07.252,lexical_decision_task_MP_exp2,2020.2.5,MacIntel,60,,z,1,0.55815,,,,,,,,0.55815,1,,,,,,440,NW,UN,16,cainky,SARIDE,z,,,,,,0.308972453,-0.493670753,0,0,0,,0,255,255,439,1,
,,,,,,,,,,,,,,,,,,5eadaff848b26f4483ae62d9,2020-11-27_15h01.07.252,lexical_decision_task_MP_exp2,2020.2.5,MacIntel,60,,m,1,0.58205,,,,,,,,0.58205,1,,,,,,200,WORD,UN,16,admire,BEACON,m,,,,,,0.308972453,-0.493670753,0,0,0,,0,256,256,199,1,
,,,,,,,,,,,,,,,,,,5eadaff848b26f4483ae62d9,2020-11-27_15h01.07.252,lexical_decision_task_MP_exp2,2020.2.5,MacIntel,60,,z,1,0.53371,,,,,,,,0.53371,1,,,,,,310,NW,"ID",16,daniet,DANIET,z,,,,,,0.308972453,-0.493670753,0,0,0,,0,257,257,309,1,
,,,,,,,,,,,,,,,,,,5eadaff848b26f4483ae62d9,2020-11-27_15h01.07.252,lexical_decision_task_MP_exp2,2020.2.5,MacIntel,60,,z,1,0.699245,,,,,,,,0.699245,1,,,,,,289,NW,"ID",33,starby,STARBY,z,,,,,,0.308972453,-0.493670753,0,0,0,,0,258,258,288,1,
,,,,,,,,,,,,,,,,,,5eadaff848b26f4483ae62d9,2020-11-27_15h01.07.252,lexical_decision_task_MP_exp2,2020.2.5,MacIntel,60,,z,1,0.681185,,,,,,,,0.681185,1,,,,,,356,NW,"ID",16,othnis,OTHNIS,z,,,,,,0.308972453,-0.493670753,0,0,0,,0,259,259,355,1,
,,,,,,,,,,,,,,,,,,5eadaff848b26f4483ae62d9,2020-11-27_15h01.07.252,lexical_decision_task_MP_exp2,2020.2.5,MacIntel,60,,m,1,0.617085,,,,,,,,0.617085,1,,,,,,122,WORD,UN,33,strike,LINGER,m,,,,,,0.308972453,-0.493670753,0,0,0,,0,260,260,121,1,
,,,,,,,,,,,,,,,,,,5eadaff848b26f4483ae62d9,2020-11-27_15h01.07.252,lexical_decision_task_MP_exp2,2020.2.5,MacIntel,60,,m,1,0.93672,,,,,,,,0.93672,1,,,,,,142,WORD,UN,33,orphan,SPRUCE,m,,,,,,0.308972453,-0.493670753,0,0,0,,0,261,261,141,1,
,,,,,,,,,,,,,,,,,,5eadaff848b26f4483ae62d9,2020-11-27_15h01.07.252,lexical_decision_task_MP_exp2,2020.2.5,MacIntel,60,,z,1,0.583,,,,,,,,0.583,1,,,,,,274,NW,"ID",33,fumblo,FUMBLO,z,,,,,,0.308972453,-0.493670753,0,0,0,,0,262,262,273,1,
,,,,,,,,,,,,,,,,,,5eadaff848b26f4483ae62d9,2020-11-27_15h01.07.252,lexical_decision_task_MP_exp2,2020.2.5,MacIntel,60,,m,1,0.516645,,,,,,,,0.516645,1,,,,,,2,WORD,"ID",33,bridge,BRIDGE,m,,,,,,0.308972453,-0.493670753,0,0,0,,0,263,263,1,1,
,,,,,,,,,,,,,,,,,,5eadaff848b26f4483ae62d9,2020-11-27_15h01.07.252,lexical_decision_task_MP_exp2,2020.2.5,MacIntel,60,,z,1,0.615375,,,,,,,,0.615375,1,,,,,,392,NW,UN,33,ganous,ROUNCY,z,,,,,,0.308972453,-0.493670753,0,0,0,,0,264,264,391,1,
,,,,,,,,,,,,,,,,,,5eadaff848b26f4483ae62d9,2020-11-27_15h01.07.252,lexical_decision_task_MP_exp2,2020.2.5,MacIntel,60,,z,1,0.524535,,,,,,,,0.524535,1,,,,,,316,NW,"ID",16,scregm,SCREGM,z,,,,,,0.308972453,-0.493670753,0,0,0,,0,265,265,315,1,
,,,,,,,,,,,,,,,,,,5eadaff848b26f4483ae62d9,2020-11-27_15h01.07.252,lexical_decision_task_MP_exp2,2020.2.5,MacIntel,60,,z,1,0.485945,,,,,,,,0.485945,1,,,,,,256,NW,"ID",33,inlors,INLORS,z,,,,,,0.308972453,-0.493670753,0,0,0,,0,266,266,255,1,
,,,,,,,,,,,,,,,,,,5eadaff848b26f4483ae62d9,2020-11-27_15h01.07.252,lexical_decision_task_MP_exp2,2020.2.5,MacIntel,60,,z,1,0.649345,,,,,,,,0.649345,1,,,,,,273,NW,"ID",33,sortel,SORTEL,z,,,,,,0.308972453,-0.493670753,0,0,0,,0,267,267,272,1,
,,,,,,,,,,,,,,,,,,5eadaff848b26f4483ae62d9,2020-11-27_15h01.07.252,lexical_decision_task_MP_exp2,2020.2.5,MacIntel,60,,m,1,0.639815,,,,,,,,0.639815,1,,,,,,114,WORD,"ID",16,placid,PLACID,m,,,,,,0.308972453,-0.493670753,0,0,0,,0,268,268,113,1,
,,,,,,,,,,,,,,,,,,5eadaff848b26f4483ae62d9,2020-11-27_15h01.07.252,lexical_decision_task_MP_exp2,2020.2.5,MacIntel,60,,m,1,0.52018,,,,,,,,0.52018,1,,,,,,219,WORD,UN,16,voyage,BUCKET,m,,,,,,0.308972453,-0.493670753,0,0,0,,0,269,269,218,1,
,,,,,,,,,,,,,,,,,,5eadaff848b26f4483ae62d9,2020-11-27_15h01.07.252,lexical_decision_task_MP_exp2,2020.2.5,MacIntel,60,,z,1,0.566455,,,,,,,,0.566455,1,,,,,,376,NW,UN,33,sliant,IGUARE,z,,,,,,0.308972453,-0.493670753,0,0,0,,0,270,270,375,1,
,,,,,,,,,,,,,,,,,,5eadaff848b26f4483ae62d9,2020-11-27_15h01.07.252,lexical_decision_task_MP_exp2,2020.2.5,MacIntel,60,,m,1,0.51702,,,,,,,,0.51702,1,,,,,,236,WORD,UN,16,poster,PIRATE,m,,,,,,0.308972453,-0.493670753,0,0,0,,0,271,271,235,1,
,,,,,,,,,,,,,,,,,,5eadaff848b26f4483ae62d9,2020-11-27_15h01.07.252,lexical_decision_task_MP_exp2,2020.2.5,MacIntel,60,,m,1,0.583535,,,,,,,,0.583535,1,,,,,,143,WORD,UN,33,sponge,REASON,m,,,,,,0.308972453,-0.493670753,0,0,0,,0,272,272,142,1,
,,,,,,,,,,,,,,,,,,5eadaff848b26f4483ae62d9,2020-11-27_15h01.07.252,lexical_decision_task_MP_exp2,2020.2.5,MacIntel,60,,m,1,0.721685,,,,,,,,0.721685,1,,,,,,85,WORD,"ID",16,sprawl,SPRAWL,m,,,,,,0.308972453,-0.493670753,0,0,0,,0,273,273,84,1,
,,,,,,,,,,,,,,,,,,5eadaff848b26f4483ae62d9,2020-11-27_15h01.07.252,lexical_decision_task_MP_exp2,2020.2.5,MacIntel,60,,z,1,0.57566,,,,,,,,0.57566,1,,,,,,266,NW,"ID",33,varmit,VARMIT,z,,,,,,0.308972453,-0.493670753,0,0,0,,0,274,274,265,1,
,,,,,,,,,,,,,,,,,,5eadaff848b26f4483ae62d9,2020-11-27_15h01.07.252,lexical_decision_task_MP_exp2,2020.2.5,MacIntel,60,,z,1,0.64025,,,,,,,,0.64025,1,,,,,,257,NW,"ID",33,veniod,VENIOD,z,,,,,,0.308972453,-0.493670753,0,0,0,,0,275,275,256,1,
,,,,,,,,,,,,,,,,,,5eadaff848b26f4483ae62d9,2020-11-27_15h01.07.252,lexical_decision_task_MP_exp2,2020.2.5,MacIntel,60,,z,1,0.707745,,,,,,,,0.707745,1,,,,,,411,NW,UN,33,jiluer,ORCHIN,z,,,,,,0.308972453,-0.493670753,0,0,0,,0,276,276,410,1,
,,,,,,,,,,,,,,,,,,5eadaff848b26f4483ae62d9,2020-11-27_15h01.07.252,lexical_decision_task_MP_exp2,2020.2.5,MacIntel,60,,z,1,0.49295,,,,,,,,0.49295,1,,,,,,323,NW,"ID",16,rosail,ROSAIL,z,,,,,,0.308972453,-0.493670753,0,0,0,,0,277,277,322,1,
,,,,,,,,,,,,,,,,,,5eadaff848b26f4483ae62d9,2020-11-27_15h01.07.252,lexical_decision_task_MP_exp2,2020.2.5,MacIntel,60,,z,1,0.68727,,,,,,,,0.68727,1,,,,,,332,NW,"ID",16,vangue,VANGUE,z,,,,,,0.308972453,-0.493670753,0,0,0,,0,278,278,331,1,
,,,,,,,,,,,,,,,,,,5eadaff848b26f4483ae62d9,2020-11-27_15h01.07.252,lexical_decision_task_MP_exp2,2020.2.5,MacIntel,60,,z,1,0.483695,,,,,,,,0.483695,1,,,,,,351,NW,"ID",16,tiesch,TIESCH,z,,,,,,0.308972453,-0.493670753,0,0,0,,0,279,279,350,1,
,,,,,,,,,,,,,,,,,,5eadaff848b26f4483ae62d9,2020-11-27_15h01.07.252,lexical_decision_task_MP_exp2,2020.2.5,MacIntel,60,,z,1,0.653085,,,,,,,,0.653085,1,,,,,,429,NW,UN,16,caroey,FUNTLE,z,,,,,,0.308972453,-0.493670753,0,0,0,,0,280,280,428,1,
,,,,,,,,,,,,,,,,,,5eadaff848b26f4483ae62d9,2020-11-27_15h01.07.252,lexical_decision_task_MP_exp2,2020.2.5,MacIntel,60,,m,1,0.5418,,,,,,,,0.5418,1,,,,,,14,WORD,"ID",33,almost,ALMOST,m,,,,,,0.308972453,-0.493670753,0,0,0,,0,281,281,13,1,
,,,,,,,,,,,,,,,,,,5eadaff848b26f4483ae62d9,2020-11-27_15h01.07.252,lexical_decision_task_MP_exp2,2020.2.5,MacIntel,60,,z,1,0.531925,,,,,,,,0.531925,1,,,,,,341,NW,"ID",16,myrtie,MYRTIE,z,,,,,,0.308972453,-0.493670753,0,0,0,,0,282,282,340,1,
,,,,,,,,,,,,,,,,,,5eadaff848b26f4483ae62d9,2020-11-27_15h01.07.252,lexical_decision_task_MP_exp2,2020.2.5,MacIntel,60,,z,1,0.565955,,,,,,,,0.565955,1,,,,,,370,NW,UN,33,geiloy,SLEACT,z,,,,,,0.308972453,-0.493670753,0,0,0,,0,283,283,369,1,
,,,,,,,,,,,,,,,,,,5eadaff848b26f4483ae62d9,2020-11-27_15h01.07.252,lexical_decision_task_MP_exp2,2020.2.5,MacIntel,60,,m,1,0.570505,,,,,,,,0.570505,1,,,,,,75,WORD,"ID",16,trophy,TROPHY,m,,,,,,0.308972453,-0.493670753,0,0,0,,0,284,284,74,1,
,,,,,,,,,,,,,,,,,,5eadaff848b26f4483ae62d9,2020-11-27_15h01.07.252,lexical_decision_task_MP_exp2,2020.2.5,MacIntel,60,,z,1,1.08301,,,,,,,,1.08301,1,,,,,,366,NW,UN,33,slique,TOSHEL,z,,,,,,0.308972453,-0.493670753,0,0,0,,0,285,285,365,1,
,,,,,,,,,,,,,,,,,,5eadaff848b26f4483ae62d9,2020-11-27_15h01.07.252,lexical_decision_task_MP_exp2,2020.2.5,MacIntel,60,,z,1,0.54098,,,,,,,,0.54098,1,,,,,,386,NW,UN,33,gronce,ANCUST,z,,,,,,0.308972453,-0.493670753,0,0,0,,0,286,286,385,1,
,,,,,,,,,,,,,,,,,,5eadaff848b26f4483ae62d9,2020-11-27_15h01.07.252,lexical_decision_task_MP_exp2,2020.2.5,MacIntel,60,,z,1,0.486975,,,,,,,,0.486975,1,,,,,,475,NW,UN,16,robuly,PEBRIC,z,,,,,,0.308972453,-0.493670753,0,0,0,,0,287,287,474,1,
,,,,,,,,,,,,,,,,,,5eadaff848b26f4483ae62d9,2020-11-27_15h01.07.252,lexical_decision_task_MP_exp2,2020.2.5,MacIntel,60,,m,1,0.48097,,,,,,,,0.48097,1,,,,,,62,WORD,"ID",16,region,REGION,m,,,,,,0.308972453,-0.493670753,0,0,0,,0,288,288,61,1,
,,,,,,,,,,,,,,,,,,5eadaff848b26f4483ae62d9,2020-11-27_15h01.07.252,lexical_decision_task_MP_exp2,2020.2.5,MacIntel,60,,z,1,0.558055,,,,,,,,0.558055,1,,,,,,391,NW,UN,33,rouncy,THELDY,z,,,,,,0.308972453,-0.493670753,0,0,0,,0,289,289,390,1,
,,,,,,,,,,,,,,,,,,5eadaff848b26f4483ae62d9,2020-11-27_15h01.07.252,lexical_decision_task_MP_exp2,2020.2.5,MacIntel,60,,z,1,0.54961,,,,,,,,0.54961,1,,,,,,396,NW,UN,33,camble,FLENGY,z,,,,,,0.308972453,-0.493670753,0,0,0,,0,290,290,395,1,
,,,,,,,,,,,,,,,,,,5eadaff848b26f4483ae62d9,2020-11-27_15h01.07.252,lexical_decision_task_MP_exp2,2020.2.5,MacIntel,60,,z,0,0.60195,,,,,,,,0.60195,0,,,,,,111,WORD,"ID",16,induce,INDUCE,m,,,,,,0.308972453,-0.493670753,0,0,0,,0,291,291,110,1,
,,,,,,,,,,,,,,,,,,5eadaff848b26f4483ae62d9,2020-11-27_15h01.07.252,lexical_decision_task_MP_exp2,2020.2.5,MacIntel,60,,z,1,0.585855,,,,,,,,0.585855,1,,,,,,315,NW,"ID",16,laston,LASTON,z,,,,,,0.308972453,-0.493670753,0,0,0,,0,292,292,314,1,
,,,,,,,,,,,,,,,,,,5eadaff848b26f4483ae62d9,2020-11-27_15h01.07.252,lexical_decision_task_MP_exp2,2020.2.5,MacIntel,60,,z,1,0.64163,,,,,,,,0.64163,1,,,,,,342,NW,"ID",16,randow,RANDOW,z,,,,,,0.308972453,-0.493670753,0,0,0,,0,293,293,341,1,
,,,,,,,,,,,,,,,,,,5eadaff848b26f4483ae62d9,2020-11-27_15h01.07.252,lexical_decision_task_MP_exp2,2020.2.5,MacIntel,60,,z,1,0.59019,,,,,,,,0.59019,1,,,,,,465,NW,UN,16,hocite,WHIVEX,z,,,,,,0.308972453,-0.493670753,0,0,0,,0,294,294,464,1,
,,,,,,,,,,,,,,,,,,5eadaff848b26f4483ae62d9,2020-11-27_15h01.07.252,lexical_decision_task_MP_exp2,2020.2.5,MacIntel,60,,z,1,0.531975,,,,,,,,0.531975,1,,,,,,435,NW,UN,16,frutan,IMPURB,z,,,,,,0.308972453,-0.493670753,0,0,0,,0,295,295,434,1,
,,,,,,,,,,,,,,,,,,5eadaff848b26f4483ae62d9,2020-11-27_15h01.07.252,lexical_decision_task_MP_exp2,2020.2.5,MacIntel,60,,z,1,0.56657,,,,,,,,0.56657,1,,,,,,328,NW,"ID",16,broake,BROAKE,z,,,,,,0.308972453,-0.493670753,0,0,0,,0,296,296,327,1,
,,,,,,,,,,,,,,,,,,5eadaff848b26f4483ae62d9,2020-11-27_15h01.07.252,lexical_decision_task_MP_exp2,2020.2.5,MacIntel,60,,z,1,0.50361,,,,,,,,0.50361,1,,,,,,336,NW,"ID",16,ghodus,GHODUS,z,,,,,,0.308972453,-0.493670753,0,0,0,,0,297,297,335,1,
,,,,,,,,,,,,,,,,,,5eadaff848b26f4483ae62d9,2020-11-27_15h01.07.252,lexical_decision_task_MP_exp2,2020.2.5,MacIntel,60,,m,1,0.579295,,,,,,,,0.579295,1,,,,,,220,WORD,UN,16,mascot,VOYAGE,m,,,,,,0.308972453,-0.493670753,0,0,0,,0,298,298,219,1,
,,,,,,,,,,,,,,,,,,5eadaff848b26f4483ae62d9,2020-11-27_15h01.07.252,lexical_decision_task_MP_exp2,2020.2.5,MacIntel,60,,m,1,0.601075,,,,,,,,0.601075,1,,,,,,217,WORD,UN,16,shrink,LIQUOR,m,,,,,,0.308972453,-0.493670753,0,0,0,,0,299,299,216,1,
,,,,,,,,,,,,,,,,,,5eadaff848b26f4483ae62d9,2020-11-27_15h01.07.252,lexical_decision_task_MP_exp2,2020.2.5,MacIntel,60,,z,1,0.49255,,,,,,,,0.49255,1,,,,,,290,NW,"ID",33,splino,SPLINO,z,,,,,,0.308972453,-0.493670753,0,0,0,,0,300,300,289,1,
,,,,,,,,,,,,,,,,,,5eadaff848b26f4483ae62d9,2020-11-27_15h01.07.252,lexical_decision_task_MP_exp2,2020.2.5,MacIntel,60,,m,1,0.74851,,,,,,,,0.74851,1,,,,,,81,WORD,"ID",16,friend,FRIEND,m,,,,,,0.308972453,-0.493670753,0,0,0,,0,301,301,80,1,
,,,,,,,,,,,,,,,,,,5eadaff848b26f4483ae62d9,2020-11-27_15h01.07.252,lexical_decision_task_MP_exp2,2020.2.5,MacIntel,60,,z,1,0.687705,,,,,,,,0.687705,1,,,,,,457,NW,UN,16,barcet,WANIGH,z,,,,,,0.308972453,-0.493670753,0,0,0,,0,302,302,456,1,
,,,,,,,,,,,,,,,,,,5eadaff848b26f4483ae62d9,2020-11-27_15h01.07.252,lexical_decision_task_MP_exp2,2020.2.5,MacIntel,60,,z,1,0.550775,,,,,,,,0.550775,1,,,,,,291,NW,"ID",33,pretch,PRETCH,z,,,,,,0.308972453,-0.493670753,0,0,0,,0,303,303,290,1,
,,,,,,,,,,,,,,,,,,5eadaff848b26f4483ae62d9,2020-11-27_15h01.07.252,lexical_decision_task_MP_exp2,2020.2.5,MacIntel,60,,z,1,0.472895,,,,,,,,0.472895,1,,,,,,407,NW,UN,33,hurnia,SUIVER,z,,,,,,0.308972453,-0.493670753,0,0,0,,0,304,304,406,1,
,,,,,,,,,,,,,,,,,,5eadaff848b26f4483ae62d9,2020-11-27_15h01.07.252,lexical_decision_task_MP_exp2,2020.2.5,MacIntel,60,,m,1,0.519805,,,,,,,,0.519805,1,,,,,,145,WORD,UN,33,couple,PARISH,m,,,,,,0.308972453,-0.493670753,0,0,0,,0,305,305,144,1,
,,,,,,,,,,,,,,,,,,5eadaff848b26f4483ae62d9,2020-11-27_15h01.07.252,lexical_decision_task_MP_exp2,2020.2.5,MacIntel,60,,z,1,0.664895,,,,,,,,0.664895,1,,,,,,442,NW,UN,16,dorsex,ABOUNE,z,,,,,,0.308972453,-0.493670753,0,0,0,,0,306,306,441,1,
,,,,,,,,,,,,,,,,,,5eadaff848b26f4483ae62d9,2020-11-27_15h01.07.252,lexical_decision_task_MP_exp2,2020.2.5,MacIntel,60,,m,1,0.60327,,,,,,,,0.60327,1,,,,,,230,WORD,UN,16,export,FRINGE,m,,,,,,0.308972453,-0.493670753,0,0,0,,0,307,307,229,1,
,,,,,,,,,,,,,,,,,,5eadaff848b26f4483ae62d9,2020-11-27_15h01.07.252,lexical_decision_task_MP_exp2,2020.2.5,MacIntel,60,,m,1,0.67662,,,,,,,,0.67662,1,,,,,,59,WORD,"ID",33,splint,SPLINT,m,,,,,,0.308972453,-0.493670753,0,0,0,,0,308,308,58,1,
,,,,,,,,,,,,,,,,,,5eadaff848b26f4483ae62d9,2020-11-27_15h01.07.252,lexical_decision_task_MP_exp2,2020.2.5,MacIntel,60,,z,1,0.751445,,,,,,,,0.751445,1,,,,,,243,NW,"ID",33,musied,MUSIED,z,,,,,,0.308972453,-0.493670753,0,0,0,,0,309,309,242,1,
,,,,,,,,,,,,,,,,,,5eadaff848b26f4483ae62d9,2020-11-27_15h01.07.252,lexical_decision_task_MP_exp2,2020.2.5,MacIntel,60,,m,1,0.620615,,,,,,,,0.620615,1,,,,,,158,WORD,UN,33,detail,ISLAND,m,,,,,,0.308972453,-0.493670753,0,0,0,,0,310,310,157,1,
,,,,,,,,,,,,,,,,,,5eadaff848b26f4483ae62d9,2020-11-27_15h01.07.252,lexical_decision_task_MP_exp2,2020.2.5,MacIntel,60,,z,1,0.575345,,,,,,,,0.575345,1,,,,,,421,NW,UN,16,alcoud,KNISMA,z,,,,,,0.308972453,-0.493670753,0,0,0,,0,311,311,420,1,
,,,,,,,,,,,,,,,,,,5eadaff848b26f4483ae62d9,2020-11-27_15h01.07.252,lexical_decision_task_MP_exp2,2020.2.5,MacIntel,60,,z,1,0.68379,,,,,,,,0.68379,1,,,,,,343,NW,"ID",16,aimosy,AIMOSY,z,,,,,,0.308972453,-0.493670753,0,0,0,,0,312,312,342,1,
,,,,,,,,,,,,,,,,,,5eadaff848b26f4483ae62d9,2020-11-27_15h01.07.252,lexical_decision_task_MP_exp2,2020.2.5,MacIntel,60,,z,1,0.774505,,,,,,,,0.774505,1,,,,,,282,NW,"ID",33,porlex,PORLEX,z,,,,,,0.308972453,-0.493670753,0,0,0,,0,313,313,281,1,
,,,,,,,,,,,,,,,,,,5eadaff848b26f4483ae62d9,2020-11-27_15h01.07.252,lexical_decision_task_MP_exp2,2020.2.5,MacIntel,60,,m,1,0.524915,,,,,,,,0.524915,1,,,,,,76,WORD,"ID",16,exotic,EXOTIC,m,,,,,,0.308972453,-0.493670753,0,0,0,,0,314,314,75,1,
,,,,,,,,,,,,,,,,,,5eadaff848b26f4483ae62d9,2020-11-27_15h01.07.252,lexical_decision_task_MP_exp2,2020.2.5,MacIntel,60,,z,1,0.498195,,,,,,,,0.498195,1,,,,,,309,NW,"ID",16,amiloy,AMILOY,z,,,,,,0.308972453,-0.493670753,0,0,0,,0,315,315,308,1,
,,,,,,,,,,,,,,,,,,5eadaff848b26f4483ae62d9,2020-11-27_15h01.07.252,lexical_decision_task_MP_exp2,2020.2.5,MacIntel,60,,z,1,0.4856,,,,,,,,0.4856,1,,,,,,446,NW,UN,16,gircue,RUNAMO,z,,,,,,0.308972453,-0.493670753,0,0,0,,0,316,316,445,1,
,,,,,,,,,,,,,,,,,,5eadaff848b26f4483ae62d9,2020-11-27_15h01.07.252,lexical_decision_task_MP_exp2,2020.2.5,MacIntel,60,,m,1,0.516715,,,,,,,,0.516715,1,,,,,,153,WORD,UN,33,author,BEHOLD,m,,,,,,0.308972453,-0.493670753,0,0,0,,0,317,317,152,1,
,,,,,,,,,,,,,,,,,,5eadaff848b26f4483ae62d9,2020-11-27_15h01.07.252,lexical_decision_task_MP_exp2,2020.2.5,MacIntel,60,,z,1,0.484275,,,,,,,,0.484275,1,,,,,,301,NW,"ID",16,fainch,FAINCH,z,,,,,,0.308972453,-0.493670753,0,0,0,,0,318,318,300,1,
,,,,,,,,,,,,,,,,,,5eadaff848b26f4483ae62d9,2020-11-27_15h01.07.252,lexical_decision_task_MP_exp2,2020.2.5,MacIntel,60,,z,0,0.48178,,,,,,,,0.48178,0,,,,,,63,WORD,"ID",16,launch,LAUNCH,m,,,,,,0.308972453,-0.493670753,0,0,0,,0,319,319,62,1,
,,,,,,,,,,,,,,,,,,5eadaff848b26f4483ae62d9,2020-11-27_15h01.07.252,lexical_decision_task_MP_exp2,2020.2.5,MacIntel,60,,z,1,0.549315,,,,,,,,0.549315,1,,,,,,464,NW,UN,16,whivex,CHAITE,z,,,,,,0.308972453,-0.493670753,0,0,0,,0,320,320,463,1,
,,,,,,,,,,,,,,,,,,5eadaff848b26f4483ae62d9,2020-11-27_15h01.07.252,lexical_decision_task_MP_exp2,2020.2.5,MacIntel,60,,z,1,0.669425,,,,,,,,0.669425,1,,,,,,325,NW,"ID",16,thruse,THRUSE,z,,,,,,0.308972453,-0.493670753,0,0,0,,0,321,321,324,1,
,,,,,,,,,,,,,,,,,,5eadaff848b26f4483ae62d9,2020-11-27_15h01.07.252,lexical_decision_task_MP_exp2,2020.2.5,MacIntel,60,,z,1,0.571315,,,,,,,,0.571315,1,,,,,,333,NW,"ID",16,catrie,CATRIE,z,,,,,,0.308972453,-0.493670753,0,0,0,,0,322,322,332,1,
,,,,,,,,,,,,,,,,,,5eadaff848b26f4483ae62d9,2020-11-27_15h01.07.252,lexical_decision_task_MP_exp2,2020.2.5,MacIntel,60,,m,1,0.59974,,,,,,,,0.59974,1,,,,,,178,WORD,UN,33,mildew,INFORM,m,,,,,,0.308972453,-0.493670753,0,0,0,,0,323,323,177,1,
,,,,,,,,,,,,,,,,,,5eadaff848b26f4483ae62d9,2020-11-27_15h01.07.252,lexical_decision_task_MP_exp2,2020.2.5,MacIntel,60,,m,1,0.53251,,,,,,,,0.53251,1,,,,,,147,WORD,UN,33,custom,GARLIC,m,,,,,,0.308972453,-0.493670753,0,0,0,,0,324,324,146,1,
,,,,,,,,,,,,,,,,,,5eadaff848b26f4483ae62d9,2020-11-27_15h01.07.252,lexical_decision_task_MP_exp2,2020.2.5,MacIntel,60,,z,1,0.55134,,,,,,,,0.55134,1,,,,,,381,NW,UN,33,sarley,HUNIEK,z,,,,,,0.308972453,-0.493670753,0,0,0,,0,325,325,380,1,
,,,,,,,,,,,,,,,,,,5eadaff848b26f4483ae62d9,2020-11-27_15h01.07.252,lexical_decision_task_MP_exp2,2020.2.5,MacIntel,60,,m,1,0.58062,,,,,,,,0.58062,1,,,,,,38,WORD,"ID",33,powder,POWDER,m,,,,,,0.308972453,-0.493670753,0,0,0,,0,326,326,37,1,
,,,,,,,,,,,,,,,,,,5eadaff848b26f4483ae62d9,2020-11-27_15h01.07.252,lexical_decision_task_MP_exp2,2020.2.5,MacIntel,60,,m,1,0.617135,,,,,,,,0.617135,1,,,,,,49,WORD,"ID",33,survey,SURVEY,m,,,,,,0.308972453,-0.493670753,0,0,0,,0,327,327,48,1,
,,,,,,,,,,,,,,,,,,5eadaff848b26f4483ae62d9,2020-11-27_15h01.07.252,lexical_decision_task_MP_exp2,2020.2.5,MacIntel,60,,z,1,0.49472,,,,,,,,0.49472,1,,,,,,426,NW,UN,16,frudge,URIVEL,z,,,,,,0.308972453,-0.493670753,0,0,0,,0,328,328,425,1,
,,,,,,,,,,,,,,,,,,5eadaff848b26f4483ae62d9,2020-11-27_15h01.07.252,lexical_decision_task_MP_exp2,2020.2.5,MacIntel,60,,m,1,0.573495,,,,,,,,0.573495,1,,,,,,157,WORD,UN,33,island,DRAGON,m,,,,,,0.308972453,-0.493670753,0,0,0,,0,329,329,156,1,
,,,,,,,,,,,,,,,,,,5eadaff848b26f4483ae62d9,2020-11-27_15h01.07.252,lexical_decision_task_MP_exp2,2020.2.5,MacIntel,60,,z,1,0.76633,,,,,,,,0.76633,1,,,,,,337,NW,"ID",16,rejols,REJOLS,z,,,,,,0.308972453,-0.493670753,0,0,0,,0,330,330,336,1,
,,,,,,,,,,,,,,,,,,5eadaff848b26f4483ae62d9,2020-11-27_15h01.07.252,lexical_decision_task_MP_exp2,2020.2.5,MacIntel,60,,z,1,0.49049,,,,,,,,0.49049,1,,,,,,372,NW,UN,33,bigent,RAMILY,z,,,,,,0.308972453,-0.493670753,0,0,0,,0,331,331,371,1,
,,,,,,,,,,,,,,,,,,5eadaff848b26f4483ae62d9,2020-11-27_15h01.07.252,lexical_decision_task_MP_exp2,2020.2.5,MacIntel,60,,z,1,0.51517,,,,,,,,0.51517,1,,,,,,399,NW,UN,33,wearox,FOURET,z,,,,,,0.308972453,-0.493670753,0,0,0,,0,332,332,398,1,
,,,,,,,,,,,,,,,,,,5eadaff848b26f4483ae62d9,2020-11-27_15h01.07.252,lexical_decision_task_MP_exp2,2020.2.5,MacIntel,60,,z,1,0.542745,,,,,,,,0.542745,1,,,,,,318,NW,"ID",16,reagly,REAGLY,z,,,,,,0.308972453,-0.493670753,0,0,0,,0,333,333,317,1,
,,,,,,,,,,,,,,,,,,5eadaff848b26f4483ae62d9,2020-11-27_15h01.07.252,lexical_decision_task_MP_exp2,2020.2.5,MacIntel,60,,z,1,0.524815,,,,,,,,0.524815,1,,,,,,419,NW,UN,33,gushop,SLOUNT,z,,,,,,0.308972453,-0.493670753,0,0,0,,0,334,334,418,1,
,,,,,,,,,,,,,,,,,,5eadaff848b26f4483ae62d9,2020-11-27_15h01.07.252,lexical_decision_task_MP_exp2,2020.2.5,MacIntel,60,,z,1,0.48951,,,,,,,,0.48951,1,,,,,,362,NW,UN,33,breali,TIREAU,z,,,,,,0.308972453,-0.493670753,0,0,0,,0,335,335,361,1,
,,,,,,,,,,,,,,,,,,5eadaff848b26f4483ae62d9,2020-11-27_15h01.07.252,lexical_decision_task_MP_exp2,2020.2.5,MacIntel,60,,z,1,0.498925,,,,,,,,0.498925,1,,,,,,359,NW,"ID",16,fonver,FONVER,z,,,,,,0.308972453,-0.493670753,0,0,0,,0,336,336,358,1,
,,,,,,,,,,,,,,,,,,5eadaff848b26f4483ae62d9,2020-11-27_15h01.07.252,lexical_decision_task_MP_exp2,2020.2.5,MacIntel,60,,m,1,0.567895,,,,,,,,0.567895,1,,,,,,227,WORD,UN,16,master,SELDOM,m,,,,,,0.308972453,-0.493670753,0,0,0,,0,337,337,226,1,
,,,,,,,,,,,,,,,,,,5eadaff848b26f4483ae62d9,2020-11-27_15h01.07.252,lexical_decision_task_MP_exp2,2020.2.5,MacIntel,60,,z,1,0.4662,,,,,,,,0.4662,1,,,,,,308,NW,"ID",16,psetch,PSETCH,z,,,,,,0.308972453,-0.493670753,0,0,0,,0,338,338,307,1,
,,,,,,,,,,,,,,,,,,5eadaff848b26f4483ae62d9,2020-11-27_15h01.07.252,lexical_decision_task_MP_exp2,2020.2.5,MacIntel,60,,z,1,0.47548,,,,,,,,0.47548,1,,,,,,474,NW,UN,16,gorbie,HABLIN,z,,,,,,0.308972453,-0.493670753,0,0,0,,0,339,339,473,1,
,,,,,,,,,,,,,,,,,,5eadaff848b26f4483ae62d9,2020-11-27_15h01.07.252,lexical_decision_task_MP_exp2,2020.2.5,MacIntel,60,,m,1,0.606615,,,,,,,,0.606615,1,,,,,,234,WORD,UN,16,lumber,CLUMSY,m,,,,,,0.308972453,-0.493670753,0,0,0,,0,340,340,233,1,
,,,,,,,,,,,,,,,,,,5eadaff848b26f4483ae62d9,2020-11-27_15h01.07.252,lexical_decision_task_MP_exp2,2020.2.5,MacIntel,60,,z,0,0.520845,,,,,,,,0.520845,0,,,,,,183,WORD,UN,16,sleazy,MILDEW,m,,,,,,0.308972453,-0.493670753,0,0,0,,0,341,341,182,1,
,,,,,,,,,,,,,,,,,,5eadaff848b26f4483ae62d9,2020-11-27_15h01.07.252,lexical_decision_task_MP_exp2,2020.2.5,MacIntel,60,,m,1,0.615275,,,,,,,,0.615275,1,,,,,,66,WORD,"ID",16,gospel,GOSPEL,m,,,,,,0.308972453,-0.493670753,0,0,0,,0,342,342,65,1,
,,,,,,,,,,,,,,,,,,5eadaff848b26f4483ae62d9,2020-11-27_15h01.07.252,lexical_decision_task_MP_exp2,2020.2.5,MacIntel,60,,m,1,0.60692,,,,,,,,0.60692,1,,,,,,218,WORD,UN,16,bucket,SHRINK,m,,,,,,0.308972453,-0.493670753,0,0,0,,0,343,343,217,1,
,,,,,,,,,,,,,,,,,,5eadaff848b26f4483ae62d9,2020-11-27_15h01.07.252,lexical_decision_task_MP_exp2,2020.2.5,MacIntel,60,,z,1,0.646805,,,,,,,,0.646805,1,,,,,,299,NW,"ID",33,sturch,STURCH,z,,,,,,0.308972453,-0.493670753,0,0,0,,0,344,344,298,1,
,,,,,,,,,,,,,,,,,,5eadaff848b26f4483ae62d9,2020-11-27_15h01.07.252,lexical_decision_task_MP_exp2,2020.2.5,MacIntel,60,,z,1,0.535835,,,,,,,,0.535835,1,,,,,,436,NW,UN,16,snapel,FRUTAN,z,,,,,,0.308972453,-0.493670753,0,0,0,,0,345,345,435,1,
,,,,,,,,,,,,,,,,,,5eadaff848b26f4483ae62d9,2020-11-27_15h01.07.252,lexical_decision_task_MP_exp2,2020.2.5,MacIntel,60,,z,1,0.53191,,,,,,,,0.53191,1,,,,,,378,NW,UN,33,auting,SHRILE,z,,,,,,0.308972453,-0.493670753,0,0,0,,0,346,346,377,1,
,,,,,,,,,,,,,,,,,,5eadaff848b26f4483ae62d9,2020-11-27_15h01.07.252,lexical_decision_task_MP_exp2,2020.2.5,MacIntel,60,,m,1,0.7987,,,,,,,,0.7987,1,,,,,,32,WORD,"ID",33,buckle,BUCKLE,m,,,,,,0.308972453,-0.493670753,0,0,0,,0,347,347,31,1,
,,,,,,,,,,,,,,,,,,5eadaff848b26f4483ae62d9,2020-11-27_15h01.07.252,lexical_decision_task_MP_exp2,2020.2.5,MacIntel,60,,m,1,0.568745,,,,,,,,0.568745,1,,,,,,34,WORD,"ID",33,jungle,JUNGLE,m,,,,,,0.308972453,-0.493670753,0,0,0,,0,348,348,33,1,
,,,,,,,,,,,,,,,,,,5eadaff848b26f4483ae62d9,2020-11-27_15h01.07.252,lexical_decision_task_MP_exp2,2020.2.5,MacIntel,60,,m,1,0.59956,,,,,,,,0.59956,1,,,,,,188,WORD,UN,16,censor,SOCIAL,m,,,,,,0.308972453,-0.493670753,0,0,0,,0,349,349,187,1,
,,,,,,,,,,,,,,,,,,5eadaff848b26f4483ae62d9,2020-11-27_15h01.07.252,lexical_decision_task_MP_exp2,2020.2.5,MacIntel,60,,m,1,0.593105,,,,,,,,0.593105,1,,,,,,136,WORD,UN,33,finger,BLEACH,m,,,,,,0.308972453,-0.493670753,0,0,0,,0,350,350,135,1,
,,,,,,,,,,,,,,,,,,5eadaff848b26f4483ae62d9,2020-11-27_15h01.07.252,lexical_decision_task_MP_exp2,2020.2.5,MacIntel,60,,z,1,0.483615,,,,,,,,0.483615,1,,,,,,347,NW,"ID",16,kerift,KERIFT,z,,,,,,0.308972453,-0.493670753,0,0,0,,0,351,351,346,1,
,,,,,,,,,,,,,,,,,,5eadaff848b26f4483ae62d9,2020-11-27_15h01.07.252,lexical_decision_task_MP_exp2,2020.2.5,MacIntel,60,,m,1,0.53275,,,,,,,,0.53275,1,,,,,,165,WORD,UN,33,starch,INVEST,m,,,,,,0.308972453,-0.493670753,0,0,0,,0,352,352,164,1,
,,,,,,,,,,,,,,,,,,5eadaff848b26f4483ae62d9,2020-11-27_15h01.07.252,lexical_decision_task_MP_exp2,2020.2.5,MacIntel,60,,z,1,0.48438,,,,,,,,0.48438,1,,,,,,251,NW,"ID",33,lupict,LUPICT,z,,,,,,0.308972453,-0.493670753,0,0,0,,0,353,353,250,1,
,,,,,,,,,,,,,,,,,,5eadaff848b26f4483ae62d9,2020-11-27_15h01.07.252,lexical_decision_task_MP_exp2,2020.2.5,MacIntel,60,,m,1,0.61741,,,,,,,,0.61741,1,,,,,,33,WORD,"ID",33,butler,BUTLER,m,,,,,,0.308972453,-0.493670753,0,0,0,,0,354,354,32,1,
,,,,,,,,,,,,,,,,,,5eadaff848b26f4483ae62d9,2020-11-27_15h01.07.252,lexical_decision_task_MP_exp2,2020.2.5,MacIntel,60,,z,1,0.50051,,,,,,,,0.50051,1,,,,,,313,NW,"ID",16,paurse,PAURSE,z,,,,,,0.308972453,-0.493670753,0,0,0,,0,355,355,312,1,
,,,,,,,,,,,,,,,,,,5eadaff848b26f4483ae62d9,2020-11-27_15h01.07.252,lexical_decision_task_MP_exp2,2020.2.5,MacIntel,60,,m,1,0.59939,,,,,,,,0.59939,1,,,,,,146,WORD,UN,33,garlic,COUPLE,m,,,,,,0.308972453,-0.493670753,0,0,0,,0,356,356,145,1,
,,,,,,,,,,,,,,,,,,5eadaff848b26f4483ae62d9,2020-11-27_15h01.07.252,lexical_decision_task_MP_exp2,2020.2.5,MacIntel,60,,z,1,0.567385,,,,,,,,0.567385,1,,,,,,461,NW,UN,16,absult,JUSTRE,z,,,,,,0.308972453,-0.493670753,0,0,0,,0,357,357,460,1,
,,,,,,,,,,,,,,,,,,5eadaff848b26f4483ae62d9,2020-11-27_15h01.07.252,lexical_decision_task_MP_exp2,2020.2.5,MacIntel,60,,m,1,0.551135,,,,,,,,0.551135,1,,,,,,209,WORD,UN,16,monkey,SEARCH,m,,,,,,0.308972453,-0.493670753,0,0,0,,0,358,358,208,1,
,,,,,,,,,,,,,,,,,,5eadaff848b26f4483ae62d9,2020-11-27_15h01.07.252,lexical_decision_task_MP_exp2,2020.2.5,MacIntel,60,,m,1,0.536935,,,,,,,,0.536935,1,,,,,,168,WORD,UN,33,genius,ANSWER,m,,,,,,0.308972453,-0.493670753,0,0,0,,0,359,359,167,1,
,,,,,,,,,,,,,,,,,,5eadaff848b26f4483ae62d9,2020-11-27_15h01.07.252,lexical_decision_task_MP_exp2,2020.2.5,MacIntel,60,,z,1,0.788255,,,,,,,,0.788255,1,,,,,,418,NW,UN,33,slount,SUIDLE,z,,,,,,0.308972453,-0.493670753,0,0,0,,0,360,360,417,1,
,,,,,,,,,,,,,,,,,,5eadaff848b26f4483ae62d9,2020-11-27_15h01.07.252,lexical_decision_task_MP_exp2,2020.2.5,MacIntel,60,,m,1,0.69081,,,,,,,,0.69081,1,,,,,,29,WORD,"ID",33,sketch,SKETCH,m,,,,,,0.308972453,-0.493670753,0,0,0,,0,361,361,28,1,
,,,,,,,,,,,,,,,,,,5eadaff848b26f4483ae62d9,2020-11-27_15h01.07.252,lexical_decision_task_MP_exp2,2020.2.5,MacIntel,60,,m,1,0.789225,,,,,,,,0.789225,1,,,,,,6,WORD,"ID",33,bundle,BUNDLE,m,,,,,,-0.696680038,0.11254839,0,0,0,space,0,362,362,5,1,70.689315
,,,,,,,,,,,,,,,,,,5eadaff848b26f4483ae62d9,2020-11-27_15h01.07.252,lexical_decision_task_MP_exp2,2020.2.5,MacIntel,60,,z,1,0.61504,,,,,,,,0.61504,1,,,,,,244,NW,"ID",33,eatric,EATRIC,z,,,,,,-0.696680038,0.11254839,0,0,0,,0,363,363,243,1,
,,,,,,,,,,,,,,,,,,5eadaff848b26f4483ae62d9,2020-11-27_15h01.07.252,lexical_decision_task_MP_exp2,2020.2.5,MacIntel,60,,z,1,0.504375,,,,,,,,0.504375,1,,,,,,258,NW,"ID",33,poluth,POLUTH,z,,,,,,-0.696680038,0.11254839,0,0,0,,0,364,364,257,1,
,,,,,,,,,,,,,,,,,,5eadaff848b26f4483ae62d9,2020-11-27_15h01.07.252,lexical_decision_task_MP_exp2,2020.2.5,MacIntel,60,,m,1,0.443185,,,,,,,,0.443185,1,,,,,,191,WORD,UN,16,absent,STABLE,m,,,,,,-0.696680038,0.11254839,0,0,0,,0,365,365,190,1,
,,,,,,,,,,,,,,,,,,5eadaff848b26f4483ae62d9,2020-11-27_15h01.07.252,lexical_decision_task_MP_exp2,2020.2.5,MacIntel,60,,m,1,0.57317,,,,,,,,0.57317,1,,,,,,211,WORD,UN,16,verify,INFECT,m,,,,,,-0.696680038,0.11254839,0,0,0,,0,366,366,210,1,
,,,,,,,,,,,,,,,,,,5eadaff848b26f4483ae62d9,2020-11-27_15h01.07.252,lexical_decision_task_MP_exp2,2020.2.5,MacIntel,60,,m,1,0.516775,,,,,,,,0.516775,1,,,,,,134,WORD,UN,33,import,STAPLE,m,,,,,,-0.696680038,0.11254839,0,0,0,,0,367,367,133,1,
,,,,,,,,,,,,,,,,,,5eadaff848b26f4483ae62d9,2020-11-27_15h01.07.252,lexical_decision_task_MP_exp2,2020.2.5,MacIntel,60,,z,1,0.60005,,,,,,,,0.60005,1,,,,,,462,NW,UN,16,kispel,ABSULT,z,,,,,,-0.696680038,0.11254839,0,0,0,,0,368,368,461,1,
,,,,,,,,,,,,,,,,,,5eadaff848b26f4483ae62d9,2020-11-27_15h01.07.252,lexical_decision_task_MP_exp2,2020.2.5,MacIntel,60,,m,1,0.583985,,,,,,,,0.583985,1,,,,,,131,WORD,UN,33,strong,QUENCH,m,,,,,,-0.696680038,0.11254839,0,0,0,,0,369,369,130,1,
,,,,,,,,,,,,,,,,,,5eadaff848b26f4483ae62d9,2020-11-27_15h01.07.252,lexical_decision_task_MP_exp2,2020.2.5,MacIntel,60,,m,1,0.53442,,,,,,,,0.53442,1,,,,,,67,WORD,"ID",16,policy,POLICY,m,,,,,,-0.696680038,0.11254839,0,0,0,,0,370,370,66,1,
,,,,,,,,,,,,,,,,,,5eadaff848b26f4483ae62d9,2020-11-27_15h01.07.252,lexical_decision_task_MP_exp2,2020.2.5,MacIntel,60,,m,1,0.533335,,,,,,,,0.533335,1,,,,,,97,WORD,"ID",16,client,CLIENT,m,,,,,,-0.696680038,0.11254839,0,0,0,,0,371,371,96,1,
,,,,,,,,,,,,,,,,,,5eadaff848b26f4483ae62d9,2020-11-27_15h01.07.252,lexical_decision_task_MP_exp2,2020.2.5,MacIntel,60,,z,1,0.633585,,,,,,,,0.633585,1,,,,,,473,NW,UN,16,hablin,CRIBLE,z,,,,,,-0.696680038,0.11254839,0,0,0,,0,372,372,472,1,
,,,,,,,,,,,,,,,,,,5eadaff848b26f4483ae62d9,2020-11-27_15h01.07.252,lexical_decision_task_MP_exp2,2020.2.5,MacIntel,60,,z,0,0.55016,,,,,,,,0.55016,0,,,,,,189,WORD,UN,16,backup,CENSOR,m,,,,,,-0.696680038,0.11254839,0,0,0,,0,373,373,188,1,
,,,,,,,,,,,,,,,,,,5eadaff848b26f4483ae62d9,2020-11-27_15h01.07.252,lexical_decision_task_MP_exp2,2020.2.5,MacIntel,60,,z,1,0.565535,,,,,,,,0.565535,1,,,,,,361,NW,UN,33,tireau,PAUCHE,z,,,,,,-0.696680038,0.11254839,0,0,0,,0,374,374,360,1,
,,,,,,,,,,,,,,,,,,5eadaff848b26f4483ae62d9,2020-11-27_15h01.07.252,lexical_decision_task_MP_exp2,2020.2.5,MacIntel,60,,m,1,0.550675,,,,,,,,0.550675,1,,,,,,198,WORD,UN,16,invoke,WICKED,m,,,,,,-0.696680038,0.11254839,0,0,0,,0,375,375,197,1,
,,,,,,,,,,,,,,,,,,5eadaff848b26f4483ae62d9,2020-11-27_15h01.07.252,lexical_decision_task_MP_exp2,2020.2.5,MacIntel,60,,m,1,0.604825,,,,,,,,0.604825,1,,,,,,77,WORD,"ID",16,racket,RACKET,m,,,,,,-0.696680038,0.11254839,0,0,0,,0,376,376,76,1,
,,,,,,,,,,,,,,,,,,5eadaff848b26f4483ae62d9,2020-11-27_15h01.07.252,lexical_decision_task_MP_exp2,2020.2.5,MacIntel,60,,m,1,0.750985,,,,,,,,0.750985,1,,,,,,13,WORD,"ID",33,strive,STRIVE,m,,,,,,-0.696680038,0.11254839,0,0,0,,0,377,377,12,1,
,,,,,,,,,,,,,,,,,,5eadaff848b26f4483ae62d9,2020-11-27_15h01.07.252,lexical_decision_task_MP_exp2,2020.2.5,MacIntel,60,,m,1,0.549975,,,,,,,,0.549975,1,,,,,,224,WORD,UN,16,vulgar,PERIOD,m,,,,,,-0.696680038,0.11254839,0,0,0,,0,378,378,223,1,
,,,,,,,,,,,,,,,,,,5eadaff848b26f4483ae62d9,2020-11-27_15h01.07.252,lexical_decision_task_MP_exp2,2020.2.5,MacIntel,60,,z,1,0.5458,,,,,,,,0.5458,1,,,,,,364,NW,UN,33,guairt,IMPOTE,z,,,,,,-0.696680038,0.11254839,0,0,0,,0,379,379,363,1,
,,,,,,,,,,,,,,,,,,5eadaff848b26f4483ae62d9,2020-11-27_15h01.07.252,lexical_decision_task_MP_exp2,2020.2.5,MacIntel,60,,m,1,0.533235,,,,,,,,0.533235,1,,,,,,138,WORD,UN,33,staple,MELODY,m,,,,,,-0.696680038,0.11254839,0,0,0,,0,380,380,137,1,
,,,,,,,,,,,,,,,,,,5eadaff848b26f4483ae62d9,2020-11-27_15h01.07.252,lexical_decision_task_MP_exp2,2020.2.5,MacIntel,60,,z,1,0.534585,,,,,,,,0.534585,1,,,,,,365,NW,UN,33,toshel,GUAIRT,z,,,,,,-0.696680038,0.11254839,0,0,0,,0,381,381,364,1,
,,,,,,,,,,,,,,,,,,5eadaff848b26f4483ae62d9,2020-11-27_15h01.07.252,lexical_decision_task_MP_exp2,2020.2.5,MacIntel,60,,z,1,0.652655,,,,,,,,0.652655,1,,,,,,306,NW,"ID",16,sounge,SOUNGE,z,,,,,,-0.696680038,0.11254839,0,0,0,,0,382,382,305,1,
,,,,,,,,,,,,,,,,,,5eadaff848b26f4483ae62d9,2020-11-27_15h01.07.252,lexical_decision_task_MP_exp2,2020.2.5,MacIntel,60,,z,1,0.608205,,,,,,,,0.608205,1,,,,,,358,NW,"ID",16,fleack,FLEACK,z,,,,,,-0.696680038,0.11254839,0,0,0,,0,383,383,357,1,
,,,,,,,,,,,,,,,,,,5eadaff848b26f4483ae62d9,2020-11-27_15h01.07.252,lexical_decision_task_MP_exp2,2020.2.5,MacIntel,60,,m,1,0.53387,,,,,,,,0.53387,1,,,,,,177,WORD,UN,33,inform,ADVENT,m,,,,,,-0.696680038,0.11254839,0,0,0,,0,384,384,176,1,
,,,,,,,,,,,,,,,,,,5eadaff848b26f4483ae62d9,2020-11-27_15h01.07.252,lexical_decision_task_MP_exp2,2020.2.5,MacIntel,60,,m,1,0.56572,,,,,,,,0.56572,1,,,,,,9,WORD,"ID",33,hustle,HUSTLE,m,,,,,,-0.696680038,0.11254839,0,0,0,,0,385,385,8,1,
,,,,,,,,,,,,,,,,,,5eadaff848b26f4483ae62d9,2020-11-27_15h01.07.252,lexical_decision_task_MP_exp2,2020.2.5,MacIntel,60,,m,1,0.48335,,,,,,,,0.48335,1,,,,,,182,WORD,UN,16,basket,WINTER,m,,,,,,-0.696680038,0.11254839,0,0,0,,0,386,386,181,1,
,,,,,,,,,,,,,,,,,,5eadaff848b26f4483ae62d9,2020-11-27_15h01.07.252,lexical_decision_task_MP_exp2,2020.2.5,MacIntel,60,,m,1,0.485815,,,,,,,,0.485815,1,,,,,,130,WORD,UN,33,quench,STUPID,m,,,,,,-0.696680038,0.11254839,0,0,0,,0,387,387,129,1,
