counterbalancing_condition,instr_done_keyboard.keys,instr_done_touch.x,instr_done_touch.y,instr_done_touch.leftButton,instr_done_touch.midButton,instr_done_touch.rightButton,instr_done_touch.clicked_name,instruction_pages.thisRepN,instruction_pages.thisTrialN,instruction_pages.thisN,instruction_pages.thisIndex,instruction_pages.ran,pageN,phase,instruct_text,has_image,instruct_image,participant,date,expName,psychopyVersion,OS,frameRate,response.keys,response.corr,touch_resp.x,touch_resp.y,touch_resp.leftButton,touch_resp.midButton,touch_resp.rightButton,touch_resp.time,touch_resp.clicked_name,rt,corr,practice_trials.thisRepN,practice_trials.thisTrialN,practice_trials.thisN,practice_trials.thisIndex,practice_trials.ran,TrialID,StimulusType,Condition,PrimeDuration,Prime,Target,corrAns,end_of_practice_trials_pages.thisRepN,end_of_practice_trials_pages.thisTrialN,end_of_practice_trials_pages.thisN,end_of_practice_trials_pages.thisIndex,end_of_practice_trials_pages.ran,break_done_touch.x,break_done_touch.y,break_done_touch.leftButton,break_done_touch.midButton,break_done_touch.rightButton,break_done_keyboard.keys,experiment_trials.thisRepN,experiment_trials.thisTrialN,experiment_trials.thisN,experiment_trials.thisIndex,experiment_trials.ran,break_done_touch.clicked_name
3,,0.071310764,-0.424804688,1,0,0,instr_done_button,0,0,0,0,1,1,instructions,"INSTRUCTIONS
At the start of each trial, look at the hash marks (######) in the center of the screen. After a moment, a string of letters will appear. Your task is to indicate if the letter string forms a word or not (i.e., if it is a nonword). For example, AUTHOR is a word while AUTHON is a nonword.

Press the space bar or touch the button below to continue.",0,,5eb4547590acf228f8d965ae,2020-11-26_16h02.48.964,lexical_decision_task_MP_exp2,2020.2.5,Linux armv8l,60,,,,,,,,,,,,,,,,,,,,,,,,,,,,,,,,,,,,,,,,
,,0.092957899,-0.426269531,1,0,0,instr_done_button,0,1,1,1,1,2,instructions,"If your device has a keyboard, press the 'Z' key for nonwords and the 'M' key for words.





Press the space bar or touch the button below to continue.",1,keyboard-example.gif,5eb4547590acf228f8d965ae,2020-11-26_16h02.48.964,lexical_decision_task_MP_exp2,2020.2.5,Linux armv8l,60,,,,,,,,,,,,,,,,,,,,,,,,,,,,,,,,,,,,,,,,
,,0.083680556,-0.417480469,1,0,0,instr_done_button,0,2,2,2,1,3,instructions,"If you are using a touchscreen only device, use the buttons on the screen. Do not use the mouse.





Press the space bar or touch the button below to continue.",1,touchscreen-example.gif,5eb4547590acf228f8d965ae,2020-11-26_16h02.48.964,lexical_decision_task_MP_exp2,2020.2.5,Linux armv8l,60,,,,,,,,,,,,,,,,,,,,,,,,,,,,,,,,,,,,,,,,
,,0.0800727,-0.416992188,1,0,0,instr_done_button,0,3,3,3,1,4,instructions,"It is very important that you respond as quickly and accurately as possible, as each letter string will only be on the screen for two seconds. If you do not respond within this time, the message 'Too slow!' will be displayed and the experiment will progress to the next letter string. The first 20 trials will be practice trials and you will receive feedback on your answers. 

Press the space bar or touch the button below to start the practice trials.",0,,5eb4547590acf228f8d965ae,2020-11-26_16h02.48.964,lexical_decision_task_MP_exp2,2020.2.5,Linux armv8l,60,,,,,,,,,,,,,,,,,,,,,,,,,,,,,,,,,,,,,,,,
,,,,,,,,,,,,,,,,,,5eb4547590acf228f8d965ae,2020-11-26_16h02.48.964,lexical_decision_task_MP_exp2,2020.2.5,Linux armv8l,60,,0,,,,,,,,,-1,0,0,0,1,1,1002,WORD,"ID",33,adjust,ADJUST,m,,,,,,,,,,,,,,,,,
,,,,,,,,,,,,,,,,,,5eb4547590acf228f8d965ae,2020-11-26_16h02.48.964,lexical_decision_task_MP_exp2,2020.2.5,Linux armv8l,60,,0,-0.326068793,-0.282958984,1,0,0,1.1535,button_left,1.1535,1,0,1,1,14,1,1015,NW,UN,16,miaber,THRALE,z,,,,,,,,,,,,,,,,,
,,,,,,,,,,,,,,,,,,5eb4547590acf228f8d965ae,2020-11-26_16h02.48.964,lexical_decision_task_MP_exp2,2020.2.5,Linux armv8l,60,,0,-0.338953993,-0.304931641,1,0,0,1.134,button_left,1.134,1,0,2,2,15,1,1016,NW,UN,16,mushed,WHAISE,z,,,,,,,,,,,,,,,,,
,,,,,,,,,,,,,,,,,,5eb4547590acf228f8d965ae,2020-11-26_16h02.48.964,lexical_decision_task_MP_exp2,2020.2.5,Linux armv8l,60,,0,0.535177951,-0.295898438,1,0,0,0.7665,button_right,0.7665,1,0,3,3,2,1,1003,WORD,"ID",16,almond,ALMOND,m,,,,,,,,,,,,,,,,,
,,,,,,,,,,,,,,,,,,5eb4547590acf228f8d965ae,2020-11-26_16h02.48.964,lexical_decision_task_MP_exp2,2020.2.5,Linux armv8l,60,,0,0.503222656,-0.275146484,1,0,0,0.6971,button_right,0.6971,1,0,4,4,4,1,1005,WORD,UN,33,abound,SQUEAK,m,,,,,,,,,,,,,,,,,
,,,,,,,,,,,,,,,,,,5eb4547590acf228f8d965ae,2020-11-26_16h02.48.964,lexical_decision_task_MP_exp2,2020.2.5,Linux armv8l,60,,0,-0.317306858,-0.231445313,1,0,0,1.0875,button_left,1.0875,1,0,5,5,10,1,1011,NW,"ID",16,inlade,INLADE,z,,,,,,,,,,,,,,,,,
,,,,,,,,,,,,,,,,,,5eb4547590acf228f8d965ae,2020-11-26_16h02.48.964,lexical_decision_task_MP_exp2,2020.2.5,Linux armv8l,60,,0,0.42797309,-0.333251953,1,0,0,1.0506,button_right,1.0506,1,0,6,6,6,1,1007,WORD,UN,16,tropic,ZOMBIE,m,,,,,,,,,,,,,,,,,
,,,,,,,,,,,,,,,,,,5eb4547590acf228f8d965ae,2020-11-26_16h02.48.964,lexical_decision_task_MP_exp2,2020.2.5,Linux armv8l,60,,0,-0.470898437,-0.292236328,1,0,0,0.8593,button_left,0.8593,1,0,7,7,8,1,1009,NW,"ID",33,aslert,ASLERT,z,,,,,,,,,,,,,,,,,
,,,,,,,,,,,,,,,,,,5eb4547590acf228f8d965ae,2020-11-26_16h02.48.964,lexical_decision_task_MP_exp2,2020.2.5,Linux armv8l,60,,0,-0.471413845,-0.31640625,1,0,0,0.7958,button_left,0.7958,1,0,8,8,11,1,1012,NW,"ID",16,rashet,RASHET,z,,,,,,,,,,,,,,,,,
,,,,,,,,,,,,,,,,,,5eb4547590acf228f8d965ae,2020-11-26_16h02.48.964,lexical_decision_task_MP_exp2,2020.2.5,Linux armv8l,60,,0,-0.464198134,-0.322265625,1,0,0,0.7816,button_left,0.7816,1,0,9,9,12,1,1013,NW,UN,33,adveil,SPRINY,z,,,,,,,,,,,,,,,,,
,,,,,,,,,,,,,,,,,,5eb4547590acf228f8d965ae,2020-11-26_16h02.48.964,lexical_decision_task_MP_exp2,2020.2.5,Linux armv8l,60,,0,0.460959201,-0.302734375,1,0,0,0.6324,button_right,0.6324,1,0,10,10,5,1,1006,WORD,UN,33,frenzy,OBTAIN,m,,,,,,,,,,,,,,,,,
,,,,,,,,,,,,,,,,,,5eb4547590acf228f8d965ae,2020-11-26_16h02.48.964,lexical_decision_task_MP_exp2,2020.2.5,Linux armv8l,60,,0,-0.479660373,-0.353515625,1,0,0,0.6972,button_left,0.6972,1,0,11,11,13,1,1014,NW,UN,33,winfer,ROUPET,z,,,,,,,,,,,,,,,,,
,,,,,,,,,,,,,,,,,,5eb4547590acf228f8d965ae,2020-11-26_16h02.48.964,lexical_decision_task_MP_exp2,2020.2.5,Linux armv8l,60,,0,0.459412977,-0.320800781,1,0,0,0.7022,button_right,0.7022,1,0,12,12,7,1,1008,WORD,UN,16,hurdle,VOLUME,m,,,,,,,,,,,,,,,,,
,,,,,,,,,,,,,,,,,,5eb4547590acf228f8d965ae,2020-11-26_16h02.48.964,lexical_decision_task_MP_exp2,2020.2.5,Linux armv8l,60,,0,0.454258898,-0.344726563,1,0,0,0.8668,button_right,0.8668,1,0,13,13,0,1,1001,WORD,"ID",33,utopia,UTOPIA,m,,,,,,,,,,,,,,,,,
,,,,,,,,,,,,,,,,,,5eb4547590acf228f8d965ae,2020-11-26_16h02.48.964,lexical_decision_task_MP_exp2,2020.2.5,Linux armv8l,60,,0,0.436219618,-0.334228516,1,0,0,0.7295,button_right,0.7295,1,0,14,14,3,1,1004,WORD,"ID",16,matrix,MATRIX,m,,,,,,,,,,,,,,,,,
,,,,,,,,,,,,,,,,,,5eb4547590acf228f8d965ae,2020-11-26_16h02.48.964,lexical_decision_task_MP_exp2,2020.2.5,Linux armv8l,60,,0,-0.487391493,-0.332519531,1,0,0,0.6661,button_left,0.6661,1,0,15,15,9,1,1010,NW,"ID",33,fariny,FARINY,z,,,,,,,,,,,,,,,,,
,,0.095019531,-0.431396484,1,0,0,instr_done_button,,,,,,1,end_of_practice,"You have completed the practice trials. During the experimental trials, you will not receive feedback, but it is very important that you respond as quickly and accurately as possible. 
Before you begin, please ensure that you are in a comfortable and quiet location and will not be disturbed for about 15 minutes, as we cannot use your data if you do not complete all the trials. 
There will be opportunities to take breaks at regular intervals during the experiment. When you are ready to start the experimental trials, please press space or touch the button below.",,,5eb4547590acf228f8d965ae,2020-11-26_16h02.48.964,lexical_decision_task_MP_exp2,2020.2.5,Linux armv8l,60,,,,,,,,,,,,,,,,,,,,,,,,0,0,0,0,1,,,,,,,,,,,,
,,,,,,,,,,,,,,,,,,5eb4547590acf228f8d965ae,2020-11-26_16h02.48.964,lexical_decision_task_MP_exp2,2020.2.5,Linux armv8l,60,,0,-0.44976671,-0.330322266,1,0,0,0.8294,button_left,0.8294,1,,,,,,386,NW,"ID",16,ancust,ANCUST,z,,,,,,-0.44976671,-0.330322266,1,0,0,,0,0,0,325,1,
,,,,,,,,,,,,,,,,,,5eb4547590acf228f8d965ae,2020-11-26_16h02.48.964,lexical_decision_task_MP_exp2,2020.2.5,Linux armv8l,60,,0,0.420757378,-0.306640625,1,0,0,0.782,button_right,0.782,1,,,,,,38,WORD,UN,16,insect,POWDER,m,,,,,,0.420757378,-0.306640625,1,0,0,,0,1,1,217,1,
,,,,,,,,,,,,,,,,,,5eb4547590acf228f8d965ae,2020-11-26_16h02.48.964,lexical_decision_task_MP_exp2,2020.2.5,Linux armv8l,60,,0,-0.43688151,-0.320800781,1,0,0,0.7356,button_left,0.7356,1,,,,,,475,NW,UN,33,josted,PEBRIC,z,,,,,,-0.43688151,-0.320800781,1,0,0,,0,2,2,414,1,
,,,,,,,,,,,,,,,,,,5eb4547590acf228f8d965ae,2020-11-26_16h02.48.964,lexical_decision_task_MP_exp2,2020.2.5,Linux armv8l,60,,0,0.418180339,-0.330810547,1,0,0,0.7344,button_right,0.7344,1,,,,,,171,WORD,"ID",16,depart,DEPART,m,,,,,,0.418180339,-0.330810547,1,0,0,,0,3,3,110,1,
,,,,,,,,,,,,,,,,,,5eb4547590acf228f8d965ae,2020-11-26_16h02.48.964,lexical_decision_task_MP_exp2,2020.2.5,Linux armv8l,60,,0,0.429003906,-0.325195313,1,0,0,0.666,button_right,0.666,1,,,,,,67,WORD,"ID",33,policy,POLICY,m,,,,,,0.429003906,-0.325195313,1,0,0,,0,4,4,6,1,
,,,,,,,,,,,,,,,,,,5eb4547590acf228f8d965ae,2020-11-26_16h02.48.964,lexical_decision_task_MP_exp2,2020.2.5,Linux armv8l,60,,0,-0.450797526,-0.326416016,1,0,0,0.6503,button_left,0.6503,1,,,,,,453,NW,UN,33,scouge,BOLVIS,z,,,,,,-0.450797526,-0.326416016,1,0,0,,0,5,5,392,1,
,,,,,,,,,,,,,,,,,,5eb4547590acf228f8d965ae,2020-11-26_16h02.48.964,lexical_decision_task_MP_exp2,2020.2.5,Linux armv8l,60,,0,0.43055013,-0.317382813,1,0,0,0.6663,button_right,0.6663,1,,,,,,206,WORD,UN,33,wreath,TAILOR,m,,,,,,0.43055013,-0.317382813,1,0,0,,0,6,6,145,1,
,,,,,,,,,,,,,,,,,,5eb4547590acf228f8d965ae,2020-11-26_16h02.48.964,lexical_decision_task_MP_exp2,2020.2.5,Linux armv8l,60,,0,0.420757378,-0.307373047,1,0,0,0.717,button_right,0.717,1,,,,,,97,WORD,"ID",33,client,CLIENT,m,,,,,,0.420757378,-0.307373047,1,0,0,,0,7,7,36,1,
,,,,,,,,,,,,,,,,,,5eb4547590acf228f8d965ae,2020-11-26_16h02.48.964,lexical_decision_task_MP_exp2,2020.2.5,Linux armv8l,60,,0,0.42281901,-0.327392578,1,0,0,0.6515,button_right,0.6515,1,,,,,,53,WORD,UN,16,ramble,POLICE,m,,,,,,0.42281901,-0.327392578,1,0,0,,0,8,8,232,1,
,,,,,,,,,,,,,,,,,,5eb4547590acf228f8d965ae,2020-11-26_16h02.48.964,lexical_decision_task_MP_exp2,2020.2.5,Linux armv8l,60,,0,0.44601237,-0.319580078,1,0,0,0.6831,button_right,0.6831,1,,,,,,174,WORD,"ID",16,turkey,TURKEY,m,,,,,,0.44601237,-0.319580078,1,0,0,,0,9,9,113,1,
,,,,,,,,,,,,,,,,,,5eb4547590acf228f8d965ae,2020-11-26_16h02.48.964,lexical_decision_task_MP_exp2,2020.2.5,Linux armv8l,60,,0,0.436735026,-0.322998047,1,0,0,0.6843,button_right,0.6843,1,,,,,,190,WORD,UN,33,stable,BACKUP,m,,,,,,0.436735026,-0.322998047,1,0,0,,0,10,10,129,1,
,,,,,,,,,,,,,,,,,,5eb4547590acf228f8d965ae,2020-11-26_16h02.48.964,lexical_decision_task_MP_exp2,2020.2.5,Linux armv8l,60,,0,0.446527778,-0.340576172,1,0,0,0.7644,button_right,0.7644,1,,,,,,151,WORD,"ID",16,mystic,MYSTIC,m,,,,,,0.446527778,-0.340576172,1,0,0,,0,11,11,90,1,
,,,,,,,,,,,,,,,,,,5eb4547590acf228f8d965ae,2020-11-26_16h02.48.964,lexical_decision_task_MP_exp2,2020.2.5,Linux armv8l,60,,0,-0.472960069,-0.345458984,1,0,0,0.8009,button_left,0.8009,1,,,,,,261,NW,UN,16,quilew,STUNCH,z,,,,,,-0.472960069,-0.345458984,1,0,0,,0,12,12,440,1,
,,,,,,,,,,,,,,,,,,5eb4547590acf228f8d965ae,2020-11-26_16h02.48.964,lexical_decision_task_MP_exp2,2020.2.5,Linux armv8l,60,,0,-0.471413845,-0.327880859,1,0,0,0.6512,button_left,0.6512,1,,,,,,304,NW,"ID",33,cludie,CLUDIE,z,,,,,,-0.471413845,-0.327880859,1,0,0,,0,13,13,243,1,
,,,,,,,,,,,,,,,,,,5eb4547590acf228f8d965ae,2020-11-26_16h02.48.964,lexical_decision_task_MP_exp2,2020.2.5,Linux armv8l,60,,0,0.444981554,-0.327148438,1,0,0,0.7364,button_right,0.7364,1,,,,,,140,WORD,"ID",16,prince,PRINCE,m,,,,,,0.444981554,-0.327148438,1,0,0,,0,14,14,79,1,
,,,,,,,,,,,,,,,,,,5eb4547590acf228f8d965ae,2020-11-26_16h02.48.964,lexical_decision_task_MP_exp2,2020.2.5,Linux armv8l,60,,0,-0.477598741,-0.327148438,1,0,0,0.6501,button_left,0.6501,1,,,,,,365,NW,"ID",16,guairt,GUAIRT,z,,,,,,-0.477598741,-0.327148438,1,0,0,,0,15,15,304,1,
,,,,,,,,,,,,,,,,,,5eb4547590acf228f8d965ae,2020-11-26_16h02.48.964,lexical_decision_task_MP_exp2,2020.2.5,Linux armv8l,60,,0,0.451681858,-0.318847656,1,0,0,0.9005,button_right,0.9005,1,,,,,,170,WORD,"ID",16,pounce,POUNCE,m,,,,,,0.451681858,-0.318847656,1,0,0,,0,16,16,109,1,
,,,,,,,,,,,,,,,,,,5eb4547590acf228f8d965ae,2020-11-26_16h02.48.964,lexical_decision_task_MP_exp2,2020.2.5,Linux armv8l,60,,0,-0.45492079,-0.334228516,1,0,0,0.9019,button_left,0.9019,0,,,,,,89,WORD,"ID",33,permit,PERMIT,m,,,,,,-0.45492079,-0.334228516,1,0,0,,0,17,17,28,1,
,,,,,,,,,,,,,,,,,,5eb4547590acf228f8d965ae,2020-11-26_16h02.48.964,lexical_decision_task_MP_exp2,2020.2.5,Linux armv8l,60,,0,-0.439973958,-0.323242188,1,0,0,0.8707,button_left,0.8707,1,,,,,,467,NW,UN,33,wictor,GORBIE,z,,,,,,-0.439973958,-0.323242188,1,0,0,,0,18,18,406,1,
,,,,,,,,,,,,,,,,,,5eb4547590acf228f8d965ae,2020-11-26_16h02.48.964,lexical_decision_task_MP_exp2,2020.2.5,Linux armv8l,60,,0,0.427457682,-0.326660156,1,0,0,0.6504,button_right,0.6504,1,,,,,,3,WORD,UN,16,trench,KNIGHT,m,,,,,,0.427457682,-0.326660156,1,0,0,,0,19,19,182,1,
,,,,,,,,,,,,,,,,,,5eb4547590acf228f8d965ae,2020-11-26_16h02.48.964,lexical_decision_task_MP_exp2,2020.2.5,Linux armv8l,60,,0,-0.431727431,-0.288574219,1,0,0,0.7838,button_left,0.7838,1,,,,,,442,NW,UN,33,dorsex,ABOUNE,z,,,,,,-0.431727431,-0.288574219,1,0,0,,0,20,20,381,1,
,,,,,,,,,,,,,,,,,,5eb4547590acf228f8d965ae,2020-11-26_16h02.48.964,lexical_decision_task_MP_exp2,2020.2.5,Linux armv8l,60,,0,0.430034722,-0.317626953,1,0,0,0.6833,button_right,0.6833,1,,,,,,62,WORD,"ID",33,region,REGION,m,,,,,,0.430034722,-0.317626953,1,0,0,,0,21,21,1,1,
,,,,,,,,,,,,,,,,,,5eb4547590acf228f8d965ae,2020-11-26_16h02.48.964,lexical_decision_task_MP_exp2,2020.2.5,Linux armv8l,60,,0,-0.427088759,-0.326904297,1,0,0,0.7483,button_left,0.7483,1,,,,,,272,NW,UN,16,sortel,DAMILT,z,,,,,,-0.427088759,-0.326904297,1,0,0,,0,22,22,451,1,
,,,,,,,,,,,,,,,,,,5eb4547590acf228f8d965ae,2020-11-26_16h02.48.964,lexical_decision_task_MP_exp2,2020.2.5,Linux armv8l,60,,0,-0.471413845,-0.3359375,1,0,0,1.1192,button_left,1.1192,1,,,,,,285,NW,UN,16,reldon,PRUDGE,z,,,,,,-0.471413845,-0.3359375,1,0,0,,0,23,23,464,1,
,,,,,,,,,,,,,,,,,,5eb4547590acf228f8d965ae,2020-11-26_16h02.48.964,lexical_decision_task_MP_exp2,2020.2.5,Linux armv8l,60,,0,-0.469867622,-0.332763672,1,0,0,0.9509,button_left,0.9509,1,,,,,,429,NW,UN,33,caroey,FUNTLE,z,,,,,,-0.469867622,-0.332763672,1,0,0,,0,24,24,368,1,
,,,,,,,,,,,,,,,,,,5eb4547590acf228f8d965ae,2020-11-26_16h02.48.964,lexical_decision_task_MP_exp2,2020.2.5,Linux armv8l,60,,0,-0.467290582,-0.336914063,1,0,0,0.8521,button_left,0.8521,1,,,,,,330,NW,"ID",33,kensom,KENSOM,z,,,,,,-0.467290582,-0.336914063,1,0,0,,0,25,25,269,1,
,,,,,,,,,,,,,,,,,,5eb4547590acf228f8d965ae,2020-11-26_16h02.48.964,lexical_decision_task_MP_exp2,2020.2.5,Linux armv8l,60,,0,-0.45749783,-0.314697266,1,0,0,0.9357,button_left,0.9357,1,,,,,,289,NW,UN,16,splino,STARBY,z,,,,,,-0.45749783,-0.314697266,1,0,0,,0,26,26,468,1,
,,,,,,,,,,,,,,,,,,5eb4547590acf228f8d965ae,2020-11-26_16h02.48.964,lexical_decision_task_MP_exp2,2020.2.5,Linux armv8l,60,,0,0.439312066,-0.334716797,1,0,0,0.8341,button_right,0.8341,1,,,,,,61,WORD,"ID",33,ponder,PONDER,m,,,,,,0.439312066,-0.334716797,1,0,0,,0,27,27,0,1,
,,,,,,,,,,,,,,,,,,5eb4547590acf228f8d965ae,2020-11-26_16h02.48.964,lexical_decision_task_MP_exp2,2020.2.5,Linux armv8l,60,,0,-0.466775174,-0.316894531,1,0,0,0.7168,button_left,0.7168,1,,,,,,407,NW,"ID",16,suiver,SUIVER,z,,,,,,-0.466775174,-0.316894531,1,0,0,,0,28,28,346,1,
,,,,,,,,,,,,,,,,,,5eb4547590acf228f8d965ae,2020-11-26_16h02.48.964,lexical_decision_task_MP_exp2,2020.2.5,Linux armv8l,60,,0,0.431065538,-0.330322266,1,0,0,0.7171,button_right,0.7171,1,,,,,,205,WORD,UN,33,tailor,LOUNGE,m,,,,,,0.431065538,-0.330322266,1,0,0,,0,29,29,144,1,
,,,,,,,,,,,,,,,,,,5eb4547590acf228f8d965ae,2020-11-26_16h02.48.964,lexical_decision_task_MP_exp2,2020.2.5,Linux armv8l,60,,0,-0.473990885,-0.325927734,1,0,0,0.9356,button_left,0.9356,1,,,,,,319,NW,"ID",33,zomber,ZOMBER,z,,,,,,-0.473990885,-0.325927734,1,0,0,,0,30,30,258,1,
,,,,,,,,,,,,,,,,,,5eb4547590acf228f8d965ae,2020-11-26_16h02.48.964,lexical_decision_task_MP_exp2,2020.2.5,Linux armv8l,60,,0,0.429003906,-0.330566406,1,0,0,0.6827,button_right,0.6827,1,,,,,,163,WORD,"ID",16,string,STRING,m,,,,,,0.429003906,-0.330566406,1,0,0,,0,31,31,102,1,
,,,,,,,,,,,,,,,,,,5eb4547590acf228f8d965ae,2020-11-26_16h02.48.964,lexical_decision_task_MP_exp2,2020.2.5,Linux armv8l,60,,0,0.429003906,-0.327880859,1,0,0,0.7266,button_right,0.7266,1,,,,,,107,WORD,"ID",33,slogan,SLOGAN,m,,,,,,0.429003906,-0.327880859,1,0,0,,0,32,32,46,1,
,,,,,,,,,,,,,,,,,,5eb4547590acf228f8d965ae,2020-11-26_16h02.48.964,lexical_decision_task_MP_exp2,2020.2.5,Linux armv8l,60,,0,0.429003906,-0.333251953,1,0,0,0.7508,button_right,0.7508,1,,,,,,113,WORD,"ID",33,chorus,CHORUS,m,,,,,,0.429003906,-0.333251953,1,0,0,,0,33,33,52,1,
,,,,,,,,,,,,,,,,,,5eb4547590acf228f8d965ae,2020-11-26_16h02.48.964,lexical_decision_task_MP_exp2,2020.2.5,Linux armv8l,60,,0,0.429519314,-0.32421875,1,0,0,0.6664,button_right,0.6664,1,,,,,,126,WORD,"ID",16,enough,ENOUGH,m,,,,,,0.429519314,-0.32421875,1,0,0,,0,34,34,65,1,
,,,,,,,,,,,,,,,,,,5eb4547590acf228f8d965ae,2020-11-26_16h02.48.964,lexical_decision_task_MP_exp2,2020.2.5,Linux armv8l,60,,0,0.426426866,-0.328857422,1,0,0,0.7007,button_right,0.7007,1,,,,,,133,WORD,"ID",16,chrome,CHROME,m,,,,,,0.426426866,-0.328857422,1,0,0,,0,35,35,72,1,
,,,,,,,,,,,,,,,,,,5eb4547590acf228f8d965ae,2020-11-26_16h02.48.964,lexical_decision_task_MP_exp2,2020.2.5,Linux armv8l,60,,0,-0.46265191,-0.323486328,1,0,0,0.7188,button_left,0.7188,1,,,,,,356,NW,"ID",33,othnis,OTHNIS,z,,,,,,-0.46265191,-0.323486328,1,0,0,,0,36,36,295,1,
,,,,,,,,,,,,,,,,,,5eb4547590acf228f8d965ae,2020-11-26_16h02.48.964,lexical_decision_task_MP_exp2,2020.2.5,Linux armv8l,60,,0,-0.455436198,-0.326904297,1,0,0,0.8174,button_left,0.8174,1,,,,,,355,NW,"ID",33,zingly,ZINGLY,z,,,,,,-0.455436198,-0.326904297,1,0,0,,0,37,37,294,1,
,,,,,,,,,,,,,,,,,,5eb4547590acf228f8d965ae,2020-11-26_16h02.48.964,lexical_decision_task_MP_exp2,2020.2.5,Linux armv8l,60,,0,-0.463167318,-0.319335938,1,0,0,0.9005,button_left,0.9005,1,,,,,,396,NW,"ID",16,flengy,FLENGY,z,,,,,,-0.463167318,-0.319335938,1,0,0,,0,38,38,335,1,
,,,,,,,,,,,,,,,,,,5eb4547590acf228f8d965ae,2020-11-26_16h02.48.964,lexical_decision_task_MP_exp2,2020.2.5,Linux armv8l,60,,0,0.410964627,-0.335693359,1,0,0,0.7335,button_right,0.7335,1,,,,,,11,WORD,UN,16,amount,CRUISE,m,,,,,,0.410964627,-0.335693359,1,0,0,,0,39,39,190,1,
,,,,,,,,,,,,,,,,,,5eb4547590acf228f8d965ae,2020-11-26_16h02.48.964,lexical_decision_task_MP_exp2,2020.2.5,Linux armv8l,60,,0,0.418180339,-0.328125,1,0,0,0.685,button_right,0.685,1,,,,,,177,WORD,"ID",16,advent,ADVENT,m,,,,,,0.418180339,-0.328125,1,0,0,,0,40,40,116,1,
,,,,,,,,,,,,,,,,,,5eb4547590acf228f8d965ae,2020-11-26_16h02.48.964,lexical_decision_task_MP_exp2,2020.2.5,Linux armv8l,60,,0,-0.453889974,-0.318359375,1,0,0,0.9516,button_left,0.9516,1,,,,,,277,NW,UN,16,unighs,PETAIN,z,,,,,,-0.453889974,-0.318359375,1,0,0,,0,41,41,456,1,
,,,,,,,,,,,,,,,,,,5eb4547590acf228f8d965ae,2020-11-26_16h02.48.964,lexical_decision_task_MP_exp2,2020.2.5,Linux armv8l,60,,0,-0.473475477,-0.328125,1,0,0,0.934,button_left,0.934,1,,,,,,343,NW,"ID",33,aimosy,AIMOSY,z,,,,,,-0.473475477,-0.328125,1,0,0,,0,42,42,282,1,
,,,,,,,,,,,,,,,,,,5eb4547590acf228f8d965ae,2020-11-26_16h02.48.964,lexical_decision_task_MP_exp2,2020.2.5,Linux armv8l,60,,0,-0.456982422,-0.325927734,1,0,0,0.706,button_left,0.706,0,,,,,,212,WORD,UN,33,squeal,VERIFY,m,,,,,,-0.456982422,-0.325927734,1,0,0,,0,43,43,151,1,
,,,,,,,,,,,,,,,,,,5eb4547590acf228f8d965ae,2020-11-26_16h02.48.964,lexical_decision_task_MP_exp2,2020.2.5,Linux armv8l,60,,0,0.397048611,-0.311035156,1,0,0,1.1204,button_right,1.1204,1,,,,,,85,WORD,"ID",33,sprawl,SPRAWL,m,,,,,,0.397048611,-0.311035156,1,0,0,,0,44,44,24,1,
,,,,,,,,,,,,,,,,,,5eb4547590acf228f8d965ae,2020-11-26_16h02.48.964,lexical_decision_task_MP_exp2,2020.2.5,Linux armv8l,60,,0,0.408902995,-0.321289063,1,0,0,1.0921,button_right,1.0921,1,,,,,,172,WORD,"ID",16,patrol,PATROL,m,,,,,,0.408902995,-0.321289063,1,0,0,,0,45,45,111,1,
,,,,,,,,,,,,,,,,,,5eb4547590acf228f8d965ae,2020-11-26_16h02.48.964,lexical_decision_task_MP_exp2,2020.2.5,Linux armv8l,60,,0,0.402718099,-0.332519531,1,0,0,0.768,button_right,0.768,1,,,,,,169,WORD,"ID",16,genius,GENIUS,m,,,,,,0.402718099,-0.332519531,1,0,0,,0,46,46,108,1,
,,,,,,,,,,,,,,,,,,5eb4547590acf228f8d965ae,2020-11-26_16h02.48.964,lexical_decision_task_MP_exp2,2020.2.5,Linux armv8l,60,,0,0.407356771,-0.336914063,1,0,0,0.7195,button_right,0.7195,1,,,,,,185,WORD,UN,33,portal,BOTHER,m,,,,,,0.407356771,-0.336914063,1,0,0,,0,47,47,124,1,
,,,,,,,,,,,,,,,,,,5eb4547590acf228f8d965ae,2020-11-26_16h02.48.964,lexical_decision_task_MP_exp2,2020.2.5,Linux armv8l,60,,0,0.408902995,-0.330566406,1,0,0,0.6499,button_right,0.6499,1,,,,,,51,WORD,UN,16,impose,HUNGRY,m,,,,,,0.408902995,-0.330566406,1,0,0,,0,48,48,230,1,
,,,,,,,,,,,,,,,,,,5eb4547590acf228f8d965ae,2020-11-26_16h02.48.964,lexical_decision_task_MP_exp2,2020.2.5,Linux armv8l,60,,0,-0.46522895,-0.318115234,1,0,0,0.7509,button_left,0.7509,1,,,,,,471,NW,UN,33,cigney,NOBEST,z,,,,,,-0.46522895,-0.318115234,1,0,0,,0,49,49,410,1,
,,,,,,,,,,,,,,,,,,5eb4547590acf228f8d965ae,2020-11-26_16h02.48.964,lexical_decision_task_MP_exp2,2020.2.5,Linux armv8l,60,,0,0.413026259,-0.331054688,1,0,0,0.7731,button_right,0.7731,1,,,,,,19,WORD,UN,16,breast,PATRON,m,,,,,,0.413026259,-0.331054688,1,0,0,,0,50,50,198,1,
,,,,,,,,,,,,,,,,,,5eb4547590acf228f8d965ae,2020-11-26_16h02.48.964,lexical_decision_task_MP_exp2,2020.2.5,Linux armv8l,60,,0,-0.456467014,-0.317382813,1,0,0,0.6656,button_left,0.6656,1,,,,,,404,NW,"ID",16,cluirm,CLUIRM,z,,,,,,-0.456467014,-0.317382813,1,0,0,,0,51,51,343,1,
,,,,,,,,,,,,,,,,,,5eb4547590acf228f8d965ae,2020-11-26_16h02.48.964,lexical_decision_task_MP_exp2,2020.2.5,Linux armv8l,60,,0,-0.459044054,-0.322753906,1,0,0,0.7837,button_left,0.7837,1,,,,,,246,NW,UN,16,blarge,PIATON,z,,,,,,-0.459044054,-0.322753906,1,0,0,,0,52,52,425,1,
,,,,,,,,,,,,,,,,,,5eb4547590acf228f8d965ae,2020-11-26_16h02.48.964,lexical_decision_task_MP_exp2,2020.2.5,Linux armv8l,60,,0,0.410449219,-0.341064453,1,0,0,0.6483,button_right,0.6483,1,,,,,,213,WORD,UN,33,intake,SQUEAL,m,,,,,,0.410449219,-0.341064453,1,0,0,,0,53,53,152,1,
,,,,,,,,,,,,,,,,,,5eb4547590acf228f8d965ae,2020-11-26_16h02.48.964,lexical_decision_task_MP_exp2,2020.2.5,Linux armv8l,60,,0,-0.450282118,-0.309082031,1,0,0,0.7872,button_left,0.7872,1,,,,,,400,NW,"ID",16,wearox,WEAROX,z,,,,,,-0.450282118,-0.309082031,1,0,0,,0,54,54,339,1,
,,,,,,,,,,,,,,,,,,5eb4547590acf228f8d965ae,2020-11-26_16h02.48.964,lexical_decision_task_MP_exp2,2020.2.5,Linux armv8l,60,,0,-0.467290582,-0.322753906,1,0,0,0.7666,button_left,0.7666,1,,,,,,325,NW,"ID",33,thruse,THRUSE,z,,,,,,-0.467290582,-0.322753906,1,0,0,,0,55,55,264,1,
,,,,,,,,,,,,,,,,,,5eb4547590acf228f8d965ae,2020-11-26_16h02.48.964,lexical_decision_task_MP_exp2,2020.2.5,Linux armv8l,60,,0,-0.469352214,-0.319580078,1,0,0,0.7524,button_left,0.7524,1,,,,,,282,NW,UN,16,veralf,PORLEX,z,,,,,,-0.469352214,-0.319580078,1,0,0,,0,56,56,461,1,
,,,,,,,,,,,,,,,,,,5eb4547590acf228f8d965ae,2020-11-26_16h02.48.964,lexical_decision_task_MP_exp2,2020.2.5,Linux armv8l,60,,0,-0.469867622,-0.315185547,1,0,0,1.0337,button_left,1.0337,1,,,,,,431,NW,UN,33,lunker,CHRUMS,z,,,,,,-0.469867622,-0.315185547,1,0,0,,0,57,57,370,1,
,,,,,,,,,,,,,,,,,,5eb4547590acf228f8d965ae,2020-11-26_16h02.48.964,lexical_decision_task_MP_exp2,2020.2.5,Linux armv8l,60,,0,0.418695747,-0.331542969,1,0,0,0.6668,button_right,0.6668,1,,,,,,160,WORD,"ID",16,violet,VIOLET,m,,,,,,0.418695747,-0.331542969,1,0,0,,0,58,58,99,1,
,,,,,,,,,,,,,,,,,,5eb4547590acf228f8d965ae,2020-11-26_16h02.48.964,lexical_decision_task_MP_exp2,2020.2.5,Linux armv8l,60,,0,0.416634115,-0.329589844,1,0,0,0.7011,button_right,0.7011,1,,,,,,2,WORD,UN,16,knight,BRIDGE,m,,,,,,0.416634115,-0.329589844,1,0,0,,0,59,59,181,1,
,,,,,,,,,,,,,,,,,,5eb4547590acf228f8d965ae,2020-11-26_16h02.48.964,lexical_decision_task_MP_exp2,2020.2.5,Linux armv8l,60,,0,0.416118707,-0.326171875,1,0,0,0.6008,button_right,0.6008,1,,,,,,102,WORD,"ID",33,direct,DIRECT,m,,,,,,0.416118707,-0.326171875,1,0,0,,0,60,60,41,1,
,,,,,,,,,,,,,,,,,,5eb4547590acf228f8d965ae,2020-11-26_16h02.48.964,lexical_decision_task_MP_exp2,2020.2.5,Linux armv8l,60,,0,0.414572483,-0.327636719,1,0,0,0.6623,button_right,0.6623,1,,,,,,26,WORD,UN,16,butler,SPRINT,m,,,,,,0.414572483,-0.327636719,1,0,0,,0,61,61,205,1,
,,,,,,,,,,,,,,,,,,5eb4547590acf228f8d965ae,2020-11-26_16h02.48.964,lexical_decision_task_MP_exp2,2020.2.5,Linux armv8l,60,,0,-0.468321398,-0.306396484,1,0,0,0.6729,button_left,0.6729,1,,,,,,328,NW,"ID",33,broake,BROAKE,z,,,,,,-0.468321398,-0.306396484,1,0,0,,0,62,62,267,1,
,,,,,,,,,,,,,,,,,,5eb4547590acf228f8d965ae,2020-11-26_16h02.48.964,lexical_decision_task_MP_exp2,2020.2.5,Linux armv8l,60,,0,0.415603299,-0.331298828,1,0,0,0.8337,button_right,0.8337,1,,,,,,78,WORD,"ID",33,column,COLUMN,m,,,,,,0.415603299,-0.331298828,1,0,0,,0,63,63,17,1,
,,,,,,,,,,,,,,,,,,5eb4547590acf228f8d965ae,2020-11-26_16h02.48.964,lexical_decision_task_MP_exp2,2020.2.5,Linux armv8l,60,,0,0.413541667,-0.331054688,1,0,0,0.8362,button_right,0.8362,1,,,,,,195,WORD,UN,33,credit,RESIGN,m,,,,,,0.413541667,-0.331054688,1,0,0,,0,64,64,134,1,
,,,,,,,,,,,,,,,,,,5eb4547590acf228f8d965ae,2020-11-26_16h02.48.964,lexical_decision_task_MP_exp2,2020.2.5,Linux armv8l,60,,0,-0.471413845,-0.313964844,1,0,0,0.7017,button_left,0.7017,1,,,,,,264,NW,UN,16,distar,VACKEL,z,,,,,,-0.471413845,-0.313964844,1,0,0,,0,65,65,443,1,
,,,,,,,,,,,,,,,,,,5eb4547590acf228f8d965ae,2020-11-26_16h02.48.964,lexical_decision_task_MP_exp2,2020.2.5,Linux armv8l,60,,0,0.409418403,-0.333740234,1,0,0,0.6717,button_right,0.6717,1,,,,,,127,WORD,"ID",16,castle,CASTLE,m,,,,,,0.409418403,-0.333740234,1,0,0,,0,66,66,66,1,
,,,,,,,,,,,,,,,,,,5eb4547590acf228f8d965ae,2020-11-26_16h02.48.964,lexical_decision_task_MP_exp2,2020.2.5,Linux armv8l,60,,0,-0.478114149,-0.314941406,1,0,0,0.6665,button_left,0.6665,1,,,,,,353,NW,"ID",33,clurey,CLUREY,z,,,,,,-0.478114149,-0.314941406,1,0,0,,0,67,67,292,1,
,,,,,,,,,,,,,,,,,,5eb4547590acf228f8d965ae,2020-11-26_16h02.48.964,lexical_decision_task_MP_exp2,2020.2.5,Linux armv8l,60,,0,-0.46780599,-0.311279297,1,0,0,0.7191,button_left,0.7191,1,,,,,,372,NW,"ID",16,ramily,RAMILY,z,,,,,,-0.46780599,-0.311279297,1,0,0,,0,68,68,311,1,
,,,,,,,,,,,,,,,,,,5eb4547590acf228f8d965ae,2020-11-26_16h02.48.964,lexical_decision_task_MP_exp2,2020.2.5,Linux armv8l,60,,0,0.412510851,-0.323730469,1,0,0,0.6185,button_right,0.6185,1,,,,,,188,WORD,UN,33,censor,SOCIAL,m,,,,,,0.412510851,-0.323730469,1,0,0,,0,69,69,127,1,
,,,,,,,,,,,,,,,,,,5eb4547590acf228f8d965ae,2020-11-26_16h02.48.964,lexical_decision_task_MP_exp2,2020.2.5,Linux armv8l,60,,0,0.414057075,-0.320556641,1,0,0,0.6172,button_right,0.6172,1,,,,,,57,WORD,UN,16,danger,CHANGE,m,,,,,,0.414057075,-0.320556641,1,0,0,,0,70,70,236,1,
,,,,,,,,,,,,,,,,,,5eb4547590acf228f8d965ae,2020-11-26_16h02.48.964,lexical_decision_task_MP_exp2,2020.2.5,Linux armv8l,60,,0,-0.461621094,-0.310791016,1,0,0,0.6851,button_left,0.6851,1,,,,,,278,NW,UN,16,celond,UNIGHS,z,,,,,,-0.461621094,-0.310791016,1,0,0,,0,71,71,457,1,
,,,,,,,,,,,,,,,,,,5eb4547590acf228f8d965ae,2020-11-26_16h02.48.964,lexical_decision_task_MP_exp2,2020.2.5,Linux armv8l,60,,0,0.413026259,-0.328125,1,0,0,0.6658,button_right,0.6658,1,,,,,,12,WORD,UN,16,strive,ORANGE,m,,,,,,0.413026259,-0.328125,1,0,0,,0,72,72,191,1,
,,,,,,,,,,,,,,,,,,5eb4547590acf228f8d965ae,2020-11-26_16h02.48.964,lexical_decision_task_MP_exp2,2020.2.5,Linux armv8l,60,,0,0.407872179,-0.317626953,1,0,0,0.7164,button_right,0.7164,1,,,,,,108,WORD,"ID",33,reckon,RECKON,m,,,,,,0.407872179,-0.317626953,1,0,0,,0,73,73,47,1,
,,,,,,,,,,,,,,,,,,5eb4547590acf228f8d965ae,2020-11-26_16h02.48.964,lexical_decision_task_MP_exp2,2020.2.5,Linux armv8l,60,,0,-0.465744358,-0.310791016,1,0,0,0.7336,button_left,0.7336,1,,,,,,439,NW,UN,33,saride,LIMPOR,z,,,,,,-0.465744358,-0.310791016,1,0,0,,0,74,74,378,1,
,,,,,,,,,,,,,,,,,,5eb4547590acf228f8d965ae,2020-11-26_16h02.48.964,lexical_decision_task_MP_exp2,2020.2.5,Linux armv8l,60,,0,0.409933811,-0.314697266,1,0,0,0.6518,button_right,0.6518,1,,,,,,173,WORD,"ID",16,shower,SHOWER,m,,,,,,0.409933811,-0.314697266,1,0,0,,0,75,75,112,1,
,,,,,,,,,,,,,,,,,,5eb4547590acf228f8d965ae,2020-11-26_16h02.48.964,lexical_decision_task_MP_exp2,2020.2.5,Linux armv8l,60,,0,0.416118707,-0.326171875,1,0,0,0.8703,button_right,0.8703,1,,,,,,71,WORD,"ID",33,garden,GARDEN,m,,,,,,0.416118707,-0.326171875,1,0,0,,0,76,76,10,1,
,,,,,,,,,,,,,,,,,,5eb4547590acf228f8d965ae,2020-11-26_16h02.48.964,lexical_decision_task_MP_exp2,2020.2.5,Linux armv8l,60,,0,0.415087891,-0.319824219,1,0,0,0.7652,button_right,0.7652,1,,,,,,194,WORD,UN,33,resign,ABSENT,m,,,,,,0.415087891,-0.319824219,1,0,0,,0,77,77,133,1,
,,,,,,,,,,,,,,,,,,5eb4547590acf228f8d965ae,2020-11-26_16h02.48.964,lexical_decision_task_MP_exp2,2020.2.5,Linux armv8l,60,,0,-0.46007487,-0.307128906,1,0,0,0.681,button_left,0.681,1,,,,,,254,NW,UN,16,apight,VAROSH,z,,,,,,-0.46007487,-0.307128906,1,0,0,,0,78,78,433,1,
,,,,,,,,,,,,,,,,,,5eb4547590acf228f8d965ae,2020-11-26_16h02.48.964,lexical_decision_task_MP_exp2,2020.2.5,Linux armv8l,60,,0,0.416118707,-0.321533203,1,0,0,1.0675,button_right,1.0675,1,,,,,,111,WORD,"ID",33,induce,INDUCE,m,,,,,,0.416118707,-0.321533203,1,0,0,,0,79,79,50,1,
,,,,,,,,,,,,,,,,,,5eb4547590acf228f8d965ae,2020-11-26_16h02.48.964,lexical_decision_task_MP_exp2,2020.2.5,Linux armv8l,60,,0,-0.46522895,-0.305175781,1,0,0,0.7024,button_left,0.7024,1,,,,,,253,NW,UN,16,varosh,RESAIT,z,,,,,,-0.46522895,-0.305175781,1,0,0,,0,80,80,432,1,
,,,,,,,,,,,,,,,,,,5eb4547590acf228f8d965ae,2020-11-26_16h02.48.964,lexical_decision_task_MP_exp2,2020.2.5,Linux armv8l,60,,0,-0.467290582,-0.302001953,1,0,0,0.6838,button_left,0.6838,1,,,,,,324,NW,"ID",33,steikh,STEIKH,z,,,,,,-0.467290582,-0.302001953,1,0,0,,0,81,81,263,1,
,,,,,,,,,,,,,,,,,,5eb4547590acf228f8d965ae,2020-11-26_16h02.48.964,lexical_decision_task_MP_exp2,2020.2.5,Linux armv8l,60,,0,0.413026259,-0.325683594,1,0,0,0.8186,button_right,0.8186,0,,,,,,370,NW,"ID",16,sleact,SLEACT,z,,,,,,0.413026259,-0.325683594,1,0,0,,0,82,82,309,1,
,,,,,,,,,,,,,,,,,,5eb4547590acf228f8d965ae,2020-11-26_16h02.48.964,lexical_decision_task_MP_exp2,2020.2.5,Linux armv8l,60,,0,-0.473475477,-0.292236328,1,0,0,0.9015,button_left,0.9015,1,,,,,,306,NW,"ID",33,sounge,SOUNGE,z,,,,,,-0.473475477,-0.292236328,1,0,0,,0,83,83,245,1,
,,,,,,,,,,,,,,,,,,5eb4547590acf228f8d965ae,2020-11-26_16h02.48.964,lexical_decision_task_MP_exp2,2020.2.5,Linux armv8l,60,,0,0.410964627,-0.321044922,1,0,0,0.8685,button_right,0.8685,1,,,,,,6,WORD,UN,16,anchor,BUNDLE,m,,,,,,0.410964627,-0.321044922,1,0,0,,0,84,84,185,1,
,,,,,,,,,,,,,,,,,,5eb4547590acf228f8d965ae,2020-11-26_16h02.48.964,lexical_decision_task_MP_exp2,2020.2.5,Linux armv8l,60,,0,0.415603299,-0.321289063,1,0,0,0.5867,button_right,0.5867,1,,,,,,21,WORD,UN,16,jockey,SIMPLE,m,,,,,,0.415603299,-0.321289063,1,0,0,,0,85,85,200,1,
,,,,,,,,,,,,,,,,,,5eb4547590acf228f8d965ae,2020-11-26_16h02.48.964,lexical_decision_task_MP_exp2,2020.2.5,Linux armv8l,60,,0,0.411995443,-0.317626953,1,0,0,0.6821,button_right,0.6821,1,,,,,,197,WORD,UN,33,wicked,STREAM,m,,,,,,0.411995443,-0.317626953,1,0,0,,0,86,86,136,1,
,,,,,,,,,,,,,,,,,,5eb4547590acf228f8d965ae,2020-11-26_16h02.48.964,lexical_decision_task_MP_exp2,2020.2.5,Linux armv8l,60,,0,-0.46780599,-0.301513672,1,0,0,0.6658,button_left,0.6658,1,,,,,,329,NW,"ID",33,yarike,YARIKE,z,,,,,,-0.46780599,-0.301513672,1,0,0,,0,87,87,268,1,
,,,,,,,,,,,,,,,,,,5eb4547590acf228f8d965ae,2020-11-26_16h02.48.964,lexical_decision_task_MP_exp2,2020.2.5,Linux armv8l,60,,0,0.411995443,-0.322753906,1,0,0,0.633,button_right,0.633,1,,,,,,143,WORD,"ID",16,reason,REASON,m,,,,,,0.411995443,-0.322753906,1,0,0,,0,88,88,82,1,
,,,,,,,,,,,,,,,,,,5eb4547590acf228f8d965ae,2020-11-26_16h02.48.964,lexical_decision_task_MP_exp2,2020.2.5,Linux armv8l,60,,0,-0.480175781,-0.310302734,1,0,0,0.7828,button_left,0.7828,1,,,,,,344,NW,"ID",33,scrily,SCRILY,z,,,,,,-0.480175781,-0.310302734,1,0,0,,0,89,89,283,1,
,,,,,,,,,,,,,,,,,,5eb4547590acf228f8d965ae,2020-11-26_16h02.48.964,lexical_decision_task_MP_exp2,2020.2.5,Linux armv8l,60,,0,-0.479144965,-0.307373047,1,0,0,0.7005,button_left,0.7005,1,,,,,,465,NW,UN,33,bafent,WHIVEX,z,,,,,,-0.479144965,-0.307373047,1,0,0,,0,90,90,404,1,
,,,,,,,,,,,,,,,,,,5eb4547590acf228f8d965ae,2020-11-26_16h02.48.964,lexical_decision_task_MP_exp2,2020.2.5,Linux armv8l,60,,0,0.407872179,-0.317138672,1,0,0,0.644,button_right,0.644,1,,,,,,150,WORD,"ID",16,random,RANDOM,m,,,,,,0.407872179,-0.317138672,1,0,0,,0,91,91,89,1,
,,,,,,,,,,,,,,,,,,5eb4547590acf228f8d965ae,2020-11-26_16h02.48.964,lexical_decision_task_MP_exp2,2020.2.5,Linux armv8l,60,,0,0.406841363,-0.322265625,1,0,0,0.634,button_right,0.634,1,,,,,,105,WORD,"ID",33,number,NUMBER,m,,,,,,0.406841363,-0.322265625,1,0,0,,0,92,92,44,1,
,,,,,,,,,,,,,,,,,,5eb4547590acf228f8d965ae,2020-11-26_16h02.48.964,lexical_decision_task_MP_exp2,2020.2.5,Linux armv8l,60,,0,0.410449219,-0.318359375,1,0,0,0.6336,button_right,0.6336,1,,,,,,52,WORD,UN,16,police,IMPOSE,m,,,,,,0.410449219,-0.318359375,1,0,0,,0,93,93,231,1,
,,,,,,,,,,,,,,,,,,5eb4547590acf228f8d965ae,2020-11-26_16h02.48.964,lexical_decision_task_MP_exp2,2020.2.5,Linux armv8l,60,,0,-0.46522895,-0.297851563,1,0,0,0.6707,button_left,0.6707,1,,,,,,331,NW,"ID",33,gilfew,GILFEW,z,,,,,,-0.46522895,-0.297851563,1,0,0,,0,94,94,270,1,
,,,,,,,,,,,,,,,,,,5eb4547590acf228f8d965ae,2020-11-26_16h02.48.964,lexical_decision_task_MP_exp2,2020.2.5,Linux armv8l,60,,0,0.413026259,-0.319091797,1,0,0,1.0855,button_right,1.0855,1,,,,,,101,WORD,"ID",33,wrench,WRENCH,m,,,,,,0.413026259,-0.319091797,1,0,0,,0,95,95,40,1,
,,,,,,,,,,,,,,,,,,5eb4547590acf228f8d965ae,2020-11-26_16h02.48.964,lexical_decision_task_MP_exp2,2020.2.5,Linux armv8l,60,,0,-0.451312934,-0.307373047,1,0,0,0.6857,button_left,0.6857,1,,,,,,446,NW,UN,33,gircue,RUNAMO,z,,,,,,-0.451312934,-0.307373047,1,0,0,,0,96,96,385,1,
,,,,,,,,,,,,,,,,,,5eb4547590acf228f8d965ae,2020-11-26_16h02.48.964,lexical_decision_task_MP_exp2,2020.2.5,Linux armv8l,60,,0,0.413541667,-0.318847656,1,0,0,0.6674,button_right,0.6674,1,,,,,,159,WORD,"ID",16,detail,DETAIL,m,,,,,,0.413541667,-0.318847656,1,0,0,,0,97,97,98,1,
,,,,,,,,,,,,,,,,,,5eb4547590acf228f8d965ae,2020-11-26_16h02.48.964,lexical_decision_task_MP_exp2,2020.2.5,Linux armv8l,60,,0,0.409933811,-0.316162109,1,0,0,0.6162,button_right,0.6162,1,,,,,,59,WORD,UN,16,pencil,SPLINT,m,,,,,,0.409933811,-0.316162109,1,0,0,,0,98,98,238,1,
,,,,,,,,,,,,,,,,,,5eb4547590acf228f8d965ae,2020-11-26_16h02.48.964,lexical_decision_task_MP_exp2,2020.2.5,Linux armv8l,60,,0,-0.46007487,-0.314697266,1,0,0,0.6528,button_left,0.6528,1,,,,,,459,NW,UN,33,mingar,BAFENT,z,,,,,,-0.46007487,-0.314697266,1,0,0,,0,99,99,398,1,
,,,,,,,,,,,,,,,,,,5eb4547590acf228f8d965ae,2020-11-26_16h02.48.964,lexical_decision_task_MP_exp2,2020.2.5,Linux armv8l,60,,0,0.410449219,-0.31640625,1,0,0,0.7011,button_right,0.7011,1,,,,,,18,WORD,UN,16,patron,HUMBLE,m,,,,,,0.410449219,-0.31640625,1,0,0,,0,100,100,197,1,
,,,,,,,,,,,,,,,,,,5eb4547590acf228f8d965ae,2020-11-26_16h02.48.964,lexical_decision_task_MP_exp2,2020.2.5,Linux armv8l,60,,0,0.407872179,-0.322265625,1,0,0,0.7847,button_right,0.7847,1,,,,,,31,WORD,UN,16,buckle,WEAPON,m,,,,,,0.407872179,-0.322265625,1,0,0,,0,101,101,210,1,
,,,,,,,,,,,,,,,,,,5eb4547590acf228f8d965ae,2020-11-26_16h02.48.964,lexical_decision_task_MP_exp2,2020.2.5,Linux armv8l,60,,0,0.415087891,-0.313964844,1,0,0,0.9336,button_right,0.9336,1,,,,,,16,WORD,UN,16,charge,FAUCET,m,,,,,,0.415087891,-0.313964844,1,0,0,,0,102,102,195,1,
,,,,,,,,,,,,,,,,,,5eb4547590acf228f8d965ae,2020-11-26_16h02.48.964,lexical_decision_task_MP_exp2,2020.2.5,Linux armv8l,60,,0,0.411480035,-0.313476563,1,0,0,0.7318,button_right,0.7318,1,,,,,,28,WORD,UN,16,sketch,COMEDY,m,,,,,,0.411480035,-0.313476563,1,0,0,,0,103,103,207,1,
,,,,,,,,,,,,,,,,,,5eb4547590acf228f8d965ae,2020-11-26_16h02.48.964,lexical_decision_task_MP_exp2,2020.2.5,Linux armv8l,60,,0,-0.456982422,-0.299072266,1,0,0,0.7511,button_left,0.7511,0,,,,,,176,WORD,"ID",16,strife,STRIFE,m,,,,,,-0.456982422,-0.299072266,1,0,0,,0,104,104,115,1,
,,,,,,,,,,,,,,,,,,5eb4547590acf228f8d965ae,2020-11-26_16h02.48.964,lexical_decision_task_MP_exp2,2020.2.5,Linux armv8l,60,,0,0.406841363,-0.310791016,1,0,0,0.8357,button_right,0.8357,1,,,,,,48,WORD,UN,16,survey,WALNUT,m,,,,,,0.406841363,-0.310791016,1,0,0,,0,105,105,227,1,
,,,,,,,,,,,,,,,,,,5eb4547590acf228f8d965ae,2020-11-26_16h02.48.964,lexical_decision_task_MP_exp2,2020.2.5,Linux armv8l,60,,0,0.409933811,-0.307617188,1,0,0,0.6466,button_right,0.6466,1,,,,,,179,WORD,"ID",16,basket,BASKET,m,,,,,,0.409933811,-0.307617188,1,0,0,,0,106,106,118,1,
,,,,,,,,,,,,,,,,,,5eb4547590acf228f8d965ae,2020-11-26_16h02.48.964,lexical_decision_task_MP_exp2,2020.2.5,Linux armv8l,60,,0,0.377978516,-0.314941406,1,0,0,0.7347,button_right,0.7347,1,,,,,,69,WORD,"ID",33,plenty,PLENTY,m,,,,,,0.377978516,-0.314941406,1,0,0,,0,107,107,8,1,
,,,,,,,,,,,,,,,,,,5eb4547590acf228f8d965ae,2020-11-26_16h02.48.964,lexical_decision_task_MP_exp2,2020.2.5,Linux armv8l,60,,0,0.383132595,-0.312744141,1,0,0,0.6996,button_right,0.6996,1,,,,,,231,WORD,UN,33,inject,EXPORT,m,,,,,,0.383132595,-0.312744141,1,0,0,,0,108,108,170,1,
,,,,,,,,,,,,,,,,,,5eb4547590acf228f8d965ae,2020-11-26_16h02.48.964,lexical_decision_task_MP_exp2,2020.2.5,Linux armv8l,60,,0,0.384163411,-0.314697266,1,0,0,0.7041,button_right,0.7041,1,,,,,,109,WORD,"ID",33,wonder,WONDER,m,,,,,,0.384163411,-0.314697266,1,0,0,,0,109,109,48,1,
,,,,,,,,,,,,,,,,,,5eb4547590acf228f8d965ae,2020-11-26_16h02.48.964,lexical_decision_task_MP_exp2,2020.2.5,Linux armv8l,60,,0,-0.467290582,-0.299804688,1,0,0,0.801,button_left,0.801,1,,,,,,290,NW,UN,16,pretch,SPLINO,z,,,,,,-0.467290582,-0.299804688,1,0,0,,0,110,110,469,1,
,,,,,,,,,,,,,,,,,,5eb4547590acf228f8d965ae,2020-11-26_16h02.48.964,lexical_decision_task_MP_exp2,2020.2.5,Linux armv8l,60,,0,0.385194227,-0.314697266,1,0,0,0.6825,button_right,0.6825,1,,,,,,202,WORD,UN,33,phrase,FACTOR,m,,,,,,0.385194227,-0.314697266,1,0,0,,0,111,111,141,1,
,,,,,,,,,,,,,,,,,,5eb4547590acf228f8d965ae,2020-11-26_16h02.48.964,lexical_decision_task_MP_exp2,2020.2.5,Linux armv8l,60,,0,-0.471929253,-0.315673828,1,0,0,0.735,button_left,0.735,1,,,,,,301,NW,"ID",33,fainch,FAINCH,z,,,,,,-0.471929253,-0.315673828,1,0,0,,0,112,112,240,1,
,,,,,,,,,,,,,,,,,,5eb4547590acf228f8d965ae,2020-11-26_16h02.48.964,lexical_decision_task_MP_exp2,2020.2.5,Linux armv8l,60,,0,0.387255859,-0.314941406,1,0,0,0.7185,button_right,0.7185,1,,,,,,7,WORD,UN,16,abrupt,ANCHOR,m,,,,,,0.387255859,-0.314941406,1,0,0,,0,113,113,186,1,
,,,,,,,,,,,,,,,,,,5eb4547590acf228f8d965ae,2020-11-26_16h02.48.964,lexical_decision_task_MP_exp2,2020.2.5,Linux armv8l,60,,0,0.383132595,-0.321044922,1,0,0,0.8356,button_right,0.8356,1,,,,,,225,WORD,UN,33,casino,VULGAR,m,,,,,,0.383132595,-0.321044922,1,0,0,,0,114,114,164,1,
,,,,,,,,,,,,,,,,,,5eb4547590acf228f8d965ae,2020-11-26_16h02.48.964,lexical_decision_task_MP_exp2,2020.2.5,Linux armv8l,60,,0,-0.460590278,-0.317138672,1,0,0,0.7177,button_left,0.7177,1,,,,,,477,NW,UN,33,lobush,PHOTIE,z,,,,,,-0.460590278,-0.317138672,1,0,0,,0,115,115,416,1,
,,,,,,,,,,,,,,,,,,5eb4547590acf228f8d965ae,2020-11-26_16h02.48.964,lexical_decision_task_MP_exp2,2020.2.5,Linux armv8l,60,,0,-0.471413845,-0.306152344,1,0,0,0.9349,button_left,0.9349,1,,,,,,258,NW,UN,16,soudal,POLUTH,z,,,,,,-0.471413845,-0.306152344,1,0,0,,0,116,116,437,1,
,,,,,,,,,,,,,,,,,,5eb4547590acf228f8d965ae,2020-11-26_16h02.48.964,lexical_decision_task_MP_exp2,2020.2.5,Linux armv8l,60,,0,-0.468321398,-0.306152344,1,0,0,0.8494,button_left,0.8494,1,,,,,,299,NW,UN,16,yarion,STURCH,z,,,,,,-0.468321398,-0.306152344,1,0,0,,0,117,117,478,1,
,,,,,,,,,,,,,,,,,,5eb4547590acf228f8d965ae,2020-11-26_16h02.48.964,lexical_decision_task_MP_exp2,2020.2.5,Linux armv8l,60,,0,0.399110243,-0.326660156,1,0,0,0.8018,button_right,0.8018,0,,,,,,265,NW,UN,16,varmit,DISTAR,z,,,,,,0.399110243,-0.326660156,1,0,0,,0,118,118,444,1,
,,,,,,,,,,,,,,,,,,5eb4547590acf228f8d965ae,2020-11-26_16h02.48.964,lexical_decision_task_MP_exp2,2020.2.5,Linux armv8l,60,,0,-0.456982422,-0.311767578,1,0,0,1.2865,button_left,1.2865,1,,,,,,279,NW,UN,16,curbol,CELOND,z,,,,,,-0.456982422,-0.311767578,1,0,0,,0,119,119,458,1,
,,,,,,,,,,,,,,,,,,5eb4547590acf228f8d965ae,2020-11-26_16h02.48.964,lexical_decision_task_MP_exp2,2020.2.5,Linux armv8l,60,,0,0.403233507,-0.318603516,1,0,0,0.6327,button_right,0.6327,1,,,,,,223,WORD,UN,33,period,KIDNEY,m,,,,,,0.139860026,-0.389160156,1,0,0,,0,120,120,162,1,break_done_button
,,,,,,,,,,,,,,,,,,5eb4547590acf228f8d965ae,2020-11-26_16h02.48.964,lexical_decision_task_MP_exp2,2020.2.5,Linux armv8l,60,,0,-0.396679687,-0.315185547,1,0,0,1.0021,button_left,1.0021,1,,,,,,275,NW,UN,16,yarmon,SLEIRT,z,,,,,,-0.396679687,-0.315185547,1,0,0,,0,121,121,454,1,
,,,,,,,,,,,,,,,,,,5eb4547590acf228f8d965ae,2020-11-26_16h02.48.964,lexical_decision_task_MP_exp2,2020.2.5,Linux armv8l,60,,0,0.419211155,-0.313964844,1,0,0,0.7194,button_right,0.7194,1,,,,,,56,WORD,UN,16,change,AMBUSH,m,,,,,,0.419211155,-0.313964844,1,0,0,,0,122,122,235,1,
,,,,,,,,,,,,,,,,,,5eb4547590acf228f8d965ae,2020-11-26_16h02.48.964,lexical_decision_task_MP_exp2,2020.2.5,Linux armv8l,60,,0,-0.45234375,-0.322753906,1,0,0,0.8523,button_left,0.8523,1,,,,,,266,NW,UN,16,pasink,VARMIT,z,,,,,,-0.45234375,-0.322753906,1,0,0,,0,123,123,445,1,
,,,,,,,,,,,,,,,,,,5eb4547590acf228f8d965ae,2020-11-26_16h02.48.964,lexical_decision_task_MP_exp2,2020.2.5,Linux armv8l,60,,0,0.409933811,-0.311767578,1,0,0,0.6493,button_right,0.6493,1,,,,,,88,WORD,"ID",33,hunger,HUNGER,m,,,,,,0.409933811,-0.311767578,1,0,0,,0,124,124,27,1,
,,,,,,,,,,,,,,,,,,5eb4547590acf228f8d965ae,2020-11-26_16h02.48.964,lexical_decision_task_MP_exp2,2020.2.5,Linux armv8l,60,,0,-0.450282118,-0.313720703,1,0,0,0.7002,button_left,0.7002,1,,,,,,380,NW,"ID",16,cavory,CAVORY,z,,,,,,-0.450282118,-0.313720703,1,0,0,,0,125,125,319,1,
,,,,,,,,,,,,,,,,,,5eb4547590acf228f8d965ae,2020-11-26_16h02.48.964,lexical_decision_task_MP_exp2,2020.2.5,Linux armv8l,60,,0,0.411995443,-0.323730469,1,0,0,0.8513,button_right,0.8513,1,,,,,,216,WORD,UN,33,liquor,BEHALF,m,,,,,,0.411995443,-0.323730469,1,0,0,,0,126,126,155,1,
,,,,,,,,,,,,,,,,,,5eb4547590acf228f8d965ae,2020-11-26_16h02.48.964,lexical_decision_task_MP_exp2,2020.2.5,Linux armv8l,60,,0,0.407872179,-0.329589844,1,0,0,1.1534,button_right,1.1534,0,,,,,,413,NW,"ID",16,equats,EQUATS,z,,,,,,0.407872179,-0.329589844,1,0,0,,0,127,127,352,1,
,,,,,,,,,,,,,,,,,,5eb4547590acf228f8d965ae,2020-11-26_16h02.48.964,lexical_decision_task_MP_exp2,2020.2.5,Linux armv8l,60,,0,0.403748915,-0.321533203,1,0,0,0.718,button_right,0.718,1,,,,,,116,WORD,"ID",33,tumble,TUMBLE,m,,,,,,0.403748915,-0.321533203,1,0,0,,0,128,128,55,1,
,,,,,,,,,,,,,,,,,,5eb4547590acf228f8d965ae,2020-11-26_16h02.48.964,lexical_decision_task_MP_exp2,2020.2.5,Linux armv8l,60,,0,0.406841363,-0.329101563,1,0,0,0.5984,button_right,0.5984,1,,,,,,72,WORD,"ID",33,bright,BRIGHT,m,,,,,,0.406841363,-0.329101563,1,0,0,,0,129,129,11,1,
,,,,,,,,,,,,,,,,,,5eb4547590acf228f8d965ae,2020-11-26_16h02.48.964,lexical_decision_task_MP_exp2,2020.2.5,Linux armv8l,60,,0,-0.459044054,-0.305908203,1,0,0,0.9192,button_left,0.9192,1,,,,,,286,NW,UN,16,nymbel,RELDON,z,,,,,,-0.459044054,-0.305908203,1,0,0,,0,130,130,465,1,
,,,,,,,,,,,,,,,,,,5eb4547590acf228f8d965ae,2020-11-26_16h02.48.964,lexical_decision_task_MP_exp2,2020.2.5,Linux armv8l,60,,0,0.399625651,-0.321044922,1,0,0,0.7007,button_right,0.7007,1,,,,,,92,WORD,"ID",33,strand,STRAND,m,,,,,,0.399625651,-0.321044922,1,0,0,,0,131,131,31,1,
,,,,,,,,,,,,,,,,,,5eb4547590acf228f8d965ae,2020-11-26_16h02.48.964,lexical_decision_task_MP_exp2,2020.2.5,Linux armv8l,60,,0,-0.445128038,-0.314697266,1,0,0,1.1855,button_left,1.1855,1,,,,,,445,NW,UN,33,runamo,MINKEL,z,,,,,,-0.445128038,-0.314697266,1,0,0,,0,132,132,384,1,
,,,,,,,,,,,,,,,,,,5eb4547590acf228f8d965ae,2020-11-26_16h02.48.964,lexical_decision_task_MP_exp2,2020.2.5,Linux armv8l,60,,0,0.396533203,-0.330566406,1,0,0,0.6999,button_right,0.6999,1,,,,,,204,WORD,UN,33,lounge,BURDEN,m,,,,,,0.396533203,-0.330566406,1,0,0,,0,133,133,143,1,
,,,,,,,,,,,,,,,,,,5eb4547590acf228f8d965ae,2020-11-26_16h02.48.964,lexical_decision_task_MP_exp2,2020.2.5,Linux armv8l,60,,0,-0.424511719,-0.312255859,1,0,0,0.8854,button_left,0.8854,1,,,,,,448,NW,UN,33,brunge,SADENT,z,,,,,,-0.424511719,-0.312255859,1,0,0,,0,134,134,387,1,
,,,,,,,,,,,,,,,,,,5eb4547590acf228f8d965ae,2020-11-26_16h02.48.964,lexical_decision_task_MP_exp2,2020.2.5,Linux armv8l,60,,0,-0.430181207,-0.3203125,1,0,0,0.7522,button_left,0.7522,1,,,,,,420,NW,"ID",16,gushop,GUSHOP,z,,,,,,-0.430181207,-0.3203125,1,0,0,,0,135,135,359,1,
,,,,,,,,,,,,,,,,,,5eb4547590acf228f8d965ae,2020-11-26_16h02.48.964,lexical_decision_task_MP_exp2,2020.2.5,Linux armv8l,60,,0,0.400141059,-0.328613281,1,0,0,0.7356,button_right,0.7356,1,,,,,,232,WORD,UN,33,nature,INJECT,m,,,,,,0.400141059,-0.328613281,1,0,0,,0,136,136,171,1,
,,,,,,,,,,,,,,,,,,5eb4547590acf228f8d965ae,2020-11-26_16h02.48.964,lexical_decision_task_MP_exp2,2020.2.5,Linux armv8l,60,,0,0.406325955,-0.322998047,1,0,0,0.6841,button_right,0.6841,1,,,,,,155,WORD,"ID",16,lizard,LIZARD,m,,,,,,0.406325955,-0.322998047,1,0,0,,0,137,137,94,1,
,,,,,,,,,,,,,,,,,,5eb4547590acf228f8d965ae,2020-11-26_16h02.48.964,lexical_decision_task_MP_exp2,2020.2.5,Linux armv8l,60,,0,0.403748915,-0.316162109,1,0,0,0.7676,button_right,0.7676,1,,,,,,134,WORD,"ID",16,staple,STAPLE,m,,,,,,0.403748915,-0.316162109,1,0,0,,0,138,138,73,1,
,,,,,,,,,,,,,,,,,,5eb4547590acf228f8d965ae,2020-11-26_16h02.48.964,lexical_decision_task_MP_exp2,2020.2.5,Linux armv8l,60,,0,0.398079427,-0.321533203,1,0,0,0.6854,button_right,0.6854,1,,,,,,50,WORD,UN,16,hungry,SNATCH,m,,,,,,0.398079427,-0.321533203,1,0,0,,0,139,139,229,1,
,,,,,,,,,,,,,,,,,,5eb4547590acf228f8d965ae,2020-11-26_16h02.48.964,lexical_decision_task_MP_exp2,2020.2.5,Linux armv8l,60,,0,0.402202691,-0.327392578,1,0,0,0.7167,button_right,0.7167,1,,,,,,20,WORD,UN,16,simple,BREAST,m,,,,,,0.402202691,-0.327392578,1,0,0,,0,140,140,199,1,
,,,,,,,,,,,,,,,,,,5eb4547590acf228f8d965ae,2020-11-26_16h02.48.964,lexical_decision_task_MP_exp2,2020.2.5,Linux armv8l,60,,0,0.402202691,-0.323730469,1,0,0,0.7355,button_right,0.7355,1,,,,,,162,WORD,"ID",16,candle,CANDLE,m,,,,,,0.402202691,-0.323730469,1,0,0,,0,141,141,101,1,
,,,,,,,,,,,,,,,,,,5eb4547590acf228f8d965ae,2020-11-26_16h02.48.964,lexical_decision_task_MP_exp2,2020.2.5,Linux armv8l,60,,0,0.405810547,-0.318847656,1,0,0,0.7513,button_right,0.7513,1,,,,,,25,WORD,UN,16,sprint,DOMAIN,m,,,,,,0.405810547,-0.318847656,1,0,0,,0,142,142,204,1,
,,,,,,,,,,,,,,,,,,5eb4547590acf228f8d965ae,2020-11-26_16h02.48.964,lexical_decision_task_MP_exp2,2020.2.5,Linux armv8l,60,,0,-0.438943142,-0.302978516,1,0,0,0.866,button_left,0.866,1,,,,,,418,NW,"ID",16,suidle,SUIDLE,z,,,,,,-0.438943142,-0.302978516,1,0,0,,0,143,143,357,1,
,,,,,,,,,,,,,,,,,,5eb4547590acf228f8d965ae,2020-11-26_16h02.48.964,lexical_decision_task_MP_exp2,2020.2.5,Linux armv8l,60,,0,0.410449219,-0.322509766,1,0,0,0.7668,button_right,0.7668,1,,,,,,118,WORD,"ID",33,flight,FLIGHT,m,,,,,,0.410449219,-0.322509766,1,0,0,,0,144,144,57,1,
,,,,,,,,,,,,,,,,,,5eb4547590acf228f8d965ae,2020-11-26_16h02.48.964,lexical_decision_task_MP_exp2,2020.2.5,Linux armv8l,60,,0,0.406841363,-0.331054688,1,0,0,0.8689,button_right,0.8689,1,,,,,,103,WORD,"ID",33,bounce,BOUNCE,m,,,,,,0.406841363,-0.331054688,1,0,0,,0,145,145,42,1,
,,,,,,,,,,,,,,,,,,5eb4547590acf228f8d965ae,2020-11-26_16h02.48.964,lexical_decision_task_MP_exp2,2020.2.5,Linux armv8l,60,,0,-0.427604167,-0.318115234,1,0,0,0.7849,button_left,0.7849,1,,,,,,363,NW,"ID",16,breali,BREALI,z,,,,,,-0.427604167,-0.318115234,1,0,0,,0,146,146,302,1,
,,,,,,,,,,,,,,,,,,5eb4547590acf228f8d965ae,2020-11-26_16h02.48.964,lexical_decision_task_MP_exp2,2020.2.5,Linux armv8l,60,,0,-0.431727431,-0.321777344,1,0,0,0.8341,button_left,0.8341,1,,,,,,274,NW,UN,16,sleirt,FUMBLO,z,,,,,,-0.431727431,-0.321777344,1,0,0,,0,147,147,453,1,
,,,,,,,,,,,,,,,,,,5eb4547590acf228f8d965ae,2020-11-26_16h02.48.964,lexical_decision_task_MP_exp2,2020.2.5,Linux armv8l,60,,0,0.405810547,-0.31640625,1,0,0,0.7007,button_right,0.7007,1,,,,,,4,WORD,UN,16,plunge,TRENCH,m,,,,,,0.405810547,-0.31640625,1,0,0,,0,148,148,183,1,
,,,,,,,,,,,,,,,,,,5eb4547590acf228f8d965ae,2020-11-26_16h02.48.964,lexical_decision_task_MP_exp2,2020.2.5,Linux armv8l,60,,0,0.405295139,-0.317626953,1,0,0,0.7168,button_right,0.7168,1,,,,,,32,WORD,UN,16,scream,BUCKLE,m,,,,,,0.405295139,-0.317626953,1,0,0,,0,149,149,211,1,
,,,,,,,,,,,,,,,,,,5eb4547590acf228f8d965ae,2020-11-26_16h02.48.964,lexical_decision_task_MP_exp2,2020.2.5,Linux armv8l,60,,0,-0.427088759,-0.316650391,1,0,0,0.7186,button_left,0.7186,1,,,,,,296,NW,UN,16,fertic,BEINCH,z,,,,,,-0.427088759,-0.316650391,1,0,0,,0,150,150,475,1,
,,,,,,,,,,,,,,,,,,5eb4547590acf228f8d965ae,2020-11-26_16h02.48.964,lexical_decision_task_MP_exp2,2020.2.5,Linux armv8l,60,,0,-0.437396918,-0.316162109,1,0,0,0.9188,button_left,0.9188,1,,,,,,294,NW,UN,16,gleath,INHORT,z,,,,,,-0.437396918,-0.316162109,1,0,0,,0,151,151,473,1,
,,,,,,,,,,,,,,,,,,5eb4547590acf228f8d965ae,2020-11-26_16h02.48.964,lexical_decision_task_MP_exp2,2020.2.5,Linux armv8l,60,,0,-0.423480903,-0.318115234,1,0,0,0.7508,button_left,0.7508,1,,,,,,415,NW,"ID",16,higsta,HIGSTA,z,,,,,,-0.423480903,-0.318115234,1,0,0,,0,152,152,354,1,
,,,,,,,,,,,,,,,,,,5eb4547590acf228f8d965ae,2020-11-26_16h02.48.964,lexical_decision_task_MP_exp2,2020.2.5,Linux armv8l,60,,0,0.413026259,-0.317138672,1,0,0,0.8682,button_right,0.8682,1,,,,,,227,WORD,UN,33,master,SELDOM,m,,,,,,0.413026259,-0.317138672,1,0,0,,0,153,153,166,1,
,,,,,,,,,,,,,,,,,,5eb4547590acf228f8d965ae,2020-11-26_16h02.48.964,lexical_decision_task_MP_exp2,2020.2.5,Linux armv8l,60,,0,-0.431212023,-0.299804688,1,0,0,0.8011,button_left,0.8011,1,,,,,,360,NW,"ID",33,desory,DESORY,z,,,,,,-0.431212023,-0.299804688,1,0,0,,0,154,154,299,1,
,,,,,,,,,,,,,,,,,,5eb4547590acf228f8d965ae,2020-11-26_16h02.48.964,lexical_decision_task_MP_exp2,2020.2.5,Linux armv8l,60,,0,0.410449219,-0.318115234,1,0,0,0.7491,button_right,0.7491,1,,,,,,129,WORD,"ID",16,marvel,MARVEL,m,,,,,,0.410449219,-0.318115234,1,0,0,,0,155,155,68,1,
,,,,,,,,,,,,,,,,,,5eb4547590acf228f8d965ae,2020-11-26_16h02.48.964,lexical_decision_task_MP_exp2,2020.2.5,Linux armv8l,60,,0,0.408902995,-0.317382813,1,0,0,0.9013,button_right,0.9013,1,,,,,,65,WORD,"ID",33,symbol,SYMBOL,m,,,,,,0.408902995,-0.317382813,1,0,0,,0,156,156,4,1,
,,,,,,,,,,,,,,,,,,5eb4547590acf228f8d965ae,2020-11-26_16h02.48.964,lexical_decision_task_MP_exp2,2020.2.5,Linux armv8l,60,,0,0.411480035,-0.323730469,1,0,0,0.7058,button_right,0.7058,1,,,,,,14,WORD,UN,16,orange,ALMOST,m,,,,,,0.411480035,-0.323730469,1,0,0,,0,157,157,193,1,
,,,,,,,,,,,,,,,,,,5eb4547590acf228f8d965ae,2020-11-26_16h02.48.964,lexical_decision_task_MP_exp2,2020.2.5,Linux armv8l,60,,0,0.405295139,-0.322021484,1,0,0,0.6664,button_right,0.6664,1,,,,,,23,WORD,UN,16,praise,WEALTH,m,,,,,,0.405295139,-0.322021484,1,0,0,,0,158,158,202,1,
,,,,,,,,,,,,,,,,,,5eb4547590acf228f8d965ae,2020-11-26_16h02.48.964,lexical_decision_task_MP_exp2,2020.2.5,Linux armv8l,60,,0,0.405810547,-0.329345703,1,0,0,0.6179,button_right,0.6179,1,,,,,,146,WORD,"ID",16,couple,COUPLE,m,,,,,,0.405810547,-0.329345703,1,0,0,,0,159,159,85,1,
,,,,,,,,,,,,,,,,,,5eb4547590acf228f8d965ae,2020-11-26_16h02.48.964,lexical_decision_task_MP_exp2,2020.2.5,Linux armv8l,60,,0,-0.415749783,-0.315185547,1,0,0,0.8022,button_left,0.8022,1,,,,,,421,NW,UN,33,alcoud,KNISMA,z,,,,,,-0.415749783,-0.315185547,1,0,0,,0,160,160,360,1,
,,,,,,,,,,,,,,,,,,5eb4547590acf228f8d965ae,2020-11-26_16h02.48.964,lexical_decision_task_MP_exp2,2020.2.5,Linux armv8l,60,,0,0.402202691,-0.319091797,1,0,0,0.718,button_right,0.718,1,,,,,,83,WORD,"ID",33,result,RESULT,m,,,,,,0.402202691,-0.319091797,1,0,0,,0,161,161,22,1,
,,,,,,,,,,,,,,,,,,5eb4547590acf228f8d965ae,2020-11-26_16h02.48.964,lexical_decision_task_MP_exp2,2020.2.5,Linux armv8l,60,,0,-0.423480903,-0.314208984,1,0,0,0.7363,button_left,0.7363,1,,,,,,390,NW,"ID",16,hatrus,HATRUS,z,,,,,,-0.423480903,-0.314208984,1,0,0,,0,162,162,329,1,
,,,,,,,,,,,,,,,,,,5eb4547590acf228f8d965ae,2020-11-26_16h02.48.964,lexical_decision_task_MP_exp2,2020.2.5,Linux armv8l,60,,0,-0.421419271,-0.316894531,1,0,0,0.6829,button_left,0.6829,1,,,,,,241,NW,UN,16,unwert,SMENCO,z,,,,,,-0.421419271,-0.316894531,1,0,0,,0,163,163,420,1,
,,,,,,,,,,,,,,,,,,5eb4547590acf228f8d965ae,2020-11-26_16h02.48.964,lexical_decision_task_MP_exp2,2020.2.5,Linux armv8l,60,,0,-0.426573351,-0.314941406,1,0,0,0.6683,button_left,0.6683,1,,,,,,287,NW,UN,16,yaceup,NYMBEL,z,,,,,,-0.426573351,-0.314941406,1,0,0,,0,164,164,466,1,
,,,,,,,,,,,,,,,,,,5eb4547590acf228f8d965ae,2020-11-26_16h02.48.964,lexical_decision_task_MP_exp2,2020.2.5,Linux armv8l,60,,0,-0.423480903,-0.314208984,1,0,0,0.6984,button_left,0.6984,1,,,,,,466,NW,UN,33,robuly,HOCITE,z,,,,,,-0.423480903,-0.314208984,1,0,0,,0,165,165,405,1,
,,,,,,,,,,,,,,,,,,5eb4547590acf228f8d965ae,2020-11-26_16h02.48.964,lexical_decision_task_MP_exp2,2020.2.5,Linux armv8l,60,,0,-0.420903863,-0.310791016,1,0,0,0.6841,button_left,0.6841,1,,,,,,243,NW,UN,16,eatric,MUSIED,z,,,,,,-0.420903863,-0.310791016,1,0,0,,0,166,166,422,1,
,,,,,,,,,,,,,,,,,,5eb4547590acf228f8d965ae,2020-11-26_16h02.48.964,lexical_decision_task_MP_exp2,2020.2.5,Linux armv8l,60,,0,0.407356771,-0.312255859,1,0,0,0.6504,button_right,0.6504,1,,,,,,80,WORD,"ID",33,family,FAMILY,m,,,,,,0.407356771,-0.312255859,1,0,0,,0,167,167,19,1,
,,,,,,,,,,,,,,,,,,5eb4547590acf228f8d965ae,2020-11-26_16h02.48.964,lexical_decision_task_MP_exp2,2020.2.5,Linux armv8l,60,,0,-0.428119575,-0.311523438,1,0,0,0.6826,button_left,0.6826,1,,,,,,283,NW,UN,16,shaple,VERALF,z,,,,,,-0.428119575,-0.311523438,1,0,0,,0,168,168,462,1,
,,,,,,,,,,,,,,,,,,5eb4547590acf228f8d965ae,2020-11-26_16h02.48.964,lexical_decision_task_MP_exp2,2020.2.5,Linux armv8l,60,,0,0.384678819,-0.3203125,1,0,0,0.8521,button_right,0.8521,1,,,,,,226,WORD,UN,33,flower,CASINO,m,,,,,,0.384678819,-0.3203125,1,0,0,,0,169,169,165,1,
,,,,,,,,,,,,,,,,,,5eb4547590acf228f8d965ae,2020-11-26_16h02.48.964,lexical_decision_task_MP_exp2,2020.2.5,Linux armv8l,60,,0,0.38210178,-0.318115234,1,0,0,0.6501,button_right,0.6501,1,,,,,,182,WORD,UN,33,absent,WINTER,m,,,,,,0.38210178,-0.318115234,1,0,0,,0,170,170,121,1,
,,,,,,,,,,,,,,,,,,5eb4547590acf228f8d965ae,2020-11-26_16h02.48.964,lexical_decision_task_MP_exp2,2020.2.5,Linux armv8l,60,,0,0.394986979,-0.319824219,1,0,0,0.884,button_right,0.884,1,,,,,,114,WORD,"ID",33,placid,PLACID,m,,,,,,0.394986979,-0.319824219,1,0,0,,0,171,171,53,1,
,,,,,,,,,,,,,,,,,,5eb4547590acf228f8d965ae,2020-11-26_16h02.48.964,lexical_decision_task_MP_exp2,2020.2.5,Linux armv8l,60,,0,0.384678819,-0.318603516,1,0,0,0.6507,button_right,0.6507,1,,,,,,43,WORD,UN,16,foster,TONGUE,m,,,,,,0.384678819,-0.318603516,1,0,0,,0,172,172,222,1,
,,,,,,,,,,,,,,,,,,5eb4547590acf228f8d965ae,2020-11-26_16h02.48.964,lexical_decision_task_MP_exp2,2020.2.5,Linux armv8l,60,,0,-0.433273655,-0.311035156,1,0,0,0.819,button_left,0.819,1,,,,,,401,NW,"ID",16,mustil,MUSTIL,z,,,,,,-0.433273655,-0.311035156,1,0,0,,0,173,173,340,1,
,,,,,,,,,,,,,,,,,,5eb4547590acf228f8d965ae,2020-11-26_16h02.48.964,lexical_decision_task_MP_exp2,2020.2.5,Linux armv8l,60,,0,0.394986979,-0.319091797,1,0,0,0.7503,button_right,0.7503,0,,,,,,348,NW,"ID",33,dumple,DUMPLE,z,,,,,,0.394986979,-0.319091797,1,0,0,,0,174,174,287,1,
,,,,,,,,,,,,,,,,,,5eb4547590acf228f8d965ae,2020-11-26_16h02.48.964,lexical_decision_task_MP_exp2,2020.2.5,Linux armv8l,60,,0,0.37952474,-0.310546875,1,0,0,0.8189,button_right,0.8189,1,,,,,,152,WORD,"ID",16,rocket,ROCKET,m,,,,,,0.37952474,-0.310546875,1,0,0,,0,175,175,91,1,
,,,,,,,,,,,,,,,,,,5eb4547590acf228f8d965ae,2020-11-26_16h02.48.964,lexical_decision_task_MP_exp2,2020.2.5,Linux armv8l,60,,0,-0.398225911,-0.289550781,1,0,0,0.8688,button_left,0.8688,1,,,,,,417,NW,"ID",16,earoud,EAROUD,z,,,,,,-0.398225911,-0.289550781,1,0,0,,0,176,176,356,1,
,,,,,,,,,,,,,,,,,,5eb4547590acf228f8d965ae,2020-11-26_16h02.48.964,lexical_decision_task_MP_exp2,2020.2.5,Linux armv8l,60,,0,0.392409939,-0.309814453,1,0,0,0.7691,button_right,0.7691,1,,,,,,209,WORD,UN,33,monkey,SEARCH,m,,,,,,0.392409939,-0.309814453,1,0,0,,0,177,177,148,1,
,,,,,,,,,,,,,,,,,,5eb4547590acf228f8d965ae,2020-11-26_16h02.48.964,lexical_decision_task_MP_exp2,2020.2.5,Linux armv8l,60,,0,-0.455436198,-0.295166016,1,0,0,1.0693,button_left,1.0693,1,,,,,,245,NW,UN,16,piaton,ANOUGS,z,,,,,,-0.455436198,-0.295166016,1,0,0,,0,178,178,424,1,
,,,,,,,,,,,,,,,,,,5eb4547590acf228f8d965ae,2020-11-26_16h02.48.964,lexical_decision_task_MP_exp2,2020.2.5,Linux armv8l,60,,0,0.400141059,-0.311279297,1,0,0,1.122,button_right,1.122,1,,,,,,68,WORD,"ID",33,fumble,FUMBLE,m,,,,,,0.400141059,-0.311279297,1,0,0,,0,179,179,7,1,
,,,,,,,,,,,,,,,,,,5eb4547590acf228f8d965ae,2020-11-26_16h02.48.964,lexical_decision_task_MP_exp2,2020.2.5,Linux armv8l,60,,0,0.393956163,-0.313232422,1,0,0,0.6664,button_right,0.6664,1,,,,,,233,WORD,UN,33,clumsy,NATURE,m,,,,,,0.393956163,-0.313232422,1,0,0,,0,180,180,172,1,
,,,,,,,,,,,,,,,,,,5eb4547590acf228f8d965ae,2020-11-26_16h02.48.964,lexical_decision_task_MP_exp2,2020.2.5,Linux armv8l,60,,0,0.395502387,-0.323486328,1,0,0,0.7685,button_right,0.7685,1,,,,,,184,WORD,UN,33,bother,SLEAZY,m,,,,,,0.395502387,-0.323486328,1,0,0,,0,181,181,123,1,
,,,,,,,,,,,,,,,,,,5eb4547590acf228f8d965ae,2020-11-26_16h02.48.964,lexical_decision_task_MP_exp2,2020.2.5,Linux armv8l,60,,0,0.390348307,-0.318115234,1,0,0,0.6179,button_right,0.6179,1,,,,,,180,WORD,"ID",16,silent,SILENT,m,,,,,,0.390348307,-0.318115234,1,0,0,,0,182,182,119,1,
,,,,,,,,,,,,,,,,,,5eb4547590acf228f8d965ae,2020-11-26_16h02.48.964,lexical_decision_task_MP_exp2,2020.2.5,Linux armv8l,60,,0,0.394471571,-0.324707031,1,0,0,0.6467,button_right,0.6467,1,,,,,,39,WORD,UN,16,convey,INSECT,m,,,,,,0.394471571,-0.324707031,1,0,0,,0,183,183,218,1,
,,,,,,,,,,,,,,,,,,5eb4547590acf228f8d965ae,2020-11-26_16h02.48.964,lexical_decision_task_MP_exp2,2020.2.5,Linux armv8l,60,,0,0.397564019,-0.321533203,1,0,0,0.8374,button_right,0.8374,1,,,,,,37,WORD,UN,16,powder,INSULT,m,,,,,,0.397564019,-0.321533203,1,0,0,,0,184,184,216,1,
,,,,,,,,,,,,,,,,,,5eb4547590acf228f8d965ae,2020-11-26_16h02.48.964,lexical_decision_task_MP_exp2,2020.2.5,Linux armv8l,60,,0,-0.44976671,-0.302978516,1,0,0,0.783,button_left,0.783,1,,,,,,295,NW,UN,16,beinch,GLEATH,z,,,,,,-0.44976671,-0.302978516,1,0,0,,0,185,185,474,1,
,,,,,,,,,,,,,,,,,,5eb4547590acf228f8d965ae,2020-11-26_16h02.48.964,lexical_decision_task_MP_exp2,2020.2.5,Linux armv8l,60,,0,-0.455436198,-0.306152344,1,0,0,1.0868,button_left,1.0868,1,,,,,,398,NW,"ID",16,blunde,BLUNDE,z,,,,,,-0.455436198,-0.306152344,1,0,0,,0,186,186,337,1,
,,,,,,,,,,,,,,,,,,5eb4547590acf228f8d965ae,2020-11-26_16h02.48.964,lexical_decision_task_MP_exp2,2020.2.5,Linux armv8l,60,,0,-0.451828342,-0.307617188,1,0,0,0.833,button_left,0.833,1,,,,,,312,NW,"ID",33,nerawl,NERAWL,z,,,,,,-0.451828342,-0.307617188,1,0,0,,0,187,187,251,1,
,,,,,,,,,,,,,,,,,,5eb4547590acf228f8d965ae,2020-11-26_16h02.48.964,lexical_decision_task_MP_exp2,2020.2.5,Linux armv8l,60,,0,0.392925347,-0.328857422,1,0,0,0.6991,button_right,0.6991,1,,,,,,47,WORD,UN,16,walnut,INCOME,m,,,,,,0.392925347,-0.328857422,1,0,0,,0,188,188,226,1,
,,,,,,,,,,,,,,,,,,5eb4547590acf228f8d965ae,2020-11-26_16h02.48.964,lexical_decision_task_MP_exp2,2020.2.5,Linux armv8l,60,,0,0.392925347,-0.307128906,1,0,0,0.8339,button_right,0.8339,1,,,,,,218,WORD,UN,33,bucket,SHRINK,m,,,,,,0.392925347,-0.307128906,1,0,0,,0,189,189,157,1,
,,,,,,,,,,,,,,,,,,5eb4547590acf228f8d965ae,2020-11-26_16h02.48.964,lexical_decision_task_MP_exp2,2020.2.5,Linux armv8l,60,,0,-0.437912326,-0.311767578,1,0,0,0.7684,button_left,0.7684,1,,,,,,393,NW,"ID",16,ganous,GANOUS,z,,,,,,-0.437912326,-0.311767578,1,0,0,,0,190,190,332,1,
,,,,,,,,,,,,,,,,,,5eb4547590acf228f8d965ae,2020-11-26_16h02.48.964,lexical_decision_task_MP_exp2,2020.2.5,Linux armv8l,60,,0,0.390863715,-0.323242188,1,0,0,0.648,button_right,0.648,1,,,,,,15,WORD,UN,16,faucet,AMOUNT,m,,,,,,0.390863715,-0.323242188,1,0,0,,0,191,191,194,1,
,,,,,,,,,,,,,,,,,,5eb4547590acf228f8d965ae,2020-11-26_16h02.48.964,lexical_decision_task_MP_exp2,2020.2.5,Linux armv8l,60,,0,-0.442550998,-0.316894531,1,0,0,1.1029,button_left,1.1029,1,,,,,,473,NW,UN,33,hablin,CRIBLE,z,,,,,,-0.442550998,-0.316894531,1,0,0,,0,192,192,412,1,
,,,,,,,,,,,,,,,,,,5eb4547590acf228f8d965ae,2020-11-26_16h02.48.964,lexical_decision_task_MP_exp2,2020.2.5,Linux armv8l,60,,0,0.398594835,-0.309570313,1,0,0,0.8,button_right,0.8,1,,,,,,154,WORD,"ID",16,author,AUTHOR,m,,,,,,0.398594835,-0.309570313,1,0,0,,0,193,193,93,1,
,,,,,,,,,,,,,,,,,,5eb4547590acf228f8d965ae,2020-11-26_16h02.48.964,lexical_decision_task_MP_exp2,2020.2.5,Linux armv8l,60,,0,0.393956163,-0.301025391,1,0,0,0.6349,button_right,0.6349,1,,,,,,34,WORD,UN,16,socket,JUNGLE,m,,,,,,0.393956163,-0.301025391,1,0,0,,0,194,194,213,1,
,,,,,,,,,,,,,,,,,,5eb4547590acf228f8d965ae,2020-11-26_16h02.48.964,lexical_decision_task_MP_exp2,2020.2.5,Linux armv8l,60,,0,-0.43688151,-0.296875,1,0,0,0.7512,button_left,0.7512,1,,,,,,430,NW,UN,33,chrums,CAROEY,z,,,,,,-0.43688151,-0.296875,1,0,0,,0,195,195,369,1,
,,,,,,,,,,,,,,,,,,5eb4547590acf228f8d965ae,2020-11-26_16h02.48.964,lexical_decision_task_MP_exp2,2020.2.5,Linux armv8l,60,,0,0.388802083,-0.318603516,1,0,0,0.8513,button_right,0.8513,1,,,,,,10,WORD,UN,16,cruise,ETHNIC,m,,,,,,0.388802083,-0.318603516,1,0,0,,0,196,196,189,1,
,,,,,,,,,,,,,,,,,,5eb4547590acf228f8d965ae,2020-11-26_16h02.48.964,lexical_decision_task_MP_exp2,2020.2.5,Linux armv8l,60,,0,0.391379123,-0.310058594,1,0,0,0.9517,button_right,0.9517,1,,,,,,45,WORD,UN,16,single,CLERGY,m,,,,,,0.391379123,-0.310058594,1,0,0,,0,197,197,224,1,
,,,,,,,,,,,,,,,,,,5eb4547590acf228f8d965ae,2020-11-26_16h02.48.964,lexical_decision_task_MP_exp2,2020.2.5,Linux armv8l,60,,0,0.395502387,-0.311279297,1,0,0,0.7687,button_right,0.7687,1,,,,,,121,WORD,"ID",16,thrive,THRIVE,m,,,,,,0.395502387,-0.311279297,1,0,0,,0,198,198,60,1,
,,,,,,,,,,,,,,,,,,5eb4547590acf228f8d965ae,2020-11-26_16h02.48.964,lexical_decision_task_MP_exp2,2020.2.5,Linux armv8l,60,,0,-0.435850694,-0.311279297,1,0,0,0.8503,button_left,0.8503,1,,,,,,476,NW,UN,33,photie,JOSTED,z,,,,,,-0.435850694,-0.311279297,1,0,0,,0,199,199,415,1,
,,,,,,,,,,,,,,,,,,5eb4547590acf228f8d965ae,2020-11-26_16h02.48.964,lexical_decision_task_MP_exp2,2020.2.5,Linux armv8l,60,,0,-0.441004774,-0.307617188,1,0,0,0.7844,button_left,0.7844,1,,,,,,347,NW,"ID",33,kerift,KERIFT,z,,,,,,-0.441004774,-0.307617188,1,0,0,,0,200,200,286,1,
,,,,,,,,,,,,,,,,,,5eb4547590acf228f8d965ae,2020-11-26_16h02.48.964,lexical_decision_task_MP_exp2,2020.2.5,Linux armv8l,60,,0,0.37952474,-0.314208984,1,0,0,0.751,button_right,0.751,1,,,,,,29,WORD,UN,16,orient,SKETCH,m,,,,,,0.37952474,-0.314208984,1,0,0,,0,201,201,208,1,
,,,,,,,,,,,,,,,,,,5eb4547590acf228f8d965ae,2020-11-26_16h02.48.964,lexical_decision_task_MP_exp2,2020.2.5,Linux armv8l,60,,0,-0.433789062,-0.29296875,1,0,0,0.8856,button_left,0.8856,1,,,,,,419,NW,"ID",16,slount,SLOUNT,z,,,,,,-0.433789062,-0.29296875,1,0,0,,0,202,202,358,1,
,,,,,,,,,,,,,,,,,,5eb4547590acf228f8d965ae,2020-11-26_16h02.48.964,lexical_decision_task_MP_exp2,2020.2.5,Linux armv8l,60,,0,-0.44718967,-0.304443359,1,0,0,0.9516,button_left,0.9516,1,,,,,,369,NW,"ID",16,wronch,WRONCH,z,,,,,,-0.44718967,-0.304443359,1,0,0,,0,203,203,308,1,
,,,,,,,,,,,,,,,,,,5eb4547590acf228f8d965ae,2020-11-26_16h02.48.964,lexical_decision_task_MP_exp2,2020.2.5,Linux armv8l,60,,0,-0.43430447,-0.301269531,1,0,0,0.8357,button_left,0.8357,1,,,,,,383,NW,"ID",16,aungre,AUNGRE,z,,,,,,-0.43430447,-0.301269531,1,0,0,,0,204,204,322,1,
,,,,,,,,,,,,,,,,,,5eb4547590acf228f8d965ae,2020-11-26_16h02.48.964,lexical_decision_task_MP_exp2,2020.2.5,Linux armv8l,60,,0,0.384678819,-0.314697266,1,0,0,1.2867,button_right,1.2867,1,,,,,,148,WORD,"ID",16,custom,CUSTOM,m,,,,,,0.384678819,-0.314697266,1,0,0,,0,205,205,87,1,
,,,,,,,,,,,,,,,,,,5eb4547590acf228f8d965ae,2020-11-26_16h02.48.964,lexical_decision_task_MP_exp2,2020.2.5,Linux armv8l,60,,0,0.391379123,-0.308349609,1,0,0,0.8023,button_right,0.8023,1,,,,,,30,WORD,UN,16,weapon,ORIENT,m,,,,,,0.391379123,-0.308349609,1,0,0,,0,206,206,209,1,
,,,,,,,,,,,,,,,,,,5eb4547590acf228f8d965ae,2020-11-26_16h02.48.964,lexical_decision_task_MP_exp2,2020.2.5,Linux armv8l,60,,0,0.384678819,-0.313964844,1,0,0,0.8002,button_right,0.8002,1,,,,,,36,WORD,UN,16,insult,VANISH,m,,,,,,0.384678819,-0.313964844,1,0,0,,0,207,207,215,1,
,,,,,,,,,,,,,,,,,,5eb4547590acf228f8d965ae,2020-11-26_16h02.48.964,lexical_decision_task_MP_exp2,2020.2.5,Linux armv8l,60,,0,0.390863715,-0.316650391,1,0,0,1.2526,button_right,1.2526,0,,,,,,248,NW,UN,16,batrol,STROLE,z,,,,,,0.390863715,-0.316650391,1,0,0,,0,208,208,427,1,
,,,,,,,,,,,,,,,,,,5eb4547590acf228f8d965ae,2020-11-26_16h02.48.964,lexical_decision_task_MP_exp2,2020.2.5,Linux armv8l,60,,0,-0.436366102,-0.289794922,1,0,0,0.7846,button_left,0.7846,1,,,,,,242,NW,UN,16,musied,UNWERT,z,,,,,,-0.436366102,-0.289794922,1,0,0,,0,209,209,421,1,
,,,,,,,,,,,,,,,,,,5eb4547590acf228f8d965ae,2020-11-26_16h02.48.964,lexical_decision_task_MP_exp2,2020.2.5,Linux armv8l,60,,0,-0.451312934,-0.305908203,1,0,0,1.3696,button_left,1.3696,0,,,,,,199,WORD,UN,33,plague,INVOKE,m,,,,,,-0.451312934,-0.305908203,1,0,0,,0,210,210,138,1,
,,,,,,,,,,,,,,,,,,5eb4547590acf228f8d965ae,2020-11-26_16h02.48.964,lexical_decision_task_MP_exp2,2020.2.5,Linux armv8l,60,,0,-0.448735894,-0.304931641,1,0,0,1.4689,button_left,1.4689,1,,,,,,438,NW,UN,33,limpor,BAITCH,z,,,,,,-0.448735894,-0.304931641,1,0,0,,0,211,211,377,1,
,,,,,,,,,,,,,,,,,,5eb4547590acf228f8d965ae,2020-11-26_16h02.48.964,lexical_decision_task_MP_exp2,2020.2.5,Linux armv8l,60,,0,-0.450282118,-0.307861328,1,0,0,1.2057,button_left,1.2057,1,,,,,,318,NW,"ID",33,reagly,REAGLY,z,,,,,,-0.450282118,-0.307861328,1,0,0,,0,212,212,257,1,
,,,,,,,,,,,,,,,,,,5eb4547590acf228f8d965ae,2020-11-26_16h02.48.964,lexical_decision_task_MP_exp2,2020.2.5,Linux armv8l,60,,0,0.382617188,-0.338623047,1,0,0,0.9547,button_right,0.9547,1,,,,,,149,WORD,"ID",16,invade,INVADE,m,,,,,,0.382617188,-0.338623047,1,0,0,,0,213,213,88,1,
,,,,,,,,,,,,,,,,,,5eb4547590acf228f8d965ae,2020-11-26_16h02.48.964,lexical_decision_task_MP_exp2,2020.2.5,Linux armv8l,60,,0,-0.463167318,-0.295654297,1,0,0,0.9037,button_left,0.9037,1,,,,,,428,NW,UN,33,funtle,TANDLY,z,,,,,,-0.463167318,-0.295654297,1,0,0,,0,214,214,367,1,
,,,,,,,,,,,,,,,,,,5eb4547590acf228f8d965ae,2020-11-26_16h02.48.964,lexical_decision_task_MP_exp2,2020.2.5,Linux armv8l,60,,0,0.390348307,-0.305419922,1,0,0,0.7013,button_right,0.7013,1,,,,,,120,WORD,"ID",33,strain,STRAIN,m,,,,,,0.390348307,-0.305419922,1,0,0,,0,215,215,59,1,
,,,,,,,,,,,,,,,,,,5eb4547590acf228f8d965ae,2020-11-26_16h02.48.964,lexical_decision_task_MP_exp2,2020.2.5,Linux armv8l,60,,0,-0.461105686,-0.296142578,1,0,0,0.6649,button_left,0.6649,1,,,,,,443,NW,UN,33,jaunce,DORSEX,z,,,,,,-0.461105686,-0.296142578,1,0,0,,0,216,216,382,1,
,,,,,,,,,,,,,,,,,,5eb4547590acf228f8d965ae,2020-11-26_16h02.48.964,lexical_decision_task_MP_exp2,2020.2.5,Linux armv8l,60,,0,0.402202691,-0.295898438,1,0,0,0.805,button_right,0.805,1,,,,,,183,WORD,UN,33,sleazy,MILDEW,m,,,,,,0.402202691,-0.295898438,1,0,0,,0,217,217,122,1,
,,,,,,,,,,,,,,,,,,5eb4547590acf228f8d965ae,2020-11-26_16h02.48.964,lexical_decision_task_MP_exp2,2020.2.5,Linux armv8l,60,,0,-0.45234375,-0.295410156,1,0,0,0.9511,button_left,0.9511,1,,,,,,320,NW,"ID",33,jockal,JOCKAL,z,,,,,,-0.45234375,-0.295410156,1,0,0,,0,218,218,259,1,
,,,,,,,,,,,,,,,,,,5eb4547590acf228f8d965ae,2020-11-26_16h02.48.964,lexical_decision_task_MP_exp2,2020.2.5,Linux armv8l,60,,0,-0.451828342,-0.313232422,1,0,0,0.7353,button_left,0.7353,1,,,,,,251,NW,UN,16,stapod,LUPICT,z,,,,,,-0.451828342,-0.313232422,1,0,0,,0,219,219,430,1,
,,,,,,,,,,,,,,,,,,5eb4547590acf228f8d965ae,2020-11-26_16h02.48.964,lexical_decision_task_MP_exp2,2020.2.5,Linux armv8l,60,,0,-0.454405382,-0.302246094,1,0,0,0.7354,button_left,0.7354,1,,,,,,441,NW,UN,33,aboune,RASTOE,z,,,,,,-0.454405382,-0.302246094,1,0,0,,0,220,220,380,1,
,,,,,,,,,,,,,,,,,,5eb4547590acf228f8d965ae,2020-11-26_16h02.48.964,lexical_decision_task_MP_exp2,2020.2.5,Linux armv8l,60,,0,-0.446158854,-0.30859375,1,0,0,0.6839,button_left,0.6839,1,,,,,,416,NW,"ID",16,pathel,PATHEL,z,,,,,,-0.446158854,-0.30859375,1,0,0,,0,221,221,355,1,
,,,,,,,,,,,,,,,,,,5eb4547590acf228f8d965ae,2020-11-26_16h02.48.964,lexical_decision_task_MP_exp2,2020.2.5,Linux armv8l,60,,0,-0.443581814,-0.302001953,1,0,0,0.6362,button_left,0.6362,1,,,,,,339,NW,"ID",33,fachow,FACHOW,z,,,,,,-0.443581814,-0.302001953,1,0,0,,0,222,222,278,1,
,,,,,,,,,,,,,,,,,,5eb4547590acf228f8d965ae,2020-11-26_16h02.48.964,lexical_decision_task_MP_exp2,2020.2.5,Linux armv8l,60,,0,0.399110243,-0.309570313,1,0,0,0.7676,button_right,0.7676,1,,,,,,44,WORD,UN,16,clergy,DANGER,m,,,,,,0.399110243,-0.309570313,1,0,0,,0,223,223,223,1,
,,,,,,,,,,,,,,,,,,5eb4547590acf228f8d965ae,2020-11-26_16h02.48.964,lexical_decision_task_MP_exp2,2020.2.5,Linux armv8l,60,,0,0.397564019,-0.307861328,1,0,0,0.7847,button_right,0.7847,1,,,,,,211,WORD,UN,33,verify,INFECT,m,,,,,,0.397564019,-0.307861328,1,0,0,,0,224,224,150,1,
,,,,,,,,,,,,,,,,,,5eb4547590acf228f8d965ae,2020-11-26_16h02.48.964,lexical_decision_task_MP_exp2,2020.2.5,Linux armv8l,60,,0,0.398079427,-0.307617188,1,0,0,0.6337,button_right,0.6337,1,,,,,,135,WORD,"ID",16,import,IMPORT,m,,,,,,0.398079427,-0.307617188,1,0,0,,0,225,225,74,1,
,,,,,,,,,,,,,,,,,,5eb4547590acf228f8d965ae,2020-11-26_16h02.48.964,lexical_decision_task_MP_exp2,2020.2.5,Linux armv8l,60,,0,-0.453374566,-0.304931641,1,0,0,0.8013,button_left,0.8013,1,,,,,,449,NW,UN,33,phrect,BRUNGE,z,,,,,,-0.453374566,-0.304931641,1,0,0,,0,226,226,388,1,
,,,,,,,,,,,,,,,,,,5eb4547590acf228f8d965ae,2020-11-26_16h02.48.964,lexical_decision_task_MP_exp2,2020.2.5,Linux armv8l,60,,0,-0.453374566,-0.304443359,1,0,0,0.9009,button_left,0.9009,1,,,,,,342,NW,"ID",33,randow,RANDOW,z,,,,,,-0.453374566,-0.304443359,1,0,0,,0,227,227,281,1,
,,,,,,,,,,,,,,,,,,5eb4547590acf228f8d965ae,2020-11-26_16h02.48.964,lexical_decision_task_MP_exp2,2020.2.5,Linux armv8l,60,,0,-0.450282118,-0.298339844,1,0,0,1.1855,button_left,1.1855,1,,,,,,411,NW,"ID",16,orchin,ORCHIN,z,,,,,,-0.450282118,-0.298339844,1,0,0,,0,228,228,350,1,
,,,,,,,,,,,,,,,,,,5eb4547590acf228f8d965ae,2020-11-26_16h02.48.964,lexical_decision_task_MP_exp2,2020.2.5,Linux armv8l,60,,0,0.403233507,-0.308105469,1,0,0,0.667,button_right,0.667,1,,,,,,144,WORD,"ID",16,sponge,SPONGE,m,,,,,,0.403233507,-0.308105469,1,0,0,,0,229,229,83,1,
,,,,,,,,,,,,,,,,,,5eb4547590acf228f8d965ae,2020-11-26_16h02.48.964,lexical_decision_task_MP_exp2,2020.2.5,Linux armv8l,60,,0,-0.443066406,-0.292724609,1,0,0,0.6851,button_left,0.6851,1,,,,,,385,NW,"ID",16,veigma,VEIGMA,z,,,,,,-0.443066406,-0.292724609,1,0,0,,0,230,230,324,1,
,,,,,,,,,,,,,,,,,,5eb4547590acf228f8d965ae,2020-11-26_16h02.48.964,lexical_decision_task_MP_exp2,2020.2.5,Linux armv8l,60,,0,0.404264323,-0.303955078,1,0,0,0.9892,button_right,0.9892,1,,,,,,75,WORD,"ID",33,trophy,TROPHY,m,,,,,,0.404264323,-0.303955078,1,0,0,,0,231,231,14,1,
,,,,,,,,,,,,,,,,,,5eb4547590acf228f8d965ae,2020-11-26_16h02.48.964,lexical_decision_task_MP_exp2,2020.2.5,Linux armv8l,60,,0,-0.445128038,-0.283691406,1,0,0,0.6658,button_left,0.6658,1,,,,,,478,NW,UN,33,pebric,ACRISE,z,,,,,,-0.445128038,-0.283691406,1,0,0,,0,232,232,417,1,
,,,,,,,,,,,,,,,,,,5eb4547590acf228f8d965ae,2020-11-26_16h02.48.964,lexical_decision_task_MP_exp2,2020.2.5,Linux armv8l,60,,0,-0.441520182,-0.284912109,1,0,0,0.8016,button_left,0.8016,0,,,,,,221,WORD,UN,33,hinder,MASCOT,m,,,,,,-0.441520182,-0.284912109,1,0,0,,0,233,233,160,1,
,,,,,,,,,,,,,,,,,,5eb4547590acf228f8d965ae,2020-11-26_16h02.48.964,lexical_decision_task_MP_exp2,2020.2.5,Linux armv8l,60,,0,0.400141059,-0.296630859,1,0,0,0.6334,button_right,0.6334,1,,,,,,229,WORD,UN,33,fringe,MOTHER,m,,,,,,0.400141059,-0.296630859,1,0,0,,0,234,234,168,1,
,,,,,,,,,,,,,,,,,,5eb4547590acf228f8d965ae,2020-11-26_16h02.48.964,lexical_decision_task_MP_exp2,2020.2.5,Linux armv8l,60,,0,-0.431212023,-0.312255859,1,0,0,1.3706,button_left,1.3706,1,,,,,,452,NW,UN,33,bolvis,SURDEN,z,,,,,,-0.431212023,-0.312255859,1,0,0,,0,235,235,391,1,
,,,,,,,,,,,,,,,,,,5eb4547590acf228f8d965ae,2020-11-26_16h02.48.964,lexical_decision_task_MP_exp2,2020.2.5,Linux armv8l,60,,0,0.426942274,-0.291748047,1,0,0,0.7007,button_right,0.7007,1,,,,,,237,WORD,UN,33,glance,POSTER,m,,,,,,0.426942274,-0.291748047,1,0,0,,0,236,236,176,1,
,,,,,,,,,,,,,,,,,,5eb4547590acf228f8d965ae,2020-11-26_16h02.48.964,lexical_decision_task_MP_exp2,2020.2.5,Linux armv8l,60,,0,0.419211155,-0.302001953,1,0,0,1.0353,button_right,1.0353,1,,,,,,122,WORD,"ID",16,linger,LINGER,m,,,,,,0.419211155,-0.302001953,1,0,0,,0,237,237,61,1,
,,,,,,,,,,,,,,,,,,5eb4547590acf228f8d965ae,2020-11-26_16h02.48.964,lexical_decision_task_MP_exp2,2020.2.5,Linux armv8l,60,,0,-0.486876085,-0.302978516,1,0,0,0.7015,button_left,0.7015,1,,,,,,336,NW,"ID",33,ghodus,GHODUS,z,,,,,,-0.486876085,-0.302978516,1,0,0,,0,238,238,275,1,
,,,,,,,,,,,,,,,,,,5eb4547590acf228f8d965ae,2020-11-26_16h02.48.964,lexical_decision_task_MP_exp2,2020.2.5,Linux armv8l,60,,0,0.411480035,-0.310058594,1,0,0,0.6689,button_right,0.6689,1,,,,,,167,WORD,"ID",16,design,DESIGN,m,,,,,,0.411480035,-0.310058594,1,0,0,,0,239,239,106,1,
,,,,,,,,,,,,,,,,,,5eb4547590acf228f8d965ae,2020-11-26_16h02.48.964,lexical_decision_task_MP_exp2,2020.2.5,Linux armv8l,60,,0,0.419726563,-0.302490234,1,0,0,0.9345,button_right,0.9345,1,,,,,,8,WORD,UN,16,hustle,ABRUPT,m,,,,,,0.419726563,-0.302490234,1,0,0,,0,240,240,187,1,
,,,,,,,,,,,,,,,,,,5eb4547590acf228f8d965ae,2020-11-26_16h02.48.964,lexical_decision_task_MP_exp2,2020.2.5,Linux armv8l,60,,0,0.414572483,-0.312255859,1,0,0,1.3849,button_right,1.3849,0,,,,,,322,NW,"ID",33,slanch,SLANCH,z,,,,,,0.12336697,-0.403808594,1,0,0,,0,241,241,261,1,break_done_button
,,,,,,,,,,,,,,,,,,5eb4547590acf228f8d965ae,2020-11-26_16h02.48.964,lexical_decision_task_MP_exp2,2020.2.5,Linux armv8l,60,,0,-0.465744358,-0.321777344,1,0,0,0.8823,button_left,0.8823,1,,,,,,259,NW,UN,16,unject,SOUDAL,z,,,,,,-0.465744358,-0.321777344,1,0,0,,0,242,242,438,1,
,,,,,,,,,,,,,,,,,,5eb4547590acf228f8d965ae,2020-11-26_16h02.48.964,lexical_decision_task_MP_exp2,2020.2.5,Linux armv8l,60,,0,-0.484814453,-0.313232422,1,0,0,0.6842,button_left,0.6842,1,,,,,,267,NW,UN,16,packes,PASINK,z,,,,,,-0.484814453,-0.313232422,1,0,0,,0,243,243,446,1,
,,,,,,,,,,,,,,,,,,5eb4547590acf228f8d965ae,2020-11-26_16h02.48.964,lexical_decision_task_MP_exp2,2020.2.5,Linux armv8l,60,,0,0.429003906,-0.3046875,1,0,0,0.6861,button_right,0.6861,1,,,,,,1,WORD,UN,16,ethnic,FRIGHT,m,,,,,,0.429003906,-0.3046875,1,0,0,,0,244,244,180,1,
,,,,,,,,,,,,,,,,,,5eb4547590acf228f8d965ae,2020-11-26_16h02.48.964,lexical_decision_task_MP_exp2,2020.2.5,Linux armv8l,60,,0,-0.498730469,-0.305664063,1,0,0,0.6845,button_left,0.6845,1,,,,,,395,NW,"ID",16,colury,COLURY,z,,,,,,-0.498730469,-0.305664063,1,0,0,,0,245,245,334,1,
,,,,,,,,,,,,,,,,,,5eb4547590acf228f8d965ae,2020-11-26_16h02.48.964,lexical_decision_task_MP_exp2,2020.2.5,Linux armv8l,60,,0,-0.509038628,-0.300292969,1,0,0,0.6833,button_left,0.6833,1,,,,,,351,NW,"ID",33,tiesch,TIESCH,z,,,,,,-0.509038628,-0.300292969,1,0,0,,0,246,246,290,1,
,,,,,,,,,,,,,,,,,,5eb4547590acf228f8d965ae,2020-11-26_16h02.48.964,lexical_decision_task_MP_exp2,2020.2.5,Linux armv8l,60,,0,-0.507492405,-0.30078125,1,0,0,0.7347,button_left,0.7347,1,,,,,,307,NW,"ID",33,kirafe,KIRAFE,z,,,,,,-0.507492405,-0.30078125,1,0,0,,0,247,247,246,1,
,,,,,,,,,,,,,,,,,,5eb4547590acf228f8d965ae,2020-11-26_16h02.48.964,lexical_decision_task_MP_exp2,2020.2.5,Linux armv8l,60,,0,0.426426866,-0.309570313,1,0,0,0.6497,button_right,0.6497,1,,,,,,90,WORD,"ID",33,relish,RELISH,m,,,,,,0.426426866,-0.309570313,1,0,0,,0,248,248,29,1,
,,,,,,,,,,,,,,,,,,5eb4547590acf228f8d965ae,2020-11-26_16h02.48.964,lexical_decision_task_MP_exp2,2020.2.5,Linux armv8l,60,,0,0.430034722,-0.303222656,1,0,0,0.7021,button_right,0.7021,1,,,,,,130,WORD,"ID",16,stupid,STUPID,m,,,,,,0.430034722,-0.303222656,1,0,0,,0,249,249,69,1,
,,,,,,,,,,,,,,,,,,5eb4547590acf228f8d965ae,2020-11-26_16h02.48.964,lexical_decision_task_MP_exp2,2020.2.5,Linux armv8l,60,,0,0.426426866,-0.310058594,1,0,0,0.6852,button_right,0.6852,1,,,,,,13,WORD,UN,16,almost,STRIVE,m,,,,,,0.426426866,-0.310058594,1,0,0,,0,250,250,192,1,
,,,,,,,,,,,,,,,,,,5eb4547590acf228f8d965ae,2020-11-26_16h02.48.964,lexical_decision_task_MP_exp2,2020.2.5,Linux armv8l,60,,0,0.425911458,-0.301025391,1,0,0,0.6995,button_right,0.6995,1,,,,,,235,WORD,UN,33,pirate,GRUMPY,m,,,,,,0.425911458,-0.301025391,1,0,0,,0,251,251,174,1,
,,,,,,,,,,,,,,,,,,5eb4547590acf228f8d965ae,2020-11-26_16h02.48.964,lexical_decision_task_MP_exp2,2020.2.5,Linux armv8l,60,,0,-0.505430773,-0.309570313,1,0,0,0.8332,button_left,0.8332,1,,,,,,472,NW,UN,33,gorbie,CIGNEY,z,,,,,,-0.505430773,-0.309570313,1,0,0,,0,252,252,411,1,
,,,,,,,,,,,,,,,,,,5eb4547590acf228f8d965ae,2020-11-26_16h02.48.964,lexical_decision_task_MP_exp2,2020.2.5,Linux armv8l,60,,0,-0.516769748,-0.292236328,1,0,0,0.8368,button_left,0.8368,1,,,,,,422,NW,UN,33,streld,ALCOUD,z,,,,,,-0.516769748,-0.292236328,1,0,0,,0,253,253,361,1,
,,,,,,,,,,,,,,,,,,5eb4547590acf228f8d965ae,2020-11-26_16h02.48.964,lexical_decision_task_MP_exp2,2020.2.5,Linux armv8l,60,,0,0.423334418,-0.307617188,1,0,0,0.734,button_right,0.734,1,,,,,,74,WORD,"ID",33,plaque,PLAQUE,m,,,,,,0.423334418,-0.307617188,1,0,0,,0,254,254,13,1,
,,,,,,,,,,,,,,,,,,5eb4547590acf228f8d965ae,2020-11-26_16h02.48.964,lexical_decision_task_MP_exp2,2020.2.5,Linux armv8l,60,,0,-0.519862196,-0.301269531,1,0,0,0.6833,button_left,0.6833,1,,,,,,300,NW,UN,16,smenco,YARION,z,,,,,,-0.519862196,-0.301269531,1,0,0,,0,255,255,479,1,
,,,,,,,,,,,,,,,,,,5eb4547590acf228f8d965ae,2020-11-26_16h02.48.964,lexical_decision_task_MP_exp2,2020.2.5,Linux armv8l,60,,0,0.42024197,-0.318115234,1,0,0,0.6677,button_right,0.6677,1,,,,,,136,WORD,"ID",16,bleach,BLEACH,m,,,,,,0.42024197,-0.318115234,1,0,0,,0,256,256,75,1,
,,,,,,,,,,,,,,,,,,5eb4547590acf228f8d965ae,2020-11-26_16h02.48.964,lexical_decision_task_MP_exp2,2020.2.5,Linux armv8l,60,,0,-0.520377604,-0.299804688,1,0,0,0.651,button_left,0.651,1,,,,,,321,NW,"ID",33,miator,MIATOR,z,,,,,,-0.520377604,-0.299804688,1,0,0,,0,257,257,260,1,
,,,,,,,,,,,,,,,,,,5eb4547590acf228f8d965ae,2020-11-26_16h02.48.964,lexical_decision_task_MP_exp2,2020.2.5,Linux armv8l,60,,0,-0.518315972,-0.2890625,1,0,0,0.6532,button_left,0.6532,1,,,,,,468,NW,UN,33,padifs,WICTOR,z,,,,,,-0.518315972,-0.2890625,1,0,0,,0,258,258,407,1,
,,,,,,,,,,,,,,,,,,5eb4547590acf228f8d965ae,2020-11-26_16h02.48.964,lexical_decision_task_MP_exp2,2020.2.5,Linux armv8l,60,,0,-0.519862196,-0.291259766,1,0,0,0.9337,button_left,0.9337,1,,,,,,460,NW,UN,33,justre,MINGAR,z,,,,,,-0.519862196,-0.291259766,1,0,0,,0,259,259,399,1,
,,,,,,,,,,,,,,,,,,5eb4547590acf228f8d965ae,2020-11-26_16h02.48.964,lexical_decision_task_MP_exp2,2020.2.5,Linux armv8l,60,,0,-0.50852322,-0.302734375,1,0,0,0.7011,button_left,0.7011,1,,,,,,384,NW,"ID",16,guesco,GUESCO,z,,,,,,-0.50852322,-0.302734375,1,0,0,,0,260,260,323,1,
,,,,,,,,,,,,,,,,,,5eb4547590acf228f8d965ae,2020-11-26_16h02.48.964,lexical_decision_task_MP_exp2,2020.2.5,Linux armv8l,60,,0,-0.518315972,-0.283203125,1,0,0,0.7007,button_left,0.7007,1,,,,,,376,NW,"ID",16,iguare,IGUARE,z,,,,,,-0.518315972,-0.283203125,1,0,0,,0,261,261,315,1,
,,,,,,,,,,,,,,,,,,5eb4547590acf228f8d965ae,2020-11-26_16h02.48.964,lexical_decision_task_MP_exp2,2020.2.5,Linux armv8l,60,,0,-0.532747396,-0.279296875,1,0,0,0.8347,button_left,0.8347,1,,,,,,323,NW,"ID",33,rosail,ROSAIL,z,,,,,,-0.532747396,-0.279296875,1,0,0,,0,262,262,262,1,
,,,,,,,,,,,,,,,,,,5eb4547590acf228f8d965ae,2020-11-26_16h02.48.964,lexical_decision_task_MP_exp2,2020.2.5,Linux armv8l,60,,0,-0.528108724,-0.284667969,1,0,0,0.6153,button_left,0.6153,1,,,,,,346,NW,"ID",33,saudic,SAUDIC,z,,,,,,-0.528108724,-0.284667969,1,0,0,,0,263,263,285,1,
,,,,,,,,,,,,,,,,,,5eb4547590acf228f8d965ae,2020-11-26_16h02.48.964,lexical_decision_task_MP_exp2,2020.2.5,Linux armv8l,60,,0,0.423849826,-0.313232422,1,0,0,0.7347,button_right,0.7347,1,,,,,,168,WORD,"ID",16,answer,ANSWER,m,,,,,,0.423849826,-0.313232422,1,0,0,,0,264,264,107,1,
,,,,,,,,,,,,,,,,,,5eb4547590acf228f8d965ae,2020-11-26_16h02.48.964,lexical_decision_task_MP_exp2,2020.2.5,Linux armv8l,60,,0,0.426942274,-0.310058594,1,0,0,0.736,button_right,0.736,1,,,,,,230,WORD,UN,33,mother,FRINGE,m,,,,,,0.426942274,-0.310058594,1,0,0,,0,265,265,169,1,
,,,,,,,,,,,,,,,,,,5eb4547590acf228f8d965ae,2020-11-26_16h02.48.964,lexical_decision_task_MP_exp2,2020.2.5,Linux armv8l,60,,0,0.42539605,-0.317626953,1,0,0,0.9536,button_right,0.9536,1,,,,,,82,WORD,"ID",33,stigma,STIGMA,m,,,,,,0.42539605,-0.317626953,1,0,0,,0,266,266,21,1,
,,,,,,,,,,,,,,,,,,5eb4547590acf228f8d965ae,2020-11-26_16h02.48.964,lexical_decision_task_MP_exp2,2020.2.5,Linux armv8l,60,,0,-0.53429362,-0.278564453,1,0,0,0.7341,button_left,0.7341,1,,,,,,333,NW,"ID",33,catrie,CATRIE,z,,,,,,-0.53429362,-0.278564453,1,0,0,,0,267,267,272,1,
,,,,,,,,,,,,,,,,,,5eb4547590acf228f8d965ae,2020-11-26_16h02.48.964,lexical_decision_task_MP_exp2,2020.2.5,Linux armv8l,60,,0,-0.53687066,-0.284179688,1,0,0,0.7337,button_left,0.7337,1,,,,,,444,NW,UN,33,minkel,JAUNCE,z,,,,,,-0.53687066,-0.284179688,1,0,0,,0,268,268,383,1,
,,,,,,,,,,,,,,,,,,5eb4547590acf228f8d965ae,2020-11-26_16h02.48.964,lexical_decision_task_MP_exp2,2020.2.5,Linux armv8l,60,,0,-0.526047092,-0.301513672,1,0,0,0.9338,button_left,0.9338,1,,,,,,406,NW,"ID",16,nouply,NOUPLY,z,,,,,,-0.526047092,-0.301513672,1,0,0,,0,269,269,345,1,
,,,,,,,,,,,,,,,,,,5eb4547590acf228f8d965ae,2020-11-26_16h02.48.964,lexical_decision_task_MP_exp2,2020.2.5,Linux armv8l,60,,0,-0.527593316,-0.302978516,1,0,0,0.7353,button_left,0.7353,1,,,,,,350,NW,"ID",33,nagurs,NAGURS,z,,,,,,-0.527593316,-0.302978516,1,0,0,,0,270,270,289,1,
,,,,,,,,,,,,,,,,,,5eb4547590acf228f8d965ae,2020-11-26_16h02.48.964,lexical_decision_task_MP_exp2,2020.2.5,Linux armv8l,60,,0,0.42797309,-0.319824219,1,0,0,0.9843,button_right,0.9843,1,,,,,,239,WORD,UN,33,forest,LUMBER,m,,,,,,0.42797309,-0.319824219,1,0,0,,0,271,271,178,1,
,,,,,,,,,,,,,,,,,,5eb4547590acf228f8d965ae,2020-11-26_16h02.48.964,lexical_decision_task_MP_exp2,2020.2.5,Linux armv8l,60,,0,0.424880642,-0.312744141,1,0,0,0.5685,button_right,0.5685,1,,,,,,207,WORD,UN,33,hockey,WREATH,m,,,,,,0.424880642,-0.312744141,1,0,0,,0,272,272,146,1,
,,,,,,,,,,,,,,,,,,5eb4547590acf228f8d965ae,2020-11-26_16h02.48.964,lexical_decision_task_MP_exp2,2020.2.5,Linux armv8l,60,,0,0.420757378,-0.32421875,1,0,0,0.6341,button_right,0.6341,1,,,,,,117,WORD,"ID",33,branch,BRANCH,m,,,,,,0.420757378,-0.32421875,1,0,0,,0,273,273,56,1,
,,,,,,,,,,,,,,,,,,5eb4547590acf228f8d965ae,2020-11-26_16h02.48.964,lexical_decision_task_MP_exp2,2020.2.5,Linux armv8l,60,,0,0.42539605,-0.320068359,1,0,0,0.6526,button_right,0.6526,1,,,,,,81,WORD,"ID",33,friend,FRIEND,m,,,,,,0.42539605,-0.320068359,1,0,0,,0,274,274,20,1,
,,,,,,,,,,,,,,,,,,5eb4547590acf228f8d965ae,2020-11-26_16h02.48.964,lexical_decision_task_MP_exp2,2020.2.5,Linux armv8l,60,,0,0.419211155,-0.323730469,1,0,0,0.6661,button_right,0.6661,1,,,,,,214,WORD,UN,33,phobia,INTAKE,m,,,,,,0.419211155,-0.323730469,1,0,0,,0,275,275,153,1,
,,,,,,,,,,,,,,,,,,5eb4547590acf228f8d965ae,2020-11-26_16h02.48.964,lexical_decision_task_MP_exp2,2020.2.5,Linux armv8l,60,,0,-0.521923828,-0.304931641,1,0,0,0.902,button_left,0.902,1,,,,,,408,NW,"ID",16,hurnia,HURNIA,z,,,,,,-0.521923828,-0.304931641,1,0,0,,0,276,276,347,1,
,,,,,,,,,,,,,,,,,,5eb4547590acf228f8d965ae,2020-11-26_16h02.48.964,lexical_decision_task_MP_exp2,2020.2.5,Linux armv8l,60,,0,-0.5265625,-0.303710938,1,0,0,1.0193,button_left,1.0193,1,,,,,,457,NW,UN,33,barcet,WANIGH,z,,,,,,-0.5265625,-0.303710938,1,0,0,,0,277,277,396,1,
,,,,,,,,,,,,,,,,,,5eb4547590acf228f8d965ae,2020-11-26_16h02.48.964,lexical_decision_task_MP_exp2,2020.2.5,Linux armv8l,60,,0,-0.530685764,-0.291503906,1,0,0,1.2178,button_left,1.2178,1,,,,,,358,NW,"ID",33,fleack,FLEACK,z,,,,,,-0.530685764,-0.291503906,1,0,0,,0,278,278,297,1,
,,,,,,,,,,,,,,,,,,5eb4547590acf228f8d965ae,2020-11-26_16h02.48.964,lexical_decision_task_MP_exp2,2020.2.5,Linux armv8l,60,,0,0.422303602,-0.320800781,1,0,0,0.7511,button_right,0.7511,1,,,,,,208,WORD,UN,33,search,HOCKEY,m,,,,,,0.422303602,-0.320800781,1,0,0,,0,279,279,147,1,
,,,,,,,,,,,,,,,,,,5eb4547590acf228f8d965ae,2020-11-26_16h02.48.964,lexical_decision_task_MP_exp2,2020.2.5,Linux armv8l,60,,0,-0.532747396,-0.288330078,1,0,0,0.8014,button_left,0.8014,1,,,,,,256,NW,UN,16,veniod,INLORS,z,,,,,,-0.532747396,-0.288330078,1,0,0,,0,280,280,435,1,
,,,,,,,,,,,,,,,,,,5eb4547590acf228f8d965ae,2020-11-26_16h02.48.964,lexical_decision_task_MP_exp2,2020.2.5,Linux armv8l,60,,0,-0.540478516,-0.278808594,1,0,0,1.1363,button_left,1.1363,1,,,,,,327,NW,"ID",33,plenac,PLENAC,z,,,,,,-0.540478516,-0.278808594,1,0,0,,0,281,281,266,1,
,,,,,,,,,,,,,,,,,,5eb4547590acf228f8d965ae,2020-11-26_16h02.48.964,lexical_decision_task_MP_exp2,2020.2.5,Linux armv8l,60,,0,0.428488498,-0.319091797,1,0,0,0.8364,button_right,0.8364,1,,,,,,40,WORD,UN,16,spring,CONVEY,m,,,,,,0.428488498,-0.319091797,1,0,0,,0,282,282,219,1,
,,,,,,,,,,,,,,,,,,5eb4547590acf228f8d965ae,2020-11-26_16h02.48.964,lexical_decision_task_MP_exp2,2020.2.5,Linux armv8l,60,,0,-0.535839844,-0.286621094,1,0,0,0.7346,button_left,0.7346,1,,,,,,280,NW,UN,16,melaty,CURBOL,z,,,,,,-0.535839844,-0.286621094,1,0,0,,0,283,283,459,1,
,,,,,,,,,,,,,,,,,,5eb4547590acf228f8d965ae,2020-11-26_16h02.48.964,lexical_decision_task_MP_exp2,2020.2.5,Linux armv8l,60,,0,0.425911458,-0.321777344,1,0,0,0.7717,button_right,0.7717,1,,,,,,124,WORD,"ID",16,blouse,BLOUSE,m,,,,,,0.425911458,-0.321777344,1,0,0,,0,284,284,63,1,
,,,,,,,,,,,,,,,,,,5eb4547590acf228f8d965ae,2020-11-26_16h02.48.964,lexical_decision_task_MP_exp2,2020.2.5,Linux armv8l,60,,0,0.419726563,-0.326416016,1,0,0,0.7524,button_right,0.7524,1,,,,,,58,WORD,UN,16,splint,FOSTER,m,,,,,,0.419726563,-0.326416016,1,0,0,,0,285,285,237,1,
,,,,,,,,,,,,,,,,,,5eb4547590acf228f8d965ae,2020-11-26_16h02.48.964,lexical_decision_task_MP_exp2,2020.2.5,Linux armv8l,60,,0,0.422303602,-0.322998047,1,0,0,0.6503,button_right,0.6503,1,,,,,,157,WORD,"ID",16,dragon,DRAGON,m,,,,,,0.422303602,-0.322998047,1,0,0,,0,286,286,96,1,
,,,,,,,,,,,,,,,,,,5eb4547590acf228f8d965ae,2020-11-26_16h02.48.964,lexical_decision_task_MP_exp2,2020.2.5,Linux armv8l,60,,0,-0.526047092,-0.286376953,1,0,0,0.7154,button_left,0.7154,1,,,,,,311,NW,"ID",33,sproly,SPROLY,z,,,,,,-0.526047092,-0.286376953,1,0,0,,0,287,287,250,1,
,,,,,,,,,,,,,,,,,,5eb4547590acf228f8d965ae,2020-11-26_16h02.48.964,lexical_decision_task_MP_exp2,2020.2.5,Linux armv8l,60,,0,-0.538416884,-0.276611328,1,0,0,0.8009,button_left,0.8009,1,,,,,,257,NW,UN,16,poluth,VENIOD,z,,,,,,-0.538416884,-0.276611328,1,0,0,,0,288,288,436,1,
,,,,,,,,,,,,,,,,,,5eb4547590acf228f8d965ae,2020-11-26_16h02.48.964,lexical_decision_task_MP_exp2,2020.2.5,Linux armv8l,60,,0,-0.535839844,-0.281494141,1,0,0,0.7031,button_left,0.7031,1,,,,,,366,NW,"ID",16,toshel,TOSHEL,z,,,,,,-0.535839844,-0.281494141,1,0,0,,0,289,289,305,1,
,,,,,,,,,,,,,,,,,,5eb4547590acf228f8d965ae,2020-11-26_16h02.48.964,lexical_decision_task_MP_exp2,2020.2.5,Linux armv8l,60,,0,0.426942274,-0.311767578,1,0,0,0.6325,button_right,0.6325,1,,,,,,217,WORD,UN,33,shrink,LIQUOR,m,,,,,,0.426942274,-0.311767578,1,0,0,,0,290,290,156,1,
,,,,,,,,,,,,,,,,,,5eb4547590acf228f8d965ae,2020-11-26_16h02.48.964,lexical_decision_task_MP_exp2,2020.2.5,Linux armv8l,60,,0,0.430034722,-0.310058594,1,0,0,0.6321,button_right,0.6321,1,,,,,,70,WORD,"ID",33,square,SQUARE,m,,,,,,0.430034722,-0.310058594,1,0,0,,0,291,291,9,1,
,,,,,,,,,,,,,,,,,,5eb4547590acf228f8d965ae,2020-11-26_16h02.48.964,lexical_decision_task_MP_exp2,2020.2.5,Linux armv8l,60,,0,0.427457682,-0.313476563,1,0,0,0.7197,button_right,0.7197,1,,,,,,54,WORD,UN,16,stroke,RAMBLE,m,,,,,,0.427457682,-0.313476563,1,0,0,,0,292,292,233,1,
,,,,,,,,,,,,,,,,,,5eb4547590acf228f8d965ae,2020-11-26_16h02.48.964,lexical_decision_task_MP_exp2,2020.2.5,Linux armv8l,60,,0,-0.52913954,-0.283447266,1,0,0,0.7515,button_left,0.7515,1,,,,,,361,NW,"ID",16,pauche,PAUCHE,z,,,,,,-0.52913954,-0.283447266,1,0,0,,0,293,293,300,1,
,,,,,,,,,,,,,,,,,,5eb4547590acf228f8d965ae,2020-11-26_16h02.48.964,lexical_decision_task_MP_exp2,2020.2.5,Linux armv8l,60,,0,0.429003906,-0.314208984,1,0,0,0.7015,button_right,0.7015,1,,,,,,5,WORD,UN,16,bundle,PLUNGE,m,,,,,,0.429003906,-0.314208984,1,0,0,,0,294,294,184,1,
,,,,,,,,,,,,,,,,,,5eb4547590acf228f8d965ae,2020-11-26_16h02.48.964,lexical_decision_task_MP_exp2,2020.2.5,Linux armv8l,60,,0,-0.541509332,-0.269042969,1,0,0,1.0029,button_left,1.0029,1,,,,,,250,NW,UN,16,lupict,MILTED,z,,,,,,-0.541509332,-0.269042969,1,0,0,,0,295,295,429,1,
,,,,,,,,,,,,,,,,,,5eb4547590acf228f8d965ae,2020-11-26_16h02.48.964,lexical_decision_task_MP_exp2,2020.2.5,Linux armv8l,60,,0,0.424880642,-0.321533203,1,0,0,0.6693,button_right,0.6693,1,,,,,,46,WORD,UN,16,income,SINGLE,m,,,,,,0.424880642,-0.321533203,1,0,0,,0,296,296,225,1,
,,,,,,,,,,,,,,,,,,5eb4547590acf228f8d965ae,2020-11-26_16h02.48.964,lexical_decision_task_MP_exp2,2020.2.5,Linux armv8l,60,,0,-0.532231988,-0.293945313,1,0,0,0.7382,button_left,0.7382,1,,,,,,432,NW,UN,33,drance,LUNKER,z,,,,,,-0.532231988,-0.293945313,1,0,0,,0,297,297,371,1,
,,,,,,,,,,,,,,,,,,5eb4547590acf228f8d965ae,2020-11-26_16h02.48.964,lexical_decision_task_MP_exp2,2020.2.5,Linux armv8l,60,,0,0.43055013,-0.315429688,1,0,0,0.6835,button_right,0.6835,1,,,,,,192,WORD,UN,33,object,PLAGUE,m,,,,,,0.43055013,-0.315429688,1,0,0,,0,298,298,131,1,
,,,,,,,,,,,,,,,,,,5eb4547590acf228f8d965ae,2020-11-26_16h02.48.964,lexical_decision_task_MP_exp2,2020.2.5,Linux armv8l,60,,0,0.425911458,-0.312988281,1,0,0,0.6845,button_right,0.6845,1,,,,,,22,WORD,UN,16,wealth,JOCKEY,m,,,,,,0.425911458,-0.312988281,1,0,0,,0,299,299,201,1,
,,,,,,,,,,,,,,,,,,5eb4547590acf228f8d965ae,2020-11-26_16h02.48.964,lexical_decision_task_MP_exp2,2020.2.5,Linux armv8l,60,,0,-0.5136773,-0.301757813,1,0,0,0.6507,button_left,0.6507,1,,,,,,326,NW,"ID",33,iguade,IGUADE,z,,,,,,-0.5136773,-0.301757813,1,0,0,,0,300,300,265,1,
,,,,,,,,,,,,,,,,,,5eb4547590acf228f8d965ae,2020-11-26_16h02.48.964,lexical_decision_task_MP_exp2,2020.2.5,Linux armv8l,60,,0,-0.52140842,-0.292480469,1,0,0,0.7853,button_left,0.7853,1,,,,,,436,NW,UN,33,snapel,FRUTAN,z,,,,,,-0.52140842,-0.292480469,1,0,0,,0,301,301,375,1,
,,,,,,,,,,,,,,,,,,5eb4547590acf228f8d965ae,2020-11-26_16h02.48.964,lexical_decision_task_MP_exp2,2020.2.5,Linux armv8l,60,,0,-0.525016276,-0.288818359,1,0,0,0.8839,button_left,0.8839,1,,,,,,464,NW,UN,33,whivex,CHAITE,z,,,,,,-0.525016276,-0.288818359,1,0,0,,0,302,302,403,1,
,,,,,,,,,,,,,,,,,,5eb4547590acf228f8d965ae,2020-11-26_16h02.48.964,lexical_decision_task_MP_exp2,2020.2.5,Linux armv8l,60,,0,0.42024197,-0.327880859,1,0,0,0.7184,button_right,0.7184,1,,,,,,112,WORD,"ID",33,breath,BREATH,m,,,,,,0.42024197,-0.327880859,1,0,0,,0,303,303,51,1,
,,,,,,,,,,,,,,,,,,5eb4547590acf228f8d965ae,2020-11-26_16h02.48.964,lexical_decision_task_MP_exp2,2020.2.5,Linux armv8l,60,,0,-0.528108724,-0.278564453,1,0,0,0.7364,button_left,0.7364,1,,,,,,391,NW,"ID",16,theldy,THELDY,z,,,,,,-0.528108724,-0.278564453,1,0,0,,0,304,304,330,1,
,,,,,,,,,,,,,,,,,,5eb4547590acf228f8d965ae,2020-11-26_16h02.48.964,lexical_decision_task_MP_exp2,2020.2.5,Linux armv8l,60,,0,-0.53171658,-0.2734375,1,0,0,0.6877,button_left,0.6877,1,,,,,,375,NW,"ID",16,yorque,YORQUE,z,,,,,,-0.53171658,-0.2734375,1,0,0,,0,305,305,314,1,
,,,,,,,,,,,,,,,,,,5eb4547590acf228f8d965ae,2020-11-26_16h02.48.964,lexical_decision_task_MP_exp2,2020.2.5,Linux armv8l,60,,0,0.42281901,-0.322998047,1,0,0,0.7848,button_right,0.7848,1,,,,,,153,WORD,"ID",16,behold,BEHOLD,m,,,,,,0.42281901,-0.322998047,1,0,0,,0,306,306,92,1,
,,,,,,,,,,,,,,,,,,5eb4547590acf228f8d965ae,2020-11-26_16h02.48.964,lexical_decision_task_MP_exp2,2020.2.5,Linux armv8l,60,,0,-0.528624132,-0.280273438,1,0,0,0.6852,button_left,0.6852,1,,,,,,469,NW,UN,33,crudio,PADIFS,z,,,,,,-0.528624132,-0.280273438,1,0,0,,0,307,307,408,1,
,,,,,,,,,,,,,,,,,,5eb4547590acf228f8d965ae,2020-11-26_16h02.48.964,lexical_decision_task_MP_exp2,2020.2.5,Linux armv8l,60,,0,-0.527593316,-0.278808594,1,0,0,0.6168,button_left,0.6168,1,,,,,,354,NW,"ID",33,virlex,VIRLEX,z,,,,,,-0.527593316,-0.278808594,1,0,0,,0,308,308,293,1,
,,,,,,,,,,,,,,,,,,5eb4547590acf228f8d965ae,2020-11-26_16h02.48.964,lexical_decision_task_MP_exp2,2020.2.5,Linux armv8l,60,,0,-0.532747396,-0.268310547,1,0,0,0.6831,button_left,0.6831,1,,,,,,427,NW,UN,33,tandly,SCHIND,z,,,,,,-0.532747396,-0.268310547,1,0,0,,0,309,309,366,1,
,,,,,,,,,,,,,,,,,,5eb4547590acf228f8d965ae,2020-11-26_16h02.48.964,lexical_decision_task_MP_exp2,2020.2.5,Linux armv8l,60,,0,0.429003906,-0.317871094,1,0,0,1.1166,button_right,1.1166,1,,,,,,77,WORD,"ID",33,racket,RACKET,m,,,,,,0.429003906,-0.317871094,1,0,0,,0,310,310,16,1,
,,,,,,,,,,,,,,,,,,5eb4547590acf228f8d965ae,2020-11-26_16h02.48.964,lexical_decision_task_MP_exp2,2020.2.5,Linux armv8l,60,,0,0.424880642,-0.320556641,1,0,0,0.8155,button_right,0.8155,1,,,,,,110,WORD,"ID",33,polite,POLITE,m,,,,,,0.424880642,-0.320556641,1,0,0,,0,311,311,49,1,
,,,,,,,,,,,,,,,,,,5eb4547590acf228f8d965ae,2020-11-26_16h02.48.964,lexical_decision_task_MP_exp2,2020.2.5,Linux armv8l,60,,0,-0.525531684,-0.286132813,1,0,0,0.7679,button_left,0.7679,1,,,,,,362,NW,"ID",16,tireau,TIREAU,z,,,,,,-0.525531684,-0.286132813,1,0,0,,0,312,312,301,1,
,,,,,,,,,,,,,,,,,,5eb4547590acf228f8d965ae,2020-11-26_16h02.48.964,lexical_decision_task_MP_exp2,2020.2.5,Linux armv8l,60,,0,-0.50852322,-0.279541016,1,0,0,0.719,button_left,0.719,1,,,,,,414,NW,"ID",16,serbol,SERBOL,z,,,,,,-0.50852322,-0.279541016,1,0,0,,0,313,313,353,1,
,,,,,,,,,,,,,,,,,,5eb4547590acf228f8d965ae,2020-11-26_16h02.48.964,lexical_decision_task_MP_exp2,2020.2.5,Linux armv8l,60,,0,0.429003906,-0.318603516,1,0,0,0.6686,button_right,0.6686,1,,,,,,119,WORD,"ID",33,spider,SPIDER,m,,,,,,0.429003906,-0.318603516,1,0,0,,0,314,314,58,1,
,,,,,,,,,,,,,,,,,,5eb4547590acf228f8d965ae,2020-11-26_16h02.48.964,lexical_decision_task_MP_exp2,2020.2.5,Linux armv8l,60,,0,0.429003906,-0.308837891,1,0,0,0.5841,button_right,0.5841,1,,,,,,238,WORD,UN,33,behalf,FLOWER,m,,,,,,0.429003906,-0.308837891,1,0,0,,0,315,315,177,1,
,,,,,,,,,,,,,,,,,,5eb4547590acf228f8d965ae,2020-11-26_16h02.48.964,lexical_decision_task_MP_exp2,2020.2.5,Linux armv8l,60,,0,0.424880642,-0.310302734,1,0,0,0.6515,button_right,0.6515,0,,,,,,338,NW,"ID",33,wreash,WREASH,z,,,,,,0.424880642,-0.310302734,1,0,0,,0,316,316,277,1,
,,,,,,,,,,,,,,,,,,5eb4547590acf228f8d965ae,2020-11-26_16h02.48.964,lexical_decision_task_MP_exp2,2020.2.5,Linux armv8l,60,,0,-0.505946181,-0.2734375,1,0,0,0.8175,button_left,0.8175,1,,,,,,387,NW,"ID",16,gronce,GRONCE,z,,,,,,-0.505946181,-0.2734375,1,0,0,,0,317,317,326,1,
,,,,,,,,,,,,,,,,,,5eb4547590acf228f8d965ae,2020-11-26_16h02.48.964,lexical_decision_task_MP_exp2,2020.2.5,Linux armv8l,60,,0,-0.52398546,-0.265380859,1,0,0,0.6831,button_left,0.6831,1,,,,,,434,NW,UN,33,impurb,PITROM,z,,,,,,-0.52398546,-0.265380859,1,0,0,,0,318,318,373,1,
,,,,,,,,,,,,,,,,,,5eb4547590acf228f8d965ae,2020-11-26_16h02.48.964,lexical_decision_task_MP_exp2,2020.2.5,Linux armv8l,60,,0,0.433642578,-0.3125,1,0,0,0.7518,button_right,0.7518,1,,,,,,104,WORD,"ID",33,studio,STUDIO,m,,,,,,0.433642578,-0.3125,1,0,0,,0,319,319,43,1,
,,,,,,,,,,,,,,,,,,5eb4547590acf228f8d965ae,2020-11-26_16h02.48.964,lexical_decision_task_MP_exp2,2020.2.5,Linux armv8l,60,,0,-0.525531684,-0.267822266,1,0,0,0.7848,button_left,0.7848,1,,,,,,291,NW,UN,16,ablint,PRETCH,z,,,,,,-0.525531684,-0.267822266,1,0,0,,0,320,320,470,1,
,,,,,,,,,,,,,,,,,,5eb4547590acf228f8d965ae,2020-11-26_16h02.48.964,lexical_decision_task_MP_exp2,2020.2.5,Linux armv8l,60,,0,0.428488498,-0.306884766,1,0,0,0.6831,button_right,0.6831,1,,,,,,131,WORD,"ID",16,quench,QUENCH,m,,,,,,0.428488498,-0.306884766,1,0,0,,0,321,321,70,1,
,,,,,,,,,,,,,,,,,,5eb4547590acf228f8d965ae,2020-11-26_16h02.48.964,lexical_decision_task_MP_exp2,2020.2.5,Linux armv8l,60,,0,0.43055013,-0.309326172,1,0,0,0.7507,button_right,0.7507,1,,,,,,49,WORD,UN,16,snatch,SURVEY,m,,,,,,0.43055013,-0.309326172,1,0,0,,0,322,322,228,1,
,,,,,,,,,,,,,,,,,,5eb4547590acf228f8d965ae,2020-11-26_16h02.48.964,lexical_decision_task_MP_exp2,2020.2.5,Linux armv8l,60,,0,0.428488498,-0.315429688,1,0,0,0.7327,button_right,0.7327,0,,,,,,352,NW,"ID",33,tringe,TRINGE,z,,,,,,0.428488498,-0.315429688,1,0,0,,0,323,323,291,1,
,,,,,,,,,,,,,,,,,,5eb4547590acf228f8d965ae,2020-11-26_16h02.48.964,lexical_decision_task_MP_exp2,2020.2.5,Linux armv8l,60,,0,-0.5394477,-0.272216797,1,0,0,1.1542,button_left,1.1542,1,,,,,,399,NW,"ID",16,fouret,FOURET,z,,,,,,-0.5394477,-0.272216797,1,0,0,,0,324,324,338,1,
,,,,,,,,,,,,,,,,,,5eb4547590acf228f8d965ae,2020-11-26_16h02.48.964,lexical_decision_task_MP_exp2,2020.2.5,Linux armv8l,60,,0,0.414572483,-0.322998047,1,0,0,0.7159,button_right,0.7159,1,,,,,,224,WORD,UN,33,vulgar,PERIOD,m,,,,,,0.414572483,-0.322998047,1,0,0,,0,325,325,163,1,
,,,,,,,,,,,,,,,,,,5eb4547590acf228f8d965ae,2020-11-26_16h02.48.964,lexical_decision_task_MP_exp2,2020.2.5,Linux armv8l,60,,0,-0.538416884,-0.264648438,1,0,0,1.1019,button_left,1.1019,1,,,,,,281,NW,UN,16,porlex,MELATY,z,,,,,,-0.538416884,-0.264648438,1,0,0,,0,326,326,460,1,
,,,,,,,,,,,,,,,,,,5eb4547590acf228f8d965ae,2020-11-26_16h02.48.964,lexical_decision_task_MP_exp2,2020.2.5,Linux armv8l,60,,0,0.428488498,-0.313476563,1,0,0,0.883,button_right,0.883,1,,,,,,215,WORD,UN,33,lumber,PHOBIA,m,,,,,,0.428488498,-0.313476563,1,0,0,,0,327,327,154,1,
,,,,,,,,,,,,,,,,,,5eb4547590acf228f8d965ae,2020-11-26_16h02.48.964,lexical_decision_task_MP_exp2,2020.2.5,Linux armv8l,60,,0,-0.539963108,-0.256835938,1,0,0,0.9016,button_left,0.9016,1,,,,,,397,NW,"ID",16,camble,CAMBLE,z,,,,,,-0.539963108,-0.256835938,1,0,0,,0,328,328,336,1,
,,,,,,,,,,,,,,,,,,5eb4547590acf228f8d965ae,2020-11-26_16h02.48.964,lexical_decision_task_MP_exp2,2020.2.5,Linux armv8l,60,,0,0.43055013,-0.309570313,1,0,0,0.8843,button_right,0.8843,1,,,,,,166,WORD,"ID",16,starch,STARCH,m,,,,,,0.43055013,-0.309570313,1,0,0,,0,329,329,105,1,
,,,,,,,,,,,,,,,,,,5eb4547590acf228f8d965ae,2020-11-26_16h02.48.964,lexical_decision_task_MP_exp2,2020.2.5,Linux armv8l,60,,0,0.423334418,-0.321533203,1,0,0,0.9367,button_right,0.9367,1,,,,,,141,WORD,"ID",16,orphan,ORPHAN,m,,,,,,0.423334418,-0.321533203,1,0,0,,0,330,330,80,1,
,,,,,,,,,,,,,,,,,,5eb4547590acf228f8d965ae,2020-11-26_16h02.48.964,lexical_decision_task_MP_exp2,2020.2.5,Linux armv8l,60,,0,0.42797309,-0.315673828,1,0,0,0.9043,button_right,0.9043,1,,,,,,161,WORD,"ID",16,pastor,PASTOR,m,,,,,,0.42797309,-0.315673828,1,0,0,,0,331,331,100,1,
,,,,,,,,,,,,,,,,,,5eb4547590acf228f8d965ae,2020-11-26_16h02.48.964,lexical_decision_task_MP_exp2,2020.2.5,Linux armv8l,60,,0,0.424880642,-0.3125,1,0,0,0.7671,button_right,0.7671,0,,,,,,314,NW,"ID",33,sprine,SPRINE,z,,,,,,0.424880642,-0.3125,1,0,0,,0,332,332,253,1,
,,,,,,,,,,,,,,,,,,5eb4547590acf228f8d965ae,2020-11-26_16h02.48.964,lexical_decision_task_MP_exp2,2020.2.5,Linux armv8l,60,,0,0.42539605,-0.318603516,1,0,0,0.8018,button_right,0.8018,1,,,,,,41,WORD,UN,16,chapel,SPRING,m,,,,,,0.42539605,-0.318603516,1,0,0,,0,333,333,220,1,
,,,,,,,,,,,,,,,,,,5eb4547590acf228f8d965ae,2020-11-26_16h02.48.964,lexical_decision_task_MP_exp2,2020.2.5,Linux armv8l,60,,0,0.428488498,-0.311523438,1,0,0,1.036,button_right,1.036,1,,,,,,196,WORD,UN,33,stream,CREDIT,m,,,,,,0.428488498,-0.311523438,1,0,0,,0,334,334,135,1,
,,,,,,,,,,,,,,,,,,5eb4547590acf228f8d965ae,2020-11-26_16h02.48.964,lexical_decision_task_MP_exp2,2020.2.5,Linux armv8l,60,,0,0.429519314,-0.316162109,1,0,0,0.7997,button_right,0.7997,1,,,,,,106,WORD,"ID",33,ransom,RANSOM,m,,,,,,0.429519314,-0.316162109,1,0,0,,0,335,335,45,1,
