counterbalancing_condition,instr_done_keyboard.keys,instr_done_keyboard.rt,instr_done_touch.x,instr_done_touch.y,instr_done_touch.leftButton,instr_done_touch.midButton,instr_done_touch.rightButton,instruction_pages.thisRepN,instruction_pages.thisTrialN,instruction_pages.thisN,instruction_pages.thisIndex,instruction_pages.ran,pageN,phase,instruct_text,has_image,instruct_image,participant,date,expName,psychopyVersion,OS,frameRate,response.keys,response.corr,response.rt,touch_resp.x,touch_resp.y,touch_resp.leftButton,touch_resp.midButton,touch_resp.rightButton,touch_resp.time,touch_resp.clicked_name,rt,corr,practice_trials.thisRepN,practice_trials.thisTrialN,practice_trials.thisN,practice_trials.thisIndex,practice_trials.ran,TrialID,StimulusType,Condition,PrimeDuration,Prime,Target,corrAns,end_of_practice_trials_pages.thisRepN,end_of_practice_trials_pages.thisTrialN,end_of_practice_trials_pages.thisN,end_of_practice_trials_pages.thisIndex,end_of_practice_trials_pages.ran,break_done_touch.x,break_done_touch.y,break_done_touch.leftButton,break_done_touch.midButton,break_done_touch.rightButton,break_done_keyboard.keys,experiment_trials.thisRepN,experiment_trials.thisTrialN,experiment_trials.thisN,experiment_trials.thisIndex,experiment_trials.ran,break_done_keyboard.rt
1,space,11.264,0.209259276,0.006481474,0,0,0,0,0,0,0,1,1,instructions,"INSTRUCTIONS
At the start of each trial, look at the hash marks (######) in the center of the screen. After a moment, a string of letters will appear. Your task is to indicate if the letter string forms a word or not (i.e., if it is a nonword). For example, AUTHOR is a word while AUTHON is a nonword.

Press the space bar or touch the button below to continue.",0,,5ec682b47ee9e4078e50eac7,2020-11-27_15h06.27.723,lexical_decision_task_MP_exp2,2020.2.5,Win32,60,,,,,,,,,,,,,,,,,,,,,,,,,,,,,,,,,,,,,,,,,
,space,12.93514,0.209259276,0.006481474,0,0,0,0,1,1,1,1,2,instructions,"If your device has a keyboard, press the 'Z' key for nonwords and the 'M' key for words.





Press the space bar or touch the button below to continue.",1,keyboard-example.gif,5ec682b47ee9e4078e50eac7,2020-11-27_15h06.27.723,lexical_decision_task_MP_exp2,2020.2.5,Win32,60,,,,,,,,,,,,,,,,,,,,,,,,,,,,,,,,,,,,,,,,,
,space,3.451905,0.209259276,0.006481474,0,0,0,0,2,2,2,1,3,instructions,"If you are using a touchscreen only device, use the buttons on the screen. Do not use the mouse.





Press the space bar or touch the button below to continue.",1,touchscreen-example.gif,5ec682b47ee9e4078e50eac7,2020-11-27_15h06.27.723,lexical_decision_task_MP_exp2,2020.2.5,Win32,60,,,,,,,,,,,,,,,,,,,,,,,,,,,,,,,,,,,,,,,,,
,space,5.47654,0.209259276,0.006481474,0,0,0,0,3,3,3,1,4,instructions,"It is very important that you respond as quickly and accurately as possible, as each letter string will only be on the screen for two seconds. If you do not respond within this time, the message 'Too slow!' will be displayed and the experiment will progress to the next letter string. The first 20 trials will be practice trials and you will receive feedback on your answers. 

Press the space bar or touch the button below to start the practice trials.",0,,5ec682b47ee9e4078e50eac7,2020-11-27_15h06.27.723,lexical_decision_task_MP_exp2,2020.2.5,Win32,60,,,,,,,,,,,,,,,,,,,,,,,,,,,,,,,,,,,,,,,,,
,,,,,,,,,,,,,,,,,,5ec682b47ee9e4078e50eac7,2020-11-27_15h06.27.723,lexical_decision_task_MP_exp2,2020.2.5,Win32,60,z,1,1.684475,,,,,,,,1.684475,1,0,0,0,14,1,1015,NW,UN,16,miaber,THRALE,z,,,,,,,,,,,,,,,,,
,,,,,,,,,,,,,,,,,,5ec682b47ee9e4078e50eac7,2020-11-27_15h06.27.723,lexical_decision_task_MP_exp2,2020.2.5,Win32,60,m,1,0.89437,,,,,,,,0.89437,1,0,1,1,3,1,1004,WORD,"ID",16,matrix,MATRIX,m,,,,,,,,,,,,,,,,,
,,,,,,,,,,,,,,,,,,5ec682b47ee9e4078e50eac7,2020-11-27_15h06.27.723,lexical_decision_task_MP_exp2,2020.2.5,Win32,60,m,1,0.79487,,,,,,,,0.79487,1,0,2,2,6,1,1007,WORD,UN,16,tropic,ZOMBIE,m,,,,,,,,,,,,,,,,,
,,,,,,,,,,,,,,,,,,5ec682b47ee9e4078e50eac7,2020-11-27_15h06.27.723,lexical_decision_task_MP_exp2,2020.2.5,Win32,60,m,1,0.69522,,,,,,,,0.69522,1,0,3,3,5,1,1006,WORD,UN,33,frenzy,OBTAIN,m,,,,,,,,,,,,,,,,,
,,,,,,,,,,,,,,,,,,5ec682b47ee9e4078e50eac7,2020-11-27_15h06.27.723,lexical_decision_task_MP_exp2,2020.2.5,Win32,60,m,1,0.675205,,,,,,,,0.675205,1,0,4,4,0,1,1001,WORD,"ID",33,utopia,UTOPIA,m,,,,,,,,,,,,,,,,,
,,,,,,,,,,,,,,,,,,5ec682b47ee9e4078e50eac7,2020-11-27_15h06.27.723,lexical_decision_task_MP_exp2,2020.2.5,Win32,60,m,1,0.638295,,,,,,,,0.638295,1,0,5,5,7,1,1008,WORD,UN,16,hurdle,VOLUME,m,,,,,,,,,,,,,,,,,
,,,,,,,,,,,,,,,,,,5ec682b47ee9e4078e50eac7,2020-11-27_15h06.27.723,lexical_decision_task_MP_exp2,2020.2.5,Win32,60,z,1,0.880855,,,,,,,,0.880855,1,0,6,6,12,1,1013,NW,UN,33,adveil,SPRINY,z,,,,,,,,,,,,,,,,,
,,,,,,,,,,,,,,,,,,5ec682b47ee9e4078e50eac7,2020-11-27_15h06.27.723,lexical_decision_task_MP_exp2,2020.2.5,Win32,60,z,1,1.049085,,,,,,,,1.049085,1,0,7,7,13,1,1014,NW,UN,33,winfer,ROUPET,z,,,,,,,,,,,,,,,,,
,,,,,,,,,,,,,,,,,,5ec682b47ee9e4078e50eac7,2020-11-27_15h06.27.723,lexical_decision_task_MP_exp2,2020.2.5,Win32,60,z,1,1.119755,,,,,,,,1.119755,1,0,8,8,10,1,1011,NW,"ID",16,inlade,INLADE,z,,,,,,,,,,,,,,,,,
,,,,,,,,,,,,,,,,,,5ec682b47ee9e4078e50eac7,2020-11-27_15h06.27.723,lexical_decision_task_MP_exp2,2020.2.5,Win32,60,z,1,0.9345,,,,,,,,0.9345,1,0,9,9,9,1,1010,NW,"ID",33,fariny,FARINY,z,,,,,,,,,,,,,,,,,
,,,,,,,,,,,,,,,,,,5ec682b47ee9e4078e50eac7,2020-11-27_15h06.27.723,lexical_decision_task_MP_exp2,2020.2.5,Win32,60,z,1,0.746285,,,,,,,,0.746285,1,0,10,10,11,1,1012,NW,"ID",16,rashet,RASHET,z,,,,,,,,,,,,,,,,,
,,,,,,,,,,,,,,,,,,5ec682b47ee9e4078e50eac7,2020-11-27_15h06.27.723,lexical_decision_task_MP_exp2,2020.2.5,Win32,60,m,1,0.813475,,,,,,,,0.813475,1,0,11,11,4,1,1005,WORD,UN,33,abound,SQUEAK,m,,,,,,,,,,,,,,,,,
,,,,,,,,,,,,,,,,,,5ec682b47ee9e4078e50eac7,2020-11-27_15h06.27.723,lexical_decision_task_MP_exp2,2020.2.5,Win32,60,z,1,0.738215,,,,,,,,0.738215,1,0,12,12,15,1,1016,NW,UN,16,mushed,WHAISE,z,,,,,,,,,,,,,,,,,
,,,,,,,,,,,,,,,,,,5ec682b47ee9e4078e50eac7,2020-11-27_15h06.27.723,lexical_decision_task_MP_exp2,2020.2.5,Win32,60,m,1,0.71377,,,,,,,,0.71377,1,0,13,13,1,1,1002,WORD,"ID",33,adjust,ADJUST,m,,,,,,,,,,,,,,,,,
,,,,,,,,,,,,,,,,,,5ec682b47ee9e4078e50eac7,2020-11-27_15h06.27.723,lexical_decision_task_MP_exp2,2020.2.5,Win32,60,m,1,0.77206,,,,,,,,0.77206,1,0,14,14,2,1,1003,WORD,"ID",16,almond,ALMOND,m,,,,,,,,,,,,,,,,,
,,,,,,,,,,,,,,,,,,5ec682b47ee9e4078e50eac7,2020-11-27_15h06.27.723,lexical_decision_task_MP_exp2,2020.2.5,Win32,60,z,1,0.781115,,,,,,,,0.781115,1,0,15,15,8,1,1009,NW,"ID",33,aslert,ASLERT,z,,,,,,,,,,,,,,,,,
,space,7.75327,0.209259276,0.006481474,0,0,0,,,,,,1,end_of_practice,"You have completed the practice trials. During the experimental trials, you will not receive feedback, but it is very important that you respond as quickly and accurately as possible. 
Before you begin, please ensure that you are in a comfortable and quiet location and will not be disturbed for about 15 minutes, as we cannot use your data if you do not complete all the trials. 
There will be opportunities to take breaks at regular intervals during the experiment. When you are ready to start the experimental trials, please press space or touch the button below.",,,5ec682b47ee9e4078e50eac7,2020-11-27_15h06.27.723,lexical_decision_task_MP_exp2,2020.2.5,Win32,60,,,,,,,,,,,,,,,,,,,,,,,,,0,0,0,0,1,,,,,,,,,,,,
,,,,,,,,,,,,,,,,,,5ec682b47ee9e4078e50eac7,2020-11-27_15h06.27.723,lexical_decision_task_MP_exp2,2020.2.5,Win32,60,z,1,0.809555,,,,,,,,0.809555,1,,,,,,312,NW,"ID",16,nerawl,NERAWL,z,,,,,,0.209259276,0.006481474,0,0,0,,0,0,0,311,1,
,,,,,,,,,,,,,,,,,,5ec682b47ee9e4078e50eac7,2020-11-27_15h06.27.723,lexical_decision_task_MP_exp2,2020.2.5,Win32,60,z,1,0.821465,,,,,,,,0.821465,1,,,,,,381,NW,UN,33,sarley,HUNIEK,z,,,,,,0.209259276,0.006481474,0,0,0,,0,1,1,380,1,
,,,,,,,,,,,,,,,,,,5ec682b47ee9e4078e50eac7,2020-11-27_15h06.27.723,lexical_decision_task_MP_exp2,2020.2.5,Win32,60,z,1,0.692675,,,,,,,,0.692675,1,,,,,,450,NW,UN,16,rastoe,PHRECT,z,,,,,,0.209259276,0.006481474,0,0,0,,0,2,2,449,1,
,,,,,,,,,,,,,,,,,,5ec682b47ee9e4078e50eac7,2020-11-27_15h06.27.723,lexical_decision_task_MP_exp2,2020.2.5,Win32,60,m,1,0.61314,,,,,,,,0.61314,1,,,,,,72,WORD,"ID",16,bright,BRIGHT,m,,,,,,0.209259276,0.006481474,0,0,0,,0,3,3,71,1,
,,,,,,,,,,,,,,,,,,5ec682b47ee9e4078e50eac7,2020-11-27_15h06.27.723,lexical_decision_task_MP_exp2,2020.2.5,Win32,60,m,1,0.59994,,,,,,,,0.59994,1,,,,,,97,WORD,"ID",16,client,CLIENT,m,,,,,,0.209259276,0.006481474,0,0,0,,0,4,4,96,1,
,,,,,,,,,,,,,,,,,,5ec682b47ee9e4078e50eac7,2020-11-27_15h06.27.723,lexical_decision_task_MP_exp2,2020.2.5,Win32,60,z,1,0.828895,,,,,,,,0.828895,1,,,,,,418,NW,UN,33,slount,SUIDLE,z,,,,,,0.209259276,0.006481474,0,0,0,,0,5,5,417,1,
,,,,,,,,,,,,,,,,,,5ec682b47ee9e4078e50eac7,2020-11-27_15h06.27.723,lexical_decision_task_MP_exp2,2020.2.5,Win32,60,m,0,0.635645,,,,,,,,0.635645,0,,,,,,336,NW,"ID",16,ghodus,GHODUS,z,,,,,,0.209259276,0.006481474,0,0,0,,0,6,6,335,1,
,,,,,,,,,,,,,,,,,,5ec682b47ee9e4078e50eac7,2020-11-27_15h06.27.723,lexical_decision_task_MP_exp2,2020.2.5,Win32,60,z,1,0.5396,,,,,,,,0.5396,1,,,,,,346,NW,"ID",16,saudic,SAUDIC,z,,,,,,0.209259276,0.006481474,0,0,0,,0,7,7,345,1,
,,,,,,,,,,,,,,,,,,5ec682b47ee9e4078e50eac7,2020-11-27_15h06.27.723,lexical_decision_task_MP_exp2,2020.2.5,Win32,60,m,1,0.723205,,,,,,,,0.723205,1,,,,,,115,WORD,"ID",16,guitar,GUITAR,m,,,,,,0.209259276,0.006481474,0,0,0,,0,8,8,114,1,
,,,,,,,,,,,,,,,,,,5ec682b47ee9e4078e50eac7,2020-11-27_15h06.27.723,lexical_decision_task_MP_exp2,2020.2.5,Win32,60,z,1,0.69695,,,,,,,,0.69695,1,,,,,,359,NW,"ID",16,fonver,FONVER,z,,,,,,0.209259276,0.006481474,0,0,0,,0,9,9,358,1,
,,,,,,,,,,,,,,,,,,5ec682b47ee9e4078e50eac7,2020-11-27_15h06.27.723,lexical_decision_task_MP_exp2,2020.2.5,Win32,60,m,1,0.726885,,,,,,,,0.726885,1,,,,,,60,WORD,"ID",33,pencil,PENCIL,m,,,,,,0.209259276,0.006481474,0,0,0,,0,10,10,59,1,
,,,,,,,,,,,,,,,,,,5ec682b47ee9e4078e50eac7,2020-11-27_15h06.27.723,lexical_decision_task_MP_exp2,2020.2.5,Win32,60,z,1,0.616105,,,,,,,,0.616105,1,,,,,,310,NW,"ID",16,daniet,DANIET,z,,,,,,0.209259276,0.006481474,0,0,0,,0,11,11,309,1,
,,,,,,,,,,,,,,,,,,5ec682b47ee9e4078e50eac7,2020-11-27_15h06.27.723,lexical_decision_task_MP_exp2,2020.2.5,Win32,60,m,1,0.880915,,,,,,,,0.880915,1,,,,,,183,WORD,UN,16,sleazy,MILDEW,m,,,,,,0.209259276,0.006481474,0,0,0,,0,12,12,182,1,
,,,,,,,,,,,,,,,,,,5ec682b47ee9e4078e50eac7,2020-11-27_15h06.27.723,lexical_decision_task_MP_exp2,2020.2.5,Win32,60,z,1,0.732705,,,,,,,,0.732705,1,,,,,,249,NW,"ID",33,batrol,BATROL,z,,,,,,0.209259276,0.006481474,0,0,0,,0,13,13,248,1,
,,,,,,,,,,,,,,,,,,5ec682b47ee9e4078e50eac7,2020-11-27_15h06.27.723,lexical_decision_task_MP_exp2,2020.2.5,Win32,60,z,1,0.768135,,,,,,,,0.768135,1,,,,,,402,NW,UN,33,bruats,SYNTIC,z,,,,,,0.209259276,0.006481474,0,0,0,,0,14,14,401,1,
,,,,,,,,,,,,,,,,,,5ec682b47ee9e4078e50eac7,2020-11-27_15h06.27.723,lexical_decision_task_MP_exp2,2020.2.5,Win32,60,z,1,0.66217,,,,,,,,0.66217,1,,,,,,331,NW,"ID",16,gilfew,GILFEW,z,,,,,,0.209259276,0.006481474,0,0,0,,0,15,15,330,1,
,,,,,,,,,,,,,,,,,,5ec682b47ee9e4078e50eac7,2020-11-27_15h06.27.723,lexical_decision_task_MP_exp2,2020.2.5,Win32,60,m,1,0.847015,,,,,,,,0.847015,1,,,,,,77,WORD,"ID",16,racket,RACKET,m,,,,,,0.209259276,0.006481474,0,0,0,,0,16,16,76,1,
,,,,,,,,,,,,,,,,,,5ec682b47ee9e4078e50eac7,2020-11-27_15h06.27.723,lexical_decision_task_MP_exp2,2020.2.5,Win32,60,z,1,0.71278,,,,,,,,0.71278,1,,,,,,410,NW,UN,33,orchin,TUNORY,z,,,,,,0.209259276,0.006481474,0,0,0,,0,17,17,409,1,
,,,,,,,,,,,,,,,,,,5ec682b47ee9e4078e50eac7,2020-11-27_15h06.27.723,lexical_decision_task_MP_exp2,2020.2.5,Win32,60,m,1,0.576415,,,,,,,,0.576415,1,,,,,,238,WORD,UN,16,grumpy,FLOWER,m,,,,,,0.209259276,0.006481474,0,0,0,,0,18,18,237,1,
,,,,,,,,,,,,,,,,,,5ec682b47ee9e4078e50eac7,2020-11-27_15h06.27.723,lexical_decision_task_MP_exp2,2020.2.5,Win32,60,m,1,0.72949,,,,,,,,0.72949,1,,,,,,61,WORD,"ID",16,ponder,PONDER,m,,,,,,0.209259276,0.006481474,0,0,0,,0,19,19,60,1,
,,,,,,,,,,,,,,,,,,5ec682b47ee9e4078e50eac7,2020-11-27_15h06.27.723,lexical_decision_task_MP_exp2,2020.2.5,Win32,60,m,1,0.64859,,,,,,,,0.64859,1,,,,,,181,WORD,UN,16,winter,GLANCE,m,,,,,,0.209259276,0.006481474,0,0,0,,0,20,20,180,1,
,,,,,,,,,,,,,,,,,,5ec682b47ee9e4078e50eac7,2020-11-27_15h06.27.723,lexical_decision_task_MP_exp2,2020.2.5,Win32,60,z,1,0.68668,,,,,,,,0.68668,1,,,,,,441,NW,UN,16,aboune,RASTOE,z,,,,,,0.209259276,0.006481474,0,0,0,,0,21,21,440,1,
,,,,,,,,,,,,,,,,,,5ec682b47ee9e4078e50eac7,2020-11-27_15h06.27.723,lexical_decision_task_MP_exp2,2020.2.5,Win32,60,m,1,0.63111,,,,,,,,0.63111,1,,,,,,228,WORD,UN,16,inject,MASTER,m,,,,,,0.209259276,0.006481474,0,0,0,,0,22,22,227,1,
,,,,,,,,,,,,,,,,,,5ec682b47ee9e4078e50eac7,2020-11-27_15h06.27.723,lexical_decision_task_MP_exp2,2020.2.5,Win32,60,m,1,0.78024,,,,,,,,0.78024,1,,,,,,134,WORD,UN,33,import,STAPLE,m,,,,,,0.209259276,0.006481474,0,0,0,,0,23,23,133,1,
,,,,,,,,,,,,,,,,,,5ec682b47ee9e4078e50eac7,2020-11-27_15h06.27.723,lexical_decision_task_MP_exp2,2020.2.5,Win32,60,m,1,0.63197,,,,,,,,0.63197,1,,,,,,98,WORD,"ID",16,belong,BELONG,m,,,,,,0.209259276,0.006481474,0,0,0,,0,24,24,97,1,
,,,,,,,,,,,,,,,,,,5ec682b47ee9e4078e50eac7,2020-11-27_15h06.27.723,lexical_decision_task_MP_exp2,2020.2.5,Win32,60,m,1,0.744165,,,,,,,,0.744165,1,,,,,,192,WORD,UN,16,object,PLAGUE,m,,,,,,0.209259276,0.006481474,0,0,0,,0,25,25,191,1,
,,,,,,,,,,,,,,,,,,5ec682b47ee9e4078e50eac7,2020-11-27_15h06.27.723,lexical_decision_task_MP_exp2,2020.2.5,Win32,60,m,1,0.69395,,,,,,,,0.69395,1,,,,,,62,WORD,"ID",16,region,REGION,m,,,,,,0.209259276,0.006481474,0,0,0,,0,26,26,61,1,
,,,,,,,,,,,,,,,,,,5ec682b47ee9e4078e50eac7,2020-11-27_15h06.27.723,lexical_decision_task_MP_exp2,2020.2.5,Win32,60,m,0,1.422095,,,,,,,,1.422095,0,,,,,,294,NW,"ID",33,inhort,INHORT,z,,,,,,0.209259276,0.006481474,0,0,0,,0,27,27,293,1,
,,,,,,,,,,,,,,,,,,5ec682b47ee9e4078e50eac7,2020-11-27_15h06.27.723,lexical_decision_task_MP_exp2,2020.2.5,Win32,60,m,1,0.677995,,,,,,,,0.677995,1,,,,,,213,WORD,UN,16,intake,SQUEAL,m,,,,,,0.209259276,0.006481474,0,0,0,,0,28,28,212,1,
,,,,,,,,,,,,,,,,,,5ec682b47ee9e4078e50eac7,2020-11-27_15h06.27.723,lexical_decision_task_MP_exp2,2020.2.5,Win32,60,z,1,0.730695,,,,,,,,0.730695,1,,,,,,343,NW,"ID",16,aimosy,AIMOSY,z,,,,,,0.209259276,0.006481474,0,0,0,,0,29,29,342,1,
,,,,,,,,,,,,,,,,,,5ec682b47ee9e4078e50eac7,2020-11-27_15h06.27.723,lexical_decision_task_MP_exp2,2020.2.5,Win32,60,m,1,0.779385,,,,,,,,0.779385,1,,,,,,159,WORD,UN,33,violet,DETAIL,m,,,,,,0.209259276,0.006481474,0,0,0,,0,30,30,158,1,
,,,,,,,,,,,,,,,,,,5ec682b47ee9e4078e50eac7,2020-11-27_15h06.27.723,lexical_decision_task_MP_exp2,2020.2.5,Win32,60,z,1,1.11637,,,,,,,,1.11637,1,,,,,,355,NW,"ID",16,zingly,ZINGLY,z,,,,,,0.209259276,0.006481474,0,0,0,,0,31,31,354,1,
,,,,,,,,,,,,,,,,,,5ec682b47ee9e4078e50eac7,2020-11-27_15h06.27.723,lexical_decision_task_MP_exp2,2020.2.5,Win32,60,z,1,0.875605,,,,,,,,0.875605,1,,,,,,295,NW,"ID",33,gleath,GLEATH,z,,,,,,0.209259276,0.006481474,0,0,0,,0,32,32,294,1,
,,,,,,,,,,,,,,,,,,5ec682b47ee9e4078e50eac7,2020-11-27_15h06.27.723,lexical_decision_task_MP_exp2,2020.2.5,Win32,60,m,1,0.981795,,,,,,,,0.981795,1,,,,,,100,WORD,"ID",16,carbon,CARBON,m,,,,,,0.209259276,0.006481474,0,0,0,,0,33,33,99,1,
,,,,,,,,,,,,,,,,,,5ec682b47ee9e4078e50eac7,2020-11-27_15h06.27.723,lexical_decision_task_MP_exp2,2020.2.5,Win32,60,z,1,0.596385,,,,,,,,0.596385,1,,,,,,427,NW,UN,16,tandly,SCHIND,z,,,,,,0.209259276,0.006481474,0,0,0,,0,34,34,426,1,
,,,,,,,,,,,,,,,,,,5ec682b47ee9e4078e50eac7,2020-11-27_15h06.27.723,lexical_decision_task_MP_exp2,2020.2.5,Win32,60,m,1,0.65377,,,,,,,,0.65377,1,,,,,,104,WORD,"ID",16,studio,STUDIO,m,,,,,,0.209259276,0.006481474,0,0,0,,0,35,35,103,1,
,,,,,,,,,,,,,,,,,,5ec682b47ee9e4078e50eac7,2020-11-27_15h06.27.723,lexical_decision_task_MP_exp2,2020.2.5,Win32,60,z,0,0.71293,,,,,,,,0.71293,0,,,,,,176,WORD,UN,33,advent,STRIFE,m,,,,,,0.209259276,0.006481474,0,0,0,,0,36,36,175,1,
,,,,,,,,,,,,,,,,,,5ec682b47ee9e4078e50eac7,2020-11-27_15h06.27.723,lexical_decision_task_MP_exp2,2020.2.5,Win32,60,m,1,0.87927,,,,,,,,0.87927,1,,,,,,37,WORD,"ID",33,insult,INSULT,m,,,,,,0.209259276,0.006481474,0,0,0,,0,37,37,36,1,
,,,,,,,,,,,,,,,,,,5ec682b47ee9e4078e50eac7,2020-11-27_15h06.27.723,lexical_decision_task_MP_exp2,2020.2.5,Win32,60,m,1,0.648655,,,,,,,,0.648655,1,,,,,,179,WORD,UN,33,silent,BASKET,m,,,,,,0.209259276,0.006481474,0,0,0,,0,38,38,178,1,
,,,,,,,,,,,,,,,,,,5ec682b47ee9e4078e50eac7,2020-11-27_15h06.27.723,lexical_decision_task_MP_exp2,2020.2.5,Win32,60,m,1,0.51335,,,,,,,,0.51335,1,,,,,,73,WORD,"ID",16,source,SOURCE,m,,,,,,0.209259276,0.006481474,0,0,0,,0,39,39,72,1,
,,,,,,,,,,,,,,,,,,5ec682b47ee9e4078e50eac7,2020-11-27_15h06.27.723,lexical_decision_task_MP_exp2,2020.2.5,Win32,60,z,1,0.638585,,,,,,,,0.638585,1,,,,,,376,NW,UN,33,sliant,IGUARE,z,,,,,,0.209259276,0.006481474,0,0,0,,0,40,40,375,1,
,,,,,,,,,,,,,,,,,,5ec682b47ee9e4078e50eac7,2020-11-27_15h06.27.723,lexical_decision_task_MP_exp2,2020.2.5,Win32,60,m,1,0.580685,,,,,,,,0.580685,1,,,,,,208,WORD,UN,16,search,HOCKEY,m,,,,,,0.209259276,0.006481474,0,0,0,,0,41,41,207,1,
,,,,,,,,,,,,,,,,,,5ec682b47ee9e4078e50eac7,2020-11-27_15h06.27.723,lexical_decision_task_MP_exp2,2020.2.5,Win32,60,m,1,0.59064,,,,,,,,0.59064,1,,,,,,205,WORD,UN,16,tailor,LOUNGE,m,,,,,,0.209259276,0.006481474,0,0,0,,0,42,42,204,1,
,,,,,,,,,,,,,,,,,,5ec682b47ee9e4078e50eac7,2020-11-27_15h06.27.723,lexical_decision_task_MP_exp2,2020.2.5,Win32,60,z,1,0.80058,,,,,,,,0.80058,1,,,,,,358,NW,"ID",16,fleack,FLEACK,z,,,,,,0.209259276,0.006481474,0,0,0,,0,43,43,357,1,
,,,,,,,,,,,,,,,,,,5ec682b47ee9e4078e50eac7,2020-11-27_15h06.27.723,lexical_decision_task_MP_exp2,2020.2.5,Win32,60,m,1,0.738095,,,,,,,,0.738095,1,,,,,,223,WORD,UN,16,period,KIDNEY,m,,,,,,0.209259276,0.006481474,0,0,0,,0,44,44,222,1,
,,,,,,,,,,,,,,,,,,5ec682b47ee9e4078e50eac7,2020-11-27_15h06.27.723,lexical_decision_task_MP_exp2,2020.2.5,Win32,60,z,1,0.74924,,,,,,,,0.74924,1,,,,,,297,NW,"ID",33,fertic,FERTIC,z,,,,,,0.209259276,0.006481474,0,0,0,,0,45,45,296,1,
,,,,,,,,,,,,,,,,,,5ec682b47ee9e4078e50eac7,2020-11-27_15h06.27.723,lexical_decision_task_MP_exp2,2020.2.5,Win32,60,z,1,0.909555,,,,,,,,0.909555,1,,,,,,384,NW,UN,33,veigma,GUESCO,z,,,,,,0.209259276,0.006481474,0,0,0,,0,46,46,383,1,
,,,,,,,,,,,,,,,,,,5ec682b47ee9e4078e50eac7,2020-11-27_15h06.27.723,lexical_decision_task_MP_exp2,2020.2.5,Win32,60,m,1,0.720235,,,,,,,,0.720235,1,,,,,,222,WORD,UN,16,casino,HINDER,m,,,,,,0.209259276,0.006481474,0,0,0,,0,47,47,221,1,
,,,,,,,,,,,,,,,,,,5ec682b47ee9e4078e50eac7,2020-11-27_15h06.27.723,lexical_decision_task_MP_exp2,2020.2.5,Win32,60,z,1,0.579205,,,,,,,,0.579205,1,,,,,,361,NW,UN,33,tireau,PAUCHE,z,,,,,,0.209259276,0.006481474,0,0,0,,0,48,48,360,1,
,,,,,,,,,,,,,,,,,,5ec682b47ee9e4078e50eac7,2020-11-27_15h06.27.723,lexical_decision_task_MP_exp2,2020.2.5,Win32,60,z,1,0.824475,,,,,,,,0.824475,1,,,,,,405,NW,UN,33,nouply,FLUMNI,z,,,,,,0.209259276,0.006481474,0,0,0,,0,49,49,404,1,
,,,,,,,,,,,,,,,,,,5ec682b47ee9e4078e50eac7,2020-11-27_15h06.27.723,lexical_decision_task_MP_exp2,2020.2.5,Win32,60,z,1,0.62972,,,,,,,,0.62972,1,,,,,,273,NW,"ID",33,sortel,SORTEL,z,,,,,,0.209259276,0.006481474,0,0,0,,0,50,50,272,1,
,,,,,,,,,,,,,,,,,,5ec682b47ee9e4078e50eac7,2020-11-27_15h06.27.723,lexical_decision_task_MP_exp2,2020.2.5,Win32,60,z,1,0.58666,,,,,,,,0.58666,1,,,,,,308,NW,"ID",16,psetch,PSETCH,z,,,,,,0.209259276,0.006481474,0,0,0,,0,51,51,307,1,
,,,,,,,,,,,,,,,,,,5ec682b47ee9e4078e50eac7,2020-11-27_15h06.27.723,lexical_decision_task_MP_exp2,2020.2.5,Win32,60,m,1,0.72339,,,,,,,,0.72339,1,,,,,,147,WORD,UN,33,custom,GARLIC,m,,,,,,0.209259276,0.006481474,0,0,0,,0,52,52,146,1,
,,,,,,,,,,,,,,,,,,5ec682b47ee9e4078e50eac7,2020-11-27_15h06.27.723,lexical_decision_task_MP_exp2,2020.2.5,Win32,60,z,1,0.612385,,,,,,,,0.612385,1,,,,,,437,NW,UN,16,baitch,SNAPEL,z,,,,,,0.209259276,0.006481474,0,0,0,,0,53,53,436,1,
,,,,,,,,,,,,,,,,,,5ec682b47ee9e4078e50eac7,2020-11-27_15h06.27.723,lexical_decision_task_MP_exp2,2020.2.5,Win32,60,z,1,1.052505,,,,,,,,1.052505,1,,,,,,345,NW,"ID",16,absend,ABSEND,z,,,,,,0.209259276,0.006481474,0,0,0,,0,54,54,344,1,
,,,,,,,,,,,,,,,,,,5ec682b47ee9e4078e50eac7,2020-11-27_15h06.27.723,lexical_decision_task_MP_exp2,2020.2.5,Win32,60,z,1,0.823155,,,,,,,,0.823155,1,,,,,,277,NW,"ID",33,petain,PETAIN,z,,,,,,0.209259276,0.006481474,0,0,0,,0,55,55,276,1,
,,,,,,,,,,,,,,,,,,5ec682b47ee9e4078e50eac7,2020-11-27_15h06.27.723,lexical_decision_task_MP_exp2,2020.2.5,Win32,60,z,1,0.70091,,,,,,,,0.70091,1,,,,,,321,NW,"ID",16,miator,MIATOR,z,,,,,,0.209259276,0.006481474,0,0,0,,0,56,56,320,1,
,,,,,,,,,,,,,,,,,,5ec682b47ee9e4078e50eac7,2020-11-27_15h06.27.723,lexical_decision_task_MP_exp2,2020.2.5,Win32,60,m,1,0.93778,,,,,,,,0.93778,1,,,,,,106,WORD,"ID",16,ransom,RANSOM,m,,,,,,0.209259276,0.006481474,0,0,0,,0,57,57,105,1,
,,,,,,,,,,,,,,,,,,5ec682b47ee9e4078e50eac7,2020-11-27_15h06.27.723,lexical_decision_task_MP_exp2,2020.2.5,Win32,60,m,0,0.991575,,,,,,,,0.991575,0,,,,,,454,NW,UN,16,tondle,SCOUGE,z,,,,,,0.209259276,0.006481474,0,0,0,,0,58,58,453,1,
,,,,,,,,,,,,,,,,,,5ec682b47ee9e4078e50eac7,2020-11-27_15h06.27.723,lexical_decision_task_MP_exp2,2020.2.5,Win32,60,m,1,0.7143,,,,,,,,0.7143,1,,,,,,51,WORD,"ID",33,hungry,HUNGRY,m,,,,,,0.209259276,0.006481474,0,0,0,,0,59,59,50,1,
,,,,,,,,,,,,,,,,,,5ec682b47ee9e4078e50eac7,2020-11-27_15h06.27.723,lexical_decision_task_MP_exp2,2020.2.5,Win32,60,z,1,0.76411,,,,,,,,0.76411,1,,,,,,287,NW,"ID",33,nymbel,NYMBEL,z,,,,,,0.209259276,0.006481474,0,0,0,,0,60,60,286,1,
,,,,,,,,,,,,,,,,,,5ec682b47ee9e4078e50eac7,2020-11-27_15h06.27.723,lexical_decision_task_MP_exp2,2020.2.5,Win32,60,m,1,0.681255,,,,,,,,0.681255,1,,,,,,239,WORD,UN,16,forest,LUMBER,m,,,,,,0.209259276,0.006481474,0,0,0,,0,61,61,238,1,
,,,,,,,,,,,,,,,,,,5ec682b47ee9e4078e50eac7,2020-11-27_15h06.27.723,lexical_decision_task_MP_exp2,2020.2.5,Win32,60,z,1,0.700775,,,,,,,,0.700775,1,,,,,,416,NW,UN,33,earoud,PATHEL,z,,,,,,0.209259276,0.006481474,0,0,0,,0,62,62,415,1,
,,,,,,,,,,,,,,,,,,5ec682b47ee9e4078e50eac7,2020-11-27_15h06.27.723,lexical_decision_task_MP_exp2,2020.2.5,Win32,60,z,1,0.717805,,,,,,,,0.717805,1,,,,,,280,NW,"ID",33,curbol,CURBOL,z,,,,,,0.209259276,0.006481474,0,0,0,,0,63,63,279,1,
,,,,,,,,,,,,,,,,,,5ec682b47ee9e4078e50eac7,2020-11-27_15h06.27.723,lexical_decision_task_MP_exp2,2020.2.5,Win32,60,z,1,0.68305,,,,,,,,0.68305,1,,,,,,440,NW,UN,16,cainky,SARIDE,z,,,,,,0.209259276,0.006481474,0,0,0,,0,64,64,439,1,
,,,,,,,,,,,,,,,,,,5ec682b47ee9e4078e50eac7,2020-11-27_15h06.27.723,lexical_decision_task_MP_exp2,2020.2.5,Win32,60,m,1,0.615885,,,,,,,,0.615885,1,,,,,,165,WORD,UN,33,starch,INVEST,m,,,,,,0.209259276,0.006481474,0,0,0,,0,65,65,164,1,
,,,,,,,,,,,,,,,,,,5ec682b47ee9e4078e50eac7,2020-11-27_15h06.27.723,lexical_decision_task_MP_exp2,2020.2.5,Win32,60,z,1,0.90131,,,,,,,,0.90131,1,,,,,,248,NW,"ID",33,strole,STROLE,z,,,,,,0.209259276,0.006481474,0,0,0,,0,66,66,247,1,
,,,,,,,,,,,,,,,,,,5ec682b47ee9e4078e50eac7,2020-11-27_15h06.27.723,lexical_decision_task_MP_exp2,2020.2.5,Win32,60,m,1,0.73322,,,,,,,,0.73322,1,,,,,,117,WORD,"ID",16,branch,BRANCH,m,,,,,,0.209259276,0.006481474,0,0,0,,0,67,67,116,1,
,,,,,,,,,,,,,,,,,,5ec682b47ee9e4078e50eac7,2020-11-27_15h06.27.723,lexical_decision_task_MP_exp2,2020.2.5,Win32,60,m,1,0.643305,,,,,,,,0.643305,1,,,,,,17,WORD,"ID",33,charge,CHARGE,m,,,,,,0.209259276,0.006481474,0,0,0,,0,68,68,16,1,
,,,,,,,,,,,,,,,,,,5ec682b47ee9e4078e50eac7,2020-11-27_15h06.27.723,lexical_decision_task_MP_exp2,2020.2.5,Win32,60,m,1,0.67391,,,,,,,,0.67391,1,,,,,,21,WORD,"ID",33,simple,SIMPLE,m,,,,,,0.209259276,0.006481474,0,0,0,,0,69,69,20,1,
,,,,,,,,,,,,,,,,,,5ec682b47ee9e4078e50eac7,2020-11-27_15h06.27.723,lexical_decision_task_MP_exp2,2020.2.5,Win32,60,m,1,0.642875,,,,,,,,0.642875,1,,,,,,108,WORD,"ID",16,reckon,RECKON,m,,,,,,0.209259276,0.006481474,0,0,0,,0,70,70,107,1,
,,,,,,,,,,,,,,,,,,5ec682b47ee9e4078e50eac7,2020-11-27_15h06.27.723,lexical_decision_task_MP_exp2,2020.2.5,Win32,60,z,1,0.513355,,,,,,,,0.513355,1,,,,,,288,NW,"ID",33,yaceup,YACEUP,z,,,,,,0.209259276,0.006481474,0,0,0,,0,71,71,287,1,
,,,,,,,,,,,,,,,,,,5ec682b47ee9e4078e50eac7,2020-11-27_15h06.27.723,lexical_decision_task_MP_exp2,2020.2.5,Win32,60,z,1,1.01803,,,,,,,,1.01803,1,,,,,,453,NW,UN,16,scouge,BOLVIS,z,,,,,,0.209259276,0.006481474,0,0,0,,0,72,72,452,1,
,,,,,,,,,,,,,,,,,,5ec682b47ee9e4078e50eac7,2020-11-27_15h06.27.723,lexical_decision_task_MP_exp2,2020.2.5,Win32,60,m,1,0.834935,,,,,,,,0.834935,1,,,,,,16,WORD,"ID",33,faucet,FAUCET,m,,,,,,0.209259276,0.006481474,0,0,0,,0,73,73,15,1,
,,,,,,,,,,,,,,,,,,5ec682b47ee9e4078e50eac7,2020-11-27_15h06.27.723,lexical_decision_task_MP_exp2,2020.2.5,Win32,60,m,1,0.791315,,,,,,,,0.791315,1,,,,,,76,WORD,"ID",16,exotic,EXOTIC,m,,,,,,0.209259276,0.006481474,0,0,0,,0,74,74,75,1,
,,,,,,,,,,,,,,,,,,5ec682b47ee9e4078e50eac7,2020-11-27_15h06.27.723,lexical_decision_task_MP_exp2,2020.2.5,Win32,60,z,1,1.73248,,,,,,,,1.73248,1,,,,,,423,NW,UN,16,praile,STRELD,z,,,,,,0.209259276,0.006481474,0,0,0,,0,75,75,422,1,
,,,,,,,,,,,,,,,,,,5ec682b47ee9e4078e50eac7,2020-11-27_15h06.27.723,lexical_decision_task_MP_exp2,2020.2.5,Win32,60,m,1,0.94124,,,,,,,,0.94124,1,,,,,,119,WORD,"ID",16,spider,SPIDER,m,,,,,,0.209259276,0.006481474,0,0,0,,0,76,76,118,1,
,,,,,,,,,,,,,,,,,,5ec682b47ee9e4078e50eac7,2020-11-27_15h06.27.723,lexical_decision_task_MP_exp2,2020.2.5,Win32,60,z,1,0.65202,,,,,,,,0.65202,1,,,,,,471,NW,UN,16,cigney,NOBEST,z,,,,,,0.209259276,0.006481474,0,0,0,,0,77,77,470,1,
,,,,,,,,,,,,,,,,,,5ec682b47ee9e4078e50eac7,2020-11-27_15h06.27.723,lexical_decision_task_MP_exp2,2020.2.5,Win32,60,m,1,0.6187,,,,,,,,0.6187,1,,,,,,152,WORD,UN,33,behold,ROCKET,m,,,,,,0.209259276,0.006481474,0,0,0,,0,78,78,151,1,
,,,,,,,,,,,,,,,,,,5ec682b47ee9e4078e50eac7,2020-11-27_15h06.27.723,lexical_decision_task_MP_exp2,2020.2.5,Win32,60,z,0,0.54039,,,,,,,,0.54039,0,,,,,,162,WORD,UN,33,string,CANDLE,m,,,,,,0.209259276,0.006481474,0,0,0,,0,79,79,161,1,
,,,,,,,,,,,,,,,,,,5ec682b47ee9e4078e50eac7,2020-11-27_15h06.27.723,lexical_decision_task_MP_exp2,2020.2.5,Win32,60,m,1,0.706825,,,,,,,,0.706825,1,,,,,,214,WORD,UN,16,phobia,INTAKE,m,,,,,,0.209259276,0.006481474,0,0,0,,0,80,80,213,1,
,,,,,,,,,,,,,,,,,,5ec682b47ee9e4078e50eac7,2020-11-27_15h06.27.723,lexical_decision_task_MP_exp2,2020.2.5,Win32,60,z,1,0.593425,,,,,,,,0.593425,1,,,,,,340,NW,"ID",16,fiatch,FIATCH,z,,,,,,0.209259276,0.006481474,0,0,0,,0,81,81,339,1,
,,,,,,,,,,,,,,,,,,5ec682b47ee9e4078e50eac7,2020-11-27_15h06.27.723,lexical_decision_task_MP_exp2,2020.2.5,Win32,60,z,1,0.76767,,,,,,,,0.76767,1,,,,,,466,NW,UN,16,pebric,HOCITE,z,,,,,,0.209259276,0.006481474,0,0,0,,0,82,82,465,1,
,,,,,,,,,,,,,,,,,,5ec682b47ee9e4078e50eac7,2020-11-27_15h06.27.723,lexical_decision_task_MP_exp2,2020.2.5,Win32,60,z,1,0.55898,,,,,,,,0.55898,1,,,,,,315,NW,"ID",16,laston,LASTON,z,,,,,,0.209259276,0.006481474,0,0,0,,0,83,83,314,1,
,,,,,,,,,,,,,,,,,,5ec682b47ee9e4078e50eac7,2020-11-27_15h06.27.723,lexical_decision_task_MP_exp2,2020.2.5,Win32,60,m,1,0.69194,,,,,,,,0.69194,1,,,,,,42,WORD,"ID",33,chapel,CHAPEL,m,,,,,,0.209259276,0.006481474,0,0,0,,0,84,84,41,1,
,,,,,,,,,,,,,,,,,,5ec682b47ee9e4078e50eac7,2020-11-27_15h06.27.723,lexical_decision_task_MP_exp2,2020.2.5,Win32,60,z,1,1.064875,,,,,,,,1.064875,1,,,,,,360,NW,"ID",16,desory,DESORY,z,,,,,,0.209259276,0.006481474,0,0,0,,0,85,85,359,1,
,,,,,,,,,,,,,,,,,,5ec682b47ee9e4078e50eac7,2020-11-27_15h06.27.723,lexical_decision_task_MP_exp2,2020.2.5,Win32,60,z,1,0.730895,,,,,,,,0.730895,1,,,,,,335,NW,"ID",16,desion,DESION,z,,,,,,0.209259276,0.006481474,0,0,0,,0,86,86,334,1,
,,,,,,,,,,,,,,,,,,5ec682b47ee9e4078e50eac7,2020-11-27_15h06.27.723,lexical_decision_task_MP_exp2,2020.2.5,Win32,60,z,1,0.538765,,,,,,,,0.538765,1,,,,,,431,NW,UN,16,lunker,CHRUMS,z,,,,,,0.209259276,0.006481474,0,0,0,,0,87,87,430,1,
,,,,,,,,,,,,,,,,,,5ec682b47ee9e4078e50eac7,2020-11-27_15h06.27.723,lexical_decision_task_MP_exp2,2020.2.5,Win32,60,m,1,0.649655,,,,,,,,0.649655,1,,,,,,236,WORD,UN,16,poster,PIRATE,m,,,,,,0.209259276,0.006481474,0,0,0,,0,88,88,235,1,
,,,,,,,,,,,,,,,,,,5ec682b47ee9e4078e50eac7,2020-11-27_15h06.27.723,lexical_decision_task_MP_exp2,2020.2.5,Win32,60,z,1,0.79519,,,,,,,,0.79519,1,,,,,,452,NW,UN,16,bolvis,SURDEN,z,,,,,,0.209259276,0.006481474,0,0,0,,0,89,89,451,1,
,,,,,,,,,,,,,,,,,,5ec682b47ee9e4078e50eac7,2020-11-27_15h06.27.723,lexical_decision_task_MP_exp2,2020.2.5,Win32,60,m,1,0.71914,,,,,,,,0.71914,1,,,,,,56,WORD,"ID",33,ambush,AMBUSH,m,,,,,,0.209259276,0.006481474,0,0,0,,0,90,90,55,1,
,,,,,,,,,,,,,,,,,,5ec682b47ee9e4078e50eac7,2020-11-27_15h06.27.723,lexical_decision_task_MP_exp2,2020.2.5,Win32,60,m,1,0.659105,,,,,,,,0.659105,1,,,,,,240,WORD,UN,16,glance,FOREST,m,,,,,,0.209259276,0.006481474,0,0,0,,0,91,91,239,1,
,,,,,,,,,,,,,,,,,,5ec682b47ee9e4078e50eac7,2020-11-27_15h06.27.723,lexical_decision_task_MP_exp2,2020.2.5,Win32,60,m,1,0.650665,,,,,,,,0.650665,1,,,,,,204,WORD,UN,16,lounge,BURDEN,m,,,,,,0.209259276,0.006481474,0,0,0,,0,92,92,203,1,
,,,,,,,,,,,,,,,,,,5ec682b47ee9e4078e50eac7,2020-11-27_15h06.27.723,lexical_decision_task_MP_exp2,2020.2.5,Win32,60,z,1,0.742915,,,,,,,,0.742915,1,,,,,,392,NW,UN,33,ganous,ROUNCY,z,,,,,,0.209259276,0.006481474,0,0,0,,0,93,93,391,1,
,,,,,,,,,,,,,,,,,,5ec682b47ee9e4078e50eac7,2020-11-27_15h06.27.723,lexical_decision_task_MP_exp2,2020.2.5,Win32,60,m,1,0.74129,,,,,,,,0.74129,1,,,,,,178,WORD,UN,33,mildew,INFORM,m,,,,,,0.209259276,0.006481474,0,0,0,,0,94,94,177,1,
,,,,,,,,,,,,,,,,,,5ec682b47ee9e4078e50eac7,2020-11-27_15h06.27.723,lexical_decision_task_MP_exp2,2020.2.5,Win32,60,m,1,0.62698,,,,,,,,0.62698,1,,,,,,194,WORD,UN,16,resign,ABSENT,m,,,,,,0.209259276,0.006481474,0,0,0,,0,95,95,193,1,
,,,,,,,,,,,,,,,,,,5ec682b47ee9e4078e50eac7,2020-11-27_15h06.27.723,lexical_decision_task_MP_exp2,2020.2.5,Win32,60,z,0,0.772795,,,,,,,,0.772795,0,,,,,,207,WORD,UN,16,hockey,WREATH,m,,,,,,0.209259276,0.006481474,0,0,0,,0,96,96,206,1,
,,,,,,,,,,,,,,,,,,5ec682b47ee9e4078e50eac7,2020-11-27_15h06.27.723,lexical_decision_task_MP_exp2,2020.2.5,Win32,60,m,1,0.77953,,,,,,,,0.77953,1,,,,,,143,WORD,UN,33,sponge,REASON,m,,,,,,0.209259276,0.006481474,0,0,0,,0,97,97,142,1,
,,,,,,,,,,,,,,,,,,5ec682b47ee9e4078e50eac7,2020-11-27_15h06.27.723,lexical_decision_task_MP_exp2,2020.2.5,Win32,60,z,1,0.56868,,,,,,,,0.56868,1,,,,,,393,NW,UN,33,spaqux,GANOUS,z,,,,,,0.209259276,0.006481474,0,0,0,,0,98,98,392,1,
,,,,,,,,,,,,,,,,,,5ec682b47ee9e4078e50eac7,2020-11-27_15h06.27.723,lexical_decision_task_MP_exp2,2020.2.5,Win32,60,z,0,0.81627,,,,,,,,0.81627,0,,,,,,30,WORD,"ID",33,orient,ORIENT,m,,,,,,0.209259276,0.006481474,0,0,0,,0,99,99,29,1,
,,,,,,,,,,,,,,,,,,5ec682b47ee9e4078e50eac7,2020-11-27_15h06.27.723,lexical_decision_task_MP_exp2,2020.2.5,Win32,60,z,1,0.78764,,,,,,,,0.78764,1,,,,,,396,NW,UN,33,camble,FLENGY,z,,,,,,0.209259276,0.006481474,0,0,0,,0,100,100,395,1,
,,,,,,,,,,,,,,,,,,5ec682b47ee9e4078e50eac7,2020-11-27_15h06.27.723,lexical_decision_task_MP_exp2,2020.2.5,Win32,60,m,1,0.74739,,,,,,,,0.74739,1,,,,,,34,WORD,"ID",33,jungle,JUNGLE,m,,,,,,0.209259276,0.006481474,0,0,0,,0,101,101,33,1,
,,,,,,,,,,,,,,,,,,5ec682b47ee9e4078e50eac7,2020-11-27_15h06.27.723,lexical_decision_task_MP_exp2,2020.2.5,Win32,60,m,1,0.480085,,,,,,,,0.480085,1,,,,,,197,WORD,UN,16,wicked,STREAM,m,,,,,,0.209259276,0.006481474,0,0,0,,0,102,102,196,1,
,,,,,,,,,,,,,,,,,,5ec682b47ee9e4078e50eac7,2020-11-27_15h06.27.723,lexical_decision_task_MP_exp2,2020.2.5,Win32,60,m,0,0.62913,,,,,,,,0.62913,0,,,,,,314,NW,"ID",16,sprine,SPRINE,z,,,,,,0.209259276,0.006481474,0,0,0,,0,103,103,313,1,
,,,,,,,,,,,,,,,,,,5ec682b47ee9e4078e50eac7,2020-11-27_15h06.27.723,lexical_decision_task_MP_exp2,2020.2.5,Win32,60,z,1,0.868215,,,,,,,,0.868215,1,,,,,,313,NW,"ID",16,paurse,PAURSE,z,,,,,,0.209259276,0.006481474,0,0,0,,0,104,104,312,1,
,,,,,,,,,,,,,,,,,,5ec682b47ee9e4078e50eac7,2020-11-27_15h06.27.723,lexical_decision_task_MP_exp2,2020.2.5,Win32,60,z,1,0.536215,,,,,,,,0.536215,1,,,,,,243,NW,"ID",33,musied,MUSIED,z,,,,,,0.209259276,0.006481474,0,0,0,,0,105,105,242,1,
,,,,,,,,,,,,,,,,,,5ec682b47ee9e4078e50eac7,2020-11-27_15h06.27.723,lexical_decision_task_MP_exp2,2020.2.5,Win32,60,m,1,0.686475,,,,,,,,0.686475,1,,,,,,127,WORD,UN,33,senior,CASTLE,m,,,,,,0.209259276,0.006481474,0,0,0,,0,106,106,126,1,
,,,,,,,,,,,,,,,,,,5ec682b47ee9e4078e50eac7,2020-11-27_15h06.27.723,lexical_decision_task_MP_exp2,2020.2.5,Win32,60,m,1,0.786205,,,,,,,,0.786205,1,,,,,,139,WORD,UN,33,prince,DEBRIS,m,,,,,,0.209259276,0.006481474,0,0,0,,0,107,107,138,1,
,,,,,,,,,,,,,,,,,,5ec682b47ee9e4078e50eac7,2020-11-27_15h06.27.723,lexical_decision_task_MP_exp2,2020.2.5,Win32,60,z,1,0.685965,,,,,,,,0.685965,1,,,,,,459,NW,UN,16,mingar,BAFENT,z,,,,,,0.209259276,0.006481474,0,0,0,,0,108,108,458,1,
,,,,,,,,,,,,,,,,,,5ec682b47ee9e4078e50eac7,2020-11-27_15h06.27.723,lexical_decision_task_MP_exp2,2020.2.5,Win32,60,m,1,0.72818,,,,,,,,0.72818,1,,,,,,78,WORD,"ID",16,column,COLUMN,m,,,,,,0.209259276,0.006481474,0,0,0,,0,109,109,77,1,
,,,,,,,,,,,,,,,,,,5ec682b47ee9e4078e50eac7,2020-11-27_15h06.27.723,lexical_decision_task_MP_exp2,2020.2.5,Win32,60,z,1,0.625125,,,,,,,,0.625125,1,,,,,,408,NW,UN,33,flumni,HURNIA,z,,,,,,0.209259276,0.006481474,0,0,0,,0,110,110,407,1,
,,,,,,,,,,,,,,,,,,5ec682b47ee9e4078e50eac7,2020-11-27_15h06.27.723,lexical_decision_task_MP_exp2,2020.2.5,Win32,60,z,1,0.682035,,,,,,,,0.682035,1,,,,,,426,NW,UN,16,frudge,URIVEL,z,,,,,,0.209259276,0.006481474,0,0,0,,0,111,111,425,1,
,,,,,,,,,,,,,,,,,,5ec682b47ee9e4078e50eac7,2020-11-27_15h06.27.723,lexical_decision_task_MP_exp2,2020.2.5,Win32,60,m,1,0.588315,,,,,,,,0.588315,1,,,,,,7,WORD,"ID",33,anchor,ANCHOR,m,,,,,,0.209259276,0.006481474,0,0,0,,0,112,112,6,1,
,,,,,,,,,,,,,,,,,,5ec682b47ee9e4078e50eac7,2020-11-27_15h06.27.723,lexical_decision_task_MP_exp2,2020.2.5,Win32,60,m,1,0.66629,,,,,,,,0.66629,1,,,,,,39,WORD,"ID",33,insect,INSECT,m,,,,,,0.209259276,0.006481474,0,0,0,,0,113,113,38,1,
,,,,,,,,,,,,,,,,,,5ec682b47ee9e4078e50eac7,2020-11-27_15h06.27.723,lexical_decision_task_MP_exp2,2020.2.5,Win32,60,z,1,0.746035,,,,,,,,0.746035,1,,,,,,371,NW,UN,33,ramily,GEILOY,z,,,,,,0.209259276,0.006481474,0,0,0,,0,114,114,370,1,
,,,,,,,,,,,,,,,,,,5ec682b47ee9e4078e50eac7,2020-11-27_15h06.27.723,lexical_decision_task_MP_exp2,2020.2.5,Win32,60,z,1,0.75359,,,,,,,,0.75359,1,,,,,,301,NW,"ID",16,fainch,FAINCH,z,,,,,,0.209259276,0.006481474,0,0,0,,0,115,115,300,1,
,,,,,,,,,,,,,,,,,,5ec682b47ee9e4078e50eac7,2020-11-27_15h06.27.723,lexical_decision_task_MP_exp2,2020.2.5,Win32,60,z,1,0.669935,,,,,,,,0.669935,1,,,,,,468,NW,UN,16,padifs,WICTOR,z,,,,,,0.209259276,0.006481474,0,0,0,,0,116,116,467,1,
,,,,,,,,,,,,,,,,,,5ec682b47ee9e4078e50eac7,2020-11-27_15h06.27.723,lexical_decision_task_MP_exp2,2020.2.5,Win32,60,z,1,0.53328,,,,,,,,0.53328,1,,,,,,411,NW,UN,33,jiluer,ORCHIN,z,,,,,,0.209259276,0.006481474,0,0,0,,0,117,117,410,1,
,,,,,,,,,,,,,,,,,,5ec682b47ee9e4078e50eac7,2020-11-27_15h06.27.723,lexical_decision_task_MP_exp2,2020.2.5,Win32,60,z,1,0.617165,,,,,,,,0.617165,1,,,,,,400,NW,UN,33,mustil,WEAROX,z,,,,,,0.209259276,0.006481474,0,0,0,,0,118,118,399,1,
,,,,,,,,,,,,,,,,,,5ec682b47ee9e4078e50eac7,2020-11-27_15h06.27.723,lexical_decision_task_MP_exp2,2020.2.5,Win32,60,m,1,1.0284,,,,,,,,1.0284,1,,,,,,196,WORD,UN,16,stream,CREDIT,m,,,,,,0.209259276,0.006481474,0,0,0,,0,119,119,195,1,
,,,,,,,,,,,,,,,,,,5ec682b47ee9e4078e50eac7,2020-11-27_15h06.27.723,lexical_decision_task_MP_exp2,2020.2.5,Win32,60,z,1,0.68722,,,,,,,,0.68722,1,,,,,,356,NW,"ID",16,othnis,OTHNIS,z,,,,,,0.209259276,0.006481474,0,0,0,space,0,120,120,355,1,4.0096
,,,,,,,,,,,,,,,,,,5ec682b47ee9e4078e50eac7,2020-11-27_15h06.27.723,lexical_decision_task_MP_exp2,2020.2.5,Win32,60,z,1,0.87999,,,,,,,,0.87999,1,,,,,,307,NW,"ID",16,kirafe,KIRAFE,z,,,,,,0.209259276,0.006481474,0,0,0,,0,121,121,306,1,
,,,,,,,,,,,,,,,,,,5ec682b47ee9e4078e50eac7,2020-11-27_15h06.27.723,lexical_decision_task_MP_exp2,2020.2.5,Win32,60,z,1,0.53342,,,,,,,,0.53342,1,,,,,,362,NW,UN,33,breali,TIREAU,z,,,,,,0.209259276,0.006481474,0,0,0,,0,122,122,361,1,
,,,,,,,,,,,,,,,,,,5ec682b47ee9e4078e50eac7,2020-11-27_15h06.27.723,lexical_decision_task_MP_exp2,2020.2.5,Win32,60,z,1,0.51542,,,,,,,,0.51542,1,,,,,,318,NW,"ID",16,reagly,REAGLY,z,,,,,,0.209259276,0.006481474,0,0,0,,0,123,123,317,1,
,,,,,,,,,,,,,,,,,,5ec682b47ee9e4078e50eac7,2020-11-27_15h06.27.723,lexical_decision_task_MP_exp2,2020.2.5,Win32,60,m,1,0.548185,,,,,,,,0.548185,1,,,,,,210,WORD,UN,16,infect,MONKEY,m,,,,,,0.209259276,0.006481474,0,0,0,,0,124,124,209,1,
,,,,,,,,,,,,,,,,,,5ec682b47ee9e4078e50eac7,2020-11-27_15h06.27.723,lexical_decision_task_MP_exp2,2020.2.5,Win32,60,m,1,0.901325,,,,,,,,0.901325,1,,,,,,85,WORD,"ID",16,sprawl,SPRAWL,m,,,,,,0.209259276,0.006481474,0,0,0,,0,125,125,84,1,
,,,,,,,,,,,,,,,,,,5ec682b47ee9e4078e50eac7,2020-11-27_15h06.27.723,lexical_decision_task_MP_exp2,2020.2.5,Win32,60,m,1,0.633505,,,,,,,,0.633505,1,,,,,,154,WORD,UN,33,lizard,AUTHOR,m,,,,,,0.209259276,0.006481474,0,0,0,,0,126,126,153,1,
,,,,,,,,,,,,,,,,,,5ec682b47ee9e4078e50eac7,2020-11-27_15h06.27.723,lexical_decision_task_MP_exp2,2020.2.5,Win32,60,m,1,0.596455,,,,,,,,0.596455,1,,,,,,144,WORD,UN,33,parish,SPONGE,m,,,,,,0.209259276,0.006481474,0,0,0,,0,127,127,143,1,
,,,,,,,,,,,,,,,,,,5ec682b47ee9e4078e50eac7,2020-11-27_15h06.27.723,lexical_decision_task_MP_exp2,2020.2.5,Win32,60,z,0,0.67399,,,,,,,,0.67399,0,,,,,,218,WORD,UN,16,bucket,SHRINK,m,,,,,,0.209259276,0.006481474,0,0,0,,0,128,128,217,1,
,,,,,,,,,,,,,,,,,,5ec682b47ee9e4078e50eac7,2020-11-27_15h06.27.723,lexical_decision_task_MP_exp2,2020.2.5,Win32,60,m,1,0.460415,,,,,,,,0.460415,1,,,,,,43,WORD,"ID",33,tongue,TONGUE,m,,,,,,0.209259276,0.006481474,0,0,0,,0,129,129,42,1,
,,,,,,,,,,,,,,,,,,5ec682b47ee9e4078e50eac7,2020-11-27_15h06.27.723,lexical_decision_task_MP_exp2,2020.2.5,Win32,60,z,1,0.709225,,,,,,,,0.709225,1,,,,,,365,NW,UN,33,toshel,GUAIRT,z,,,,,,0.209259276,0.006481474,0,0,0,,0,130,130,364,1,
,,,,,,,,,,,,,,,,,,5ec682b47ee9e4078e50eac7,2020-11-27_15h06.27.723,lexical_decision_task_MP_exp2,2020.2.5,Win32,60,z,1,0.679265,,,,,,,,0.679265,1,,,,,,262,NW,"ID",33,quilew,QUILEW,z,,,,,,0.209259276,0.006481474,0,0,0,,0,131,131,261,1,
,,,,,,,,,,,,,,,,,,5ec682b47ee9e4078e50eac7,2020-11-27_15h06.27.723,lexical_decision_task_MP_exp2,2020.2.5,Win32,60,z,1,0.471985,,,,,,,,0.471985,1,,,,,,380,NW,UN,33,huniek,CAVORY,z,,,,,,0.209259276,0.006481474,0,0,0,,0,132,132,379,1,
,,,,,,,,,,,,,,,,,,5ec682b47ee9e4078e50eac7,2020-11-27_15h06.27.723,lexical_decision_task_MP_exp2,2020.2.5,Win32,60,z,1,0.390255,,,,,,,,0.390255,1,,,,,,286,NW,"ID",33,reldon,RELDON,z,,,,,,0.209259276,0.006481474,0,0,0,,0,133,133,285,1,
,,,,,,,,,,,,,,,,,,5ec682b47ee9e4078e50eac7,2020-11-27_15h06.27.723,lexical_decision_task_MP_exp2,2020.2.5,Win32,60,z,1,0.71594,,,,,,,,0.71594,1,,,,,,284,NW,"ID",33,shaple,SHAPLE,z,,,,,,0.209259276,0.006481474,0,0,0,,0,134,134,283,1,
,,,,,,,,,,,,,,,,,,5ec682b47ee9e4078e50eac7,2020-11-27_15h06.27.723,lexical_decision_task_MP_exp2,2020.2.5,Win32,60,m,1,0.59137,,,,,,,,0.59137,1,,,,,,129,WORD,UN,33,stupid,MARVEL,m,,,,,,0.209259276,0.006481474,0,0,0,,0,135,135,128,1,
,,,,,,,,,,,,,,,,,,5ec682b47ee9e4078e50eac7,2020-11-27_15h06.27.723,lexical_decision_task_MP_exp2,2020.2.5,Win32,60,z,1,0.48974,,,,,,,,0.48974,1,,,,,,338,NW,"ID",16,wreash,WREASH,z,,,,,,0.209259276,0.006481474,0,0,0,,0,136,136,337,1,
,,,,,,,,,,,,,,,,,,5ec682b47ee9e4078e50eac7,2020-11-27_15h06.27.723,lexical_decision_task_MP_exp2,2020.2.5,Win32,60,z,1,0.423525,,,,,,,,0.423525,1,,,,,,372,NW,UN,33,bigent,RAMILY,z,,,,,,0.209259276,0.006481474,0,0,0,,0,137,137,371,1,
,,,,,,,,,,,,,,,,,,5ec682b47ee9e4078e50eac7,2020-11-27_15h06.27.723,lexical_decision_task_MP_exp2,2020.2.5,Win32,60,z,1,0.377735,,,,,,,,0.377735,1,,,,,,252,NW,"ID",33,stapod,STAPOD,z,,,,,,0.209259276,0.006481474,0,0,0,,0,138,138,251,1,
,,,,,,,,,,,,,,,,,,5ec682b47ee9e4078e50eac7,2020-11-27_15h06.27.723,lexical_decision_task_MP_exp2,2020.2.5,Win32,60,z,0,0.393695,,,,,,,,0.393695,0,,,,,,126,WORD,UN,33,castle,ENOUGH,m,,,,,,0.209259276,0.006481474,0,0,0,,0,139,139,125,1,
,,,,,,,,,,,,,,,,,,5ec682b47ee9e4078e50eac7,2020-11-27_15h06.27.723,lexical_decision_task_MP_exp2,2020.2.5,Win32,60,z,1,0.64222,,,,,,,,0.64222,1,,,,,,254,NW,"ID",33,varosh,VAROSH,z,,,,,,0.209259276,0.006481474,0,0,0,,0,140,140,253,1,
,,,,,,,,,,,,,,,,,,5ec682b47ee9e4078e50eac7,2020-11-27_15h06.27.723,lexical_decision_task_MP_exp2,2020.2.5,Win32,60,z,1,0.54718,,,,,,,,0.54718,1,,,,,,374,NW,UN,33,yorque,SLIANT,z,,,,,,0.209259276,0.006481474,0,0,0,,0,141,141,373,1,
,,,,,,,,,,,,,,,,,,5ec682b47ee9e4078e50eac7,2020-11-27_15h06.27.723,lexical_decision_task_MP_exp2,2020.2.5,Win32,60,m,1,0.6225,,,,,,,,0.6225,1,,,,,,9,WORD,"ID",33,hustle,HUSTLE,m,,,,,,0.209259276,0.006481474,0,0,0,,0,142,142,8,1,
,,,,,,,,,,,,,,,,,,5ec682b47ee9e4078e50eac7,2020-11-27_15h06.27.723,lexical_decision_task_MP_exp2,2020.2.5,Win32,60,m,1,0.61615,,,,,,,,0.61615,1,,,,,,99,WORD,"ID",16,fluent,FLUENT,m,,,,,,0.209259276,0.006481474,0,0,0,,0,143,143,98,1,
,,,,,,,,,,,,,,,,,,5ec682b47ee9e4078e50eac7,2020-11-27_15h06.27.723,lexical_decision_task_MP_exp2,2020.2.5,Win32,60,m,1,0.41944,,,,,,,,0.41944,1,,,,,,116,WORD,"ID",16,tumble,TUMBLE,m,,,,,,0.209259276,0.006481474,0,0,0,,0,144,144,115,1,
,,,,,,,,,,,,,,,,,,5ec682b47ee9e4078e50eac7,2020-11-27_15h06.27.723,lexical_decision_task_MP_exp2,2020.2.5,Win32,60,m,1,0.523425,,,,,,,,0.523425,1,,,,,,110,WORD,"ID",16,polite,POLITE,m,,,,,,0.209259276,0.006481474,0,0,0,,0,145,145,109,1,
,,,,,,,,,,,,,,,,,,5ec682b47ee9e4078e50eac7,2020-11-27_15h06.27.723,lexical_decision_task_MP_exp2,2020.2.5,Win32,60,z,1,0.54742,,,,,,,,0.54742,1,,,,,,257,NW,"ID",33,veniod,VENIOD,z,,,,,,0.209259276,0.006481474,0,0,0,,0,146,146,256,1,
,,,,,,,,,,,,,,,,,,5ec682b47ee9e4078e50eac7,2020-11-27_15h06.27.723,lexical_decision_task_MP_exp2,2020.2.5,Win32,60,m,1,0.348515,,,,,,,,0.348515,1,,,,,,161,WORD,UN,33,candle,PASTOR,m,,,,,,0.209259276,0.006481474,0,0,0,,0,147,147,160,1,
,,,,,,,,,,,,,,,,,,5ec682b47ee9e4078e50eac7,2020-11-27_15h06.27.723,lexical_decision_task_MP_exp2,2020.2.5,Win32,60,m,1,0.49809,,,,,,,,0.49809,1,,,,,,41,WORD,"ID",33,spring,SPRING,m,,,,,,0.209259276,0.006481474,0,0,0,,0,148,148,40,1,
,,,,,,,,,,,,,,,,,,5ec682b47ee9e4078e50eac7,2020-11-27_15h06.27.723,lexical_decision_task_MP_exp2,2020.2.5,Win32,60,z,0,0.418375,,,,,,,,0.418375,0,,,,,,160,WORD,UN,33,dragon,VIOLET,m,,,,,,0.209259276,0.006481474,0,0,0,,0,149,149,159,1,
,,,,,,,,,,,,,,,,,,5ec682b47ee9e4078e50eac7,2020-11-27_15h06.27.723,lexical_decision_task_MP_exp2,2020.2.5,Win32,60,m,1,0.389185,,,,,,,,0.389185,1,,,,,,173,WORD,UN,33,turkey,SHOWER,m,,,,,,0.209259276,0.006481474,0,0,0,,0,150,150,172,1,
,,,,,,,,,,,,,,,,,,5ec682b47ee9e4078e50eac7,2020-11-27_15h06.27.723,lexical_decision_task_MP_exp2,2020.2.5,Win32,60,m,1,0.515785,,,,,,,,0.515785,1,,,,,,82,WORD,"ID",16,stigma,STIGMA,m,,,,,,0.209259276,0.006481474,0,0,0,,0,151,151,81,1,
,,,,,,,,,,,,,,,,,,5ec682b47ee9e4078e50eac7,2020-11-27_15h06.27.723,lexical_decision_task_MP_exp2,2020.2.5,Win32,60,m,1,0.443885,,,,,,,,0.443885,1,,,,,,96,WORD,"ID",16,ignore,IGNORE,m,,,,,,0.209259276,0.006481474,0,0,0,,0,152,152,95,1,
,,,,,,,,,,,,,,,,,,5ec682b47ee9e4078e50eac7,2020-11-27_15h06.27.723,lexical_decision_task_MP_exp2,2020.2.5,Win32,60,m,0,0.41366,,,,,,,,0.41366,0,,,,,,354,NW,"ID",16,virlex,VIRLEX,z,,,,,,0.209259276,0.006481474,0,0,0,,0,153,153,353,1,
,,,,,,,,,,,,,,,,,,5ec682b47ee9e4078e50eac7,2020-11-27_15h06.27.723,lexical_decision_task_MP_exp2,2020.2.5,Win32,60,z,0,0.291145,,,,,,,,0.291145,0,,,,,,201,WORD,UN,16,factor,ADMIRE,m,,,,,,0.209259276,0.006481474,0,0,0,,0,154,154,200,1,
,,,,,,,,,,,,,,,,,,5ec682b47ee9e4078e50eac7,2020-11-27_15h06.27.723,lexical_decision_task_MP_exp2,2020.2.5,Win32,60,m,1,0.450805,,,,,,,,0.450805,1,,,,,,84,WORD,"ID",16,mortal,MORTAL,m,,,,,,0.209259276,0.006481474,0,0,0,,0,155,155,83,1,
,,,,,,,,,,,,,,,,,,5ec682b47ee9e4078e50eac7,2020-11-27_15h06.27.723,lexical_decision_task_MP_exp2,2020.2.5,Win32,60,m,1,0.307685,,,,,,,,0.307685,1,,,,,,199,WORD,UN,16,beacon,INVOKE,m,,,,,,0.209259276,0.006481474,0,0,0,,0,156,156,198,1,
,,,,,,,,,,,,,,,,,,5ec682b47ee9e4078e50eac7,2020-11-27_15h06.27.723,lexical_decision_task_MP_exp2,2020.2.5,Win32,60,z,1,0.79904,,,,,,,,0.79904,1,,,,,,477,NW,UN,16,acrise,PHOTIE,z,,,,,,0.209259276,0.006481474,0,0,0,,0,157,157,476,1,
,,,,,,,,,,,,,,,,,,5ec682b47ee9e4078e50eac7,2020-11-27_15h06.27.723,lexical_decision_task_MP_exp2,2020.2.5,Win32,60,z,1,0.732125,,,,,,,,0.732125,1,,,,,,250,NW,"ID",33,milted,MILTED,z,,,,,,0.209259276,0.006481474,0,0,0,,0,158,158,249,1,
,,,,,,,,,,,,,,,,,,5ec682b47ee9e4078e50eac7,2020-11-27_15h06.27.723,lexical_decision_task_MP_exp2,2020.2.5,Win32,60,z,1,0.509845,,,,,,,,0.509845,1,,,,,,412,NW,UN,33,equats,JILUER,z,,,,,,0.209259276,0.006481474,0,0,0,,0,159,159,411,1,
,,,,,,,,,,,,,,,,,,5ec682b47ee9e4078e50eac7,2020-11-27_15h06.27.723,lexical_decision_task_MP_exp2,2020.2.5,Win32,60,m,1,0.579225,,,,,,,,0.579225,1,,,,,,233,WORD,UN,16,clumsy,NATURE,m,,,,,,0.209259276,0.006481474,0,0,0,,0,160,160,232,1,
,,,,,,,,,,,,,,,,,,5ec682b47ee9e4078e50eac7,2020-11-27_15h06.27.723,lexical_decision_task_MP_exp2,2020.2.5,Win32,60,z,0,0.600235,,,,,,,,0.600235,0,,,,,,203,WORD,UN,16,burden,PHRASE,m,,,,,,0.209259276,0.006481474,0,0,0,,0,161,161,202,1,
,,,,,,,,,,,,,,,,,,5ec682b47ee9e4078e50eac7,2020-11-27_15h06.27.723,lexical_decision_task_MP_exp2,2020.2.5,Win32,60,z,0,0.62988,,,,,,,,0.62988,0,,,,,,184,WORD,UN,16,bother,SLEAZY,m,,,,,,0.209259276,0.006481474,0,0,0,,0,162,162,183,1,
,,,,,,,,,,,,,,,,,,5ec682b47ee9e4078e50eac7,2020-11-27_15h06.27.723,lexical_decision_task_MP_exp2,2020.2.5,Win32,60,m,1,0.376675,,,,,,,,0.376675,1,,,,,,231,WORD,UN,16,mother,EXPORT,m,,,,,,0.209259276,0.006481474,0,0,0,,0,163,163,230,1,
,,,,,,,,,,,,,,,,,,5ec682b47ee9e4078e50eac7,2020-11-27_15h06.27.723,lexical_decision_task_MP_exp2,2020.2.5,Win32,60,m,0,0.745985,,,,,,,,0.745985,0,,,,,,401,NW,UN,33,elopia,MUSTIL,z,,,,,,0.209259276,0.006481474,0,0,0,,0,164,164,400,1,
,,,,,,,,,,,,,,,,,,5ec682b47ee9e4078e50eac7,2020-11-27_15h06.27.723,lexical_decision_task_MP_exp2,2020.2.5,Win32,60,m,1,0.603825,,,,,,,,0.603825,1,,,,,,28,WORD,"ID",33,comedy,COMEDY,m,,,,,,0.209259276,0.006481474,0,0,0,,0,165,165,27,1,
,,,,,,,,,,,,,,,,,,5ec682b47ee9e4078e50eac7,2020-11-27_15h06.27.723,lexical_decision_task_MP_exp2,2020.2.5,Win32,60,z,1,0.66277,,,,,,,,0.66277,1,,,,,,394,NW,UN,33,colury,SPAQUX,z,,,,,,0.209259276,0.006481474,0,0,0,,0,166,166,393,1,
,,,,,,,,,,,,,,,,,,5ec682b47ee9e4078e50eac7,2020-11-27_15h06.27.723,lexical_decision_task_MP_exp2,2020.2.5,Win32,60,m,1,0.552675,,,,,,,,0.552675,1,,,,,,193,WORD,UN,16,plague,OBJECT,m,,,,,,0.209259276,0.006481474,0,0,0,,0,167,167,192,1,
,,,,,,,,,,,,,,,,,,5ec682b47ee9e4078e50eac7,2020-11-27_15h06.27.723,lexical_decision_task_MP_exp2,2020.2.5,Win32,60,m,1,0.56898,,,,,,,,0.56898,1,,,,,,168,WORD,UN,33,genius,ANSWER,m,,,,,,0.209259276,0.006481474,0,0,0,,0,168,168,167,1,
,,,,,,,,,,,,,,,,,,5ec682b47ee9e4078e50eac7,2020-11-27_15h06.27.723,lexical_decision_task_MP_exp2,2020.2.5,Win32,60,m,1,0.472675,,,,,,,,0.472675,1,,,,,,47,WORD,"ID",33,income,INCOME,m,,,,,,0.209259276,0.006481474,0,0,0,,0,169,169,46,1,
,,,,,,,,,,,,,,,,,,5ec682b47ee9e4078e50eac7,2020-11-27_15h06.27.723,lexical_decision_task_MP_exp2,2020.2.5,Win32,60,m,1,0.452965,,,,,,,,0.452965,1,,,,,,137,WORD,UN,33,melody,FINGER,m,,,,,,0.209259276,0.006481474,0,0,0,,0,170,170,136,1,
,,,,,,,,,,,,,,,,,,5ec682b47ee9e4078e50eac7,2020-11-27_15h06.27.723,lexical_decision_task_MP_exp2,2020.2.5,Win32,60,z,1,0.519075,,,,,,,,0.519075,1,,,,,,256,NW,"ID",33,inlors,INLORS,z,,,,,,0.209259276,0.006481474,0,0,0,,0,171,171,255,1,
,,,,,,,,,,,,,,,,,,5ec682b47ee9e4078e50eac7,2020-11-27_15h06.27.723,lexical_decision_task_MP_exp2,2020.2.5,Win32,60,m,1,0.425475,,,,,,,,0.425475,1,,,,,,170,WORD,UN,33,depart,POUNCE,m,,,,,,0.209259276,0.006481474,0,0,0,,0,172,172,169,1,
,,,,,,,,,,,,,,,,,,5ec682b47ee9e4078e50eac7,2020-11-27_15h06.27.723,lexical_decision_task_MP_exp2,2020.2.5,Win32,60,z,1,0.815395,,,,,,,,0.815395,1,,,,,,373,NW,UN,33,injore,BIGENT,z,,,,,,0.209259276,0.006481474,0,0,0,,0,173,173,372,1,
,,,,,,,,,,,,,,,,,,5ec682b47ee9e4078e50eac7,2020-11-27_15h06.27.723,lexical_decision_task_MP_exp2,2020.2.5,Win32,60,z,1,0.690095,,,,,,,,0.690095,1,,,,,,341,NW,"ID",16,myrtie,MYRTIE,z,,,,,,0.209259276,0.006481474,0,0,0,,0,174,174,340,1,
,,,,,,,,,,,,,,,,,,5ec682b47ee9e4078e50eac7,2020-11-27_15h06.27.723,lexical_decision_task_MP_exp2,2020.2.5,Win32,60,z,1,0.783545,,,,,,,,0.783545,1,,,,,,275,NW,"ID",33,sleirt,SLEIRT,z,,,,,,0.209259276,0.006481474,0,0,0,,0,175,175,274,1,
,,,,,,,,,,,,,,,,,,5ec682b47ee9e4078e50eac7,2020-11-27_15h06.27.723,lexical_decision_task_MP_exp2,2020.2.5,Win32,60,m,1,0.750545,,,,,,,,0.750545,1,,,,,,20,WORD,"ID",33,breast,BREAST,m,,,,,,0.209259276,0.006481474,0,0,0,,0,176,176,19,1,
,,,,,,,,,,,,,,,,,,5ec682b47ee9e4078e50eac7,2020-11-27_15h06.27.723,lexical_decision_task_MP_exp2,2020.2.5,Win32,60,z,0,0.476375,,,,,,,,0.476375,0,,,,,,105,WORD,"ID",16,number,NUMBER,m,,,,,,0.209259276,0.006481474,0,0,0,,0,177,177,104,1,
,,,,,,,,,,,,,,,,,,5ec682b47ee9e4078e50eac7,2020-11-27_15h06.27.723,lexical_decision_task_MP_exp2,2020.2.5,Win32,60,z,1,0.72376,,,,,,,,0.72376,1,,,,,,375,NW,UN,33,iguare,YORQUE,z,,,,,,0.209259276,0.006481474,0,0,0,,0,178,178,374,1,
,,,,,,,,,,,,,,,,,,5ec682b47ee9e4078e50eac7,2020-11-27_15h06.27.723,lexical_decision_task_MP_exp2,2020.2.5,Win32,60,z,1,0.570605,,,,,,,,0.570605,1,,,,,,469,NW,UN,16,crudio,PADIFS,z,,,,,,0.209259276,0.006481474,0,0,0,,0,179,179,468,1,
,,,,,,,,,,,,,,,,,,5ec682b47ee9e4078e50eac7,2020-11-27_15h06.27.723,lexical_decision_task_MP_exp2,2020.2.5,Win32,60,m,1,0.68721,,,,,,,,0.68721,1,,,,,,166,WORD,UN,33,design,STARCH,m,,,,,,0.209259276,0.006481474,0,0,0,,0,180,180,165,1,
,,,,,,,,,,,,,,,,,,5ec682b47ee9e4078e50eac7,2020-11-27_15h06.27.723,lexical_decision_task_MP_exp2,2020.2.5,Win32,60,m,1,0.575045,,,,,,,,0.575045,1,,,,,,49,WORD,"ID",33,survey,SURVEY,m,,,,,,0.209259276,0.006481474,0,0,0,,0,181,181,48,1,
,,,,,,,,,,,,,,,,,,5ec682b47ee9e4078e50eac7,2020-11-27_15h06.27.723,lexical_decision_task_MP_exp2,2020.2.5,Win32,60,m,0,0.47993,,,,,,,,0.47993,0,,,,,,377,NW,UN,33,shrile,INJORE,z,,,,,,0.209259276,0.006481474,0,0,0,,0,182,182,376,1,
,,,,,,,,,,,,,,,,,,5ec682b47ee9e4078e50eac7,2020-11-27_15h06.27.723,lexical_decision_task_MP_exp2,2020.2.5,Win32,60,z,1,0.726965,,,,,,,,0.726965,1,,,,,,351,NW,"ID",16,tiesch,TIESCH,z,,,,,,0.209259276,0.006481474,0,0,0,,0,183,183,350,1,
,,,,,,,,,,,,,,,,,,5ec682b47ee9e4078e50eac7,2020-11-27_15h06.27.723,lexical_decision_task_MP_exp2,2020.2.5,Win32,60,m,1,0.630015,,,,,,,,0.630015,1,,,,,,226,WORD,UN,16,flower,CASINO,m,,,,,,0.209259276,0.006481474,0,0,0,,0,184,184,225,1,
,,,,,,,,,,,,,,,,,,5ec682b47ee9e4078e50eac7,2020-11-27_15h06.27.723,lexical_decision_task_MP_exp2,2020.2.5,Win32,60,m,1,0.55742,,,,,,,,0.55742,1,,,,,,157,WORD,UN,33,island,DRAGON,m,,,,,,0.209259276,0.006481474,0,0,0,,0,185,185,156,1,
,,,,,,,,,,,,,,,,,,5ec682b47ee9e4078e50eac7,2020-11-27_15h06.27.723,lexical_decision_task_MP_exp2,2020.2.5,Win32,60,z,1,0.543735,,,,,,,,0.543735,1,,,,,,414,NW,UN,33,higsta,SERBOL,z,,,,,,0.209259276,0.006481474,0,0,0,,0,186,186,413,1,
,,,,,,,,,,,,,,,,,,5ec682b47ee9e4078e50eac7,2020-11-27_15h06.27.723,lexical_decision_task_MP_exp2,2020.2.5,Win32,60,m,1,0.529665,,,,,,,,0.529665,1,,,,,,40,WORD,"ID",33,convey,CONVEY,m,,,,,,0.209259276,0.006481474,0,0,0,,0,187,187,39,1,
,,,,,,,,,,,,,,,,,,5ec682b47ee9e4078e50eac7,2020-11-27_15h06.27.723,lexical_decision_task_MP_exp2,2020.2.5,Win32,60,z,1,0.665525,,,,,,,,0.665525,1,,,,,,445,NW,UN,16,runamo,MINKEL,z,,,,,,0.209259276,0.006481474,0,0,0,,0,188,188,444,1,
,,,,,,,,,,,,,,,,,,5ec682b47ee9e4078e50eac7,2020-11-27_15h06.27.723,lexical_decision_task_MP_exp2,2020.2.5,Win32,60,m,1,0.536005,,,,,,,,0.536005,1,,,,,,22,WORD,"ID",33,jockey,JOCKEY,m,,,,,,0.209259276,0.006481474,0,0,0,,0,189,189,21,1,
,,,,,,,,,,,,,,,,,,5ec682b47ee9e4078e50eac7,2020-11-27_15h06.27.723,lexical_decision_task_MP_exp2,2020.2.5,Win32,60,m,1,0.517745,,,,,,,,0.517745,1,,,,,,140,WORD,UN,33,reason,PRINCE,m,,,,,,0.209259276,0.006481474,0,0,0,,0,190,190,139,1,
,,,,,,,,,,,,,,,,,,5ec682b47ee9e4078e50eac7,2020-11-27_15h06.27.723,lexical_decision_task_MP_exp2,2020.2.5,Win32,60,m,1,0.57958,,,,,,,,0.57958,1,,,,,,92,WORD,"ID",16,strand,STRAND,m,,,,,,0.209259276,0.006481474,0,0,0,,0,191,191,91,1,
,,,,,,,,,,,,,,,,,,5ec682b47ee9e4078e50eac7,2020-11-27_15h06.27.723,lexical_decision_task_MP_exp2,2020.2.5,Win32,60,m,1,0.51438,,,,,,,,0.51438,1,,,,,,87,WORD,"ID",16,filter,FILTER,m,,,,,,0.209259276,0.006481474,0,0,0,,0,192,192,86,1,
,,,,,,,,,,,,,,,,,,5ec682b47ee9e4078e50eac7,2020-11-27_15h06.27.723,lexical_decision_task_MP_exp2,2020.2.5,Win32,60,m,1,0.525855,,,,,,,,0.525855,1,,,,,,13,WORD,"ID",33,strive,STRIVE,m,,,,,,0.209259276,0.006481474,0,0,0,,0,193,193,12,1,
,,,,,,,,,,,,,,,,,,5ec682b47ee9e4078e50eac7,2020-11-27_15h06.27.723,lexical_decision_task_MP_exp2,2020.2.5,Win32,60,z,1,0.556495,,,,,,,,0.556495,1,,,,,,266,NW,"ID",33,varmit,VARMIT,z,,,,,,0.209259276,0.006481474,0,0,0,,0,194,194,265,1,
,,,,,,,,,,,,,,,,,,5ec682b47ee9e4078e50eac7,2020-11-27_15h06.27.723,lexical_decision_task_MP_exp2,2020.2.5,Win32,60,z,1,0.5909,,,,,,,,0.5909,1,,,,,,478,NW,UN,16,lobush,ACRISE,z,,,,,,0.209259276,0.006481474,0,0,0,,0,195,195,477,1,
,,,,,,,,,,,,,,,,,,5ec682b47ee9e4078e50eac7,2020-11-27_15h06.27.723,lexical_decision_task_MP_exp2,2020.2.5,Win32,60,z,1,0.536705,,,,,,,,0.536705,1,,,,,,246,NW,"ID",33,piaton,PIATON,z,,,,,,0.209259276,0.006481474,0,0,0,,0,196,196,245,1,
,,,,,,,,,,,,,,,,,,5ec682b47ee9e4078e50eac7,2020-11-27_15h06.27.723,lexical_decision_task_MP_exp2,2020.2.5,Win32,60,z,1,0.495135,,,,,,,,0.495135,1,,,,,,330,NW,"ID",16,kensom,KENSOM,z,,,,,,0.209259276,0.006481474,0,0,0,,0,197,197,329,1,
,,,,,,,,,,,,,,,,,,5ec682b47ee9e4078e50eac7,2020-11-27_15h06.27.723,lexical_decision_task_MP_exp2,2020.2.5,Win32,60,z,1,0.704085,,,,,,,,0.704085,1,,,,,,276,NW,"ID",33,yarmon,YARMON,z,,,,,,0.209259276,0.006481474,0,0,0,,0,198,198,275,1,
,,,,,,,,,,,,,,,,,,5ec682b47ee9e4078e50eac7,2020-11-27_15h06.27.723,lexical_decision_task_MP_exp2,2020.2.5,Win32,60,m,1,0.607305,,,,,,,,0.607305,1,,,,,,235,WORD,UN,16,pirate,GRUMPY,m,,,,,,0.209259276,0.006481474,0,0,0,,0,199,199,234,1,
,,,,,,,,,,,,,,,,,,5ec682b47ee9e4078e50eac7,2020-11-27_15h06.27.723,lexical_decision_task_MP_exp2,2020.2.5,Win32,60,m,1,1.196285,,,,,,,,1.196285,1,,,,,,195,WORD,UN,16,credit,RESIGN,m,,,,,,0.209259276,0.006481474,0,0,0,,0,200,200,194,1,
,,,,,,,,,,,,,,,,,,5ec682b47ee9e4078e50eac7,2020-11-27_15h06.27.723,lexical_decision_task_MP_exp2,2020.2.5,Win32,60,m,1,0.51589,,,,,,,,0.51589,1,,,,,,5,WORD,"ID",33,plunge,PLUNGE,m,,,,,,0.209259276,0.006481474,0,0,0,,0,201,201,4,1,
,,,,,,,,,,,,,,,,,,5ec682b47ee9e4078e50eac7,2020-11-27_15h06.27.723,lexical_decision_task_MP_exp2,2020.2.5,Win32,60,m,1,0.42114,,,,,,,,0.42114,1,,,,,,146,WORD,UN,33,garlic,COUPLE,m,,,,,,0.209259276,0.006481474,0,0,0,,0,202,202,145,1,
,,,,,,,,,,,,,,,,,,5ec682b47ee9e4078e50eac7,2020-11-27_15h06.27.723,lexical_decision_task_MP_exp2,2020.2.5,Win32,60,z,1,0.77838,,,,,,,,0.77838,1,,,,,,382,NW,UN,33,aungre,SARLEY,z,,,,,,0.209259276,0.006481474,0,0,0,,0,203,203,381,1,
,,,,,,,,,,,,,,,,,,5ec682b47ee9e4078e50eac7,2020-11-27_15h06.27.723,lexical_decision_task_MP_exp2,2020.2.5,Win32,60,m,1,0.813755,,,,,,,,0.813755,1,,,,,,8,WORD,"ID",33,abrupt,ABRUPT,m,,,,,,0.209259276,0.006481474,0,0,0,,0,204,204,7,1,
,,,,,,,,,,,,,,,,,,5ec682b47ee9e4078e50eac7,2020-11-27_15h06.27.723,lexical_decision_task_MP_exp2,2020.2.5,Win32,60,z,1,0.49609,,,,,,,,0.49609,1,,,,,,403,NW,UN,33,cluirm,BRUATS,z,,,,,,0.209259276,0.006481474,0,0,0,,0,205,205,402,1,
,,,,,,,,,,,,,,,,,,5ec682b47ee9e4078e50eac7,2020-11-27_15h06.27.723,lexical_decision_task_MP_exp2,2020.2.5,Win32,60,m,1,0.50117,,,,,,,,0.50117,1,,,,,,93,WORD,"ID",16,public,PUBLIC,m,,,,,,0.209259276,0.006481474,0,0,0,,0,206,206,92,1,
,,,,,,,,,,,,,,,,,,5ec682b47ee9e4078e50eac7,2020-11-27_15h06.27.723,lexical_decision_task_MP_exp2,2020.2.5,Win32,60,m,1,0.43526,,,,,,,,0.43526,1,,,,,,121,WORD,UN,33,linger,THRIVE,m,,,,,,0.209259276,0.006481474,0,0,0,,0,207,207,120,1,
,,,,,,,,,,,,,,,,,,5ec682b47ee9e4078e50eac7,2020-11-27_15h06.27.723,lexical_decision_task_MP_exp2,2020.2.5,Win32,60,m,1,0.46495,,,,,,,,0.46495,1,,,,,,69,WORD,"ID",16,plenty,PLENTY,m,,,,,,0.209259276,0.006481474,0,0,0,,0,208,208,68,1,
,,,,,,,,,,,,,,,,,,5ec682b47ee9e4078e50eac7,2020-11-27_15h06.27.723,lexical_decision_task_MP_exp2,2020.2.5,Win32,60,z,1,0.52603,,,,,,,,0.52603,1,,,,,,264,NW,"ID",33,vackel,VACKEL,z,,,,,,0.209259276,0.006481474,0,0,0,,0,209,209,263,1,
,,,,,,,,,,,,,,,,,,5ec682b47ee9e4078e50eac7,2020-11-27_15h06.27.723,lexical_decision_task_MP_exp2,2020.2.5,Win32,60,m,0,0.60549,,,,,,,,0.60549,0,,,,,,272,NW,"ID",33,damilt,DAMILT,z,,,,,,0.209259276,0.006481474,0,0,0,,0,210,210,271,1,
,,,,,,,,,,,,,,,,,,5ec682b47ee9e4078e50eac7,2020-11-27_15h06.27.723,lexical_decision_task_MP_exp2,2020.2.5,Win32,60,m,1,0.537515,,,,,,,,0.537515,1,,,,,,27,WORD,"ID",33,scream,SCREAM,m,,,,,,0.209259276,0.006481474,0,0,0,,0,211,211,26,1,
,,,,,,,,,,,,,,,,,,5ec682b47ee9e4078e50eac7,2020-11-27_15h06.27.723,lexical_decision_task_MP_exp2,2020.2.5,Win32,60,m,0,0.447105,,,,,,,,0.447105,0,,,,,,348,NW,"ID",16,dumple,DUMPLE,z,,,,,,0.209259276,0.006481474,0,0,0,,0,212,212,347,1,
,,,,,,,,,,,,,,,,,,5ec682b47ee9e4078e50eac7,2020-11-27_15h06.27.723,lexical_decision_task_MP_exp2,2020.2.5,Win32,60,z,0,0.50948,,,,,,,,0.50948,0,,,,,,26,WORD,"ID",33,sprint,SPRINT,m,,,,,,0.209259276,0.006481474,0,0,0,,0,213,213,25,1,
,,,,,,,,,,,,,,,,,,5ec682b47ee9e4078e50eac7,2020-11-27_15h06.27.723,lexical_decision_task_MP_exp2,2020.2.5,Win32,60,z,1,0.70548,,,,,,,,0.70548,1,,,,,,357,NW,"ID",16,derain,DERAIN,z,,,,,,0.209259276,0.006481474,0,0,0,,0,214,214,356,1,
,,,,,,,,,,,,,,,,,,5ec682b47ee9e4078e50eac7,2020-11-27_15h06.27.723,lexical_decision_task_MP_exp2,2020.2.5,Win32,60,z,1,0.43707,,,,,,,,0.43707,1,,,,,,422,NW,UN,16,streld,ALCOUD,z,,,,,,0.209259276,0.006481474,0,0,0,,0,215,215,421,1,
,,,,,,,,,,,,,,,,,,5ec682b47ee9e4078e50eac7,2020-11-27_15h06.27.723,lexical_decision_task_MP_exp2,2020.2.5,Win32,60,z,1,0.545895,,,,,,,,0.545895,1,,,,,,269,NW,"ID",33,orchet,ORCHET,z,,,,,,0.209259276,0.006481474,0,0,0,,0,216,216,268,1,
,,,,,,,,,,,,,,,,,,5ec682b47ee9e4078e50eac7,2020-11-27_15h06.27.723,lexical_decision_task_MP_exp2,2020.2.5,Win32,60,z,1,0.40643,,,,,,,,0.40643,1,,,,,,271,NW,"ID",33,aubrid,AUBRID,z,,,,,,0.209259276,0.006481474,0,0,0,,0,217,217,270,1,
,,,,,,,,,,,,,,,,,,5ec682b47ee9e4078e50eac7,2020-11-27_15h06.27.723,lexical_decision_task_MP_exp2,2020.2.5,Win32,60,z,0,0.513145,,,,,,,,0.513145,0,,,,,,66,WORD,"ID",16,gospel,GOSPEL,m,,,,,,0.209259276,0.006481474,0,0,0,,0,218,218,65,1,
,,,,,,,,,,,,,,,,,,5ec682b47ee9e4078e50eac7,2020-11-27_15h06.27.723,lexical_decision_task_MP_exp2,2020.2.5,Win32,60,z,1,0.486895,,,,,,,,0.486895,1,,,,,,300,NW,"ID",33,yarion,YARION,z,,,,,,0.209259276,0.006481474,0,0,0,,0,219,219,299,1,
,,,,,,,,,,,,,,,,,,5ec682b47ee9e4078e50eac7,2020-11-27_15h06.27.723,lexical_decision_task_MP_exp2,2020.2.5,Win32,60,z,1,0.66046,,,,,,,,0.66046,1,,,,,,268,NW,"ID",33,packes,PACKES,z,,,,,,0.209259276,0.006481474,0,0,0,,0,220,220,267,1,
,,,,,,,,,,,,,,,,,,5ec682b47ee9e4078e50eac7,2020-11-27_15h06.27.723,lexical_decision_task_MP_exp2,2020.2.5,Win32,60,m,1,0.41587,,,,,,,,0.41587,1,,,,,,182,WORD,UN,16,basket,WINTER,m,,,,,,0.209259276,0.006481474,0,0,0,,0,221,221,181,1,
,,,,,,,,,,,,,,,,,,5ec682b47ee9e4078e50eac7,2020-11-27_15h06.27.723,lexical_decision_task_MP_exp2,2020.2.5,Win32,60,m,1,0.49497,,,,,,,,0.49497,1,,,,,,83,WORD,"ID",16,result,RESULT,m,,,,,,0.209259276,0.006481474,0,0,0,,0,222,222,82,1,
,,,,,,,,,,,,,,,,,,5ec682b47ee9e4078e50eac7,2020-11-27_15h06.27.723,lexical_decision_task_MP_exp2,2020.2.5,Win32,60,m,1,0.62952,,,,,,,,0.62952,1,,,,,,111,WORD,"ID",16,induce,INDUCE,m,,,,,,0.209259276,0.006481474,0,0,0,,0,223,223,110,1,
,,,,,,,,,,,,,,,,,,5ec682b47ee9e4078e50eac7,2020-11-27_15h06.27.723,lexical_decision_task_MP_exp2,2020.2.5,Win32,60,m,1,0.442855,,,,,,,,0.442855,1,,,,,,219,WORD,UN,16,voyage,BUCKET,m,,,,,,0.209259276,0.006481474,0,0,0,,0,224,224,218,1,
,,,,,,,,,,,,,,,,,,5ec682b47ee9e4078e50eac7,2020-11-27_15h06.27.723,lexical_decision_task_MP_exp2,2020.2.5,Win32,60,z,1,0.585015,,,,,,,,0.585015,1,,,,,,435,NW,UN,16,frutan,IMPURB,z,,,,,,0.209259276,0.006481474,0,0,0,,0,225,225,434,1,
,,,,,,,,,,,,,,,,,,5ec682b47ee9e4078e50eac7,2020-11-27_15h06.27.723,lexical_decision_task_MP_exp2,2020.2.5,Win32,60,z,0,0.939065,,,,,,,,0.939065,0,,,,,,191,WORD,UN,16,absent,STABLE,m,,,,,,0.209259276,0.006481474,0,0,0,,0,226,226,190,1,
,,,,,,,,,,,,,,,,,,5ec682b47ee9e4078e50eac7,2020-11-27_15h06.27.723,lexical_decision_task_MP_exp2,2020.2.5,Win32,60,z,1,0.64881,,,,,,,,0.64881,1,,,,,,442,NW,UN,16,dorsex,ABOUNE,z,,,,,,0.209259276,0.006481474,0,0,0,,0,227,227,441,1,
,,,,,,,,,,,,,,,,,,5ec682b47ee9e4078e50eac7,2020-11-27_15h06.27.723,lexical_decision_task_MP_exp2,2020.2.5,Win32,60,z,1,0.53161,,,,,,,,0.53161,1,,,,,,457,NW,UN,16,barcet,WANIGH,z,,,,,,0.209259276,0.006481474,0,0,0,,0,228,228,456,1,
,,,,,,,,,,,,,,,,,,5ec682b47ee9e4078e50eac7,2020-11-27_15h06.27.723,lexical_decision_task_MP_exp2,2020.2.5,Win32,60,z,1,0.355595,,,,,,,,0.355595,1,,,,,,317,NW,"ID",16,worbal,WORBAL,z,,,,,,0.209259276,0.006481474,0,0,0,,0,229,229,316,1,
,,,,,,,,,,,,,,,,,,5ec682b47ee9e4078e50eac7,2020-11-27_15h06.27.723,lexical_decision_task_MP_exp2,2020.2.5,Win32,60,z,1,0.739765,,,,,,,,0.739765,1,,,,,,463,NW,UN,16,bafent,KISPEL,z,,,,,,0.209259276,0.006481474,0,0,0,,0,230,230,462,1,
,,,,,,,,,,,,,,,,,,5ec682b47ee9e4078e50eac7,2020-11-27_15h06.27.723,lexical_decision_task_MP_exp2,2020.2.5,Win32,60,z,1,1.270715,,,,,,,,1.270715,1,,,,,,479,NW,UN,16,josted,LOBUSH,z,,,,,,0.209259276,0.006481474,0,0,0,,0,231,231,478,1,
,,,,,,,,,,,,,,,,,,5ec682b47ee9e4078e50eac7,2020-11-27_15h06.27.723,lexical_decision_task_MP_exp2,2020.2.5,Win32,60,m,1,0.48486,,,,,,,,0.48486,1,,,,,,33,WORD,"ID",33,butler,BUTLER,m,,,,,,0.209259276,0.006481474,0,0,0,,0,232,232,32,1,
,,,,,,,,,,,,,,,,,,5ec682b47ee9e4078e50eac7,2020-11-27_15h06.27.723,lexical_decision_task_MP_exp2,2020.2.5,Win32,60,m,1,0.596995,,,,,,,,0.596995,1,,,,,,4,WORD,"ID",33,trench,TRENCH,m,,,,,,0.209259276,0.006481474,0,0,0,,0,233,233,3,1,
,,,,,,,,,,,,,,,,,,5ec682b47ee9e4078e50eac7,2020-11-27_15h06.27.723,lexical_decision_task_MP_exp2,2020.2.5,Win32,60,z,1,0.640205,,,,,,,,0.640205,1,,,,,,303,NW,"ID",16,fiream,FIREAM,z,,,,,,0.209259276,0.006481474,0,0,0,,0,234,234,302,1,
,,,,,,,,,,,,,,,,,,5ec682b47ee9e4078e50eac7,2020-11-27_15h06.27.723,lexical_decision_task_MP_exp2,2020.2.5,Win32,60,z,1,0.61401,,,,,,,,0.61401,1,,,,,,391,NW,UN,33,rouncy,THELDY,z,,,,,,0.209259276,0.006481474,0,0,0,,0,235,235,390,1,
,,,,,,,,,,,,,,,,,,5ec682b47ee9e4078e50eac7,2020-11-27_15h06.27.723,lexical_decision_task_MP_exp2,2020.2.5,Win32,60,m,1,0.5249,,,,,,,,0.5249,1,,,,,,75,WORD,"ID",16,trophy,TROPHY,m,,,,,,0.209259276,0.006481474,0,0,0,,0,236,236,74,1,
,,,,,,,,,,,,,,,,,,5ec682b47ee9e4078e50eac7,2020-11-27_15h06.27.723,lexical_decision_task_MP_exp2,2020.2.5,Win32,60,z,1,0.45679,,,,,,,,0.45679,1,,,,,,278,NW,"ID",33,unighs,UNIGHS,z,,,,,,0.209259276,0.006481474,0,0,0,,0,237,237,277,1,
,,,,,,,,,,,,,,,,,,5ec682b47ee9e4078e50eac7,2020-11-27_15h06.27.723,lexical_decision_task_MP_exp2,2020.2.5,Win32,60,m,1,0.459135,,,,,,,,0.459135,1,,,,,,180,WORD,UN,33,thrive,SILENT,m,,,,,,0.209259276,0.006481474,0,0,0,,0,238,238,179,1,
,,,,,,,,,,,,,,,,,,5ec682b47ee9e4078e50eac7,2020-11-27_15h06.27.723,lexical_decision_task_MP_exp2,2020.2.5,Win32,60,z,0,0.298665,,,,,,,,0.298665,0,,,,,,185,WORD,UN,16,portal,BOTHER,m,,,,,,0.209259276,0.006481474,0,0,0,,0,239,239,184,1,
,,,,,,,,,,,,,,,,,,5ec682b47ee9e4078e50eac7,2020-11-27_15h06.27.723,lexical_decision_task_MP_exp2,2020.2.5,Win32,60,z,1,0.681285,,,,,,,,0.681285,1,,,,,,470,NW,UN,16,nobest,CRUDIO,z,,,,,,0.209259276,0.006481474,0,0,0,,0,240,240,469,1,
,,,,,,,,,,,,,,,,,,5ec682b47ee9e4078e50eac7,2020-11-27_15h06.27.723,lexical_decision_task_MP_exp2,2020.2.5,Win32,60,z,1,0.409735,,,,,,,,0.409735,1,,,,,,388,NW,UN,33,witmer,CRAGIN,z,,,,,,0.209259276,0.006481474,0,0,0,space,0,241,241,387,1,3.965395
,,,,,,,,,,,,,,,,,,5ec682b47ee9e4078e50eac7,2020-11-27_15h06.27.723,lexical_decision_task_MP_exp2,2020.2.5,Win32,60,m,1,0.78828,,,,,,,,0.78828,1,,,,,,32,WORD,"ID",33,buckle,BUCKLE,m,,,,,,0.209259276,0.006481474,0,0,0,,0,242,242,31,1,
,,,,,,,,,,,,,,,,,,5ec682b47ee9e4078e50eac7,2020-11-27_15h06.27.723,lexical_decision_task_MP_exp2,2020.2.5,Win32,60,z,1,0.66829,,,,,,,,0.66829,1,,,,,,291,NW,"ID",33,pretch,PRETCH,z,,,,,,0.209259276,0.006481474,0,0,0,,0,243,243,290,1,
,,,,,,,,,,,,,,,,,,5ec682b47ee9e4078e50eac7,2020-11-27_15h06.27.723,lexical_decision_task_MP_exp2,2020.2.5,Win32,60,m,1,0.81708,,,,,,,,0.81708,1,,,,,,151,WORD,UN,33,rocket,MYSTIC,m,,,,,,0.209259276,0.006481474,0,0,0,,0,244,244,150,1,
,,,,,,,,,,,,,,,,,,5ec682b47ee9e4078e50eac7,2020-11-27_15h06.27.723,lexical_decision_task_MP_exp2,2020.2.5,Win32,60,m,1,0.571025,,,,,,,,0.571025,1,,,,,,130,WORD,UN,33,quench,STUPID,m,,,,,,0.209259276,0.006481474,0,0,0,,0,245,245,129,1,
,,,,,,,,,,,,,,,,,,5ec682b47ee9e4078e50eac7,2020-11-27_15h06.27.723,lexical_decision_task_MP_exp2,2020.2.5,Win32,60,z,1,0.869125,,,,,,,,0.869125,1,,,,,,383,NW,UN,33,guesco,AUNGRE,z,,,,,,0.209259276,0.006481474,0,0,0,,0,246,246,382,1,
,,,,,,,,,,,,,,,,,,5ec682b47ee9e4078e50eac7,2020-11-27_15h06.27.723,lexical_decision_task_MP_exp2,2020.2.5,Win32,60,m,1,0.59954,,,,,,,,0.59954,1,,,,,,186,WORD,UN,16,course,PORTAL,m,,,,,,0.209259276,0.006481474,0,0,0,,0,247,247,185,1,
,,,,,,,,,,,,,,,,,,5ec682b47ee9e4078e50eac7,2020-11-27_15h06.27.723,lexical_decision_task_MP_exp2,2020.2.5,Win32,60,m,1,0.58465,,,,,,,,0.58465,1,,,,,,167,WORD,UN,33,answer,DESIGN,m,,,,,,0.209259276,0.006481474,0,0,0,,0,248,248,166,1,
,,,,,,,,,,,,,,,,,,5ec682b47ee9e4078e50eac7,2020-11-27_15h06.27.723,lexical_decision_task_MP_exp2,2020.2.5,Win32,60,z,0,0.539365,,,,,,,,0.539365,0,,,,,,172,WORD,UN,33,shower,PATROL,m,,,,,,0.209259276,0.006481474,0,0,0,,0,249,249,171,1,
,,,,,,,,,,,,,,,,,,5ec682b47ee9e4078e50eac7,2020-11-27_15h06.27.723,lexical_decision_task_MP_exp2,2020.2.5,Win32,60,m,1,0.521345,,,,,,,,0.521345,1,,,,,,101,WORD,"ID",16,wrench,WRENCH,m,,,,,,0.209259276,0.006481474,0,0,0,,0,250,250,100,1,
,,,,,,,,,,,,,,,,,,5ec682b47ee9e4078e50eac7,2020-11-27_15h06.27.723,lexical_decision_task_MP_exp2,2020.2.5,Win32,60,m,1,0.517605,,,,,,,,0.517605,1,,,,,,145,WORD,UN,33,couple,PARISH,m,,,,,,0.209259276,0.006481474,0,0,0,,0,251,251,144,1,
,,,,,,,,,,,,,,,,,,5ec682b47ee9e4078e50eac7,2020-11-27_15h06.27.723,lexical_decision_task_MP_exp2,2020.2.5,Win32,60,z,1,0.683885,,,,,,,,0.683885,1,,,,,,253,NW,"ID",33,resait,RESAIT,z,,,,,,0.209259276,0.006481474,0,0,0,,0,252,252,252,1,
,,,,,,,,,,,,,,,,,,5ec682b47ee9e4078e50eac7,2020-11-27_15h06.27.723,lexical_decision_task_MP_exp2,2020.2.5,Win32,60,z,1,0.814765,,,,,,,,0.814765,1,,,,,,390,NW,UN,33,theldy,HATRUS,z,,,,,,0.209259276,0.006481474,0,0,0,,0,253,253,389,1,
,,,,,,,,,,,,,,,,,,5ec682b47ee9e4078e50eac7,2020-11-27_15h06.27.723,lexical_decision_task_MP_exp2,2020.2.5,Win32,60,z,1,0.634385,,,,,,,,0.634385,1,,,,,,385,NW,UN,33,ancust,VEIGMA,z,,,,,,0.209259276,0.006481474,0,0,0,,0,254,254,384,1,
,,,,,,,,,,,,,,,,,,5ec682b47ee9e4078e50eac7,2020-11-27_15h06.27.723,lexical_decision_task_MP_exp2,2020.2.5,Win32,60,m,1,0.53169,,,,,,,,0.53169,1,,,,,,88,WORD,"ID",16,hunger,HUNGER,m,,,,,,0.209259276,0.006481474,0,0,0,,0,255,255,87,1,
,,,,,,,,,,,,,,,,,,5ec682b47ee9e4078e50eac7,2020-11-27_15h06.27.723,lexical_decision_task_MP_exp2,2020.2.5,Win32,60,z,1,0.577405,,,,,,,,0.577405,1,,,,,,370,NW,UN,33,geiloy,SLEACT,z,,,,,,0.209259276,0.006481474,0,0,0,,0,256,256,369,1,
,,,,,,,,,,,,,,,,,,5ec682b47ee9e4078e50eac7,2020-11-27_15h06.27.723,lexical_decision_task_MP_exp2,2020.2.5,Win32,60,m,1,0.5115,,,,,,,,0.5115,1,,,,,,63,WORD,"ID",16,launch,LAUNCH,m,,,,,,0.209259276,0.006481474,0,0,0,,0,257,257,62,1,
,,,,,,,,,,,,,,,,,,5ec682b47ee9e4078e50eac7,2020-11-27_15h06.27.723,lexical_decision_task_MP_exp2,2020.2.5,Win32,60,m,1,0.523895,,,,,,,,0.523895,1,,,,,,138,WORD,UN,33,staple,MELODY,m,,,,,,0.209259276,0.006481474,0,0,0,,0,258,258,137,1,
,,,,,,,,,,,,,,,,,,5ec682b47ee9e4078e50eac7,2020-11-27_15h06.27.723,lexical_decision_task_MP_exp2,2020.2.5,Win32,60,m,1,0.50921,,,,,,,,0.50921,1,,,,,,79,WORD,"ID",16,theory,THEORY,m,,,,,,0.209259276,0.006481474,0,0,0,,0,259,259,78,1,
,,,,,,,,,,,,,,,,,,5ec682b47ee9e4078e50eac7,2020-11-27_15h06.27.723,lexical_decision_task_MP_exp2,2020.2.5,Win32,60,m,1,0.442925,,,,,,,,0.442925,1,,,,,,136,WORD,UN,33,finger,BLEACH,m,,,,,,0.209259276,0.006481474,0,0,0,,0,260,260,135,1,
,,,,,,,,,,,,,,,,,,5ec682b47ee9e4078e50eac7,2020-11-27_15h06.27.723,lexical_decision_task_MP_exp2,2020.2.5,Win32,60,z,1,0.5868,,,,,,,,0.5868,1,,,,,,327,NW,"ID",16,plenac,PLENAC,z,,,,,,0.209259276,0.006481474,0,0,0,,0,261,261,326,1,
,,,,,,,,,,,,,,,,,,5ec682b47ee9e4078e50eac7,2020-11-27_15h06.27.723,lexical_decision_task_MP_exp2,2020.2.5,Win32,60,z,1,0.7186,,,,,,,,0.7186,1,,,,,,387,NW,UN,33,cragin,GRONCE,z,,,,,,0.209259276,0.006481474,0,0,0,,0,262,262,386,1,
,,,,,,,,,,,,,,,,,,5ec682b47ee9e4078e50eac7,2020-11-27_15h06.27.723,lexical_decision_task_MP_exp2,2020.2.5,Win32,60,z,1,0.47511,,,,,,,,0.47511,1,,,,,,251,NW,"ID",33,lupict,LUPICT,z,,,,,,0.209259276,0.006481474,0,0,0,,0,263,263,250,1,
,,,,,,,,,,,,,,,,,,5ec682b47ee9e4078e50eac7,2020-11-27_15h06.27.723,lexical_decision_task_MP_exp2,2020.2.5,Win32,60,z,1,0.434595,,,,,,,,0.434595,1,,,,,,465,NW,UN,16,hocite,WHIVEX,z,,,,,,0.209259276,0.006481474,0,0,0,,0,264,264,464,1,
,,,,,,,,,,,,,,,,,,5ec682b47ee9e4078e50eac7,2020-11-27_15h06.27.723,lexical_decision_task_MP_exp2,2020.2.5,Win32,60,z,1,0.68229,,,,,,,,0.68229,1,,,,,,474,NW,UN,16,gorbie,HABLIN,z,,,,,,0.209259276,0.006481474,0,0,0,,0,265,265,473,1,
,,,,,,,,,,,,,,,,,,5ec682b47ee9e4078e50eac7,2020-11-27_15h06.27.723,lexical_decision_task_MP_exp2,2020.2.5,Win32,60,z,1,0.50376,,,,,,,,0.50376,1,,,,,,386,NW,UN,33,gronce,ANCUST,z,,,,,,0.209259276,0.006481474,0,0,0,,0,266,266,385,1,
,,,,,,,,,,,,,,,,,,5ec682b47ee9e4078e50eac7,2020-11-27_15h06.27.723,lexical_decision_task_MP_exp2,2020.2.5,Win32,60,m,1,0.480975,,,,,,,,0.480975,1,,,,,,68,WORD,"ID",16,fumble,FUMBLE,m,,,,,,0.209259276,0.006481474,0,0,0,,0,267,267,67,1,
,,,,,,,,,,,,,,,,,,5ec682b47ee9e4078e50eac7,2020-11-27_15h06.27.723,lexical_decision_task_MP_exp2,2020.2.5,Win32,60,z,1,0.23662,,,,,,,,0.23662,1,,,,,,417,NW,UN,33,suidle,EAROUD,z,,,,,,0.209259276,0.006481474,0,0,0,,0,268,268,416,1,
,,,,,,,,,,,,,,,,,,5ec682b47ee9e4078e50eac7,2020-11-27_15h06.27.723,lexical_decision_task_MP_exp2,2020.2.5,Win32,60,m,1,0.455205,,,,,,,,0.455205,1,,,,,,148,WORD,UN,33,invade,CUSTOM,m,,,,,,0.209259276,0.006481474,0,0,0,,0,269,269,147,1,
,,,,,,,,,,,,,,,,,,5ec682b47ee9e4078e50eac7,2020-11-27_15h06.27.723,lexical_decision_task_MP_exp2,2020.2.5,Win32,60,z,1,0.296565,,,,,,,,0.296565,1,,,,,,458,NW,UN,16,chaite,BARCET,z,,,,,,0.209259276,0.006481474,0,0,0,,0,270,270,457,1,
,,,,,,,,,,,,,,,,,,5ec682b47ee9e4078e50eac7,2020-11-27_15h06.27.723,lexical_decision_task_MP_exp2,2020.2.5,Win32,60,z,1,0.59675,,,,,,,,0.59675,1,,,,,,443,NW,UN,16,jaunce,DORSEX,z,,,,,,0.209259276,0.006481474,0,0,0,,0,271,271,442,1,
,,,,,,,,,,,,,,,,,,5ec682b47ee9e4078e50eac7,2020-11-27_15h06.27.723,lexical_decision_task_MP_exp2,2020.2.5,Win32,60,z,0,0.497975,,,,,,,,0.497975,0,,,,,,215,WORD,UN,16,behalf,PHOBIA,m,,,,,,0.209259276,0.006481474,0,0,0,,0,272,272,214,1,
,,,,,,,,,,,,,,,,,,5ec682b47ee9e4078e50eac7,2020-11-27_15h06.27.723,lexical_decision_task_MP_exp2,2020.2.5,Win32,60,m,1,0.465615,,,,,,,,0.465615,1,,,,,,59,WORD,"ID",33,splint,SPLINT,m,,,,,,0.209259276,0.006481474,0,0,0,,0,273,273,58,1,
,,,,,,,,,,,,,,,,,,5ec682b47ee9e4078e50eac7,2020-11-27_15h06.27.723,lexical_decision_task_MP_exp2,2020.2.5,Win32,60,z,1,0.550665,,,,,,,,0.550665,1,,,,,,326,NW,"ID",16,iguade,IGUADE,z,,,,,,0.209259276,0.006481474,0,0,0,,0,274,274,325,1,
,,,,,,,,,,,,,,,,,,5ec682b47ee9e4078e50eac7,2020-11-27_15h06.27.723,lexical_decision_task_MP_exp2,2020.2.5,Win32,60,z,0,0.46976,,,,,,,,0.46976,0,,,,,,46,WORD,"ID",33,single,SINGLE,m,,,,,,0.212037053,-0.083333342,0,0,0,,0,275,275,45,1,
,,,,,,,,,,,,,,,,,,5ec682b47ee9e4078e50eac7,2020-11-27_15h06.27.723,lexical_decision_task_MP_exp2,2020.2.5,Win32,60,m,1,0.425055,,,,,,,,0.425055,1,,,,,,18,WORD,"ID",33,humble,HUMBLE,m,,,,,,0.212037053,-0.083333342,0,0,0,,0,276,276,17,1,
,,,,,,,,,,,,,,,,,,5ec682b47ee9e4078e50eac7,2020-11-27_15h06.27.723,lexical_decision_task_MP_exp2,2020.2.5,Win32,60,z,1,0.77586,,,,,,,,0.77586,1,,,,,,406,NW,UN,33,suiver,NOUPLY,z,,,,,,0.212037053,-0.083333342,0,0,0,,0,277,277,405,1,
,,,,,,,,,,,,,,,,,,5ec682b47ee9e4078e50eac7,2020-11-27_15h06.27.723,lexical_decision_task_MP_exp2,2020.2.5,Win32,60,z,1,0.944655,,,,,,,,0.944655,1,,,,,,369,NW,UN,33,sleact,WRONCH,z,,,,,,0.212037053,-0.083333342,0,0,0,,0,278,278,368,1,
,,,,,,,,,,,,,,,,,,5ec682b47ee9e4078e50eac7,2020-11-27_15h06.27.723,lexical_decision_task_MP_exp2,2020.2.5,Win32,60,m,1,0.90114,,,,,,,,0.90114,1,,,,,,122,WORD,UN,33,strike,LINGER,m,,,,,,0.212037053,-0.083333342,0,0,0,,0,279,279,121,1,
,,,,,,,,,,,,,,,,,,5ec682b47ee9e4078e50eac7,2020-11-27_15h06.27.723,lexical_decision_task_MP_exp2,2020.2.5,Win32,60,m,0,0.58302,,,,,,,,0.58302,0,,,,,,389,NW,UN,33,hatrus,WITMER,z,,,,,,0.212037053,-0.083333342,0,0,0,,0,280,280,388,1,
,,,,,,,,,,,,,,,,,,5ec682b47ee9e4078e50eac7,2020-11-27_15h06.27.723,lexical_decision_task_MP_exp2,2020.2.5,Win32,60,z,0,0.131165,,,,,,,,0.131165,0,,,,,,124,WORD,UN,33,nickel,BLOUSE,m,,,,,,0.212037053,-0.083333342,0,0,0,,0,281,281,123,1,
,,,,,,,,,,,,,,,,,,5ec682b47ee9e4078e50eac7,2020-11-27_15h06.27.723,lexical_decision_task_MP_exp2,2020.2.5,Win32,60,m,1,0.43641,,,,,,,,0.43641,1,,,,,,133,WORD,UN,33,debris,CHROME,m,,,,,,0.212037053,-0.083333342,0,0,0,,0,282,282,132,1,
,,,,,,,,,,,,,,,,,,5ec682b47ee9e4078e50eac7,2020-11-27_15h06.27.723,lexical_decision_task_MP_exp2,2020.2.5,Win32,60,z,1,1.036125,,,,,,,,1.036125,1,,,,,,258,NW,"ID",33,poluth,POLUTH,z,,,,,,0.212037053,-0.083333342,0,0,0,,0,283,283,257,1,
,,,,,,,,,,,,,,,,,,5ec682b47ee9e4078e50eac7,2020-11-27_15h06.27.723,lexical_decision_task_MP_exp2,2020.2.5,Win32,60,m,1,0.683595,,,,,,,,0.683595,1,,,,,,86,WORD,"ID",16,rodent,RODENT,m,,,,,,0.212037053,-0.083333342,0,0,0,,0,284,284,85,1,
,,,,,,,,,,,,,,,,,,5ec682b47ee9e4078e50eac7,2020-11-27_15h06.27.723,lexical_decision_task_MP_exp2,2020.2.5,Win32,60,m,1,0.49982,,,,,,,,0.49982,1,,,,,,237,WORD,UN,16,seldom,POSTER,m,,,,,,0.212037053,-0.083333342,0,0,0,,0,285,285,236,1,
,,,,,,,,,,,,,,,,,,5ec682b47ee9e4078e50eac7,2020-11-27_15h06.27.723,lexical_decision_task_MP_exp2,2020.2.5,Win32,60,z,1,0.680515,,,,,,,,0.680515,1,,,,,,305,NW,"ID",16,forgle,FORGLE,z,,,,,,0.212037053,-0.083333342,0,0,0,,0,286,286,304,1,
,,,,,,,,,,,,,,,,,,5ec682b47ee9e4078e50eac7,2020-11-27_15h06.27.723,lexical_decision_task_MP_exp2,2020.2.5,Win32,60,z,1,0.565215,,,,,,,,0.565215,1,,,,,,311,NW,"ID",16,sproly,SPROLY,z,,,,,,0.212037053,-0.083333342,0,0,0,,0,287,287,310,1,
,,,,,,,,,,,,,,,,,,5ec682b47ee9e4078e50eac7,2020-11-27_15h06.27.723,lexical_decision_task_MP_exp2,2020.2.5,Win32,60,z,0,0.387005,,,,,,,,0.387005,0,,,,,,35,WORD,"ID",33,socket,SOCKET,m,,,,,,0.212037053,-0.083333342,0,0,0,,0,288,288,34,1,
,,,,,,,,,,,,,,,,,,5ec682b47ee9e4078e50eac7,2020-11-27_15h06.27.723,lexical_decision_task_MP_exp2,2020.2.5,Win32,60,z,1,0.689315,,,,,,,,0.689315,1,,,,,,419,NW,UN,33,gushop,SLOUNT,z,,,,,,0.212037053,-0.083333342,0,0,0,,0,289,289,418,1,
,,,,,,,,,,,,,,,,,,5ec682b47ee9e4078e50eac7,2020-11-27_15h06.27.723,lexical_decision_task_MP_exp2,2020.2.5,Win32,60,z,1,0.539205,,,,,,,,0.539205,1,,,,,,293,NW,"ID",33,swance,SWANCE,z,,,,,,0.212037053,-0.083333342,0,0,0,,0,290,290,292,1,
,,,,,,,,,,,,,,,,,,5ec682b47ee9e4078e50eac7,2020-11-27_15h06.27.723,lexical_decision_task_MP_exp2,2020.2.5,Win32,60,m,1,0.4342,,,,,,,,0.4342,1,,,,,,64,WORD,"ID",16,throne,THRONE,m,,,,,,0.212037053,-0.083333342,0,0,0,,0,291,291,63,1,
,,,,,,,,,,,,,,,,,,5ec682b47ee9e4078e50eac7,2020-11-27_15h06.27.723,lexical_decision_task_MP_exp2,2020.2.5,Win32,60,m,1,0.504935,,,,,,,,0.504935,1,,,,,,128,WORD,UN,33,marvel,SENIOR,m,,,,,,0.212037053,-0.083333342,0,0,0,,0,292,292,127,1,
,,,,,,,,,,,,,,,,,,5ec682b47ee9e4078e50eac7,2020-11-27_15h06.27.723,lexical_decision_task_MP_exp2,2020.2.5,Win32,60,m,0,0.36686,,,,,,,,0.36686,0,,,,,,325,NW,"ID",16,thruse,THRUSE,z,,,,,,0.212037053,-0.083333342,0,0,0,,0,293,293,324,1,
,,,,,,,,,,,,,,,,,,5ec682b47ee9e4078e50eac7,2020-11-27_15h06.27.723,lexical_decision_task_MP_exp2,2020.2.5,Win32,60,m,1,0.513765,,,,,,,,0.513765,1,,,,,,202,WORD,UN,16,phrase,FACTOR,m,,,,,,0.212037053,-0.083333342,0,0,0,,0,294,294,201,1,
,,,,,,,,,,,,,,,,,,5ec682b47ee9e4078e50eac7,2020-11-27_15h06.27.723,lexical_decision_task_MP_exp2,2020.2.5,Win32,60,m,1,0.462375,,,,,,,,0.462375,1,,,,,,198,WORD,UN,16,invoke,WICKED,m,,,,,,0.212037053,-0.083333342,0,0,0,,0,295,295,197,1,
,,,,,,,,,,,,,,,,,,5ec682b47ee9e4078e50eac7,2020-11-27_15h06.27.723,lexical_decision_task_MP_exp2,2020.2.5,Win32,60,z,1,0.598295,,,,,,,,0.598295,1,,,,,,347,NW,"ID",16,kerift,KERIFT,z,,,,,,0.212037053,-0.083333342,0,0,0,,0,296,296,346,1,
,,,,,,,,,,,,,,,,,,5ec682b47ee9e4078e50eac7,2020-11-27_15h06.27.723,lexical_decision_task_MP_exp2,2020.2.5,Win32,60,z,1,0.373175,,,,,,,,0.373175,1,,,,,,473,NW,UN,16,hablin,CRIBLE,z,,,,,,0.212037053,-0.083333342,0,0,0,,0,297,297,472,1,
,,,,,,,,,,,,,,,,,,5ec682b47ee9e4078e50eac7,2020-11-27_15h06.27.723,lexical_decision_task_MP_exp2,2020.2.5,Win32,60,z,0,0.551245,,,,,,,,0.551245,0,,,,,,188,WORD,UN,16,censor,SOCIAL,m,,,,,,0.212037053,-0.083333342,0,0,0,,0,298,298,187,1,
,,,,,,,,,,,,,,,,,,5ec682b47ee9e4078e50eac7,2020-11-27_15h06.27.723,lexical_decision_task_MP_exp2,2020.2.5,Win32,60,m,1,0.584845,,,,,,,,0.584845,1,,,,,,38,WORD,"ID",33,powder,POWDER,m,,,,,,0.212037053,-0.083333342,0,0,0,,0,299,299,37,1,
,,,,,,,,,,,,,,,,,,5ec682b47ee9e4078e50eac7,2020-11-27_15h06.27.723,lexical_decision_task_MP_exp2,2020.2.5,Win32,60,m,1,0.48529,,,,,,,,0.48529,1,,,,,,94,WORD,"ID",16,travel,TRAVEL,m,,,,,,0.212037053,-0.083333342,0,0,0,,0,300,300,93,1,
,,,,,,,,,,,,,,,,,,5ec682b47ee9e4078e50eac7,2020-11-27_15h06.27.723,lexical_decision_task_MP_exp2,2020.2.5,Win32,60,z,1,0.579095,,,,,,,,0.579095,1,,,,,,407,NW,UN,33,hurnia,SUIVER,z,,,,,,0.212037053,-0.083333342,0,0,0,,0,301,301,406,1,
,,,,,,,,,,,,,,,,,,5ec682b47ee9e4078e50eac7,2020-11-27_15h06.27.723,lexical_decision_task_MP_exp2,2020.2.5,Win32,60,m,1,0.38262,,,,,,,,0.38262,1,,,,,,14,WORD,"ID",33,almost,ALMOST,m,,,,,,0.212037053,-0.083333342,0,0,0,,0,302,302,13,1,
,,,,,,,,,,,,,,,,,,5ec682b47ee9e4078e50eac7,2020-11-27_15h06.27.723,lexical_decision_task_MP_exp2,2020.2.5,Win32,60,z,1,0.63176,,,,,,,,0.63176,1,,,,,,332,NW,"ID",16,vangue,VANGUE,z,,,,,,0.212037053,-0.083333342,0,0,0,,0,303,303,331,1,
,,,,,,,,,,,,,,,,,,5ec682b47ee9e4078e50eac7,2020-11-27_15h06.27.723,lexical_decision_task_MP_exp2,2020.2.5,Win32,60,m,1,0.437665,,,,,,,,0.437665,1,,,,,,141,WORD,UN,33,spruce,ORPHAN,m,,,,,,0.212037053,-0.083333342,0,0,0,,0,304,304,140,1,
,,,,,,,,,,,,,,,,,,5ec682b47ee9e4078e50eac7,2020-11-27_15h06.27.723,lexical_decision_task_MP_exp2,2020.2.5,Win32,60,m,0,0.406655,,,,,,,,0.406655,0,,,,,,409,NW,UN,33,tunory,ELOPIA,z,,,,,,0.212037053,-0.083333342,0,0,0,,0,305,305,408,1,
,,,,,,,,,,,,,,,,,,5ec682b47ee9e4078e50eac7,2020-11-27_15h06.27.723,lexical_decision_task_MP_exp2,2020.2.5,Win32,60,z,0,0.39286,,,,,,,,0.39286,0,,,,,,54,WORD,"ID",33,ramble,RAMBLE,m,,,,,,0.212037053,-0.083333342,0,0,0,,0,306,306,53,1,
,,,,,,,,,,,,,,,,,,5ec682b47ee9e4078e50eac7,2020-11-27_15h06.27.723,lexical_decision_task_MP_exp2,2020.2.5,Win32,60,z,1,0.641525,,,,,,,,0.641525,1,,,,,,323,NW,"ID",16,rosail,ROSAIL,z,,,,,,0.212037053,-0.083333342,0,0,0,,0,307,307,322,1,
,,,,,,,,,,,,,,,,,,5ec682b47ee9e4078e50eac7,2020-11-27_15h06.27.723,lexical_decision_task_MP_exp2,2020.2.5,Win32,60,z,1,0.422155,,,,,,,,0.422155,1,,,,,,245,NW,"ID",33,anougs,ANOUGS,z,,,,,,0.212037053,-0.083333342,0,0,0,,0,308,308,244,1,
,,,,,,,,,,,,,,,,,,5ec682b47ee9e4078e50eac7,2020-11-27_15h06.27.723,lexical_decision_task_MP_exp2,2020.2.5,Win32,60,m,0,0.39164,,,,,,,,0.39164,0,,,,,,397,NW,UN,33,blunde,CAMBLE,z,,,,,,0.212037053,-0.083333342,0,0,0,,0,309,309,396,1,
,,,,,,,,,,,,,,,,,,5ec682b47ee9e4078e50eac7,2020-11-27_15h06.27.723,lexical_decision_task_MP_exp2,2020.2.5,Win32,60,z,0,0.54957,,,,,,,,0.54957,0,,,,,,175,WORD,UN,33,strife,FABRIC,m,,,,,,0.212037053,-0.083333342,0,0,0,,0,310,310,174,1,
,,,,,,,,,,,,,,,,,,5ec682b47ee9e4078e50eac7,2020-11-27_15h06.27.723,lexical_decision_task_MP_exp2,2020.2.5,Win32,60,z,1,0.735335,,,,,,,,0.735335,1,,,,,,296,NW,"ID",33,beinch,BEINCH,z,,,,,,0.212037053,-0.083333342,0,0,0,,0,311,311,295,1,
,,,,,,,,,,,,,,,,,,5ec682b47ee9e4078e50eac7,2020-11-27_15h06.27.723,lexical_decision_task_MP_exp2,2020.2.5,Win32,60,z,1,0.53554,,,,,,,,0.53554,1,,,,,,242,NW,"ID",33,unwert,UNWERT,z,,,,,,0.212037053,-0.083333342,0,0,0,,0,312,312,241,1,
,,,,,,,,,,,,,,,,,,5ec682b47ee9e4078e50eac7,2020-11-27_15h06.27.723,lexical_decision_task_MP_exp2,2020.2.5,Win32,60,z,1,0.57504,,,,,,,,0.57504,1,,,,,,247,NW,"ID",33,blarge,BLARGE,z,,,,,,0.212037053,-0.083333342,0,0,0,,0,313,313,246,1,
,,,,,,,,,,,,,,,,,,5ec682b47ee9e4078e50eac7,2020-11-27_15h06.27.723,lexical_decision_task_MP_exp2,2020.2.5,Win32,60,z,1,0.721665,,,,,,,,0.721665,1,,,,,,270,NW,"ID",33,wrimsy,WRIMSY,z,,,,,,0.212037053,-0.083333342,0,0,0,,0,314,314,269,1,
,,,,,,,,,,,,,,,,,,5ec682b47ee9e4078e50eac7,2020-11-27_15h06.27.723,lexical_decision_task_MP_exp2,2020.2.5,Win32,60,z,0,0.3467,,,,,,,,0.3467,0,,,,,,156,WORD,UN,33,pastor,CRADLE,m,,,,,,0.212037053,-0.083333342,0,0,0,,0,315,315,155,1,
,,,,,,,,,,,,,,,,,,5ec682b47ee9e4078e50eac7,2020-11-27_15h06.27.723,lexical_decision_task_MP_exp2,2020.2.5,Win32,60,z,1,0.522105,,,,,,,,0.522105,1,,,,,,285,NW,"ID",33,prudge,PRUDGE,z,,,,,,0.212037053,-0.083333342,0,0,0,,0,316,316,284,1,
,,,,,,,,,,,,,,,,,,5ec682b47ee9e4078e50eac7,2020-11-27_15h06.27.723,lexical_decision_task_MP_exp2,2020.2.5,Win32,60,z,1,0.461335,,,,,,,,0.461335,1,,,,,,298,NW,"ID",33,piergy,PIERGY,z,,,,,,0.212037053,-0.083333342,0,0,0,,0,317,317,297,1,
,,,,,,,,,,,,,,,,,,5ec682b47ee9e4078e50eac7,2020-11-27_15h06.27.723,lexical_decision_task_MP_exp2,2020.2.5,Win32,60,z,1,0.55329,,,,,,,,0.55329,1,,,,,,344,NW,"ID",16,scrily,SCRILY,z,,,,,,0.212037053,-0.083333342,0,0,0,,0,318,318,343,1,
,,,,,,,,,,,,,,,,,,5ec682b47ee9e4078e50eac7,2020-11-27_15h06.27.723,lexical_decision_task_MP_exp2,2020.2.5,Win32,60,z,0,0.48011,,,,,,,,0.48011,0,,,,,,158,WORD,UN,33,detail,ISLAND,m,,,,,,0.212037053,-0.083333342,0,0,0,,0,319,319,157,1,
,,,,,,,,,,,,,,,,,,5ec682b47ee9e4078e50eac7,2020-11-27_15h06.27.723,lexical_decision_task_MP_exp2,2020.2.5,Win32,60,m,1,0.59064,,,,,,,,0.59064,1,,,,,,25,WORD,"ID",33,domain,DOMAIN,m,,,,,,0.212037053,-0.083333342,0,0,0,,0,320,320,24,1,
,,,,,,,,,,,,,,,,,,5ec682b47ee9e4078e50eac7,2020-11-27_15h06.27.723,lexical_decision_task_MP_exp2,2020.2.5,Win32,60,m,0,0.35937,,,,,,,,0.35937,0,,,,,,399,NW,UN,33,wearox,FOURET,z,,,,,,0.212037053,-0.083333342,0,0,0,,0,321,321,398,1,
,,,,,,,,,,,,,,,,,,5ec682b47ee9e4078e50eac7,2020-11-27_15h06.27.723,lexical_decision_task_MP_exp2,2020.2.5,Win32,60,m,1,0.675715,,,,,,,,0.675715,1,,,,,,95,WORD,"ID",16,thread,THREAD,m,,,,,,0.212037053,-0.083333342,0,0,0,,0,322,322,94,1,
,,,,,,,,,,,,,,,,,,5ec682b47ee9e4078e50eac7,2020-11-27_15h06.27.723,lexical_decision_task_MP_exp2,2020.2.5,Win32,60,m,1,0.47234,,,,,,,,0.47234,1,,,,,,36,WORD,"ID",33,vanish,VANISH,m,,,,,,0.212037053,-0.083333342,0,0,0,,0,323,323,35,1,
,,,,,,,,,,,,,,,,,,5ec682b47ee9e4078e50eac7,2020-11-27_15h06.27.723,lexical_decision_task_MP_exp2,2020.2.5,Win32,60,m,1,0.47022,,,,,,,,0.47022,1,,,,,,150,WORD,UN,33,mystic,RANDOM,m,,,,,,0.212037053,-0.083333342,0,0,0,,0,324,324,149,1,
,,,,,,,,,,,,,,,,,,5ec682b47ee9e4078e50eac7,2020-11-27_15h06.27.723,lexical_decision_task_MP_exp2,2020.2.5,Win32,60,z,1,0.579825,,,,,,,,0.579825,1,,,,,,464,NW,UN,16,whivex,CHAITE,z,,,,,,0.212037053,-0.083333342,0,0,0,,0,325,325,463,1,
,,,,,,,,,,,,,,,,,,5ec682b47ee9e4078e50eac7,2020-11-27_15h06.27.723,lexical_decision_task_MP_exp2,2020.2.5,Win32,60,m,1,0.54639,,,,,,,,0.54639,1,,,,,,74,WORD,"ID",16,plaque,PLAQUE,m,,,,,,0.212037053,-0.083333342,0,0,0,,0,326,326,73,1,
,,,,,,,,,,,,,,,,,,5ec682b47ee9e4078e50eac7,2020-11-27_15h06.27.723,lexical_decision_task_MP_exp2,2020.2.5,Win32,60,m,1,0.616585,,,,,,,,0.616585,1,,,,,,169,WORD,UN,33,pounce,GENIUS,m,,,,,,0.212037053,-0.083333342,0,0,0,,0,327,327,168,1,
,,,,,,,,,,,,,,,,,,5ec682b47ee9e4078e50eac7,2020-11-27_15h06.27.723,lexical_decision_task_MP_exp2,2020.2.5,Win32,60,m,1,0.531605,,,,,,,,0.531605,1,,,,,,216,WORD,UN,16,liquor,BEHALF,m,,,,,,0.212037053,-0.083333342,0,0,0,,0,328,328,215,1,
,,,,,,,,,,,,,,,,,,5ec682b47ee9e4078e50eac7,2020-11-27_15h06.27.723,lexical_decision_task_MP_exp2,2020.2.5,Win32,60,m,1,0.47899,,,,,,,,0.47899,1,,,,,,171,WORD,UN,33,patrol,DEPART,m,,,,,,0.212037053,-0.083333342,0,0,0,,0,329,329,170,1,
,,,,,,,,,,,,,,,,,,5ec682b47ee9e4078e50eac7,2020-11-27_15h06.27.723,lexical_decision_task_MP_exp2,2020.2.5,Win32,60,z,1,0.65638,,,,,,,,0.65638,1,,,,,,366,NW,UN,33,slique,TOSHEL,z,,,,,,0.212037053,-0.083333342,0,0,0,,0,330,330,365,1,
,,,,,,,,,,,,,,,,,,5ec682b47ee9e4078e50eac7,2020-11-27_15h06.27.723,lexical_decision_task_MP_exp2,2020.2.5,Win32,60,m,1,0.41305,,,,,,,,0.41305,1,,,,,,103,WORD,"ID",16,bounce,BOUNCE,m,,,,,,0.212037053,-0.083333342,0,0,0,,0,331,331,102,1,
,,,,,,,,,,,,,,,,,,5ec682b47ee9e4078e50eac7,2020-11-27_15h06.27.723,lexical_decision_task_MP_exp2,2020.2.5,Win32,60,z,1,0.63654,,,,,,,,0.63654,1,,,,,,324,NW,"ID",16,steikh,STEIKH,z,,,,,,0.212037053,-0.083333342,0,0,0,,0,332,332,323,1,
,,,,,,,,,,,,,,,,,,5ec682b47ee9e4078e50eac7,2020-11-27_15h06.27.723,lexical_decision_task_MP_exp2,2020.2.5,Win32,60,z,1,0.6995,,,,,,,,0.6995,1,,,,,,447,NW,UN,16,sadent,GIRCUE,z,,,,,,0.212037053,-0.083333342,0,0,0,,0,333,333,446,1,
,,,,,,,,,,,,,,,,,,5ec682b47ee9e4078e50eac7,2020-11-27_15h06.27.723,lexical_decision_task_MP_exp2,2020.2.5,Win32,60,z,1,0.54057,,,,,,,,0.54057,1,,,,,,444,NW,UN,16,minkel,JAUNCE,z,,,,,,0.212037053,-0.083333342,0,0,0,,0,334,334,443,1,
,,,,,,,,,,,,,,,,,,5ec682b47ee9e4078e50eac7,2020-11-27_15h06.27.723,lexical_decision_task_MP_exp2,2020.2.5,Win32,60,z,1,0.52357,,,,,,,,0.52357,1,,,,,,415,NW,UN,33,pathel,HIGSTA,z,,,,,,0.212037053,-0.083333342,0,0,0,,0,335,335,414,1,
,,,,,,,,,,,,,,,,,,5ec682b47ee9e4078e50eac7,2020-11-27_15h06.27.723,lexical_decision_task_MP_exp2,2020.2.5,Win32,60,z,0,0.35773,,,,,,,,0.35773,0,,,,,,48,WORD,"ID",33,walnut,WALNUT,m,,,,,,0.212037053,-0.083333342,0,0,0,,0,336,336,47,1,
,,,,,,,,,,,,,,,,,,5ec682b47ee9e4078e50eac7,2020-11-27_15h06.27.723,lexical_decision_task_MP_exp2,2020.2.5,Win32,60,z,1,0.628515,,,,,,,,0.628515,1,,,,,,460,NW,UN,16,justre,MINGAR,z,,,,,,0.212037053,-0.083333342,0,0,0,,0,337,337,459,1,
,,,,,,,,,,,,,,,,,,5ec682b47ee9e4078e50eac7,2020-11-27_15h06.27.723,lexical_decision_task_MP_exp2,2020.2.5,Win32,60,m,1,0.539785,,,,,,,,0.539785,1,,,,,,164,WORD,UN,33,invest,MARKET,m,,,,,,0.212037053,-0.083333342,0,0,0,,0,338,338,163,1,
,,,,,,,,,,,,,,,,,,5ec682b47ee9e4078e50eac7,2020-11-27_15h06.27.723,lexical_decision_task_MP_exp2,2020.2.5,Win32,60,m,1,0.48931,,,,,,,,0.48931,1,,,,,,67,WORD,"ID",16,policy,POLICY,m,,,,,,0.212037053,-0.083333342,0,0,0,,0,339,339,66,1,
,,,,,,,,,,,,,,,,,,5ec682b47ee9e4078e50eac7,2020-11-27_15h06.27.723,lexical_decision_task_MP_exp2,2020.2.5,Win32,60,z,1,0.645285,,,,,,,,0.645285,1,,,,,,244,NW,"ID",33,eatric,EATRIC,z,,,,,,0.212037053,-0.083333342,0,0,0,,0,340,340,243,1,
,,,,,,,,,,,,,,,,,,5ec682b47ee9e4078e50eac7,2020-11-27_15h06.27.723,lexical_decision_task_MP_exp2,2020.2.5,Win32,60,z,1,0.628765,,,,,,,,0.628765,1,,,,,,439,NW,UN,16,saride,LIMPOR,z,,,,,,0.212037053,-0.083333342,0,0,0,,0,341,341,438,1,
,,,,,,,,,,,,,,,,,,5ec682b47ee9e4078e50eac7,2020-11-27_15h06.27.723,lexical_decision_task_MP_exp2,2020.2.5,Win32,60,z,1,0.58829,,,,,,,,0.58829,1,,,,,,451,NW,UN,16,surden,CAINKY,z,,,,,,0.212037053,-0.083333342,0,0,0,,0,342,342,450,1,
,,,,,,,,,,,,,,,,,,5ec682b47ee9e4078e50eac7,2020-11-27_15h06.27.723,lexical_decision_task_MP_exp2,2020.2.5,Win32,60,m,1,0.475855,,,,,,,,0.475855,1,,,,,,65,WORD,"ID",16,symbol,SYMBOL,m,,,,,,0.212037053,-0.083333342,0,0,0,,0,343,343,64,1,
,,,,,,,,,,,,,,,,,,5ec682b47ee9e4078e50eac7,2020-11-27_15h06.27.723,lexical_decision_task_MP_exp2,2020.2.5,Win32,60,m,1,0.47942,,,,,,,,0.47942,1,,,,,,118,WORD,"ID",16,flight,FLIGHT,m,,,,,,0.212037053,-0.083333342,0,0,0,,0,344,344,117,1,
,,,,,,,,,,,,,,,,,,5ec682b47ee9e4078e50eac7,2020-11-27_15h06.27.723,lexical_decision_task_MP_exp2,2020.2.5,Win32,60,m,1,0.422095,,,,,,,,0.422095,1,,,,,,12,WORD,"ID",33,orange,ORANGE,m,,,,,,0.212037053,-0.083333342,0,0,0,,0,345,345,11,1,
,,,,,,,,,,,,,,,,,,5ec682b47ee9e4078e50eac7,2020-11-27_15h06.27.723,lexical_decision_task_MP_exp2,2020.2.5,Win32,60,z,1,0.53753,,,,,,,,0.53753,1,,,,,,328,NW,"ID",16,broake,BROAKE,z,,,,,,0.212037053,-0.083333342,0,0,0,,0,346,346,327,1,
,,,,,,,,,,,,,,,,,,5ec682b47ee9e4078e50eac7,2020-11-27_15h06.27.723,lexical_decision_task_MP_exp2,2020.2.5,Win32,60,z,1,1.10342,,,,,,,,1.10342,1,,,,,,448,NW,UN,16,brunge,SADENT,z,,,,,,0.212037053,-0.083333342,0,0,0,,0,347,347,447,1,
,,,,,,,,,,,,,,,,,,5ec682b47ee9e4078e50eac7,2020-11-27_15h06.27.723,lexical_decision_task_MP_exp2,2020.2.5,Win32,60,z,1,0.505275,,,,,,,,0.505275,1,,,,,,333,NW,"ID",16,catrie,CATRIE,z,,,,,,0.212037053,-0.083333342,0,0,0,,0,348,348,332,1,
,,,,,,,,,,,,,,,,,,5ec682b47ee9e4078e50eac7,2020-11-27_15h06.27.723,lexical_decision_task_MP_exp2,2020.2.5,Win32,60,m,1,0.526995,,,,,,,,0.526995,1,,,,,,3,WORD,"ID",33,knight,KNIGHT,m,,,,,,0.212037053,-0.083333342,0,0,0,,0,349,349,2,1,
,,,,,,,,,,,,,,,,,,5ec682b47ee9e4078e50eac7,2020-11-27_15h06.27.723,lexical_decision_task_MP_exp2,2020.2.5,Win32,60,m,1,0.671995,,,,,,,,0.671995,1,,,,,,50,WORD,"ID",33,snatch,SNATCH,m,,,,,,0.212037053,-0.083333342,0,0,0,,0,350,350,49,1,
,,,,,,,,,,,,,,,,,,5ec682b47ee9e4078e50eac7,2020-11-27_15h06.27.723,lexical_decision_task_MP_exp2,2020.2.5,Win32,60,m,0,0.482655,,,,,,,,0.482655,0,,,,,,432,NW,UN,16,drance,LUNKER,z,,,,,,0.212037053,-0.083333342,0,0,0,,0,351,351,431,1,
,,,,,,,,,,,,,,,,,,5ec682b47ee9e4078e50eac7,2020-11-27_15h06.27.723,lexical_decision_task_MP_exp2,2020.2.5,Win32,60,m,1,0.702895,,,,,,,,0.702895,1,,,,,,125,WORD,UN,33,blouse,NICKEL,m,,,,,,0.212037053,-0.083333342,0,0,0,,0,352,352,124,1,
,,,,,,,,,,,,,,,,,,5ec682b47ee9e4078e50eac7,2020-11-27_15h06.27.723,lexical_decision_task_MP_exp2,2020.2.5,Win32,60,m,1,0.606765,,,,,,,,0.606765,1,,,,,,234,WORD,UN,16,lumber,CLUMSY,m,,,,,,0.212037053,-0.083333342,0,0,0,,0,353,353,233,1,
,,,,,,,,,,,,,,,,,,5ec682b47ee9e4078e50eac7,2020-11-27_15h06.27.723,lexical_decision_task_MP_exp2,2020.2.5,Win32,60,z,1,0.484255,,,,,,,,0.484255,1,,,,,,241,NW,"ID",33,smenco,SMENCO,z,,,,,,0.212037053,-0.083333342,0,0,0,,0,354,354,240,1,
,,,,,,,,,,,,,,,,,,5ec682b47ee9e4078e50eac7,2020-11-27_15h06.27.723,lexical_decision_task_MP_exp2,2020.2.5,Win32,60,m,0,0.67318,,,,,,,,0.67318,0,,,,,,368,NW,UN,33,wronch,HORNAL,z,,,,,,0.212037053,-0.083333342,0,0,0,,0,355,355,367,1,
,,,,,,,,,,,,,,,,,,5ec682b47ee9e4078e50eac7,2020-11-27_15h06.27.723,lexical_decision_task_MP_exp2,2020.2.5,Win32,60,z,0,0.51616,,,,,,,,0.51616,0,,,,,,6,WORD,"ID",33,bundle,BUNDLE,m,,,,,,0.212037053,-0.083333342,0,0,0,,0,356,356,5,1,
,,,,,,,,,,,,,,,,,,5ec682b47ee9e4078e50eac7,2020-11-27_15h06.27.723,lexical_decision_task_MP_exp2,2020.2.5,Win32,60,m,1,0.52559,,,,,,,,0.52559,1,,,,,,52,WORD,"ID",33,impose,IMPOSE,m,,,,,,0.212037053,-0.083333342,0,0,0,,0,357,357,51,1,
,,,,,,,,,,,,,,,,,,5ec682b47ee9e4078e50eac7,2020-11-27_15h06.27.723,lexical_decision_task_MP_exp2,2020.2.5,Win32,60,m,1,0.52049,,,,,,,,0.52049,1,,,,,,120,WORD,"ID",16,strain,STRAIN,m,,,,,,0.212037053,-0.083333342,0,0,0,,0,358,358,119,1,
,,,,,,,,,,,,,,,,,,5ec682b47ee9e4078e50eac7,2020-11-27_15h06.27.723,lexical_decision_task_MP_exp2,2020.2.5,Win32,60,z,1,0.64327,,,,,,,,0.64327,1,,,,,,353,NW,"ID",16,clurey,CLUREY,z,,,,,,0.212037053,-0.083333342,0,0,0,,0,359,359,352,1,
,,,,,,,,,,,,,,,,,,5ec682b47ee9e4078e50eac7,2020-11-27_15h06.27.723,lexical_decision_task_MP_exp2,2020.2.5,Win32,60,z,1,0.690165,,,,,,,,0.690165,1,,,,,,379,NW,UN,33,cavory,AUTING,z,,,,,,0.212037053,-0.083333342,0,0,0,,0,360,360,378,1,
,,,,,,,,,,,,,,,,,,5ec682b47ee9e4078e50eac7,2020-11-27_15h06.27.723,lexical_decision_task_MP_exp2,2020.2.5,Win32,60,z,1,1.88527,,,,,,,,1.88527,1,,,,,,302,NW,"ID",16,miluer,MILUER,z,,,,,,0.212037053,-0.083333342,0,0,0,,0,361,361,301,1,
,,,,,,,,,,,,,,,,,,5ec682b47ee9e4078e50eac7,2020-11-27_15h06.27.723,lexical_decision_task_MP_exp2,2020.2.5,Win32,60,z,0,0.664965,,,,,,,,0.664965,0,,,,,,29,WORD,"ID",33,sketch,SKETCH,m,,,,,,0.212037053,-0.083333342,0,0,0,space,0,362,362,28,1,4.699465
,,,,,,,,,,,,,,,,,,5ec682b47ee9e4078e50eac7,2020-11-27_15h06.27.723,lexical_decision_task_MP_exp2,2020.2.5,Win32,60,z,1,1.08823,,,,,,,,1.08823,1,,,,,,428,NW,UN,16,chrums,TANDLY,z,,,,,,0.212037053,-0.083333342,0,0,0,,0,363,363,427,1,
,,,,,,,,,,,,,,,,,,5ec682b47ee9e4078e50eac7,2020-11-27_15h06.27.723,lexical_decision_task_MP_exp2,2020.2.5,Win32,60,z,1,0.64187,,,,,,,,0.64187,1,,,,,,462,NW,UN,16,kispel,ABSULT,z,,,,,,0.212037053,-0.083333342,0,0,0,,0,364,364,461,1,
,,,,,,,,,,,,,,,,,,5ec682b47ee9e4078e50eac7,2020-11-27_15h06.27.723,lexical_decision_task_MP_exp2,2020.2.5,Win32,60,z,0,0.405025,,,,,,,,0.405025,0,,,,,,123,WORD,UN,33,enough,STRIKE,m,,,,,,0.212037053,-0.083333342,0,0,0,,0,365,365,122,1,
,,,,,,,,,,,,,,,,,,5ec682b47ee9e4078e50eac7,2020-11-27_15h06.27.723,lexical_decision_task_MP_exp2,2020.2.5,Win32,60,z,0,0.562525,,,,,,,,0.562525,0,,,,,,10,WORD,"ID",33,ethnic,ETHNIC,m,,,,,,0.212037053,-0.083333342,0,0,0,,0,366,366,9,1,
,,,,,,,,,,,,,,,,,,5ec682b47ee9e4078e50eac7,2020-11-27_15h06.27.723,lexical_decision_task_MP_exp2,2020.2.5,Win32,60,,0,,,,,,,,,0.562525,-1,,,,,,113,WORD,"ID",16,chorus,CHORUS,m,,,,,,0.212037053,-0.083333342,0,0,0,,0,367,367,112,1,
,,,,,,,,,,,,,,,,,,5ec682b47ee9e4078e50eac7,2020-11-27_15h06.27.723,lexical_decision_task_MP_exp2,2020.2.5,Win32,60,,0,,,,,,,,,0.562525,-1,,,,,,472,NW,UN,16,crible,CIGNEY,z,,,,,,0.212037053,-0.083333342,0,0,0,,0,368,368,471,1,
,,,,,,,,,,,,,,,,,,5ec682b47ee9e4078e50eac7,2020-11-27_15h06.27.723,lexical_decision_task_MP_exp2,2020.2.5,Win32,60,z,1,0.584685,,,,,,,,0.584685,1,,,,,,289,NW,"ID",33,starby,STARBY,z,,,,,,0.212037053,-0.083333342,0,0,0,,0,369,369,288,1,
,,,,,,,,,,,,,,,,,,5ec682b47ee9e4078e50eac7,2020-11-27_15h06.27.723,lexical_decision_task_MP_exp2,2020.2.5,Win32,60,m,1,0.606765,,,,,,,,0.606765,1,,,,,,102,WORD,"ID",16,direct,DIRECT,m,,,,,,0.212037053,-0.083333342,0,0,0,,0,370,370,101,1,
,,,,,,,,,,,,,,,,,,5ec682b47ee9e4078e50eac7,2020-11-27_15h06.27.723,lexical_decision_task_MP_exp2,2020.2.5,Win32,60,z,1,0.782085,,,,,,,,0.782085,1,,,,,,438,NW,UN,16,limpor,BAITCH,z,,,,,,0.212037053,-0.083333342,0,0,0,,0,371,371,437,1,
,,,,,,,,,,,,,,,,,,5ec682b47ee9e4078e50eac7,2020-11-27_15h06.27.723,lexical_decision_task_MP_exp2,2020.2.5,Win32,60,z,1,0.47256,,,,,,,,0.47256,1,,,,,,283,NW,"ID",33,veralf,VERALF,z,,,,,,0.212037053,-0.083333342,0,0,0,,0,372,372,282,1,
,,,,,,,,,,,,,,,,,,5ec682b47ee9e4078e50eac7,2020-11-27_15h06.27.723,lexical_decision_task_MP_exp2,2020.2.5,Win32,60,z,0,0.486505,,,,,,,,0.486505,0,,,,,,90,WORD,"ID",16,relish,RELISH,m,,,,,,0.212037053,-0.083333342,0,0,0,,0,373,373,89,1,
,,,,,,,,,,,,,,,,,,5ec682b47ee9e4078e50eac7,2020-11-27_15h06.27.723,lexical_decision_task_MP_exp2,2020.2.5,Win32,60,z,1,0.639305,,,,,,,,0.639305,1,,,,,,378,NW,UN,33,auting,SHRILE,z,,,,,,0.212037053,-0.083333342,0,0,0,,0,374,374,377,1,
,,,,,,,,,,,,,,,,,,5ec682b47ee9e4078e50eac7,2020-11-27_15h06.27.723,lexical_decision_task_MP_exp2,2020.2.5,Win32,60,m,1,0.59413,,,,,,,,0.59413,1,,,,,,70,WORD,"ID",16,square,SQUARE,m,,,,,,0.212037053,-0.083333342,0,0,0,,0,375,375,69,1,
,,,,,,,,,,,,,,,,,,5ec682b47ee9e4078e50eac7,2020-11-27_15h06.27.723,lexical_decision_task_MP_exp2,2020.2.5,Win32,60,z,1,0.820785,,,,,,,,0.820785,1,,,,,,320,NW,"ID",16,jockal,JOCKAL,z,,,,,,0.212037053,-0.083333342,0,0,0,,0,376,376,319,1,
,,,,,,,,,,,,,,,,,,5ec682b47ee9e4078e50eac7,2020-11-27_15h06.27.723,lexical_decision_task_MP_exp2,2020.2.5,Win32,60,m,1,0.664235,,,,,,,,0.664235,1,,,,,,232,WORD,UN,16,nature,INJECT,m,,,,,,0.212037053,-0.083333342,0,0,0,,0,377,377,231,1,
,,,,,,,,,,,,,,,,,,5ec682b47ee9e4078e50eac7,2020-11-27_15h06.27.723,lexical_decision_task_MP_exp2,2020.2.5,Win32,60,m,1,0.487055,,,,,,,,0.487055,1,,,,,,58,WORD,"ID",33,foster,FOSTER,m,,,,,,0.212037053,-0.083333342,0,0,0,,0,378,378,57,1,
,,,,,,,,,,,,,,,,,,5ec682b47ee9e4078e50eac7,2020-11-27_15h06.27.723,lexical_decision_task_MP_exp2,2020.2.5,Win32,60,m,1,0.4398,,,,,,,,0.4398,1,,,,,,190,WORD,UN,16,stable,BACKUP,m,,,,,,0.212037053,-0.083333342,0,0,0,,0,379,379,189,1,
,,,,,,,,,,,,,,,,,,5ec682b47ee9e4078e50eac7,2020-11-27_15h06.27.723,lexical_decision_task_MP_exp2,2020.2.5,Win32,60,z,1,0.792405,,,,,,,,0.792405,1,,,,,,424,NW,UN,16,urivel,PRAILE,z,,,,,,0.212037053,-0.083333342,0,0,0,,0,380,380,423,1,
,,,,,,,,,,,,,,,,,,5ec682b47ee9e4078e50eac7,2020-11-27_15h06.27.723,lexical_decision_task_MP_exp2,2020.2.5,Win32,60,z,1,0.68749,,,,,,,,0.68749,1,,,,,,456,NW,UN,16,wanigh,BROGET,z,,,,,,0.212037053,-0.083333342,0,0,0,,0,381,381,455,1,
,,,,,,,,,,,,,,,,,,5ec682b47ee9e4078e50eac7,2020-11-27_15h06.27.723,lexical_decision_task_MP_exp2,2020.2.5,Win32,60,m,1,0.60568,,,,,,,,0.60568,1,,,,,,135,WORD,UN,33,chrome,IMPORT,m,,,,,,0.212037053,-0.083333342,0,0,0,,0,382,382,134,1,
,,,,,,,,,,,,,,,,,,5ec682b47ee9e4078e50eac7,2020-11-27_15h06.27.723,lexical_decision_task_MP_exp2,2020.2.5,Win32,60,m,1,0.61274,,,,,,,,0.61274,1,,,,,,107,WORD,"ID",16,slogan,SLOGAN,m,,,,,,0.212037053,-0.083333342,0,0,0,,0,383,383,106,1,
,,,,,,,,,,,,,,,,,,5ec682b47ee9e4078e50eac7,2020-11-27_15h06.27.723,lexical_decision_task_MP_exp2,2020.2.5,Win32,60,z,1,0.54316,,,,,,,,0.54316,1,,,,,,267,NW,"ID",33,pasink,PASINK,z,,,,,,0.212037053,-0.083333342,0,0,0,,0,384,384,266,1,
,,,,,,,,,,,,,,,,,,5ec682b47ee9e4078e50eac7,2020-11-27_15h06.27.723,lexical_decision_task_MP_exp2,2020.2.5,Win32,60,m,1,0.48881,,,,,,,,0.48881,1,,,,,,112,WORD,"ID",16,breath,BREATH,m,,,,,,0.212037053,-0.083333342,0,0,0,,0,385,385,111,1,
,,,,,,,,,,,,,,,,,,5ec682b47ee9e4078e50eac7,2020-11-27_15h06.27.723,lexical_decision_task_MP_exp2,2020.2.5,Win32,60,m,1,0.494455,,,,,,,,0.494455,1,,,,,,19,WORD,"ID",33,patron,PATRON,m,,,,,,0.212037053,-0.083333342,0,0,0,,0,386,386,18,1,
,,,,,,,,,,,,,,,,,,5ec682b47ee9e4078e50eac7,2020-11-27_15h06.27.723,lexical_decision_task_MP_exp2,2020.2.5,Win32,60,z,1,0.66529,,,,,,,,0.66529,1,,,,,,425,NW,UN,16,schind,FRUDGE,z,,,,,,0.212037053,-0.083333342,0,0,0,,0,387,387,424,1,
,,,,,,,,,,,,,,,,,,5ec682b47ee9e4078e50eac7,2020-11-27_15h06.27.723,lexical_decision_task_MP_exp2,2020.2.5,Win32,60,m,0,0.509015,,,,,,,,0.509015,0,,,,,,319,NW,"ID",16,zomber,ZOMBER,z,,,,,,0.212037053,-0.083333342,0,0,0,,0,388,388,318,1,
,,,,,,,,,,,,,,,,,,5ec682b47ee9e4078e50eac7,2020-11-27_15h06.27.723,lexical_decision_task_MP_exp2,2020.2.5,Win32,60,z,0,0.506805,,,,,,,,0.506805,0,,,,,,1,WORD,"ID",33,fright,FRIGHT,m,,,,,,0.212037053,-0.083333342,0,0,0,,0,389,389,0,1,
,,,,,,,,,,,,,,,,,,5ec682b47ee9e4078e50eac7,2020-11-27_15h06.27.723,lexical_decision_task_MP_exp2,2020.2.5,Win32,60,m,1,0.535165,,,,,,,,0.535165,1,,,,,,211,WORD,UN,16,verify,INFECT,m,,,,,,0.212037053,-0.083333342,0,0,0,,0,390,390,210,1,
,,,,,,,,,,,,,,,,,,5ec682b47ee9e4078e50eac7,2020-11-27_15h06.27.723,lexical_decision_task_MP_exp2,2020.2.5,Win32,60,z,1,1.218575,,,,,,,,1.218575,1,,,,,,404,NW,UN,33,syntic,CLUIRM,z,,,,,,0.212037053,-0.083333342,0,0,0,,0,391,391,403,1,
,,,,,,,,,,,,,,,,,,5ec682b47ee9e4078e50eac7,2020-11-27_15h06.27.723,lexical_decision_task_MP_exp2,2020.2.5,Win32,60,m,1,0.691965,,,,,,,,0.691965,1,,,,,,15,WORD,"ID",33,amount,AMOUNT,m,,,,,,0.212037053,-0.083333342,0,0,0,,0,392,392,14,1,
,,,,,,,,,,,,,,,,,,5ec682b47ee9e4078e50eac7,2020-11-27_15h06.27.723,lexical_decision_task_MP_exp2,2020.2.5,Win32,60,m,1,0.697595,,,,,,,,0.697595,1,,,,,,53,WORD,"ID",33,police,POLICE,m,,,,,,0.212037053,-0.083333342,0,0,0,,0,393,393,52,1,
,,,,,,,,,,,,,,,,,,5ec682b47ee9e4078e50eac7,2020-11-27_15h06.27.723,lexical_decision_task_MP_exp2,2020.2.5,Win32,60,z,1,0.617885,,,,,,,,0.617885,1,,,,,,339,NW,"ID",16,fachow,FACHOW,z,,,,,,0.212037053,-0.083333342,0,0,0,,0,394,394,338,1,
,,,,,,,,,,,,,,,,,,5ec682b47ee9e4078e50eac7,2020-11-27_15h06.27.723,lexical_decision_task_MP_exp2,2020.2.5,Win32,60,m,1,0.42229,,,,,,,,0.42229,1,,,,,,2,WORD,"ID",33,bridge,BRIDGE,m,,,,,,0.212037053,-0.083333342,0,0,0,,0,395,395,1,1,
