counterbalancing_condition,instr_done_keyboard.keys,instr_done_keyboard.rt,instr_done_touch.x,instr_done_touch.y,instr_done_touch.leftButton,instr_done_touch.midButton,instr_done_touch.rightButton,instruction_pages.thisRepN,instruction_pages.thisTrialN,instruction_pages.thisN,instruction_pages.thisIndex,instruction_pages.ran,pageN,phase,instruct_text,has_image,instruct_image,participant,date,expName,psychopyVersion,OS,frameRate,instr_done_touch.clicked_name,response.keys,response.corr,touch_resp.x,touch_resp.y,touch_resp.leftButton,touch_resp.midButton,touch_resp.rightButton,touch_resp.time,touch_resp.clicked_name,rt,corr,practice_trials.thisRepN,practice_trials.thisTrialN,practice_trials.thisN,practice_trials.thisIndex,practice_trials.ran,TrialID,StimulusType,Condition,PrimeDuration,Prime,Target,corrAns,response.rt,end_of_practice_trials_pages.thisRepN,end_of_practice_trials_pages.thisTrialN,end_of_practice_trials_pages.thisN,end_of_practice_trials_pages.thisIndex,end_of_practice_trials_pages.ran,break_done_touch.x,break_done_touch.y,break_done_touch.leftButton,break_done_touch.midButton,break_done_touch.rightButton,break_done_keyboard.keys,experiment_trials.thisRepN,experiment_trials.thisTrialN,experiment_trials.thisN,experiment_trials.thisIndex,experiment_trials.ran,break_done_touch.clicked_name
0,space,19.8278,0.833333333,-0.040364583,0,0,0,0,0,0,0,1,1,instructions,"INSTRUCTIONS
At the start of each trial, look at the hash marks (######) in the center of the screen. After a moment, a string of letters will appear. Your task is to indicate if the letter string forms a word or not (i.e., if it is a nonword). For example, AUTHOR is a word while AUTHON is a nonword.

Press the space bar or touch the button below to continue.",0,,5ec93926ce905a051f5704f3,2020-11-27_15h05.03.322,lexical_decision_task_MP_exp2,2020.2.5,Win32,60,,,,,,,,,,,,,,,,,,,,,,,,,,,,,,,,,,,,,,,,,,
,,,0.0546875,-0.41796875,1,0,0,0,1,1,1,1,2,instructions,"If your device has a keyboard, press the 'Z' key for nonwords and the 'M' key for words.





Press the space bar or touch the button below to continue.",1,keyboard-example.gif,5ec93926ce905a051f5704f3,2020-11-27_15h05.03.322,lexical_decision_task_MP_exp2,2020.2.5,Win32,60,instr_done_button,,,,,,,,,,,,,,,,,,,,,,,,,,,,,,,,,,,,,,,,,
,,,0.03125,-0.43359375,1,0,0,0,2,2,2,1,3,instructions,"If you are using a touchscreen only device, use the buttons on the screen. Do not use the mouse.





Press the space bar or touch the button below to continue.",1,touchscreen-example.gif,5ec93926ce905a051f5704f3,2020-11-27_15h05.03.322,lexical_decision_task_MP_exp2,2020.2.5,Win32,60,instr_done_button,,,,,,,,,,,,,,,,,,,,,,,,,,,,,,,,,,,,,,,,,
,,,0.03125,-0.43359375,1,0,0,0,3,3,3,1,4,instructions,"It is very important that you respond as quickly and accurately as possible, as each letter string will only be on the screen for two seconds. If you do not respond within this time, the message 'Too slow!' will be displayed and the experiment will progress to the next letter string. The first 20 trials will be practice trials and you will receive feedback on your answers. 

Press the space bar or touch the button below to start the practice trials.",0,,5ec93926ce905a051f5704f3,2020-11-27_15h05.03.322,lexical_decision_task_MP_exp2,2020.2.5,Win32,60,instr_done_button,,,,,,,,,,,,,,,,,,,,,,,,,,,,,,,,,,,,,,,,,
,,,,,,,,,,,,,,,,,,5ec93926ce905a051f5704f3,2020-11-27_15h05.03.322,lexical_decision_task_MP_exp2,2020.2.5,Win32,60,,,0,,,,,,,,,-1,0,0,0,12,1,1013,NW,UN,33,adveil,SPRINY,z,,,,,,,,,,,,,,,,,,
,,,,,,,,,,,,,,,,,,5ec93926ce905a051f5704f3,2020-11-27_15h05.03.322,lexical_decision_task_MP_exp2,2020.2.5,Win32,60,,,0,,,,,,,,,-1,0,1,1,4,1,1005,WORD,UN,33,abound,SQUEAK,m,,,,,,,,,,,,,,,,,,
,,,,,,,,,,,,,,,,,,5ec93926ce905a051f5704f3,2020-11-27_15h05.03.322,lexical_decision_task_MP_exp2,2020.2.5,Win32,60,,m,1,,,,,,,,0.80123,1,0,2,2,7,1,1008,WORD,UN,16,hurdle,VOLUME,m,0.80123,,,,,,,,,,,,,,,,,
,,,,,,,,,,,,,,,,,,5ec93926ce905a051f5704f3,2020-11-27_15h05.03.322,lexical_decision_task_MP_exp2,2020.2.5,Win32,60,,z,1,,,,,,,,0.58019,1,0,3,3,13,1,1014,NW,UN,33,winfer,ROUPET,z,0.58019,,,,,,,,,,,,,,,,,
,,,,,,,,,,,,,,,,,,5ec93926ce905a051f5704f3,2020-11-27_15h05.03.322,lexical_decision_task_MP_exp2,2020.2.5,Win32,60,,z,1,,,,,,,,0.77982,1,0,4,4,10,1,1011,NW,"ID",16,inlade,INLADE,z,0.77982,,,,,,,,,,,,,,,,,
,,,,,,,,,,,,,,,,,,5ec93926ce905a051f5704f3,2020-11-27_15h05.03.322,lexical_decision_task_MP_exp2,2020.2.5,Win32,60,,m,1,,,,,,,,0.6074,1,0,5,5,2,1,1003,WORD,"ID",16,almond,ALMOND,m,0.6074,,,,,,,,,,,,,,,,,
,,,,,,,,,,,,,,,,,,5ec93926ce905a051f5704f3,2020-11-27_15h05.03.322,lexical_decision_task_MP_exp2,2020.2.5,Win32,60,,m,1,,,,,,,,0.68378,1,0,6,6,0,1,1001,WORD,"ID",33,utopia,UTOPIA,m,0.68378,,,,,,,,,,,,,,,,,
,,,,,,,,,,,,,,,,,,5ec93926ce905a051f5704f3,2020-11-27_15h05.03.322,lexical_decision_task_MP_exp2,2020.2.5,Win32,60,,z,1,,,,,,,,0.64291,1,0,7,7,8,1,1009,NW,"ID",33,aslert,ASLERT,z,0.64291,,,,,,,,,,,,,,,,,
,,,,,,,,,,,,,,,,,,5ec93926ce905a051f5704f3,2020-11-27_15h05.03.322,lexical_decision_task_MP_exp2,2020.2.5,Win32,60,,m,1,,,,,,,,0.49592,1,0,8,8,5,1,1006,WORD,UN,33,frenzy,OBTAIN,m,0.49592,,,,,,,,,,,,,,,,,
,,,,,,,,,,,,,,,,,,5ec93926ce905a051f5704f3,2020-11-27_15h05.03.322,lexical_decision_task_MP_exp2,2020.2.5,Win32,60,,z,1,,,,,,,,0.567405,1,0,9,9,11,1,1012,NW,"ID",16,rashet,RASHET,z,0.567405,,,,,,,,,,,,,,,,,
,,,,,,,,,,,,,,,,,,5ec93926ce905a051f5704f3,2020-11-27_15h05.03.322,lexical_decision_task_MP_exp2,2020.2.5,Win32,60,,m,1,,,,,,,,0.549565,1,0,10,10,1,1,1002,WORD,"ID",33,adjust,ADJUST,m,0.549565,,,,,,,,,,,,,,,,,
,,,,,,,,,,,,,,,,,,5ec93926ce905a051f5704f3,2020-11-27_15h05.03.322,lexical_decision_task_MP_exp2,2020.2.5,Win32,60,,m,1,,,,,,,,0.68398,1,0,11,11,6,1,1007,WORD,UN,16,tropic,ZOMBIE,m,0.68398,,,,,,,,,,,,,,,,,
,,,,,,,,,,,,,,,,,,5ec93926ce905a051f5704f3,2020-11-27_15h05.03.322,lexical_decision_task_MP_exp2,2020.2.5,Win32,60,,z,1,,,,,,,,0.56949,1,0,12,12,9,1,1010,NW,"ID",33,fariny,FARINY,z,0.56949,,,,,,,,,,,,,,,,,
,,,,,,,,,,,,,,,,,,5ec93926ce905a051f5704f3,2020-11-27_15h05.03.322,lexical_decision_task_MP_exp2,2020.2.5,Win32,60,,z,1,,,,,,,,0.586655,1,0,13,13,14,1,1015,NW,UN,16,miaber,THRALE,z,0.586655,,,,,,,,,,,,,,,,,
,,,,,,,,,,,,,,,,,,5ec93926ce905a051f5704f3,2020-11-27_15h05.03.322,lexical_decision_task_MP_exp2,2020.2.5,Win32,60,,z,1,,,,,,,,0.507805,1,0,14,14,15,1,1016,NW,UN,16,mushed,WHAISE,z,0.507805,,,,,,,,,,,,,,,,,
,,,,,,,,,,,,,,,,,,5ec93926ce905a051f5704f3,2020-11-27_15h05.03.322,lexical_decision_task_MP_exp2,2020.2.5,Win32,60,,m,1,,,,,,,,0.503405,1,0,15,15,3,1,1004,WORD,"ID",16,matrix,MATRIX,m,0.503405,,,,,,,,,,,,,,,,,
,,,0.05859375,-0.40625,1,0,0,,,,,,1,end_of_practice,"You have completed the practice trials. During the experimental trials, you will not receive feedback, but it is very important that you respond as quickly and accurately as possible. 
Before you begin, please ensure that you are in a comfortable and quiet location and will not be disturbed for about 15 minutes, as we cannot use your data if you do not complete all the trials. 
There will be opportunities to take breaks at regular intervals during the experiment. When you are ready to start the experimental trials, please press space or touch the button below.",,,5ec93926ce905a051f5704f3,2020-11-27_15h05.03.322,lexical_decision_task_MP_exp2,2020.2.5,Win32,60,instr_done_button,,,,,,,,,,,,,,,,,,,,,,,,,0,0,0,0,1,,,,,,,,,,,,
,,,,,,,,,,,,,,,,,,5ec93926ce905a051f5704f3,2020-11-27_15h05.03.322,lexical_decision_task_MP_exp2,2020.2.5,Win32,60,,z,1,,,,,,,,1.06695,1,,,,,,366,NW,UN,16,slique,TOSHEL,z,1.06695,,,,,,0.05859375,-0.40625,0,0,0,,0,0,0,425,1,
,,,,,,,,,,,,,,,,,,5ec93926ce905a051f5704f3,2020-11-27_15h05.03.322,lexical_decision_task_MP_exp2,2020.2.5,Win32,60,,m,1,,,,,,,,0.60123,1,,,,,,2,WORD,"ID",16,bridge,BRIDGE,m,0.60123,,,,,,0.05859375,-0.40625,0,0,0,,0,1,1,61,1,
,,,,,,,,,,,,,,,,,,5ec93926ce905a051f5704f3,2020-11-27_15h05.03.322,lexical_decision_task_MP_exp2,2020.2.5,Win32,60,,z,1,,,,,,,,0.723675,1,,,,,,335,NW,UN,33,ghodus,DESION,z,0.723675,,,,,,0.05859375,-0.40625,0,0,0,,0,2,2,394,1,
,,,,,,,,,,,,,,,,,,5ec93926ce905a051f5704f3,2020-11-27_15h05.03.322,lexical_decision_task_MP_exp2,2020.2.5,Win32,60,,z,1,,,,,,,,0.46715,1,,,,,,466,NW,"ID",33,hocite,HOCITE,z,0.46715,,,,,,0.05859375,-0.40625,0,0,0,,0,3,3,285,1,
,,,,,,,,,,,,,,,,,,5ec93926ce905a051f5704f3,2020-11-27_15h05.03.322,lexical_decision_task_MP_exp2,2020.2.5,Win32,60,,z,1,,,,,,,,0.664775,1,,,,,,413,NW,UN,16,serbol,EQUATS,z,0.664775,,,,,,0.05859375,-0.40625,0,0,0,,0,4,4,472,1,
,,,,,,,,,,,,,,,,,,5ec93926ce905a051f5704f3,2020-11-27_15h05.03.322,lexical_decision_task_MP_exp2,2020.2.5,Win32,60,,z,1,,,,,,,,0.511755,1,,,,,,430,NW,"ID",33,caroey,CAROEY,z,0.511755,,,,,,0.05859375,-0.40625,0,0,0,,0,5,5,249,1,
,,,,,,,,,,,,,,,,,,5ec93926ce905a051f5704f3,2020-11-27_15h05.03.322,lexical_decision_task_MP_exp2,2020.2.5,Win32,60,,m,1,,,,,,,,0.467275,1,,,,,,78,WORD,UN,33,theory,COLUMN,m,0.467275,,,,,,0.05859375,-0.40625,0,0,0,,0,6,6,137,1,
,,,,,,,,,,,,,,,,,,5ec93926ce905a051f5704f3,2020-11-27_15h05.03.322,lexical_decision_task_MP_exp2,2020.2.5,Win32,60,,z,1,,,,,,,,0.574185,1,,,,,,397,NW,UN,16,blunde,CAMBLE,z,0.574185,,,,,,0.05859375,-0.40625,0,0,0,,0,7,7,456,1,
,,,,,,,,,,,,,,,,,,5ec93926ce905a051f5704f3,2020-11-27_15h05.03.322,lexical_decision_task_MP_exp2,2020.2.5,Win32,60,,z,1,,,,,,,,0.51335,1,,,,,,464,NW,"ID",33,chaite,CHAITE,z,0.51335,,,,,,0.05859375,-0.40625,0,0,0,,0,8,8,283,1,
,,,,,,,,,,,,,,,,,,5ec93926ce905a051f5704f3,2020-11-27_15h05.03.322,lexical_decision_task_MP_exp2,2020.2.5,Win32,60,,m,1,,,,,,,,0.56397,1,,,,,,70,WORD,UN,33,garden,SQUARE,m,0.56397,,,,,,0.05859375,-0.40625,0,0,0,,0,9,9,129,1,
,,,,,,,,,,,,,,,,,,5ec93926ce905a051f5704f3,2020-11-27_15h05.03.322,lexical_decision_task_MP_exp2,2020.2.5,Win32,60,,m,1,,,,,,,,0.517125,1,,,,,,238,WORD,"ID",33,flower,FLOWER,m,0.517125,,,,,,0.05859375,-0.40625,0,0,0,,0,10,10,57,1,
,,,,,,,,,,,,,,,,,,5ec93926ce905a051f5704f3,2020-11-27_15h05.03.322,lexical_decision_task_MP_exp2,2020.2.5,Win32,60,,z,1,,,,,,,,0.46963,1,,,,,,311,NW,UN,33,nerawl,SPROLY,z,0.46963,,,,,,0.05859375,-0.40625,0,0,0,,0,11,11,370,1,
,,,,,,,,,,,,,,,,,,5ec93926ce905a051f5704f3,2020-11-27_15h05.03.322,lexical_decision_task_MP_exp2,2020.2.5,Win32,60,,z,1,,,,,,,,0.50052,1,,,,,,242,NW,"ID",16,unwert,UNWERT,z,0.50052,,,,,,0.05859375,-0.40625,0,0,0,,0,12,12,301,1,
,,,,,,,,,,,,,,,,,,5ec93926ce905a051f5704f3,2020-11-27_15h05.03.322,lexical_decision_task_MP_exp2,2020.2.5,Win32,60,,m,1,,,,,,,,0.532225,1,,,,,,157,WORD,UN,16,island,DRAGON,m,0.532225,,,,,,0.05859375,-0.40625,0,0,0,,0,13,13,216,1,
,,,,,,,,,,,,,,,,,,5ec93926ce905a051f5704f3,2020-11-27_15h05.03.322,lexical_decision_task_MP_exp2,2020.2.5,Win32,60,,m,1,,,,,,,,0.53404,1,,,,,,210,WORD,"ID",33,monkey,MONKEY,m,0.53404,,,,,,0.05859375,-0.40625,0,0,0,,0,14,14,29,1,
,,,,,,,,,,,,,,,,,,5ec93926ce905a051f5704f3,2020-11-27_15h05.03.322,lexical_decision_task_MP_exp2,2020.2.5,Win32,60,,z,1,,,,,,,,0.45079,1,,,,,,415,NW,UN,16,pathel,HIGSTA,z,0.45079,,,,,,0.05859375,-0.40625,0,0,0,,0,15,15,474,1,
,,,,,,,,,,,,,,,,,,5ec93926ce905a051f5704f3,2020-11-27_15h05.03.322,lexical_decision_task_MP_exp2,2020.2.5,Win32,60,,m,1,,,,,,,,0.7422,1,,,,,,202,WORD,"ID",33,factor,FACTOR,m,0.7422,,,,,,0.05859375,-0.40625,0,0,0,,0,16,16,21,1,
,,,,,,,,,,,,,,,,,,5ec93926ce905a051f5704f3,2020-11-27_15h05.03.322,lexical_decision_task_MP_exp2,2020.2.5,Win32,60,,m,1,,,,,,,,0.515015,1,,,,,,112,WORD,UN,33,chorus,BREATH,m,0.515015,,,,,,0.05859375,-0.40625,0,0,0,,0,17,17,171,1,
,,,,,,,,,,,,,,,,,,5ec93926ce905a051f5704f3,2020-11-27_15h05.03.322,lexical_decision_task_MP_exp2,2020.2.5,Win32,60,,m,1,,,,,,,,0.835095,1,,,,,,11,WORD,"ID",16,cruise,CRUISE,m,0.835095,,,,,,0.05859375,-0.40625,0,0,0,,0,18,18,70,1,
,,,,,,,,,,,,,,,,,,5ec93926ce905a051f5704f3,2020-11-27_15h05.03.322,lexical_decision_task_MP_exp2,2020.2.5,Win32,60,,z,1,,,,,,,,0.531385,1,,,,,,351,NW,UN,33,tringe,TIESCH,z,0.531385,,,,,,0.05859375,-0.40625,0,0,0,,0,19,19,410,1,
,,,,,,,,,,,,,,,,,,5ec93926ce905a051f5704f3,2020-11-27_15h05.03.322,lexical_decision_task_MP_exp2,2020.2.5,Win32,60,,z,1,,,,,,,,0.51678,1,,,,,,387,NW,UN,16,cragin,GRONCE,z,0.51678,,,,,,0.05859375,-0.40625,0,0,0,,0,20,20,446,1,
,,,,,,,,,,,,,,,,,,5ec93926ce905a051f5704f3,2020-11-27_15h05.03.322,lexical_decision_task_MP_exp2,2020.2.5,Win32,60,,m,1,,,,,,,,0.66911,1,,,,,,214,WORD,"ID",33,intake,INTAKE,m,0.66911,,,,,,0.05859375,-0.40625,0,0,0,,0,21,21,33,1,
,,,,,,,,,,,,,,,,,,5ec93926ce905a051f5704f3,2020-11-27_15h05.03.322,lexical_decision_task_MP_exp2,2020.2.5,Win32,60,,m,1,,,,,,,,0.7755,1,,,,,,117,WORD,UN,33,flight,BRANCH,m,0.7755,,,,,,0.05859375,-0.40625,0,0,0,,0,22,22,176,1,
,,,,,,,,,,,,,,,,,,5ec93926ce905a051f5704f3,2020-11-27_15h05.03.322,lexical_decision_task_MP_exp2,2020.2.5,Win32,60,,m,1,,,,,,,,0.524805,1,,,,,,57,WORD,"ID",16,change,CHANGE,m,0.524805,,,,,,0.05859375,-0.40625,0,0,0,,0,23,23,116,1,
,,,,,,,,,,,,,,,,,,5ec93926ce905a051f5704f3,2020-11-27_15h05.03.322,lexical_decision_task_MP_exp2,2020.2.5,Win32,60,,m,1,,,,,,,,0.538845,1,,,,,,6,WORD,"ID",16,bundle,BUNDLE,m,0.538845,,,,,,0.05859375,-0.40625,0,0,0,,0,24,24,65,1,
,,,,,,,,,,,,,,,,,,5ec93926ce905a051f5704f3,2020-11-27_15h05.03.322,lexical_decision_task_MP_exp2,2020.2.5,Win32,60,,m,1,,,,,,,,0.581,1,,,,,,74,WORD,UN,33,trophy,PLAQUE,m,0.581,,,,,,0.05859375,-0.40625,0,0,0,,0,25,25,133,1,
,,,,,,,,,,,,,,,,,,5ec93926ce905a051f5704f3,2020-11-27_15h05.03.322,lexical_decision_task_MP_exp2,2020.2.5,Win32,60,,z,1,,,,,,,,0.494955,1,,,,,,471,NW,"ID",33,nobest,NOBEST,z,0.494955,,,,,,0.05859375,-0.40625,0,0,0,,0,26,26,290,1,
,,,,,,,,,,,,,,,,,,5ec93926ce905a051f5704f3,2020-11-27_15h05.03.322,lexical_decision_task_MP_exp2,2020.2.5,Win32,60,,z,1,,,,,,,,0.470415,1,,,,,,251,NW,"ID",16,lupict,LUPICT,z,0.470415,,,,,,0.05859375,-0.40625,0,0,0,,0,27,27,310,1,
,,,,,,,,,,,,,,,,,,5ec93926ce905a051f5704f3,2020-11-27_15h05.03.322,lexical_decision_task_MP_exp2,2020.2.5,Win32,60,,m,1,,,,,,,,0.57648,1,,,,,,161,WORD,UN,16,candle,PASTOR,m,0.57648,,,,,,0.05859375,-0.40625,0,0,0,,0,28,28,220,1,
,,,,,,,,,,,,,,,,,,5ec93926ce905a051f5704f3,2020-11-27_15h05.03.322,lexical_decision_task_MP_exp2,2020.2.5,Win32,60,,z,1,,,,,,,,0.61442,1,,,,,,422,NW,"ID",33,alcoud,ALCOUD,z,0.61442,,,,,,0.05859375,-0.40625,0,0,0,,0,29,29,241,1,
,,,,,,,,,,,,,,,,,,5ec93926ce905a051f5704f3,2020-11-27_15h05.03.322,lexical_decision_task_MP_exp2,2020.2.5,Win32,60,,m,1,,,,,,,,0.768195,1,,,,,,59,WORD,"ID",16,splint,SPLINT,m,0.768195,,,,,,0.05859375,-0.40625,0,0,0,,0,30,30,118,1,
,,,,,,,,,,,,,,,,,,5ec93926ce905a051f5704f3,2020-11-27_15h05.03.322,lexical_decision_task_MP_exp2,2020.2.5,Win32,60,,z,1,,,,,,,,0.78376,1,,,,,,276,NW,"ID",16,yarmon,YARMON,z,0.78376,,,,,,0.05859375,-0.40625,0,0,0,,0,31,31,335,1,
,,,,,,,,,,,,,,,,,,5ec93926ce905a051f5704f3,2020-11-27_15h05.03.322,lexical_decision_task_MP_exp2,2020.2.5,Win32,60,,z,1,,,,,,,,0.741215,1,,,,,,306,NW,UN,33,kirafe,SOUNGE,z,0.741215,,,,,,0.05859375,-0.40625,0,0,0,,0,32,32,365,1,
,,,,,,,,,,,,,,,,,,5ec93926ce905a051f5704f3,2020-11-27_15h05.03.322,lexical_decision_task_MP_exp2,2020.2.5,Win32,60,,z,1,,,,,,,,0.73937,1,,,,,,405,NW,UN,16,nouply,FLUMNI,z,0.73937,,,,,,0.05859375,-0.40625,0,0,0,,0,33,33,464,1,
,,,,,,,,,,,,,,,,,,5ec93926ce905a051f5704f3,2020-11-27_15h05.03.322,lexical_decision_task_MP_exp2,2020.2.5,Win32,60,,z,1,,,,,,,,0.58364,1,,,,,,451,NW,"ID",33,cainky,CAINKY,z,0.58364,,,,,,0.05859375,-0.40625,0,0,0,,0,34,34,270,1,
,,,,,,,,,,,,,,,,,,5ec93926ce905a051f5704f3,2020-11-27_15h05.03.322,lexical_decision_task_MP_exp2,2020.2.5,Win32,60,,z,1,,,,,,,,0.53047,1,,,,,,385,NW,UN,16,ancust,VEIGMA,z,0.53047,,,,,,0.05859375,-0.40625,0,0,0,,0,35,35,444,1,
,,,,,,,,,,,,,,,,,,5ec93926ce905a051f5704f3,2020-11-27_15h05.03.322,lexical_decision_task_MP_exp2,2020.2.5,Win32,60,,z,1,,,,,,,,0.571555,1,,,,,,272,NW,"ID",16,damilt,DAMILT,z,0.571555,,,,,,0.05859375,-0.40625,0,0,0,,0,36,36,331,1,
,,,,,,,,,,,,,,,,,,5ec93926ce905a051f5704f3,2020-11-27_15h05.03.322,lexical_decision_task_MP_exp2,2020.2.5,Win32,60,,m,1,,,,,,,,0.49864,1,,,,,,144,WORD,UN,16,parish,SPONGE,m,0.49864,,,,,,0.05859375,-0.40625,0,0,0,,0,37,37,203,1,
,,,,,,,,,,,,,,,,,,5ec93926ce905a051f5704f3,2020-11-27_15h05.03.322,lexical_decision_task_MP_exp2,2020.2.5,Win32,60,,z,1,,,,,,,,0.590545,1,,,,,,250,NW,"ID",16,milted,MILTED,z,0.590545,,,,,,0.05859375,-0.40625,0,0,0,,0,38,38,309,1,
,,,,,,,,,,,,,,,,,,5ec93926ce905a051f5704f3,2020-11-27_15h05.03.322,lexical_decision_task_MP_exp2,2020.2.5,Win32,60,,m,1,,,,,,,,0.67766,1,,,,,,207,WORD,"ID",33,wreath,WREATH,m,0.67766,,,,,,0.05859375,-0.40625,0,0,0,,0,39,39,26,1,
,,,,,,,,,,,,,,,,,,5ec93926ce905a051f5704f3,2020-11-27_15h05.03.322,lexical_decision_task_MP_exp2,2020.2.5,Win32,60,,z,1,,,,,,,,0.663935,1,,,,,,452,NW,"ID",33,surden,SURDEN,z,0.663935,,,,,,0.05859375,-0.40625,0,0,0,,0,40,40,271,1,
,,,,,,,,,,,,,,,,,,5ec93926ce905a051f5704f3,2020-11-27_15h05.03.322,lexical_decision_task_MP_exp2,2020.2.5,Win32,60,,z,1,,,,,,,,0.517035,1,,,,,,330,NW,UN,33,gilfew,KENSOM,z,0.517035,,,,,,0.05859375,-0.40625,0,0,0,,0,41,41,389,1,
,,,,,,,,,,,,,,,,,,5ec93926ce905a051f5704f3,2020-11-27_15h05.03.322,lexical_decision_task_MP_exp2,2020.2.5,Win32,60,,z,1,,,,,,,,0.517995,1,,,,,,360,NW,UN,33,fainch,DESORY,z,0.517995,,,,,,0.05859375,-0.40625,0,0,0,,0,42,42,419,1,
,,,,,,,,,,,,,,,,,,5ec93926ce905a051f5704f3,2020-11-27_15h05.03.322,lexical_decision_task_MP_exp2,2020.2.5,Win32,60,,m,1,,,,,,,,0.73553,1,,,,,,208,WORD,"ID",33,hockey,HOCKEY,m,0.73553,,,,,,0.05859375,-0.40625,0,0,0,,0,43,43,27,1,
,,,,,,,,,,,,,,,,,,5ec93926ce905a051f5704f3,2020-11-27_15h05.03.322,lexical_decision_task_MP_exp2,2020.2.5,Win32,60,,z,1,,,,,,,,0.548225,1,,,,,,316,NW,UN,33,worbal,SCREGM,z,0.548225,,,,,,0.05859375,-0.40625,0,0,0,,0,44,44,375,1,
,,,,,,,,,,,,,,,,,,5ec93926ce905a051f5704f3,2020-11-27_15h05.03.322,lexical_decision_task_MP_exp2,2020.2.5,Win32,60,,z,1,,,,,,,,0.704525,1,,,,,,243,NW,"ID",16,musied,MUSIED,z,0.704525,,,,,,0.05859375,-0.40625,0,0,0,,0,45,45,302,1,
,,,,,,,,,,,,,,,,,,5ec93926ce905a051f5704f3,2020-11-27_15h05.03.322,lexical_decision_task_MP_exp2,2020.2.5,Win32,60,,z,1,,,,,,,,0.606495,1,,,,,,298,NW,"ID",16,piergy,PIERGY,z,0.606495,,,,,,0.05859375,-0.40625,0,0,0,,0,46,46,357,1,
,,,,,,,,,,,,,,,,,,5ec93926ce905a051f5704f3,2020-11-27_15h05.03.322,lexical_decision_task_MP_exp2,2020.2.5,Win32,60,,z,1,,,,,,,,0.66569,1,,,,,,438,NW,"ID",33,baitch,BAITCH,z,0.66569,,,,,,0.05859375,-0.40625,0,0,0,,0,47,47,257,1,
,,,,,,,,,,,,,,,,,,5ec93926ce905a051f5704f3,2020-11-27_15h05.03.322,lexical_decision_task_MP_exp2,2020.2.5,Win32,60,,m,1,,,,,,,,0.54901,1,,,,,,163,WORD,UN,16,market,STRING,m,0.54901,,,,,,0.05859375,-0.40625,0,0,0,,0,48,48,222,1,
,,,,,,,,,,,,,,,,,,5ec93926ce905a051f5704f3,2020-11-27_15h05.03.322,lexical_decision_task_MP_exp2,2020.2.5,Win32,60,,z,1,,,,,,,,0.751635,1,,,,,,433,NW,"ID",33,drance,DRANCE,z,0.751635,,,,,,0.05859375,-0.40625,0,0,0,,0,49,49,252,1,
,,,,,,,,,,,,,,,,,,5ec93926ce905a051f5704f3,2020-11-27_15h05.03.322,lexical_decision_task_MP_exp2,2020.2.5,Win32,60,,z,1,,,,,,,,0.58972,1,,,,,,408,NW,UN,16,elopia,HURNIA,z,0.58972,,,,,,0.05859375,-0.40625,0,0,0,,0,50,50,467,1,
,,,,,,,,,,,,,,,,,,5ec93926ce905a051f5704f3,2020-11-27_15h05.03.322,lexical_decision_task_MP_exp2,2020.2.5,Win32,60,,z,1,,,,,,,,0.558605,1,,,,,,346,NW,UN,33,kerift,SAUDIC,z,0.558605,,,,,,0.05859375,-0.40625,0,0,0,,0,51,51,405,1,
,,,,,,,,,,,,,,,,,,5ec93926ce905a051f5704f3,2020-11-27_15h05.03.322,lexical_decision_task_MP_exp2,2020.2.5,Win32,60,,z,1,,,,,,,,0.538535,1,,,,,,458,NW,"ID",33,barcet,BARCET,z,0.538535,,,,,,0.05859375,-0.40625,0,0,0,,0,52,52,277,1,
,,,,,,,,,,,,,,,,,,5ec93926ce905a051f5704f3,2020-11-27_15h05.03.322,lexical_decision_task_MP_exp2,2020.2.5,Win32,60,,z,1,,,,,,,,0.5863,1,,,,,,292,NW,"ID",16,ablint,ABLINT,z,0.5863,,,,,,0.05859375,-0.40625,0,0,0,,0,53,53,351,1,
,,,,,,,,,,,,,,,,,,5ec93926ce905a051f5704f3,2020-11-27_15h05.03.322,lexical_decision_task_MP_exp2,2020.2.5,Win32,60,,z,1,,,,,,,,0.58638,1,,,,,,416,NW,UN,16,earoud,PATHEL,z,0.58638,,,,,,0.05859375,-0.40625,0,0,0,,0,54,54,475,1,
,,,,,,,,,,,,,,,,,,5ec93926ce905a051f5704f3,2020-11-27_15h05.03.322,lexical_decision_task_MP_exp2,2020.2.5,Win32,60,,m,1,,,,,,,,0.5491,1,,,,,,193,WORD,"ID",33,object,OBJECT,m,0.5491,,,,,,0.05859375,-0.40625,0,0,0,,0,55,55,12,1,
,,,,,,,,,,,,,,,,,,5ec93926ce905a051f5704f3,2020-11-27_15h05.03.322,lexical_decision_task_MP_exp2,2020.2.5,Win32,60,,m,1,,,,,,,,0.54399,1,,,,,,221,WORD,"ID",33,mascot,MASCOT,m,0.54399,,,,,,0.05859375,-0.40625,0,0,0,,0,56,56,40,1,
,,,,,,,,,,,,,,,,,,5ec93926ce905a051f5704f3,2020-11-27_15h05.03.322,lexical_decision_task_MP_exp2,2020.2.5,Win32,60,,m,1,,,,,,,,0.502435,1,,,,,,174,WORD,UN,16,fabric,TURKEY,m,0.502435,,,,,,0.05859375,-0.40625,0,0,0,,0,57,57,233,1,
,,,,,,,,,,,,,,,,,,5ec93926ce905a051f5704f3,2020-11-27_15h05.03.322,lexical_decision_task_MP_exp2,2020.2.5,Win32,60,,m,1,,,,,,,,0.53771,1,,,,,,187,WORD,"ID",33,course,COURSE,m,0.53771,,,,,,0.05859375,-0.40625,0,0,0,,0,58,58,6,1,
,,,,,,,,,,,,,,,,,,5ec93926ce905a051f5704f3,2020-11-27_15h05.03.322,lexical_decision_task_MP_exp2,2020.2.5,Win32,60,,z,1,,,,,,,,0.5068,1,,,,,,412,NW,UN,16,equats,JILUER,z,0.5068,,,,,,0.05859375,-0.40625,0,0,0,,0,59,59,471,1,
,,,,,,,,,,,,,,,,,,5ec93926ce905a051f5704f3,2020-11-27_15h05.03.322,lexical_decision_task_MP_exp2,2020.2.5,Win32,60,,z,1,,,,,,,,0.53518,1,,,,,,472,NW,"ID",33,cigney,CIGNEY,z,0.53518,,,,,,0.05859375,-0.40625,0,0,0,,0,60,60,291,1,
,,,,,,,,,,,,,,,,,,5ec93926ce905a051f5704f3,2020-11-27_15h05.03.322,lexical_decision_task_MP_exp2,2020.2.5,Win32,60,,m,1,,,,,,,,0.555195,1,,,,,,138,WORD,UN,16,debris,MELODY,m,0.555195,,,,,,0.05859375,-0.40625,0,0,0,,0,61,61,197,1,
,,,,,,,,,,,,,,,,,,5ec93926ce905a051f5704f3,2020-11-27_15h05.03.322,lexical_decision_task_MP_exp2,2020.2.5,Win32,60,,m,1,,,,,,,,0.57348,1,,,,,,52,WORD,"ID",16,impose,IMPOSE,m,0.57348,,,,,,0.05859375,-0.40625,0,0,0,,0,62,62,111,1,
,,,,,,,,,,,,,,,,,,5ec93926ce905a051f5704f3,2020-11-27_15h05.03.322,lexical_decision_task_MP_exp2,2020.2.5,Win32,60,,m,1,,,,,,,,0.50468,1,,,,,,219,WORD,"ID",33,bucket,BUCKET,m,0.50468,,,,,,0.05859375,-0.40625,0,0,0,,0,63,63,38,1,
,,,,,,,,,,,,,,,,,,5ec93926ce905a051f5704f3,2020-11-27_15h05.03.322,lexical_decision_task_MP_exp2,2020.2.5,Win32,60,,m,1,,,,,,,,0.48171,1,,,,,,175,WORD,UN,16,strife,FABRIC,m,0.48171,,,,,,0.05859375,-0.40625,0,0,0,,0,64,64,234,1,
,,,,,,,,,,,,,,,,,,5ec93926ce905a051f5704f3,2020-11-27_15h05.03.322,lexical_decision_task_MP_exp2,2020.2.5,Win32,60,,m,1,,,,,,,,0.59144,1,,,,,,168,WORD,UN,16,genius,ANSWER,m,0.59144,,,,,,0.05859375,-0.40625,0,0,0,,0,65,65,227,1,
,,,,,,,,,,,,,,,,,,5ec93926ce905a051f5704f3,2020-11-27_15h05.03.322,lexical_decision_task_MP_exp2,2020.2.5,Win32,60,,m,1,,,,,,,,0.622975,1,,,,,,65,WORD,UN,33,gospel,SYMBOL,m,0.622975,,,,,,0.05859375,-0.40625,0,0,0,,0,66,66,124,1,
,,,,,,,,,,,,,,,,,,5ec93926ce905a051f5704f3,2020-11-27_15h05.03.322,lexical_decision_task_MP_exp2,2020.2.5,Win32,60,,m,1,,,,,,,,0.54854,1,,,,,,186,WORD,"ID",33,portal,PORTAL,m,0.54854,,,,,,0.05859375,-0.40625,0,0,0,,0,67,67,5,1,
,,,,,,,,,,,,,,,,,,5ec93926ce905a051f5704f3,2020-11-27_15h05.03.322,lexical_decision_task_MP_exp2,2020.2.5,Win32,60,,z,0,,,,,,,,0.530035,0,,,,,,178,WORD,UN,16,basket,INFORM,m,0.530035,,,,,,0.05859375,-0.40625,0,0,0,,0,68,68,237,1,
,,,,,,,,,,,,,,,,,,5ec93926ce905a051f5704f3,2020-11-27_15h05.03.322,lexical_decision_task_MP_exp2,2020.2.5,Win32,60,,m,1,,,,,,,,0.782505,1,,,,,,111,WORD,UN,33,breath,INDUCE,m,0.782505,,,,,,0.05859375,-0.40625,0,0,0,,0,69,69,170,1,
,,,,,,,,,,,,,,,,,,5ec93926ce905a051f5704f3,2020-11-27_15h05.03.322,lexical_decision_task_MP_exp2,2020.2.5,Win32,60,,m,1,,,,,,,,0.50051,1,,,,,,24,WORD,"ID",16,praise,PRAISE,m,0.50051,,,,,,0.05859375,-0.40625,0,0,0,,0,70,70,83,1,
,,,,,,,,,,,,,,,,,,5ec93926ce905a051f5704f3,2020-11-27_15h05.03.322,lexical_decision_task_MP_exp2,2020.2.5,Win32,60,,m,1,,,,,,,,0.54852,1,,,,,,123,WORD,UN,16,blouse,STRIKE,m,0.54852,,,,,,0.05859375,-0.40625,0,0,0,,0,71,71,182,1,
,,,,,,,,,,,,,,,,,,5ec93926ce905a051f5704f3,2020-11-27_15h05.03.322,lexical_decision_task_MP_exp2,2020.2.5,Win32,60,,m,1,,,,,,,,0.59015,1,,,,,,136,WORD,UN,16,finger,BLEACH,m,0.59015,,,,,,0.05859375,-0.40625,0,0,0,,0,72,72,195,1,
,,,,,,,,,,,,,,,,,,5ec93926ce905a051f5704f3,2020-11-27_15h05.03.322,lexical_decision_task_MP_exp2,2020.2.5,Win32,60,,z,1,,,,,,,,0.567555,1,,,,,,418,NW,UN,16,slount,SUIDLE,z,0.567555,,,,,,0.05859375,-0.40625,0,0,0,,0,73,73,477,1,
,,,,,,,,,,,,,,,,,,5ec93926ce905a051f5704f3,2020-11-27_15h05.03.322,lexical_decision_task_MP_exp2,2020.2.5,Win32,60,,z,1,,,,,,,,0.50647,1,,,,,,356,NW,UN,33,derain,OTHNIS,z,0.50647,,,,,,0.05859375,-0.40625,0,0,0,,0,74,74,415,1,
,,,,,,,,,,,,,,,,,,5ec93926ce905a051f5704f3,2020-11-27_15h05.03.322,lexical_decision_task_MP_exp2,2020.2.5,Win32,60,,m,1,,,,,,,,0.617945,1,,,,,,119,WORD,UN,33,strain,SPIDER,m,0.617945,,,,,,0.05859375,-0.40625,0,0,0,,0,75,75,178,1,
,,,,,,,,,,,,,,,,,,5ec93926ce905a051f5704f3,2020-11-27_15h05.03.322,lexical_decision_task_MP_exp2,2020.2.5,Win32,60,,m,1,,,,,,,,0.597115,1,,,,,,18,WORD,"ID",16,humble,HUMBLE,m,0.597115,,,,,,0.05859375,-0.40625,0,0,0,,0,76,76,77,1,
,,,,,,,,,,,,,,,,,,5ec93926ce905a051f5704f3,2020-11-27_15h05.03.322,lexical_decision_task_MP_exp2,2020.2.5,Win32,60,,m,1,,,,,,,,0.58034,1,,,,,,28,WORD,"ID",16,comedy,COMEDY,m,0.58034,,,,,,0.05859375,-0.40625,0,0,0,,0,77,77,87,1,
,,,,,,,,,,,,,,,,,,5ec93926ce905a051f5704f3,2020-11-27_15h05.03.322,lexical_decision_task_MP_exp2,2020.2.5,Win32,60,,z,1,,,,,,,,0.647045,1,,,,,,369,NW,UN,16,sleact,WRONCH,z,0.647045,,,,,,0.05859375,-0.40625,0,0,0,,0,78,78,428,1,
,,,,,,,,,,,,,,,,,,5ec93926ce905a051f5704f3,2020-11-27_15h05.03.322,lexical_decision_task_MP_exp2,2020.2.5,Win32,60,,z,1,,,,,,,,0.50553,1,,,,,,406,NW,UN,16,suiver,NOUPLY,z,0.50553,,,,,,0.05859375,-0.40625,0,0,0,,0,79,79,465,1,
,,,,,,,,,,,,,,,,,,5ec93926ce905a051f5704f3,2020-11-27_15h05.03.322,lexical_decision_task_MP_exp2,2020.2.5,Win32,60,,z,1,,,,,,,,0.533845,1,,,,,,353,NW,UN,33,virlex,CLUREY,z,0.533845,,,,,,0.05859375,-0.40625,0,0,0,,0,80,80,412,1,
,,,,,,,,,,,,,,,,,,5ec93926ce905a051f5704f3,2020-11-27_15h05.03.322,lexical_decision_task_MP_exp2,2020.2.5,Win32,60,,m,1,,,,,,,,0.53827,1,,,,,,158,WORD,UN,16,detail,ISLAND,m,0.53827,,,,,,0.05859375,-0.40625,0,0,0,,0,81,81,217,1,
,,,,,,,,,,,,,,,,,,5ec93926ce905a051f5704f3,2020-11-27_15h05.03.322,lexical_decision_task_MP_exp2,2020.2.5,Win32,60,,z,1,,,,,,,,0.616235,1,,,,,,248,NW,"ID",16,strole,STROLE,z,0.616235,,,,,,0.05859375,-0.40625,0,0,0,,0,82,82,307,1,
,,,,,,,,,,,,,,,,,,5ec93926ce905a051f5704f3,2020-11-27_15h05.03.322,lexical_decision_task_MP_exp2,2020.2.5,Win32,60,,z,1,,,,,,,,0.607725,1,,,,,,460,NW,"ID",33,mingar,MINGAR,z,0.607725,,,,,,0.05859375,-0.40625,0,0,0,,0,83,83,279,1,
,,,,,,,,,,,,,,,,,,5ec93926ce905a051f5704f3,2020-11-27_15h05.03.322,lexical_decision_task_MP_exp2,2020.2.5,Win32,60,,m,1,,,,,,,,0.583555,1,,,,,,60,WORD,"ID",16,pencil,PENCIL,m,0.583555,,,,,,0.05859375,-0.40625,0,0,0,,0,84,84,119,1,
,,,,,,,,,,,,,,,,,,5ec93926ce905a051f5704f3,2020-11-27_15h05.03.322,lexical_decision_task_MP_exp2,2020.2.5,Win32,60,,m,1,,,,,,,,0.58158,1,,,,,,230,WORD,"ID",33,fringe,FRINGE,m,0.58158,,,,,,0.05859375,-0.40625,0,0,0,,0,85,85,49,1,
,,,,,,,,,,,,,,,,,,5ec93926ce905a051f5704f3,2020-11-27_15h05.03.322,lexical_decision_task_MP_exp2,2020.2.5,Win32,60,,z,1,,,,,,,,0.801115,1,,,,,,284,NW,"ID",16,shaple,SHAPLE,z,0.801115,,,,,,0.05859375,-0.40625,0,0,0,,0,86,86,343,1,
,,,,,,,,,,,,,,,,,,5ec93926ce905a051f5704f3,2020-11-27_15h05.03.322,lexical_decision_task_MP_exp2,2020.2.5,Win32,60,,m,1,,,,,,,,0.570565,1,,,,,,103,WORD,UN,33,studio,BOUNCE,m,0.570565,,,,,,0.05859375,-0.40625,0,0,0,,0,87,87,162,1,
,,,,,,,,,,,,,,,,,,5ec93926ce905a051f5704f3,2020-11-27_15h05.03.322,lexical_decision_task_MP_exp2,2020.2.5,Win32,60,,m,1,,,,,,,,0.548905,1,,,,,,194,WORD,"ID",33,absent,ABSENT,m,0.548905,,,,,,0.05859375,-0.40625,0,0,0,,0,88,88,13,1,
,,,,,,,,,,,,,,,,,,5ec93926ce905a051f5704f3,2020-11-27_15h05.03.322,lexical_decision_task_MP_exp2,2020.2.5,Win32,60,,m,1,,,,,,,,0.63461,1,,,,,,240,WORD,"ID",33,forest,FOREST,m,0.63461,,,,,,0.05859375,-0.40625,0,0,0,,0,89,89,59,1,
,,,,,,,,,,,,,,,,,,5ec93926ce905a051f5704f3,2020-11-27_15h05.03.322,lexical_decision_task_MP_exp2,2020.2.5,Win32,60,,m,1,,,,,,,,0.54813,1,,,,,,200,WORD,"ID",33,beacon,BEACON,m,0.54813,,,,,,0.05859375,-0.40625,0,0,0,,0,90,90,19,1,
,,,,,,,,,,,,,,,,,,5ec93926ce905a051f5704f3,2020-11-27_15h05.03.322,lexical_decision_task_MP_exp2,2020.2.5,Win32,60,,m,1,,,,,,,,0.58871,1,,,,,,171,WORD,UN,16,patrol,DEPART,m,0.58871,,,,,,0.05859375,-0.40625,0,0,0,,0,91,91,230,1,
,,,,,,,,,,,,,,,,,,5ec93926ce905a051f5704f3,2020-11-27_15h05.03.322,lexical_decision_task_MP_exp2,2020.2.5,Win32,60,,z,1,,,,,,,,0.456345,1,,,,,,244,NW,"ID",16,eatric,EATRIC,z,0.456345,,,,,,0.05859375,-0.40625,0,0,0,,0,92,92,303,1,
,,,,,,,,,,,,,,,,,,5ec93926ce905a051f5704f3,2020-11-27_15h05.03.322,lexical_decision_task_MP_exp2,2020.2.5,Win32,60,,m,1,,,,,,,,0.548695,1,,,,,,150,WORD,UN,16,mystic,RANDOM,m,0.548695,,,,,,0.05859375,-0.40625,0,0,0,,0,93,93,209,1,
,,,,,,,,,,,,,,,,,,5ec93926ce905a051f5704f3,2020-11-27_15h05.03.322,lexical_decision_task_MP_exp2,2020.2.5,Win32,60,,z,1,,,,,,,,0.63661,1,,,,,,465,NW,"ID",33,whivex,WHIVEX,z,0.63661,,,,,,0.05859375,-0.40625,0,0,0,,0,94,94,284,1,
,,,,,,,,,,,,,,,,,,5ec93926ce905a051f5704f3,2020-11-27_15h05.03.322,lexical_decision_task_MP_exp2,2020.2.5,Win32,60,,z,1,,,,,,,,0.51595,1,,,,,,478,NW,"ID",33,acrise,ACRISE,z,0.51595,,,,,,0.05859375,-0.40625,0,0,0,,0,95,95,297,1,
,,,,,,,,,,,,,,,,,,5ec93926ce905a051f5704f3,2020-11-27_15h05.03.322,lexical_decision_task_MP_exp2,2020.2.5,Win32,60,,z,1,,,,,,,,0.605455,1,,,,,,328,NW,UN,33,yarike,BROAKE,z,0.605455,,,,,,0.05859375,-0.40625,0,0,0,,0,96,96,387,1,
,,,,,,,,,,,,,,,,,,5ec93926ce905a051f5704f3,2020-11-27_15h05.03.322,lexical_decision_task_MP_exp2,2020.2.5,Win32,60,,m,1,,,,,,,,0.549425,1,,,,,,223,WORD,"ID",33,kidney,KIDNEY,m,0.549425,,,,,,0.05859375,-0.40625,0,0,0,,0,97,97,42,1,
,,,,,,,,,,,,,,,,,,5ec93926ce905a051f5704f3,2020-11-27_15h05.03.322,lexical_decision_task_MP_exp2,2020.2.5,Win32,60,,z,1,,,,,,,,0.77042,1,,,,,,319,NW,UN,33,jockal,ZOMBER,z,0.77042,,,,,,0.05859375,-0.40625,0,0,0,,0,98,98,378,1,
,,,,,,,,,,,,,,,,,,5ec93926ce905a051f5704f3,2020-11-27_15h05.03.322,lexical_decision_task_MP_exp2,2020.2.5,Win32,60,,m,1,,,,,,,,0.530865,1,,,,,,25,WORD,"ID",16,domain,DOMAIN,m,0.530865,,,,,,0.05859375,-0.40625,0,0,0,,0,99,99,84,1,
,,,,,,,,,,,,,,,,,,5ec93926ce905a051f5704f3,2020-11-27_15h05.03.322,lexical_decision_task_MP_exp2,2020.2.5,Win32,60,,m,1,,,,,,,,0.735905,1,,,,,,225,WORD,"ID",33,vulgar,VULGAR,m,0.735905,,,,,,0.05859375,-0.40625,0,0,0,,0,100,100,44,1,
,,,,,,,,,,,,,,,,,,5ec93926ce905a051f5704f3,2020-11-27_15h05.03.322,lexical_decision_task_MP_exp2,2020.2.5,Win32,60,,z,1,,,,,,,,0.722535,1,,,,,,332,NW,UN,33,catrie,VANGUE,z,0.722535,,,,,,0.05859375,-0.40625,0,0,0,,0,101,101,391,1,
,,,,,,,,,,,,,,,,,,5ec93926ce905a051f5704f3,2020-11-27_15h05.03.322,lexical_decision_task_MP_exp2,2020.2.5,Win32,60,,m,1,,,,,,,,0.614025,1,,,,,,131,WORD,UN,16,strong,QUENCH,m,0.614025,,,,,,0.05859375,-0.40625,0,0,0,,0,102,102,190,1,
,,,,,,,,,,,,,,,,,,5ec93926ce905a051f5704f3,2020-11-27_15h05.03.322,lexical_decision_task_MP_exp2,2020.2.5,Win32,60,,z,1,,,,,,,,0.733495,1,,,,,,342,NW,UN,33,aimosy,RANDOW,z,0.733495,,,,,,0.05859375,-0.40625,0,0,0,,0,103,103,401,1,
,,,,,,,,,,,,,,,,,,5ec93926ce905a051f5704f3,2020-11-27_15h05.03.322,lexical_decision_task_MP_exp2,2020.2.5,Win32,60,,z,1,,,,,,,,0.564665,1,,,,,,273,NW,"ID",16,sortel,SORTEL,z,0.564665,,,,,,0.05859375,-0.40625,0,0,0,,0,104,104,332,1,
,,,,,,,,,,,,,,,,,,5ec93926ce905a051f5704f3,2020-11-27_15h05.03.322,lexical_decision_task_MP_exp2,2020.2.5,Win32,60,,m,1,,,,,,,,0.565055,1,,,,,,218,WORD,"ID",33,shrink,SHRINK,m,0.565055,,,,,,0.05859375,-0.40625,0,0,0,,0,105,105,37,1,
,,,,,,,,,,,,,,,,,,5ec93926ce905a051f5704f3,2020-11-27_15h05.03.322,lexical_decision_task_MP_exp2,2020.2.5,Win32,60,,m,1,,,,,,,,0.566005,1,,,,,,167,WORD,UN,16,answer,DESIGN,m,0.566005,,,,,,0.05859375,-0.40625,0,0,0,,0,106,106,226,1,
,,,,,,,,,,,,,,,,,,5ec93926ce905a051f5704f3,2020-11-27_15h05.03.322,lexical_decision_task_MP_exp2,2020.2.5,Win32,60,,z,1,,,,,,,,0.521645,1,,,,,,365,NW,UN,16,toshel,GUAIRT,z,0.521645,,,,,,0.05859375,-0.40625,0,0,0,,0,107,107,424,1,
,,,,,,,,,,,,,,,,,,5ec93926ce905a051f5704f3,2020-11-27_15h05.03.322,lexical_decision_task_MP_exp2,2020.2.5,Win32,60,,z,1,,,,,,,,0.657645,1,,,,,,442,NW,"ID",33,aboune,ABOUNE,z,0.657645,,,,,,0.05859375,-0.40625,0,0,0,,0,108,108,261,1,
,,,,,,,,,,,,,,,,,,5ec93926ce905a051f5704f3,2020-11-27_15h05.03.322,lexical_decision_task_MP_exp2,2020.2.5,Win32,60,,m,1,,,,,,,,0.530675,1,,,,,,110,WORD,UN,33,induce,POLITE,m,0.530675,,,,,,0.05859375,-0.40625,0,0,0,,0,109,109,169,1,
,,,,,,,,,,,,,,,,,,5ec93926ce905a051f5704f3,2020-11-27_15h05.03.322,lexical_decision_task_MP_exp2,2020.2.5,Win32,60,,m,1,,,,,,,,0.87952,1,,,,,,166,WORD,UN,16,design,STARCH,m,0.87952,,,,,,0.05859375,-0.40625,0,0,0,,0,110,110,225,1,
,,,,,,,,,,,,,,,,,,5ec93926ce905a051f5704f3,2020-11-27_15h05.03.322,lexical_decision_task_MP_exp2,2020.2.5,Win32,60,,m,1,,,,,,,,0.573735,1,,,,,,109,WORD,UN,33,polite,WONDER,m,0.573735,,,,,,0.05859375,-0.40625,0,0,0,,0,111,111,168,1,
,,,,,,,,,,,,,,,,,,5ec93926ce905a051f5704f3,2020-11-27_15h05.03.322,lexical_decision_task_MP_exp2,2020.2.5,Win32,60,,m,1,,,,,,,,0.5595,1,,,,,,4,WORD,"ID",16,trench,TRENCH,m,0.5595,,,,,,0.05859375,-0.40625,0,0,0,,0,112,112,63,1,
,,,,,,,,,,,,,,,,,,5ec93926ce905a051f5704f3,2020-11-27_15h05.03.322,lexical_decision_task_MP_exp2,2020.2.5,Win32,60,,z,1,,,,,,,,0.52384,1,,,,,,480,NW,"ID",33,robuly,ROBULY,z,0.52384,,,,,,0.05859375,-0.40625,0,0,0,,0,113,113,299,1,
,,,,,,,,,,,,,,,,,,5ec93926ce905a051f5704f3,2020-11-27_15h05.03.322,lexical_decision_task_MP_exp2,2020.2.5,Win32,60,,m,1,,,,,,,,0.55599,1,,,,,,231,WORD,"ID",33,export,EXPORT,m,0.55599,,,,,,0.05859375,-0.40625,0,0,0,,0,114,114,50,1,
,,,,,,,,,,,,,,,,,,5ec93926ce905a051f5704f3,2020-11-27_15h05.03.322,lexical_decision_task_MP_exp2,2020.2.5,Win32,60,,m,1,,,,,,,,0.56438,1,,,,,,220,WORD,"ID",33,voyage,VOYAGE,m,0.56438,,,,,,0.05859375,-0.40625,0,0,0,,0,115,115,39,1,
,,,,,,,,,,,,,,,,,,5ec93926ce905a051f5704f3,2020-11-27_15h05.03.322,lexical_decision_task_MP_exp2,2020.2.5,Win32,60,,z,1,,,,,,,,0.565335,1,,,,,,313,NW,UN,33,sprine,PAURSE,z,0.565335,,,,,,0.05859375,-0.40625,0,0,0,,0,116,116,372,1,
,,,,,,,,,,,,,,,,,,5ec93926ce905a051f5704f3,2020-11-27_15h05.03.322,lexical_decision_task_MP_exp2,2020.2.5,Win32,60,,z,1,,,,,,,,0.6348,1,,,,,,271,NW,"ID",16,aubrid,AUBRID,z,0.6348,,,,,,0.05859375,-0.40625,0,0,0,,0,117,117,330,1,
,,,,,,,,,,,,,,,,,,5ec93926ce905a051f5704f3,2020-11-27_15h05.03.322,lexical_decision_task_MP_exp2,2020.2.5,Win32,60,,z,1,,,,,,,,0.50851,1,,,,,,446,NW,"ID",33,runamo,RUNAMO,z,0.50851,,,,,,0.05859375,-0.40625,0,0,0,,0,118,118,265,1,
,,,,,,,,,,,,,,,,,,5ec93926ce905a051f5704f3,2020-11-27_15h05.03.322,lexical_decision_task_MP_exp2,2020.2.5,Win32,60,,z,1,,,,,,,,0.62206,1,,,,,,301,NW,UN,33,miluer,FAINCH,z,0.62206,,,,,,0.05859375,-0.40625,0,0,0,,0,119,119,360,1,
,,,,,,,,,,,,,,,,,,5ec93926ce905a051f5704f3,2020-11-27_15h05.03.322,lexical_decision_task_MP_exp2,2020.2.5,Win32,60,,m,1,,,,,,,,0.634315,1,,,,,,115,WORD,UN,33,tumble,GUITAR,m,0.634315,,,,,,0.0546875,-0.4140625,1,0,0,,0,120,120,174,1,break_done_button
,,,,,,,,,,,,,,,,,,5ec93926ce905a051f5704f3,2020-11-27_15h05.03.322,lexical_decision_task_MP_exp2,2020.2.5,Win32,60,,m,1,,,,,,,,0.887445,1,,,,,,121,WORD,UN,16,linger,THRIVE,m,0.887445,,,,,,0.0546875,-0.4140625,0,0,0,,0,121,121,180,1,
,,,,,,,,,,,,,,,,,,5ec93926ce905a051f5704f3,2020-11-27_15h05.03.322,lexical_decision_task_MP_exp2,2020.2.5,Win32,60,,z,1,,,,,,,,0.543295,1,,,,,,367,NW,UN,16,hornal,SLIQUE,z,0.543295,,,,,,0.0546875,-0.4140625,0,0,0,,0,122,122,426,1,
,,,,,,,,,,,,,,,,,,5ec93926ce905a051f5704f3,2020-11-27_15h05.03.322,lexical_decision_task_MP_exp2,2020.2.5,Win32,60,,z,1,,,,,,,,0.538895,1,,,,,,324,NW,UN,33,thruse,STEIKH,z,0.538895,,,,,,0.0546875,-0.4140625,0,0,0,,0,123,123,383,1,
,,,,,,,,,,,,,,,,,,5ec93926ce905a051f5704f3,2020-11-27_15h05.03.322,lexical_decision_task_MP_exp2,2020.2.5,Win32,60,,z,1,,,,,,,,0.60166,1,,,,,,409,NW,UN,16,tunory,ELOPIA,z,0.60166,,,,,,0.0546875,-0.4140625,0,0,0,,0,124,124,468,1,
,,,,,,,,,,,,,,,,,,5ec93926ce905a051f5704f3,2020-11-27_15h05.03.322,lexical_decision_task_MP_exp2,2020.2.5,Win32,60,,m,1,,,,,,,,0.46226,1,,,,,,197,WORD,"ID",33,stream,STREAM,m,0.46226,,,,,,0.0546875,-0.4140625,0,0,0,,0,125,125,16,1,
,,,,,,,,,,,,,,,,,,5ec93926ce905a051f5704f3,2020-11-27_15h05.03.322,lexical_decision_task_MP_exp2,2020.2.5,Win32,60,,z,1,,,,,,,,0.50342,1,,,,,,297,NW,"ID",16,fertic,FERTIC,z,0.50342,,,,,,0.0546875,-0.4140625,0,0,0,,0,126,126,356,1,
,,,,,,,,,,,,,,,,,,5ec93926ce905a051f5704f3,2020-11-27_15h05.03.322,lexical_decision_task_MP_exp2,2020.2.5,Win32,60,,m,1,,,,,,,,0.457845,1,,,,,,73,WORD,UN,33,plaque,SOURCE,m,0.457845,,,,,,0.0546875,-0.4140625,0,0,0,,0,127,127,132,1,
,,,,,,,,,,,,,,,,,,5ec93926ce905a051f5704f3,2020-11-27_15h05.03.322,lexical_decision_task_MP_exp2,2020.2.5,Win32,60,,z,1,,,,,,,,0.51638,1,,,,,,474,NW,"ID",33,hablin,HABLIN,z,0.51638,,,,,,0.0546875,-0.4140625,0,0,0,,0,128,128,293,1,
,,,,,,,,,,,,,,,,,,5ec93926ce905a051f5704f3,2020-11-27_15h05.03.322,lexical_decision_task_MP_exp2,2020.2.5,Win32,60,,z,1,,,,,,,,0.52772,1,,,,,,383,NW,UN,16,guesco,AUNGRE,z,0.52772,,,,,,0.0546875,-0.4140625,0,0,0,,0,129,129,442,1,
,,,,,,,,,,,,,,,,,,5ec93926ce905a051f5704f3,2020-11-27_15h05.03.322,lexical_decision_task_MP_exp2,2020.2.5,Win32,60,,z,1,,,,,,,,0.504245,1,,,,,,259,NW,"ID",16,soudal,SOUDAL,z,0.504245,,,,,,0.0546875,-0.4140625,0,0,0,,0,130,130,318,1,
,,,,,,,,,,,,,,,,,,5ec93926ce905a051f5704f3,2020-11-27_15h05.03.322,lexical_decision_task_MP_exp2,2020.2.5,Win32,60,,m,1,,,,,,,,0.531865,1,,,,,,7,WORD,"ID",16,anchor,ANCHOR,m,0.531865,,,,,,0.0546875,-0.4140625,0,0,0,,0,131,131,66,1,
,,,,,,,,,,,,,,,,,,5ec93926ce905a051f5704f3,2020-11-27_15h05.03.322,lexical_decision_task_MP_exp2,2020.2.5,Win32,60,,z,1,,,,,,,,0.525045,1,,,,,,440,NW,"ID",33,saride,SARIDE,z,0.525045,,,,,,0.0546875,-0.4140625,0,0,0,,0,132,132,259,1,
,,,,,,,,,,,,,,,,,,5ec93926ce905a051f5704f3,2020-11-27_15h05.03.322,lexical_decision_task_MP_exp2,2020.2.5,Win32,60,,z,1,,,,,,,,0.52229,1,,,,,,337,NW,UN,33,wreash,REJOLS,z,0.52229,,,,,,0.0546875,-0.4140625,0,0,0,,0,133,133,396,1,
,,,,,,,,,,,,,,,,,,5ec93926ce905a051f5704f3,2020-11-27_15h05.03.322,lexical_decision_task_MP_exp2,2020.2.5,Win32,60,,z,1,,,,,,,,0.516945,1,,,,,,403,NW,UN,16,cluirm,BRUATS,z,0.516945,,,,,,0.0546875,-0.4140625,0,0,0,,0,134,134,462,1,
,,,,,,,,,,,,,,,,,,5ec93926ce905a051f5704f3,2020-11-27_15h05.03.322,lexical_decision_task_MP_exp2,2020.2.5,Win32,60,,m,1,,,,,,,,0.49606,1,,,,,,14,WORD,"ID",16,almost,ALMOST,m,0.49606,,,,,,0.0546875,-0.4140625,0,0,0,,0,135,135,73,1,
,,,,,,,,,,,,,,,,,,5ec93926ce905a051f5704f3,2020-11-27_15h05.03.322,lexical_decision_task_MP_exp2,2020.2.5,Win32,60,,z,1,,,,,,,,0.563245,1,,,,,,270,NW,"ID",16,wrimsy,WRIMSY,z,0.563245,,,,,,0.0546875,-0.4140625,0,0,0,,0,136,136,329,1,
,,,,,,,,,,,,,,,,,,5ec93926ce905a051f5704f3,2020-11-27_15h05.03.322,lexical_decision_task_MP_exp2,2020.2.5,Win32,60,,z,1,,,,,,,,0.616035,1,,,,,,318,NW,UN,33,zomber,REAGLY,z,0.616035,,,,,,0.0546875,-0.4140625,0,0,0,,0,137,137,377,1,
,,,,,,,,,,,,,,,,,,5ec93926ce905a051f5704f3,2020-11-27_15h05.03.322,lexical_decision_task_MP_exp2,2020.2.5,Win32,60,,m,1,,,,,,,,0.702115,1,,,,,,114,WORD,UN,33,guitar,PLACID,m,0.702115,,,,,,0.0546875,-0.4140625,0,0,0,,0,138,138,173,1,
,,,,,,,,,,,,,,,,,,5ec93926ce905a051f5704f3,2020-11-27_15h05.03.322,lexical_decision_task_MP_exp2,2020.2.5,Win32,60,,m,0,,,,,,,,0.50364,0,,,,,,411,NW,UN,16,jiluer,ORCHIN,z,0.50364,,,,,,0.0546875,-0.4140625,0,0,0,,0,139,139,470,1,
,,,,,,,,,,,,,,,,,,5ec93926ce905a051f5704f3,2020-11-27_15h05.03.322,lexical_decision_task_MP_exp2,2020.2.5,Win32,60,,z,1,,,,,,,,0.711335,1,,,,,,305,NW,UN,33,sounge,FORGLE,z,0.711335,,,,,,0.0546875,-0.4140625,0,0,0,,0,140,140,364,1,
,,,,,,,,,,,,,,,,,,5ec93926ce905a051f5704f3,2020-11-27_15h05.03.322,lexical_decision_task_MP_exp2,2020.2.5,Win32,60,,m,1,,,,,,,,0.68276,1,,,,,,30,WORD,"ID",16,orient,ORIENT,m,0.68276,,,,,,0.0546875,-0.4140625,0,0,0,,0,141,141,89,1,
,,,,,,,,,,,,,,,,,,5ec93926ce905a051f5704f3,2020-11-27_15h05.03.322,lexical_decision_task_MP_exp2,2020.2.5,Win32,60,,z,1,,,,,,,,0.60657,1,,,,,,293,NW,"ID",16,swance,SWANCE,z,0.60657,,,,,,0.0546875,-0.4140625,0,0,0,,0,142,142,352,1,
,,,,,,,,,,,,,,,,,,5ec93926ce905a051f5704f3,2020-11-27_15h05.03.322,lexical_decision_task_MP_exp2,2020.2.5,Win32,60,,z,1,,,,,,,,0.57578,1,,,,,,281,NW,"ID",16,melaty,MELATY,z,0.57578,,,,,,0.0546875,-0.4140625,0,0,0,,0,143,143,340,1,
,,,,,,,,,,,,,,,,,,5ec93926ce905a051f5704f3,2020-11-27_15h05.03.322,lexical_decision_task_MP_exp2,2020.2.5,Win32,60,,z,1,,,,,,,,0.585555,1,,,,,,420,NW,UN,16,pauche,GUSHOP,z,0.585555,,,,,,0.0546875,-0.4140625,0,0,0,,0,144,144,479,1,
,,,,,,,,,,,,,,,,,,5ec93926ce905a051f5704f3,2020-11-27_15h05.03.322,lexical_decision_task_MP_exp2,2020.2.5,Win32,60,,z,1,,,,,,,,0.498315,1,,,,,,331,NW,UN,33,vangue,GILFEW,z,0.498315,,,,,,0.0546875,-0.4140625,0,0,0,,0,145,145,390,1,
,,,,,,,,,,,,,,,,,,5ec93926ce905a051f5704f3,2020-11-27_15h05.03.322,lexical_decision_task_MP_exp2,2020.2.5,Win32,60,,z,1,,,,,,,,0.59709,1,,,,,,275,NW,"ID",16,sleirt,SLEIRT,z,0.59709,,,,,,0.0546875,-0.4140625,0,0,0,,0,146,146,334,1,
,,,,,,,,,,,,,,,,,,5ec93926ce905a051f5704f3,2020-11-27_15h05.03.322,lexical_decision_task_MP_exp2,2020.2.5,Win32,60,,m,1,,,,,,,,1.071485,1,,,,,,216,WORD,"ID",33,behalf,BEHALF,m,1.071485,,,,,,0.0546875,-0.4140625,0,0,0,,0,147,147,35,1,
,,,,,,,,,,,,,,,,,,5ec93926ce905a051f5704f3,2020-11-27_15h05.03.322,lexical_decision_task_MP_exp2,2020.2.5,Win32,60,,z,1,,,,,,,,0.71761,1,,,,,,249,NW,"ID",16,batrol,BATROL,z,0.71761,,,,,,0.0546875,-0.4140625,0,0,0,,0,148,148,308,1,
,,,,,,,,,,,,,,,,,,5ec93926ce905a051f5704f3,2020-11-27_15h05.03.322,lexical_decision_task_MP_exp2,2020.2.5,Win32,60,,z,1,,,,,,,,0.70106,1,,,,,,375,NW,UN,16,iguare,YORQUE,z,0.70106,,,,,,0.0546875,-0.4140625,0,0,0,,0,149,149,434,1,
,,,,,,,,,,,,,,,,,,5ec93926ce905a051f5704f3,2020-11-27_15h05.03.322,lexical_decision_task_MP_exp2,2020.2.5,Win32,60,,z,1,,,,,,,,1.285825,1,,,,,,314,NW,UN,33,laston,SPRINE,z,1.285825,,,,,,0.0546875,-0.4140625,0,0,0,,0,150,150,373,1,
,,,,,,,,,,,,,,,,,,5ec93926ce905a051f5704f3,2020-11-27_15h05.03.322,lexical_decision_task_MP_exp2,2020.2.5,Win32,60,,z,1,,,,,,,,0.484075,1,,,,,,357,NW,UN,33,fleack,DERAIN,z,0.484075,,,,,,0.0546875,-0.4140625,0,0,0,,0,151,151,416,1,
,,,,,,,,,,,,,,,,,,5ec93926ce905a051f5704f3,2020-11-27_15h05.03.322,lexical_decision_task_MP_exp2,2020.2.5,Win32,60,,z,1,,,,,,,,0.589125,1,,,,,,308,NW,UN,33,amiloy,PSETCH,z,0.589125,,,,,,0.0546875,-0.4140625,0,0,0,,0,152,152,367,1,
,,,,,,,,,,,,,,,,,,5ec93926ce905a051f5704f3,2020-11-27_15h05.03.322,lexical_decision_task_MP_exp2,2020.2.5,Win32,60,,z,1,,,,,,,,1.03794,1,,,,,,476,NW,"ID",33,josted,JOSTED,z,1.03794,,,,,,0.0546875,-0.4140625,0,0,0,,0,153,153,295,1,
,,,,,,,,,,,,,,,,,,5ec93926ce905a051f5704f3,2020-11-27_15h05.03.322,lexical_decision_task_MP_exp2,2020.2.5,Win32,60,,z,1,,,,,,,,0.55061,1,,,,,,333,NW,UN,33,watmeg,CATRIE,z,0.55061,,,,,,0.0546875,-0.4140625,0,0,0,,0,154,154,392,1,
,,,,,,,,,,,,,,,,,,5ec93926ce905a051f5704f3,2020-11-27_15h05.03.322,lexical_decision_task_MP_exp2,2020.2.5,Win32,60,,m,1,,,,,,,,0.70582,1,,,,,,133,WORD,UN,16,staple,CHROME,m,0.70582,,,,,,0.0546875,-0.4140625,0,0,0,,0,155,155,192,1,
,,,,,,,,,,,,,,,,,,5ec93926ce905a051f5704f3,2020-11-27_15h05.03.322,lexical_decision_task_MP_exp2,2020.2.5,Win32,60,,z,1,,,,,,,,0.51512,1,,,,,,437,NW,"ID",33,snapel,SNAPEL,z,0.51512,,,,,,0.0546875,-0.4140625,0,0,0,,0,156,156,256,1,
,,,,,,,,,,,,,,,,,,5ec93926ce905a051f5704f3,2020-11-27_15h05.03.322,lexical_decision_task_MP_exp2,2020.2.5,Win32,60,,m,1,,,,,,,,0.56719,1,,,,,,29,WORD,"ID",16,sketch,SKETCH,m,0.56719,,,,,,0.0546875,-0.4140625,0,0,0,,0,157,157,88,1,
,,,,,,,,,,,,,,,,,,5ec93926ce905a051f5704f3,2020-11-27_15h05.03.322,lexical_decision_task_MP_exp2,2020.2.5,Win32,60,,m,1,,,,,,,,0.51383,1,,,,,,237,WORD,"ID",33,poster,POSTER,m,0.51383,,,,,,0.0546875,-0.4140625,0,0,0,,0,158,158,56,1,
,,,,,,,,,,,,,,,,,,5ec93926ce905a051f5704f3,2020-11-27_15h05.03.322,lexical_decision_task_MP_exp2,2020.2.5,Win32,60,,z,1,,,,,,,,0.54455,1,,,,,,450,NW,"ID",33,phrect,PHRECT,z,0.54455,,,,,,0.0546875,-0.4140625,0,0,0,,0,159,159,269,1,
,,,,,,,,,,,,,,,,,,5ec93926ce905a051f5704f3,2020-11-27_15h05.03.322,lexical_decision_task_MP_exp2,2020.2.5,Win32,60,,z,1,,,,,,,,0.55312,1,,,,,,307,NW,UN,33,psetch,KIRAFE,z,0.55312,,,,,,0.0546875,-0.4140625,0,0,0,,0,160,160,366,1,
,,,,,,,,,,,,,,,,,,5ec93926ce905a051f5704f3,2020-11-27_15h05.03.322,lexical_decision_task_MP_exp2,2020.2.5,Win32,60,,z,1,,,,,,,,0.48884,1,,,,,,421,NW,"ID",33,knisma,KNISMA,z,0.48884,,,,,,0.0546875,-0.4140625,0,0,0,,0,161,161,240,1,
,,,,,,,,,,,,,,,,,,5ec93926ce905a051f5704f3,2020-11-27_15h05.03.322,lexical_decision_task_MP_exp2,2020.2.5,Win32,60,,m,1,,,,,,,,0.547305,1,,,,,,140,WORD,UN,16,chrome,PRINCE,m,0.547305,,,,,,0.0546875,-0.4140625,0,0,0,,0,162,162,199,1,
,,,,,,,,,,,,,,,,,,5ec93926ce905a051f5704f3,2020-11-27_15h05.03.322,lexical_decision_task_MP_exp2,2020.2.5,Win32,60,,m,1,,,,,,,,0.60855,1,,,,,,139,WORD,UN,16,prince,DEBRIS,m,0.60855,,,,,,0.0546875,-0.4140625,0,0,0,,0,163,163,198,1,
,,,,,,,,,,,,,,,,,,5ec93926ce905a051f5704f3,2020-11-27_15h05.03.322,lexical_decision_task_MP_exp2,2020.2.5,Win32,60,,z,1,,,,,,,,0.88762,1,,,,,,338,NW,UN,33,fachow,WREASH,z,0.88762,,,,,,0.0546875,-0.4140625,0,0,0,,0,164,164,397,1,
,,,,,,,,,,,,,,,,,,5ec93926ce905a051f5704f3,2020-11-27_15h05.03.322,lexical_decision_task_MP_exp2,2020.2.5,Win32,60,,z,1,,,,,,,,0.503035,1,,,,,,354,NW,UN,33,zingly,VIRLEX,z,0.503035,,,,,,0.0546875,-0.4140625,0,0,0,,0,165,165,413,1,
,,,,,,,,,,,,,,,,,,5ec93926ce905a051f5704f3,2020-11-27_15h05.03.322,lexical_decision_task_MP_exp2,2020.2.5,Win32,60,,m,1,,,,,,,,0.63205,1,,,,,,224,WORD,"ID",33,period,PERIOD,m,0.63205,,,,,,0.0546875,-0.4140625,0,0,0,,0,166,166,43,1,
,,,,,,,,,,,,,,,,,,5ec93926ce905a051f5704f3,2020-11-27_15h05.03.322,lexical_decision_task_MP_exp2,2020.2.5,Win32,60,,z,1,,,,,,,,0.63151,1,,,,,,432,NW,"ID",33,lunker,LUNKER,z,0.63151,,,,,,0.0546875,-0.4140625,0,0,0,,0,167,167,251,1,
,,,,,,,,,,,,,,,,,,5ec93926ce905a051f5704f3,2020-11-27_15h05.03.322,lexical_decision_task_MP_exp2,2020.2.5,Win32,60,,m,1,,,,,,,,0.681745,1,,,,,,151,WORD,UN,16,rocket,MYSTIC,m,0.681745,,,,,,0.0546875,-0.4140625,0,0,0,,0,168,168,210,1,
,,,,,,,,,,,,,,,,,,5ec93926ce905a051f5704f3,2020-11-27_15h05.03.322,lexical_decision_task_MP_exp2,2020.2.5,Win32,60,,m,1,,,,,,,,0.635185,1,,,,,,204,WORD,"ID",33,burden,BURDEN,m,0.635185,,,,,,0.0546875,-0.4140625,0,0,0,,0,169,169,23,1,
,,,,,,,,,,,,,,,,,,5ec93926ce905a051f5704f3,2020-11-27_15h05.03.322,lexical_decision_task_MP_exp2,2020.2.5,Win32,60,,m,1,,,,,,,,0.518235,1,,,,,,159,WORD,UN,16,violet,DETAIL,m,0.518235,,,,,,0.0546875,-0.4140625,0,0,0,,0,170,170,218,1,
,,,,,,,,,,,,,,,,,,5ec93926ce905a051f5704f3,2020-11-27_15h05.03.322,lexical_decision_task_MP_exp2,2020.2.5,Win32,60,,m,1,,,,,,,,0.51533,1,,,,,,196,WORD,"ID",33,credit,CREDIT,m,0.51533,,,,,,0.0546875,-0.4140625,0,0,0,,0,171,171,15,1,
,,,,,,,,,,,,,,,,,,5ec93926ce905a051f5704f3,2020-11-27_15h05.03.322,lexical_decision_task_MP_exp2,2020.2.5,Win32,60,,z,1,,,,,,,,0.531195,1,,,,,,374,NW,UN,16,yorque,SLIANT,z,0.531195,,,,,,0.0546875,-0.4140625,0,0,0,,0,172,172,433,1,
,,,,,,,,,,,,,,,,,,5ec93926ce905a051f5704f3,2020-11-27_15h05.03.322,lexical_decision_task_MP_exp2,2020.2.5,Win32,60,,m,1,,,,,,,,0.615575,1,,,,,,38,WORD,"ID",16,powder,POWDER,m,0.615575,,,,,,0.0546875,-0.4140625,0,0,0,,0,173,173,97,1,
,,,,,,,,,,,,,,,,,,5ec93926ce905a051f5704f3,2020-11-27_15h05.03.322,lexical_decision_task_MP_exp2,2020.2.5,Win32,60,,m,1,,,,,,,,0.63254,1,,,,,,72,WORD,UN,33,source,BRIGHT,m,0.63254,,,,,,0.0546875,-0.4140625,0,0,0,,0,174,174,131,1,
,,,,,,,,,,,,,,,,,,5ec93926ce905a051f5704f3,2020-11-27_15h05.03.322,lexical_decision_task_MP_exp2,2020.2.5,Win32,60,,m,1,,,,,,,,0.555105,1,,,,,,69,WORD,UN,33,square,PLENTY,m,0.555105,,,,,,0.0546875,-0.4140625,0,0,0,,0,175,175,128,1,
,,,,,,,,,,,,,,,,,,5ec93926ce905a051f5704f3,2020-11-27_15h05.03.322,lexical_decision_task_MP_exp2,2020.2.5,Win32,60,,m,1,,,,,,,,0.494335,1,,,,,,162,WORD,UN,16,string,CANDLE,m,0.494335,,,,,,0.0546875,-0.4140625,0,0,0,,0,176,176,221,1,
,,,,,,,,,,,,,,,,,,5ec93926ce905a051f5704f3,2020-11-27_15h05.03.322,lexical_decision_task_MP_exp2,2020.2.5,Win32,60,,m,1,,,,,,,,0.56448,1,,,,,,181,WORD,"ID",33,glance,GLANCE,m,0.56448,,,,,,0.0546875,-0.4140625,0,0,0,,0,177,177,0,1,
,,,,,,,,,,,,,,,,,,5ec93926ce905a051f5704f3,2020-11-27_15h05.03.322,lexical_decision_task_MP_exp2,2020.2.5,Win32,60,,z,1,,,,,,,,0.51736,1,,,,,,390,NW,UN,16,theldy,HATRUS,z,0.51736,,,,,,0.0546875,-0.4140625,0,0,0,,0,178,178,449,1,
,,,,,,,,,,,,,,,,,,5ec93926ce905a051f5704f3,2020-11-27_15h05.03.322,lexical_decision_task_MP_exp2,2020.2.5,Win32,60,,z,1,,,,,,,,0.68464,1,,,,,,473,NW,"ID",33,crible,CRIBLE,z,0.68464,,,,,,0.0546875,-0.4140625,0,0,0,,0,179,179,292,1,
,,,,,,,,,,,,,,,,,,5ec93926ce905a051f5704f3,2020-11-27_15h05.03.322,lexical_decision_task_MP_exp2,2020.2.5,Win32,60,,m,1,,,,,,,,0.531725,1,,,,,,201,WORD,"ID",33,admire,ADMIRE,m,0.531725,,,,,,0.0546875,-0.4140625,0,0,0,,0,180,180,20,1,
,,,,,,,,,,,,,,,,,,5ec93926ce905a051f5704f3,2020-11-27_15h05.03.322,lexical_decision_task_MP_exp2,2020.2.5,Win32,60,,z,1,,,,,,,,0.63201,1,,,,,,445,NW,"ID",33,minkel,MINKEL,z,0.63201,,,,,,0.0546875,-0.4140625,0,0,0,,0,181,181,264,1,
,,,,,,,,,,,,,,,,,,5ec93926ce905a051f5704f3,2020-11-27_15h05.03.322,lexical_decision_task_MP_exp2,2020.2.5,Win32,60,,z,1,,,,,,,,0.538605,1,,,,,,371,NW,UN,16,ramily,GEILOY,z,0.538605,,,,,,0.0546875,-0.4140625,0,0,0,,0,182,182,430,1,
,,,,,,,,,,,,,,,,,,5ec93926ce905a051f5704f3,2020-11-27_15h05.03.322,lexical_decision_task_MP_exp2,2020.2.5,Win32,60,,z,1,,,,,,,,0.7511,1,,,,,,320,NW,UN,33,miator,JOCKAL,z,0.7511,,,,,,0.0546875,-0.4140625,0,0,0,,0,183,183,379,1,
,,,,,,,,,,,,,,,,,,5ec93926ce905a051f5704f3,2020-11-27_15h05.03.322,lexical_decision_task_MP_exp2,2020.2.5,Win32,60,,z,1,,,,,,,,0.50004,1,,,,,,341,NW,UN,33,randow,MYRTIE,z,0.50004,,,,,,0.0546875,-0.4140625,0,0,0,,0,184,184,400,1,
,,,,,,,,,,,,,,,,,,5ec93926ce905a051f5704f3,2020-11-27_15h05.03.322,lexical_decision_task_MP_exp2,2020.2.5,Win32,60,,z,1,,,,,,,,0.58412,1,,,,,,364,NW,UN,16,guairt,IMPOTE,z,0.58412,,,,,,0.0546875,-0.4140625,0,0,0,,0,185,185,423,1,
,,,,,,,,,,,,,,,,,,5ec93926ce905a051f5704f3,2020-11-27_15h05.03.322,lexical_decision_task_MP_exp2,2020.2.5,Win32,60,,z,1,,,,,,,,0.48799,1,,,,,,334,NW,UN,33,desion,WATMEG,z,0.48799,,,,,,0.0546875,-0.4140625,0,0,0,,0,186,186,393,1,
,,,,,,,,,,,,,,,,,,5ec93926ce905a051f5704f3,2020-11-27_15h05.03.322,lexical_decision_task_MP_exp2,2020.2.5,Win32,60,,m,1,,,,,,,,0.548885,1,,,,,,32,WORD,"ID",16,buckle,BUCKLE,m,0.548885,,,,,,0.0546875,-0.4140625,0,0,0,,0,187,187,91,1,
,,,,,,,,,,,,,,,,,,5ec93926ce905a051f5704f3,2020-11-27_15h05.03.322,lexical_decision_task_MP_exp2,2020.2.5,Win32,60,,z,1,,,,,,,,0.57828,1,,,,,,396,NW,UN,16,camble,FLENGY,z,0.57828,,,,,,0.0546875,-0.4140625,0,0,0,,0,188,188,455,1,
,,,,,,,,,,,,,,,,,,5ec93926ce905a051f5704f3,2020-11-27_15h05.03.322,lexical_decision_task_MP_exp2,2020.2.5,Win32,60,,m,1,,,,,,,,0.63682,1,,,,,,212,WORD,"ID",33,verify,VERIFY,m,0.63682,,,,,,0.0546875,-0.4140625,0,0,0,,0,189,189,31,1,
,,,,,,,,,,,,,,,,,,5ec93926ce905a051f5704f3,2020-11-27_15h05.03.322,lexical_decision_task_MP_exp2,2020.2.5,Win32,60,,z,1,,,,,,,,0.60634,1,,,,,,265,NW,"ID",16,distar,DISTAR,z,0.60634,,,,,,0.0546875,-0.4140625,0,0,0,,0,190,190,324,1,
,,,,,,,,,,,,,,,,,,5ec93926ce905a051f5704f3,2020-11-27_15h05.03.322,lexical_decision_task_MP_exp2,2020.2.5,Win32,60,,z,1,,,,,,,,0.65629,1,,,,,,407,NW,UN,16,hurnia,SUIVER,z,0.65629,,,,,,0.0546875,-0.4140625,0,0,0,,0,191,191,466,1,
,,,,,,,,,,,,,,,,,,5ec93926ce905a051f5704f3,2020-11-27_15h05.03.322,lexical_decision_task_MP_exp2,2020.2.5,Win32,60,,m,1,,,,,,,,0.57044,1,,,,,,191,WORD,"ID",33,stable,STABLE,m,0.57044,,,,,,0.0546875,-0.4140625,0,0,0,,0,192,192,10,1,
,,,,,,,,,,,,,,,,,,5ec93926ce905a051f5704f3,2020-11-27_15h05.03.322,lexical_decision_task_MP_exp2,2020.2.5,Win32,60,,m,1,,,,,,,,0.536535,1,,,,,,153,WORD,UN,16,author,BEHOLD,m,0.536535,,,,,,0.0546875,-0.4140625,0,0,0,,0,193,193,212,1,
,,,,,,,,,,,,,,,,,,5ec93926ce905a051f5704f3,2020-11-27_15h05.03.322,lexical_decision_task_MP_exp2,2020.2.5,Win32,60,,m,1,,,,,,,,0.557835,1,,,,,,137,WORD,UN,16,melody,FINGER,m,0.557835,,,,,,0.0546875,-0.4140625,0,0,0,,0,194,194,196,1,
,,,,,,,,,,,,,,,,,,5ec93926ce905a051f5704f3,2020-11-27_15h05.03.322,lexical_decision_task_MP_exp2,2020.2.5,Win32,60,,m,1,,,,,,,,0.5982,1,,,,,,40,WORD,"ID",16,convey,CONVEY,m,0.5982,,,,,,0.0546875,-0.4140625,0,0,0,,0,195,195,99,1,
,,,,,,,,,,,,,,,,,,5ec93926ce905a051f5704f3,2020-11-27_15h05.03.322,lexical_decision_task_MP_exp2,2020.2.5,Win32,60,,z,1,,,,,,,,0.513655,1,,,,,,279,NW,"ID",16,celond,CELOND,z,0.513655,,,,,,0.0546875,-0.4140625,0,0,0,,0,196,196,338,1,
,,,,,,,,,,,,,,,,,,5ec93926ce905a051f5704f3,2020-11-27_15h05.03.322,lexical_decision_task_MP_exp2,2020.2.5,Win32,60,,z,1,,,,,,,,0.53792,1,,,,,,264,NW,"ID",16,vackel,VACKEL,z,0.53792,,,,,,0.0546875,-0.4140625,0,0,0,,0,197,197,323,1,
,,,,,,,,,,,,,,,,,,5ec93926ce905a051f5704f3,2020-11-27_15h05.03.322,lexical_decision_task_MP_exp2,2020.2.5,Win32,60,,m,1,,,,,,,,0.546125,1,,,,,,148,WORD,UN,16,invade,CUSTOM,m,0.546125,,,,,,0.0546875,-0.4140625,0,0,0,,0,198,198,207,1,
,,,,,,,,,,,,,,,,,,5ec93926ce905a051f5704f3,2020-11-27_15h05.03.322,lexical_decision_task_MP_exp2,2020.2.5,Win32,60,,m,1,,,,,,,,0.5436,1,,,,,,88,WORD,UN,33,permit,HUNGER,m,0.5436,,,,,,0.0546875,-0.4140625,0,0,0,,0,199,199,147,1,
,,,,,,,,,,,,,,,,,,5ec93926ce905a051f5704f3,2020-11-27_15h05.03.322,lexical_decision_task_MP_exp2,2020.2.5,Win32,60,,z,1,,,,,,,,0.53418,1,,,,,,401,NW,UN,16,syntic,MUSTIL,z,0.53418,,,,,,0.0546875,-0.4140625,0,0,0,,0,200,200,460,1,
,,,,,,,,,,,,,,,,,,5ec93926ce905a051f5704f3,2020-11-27_15h05.03.322,lexical_decision_task_MP_exp2,2020.2.5,Win32,60,,m,1,,,,,,,,0.542355,1,,,,,,155,WORD,UN,16,cradle,LIZARD,m,0.542355,,,,,,0.0546875,-0.4140625,0,0,0,,0,201,201,214,1,
,,,,,,,,,,,,,,,,,,5ec93926ce905a051f5704f3,2020-11-27_15h05.03.322,lexical_decision_task_MP_exp2,2020.2.5,Win32,60,,m,1,,,,,,,,0.5291,1,,,,,,33,WORD,"ID",16,butler,BUTLER,m,0.5291,,,,,,0.0546875,-0.4140625,0,0,0,,0,202,202,92,1,
,,,,,,,,,,,,,,,,,,5ec93926ce905a051f5704f3,2020-11-27_15h05.03.322,lexical_decision_task_MP_exp2,2020.2.5,Win32,60,,m,1,,,,,,,,0.48299,1,,,,,,35,WORD,"ID",16,socket,SOCKET,m,0.48299,,,,,,0.0546875,-0.4140625,0,0,0,,0,203,203,94,1,
,,,,,,,,,,,,,,,,,,5ec93926ce905a051f5704f3,2020-11-27_15h05.03.322,lexical_decision_task_MP_exp2,2020.2.5,Win32,60,,m,1,,,,,,,,0.491355,1,,,,,,172,WORD,UN,16,shower,PATROL,m,0.491355,,,,,,0.0546875,-0.4140625,0,0,0,,0,204,204,231,1,
,,,,,,,,,,,,,,,,,,5ec93926ce905a051f5704f3,2020-11-27_15h05.03.322,lexical_decision_task_MP_exp2,2020.2.5,Win32,60,,z,1,,,,,,,,0.48171,1,,,,,,470,NW,"ID",33,crudio,CRUDIO,z,0.48171,,,,,,0.0546875,-0.4140625,0,0,0,,0,205,205,289,1,
,,,,,,,,,,,,,,,,,,5ec93926ce905a051f5704f3,2020-11-27_15h05.03.322,lexical_decision_task_MP_exp2,2020.2.5,Win32,60,,z,1,,,,,,,,0.56544,1,,,,,,294,NW,"ID",16,inhort,INHORT,z,0.56544,,,,,,0.0546875,-0.4140625,0,0,0,,0,206,206,353,1,
,,,,,,,,,,,,,,,,,,5ec93926ce905a051f5704f3,2020-11-27_15h05.03.322,lexical_decision_task_MP_exp2,2020.2.5,Win32,60,,m,1,,,,,,,,0.516265,1,,,,,,179,WORD,UN,16,silent,BASKET,m,0.516265,,,,,,0.0546875,-0.4140625,0,0,0,,0,207,207,238,1,
,,,,,,,,,,,,,,,,,,5ec93926ce905a051f5704f3,2020-11-27_15h05.03.322,lexical_decision_task_MP_exp2,2020.2.5,Win32,60,,z,1,,,,,,,,0.536675,1,,,,,,376,NW,UN,16,veigma,IGUARE,z,0.536675,,,,,,0.0546875,-0.4140625,0,0,0,,0,208,208,435,1,
,,,,,,,,,,,,,,,,,,5ec93926ce905a051f5704f3,2020-11-27_15h05.03.322,lexical_decision_task_MP_exp2,2020.2.5,Win32,60,,m,1,,,,,,,,0.603475,1,,,,,,77,WORD,UN,33,column,RACKET,m,0.603475,,,,,,0.0546875,-0.4140625,0,0,0,,0,209,209,136,1,
,,,,,,,,,,,,,,,,,,5ec93926ce905a051f5704f3,2020-11-27_15h05.03.322,lexical_decision_task_MP_exp2,2020.2.5,Win32,60,,z,1,,,,,,,,0.585385,1,,,,,,291,NW,"ID",16,pretch,PRETCH,z,0.585385,,,,,,0.0546875,-0.4140625,0,0,0,,0,210,210,350,1,
,,,,,,,,,,,,,,,,,,5ec93926ce905a051f5704f3,2020-11-27_15h05.03.322,lexical_decision_task_MP_exp2,2020.2.5,Win32,60,,z,1,,,,,,,,0.58433,1,,,,,,312,NW,UN,33,paurse,NERAWL,z,0.58433,,,,,,0.0546875,-0.4140625,0,0,0,,0,211,211,371,1,
,,,,,,,,,,,,,,,,,,5ec93926ce905a051f5704f3,2020-11-27_15h05.03.322,lexical_decision_task_MP_exp2,2020.2.5,Win32,60,,m,1,,,,,,,,0.637085,1,,,,,,182,WORD,"ID",33,winter,WINTER,m,0.637085,,,,,,0.0546875,-0.4140625,0,0,0,,0,212,212,1,1,
,,,,,,,,,,,,,,,,,,5ec93926ce905a051f5704f3,2020-11-27_15h05.03.322,lexical_decision_task_MP_exp2,2020.2.5,Win32,60,,m,1,,,,,,,,0.800735,1,,,,,,3,WORD,"ID",16,knight,KNIGHT,m,0.800735,,,,,,0.0546875,-0.4140625,0,0,0,,0,213,213,62,1,
,,,,,,,,,,,,,,,,,,5ec93926ce905a051f5704f3,2020-11-27_15h05.03.322,lexical_decision_task_MP_exp2,2020.2.5,Win32,60,,m,1,,,,,,,,0.466545,1,,,,,,42,WORD,"ID",16,chapel,CHAPEL,m,0.466545,,,,,,0.0546875,-0.4140625,0,0,0,,0,214,214,101,1,
,,,,,,,,,,,,,,,,,,5ec93926ce905a051f5704f3,2020-11-27_15h05.03.322,lexical_decision_task_MP_exp2,2020.2.5,Win32,60,,m,1,,,,,,,,0.47158,1,,,,,,116,WORD,UN,33,branch,TUMBLE,m,0.47158,,,,,,0.0546875,-0.4140625,0,0,0,,0,215,215,175,1,
,,,,,,,,,,,,,,,,,,5ec93926ce905a051f5704f3,2020-11-27_15h05.03.322,lexical_decision_task_MP_exp2,2020.2.5,Win32,60,,m,1,,,,,,,,0.47156,1,,,,,,229,WORD,"ID",33,mother,MOTHER,m,0.47156,,,,,,0.0546875,-0.4140625,0,0,0,,0,216,216,48,1,
,,,,,,,,,,,,,,,,,,5ec93926ce905a051f5704f3,2020-11-27_15h05.03.322,lexical_decision_task_MP_exp2,2020.2.5,Win32,60,,z,1,,,,,,,,0.58931,1,,,,,,475,NW,"ID",33,pebric,PEBRIC,z,0.58931,,,,,,0.0546875,-0.4140625,0,0,0,,0,217,217,294,1,
,,,,,,,,,,,,,,,,,,5ec93926ce905a051f5704f3,2020-11-27_15h05.03.322,lexical_decision_task_MP_exp2,2020.2.5,Win32,60,,z,1,,,,,,,,0.555205,1,,,,,,391,NW,UN,16,rouncy,THELDY,z,0.555205,,,,,,0.0546875,-0.4140625,0,0,0,,0,218,218,450,1,
,,,,,,,,,,,,,,,,,,5ec93926ce905a051f5704f3,2020-11-27_15h05.03.322,lexical_decision_task_MP_exp2,2020.2.5,Win32,60,,z,1,,,,,,,,0.515415,1,,,,,,459,NW,"ID",33,bafent,BAFENT,z,0.515415,,,,,,0.0546875,-0.4140625,0,0,0,,0,219,219,278,1,
,,,,,,,,,,,,,,,,,,5ec93926ce905a051f5704f3,2020-11-27_15h05.03.322,lexical_decision_task_MP_exp2,2020.2.5,Win32,60,,z,1,,,,,,,,0.530905,1,,,,,,362,NW,UN,16,breali,TIREAU,z,0.530905,,,,,,0.0546875,-0.4140625,0,0,0,,0,220,220,421,1,
,,,,,,,,,,,,,,,,,,5ec93926ce905a051f5704f3,2020-11-27_15h05.03.322,lexical_decision_task_MP_exp2,2020.2.5,Win32,60,,z,1,,,,,,,,0.516855,1,,,,,,388,NW,UN,16,witmer,CRAGIN,z,0.516855,,,,,,0.0546875,-0.4140625,0,0,0,,0,221,221,447,1,
,,,,,,,,,,,,,,,,,,5ec93926ce905a051f5704f3,2020-11-27_15h05.03.322,lexical_decision_task_MP_exp2,2020.2.5,Win32,60,,m,1,,,,,,,,0.54351,1,,,,,,118,WORD,UN,33,spider,FLIGHT,m,0.54351,,,,,,0.0546875,-0.4140625,0,0,0,,0,222,222,177,1,
,,,,,,,,,,,,,,,,,,5ec93926ce905a051f5704f3,2020-11-27_15h05.03.322,lexical_decision_task_MP_exp2,2020.2.5,Win32,60,,m,1,,,,,,,,0.667405,1,,,,,,16,WORD,"ID",16,faucet,FAUCET,m,0.667405,,,,,,0.0546875,-0.4140625,0,0,0,,0,223,223,75,1,
,,,,,,,,,,,,,,,,,,5ec93926ce905a051f5704f3,2020-11-27_15h05.03.322,lexical_decision_task_MP_exp2,2020.2.5,Win32,60,,z,1,,,,,,,,0.537905,1,,,,,,373,NW,UN,16,sliant,BIGENT,z,0.537905,,,,,,0.0546875,-0.4140625,0,0,0,,0,224,224,432,1,
,,,,,,,,,,,,,,,,,,5ec93926ce905a051f5704f3,2020-11-27_15h05.03.322,lexical_decision_task_MP_exp2,2020.2.5,Win32,60,,m,1,,,,,,,,0.672485,1,,,,,,81,WORD,UN,33,stigma,FRIEND,m,0.672485,,,,,,0.0546875,-0.4140625,0,0,0,,0,225,225,140,1,
,,,,,,,,,,,,,,,,,,5ec93926ce905a051f5704f3,2020-11-27_15h05.03.322,lexical_decision_task_MP_exp2,2020.2.5,Win32,60,,m,1,,,,,,,,0.431315,1,,,,,,173,WORD,UN,16,turkey,SHOWER,m,0.431315,,,,,,0.0546875,-0.4140625,0,0,0,,0,226,226,232,1,
,,,,,,,,,,,,,,,,,,5ec93926ce905a051f5704f3,2020-11-27_15h05.03.322,lexical_decision_task_MP_exp2,2020.2.5,Win32,60,,z,1,,,,,,,,0.58662,1,,,,,,253,NW,"ID",16,resait,RESAIT,z,0.58662,,,,,,0.0546875,-0.4140625,0,0,0,,0,227,227,312,1,
,,,,,,,,,,,,,,,,,,5ec93926ce905a051f5704f3,2020-11-27_15h05.03.322,lexical_decision_task_MP_exp2,2020.2.5,Win32,60,,m,1,,,,,,,,0.547585,1,,,,,,62,WORD,UN,33,launch,REGION,m,0.547585,,,,,,0.0546875,-0.4140625,0,0,0,,0,228,228,121,1,
,,,,,,,,,,,,,,,,,,5ec93926ce905a051f5704f3,2020-11-27_15h05.03.322,lexical_decision_task_MP_exp2,2020.2.5,Win32,60,,m,1,,,,,,,,0.477405,1,,,,,,100,WORD,UN,33,wrench,CARBON,m,0.477405,,,,,,0.0546875,-0.4140625,0,0,0,,0,229,229,159,1,
,,,,,,,,,,,,,,,,,,5ec93926ce905a051f5704f3,2020-11-27_15h05.03.322,lexical_decision_task_MP_exp2,2020.2.5,Win32,60,,m,1,,,,,,,,0.58914,1,,,,,,54,WORD,"ID",16,ramble,RAMBLE,m,0.58914,,,,,,0.0546875,-0.4140625,0,0,0,,0,230,230,113,1,
,,,,,,,,,,,,,,,,,,5ec93926ce905a051f5704f3,2020-11-27_15h05.03.322,lexical_decision_task_MP_exp2,2020.2.5,Win32,60,,z,1,,,,,,,,0.53609,1,,,,,,347,NW,UN,33,dumple,KERIFT,z,0.53609,,,,,,0.0546875,-0.4140625,0,0,0,,0,231,231,406,1,
,,,,,,,,,,,,,,,,,,5ec93926ce905a051f5704f3,2020-11-27_15h05.03.322,lexical_decision_task_MP_exp2,2020.2.5,Win32,60,,z,1,,,,,,,,0.60608,1,,,,,,262,NW,"ID",16,quilew,QUILEW,z,0.60608,,,,,,0.0546875,-0.4140625,0,0,0,,0,232,232,321,1,
,,,,,,,,,,,,,,,,,,5ec93926ce905a051f5704f3,2020-11-27_15h05.03.322,lexical_decision_task_MP_exp2,2020.2.5,Win32,60,,m,1,,,,,,,,0.563065,1,,,,,,5,WORD,"ID",16,plunge,PLUNGE,m,0.563065,,,,,,0.0546875,-0.4140625,0,0,0,,0,233,233,64,1,
,,,,,,,,,,,,,,,,,,5ec93926ce905a051f5704f3,2020-11-27_15h05.03.322,lexical_decision_task_MP_exp2,2020.2.5,Win32,60,,m,1,,,,,,,,0.616235,1,,,,,,27,WORD,"ID",16,scream,SCREAM,m,0.616235,,,,,,0.0546875,-0.4140625,0,0,0,,0,234,234,86,1,
,,,,,,,,,,,,,,,,,,5ec93926ce905a051f5704f3,2020-11-27_15h05.03.322,lexical_decision_task_MP_exp2,2020.2.5,Win32,60,,m,1,,,,,,,,0.488325,1,,,,,,141,WORD,UN,16,spruce,ORPHAN,m,0.488325,,,,,,0.0546875,-0.4140625,0,0,0,,0,235,235,200,1,
,,,,,,,,,,,,,,,,,,5ec93926ce905a051f5704f3,2020-11-27_15h05.03.322,lexical_decision_task_MP_exp2,2020.2.5,Win32,60,,m,0,,,,,,,,0.768345,0,,,,,,345,NW,UN,33,saudic,ABSEND,z,0.768345,,,,,,0.0546875,-0.4140625,0,0,0,,0,236,236,404,1,
,,,,,,,,,,,,,,,,,,5ec93926ce905a051f5704f3,2020-11-27_15h05.03.322,lexical_decision_task_MP_exp2,2020.2.5,Win32,60,,z,1,,,,,,,,1.43922,1,,,,,,325,NW,UN,33,iguade,THRUSE,z,1.43922,,,,,,0.0546875,-0.4140625,0,0,0,,0,237,237,384,1,
,,,,,,,,,,,,,,,,,,5ec93926ce905a051f5704f3,2020-11-27_15h05.03.322,lexical_decision_task_MP_exp2,2020.2.5,Win32,60,,z,0,,,,,,,,0.41521,0,,,,,,51,WORD,"ID",16,hungry,HUNGRY,m,0.41521,,,,,,0.0546875,-0.4140625,0,0,0,,0,238,238,110,1,
,,,,,,,,,,,,,,,,,,5ec93926ce905a051f5704f3,2020-11-27_15h05.03.322,lexical_decision_task_MP_exp2,2020.2.5,Win32,60,,m,1,,,,,,,,0.8175,1,,,,,,211,WORD,"ID",33,infect,INFECT,m,0.8175,,,,,,0.0546875,-0.4140625,0,0,0,,0,239,239,30,1,
,,,,,,,,,,,,,,,,,,5ec93926ce905a051f5704f3,2020-11-27_15h05.03.322,lexical_decision_task_MP_exp2,2020.2.5,Win32,60,,z,1,,,,,,,,0.692085,1,,,,,,398,NW,UN,16,fouret,BLUNDE,z,0.692085,,,,,,0.0546875,-0.4140625,0,0,0,,0,240,240,457,1,
,,,,,,,,,,,,,,,,,,5ec93926ce905a051f5704f3,2020-11-27_15h05.03.322,lexical_decision_task_MP_exp2,2020.2.5,Win32,60,,z,1,,,,,,,,0.58048,1,,,,,,339,NW,UN,33,fiatch,FACHOW,z,0.58048,,,,,,0.0546875,-0.4140625,0,0,1,,0,241,241,398,1,break_done_button
,,,,,,,,,,,,,,,,,,5ec93926ce905a051f5704f3,2020-11-27_15h05.03.322,lexical_decision_task_MP_exp2,2020.2.5,Win32,60,,,0,,,,,,,,0.58048,-1,,,,,,300,NW,"ID",16,yarion,YARION,z,,,,,,,0.0546875,-0.4140625,0,0,0,,0,242,242,359,1,
,,,,,,,,,,,,,,,,,,5ec93926ce905a051f5704f3,2020-11-27_15h05.03.322,lexical_decision_task_MP_exp2,2020.2.5,Win32,60,,,0,,,,,,,,0.58048,-1,,,,,,323,NW,UN,33,steikh,ROSAIL,z,,,,,,,0.0546875,-0.4140625,0,0,0,,0,243,243,382,1,
,,,,,,,,,,,,,,,,,,5ec93926ce905a051f5704f3,2020-11-27_15h05.03.322,lexical_decision_task_MP_exp2,2020.2.5,Win32,60,,,0,,,,,,,,0.58048,-1,,,,,,71,WORD,UN,33,bright,GARDEN,m,,,,,,,0.0546875,-0.4140625,0,0,0,,0,244,244,130,1,
,,,,,,,,,,,,,,,,,,5ec93926ce905a051f5704f3,2020-11-27_15h05.03.322,lexical_decision_task_MP_exp2,2020.2.5,Win32,60,,,0,,,,,,,,0.58048,-1,,,,,,283,NW,"ID",16,veralf,VERALF,z,,,,,,,0.0546875,-0.4140625,0,0,0,,0,245,245,342,1,
,,,,,,,,,,,,,,,,,,5ec93926ce905a051f5704f3,2020-11-27_15h05.03.322,lexical_decision_task_MP_exp2,2020.2.5,Win32,60,,,0,,,,,,,,0.58048,-1,,,,,,256,NW,"ID",16,inlors,INLORS,z,,,,,,,0.0546875,-0.4140625,0,0,0,,0,246,246,315,1,
,,,,,,,,,,,,,,,,,,5ec93926ce905a051f5704f3,2020-11-27_15h05.03.322,lexical_decision_task_MP_exp2,2020.2.5,Win32,60,,,0,,,,,,,,0.58048,-1,,,,,,107,WORD,UN,33,reckon,SLOGAN,m,,,,,,,0.0546875,-0.4140625,0,0,0,,0,247,247,166,1,
,,,,,,,,,,,,,,,,,,5ec93926ce905a051f5704f3,2020-11-27_15h05.03.322,lexical_decision_task_MP_exp2,2020.2.5,Win32,60,,,0,,,,,,,,0.58048,-1,,,,,,9,WORD,"ID",16,hustle,HUSTLE,m,,,,,,,0.0546875,-0.4140625,0,0,0,,0,248,248,68,1,
,,,,,,,,,,,,,,,,,,5ec93926ce905a051f5704f3,2020-11-27_15h05.03.322,lexical_decision_task_MP_exp2,2020.2.5,Win32,60,,,0,,,,,,,,0.58048,-1,,,,,,395,NW,UN,16,flengy,COLURY,z,,,,,,,0.0546875,-0.4140625,0,0,0,,0,249,249,454,1,
,,,,,,,,,,,,,,,,,,5ec93926ce905a051f5704f3,2020-11-27_15h05.03.322,lexical_decision_task_MP_exp2,2020.2.5,Win32,60,,,0,,,,,,,,0.58048,-1,,,,,,205,WORD,"ID",33,lounge,LOUNGE,m,,,,,,,0.0546875,-0.4140625,0,0,0,,0,250,250,24,1,
,,,,,,,,,,,,,,,,,,5ec93926ce905a051f5704f3,2020-11-27_15h05.03.322,lexical_decision_task_MP_exp2,2020.2.5,Win32,60,,,0,,,,,,,,0.58048,-1,,,,,,226,WORD,"ID",33,casino,CASINO,m,,,,,,,0.0546875,-0.4140625,0,0,0,,0,251,251,45,1,
,,,,,,,,,,,,,,,,,,5ec93926ce905a051f5704f3,2020-11-27_15h05.03.322,lexical_decision_task_MP_exp2,2020.2.5,Win32,60,,,0,,,,,,,,0.58048,-1,,,,,,469,NW,"ID",33,padifs,PADIFS,z,,,,,,,0.040364583,-0.03125,0,0,0,,0,252,252,288,1,
,,,,,,,,,,,,,,,,,,5ec93926ce905a051f5704f3,2020-11-27_15h05.03.322,lexical_decision_task_MP_exp2,2020.2.5,Win32,60,,,0,,,,,,,,0.58048,-1,,,,,,215,WORD,"ID",33,phobia,PHOBIA,m,,,,,,,0.0496,0.012,0,0,0,,0,253,253,34,1,
,,,,,,,,,,,,,,,,,,5ec93926ce905a051f5704f3,2020-11-27_15h05.03.322,lexical_decision_task_MP_exp2,2020.2.5,Win32,60,,m,1,,,,,,,,0.83276,1,,,,,,87,WORD,UN,33,sprawl,FILTER,m,0.83276,,,,,,0.0496,0.012,0,0,0,,0,254,254,146,1,
,,,,,,,,,,,,,,,,,,5ec93926ce905a051f5704f3,2020-11-27_15h05.03.322,lexical_decision_task_MP_exp2,2020.2.5,Win32,60,,z,1,,,,,,,,1.815305,1,,,,,,468,NW,"ID",33,wictor,WICTOR,z,1.815305,,,,,,0.0496,0.012,0,0,0,,0,255,255,287,1,
,,,,,,,,,,,,,,,,,,5ec93926ce905a051f5704f3,2020-11-27_15h05.03.322,lexical_decision_task_MP_exp2,2020.2.5,Win32,60,,z,1,,,,,,,,0.611805,1,,,,,,359,NW,UN,33,desory,FONVER,z,0.611805,,,,,,0.0496,0.012,0,0,0,,0,256,256,418,1,
,,,,,,,,,,,,,,,,,,5ec93926ce905a051f5704f3,2020-11-27_15h05.03.322,lexical_decision_task_MP_exp2,2020.2.5,Win32,60,,z,1,,,,,,,,0.76493,1,,,,,,467,NW,"ID",33,gorbie,GORBIE,z,0.76493,,,,,,0.0496,0.012,0,0,0,,0,257,257,286,1,
,,,,,,,,,,,,,,,,,,5ec93926ce905a051f5704f3,2020-11-27_15h05.03.322,lexical_decision_task_MP_exp2,2020.2.5,Win32,60,,z,1,,,,,,,,0.74803,1,,,,,,352,NW,UN,33,clurey,TRINGE,z,0.74803,,,,,,0.0496,0.012,0,0,0,,0,258,258,411,1,
,,,,,,,,,,,,,,,,,,5ec93926ce905a051f5704f3,2020-11-27_15h05.03.322,lexical_decision_task_MP_exp2,2020.2.5,Win32,60,,m,1,,,,,,,,0.669165,1,,,,,,22,WORD,"ID",16,jockey,JOCKEY,m,0.669165,,,,,,0.0496,0.012,0,0,0,,0,259,259,81,1,
,,,,,,,,,,,,,,,,,,5ec93926ce905a051f5704f3,2020-11-27_15h05.03.322,lexical_decision_task_MP_exp2,2020.2.5,Win32,60,,m,1,,,,,,,,0.565835,1,,,,,,31,WORD,"ID",16,weapon,WEAPON,m,0.565835,,,,,,0.0496,0.012,0,0,0,,0,260,260,90,1,
,,,,,,,,,,,,,,,,,,5ec93926ce905a051f5704f3,2020-11-27_15h05.03.322,lexical_decision_task_MP_exp2,2020.2.5,Win32,60,,m,1,,,,,,,,0.58657,1,,,,,,160,WORD,UN,16,pastor,VIOLET,m,0.58657,,,,,,0.0496,0.012,0,0,0,,0,261,261,219,1,
,,,,,,,,,,,,,,,,,,5ec93926ce905a051f5704f3,2020-11-27_15h05.03.322,lexical_decision_task_MP_exp2,2020.2.5,Win32,60,,z,1,,,,,,,,0.69921,1,,,,,,278,NW,"ID",16,unighs,UNIGHS,z,0.69921,,,,,,0.0496,0.012,0,0,0,,0,262,262,337,1,
,,,,,,,,,,,,,,,,,,5ec93926ce905a051f5704f3,2020-11-27_15h05.03.322,lexical_decision_task_MP_exp2,2020.2.5,Win32,60,,z,1,,,,,,,,1.05466,1,,,,,,245,NW,"ID",16,anougs,ANOUGS,z,1.05466,,,,,,0.0496,0.012,0,0,0,,0,263,263,304,1,
,,,,,,,,,,,,,,,,,,5ec93926ce905a051f5704f3,2020-11-27_15h05.03.322,lexical_decision_task_MP_exp2,2020.2.5,Win32,60,,z,1,,,,,,,,0.53308,1,,,,,,439,NW,"ID",33,limpor,LIMPOR,z,0.53308,,,,,,0.0496,0.012,0,0,0,,0,264,264,258,1,
,,,,,,,,,,,,,,,,,,5ec93926ce905a051f5704f3,2020-11-27_15h05.03.322,lexical_decision_task_MP_exp2,2020.2.5,Win32,60,,z,1,,,,,,,,0.527635,1,,,,,,427,NW,"ID",33,schind,SCHIND,z,0.527635,,,,,,0.0496,0.012,0,0,0,,0,265,265,246,1,
,,,,,,,,,,,,,,,,,,5ec93926ce905a051f5704f3,2020-11-27_15h05.03.322,lexical_decision_task_MP_exp2,2020.2.5,Win32,60,,z,1,,,,,,,,0.56792,1,,,,,,377,NW,UN,16,shrile,INJORE,z,0.56792,,,,,,0.0496,0.012,0,0,0,,0,266,266,436,1,
,,,,,,,,,,,,,,,,,,5ec93926ce905a051f5704f3,2020-11-27_15h05.03.322,lexical_decision_task_MP_exp2,2020.2.5,Win32,60,,m,1,,,,,,,,0.627045,1,,,,,,56,WORD,"ID",16,ambush,AMBUSH,m,0.627045,,,,,,0.0496,0.012,0,0,0,,0,267,267,115,1,
,,,,,,,,,,,,,,,,,,5ec93926ce905a051f5704f3,2020-11-27_15h05.03.322,lexical_decision_task_MP_exp2,2020.2.5,Win32,60,,m,1,,,,,,,,0.470655,1,,,,,,95,WORD,UN,33,ignore,THREAD,m,0.470655,,,,,,0.0496,0.012,0,0,0,,0,268,268,154,1,
,,,,,,,,,,,,,,,,,,5ec93926ce905a051f5704f3,2020-11-27_15h05.03.322,lexical_decision_task_MP_exp2,2020.2.5,Win32,60,,z,1,,,,,,,,0.645625,1,,,,,,378,NW,UN,16,auting,SHRILE,z,0.645625,,,,,,0.0496,0.012,0,0,0,,0,269,269,437,1,
,,,,,,,,,,,,,,,,,,5ec93926ce905a051f5704f3,2020-11-27_15h05.03.322,lexical_decision_task_MP_exp2,2020.2.5,Win32,60,,z,1,,,,,,,,0.74894,1,,,,,,436,NW,"ID",33,frutan,FRUTAN,z,0.74894,,,,,,0.0496,0.012,0,0,0,,0,270,270,255,1,
,,,,,,,,,,,,,,,,,,5ec93926ce905a051f5704f3,2020-11-27_15h05.03.322,lexical_decision_task_MP_exp2,2020.2.5,Win32,60,,z,1,,,,,,,,0.48183,1,,,,,,443,NW,"ID",33,dorsex,DORSEX,z,0.48183,,,,,,0.0496,0.012,0,0,0,,0,271,271,262,1,
,,,,,,,,,,,,,,,,,,5ec93926ce905a051f5704f3,2020-11-27_15h05.03.322,lexical_decision_task_MP_exp2,2020.2.5,Win32,60,,m,1,,,,,,,,0.705825,1,,,,,,185,WORD,"ID",33,bother,BOTHER,m,0.705825,,,,,,0.0496,0.012,0,0,0,,0,272,272,4,1,
,,,,,,,,,,,,,,,,,,5ec93926ce905a051f5704f3,2020-11-27_15h05.03.322,lexical_decision_task_MP_exp2,2020.2.5,Win32,60,,z,1,,,,,,,,0.84627,1,,,,,,246,NW,"ID",16,piaton,PIATON,z,0.84627,,,,,,0.0496,0.012,0,0,0,,0,273,273,305,1,
,,,,,,,,,,,,,,,,,,5ec93926ce905a051f5704f3,2020-11-27_15h05.03.322,lexical_decision_task_MP_exp2,2020.2.5,Win32,60,,z,1,,,,,,,,0.458165,1,,,,,,435,NW,"ID",33,impurb,IMPURB,z,0.458165,,,,,,0.0496,0.012,0,0,0,,0,274,274,254,1,
,,,,,,,,,,,,,,,,,,5ec93926ce905a051f5704f3,2020-11-27_15h05.03.322,lexical_decision_task_MP_exp2,2020.2.5,Win32,60,,z,1,,,,,,,,0.56736,1,,,,,,302,NW,UN,33,fiream,MILUER,z,0.56736,,,,,,0.0496,0.012,0,0,0,,0,275,275,361,1,
,,,,,,,,,,,,,,,,,,5ec93926ce905a051f5704f3,2020-11-27_15h05.03.322,lexical_decision_task_MP_exp2,2020.2.5,Win32,60,,m,1,,,,,,,,0.55891,1,,,,,,85,WORD,UN,33,rodent,SPRAWL,m,0.55891,,,,,,0.0496,0.012,0,0,0,,0,276,276,144,1,
,,,,,,,,,,,,,,,,,,5ec93926ce905a051f5704f3,2020-11-27_15h05.03.322,lexical_decision_task_MP_exp2,2020.2.5,Win32,60,,m,1,,,,,,,,0.4761,1,,,,,,188,WORD,"ID",33,social,SOCIAL,m,0.4761,,,,,,0.0496,0.012,0,0,0,,0,277,277,7,1,
,,,,,,,,,,,,,,,,,,5ec93926ce905a051f5704f3,2020-11-27_15h05.03.322,lexical_decision_task_MP_exp2,2020.2.5,Win32,60,,m,0,,,,,,,,0.51266,0,,,,,,477,NW,"ID",33,photie,PHOTIE,z,0.51266,,,,,,0.0496,0.012,0,0,0,,0,278,278,296,1,
,,,,,,,,,,,,,,,,,,5ec93926ce905a051f5704f3,2020-11-27_15h05.03.322,lexical_decision_task_MP_exp2,2020.2.5,Win32,60,,m,1,,,,,,,,0.662885,1,,,,,,21,WORD,"ID",16,simple,SIMPLE,m,0.662885,,,,,,0.0496,0.012,0,0,0,,0,279,279,80,1,
,,,,,,,,,,,,,,,,,,5ec93926ce905a051f5704f3,2020-11-27_15h05.03.322,lexical_decision_task_MP_exp2,2020.2.5,Win32,60,,z,1,,,,,,,,0.671545,1,,,,,,410,NW,UN,16,orchin,TUNORY,z,0.671545,,,,,,0.0496,0.012,0,0,0,,0,280,280,469,1,
,,,,,,,,,,,,,,,,,,5ec93926ce905a051f5704f3,2020-11-27_15h05.03.322,lexical_decision_task_MP_exp2,2020.2.5,Win32,60,,m,1,,,,,,,,0.51185,1,,,,,,63,WORD,UN,33,throne,LAUNCH,m,0.51185,,,,,,0.0496,0.012,0,0,0,,0,281,281,122,1,
,,,,,,,,,,,,,,,,,,5ec93926ce905a051f5704f3,2020-11-27_15h05.03.322,lexical_decision_task_MP_exp2,2020.2.5,Win32,60,,m,1,,,,,,,,0.556005,1,,,,,,86,WORD,UN,33,filter,RODENT,m,0.556005,,,,,,0.0496,0.012,0,0,0,,0,282,282,145,1,
,,,,,,,,,,,,,,,,,,5ec93926ce905a051f5704f3,2020-11-27_15h05.03.322,lexical_decision_task_MP_exp2,2020.2.5,Win32,60,,z,1,,,,,,,,0.797795,1,,,,,,379,NW,UN,16,cavory,AUTING,z,0.797795,,,,,,0.0496,0.012,0,0,0,,0,283,283,438,1,
,,,,,,,,,,,,,,,,,,5ec93926ce905a051f5704f3,2020-11-27_15h05.03.322,lexical_decision_task_MP_exp2,2020.2.5,Win32,60,,m,1,,,,,,,,0.614725,1,,,,,,129,WORD,UN,16,stupid,MARVEL,m,0.614725,,,,,,0.0496,0.012,0,0,0,,0,284,284,188,1,
,,,,,,,,,,,,,,,,,,5ec93926ce905a051f5704f3,2020-11-27_15h05.03.322,lexical_decision_task_MP_exp2,2020.2.5,Win32,60,,m,1,,,,,,,,0.516155,1,,,,,,127,WORD,UN,16,senior,CASTLE,m,0.516155,,,,,,0.0496,0.012,0,0,0,,0,285,285,186,1,
,,,,,,,,,,,,,,,,,,5ec93926ce905a051f5704f3,2020-11-27_15h05.03.322,lexical_decision_task_MP_exp2,2020.2.5,Win32,60,,z,1,,,,,,,,0.52443,1,,,,,,453,NW,"ID",33,bolvis,BOLVIS,z,0.52443,,,,,,0.0496,0.012,0,0,0,,0,286,286,272,1,
,,,,,,,,,,,,,,,,,,5ec93926ce905a051f5704f3,2020-11-27_15h05.03.322,lexical_decision_task_MP_exp2,2020.2.5,Win32,60,,m,1,,,,,,,,0.59921,1,,,,,,99,WORD,UN,33,carbon,FLUENT,m,0.59921,,,,,,0.0496,0.012,0,0,0,,0,287,287,158,1,
,,,,,,,,,,,,,,,,,,5ec93926ce905a051f5704f3,2020-11-27_15h05.03.322,lexical_decision_task_MP_exp2,2020.2.5,Win32,60,,m,1,,,,,,,,0.499975,1,,,,,,101,WORD,UN,33,direct,WRENCH,m,0.499975,,,,,,0.0496,0.012,0,0,0,,0,288,288,160,1,
,,,,,,,,,,,,,,,,,,5ec93926ce905a051f5704f3,2020-11-27_15h05.03.322,lexical_decision_task_MP_exp2,2020.2.5,Win32,60,,z,1,,,,,,,,0.56453,1,,,,,,315,NW,UN,33,scregm,LASTON,z,0.56453,,,,,,0.0496,0.012,0,0,0,,0,289,289,374,1,
,,,,,,,,,,,,,,,,,,5ec93926ce905a051f5704f3,2020-11-27_15h05.03.322,lexical_decision_task_MP_exp2,2020.2.5,Win32,60,,z,1,,,,,,,,0.731635,1,,,,,,286,NW,"ID",16,reldon,RELDON,z,0.731635,,,,,,0.0496,0.012,0,0,0,,0,290,290,345,1,
,,,,,,,,,,,,,,,,,,5ec93926ce905a051f5704f3,2020-11-27_15h05.03.322,lexical_decision_task_MP_exp2,2020.2.5,Win32,60,,m,1,,,,,,,,0.584635,1,,,,,,93,WORD,UN,33,travel,PUBLIC,m,0.584635,,,,,,0.0496,0.012,0,0,0,,0,291,291,152,1,
,,,,,,,,,,,,,,,,,,5ec93926ce905a051f5704f3,2020-11-27_15h05.03.322,lexical_decision_task_MP_exp2,2020.2.5,Win32,60,,m,1,,,,,,,,0.6796,1,,,,,,154,WORD,UN,16,lizard,AUTHOR,m,0.6796,,,,,,0.0496,0.012,0,0,0,,0,292,292,213,1,
,,,,,,,,,,,,,,,,,,5ec93926ce905a051f5704f3,2020-11-27_15h05.03.322,lexical_decision_task_MP_exp2,2020.2.5,Win32,60,,z,0,,,,,,,,0.474295,0,,,,,,47,WORD,"ID",16,income,INCOME,m,0.474295,,,,,,0.0496,0.012,0,0,0,,0,293,293,106,1,
,,,,,,,,,,,,,,,,,,5ec93926ce905a051f5704f3,2020-11-27_15h05.03.322,lexical_decision_task_MP_exp2,2020.2.5,Win32,60,,z,1,,,,,,,,0.59828,1,,,,,,252,NW,"ID",16,stapod,STAPOD,z,0.59828,,,,,,0.0496,0.012,0,0,0,,0,294,294,311,1,
,,,,,,,,,,,,,,,,,,5ec93926ce905a051f5704f3,2020-11-27_15h05.03.322,lexical_decision_task_MP_exp2,2020.2.5,Win32,60,,m,1,,,,,,,,0.582,1,,,,,,195,WORD,"ID",33,resign,RESIGN,m,0.582,,,,,,0.0496,0.012,0,0,0,,0,295,295,14,1,
,,,,,,,,,,,,,,,,,,5ec93926ce905a051f5704f3,2020-11-27_15h05.03.322,lexical_decision_task_MP_exp2,2020.2.5,Win32,60,,m,0,,,,,,,,0.570985,0,,,,,,303,NW,UN,33,cludie,FIREAM,z,0.570985,,,,,,0.0496,0.012,0,0,0,,0,296,296,362,1,
,,,,,,,,,,,,,,,,,,5ec93926ce905a051f5704f3,2020-11-27_15h05.03.322,lexical_decision_task_MP_exp2,2020.2.5,Win32,60,,m,1,,,,,,,,0.663625,1,,,,,,97,WORD,UN,33,belong,CLIENT,m,0.663625,,,,,,0.0496,0.012,0,0,0,,0,297,297,156,1,
,,,,,,,,,,,,,,,,,,5ec93926ce905a051f5704f3,2020-11-27_15h05.03.322,lexical_decision_task_MP_exp2,2020.2.5,Win32,60,,z,0,,,,,,,,0.548145,0,,,,,,89,WORD,UN,33,relish,PERMIT,m,0.548145,,,,,,0.0496,0.012,0,0,0,,0,298,298,148,1,
,,,,,,,,,,,,,,,,,,5ec93926ce905a051f5704f3,2020-11-27_15h05.03.322,lexical_decision_task_MP_exp2,2020.2.5,Win32,60,,z,1,,,,,,,,0.690725,1,,,,,,399,NW,UN,16,wearox,FOURET,z,0.690725,,,,,,0.0496,0.012,0,0,0,,0,299,299,458,1,
,,,,,,,,,,,,,,,,,,5ec93926ce905a051f5704f3,2020-11-27_15h05.03.322,lexical_decision_task_MP_exp2,2020.2.5,Win32,60,,z,1,,,,,,,,0.55286,1,,,,,,327,NW,UN,33,broake,PLENAC,z,0.55286,,,,,,0.0496,0.012,0,0,0,,0,300,300,386,1,
,,,,,,,,,,,,,,,,,,5ec93926ce905a051f5704f3,2020-11-27_15h05.03.322,lexical_decision_task_MP_exp2,2020.2.5,Win32,60,,z,1,,,,,,,,0.53124,1,,,,,,363,NW,UN,16,impote,BREALI,z,0.53124,,,,,,0.0496,0.012,0,0,0,,0,301,301,422,1,
,,,,,,,,,,,,,,,,,,5ec93926ce905a051f5704f3,2020-11-27_15h05.03.322,lexical_decision_task_MP_exp2,2020.2.5,Win32,60,,z,1,,,,,,,,0.69963,1,,,,,,382,NW,UN,16,aungre,SARLEY,z,0.69963,,,,,,0.0496,0.012,0,0,0,,0,302,302,441,1,
,,,,,,,,,,,,,,,,,,5ec93926ce905a051f5704f3,2020-11-27_15h05.03.322,lexical_decision_task_MP_exp2,2020.2.5,Win32,60,,m,0,,,,,,,,0.526835,0,,,,,,285,NW,"ID",16,prudge,PRUDGE,z,0.526835,,,,,,0.0496,0.012,0,0,0,,0,303,303,344,1,
,,,,,,,,,,,,,,,,,,5ec93926ce905a051f5704f3,2020-11-27_15h05.03.322,lexical_decision_task_MP_exp2,2020.2.5,Win32,60,,m,1,,,,,,,,0.67479,1,,,,,,206,WORD,"ID",33,tailor,TAILOR,m,0.67479,,,,,,0.0496,0.012,0,0,0,,0,304,304,25,1,
,,,,,,,,,,,,,,,,,,5ec93926ce905a051f5704f3,2020-11-27_15h05.03.322,lexical_decision_task_MP_exp2,2020.2.5,Win32,60,,z,1,,,,,,,,0.50028,1,,,,,,414,NW,UN,16,higsta,SERBOL,z,0.50028,,,,,,0.0496,0.012,0,0,0,,0,305,305,473,1,
,,,,,,,,,,,,,,,,,,5ec93926ce905a051f5704f3,2020-11-27_15h05.03.322,lexical_decision_task_MP_exp2,2020.2.5,Win32,60,,z,1,,,,,,,,0.533225,1,,,,,,280,NW,"ID",16,curbol,CURBOL,z,0.533225,,,,,,0.0496,0.012,0,0,0,,0,306,306,339,1,
,,,,,,,,,,,,,,,,,,5ec93926ce905a051f5704f3,2020-11-27_15h05.03.322,lexical_decision_task_MP_exp2,2020.2.5,Win32,60,,z,1,,,,,,,,0.53147,1,,,,,,402,NW,UN,16,bruats,SYNTIC,z,0.53147,,,,,,0.0496,0.012,0,0,0,,0,307,307,461,1,
,,,,,,,,,,,,,,,,,,5ec93926ce905a051f5704f3,2020-11-27_15h05.03.322,lexical_decision_task_MP_exp2,2020.2.5,Win32,60,,m,1,,,,,,,,0.499065,1,,,,,,37,WORD,"ID",16,insult,INSULT,m,0.499065,,,,,,0.0496,0.012,0,0,0,,0,308,308,96,1,
,,,,,,,,,,,,,,,,,,5ec93926ce905a051f5704f3,2020-11-27_15h05.03.322,lexical_decision_task_MP_exp2,2020.2.5,Win32,60,,z,1,,,,,,,,0.75686,1,,,,,,368,NW,UN,16,wronch,HORNAL,z,0.75686,,,,,,0.0496,0.012,0,0,0,,0,309,309,427,1,
,,,,,,,,,,,,,,,,,,5ec93926ce905a051f5704f3,2020-11-27_15h05.03.322,lexical_decision_task_MP_exp2,2020.2.5,Win32,60,,m,1,,,,,,,,0.537455,1,,,,,,66,WORD,UN,33,policy,GOSPEL,m,0.537455,,,,,,0.0496,0.012,0,0,0,,0,310,310,125,1,
,,,,,,,,,,,,,,,,,,5ec93926ce905a051f5704f3,2020-11-27_15h05.03.322,lexical_decision_task_MP_exp2,2020.2.5,Win32,60,,z,1,,,,,,,,0.58567,1,,,,,,425,NW,"ID",33,frudge,FRUDGE,z,0.58567,,,,,,0.0496,0.012,0,0,0,,0,311,311,244,1,
,,,,,,,,,,,,,,,,,,5ec93926ce905a051f5704f3,2020-11-27_15h05.03.322,lexical_decision_task_MP_exp2,2020.2.5,Win32,60,,m,1,,,,,,,,0.67952,1,,,,,,58,WORD,"ID",16,foster,FOSTER,m,0.67952,,,,,,0.0496,0.012,0,0,0,,0,312,312,117,1,
,,,,,,,,,,,,,,,,,,5ec93926ce905a051f5704f3,2020-11-27_15h05.03.322,lexical_decision_task_MP_exp2,2020.2.5,Win32,60,,z,1,,,,,,,,0.61176,1,,,,,,310,NW,UN,33,sproly,DANIET,z,0.61176,,,,,,0.0496,0.012,0,0,0,,0,313,313,369,1,
,,,,,,,,,,,,,,,,,,5ec93926ce905a051f5704f3,2020-11-27_15h05.03.322,lexical_decision_task_MP_exp2,2020.2.5,Win32,60,,z,1,,,,,,,,0.53359,1,,,,,,282,NW,"ID",16,porlex,PORLEX,z,0.53359,,,,,,0.0496,0.012,0,0,0,,0,314,314,341,1,
,,,,,,,,,,,,,,,,,,5ec93926ce905a051f5704f3,2020-11-27_15h05.03.322,lexical_decision_task_MP_exp2,2020.2.5,Win32,60,,m,1,,,,,,,,0.53094,1,,,,,,43,WORD,"ID",16,tongue,TONGUE,m,0.53094,,,,,,0.0496,0.012,0,0,0,,0,315,315,102,1,
,,,,,,,,,,,,,,,,,,5ec93926ce905a051f5704f3,2020-11-27_15h05.03.322,lexical_decision_task_MP_exp2,2020.2.5,Win32,60,,m,1,,,,,,,,0.4883,1,,,,,,134,WORD,UN,16,import,STAPLE,m,0.4883,,,,,,0.0496,0.012,0,0,0,,0,316,316,193,1,
,,,,,,,,,,,,,,,,,,5ec93926ce905a051f5704f3,2020-11-27_15h05.03.322,lexical_decision_task_MP_exp2,2020.2.5,Win32,60,,z,1,,,,,,,,0.53363,1,,,,,,455,NW,"ID",33,tondle,TONDLE,z,0.53363,,,,,,0.0496,0.012,0,0,0,,0,317,317,274,1,
,,,,,,,,,,,,,,,,,,5ec93926ce905a051f5704f3,2020-11-27_15h05.03.322,lexical_decision_task_MP_exp2,2020.2.5,Win32,60,,m,1,,,,,,,,0.548325,1,,,,,,92,WORD,UN,33,public,STRAND,m,0.548325,,,,,,0.0496,0.012,0,0,0,,0,318,318,151,1,
,,,,,,,,,,,,,,,,,,5ec93926ce905a051f5704f3,2020-11-27_15h05.03.322,lexical_decision_task_MP_exp2,2020.2.5,Win32,60,,z,1,,,,,,,,0.57102,1,,,,,,457,NW,"ID",33,wanigh,WANIGH,z,0.57102,,,,,,0.0496,0.012,0,0,0,,0,319,319,276,1,
,,,,,,,,,,,,,,,,,,5ec93926ce905a051f5704f3,2020-11-27_15h05.03.322,lexical_decision_task_MP_exp2,2020.2.5,Win32,60,,z,1,,,,,,,,0.608245,1,,,,,,380,NW,UN,16,huniek,CAVORY,z,0.608245,,,,,,0.0496,0.012,0,0,0,,0,320,320,439,1,
,,,,,,,,,,,,,,,,,,5ec93926ce905a051f5704f3,2020-11-27_15h05.03.322,lexical_decision_task_MP_exp2,2020.2.5,Win32,60,,m,1,,,,,,,,0.4889,1,,,,,,98,WORD,UN,33,fluent,BELONG,m,0.4889,,,,,,0.0496,0.012,0,0,0,,0,321,321,157,1,
,,,,,,,,,,,,,,,,,,5ec93926ce905a051f5704f3,2020-11-27_15h05.03.322,lexical_decision_task_MP_exp2,2020.2.5,Win32,60,,z,0,,,,,,,,0.523545,0,,,,,,84,WORD,UN,33,strand,MORTAL,m,0.523545,,,,,,0.0496,0.012,0,0,0,,0,322,322,143,1,
,,,,,,,,,,,,,,,,,,5ec93926ce905a051f5704f3,2020-11-27_15h05.03.322,lexical_decision_task_MP_exp2,2020.2.5,Win32,60,,m,1,,,,,,,,0.748945,1,,,,,,120,WORD,UN,33,ponder,STRAIN,m,0.748945,,,,,,0.0496,0.012,0,0,0,,0,323,323,179,1,
,,,,,,,,,,,,,,,,,,5ec93926ce905a051f5704f3,2020-11-27_15h05.03.322,lexical_decision_task_MP_exp2,2020.2.5,Win32,60,,m,1,,,,,,,,0.468725,1,,,,,,53,WORD,"ID",16,police,POLICE,m,0.468725,,,,,,0.0496,0.012,0,0,0,,0,324,324,112,1,
,,,,,,,,,,,,,,,,,,5ec93926ce905a051f5704f3,2020-11-27_15h05.03.322,lexical_decision_task_MP_exp2,2020.2.5,Win32,60,,m,1,,,,,,,,0.680855,1,,,,,,36,WORD,"ID",16,vanish,VANISH,m,0.680855,,,,,,0.0496,0.012,0,0,0,,0,325,325,95,1,
,,,,,,,,,,,,,,,,,,5ec93926ce905a051f5704f3,2020-11-27_15h05.03.322,lexical_decision_task_MP_exp2,2020.2.5,Win32,60,,m,1,,,,,,,,0.46616,1,,,,,,124,WORD,UN,16,nickel,BLOUSE,m,0.46616,,,,,,0.0496,0.012,0,0,0,,0,326,326,183,1,
,,,,,,,,,,,,,,,,,,5ec93926ce905a051f5704f3,2020-11-27_15h05.03.322,lexical_decision_task_MP_exp2,2020.2.5,Win32,60,,m,1,,,,,,,,0.425015,1,,,,,,67,WORD,UN,33,fumble,POLICY,m,0.425015,,,,,,0.0496,0.012,0,0,0,,0,327,327,126,1,
,,,,,,,,,,,,,,,,,,5ec93926ce905a051f5704f3,2020-11-27_15h05.03.322,lexical_decision_task_MP_exp2,2020.2.5,Win32,60,,z,0,,,,,,,,0.52629,0,,,,,,183,WORD,"ID",33,mildew,MILDEW,m,0.52629,,,,,,0.0496,0.012,0,0,0,,0,328,328,2,1,
,,,,,,,,,,,,,,,,,,5ec93926ce905a051f5704f3,2020-11-27_15h05.03.322,lexical_decision_task_MP_exp2,2020.2.5,Win32,60,,m,1,,,,,,,,0.55521,1,,,,,,235,WORD,"ID",33,grumpy,GRUMPY,m,0.55521,,,,,,0.0496,0.012,0,0,0,,0,329,329,54,1,
,,,,,,,,,,,,,,,,,,5ec93926ce905a051f5704f3,2020-11-27_15h05.03.322,lexical_decision_task_MP_exp2,2020.2.5,Win32,60,,z,1,,,,,,,,0.536915,1,,,,,,257,NW,"ID",16,veniod,VENIOD,z,0.536915,,,,,,0.0496,0.012,0,0,0,,0,330,330,316,1,
,,,,,,,,,,,,,,,,,,5ec93926ce905a051f5704f3,2020-11-27_15h05.03.322,lexical_decision_task_MP_exp2,2020.2.5,Win32,60,,m,1,,,,,,,,0.552155,1,,,,,,217,WORD,"ID",33,liquor,LIQUOR,m,0.552155,,,,,,0.0496,0.012,0,0,0,,0,331,331,36,1,
,,,,,,,,,,,,,,,,,,5ec93926ce905a051f5704f3,2020-11-27_15h05.03.322,lexical_decision_task_MP_exp2,2020.2.5,Win32,60,,m,1,,,,,,,,0.5321,1,,,,,,34,WORD,"ID",16,jungle,JUNGLE,m,0.5321,,,,,,0.0496,0.012,0,0,0,,0,332,332,93,1,
,,,,,,,,,,,,,,,,,,5ec93926ce905a051f5704f3,2020-11-27_15h05.03.322,lexical_decision_task_MP_exp2,2020.2.5,Win32,60,,m,1,,,,,,,,0.43003,1,,,,,,239,WORD,"ID",33,lumber,LUMBER,m,0.43003,,,,,,0.0496,0.012,0,0,0,,0,333,333,58,1,
,,,,,,,,,,,,,,,,,,5ec93926ce905a051f5704f3,2020-11-27_15h05.03.322,lexical_decision_task_MP_exp2,2020.2.5,Win32,60,,z,1,,,,,,,,0.63489,1,,,,,,295,NW,"ID",16,gleath,GLEATH,z,0.63489,,,,,,0.0496,0.012,0,0,0,,0,334,334,354,1,
,,,,,,,,,,,,,,,,,,5ec93926ce905a051f5704f3,2020-11-27_15h05.03.322,lexical_decision_task_MP_exp2,2020.2.5,Win32,60,,z,1,,,,,,,,0.58863,1,,,,,,393,NW,UN,16,spaqux,GANOUS,z,0.58863,,,,,,0.0496,0.012,0,0,0,,0,335,335,452,1,
,,,,,,,,,,,,,,,,,,5ec93926ce905a051f5704f3,2020-11-27_15h05.03.322,lexical_decision_task_MP_exp2,2020.2.5,Win32,60,,m,1,,,,,,,,0.534155,1,,,,,,130,WORD,UN,16,quench,STUPID,m,0.534155,,,,,,0.0496,0.012,0,0,0,,0,336,336,189,1,
,,,,,,,,,,,,,,,,,,5ec93926ce905a051f5704f3,2020-11-27_15h05.03.322,lexical_decision_task_MP_exp2,2020.2.5,Win32,60,,z,1,,,,,,,,0.67028,1,,,,,,348,NW,UN,33,asylen,DUMPLE,z,0.67028,,,,,,0.0496,0.012,0,0,0,,0,337,337,407,1,
,,,,,,,,,,,,,,,,,,5ec93926ce905a051f5704f3,2020-11-27_15h05.03.322,lexical_decision_task_MP_exp2,2020.2.5,Win32,60,,m,1,,,,,,,,0.518615,1,,,,,,46,WORD,"ID",16,single,SINGLE,m,0.518615,,,,,,0.0496,0.012,0,0,0,,0,338,338,105,1,
,,,,,,,,,,,,,,,,,,5ec93926ce905a051f5704f3,2020-11-27_15h05.03.322,lexical_decision_task_MP_exp2,2020.2.5,Win32,60,,m,1,,,,,,,,0.522115,1,,,,,,91,WORD,UN,33,hunger,EXPAND,m,0.522115,,,,,,0.0496,0.012,0,0,0,,0,339,339,150,1,
,,,,,,,,,,,,,,,,,,5ec93926ce905a051f5704f3,2020-11-27_15h05.03.322,lexical_decision_task_MP_exp2,2020.2.5,Win32,60,,z,1,,,,,,,,0.54706,1,,,,,,428,NW,"ID",33,tandly,TANDLY,z,0.54706,,,,,,0.0496,0.012,0,0,0,,0,340,340,247,1,
,,,,,,,,,,,,,,,,,,5ec93926ce905a051f5704f3,2020-11-27_15h05.03.322,lexical_decision_task_MP_exp2,2020.2.5,Win32,60,,z,1,,,,,,,,0.68611,1,,,,,,447,NW,"ID",33,gircue,GIRCUE,z,0.68611,,,,,,0.0496,0.012,0,0,0,,0,341,341,266,1,
,,,,,,,,,,,,,,,,,,5ec93926ce905a051f5704f3,2020-11-27_15h05.03.322,lexical_decision_task_MP_exp2,2020.2.5,Win32,60,,m,1,,,,,,,,0.61917,1,,,,,,106,WORD,UN,33,slogan,RANSOM,m,0.61917,,,,,,0.0496,0.012,0,0,0,,0,342,342,165,1,
,,,,,,,,,,,,,,,,,,5ec93926ce905a051f5704f3,2020-11-27_15h05.03.322,lexical_decision_task_MP_exp2,2020.2.5,Win32,60,,z,1,,,,,,,,0.68156,1,,,,,,479,NW,"ID",33,lobush,LOBUSH,z,0.68156,,,,,,0.0496,0.012,0,0,0,,0,343,343,298,1,
,,,,,,,,,,,,,,,,,,5ec93926ce905a051f5704f3,2020-11-27_15h05.03.322,lexical_decision_task_MP_exp2,2020.2.5,Win32,60,,z,0,,,,,,,,0.509815,0,,,,,,61,WORD,UN,33,region,PONDER,m,0.509815,,,,,,0.0496,0.012,0,0,0,,0,344,344,120,1,
,,,,,,,,,,,,,,,,,,5ec93926ce905a051f5704f3,2020-11-27_15h05.03.322,lexical_decision_task_MP_exp2,2020.2.5,Win32,60,,z,0,,,,,,,,0.482495,0,,,,,,82,WORD,UN,33,result,STIGMA,m,0.482495,,,,,,0.0496,0.012,0,0,0,,0,345,345,141,1,
,,,,,,,,,,,,,,,,,,5ec93926ce905a051f5704f3,2020-11-27_15h05.03.322,lexical_decision_task_MP_exp2,2020.2.5,Win32,60,,z,1,,,,,,,,0.61675,1,,,,,,423,NW,"ID",33,streld,STRELD,z,0.61675,,,,,,0.0496,0.012,0,0,0,,0,346,346,242,1,
,,,,,,,,,,,,,,,,,,5ec93926ce905a051f5704f3,2020-11-27_15h05.03.322,lexical_decision_task_MP_exp2,2020.2.5,Win32,60,,m,1,,,,,,,,0.431405,1,,,,,,26,WORD,"ID",16,sprint,SPRINT,m,0.431405,,,,,,0.0496,0.012,0,0,0,,0,347,347,85,1,
,,,,,,,,,,,,,,,,,,5ec93926ce905a051f5704f3,2020-11-27_15h05.03.322,lexical_decision_task_MP_exp2,2020.2.5,Win32,60,,m,1,,,,,,,,0.606575,1,,,,,,184,WORD,"ID",33,sleazy,SLEAZY,m,0.606575,,,,,,0.0496,0.012,0,0,0,,0,348,348,3,1,
,,,,,,,,,,,,,,,,,,5ec93926ce905a051f5704f3,2020-11-27_15h05.03.322,lexical_decision_task_MP_exp2,2020.2.5,Win32,60,,z,1,,,,,,,,0.52813,1,,,,,,340,NW,UN,33,myrtie,FIATCH,z,0.52813,,,,,,0.0496,0.012,0,0,0,,0,349,349,399,1,
,,,,,,,,,,,,,,,,,,5ec93926ce905a051f5704f3,2020-11-27_15h05.03.322,lexical_decision_task_MP_exp2,2020.2.5,Win32,60,,m,1,,,,,,,,0.48545,1,,,,,,209,WORD,"ID",33,search,SEARCH,m,0.48545,,,,,,0.0496,0.012,0,0,0,,0,350,350,28,1,
,,,,,,,,,,,,,,,,,,5ec93926ce905a051f5704f3,2020-11-27_15h05.03.322,lexical_decision_task_MP_exp2,2020.2.5,Win32,60,,z,1,,,,,,,,0.655815,1,,,,,,381,NW,UN,16,sarley,HUNIEK,z,0.655815,,,,,,0.0496,0.012,0,0,0,,0,351,351,440,1,
,,,,,,,,,,,,,,,,,,5ec93926ce905a051f5704f3,2020-11-27_15h05.03.322,lexical_decision_task_MP_exp2,2020.2.5,Win32,60,,m,1,,,,,,,,0.54824,1,,,,,,12,WORD,"ID",16,orange,ORANGE,m,0.54824,,,,,,0.0496,0.012,0,0,0,,0,352,352,71,1,
,,,,,,,,,,,,,,,,,,5ec93926ce905a051f5704f3,2020-11-27_15h05.03.322,lexical_decision_task_MP_exp2,2020.2.5,Win32,60,,z,0,,,,,,,,0.49958,0,,,,,,10,WORD,"ID",16,ethnic,ETHNIC,m,0.49958,,,,,,0.0496,0.012,0,0,0,,0,353,353,69,1,
,,,,,,,,,,,,,,,,,,5ec93926ce905a051f5704f3,2020-11-27_15h05.03.322,lexical_decision_task_MP_exp2,2020.2.5,Win32,60,,m,1,,,,,,,,0.565365,1,,,,,,236,WORD,"ID",33,pirate,PIRATE,m,0.565365,,,,,,0.0496,0.012,0,0,0,,0,354,354,55,1,
,,,,,,,,,,,,,,,,,,5ec93926ce905a051f5704f3,2020-11-27_15h05.03.322,lexical_decision_task_MP_exp2,2020.2.5,Win32,60,,z,1,,,,,,,,0.509535,1,,,,,,400,NW,UN,16,mustil,WEAROX,z,0.509535,,,,,,0.0496,0.012,0,0,0,,0,355,355,459,1,
,,,,,,,,,,,,,,,,,,5ec93926ce905a051f5704f3,2020-11-27_15h05.03.322,lexical_decision_task_MP_exp2,2020.2.5,Win32,60,,z,1,,,,,,,,0.44846,1,,,,,,241,NW,"ID",16,smenco,SMENCO,z,0.44846,,,,,,0.0496,0.012,0,0,0,,0,356,356,300,1,
,,,,,,,,,,,,,,,,,,5ec93926ce905a051f5704f3,2020-11-27_15h05.03.322,lexical_decision_task_MP_exp2,2020.2.5,Win32,60,,m,1,,,,,,,,0.488365,1,,,,,,94,WORD,UN,33,thread,TRAVEL,m,0.488365,,,,,,0.0496,0.012,0,0,0,,0,357,357,153,1,
,,,,,,,,,,,,,,,,,,5ec93926ce905a051f5704f3,2020-11-27_15h05.03.322,lexical_decision_task_MP_exp2,2020.2.5,Win32,60,,z,0,,,,,,,,0.43935,0,,,,,,192,WORD,"ID",33,plague,PLAGUE,m,0.43935,,,,,,0.0496,0.012,0,0,0,,0,358,358,11,1,
,,,,,,,,,,,,,,,,,,5ec93926ce905a051f5704f3,2020-11-27_15h05.03.322,lexical_decision_task_MP_exp2,2020.2.5,Win32,60,,z,1,,,,,,,,0.613945,1,,,,,,372,NW,UN,16,bigent,RAMILY,z,0.613945,,,,,,0.0496,0.012,0,0,0,,0,359,359,431,1,
,,,,,,,,,,,,,,,,,,5ec93926ce905a051f5704f3,2020-11-27_15h05.03.322,lexical_decision_task_MP_exp2,2020.2.5,Win32,60,,z,1,,,,,,,,0.498725,1,,,,,,247,NW,"ID",16,blarge,BLARGE,z,0.498725,,,,,,0.0496,0.012,0,0,0,,0,360,360,306,1,
,,,,,,,,,,,,,,,,,,5ec93926ce905a051f5704f3,2020-11-27_15h05.03.322,lexical_decision_task_MP_exp2,2020.2.5,Win32,60,,z,1,,,,,,,,0.44217,1,,,,,,296,NW,"ID",16,beinch,BEINCH,z,0.44217,,,,,,0.0496,0.012,0,0,0,,0,361,361,355,1,
,,,,,,,,,,,,,,,,,,5ec93926ce905a051f5704f3,2020-11-27_15h05.03.322,lexical_decision_task_MP_exp2,2020.2.5,Win32,60,,m,0,,,,,,,,0.554315,0,,,,,,260,NW,"ID",16,unject,UNJECT,z,0.554315,,,,,,0.1104,-0.4424,1,0,0,,0,362,362,319,1,break_done_button
,,,,,,,,,,,,,,,,,,5ec93926ce905a051f5704f3,2020-11-27_15h05.03.322,lexical_decision_task_MP_exp2,2020.2.5,Win32,60,,z,1,,,,,,,,0.81611,1,,,,,,287,NW,"ID",16,nymbel,NYMBEL,z,0.81611,,,,,,0.1104,-0.4424,0,0,0,,0,363,363,346,1,
,,,,,,,,,,,,,,,,,,5ec93926ce905a051f5704f3,2020-11-27_15h05.03.322,lexical_decision_task_MP_exp2,2020.2.5,Win32,60,,m,1,,,,,,,,0.51536,1,,,,,,105,WORD,UN,33,ransom,NUMBER,m,0.51536,,,,,,0.1104,-0.4424,0,0,0,,0,364,364,164,1,
,,,,,,,,,,,,,,,,,,5ec93926ce905a051f5704f3,2020-11-27_15h05.03.322,lexical_decision_task_MP_exp2,2020.2.5,Win32,60,,z,1,,,,,,,,0.58307,1,,,,,,389,NW,UN,16,hatrus,WITMER,z,0.58307,,,,,,0.1104,-0.4424,0,0,0,,0,365,365,448,1,
,,,,,,,,,,,,,,,,,,5ec93926ce905a051f5704f3,2020-11-27_15h05.03.322,lexical_decision_task_MP_exp2,2020.2.5,Win32,60,,z,0,,,,,,,,0.43208,0,,,,,,203,WORD,"ID",33,phrase,PHRASE,m,0.43208,,,,,,0.1104,-0.4424,0,0,0,,0,366,366,22,1,
,,,,,,,,,,,,,,,,,,5ec93926ce905a051f5704f3,2020-11-27_15h05.03.322,lexical_decision_task_MP_exp2,2020.2.5,Win32,60,,z,1,,,,,,,,0.450955,1,,,,,,326,NW,UN,33,plenac,IGUADE,z,0.450955,,,,,,0.1104,-0.4424,0,0,0,,0,367,367,385,1,
,,,,,,,,,,,,,,,,,,5ec93926ce905a051f5704f3,2020-11-27_15h05.03.322,lexical_decision_task_MP_exp2,2020.2.5,Win32,60,,m,1,,,,,,,,0.41791,1,,,,,,147,WORD,UN,16,custom,GARLIC,m,0.41791,,,,,,0.1104,-0.4424,0,0,0,,0,368,368,206,1,
,,,,,,,,,,,,,,,,,,5ec93926ce905a051f5704f3,2020-11-27_15h05.03.322,lexical_decision_task_MP_exp2,2020.2.5,Win32,60,,m,1,,,,,,,,0.389825,1,,,,,,143,WORD,UN,16,sponge,REASON,m,0.389825,,,,,,0.1104,-0.4424,0,0,0,,0,369,369,202,1,
,,,,,,,,,,,,,,,,,,5ec93926ce905a051f5704f3,2020-11-27_15h05.03.322,lexical_decision_task_MP_exp2,2020.2.5,Win32,60,,m,1,,,,,,,,0.446215,1,,,,,,126,WORD,UN,16,castle,ENOUGH,m,0.446215,,,,,,0.1104,-0.4424,0,0,0,,0,370,370,185,1,
,,,,,,,,,,,,,,,,,,5ec93926ce905a051f5704f3,2020-11-27_15h05.03.322,lexical_decision_task_MP_exp2,2020.2.5,Win32,60,,z,1,,,,,,,,0.42827,1,,,,,,358,NW,UN,33,fonver,FLEACK,z,0.42827,,,,,,0.1104,-0.4424,0,0,0,,0,371,371,417,1,
,,,,,,,,,,,,,,,,,,5ec93926ce905a051f5704f3,2020-11-27_15h05.03.322,lexical_decision_task_MP_exp2,2020.2.5,Win32,60,,z,1,,,,,,,,0.54148,1,,,,,,290,NW,"ID",16,splino,SPLINO,z,0.54148,,,,,,0.1104,-0.4424,0,0,0,,0,372,372,349,1,
,,,,,,,,,,,,,,,,,,5ec93926ce905a051f5704f3,2020-11-27_15h05.03.322,lexical_decision_task_MP_exp2,2020.2.5,Win32,60,,m,1,,,,,,,,0.427735,1,,,,,,20,WORD,"ID",16,breast,BREAST,m,0.427735,,,,,,0.1104,-0.4424,0,0,0,,0,373,373,79,1,
,,,,,,,,,,,,,,,,,,5ec93926ce905a051f5704f3,2020-11-27_15h05.03.322,lexical_decision_task_MP_exp2,2020.2.5,Win32,60,,z,1,,,,,,,,0.45182,1,,,,,,254,NW,"ID",16,varosh,VAROSH,z,0.45182,,,,,,0.1104,-0.4424,0,0,0,,0,374,374,313,1,
,,,,,,,,,,,,,,,,,,5ec93926ce905a051f5704f3,2020-11-27_15h05.03.322,lexical_decision_task_MP_exp2,2020.2.5,Win32,60,,z,0,,,,,,,,0.43693,0,,,,,,102,WORD,UN,33,bounce,DIRECT,m,0.43693,,,,,,0.1104,-0.4424,0,0,0,,0,375,375,161,1,
,,,,,,,,,,,,,,,,,,5ec93926ce905a051f5704f3,2020-11-27_15h05.03.322,lexical_decision_task_MP_exp2,2020.2.5,Win32,60,,z,1,,,,,,,,0.558645,1,,,,,,426,NW,"ID",33,urivel,URIVEL,z,0.558645,,,,,,0.1104,-0.4424,0,0,0,,0,376,376,245,1,
,,,,,,,,,,,,,,,,,,5ec93926ce905a051f5704f3,2020-11-27_15h05.03.322,lexical_decision_task_MP_exp2,2020.2.5,Win32,60,,m,1,,,,,,,,0.401505,1,,,,,,39,WORD,"ID",16,insect,INSECT,m,0.401505,,,,,,0.1104,-0.4424,0,0,0,,0,377,377,98,1,
,,,,,,,,,,,,,,,,,,5ec93926ce905a051f5704f3,2020-11-27_15h05.03.322,lexical_decision_task_MP_exp2,2020.2.5,Win32,60,,m,1,,,,,,,,0.532795,1,,,,,,49,WORD,"ID",16,survey,SURVEY,m,0.532795,,,,,,0.1104,-0.4424,0,0,0,,0,378,378,108,1,
,,,,,,,,,,,,,,,,,,5ec93926ce905a051f5704f3,2020-11-27_15h05.03.322,lexical_decision_task_MP_exp2,2020.2.5,Win32,60,,z,1,,,,,,,,0.53716,1,,,,,,321,NW,UN,33,slanch,MIATOR,z,0.53716,,,,,,0.1104,-0.4424,0,0,0,,0,379,379,380,1,
,,,,,,,,,,,,,,,,,,5ec93926ce905a051f5704f3,2020-11-27_15h05.03.322,lexical_decision_task_MP_exp2,2020.2.5,Win32,60,,m,1,,,,,,,,0.506695,1,,,,,,45,WORD,"ID",16,clergy,CLERGY,m,0.506695,,,,,,0.1104,-0.4424,0,0,0,,0,380,380,104,1,
,,,,,,,,,,,,,,,,,,5ec93926ce905a051f5704f3,2020-11-27_15h05.03.322,lexical_decision_task_MP_exp2,2020.2.5,Win32,60,,z,1,,,,,,,,0.62927,1,,,,,,419,NW,UN,16,gushop,SLOUNT,z,0.62927,,,,,,0.1104,-0.4424,0,0,0,,0,381,381,478,1,
,,,,,,,,,,,,,,,,,,5ec93926ce905a051f5704f3,2020-11-27_15h05.03.322,lexical_decision_task_MP_exp2,2020.2.5,Win32,60,,m,1,,,,,,,,0.511165,1,,,,,,145,WORD,UN,16,couple,PARISH,m,0.511165,,,,,,0.1104,-0.4424,0,0,0,,0,382,382,204,1,
,,,,,,,,,,,,,,,,,,5ec93926ce905a051f5704f3,2020-11-27_15h05.03.322,lexical_decision_task_MP_exp2,2020.2.5,Win32,60,,z,1,,,,,,,,0.70759,1,,,,,,454,NW,"ID",33,scouge,SCOUGE,z,0.70759,,,,,,0.1104,-0.4424,0,0,0,,0,383,383,273,1,
,,,,,,,,,,,,,,,,,,5ec93926ce905a051f5704f3,2020-11-27_15h05.03.322,lexical_decision_task_MP_exp2,2020.2.5,Win32,60,,z,1,,,,,,,,0.54214,1,,,,,,448,NW,"ID",33,sadent,SADENT,z,0.54214,,,,,,0.1104,-0.4424,0,0,0,,0,384,384,267,1,
,,,,,,,,,,,,,,,,,,5ec93926ce905a051f5704f3,2020-11-27_15h05.03.322,lexical_decision_task_MP_exp2,2020.2.5,Win32,60,,m,0,,,,,,,,0.502495,0,,,,,,277,NW,"ID",16,petain,PETAIN,z,0.502495,,,,,,0.1104,-0.4424,0,0,0,,0,385,385,336,1,
,,,,,,,,,,,,,,,,,,5ec93926ce905a051f5704f3,2020-11-27_15h05.03.322,lexical_decision_task_MP_exp2,2020.2.5,Win32,60,,z,1,,,,,,,,0.502225,1,,,,,,350,NW,UN,33,tiesch,NAGURS,z,0.502225,,,,,,0.1104,-0.4424,0,0,0,,0,386,386,409,1,
,,,,,,,,,,,,,,,,,,5ec93926ce905a051f5704f3,2020-11-27_15h05.03.322,lexical_decision_task_MP_exp2,2020.2.5,Win32,60,,z,1,,,,,,,,0.53461,1,,,,,,267,NW,"ID",16,pasink,PASINK,z,0.53461,,,,,,0.1104,-0.4424,0,0,0,,0,387,387,326,1,
,,,,,,,,,,,,,,,,,,5ec93926ce905a051f5704f3,2020-11-27_15h05.03.322,lexical_decision_task_MP_exp2,2020.2.5,Win32,60,,m,0,,,,,,,,0.41884,0,,,,,,322,NW,UN,33,rosail,SLANCH,z,0.41884,,,,,,0.1104,-0.4424,0,0,0,,0,388,388,381,1,
,,,,,,,,,,,,,,,,,,5ec93926ce905a051f5704f3,2020-11-27_15h05.03.322,lexical_decision_task_MP_exp2,2020.2.5,Win32,60,,m,1,,,,,,,,0.499235,1,,,,,,198,WORD,"ID",33,wicked,WICKED,m,0.499235,,,,,,0.1104,-0.4424,0,0,0,,0,389,389,17,1,
,,,,,,,,,,,,,,,,,,5ec93926ce905a051f5704f3,2020-11-27_15h05.03.322,lexical_decision_task_MP_exp2,2020.2.5,Win32,60,,m,1,,,,,,,,0.63174,1,,,,,,190,WORD,"ID",33,backup,BACKUP,m,0.63174,,,,,,0.1104,-0.4424,0,0,0,,0,390,390,9,1,
,,,,,,,,,,,,,,,,,,5ec93926ce905a051f5704f3,2020-11-27_15h05.03.322,lexical_decision_task_MP_exp2,2020.2.5,Win32,60,,m,0,,,,,,,,0.51483,0,,,,,,304,NW,UN,33,forgle,CLUDIE,z,0.51483,,,,,,0.1104,-0.4424,0,0,0,,0,391,391,363,1,
,,,,,,,,,,,,,,,,,,5ec93926ce905a051f5704f3,2020-11-27_15h05.03.322,lexical_decision_task_MP_exp2,2020.2.5,Win32,60,,m,1,,,,,,,,0.716055,1,,,,,,48,WORD,"ID",16,walnut,WALNUT,m,0.716055,,,,,,0.1104,-0.4424,0,0,0,,0,392,392,107,1,
,,,,,,,,,,,,,,,,,,5ec93926ce905a051f5704f3,2020-11-27_15h05.03.322,lexical_decision_task_MP_exp2,2020.2.5,Win32,60,,z,1,,,,,,,,0.5637,1,,,,,,431,NW,"ID",33,chrums,CHRUMS,z,0.5637,,,,,,0.1104,-0.4424,0,0,0,,0,393,393,250,1,
,,,,,,,,,,,,,,,,,,5ec93926ce905a051f5704f3,2020-11-27_15h05.03.322,lexical_decision_task_MP_exp2,2020.2.5,Win32,60,,z,1,,,,,,,,0.448655,1,,,,,,299,NW,"ID",16,sturch,STURCH,z,0.448655,,,,,,0.1104,-0.4424,0,0,0,,0,394,394,358,1,
,,,,,,,,,,,,,,,,,,5ec93926ce905a051f5704f3,2020-11-27_15h05.03.322,lexical_decision_task_MP_exp2,2020.2.5,Win32,60,,z,1,,,,,,,,0.434535,1,,,,,,355,NW,UN,33,othnis,ZINGLY,z,0.434535,,,,,,0.1104,-0.4424,0,0,0,,0,395,395,414,1,
,,,,,,,,,,,,,,,,,,5ec93926ce905a051f5704f3,2020-11-27_15h05.03.322,lexical_decision_task_MP_exp2,2020.2.5,Win32,60,,z,1,,,,,,,,0.429165,1,,,,,,343,NW,UN,33,scrily,AIMOSY,z,0.429165,,,,,,0.1104,-0.4424,0,0,0,,0,396,396,402,1,
,,,,,,,,,,,,,,,,,,5ec93926ce905a051f5704f3,2020-11-27_15h05.03.322,lexical_decision_task_MP_exp2,2020.2.5,Win32,60,,m,1,,,,,,,,0.44923,1,,,,,,15,WORD,"ID",16,amount,AMOUNT,m,0.44923,,,,,,0.1104,-0.4424,0,0,0,,0,397,397,74,1,
,,,,,,,,,,,,,,,,,,5ec93926ce905a051f5704f3,2020-11-27_15h05.03.322,lexical_decision_task_MP_exp2,2020.2.5,Win32,60,,m,1,,,,,,,,0.54846,1,,,,,,152,WORD,UN,16,behold,ROCKET,m,0.54846,,,,,,0.1104,-0.4424,0,0,0,,0,398,398,211,1,
,,,,,,,,,,,,,,,,,,5ec93926ce905a051f5704f3,2020-11-27_15h05.03.322,lexical_decision_task_MP_exp2,2020.2.5,Win32,60,,z,1,,,,,,,,0.414425,1,,,,,,349,NW,UN,33,nagurs,ASYLEN,z,0.414425,,,,,,0.1104,-0.4424,0,0,0,,0,399,399,408,1,
,,,,,,,,,,,,,,,,,,5ec93926ce905a051f5704f3,2020-11-27_15h05.03.322,lexical_decision_task_MP_exp2,2020.2.5,Win32,60,,m,1,,,,,,,,0.60069,1,,,,,,8,WORD,"ID",16,abrupt,ABRUPT,m,0.60069,,,,,,0.1104,-0.4424,0,0,0,,0,400,400,67,1,
,,,,,,,,,,,,,,,,,,5ec93926ce905a051f5704f3,2020-11-27_15h05.03.322,lexical_decision_task_MP_exp2,2020.2.5,Win32,60,,z,1,,,,,,,,0.569665,1,,,,,,424,NW,"ID",33,praile,PRAILE,z,0.569665,,,,,,0.1104,-0.4424,0,0,0,,0,401,401,243,1,
,,,,,,,,,,,,,,,,,,5ec93926ce905a051f5704f3,2020-11-27_15h05.03.322,lexical_decision_task_MP_exp2,2020.2.5,Win32,60,,z,1,,,,,,,,0.468095,1,,,,,,429,NW,"ID",33,funtle,FUNTLE,z,0.468095,,,,,,0.1104,-0.4424,0,0,0,,0,402,402,248,1,
,,,,,,,,,,,,,,,,,,5ec93926ce905a051f5704f3,2020-11-27_15h05.03.322,lexical_decision_task_MP_exp2,2020.2.5,Win32,60,,m,1,,,,,,,,0.53398,1,,,,,,176,WORD,UN,16,advent,STRIFE,m,0.53398,,,,,,0.1104,-0.4424,0,0,0,,0,403,403,235,1,
,,,,,,,,,,,,,,,,,,5ec93926ce905a051f5704f3,2020-11-27_15h05.03.322,lexical_decision_task_MP_exp2,2020.2.5,Win32,60,,m,1,,,,,,,,0.451195,1,,,,,,135,WORD,UN,16,bleach,IMPORT,m,0.451195,,,,,,0.1104,-0.4424,0,0,0,,0,404,404,194,1,
,,,,,,,,,,,,,,,,,,5ec93926ce905a051f5704f3,2020-11-27_15h05.03.322,lexical_decision_task_MP_exp2,2020.2.5,Win32,60,,m,1,,,,,,,,0.38195,1,,,,,,55,WORD,"ID",16,stroke,STROKE,m,0.38195,,,,,,0.1104,-0.4424,0,0,0,,0,405,405,114,1,
