counterbalancing_condition,instr_done_keyboard.keys,instr_done_keyboard.rt,instr_done_touch.x,instr_done_touch.y,instr_done_touch.leftButton,instr_done_touch.midButton,instr_done_touch.rightButton,instruction_pages.thisRepN,instruction_pages.thisTrialN,instruction_pages.thisN,instruction_pages.thisIndex,instruction_pages.ran,pageN,phase,instruct_text,has_image,instruct_image,participant,date,expName,psychopyVersion,OS,frameRate,instr_done_touch.clicked_name,response.keys,response.corr,touch_resp.x,touch_resp.y,touch_resp.leftButton,touch_resp.midButton,touch_resp.rightButton,touch_resp.time,touch_resp.clicked_name,rt,corr,practice_trials.thisRepN,practice_trials.thisTrialN,practice_trials.thisN,practice_trials.thisIndex,practice_trials.ran,TrialID,StimulusType,Condition,PrimeDuration,Prime,Target,corrAns,end_of_practice_trials_pages.thisRepN,end_of_practice_trials_pages.thisTrialN,end_of_practice_trials_pages.thisN,end_of_practice_trials_pages.thisIndex,end_of_practice_trials_pages.ran,break_done_touch.x,break_done_touch.y,break_done_touch.leftButton,break_done_touch.midButton,break_done_touch.rightButton,break_done_keyboard.keys,experiment_trials.thisRepN,experiment_trials.thisTrialN,experiment_trials.thisN,experiment_trials.thisIndex,experiment_trials.ran,break_done_touch.clicked_name
2,space,17.208875,0.069444473,-0.394444471,0,0,0,0,0,0,0,1,1,instructions,"INSTRUCTIONS
At the start of each trial, look at the hash marks (######) in the center of the screen. After a moment, a string of letters will appear. Your task is to indicate if the letter string forms a word or not (i.e., if it is a nonword). For example, AUTHOR is a word while AUTHON is a nonword.

Press the space bar or touch the button below to continue.",0,,5edac90b269f7f71877a26b6,2020-11-27_10h01.05.013,lexical_decision_task_MP_exp2,2020.2.5,Win32,60,,,,,,,,,,,,,,,,,,,,,,,,,,,,,,,,,,,,,,,,,
,,,0.000925954,-0.402777778,1,0,0,0,1,1,1,1,2,instructions,"If your device has a keyboard, press the 'Z' key for nonwords and the 'M' key for words.





Press the space bar or touch the button below to continue.",1,keyboard-example.gif,5edac90b269f7f71877a26b6,2020-11-27_10h01.05.013,lexical_decision_task_MP_exp2,2020.2.5,Win32,60,instr_done_button,,,,,,,,,,,,,,,,,,,,,,,,,,,,,,,,,,,,,,,,
,,,0.025925954,-0.402777778,1,0,0,0,2,2,2,1,3,instructions,"If you are using a touchscreen only device, use the buttons on the screen. Do not use the mouse.





Press the space bar or touch the button below to continue.",1,touchscreen-example.gif,5edac90b269f7f71877a26b6,2020-11-27_10h01.05.013,lexical_decision_task_MP_exp2,2020.2.5,Win32,60,instr_done_button,,,,,,,,,,,,,,,,,,,,,,,,,,,,,,,,,,,,,,,,
,,,0.019444444,-0.429629686,1,0,0,0,3,3,3,1,4,instructions,"It is very important that you respond as quickly and accurately as possible, as each letter string will only be on the screen for two seconds. If you do not respond within this time, the message 'Too slow!' will be displayed and the experiment will progress to the next letter string. The first 20 trials will be practice trials and you will receive feedback on your answers. 

Press the space bar or touch the button below to start the practice trials.",0,,5edac90b269f7f71877a26b6,2020-11-27_10h01.05.013,lexical_decision_task_MP_exp2,2020.2.5,Win32,60,instr_done_button,,,,,,,,,,,,,,,,,,,,,,,,,,,,,,,,,,,,,,,,
,,,,,,,,,,,,,,,,,,5edac90b269f7f71877a26b6,2020-11-27_10h01.05.013,lexical_decision_task_MP_exp2,2020.2.5,Win32,60,,,0,-0.324074046,-0.346296353,1,0,0,1.023825,button_left,1.023825,0,0,0,0,5,1,1006,WORD,UN,33,frenzy,OBTAIN,m,,,,,,,,,,,,,,,,,
,,,,,,,,,,,,,,,,,,5edac90b269f7f71877a26b6,2020-11-27_10h01.05.013,lexical_decision_task_MP_exp2,2020.2.5,Win32,60,,,0,0.390740797,-0.297222222,1,0,0,1.21194,button_right,1.21194,0,0,1,1,9,1,1010,NW,"ID",33,fariny,FARINY,z,,,,,,,,,,,,,,,,,
,,,,,,,,,,,,,,,,,,5edac90b269f7f71877a26b6,2020-11-27_10h01.05.013,lexical_decision_task_MP_exp2,2020.2.5,Win32,60,,,0,-0.304629601,-0.308333333,1,0,0,1.32207,button_left,1.32207,1,0,2,2,10,1,1011,NW,"ID",16,inlade,INLADE,z,,,,,,,,,,,,,,,,,
,,,,,,,,,,,,,,,,,,5edac90b269f7f71877a26b6,2020-11-27_10h01.05.013,lexical_decision_task_MP_exp2,2020.2.5,Win32,60,,,0,0.354629686,-0.282407464,1,0,0,0.773775,button_right,0.773775,1,0,3,3,0,1,1001,WORD,"ID",33,utopia,UTOPIA,m,,,,,,,,,,,,,,,,,
,,,,,,,,,,,,,,,,,,5edac90b269f7f71877a26b6,2020-11-27_10h01.05.013,lexical_decision_task_MP_exp2,2020.2.5,Win32,60,,,0,0.326851908,-0.30648151,1,0,0,0.59006,button_right,0.59006,1,0,4,4,7,1,1008,WORD,UN,16,hurdle,VOLUME,m,,,,,,,,,,,,,,,,,
,,,,,,,,,,,,,,,,,,5edac90b269f7f71877a26b6,2020-11-27_10h01.05.013,lexical_decision_task_MP_exp2,2020.2.5,Win32,60,,,0,0.316666667,-0.297222222,1,0,0,0.70695,button_right,0.70695,1,0,5,5,3,1,1004,WORD,"ID",16,matrix,MATRIX,m,,,,,,,,,,,,,,,,,
,,,,,,,,,,,,,,,,,,5edac90b269f7f71877a26b6,2020-11-27_10h01.05.013,lexical_decision_task_MP_exp2,2020.2.5,Win32,60,,,0,-0.312037023,-0.333333333,1,0,0,0.72926,button_left,0.72926,1,0,6,6,13,1,1014,NW,UN,33,winfer,ROUPET,z,,,,,,,,,,,,,,,,,
,,,,,,,,,,,,,,,,,,5edac90b269f7f71877a26b6,2020-11-27_10h01.05.013,lexical_decision_task_MP_exp2,2020.2.5,Win32,60,,,0,-0.266666667,-0.299074131,1,0,0,0.821725,button_left,0.821725,1,0,7,7,15,1,1016,NW,UN,16,mushed,WHAISE,z,,,,,,,,,,,,,,,,,
,,,,,,,,,,,,,,,,,,5edac90b269f7f71877a26b6,2020-11-27_10h01.05.013,lexical_decision_task_MP_exp2,2020.2.5,Win32,60,,,0,-0.282407379,-0.319444444,1,0,0,0.822155,button_left,0.822155,1,0,8,8,11,1,1012,NW,"ID",16,rashet,RASHET,z,,,,,,,,,,,,,,,,,
,,,,,,,,,,,,,,,,,,5edac90b269f7f71877a26b6,2020-11-27_10h01.05.013,lexical_decision_task_MP_exp2,2020.2.5,Win32,60,,,0,0.350925954,-0.292592621,1,0,0,0.52346,button_right,0.52346,1,0,9,9,2,1,1003,WORD,"ID",16,almond,ALMOND,m,,,,,,,,,,,,,,,,,
,,,,,,,,,,,,,,,,,,5edac90b269f7f71877a26b6,2020-11-27_10h01.05.013,lexical_decision_task_MP_exp2,2020.2.5,Win32,60,,,0,0.283333333,-0.33148151,1,0,0,1.056365,button_right,1.056365,0,0,10,10,14,1,1015,NW,UN,16,miaber,THRALE,z,,,,,,,,,,,,,,,,,
,,,,,,,,,,,,,,,,,,5edac90b269f7f71877a26b6,2020-11-27_10h01.05.013,lexical_decision_task_MP_exp2,2020.2.5,Win32,60,,,0,0.334259288,-0.285185242,1,0,0,0.57296,button_right,0.57296,1,0,11,11,4,1,1005,WORD,UN,33,abound,SQUEAK,m,,,,,,,,,,,,,,,,,
,,,,,,,,,,,,,,,,,,5edac90b269f7f71877a26b6,2020-11-27_10h01.05.013,lexical_decision_task_MP_exp2,2020.2.5,Win32,60,,,0,0.312037065,-0.305555556,1,0,0,0.66277,button_right,0.66277,1,0,12,12,1,1,1002,WORD,"ID",33,adjust,ADJUST,m,,,,,,,,,,,,,,,,,
,,,,,,,,,,,,,,,,,,5edac90b269f7f71877a26b6,2020-11-27_10h01.05.013,lexical_decision_task_MP_exp2,2020.2.5,Win32,60,,,0,0.290740797,-0.259259288,1,0,0,0.89038,button_right,0.89038,1,0,13,13,6,1,1007,WORD,UN,16,tropic,ZOMBIE,m,,,,,,,,,,,,,,,,,
,,,,,,,,,,,,,,,,,,5edac90b269f7f71877a26b6,2020-11-27_10h01.05.013,lexical_decision_task_MP_exp2,2020.2.5,Win32,60,,,0,-0.248148134,-0.318518575,1,0,0,0.959055,button_left,0.959055,1,0,14,14,8,1,1009,NW,"ID",33,aslert,ASLERT,z,,,,,,,,,,,,,,,,,
,,,,,,,,,,,,,,,,,,5edac90b269f7f71877a26b6,2020-11-27_10h01.05.013,lexical_decision_task_MP_exp2,2020.2.5,Win32,60,,,0,-0.283333333,-0.321296353,1,0,0,1.00654,button_left,1.00654,1,0,15,15,12,1,1013,NW,UN,33,adveil,SPRINY,z,,,,,,,,,,,,,,,,,
,,,0.03148151,-0.422222222,1,0,0,,,,,,1,end_of_practice,"You have completed the practice trials. During the experimental trials, you will not receive feedback, but it is very important that you respond as quickly and accurately as possible. 
Before you begin, please ensure that you are in a comfortable and quiet location and will not be disturbed for about 15 minutes, as we cannot use your data if you do not complete all the trials. 
There will be opportunities to take breaks at regular intervals during the experiment. When you are ready to start the experimental trials, please press space or touch the button below.",,,5edac90b269f7f71877a26b6,2020-11-27_10h01.05.013,lexical_decision_task_MP_exp2,2020.2.5,Win32,60,instr_done_button,,,,,,,,,,,,,,,,,,,,,,,,0,0,0,0,1,,,,,,,,,,,,
,,,,,,,,,,,,,,,,,,5edac90b269f7f71877a26b6,2020-11-27_10h01.05.013,lexical_decision_task_MP_exp2,2020.2.5,Win32,60,,,0,-0.275925912,-0.329629686,1,0,0,0.77995,button_left,0.77995,1,,,,,,388,NW,"ID",16,cragin,CRAGIN,z,,,,,,-0.275925912,-0.329629686,1,0,0,,0,0,0,327,1,
,,,,,,,,,,,,,,,,,,5edac90b269f7f71877a26b6,2020-11-27_10h01.05.013,lexical_decision_task_MP_exp2,2020.2.5,Win32,60,,,0,-0.291666667,-0.338888889,1,0,0,0.77673,button_left,0.77673,1,,,,,,284,NW,UN,16,prudge,SHAPLE,z,,,,,,-0.291666667,-0.338888889,1,0,0,,0,1,1,463,1,
,,,,,,,,,,,,,,,,,,5edac90b269f7f71877a26b6,2020-11-27_10h01.05.013,lexical_decision_task_MP_exp2,2020.2.5,Win32,60,,,0,0.3,-0.293518575,1,0,0,0.48023,button_right,0.48023,1,,,,,,67,WORD,"ID",33,policy,POLICY,m,,,,,,0.3,-0.293518575,1,0,0,,0,2,2,6,1,
,,,,,,,,,,,,,,,,,,5edac90b269f7f71877a26b6,2020-11-27_10h01.05.013,lexical_decision_task_MP_exp2,2020.2.5,Win32,60,,,0,0.349074131,-0.282407464,1,0,0,0.87892,button_right,0.87892,0,,,,,,333,NW,"ID",33,catrie,CATRIE,z,,,,,,0.349074131,-0.282407464,1,0,0,,0,3,3,272,1,
,,,,,,,,,,,,,,,,,,5edac90b269f7f71877a26b6,2020-11-27_10h01.05.013,lexical_decision_task_MP_exp2,2020.2.5,Win32,60,,,0,-0.288888889,-0.279629686,1,0,0,0.76389,button_left,0.76389,1,,,,,,308,NW,"ID",33,psetch,PSETCH,z,,,,,,-0.288888889,-0.279629686,1,0,0,,0,4,4,247,1,
,,,,,,,,,,,,,,,,,,5edac90b269f7f71877a26b6,2020-11-27_10h01.05.013,lexical_decision_task_MP_exp2,2020.2.5,Win32,60,,,0,0.274074131,-0.250925954,1,0,0,0.563225,button_right,0.563225,1,,,,,,177,WORD,"ID",16,advent,ADVENT,m,,,,,,0.274074131,-0.250925954,1,0,0,,0,5,5,116,1,
,,,,,,,,,,,,,,,,,,5edac90b269f7f71877a26b6,2020-11-27_10h01.05.013,lexical_decision_task_MP_exp2,2020.2.5,Win32,60,,,0,0.277777778,-0.317592621,1,0,0,0.68022,button_right,0.68022,0,,,,,,367,NW,"ID",16,slique,SLIQUE,z,,,,,,0.277777778,-0.317592621,1,0,0,,0,6,6,306,1,
,,,,,,,,,,,,,,,,,,5edac90b269f7f71877a26b6,2020-11-27_10h01.05.013,lexical_decision_task_MP_exp2,2020.2.5,Win32,60,,,0,0.290740797,-0.330555556,1,0,0,0.54647,button_right,0.54647,1,,,,,,200,WORD,UN,33,admire,BEACON,m,,,,,,0.290740797,-0.330555556,1,0,0,,0,7,7,139,1,
,,,,,,,,,,,,,,,,,,5edac90b269f7f71877a26b6,2020-11-27_10h01.05.013,lexical_decision_task_MP_exp2,2020.2.5,Win32,60,,,0,-0.297222222,-0.280555556,1,0,0,0.85653,button_left,0.85653,1,,,,,,376,NW,"ID",16,iguare,IGUARE,z,,,,,,-0.297222222,-0.280555556,1,0,0,,0,8,8,315,1,
,,,,,,,,,,,,,,,,,,5edac90b269f7f71877a26b6,2020-11-27_10h01.05.013,lexical_decision_task_MP_exp2,2020.2.5,Win32,60,,,0,0.216666667,-0.227777778,1,0,0,0.8399,button_right,0.8399,1,,,,,,32,WORD,UN,16,scream,BUCKLE,m,,,,,,0.216666667,-0.227777778,1,0,0,,0,9,9,211,1,
,,,,,,,,,,,,,,,,,,5edac90b269f7f71877a26b6,2020-11-27_10h01.05.013,lexical_decision_task_MP_exp2,2020.2.5,Win32,60,,,0,0.358333333,-0.173148176,1,0,0,0.607575,button_right,0.607575,1,,,,,,174,WORD,"ID",16,turkey,TURKEY,m,,,,,,0.337963019,-0.295370399,1,0,0,,0,10,10,113,1,
,,,,,,,,,,,,,,,,,,5edac90b269f7f71877a26b6,2020-11-27_10h01.05.013,lexical_decision_task_MP_exp2,2020.2.5,Win32,60,,,0,0.339814843,-0.279629686,1,0,0,0.57364,button_right,0.57364,1,,,,,,208,WORD,UN,33,search,HOCKEY,m,,,,,,0.339814843,-0.279629686,1,0,0,,0,11,11,147,1,
,,,,,,,,,,,,,,,,,,5edac90b269f7f71877a26b6,2020-11-27_10h01.05.013,lexical_decision_task_MP_exp2,2020.2.5,Win32,60,,,0,0.346296353,-0.290740797,1,0,0,0.55439,button_right,0.55439,1,,,,,,226,WORD,UN,33,flower,CASINO,m,,,,,,0.346296353,-0.290740797,1,0,0,,0,12,12,165,1,
,,,,,,,,,,,,,,,,,,5edac90b269f7f71877a26b6,2020-11-27_10h01.05.013,lexical_decision_task_MP_exp2,2020.2.5,Win32,60,,,0,0.338888889,-0.312963019,1,0,0,0.54058,button_right,0.54058,1,,,,,,157,WORD,"ID",16,dragon,DRAGON,m,,,,,,0.338888889,-0.312963019,1,0,0,,0,13,13,96,1,
,,,,,,,,,,,,,,,,,,5edac90b269f7f71877a26b6,2020-11-27_10h01.05.013,lexical_decision_task_MP_exp2,2020.2.5,Win32,60,,,0,0.355555556,-0.276851908,1,0,0,0.57434,button_right,0.57434,1,,,,,,100,WORD,"ID",33,carbon,CARBON,m,,,,,,0.355555556,-0.276851908,1,0,0,,0,14,14,39,1,
,,,,,,,,,,,,,,,,,,5edac90b269f7f71877a26b6,2020-11-27_10h01.05.013,lexical_decision_task_MP_exp2,2020.2.5,Win32,60,,,0,-0.364814801,-0.301851908,1,0,0,0.737965,button_left,0.737965,1,,,,,,477,NW,UN,33,lobush,PHOTIE,z,,,,,,-0.364814801,-0.301851908,1,0,0,,0,15,15,416,1,
,,,,,,,,,,,,,,,,,,5edac90b269f7f71877a26b6,2020-11-27_10h01.05.013,lexical_decision_task_MP_exp2,2020.2.5,Win32,60,,,0,-0.248148134,-0.286111111,1,0,0,0.657235,button_left,0.657235,1,,,,,,283,NW,UN,16,shaple,VERALF,z,,,,,,-0.248148134,-0.286111111,1,0,0,,0,16,16,462,1,
,,,,,,,,,,,,,,,,,,5edac90b269f7f71877a26b6,2020-11-27_10h01.05.013,lexical_decision_task_MP_exp2,2020.2.5,Win32,60,,,0,0.359259288,-0.249074131,1,0,0,0.70625,button_right,0.70625,1,,,,,,152,WORD,"ID",16,rocket,ROCKET,m,,,,,,0.359259288,-0.249074131,1,0,0,,0,17,17,91,1,
,,,,,,,,,,,,,,,,,,5edac90b269f7f71877a26b6,2020-11-27_10h01.05.013,lexical_decision_task_MP_exp2,2020.2.5,Win32,60,,,0,-0.260185157,-0.261111111,1,0,0,0.823785,button_left,0.823785,1,,,,,,326,NW,"ID",33,iguade,IGUADE,z,,,,,,-0.260185157,-0.261111111,1,0,0,,0,18,18,265,1,
,,,,,,,,,,,,,,,,,,5edac90b269f7f71877a26b6,2020-11-27_10h01.05.013,lexical_decision_task_MP_exp2,2020.2.5,Win32,60,,,0,0.345370399,-0.285185242,1,0,0,0.663385,button_right,0.663385,1,,,,,,89,WORD,"ID",33,permit,PERMIT,m,,,,,,0.345370399,-0.285185242,1,0,0,,0,19,19,28,1,
,,,,,,,,,,,,,,,,,,5edac90b269f7f71877a26b6,2020-11-27_10h01.05.013,lexical_decision_task_MP_exp2,2020.2.5,Win32,60,,,0,0.366666667,-0.250925954,1,0,0,0.625845,button_right,0.625845,1,,,,,,17,WORD,UN,16,humble,CHARGE,m,,,,,,0.366666667,-0.250925954,1,0,0,,0,20,20,196,1,
,,,,,,,,,,,,,,,,,,5edac90b269f7f71877a26b6,2020-11-27_10h01.05.013,lexical_decision_task_MP_exp2,2020.2.5,Win32,60,,,0,0.322222222,-0.28148151,1,0,0,0.573775,button_right,0.573775,1,,,,,,25,WORD,UN,16,sprint,DOMAIN,m,,,,,,0.322222222,-0.28148151,1,0,0,,0,21,21,204,1,
,,,,,,,,,,,,,,,,,,5edac90b269f7f71877a26b6,2020-11-27_10h01.05.013,lexical_decision_task_MP_exp2,2020.2.5,Win32,60,,,0,-0.358333333,-0.267592621,1,0,0,0.740535,button_left,0.740535,1,,,,,,414,NW,"ID",16,serbol,SERBOL,z,,,,,,-0.358333333,-0.267592621,1,0,0,,0,22,22,353,1,
,,,,,,,,,,,,,,,,,,5edac90b269f7f71877a26b6,2020-11-27_10h01.05.013,lexical_decision_task_MP_exp2,2020.2.5,Win32,60,,,0,0.344444444,-0.315740797,1,0,0,0.590945,button_right,0.590945,1,,,,,,12,WORD,UN,16,strive,ORANGE,m,,,,,,0.344444444,-0.315740797,1,0,0,,0,23,23,191,1,
,,,,,,,,,,,,,,,,,,5edac90b269f7f71877a26b6,2020-11-27_10h01.05.013,lexical_decision_task_MP_exp2,2020.2.5,Win32,60,,,0,-0.34351849,-0.319444444,1,0,0,0.773615,button_left,0.773615,1,,,,,,318,NW,"ID",33,reagly,REAGLY,z,,,,,,-0.34351849,-0.319444444,1,0,0,,0,24,24,257,1,
,,,,,,,,,,,,,,,,,,5edac90b269f7f71877a26b6,2020-11-27_10h01.05.013,lexical_decision_task_MP_exp2,2020.2.5,Win32,60,,,0,0.377777778,-0.236111111,1,0,0,0.67403,button_right,0.67403,1,,,,,,75,WORD,"ID",33,trophy,TROPHY,m,,,,,,0.377777778,-0.236111111,1,0,0,,0,25,25,14,1,
,,,,,,,,,,,,,,,,,,5edac90b269f7f71877a26b6,2020-11-27_10h01.05.013,lexical_decision_task_MP_exp2,2020.2.5,Win32,60,,,0,-0.233333333,-0.305555556,1,0,0,0.79015,button_left,0.79015,1,,,,,,304,NW,"ID",33,cludie,CLUDIE,z,,,,,,-0.233333333,-0.305555556,1,0,0,,0,26,26,243,1,
,,,,,,,,,,,,,,,,,,5edac90b269f7f71877a26b6,2020-11-27_10h01.05.013,lexical_decision_task_MP_exp2,2020.2.5,Win32,60,,,0,-0.275,-0.249074131,1,0,0,0.873975,button_left,0.873975,1,,,,,,436,NW,UN,33,snapel,FRUTAN,z,,,,,,-0.275,-0.249074131,1,0,0,,0,27,27,375,1,
,,,,,,,,,,,,,,,,,,5edac90b269f7f71877a26b6,2020-11-27_10h01.05.013,lexical_decision_task_MP_exp2,2020.2.5,Win32,60,,,0,-0.369444444,-0.362963019,1,0,0,0.690305,button_left,0.690305,0,,,,,,139,WORD,"ID",16,debris,DEBRIS,m,,,,,,-0.369444444,-0.362963019,1,0,0,,0,28,28,78,1,
,,,,,,,,,,,,,,,,,,5edac90b269f7f71877a26b6,2020-11-27_10h01.05.013,lexical_decision_task_MP_exp2,2020.2.5,Win32,60,,,0,0.400925954,-0.310185242,1,0,0,0.64009,button_right,0.64009,0,,,,,,253,NW,UN,16,varosh,RESAIT,z,,,,,,0.400925954,-0.310185242,1,0,0,,0,29,29,432,1,
,,,,,,,,,,,,,,,,,,5edac90b269f7f71877a26b6,2020-11-27_10h01.05.013,lexical_decision_task_MP_exp2,2020.2.5,Win32,60,,,0,0.397222222,-0.28148151,1,0,0,0.590185,button_right,0.590185,1,,,,,,189,WORD,UN,33,backup,CENSOR,m,,,,,,0.397222222,-0.28148151,1,0,0,,0,30,30,128,1,
,,,,,,,,,,,,,,,,,,5edac90b269f7f71877a26b6,2020-11-27_10h01.05.013,lexical_decision_task_MP_exp2,2020.2.5,Win32,60,,,0,-0.329629601,-0.284259288,1,0,0,0.789695,button_left,0.789695,1,,,,,,294,NW,UN,16,gleath,INHORT,z,,,,,,-0.329629601,-0.284259288,1,0,0,,0,31,31,473,1,
,,,,,,,,,,,,,,,,,,5edac90b269f7f71877a26b6,2020-11-27_10h01.05.013,lexical_decision_task_MP_exp2,2020.2.5,Win32,60,,,0,0.319444444,-0.283333333,1,0,0,0.673695,button_right,0.673695,1,,,,,,221,WORD,UN,33,hinder,MASCOT,m,,,,,,0.319444444,-0.283333333,1,0,0,,0,32,32,160,1,
,,,,,,,,,,,,,,,,,,5edac90b269f7f71877a26b6,2020-11-27_10h01.05.013,lexical_decision_task_MP_exp2,2020.2.5,Win32,60,,,0,-0.346296268,-0.300925954,1,0,0,0.72298,button_left,0.72298,1,,,,,,383,NW,"ID",16,aungre,AUNGRE,z,,,,,,-0.346296268,-0.300925954,1,0,0,,0,33,33,322,1,
,,,,,,,,,,,,,,,,,,5edac90b269f7f71877a26b6,2020-11-27_10h01.05.013,lexical_decision_task_MP_exp2,2020.2.5,Win32,60,,,0,-0.183333333,-0.236111111,1,0,0,0.87341,,0.72298,-1,,,,,,257,NW,UN,16,poluth,VENIOD,z,,,,,,-0.351851824,-0.325,0,0,0,,0,34,34,436,1,
,,,,,,,,,,,,,,,,,,5edac90b269f7f71877a26b6,2020-11-27_10h01.05.013,lexical_decision_task_MP_exp2,2020.2.5,Win32,60,,,0,-0.349074046,-0.342592621,1,0,0,0.70682,button_left,0.70682,1,,,,,,392,NW,"ID",16,rouncy,ROUNCY,z,,,,,,-0.349074046,-0.342592621,1,0,0,,0,35,35,331,1,
,,,,,,,,,,,,,,,,,,5edac90b269f7f71877a26b6,2020-11-27_10h01.05.013,lexical_decision_task_MP_exp2,2020.2.5,Win32,60,,,0,0.325,-0.275,1,0,0,0.91385,button_right,0.91385,1,,,,,,86,WORD,"ID",33,rodent,RODENT,m,,,,,,0.325,-0.275,1,0,0,,0,36,36,25,1,
,,,,,,,,,,,,,,,,,,5edac90b269f7f71877a26b6,2020-11-27_10h01.05.013,lexical_decision_task_MP_exp2,2020.2.5,Win32,60,,,0,-0.34351849,-0.303703732,1,0,0,0.65416,button_left,0.65416,1,,,,,,327,NW,"ID",33,plenac,PLENAC,z,,,,,,-0.34351849,-0.303703732,1,0,0,,0,37,37,266,1,
,,,,,,,,,,,,,,,,,,5edac90b269f7f71877a26b6,2020-11-27_10h01.05.013,lexical_decision_task_MP_exp2,2020.2.5,Win32,60,,,0,0.371296353,-0.318518575,1,0,0,0.639425,button_right,0.639425,1,,,,,,162,WORD,"ID",16,candle,CANDLE,m,,,,,,0.371296353,-0.318518575,1,0,0,,0,38,38,101,1,
,,,,,,,,,,,,,,,,,,5edac90b269f7f71877a26b6,2020-11-27_10h01.05.013,lexical_decision_task_MP_exp2,2020.2.5,Win32,60,,,0,0.359259288,-0.278703732,1,0,0,0.86767,button_right,0.86767,1,,,,,,9,WORD,UN,16,bridge,HUSTLE,m,,,,,,0.359259288,-0.278703732,1,0,0,,0,39,39,188,1,
,,,,,,,,,,,,,,,,,,5edac90b269f7f71877a26b6,2020-11-27_10h01.05.013,lexical_decision_task_MP_exp2,2020.2.5,Win32,60,,,0,-0.35,-0.323148176,1,0,0,0.70748,button_left,0.70748,1,,,,,,416,NW,"ID",16,pathel,PATHEL,z,,,,,,-0.35,-0.323148176,1,0,0,,0,40,40,355,1,
,,,,,,,,,,,,,,,,,,5edac90b269f7f71877a26b6,2020-11-27_10h01.05.013,lexical_decision_task_MP_exp2,2020.2.5,Win32,60,,,0,0.278703732,-0.267592621,1,0,0,0.84057,button_right,0.84057,1,,,,,,82,WORD,"ID",33,stigma,STIGMA,m,,,,,,0.278703732,-0.267592621,1,0,0,,0,41,41,21,1,
,,,,,,,,,,,,,,,,,,5edac90b269f7f71877a26b6,2020-11-27_10h01.05.013,lexical_decision_task_MP_exp2,2020.2.5,Win32,60,,,0,-0.324074046,-0.278703732,1,0,0,0.907645,button_left,0.907645,1,,,,,,315,NW,"ID",33,laston,LASTON,z,,,,,,-0.324074046,-0.278703732,1,0,0,,0,42,42,254,1,
,,,,,,,,,,,,,,,,,,5edac90b269f7f71877a26b6,2020-11-27_10h01.05.013,lexical_decision_task_MP_exp2,2020.2.5,Win32,60,,,0,0.304629686,-0.302777778,1,0,0,0.824105,button_right,0.824105,1,,,,,,132,WORD,"ID",16,strong,STRONG,m,,,,,,0.304629686,-0.302777778,1,0,0,,0,43,43,71,1,
,,,,,,,,,,,,,,,,,,5edac90b269f7f71877a26b6,2020-11-27_10h01.05.013,lexical_decision_task_MP_exp2,2020.2.5,Win32,60,,,0,0.336111111,-0.289814843,1,0,0,0.590625,button_right,0.590625,1,,,,,,7,WORD,UN,16,abrupt,ANCHOR,m,,,,,,0.336111111,-0.289814843,1,0,0,,0,44,44,186,1,
,,,,,,,,,,,,,,,,,,5edac90b269f7f71877a26b6,2020-11-27_10h01.05.013,lexical_decision_task_MP_exp2,2020.2.5,Win32,60,,,0,0.370370399,-0.275925954,1,0,0,0.60898,button_right,0.60898,1,,,,,,136,WORD,"ID",16,bleach,BLEACH,m,,,,,,0.370370399,-0.275925954,1,0,0,,0,45,45,75,1,
,,,,,,,,,,,,,,,,,,5edac90b269f7f71877a26b6,2020-11-27_10h01.05.013,lexical_decision_task_MP_exp2,2020.2.5,Win32,60,,,0,-0.30370369,-0.25648151,1,0,0,0.807745,button_left,0.807745,1,,,,,,467,NW,UN,33,wictor,GORBIE,z,,,,,,-0.30370369,-0.25648151,1,0,0,,0,46,46,406,1,
,,,,,,,,,,,,,,,,,,5edac90b269f7f71877a26b6,2020-11-27_10h01.05.013,lexical_decision_task_MP_exp2,2020.2.5,Win32,60,,,0,0.374074131,-0.294444444,1,0,0,0.657305,button_right,0.657305,1,,,,,,59,WORD,UN,16,pencil,SPLINT,m,,,,,,0.374074131,-0.294444444,1,0,0,,0,47,47,238,1,
,,,,,,,,,,,,,,,,,,5edac90b269f7f71877a26b6,2020-11-27_10h01.05.013,lexical_decision_task_MP_exp2,2020.2.5,Win32,60,,,0,0.370370399,-0.301851908,1,0,0,0.67363,button_right,0.67363,1,,,,,,198,WORD,UN,33,invoke,WICKED,m,,,,,,0.370370399,-0.301851908,1,0,0,,0,48,48,137,1,
,,,,,,,,,,,,,,,,,,5edac90b269f7f71877a26b6,2020-11-27_10h01.05.013,lexical_decision_task_MP_exp2,2020.2.5,Win32,60,,,0,0.400925954,-0.255555556,1,0,0,0.657205,button_right,0.657205,0,,,,,,428,NW,UN,33,funtle,TANDLY,z,,,,,,0.400925954,-0.255555556,1,0,0,,0,49,49,367,1,
,,,,,,,,,,,,,,,,,,5edac90b269f7f71877a26b6,2020-11-27_10h01.05.013,lexical_decision_task_MP_exp2,2020.2.5,Win32,60,,,0,0.380555556,-0.276851908,1,0,0,0.657275,button_right,0.657275,1,,,,,,83,WORD,"ID",33,result,RESULT,m,,,,,,0.380555556,-0.276851908,1,0,0,,0,50,50,22,1,
,,,,,,,,,,,,,,,,,,5edac90b269f7f71877a26b6,2020-11-27_10h01.05.013,lexical_decision_task_MP_exp2,2020.2.5,Win32,60,,,0,0.35,-0.280555556,1,0,0,0.623755,button_right,0.623755,1,,,,,,70,WORD,"ID",33,square,SQUARE,m,,,,,,0.35,-0.280555556,1,0,0,,0,51,51,9,1,
,,,,,,,,,,,,,,,,,,5edac90b269f7f71877a26b6,2020-11-27_10h01.05.013,lexical_decision_task_MP_exp2,2020.2.5,Win32,60,,,0,-0.365740712,-0.3,1,0,0,0.773905,button_left,0.773905,1,,,,,,375,NW,"ID",16,yorque,YORQUE,z,,,,,,-0.365740712,-0.3,1,0,0,,0,52,52,314,1,
,,,,,,,,,,,,,,,,,,5edac90b269f7f71877a26b6,2020-11-27_10h01.05.013,lexical_decision_task_MP_exp2,2020.2.5,Win32,60,,,0,0.273148176,-0.308333333,1,0,0,0.67372,button_right,0.67372,1,,,,,,229,WORD,UN,33,fringe,MOTHER,m,,,,,,0.273148176,-0.308333333,1,0,0,,0,53,53,168,1,
,,,,,,,,,,,,,,,,,,5edac90b269f7f71877a26b6,2020-11-27_10h01.05.013,lexical_decision_task_MP_exp2,2020.2.5,Win32,60,,,0,-0.283333333,-0.396296353,1,0,0,0.773315,button_left,0.773315,1,,,,,,449,NW,UN,33,phrect,BRUNGE,z,,,,,,-0.283333333,-0.396296353,1,0,0,,0,54,54,388,1,
,,,,,,,,,,,,,,,,,,5edac90b269f7f71877a26b6,2020-11-27_10h01.05.013,lexical_decision_task_MP_exp2,2020.2.5,Win32,60,,,0,0.369444444,-0.280555556,1,0,0,1.073325,button_right,1.073325,1,,,,,,234,WORD,UN,33,poster,CLUMSY,m,,,,,,0.369444444,-0.280555556,1,0,0,,0,55,55,173,1,
,,,,,,,,,,,,,,,,,,5edac90b269f7f71877a26b6,2020-11-27_10h01.05.013,lexical_decision_task_MP_exp2,2020.2.5,Win32,60,,,0,-0.302777778,-0.35648151,1,0,0,0.75785,button_left,0.75785,1,,,,,,435,NW,UN,33,frutan,IMPURB,z,,,,,,-0.302777778,-0.35648151,1,0,0,,0,56,56,374,1,
,,,,,,,,,,,,,,,,,,5edac90b269f7f71877a26b6,2020-11-27_10h01.05.013,lexical_decision_task_MP_exp2,2020.2.5,Win32,60,,,0,0.397222222,-0.277777778,1,0,0,0.790335,button_right,0.790335,0,,,,,,269,NW,UN,16,wrimsy,ORCHET,z,,,,,,0.397222222,-0.277777778,1,0,0,,0,57,57,448,1,
,,,,,,,,,,,,,,,,,,5edac90b269f7f71877a26b6,2020-11-27_10h01.05.013,lexical_decision_task_MP_exp2,2020.2.5,Win32,60,,,0,0.295370399,-0.246296353,1,0,0,0.890385,button_right,0.890385,0,,,,,,301,NW,"ID",33,fainch,FAINCH,z,,,,,,0.295370399,-0.246296353,1,0,0,,0,58,58,240,1,
,,,,,,,,,,,,,,,,,,5edac90b269f7f71877a26b6,2020-11-27_10h01.05.013,lexical_decision_task_MP_exp2,2020.2.5,Win32,60,,,0,0.35,-0.235185242,1,0,0,0.873685,button_right,0.873685,1,,,,,,63,WORD,"ID",33,launch,LAUNCH,m,,,,,,0.35,-0.235185242,1,0,0,,0,59,59,2,1,
,,,,,,,,,,,,,,,,,,5edac90b269f7f71877a26b6,2020-11-27_10h01.05.013,lexical_decision_task_MP_exp2,2020.2.5,Win32,60,,,0,-0.316666667,-0.3,1,0,0,0.64015,button_left,0.64015,0,,,,,,121,WORD,"ID",16,thrive,THRIVE,m,,,,,,-0.316666667,-0.3,1,0,0,,0,60,60,60,1,
,,,,,,,,,,,,,,,,,,5edac90b269f7f71877a26b6,2020-11-27_10h01.05.013,lexical_decision_task_MP_exp2,2020.2.5,Win32,60,,,0,-0.381481467,-0.250925954,1,0,0,0.840555,button_left,0.840555,1,,,,,,325,NW,"ID",33,thruse,THRUSE,z,,,,,,-0.381481467,-0.250925954,1,0,0,,0,61,61,264,1,
,,,,,,,,,,,,,,,,,,5edac90b269f7f71877a26b6,2020-11-27_10h01.05.013,lexical_decision_task_MP_exp2,2020.2.5,Win32,60,,,0,-0.437962935,-0.315740797,1,0,0,0.80712,button_left,0.80712,1,,,,,,254,NW,UN,16,apight,VAROSH,z,,,,,,-0.437962935,-0.315740797,1,0,0,,0,62,62,433,1,
,,,,,,,,,,,,,,,,,,5edac90b269f7f71877a26b6,2020-11-27_10h01.05.013,lexical_decision_task_MP_exp2,2020.2.5,Win32,60,,,0,0.382407464,-0.284259288,1,0,0,0.574595,button_right,0.574595,1,,,,,,134,WORD,"ID",16,staple,STAPLE,m,,,,,,0.382407464,-0.284259288,1,0,0,,0,63,63,73,1,
,,,,,,,,,,,,,,,,,,5edac90b269f7f71877a26b6,2020-11-27_10h01.05.013,lexical_decision_task_MP_exp2,2020.2.5,Win32,60,,,0,0.345370399,-0.288888889,1,0,0,0.67397,button_right,0.67397,1,,,,,,147,WORD,"ID",16,garlic,GARLIC,m,,,,,,0.345370399,-0.288888889,1,0,0,,0,64,64,86,1,
,,,,,,,,,,,,,,,,,,5edac90b269f7f71877a26b6,2020-11-27_10h01.05.013,lexical_decision_task_MP_exp2,2020.2.5,Win32,60,,,0,0.347222222,-0.279629686,1,0,0,0.607105,button_right,0.607105,1,,,,,,137,WORD,"ID",16,finger,FINGER,m,,,,,,0.347222222,-0.279629686,1,0,0,,0,65,65,76,1,
,,,,,,,,,,,,,,,,,,5edac90b269f7f71877a26b6,2020-11-27_10h01.05.013,lexical_decision_task_MP_exp2,2020.2.5,Win32,60,,,0,0.342592621,-0.273148176,1,0,0,0.69066,button_right,0.69066,0,,,,,,314,NW,"ID",33,sprine,SPRINE,z,,,,,,0.342592621,-0.273148176,1,0,0,,0,66,66,253,1,
,,,,,,,,,,,,,,,,,,5edac90b269f7f71877a26b6,2020-11-27_10h01.05.013,lexical_decision_task_MP_exp2,2020.2.5,Win32,60,,,0,-0.362962935,-0.303703732,1,0,0,0.59099,button_left,0.59099,1,,,,,,478,NW,UN,33,pebric,ACRISE,z,,,,,,-0.362962935,-0.303703732,1,0,0,,0,67,67,417,1,
,,,,,,,,,,,,,,,,,,5edac90b269f7f71877a26b6,2020-11-27_10h01.05.013,lexical_decision_task_MP_exp2,2020.2.5,Win32,60,,,0,-0.375,-0.315740797,1,0,0,0.54009,button_left,0.54009,1,,,,,,368,NW,"ID",16,hornal,HORNAL,z,,,,,,-0.375,-0.315740797,1,0,0,,0,68,68,307,1,
,,,,,,,,,,,,,,,,,,5edac90b269f7f71877a26b6,2020-11-27_10h01.05.013,lexical_decision_task_MP_exp2,2020.2.5,Win32,60,,,0,0.310185242,-0.304629686,1,0,0,0.60701,button_right,0.60701,1,,,,,,94,WORD,"ID",33,travel,TRAVEL,m,,,,,,0.310185242,-0.304629686,1,0,0,,0,69,69,33,1,
,,,,,,,,,,,,,,,,,,5edac90b269f7f71877a26b6,2020-11-27_10h01.05.013,lexical_decision_task_MP_exp2,2020.2.5,Win32,60,,,0,0.327777778,-0.291666667,1,0,0,0.556695,button_right,0.556695,1,,,,,,171,WORD,"ID",16,depart,DEPART,m,,,,,,0.327777778,-0.291666667,1,0,0,,0,70,70,110,1,
,,,,,,,,,,,,,,,,,,5edac90b269f7f71877a26b6,2020-11-27_10h01.05.013,lexical_decision_task_MP_exp2,2020.2.5,Win32,60,,,0,-0.367592578,-0.318518575,1,0,0,0.77408,button_left,0.77408,1,,,,,,310,NW,"ID",33,daniet,DANIET,z,,,,,,-0.367592578,-0.318518575,1,0,0,,0,71,71,249,1,
,,,,,,,,,,,,,,,,,,5edac90b269f7f71877a26b6,2020-11-27_10h01.05.013,lexical_decision_task_MP_exp2,2020.2.5,Win32,60,,,0,-0.381481467,-0.321296353,1,0,0,0.69049,button_left,0.69049,1,,,,,,447,NW,UN,33,sadent,GIRCUE,z,,,,,,-0.381481467,-0.321296353,1,0,0,,0,72,72,386,1,
,,,,,,,,,,,,,,,,,,5edac90b269f7f71877a26b6,2020-11-27_10h01.05.013,lexical_decision_task_MP_exp2,2020.2.5,Win32,60,,,0,-0.386111111,-0.301851908,1,0,0,0.62437,button_left,0.62437,1,,,,,,355,NW,"ID",33,zingly,ZINGLY,z,,,,,,-0.386111111,-0.301851908,1,0,0,,0,73,73,294,1,
,,,,,,,,,,,,,,,,,,5edac90b269f7f71877a26b6,2020-11-27_10h01.05.013,lexical_decision_task_MP_exp2,2020.2.5,Win32,60,,,0,0.325925954,-0.292592621,1,0,0,0.524235,button_right,0.524235,1,,,,,,209,WORD,UN,33,monkey,SEARCH,m,,,,,,0.325925954,-0.292592621,1,0,0,,0,74,74,148,1,
,,,,,,,,,,,,,,,,,,5edac90b269f7f71877a26b6,2020-11-27_10h01.05.013,lexical_decision_task_MP_exp2,2020.2.5,Win32,60,,,0,-0.37870369,-0.325925954,1,0,0,0.67358,button_left,0.67358,0,,,,,,16,WORD,UN,16,charge,FAUCET,m,,,,,,-0.37870369,-0.325925954,1,0,0,,0,75,75,195,1,
,,,,,,,,,,,,,,,,,,5edac90b269f7f71877a26b6,2020-11-27_10h01.05.013,lexical_decision_task_MP_exp2,2020.2.5,Win32,60,,,0,-0.377777778,-0.334259288,1,0,0,0.757765,button_left,0.757765,1,,,,,,246,NW,UN,16,blarge,PIATON,z,,,,,,-0.377777778,-0.334259288,1,0,0,,0,76,76,425,1,
,,,,,,,,,,,,,,,,,,5edac90b269f7f71877a26b6,2020-11-27_10h01.05.013,lexical_decision_task_MP_exp2,2020.2.5,Win32,60,,,0,0.354629686,-0.28148151,1,0,0,0.55673,button_right,0.55673,1,,,,,,47,WORD,UN,16,walnut,INCOME,m,,,,,,0.354629686,-0.28148151,1,0,0,,0,77,77,226,1,
,,,,,,,,,,,,,,,,,,5edac90b269f7f71877a26b6,2020-11-27_10h01.05.013,lexical_decision_task_MP_exp2,2020.2.5,Win32,60,,,0,0.325,-0.289814843,1,0,0,0.6577,button_right,0.6577,1,,,,,,69,WORD,"ID",33,plenty,PLENTY,m,,,,,,0.325,-0.289814843,1,0,0,,0,78,78,8,1,
,,,,,,,,,,,,,,,,,,5edac90b269f7f71877a26b6,2020-11-27_10h01.05.013,lexical_decision_task_MP_exp2,2020.2.5,Win32,60,,,0,0.322222222,-0.296296353,1,0,0,0.723815,button_right,0.723815,1,,,,,,156,WORD,"ID",16,cradle,CRADLE,m,,,,,,0.322222222,-0.296296353,1,0,0,,0,79,79,95,1,
,,,,,,,,,,,,,,,,,,5edac90b269f7f71877a26b6,2020-11-27_10h01.05.013,lexical_decision_task_MP_exp2,2020.2.5,Win32,60,,,0,0.318518575,-0.295370399,1,0,0,0.573205,button_right,0.573205,1,,,,,,76,WORD,"ID",33,exotic,EXOTIC,m,,,,,,0.318518575,-0.295370399,1,0,0,,0,80,80,15,1,
,,,,,,,,,,,,,,,,,,5edac90b269f7f71877a26b6,2020-11-27_10h01.05.013,lexical_decision_task_MP_exp2,2020.2.5,Win32,60,,,0,-0.388888889,-0.335185242,1,0,0,0.74006,button_left,0.74006,1,,,,,,290,NW,UN,16,pretch,SPLINO,z,,,,,,-0.388888889,-0.335185242,1,0,0,,0,81,81,469,1,
,,,,,,,,,,,,,,,,,,5edac90b269f7f71877a26b6,2020-11-27_10h01.05.013,lexical_decision_task_MP_exp2,2020.2.5,Win32,60,,,0,0.326851908,-0.290740797,1,0,0,0.587525,button_right,0.587525,1,,,,,,201,WORD,UN,33,factor,ADMIRE,m,,,,,,0.326851908,-0.290740797,1,0,0,,0,82,82,140,1,
,,,,,,,,,,,,,,,,,,5edac90b269f7f71877a26b6,2020-11-27_10h01.05.013,lexical_decision_task_MP_exp2,2020.2.5,Win32,60,,,0,-0.404629601,-0.312037065,1,0,0,0.69082,button_left,0.69082,1,,,,,,461,NW,UN,33,absult,JUSTRE,z,,,,,,-0.404629601,-0.312037065,1,0,0,,0,83,83,400,1,
,,,,,,,,,,,,,,,,,,5edac90b269f7f71877a26b6,2020-11-27_10h01.05.013,lexical_decision_task_MP_exp2,2020.2.5,Win32,60,,,0,0.323148176,-0.293518575,1,0,0,0.607135,button_right,0.607135,1,,,,,,115,WORD,"ID",33,guitar,GUITAR,m,,,,,,0.323148176,-0.293518575,1,0,0,,0,84,84,54,1,
,,,,,,,,,,,,,,,,,,5edac90b269f7f71877a26b6,2020-11-27_10h01.05.013,lexical_decision_task_MP_exp2,2020.2.5,Win32,60,,,0,0.328703732,-0.305555556,1,0,0,0.67425,button_right,0.67425,1,,,,,,192,WORD,UN,33,object,PLAGUE,m,,,,,,0.328703732,-0.305555556,1,0,0,,0,85,85,131,1,
,,,,,,,,,,,,,,,,,,5edac90b269f7f71877a26b6,2020-11-27_10h01.05.013,lexical_decision_task_MP_exp2,2020.2.5,Win32,60,,,0,-0.405555556,-0.315740797,1,0,0,0.80704,button_left,0.80704,1,,,,,,296,NW,UN,16,fertic,BEINCH,z,,,,,,-0.405555556,-0.315740797,1,0,0,,0,86,86,475,1,
,,,,,,,,,,,,,,,,,,5edac90b269f7f71877a26b6,2020-11-27_10h01.05.013,lexical_decision_task_MP_exp2,2020.2.5,Win32,60,,,0,0.323148176,-0.301851908,1,0,0,0.61281,button_right,0.61281,1,,,,,,40,WORD,UN,16,spring,CONVEY,m,,,,,,0.323148176,-0.301851908,1,0,0,,0,87,87,219,1,
,,,,,,,,,,,,,,,,,,5edac90b269f7f71877a26b6,2020-11-27_10h01.05.013,lexical_decision_task_MP_exp2,2020.2.5,Win32,60,,,0,-0.407407379,-0.320370399,1,0,0,0.69086,button_left,0.69086,1,,,,,,374,NW,"ID",16,sliant,SLIANT,z,,,,,,-0.407407379,-0.320370399,1,0,0,,0,88,88,313,1,
,,,,,,,,,,,,,,,,,,5edac90b269f7f71877a26b6,2020-11-27_10h01.05.013,lexical_decision_task_MP_exp2,2020.2.5,Win32,60,,,0,-0.419444444,-0.310185242,1,0,0,0.806345,button_left,0.806345,1,,,,,,431,NW,UN,33,lunker,CHRUMS,z,,,,,,-0.419444444,-0.310185242,1,0,0,,0,89,89,370,1,
,,,,,,,,,,,,,,,,,,5edac90b269f7f71877a26b6,2020-11-27_10h01.05.013,lexical_decision_task_MP_exp2,2020.2.5,Win32,60,,,0,0.325,-0.3,1,0,0,0.5574,button_right,0.5574,1,,,,,,101,WORD,"ID",33,wrench,WRENCH,m,,,,,,0.325,-0.3,1,0,0,,0,90,90,40,1,
,,,,,,,,,,,,,,,,,,5edac90b269f7f71877a26b6,2020-11-27_10h01.05.013,lexical_decision_task_MP_exp2,2020.2.5,Win32,60,,,0,0.318518575,-0.301851908,1,0,0,0.474165,button_right,0.474165,1,,,,,,103,WORD,"ID",33,bounce,BOUNCE,m,,,,,,0.318518575,-0.301851908,1,0,0,,0,91,91,42,1,
,,,,,,,,,,,,,,,,,,5edac90b269f7f71877a26b6,2020-11-27_10h01.05.013,lexical_decision_task_MP_exp2,2020.2.5,Win32,60,,,0,0.300925954,-0.312037065,1,0,0,0.524205,button_right,0.524205,1,,,,,,95,WORD,"ID",33,thread,THREAD,m,,,,,,0.300925954,-0.312037065,1,0,0,,0,92,92,34,1,
,,,,,,,,,,,,,,,,,,5edac90b269f7f71877a26b6,2020-11-27_10h01.05.013,lexical_decision_task_MP_exp2,2020.2.5,Win32,60,,,0,0.302777778,-0.300925954,1,0,0,0.607735,button_right,0.607735,1,,,,,,194,WORD,UN,33,resign,ABSENT,m,,,,,,0.302777778,-0.300925954,1,0,0,,0,93,93,133,1,
,,,,,,,,,,,,,,,,,,5edac90b269f7f71877a26b6,2020-11-27_10h01.05.013,lexical_decision_task_MP_exp2,2020.2.5,Win32,60,,,0,-0.385185157,-0.310185242,1,0,0,0.57351,button_left,0.57351,0,,,,,,211,WORD,UN,33,verify,INFECT,m,,,,,,-0.385185157,-0.310185242,1,0,0,,0,94,94,150,1,
,,,,,,,,,,,,,,,,,,5edac90b269f7f71877a26b6,2020-11-27_10h01.05.013,lexical_decision_task_MP_exp2,2020.2.5,Win32,60,,,0,-0.399074046,-0.302777778,1,0,0,1.290015,button_left,1.290015,1,,,,,,322,NW,"ID",33,slanch,SLANCH,z,,,,,,-0.399074046,-0.302777778,1,0,0,,0,95,95,261,1,
,,,,,,,,,,,,,,,,,,5edac90b269f7f71877a26b6,2020-11-27_10h01.05.013,lexical_decision_task_MP_exp2,2020.2.5,Win32,60,,,0,0.30648151,-0.299074131,1,0,0,0.606875,button_right,0.606875,1,,,,,,54,WORD,UN,16,stroke,RAMBLE,m,,,,,,0.30648151,-0.299074131,1,0,0,,0,96,96,233,1,
,,,,,,,,,,,,,,,,,,5edac90b269f7f71877a26b6,2020-11-27_10h01.05.013,lexical_decision_task_MP_exp2,2020.2.5,Win32,60,,,0,0.304629686,-0.312037065,1,0,0,0.59131,button_right,0.59131,1,,,,,,169,WORD,"ID",16,genius,GENIUS,m,,,,,,0.304629686,-0.312037065,1,0,0,,0,97,97,108,1,
,,,,,,,,,,,,,,,,,,5edac90b269f7f71877a26b6,2020-11-27_10h01.05.013,lexical_decision_task_MP_exp2,2020.2.5,Win32,60,,,0,0.314814843,-0.311111111,1,0,0,0.507745,button_right,0.507745,1,,,,,,64,WORD,"ID",33,throne,THRONE,m,,,,,,0.314814843,-0.311111111,1,0,0,,0,98,98,3,1,
,,,,,,,,,,,,,,,,,,5edac90b269f7f71877a26b6,2020-11-27_10h01.05.013,lexical_decision_task_MP_exp2,2020.2.5,Win32,60,,,0,0.316666667,-0.311111111,1,0,0,0.624045,button_right,0.624045,1,,,,,,84,WORD,"ID",33,mortal,MORTAL,m,,,,,,0.316666667,-0.311111111,1,0,0,,0,99,99,23,1,
,,,,,,,,,,,,,,,,,,5edac90b269f7f71877a26b6,2020-11-27_10h01.05.013,lexical_decision_task_MP_exp2,2020.2.5,Win32,60,,,0,0.321296353,-0.304629686,1,0,0,0.89052,button_right,0.89052,1,,,,,,142,WORD,"ID",16,spruce,SPRUCE,m,,,,,,0.321296353,-0.304629686,1,0,0,,0,100,100,81,1,
,,,,,,,,,,,,,,,,,,5edac90b269f7f71877a26b6,2020-11-27_10h01.05.013,lexical_decision_task_MP_exp2,2020.2.5,Win32,60,,,0,0.326851908,-0.307407464,1,0,0,0.57373,button_right,0.57373,1,,,,,,23,WORD,UN,16,praise,WEALTH,m,,,,,,0.326851908,-0.307407464,1,0,0,,0,101,101,202,1,
,,,,,,,,,,,,,,,,,,5edac90b269f7f71877a26b6,2020-11-27_10h01.05.013,lexical_decision_task_MP_exp2,2020.2.5,Win32,60,,,0,0.319444444,-0.308333333,1,0,0,0.640905,button_right,0.640905,1,,,,,,90,WORD,"ID",33,relish,RELISH,m,,,,,,0.319444444,-0.308333333,1,0,0,,0,102,102,29,1,
,,,,,,,,,,,,,,,,,,5edac90b269f7f71877a26b6,2020-11-27_10h01.05.013,lexical_decision_task_MP_exp2,2020.2.5,Win32,60,,,0,-0.402777778,-0.319444444,1,0,0,0.657425,button_left,0.657425,1,,,,,,329,NW,"ID",33,yarike,YARIKE,z,,,,,,-0.402777778,-0.319444444,1,0,0,,0,103,103,268,1,
,,,,,,,,,,,,,,,,,,5edac90b269f7f71877a26b6,2020-11-27_10h01.05.013,lexical_decision_task_MP_exp2,2020.2.5,Win32,60,,,0,-0.402777778,-0.325,1,0,0,0.656505,button_left,0.656505,1,,,,,,399,NW,"ID",16,fouret,FOURET,z,,,,,,-0.402777778,-0.325,1,0,0,,0,104,104,338,1,
,,,,,,,,,,,,,,,,,,5edac90b269f7f71877a26b6,2020-11-27_10h01.05.013,lexical_decision_task_MP_exp2,2020.2.5,Win32,60,,,0,-0.402777778,-0.325925954,1,0,0,0.623865,button_left,0.623865,1,,,,,,404,NW,"ID",16,cluirm,CLUIRM,z,,,,,,-0.402777778,-0.325925954,1,0,0,,0,105,105,343,1,
,,,,,,,,,,,,,,,,,,5edac90b269f7f71877a26b6,2020-11-27_10h01.05.013,lexical_decision_task_MP_exp2,2020.2.5,Win32,60,,,0,-0.398148134,-0.330555556,1,0,0,0.590445,button_left,0.590445,0,,,,,,183,WORD,UN,33,sleazy,MILDEW,m,,,,,,-0.398148134,-0.330555556,1,0,0,,0,106,106,122,1,
,,,,,,,,,,,,,,,,,,5edac90b269f7f71877a26b6,2020-11-27_10h01.05.013,lexical_decision_task_MP_exp2,2020.2.5,Win32,60,,,0,-0.392592578,-0.328703732,1,0,0,0.690635,button_left,0.690635,1,,,,,,351,NW,"ID",33,tiesch,TIESCH,z,,,,,,-0.392592578,-0.328703732,1,0,0,,0,107,107,290,1,
,,,,,,,,,,,,,,,,,,5edac90b269f7f71877a26b6,2020-11-27_10h01.05.013,lexical_decision_task_MP_exp2,2020.2.5,Win32,60,,,0,0.346296353,-0.312963019,1,0,0,0.540955,button_right,0.540955,1,,,,,,163,WORD,"ID",16,string,STRING,m,,,,,,0.346296353,-0.312963019,1,0,0,,0,108,108,102,1,
,,,,,,,,,,,,,,,,,,5edac90b269f7f71877a26b6,2020-11-27_10h01.05.013,lexical_decision_task_MP_exp2,2020.2.5,Win32,60,,,0,0.329629686,-0.313888889,1,0,0,0.59095,button_right,0.59095,1,,,,,,222,WORD,UN,33,export,HINDER,m,,,,,,0.329629686,-0.313888889,1,0,0,,0,109,109,161,1,
,,,,,,,,,,,,,,,,,,5edac90b269f7f71877a26b6,2020-11-27_10h01.05.013,lexical_decision_task_MP_exp2,2020.2.5,Win32,60,,,0,-0.37870369,-0.360185242,1,0,0,0.74007,button_left,0.74007,1,,,,,,371,NW,"ID",16,geiloy,GEILOY,z,,,,,,-0.37870369,-0.360185242,1,0,0,,0,110,110,310,1,
,,,,,,,,,,,,,,,,,,5edac90b269f7f71877a26b6,2020-11-27_10h01.05.013,lexical_decision_task_MP_exp2,2020.2.5,Win32,60,,,0,-0.399074046,-0.334259288,1,0,0,0.606225,button_left,0.606225,1,,,,,,441,NW,UN,33,aboune,RASTOE,z,,,,,,-0.399074046,-0.334259288,1,0,0,,0,111,111,380,1,
,,,,,,,,,,,,,,,,,,5edac90b269f7f71877a26b6,2020-11-27_10h01.05.013,lexical_decision_task_MP_exp2,2020.2.5,Win32,60,,,0,0.338888889,-0.316666667,1,0,0,0.63978,button_right,0.63978,1,,,,,,55,WORD,UN,16,ambush,STROKE,m,,,,,,0.338888889,-0.316666667,1,0,0,,0,112,112,234,1,
,,,,,,,,,,,,,,,,,,5edac90b269f7f71877a26b6,2020-11-27_10h01.05.013,lexical_decision_task_MP_exp2,2020.2.5,Win32,60,,,0,0.337037065,-0.314814843,1,0,0,0.52311,button_right,0.52311,1,,,,,,167,WORD,"ID",16,design,DESIGN,m,,,,,,0.337037065,-0.314814843,1,0,0,,0,113,113,106,1,
,,,,,,,,,,,,,,,,,,5edac90b269f7f71877a26b6,2020-11-27_10h01.05.013,lexical_decision_task_MP_exp2,2020.2.5,Win32,60,,,0,0.323148176,-0.319444444,1,0,0,0.59021,button_right,0.59021,1,,,,,,188,WORD,UN,33,censor,SOCIAL,m,,,,,,0.323148176,-0.319444444,1,0,0,,0,114,114,127,1,
,,,,,,,,,,,,,,,,,,5edac90b269f7f71877a26b6,2020-11-27_10h01.05.013,lexical_decision_task_MP_exp2,2020.2.5,Win32,60,,,0,0.325,-0.323148176,1,0,0,0.557295,button_right,0.557295,0,,,,,,357,NW,"ID",33,derain,DERAIN,z,,,,,,0.325,-0.323148176,1,0,0,,0,115,115,296,1,
,,,,,,,,,,,,,,,,,,5edac90b269f7f71877a26b6,2020-11-27_10h01.05.013,lexical_decision_task_MP_exp2,2020.2.5,Win32,60,,,0,0.322222222,-0.323148176,1,0,0,0.60762,button_right,0.60762,1,,,,,,18,WORD,UN,16,patron,HUMBLE,m,,,,,,0.322222222,-0.323148176,1,0,0,,0,116,116,197,1,
,,,,,,,,,,,,,,,,,,5edac90b269f7f71877a26b6,2020-11-27_10h01.05.013,lexical_decision_task_MP_exp2,2020.2.5,Win32,60,,,0,0.316666667,-0.317592621,1,0,0,0.806805,button_right,0.806805,1,,,,,,39,WORD,UN,16,convey,INSECT,m,,,,,,0.316666667,-0.317592621,1,0,0,,0,117,117,218,1,
,,,,,,,,,,,,,,,,,,5edac90b269f7f71877a26b6,2020-11-27_10h01.05.013,lexical_decision_task_MP_exp2,2020.2.5,Win32,60,,,0,0.322222222,-0.315740797,1,0,0,0.57321,button_right,0.57321,1,,,,,,13,WORD,UN,16,almost,STRIVE,m,,,,,,0.322222222,-0.315740797,1,0,0,,0,118,118,192,1,
,,,,,,,,,,,,,,,,,,5edac90b269f7f71877a26b6,2020-11-27_10h01.05.013,lexical_decision_task_MP_exp2,2020.2.5,Win32,60,,,0,-0.407407379,-0.337037065,1,0,0,0.74,button_left,0.74,1,,,,,,292,NW,UN,16,swance,ABLINT,z,,,,,,-0.407407379,-0.337037065,1,0,0,,0,119,119,471,1,
,,,,,,,,,,,,,,,,,,5edac90b269f7f71877a26b6,2020-11-27_10h01.05.013,lexical_decision_task_MP_exp2,2020.2.5,Win32,60,,,0,0.318518575,-0.316666667,1,0,0,0.557085,button_right,0.557085,1,,,,,,46,WORD,UN,16,income,SINGLE,m,,,,,,0.004629686,-0.387963019,1,0,0,,0,120,120,225,1,break_done_button
,,,,,,,,,,,,,,,,,,5edac90b269f7f71877a26b6,2020-11-27_10h01.05.013,lexical_decision_task_MP_exp2,2020.2.5,Win32,60,,,0,-0.386111111,-0.355555556,1,0,0,0.790495,button_left,0.790495,1,,,,,,252,NW,UN,16,resait,STAPOD,z,,,,,,-0.386111111,-0.355555556,1,0,0,,0,121,121,431,1,
,,,,,,,,,,,,,,,,,,5edac90b269f7f71877a26b6,2020-11-27_10h01.05.013,lexical_decision_task_MP_exp2,2020.2.5,Win32,60,,,0,-0.350925912,-0.268518575,1,0,0,0.82272,button_left,0.82272,1,,,,,,317,NW,"ID",33,worbal,WORBAL,z,,,,,,-0.350925912,-0.268518575,1,0,0,,0,122,122,256,1,
,,,,,,,,,,,,,,,,,,5edac90b269f7f71877a26b6,2020-11-27_10h01.05.013,lexical_decision_task_MP_exp2,2020.2.5,Win32,60,,,0,0.380555556,-0.258333333,1,0,0,0.44106,button_right,0.44106,1,,,,,,71,WORD,"ID",33,garden,GARDEN,m,,,,,,0.380555556,-0.258333333,1,0,0,,0,123,123,10,1,
,,,,,,,,,,,,,,,,,,5edac90b269f7f71877a26b6,2020-11-27_10h01.05.013,lexical_decision_task_MP_exp2,2020.2.5,Win32,60,,,0,0.366666667,-0.290740797,1,0,0,0.54057,button_right,0.54057,1,,,,,,65,WORD,"ID",33,symbol,SYMBOL,m,,,,,,0.366666667,-0.290740797,1,0,0,,0,124,124,4,1,
,,,,,,,,,,,,,,,,,,5edac90b269f7f71877a26b6,2020-11-27_10h01.05.013,lexical_decision_task_MP_exp2,2020.2.5,Win32,60,,,0,-0.338888889,-0.302777778,1,0,0,0.690035,button_left,0.690035,1,,,,,,406,NW,"ID",16,nouply,NOUPLY,z,,,,,,-0.338888889,-0.302777778,1,0,0,,0,125,125,345,1,
,,,,,,,,,,,,,,,,,,5edac90b269f7f71877a26b6,2020-11-27_10h01.05.013,lexical_decision_task_MP_exp2,2020.2.5,Win32,60,,,0,0.346296353,-0.302777778,1,0,0,0.54038,button_right,0.54038,0,,,,,,319,NW,"ID",33,zomber,ZOMBER,z,,,,,,0.346296353,-0.302777778,1,0,0,,0,126,126,258,1,
,,,,,,,,,,,,,,,,,,5edac90b269f7f71877a26b6,2020-11-27_10h01.05.013,lexical_decision_task_MP_exp2,2020.2.5,Win32,60,,,0,0.348148176,-0.303703732,1,0,0,0.596265,button_right,0.596265,1,,,,,,114,WORD,"ID",33,placid,PLACID,m,,,,,,0.348148176,-0.303703732,1,0,0,,0,127,127,53,1,
,,,,,,,,,,,,,,,,,,5edac90b269f7f71877a26b6,2020-11-27_10h01.05.013,lexical_decision_task_MP_exp2,2020.2.5,Win32,60,,,0,-0.334259245,-0.303703732,1,0,0,0.69657,button_left,0.69657,1,,,,,,359,NW,"ID",33,fonver,FONVER,z,,,,,,-0.334259245,-0.303703732,1,0,0,,0,128,128,298,1,
,,,,,,,,,,,,,,,,,,5edac90b269f7f71877a26b6,2020-11-27_10h01.05.013,lexical_decision_task_MP_exp2,2020.2.5,Win32,60,,,0,0.344444444,-0.303703732,1,0,0,0.707395,button_right,0.707395,0,,,,,,430,NW,UN,33,chrums,CAROEY,z,,,,,,0.344444444,-0.303703732,1,0,0,,0,129,129,369,1,
,,,,,,,,,,,,,,,,,,5edac90b269f7f71877a26b6,2020-11-27_10h01.05.013,lexical_decision_task_MP_exp2,2020.2.5,Win32,60,,,0,0.359259288,-0.301851908,1,0,0,0.640845,button_right,0.640845,0,,,,,,321,NW,"ID",33,miator,MIATOR,z,,,,,,0.359259288,-0.301851908,1,0,0,,0,130,130,260,1,
,,,,,,,,,,,,,,,,,,5edac90b269f7f71877a26b6,2020-11-27_10h01.05.013,lexical_decision_task_MP_exp2,2020.2.5,Win32,60,,,0,0.351851908,-0.308333333,1,0,0,0.54091,button_right,0.54091,0,,,,,,266,NW,UN,16,pasink,VARMIT,z,,,,,,0.351851908,-0.308333333,1,0,0,,0,131,131,445,1,
,,,,,,,,,,,,,,,,,,5edac90b269f7f71877a26b6,2020-11-27_10h01.05.013,lexical_decision_task_MP_exp2,2020.2.5,Win32,60,,,0,0.347222222,-0.312037065,1,0,0,0.55683,button_right,0.55683,1,,,,,,220,WORD,UN,33,mascot,VOYAGE,m,,,,,,0.347222222,-0.312037065,1,0,0,,0,132,132,159,1,
,,,,,,,,,,,,,,,,,,5edac90b269f7f71877a26b6,2020-11-27_10h01.05.013,lexical_decision_task_MP_exp2,2020.2.5,Win32,60,,,0,-0.349074046,-0.301851908,1,0,0,0.60702,button_left,0.60702,1,,,,,,241,NW,UN,16,unwert,SMENCO,z,,,,,,-0.349074046,-0.301851908,1,0,0,,0,133,133,420,1,
,,,,,,,,,,,,,,,,,,5edac90b269f7f71877a26b6,2020-11-27_10h01.05.013,lexical_decision_task_MP_exp2,2020.2.5,Win32,60,,,0,0.345370399,-0.311111111,1,0,0,0.557505,button_right,0.557505,1,,,,,,190,WORD,UN,33,stable,BACKUP,m,,,,,,0.345370399,-0.311111111,1,0,0,,0,134,134,129,1,
,,,,,,,,,,,,,,,,,,5edac90b269f7f71877a26b6,2020-11-27_10h01.05.013,lexical_decision_task_MP_exp2,2020.2.5,Win32,60,,,0,-0.342592578,-0.300925954,1,0,0,1.03977,button_left,1.03977,1,,,,,,468,NW,UN,33,padifs,WICTOR,z,,,,,,-0.342592578,-0.300925954,1,0,0,,0,135,135,407,1,
,,,,,,,,,,,,,,,,,,5edac90b269f7f71877a26b6,2020-11-27_10h01.05.013,lexical_decision_task_MP_exp2,2020.2.5,Win32,60,,,0,0.33148151,-0.318518575,1,0,0,0.60736,button_right,0.60736,0,,,,,,273,NW,UN,16,fumblo,SORTEL,z,,,,,,0.33148151,-0.318518575,1,0,0,,0,136,136,452,1,
,,,,,,,,,,,,,,,,,,5edac90b269f7f71877a26b6,2020-11-27_10h01.05.013,lexical_decision_task_MP_exp2,2020.2.5,Win32,60,,,0,0.335185242,-0.317592621,1,0,0,0.55765,button_right,0.55765,1,,,,,,58,WORD,UN,16,splint,FOSTER,m,,,,,,0.335185242,-0.317592621,1,0,0,,0,137,137,237,1,
,,,,,,,,,,,,,,,,,,5edac90b269f7f71877a26b6,2020-11-27_10h01.05.013,lexical_decision_task_MP_exp2,2020.2.5,Win32,60,,,0,0.343518575,-0.313888889,1,0,0,0.57458,button_right,0.57458,1,,,,,,111,WORD,"ID",33,induce,INDUCE,m,,,,,,0.343518575,-0.313888889,1,0,0,,0,138,138,50,1,
,,,,,,,,,,,,,,,,,,5edac90b269f7f71877a26b6,2020-11-27_10h01.05.013,lexical_decision_task_MP_exp2,2020.2.5,Win32,60,,,0,0.330555556,-0.318518575,1,0,0,0.573185,button_right,0.573185,1,,,,,,48,WORD,UN,16,survey,WALNUT,m,,,,,,0.330555556,-0.318518575,1,0,0,,0,139,139,227,1,
,,,,,,,,,,,,,,,,,,5edac90b269f7f71877a26b6,2020-11-27_10h01.05.013,lexical_decision_task_MP_exp2,2020.2.5,Win32,60,,,0,0.33148151,-0.310185242,1,0,0,0.574645,button_right,0.574645,1,,,,,,233,WORD,UN,33,clumsy,NATURE,m,,,,,,0.33148151,-0.310185242,1,0,0,,0,140,140,172,1,
,,,,,,,,,,,,,,,,,,5edac90b269f7f71877a26b6,2020-11-27_10h01.05.013,lexical_decision_task_MP_exp2,2020.2.5,Win32,60,,,0,-0.344444444,-0.323148176,1,0,0,0.790475,button_left,0.790475,1,,,,,,396,NW,"ID",16,flengy,FLENGY,z,,,,,,-0.344444444,-0.323148176,1,0,0,,0,141,141,335,1,
,,,,,,,,,,,,,,,,,,5edac90b269f7f71877a26b6,2020-11-27_10h01.05.013,lexical_decision_task_MP_exp2,2020.2.5,Win32,60,,,0,0.332407464,-0.312037065,1,0,0,0.55692,button_right,0.55692,1,,,,,,51,WORD,UN,16,impose,HUNGRY,m,,,,,,0.332407464,-0.312037065,1,0,0,,0,142,142,230,1,
,,,,,,,,,,,,,,,,,,5edac90b269f7f71877a26b6,2020-11-27_10h01.05.013,lexical_decision_task_MP_exp2,2020.2.5,Win32,60,,,0,0.328703732,-0.311111111,1,0,0,0.57434,button_right,0.57434,0,,,,,,260,NW,UN,16,stunch,UNJECT,z,,,,,,0.328703732,-0.311111111,1,0,0,,0,143,143,439,1,
,,,,,,,,,,,,,,,,,,5edac90b269f7f71877a26b6,2020-11-27_10h01.05.013,lexical_decision_task_MP_exp2,2020.2.5,Win32,60,,,0,-0.340740712,-0.310185242,1,0,0,0.60768,button_left,0.60768,1,,,,,,267,NW,UN,16,packes,PASINK,z,,,,,,-0.340740712,-0.310185242,1,0,0,,0,144,144,446,1,
,,,,,,,,,,,,,,,,,,5edac90b269f7f71877a26b6,2020-11-27_10h01.05.013,lexical_decision_task_MP_exp2,2020.2.5,Win32,60,,,0,0.337037065,-0.311111111,1,0,0,0.54093,button_right,0.54093,1,,,,,,119,WORD,"ID",33,spider,SPIDER,m,,,,,,0.337037065,-0.311111111,1,0,0,,0,145,145,58,1,
,,,,,,,,,,,,,,,,,,5edac90b269f7f71877a26b6,2020-11-27_10h01.05.013,lexical_decision_task_MP_exp2,2020.2.5,Win32,60,,,0,-0.325925912,-0.322222222,1,0,0,0.70603,button_left,0.70603,1,,,,,,274,NW,UN,16,sleirt,FUMBLO,z,,,,,,-0.325925912,-0.322222222,1,0,0,,0,146,146,453,1,
,,,,,,,,,,,,,,,,,,5edac90b269f7f71877a26b6,2020-11-27_10h01.05.013,lexical_decision_task_MP_exp2,2020.2.5,Win32,60,,,0,0.324074131,-0.318518575,1,0,0,0.5572,button_right,0.5572,1,,,,,,127,WORD,"ID",16,castle,CASTLE,m,,,,,,0.324074131,-0.318518575,1,0,0,,0,147,147,66,1,
,,,,,,,,,,,,,,,,,,5edac90b269f7f71877a26b6,2020-11-27_10h01.05.013,lexical_decision_task_MP_exp2,2020.2.5,Win32,60,,,0,0.321296353,-0.321296353,1,0,0,0.60708,button_right,0.60708,1,,,,,,3,WORD,UN,16,trench,KNIGHT,m,,,,,,0.321296353,-0.321296353,1,0,0,,0,148,148,182,1,
,,,,,,,,,,,,,,,,,,5edac90b269f7f71877a26b6,2020-11-27_10h01.05.013,lexical_decision_task_MP_exp2,2020.2.5,Win32,60,,,0,0.314814843,-0.319444444,1,0,0,0.557495,button_right,0.557495,1,,,,,,21,WORD,UN,16,jockey,SIMPLE,m,,,,,,0.314814843,-0.319444444,1,0,0,,0,149,149,200,1,
,,,,,,,,,,,,,,,,,,5edac90b269f7f71877a26b6,2020-11-27_10h01.05.013,lexical_decision_task_MP_exp2,2020.2.5,Win32,60,,,0,-0.325925912,-0.326851908,1,0,0,0.89065,button_left,0.89065,1,,,,,,344,NW,"ID",33,scrily,SCRILY,z,,,,,,-0.325925912,-0.326851908,1,0,0,,0,150,150,283,1,
,,,,,,,,,,,,,,,,,,5edac90b269f7f71877a26b6,2020-11-27_10h01.05.013,lexical_decision_task_MP_exp2,2020.2.5,Win32,60,,,0,0.320370399,-0.318518575,1,0,0,0.541005,button_right,0.541005,1,,,,,,88,WORD,"ID",33,hunger,HUNGER,m,,,,,,0.320370399,-0.318518575,1,0,0,,0,151,151,27,1,
,,,,,,,,,,,,,,,,,,5edac90b269f7f71877a26b6,2020-11-27_10h01.05.013,lexical_decision_task_MP_exp2,2020.2.5,Win32,60,,,0,0.317592621,-0.319444444,1,0,0,0.491345,button_right,0.491345,1,,,,,,213,WORD,UN,33,intake,SQUEAL,m,,,,,,0.317592621,-0.319444444,1,0,0,,0,152,152,152,1,
,,,,,,,,,,,,,,,,,,5edac90b269f7f71877a26b6,2020-11-27_10h01.05.013,lexical_decision_task_MP_exp2,2020.2.5,Win32,60,,,0,-0.324074046,-0.326851908,1,0,0,0.671035,button_left,0.671035,1,,,,,,261,NW,UN,16,quilew,STUNCH,z,,,,,,-0.324074046,-0.326851908,1,0,0,,0,153,153,440,1,
,,,,,,,,,,,,,,,,,,5edac90b269f7f71877a26b6,2020-11-27_10h01.05.013,lexical_decision_task_MP_exp2,2020.2.5,Win32,60,,,0,-0.324074046,-0.324074131,1,0,0,0.807035,button_left,0.807035,1,,,,,,271,NW,UN,16,damilt,AUBRID,z,,,,,,-0.324074046,-0.324074131,1,0,0,,0,154,154,450,1,
,,,,,,,,,,,,,,,,,,5edac90b269f7f71877a26b6,2020-11-27_10h01.05.013,lexical_decision_task_MP_exp2,2020.2.5,Win32,60,,,0,-0.314814801,-0.329629686,1,0,0,0.62442,button_left,0.62442,1,,,,,,408,NW,"ID",16,hurnia,HURNIA,z,,,,,,-0.314814801,-0.329629686,1,0,0,,0,155,155,347,1,
,,,,,,,,,,,,,,,,,,5edac90b269f7f71877a26b6,2020-11-27_10h01.05.013,lexical_decision_task_MP_exp2,2020.2.5,Win32,60,,,0,-0.310185157,-0.325925954,1,0,0,0.657245,button_left,0.657245,1,,,,,,460,NW,UN,33,justre,MINGAR,z,,,,,,-0.310185157,-0.325925954,1,0,0,,0,156,156,399,1,
,,,,,,,,,,,,,,,,,,5edac90b269f7f71877a26b6,2020-11-27_10h01.05.013,lexical_decision_task_MP_exp2,2020.2.5,Win32,60,,,0,-0.312037023,-0.324074131,1,0,0,0.49036,button_left,0.49036,1,,,,,,407,NW,"ID",16,suiver,SUIVER,z,,,,,,-0.312037023,-0.324074131,1,0,0,,0,157,157,346,1,
,,,,,,,,,,,,,,,,,,5edac90b269f7f71877a26b6,2020-11-27_10h01.05.013,lexical_decision_task_MP_exp2,2020.2.5,Win32,60,,,0,-0.315740712,-0.326851908,1,0,0,0.78973,button_left,0.78973,1,,,,,,277,NW,UN,16,unighs,PETAIN,z,,,,,,-0.315740712,-0.326851908,1,0,0,,0,158,158,456,1,
,,,,,,,,,,,,,,,,,,5edac90b269f7f71877a26b6,2020-11-27_10h01.05.013,lexical_decision_task_MP_exp2,2020.2.5,Win32,60,,,0,-0.31851849,-0.325925954,1,0,0,0.97402,button_left,0.97402,1,,,,,,432,NW,UN,33,drance,LUNKER,z,,,,,,-0.31851849,-0.325925954,1,0,0,,0,159,159,371,1,
,,,,,,,,,,,,,,,,,,5edac90b269f7f71877a26b6,2020-11-27_10h01.05.013,lexical_decision_task_MP_exp2,2020.2.5,Win32,60,,,0,-0.317592578,-0.325925954,1,0,0,0.807625,button_left,0.807625,1,,,,,,458,NW,UN,33,hocite,BARCET,z,,,,,,-0.317592578,-0.325925954,1,0,0,,0,160,160,397,1,
,,,,,,,,,,,,,,,,,,5edac90b269f7f71877a26b6,2020-11-27_10h01.05.013,lexical_decision_task_MP_exp2,2020.2.5,Win32,60,,,0,-0.31851849,-0.325,1,0,0,0.75724,button_left,0.75724,1,,,,,,298,NW,UN,16,sturch,PIERGY,z,,,,,,-0.31851849,-0.325,1,0,0,,0,161,161,477,1,
,,,,,,,,,,,,,,,,,,5edac90b269f7f71877a26b6,2020-11-27_10h01.05.013,lexical_decision_task_MP_exp2,2020.2.5,Win32,60,,,0,-0.317592578,-0.325925954,1,0,0,0.621015,button_left,0.621015,1,,,,,,244,NW,UN,16,anougs,EATRIC,z,,,,,,-0.317592578,-0.325925954,1,0,0,,0,162,162,423,1,
,,,,,,,,,,,,,,,,,,5edac90b269f7f71877a26b6,2020-11-27_10h01.05.013,lexical_decision_task_MP_exp2,2020.2.5,Win32,60,,,0,-0.324074046,-0.325,1,0,0,0.56269,button_left,0.56269,1,,,,,,434,NW,UN,33,impurb,PITROM,z,,,,,,-0.324074046,-0.325,1,0,0,,0,163,163,373,1,
,,,,,,,,,,,,,,,,,,5edac90b269f7f71877a26b6,2020-11-27_10h01.05.013,lexical_decision_task_MP_exp2,2020.2.5,Win32,60,,,0,0.325,-0.318518575,1,0,0,0.61341,button_right,0.61341,0,,,,,,332,NW,"ID",33,vangue,VANGUE,z,,,,,,0.325,-0.318518575,1,0,0,,0,164,164,271,1,
,,,,,,,,,,,,,,,,,,5edac90b269f7f71877a26b6,2020-11-27_10h01.05.013,lexical_decision_task_MP_exp2,2020.2.5,Win32,60,,,0,-0.325925912,-0.321296353,1,0,0,0.60765,button_left,0.60765,1,,,,,,381,NW,"ID",16,huniek,HUNIEK,z,,,,,,-0.325925912,-0.321296353,1,0,0,,0,165,165,320,1,
,,,,,,,,,,,,,,,,,,5edac90b269f7f71877a26b6,2020-11-27_10h01.05.013,lexical_decision_task_MP_exp2,2020.2.5,Win32,60,,,0,-0.325,-0.320370399,1,0,0,0.591495,button_left,0.591495,0,,,,,,191,WORD,UN,33,beacon,STABLE,m,,,,,,-0.325,-0.320370399,1,0,0,,0,166,166,130,1,
,,,,,,,,,,,,,,,,,,5edac90b269f7f71877a26b6,2020-11-27_10h01.05.013,lexical_decision_task_MP_exp2,2020.2.5,Win32,60,,,0,0.323148176,-0.319444444,1,0,0,0.473915,button_right,0.473915,1,,,,,,57,WORD,UN,16,danger,CHANGE,m,,,,,,0.323148176,-0.319444444,1,0,0,,0,167,167,236,1,
,,,,,,,,,,,,,,,,,,5edac90b269f7f71877a26b6,2020-11-27_10h01.05.013,lexical_decision_task_MP_exp2,2020.2.5,Win32,60,,,0,0.318518575,-0.320370399,1,0,0,0.457655,button_right,0.457655,1,,,,,,105,WORD,"ID",33,number,NUMBER,m,,,,,,0.318518575,-0.320370399,1,0,0,,0,168,168,44,1,
,,,,,,,,,,,,,,,,,,5edac90b269f7f71877a26b6,2020-11-27_10h01.05.013,lexical_decision_task_MP_exp2,2020.2.5,Win32,60,,,0,0.312963019,-0.322222222,1,0,0,0.60718,button_right,0.60718,1,,,,,,19,WORD,UN,16,breast,PATRON,m,,,,,,0.312963019,-0.322222222,1,0,0,,0,169,169,198,1,
,,,,,,,,,,,,,,,,,,5edac90b269f7f71877a26b6,2020-11-27_10h01.05.013,lexical_decision_task_MP_exp2,2020.2.5,Win32,60,,,0,0.311111111,-0.320370399,1,0,0,0.52972,button_right,0.52972,1,,,,,,219,WORD,UN,33,voyage,BUCKET,m,,,,,,0.311111111,-0.320370399,1,0,0,,0,170,170,158,1,
,,,,,,,,,,,,,,,,,,5edac90b269f7f71877a26b6,2020-11-27_10h01.05.013,lexical_decision_task_MP_exp2,2020.2.5,Win32,60,,,0,-0.332407379,-0.323148176,1,0,0,0.69055,button_left,0.69055,1,,,,,,401,NW,"ID",16,mustil,MUSTIL,z,,,,,,-0.332407379,-0.323148176,1,0,0,,0,171,171,340,1,
,,,,,,,,,,,,,,,,,,5edac90b269f7f71877a26b6,2020-11-27_10h01.05.013,lexical_decision_task_MP_exp2,2020.2.5,Win32,60,,,0,-0.334259245,-0.319444444,1,0,0,0.62443,button_left,0.62443,1,,,,,,453,NW,UN,33,scouge,BOLVIS,z,,,,,,-0.334259245,-0.319444444,1,0,0,,0,172,172,392,1,
,,,,,,,,,,,,,,,,,,5edac90b269f7f71877a26b6,2020-11-27_10h01.05.013,lexical_decision_task_MP_exp2,2020.2.5,Win32,60,,,0,0.314814843,-0.320370399,1,0,0,0.574555,button_right,0.574555,0,,,,,,250,NW,UN,16,lupict,MILTED,z,,,,,,0.314814843,-0.320370399,1,0,0,,0,173,173,429,1,
,,,,,,,,,,,,,,,,,,5edac90b269f7f71877a26b6,2020-11-27_10h01.05.013,lexical_decision_task_MP_exp2,2020.2.5,Win32,60,,,0,0.313888889,-0.323148176,1,0,0,0.474175,button_right,0.474175,1,,,,,,164,WORD,"ID",16,market,MARKET,m,,,,,,0.313888889,-0.323148176,1,0,0,,0,174,174,103,1,
,,,,,,,,,,,,,,,,,,5edac90b269f7f71877a26b6,2020-11-27_10h01.05.013,lexical_decision_task_MP_exp2,2020.2.5,Win32,60,,,0,0.309259288,-0.323148176,1,0,0,0.52407,button_right,0.52407,1,,,,,,11,WORD,UN,16,amount,CRUISE,m,,,,,,0.309259288,-0.323148176,1,0,0,,0,175,175,190,1,
,,,,,,,,,,,,,,,,,,5edac90b269f7f71877a26b6,2020-11-27_10h01.05.013,lexical_decision_task_MP_exp2,2020.2.5,Win32,60,,,0,0.309259288,-0.322222222,1,0,0,0.4568,button_right,0.4568,1,,,,,,112,WORD,"ID",33,breath,BREATH,m,,,,,,0.309259288,-0.322222222,1,0,0,,0,176,176,51,1,
,,,,,,,,,,,,,,,,,,5edac90b269f7f71877a26b6,2020-11-27_10h01.05.013,lexical_decision_task_MP_exp2,2020.2.5,Win32,60,,,0,0.313888889,-0.319444444,1,0,0,0.424095,button_right,0.424095,1,,,,,,73,WORD,"ID",33,source,SOURCE,m,,,,,,0.313888889,-0.319444444,1,0,0,,0,177,177,12,1,
,,,,,,,,,,,,,,,,,,5edac90b269f7f71877a26b6,2020-11-27_10h01.05.013,lexical_decision_task_MP_exp2,2020.2.5,Win32,60,,,0,0.311111111,-0.321296353,1,0,0,0.50735,button_right,0.50735,1,,,,,,2,WORD,UN,16,knight,BRIDGE,m,,,,,,0.311111111,-0.321296353,1,0,0,,0,178,178,181,1,
,,,,,,,,,,,,,,,,,,5edac90b269f7f71877a26b6,2020-11-27_10h01.05.013,lexical_decision_task_MP_exp2,2020.2.5,Win32,60,,,0,0.315740797,-0.320370399,1,0,0,0.591,button_right,0.591,1,,,,,,195,WORD,UN,33,credit,RESIGN,m,,,,,,0.315740797,-0.320370399,1,0,0,,0,179,179,134,1,
,,,,,,,,,,,,,,,,,,5edac90b269f7f71877a26b6,2020-11-27_10h01.05.013,lexical_decision_task_MP_exp2,2020.2.5,Win32,60,,,0,0.317592621,-0.317592621,1,0,0,0.573545,button_right,0.573545,1,,,,,,110,WORD,"ID",33,polite,POLITE,m,,,,,,0.317592621,-0.317592621,1,0,0,,0,180,180,49,1,
,,,,,,,,,,,,,,,,,,5edac90b269f7f71877a26b6,2020-11-27_10h01.05.013,lexical_decision_task_MP_exp2,2020.2.5,Win32,60,,,0,0.318518575,-0.318518575,1,0,0,0.507705,button_right,0.507705,1,,,,,,118,WORD,"ID",33,flight,FLIGHT,m,,,,,,0.318518575,-0.318518575,1,0,0,,0,181,181,57,1,
,,,,,,,,,,,,,,,,,,5edac90b269f7f71877a26b6,2020-11-27_10h01.05.013,lexical_decision_task_MP_exp2,2020.2.5,Win32,60,,,0,-0.333333333,-0.322222222,1,0,0,0.607035,button_left,0.607035,1,,,,,,276,NW,UN,16,petain,YARMON,z,,,,,,-0.333333333,-0.322222222,1,0,0,,0,182,182,455,1,
,,,,,,,,,,,,,,,,,,5edac90b269f7f71877a26b6,2020-11-27_10h01.05.013,lexical_decision_task_MP_exp2,2020.2.5,Win32,60,,,0,-0.332407379,-0.322222222,1,0,0,0.6572,button_left,0.6572,1,,,,,,358,NW,"ID",33,fleack,FLEACK,z,,,,,,-0.332407379,-0.322222222,1,0,0,,0,183,183,297,1,
,,,,,,,,,,,,,,,,,,5edac90b269f7f71877a26b6,2020-11-27_10h01.05.013,lexical_decision_task_MP_exp2,2020.2.5,Win32,60,,,0,-0.332407379,-0.322222222,1,0,0,0.573695,button_left,0.573695,1,,,,,,281,NW,UN,16,porlex,MELATY,z,,,,,,-0.332407379,-0.322222222,1,0,0,,0,184,184,460,1,
,,,,,,,,,,,,,,,,,,5edac90b269f7f71877a26b6,2020-11-27_10h01.05.013,lexical_decision_task_MP_exp2,2020.2.5,Win32,60,,,0,0.315740797,-0.317592621,1,0,0,0.57378,button_right,0.57378,1,,,,,,104,WORD,"ID",33,studio,STUDIO,m,,,,,,0.315740797,-0.317592621,1,0,0,,0,185,185,43,1,
,,,,,,,,,,,,,,,,,,5edac90b269f7f71877a26b6,2020-11-27_10h01.05.013,lexical_decision_task_MP_exp2,2020.2.5,Win32,60,,,0,0.310185242,-0.322222222,1,0,0,0.63178,button_right,0.63178,0,,,,,,307,NW,"ID",33,kirafe,KIRAFE,z,,,,,,0.310185242,-0.322222222,1,0,0,,0,186,186,246,1,
,,,,,,,,,,,,,,,,,,5edac90b269f7f71877a26b6,2020-11-27_10h01.05.013,lexical_decision_task_MP_exp2,2020.2.5,Win32,60,,,0,-0.336111111,-0.322222222,1,0,0,0.57452,button_left,0.57452,1,,,,,,306,NW,"ID",33,sounge,SOUNGE,z,,,,,,-0.336111111,-0.322222222,1,0,0,,0,187,187,245,1,
,,,,,,,,,,,,,,,,,,5edac90b269f7f71877a26b6,2020-11-27_10h01.05.013,lexical_decision_task_MP_exp2,2020.2.5,Win32,60,,,0,0.317592621,-0.321296353,1,0,0,0.49066,button_right,0.49066,1,,,,,,173,WORD,"ID",16,shower,SHOWER,m,,,,,,0.317592621,-0.321296353,1,0,0,,0,188,188,112,1,
,,,,,,,,,,,,,,,,,,5edac90b269f7f71877a26b6,2020-11-27_10h01.05.013,lexical_decision_task_MP_exp2,2020.2.5,Win32,60,,,0,0.312037065,-0.322222222,1,0,0,0.373975,button_right,0.373975,1,,,,,,35,WORD,UN,16,vanish,SOCKET,m,,,,,,0.312037065,-0.322222222,1,0,0,,0,189,189,214,1,
,,,,,,,,,,,,,,,,,,5edac90b269f7f71877a26b6,2020-11-27_10h01.05.013,lexical_decision_task_MP_exp2,2020.2.5,Win32,60,,,0,0.312037065,-0.323148176,1,0,0,0.424155,button_right,0.424155,0,,,,,,305,NW,"ID",33,forgle,FORGLE,z,,,,,,0.312037065,-0.323148176,1,0,0,,0,190,190,244,1,
,,,,,,,,,,,,,,,,,,5edac90b269f7f71877a26b6,2020-11-27_10h01.05.013,lexical_decision_task_MP_exp2,2020.2.5,Win32,60,,,0,0.319444444,-0.320370399,1,0,0,0.557905,button_right,0.557905,0,,,,,,347,NW,"ID",33,kerift,KERIFT,z,,,,,,0.319444444,-0.320370399,1,0,0,,0,191,191,286,1,
,,,,,,,,,,,,,,,,,,5edac90b269f7f71877a26b6,2020-11-27_10h01.05.013,lexical_decision_task_MP_exp2,2020.2.5,Win32,60,,,0,0.326851908,-0.319444444,1,0,0,0.59091,button_right,0.59091,1,,,,,,5,WORD,UN,16,bundle,PLUNGE,m,,,,,,0.326851908,-0.319444444,1,0,0,,0,192,192,184,1,
,,,,,,,,,,,,,,,,,,5edac90b269f7f71877a26b6,2020-11-27_10h01.05.013,lexical_decision_task_MP_exp2,2020.2.5,Win32,60,,,0,-0.35,-0.318518575,1,0,0,0.72461,button_left,0.72461,1,,,,,,242,NW,UN,16,musied,UNWERT,z,,,,,,-0.35,-0.318518575,1,0,0,,0,193,193,421,1,
,,,,,,,,,,,,,,,,,,5edac90b269f7f71877a26b6,2020-11-27_10h01.05.013,lexical_decision_task_MP_exp2,2020.2.5,Win32,60,,,0,0.322222222,-0.318518575,1,0,0,0.60735,button_right,0.60735,0,,,,,,380,NW,"ID",16,cavory,CAVORY,z,,,,,,0.322222222,-0.318518575,1,0,0,,0,194,194,319,1,
,,,,,,,,,,,,,,,,,,5edac90b269f7f71877a26b6,2020-11-27_10h01.05.013,lexical_decision_task_MP_exp2,2020.2.5,Win32,60,,,0,0.322222222,-0.323148176,1,0,0,0.554445,button_right,0.554445,1,,,,,,154,WORD,"ID",16,author,AUTHOR,m,,,,,,0.322222222,-0.323148176,1,0,0,,0,195,195,93,1,
,,,,,,,,,,,,,,,,,,5edac90b269f7f71877a26b6,2020-11-27_10h01.05.013,lexical_decision_task_MP_exp2,2020.2.5,Win32,60,,,0,0.313888889,-0.327777778,1,0,0,0.639985,button_right,0.639985,0,,,,,,289,NW,UN,16,splino,STARBY,z,,,,,,0.313888889,-0.327777778,1,0,0,,0,196,196,468,1,
,,,,,,,,,,,,,,,,,,5edac90b269f7f71877a26b6,2020-11-27_10h01.05.013,lexical_decision_task_MP_exp2,2020.2.5,Win32,60,,,0,-0.350925912,-0.321296353,1,0,0,0.70637,button_left,0.70637,1,,,,,,410,NW,"ID",16,tunory,TUNORY,z,,,,,,-0.350925912,-0.321296353,1,0,0,,0,197,197,349,1,
,,,,,,,,,,,,,,,,,,5edac90b269f7f71877a26b6,2020-11-27_10h01.05.013,lexical_decision_task_MP_exp2,2020.2.5,Win32,60,,,0,-0.347222222,-0.325,1,0,0,0.570575,button_left,0.570575,1,,,,,,370,NW,"ID",16,sleact,SLEACT,z,,,,,,-0.347222222,-0.325,1,0,0,,0,198,198,309,1,
,,,,,,,,,,,,,,,,,,5edac90b269f7f71877a26b6,2020-11-27_10h01.05.013,lexical_decision_task_MP_exp2,2020.2.5,Win32,60,,,0,-0.344444444,-0.325,1,0,0,0.790975,button_left,0.790975,1,,,,,,323,NW,"ID",33,rosail,ROSAIL,z,,,,,,-0.344444444,-0.325,1,0,0,,0,199,199,262,1,
,,,,,,,,,,,,,,,,,,5edac90b269f7f71877a26b6,2020-11-27_10h01.05.013,lexical_decision_task_MP_exp2,2020.2.5,Win32,60,,,0,0.324074131,-0.326851908,1,0,0,0.673865,button_right,0.673865,0,,,,,,320,NW,"ID",33,jockal,JOCKAL,z,,,,,,0.324074131,-0.326851908,1,0,0,,0,200,200,259,1,
,,,,,,,,,,,,,,,,,,5edac90b269f7f71877a26b6,2020-11-27_10h01.05.013,lexical_decision_task_MP_exp2,2020.2.5,Win32,60,,,0,-0.357407379,-0.323148176,1,0,0,0.74089,button_left,0.74089,1,,,,,,400,NW,"ID",16,wearox,WEAROX,z,,,,,,-0.357407379,-0.323148176,1,0,0,,0,201,201,339,1,
,,,,,,,,,,,,,,,,,,5edac90b269f7f71877a26b6,2020-11-27_10h01.05.013,lexical_decision_task_MP_exp2,2020.2.5,Win32,60,,,0,-0.349074046,-0.325,1,0,0,0.75737,button_left,0.75737,1,,,,,,418,NW,"ID",16,suidle,SUIDLE,z,,,,,,-0.349074046,-0.325,1,0,0,,0,202,202,357,1,
,,,,,,,,,,,,,,,,,,5edac90b269f7f71877a26b6,2020-11-27_10h01.05.013,lexical_decision_task_MP_exp2,2020.2.5,Win32,60,,,0,0.316666667,-0.33148151,1,0,0,0.90736,button_right,0.90736,0,,,,,,373,NW,"ID",16,bigent,BIGENT,z,,,,,,0.316666667,-0.33148151,1,0,0,,0,203,203,312,1,
,,,,,,,,,,,,,,,,,,5edac90b269f7f71877a26b6,2020-11-27_10h01.05.013,lexical_decision_task_MP_exp2,2020.2.5,Win32,60,,,0,0.313888889,-0.328703732,1,0,0,0.573815,button_right,0.573815,1,,,,,,45,WORD,UN,16,single,CLERGY,m,,,,,,0.313888889,-0.328703732,1,0,0,,0,204,204,224,1,
,,,,,,,,,,,,,,,,,,5edac90b269f7f71877a26b6,2020-11-27_10h01.05.013,lexical_decision_task_MP_exp2,2020.2.5,Win32,60,,,0,0.312963019,-0.328703732,1,0,0,0.50758,button_right,0.50758,1,,,,,,92,WORD,"ID",33,strand,STRAND,m,,,,,,0.312963019,-0.328703732,1,0,0,,0,205,205,31,1,
,,,,,,,,,,,,,,,,,,5edac90b269f7f71877a26b6,2020-11-27_10h01.05.013,lexical_decision_task_MP_exp2,2020.2.5,Win32,60,,,0,0.318518575,-0.329629686,1,0,0,0.49092,button_right,0.49092,1,,,,,,87,WORD,"ID",33,filter,FILTER,m,,,,,,0.318518575,-0.329629686,1,0,0,,0,206,206,26,1,
,,,,,,,,,,,,,,,,,,5edac90b269f7f71877a26b6,2020-11-27_10h01.05.013,lexical_decision_task_MP_exp2,2020.2.5,Win32,60,,,0,0.317592621,-0.326851908,1,0,0,0.55731,button_right,0.55731,1,,,,,,196,WORD,UN,33,stream,CREDIT,m,,,,,,0.317592621,-0.326851908,1,0,0,,0,207,207,135,1,
,,,,,,,,,,,,,,,,,,5edac90b269f7f71877a26b6,2020-11-27_10h01.05.013,lexical_decision_task_MP_exp2,2020.2.5,Win32,60,,,0,-0.342592578,-0.327777778,1,0,0,0.72392,button_left,0.72392,1,,,,,,259,NW,UN,16,unject,SOUDAL,z,,,,,,-0.342592578,-0.327777778,1,0,0,,0,208,208,438,1,
,,,,,,,,,,,,,,,,,,5edac90b269f7f71877a26b6,2020-11-27_10h01.05.013,lexical_decision_task_MP_exp2,2020.2.5,Win32,60,,,0,-0.345370356,-0.325,1,0,0,0.50794,button_left,0.50794,0,,,,,,215,WORD,UN,33,lumber,PHOBIA,m,,,,,,-0.345370356,-0.325,1,0,0,,0,209,209,154,1,
,,,,,,,,,,,,,,,,,,5edac90b269f7f71877a26b6,2020-11-27_10h01.05.013,lexical_decision_task_MP_exp2,2020.2.5,Win32,60,,,0,0.325925954,-0.327777778,1,0,0,0.540995,button_right,0.540995,1,,,,,,228,WORD,UN,33,kidney,MASTER,m,,,,,,0.325925954,-0.327777778,1,0,0,,0,210,210,167,1,
,,,,,,,,,,,,,,,,,,5edac90b269f7f71877a26b6,2020-11-27_10h01.05.013,lexical_decision_task_MP_exp2,2020.2.5,Win32,60,,,0,-0.34351849,-0.332407464,1,0,0,0.607685,button_left,0.607685,1,,,,,,443,NW,UN,33,jaunce,DORSEX,z,,,,,,-0.34351849,-0.332407464,1,0,0,,0,211,211,382,1,
,,,,,,,,,,,,,,,,,,5edac90b269f7f71877a26b6,2020-11-27_10h01.05.013,lexical_decision_task_MP_exp2,2020.2.5,Win32,60,,,0,-0.342592578,-0.334259288,1,0,0,0.62421,button_left,0.62421,1,,,,,,466,NW,UN,33,robuly,HOCITE,z,,,,,,-0.342592578,-0.334259288,1,0,0,,0,212,212,405,1,
,,,,,,,,,,,,,,,,,,5edac90b269f7f71877a26b6,2020-11-27_10h01.05.013,lexical_decision_task_MP_exp2,2020.2.5,Win32,60,,,0,0.313888889,-0.332407464,1,0,0,0.50213,button_right,0.50213,1,,,,,,180,WORD,"ID",16,silent,SILENT,m,,,,,,0.313888889,-0.332407464,1,0,0,,0,213,213,119,1,
,,,,,,,,,,,,,,,,,,5edac90b269f7f71877a26b6,2020-11-27_10h01.05.013,lexical_decision_task_MP_exp2,2020.2.5,Win32,60,,,0,0.324074131,-0.329629686,1,0,0,0.49113,button_right,0.49113,1,,,,,,145,WORD,"ID",16,parish,PARISH,m,,,,,,0.324074131,-0.329629686,1,0,0,,0,214,214,84,1,
,,,,,,,,,,,,,,,,,,5edac90b269f7f71877a26b6,2020-11-27_10h01.05.013,lexical_decision_task_MP_exp2,2020.2.5,Win32,60,,,0,0.322222222,-0.326851908,1,0,0,0.456915,button_right,0.456915,1,,,,,,66,WORD,"ID",33,gospel,GOSPEL,m,,,,,,0.322222222,-0.326851908,1,0,0,,0,215,215,5,1,
,,,,,,,,,,,,,,,,,,5edac90b269f7f71877a26b6,2020-11-27_10h01.05.013,lexical_decision_task_MP_exp2,2020.2.5,Win32,60,,,0,0.316666667,-0.334259288,1,0,0,0.60902,button_right,0.60902,0,,,,,,248,NW,UN,16,batrol,STROLE,z,,,,,,0.316666667,-0.334259288,1,0,0,,0,216,216,427,1,
,,,,,,,,,,,,,,,,,,5edac90b269f7f71877a26b6,2020-11-27_10h01.05.013,lexical_decision_task_MP_exp2,2020.2.5,Win32,60,,,0,-0.348148134,-0.33148151,1,0,0,0.59068,button_left,0.59068,0,,,,,,184,WORD,UN,33,bother,SLEAZY,m,,,,,,-0.348148134,-0.33148151,1,0,0,,0,217,217,123,1,
,,,,,,,,,,,,,,,,,,5edac90b269f7f71877a26b6,2020-11-27_10h01.05.013,lexical_decision_task_MP_exp2,2020.2.5,Win32,60,,,0,-0.350925912,-0.325,1,0,0,0.857505,button_left,0.857505,1,,,,,,275,NW,UN,16,yarmon,SLEIRT,z,,,,,,-0.350925912,-0.325,1,0,0,,0,218,218,454,1,
,,,,,,,,,,,,,,,,,,5edac90b269f7f71877a26b6,2020-11-27_10h01.05.013,lexical_decision_task_MP_exp2,2020.2.5,Win32,60,,,0,0.308333333,-0.328703732,1,0,0,0.45866,button_right,0.45866,1,,,,,,109,WORD,"ID",33,wonder,WONDER,m,,,,,,0.308333333,-0.328703732,1,0,0,,0,219,219,48,1,
,,,,,,,,,,,,,,,,,,5edac90b269f7f71877a26b6,2020-11-27_10h01.05.013,lexical_decision_task_MP_exp2,2020.2.5,Win32,60,,,0,0.308333333,-0.33148151,1,0,0,0.540985,button_right,0.540985,0,,,,,,472,NW,UN,33,gorbie,CIGNEY,z,,,,,,0.308333333,-0.33148151,1,0,0,,0,220,220,411,1,
,,,,,,,,,,,,,,,,,,5edac90b269f7f71877a26b6,2020-11-27_10h01.05.013,lexical_decision_task_MP_exp2,2020.2.5,Win32,60,,,0,0.313888889,-0.329629686,1,0,0,0.607005,button_right,0.607005,1,,,,,,230,WORD,UN,33,mother,FRINGE,m,,,,,,0.313888889,-0.329629686,1,0,0,,0,221,221,169,1,
,,,,,,,,,,,,,,,,,,5edac90b269f7f71877a26b6,2020-11-27_10h01.05.013,lexical_decision_task_MP_exp2,2020.2.5,Win32,60,,,0,-0.352777778,-0.326851908,1,0,0,0.89074,button_left,0.89074,1,,,,,,363,NW,"ID",16,breali,BREALI,z,,,,,,-0.352777778,-0.326851908,1,0,0,,0,222,222,302,1,
,,,,,,,,,,,,,,,,,,5edac90b269f7f71877a26b6,2020-11-27_10h01.05.013,lexical_decision_task_MP_exp2,2020.2.5,Win32,60,,,0,0.312037065,-0.329629686,1,0,0,0.60725,button_right,0.60725,0,,,,,,346,NW,"ID",33,saudic,SAUDIC,z,,,,,,0.312037065,-0.329629686,1,0,0,,0,223,223,285,1,
,,,,,,,,,,,,,,,,,,5edac90b269f7f71877a26b6,2020-11-27_10h01.05.013,lexical_decision_task_MP_exp2,2020.2.5,Win32,60,,,0,0.322222222,-0.329629686,1,0,0,0.541095,button_right,0.541095,1,,,,,,149,WORD,"ID",16,invade,INVADE,m,,,,,,0.322222222,-0.329629686,1,0,0,,0,224,224,88,1,
,,,,,,,,,,,,,,,,,,5edac90b269f7f71877a26b6,2020-11-27_10h01.05.013,lexical_decision_task_MP_exp2,2020.2.5,Win32,60,,,0,-0.351851824,-0.326851908,1,0,0,0.7406,button_left,0.7406,1,,,,,,302,NW,"ID",33,miluer,MILUER,z,,,,,,-0.351851824,-0.326851908,1,0,0,,0,225,225,241,1,
,,,,,,,,,,,,,,,,,,5edac90b269f7f71877a26b6,2020-11-27_10h01.05.013,lexical_decision_task_MP_exp2,2020.2.5,Win32,60,,,0,-0.349074046,-0.328703732,1,0,0,0.78927,button_left,0.78927,1,,,,,,422,NW,UN,33,streld,ALCOUD,z,,,,,,-0.349074046,-0.328703732,1,0,0,,0,226,226,361,1,
,,,,,,,,,,,,,,,,,,5edac90b269f7f71877a26b6,2020-11-27_10h01.05.013,lexical_decision_task_MP_exp2,2020.2.5,Win32,60,,,0,0.313888889,-0.33148151,1,0,0,0.57442,button_right,0.57442,1,,,,,,68,WORD,"ID",33,fumble,FUMBLE,m,,,,,,0.313888889,-0.33148151,1,0,0,,0,227,227,7,1,
,,,,,,,,,,,,,,,,,,5edac90b269f7f71877a26b6,2020-11-27_10h01.05.013,lexical_decision_task_MP_exp2,2020.2.5,Win32,60,,,0,0.313888889,-0.335185242,1,0,0,0.474095,button_right,0.474095,0,,,,,,470,NW,UN,33,nobest,CRUDIO,z,,,,,,0.313888889,-0.335185242,1,0,0,,0,228,228,409,1,
,,,,,,,,,,,,,,,,,,5edac90b269f7f71877a26b6,2020-11-27_10h01.05.013,lexical_decision_task_MP_exp2,2020.2.5,Win32,60,,,0,0.312963019,-0.333333333,1,0,0,0.42447,button_right,0.42447,0,,,,,,300,NW,UN,16,smenco,YARION,z,,,,,,0.312963019,-0.333333333,1,0,0,,0,229,229,479,1,
,,,,,,,,,,,,,,,,,,5edac90b269f7f71877a26b6,2020-11-27_10h01.05.013,lexical_decision_task_MP_exp2,2020.2.5,Win32,60,,,0,0.322222222,-0.326851908,1,0,0,0.52408,button_right,0.52408,1,,,,,,80,WORD,"ID",33,family,FAMILY,m,,,,,,0.322222222,-0.326851908,1,0,0,,0,230,230,19,1,
,,,,,,,,,,,,,,,,,,5edac90b269f7f71877a26b6,2020-11-27_10h01.05.013,lexical_decision_task_MP_exp2,2020.2.5,Win32,60,,,0,0.320370399,-0.324074131,1,0,0,0.640855,button_right,0.640855,0,,,,,,424,NW,UN,33,frudge,PRAILE,z,,,,,,0.320370399,-0.324074131,1,0,0,,0,231,231,363,1,
,,,,,,,,,,,,,,,,,,5edac90b269f7f71877a26b6,2020-11-27_10h01.05.013,lexical_decision_task_MP_exp2,2020.2.5,Win32,60,,,0,-0.361111111,-0.321296353,1,0,0,0.57411,button_left,0.57411,1,,,,,,411,NW,"ID",16,orchin,ORCHIN,z,,,,,,-0.361111111,-0.321296353,1,0,0,,0,232,232,350,1,
,,,,,,,,,,,,,,,,,,5edac90b269f7f71877a26b6,2020-11-27_10h01.05.013,lexical_decision_task_MP_exp2,2020.2.5,Win32,60,,,0,0.320370399,-0.325925954,1,0,0,0.473635,button_right,0.473635,1,,,,,,31,WORD,UN,16,buckle,WEAPON,m,,,,,,0.320370399,-0.325925954,1,0,0,,0,233,233,210,1,
,,,,,,,,,,,,,,,,,,5edac90b269f7f71877a26b6,2020-11-27_10h01.05.013,lexical_decision_task_MP_exp2,2020.2.5,Win32,60,,,0,0.315740797,-0.327777778,1,0,0,0.4079,button_right,0.4079,1,,,,,,146,WORD,"ID",16,couple,COUPLE,m,,,,,,0.315740797,-0.327777778,1,0,0,,0,234,234,85,1,
,,,,,,,,,,,,,,,,,,5edac90b269f7f71877a26b6,2020-11-27_10h01.05.013,lexical_decision_task_MP_exp2,2020.2.5,Win32,60,,,0,0.322222222,-0.325925954,1,0,0,0.474605,button_right,0.474605,1,,,,,,179,WORD,"ID",16,basket,BASKET,m,,,,,,0.322222222,-0.325925954,1,0,0,,0,235,235,118,1,
,,,,,,,,,,,,,,,,,,5edac90b269f7f71877a26b6,2020-11-27_10h01.05.013,lexical_decision_task_MP_exp2,2020.2.5,Win32,60,,,0,-0.366666667,-0.321296353,1,0,0,0.4582,button_left,0.4582,1,,,,,,362,NW,"ID",16,tireau,TIREAU,z,,,,,,-0.366666667,-0.321296353,1,0,0,,0,236,236,301,1,
,,,,,,,,,,,,,,,,,,5edac90b269f7f71877a26b6,2020-11-27_10h01.05.013,lexical_decision_task_MP_exp2,2020.2.5,Win32,60,,,0,-0.356481467,-0.329629686,1,0,0,0.67349,button_left,0.67349,1,,,,,,390,NW,"ID",16,hatrus,HATRUS,z,,,,,,-0.356481467,-0.329629686,1,0,0,,0,237,237,329,1,
,,,,,,,,,,,,,,,,,,5edac90b269f7f71877a26b6,2020-11-27_10h01.05.013,lexical_decision_task_MP_exp2,2020.2.5,Win32,60,,,0,-0.357407379,-0.332407464,1,0,0,0.60778,button_left,0.60778,0,,,,,,56,WORD,UN,16,change,AMBUSH,m,,,,,,-0.357407379,-0.332407464,1,0,0,,0,238,238,235,1,
,,,,,,,,,,,,,,,,,,5edac90b269f7f71877a26b6,2020-11-27_10h01.05.013,lexical_decision_task_MP_exp2,2020.2.5,Win32,60,,,0,-0.347222222,-0.33148151,1,0,0,0.74038,button_left,0.74038,1,,,,,,356,NW,"ID",33,othnis,OTHNIS,z,,,,,,-0.347222222,-0.33148151,1,0,0,,0,239,239,295,1,
,,,,,,,,,,,,,,,,,,5edac90b269f7f71877a26b6,2020-11-27_10h01.05.013,lexical_decision_task_MP_exp2,2020.2.5,Win32,60,,,0,0.337037065,-0.315740797,1,0,0,0.44146,button_right,0.44146,0,,,,,,311,NW,"ID",33,sproly,SPROLY,z,,,,,,0.337037065,-0.315740797,1,0,0,,0,240,240,250,1,
,,,,,,,,,,,,,,,,,,5edac90b269f7f71877a26b6,2020-11-27_10h01.05.013,lexical_decision_task_MP_exp2,2020.2.5,Win32,60,,,0,0.337037065,-0.321296353,1,0,0,0.607165,button_right,0.607165,1,,,,,,141,WORD,"ID",16,orphan,ORPHAN,m,,,,,,0.177777778,-0.391666667,1,0,0,,0,241,241,80,1,break_done_button
,,,,,,,,,,,,,,,,,,5edac90b269f7f71877a26b6,2020-11-27_10h01.05.013,lexical_decision_task_MP_exp2,2020.2.5,Win32,60,,,0,0.329629686,-0.344444444,1,0,0,0.59643,button_right,0.59643,1,,,,,,62,WORD,"ID",33,region,REGION,m,,,,,,0.329629686,-0.344444444,1,0,0,,0,242,242,1,1,
,,,,,,,,,,,,,,,,,,5edac90b269f7f71877a26b6,2020-11-27_10h01.05.013,lexical_decision_task_MP_exp2,2020.2.5,Win32,60,,,0,0.336111111,-0.333333333,1,0,0,0.431025,button_right,0.431025,0,,,,,,469,NW,UN,33,crudio,PADIFS,z,,,,,,0.336111111,-0.333333333,1,0,0,,0,243,243,408,1,
,,,,,,,,,,,,,,,,,,5edac90b269f7f71877a26b6,2020-11-27_10h01.05.013,lexical_decision_task_MP_exp2,2020.2.5,Win32,60,,,0,0.372222222,-0.310185242,1,0,0,0.62411,button_right,0.62411,1,,,,,,15,WORD,UN,16,faucet,AMOUNT,m,,,,,,0.372222222,-0.310185242,1,0,0,,0,244,244,194,1,
,,,,,,,,,,,,,,,,,,5edac90b269f7f71877a26b6,2020-11-27_10h01.05.013,lexical_decision_task_MP_exp2,2020.2.5,Win32,60,,,0,0.351851908,-0.318518575,1,0,0,0.5578,button_right,0.5578,1,,,,,,99,WORD,"ID",33,fluent,FLUENT,m,,,,,,0.351851908,-0.318518575,1,0,0,,0,245,245,38,1,
,,,,,,,,,,,,,,,,,,5edac90b269f7f71877a26b6,2020-11-27_10h01.05.013,lexical_decision_task_MP_exp2,2020.2.5,Win32,60,,,0,-0.355555556,-0.349074131,1,0,0,0.607515,button_left,0.607515,1,,,,,,465,NW,UN,33,bafent,WHIVEX,z,,,,,,-0.355555556,-0.349074131,1,0,0,,0,246,246,404,1,
,,,,,,,,,,,,,,,,,,5edac90b269f7f71877a26b6,2020-11-27_10h01.05.013,lexical_decision_task_MP_exp2,2020.2.5,Win32,60,,,0,0.334259288,-0.33148151,1,0,0,0.62345,button_right,0.62345,1,,,,,,193,WORD,UN,33,mildew,OBJECT,m,,,,,,0.334259288,-0.33148151,1,0,0,,0,247,247,132,1,
,,,,,,,,,,,,,,,,,,5edac90b269f7f71877a26b6,2020-11-27_10h01.05.013,lexical_decision_task_MP_exp2,2020.2.5,Win32,60,,,0,0.327777778,-0.332407464,1,0,0,0.507675,button_right,0.507675,0,,,,,,342,NW,"ID",33,randow,RANDOW,z,,,,,,0.327777778,-0.332407464,1,0,0,,0,248,248,281,1,
,,,,,,,,,,,,,,,,,,5edac90b269f7f71877a26b6,2020-11-27_10h01.05.013,lexical_decision_task_MP_exp2,2020.2.5,Win32,60,,,0,-0.367592578,-0.336111111,1,0,0,0.610305,button_left,0.610305,1,,,,,,455,NW,UN,33,broget,TONDLE,z,,,,,,-0.367592578,-0.336111111,1,0,0,,0,249,249,394,1,
,,,,,,,,,,,,,,,,,,5edac90b269f7f71877a26b6,2020-11-27_10h01.05.013,lexical_decision_task_MP_exp2,2020.2.5,Win32,60,,,0,0.33148151,-0.330555556,1,0,0,0.674245,button_right,0.674245,1,,,,,,204,WORD,UN,33,lounge,BURDEN,m,,,,,,0.33148151,-0.330555556,1,0,0,,0,250,250,143,1,
,,,,,,,,,,,,,,,,,,5edac90b269f7f71877a26b6,2020-11-27_10h01.05.013,lexical_decision_task_MP_exp2,2020.2.5,Win32,60,,,0,0.330555556,-0.330555556,1,0,0,0.49079,button_right,0.49079,1,,,,,,117,WORD,"ID",33,branch,BRANCH,m,,,,,,0.330555556,-0.330555556,1,0,0,,0,251,251,56,1,
,,,,,,,,,,,,,,,,,,5edac90b269f7f71877a26b6,2020-11-27_10h01.05.013,lexical_decision_task_MP_exp2,2020.2.5,Win32,60,,,0,0.325,-0.335185242,1,0,0,0.490805,button_right,0.490805,1,,,,,,186,WORD,UN,33,course,PORTAL,m,,,,,,0.325,-0.335185242,1,0,0,,0,252,252,125,1,
,,,,,,,,,,,,,,,,,,5edac90b269f7f71877a26b6,2020-11-27_10h01.05.013,lexical_decision_task_MP_exp2,2020.2.5,Win32,60,,,0,-0.369444444,-0.344444444,1,0,0,0.72367,button_left,0.72367,1,,,,,,256,NW,UN,16,veniod,INLORS,z,,,,,,-0.369444444,-0.344444444,1,0,0,,0,253,253,435,1,
,,,,,,,,,,,,,,,,,,5edac90b269f7f71877a26b6,2020-11-27_10h01.05.013,lexical_decision_task_MP_exp2,2020.2.5,Win32,60,,,0,0.326851908,-0.33148151,1,0,0,0.57415,button_right,0.57415,0,,,,,,348,NW,"ID",33,dumple,DUMPLE,z,,,,,,0.326851908,-0.33148151,1,0,0,,0,254,254,287,1,
,,,,,,,,,,,,,,,,,,5edac90b269f7f71877a26b6,2020-11-27_10h01.05.013,lexical_decision_task_MP_exp2,2020.2.5,Win32,60,,,0,0.328703732,-0.328703732,1,0,0,0.624495,button_right,0.624495,1,,,,,,30,WORD,UN,16,weapon,ORIENT,m,,,,,,0.328703732,-0.328703732,1,0,0,,0,255,255,209,1,
,,,,,,,,,,,,,,,,,,5edac90b269f7f71877a26b6,2020-11-27_10h01.05.013,lexical_decision_task_MP_exp2,2020.2.5,Win32,60,,,0,0.332407464,-0.325925954,1,0,0,0.575175,button_right,0.575175,1,,,,,,199,WORD,UN,33,plague,INVOKE,m,,,,,,0.332407464,-0.325925954,1,0,0,,0,256,256,138,1,
,,,,,,,,,,,,,,,,,,5edac90b269f7f71877a26b6,2020-11-27_10h01.05.013,lexical_decision_task_MP_exp2,2020.2.5,Win32,60,,,0,-0.360185157,-0.346296353,1,0,0,0.80719,button_left,0.80719,1,,,,,,297,NW,UN,16,piergy,FERTIC,z,,,,,,-0.360185157,-0.346296353,1,0,0,,0,257,257,476,1,
,,,,,,,,,,,,,,,,,,5edac90b269f7f71877a26b6,2020-11-27_10h01.05.013,lexical_decision_task_MP_exp2,2020.2.5,Win32,60,,,0,0.33148151,-0.326851908,1,0,0,0.557255,button_right,0.557255,1,,,,,,218,WORD,UN,33,bucket,SHRINK,m,,,,,,0.33148151,-0.326851908,1,0,0,,0,258,258,157,1,
,,,,,,,,,,,,,,,,,,5edac90b269f7f71877a26b6,2020-11-27_10h01.05.013,lexical_decision_task_MP_exp2,2020.2.5,Win32,60,,,0,0.328703732,-0.325925954,1,0,0,0.5574,button_right,0.5574,1,,,,,,160,WORD,"ID",16,violet,VIOLET,m,,,,,,0.328703732,-0.325925954,1,0,0,,0,259,259,99,1,
,,,,,,,,,,,,,,,,,,5edac90b269f7f71877a26b6,2020-11-27_10h01.05.013,lexical_decision_task_MP_exp2,2020.2.5,Win32,60,,,0,-0.355555556,-0.351851908,1,0,0,0.740345,button_left,0.740345,1,,,,,,444,NW,UN,33,minkel,JAUNCE,z,,,,,,-0.355555556,-0.351851908,1,0,0,,0,260,260,383,1,
,,,,,,,,,,,,,,,,,,5edac90b269f7f71877a26b6,2020-11-27_10h01.05.013,lexical_decision_task_MP_exp2,2020.2.5,Win32,60,,,0,0.328703732,-0.325925954,1,0,0,0.47399,button_right,0.47399,1,,,,,,130,WORD,"ID",16,stupid,STUPID,m,,,,,,0.328703732,-0.325925954,1,0,0,,0,261,261,69,1,
,,,,,,,,,,,,,,,,,,5edac90b269f7f71877a26b6,2020-11-27_10h01.05.013,lexical_decision_task_MP_exp2,2020.2.5,Win32,60,,,0,0.324074131,-0.327777778,1,0,0,0.45729,button_right,0.45729,1,,,,,,28,WORD,UN,16,sketch,COMEDY,m,,,,,,0.324074131,-0.327777778,1,0,0,,0,262,262,207,1,
,,,,,,,,,,,,,,,,,,5edac90b269f7f71877a26b6,2020-11-27_10h01.05.013,lexical_decision_task_MP_exp2,2020.2.5,Win32,60,,,0,-0.351851824,-0.355555556,1,0,0,0.54235,button_left,0.54235,1,,,,,,282,NW,UN,16,veralf,PORLEX,z,,,,,,-0.351851824,-0.355555556,1,0,0,,0,263,263,461,1,
,,,,,,,,,,,,,,,,,,5edac90b269f7f71877a26b6,2020-11-27_10h01.05.013,lexical_decision_task_MP_exp2,2020.2.5,Win32,60,,,0,-0.350925912,-0.35648151,1,0,0,0.640935,button_left,0.640935,1,,,,,,442,NW,UN,33,dorsex,ABOUNE,z,,,,,,-0.350925912,-0.35648151,1,0,0,,0,264,264,381,1,
,,,,,,,,,,,,,,,,,,5edac90b269f7f71877a26b6,2020-11-27_10h01.05.013,lexical_decision_task_MP_exp2,2020.2.5,Win32,60,,,0,-0.357407379,-0.351851908,1,0,0,0.640615,button_left,0.640615,1,,,,,,446,NW,UN,33,gircue,RUNAMO,z,,,,,,-0.357407379,-0.351851908,1,0,0,,0,265,265,385,1,
,,,,,,,,,,,,,,,,,,5edac90b269f7f71877a26b6,2020-11-27_10h01.05.013,lexical_decision_task_MP_exp2,2020.2.5,Win32,60,,,0,-0.355555556,-0.354629686,1,0,0,0.62398,button_left,0.62398,1,,,,,,379,NW,"ID",16,auting,AUTING,z,,,,,,-0.355555556,-0.354629686,1,0,0,,0,266,266,318,1,
,,,,,,,,,,,,,,,,,,5edac90b269f7f71877a26b6,2020-11-27_10h01.05.013,lexical_decision_task_MP_exp2,2020.2.5,Win32,60,,,0,-0.362962935,-0.352777778,1,0,0,0.623845,button_left,0.623845,1,,,,,,394,NW,"ID",16,spaqux,SPAQUX,z,,,,,,-0.362962935,-0.352777778,1,0,0,,0,267,267,333,1,
,,,,,,,,,,,,,,,,,,5edac90b269f7f71877a26b6,2020-11-27_10h01.05.013,lexical_decision_task_MP_exp2,2020.2.5,Win32,60,,,0,0.337963019,-0.321296353,1,0,0,0.70657,button_right,0.70657,1,,,,,,8,WORD,UN,16,hustle,ABRUPT,m,,,,,,0.337963019,-0.321296353,1,0,0,,0,268,268,187,1,
,,,,,,,,,,,,,,,,,,5edac90b269f7f71877a26b6,2020-11-27_10h01.05.013,lexical_decision_task_MP_exp2,2020.2.5,Win32,60,,,0,0.328703732,-0.326851908,1,0,0,0.474555,button_right,0.474555,0,,,,,,462,NW,UN,33,kispel,ABSULT,z,,,,,,0.328703732,-0.326851908,1,0,0,,0,269,269,401,1,
,,,,,,,,,,,,,,,,,,5edac90b269f7f71877a26b6,2020-11-27_10h01.05.013,lexical_decision_task_MP_exp2,2020.2.5,Win32,60,,,0,-0.362962935,-0.352777778,1,0,0,0.641095,button_left,0.641095,1,,,,,,287,NW,UN,16,yaceup,NYMBEL,z,,,,,,-0.362962935,-0.352777778,1,0,0,,0,270,270,466,1,
,,,,,,,,,,,,,,,,,,5edac90b269f7f71877a26b6,2020-11-27_10h01.05.013,lexical_decision_task_MP_exp2,2020.2.5,Win32,60,,,0,0.333333333,-0.327777778,1,0,0,0.474415,button_right,0.474415,1,,,,,,29,WORD,UN,16,orient,SKETCH,m,,,,,,0.333333333,-0.327777778,1,0,0,,0,271,271,208,1,
,,,,,,,,,,,,,,,,,,5edac90b269f7f71877a26b6,2020-11-27_10h01.05.013,lexical_decision_task_MP_exp2,2020.2.5,Win32,60,,,0,0.325,-0.33148151,1,0,0,0.60729,button_right,0.60729,1,,,,,,223,WORD,UN,33,period,KIDNEY,m,,,,,,0.325,-0.33148151,1,0,0,,0,272,272,162,1,
,,,,,,,,,,,,,,,,,,5edac90b269f7f71877a26b6,2020-11-27_10h01.05.013,lexical_decision_task_MP_exp2,2020.2.5,Win32,60,,,0,0.322222222,-0.335185242,1,0,0,0.47455,button_right,0.47455,1,,,,,,185,WORD,UN,33,portal,BOTHER,m,,,,,,0.322222222,-0.335185242,1,0,0,,0,273,273,124,1,
,,,,,,,,,,,,,,,,,,5edac90b269f7f71877a26b6,2020-11-27_10h01.05.013,lexical_decision_task_MP_exp2,2020.2.5,Win32,60,,,0,0.325,-0.329629686,1,0,0,0.5575,button_right,0.5575,1,,,,,,214,WORD,UN,33,phobia,INTAKE,m,,,,,,0.325,-0.329629686,1,0,0,,0,274,274,153,1,
,,,,,,,,,,,,,,,,,,5edac90b269f7f71877a26b6,2020-11-27_10h01.05.013,lexical_decision_task_MP_exp2,2020.2.5,Win32,60,,,0,0.328703732,-0.327777778,1,0,0,0.72342,button_right,0.72342,1,,,,,,155,WORD,"ID",16,lizard,LIZARD,m,,,,,,0.328703732,-0.327777778,1,0,0,,0,275,275,94,1,
,,,,,,,,,,,,,,,,,,5edac90b269f7f71877a26b6,2020-11-27_10h01.05.013,lexical_decision_task_MP_exp2,2020.2.5,Win32,60,,,0,-0.350925912,-0.351851908,1,0,0,0.940525,button_left,0.940525,1,,,,,,372,NW,"ID",16,ramily,RAMILY,z,,,,,,-0.350925912,-0.351851908,1,0,0,,0,276,276,311,1,
,,,,,,,,,,,,,,,,,,5edac90b269f7f71877a26b6,2020-11-27_10h01.05.013,lexical_decision_task_MP_exp2,2020.2.5,Win32,60,,,0,-0.35,-0.35648151,1,0,0,0.557345,button_left,0.557345,1,,,,,,354,NW,"ID",33,virlex,VIRLEX,z,,,,,,-0.35,-0.35648151,1,0,0,,0,277,277,293,1,
,,,,,,,,,,,,,,,,,,5edac90b269f7f71877a26b6,2020-11-27_10h01.05.013,lexical_decision_task_MP_exp2,2020.2.5,Win32,60,,,0,0.323148176,-0.329629686,1,0,0,0.590895,button_right,0.590895,0,,,,,,291,NW,UN,16,ablint,PRETCH,z,,,,,,0.323148176,-0.329629686,1,0,0,,0,278,278,470,1,
,,,,,,,,,,,,,,,,,,5edac90b269f7f71877a26b6,2020-11-27_10h01.05.013,lexical_decision_task_MP_exp2,2020.2.5,Win32,60,,,0,0.327777778,-0.327777778,1,0,0,0.5399,button_right,0.5399,1,,,,,,124,WORD,"ID",16,blouse,BLOUSE,m,,,,,,0.327777778,-0.327777778,1,0,0,,0,279,279,63,1,
,,,,,,,,,,,,,,,,,,5edac90b269f7f71877a26b6,2020-11-27_10h01.05.013,lexical_decision_task_MP_exp2,2020.2.5,Win32,60,,,0,-0.350925912,-0.35648151,1,0,0,0.773775,button_left,0.773775,1,,,,,,463,NW,UN,33,chaite,KISPEL,z,,,,,,-0.350925912,-0.35648151,1,0,0,,0,280,280,402,1,
,,,,,,,,,,,,,,,,,,5edac90b269f7f71877a26b6,2020-11-27_10h01.05.013,lexical_decision_task_MP_exp2,2020.2.5,Win32,60,,,0,0.326851908,-0.330555556,1,0,0,0.607825,button_right,0.607825,1,,,,,,120,WORD,"ID",33,strain,STRAIN,m,,,,,,0.326851908,-0.330555556,1,0,0,,0,281,281,59,1,
,,,,,,,,,,,,,,,,,,5edac90b269f7f71877a26b6,2020-11-27_10h01.05.013,lexical_decision_task_MP_exp2,2020.2.5,Win32,60,,,0,-0.348148134,-0.364814843,1,0,0,0.622665,button_left,0.622665,1,,,,,,412,NW,"ID",16,jiluer,JILUER,z,,,,,,-0.348148134,-0.364814843,1,0,0,,0,282,282,351,1,
,,,,,,,,,,,,,,,,,,5edac90b269f7f71877a26b6,2020-11-27_10h01.05.013,lexical_decision_task_MP_exp2,2020.2.5,Win32,60,,,0,0.33148151,-0.327777778,1,0,0,0.5076,button_right,0.5076,1,,,,,,96,WORD,"ID",33,ignore,IGNORE,m,,,,,,0.33148151,-0.327777778,1,0,0,,0,283,283,35,1,
,,,,,,,,,,,,,,,,,,5edac90b269f7f71877a26b6,2020-11-27_10h01.05.013,lexical_decision_task_MP_exp2,2020.2.5,Win32,60,,,0,-0.344444444,-0.364814843,1,0,0,0.52387,button_left,0.52387,1,,,,,,262,NW,UN,16,dolica,QUILEW,z,,,,,,-0.344444444,-0.364814843,1,0,0,,0,284,284,441,1,
,,,,,,,,,,,,,,,,,,5edac90b269f7f71877a26b6,2020-11-27_10h01.05.013,lexical_decision_task_MP_exp2,2020.2.5,Win32,60,,,0,-0.342592578,-0.365740797,1,0,0,0.707555,button_left,0.707555,1,,,,,,330,NW,"ID",33,kensom,KENSOM,z,,,,,,-0.342592578,-0.365740797,1,0,0,,0,285,285,269,1,
,,,,,,,,,,,,,,,,,,5edac90b269f7f71877a26b6,2020-11-27_10h01.05.013,lexical_decision_task_MP_exp2,2020.2.5,Win32,60,,,0,-0.347222222,-0.359259288,1,0,0,0.773755,button_left,0.773755,1,,,,,,360,NW,"ID",33,desory,DESORY,z,,,,,,-0.347222222,-0.359259288,1,0,0,,0,286,286,299,1,
,,,,,,,,,,,,,,,,,,5edac90b269f7f71877a26b6,2020-11-27_10h01.05.013,lexical_decision_task_MP_exp2,2020.2.5,Win32,60,,,0,0.324074131,-0.328703732,1,0,0,0.50725,button_right,0.50725,1,,,,,,123,WORD,"ID",16,strike,STRIKE,m,,,,,,0.324074131,-0.328703732,1,0,0,,0,287,287,62,1,
,,,,,,,,,,,,,,,,,,5edac90b269f7f71877a26b6,2020-11-27_10h01.05.013,lexical_decision_task_MP_exp2,2020.2.5,Win32,60,,,0,-0.341666667,-0.367592621,1,0,0,0.64038,button_left,0.64038,1,,,,,,334,NW,"ID",33,watmeg,WATMEG,z,,,,,,-0.341666667,-0.367592621,1,0,0,,0,288,288,273,1,
,,,,,,,,,,,,,,,,,,5edac90b269f7f71877a26b6,2020-11-27_10h01.05.013,lexical_decision_task_MP_exp2,2020.2.5,Win32,60,,,0,0.322222222,-0.327777778,1,0,0,0.540985,button_right,0.540985,1,,,,,,53,WORD,UN,16,ramble,POLICE,m,,,,,,0.322222222,-0.327777778,1,0,0,,0,289,289,232,1,
,,,,,,,,,,,,,,,,,,5edac90b269f7f71877a26b6,2020-11-27_10h01.05.013,lexical_decision_task_MP_exp2,2020.2.5,Win32,60,,,0,-0.346296268,-0.364814843,1,0,0,0.65765,button_left,0.65765,1,,,,,,393,NW,"ID",16,ganous,GANOUS,z,,,,,,-0.346296268,-0.364814843,1,0,0,,0,290,290,332,1,
,,,,,,,,,,,,,,,,,,5edac90b269f7f71877a26b6,2020-11-27_10h01.05.013,lexical_decision_task_MP_exp2,2020.2.5,Win32,60,,,0,0.323148176,-0.328703732,1,0,0,0.59059,button_right,0.59059,1,,,,,,14,WORD,UN,16,orange,ALMOST,m,,,,,,0.323148176,-0.328703732,1,0,0,,0,291,291,193,1,
,,,,,,,,,,,,,,,,,,5edac90b269f7f71877a26b6,2020-11-27_10h01.05.013,lexical_decision_task_MP_exp2,2020.2.5,Win32,60,,,0,0.327777778,-0.326851908,1,0,0,0.573855,button_right,0.573855,1,,,,,,108,WORD,"ID",33,reckon,RECKON,m,,,,,,0.327777778,-0.326851908,1,0,0,,0,292,292,47,1,
,,,,,,,,,,,,,,,,,,5edac90b269f7f71877a26b6,2020-11-27_10h01.05.013,lexical_decision_task_MP_exp2,2020.2.5,Win32,60,,,0,0.330555556,-0.325925954,1,0,0,0.557815,button_right,0.557815,1,,,,,,216,WORD,UN,33,liquor,BEHALF,m,,,,,,0.330555556,-0.325925954,1,0,0,,0,293,293,155,1,
,,,,,,,,,,,,,,,,,,5edac90b269f7f71877a26b6,2020-11-27_10h01.05.013,lexical_decision_task_MP_exp2,2020.2.5,Win32,60,,,0,-0.35,-0.366666667,1,0,0,0.640855,button_left,0.640855,1,,,,,,456,NW,UN,33,wanigh,BROGET,z,,,,,,-0.35,-0.366666667,1,0,0,,0,294,294,395,1,
,,,,,,,,,,,,,,,,,,5edac90b269f7f71877a26b6,2020-11-27_10h01.05.013,lexical_decision_task_MP_exp2,2020.2.5,Win32,60,,,0,-0.342592578,-0.367592621,1,0,0,0.840625,button_left,0.840625,1,,,,,,265,NW,UN,16,varmit,DISTAR,z,,,,,,-0.342592578,-0.367592621,1,0,0,,0,295,295,444,1,
,,,,,,,,,,,,,,,,,,5edac90b269f7f71877a26b6,2020-11-27_10h01.05.013,lexical_decision_task_MP_exp2,2020.2.5,Win32,60,,,0,0.332407464,-0.329629686,1,0,0,0.690625,button_right,0.690625,0,,,,,,364,NW,"ID",16,impote,IMPOTE,z,,,,,,0.332407464,-0.329629686,1,0,0,,0,296,296,303,1,
,,,,,,,,,,,,,,,,,,5edac90b269f7f71877a26b6,2020-11-27_10h01.05.013,lexical_decision_task_MP_exp2,2020.2.5,Win32,60,,,0,0.334259288,-0.329629686,1,0,0,0.590765,button_right,0.590765,1,,,,,,10,WORD,UN,16,cruise,ETHNIC,m,,,,,,0.334259288,-0.329629686,1,0,0,,0,297,297,189,1,
,,,,,,,,,,,,,,,,,,5edac90b269f7f71877a26b6,2020-11-27_10h01.05.013,lexical_decision_task_MP_exp2,2020.2.5,Win32,60,,,0,-0.351851824,-0.367592621,1,0,0,0.774545,button_left,0.774545,1,,,,,,423,NW,UN,33,praile,STRELD,z,,,,,,-0.351851824,-0.367592621,1,0,0,,0,298,298,362,1,
,,,,,,,,,,,,,,,,,,5edac90b269f7f71877a26b6,2020-11-27_10h01.05.013,lexical_decision_task_MP_exp2,2020.2.5,Win32,60,,,0,0.345370399,-0.326851908,1,0,0,0.59102,button_right,0.59102,1,,,,,,239,WORD,UN,33,forest,LUMBER,m,,,,,,0.345370399,-0.326851908,1,0,0,,0,299,299,178,1,
,,,,,,,,,,,,,,,,,,5edac90b269f7f71877a26b6,2020-11-27_10h01.05.013,lexical_decision_task_MP_exp2,2020.2.5,Win32,60,,,0,-0.35370369,-0.363888889,1,0,0,0.623985,button_left,0.623985,1,,,,,,245,NW,UN,16,piaton,ANOUGS,z,,,,,,-0.35370369,-0.363888889,1,0,0,,0,300,300,424,1,
,,,,,,,,,,,,,,,,,,5edac90b269f7f71877a26b6,2020-11-27_10h01.05.013,lexical_decision_task_MP_exp2,2020.2.5,Win32,60,,,0,0.333333333,-0.328703732,1,0,0,0.540565,button_right,0.540565,1,,,,,,150,WORD,"ID",16,random,RANDOM,m,,,,,,0.333333333,-0.328703732,1,0,0,,0,301,301,89,1,
,,,,,,,,,,,,,,,,,,5edac90b269f7f71877a26b6,2020-11-27_10h01.05.013,lexical_decision_task_MP_exp2,2020.2.5,Win32,60,,,0,-0.344444444,-0.372222222,1,0,0,0.723945,button_left,0.723945,1,,,,,,350,NW,"ID",33,nagurs,NAGURS,z,,,,,,-0.344444444,-0.372222222,1,0,0,,0,302,302,289,1,
,,,,,,,,,,,,,,,,,,5edac90b269f7f71877a26b6,2020-11-27_10h01.05.013,lexical_decision_task_MP_exp2,2020.2.5,Win32,60,,,0,0.337037065,-0.330555556,1,0,0,0.49125,button_right,0.49125,1,,,,,,210,WORD,UN,33,infect,MONKEY,m,,,,,,0.337037065,-0.330555556,1,0,0,,0,303,303,149,1,
,,,,,,,,,,,,,,,,,,5edac90b269f7f71877a26b6,2020-11-27_10h01.05.013,lexical_decision_task_MP_exp2,2020.2.5,Win32,60,,,0,-0.351851824,-0.369444444,1,0,0,0.723955,button_left,0.723955,1,,,,,,476,NW,UN,33,photie,JOSTED,z,,,,,,-0.351851824,-0.369444444,1,0,0,,0,304,304,415,1,
,,,,,,,,,,,,,,,,,,5edac90b269f7f71877a26b6,2020-11-27_10h01.05.013,lexical_decision_task_MP_exp2,2020.2.5,Win32,60,,,0,-0.345370356,-0.371296353,1,0,0,0.674345,button_left,0.674345,1,,,,,,448,NW,UN,33,brunge,SADENT,z,,,,,,-0.345370356,-0.371296353,1,0,0,,0,305,305,387,1,
,,,,,,,,,,,,,,,,,,5edac90b269f7f71877a26b6,2020-11-27_10h01.05.013,lexical_decision_task_MP_exp2,2020.2.5,Win32,60,,,0,0.335185242,-0.327777778,1,0,0,0.840885,button_right,0.840885,1,,,,,,85,WORD,"ID",33,sprawl,SPRAWL,m,,,,,,0.335185242,-0.327777778,1,0,0,,0,306,306,24,1,
,,,,,,,,,,,,,,,,,,5edac90b269f7f71877a26b6,2020-11-27_10h01.05.013,lexical_decision_task_MP_exp2,2020.2.5,Win32,60,,,0,-0.355555556,-0.360185242,1,0,0,0.723815,button_left,0.723815,1,,,,,,475,NW,UN,33,josted,PEBRIC,z,,,,,,-0.355555556,-0.360185242,1,0,0,,0,307,307,414,1,
,,,,,,,,,,,,,,,,,,5edac90b269f7f71877a26b6,2020-11-27_10h01.05.013,lexical_decision_task_MP_exp2,2020.2.5,Win32,60,,,0,-0.36851849,-0.359259288,1,0,0,0.63975,button_left,0.63975,1,,,,,,415,NW,"ID",16,higsta,HIGSTA,z,,,,,,-0.36851849,-0.359259288,1,0,0,,0,308,308,354,1,
,,,,,,,,,,,,,,,,,,5edac90b269f7f71877a26b6,2020-11-27_10h01.05.013,lexical_decision_task_MP_exp2,2020.2.5,Win32,60,,,0,-0.349074046,-0.378703732,1,0,0,0.65744,button_left,0.65744,1,,,,,,480,NW,UN,33,knisma,ROBULY,z,,,,,,-0.349074046,-0.378703732,1,0,0,,0,309,309,419,1,
,,,,,,,,,,,,,,,,,,5edac90b269f7f71877a26b6,2020-11-27_10h01.05.013,lexical_decision_task_MP_exp2,2020.2.5,Win32,60,,,0,-0.348148134,-0.377777778,1,0,0,0.723545,button_left,0.723545,1,,,,,,353,NW,"ID",33,clurey,CLUREY,z,,,,,,-0.348148134,-0.377777778,1,0,0,,0,310,310,292,1,
,,,,,,,,,,,,,,,,,,5edac90b269f7f71877a26b6,2020-11-27_10h01.05.013,lexical_decision_task_MP_exp2,2020.2.5,Win32,60,,,0,0.328703732,-0.33148151,1,0,0,0.5576,button_right,0.5576,1,,,,,,52,WORD,UN,16,police,IMPOSE,m,,,,,,0.328703732,-0.33148151,1,0,0,,0,311,311,231,1,
,,,,,,,,,,,,,,,,,,5edac90b269f7f71877a26b6,2020-11-27_10h01.05.013,lexical_decision_task_MP_exp2,2020.2.5,Win32,60,,,0,-0.355555556,-0.373148176,1,0,0,0.64043,button_left,0.64043,1,,,,,,365,NW,"ID",16,guairt,GUAIRT,z,,,,,,-0.355555556,-0.373148176,1,0,0,,0,312,312,304,1,
,,,,,,,,,,,,,,,,,,5edac90b269f7f71877a26b6,2020-11-27_10h01.05.013,lexical_decision_task_MP_exp2,2020.2.5,Win32,60,,,0,-0.350925912,-0.375925954,1,0,0,0.65782,button_left,0.65782,1,,,,,,366,NW,"ID",16,toshel,TOSHEL,z,,,,,,-0.350925912,-0.375925954,1,0,0,,0,313,313,305,1,
,,,,,,,,,,,,,,,,,,5edac90b269f7f71877a26b6,2020-11-27_10h01.05.013,lexical_decision_task_MP_exp2,2020.2.5,Win32,60,,,0,-0.375925912,-0.350925954,1,0,0,0.6244,button_left,0.6244,1,,,,,,437,NW,UN,33,baitch,SNAPEL,z,,,,,,-0.375925912,-0.350925954,1,0,0,,0,314,314,376,1,
,,,,,,,,,,,,,,,,,,5edac90b269f7f71877a26b6,2020-11-27_10h01.05.013,lexical_decision_task_MP_exp2,2020.2.5,Win32,60,,,0,0.325925954,-0.335185242,1,0,0,0.50732,button_right,0.50732,1,,,,,,77,WORD,"ID",33,racket,RACKET,m,,,,,,0.325925954,-0.335185242,1,0,0,,0,315,315,16,1,
,,,,,,,,,,,,,,,,,,5edac90b269f7f71877a26b6,2020-11-27_10h01.05.013,lexical_decision_task_MP_exp2,2020.2.5,Win32,60,,,0,-0.363888889,-0.359259288,1,0,0,0.657485,button_left,0.657485,1,,,,,,445,NW,UN,33,runamo,MINKEL,z,,,,,,-0.363888889,-0.359259288,1,0,0,,0,316,316,384,1,
,,,,,,,,,,,,,,,,,,5edac90b269f7f71877a26b6,2020-11-27_10h01.05.013,lexical_decision_task_MP_exp2,2020.2.5,Win32,60,,,0,0.325,-0.33148151,1,0,0,0.707705,button_right,0.707705,1,,,,,,20,WORD,UN,16,simple,BREAST,m,,,,,,0.325,-0.33148151,1,0,0,,0,317,317,199,1,
,,,,,,,,,,,,,,,,,,5edac90b269f7f71877a26b6,2020-11-27_10h01.05.013,lexical_decision_task_MP_exp2,2020.2.5,Win32,60,,,0,0.328703732,-0.328703732,1,0,0,0.85802,button_right,0.85802,1,,,,,,207,WORD,UN,33,hockey,WREATH,m,,,,,,0.328703732,-0.328703732,1,0,0,,0,318,318,146,1,
,,,,,,,,,,,,,,,,,,5edac90b269f7f71877a26b6,2020-11-27_10h01.05.013,lexical_decision_task_MP_exp2,2020.2.5,Win32,60,,,0,0.313888889,-0.334259288,1,0,0,0.725385,button_right,0.725385,0,,,,,,270,NW,UN,16,aubrid,WRIMSY,z,,,,,,0.313888889,-0.334259288,1,0,0,,0,319,319,449,1,
,,,,,,,,,,,,,,,,,,5edac90b269f7f71877a26b6,2020-11-27_10h01.05.013,lexical_decision_task_MP_exp2,2020.2.5,Win32,60,,,0,0.323148176,-0.33148151,1,0,0,0.75638,button_right,0.75638,1,,,,,,36,WORD,UN,16,insult,VANISH,m,,,,,,0.323148176,-0.33148151,1,0,0,,0,320,320,215,1,
,,,,,,,,,,,,,,,,,,5edac90b269f7f71877a26b6,2020-11-27_10h01.05.013,lexical_decision_task_MP_exp2,2020.2.5,Win32,60,,,0,-0.35,-0.370370399,1,0,0,0.673655,button_left,0.673655,1,,,,,,387,NW,"ID",16,gronce,GRONCE,z,,,,,,-0.35,-0.370370399,1,0,0,,0,321,321,326,1,
,,,,,,,,,,,,,,,,,,5edac90b269f7f71877a26b6,2020-11-27_10h01.05.013,lexical_decision_task_MP_exp2,2020.2.5,Win32,60,,,0,0.321296353,-0.33148151,1,0,0,0.624075,button_right,0.624075,0,,,,,,285,NW,UN,16,reldon,PRUDGE,z,,,,,,0.321296353,-0.33148151,1,0,0,,0,322,322,464,1,
,,,,,,,,,,,,,,,,,,5edac90b269f7f71877a26b6,2020-11-27_10h01.05.013,lexical_decision_task_MP_exp2,2020.2.5,Win32,60,,,0,0.328703732,-0.328703732,1,0,0,0.62426,button_right,0.62426,1,,,,,,175,WORD,"ID",16,fabric,FABRIC,m,,,,,,0.328703732,-0.328703732,1,0,0,,0,323,323,114,1,
,,,,,,,,,,,,,,,,,,5edac90b269f7f71877a26b6,2020-11-27_10h01.05.013,lexical_decision_task_MP_exp2,2020.2.5,Win32,60,,,0,-0.356481467,-0.372222222,1,0,0,0.707055,button_left,0.707055,1,,,,,,338,NW,"ID",33,wreash,WREASH,z,,,,,,-0.356481467,-0.372222222,1,0,0,,0,324,324,277,1,
,,,,,,,,,,,,,,,,,,5edac90b269f7f71877a26b6,2020-11-27_10h01.05.013,lexical_decision_task_MP_exp2,2020.2.5,Win32,60,,,0,0.286111111,-0.349074131,1,0,0,0.59093,button_right,0.59093,1,,,,,,168,WORD,"ID",16,answer,ANSWER,m,,,,,,0.286111111,-0.349074131,1,0,0,,0,325,325,107,1,
,,,,,,,,,,,,,,,,,,5edac90b269f7f71877a26b6,2020-11-27_10h01.05.013,lexical_decision_task_MP_exp2,2020.2.5,Win32,60,,,0,-0.356481467,-0.364814843,1,0,0,0.59097,button_left,0.59097,1,,,,,,417,NW,"ID",16,earoud,EAROUD,z,,,,,,-0.356481467,-0.364814843,1,0,0,,0,326,326,356,1,
,,,,,,,,,,,,,,,,,,5edac90b269f7f71877a26b6,2020-11-27_10h01.05.013,lexical_decision_task_MP_exp2,2020.2.5,Win32,60,,,0,0.30648151,-0.339814843,1,0,0,0.606615,button_right,0.606615,0,,,,,,433,NW,UN,33,pitrom,DRANCE,z,,,,,,0.30648151,-0.339814843,1,0,0,,0,327,327,372,1,
,,,,,,,,,,,,,,,,,,5edac90b269f7f71877a26b6,2020-11-27_10h01.05.013,lexical_decision_task_MP_exp2,2020.2.5,Win32,60,,,0,-0.357407379,-0.368518575,1,0,0,0.790565,button_left,0.790565,1,,,,,,451,NW,UN,33,surden,CAINKY,z,,,,,,-0.357407379,-0.368518575,1,0,0,,0,328,328,390,1,
,,,,,,,,,,,,,,,,,,5edac90b269f7f71877a26b6,2020-11-27_10h01.05.013,lexical_decision_task_MP_exp2,2020.2.5,Win32,60,,,0,-0.358333333,-0.363888889,1,0,0,0.752535,button_left,0.752535,1,,,,,,405,NW,"ID",16,flumni,FLUMNI,z,,,,,,-0.358333333,-0.363888889,1,0,0,,0,329,329,344,1,
,,,,,,,,,,,,,,,,,,5edac90b269f7f71877a26b6,2020-11-27_10h01.05.013,lexical_decision_task_MP_exp2,2020.2.5,Win32,60,,,0,-0.350925912,-0.376851908,1,0,0,0.55702,button_left,0.55702,1,,,,,,384,NW,"ID",16,guesco,GUESCO,z,,,,,,-0.350925912,-0.376851908,1,0,0,,0,330,330,323,1,
,,,,,,,,,,,,,,,,,,5edac90b269f7f71877a26b6,2020-11-27_10h01.05.013,lexical_decision_task_MP_exp2,2020.2.5,Win32,60,,,0,0.303703732,-0.332407464,1,0,0,0.574125,button_right,0.574125,1,,,,,,42,WORD,UN,16,tongue,CHAPEL,m,,,,,,0.303703732,-0.332407464,1,0,0,,0,331,331,221,1,
,,,,,,,,,,,,,,,,,,5edac90b269f7f71877a26b6,2020-11-27_10h01.05.013,lexical_decision_task_MP_exp2,2020.2.5,Win32,60,,,0,-0.366666667,-0.364814843,1,0,0,0.87357,button_left,0.87357,1,,,,,,263,NW,UN,16,vackel,DOLICA,z,,,,,,-0.366666667,-0.364814843,1,0,0,,0,332,332,442,1,
,,,,,,,,,,,,,,,,,,5edac90b269f7f71877a26b6,2020-11-27_10h01.05.013,lexical_decision_task_MP_exp2,2020.2.5,Win32,60,,,0,-0.362037023,-0.359259288,1,0,0,0.65764,button_left,0.65764,1,,,,,,421,NW,UN,33,alcoud,KNISMA,z,,,,,,-0.362037023,-0.359259288,1,0,0,,0,333,333,360,1,
,,,,,,,,,,,,,,,,,,5edac90b269f7f71877a26b6,2020-11-27_10h01.05.013,lexical_decision_task_MP_exp2,2020.2.5,Win32,60,,,0,0.311111111,-0.332407464,1,0,0,0.57425,button_right,0.57425,1,,,,,,144,WORD,"ID",16,sponge,SPONGE,m,,,,,,0.311111111,-0.332407464,1,0,0,,0,334,334,83,1,
,,,,,,,,,,,,,,,,,,5edac90b269f7f71877a26b6,2020-11-27_10h01.05.013,lexical_decision_task_MP_exp2,2020.2.5,Win32,60,,,0,0.304629686,-0.328703732,1,0,0,0.707995,button_right,0.707995,1,,,,,,138,WORD,"ID",16,melody,MELODY,m,,,,,,0.304629686,-0.328703732,1,0,0,,0,335,335,77,1,
,,,,,,,,,,,,,,,,,,5edac90b269f7f71877a26b6,2020-11-27_10h01.05.013,lexical_decision_task_MP_exp2,2020.2.5,Win32,60,,,0,-0.349074046,-0.371296353,1,0,0,0.657185,button_left,0.657185,1,,,,,,457,NW,UN,33,barcet,WANIGH,z,,,,,,-0.349074046,-0.371296353,1,0,0,,0,336,336,396,1,
,,,,,,,,,,,,,,,,,,5edac90b269f7f71877a26b6,2020-11-27_10h01.05.013,lexical_decision_task_MP_exp2,2020.2.5,Win32,60,,,0,0.318518575,-0.334259288,1,0,0,0.607915,button_right,0.607915,1,,,,,,170,WORD,"ID",16,pounce,POUNCE,m,,,,,,0.318518575,-0.334259288,1,0,0,,0,337,337,109,1,
,,,,,,,,,,,,,,,,,,5edac90b269f7f71877a26b6,2020-11-27_10h01.05.013,lexical_decision_task_MP_exp2,2020.2.5,Win32,60,,,0,0.317592621,-0.329629686,1,0,0,0.674325,button_right,0.674325,1,,,,,,187,WORD,UN,33,social,COURSE,m,,,,,,0.317592621,-0.329629686,1,0,0,,0,338,338,126,1,
,,,,,,,,,,,,,,,,,,5edac90b269f7f71877a26b6,2020-11-27_10h01.05.013,lexical_decision_task_MP_exp2,2020.2.5,Win32,60,,,0,-0.375,-0.351851908,1,0,0,0.774145,button_left,0.774145,1,,,,,,247,NW,UN,16,strole,BLARGE,z,,,,,,-0.375,-0.351851908,1,0,0,,0,339,339,426,1,
,,,,,,,,,,,,,,,,,,5edac90b269f7f71877a26b6,2020-11-27_10h01.05.013,lexical_decision_task_MP_exp2,2020.2.5,Win32,60,,,0,-0.366666667,-0.358333333,1,0,0,0.79063,button_left,0.79063,1,,,,,,413,NW,"ID",16,equats,EQUATS,z,,,,,,-0.366666667,-0.358333333,1,0,0,,0,340,340,352,1,
