counterbalancing_condition,instr_done_keyboard.keys,instr_done_keyboard.rt,instr_done_touch.x,instr_done_touch.y,instr_done_touch.leftButton,instr_done_touch.midButton,instr_done_touch.rightButton,instruction_pages.thisRepN,instruction_pages.thisTrialN,instruction_pages.thisN,instruction_pages.thisIndex,instruction_pages.ran,pageN,phase,instruct_text,has_image,instruct_image,participant,date,expName,psychopyVersion,OS,frameRate,response.keys,response.corr,response.rt,touch_resp.x,touch_resp.y,touch_resp.leftButton,touch_resp.midButton,touch_resp.rightButton,touch_resp.time,touch_resp.clicked_name,rt,corr,practice_trials.thisRepN,practice_trials.thisTrialN,practice_trials.thisN,practice_trials.thisIndex,practice_trials.ran,TrialID,StimulusType,Condition,PrimeDuration,Prime,Target,corrAns,end_of_practice_trials_pages.thisRepN,end_of_practice_trials_pages.thisTrialN,end_of_practice_trials_pages.thisN,end_of_practice_trials_pages.thisIndex,end_of_practice_trials_pages.ran,break_done_touch.x,break_done_touch.y,break_done_touch.leftButton,break_done_touch.midButton,break_done_touch.rightButton,break_done_keyboard.keys,experiment_trials.thisRepN,experiment_trials.thisTrialN,experiment_trials.thisN,experiment_trials.thisIndex,experiment_trials.ran,break_done_keyboard.rt
0,space,10.38087,0.165740741,-0.265740741,0,0,0,0,0,0,0,1,1,instructions,"INSTRUCTIONS
At the start of each trial, look at the hash marks (######) in the center of the screen. After a moment, a string of letters will appear. Your task is to indicate if the letter string forms a word or not (i.e., if it is a nonword). For example, AUTHOR is a word while AUTHON is a nonword.

Press the space bar or touch the button below to continue.",0,,5eea1be10e95520beb9fa654,2020-11-26_15h58.45.455,lexical_decision_task_MP_exp2,2020.2.5,Win32,60,,,,,,,,,,,,,,,,,,,,,,,,,,,,,,,,,,,,,,,,,
,space,12.43653,0.165740741,-0.265740741,0,0,0,0,1,1,1,1,2,instructions,"If your device has a keyboard, press the 'Z' key for nonwords and the 'M' key for words.





Press the space bar or touch the button below to continue.",1,keyboard-example.gif,5eea1be10e95520beb9fa654,2020-11-26_15h58.45.455,lexical_decision_task_MP_exp2,2020.2.5,Win32,60,,,,,,,,,,,,,,,,,,,,,,,,,,,,,,,,,,,,,,,,,
,space,4.736785,0.165740741,-0.265740741,0,0,0,0,2,2,2,1,3,instructions,"If you are using a touchscreen only device, use the buttons on the screen. Do not use the mouse.





Press the space bar or touch the button below to continue.",1,touchscreen-example.gif,5eea1be10e95520beb9fa654,2020-11-26_15h58.45.455,lexical_decision_task_MP_exp2,2020.2.5,Win32,60,,,,,,,,,,,,,,,,,,,,,,,,,,,,,,,,,,,,,,,,,
,space,6.16953,0.165740741,-0.265740741,0,0,0,0,3,3,3,1,4,instructions,"It is very important that you respond as quickly and accurately as possible, as each letter string will only be on the screen for two seconds. If you do not respond within this time, the message 'Too slow!' will be displayed and the experiment will progress to the next letter string. The first 20 trials will be practice trials and you will receive feedback on your answers. 

Press the space bar or touch the button below to start the practice trials.",0,,5eea1be10e95520beb9fa654,2020-11-26_15h58.45.455,lexical_decision_task_MP_exp2,2020.2.5,Win32,60,,,,,,,,,,,,,,,,,,,,,,,,,,,,,,,,,,,,,,,,,
,,,,,,,,,,,,,,,,,,5eea1be10e95520beb9fa654,2020-11-26_15h58.45.455,lexical_decision_task_MP_exp2,2020.2.5,Win32,60,m,1,1.083605,,,,,,,,1.083605,1,0,0,0,5,1,1006,WORD,UN,33,frenzy,OBTAIN,m,,,,,,,,,,,,,,,,,
,,,,,,,,,,,,,,,,,,5eea1be10e95520beb9fa654,2020-11-26_15h58.45.455,lexical_decision_task_MP_exp2,2020.2.5,Win32,60,z,1,1.000365,,,,,,,,1.000365,1,0,1,1,12,1,1013,NW,UN,33,adveil,SPRINY,z,,,,,,,,,,,,,,,,,
,,,,,,,,,,,,,,,,,,5eea1be10e95520beb9fa654,2020-11-26_15h58.45.455,lexical_decision_task_MP_exp2,2020.2.5,Win32,60,m,1,0.734515,,,,,,,,0.734515,1,0,2,2,1,1,1002,WORD,"ID",33,adjust,ADJUST,m,,,,,,,,,,,,,,,,,
,,,,,,,,,,,,,,,,,,5eea1be10e95520beb9fa654,2020-11-26_15h58.45.455,lexical_decision_task_MP_exp2,2020.2.5,Win32,60,z,1,0.71374,,,,,,,,0.71374,1,0,3,3,11,1,1012,NW,"ID",16,rashet,RASHET,z,,,,,,,,,,,,,,,,,
,,,,,,,,,,,,,,,,,,5eea1be10e95520beb9fa654,2020-11-26_15h58.45.455,lexical_decision_task_MP_exp2,2020.2.5,Win32,60,z,1,0.685965,,,,,,,,0.685965,1,0,4,4,9,1,1010,NW,"ID",33,fariny,FARINY,z,,,,,,,,,,,,,,,,,
,,,,,,,,,,,,,,,,,,5eea1be10e95520beb9fa654,2020-11-26_15h58.45.455,lexical_decision_task_MP_exp2,2020.2.5,Win32,60,m,1,0.68135,,,,,,,,0.68135,1,0,5,5,6,1,1007,WORD,UN,16,tropic,ZOMBIE,m,,,,,,,,,,,,,,,,,
,,,,,,,,,,,,,,,,,,5eea1be10e95520beb9fa654,2020-11-26_15h58.45.455,lexical_decision_task_MP_exp2,2020.2.5,Win32,60,m,1,0.651815,,,,,,,,0.651815,1,0,6,6,0,1,1001,WORD,"ID",33,utopia,UTOPIA,m,,,,,,,,,,,,,,,,,
,,,,,,,,,,,,,,,,,,5eea1be10e95520beb9fa654,2020-11-26_15h58.45.455,lexical_decision_task_MP_exp2,2020.2.5,Win32,60,z,1,0.6179,,,,,,,,0.6179,1,0,7,7,15,1,1016,NW,UN,16,mushed,WHAISE,z,,,,,,,,,,,,,,,,,
,,,,,,,,,,,,,,,,,,5eea1be10e95520beb9fa654,2020-11-26_15h58.45.455,lexical_decision_task_MP_exp2,2020.2.5,Win32,60,m,1,0.660845,,,,,,,,0.660845,1,0,8,8,3,1,1004,WORD,"ID",16,matrix,MATRIX,m,,,,,,,,,,,,,,,,,
,,,,,,,,,,,,,,,,,,5eea1be10e95520beb9fa654,2020-11-26_15h58.45.455,lexical_decision_task_MP_exp2,2020.2.5,Win32,60,z,1,0.633305,,,,,,,,0.633305,1,0,9,9,13,1,1014,NW,UN,33,winfer,ROUPET,z,,,,,,,,,,,,,,,,,
,,,,,,,,,,,,,,,,,,5eea1be10e95520beb9fa654,2020-11-26_15h58.45.455,lexical_decision_task_MP_exp2,2020.2.5,Win32,60,m,1,0.61881,,,,,,,,0.61881,1,0,10,10,2,1,1003,WORD,"ID",16,almond,ALMOND,m,,,,,,,,,,,,,,,,,
,,,,,,,,,,,,,,,,,,5eea1be10e95520beb9fa654,2020-11-26_15h58.45.455,lexical_decision_task_MP_exp2,2020.2.5,Win32,60,m,1,0.58335,,,,,,,,0.58335,1,0,11,11,7,1,1008,WORD,UN,16,hurdle,VOLUME,m,,,,,,,,,,,,,,,,,
,,,,,,,,,,,,,,,,,,5eea1be10e95520beb9fa654,2020-11-26_15h58.45.455,lexical_decision_task_MP_exp2,2020.2.5,Win32,60,z,1,0.61754,,,,,,,,0.61754,1,0,12,12,10,1,1011,NW,"ID",16,inlade,INLADE,z,,,,,,,,,,,,,,,,,
,,,,,,,,,,,,,,,,,,5eea1be10e95520beb9fa654,2020-11-26_15h58.45.455,lexical_decision_task_MP_exp2,2020.2.5,Win32,60,z,1,0.822145,,,,,,,,0.822145,1,0,13,13,8,1,1009,NW,"ID",33,aslert,ASLERT,z,,,,,,,,,,,,,,,,,
,,,,,,,,,,,,,,,,,,5eea1be10e95520beb9fa654,2020-11-26_15h58.45.455,lexical_decision_task_MP_exp2,2020.2.5,Win32,60,z,1,0.69719,,,,,,,,0.69719,1,0,14,14,14,1,1015,NW,UN,16,miaber,THRALE,z,,,,,,,,,,,,,,,,,
,,,,,,,,,,,,,,,,,,5eea1be10e95520beb9fa654,2020-11-26_15h58.45.455,lexical_decision_task_MP_exp2,2020.2.5,Win32,60,m,1,0.534365,,,,,,,,0.534365,1,0,15,15,4,1,1005,WORD,UN,33,abound,SQUEAK,m,,,,,,,,,,,,,,,,,
,space,2.232555,0.165740741,-0.265740741,0,0,0,,,,,,1,end_of_practice,"You have completed the practice trials. During the experimental trials, you will not receive feedback, but it is very important that you respond as quickly and accurately as possible. 
Before you begin, please ensure that you are in a comfortable and quiet location and will not be disturbed for about 15 minutes, as we cannot use your data if you do not complete all the trials. 
There will be opportunities to take breaks at regular intervals during the experiment. When you are ready to start the experimental trials, please press space or touch the button below.",,,5eea1be10e95520beb9fa654,2020-11-26_15h58.45.455,lexical_decision_task_MP_exp2,2020.2.5,Win32,60,,,,,,,,,,,,,,,,,,,,,,,,,0,0,0,0,1,,,,,,,,,,,,
,,,,,,,,,,,,,,,,,,5eea1be10e95520beb9fa654,2020-11-26_15h58.45.455,lexical_decision_task_MP_exp2,2020.2.5,Win32,60,z,1,1.483855,,,,,,,,1.483855,1,,,,,,255,NW,"ID",16,apight,APIGHT,z,,,,,,0.165740741,-0.265740741,0,0,0,,0,0,0,314,1,
,,,,,,,,,,,,,,,,,,5eea1be10e95520beb9fa654,2020-11-26_15h58.45.455,lexical_decision_task_MP_exp2,2020.2.5,Win32,60,z,1,0.734465,,,,,,,,0.734465,1,,,,,,456,NW,"ID",33,broget,BROGET,z,,,,,,0.165740741,-0.265740741,0,0,0,,0,1,1,275,1,
,,,,,,,,,,,,,,,,,,5eea1be10e95520beb9fa654,2020-11-26_15h58.45.455,lexical_decision_task_MP_exp2,2020.2.5,Win32,60,m,1,0.70013,,,,,,,,0.70013,1,,,,,,115,WORD,UN,33,tumble,GUITAR,m,,,,,,0.165740741,-0.265740741,0,0,0,,0,2,2,174,1,
,,,,,,,,,,,,,,,,,,5eea1be10e95520beb9fa654,2020-11-26_15h58.45.455,lexical_decision_task_MP_exp2,2020.2.5,Win32,60,z,1,0.75324,,,,,,,,0.75324,1,,,,,,277,NW,"ID",16,petain,PETAIN,z,,,,,,0.165740741,-0.265740741,0,0,0,,0,3,3,336,1,
,,,,,,,,,,,,,,,,,,5eea1be10e95520beb9fa654,2020-11-26_15h58.45.455,lexical_decision_task_MP_exp2,2020.2.5,Win32,60,m,1,0.63708,,,,,,,,0.63708,1,,,,,,23,WORD,"ID",16,wealth,WEALTH,m,,,,,,0.165740741,-0.265740741,0,0,0,,0,4,4,82,1,
,,,,,,,,,,,,,,,,,,5eea1be10e95520beb9fa654,2020-11-26_15h58.45.455,lexical_decision_task_MP_exp2,2020.2.5,Win32,60,z,1,0.688545,,,,,,,,0.688545,1,,,,,,403,NW,UN,16,cluirm,BRUATS,z,,,,,,0.165740741,-0.265740741,0,0,0,,0,5,5,462,1,
,,,,,,,,,,,,,,,,,,5eea1be10e95520beb9fa654,2020-11-26_15h58.45.455,lexical_decision_task_MP_exp2,2020.2.5,Win32,60,m,1,0.53178,,,,,,,,0.53178,1,,,,,,12,WORD,"ID",16,orange,ORANGE,m,,,,,,0.165740741,-0.265740741,0,0,0,,0,6,6,71,1,
,,,,,,,,,,,,,,,,,,5eea1be10e95520beb9fa654,2020-11-26_15h58.45.455,lexical_decision_task_MP_exp2,2020.2.5,Win32,60,z,1,0.65169,,,,,,,,0.65169,1,,,,,,396,NW,UN,16,camble,FLENGY,z,,,,,,0.165740741,-0.265740741,0,0,0,,0,7,7,455,1,
,,,,,,,,,,,,,,,,,,5eea1be10e95520beb9fa654,2020-11-26_15h58.45.455,lexical_decision_task_MP_exp2,2020.2.5,Win32,60,z,1,0.632235,,,,,,,,0.632235,1,,,,,,393,NW,UN,16,spaqux,GANOUS,z,,,,,,0.165740741,-0.265740741,0,0,0,,0,8,8,452,1,
,,,,,,,,,,,,,,,,,,5eea1be10e95520beb9fa654,2020-11-26_15h58.45.455,lexical_decision_task_MP_exp2,2020.2.5,Win32,60,m,1,0.56733,,,,,,,,0.56733,1,,,,,,24,WORD,"ID",16,praise,PRAISE,m,,,,,,0.165740741,-0.265740741,0,0,0,,0,9,9,83,1,
,,,,,,,,,,,,,,,,,,5eea1be10e95520beb9fa654,2020-11-26_15h58.45.455,lexical_decision_task_MP_exp2,2020.2.5,Win32,60,z,1,0.948515,,,,,,,,0.948515,1,,,,,,310,NW,UN,33,sproly,DANIET,z,,,,,,0.165740741,-0.265740741,0,0,0,,0,10,10,369,1,
,,,,,,,,,,,,,,,,,,5eea1be10e95520beb9fa654,2020-11-26_15h58.45.455,lexical_decision_task_MP_exp2,2020.2.5,Win32,60,m,1,0.602625,,,,,,,,0.602625,1,,,,,,136,WORD,UN,16,finger,BLEACH,m,,,,,,0.165740741,-0.265740741,0,0,0,,0,11,11,195,1,
,,,,,,,,,,,,,,,,,,5eea1be10e95520beb9fa654,2020-11-26_15h58.45.455,lexical_decision_task_MP_exp2,2020.2.5,Win32,60,m,1,0.78091,,,,,,,,0.78091,1,,,,,,67,WORD,UN,33,fumble,POLICY,m,,,,,,0.165740741,-0.265740741,0,0,0,,0,12,12,126,1,
,,,,,,,,,,,,,,,,,,5eea1be10e95520beb9fa654,2020-11-26_15h58.45.455,lexical_decision_task_MP_exp2,2020.2.5,Win32,60,z,1,0.653795,,,,,,,,0.653795,1,,,,,,465,NW,"ID",33,whivex,WHIVEX,z,,,,,,0.165740741,-0.265740741,0,0,0,,0,13,13,284,1,
,,,,,,,,,,,,,,,,,,5eea1be10e95520beb9fa654,2020-11-26_15h58.45.455,lexical_decision_task_MP_exp2,2020.2.5,Win32,60,m,1,0.630945,,,,,,,,0.630945,1,,,,,,161,WORD,UN,16,candle,PASTOR,m,,,,,,0.165740741,-0.265740741,0,0,0,,0,14,14,220,1,
,,,,,,,,,,,,,,,,,,5eea1be10e95520beb9fa654,2020-11-26_15h58.45.455,lexical_decision_task_MP_exp2,2020.2.5,Win32,60,z,1,0.63095,,,,,,,,0.63095,1,,,,,,254,NW,"ID",16,varosh,VAROSH,z,,,,,,0.165740741,-0.265740741,0,0,0,,0,15,15,313,1,
,,,,,,,,,,,,,,,,,,5eea1be10e95520beb9fa654,2020-11-26_15h58.45.455,lexical_decision_task_MP_exp2,2020.2.5,Win32,60,z,1,0.667835,,,,,,,,0.667835,1,,,,,,461,NW,"ID",33,justre,JUSTRE,z,,,,,,0.165740741,-0.265740741,0,0,0,,0,16,16,280,1,
,,,,,,,,,,,,,,,,,,5eea1be10e95520beb9fa654,2020-11-26_15h58.45.455,lexical_decision_task_MP_exp2,2020.2.5,Win32,60,m,1,0.599195,,,,,,,,0.599195,1,,,,,,137,WORD,UN,16,melody,FINGER,m,,,,,,0.165740741,-0.265740741,0,0,0,,0,17,17,196,1,
,,,,,,,,,,,,,,,,,,5eea1be10e95520beb9fa654,2020-11-26_15h58.45.455,lexical_decision_task_MP_exp2,2020.2.5,Win32,60,z,1,0.9673,,,,,,,,0.9673,1,,,,,,271,NW,"ID",16,aubrid,AUBRID,z,,,,,,0.165740741,-0.265740741,0,0,0,,0,18,18,330,1,
,,,,,,,,,,,,,,,,,,5eea1be10e95520beb9fa654,2020-11-26_15h58.45.455,lexical_decision_task_MP_exp2,2020.2.5,Win32,60,m,1,1.05235,,,,,,,,1.05235,1,,,,,,176,WORD,UN,16,advent,STRIFE,m,,,,,,0.165740741,-0.265740741,0,0,0,,0,19,19,235,1,
,,,,,,,,,,,,,,,,,,5eea1be10e95520beb9fa654,2020-11-26_15h58.45.455,lexical_decision_task_MP_exp2,2020.2.5,Win32,60,z,1,0.86828,,,,,,,,0.86828,1,,,,,,408,NW,UN,16,elopia,HURNIA,z,,,,,,0.165740741,-0.265740741,0,0,0,,0,20,20,467,1,
,,,,,,,,,,,,,,,,,,5eea1be10e95520beb9fa654,2020-11-26_15h58.45.455,lexical_decision_task_MP_exp2,2020.2.5,Win32,60,z,1,0.738525,,,,,,,,0.738525,1,,,,,,290,NW,"ID",16,splino,SPLINO,z,,,,,,0.165740741,-0.265740741,0,0,0,,0,21,21,349,1,
,,,,,,,,,,,,,,,,,,5eea1be10e95520beb9fa654,2020-11-26_15h58.45.455,lexical_decision_task_MP_exp2,2020.2.5,Win32,60,z,1,0.66514,,,,,,,,0.66514,1,,,,,,375,NW,UN,16,iguare,YORQUE,z,,,,,,0.165740741,-0.265740741,0,0,0,,0,22,22,434,1,
,,,,,,,,,,,,,,,,,,5eea1be10e95520beb9fa654,2020-11-26_15h58.45.455,lexical_decision_task_MP_exp2,2020.2.5,Win32,60,m,1,0.627335,,,,,,,,0.627335,1,,,,,,143,WORD,UN,16,sponge,REASON,m,,,,,,0.165740741,-0.265740741,0,0,0,,0,23,23,202,1,
,,,,,,,,,,,,,,,,,,5eea1be10e95520beb9fa654,2020-11-26_15h58.45.455,lexical_decision_task_MP_exp2,2020.2.5,Win32,60,m,1,0.61634,,,,,,,,0.61634,1,,,,,,196,WORD,"ID",33,credit,CREDIT,m,,,,,,0.165740741,-0.265740741,0,0,0,,0,24,24,15,1,
,,,,,,,,,,,,,,,,,,5eea1be10e95520beb9fa654,2020-11-26_15h58.45.455,lexical_decision_task_MP_exp2,2020.2.5,Win32,60,z,1,0.83414,,,,,,,,0.83414,1,,,,,,411,NW,UN,16,jiluer,ORCHIN,z,,,,,,0.165740741,-0.265740741,0,0,0,,0,25,25,470,1,
,,,,,,,,,,,,,,,,,,5eea1be10e95520beb9fa654,2020-11-26_15h58.45.455,lexical_decision_task_MP_exp2,2020.2.5,Win32,60,z,1,0.83393,,,,,,,,0.83393,1,,,,,,291,NW,"ID",16,pretch,PRETCH,z,,,,,,0.165740741,-0.265740741,0,0,0,,0,26,26,350,1,
,,,,,,,,,,,,,,,,,,5eea1be10e95520beb9fa654,2020-11-26_15h58.45.455,lexical_decision_task_MP_exp2,2020.2.5,Win32,60,m,1,0.68341,,,,,,,,0.68341,1,,,,,,202,WORD,"ID",33,factor,FACTOR,m,,,,,,0.165740741,-0.265740741,0,0,0,,0,27,27,21,1,
,,,,,,,,,,,,,,,,,,5eea1be10e95520beb9fa654,2020-11-26_15h58.45.455,lexical_decision_task_MP_exp2,2020.2.5,Win32,60,m,1,0.68428,,,,,,,,0.68428,1,,,,,,187,WORD,"ID",33,course,COURSE,m,,,,,,0.165740741,-0.265740741,0,0,0,,0,28,28,6,1,
,,,,,,,,,,,,,,,,,,5eea1be10e95520beb9fa654,2020-11-26_15h58.45.455,lexical_decision_task_MP_exp2,2020.2.5,Win32,60,z,1,0.85278,,,,,,,,0.85278,1,,,,,,344,NW,UN,33,absend,SCRILY,z,,,,,,0.165740741,-0.265740741,0,0,0,,0,29,29,403,1,
,,,,,,,,,,,,,,,,,,5eea1be10e95520beb9fa654,2020-11-26_15h58.45.455,lexical_decision_task_MP_exp2,2020.2.5,Win32,60,m,1,0.70163,,,,,,,,0.70163,1,,,,,,214,WORD,"ID",33,intake,INTAKE,m,,,,,,0.165740741,-0.265740741,0,0,0,,0,30,30,33,1,
,,,,,,,,,,,,,,,,,,5eea1be10e95520beb9fa654,2020-11-26_15h58.45.455,lexical_decision_task_MP_exp2,2020.2.5,Win32,60,m,1,0.689645,,,,,,,,0.689645,1,,,,,,40,WORD,"ID",16,convey,CONVEY,m,,,,,,0.165740741,-0.265740741,0,0,0,,0,31,31,99,1,
,,,,,,,,,,,,,,,,,,5eea1be10e95520beb9fa654,2020-11-26_15h58.45.455,lexical_decision_task_MP_exp2,2020.2.5,Win32,60,z,1,0.70406,,,,,,,,0.70406,1,,,,,,463,NW,"ID",33,kispel,KISPEL,z,,,,,,0.165740741,-0.265740741,0,0,0,,0,32,32,282,1,
,,,,,,,,,,,,,,,,,,5eea1be10e95520beb9fa654,2020-11-26_15h58.45.455,lexical_decision_task_MP_exp2,2020.2.5,Win32,60,z,1,0.935145,,,,,,,,0.935145,1,,,,,,368,NW,UN,16,wronch,HORNAL,z,,,,,,0.165740741,-0.265740741,0,0,0,,0,33,33,427,1,
,,,,,,,,,,,,,,,,,,5eea1be10e95520beb9fa654,2020-11-26_15h58.45.455,lexical_decision_task_MP_exp2,2020.2.5,Win32,60,z,1,0.91779,,,,,,,,0.91779,1,,,,,,251,NW,"ID",16,lupict,LUPICT,z,,,,,,0.165740741,-0.265740741,0,0,0,,0,34,34,310,1,
,,,,,,,,,,,,,,,,,,5eea1be10e95520beb9fa654,2020-11-26_15h58.45.455,lexical_decision_task_MP_exp2,2020.2.5,Win32,60,z,1,0.934735,,,,,,,,0.934735,1,,,,,,462,NW,"ID",33,absult,ABSULT,z,,,,,,0.165740741,-0.265740741,0,0,0,,0,35,35,281,1,
,,,,,,,,,,,,,,,,,,5eea1be10e95520beb9fa654,2020-11-26_15h58.45.455,lexical_decision_task_MP_exp2,2020.2.5,Win32,60,m,1,0.662925,,,,,,,,0.662925,1,,,,,,130,WORD,UN,16,quench,STUPID,m,,,,,,0.165740741,-0.265740741,0,0,0,,0,36,36,189,1,
,,,,,,,,,,,,,,,,,,5eea1be10e95520beb9fa654,2020-11-26_15h58.45.455,lexical_decision_task_MP_exp2,2020.2.5,Win32,60,m,1,0.602795,,,,,,,,0.602795,1,,,,,,169,WORD,UN,16,pounce,GENIUS,m,,,,,,0.165740741,-0.265740741,0,0,0,,0,37,37,228,1,
,,,,,,,,,,,,,,,,,,5eea1be10e95520beb9fa654,2020-11-26_15h58.45.455,lexical_decision_task_MP_exp2,2020.2.5,Win32,60,m,1,0.584775,,,,,,,,0.584775,1,,,,,,206,WORD,"ID",33,tailor,TAILOR,m,,,,,,0.165740741,-0.265740741,0,0,0,,0,38,38,25,1,
,,,,,,,,,,,,,,,,,,5eea1be10e95520beb9fa654,2020-11-26_15h58.45.455,lexical_decision_task_MP_exp2,2020.2.5,Win32,60,z,1,0.688415,,,,,,,,0.688415,1,,,,,,253,NW,"ID",16,resait,RESAIT,z,,,,,,0.165740741,-0.265740741,0,0,0,,0,39,39,312,1,
,,,,,,,,,,,,,,,,,,5eea1be10e95520beb9fa654,2020-11-26_15h58.45.455,lexical_decision_task_MP_exp2,2020.2.5,Win32,60,z,1,0.86665,,,,,,,,0.86665,1,,,,,,413,NW,UN,16,serbol,EQUATS,z,,,,,,0.165740741,-0.265740741,0,0,0,,0,40,40,472,1,
,,,,,,,,,,,,,,,,,,5eea1be10e95520beb9fa654,2020-11-26_15h58.45.455,lexical_decision_task_MP_exp2,2020.2.5,Win32,60,m,1,0.6372,,,,,,,,0.6372,1,,,,,,25,WORD,"ID",16,domain,DOMAIN,m,,,,,,0.165740741,-0.265740741,0,0,0,,0,41,41,84,1,
,,,,,,,,,,,,,,,,,,5eea1be10e95520beb9fa654,2020-11-26_15h58.45.455,lexical_decision_task_MP_exp2,2020.2.5,Win32,60,m,1,0.633695,,,,,,,,0.633695,1,,,,,,146,WORD,UN,16,garlic,COUPLE,m,,,,,,0.165740741,-0.265740741,0,0,0,,0,42,42,205,1,
,,,,,,,,,,,,,,,,,,5eea1be10e95520beb9fa654,2020-11-26_15h58.45.455,lexical_decision_task_MP_exp2,2020.2.5,Win32,60,m,1,0.599675,,,,,,,,0.599675,1,,,,,,123,WORD,UN,16,blouse,STRIKE,m,,,,,,0.165740741,-0.265740741,0,0,0,,0,43,43,182,1,
,,,,,,,,,,,,,,,,,,5eea1be10e95520beb9fa654,2020-11-26_15h58.45.455,lexical_decision_task_MP_exp2,2020.2.5,Win32,60,z,1,0.61743,,,,,,,,0.61743,1,,,,,,334,NW,UN,33,desion,WATMEG,z,,,,,,0.165740741,-0.265740741,0,0,0,,0,44,44,393,1,
,,,,,,,,,,,,,,,,,,5eea1be10e95520beb9fa654,2020-11-26_15h58.45.455,lexical_decision_task_MP_exp2,2020.2.5,Win32,60,z,1,0.705435,,,,,,,,0.705435,1,,,,,,390,NW,UN,16,theldy,HATRUS,z,,,,,,0.165740741,-0.265740741,0,0,0,,0,45,45,449,1,
,,,,,,,,,,,,,,,,,,5eea1be10e95520beb9fa654,2020-11-26_15h58.45.455,lexical_decision_task_MP_exp2,2020.2.5,Win32,60,m,1,0.65451,,,,,,,,0.65451,1,,,,,,215,WORD,"ID",33,phobia,PHOBIA,m,,,,,,0.165740741,-0.265740741,0,0,0,,0,46,46,34,1,
,,,,,,,,,,,,,,,,,,5eea1be10e95520beb9fa654,2020-11-26_15h58.45.455,lexical_decision_task_MP_exp2,2020.2.5,Win32,60,m,1,0.637985,,,,,,,,0.637985,1,,,,,,223,WORD,"ID",33,kidney,KIDNEY,m,,,,,,0.165740741,-0.265740741,0,0,0,,0,47,47,42,1,
,,,,,,,,,,,,,,,,,,5eea1be10e95520beb9fa654,2020-11-26_15h58.45.455,lexical_decision_task_MP_exp2,2020.2.5,Win32,60,z,1,0.639035,,,,,,,,0.639035,1,,,,,,367,NW,UN,16,hornal,SLIQUE,z,,,,,,0.165740741,-0.265740741,0,0,0,,0,48,48,426,1,
,,,,,,,,,,,,,,,,,,5eea1be10e95520beb9fa654,2020-11-26_15h58.45.455,lexical_decision_task_MP_exp2,2020.2.5,Win32,60,z,1,0.703785,,,,,,,,0.703785,1,,,,,,374,NW,UN,16,yorque,SLIANT,z,,,,,,0.165740741,-0.265740741,0,0,0,,0,49,49,433,1,
,,,,,,,,,,,,,,,,,,5eea1be10e95520beb9fa654,2020-11-26_15h58.45.455,lexical_decision_task_MP_exp2,2020.2.5,Win32,60,m,1,0.97225,,,,,,,,0.97225,1,,,,,,229,WORD,"ID",33,mother,MOTHER,m,,,,,,0.165740741,-0.265740741,0,0,0,,0,50,50,48,1,
,,,,,,,,,,,,,,,,,,5eea1be10e95520beb9fa654,2020-11-26_15h58.45.455,lexical_decision_task_MP_exp2,2020.2.5,Win32,60,m,1,0.75063,,,,,,,,0.75063,1,,,,,,112,WORD,UN,33,chorus,BREATH,m,,,,,,0.165740741,-0.265740741,0,0,0,,0,51,51,171,1,
,,,,,,,,,,,,,,,,,,5eea1be10e95520beb9fa654,2020-11-26_15h58.45.455,lexical_decision_task_MP_exp2,2020.2.5,Win32,60,m,1,0.635365,,,,,,,,0.635365,1,,,,,,156,WORD,UN,16,depart,CRADLE,m,,,,,,0.165740741,-0.265740741,0,0,0,,0,52,52,215,1,
,,,,,,,,,,,,,,,,,,5eea1be10e95520beb9fa654,2020-11-26_15h58.45.455,lexical_decision_task_MP_exp2,2020.2.5,Win32,60,z,1,0.78749,,,,,,,,0.78749,1,,,,,,281,NW,"ID",16,melaty,MELATY,z,,,,,,0.165740741,-0.265740741,0,0,0,,0,53,53,340,1,
,,,,,,,,,,,,,,,,,,5eea1be10e95520beb9fa654,2020-11-26_15h58.45.455,lexical_decision_task_MP_exp2,2020.2.5,Win32,60,m,1,0.667125,,,,,,,,0.667125,1,,,,,,66,WORD,UN,33,policy,GOSPEL,m,,,,,,0.165740741,-0.265740741,0,0,0,,0,54,54,125,1,
,,,,,,,,,,,,,,,,,,5eea1be10e95520beb9fa654,2020-11-26_15h58.45.455,lexical_decision_task_MP_exp2,2020.2.5,Win32,60,z,1,0.65384,,,,,,,,0.65384,1,,,,,,381,NW,UN,16,sarley,HUNIEK,z,,,,,,0.165740741,-0.265740741,0,0,0,,0,55,55,440,1,
,,,,,,,,,,,,,,,,,,5eea1be10e95520beb9fa654,2020-11-26_15h58.45.455,lexical_decision_task_MP_exp2,2020.2.5,Win32,60,m,1,0.61737,,,,,,,,0.61737,1,,,,,,1,WORD,"ID",16,fright,FRIGHT,m,,,,,,0.165740741,-0.265740741,0,0,0,,0,56,56,60,1,
,,,,,,,,,,,,,,,,,,5eea1be10e95520beb9fa654,2020-11-26_15h58.45.455,lexical_decision_task_MP_exp2,2020.2.5,Win32,60,m,1,0.57539,,,,,,,,0.57539,1,,,,,,145,WORD,UN,16,couple,PARISH,m,,,,,,0.165740741,-0.265740741,0,0,0,,0,57,57,204,1,
,,,,,,,,,,,,,,,,,,5eea1be10e95520beb9fa654,2020-11-26_15h58.45.455,lexical_decision_task_MP_exp2,2020.2.5,Win32,60,z,1,0.569155,,,,,,,,0.569155,1,,,,,,412,NW,UN,16,equats,JILUER,z,,,,,,0.165740741,-0.265740741,0,0,0,,0,58,58,471,1,
,,,,,,,,,,,,,,,,,,5eea1be10e95520beb9fa654,2020-11-26_15h58.45.455,lexical_decision_task_MP_exp2,2020.2.5,Win32,60,m,0,0.55866,,,,,,,,0.55866,0,,,,,,275,NW,"ID",16,sleirt,SLEIRT,z,,,,,,0.165740741,-0.265740741,0,0,0,,0,59,59,334,1,
,,,,,,,,,,,,,,,,,,5eea1be10e95520beb9fa654,2020-11-26_15h58.45.455,lexical_decision_task_MP_exp2,2020.2.5,Win32,60,z,1,0.818455,,,,,,,,0.818455,1,,,,,,320,NW,UN,33,miator,JOCKAL,z,,,,,,0.165740741,-0.265740741,0,0,0,,0,60,60,379,1,
,,,,,,,,,,,,,,,,,,5eea1be10e95520beb9fa654,2020-11-26_15h58.45.455,lexical_decision_task_MP_exp2,2020.2.5,Win32,60,z,1,0.850555,,,,,,,,0.850555,1,,,,,,278,NW,"ID",16,unighs,UNIGHS,z,,,,,,0.165740741,-0.265740741,0,0,0,,0,61,61,337,1,
,,,,,,,,,,,,,,,,,,5eea1be10e95520beb9fa654,2020-11-26_15h58.45.455,lexical_decision_task_MP_exp2,2020.2.5,Win32,60,z,1,0.737305,,,,,,,,0.737305,1,,,,,,409,NW,UN,16,tunory,ELOPIA,z,,,,,,0.165740741,-0.265740741,0,0,0,,0,62,62,468,1,
,,,,,,,,,,,,,,,,,,5eea1be10e95520beb9fa654,2020-11-26_15h58.45.455,lexical_decision_task_MP_exp2,2020.2.5,Win32,60,z,1,0.70051,,,,,,,,0.70051,1,,,,,,476,NW,"ID",33,josted,JOSTED,z,,,,,,0.165740741,-0.265740741,0,0,0,,0,63,63,295,1,
,,,,,,,,,,,,,,,,,,5eea1be10e95520beb9fa654,2020-11-26_15h58.45.455,lexical_decision_task_MP_exp2,2020.2.5,Win32,60,z,1,0.700895,,,,,,,,0.700895,1,,,,,,279,NW,"ID",16,celond,CELOND,z,,,,,,0.165740741,-0.265740741,0,0,0,,0,64,64,338,1,
,,,,,,,,,,,,,,,,,,5eea1be10e95520beb9fa654,2020-11-26_15h58.45.455,lexical_decision_task_MP_exp2,2020.2.5,Win32,60,m,1,0.666585,,,,,,,,0.666585,1,,,,,,103,WORD,UN,33,studio,BOUNCE,m,,,,,,0.165740741,-0.265740741,0,0,0,,0,65,65,162,1,
,,,,,,,,,,,,,,,,,,5eea1be10e95520beb9fa654,2020-11-26_15h58.45.455,lexical_decision_task_MP_exp2,2020.2.5,Win32,60,m,1,0.655385,,,,,,,,0.655385,1,,,,,,15,WORD,"ID",16,amount,AMOUNT,m,,,,,,0.165740741,-0.265740741,0,0,0,,0,66,66,74,1,
,,,,,,,,,,,,,,,,,,5eea1be10e95520beb9fa654,2020-11-26_15h58.45.455,lexical_decision_task_MP_exp2,2020.2.5,Win32,60,z,1,0.65626,,,,,,,,0.65626,1,,,,,,379,NW,UN,16,cavory,AUTING,z,,,,,,0.165740741,-0.265740741,0,0,0,,0,67,67,438,1,
,,,,,,,,,,,,,,,,,,5eea1be10e95520beb9fa654,2020-11-26_15h58.45.455,lexical_decision_task_MP_exp2,2020.2.5,Win32,60,m,1,0.699775,,,,,,,,0.699775,1,,,,,,166,WORD,UN,16,design,STARCH,m,,,,,,0.165740741,-0.265740741,0,0,0,,0,68,68,225,1,
,,,,,,,,,,,,,,,,,,5eea1be10e95520beb9fa654,2020-11-26_15h58.45.455,lexical_decision_task_MP_exp2,2020.2.5,Win32,60,m,1,0.75133,,,,,,,,0.75133,1,,,,,,11,WORD,"ID",16,cruise,CRUISE,m,,,,,,0.165740741,-0.265740741,0,0,0,,0,69,69,70,1,
,,,,,,,,,,,,,,,,,,5eea1be10e95520beb9fa654,2020-11-26_15h58.45.455,lexical_decision_task_MP_exp2,2020.2.5,Win32,60,z,1,0.667485,,,,,,,,0.667485,1,,,,,,351,NW,UN,33,tringe,TIESCH,z,,,,,,0.165740741,-0.265740741,0,0,0,,0,70,70,410,1,
,,,,,,,,,,,,,,,,,,5eea1be10e95520beb9fa654,2020-11-26_15h58.45.455,lexical_decision_task_MP_exp2,2020.2.5,Win32,60,z,1,0.656715,,,,,,,,0.656715,1,,,,,,432,NW,"ID",33,lunker,LUNKER,z,,,,,,0.165740741,-0.265740741,0,0,0,,0,71,71,251,1,
,,,,,,,,,,,,,,,,,,5eea1be10e95520beb9fa654,2020-11-26_15h58.45.455,lexical_decision_task_MP_exp2,2020.2.5,Win32,60,z,1,0.639725,,,,,,,,0.639725,1,,,,,,405,NW,UN,16,nouply,FLUMNI,z,,,,,,0.165740741,-0.265740741,0,0,0,,0,72,72,464,1,
,,,,,,,,,,,,,,,,,,5eea1be10e95520beb9fa654,2020-11-26_15h58.45.455,lexical_decision_task_MP_exp2,2020.2.5,Win32,60,z,1,1.153405,,,,,,,,1.153405,1,,,,,,323,NW,UN,33,steikh,ROSAIL,z,,,,,,0.165740741,-0.265740741,0,0,0,,0,73,73,382,1,
,,,,,,,,,,,,,,,,,,5eea1be10e95520beb9fa654,2020-11-26_15h58.45.455,lexical_decision_task_MP_exp2,2020.2.5,Win32,60,m,1,0.652485,,,,,,,,0.652485,1,,,,,,89,WORD,UN,33,relish,PERMIT,m,,,,,,0.165740741,-0.265740741,0,0,0,,0,74,74,148,1,
,,,,,,,,,,,,,,,,,,5eea1be10e95520beb9fa654,2020-11-26_15h58.45.455,lexical_decision_task_MP_exp2,2020.2.5,Win32,60,m,1,0.71659,,,,,,,,0.71659,1,,,,,,138,WORD,UN,16,debris,MELODY,m,,,,,,0.165740741,-0.265740741,0,0,0,,0,75,75,197,1,
,,,,,,,,,,,,,,,,,,5eea1be10e95520beb9fa654,2020-11-26_15h58.45.455,lexical_decision_task_MP_exp2,2020.2.5,Win32,60,z,1,0.75156,,,,,,,,0.75156,1,,,,,,245,NW,"ID",16,anougs,ANOUGS,z,,,,,,0.165740741,-0.265740741,0,0,0,,0,76,76,304,1,
,,,,,,,,,,,,,,,,,,5eea1be10e95520beb9fa654,2020-11-26_15h58.45.455,lexical_decision_task_MP_exp2,2020.2.5,Win32,60,z,1,0.67991,,,,,,,,0.67991,1,,,,,,336,NW,UN,33,rejols,GHODUS,z,,,,,,0.165740741,-0.265740741,0,0,0,,0,77,77,395,1,
,,,,,,,,,,,,,,,,,,5eea1be10e95520beb9fa654,2020-11-26_15h58.45.455,lexical_decision_task_MP_exp2,2020.2.5,Win32,60,z,1,0.79939,,,,,,,,0.79939,1,,,,,,285,NW,"ID",16,prudge,PRUDGE,z,,,,,,0.165740741,-0.265740741,0,0,0,,0,78,78,344,1,
,,,,,,,,,,,,,,,,,,5eea1be10e95520beb9fa654,2020-11-26_15h58.45.455,lexical_decision_task_MP_exp2,2020.2.5,Win32,60,m,1,0.62096,,,,,,,,0.62096,1,,,,,,236,WORD,"ID",33,pirate,PIRATE,m,,,,,,0.165740741,-0.265740741,0,0,0,,0,79,79,55,1,
,,,,,,,,,,,,,,,,,,5eea1be10e95520beb9fa654,2020-11-26_15h58.45.455,lexical_decision_task_MP_exp2,2020.2.5,Win32,60,m,1,0.62179,,,,,,,,0.62179,1,,,,,,147,WORD,UN,16,custom,GARLIC,m,,,,,,0.165740741,-0.265740741,0,0,0,,0,80,80,206,1,
,,,,,,,,,,,,,,,,,,5eea1be10e95520beb9fa654,2020-11-26_15h58.45.455,lexical_decision_task_MP_exp2,2020.2.5,Win32,60,m,1,0.61705,,,,,,,,0.61705,1,,,,,,182,WORD,"ID",33,winter,WINTER,m,,,,,,0.165740741,-0.265740741,0,0,0,,0,81,81,1,1,
,,,,,,,,,,,,,,,,,,5eea1be10e95520beb9fa654,2020-11-26_15h58.45.455,lexical_decision_task_MP_exp2,2020.2.5,Win32,60,z,1,0.622975,,,,,,,,0.622975,1,,,,,,472,NW,"ID",33,cigney,CIGNEY,z,,,,,,0.165740741,-0.265740741,0,0,0,,0,82,82,291,1,
,,,,,,,,,,,,,,,,,,5eea1be10e95520beb9fa654,2020-11-26_15h58.45.455,lexical_decision_task_MP_exp2,2020.2.5,Win32,60,m,1,0.6985,,,,,,,,0.6985,1,,,,,,205,WORD,"ID",33,lounge,LOUNGE,m,,,,,,0.165740741,-0.265740741,0,0,0,,0,83,83,24,1,
,,,,,,,,,,,,,,,,,,5eea1be10e95520beb9fa654,2020-11-26_15h58.45.455,lexical_decision_task_MP_exp2,2020.2.5,Win32,60,m,1,0.68529,,,,,,,,0.68529,1,,,,,,69,WORD,UN,33,square,PLENTY,m,,,,,,0.165740741,-0.265740741,0,0,0,,0,84,84,128,1,
,,,,,,,,,,,,,,,,,,5eea1be10e95520beb9fa654,2020-11-26_15h58.45.455,lexical_decision_task_MP_exp2,2020.2.5,Win32,60,z,1,0.77204,,,,,,,,0.77204,1,,,,,,479,NW,"ID",33,lobush,LOBUSH,z,,,,,,0.165740741,-0.265740741,0,0,0,,0,85,85,298,1,
,,,,,,,,,,,,,,,,,,5eea1be10e95520beb9fa654,2020-11-26_15h58.45.455,lexical_decision_task_MP_exp2,2020.2.5,Win32,60,m,1,0.549135,,,,,,,,0.549135,1,,,,,,200,WORD,"ID",33,beacon,BEACON,m,,,,,,0.165740741,-0.265740741,0,0,0,,0,86,86,19,1,
,,,,,,,,,,,,,,,,,,5eea1be10e95520beb9fa654,2020-11-26_15h58.45.455,lexical_decision_task_MP_exp2,2020.2.5,Win32,60,m,1,0.561885,,,,,,,,0.561885,1,,,,,,65,WORD,UN,33,gospel,SYMBOL,m,,,,,,0.165740741,-0.265740741,0,0,0,,0,87,87,124,1,
,,,,,,,,,,,,,,,,,,5eea1be10e95520beb9fa654,2020-11-26_15h58.45.455,lexical_decision_task_MP_exp2,2020.2.5,Win32,60,z,1,0.61378,,,,,,,,0.61378,1,,,,,,311,NW,UN,33,nerawl,SPROLY,z,,,,,,0.165740741,-0.265740741,0,0,0,,0,88,88,370,1,
,,,,,,,,,,,,,,,,,,5eea1be10e95520beb9fa654,2020-11-26_15h58.45.455,lexical_decision_task_MP_exp2,2020.2.5,Win32,60,z,1,0.61379,,,,,,,,0.61379,1,,,,,,389,NW,UN,16,hatrus,WITMER,z,,,,,,0.165740741,-0.265740741,0,0,0,,0,89,89,448,1,
,,,,,,,,,,,,,,,,,,5eea1be10e95520beb9fa654,2020-11-26_15h58.45.455,lexical_decision_task_MP_exp2,2020.2.5,Win32,60,m,1,0.581445,,,,,,,,0.581445,1,,,,,,106,WORD,UN,33,slogan,RANSOM,m,,,,,,0.165740741,-0.265740741,0,0,0,,0,90,90,165,1,
,,,,,,,,,,,,,,,,,,5eea1be10e95520beb9fa654,2020-11-26_15h58.45.455,lexical_decision_task_MP_exp2,2020.2.5,Win32,60,m,1,0.54546,,,,,,,,0.54546,1,,,,,,151,WORD,UN,16,rocket,MYSTIC,m,,,,,,0.165740741,-0.265740741,0,0,0,,0,91,91,210,1,
,,,,,,,,,,,,,,,,,,5eea1be10e95520beb9fa654,2020-11-26_15h58.45.455,lexical_decision_task_MP_exp2,2020.2.5,Win32,60,z,1,0.6832,,,,,,,,0.6832,1,,,,,,429,NW,"ID",33,funtle,FUNTLE,z,,,,,,0.165740741,-0.265740741,0,0,0,,0,92,92,248,1,
,,,,,,,,,,,,,,,,,,5eea1be10e95520beb9fa654,2020-11-26_15h58.45.455,lexical_decision_task_MP_exp2,2020.2.5,Win32,60,z,1,0.701025,,,,,,,,0.701025,1,,,,,,262,NW,"ID",16,quilew,QUILEW,z,,,,,,0.165740741,-0.265740741,0,0,0,,0,93,93,321,1,
,,,,,,,,,,,,,,,,,,5eea1be10e95520beb9fa654,2020-11-26_15h58.45.455,lexical_decision_task_MP_exp2,2020.2.5,Win32,60,m,1,0.54728,,,,,,,,0.54728,1,,,,,,63,WORD,UN,33,throne,LAUNCH,m,,,,,,0.165740741,-0.265740741,0,0,0,,0,94,94,122,1,
,,,,,,,,,,,,,,,,,,5eea1be10e95520beb9fa654,2020-11-26_15h58.45.455,lexical_decision_task_MP_exp2,2020.2.5,Win32,60,m,1,0.533865,,,,,,,,0.533865,1,,,,,,172,WORD,UN,16,shower,PATROL,m,,,,,,0.165740741,-0.265740741,0,0,0,,0,95,95,231,1,
,,,,,,,,,,,,,,,,,,5eea1be10e95520beb9fa654,2020-11-26_15h58.45.455,lexical_decision_task_MP_exp2,2020.2.5,Win32,60,z,1,0.66659,,,,,,,,0.66659,1,,,,,,282,NW,"ID",16,porlex,PORLEX,z,,,,,,0.165740741,-0.265740741,0,0,0,,0,96,96,341,1,
,,,,,,,,,,,,,,,,,,5eea1be10e95520beb9fa654,2020-11-26_15h58.45.455,lexical_decision_task_MP_exp2,2020.2.5,Win32,60,m,1,0.61772,,,,,,,,0.61772,1,,,,,,14,WORD,"ID",16,almost,ALMOST,m,,,,,,0.165740741,-0.265740741,0,0,0,,0,97,97,73,1,
,,,,,,,,,,,,,,,,,,5eea1be10e95520beb9fa654,2020-11-26_15h58.45.455,lexical_decision_task_MP_exp2,2020.2.5,Win32,60,m,1,0.53674,,,,,,,,0.53674,1,,,,,,199,WORD,"ID",33,invoke,INVOKE,m,,,,,,0.165740741,-0.265740741,0,0,0,,0,98,98,18,1,
,,,,,,,,,,,,,,,,,,5eea1be10e95520beb9fa654,2020-11-26_15h58.45.455,lexical_decision_task_MP_exp2,2020.2.5,Win32,60,z,1,0.734305,,,,,,,,0.734305,1,,,,,,399,NW,UN,16,wearox,FOURET,z,,,,,,0.165740741,-0.265740741,0,0,0,,0,99,99,458,1,
,,,,,,,,,,,,,,,,,,5eea1be10e95520beb9fa654,2020-11-26_15h58.45.455,lexical_decision_task_MP_exp2,2020.2.5,Win32,60,m,1,0.5531,,,,,,,,0.5531,1,,,,,,73,WORD,UN,33,plaque,SOURCE,m,,,,,,0.165740741,-0.265740741,0,0,0,,0,100,100,132,1,
,,,,,,,,,,,,,,,,,,5eea1be10e95520beb9fa654,2020-11-26_15h58.45.455,lexical_decision_task_MP_exp2,2020.2.5,Win32,60,m,1,0.58382,,,,,,,,0.58382,1,,,,,,219,WORD,"ID",33,bucket,BUCKET,m,,,,,,0.165740741,-0.265740741,0,0,0,,0,101,101,38,1,
,,,,,,,,,,,,,,,,,,5eea1be10e95520beb9fa654,2020-11-26_15h58.45.455,lexical_decision_task_MP_exp2,2020.2.5,Win32,60,m,1,0.568325,,,,,,,,0.568325,1,,,,,,80,WORD,UN,33,friend,FAMILY,m,,,,,,0.165740741,-0.265740741,0,0,0,,0,102,102,139,1,
,,,,,,,,,,,,,,,,,,5eea1be10e95520beb9fa654,2020-11-26_15h58.45.455,lexical_decision_task_MP_exp2,2020.2.5,Win32,60,z,1,1.003105,,,,,,,,1.003105,1,,,,,,294,NW,"ID",16,inhort,INHORT,z,,,,,,0.165740741,-0.265740741,0,0,0,,0,103,103,353,1,
,,,,,,,,,,,,,,,,,,5eea1be10e95520beb9fa654,2020-11-26_15h58.45.455,lexical_decision_task_MP_exp2,2020.2.5,Win32,60,z,1,0.70076,,,,,,,,0.70076,1,,,,,,445,NW,"ID",33,minkel,MINKEL,z,,,,,,0.165740741,-0.265740741,0,0,0,,0,104,104,264,1,
,,,,,,,,,,,,,,,,,,5eea1be10e95520beb9fa654,2020-11-26_15h58.45.455,lexical_decision_task_MP_exp2,2020.2.5,Win32,60,z,1,0.667245,,,,,,,,0.667245,1,,,,,,261,NW,"ID",16,stunch,STUNCH,z,,,,,,0.165740741,-0.265740741,0,0,0,,0,105,105,320,1,
,,,,,,,,,,,,,,,,,,5eea1be10e95520beb9fa654,2020-11-26_15h58.45.455,lexical_decision_task_MP_exp2,2020.2.5,Win32,60,m,1,0.5466,,,,,,,,0.5466,1,,,,,,18,WORD,"ID",16,humble,HUMBLE,m,,,,,,0.165740741,-0.265740741,0,0,0,,0,106,106,77,1,
,,,,,,,,,,,,,,,,,,5eea1be10e95520beb9fa654,2020-11-26_15h58.45.455,lexical_decision_task_MP_exp2,2020.2.5,Win32,60,m,1,0.60461,,,,,,,,0.60461,1,,,,,,34,WORD,"ID",16,jungle,JUNGLE,m,,,,,,0.165740741,-0.265740741,0,0,0,,0,107,107,93,1,
,,,,,,,,,,,,,,,,,,5eea1be10e95520beb9fa654,2020-11-26_15h58.45.455,lexical_decision_task_MP_exp2,2020.2.5,Win32,60,m,1,0.567275,,,,,,,,0.567275,1,,,,,,207,WORD,"ID",33,wreath,WREATH,m,,,,,,0.165740741,-0.265740741,0,0,0,,0,108,108,26,1,
,,,,,,,,,,,,,,,,,,5eea1be10e95520beb9fa654,2020-11-26_15h58.45.455,lexical_decision_task_MP_exp2,2020.2.5,Win32,60,z,1,0.656135,,,,,,,,0.656135,1,,,,,,424,NW,"ID",33,praile,PRAILE,z,,,,,,0.165740741,-0.265740741,0,0,0,,0,109,109,243,1,
,,,,,,,,,,,,,,,,,,5eea1be10e95520beb9fa654,2020-11-26_15h58.45.455,lexical_decision_task_MP_exp2,2020.2.5,Win32,60,m,1,0.552445,,,,,,,,0.552445,1,,,,,,201,WORD,"ID",33,admire,ADMIRE,m,,,,,,0.165740741,-0.265740741,0,0,0,,0,110,110,20,1,
,,,,,,,,,,,,,,,,,,5eea1be10e95520beb9fa654,2020-11-26_15h58.45.455,lexical_decision_task_MP_exp2,2020.2.5,Win32,60,z,1,0.646575,,,,,,,,0.646575,1,,,,,,439,NW,"ID",33,limpor,LIMPOR,z,,,,,,0.165740741,-0.265740741,0,0,0,,0,111,111,258,1,
,,,,,,,,,,,,,,,,,,5eea1be10e95520beb9fa654,2020-11-26_15h58.45.455,lexical_decision_task_MP_exp2,2020.2.5,Win32,60,m,1,0.549375,,,,,,,,0.549375,1,,,,,,60,WORD,"ID",16,pencil,PENCIL,m,,,,,,0.165740741,-0.265740741,0,0,0,,0,112,112,119,1,
,,,,,,,,,,,,,,,,,,5eea1be10e95520beb9fa654,2020-11-26_15h58.45.455,lexical_decision_task_MP_exp2,2020.2.5,Win32,60,z,1,0.669095,,,,,,,,0.669095,1,,,,,,437,NW,"ID",33,snapel,SNAPEL,z,,,,,,0.165740741,-0.265740741,0,0,0,,0,113,113,256,1,
,,,,,,,,,,,,,,,,,,5eea1be10e95520beb9fa654,2020-11-26_15h58.45.455,lexical_decision_task_MP_exp2,2020.2.5,Win32,60,z,1,0.83738,,,,,,,,0.83738,1,,,,,,272,NW,"ID",16,damilt,DAMILT,z,,,,,,0.165740741,-0.265740741,0,0,0,,0,114,114,331,1,
,,,,,,,,,,,,,,,,,,5eea1be10e95520beb9fa654,2020-11-26_15h58.45.455,lexical_decision_task_MP_exp2,2020.2.5,Win32,60,m,1,0.561945,,,,,,,,0.561945,1,,,,,,179,WORD,UN,16,silent,BASKET,m,,,,,,0.165740741,-0.265740741,0,0,0,,0,115,115,238,1,
,,,,,,,,,,,,,,,,,,5eea1be10e95520beb9fa654,2020-11-26_15h58.45.455,lexical_decision_task_MP_exp2,2020.2.5,Win32,60,z,1,0.617465,,,,,,,,0.617465,1,,,,,,355,NW,UN,33,othnis,ZINGLY,z,,,,,,0.165740741,-0.265740741,0,0,0,,0,116,116,414,1,
,,,,,,,,,,,,,,,,,,5eea1be10e95520beb9fa654,2020-11-26_15h58.45.455,lexical_decision_task_MP_exp2,2020.2.5,Win32,60,z,1,0.705785,,,,,,,,0.705785,1,,,,,,442,NW,"ID",33,aboune,ABOUNE,z,,,,,,0.165740741,-0.265740741,0,0,0,,0,117,117,261,1,
,,,,,,,,,,,,,,,,,,5eea1be10e95520beb9fa654,2020-11-26_15h58.45.455,lexical_decision_task_MP_exp2,2020.2.5,Win32,60,z,1,0.650815,,,,,,,,0.650815,1,,,,,,388,NW,UN,16,witmer,CRAGIN,z,,,,,,0.165740741,-0.265740741,0,0,0,,0,118,118,447,1,
,,,,,,,,,,,,,,,,,,5eea1be10e95520beb9fa654,2020-11-26_15h58.45.455,lexical_decision_task_MP_exp2,2020.2.5,Win32,60,z,1,0.672175,,,,,,,,0.672175,1,,,,,,414,NW,UN,16,higsta,SERBOL,z,,,,,,0.165740741,-0.265740741,0,0,0,,0,119,119,473,1,
,,,,,,,,,,,,,,,,,,5eea1be10e95520beb9fa654,2020-11-26_15h58.45.455,lexical_decision_task_MP_exp2,2020.2.5,Win32,60,m,1,0.622305,,,,,,,,0.622305,1,,,,,,159,WORD,UN,16,violet,DETAIL,m,,,,,,0.165740741,-0.265740741,0,0,0,space,0,120,120,218,1,4.298335
,,,,,,,,,,,,,,,,,,5eea1be10e95520beb9fa654,2020-11-26_15h58.45.455,lexical_decision_task_MP_exp2,2020.2.5,Win32,60,m,1,1.28392,,,,,,,,1.28392,1,,,,,,239,WORD,"ID",33,lumber,LUMBER,m,,,,,,0.165740741,-0.265740741,0,0,0,,0,121,121,58,1,
,,,,,,,,,,,,,,,,,,5eea1be10e95520beb9fa654,2020-11-26_15h58.45.455,lexical_decision_task_MP_exp2,2020.2.5,Win32,60,z,1,0.80144,,,,,,,,0.80144,1,,,,,,471,NW,"ID",33,nobest,NOBEST,z,,,,,,0.165740741,-0.265740741,0,0,0,,0,122,122,290,1,
,,,,,,,,,,,,,,,,,,5eea1be10e95520beb9fa654,2020-11-26_15h58.45.455,lexical_decision_task_MP_exp2,2020.2.5,Win32,60,m,1,0.65027,,,,,,,,0.65027,1,,,,,,87,WORD,UN,33,sprawl,FILTER,m,,,,,,0.165740741,-0.265740741,0,0,0,,0,123,123,146,1,
,,,,,,,,,,,,,,,,,,5eea1be10e95520beb9fa654,2020-11-26_15h58.45.455,lexical_decision_task_MP_exp2,2020.2.5,Win32,60,z,1,0.730125,,,,,,,,0.730125,1,,,,,,407,NW,UN,16,hurnia,SUIVER,z,,,,,,0.165740741,-0.265740741,0,0,0,,0,124,124,466,1,
,,,,,,,,,,,,,,,,,,5eea1be10e95520beb9fa654,2020-11-26_15h58.45.455,lexical_decision_task_MP_exp2,2020.2.5,Win32,60,m,1,0.583795,,,,,,,,0.583795,1,,,,,,72,WORD,UN,33,source,BRIGHT,m,,,,,,0.165740741,-0.265740741,0,0,0,,0,125,125,131,1,
,,,,,,,,,,,,,,,,,,5eea1be10e95520beb9fa654,2020-11-26_15h58.45.455,lexical_decision_task_MP_exp2,2020.2.5,Win32,60,z,1,0.850755,,,,,,,,0.850755,1,,,,,,380,NW,UN,16,huniek,CAVORY,z,,,,,,0.165740741,-0.265740741,0,0,0,,0,126,126,439,1,
,,,,,,,,,,,,,,,,,,5eea1be10e95520beb9fa654,2020-11-26_15h58.45.455,lexical_decision_task_MP_exp2,2020.2.5,Win32,60,m,1,0.57991,,,,,,,,0.57991,1,,,,,,162,WORD,UN,16,string,CANDLE,m,,,,,,0.165740741,-0.265740741,0,0,0,,0,127,127,221,1,
,,,,,,,,,,,,,,,,,,5eea1be10e95520beb9fa654,2020-11-26_15h58.45.455,lexical_decision_task_MP_exp2,2020.2.5,Win32,60,z,1,0.551685,,,,,,,,0.551685,1,,,,,,356,NW,UN,33,derain,OTHNIS,z,,,,,,0.165740741,-0.265740741,0,0,0,,0,128,128,415,1,
,,,,,,,,,,,,,,,,,,5eea1be10e95520beb9fa654,2020-11-26_15h58.45.455,lexical_decision_task_MP_exp2,2020.2.5,Win32,60,m,1,0.55067,,,,,,,,0.55067,1,,,,,,45,WORD,"ID",16,clergy,CLERGY,m,,,,,,0.165740741,-0.265740741,0,0,0,,0,129,129,104,1,
,,,,,,,,,,,,,,,,,,5eea1be10e95520beb9fa654,2020-11-26_15h58.45.455,lexical_decision_task_MP_exp2,2020.2.5,Win32,60,z,1,0.600625,,,,,,,,0.600625,1,,,,,,317,NW,UN,33,reagly,WORBAL,z,,,,,,0.165740741,-0.265740741,0,0,0,,0,130,130,376,1,
,,,,,,,,,,,,,,,,,,5eea1be10e95520beb9fa654,2020-11-26_15h58.45.455,lexical_decision_task_MP_exp2,2020.2.5,Win32,60,z,1,0.60363,,,,,,,,0.60363,1,,,,,,444,NW,"ID",33,jaunce,JAUNCE,z,,,,,,0.165740741,-0.265740741,0,0,0,,0,131,131,263,1,
,,,,,,,,,,,,,,,,,,5eea1be10e95520beb9fa654,2020-11-26_15h58.45.455,lexical_decision_task_MP_exp2,2020.2.5,Win32,60,m,1,0.587055,,,,,,,,0.587055,1,,,,,,180,WORD,UN,16,thrive,SILENT,m,,,,,,0.165740741,-0.265740741,0,0,0,,0,132,132,239,1,
,,,,,,,,,,,,,,,,,,5eea1be10e95520beb9fa654,2020-11-26_15h58.45.455,lexical_decision_task_MP_exp2,2020.2.5,Win32,60,m,1,0.53578,,,,,,,,0.53578,1,,,,,,27,WORD,"ID",16,scream,SCREAM,m,,,,,,0.165740741,-0.265740741,0,0,0,,0,133,133,86,1,
,,,,,,,,,,,,,,,,,,5eea1be10e95520beb9fa654,2020-11-26_15h58.45.455,lexical_decision_task_MP_exp2,2020.2.5,Win32,60,z,1,0.68382,,,,,,,,0.68382,1,,,,,,258,NW,"ID",16,poluth,POLUTH,z,,,,,,0.165740741,-0.265740741,0,0,0,,0,134,134,317,1,
,,,,,,,,,,,,,,,,,,5eea1be10e95520beb9fa654,2020-11-26_15h58.45.455,lexical_decision_task_MP_exp2,2020.2.5,Win32,60,m,1,0.56755,,,,,,,,0.56755,1,,,,,,194,WORD,"ID",33,absent,ABSENT,m,,,,,,0.165740741,-0.265740741,0,0,0,,0,135,135,13,1,
,,,,,,,,,,,,,,,,,,5eea1be10e95520beb9fa654,2020-11-26_15h58.45.455,lexical_decision_task_MP_exp2,2020.2.5,Win32,60,m,1,0.52968,,,,,,,,0.52968,1,,,,,,135,WORD,UN,16,bleach,IMPORT,m,,,,,,0.165740741,-0.265740741,0,0,0,,0,136,136,194,1,
,,,,,,,,,,,,,,,,,,5eea1be10e95520beb9fa654,2020-11-26_15h58.45.455,lexical_decision_task_MP_exp2,2020.2.5,Win32,60,m,0,0.539975,,,,,,,,0.539975,0,,,,,,425,NW,"ID",33,frudge,FRUDGE,z,,,,,,0.165740741,-0.265740741,0,0,0,,0,137,137,244,1,
,,,,,,,,,,,,,,,,,,5eea1be10e95520beb9fa654,2020-11-26_15h58.45.455,lexical_decision_task_MP_exp2,2020.2.5,Win32,60,z,1,1.21603,,,,,,,,1.21603,1,,,,,,268,NW,"ID",16,packes,PACKES,z,,,,,,0.165740741,-0.265740741,0,0,0,,0,138,138,327,1,
,,,,,,,,,,,,,,,,,,5eea1be10e95520beb9fa654,2020-11-26_15h58.45.455,lexical_decision_task_MP_exp2,2020.2.5,Win32,60,z,1,0.65221,,,,,,,,0.65221,1,,,,,,460,NW,"ID",33,mingar,MINGAR,z,,,,,,0.165740741,-0.265740741,0,0,0,,0,139,139,279,1,
,,,,,,,,,,,,,,,,,,5eea1be10e95520beb9fa654,2020-11-26_15h58.45.455,lexical_decision_task_MP_exp2,2020.2.5,Win32,60,z,1,0.601705,,,,,,,,0.601705,1,,,,,,264,NW,"ID",16,vackel,VACKEL,z,,,,,,0.165740741,-0.265740741,0,0,0,,0,140,140,323,1,
,,,,,,,,,,,,,,,,,,5eea1be10e95520beb9fa654,2020-11-26_15h58.45.455,lexical_decision_task_MP_exp2,2020.2.5,Win32,60,z,1,0.61692,,,,,,,,0.61692,1,,,,,,249,NW,"ID",16,batrol,BATROL,z,,,,,,0.165740741,-0.265740741,0,0,0,,0,141,141,308,1,
,,,,,,,,,,,,,,,,,,5eea1be10e95520beb9fa654,2020-11-26_15h58.45.455,lexical_decision_task_MP_exp2,2020.2.5,Win32,60,z,1,0.587545,,,,,,,,0.587545,1,,,,,,300,NW,"ID",16,yarion,YARION,z,,,,,,0.165740741,-0.265740741,0,0,0,,0,142,142,359,1,
,,,,,,,,,,,,,,,,,,5eea1be10e95520beb9fa654,2020-11-26_15h58.45.455,lexical_decision_task_MP_exp2,2020.2.5,Win32,60,z,1,0.584385,,,,,,,,0.584385,1,,,,,,435,NW,"ID",33,impurb,IMPURB,z,,,,,,0.165740741,-0.265740741,0,0,0,,0,143,143,254,1,
,,,,,,,,,,,,,,,,,,5eea1be10e95520beb9fa654,2020-11-26_15h58.45.455,lexical_decision_task_MP_exp2,2020.2.5,Win32,60,z,1,0.65136,,,,,,,,0.65136,1,,,,,,315,NW,UN,33,scregm,LASTON,z,,,,,,0.165740741,-0.265740741,0,0,0,,0,144,144,374,1,
,,,,,,,,,,,,,,,,,,5eea1be10e95520beb9fa654,2020-11-26_15h58.45.455,lexical_decision_task_MP_exp2,2020.2.5,Win32,60,m,1,0.68315,,,,,,,,0.68315,1,,,,,,212,WORD,"ID",33,verify,VERIFY,m,,,,,,0.165740741,-0.265740741,0,0,0,,0,145,145,31,1,
,,,,,,,,,,,,,,,,,,5eea1be10e95520beb9fa654,2020-11-26_15h58.45.455,lexical_decision_task_MP_exp2,2020.2.5,Win32,60,m,1,0.601385,,,,,,,,0.601385,1,,,,,,181,WORD,"ID",33,glance,GLANCE,m,,,,,,0.165740741,-0.265740741,0,0,0,,0,146,146,0,1,
,,,,,,,,,,,,,,,,,,5eea1be10e95520beb9fa654,2020-11-26_15h58.45.455,lexical_decision_task_MP_exp2,2020.2.5,Win32,60,z,1,0.734355,,,,,,,,0.734355,1,,,,,,313,NW,UN,33,sprine,PAURSE,z,,,,,,0.165740741,-0.265740741,0,0,0,,0,147,147,372,1,
,,,,,,,,,,,,,,,,,,5eea1be10e95520beb9fa654,2020-11-26_15h58.45.455,lexical_decision_task_MP_exp2,2020.2.5,Win32,60,m,1,0.6172,,,,,,,,0.6172,1,,,,,,37,WORD,"ID",16,insult,INSULT,m,,,,,,0.165740741,-0.265740741,0,0,0,,0,148,148,96,1,
,,,,,,,,,,,,,,,,,,5eea1be10e95520beb9fa654,2020-11-26_15h58.45.455,lexical_decision_task_MP_exp2,2020.2.5,Win32,60,z,1,0.6667,,,,,,,,0.6667,1,,,,,,416,NW,UN,16,earoud,PATHEL,z,,,,,,0.165740741,-0.265740741,0,0,0,,0,149,149,475,1,
,,,,,,,,,,,,,,,,,,5eea1be10e95520beb9fa654,2020-11-26_15h58.45.455,lexical_decision_task_MP_exp2,2020.2.5,Win32,60,z,1,0.69195,,,,,,,,0.69195,1,,,,,,384,NW,UN,16,injore,GUESCO,z,,,,,,0.165740741,-0.265740741,0,0,0,,0,150,150,443,1,
,,,,,,,,,,,,,,,,,,5eea1be10e95520beb9fa654,2020-11-26_15h58.45.455,lexical_decision_task_MP_exp2,2020.2.5,Win32,60,z,1,0.651145,,,,,,,,0.651145,1,,,,,,309,NW,UN,33,daniet,AMILOY,z,,,,,,0.165740741,-0.265740741,0,0,0,,0,151,151,368,1,
,,,,,,,,,,,,,,,,,,5eea1be10e95520beb9fa654,2020-11-26_15h58.45.455,lexical_decision_task_MP_exp2,2020.2.5,Win32,60,z,0,0.488435,,,,,,,,0.488435,0,,,,,,111,WORD,UN,33,breath,INDUCE,m,,,,,,0.165740741,-0.265740741,0,0,0,,0,152,152,170,1,
,,,,,,,,,,,,,,,,,,5eea1be10e95520beb9fa654,2020-11-26_15h58.45.455,lexical_decision_task_MP_exp2,2020.2.5,Win32,60,m,1,0.80534,,,,,,,,0.80534,1,,,,,,101,WORD,UN,33,direct,WRENCH,m,,,,,,0.165740741,-0.265740741,0,0,0,,0,153,153,160,1,
,,,,,,,,,,,,,,,,,,5eea1be10e95520beb9fa654,2020-11-26_15h58.45.455,lexical_decision_task_MP_exp2,2020.2.5,Win32,60,z,1,0.80239,,,,,,,,0.80239,1,,,,,,418,NW,UN,16,slount,SUIDLE,z,,,,,,0.165740741,-0.265740741,0,0,0,,0,154,154,477,1,
,,,,,,,,,,,,,,,,,,5eea1be10e95520beb9fa654,2020-11-26_15h58.45.455,lexical_decision_task_MP_exp2,2020.2.5,Win32,60,m,1,0.55337,,,,,,,,0.55337,1,,,,,,81,WORD,UN,33,stigma,FRIEND,m,,,,,,0.165740741,-0.265740741,0,0,0,,0,155,155,140,1,
,,,,,,,,,,,,,,,,,,5eea1be10e95520beb9fa654,2020-11-26_15h58.45.455,lexical_decision_task_MP_exp2,2020.2.5,Win32,60,m,1,0.575025,,,,,,,,0.575025,1,,,,,,53,WORD,"ID",16,police,POLICE,m,,,,,,0.165740741,-0.265740741,0,0,0,,0,156,156,112,1,
,,,,,,,,,,,,,,,,,,5eea1be10e95520beb9fa654,2020-11-26_15h58.45.455,lexical_decision_task_MP_exp2,2020.2.5,Win32,60,m,1,0.632785,,,,,,,,0.632785,1,,,,,,164,WORD,UN,16,invest,MARKET,m,,,,,,0.165740741,-0.265740741,0,0,0,,0,157,157,223,1,
,,,,,,,,,,,,,,,,,,5eea1be10e95520beb9fa654,2020-11-26_15h58.45.455,lexical_decision_task_MP_exp2,2020.2.5,Win32,60,m,1,0.538545,,,,,,,,0.538545,1,,,,,,127,WORD,UN,16,senior,CASTLE,m,,,,,,0.165740741,-0.265740741,0,0,0,,0,158,158,186,1,
,,,,,,,,,,,,,,,,,,5eea1be10e95520beb9fa654,2020-11-26_15h58.45.455,lexical_decision_task_MP_exp2,2020.2.5,Win32,60,m,1,0.59043,,,,,,,,0.59043,1,,,,,,211,WORD,"ID",33,infect,INFECT,m,,,,,,0.165740741,-0.265740741,0,0,0,,0,159,159,30,1,
,,,,,,,,,,,,,,,,,,5eea1be10e95520beb9fa654,2020-11-26_15h58.45.455,lexical_decision_task_MP_exp2,2020.2.5,Win32,60,z,1,0.67186,,,,,,,,0.67186,1,,,,,,427,NW,"ID",33,schind,SCHIND,z,,,,,,0.165740741,-0.265740741,0,0,0,,0,160,160,246,1,
,,,,,,,,,,,,,,,,,,5eea1be10e95520beb9fa654,2020-11-26_15h58.45.455,lexical_decision_task_MP_exp2,2020.2.5,Win32,60,z,1,0.65451,,,,,,,,0.65451,1,,,,,,470,NW,"ID",33,crudio,CRUDIO,z,,,,,,0.165740741,-0.265740741,0,0,0,,0,161,161,289,1,
,,,,,,,,,,,,,,,,,,5eea1be10e95520beb9fa654,2020-11-26_15h58.45.455,lexical_decision_task_MP_exp2,2020.2.5,Win32,60,z,1,0.82942,,,,,,,,0.82942,1,,,,,,342,NW,UN,33,aimosy,RANDOW,z,,,,,,0.165740741,-0.265740741,0,0,0,,0,162,162,401,1,
,,,,,,,,,,,,,,,,,,5eea1be10e95520beb9fa654,2020-11-26_15h58.45.455,lexical_decision_task_MP_exp2,2020.2.5,Win32,60,z,1,0.68792,,,,,,,,0.68792,1,,,,,,383,NW,UN,16,guesco,AUNGRE,z,,,,,,0.165740741,-0.265740741,0,0,0,,0,163,163,442,1,
,,,,,,,,,,,,,,,,,,5eea1be10e95520beb9fa654,2020-11-26_15h58.45.455,lexical_decision_task_MP_exp2,2020.2.5,Win32,60,m,1,0.620885,,,,,,,,0.620885,1,,,,,,173,WORD,UN,16,turkey,SHOWER,m,,,,,,0.165740741,-0.265740741,0,0,0,,0,164,164,232,1,
,,,,,,,,,,,,,,,,,,5eea1be10e95520beb9fa654,2020-11-26_15h58.45.455,lexical_decision_task_MP_exp2,2020.2.5,Win32,60,z,1,0.73384,,,,,,,,0.73384,1,,,,,,318,NW,UN,33,zomber,REAGLY,z,,,,,,0.165740741,-0.265740741,0,0,0,,0,165,165,377,1,
,,,,,,,,,,,,,,,,,,5eea1be10e95520beb9fa654,2020-11-26_15h58.45.455,lexical_decision_task_MP_exp2,2020.2.5,Win32,60,m,1,0.666705,,,,,,,,0.666705,1,,,,,,186,WORD,"ID",33,portal,PORTAL,m,,,,,,0.165740741,-0.265740741,0,0,0,,0,166,166,5,1,
,,,,,,,,,,,,,,,,,,5eea1be10e95520beb9fa654,2020-11-26_15h58.45.455,lexical_decision_task_MP_exp2,2020.2.5,Win32,60,z,1,0.737595,,,,,,,,0.737595,1,,,,,,276,NW,"ID",16,yarmon,YARMON,z,,,,,,0.165740741,-0.265740741,0,0,0,,0,167,167,335,1,
,,,,,,,,,,,,,,,,,,5eea1be10e95520beb9fa654,2020-11-26_15h58.45.455,lexical_decision_task_MP_exp2,2020.2.5,Win32,60,m,1,0.606495,,,,,,,,0.606495,1,,,,,,141,WORD,UN,16,spruce,ORPHAN,m,,,,,,0.165740741,-0.265740741,0,0,0,,0,168,168,200,1,
,,,,,,,,,,,,,,,,,,5eea1be10e95520beb9fa654,2020-11-26_15h58.45.455,lexical_decision_task_MP_exp2,2020.2.5,Win32,60,z,1,0.70082,,,,,,,,0.70082,1,,,,,,333,NW,UN,33,watmeg,CATRIE,z,,,,,,0.165740741,-0.265740741,0,0,0,,0,169,169,392,1,
,,,,,,,,,,,,,,,,,,5eea1be10e95520beb9fa654,2020-11-26_15h58.45.455,lexical_decision_task_MP_exp2,2020.2.5,Win32,60,m,1,0.65093,,,,,,,,0.65093,1,,,,,,21,WORD,"ID",16,simple,SIMPLE,m,,,,,,0.165740741,-0.265740741,0,0,0,,0,170,170,80,1,
,,,,,,,,,,,,,,,,,,5eea1be10e95520beb9fa654,2020-11-26_15h58.45.455,lexical_decision_task_MP_exp2,2020.2.5,Win32,60,z,1,0.76623,,,,,,,,0.76623,1,,,,,,474,NW,"ID",33,hablin,HABLIN,z,,,,,,0.165740741,-0.265740741,0,0,0,,0,171,171,293,1,
,,,,,,,,,,,,,,,,,,5eea1be10e95520beb9fa654,2020-11-26_15h58.45.455,lexical_decision_task_MP_exp2,2020.2.5,Win32,60,m,1,0.601375,,,,,,,,0.601375,1,,,,,,232,WORD,"ID",33,inject,INJECT,m,,,,,,0.165740741,-0.265740741,0,0,0,,0,172,172,51,1,
,,,,,,,,,,,,,,,,,,5eea1be10e95520beb9fa654,2020-11-26_15h58.45.455,lexical_decision_task_MP_exp2,2020.2.5,Win32,60,z,1,0.670715,,,,,,,,0.670715,1,,,,,,289,NW,"ID",16,starby,STARBY,z,,,,,,0.165740741,-0.265740741,0,0,0,,0,173,173,348,1,
,,,,,,,,,,,,,,,,,,5eea1be10e95520beb9fa654,2020-11-26_15h58.45.455,lexical_decision_task_MP_exp2,2020.2.5,Win32,60,z,1,0.61673,,,,,,,,0.61673,1,,,,,,428,NW,"ID",33,tandly,TANDLY,z,,,,,,0.165740741,-0.265740741,0,0,0,,0,174,174,247,1,
,,,,,,,,,,,,,,,,,,5eea1be10e95520beb9fa654,2020-11-26_15h58.45.455,lexical_decision_task_MP_exp2,2020.2.5,Win32,60,m,1,0.65102,,,,,,,,0.65102,1,,,,,,84,WORD,UN,33,strand,MORTAL,m,,,,,,0.165740741,-0.265740741,0,0,0,,0,175,175,143,1,
,,,,,,,,,,,,,,,,,,5eea1be10e95520beb9fa654,2020-11-26_15h58.45.455,lexical_decision_task_MP_exp2,2020.2.5,Win32,60,m,1,0.75104,,,,,,,,0.75104,1,,,,,,217,WORD,"ID",33,liquor,LIQUOR,m,,,,,,0.165740741,-0.265740741,0,0,0,,0,176,176,36,1,
,,,,,,,,,,,,,,,,,,5eea1be10e95520beb9fa654,2020-11-26_15h58.45.455,lexical_decision_task_MP_exp2,2020.2.5,Win32,60,m,1,0.734085,,,,,,,,0.734085,1,,,,,,54,WORD,"ID",16,ramble,RAMBLE,m,,,,,,0.165740741,-0.265740741,0,0,0,,0,177,177,113,1,
,,,,,,,,,,,,,,,,,,5eea1be10e95520beb9fa654,2020-11-26_15h58.45.455,lexical_decision_task_MP_exp2,2020.2.5,Win32,60,z,1,0.703155,,,,,,,,0.703155,1,,,,,,339,NW,UN,33,fiatch,FACHOW,z,,,,,,0.165740741,-0.265740741,0,0,0,,0,178,178,398,1,
,,,,,,,,,,,,,,,,,,5eea1be10e95520beb9fa654,2020-11-26_15h58.45.455,lexical_decision_task_MP_exp2,2020.2.5,Win32,60,m,1,0.60673,,,,,,,,0.60673,1,,,,,,33,WORD,"ID",16,butler,BUTLER,m,,,,,,0.165740741,-0.265740741,0,0,0,,0,179,179,92,1,
,,,,,,,,,,,,,,,,,,5eea1be10e95520beb9fa654,2020-11-26_15h58.45.455,lexical_decision_task_MP_exp2,2020.2.5,Win32,60,z,1,0.719855,,,,,,,,0.719855,1,,,,,,454,NW,"ID",33,scouge,SCOUGE,z,,,,,,0.165740741,-0.265740741,0,0,0,,0,180,180,273,1,
,,,,,,,,,,,,,,,,,,5eea1be10e95520beb9fa654,2020-11-26_15h58.45.455,lexical_decision_task_MP_exp2,2020.2.5,Win32,60,z,1,0.65323,,,,,,,,0.65323,1,,,,,,469,NW,"ID",33,padifs,PADIFS,z,,,,,,0.165740741,-0.265740741,0,0,0,,0,181,181,288,1,
,,,,,,,,,,,,,,,,,,5eea1be10e95520beb9fa654,2020-11-26_15h58.45.455,lexical_decision_task_MP_exp2,2020.2.5,Win32,60,m,1,0.722765,,,,,,,,0.722765,1,,,,,,83,WORD,UN,33,mortal,RESULT,m,,,,,,0.165740741,-0.265740741,0,0,0,,0,182,182,142,1,
,,,,,,,,,,,,,,,,,,5eea1be10e95520beb9fa654,2020-11-26_15h58.45.455,lexical_decision_task_MP_exp2,2020.2.5,Win32,60,z,1,0.68797,,,,,,,,0.68797,1,,,,,,280,NW,"ID",16,curbol,CURBOL,z,,,,,,0.165740741,-0.265740741,0,0,0,,0,183,183,339,1,
,,,,,,,,,,,,,,,,,,5eea1be10e95520beb9fa654,2020-11-26_15h58.45.455,lexical_decision_task_MP_exp2,2020.2.5,Win32,60,m,1,0.70238,,,,,,,,0.70238,1,,,,,,216,WORD,"ID",33,behalf,BEHALF,m,,,,,,0.165740741,-0.265740741,0,0,0,,0,184,184,35,1,
,,,,,,,,,,,,,,,,,,5eea1be10e95520beb9fa654,2020-11-26_15h58.45.455,lexical_decision_task_MP_exp2,2020.2.5,Win32,60,m,1,0.573525,,,,,,,,0.573525,1,,,,,,126,WORD,UN,16,castle,ENOUGH,m,,,,,,0.165740741,-0.265740741,0,0,0,,0,185,185,185,1,
,,,,,,,,,,,,,,,,,,5eea1be10e95520beb9fa654,2020-11-26_15h58.45.455,lexical_decision_task_MP_exp2,2020.2.5,Win32,60,m,1,0.597365,,,,,,,,0.597365,1,,,,,,43,WORD,"ID",16,tongue,TONGUE,m,,,,,,0.165740741,-0.265740741,0,0,0,,0,186,186,102,1,
,,,,,,,,,,,,,,,,,,5eea1be10e95520beb9fa654,2020-11-26_15h58.45.455,lexical_decision_task_MP_exp2,2020.2.5,Win32,60,m,1,0.6676,,,,,,,,0.6676,1,,,,,,49,WORD,"ID",16,survey,SURVEY,m,,,,,,0.165740741,-0.265740741,0,0,0,,0,187,187,108,1,
,,,,,,,,,,,,,,,,,,5eea1be10e95520beb9fa654,2020-11-26_15h58.45.455,lexical_decision_task_MP_exp2,2020.2.5,Win32,60,m,1,0.58495,,,,,,,,0.58495,1,,,,,,94,WORD,UN,33,thread,TRAVEL,m,,,,,,0.165740741,-0.265740741,0,0,0,,0,188,188,153,1,
,,,,,,,,,,,,,,,,,,5eea1be10e95520beb9fa654,2020-11-26_15h58.45.455,lexical_decision_task_MP_exp2,2020.2.5,Win32,60,z,1,0.751065,,,,,,,,0.751065,1,,,,,,306,NW,UN,33,kirafe,SOUNGE,z,,,,,,0.165740741,-0.265740741,0,0,0,,0,189,189,365,1,
,,,,,,,,,,,,,,,,,,5eea1be10e95520beb9fa654,2020-11-26_15h58.45.455,lexical_decision_task_MP_exp2,2020.2.5,Win32,60,z,1,0.60151,,,,,,,,0.60151,1,,,,,,274,NW,"ID",16,fumblo,FUMBLO,z,,,,,,0.165740741,-0.265740741,0,0,0,,0,190,190,333,1,
,,,,,,,,,,,,,,,,,,5eea1be10e95520beb9fa654,2020-11-26_15h58.45.455,lexical_decision_task_MP_exp2,2020.2.5,Win32,60,m,1,0.672175,,,,,,,,0.672175,1,,,,,,99,WORD,UN,33,carbon,FLUENT,m,,,,,,0.165740741,-0.265740741,0,0,0,,0,191,191,158,1,
,,,,,,,,,,,,,,,,,,5eea1be10e95520beb9fa654,2020-11-26_15h58.45.455,lexical_decision_task_MP_exp2,2020.2.5,Win32,60,z,1,0.600585,,,,,,,,0.600585,1,,,,,,371,NW,UN,16,ramily,GEILOY,z,,,,,,0.165740741,-0.265740741,0,0,0,,0,192,192,430,1,
,,,,,,,,,,,,,,,,,,5eea1be10e95520beb9fa654,2020-11-26_15h58.45.455,lexical_decision_task_MP_exp2,2020.2.5,Win32,60,m,1,0.66751,,,,,,,,0.66751,1,,,,,,20,WORD,"ID",16,breast,BREAST,m,,,,,,0.165740741,-0.265740741,0,0,0,,0,193,193,79,1,
,,,,,,,,,,,,,,,,,,5eea1be10e95520beb9fa654,2020-11-26_15h58.45.455,lexical_decision_task_MP_exp2,2020.2.5,Win32,60,m,1,0.72066,,,,,,,,0.72066,1,,,,,,74,WORD,UN,33,trophy,PLAQUE,m,,,,,,0.165740741,-0.265740741,0,0,0,,0,194,194,133,1,
,,,,,,,,,,,,,,,,,,5eea1be10e95520beb9fa654,2020-11-26_15h58.45.455,lexical_decision_task_MP_exp2,2020.2.5,Win32,60,z,1,0.65452,,,,,,,,0.65452,1,,,,,,410,NW,UN,16,orchin,TUNORY,z,,,,,,0.165740741,-0.265740741,0,0,0,,0,195,195,469,1,
,,,,,,,,,,,,,,,,,,5eea1be10e95520beb9fa654,2020-11-26_15h58.45.455,lexical_decision_task_MP_exp2,2020.2.5,Win32,60,z,1,0.67002,,,,,,,,0.67002,1,,,,,,241,NW,"ID",16,smenco,SMENCO,z,,,,,,0.165740741,-0.265740741,0,0,0,,0,196,196,300,1,
,,,,,,,,,,,,,,,,,,5eea1be10e95520beb9fa654,2020-11-26_15h58.45.455,lexical_decision_task_MP_exp2,2020.2.5,Win32,60,m,1,0.600765,,,,,,,,0.600765,1,,,,,,36,WORD,"ID",16,vanish,VANISH,m,,,,,,0.165740741,-0.265740741,0,0,0,,0,197,197,95,1,
,,,,,,,,,,,,,,,,,,5eea1be10e95520beb9fa654,2020-11-26_15h58.45.455,lexical_decision_task_MP_exp2,2020.2.5,Win32,60,z,1,0.98384,,,,,,,,0.98384,1,,,,,,421,NW,"ID",33,knisma,KNISMA,z,,,,,,0.165740741,-0.265740741,0,0,0,,0,198,198,240,1,
,,,,,,,,,,,,,,,,,,5eea1be10e95520beb9fa654,2020-11-26_15h58.45.455,lexical_decision_task_MP_exp2,2020.2.5,Win32,60,m,1,0.63586,,,,,,,,0.63586,1,,,,,,38,WORD,"ID",16,powder,POWDER,m,,,,,,0.165740741,-0.265740741,0,0,0,,0,199,199,97,1,
,,,,,,,,,,,,,,,,,,5eea1be10e95520beb9fa654,2020-11-26_15h58.45.455,lexical_decision_task_MP_exp2,2020.2.5,Win32,60,z,1,0.782765,,,,,,,,0.782765,1,,,,,,455,NW,"ID",33,tondle,TONDLE,z,,,,,,0.165740741,-0.265740741,0,0,0,,0,200,200,274,1,
,,,,,,,,,,,,,,,,,,5eea1be10e95520beb9fa654,2020-11-26_15h58.45.455,lexical_decision_task_MP_exp2,2020.2.5,Win32,60,z,1,0.80161,,,,,,,,0.80161,1,,,,,,449,NW,"ID",33,brunge,BRUNGE,z,,,,,,0.165740741,-0.265740741,0,0,0,,0,201,201,268,1,
,,,,,,,,,,,,,,,,,,5eea1be10e95520beb9fa654,2020-11-26_15h58.45.455,lexical_decision_task_MP_exp2,2020.2.5,Win32,60,z,1,0.567245,,,,,,,,0.567245,1,,,,,,319,NW,UN,33,jockal,ZOMBER,z,,,,,,0.165740741,-0.265740741,0,0,0,,0,202,202,378,1,
,,,,,,,,,,,,,,,,,,5eea1be10e95520beb9fa654,2020-11-26_15h58.45.455,lexical_decision_task_MP_exp2,2020.2.5,Win32,60,m,1,0.64983,,,,,,,,0.64983,1,,,,,,185,WORD,"ID",33,bother,BOTHER,m,,,,,,0.165740741,-0.265740741,0,0,0,,0,203,203,4,1,
,,,,,,,,,,,,,,,,,,5eea1be10e95520beb9fa654,2020-11-26_15h58.45.455,lexical_decision_task_MP_exp2,2020.2.5,Win32,60,z,1,0.718945,,,,,,,,0.718945,1,,,,,,296,NW,"ID",16,beinch,BEINCH,z,,,,,,0.165740741,-0.265740741,0,0,0,,0,204,204,355,1,
,,,,,,,,,,,,,,,,,,5eea1be10e95520beb9fa654,2020-11-26_15h58.45.455,lexical_decision_task_MP_exp2,2020.2.5,Win32,60,m,1,0.66821,,,,,,,,0.66821,1,,,,,,56,WORD,"ID",16,ambush,AMBUSH,m,,,,,,0.165740741,-0.265740741,0,0,0,,0,205,205,115,1,
,,,,,,,,,,,,,,,,,,5eea1be10e95520beb9fa654,2020-11-26_15h58.45.455,lexical_decision_task_MP_exp2,2020.2.5,Win32,60,m,1,0.82008,,,,,,,,0.82008,1,,,,,,68,WORD,UN,33,plenty,FUMBLE,m,,,,,,0.165740741,-0.265740741,0,0,0,,0,206,206,127,1,
,,,,,,,,,,,,,,,,,,5eea1be10e95520beb9fa654,2020-11-26_15h58.45.455,lexical_decision_task_MP_exp2,2020.2.5,Win32,60,z,1,0.71765,,,,,,,,0.71765,1,,,,,,466,NW,"ID",33,hocite,HOCITE,z,,,,,,0.165740741,-0.265740741,0,0,0,,0,207,207,285,1,
,,,,,,,,,,,,,,,,,,5eea1be10e95520beb9fa654,2020-11-26_15h58.45.455,lexical_decision_task_MP_exp2,2020.2.5,Win32,60,z,1,0.71739,,,,,,,,0.71739,1,,,,,,352,NW,UN,33,clurey,TRINGE,z,,,,,,0.165740741,-0.265740741,0,0,0,,0,208,208,411,1,
,,,,,,,,,,,,,,,,,,5eea1be10e95520beb9fa654,2020-11-26_15h58.45.455,lexical_decision_task_MP_exp2,2020.2.5,Win32,60,z,1,0.62229,,,,,,,,0.62229,1,,,,,,248,NW,"ID",16,strole,STROLE,z,,,,,,0.165740741,-0.265740741,0,0,0,,0,209,209,307,1,
,,,,,,,,,,,,,,,,,,5eea1be10e95520beb9fa654,2020-11-26_15h58.45.455,lexical_decision_task_MP_exp2,2020.2.5,Win32,60,z,1,0.70074,,,,,,,,0.70074,1,,,,,,394,NW,UN,16,colury,SPAQUX,z,,,,,,0.165740741,-0.265740741,0,0,0,,0,210,210,453,1,
,,,,,,,,,,,,,,,,,,5eea1be10e95520beb9fa654,2020-11-26_15h58.45.455,lexical_decision_task_MP_exp2,2020.2.5,Win32,60,m,1,0.66843,,,,,,,,0.66843,1,,,,,,190,WORD,"ID",33,backup,BACKUP,m,,,,,,0.165740741,-0.265740741,0,0,0,,0,211,211,9,1,
,,,,,,,,,,,,,,,,,,5eea1be10e95520beb9fa654,2020-11-26_15h58.45.455,lexical_decision_task_MP_exp2,2020.2.5,Win32,60,z,1,0.771395,,,,,,,,0.771395,1,,,,,,358,NW,UN,33,fonver,FLEACK,z,,,,,,0.165740741,-0.265740741,0,0,0,,0,212,212,417,1,
,,,,,,,,,,,,,,,,,,5eea1be10e95520beb9fa654,2020-11-26_15h58.45.455,lexical_decision_task_MP_exp2,2020.2.5,Win32,60,m,1,0.68454,,,,,,,,0.68454,1,,,,,,82,WORD,UN,33,result,STIGMA,m,,,,,,0.165740741,-0.265740741,0,0,0,,0,213,213,141,1,
,,,,,,,,,,,,,,,,,,5eea1be10e95520beb9fa654,2020-11-26_15h58.45.455,lexical_decision_task_MP_exp2,2020.2.5,Win32,60,z,1,0.984095,,,,,,,,0.984095,1,,,,,,316,NW,UN,33,worbal,SCREGM,z,,,,,,0.165740741,-0.265740741,0,0,0,,0,214,214,375,1,
,,,,,,,,,,,,,,,,,,5eea1be10e95520beb9fa654,2020-11-26_15h58.45.455,lexical_decision_task_MP_exp2,2020.2.5,Win32,60,m,1,0.55181,,,,,,,,0.55181,1,,,,,,131,WORD,UN,16,strong,QUENCH,m,,,,,,0.165740741,-0.265740741,0,0,0,,0,215,215,190,1,
,,,,,,,,,,,,,,,,,,5eea1be10e95520beb9fa654,2020-11-26_15h58.45.455,lexical_decision_task_MP_exp2,2020.2.5,Win32,60,m,1,0.65105,,,,,,,,0.65105,1,,,,,,58,WORD,"ID",16,foster,FOSTER,m,,,,,,0.165740741,-0.265740741,0,0,0,,0,216,216,117,1,
,,,,,,,,,,,,,,,,,,5eea1be10e95520beb9fa654,2020-11-26_15h58.45.455,lexical_decision_task_MP_exp2,2020.2.5,Win32,60,z,1,1.102825,,,,,,,,1.102825,1,,,,,,420,NW,UN,16,pauche,GUSHOP,z,,,,,,0.165740741,-0.265740741,0,0,0,,0,217,217,479,1,
,,,,,,,,,,,,,,,,,,5eea1be10e95520beb9fa654,2020-11-26_15h58.45.455,lexical_decision_task_MP_exp2,2020.2.5,Win32,60,z,1,0.968735,,,,,,,,0.968735,1,,,,,,349,NW,UN,33,nagurs,ASYLEN,z,,,,,,0.165740741,-0.265740741,0,0,0,,0,218,218,408,1,
,,,,,,,,,,,,,,,,,,5eea1be10e95520beb9fa654,2020-11-26_15h58.45.455,lexical_decision_task_MP_exp2,2020.2.5,Win32,60,z,1,0.836075,,,,,,,,0.836075,1,,,,,,406,NW,UN,16,suiver,NOUPLY,z,,,,,,0.165740741,-0.265740741,0,0,0,,0,219,219,465,1,
,,,,,,,,,,,,,,,,,,5eea1be10e95520beb9fa654,2020-11-26_15h58.45.455,lexical_decision_task_MP_exp2,2020.2.5,Win32,60,m,1,0.603845,,,,,,,,0.603845,1,,,,,,204,WORD,"ID",33,burden,BURDEN,m,,,,,,0.165740741,-0.265740741,0,0,0,,0,220,220,23,1,
,,,,,,,,,,,,,,,,,,5eea1be10e95520beb9fa654,2020-11-26_15h58.45.455,lexical_decision_task_MP_exp2,2020.2.5,Win32,60,m,1,0.634365,,,,,,,,0.634365,1,,,,,,62,WORD,UN,33,launch,REGION,m,,,,,,0.165740741,-0.265740741,0,0,0,,0,221,221,121,1,
,,,,,,,,,,,,,,,,,,5eea1be10e95520beb9fa654,2020-11-26_15h58.45.455,lexical_decision_task_MP_exp2,2020.2.5,Win32,60,m,1,0.604685,,,,,,,,0.604685,1,,,,,,75,WORD,UN,33,exotic,TROPHY,m,,,,,,0.165740741,-0.265740741,0,0,0,,0,222,222,134,1,
,,,,,,,,,,,,,,,,,,5eea1be10e95520beb9fa654,2020-11-26_15h58.45.455,lexical_decision_task_MP_exp2,2020.2.5,Win32,60,z,1,0.67956,,,,,,,,0.67956,1,,,,,,361,NW,UN,16,tireau,PAUCHE,z,,,,,,0.165740741,-0.265740741,0,0,0,,0,223,223,420,1,
,,,,,,,,,,,,,,,,,,5eea1be10e95520beb9fa654,2020-11-26_15h58.45.455,lexical_decision_task_MP_exp2,2020.2.5,Win32,60,z,1,0.82115,,,,,,,,0.82115,1,,,,,,385,NW,UN,16,ancust,VEIGMA,z,,,,,,0.165740741,-0.265740741,0,0,0,,0,224,224,444,1,
,,,,,,,,,,,,,,,,,,5eea1be10e95520beb9fa654,2020-11-26_15h58.45.455,lexical_decision_task_MP_exp2,2020.2.5,Win32,60,m,1,0.58446,,,,,,,,0.58446,1,,,,,,168,WORD,UN,16,genius,ANSWER,m,,,,,,0.165740741,-0.265740741,0,0,0,,0,225,225,227,1,
,,,,,,,,,,,,,,,,,,5eea1be10e95520beb9fa654,2020-11-26_15h58.45.455,lexical_decision_task_MP_exp2,2020.2.5,Win32,60,m,1,0.533655,,,,,,,,0.533655,1,,,,,,117,WORD,UN,33,flight,BRANCH,m,,,,,,0.165740741,-0.265740741,0,0,0,,0,226,226,176,1,
,,,,,,,,,,,,,,,,,,5eea1be10e95520beb9fa654,2020-11-26_15h58.45.455,lexical_decision_task_MP_exp2,2020.2.5,Win32,60,m,1,0.90196,,,,,,,,0.90196,1,,,,,,92,WORD,UN,33,public,STRAND,m,,,,,,0.165740741,-0.265740741,0,0,0,,0,227,227,151,1,
,,,,,,,,,,,,,,,,,,5eea1be10e95520beb9fa654,2020-11-26_15h58.45.455,lexical_decision_task_MP_exp2,2020.2.5,Win32,60,m,1,0.566365,,,,,,,,0.566365,1,,,,,,188,WORD,"ID",33,social,SOCIAL,m,,,,,,0.165740741,-0.265740741,0,0,0,,0,228,228,7,1,
,,,,,,,,,,,,,,,,,,5eea1be10e95520beb9fa654,2020-11-26_15h58.45.455,lexical_decision_task_MP_exp2,2020.2.5,Win32,60,z,1,0.584065,,,,,,,,0.584065,1,,,,,,441,NW,"ID",33,rastoe,RASTOE,z,,,,,,0.165740741,-0.265740741,0,0,0,,0,229,229,260,1,
,,,,,,,,,,,,,,,,,,5eea1be10e95520beb9fa654,2020-11-26_15h58.45.455,lexical_decision_task_MP_exp2,2020.2.5,Win32,60,m,1,0.55053,,,,,,,,0.55053,1,,,,,,221,WORD,"ID",33,mascot,MASCOT,m,,,,,,0.165740741,-0.265740741,0,0,0,,0,230,230,40,1,
,,,,,,,,,,,,,,,,,,5eea1be10e95520beb9fa654,2020-11-26_15h58.45.455,lexical_decision_task_MP_exp2,2020.2.5,Win32,60,m,1,0.73428,,,,,,,,0.73428,1,,,,,,158,WORD,UN,16,detail,ISLAND,m,,,,,,0.165740741,-0.265740741,0,0,0,,0,231,231,217,1,
,,,,,,,,,,,,,,,,,,5eea1be10e95520beb9fa654,2020-11-26_15h58.45.455,lexical_decision_task_MP_exp2,2020.2.5,Win32,60,m,1,0.631385,,,,,,,,0.631385,1,,,,,,235,WORD,"ID",33,grumpy,GRUMPY,m,,,,,,0.165740741,-0.265740741,0,0,0,,0,232,232,54,1,
,,,,,,,,,,,,,,,,,,5eea1be10e95520beb9fa654,2020-11-26_15h58.45.455,lexical_decision_task_MP_exp2,2020.2.5,Win32,60,m,1,0.60016,,,,,,,,0.60016,1,,,,,,100,WORD,UN,33,wrench,CARBON,m,,,,,,0.165740741,-0.265740741,0,0,0,,0,233,233,159,1,
,,,,,,,,,,,,,,,,,,5eea1be10e95520beb9fa654,2020-11-26_15h58.45.455,lexical_decision_task_MP_exp2,2020.2.5,Win32,60,z,1,0.655085,,,,,,,,0.655085,1,,,,,,256,NW,"ID",16,inlors,INLORS,z,,,,,,0.165740741,-0.265740741,0,0,0,,0,234,234,315,1,
,,,,,,,,,,,,,,,,,,5eea1be10e95520beb9fa654,2020-11-26_15h58.45.455,lexical_decision_task_MP_exp2,2020.2.5,Win32,60,z,1,0.66751,,,,,,,,0.66751,1,,,,,,386,NW,UN,16,gronce,ANCUST,z,,,,,,0.165740741,-0.265740741,0,0,0,,0,235,235,445,1,
,,,,,,,,,,,,,,,,,,5eea1be10e95520beb9fa654,2020-11-26_15h58.45.455,lexical_decision_task_MP_exp2,2020.2.5,Win32,60,m,1,0.600855,,,,,,,,0.600855,1,,,,,,209,WORD,"ID",33,search,SEARCH,m,,,,,,0.165740741,-0.265740741,0,0,0,,0,236,236,28,1,
,,,,,,,,,,,,,,,,,,5eea1be10e95520beb9fa654,2020-11-26_15h58.45.455,lexical_decision_task_MP_exp2,2020.2.5,Win32,60,z,1,0.701325,,,,,,,,0.701325,1,,,,,,250,NW,"ID",16,milted,MILTED,z,,,,,,0.165740741,-0.265740741,0,0,0,,0,237,237,309,1,
,,,,,,,,,,,,,,,,,,5eea1be10e95520beb9fa654,2020-11-26_15h58.45.455,lexical_decision_task_MP_exp2,2020.2.5,Win32,60,z,1,0.69807,,,,,,,,0.69807,1,,,,,,293,NW,"ID",16,swance,SWANCE,z,,,,,,0.165740741,-0.265740741,0,0,0,,0,238,238,352,1,
,,,,,,,,,,,,,,,,,,5eea1be10e95520beb9fa654,2020-11-26_15h58.45.455,lexical_decision_task_MP_exp2,2020.2.5,Win32,60,m,1,0.620885,,,,,,,,0.620885,1,,,,,,193,WORD,"ID",33,object,OBJECT,m,,,,,,0.165740741,-0.265740741,0,0,0,,0,239,239,12,1,
,,,,,,,,,,,,,,,,,,5eea1be10e95520beb9fa654,2020-11-26_15h58.45.455,lexical_decision_task_MP_exp2,2020.2.5,Win32,60,m,1,0.679045,,,,,,,,0.679045,1,,,,,,142,WORD,UN,16,reason,SPRUCE,m,,,,,,0.165740741,-0.265740741,0,0,0,,0,240,240,201,1,
,,,,,,,,,,,,,,,,,,5eea1be10e95520beb9fa654,2020-11-26_15h58.45.455,lexical_decision_task_MP_exp2,2020.2.5,Win32,60,m,1,0.680395,,,,,,,,0.680395,1,,,,,,178,WORD,UN,16,basket,INFORM,m,,,,,,0.165740741,-0.265740741,0,0,0,space,0,241,241,237,1,8.73556
,,,,,,,,,,,,,,,,,,5eea1be10e95520beb9fa654,2020-11-26_15h58.45.455,lexical_decision_task_MP_exp2,2020.2.5,Win32,60,z,1,1.154155,,,,,,,,1.154155,1,,,,,,346,NW,UN,33,kerift,SAUDIC,z,,,,,,0.165740741,-0.265740741,0,0,0,,0,242,242,405,1,
,,,,,,,,,,,,,,,,,,5eea1be10e95520beb9fa654,2020-11-26_15h58.45.455,lexical_decision_task_MP_exp2,2020.2.5,Win32,60,z,1,0.768695,,,,,,,,0.768695,1,,,,,,402,NW,UN,16,bruats,SYNTIC,z,,,,,,0.165740741,-0.265740741,0,0,0,,0,243,243,461,1,
,,,,,,,,,,,,,,,,,,5eea1be10e95520beb9fa654,2020-11-26_15h58.45.455,lexical_decision_task_MP_exp2,2020.2.5,Win32,60,z,1,0.60412,,,,,,,,0.60412,1,,,,,,478,NW,"ID",33,acrise,ACRISE,z,,,,,,0.165740741,-0.265740741,0,0,0,,0,244,244,297,1,
,,,,,,,,,,,,,,,,,,5eea1be10e95520beb9fa654,2020-11-26_15h58.45.455,lexical_decision_task_MP_exp2,2020.2.5,Win32,60,m,1,0.60072,,,,,,,,0.60072,1,,,,,,109,WORD,UN,33,polite,WONDER,m,,,,,,0.165740741,-0.265740741,0,0,0,,0,245,245,168,1,
,,,,,,,,,,,,,,,,,,5eea1be10e95520beb9fa654,2020-11-26_15h58.45.455,lexical_decision_task_MP_exp2,2020.2.5,Win32,60,m,1,0.65065,,,,,,,,0.65065,1,,,,,,228,WORD,"ID",33,master,MASTER,m,,,,,,0.165740741,-0.265740741,0,0,0,,0,246,246,47,1,
,,,,,,,,,,,,,,,,,,5eea1be10e95520beb9fa654,2020-11-26_15h58.45.455,lexical_decision_task_MP_exp2,2020.2.5,Win32,60,z,1,0.833145,,,,,,,,0.833145,1,,,,,,365,NW,UN,16,toshel,GUAIRT,z,,,,,,0.165740741,-0.265740741,0,0,0,,0,247,247,424,1,
,,,,,,,,,,,,,,,,,,5eea1be10e95520beb9fa654,2020-11-26_15h58.45.455,lexical_decision_task_MP_exp2,2020.2.5,Win32,60,z,1,0.606805,,,,,,,,0.606805,1,,,,,,327,NW,UN,33,broake,PLENAC,z,,,,,,0.165740741,-0.265740741,0,0,0,,0,248,248,386,1,
,,,,,,,,,,,,,,,,,,5eea1be10e95520beb9fa654,2020-11-26_15h58.45.455,lexical_decision_task_MP_exp2,2020.2.5,Win32,60,z,1,0.55141,,,,,,,,0.55141,1,,,,,,446,NW,"ID",33,runamo,RUNAMO,z,,,,,,0.165740741,-0.265740741,0,0,0,,0,249,249,265,1,
,,,,,,,,,,,,,,,,,,5eea1be10e95520beb9fa654,2020-11-26_15h58.45.455,lexical_decision_task_MP_exp2,2020.2.5,Win32,60,m,0,0.651475,,,,,,,,0.651475,0,,,,,,335,NW,UN,33,ghodus,DESION,z,,,,,,0.165740741,-0.265740741,0,0,0,,0,250,250,394,1,
,,,,,,,,,,,,,,,,,,5eea1be10e95520beb9fa654,2020-11-26_15h58.45.455,lexical_decision_task_MP_exp2,2020.2.5,Win32,60,z,1,0.617875,,,,,,,,0.617875,1,,,,,,347,NW,UN,33,dumple,KERIFT,z,,,,,,0.165740741,-0.265740741,0,0,0,,0,251,251,406,1,
,,,,,,,,,,,,,,,,,,5eea1be10e95520beb9fa654,2020-11-26_15h58.45.455,lexical_decision_task_MP_exp2,2020.2.5,Win32,60,m,1,0.632855,,,,,,,,0.632855,1,,,,,,71,WORD,UN,33,bright,GARDEN,m,,,,,,0.165740741,-0.265740741,0,0,0,,0,252,252,130,1,
,,,,,,,,,,,,,,,,,,5eea1be10e95520beb9fa654,2020-11-26_15h58.45.455,lexical_decision_task_MP_exp2,2020.2.5,Win32,60,z,1,0.65029,,,,,,,,0.65029,1,,,,,,453,NW,"ID",33,bolvis,BOLVIS,z,,,,,,0.165740741,-0.265740741,0,0,0,,0,253,253,272,1,
,,,,,,,,,,,,,,,,,,5eea1be10e95520beb9fa654,2020-11-26_15h58.45.455,lexical_decision_task_MP_exp2,2020.2.5,Win32,60,z,1,0.618365,,,,,,,,0.618365,1,,,,,,468,NW,"ID",33,wictor,WICTOR,z,,,,,,0.165740741,-0.265740741,0,0,0,,0,254,254,287,1,
,,,,,,,,,,,,,,,,,,5eea1be10e95520beb9fa654,2020-11-26_15h58.45.455,lexical_decision_task_MP_exp2,2020.2.5,Win32,60,m,1,0.636435,,,,,,,,0.636435,1,,,,,,22,WORD,"ID",16,jockey,JOCKEY,m,,,,,,0.165740741,-0.265740741,0,0,0,,0,255,255,81,1,
,,,,,,,,,,,,,,,,,,5eea1be10e95520beb9fa654,2020-11-26_15h58.45.455,lexical_decision_task_MP_exp2,2020.2.5,Win32,60,z,1,0.619055,,,,,,,,0.619055,1,,,,,,378,NW,UN,16,auting,SHRILE,z,,,,,,0.165740741,-0.265740741,0,0,0,,0,256,256,437,1,
,,,,,,,,,,,,,,,,,,5eea1be10e95520beb9fa654,2020-11-26_15h58.45.455,lexical_decision_task_MP_exp2,2020.2.5,Win32,60,m,1,0.56764,,,,,,,,0.56764,1,,,,,,57,WORD,"ID",16,change,CHANGE,m,,,,,,0.165740741,-0.265740741,0,0,0,,0,257,257,116,1,
,,,,,,,,,,,,,,,,,,5eea1be10e95520beb9fa654,2020-11-26_15h58.45.455,lexical_decision_task_MP_exp2,2020.2.5,Win32,60,z,0,0.657215,,,,,,,,0.657215,0,,,,,,59,WORD,"ID",16,splint,SPLINT,m,,,,,,0.165740741,-0.265740741,0,0,0,,0,258,258,118,1,
,,,,,,,,,,,,,,,,,,5eea1be10e95520beb9fa654,2020-11-26_15h58.45.455,lexical_decision_task_MP_exp2,2020.2.5,Win32,60,m,1,0.80128,,,,,,,,0.80128,1,,,,,,121,WORD,UN,16,linger,THRIVE,m,,,,,,0.165740741,-0.265740741,0,0,0,,0,259,259,180,1,
,,,,,,,,,,,,,,,,,,5eea1be10e95520beb9fa654,2020-11-26_15h58.45.455,lexical_decision_task_MP_exp2,2020.2.5,Win32,60,z,1,0.819575,,,,,,,,0.819575,1,,,,,,397,NW,UN,16,blunde,CAMBLE,z,,,,,,0.165740741,-0.265740741,0,0,0,,0,260,260,456,1,
,,,,,,,,,,,,,,,,,,5eea1be10e95520beb9fa654,2020-11-26_15h58.45.455,lexical_decision_task_MP_exp2,2020.2.5,Win32,60,m,1,0.56717,,,,,,,,0.56717,1,,,,,,17,WORD,"ID",16,charge,CHARGE,m,,,,,,0.165740741,-0.265740741,0,0,0,,0,261,261,76,1,
,,,,,,,,,,,,,,,,,,5eea1be10e95520beb9fa654,2020-11-26_15h58.45.455,lexical_decision_task_MP_exp2,2020.2.5,Win32,60,z,1,0.97887,,,,,,,,0.97887,1,,,,,,243,NW,"ID",16,musied,MUSIED,z,,,,,,0.165740741,-0.265740741,0,0,0,,0,262,262,302,1,
,,,,,,,,,,,,,,,,,,5eea1be10e95520beb9fa654,2020-11-26_15h58.45.455,lexical_decision_task_MP_exp2,2020.2.5,Win32,60,m,1,0.56733,,,,,,,,0.56733,1,,,,,,93,WORD,UN,33,travel,PUBLIC,m,,,,,,0.165740741,-0.265740741,0,0,0,,0,263,263,152,1,
,,,,,,,,,,,,,,,,,,5eea1be10e95520beb9fa654,2020-11-26_15h58.45.455,lexical_decision_task_MP_exp2,2020.2.5,Win32,60,z,1,0.738985,,,,,,,,0.738985,1,,,,,,332,NW,UN,33,catrie,VANGUE,z,,,,,,0.165740741,-0.265740741,0,0,0,,0,264,264,391,1,
,,,,,,,,,,,,,,,,,,5eea1be10e95520beb9fa654,2020-11-26_15h58.45.455,lexical_decision_task_MP_exp2,2020.2.5,Win32,60,m,1,0.633675,,,,,,,,0.633675,1,,,,,,42,WORD,"ID",16,chapel,CHAPEL,m,,,,,,0.165740741,-0.265740741,0,0,0,,0,265,265,101,1,
,,,,,,,,,,,,,,,,,,5eea1be10e95520beb9fa654,2020-11-26_15h58.45.455,lexical_decision_task_MP_exp2,2020.2.5,Win32,60,m,1,0.65154,,,,,,,,0.65154,1,,,,,,234,WORD,"ID",33,clumsy,CLUMSY,m,,,,,,0.165740741,-0.265740741,0,0,0,,0,266,266,53,1,
,,,,,,,,,,,,,,,,,,5eea1be10e95520beb9fa654,2020-11-26_15h58.45.455,lexical_decision_task_MP_exp2,2020.2.5,Win32,60,z,1,0.71641,,,,,,,,0.71641,1,,,,,,447,NW,"ID",33,gircue,GIRCUE,z,,,,,,0.165740741,-0.265740741,0,0,0,,0,267,267,266,1,
,,,,,,,,,,,,,,,,,,5eea1be10e95520beb9fa654,2020-11-26_15h58.45.455,lexical_decision_task_MP_exp2,2020.2.5,Win32,60,z,1,0.7173,,,,,,,,0.7173,1,,,,,,305,NW,UN,33,sounge,FORGLE,z,,,,,,0.165740741,-0.265740741,0,0,0,,0,268,268,364,1,
,,,,,,,,,,,,,,,,,,5eea1be10e95520beb9fa654,2020-11-26_15h58.45.455,lexical_decision_task_MP_exp2,2020.2.5,Win32,60,m,1,0.872595,,,,,,,,0.872595,1,,,,,,192,WORD,"ID",33,plague,PLAGUE,m,,,,,,0.165740741,-0.265740741,0,0,0,,0,269,269,11,1,
,,,,,,,,,,,,,,,,,,5eea1be10e95520beb9fa654,2020-11-26_15h58.45.455,lexical_decision_task_MP_exp2,2020.2.5,Win32,60,m,1,0.568405,,,,,,,,0.568405,1,,,,,,171,WORD,UN,16,patrol,DEPART,m,,,,,,0.165740741,-0.265740741,0,0,0,,0,270,270,230,1,
,,,,,,,,,,,,,,,,,,5eea1be10e95520beb9fa654,2020-11-26_15h58.45.455,lexical_decision_task_MP_exp2,2020.2.5,Win32,60,m,1,0.555785,,,,,,,,0.555785,1,,,,,,177,WORD,UN,16,inform,ADVENT,m,,,,,,0.165740741,-0.265740741,0,0,0,,0,271,271,236,1,
,,,,,,,,,,,,,,,,,,5eea1be10e95520beb9fa654,2020-11-26_15h58.45.455,lexical_decision_task_MP_exp2,2020.2.5,Win32,60,z,1,0.7348,,,,,,,,0.7348,1,,,,,,304,NW,UN,33,forgle,CLUDIE,z,,,,,,0.165740741,-0.265740741,0,0,0,,0,272,272,363,1,
,,,,,,,,,,,,,,,,,,5eea1be10e95520beb9fa654,2020-11-26_15h58.45.455,lexical_decision_task_MP_exp2,2020.2.5,Win32,60,z,1,0.7018,,,,,,,,0.7018,1,,,,,,325,NW,UN,33,iguade,THRUSE,z,,,,,,0.165740741,-0.265740741,0,0,0,,0,273,273,384,1,
,,,,,,,,,,,,,,,,,,5eea1be10e95520beb9fa654,2020-11-26_15h58.45.455,lexical_decision_task_MP_exp2,2020.2.5,Win32,60,m,1,0.64911,,,,,,,,0.64911,1,,,,,,48,WORD,"ID",16,walnut,WALNUT,m,,,,,,0.165740741,-0.265740741,0,0,0,,0,274,274,107,1,
,,,,,,,,,,,,,,,,,,5eea1be10e95520beb9fa654,2020-11-26_15h58.45.455,lexical_decision_task_MP_exp2,2020.2.5,Win32,60,z,1,0.701295,,,,,,,,0.701295,1,,,,,,270,NW,"ID",16,wrimsy,WRIMSY,z,,,,,,0.165740741,-0.265740741,0,0,0,,0,275,275,329,1,
,,,,,,,,,,,,,,,,,,5eea1be10e95520beb9fa654,2020-11-26_15h58.45.455,lexical_decision_task_MP_exp2,2020.2.5,Win32,60,m,1,0.783255,,,,,,,,0.783255,1,,,,,,107,WORD,UN,33,reckon,SLOGAN,m,,,,,,0.165740741,-0.265740741,0,0,0,,0,276,276,166,1,
,,,,,,,,,,,,,,,,,,5eea1be10e95520beb9fa654,2020-11-26_15h58.45.455,lexical_decision_task_MP_exp2,2020.2.5,Win32,60,z,1,0.800705,,,,,,,,0.800705,1,,,,,,359,NW,UN,33,desory,FONVER,z,,,,,,0.165740741,-0.265740741,0,0,0,,0,277,277,418,1,
,,,,,,,,,,,,,,,,,,5eea1be10e95520beb9fa654,2020-11-26_15h58.45.455,lexical_decision_task_MP_exp2,2020.2.5,Win32,60,z,1,0.620515,,,,,,,,0.620515,1,,,,,,452,NW,"ID",33,surden,SURDEN,z,,,,,,0.165740741,-0.265740741,0,0,0,,0,278,278,271,1,
,,,,,,,,,,,,,,,,,,5eea1be10e95520beb9fa654,2020-11-26_15h58.45.455,lexical_decision_task_MP_exp2,2020.2.5,Win32,60,z,1,0.587525,,,,,,,,0.587525,1,,,,,,263,NW,"ID",16,dolica,DOLICA,z,,,,,,0.165740741,-0.265740741,0,0,0,,0,279,279,322,1,
,,,,,,,,,,,,,,,,,,5eea1be10e95520beb9fa654,2020-11-26_15h58.45.455,lexical_decision_task_MP_exp2,2020.2.5,Win32,60,z,1,0.614105,,,,,,,,0.614105,1,,,,,,401,NW,UN,16,syntic,MUSTIL,z,,,,,,0.165740741,-0.265740741,0,0,0,,0,280,280,460,1,
,,,,,,,,,,,,,,,,,,5eea1be10e95520beb9fa654,2020-11-26_15h58.45.455,lexical_decision_task_MP_exp2,2020.2.5,Win32,60,m,1,0.733945,,,,,,,,0.733945,1,,,,,,9,WORD,"ID",16,hustle,HUSTLE,m,,,,,,0.165740741,-0.265740741,0,0,0,,0,281,281,68,1,
,,,,,,,,,,,,,,,,,,5eea1be10e95520beb9fa654,2020-11-26_15h58.45.455,lexical_decision_task_MP_exp2,2020.2.5,Win32,60,z,1,0.699465,,,,,,,,0.699465,1,,,,,,353,NW,UN,33,virlex,CLUREY,z,,,,,,0.165740741,-0.265740741,0,0,0,,0,282,282,412,1,
,,,,,,,,,,,,,,,,,,5eea1be10e95520beb9fa654,2020-11-26_15h58.45.455,lexical_decision_task_MP_exp2,2020.2.5,Win32,60,z,1,0.61746,,,,,,,,0.61746,1,,,,,,247,NW,"ID",16,blarge,BLARGE,z,,,,,,0.165740741,-0.265740741,0,0,0,,0,283,283,306,1,
,,,,,,,,,,,,,,,,,,5eea1be10e95520beb9fa654,2020-11-26_15h58.45.455,lexical_decision_task_MP_exp2,2020.2.5,Win32,60,z,1,0.586045,,,,,,,,0.586045,1,,,,,,326,NW,UN,33,plenac,IGUADE,z,,,,,,0.165740741,-0.265740741,0,0,0,,0,284,284,385,1,
,,,,,,,,,,,,,,,,,,5eea1be10e95520beb9fa654,2020-11-26_15h58.45.455,lexical_decision_task_MP_exp2,2020.2.5,Win32,60,m,1,0.62891,,,,,,,,0.62891,1,,,,,,97,WORD,UN,33,belong,CLIENT,m,,,,,,0.165740741,-0.265740741,0,0,0,,0,285,285,156,1,
,,,,,,,,,,,,,,,,,,5eea1be10e95520beb9fa654,2020-11-26_15h58.45.455,lexical_decision_task_MP_exp2,2020.2.5,Win32,60,z,1,0.668335,,,,,,,,0.668335,1,,,,,,302,NW,UN,33,fiream,MILUER,z,,,,,,0.165740741,-0.265740741,0,0,0,,0,286,286,361,1,
,,,,,,,,,,,,,,,,,,5eea1be10e95520beb9fa654,2020-11-26_15h58.45.455,lexical_decision_task_MP_exp2,2020.2.5,Win32,60,z,1,0.61916,,,,,,,,0.61916,1,,,,,,364,NW,UN,16,guairt,IMPOTE,z,,,,,,0.165740741,-0.265740741,0,0,0,,0,287,287,423,1,
,,,,,,,,,,,,,,,,,,5eea1be10e95520beb9fa654,2020-11-26_15h58.45.455,lexical_decision_task_MP_exp2,2020.2.5,Win32,60,m,1,0.65091,,,,,,,,0.65091,1,,,,,,64,WORD,UN,33,symbol,THRONE,m,,,,,,0.165740741,-0.265740741,0,0,0,,0,288,288,123,1,
,,,,,,,,,,,,,,,,,,5eea1be10e95520beb9fa654,2020-11-26_15h58.45.455,lexical_decision_task_MP_exp2,2020.2.5,Win32,60,m,1,0.617115,,,,,,,,0.617115,1,,,,,,230,WORD,"ID",33,fringe,FRINGE,m,,,,,,0.165740741,-0.265740741,0,0,0,,0,289,289,49,1,
,,,,,,,,,,,,,,,,,,5eea1be10e95520beb9fa654,2020-11-26_15h58.45.455,lexical_decision_task_MP_exp2,2020.2.5,Win32,60,z,1,0.63666,,,,,,,,0.63666,1,,,,,,404,NW,UN,16,flumni,CLUIRM,z,,,,,,0.165740741,-0.265740741,0,0,0,,0,290,290,463,1,
,,,,,,,,,,,,,,,,,,5eea1be10e95520beb9fa654,2020-11-26_15h58.45.455,lexical_decision_task_MP_exp2,2020.2.5,Win32,60,z,1,0.65023,,,,,,,,0.65023,1,,,,,,436,NW,"ID",33,frutan,FRUTAN,z,,,,,,0.165740741,-0.265740741,0,0,0,,0,291,291,255,1,
,,,,,,,,,,,,,,,,,,5eea1be10e95520beb9fa654,2020-11-26_15h58.45.455,lexical_decision_task_MP_exp2,2020.2.5,Win32,60,m,1,0.651625,,,,,,,,0.651625,1,,,,,,120,WORD,UN,33,ponder,STRAIN,m,,,,,,0.165740741,-0.265740741,0,0,0,,0,292,292,179,1,
,,,,,,,,,,,,,,,,,,5eea1be10e95520beb9fa654,2020-11-26_15h58.45.455,lexical_decision_task_MP_exp2,2020.2.5,Win32,60,z,1,0.617935,,,,,,,,0.617935,1,,,,,,328,NW,UN,33,yarike,BROAKE,z,,,,,,0.165740741,-0.265740741,0,0,0,,0,293,293,387,1,
,,,,,,,,,,,,,,,,,,5eea1be10e95520beb9fa654,2020-11-26_15h58.45.455,lexical_decision_task_MP_exp2,2020.2.5,Win32,60,m,1,0.56814,,,,,,,,0.56814,1,,,,,,113,WORD,UN,33,placid,CHORUS,m,,,,,,0.165740741,-0.265740741,0,0,0,,0,294,294,172,1,
,,,,,,,,,,,,,,,,,,5eea1be10e95520beb9fa654,2020-11-26_15h58.45.455,lexical_decision_task_MP_exp2,2020.2.5,Win32,60,m,1,0.583615,,,,,,,,0.583615,1,,,,,,170,WORD,UN,16,dragon,POUNCE,m,,,,,,0.165740741,-0.265740741,0,0,0,,0,295,295,229,1,
,,,,,,,,,,,,,,,,,,5eea1be10e95520beb9fa654,2020-11-26_15h58.45.455,lexical_decision_task_MP_exp2,2020.2.5,Win32,60,z,1,0.650415,,,,,,,,0.650415,1,,,,,,284,NW,"ID",16,shaple,SHAPLE,z,,,,,,0.165740741,-0.265740741,0,0,0,,0,296,296,343,1,
,,,,,,,,,,,,,,,,,,5eea1be10e95520beb9fa654,2020-11-26_15h58.45.455,lexical_decision_task_MP_exp2,2020.2.5,Win32,60,z,1,0.617955,,,,,,,,0.617955,1,,,,,,395,NW,UN,16,flengy,COLURY,z,,,,,,0.165740741,-0.265740741,0,0,0,,0,297,297,454,1,
,,,,,,,,,,,,,,,,,,5eea1be10e95520beb9fa654,2020-11-26_15h58.45.455,lexical_decision_task_MP_exp2,2020.2.5,Win32,60,m,1,0.58053,,,,,,,,0.58053,1,,,,,,46,WORD,"ID",16,single,SINGLE,m,,,,,,0.165740741,-0.265740741,0,0,0,,0,298,298,105,1,
,,,,,,,,,,,,,,,,,,5eea1be10e95520beb9fa654,2020-11-26_15h58.45.455,lexical_decision_task_MP_exp2,2020.2.5,Win32,60,z,1,0.70249,,,,,,,,0.70249,1,,,,,,298,NW,"ID",16,piergy,PIERGY,z,,,,,,0.165740741,-0.265740741,0,0,0,,0,299,299,357,1,
,,,,,,,,,,,,,,,,,,5eea1be10e95520beb9fa654,2020-11-26_15h58.45.455,lexical_decision_task_MP_exp2,2020.2.5,Win32,60,m,1,0.55059,,,,,,,,0.55059,1,,,,,,44,WORD,"ID",16,danger,DANGER,m,,,,,,0.165740741,-0.265740741,0,0,0,,0,300,300,103,1,
,,,,,,,,,,,,,,,,,,5eea1be10e95520beb9fa654,2020-11-26_15h58.45.455,lexical_decision_task_MP_exp2,2020.2.5,Win32,60,z,1,0.58702,,,,,,,,0.58702,1,,,,,,366,NW,UN,16,slique,TOSHEL,z,,,,,,0.165740741,-0.265740741,0,0,0,,0,301,301,425,1,
,,,,,,,,,,,,,,,,,,5eea1be10e95520beb9fa654,2020-11-26_15h58.45.455,lexical_decision_task_MP_exp2,2020.2.5,Win32,60,m,0,0.69114,,,,,,,,0.69114,0,,,,,,303,NW,UN,33,cludie,FIREAM,z,,,,,,0.165740741,-0.265740741,0,0,0,,0,302,302,362,1,
,,,,,,,,,,,,,,,,,,5eea1be10e95520beb9fa654,2020-11-26_15h58.45.455,lexical_decision_task_MP_exp2,2020.2.5,Win32,60,m,1,0.673635,,,,,,,,0.673635,1,,,,,,4,WORD,"ID",16,trench,TRENCH,m,,,,,,0.165740741,-0.265740741,0,0,0,,0,303,303,63,1,
,,,,,,,,,,,,,,,,,,5eea1be10e95520beb9fa654,2020-11-26_15h58.45.455,lexical_decision_task_MP_exp2,2020.2.5,Win32,60,z,1,0.85053,,,,,,,,0.85053,1,,,,,,260,NW,"ID",16,unject,UNJECT,z,,,,,,0.165740741,-0.265740741,0,0,0,,0,304,304,319,1,
,,,,,,,,,,,,,,,,,,5eea1be10e95520beb9fa654,2020-11-26_15h58.45.455,lexical_decision_task_MP_exp2,2020.2.5,Win32,60,m,1,0.62296,,,,,,,,0.62296,1,,,,,,224,WORD,"ID",33,period,PERIOD,m,,,,,,0.165740741,-0.265740741,0,0,0,,0,305,305,43,1,
,,,,,,,,,,,,,,,,,,5eea1be10e95520beb9fa654,2020-11-26_15h58.45.455,lexical_decision_task_MP_exp2,2020.2.5,Win32,60,z,1,0.72019,,,,,,,,0.72019,1,,,,,,308,NW,UN,33,amiloy,PSETCH,z,,,,,,0.165740741,-0.265740741,0,0,0,,0,306,306,367,1,
,,,,,,,,,,,,,,,,,,5eea1be10e95520beb9fa654,2020-11-26_15h58.45.455,lexical_decision_task_MP_exp2,2020.2.5,Win32,60,m,1,0.80534,,,,,,,,0.80534,1,,,,,,122,WORD,UN,16,strike,LINGER,m,,,,,,0.165740741,-0.265740741,0,0,0,,0,307,307,181,1,
,,,,,,,,,,,,,,,,,,5eea1be10e95520beb9fa654,2020-11-26_15h58.45.455,lexical_decision_task_MP_exp2,2020.2.5,Win32,60,z,1,0.73583,,,,,,,,0.73583,1,,,,,,252,NW,"ID",16,stapod,STAPOD,z,,,,,,0.165740741,-0.265740741,0,0,0,,0,308,308,311,1,
,,,,,,,,,,,,,,,,,,5eea1be10e95520beb9fa654,2020-11-26_15h58.45.455,lexical_decision_task_MP_exp2,2020.2.5,Win32,60,m,1,0.684315,,,,,,,,0.684315,1,,,,,,88,WORD,UN,33,permit,HUNGER,m,,,,,,0.165740741,-0.265740741,0,0,0,,0,309,309,147,1,
,,,,,,,,,,,,,,,,,,5eea1be10e95520beb9fa654,2020-11-26_15h58.45.455,lexical_decision_task_MP_exp2,2020.2.5,Win32,60,z,1,0.59624,,,,,,,,0.59624,1,,,,,,360,NW,UN,33,fainch,DESORY,z,,,,,,0.165740741,-0.265740741,0,0,0,,0,310,310,419,1,
,,,,,,,,,,,,,,,,,,5eea1be10e95520beb9fa654,2020-11-26_15h58.45.455,lexical_decision_task_MP_exp2,2020.2.5,Win32,60,z,1,0.716835,,,,,,,,0.716835,1,,,,,,295,NW,"ID",16,gleath,GLEATH,z,,,,,,0.165740741,-0.265740741,0,0,0,,0,311,311,354,1,
,,,,,,,,,,,,,,,,,,5eea1be10e95520beb9fa654,2020-11-26_15h58.45.455,lexical_decision_task_MP_exp2,2020.2.5,Win32,60,z,1,0.633905,,,,,,,,0.633905,1,,,,,,345,NW,UN,33,saudic,ABSEND,z,,,,,,0.165740741,-0.265740741,0,0,0,,0,312,312,404,1,
,,,,,,,,,,,,,,,,,,5eea1be10e95520beb9fa654,2020-11-26_15h58.45.455,lexical_decision_task_MP_exp2,2020.2.5,Win32,60,m,1,0.64939,,,,,,,,0.64939,1,,,,,,86,WORD,UN,33,filter,RODENT,m,,,,,,0.165740741,-0.265740741,0,0,0,,0,313,313,145,1,
,,,,,,,,,,,,,,,,,,5eea1be10e95520beb9fa654,2020-11-26_15h58.45.455,lexical_decision_task_MP_exp2,2020.2.5,Win32,60,m,1,0.567585,,,,,,,,0.567585,1,,,,,,28,WORD,"ID",16,comedy,COMEDY,m,,,,,,0.165740741,-0.265740741,0,0,0,,0,314,314,87,1,
,,,,,,,,,,,,,,,,,,5eea1be10e95520beb9fa654,2020-11-26_15h58.45.455,lexical_decision_task_MP_exp2,2020.2.5,Win32,60,m,1,0.60084,,,,,,,,0.60084,1,,,,,,213,WORD,"ID",33,squeal,SQUEAL,m,,,,,,0.165740741,-0.265740741,0,0,0,,0,315,315,32,1,
,,,,,,,,,,,,,,,,,,5eea1be10e95520beb9fa654,2020-11-26_15h58.45.455,lexical_decision_task_MP_exp2,2020.2.5,Win32,60,z,1,0.73481,,,,,,,,0.73481,1,,,,,,267,NW,"ID",16,pasink,PASINK,z,,,,,,0.165740741,-0.265740741,0,0,0,,0,316,316,326,1,
,,,,,,,,,,,,,,,,,,5eea1be10e95520beb9fa654,2020-11-26_15h58.45.455,lexical_decision_task_MP_exp2,2020.2.5,Win32,60,m,1,0.600515,,,,,,,,0.600515,1,,,,,,238,WORD,"ID",33,flower,FLOWER,m,,,,,,0.165740741,-0.265740741,0,0,0,,0,317,317,57,1,
,,,,,,,,,,,,,,,,,,5eea1be10e95520beb9fa654,2020-11-26_15h58.45.455,lexical_decision_task_MP_exp2,2020.2.5,Win32,60,m,1,0.66733,,,,,,,,0.66733,1,,,,,,96,WORD,UN,33,client,IGNORE,m,,,,,,0.165740741,-0.265740741,0,0,0,,0,318,318,155,1,
,,,,,,,,,,,,,,,,,,5eea1be10e95520beb9fa654,2020-11-26_15h58.45.455,lexical_decision_task_MP_exp2,2020.2.5,Win32,60,z,1,0.66971,,,,,,,,0.66971,1,,,,,,362,NW,UN,16,breali,TIREAU,z,,,,,,0.165740741,-0.265740741,0,0,0,,0,319,319,421,1,
,,,,,,,,,,,,,,,,,,5eea1be10e95520beb9fa654,2020-11-26_15h58.45.455,lexical_decision_task_MP_exp2,2020.2.5,Win32,60,z,1,0.750595,,,,,,,,0.750595,1,,,,,,299,NW,"ID",16,sturch,STURCH,z,,,,,,0.165740741,-0.265740741,0,0,0,,0,320,320,358,1,
,,,,,,,,,,,,,,,,,,5eea1be10e95520beb9fa654,2020-11-26_15h58.45.455,lexical_decision_task_MP_exp2,2020.2.5,Win32,60,z,1,0.61838,,,,,,,,0.61838,1,,,,,,376,NW,UN,16,veigma,IGUARE,z,,,,,,0.165740741,-0.265740741,0,0,0,,0,321,321,435,1,
,,,,,,,,,,,,,,,,,,5eea1be10e95520beb9fa654,2020-11-26_15h58.45.455,lexical_decision_task_MP_exp2,2020.2.5,Win32,60,z,1,0.73455,,,,,,,,0.73455,1,,,,,,257,NW,"ID",16,veniod,VENIOD,z,,,,,,0.165740741,-0.265740741,0,0,0,,0,322,322,316,1,
,,,,,,,,,,,,,,,,,,5eea1be10e95520beb9fa654,2020-11-26_15h58.45.455,lexical_decision_task_MP_exp2,2020.2.5,Win32,60,z,1,0.595485,,,,,,,,0.595485,1,,,,,,369,NW,UN,16,sleact,WRONCH,z,,,,,,0.165740741,-0.265740741,0,0,0,,0,323,323,428,1,
,,,,,,,,,,,,,,,,,,5eea1be10e95520beb9fa654,2020-11-26_15h58.45.455,lexical_decision_task_MP_exp2,2020.2.5,Win32,60,m,1,0.5826,,,,,,,,0.5826,1,,,,,,98,WORD,UN,33,fluent,BELONG,m,,,,,,0.165740741,-0.265740741,0,0,0,,0,324,324,157,1,
,,,,,,,,,,,,,,,,,,5eea1be10e95520beb9fa654,2020-11-26_15h58.45.455,lexical_decision_task_MP_exp2,2020.2.5,Win32,60,m,1,0.5017,,,,,,,,0.5017,1,,,,,,208,WORD,"ID",33,hockey,HOCKEY,m,,,,,,0.165740741,-0.265740741,0,0,0,,0,325,325,27,1,
,,,,,,,,,,,,,,,,,,5eea1be10e95520beb9fa654,2020-11-26_15h58.45.455,lexical_decision_task_MP_exp2,2020.2.5,Win32,60,m,1,0.554825,,,,,,,,0.554825,1,,,,,,5,WORD,"ID",16,plunge,PLUNGE,m,,,,,,0.165740741,-0.265740741,0,0,0,,0,326,326,64,1,
,,,,,,,,,,,,,,,,,,5eea1be10e95520beb9fa654,2020-11-26_15h58.45.455,lexical_decision_task_MP_exp2,2020.2.5,Win32,60,z,1,0.71689,,,,,,,,0.71689,1,,,,,,246,NW,"ID",16,piaton,PIATON,z,,,,,,0.165740741,-0.265740741,0,0,0,,0,327,327,305,1,
,,,,,,,,,,,,,,,,,,5eea1be10e95520beb9fa654,2020-11-26_15h58.45.455,lexical_decision_task_MP_exp2,2020.2.5,Win32,60,z,1,0.68603,,,,,,,,0.68603,1,,,,,,372,NW,UN,16,bigent,RAMILY,z,,,,,,0.165740741,-0.265740741,0,0,0,,0,328,328,431,1,
,,,,,,,,,,,,,,,,,,5eea1be10e95520beb9fa654,2020-11-26_15h58.45.455,lexical_decision_task_MP_exp2,2020.2.5,Win32,60,m,1,0.53133,,,,,,,,0.53133,1,,,,,,195,WORD,"ID",33,resign,RESIGN,m,,,,,,0.165740741,-0.265740741,0,0,0,,0,329,329,14,1,
,,,,,,,,,,,,,,,,,,5eea1be10e95520beb9fa654,2020-11-26_15h58.45.455,lexical_decision_task_MP_exp2,2020.2.5,Win32,60,m,1,0.55181,,,,,,,,0.55181,1,,,,,,52,WORD,"ID",16,impose,IMPOSE,m,,,,,,0.165740741,-0.265740741,0,0,0,,0,330,330,111,1,
,,,,,,,,,,,,,,,,,,5eea1be10e95520beb9fa654,2020-11-26_15h58.45.455,lexical_decision_task_MP_exp2,2020.2.5,Win32,60,m,1,0.60352,,,,,,,,0.60352,1,,,,,,31,WORD,"ID",16,weapon,WEAPON,m,,,,,,0.165740741,-0.265740741,0,0,0,,0,331,331,90,1,
,,,,,,,,,,,,,,,,,,5eea1be10e95520beb9fa654,2020-11-26_15h58.45.455,lexical_decision_task_MP_exp2,2020.2.5,Win32,60,m,1,0.567285,,,,,,,,0.567285,1,,,,,,78,WORD,UN,33,theory,COLUMN,m,,,,,,0.165740741,-0.265740741,0,0,0,,0,332,332,137,1,
,,,,,,,,,,,,,,,,,,5eea1be10e95520beb9fa654,2020-11-26_15h58.45.455,lexical_decision_task_MP_exp2,2020.2.5,Win32,60,m,1,0.58308,,,,,,,,0.58308,1,,,,,,124,WORD,UN,16,nickel,BLOUSE,m,,,,,,0.165740741,-0.265740741,0,0,0,,0,333,333,183,1,
,,,,,,,,,,,,,,,,,,5eea1be10e95520beb9fa654,2020-11-26_15h58.45.455,lexical_decision_task_MP_exp2,2020.2.5,Win32,60,m,1,0.66734,,,,,,,,0.66734,1,,,,,,155,WORD,UN,16,cradle,LIZARD,m,,,,,,0.165740741,-0.265740741,0,0,0,,0,334,334,214,1,
,,,,,,,,,,,,,,,,,,5eea1be10e95520beb9fa654,2020-11-26_15h58.45.455,lexical_decision_task_MP_exp2,2020.2.5,Win32,60,z,1,0.921415,,,,,,,,0.921415,1,,,,,,314,NW,UN,33,laston,SPRINE,z,,,,,,0.165740741,-0.265740741,0,0,0,,0,335,335,373,1,
,,,,,,,,,,,,,,,,,,5eea1be10e95520beb9fa654,2020-11-26_15h58.45.455,lexical_decision_task_MP_exp2,2020.2.5,Win32,60,m,1,0.766985,,,,,,,,0.766985,1,,,,,,125,WORD,UN,16,enough,NICKEL,m,,,,,,0.165740741,-0.265740741,0,0,0,,0,336,336,184,1,
,,,,,,,,,,,,,,,,,,5eea1be10e95520beb9fa654,2020-11-26_15h58.45.455,lexical_decision_task_MP_exp2,2020.2.5,Win32,60,m,1,0.65063,,,,,,,,0.65063,1,,,,,,3,WORD,"ID",16,knight,KNIGHT,m,,,,,,0.165740741,-0.265740741,0,0,0,,0,337,337,62,1,
,,,,,,,,,,,,,,,,,,5eea1be10e95520beb9fa654,2020-11-26_15h58.45.455,lexical_decision_task_MP_exp2,2020.2.5,Win32,60,m,1,0.58514,,,,,,,,0.58514,1,,,,,,29,WORD,"ID",16,sketch,SKETCH,m,,,,,,0.165740741,-0.265740741,0,0,0,,0,338,338,88,1,
,,,,,,,,,,,,,,,,,,5eea1be10e95520beb9fa654,2020-11-26_15h58.45.455,lexical_decision_task_MP_exp2,2020.2.5,Win32,60,z,1,0.70133,,,,,,,,0.70133,1,,,,,,459,NW,"ID",33,bafent,BAFENT,z,,,,,,0.165740741,-0.265740741,0,0,0,,0,339,339,278,1,
,,,,,,,,,,,,,,,,,,5eea1be10e95520beb9fa654,2020-11-26_15h58.45.455,lexical_decision_task_MP_exp2,2020.2.5,Win32,60,z,1,0.73388,,,,,,,,0.73388,1,,,,,,387,NW,UN,16,cragin,GRONCE,z,,,,,,0.165740741,-0.265740741,0,0,0,,0,340,340,446,1,
,,,,,,,,,,,,,,,,,,5eea1be10e95520beb9fa654,2020-11-26_15h58.45.455,lexical_decision_task_MP_exp2,2020.2.5,Win32,60,z,1,0.701395,,,,,,,,0.701395,1,,,,,,307,NW,UN,33,psetch,KIRAFE,z,,,,,,0.165740741,-0.265740741,0,0,0,,0,341,341,366,1,
,,,,,,,,,,,,,,,,,,5eea1be10e95520beb9fa654,2020-11-26_15h58.45.455,lexical_decision_task_MP_exp2,2020.2.5,Win32,60,z,1,0.634255,,,,,,,,0.634255,1,,,,,,259,NW,"ID",16,soudal,SOUDAL,z,,,,,,0.165740741,-0.265740741,0,0,0,,0,342,342,318,1,
,,,,,,,,,,,,,,,,,,5eea1be10e95520beb9fa654,2020-11-26_15h58.45.455,lexical_decision_task_MP_exp2,2020.2.5,Win32,60,z,1,0.604415,,,,,,,,0.604415,1,,,,,,430,NW,"ID",33,caroey,CAROEY,z,,,,,,0.165740741,-0.265740741,0,0,0,,0,343,343,249,1,
,,,,,,,,,,,,,,,,,,5eea1be10e95520beb9fa654,2020-11-26_15h58.45.455,lexical_decision_task_MP_exp2,2020.2.5,Win32,60,m,1,0.605295,,,,,,,,0.605295,1,,,,,,61,WORD,UN,33,region,PONDER,m,,,,,,0.165740741,-0.265740741,0,0,0,,0,344,344,120,1,
,,,,,,,,,,,,,,,,,,5eea1be10e95520beb9fa654,2020-11-26_15h58.45.455,lexical_decision_task_MP_exp2,2020.2.5,Win32,60,m,1,0.53372,,,,,,,,0.53372,1,,,,,,157,WORD,UN,16,island,DRAGON,m,,,,,,0.165740741,-0.265740741,0,0,0,,0,345,345,216,1,
,,,,,,,,,,,,,,,,,,5eea1be10e95520beb9fa654,2020-11-26_15h58.45.455,lexical_decision_task_MP_exp2,2020.2.5,Win32,60,m,1,0.58421,,,,,,,,0.58421,1,,,,,,226,WORD,"ID",33,casino,CASINO,m,,,,,,0.165740741,-0.265740741,0,0,0,,0,346,346,45,1,
,,,,,,,,,,,,,,,,,,5eea1be10e95520beb9fa654,2020-11-26_15h58.45.455,lexical_decision_task_MP_exp2,2020.2.5,Win32,60,m,1,0.552235,,,,,,,,0.552235,1,,,,,,231,WORD,"ID",33,export,EXPORT,m,,,,,,0.165740741,-0.265740741,0,0,0,,0,347,347,50,1,
,,,,,,,,,,,,,,,,,,5eea1be10e95520beb9fa654,2020-11-26_15h58.45.455,lexical_decision_task_MP_exp2,2020.2.5,Win32,60,m,1,0.618695,,,,,,,,0.618695,1,,,,,,8,WORD,"ID",16,abrupt,ABRUPT,m,,,,,,0.165740741,-0.265740741,0,0,0,,0,348,348,67,1,
,,,,,,,,,,,,,,,,,,5eea1be10e95520beb9fa654,2020-11-26_15h58.45.455,lexical_decision_task_MP_exp2,2020.2.5,Win32,60,m,1,0.603185,,,,,,,,0.603185,1,,,,,,50,WORD,"ID",16,snatch,SNATCH,m,,,,,,0.165740741,-0.265740741,0,0,0,,0,349,349,109,1,
,,,,,,,,,,,,,,,,,,5eea1be10e95520beb9fa654,2020-11-26_15h58.45.455,lexical_decision_task_MP_exp2,2020.2.5,Win32,60,m,1,0.56817,,,,,,,,0.56817,1,,,,,,174,WORD,UN,16,fabric,TURKEY,m,,,,,,0.165740741,-0.265740741,0,0,0,,0,350,350,233,1,
,,,,,,,,,,,,,,,,,,5eea1be10e95520beb9fa654,2020-11-26_15h58.45.455,lexical_decision_task_MP_exp2,2020.2.5,Win32,60,m,1,0.56609,,,,,,,,0.56609,1,,,,,,76,WORD,UN,33,racket,EXOTIC,m,,,,,,0.165740741,-0.265740741,0,0,0,,0,351,351,135,1,
,,,,,,,,,,,,,,,,,,5eea1be10e95520beb9fa654,2020-11-26_15h58.45.455,lexical_decision_task_MP_exp2,2020.2.5,Win32,60,m,1,0.53873,,,,,,,,0.53873,1,,,,,,2,WORD,"ID",16,bridge,BRIDGE,m,,,,,,0.165740741,-0.265740741,0,0,0,,0,352,352,61,1,
,,,,,,,,,,,,,,,,,,5eea1be10e95520beb9fa654,2020-11-26_15h58.45.455,lexical_decision_task_MP_exp2,2020.2.5,Win32,60,z,1,0.73479,,,,,,,,0.73479,1,,,,,,324,NW,UN,33,thruse,STEIKH,z,,,,,,0.165740741,-0.265740741,0,0,0,,0,353,353,383,1,
,,,,,,,,,,,,,,,,,,5eea1be10e95520beb9fa654,2020-11-26_15h58.45.455,lexical_decision_task_MP_exp2,2020.2.5,Win32,60,m,1,0.58757,,,,,,,,0.58757,1,,,,,,19,WORD,"ID",16,patron,PATRON,m,,,,,,0.165740741,-0.265740741,0,0,0,,0,354,354,78,1,
,,,,,,,,,,,,,,,,,,5eea1be10e95520beb9fa654,2020-11-26_15h58.45.455,lexical_decision_task_MP_exp2,2020.2.5,Win32,60,m,1,0.638295,,,,,,,,0.638295,1,,,,,,237,WORD,"ID",33,poster,POSTER,m,,,,,,0.165740741,-0.265740741,0,0,0,,0,355,355,56,1,
,,,,,,,,,,,,,,,,,,5eea1be10e95520beb9fa654,2020-11-26_15h58.45.455,lexical_decision_task_MP_exp2,2020.2.5,Win32,60,m,1,0.622215,,,,,,,,0.622215,1,,,,,,102,WORD,UN,33,bounce,DIRECT,m,,,,,,0.165740741,-0.265740741,0,0,0,,0,356,356,161,1,
,,,,,,,,,,,,,,,,,,5eea1be10e95520beb9fa654,2020-11-26_15h58.45.455,lexical_decision_task_MP_exp2,2020.2.5,Win32,60,z,1,0.78424,,,,,,,,0.78424,1,,,,,,363,NW,UN,16,impote,BREALI,z,,,,,,0.165740741,-0.265740741,0,0,0,,0,357,357,422,1,
,,,,,,,,,,,,,,,,,,5eea1be10e95520beb9fa654,2020-11-26_15h58.45.455,lexical_decision_task_MP_exp2,2020.2.5,Win32,60,m,1,0.60139,,,,,,,,0.60139,1,,,,,,210,WORD,"ID",33,monkey,MONKEY,m,,,,,,0.165740741,-0.265740741,0,0,0,,0,358,358,29,1,
,,,,,,,,,,,,,,,,,,5eea1be10e95520beb9fa654,2020-11-26_15h58.45.455,lexical_decision_task_MP_exp2,2020.2.5,Win32,60,z,1,0.717815,,,,,,,,0.717815,1,,,,,,392,NW,UN,16,ganous,ROUNCY,z,,,,,,0.165740741,-0.265740741,0,0,0,,0,359,359,451,1,
,,,,,,,,,,,,,,,,,,5eea1be10e95520beb9fa654,2020-11-26_15h58.45.455,lexical_decision_task_MP_exp2,2020.2.5,Win32,60,m,1,0.533725,,,,,,,,0.533725,1,,,,,,128,WORD,UN,16,marvel,SENIOR,m,,,,,,0.165740741,-0.265740741,0,0,0,,0,360,360,187,1,
,,,,,,,,,,,,,,,,,,5eea1be10e95520beb9fa654,2020-11-26_15h58.45.455,lexical_decision_task_MP_exp2,2020.2.5,Win32,60,m,1,0.56615,,,,,,,,0.56615,1,,,,,,163,WORD,UN,16,market,STRING,m,,,,,,0.165740741,-0.265740741,0,0,0,,0,361,361,222,1,
,,,,,,,,,,,,,,,,,,5eea1be10e95520beb9fa654,2020-11-26_15h58.45.455,lexical_decision_task_MP_exp2,2020.2.5,Win32,60,z,1,0.651875,,,,,,,,0.651875,1,,,,,,473,NW,"ID",33,crible,CRIBLE,z,,,,,,0.165740741,-0.265740741,0,0,0,space,0,362,362,292,1,5.98306
,,,,,,,,,,,,,,,,,,5eea1be10e95520beb9fa654,2020-11-26_15h58.45.455,lexical_decision_task_MP_exp2,2020.2.5,Win32,60,z,1,1.19179,,,,,,,,1.19179,1,,,,,,331,NW,UN,33,vangue,GILFEW,z,,,,,,0.165740741,-0.265740741,0,0,0,,0,363,363,390,1,
,,,,,,,,,,,,,,,,,,5eea1be10e95520beb9fa654,2020-11-26_15h58.45.455,lexical_decision_task_MP_exp2,2020.2.5,Win32,60,z,1,0.65067,,,,,,,,0.65067,1,,,,,,265,NW,"ID",16,distar,DISTAR,z,,,,,,0.165740741,-0.265740741,0,0,0,,0,364,364,324,1,
,,,,,,,,,,,,,,,,,,5eea1be10e95520beb9fa654,2020-11-26_15h58.45.455,lexical_decision_task_MP_exp2,2020.2.5,Win32,60,m,1,0.58487,,,,,,,,0.58487,1,,,,,,160,WORD,UN,16,pastor,VIOLET,m,,,,,,0.165740741,-0.265740741,0,0,0,,0,365,365,219,1,
,,,,,,,,,,,,,,,,,,5eea1be10e95520beb9fa654,2020-11-26_15h58.45.455,lexical_decision_task_MP_exp2,2020.2.5,Win32,60,m,1,0.53409,,,,,,,,0.53409,1,,,,,,26,WORD,"ID",16,sprint,SPRINT,m,,,,,,0.165740741,-0.265740741,0,0,0,,0,366,366,85,1,
,,,,,,,,,,,,,,,,,,5eea1be10e95520beb9fa654,2020-11-26_15h58.45.455,lexical_decision_task_MP_exp2,2020.2.5,Win32,60,m,1,0.533805,,,,,,,,0.533805,1,,,,,,167,WORD,UN,16,answer,DESIGN,m,,,,,,0.165740741,-0.265740741,0,0,0,,0,367,367,226,1,
,,,,,,,,,,,,,,,,,,5eea1be10e95520beb9fa654,2020-11-26_15h58.45.455,lexical_decision_task_MP_exp2,2020.2.5,Win32,60,z,1,0.567715,,,,,,,,0.567715,1,,,,,,423,NW,"ID",33,streld,STRELD,z,,,,,,0.165740741,-0.265740741,0,0,0,,0,368,368,242,1,
,,,,,,,,,,,,,,,,,,5eea1be10e95520beb9fa654,2020-11-26_15h58.45.455,lexical_decision_task_MP_exp2,2020.2.5,Win32,60,m,1,0.50044,,,,,,,,0.50044,1,,,,,,233,WORD,"ID",33,nature,NATURE,m,,,,,,0.165740741,-0.265740741,0,0,0,,0,369,369,52,1,
,,,,,,,,,,,,,,,,,,5eea1be10e95520beb9fa654,2020-11-26_15h58.45.455,lexical_decision_task_MP_exp2,2020.2.5,Win32,60,z,1,0.766015,,,,,,,,0.766015,1,,,,,,269,NW,"ID",16,orchet,ORCHET,z,,,,,,0.165740741,-0.265740741,0,0,0,,0,370,370,328,1,
,,,,,,,,,,,,,,,,,,5eea1be10e95520beb9fa654,2020-11-26_15h58.45.455,lexical_decision_task_MP_exp2,2020.2.5,Win32,60,m,1,0.63481,,,,,,,,0.63481,1,,,,,,165,WORD,UN,16,starch,INVEST,m,,,,,,0.165740741,-0.265740741,0,0,0,,0,371,371,224,1,
,,,,,,,,,,,,,,,,,,5eea1be10e95520beb9fa654,2020-11-26_15h58.45.455,lexical_decision_task_MP_exp2,2020.2.5,Win32,60,m,1,0.537605,,,,,,,,0.537605,1,,,,,,149,WORD,UN,16,random,INVADE,m,,,,,,0.165740741,-0.265740741,0,0,0,,0,372,372,208,1,
,,,,,,,,,,,,,,,,,,5eea1be10e95520beb9fa654,2020-11-26_15h58.45.455,lexical_decision_task_MP_exp2,2020.2.5,Win32,60,z,1,0.55002,,,,,,,,0.55002,1,,,,,,283,NW,"ID",16,veralf,VERALF,z,,,,,,0.165740741,-0.265740741,0,0,0,,0,373,373,342,1,
,,,,,,,,,,,,,,,,,,5eea1be10e95520beb9fa654,2020-11-26_15h58.45.455,lexical_decision_task_MP_exp2,2020.2.5,Win32,60,z,1,0.52685,,,,,,,,0.52685,1,,,,,,464,NW,"ID",33,chaite,CHAITE,z,,,,,,0.165740741,-0.265740741,0,0,0,,0,374,374,283,1,
,,,,,,,,,,,,,,,,,,5eea1be10e95520beb9fa654,2020-11-26_15h58.45.455,lexical_decision_task_MP_exp2,2020.2.5,Win32,60,z,1,1.23511,,,,,,,,1.23511,1,,,,,,443,NW,"ID",33,dorsex,DORSEX,z,,,,,,0.165740741,-0.265740741,0,0,0,,0,375,375,262,1,
,,,,,,,,,,,,,,,,,,5eea1be10e95520beb9fa654,2020-11-26_15h58.45.455,lexical_decision_task_MP_exp2,2020.2.5,Win32,60,m,1,0.63412,,,,,,,,0.63412,1,,,,,,144,WORD,UN,16,parish,SPONGE,m,,,,,,0.165740741,-0.265740741,0,0,0,,0,376,376,203,1,
,,,,,,,,,,,,,,,,,,5eea1be10e95520beb9fa654,2020-11-26_15h58.45.455,lexical_decision_task_MP_exp2,2020.2.5,Win32,60,z,1,0.79982,,,,,,,,0.79982,1,,,,,,382,NW,UN,16,aungre,SARLEY,z,,,,,,0.165740741,-0.265740741,0,0,0,,0,377,377,441,1,
,,,,,,,,,,,,,,,,,,5eea1be10e95520beb9fa654,2020-11-26_15h58.45.455,lexical_decision_task_MP_exp2,2020.2.5,Win32,60,z,1,0.53639,,,,,,,,0.53639,1,,,,,,341,NW,UN,33,randow,MYRTIE,z,,,,,,0.165740741,-0.265740741,0,0,0,,0,378,378,400,1,
,,,,,,,,,,,,,,,,,,5eea1be10e95520beb9fa654,2020-11-26_15h58.45.455,lexical_decision_task_MP_exp2,2020.2.5,Win32,60,m,1,0.65121,,,,,,,,0.65121,1,,,,,,183,WORD,"ID",33,mildew,MILDEW,m,,,,,,0.165740741,-0.265740741,0,0,0,,0,379,379,2,1,
,,,,,,,,,,,,,,,,,,5eea1be10e95520beb9fa654,2020-11-26_15h58.45.455,lexical_decision_task_MP_exp2,2020.2.5,Win32,60,z,1,0.7177,,,,,,,,0.7177,1,,,,,,477,NW,"ID",33,photie,PHOTIE,z,,,,,,0.165740741,-0.265740741,0,0,0,,0,380,380,296,1,
,,,,,,,,,,,,,,,,,,5eea1be10e95520beb9fa654,2020-11-26_15h58.45.455,lexical_decision_task_MP_exp2,2020.2.5,Win32,60,m,1,0.64951,,,,,,,,0.64951,1,,,,,,32,WORD,"ID",16,buckle,BUCKLE,m,,,,,,0.165740741,-0.265740741,0,0,0,,0,381,381,91,1,
,,,,,,,,,,,,,,,,,,5eea1be10e95520beb9fa654,2020-11-26_15h58.45.455,lexical_decision_task_MP_exp2,2020.2.5,Win32,60,z,1,0.81742,,,,,,,,0.81742,1,,,,,,287,NW,"ID",16,nymbel,NYMBEL,z,,,,,,0.165740741,-0.265740741,0,0,0,,0,382,382,346,1,
,,,,,,,,,,,,,,,,,,5eea1be10e95520beb9fa654,2020-11-26_15h58.45.455,lexical_decision_task_MP_exp2,2020.2.5,Win32,60,z,1,0.784525,,,,,,,,0.784525,1,,,,,,377,NW,UN,16,shrile,INJORE,z,,,,,,0.165740741,-0.265740741,0,0,0,,0,383,383,436,1,
,,,,,,,,,,,,,,,,,,5eea1be10e95520beb9fa654,2020-11-26_15h58.45.455,lexical_decision_task_MP_exp2,2020.2.5,Win32,60,z,0,0.580025,,,,,,,,0.580025,0,,,,,,13,WORD,"ID",16,strive,STRIVE,m,,,,,,0.165740741,-0.265740741,0,0,0,,0,384,384,72,1,
,,,,,,,,,,,,,,,,,,5eea1be10e95520beb9fa654,2020-11-26_15h58.45.455,lexical_decision_task_MP_exp2,2020.2.5,Win32,60,z,1,0.78412,,,,,,,,0.78412,1,,,,,,458,NW,"ID",33,barcet,BARCET,z,,,,,,0.165740741,-0.265740741,0,0,0,,0,385,385,277,1,
,,,,,,,,,,,,,,,,,,5eea1be10e95520beb9fa654,2020-11-26_15h58.45.455,lexical_decision_task_MP_exp2,2020.2.5,Win32,60,m,1,0.58577,,,,,,,,0.58577,1,,,,,,154,WORD,UN,16,lizard,AUTHOR,m,,,,,,0.165740741,-0.265740741,0,0,0,,0,386,386,213,1,
,,,,,,,,,,,,,,,,,,5eea1be10e95520beb9fa654,2020-11-26_15h58.45.455,lexical_decision_task_MP_exp2,2020.2.5,Win32,60,z,1,1.051055,,,,,,,,1.051055,1,,,,,,357,NW,UN,33,fleack,DERAIN,z,,,,,,0.165740741,-0.265740741,0,0,0,,0,387,387,416,1,
,,,,,,,,,,,,,,,,,,5eea1be10e95520beb9fa654,2020-11-26_15h58.45.455,lexical_decision_task_MP_exp2,2020.2.5,Win32,60,m,1,0.52493,,,,,,,,0.52493,1,,,,,,225,WORD,"ID",33,vulgar,VULGAR,m,,,,,,0.165740741,-0.265740741,0,0,0,,0,388,388,44,1,
,,,,,,,,,,,,,,,,,,5eea1be10e95520beb9fa654,2020-11-26_15h58.45.455,lexical_decision_task_MP_exp2,2020.2.5,Win32,60,m,1,0.635125,,,,,,,,0.635125,1,,,,,,95,WORD,UN,33,ignore,THREAD,m,,,,,,0.165740741,-0.265740741,0,0,0,,0,389,389,154,1,
,,,,,,,,,,,,,,,,,,5eea1be10e95520beb9fa654,2020-11-26_15h58.45.455,lexical_decision_task_MP_exp2,2020.2.5,Win32,60,z,1,0.75119,,,,,,,,0.75119,1,,,,,,480,NW,"ID",33,robuly,ROBULY,z,,,,,,0.165740741,-0.265740741,0,0,0,,0,390,390,299,1,
,,,,,,,,,,,,,,,,,,5eea1be10e95520beb9fa654,2020-11-26_15h58.45.455,lexical_decision_task_MP_exp2,2020.2.5,Win32,60,m,1,0.867415,,,,,,,,0.867415,1,,,,,,140,WORD,UN,16,chrome,PRINCE,m,,,,,,0.165740741,-0.265740741,0,0,0,,0,391,391,199,1,
,,,,,,,,,,,,,,,,,,5eea1be10e95520beb9fa654,2020-11-26_15h58.45.455,lexical_decision_task_MP_exp2,2020.2.5,Win32,60,z,1,0.73878,,,,,,,,0.73878,1,,,,,,451,NW,"ID",33,cainky,CAINKY,z,,,,,,0.165740741,-0.265740741,0,0,0,,0,392,392,270,1,
,,,,,,,,,,,,,,,,,,5eea1be10e95520beb9fa654,2020-11-26_15h58.45.455,lexical_decision_task_MP_exp2,2020.2.5,Win32,60,m,1,0.622935,,,,,,,,0.622935,1,,,,,,51,WORD,"ID",16,hungry,HUNGRY,m,,,,,,0.165740741,-0.265740741,0,0,0,,0,393,393,110,1,
,,,,,,,,,,,,,,,,,,5eea1be10e95520beb9fa654,2020-11-26_15h58.45.455,lexical_decision_task_MP_exp2,2020.2.5,Win32,60,m,1,0.600625,,,,,,,,0.600625,1,,,,,,218,WORD,"ID",33,shrink,SHRINK,m,,,,,,0.165740741,-0.265740741,0,0,0,,0,394,394,37,1,
