counterbalancing_condition,instr_done_keyboard.keys,instr_done_keyboard.rt,instr_done_touch.x,instr_done_touch.y,instr_done_touch.leftButton,instr_done_touch.midButton,instr_done_touch.rightButton,instruction_pages.thisRepN,instruction_pages.thisTrialN,instruction_pages.thisN,instruction_pages.thisIndex,instruction_pages.ran,pageN,phase,instruct_text,has_image,instruct_image,participant,date,expName,psychopyVersion,OS,frameRate,response.keys,response.corr,response.rt,touch_resp.x,touch_resp.y,touch_resp.leftButton,touch_resp.midButton,touch_resp.rightButton,touch_resp.time,touch_resp.clicked_name,rt,corr,practice_trials.thisRepN,practice_trials.thisTrialN,practice_trials.thisN,practice_trials.thisIndex,practice_trials.ran,TrialID,StimulusType,Condition,PrimeDuration,Prime,Target,corrAns,end_of_practice_trials_pages.thisRepN,end_of_practice_trials_pages.thisTrialN,end_of_practice_trials_pages.thisN,end_of_practice_trials_pages.thisIndex,end_of_practice_trials_pages.ran,break_done_touch.x,break_done_touch.y,break_done_touch.leftButton,break_done_touch.midButton,break_done_touch.rightButton,break_done_keyboard.keys,experiment_trials.thisRepN,experiment_trials.thisTrialN,experiment_trials.thisN,experiment_trials.thisIndex,experiment_trials.ran,break_done_keyboard.rt
0,space,23.273815,0.27734375,-0.21484375,0,0,0,0,0,0,0,1,1,instructions,"INSTRUCTIONS
At the start of each trial, look at the hash marks (######) in the center of the screen. After a moment, a string of letters will appear. Your task is to indicate if the letter string forms a word or not (i.e., if it is a nonword). For example, AUTHOR is a word while AUTHON is a nonword.

Press the space bar or touch the button below to continue.",0,,5ef36a78ee14310baa87bcc0,2020-12-03_09h09.22.173,lexical_decision_task_MP_exp2,2020.2.8,Win32,60,,,,,,,,,,,,,,,,,,,,,,,,,,,,,,,,,,,,,,,,,
,space,5.630105,0.27734375,-0.21484375,0,0,0,0,1,1,1,1,2,instructions,"If your device has a keyboard, press the 'Z' key for nonwords and the 'M' key for words.





Press the space bar or touch the button below to continue.",1,keyboard-example.gif,5ef36a78ee14310baa87bcc0,2020-12-03_09h09.22.173,lexical_decision_task_MP_exp2,2020.2.8,Win32,60,,,,,,,,,,,,,,,,,,,,,,,,,,,,,,,,,,,,,,,,,
,space,2.70542,0.27734375,-0.21484375,0,0,0,0,2,2,2,1,3,instructions,"If you are using a touchscreen only device, use the buttons on the screen. Do not use the mouse.





Press the space bar or touch the button below to continue.",1,touchscreen-example.gif,5ef36a78ee14310baa87bcc0,2020-12-03_09h09.22.173,lexical_decision_task_MP_exp2,2020.2.8,Win32,60,,,,,,,,,,,,,,,,,,,,,,,,,,,,,,,,,,,,,,,,,
,space,4.707285,0.27734375,-0.21484375,0,0,0,0,3,3,3,1,4,instructions,"It is very important that you respond as quickly and accurately as possible, as each letter string will only be on the screen for two seconds. If you do not respond within this time, the message 'Too slow!' will be displayed and the experiment will progress to the next letter string. The first 20 trials will be practice trials and you will receive feedback on your answers. 

Press the space bar or touch the button below to start the practice trials.",0,,5ef36a78ee14310baa87bcc0,2020-12-03_09h09.22.173,lexical_decision_task_MP_exp2,2020.2.8,Win32,60,,,,,,,,,,,,,,,,,,,,,,,,,,,,,,,,,,,,,,,,,
,,,,,,,,,,,,,,,,,,5ef36a78ee14310baa87bcc0,2020-12-03_09h09.22.173,lexical_decision_task_MP_exp2,2020.2.8,Win32,60,z,1,1.93178,,,,,,,,1.93178,1,0,0,0,9,1,1010,NW,"ID",33,fariny,FARINY,z,,,,,,,,,,,,,,,,,
,,,,,,,,,,,,,,,,,,5ef36a78ee14310baa87bcc0,2020-12-03_09h09.22.173,lexical_decision_task_MP_exp2,2020.2.8,Win32,60,m,1,0.81508,,,,,,,,0.81508,1,0,1,1,0,1,1001,WORD,"ID",33,utopia,UTOPIA,m,,,,,,,,,,,,,,,,,
,,,,,,,,,,,,,,,,,,5ef36a78ee14310baa87bcc0,2020-12-03_09h09.22.173,lexical_decision_task_MP_exp2,2020.2.8,Win32,60,m,0,0.34079,,,,,,,,0.34079,0,0,2,2,12,1,1013,NW,UN,33,adveil,SPRINY,z,,,,,,,,,,,,,,,,,
,,,,,,,,,,,,,,,,,,5ef36a78ee14310baa87bcc0,2020-12-03_09h09.22.173,lexical_decision_task_MP_exp2,2020.2.8,Win32,60,m,1,0.500285,,,,,,,,0.500285,1,0,3,3,5,1,1006,WORD,UN,33,frenzy,OBTAIN,m,,,,,,,,,,,,,,,,,
,,,,,,,,,,,,,,,,,,5ef36a78ee14310baa87bcc0,2020-12-03_09h09.22.173,lexical_decision_task_MP_exp2,2020.2.8,Win32,60,z,1,0.630475,,,,,,,,0.630475,1,0,4,4,13,1,1014,NW,UN,33,winfer,ROUPET,z,,,,,,,,,,,,,,,,,
,,,,,,,,,,,,,,,,,,5ef36a78ee14310baa87bcc0,2020-12-03_09h09.22.173,lexical_decision_task_MP_exp2,2020.2.8,Win32,60,m,1,0.545455,,,,,,,,0.545455,1,0,5,5,6,1,1007,WORD,UN,16,tropic,ZOMBIE,m,,,,,,,,,,,,,,,,,
,,,,,,,,,,,,,,,,,,5ef36a78ee14310baa87bcc0,2020-12-03_09h09.22.173,lexical_decision_task_MP_exp2,2020.2.8,Win32,60,m,0,0.838315,,,,,,,,0.838315,0,0,6,6,15,1,1016,NW,UN,16,mushed,WHAISE,z,,,,,,,,,,,,,,,,,
,,,,,,,,,,,,,,,,,,5ef36a78ee14310baa87bcc0,2020-12-03_09h09.22.173,lexical_decision_task_MP_exp2,2020.2.8,Win32,60,m,1,0.39876,,,,,,,,0.39876,1,0,7,7,1,1,1002,WORD,"ID",33,adjust,ADJUST,m,,,,,,,,,,,,,,,,,
,,,,,,,,,,,,,,,,,,5ef36a78ee14310baa87bcc0,2020-12-03_09h09.22.173,lexical_decision_task_MP_exp2,2020.2.8,Win32,60,z,1,0.473435,,,,,,,,0.473435,1,0,8,8,14,1,1015,NW,UN,16,miaber,THRALE,z,,,,,,,,,,,,,,,,,
,,,,,,,,,,,,,,,,,,5ef36a78ee14310baa87bcc0,2020-12-03_09h09.22.173,lexical_decision_task_MP_exp2,2020.2.8,Win32,60,z,1,0.588645,,,,,,,,0.588645,1,0,9,9,8,1,1009,NW,"ID",33,aslert,ASLERT,z,,,,,,,,,,,,,,,,,
,,,,,,,,,,,,,,,,,,5ef36a78ee14310baa87bcc0,2020-12-03_09h09.22.173,lexical_decision_task_MP_exp2,2020.2.8,Win32,60,m,1,0.51536,,,,,,,,0.51536,1,0,10,10,4,1,1005,WORD,UN,33,abound,SQUEAK,m,,,,,,,,,,,,,,,,,
,,,,,,,,,,,,,,,,,,5ef36a78ee14310baa87bcc0,2020-12-03_09h09.22.173,lexical_decision_task_MP_exp2,2020.2.8,Win32,60,m,1,0.42085,,,,,,,,0.42085,1,0,11,11,3,1,1004,WORD,"ID",16,matrix,MATRIX,m,,,,,,,,,,,,,,,,,
,,,,,,,,,,,,,,,,,,5ef36a78ee14310baa87bcc0,2020-12-03_09h09.22.173,lexical_decision_task_MP_exp2,2020.2.8,Win32,60,m,1,0.563975,,,,,,,,0.563975,1,0,12,12,7,1,1008,WORD,UN,16,hurdle,VOLUME,m,,,,,,,,,,,,,,,,,
,,,,,,,,,,,,,,,,,,5ef36a78ee14310baa87bcc0,2020-12-03_09h09.22.173,lexical_decision_task_MP_exp2,2020.2.8,Win32,60,m,1,0.371195,,,,,,,,0.371195,1,0,13,13,2,1,1003,WORD,"ID",16,almond,ALMOND,m,,,,,,,,,,,,,,,,,
,,,,,,,,,,,,,,,,,,5ef36a78ee14310baa87bcc0,2020-12-03_09h09.22.173,lexical_decision_task_MP_exp2,2020.2.8,Win32,60,m,0,0.533795,,,,,,,,0.533795,0,0,14,14,10,1,1011,NW,"ID",16,inlade,INLADE,z,,,,,,,,,,,,,,,,,
,,,,,,,,,,,,,,,,,,5ef36a78ee14310baa87bcc0,2020-12-03_09h09.22.173,lexical_decision_task_MP_exp2,2020.2.8,Win32,60,m,0,0.519165,,,,,,,,0.519165,0,0,15,15,11,1,1012,NW,"ID",16,rashet,RASHET,z,,,,,,,,,,,,,,,,,
,space,9.766535,0.27734375,-0.21484375,0,0,0,,,,,,1,end_of_practice,"You have completed the practice trials. During the experimental trials, you will not receive feedback, but it is very important that you respond as quickly and accurately as possible. 
Before you begin, please ensure that you are in a comfortable and quiet location and will not be disturbed for about 15 minutes, as we cannot use your data if you do not complete all the trials. 
There will be opportunities to take breaks at regular intervals during the experiment. When you are ready to start the experimental trials, please press space or touch the button below.",,,5ef36a78ee14310baa87bcc0,2020-12-03_09h09.22.173,lexical_decision_task_MP_exp2,2020.2.8,Win32,60,,,,,,,,,,,,,,,,,,,,,,,,,0,0,0,0,1,,,,,,,,,,,,
,,,,,,,,,,,,,,,,,,5ef36a78ee14310baa87bcc0,2020-12-03_09h09.22.173,lexical_decision_task_MP_exp2,2020.2.8,Win32,60,m,1,0.714505,,,,,,,,0.714505,1,,,,,,235,WORD,"ID",33,grumpy,GRUMPY,m,,,,,,0.27734375,-0.21484375,0,0,0,,0,0,0,54,1,
,,,,,,,,,,,,,,,,,,5ef36a78ee14310baa87bcc0,2020-12-03_09h09.22.173,lexical_decision_task_MP_exp2,2020.2.8,Win32,60,z,1,0.59602,,,,,,,,0.59602,1,,,,,,260,NW,"ID",16,unject,UNJECT,z,,,,,,0.27734375,-0.21484375,0,0,0,,0,1,1,319,1,
,,,,,,,,,,,,,,,,,,5ef36a78ee14310baa87bcc0,2020-12-03_09h09.22.173,lexical_decision_task_MP_exp2,2020.2.8,Win32,60,m,1,0.50326,,,,,,,,0.50326,1,,,,,,4,WORD,"ID",16,trench,TRENCH,m,,,,,,0.27734375,-0.21484375,0,0,0,,0,2,2,63,1,
,,,,,,,,,,,,,,,,,,5ef36a78ee14310baa87bcc0,2020-12-03_09h09.22.173,lexical_decision_task_MP_exp2,2020.2.8,Win32,60,z,1,0.56541,,,,,,,,0.56541,1,,,,,,408,NW,UN,16,elopia,HURNIA,z,,,,,,0.27734375,-0.21484375,0,0,0,,0,3,3,467,1,
,,,,,,,,,,,,,,,,,,5ef36a78ee14310baa87bcc0,2020-12-03_09h09.22.173,lexical_decision_task_MP_exp2,2020.2.8,Win32,60,m,1,0.60695,,,,,,,,0.60695,1,,,,,,60,WORD,"ID",16,pencil,PENCIL,m,,,,,,0.27734375,-0.21484375,0,0,0,,0,4,4,119,1,
,,,,,,,,,,,,,,,,,,5ef36a78ee14310baa87bcc0,2020-12-03_09h09.22.173,lexical_decision_task_MP_exp2,2020.2.8,Win32,60,z,1,0.63013,,,,,,,,0.63013,1,,,,,,362,NW,UN,16,breali,TIREAU,z,,,,,,0.27734375,-0.21484375,0,0,0,,0,5,5,421,1,
,,,,,,,,,,,,,,,,,,5ef36a78ee14310baa87bcc0,2020-12-03_09h09.22.173,lexical_decision_task_MP_exp2,2020.2.8,Win32,60,z,1,0.664435,,,,,,,,0.664435,1,,,,,,289,NW,"ID",16,starby,STARBY,z,,,,,,0.27734375,-0.21484375,0,0,0,,0,6,6,348,1,
,,,,,,,,,,,,,,,,,,5ef36a78ee14310baa87bcc0,2020-12-03_09h09.22.173,lexical_decision_task_MP_exp2,2020.2.8,Win32,60,z,1,0.83951,,,,,,,,0.83951,1,,,,,,403,NW,UN,16,cluirm,BRUATS,z,,,,,,0.27734375,-0.21484375,0,0,0,,0,7,7,462,1,
,,,,,,,,,,,,,,,,,,5ef36a78ee14310baa87bcc0,2020-12-03_09h09.22.173,lexical_decision_task_MP_exp2,2020.2.8,Win32,60,m,1,0.4664,,,,,,,,0.4664,1,,,,,,151,WORD,UN,16,rocket,MYSTIC,m,,,,,,0.27734375,-0.21484375,0,0,0,,0,8,8,210,1,
,,,,,,,,,,,,,,,,,,5ef36a78ee14310baa87bcc0,2020-12-03_09h09.22.173,lexical_decision_task_MP_exp2,2020.2.8,Win32,60,z,1,0.533045,,,,,,,,0.533045,1,,,,,,310,NW,UN,33,sproly,DANIET,z,,,,,,0.27734375,-0.21484375,0,0,0,,0,9,9,369,1,
,,,,,,,,,,,,,,,,,,5ef36a78ee14310baa87bcc0,2020-12-03_09h09.22.173,lexical_decision_task_MP_exp2,2020.2.8,Win32,60,z,0,0.49936,,,,,,,,0.49936,0,,,,,,117,WORD,UN,33,flight,BRANCH,m,,,,,,0.27734375,-0.21484375,0,0,0,,0,10,10,176,1,
,,,,,,,,,,,,,,,,,,5ef36a78ee14310baa87bcc0,2020-12-03_09h09.22.173,lexical_decision_task_MP_exp2,2020.2.8,Win32,60,z,0,0.49725,,,,,,,,0.49725,0,,,,,,123,WORD,UN,16,blouse,STRIKE,m,,,,,,0.27734375,-0.21484375,0,0,0,,0,11,11,182,1,
,,,,,,,,,,,,,,,,,,5ef36a78ee14310baa87bcc0,2020-12-03_09h09.22.173,lexical_decision_task_MP_exp2,2020.2.8,Win32,60,m,1,0.563565,,,,,,,,0.563565,1,,,,,,9,WORD,"ID",16,hustle,HUSTLE,m,,,,,,0.27734375,-0.21484375,0,0,0,,0,12,12,68,1,
,,,,,,,,,,,,,,,,,,5ef36a78ee14310baa87bcc0,2020-12-03_09h09.22.173,lexical_decision_task_MP_exp2,2020.2.8,Win32,60,z,1,0.59952,,,,,,,,0.59952,1,,,,,,431,NW,"ID",33,chrums,CHRUMS,z,,,,,,0.27734375,-0.21484375,0,0,0,,0,13,13,250,1,
,,,,,,,,,,,,,,,,,,5ef36a78ee14310baa87bcc0,2020-12-03_09h09.22.173,lexical_decision_task_MP_exp2,2020.2.8,Win32,60,m,1,0.522495,,,,,,,,0.522495,1,,,,,,74,WORD,UN,33,trophy,PLAQUE,m,,,,,,0.27734375,-0.21484375,0,0,0,,0,14,14,133,1,
,,,,,,,,,,,,,,,,,,5ef36a78ee14310baa87bcc0,2020-12-03_09h09.22.173,lexical_decision_task_MP_exp2,2020.2.8,Win32,60,z,1,0.67191,,,,,,,,0.67191,1,,,,,,328,NW,UN,33,yarike,BROAKE,z,,,,,,0.27734375,-0.21484375,0,0,0,,0,15,15,387,1,
,,,,,,,,,,,,,,,,,,5ef36a78ee14310baa87bcc0,2020-12-03_09h09.22.173,lexical_decision_task_MP_exp2,2020.2.8,Win32,60,z,1,0.597555,,,,,,,,0.597555,1,,,,,,272,NW,"ID",16,damilt,DAMILT,z,,,,,,0.27734375,-0.21484375,0,0,0,,0,16,16,331,1,
,,,,,,,,,,,,,,,,,,5ef36a78ee14310baa87bcc0,2020-12-03_09h09.22.173,lexical_decision_task_MP_exp2,2020.2.8,Win32,60,m,1,0.4309,,,,,,,,0.4309,1,,,,,,218,WORD,"ID",33,shrink,SHRINK,m,,,,,,0.27734375,-0.21484375,0,0,0,,0,17,17,37,1,
,,,,,,,,,,,,,,,,,,5ef36a78ee14310baa87bcc0,2020-12-03_09h09.22.173,lexical_decision_task_MP_exp2,2020.2.8,Win32,60,m,1,0.565335,,,,,,,,0.565335,1,,,,,,216,WORD,"ID",33,behalf,BEHALF,m,,,,,,0.27734375,-0.21484375,0,0,0,,0,18,18,35,1,
,,,,,,,,,,,,,,,,,,5ef36a78ee14310baa87bcc0,2020-12-03_09h09.22.173,lexical_decision_task_MP_exp2,2020.2.8,Win32,60,z,1,0.46553,,,,,,,,0.46553,1,,,,,,472,NW,"ID",33,cigney,CIGNEY,z,,,,,,0.27734375,-0.21484375,0,0,0,,0,19,19,291,1,
,,,,,,,,,,,,,,,,,,5ef36a78ee14310baa87bcc0,2020-12-03_09h09.22.173,lexical_decision_task_MP_exp2,2020.2.8,Win32,60,m,1,0.45439,,,,,,,,0.45439,1,,,,,,67,WORD,UN,33,fumble,POLICY,m,,,,,,0.27734375,-0.21484375,0,0,0,,0,20,20,126,1,
,,,,,,,,,,,,,,,,,,5ef36a78ee14310baa87bcc0,2020-12-03_09h09.22.173,lexical_decision_task_MP_exp2,2020.2.8,Win32,60,z,1,0.498925,,,,,,,,0.498925,1,,,,,,427,NW,"ID",33,schind,SCHIND,z,,,,,,0.27734375,-0.21484375,0,0,0,,0,21,21,246,1,
,,,,,,,,,,,,,,,,,,5ef36a78ee14310baa87bcc0,2020-12-03_09h09.22.173,lexical_decision_task_MP_exp2,2020.2.8,Win32,60,m,1,0.391665,,,,,,,,0.391665,1,,,,,,144,WORD,UN,16,parish,SPONGE,m,,,,,,0.27734375,-0.21484375,0,0,0,,0,22,22,203,1,
,,,,,,,,,,,,,,,,,,5ef36a78ee14310baa87bcc0,2020-12-03_09h09.22.173,lexical_decision_task_MP_exp2,2020.2.8,Win32,60,z,1,0.46493,,,,,,,,0.46493,1,,,,,,261,NW,"ID",16,stunch,STUNCH,z,,,,,,0.27734375,-0.21484375,0,0,0,,0,23,23,320,1,
,,,,,,,,,,,,,,,,,,5ef36a78ee14310baa87bcc0,2020-12-03_09h09.22.173,lexical_decision_task_MP_exp2,2020.2.8,Win32,60,m,1,0.59927,,,,,,,,0.59927,1,,,,,,203,WORD,"ID",33,phrase,PHRASE,m,,,,,,0.27734375,-0.21484375,0,0,0,,0,24,24,22,1,
,,,,,,,,,,,,,,,,,,5ef36a78ee14310baa87bcc0,2020-12-03_09h09.22.173,lexical_decision_task_MP_exp2,2020.2.8,Win32,60,z,1,0.4644,,,,,,,,0.4644,1,,,,,,426,NW,"ID",33,urivel,URIVEL,z,,,,,,0.27734375,-0.21484375,0,0,0,,0,25,25,245,1,
,,,,,,,,,,,,,,,,,,5ef36a78ee14310baa87bcc0,2020-12-03_09h09.22.173,lexical_decision_task_MP_exp2,2020.2.8,Win32,60,z,1,0.592365,,,,,,,,0.592365,1,,,,,,309,NW,UN,33,daniet,AMILOY,z,,,,,,0.27734375,-0.21484375,0,0,0,,0,26,26,368,1,
,,,,,,,,,,,,,,,,,,5ef36a78ee14310baa87bcc0,2020-12-03_09h09.22.173,lexical_decision_task_MP_exp2,2020.2.8,Win32,60,m,1,0.49811,,,,,,,,0.49811,1,,,,,,161,WORD,UN,16,candle,PASTOR,m,,,,,,0.27734375,-0.21484375,0,0,0,,0,27,27,220,1,
,,,,,,,,,,,,,,,,,,5ef36a78ee14310baa87bcc0,2020-12-03_09h09.22.173,lexical_decision_task_MP_exp2,2020.2.8,Win32,60,m,1,0.50441,,,,,,,,0.50441,1,,,,,,72,WORD,UN,33,source,BRIGHT,m,,,,,,0.27734375,-0.21484375,0,0,0,,0,28,28,131,1,
,,,,,,,,,,,,,,,,,,5ef36a78ee14310baa87bcc0,2020-12-03_09h09.22.173,lexical_decision_task_MP_exp2,2020.2.8,Win32,60,m,1,0.383915,,,,,,,,0.383915,1,,,,,,186,WORD,"ID",33,portal,PORTAL,m,,,,,,0.27734375,-0.21484375,0,0,0,,0,29,29,5,1,
,,,,,,,,,,,,,,,,,,5ef36a78ee14310baa87bcc0,2020-12-03_09h09.22.173,lexical_decision_task_MP_exp2,2020.2.8,Win32,60,z,0,0.58117,,,,,,,,0.58117,0,,,,,,111,WORD,UN,33,breath,INDUCE,m,,,,,,0.27734375,-0.21484375,0,0,0,,0,30,30,170,1,
,,,,,,,,,,,,,,,,,,5ef36a78ee14310baa87bcc0,2020-12-03_09h09.22.173,lexical_decision_task_MP_exp2,2020.2.8,Win32,60,m,1,0.565635,,,,,,,,0.565635,1,,,,,,97,WORD,UN,33,belong,CLIENT,m,,,,,,0.27734375,-0.21484375,0,0,0,,0,31,31,156,1,
,,,,,,,,,,,,,,,,,,5ef36a78ee14310baa87bcc0,2020-12-03_09h09.22.173,lexical_decision_task_MP_exp2,2020.2.8,Win32,60,z,1,0.706165,,,,,,,,0.706165,1,,,,,,462,NW,"ID",33,absult,ABSULT,z,,,,,,0.27734375,-0.21484375,0,0,0,,0,32,32,281,1,
,,,,,,,,,,,,,,,,,,5ef36a78ee14310baa87bcc0,2020-12-03_09h09.22.173,lexical_decision_task_MP_exp2,2020.2.8,Win32,60,m,1,0.40647,,,,,,,,0.40647,1,,,,,,7,WORD,"ID",16,anchor,ANCHOR,m,,,,,,0.27734375,-0.21484375,0,0,0,,0,33,33,66,1,
,,,,,,,,,,,,,,,,,,5ef36a78ee14310baa87bcc0,2020-12-03_09h09.22.173,lexical_decision_task_MP_exp2,2020.2.8,Win32,60,m,1,0.415385,,,,,,,,0.415385,1,,,,,,102,WORD,UN,33,bounce,DIRECT,m,,,,,,0.27734375,-0.21484375,0,0,0,,0,34,34,161,1,
,,,,,,,,,,,,,,,,,,5ef36a78ee14310baa87bcc0,2020-12-03_09h09.22.173,lexical_decision_task_MP_exp2,2020.2.8,Win32,60,m,1,0.35577,,,,,,,,0.35577,1,,,,,,71,WORD,UN,33,bright,GARDEN,m,,,,,,0.27734375,-0.21484375,0,0,0,,0,35,35,130,1,
,,,,,,,,,,,,,,,,,,5ef36a78ee14310baa87bcc0,2020-12-03_09h09.22.173,lexical_decision_task_MP_exp2,2020.2.8,Win32,60,m,1,0.55493,,,,,,,,0.55493,1,,,,,,227,WORD,"ID",33,seldom,SELDOM,m,,,,,,0.27734375,-0.21484375,0,0,0,,0,36,36,46,1,
,,,,,,,,,,,,,,,,,,5ef36a78ee14310baa87bcc0,2020-12-03_09h09.22.173,lexical_decision_task_MP_exp2,2020.2.8,Win32,60,m,1,0.553615,,,,,,,,0.553615,1,,,,,,230,WORD,"ID",33,fringe,FRINGE,m,,,,,,0.27734375,-0.21484375,0,0,0,,0,37,37,49,1,
,,,,,,,,,,,,,,,,,,5ef36a78ee14310baa87bcc0,2020-12-03_09h09.22.173,lexical_decision_task_MP_exp2,2020.2.8,Win32,60,m,1,0.50379,,,,,,,,0.50379,1,,,,,,73,WORD,UN,33,plaque,SOURCE,m,,,,,,0.27734375,-0.21484375,0,0,0,,0,38,38,132,1,
,,,,,,,,,,,,,,,,,,5ef36a78ee14310baa87bcc0,2020-12-03_09h09.22.173,lexical_decision_task_MP_exp2,2020.2.8,Win32,60,m,1,0.3678,,,,,,,,0.3678,1,,,,,,202,WORD,"ID",33,factor,FACTOR,m,,,,,,0.27734375,-0.21484375,0,0,0,,0,39,39,21,1,
,,,,,,,,,,,,,,,,,,5ef36a78ee14310baa87bcc0,2020-12-03_09h09.22.173,lexical_decision_task_MP_exp2,2020.2.8,Win32,60,m,0,0.48506,,,,,,,,0.48506,0,,,,,,335,NW,UN,33,ghodus,DESION,z,,,,,,0.27734375,-0.21484375,0,0,0,,0,40,40,394,1,
,,,,,,,,,,,,,,,,,,5ef36a78ee14310baa87bcc0,2020-12-03_09h09.22.173,lexical_decision_task_MP_exp2,2020.2.8,Win32,60,m,1,0.808725,,,,,,,,0.808725,1,,,,,,189,WORD,"ID",33,censor,CENSOR,m,,,,,,0.27734375,-0.21484375,0,0,0,,0,41,41,8,1,
,,,,,,,,,,,,,,,,,,5ef36a78ee14310baa87bcc0,2020-12-03_09h09.22.173,lexical_decision_task_MP_exp2,2020.2.8,Win32,60,z,1,0.954575,,,,,,,,0.954575,1,,,,,,397,NW,UN,16,blunde,CAMBLE,z,,,,,,0.27734375,-0.21484375,0,0,0,,0,42,42,456,1,
,,,,,,,,,,,,,,,,,,5ef36a78ee14310baa87bcc0,2020-12-03_09h09.22.173,lexical_decision_task_MP_exp2,2020.2.8,Win32,60,m,1,0.598805,,,,,,,,0.598805,1,,,,,,212,WORD,"ID",33,verify,VERIFY,m,,,,,,0.27734375,-0.21484375,0,0,0,,0,43,43,31,1,
,,,,,,,,,,,,,,,,,,5ef36a78ee14310baa87bcc0,2020-12-03_09h09.22.173,lexical_decision_task_MP_exp2,2020.2.8,Win32,60,z,1,0.753415,,,,,,,,0.753415,1,,,,,,394,NW,UN,16,colury,SPAQUX,z,,,,,,0.27734375,-0.21484375,0,0,0,,0,44,44,453,1,
,,,,,,,,,,,,,,,,,,5ef36a78ee14310baa87bcc0,2020-12-03_09h09.22.173,lexical_decision_task_MP_exp2,2020.2.8,Win32,60,z,1,0.614505,,,,,,,,0.614505,1,,,,,,405,NW,UN,16,nouply,FLUMNI,z,,,,,,0.27734375,-0.21484375,0,0,0,,0,45,45,464,1,
,,,,,,,,,,,,,,,,,,5ef36a78ee14310baa87bcc0,2020-12-03_09h09.22.173,lexical_decision_task_MP_exp2,2020.2.8,Win32,60,m,1,0.584265,,,,,,,,0.584265,1,,,,,,119,WORD,UN,33,strain,SPIDER,m,,,,,,0.27734375,-0.21484375,0,0,0,,0,46,46,178,1,
,,,,,,,,,,,,,,,,,,5ef36a78ee14310baa87bcc0,2020-12-03_09h09.22.173,lexical_decision_task_MP_exp2,2020.2.8,Win32,60,z,1,0.872535,,,,,,,,0.872535,1,,,,,,339,NW,UN,33,fiatch,FACHOW,z,,,,,,0.27734375,-0.21484375,0,0,0,,0,47,47,398,1,
,,,,,,,,,,,,,,,,,,5ef36a78ee14310baa87bcc0,2020-12-03_09h09.22.173,lexical_decision_task_MP_exp2,2020.2.8,Win32,60,m,1,0.902345,,,,,,,,0.902345,1,,,,,,37,WORD,"ID",16,insult,INSULT,m,,,,,,0.27734375,-0.21484375,0,0,0,,0,48,48,96,1,
,,,,,,,,,,,,,,,,,,5ef36a78ee14310baa87bcc0,2020-12-03_09h09.22.173,lexical_decision_task_MP_exp2,2020.2.8,Win32,60,z,1,0.58195,,,,,,,,0.58195,1,,,,,,469,NW,"ID",33,padifs,PADIFS,z,,,,,,0.27734375,-0.21484375,0,0,0,,0,49,49,288,1,
,,,,,,,,,,,,,,,,,,5ef36a78ee14310baa87bcc0,2020-12-03_09h09.22.173,lexical_decision_task_MP_exp2,2020.2.8,Win32,60,z,1,0.65,,,,,,,,0.65,1,,,,,,329,NW,UN,33,kensom,YARIKE,z,,,,,,0.27734375,-0.21484375,0,0,0,,0,50,50,388,1,
,,,,,,,,,,,,,,,,,,5ef36a78ee14310baa87bcc0,2020-12-03_09h09.22.173,lexical_decision_task_MP_exp2,2020.2.8,Win32,60,m,1,0.659575,,,,,,,,0.659575,1,,,,,,103,WORD,UN,33,studio,BOUNCE,m,,,,,,0.27734375,-0.21484375,0,0,0,,0,51,51,162,1,
,,,,,,,,,,,,,,,,,,5ef36a78ee14310baa87bcc0,2020-12-03_09h09.22.173,lexical_decision_task_MP_exp2,2020.2.8,Win32,60,m,1,0.732115,,,,,,,,0.732115,1,,,,,,135,WORD,UN,16,bleach,IMPORT,m,,,,,,0.27734375,-0.21484375,0,0,0,,0,52,52,194,1,
,,,,,,,,,,,,,,,,,,5ef36a78ee14310baa87bcc0,2020-12-03_09h09.22.173,lexical_decision_task_MP_exp2,2020.2.8,Win32,60,m,1,0.390545,,,,,,,,0.390545,1,,,,,,36,WORD,"ID",16,vanish,VANISH,m,,,,,,0.27734375,-0.21484375,0,0,0,,0,53,53,95,1,
,,,,,,,,,,,,,,,,,,5ef36a78ee14310baa87bcc0,2020-12-03_09h09.22.173,lexical_decision_task_MP_exp2,2020.2.8,Win32,60,m,1,0.43302,,,,,,,,0.43302,1,,,,,,79,WORD,UN,33,family,THEORY,m,,,,,,0.27734375,-0.21484375,0,0,0,,0,54,54,138,1,
,,,,,,,,,,,,,,,,,,5ef36a78ee14310baa87bcc0,2020-12-03_09h09.22.173,lexical_decision_task_MP_exp2,2020.2.8,Win32,60,m,1,0.317175,,,,,,,,0.317175,1,,,,,,201,WORD,"ID",33,admire,ADMIRE,m,,,,,,0.27734375,-0.21484375,0,0,0,,0,55,55,20,1,
,,,,,,,,,,,,,,,,,,5ef36a78ee14310baa87bcc0,2020-12-03_09h09.22.173,lexical_decision_task_MP_exp2,2020.2.8,Win32,60,z,1,0.436105,,,,,,,,0.436105,1,,,,,,318,NW,UN,33,zomber,REAGLY,z,,,,,,0.27734375,-0.21484375,0,0,0,,0,56,56,377,1,
,,,,,,,,,,,,,,,,,,5ef36a78ee14310baa87bcc0,2020-12-03_09h09.22.173,lexical_decision_task_MP_exp2,2020.2.8,Win32,60,m,0,0.49725,,,,,,,,0.49725,0,,,,,,369,NW,UN,16,sleact,WRONCH,z,,,,,,0.27734375,-0.21484375,0,0,0,,0,57,57,428,1,
,,,,,,,,,,,,,,,,,,5ef36a78ee14310baa87bcc0,2020-12-03_09h09.22.173,lexical_decision_task_MP_exp2,2020.2.8,Win32,60,z,1,0.60206,,,,,,,,0.60206,1,,,,,,434,NW,"ID",33,pitrom,PITROM,z,,,,,,0.27734375,-0.21484375,0,0,0,,0,58,58,253,1,
,,,,,,,,,,,,,,,,,,5ef36a78ee14310baa87bcc0,2020-12-03_09h09.22.173,lexical_decision_task_MP_exp2,2020.2.8,Win32,60,z,1,0.48301,,,,,,,,0.48301,1,,,,,,446,NW,"ID",33,runamo,RUNAMO,z,,,,,,0.27734375,-0.21484375,0,0,0,,0,59,59,265,1,
,,,,,,,,,,,,,,,,,,5ef36a78ee14310baa87bcc0,2020-12-03_09h09.22.173,lexical_decision_task_MP_exp2,2020.2.8,Win32,60,m,0,0.56728,,,,,,,,0.56728,0,,,,,,303,NW,UN,33,cludie,FIREAM,z,,,,,,0.27734375,-0.21484375,0,0,0,,0,60,60,362,1,
,,,,,,,,,,,,,,,,,,5ef36a78ee14310baa87bcc0,2020-12-03_09h09.22.173,lexical_decision_task_MP_exp2,2020.2.8,Win32,60,m,1,0.898605,,,,,,,,0.898605,1,,,,,,57,WORD,"ID",16,change,CHANGE,m,,,,,,0.27734375,-0.21484375,0,0,0,,0,61,61,116,1,
,,,,,,,,,,,,,,,,,,5ef36a78ee14310baa87bcc0,2020-12-03_09h09.22.173,lexical_decision_task_MP_exp2,2020.2.8,Win32,60,m,1,0.56587,,,,,,,,0.56587,1,,,,,,124,WORD,UN,16,nickel,BLOUSE,m,,,,,,0.27734375,-0.21484375,0,0,0,,0,62,62,183,1,
,,,,,,,,,,,,,,,,,,5ef36a78ee14310baa87bcc0,2020-12-03_09h09.22.173,lexical_decision_task_MP_exp2,2020.2.8,Win32,60,z,1,0.5509,,,,,,,,0.5509,1,,,,,,266,NW,"ID",16,varmit,VARMIT,z,,,,,,0.27734375,-0.21484375,0,0,0,,0,63,63,325,1,
,,,,,,,,,,,,,,,,,,5ef36a78ee14310baa87bcc0,2020-12-03_09h09.22.173,lexical_decision_task_MP_exp2,2020.2.8,Win32,60,z,1,0.52966,,,,,,,,0.52966,1,,,,,,290,NW,"ID",16,splino,SPLINO,z,,,,,,0.27734375,-0.21484375,0,0,0,,0,64,64,349,1,
,,,,,,,,,,,,,,,,,,5ef36a78ee14310baa87bcc0,2020-12-03_09h09.22.173,lexical_decision_task_MP_exp2,2020.2.8,Win32,60,m,1,0.40504,,,,,,,,0.40504,1,,,,,,198,WORD,"ID",33,wicked,WICKED,m,,,,,,0.27734375,-0.21484375,0,0,0,,0,65,65,17,1,
,,,,,,,,,,,,,,,,,,5ef36a78ee14310baa87bcc0,2020-12-03_09h09.22.173,lexical_decision_task_MP_exp2,2020.2.8,Win32,60,m,1,0.35567,,,,,,,,0.35567,1,,,,,,17,WORD,"ID",16,charge,CHARGE,m,,,,,,0.27734375,-0.21484375,0,0,0,,0,66,66,76,1,
,,,,,,,,,,,,,,,,,,5ef36a78ee14310baa87bcc0,2020-12-03_09h09.22.173,lexical_decision_task_MP_exp2,2020.2.8,Win32,60,z,1,0.618955,,,,,,,,0.618955,1,,,,,,423,NW,"ID",33,streld,STRELD,z,,,,,,0.27734375,-0.21484375,0,0,0,,0,67,67,242,1,
,,,,,,,,,,,,,,,,,,5ef36a78ee14310baa87bcc0,2020-12-03_09h09.22.173,lexical_decision_task_MP_exp2,2020.2.8,Win32,60,z,0,0.45559,,,,,,,,0.45559,0,,,,,,16,WORD,"ID",16,faucet,FAUCET,m,,,,,,0.27734375,-0.21484375,0,0,0,,0,68,68,75,1,
,,,,,,,,,,,,,,,,,,5ef36a78ee14310baa87bcc0,2020-12-03_09h09.22.173,lexical_decision_task_MP_exp2,2020.2.8,Win32,60,m,1,0.537735,,,,,,,,0.537735,1,,,,,,199,WORD,"ID",33,invoke,INVOKE,m,,,,,,0.27734375,-0.21484375,0,0,0,,0,69,69,18,1,
,,,,,,,,,,,,,,,,,,5ef36a78ee14310baa87bcc0,2020-12-03_09h09.22.173,lexical_decision_task_MP_exp2,2020.2.8,Win32,60,m,1,0.598625,,,,,,,,0.598625,1,,,,,,217,WORD,"ID",33,liquor,LIQUOR,m,,,,,,0.27734375,-0.21484375,0,0,0,,0,70,70,36,1,
,,,,,,,,,,,,,,,,,,5ef36a78ee14310baa87bcc0,2020-12-03_09h09.22.173,lexical_decision_task_MP_exp2,2020.2.8,Win32,60,m,1,0.431445,,,,,,,,0.431445,1,,,,,,93,WORD,UN,33,travel,PUBLIC,m,,,,,,0.27734375,-0.21484375,0,0,0,,0,71,71,152,1,
,,,,,,,,,,,,,,,,,,5ef36a78ee14310baa87bcc0,2020-12-03_09h09.22.173,lexical_decision_task_MP_exp2,2020.2.8,Win32,60,z,1,0.55454,,,,,,,,0.55454,1,,,,,,471,NW,"ID",33,nobest,NOBEST,z,,,,,,0.27734375,-0.21484375,0,0,0,,0,72,72,290,1,
,,,,,,,,,,,,,,,,,,5ef36a78ee14310baa87bcc0,2020-12-03_09h09.22.173,lexical_decision_task_MP_exp2,2020.2.8,Win32,60,m,1,0.647745,,,,,,,,0.647745,1,,,,,,64,WORD,UN,33,symbol,THRONE,m,,,,,,0.27734375,-0.21484375,0,0,0,,0,73,73,123,1,
,,,,,,,,,,,,,,,,,,5ef36a78ee14310baa87bcc0,2020-12-03_09h09.22.173,lexical_decision_task_MP_exp2,2020.2.8,Win32,60,z,0,0.50117,,,,,,,,0.50117,0,,,,,,86,WORD,UN,33,filter,RODENT,m,,,,,,0.27734375,-0.21484375,0,0,0,,0,74,74,145,1,
,,,,,,,,,,,,,,,,,,5ef36a78ee14310baa87bcc0,2020-12-03_09h09.22.173,lexical_decision_task_MP_exp2,2020.2.8,Win32,60,m,1,0.545615,,,,,,,,0.545615,1,,,,,,35,WORD,"ID",16,socket,SOCKET,m,,,,,,0.27734375,-0.21484375,0,0,0,,0,75,75,94,1,
,,,,,,,,,,,,,,,,,,5ef36a78ee14310baa87bcc0,2020-12-03_09h09.22.173,lexical_decision_task_MP_exp2,2020.2.8,Win32,60,z,1,0.667955,,,,,,,,0.667955,1,,,,,,476,NW,"ID",33,josted,JOSTED,z,,,,,,0.27734375,-0.21484375,0,0,0,,0,76,76,295,1,
,,,,,,,,,,,,,,,,,,5ef36a78ee14310baa87bcc0,2020-12-03_09h09.22.173,lexical_decision_task_MP_exp2,2020.2.8,Win32,60,m,1,0.39217,,,,,,,,0.39217,1,,,,,,238,WORD,"ID",33,flower,FLOWER,m,,,,,,0.27734375,-0.21484375,0,0,0,,0,77,77,57,1,
,,,,,,,,,,,,,,,,,,5ef36a78ee14310baa87bcc0,2020-12-03_09h09.22.173,lexical_decision_task_MP_exp2,2020.2.8,Win32,60,z,1,0.647915,,,,,,,,0.647915,1,,,,,,313,NW,UN,33,sprine,PAURSE,z,,,,,,0.27734375,-0.21484375,0,0,0,,0,78,78,372,1,
,,,,,,,,,,,,,,,,,,5ef36a78ee14310baa87bcc0,2020-12-03_09h09.22.173,lexical_decision_task_MP_exp2,2020.2.8,Win32,60,z,1,0.80129,,,,,,,,0.80129,1,,,,,,243,NW,"ID",16,musied,MUSIED,z,,,,,,0.27734375,-0.21484375,0,0,0,,0,79,79,302,1,
,,,,,,,,,,,,,,,,,,5ef36a78ee14310baa87bcc0,2020-12-03_09h09.22.173,lexical_decision_task_MP_exp2,2020.2.8,Win32,60,z,1,0.641915,,,,,,,,0.641915,1,,,,,,450,NW,"ID",33,phrect,PHRECT,z,,,,,,0.27734375,-0.21484375,0,0,0,,0,80,80,269,1,
,,,,,,,,,,,,,,,,,,5ef36a78ee14310baa87bcc0,2020-12-03_09h09.22.173,lexical_decision_task_MP_exp2,2020.2.8,Win32,60,m,1,0.483805,,,,,,,,0.483805,1,,,,,,175,WORD,UN,16,strife,FABRIC,m,,,,,,0.27734375,-0.21484375,0,0,0,,0,81,81,234,1,
,,,,,,,,,,,,,,,,,,5ef36a78ee14310baa87bcc0,2020-12-03_09h09.22.173,lexical_decision_task_MP_exp2,2020.2.8,Win32,60,m,1,0.50122,,,,,,,,0.50122,1,,,,,,209,WORD,"ID",33,search,SEARCH,m,,,,,,0.27734375,-0.21484375,0,0,0,,0,82,82,28,1,
,,,,,,,,,,,,,,,,,,5ef36a78ee14310baa87bcc0,2020-12-03_09h09.22.173,lexical_decision_task_MP_exp2,2020.2.8,Win32,60,m,1,0.575355,,,,,,,,0.575355,1,,,,,,208,WORD,"ID",33,hockey,HOCKEY,m,,,,,,0.27734375,-0.21484375,0,0,0,,0,83,83,27,1,
,,,,,,,,,,,,,,,,,,5ef36a78ee14310baa87bcc0,2020-12-03_09h09.22.173,lexical_decision_task_MP_exp2,2020.2.8,Win32,60,z,1,0.51774,,,,,,,,0.51774,1,,,,,,473,NW,"ID",33,crible,CRIBLE,z,,,,,,0.27734375,-0.21484375,0,0,0,,0,84,84,292,1,
,,,,,,,,,,,,,,,,,,5ef36a78ee14310baa87bcc0,2020-12-03_09h09.22.173,lexical_decision_task_MP_exp2,2020.2.8,Win32,60,m,1,0.52814,,,,,,,,0.52814,1,,,,,,205,WORD,"ID",33,lounge,LOUNGE,m,,,,,,0.27734375,-0.21484375,0,0,0,,0,85,85,24,1,
,,,,,,,,,,,,,,,,,,5ef36a78ee14310baa87bcc0,2020-12-03_09h09.22.173,lexical_decision_task_MP_exp2,2020.2.8,Win32,60,m,1,0.560475,,,,,,,,0.560475,1,,,,,,82,WORD,UN,33,result,STIGMA,m,,,,,,0.27734375,-0.21484375,0,0,0,,0,86,86,141,1,
,,,,,,,,,,,,,,,,,,5ef36a78ee14310baa87bcc0,2020-12-03_09h09.22.173,lexical_decision_task_MP_exp2,2020.2.8,Win32,60,m,1,0.434725,,,,,,,,0.434725,1,,,,,,126,WORD,UN,16,castle,ENOUGH,m,,,,,,0.27734375,-0.21484375,0,0,0,,0,87,87,185,1,
,,,,,,,,,,,,,,,,,,5ef36a78ee14310baa87bcc0,2020-12-03_09h09.22.173,lexical_decision_task_MP_exp2,2020.2.8,Win32,60,m,1,0.39003,,,,,,,,0.39003,1,,,,,,154,WORD,UN,16,lizard,AUTHOR,m,,,,,,0.27734375,-0.21484375,0,0,0,,0,88,88,213,1,
,,,,,,,,,,,,,,,,,,5ef36a78ee14310baa87bcc0,2020-12-03_09h09.22.173,lexical_decision_task_MP_exp2,2020.2.8,Win32,60,z,0,0.41785,,,,,,,,0.41785,0,,,,,,28,WORD,"ID",16,comedy,COMEDY,m,,,,,,0.27734375,-0.21484375,0,0,0,,0,89,89,87,1,
,,,,,,,,,,,,,,,,,,5ef36a78ee14310baa87bcc0,2020-12-03_09h09.22.173,lexical_decision_task_MP_exp2,2020.2.8,Win32,60,m,1,0.59977,,,,,,,,0.59977,1,,,,,,122,WORD,UN,16,strike,LINGER,m,,,,,,0.27734375,-0.21484375,0,0,0,,0,90,90,181,1,
,,,,,,,,,,,,,,,,,,5ef36a78ee14310baa87bcc0,2020-12-03_09h09.22.173,lexical_decision_task_MP_exp2,2020.2.8,Win32,60,m,1,0.56081,,,,,,,,0.56081,1,,,,,,54,WORD,"ID",16,ramble,RAMBLE,m,,,,,,0.27734375,-0.21484375,0,0,0,,0,91,91,113,1,
,,,,,,,,,,,,,,,,,,5ef36a78ee14310baa87bcc0,2020-12-03_09h09.22.173,lexical_decision_task_MP_exp2,2020.2.8,Win32,60,z,1,0.542145,,,,,,,,0.542145,1,,,,,,242,NW,"ID",16,unwert,UNWERT,z,,,,,,0.27734375,-0.21484375,0,0,0,,0,92,92,301,1,
,,,,,,,,,,,,,,,,,,5ef36a78ee14310baa87bcc0,2020-12-03_09h09.22.173,lexical_decision_task_MP_exp2,2020.2.8,Win32,60,z,1,0.593705,,,,,,,,0.593705,1,,,,,,320,NW,UN,33,miator,JOCKAL,z,,,,,,0.27734375,-0.21484375,0,0,0,,0,93,93,379,1,
,,,,,,,,,,,,,,,,,,5ef36a78ee14310baa87bcc0,2020-12-03_09h09.22.173,lexical_decision_task_MP_exp2,2020.2.8,Win32,60,z,1,0.51688,,,,,,,,0.51688,1,,,,,,365,NW,UN,16,toshel,GUAIRT,z,,,,,,0.27734375,-0.21484375,0,0,0,,0,94,94,424,1,
,,,,,,,,,,,,,,,,,,5ef36a78ee14310baa87bcc0,2020-12-03_09h09.22.173,lexical_decision_task_MP_exp2,2020.2.8,Win32,60,z,1,0.45115,,,,,,,,0.45115,1,,,,,,274,NW,"ID",16,fumblo,FUMBLO,z,,,,,,0.27734375,-0.21484375,0,0,0,,0,95,95,333,1,
,,,,,,,,,,,,,,,,,,5ef36a78ee14310baa87bcc0,2020-12-03_09h09.22.173,lexical_decision_task_MP_exp2,2020.2.8,Win32,60,m,1,0.52252,,,,,,,,0.52252,1,,,,,,191,WORD,"ID",33,stable,STABLE,m,,,,,,0.27734375,-0.21484375,0,0,0,,0,96,96,10,1,
,,,,,,,,,,,,,,,,,,5ef36a78ee14310baa87bcc0,2020-12-03_09h09.22.173,lexical_decision_task_MP_exp2,2020.2.8,Win32,60,m,1,0.48161,,,,,,,,0.48161,1,,,,,,134,WORD,UN,16,import,STAPLE,m,,,,,,0.27734375,-0.21484375,0,0,0,,0,97,97,193,1,
,,,,,,,,,,,,,,,,,,5ef36a78ee14310baa87bcc0,2020-12-03_09h09.22.173,lexical_decision_task_MP_exp2,2020.2.8,Win32,60,m,1,0.521325,,,,,,,,0.521325,1,,,,,,143,WORD,UN,16,sponge,REASON,m,,,,,,0.27734375,-0.21484375,0,0,0,,0,98,98,202,1,
,,,,,,,,,,,,,,,,,,5ef36a78ee14310baa87bcc0,2020-12-03_09h09.22.173,lexical_decision_task_MP_exp2,2020.2.8,Win32,60,m,1,0.488285,,,,,,,,0.488285,1,,,,,,23,WORD,"ID",16,wealth,WEALTH,m,,,,,,0.27734375,-0.21484375,0,0,0,,0,99,99,82,1,
,,,,,,,,,,,,,,,,,,5ef36a78ee14310baa87bcc0,2020-12-03_09h09.22.173,lexical_decision_task_MP_exp2,2020.2.8,Win32,60,m,1,0.439555,,,,,,,,0.439555,1,,,,,,95,WORD,UN,33,ignore,THREAD,m,,,,,,0.27734375,-0.21484375,0,0,0,,0,100,100,154,1,
,,,,,,,,,,,,,,,,,,5ef36a78ee14310baa87bcc0,2020-12-03_09h09.22.173,lexical_decision_task_MP_exp2,2020.2.8,Win32,60,m,1,0.509785,,,,,,,,0.509785,1,,,,,,61,WORD,UN,33,region,PONDER,m,,,,,,0.27734375,-0.21484375,0,0,0,,0,101,101,120,1,
,,,,,,,,,,,,,,,,,,5ef36a78ee14310baa87bcc0,2020-12-03_09h09.22.173,lexical_decision_task_MP_exp2,2020.2.8,Win32,60,z,1,0.563135,,,,,,,,0.563135,1,,,,,,396,NW,UN,16,camble,FLENGY,z,,,,,,0.27734375,-0.21484375,0,0,0,,0,102,102,455,1,
,,,,,,,,,,,,,,,,,,5ef36a78ee14310baa87bcc0,2020-12-03_09h09.22.173,lexical_decision_task_MP_exp2,2020.2.8,Win32,60,z,1,0.45127,,,,,,,,0.45127,1,,,,,,307,NW,UN,33,psetch,KIRAFE,z,,,,,,0.27734375,-0.21484375,0,0,0,,0,103,103,366,1,
,,,,,,,,,,,,,,,,,,5ef36a78ee14310baa87bcc0,2020-12-03_09h09.22.173,lexical_decision_task_MP_exp2,2020.2.8,Win32,60,z,1,0.508465,,,,,,,,0.508465,1,,,,,,259,NW,"ID",16,soudal,SOUDAL,z,,,,,,0.27734375,-0.21484375,0,0,0,,0,104,104,318,1,
,,,,,,,,,,,,,,,,,,5ef36a78ee14310baa87bcc0,2020-12-03_09h09.22.173,lexical_decision_task_MP_exp2,2020.2.8,Win32,60,z,0,0.450365,,,,,,,,0.450365,0,,,,,,50,WORD,"ID",16,snatch,SNATCH,m,,,,,,0.27734375,-0.21484375,0,0,0,,0,105,105,109,1,
,,,,,,,,,,,,,,,,,,5ef36a78ee14310baa87bcc0,2020-12-03_09h09.22.173,lexical_decision_task_MP_exp2,2020.2.8,Win32,60,z,1,0.53241,,,,,,,,0.53241,1,,,,,,280,NW,"ID",16,curbol,CURBOL,z,,,,,,0.27734375,-0.21484375,0,0,0,,0,106,106,339,1,
,,,,,,,,,,,,,,,,,,5ef36a78ee14310baa87bcc0,2020-12-03_09h09.22.173,lexical_decision_task_MP_exp2,2020.2.8,Win32,60,z,1,0.39873,,,,,,,,0.39873,1,,,,,,321,NW,UN,33,slanch,MIATOR,z,,,,,,0.27734375,-0.21484375,0,0,0,,0,107,107,380,1,
,,,,,,,,,,,,,,,,,,5ef36a78ee14310baa87bcc0,2020-12-03_09h09.22.173,lexical_decision_task_MP_exp2,2020.2.8,Win32,60,z,1,0.767985,,,,,,,,0.767985,1,,,,,,299,NW,"ID",16,sturch,STURCH,z,,,,,,0.27734375,-0.21484375,0,0,0,,0,108,108,358,1,
,,,,,,,,,,,,,,,,,,5ef36a78ee14310baa87bcc0,2020-12-03_09h09.22.173,lexical_decision_task_MP_exp2,2020.2.8,Win32,60,z,1,0.53473,,,,,,,,0.53473,1,,,,,,378,NW,UN,16,auting,SHRILE,z,,,,,,0.27734375,-0.21484375,0,0,0,,0,109,109,437,1,
,,,,,,,,,,,,,,,,,,5ef36a78ee14310baa87bcc0,2020-12-03_09h09.22.173,lexical_decision_task_MP_exp2,2020.2.8,Win32,60,z,1,0.79963,,,,,,,,0.79963,1,,,,,,464,NW,"ID",33,chaite,CHAITE,z,,,,,,0.27734375,-0.21484375,0,0,0,,0,110,110,283,1,
,,,,,,,,,,,,,,,,,,5ef36a78ee14310baa87bcc0,2020-12-03_09h09.22.173,lexical_decision_task_MP_exp2,2020.2.8,Win32,60,z,1,0.652055,,,,,,,,0.652055,1,,,,,,444,NW,"ID",33,jaunce,JAUNCE,z,,,,,,0.27734375,-0.21484375,0,0,0,,0,111,111,263,1,
,,,,,,,,,,,,,,,,,,5ef36a78ee14310baa87bcc0,2020-12-03_09h09.22.173,lexical_decision_task_MP_exp2,2020.2.8,Win32,60,m,1,0.517875,,,,,,,,0.517875,1,,,,,,145,WORD,UN,16,couple,PARISH,m,,,,,,0.27734375,-0.21484375,0,0,0,,0,112,112,204,1,
,,,,,,,,,,,,,,,,,,5ef36a78ee14310baa87bcc0,2020-12-03_09h09.22.173,lexical_decision_task_MP_exp2,2020.2.8,Win32,60,m,1,0.40124,,,,,,,,0.40124,1,,,,,,127,WORD,UN,16,senior,CASTLE,m,,,,,,0.27734375,-0.21484375,0,0,0,,0,113,113,186,1,
,,,,,,,,,,,,,,,,,,5ef36a78ee14310baa87bcc0,2020-12-03_09h09.22.173,lexical_decision_task_MP_exp2,2020.2.8,Win32,60,z,1,0.642685,,,,,,,,0.642685,1,,,,,,302,NW,UN,33,fiream,MILUER,z,,,,,,0.27734375,-0.21484375,0,0,0,,0,114,114,361,1,
,,,,,,,,,,,,,,,,,,5ef36a78ee14310baa87bcc0,2020-12-03_09h09.22.173,lexical_decision_task_MP_exp2,2020.2.8,Win32,60,z,1,0.51788,,,,,,,,0.51788,1,,,,,,419,NW,UN,16,gushop,SLOUNT,z,,,,,,0.27734375,-0.21484375,0,0,0,,0,115,115,478,1,
,,,,,,,,,,,,,,,,,,5ef36a78ee14310baa87bcc0,2020-12-03_09h09.22.173,lexical_decision_task_MP_exp2,2020.2.8,Win32,60,z,1,0.4084,,,,,,,,0.4084,1,,,,,,330,NW,UN,33,gilfew,KENSOM,z,,,,,,0.27734375,-0.21484375,0,0,0,,0,116,116,389,1,
,,,,,,,,,,,,,,,,,,5ef36a78ee14310baa87bcc0,2020-12-03_09h09.22.173,lexical_decision_task_MP_exp2,2020.2.8,Win32,60,m,1,1.35122,,,,,,,,1.35122,1,,,,,,197,WORD,"ID",33,stream,STREAM,m,,,,,,0.27734375,-0.21484375,0,0,0,,0,117,117,16,1,
,,,,,,,,,,,,,,,,,,5ef36a78ee14310baa87bcc0,2020-12-03_09h09.22.173,lexical_decision_task_MP_exp2,2020.2.8,Win32,60,m,1,0.465145,,,,,,,,0.465145,1,,,,,,96,WORD,UN,33,client,IGNORE,m,,,,,,0.27734375,-0.21484375,0,0,0,,0,118,118,155,1,
,,,,,,,,,,,,,,,,,,5ef36a78ee14310baa87bcc0,2020-12-03_09h09.22.173,lexical_decision_task_MP_exp2,2020.2.8,Win32,60,m,0,0.38451,,,,,,,,0.38451,0,,,,,,437,NW,"ID",33,snapel,SNAPEL,z,,,,,,0.27734375,-0.21484375,0,0,0,,0,119,119,256,1,
,,,,,,,,,,,,,,,,,,5ef36a78ee14310baa87bcc0,2020-12-03_09h09.22.173,lexical_decision_task_MP_exp2,2020.2.8,Win32,60,z,1,0.51044,,,,,,,,0.51044,1,,,,,,287,NW,"ID",16,nymbel,NYMBEL,z,,,,,,0.27734375,-0.21484375,0,0,0,space,0,120,120,346,1,23.531745
,,,,,,,,,,,,,,,,,,5ef36a78ee14310baa87bcc0,2020-12-03_09h09.22.173,lexical_decision_task_MP_exp2,2020.2.8,Win32,60,z,1,0.79112,,,,,,,,0.79112,1,,,,,,458,NW,"ID",33,barcet,BARCET,z,,,,,,0.27734375,-0.21484375,0,0,0,,0,121,121,277,1,
,,,,,,,,,,,,,,,,,,5ef36a78ee14310baa87bcc0,2020-12-03_09h09.22.173,lexical_decision_task_MP_exp2,2020.2.8,Win32,60,z,1,0.45127,,,,,,,,0.45127,1,,,,,,463,NW,"ID",33,kispel,KISPEL,z,,,,,,0.27734375,-0.21484375,0,0,0,,0,122,122,282,1,
,,,,,,,,,,,,,,,,,,5ef36a78ee14310baa87bcc0,2020-12-03_09h09.22.173,lexical_decision_task_MP_exp2,2020.2.8,Win32,60,m,1,0.393345,,,,,,,,0.393345,1,,,,,,51,WORD,"ID",16,hungry,HUNGRY,m,,,,,,0.27734375,-0.21484375,0,0,0,,0,123,123,110,1,
,,,,,,,,,,,,,,,,,,5ef36a78ee14310baa87bcc0,2020-12-03_09h09.22.173,lexical_decision_task_MP_exp2,2020.2.8,Win32,60,z,1,0.50054,,,,,,,,0.50054,1,,,,,,279,NW,"ID",16,celond,CELOND,z,,,,,,0.27734375,-0.21484375,0,0,0,,0,124,124,338,1,
,,,,,,,,,,,,,,,,,,5ef36a78ee14310baa87bcc0,2020-12-03_09h09.22.173,lexical_decision_task_MP_exp2,2020.2.8,Win32,60,m,1,0.46725,,,,,,,,0.46725,1,,,,,,52,WORD,"ID",16,impose,IMPOSE,m,,,,,,0.27734375,-0.21484375,0,0,0,,0,125,125,111,1,
,,,,,,,,,,,,,,,,,,5ef36a78ee14310baa87bcc0,2020-12-03_09h09.22.173,lexical_decision_task_MP_exp2,2020.2.8,Win32,60,m,1,0.39394,,,,,,,,0.39394,1,,,,,,81,WORD,UN,33,stigma,FRIEND,m,,,,,,0.27734375,-0.21484375,0,0,0,,0,126,126,140,1,
,,,,,,,,,,,,,,,,,,5ef36a78ee14310baa87bcc0,2020-12-03_09h09.22.173,lexical_decision_task_MP_exp2,2020.2.8,Win32,60,m,0,0.47361,,,,,,,,0.47361,0,,,,,,247,NW,"ID",16,blarge,BLARGE,z,,,,,,0.27734375,-0.21484375,0,0,0,,0,127,127,306,1,
,,,,,,,,,,,,,,,,,,5ef36a78ee14310baa87bcc0,2020-12-03_09h09.22.173,lexical_decision_task_MP_exp2,2020.2.8,Win32,60,m,1,0.40056,,,,,,,,0.40056,1,,,,,,185,WORD,"ID",33,bother,BOTHER,m,,,,,,0.27734375,-0.21484375,0,0,0,,0,128,128,4,1,
,,,,,,,,,,,,,,,,,,5ef36a78ee14310baa87bcc0,2020-12-03_09h09.22.173,lexical_decision_task_MP_exp2,2020.2.8,Win32,60,m,1,0.57378,,,,,,,,0.57378,1,,,,,,114,WORD,UN,33,guitar,PLACID,m,,,,,,0.27734375,-0.21484375,0,0,0,,0,129,129,173,1,
,,,,,,,,,,,,,,,,,,5ef36a78ee14310baa87bcc0,2020-12-03_09h09.22.173,lexical_decision_task_MP_exp2,2020.2.8,Win32,60,z,1,0.585045,,,,,,,,0.585045,1,,,,,,411,NW,UN,16,jiluer,ORCHIN,z,,,,,,0.27734375,-0.21484375,0,0,0,,0,130,130,470,1,
,,,,,,,,,,,,,,,,,,5ef36a78ee14310baa87bcc0,2020-12-03_09h09.22.173,lexical_decision_task_MP_exp2,2020.2.8,Win32,60,m,1,0.61771,,,,,,,,0.61771,1,,,,,,194,WORD,"ID",33,absent,ABSENT,m,,,,,,0.27734375,-0.21484375,0,0,0,,0,131,131,13,1,
,,,,,,,,,,,,,,,,,,5ef36a78ee14310baa87bcc0,2020-12-03_09h09.22.173,lexical_decision_task_MP_exp2,2020.2.8,Win32,60,z,1,0.667835,,,,,,,,0.667835,1,,,,,,413,NW,UN,16,serbol,EQUATS,z,,,,,,0.27734375,-0.21484375,0,0,0,,0,132,132,472,1,
,,,,,,,,,,,,,,,,,,5ef36a78ee14310baa87bcc0,2020-12-03_09h09.22.173,lexical_decision_task_MP_exp2,2020.2.8,Win32,60,m,1,0.487565,,,,,,,,0.487565,1,,,,,,110,WORD,UN,33,induce,POLITE,m,,,,,,0.27734375,-0.21484375,0,0,0,,0,133,133,169,1,
,,,,,,,,,,,,,,,,,,5ef36a78ee14310baa87bcc0,2020-12-03_09h09.22.173,lexical_decision_task_MP_exp2,2020.2.8,Win32,60,m,1,0.501125,,,,,,,,0.501125,1,,,,,,142,WORD,UN,16,reason,SPRUCE,m,,,,,,0.27734375,-0.21484375,0,0,0,,0,134,134,201,1,
,,,,,,,,,,,,,,,,,,5ef36a78ee14310baa87bcc0,2020-12-03_09h09.22.173,lexical_decision_task_MP_exp2,2020.2.8,Win32,60,m,1,0.423935,,,,,,,,0.423935,1,,,,,,48,WORD,"ID",16,walnut,WALNUT,m,,,,,,0.27734375,-0.21484375,0,0,0,,0,135,135,107,1,
,,,,,,,,,,,,,,,,,,5ef36a78ee14310baa87bcc0,2020-12-03_09h09.22.173,lexical_decision_task_MP_exp2,2020.2.8,Win32,60,m,1,0.48077,,,,,,,,0.48077,1,,,,,,30,WORD,"ID",16,orient,ORIENT,m,,,,,,0.27734375,-0.21484375,0,0,0,,0,136,136,89,1,
,,,,,,,,,,,,,,,,,,5ef36a78ee14310baa87bcc0,2020-12-03_09h09.22.173,lexical_decision_task_MP_exp2,2020.2.8,Win32,60,m,1,0.53487,,,,,,,,0.53487,1,,,,,,19,WORD,"ID",16,patron,PATRON,m,,,,,,0.27734375,-0.21484375,0,0,0,,0,137,137,78,1,
,,,,,,,,,,,,,,,,,,5ef36a78ee14310baa87bcc0,2020-12-03_09h09.22.173,lexical_decision_task_MP_exp2,2020.2.8,Win32,60,m,1,0.432515,,,,,,,,0.432515,1,,,,,,232,WORD,"ID",33,inject,INJECT,m,,,,,,0.27734375,-0.21484375,0,0,0,,0,138,138,51,1,
,,,,,,,,,,,,,,,,,,5ef36a78ee14310baa87bcc0,2020-12-03_09h09.22.173,lexical_decision_task_MP_exp2,2020.2.8,Win32,60,m,1,0.34193,,,,,,,,0.34193,1,,,,,,181,WORD,"ID",33,glance,GLANCE,m,,,,,,0.27734375,-0.21484375,0,0,0,,0,139,139,0,1,
,,,,,,,,,,,,,,,,,,5ef36a78ee14310baa87bcc0,2020-12-03_09h09.22.173,lexical_decision_task_MP_exp2,2020.2.8,Win32,60,m,1,0.364485,,,,,,,,0.364485,1,,,,,,176,WORD,UN,16,advent,STRIFE,m,,,,,,0.27734375,-0.21484375,0,0,0,,0,140,140,235,1,
,,,,,,,,,,,,,,,,,,5ef36a78ee14310baa87bcc0,2020-12-03_09h09.22.173,lexical_decision_task_MP_exp2,2020.2.8,Win32,60,z,1,0.55116,,,,,,,,0.55116,1,,,,,,386,NW,UN,16,gronce,ANCUST,z,,,,,,0.27734375,-0.21484375,0,0,0,,0,141,141,445,1,
,,,,,,,,,,,,,,,,,,5ef36a78ee14310baa87bcc0,2020-12-03_09h09.22.173,lexical_decision_task_MP_exp2,2020.2.8,Win32,60,z,1,0.43736,,,,,,,,0.43736,1,,,,,,298,NW,"ID",16,piergy,PIERGY,z,,,,,,0.27734375,-0.21484375,0,0,0,,0,142,142,357,1,
,,,,,,,,,,,,,,,,,,5ef36a78ee14310baa87bcc0,2020-12-03_09h09.22.173,lexical_decision_task_MP_exp2,2020.2.8,Win32,60,z,1,0.510145,,,,,,,,0.510145,1,,,,,,433,NW,"ID",33,drance,DRANCE,z,,,,,,0.27734375,-0.21484375,0,0,0,,0,143,143,252,1,
,,,,,,,,,,,,,,,,,,5ef36a78ee14310baa87bcc0,2020-12-03_09h09.22.173,lexical_decision_task_MP_exp2,2020.2.8,Win32,60,m,1,0.55034,,,,,,,,0.55034,1,,,,,,179,WORD,UN,16,silent,BASKET,m,,,,,,0.27734375,-0.21484375,0,0,0,,0,144,144,238,1,
,,,,,,,,,,,,,,,,,,5ef36a78ee14310baa87bcc0,2020-12-03_09h09.22.173,lexical_decision_task_MP_exp2,2020.2.8,Win32,60,z,1,0.475045,,,,,,,,0.475045,1,,,,,,241,NW,"ID",16,smenco,SMENCO,z,,,,,,0.27734375,-0.21484375,0,0,0,,0,145,145,300,1,
,,,,,,,,,,,,,,,,,,5ef36a78ee14310baa87bcc0,2020-12-03_09h09.22.173,lexical_decision_task_MP_exp2,2020.2.8,Win32,60,z,1,0.6012,,,,,,,,0.6012,1,,,,,,351,NW,UN,33,tringe,TIESCH,z,,,,,,0.27734375,-0.21484375,0,0,0,,0,146,146,410,1,
,,,,,,,,,,,,,,,,,,5ef36a78ee14310baa87bcc0,2020-12-03_09h09.22.173,lexical_decision_task_MP_exp2,2020.2.8,Win32,60,z,1,0.475445,,,,,,,,0.475445,1,,,,,,418,NW,UN,16,slount,SUIDLE,z,,,,,,0.27734375,-0.21484375,0,0,0,,0,147,147,477,1,
,,,,,,,,,,,,,,,,,,5ef36a78ee14310baa87bcc0,2020-12-03_09h09.22.173,lexical_decision_task_MP_exp2,2020.2.8,Win32,60,z,1,0.58019,,,,,,,,0.58019,1,,,,,,435,NW,"ID",33,impurb,IMPURB,z,,,,,,0.27734375,-0.21484375,0,0,0,,0,148,148,254,1,
,,,,,,,,,,,,,,,,,,5ef36a78ee14310baa87bcc0,2020-12-03_09h09.22.173,lexical_decision_task_MP_exp2,2020.2.8,Win32,60,z,1,0.40781,,,,,,,,0.40781,1,,,,,,305,NW,UN,33,sounge,FORGLE,z,,,,,,0.27734375,-0.21484375,0,0,0,,0,149,149,364,1,
,,,,,,,,,,,,,,,,,,5ef36a78ee14310baa87bcc0,2020-12-03_09h09.22.173,lexical_decision_task_MP_exp2,2020.2.8,Win32,60,z,1,0.44179,,,,,,,,0.44179,1,,,,,,263,NW,"ID",16,dolica,DOLICA,z,,,,,,0.27734375,-0.21484375,0,0,0,,0,150,150,322,1,
,,,,,,,,,,,,,,,,,,5ef36a78ee14310baa87bcc0,2020-12-03_09h09.22.173,lexical_decision_task_MP_exp2,2020.2.8,Win32,60,z,1,0.51809,,,,,,,,0.51809,1,,,,,,480,NW,"ID",33,robuly,ROBULY,z,,,,,,0.27734375,-0.21484375,0,0,0,,0,151,151,299,1,
,,,,,,,,,,,,,,,,,,5ef36a78ee14310baa87bcc0,2020-12-03_09h09.22.173,lexical_decision_task_MP_exp2,2020.2.8,Win32,60,z,1,0.367025,,,,,,,,0.367025,1,,,,,,285,NW,"ID",16,prudge,PRUDGE,z,,,,,,0.27734375,-0.21484375,0,0,0,,0,152,152,344,1,
,,,,,,,,,,,,,,,,,,5ef36a78ee14310baa87bcc0,2020-12-03_09h09.22.173,lexical_decision_task_MP_exp2,2020.2.8,Win32,60,m,1,0.538795,,,,,,,,0.538795,1,,,,,,169,WORD,UN,16,pounce,GENIUS,m,,,,,,0.27734375,-0.21484375,0,0,0,,0,153,153,228,1,
,,,,,,,,,,,,,,,,,,5ef36a78ee14310baa87bcc0,2020-12-03_09h09.22.173,lexical_decision_task_MP_exp2,2020.2.8,Win32,60,z,1,0.56504,,,,,,,,0.56504,1,,,,,,252,NW,"ID",16,stapod,STAPOD,z,,,,,,0.27734375,-0.21484375,0,0,0,,0,154,154,311,1,
,,,,,,,,,,,,,,,,,,5ef36a78ee14310baa87bcc0,2020-12-03_09h09.22.173,lexical_decision_task_MP_exp2,2020.2.8,Win32,60,z,1,0.412495,,,,,,,,0.412495,1,,,,,,297,NW,"ID",16,fertic,FERTIC,z,,,,,,0.27734375,-0.21484375,0,0,0,,0,155,155,356,1,
,,,,,,,,,,,,,,,,,,5ef36a78ee14310baa87bcc0,2020-12-03_09h09.22.173,lexical_decision_task_MP_exp2,2020.2.8,Win32,60,m,1,0.46724,,,,,,,,0.46724,1,,,,,,193,WORD,"ID",33,object,OBJECT,m,,,,,,0.27734375,-0.21484375,0,0,0,,0,156,156,12,1,
,,,,,,,,,,,,,,,,,,5ef36a78ee14310baa87bcc0,2020-12-03_09h09.22.173,lexical_decision_task_MP_exp2,2020.2.8,Win32,60,z,1,0.46512,,,,,,,,0.46512,1,,,,,,322,NW,UN,33,rosail,SLANCH,z,,,,,,0.27734375,-0.21484375,0,0,0,,0,157,157,381,1,
,,,,,,,,,,,,,,,,,,5ef36a78ee14310baa87bcc0,2020-12-03_09h09.22.173,lexical_decision_task_MP_exp2,2020.2.8,Win32,60,z,1,0.39965,,,,,,,,0.39965,1,,,,,,440,NW,"ID",33,saride,SARIDE,z,,,,,,0.27734375,-0.21484375,0,0,0,,0,158,158,259,1,
,,,,,,,,,,,,,,,,,,5ef36a78ee14310baa87bcc0,2020-12-03_09h09.22.173,lexical_decision_task_MP_exp2,2020.2.8,Win32,60,z,1,0.416475,,,,,,,,0.416475,1,,,,,,341,NW,UN,33,randow,MYRTIE,z,,,,,,0.27734375,-0.21484375,0,0,0,,0,159,159,400,1,
,,,,,,,,,,,,,,,,,,5ef36a78ee14310baa87bcc0,2020-12-03_09h09.22.173,lexical_decision_task_MP_exp2,2020.2.8,Win32,60,z,1,0.351315,,,,,,,,0.351315,1,,,,,,475,NW,"ID",33,pebric,PEBRIC,z,,,,,,0.27734375,-0.21484375,0,0,0,,0,160,160,294,1,
,,,,,,,,,,,,,,,,,,5ef36a78ee14310baa87bcc0,2020-12-03_09h09.22.173,lexical_decision_task_MP_exp2,2020.2.8,Win32,60,z,1,0.348125,,,,,,,,0.348125,1,,,,,,415,NW,UN,16,pathel,HIGSTA,z,,,,,,0.27734375,-0.21484375,0,0,0,,0,161,161,474,1,
,,,,,,,,,,,,,,,,,,5ef36a78ee14310baa87bcc0,2020-12-03_09h09.22.173,lexical_decision_task_MP_exp2,2020.2.8,Win32,60,z,0,0.26515,,,,,,,,0.26515,0,,,,,,149,WORD,UN,16,random,INVADE,m,,,,,,0.27734375,-0.21484375,0,0,0,,0,162,162,208,1,
,,,,,,,,,,,,,,,,,,5ef36a78ee14310baa87bcc0,2020-12-03_09h09.22.173,lexical_decision_task_MP_exp2,2020.2.8,Win32,60,z,0,0.381895,,,,,,,,0.381895,0,,,,,,3,WORD,"ID",16,knight,KNIGHT,m,,,,,,0.27734375,-0.21484375,0,0,0,,0,163,163,62,1,
,,,,,,,,,,,,,,,,,,5ef36a78ee14310baa87bcc0,2020-12-03_09h09.22.173,lexical_decision_task_MP_exp2,2020.2.8,Win32,60,z,1,0.56952,,,,,,,,0.56952,1,,,,,,406,NW,UN,16,suiver,NOUPLY,z,,,,,,0.27734375,-0.21484375,0,0,0,,0,164,164,465,1,
,,,,,,,,,,,,,,,,,,5ef36a78ee14310baa87bcc0,2020-12-03_09h09.22.173,lexical_decision_task_MP_exp2,2020.2.8,Win32,60,z,1,0.74013,,,,,,,,0.74013,1,,,,,,443,NW,"ID",33,dorsex,DORSEX,z,,,,,,0.27734375,-0.21484375,0,0,0,,0,165,165,262,1,
,,,,,,,,,,,,,,,,,,5ef36a78ee14310baa87bcc0,2020-12-03_09h09.22.173,lexical_decision_task_MP_exp2,2020.2.8,Win32,60,z,1,0.447955,,,,,,,,0.447955,1,,,,,,374,NW,UN,16,yorque,SLIANT,z,,,,,,0.27734375,-0.21484375,0,0,0,,0,166,166,433,1,
,,,,,,,,,,,,,,,,,,5ef36a78ee14310baa87bcc0,2020-12-03_09h09.22.173,lexical_decision_task_MP_exp2,2020.2.8,Win32,60,m,1,0.422265,,,,,,,,0.422265,1,,,,,,182,WORD,"ID",33,winter,WINTER,m,,,,,,0.27734375,-0.21484375,0,0,0,,0,167,167,1,1,
,,,,,,,,,,,,,,,,,,5ef36a78ee14310baa87bcc0,2020-12-03_09h09.22.173,lexical_decision_task_MP_exp2,2020.2.8,Win32,60,z,1,0.492495,,,,,,,,0.492495,1,,,,,,306,NW,UN,33,kirafe,SOUNGE,z,,,,,,0.27734375,-0.21484375,0,0,0,,0,168,168,365,1,
,,,,,,,,,,,,,,,,,,5ef36a78ee14310baa87bcc0,2020-12-03_09h09.22.173,lexical_decision_task_MP_exp2,2020.2.8,Win32,60,z,0,0.44819,,,,,,,,0.44819,0,,,,,,139,WORD,UN,16,prince,DEBRIS,m,,,,,,0.27734375,-0.21484375,0,0,0,,0,169,169,198,1,
,,,,,,,,,,,,,,,,,,5ef36a78ee14310baa87bcc0,2020-12-03_09h09.22.173,lexical_decision_task_MP_exp2,2020.2.8,Win32,60,z,1,0.40293,,,,,,,,0.40293,1,,,,,,336,NW,UN,33,rejols,GHODUS,z,,,,,,0.27734375,-0.21484375,0,0,0,,0,170,170,395,1,
,,,,,,,,,,,,,,,,,,5ef36a78ee14310baa87bcc0,2020-12-03_09h09.22.173,lexical_decision_task_MP_exp2,2020.2.8,Win32,60,m,1,0.530825,,,,,,,,0.530825,1,,,,,,32,WORD,"ID",16,buckle,BUCKLE,m,,,,,,0.27734375,-0.21484375,0,0,0,,0,171,171,91,1,
,,,,,,,,,,,,,,,,,,5ef36a78ee14310baa87bcc0,2020-12-03_09h09.22.173,lexical_decision_task_MP_exp2,2020.2.8,Win32,60,m,0,0.498735,,,,,,,,0.498735,0,,,,,,454,NW,"ID",33,scouge,SCOUGE,z,,,,,,0.27734375,-0.21484375,0,0,0,,0,172,172,273,1,
,,,,,,,,,,,,,,,,,,5ef36a78ee14310baa87bcc0,2020-12-03_09h09.22.173,lexical_decision_task_MP_exp2,2020.2.8,Win32,60,m,1,0.504185,,,,,,,,0.504185,1,,,,,,105,WORD,UN,33,ransom,NUMBER,m,,,,,,0.27734375,-0.21484375,0,0,0,,0,173,173,164,1,
,,,,,,,,,,,,,,,,,,5ef36a78ee14310baa87bcc0,2020-12-03_09h09.22.173,lexical_decision_task_MP_exp2,2020.2.8,Win32,60,m,1,0.41517,,,,,,,,0.41517,1,,,,,,174,WORD,UN,16,fabric,TURKEY,m,,,,,,0.27734375,-0.21484375,0,0,0,,0,174,174,233,1,
,,,,,,,,,,,,,,,,,,5ef36a78ee14310baa87bcc0,2020-12-03_09h09.22.173,lexical_decision_task_MP_exp2,2020.2.8,Win32,60,m,1,0.473575,,,,,,,,0.473575,1,,,,,,120,WORD,UN,33,ponder,STRAIN,m,,,,,,0.27734375,-0.21484375,0,0,0,,0,175,175,179,1,
,,,,,,,,,,,,,,,,,,5ef36a78ee14310baa87bcc0,2020-12-03_09h09.22.173,lexical_decision_task_MP_exp2,2020.2.8,Win32,60,m,1,0.418295,,,,,,,,0.418295,1,,,,,,236,WORD,"ID",33,pirate,PIRATE,m,,,,,,0.27734375,-0.21484375,0,0,0,,0,176,176,55,1,
,,,,,,,,,,,,,,,,,,5ef36a78ee14310baa87bcc0,2020-12-03_09h09.22.173,lexical_decision_task_MP_exp2,2020.2.8,Win32,60,z,1,0.502475,,,,,,,,0.502475,1,,,,,,255,NW,"ID",16,apight,APIGHT,z,,,,,,0.27734375,-0.21484375,0,0,0,,0,177,177,314,1,
,,,,,,,,,,,,,,,,,,5ef36a78ee14310baa87bcc0,2020-12-03_09h09.22.173,lexical_decision_task_MP_exp2,2020.2.8,Win32,60,z,1,0.448795,,,,,,,,0.448795,1,,,,,,245,NW,"ID",16,anougs,ANOUGS,z,,,,,,0.27734375,-0.21484375,0,0,0,,0,178,178,304,1,
,,,,,,,,,,,,,,,,,,5ef36a78ee14310baa87bcc0,2020-12-03_09h09.22.173,lexical_decision_task_MP_exp2,2020.2.8,Win32,60,m,1,0.58368,,,,,,,,0.58368,1,,,,,,5,WORD,"ID",16,plunge,PLUNGE,m,,,,,,0.27734375,-0.21484375,0,0,0,,0,179,179,64,1,
,,,,,,,,,,,,,,,,,,5ef36a78ee14310baa87bcc0,2020-12-03_09h09.22.173,lexical_decision_task_MP_exp2,2020.2.8,Win32,60,m,1,0.5172,,,,,,,,0.5172,1,,,,,,69,WORD,UN,33,square,PLENTY,m,,,,,,0.27734375,-0.21484375,0,0,0,,0,180,180,128,1,
,,,,,,,,,,,,,,,,,,5ef36a78ee14310baa87bcc0,2020-12-03_09h09.22.173,lexical_decision_task_MP_exp2,2020.2.8,Win32,60,z,1,0.515665,,,,,,,,0.515665,1,,,,,,436,NW,"ID",33,frutan,FRUTAN,z,,,,,,0.27734375,-0.21484375,0,0,0,,0,181,181,255,1,
,,,,,,,,,,,,,,,,,,5ef36a78ee14310baa87bcc0,2020-12-03_09h09.22.173,lexical_decision_task_MP_exp2,2020.2.8,Win32,60,z,1,0.44877,,,,,,,,0.44877,1,,,,,,432,NW,"ID",33,lunker,LUNKER,z,,,,,,0.27734375,-0.21484375,0,0,0,,0,182,182,251,1,
,,,,,,,,,,,,,,,,,,5ef36a78ee14310baa87bcc0,2020-12-03_09h09.22.173,lexical_decision_task_MP_exp2,2020.2.8,Win32,60,z,1,0.452535,,,,,,,,0.452535,1,,,,,,456,NW,"ID",33,broget,BROGET,z,,,,,,0.27734375,-0.21484375,0,0,0,,0,183,183,275,1,
,,,,,,,,,,,,,,,,,,5ef36a78ee14310baa87bcc0,2020-12-03_09h09.22.173,lexical_decision_task_MP_exp2,2020.2.8,Win32,60,z,1,0.39849,,,,,,,,0.39849,1,,,,,,372,NW,UN,16,bigent,RAMILY,z,,,,,,0.27734375,-0.21484375,0,0,0,,0,184,184,431,1,
,,,,,,,,,,,,,,,,,,5ef36a78ee14310baa87bcc0,2020-12-03_09h09.22.173,lexical_decision_task_MP_exp2,2020.2.8,Win32,60,m,1,0.482665,,,,,,,,0.482665,1,,,,,,6,WORD,"ID",16,bundle,BUNDLE,m,,,,,,0.27734375,-0.21484375,0,0,0,,0,185,185,65,1,
,,,,,,,,,,,,,,,,,,5ef36a78ee14310baa87bcc0,2020-12-03_09h09.22.173,lexical_decision_task_MP_exp2,2020.2.8,Win32,60,z,0,0.422005,,,,,,,,0.422005,0,,,,,,125,WORD,UN,16,enough,NICKEL,m,,,,,,0.27734375,-0.21484375,0,0,0,,0,186,186,184,1,
,,,,,,,,,,,,,,,,,,5ef36a78ee14310baa87bcc0,2020-12-03_09h09.22.173,lexical_decision_task_MP_exp2,2020.2.8,Win32,60,m,1,0.575895,,,,,,,,0.575895,1,,,,,,162,WORD,UN,16,string,CANDLE,m,,,,,,0.27734375,-0.21484375,0,0,0,,0,187,187,221,1,
,,,,,,,,,,,,,,,,,,5ef36a78ee14310baa87bcc0,2020-12-03_09h09.22.173,lexical_decision_task_MP_exp2,2020.2.8,Win32,60,z,1,0.549045,,,,,,,,0.549045,1,,,,,,468,NW,"ID",33,wictor,WICTOR,z,,,,,,0.27734375,-0.21484375,0,0,0,,0,188,188,287,1,
,,,,,,,,,,,,,,,,,,5ef36a78ee14310baa87bcc0,2020-12-03_09h09.22.173,lexical_decision_task_MP_exp2,2020.2.8,Win32,60,z,1,0.49869,,,,,,,,0.49869,1,,,,,,293,NW,"ID",16,swance,SWANCE,z,,,,,,0.27734375,-0.21484375,0,0,0,,0,189,189,352,1,
,,,,,,,,,,,,,,,,,,5ef36a78ee14310baa87bcc0,2020-12-03_09h09.22.173,lexical_decision_task_MP_exp2,2020.2.8,Win32,60,z,0,0.47552,,,,,,,,0.47552,0,,,,,,77,WORD,UN,33,column,RACKET,m,,,,,,0.27734375,-0.21484375,0,0,0,,0,190,190,136,1,
,,,,,,,,,,,,,,,,,,5ef36a78ee14310baa87bcc0,2020-12-03_09h09.22.173,lexical_decision_task_MP_exp2,2020.2.8,Win32,60,m,1,0.55093,,,,,,,,0.55093,1,,,,,,101,WORD,UN,33,direct,WRENCH,m,,,,,,0.27734375,-0.21484375,0,0,0,,0,191,191,160,1,
,,,,,,,,,,,,,,,,,,5ef36a78ee14310baa87bcc0,2020-12-03_09h09.22.173,lexical_decision_task_MP_exp2,2020.2.8,Win32,60,z,1,0.4396,,,,,,,,0.4396,1,,,,,,349,NW,UN,33,nagurs,ASYLEN,z,,,,,,0.27734375,-0.21484375,0,0,0,,0,192,192,408,1,
,,,,,,,,,,,,,,,,,,5ef36a78ee14310baa87bcc0,2020-12-03_09h09.22.173,lexical_decision_task_MP_exp2,2020.2.8,Win32,60,z,1,0.482845,,,,,,,,0.482845,1,,,,,,350,NW,UN,33,tiesch,NAGURS,z,,,,,,0.27734375,-0.21484375,0,0,0,,0,193,193,409,1,
,,,,,,,,,,,,,,,,,,5ef36a78ee14310baa87bcc0,2020-12-03_09h09.22.173,lexical_decision_task_MP_exp2,2020.2.8,Win32,60,z,1,0.59874,,,,,,,,0.59874,1,,,,,,409,NW,UN,16,tunory,ELOPIA,z,,,,,,0.27734375,-0.21484375,0,0,0,,0,194,194,468,1,
,,,,,,,,,,,,,,,,,,5ef36a78ee14310baa87bcc0,2020-12-03_09h09.22.173,lexical_decision_task_MP_exp2,2020.2.8,Win32,60,m,1,0.5328,,,,,,,,0.5328,1,,,,,,49,WORD,"ID",16,survey,SURVEY,m,,,,,,0.27734375,-0.21484375,0,0,0,,0,195,195,108,1,
,,,,,,,,,,,,,,,,,,5ef36a78ee14310baa87bcc0,2020-12-03_09h09.22.173,lexical_decision_task_MP_exp2,2020.2.8,Win32,60,m,1,0.45319,,,,,,,,0.45319,1,,,,,,21,WORD,"ID",16,simple,SIMPLE,m,,,,,,0.27734375,-0.21484375,0,0,0,,0,196,196,80,1,
,,,,,,,,,,,,,,,,,,5ef36a78ee14310baa87bcc0,2020-12-03_09h09.22.173,lexical_decision_task_MP_exp2,2020.2.8,Win32,60,z,1,0.799515,,,,,,,,0.799515,1,,,,,,270,NW,"ID",16,wrimsy,WRIMSY,z,,,,,,0.27734375,-0.21484375,0,0,0,,0,197,197,329,1,
,,,,,,,,,,,,,,,,,,5ef36a78ee14310baa87bcc0,2020-12-03_09h09.22.173,lexical_decision_task_MP_exp2,2020.2.8,Win32,60,z,1,0.732855,,,,,,,,0.732855,1,,,,,,465,NW,"ID",33,whivex,WHIVEX,z,,,,,,0.27734375,-0.21484375,0,0,0,,0,198,198,284,1,
,,,,,,,,,,,,,,,,,,5ef36a78ee14310baa87bcc0,2020-12-03_09h09.22.173,lexical_decision_task_MP_exp2,2020.2.8,Win32,60,m,1,0.517235,,,,,,,,0.517235,1,,,,,,196,WORD,"ID",33,credit,CREDIT,m,,,,,,0.27734375,-0.21484375,0,0,0,,0,199,199,15,1,
,,,,,,,,,,,,,,,,,,5ef36a78ee14310baa87bcc0,2020-12-03_09h09.22.173,lexical_decision_task_MP_exp2,2020.2.8,Win32,60,m,1,0.51619,,,,,,,,0.51619,1,,,,,,112,WORD,UN,33,chorus,BREATH,m,,,,,,0.27734375,-0.21484375,0,0,0,,0,200,200,171,1,
,,,,,,,,,,,,,,,,,,5ef36a78ee14310baa87bcc0,2020-12-03_09h09.22.173,lexical_decision_task_MP_exp2,2020.2.8,Win32,60,z,1,0.58231,,,,,,,,0.58231,1,,,,,,358,NW,UN,33,fonver,FLEACK,z,,,,,,0.27734375,-0.21484375,0,0,0,,0,201,201,417,1,
,,,,,,,,,,,,,,,,,,5ef36a78ee14310baa87bcc0,2020-12-03_09h09.22.173,lexical_decision_task_MP_exp2,2020.2.8,Win32,60,m,1,0.48651,,,,,,,,0.48651,1,,,,,,140,WORD,UN,16,chrome,PRINCE,m,,,,,,0.27734375,-0.21484375,0,0,0,,0,202,202,199,1,
,,,,,,,,,,,,,,,,,,5ef36a78ee14310baa87bcc0,2020-12-03_09h09.22.173,lexical_decision_task_MP_exp2,2020.2.8,Win32,60,m,1,0.392985,,,,,,,,0.392985,1,,,,,,172,WORD,UN,16,shower,PATROL,m,,,,,,0.27734375,-0.21484375,0,0,0,,0,203,203,231,1,
,,,,,,,,,,,,,,,,,,5ef36a78ee14310baa87bcc0,2020-12-03_09h09.22.173,lexical_decision_task_MP_exp2,2020.2.8,Win32,60,m,1,0.39836,,,,,,,,0.39836,1,,,,,,146,WORD,UN,16,garlic,COUPLE,m,,,,,,0.27734375,-0.21484375,0,0,0,,0,204,204,205,1,
,,,,,,,,,,,,,,,,,,5ef36a78ee14310baa87bcc0,2020-12-03_09h09.22.173,lexical_decision_task_MP_exp2,2020.2.8,Win32,60,z,1,0.451815,,,,,,,,0.451815,1,,,,,,474,NW,"ID",33,hablin,HABLIN,z,,,,,,0.27734375,-0.21484375,0,0,0,,0,205,205,293,1,
,,,,,,,,,,,,,,,,,,5ef36a78ee14310baa87bcc0,2020-12-03_09h09.22.173,lexical_decision_task_MP_exp2,2020.2.8,Win32,60,z,1,0.49956,,,,,,,,0.49956,1,,,,,,276,NW,"ID",16,yarmon,YARMON,z,,,,,,0.27734375,-0.21484375,0,0,0,,0,206,206,335,1,
,,,,,,,,,,,,,,,,,,5ef36a78ee14310baa87bcc0,2020-12-03_09h09.22.173,lexical_decision_task_MP_exp2,2020.2.8,Win32,60,m,1,0.64859,,,,,,,,0.64859,1,,,,,,215,WORD,"ID",33,phobia,PHOBIA,m,,,,,,0.27734375,-0.21484375,0,0,0,,0,207,207,34,1,
,,,,,,,,,,,,,,,,,,5ef36a78ee14310baa87bcc0,2020-12-03_09h09.22.173,lexical_decision_task_MP_exp2,2020.2.8,Win32,60,m,0,0.48114,,,,,,,,0.48114,0,,,,,,380,NW,UN,16,huniek,CAVORY,z,,,,,,0.27734375,-0.21484375,0,0,0,,0,208,208,439,1,
,,,,,,,,,,,,,,,,,,5ef36a78ee14310baa87bcc0,2020-12-03_09h09.22.173,lexical_decision_task_MP_exp2,2020.2.8,Win32,60,m,1,0.935835,,,,,,,,0.935835,1,,,,,,46,WORD,"ID",16,single,SINGLE,m,,,,,,0.27734375,-0.21484375,0,0,0,,0,209,209,105,1,
,,,,,,,,,,,,,,,,,,5ef36a78ee14310baa87bcc0,2020-12-03_09h09.22.173,lexical_decision_task_MP_exp2,2020.2.8,Win32,60,z,1,0.46626,,,,,,,,0.46626,1,,,,,,387,NW,UN,16,cragin,GRONCE,z,,,,,,0.27734375,-0.21484375,0,0,0,,0,210,210,446,1,
,,,,,,,,,,,,,,,,,,5ef36a78ee14310baa87bcc0,2020-12-03_09h09.22.173,lexical_decision_task_MP_exp2,2020.2.8,Win32,60,m,0,0.54883,,,,,,,,0.54883,0,,,,,,268,NW,"ID",16,packes,PACKES,z,,,,,,0.27734375,-0.21484375,0,0,0,,0,211,211,327,1,
,,,,,,,,,,,,,,,,,,5ef36a78ee14310baa87bcc0,2020-12-03_09h09.22.173,lexical_decision_task_MP_exp2,2020.2.8,Win32,60,z,1,0.916785,,,,,,,,0.916785,1,,,,,,340,NW,UN,33,myrtie,FIATCH,z,,,,,,0.27734375,-0.21484375,0,0,0,,0,212,212,399,1,
,,,,,,,,,,,,,,,,,,5ef36a78ee14310baa87bcc0,2020-12-03_09h09.22.173,lexical_decision_task_MP_exp2,2020.2.8,Win32,60,z,1,0.46716,,,,,,,,0.46716,1,,,,,,430,NW,"ID",33,caroey,CAROEY,z,,,,,,0.27734375,-0.21484375,0,0,0,,0,213,213,249,1,
,,,,,,,,,,,,,,,,,,5ef36a78ee14310baa87bcc0,2020-12-03_09h09.22.173,lexical_decision_task_MP_exp2,2020.2.8,Win32,60,z,1,0.437945,,,,,,,,0.437945,1,,,,,,381,NW,UN,16,sarley,HUNIEK,z,,,,,,0.27734375,-0.21484375,0,0,0,,0,214,214,440,1,
,,,,,,,,,,,,,,,,,,5ef36a78ee14310baa87bcc0,2020-12-03_09h09.22.173,lexical_decision_task_MP_exp2,2020.2.8,Win32,60,m,1,0.51811,,,,,,,,0.51811,1,,,,,,78,WORD,UN,33,theory,COLUMN,m,,,,,,0.27734375,-0.21484375,0,0,0,,0,215,215,137,1,
,,,,,,,,,,,,,,,,,,5ef36a78ee14310baa87bcc0,2020-12-03_09h09.22.173,lexical_decision_task_MP_exp2,2020.2.8,Win32,60,m,1,0.573305,,,,,,,,0.573305,1,,,,,,47,WORD,"ID",16,income,INCOME,m,,,,,,0.27734375,-0.21484375,0,0,0,,0,216,216,106,1,
,,,,,,,,,,,,,,,,,,5ef36a78ee14310baa87bcc0,2020-12-03_09h09.22.173,lexical_decision_task_MP_exp2,2020.2.8,Win32,60,z,1,0.449005,,,,,,,,0.449005,1,,,,,,400,NW,UN,16,mustil,WEAROX,z,,,,,,0.27734375,-0.21484375,0,0,0,,0,217,217,459,1,
,,,,,,,,,,,,,,,,,,5ef36a78ee14310baa87bcc0,2020-12-03_09h09.22.173,lexical_decision_task_MP_exp2,2020.2.8,Win32,60,m,1,0.39771,,,,,,,,0.39771,1,,,,,,129,WORD,UN,16,stupid,MARVEL,m,,,,,,0.27734375,-0.21484375,0,0,0,,0,218,218,188,1,
,,,,,,,,,,,,,,,,,,5ef36a78ee14310baa87bcc0,2020-12-03_09h09.22.173,lexical_decision_task_MP_exp2,2020.2.8,Win32,60,m,1,0.366595,,,,,,,,0.366595,1,,,,,,98,WORD,UN,33,fluent,BELONG,m,,,,,,0.27734375,-0.21484375,0,0,0,,0,219,219,157,1,
,,,,,,,,,,,,,,,,,,5ef36a78ee14310baa87bcc0,2020-12-03_09h09.22.173,lexical_decision_task_MP_exp2,2020.2.8,Win32,60,m,1,0.329015,,,,,,,,0.329015,1,,,,,,211,WORD,"ID",33,infect,INFECT,m,,,,,,0.27734375,-0.21484375,0,0,0,,0,220,220,30,1,
,,,,,,,,,,,,,,,,,,5ef36a78ee14310baa87bcc0,2020-12-03_09h09.22.173,lexical_decision_task_MP_exp2,2020.2.8,Win32,60,z,0,0.433695,,,,,,,,0.433695,0,,,,,,221,WORD,"ID",33,mascot,MASCOT,m,,,,,,0.27734375,-0.21484375,0,0,0,,0,221,221,40,1,
,,,,,,,,,,,,,,,,,,5ef36a78ee14310baa87bcc0,2020-12-03_09h09.22.173,lexical_decision_task_MP_exp2,2020.2.8,Win32,60,m,1,0.53994,,,,,,,,0.53994,1,,,,,,22,WORD,"ID",16,jockey,JOCKEY,m,,,,,,0.27734375,-0.21484375,0,0,0,,0,222,222,81,1,
,,,,,,,,,,,,,,,,,,5ef36a78ee14310baa87bcc0,2020-12-03_09h09.22.173,lexical_decision_task_MP_exp2,2020.2.8,Win32,60,m,1,0.319135,,,,,,,,0.319135,1,,,,,,210,WORD,"ID",33,monkey,MONKEY,m,,,,,,0.27734375,-0.21484375,0,0,0,,0,223,223,29,1,
,,,,,,,,,,,,,,,,,,5ef36a78ee14310baa87bcc0,2020-12-03_09h09.22.173,lexical_decision_task_MP_exp2,2020.2.8,Win32,60,z,1,0.548965,,,,,,,,0.548965,1,,,,,,334,NW,UN,33,desion,WATMEG,z,,,,,,0.27734375,-0.21484375,0,0,0,,0,224,224,393,1,
,,,,,,,,,,,,,,,,,,5ef36a78ee14310baa87bcc0,2020-12-03_09h09.22.173,lexical_decision_task_MP_exp2,2020.2.8,Win32,60,z,1,0.500295,,,,,,,,0.500295,1,,,,,,278,NW,"ID",16,unighs,UNIGHS,z,,,,,,0.27734375,-0.21484375,0,0,0,,0,225,225,337,1,
,,,,,,,,,,,,,,,,,,5ef36a78ee14310baa87bcc0,2020-12-03_09h09.22.173,lexical_decision_task_MP_exp2,2020.2.8,Win32,60,m,1,0.436165,,,,,,,,0.436165,1,,,,,,38,WORD,"ID",16,powder,POWDER,m,,,,,,0.27734375,-0.21484375,0,0,0,,0,226,226,97,1,
,,,,,,,,,,,,,,,,,,5ef36a78ee14310baa87bcc0,2020-12-03_09h09.22.173,lexical_decision_task_MP_exp2,2020.2.8,Win32,60,m,1,0.36466,,,,,,,,0.36466,1,,,,,,231,WORD,"ID",33,export,EXPORT,m,,,,,,0.27734375,-0.21484375,0,0,0,,0,227,227,50,1,
,,,,,,,,,,,,,,,,,,5ef36a78ee14310baa87bcc0,2020-12-03_09h09.22.173,lexical_decision_task_MP_exp2,2020.2.8,Win32,60,m,1,0.487765,,,,,,,,0.487765,1,,,,,,160,WORD,UN,16,pastor,VIOLET,m,,,,,,0.27734375,-0.21484375,0,0,0,,0,228,228,219,1,
,,,,,,,,,,,,,,,,,,5ef36a78ee14310baa87bcc0,2020-12-03_09h09.22.173,lexical_decision_task_MP_exp2,2020.2.8,Win32,60,z,1,0.50667,,,,,,,,0.50667,1,,,,,,478,NW,"ID",33,acrise,ACRISE,z,,,,,,0.27734375,-0.21484375,0,0,0,,0,229,229,297,1,
,,,,,,,,,,,,,,,,,,5ef36a78ee14310baa87bcc0,2020-12-03_09h09.22.173,lexical_decision_task_MP_exp2,2020.2.8,Win32,60,m,0,0.604015,,,,,,,,0.604015,0,,,,,,420,NW,UN,16,pauche,GUSHOP,z,,,,,,0.27734375,-0.21484375,0,0,0,,0,230,230,479,1,
,,,,,,,,,,,,,,,,,,5ef36a78ee14310baa87bcc0,2020-12-03_09h09.22.173,lexical_decision_task_MP_exp2,2020.2.8,Win32,60,m,1,0.489915,,,,,,,,0.489915,1,,,,,,141,WORD,UN,16,spruce,ORPHAN,m,,,,,,0.27734375,-0.21484375,0,0,0,,0,231,231,200,1,
,,,,,,,,,,,,,,,,,,5ef36a78ee14310baa87bcc0,2020-12-03_09h09.22.173,lexical_decision_task_MP_exp2,2020.2.8,Win32,60,z,1,0.565435,,,,,,,,0.565435,1,,,,,,347,NW,UN,33,dumple,KERIFT,z,,,,,,0.27734375,-0.21484375,0,0,0,,0,232,232,406,1,
,,,,,,,,,,,,,,,,,,5ef36a78ee14310baa87bcc0,2020-12-03_09h09.22.173,lexical_decision_task_MP_exp2,2020.2.8,Win32,60,z,1,0.49883,,,,,,,,0.49883,1,,,,,,267,NW,"ID",16,pasink,PASINK,z,,,,,,0.27734375,-0.21484375,0,0,0,,0,233,233,326,1,
,,,,,,,,,,,,,,,,,,5ef36a78ee14310baa87bcc0,2020-12-03_09h09.22.173,lexical_decision_task_MP_exp2,2020.2.8,Win32,60,z,1,0.63143,,,,,,,,0.63143,1,,,,,,421,NW,"ID",33,knisma,KNISMA,z,,,,,,0.27734375,-0.21484375,0,0,0,,0,234,234,240,1,
,,,,,,,,,,,,,,,,,,5ef36a78ee14310baa87bcc0,2020-12-03_09h09.22.173,lexical_decision_task_MP_exp2,2020.2.8,Win32,60,m,1,0.48196,,,,,,,,0.48196,1,,,,,,80,WORD,UN,33,friend,FAMILY,m,,,,,,0.27734375,-0.21484375,0,0,0,,0,235,235,139,1,
,,,,,,,,,,,,,,,,,,5ef36a78ee14310baa87bcc0,2020-12-03_09h09.22.173,lexical_decision_task_MP_exp2,2020.2.8,Win32,60,z,1,0.519845,,,,,,,,0.519845,1,,,,,,273,NW,"ID",16,sortel,SORTEL,z,,,,,,0.27734375,-0.21484375,0,0,0,,0,236,236,332,1,
,,,,,,,,,,,,,,,,,,5ef36a78ee14310baa87bcc0,2020-12-03_09h09.22.173,lexical_decision_task_MP_exp2,2020.2.8,Win32,60,m,1,0.40034,,,,,,,,0.40034,1,,,,,,167,WORD,UN,16,answer,DESIGN,m,,,,,,0.27734375,-0.21484375,0,0,0,,0,237,237,226,1,
,,,,,,,,,,,,,,,,,,5ef36a78ee14310baa87bcc0,2020-12-03_09h09.22.173,lexical_decision_task_MP_exp2,2020.2.8,Win32,60,m,1,0.519485,,,,,,,,0.519485,1,,,,,,148,WORD,UN,16,invade,CUSTOM,m,,,,,,0.27734375,-0.21484375,0,0,0,,0,238,238,207,1,
,,,,,,,,,,,,,,,,,,5ef36a78ee14310baa87bcc0,2020-12-03_09h09.22.173,lexical_decision_task_MP_exp2,2020.2.8,Win32,60,z,1,0.50811,,,,,,,,0.50811,1,,,,,,265,NW,"ID",16,distar,DISTAR,z,,,,,,0.27734375,-0.21484375,0,0,0,,0,239,239,324,1,
,,,,,,,,,,,,,,,,,,5ef36a78ee14310baa87bcc0,2020-12-03_09h09.22.173,lexical_decision_task_MP_exp2,2020.2.8,Win32,60,z,1,0.403915,,,,,,,,0.403915,1,,,,,,277,NW,"ID",16,petain,PETAIN,z,,,,,,0.27734375,-0.21484375,0,0,0,,0,240,240,336,1,
,,,,,,,,,,,,,,,,,,5ef36a78ee14310baa87bcc0,2020-12-03_09h09.22.173,lexical_decision_task_MP_exp2,2020.2.8,Win32,60,m,1,0.484265,,,,,,,,0.484265,1,,,,,,171,WORD,UN,16,patrol,DEPART,m,,,,,,0.27734375,-0.21484375,0,0,0,space,0,241,241,230,1,1.16399
,,,,,,,,,,,,,,,,,,5ef36a78ee14310baa87bcc0,2020-12-03_09h09.22.173,lexical_decision_task_MP_exp2,2020.2.8,Win32,60,z,1,0.607365,,,,,,,,0.607365,1,,,,,,284,NW,"ID",16,shaple,SHAPLE,z,,,,,,0.27734375,-0.21484375,0,0,0,,0,242,242,343,1,
,,,,,,,,,,,,,,,,,,5ef36a78ee14310baa87bcc0,2020-12-03_09h09.22.173,lexical_decision_task_MP_exp2,2020.2.8,Win32,60,m,1,0.365975,,,,,,,,0.365975,1,,,,,,224,WORD,"ID",33,period,PERIOD,m,,,,,,0.27734375,-0.21484375,0,0,0,,0,243,243,43,1,
,,,,,,,,,,,,,,,,,,5ef36a78ee14310baa87bcc0,2020-12-03_09h09.22.173,lexical_decision_task_MP_exp2,2020.2.8,Win32,60,z,0,0.4659,,,,,,,,0.4659,0,,,,,,68,WORD,UN,33,plenty,FUMBLE,m,,,,,,0.27734375,-0.21484375,0,0,0,,0,244,244,127,1,
,,,,,,,,,,,,,,,,,,5ef36a78ee14310baa87bcc0,2020-12-03_09h09.22.173,lexical_decision_task_MP_exp2,2020.2.8,Win32,60,m,1,0.566435,,,,,,,,0.566435,1,,,,,,156,WORD,UN,16,depart,CRADLE,m,,,,,,0.27734375,-0.21484375,0,0,0,,0,245,245,215,1,
,,,,,,,,,,,,,,,,,,5ef36a78ee14310baa87bcc0,2020-12-03_09h09.22.173,lexical_decision_task_MP_exp2,2020.2.8,Win32,60,z,1,0.49814,,,,,,,,0.49814,1,,,,,,254,NW,"ID",16,varosh,VAROSH,z,,,,,,0.27734375,-0.21484375,0,0,0,,0,246,246,313,1,
,,,,,,,,,,,,,,,,,,5ef36a78ee14310baa87bcc0,2020-12-03_09h09.22.173,lexical_decision_task_MP_exp2,2020.2.8,Win32,60,m,1,0.452615,,,,,,,,0.452615,1,,,,,,173,WORD,UN,16,turkey,SHOWER,m,,,,,,0.27734375,-0.21484375,0,0,0,,0,247,247,232,1,
,,,,,,,,,,,,,,,,,,5ef36a78ee14310baa87bcc0,2020-12-03_09h09.22.173,lexical_decision_task_MP_exp2,2020.2.8,Win32,60,m,1,0.47087,,,,,,,,0.47087,1,,,,,,106,WORD,UN,33,slogan,RANSOM,m,,,,,,0.27734375,-0.21484375,0,0,0,,0,248,248,165,1,
,,,,,,,,,,,,,,,,,,5ef36a78ee14310baa87bcc0,2020-12-03_09h09.22.173,lexical_decision_task_MP_exp2,2020.2.8,Win32,60,z,1,0.573675,,,,,,,,0.573675,1,,,,,,407,NW,UN,16,hurnia,SUIVER,z,,,,,,0.27734375,-0.21484375,0,0,0,,0,249,249,466,1,
,,,,,,,,,,,,,,,,,,5ef36a78ee14310baa87bcc0,2020-12-03_09h09.22.173,lexical_decision_task_MP_exp2,2020.2.8,Win32,60,z,1,0.48625,,,,,,,,0.48625,1,,,,,,288,NW,"ID",16,yaceup,YACEUP,z,,,,,,0.27734375,-0.21484375,0,0,0,,0,250,250,347,1,
,,,,,,,,,,,,,,,,,,5ef36a78ee14310baa87bcc0,2020-12-03_09h09.22.173,lexical_decision_task_MP_exp2,2020.2.8,Win32,60,z,1,0.387285,,,,,,,,0.387285,1,,,,,,246,NW,"ID",16,piaton,PIATON,z,,,,,,0.27734375,-0.21484375,0,0,0,,0,251,251,305,1,
,,,,,,,,,,,,,,,,,,5ef36a78ee14310baa87bcc0,2020-12-03_09h09.22.173,lexical_decision_task_MP_exp2,2020.2.8,Win32,60,z,1,0.474005,,,,,,,,0.474005,1,,,,,,382,NW,UN,16,aungre,SARLEY,z,,,,,,0.27734375,-0.21484375,0,0,0,,0,252,252,441,1,
,,,,,,,,,,,,,,,,,,5ef36a78ee14310baa87bcc0,2020-12-03_09h09.22.173,lexical_decision_task_MP_exp2,2020.2.8,Win32,60,m,1,0.52515,,,,,,,,0.52515,1,,,,,,240,WORD,"ID",33,forest,FOREST,m,,,,,,0.27734375,-0.21484375,0,0,0,,0,253,253,59,1,
,,,,,,,,,,,,,,,,,,5ef36a78ee14310baa87bcc0,2020-12-03_09h09.22.173,lexical_decision_task_MP_exp2,2020.2.8,Win32,60,m,1,0.45145,,,,,,,,0.45145,1,,,,,,137,WORD,UN,16,melody,FINGER,m,,,,,,0.27734375,-0.21484375,0,0,0,,0,254,254,196,1,
,,,,,,,,,,,,,,,,,,5ef36a78ee14310baa87bcc0,2020-12-03_09h09.22.173,lexical_decision_task_MP_exp2,2020.2.8,Win32,60,m,0,0.383135,,,,,,,,0.383135,0,,,,,,467,NW,"ID",33,gorbie,GORBIE,z,,,,,,0.27734375,-0.21484375,0,0,0,,0,255,255,286,1,
,,,,,,,,,,,,,,,,,,5ef36a78ee14310baa87bcc0,2020-12-03_09h09.22.173,lexical_decision_task_MP_exp2,2020.2.8,Win32,60,z,1,0.64759,,,,,,,,0.64759,1,,,,,,373,NW,UN,16,sliant,BIGENT,z,,,,,,0.27734375,-0.21484375,0,0,0,,0,256,256,432,1,
,,,,,,,,,,,,,,,,,,5ef36a78ee14310baa87bcc0,2020-12-03_09h09.22.173,lexical_decision_task_MP_exp2,2020.2.8,Win32,60,m,1,0.455935,,,,,,,,0.455935,1,,,,,,213,WORD,"ID",33,squeal,SQUEAL,m,,,,,,0.27734375,-0.21484375,0,0,0,,0,257,257,32,1,
,,,,,,,,,,,,,,,,,,5ef36a78ee14310baa87bcc0,2020-12-03_09h09.22.173,lexical_decision_task_MP_exp2,2020.2.8,Win32,60,z,1,0.58387,,,,,,,,0.58387,1,,,,,,424,NW,"ID",33,praile,PRAILE,z,,,,,,0.27734375,-0.21484375,0,0,0,,0,258,258,243,1,
,,,,,,,,,,,,,,,,,,5ef36a78ee14310baa87bcc0,2020-12-03_09h09.22.173,lexical_decision_task_MP_exp2,2020.2.8,Win32,60,m,1,0.566275,,,,,,,,0.566275,1,,,,,,26,WORD,"ID",16,sprint,SPRINT,m,,,,,,0.27734375,-0.21484375,0,0,0,,0,259,259,85,1,
,,,,,,,,,,,,,,,,,,5ef36a78ee14310baa87bcc0,2020-12-03_09h09.22.173,lexical_decision_task_MP_exp2,2020.2.8,Win32,60,m,1,0.5316,,,,,,,,0.5316,1,,,,,,25,WORD,"ID",16,domain,DOMAIN,m,,,,,,0.27734375,-0.21484375,0,0,0,,0,260,260,84,1,
,,,,,,,,,,,,,,,,,,5ef36a78ee14310baa87bcc0,2020-12-03_09h09.22.173,lexical_decision_task_MP_exp2,2020.2.8,Win32,60,z,1,0.58429,,,,,,,,0.58429,1,,,,,,291,NW,"ID",16,pretch,PRETCH,z,,,,,,0.27734375,-0.21484375,0,0,0,,0,261,261,350,1,
,,,,,,,,,,,,,,,,,,5ef36a78ee14310baa87bcc0,2020-12-03_09h09.22.173,lexical_decision_task_MP_exp2,2020.2.8,Win32,60,z,0,0.43275,,,,,,,,0.43275,0,,,,,,75,WORD,UN,33,exotic,TROPHY,m,,,,,,0.27734375,-0.21484375,0,0,0,,0,262,262,134,1,
,,,,,,,,,,,,,,,,,,5ef36a78ee14310baa87bcc0,2020-12-03_09h09.22.173,lexical_decision_task_MP_exp2,2020.2.8,Win32,60,z,1,0.58386,,,,,,,,0.58386,1,,,,,,422,NW,"ID",33,alcoud,ALCOUD,z,,,,,,0.27734375,-0.21484375,0,0,0,,0,263,263,241,1,
,,,,,,,,,,,,,,,,,,5ef36a78ee14310baa87bcc0,2020-12-03_09h09.22.173,lexical_decision_task_MP_exp2,2020.2.8,Win32,60,z,1,0.831785,,,,,,,,0.831785,1,,,,,,300,NW,"ID",16,yarion,YARION,z,,,,,,0.27734375,-0.21484375,0,0,0,,0,264,264,359,1,
,,,,,,,,,,,,,,,,,,5ef36a78ee14310baa87bcc0,2020-12-03_09h09.22.173,lexical_decision_task_MP_exp2,2020.2.8,Win32,60,z,0,0.39907,,,,,,,,0.39907,0,,,,,,225,WORD,"ID",33,vulgar,VULGAR,m,,,,,,0.27734375,-0.21484375,0,0,0,,0,265,265,44,1,
,,,,,,,,,,,,,,,,,,5ef36a78ee14310baa87bcc0,2020-12-03_09h09.22.173,lexical_decision_task_MP_exp2,2020.2.8,Win32,60,m,1,0.465175,,,,,,,,0.465175,1,,,,,,11,WORD,"ID",16,cruise,CRUISE,m,,,,,,0.27734375,-0.21484375,0,0,0,,0,266,266,70,1,
,,,,,,,,,,,,,,,,,,5ef36a78ee14310baa87bcc0,2020-12-03_09h09.22.173,lexical_decision_task_MP_exp2,2020.2.8,Win32,60,m,1,0.463625,,,,,,,,0.463625,1,,,,,,121,WORD,UN,16,linger,THRIVE,m,,,,,,0.27734375,-0.21484375,0,0,0,,0,267,267,180,1,
,,,,,,,,,,,,,,,,,,5ef36a78ee14310baa87bcc0,2020-12-03_09h09.22.173,lexical_decision_task_MP_exp2,2020.2.8,Win32,60,m,1,0.38012,,,,,,,,0.38012,1,,,,,,136,WORD,UN,16,finger,BLEACH,m,,,,,,0.27734375,-0.21484375,0,0,0,,0,268,268,195,1,
,,,,,,,,,,,,,,,,,,5ef36a78ee14310baa87bcc0,2020-12-03_09h09.22.173,lexical_decision_task_MP_exp2,2020.2.8,Win32,60,z,1,0.52236,,,,,,,,0.52236,1,,,,,,262,NW,"ID",16,quilew,QUILEW,z,,,,,,0.27734375,-0.21484375,0,0,0,,0,269,269,321,1,
,,,,,,,,,,,,,,,,,,5ef36a78ee14310baa87bcc0,2020-12-03_09h09.22.173,lexical_decision_task_MP_exp2,2020.2.8,Win32,60,m,0,0.38844,,,,,,,,0.38844,0,,,,,,348,NW,UN,33,asylen,DUMPLE,z,,,,,,0.27734375,-0.21484375,0,0,0,,0,270,270,407,1,
,,,,,,,,,,,,,,,,,,5ef36a78ee14310baa87bcc0,2020-12-03_09h09.22.173,lexical_decision_task_MP_exp2,2020.2.8,Win32,60,z,1,0.53228,,,,,,,,0.53228,1,,,,,,376,NW,UN,16,veigma,IGUARE,z,,,,,,0.27734375,-0.21484375,0,0,0,,0,271,271,435,1,
,,,,,,,,,,,,,,,,,,5ef36a78ee14310baa87bcc0,2020-12-03_09h09.22.173,lexical_decision_task_MP_exp2,2020.2.8,Win32,60,z,0,0.44983,,,,,,,,0.44983,0,,,,,,220,WORD,"ID",33,voyage,VOYAGE,m,,,,,,0.27734375,-0.21484375,0,0,0,,0,272,272,39,1,
,,,,,,,,,,,,,,,,,,5ef36a78ee14310baa87bcc0,2020-12-03_09h09.22.173,lexical_decision_task_MP_exp2,2020.2.8,Win32,60,z,1,0.532365,,,,,,,,0.532365,1,,,,,,359,NW,UN,33,desory,FONVER,z,,,,,,0.27734375,-0.21484375,0,0,0,,0,273,273,418,1,
,,,,,,,,,,,,,,,,,,5ef36a78ee14310baa87bcc0,2020-12-03_09h09.22.173,lexical_decision_task_MP_exp2,2020.2.8,Win32,60,z,1,0.51556,,,,,,,,0.51556,1,,,,,,425,NW,"ID",33,frudge,FRUDGE,z,,,,,,0.27734375,-0.21484375,0,0,0,,0,274,274,244,1,
,,,,,,,,,,,,,,,,,,5ef36a78ee14310baa87bcc0,2020-12-03_09h09.22.173,lexical_decision_task_MP_exp2,2020.2.8,Win32,60,m,1,0.665845,,,,,,,,0.665845,1,,,,,,63,WORD,UN,33,throne,LAUNCH,m,,,,,,0.27734375,-0.21484375,0,0,0,,0,275,275,122,1,
,,,,,,,,,,,,,,,,,,5ef36a78ee14310baa87bcc0,2020-12-03_09h09.22.173,lexical_decision_task_MP_exp2,2020.2.8,Win32,60,m,1,0.415105,,,,,,,,0.415105,1,,,,,,133,WORD,UN,16,staple,CHROME,m,,,,,,0.27734375,-0.21484375,0,0,0,,0,276,276,192,1,
,,,,,,,,,,,,,,,,,,5ef36a78ee14310baa87bcc0,2020-12-03_09h09.22.173,lexical_decision_task_MP_exp2,2020.2.8,Win32,60,z,1,0.59858,,,,,,,,0.59858,1,,,,,,398,NW,UN,16,fouret,BLUNDE,z,,,,,,0.27734375,-0.21484375,0,0,0,,0,277,277,457,1,
,,,,,,,,,,,,,,,,,,5ef36a78ee14310baa87bcc0,2020-12-03_09h09.22.173,lexical_decision_task_MP_exp2,2020.2.8,Win32,60,z,1,0.46637,,,,,,,,0.46637,1,,,,,,312,NW,UN,33,paurse,NERAWL,z,,,,,,0.27734375,-0.21484375,0,0,0,,0,278,278,371,1,
,,,,,,,,,,,,,,,,,,5ef36a78ee14310baa87bcc0,2020-12-03_09h09.22.173,lexical_decision_task_MP_exp2,2020.2.8,Win32,60,m,1,0.650885,,,,,,,,0.650885,1,,,,,,34,WORD,"ID",16,jungle,JUNGLE,m,,,,,,0.27734375,-0.21484375,0,0,0,,0,279,279,93,1,
,,,,,,,,,,,,,,,,,,5ef36a78ee14310baa87bcc0,2020-12-03_09h09.22.173,lexical_decision_task_MP_exp2,2020.2.8,Win32,60,z,1,0.62272,,,,,,,,0.62272,1,,,,,,402,NW,UN,16,bruats,SYNTIC,z,,,,,,0.27734375,-0.21484375,0,0,0,,0,280,280,461,1,
,,,,,,,,,,,,,,,,,,5ef36a78ee14310baa87bcc0,2020-12-03_09h09.22.173,lexical_decision_task_MP_exp2,2020.2.8,Win32,60,z,0,0.404045,,,,,,,,0.404045,0,,,,,,59,WORD,"ID",16,splint,SPLINT,m,,,,,,0.27734375,-0.21484375,0,0,0,,0,281,281,118,1,
,,,,,,,,,,,,,,,,,,5ef36a78ee14310baa87bcc0,2020-12-03_09h09.22.173,lexical_decision_task_MP_exp2,2020.2.8,Win32,60,m,1,0.58212,,,,,,,,0.58212,1,,,,,,56,WORD,"ID",16,ambush,AMBUSH,m,,,,,,0.27734375,-0.21484375,0,0,0,,0,282,282,115,1,
,,,,,,,,,,,,,,,,,,5ef36a78ee14310baa87bcc0,2020-12-03_09h09.22.173,lexical_decision_task_MP_exp2,2020.2.8,Win32,60,z,1,0.45285,,,,,,,,0.45285,1,,,,,,355,NW,UN,33,othnis,ZINGLY,z,,,,,,0.27734375,-0.21484375,0,0,0,,0,283,283,414,1,
,,,,,,,,,,,,,,,,,,5ef36a78ee14310baa87bcc0,2020-12-03_09h09.22.173,lexical_decision_task_MP_exp2,2020.2.8,Win32,60,m,1,0.398755,,,,,,,,0.398755,1,,,,,,226,WORD,"ID",33,casino,CASINO,m,,,,,,0.27734375,-0.21484375,0,0,0,,0,284,284,45,1,
,,,,,,,,,,,,,,,,,,5ef36a78ee14310baa87bcc0,2020-12-03_09h09.22.173,lexical_decision_task_MP_exp2,2020.2.8,Win32,60,z,1,0.45356,,,,,,,,0.45356,1,,,,,,371,NW,UN,16,ramily,GEILOY,z,,,,,,0.27734375,-0.21484375,0,0,0,,0,285,285,430,1,
,,,,,,,,,,,,,,,,,,5ef36a78ee14310baa87bcc0,2020-12-03_09h09.22.173,lexical_decision_task_MP_exp2,2020.2.8,Win32,60,z,1,0.582875,,,,,,,,0.582875,1,,,,,,314,NW,UN,33,laston,SPRINE,z,,,,,,0.27734375,-0.21484375,0,0,0,,0,286,286,373,1,
,,,,,,,,,,,,,,,,,,5ef36a78ee14310baa87bcc0,2020-12-03_09h09.22.173,lexical_decision_task_MP_exp2,2020.2.8,Win32,60,m,1,0.515045,,,,,,,,0.515045,1,,,,,,33,WORD,"ID",16,butler,BUTLER,m,,,,,,0.27734375,-0.21484375,0,0,0,,0,287,287,92,1,
,,,,,,,,,,,,,,,,,,5ef36a78ee14310baa87bcc0,2020-12-03_09h09.22.173,lexical_decision_task_MP_exp2,2020.2.8,Win32,60,z,1,0.49923,,,,,,,,0.49923,1,,,,,,439,NW,"ID",33,limpor,LIMPOR,z,,,,,,0.27734375,-0.21484375,0,0,0,,0,288,288,258,1,
,,,,,,,,,,,,,,,,,,5ef36a78ee14310baa87bcc0,2020-12-03_09h09.22.173,lexical_decision_task_MP_exp2,2020.2.8,Win32,60,z,0,0.65168,,,,,,,,0.65168,0,,,,,,131,WORD,UN,16,strong,QUENCH,m,,,,,,0.27734375,-0.21484375,0,0,0,,0,289,289,190,1,
,,,,,,,,,,,,,,,,,,5ef36a78ee14310baa87bcc0,2020-12-03_09h09.22.173,lexical_decision_task_MP_exp2,2020.2.8,Win32,60,m,1,0.483035,,,,,,,,0.483035,1,,,,,,104,WORD,UN,33,number,STUDIO,m,,,,,,0.27734375,-0.21484375,0,0,0,,0,290,290,163,1,
,,,,,,,,,,,,,,,,,,5ef36a78ee14310baa87bcc0,2020-12-03_09h09.22.173,lexical_decision_task_MP_exp2,2020.2.8,Win32,60,m,1,0.44894,,,,,,,,0.44894,1,,,,,,55,WORD,"ID",16,stroke,STROKE,m,,,,,,0.27734375,-0.21484375,0,0,0,,0,291,291,114,1,
,,,,,,,,,,,,,,,,,,5ef36a78ee14310baa87bcc0,2020-12-03_09h09.22.173,lexical_decision_task_MP_exp2,2020.2.8,Win32,60,z,1,0.49924,,,,,,,,0.49924,1,,,,,,466,NW,"ID",33,hocite,HOCITE,z,,,,,,0.27734375,-0.21484375,0,0,0,,0,292,292,285,1,
,,,,,,,,,,,,,,,,,,5ef36a78ee14310baa87bcc0,2020-12-03_09h09.22.173,lexical_decision_task_MP_exp2,2020.2.8,Win32,60,m,1,0.414685,,,,,,,,0.414685,1,,,,,,15,WORD,"ID",16,amount,AMOUNT,m,,,,,,0.27734375,-0.21484375,0,0,0,,0,293,293,74,1,
,,,,,,,,,,,,,,,,,,5ef36a78ee14310baa87bcc0,2020-12-03_09h09.22.173,lexical_decision_task_MP_exp2,2020.2.8,Win32,60,m,0,0.439255,,,,,,,,0.439255,0,,,,,,449,NW,"ID",33,brunge,BRUNGE,z,,,,,,0.27734375,-0.21484375,0,0,0,,0,294,294,268,1,
,,,,,,,,,,,,,,,,,,5ef36a78ee14310baa87bcc0,2020-12-03_09h09.22.173,lexical_decision_task_MP_exp2,2020.2.8,Win32,60,m,1,0.4904,,,,,,,,0.4904,1,,,,,,24,WORD,"ID",16,praise,PRAISE,m,,,,,,0.27734375,-0.21484375,0,0,0,,0,295,295,83,1,
,,,,,,,,,,,,,,,,,,5ef36a78ee14310baa87bcc0,2020-12-03_09h09.22.173,lexical_decision_task_MP_exp2,2020.2.8,Win32,60,z,1,0.524785,,,,,,,,0.524785,1,,,,,,324,NW,UN,33,thruse,STEIKH,z,,,,,,0.27734375,-0.21484375,0,0,0,,0,296,296,383,1,
,,,,,,,,,,,,,,,,,,5ef36a78ee14310baa87bcc0,2020-12-03_09h09.22.173,lexical_decision_task_MP_exp2,2020.2.8,Win32,60,z,1,0.50959,,,,,,,,0.50959,1,,,,,,301,NW,UN,33,miluer,FAINCH,z,,,,,,0.27734375,-0.21484375,0,0,0,,0,297,297,360,1,
,,,,,,,,,,,,,,,,,,5ef36a78ee14310baa87bcc0,2020-12-03_09h09.22.173,lexical_decision_task_MP_exp2,2020.2.8,Win32,60,m,1,0.504425,,,,,,,,0.504425,1,,,,,,29,WORD,"ID",16,sketch,SKETCH,m,,,,,,0.27734375,-0.21484375,0,0,0,,0,298,298,88,1,
,,,,,,,,,,,,,,,,,,5ef36a78ee14310baa87bcc0,2020-12-03_09h09.22.173,lexical_decision_task_MP_exp2,2020.2.8,Win32,60,z,1,0.499485,,,,,,,,0.499485,1,,,,,,412,NW,UN,16,equats,JILUER,z,,,,,,0.27734375,-0.21484375,0,0,0,,0,299,299,471,1,
,,,,,,,,,,,,,,,,,,5ef36a78ee14310baa87bcc0,2020-12-03_09h09.22.173,lexical_decision_task_MP_exp2,2020.2.8,Win32,60,m,1,0.4382,,,,,,,,0.4382,1,,,,,,200,WORD,"ID",33,beacon,BEACON,m,,,,,,0.27734375,-0.21484375,0,0,0,,0,300,300,19,1,
,,,,,,,,,,,,,,,,,,5ef36a78ee14310baa87bcc0,2020-12-03_09h09.22.173,lexical_decision_task_MP_exp2,2020.2.8,Win32,60,m,0,0.44932,,,,,,,,0.44932,0,,,,,,249,NW,"ID",16,batrol,BATROL,z,,,,,,0.27734375,-0.21484375,0,0,0,,0,301,301,308,1,
,,,,,,,,,,,,,,,,,,5ef36a78ee14310baa87bcc0,2020-12-03_09h09.22.173,lexical_decision_task_MP_exp2,2020.2.8,Win32,60,z,1,0.667985,,,,,,,,0.667985,1,,,,,,479,NW,"ID",33,lobush,LOBUSH,z,,,,,,0.27734375,-0.21484375,0,0,0,,0,302,302,298,1,
,,,,,,,,,,,,,,,,,,5ef36a78ee14310baa87bcc0,2020-12-03_09h09.22.173,lexical_decision_task_MP_exp2,2020.2.8,Win32,60,z,1,0.44909,,,,,,,,0.44909,1,,,,,,451,NW,"ID",33,cainky,CAINKY,z,,,,,,0.27734375,-0.21484375,0,0,0,,0,303,303,270,1,
,,,,,,,,,,,,,,,,,,5ef36a78ee14310baa87bcc0,2020-12-03_09h09.22.173,lexical_decision_task_MP_exp2,2020.2.8,Win32,60,m,1,0.424475,,,,,,,,0.424475,1,,,,,,166,WORD,UN,16,design,STARCH,m,,,,,,0.27734375,-0.21484375,0,0,0,,0,304,304,225,1,
,,,,,,,,,,,,,,,,,,5ef36a78ee14310baa87bcc0,2020-12-03_09h09.22.173,lexical_decision_task_MP_exp2,2020.2.8,Win32,60,z,1,0.450655,,,,,,,,0.450655,1,,,,,,296,NW,"ID",16,beinch,BEINCH,z,,,,,,0.27734375,-0.21484375,0,0,0,,0,305,305,355,1,
,,,,,,,,,,,,,,,,,,5ef36a78ee14310baa87bcc0,2020-12-03_09h09.22.173,lexical_decision_task_MP_exp2,2020.2.8,Win32,60,z,0,0.535165,,,,,,,,0.535165,0,,,,,,239,WORD,"ID",33,lumber,LUMBER,m,,,,,,0.27734375,-0.21484375,0,0,0,,0,306,306,58,1,
,,,,,,,,,,,,,,,,,,5ef36a78ee14310baa87bcc0,2020-12-03_09h09.22.173,lexical_decision_task_MP_exp2,2020.2.8,Win32,60,z,1,0.54269,,,,,,,,0.54269,1,,,,,,253,NW,"ID",16,resait,RESAIT,z,,,,,,0.27734375,-0.21484375,0,0,0,,0,307,307,312,1,
,,,,,,,,,,,,,,,,,,5ef36a78ee14310baa87bcc0,2020-12-03_09h09.22.173,lexical_decision_task_MP_exp2,2020.2.8,Win32,60,m,0,0.54802,,,,,,,,0.54802,0,,,,,,248,NW,"ID",16,strole,STROLE,z,,,,,,0.27734375,-0.21484375,0,0,0,,0,308,308,307,1,
,,,,,,,,,,,,,,,,,,5ef36a78ee14310baa87bcc0,2020-12-03_09h09.22.173,lexical_decision_task_MP_exp2,2020.2.8,Win32,60,m,1,0.467255,,,,,,,,0.467255,1,,,,,,132,WORD,UN,16,orphan,STRONG,m,,,,,,0.27734375,-0.21484375,0,0,0,,0,309,309,191,1,
,,,,,,,,,,,,,,,,,,5ef36a78ee14310baa87bcc0,2020-12-03_09h09.22.173,lexical_decision_task_MP_exp2,2020.2.8,Win32,60,z,1,0.498765,,,,,,,,0.498765,1,,,,,,317,NW,UN,33,reagly,WORBAL,z,,,,,,0.27734375,-0.21484375,0,0,0,,0,310,310,376,1,
,,,,,,,,,,,,,,,,,,5ef36a78ee14310baa87bcc0,2020-12-03_09h09.22.173,lexical_decision_task_MP_exp2,2020.2.8,Win32,60,z,1,0.483995,,,,,,,,0.483995,1,,,,,,375,NW,UN,16,iguare,YORQUE,z,,,,,,0.27734375,-0.21484375,0,0,0,,0,311,311,434,1,
,,,,,,,,,,,,,,,,,,5ef36a78ee14310baa87bcc0,2020-12-03_09h09.22.173,lexical_decision_task_MP_exp2,2020.2.8,Win32,60,m,1,0.490115,,,,,,,,0.490115,1,,,,,,92,WORD,UN,33,public,STRAND,m,,,,,,0.27734375,-0.21484375,0,0,0,,0,312,312,151,1,
,,,,,,,,,,,,,,,,,,5ef36a78ee14310baa87bcc0,2020-12-03_09h09.22.173,lexical_decision_task_MP_exp2,2020.2.8,Win32,60,m,1,0.5217,,,,,,,,0.5217,1,,,,,,177,WORD,UN,16,inform,ADVENT,m,,,,,,0.27734375,-0.21484375,0,0,0,,0,313,313,236,1,
,,,,,,,,,,,,,,,,,,5ef36a78ee14310baa87bcc0,2020-12-03_09h09.22.173,lexical_decision_task_MP_exp2,2020.2.8,Win32,60,z,1,0.52289,,,,,,,,0.52289,1,,,,,,354,NW,UN,33,zingly,VIRLEX,z,,,,,,0.27734375,-0.21484375,0,0,0,,0,314,314,413,1,
,,,,,,,,,,,,,,,,,,5ef36a78ee14310baa87bcc0,2020-12-03_09h09.22.173,lexical_decision_task_MP_exp2,2020.2.8,Win32,60,m,1,0.65448,,,,,,,,0.65448,1,,,,,,40,WORD,"ID",16,convey,CONVEY,m,,,,,,0.27734375,-0.21484375,0,0,0,,0,315,315,99,1,
,,,,,,,,,,,,,,,,,,5ef36a78ee14310baa87bcc0,2020-12-03_09h09.22.173,lexical_decision_task_MP_exp2,2020.2.8,Win32,60,m,1,0.56663,,,,,,,,0.56663,1,,,,,,62,WORD,UN,33,launch,REGION,m,,,,,,0.27734375,-0.21484375,0,0,0,,0,316,316,121,1,
,,,,,,,,,,,,,,,,,,5ef36a78ee14310baa87bcc0,2020-12-03_09h09.22.173,lexical_decision_task_MP_exp2,2020.2.8,Win32,60,z,1,0.6515,,,,,,,,0.6515,1,,,,,,445,NW,"ID",33,minkel,MINKEL,z,,,,,,0.27734375,-0.21484375,0,0,0,,0,317,317,264,1,
,,,,,,,,,,,,,,,,,,5ef36a78ee14310baa87bcc0,2020-12-03_09h09.22.173,lexical_decision_task_MP_exp2,2020.2.8,Win32,60,m,1,0.471795,,,,,,,,0.471795,1,,,,,,192,WORD,"ID",33,plague,PLAGUE,m,,,,,,0.27734375,-0.21484375,0,0,0,,0,318,318,11,1,
,,,,,,,,,,,,,,,,,,5ef36a78ee14310baa87bcc0,2020-12-03_09h09.22.173,lexical_decision_task_MP_exp2,2020.2.8,Win32,60,z,1,0.44829,,,,,,,,0.44829,1,,,,,,370,NW,UN,16,geiloy,SLEACT,z,,,,,,0.27734375,-0.21484375,0,0,0,,0,319,319,429,1,
,,,,,,,,,,,,,,,,,,5ef36a78ee14310baa87bcc0,2020-12-03_09h09.22.173,lexical_decision_task_MP_exp2,2020.2.8,Win32,60,z,1,0.4999,,,,,,,,0.4999,1,,,,,,271,NW,"ID",16,aubrid,AUBRID,z,,,,,,0.27734375,-0.21484375,0,0,0,,0,320,320,330,1,
,,,,,,,,,,,,,,,,,,5ef36a78ee14310baa87bcc0,2020-12-03_09h09.22.173,lexical_decision_task_MP_exp2,2020.2.8,Win32,60,z,1,0.40549,,,,,,,,0.40549,1,,,,,,323,NW,UN,33,steikh,ROSAIL,z,,,,,,0.27734375,-0.21484375,0,0,0,,0,321,321,382,1,
,,,,,,,,,,,,,,,,,,5ef36a78ee14310baa87bcc0,2020-12-03_09h09.22.173,lexical_decision_task_MP_exp2,2020.2.8,Win32,60,z,1,0.48194,,,,,,,,0.48194,1,,,,,,244,NW,"ID",16,eatric,EATRIC,z,,,,,,0.27734375,-0.21484375,0,0,0,,0,322,322,303,1,
,,,,,,,,,,,,,,,,,,5ef36a78ee14310baa87bcc0,2020-12-03_09h09.22.173,lexical_decision_task_MP_exp2,2020.2.8,Win32,60,z,0,0.42347,,,,,,,,0.42347,0,,,,,,87,WORD,UN,33,sprawl,FILTER,m,,,,,,0.27734375,-0.21484375,0,0,0,,0,323,323,146,1,
,,,,,,,,,,,,,,,,,,5ef36a78ee14310baa87bcc0,2020-12-03_09h09.22.173,lexical_decision_task_MP_exp2,2020.2.8,Win32,60,z,1,0.61603,,,,,,,,0.61603,1,,,,,,455,NW,"ID",33,tondle,TONDLE,z,,,,,,0.27734375,-0.21484375,0,0,0,,0,324,324,274,1,
,,,,,,,,,,,,,,,,,,5ef36a78ee14310baa87bcc0,2020-12-03_09h09.22.173,lexical_decision_task_MP_exp2,2020.2.8,Win32,60,m,1,0.50224,,,,,,,,0.50224,1,,,,,,150,WORD,UN,16,mystic,RANDOM,m,,,,,,0.27734375,-0.21484375,0,0,0,,0,325,325,209,1,
,,,,,,,,,,,,,,,,,,5ef36a78ee14310baa87bcc0,2020-12-03_09h09.22.173,lexical_decision_task_MP_exp2,2020.2.8,Win32,60,z,1,0.449165,,,,,,,,0.449165,1,,,,,,337,NW,UN,33,wreash,REJOLS,z,,,,,,0.27734375,-0.21484375,0,0,0,,0,326,326,396,1,
,,,,,,,,,,,,,,,,,,5ef36a78ee14310baa87bcc0,2020-12-03_09h09.22.173,lexical_decision_task_MP_exp2,2020.2.8,Win32,60,m,1,0.42221,,,,,,,,0.42221,1,,,,,,100,WORD,UN,33,wrench,CARBON,m,,,,,,0.27734375,-0.21484375,0,0,0,,0,327,327,159,1,
,,,,,,,,,,,,,,,,,,5ef36a78ee14310baa87bcc0,2020-12-03_09h09.22.173,lexical_decision_task_MP_exp2,2020.2.8,Win32,60,z,1,0.449485,,,,,,,,0.449485,1,,,,,,333,NW,UN,33,watmeg,CATRIE,z,,,,,,0.27734375,-0.21484375,0,0,0,,0,328,328,392,1,
,,,,,,,,,,,,,,,,,,5ef36a78ee14310baa87bcc0,2020-12-03_09h09.22.173,lexical_decision_task_MP_exp2,2020.2.8,Win32,60,m,1,0.468765,,,,,,,,0.468765,1,,,,,,168,WORD,UN,16,genius,ANSWER,m,,,,,,0.27734375,-0.21484375,0,0,0,,0,329,329,227,1,
,,,,,,,,,,,,,,,,,,5ef36a78ee14310baa87bcc0,2020-12-03_09h09.22.173,lexical_decision_task_MP_exp2,2020.2.8,Win32,60,z,1,0.547825,,,,,,,,0.547825,1,,,,,,389,NW,UN,16,hatrus,WITMER,z,,,,,,0.27734375,-0.21484375,0,0,0,,0,330,330,448,1,
,,,,,,,,,,,,,,,,,,5ef36a78ee14310baa87bcc0,2020-12-03_09h09.22.173,lexical_decision_task_MP_exp2,2020.2.8,Win32,60,m,1,0.531815,,,,,,,,0.531815,1,,,,,,58,WORD,"ID",16,foster,FOSTER,m,,,,,,0.27734375,-0.21484375,0,0,0,,0,331,331,117,1,
,,,,,,,,,,,,,,,,,,5ef36a78ee14310baa87bcc0,2020-12-03_09h09.22.173,lexical_decision_task_MP_exp2,2020.2.8,Win32,60,z,1,0.47219,,,,,,,,0.47219,1,,,,,,441,NW,"ID",33,rastoe,RASTOE,z,,,,,,0.27734375,-0.21484375,0,0,0,,0,332,332,260,1,
,,,,,,,,,,,,,,,,,,5ef36a78ee14310baa87bcc0,2020-12-03_09h09.22.173,lexical_decision_task_MP_exp2,2020.2.8,Win32,60,m,1,0.67601,,,,,,,,0.67601,1,,,,,,1,WORD,"ID",16,fright,FRIGHT,m,,,,,,0.27734375,-0.21484375,0,0,0,,0,333,333,60,1,
,,,,,,,,,,,,,,,,,,5ef36a78ee14310baa87bcc0,2020-12-03_09h09.22.173,lexical_decision_task_MP_exp2,2020.2.8,Win32,60,m,1,0.532195,,,,,,,,0.532195,1,,,,,,170,WORD,UN,16,dragon,POUNCE,m,,,,,,0.27734375,-0.21484375,0,0,0,,0,334,334,229,1,
,,,,,,,,,,,,,,,,,,5ef36a78ee14310baa87bcc0,2020-12-03_09h09.22.173,lexical_decision_task_MP_exp2,2020.2.8,Win32,60,z,1,0.469185,,,,,,,,0.469185,1,,,,,,390,NW,UN,16,theldy,HATRUS,z,,,,,,0.27734375,-0.21484375,0,0,0,,0,335,335,449,1,
,,,,,,,,,,,,,,,,,,5ef36a78ee14310baa87bcc0,2020-12-03_09h09.22.173,lexical_decision_task_MP_exp2,2020.2.8,Win32,60,m,1,0.349695,,,,,,,,0.349695,1,,,,,,27,WORD,"ID",16,scream,SCREAM,m,,,,,,0.27734375,-0.21484375,0,0,0,,0,336,336,86,1,
,,,,,,,,,,,,,,,,,,5ef36a78ee14310baa87bcc0,2020-12-03_09h09.22.173,lexical_decision_task_MP_exp2,2020.2.8,Win32,60,m,1,0.50541,,,,,,,,0.50541,1,,,,,,204,WORD,"ID",33,burden,BURDEN,m,,,,,,0.27734375,-0.21484375,0,0,0,,0,337,337,23,1,
,,,,,,,,,,,,,,,,,,5ef36a78ee14310baa87bcc0,2020-12-03_09h09.22.173,lexical_decision_task_MP_exp2,2020.2.8,Win32,60,m,1,0.435495,,,,,,,,0.435495,1,,,,,,109,WORD,UN,33,polite,WONDER,m,,,,,,0.27734375,-0.21484375,0,0,0,,0,338,338,168,1,
,,,,,,,,,,,,,,,,,,5ef36a78ee14310baa87bcc0,2020-12-03_09h09.22.173,lexical_decision_task_MP_exp2,2020.2.8,Win32,60,m,0,0.34846,,,,,,,,0.34846,0,,,,,,275,NW,"ID",16,sleirt,SLEIRT,z,,,,,,0.27734375,-0.21484375,0,0,0,,0,339,339,334,1,
,,,,,,,,,,,,,,,,,,5ef36a78ee14310baa87bcc0,2020-12-03_09h09.22.173,lexical_decision_task_MP_exp2,2020.2.8,Win32,60,m,1,0.42387,,,,,,,,0.42387,1,,,,,,147,WORD,UN,16,custom,GARLIC,m,,,,,,0.27734375,-0.21484375,0,0,0,,0,340,340,206,1,
,,,,,,,,,,,,,,,,,,5ef36a78ee14310baa87bcc0,2020-12-03_09h09.22.173,lexical_decision_task_MP_exp2,2020.2.8,Win32,60,z,1,0.51988,,,,,,,,0.51988,1,,,,,,442,NW,"ID",33,aboune,ABOUNE,z,,,,,,0.27734375,-0.21484375,0,0,0,,0,341,341,261,1,
,,,,,,,,,,,,,,,,,,5ef36a78ee14310baa87bcc0,2020-12-03_09h09.22.173,lexical_decision_task_MP_exp2,2020.2.8,Win32,60,z,1,0.41422,,,,,,,,0.41422,1,,,,,,294,NW,"ID",16,inhort,INHORT,z,,,,,,0.27734375,-0.21484375,0,0,0,,0,342,342,353,1,
,,,,,,,,,,,,,,,,,,5ef36a78ee14310baa87bcc0,2020-12-03_09h09.22.173,lexical_decision_task_MP_exp2,2020.2.8,Win32,60,z,1,0.569485,,,,,,,,0.569485,1,,,,,,368,NW,UN,16,wronch,HORNAL,z,,,,,,0.27734375,-0.21484375,0,0,0,,0,343,343,427,1,
,,,,,,,,,,,,,,,,,,5ef36a78ee14310baa87bcc0,2020-12-03_09h09.22.173,lexical_decision_task_MP_exp2,2020.2.8,Win32,60,m,1,0.554415,,,,,,,,0.554415,1,,,,,,115,WORD,UN,33,tumble,GUITAR,m,,,,,,0.27734375,-0.21484375,0,0,0,,0,344,344,174,1,
,,,,,,,,,,,,,,,,,,5ef36a78ee14310baa87bcc0,2020-12-03_09h09.22.173,lexical_decision_task_MP_exp2,2020.2.8,Win32,60,z,0,0.516105,,,,,,,,0.516105,0,,,,,,237,WORD,"ID",33,poster,POSTER,m,,,,,,0.27734375,-0.21484375,0,0,0,,0,345,345,56,1,
,,,,,,,,,,,,,,,,,,5ef36a78ee14310baa87bcc0,2020-12-03_09h09.22.173,lexical_decision_task_MP_exp2,2020.2.8,Win32,60,m,1,0.65782,,,,,,,,0.65782,1,,,,,,214,WORD,"ID",33,intake,INTAKE,m,,,,,,0.27734375,-0.21484375,0,0,0,,0,346,346,33,1,
,,,,,,,,,,,,,,,,,,5ef36a78ee14310baa87bcc0,2020-12-03_09h09.22.173,lexical_decision_task_MP_exp2,2020.2.8,Win32,60,z,1,0.4717,,,,,,,,0.4717,1,,,,,,447,NW,"ID",33,gircue,GIRCUE,z,,,,,,0.27734375,-0.21484375,0,0,0,,0,347,347,266,1,
,,,,,,,,,,,,,,,,,,5ef36a78ee14310baa87bcc0,2020-12-03_09h09.22.173,lexical_decision_task_MP_exp2,2020.2.8,Win32,60,z,1,0.53313,,,,,,,,0.53313,1,,,,,,438,NW,"ID",33,baitch,BAITCH,z,,,,,,0.27734375,-0.21484375,0,0,0,,0,348,348,257,1,
,,,,,,,,,,,,,,,,,,5ef36a78ee14310baa87bcc0,2020-12-03_09h09.22.173,lexical_decision_task_MP_exp2,2020.2.8,Win32,60,m,1,0.53166,,,,,,,,0.53166,1,,,,,,53,WORD,"ID",16,police,POLICE,m,,,,,,0.27734375,-0.21484375,0,0,0,,0,349,349,112,1,
,,,,,,,,,,,,,,,,,,5ef36a78ee14310baa87bcc0,2020-12-03_09h09.22.173,lexical_decision_task_MP_exp2,2020.2.8,Win32,60,z,1,0.608815,,,,,,,,0.608815,1,,,,,,269,NW,"ID",16,orchet,ORCHET,z,,,,,,0.27734375,-0.21484375,0,0,0,,0,350,350,328,1,
,,,,,,,,,,,,,,,,,,5ef36a78ee14310baa87bcc0,2020-12-03_09h09.22.173,lexical_decision_task_MP_exp2,2020.2.8,Win32,60,z,1,0.816195,,,,,,,,0.816195,1,,,,,,428,NW,"ID",33,tandly,TANDLY,z,,,,,,0.27734375,-0.21484375,0,0,0,,0,351,351,247,1,
,,,,,,,,,,,,,,,,,,5ef36a78ee14310baa87bcc0,2020-12-03_09h09.22.173,lexical_decision_task_MP_exp2,2020.2.8,Win32,60,z,0,0.3879,,,,,,,,0.3879,0,,,,,,107,WORD,UN,33,reckon,SLOGAN,m,,,,,,0.27734375,-0.21484375,0,0,0,,0,352,352,166,1,
,,,,,,,,,,,,,,,,,,5ef36a78ee14310baa87bcc0,2020-12-03_09h09.22.173,lexical_decision_task_MP_exp2,2020.2.8,Win32,60,z,1,0.534035,,,,,,,,0.534035,1,,,,,,404,NW,UN,16,flumni,CLUIRM,z,,,,,,0.27734375,-0.21484375,0,0,0,,0,353,353,463,1,
,,,,,,,,,,,,,,,,,,5ef36a78ee14310baa87bcc0,2020-12-03_09h09.22.173,lexical_decision_task_MP_exp2,2020.2.8,Win32,60,m,1,0.54823,,,,,,,,0.54823,1,,,,,,159,WORD,UN,16,violet,DETAIL,m,,,,,,0.27734375,-0.21484375,0,0,0,,0,354,354,218,1,
,,,,,,,,,,,,,,,,,,5ef36a78ee14310baa87bcc0,2020-12-03_09h09.22.173,lexical_decision_task_MP_exp2,2020.2.8,Win32,60,z,1,0.54852,,,,,,,,0.54852,1,,,,,,401,NW,UN,16,syntic,MUSTIL,z,,,,,,0.27734375,-0.21484375,0,0,0,,0,355,355,460,1,
,,,,,,,,,,,,,,,,,,5ef36a78ee14310baa87bcc0,2020-12-03_09h09.22.173,lexical_decision_task_MP_exp2,2020.2.8,Win32,60,z,1,0.51852,,,,,,,,0.51852,1,,,,,,295,NW,"ID",16,gleath,GLEATH,z,,,,,,0.27734375,-0.21484375,0,0,0,,0,356,356,354,1,
,,,,,,,,,,,,,,,,,,5ef36a78ee14310baa87bcc0,2020-12-03_09h09.22.173,lexical_decision_task_MP_exp2,2020.2.8,Win32,60,m,1,0.453895,,,,,,,,0.453895,1,,,,,,12,WORD,"ID",16,orange,ORANGE,m,,,,,,0.27734375,-0.21484375,0,0,0,,0,357,357,71,1,
,,,,,,,,,,,,,,,,,,5ef36a78ee14310baa87bcc0,2020-12-03_09h09.22.173,lexical_decision_task_MP_exp2,2020.2.8,Win32,60,z,1,0.49005,,,,,,,,0.49005,1,,,,,,377,NW,UN,16,shrile,INJORE,z,,,,,,0.27734375,-0.21484375,0,0,0,,0,358,358,436,1,
,,,,,,,,,,,,,,,,,,5ef36a78ee14310baa87bcc0,2020-12-03_09h09.22.173,lexical_decision_task_MP_exp2,2020.2.8,Win32,60,z,1,0.4178,,,,,,,,0.4178,1,,,,,,352,NW,UN,33,clurey,TRINGE,z,,,,,,0.27734375,-0.21484375,0,0,0,,0,359,359,411,1,
,,,,,,,,,,,,,,,,,,5ef36a78ee14310baa87bcc0,2020-12-03_09h09.22.173,lexical_decision_task_MP_exp2,2020.2.8,Win32,60,m,1,0.6318,,,,,,,,0.6318,1,,,,,,222,WORD,"ID",33,hinder,HINDER,m,,,,,,0.27734375,-0.21484375,0,0,0,,0,360,360,41,1,
,,,,,,,,,,,,,,,,,,5ef36a78ee14310baa87bcc0,2020-12-03_09h09.22.173,lexical_decision_task_MP_exp2,2020.2.8,Win32,60,m,1,0.503545,,,,,,,,0.503545,1,,,,,,31,WORD,"ID",16,weapon,WEAPON,m,,,,,,0.27734375,-0.21484375,0,0,0,,0,361,361,90,1,
,,,,,,,,,,,,,,,,,,5ef36a78ee14310baa87bcc0,2020-12-03_09h09.22.173,lexical_decision_task_MP_exp2,2020.2.8,Win32,60,z,1,0.56553,,,,,,,,0.56553,1,,,,,,256,NW,"ID",16,inlors,INLORS,z,,,,,,0.27734375,-0.21484375,0,0,0,space,0,362,362,315,1,0.90971
,,,,,,,,,,,,,,,,,,5ef36a78ee14310baa87bcc0,2020-12-03_09h09.22.173,lexical_decision_task_MP_exp2,2020.2.8,Win32,60,z,1,0.72295,,,,,,,,0.72295,1,,,,,,379,NW,UN,16,cavory,AUTING,z,,,,,,0.27734375,-0.21484375,0,0,0,,0,363,363,438,1,
,,,,,,,,,,,,,,,,,,5ef36a78ee14310baa87bcc0,2020-12-03_09h09.22.173,lexical_decision_task_MP_exp2,2020.2.8,Win32,60,m,1,0.50557,,,,,,,,0.50557,1,,,,,,41,WORD,"ID",16,spring,SPRING,m,,,,,,0.27734375,-0.21484375,0,0,0,,0,364,364,100,1,
,,,,,,,,,,,,,,,,,,5ef36a78ee14310baa87bcc0,2020-12-03_09h09.22.173,lexical_decision_task_MP_exp2,2020.2.8,Win32,60,z,1,0.416145,,,,,,,,0.416145,1,,,,,,356,NW,UN,33,derain,OTHNIS,z,,,,,,0.27734375,-0.21484375,0,0,0,,0,365,365,415,1,
,,,,,,,,,,,,,,,,,,5ef36a78ee14310baa87bcc0,2020-12-03_09h09.22.173,lexical_decision_task_MP_exp2,2020.2.8,Win32,60,z,1,0.565435,,,,,,,,0.565435,1,,,,,,332,NW,UN,33,catrie,VANGUE,z,,,,,,0.27734375,-0.21484375,0,0,0,,0,366,366,391,1,
,,,,,,,,,,,,,,,,,,5ef36a78ee14310baa87bcc0,2020-12-03_09h09.22.173,lexical_decision_task_MP_exp2,2020.2.8,Win32,60,z,1,0.39843,,,,,,,,0.39843,1,,,,,,346,NW,UN,33,kerift,SAUDIC,z,,,,,,0.27734375,-0.21484375,0,0,0,,0,367,367,405,1,
,,,,,,,,,,,,,,,,,,5ef36a78ee14310baa87bcc0,2020-12-03_09h09.22.173,lexical_decision_task_MP_exp2,2020.2.8,Win32,60,z,1,0.37338,,,,,,,,0.37338,1,,,,,,325,NW,UN,33,iguade,THRUSE,z,,,,,,0.27734375,-0.21484375,0,0,0,,0,368,368,384,1,
,,,,,,,,,,,,,,,,,,5ef36a78ee14310baa87bcc0,2020-12-03_09h09.22.173,lexical_decision_task_MP_exp2,2020.2.8,Win32,60,z,1,0.43296,,,,,,,,0.43296,1,,,,,,391,NW,UN,16,rouncy,THELDY,z,,,,,,0.27734375,-0.21484375,0,0,0,,0,369,369,450,1,
,,,,,,,,,,,,,,,,,,5ef36a78ee14310baa87bcc0,2020-12-03_09h09.22.173,lexical_decision_task_MP_exp2,2020.2.8,Win32,60,z,0,0.41555,,,,,,,,0.41555,0,,,,,,99,WORD,UN,33,carbon,FLUENT,m,,,,,,0.27734375,-0.21484375,0,0,0,,0,370,370,158,1,
,,,,,,,,,,,,,,,,,,5ef36a78ee14310baa87bcc0,2020-12-03_09h09.22.173,lexical_decision_task_MP_exp2,2020.2.8,Win32,60,z,1,0.608275,,,,,,,,0.608275,1,,,,,,292,NW,"ID",16,ablint,ABLINT,z,,,,,,0.27734375,-0.21484375,0,0,0,,0,371,371,351,1,
,,,,,,,,,,,,,,,,,,5ef36a78ee14310baa87bcc0,2020-12-03_09h09.22.173,lexical_decision_task_MP_exp2,2020.2.8,Win32,60,m,1,0.84843,,,,,,,,0.84843,1,,,,,,8,WORD,"ID",16,abrupt,ABRUPT,m,,,,,,0.27734375,-0.21484375,0,0,0,,0,372,372,67,1,
,,,,,,,,,,,,,,,,,,5ef36a78ee14310baa87bcc0,2020-12-03_09h09.22.173,lexical_decision_task_MP_exp2,2020.2.8,Win32,60,z,1,0.432775,,,,,,,,0.432775,1,,,,,,414,NW,UN,16,higsta,SERBOL,z,,,,,,0.27734375,-0.21484375,0,0,0,,0,373,373,473,1,
,,,,,,,,,,,,,,,,,,5ef36a78ee14310baa87bcc0,2020-12-03_09h09.22.173,lexical_decision_task_MP_exp2,2020.2.8,Win32,60,m,1,0.573135,,,,,,,,0.573135,1,,,,,,158,WORD,UN,16,detail,ISLAND,m,,,,,,0.27734375,-0.21484375,0,0,0,,0,374,374,217,1,
,,,,,,,,,,,,,,,,,,5ef36a78ee14310baa87bcc0,2020-12-03_09h09.22.173,lexical_decision_task_MP_exp2,2020.2.8,Win32,60,m,1,0.397645,,,,,,,,0.397645,1,,,,,,164,WORD,UN,16,invest,MARKET,m,,,,,,0.27734375,-0.21484375,0,0,0,,0,375,375,223,1,
,,,,,,,,,,,,,,,,,,5ef36a78ee14310baa87bcc0,2020-12-03_09h09.22.173,lexical_decision_task_MP_exp2,2020.2.8,Win32,60,z,1,1.015405,,,,,,,,1.015405,1,,,,,,343,NW,UN,33,scrily,AIMOSY,z,,,,,,0.27734375,-0.21484375,0,0,0,,0,376,376,402,1,
,,,,,,,,,,,,,,,,,,5ef36a78ee14310baa87bcc0,2020-12-03_09h09.22.173,lexical_decision_task_MP_exp2,2020.2.8,Win32,60,z,1,0.655605,,,,,,,,0.655605,1,,,,,,258,NW,"ID",16,poluth,POLUTH,z,,,,,,0.27734375,-0.21484375,0,0,0,,0,377,377,317,1,
,,,,,,,,,,,,,,,,,,5ef36a78ee14310baa87bcc0,2020-12-03_09h09.22.173,lexical_decision_task_MP_exp2,2020.2.8,Win32,60,m,0,0.54896,,,,,,,,0.54896,0,,,,,,319,NW,UN,33,jockal,ZOMBER,z,,,,,,0.27734375,-0.21484375,0,0,0,,0,378,378,378,1,
,,,,,,,,,,,,,,,,,,5ef36a78ee14310baa87bcc0,2020-12-03_09h09.22.173,lexical_decision_task_MP_exp2,2020.2.8,Win32,60,m,1,0.67411,,,,,,,,0.67411,1,,,,,,118,WORD,UN,33,spider,FLIGHT,m,,,,,,0.27734375,-0.21484375,0,0,0,,0,379,379,177,1,
,,,,,,,,,,,,,,,,,,5ef36a78ee14310baa87bcc0,2020-12-03_09h09.22.173,lexical_decision_task_MP_exp2,2020.2.8,Win32,60,z,1,0.49805,,,,,,,,0.49805,1,,,,,,383,NW,UN,16,guesco,AUNGRE,z,,,,,,0.27734375,-0.21484375,0,0,0,,0,380,380,442,1,
,,,,,,,,,,,,,,,,,,5ef36a78ee14310baa87bcc0,2020-12-03_09h09.22.173,lexical_decision_task_MP_exp2,2020.2.8,Win32,60,z,1,0.61518,,,,,,,,0.61518,1,,,,,,452,NW,"ID",33,surden,SURDEN,z,,,,,,0.27734375,-0.21484375,0,0,0,,0,381,381,271,1,
,,,,,,,,,,,,,,,,,,5ef36a78ee14310baa87bcc0,2020-12-03_09h09.22.173,lexical_decision_task_MP_exp2,2020.2.8,Win32,60,z,1,0.43109,,,,,,,,0.43109,1,,,,,,393,NW,UN,16,spaqux,GANOUS,z,,,,,,0.27734375,-0.21484375,0,0,0,,0,382,382,452,1,
,,,,,,,,,,,,,,,,,,5ef36a78ee14310baa87bcc0,2020-12-03_09h09.22.173,lexical_decision_task_MP_exp2,2020.2.8,Win32,60,z,1,0.417935,,,,,,,,0.417935,1,,,,,,327,NW,UN,33,broake,PLENAC,z,,,,,,0.27734375,-0.21484375,0,0,0,,0,383,383,386,1,
,,,,,,,,,,,,,,,,,,5ef36a78ee14310baa87bcc0,2020-12-03_09h09.22.173,lexical_decision_task_MP_exp2,2020.2.8,Win32,60,m,1,0.46628,,,,,,,,0.46628,1,,,,,,178,WORD,UN,16,basket,INFORM,m,,,,,,0.27734375,-0.21484375,0,0,0,,0,384,384,237,1,
,,,,,,,,,,,,,,,,,,5ef36a78ee14310baa87bcc0,2020-12-03_09h09.22.173,lexical_decision_task_MP_exp2,2020.2.8,Win32,60,m,1,0.546275,,,,,,,,0.546275,1,,,,,,116,WORD,UN,33,branch,TUMBLE,m,,,,,,0.27734375,-0.21484375,0,0,0,,0,385,385,175,1,
,,,,,,,,,,,,,,,,,,5ef36a78ee14310baa87bcc0,2020-12-03_09h09.22.173,lexical_decision_task_MP_exp2,2020.2.8,Win32,60,m,1,0.481335,,,,,,,,0.481335,1,,,,,,18,WORD,"ID",16,humble,HUMBLE,m,,,,,,0.27734375,-0.21484375,0,0,0,,0,386,386,77,1,
,,,,,,,,,,,,,,,,,,5ef36a78ee14310baa87bcc0,2020-12-03_09h09.22.173,lexical_decision_task_MP_exp2,2020.2.8,Win32,60,z,1,0.41626,,,,,,,,0.41626,1,,,,,,459,NW,"ID",33,bafent,BAFENT,z,,,,,,0.27734375,-0.21484375,0,0,0,,0,387,387,278,1,
,,,,,,,,,,,,,,,,,,5ef36a78ee14310baa87bcc0,2020-12-03_09h09.22.173,lexical_decision_task_MP_exp2,2020.2.8,Win32,60,m,1,0.472345,,,,,,,,0.472345,1,,,,,,233,WORD,"ID",33,nature,NATURE,m,,,,,,0.27734375,-0.21484375,0,0,0,,0,388,388,52,1,
,,,,,,,,,,,,,,,,,,5ef36a78ee14310baa87bcc0,2020-12-03_09h09.22.173,lexical_decision_task_MP_exp2,2020.2.8,Win32,60,m,1,0.48195,,,,,,,,0.48195,1,,,,,,76,WORD,UN,33,racket,EXOTIC,m,,,,,,0.27734375,-0.21484375,0,0,0,,0,389,389,135,1,
,,,,,,,,,,,,,,,,,,5ef36a78ee14310baa87bcc0,2020-12-03_09h09.22.173,lexical_decision_task_MP_exp2,2020.2.8,Win32,60,z,1,0.45112,,,,,,,,0.45112,1,,,,,,453,NW,"ID",33,bolvis,BOLVIS,z,,,,,,0.27734375,-0.21484375,0,0,0,,0,390,390,272,1,
,,,,,,,,,,,,,,,,,,5ef36a78ee14310baa87bcc0,2020-12-03_09h09.22.173,lexical_decision_task_MP_exp2,2020.2.8,Win32,60,m,1,0.416615,,,,,,,,0.416615,1,,,,,,190,WORD,"ID",33,backup,BACKUP,m,,,,,,0.27734375,-0.21484375,0,0,0,,0,391,391,9,1,
,,,,,,,,,,,,,,,,,,5ef36a78ee14310baa87bcc0,2020-12-03_09h09.22.173,lexical_decision_task_MP_exp2,2020.2.8,Win32,60,z,1,0.472205,,,,,,,,0.472205,1,,,,,,304,NW,UN,33,forgle,CLUDIE,z,,,,,,0.27734375,-0.21484375,0,0,0,,0,392,392,363,1,
,,,,,,,,,,,,,,,,,,5ef36a78ee14310baa87bcc0,2020-12-03_09h09.22.173,lexical_decision_task_MP_exp2,2020.2.8,Win32,60,z,1,0.482885,,,,,,,,0.482885,1,,,,,,311,NW,UN,33,nerawl,SPROLY,z,,,,,,0.27734375,-0.21484375,0,0,0,,0,393,393,370,1,
,,,,,,,,,,,,,,,,,,5ef36a78ee14310baa87bcc0,2020-12-03_09h09.22.173,lexical_decision_task_MP_exp2,2020.2.8,Win32,60,z,1,0.460175,,,,,,,,0.460175,1,,,,,,326,NW,UN,33,plenac,IGUADE,z,,,,,,0.27734375,-0.21484375,0,0,0,,0,394,394,385,1,
,,,,,,,,,,,,,,,,,,5ef36a78ee14310baa87bcc0,2020-12-03_09h09.22.173,lexical_decision_task_MP_exp2,2020.2.8,Win32,60,z,1,0.38329,,,,,,,,0.38329,1,,,,,,366,NW,UN,16,slique,TOSHEL,z,,,,,,0.27734375,-0.21484375,0,0,0,,0,395,395,425,1,
,,,,,,,,,,,,,,,,,,5ef36a78ee14310baa87bcc0,2020-12-03_09h09.22.173,lexical_decision_task_MP_exp2,2020.2.8,Win32,60,m,1,0.41604,,,,,,,,0.41604,1,,,,,,219,WORD,"ID",33,bucket,BUCKET,m,,,,,,0.27734375,-0.21484375,0,0,0,,0,396,396,38,1,
,,,,,,,,,,,,,,,,,,5ef36a78ee14310baa87bcc0,2020-12-03_09h09.22.173,lexical_decision_task_MP_exp2,2020.2.8,Win32,60,z,1,0.474055,,,,,,,,0.474055,1,,,,,,264,NW,"ID",16,vackel,VACKEL,z,,,,,,0.27734375,-0.21484375,0,0,0,,0,397,397,323,1,
,,,,,,,,,,,,,,,,,,5ef36a78ee14310baa87bcc0,2020-12-03_09h09.22.173,lexical_decision_task_MP_exp2,2020.2.8,Win32,60,m,1,0.44146,,,,,,,,0.44146,1,,,,,,13,WORD,"ID",16,strive,STRIVE,m,,,,,,0.27734375,-0.21484375,0,0,0,,0,398,398,72,1,
