counterbalancing_condition,instr_done_keyboard.keys,instr_done_keyboard.rt,instr_done_touch.x,instr_done_touch.y,instr_done_touch.leftButton,instr_done_touch.midButton,instr_done_touch.rightButton,instruction_pages.thisRepN,instruction_pages.thisTrialN,instruction_pages.thisN,instruction_pages.thisIndex,instruction_pages.ran,pageN,phase,instruct_text,has_image,instruct_image,participant,date,expName,psychopyVersion,OS,frameRate,response.keys,response.corr,response.rt,touch_resp.x,touch_resp.y,touch_resp.leftButton,touch_resp.midButton,touch_resp.rightButton,touch_resp.time,touch_resp.clicked_name,rt,corr,practice_trials.thisRepN,practice_trials.thisTrialN,practice_trials.thisN,practice_trials.thisIndex,practice_trials.ran,TrialID,StimulusType,Condition,PrimeDuration,Prime,Target,corrAns,end_of_practice_trials_pages.thisRepN,end_of_practice_trials_pages.thisTrialN,end_of_practice_trials_pages.thisN,end_of_practice_trials_pages.thisIndex,end_of_practice_trials_pages.ran,break_done_touch.x,break_done_touch.y,break_done_touch.leftButton,break_done_touch.midButton,break_done_touch.rightButton,break_done_keyboard.keys,trials.thisRepN,trials.thisTrialN,trials.thisN,trials.thisIndex,trials.ran
2,space,16.297,0.549768519,-0.222222222,0,0,0,0,0,0,0,1,1,instructions,"INSTRUCTIONS
At the start of each trial, look at the hash marks (######) in the center of the screen. After a moment, a string of letters will appear. Your task is to indicate if the letter string forms a word or not (i.e., if it is a nonword). For example, AUTHOR is a word while AUTHON is a nonword.

Press the space bar or touch the button below to continue.",0,,5f2e48f9498e160008a60d2d,2020-11-25_18h53.06.097,lexical_decision_task_MP_exp2,2020.2.5,Win32,60,,,,,,,,,,,,,,,,,,,,,,,,,,,,,,,,,,,,,,,,
,space,10.013,0.549768519,-0.222222222,0,0,0,0,1,1,1,1,2,instructions,"If your device has a keyboard, press the 'Z' key for nonwords and the 'M' key for words.





Press the space bar or touch the button below to continue.",1,keyboard-example.gif,5f2e48f9498e160008a60d2d,2020-11-25_18h53.06.097,lexical_decision_task_MP_exp2,2020.2.5,Win32,60,,,,,,,,,,,,,,,,,,,,,,,,,,,,,,,,,,,,,,,,
,space,2.079,0.549768519,-0.222222222,0,0,0,0,2,2,2,1,3,instructions,"If you are using a touchscreen only device, use the buttons on the screen. Do not use the mouse.





Press the space bar or touch the button below to continue.",1,touchscreen-example.gif,5f2e48f9498e160008a60d2d,2020-11-25_18h53.06.097,lexical_decision_task_MP_exp2,2020.2.5,Win32,60,,,,,,,,,,,,,,,,,,,,,,,,,,,,,,,,,,,,,,,,
,space,18.146,0.549768519,-0.222222222,0,0,0,0,3,3,3,1,4,instructions,"It is very important that you respond as quickly and accurately as possible, as each letter string will only be on the screen for two seconds. If you do not respond within this time, the message 'Too slow!' will be displayed and the experiment will progress to the next letter string. The first 20 trials will be practice trials and you will receive feedback on your answers. 

Press the space bar or touch the button below to start the practice trials.",0,,5f2e48f9498e160008a60d2d,2020-11-25_18h53.06.097,lexical_decision_task_MP_exp2,2020.2.5,Win32,60,,,,,,,,,,,,,,,,,,,,,,,,,,,,,,,,,,,,,,,,
,,,,,,,,,,,,,,,,,,5f2e48f9498e160008a60d2d,2020-11-25_18h53.06.097,lexical_decision_task_MP_exp2,2020.2.5,Win32,60,z,1,0.898,,,,,,,,0.898,1,0,0,0,10,1,1011,NW,"ID",16,inlade,INLADE,z,,,,,,,,,,,,,,,,
,,,,,,,,,,,,,,,,,,5f2e48f9498e160008a60d2d,2020-11-25_18h53.06.097,lexical_decision_task_MP_exp2,2020.2.5,Win32,60,z,1,0.883,,,,,,,,0.883,1,0,1,1,9,1,1010,NW,"ID",33,fariny,FARINY,z,,,,,,,,,,,,,,,,
,,,,,,,,,,,,,,,,,,5f2e48f9498e160008a60d2d,2020-11-25_18h53.06.097,lexical_decision_task_MP_exp2,2020.2.5,Win32,60,m,1,0.68,,,,,,,,0.68,1,0,2,2,3,1,1004,WORD,"ID",16,matrix,MATRIX,m,,,,,,,,,,,,,,,,
,,,,,,,,,,,,,,,,,,5f2e48f9498e160008a60d2d,2020-11-25_18h53.06.097,lexical_decision_task_MP_exp2,2020.2.5,Win32,60,m,1,0.765,,,,,,,,0.765,1,0,3,3,4,1,1005,WORD,UN,33,abound,SQUEAK,m,,,,,,,,,,,,,,,,
,,,,,,,,,,,,,,,,,,5f2e48f9498e160008a60d2d,2020-11-25_18h53.06.097,lexical_decision_task_MP_exp2,2020.2.5,Win32,60,z,0,0.588,,,,,,,,0.588,0,0,4,4,0,1,1001,WORD,"ID",33,utopia,UTOPIA,m,,,,,,,,,,,,,,,,
,,,,,,,,,,,,,,,,,,5f2e48f9498e160008a60d2d,2020-11-25_18h53.06.097,lexical_decision_task_MP_exp2,2020.2.5,Win32,60,z,1,0.637,,,,,,,,0.637,1,0,5,5,11,1,1012,NW,"ID",16,rashet,RASHET,z,,,,,,,,,,,,,,,,
,,,,,,,,,,,,,,,,,,5f2e48f9498e160008a60d2d,2020-11-25_18h53.06.097,lexical_decision_task_MP_exp2,2020.2.5,Win32,60,z,1,0.631,,,,,,,,0.631,1,0,6,6,13,1,1014,NW,UN,33,winfer,ROUPET,z,,,,,,,,,,,,,,,,
,,,,,,,,,,,,,,,,,,5f2e48f9498e160008a60d2d,2020-11-25_18h53.06.097,lexical_decision_task_MP_exp2,2020.2.5,Win32,60,m,1,0.516,,,,,,,,0.516,1,0,7,7,5,1,1006,WORD,UN,33,frenzy,OBTAIN,m,,,,,,,,,,,,,,,,
,,,,,,,,,,,,,,,,,,5f2e48f9498e160008a60d2d,2020-11-25_18h53.06.097,lexical_decision_task_MP_exp2,2020.2.5,Win32,60,m,1,0.522,,,,,,,,0.522,1,0,8,8,6,1,1007,WORD,UN,16,tropic,ZOMBIE,m,,,,,,,,,,,,,,,,
,,,,,,,,,,,,,,,,,,5f2e48f9498e160008a60d2d,2020-11-25_18h53.06.097,lexical_decision_task_MP_exp2,2020.2.5,Win32,60,m,1,0.588,,,,,,,,0.588,1,0,9,9,2,1,1003,WORD,"ID",16,almond,ALMOND,m,,,,,,,,,,,,,,,,
,,,,,,,,,,,,,,,,,,5f2e48f9498e160008a60d2d,2020-11-25_18h53.06.097,lexical_decision_task_MP_exp2,2020.2.5,Win32,60,z,1,0.734,,,,,,,,0.734,1,0,10,10,15,1,1016,NW,UN,16,mushed,WHAISE,z,,,,,,,,,,,,,,,,
,,,,,,,,,,,,,,,,,,5f2e48f9498e160008a60d2d,2020-11-25_18h53.06.097,lexical_decision_task_MP_exp2,2020.2.5,Win32,60,z,1,0.824,,,,,,,,0.824,1,0,11,11,14,1,1015,NW,UN,16,miaber,THRALE,z,,,,,,,,,,,,,,,,
,,,,,,,,,,,,,,,,,,5f2e48f9498e160008a60d2d,2020-11-25_18h53.06.097,lexical_decision_task_MP_exp2,2020.2.5,Win32,60,m,1,0.574,,,,,,,,0.574,1,0,12,12,1,1,1002,WORD,"ID",33,adjust,ADJUST,m,,,,,,,,,,,,,,,,
,,,,,,,,,,,,,,,,,,5f2e48f9498e160008a60d2d,2020-11-25_18h53.06.097,lexical_decision_task_MP_exp2,2020.2.5,Win32,60,z,1,0.748,,,,,,,,0.748,1,0,13,13,8,1,1009,NW,"ID",33,aslert,ASLERT,z,,,,,,,,,,,,,,,,
,,,,,,,,,,,,,,,,,,5f2e48f9498e160008a60d2d,2020-11-25_18h53.06.097,lexical_decision_task_MP_exp2,2020.2.5,Win32,60,z,1,0.781,,,,,,,,0.781,1,0,14,14,12,1,1013,NW,UN,33,adveil,SPRINY,z,,,,,,,,,,,,,,,,
,,,,,,,,,,,,,,,,,,5f2e48f9498e160008a60d2d,2020-11-25_18h53.06.097,lexical_decision_task_MP_exp2,2020.2.5,Win32,60,m,1,0.565,,,,,,,,0.565,1,0,15,15,7,1,1008,WORD,UN,16,hurdle,VOLUME,m,,,,,,,,,,,,,,,,
,space,32.99,0.542824074,-0.21412037,0,0,0,,,,,,1,end_of_practice,"You have completed the practice trials. During the experimental trials, you will not receive feedback, but it is very important that you respond as quickly and accurately as possible. 
Before you begin, please ensure that you are in a comfortable and quiet location and will not be disturbed for about 15 minutes, as we cannot use your data if you do not complete all the trials. 
There will be opportunities to take breaks at regular intervals during the experiment. When you are ready to start the experimental trials, please press space or touch the button below.",,,5f2e48f9498e160008a60d2d,2020-11-25_18h53.06.097,lexical_decision_task_MP_exp2,2020.2.5,Win32,60,,,,,,,,,,,,,,,,,,,,,,,,,0,0,0,0,1,,,,,,,,,,,
,,,,,,,,,,,,,,,,,,5f2e48f9498e160008a60d2d,2020-11-25_18h53.06.097,lexical_decision_task_MP_exp2,2020.2.5,Win32,60,m,1,0.599,,,,,,,,0.599,1,,,,,,168,WORD,"ID",16,answer,ANSWER,m,,,,,,0.542824074,-0.21412037,0,0,0,,0,0,0,107,1
,,,,,,,,,,,,,,,,,,5f2e48f9498e160008a60d2d,2020-11-25_18h53.06.097,lexical_decision_task_MP_exp2,2020.2.5,Win32,60,z,1,0.699,,,,,,,,0.699,1,,,,,,421,NW,UN,33,alcoud,KNISMA,z,,,,,,0.542824074,-0.21412037,0,0,0,,0,1,1,360,1
,,,,,,,,,,,,,,,,,,5f2e48f9498e160008a60d2d,2020-11-25_18h53.06.097,lexical_decision_task_MP_exp2,2020.2.5,Win32,60,z,1,0.785,,,,,,,,0.785,1,,,,,,283,NW,UN,16,shaple,VERALF,z,,,,,,0.542824074,-0.21412037,0,0,0,,0,2,2,462,1
,,,,,,,,,,,,,,,,,,5f2e48f9498e160008a60d2d,2020-11-25_18h53.06.097,lexical_decision_task_MP_exp2,2020.2.5,Win32,60,m,1,0.606,,,,,,,,0.606,1,,,,,,3,WORD,UN,16,trench,KNIGHT,m,,,,,,0.542824074,-0.21412037,0,0,0,,0,3,3,182,1
,,,,,,,,,,,,,,,,,,5f2e48f9498e160008a60d2d,2020-11-25_18h53.06.097,lexical_decision_task_MP_exp2,2020.2.5,Win32,60,z,1,0.816,,,,,,,,0.816,1,,,,,,332,NW,"ID",33,vangue,VANGUE,z,,,,,,0.542824074,-0.21412037,0,0,0,,0,4,4,271,1
,,,,,,,,,,,,,,,,,,5f2e48f9498e160008a60d2d,2020-11-25_18h53.06.097,lexical_decision_task_MP_exp2,2020.2.5,Win32,60,z,1,0.614,,,,,,,,0.614,1,,,,,,245,NW,UN,16,piaton,ANOUGS,z,,,,,,0.542824074,-0.21412037,0,0,0,,0,5,5,424,1
,,,,,,,,,,,,,,,,,,5f2e48f9498e160008a60d2d,2020-11-25_18h53.06.097,lexical_decision_task_MP_exp2,2020.2.5,Win32,60,z,1,0.634,,,,,,,,0.634,1,,,,,,288,NW,UN,16,starby,YACEUP,z,,,,,,0.542824074,-0.21412037,0,0,0,,0,6,6,467,1
,,,,,,,,,,,,,,,,,,5f2e48f9498e160008a60d2d,2020-11-25_18h53.06.097,lexical_decision_task_MP_exp2,2020.2.5,Win32,60,z,1,0.998,,,,,,,,0.998,1,,,,,,425,NW,UN,33,urivel,FRUDGE,z,,,,,,0.542824074,-0.21412037,0,0,0,,0,7,7,364,1
,,,,,,,,,,,,,,,,,,5f2e48f9498e160008a60d2d,2020-11-25_18h53.06.097,lexical_decision_task_MP_exp2,2020.2.5,Win32,60,z,1,0.732,,,,,,,,0.732,1,,,,,,368,NW,"ID",16,hornal,HORNAL,z,,,,,,0.542824074,-0.21412037,0,0,0,,0,8,8,307,1
,,,,,,,,,,,,,,,,,,5f2e48f9498e160008a60d2d,2020-11-25_18h53.06.097,lexical_decision_task_MP_exp2,2020.2.5,Win32,60,m,1,0.639,,,,,,,,0.639,1,,,,,,150,WORD,"ID",16,random,RANDOM,m,,,,,,0.542824074,-0.21412037,0,0,0,,0,9,9,89,1
,,,,,,,,,,,,,,,,,,5f2e48f9498e160008a60d2d,2020-11-25_18h53.06.097,lexical_decision_task_MP_exp2,2020.2.5,Win32,60,z,1,0.633,,,,,,,,0.633,1,,,,,,457,NW,UN,33,barcet,WANIGH,z,,,,,,0.542824074,-0.21412037,0,0,0,,0,10,10,396,1
,,,,,,,,,,,,,,,,,,5f2e48f9498e160008a60d2d,2020-11-25_18h53.06.097,lexical_decision_task_MP_exp2,2020.2.5,Win32,60,z,1,0.619,,,,,,,,0.619,1,,,,,,241,NW,UN,16,unwert,SMENCO,z,,,,,,0.542824074,-0.21412037,0,0,0,,0,11,11,420,1
,,,,,,,,,,,,,,,,,,5f2e48f9498e160008a60d2d,2020-11-25_18h53.06.097,lexical_decision_task_MP_exp2,2020.2.5,Win32,60,m,1,0.534,,,,,,,,0.534,1,,,,,,48,WORD,UN,16,survey,WALNUT,m,,,,,,0.542824074,-0.21412037,0,0,0,,0,12,12,227,1
,,,,,,,,,,,,,,,,,,5f2e48f9498e160008a60d2d,2020-11-25_18h53.06.097,lexical_decision_task_MP_exp2,2020.2.5,Win32,60,z,1,0.738,,,,,,,,0.738,1,,,,,,250,NW,UN,16,lupict,MILTED,z,,,,,,0.542824074,-0.21412037,0,0,0,,0,13,13,429,1
,,,,,,,,,,,,,,,,,,5f2e48f9498e160008a60d2d,2020-11-25_18h53.06.097,lexical_decision_task_MP_exp2,2020.2.5,Win32,60,z,1,0.599,,,,,,,,0.599,1,,,,,,351,NW,"ID",33,tiesch,TIESCH,z,,,,,,0.542824074,-0.21412037,0,0,0,,0,14,14,290,1
,,,,,,,,,,,,,,,,,,5f2e48f9498e160008a60d2d,2020-11-25_18h53.06.097,lexical_decision_task_MP_exp2,2020.2.5,Win32,60,z,0,0.618,,,,,,,,0.618,0,,,,,,176,WORD,"ID",16,strife,STRIFE,m,,,,,,0.542824074,-0.21412037,0,0,0,,0,15,15,115,1
,,,,,,,,,,,,,,,,,,5f2e48f9498e160008a60d2d,2020-11-25_18h53.06.097,lexical_decision_task_MP_exp2,2020.2.5,Win32,60,m,1,0.636,,,,,,,,0.636,1,,,,,,216,WORD,UN,33,liquor,BEHALF,m,,,,,,0.542824074,-0.21412037,0,0,0,,0,16,16,155,1
,,,,,,,,,,,,,,,,,,5f2e48f9498e160008a60d2d,2020-11-25_18h53.06.097,lexical_decision_task_MP_exp2,2020.2.5,Win32,60,z,1,0.615,,,,,,,,0.615,1,,,,,,444,NW,UN,33,minkel,JAUNCE,z,,,,,,0.542824074,-0.21412037,0,0,0,,0,17,17,383,1
,,,,,,,,,,,,,,,,,,5f2e48f9498e160008a60d2d,2020-11-25_18h53.06.097,lexical_decision_task_MP_exp2,2020.2.5,Win32,60,m,1,0.489,,,,,,,,0.489,1,,,,,,31,WORD,UN,16,buckle,WEAPON,m,,,,,,0.542824074,-0.21412037,0,0,0,,0,18,18,210,1
,,,,,,,,,,,,,,,,,,5f2e48f9498e160008a60d2d,2020-11-25_18h53.06.097,lexical_decision_task_MP_exp2,2020.2.5,Win32,60,z,1,0.665,,,,,,,,0.665,1,,,,,,436,NW,UN,33,snapel,FRUTAN,z,,,,,,0.542824074,-0.21412037,0,0,0,,0,19,19,375,1
,,,,,,,,,,,,,,,,,,5f2e48f9498e160008a60d2d,2020-11-25_18h53.06.097,lexical_decision_task_MP_exp2,2020.2.5,Win32,60,z,1,0.702,,,,,,,,0.702,1,,,,,,439,NW,UN,33,saride,LIMPOR,z,,,,,,0.542824074,-0.21412037,0,0,0,,0,20,20,378,1
,,,,,,,,,,,,,,,,,,5f2e48f9498e160008a60d2d,2020-11-25_18h53.06.097,lexical_decision_task_MP_exp2,2020.2.5,Win32,60,z,1,0.582,,,,,,,,0.582,1,,,,,,263,NW,UN,16,vackel,DOLICA,z,,,,,,0.542824074,-0.21412037,0,0,0,,0,21,21,442,1
,,,,,,,,,,,,,,,,,,5f2e48f9498e160008a60d2d,2020-11-25_18h53.06.097,lexical_decision_task_MP_exp2,2020.2.5,Win32,60,m,1,0.632,,,,,,,,0.632,1,,,,,,56,WORD,UN,16,change,AMBUSH,m,,,,,,0.542824074,-0.21412037,0,0,0,,0,22,22,235,1
,,,,,,,,,,,,,,,,,,5f2e48f9498e160008a60d2d,2020-11-25_18h53.06.097,lexical_decision_task_MP_exp2,2020.2.5,Win32,60,m,1,0.636,,,,,,,,0.636,1,,,,,,84,WORD,"ID",33,mortal,MORTAL,m,,,,,,0.542824074,-0.21412037,0,0,0,,0,23,23,23,1
,,,,,,,,,,,,,,,,,,5f2e48f9498e160008a60d2d,2020-11-25_18h53.06.097,lexical_decision_task_MP_exp2,2020.2.5,Win32,60,m,0,0.771,,,,,,,,0.771,0,,,,,,345,NW,"ID",33,absend,ABSEND,z,,,,,,0.542824074,-0.21412037,0,0,0,,0,24,24,284,1
,,,,,,,,,,,,,,,,,,5f2e48f9498e160008a60d2d,2020-11-25_18h53.06.097,lexical_decision_task_MP_exp2,2020.2.5,Win32,60,z,1,0.639,,,,,,,,0.639,1,,,,,,465,NW,UN,33,bafent,WHIVEX,z,,,,,,0.542824074,-0.21412037,0,0,0,,0,25,25,404,1
,,,,,,,,,,,,,,,,,,5f2e48f9498e160008a60d2d,2020-11-25_18h53.06.097,lexical_decision_task_MP_exp2,2020.2.5,Win32,60,z,1,0.64,,,,,,,,0.64,1,,,,,,267,NW,UN,16,packes,PASINK,z,,,,,,0.542824074,-0.21412037,0,0,0,,0,26,26,446,1
,,,,,,,,,,,,,,,,,,5f2e48f9498e160008a60d2d,2020-11-25_18h53.06.097,lexical_decision_task_MP_exp2,2020.2.5,Win32,60,z,1,0.582,,,,,,,,0.582,1,,,,,,404,NW,"ID",16,cluirm,CLUIRM,z,,,,,,0.542824074,-0.21412037,0,0,0,,0,27,27,343,1
,,,,,,,,,,,,,,,,,,5f2e48f9498e160008a60d2d,2020-11-25_18h53.06.097,lexical_decision_task_MP_exp2,2020.2.5,Win32,60,z,1,0.532,,,,,,,,0.532,1,,,,,,463,NW,UN,33,chaite,KISPEL,z,,,,,,0.542824074,-0.21412037,0,0,0,,0,28,28,402,1
,,,,,,,,,,,,,,,,,,5f2e48f9498e160008a60d2d,2020-11-25_18h53.06.097,lexical_decision_task_MP_exp2,2020.2.5,Win32,60,m,1,0.648,,,,,,,,0.648,1,,,,,,52,WORD,UN,16,police,IMPOSE,m,,,,,,0.542824074,-0.21412037,0,0,0,,0,29,29,231,1
,,,,,,,,,,,,,,,,,,5f2e48f9498e160008a60d2d,2020-11-25_18h53.06.097,lexical_decision_task_MP_exp2,2020.2.5,Win32,60,z,1,0.666,,,,,,,,0.666,1,,,,,,409,NW,"ID",16,elopia,ELOPIA,z,,,,,,0.542824074,-0.21412037,0,0,0,,0,30,30,348,1
,,,,,,,,,,,,,,,,,,5f2e48f9498e160008a60d2d,2020-11-25_18h53.06.097,lexical_decision_task_MP_exp2,2020.2.5,Win32,60,m,1,0.715,,,,,,,,0.715,1,,,,,,179,WORD,"ID",16,basket,BASKET,m,,,,,,0.542824074,-0.21412037,0,0,0,,0,31,31,118,1
,,,,,,,,,,,,,,,,,,5f2e48f9498e160008a60d2d,2020-11-25_18h53.06.097,lexical_decision_task_MP_exp2,2020.2.5,Win32,60,m,1,0.689,,,,,,,,0.689,1,,,,,,142,WORD,"ID",16,spruce,SPRUCE,m,,,,,,0.542824074,-0.21412037,0,0,0,,0,32,32,81,1
,,,,,,,,,,,,,,,,,,5f2e48f9498e160008a60d2d,2020-11-25_18h53.06.097,lexical_decision_task_MP_exp2,2020.2.5,Win32,60,z,1,0.714,,,,,,,,0.714,1,,,,,,258,NW,UN,16,soudal,POLUTH,z,,,,,,0.542824074,-0.21412037,0,0,0,,0,33,33,437,1
,,,,,,,,,,,,,,,,,,5f2e48f9498e160008a60d2d,2020-11-25_18h53.06.097,lexical_decision_task_MP_exp2,2020.2.5,Win32,60,z,1,0.599,,,,,,,,0.599,1,,,,,,393,NW,"ID",16,ganous,GANOUS,z,,,,,,0.542824074,-0.21412037,0,0,0,,0,34,34,332,1
,,,,,,,,,,,,,,,,,,5f2e48f9498e160008a60d2d,2020-11-25_18h53.06.097,lexical_decision_task_MP_exp2,2020.2.5,Win32,60,z,1,0.597,,,,,,,,0.597,1,,,,,,371,NW,"ID",16,geiloy,GEILOY,z,,,,,,0.542824074,-0.21412037,0,0,0,,0,35,35,310,1
,,,,,,,,,,,,,,,,,,5f2e48f9498e160008a60d2d,2020-11-25_18h53.06.097,lexical_decision_task_MP_exp2,2020.2.5,Win32,60,m,1,0.665,,,,,,,,0.665,1,,,,,,218,WORD,UN,33,bucket,SHRINK,m,,,,,,0.542824074,-0.21412037,0,0,0,,0,36,36,157,1
,,,,,,,,,,,,,,,,,,5f2e48f9498e160008a60d2d,2020-11-25_18h53.06.097,lexical_decision_task_MP_exp2,2020.2.5,Win32,60,z,1,0.665,,,,,,,,0.665,1,,,,,,254,NW,UN,16,apight,VAROSH,z,,,,,,0.542824074,-0.21412037,0,0,0,,0,37,37,433,1
,,,,,,,,,,,,,,,,,,5f2e48f9498e160008a60d2d,2020-11-25_18h53.06.097,lexical_decision_task_MP_exp2,2020.2.5,Win32,60,m,1,0.616,,,,,,,,0.616,1,,,,,,11,WORD,UN,16,amount,CRUISE,m,,,,,,0.542824074,-0.21412037,0,0,0,,0,38,38,190,1
,,,,,,,,,,,,,,,,,,5f2e48f9498e160008a60d2d,2020-11-25_18h53.06.097,lexical_decision_task_MP_exp2,2020.2.5,Win32,60,z,1,0.722,,,,,,,,0.722,1,,,,,,282,NW,UN,16,veralf,PORLEX,z,,,,,,0.542824074,-0.21412037,0,0,0,,0,39,39,461,1
,,,,,,,,,,,,,,,,,,5f2e48f9498e160008a60d2d,2020-11-25_18h53.06.097,lexical_decision_task_MP_exp2,2020.2.5,Win32,60,m,1,0.582,,,,,,,,0.582,1,,,,,,175,WORD,"ID",16,fabric,FABRIC,m,,,,,,0.542824074,-0.21412037,0,0,0,,0,40,40,114,1
,,,,,,,,,,,,,,,,,,5f2e48f9498e160008a60d2d,2020-11-25_18h53.06.097,lexical_decision_task_MP_exp2,2020.2.5,Win32,60,z,1,0.699,,,,,,,,0.699,1,,,,,,262,NW,UN,16,dolica,QUILEW,z,,,,,,0.542824074,-0.21412037,0,0,0,,0,41,41,441,1
,,,,,,,,,,,,,,,,,,5f2e48f9498e160008a60d2d,2020-11-25_18h53.06.097,lexical_decision_task_MP_exp2,2020.2.5,Win32,60,m,1,0.648,,,,,,,,0.648,1,,,,,,222,WORD,UN,33,export,HINDER,m,,,,,,0.542824074,-0.21412037,0,0,0,,0,42,42,161,1
,,,,,,,,,,,,,,,,,,5f2e48f9498e160008a60d2d,2020-11-25_18h53.06.097,lexical_decision_task_MP_exp2,2020.2.5,Win32,60,m,1,0.617,,,,,,,,0.617,1,,,,,,202,WORD,UN,33,phrase,FACTOR,m,,,,,,0.542824074,-0.21412037,0,0,0,,0,43,43,141,1
,,,,,,,,,,,,,,,,,,5f2e48f9498e160008a60d2d,2020-11-25_18h53.06.097,lexical_decision_task_MP_exp2,2020.2.5,Win32,60,m,1,0.635,,,,,,,,0.635,1,,,,,,36,WORD,UN,16,insult,VANISH,m,,,,,,0.542824074,-0.21412037,0,0,0,,0,44,44,215,1
,,,,,,,,,,,,,,,,,,5f2e48f9498e160008a60d2d,2020-11-25_18h53.06.097,lexical_decision_task_MP_exp2,2020.2.5,Win32,60,m,1,0.549,,,,,,,,0.549,1,,,,,,110,WORD,"ID",33,polite,POLITE,m,,,,,,0.542824074,-0.21412037,0,0,0,,0,45,45,49,1
,,,,,,,,,,,,,,,,,,5f2e48f9498e160008a60d2d,2020-11-25_18h53.06.097,lexical_decision_task_MP_exp2,2020.2.5,Win32,60,m,1,0.586,,,,,,,,0.586,1,,,,,,63,WORD,"ID",33,launch,LAUNCH,m,,,,,,0.542824074,-0.21412037,0,0,0,,0,46,46,2,1
,,,,,,,,,,,,,,,,,,5f2e48f9498e160008a60d2d,2020-11-25_18h53.06.097,lexical_decision_task_MP_exp2,2020.2.5,Win32,60,m,1,0.615,,,,,,,,0.615,1,,,,,,2,WORD,UN,16,knight,BRIDGE,m,,,,,,0.542824074,-0.21412037,0,0,0,,0,47,47,181,1
,,,,,,,,,,,,,,,,,,5f2e48f9498e160008a60d2d,2020-11-25_18h53.06.097,lexical_decision_task_MP_exp2,2020.2.5,Win32,60,z,1,0.837,,,,,,,,0.837,1,,,,,,318,NW,"ID",33,reagly,REAGLY,z,,,,,,0.542824074,-0.21412037,0,0,0,,0,48,48,257,1
,,,,,,,,,,,,,,,,,,5f2e48f9498e160008a60d2d,2020-11-25_18h53.06.097,lexical_decision_task_MP_exp2,2020.2.5,Win32,60,z,1,0.832,,,,,,,,0.832,1,,,,,,301,NW,"ID",33,fainch,FAINCH,z,,,,,,0.542824074,-0.21412037,0,0,0,,0,49,49,240,1
,,,,,,,,,,,,,,,,,,5f2e48f9498e160008a60d2d,2020-11-25_18h53.06.097,lexical_decision_task_MP_exp2,2020.2.5,Win32,60,m,1,0.521,,,,,,,,0.521,1,,,,,,138,WORD,"ID",16,melody,MELODY,m,,,,,,0.542824074,-0.21412037,0,0,0,,0,50,50,77,1
,,,,,,,,,,,,,,,,,,5f2e48f9498e160008a60d2d,2020-11-25_18h53.06.097,lexical_decision_task_MP_exp2,2020.2.5,Win32,60,m,1,0.641,,,,,,,,0.641,1,,,,,,49,WORD,UN,16,snatch,SURVEY,m,,,,,,0.542824074,-0.21412037,0,0,0,,0,51,51,228,1
,,,,,,,,,,,,,,,,,,5f2e48f9498e160008a60d2d,2020-11-25_18h53.06.097,lexical_decision_task_MP_exp2,2020.2.5,Win32,60,z,1,0.689,,,,,,,,0.689,1,,,,,,427,NW,UN,33,tandly,SCHIND,z,,,,,,0.542824074,-0.21412037,0,0,0,,0,52,52,366,1
,,,,,,,,,,,,,,,,,,5f2e48f9498e160008a60d2d,2020-11-25_18h53.06.097,lexical_decision_task_MP_exp2,2020.2.5,Win32,60,m,1,0.614,,,,,,,,0.614,1,,,,,,70,WORD,"ID",33,square,SQUARE,m,,,,,,0.542824074,-0.21412037,0,0,0,,0,53,53,9,1
,,,,,,,,,,,,,,,,,,5f2e48f9498e160008a60d2d,2020-11-25_18h53.06.097,lexical_decision_task_MP_exp2,2020.2.5,Win32,60,z,1,0.665,,,,,,,,0.665,1,,,,,,309,NW,"ID",33,amiloy,AMILOY,z,,,,,,0.542824074,-0.21412037,0,0,0,,0,54,54,248,1
,,,,,,,,,,,,,,,,,,5f2e48f9498e160008a60d2d,2020-11-25_18h53.06.097,lexical_decision_task_MP_exp2,2020.2.5,Win32,60,z,1,0.633,,,,,,,,0.633,1,,,,,,470,NW,UN,33,nobest,CRUDIO,z,,,,,,0.542824074,-0.21412037,0,0,0,,0,55,55,409,1
,,,,,,,,,,,,,,,,,,5f2e48f9498e160008a60d2d,2020-11-25_18h53.06.097,lexical_decision_task_MP_exp2,2020.2.5,Win32,60,z,1,0.598,,,,,,,,0.598,1,,,,,,447,NW,UN,33,sadent,GIRCUE,z,,,,,,0.542824074,-0.21412037,0,0,0,,0,56,56,386,1
,,,,,,,,,,,,,,,,,,5f2e48f9498e160008a60d2d,2020-11-25_18h53.06.097,lexical_decision_task_MP_exp2,2020.2.5,Win32,60,m,1,0.572,,,,,,,,0.572,1,,,,,,211,WORD,UN,33,verify,INFECT,m,,,,,,0.542824074,-0.21412037,0,0,0,,0,57,57,150,1
,,,,,,,,,,,,,,,,,,5f2e48f9498e160008a60d2d,2020-11-25_18h53.06.097,lexical_decision_task_MP_exp2,2020.2.5,Win32,60,m,1,0.649,,,,,,,,0.649,1,,,,,,177,WORD,"ID",16,advent,ADVENT,m,,,,,,0.542824074,-0.21412037,0,0,0,,0,58,58,116,1
,,,,,,,,,,,,,,,,,,5f2e48f9498e160008a60d2d,2020-11-25_18h53.06.097,lexical_decision_task_MP_exp2,2020.2.5,Win32,60,m,1,0.632,,,,,,,,0.632,1,,,,,,113,WORD,"ID",33,chorus,CHORUS,m,,,,,,0.542824074,-0.21412037,0,0,0,,0,59,59,52,1
,,,,,,,,,,,,,,,,,,5f2e48f9498e160008a60d2d,2020-11-25_18h53.06.097,lexical_decision_task_MP_exp2,2020.2.5,Win32,60,z,1,0.665,,,,,,,,0.665,1,,,,,,456,NW,UN,33,wanigh,BROGET,z,,,,,,0.542824074,-0.21412037,0,0,0,,0,60,60,395,1
,,,,,,,,,,,,,,,,,,5f2e48f9498e160008a60d2d,2020-11-25_18h53.06.097,lexical_decision_task_MP_exp2,2020.2.5,Win32,60,z,1,0.765,,,,,,,,0.765,1,,,,,,448,NW,UN,33,brunge,SADENT,z,,,,,,0.542824074,-0.21412037,0,0,0,,0,61,61,387,1
,,,,,,,,,,,,,,,,,,5f2e48f9498e160008a60d2d,2020-11-25_18h53.06.097,lexical_decision_task_MP_exp2,2020.2.5,Win32,60,z,1,0.565,,,,,,,,0.565,1,,,,,,359,NW,"ID",33,fonver,FONVER,z,,,,,,0.542824074,-0.21412037,0,0,0,,0,62,62,298,1
,,,,,,,,,,,,,,,,,,5f2e48f9498e160008a60d2d,2020-11-25_18h53.06.097,lexical_decision_task_MP_exp2,2020.2.5,Win32,60,m,1,0.666,,,,,,,,0.666,1,,,,,,206,WORD,UN,33,wreath,TAILOR,m,,,,,,0.542824074,-0.21412037,0,0,0,,0,63,63,145,1
,,,,,,,,,,,,,,,,,,5f2e48f9498e160008a60d2d,2020-11-25_18h53.06.097,lexical_decision_task_MP_exp2,2020.2.5,Win32,60,m,1,0.537,,,,,,,,0.537,1,,,,,,229,WORD,UN,33,fringe,MOTHER,m,,,,,,0.542824074,-0.21412037,0,0,0,,0,64,64,168,1
,,,,,,,,,,,,,,,,,,5f2e48f9498e160008a60d2d,2020-11-25_18h53.06.097,lexical_decision_task_MP_exp2,2020.2.5,Win32,60,z,1,0.631,,,,,,,,0.631,1,,,,,,349,NW,"ID",33,asylen,ASYLEN,z,,,,,,0.542824074,-0.21412037,0,0,0,,0,65,65,288,1
,,,,,,,,,,,,,,,,,,5f2e48f9498e160008a60d2d,2020-11-25_18h53.06.097,lexical_decision_task_MP_exp2,2020.2.5,Win32,60,m,1,0.532,,,,,,,,0.532,1,,,,,,46,WORD,UN,16,income,SINGLE,m,,,,,,0.542824074,-0.21412037,0,0,0,,0,66,66,225,1
,,,,,,,,,,,,,,,,,,5f2e48f9498e160008a60d2d,2020-11-25_18h53.06.097,lexical_decision_task_MP_exp2,2020.2.5,Win32,60,m,1,0.547,,,,,,,,0.547,1,,,,,,224,WORD,UN,33,vulgar,PERIOD,m,,,,,,0.542824074,-0.21412037,0,0,0,,0,67,67,163,1
,,,,,,,,,,,,,,,,,,5f2e48f9498e160008a60d2d,2020-11-25_18h53.06.097,lexical_decision_task_MP_exp2,2020.2.5,Win32,60,m,1,0.865,,,,,,,,0.865,1,,,,,,124,WORD,"ID",16,blouse,BLOUSE,m,,,,,,0.542824074,-0.21412037,0,0,0,,0,68,68,63,1
,,,,,,,,,,,,,,,,,,5f2e48f9498e160008a60d2d,2020-11-25_18h53.06.097,lexical_decision_task_MP_exp2,2020.2.5,Win32,60,z,1,0.665,,,,,,,,0.665,1,,,,,,317,NW,"ID",33,worbal,WORBAL,z,,,,,,0.542824074,-0.21412037,0,0,0,,0,69,69,256,1
,,,,,,,,,,,,,,,,,,5f2e48f9498e160008a60d2d,2020-11-25_18h53.06.097,lexical_decision_task_MP_exp2,2020.2.5,Win32,60,z,1,0.817,,,,,,,,0.817,1,,,,,,460,NW,UN,33,justre,MINGAR,z,,,,,,0.542824074,-0.21412037,0,0,0,,0,70,70,399,1
,,,,,,,,,,,,,,,,,,5f2e48f9498e160008a60d2d,2020-11-25_18h53.06.097,lexical_decision_task_MP_exp2,2020.2.5,Win32,60,z,0,0.669,,,,,,,,0.669,0,,,,,,45,WORD,UN,16,single,CLERGY,m,,,,,,0.542824074,-0.21412037,0,0,0,,0,71,71,224,1
,,,,,,,,,,,,,,,,,,5f2e48f9498e160008a60d2d,2020-11-25_18h53.06.097,lexical_decision_task_MP_exp2,2020.2.5,Win32,60,z,1,0.567,,,,,,,,0.567,1,,,,,,298,NW,UN,16,sturch,PIERGY,z,,,,,,0.542824074,-0.21412037,0,0,0,,0,72,72,477,1
,,,,,,,,,,,,,,,,,,5f2e48f9498e160008a60d2d,2020-11-25_18h53.06.097,lexical_decision_task_MP_exp2,2020.2.5,Win32,60,z,1,0.904,,,,,,,,0.904,1,,,,,,411,NW,"ID",16,orchin,ORCHIN,z,,,,,,0.542824074,-0.21412037,0,0,0,,0,73,73,350,1
,,,,,,,,,,,,,,,,,,5f2e48f9498e160008a60d2d,2020-11-25_18h53.06.097,lexical_decision_task_MP_exp2,2020.2.5,Win32,60,z,1,0.656,,,,,,,,0.656,1,,,,,,339,NW,"ID",33,fachow,FACHOW,z,,,,,,0.542824074,-0.21412037,0,0,0,,0,74,74,278,1
,,,,,,,,,,,,,,,,,,5f2e48f9498e160008a60d2d,2020-11-25_18h53.06.097,lexical_decision_task_MP_exp2,2020.2.5,Win32,60,z,1,0.633,,,,,,,,0.633,1,,,,,,382,NW,"ID",16,sarley,SARLEY,z,,,,,,0.542824074,-0.21412037,0,0,0,,0,75,75,321,1
,,,,,,,,,,,,,,,,,,5f2e48f9498e160008a60d2d,2020-11-25_18h53.06.097,lexical_decision_task_MP_exp2,2020.2.5,Win32,60,m,1,0.582,,,,,,,,0.582,1,,,,,,29,WORD,UN,16,orient,SKETCH,m,,,,,,0.542824074,-0.21412037,0,0,0,,0,76,76,208,1
,,,,,,,,,,,,,,,,,,5f2e48f9498e160008a60d2d,2020-11-25_18h53.06.097,lexical_decision_task_MP_exp2,2020.2.5,Win32,60,z,1,0.669,,,,,,,,0.669,1,,,,,,415,NW,"ID",16,higsta,HIGSTA,z,,,,,,0.542824074,-0.21412037,0,0,0,,0,77,77,354,1
,,,,,,,,,,,,,,,,,,5f2e48f9498e160008a60d2d,2020-11-25_18h53.06.097,lexical_decision_task_MP_exp2,2020.2.5,Win32,60,m,1,0.622,,,,,,,,0.622,1,,,,,,123,WORD,"ID",16,strike,STRIKE,m,,,,,,0.542824074,-0.21412037,0,0,0,,0,78,78,62,1
,,,,,,,,,,,,,,,,,,5f2e48f9498e160008a60d2d,2020-11-25_18h53.06.097,lexical_decision_task_MP_exp2,2020.2.5,Win32,60,z,1,0.599,,,,,,,,0.599,1,,,,,,469,NW,UN,33,crudio,PADIFS,z,,,,,,0.542824074,-0.21412037,0,0,0,,0,79,79,408,1
,,,,,,,,,,,,,,,,,,5f2e48f9498e160008a60d2d,2020-11-25_18h53.06.097,lexical_decision_task_MP_exp2,2020.2.5,Win32,60,z,1,0.599,,,,,,,,0.599,1,,,,,,428,NW,UN,33,funtle,TANDLY,z,,,,,,0.542824074,-0.21412037,0,0,0,,0,80,80,367,1
,,,,,,,,,,,,,,,,,,5f2e48f9498e160008a60d2d,2020-11-25_18h53.06.097,lexical_decision_task_MP_exp2,2020.2.5,Win32,60,z,1,0.589,,,,,,,,0.589,1,,,,,,253,NW,UN,16,varosh,RESAIT,z,,,,,,0.542824074,-0.21412037,0,0,0,,0,81,81,432,1
,,,,,,,,,,,,,,,,,,5f2e48f9498e160008a60d2d,2020-11-25_18h53.06.097,lexical_decision_task_MP_exp2,2020.2.5,Win32,60,m,1,0.601,,,,,,,,0.601,1,,,,,,53,WORD,UN,16,ramble,POLICE,m,,,,,,0.542824074,-0.21412037,0,0,0,,0,82,82,232,1
,,,,,,,,,,,,,,,,,,5f2e48f9498e160008a60d2d,2020-11-25_18h53.06.097,lexical_decision_task_MP_exp2,2020.2.5,Win32,60,z,1,0.665,,,,,,,,0.665,1,,,,,,435,NW,UN,33,frutan,IMPURB,z,,,,,,0.542824074,-0.21412037,0,0,0,,0,83,83,374,1
,,,,,,,,,,,,,,,,,,5f2e48f9498e160008a60d2d,2020-11-25_18h53.06.097,lexical_decision_task_MP_exp2,2020.2.5,Win32,60,m,1,0.599,,,,,,,,0.599,1,,,,,,226,WORD,UN,33,flower,CASINO,m,,,,,,0.542824074,-0.21412037,0,0,0,,0,84,84,165,1
,,,,,,,,,,,,,,,,,,5f2e48f9498e160008a60d2d,2020-11-25_18h53.06.097,lexical_decision_task_MP_exp2,2020.2.5,Win32,60,m,1,0.637,,,,,,,,0.637,1,,,,,,137,WORD,"ID",16,finger,FINGER,m,,,,,,0.542824074,-0.21412037,0,0,0,,0,85,85,76,1
,,,,,,,,,,,,,,,,,,5f2e48f9498e160008a60d2d,2020-11-25_18h53.06.097,lexical_decision_task_MP_exp2,2020.2.5,Win32,60,m,1,1.168,,,,,,,,1.168,1,,,,,,54,WORD,UN,16,stroke,RAMBLE,m,,,,,,0.542824074,-0.21412037,0,0,0,,0,86,86,233,1
,,,,,,,,,,,,,,,,,,5f2e48f9498e160008a60d2d,2020-11-25_18h53.06.097,lexical_decision_task_MP_exp2,2020.2.5,Win32,60,m,1,0.715,,,,,,,,0.715,1,,,,,,42,WORD,UN,16,tongue,CHAPEL,m,,,,,,0.542824074,-0.21412037,0,0,0,,0,87,87,221,1
,,,,,,,,,,,,,,,,,,5f2e48f9498e160008a60d2d,2020-11-25_18h53.06.097,lexical_decision_task_MP_exp2,2020.2.5,Win32,60,z,1,0.835,,,,,,,,0.835,1,,,,,,333,NW,"ID",33,catrie,CATRIE,z,,,,,,0.542824074,-0.21412037,0,0,0,,0,88,88,272,1
,,,,,,,,,,,,,,,,,,5f2e48f9498e160008a60d2d,2020-11-25_18h53.06.097,lexical_decision_task_MP_exp2,2020.2.5,Win32,60,z,1,0.915,,,,,,,,0.915,1,,,,,,313,NW,"ID",33,paurse,PAURSE,z,,,,,,0.542824074,-0.21412037,0,0,0,,0,89,89,252,1
,,,,,,,,,,,,,,,,,,5f2e48f9498e160008a60d2d,2020-11-25_18h53.06.097,lexical_decision_task_MP_exp2,2020.2.5,Win32,60,m,1,0.724,,,,,,,,0.724,1,,,,,,135,WORD,"ID",16,import,IMPORT,m,,,,,,0.542824074,-0.21412037,0,0,0,,0,90,90,74,1
,,,,,,,,,,,,,,,,,,5f2e48f9498e160008a60d2d,2020-11-25_18h53.06.097,lexical_decision_task_MP_exp2,2020.2.5,Win32,60,m,1,0.798,,,,,,,,0.798,1,,,,,,30,WORD,UN,16,weapon,ORIENT,m,,,,,,0.542824074,-0.21412037,0,0,0,,0,91,91,209,1
,,,,,,,,,,,,,,,,,,5f2e48f9498e160008a60d2d,2020-11-25_18h53.06.097,lexical_decision_task_MP_exp2,2020.2.5,Win32,60,m,1,0.698,,,,,,,,0.698,1,,,,,,91,WORD,"ID",33,expand,EXPAND,m,,,,,,0.542824074,-0.21412037,0,0,0,,0,92,92,30,1
,,,,,,,,,,,,,,,,,,5f2e48f9498e160008a60d2d,2020-11-25_18h53.06.097,lexical_decision_task_MP_exp2,2020.2.5,Win32,60,m,1,0.473,,,,,,,,0.473,1,,,,,,182,WORD,UN,33,absent,WINTER,m,,,,,,0.542824074,-0.21412037,0,0,0,,0,93,93,121,1
,,,,,,,,,,,,,,,,,,5f2e48f9498e160008a60d2d,2020-11-25_18h53.06.097,lexical_decision_task_MP_exp2,2020.2.5,Win32,60,m,1,0.635,,,,,,,,0.635,1,,,,,,6,WORD,UN,16,anchor,BUNDLE,m,,,,,,0.542824074,-0.21412037,0,0,0,,0,94,94,185,1
,,,,,,,,,,,,,,,,,,5f2e48f9498e160008a60d2d,2020-11-25_18h53.06.097,lexical_decision_task_MP_exp2,2020.2.5,Win32,60,m,1,0.524,,,,,,,,0.524,1,,,,,,100,WORD,"ID",33,carbon,CARBON,m,,,,,,0.542824074,-0.21412037,0,0,0,,0,95,95,39,1
,,,,,,,,,,,,,,,,,,5f2e48f9498e160008a60d2d,2020-11-25_18h53.06.097,lexical_decision_task_MP_exp2,2020.2.5,Win32,60,z,1,0.673,,,,,,,,0.673,1,,,,,,353,NW,"ID",33,clurey,CLUREY,z,,,,,,0.542824074,-0.21412037,0,0,0,,0,96,96,292,1
,,,,,,,,,,,,,,,,,,5f2e48f9498e160008a60d2d,2020-11-25_18h53.06.097,lexical_decision_task_MP_exp2,2020.2.5,Win32,60,m,1,0.732,,,,,,,,0.732,1,,,,,,116,WORD,"ID",33,tumble,TUMBLE,m,,,,,,0.542824074,-0.21412037,0,0,0,,0,97,97,55,1
,,,,,,,,,,,,,,,,,,5f2e48f9498e160008a60d2d,2020-11-25_18h53.06.097,lexical_decision_task_MP_exp2,2020.2.5,Win32,60,z,1,0.597,,,,,,,,0.597,1,,,,,,414,NW,"ID",16,serbol,SERBOL,z,,,,,,0.542824074,-0.21412037,0,0,0,,0,98,98,353,1
,,,,,,,,,,,,,,,,,,5f2e48f9498e160008a60d2d,2020-11-25_18h53.06.097,lexical_decision_task_MP_exp2,2020.2.5,Win32,60,z,1,0.871,,,,,,,,0.871,1,,,,,,473,NW,UN,33,hablin,CRIBLE,z,,,,,,0.542824074,-0.21412037,0,0,0,,0,99,99,412,1
,,,,,,,,,,,,,,,,,,5f2e48f9498e160008a60d2d,2020-11-25_18h53.06.097,lexical_decision_task_MP_exp2,2020.2.5,Win32,60,m,1,0.609,,,,,,,,0.609,1,,,,,,71,WORD,"ID",33,garden,GARDEN,m,,,,,,0.542824074,-0.21412037,0,0,0,,0,100,100,10,1
,,,,,,,,,,,,,,,,,,5f2e48f9498e160008a60d2d,2020-11-25_18h53.06.097,lexical_decision_task_MP_exp2,2020.2.5,Win32,60,z,1,0.635,,,,,,,,0.635,1,,,,,,441,NW,UN,33,aboune,RASTOE,z,,,,,,0.542824074,-0.21412037,0,0,0,,0,101,101,380,1
,,,,,,,,,,,,,,,,,,5f2e48f9498e160008a60d2d,2020-11-25_18h53.06.097,lexical_decision_task_MP_exp2,2020.2.5,Win32,60,m,1,0.525,,,,,,,,0.525,1,,,,,,143,WORD,"ID",16,reason,REASON,m,,,,,,0.542824074,-0.21412037,0,0,0,,0,102,102,82,1
,,,,,,,,,,,,,,,,,,5f2e48f9498e160008a60d2d,2020-11-25_18h53.06.097,lexical_decision_task_MP_exp2,2020.2.5,Win32,60,z,1,0.891,,,,,,,,0.891,1,,,,,,432,NW,UN,33,drance,LUNKER,z,,,,,,0.542824074,-0.21412037,0,0,0,,0,103,103,371,1
,,,,,,,,,,,,,,,,,,5f2e48f9498e160008a60d2d,2020-11-25_18h53.06.097,lexical_decision_task_MP_exp2,2020.2.5,Win32,60,m,1,0.865,,,,,,,,0.865,1,,,,,,122,WORD,"ID",16,linger,LINGER,m,,,,,,0.542824074,-0.21412037,0,0,0,,0,104,104,61,1
,,,,,,,,,,,,,,,,,,5f2e48f9498e160008a60d2d,2020-11-25_18h53.06.097,lexical_decision_task_MP_exp2,2020.2.5,Win32,60,z,1,0.616,,,,,,,,0.616,1,,,,,,406,NW,"ID",16,nouply,NOUPLY,z,,,,,,0.542824074,-0.21412037,0,0,0,,0,105,105,345,1
,,,,,,,,,,,,,,,,,,5f2e48f9498e160008a60d2d,2020-11-25_18h53.06.097,lexical_decision_task_MP_exp2,2020.2.5,Win32,60,m,1,0.507,,,,,,,,0.507,1,,,,,,210,WORD,UN,33,infect,MONKEY,m,,,,,,0.542824074,-0.21412037,0,0,0,,0,106,106,149,1
,,,,,,,,,,,,,,,,,,5f2e48f9498e160008a60d2d,2020-11-25_18h53.06.097,lexical_decision_task_MP_exp2,2020.2.5,Win32,60,m,1,0.522,,,,,,,,0.522,1,,,,,,185,WORD,UN,33,portal,BOTHER,m,,,,,,0.542824074,-0.21412037,0,0,0,,0,107,107,124,1
,,,,,,,,,,,,,,,,,,5f2e48f9498e160008a60d2d,2020-11-25_18h53.06.097,lexical_decision_task_MP_exp2,2020.2.5,Win32,60,m,1,0.472,,,,,,,,0.472,1,,,,,,27,WORD,UN,16,comedy,SCREAM,m,,,,,,0.542824074,-0.21412037,0,0,0,,0,108,108,206,1
,,,,,,,,,,,,,,,,,,5f2e48f9498e160008a60d2d,2020-11-25_18h53.06.097,lexical_decision_task_MP_exp2,2020.2.5,Win32,60,z,1,0.515,,,,,,,,0.515,1,,,,,,365,NW,"ID",16,guairt,GUAIRT,z,,,,,,0.542824074,-0.21412037,0,0,0,,0,109,109,304,1
,,,,,,,,,,,,,,,,,,5f2e48f9498e160008a60d2d,2020-11-25_18h53.06.097,lexical_decision_task_MP_exp2,2020.2.5,Win32,60,z,1,0.574,,,,,,,,0.574,1,,,,,,323,NW,"ID",33,rosail,ROSAIL,z,,,,,,0.542824074,-0.21412037,0,0,0,,0,110,110,262,1
,,,,,,,,,,,,,,,,,,5f2e48f9498e160008a60d2d,2020-11-25_18h53.06.097,lexical_decision_task_MP_exp2,2020.2.5,Win32,60,z,1,0.666,,,,,,,,0.666,1,,,,,,380,NW,"ID",16,cavory,CAVORY,z,,,,,,0.542824074,-0.21412037,0,0,0,,0,111,111,319,1
,,,,,,,,,,,,,,,,,,5f2e48f9498e160008a60d2d,2020-11-25_18h53.06.097,lexical_decision_task_MP_exp2,2020.2.5,Win32,60,m,0,0.586,,,,,,,,0.586,0,,,,,,369,NW,"ID",16,wronch,WRONCH,z,,,,,,0.542824074,-0.21412037,0,0,0,,0,112,112,308,1
,,,,,,,,,,,,,,,,,,5f2e48f9498e160008a60d2d,2020-11-25_18h53.06.097,lexical_decision_task_MP_exp2,2020.2.5,Win32,60,m,1,0.816,,,,,,,,0.816,1,,,,,,191,WORD,UN,33,beacon,STABLE,m,,,,,,0.542824074,-0.21412037,0,0,0,,0,113,113,130,1
,,,,,,,,,,,,,,,,,,5f2e48f9498e160008a60d2d,2020-11-25_18h53.06.097,lexical_decision_task_MP_exp2,2020.2.5,Win32,60,m,1,0.667,,,,,,,,0.667,1,,,,,,129,WORD,"ID",16,marvel,MARVEL,m,,,,,,0.542824074,-0.21412037,0,0,0,,0,114,114,68,1
,,,,,,,,,,,,,,,,,,5f2e48f9498e160008a60d2d,2020-11-25_18h53.06.097,lexical_decision_task_MP_exp2,2020.2.5,Win32,60,z,1,0.92,,,,,,,,0.92,1,,,,,,362,NW,"ID",16,tireau,TIREAU,z,,,,,,0.542824074,-0.21412037,0,0,0,,0,115,115,301,1
,,,,,,,,,,,,,,,,,,5f2e48f9498e160008a60d2d,2020-11-25_18h53.06.097,lexical_decision_task_MP_exp2,2020.2.5,Win32,60,z,1,0.551,,,,,,,,0.551,1,,,,,,458,NW,UN,33,hocite,BARCET,z,,,,,,0.542824074,-0.21412037,0,0,0,,0,116,116,397,1
,,,,,,,,,,,,,,,,,,5f2e48f9498e160008a60d2d,2020-11-25_18h53.06.097,lexical_decision_task_MP_exp2,2020.2.5,Win32,60,z,1,0.819,,,,,,,,0.819,1,,,,,,417,NW,"ID",16,earoud,EAROUD,z,,,,,,0.542824074,-0.21412037,0,0,0,,0,117,117,356,1
,,,,,,,,,,,,,,,,,,5f2e48f9498e160008a60d2d,2020-11-25_18h53.06.097,lexical_decision_task_MP_exp2,2020.2.5,Win32,60,m,1,0.615,,,,,,,,0.615,1,,,,,,67,WORD,"ID",33,policy,POLICY,m,,,,,,0.542824074,-0.21412037,0,0,0,,0,118,118,6,1
,,,,,,,,,,,,,,,,,,5f2e48f9498e160008a60d2d,2020-11-25_18h53.06.097,lexical_decision_task_MP_exp2,2020.2.5,Win32,60,m,1,0.599,,,,,,,,0.599,1,,,,,,227,WORD,UN,33,master,SELDOM,m,,,,,,0.542824074,-0.21412037,0,0,0,,0,119,119,166,1
,,,,,,,,,,,,,,,,,,5f2e48f9498e160008a60d2d,2020-11-25_18h53.06.097,lexical_decision_task_MP_exp2,2020.2.5,Win32,60,m,1,0.582,,,,,,,,0.582,1,,,,,,130,WORD,"ID",16,stupid,STUPID,m,,,,,,0.542824074,-0.21412037,0,0,0,,0,120,120,69,1
,,,,,,,,,,,,,,,,,,5f2e48f9498e160008a60d2d,2020-11-25_18h53.06.097,lexical_decision_task_MP_exp2,2020.2.5,Win32,60,m,1,0.866,,,,,,,,0.866,1,,,,,,239,WORD,UN,33,forest,LUMBER,m,,,,,,0.542824074,-0.21412037,0,0,0,,0,121,121,178,1
,,,,,,,,,,,,,,,,,,5f2e48f9498e160008a60d2d,2020-11-25_18h53.06.097,lexical_decision_task_MP_exp2,2020.2.5,Win32,60,m,1,0.748,,,,,,,,0.748,1,,,,,,15,WORD,UN,16,faucet,AMOUNT,m,,,,,,0.542824074,-0.21412037,0,0,0,,0,122,122,194,1
,,,,,,,,,,,,,,,,,,5f2e48f9498e160008a60d2d,2020-11-25_18h53.06.097,lexical_decision_task_MP_exp2,2020.2.5,Win32,60,m,1,0.476,,,,,,,,0.476,1,,,,,,96,WORD,"ID",33,ignore,IGNORE,m,,,,,,0.542824074,-0.21412037,0,0,0,,0,123,123,35,1
,,,,,,,,,,,,,,,,,,5f2e48f9498e160008a60d2d,2020-11-25_18h53.06.097,lexical_decision_task_MP_exp2,2020.2.5,Win32,60,m,1,0.802,,,,,,,,0.802,1,,,,,,106,WORD,"ID",33,ransom,RANSOM,m,,,,,,0.542824074,-0.21412037,0,0,0,,0,124,124,45,1
,,,,,,,,,,,,,,,,,,5f2e48f9498e160008a60d2d,2020-11-25_18h53.06.097,lexical_decision_task_MP_exp2,2020.2.5,Win32,60,z,1,0.714,,,,,,,,0.714,1,,,,,,377,NW,"ID",16,injore,INJORE,z,,,,,,0.542824074,-0.21412037,0,0,0,,0,125,125,316,1
,,,,,,,,,,,,,,,,,,5f2e48f9498e160008a60d2d,2020-11-25_18h53.06.097,lexical_decision_task_MP_exp2,2020.2.5,Win32,60,m,1,0.515,,,,,,,,0.515,1,,,,,,151,WORD,"ID",16,mystic,MYSTIC,m,,,,,,0.542824074,-0.21412037,0,0,0,,0,126,126,90,1
,,,,,,,,,,,,,,,,,,5f2e48f9498e160008a60d2d,2020-11-25_18h53.06.097,lexical_decision_task_MP_exp2,2020.2.5,Win32,60,z,1,0.657,,,,,,,,0.657,1,,,,,,445,NW,UN,33,runamo,MINKEL,z,,,,,,0.542824074,-0.21412037,0,0,0,,0,127,127,384,1
,,,,,,,,,,,,,,,,,,5f2e48f9498e160008a60d2d,2020-11-25_18h53.06.097,lexical_decision_task_MP_exp2,2020.2.5,Win32,60,z,1,0.599,,,,,,,,0.599,1,,,,,,340,NW,"ID",33,fiatch,FIATCH,z,,,,,,0.542824074,-0.21412037,0,0,0,,0,128,128,279,1
,,,,,,,,,,,,,,,,,,5f2e48f9498e160008a60d2d,2020-11-25_18h53.06.097,lexical_decision_task_MP_exp2,2020.2.5,Win32,60,m,1,0.682,,,,,,,,0.682,1,,,,,,230,WORD,UN,33,mother,FRINGE,m,,,,,,0.542824074,-0.21412037,0,0,0,,0,129,129,169,1
,,,,,,,,,,,,,,,,,,5f2e48f9498e160008a60d2d,2020-11-25_18h53.06.097,lexical_decision_task_MP_exp2,2020.2.5,Win32,60,z,1,0.666,,,,,,,,0.666,1,,,,,,343,NW,"ID",33,aimosy,AIMOSY,z,,,,,,0.542824074,-0.21412037,0,0,0,,0,130,130,282,1
,,,,,,,,,,,,,,,,,,5f2e48f9498e160008a60d2d,2020-11-25_18h53.06.097,lexical_decision_task_MP_exp2,2020.2.5,Win32,60,z,1,0.77,,,,,,,,0.77,1,,,,,,294,NW,UN,16,gleath,INHORT,z,,,,,,0.542824074,-0.21412037,0,0,0,,0,131,131,473,1
,,,,,,,,,,,,,,,,,,5f2e48f9498e160008a60d2d,2020-11-25_18h53.06.097,lexical_decision_task_MP_exp2,2020.2.5,Win32,60,z,1,1.043,,,,,,,,1.043,1,,,,,,297,NW,UN,16,piergy,FERTIC,z,,,,,,0.542824074,-0.21412037,0,0,0,,0,132,132,476,1
,,,,,,,,,,,,,,,,,,5f2e48f9498e160008a60d2d,2020-11-25_18h53.06.097,lexical_decision_task_MP_exp2,2020.2.5,Win32,60,z,1,0.705,,,,,,,,0.705,1,,,,,,311,NW,"ID",33,sproly,SPROLY,z,,,,,,0.542824074,-0.21412037,0,0,0,,0,133,133,250,1
,,,,,,,,,,,,,,,,,,5f2e48f9498e160008a60d2d,2020-11-25_18h53.06.097,lexical_decision_task_MP_exp2,2020.2.5,Win32,60,z,1,0.548,,,,,,,,0.548,1,,,,,,324,NW,"ID",33,steikh,STEIKH,z,,,,,,0.542824074,-0.21412037,0,0,0,,0,134,134,263,1
,,,,,,,,,,,,,,,,,,5f2e48f9498e160008a60d2d,2020-11-25_18h53.06.097,lexical_decision_task_MP_exp2,2020.2.5,Win32,60,m,1,0.541,,,,,,,,0.541,1,,,,,,105,WORD,"ID",33,number,NUMBER,m,,,,,,0.542824074,-0.21412037,0,0,0,,0,135,135,44,1
,,,,,,,,,,,,,,,,,,5f2e48f9498e160008a60d2d,2020-11-25_18h53.06.097,lexical_decision_task_MP_exp2,2020.2.5,Win32,60,z,1,0.818,,,,,,,,0.818,1,,,,,,265,NW,UN,16,varmit,DISTAR,z,,,,,,0.542824074,-0.21412037,0,0,0,,0,136,136,444,1
,,,,,,,,,,,,,,,,,,5f2e48f9498e160008a60d2d,2020-11-25_18h53.06.097,lexical_decision_task_MP_exp2,2020.2.5,Win32,60,z,1,0.555,,,,,,,,0.555,1,,,,,,358,NW,"ID",33,fleack,FLEACK,z,,,,,,0.542824074,-0.21412037,0,0,0,,0,137,137,297,1
,,,,,,,,,,,,,,,,,,5f2e48f9498e160008a60d2d,2020-11-25_18h53.06.097,lexical_decision_task_MP_exp2,2020.2.5,Win32,60,m,1,0.849,,,,,,,,0.849,1,,,,,,59,WORD,UN,16,pencil,SPLINT,m,,,,,,0.542824074,-0.21412037,0,0,0,,0,138,138,238,1
,,,,,,,,,,,,,,,,,,5f2e48f9498e160008a60d2d,2020-11-25_18h53.06.097,lexical_decision_task_MP_exp2,2020.2.5,Win32,60,m,1,0.689,,,,,,,,0.689,1,,,,,,34,WORD,UN,16,socket,JUNGLE,m,,,,,,0.542824074,-0.21412037,0,0,0,,0,139,139,213,1
,,,,,,,,,,,,,,,,,,5f2e48f9498e160008a60d2d,2020-11-25_18h53.06.097,lexical_decision_task_MP_exp2,2020.2.5,Win32,60,m,1,0.619,,,,,,,,0.619,1,,,,,,65,WORD,"ID",33,symbol,SYMBOL,m,,,,,,0.542824074,-0.21412037,0,0,0,,0,140,140,4,1
,,,,,,,,,,,,,,,,,,5f2e48f9498e160008a60d2d,2020-11-25_18h53.06.097,lexical_decision_task_MP_exp2,2020.2.5,Win32,60,m,1,0.648,,,,,,,,0.648,1,,,,,,120,WORD,"ID",33,strain,STRAIN,m,,,,,,0.542824074,-0.21412037,0,0,0,,0,141,141,59,1
,,,,,,,,,,,,,,,,,,5f2e48f9498e160008a60d2d,2020-11-25_18h53.06.097,lexical_decision_task_MP_exp2,2020.2.5,Win32,60,z,1,0.581,,,,,,,,0.581,1,,,,,,337,NW,"ID",33,rejols,REJOLS,z,,,,,,0.542824074,-0.21412037,0,0,0,,0,142,142,276,1
,,,,,,,,,,,,,,,,,,5f2e48f9498e160008a60d2d,2020-11-25_18h53.06.097,lexical_decision_task_MP_exp2,2020.2.5,Win32,60,m,1,0.87,,,,,,,,0.87,1,,,,,,139,WORD,"ID",16,debris,DEBRIS,m,,,,,,0.542824074,-0.21412037,0,0,0,,0,143,143,78,1
,,,,,,,,,,,,,,,,,,5f2e48f9498e160008a60d2d,2020-11-25_18h53.06.097,lexical_decision_task_MP_exp2,2020.2.5,Win32,60,z,1,0.55,,,,,,,,0.55,1,,,,,,273,NW,UN,16,fumblo,SORTEL,z,,,,,,0.542824074,-0.21412037,0,0,0,,0,144,144,452,1
,,,,,,,,,,,,,,,,,,5f2e48f9498e160008a60d2d,2020-11-25_18h53.06.097,lexical_decision_task_MP_exp2,2020.2.5,Win32,60,z,1,0.635,,,,,,,,0.635,1,,,,,,455,NW,UN,33,broget,TONDLE,z,,,,,,0.542824074,-0.21412037,0,0,0,,0,145,145,394,1
,,,,,,,,,,,,,,,,,,5f2e48f9498e160008a60d2d,2020-11-25_18h53.06.097,lexical_decision_task_MP_exp2,2020.2.5,Win32,60,m,1,0.531,,,,,,,,0.531,1,,,,,,195,WORD,UN,33,credit,RESIGN,m,,,,,,0.542824074,-0.21412037,0,0,0,,0,146,146,134,1
,,,,,,,,,,,,,,,,,,5f2e48f9498e160008a60d2d,2020-11-25_18h53.06.097,lexical_decision_task_MP_exp2,2020.2.5,Win32,60,m,1,0.721,,,,,,,,0.721,1,,,,,,8,WORD,UN,16,hustle,ABRUPT,m,,,,,,0.542824074,-0.21412037,0,0,0,,0,147,147,187,1
,,,,,,,,,,,,,,,,,,5f2e48f9498e160008a60d2d,2020-11-25_18h53.06.097,lexical_decision_task_MP_exp2,2020.2.5,Win32,60,z,1,0.647,,,,,,,,0.647,1,,,,,,480,NW,UN,33,knisma,ROBULY,z,,,,,,0.542824074,-0.21412037,0,0,0,,0,148,148,419,1
,,,,,,,,,,,,,,,,,,5f2e48f9498e160008a60d2d,2020-11-25_18h53.06.097,lexical_decision_task_MP_exp2,2020.2.5,Win32,60,z,1,0.651,,,,,,,,0.651,1,,,,,,274,NW,UN,16,sleirt,FUMBLO,z,,,,,,0.542824074,-0.21412037,0,0,0,,0,149,149,453,1
,,,,,,,,,,,,,,,,,,5f2e48f9498e160008a60d2d,2020-11-25_18h53.06.097,lexical_decision_task_MP_exp2,2020.2.5,Win32,60,z,1,0.648,,,,,,,,0.648,1,,,,,,434,NW,UN,33,impurb,PITROM,z,,,,,,0.542824074,-0.21412037,0,0,0,,0,150,150,373,1
,,,,,,,,,,,,,,,,,,5f2e48f9498e160008a60d2d,2020-11-25_18h53.06.097,lexical_decision_task_MP_exp2,2020.2.5,Win32,60,z,1,0.57,,,,,,,,0.57,1,,,,,,446,NW,UN,33,gircue,RUNAMO,z,,,,,,0.542824074,-0.21412037,0,0,0,,0,151,151,385,1
,,,,,,,,,,,,,,,,,,5f2e48f9498e160008a60d2d,2020-11-25_18h53.06.097,lexical_decision_task_MP_exp2,2020.2.5,Win32,60,z,1,0.532,,,,,,,,0.532,1,,,,,,255,NW,UN,16,inlors,APIGHT,z,,,,,,0.542824074,-0.21412037,0,0,0,,0,152,152,434,1
,,,,,,,,,,,,,,,,,,5f2e48f9498e160008a60d2d,2020-11-25_18h53.06.097,lexical_decision_task_MP_exp2,2020.2.5,Win32,60,z,1,0.531,,,,,,,,0.531,1,,,,,,356,NW,"ID",33,othnis,OTHNIS,z,,,,,,0.542824074,-0.21412037,0,0,0,,0,153,153,295,1
,,,,,,,,,,,,,,,,,,5f2e48f9498e160008a60d2d,2020-11-25_18h53.06.097,lexical_decision_task_MP_exp2,2020.2.5,Win32,60,z,1,0.938,,,,,,,,0.938,1,,,,,,289,NW,UN,16,splino,STARBY,z,,,,,,0.542824074,-0.21412037,0,0,0,,0,154,154,468,1
,,,,,,,,,,,,,,,,,,5f2e48f9498e160008a60d2d,2020-11-25_18h53.06.097,lexical_decision_task_MP_exp2,2020.2.5,Win32,60,m,1,0.782,,,,,,,,0.782,1,,,,,,86,WORD,"ID",33,rodent,RODENT,m,,,,,,0.542824074,-0.21412037,0,0,0,,0,155,155,25,1
,,,,,,,,,,,,,,,,,,5f2e48f9498e160008a60d2d,2020-11-25_18h53.06.097,lexical_decision_task_MP_exp2,2020.2.5,Win32,60,z,1,0.832,,,,,,,,0.832,1,,,,,,346,NW,"ID",33,saudic,SAUDIC,z,,,,,,0.542824074,-0.21412037,0,0,0,,0,156,156,285,1
,,,,,,,,,,,,,,,,,,5f2e48f9498e160008a60d2d,2020-11-25_18h53.06.097,lexical_decision_task_MP_exp2,2020.2.5,Win32,60,m,1,0.549,,,,,,,,0.549,1,,,,,,119,WORD,"ID",33,spider,SPIDER,m,,,,,,0.542824074,-0.21412037,0,0,0,,0,157,157,58,1
,,,,,,,,,,,,,,,,,,5f2e48f9498e160008a60d2d,2020-11-25_18h53.06.097,lexical_decision_task_MP_exp2,2020.2.5,Win32,60,z,1,0.683,,,,,,,,0.683,1,,,,,,388,NW,"ID",16,cragin,CRAGIN,z,,,,,,0.542824074,-0.21412037,0,0,0,,0,158,158,327,1
,,,,,,,,,,,,,,,,,,5f2e48f9498e160008a60d2d,2020-11-25_18h53.06.097,lexical_decision_task_MP_exp2,2020.2.5,Win32,60,z,1,0.599,,,,,,,,0.599,1,,,,,,472,NW,UN,33,gorbie,CIGNEY,z,,,,,,0.542824074,-0.21412037,0,0,0,,0,159,159,411,1
,,,,,,,,,,,,,,,,,,5f2e48f9498e160008a60d2d,2020-11-25_18h53.06.097,lexical_decision_task_MP_exp2,2020.2.5,Win32,60,m,1,0.752,,,,,,,,0.752,1,,,,,,40,WORD,UN,16,spring,CONVEY,m,,,,,,0.542824074,-0.21412037,0,0,0,,0,160,160,219,1
,,,,,,,,,,,,,,,,,,5f2e48f9498e160008a60d2d,2020-11-25_18h53.06.097,lexical_decision_task_MP_exp2,2020.2.5,Win32,60,z,1,0.615,,,,,,,,0.615,1,,,,,,430,NW,UN,33,chrums,CAROEY,z,,,,,,0.542824074,-0.21412037,0,0,0,,0,161,161,369,1
,,,,,,,,,,,,,,,,,,5f2e48f9498e160008a60d2d,2020-11-25_18h53.06.097,lexical_decision_task_MP_exp2,2020.2.5,Win32,60,m,1,0.622,,,,,,,,0.622,1,,,,,,201,WORD,UN,33,factor,ADMIRE,m,,,,,,0.542824074,-0.21412037,0,0,0,,0,162,162,140,1
,,,,,,,,,,,,,,,,,,5f2e48f9498e160008a60d2d,2020-11-25_18h53.06.097,lexical_decision_task_MP_exp2,2020.2.5,Win32,60,m,1,0.631,,,,,,,,0.631,1,,,,,,13,WORD,UN,16,almost,STRIVE,m,,,,,,0.542824074,-0.21412037,0,0,0,,0,163,163,192,1
,,,,,,,,,,,,,,,,,,5f2e48f9498e160008a60d2d,2020-11-25_18h53.06.097,lexical_decision_task_MP_exp2,2020.2.5,Win32,60,m,1,0.683,,,,,,,,0.683,1,,,,,,234,WORD,UN,33,poster,CLUMSY,m,,,,,,0.542824074,-0.21412037,0,0,0,,0,164,164,173,1
,,,,,,,,,,,,,,,,,,5f2e48f9498e160008a60d2d,2020-11-25_18h53.06.097,lexical_decision_task_MP_exp2,2020.2.5,Win32,60,z,1,0.598,,,,,,,,0.598,1,,,,,,329,NW,"ID",33,yarike,YARIKE,z,,,,,,0.542824074,-0.21412037,0,0,0,,0,165,165,268,1
,,,,,,,,,,,,,,,,,,5f2e48f9498e160008a60d2d,2020-11-25_18h53.06.097,lexical_decision_task_MP_exp2,2020.2.5,Win32,60,z,1,0.698,,,,,,,,0.698,1,,,,,,257,NW,UN,16,poluth,VENIOD,z,,,,,,0.542824074,-0.21412037,0,0,0,,0,166,166,436,1
,,,,,,,,,,,,,,,,,,5f2e48f9498e160008a60d2d,2020-11-25_18h53.06.097,lexical_decision_task_MP_exp2,2020.2.5,Win32,60,m,1,0.468,,,,,,,,0.468,1,,,,,,173,WORD,"ID",16,shower,SHOWER,m,,,,,,0.542824074,-0.21412037,0,0,0,,0,167,167,112,1
,,,,,,,,,,,,,,,,,,5f2e48f9498e160008a60d2d,2020-11-25_18h53.06.097,lexical_decision_task_MP_exp2,2020.2.5,Win32,60,m,1,0.615,,,,,,,,0.615,1,,,,,,77,WORD,"ID",33,racket,RACKET,m,,,,,,0.542824074,-0.21412037,0,0,0,,0,168,168,16,1
,,,,,,,,,,,,,,,,,,5f2e48f9498e160008a60d2d,2020-11-25_18h53.06.097,lexical_decision_task_MP_exp2,2020.2.5,Win32,60,z,1,0.653,,,,,,,,0.653,1,,,,,,389,NW,"ID",16,witmer,WITMER,z,,,,,,0.542824074,-0.21412037,0,0,0,,0,169,169,328,1
,,,,,,,,,,,,,,,,,,5f2e48f9498e160008a60d2d,2020-11-25_18h53.06.097,lexical_decision_task_MP_exp2,2020.2.5,Win32,60,z,1,0.55,,,,,,,,0.55,1,,,,,,363,NW,"ID",16,breali,BREALI,z,,,,,,0.542824074,-0.21412037,0,0,0,,0,170,170,302,1
,,,,,,,,,,,,,,,,,,5f2e48f9498e160008a60d2d,2020-11-25_18h53.06.097,lexical_decision_task_MP_exp2,2020.2.5,Win32,60,z,1,0.582,,,,,,,,0.582,1,,,,,,321,NW,"ID",33,miator,MIATOR,z,,,,,,0.542824074,-0.21412037,0,0,0,,0,171,171,260,1
,,,,,,,,,,,,,,,,,,5f2e48f9498e160008a60d2d,2020-11-25_18h53.06.097,lexical_decision_task_MP_exp2,2020.2.5,Win32,60,m,1,0.621,,,,,,,,0.621,1,,,,,,99,WORD,"ID",33,fluent,FLUENT,m,,,,,,0.542824074,-0.21412037,0,0,0,,0,172,172,38,1
,,,,,,,,,,,,,,,,,,5f2e48f9498e160008a60d2d,2020-11-25_18h53.06.097,lexical_decision_task_MP_exp2,2020.2.5,Win32,60,m,1,0.765,,,,,,,,0.765,1,,,,,,104,WORD,"ID",33,studio,STUDIO,m,,,,,,0.542824074,-0.21412037,0,0,0,,0,173,173,43,1
,,,,,,,,,,,,,,,,,,5f2e48f9498e160008a60d2d,2020-11-25_18h53.06.097,lexical_decision_task_MP_exp2,2020.2.5,Win32,60,m,1,0.542,,,,,,,,0.542,1,,,,,,97,WORD,"ID",33,client,CLIENT,m,,,,,,0.542824074,-0.21412037,0,0,0,,0,174,174,36,1
,,,,,,,,,,,,,,,,,,5f2e48f9498e160008a60d2d,2020-11-25_18h53.06.097,lexical_decision_task_MP_exp2,2020.2.5,Win32,60,z,1,0.568,,,,,,,,0.568,1,,,,,,424,NW,UN,33,frudge,PRAILE,z,,,,,,0.542824074,-0.21412037,0,0,0,,0,175,175,363,1
,,,,,,,,,,,,,,,,,,5f2e48f9498e160008a60d2d,2020-11-25_18h53.06.097,lexical_decision_task_MP_exp2,2020.2.5,Win32,60,z,1,0.587,,,,,,,,0.587,1,,,,,,476,NW,UN,33,photie,JOSTED,z,,,,,,0.542824074,-0.21412037,0,0,0,,0,176,176,415,1
,,,,,,,,,,,,,,,,,,5f2e48f9498e160008a60d2d,2020-11-25_18h53.06.097,lexical_decision_task_MP_exp2,2020.2.5,Win32,60,z,1,0.55,,,,,,,,0.55,1,,,,,,410,NW,"ID",16,tunory,TUNORY,z,,,,,,0.542824074,-0.21412037,0,0,0,,0,177,177,349,1
,,,,,,,,,,,,,,,,,,5f2e48f9498e160008a60d2d,2020-11-25_18h53.06.097,lexical_decision_task_MP_exp2,2020.2.5,Win32,60,m,1,0.868,,,,,,,,0.868,1,,,,,,92,WORD,"ID",33,strand,STRAND,m,,,,,,0.542824074,-0.21412037,0,0,0,,0,178,178,31,1
,,,,,,,,,,,,,,,,,,5f2e48f9498e160008a60d2d,2020-11-25_18h53.06.097,lexical_decision_task_MP_exp2,2020.2.5,Win32,60,m,1,0.566,,,,,,,,0.566,1,,,,,,26,WORD,UN,16,butler,SPRINT,m,,,,,,0.542824074,-0.21412037,0,0,0,,0,179,179,205,1
,,,,,,,,,,,,,,,,,,5f2e48f9498e160008a60d2d,2020-11-25_18h53.06.097,lexical_decision_task_MP_exp2,2020.2.5,Win32,60,z,1,0.583,,,,,,,,0.583,1,,,,,,347,NW,"ID",33,kerift,KERIFT,z,,,,,,0.542824074,-0.21412037,0,0,0,,0,180,180,286,1
,,,,,,,,,,,,,,,,,,5f2e48f9498e160008a60d2d,2020-11-25_18h53.06.097,lexical_decision_task_MP_exp2,2020.2.5,Win32,60,m,1,0.516,,,,,,,,0.516,1,,,,,,189,WORD,UN,33,backup,CENSOR,m,,,,,,0.542824074,-0.21412037,0,0,0,,0,181,181,128,1
,,,,,,,,,,,,,,,,,,5f2e48f9498e160008a60d2d,2020-11-25_18h53.06.097,lexical_decision_task_MP_exp2,2020.2.5,Win32,60,z,1,0.533,,,,,,,,0.533,1,,,,,,310,NW,"ID",33,daniet,DANIET,z,,,,,,0.542824074,-0.21412037,0,0,0,,0,182,182,249,1
,,,,,,,,,,,,,,,,,,5f2e48f9498e160008a60d2d,2020-11-25_18h53.06.097,lexical_decision_task_MP_exp2,2020.2.5,Win32,60,m,1,0.499,,,,,,,,0.499,1,,,,,,112,WORD,"ID",33,breath,BREATH,m,,,,,,0.542824074,-0.21412037,0,0,0,,0,183,183,51,1
,,,,,,,,,,,,,,,,,,5f2e48f9498e160008a60d2d,2020-11-25_18h53.06.097,lexical_decision_task_MP_exp2,2020.2.5,Win32,60,m,1,1.052,,,,,,,,1.052,1,,,,,,208,WORD,UN,33,search,HOCKEY,m,,,,,,0.542824074,-0.21412037,0,0,0,,0,184,184,147,1
,,,,,,,,,,,,,,,,,,5f2e48f9498e160008a60d2d,2020-11-25_18h53.06.097,lexical_decision_task_MP_exp2,2020.2.5,Win32,60,z,1,0.598,,,,,,,,0.598,1,,,,,,327,NW,"ID",33,plenac,PLENAC,z,,,,,,0.542824074,-0.21412037,0,0,0,,0,185,185,266,1
,,,,,,,,,,,,,,,,,,5f2e48f9498e160008a60d2d,2020-11-25_18h53.06.097,lexical_decision_task_MP_exp2,2020.2.5,Win32,60,z,1,0.665,,,,,,,,0.665,1,,,,,,287,NW,UN,16,yaceup,NYMBEL,z,,,,,,0.542824074,-0.21412037,0,0,0,,0,186,186,466,1
,,,,,,,,,,,,,,,,,,5f2e48f9498e160008a60d2d,2020-11-25_18h53.06.097,lexical_decision_task_MP_exp2,2020.2.5,Win32,60,m,1,0.548,,,,,,,,0.548,1,,,,,,66,WORD,"ID",33,gospel,GOSPEL,m,,,,,,0.542824074,-0.21412037,0,0,0,,0,187,187,5,1
,,,,,,,,,,,,,,,,,,5f2e48f9498e160008a60d2d,2020-11-25_18h53.06.097,lexical_decision_task_MP_exp2,2020.2.5,Win32,60,m,1,0.616,,,,,,,,0.616,1,,,,,,192,WORD,UN,33,object,PLAGUE,m,,,,,,0.542824074,-0.21412037,0,0,0,,0,188,188,131,1
,,,,,,,,,,,,,,,,,,5f2e48f9498e160008a60d2d,2020-11-25_18h53.06.097,lexical_decision_task_MP_exp2,2020.2.5,Win32,60,z,0,0.719,,,,,,,,0.719,0,,,,,,74,WORD,"ID",33,plaque,PLAQUE,m,,,,,,0.542824074,-0.21412037,0,0,0,,0,189,189,13,1
,,,,,,,,,,,,,,,,,,5f2e48f9498e160008a60d2d,2020-11-25_18h53.06.097,lexical_decision_task_MP_exp2,2020.2.5,Win32,60,z,1,0.587,,,,,,,,0.587,1,,,,,,467,NW,UN,33,wictor,GORBIE,z,,,,,,0.542824074,-0.21412037,0,0,0,,0,190,190,406,1
,,,,,,,,,,,,,,,,,,5f2e48f9498e160008a60d2d,2020-11-25_18h53.06.097,lexical_decision_task_MP_exp2,2020.2.5,Win32,60,m,1,0.582,,,,,,,,0.582,1,,,,,,89,WORD,"ID",33,permit,PERMIT,m,,,,,,0.542824074,-0.21412037,0,0,0,,0,191,191,28,1
,,,,,,,,,,,,,,,,,,5f2e48f9498e160008a60d2d,2020-11-25_18h53.06.097,lexical_decision_task_MP_exp2,2020.2.5,Win32,60,z,1,0.799,,,,,,,,0.799,1,,,,,,370,NW,"ID",16,sleact,SLEACT,z,,,,,,0.542824074,-0.21412037,0,0,0,,0,192,192,309,1
,,,,,,,,,,,,,,,,,,5f2e48f9498e160008a60d2d,2020-11-25_18h53.06.097,lexical_decision_task_MP_exp2,2020.2.5,Win32,60,m,1,0.683,,,,,,,,0.683,1,,,,,,161,WORD,"ID",16,pastor,PASTOR,m,,,,,,0.542824074,-0.21412037,0,0,0,,0,193,193,100,1
,,,,,,,,,,,,,,,,,,5f2e48f9498e160008a60d2d,2020-11-25_18h53.06.097,lexical_decision_task_MP_exp2,2020.2.5,Win32,60,z,1,0.636,,,,,,,,0.636,1,,,,,,264,NW,UN,16,distar,VACKEL,z,,,,,,0.542824074,-0.21412037,0,0,0,,0,194,194,443,1
,,,,,,,,,,,,,,,,,,5f2e48f9498e160008a60d2d,2020-11-25_18h53.06.097,lexical_decision_task_MP_exp2,2020.2.5,Win32,60,z,1,0.59,,,,,,,,0.59,1,,,,,,454,NW,UN,33,tondle,SCOUGE,z,,,,,,0.542824074,-0.21412037,0,0,0,,0,195,195,393,1
,,,,,,,,,,,,,,,,,,5f2e48f9498e160008a60d2d,2020-11-25_18h53.06.097,lexical_decision_task_MP_exp2,2020.2.5,Win32,60,z,1,0.698,,,,,,,,0.698,1,,,,,,437,NW,UN,33,baitch,SNAPEL,z,,,,,,0.542824074,-0.21412037,0,0,0,,0,196,196,376,1
,,,,,,,,,,,,,,,,,,5f2e48f9498e160008a60d2d,2020-11-25_18h53.06.097,lexical_decision_task_MP_exp2,2020.2.5,Win32,60,m,1,0.599,,,,,,,,0.599,1,,,,,,118,WORD,"ID",33,flight,FLIGHT,m,,,,,,0.542824074,-0.21412037,0,0,0,,0,197,197,57,1
,,,,,,,,,,,,,,,,,,5f2e48f9498e160008a60d2d,2020-11-25_18h53.06.097,lexical_decision_task_MP_exp2,2020.2.5,Win32,60,m,1,0.648,,,,,,,,0.648,1,,,,,,121,WORD,"ID",16,thrive,THRIVE,m,,,,,,0.542824074,-0.21412037,0,0,0,,0,198,198,60,1
,,,,,,,,,,,,,,,,,,5f2e48f9498e160008a60d2d,2020-11-25_18h53.06.097,lexical_decision_task_MP_exp2,2020.2.5,Win32,60,m,1,0.566,,,,,,,,0.566,1,,,,,,18,WORD,UN,16,patron,HUMBLE,m,,,,,,0.542824074,-0.21412037,0,0,0,,0,199,199,197,1
,,,,,,,,,,,,,,,,,,5f2e48f9498e160008a60d2d,2020-11-25_18h53.06.097,lexical_decision_task_MP_exp2,2020.2.5,Win32,60,z,1,0.919,,,,,,,,0.919,1,,,,,,307,NW,"ID",33,kirafe,KIRAFE,z,,,,,,0.542824074,-0.21412037,0,0,0,,0,200,200,246,1
,,,,,,,,,,,,,,,,,,5f2e48f9498e160008a60d2d,2020-11-25_18h53.06.097,lexical_decision_task_MP_exp2,2020.2.5,Win32,60,m,1,0.583,,,,,,,,0.583,1,,,,,,133,WORD,"ID",16,chrome,CHROME,m,,,,,,0.542824074,-0.21412037,0,0,0,,0,201,201,72,1
,,,,,,,,,,,,,,,,,,5f2e48f9498e160008a60d2d,2020-11-25_18h53.06.097,lexical_decision_task_MP_exp2,2020.2.5,Win32,60,m,1,0.532,,,,,,,,0.532,1,,,,,,95,WORD,"ID",33,thread,THREAD,m,,,,,,0.542824074,-0.21412037,0,0,0,,0,202,202,34,1
,,,,,,,,,,,,,,,,,,5f2e48f9498e160008a60d2d,2020-11-25_18h53.06.097,lexical_decision_task_MP_exp2,2020.2.5,Win32,60,m,1,0.47,,,,,,,,0.47,1,,,,,,194,WORD,UN,33,resign,ABSENT,m,,,,,,0.542824074,-0.21412037,0,0,0,,0,203,203,133,1
,,,,,,,,,,,,,,,,,,5f2e48f9498e160008a60d2d,2020-11-25_18h53.06.097,lexical_decision_task_MP_exp2,2020.2.5,Win32,60,m,1,0.632,,,,,,,,0.632,1,,,,,,79,WORD,"ID",33,theory,THEORY,m,,,,,,0.542824074,-0.21412037,0,0,0,,0,204,204,18,1
,,,,,,,,,,,,,,,,,,5f2e48f9498e160008a60d2d,2020-11-25_18h53.06.097,lexical_decision_task_MP_exp2,2020.2.5,Win32,60,z,1,0.782,,,,,,,,0.782,1,,,,,,426,NW,UN,33,schind,URIVEL,z,,,,,,0.542824074,-0.21412037,0,0,0,,0,205,205,365,1
,,,,,,,,,,,,,,,,,,5f2e48f9498e160008a60d2d,2020-11-25_18h53.06.097,lexical_decision_task_MP_exp2,2020.2.5,Win32,60,m,1,0.615,,,,,,,,0.615,1,,,,,,94,WORD,"ID",33,travel,TRAVEL,m,,,,,,0.542824074,-0.21412037,0,0,0,,0,206,206,33,1
,,,,,,,,,,,,,,,,,,5f2e48f9498e160008a60d2d,2020-11-25_18h53.06.097,lexical_decision_task_MP_exp2,2020.2.5,Win32,60,z,1,0.885,,,,,,,,0.885,1,,,,,,468,NW,UN,33,padifs,WICTOR,z,,,,,,0.542824074,-0.21412037,0,0,0,,0,207,207,407,1
,,,,,,,,,,,,,,,,,,5f2e48f9498e160008a60d2d,2020-11-25_18h53.06.097,lexical_decision_task_MP_exp2,2020.2.5,Win32,60,z,1,1.267,,,,,,,,1.267,1,,,,,,364,NW,"ID",16,impote,IMPOTE,z,,,,,,0.542824074,-0.21412037,0,0,0,,0,208,208,303,1
,,,,,,,,,,,,,,,,,,5f2e48f9498e160008a60d2d,2020-11-25_18h53.06.097,lexical_decision_task_MP_exp2,2020.2.5,Win32,60,m,1,0.62,,,,,,,,0.62,1,,,,,,44,WORD,UN,16,clergy,DANGER,m,,,,,,0.542824074,-0.21412037,0,0,0,,0,209,209,223,1
,,,,,,,,,,,,,,,,,,5f2e48f9498e160008a60d2d,2020-11-25_18h53.06.097,lexical_decision_task_MP_exp2,2020.2.5,Win32,60,m,1,0.974,,,,,,,,0.974,1,,,,,,183,WORD,UN,33,sleazy,MILDEW,m,,,,,,0.542824074,-0.21412037,0,0,0,,0,210,210,122,1
,,,,,,,,,,,,,,,,,,5f2e48f9498e160008a60d2d,2020-11-25_18h53.06.097,lexical_decision_task_MP_exp2,2020.2.5,Win32,60,z,1,0.933,,,,,,,,0.933,1,,,,,,464,NW,UN,33,whivex,CHAITE,z,,,,,,0.542824074,-0.21412037,0,0,0,,0,211,211,403,1
,,,,,,,,,,,,,,,,,,5f2e48f9498e160008a60d2d,2020-11-25_18h53.06.097,lexical_decision_task_MP_exp2,2020.2.5,Win32,60,z,1,0.799,,,,,,,,0.799,1,,,,,,269,NW,UN,16,wrimsy,ORCHET,z,,,,,,0.542824074,-0.21412037,0,0,0,,0,212,212,448,1
,,,,,,,,,,,,,,,,,,5f2e48f9498e160008a60d2d,2020-11-25_18h53.06.097,lexical_decision_task_MP_exp2,2020.2.5,Win32,60,z,1,0.587,,,,,,,,0.587,1,,,,,,266,NW,UN,16,pasink,VARMIT,z,,,,,,0.542824074,-0.21412037,0,0,0,,0,213,213,445,1
,,,,,,,,,,,,,,,,,,5f2e48f9498e160008a60d2d,2020-11-25_18h53.06.097,lexical_decision_task_MP_exp2,2020.2.5,Win32,60,m,1,0.599,,,,,,,,0.599,1,,,,,,157,WORD,"ID",16,dragon,DRAGON,m,,,,,,0.542824074,-0.21412037,0,0,0,,0,214,214,96,1
,,,,,,,,,,,,,,,,,,5f2e48f9498e160008a60d2d,2020-11-25_18h53.06.097,lexical_decision_task_MP_exp2,2020.2.5,Win32,60,z,1,0.594,,,,,,,,0.594,1,,,,,,247,NW,UN,16,strole,BLARGE,z,,,,,,0.542824074,-0.21412037,0,0,0,,0,215,215,426,1
,,,,,,,,,,,,,,,,,,5f2e48f9498e160008a60d2d,2020-11-25_18h53.06.097,lexical_decision_task_MP_exp2,2020.2.5,Win32,60,z,1,0.633,,,,,,,,0.633,1,,,,,,438,NW,UN,33,limpor,BAITCH,z,,,,,,0.542824074,-0.21412037,0,0,0,,0,216,216,377,1
,,,,,,,,,,,,,,,,,,5f2e48f9498e160008a60d2d,2020-11-25_18h53.06.097,lexical_decision_task_MP_exp2,2020.2.5,Win32,60,m,1,0.574,,,,,,,,0.574,1,,,,,,17,WORD,UN,16,humble,CHARGE,m,,,,,,0.542824074,-0.21412037,0,0,0,,0,217,217,196,1
,,,,,,,,,,,,,,,,,,5f2e48f9498e160008a60d2d,2020-11-25_18h53.06.097,lexical_decision_task_MP_exp2,2020.2.5,Win32,60,m,1,0.755,,,,,,,,0.755,1,,,,,,41,WORD,UN,16,chapel,SPRING,m,,,,,,0.542824074,-0.21412037,0,0,0,,0,218,218,220,1
,,,,,,,,,,,,,,,,,,5f2e48f9498e160008a60d2d,2020-11-25_18h53.06.097,lexical_decision_task_MP_exp2,2020.2.5,Win32,60,m,1,0.719,,,,,,,,0.719,1,,,,,,144,WORD,"ID",16,sponge,SPONGE,m,,,,,,0.542824074,-0.21412037,0,0,0,,0,219,219,83,1
,,,,,,,,,,,,,,,,,,5f2e48f9498e160008a60d2d,2020-11-25_18h53.06.097,lexical_decision_task_MP_exp2,2020.2.5,Win32,60,m,1,0.533,,,,,,,,0.533,1,,,,,,219,WORD,UN,33,voyage,BUCKET,m,,,,,,0.542824074,-0.21412037,0,0,0,,0,220,220,158,1
,,,,,,,,,,,,,,,,,,5f2e48f9498e160008a60d2d,2020-11-25_18h53.06.097,lexical_decision_task_MP_exp2,2020.2.5,Win32,60,z,0,0.77,,,,,,,,0.77,0,,,,,,32,WORD,UN,16,scream,BUCKLE,m,,,,,,0.542824074,-0.21412037,0,0,0,,0,221,221,211,1
,,,,,,,,,,,,,,,,,,5f2e48f9498e160008a60d2d,2020-11-25_18h53.06.097,lexical_decision_task_MP_exp2,2020.2.5,Win32,60,z,0,1.102,,,,,,,,1.102,0,,,,,,213,WORD,UN,33,intake,SQUEAL,m,,,,,,0.542824074,-0.21412037,0,0,0,,0,222,222,152,1
,,,,,,,,,,,,,,,,,,5f2e48f9498e160008a60d2d,2020-11-25_18h53.06.097,lexical_decision_task_MP_exp2,2020.2.5,Win32,60,m,1,0.741,,,,,,,,0.741,1,,,,,,93,WORD,"ID",33,public,PUBLIC,m,,,,,,0.542824074,-0.21412037,0,0,0,,0,223,223,32,1
,,,,,,,,,,,,,,,,,,5f2e48f9498e160008a60d2d,2020-11-25_18h53.06.097,lexical_decision_task_MP_exp2,2020.2.5,Win32,60,m,1,0.568,,,,,,,,0.568,1,,,,,,228,WORD,UN,33,kidney,MASTER,m,,,,,,0.542824074,-0.21412037,0,0,0,,0,224,224,167,1
,,,,,,,,,,,,,,,,,,5f2e48f9498e160008a60d2d,2020-11-25_18h53.06.097,lexical_decision_task_MP_exp2,2020.2.5,Win32,60,z,1,1.653,,,,,,,,1.653,1,,,,,,299,NW,UN,16,yarion,STURCH,z,,,,,,0.542824074,-0.21412037,0,0,0,,0,225,225,478,1
,,,,,,,,,,,,,,,,,,5f2e48f9498e160008a60d2d,2020-11-25_18h53.06.097,lexical_decision_task_MP_exp2,2020.2.5,Win32,60,z,1,0.983,,,,,,,,0.983,1,,,,,,475,NW,UN,33,josted,PEBRIC,z,,,,,,0.542824074,-0.21412037,0,0,0,,0,226,226,414,1
,,,,,,,,,,,,,,,,,,5f2e48f9498e160008a60d2d,2020-11-25_18h53.06.097,lexical_decision_task_MP_exp2,2020.2.5,Win32,60,z,1,0.602,,,,,,,,0.602,1,,,,,,251,NW,UN,16,stapod,LUPICT,z,,,,,,0.542824074,-0.21412037,0,0,0,,0,227,227,430,1
,,,,,,,,,,,,,,,,,,5f2e48f9498e160008a60d2d,2020-11-25_18h53.06.097,lexical_decision_task_MP_exp2,2020.2.5,Win32,60,m,1,0.82,,,,,,,,0.82,1,,,,,,87,WORD,"ID",33,filter,FILTER,m,,,,,,0.542824074,-0.21412037,0,0,0,,0,228,228,26,1
,,,,,,,,,,,,,,,,,,5f2e48f9498e160008a60d2d,2020-11-25_18h53.06.097,lexical_decision_task_MP_exp2,2020.2.5,Win32,60,z,1,0.715,,,,,,,,0.715,1,,,,,,280,NW,UN,16,melaty,CURBOL,z,,,,,,0.542824074,-0.21412037,0,0,0,,0,229,229,459,1
,,,,,,,,,,,,,,,,,,5f2e48f9498e160008a60d2d,2020-11-25_18h53.06.097,lexical_decision_task_MP_exp2,2020.2.5,Win32,60,z,1,0.782,,,,,,,,0.782,1,,,,,,397,NW,"ID",16,camble,CAMBLE,z,,,,,,0.542824074,-0.21412037,0,0,0,,0,230,230,336,1
,,,,,,,,,,,,,,,,,,5f2e48f9498e160008a60d2d,2020-11-25_18h53.06.097,lexical_decision_task_MP_exp2,2020.2.5,Win32,60,m,1,0.533,,,,,,,,0.533,1,,,,,,109,WORD,"ID",33,wonder,WONDER,m,,,,,,0.542824074,-0.21412037,0,0,0,,0,231,231,48,1
,,,,,,,,,,,,,,,,,,5f2e48f9498e160008a60d2d,2020-11-25_18h53.06.097,lexical_decision_task_MP_exp2,2020.2.5,Win32,60,m,1,0.699,,,,,,,,0.699,1,,,,,,205,WORD,UN,33,tailor,LOUNGE,m,,,,,,0.542824074,-0.21412037,0,0,0,,0,232,232,144,1
,,,,,,,,,,,,,,,,,,5f2e48f9498e160008a60d2d,2020-11-25_18h53.06.097,lexical_decision_task_MP_exp2,2020.2.5,Win32,60,z,1,0.739,,,,,,,,0.739,1,,,,,,320,NW,"ID",33,jockal,JOCKAL,z,,,,,,0.542824074,-0.21412037,0,0,0,,0,233,233,259,1
,,,,,,,,,,,,,,,,,,5f2e48f9498e160008a60d2d,2020-11-25_18h53.06.097,lexical_decision_task_MP_exp2,2020.2.5,Win32,60,m,1,0.585,,,,,,,,0.585,1,,,,,,160,WORD,"ID",16,violet,VIOLET,m,,,,,,0.542824074,-0.21412037,0,0,0,,0,234,234,99,1
,,,,,,,,,,,,,,,,,,5f2e48f9498e160008a60d2d,2020-11-25_18h53.06.097,lexical_decision_task_MP_exp2,2020.2.5,Win32,60,m,0,0.516,,,,,,,,0.516,0,,,,,,342,NW,"ID",33,randow,RANDOW,z,,,,,,0.542824074,-0.21412037,0,0,0,,0,235,235,281,1
,,,,,,,,,,,,,,,,,,5f2e48f9498e160008a60d2d,2020-11-25_18h53.06.097,lexical_decision_task_MP_exp2,2020.2.5,Win32,60,m,1,1.065,,,,,,,,1.065,1,,,,,,62,WORD,"ID",33,region,REGION,m,,,,,,0.542824074,-0.21412037,0,0,0,,0,236,236,1,1
,,,,,,,,,,,,,,,,,,5f2e48f9498e160008a60d2d,2020-11-25_18h53.06.097,lexical_decision_task_MP_exp2,2020.2.5,Win32,60,z,1,0.619,,,,,,,,0.619,1,,,,,,384,NW,"ID",16,guesco,GUESCO,z,,,,,,0.542824074,-0.21412037,0,0,0,,0,237,237,323,1
,,,,,,,,,,,,,,,,,,5f2e48f9498e160008a60d2d,2020-11-25_18h53.06.097,lexical_decision_task_MP_exp2,2020.2.5,Win32,60,m,1,0.703,,,,,,,,0.703,1,,,,,,125,WORD,"ID",16,nickel,NICKEL,m,,,,,,0.542824074,-0.21412037,0,0,0,,0,238,238,64,1
,,,,,,,,,,,,,,,,,,5f2e48f9498e160008a60d2d,2020-11-25_18h53.06.097,lexical_decision_task_MP_exp2,2020.2.5,Win32,60,m,1,0.732,,,,,,,,0.732,1,,,,,,149,WORD,"ID",16,invade,INVADE,m,,,,,,0.542824074,-0.21412037,0,0,0,,0,239,239,88,1
,,,,,,,,,,,,,,,,,,5f2e48f9498e160008a60d2d,2020-11-25_18h53.06.097,lexical_decision_task_MP_exp2,2020.2.5,Win32,60,z,1,0.849,,,,,,,,0.849,1,,,,,,466,NW,UN,33,robuly,HOCITE,z,,,,,,0.542824074,-0.21412037,0,0,0,,0,240,240,405,1
,,,,,,,,,,,,,,,,,,5f2e48f9498e160008a60d2d,2020-11-25_18h53.06.097,lexical_decision_task_MP_exp2,2020.2.5,Win32,60,z,1,0.522,,,,,,,,0.522,1,,,,,,375,NW,"ID",16,yorque,YORQUE,z,,,,,,0.542824074,-0.21412037,0,0,0,,0,241,241,314,1
,,,,,,,,,,,,,,,,,,5f2e48f9498e160008a60d2d,2020-11-25_18h53.06.097,lexical_decision_task_MP_exp2,2020.2.5,Win32,60,z,1,0.999,,,,,,,,0.999,1,,,,,,244,NW,UN,16,anougs,EATRIC,z,,,,,,0.542824074,-0.21412037,0,0,0,,0,242,242,423,1
,,,,,,,,,,,,,,,,,,5f2e48f9498e160008a60d2d,2020-11-25_18h53.06.097,lexical_decision_task_MP_exp2,2020.2.5,Win32,60,z,1,1.1,,,,,,,,1.1,1,,,,,,401,NW,"ID",16,mustil,MUSTIL,z,,,,,,0.542824074,-0.21412037,0,0,0,,0,243,243,340,1
,,,,,,,,,,,,,,,,,,5f2e48f9498e160008a60d2d,2020-11-25_18h53.06.097,lexical_decision_task_MP_exp2,2020.2.5,Win32,60,m,1,0.648,,,,,,,,0.648,1,,,,,,78,WORD,"ID",33,column,COLUMN,m,,,,,,0.542824074,-0.21412037,0,0,0,,0,244,244,17,1
,,,,,,,,,,,,,,,,,,5f2e48f9498e160008a60d2d,2020-11-25_18h53.06.097,lexical_decision_task_MP_exp2,2020.2.5,Win32,60,m,1,0.804,,,,,,,,0.804,1,,,,,,163,WORD,"ID",16,string,STRING,m,,,,,,0.542824074,-0.21412037,0,0,0,,0,245,245,102,1
,,,,,,,,,,,,,,,,,,5f2e48f9498e160008a60d2d,2020-11-25_18h53.06.097,lexical_decision_task_MP_exp2,2020.2.5,Win32,60,m,1,0.631,,,,,,,,0.631,1,,,,,,174,WORD,"ID",16,turkey,TURKEY,m,,,,,,0.542824074,-0.21412037,0,0,0,,0,246,246,113,1
,,,,,,,,,,,,,,,,,,5f2e48f9498e160008a60d2d,2020-11-25_18h53.06.097,lexical_decision_task_MP_exp2,2020.2.5,Win32,60,z,1,0.615,,,,,,,,0.615,1,,,,,,354,NW,"ID",33,virlex,VIRLEX,z,,,,,,0.542824074,-0.21412037,0,0,0,,0,247,247,293,1
,,,,,,,,,,,,,,,,,,5f2e48f9498e160008a60d2d,2020-11-25_18h53.06.097,lexical_decision_task_MP_exp2,2020.2.5,Win32,60,z,1,0.699,,,,,,,,0.699,1,,,,,,459,NW,UN,33,mingar,BAFENT,z,,,,,,0.542824074,-0.21412037,0,0,0,,0,248,248,398,1
,,,,,,,,,,,,,,,,,,5f2e48f9498e160008a60d2d,2020-11-25_18h53.06.097,lexical_decision_task_MP_exp2,2020.2.5,Win32,60,m,1,0.516,,,,,,,,0.516,1,,,,,,50,WORD,UN,16,hungry,SNATCH,m,,,,,,0.542824074,-0.21412037,0,0,0,,0,249,249,229,1
,,,,,,,,,,,,,,,,,,5f2e48f9498e160008a60d2d,2020-11-25_18h53.06.097,lexical_decision_task_MP_exp2,2020.2.5,Win32,60,z,1,0.686,,,,,,,,0.686,1,,,,,,259,NW,UN,16,unject,SOUDAL,z,,,,,,0.542824074,-0.21412037,0,0,0,,0,250,250,438,1
,,,,,,,,,,,,,,,,,,5f2e48f9498e160008a60d2d,2020-11-25_18h53.06.097,lexical_decision_task_MP_exp2,2020.2.5,Win32,60,m,1,0.624,,,,,,,,0.624,1,,,,,,24,WORD,UN,16,domain,PRAISE,m,,,,,,0.542824074,-0.21412037,0,0,0,,0,251,251,203,1
,,,,,,,,,,,,,,,,,,5f2e48f9498e160008a60d2d,2020-11-25_18h53.06.097,lexical_decision_task_MP_exp2,2020.2.5,Win32,60,m,1,1.024,,,,,,,,1.024,1,,,,,,225,WORD,UN,33,casino,VULGAR,m,,,,,,0.542824074,-0.21412037,0,0,0,,0,252,252,164,1
,,,,,,,,,,,,,,,,,,5f2e48f9498e160008a60d2d,2020-11-25_18h53.06.097,lexical_decision_task_MP_exp2,2020.2.5,Win32,60,z,1,0.674,,,,,,,,0.674,1,,,,,,304,NW,"ID",33,cludie,CLUDIE,z,,,,,,0.542824074,-0.21412037,0,0,0,,0,253,253,243,1
,,,,,,,,,,,,,,,,,,5f2e48f9498e160008a60d2d,2020-11-25_18h53.06.097,lexical_decision_task_MP_exp2,2020.2.5,Win32,60,m,1,0.665,,,,,,,,0.665,1,,,,,,180,WORD,"ID",16,silent,SILENT,m,,,,,,0.542824074,-0.21412037,0,0,0,,0,254,254,119,1
,,,,,,,,,,,,,,,,,,5f2e48f9498e160008a60d2d,2020-11-25_18h53.06.097,lexical_decision_task_MP_exp2,2020.2.5,Win32,60,z,0,0.754,,,,,,,,0.754,0,,,,,,85,WORD,"ID",33,sprawl,SPRAWL,m,,,,,,0.542824074,-0.21412037,0,0,0,,0,255,255,24,1
,,,,,,,,,,,,,,,,,,5f2e48f9498e160008a60d2d,2020-11-25_18h53.06.097,lexical_decision_task_MP_exp2,2020.2.5,Win32,60,z,1,0.672,,,,,,,,0.672,1,,,,,,413,NW,"ID",16,equats,EQUATS,z,,,,,,0.542824074,-0.21412037,0,0,0,,0,256,256,352,1
,,,,,,,,,,,,,,,,,,5f2e48f9498e160008a60d2d,2020-11-25_18h53.06.097,lexical_decision_task_MP_exp2,2020.2.5,Win32,60,z,1,1.255,,,,,,,,1.255,1,,,,,,300,NW,UN,16,smenco,YARION,z,,,,,,0.542824074,-0.21412037,0,0,0,,0,257,257,479,1
,,,,,,,,,,,,,,,,,,5f2e48f9498e160008a60d2d,2020-11-25_18h53.06.097,lexical_decision_task_MP_exp2,2020.2.5,Win32,60,m,1,0.64,,,,,,,,0.64,1,,,,,,146,WORD,"ID",16,couple,COUPLE,m,,,,,,0.542824074,-0.21412037,0,0,0,,0,258,258,85,1
,,,,,,,,,,,,,,,,,,5f2e48f9498e160008a60d2d,2020-11-25_18h53.06.097,lexical_decision_task_MP_exp2,2020.2.5,Win32,60,m,1,1.099,,,,,,,,1.099,1,,,,,,215,WORD,UN,33,lumber,PHOBIA,m,,,,,,0.542824074,-0.21412037,0,0,0,,0,259,259,154,1
,,,,,,,,,,,,,,,,,,5f2e48f9498e160008a60d2d,2020-11-25_18h53.06.097,lexical_decision_task_MP_exp2,2020.2.5,Win32,60,m,1,0.705,,,,,,,,0.705,1,,,,,,107,WORD,"ID",33,slogan,SLOGAN,m,,,,,,0.542824074,-0.21412037,0,0,0,,0,260,260,46,1
,,,,,,,,,,,,,,,,,,5f2e48f9498e160008a60d2d,2020-11-25_18h53.06.097,lexical_decision_task_MP_exp2,2020.2.5,Win32,60,m,1,0.568,,,,,,,,0.568,1,,,,,,162,WORD,"ID",16,candle,CANDLE,m,,,,,,0.542824074,-0.21412037,0,0,0,,0,261,261,101,1
,,,,,,,,,,,,,,,,,,5f2e48f9498e160008a60d2d,2020-11-25_18h53.06.097,lexical_decision_task_MP_exp2,2020.2.5,Win32,60,m,1,0.557,,,,,,,,0.557,1,,,,,,51,WORD,UN,16,impose,HUNGRY,m,,,,,,0.542824074,-0.21412037,0,0,0,,0,262,262,230,1
,,,,,,,,,,,,,,,,,,5f2e48f9498e160008a60d2d,2020-11-25_18h53.06.097,lexical_decision_task_MP_exp2,2020.2.5,Win32,60,m,1,0.553,,,,,,,,0.553,1,,,,,,14,WORD,UN,16,orange,ALMOST,m,,,,,,0.542824074,-0.21412037,0,0,0,,0,263,263,193,1
,,,,,,,,,,,,,,,,,,5f2e48f9498e160008a60d2d,2020-11-25_18h53.06.097,lexical_decision_task_MP_exp2,2020.2.5,Win32,60,m,1,0.582,,,,,,,,0.582,1,,,,,,171,WORD,"ID",16,depart,DEPART,m,,,,,,0.542824074,-0.21412037,0,0,0,,0,264,264,110,1
,,,,,,,,,,,,,,,,,,5f2e48f9498e160008a60d2d,2020-11-25_18h53.06.097,lexical_decision_task_MP_exp2,2020.2.5,Win32,60,m,1,0.489,,,,,,,,0.489,1,,,,,,187,WORD,UN,33,social,COURSE,m,,,,,,0.542824074,-0.21412037,0,0,0,,0,265,265,126,1
,,,,,,,,,,,,,,,,,,5f2e48f9498e160008a60d2d,2020-11-25_18h53.06.097,lexical_decision_task_MP_exp2,2020.2.5,Win32,60,z,1,0.824,,,,,,,,0.824,1,,,,,,376,NW,"ID",16,iguare,IGUARE,z,,,,,,0.542824074,-0.21412037,0,0,0,,0,266,266,315,1
,,,,,,,,,,,,,,,,,,5f2e48f9498e160008a60d2d,2020-11-25_18h53.06.097,lexical_decision_task_MP_exp2,2020.2.5,Win32,60,z,1,0.848,,,,,,,,0.848,1,,,,,,452,NW,UN,33,bolvis,SURDEN,z,,,,,,0.542824074,-0.21412037,0,0,0,,0,267,267,391,1
,,,,,,,,,,,,,,,,,,5f2e48f9498e160008a60d2d,2020-11-25_18h53.06.097,lexical_decision_task_MP_exp2,2020.2.5,Win32,60,m,1,0.836,,,,,,,,0.836,1,,,,,,214,WORD,UN,33,phobia,INTAKE,m,,,,,,0.542824074,-0.21412037,0,0,0,,0,268,268,153,1
,,,,,,,,,,,,,,,,,,5f2e48f9498e160008a60d2d,2020-11-25_18h53.06.097,lexical_decision_task_MP_exp2,2020.2.5,Win32,60,z,1,0.724,,,,,,,,0.724,1,,,,,,450,NW,UN,33,cainky,PHRECT,z,,,,,,0.542824074,-0.21412037,0,0,0,,0,269,269,389,1
,,,,,,,,,,,,,,,,,,5f2e48f9498e160008a60d2d,2020-11-25_18h53.06.097,lexical_decision_task_MP_exp2,2020.2.5,Win32,60,z,1,0.889,,,,,,,,0.889,1,,,,,,442,NW,UN,33,dorsex,ABOUNE,z,,,,,,0.542824074,-0.21412037,0,0,0,,0,270,270,381,1
,,,,,,,,,,,,,,,,,,5f2e48f9498e160008a60d2d,2020-11-25_18h53.06.097,lexical_decision_task_MP_exp2,2020.2.5,Win32,60,m,1,0.849,,,,,,,,0.849,1,,,,,,33,WORD,UN,16,jungle,BUTLER,m,,,,,,0.542824074,-0.21412037,0,0,0,,0,271,271,212,1
,,,,,,,,,,,,,,,,,,5f2e48f9498e160008a60d2d,2020-11-25_18h53.06.097,lexical_decision_task_MP_exp2,2020.2.5,Win32,60,m,1,0.587,,,,,,,,0.587,1,,,,,,231,WORD,UN,33,inject,EXPORT,m,,,,,,0.542824074,-0.21412037,0,0,0,,0,272,272,170,1
,,,,,,,,,,,,,,,,,,5f2e48f9498e160008a60d2d,2020-11-25_18h53.06.097,lexical_decision_task_MP_exp2,2020.2.5,Win32,60,z,1,0.683,,,,,,,,0.683,1,,,,,,344,NW,"ID",33,scrily,SCRILY,z,,,,,,0.542824074,-0.21412037,0,0,0,,0,273,273,283,1
,,,,,,,,,,,,,,,,,,5f2e48f9498e160008a60d2d,2020-11-25_18h53.06.097,lexical_decision_task_MP_exp2,2020.2.5,Win32,60,m,1,0.765,,,,,,,,0.765,1,,,,,,20,WORD,UN,16,simple,BREAST,m,,,,,,0.542824074,-0.21412037,0,0,0,,0,274,274,199,1
,,,,,,,,,,,,,,,,,,5f2e48f9498e160008a60d2d,2020-11-25_18h53.06.097,lexical_decision_task_MP_exp2,2020.2.5,Win32,60,m,1,0.769,,,,,,,,0.769,1,,,,,,111,WORD,"ID",33,induce,INDUCE,m,,,,,,0.542824074,-0.21412037,0,0,0,,0,275,275,50,1
,,,,,,,,,,,,,,,,,,5f2e48f9498e160008a60d2d,2020-11-25_18h53.06.097,lexical_decision_task_MP_exp2,2020.2.5,Win32,60,m,1,0.715,,,,,,,,0.715,1,,,,,,47,WORD,UN,16,walnut,INCOME,m,,,,,,0.542824074,-0.21412037,0,0,0,,0,276,276,226,1
,,,,,,,,,,,,,,,,,,5f2e48f9498e160008a60d2d,2020-11-25_18h53.06.097,lexical_decision_task_MP_exp2,2020.2.5,Win32,60,z,1,0.572,,,,,,,,0.572,1,,,,,,367,NW,"ID",16,slique,SLIQUE,z,,,,,,0.542824074,-0.21412037,0,0,0,,0,277,277,306,1
,,,,,,,,,,,,,,,,,,5f2e48f9498e160008a60d2d,2020-11-25_18h53.06.097,lexical_decision_task_MP_exp2,2020.2.5,Win32,60,m,1,0.536,,,,,,,,0.536,1,,,,,,158,WORD,"ID",16,island,ISLAND,m,,,,,,0.542824074,-0.21412037,0,0,0,,0,278,278,97,1
,,,,,,,,,,,,,,,,,,5f2e48f9498e160008a60d2d,2020-11-25_18h53.06.097,lexical_decision_task_MP_exp2,2020.2.5,Win32,60,z,1,0.549,,,,,,,,0.549,1,,,,,,296,NW,UN,16,fertic,BEINCH,z,,,,,,0.542824074,-0.21412037,0,0,0,,0,279,279,475,1
,,,,,,,,,,,,,,,,,,5f2e48f9498e160008a60d2d,2020-11-25_18h53.06.097,lexical_decision_task_MP_exp2,2020.2.5,Win32,60,z,1,0.906,,,,,,,,0.906,1,,,,,,403,NW,"ID",16,bruats,BRUATS,z,,,,,,0.542824074,-0.21412037,0,0,0,,0,280,280,342,1
,,,,,,,,,,,,,,,,,,5f2e48f9498e160008a60d2d,2020-11-25_18h53.06.097,lexical_decision_task_MP_exp2,2020.2.5,Win32,60,m,1,0.766,,,,,,,,0.766,1,,,,,,72,WORD,"ID",33,bright,BRIGHT,m,,,,,,0.542824074,-0.21412037,0,0,0,,0,281,281,11,1
,,,,,,,,,,,,,,,,,,5f2e48f9498e160008a60d2d,2020-11-25_18h53.06.097,lexical_decision_task_MP_exp2,2020.2.5,Win32,60,m,1,0.766,,,,,,,,0.766,1,,,,,,81,WORD,"ID",33,friend,FRIEND,m,,,,,,0.542824074,-0.21412037,0,0,0,,0,282,282,20,1
,,,,,,,,,,,,,,,,,,5f2e48f9498e160008a60d2d,2020-11-25_18h53.06.097,lexical_decision_task_MP_exp2,2020.2.5,Win32,60,z,1,0.682,,,,,,,,0.682,1,,,,,,412,NW,"ID",16,jiluer,JILUER,z,,,,,,0.542824074,-0.21412037,0,0,0,,0,283,283,351,1
,,,,,,,,,,,,,,,,,,5f2e48f9498e160008a60d2d,2020-11-25_18h53.06.097,lexical_decision_task_MP_exp2,2020.2.5,Win32,60,z,1,1.338,,,,,,,,1.338,1,,,,,,357,NW,"ID",33,derain,DERAIN,z,,,,,,0.542824074,-0.21412037,0,0,0,,0,284,284,296,1
,,,,,,,,,,,,,,,,,,5f2e48f9498e160008a60d2d,2020-11-25_18h53.06.097,lexical_decision_task_MP_exp2,2020.2.5,Win32,60,m,1,0.531,,,,,,,,0.531,1,,,,,,203,WORD,UN,33,burden,PHRASE,m,,,,,,0.542824074,-0.21412037,0,0,0,,0,285,285,142,1
,,,,,,,,,,,,,,,,,,5f2e48f9498e160008a60d2d,2020-11-25_18h53.06.097,lexical_decision_task_MP_exp2,2020.2.5,Win32,60,z,1,0.869,,,,,,,,0.869,1,,,,,,281,NW,UN,16,porlex,MELATY,z,,,,,,0.542824074,-0.21412037,0,0,0,,0,286,286,460,1
,,,,,,,,,,,,,,,,,,5f2e48f9498e160008a60d2d,2020-11-25_18h53.06.097,lexical_decision_task_MP_exp2,2020.2.5,Win32,60,m,1,0.632,,,,,,,,0.632,1,,,,,,114,WORD,"ID",33,placid,PLACID,m,,,,,,0.542824074,-0.21412037,0,0,0,,0,287,287,53,1
,,,,,,,,,,,,,,,,,,5f2e48f9498e160008a60d2d,2020-11-25_18h53.06.097,lexical_decision_task_MP_exp2,2020.2.5,Win32,60,m,1,0.901,,,,,,,,0.901,1,,,,,,22,WORD,UN,16,wealth,JOCKEY,m,,,,,,0.542824074,-0.21412037,0,0,0,,0,288,288,201,1
,,,,,,,,,,,,,,,,,,5f2e48f9498e160008a60d2d,2020-11-25_18h53.06.097,lexical_decision_task_MP_exp2,2020.2.5,Win32,60,m,1,0.852,,,,,,,,0.852,1,,,,,,193,WORD,UN,33,mildew,OBJECT,m,,,,,,0.542824074,-0.21412037,0,0,0,,0,289,289,132,1
,,,,,,,,,,,,,,,,,,5f2e48f9498e160008a60d2d,2020-11-25_18h53.06.097,lexical_decision_task_MP_exp2,2020.2.5,Win32,60,z,1,0.865,,,,,,,,0.865,1,,,,,,418,NW,"ID",16,suidle,SUIDLE,z,,,,,,0.542824074,-0.21412037,0,0,0,,0,290,290,357,1
,,,,,,,,,,,,,,,,,,5f2e48f9498e160008a60d2d,2020-11-25_18h53.06.097,lexical_decision_task_MP_exp2,2020.2.5,Win32,60,z,1,0.655,,,,,,,,0.655,1,,,,,,416,NW,"ID",16,pathel,PATHEL,z,,,,,,0.542824074,-0.21412037,0,0,0,,0,291,291,355,1
,,,,,,,,,,,,,,,,,,5f2e48f9498e160008a60d2d,2020-11-25_18h53.06.097,lexical_decision_task_MP_exp2,2020.2.5,Win32,60,m,1,0.52,,,,,,,,0.52,1,,,,,,233,WORD,UN,33,clumsy,NATURE,m,,,,,,0.542824074,-0.21412037,0,0,0,,0,292,292,172,1
,,,,,,,,,,,,,,,,,,5f2e48f9498e160008a60d2d,2020-11-25_18h53.06.097,lexical_decision_task_MP_exp2,2020.2.5,Win32,60,z,1,1.298,,,,,,,,1.298,1,,,,,,422,NW,UN,33,streld,ALCOUD,z,,,,,,0.542824074,-0.21412037,0,0,0,,0,293,293,361,1
,,,,,,,,,,,,,,,,,,5f2e48f9498e160008a60d2d,2020-11-25_18h53.06.097,lexical_decision_task_MP_exp2,2020.2.5,Win32,60,z,1,0.599,,,,,,,,0.599,1,,,,,,392,NW,"ID",16,rouncy,ROUNCY,z,,,,,,0.542824074,-0.21412037,0,0,0,,0,294,294,331,1
,,,,,,,,,,,,,,,,,,5f2e48f9498e160008a60d2d,2020-11-25_18h53.06.097,lexical_decision_task_MP_exp2,2020.2.5,Win32,60,m,1,0.583,,,,,,,,0.583,1,,,,,,190,WORD,UN,33,stable,BACKUP,m,,,,,,0.542824074,-0.21412037,0,0,0,,0,295,295,129,1
,,,,,,,,,,,,,,,,,,5f2e48f9498e160008a60d2d,2020-11-25_18h53.06.097,lexical_decision_task_MP_exp2,2020.2.5,Win32,60,z,1,0.715,,,,,,,,0.715,1,,,,,,443,NW,UN,33,jaunce,DORSEX,z,,,,,,0.542824074,-0.21412037,0,0,0,,0,296,296,382,1
,,,,,,,,,,,,,,,,,,5f2e48f9498e160008a60d2d,2020-11-25_18h53.06.097,lexical_decision_task_MP_exp2,2020.2.5,Win32,60,z,1,0.648,,,,,,,,0.648,1,,,,,,381,NW,"ID",16,huniek,HUNIEK,z,,,,,,0.542824074,-0.21412037,0,0,0,,0,297,297,320,1
,,,,,,,,,,,,,,,,,,5f2e48f9498e160008a60d2d,2020-11-25_18h53.06.097,lexical_decision_task_MP_exp2,2020.2.5,Win32,60,z,1,0.841,,,,,,,,0.841,1,,,,,,387,NW,"ID",16,gronce,GRONCE,z,,,,,,0.542824074,-0.21412037,0,0,0,,0,298,298,326,1
,,,,,,,,,,,,,,,,,,5f2e48f9498e160008a60d2d,2020-11-25_18h53.06.097,lexical_decision_task_MP_exp2,2020.2.5,Win32,60,m,1,0.564,,,,,,,,0.564,1,,,,,,80,WORD,"ID",33,family,FAMILY,m,,,,,,0.542824074,-0.21412037,0,0,0,,0,299,299,19,1
,,,,,,,,,,,,,,,,,,5f2e48f9498e160008a60d2d,2020-11-25_18h53.06.097,lexical_decision_task_MP_exp2,2020.2.5,Win32,60,m,1,0.718,,,,,,,,0.718,1,,,,,,82,WORD,"ID",33,stigma,STIGMA,m,,,,,,0.542824074,-0.21412037,0,0,0,,0,300,300,21,1
,,,,,,,,,,,,,,,,,,5f2e48f9498e160008a60d2d,2020-11-25_18h53.06.097,lexical_decision_task_MP_exp2,2020.2.5,Win32,60,z,1,1.599,,,,,,,,1.599,1,,,,,,303,NW,"ID",33,fiream,FIREAM,z,,,,,,0.542824074,-0.21412037,0,0,0,,0,301,301,242,1
,,,,,,,,,,,,,,,,,,5f2e48f9498e160008a60d2d,2020-11-25_18h53.06.097,lexical_decision_task_MP_exp2,2020.2.5,Win32,60,m,1,0.736,,,,,,,,0.736,1,,,,,,58,WORD,UN,16,splint,FOSTER,m,,,,,,0.542824074,-0.21412037,0,0,0,,0,302,302,237,1
,,,,,,,,,,,,,,,,,,5f2e48f9498e160008a60d2d,2020-11-25_18h53.06.097,lexical_decision_task_MP_exp2,2020.2.5,Win32,60,m,1,0.682,,,,,,,,0.682,1,,,,,,61,WORD,"ID",33,ponder,PONDER,m,,,,,,0.542824074,-0.21412037,0,0,0,,0,303,303,0,1
,,,,,,,,,,,,,,,,,,5f2e48f9498e160008a60d2d,2020-11-25_18h53.06.097,lexical_decision_task_MP_exp2,2020.2.5,Win32,60,m,1,0.732,,,,,,,,0.732,1,,,,,,23,WORD,UN,16,praise,WEALTH,m,,,,,,0.542824074,-0.21412037,0,0,0,,0,304,304,202,1
,,,,,,,,,,,,,,,,,,5f2e48f9498e160008a60d2d,2020-11-25_18h53.06.097,lexical_decision_task_MP_exp2,2020.2.5,Win32,60,z,1,0.698,,,,,,,,0.698,1,,,,,,407,NW,"ID",16,suiver,SUIVER,z,,,,,,0.542824074,-0.21412037,0,0,0,,0,305,305,346,1
,,,,,,,,,,,,,,,,,,5f2e48f9498e160008a60d2d,2020-11-25_18h53.06.097,lexical_decision_task_MP_exp2,2020.2.5,Win32,60,z,1,0.616,,,,,,,,0.616,1,,,,,,334,NW,"ID",33,watmeg,WATMEG,z,,,,,,0.542824074,-0.21412037,0,0,0,,0,306,306,273,1
,,,,,,,,,,,,,,,,,,5f2e48f9498e160008a60d2d,2020-11-25_18h53.06.097,lexical_decision_task_MP_exp2,2020.2.5,Win32,60,m,1,0.602,,,,,,,,0.602,1,,,,,,200,WORD,UN,33,admire,BEACON,m,,,,,,0.542824074,-0.21412037,0,0,0,,0,307,307,139,1
,,,,,,,,,,,,,,,,,,5f2e48f9498e160008a60d2d,2020-11-25_18h53.06.097,lexical_decision_task_MP_exp2,2020.2.5,Win32,60,z,1,0.683,,,,,,,,0.683,1,,,,,,305,NW,"ID",33,forgle,FORGLE,z,,,,,,0.542824074,-0.21412037,0,0,0,,0,308,308,244,1
,,,,,,,,,,,,,,,,,,5f2e48f9498e160008a60d2d,2020-11-25_18h53.06.097,lexical_decision_task_MP_exp2,2020.2.5,Win32,60,z,1,0.581,,,,,,,,0.581,1,,,,,,372,NW,"ID",16,ramily,RAMILY,z,,,,,,0.542824074,-0.21412037,0,0,0,,0,309,309,311,1
,,,,,,,,,,,,,,,,,,5f2e48f9498e160008a60d2d,2020-11-25_18h53.06.097,lexical_decision_task_MP_exp2,2020.2.5,Win32,60,z,1,0.95,,,,,,,,0.95,1,,,,,,314,NW,"ID",33,sprine,SPRINE,z,,,,,,0.542824074,-0.21412037,0,0,0,,0,310,310,253,1
,,,,,,,,,,,,,,,,,,5f2e48f9498e160008a60d2d,2020-11-25_18h53.06.097,lexical_decision_task_MP_exp2,2020.2.5,Win32,60,z,1,0.548,,,,,,,,0.548,1,,,,,,385,NW,"ID",16,veigma,VEIGMA,z,,,,,,0.542824074,-0.21412037,0,0,0,,0,311,311,324,1
,,,,,,,,,,,,,,,,,,5f2e48f9498e160008a60d2d,2020-11-25_18h53.06.097,lexical_decision_task_MP_exp2,2020.2.5,Win32,60,z,1,0.566,,,,,,,,0.566,1,,,,,,325,NW,"ID",33,thruse,THRUSE,z,,,,,,0.542824074,-0.21412037,0,0,0,,0,312,312,264,1
,,,,,,,,,,,,,,,,,,5f2e48f9498e160008a60d2d,2020-11-25_18h53.06.097,lexical_decision_task_MP_exp2,2020.2.5,Win32,60,m,1,0.558,,,,,,,,0.558,1,,,,,,39,WORD,UN,16,convey,INSECT,m,,,,,,0.542824074,-0.21412037,0,0,0,,0,313,313,218,1
,,,,,,,,,,,,,,,,,,5f2e48f9498e160008a60d2d,2020-11-25_18h53.06.097,lexical_decision_task_MP_exp2,2020.2.5,Win32,60,m,1,0.632,,,,,,,,0.632,1,,,,,,159,WORD,"ID",16,detail,DETAIL,m,,,,,,0.542824074,-0.21412037,0,0,0,,0,314,314,98,1
,,,,,,,,,,,,,,,,,,5f2e48f9498e160008a60d2d,2020-11-25_18h53.06.097,lexical_decision_task_MP_exp2,2020.2.5,Win32,60,m,1,0.506,,,,,,,,0.506,1,,,,,,64,WORD,"ID",33,throne,THRONE,m,,,,,,0.542824074,-0.21412037,0,0,0,,0,315,315,3,1
,,,,,,,,,,,,,,,,,,5f2e48f9498e160008a60d2d,2020-11-25_18h53.06.097,lexical_decision_task_MP_exp2,2020.2.5,Win32,60,z,1,0.599,,,,,,,,0.599,1,,,,,,276,NW,UN,16,petain,YARMON,z,,,,,,0.542824074,-0.21412037,0,0,0,,0,316,316,455,1
,,,,,,,,,,,,,,,,,,5f2e48f9498e160008a60d2d,2020-11-25_18h53.06.097,lexical_decision_task_MP_exp2,2020.2.5,Win32,60,z,1,0.533,,,,,,,,0.533,1,,,,,,249,NW,UN,16,milted,BATROL,z,,,,,,0.542824074,-0.21412037,0,0,0,,0,317,317,428,1
,,,,,,,,,,,,,,,,,,5f2e48f9498e160008a60d2d,2020-11-25_18h53.06.097,lexical_decision_task_MP_exp2,2020.2.5,Win32,60,m,1,0.571,,,,,,,,0.571,1,,,,,,57,WORD,UN,16,danger,CHANGE,m,,,,,,0.542824074,-0.21412037,0,0,0,,0,318,318,236,1
,,,,,,,,,,,,,,,,,,5f2e48f9498e160008a60d2d,2020-11-25_18h53.06.097,lexical_decision_task_MP_exp2,2020.2.5,Win32,60,z,1,1.098,,,,,,,,1.098,1,,,,,,420,NW,"ID",16,gushop,GUSHOP,z,,,,,,0.542824074,-0.21412037,0,0,0,,0,319,319,359,1
,,,,,,,,,,,,,,,,,,5f2e48f9498e160008a60d2d,2020-11-25_18h53.06.097,lexical_decision_task_MP_exp2,2020.2.5,Win32,60,z,1,0.592,,,,,,,,0.592,1,,,,,,390,NW,"ID",16,hatrus,HATRUS,z,,,,,,0.542824074,-0.21412037,0,0,0,,0,320,320,329,1
,,,,,,,,,,,,,,,,,,5f2e48f9498e160008a60d2d,2020-11-25_18h53.06.097,lexical_decision_task_MP_exp2,2020.2.5,Win32,60,m,1,0.689,,,,,,,,0.689,1,,,,,,69,WORD,"ID",33,plenty,PLENTY,m,,,,,,0.542824074,-0.21412037,0,0,0,,0,321,321,8,1
,,,,,,,,,,,,,,,,,,5f2e48f9498e160008a60d2d,2020-11-25_18h53.06.097,lexical_decision_task_MP_exp2,2020.2.5,Win32,60,z,0,0.632,,,,,,,,0.632,0,,,,,,220,WORD,UN,33,mascot,VOYAGE,m,,,,,,0.542824074,-0.21412037,0,0,0,,0,322,322,159,1
,,,,,,,,,,,,,,,,,,5f2e48f9498e160008a60d2d,2020-11-25_18h53.06.097,lexical_decision_task_MP_exp2,2020.2.5,Win32,60,z,1,0.832,,,,,,,,0.832,1,,,,,,330,NW,"ID",33,kensom,KENSOM,z,,,,,,0.542824074,-0.21412037,0,0,0,,0,323,323,269,1
,,,,,,,,,,,,,,,,,,5f2e48f9498e160008a60d2d,2020-11-25_18h53.06.097,lexical_decision_task_MP_exp2,2020.2.5,Win32,60,z,1,0.588,,,,,,,,0.588,1,,,,,,361,NW,"ID",16,pauche,PAUCHE,z,,,,,,0.542824074,-0.21412037,0,0,0,,0,324,324,300,1
,,,,,,,,,,,,,,,,,,5f2e48f9498e160008a60d2d,2020-11-25_18h53.06.097,lexical_decision_task_MP_exp2,2020.2.5,Win32,60,m,1,1.006,,,,,,,,1.006,1,,,,,,184,WORD,UN,33,bother,SLEAZY,m,,,,,,0.542824074,-0.21412037,0,0,0,,0,325,325,123,1
,,,,,,,,,,,,,,,,,,5f2e48f9498e160008a60d2d,2020-11-25_18h53.06.097,lexical_decision_task_MP_exp2,2020.2.5,Win32,60,m,1,0.531,,,,,,,,0.531,1,,,,,,12,WORD,UN,16,strive,ORANGE,m,,,,,,0.542824074,-0.21412037,0,0,0,,0,326,326,191,1
,,,,,,,,,,,,,,,,,,5f2e48f9498e160008a60d2d,2020-11-25_18h53.06.097,lexical_decision_task_MP_exp2,2020.2.5,Win32,60,z,1,0.823,,,,,,,,0.823,1,,,,,,291,NW,UN,16,ablint,PRETCH,z,,,,,,0.542824074,-0.21412037,0,0,0,,0,327,327,470,1
,,,,,,,,,,,,,,,,,,5f2e48f9498e160008a60d2d,2020-11-25_18h53.06.097,lexical_decision_task_MP_exp2,2020.2.5,Win32,60,z,0,0.599,,,,,,,,0.599,0,,,,,,145,WORD,"ID",16,parish,PARISH,m,,,,,,0.542824074,-0.21412037,0,0,0,,0,328,328,84,1
,,,,,,,,,,,,,,,,,,5f2e48f9498e160008a60d2d,2020-11-25_18h53.06.097,lexical_decision_task_MP_exp2,2020.2.5,Win32,60,z,1,0.885,,,,,,,,0.885,1,,,,,,261,NW,UN,16,quilew,STUNCH,z,,,,,,0.542824074,-0.21412037,0,0,0,,0,329,329,440,1
,,,,,,,,,,,,,,,,,,5f2e48f9498e160008a60d2d,2020-11-25_18h53.06.097,lexical_decision_task_MP_exp2,2020.2.5,Win32,60,m,1,0.599,,,,,,,,0.599,1,,,,,,127,WORD,"ID",16,castle,CASTLE,m,,,,,,0.542824074,-0.21412037,0,0,0,,0,330,330,66,1
,,,,,,,,,,,,,,,,,,5f2e48f9498e160008a60d2d,2020-11-25_18h53.06.097,lexical_decision_task_MP_exp2,2020.2.5,Win32,60,z,1,0.999,,,,,,,,0.999,1,,,,,,270,NW,UN,16,aubrid,WRIMSY,z,,,,,,0.542824074,-0.21412037,0,0,0,,0,331,331,449,1
,,,,,,,,,,,,,,,,,,5f2e48f9498e160008a60d2d,2020-11-25_18h53.06.097,lexical_decision_task_MP_exp2,2020.2.5,Win32,60,m,1,0.566,,,,,,,,0.566,1,,,,,,178,WORD,"ID",16,inform,INFORM,m,,,,,,0.542824074,-0.21412037,0,0,0,,0,332,332,117,1
,,,,,,,,,,,,,,,,,,5f2e48f9498e160008a60d2d,2020-11-25_18h53.06.097,lexical_decision_task_MP_exp2,2020.2.5,Win32,60,z,1,0.689,,,,,,,,0.689,1,,,,,,395,NW,"ID",16,colury,COLURY,z,,,,,,0.542824074,-0.21412037,0,0,0,,0,333,333,334,1
,,,,,,,,,,,,,,,,,,5f2e48f9498e160008a60d2d,2020-11-25_18h53.06.097,lexical_decision_task_MP_exp2,2020.2.5,Win32,60,z,1,0.585,,,,,,,,0.585,1,,,,,,378,NW,"ID",16,shrile,SHRILE,z,,,,,,0.542824074,-0.21412037,0,0,0,,0,334,334,317,1
,,,,,,,,,,,,,,,,,,5f2e48f9498e160008a60d2d,2020-11-25_18h53.06.097,lexical_decision_task_MP_exp2,2020.2.5,Win32,60,m,1,0.618,,,,,,,,0.618,1,,,,,,235,WORD,UN,33,pirate,GRUMPY,m,,,,,,0.542824074,-0.21412037,0,0,0,,0,335,335,174,1
,,,,,,,,,,,,,,,,,,5f2e48f9498e160008a60d2d,2020-11-25_18h53.06.097,lexical_decision_task_MP_exp2,2020.2.5,Win32,60,z,1,0.699,,,,,,,,0.699,1,,,,,,338,NW,"ID",33,wreash,WREASH,z,,,,,,0.542824074,-0.21412037,0,0,0,,0,336,336,277,1
,,,,,,,,,,,,,,,,,,5f2e48f9498e160008a60d2d,2020-11-25_18h53.06.097,lexical_decision_task_MP_exp2,2020.2.5,Win32,60,z,0,0.523,,,,,,,,0.523,0,,,,,,212,WORD,UN,33,squeal,VERIFY,m,,,,,,0.542824074,-0.21412037,0,0,0,,0,337,337,151,1
,,,,,,,,,,,,,,,,,,5f2e48f9498e160008a60d2d,2020-11-25_18h53.06.097,lexical_decision_task_MP_exp2,2020.2.5,Win32,60,m,1,0.75,,,,,,,,0.75,1,,,,,,90,WORD,"ID",33,relish,RELISH,m,,,,,,0.542824074,-0.21412037,0,0,0,,0,338,338,29,1
,,,,,,,,,,,,,,,,,,5f2e48f9498e160008a60d2d,2020-11-25_18h53.06.097,lexical_decision_task_MP_exp2,2020.2.5,Win32,60,m,1,0.715,,,,,,,,0.715,1,,,,,,156,WORD,"ID",16,cradle,CRADLE,m,,,,,,0.542824074,-0.21412037,0,0,0,,0,339,339,95,1
,,,,,,,,,,,,,,,,,,5f2e48f9498e160008a60d2d,2020-11-25_18h53.06.097,lexical_decision_task_MP_exp2,2020.2.5,Win32,60,z,1,0.633,,,,,,,,0.633,1,,,,,,312,NW,"ID",33,nerawl,NERAWL,z,,,,,,0.542824074,-0.21412037,0,0,0,,0,340,340,251,1
,,,,,,,,,,,,,,,,,,5f2e48f9498e160008a60d2d,2020-11-25_18h53.06.097,lexical_decision_task_MP_exp2,2020.2.5,Win32,60,m,1,0.587,,,,,,,,0.587,1,,,,,,155,WORD,"ID",16,lizard,LIZARD,m,,,,,,0.542824074,-0.21412037,0,0,0,,0,341,341,94,1
,,,,,,,,,,,,,,,,,,5f2e48f9498e160008a60d2d,2020-11-25_18h53.06.097,lexical_decision_task_MP_exp2,2020.2.5,Win32,60,m,1,0.567,,,,,,,,0.567,1,,,,,,76,WORD,"ID",33,exotic,EXOTIC,m,,,,,,0.542824074,-0.21412037,0,0,0,,0,342,342,15,1
,,,,,,,,,,,,,,,,,,5f2e48f9498e160008a60d2d,2020-11-25_18h53.06.097,lexical_decision_task_MP_exp2,2020.2.5,Win32,60,z,1,0.766,,,,,,,,0.766,1,,,,,,408,NW,"ID",16,hurnia,HURNIA,z,,,,,,0.542824074,-0.21412037,0,0,0,,0,343,343,347,1
,,,,,,,,,,,,,,,,,,5f2e48f9498e160008a60d2d,2020-11-25_18h53.06.097,lexical_decision_task_MP_exp2,2020.2.5,Win32,60,z,1,0.736,,,,,,,,0.736,1,,,,,,271,NW,UN,16,damilt,AUBRID,z,,,,,,0.542824074,-0.21412037,0,0,0,,0,344,344,450,1
,,,,,,,,,,,,,,,,,,5f2e48f9498e160008a60d2d,2020-11-25_18h53.06.097,lexical_decision_task_MP_exp2,2020.2.5,Win32,60,z,1,0.59,,,,,,,,0.59,1,,,,,,246,NW,UN,16,blarge,PIATON,z,,,,,,0.542824074,-0.21412037,0,0,0,,0,345,345,425,1
,,,,,,,,,,,,,,,,,,5f2e48f9498e160008a60d2d,2020-11-25_18h53.06.097,lexical_decision_task_MP_exp2,2020.2.5,Win32,60,m,1,0.69,,,,,,,,0.69,1,,,,,,128,WORD,"ID",16,senior,SENIOR,m,,,,,,0.542824074,-0.21412037,0,0,0,,0,346,346,67,1
,,,,,,,,,,,,,,,,,,5f2e48f9498e160008a60d2d,2020-11-25_18h53.06.097,lexical_decision_task_MP_exp2,2020.2.5,Win32,60,z,1,0.733,,,,,,,,0.733,1,,,,,,284,NW,UN,16,prudge,SHAPLE,z,,,,,,0.542824074,-0.21412037,0,0,0,,0,347,347,463,1
,,,,,,,,,,,,,,,,,,5f2e48f9498e160008a60d2d,2020-11-25_18h53.06.097,lexical_decision_task_MP_exp2,2020.2.5,Win32,60,m,1,0.592,,,,,,,,0.592,1,,,,,,198,WORD,UN,33,invoke,WICKED,m,,,,,,0.542824074,-0.21412037,0,0,0,,0,348,348,137,1
,,,,,,,,,,,,,,,,,,5f2e48f9498e160008a60d2d,2020-11-25_18h53.06.097,lexical_decision_task_MP_exp2,2020.2.5,Win32,60,m,1,0.569,,,,,,,,0.569,1,,,,,,126,WORD,"ID",16,enough,ENOUGH,m,,,,,,0.542824074,-0.21412037,0,0,0,,0,349,349,65,1
,,,,,,,,,,,,,,,,,,5f2e48f9498e160008a60d2d,2020-11-25_18h53.06.097,lexical_decision_task_MP_exp2,2020.2.5,Win32,60,z,1,0.631,,,,,,,,0.631,1,,,,,,278,NW,UN,16,celond,UNIGHS,z,,,,,,0.542824074,-0.21412037,0,0,0,,0,350,350,457,1
,,,,,,,,,,,,,,,,,,5f2e48f9498e160008a60d2d,2020-11-25_18h53.06.097,lexical_decision_task_MP_exp2,2020.2.5,Win32,60,m,1,0.92,,,,,,,,0.92,1,,,,,,43,WORD,UN,16,foster,TONGUE,m,,,,,,0.542824074,-0.21412037,0,0,0,,0,351,351,222,1
,,,,,,,,,,,,,,,,,,5f2e48f9498e160008a60d2d,2020-11-25_18h53.06.097,lexical_decision_task_MP_exp2,2020.2.5,Win32,60,z,1,0.822,,,,,,,,0.822,1,,,,,,308,NW,"ID",33,psetch,PSETCH,z,,,,,,0.542824074,-0.21412037,0,0,0,,0,352,352,247,1
,,,,,,,,,,,,,,,,,,5f2e48f9498e160008a60d2d,2020-11-25_18h53.06.097,lexical_decision_task_MP_exp2,2020.2.5,Win32,60,m,1,0.641,,,,,,,,0.641,1,,,,,,172,WORD,"ID",16,patrol,PATROL,m,,,,,,0.542824074,-0.21412037,0,0,0,,0,353,353,111,1
,,,,,,,,,,,,,,,,,,5f2e48f9498e160008a60d2d,2020-11-25_18h53.06.097,lexical_decision_task_MP_exp2,2020.2.5,Win32,60,z,1,0.77,,,,,,,,0.77,1,,,,,,360,NW,"ID",33,desory,DESORY,z,,,,,,0.542824074,-0.21412037,0,0,0,,0,354,354,299,1
,,,,,,,,,,,,,,,,,,5f2e48f9498e160008a60d2d,2020-11-25_18h53.06.097,lexical_decision_task_MP_exp2,2020.2.5,Win32,60,z,0,0.758,,,,,,,,0.758,0,,,,,,207,WORD,UN,33,hockey,WREATH,m,,,,,,0.542824074,-0.21412037,0,0,0,,0,355,355,146,1
,,,,,,,,,,,,,,,,,,5f2e48f9498e160008a60d2d,2020-11-25_18h53.06.097,lexical_decision_task_MP_exp2,2020.2.5,Win32,60,m,1,0.615,,,,,,,,0.615,1,,,,,,165,WORD,"ID",16,invest,INVEST,m,,,,,,0.542824074,-0.21412037,0,0,0,,0,356,356,104,1
,,,,,,,,,,,,,,,,,,5f2e48f9498e160008a60d2d,2020-11-25_18h53.06.097,lexical_decision_task_MP_exp2,2020.2.5,Win32,60,m,1,1.054,,,,,,,,1.054,1,,,,,,4,WORD,UN,16,plunge,TRENCH,m,,,,,,0.542824074,-0.21412037,0,0,0,,0,357,357,183,1
,,,,,,,,,,,,,,,,,,5f2e48f9498e160008a60d2d,2020-11-25_18h53.06.097,lexical_decision_task_MP_exp2,2020.2.5,Win32,60,z,1,1.007,,,,,,,,1.007,1,,,,,,335,NW,"ID",33,desion,DESION,z,,,,,,0.542824074,-0.21412037,0,0,0,,0,358,358,274,1
,,,,,,,,,,,,,,,,,,5f2e48f9498e160008a60d2d,2020-11-25_18h53.06.097,lexical_decision_task_MP_exp2,2020.2.5,Win32,60,z,1,0.599,,,,,,,,0.599,1,,,,,,286,NW,UN,16,nymbel,RELDON,z,,,,,,0.542824074,-0.21412037,0,0,0,,0,359,359,465,1
,,,,,,,,,,,,,,,,,,5f2e48f9498e160008a60d2d,2020-11-25_18h53.06.097,lexical_decision_task_MP_exp2,2020.2.5,Win32,60,m,1,0.556,,,,,,,,0.556,1,,,,,,37,WORD,UN,16,powder,INSULT,m,,,,,,0.542824074,-0.21412037,0,0,0,,0,360,360,216,1
,,,,,,,,,,,,,,,,,,5f2e48f9498e160008a60d2d,2020-11-25_18h53.06.097,lexical_decision_task_MP_exp2,2020.2.5,Win32,60,z,1,1.615,,,,,,,,1.615,1,,,,,,449,NW,UN,33,phrect,BRUNGE,z,,,,,,0.542824074,-0.21412037,0,0,0,,0,361,361,388,1
,,,,,,,,,,,,,,,,,,5f2e48f9498e160008a60d2d,2020-11-25_18h53.06.097,lexical_decision_task_MP_exp2,2020.2.5,Win32,60,m,1,0.852,,,,,,,,0.852,1,,,,,,237,WORD,UN,33,glance,POSTER,m,,,,,,0.542824074,-0.21412037,0,0,0,,0,362,362,176,1
,,,,,,,,,,,,,,,,,,5f2e48f9498e160008a60d2d,2020-11-25_18h53.06.097,lexical_decision_task_MP_exp2,2020.2.5,Win32,60,z,1,0.849,,,,,,,,0.849,1,,,,,,268,NW,UN,16,orchet,PACKES,z,,,,,,0.542824074,-0.21412037,0,0,0,,0,363,363,447,1
,,,,,,,,,,,,,,,,,,5f2e48f9498e160008a60d2d,2020-11-25_18h53.06.097,lexical_decision_task_MP_exp2,2020.2.5,Win32,60,z,1,0.916,,,,,,,,0.916,1,,,,,,275,NW,UN,16,yarmon,SLEIRT,z,,,,,,0.542824074,-0.21412037,0,0,0,,0,364,364,454,1
,,,,,,,,,,,,,,,,,,5f2e48f9498e160008a60d2d,2020-11-25_18h53.06.097,lexical_decision_task_MP_exp2,2020.2.5,Win32,60,m,1,0.788,,,,,,,,0.788,1,,,,,,134,WORD,"ID",16,staple,STAPLE,m,,,,,,0.542824074,-0.21412037,0,0,0,,0,365,365,73,1
,,,,,,,,,,,,,,,,,,5f2e48f9498e160008a60d2d,2020-11-25_18h53.06.097,lexical_decision_task_MP_exp2,2020.2.5,Win32,60,z,1,0.782,,,,,,,,0.782,1,,,,,,431,NW,UN,33,lunker,CHRUMS,z,,,,,,0.542824074,-0.21412037,0,0,0,,0,366,366,370,1
,,,,,,,,,,,,,,,,,,5f2e48f9498e160008a60d2d,2020-11-25_18h53.06.097,lexical_decision_task_MP_exp2,2020.2.5,Win32,60,z,1,1.083,,,,,,,,1.083,1,,,,,,242,NW,UN,16,musied,UNWERT,z,,,,,,0.542824074,-0.21412037,0,0,0,,0,367,367,421,1
,,,,,,,,,,,,,,,,,,5f2e48f9498e160008a60d2d,2020-11-25_18h53.06.097,lexical_decision_task_MP_exp2,2020.2.5,Win32,60,z,1,0.615,,,,,,,,0.615,1,,,,,,336,NW,"ID",33,ghodus,GHODUS,z,,,,,,0.542824074,-0.21412037,0,0,0,,0,368,368,275,1
,,,,,,,,,,,,,,,,,,5f2e48f9498e160008a60d2d,2020-11-25_18h53.06.097,lexical_decision_task_MP_exp2,2020.2.5,Win32,60,z,1,0.534,,,,,,,,0.534,1,,,,,,394,NW,"ID",16,spaqux,SPAQUX,z,,,,,,0.542824074,-0.21412037,0,0,0,,0,369,369,333,1
,,,,,,,,,,,,,,,,,,5f2e48f9498e160008a60d2d,2020-11-25_18h53.06.097,lexical_decision_task_MP_exp2,2020.2.5,Win32,60,m,1,0.565,,,,,,,,0.565,1,,,,,,28,WORD,UN,16,sketch,COMEDY,m,,,,,,0.542824074,-0.21412037,0,0,0,,0,370,370,207,1
,,,,,,,,,,,,,,,,,,5f2e48f9498e160008a60d2d,2020-11-25_18h53.06.097,lexical_decision_task_MP_exp2,2020.2.5,Win32,60,m,1,1.432,,,,,,,,1.432,1,,,,,,55,WORD,UN,16,ambush,STROKE,m,,,,,,0.542824074,-0.21412037,0,0,0,,0,371,371,234,1
,,,,,,,,,,,,,,,,,,5f2e48f9498e160008a60d2d,2020-11-25_18h53.06.097,lexical_decision_task_MP_exp2,2020.2.5,Win32,60,m,1,0.52,,,,,,,,0.52,1,,,,,,88,WORD,"ID",33,hunger,HUNGER,m,,,,,,0.542824074,-0.21412037,0,0,0,,0,372,372,27,1
,,,,,,,,,,,,,,,,,,5f2e48f9498e160008a60d2d,2020-11-25_18h53.06.097,lexical_decision_task_MP_exp2,2020.2.5,Win32,60,m,1,0.799,,,,,,,,0.799,1,,,,,,170,WORD,"ID",16,pounce,POUNCE,m,,,,,,0.542824074,-0.21412037,0,0,0,,0,373,373,109,1
,,,,,,,,,,,,,,,,,,5f2e48f9498e160008a60d2d,2020-11-25_18h53.06.097,lexical_decision_task_MP_exp2,2020.2.5,Win32,60,z,1,1.049,,,,,,,,1.049,1,,,,,,328,NW,"ID",33,broake,BROAKE,z,,,,,,0.542824074,-0.21412037,0,0,0,,0,374,374,267,1
,,,,,,,,,,,,,,,,,,5f2e48f9498e160008a60d2d,2020-11-25_18h53.06.097,lexical_decision_task_MP_exp2,2020.2.5,Win32,60,m,1,0.602,,,,,,,,0.602,1,,,,,,209,WORD,UN,33,monkey,SEARCH,m,,,,,,0.542824074,-0.21412037,0,0,0,,0,375,375,148,1
,,,,,,,,,,,,,,,,,,5f2e48f9498e160008a60d2d,2020-11-25_18h53.06.097,lexical_decision_task_MP_exp2,2020.2.5,Win32,60,m,1,0.741,,,,,,,,0.741,1,,,,,,164,WORD,"ID",16,market,MARKET,m,,,,,,0.542824074,-0.21412037,0,0,0,,0,376,376,103,1
,,,,,,,,,,,,,,,,,,5f2e48f9498e160008a60d2d,2020-11-25_18h53.06.097,lexical_decision_task_MP_exp2,2020.2.5,Win32,60,m,1,0.771,,,,,,,,0.771,1,,,,,,152,WORD,"ID",16,rocket,ROCKET,m,,,,,,0.542824074,-0.21412037,0,0,0,,0,377,377,91,1
,,,,,,,,,,,,,,,,,,5f2e48f9498e160008a60d2d,2020-11-25_18h53.06.097,lexical_decision_task_MP_exp2,2020.2.5,Win32,60,m,0,0.682,,,,,,,,0.682,0,,,,,,402,NW,"ID",16,syntic,SYNTIC,z,,,,,,0.542824074,-0.21412037,0,0,0,,0,378,378,341,1
,,,,,,,,,,,,,,,,,,5f2e48f9498e160008a60d2d,2020-11-25_18h53.06.097,lexical_decision_task_MP_exp2,2020.2.5,Win32,60,m,1,0.687,,,,,,,,0.687,1,,,,,,141,WORD,"ID",16,orphan,ORPHAN,m,,,,,,0.542824074,-0.21412037,0,0,0,,0,379,379,80,1
,,,,,,,,,,,,,,,,,,5f2e48f9498e160008a60d2d,2020-11-25_18h53.06.097,lexical_decision_task_MP_exp2,2020.2.5,Win32,60,z,1,0.686,,,,,,,,0.686,1,,,,,,243,NW,UN,16,eatric,MUSIED,z,,,,,,0.542824074,-0.21412037,0,0,0,,0,380,380,422,1
,,,,,,,,,,,,,,,,,,5f2e48f9498e160008a60d2d,2020-11-25_18h53.06.097,lexical_decision_task_MP_exp2,2020.2.5,Win32,60,m,1,0.632,,,,,,,,0.632,1,,,,,,196,WORD,UN,33,stream,CREDIT,m,,,,,,0.542824074,-0.21412037,0,0,0,,0,381,381,135,1
,,,,,,,,,,,,,,,,,,5f2e48f9498e160008a60d2d,2020-11-25_18h53.06.097,lexical_decision_task_MP_exp2,2020.2.5,Win32,60,m,1,0.699,,,,,,,,0.699,1,,,,,,7,WORD,UN,16,abrupt,ANCHOR,m,,,,,,0.542824074,-0.21412037,0,0,0,,0,382,382,186,1
,,,,,,,,,,,,,,,,,,5f2e48f9498e160008a60d2d,2020-11-25_18h53.06.097,lexical_decision_task_MP_exp2,2020.2.5,Win32,60,z,1,0.87,,,,,,,,0.87,1,,,,,,453,NW,UN,33,scouge,BOLVIS,z,,,,,,0.542824074,-0.21412037,0,0,0,,0,383,383,392,1
,,,,,,,,,,,,,,,,,,5f2e48f9498e160008a60d2d,2020-11-25_18h53.06.097,lexical_decision_task_MP_exp2,2020.2.5,Win32,60,z,1,1.007,,,,,,,,1.007,1,,,,,,433,NW,UN,33,pitrom,DRANCE,z,,,,,,0.542824074,-0.21412037,0,0,0,,0,384,384,372,1
,,,,,,,,,,,,,,,,,,5f2e48f9498e160008a60d2d,2020-11-25_18h53.06.097,lexical_decision_task_MP_exp2,2020.2.5,Win32,60,z,1,1.057,,,,,,,,1.057,1,,,,,,352,NW,"ID",33,tringe,TRINGE,z,,,,,,0.542824074,-0.21412037,0,0,0,,0,385,385,291,1
,,,,,,,,,,,,,,,,,,5f2e48f9498e160008a60d2d,2020-11-25_18h53.06.097,lexical_decision_task_MP_exp2,2020.2.5,Win32,60,z,1,0.618,,,,,,,,0.618,1,,,,,,306,NW,"ID",33,sounge,SOUNGE,z,,,,,,0.542824074,-0.21412037,0,0,0,,0,386,386,245,1
,,,,,,,,,,,,,,,,,,5f2e48f9498e160008a60d2d,2020-11-25_18h53.06.097,lexical_decision_task_MP_exp2,2020.2.5,Win32,60,z,1,1.452,,,,,,,,1.452,1,,,,,,277,NW,UN,16,unighs,PETAIN,z,,,,,,0.542824074,-0.21412037,0,0,0,,0,387,387,456,1
,,,,,,,,,,,,,,,,,,5f2e48f9498e160008a60d2d,2020-11-25_18h53.06.097,lexical_decision_task_MP_exp2,2020.2.5,Win32,60,z,1,0.669,,,,,,,,0.669,1,,,,,,252,NW,UN,16,resait,STAPOD,z,,,,,,0.542824074,-0.21412037,0,0,0,,0,388,388,431,1
,,,,,,,,,,,,,,,,,,5f2e48f9498e160008a60d2d,2020-11-25_18h53.06.097,lexical_decision_task_MP_exp2,2020.2.5,Win32,60,m,1,0.701,,,,,,,,0.701,1,,,,,,10,WORD,UN,16,cruise,ETHNIC,m,,,,,,0.542824074,-0.21412037,0,0,0,,0,389,389,189,1
,,,,,,,,,,,,,,,,,,5f2e48f9498e160008a60d2d,2020-11-25_18h53.06.097,lexical_decision_task_MP_exp2,2020.2.5,Win32,60,m,1,0.782,,,,,,,,0.782,1,,,,,,217,WORD,UN,33,shrink,LIQUOR,m,,,,,,0.542824074,-0.21412037,0,0,0,,0,390,390,156,1
,,,,,,,,,,,,,,,,,,5f2e48f9498e160008a60d2d,2020-11-25_18h53.06.097,lexical_decision_task_MP_exp2,2020.2.5,Win32,60,z,1,0.7,,,,,,,,0.7,1,,,,,,373,NW,"ID",16,bigent,BIGENT,z,,,,,,0.542824074,-0.21412037,0,0,0,,0,391,391,312,1
,,,,,,,,,,,,,,,,,,5f2e48f9498e160008a60d2d,2020-11-25_18h53.06.097,lexical_decision_task_MP_exp2,2020.2.5,Win32,60,m,1,0.535,,,,,,,,0.535,1,,,,,,188,WORD,UN,33,censor,SOCIAL,m,,,,,,0.542824074,-0.21412037,0,0,0,,0,392,392,127,1
,,,,,,,,,,,,,,,,,,5f2e48f9498e160008a60d2d,2020-11-25_18h53.06.097,lexical_decision_task_MP_exp2,2020.2.5,Win32,60,m,1,0.865,,,,,,,,0.865,1,,,,,,204,WORD,UN,33,lounge,BURDEN,m,,,,,,0.542824074,-0.21412037,0,0,0,,0,393,393,143,1
,,,,,,,,,,,,,,,,,,5f2e48f9498e160008a60d2d,2020-11-25_18h53.06.097,lexical_decision_task_MP_exp2,2020.2.5,Win32,60,z,1,0.616,,,,,,,,0.616,1,,,,,,302,NW,"ID",33,miluer,MILUER,z,,,,,,0.542824074,-0.21412037,0,0,0,,0,394,394,241,1
,,,,,,,,,,,,,,,,,,5f2e48f9498e160008a60d2d,2020-11-25_18h53.06.097,lexical_decision_task_MP_exp2,2020.2.5,Win32,60,m,1,0.616,,,,,,,,0.616,1,,,,,,103,WORD,"ID",33,bounce,BOUNCE,m,,,,,,0.542824074,-0.21412037,0,0,0,,0,395,395,42,1
,,,,,,,,,,,,,,,,,,5f2e48f9498e160008a60d2d,2020-11-25_18h53.06.097,lexical_decision_task_MP_exp2,2020.2.5,Win32,60,z,1,0.599,,,,,,,,0.599,1,,,,,,292,NW,UN,16,swance,ABLINT,z,,,,,,0.542824074,-0.21412037,0,0,0,,0,396,396,471,1
,,,,,,,,,,,,,,,,,,5f2e48f9498e160008a60d2d,2020-11-25_18h53.06.097,lexical_decision_task_MP_exp2,2020.2.5,Win32,60,z,1,0.649,,,,,,,,0.649,1,,,,,,451,NW,UN,33,surden,CAINKY,z,,,,,,0.542824074,-0.21412037,0,0,0,,0,397,397,390,1
,,,,,,,,,,,,,,,,,,5f2e48f9498e160008a60d2d,2020-11-25_18h53.06.097,lexical_decision_task_MP_exp2,2020.2.5,Win32,60,z,1,0.649,,,,,,,,0.649,1,,,,,,315,NW,"ID",33,laston,LASTON,z,,,,,,0.542824074,-0.21412037,0,0,0,,0,398,398,254,1
,,,,,,,,,,,,,,,,,,5f2e48f9498e160008a60d2d,2020-11-25_18h53.06.097,lexical_decision_task_MP_exp2,2020.2.5,Win32,60,z,1,0.636,,,,,,,,0.636,1,,,,,,350,NW,"ID",33,nagurs,NAGURS,z,,,,,,0.542824074,-0.21412037,0,0,0,,0,399,399,289,1
,,,,,,,,,,,,,,,,,,5f2e48f9498e160008a60d2d,2020-11-25_18h53.06.097,lexical_decision_task_MP_exp2,2020.2.5,Win32,60,m,1,0.604,,,,,,,,0.604,1,,,,,,21,WORD,UN,16,jockey,SIMPLE,m,,,,,,0.542824074,-0.21412037,0,0,0,,0,400,400,200,1
,,,,,,,,,,,,,,,,,,5f2e48f9498e160008a60d2d,2020-11-25_18h53.06.097,lexical_decision_task_MP_exp2,2020.2.5,Win32,60,z,1,0.584,,,,,,,,0.584,1,,,,,,383,NW,"ID",16,aungre,AUNGRE,z,,,,,,0.542824074,-0.21412037,0,0,0,,0,401,401,322,1
,,,,,,,,,,,,,,,,,,5f2e48f9498e160008a60d2d,2020-11-25_18h53.06.097,lexical_decision_task_MP_exp2,2020.2.5,Win32,60,m,1,0.57,,,,,,,,0.57,1,,,,,,186,WORD,UN,33,course,PORTAL,m,,,,,,0.542824074,-0.21412037,0,0,0,,0,402,402,125,1
,,,,,,,,,,,,,,,,,,5f2e48f9498e160008a60d2d,2020-11-25_18h53.06.097,lexical_decision_task_MP_exp2,2020.2.5,Win32,60,m,1,0.638,,,,,,,,0.638,1,,,,,,223,WORD,UN,33,period,KIDNEY,m,,,,,,0.542824074,-0.21412037,0,0,0,,0,403,403,162,1
,,,,,,,,,,,,,,,,,,5f2e48f9498e160008a60d2d,2020-11-25_18h53.06.097,lexical_decision_task_MP_exp2,2020.2.5,Win32,60,m,1,0.799,,,,,,,,0.799,1,,,,,,5,WORD,UN,16,bundle,PLUNGE,m,,,,,,0.542824074,-0.21412037,0,0,0,,0,404,404,184,1
,,,,,,,,,,,,,,,,,,5f2e48f9498e160008a60d2d,2020-11-25_18h53.06.097,lexical_decision_task_MP_exp2,2020.2.5,Win32,60,z,1,0.851,,,,,,,,0.851,1,,,,,,293,NW,UN,16,inhort,SWANCE,z,,,,,,0.542824074,-0.21412037,0,0,0,,0,405,405,472,1
,,,,,,,,,,,,,,,,,,5f2e48f9498e160008a60d2d,2020-11-25_18h53.06.097,lexical_decision_task_MP_exp2,2020.2.5,Win32,60,z,1,0.636,,,,,,,,0.636,1,,,,,,423,NW,UN,33,praile,STRELD,z,,,,,,0.542824074,-0.21412037,0,0,0,,0,406,406,362,1
,,,,,,,,,,,,,,,,,,5f2e48f9498e160008a60d2d,2020-11-25_18h53.06.097,lexical_decision_task_MP_exp2,2020.2.5,Win32,60,z,1,0.885,,,,,,,,0.885,1,,,,,,348,NW,"ID",33,dumple,DUMPLE,z,,,,,,0.542824074,-0.21412037,0,0,0,,0,407,407,287,1
,,,,,,,,,,,,,,,,,,5f2e48f9498e160008a60d2d,2020-11-25_18h53.06.097,lexical_decision_task_MP_exp2,2020.2.5,Win32,60,m,1,0.757,,,,,,,,0.757,1,,,,,,131,WORD,"ID",16,quench,QUENCH,m,,,,,,0.542824074,-0.21412037,0,0,0,,0,408,408,70,1
