counterbalancing_condition,instr_done_keyboard.keys,instr_done_touch.x,instr_done_touch.y,instr_done_touch.leftButton,instr_done_touch.midButton,instr_done_touch.rightButton,instr_done_touch.clicked_name,instruction_pages.thisRepN,instruction_pages.thisTrialN,instruction_pages.thisN,instruction_pages.thisIndex,instruction_pages.ran,pageN,phase,instruct_text,has_image,instruct_image,participant,date,expName,psychopyVersion,OS,frameRate,response.keys,response.corr,response.rt,touch_resp.x,touch_resp.y,touch_resp.leftButton,touch_resp.midButton,touch_resp.rightButton,touch_resp.time,touch_resp.clicked_name,rt,corr,practice_trials.thisRepN,practice_trials.thisTrialN,practice_trials.thisN,practice_trials.thisIndex,practice_trials.ran,TrialID,StimulusType,Condition,PrimeDuration,Prime,Target,corrAns,end_of_practice_trials_pages.thisRepN,end_of_practice_trials_pages.thisTrialN,end_of_practice_trials_pages.thisN,end_of_practice_trials_pages.thisIndex,end_of_practice_trials_pages.ran,break_done_touch.x,break_done_touch.y,break_done_touch.leftButton,break_done_touch.midButton,break_done_touch.rightButton,break_done_keyboard.keys,experiment_trials.thisRepN,experiment_trials.thisTrialN,experiment_trials.thisN,experiment_trials.thisIndex,experiment_trials.ran,break_done_touch.clicked_name
1,,0.098958333,-0.395833333,1,0,0,instr_done_button,0,0,0,0,1,1,instructions,"INSTRUCTIONS
At the start of each trial, look at the hash marks (######) in the center of the screen. After a moment, a string of letters will appear. Your task is to indicate if the letter string forms a word or not (i.e., if it is a nonword). For example, AUTHOR is a word while AUTHON is a nonword.

Press the space bar or touch the button below to continue.",0,,5f350486d0c0764216b6745e,2020-11-26_15h58.42.136,lexical_decision_task_MP_exp2,2020.2.5,Win32,60,,,,,,,,,,,,,,,,,,,,,,,,,,,,,,,,,,,,,,,,,
,,0.014322917,-0.407552083,1,0,0,instr_done_button,0,1,1,1,1,2,instructions,"If your device has a keyboard, press the 'Z' key for nonwords and the 'M' key for words.





Press the space bar or touch the button below to continue.",1,keyboard-example.gif,5f350486d0c0764216b6745e,2020-11-26_15h58.42.136,lexical_decision_task_MP_exp2,2020.2.5,Win32,60,,,,,,,,,,,,,,,,,,,,,,,,,,,,,,,,,,,,,,,,,
,,0.014322917,-0.407552083,1,0,0,instr_done_button,0,2,2,2,1,3,instructions,"If you are using a touchscreen only device, use the buttons on the screen. Do not use the mouse.





Press the space bar or touch the button below to continue.",1,touchscreen-example.gif,5f350486d0c0764216b6745e,2020-11-26_15h58.42.136,lexical_decision_task_MP_exp2,2020.2.5,Win32,60,,,,,,,,,,,,,,,,,,,,,,,,,,,,,,,,,,,,,,,,,
,,0.014322917,-0.407552083,1,0,0,instr_done_button,0,3,3,3,1,4,instructions,"It is very important that you respond as quickly and accurately as possible, as each letter string will only be on the screen for two seconds. If you do not respond within this time, the message 'Too slow!' will be displayed and the experiment will progress to the next letter string. The first 20 trials will be practice trials and you will receive feedback on your answers. 

Press the space bar or touch the button below to start the practice trials.",0,,5f350486d0c0764216b6745e,2020-11-26_15h58.42.136,lexical_decision_task_MP_exp2,2020.2.5,Win32,60,,,,,,,,,,,,,,,,,,,,,,,,,,,,,,,,,,,,,,,,,
,,,,,,,,,,,,,,,,,,5f350486d0c0764216b6745e,2020-11-26_15h58.42.136,lexical_decision_task_MP_exp2,2020.2.5,Win32,60,m,1,1.270185,,,,,,,,1.270185,1,0,0,0,4,1,1005,WORD,UN,33,abound,SQUEAK,m,,,,,,,,,,,,,,,,,
,,,,,,,,,,,,,,,,,,5f350486d0c0764216b6745e,2020-11-26_15h58.42.136,lexical_decision_task_MP_exp2,2020.2.5,Win32,60,z,1,0.71377,,,,,,,,0.71377,1,0,1,1,15,1,1016,NW,UN,16,mushed,WHAISE,z,,,,,,,,,,,,,,,,,
,,,,,,,,,,,,,,,,,,5f350486d0c0764216b6745e,2020-11-26_15h58.42.136,lexical_decision_task_MP_exp2,2020.2.5,Win32,60,z,1,0.71594,,,,,,,,0.71594,1,0,2,2,14,1,1015,NW,UN,16,miaber,THRALE,z,,,,,,,,,,,,,,,,,
,,,,,,,,,,,,,,,,,,5f350486d0c0764216b6745e,2020-11-26_15h58.42.136,lexical_decision_task_MP_exp2,2020.2.5,Win32,60,m,0,0.89471,,,,,,,,0.89471,0,0,3,3,11,1,1012,NW,"ID",16,rashet,RASHET,z,,,,,,,,,,,,,,,,,
,,,,,,,,,,,,,,,,,,5f350486d0c0764216b6745e,2020-11-26_15h58.42.136,lexical_decision_task_MP_exp2,2020.2.5,Win32,60,m,1,0.646385,,,,,,,,0.646385,1,0,4,4,3,1,1004,WORD,"ID",16,matrix,MATRIX,m,,,,,,,,,,,,,,,,,
,,,,,,,,,,,,,,,,,,5f350486d0c0764216b6745e,2020-11-26_15h58.42.136,lexical_decision_task_MP_exp2,2020.2.5,Win32,60,m,1,0.63068,,,,,,,,0.63068,1,0,5,5,2,1,1003,WORD,"ID",16,almond,ALMOND,m,,,,,,,,,,,,,,,,,
,,,,,,,,,,,,,,,,,,5f350486d0c0764216b6745e,2020-11-26_15h58.42.136,lexical_decision_task_MP_exp2,2020.2.5,Win32,60,m,1,0.61407,,,,,,,,0.61407,1,0,6,6,6,1,1007,WORD,UN,16,tropic,ZOMBIE,m,,,,,,,,,,,,,,,,,
,,,,,,,,,,,,,,,,,,5f350486d0c0764216b6745e,2020-11-26_15h58.42.136,lexical_decision_task_MP_exp2,2020.2.5,Win32,60,m,0,0.89739,,,,,,,,0.89739,0,0,7,7,9,1,1010,NW,"ID",33,fariny,FARINY,z,,,,,,,,,,,,,,,,,
,,,,,,,,,,,,,,,,,,5f350486d0c0764216b6745e,2020-11-26_15h58.42.136,lexical_decision_task_MP_exp2,2020.2.5,Win32,60,m,1,0.697575,,,,,,,,0.697575,1,0,8,8,1,1,1002,WORD,"ID",33,adjust,ADJUST,m,,,,,,,,,,,,,,,,,
,,,,,,,,,,,,,,,,,,5f350486d0c0764216b6745e,2020-11-26_15h58.42.136,lexical_decision_task_MP_exp2,2020.2.5,Win32,60,z,1,0.67773,,,,,,,,0.67773,1,0,9,9,12,1,1013,NW,UN,33,adveil,SPRINY,z,,,,,,,,,,,,,,,,,
,,,,,,,,,,,,,,,,,,5f350486d0c0764216b6745e,2020-11-26_15h58.42.136,lexical_decision_task_MP_exp2,2020.2.5,Win32,60,z,1,0.630855,,,,,,,,0.630855,1,0,10,10,13,1,1014,NW,UN,33,winfer,ROUPET,z,,,,,,,,,,,,,,,,,
,,,,,,,,,,,,,,,,,,5f350486d0c0764216b6745e,2020-11-26_15h58.42.136,lexical_decision_task_MP_exp2,2020.2.5,Win32,60,z,1,0.86417,,,,,,,,0.86417,1,0,11,11,8,1,1009,NW,"ID",33,aslert,ASLERT,z,,,,,,,,,,,,,,,,,
,,,,,,,,,,,,,,,,,,5f350486d0c0764216b6745e,2020-11-26_15h58.42.136,lexical_decision_task_MP_exp2,2020.2.5,Win32,60,z,1,0.664035,,,,,,,,0.664035,1,0,12,12,10,1,1011,NW,"ID",16,inlade,INLADE,z,,,,,,,,,,,,,,,,,
,,,,,,,,,,,,,,,,,,5f350486d0c0764216b6745e,2020-11-26_15h58.42.136,lexical_decision_task_MP_exp2,2020.2.5,Win32,60,m,1,0.62573,,,,,,,,0.62573,1,0,13,13,0,1,1001,WORD,"ID",33,utopia,UTOPIA,m,,,,,,,,,,,,,,,,,
,,,,,,,,,,,,,,,,,,5f350486d0c0764216b6745e,2020-11-26_15h58.42.136,lexical_decision_task_MP_exp2,2020.2.5,Win32,60,m,1,0.59523,,,,,,,,0.59523,1,0,14,14,7,1,1008,WORD,UN,16,hurdle,VOLUME,m,,,,,,,,,,,,,,,,,
,,,,,,,,,,,,,,,,,,5f350486d0c0764216b6745e,2020-11-26_15h58.42.136,lexical_decision_task_MP_exp2,2020.2.5,Win32,60,m,1,0.64665,,,,,,,,0.64665,1,0,15,15,5,1,1006,WORD,UN,33,frenzy,OBTAIN,m,,,,,,,,,,,,,,,,,
,,0.126302083,-0.41796875,1,0,0,instr_done_button,,,,,,1,end_of_practice,"You have completed the practice trials. During the experimental trials, you will not receive feedback, but it is very important that you respond as quickly and accurately as possible. 
Before you begin, please ensure that you are in a comfortable and quiet location and will not be disturbed for about 15 minutes, as we cannot use your data if you do not complete all the trials. 
There will be opportunities to take breaks at regular intervals during the experiment. When you are ready to start the experimental trials, please press space or touch the button below.",,,5f350486d0c0764216b6745e,2020-11-26_15h58.42.136,lexical_decision_task_MP_exp2,2020.2.5,Win32,60,,,,,,,,,,,,,,,,,,,,,,,,,0,0,0,0,1,,,,,,,,,,,,
,,,,,,,,,,,,,,,,,,5f350486d0c0764216b6745e,2020-11-26_15h58.42.136,lexical_decision_task_MP_exp2,2020.2.5,Win32,60,z,1,0.679825,,,,,,,,0.679825,1,,,,,,329,NW,"ID",16,yarike,YARIKE,z,,,,,,0.126302083,-0.41796875,0,0,0,,0,0,0,328,1,
,,,,,,,,,,,,,,,,,,5f350486d0c0764216b6745e,2020-11-26_15h58.42.136,lexical_decision_task_MP_exp2,2020.2.5,Win32,60,z,1,0.71741,,,,,,,,0.71741,1,,,,,,285,NW,"ID",33,prudge,PRUDGE,z,,,,,,0.126302083,-0.41796875,0,0,0,,0,1,1,284,1,
,,,,,,,,,,,,,,,,,,5f350486d0c0764216b6745e,2020-11-26_15h58.42.136,lexical_decision_task_MP_exp2,2020.2.5,Win32,60,z,1,0.964835,,,,,,,,0.964835,1,,,,,,250,NW,"ID",33,milted,MILTED,z,,,,,,0.126302083,-0.41796875,0,0,0,,0,2,2,249,1,
,,,,,,,,,,,,,,,,,,5f350486d0c0764216b6745e,2020-11-26_15h58.42.136,lexical_decision_task_MP_exp2,2020.2.5,Win32,60,z,1,0.717185,,,,,,,,0.717185,1,,,,,,370,NW,UN,33,geiloy,SLEACT,z,,,,,,0.126302083,-0.41796875,0,0,0,,0,3,3,369,1,
,,,,,,,,,,,,,,,,,,5f350486d0c0764216b6745e,2020-11-26_15h58.42.136,lexical_decision_task_MP_exp2,2020.2.5,Win32,60,m,1,0.607965,,,,,,,,0.607965,1,,,,,,202,WORD,UN,16,phrase,FACTOR,m,,,,,,0.126302083,-0.41796875,0,0,0,,0,4,4,201,1,
,,,,,,,,,,,,,,,,,,5f350486d0c0764216b6745e,2020-11-26_15h58.42.136,lexical_decision_task_MP_exp2,2020.2.5,Win32,60,z,1,0.723635,,,,,,,,0.723635,1,,,,,,444,NW,UN,16,minkel,JAUNCE,z,,,,,,0.126302083,-0.41796875,0,0,0,,0,5,5,443,1,
,,,,,,,,,,,,,,,,,,5f350486d0c0764216b6745e,2020-11-26_15h58.42.136,lexical_decision_task_MP_exp2,2020.2.5,Win32,60,m,1,0.67063,,,,,,,,0.67063,1,,,,,,237,WORD,UN,16,seldom,POSTER,m,,,,,,0.126302083,-0.41796875,0,0,0,,0,6,6,236,1,
,,,,,,,,,,,,,,,,,,5f350486d0c0764216b6745e,2020-11-26_15h58.42.136,lexical_decision_task_MP_exp2,2020.2.5,Win32,60,m,1,0.7261,,,,,,,,0.7261,1,,,,,,216,WORD,UN,16,liquor,BEHALF,m,,,,,,0.126302083,-0.41796875,0,0,0,,0,7,7,215,1,
,,,,,,,,,,,,,,,,,,5f350486d0c0764216b6745e,2020-11-26_15h58.42.136,lexical_decision_task_MP_exp2,2020.2.5,Win32,60,z,1,0.83247,,,,,,,,0.83247,1,,,,,,276,NW,"ID",33,yarmon,YARMON,z,,,,,,0.126302083,-0.41796875,0,0,0,,0,8,8,275,1,
,,,,,,,,,,,,,,,,,,5f350486d0c0764216b6745e,2020-11-26_15h58.42.136,lexical_decision_task_MP_exp2,2020.2.5,Win32,60,m,1,0.619265,,,,,,,,0.619265,1,,,,,,109,WORD,"ID",16,wonder,WONDER,m,,,,,,0.126302083,-0.41796875,0,0,0,,0,9,9,108,1,
,,,,,,,,,,,,,,,,,,5f350486d0c0764216b6745e,2020-11-26_15h58.42.136,lexical_decision_task_MP_exp2,2020.2.5,Win32,60,m,1,0.742475,,,,,,,,0.742475,1,,,,,,13,WORD,"ID",33,strive,STRIVE,m,,,,,,0.126302083,-0.41796875,0,0,0,,0,10,10,12,1,
,,,,,,,,,,,,,,,,,,5f350486d0c0764216b6745e,2020-11-26_15h58.42.136,lexical_decision_task_MP_exp2,2020.2.5,Win32,60,m,1,0.703285,,,,,,,,0.703285,1,,,,,,212,WORD,UN,16,squeal,VERIFY,m,,,,,,0.126302083,-0.41796875,0,0,0,,0,11,11,211,1,
,,,,,,,,,,,,,,,,,,5f350486d0c0764216b6745e,2020-11-26_15h58.42.136,lexical_decision_task_MP_exp2,2020.2.5,Win32,60,z,1,0.732025,,,,,,,,0.732025,1,,,,,,442,NW,UN,16,dorsex,ABOUNE,z,,,,,,0.126302083,-0.41796875,0,0,0,,0,12,12,441,1,
,,,,,,,,,,,,,,,,,,5f350486d0c0764216b6745e,2020-11-26_15h58.42.136,lexical_decision_task_MP_exp2,2020.2.5,Win32,60,m,1,0.6484,,,,,,,,0.6484,1,,,,,,232,WORD,UN,16,nature,INJECT,m,,,,,,0.126302083,-0.41796875,0,0,0,,0,13,13,231,1,
,,,,,,,,,,,,,,,,,,5f350486d0c0764216b6745e,2020-11-26_15h58.42.136,lexical_decision_task_MP_exp2,2020.2.5,Win32,60,z,1,0.591775,,,,,,,,0.591775,1,,,,,,478,NW,UN,16,lobush,ACRISE,z,,,,,,0.126302083,-0.41796875,0,0,0,,0,14,14,477,1,
,,,,,,,,,,,,,,,,,,5f350486d0c0764216b6745e,2020-11-26_15h58.42.136,lexical_decision_task_MP_exp2,2020.2.5,Win32,60,z,1,0.685165,,,,,,,,0.685165,1,,,,,,314,NW,"ID",16,sprine,SPRINE,z,,,,,,0.126302083,-0.41796875,0,0,0,,0,15,15,313,1,
,,,,,,,,,,,,,,,,,,5f350486d0c0764216b6745e,2020-11-26_15h58.42.136,lexical_decision_task_MP_exp2,2020.2.5,Win32,60,z,1,0.642055,,,,,,,,0.642055,1,,,,,,257,NW,"ID",33,veniod,VENIOD,z,,,,,,0.126302083,-0.41796875,0,0,0,,0,16,16,256,1,
,,,,,,,,,,,,,,,,,,5f350486d0c0764216b6745e,2020-11-26_15h58.42.136,lexical_decision_task_MP_exp2,2020.2.5,Win32,60,m,1,0.60122,,,,,,,,0.60122,1,,,,,,97,WORD,"ID",16,client,CLIENT,m,,,,,,0.126302083,-0.41796875,0,0,0,,0,17,17,96,1,
,,,,,,,,,,,,,,,,,,5f350486d0c0764216b6745e,2020-11-26_15h58.42.136,lexical_decision_task_MP_exp2,2020.2.5,Win32,60,z,1,0.71157,,,,,,,,0.71157,1,,,,,,418,NW,UN,33,slount,SUIDLE,z,,,,,,0.126302083,-0.41796875,0,0,0,,0,18,18,417,1,
,,,,,,,,,,,,,,,,,,5f350486d0c0764216b6745e,2020-11-26_15h58.42.136,lexical_decision_task_MP_exp2,2020.2.5,Win32,60,z,1,0.682225,,,,,,,,0.682225,1,,,,,,412,NW,UN,33,equats,JILUER,z,,,,,,0.126302083,-0.41796875,0,0,0,,0,19,19,411,1,
,,,,,,,,,,,,,,,,,,5f350486d0c0764216b6745e,2020-11-26_15h58.42.136,lexical_decision_task_MP_exp2,2020.2.5,Win32,60,z,1,0.665485,,,,,,,,0.665485,1,,,,,,378,NW,UN,33,auting,SHRILE,z,,,,,,0.126302083,-0.41796875,0,0,0,,0,20,20,377,1,
,,,,,,,,,,,,,,,,,,5f350486d0c0764216b6745e,2020-11-26_15h58.42.136,lexical_decision_task_MP_exp2,2020.2.5,Win32,60,z,1,0.62689,,,,,,,,0.62689,1,,,,,,363,NW,UN,33,impote,BREALI,z,,,,,,0.126302083,-0.41796875,0,0,0,,0,21,21,362,1,
,,,,,,,,,,,,,,,,,,5f350486d0c0764216b6745e,2020-11-26_15h58.42.136,lexical_decision_task_MP_exp2,2020.2.5,Win32,60,m,1,0.55405,,,,,,,,0.55405,1,,,,,,3,WORD,"ID",33,knight,KNIGHT,m,,,,,,0.126302083,-0.41796875,0,0,0,,0,22,22,2,1,
,,,,,,,,,,,,,,,,,,5f350486d0c0764216b6745e,2020-11-26_15h58.42.136,lexical_decision_task_MP_exp2,2020.2.5,Win32,60,m,1,0.61975,,,,,,,,0.61975,1,,,,,,139,WORD,UN,33,prince,DEBRIS,m,,,,,,0.126302083,-0.41796875,0,0,0,,0,23,23,138,1,
,,,,,,,,,,,,,,,,,,5f350486d0c0764216b6745e,2020-11-26_15h58.42.136,lexical_decision_task_MP_exp2,2020.2.5,Win32,60,z,1,0.60527,,,,,,,,0.60527,1,,,,,,315,NW,"ID",16,laston,LASTON,z,,,,,,0.126302083,-0.41796875,0,0,0,,0,24,24,314,1,
,,,,,,,,,,,,,,,,,,5f350486d0c0764216b6745e,2020-11-26_15h58.42.136,lexical_decision_task_MP_exp2,2020.2.5,Win32,60,m,1,0.598445,,,,,,,,0.598445,1,,,,,,214,WORD,UN,16,phobia,INTAKE,m,,,,,,0.126302083,-0.41796875,0,0,0,,0,25,25,213,1,
,,,,,,,,,,,,,,,,,,5f350486d0c0764216b6745e,2020-11-26_15h58.42.136,lexical_decision_task_MP_exp2,2020.2.5,Win32,60,z,1,0.536605,,,,,,,,0.536605,1,,,,,,290,NW,"ID",33,splino,SPLINO,z,,,,,,0.126302083,-0.41796875,0,0,0,,0,26,26,289,1,
,,,,,,,,,,,,,,,,,,5f350486d0c0764216b6745e,2020-11-26_15h58.42.136,lexical_decision_task_MP_exp2,2020.2.5,Win32,60,m,1,0.746865,,,,,,,,0.746865,1,,,,,,24,WORD,"ID",33,praise,PRAISE,m,,,,,,0.126302083,-0.41796875,0,0,0,,0,27,27,23,1,
,,,,,,,,,,,,,,,,,,5f350486d0c0764216b6745e,2020-11-26_15h58.42.136,lexical_decision_task_MP_exp2,2020.2.5,Win32,60,m,1,0.575445,,,,,,,,0.575445,1,,,,,,152,WORD,UN,33,behold,ROCKET,m,,,,,,0.126302083,-0.41796875,0,0,0,,0,28,28,151,1,
,,,,,,,,,,,,,,,,,,5f350486d0c0764216b6745e,2020-11-26_15h58.42.136,lexical_decision_task_MP_exp2,2020.2.5,Win32,60,z,1,0.606045,,,,,,,,0.606045,1,,,,,,383,NW,UN,33,guesco,AUNGRE,z,,,,,,0.126302083,-0.41796875,0,0,0,,0,29,29,382,1,
,,,,,,,,,,,,,,,,,,5f350486d0c0764216b6745e,2020-11-26_15h58.42.136,lexical_decision_task_MP_exp2,2020.2.5,Win32,60,z,1,0.64832,,,,,,,,0.64832,1,,,,,,452,NW,UN,16,bolvis,SURDEN,z,,,,,,0.126302083,-0.41796875,0,0,0,,0,30,30,451,1,
,,,,,,,,,,,,,,,,,,5f350486d0c0764216b6745e,2020-11-26_15h58.42.136,lexical_decision_task_MP_exp2,2020.2.5,Win32,60,z,1,0.70085,,,,,,,,0.70085,1,,,,,,246,NW,"ID",33,piaton,PIATON,z,,,,,,0.126302083,-0.41796875,0,0,0,,0,31,31,245,1,
,,,,,,,,,,,,,,,,,,5f350486d0c0764216b6745e,2020-11-26_15h58.42.136,lexical_decision_task_MP_exp2,2020.2.5,Win32,60,z,1,0.648695,,,,,,,,0.648695,1,,,,,,275,NW,"ID",33,sleirt,SLEIRT,z,,,,,,0.126302083,-0.41796875,0,0,0,,0,32,32,274,1,
,,,,,,,,,,,,,,,,,,5f350486d0c0764216b6745e,2020-11-26_15h58.42.136,lexical_decision_task_MP_exp2,2020.2.5,Win32,60,z,1,0.63164,,,,,,,,0.63164,1,,,,,,455,NW,UN,16,broget,TONDLE,z,,,,,,0.126302083,-0.41796875,0,0,0,,0,33,33,454,1,
,,,,,,,,,,,,,,,,,,5f350486d0c0764216b6745e,2020-11-26_15h58.42.136,lexical_decision_task_MP_exp2,2020.2.5,Win32,60,m,1,0.55929,,,,,,,,0.55929,1,,,,,,207,WORD,UN,16,hockey,WREATH,m,,,,,,0.126302083,-0.41796875,0,0,0,,0,34,34,206,1,
,,,,,,,,,,,,,,,,,,5f350486d0c0764216b6745e,2020-11-26_15h58.42.136,lexical_decision_task_MP_exp2,2020.2.5,Win32,60,z,1,0.633515,,,,,,,,0.633515,1,,,,,,258,NW,"ID",33,poluth,POLUTH,z,,,,,,0.126302083,-0.41796875,0,0,0,,0,35,35,257,1,
,,,,,,,,,,,,,,,,,,5f350486d0c0764216b6745e,2020-11-26_15h58.42.136,lexical_decision_task_MP_exp2,2020.2.5,Win32,60,z,1,0.62502,,,,,,,,0.62502,1,,,,,,429,NW,UN,16,caroey,FUNTLE,z,,,,,,0.126302083,-0.41796875,0,0,0,,0,36,36,428,1,
,,,,,,,,,,,,,,,,,,5f350486d0c0764216b6745e,2020-11-26_15h58.42.136,lexical_decision_task_MP_exp2,2020.2.5,Win32,60,z,1,0.63109,,,,,,,,0.63109,1,,,,,,420,NW,UN,33,pauche,GUSHOP,z,,,,,,0.126302083,-0.41796875,0,0,0,,0,37,37,419,1,
,,,,,,,,,,,,,,,,,,5f350486d0c0764216b6745e,2020-11-26_15h58.42.136,lexical_decision_task_MP_exp2,2020.2.5,Win32,60,z,1,0.600555,,,,,,,,0.600555,1,,,,,,245,NW,"ID",33,anougs,ANOUGS,z,,,,,,0.126302083,-0.41796875,0,0,0,,0,38,38,244,1,
,,,,,,,,,,,,,,,,,,5f350486d0c0764216b6745e,2020-11-26_15h58.42.136,lexical_decision_task_MP_exp2,2020.2.5,Win32,60,z,1,0.659615,,,,,,,,0.659615,1,,,,,,271,NW,"ID",33,aubrid,AUBRID,z,,,,,,0.126302083,-0.41796875,0,0,0,,0,39,39,270,1,
,,,,,,,,,,,,,,,,,,5f350486d0c0764216b6745e,2020-11-26_15h58.42.136,lexical_decision_task_MP_exp2,2020.2.5,Win32,60,m,1,0.59665,,,,,,,,0.59665,1,,,,,,220,WORD,UN,16,mascot,VOYAGE,m,,,,,,0.126302083,-0.41796875,0,0,0,,0,40,40,219,1,
,,,,,,,,,,,,,,,,,,5f350486d0c0764216b6745e,2020-11-26_15h58.42.136,lexical_decision_task_MP_exp2,2020.2.5,Win32,60,m,1,0.57363,,,,,,,,0.57363,1,,,,,,95,WORD,"ID",16,thread,THREAD,m,,,,,,0.126302083,-0.41796875,0,0,0,,0,41,41,94,1,
,,,,,,,,,,,,,,,,,,5f350486d0c0764216b6745e,2020-11-26_15h58.42.136,lexical_decision_task_MP_exp2,2020.2.5,Win32,60,z,1,0.619865,,,,,,,,0.619865,1,,,,,,265,NW,"ID",33,distar,DISTAR,z,,,,,,0.126302083,-0.41796875,0,0,0,,0,42,42,264,1,
,,,,,,,,,,,,,,,,,,5f350486d0c0764216b6745e,2020-11-26_15h58.42.136,lexical_decision_task_MP_exp2,2020.2.5,Win32,60,z,1,0.603475,,,,,,,,0.603475,1,,,,,,430,NW,UN,16,funtle,CAROEY,z,,,,,,0.126302083,-0.41796875,0,0,0,,0,43,43,429,1,
,,,,,,,,,,,,,,,,,,5f350486d0c0764216b6745e,2020-11-26_15h58.42.136,lexical_decision_task_MP_exp2,2020.2.5,Win32,60,z,1,0.58239,,,,,,,,0.58239,1,,,,,,368,NW,UN,33,wronch,HORNAL,z,,,,,,0.126302083,-0.41796875,0,0,0,,0,44,44,367,1,
,,,,,,,,,,,,,,,,,,5f350486d0c0764216b6745e,2020-11-26_15h58.42.136,lexical_decision_task_MP_exp2,2020.2.5,Win32,60,z,1,0.547715,,,,,,,,0.547715,1,,,,,,256,NW,"ID",33,inlors,INLORS,z,,,,,,0.126302083,-0.41796875,0,0,0,,0,45,45,255,1,
,,,,,,,,,,,,,,,,,,5f350486d0c0764216b6745e,2020-11-26_15h58.42.136,lexical_decision_task_MP_exp2,2020.2.5,Win32,60,z,1,0.521465,,,,,,,,0.521465,1,,,,,,476,NW,UN,16,photie,JOSTED,z,,,,,,0.126302083,-0.41796875,0,0,0,,0,46,46,475,1,
,,,,,,,,,,,,,,,,,,5f350486d0c0764216b6745e,2020-11-26_15h58.42.136,lexical_decision_task_MP_exp2,2020.2.5,Win32,60,z,1,0.582945,,,,,,,,0.582945,1,,,,,,323,NW,"ID",16,rosail,ROSAIL,z,,,,,,0.126302083,-0.41796875,0,0,0,,0,47,47,322,1,
,,,,,,,,,,,,,,,,,,5f350486d0c0764216b6745e,2020-11-26_15h58.42.136,lexical_decision_task_MP_exp2,2020.2.5,Win32,60,z,1,0.566845,,,,,,,,0.566845,1,,,,,,351,NW,"ID",16,tiesch,TIESCH,z,,,,,,0.126302083,-0.41796875,0,0,0,,0,48,48,350,1,
,,,,,,,,,,,,,,,,,,5f350486d0c0764216b6745e,2020-11-26_15h58.42.136,lexical_decision_task_MP_exp2,2020.2.5,Win32,60,m,1,0.614795,,,,,,,,0.614795,1,,,,,,67,WORD,"ID",16,policy,POLICY,m,,,,,,0.126302083,-0.41796875,0,0,0,,0,49,49,66,1,
,,,,,,,,,,,,,,,,,,5f350486d0c0764216b6745e,2020-11-26_15h58.42.136,lexical_decision_task_MP_exp2,2020.2.5,Win32,60,z,1,0.649905,,,,,,,,0.649905,1,,,,,,330,NW,"ID",16,kensom,KENSOM,z,,,,,,0.126302083,-0.41796875,0,0,0,,0,50,50,329,1,
,,,,,,,,,,,,,,,,,,5f350486d0c0764216b6745e,2020-11-26_15h58.42.136,lexical_decision_task_MP_exp2,2020.2.5,Win32,60,z,1,0.54938,,,,,,,,0.54938,1,,,,,,404,NW,UN,33,syntic,CLUIRM,z,,,,,,0.126302083,-0.41796875,0,0,0,,0,51,51,403,1,
,,,,,,,,,,,,,,,,,,5f350486d0c0764216b6745e,2020-11-26_15h58.42.136,lexical_decision_task_MP_exp2,2020.2.5,Win32,60,z,1,0.564795,,,,,,,,0.564795,1,,,,,,309,NW,"ID",16,amiloy,AMILOY,z,,,,,,0.126302083,-0.41796875,0,0,0,,0,52,52,308,1,
,,,,,,,,,,,,,,,,,,5f350486d0c0764216b6745e,2020-11-26_15h58.42.136,lexical_decision_task_MP_exp2,2020.2.5,Win32,60,m,1,0.525105,,,,,,,,0.525105,1,,,,,,228,WORD,UN,16,inject,MASTER,m,,,,,,0.126302083,-0.41796875,0,0,0,,0,53,53,227,1,
,,,,,,,,,,,,,,,,,,5f350486d0c0764216b6745e,2020-11-26_15h58.42.136,lexical_decision_task_MP_exp2,2020.2.5,Win32,60,m,1,0.54817,,,,,,,,0.54817,1,,,,,,163,WORD,UN,33,market,STRING,m,,,,,,0.126302083,-0.41796875,0,0,0,,0,54,54,162,1,
,,,,,,,,,,,,,,,,,,5f350486d0c0764216b6745e,2020-11-26_15h58.42.136,lexical_decision_task_MP_exp2,2020.2.5,Win32,60,m,1,0.648735,,,,,,,,0.648735,1,,,,,,82,WORD,"ID",16,stigma,STIGMA,m,,,,,,0.126302083,-0.41796875,0,0,0,,0,55,55,81,1,
,,,,,,,,,,,,,,,,,,5f350486d0c0764216b6745e,2020-11-26_15h58.42.136,lexical_decision_task_MP_exp2,2020.2.5,Win32,60,m,1,0.609095,,,,,,,,0.609095,1,,,,,,213,WORD,UN,16,intake,SQUEAL,m,,,,,,0.126302083,-0.41796875,0,0,0,,0,56,56,212,1,
,,,,,,,,,,,,,,,,,,5f350486d0c0764216b6745e,2020-11-26_15h58.42.136,lexical_decision_task_MP_exp2,2020.2.5,Win32,60,z,1,0.64981,,,,,,,,0.64981,1,,,,,,428,NW,UN,16,chrums,TANDLY,z,,,,,,0.126302083,-0.41796875,0,0,0,,0,57,57,427,1,
,,,,,,,,,,,,,,,,,,5f350486d0c0764216b6745e,2020-11-26_15h58.42.136,lexical_decision_task_MP_exp2,2020.2.5,Win32,60,z,1,0.63511,,,,,,,,0.63511,1,,,,,,362,NW,UN,33,breali,TIREAU,z,,,,,,0.126302083,-0.41796875,0,0,0,,0,58,58,361,1,
,,,,,,,,,,,,,,,,,,5f350486d0c0764216b6745e,2020-11-26_15h58.42.136,lexical_decision_task_MP_exp2,2020.2.5,Win32,60,m,1,0.568715,,,,,,,,0.568715,1,,,,,,173,WORD,UN,33,turkey,SHOWER,m,,,,,,0.126302083,-0.41796875,0,0,0,,0,59,59,172,1,
,,,,,,,,,,,,,,,,,,5f350486d0c0764216b6745e,2020-11-26_15h58.42.136,lexical_decision_task_MP_exp2,2020.2.5,Win32,60,m,1,0.730345,,,,,,,,0.730345,1,,,,,,111,WORD,"ID",16,induce,INDUCE,m,,,,,,0.126302083,-0.41796875,0,0,0,,0,60,60,110,1,
,,,,,,,,,,,,,,,,,,5f350486d0c0764216b6745e,2020-11-26_15h58.42.136,lexical_decision_task_MP_exp2,2020.2.5,Win32,60,m,1,0.629655,,,,,,,,0.629655,1,,,,,,93,WORD,"ID",16,public,PUBLIC,m,,,,,,0.126302083,-0.41796875,0,0,0,,0,61,61,92,1,
,,,,,,,,,,,,,,,,,,5f350486d0c0764216b6745e,2020-11-26_15h58.42.136,lexical_decision_task_MP_exp2,2020.2.5,Win32,60,z,1,0.61397,,,,,,,,0.61397,1,,,,,,327,NW,"ID",16,plenac,PLENAC,z,,,,,,0.126302083,-0.41796875,0,0,0,,0,62,62,326,1,
,,,,,,,,,,,,,,,,,,5f350486d0c0764216b6745e,2020-11-26_15h58.42.136,lexical_decision_task_MP_exp2,2020.2.5,Win32,60,m,1,0.56351,,,,,,,,0.56351,1,,,,,,180,WORD,UN,33,thrive,SILENT,m,,,,,,0.126302083,-0.41796875,0,0,0,,0,63,63,179,1,
,,,,,,,,,,,,,,,,,,5f350486d0c0764216b6745e,2020-11-26_15h58.42.136,lexical_decision_task_MP_exp2,2020.2.5,Win32,60,z,1,0.523265,,,,,,,,0.523265,1,,,,,,261,NW,"ID",33,stunch,STUNCH,z,,,,,,0.126302083,-0.41796875,0,0,0,,0,64,64,260,1,
,,,,,,,,,,,,,,,,,,5f350486d0c0764216b6745e,2020-11-26_15h58.42.136,lexical_decision_task_MP_exp2,2020.2.5,Win32,60,z,1,0.64094,,,,,,,,0.64094,1,,,,,,434,NW,UN,16,impurb,PITROM,z,,,,,,0.126302083,-0.41796875,0,0,0,,0,65,65,433,1,
,,,,,,,,,,,,,,,,,,5f350486d0c0764216b6745e,2020-11-26_15h58.42.136,lexical_decision_task_MP_exp2,2020.2.5,Win32,60,m,1,0.60822,,,,,,,,0.60822,1,,,,,,51,WORD,"ID",33,hungry,HUNGRY,m,,,,,,0.126302083,-0.41796875,0,0,0,,0,66,66,50,1,
,,,,,,,,,,,,,,,,,,5f350486d0c0764216b6745e,2020-11-26_15h58.42.136,lexical_decision_task_MP_exp2,2020.2.5,Win32,60,m,0,0.685365,,,,,,,,0.685365,0,,,,,,396,NW,UN,33,camble,FLENGY,z,,,,,,0.126302083,-0.41796875,0,0,0,,0,67,67,395,1,
,,,,,,,,,,,,,,,,,,5f350486d0c0764216b6745e,2020-11-26_15h58.42.136,lexical_decision_task_MP_exp2,2020.2.5,Win32,60,m,1,0.613915,,,,,,,,0.613915,1,,,,,,238,WORD,UN,16,grumpy,FLOWER,m,,,,,,0.126302083,-0.41796875,0,0,0,,0,68,68,237,1,
,,,,,,,,,,,,,,,,,,5f350486d0c0764216b6745e,2020-11-26_15h58.42.136,lexical_decision_task_MP_exp2,2020.2.5,Win32,60,m,1,0.6011,,,,,,,,0.6011,1,,,,,,223,WORD,UN,16,period,KIDNEY,m,,,,,,0.126302083,-0.41796875,0,0,0,,0,69,69,222,1,
,,,,,,,,,,,,,,,,,,5f350486d0c0764216b6745e,2020-11-26_15h58.42.136,lexical_decision_task_MP_exp2,2020.2.5,Win32,60,m,1,0.54834,,,,,,,,0.54834,1,,,,,,77,WORD,"ID",16,racket,RACKET,m,,,,,,0.126302083,-0.41796875,0,0,0,,0,70,70,76,1,
,,,,,,,,,,,,,,,,,,5f350486d0c0764216b6745e,2020-11-26_15h58.42.136,lexical_decision_task_MP_exp2,2020.2.5,Win32,60,m,1,0.571595,,,,,,,,0.571595,1,,,,,,85,WORD,"ID",16,sprawl,SPRAWL,m,,,,,,0.126302083,-0.41796875,0,0,0,,0,71,71,84,1,
,,,,,,,,,,,,,,,,,,5f350486d0c0764216b6745e,2020-11-26_15h58.42.136,lexical_decision_task_MP_exp2,2020.2.5,Win32,60,m,1,0.603795,,,,,,,,0.603795,1,,,,,,99,WORD,"ID",16,fluent,FLUENT,m,,,,,,0.126302083,-0.41796875,0,0,0,,0,72,72,98,1,
,,,,,,,,,,,,,,,,,,5f350486d0c0764216b6745e,2020-11-26_15h58.42.136,lexical_decision_task_MP_exp2,2020.2.5,Win32,60,z,1,0.534205,,,,,,,,0.534205,1,,,,,,295,NW,"ID",33,gleath,GLEATH,z,,,,,,0.126302083,-0.41796875,0,0,0,,0,73,73,294,1,
,,,,,,,,,,,,,,,,,,5f350486d0c0764216b6745e,2020-11-26_15h58.42.136,lexical_decision_task_MP_exp2,2020.2.5,Win32,60,z,1,0.583145,,,,,,,,0.583145,1,,,,,,385,NW,UN,33,ancust,VEIGMA,z,,,,,,0.126302083,-0.41796875,0,0,0,,0,74,74,384,1,
,,,,,,,,,,,,,,,,,,5f350486d0c0764216b6745e,2020-11-26_15h58.42.136,lexical_decision_task_MP_exp2,2020.2.5,Win32,60,z,1,0.60733,,,,,,,,0.60733,1,,,,,,395,NW,UN,33,flengy,COLURY,z,,,,,,0.126302083,-0.41796875,0,0,0,,0,75,75,394,1,
,,,,,,,,,,,,,,,,,,5f350486d0c0764216b6745e,2020-11-26_15h58.42.136,lexical_decision_task_MP_exp2,2020.2.5,Win32,60,z,1,0.63603,,,,,,,,0.63603,1,,,,,,291,NW,"ID",33,pretch,PRETCH,z,,,,,,0.126302083,-0.41796875,0,0,0,,0,76,76,290,1,
,,,,,,,,,,,,,,,,,,5f350486d0c0764216b6745e,2020-11-26_15h58.42.136,lexical_decision_task_MP_exp2,2020.2.5,Win32,60,m,1,0.56477,,,,,,,,0.56477,1,,,,,,231,WORD,UN,16,mother,EXPORT,m,,,,,,0.126302083,-0.41796875,0,0,0,,0,77,77,230,1,
,,,,,,,,,,,,,,,,,,5f350486d0c0764216b6745e,2020-11-26_15h58.42.136,lexical_decision_task_MP_exp2,2020.2.5,Win32,60,z,1,0.56503,,,,,,,,0.56503,1,,,,,,405,NW,UN,33,nouply,FLUMNI,z,,,,,,0.126302083,-0.41796875,0,0,0,,0,78,78,404,1,
,,,,,,,,,,,,,,,,,,5f350486d0c0764216b6745e,2020-11-26_15h58.42.136,lexical_decision_task_MP_exp2,2020.2.5,Win32,60,z,1,0.604735,,,,,,,,0.604735,1,,,,,,359,NW,"ID",16,fonver,FONVER,z,,,,,,0.126302083,-0.41796875,0,0,0,,0,79,79,358,1,
,,,,,,,,,,,,,,,,,,5f350486d0c0764216b6745e,2020-11-26_15h58.42.136,lexical_decision_task_MP_exp2,2020.2.5,Win32,60,m,1,0.531925,,,,,,,,0.531925,1,,,,,,94,WORD,"ID",16,travel,TRAVEL,m,,,,,,0.126302083,-0.41796875,0,0,0,,0,80,80,93,1,
,,,,,,,,,,,,,,,,,,5f350486d0c0764216b6745e,2020-11-26_15h58.42.136,lexical_decision_task_MP_exp2,2020.2.5,Win32,60,m,1,0.55264,,,,,,,,0.55264,1,,,,,,208,WORD,UN,16,search,HOCKEY,m,,,,,,0.126302083,-0.41796875,0,0,0,,0,81,81,207,1,
,,,,,,,,,,,,,,,,,,5f350486d0c0764216b6745e,2020-11-26_15h58.42.136,lexical_decision_task_MP_exp2,2020.2.5,Win32,60,m,1,0.571765,,,,,,,,0.571765,1,,,,,,240,WORD,UN,16,glance,FOREST,m,,,,,,0.126302083,-0.41796875,0,0,0,,0,82,82,239,1,
,,,,,,,,,,,,,,,,,,5f350486d0c0764216b6745e,2020-11-26_15h58.42.136,lexical_decision_task_MP_exp2,2020.2.5,Win32,60,m,1,0.56554,,,,,,,,0.56554,1,,,,,,43,WORD,"ID",33,tongue,TONGUE,m,,,,,,0.126302083,-0.41796875,0,0,0,,0,83,83,42,1,
,,,,,,,,,,,,,,,,,,5f350486d0c0764216b6745e,2020-11-26_15h58.42.136,lexical_decision_task_MP_exp2,2020.2.5,Win32,60,z,1,0.64858,,,,,,,,0.64858,1,,,,,,287,NW,"ID",33,nymbel,NYMBEL,z,,,,,,0.126302083,-0.41796875,0,0,0,,0,84,84,286,1,
,,,,,,,,,,,,,,,,,,5f350486d0c0764216b6745e,2020-11-26_15h58.42.136,lexical_decision_task_MP_exp2,2020.2.5,Win32,60,z,1,0.716425,,,,,,,,0.716425,1,,,,,,325,NW,"ID",16,thruse,THRUSE,z,,,,,,0.126302083,-0.41796875,0,0,0,,0,85,85,324,1,
,,,,,,,,,,,,,,,,,,5f350486d0c0764216b6745e,2020-11-26_15h58.42.136,lexical_decision_task_MP_exp2,2020.2.5,Win32,60,z,1,0.61585,,,,,,,,0.61585,1,,,,,,437,NW,UN,16,baitch,SNAPEL,z,,,,,,0.126302083,-0.41796875,0,0,0,,0,86,86,436,1,
,,,,,,,,,,,,,,,,,,5f350486d0c0764216b6745e,2020-11-26_15h58.42.136,lexical_decision_task_MP_exp2,2020.2.5,Win32,60,z,1,0.6651,,,,,,,,0.6651,1,,,,,,361,NW,UN,33,tireau,PAUCHE,z,,,,,,0.126302083,-0.41796875,0,0,0,,0,87,87,360,1,
,,,,,,,,,,,,,,,,,,5f350486d0c0764216b6745e,2020-11-26_15h58.42.136,lexical_decision_task_MP_exp2,2020.2.5,Win32,60,m,1,0.58156,,,,,,,,0.58156,1,,,,,,206,WORD,UN,16,wreath,TAILOR,m,,,,,,0.126302083,-0.41796875,0,0,0,,0,88,88,205,1,
,,,,,,,,,,,,,,,,,,5f350486d0c0764216b6745e,2020-11-26_15h58.42.136,lexical_decision_task_MP_exp2,2020.2.5,Win32,60,m,1,0.591385,,,,,,,,0.591385,1,,,,,,75,WORD,"ID",16,trophy,TROPHY,m,,,,,,0.126302083,-0.41796875,0,0,0,,0,89,89,74,1,
,,,,,,,,,,,,,,,,,,5f350486d0c0764216b6745e,2020-11-26_15h58.42.136,lexical_decision_task_MP_exp2,2020.2.5,Win32,60,m,1,0.547885,,,,,,,,0.547885,1,,,,,,60,WORD,"ID",33,pencil,PENCIL,m,,,,,,0.126302083,-0.41796875,0,0,0,,0,90,90,59,1,
,,,,,,,,,,,,,,,,,,5f350486d0c0764216b6745e,2020-11-26_15h58.42.136,lexical_decision_task_MP_exp2,2020.2.5,Win32,60,z,1,0.72539,,,,,,,,0.72539,1,,,,,,465,NW,UN,16,hocite,WHIVEX,z,,,,,,0.126302083,-0.41796875,0,0,0,,0,91,91,464,1,
,,,,,,,,,,,,,,,,,,5f350486d0c0764216b6745e,2020-11-26_15h58.42.136,lexical_decision_task_MP_exp2,2020.2.5,Win32,60,m,1,0.680705,,,,,,,,0.680705,1,,,,,,53,WORD,"ID",33,police,POLICE,m,,,,,,0.126302083,-0.41796875,0,0,0,,0,92,92,52,1,
,,,,,,,,,,,,,,,,,,5f350486d0c0764216b6745e,2020-11-26_15h58.42.136,lexical_decision_task_MP_exp2,2020.2.5,Win32,60,m,1,0.68027,,,,,,,,0.68027,1,,,,,,189,WORD,UN,16,backup,CENSOR,m,,,,,,0.126302083,-0.41796875,0,0,0,,0,93,93,188,1,
,,,,,,,,,,,,,,,,,,5f350486d0c0764216b6745e,2020-11-26_15h58.42.136,lexical_decision_task_MP_exp2,2020.2.5,Win32,60,m,1,0.62104,,,,,,,,0.62104,1,,,,,,19,WORD,"ID",33,patron,PATRON,m,,,,,,0.126302083,-0.41796875,0,0,0,,0,94,94,18,1,
,,,,,,,,,,,,,,,,,,5f350486d0c0764216b6745e,2020-11-26_15h58.42.136,lexical_decision_task_MP_exp2,2020.2.5,Win32,60,m,1,0.577235,,,,,,,,0.577235,1,,,,,,57,WORD,"ID",33,change,CHANGE,m,,,,,,0.126302083,-0.41796875,0,0,0,,0,95,95,56,1,
,,,,,,,,,,,,,,,,,,5f350486d0c0764216b6745e,2020-11-26_15h58.42.136,lexical_decision_task_MP_exp2,2020.2.5,Win32,60,m,1,0.59816,,,,,,,,0.59816,1,,,,,,66,WORD,"ID",16,gospel,GOSPEL,m,,,,,,0.126302083,-0.41796875,0,0,0,,0,96,96,65,1,
,,,,,,,,,,,,,,,,,,5f350486d0c0764216b6745e,2020-11-26_15h58.42.136,lexical_decision_task_MP_exp2,2020.2.5,Win32,60,z,1,0.62386,,,,,,,,0.62386,1,,,,,,406,NW,UN,33,suiver,NOUPLY,z,,,,,,0.126302083,-0.41796875,0,0,0,,0,97,97,405,1,
,,,,,,,,,,,,,,,,,,5f350486d0c0764216b6745e,2020-11-26_15h58.42.136,lexical_decision_task_MP_exp2,2020.2.5,Win32,60,m,1,0.63494,,,,,,,,0.63494,1,,,,,,150,WORD,UN,33,mystic,RANDOM,m,,,,,,0.126302083,-0.41796875,0,0,0,,0,98,98,149,1,
,,,,,,,,,,,,,,,,,,5f350486d0c0764216b6745e,2020-11-26_15h58.42.136,lexical_decision_task_MP_exp2,2020.2.5,Win32,60,m,1,0.59818,,,,,,,,0.59818,1,,,,,,209,WORD,UN,16,monkey,SEARCH,m,,,,,,0.126302083,-0.41796875,0,0,0,,0,99,99,208,1,
,,,,,,,,,,,,,,,,,,5f350486d0c0764216b6745e,2020-11-26_15h58.42.136,lexical_decision_task_MP_exp2,2020.2.5,Win32,60,m,1,0.572045,,,,,,,,0.572045,1,,,,,,81,WORD,"ID",16,friend,FRIEND,m,,,,,,0.126302083,-0.41796875,0,0,0,,0,100,100,80,1,
,,,,,,,,,,,,,,,,,,5f350486d0c0764216b6745e,2020-11-26_15h58.42.136,lexical_decision_task_MP_exp2,2020.2.5,Win32,60,z,1,0.683895,,,,,,,,0.683895,1,,,,,,369,NW,UN,33,sleact,WRONCH,z,,,,,,0.126302083,-0.41796875,0,0,0,,0,101,101,368,1,
,,,,,,,,,,,,,,,,,,5f350486d0c0764216b6745e,2020-11-26_15h58.42.136,lexical_decision_task_MP_exp2,2020.2.5,Win32,60,m,1,0.59907,,,,,,,,0.59907,1,,,,,,42,WORD,"ID",33,chapel,CHAPEL,m,,,,,,0.126302083,-0.41796875,0,0,0,,0,102,102,41,1,
,,,,,,,,,,,,,,,,,,5f350486d0c0764216b6745e,2020-11-26_15h58.42.136,lexical_decision_task_MP_exp2,2020.2.5,Win32,60,z,1,0.701025,,,,,,,,0.701025,1,,,,,,443,NW,UN,16,jaunce,DORSEX,z,,,,,,0.126302083,-0.41796875,0,0,0,,0,103,103,442,1,
,,,,,,,,,,,,,,,,,,5f350486d0c0764216b6745e,2020-11-26_15h58.42.136,lexical_decision_task_MP_exp2,2020.2.5,Win32,60,m,1,0.57145,,,,,,,,0.57145,1,,,,,,132,WORD,UN,33,bleach,STRONG,m,,,,,,0.126302083,-0.41796875,0,0,0,,0,104,104,131,1,
,,,,,,,,,,,,,,,,,,5f350486d0c0764216b6745e,2020-11-26_15h58.42.136,lexical_decision_task_MP_exp2,2020.2.5,Win32,60,m,1,0.59884,,,,,,,,0.59884,1,,,,,,30,WORD,"ID",33,orient,ORIENT,m,,,,,,0.126302083,-0.41796875,0,0,0,,0,105,105,29,1,
,,,,,,,,,,,,,,,,,,5f350486d0c0764216b6745e,2020-11-26_15h58.42.136,lexical_decision_task_MP_exp2,2020.2.5,Win32,60,z,1,0.609155,,,,,,,,0.609155,1,,,,,,277,NW,"ID",33,petain,PETAIN,z,,,,,,0.126302083,-0.41796875,0,0,0,,0,106,106,276,1,
,,,,,,,,,,,,,,,,,,5f350486d0c0764216b6745e,2020-11-26_15h58.42.136,lexical_decision_task_MP_exp2,2020.2.5,Win32,60,m,1,0.62256,,,,,,,,0.62256,1,,,,,,192,WORD,UN,16,object,PLAGUE,m,,,,,,0.126302083,-0.41796875,0,0,0,,0,107,107,191,1,
,,,,,,,,,,,,,,,,,,5f350486d0c0764216b6745e,2020-11-26_15h58.42.136,lexical_decision_task_MP_exp2,2020.2.5,Win32,60,z,1,0.551455,,,,,,,,0.551455,1,,,,,,356,NW,"ID",16,othnis,OTHNIS,z,,,,,,0.126302083,-0.41796875,0,0,0,,0,108,108,355,1,
,,,,,,,,,,,,,,,,,,5f350486d0c0764216b6745e,2020-11-26_15h58.42.136,lexical_decision_task_MP_exp2,2020.2.5,Win32,60,m,1,0.547965,,,,,,,,0.547965,1,,,,,,127,WORD,UN,33,senior,CASTLE,m,,,,,,0.126302083,-0.41796875,0,0,0,,0,109,109,126,1,
,,,,,,,,,,,,,,,,,,5f350486d0c0764216b6745e,2020-11-26_15h58.42.136,lexical_decision_task_MP_exp2,2020.2.5,Win32,60,m,1,0.63729,,,,,,,,0.63729,1,,,,,,193,WORD,UN,16,plague,OBJECT,m,,,,,,0.126302083,-0.41796875,0,0,0,,0,110,110,192,1,
,,,,,,,,,,,,,,,,,,5f350486d0c0764216b6745e,2020-11-26_15h58.42.136,lexical_decision_task_MP_exp2,2020.2.5,Win32,60,m,1,0.73208,,,,,,,,0.73208,1,,,,,,131,WORD,UN,33,strong,QUENCH,m,,,,,,0.126302083,-0.41796875,0,0,0,,0,111,111,130,1,
,,,,,,,,,,,,,,,,,,5f350486d0c0764216b6745e,2020-11-26_15h58.42.136,lexical_decision_task_MP_exp2,2020.2.5,Win32,60,z,1,0.535625,,,,,,,,0.535625,1,,,,,,280,NW,"ID",33,curbol,CURBOL,z,,,,,,0.126302083,-0.41796875,0,0,0,,0,112,112,279,1,
,,,,,,,,,,,,,,,,,,5f350486d0c0764216b6745e,2020-11-26_15h58.42.136,lexical_decision_task_MP_exp2,2020.2.5,Win32,60,z,1,0.60456,,,,,,,,0.60456,1,,,,,,350,NW,"ID",16,nagurs,NAGURS,z,,,,,,0.126302083,-0.41796875,0,0,0,,0,113,113,349,1,
,,,,,,,,,,,,,,,,,,5f350486d0c0764216b6745e,2020-11-26_15h58.42.136,lexical_decision_task_MP_exp2,2020.2.5,Win32,60,m,0,0.537465,,,,,,,,0.537465,0,,,,,,284,NW,"ID",33,shaple,SHAPLE,z,,,,,,0.126302083,-0.41796875,0,0,0,,0,114,114,283,1,
,,,,,,,,,,,,,,,,,,5f350486d0c0764216b6745e,2020-11-26_15h58.42.136,lexical_decision_task_MP_exp2,2020.2.5,Win32,60,m,1,0.618035,,,,,,,,0.618035,1,,,,,,54,WORD,"ID",33,ramble,RAMBLE,m,,,,,,0.126302083,-0.41796875,0,0,0,,0,115,115,53,1,
,,,,,,,,,,,,,,,,,,5f350486d0c0764216b6745e,2020-11-26_15h58.42.136,lexical_decision_task_MP_exp2,2020.2.5,Win32,60,m,1,0.65177,,,,,,,,0.65177,1,,,,,,169,WORD,UN,33,pounce,GENIUS,m,,,,,,0.126302083,-0.41796875,0,0,0,,0,116,116,168,1,
,,,,,,,,,,,,,,,,,,5f350486d0c0764216b6745e,2020-11-26_15h58.42.136,lexical_decision_task_MP_exp2,2020.2.5,Win32,60,z,1,0.668985,,,,,,,,0.668985,1,,,,,,422,NW,UN,16,streld,ALCOUD,z,,,,,,0.126302083,-0.41796875,0,0,0,,0,117,117,421,1,
,,,,,,,,,,,,,,,,,,5f350486d0c0764216b6745e,2020-11-26_15h58.42.136,lexical_decision_task_MP_exp2,2020.2.5,Win32,60,z,1,0.700675,,,,,,,,0.700675,1,,,,,,342,NW,"ID",16,randow,RANDOW,z,,,,,,0.126302083,-0.41796875,0,0,0,,0,118,118,341,1,
,,,,,,,,,,,,,,,,,,5f350486d0c0764216b6745e,2020-11-26_15h58.42.136,lexical_decision_task_MP_exp2,2020.2.5,Win32,60,m,1,0.875335,,,,,,,,0.875335,1,,,,,,40,WORD,"ID",33,convey,CONVEY,m,,,,,,0.126302083,-0.41796875,0,0,0,,0,119,119,39,1,
,,,,,,,,,,,,,,,,,,5f350486d0c0764216b6745e,2020-11-26_15h58.42.136,lexical_decision_task_MP_exp2,2020.2.5,Win32,60,m,1,0.613185,,,,,,,,0.613185,1,,,,,,153,WORD,UN,33,author,BEHOLD,m,,,,,,0.126302083,-0.41796875,1,0,0,,0,120,120,152,1,break_done_button
,,,,,,,,,,,,,,,,,,5f350486d0c0764216b6745e,2020-11-26_15h58.42.136,lexical_decision_task_MP_exp2,2020.2.5,Win32,60,m,1,0.911965,,,,,,,,0.911965,1,,,,,,31,WORD,"ID",33,weapon,WEAPON,m,,,,,,0.126302083,-0.41796875,0,0,0,,0,121,121,30,1,
,,,,,,,,,,,,,,,,,,5f350486d0c0764216b6745e,2020-11-26_15h58.42.136,lexical_decision_task_MP_exp2,2020.2.5,Win32,60,z,0,0.96628,,,,,,,,0.96628,0,,,,,,128,WORD,UN,33,marvel,SENIOR,m,,,,,,0.126302083,-0.41796875,0,0,0,,0,122,122,127,1,
,,,,,,,,,,,,,,,,,,5f350486d0c0764216b6745e,2020-11-26_15h58.42.136,lexical_decision_task_MP_exp2,2020.2.5,Win32,60,m,1,0.666195,,,,,,,,0.666195,1,,,,,,26,WORD,"ID",33,sprint,SPRINT,m,,,,,,0.126302083,-0.41796875,0,0,0,,0,123,123,25,1,
,,,,,,,,,,,,,,,,,,5f350486d0c0764216b6745e,2020-11-26_15h58.42.136,lexical_decision_task_MP_exp2,2020.2.5,Win32,60,m,0,0.800215,,,,,,,,0.800215,0,,,,,,249,NW,"ID",33,batrol,BATROL,z,,,,,,0.126302083,-0.41796875,0,0,0,,0,124,124,248,1,
,,,,,,,,,,,,,,,,,,5f350486d0c0764216b6745e,2020-11-26_15h58.42.136,lexical_decision_task_MP_exp2,2020.2.5,Win32,60,m,1,0.609515,,,,,,,,0.609515,1,,,,,,28,WORD,"ID",33,comedy,COMEDY,m,,,,,,0.126302083,-0.41796875,0,0,0,,0,125,125,27,1,
,,,,,,,,,,,,,,,,,,5f350486d0c0764216b6745e,2020-11-26_15h58.42.136,lexical_decision_task_MP_exp2,2020.2.5,Win32,60,z,1,0.566885,,,,,,,,0.566885,1,,,,,,335,NW,"ID",16,desion,DESION,z,,,,,,0.126302083,-0.41796875,0,0,0,,0,126,126,334,1,
,,,,,,,,,,,,,,,,,,5f350486d0c0764216b6745e,2020-11-26_15h58.42.136,lexical_decision_task_MP_exp2,2020.2.5,Win32,60,m,0,0.607585,,,,,,,,0.607585,0,,,,,,260,NW,"ID",33,unject,UNJECT,z,,,,,,0.126302083,-0.41796875,0,0,0,,0,127,127,259,1,
,,,,,,,,,,,,,,,,,,5f350486d0c0764216b6745e,2020-11-26_15h58.42.136,lexical_decision_task_MP_exp2,2020.2.5,Win32,60,z,0,0.59929,,,,,,,,0.59929,0,,,,,,215,WORD,UN,16,behalf,PHOBIA,m,,,,,,0.126302083,-0.41796875,0,0,0,,0,128,128,214,1,
,,,,,,,,,,,,,,,,,,5f350486d0c0764216b6745e,2020-11-26_15h58.42.136,lexical_decision_task_MP_exp2,2020.2.5,Win32,60,z,1,0.80885,,,,,,,,0.80885,1,,,,,,283,NW,"ID",33,veralf,VERALF,z,,,,,,0.126302083,-0.41796875,0,0,0,,0,129,129,282,1,
,,,,,,,,,,,,,,,,,,5f350486d0c0764216b6745e,2020-11-26_15h58.42.136,lexical_decision_task_MP_exp2,2020.2.5,Win32,60,z,1,0.63497,,,,,,,,0.63497,1,,,,,,317,NW,"ID",16,worbal,WORBAL,z,,,,,,0.126302083,-0.41796875,0,0,0,,0,130,130,316,1,
,,,,,,,,,,,,,,,,,,5f350486d0c0764216b6745e,2020-11-26_15h58.42.136,lexical_decision_task_MP_exp2,2020.2.5,Win32,60,m,1,0.60642,,,,,,,,0.60642,1,,,,,,205,WORD,UN,16,tailor,LOUNGE,m,,,,,,0.126302083,-0.41796875,0,0,0,,0,131,131,204,1,
,,,,,,,,,,,,,,,,,,5f350486d0c0764216b6745e,2020-11-26_15h58.42.136,lexical_decision_task_MP_exp2,2020.2.5,Win32,60,z,1,0.649395,,,,,,,,0.649395,1,,,,,,253,NW,"ID",33,resait,RESAIT,z,,,,,,0.126302083,-0.41796875,0,0,0,,0,132,132,252,1,
,,,,,,,,,,,,,,,,,,5f350486d0c0764216b6745e,2020-11-26_15h58.42.136,lexical_decision_task_MP_exp2,2020.2.5,Win32,60,z,1,0.70608,,,,,,,,0.70608,1,,,,,,380,NW,UN,33,huniek,CAVORY,z,,,,,,0.126302083,-0.41796875,0,0,0,,0,133,133,379,1,
,,,,,,,,,,,,,,,,,,5f350486d0c0764216b6745e,2020-11-26_15h58.42.136,lexical_decision_task_MP_exp2,2020.2.5,Win32,60,z,1,0.61544,,,,,,,,0.61544,1,,,,,,270,NW,"ID",33,wrimsy,WRIMSY,z,,,,,,0.126302083,-0.41796875,0,0,0,,0,134,134,269,1,
,,,,,,,,,,,,,,,,,,5f350486d0c0764216b6745e,2020-11-26_15h58.42.136,lexical_decision_task_MP_exp2,2020.2.5,Win32,60,m,1,0.603245,,,,,,,,0.603245,1,,,,,,186,WORD,UN,16,course,PORTAL,m,,,,,,0.126302083,-0.41796875,0,0,0,,0,135,135,185,1,
,,,,,,,,,,,,,,,,,,5f350486d0c0764216b6745e,2020-11-26_15h58.42.136,lexical_decision_task_MP_exp2,2020.2.5,Win32,60,z,1,0.59677,,,,,,,,0.59677,1,,,,,,244,NW,"ID",33,eatric,EATRIC,z,,,,,,0.126302083,-0.41796875,0,0,0,,0,136,136,243,1,
,,,,,,,,,,,,,,,,,,5f350486d0c0764216b6745e,2020-11-26_15h58.42.136,lexical_decision_task_MP_exp2,2020.2.5,Win32,60,z,1,0.550975,,,,,,,,0.550975,1,,,,,,255,NW,"ID",33,apight,APIGHT,z,,,,,,0.126302083,-0.41796875,0,0,0,,0,137,137,254,1,
,,,,,,,,,,,,,,,,,,5f350486d0c0764216b6745e,2020-11-26_15h58.42.136,lexical_decision_task_MP_exp2,2020.2.5,Win32,60,z,1,0.600295,,,,,,,,0.600295,1,,,,,,415,NW,UN,33,pathel,HIGSTA,z,,,,,,0.126302083,-0.41796875,0,0,0,,0,138,138,414,1,
,,,,,,,,,,,,,,,,,,5f350486d0c0764216b6745e,2020-11-26_15h58.42.136,lexical_decision_task_MP_exp2,2020.2.5,Win32,60,m,1,0.516115,,,,,,,,0.516115,1,,,,,,41,WORD,"ID",33,spring,SPRING,m,,,,,,0.126302083,-0.41796875,0,0,0,,0,139,139,40,1,
,,,,,,,,,,,,,,,,,,5f350486d0c0764216b6745e,2020-11-26_15h58.42.136,lexical_decision_task_MP_exp2,2020.2.5,Win32,60,z,1,0.63549,,,,,,,,0.63549,1,,,,,,310,NW,"ID",16,daniet,DANIET,z,,,,,,0.126302083,-0.41796875,0,0,0,,0,140,140,309,1,
,,,,,,,,,,,,,,,,,,5f350486d0c0764216b6745e,2020-11-26_15h58.42.136,lexical_decision_task_MP_exp2,2020.2.5,Win32,60,z,1,0.58055,,,,,,,,0.58055,1,,,,,,439,NW,UN,16,saride,LIMPOR,z,,,,,,0.126302083,-0.41796875,0,0,0,,0,141,141,438,1,
,,,,,,,,,,,,,,,,,,5f350486d0c0764216b6745e,2020-11-26_15h58.42.136,lexical_decision_task_MP_exp2,2020.2.5,Win32,60,m,1,0.55416,,,,,,,,0.55416,1,,,,,,196,WORD,UN,16,stream,CREDIT,m,,,,,,0.126302083,-0.41796875,0,0,0,,0,142,142,195,1,
,,,,,,,,,,,,,,,,,,5f350486d0c0764216b6745e,2020-11-26_15h58.42.136,lexical_decision_task_MP_exp2,2020.2.5,Win32,60,m,1,0.53073,,,,,,,,0.53073,1,,,,,,35,WORD,"ID",33,socket,SOCKET,m,,,,,,0.126302083,-0.41796875,0,0,0,,0,143,143,34,1,
,,,,,,,,,,,,,,,,,,5f350486d0c0764216b6745e,2020-11-26_15h58.42.136,lexical_decision_task_MP_exp2,2020.2.5,Win32,60,m,1,0.58719,,,,,,,,0.58719,1,,,,,,18,WORD,"ID",33,humble,HUMBLE,m,,,,,,0.126302083,-0.41796875,0,0,0,,0,144,144,17,1,
,,,,,,,,,,,,,,,,,,5f350486d0c0764216b6745e,2020-11-26_15h58.42.136,lexical_decision_task_MP_exp2,2020.2.5,Win32,60,z,1,0.598265,,,,,,,,0.598265,1,,,,,,382,NW,UN,33,aungre,SARLEY,z,,,,,,0.126302083,-0.41796875,0,0,0,,0,145,145,381,1,
,,,,,,,,,,,,,,,,,,5f350486d0c0764216b6745e,2020-11-26_15h58.42.136,lexical_decision_task_MP_exp2,2020.2.5,Win32,60,z,1,0.581535,,,,,,,,0.581535,1,,,,,,469,NW,UN,16,crudio,PADIFS,z,,,,,,0.126302083,-0.41796875,0,0,0,,0,146,146,468,1,
,,,,,,,,,,,,,,,,,,5f350486d0c0764216b6745e,2020-11-26_15h58.42.136,lexical_decision_task_MP_exp2,2020.2.5,Win32,60,m,1,0.64024,,,,,,,,0.64024,1,,,,,,100,WORD,"ID",16,carbon,CARBON,m,,,,,,0.126302083,-0.41796875,0,0,0,,0,147,147,99,1,
,,,,,,,,,,,,,,,,,,5f350486d0c0764216b6745e,2020-11-26_15h58.42.136,lexical_decision_task_MP_exp2,2020.2.5,Win32,60,z,1,0.58819,,,,,,,,0.58819,1,,,,,,413,NW,UN,33,serbol,EQUATS,z,,,,,,0.126302083,-0.41796875,0,0,0,,0,148,148,412,1,
,,,,,,,,,,,,,,,,,,5f350486d0c0764216b6745e,2020-11-26_15h58.42.136,lexical_decision_task_MP_exp2,2020.2.5,Win32,60,z,1,0.61192,,,,,,,,0.61192,1,,,,,,435,NW,UN,16,frutan,IMPURB,z,,,,,,0.126302083,-0.41796875,0,0,0,,0,149,149,434,1,
,,,,,,,,,,,,,,,,,,5f350486d0c0764216b6745e,2020-11-26_15h58.42.136,lexical_decision_task_MP_exp2,2020.2.5,Win32,60,m,1,0.66944,,,,,,,,0.66944,1,,,,,,178,WORD,UN,33,mildew,INFORM,m,,,,,,0.126302083,-0.41796875,0,0,0,,0,150,150,177,1,
,,,,,,,,,,,,,,,,,,5f350486d0c0764216b6745e,2020-11-26_15h58.42.136,lexical_decision_task_MP_exp2,2020.2.5,Win32,60,m,1,0.56592,,,,,,,,0.56592,1,,,,,,36,WORD,"ID",33,vanish,VANISH,m,,,,,,0.126302083,-0.41796875,0,0,0,,0,151,151,35,1,
,,,,,,,,,,,,,,,,,,5f350486d0c0764216b6745e,2020-11-26_15h58.42.136,lexical_decision_task_MP_exp2,2020.2.5,Win32,60,m,1,0.57204,,,,,,,,0.57204,1,,,,,,158,WORD,UN,33,detail,ISLAND,m,,,,,,0.126302083,-0.41796875,0,0,0,,0,152,152,157,1,
,,,,,,,,,,,,,,,,,,5f350486d0c0764216b6745e,2020-11-26_15h58.42.136,lexical_decision_task_MP_exp2,2020.2.5,Win32,60,m,0,0.63743,,,,,,,,0.63743,0,,,,,,360,NW,"ID",16,desory,DESORY,z,,,,,,0.126302083,-0.41796875,0,0,0,,0,153,153,359,1,
,,,,,,,,,,,,,,,,,,5f350486d0c0764216b6745e,2020-11-26_15h58.42.136,lexical_decision_task_MP_exp2,2020.2.5,Win32,60,z,1,0.52242,,,,,,,,0.52242,1,,,,,,263,NW,"ID",33,dolica,DOLICA,z,,,,,,0.126302083,-0.41796875,0,0,0,,0,154,154,262,1,
,,,,,,,,,,,,,,,,,,5f350486d0c0764216b6745e,2020-11-26_15h58.42.136,lexical_decision_task_MP_exp2,2020.2.5,Win32,60,z,1,0.58013,,,,,,,,0.58013,1,,,,,,254,NW,"ID",33,varosh,VAROSH,z,,,,,,0.126302083,-0.41796875,0,0,0,,0,155,155,253,1,
,,,,,,,,,,,,,,,,,,5f350486d0c0764216b6745e,2020-11-26_15h58.42.136,lexical_decision_task_MP_exp2,2020.2.5,Win32,60,m,1,0.549255,,,,,,,,0.549255,1,,,,,,39,WORD,"ID",33,insect,INSECT,m,,,,,,0.126302083,-0.41796875,0,0,0,,0,156,156,38,1,
,,,,,,,,,,,,,,,,,,5f350486d0c0764216b6745e,2020-11-26_15h58.42.136,lexical_decision_task_MP_exp2,2020.2.5,Win32,60,m,1,0.623485,,,,,,,,0.623485,1,,,,,,165,WORD,UN,33,starch,INVEST,m,,,,,,0.126302083,-0.41796875,0,0,0,,0,157,157,164,1,
,,,,,,,,,,,,,,,,,,5f350486d0c0764216b6745e,2020-11-26_15h58.42.136,lexical_decision_task_MP_exp2,2020.2.5,Win32,60,m,1,0.613665,,,,,,,,0.613665,1,,,,,,146,WORD,UN,33,garlic,COUPLE,m,,,,,,0.126302083,-0.41796875,0,0,0,,0,158,158,145,1,
,,,,,,,,,,,,,,,,,,5f350486d0c0764216b6745e,2020-11-26_15h58.42.136,lexical_decision_task_MP_exp2,2020.2.5,Win32,60,m,1,0.59788,,,,,,,,0.59788,1,,,,,,141,WORD,UN,33,spruce,ORPHAN,m,,,,,,0.126302083,-0.41796875,0,0,0,,0,159,159,140,1,
,,,,,,,,,,,,,,,,,,5f350486d0c0764216b6745e,2020-11-26_15h58.42.136,lexical_decision_task_MP_exp2,2020.2.5,Win32,60,z,1,0.563855,,,,,,,,0.563855,1,,,,,,440,NW,UN,16,cainky,SARIDE,z,,,,,,0.126302083,-0.41796875,0,0,0,,0,160,160,439,1,
,,,,,,,,,,,,,,,,,,5f350486d0c0764216b6745e,2020-11-26_15h58.42.136,lexical_decision_task_MP_exp2,2020.2.5,Win32,60,z,1,0.61467,,,,,,,,0.61467,1,,,,,,376,NW,UN,33,sliant,IGUARE,z,,,,,,0.126302083,-0.41796875,0,0,0,,0,161,161,375,1,
,,,,,,,,,,,,,,,,,,5f350486d0c0764216b6745e,2020-11-26_15h58.42.136,lexical_decision_task_MP_exp2,2020.2.5,Win32,60,z,0,0.679955,,,,,,,,0.679955,0,,,,,,222,WORD,UN,16,casino,HINDER,m,,,,,,0.126302083,-0.41796875,0,0,0,,0,162,162,221,1,
,,,,,,,,,,,,,,,,,,5f350486d0c0764216b6745e,2020-11-26_15h58.42.136,lexical_decision_task_MP_exp2,2020.2.5,Win32,60,z,1,0.655275,,,,,,,,0.655275,1,,,,,,394,NW,UN,33,colury,SPAQUX,z,,,,,,0.126302083,-0.41796875,0,0,0,,0,163,163,393,1,
,,,,,,,,,,,,,,,,,,5f350486d0c0764216b6745e,2020-11-26_15h58.42.136,lexical_decision_task_MP_exp2,2020.2.5,Win32,60,m,1,0.68352,,,,,,,,0.68352,1,,,,,,4,WORD,"ID",33,trench,TRENCH,m,,,,,,0.126302083,-0.41796875,0,0,0,,0,164,164,3,1,
,,,,,,,,,,,,,,,,,,5f350486d0c0764216b6745e,2020-11-26_15h58.42.136,lexical_decision_task_MP_exp2,2020.2.5,Win32,60,m,1,0.62075,,,,,,,,0.62075,1,,,,,,156,WORD,UN,33,pastor,CRADLE,m,,,,,,0.126302083,-0.41796875,0,0,0,,0,165,165,155,1,
,,,,,,,,,,,,,,,,,,5f350486d0c0764216b6745e,2020-11-26_15h58.42.136,lexical_decision_task_MP_exp2,2020.2.5,Win32,60,z,1,0.631305,,,,,,,,0.631305,1,,,,,,279,NW,"ID",33,celond,CELOND,z,,,,,,0.126302083,-0.41796875,0,0,0,,0,166,166,278,1,
,,,,,,,,,,,,,,,,,,5f350486d0c0764216b6745e,2020-11-26_15h58.42.136,lexical_decision_task_MP_exp2,2020.2.5,Win32,60,m,1,0.57927,,,,,,,,0.57927,1,,,,,,218,WORD,UN,16,bucket,SHRINK,m,,,,,,0.126302083,-0.41796875,0,0,0,,0,167,167,217,1,
,,,,,,,,,,,,,,,,,,5f350486d0c0764216b6745e,2020-11-26_15h58.42.136,lexical_decision_task_MP_exp2,2020.2.5,Win32,60,z,1,0.69458,,,,,,,,0.69458,1,,,,,,425,NW,UN,16,schind,FRUDGE,z,,,,,,0.126302083,-0.41796875,0,0,0,,0,168,168,424,1,
,,,,,,,,,,,,,,,,,,5f350486d0c0764216b6745e,2020-11-26_15h58.42.136,lexical_decision_task_MP_exp2,2020.2.5,Win32,60,m,1,0.65219,,,,,,,,0.65219,1,,,,,,155,WORD,UN,33,cradle,LIZARD,m,,,,,,0.126302083,-0.41796875,0,0,0,,0,169,169,154,1,
,,,,,,,,,,,,,,,,,,5f350486d0c0764216b6745e,2020-11-26_15h58.42.136,lexical_decision_task_MP_exp2,2020.2.5,Win32,60,z,1,0.65011,,,,,,,,0.65011,1,,,,,,331,NW,"ID",16,gilfew,GILFEW,z,,,,,,0.126302083,-0.41796875,0,0,0,,0,170,170,330,1,
,,,,,,,,,,,,,,,,,,5f350486d0c0764216b6745e,2020-11-26_15h58.42.136,lexical_decision_task_MP_exp2,2020.2.5,Win32,60,z,1,0.61209,,,,,,,,0.61209,1,,,,,,470,NW,UN,16,nobest,CRUDIO,z,,,,,,0.126302083,-0.41796875,0,0,0,,0,171,171,469,1,
,,,,,,,,,,,,,,,,,,5f350486d0c0764216b6745e,2020-11-26_15h58.42.136,lexical_decision_task_MP_exp2,2020.2.5,Win32,60,z,1,1.019065,,,,,,,,1.019065,1,,,,,,411,NW,UN,33,jiluer,ORCHIN,z,,,,,,0.126302083,-0.41796875,0,0,0,,0,172,172,410,1,
,,,,,,,,,,,,,,,,,,5f350486d0c0764216b6745e,2020-11-26_15h58.42.136,lexical_decision_task_MP_exp2,2020.2.5,Win32,60,m,1,0.554215,,,,,,,,0.554215,1,,,,,,55,WORD,"ID",33,stroke,STROKE,m,,,,,,0.126302083,-0.41796875,0,0,0,,0,173,173,54,1,
,,,,,,,,,,,,,,,,,,5f350486d0c0764216b6745e,2020-11-26_15h58.42.136,lexical_decision_task_MP_exp2,2020.2.5,Win32,60,m,1,0.696945,,,,,,,,0.696945,1,,,,,,2,WORD,"ID",33,bridge,BRIDGE,m,,,,,,0.126302083,-0.41796875,0,0,0,,0,174,174,1,1,
,,,,,,,,,,,,,,,,,,5f350486d0c0764216b6745e,2020-11-26_15h58.42.136,lexical_decision_task_MP_exp2,2020.2.5,Win32,60,z,1,0.701585,,,,,,,,0.701585,1,,,,,,445,NW,UN,16,runamo,MINKEL,z,,,,,,0.126302083,-0.41796875,0,0,0,,0,175,175,444,1,
,,,,,,,,,,,,,,,,,,5f350486d0c0764216b6745e,2020-11-26_15h58.42.136,lexical_decision_task_MP_exp2,2020.2.5,Win32,60,m,1,0.652305,,,,,,,,0.652305,1,,,,,,160,WORD,UN,33,dragon,VIOLET,m,,,,,,0.126302083,-0.41796875,0,0,0,,0,176,176,159,1,
,,,,,,,,,,,,,,,,,,5f350486d0c0764216b6745e,2020-11-26_15h58.42.136,lexical_decision_task_MP_exp2,2020.2.5,Win32,60,z,1,0.586275,,,,,,,,0.586275,1,,,,,,311,NW,"ID",16,sproly,SPROLY,z,,,,,,0.126302083,-0.41796875,0,0,0,,0,177,177,310,1,
,,,,,,,,,,,,,,,,,,5f350486d0c0764216b6745e,2020-11-26_15h58.42.136,lexical_decision_task_MP_exp2,2020.2.5,Win32,60,z,1,0.614075,,,,,,,,0.614075,1,,,,,,273,NW,"ID",33,sortel,SORTEL,z,,,,,,0.126302083,-0.41796875,0,0,0,,0,178,178,272,1,
,,,,,,,,,,,,,,,,,,5f350486d0c0764216b6745e,2020-11-26_15h58.42.136,lexical_decision_task_MP_exp2,2020.2.5,Win32,60,z,1,0.631685,,,,,,,,0.631685,1,,,,,,386,NW,UN,33,gronce,ANCUST,z,,,,,,0.126302083,-0.41796875,0,0,0,,0,179,179,385,1,
,,,,,,,,,,,,,,,,,,5f350486d0c0764216b6745e,2020-11-26_15h58.42.136,lexical_decision_task_MP_exp2,2020.2.5,Win32,60,z,0,0.701695,,,,,,,,0.701695,0,,,,,,80,WORD,"ID",16,family,FAMILY,m,,,,,,0.126302083,-0.41796875,0,0,0,,0,180,180,79,1,
,,,,,,,,,,,,,,,,,,5f350486d0c0764216b6745e,2020-11-26_15h58.42.136,lexical_decision_task_MP_exp2,2020.2.5,Win32,60,z,0,0.720565,,,,,,,,0.720565,0,,,,,,201,WORD,UN,16,factor,ADMIRE,m,,,,,,0.126302083,-0.41796875,0,0,0,,0,181,181,200,1,
,,,,,,,,,,,,,,,,,,5f350486d0c0764216b6745e,2020-11-26_15h58.42.136,lexical_decision_task_MP_exp2,2020.2.5,Win32,60,m,1,0.61949,,,,,,,,0.61949,1,,,,,,234,WORD,UN,16,lumber,CLUMSY,m,,,,,,0.126302083,-0.41796875,0,0,0,,0,182,182,233,1,
,,,,,,,,,,,,,,,,,,5f350486d0c0764216b6745e,2020-11-26_15h58.42.136,lexical_decision_task_MP_exp2,2020.2.5,Win32,60,z,1,0.720145,,,,,,,,0.720145,1,,,,,,347,NW,"ID",16,kerift,KERIFT,z,,,,,,0.126302083,-0.41796875,0,0,0,,0,183,183,346,1,
,,,,,,,,,,,,,,,,,,5f350486d0c0764216b6745e,2020-11-26_15h58.42.136,lexical_decision_task_MP_exp2,2020.2.5,Win32,60,m,1,0.523195,,,,,,,,0.523195,1,,,,,,198,WORD,UN,16,invoke,WICKED,m,,,,,,0.126302083,-0.41796875,0,0,0,,0,184,184,197,1,
,,,,,,,,,,,,,,,,,,5f350486d0c0764216b6745e,2020-11-26_15h58.42.136,lexical_decision_task_MP_exp2,2020.2.5,Win32,60,m,1,0.629225,,,,,,,,0.629225,1,,,,,,103,WORD,"ID",16,bounce,BOUNCE,m,,,,,,0.126302083,-0.41796875,0,0,0,,0,185,185,102,1,
,,,,,,,,,,,,,,,,,,5f350486d0c0764216b6745e,2020-11-26_15h58.42.136,lexical_decision_task_MP_exp2,2020.2.5,Win32,60,z,1,0.66068,,,,,,,,0.66068,1,,,,,,298,NW,"ID",33,piergy,PIERGY,z,,,,,,0.126302083,-0.41796875,0,0,0,,0,186,186,297,1,
,,,,,,,,,,,,,,,,,,5f350486d0c0764216b6745e,2020-11-26_15h58.42.136,lexical_decision_task_MP_exp2,2020.2.5,Win32,60,m,1,0.56629,,,,,,,,0.56629,1,,,,,,61,WORD,"ID",16,ponder,PONDER,m,,,,,,0.126302083,-0.41796875,0,0,0,,0,187,187,60,1,
,,,,,,,,,,,,,,,,,,5f350486d0c0764216b6745e,2020-11-26_15h58.42.136,lexical_decision_task_MP_exp2,2020.2.5,Win32,60,z,1,0.63542,,,,,,,,0.63542,1,,,,,,346,NW,"ID",16,saudic,SAUDIC,z,,,,,,0.126302083,-0.41796875,0,0,0,,0,188,188,345,1,
,,,,,,,,,,,,,,,,,,5f350486d0c0764216b6745e,2020-11-26_15h58.42.136,lexical_decision_task_MP_exp2,2020.2.5,Win32,60,m,0,0.862445,,,,,,,,0.862445,0,,,,,,467,NW,UN,16,wictor,GORBIE,z,,,,,,0.126302083,-0.41796875,0,0,0,,0,189,189,466,1,
,,,,,,,,,,,,,,,,,,5f350486d0c0764216b6745e,2020-11-26_15h58.42.136,lexical_decision_task_MP_exp2,2020.2.5,Win32,60,m,1,0.779395,,,,,,,,0.779395,1,,,,,,6,WORD,"ID",33,bundle,BUNDLE,m,,,,,,0.126302083,-0.41796875,0,0,0,,0,190,190,5,1,
,,,,,,,,,,,,,,,,,,5f350486d0c0764216b6745e,2020-11-26_15h58.42.136,lexical_decision_task_MP_exp2,2020.2.5,Win32,60,m,1,0.605255,,,,,,,,0.605255,1,,,,,,59,WORD,"ID",33,splint,SPLINT,m,,,,,,0.126302083,-0.41796875,0,0,0,,0,191,191,58,1,
,,,,,,,,,,,,,,,,,,5f350486d0c0764216b6745e,2020-11-26_15h58.42.136,lexical_decision_task_MP_exp2,2020.2.5,Win32,60,m,1,0.54749,,,,,,,,0.54749,1,,,,,,113,WORD,"ID",16,chorus,CHORUS,m,,,,,,0.126302083,-0.41796875,0,0,0,,0,192,192,112,1,
,,,,,,,,,,,,,,,,,,5f350486d0c0764216b6745e,2020-11-26_15h58.42.136,lexical_decision_task_MP_exp2,2020.2.5,Win32,60,z,1,0.514435,,,,,,,,0.514435,1,,,,,,300,NW,"ID",33,yarion,YARION,z,,,,,,0.126302083,-0.41796875,0,0,0,,0,193,193,299,1,
,,,,,,,,,,,,,,,,,,5f350486d0c0764216b6745e,2020-11-26_15h58.42.136,lexical_decision_task_MP_exp2,2020.2.5,Win32,60,m,1,0.613615,,,,,,,,0.613615,1,,,,,,64,WORD,"ID",16,throne,THRONE,m,,,,,,0.126302083,-0.41796875,0,0,0,,0,194,194,63,1,
,,,,,,,,,,,,,,,,,,5f350486d0c0764216b6745e,2020-11-26_15h58.42.136,lexical_decision_task_MP_exp2,2020.2.5,Win32,60,m,1,0.53007,,,,,,,,0.53007,1,,,,,,191,WORD,UN,16,absent,STABLE,m,,,,,,0.126302083,-0.41796875,0,0,0,,0,195,195,190,1,
,,,,,,,,,,,,,,,,,,5f350486d0c0764216b6745e,2020-11-26_15h58.42.136,lexical_decision_task_MP_exp2,2020.2.5,Win32,60,m,1,0.51761,,,,,,,,0.51761,1,,,,,,236,WORD,UN,16,poster,PIRATE,m,,,,,,0.126302083,-0.41796875,0,0,0,,0,196,196,235,1,
,,,,,,,,,,,,,,,,,,5f350486d0c0764216b6745e,2020-11-26_15h58.42.136,lexical_decision_task_MP_exp2,2020.2.5,Win32,60,m,1,0.54299,,,,,,,,0.54299,1,,,,,,105,WORD,"ID",16,number,NUMBER,m,,,,,,0.126302083,-0.41796875,0,0,0,,0,197,197,104,1,
,,,,,,,,,,,,,,,,,,5f350486d0c0764216b6745e,2020-11-26_15h58.42.136,lexical_decision_task_MP_exp2,2020.2.5,Win32,60,m,1,0.60431,,,,,,,,0.60431,1,,,,,,116,WORD,"ID",16,tumble,TUMBLE,m,,,,,,0.126302083,-0.41796875,0,0,0,,0,198,198,115,1,
,,,,,,,,,,,,,,,,,,5f350486d0c0764216b6745e,2020-11-26_15h58.42.136,lexical_decision_task_MP_exp2,2020.2.5,Win32,60,m,1,0.58512,,,,,,,,0.58512,1,,,,,,72,WORD,"ID",16,bright,BRIGHT,m,,,,,,0.126302083,-0.41796875,0,0,0,,0,199,199,71,1,
,,,,,,,,,,,,,,,,,,5f350486d0c0764216b6745e,2020-11-26_15h58.42.136,lexical_decision_task_MP_exp2,2020.2.5,Win32,60,z,1,0.60108,,,,,,,,0.60108,1,,,,,,399,NW,UN,33,wearox,FOURET,z,,,,,,0.126302083,-0.41796875,0,0,0,,0,200,200,398,1,
,,,,,,,,,,,,,,,,,,5f350486d0c0764216b6745e,2020-11-26_15h58.42.136,lexical_decision_task_MP_exp2,2020.2.5,Win32,60,m,1,0.60204,,,,,,,,0.60204,1,,,,,,11,WORD,"ID",33,cruise,CRUISE,m,,,,,,0.126302083,-0.41796875,0,0,0,,0,201,201,10,1,
,,,,,,,,,,,,,,,,,,5f350486d0c0764216b6745e,2020-11-26_15h58.42.136,lexical_decision_task_MP_exp2,2020.2.5,Win32,60,z,0,0.668755,,,,,,,,0.668755,0,,,,,,104,WORD,"ID",16,studio,STUDIO,m,,,,,,0.126302083,-0.41796875,0,0,0,,0,202,202,103,1,
,,,,,,,,,,,,,,,,,,5f350486d0c0764216b6745e,2020-11-26_15h58.42.136,lexical_decision_task_MP_exp2,2020.2.5,Win32,60,m,1,0.7716,,,,,,,,0.7716,1,,,,,,167,WORD,UN,33,answer,DESIGN,m,,,,,,0.126302083,-0.41796875,0,0,0,,0,203,203,166,1,
,,,,,,,,,,,,,,,,,,5f350486d0c0764216b6745e,2020-11-26_15h58.42.136,lexical_decision_task_MP_exp2,2020.2.5,Win32,60,m,1,0.67015,,,,,,,,0.67015,1,,,,,,122,WORD,UN,33,strike,LINGER,m,,,,,,0.126302083,-0.41796875,0,0,0,,0,204,204,121,1,
,,,,,,,,,,,,,,,,,,5f350486d0c0764216b6745e,2020-11-26_15h58.42.136,lexical_decision_task_MP_exp2,2020.2.5,Win32,60,m,1,0.77084,,,,,,,,0.77084,1,,,,,,125,WORD,UN,33,blouse,NICKEL,m,,,,,,0.126302083,-0.41796875,0,0,0,,0,205,205,124,1,
,,,,,,,,,,,,,,,,,,5f350486d0c0764216b6745e,2020-11-26_15h58.42.136,lexical_decision_task_MP_exp2,2020.2.5,Win32,60,z,1,0.6644,,,,,,,,0.6644,1,,,,,,247,NW,"ID",33,blarge,BLARGE,z,,,,,,0.126302083,-0.41796875,0,0,0,,0,206,206,246,1,
,,,,,,,,,,,,,,,,,,5f350486d0c0764216b6745e,2020-11-26_15h58.42.136,lexical_decision_task_MP_exp2,2020.2.5,Win32,60,z,1,0.66382,,,,,,,,0.66382,1,,,,,,344,NW,"ID",16,scrily,SCRILY,z,,,,,,0.126302083,-0.41796875,0,0,0,,0,207,207,343,1,
,,,,,,,,,,,,,,,,,,5f350486d0c0764216b6745e,2020-11-26_15h58.42.136,lexical_decision_task_MP_exp2,2020.2.5,Win32,60,m,1,0.69812,,,,,,,,0.69812,1,,,,,,179,WORD,UN,33,silent,BASKET,m,,,,,,0.126302083,-0.41796875,0,0,0,,0,208,208,178,1,
,,,,,,,,,,,,,,,,,,5f350486d0c0764216b6745e,2020-11-26_15h58.42.136,lexical_decision_task_MP_exp2,2020.2.5,Win32,60,z,1,0.704085,,,,,,,,0.704085,1,,,,,,388,NW,UN,33,witmer,CRAGIN,z,,,,,,0.126302083,-0.41796875,0,0,0,,0,209,209,387,1,
,,,,,,,,,,,,,,,,,,5f350486d0c0764216b6745e,2020-11-26_15h58.42.136,lexical_decision_task_MP_exp2,2020.2.5,Win32,60,z,1,0.69616,,,,,,,,0.69616,1,,,,,,431,NW,UN,16,lunker,CHRUMS,z,,,,,,0.126302083,-0.41796875,0,0,0,,0,210,210,430,1,
,,,,,,,,,,,,,,,,,,5f350486d0c0764216b6745e,2020-11-26_15h58.42.136,lexical_decision_task_MP_exp2,2020.2.5,Win32,60,m,1,0.635795,,,,,,,,0.635795,1,,,,,,87,WORD,"ID",16,filter,FILTER,m,,,,,,0.126302083,-0.41796875,0,0,0,,0,211,211,86,1,
,,,,,,,,,,,,,,,,,,5f350486d0c0764216b6745e,2020-11-26_15h58.42.136,lexical_decision_task_MP_exp2,2020.2.5,Win32,60,z,1,0.62962,,,,,,,,0.62962,1,,,,,,334,NW,"ID",16,watmeg,WATMEG,z,,,,,,0.126302083,-0.41796875,0,0,0,,0,212,212,333,1,
,,,,,,,,,,,,,,,,,,5f350486d0c0764216b6745e,2020-11-26_15h58.42.136,lexical_decision_task_MP_exp2,2020.2.5,Win32,60,z,1,0.675135,,,,,,,,0.675135,1,,,,,,374,NW,UN,33,yorque,SLIANT,z,,,,,,0.126302083,-0.41796875,0,0,0,,0,213,213,373,1,
,,,,,,,,,,,,,,,,,,5f350486d0c0764216b6745e,2020-11-26_15h58.42.136,lexical_decision_task_MP_exp2,2020.2.5,Win32,60,m,1,0.573315,,,,,,,,0.573315,1,,,,,,177,WORD,UN,33,inform,ADVENT,m,,,,,,0.126302083,-0.41796875,0,0,0,,0,214,214,176,1,
,,,,,,,,,,,,,,,,,,5f350486d0c0764216b6745e,2020-11-26_15h58.42.136,lexical_decision_task_MP_exp2,2020.2.5,Win32,60,m,1,0.604205,,,,,,,,0.604205,1,,,,,,108,WORD,"ID",16,reckon,RECKON,m,,,,,,0.126302083,-0.41796875,0,0,0,,0,215,215,107,1,
,,,,,,,,,,,,,,,,,,5f350486d0c0764216b6745e,2020-11-26_15h58.42.136,lexical_decision_task_MP_exp2,2020.2.5,Win32,60,z,1,0.58113,,,,,,,,0.58113,1,,,,,,278,NW,"ID",33,unighs,UNIGHS,z,,,,,,0.126302083,-0.41796875,0,0,0,,0,216,216,277,1,
,,,,,,,,,,,,,,,,,,5f350486d0c0764216b6745e,2020-11-26_15h58.42.136,lexical_decision_task_MP_exp2,2020.2.5,Win32,60,m,1,0.56994,,,,,,,,0.56994,1,,,,,,149,WORD,UN,33,random,INVADE,m,,,,,,0.126302083,-0.41796875,0,0,0,,0,217,217,148,1,
,,,,,,,,,,,,,,,,,,5f350486d0c0764216b6745e,2020-11-26_15h58.42.136,lexical_decision_task_MP_exp2,2020.2.5,Win32,60,m,1,0.59942,,,,,,,,0.59942,1,,,,,,32,WORD,"ID",33,buckle,BUCKLE,m,,,,,,0.126302083,-0.41796875,0,0,0,,0,218,218,31,1,
,,,,,,,,,,,,,,,,,,5f350486d0c0764216b6745e,2020-11-26_15h58.42.136,lexical_decision_task_MP_exp2,2020.2.5,Win32,60,z,1,0.6915,,,,,,,,0.6915,1,,,,,,289,NW,"ID",33,starby,STARBY,z,,,,,,0.126302083,-0.41796875,0,0,0,,0,219,219,288,1,
,,,,,,,,,,,,,,,,,,5f350486d0c0764216b6745e,2020-11-26_15h58.42.136,lexical_decision_task_MP_exp2,2020.2.5,Win32,60,z,1,0.80587,,,,,,,,0.80587,1,,,,,,318,NW,"ID",16,reagly,REAGLY,z,,,,,,0.126302083,-0.41796875,0,0,0,,0,220,220,317,1,
,,,,,,,,,,,,,,,,,,5f350486d0c0764216b6745e,2020-11-26_15h58.42.136,lexical_decision_task_MP_exp2,2020.2.5,Win32,60,z,1,0.649115,,,,,,,,0.649115,1,,,,,,472,NW,UN,16,crible,CIGNEY,z,,,,,,0.126302083,-0.41796875,0,0,0,,0,221,221,471,1,
,,,,,,,,,,,,,,,,,,5f350486d0c0764216b6745e,2020-11-26_15h58.42.136,lexical_decision_task_MP_exp2,2020.2.5,Win32,60,z,1,0.629675,,,,,,,,0.629675,1,,,,,,272,NW,"ID",33,damilt,DAMILT,z,,,,,,0.126302083,-0.41796875,0,0,0,,0,222,222,271,1,
,,,,,,,,,,,,,,,,,,5f350486d0c0764216b6745e,2020-11-26_15h58.42.136,lexical_decision_task_MP_exp2,2020.2.5,Win32,60,z,1,0.58172,,,,,,,,0.58172,1,,,,,,332,NW,"ID",16,vangue,VANGUE,z,,,,,,0.126302083,-0.41796875,0,0,0,,0,223,223,331,1,
,,,,,,,,,,,,,,,,,,5f350486d0c0764216b6745e,2020-11-26_15h58.42.136,lexical_decision_task_MP_exp2,2020.2.5,Win32,60,m,1,0.590125,,,,,,,,0.590125,1,,,,,,203,WORD,UN,16,burden,PHRASE,m,,,,,,0.126302083,-0.41796875,0,0,0,,0,224,224,202,1,
,,,,,,,,,,,,,,,,,,5f350486d0c0764216b6745e,2020-11-26_15h58.42.136,lexical_decision_task_MP_exp2,2020.2.5,Win32,60,z,1,0.730895,,,,,,,,0.730895,1,,,,,,424,NW,UN,16,urivel,PRAILE,z,,,,,,0.126302083,-0.41796875,0,0,0,,0,225,225,423,1,
,,,,,,,,,,,,,,,,,,5f350486d0c0764216b6745e,2020-11-26_15h58.42.136,lexical_decision_task_MP_exp2,2020.2.5,Win32,60,m,1,0.730485,,,,,,,,0.730485,1,,,,,,45,WORD,"ID",33,clergy,CLERGY,m,,,,,,0.126302083,-0.41796875,0,0,0,,0,226,226,44,1,
,,,,,,,,,,,,,,,,,,5f350486d0c0764216b6745e,2020-11-26_15h58.42.136,lexical_decision_task_MP_exp2,2020.2.5,Win32,60,z,1,0.554205,,,,,,,,0.554205,1,,,,,,339,NW,"ID",16,fachow,FACHOW,z,,,,,,0.126302083,-0.41796875,0,0,0,,0,227,227,338,1,
,,,,,,,,,,,,,,,,,,5f350486d0c0764216b6745e,2020-11-26_15h58.42.136,lexical_decision_task_MP_exp2,2020.2.5,Win32,60,z,1,0.619015,,,,,,,,0.619015,1,,,,,,459,NW,UN,16,mingar,BAFENT,z,,,,,,0.126302083,-0.41796875,0,0,0,,0,228,228,458,1,
,,,,,,,,,,,,,,,,,,5f350486d0c0764216b6745e,2020-11-26_15h58.42.136,lexical_decision_task_MP_exp2,2020.2.5,Win32,60,m,1,0.54686,,,,,,,,0.54686,1,,,,,,159,WORD,UN,33,violet,DETAIL,m,,,,,,0.126302083,-0.41796875,0,0,0,,0,229,229,158,1,
,,,,,,,,,,,,,,,,,,5f350486d0c0764216b6745e,2020-11-26_15h58.42.136,lexical_decision_task_MP_exp2,2020.2.5,Win32,60,z,1,0.533305,,,,,,,,0.533305,1,,,,,,373,NW,UN,33,injore,BIGENT,z,,,,,,0.126302083,-0.41796875,0,0,0,,0,230,230,372,1,
,,,,,,,,,,,,,,,,,,5f350486d0c0764216b6745e,2020-11-26_15h58.42.136,lexical_decision_task_MP_exp2,2020.2.5,Win32,60,z,1,0.61656,,,,,,,,0.61656,1,,,,,,407,NW,UN,33,hurnia,SUIVER,z,,,,,,0.126302083,-0.41796875,0,0,0,,0,231,231,406,1,
,,,,,,,,,,,,,,,,,,5f350486d0c0764216b6745e,2020-11-26_15h58.42.136,lexical_decision_task_MP_exp2,2020.2.5,Win32,60,z,1,0.58127,,,,,,,,0.58127,1,,,,,,408,NW,UN,33,flumni,HURNIA,z,,,,,,0.126302083,-0.41796875,0,0,0,,0,232,232,407,1,
,,,,,,,,,,,,,,,,,,5f350486d0c0764216b6745e,2020-11-26_15h58.42.136,lexical_decision_task_MP_exp2,2020.2.5,Win32,60,m,1,0.58041,,,,,,,,0.58041,1,,,,,,219,WORD,UN,16,voyage,BUCKET,m,,,,,,0.126302083,-0.41796875,0,0,0,,0,233,233,218,1,
,,,,,,,,,,,,,,,,,,5f350486d0c0764216b6745e,2020-11-26_15h58.42.136,lexical_decision_task_MP_exp2,2020.2.5,Win32,60,z,1,0.613045,,,,,,,,0.613045,1,,,,,,321,NW,"ID",16,miator,MIATOR,z,,,,,,0.126302083,-0.41796875,0,0,0,,0,234,234,320,1,
,,,,,,,,,,,,,,,,,,5f350486d0c0764216b6745e,2020-11-26_15h58.42.136,lexical_decision_task_MP_exp2,2020.2.5,Win32,60,z,1,0.50355,,,,,,,,0.50355,1,,,,,,274,NW,"ID",33,fumblo,FUMBLO,z,,,,,,0.126302083,-0.41796875,0,0,0,,0,235,235,273,1,
,,,,,,,,,,,,,,,,,,5f350486d0c0764216b6745e,2020-11-26_15h58.42.136,lexical_decision_task_MP_exp2,2020.2.5,Win32,60,z,1,0.656595,,,,,,,,0.656595,1,,,,,,416,NW,UN,33,earoud,PATHEL,z,,,,,,0.126302083,-0.41796875,0,0,0,,0,236,236,415,1,
,,,,,,,,,,,,,,,,,,5f350486d0c0764216b6745e,2020-11-26_15h58.42.136,lexical_decision_task_MP_exp2,2020.2.5,Win32,60,m,1,0.55773,,,,,,,,0.55773,1,,,,,,233,WORD,UN,16,clumsy,NATURE,m,,,,,,0.126302083,-0.41796875,0,0,0,,0,237,237,232,1,
,,,,,,,,,,,,,,,,,,5f350486d0c0764216b6745e,2020-11-26_15h58.42.136,lexical_decision_task_MP_exp2,2020.2.5,Win32,60,z,1,0.947775,,,,,,,,0.947775,1,,,,,,293,NW,"ID",33,swance,SWANCE,z,,,,,,0.126302083,-0.41796875,0,0,0,,0,238,238,292,1,
,,,,,,,,,,,,,,,,,,5f350486d0c0764216b6745e,2020-11-26_15h58.42.136,lexical_decision_task_MP_exp2,2020.2.5,Win32,60,m,1,0.566245,,,,,,,,0.566245,1,,,,,,27,WORD,"ID",33,scream,SCREAM,m,,,,,,0.126302083,-0.41796875,0,0,0,,0,239,239,26,1,
,,,,,,,,,,,,,,,,,,5f350486d0c0764216b6745e,2020-11-26_15h58.42.136,lexical_decision_task_MP_exp2,2020.2.5,Win32,60,m,1,0.612695,,,,,,,,0.612695,1,,,,,,79,WORD,"ID",16,theory,THEORY,m,,,,,,0.126302083,-0.41796875,0,0,0,,0,240,240,78,1,
,,,,,,,,,,,,,,,,,,5f350486d0c0764216b6745e,2020-11-26_15h58.42.136,lexical_decision_task_MP_exp2,2020.2.5,Win32,60,z,1,0.637105,,,,,,,,0.637105,1,,,,,,477,NW,UN,16,acrise,PHOTIE,z,,,,,,0.126302083,-0.41796875,1,0,0,,0,241,241,476,1,break_done_button
,,,,,,,,,,,,,,,,,,5f350486d0c0764216b6745e,2020-11-26_15h58.42.136,lexical_decision_task_MP_exp2,2020.2.5,Win32,60,m,1,0.484155,,,,,,,,0.484155,1,,,,,,112,WORD,"ID",16,breath,BREATH,m,,,,,,0.126302083,-0.41796875,0,0,0,,0,242,242,111,1,
,,,,,,,,,,,,,,,,,,5f350486d0c0764216b6745e,2020-11-26_15h58.42.136,lexical_decision_task_MP_exp2,2020.2.5,Win32,60,z,1,0.63287,,,,,,,,0.63287,1,,,,,,268,NW,"ID",33,packes,PACKES,z,,,,,,0.126302083,-0.41796875,0,0,0,,0,243,243,267,1,
,,,,,,,,,,,,,,,,,,5f350486d0c0764216b6745e,2020-11-26_15h58.42.136,lexical_decision_task_MP_exp2,2020.2.5,Win32,60,m,1,0.652225,,,,,,,,0.652225,1,,,,,,89,WORD,"ID",16,permit,PERMIT,m,,,,,,0.126302083,-0.41796875,0,0,0,,0,244,244,88,1,
,,,,,,,,,,,,,,,,,,5f350486d0c0764216b6745e,2020-11-26_15h58.42.136,lexical_decision_task_MP_exp2,2020.2.5,Win32,60,m,1,0.582845,,,,,,,,0.582845,1,,,,,,5,WORD,"ID",33,plunge,PLUNGE,m,,,,,,0.126302083,-0.41796875,0,0,0,,0,245,245,4,1,
,,,,,,,,,,,,,,,,,,5f350486d0c0764216b6745e,2020-11-26_15h58.42.136,lexical_decision_task_MP_exp2,2020.2.5,Win32,60,m,1,0.56744,,,,,,,,0.56744,1,,,,,,84,WORD,"ID",16,mortal,MORTAL,m,,,,,,0.126302083,-0.41796875,0,0,0,,0,246,246,83,1,
,,,,,,,,,,,,,,,,,,5f350486d0c0764216b6745e,2020-11-26_15h58.42.136,lexical_decision_task_MP_exp2,2020.2.5,Win32,60,z,1,0.86333,,,,,,,,0.86333,1,,,,,,364,NW,UN,33,guairt,IMPOTE,z,,,,,,0.126302083,-0.41796875,0,0,0,,0,247,247,363,1,
,,,,,,,,,,,,,,,,,,5f350486d0c0764216b6745e,2020-11-26_15h58.42.136,lexical_decision_task_MP_exp2,2020.2.5,Win32,60,m,1,0.59161,,,,,,,,0.59161,1,,,,,,166,WORD,UN,33,design,STARCH,m,,,,,,0.126302083,-0.41796875,0,0,0,,0,248,248,165,1,
,,,,,,,,,,,,,,,,,,5f350486d0c0764216b6745e,2020-11-26_15h58.42.136,lexical_decision_task_MP_exp2,2020.2.5,Win32,60,m,1,0.533465,,,,,,,,0.533465,1,,,,,,48,WORD,"ID",33,walnut,WALNUT,m,,,,,,0.126302083,-0.41796875,0,0,0,,0,249,249,47,1,
,,,,,,,,,,,,,,,,,,5f350486d0c0764216b6745e,2020-11-26_15h58.42.136,lexical_decision_task_MP_exp2,2020.2.5,Win32,60,m,0,0.61442,,,,,,,,0.61442,0,,,,,,345,NW,"ID",16,absend,ABSEND,z,,,,,,0.126302083,-0.41796875,0,0,0,,0,250,250,344,1,
,,,,,,,,,,,,,,,,,,5f350486d0c0764216b6745e,2020-11-26_15h58.42.136,lexical_decision_task_MP_exp2,2020.2.5,Win32,60,z,1,0.565875,,,,,,,,0.565875,1,,,,,,441,NW,UN,16,aboune,RASTOE,z,,,,,,0.126302083,-0.41796875,0,0,0,,0,251,251,440,1,
,,,,,,,,,,,,,,,,,,5f350486d0c0764216b6745e,2020-11-26_15h58.42.136,lexical_decision_task_MP_exp2,2020.2.5,Win32,60,z,1,0.629595,,,,,,,,0.629595,1,,,,,,243,NW,"ID",33,musied,MUSIED,z,,,,,,0.126302083,-0.41796875,0,0,0,,0,252,252,242,1,
,,,,,,,,,,,,,,,,,,5f350486d0c0764216b6745e,2020-11-26_15h58.42.136,lexical_decision_task_MP_exp2,2020.2.5,Win32,60,m,1,0.53806,,,,,,,,0.53806,1,,,,,,151,WORD,UN,33,rocket,MYSTIC,m,,,,,,0.126302083,-0.41796875,0,0,0,,0,253,253,150,1,
,,,,,,,,,,,,,,,,,,5f350486d0c0764216b6745e,2020-11-26_15h58.42.136,lexical_decision_task_MP_exp2,2020.2.5,Win32,60,m,1,0.503025,,,,,,,,0.503025,1,,,,,,12,WORD,"ID",33,orange,ORANGE,m,,,,,,0.126302083,-0.41796875,0,0,0,,0,254,254,11,1,
,,,,,,,,,,,,,,,,,,5f350486d0c0764216b6745e,2020-11-26_15h58.42.136,lexical_decision_task_MP_exp2,2020.2.5,Win32,60,m,1,0.54882,,,,,,,,0.54882,1,,,,,,20,WORD,"ID",33,breast,BREAST,m,,,,,,0.126302083,-0.41796875,0,0,0,,0,255,255,19,1,
,,,,,,,,,,,,,,,,,,5f350486d0c0764216b6745e,2020-11-26_15h58.42.136,lexical_decision_task_MP_exp2,2020.2.5,Win32,60,m,0,0.66438,,,,,,,,0.66438,0,,,,,,248,NW,"ID",33,strole,STROLE,z,,,,,,0.126302083,-0.41796875,0,0,0,,0,256,256,247,1,
,,,,,,,,,,,,,,,,,,5f350486d0c0764216b6745e,2020-11-26_15h58.42.136,lexical_decision_task_MP_exp2,2020.2.5,Win32,60,m,1,0.54628,,,,,,,,0.54628,1,,,,,,239,WORD,UN,16,forest,LUMBER,m,,,,,,0.126302083,-0.41796875,0,0,0,,0,257,257,238,1,
,,,,,,,,,,,,,,,,,,5f350486d0c0764216b6745e,2020-11-26_15h58.42.136,lexical_decision_task_MP_exp2,2020.2.5,Win32,60,m,1,0.516735,,,,,,,,0.516735,1,,,,,,126,WORD,UN,33,castle,ENOUGH,m,,,,,,0.126302083,-0.41796875,0,0,0,,0,258,258,125,1,
,,,,,,,,,,,,,,,,,,5f350486d0c0764216b6745e,2020-11-26_15h58.42.136,lexical_decision_task_MP_exp2,2020.2.5,Win32,60,z,1,0.4986,,,,,,,,0.4986,1,,,,,,367,NW,UN,33,hornal,SLIQUE,z,,,,,,0.126302083,-0.41796875,0,0,0,,0,259,259,366,1,
,,,,,,,,,,,,,,,,,,5f350486d0c0764216b6745e,2020-11-26_15h58.42.136,lexical_decision_task_MP_exp2,2020.2.5,Win32,60,z,1,0.537615,,,,,,,,0.537615,1,,,,,,450,NW,UN,16,rastoe,PHRECT,z,,,,,,0.126302083,-0.41796875,0,0,0,,0,260,260,449,1,
,,,,,,,,,,,,,,,,,,5f350486d0c0764216b6745e,2020-11-26_15h58.42.136,lexical_decision_task_MP_exp2,2020.2.5,Win32,60,z,1,0.54724,,,,,,,,0.54724,1,,,,,,337,NW,"ID",16,rejols,REJOLS,z,,,,,,0.126302083,-0.41796875,0,0,0,,0,261,261,336,1,
,,,,,,,,,,,,,,,,,,5f350486d0c0764216b6745e,2020-11-26_15h58.42.136,lexical_decision_task_MP_exp2,2020.2.5,Win32,60,z,0,0.546945,,,,,,,,0.546945,0,,,,,,90,WORD,"ID",16,relish,RELISH,m,,,,,,0.126302083,-0.41796875,0,0,0,,0,262,262,89,1,
,,,,,,,,,,,,,,,,,,5f350486d0c0764216b6745e,2020-11-26_15h58.42.136,lexical_decision_task_MP_exp2,2020.2.5,Win32,60,m,1,0.528975,,,,,,,,0.528975,1,,,,,,120,WORD,"ID",16,strain,STRAIN,m,,,,,,0.126302083,-0.41796875,0,0,0,,0,263,263,119,1,
,,,,,,,,,,,,,,,,,,5f350486d0c0764216b6745e,2020-11-26_15h58.42.136,lexical_decision_task_MP_exp2,2020.2.5,Win32,60,m,0,0.699655,,,,,,,,0.699655,0,,,,,,353,NW,"ID",16,clurey,CLUREY,z,,,,,,0.126302083,-0.41796875,0,0,0,,0,264,264,352,1,
,,,,,,,,,,,,,,,,,,5f350486d0c0764216b6745e,2020-11-26_15h58.42.136,lexical_decision_task_MP_exp2,2020.2.5,Win32,60,m,1,0.655655,,,,,,,,0.655655,1,,,,,,44,WORD,"ID",33,danger,DANGER,m,,,,,,0.126302083,-0.41796875,0,0,0,,0,265,265,43,1,
,,,,,,,,,,,,,,,,,,5f350486d0c0764216b6745e,2020-11-26_15h58.42.136,lexical_decision_task_MP_exp2,2020.2.5,Win32,60,m,1,0.583755,,,,,,,,0.583755,1,,,,,,145,WORD,UN,33,couple,PARISH,m,,,,,,0.126302083,-0.41796875,0,0,0,,0,266,266,144,1,
,,,,,,,,,,,,,,,,,,5f350486d0c0764216b6745e,2020-11-26_15h58.42.136,lexical_decision_task_MP_exp2,2020.2.5,Win32,60,m,1,0.631425,,,,,,,,0.631425,1,,,,,,37,WORD,"ID",33,insult,INSULT,m,,,,,,0.126302083,-0.41796875,0,0,0,,0,267,267,36,1,
,,,,,,,,,,,,,,,,,,5f350486d0c0764216b6745e,2020-11-26_15h58.42.136,lexical_decision_task_MP_exp2,2020.2.5,Win32,60,m,1,0.552135,,,,,,,,0.552135,1,,,,,,107,WORD,"ID",16,slogan,SLOGAN,m,,,,,,0.126302083,-0.41796875,0,0,0,,0,268,268,106,1,
,,,,,,,,,,,,,,,,,,5f350486d0c0764216b6745e,2020-11-26_15h58.42.136,lexical_decision_task_MP_exp2,2020.2.5,Win32,60,m,1,0.563885,,,,,,,,0.563885,1,,,,,,235,WORD,UN,16,pirate,GRUMPY,m,,,,,,0.126302083,-0.41796875,0,0,0,,0,269,269,234,1,
,,,,,,,,,,,,,,,,,,5f350486d0c0764216b6745e,2020-11-26_15h58.42.136,lexical_decision_task_MP_exp2,2020.2.5,Win32,60,m,1,0.56289,,,,,,,,0.56289,1,,,,,,88,WORD,"ID",16,hunger,HUNGER,m,,,,,,0.126302083,-0.41796875,0,0,0,,0,270,270,87,1,
,,,,,,,,,,,,,,,,,,5f350486d0c0764216b6745e,2020-11-26_15h58.42.136,lexical_decision_task_MP_exp2,2020.2.5,Win32,60,m,0,0.928655,,,,,,,,0.928655,0,,,,,,338,NW,"ID",16,wreash,WREASH,z,,,,,,0.126302083,-0.41796875,0,0,0,,0,271,271,337,1,
,,,,,,,,,,,,,,,,,,5f350486d0c0764216b6745e,2020-11-26_15h58.42.136,lexical_decision_task_MP_exp2,2020.2.5,Win32,60,z,1,0.66061,,,,,,,,0.66061,1,,,,,,432,NW,UN,16,drance,LUNKER,z,,,,,,0.126302083,-0.41796875,0,0,0,,0,272,272,431,1,
,,,,,,,,,,,,,,,,,,5f350486d0c0764216b6745e,2020-11-26_15h58.42.136,lexical_decision_task_MP_exp2,2020.2.5,Win32,60,z,1,0.630105,,,,,,,,0.630105,1,,,,,,328,NW,"ID",16,broake,BROAKE,z,,,,,,0.126302083,-0.41796875,0,0,0,,0,273,273,327,1,
,,,,,,,,,,,,,,,,,,5f350486d0c0764216b6745e,2020-11-26_15h58.42.136,lexical_decision_task_MP_exp2,2020.2.5,Win32,60,m,1,0.672135,,,,,,,,0.672135,1,,,,,,50,WORD,"ID",33,snatch,SNATCH,m,,,,,,0.126302083,-0.41796875,0,0,0,,0,274,274,49,1,
,,,,,,,,,,,,,,,,,,5f350486d0c0764216b6745e,2020-11-26_15h58.42.136,lexical_decision_task_MP_exp2,2020.2.5,Win32,60,m,1,0.615855,,,,,,,,0.615855,1,,,,,,130,WORD,UN,33,quench,STUPID,m,,,,,,0.126302083,-0.41796875,0,0,0,,0,275,275,129,1,
,,,,,,,,,,,,,,,,,,5f350486d0c0764216b6745e,2020-11-26_15h58.42.136,lexical_decision_task_MP_exp2,2020.2.5,Win32,60,m,1,0.53247,,,,,,,,0.53247,1,,,,,,92,WORD,"ID",16,strand,STRAND,m,,,,,,0.126302083,-0.41796875,0,0,0,,0,276,276,91,1,
,,,,,,,,,,,,,,,,,,5f350486d0c0764216b6745e,2020-11-26_15h58.42.136,lexical_decision_task_MP_exp2,2020.2.5,Win32,60,z,1,0.632645,,,,,,,,0.632645,1,,,,,,372,NW,UN,33,bigent,RAMILY,z,,,,,,0.126302083,-0.41796875,0,0,0,,0,277,277,371,1,
,,,,,,,,,,,,,,,,,,5f350486d0c0764216b6745e,2020-11-26_15h58.42.136,lexical_decision_task_MP_exp2,2020.2.5,Win32,60,z,1,0.634745,,,,,,,,0.634745,1,,,,,,461,NW,UN,16,absult,JUSTRE,z,,,,,,0.126302083,-0.41796875,0,0,0,,0,278,278,460,1,
,,,,,,,,,,,,,,,,,,5f350486d0c0764216b6745e,2020-11-26_15h58.42.136,lexical_decision_task_MP_exp2,2020.2.5,Win32,60,z,1,0.737905,,,,,,,,0.737905,1,,,,,,322,NW,"ID",16,slanch,SLANCH,z,,,,,,0.126302083,-0.41796875,0,0,0,,0,279,279,321,1,
,,,,,,,,,,,,,,,,,,5f350486d0c0764216b6745e,2020-11-26_15h58.42.136,lexical_decision_task_MP_exp2,2020.2.5,Win32,60,m,1,0.636035,,,,,,,,0.636035,1,,,,,,164,WORD,UN,33,invest,MARKET,m,,,,,,0.126302083,-0.41796875,0,0,0,,0,280,280,163,1,
,,,,,,,,,,,,,,,,,,5f350486d0c0764216b6745e,2020-11-26_15h58.42.136,lexical_decision_task_MP_exp2,2020.2.5,Win32,60,z,1,0.634395,,,,,,,,0.634395,1,,,,,,463,NW,UN,16,bafent,KISPEL,z,,,,,,0.126302083,-0.41796875,0,0,0,,0,281,281,462,1,
,,,,,,,,,,,,,,,,,,5f350486d0c0764216b6745e,2020-11-26_15h58.42.136,lexical_decision_task_MP_exp2,2020.2.5,Win32,60,m,1,0.65219,,,,,,,,0.65219,1,,,,,,8,WORD,"ID",33,abrupt,ABRUPT,m,,,,,,0.126302083,-0.41796875,0,0,0,,0,282,282,7,1,
,,,,,,,,,,,,,,,,,,5f350486d0c0764216b6745e,2020-11-26_15h58.42.136,lexical_decision_task_MP_exp2,2020.2.5,Win32,60,z,1,0.53176,,,,,,,,0.53176,1,,,,,,400,NW,UN,33,mustil,WEAROX,z,,,,,,0.126302083,-0.41796875,0,0,0,,0,283,283,399,1,
,,,,,,,,,,,,,,,,,,5f350486d0c0764216b6745e,2020-11-26_15h58.42.136,lexical_decision_task_MP_exp2,2020.2.5,Win32,60,z,1,0.580835,,,,,,,,0.580835,1,,,,,,266,NW,"ID",33,varmit,VARMIT,z,,,,,,0.126302083,-0.41796875,0,0,0,,0,284,284,265,1,
,,,,,,,,,,,,,,,,,,5f350486d0c0764216b6745e,2020-11-26_15h58.42.136,lexical_decision_task_MP_exp2,2020.2.5,Win32,60,z,1,0.56375,,,,,,,,0.56375,1,,,,,,447,NW,UN,16,sadent,GIRCUE,z,,,,,,0.126302083,-0.41796875,0,0,0,,0,285,285,446,1,
,,,,,,,,,,,,,,,,,,5f350486d0c0764216b6745e,2020-11-26_15h58.42.136,lexical_decision_task_MP_exp2,2020.2.5,Win32,60,m,1,0.51418,,,,,,,,0.51418,1,,,,,,157,WORD,UN,33,island,DRAGON,m,,,,,,0.126302083,-0.41796875,0,0,0,,0,286,286,156,1,
,,,,,,,,,,,,,,,,,,5f350486d0c0764216b6745e,2020-11-26_15h58.42.136,lexical_decision_task_MP_exp2,2020.2.5,Win32,60,z,1,0.543005,,,,,,,,0.543005,1,,,,,,466,NW,UN,16,pebric,HOCITE,z,,,,,,0.126302083,-0.41796875,0,0,0,,0,287,287,465,1,
,,,,,,,,,,,,,,,,,,5f350486d0c0764216b6745e,2020-11-26_15h58.42.136,lexical_decision_task_MP_exp2,2020.2.5,Win32,60,m,1,0.566325,,,,,,,,0.566325,1,,,,,,23,WORD,"ID",33,wealth,WEALTH,m,,,,,,0.126302083,-0.41796875,0,0,0,,0,288,288,22,1,
,,,,,,,,,,,,,,,,,,5f350486d0c0764216b6745e,2020-11-26_15h58.42.136,lexical_decision_task_MP_exp2,2020.2.5,Win32,60,m,1,0.597335,,,,,,,,0.597335,1,,,,,,121,WORD,UN,33,linger,THRIVE,m,,,,,,0.126302083,-0.41796875,0,0,0,,0,289,289,120,1,
,,,,,,,,,,,,,,,,,,5f350486d0c0764216b6745e,2020-11-26_15h58.42.136,lexical_decision_task_MP_exp2,2020.2.5,Win32,60,m,1,0.55737,,,,,,,,0.55737,1,,,,,,96,WORD,"ID",16,ignore,IGNORE,m,,,,,,0.126302083,-0.41796875,0,0,0,,0,290,290,95,1,
,,,,,,,,,,,,,,,,,,5f350486d0c0764216b6745e,2020-11-26_15h58.42.136,lexical_decision_task_MP_exp2,2020.2.5,Win32,60,m,1,0.75418,,,,,,,,0.75418,1,,,,,,70,WORD,"ID",16,square,SQUARE,m,,,,,,0.126302083,-0.41796875,0,0,0,,0,291,291,69,1,
,,,,,,,,,,,,,,,,,,5f350486d0c0764216b6745e,2020-11-26_15h58.42.136,lexical_decision_task_MP_exp2,2020.2.5,Win32,60,z,1,0.69706,,,,,,,,0.69706,1,,,,,,433,NW,UN,16,pitrom,DRANCE,z,,,,,,0.126302083,-0.41796875,0,0,0,,0,292,292,432,1,
,,,,,,,,,,,,,,,,,,5f350486d0c0764216b6745e,2020-11-26_15h58.42.136,lexical_decision_task_MP_exp2,2020.2.5,Win32,60,z,1,0.586415,,,,,,,,0.586415,1,,,,,,414,NW,UN,33,higsta,SERBOL,z,,,,,,0.126302083,-0.41796875,0,0,0,,0,293,293,413,1,
,,,,,,,,,,,,,,,,,,5f350486d0c0764216b6745e,2020-11-26_15h58.42.136,lexical_decision_task_MP_exp2,2020.2.5,Win32,60,m,1,0.563445,,,,,,,,0.563445,1,,,,,,225,WORD,UN,16,kidney,VULGAR,m,,,,,,0.126302083,-0.41796875,0,0,0,,0,294,294,224,1,
,,,,,,,,,,,,,,,,,,5f350486d0c0764216b6745e,2020-11-26_15h58.42.136,lexical_decision_task_MP_exp2,2020.2.5,Win32,60,z,1,0.548615,,,,,,,,0.548615,1,,,,,,241,NW,"ID",33,smenco,SMENCO,z,,,,,,0.126302083,-0.41796875,0,0,0,,0,295,295,240,1,
,,,,,,,,,,,,,,,,,,5f350486d0c0764216b6745e,2020-11-26_15h58.42.136,lexical_decision_task_MP_exp2,2020.2.5,Win32,60,m,1,0.586155,,,,,,,,0.586155,1,,,,,,195,WORD,UN,16,credit,RESIGN,m,,,,,,0.126302083,-0.41796875,0,0,0,,0,296,296,194,1,
,,,,,,,,,,,,,,,,,,5f350486d0c0764216b6745e,2020-11-26_15h58.42.136,lexical_decision_task_MP_exp2,2020.2.5,Win32,60,z,1,0.590245,,,,,,,,0.590245,1,,,,,,468,NW,UN,16,padifs,WICTOR,z,,,,,,0.126302083,-0.41796875,0,0,0,,0,297,297,467,1,
,,,,,,,,,,,,,,,,,,5f350486d0c0764216b6745e,2020-11-26_15h58.42.136,lexical_decision_task_MP_exp2,2020.2.5,Win32,60,m,1,0.6043,,,,,,,,0.6043,1,,,,,,175,WORD,UN,33,strife,FABRIC,m,,,,,,0.126302083,-0.41796875,0,0,0,,0,298,298,174,1,
,,,,,,,,,,,,,,,,,,5f350486d0c0764216b6745e,2020-11-26_15h58.42.136,lexical_decision_task_MP_exp2,2020.2.5,Win32,60,z,1,0.629625,,,,,,,,0.629625,1,,,,,,423,NW,UN,16,praile,STRELD,z,,,,,,0.126302083,-0.41796875,0,0,0,,0,299,299,422,1,
,,,,,,,,,,,,,,,,,,5f350486d0c0764216b6745e,2020-11-26_15h58.42.136,lexical_decision_task_MP_exp2,2020.2.5,Win32,60,m,1,0.52326,,,,,,,,0.52326,1,,,,,,117,WORD,"ID",16,branch,BRANCH,m,,,,,,0.126302083,-0.41796875,0,0,0,,0,300,300,116,1,
,,,,,,,,,,,,,,,,,,5f350486d0c0764216b6745e,2020-11-26_15h58.42.136,lexical_decision_task_MP_exp2,2020.2.5,Win32,60,z,1,0.64712,,,,,,,,0.64712,1,,,,,,471,NW,UN,16,cigney,NOBEST,z,,,,,,0.126302083,-0.41796875,0,0,0,,0,301,301,470,1,
,,,,,,,,,,,,,,,,,,5f350486d0c0764216b6745e,2020-11-26_15h58.42.136,lexical_decision_task_MP_exp2,2020.2.5,Win32,60,z,1,0.618335,,,,,,,,0.618335,1,,,,,,296,NW,"ID",33,beinch,BEINCH,z,,,,,,0.126302083,-0.41796875,0,0,0,,0,302,302,295,1,
,,,,,,,,,,,,,,,,,,5f350486d0c0764216b6745e,2020-11-26_15h58.42.136,lexical_decision_task_MP_exp2,2020.2.5,Win32,60,z,1,0.57905,,,,,,,,0.57905,1,,,,,,303,NW,"ID",16,fiream,FIREAM,z,,,,,,0.126302083,-0.41796875,0,0,0,,0,303,303,302,1,
,,,,,,,,,,,,,,,,,,5f350486d0c0764216b6745e,2020-11-26_15h58.42.136,lexical_decision_task_MP_exp2,2020.2.5,Win32,60,z,1,0.670605,,,,,,,,0.670605,1,,,,,,402,NW,UN,33,bruats,SYNTIC,z,,,,,,0.126302083,-0.41796875,0,0,0,,0,304,304,401,1,
,,,,,,,,,,,,,,,,,,5f350486d0c0764216b6745e,2020-11-26_15h58.42.136,lexical_decision_task_MP_exp2,2020.2.5,Win32,60,z,1,0.59953,,,,,,,,0.59953,1,,,,,,464,NW,UN,16,whivex,CHAITE,z,,,,,,0.126302083,-0.41796875,0,0,0,,0,305,305,463,1,
,,,,,,,,,,,,,,,,,,5f350486d0c0764216b6745e,2020-11-26_15h58.42.136,lexical_decision_task_MP_exp2,2020.2.5,Win32,60,z,1,0.547305,,,,,,,,0.547305,1,,,,,,282,NW,"ID",33,porlex,PORLEX,z,,,,,,0.126302083,-0.41796875,0,0,0,,0,306,306,281,1,
,,,,,,,,,,,,,,,,,,5f350486d0c0764216b6745e,2020-11-26_15h58.42.136,lexical_decision_task_MP_exp2,2020.2.5,Win32,60,m,1,0.532285,,,,,,,,0.532285,1,,,,,,170,WORD,UN,33,depart,POUNCE,m,,,,,,0.126302083,-0.41796875,0,0,0,,0,307,307,169,1,
,,,,,,,,,,,,,,,,,,5f350486d0c0764216b6745e,2020-11-26_15h58.42.136,lexical_decision_task_MP_exp2,2020.2.5,Win32,60,m,1,0.546295,,,,,,,,0.546295,1,,,,,,29,WORD,"ID",33,sketch,SKETCH,m,,,,,,0.126302083,-0.41796875,0,0,0,,0,308,308,28,1,
,,,,,,,,,,,,,,,,,,5f350486d0c0764216b6745e,2020-11-26_15h58.42.136,lexical_decision_task_MP_exp2,2020.2.5,Win32,60,m,1,0.64813,,,,,,,,0.64813,1,,,,,,76,WORD,"ID",16,exotic,EXOTIC,m,,,,,,0.126302083,-0.41796875,0,0,0,,0,309,309,75,1,
,,,,,,,,,,,,,,,,,,5f350486d0c0764216b6745e,2020-11-26_15h58.42.136,lexical_decision_task_MP_exp2,2020.2.5,Win32,60,m,1,0.539225,,,,,,,,0.539225,1,,,,,,34,WORD,"ID",33,jungle,JUNGLE,m,,,,,,0.126302083,-0.41796875,0,0,0,,0,310,310,33,1,
,,,,,,,,,,,,,,,,,,5f350486d0c0764216b6745e,2020-11-26_15h58.42.136,lexical_decision_task_MP_exp2,2020.2.5,Win32,60,z,1,0.589905,,,,,,,,0.589905,1,,,,,,457,NW,UN,16,barcet,WANIGH,z,,,,,,0.126302083,-0.41796875,0,0,0,,0,311,311,456,1,
,,,,,,,,,,,,,,,,,,5f350486d0c0764216b6745e,2020-11-26_15h58.42.136,lexical_decision_task_MP_exp2,2020.2.5,Win32,60,z,1,0.545825,,,,,,,,0.545825,1,,,,,,336,NW,"ID",16,ghodus,GHODUS,z,,,,,,0.126302083,-0.41796875,0,0,0,,0,312,312,335,1,
,,,,,,,,,,,,,,,,,,5f350486d0c0764216b6745e,2020-11-26_15h58.42.136,lexical_decision_task_MP_exp2,2020.2.5,Win32,60,m,1,0.680775,,,,,,,,0.680775,1,,,,,,86,WORD,"ID",16,rodent,RODENT,m,,,,,,0.126302083,-0.41796875,0,0,0,,0,313,313,85,1,
,,,,,,,,,,,,,,,,,,5f350486d0c0764216b6745e,2020-11-26_15h58.42.136,lexical_decision_task_MP_exp2,2020.2.5,Win32,60,z,1,0.53942,,,,,,,,0.53942,1,,,,,,304,NW,"ID",16,cludie,CLUDIE,z,,,,,,0.126302083,-0.41796875,0,0,0,,0,314,314,303,1,
,,,,,,,,,,,,,,,,,,5f350486d0c0764216b6745e,2020-11-26_15h58.42.136,lexical_decision_task_MP_exp2,2020.2.5,Win32,60,m,1,0.58084,,,,,,,,0.58084,1,,,,,,49,WORD,"ID",33,survey,SURVEY,m,,,,,,0.126302083,-0.41796875,0,0,0,,0,315,315,48,1,
,,,,,,,,,,,,,,,,,,5f350486d0c0764216b6745e,2020-11-26_15h58.42.136,lexical_decision_task_MP_exp2,2020.2.5,Win32,60,m,1,0.5802,,,,,,,,0.5802,1,,,,,,229,WORD,UN,16,fringe,MOTHER,m,,,,,,0.126302083,-0.41796875,0,0,0,,0,316,316,228,1,
,,,,,,,,,,,,,,,,,,5f350486d0c0764216b6745e,2020-11-26_15h58.42.136,lexical_decision_task_MP_exp2,2020.2.5,Win32,60,z,1,0.663165,,,,,,,,0.663165,1,,,,,,453,NW,UN,16,scouge,BOLVIS,z,,,,,,0.126302083,-0.41796875,0,0,0,,0,317,317,452,1,
,,,,,,,,,,,,,,,,,,5f350486d0c0764216b6745e,2020-11-26_15h58.42.136,lexical_decision_task_MP_exp2,2020.2.5,Win32,60,m,1,0.51236,,,,,,,,0.51236,1,,,,,,98,WORD,"ID",16,belong,BELONG,m,,,,,,0.126302083,-0.41796875,0,0,0,,0,318,318,97,1,
,,,,,,,,,,,,,,,,,,5f350486d0c0764216b6745e,2020-11-26_15h58.42.136,lexical_decision_task_MP_exp2,2020.2.5,Win32,60,m,1,0.667775,,,,,,,,0.667775,1,,,,,,168,WORD,UN,33,genius,ANSWER,m,,,,,,0.126302083,-0.41796875,0,0,0,,0,319,319,167,1,
,,,,,,,,,,,,,,,,,,5f350486d0c0764216b6745e,2020-11-26_15h58.42.136,lexical_decision_task_MP_exp2,2020.2.5,Win32,60,z,1,0.61313,,,,,,,,0.61313,1,,,,,,366,NW,UN,33,slique,TOSHEL,z,,,,,,0.126302083,-0.41796875,0,0,0,,0,320,320,365,1,
,,,,,,,,,,,,,,,,,,5f350486d0c0764216b6745e,2020-11-26_15h58.42.136,lexical_decision_task_MP_exp2,2020.2.5,Win32,60,z,1,0.54251,,,,,,,,0.54251,1,,,,,,381,NW,UN,33,sarley,HUNIEK,z,,,,,,0.126302083,-0.41796875,0,0,0,,0,321,321,380,1,
,,,,,,,,,,,,,,,,,,5f350486d0c0764216b6745e,2020-11-26_15h58.42.136,lexical_decision_task_MP_exp2,2020.2.5,Win32,60,z,1,0.886105,,,,,,,,0.886105,1,,,,,,419,NW,UN,33,gushop,SLOUNT,z,,,,,,0.126302083,-0.41796875,0,0,0,,0,322,322,418,1,
,,,,,,,,,,,,,,,,,,5f350486d0c0764216b6745e,2020-11-26_15h58.42.136,lexical_decision_task_MP_exp2,2020.2.5,Win32,60,m,1,0.56779,,,,,,,,0.56779,1,,,,,,83,WORD,"ID",16,result,RESULT,m,,,,,,0.126302083,-0.41796875,0,0,0,,0,323,323,82,1,
,,,,,,,,,,,,,,,,,,5f350486d0c0764216b6745e,2020-11-26_15h58.42.136,lexical_decision_task_MP_exp2,2020.2.5,Win32,60,z,1,0.683795,,,,,,,,0.683795,1,,,,,,252,NW,"ID",33,stapod,STAPOD,z,,,,,,0.126302083,-0.41796875,0,0,0,,0,324,324,251,1,
,,,,,,,,,,,,,,,,,,5f350486d0c0764216b6745e,2020-11-26_15h58.42.136,lexical_decision_task_MP_exp2,2020.2.5,Win32,60,m,1,0.563735,,,,,,,,0.563735,1,,,,,,129,WORD,UN,33,stupid,MARVEL,m,,,,,,0.126302083,-0.41796875,0,0,0,,0,325,325,128,1,
,,,,,,,,,,,,,,,,,,5f350486d0c0764216b6745e,2020-11-26_15h58.42.136,lexical_decision_task_MP_exp2,2020.2.5,Win32,60,m,1,0.569255,,,,,,,,0.569255,1,,,,,,63,WORD,"ID",16,launch,LAUNCH,m,,,,,,0.126302083,-0.41796875,0,0,0,,0,326,326,62,1,
,,,,,,,,,,,,,,,,,,5f350486d0c0764216b6745e,2020-11-26_15h58.42.136,lexical_decision_task_MP_exp2,2020.2.5,Win32,60,z,0,0.837355,,,,,,,,0.837355,0,,,,,,142,WORD,UN,33,orphan,SPRUCE,m,,,,,,0.126302083,-0.41796875,0,0,0,,0,327,327,141,1,
,,,,,,,,,,,,,,,,,,5f350486d0c0764216b6745e,2020-11-26_15h58.42.136,lexical_decision_task_MP_exp2,2020.2.5,Win32,60,m,0,0.72853,,,,,,,,0.72853,0,,,,,,454,NW,UN,16,tondle,SCOUGE,z,,,,,,0.126302083,-0.41796875,0,0,0,,0,328,328,453,1,
,,,,,,,,,,,,,,,,,,5f350486d0c0764216b6745e,2020-11-26_15h58.42.136,lexical_decision_task_MP_exp2,2020.2.5,Win32,60,z,1,0.70773,,,,,,,,0.70773,1,,,,,,320,NW,"ID",16,jockal,JOCKAL,z,,,,,,0.126302083,-0.41796875,0,0,0,,0,329,329,319,1,
,,,,,,,,,,,,,,,,,,5f350486d0c0764216b6745e,2020-11-26_15h58.42.136,lexical_decision_task_MP_exp2,2020.2.5,Win32,60,m,1,0.765025,,,,,,,,0.765025,1,,,,,,204,WORD,UN,16,lounge,BURDEN,m,,,,,,0.126302083,-0.41796875,0,0,0,,0,330,330,203,1,
,,,,,,,,,,,,,,,,,,5f350486d0c0764216b6745e,2020-11-26_15h58.42.136,lexical_decision_task_MP_exp2,2020.2.5,Win32,60,z,0,0.78862,,,,,,,,0.78862,0,,,,,,106,WORD,"ID",16,ransom,RANSOM,m,,,,,,0.126302083,-0.41796875,0,0,0,,0,331,331,105,1,
,,,,,,,,,,,,,,,,,,5f350486d0c0764216b6745e,2020-11-26_15h58.42.136,lexical_decision_task_MP_exp2,2020.2.5,Win32,60,z,1,0.69703,,,,,,,,0.69703,1,,,,,,456,NW,UN,16,wanigh,BROGET,z,,,,,,0.126302083,-0.41796875,0,0,0,,0,332,332,455,1,
,,,,,,,,,,,,,,,,,,5f350486d0c0764216b6745e,2020-11-26_15h58.42.136,lexical_decision_task_MP_exp2,2020.2.5,Win32,60,m,1,0.672415,,,,,,,,0.672415,1,,,,,,119,WORD,"ID",16,spider,SPIDER,m,,,,,,0.126302083,-0.41796875,0,0,0,,0,333,333,118,1,
,,,,,,,,,,,,,,,,,,5f350486d0c0764216b6745e,2020-11-26_15h58.42.136,lexical_decision_task_MP_exp2,2020.2.5,Win32,60,m,1,0.90106,,,,,,,,0.90106,1,,,,,,33,WORD,"ID",33,butler,BUTLER,m,,,,,,0.126302083,-0.41796875,0,0,0,,0,334,334,32,1,
,,,,,,,,,,,,,,,,,,5f350486d0c0764216b6745e,2020-11-26_15h58.42.136,lexical_decision_task_MP_exp2,2020.2.5,Win32,60,m,1,0.51931,,,,,,,,0.51931,1,,,,,,211,WORD,UN,16,verify,INFECT,m,,,,,,0.126302083,-0.41796875,0,0,0,,0,335,335,210,1,
,,,,,,,,,,,,,,,,,,5f350486d0c0764216b6745e,2020-11-26_15h58.42.136,lexical_decision_task_MP_exp2,2020.2.5,Win32,60,m,1,0.53561,,,,,,,,0.53561,1,,,,,,133,WORD,UN,33,debris,CHROME,m,,,,,,0.126302083,-0.41796875,0,0,0,,0,336,336,132,1,
,,,,,,,,,,,,,,,,,,5f350486d0c0764216b6745e,2020-11-26_15h58.42.136,lexical_decision_task_MP_exp2,2020.2.5,Win32,60,m,1,0.46431,,,,,,,,0.46431,1,,,,,,174,WORD,UN,33,fabric,TURKEY,m,,,,,,0.126302083,-0.41796875,0,0,0,,0,337,337,173,1,
,,,,,,,,,,,,,,,,,,5f350486d0c0764216b6745e,2020-11-26_15h58.42.136,lexical_decision_task_MP_exp2,2020.2.5,Win32,60,z,1,0.579995,,,,,,,,0.579995,1,,,,,,393,NW,UN,33,spaqux,GANOUS,z,,,,,,0.126302083,-0.41796875,0,0,0,,0,338,338,392,1,
,,,,,,,,,,,,,,,,,,5f350486d0c0764216b6745e,2020-11-26_15h58.42.136,lexical_decision_task_MP_exp2,2020.2.5,Win32,60,z,1,0.585805,,,,,,,,0.585805,1,,,,,,326,NW,"ID",16,iguade,IGUADE,z,,,,,,0.126302083,-0.41796875,0,0,0,,0,339,339,325,1,
,,,,,,,,,,,,,,,,,,5f350486d0c0764216b6745e,2020-11-26_15h58.42.136,lexical_decision_task_MP_exp2,2020.2.5,Win32,60,m,0,0.73664,,,,,,,,0.73664,0,,,,,,462,NW,UN,16,kispel,ABSULT,z,,,,,,0.126302083,-0.41796875,0,0,0,,0,340,340,461,1,
,,,,,,,,,,,,,,,,,,5f350486d0c0764216b6745e,2020-11-26_15h58.42.136,lexical_decision_task_MP_exp2,2020.2.5,Win32,60,z,1,0.59947,,,,,,,,0.59947,1,,,,,,391,NW,UN,33,rouncy,THELDY,z,,,,,,0.126302083,-0.41796875,0,0,0,,0,341,341,390,1,
,,,,,,,,,,,,,,,,,,5f350486d0c0764216b6745e,2020-11-26_15h58.42.136,lexical_decision_task_MP_exp2,2020.2.5,Win32,60,z,1,0.70228,,,,,,,,0.70228,1,,,,,,417,NW,UN,33,suidle,EAROUD,z,,,,,,0.126302083,-0.41796875,0,0,0,,0,342,342,416,1,
,,,,,,,,,,,,,,,,,,5f350486d0c0764216b6745e,2020-11-26_15h58.42.136,lexical_decision_task_MP_exp2,2020.2.5,Win32,60,m,1,0.58481,,,,,,,,0.58481,1,,,,,,162,WORD,UN,33,string,CANDLE,m,,,,,,0.126302083,-0.41796875,0,0,0,,0,343,343,161,1,
,,,,,,,,,,,,,,,,,,5f350486d0c0764216b6745e,2020-11-26_15h58.42.136,lexical_decision_task_MP_exp2,2020.2.5,Win32,60,m,1,0.616445,,,,,,,,0.616445,1,,,,,,15,WORD,"ID",33,amount,AMOUNT,m,,,,,,0.126302083,-0.41796875,0,0,0,,0,344,344,14,1,
,,,,,,,,,,,,,,,,,,5f350486d0c0764216b6745e,2020-11-26_15h58.42.136,lexical_decision_task_MP_exp2,2020.2.5,Win32,60,z,1,0.649565,,,,,,,,0.649565,1,,,,,,458,NW,UN,16,chaite,BARCET,z,,,,,,0.126302083,-0.41796875,0,0,0,,0,345,345,457,1,
,,,,,,,,,,,,,,,,,,5f350486d0c0764216b6745e,2020-11-26_15h58.42.136,lexical_decision_task_MP_exp2,2020.2.5,Win32,60,z,0,0.581795,,,,,,,,0.581795,0,,,,,,227,WORD,UN,16,master,SELDOM,m,,,,,,0.126302083,-0.41796875,0,0,0,,0,346,346,226,1,
,,,,,,,,,,,,,,,,,,5f350486d0c0764216b6745e,2020-11-26_15h58.42.136,lexical_decision_task_MP_exp2,2020.2.5,Win32,60,m,1,0.77916,,,,,,,,0.77916,1,,,,,,221,WORD,UN,16,hinder,MASCOT,m,,,,,,0.126302083,-0.41796875,0,0,0,,0,347,347,220,1,
,,,,,,,,,,,,,,,,,,5f350486d0c0764216b6745e,2020-11-26_15h58.42.136,lexical_decision_task_MP_exp2,2020.2.5,Win32,60,z,1,0.784775,,,,,,,,0.784775,1,,,,,,389,NW,UN,33,hatrus,WITMER,z,,,,,,0.126302083,-0.41796875,0,0,0,,0,348,348,388,1,
,,,,,,,,,,,,,,,,,,5f350486d0c0764216b6745e,2020-11-26_15h58.42.136,lexical_decision_task_MP_exp2,2020.2.5,Win32,60,m,1,0.771725,,,,,,,,0.771725,1,,,,,,226,WORD,UN,16,flower,CASINO,m,,,,,,0.126302083,-0.41796875,0,0,0,,0,349,349,225,1,
,,,,,,,,,,,,,,,,,,5f350486d0c0764216b6745e,2020-11-26_15h58.42.136,lexical_decision_task_MP_exp2,2020.2.5,Win32,60,m,1,0.695835,,,,,,,,0.695835,1,,,,,,68,WORD,"ID",16,fumble,FUMBLE,m,,,,,,0.126302083,-0.41796875,0,0,0,,0,350,350,67,1,
,,,,,,,,,,,,,,,,,,5f350486d0c0764216b6745e,2020-11-26_15h58.42.136,lexical_decision_task_MP_exp2,2020.2.5,Win32,60,m,1,0.5407,,,,,,,,0.5407,1,,,,,,9,WORD,"ID",33,hustle,HUSTLE,m,,,,,,0.126302083,-0.41796875,0,0,0,,0,351,351,8,1,
,,,,,,,,,,,,,,,,,,5f350486d0c0764216b6745e,2020-11-26_15h58.42.136,lexical_decision_task_MP_exp2,2020.2.5,Win32,60,z,1,0.6332,,,,,,,,0.6332,1,,,,,,262,NW,"ID",33,quilew,QUILEW,z,,,,,,0.126302083,-0.41796875,0,0,0,,0,352,352,261,1,
,,,,,,,,,,,,,,,,,,5f350486d0c0764216b6745e,2020-11-26_15h58.42.136,lexical_decision_task_MP_exp2,2020.2.5,Win32,60,z,1,0.54046,,,,,,,,0.54046,1,,,,,,384,NW,UN,33,veigma,GUESCO,z,,,,,,0.126302083,-0.41796875,0,0,0,,0,353,353,383,1,
,,,,,,,,,,,,,,,,,,5f350486d0c0764216b6745e,2020-11-26_15h58.42.136,lexical_decision_task_MP_exp2,2020.2.5,Win32,60,m,1,0.586095,,,,,,,,0.586095,1,,,,,,118,WORD,"ID",16,flight,FLIGHT,m,,,,,,0.126302083,-0.41796875,0,0,0,,0,354,354,117,1,
,,,,,,,,,,,,,,,,,,5f350486d0c0764216b6745e,2020-11-26_15h58.42.136,lexical_decision_task_MP_exp2,2020.2.5,Win32,60,m,1,0.54934,,,,,,,,0.54934,1,,,,,,58,WORD,"ID",33,foster,FOSTER,m,,,,,,0.126302083,-0.41796875,0,0,0,,0,355,355,57,1,
,,,,,,,,,,,,,,,,,,5f350486d0c0764216b6745e,2020-11-26_15h58.42.136,lexical_decision_task_MP_exp2,2020.2.5,Win32,60,z,1,0.715225,,,,,,,,0.715225,1,,,,,,264,NW,"ID",33,vackel,VACKEL,z,,,,,,0.126302083,-0.41796875,0,0,0,,0,356,356,263,1,
,,,,,,,,,,,,,,,,,,5f350486d0c0764216b6745e,2020-11-26_15h58.42.136,lexical_decision_task_MP_exp2,2020.2.5,Win32,60,z,1,0.596055,,,,,,,,0.596055,1,,,,,,301,NW,"ID",16,fainch,FAINCH,z,,,,,,0.126302083,-0.41796875,0,0,0,,0,357,357,300,1,
,,,,,,,,,,,,,,,,,,5f350486d0c0764216b6745e,2020-11-26_15h58.42.136,lexical_decision_task_MP_exp2,2020.2.5,Win32,60,m,1,0.653645,,,,,,,,0.653645,1,,,,,,56,WORD,"ID",33,ambush,AMBUSH,m,,,,,,0.126302083,-0.41796875,0,0,0,,0,358,358,55,1,
,,,,,,,,,,,,,,,,,,5f350486d0c0764216b6745e,2020-11-26_15h58.42.136,lexical_decision_task_MP_exp2,2020.2.5,Win32,60,z,1,0.66596,,,,,,,,0.66596,1,,,,,,436,NW,UN,16,snapel,FRUTAN,z,,,,,,0.126302083,-0.41796875,0,0,0,,0,359,359,435,1,
,,,,,,,,,,,,,,,,,,5f350486d0c0764216b6745e,2020-11-26_15h58.42.136,lexical_decision_task_MP_exp2,2020.2.5,Win32,60,m,1,0.464965,,,,,,,,0.464965,1,,,,,,210,WORD,UN,16,infect,MONKEY,m,,,,,,0.126302083,-0.41796875,0,0,0,,0,360,360,209,1,
,,,,,,,,,,,,,,,,,,5f350486d0c0764216b6745e,2020-11-26_15h58.42.136,lexical_decision_task_MP_exp2,2020.2.5,Win32,60,m,1,0.590675,,,,,,,,0.590675,1,,,,,,124,WORD,UN,33,nickel,BLOUSE,m,,,,,,0.126302083,-0.41796875,0,0,0,,0,361,361,123,1,
,,,,,,,,,,,,,,,,,,5f350486d0c0764216b6745e,2020-11-26_15h58.42.136,lexical_decision_task_MP_exp2,2020.2.5,Win32,60,z,1,0.590885,,,,,,,,0.590885,1,,,,,,387,NW,UN,33,cragin,GRONCE,z,,,,,,0.083333333,-0.40234375,1,0,0,,0,362,362,386,1,break_done_button
,,,,,,,,,,,,,,,,,,5f350486d0c0764216b6745e,2020-11-26_15h58.42.136,lexical_decision_task_MP_exp2,2020.2.5,Win32,60,m,1,1.04905,,,,,,,,1.04905,1,,,,,,200,WORD,UN,16,admire,BEACON,m,,,,,,0.083333333,-0.40234375,0,0,0,,0,363,363,199,1,
,,,,,,,,,,,,,,,,,,5f350486d0c0764216b6745e,2020-11-26_15h58.42.136,lexical_decision_task_MP_exp2,2020.2.5,Win32,60,z,1,0.797565,,,,,,,,0.797565,1,,,,,,460,NW,UN,16,justre,MINGAR,z,,,,,,0.083333333,-0.40234375,0,0,0,,0,364,364,459,1,
,,,,,,,,,,,,,,,,,,5f350486d0c0764216b6745e,2020-11-26_15h58.42.136,lexical_decision_task_MP_exp2,2020.2.5,Win32,60,m,1,0.595595,,,,,,,,0.595595,1,,,,,,62,WORD,"ID",16,region,REGION,m,,,,,,0.083333333,-0.40234375,0,0,0,,0,365,365,61,1,
,,,,,,,,,,,,,,,,,,5f350486d0c0764216b6745e,2020-11-26_15h58.42.136,lexical_decision_task_MP_exp2,2020.2.5,Win32,60,z,1,0.617245,,,,,,,,0.617245,1,,,,,,343,NW,"ID",16,aimosy,AIMOSY,z,,,,,,0.083333333,-0.40234375,0,0,0,,0,366,366,342,1,
,,,,,,,,,,,,,,,,,,5f350486d0c0764216b6745e,2020-11-26_15h58.42.136,lexical_decision_task_MP_exp2,2020.2.5,Win32,60,m,1,0.617845,,,,,,,,0.617845,1,,,,,,7,WORD,"ID",33,anchor,ANCHOR,m,,,,,,0.083333333,-0.40234375,0,0,0,,0,367,367,6,1,
,,,,,,,,,,,,,,,,,,5f350486d0c0764216b6745e,2020-11-26_15h58.42.136,lexical_decision_task_MP_exp2,2020.2.5,Win32,60,m,1,0.64304,,,,,,,,0.64304,1,,,,,,78,WORD,"ID",16,column,COLUMN,m,,,,,,0.083333333,-0.40234375,0,0,0,,0,368,368,77,1,
,,,,,,,,,,,,,,,,,,5f350486d0c0764216b6745e,2020-11-26_15h58.42.136,lexical_decision_task_MP_exp2,2020.2.5,Win32,60,m,1,0.715245,,,,,,,,0.715245,1,,,,,,176,WORD,UN,33,advent,STRIFE,m,,,,,,0.083333333,-0.40234375,0,0,0,,0,369,369,175,1,
,,,,,,,,,,,,,,,,,,5f350486d0c0764216b6745e,2020-11-26_15h58.42.136,lexical_decision_task_MP_exp2,2020.2.5,Win32,60,m,1,0.648885,,,,,,,,0.648885,1,,,,,,172,WORD,UN,33,shower,PATROL,m,,,,,,0.083333333,-0.40234375,0,0,0,,0,370,370,171,1,
,,,,,,,,,,,,,,,,,,5f350486d0c0764216b6745e,2020-11-26_15h58.42.136,lexical_decision_task_MP_exp2,2020.2.5,Win32,60,m,1,0.56482,,,,,,,,0.56482,1,,,,,,185,WORD,UN,16,portal,BOTHER,m,,,,,,0.083333333,-0.40234375,0,0,0,,0,371,371,184,1,
,,,,,,,,,,,,,,,,,,5f350486d0c0764216b6745e,2020-11-26_15h58.42.136,lexical_decision_task_MP_exp2,2020.2.5,Win32,60,m,1,0.51969,,,,,,,,0.51969,1,,,,,,138,WORD,UN,33,staple,MELODY,m,,,,,,0.083333333,-0.40234375,0,0,0,,0,372,372,137,1,
,,,,,,,,,,,,,,,,,,5f350486d0c0764216b6745e,2020-11-26_15h58.42.136,lexical_decision_task_MP_exp2,2020.2.5,Win32,60,z,1,0.562715,,,,,,,,0.562715,1,,,,,,267,NW,"ID",33,pasink,PASINK,z,,,,,,0.083333333,-0.40234375,0,0,0,,0,373,373,266,1,
,,,,,,,,,,,,,,,,,,5f350486d0c0764216b6745e,2020-11-26_15h58.42.136,lexical_decision_task_MP_exp2,2020.2.5,Win32,60,z,0,0.51376,,,,,,,,0.51376,0,,,,,,184,WORD,UN,16,bother,SLEAZY,m,,,,,,0.083333333,-0.40234375,0,0,0,,0,374,374,183,1,
,,,,,,,,,,,,,,,,,,5f350486d0c0764216b6745e,2020-11-26_15h58.42.136,lexical_decision_task_MP_exp2,2020.2.5,Win32,60,z,1,0.6676,,,,,,,,0.6676,1,,,,,,410,NW,UN,33,orchin,TUNORY,z,,,,,,0.083333333,-0.40234375,0,0,0,,0,375,375,409,1,
,,,,,,,,,,,,,,,,,,5f350486d0c0764216b6745e,2020-11-26_15h58.42.136,lexical_decision_task_MP_exp2,2020.2.5,Win32,60,m,1,0.53166,,,,,,,,0.53166,1,,,,,,182,WORD,UN,16,basket,WINTER,m,,,,,,0.083333333,-0.40234375,0,0,0,,0,376,376,181,1,
,,,,,,,,,,,,,,,,,,5f350486d0c0764216b6745e,2020-11-26_15h58.42.136,lexical_decision_task_MP_exp2,2020.2.5,Win32,60,z,1,0.92392,,,,,,,,0.92392,1,,,,,,348,NW,"ID",16,dumple,DUMPLE,z,,,,,,0.083333333,-0.40234375,0,0,0,,0,377,377,347,1,
,,,,,,,,,,,,,,,,,,5f350486d0c0764216b6745e,2020-11-26_15h58.42.136,lexical_decision_task_MP_exp2,2020.2.5,Win32,60,m,1,0.617555,,,,,,,,0.617555,1,,,,,,47,WORD,"ID",33,income,INCOME,m,,,,,,0.083333333,-0.40234375,0,0,0,,0,378,378,46,1,
,,,,,,,,,,,,,,,,,,5f350486d0c0764216b6745e,2020-11-26_15h58.42.136,lexical_decision_task_MP_exp2,2020.2.5,Win32,60,m,1,0.64809,,,,,,,,0.64809,1,,,,,,148,WORD,UN,33,invade,CUSTOM,m,,,,,,0.083333333,-0.40234375,0,0,0,,0,379,379,147,1,
,,,,,,,,,,,,,,,,,,5f350486d0c0764216b6745e,2020-11-26_15h58.42.136,lexical_decision_task_MP_exp2,2020.2.5,Win32,60,z,1,0.828495,,,,,,,,0.828495,1,,,,,,377,NW,UN,33,shrile,INJORE,z,,,,,,0.083333333,-0.40234375,0,0,0,,0,380,380,376,1,
,,,,,,,,,,,,,,,,,,5f350486d0c0764216b6745e,2020-11-26_15h58.42.136,lexical_decision_task_MP_exp2,2020.2.5,Win32,60,m,1,0.568075,,,,,,,,0.568075,1,,,,,,65,WORD,"ID",16,symbol,SYMBOL,m,,,,,,0.083333333,-0.40234375,0,0,0,,0,381,381,64,1,
,,,,,,,,,,,,,,,,,,5f350486d0c0764216b6745e,2020-11-26_15h58.42.136,lexical_decision_task_MP_exp2,2020.2.5,Win32,60,z,1,0.613615,,,,,,,,0.613615,1,,,,,,355,NW,"ID",16,zingly,ZINGLY,z,,,,,,0.083333333,-0.40234375,0,0,0,,0,382,382,354,1,
,,,,,,,,,,,,,,,,,,5f350486d0c0764216b6745e,2020-11-26_15h58.42.136,lexical_decision_task_MP_exp2,2020.2.5,Win32,60,m,1,0.69664,,,,,,,,0.69664,1,,,,,,115,WORD,"ID",16,guitar,GUITAR,m,,,,,,0.083333333,-0.40234375,0,0,0,,0,383,383,114,1,
,,,,,,,,,,,,,,,,,,5f350486d0c0764216b6745e,2020-11-26_15h58.42.136,lexical_decision_task_MP_exp2,2020.2.5,Win32,60,m,1,0.54809,,,,,,,,0.54809,1,,,,,,21,WORD,"ID",33,simple,SIMPLE,m,,,,,,0.083333333,-0.40234375,0,0,0,,0,384,384,20,1,
,,,,,,,,,,,,,,,,,,5f350486d0c0764216b6745e,2020-11-26_15h58.42.136,lexical_decision_task_MP_exp2,2020.2.5,Win32,60,z,1,0.687195,,,,,,,,0.687195,1,,,,,,292,NW,"ID",33,ablint,ABLINT,z,,,,,,0.083333333,-0.40234375,0,0,0,,0,385,385,291,1,
,,,,,,,,,,,,,,,,,,5f350486d0c0764216b6745e,2020-11-26_15h58.42.136,lexical_decision_task_MP_exp2,2020.2.5,Win32,60,m,1,0.59139,,,,,,,,0.59139,1,,,,,,14,WORD,"ID",33,almost,ALMOST,m,,,,,,0.083333333,-0.40234375,0,0,0,,0,386,386,13,1,
,,,,,,,,,,,,,,,,,,5f350486d0c0764216b6745e,2020-11-26_15h58.42.136,lexical_decision_task_MP_exp2,2020.2.5,Win32,60,m,1,0.664465,,,,,,,,0.664465,1,,,,,,197,WORD,UN,16,wicked,STREAM,m,,,,,,0.083333333,-0.40234375,0,0,0,,0,387,387,196,1,
,,,,,,,,,,,,,,,,,,5f350486d0c0764216b6745e,2020-11-26_15h58.42.136,lexical_decision_task_MP_exp2,2020.2.5,Win32,60,z,1,0.52323,,,,,,,,0.52323,1,,,,,,446,NW,UN,16,gircue,RUNAMO,z,,,,,,0.083333333,-0.40234375,0,0,0,,0,388,388,445,1,
,,,,,,,,,,,,,,,,,,5f350486d0c0764216b6745e,2020-11-26_15h58.42.136,lexical_decision_task_MP_exp2,2020.2.5,Win32,60,z,1,0.61699,,,,,,,,0.61699,1,,,,,,312,NW,"ID",16,nerawl,NERAWL,z,,,,,,0.083333333,-0.40234375,0,0,0,,0,389,389,311,1,
,,,,,,,,,,,,,,,,,,5f350486d0c0764216b6745e,2020-11-26_15h58.42.136,lexical_decision_task_MP_exp2,2020.2.5,Win32,60,z,1,0.60256,,,,,,,,0.60256,1,,,,,,259,NW,"ID",33,soudal,SOUDAL,z,,,,,,0.083333333,-0.40234375,0,0,0,,0,390,390,258,1,
,,,,,,,,,,,,,,,,,,5f350486d0c0764216b6745e,2020-11-26_15h58.42.136,lexical_decision_task_MP_exp2,2020.2.5,Win32,60,z,1,0.72098,,,,,,,,0.72098,1,,,,,,397,NW,UN,33,blunde,CAMBLE,z,,,,,,0.083333333,-0.40234375,0,0,0,,0,391,391,396,1,
,,,,,,,,,,,,,,,,,,5f350486d0c0764216b6745e,2020-11-26_15h58.42.136,lexical_decision_task_MP_exp2,2020.2.5,Win32,60,z,1,0.57903,,,,,,,,0.57903,1,,,,,,349,NW,"ID",16,asylen,ASYLEN,z,,,,,,0.083333333,-0.40234375,0,0,0,,0,392,392,348,1,
,,,,,,,,,,,,,,,,,,5f350486d0c0764216b6745e,2020-11-26_15h58.42.136,lexical_decision_task_MP_exp2,2020.2.5,Win32,60,m,1,0.565845,,,,,,,,0.565845,1,,,,,,74,WORD,"ID",16,plaque,PLAQUE,m,,,,,,0.083333333,-0.40234375,0,0,0,,0,393,393,73,1,
,,,,,,,,,,,,,,,,,,5f350486d0c0764216b6745e,2020-11-26_15h58.42.136,lexical_decision_task_MP_exp2,2020.2.5,Win32,60,m,1,0.59874,,,,,,,,0.59874,1,,,,,,171,WORD,UN,33,patrol,DEPART,m,,,,,,0.083333333,-0.40234375,0,0,0,,0,394,394,170,1,
,,,,,,,,,,,,,,,,,,5f350486d0c0764216b6745e,2020-11-26_15h58.42.136,lexical_decision_task_MP_exp2,2020.2.5,Win32,60,z,1,0.613975,,,,,,,,0.613975,1,,,,,,324,NW,"ID",16,steikh,STEIKH,z,,,,,,0.083333333,-0.40234375,0,0,0,,0,395,395,323,1,
,,,,,,,,,,,,,,,,,,5f350486d0c0764216b6745e,2020-11-26_15h58.42.136,lexical_decision_task_MP_exp2,2020.2.5,Win32,60,z,1,0.623535,,,,,,,,0.623535,1,,,,,,401,NW,UN,33,elopia,MUSTIL,z,,,,,,0.083333333,-0.40234375,0,0,0,,0,396,396,400,1,
