counterbalancing_condition,instr_done_keyboard.keys,instr_done_touch.x,instr_done_touch.y,instr_done_touch.leftButton,instr_done_touch.midButton,instr_done_touch.rightButton,instr_done_touch.clicked_name,instruction_pages.thisRepN,instruction_pages.thisTrialN,instruction_pages.thisN,instruction_pages.thisIndex,instruction_pages.ran,pageN,phase,instruct_text,has_image,instruct_image,participant,date,expName,psychopyVersion,OS,frameRate,response.keys,response.corr,response.rt,touch_resp.x,touch_resp.y,touch_resp.leftButton,touch_resp.midButton,touch_resp.rightButton,touch_resp.time,touch_resp.clicked_name,rt,corr,practice_trials.thisRepN,practice_trials.thisTrialN,practice_trials.thisN,practice_trials.thisIndex,practice_trials.ran,TrialID,StimulusType,Condition,PrimeDuration,Prime,Target,corrAns,end_of_practice_trials_pages.thisRepN,end_of_practice_trials_pages.thisTrialN,end_of_practice_trials_pages.thisN,end_of_practice_trials_pages.thisIndex,end_of_practice_trials_pages.ran,break_done_touch.x,break_done_touch.y,break_done_touch.leftButton,break_done_touch.midButton,break_done_touch.rightButton,break_done_keyboard.keys,experiment_trials.thisRepN,experiment_trials.thisTrialN,experiment_trials.thisN,experiment_trials.thisIndex,experiment_trials.ran,break_done_touch.clicked_name
0,,0.01828961,-0.389938449,1,0,0,instr_done_button,0,0,0,0,1,1,instructions,"INSTRUCTIONS
At the start of each trial, look at the hash marks (######) in the center of the screen. After a moment, a string of letters will appear. Your task is to indicate if the letter string forms a word or not (i.e., if it is a nonword). For example, AUTHOR is a word while AUTHON is a nonword.

Press the space bar or touch the button below to continue.",0,,5f3598f48853aa595c6733e2,2020-11-26_17h02.24.705,lexical_decision_task_MP_exp2,2020.2.5,Win32,60,,,,,,,,,,,,,,,,,,,,,,,,,,,,,,,,,,,,,,,,,
,,-0.060424973,-0.437167233,1,0,0,instr_done_button,0,1,1,1,1,2,instructions,"If your device has a keyboard, press the 'Z' key for nonwords and the 'M' key for words.





Press the space bar or touch the button below to continue.",1,keyboard-example.gif,5f3598f48853aa595c6733e2,2020-11-26_17h02.24.705,lexical_decision_task_MP_exp2,2020.2.5,Win32,60,,,,,,,,,,,,,,,,,,,,,,,,,,,,,,,,,,,,,,,,,
,,-0.061351027,-0.44272356,1,0,0,instr_done_button,0,2,2,2,1,3,instructions,"If you are using a touchscreen only device, use the buttons on the screen. Do not use the mouse.





Press the space bar or touch the button below to continue.",1,touchscreen-example.gif,5f3598f48853aa595c6733e2,2020-11-26_17h02.24.705,lexical_decision_task_MP_exp2,2020.2.5,Win32,60,,,,,,,,,,,,,,,,,,,,,,,,,,,,,,,,,,,,,,,,,
,,-0.051164484,-0.392716613,1,0,0,instr_done_button,0,3,3,3,1,4,instructions,"It is very important that you respond as quickly and accurately as possible, as each letter string will only be on the screen for two seconds. If you do not respond within this time, the message 'Too slow!' will be displayed and the experiment will progress to the next letter string. The first 20 trials will be practice trials and you will receive feedback on your answers. 

Press the space bar or touch the button below to start the practice trials.",0,,5f3598f48853aa595c6733e2,2020-11-26_17h02.24.705,lexical_decision_task_MP_exp2,2020.2.5,Win32,60,,,,,,,,,,,,,,,,,,,,,,,,,,,,,,,,,,,,,,,,,
,,,,,,,,,,,,,,,,,,5f3598f48853aa595c6733e2,2020-11-26_17h02.24.705,lexical_decision_task_MP_exp2,2020.2.5,Win32,60,z,1,1.34245,,,,,,,,1.34245,1,0,0,0,8,1,1009,NW,"ID",33,aslert,ASLERT,z,,,,,,,,,,,,,,,,,
,,,,,,,,,,,,,,,,,,5f3598f48853aa595c6733e2,2020-11-26_17h02.24.705,lexical_decision_task_MP_exp2,2020.2.5,Win32,60,z,1,0.524145,,,,,,,,0.524145,1,0,1,1,10,1,1011,NW,"ID",16,inlade,INLADE,z,,,,,,,,,,,,,,,,,
,,,,,,,,,,,,,,,,,,5f3598f48853aa595c6733e2,2020-11-26_17h02.24.705,lexical_decision_task_MP_exp2,2020.2.5,Win32,60,z,0,0.090005,,,,,,,,0.090005,0,0,2,2,2,1,1003,WORD,"ID",16,almond,ALMOND,m,,,,,,,,,,,,,,,,,
,,,,,,,,,,,,,,,,,,5f3598f48853aa595c6733e2,2020-11-26_17h02.24.705,lexical_decision_task_MP_exp2,2020.2.5,Win32,60,m,1,1.136595,,,,,,,,1.136595,1,0,3,3,1,1,1002,WORD,"ID",33,adjust,ADJUST,m,,,,,,,,,,,,,,,,,
,,,,,,,,,,,,,,,,,,5f3598f48853aa595c6733e2,2020-11-26_17h02.24.705,lexical_decision_task_MP_exp2,2020.2.5,Win32,60,m,1,0.982285,,,,,,,,0.982285,1,0,4,4,7,1,1008,WORD,UN,16,hurdle,VOLUME,m,,,,,,,,,,,,,,,,,
,,,,,,,,,,,,,,,,,,5f3598f48853aa595c6733e2,2020-11-26_17h02.24.705,lexical_decision_task_MP_exp2,2020.2.5,Win32,60,z,1,0.864145,,,,,,,,0.864145,1,0,5,5,14,1,1015,NW,UN,16,miaber,THRALE,z,,,,,,,,,,,,,,,,,
,,,,,,,,,,,,,,,,,,5f3598f48853aa595c6733e2,2020-11-26_17h02.24.705,lexical_decision_task_MP_exp2,2020.2.5,Win32,60,z,1,0.701765,,,,,,,,0.701765,1,0,6,6,15,1,1016,NW,UN,16,mushed,WHAISE,z,,,,,,,,,,,,,,,,,
,,,,,,,,,,,,,,,,,,5f3598f48853aa595c6733e2,2020-11-26_17h02.24.705,lexical_decision_task_MP_exp2,2020.2.5,Win32,60,m,1,1.04495,,,,,,,,1.04495,1,0,7,7,5,1,1006,WORD,UN,33,frenzy,OBTAIN,m,,,,,,,,,,,,,,,,,
,,,,,,,,,,,,,,,,,,5f3598f48853aa595c6733e2,2020-11-26_17h02.24.705,lexical_decision_task_MP_exp2,2020.2.5,Win32,60,m,1,0.683615,,,,,,,,0.683615,1,0,8,8,4,1,1005,WORD,UN,33,abound,SQUEAK,m,,,,,,,,,,,,,,,,,
,,,,,,,,,,,,,,,,,,5f3598f48853aa595c6733e2,2020-11-26_17h02.24.705,lexical_decision_task_MP_exp2,2020.2.5,Win32,60,m,1,0.6715,,,,,,,,0.6715,1,0,9,9,3,1,1004,WORD,"ID",16,matrix,MATRIX,m,,,,,,,,,,,,,,,,,
,,,,,,,,,,,,,,,,,,5f3598f48853aa595c6733e2,2020-11-26_17h02.24.705,lexical_decision_task_MP_exp2,2020.2.5,Win32,60,m,1,0.61667,,,,,,,,0.61667,1,0,10,10,6,1,1007,WORD,UN,16,tropic,ZOMBIE,m,,,,,,,,,,,,,,,,,
,,,,,,,,,,,,,,,,,,5f3598f48853aa595c6733e2,2020-11-26_17h02.24.705,lexical_decision_task_MP_exp2,2020.2.5,Win32,60,z,1,0.74994,,,,,,,,0.74994,1,0,11,11,9,1,1010,NW,"ID",33,fariny,FARINY,z,,,,,,,,,,,,,,,,,
,,,,,,,,,,,,,,,,,,5f3598f48853aa595c6733e2,2020-11-26_17h02.24.705,lexical_decision_task_MP_exp2,2020.2.5,Win32,60,m,0,0.80313,,,,,,,,0.80313,0,0,12,12,13,1,1014,NW,UN,33,winfer,ROUPET,z,,,,,,,,,,,,,,,,,
,,,,,,,,,,,,,,,,,,5f3598f48853aa595c6733e2,2020-11-26_17h02.24.705,lexical_decision_task_MP_exp2,2020.2.5,Win32,60,m,1,0.727295,,,,,,,,0.727295,1,0,13,13,0,1,1001,WORD,"ID",33,utopia,UTOPIA,m,,,,,,,,,,,,,,,,,
,,,,,,,,,,,,,,,,,,5f3598f48853aa595c6733e2,2020-11-26_17h02.24.705,lexical_decision_task_MP_exp2,2020.2.5,Win32,60,z,1,0.87142,,,,,,,,0.87142,1,0,14,14,11,1,1012,NW,"ID",16,rashet,RASHET,z,,,,,,,,,,,,,,,,,
,,,,,,,,,,,,,,,,,,5f3598f48853aa595c6733e2,2020-11-26_17h02.24.705,lexical_decision_task_MP_exp2,2020.2.5,Win32,60,z,1,0.853155,,,,,,,,0.853155,1,0,15,15,12,1,1013,NW,UN,33,adveil,SPRINY,z,,,,,,,,,,,,,,,,,
,,-0.033569447,-0.364935032,1,0,0,instr_done_button,,,,,,1,end_of_practice,"You have completed the practice trials. During the experimental trials, you will not receive feedback, but it is very important that you respond as quickly and accurately as possible. 
Before you begin, please ensure that you are in a comfortable and quiet location and will not be disturbed for about 15 minutes, as we cannot use your data if you do not complete all the trials. 
There will be opportunities to take breaks at regular intervals during the experiment. When you are ready to start the experimental trials, please press space or touch the button below.",,,5f3598f48853aa595c6733e2,2020-11-26_17h02.24.705,lexical_decision_task_MP_exp2,2020.2.5,Win32,60,,,,,,,,,,,,,,,,,,,,,,,,,0,0,0,0,1,,,,,,,,,,,,
,,,,,,,,,,,,,,,,,,5f3598f48853aa595c6733e2,2020-11-26_17h02.24.705,lexical_decision_task_MP_exp2,2020.2.5,Win32,60,z,1,0.95088,,,,,,,,0.95088,1,,,,,,410,NW,UN,16,orchin,TUNORY,z,,,,,,-0.033569447,-0.363082923,0,0,0,,0,0,0,469,1,
,,,,,,,,,,,,,,,,,,5f3598f48853aa595c6733e2,2020-11-26_17h02.24.705,lexical_decision_task_MP_exp2,2020.2.5,Win32,60,z,1,0.66581,,,,,,,,0.66581,1,,,,,,434,NW,"ID",33,pitrom,PITROM,z,,,,,,-0.033569447,-0.363082923,0,0,0,,0,1,1,253,1,
,,,,,,,,,,,,,,,,,,5f3598f48853aa595c6733e2,2020-11-26_17h02.24.705,lexical_decision_task_MP_exp2,2020.2.5,Win32,60,m,1,0.483685,,,,,,,,0.483685,1,,,,,,103,WORD,UN,33,studio,BOUNCE,m,,,,,,-0.033569447,-0.363082923,0,0,0,,0,2,2,162,1,
,,,,,,,,,,,,,,,,,,5f3598f48853aa595c6733e2,2020-11-26_17h02.24.705,lexical_decision_task_MP_exp2,2020.2.5,Win32,60,m,1,0.53371,,,,,,,,0.53371,1,,,,,,231,WORD,"ID",33,export,EXPORT,m,,,,,,-0.033569447,-0.363082923,0,0,0,,0,3,3,50,1,
,,,,,,,,,,,,,,,,,,5f3598f48853aa595c6733e2,2020-11-26_17h02.24.705,lexical_decision_task_MP_exp2,2020.2.5,Win32,60,z,1,0.584475,,,,,,,,0.584475,1,,,,,,264,NW,"ID",16,vackel,VACKEL,z,,,,,,-0.033569447,-0.363082923,0,0,0,,0,4,4,323,1,
,,,,,,,,,,,,,,,,,,5f3598f48853aa595c6733e2,2020-11-26_17h02.24.705,lexical_decision_task_MP_exp2,2020.2.5,Win32,60,m,1,0.52205,,,,,,,,0.52205,1,,,,,,157,WORD,UN,16,island,DRAGON,m,,,,,,-0.033569447,-0.363082923,0,0,0,,0,5,5,216,1,
,,,,,,,,,,,,,,,,,,5f3598f48853aa595c6733e2,2020-11-26_17h02.24.705,lexical_decision_task_MP_exp2,2020.2.5,Win32,60,z,1,0.959205,,,,,,,,0.959205,1,,,,,,336,NW,UN,33,rejols,GHODUS,z,,,,,,-0.033569447,-0.363082923,0,0,0,,0,6,6,395,1,
,,,,,,,,,,,,,,,,,,5f3598f48853aa595c6733e2,2020-11-26_17h02.24.705,lexical_decision_task_MP_exp2,2020.2.5,Win32,60,m,1,0.432345,,,,,,,,0.432345,1,,,,,,205,WORD,"ID",33,lounge,LOUNGE,m,,,,,,-0.033569447,-0.363082923,0,0,0,,0,7,7,24,1,
,,,,,,,,,,,,,,,,,,5f3598f48853aa595c6733e2,2020-11-26_17h02.24.705,lexical_decision_task_MP_exp2,2020.2.5,Win32,60,z,1,0.77054,,,,,,,,0.77054,1,,,,,,250,NW,"ID",16,milted,MILTED,z,,,,,,-0.033569447,-0.363082923,0,0,0,,0,8,8,309,1,
,,,,,,,,,,,,,,,,,,5f3598f48853aa595c6733e2,2020-11-26_17h02.24.705,lexical_decision_task_MP_exp2,2020.2.5,Win32,60,m,1,0.487365,,,,,,,,0.487365,1,,,,,,99,WORD,UN,33,carbon,FLUENT,m,,,,,,-0.033569447,-0.363082923,0,0,0,,0,9,9,158,1,
,,,,,,,,,,,,,,,,,,5f3598f48853aa595c6733e2,2020-11-26_17h02.24.705,lexical_decision_task_MP_exp2,2020.2.5,Win32,60,m,1,0.66973,,,,,,,,0.66973,1,,,,,,4,WORD,"ID",16,trench,TRENCH,m,,,,,,-0.033569447,-0.363082923,0,0,0,,0,10,10,63,1,
,,,,,,,,,,,,,,,,,,5f3598f48853aa595c6733e2,2020-11-26_17h02.24.705,lexical_decision_task_MP_exp2,2020.2.5,Win32,60,m,1,0.52732,,,,,,,,0.52732,1,,,,,,104,WORD,UN,33,number,STUDIO,m,,,,,,-0.033569447,-0.363082923,0,0,0,,0,11,11,163,1,
,,,,,,,,,,,,,,,,,,5f3598f48853aa595c6733e2,2020-11-26_17h02.24.705,lexical_decision_task_MP_exp2,2020.2.5,Win32,60,m,1,0.639195,,,,,,,,0.639195,1,,,,,,86,WORD,UN,33,filter,RODENT,m,,,,,,-0.033569447,-0.363082923,0,0,0,,0,12,12,145,1,
,,,,,,,,,,,,,,,,,,5f3598f48853aa595c6733e2,2020-11-26_17h02.24.705,lexical_decision_task_MP_exp2,2020.2.5,Win32,60,z,1,0.62429,,,,,,,,0.62429,1,,,,,,451,NW,"ID",33,cainky,CAINKY,z,,,,,,-0.033569447,-0.363082923,0,0,0,,0,13,13,270,1,
,,,,,,,,,,,,,,,,,,5f3598f48853aa595c6733e2,2020-11-26_17h02.24.705,lexical_decision_task_MP_exp2,2020.2.5,Win32,60,m,1,0.52612,,,,,,,,0.52612,1,,,,,,163,WORD,UN,16,market,STRING,m,,,,,,-0.033569447,-0.363082923,0,0,0,,0,14,14,222,1,
,,,,,,,,,,,,,,,,,,5f3598f48853aa595c6733e2,2020-11-26_17h02.24.705,lexical_decision_task_MP_exp2,2020.2.5,Win32,60,z,1,0.598425,,,,,,,,0.598425,1,,,,,,423,NW,"ID",33,streld,STRELD,z,,,,,,-0.033569447,-0.363082923,0,0,0,,0,15,15,242,1,
,,,,,,,,,,,,,,,,,,5f3598f48853aa595c6733e2,2020-11-26_17h02.24.705,lexical_decision_task_MP_exp2,2020.2.5,Win32,60,z,1,0.570065,,,,,,,,0.570065,1,,,,,,458,NW,"ID",33,barcet,BARCET,z,,,,,,-0.033569447,-0.363082923,0,0,0,,0,16,16,277,1,
,,,,,,,,,,,,,,,,,,5f3598f48853aa595c6733e2,2020-11-26_17h02.24.705,lexical_decision_task_MP_exp2,2020.2.5,Win32,60,m,1,0.46473,,,,,,,,0.46473,1,,,,,,135,WORD,UN,16,bleach,IMPORT,m,,,,,,-0.033569447,-0.363082923,0,0,0,,0,17,17,194,1,
,,,,,,,,,,,,,,,,,,5f3598f48853aa595c6733e2,2020-11-26_17h02.24.705,lexical_decision_task_MP_exp2,2020.2.5,Win32,60,z,1,0.6456,,,,,,,,0.6456,1,,,,,,348,NW,UN,33,asylen,DUMPLE,z,,,,,,-0.033569447,-0.363082923,0,0,0,,0,18,18,407,1,
,,,,,,,,,,,,,,,,,,5f3598f48853aa595c6733e2,2020-11-26_17h02.24.705,lexical_decision_task_MP_exp2,2020.2.5,Win32,60,m,1,0.440705,,,,,,,,0.440705,1,,,,,,118,WORD,UN,33,spider,FLIGHT,m,,,,,,-0.033569447,-0.363082923,0,0,0,,0,19,19,177,1,
,,,,,,,,,,,,,,,,,,5f3598f48853aa595c6733e2,2020-11-26_17h02.24.705,lexical_decision_task_MP_exp2,2020.2.5,Win32,60,m,1,0.549095,,,,,,,,0.549095,1,,,,,,24,WORD,"ID",16,praise,PRAISE,m,,,,,,-0.033569447,-0.363082923,0,0,0,,0,20,20,83,1,
,,,,,,,,,,,,,,,,,,5f3598f48853aa595c6733e2,2020-11-26_17h02.24.705,lexical_decision_task_MP_exp2,2020.2.5,Win32,60,m,1,0.50228,,,,,,,,0.50228,1,,,,,,88,WORD,UN,33,permit,HUNGER,m,,,,,,-0.033569447,-0.363082923,0,0,0,,0,21,21,147,1,
,,,,,,,,,,,,,,,,,,5f3598f48853aa595c6733e2,2020-11-26_17h02.24.705,lexical_decision_task_MP_exp2,2020.2.5,Win32,60,z,1,0.83508,,,,,,,,0.83508,1,,,,,,268,NW,"ID",16,packes,PACKES,z,,,,,,-0.033569447,-0.363082923,0,0,0,,0,22,22,327,1,
,,,,,,,,,,,,,,,,,,5f3598f48853aa595c6733e2,2020-11-26_17h02.24.705,lexical_decision_task_MP_exp2,2020.2.5,Win32,60,m,1,0.465835,,,,,,,,0.465835,1,,,,,,237,WORD,"ID",33,poster,POSTER,m,,,,,,-0.033569447,-0.363082923,0,0,0,,0,23,23,56,1,
,,,,,,,,,,,,,,,,,,5f3598f48853aa595c6733e2,2020-11-26_17h02.24.705,lexical_decision_task_MP_exp2,2020.2.5,Win32,60,m,1,0.698115,,,,,,,,0.698115,1,,,,,,139,WORD,UN,16,prince,DEBRIS,m,,,,,,-0.033569447,-0.363082923,0,0,0,,0,24,24,198,1,
,,,,,,,,,,,,,,,,,,5f3598f48853aa595c6733e2,2020-11-26_17h02.24.705,lexical_decision_task_MP_exp2,2020.2.5,Win32,60,z,0,0.590115,,,,,,,,0.590115,0,,,,,,111,WORD,UN,33,breath,INDUCE,m,,,,,,-0.033569447,-0.363082923,0,0,0,,0,25,25,170,1,
,,,,,,,,,,,,,,,,,,5f3598f48853aa595c6733e2,2020-11-26_17h02.24.705,lexical_decision_task_MP_exp2,2020.2.5,Win32,60,m,1,0.5215,,,,,,,,0.5215,1,,,,,,170,WORD,UN,16,dragon,POUNCE,m,,,,,,-0.033569447,-0.363082923,0,0,0,,0,26,26,229,1,
,,,,,,,,,,,,,,,,,,5f3598f48853aa595c6733e2,2020-11-26_17h02.24.705,lexical_decision_task_MP_exp2,2020.2.5,Win32,60,m,1,0.5901,,,,,,,,0.5901,1,,,,,,127,WORD,UN,16,senior,CASTLE,m,,,,,,-0.033569447,-0.363082923,0,0,0,,0,27,27,186,1,
,,,,,,,,,,,,,,,,,,5f3598f48853aa595c6733e2,2020-11-26_17h02.24.705,lexical_decision_task_MP_exp2,2020.2.5,Win32,60,z,1,0.55891,,,,,,,,0.55891,1,,,,,,302,NW,UN,33,fiream,MILUER,z,,,,,,-0.033569447,-0.363082923,0,0,0,,0,28,28,361,1,
,,,,,,,,,,,,,,,,,,5f3598f48853aa595c6733e2,2020-11-26_17h02.24.705,lexical_decision_task_MP_exp2,2020.2.5,Win32,60,m,0,0.485165,,,,,,,,0.485165,0,,,,,,345,NW,UN,33,saudic,ABSEND,z,,,,,,-0.033569447,-0.363082923,0,0,0,,0,29,29,404,1,
,,,,,,,,,,,,,,,,,,5f3598f48853aa595c6733e2,2020-11-26_17h02.24.705,lexical_decision_task_MP_exp2,2020.2.5,Win32,60,m,1,0.548275,,,,,,,,0.548275,1,,,,,,184,WORD,"ID",33,sleazy,SLEAZY,m,,,,,,-0.033569447,-0.363082923,0,0,0,,0,30,30,3,1,
,,,,,,,,,,,,,,,,,,5f3598f48853aa595c6733e2,2020-11-26_17h02.24.705,lexical_decision_task_MP_exp2,2020.2.5,Win32,60,z,1,0.948705,,,,,,,,0.948705,1,,,,,,367,NW,UN,16,hornal,SLIQUE,z,,,,,,-0.033569447,-0.363082923,0,0,0,,0,31,31,426,1,
,,,,,,,,,,,,,,,,,,5f3598f48853aa595c6733e2,2020-11-26_17h02.24.705,lexical_decision_task_MP_exp2,2020.2.5,Win32,60,m,1,0.52536,,,,,,,,0.52536,1,,,,,,151,WORD,UN,16,rocket,MYSTIC,m,,,,,,-0.033569447,-0.363082923,0,0,0,,0,32,32,210,1,
,,,,,,,,,,,,,,,,,,5f3598f48853aa595c6733e2,2020-11-26_17h02.24.705,lexical_decision_task_MP_exp2,2020.2.5,Win32,60,m,1,0.51998,,,,,,,,0.51998,1,,,,,,69,WORD,UN,33,square,PLENTY,m,,,,,,-0.033569447,-0.363082923,0,0,0,,0,33,33,128,1,
,,,,,,,,,,,,,,,,,,5f3598f48853aa595c6733e2,2020-11-26_17h02.24.705,lexical_decision_task_MP_exp2,2020.2.5,Win32,60,m,1,0.499965,,,,,,,,0.499965,1,,,,,,180,WORD,UN,16,thrive,SILENT,m,,,,,,-0.033569447,-0.363082923,0,0,0,,0,34,34,239,1,
,,,,,,,,,,,,,,,,,,5f3598f48853aa595c6733e2,2020-11-26_17h02.24.705,lexical_decision_task_MP_exp2,2020.2.5,Win32,60,m,1,0.51657,,,,,,,,0.51657,1,,,,,,33,WORD,"ID",16,butler,BUTLER,m,,,,,,-0.033569447,-0.363082923,0,0,0,,0,35,35,92,1,
,,,,,,,,,,,,,,,,,,5f3598f48853aa595c6733e2,2020-11-26_17h02.24.705,lexical_decision_task_MP_exp2,2020.2.5,Win32,60,m,1,0.51779,,,,,,,,0.51779,1,,,,,,204,WORD,"ID",33,burden,BURDEN,m,,,,,,-0.033569447,-0.363082923,0,0,0,,0,36,36,23,1,
,,,,,,,,,,,,,,,,,,5f3598f48853aa595c6733e2,2020-11-26_17h02.24.705,lexical_decision_task_MP_exp2,2020.2.5,Win32,60,m,0,0.817405,,,,,,,,0.817405,0,,,,,,303,NW,UN,33,cludie,FIREAM,z,,,,,,-0.033569447,-0.363082923,0,0,0,,0,37,37,362,1,
,,,,,,,,,,,,,,,,,,5f3598f48853aa595c6733e2,2020-11-26_17h02.24.705,lexical_decision_task_MP_exp2,2020.2.5,Win32,60,z,1,0.79617,,,,,,,,0.79617,1,,,,,,445,NW,"ID",33,minkel,MINKEL,z,,,,,,-0.033569447,-0.363082923,0,0,0,,0,38,38,264,1,
,,,,,,,,,,,,,,,,,,5f3598f48853aa595c6733e2,2020-11-26_17h02.24.705,lexical_decision_task_MP_exp2,2020.2.5,Win32,60,z,1,0.772485,,,,,,,,0.772485,1,,,,,,243,NW,"ID",16,musied,MUSIED,z,,,,,,-0.033569447,-0.363082923,0,0,0,,0,39,39,302,1,
,,,,,,,,,,,,,,,,,,5f3598f48853aa595c6733e2,2020-11-26_17h02.24.705,lexical_decision_task_MP_exp2,2020.2.5,Win32,60,m,0,0.733995,,,,,,,,0.733995,0,,,,,,332,NW,UN,33,catrie,VANGUE,z,,,,,,-0.033569447,-0.363082923,0,0,0,,0,40,40,391,1,
,,,,,,,,,,,,,,,,,,5f3598f48853aa595c6733e2,2020-11-26_17h02.24.705,lexical_decision_task_MP_exp2,2020.2.5,Win32,60,z,1,0.72839,,,,,,,,0.72839,1,,,,,,363,NW,UN,16,impote,BREALI,z,,,,,,-0.033569447,-0.363082923,0,0,0,,0,41,41,422,1,
,,,,,,,,,,,,,,,,,,5f3598f48853aa595c6733e2,2020-11-26_17h02.24.705,lexical_decision_task_MP_exp2,2020.2.5,Win32,60,z,1,0.566525,,,,,,,,0.566525,1,,,,,,246,NW,"ID",16,piaton,PIATON,z,,,,,,-0.033569447,-0.363082923,0,0,0,,0,42,42,305,1,
,,,,,,,,,,,,,,,,,,5f3598f48853aa595c6733e2,2020-11-26_17h02.24.705,lexical_decision_task_MP_exp2,2020.2.5,Win32,60,m,1,0.58468,,,,,,,,0.58468,1,,,,,,121,WORD,UN,16,linger,THRIVE,m,,,,,,-0.033569447,-0.363082923,0,0,0,,0,43,43,180,1,
,,,,,,,,,,,,,,,,,,5f3598f48853aa595c6733e2,2020-11-26_17h02.24.705,lexical_decision_task_MP_exp2,2020.2.5,Win32,60,m,1,0.817895,,,,,,,,0.817895,1,,,,,,212,WORD,"ID",33,verify,VERIFY,m,,,,,,-0.033569447,-0.363082923,0,0,0,,0,44,44,31,1,
,,,,,,,,,,,,,,,,,,5f3598f48853aa595c6733e2,2020-11-26_17h02.24.705,lexical_decision_task_MP_exp2,2020.2.5,Win32,60,m,1,0.493315,,,,,,,,0.493315,1,,,,,,41,WORD,"ID",16,spring,SPRING,m,,,,,,-0.033569447,-0.363082923,0,0,0,,0,45,45,100,1,
,,,,,,,,,,,,,,,,,,5f3598f48853aa595c6733e2,2020-11-26_17h02.24.705,lexical_decision_task_MP_exp2,2020.2.5,Win32,60,z,1,0.635245,,,,,,,,0.635245,1,,,,,,377,NW,UN,16,shrile,INJORE,z,,,,,,-0.033569447,-0.363082923,0,0,0,,0,46,46,436,1,
,,,,,,,,,,,,,,,,,,5f3598f48853aa595c6733e2,2020-11-26_17h02.24.705,lexical_decision_task_MP_exp2,2020.2.5,Win32,60,z,1,0.78324,,,,,,,,0.78324,1,,,,,,322,NW,UN,33,rosail,SLANCH,z,,,,,,-0.033569447,-0.363082923,0,0,0,,0,47,47,381,1,
,,,,,,,,,,,,,,,,,,5f3598f48853aa595c6733e2,2020-11-26_17h02.24.705,lexical_decision_task_MP_exp2,2020.2.5,Win32,60,z,1,0.791575,,,,,,,,0.791575,1,,,,,,270,NW,"ID",16,wrimsy,WRIMSY,z,,,,,,-0.033569447,-0.363082923,0,0,0,,0,48,48,329,1,
,,,,,,,,,,,,,,,,,,5f3598f48853aa595c6733e2,2020-11-26_17h02.24.705,lexical_decision_task_MP_exp2,2020.2.5,Win32,60,z,1,0.61708,,,,,,,,0.61708,1,,,,,,287,NW,"ID",16,nymbel,NYMBEL,z,,,,,,-0.033569447,-0.363082923,0,0,0,,0,49,49,346,1,
,,,,,,,,,,,,,,,,,,5f3598f48853aa595c6733e2,2020-11-26_17h02.24.705,lexical_decision_task_MP_exp2,2020.2.5,Win32,60,z,1,0.586755,,,,,,,,0.586755,1,,,,,,318,NW,UN,33,zomber,REAGLY,z,,,,,,-0.033569447,-0.363082923,0,0,0,,0,50,50,377,1,
,,,,,,,,,,,,,,,,,,5f3598f48853aa595c6733e2,2020-11-26_17h02.24.705,lexical_decision_task_MP_exp2,2020.2.5,Win32,60,m,1,0.51695,,,,,,,,0.51695,1,,,,,,8,WORD,"ID",16,abrupt,ABRUPT,m,,,,,,-0.033569447,-0.363082923,0,0,0,,0,51,51,67,1,
,,,,,,,,,,,,,,,,,,5f3598f48853aa595c6733e2,2020-11-26_17h02.24.705,lexical_decision_task_MP_exp2,2020.2.5,Win32,60,m,1,0.716525,,,,,,,,0.716525,1,,,,,,122,WORD,UN,16,strike,LINGER,m,,,,,,-0.033569447,-0.363082923,0,0,0,,0,52,52,181,1,
,,,,,,,,,,,,,,,,,,5f3598f48853aa595c6733e2,2020-11-26_17h02.24.705,lexical_decision_task_MP_exp2,2020.2.5,Win32,60,m,1,0.467605,,,,,,,,0.467605,1,,,,,,223,WORD,"ID",33,kidney,KIDNEY,m,,,,,,-0.033569447,-0.363082923,0,0,0,,0,53,53,42,1,
,,,,,,,,,,,,,,,,,,5f3598f48853aa595c6733e2,2020-11-26_17h02.24.705,lexical_decision_task_MP_exp2,2020.2.5,Win32,60,z,1,0.52064,,,,,,,,0.52064,1,,,,,,343,NW,UN,33,scrily,AIMOSY,z,,,,,,-0.033569447,-0.363082923,0,0,0,,0,54,54,402,1,
,,,,,,,,,,,,,,,,,,5f3598f48853aa595c6733e2,2020-11-26_17h02.24.705,lexical_decision_task_MP_exp2,2020.2.5,Win32,60,m,1,0.46267,,,,,,,,0.46267,1,,,,,,150,WORD,UN,16,mystic,RANDOM,m,,,,,,-0.033569447,-0.363082923,0,0,0,,0,55,55,209,1,
,,,,,,,,,,,,,,,,,,5f3598f48853aa595c6733e2,2020-11-26_17h02.24.705,lexical_decision_task_MP_exp2,2020.2.5,Win32,60,z,1,0.55601,,,,,,,,0.55601,1,,,,,,310,NW,UN,33,sproly,DANIET,z,,,,,,-0.033569447,-0.363082923,0,0,0,,0,56,56,369,1,
,,,,,,,,,,,,,,,,,,5f3598f48853aa595c6733e2,2020-11-26_17h02.24.705,lexical_decision_task_MP_exp2,2020.2.5,Win32,60,z,1,0.834085,,,,,,,,0.834085,1,,,,,,396,NW,UN,16,camble,FLENGY,z,,,,,,-0.033569447,-0.363082923,0,0,0,,0,57,57,455,1,
,,,,,,,,,,,,,,,,,,5f3598f48853aa595c6733e2,2020-11-26_17h02.24.705,lexical_decision_task_MP_exp2,2020.2.5,Win32,60,m,1,0.617165,,,,,,,,0.617165,1,,,,,,49,WORD,"ID",16,survey,SURVEY,m,,,,,,-0.033569447,-0.363082923,0,0,0,,0,58,58,108,1,
,,,,,,,,,,,,,,,,,,5f3598f48853aa595c6733e2,2020-11-26_17h02.24.705,lexical_decision_task_MP_exp2,2020.2.5,Win32,60,z,1,0.55003,,,,,,,,0.55003,1,,,,,,339,NW,UN,33,fiatch,FACHOW,z,,,,,,-0.033569447,-0.363082923,0,0,0,,0,59,59,398,1,
,,,,,,,,,,,,,,,,,,5f3598f48853aa595c6733e2,2020-11-26_17h02.24.705,lexical_decision_task_MP_exp2,2020.2.5,Win32,60,z,1,0.63429,,,,,,,,0.63429,1,,,,,,298,NW,"ID",16,piergy,PIERGY,z,,,,,,-0.033569447,-0.363082923,0,0,0,,0,60,60,357,1,
,,,,,,,,,,,,,,,,,,5f3598f48853aa595c6733e2,2020-11-26_17h02.24.705,lexical_decision_task_MP_exp2,2020.2.5,Win32,60,z,1,0.579065,,,,,,,,0.579065,1,,,,,,275,NW,"ID",16,sleirt,SLEIRT,z,,,,,,-0.033569447,-0.363082923,0,0,0,,0,61,61,334,1,
,,,,,,,,,,,,,,,,,,5f3598f48853aa595c6733e2,2020-11-26_17h02.24.705,lexical_decision_task_MP_exp2,2020.2.5,Win32,60,m,1,0.52204,,,,,,,,0.52204,1,,,,,,90,WORD,UN,33,expand,RELISH,m,,,,,,-0.033569447,-0.363082923,0,0,0,,0,62,62,149,1,
,,,,,,,,,,,,,,,,,,5f3598f48853aa595c6733e2,2020-11-26_17h02.24.705,lexical_decision_task_MP_exp2,2020.2.5,Win32,60,m,1,0.79998,,,,,,,,0.79998,1,,,,,,9,WORD,"ID",16,hustle,HUSTLE,m,,,,,,-0.033569447,-0.363082923,0,0,0,,0,63,63,68,1,
,,,,,,,,,,,,,,,,,,5f3598f48853aa595c6733e2,2020-11-26_17h02.24.705,lexical_decision_task_MP_exp2,2020.2.5,Win32,60,z,1,0.51295,,,,,,,,0.51295,1,,,,,,471,NW,"ID",33,nobest,NOBEST,z,,,,,,-0.033569447,-0.363082923,0,0,0,,0,64,64,290,1,
,,,,,,,,,,,,,,,,,,5f3598f48853aa595c6733e2,2020-11-26_17h02.24.705,lexical_decision_task_MP_exp2,2020.2.5,Win32,60,z,1,0.56134,,,,,,,,0.56134,1,,,,,,412,NW,UN,16,equats,JILUER,z,,,,,,-0.033569447,-0.363082923,0,0,0,,0,65,65,471,1,
,,,,,,,,,,,,,,,,,,5f3598f48853aa595c6733e2,2020-11-26_17h02.24.705,lexical_decision_task_MP_exp2,2020.2.5,Win32,60,m,1,0.43374,,,,,,,,0.43374,1,,,,,,193,WORD,"ID",33,object,OBJECT,m,,,,,,-0.033569447,-0.363082923,0,0,0,,0,66,66,12,1,
,,,,,,,,,,,,,,,,,,5f3598f48853aa595c6733e2,2020-11-26_17h02.24.705,lexical_decision_task_MP_exp2,2020.2.5,Win32,60,z,1,0.57522,,,,,,,,0.57522,1,,,,,,428,NW,"ID",33,tandly,TANDLY,z,,,,,,-0.033569447,-0.363082923,0,0,0,,0,67,67,247,1,
,,,,,,,,,,,,,,,,,,5f3598f48853aa595c6733e2,2020-11-26_17h02.24.705,lexical_decision_task_MP_exp2,2020.2.5,Win32,60,m,1,0.58722,,,,,,,,0.58722,1,,,,,,25,WORD,"ID",16,domain,DOMAIN,m,,,,,,-0.033569447,-0.363082923,0,0,0,,0,68,68,84,1,
,,,,,,,,,,,,,,,,,,5f3598f48853aa595c6733e2,2020-11-26_17h02.24.705,lexical_decision_task_MP_exp2,2020.2.5,Win32,60,m,1,0.566515,,,,,,,,0.566515,1,,,,,,100,WORD,UN,33,wrench,CARBON,m,,,,,,-0.033569447,-0.363082923,0,0,0,,0,69,69,159,1,
,,,,,,,,,,,,,,,,,,5f3598f48853aa595c6733e2,2020-11-26_17h02.24.705,lexical_decision_task_MP_exp2,2020.2.5,Win32,60,m,1,0.6171,,,,,,,,0.6171,1,,,,,,32,WORD,"ID",16,buckle,BUCKLE,m,,,,,,-0.033569447,-0.363082923,0,0,0,,0,70,70,91,1,
,,,,,,,,,,,,,,,,,,5f3598f48853aa595c6733e2,2020-11-26_17h02.24.705,lexical_decision_task_MP_exp2,2020.2.5,Win32,60,m,1,0.583395,,,,,,,,0.583395,1,,,,,,161,WORD,UN,16,candle,PASTOR,m,,,,,,-0.033569447,-0.363082923,0,0,0,,0,71,71,220,1,
,,,,,,,,,,,,,,,,,,5f3598f48853aa595c6733e2,2020-11-26_17h02.24.705,lexical_decision_task_MP_exp2,2020.2.5,Win32,60,m,0,0.81699,,,,,,,,0.81699,0,,,,,,341,NW,UN,33,randow,MYRTIE,z,,,,,,-0.033569447,-0.363082923,0,0,0,,0,72,72,400,1,
,,,,,,,,,,,,,,,,,,5f3598f48853aa595c6733e2,2020-11-26_17h02.24.705,lexical_decision_task_MP_exp2,2020.2.5,Win32,60,z,1,0.642525,,,,,,,,0.642525,1,,,,,,413,NW,UN,16,serbol,EQUATS,z,,,,,,-0.033569447,-0.363082923,0,0,0,,0,73,73,472,1,
,,,,,,,,,,,,,,,,,,5f3598f48853aa595c6733e2,2020-11-26_17h02.24.705,lexical_decision_task_MP_exp2,2020.2.5,Win32,60,z,1,0.82497,,,,,,,,0.82497,1,,,,,,468,NW,"ID",33,wictor,WICTOR,z,,,,,,-0.033569447,-0.363082923,0,0,0,,0,74,74,287,1,
,,,,,,,,,,,,,,,,,,5f3598f48853aa595c6733e2,2020-11-26_17h02.24.705,lexical_decision_task_MP_exp2,2020.2.5,Win32,60,m,1,0.500555,,,,,,,,0.500555,1,,,,,,46,WORD,"ID",16,single,SINGLE,m,,,,,,-0.033569447,-0.363082923,0,0,0,,0,75,75,105,1,
,,,,,,,,,,,,,,,,,,5f3598f48853aa595c6733e2,2020-11-26_17h02.24.705,lexical_decision_task_MP_exp2,2020.2.5,Win32,60,m,1,0.51686,,,,,,,,0.51686,1,,,,,,169,WORD,UN,16,pounce,GENIUS,m,,,,,,-0.033569447,-0.363082923,0,0,0,,0,76,76,228,1,
,,,,,,,,,,,,,,,,,,5f3598f48853aa595c6733e2,2020-11-26_17h02.24.705,lexical_decision_task_MP_exp2,2020.2.5,Win32,60,z,1,0.741955,,,,,,,,0.741955,1,,,,,,261,NW,"ID",16,stunch,STUNCH,z,,,,,,-0.033569447,-0.363082923,0,0,0,,0,77,77,320,1,
,,,,,,,,,,,,,,,,,,5f3598f48853aa595c6733e2,2020-11-26_17h02.24.705,lexical_decision_task_MP_exp2,2020.2.5,Win32,60,m,1,0.449865,,,,,,,,0.449865,1,,,,,,28,WORD,"ID",16,comedy,COMEDY,m,,,,,,-0.033569447,-0.363082923,0,0,0,,0,78,78,87,1,
,,,,,,,,,,,,,,,,,,5f3598f48853aa595c6733e2,2020-11-26_17h02.24.705,lexical_decision_task_MP_exp2,2020.2.5,Win32,60,m,1,0.65032,,,,,,,,0.65032,1,,,,,,29,WORD,"ID",16,sketch,SKETCH,m,,,,,,-0.033569447,-0.363082923,0,0,0,,0,79,79,88,1,
,,,,,,,,,,,,,,,,,,5f3598f48853aa595c6733e2,2020-11-26_17h02.24.705,lexical_decision_task_MP_exp2,2020.2.5,Win32,60,m,1,0.59669,,,,,,,,0.59669,1,,,,,,211,WORD,"ID",33,infect,INFECT,m,,,,,,-0.033569447,-0.363082923,0,0,0,,0,80,80,30,1,
,,,,,,,,,,,,,,,,,,5f3598f48853aa595c6733e2,2020-11-26_17h02.24.705,lexical_decision_task_MP_exp2,2020.2.5,Win32,60,z,1,0.700755,,,,,,,,0.700755,1,,,,,,349,NW,UN,33,nagurs,ASYLEN,z,,,,,,-0.033569447,-0.363082923,0,0,0,,0,81,81,408,1,
,,,,,,,,,,,,,,,,,,5f3598f48853aa595c6733e2,2020-11-26_17h02.24.705,lexical_decision_task_MP_exp2,2020.2.5,Win32,60,m,1,0.543795,,,,,,,,0.543795,1,,,,,,96,WORD,UN,33,client,IGNORE,m,,,,,,-0.033569447,-0.363082923,0,0,0,,0,82,82,155,1,
,,,,,,,,,,,,,,,,,,5f3598f48853aa595c6733e2,2020-11-26_17h02.24.705,lexical_decision_task_MP_exp2,2020.2.5,Win32,60,m,1,0.534175,,,,,,,,0.534175,1,,,,,,201,WORD,"ID",33,admire,ADMIRE,m,,,,,,-0.033569447,-0.363082923,0,0,0,,0,83,83,20,1,
,,,,,,,,,,,,,,,,,,5f3598f48853aa595c6733e2,2020-11-26_17h02.24.705,lexical_decision_task_MP_exp2,2020.2.5,Win32,60,m,1,0.53037,,,,,,,,0.53037,1,,,,,,164,WORD,UN,16,invest,MARKET,m,,,,,,-0.033569447,-0.363082923,0,0,0,,0,84,84,223,1,
,,,,,,,,,,,,,,,,,,5f3598f48853aa595c6733e2,2020-11-26_17h02.24.705,lexical_decision_task_MP_exp2,2020.2.5,Win32,60,m,1,0.50261,,,,,,,,0.50261,1,,,,,,233,WORD,"ID",33,nature,NATURE,m,,,,,,-0.033569447,-0.363082923,0,0,0,,0,85,85,52,1,
,,,,,,,,,,,,,,,,,,5f3598f48853aa595c6733e2,2020-11-26_17h02.24.705,lexical_decision_task_MP_exp2,2020.2.5,Win32,60,m,1,0.4837,,,,,,,,0.4837,1,,,,,,93,WORD,UN,33,travel,PUBLIC,m,,,,,,-0.033569447,-0.363082923,0,0,0,,0,86,86,152,1,
,,,,,,,,,,,,,,,,,,5f3598f48853aa595c6733e2,2020-11-26_17h02.24.705,lexical_decision_task_MP_exp2,2020.2.5,Win32,60,m,1,0.51408,,,,,,,,0.51408,1,,,,,,73,WORD,UN,33,plaque,SOURCE,m,,,,,,-0.033569447,-0.363082923,0,0,0,,0,87,87,132,1,
,,,,,,,,,,,,,,,,,,5f3598f48853aa595c6733e2,2020-11-26_17h02.24.705,lexical_decision_task_MP_exp2,2020.2.5,Win32,60,m,0,0.504075,,,,,,,,0.504075,0,,,,,,381,NW,UN,16,sarley,HUNIEK,z,,,,,,-0.033569447,-0.363082923,0,0,0,,0,88,88,440,1,
,,,,,,,,,,,,,,,,,,5f3598f48853aa595c6733e2,2020-11-26_17h02.24.705,lexical_decision_task_MP_exp2,2020.2.5,Win32,60,m,1,0.650755,,,,,,,,0.650755,1,,,,,,83,WORD,UN,33,mortal,RESULT,m,,,,,,-0.033569447,-0.363082923,0,0,0,,0,89,89,142,1,
,,,,,,,,,,,,,,,,,,5f3598f48853aa595c6733e2,2020-11-26_17h02.24.705,lexical_decision_task_MP_exp2,2020.2.5,Win32,60,m,1,0.590965,,,,,,,,0.590965,1,,,,,,208,WORD,"ID",33,hockey,HOCKEY,m,,,,,,-0.033569447,-0.363082923,0,0,0,,0,90,90,27,1,
,,,,,,,,,,,,,,,,,,5f3598f48853aa595c6733e2,2020-11-26_17h02.24.705,lexical_decision_task_MP_exp2,2020.2.5,Win32,60,m,1,0.65984,,,,,,,,0.65984,1,,,,,,30,WORD,"ID",16,orient,ORIENT,m,,,,,,-0.033569447,-0.363082923,0,0,0,,0,91,91,89,1,
,,,,,,,,,,,,,,,,,,5f3598f48853aa595c6733e2,2020-11-26_17h02.24.705,lexical_decision_task_MP_exp2,2020.2.5,Win32,60,m,1,0.492165,,,,,,,,0.492165,1,,,,,,18,WORD,"ID",16,humble,HUMBLE,m,,,,,,-0.033569447,-0.363082923,0,0,0,,0,92,92,77,1,
,,,,,,,,,,,,,,,,,,5f3598f48853aa595c6733e2,2020-11-26_17h02.24.705,lexical_decision_task_MP_exp2,2020.2.5,Win32,60,m,1,0.55274,,,,,,,,0.55274,1,,,,,,177,WORD,UN,16,inform,ADVENT,m,,,,,,-0.033569447,-0.363082923,0,0,0,,0,93,93,236,1,
,,,,,,,,,,,,,,,,,,5f3598f48853aa595c6733e2,2020-11-26_17h02.24.705,lexical_decision_task_MP_exp2,2020.2.5,Win32,60,z,0,0.547345,,,,,,,,0.547345,0,,,,,,79,WORD,UN,33,family,THEORY,m,,,,,,-0.033569447,-0.363082923,0,0,0,,0,94,94,138,1,
,,,,,,,,,,,,,,,,,,5f3598f48853aa595c6733e2,2020-11-26_17h02.24.705,lexical_decision_task_MP_exp2,2020.2.5,Win32,60,z,1,0.724815,,,,,,,,0.724815,1,,,,,,387,NW,UN,16,cragin,GRONCE,z,,,,,,-0.033569447,-0.363082923,0,0,0,,0,95,95,446,1,
,,,,,,,,,,,,,,,,,,5f3598f48853aa595c6733e2,2020-11-26_17h02.24.705,lexical_decision_task_MP_exp2,2020.2.5,Win32,60,z,1,0.81636,,,,,,,,0.81636,1,,,,,,455,NW,"ID",33,tondle,TONDLE,z,,,,,,-0.033569447,-0.363082923,0,0,0,,0,96,96,274,1,
,,,,,,,,,,,,,,,,,,5f3598f48853aa595c6733e2,2020-11-26_17h02.24.705,lexical_decision_task_MP_exp2,2020.2.5,Win32,60,m,0,0.66745,,,,,,,,0.66745,0,,,,,,402,NW,UN,16,bruats,SYNTIC,z,,,,,,-0.033569447,-0.363082923,0,0,0,,0,97,97,461,1,
,,,,,,,,,,,,,,,,,,5f3598f48853aa595c6733e2,2020-11-26_17h02.24.705,lexical_decision_task_MP_exp2,2020.2.5,Win32,60,m,1,0.52509,,,,,,,,0.52509,1,,,,,,202,WORD,"ID",33,factor,FACTOR,m,,,,,,-0.033569447,-0.363082923,0,0,0,,0,98,98,21,1,
,,,,,,,,,,,,,,,,,,5f3598f48853aa595c6733e2,2020-11-26_17h02.24.705,lexical_decision_task_MP_exp2,2020.2.5,Win32,60,z,1,0.64415,,,,,,,,0.64415,1,,,,,,346,NW,UN,33,kerift,SAUDIC,z,,,,,,-0.033569447,-0.363082923,0,0,0,,0,99,99,405,1,
,,,,,,,,,,,,,,,,,,5f3598f48853aa595c6733e2,2020-11-26_17h02.24.705,lexical_decision_task_MP_exp2,2020.2.5,Win32,60,z,1,0.633705,,,,,,,,0.633705,1,,,,,,293,NW,"ID",16,swance,SWANCE,z,,,,,,-0.033569447,-0.363082923,0,0,0,,0,100,100,352,1,
,,,,,,,,,,,,,,,,,,5f3598f48853aa595c6733e2,2020-11-26_17h02.24.705,lexical_decision_task_MP_exp2,2020.2.5,Win32,60,z,1,0.55235,,,,,,,,0.55235,1,,,,,,262,NW,"ID",16,quilew,QUILEW,z,,,,,,-0.033569447,-0.363082923,0,0,0,,0,101,101,321,1,
,,,,,,,,,,,,,,,,,,5f3598f48853aa595c6733e2,2020-11-26_17h02.24.705,lexical_decision_task_MP_exp2,2020.2.5,Win32,60,z,0,0.57732,,,,,,,,0.57732,0,,,,,,189,WORD,"ID",33,censor,CENSOR,m,,,,,,-0.033569447,-0.363082923,0,0,0,,0,102,102,8,1,
,,,,,,,,,,,,,,,,,,5f3598f48853aa595c6733e2,2020-11-26_17h02.24.705,lexical_decision_task_MP_exp2,2020.2.5,Win32,60,m,1,0.783165,,,,,,,,0.783165,1,,,,,,64,WORD,UN,33,symbol,THRONE,m,,,,,,-0.033569447,-0.363082923,0,0,0,,0,103,103,123,1,
,,,,,,,,,,,,,,,,,,5f3598f48853aa595c6733e2,2020-11-26_17h02.24.705,lexical_decision_task_MP_exp2,2020.2.5,Win32,60,z,1,0.59785,,,,,,,,0.59785,1,,,,,,393,NW,UN,16,spaqux,GANOUS,z,,,,,,-0.033569447,-0.363082923,0,0,0,,0,104,104,452,1,
,,,,,,,,,,,,,,,,,,5f3598f48853aa595c6733e2,2020-11-26_17h02.24.705,lexical_decision_task_MP_exp2,2020.2.5,Win32,60,z,1,0.584075,,,,,,,,0.584075,1,,,,,,241,NW,"ID",16,smenco,SMENCO,z,,,,,,-0.033569447,-0.363082923,0,0,0,,0,105,105,300,1,
,,,,,,,,,,,,,,,,,,5f3598f48853aa595c6733e2,2020-11-26_17h02.24.705,lexical_decision_task_MP_exp2,2020.2.5,Win32,60,m,1,0.499515,,,,,,,,0.499515,1,,,,,,27,WORD,"ID",16,scream,SCREAM,m,,,,,,-0.033569447,-0.363082923,0,0,0,,0,106,106,86,1,
,,,,,,,,,,,,,,,,,,5f3598f48853aa595c6733e2,2020-11-26_17h02.24.705,lexical_decision_task_MP_exp2,2020.2.5,Win32,60,m,1,0.728025,,,,,,,,0.728025,1,,,,,,175,WORD,UN,16,strife,FABRIC,m,,,,,,-0.033569447,-0.363082923,0,0,0,,0,107,107,234,1,
,,,,,,,,,,,,,,,,,,5f3598f48853aa595c6733e2,2020-11-26_17h02.24.705,lexical_decision_task_MP_exp2,2020.2.5,Win32,60,m,1,0.528215,,,,,,,,0.528215,1,,,,,,59,WORD,"ID",16,splint,SPLINT,m,,,,,,-0.033569447,-0.363082923,0,0,0,,0,108,108,118,1,
,,,,,,,,,,,,,,,,,,5f3598f48853aa595c6733e2,2020-11-26_17h02.24.705,lexical_decision_task_MP_exp2,2020.2.5,Win32,60,m,1,0.866085,,,,,,,,0.866085,1,,,,,,187,WORD,"ID",33,course,COURSE,m,,,,,,-0.033569447,-0.363082923,0,0,0,,0,109,109,6,1,
,,,,,,,,,,,,,,,,,,5f3598f48853aa595c6733e2,2020-11-26_17h02.24.705,lexical_decision_task_MP_exp2,2020.2.5,Win32,60,m,1,0.517225,,,,,,,,0.517225,1,,,,,,34,WORD,"ID",16,jungle,JUNGLE,m,,,,,,-0.033569447,-0.363082923,0,0,0,,0,110,110,93,1,
,,,,,,,,,,,,,,,,,,5f3598f48853aa595c6733e2,2020-11-26_17h02.24.705,lexical_decision_task_MP_exp2,2020.2.5,Win32,60,z,1,0.74997,,,,,,,,0.74997,1,,,,,,409,NW,UN,16,tunory,ELOPIA,z,,,,,,-0.033569447,-0.363082923,0,0,0,,0,111,111,468,1,
,,,,,,,,,,,,,,,,,,5f3598f48853aa595c6733e2,2020-11-26_17h02.24.705,lexical_decision_task_MP_exp2,2020.2.5,Win32,60,m,1,0.634005,,,,,,,,0.634005,1,,,,,,120,WORD,UN,33,ponder,STRAIN,m,,,,,,-0.033569447,-0.363082923,0,0,0,,0,112,112,179,1,
,,,,,,,,,,,,,,,,,,5f3598f48853aa595c6733e2,2020-11-26_17h02.24.705,lexical_decision_task_MP_exp2,2020.2.5,Win32,60,m,1,0.50115,,,,,,,,0.50115,1,,,,,,181,WORD,"ID",33,glance,GLANCE,m,,,,,,-0.033569447,-0.363082923,0,0,0,,0,113,113,0,1,
,,,,,,,,,,,,,,,,,,5f3598f48853aa595c6733e2,2020-11-26_17h02.24.705,lexical_decision_task_MP_exp2,2020.2.5,Win32,60,m,1,0.583775,,,,,,,,0.583775,1,,,,,,54,WORD,"ID",16,ramble,RAMBLE,m,,,,,,-0.033569447,-0.363082923,0,0,0,,0,114,114,113,1,
,,,,,,,,,,,,,,,,,,5f3598f48853aa595c6733e2,2020-11-26_17h02.24.705,lexical_decision_task_MP_exp2,2020.2.5,Win32,60,m,1,0.512705,,,,,,,,0.512705,1,,,,,,1,WORD,"ID",16,fright,FRIGHT,m,,,,,,-0.033569447,-0.363082923,0,0,0,,0,115,115,60,1,
,,,,,,,,,,,,,,,,,,5f3598f48853aa595c6733e2,2020-11-26_17h02.24.705,lexical_decision_task_MP_exp2,2020.2.5,Win32,60,m,1,0.587325,,,,,,,,0.587325,1,,,,,,109,WORD,UN,33,polite,WONDER,m,,,,,,-0.033569447,-0.363082923,0,0,0,,0,116,116,168,1,
,,,,,,,,,,,,,,,,,,5f3598f48853aa595c6733e2,2020-11-26_17h02.24.705,lexical_decision_task_MP_exp2,2020.2.5,Win32,60,z,1,1.016465,,,,,,,,1.016465,1,,,,,,390,NW,UN,16,theldy,HATRUS,z,,,,,,-0.033569447,-0.363082923,0,0,0,,0,117,117,449,1,
,,,,,,,,,,,,,,,,,,5f3598f48853aa595c6733e2,2020-11-26_17h02.24.705,lexical_decision_task_MP_exp2,2020.2.5,Win32,60,m,1,0.46161,,,,,,,,0.46161,1,,,,,,209,WORD,"ID",33,search,SEARCH,m,,,,,,-0.033569447,-0.363082923,0,0,0,,0,118,118,28,1,
,,,,,,,,,,,,,,,,,,5f3598f48853aa595c6733e2,2020-11-26_17h02.24.705,lexical_decision_task_MP_exp2,2020.2.5,Win32,60,m,1,0.511775,,,,,,,,0.511775,1,,,,,,106,WORD,UN,33,slogan,RANSOM,m,,,,,,-0.033569447,-0.363082923,0,0,0,,0,119,119,165,1,
,,,,,,,,,,,,,,,,,,5f3598f48853aa595c6733e2,2020-11-26_17h02.24.705,lexical_decision_task_MP_exp2,2020.2.5,Win32,60,m,1,0.49177,,,,,,,,0.49177,1,,,,,,6,WORD,"ID",16,bundle,BUNDLE,m,,,,,,-0.053942647,-0.383456124,1,0,0,,0,120,120,65,1,break_done_button
,,,,,,,,,,,,,,,,,,5f3598f48853aa595c6733e2,2020-11-26_17h02.24.705,lexical_decision_task_MP_exp2,2020.2.5,Win32,60,z,1,0.661495,,,,,,,,0.661495,1,,,,,,347,NW,UN,33,dumple,KERIFT,z,,,,,,-0.053942647,-0.383456124,0,0,0,,0,121,121,406,1,
,,,,,,,,,,,,,,,,,,5f3598f48853aa595c6733e2,2020-11-26_17h02.24.705,lexical_decision_task_MP_exp2,2020.2.5,Win32,60,m,1,0.49056,,,,,,,,0.49056,1,,,,,,148,WORD,UN,16,invade,CUSTOM,m,,,,,,-0.053942647,-0.383456124,0,0,0,,0,122,122,207,1,
,,,,,,,,,,,,,,,,,,5f3598f48853aa595c6733e2,2020-11-26_17h02.24.705,lexical_decision_task_MP_exp2,2020.2.5,Win32,60,m,1,0.509075,,,,,,,,0.509075,1,,,,,,141,WORD,UN,16,spruce,ORPHAN,m,,,,,,-0.053942647,-0.383456124,0,0,0,,0,123,123,200,1,
,,,,,,,,,,,,,,,,,,5f3598f48853aa595c6733e2,2020-11-26_17h02.24.705,lexical_decision_task_MP_exp2,2020.2.5,Win32,60,m,1,0.542095,,,,,,,,0.542095,1,,,,,,149,WORD,UN,16,random,INVADE,m,,,,,,-0.053942647,-0.383456124,0,0,0,,0,124,124,208,1,
,,,,,,,,,,,,,,,,,,5f3598f48853aa595c6733e2,2020-11-26_17h02.24.705,lexical_decision_task_MP_exp2,2020.2.5,Win32,60,m,1,0.497505,,,,,,,,0.497505,1,,,,,,31,WORD,"ID",16,weapon,WEAPON,m,,,,,,-0.053942647,-0.383456124,0,0,0,,0,125,125,90,1,
,,,,,,,,,,,,,,,,,,5f3598f48853aa595c6733e2,2020-11-26_17h02.24.705,lexical_decision_task_MP_exp2,2020.2.5,Win32,60,z,1,0.5996,,,,,,,,0.5996,1,,,,,,313,NW,UN,33,sprine,PAURSE,z,,,,,,-0.053942647,-0.383456124,0,0,0,,0,126,126,372,1,
,,,,,,,,,,,,,,,,,,5f3598f48853aa595c6733e2,2020-11-26_17h02.24.705,lexical_decision_task_MP_exp2,2020.2.5,Win32,60,z,1,1.031885,,,,,,,,1.031885,1,,,,,,357,NW,UN,33,fleack,DERAIN,z,,,,,,-0.053942647,-0.383456124,0,0,0,,0,127,127,416,1,
,,,,,,,,,,,,,,,,,,5f3598f48853aa595c6733e2,2020-11-26_17h02.24.705,lexical_decision_task_MP_exp2,2020.2.5,Win32,60,m,1,0.44813,,,,,,,,0.44813,1,,,,,,152,WORD,UN,16,behold,ROCKET,m,,,,,,-0.053942647,-0.383456124,0,0,0,,0,128,128,211,1,
,,,,,,,,,,,,,,,,,,5f3598f48853aa595c6733e2,2020-11-26_17h02.24.705,lexical_decision_task_MP_exp2,2020.2.5,Win32,60,z,1,0.625815,,,,,,,,0.625815,1,,,,,,395,NW,UN,16,flengy,COLURY,z,,,,,,-0.053942647,-0.383456124,0,0,0,,0,129,129,454,1,
,,,,,,,,,,,,,,,,,,5f3598f48853aa595c6733e2,2020-11-26_17h02.24.705,lexical_decision_task_MP_exp2,2020.2.5,Win32,60,z,1,0.766775,,,,,,,,0.766775,1,,,,,,269,NW,"ID",16,orchet,ORCHET,z,,,,,,-0.053942647,-0.383456124,0,0,0,,0,130,130,328,1,
,,,,,,,,,,,,,,,,,,5f3598f48853aa595c6733e2,2020-11-26_17h02.24.705,lexical_decision_task_MP_exp2,2020.2.5,Win32,60,m,1,0.68835,,,,,,,,0.68835,1,,,,,,198,WORD,"ID",33,wicked,WICKED,m,,,,,,-0.053942647,-0.383456124,0,0,0,,0,131,131,17,1,
,,,,,,,,,,,,,,,,,,5f3598f48853aa595c6733e2,2020-11-26_17h02.24.705,lexical_decision_task_MP_exp2,2020.2.5,Win32,60,z,1,0.59822,,,,,,,,0.59822,1,,,,,,329,NW,UN,33,kensom,YARIKE,z,,,,,,-0.053942647,-0.383456124,0,0,0,,0,132,132,388,1,
,,,,,,,,,,,,,,,,,,5f3598f48853aa595c6733e2,2020-11-26_17h02.24.705,lexical_decision_task_MP_exp2,2020.2.5,Win32,60,z,1,0.907175,,,,,,,,0.907175,1,,,,,,462,NW,"ID",33,absult,ABSULT,z,,,,,,-0.053942647,-0.383456124,0,0,0,,0,133,133,281,1,
,,,,,,,,,,,,,,,,,,5f3598f48853aa595c6733e2,2020-11-26_17h02.24.705,lexical_decision_task_MP_exp2,2020.2.5,Win32,60,m,1,0.497515,,,,,,,,0.497515,1,,,,,,227,WORD,"ID",33,seldom,SELDOM,m,,,,,,-0.053942647,-0.383456124,0,0,0,,0,134,134,46,1,
,,,,,,,,,,,,,,,,,,5f3598f48853aa595c6733e2,2020-11-26_17h02.24.705,lexical_decision_task_MP_exp2,2020.2.5,Win32,60,m,1,0.49774,,,,,,,,0.49774,1,,,,,,116,WORD,UN,33,branch,TUMBLE,m,,,,,,-0.053942647,-0.383456124,0,0,0,,0,135,135,175,1,
,,,,,,,,,,,,,,,,,,5f3598f48853aa595c6733e2,2020-11-26_17h02.24.705,lexical_decision_task_MP_exp2,2020.2.5,Win32,60,m,1,0.577785,,,,,,,,0.577785,1,,,,,,48,WORD,"ID",16,walnut,WALNUT,m,,,,,,-0.053942647,-0.383456124,0,0,0,,0,136,136,107,1,
,,,,,,,,,,,,,,,,,,5f3598f48853aa595c6733e2,2020-11-26_17h02.24.705,lexical_decision_task_MP_exp2,2020.2.5,Win32,60,z,1,0.61017,,,,,,,,0.61017,1,,,,,,417,NW,UN,16,suidle,EAROUD,z,,,,,,-0.053942647,-0.383456124,0,0,0,,0,137,137,476,1,
,,,,,,,,,,,,,,,,,,5f3598f48853aa595c6733e2,2020-11-26_17h02.24.705,lexical_decision_task_MP_exp2,2020.2.5,Win32,60,m,1,0.640635,,,,,,,,0.640635,1,,,,,,195,WORD,"ID",33,resign,RESIGN,m,,,,,,-0.053942647,-0.383456124,0,0,0,,0,138,138,14,1,
,,,,,,,,,,,,,,,,,,5f3598f48853aa595c6733e2,2020-11-26_17h02.24.705,lexical_decision_task_MP_exp2,2020.2.5,Win32,60,z,1,1.019115,,,,,,,,1.019115,1,,,,,,266,NW,"ID",16,varmit,VARMIT,z,,,,,,-0.053942647,-0.383456124,0,0,0,,0,139,139,325,1,
,,,,,,,,,,,,,,,,,,5f3598f48853aa595c6733e2,2020-11-26_17h02.24.705,lexical_decision_task_MP_exp2,2020.2.5,Win32,60,m,1,0.475855,,,,,,,,0.475855,1,,,,,,72,WORD,UN,33,source,BRIGHT,m,,,,,,-0.053942647,-0.383456124,0,0,0,,0,140,140,131,1,
,,,,,,,,,,,,,,,,,,5f3598f48853aa595c6733e2,2020-11-26_17h02.24.705,lexical_decision_task_MP_exp2,2020.2.5,Win32,60,z,1,0.586385,,,,,,,,0.586385,1,,,,,,448,NW,"ID",33,sadent,SADENT,z,,,,,,-0.053942647,-0.383456124,0,0,0,,0,141,141,267,1,
,,,,,,,,,,,,,,,,,,5f3598f48853aa595c6733e2,2020-11-26_17h02.24.705,lexical_decision_task_MP_exp2,2020.2.5,Win32,60,m,1,0.402565,,,,,,,,0.402565,1,,,,,,239,WORD,"ID",33,lumber,LUMBER,m,,,,,,-0.053942647,-0.383456124,0,0,0,,0,142,142,58,1,
,,,,,,,,,,,,,,,,,,5f3598f48853aa595c6733e2,2020-11-26_17h02.24.705,lexical_decision_task_MP_exp2,2020.2.5,Win32,60,z,1,0.60172,,,,,,,,0.60172,1,,,,,,356,NW,UN,33,derain,OTHNIS,z,,,,,,-0.053942647,-0.383456124,0,0,0,,0,143,143,415,1,
,,,,,,,,,,,,,,,,,,5f3598f48853aa595c6733e2,2020-11-26_17h02.24.705,lexical_decision_task_MP_exp2,2020.2.5,Win32,60,m,1,0.507185,,,,,,,,0.507185,1,,,,,,171,WORD,UN,16,patrol,DEPART,m,,,,,,-0.053942647,-0.383456124,0,0,0,,0,144,144,230,1,
,,,,,,,,,,,,,,,,,,5f3598f48853aa595c6733e2,2020-11-26_17h02.24.705,lexical_decision_task_MP_exp2,2020.2.5,Win32,60,m,1,0.4956,,,,,,,,0.4956,1,,,,,,156,WORD,UN,16,depart,CRADLE,m,,,,,,-0.053942647,-0.383456124,0,0,0,,0,145,145,215,1,
,,,,,,,,,,,,,,,,,,5f3598f48853aa595c6733e2,2020-11-26_17h02.24.705,lexical_decision_task_MP_exp2,2020.2.5,Win32,60,m,1,0.483445,,,,,,,,0.483445,1,,,,,,94,WORD,UN,33,thread,TRAVEL,m,,,,,,-0.053942647,-0.383456124,0,0,0,,0,146,146,153,1,
,,,,,,,,,,,,,,,,,,5f3598f48853aa595c6733e2,2020-11-26_17h02.24.705,lexical_decision_task_MP_exp2,2020.2.5,Win32,60,m,1,0.47312,,,,,,,,0.47312,1,,,,,,129,WORD,UN,16,stupid,MARVEL,m,,,,,,-0.053942647,-0.383456124,0,0,0,,0,147,147,188,1,
,,,,,,,,,,,,,,,,,,5f3598f48853aa595c6733e2,2020-11-26_17h02.24.705,lexical_decision_task_MP_exp2,2020.2.5,Win32,60,z,1,0.71675,,,,,,,,0.71675,1,,,,,,319,NW,UN,33,jockal,ZOMBER,z,,,,,,-0.053942647,-0.383456124,0,0,0,,0,148,148,378,1,
,,,,,,,,,,,,,,,,,,5f3598f48853aa595c6733e2,2020-11-26_17h02.24.705,lexical_decision_task_MP_exp2,2020.2.5,Win32,60,m,1,0.522435,,,,,,,,0.522435,1,,,,,,11,WORD,"ID",16,cruise,CRUISE,m,,,,,,-0.053942647,-0.383456124,0,0,0,,0,149,149,70,1,
,,,,,,,,,,,,,,,,,,5f3598f48853aa595c6733e2,2020-11-26_17h02.24.705,lexical_decision_task_MP_exp2,2020.2.5,Win32,60,z,1,0.583035,,,,,,,,0.583035,1,,,,,,258,NW,"ID",16,poluth,POLUTH,z,,,,,,-0.053942647,-0.383456124,0,0,0,,0,150,150,317,1,
,,,,,,,,,,,,,,,,,,5f3598f48853aa595c6733e2,2020-11-26_17h02.24.705,lexical_decision_task_MP_exp2,2020.2.5,Win32,60,m,1,0.48387,,,,,,,,0.48387,1,,,,,,137,WORD,UN,16,melody,FINGER,m,,,,,,-0.053942647,-0.383456124,0,0,0,,0,151,151,196,1,
,,,,,,,,,,,,,,,,,,5f3598f48853aa595c6733e2,2020-11-26_17h02.24.705,lexical_decision_task_MP_exp2,2020.2.5,Win32,60,m,1,1.06694,,,,,,,,1.06694,1,,,,,,176,WORD,UN,16,advent,STRIFE,m,,,,,,-0.053942647,-0.383456124,0,0,0,,0,152,152,235,1,
,,,,,,,,,,,,,,,,,,5f3598f48853aa595c6733e2,2020-11-26_17h02.24.705,lexical_decision_task_MP_exp2,2020.2.5,Win32,60,z,1,0.64029,,,,,,,,0.64029,1,,,,,,442,NW,"ID",33,aboune,ABOUNE,z,,,,,,-0.053942647,-0.383456124,0,0,0,,0,153,153,261,1,
,,,,,,,,,,,,,,,,,,5f3598f48853aa595c6733e2,2020-11-26_17h02.24.705,lexical_decision_task_MP_exp2,2020.2.5,Win32,60,z,1,0.58594,,,,,,,,0.58594,1,,,,,,459,NW,"ID",33,bafent,BAFENT,z,,,,,,-0.053942647,-0.383456124,0,0,0,,0,154,154,278,1,
,,,,,,,,,,,,,,,,,,5f3598f48853aa595c6733e2,2020-11-26_17h02.24.705,lexical_decision_task_MP_exp2,2020.2.5,Win32,60,z,1,0.58323,,,,,,,,0.58323,1,,,,,,436,NW,"ID",33,frutan,FRUTAN,z,,,,,,-0.053942647,-0.383456124,0,0,0,,0,155,155,255,1,
,,,,,,,,,,,,,,,,,,5f3598f48853aa595c6733e2,2020-11-26_17h02.24.705,lexical_decision_task_MP_exp2,2020.2.5,Win32,60,m,1,0.51967,,,,,,,,0.51967,1,,,,,,147,WORD,UN,16,custom,GARLIC,m,,,,,,-0.053942647,-0.383456124,0,0,0,,0,156,156,206,1,
,,,,,,,,,,,,,,,,,,5f3598f48853aa595c6733e2,2020-11-26_17h02.24.705,lexical_decision_task_MP_exp2,2020.2.5,Win32,60,m,1,0.483715,,,,,,,,0.483715,1,,,,,,7,WORD,"ID",16,anchor,ANCHOR,m,,,,,,-0.053942647,-0.383456124,0,0,0,,0,157,157,66,1,
,,,,,,,,,,,,,,,,,,5f3598f48853aa595c6733e2,2020-11-26_17h02.24.705,lexical_decision_task_MP_exp2,2020.2.5,Win32,60,z,1,0.54968,,,,,,,,0.54968,1,,,,,,321,NW,UN,33,slanch,MIATOR,z,,,,,,-0.053942647,-0.383456124,0,0,0,,0,158,158,380,1,
,,,,,,,,,,,,,,,,,,5f3598f48853aa595c6733e2,2020-11-26_17h02.24.705,lexical_decision_task_MP_exp2,2020.2.5,Win32,60,m,1,0.46664,,,,,,,,0.46664,1,,,,,,38,WORD,"ID",16,powder,POWDER,m,,,,,,-0.053942647,-0.383456124,0,0,0,,0,159,159,97,1,
,,,,,,,,,,,,,,,,,,5f3598f48853aa595c6733e2,2020-11-26_17h02.24.705,lexical_decision_task_MP_exp2,2020.2.5,Win32,60,z,1,0.560365,,,,,,,,0.560365,1,,,,,,362,NW,UN,16,breali,TIREAU,z,,,,,,-0.053942647,-0.383456124,0,0,0,,0,160,160,421,1,
,,,,,,,,,,,,,,,,,,5f3598f48853aa595c6733e2,2020-11-26_17h02.24.705,lexical_decision_task_MP_exp2,2020.2.5,Win32,60,z,1,0.616715,,,,,,,,0.616715,1,,,,,,479,NW,"ID",33,lobush,LOBUSH,z,,,,,,-0.053942647,-0.383456124,0,0,0,,0,161,161,298,1,
,,,,,,,,,,,,,,,,,,5f3598f48853aa595c6733e2,2020-11-26_17h02.24.705,lexical_decision_task_MP_exp2,2020.2.5,Win32,60,m,1,0.46799,,,,,,,,0.46799,1,,,,,,168,WORD,UN,16,genius,ANSWER,m,,,,,,-0.053942647,-0.383456124,0,0,0,,0,162,162,227,1,
,,,,,,,,,,,,,,,,,,5f3598f48853aa595c6733e2,2020-11-26_17h02.24.705,lexical_decision_task_MP_exp2,2020.2.5,Win32,60,z,1,0.638605,,,,,,,,0.638605,1,,,,,,281,NW,"ID",16,melaty,MELATY,z,,,,,,-0.053942647,-0.383456124,0,0,0,,0,163,163,340,1,
,,,,,,,,,,,,,,,,,,5f3598f48853aa595c6733e2,2020-11-26_17h02.24.705,lexical_decision_task_MP_exp2,2020.2.5,Win32,60,z,1,0.564235,,,,,,,,0.564235,1,,,,,,440,NW,"ID",33,saride,SARIDE,z,,,,,,-0.053942647,-0.383456124,0,0,0,,0,164,164,259,1,
,,,,,,,,,,,,,,,,,,5f3598f48853aa595c6733e2,2020-11-26_17h02.24.705,lexical_decision_task_MP_exp2,2020.2.5,Win32,60,z,1,0.66922,,,,,,,,0.66922,1,,,,,,296,NW,"ID",16,beinch,BEINCH,z,,,,,,-0.053942647,-0.383456124,0,0,0,,0,165,165,355,1,
,,,,,,,,,,,,,,,,,,5f3598f48853aa595c6733e2,2020-11-26_17h02.24.705,lexical_decision_task_MP_exp2,2020.2.5,Win32,60,z,1,0.51523,,,,,,,,0.51523,1,,,,,,327,NW,UN,33,broake,PLENAC,z,,,,,,-0.053942647,-0.383456124,0,0,0,,0,166,166,386,1,
,,,,,,,,,,,,,,,,,,5f3598f48853aa595c6733e2,2020-11-26_17h02.24.705,lexical_decision_task_MP_exp2,2020.2.5,Win32,60,m,1,0.67142,,,,,,,,0.67142,1,,,,,,45,WORD,"ID",16,clergy,CLERGY,m,,,,,,-0.053942647,-0.383456124,0,0,0,,0,167,167,104,1,
,,,,,,,,,,,,,,,,,,5f3598f48853aa595c6733e2,2020-11-26_17h02.24.705,lexical_decision_task_MP_exp2,2020.2.5,Win32,60,m,0,0.43177,,,,,,,,0.43177,0,,,,,,369,NW,UN,16,sleact,WRONCH,z,,,,,,-0.053942647,-0.383456124,0,0,0,,0,168,168,428,1,
,,,,,,,,,,,,,,,,,,5f3598f48853aa595c6733e2,2020-11-26_17h02.24.705,lexical_decision_task_MP_exp2,2020.2.5,Win32,60,z,1,0.69881,,,,,,,,0.69881,1,,,,,,400,NW,UN,16,mustil,WEAROX,z,,,,,,-0.053942647,-0.383456124,0,0,0,,0,169,169,459,1,
,,,,,,,,,,,,,,,,,,5f3598f48853aa595c6733e2,2020-11-26_17h02.24.705,lexical_decision_task_MP_exp2,2020.2.5,Win32,60,m,1,0.627505,,,,,,,,0.627505,1,,,,,,200,WORD,"ID",33,beacon,BEACON,m,,,,,,-0.053942647,-0.383456124,0,0,0,,0,170,170,19,1,
,,,,,,,,,,,,,,,,,,5f3598f48853aa595c6733e2,2020-11-26_17h02.24.705,lexical_decision_task_MP_exp2,2020.2.5,Win32,60,m,1,0.634795,,,,,,,,0.634795,1,,,,,,232,WORD,"ID",33,inject,INJECT,m,,,,,,-0.053942647,-0.383456124,0,0,0,,0,171,171,51,1,
,,,,,,,,,,,,,,,,,,5f3598f48853aa595c6733e2,2020-11-26_17h02.24.705,lexical_decision_task_MP_exp2,2020.2.5,Win32,60,m,1,0.50194,,,,,,,,0.50194,1,,,,,,160,WORD,UN,16,pastor,VIOLET,m,,,,,,-0.053942647,-0.383456124,0,0,0,,0,172,172,219,1,
,,,,,,,,,,,,,,,,,,5f3598f48853aa595c6733e2,2020-11-26_17h02.24.705,lexical_decision_task_MP_exp2,2020.2.5,Win32,60,m,1,0.498575,,,,,,,,0.498575,1,,,,,,145,WORD,UN,16,couple,PARISH,m,,,,,,-0.053942647,-0.383456124,0,0,0,,0,173,173,204,1,
,,,,,,,,,,,,,,,,,,5f3598f48853aa595c6733e2,2020-11-26_17h02.24.705,lexical_decision_task_MP_exp2,2020.2.5,Win32,60,z,1,0.66649,,,,,,,,0.66649,1,,,,,,411,NW,UN,16,jiluer,ORCHIN,z,,,,,,-0.053942647,-0.383456124,0,0,0,,0,174,174,470,1,
,,,,,,,,,,,,,,,,,,5f3598f48853aa595c6733e2,2020-11-26_17h02.24.705,lexical_decision_task_MP_exp2,2020.2.5,Win32,60,z,1,0.615775,,,,,,,,0.615775,1,,,,,,283,NW,"ID",16,veralf,VERALF,z,,,,,,-0.053942647,-0.383456124,0,0,0,,0,175,175,342,1,
,,,,,,,,,,,,,,,,,,5f3598f48853aa595c6733e2,2020-11-26_17h02.24.705,lexical_decision_task_MP_exp2,2020.2.5,Win32,60,z,1,0.70694,,,,,,,,0.70694,1,,,,,,305,NW,UN,33,sounge,FORGLE,z,,,,,,-0.053942647,-0.383456124,0,0,0,,0,176,176,364,1,
,,,,,,,,,,,,,,,,,,5f3598f48853aa595c6733e2,2020-11-26_17h02.24.705,lexical_decision_task_MP_exp2,2020.2.5,Win32,60,z,1,0.52544,,,,,,,,0.52544,1,,,,,,375,NW,UN,16,iguare,YORQUE,z,,,,,,-0.053942647,-0.383456124,0,0,0,,0,177,177,434,1,
,,,,,,,,,,,,,,,,,,5f3598f48853aa595c6733e2,2020-11-26_17h02.24.705,lexical_decision_task_MP_exp2,2020.2.5,Win32,60,z,1,0.53528,,,,,,,,0.53528,1,,,,,,421,NW,"ID",33,knisma,KNISMA,z,,,,,,-0.053942647,-0.383456124,0,0,0,,0,178,178,240,1,
,,,,,,,,,,,,,,,,,,5f3598f48853aa595c6733e2,2020-11-26_17h02.24.705,lexical_decision_task_MP_exp2,2020.2.5,Win32,60,m,1,0.549855,,,,,,,,0.549855,1,,,,,,215,WORD,"ID",33,phobia,PHOBIA,m,,,,,,-0.053942647,-0.383456124,0,0,0,,0,179,179,34,1,
,,,,,,,,,,,,,,,,,,5f3598f48853aa595c6733e2,2020-11-26_17h02.24.705,lexical_decision_task_MP_exp2,2020.2.5,Win32,60,m,1,0.58052,,,,,,,,0.58052,1,,,,,,36,WORD,"ID",16,vanish,VANISH,m,,,,,,-0.053942647,-0.383456124,0,0,0,,0,180,180,95,1,
,,,,,,,,,,,,,,,,,,5f3598f48853aa595c6733e2,2020-11-26_17h02.24.705,lexical_decision_task_MP_exp2,2020.2.5,Win32,60,m,1,0.506375,,,,,,,,0.506375,1,,,,,,101,WORD,UN,33,direct,WRENCH,m,,,,,,-0.053942647,-0.383456124,0,0,0,,0,181,181,160,1,
,,,,,,,,,,,,,,,,,,5f3598f48853aa595c6733e2,2020-11-26_17h02.24.705,lexical_decision_task_MP_exp2,2020.2.5,Win32,60,m,1,0.598315,,,,,,,,0.598315,1,,,,,,2,WORD,"ID",16,bridge,BRIDGE,m,,,,,,-0.053942647,-0.383456124,0,0,0,,0,182,182,61,1,
,,,,,,,,,,,,,,,,,,5f3598f48853aa595c6733e2,2020-11-26_17h02.24.705,lexical_decision_task_MP_exp2,2020.2.5,Win32,60,z,1,0.574425,,,,,,,,0.574425,1,,,,,,354,NW,UN,33,zingly,VIRLEX,z,,,,,,-0.053942647,-0.383456124,0,0,0,,0,183,183,413,1,
,,,,,,,,,,,,,,,,,,5f3598f48853aa595c6733e2,2020-11-26_17h02.24.705,lexical_decision_task_MP_exp2,2020.2.5,Win32,60,z,1,0.536325,,,,,,,,0.536325,1,,,,,,337,NW,UN,33,wreash,REJOLS,z,,,,,,-0.053942647,-0.383456124,0,0,0,,0,184,184,396,1,
,,,,,,,,,,,,,,,,,,5f3598f48853aa595c6733e2,2020-11-26_17h02.24.705,lexical_decision_task_MP_exp2,2020.2.5,Win32,60,z,1,0.830635,,,,,,,,0.830635,1,,,,,,361,NW,UN,16,tireau,PAUCHE,z,,,,,,-0.053942647,-0.383456124,0,0,0,,0,185,185,420,1,
,,,,,,,,,,,,,,,,,,5f3598f48853aa595c6733e2,2020-11-26_17h02.24.705,lexical_decision_task_MP_exp2,2020.2.5,Win32,60,m,1,0.46227,,,,,,,,0.46227,1,,,,,,37,WORD,"ID",16,insult,INSULT,m,,,,,,-0.053942647,-0.383456124,0,0,0,,0,186,186,96,1,
,,,,,,,,,,,,,,,,,,5f3598f48853aa595c6733e2,2020-11-26_17h02.24.705,lexical_decision_task_MP_exp2,2020.2.5,Win32,60,z,1,0.52349,,,,,,,,0.52349,1,,,,,,388,NW,UN,16,witmer,CRAGIN,z,,,,,,-0.053942647,-0.383456124,0,0,0,,0,187,187,447,1,
,,,,,,,,,,,,,,,,,,5f3598f48853aa595c6733e2,2020-11-26_17h02.24.705,lexical_decision_task_MP_exp2,2020.2.5,Win32,60,m,1,0.516715,,,,,,,,0.516715,1,,,,,,89,WORD,UN,33,relish,PERMIT,m,,,,,,-0.053942647,-0.383456124,0,0,0,,0,188,188,148,1,
,,,,,,,,,,,,,,,,,,5f3598f48853aa595c6733e2,2020-11-26_17h02.24.705,lexical_decision_task_MP_exp2,2020.2.5,Win32,60,m,1,0.45292,,,,,,,,0.45292,1,,,,,,42,WORD,"ID",16,chapel,CHAPEL,m,,,,,,-0.053942647,-0.383456124,0,0,0,,0,189,189,101,1,
,,,,,,,,,,,,,,,,,,5f3598f48853aa595c6733e2,2020-11-26_17h02.24.705,lexical_decision_task_MP_exp2,2020.2.5,Win32,60,m,1,0.472205,,,,,,,,0.472205,1,,,,,,55,WORD,"ID",16,stroke,STROKE,m,,,,,,-0.053942647,-0.383456124,0,0,0,,0,190,190,114,1,
,,,,,,,,,,,,,,,,,,5f3598f48853aa595c6733e2,2020-11-26_17h02.24.705,lexical_decision_task_MP_exp2,2020.2.5,Win32,60,z,1,0.58721,,,,,,,,0.58721,1,,,,,,294,NW,"ID",16,inhort,INHORT,z,,,,,,-0.053942647,-0.383456124,0,0,0,,0,191,191,353,1,
,,,,,,,,,,,,,,,,,,5f3598f48853aa595c6733e2,2020-11-26_17h02.24.705,lexical_decision_task_MP_exp2,2020.2.5,Win32,60,m,1,0.69183,,,,,,,,0.69183,1,,,,,,114,WORD,UN,33,guitar,PLACID,m,,,,,,-0.053942647,-0.383456124,0,0,0,,0,192,192,173,1,
,,,,,,,,,,,,,,,,,,5f3598f48853aa595c6733e2,2020-11-26_17h02.24.705,lexical_decision_task_MP_exp2,2020.2.5,Win32,60,z,1,0.55637,,,,,,,,0.55637,1,,,,,,312,NW,UN,33,paurse,NERAWL,z,,,,,,-0.053942647,-0.383456124,0,0,0,,0,193,193,371,1,
,,,,,,,,,,,,,,,,,,5f3598f48853aa595c6733e2,2020-11-26_17h02.24.705,lexical_decision_task_MP_exp2,2020.2.5,Win32,60,z,1,0.76642,,,,,,,,0.76642,1,,,,,,307,NW,UN,33,psetch,KIRAFE,z,,,,,,-0.053942647,-0.383456124,0,0,0,,0,194,194,366,1,
,,,,,,,,,,,,,,,,,,5f3598f48853aa595c6733e2,2020-11-26_17h02.24.705,lexical_decision_task_MP_exp2,2020.2.5,Win32,60,m,1,0.68146,,,,,,,,0.68146,1,,,,,,50,WORD,"ID",16,snatch,SNATCH,m,,,,,,-0.053942647,-0.383456124,0,0,0,,0,195,195,109,1,
,,,,,,,,,,,,,,,,,,5f3598f48853aa595c6733e2,2020-11-26_17h02.24.705,lexical_decision_task_MP_exp2,2020.2.5,Win32,60,m,1,0.752105,,,,,,,,0.752105,1,,,,,,87,WORD,UN,33,sprawl,FILTER,m,,,,,,-0.053942647,-0.383456124,0,0,0,,0,196,196,146,1,
,,,,,,,,,,,,,,,,,,5f3598f48853aa595c6733e2,2020-11-26_17h02.24.705,lexical_decision_task_MP_exp2,2020.2.5,Win32,60,z,1,0.74153,,,,,,,,0.74153,1,,,,,,324,NW,UN,33,thruse,STEIKH,z,,,,,,-0.053942647,-0.383456124,0,0,0,,0,197,197,383,1,
,,,,,,,,,,,,,,,,,,5f3598f48853aa595c6733e2,2020-11-26_17h02.24.705,lexical_decision_task_MP_exp2,2020.2.5,Win32,60,z,1,0.58839,,,,,,,,0.58839,1,,,,,,474,NW,"ID",33,hablin,HABLIN,z,,,,,,-0.053942647,-0.383456124,0,0,0,,0,198,198,293,1,
,,,,,,,,,,,,,,,,,,5f3598f48853aa595c6733e2,2020-11-26_17h02.24.705,lexical_decision_task_MP_exp2,2020.2.5,Win32,60,m,1,0.44832,,,,,,,,0.44832,1,,,,,,134,WORD,UN,16,import,STAPLE,m,,,,,,-0.053942647,-0.383456124,0,0,0,,0,199,199,193,1,
,,,,,,,,,,,,,,,,,,5f3598f48853aa595c6733e2,2020-11-26_17h02.24.705,lexical_decision_task_MP_exp2,2020.2.5,Win32,60,z,1,0.659145,,,,,,,,0.659145,1,,,,,,376,NW,UN,16,veigma,IGUARE,z,,,,,,-0.053942647,-0.383456124,0,0,0,,0,200,200,435,1,
,,,,,,,,,,,,,,,,,,5f3598f48853aa595c6733e2,2020-11-26_17h02.24.705,lexical_decision_task_MP_exp2,2020.2.5,Win32,60,m,1,0.51818,,,,,,,,0.51818,1,,,,,,219,WORD,"ID",33,bucket,BUCKET,m,,,,,,-0.053942647,-0.383456124,0,0,0,,0,201,201,38,1,
,,,,,,,,,,,,,,,,,,5f3598f48853aa595c6733e2,2020-11-26_17h02.24.705,lexical_decision_task_MP_exp2,2020.2.5,Win32,60,z,1,0.51463,,,,,,,,0.51463,1,,,,,,320,NW,UN,33,miator,JOCKAL,z,,,,,,-0.053942647,-0.383456124,0,0,0,,0,202,202,379,1,
,,,,,,,,,,,,,,,,,,5f3598f48853aa595c6733e2,2020-11-26_17h02.24.705,lexical_decision_task_MP_exp2,2020.2.5,Win32,60,z,1,0.57729,,,,,,,,0.57729,1,,,,,,366,NW,UN,16,slique,TOSHEL,z,,,,,,-0.053942647,-0.383456124,0,0,0,,0,203,203,425,1,
,,,,,,,,,,,,,,,,,,5f3598f48853aa595c6733e2,2020-11-26_17h02.24.705,lexical_decision_task_MP_exp2,2020.2.5,Win32,60,m,1,0.498555,,,,,,,,0.498555,1,,,,,,154,WORD,UN,16,lizard,AUTHOR,m,,,,,,-0.053942647,-0.383456124,0,0,0,,0,204,204,213,1,
,,,,,,,,,,,,,,,,,,5f3598f48853aa595c6733e2,2020-11-26_17h02.24.705,lexical_decision_task_MP_exp2,2020.2.5,Win32,60,z,1,0.580545,,,,,,,,0.580545,1,,,,,,259,NW,"ID",16,soudal,SOUDAL,z,,,,,,-0.053942647,-0.383456124,0,0,0,,0,205,205,318,1,
,,,,,,,,,,,,,,,,,,5f3598f48853aa595c6733e2,2020-11-26_17h02.24.705,lexical_decision_task_MP_exp2,2020.2.5,Win32,60,z,1,0.456455,,,,,,,,0.456455,1,,,,,,465,NW,"ID",33,whivex,WHIVEX,z,,,,,,-0.053942647,-0.383456124,0,0,0,,0,206,206,284,1,
,,,,,,,,,,,,,,,,,,5f3598f48853aa595c6733e2,2020-11-26_17h02.24.705,lexical_decision_task_MP_exp2,2020.2.5,Win32,60,m,1,0.482825,,,,,,,,0.482825,1,,,,,,226,WORD,"ID",33,casino,CASINO,m,,,,,,-0.053942647,-0.383456124,0,0,0,,0,207,207,45,1,
,,,,,,,,,,,,,,,,,,5f3598f48853aa595c6733e2,2020-11-26_17h02.24.705,lexical_decision_task_MP_exp2,2020.2.5,Win32,60,z,1,0.628065,,,,,,,,0.628065,1,,,,,,242,NW,"ID",16,unwert,UNWERT,z,,,,,,-0.053942647,-0.383456124,0,0,0,,0,208,208,301,1,
,,,,,,,,,,,,,,,,,,5f3598f48853aa595c6733e2,2020-11-26_17h02.24.705,lexical_decision_task_MP_exp2,2020.2.5,Win32,60,m,1,0.50399,,,,,,,,0.50399,1,,,,,,63,WORD,UN,33,throne,LAUNCH,m,,,,,,-0.053942647,-0.383456124,0,0,0,,0,209,209,122,1,
,,,,,,,,,,,,,,,,,,5f3598f48853aa595c6733e2,2020-11-26_17h02.24.705,lexical_decision_task_MP_exp2,2020.2.5,Win32,60,z,1,0.85364,,,,,,,,0.85364,1,,,,,,325,NW,UN,33,iguade,THRUSE,z,,,,,,-0.053942647,-0.383456124,0,0,0,,0,210,210,384,1,
,,,,,,,,,,,,,,,,,,5f3598f48853aa595c6733e2,2020-11-26_17h02.24.705,lexical_decision_task_MP_exp2,2020.2.5,Win32,60,m,1,0.581795,,,,,,,,0.581795,1,,,,,,16,WORD,"ID",16,faucet,FAUCET,m,,,,,,-0.053942647,-0.383456124,0,0,0,,0,211,211,75,1,
,,,,,,,,,,,,,,,,,,5f3598f48853aa595c6733e2,2020-11-26_17h02.24.705,lexical_decision_task_MP_exp2,2020.2.5,Win32,60,z,1,0.554805,,,,,,,,0.554805,1,,,,,,457,NW,"ID",33,wanigh,WANIGH,z,,,,,,-0.053942647,-0.383456124,0,0,0,,0,212,212,276,1,
,,,,,,,,,,,,,,,,,,5f3598f48853aa595c6733e2,2020-11-26_17h02.24.705,lexical_decision_task_MP_exp2,2020.2.5,Win32,60,z,1,0.615815,,,,,,,,0.615815,1,,,,,,289,NW,"ID",16,starby,STARBY,z,,,,,,-0.053942647,-0.383456124,0,0,0,,0,213,213,348,1,
,,,,,,,,,,,,,,,,,,5f3598f48853aa595c6733e2,2020-11-26_17h02.24.705,lexical_decision_task_MP_exp2,2020.2.5,Win32,60,m,0,1.423465,,,,,,,,1.423465,0,,,,,,437,NW,"ID",33,snapel,SNAPEL,z,,,,,,-0.053942647,-0.383456124,0,0,0,,0,214,214,256,1,
,,,,,,,,,,,,,,,,,,5f3598f48853aa595c6733e2,2020-11-26_17h02.24.705,lexical_decision_task_MP_exp2,2020.2.5,Win32,60,z,1,0.818855,,,,,,,,0.818855,1,,,,,,374,NW,UN,16,yorque,SLIANT,z,,,,,,-0.053942647,-0.383456124,0,0,0,,0,215,215,433,1,
,,,,,,,,,,,,,,,,,,5f3598f48853aa595c6733e2,2020-11-26_17h02.24.705,lexical_decision_task_MP_exp2,2020.2.5,Win32,60,m,1,0.46176,,,,,,,,0.46176,1,,,,,,3,WORD,"ID",16,knight,KNIGHT,m,,,,,,-0.053942647,-0.383456124,0,0,0,,0,216,216,62,1,
,,,,,,,,,,,,,,,,,,5f3598f48853aa595c6733e2,2020-11-26_17h02.24.705,lexical_decision_task_MP_exp2,2020.2.5,Win32,60,z,1,0.594495,,,,,,,,0.594495,1,,,,,,446,NW,"ID",33,runamo,RUNAMO,z,,,,,,-0.053942647,-0.383456124,0,0,0,,0,217,217,265,1,
,,,,,,,,,,,,,,,,,,5f3598f48853aa595c6733e2,2020-11-26_17h02.24.705,lexical_decision_task_MP_exp2,2020.2.5,Win32,60,m,1,0.4819,,,,,,,,0.4819,1,,,,,,92,WORD,UN,33,public,STRAND,m,,,,,,-0.053942647,-0.383456124,0,0,0,,0,218,218,151,1,
,,,,,,,,,,,,,,,,,,5f3598f48853aa595c6733e2,2020-11-26_17h02.24.705,lexical_decision_task_MP_exp2,2020.2.5,Win32,60,z,1,0.544095,,,,,,,,0.544095,1,,,,,,288,NW,"ID",16,yaceup,YACEUP,z,,,,,,-0.053942647,-0.383456124,0,0,0,,0,219,219,347,1,
,,,,,,,,,,,,,,,,,,5f3598f48853aa595c6733e2,2020-11-26_17h02.24.705,lexical_decision_task_MP_exp2,2020.2.5,Win32,60,m,1,0.433345,,,,,,,,0.433345,1,,,,,,51,WORD,"ID",16,hungry,HUNGRY,m,,,,,,-0.053942647,-0.383456124,0,0,0,,0,220,220,110,1,
,,,,,,,,,,,,,,,,,,5f3598f48853aa595c6733e2,2020-11-26_17h02.24.705,lexical_decision_task_MP_exp2,2020.2.5,Win32,60,m,1,0.57114,,,,,,,,0.57114,1,,,,,,58,WORD,"ID",16,foster,FOSTER,m,,,,,,-0.053942647,-0.383456124,0,0,0,,0,221,221,117,1,
,,,,,,,,,,,,,,,,,,5f3598f48853aa595c6733e2,2020-11-26_17h02.24.705,lexical_decision_task_MP_exp2,2020.2.5,Win32,60,m,1,0.49348,,,,,,,,0.49348,1,,,,,,207,WORD,"ID",33,wreath,WREATH,m,,,,,,-0.053942647,-0.383456124,0,0,0,,0,222,222,26,1,
,,,,,,,,,,,,,,,,,,5f3598f48853aa595c6733e2,2020-11-26_17h02.24.705,lexical_decision_task_MP_exp2,2020.2.5,Win32,60,z,1,0.66475,,,,,,,,0.66475,1,,,,,,424,NW,"ID",33,praile,PRAILE,z,,,,,,-0.053942647,-0.383456124,0,0,0,,0,223,223,243,1,
,,,,,,,,,,,,,,,,,,5f3598f48853aa595c6733e2,2020-11-26_17h02.24.705,lexical_decision_task_MP_exp2,2020.2.5,Win32,60,z,1,0.981095,,,,,,,,0.981095,1,,,,,,277,NW,"ID",16,petain,PETAIN,z,,,,,,-0.053942647,-0.383456124,0,0,0,,0,224,224,336,1,
,,,,,,,,,,,,,,,,,,5f3598f48853aa595c6733e2,2020-11-26_17h02.24.705,lexical_decision_task_MP_exp2,2020.2.5,Win32,60,m,1,0.444105,,,,,,,,0.444105,1,,,,,,228,WORD,"ID",33,master,MASTER,m,,,,,,-0.053942647,-0.383456124,0,0,0,,0,225,225,47,1,
,,,,,,,,,,,,,,,,,,5f3598f48853aa595c6733e2,2020-11-26_17h02.24.705,lexical_decision_task_MP_exp2,2020.2.5,Win32,60,z,1,0.60269,,,,,,,,0.60269,1,,,,,,408,NW,UN,16,elopia,HURNIA,z,,,,,,-0.053942647,-0.383456124,0,0,0,,0,226,226,467,1,
,,,,,,,,,,,,,,,,,,5f3598f48853aa595c6733e2,2020-11-26_17h02.24.705,lexical_decision_task_MP_exp2,2020.2.5,Win32,60,z,1,0.577375,,,,,,,,0.577375,1,,,,,,370,NW,UN,16,geiloy,SLEACT,z,,,,,,-0.053942647,-0.383456124,0,0,0,,0,227,227,429,1,
,,,,,,,,,,,,,,,,,,5f3598f48853aa595c6733e2,2020-11-26_17h02.24.705,lexical_decision_task_MP_exp2,2020.2.5,Win32,60,m,1,0.497235,,,,,,,,0.497235,1,,,,,,132,WORD,UN,16,orphan,STRONG,m,,,,,,-0.053942647,-0.383456124,0,0,0,,0,228,228,191,1,
,,,,,,,,,,,,,,,,,,5f3598f48853aa595c6733e2,2020-11-26_17h02.24.705,lexical_decision_task_MP_exp2,2020.2.5,Win32,60,m,1,0.525695,,,,,,,,0.525695,1,,,,,,56,WORD,"ID",16,ambush,AMBUSH,m,,,,,,-0.053942647,-0.383456124,0,0,0,,0,229,229,115,1,
,,,,,,,,,,,,,,,,,,5f3598f48853aa595c6733e2,2020-11-26_17h02.24.705,lexical_decision_task_MP_exp2,2020.2.5,Win32,60,m,1,0.46783,,,,,,,,0.46783,1,,,,,,235,WORD,"ID",33,grumpy,GRUMPY,m,,,,,,-0.053942647,-0.383456124,0,0,0,,0,230,230,54,1,
,,,,,,,,,,,,,,,,,,5f3598f48853aa595c6733e2,2020-11-26_17h02.24.705,lexical_decision_task_MP_exp2,2020.2.5,Win32,60,m,1,0.56617,,,,,,,,0.56617,1,,,,,,214,WORD,"ID",33,intake,INTAKE,m,,,,,,-0.053942647,-0.383456124,0,0,0,,0,231,231,33,1,
,,,,,,,,,,,,,,,,,,5f3598f48853aa595c6733e2,2020-11-26_17h02.24.705,lexical_decision_task_MP_exp2,2020.2.5,Win32,60,m,1,0.489655,,,,,,,,0.489655,1,,,,,,155,WORD,UN,16,cradle,LIZARD,m,,,,,,-0.053942647,-0.383456124,0,0,0,,0,232,232,214,1,
,,,,,,,,,,,,,,,,,,5f3598f48853aa595c6733e2,2020-11-26_17h02.24.705,lexical_decision_task_MP_exp2,2020.2.5,Win32,60,z,1,0.59699,,,,,,,,0.59699,1,,,,,,443,NW,"ID",33,dorsex,DORSEX,z,,,,,,-0.053942647,-0.383456124,0,0,0,,0,233,233,262,1,
,,,,,,,,,,,,,,,,,,5f3598f48853aa595c6733e2,2020-11-26_17h02.24.705,lexical_decision_task_MP_exp2,2020.2.5,Win32,60,z,1,0.55551,,,,,,,,0.55551,1,,,,,,394,NW,UN,16,colury,SPAQUX,z,,,,,,-0.053942647,-0.383456124,0,0,0,,0,234,234,453,1,
,,,,,,,,,,,,,,,,,,5f3598f48853aa595c6733e2,2020-11-26_17h02.24.705,lexical_decision_task_MP_exp2,2020.2.5,Win32,60,m,1,0.48775,,,,,,,,0.48775,1,,,,,,162,WORD,UN,16,string,CANDLE,m,,,,,,-0.053942647,-0.383456124,0,0,0,,0,235,235,221,1,
,,,,,,,,,,,,,,,,,,5f3598f48853aa595c6733e2,2020-11-26_17h02.24.705,lexical_decision_task_MP_exp2,2020.2.5,Win32,60,z,1,0.54694,,,,,,,,0.54694,1,,,,,,247,NW,"ID",16,blarge,BLARGE,z,,,,,,-0.053942647,-0.383456124,0,0,0,,0,236,236,306,1,
,,,,,,,,,,,,,,,,,,5f3598f48853aa595c6733e2,2020-11-26_17h02.24.705,lexical_decision_task_MP_exp2,2020.2.5,Win32,60,z,1,0.56778,,,,,,,,0.56778,1,,,,,,419,NW,UN,16,gushop,SLOUNT,z,,,,,,-0.053942647,-0.383456124,0,0,0,,0,237,237,478,1,
,,,,,,,,,,,,,,,,,,5f3598f48853aa595c6733e2,2020-11-26_17h02.24.705,lexical_decision_task_MP_exp2,2020.2.5,Win32,60,z,1,0.539255,,,,,,,,0.539255,1,,,,,,331,NW,UN,33,vangue,GILFEW,z,,,,,,-0.053942647,-0.383456124,0,0,0,,0,238,238,390,1,
,,,,,,,,,,,,,,,,,,5f3598f48853aa595c6733e2,2020-11-26_17h02.24.705,lexical_decision_task_MP_exp2,2020.2.5,Win32,60,m,1,0.521235,,,,,,,,0.521235,1,,,,,,85,WORD,UN,33,rodent,SPRAWL,m,,,,,,-0.053942647,-0.383456124,0,0,0,,0,239,239,144,1,
,,,,,,,,,,,,,,,,,,5f3598f48853aa595c6733e2,2020-11-26_17h02.24.705,lexical_decision_task_MP_exp2,2020.2.5,Win32,60,m,1,0.49441,,,,,,,,0.49441,1,,,,,,158,WORD,UN,16,detail,ISLAND,m,,,,,,-0.053942647,-0.383456124,0,0,0,,0,240,240,217,1,
,,,,,,,,,,,,,,,,,,5f3598f48853aa595c6733e2,2020-11-26_17h02.24.705,lexical_decision_task_MP_exp2,2020.2.5,Win32,60,z,1,0.498635,,,,,,,,0.498635,1,,,,,,470,NW,"ID",33,crudio,CRUDIO,z,,,,,,0.021993885,-0.418646141,1,0,0,,0,241,241,289,1,break_done_button
,,,,,,,,,,,,,,,,,,5f3598f48853aa595c6733e2,2020-11-26_17h02.24.705,lexical_decision_task_MP_exp2,2020.2.5,Win32,60,m,0,0.23876,,,,,,,,0.23876,0,,,,,,426,NW,"ID",33,urivel,URIVEL,z,,,,,,0.021993885,-0.418646141,0,0,0,,0,242,242,245,1,
,,,,,,,,,,,,,,,,,,5f3598f48853aa595c6733e2,2020-11-26_17h02.24.705,lexical_decision_task_MP_exp2,2020.2.5,Win32,60,m,0,0.39906,,,,,,,,0.39906,0,,,,,,316,NW,UN,33,worbal,SCREGM,z,,,,,,0.021993885,-0.418646141,0,0,0,,0,243,243,375,1,
,,,,,,,,,,,,,,,,,,5f3598f48853aa595c6733e2,2020-11-26_17h02.24.705,lexical_decision_task_MP_exp2,2020.2.5,Win32,60,z,1,0.75303,,,,,,,,0.75303,1,,,,,,463,NW,"ID",33,kispel,KISPEL,z,,,,,,0.021993885,-0.418646141,0,0,0,,0,244,244,282,1,
,,,,,,,,,,,,,,,,,,5f3598f48853aa595c6733e2,2020-11-26_17h02.24.705,lexical_decision_task_MP_exp2,2020.2.5,Win32,60,z,1,1.116,,,,,,,,1.116,1,,,,,,450,NW,"ID",33,phrect,PHRECT,z,,,,,,0.021993885,-0.418646141,0,0,0,,0,245,245,269,1,
,,,,,,,,,,,,,,,,,,5f3598f48853aa595c6733e2,2020-11-26_17h02.24.705,lexical_decision_task_MP_exp2,2020.2.5,Win32,60,m,1,0.454405,,,,,,,,0.454405,1,,,,,,224,WORD,"ID",33,period,PERIOD,m,,,,,,0.021993885,-0.418646141,0,0,0,,0,246,246,43,1,
,,,,,,,,,,,,,,,,,,5f3598f48853aa595c6733e2,2020-11-26_17h02.24.705,lexical_decision_task_MP_exp2,2020.2.5,Win32,60,z,1,0.52568,,,,,,,,0.52568,1,,,,,,358,NW,UN,33,fonver,FLEACK,z,,,,,,0.021993885,-0.418646141,0,0,0,,0,247,247,417,1,
,,,,,,,,,,,,,,,,,,5f3598f48853aa595c6733e2,2020-11-26_17h02.24.705,lexical_decision_task_MP_exp2,2020.2.5,Win32,60,z,1,0.565165,,,,,,,,0.565165,1,,,,,,253,NW,"ID",16,resait,RESAIT,z,,,,,,0.021993885,-0.418646141,0,0,0,,0,248,248,312,1,
,,,,,,,,,,,,,,,,,,5f3598f48853aa595c6733e2,2020-11-26_17h02.24.705,lexical_decision_task_MP_exp2,2020.2.5,Win32,60,z,1,0.63236,,,,,,,,0.63236,1,,,,,,378,NW,UN,16,auting,SHRILE,z,,,,,,0.021993885,-0.418646141,0,0,0,,0,249,249,437,1,
,,,,,,,,,,,,,,,,,,5f3598f48853aa595c6733e2,2020-11-26_17h02.24.705,lexical_decision_task_MP_exp2,2020.2.5,Win32,60,z,1,0.458815,,,,,,,,0.458815,1,,,,,,430,NW,"ID",33,caroey,CAROEY,z,,,,,,0.021993885,-0.418646141,0,0,0,,0,250,250,249,1,
,,,,,,,,,,,,,,,,,,5f3598f48853aa595c6733e2,2020-11-26_17h02.24.705,lexical_decision_task_MP_exp2,2020.2.5,Win32,60,z,1,0.47786,,,,,,,,0.47786,1,,,,,,472,NW,"ID",33,cigney,CIGNEY,z,,,,,,0.021993885,-0.418646141,0,0,0,,0,251,251,291,1,
,,,,,,,,,,,,,,,,,,5f3598f48853aa595c6733e2,2020-11-26_17h02.24.705,lexical_decision_task_MP_exp2,2020.2.5,Win32,60,z,1,0.442275,,,,,,,,0.442275,1,,,,,,415,NW,UN,16,pathel,HIGSTA,z,,,,,,0.021993885,-0.418646141,0,0,0,,0,252,252,474,1,
,,,,,,,,,,,,,,,,,,5f3598f48853aa595c6733e2,2020-11-26_17h02.24.705,lexical_decision_task_MP_exp2,2020.2.5,Win32,60,m,0,0.64811,,,,,,,,0.64811,0,,,,,,476,NW,"ID",33,josted,JOSTED,z,,,,,,0.021993885,-0.418646141,0,0,0,,0,253,253,295,1,
,,,,,,,,,,,,,,,,,,5f3598f48853aa595c6733e2,2020-11-26_17h02.24.705,lexical_decision_task_MP_exp2,2020.2.5,Win32,60,m,1,0.502365,,,,,,,,0.502365,1,,,,,,216,WORD,"ID",33,behalf,BEHALF,m,,,,,,0.021993885,-0.418646141,0,0,0,,0,254,254,35,1,
,,,,,,,,,,,,,,,,,,5f3598f48853aa595c6733e2,2020-11-26_17h02.24.705,lexical_decision_task_MP_exp2,2020.2.5,Win32,60,m,1,0.57812,,,,,,,,0.57812,1,,,,,,130,WORD,UN,16,quench,STUPID,m,,,,,,0.021993885,-0.418646141,0,0,0,,0,255,255,189,1,
,,,,,,,,,,,,,,,,,,5f3598f48853aa595c6733e2,2020-11-26_17h02.24.705,lexical_decision_task_MP_exp2,2020.2.5,Win32,60,m,1,0.563935,,,,,,,,0.563935,1,,,,,,229,WORD,"ID",33,mother,MOTHER,m,,,,,,0.021993885,-0.418646141,0,0,0,,0,256,256,48,1,
,,,,,,,,,,,,,,,,,,5f3598f48853aa595c6733e2,2020-11-26_17h02.24.705,lexical_decision_task_MP_exp2,2020.2.5,Win32,60,z,1,0.66109,,,,,,,,0.66109,1,,,,,,326,NW,UN,33,plenac,IGUADE,z,,,,,,0.021993885,-0.418646141,0,0,0,,0,257,257,385,1,
,,,,,,,,,,,,,,,,,,5f3598f48853aa595c6733e2,2020-11-26_17h02.24.705,lexical_decision_task_MP_exp2,2020.2.5,Win32,60,z,1,0.473835,,,,,,,,0.473835,1,,,,,,271,NW,"ID",16,aubrid,AUBRID,z,,,,,,0.021993885,-0.418646141,0,0,0,,0,258,258,330,1,
,,,,,,,,,,,,,,,,,,5f3598f48853aa595c6733e2,2020-11-26_17h02.24.705,lexical_decision_task_MP_exp2,2020.2.5,Win32,60,m,1,0.5323,,,,,,,,0.5323,1,,,,,,60,WORD,"ID",16,pencil,PENCIL,m,,,,,,0.021993885,-0.418646141,0,0,0,,0,259,259,119,1,
,,,,,,,,,,,,,,,,,,5f3598f48853aa595c6733e2,2020-11-26_17h02.24.705,lexical_decision_task_MP_exp2,2020.2.5,Win32,60,z,1,0.502145,,,,,,,,0.502145,1,,,,,,420,NW,UN,16,pauche,GUSHOP,z,,,,,,0.021993885,-0.418646141,0,0,0,,0,260,260,479,1,
,,,,,,,,,,,,,,,,,,5f3598f48853aa595c6733e2,2020-11-26_17h02.24.705,lexical_decision_task_MP_exp2,2020.2.5,Win32,60,m,1,0.601095,,,,,,,,0.601095,1,,,,,,131,WORD,UN,16,strong,QUENCH,m,,,,,,0.021993885,-0.418646141,0,0,0,,0,261,261,190,1,
,,,,,,,,,,,,,,,,,,5f3598f48853aa595c6733e2,2020-11-26_17h02.24.705,lexical_decision_task_MP_exp2,2020.2.5,Win32,60,m,1,0.554725,,,,,,,,0.554725,1,,,,,,82,WORD,UN,33,result,STIGMA,m,,,,,,0.021993885,-0.418646141,0,0,0,,0,262,262,141,1,
,,,,,,,,,,,,,,,,,,5f3598f48853aa595c6733e2,2020-11-26_17h02.24.705,lexical_decision_task_MP_exp2,2020.2.5,Win32,60,z,1,0.55502,,,,,,,,0.55502,1,,,,,,245,NW,"ID",16,anougs,ANOUGS,z,,,,,,0.021993885,-0.418646141,0,0,0,,0,263,263,304,1,
,,,,,,,,,,,,,,,,,,5f3598f48853aa595c6733e2,2020-11-26_17h02.24.705,lexical_decision_task_MP_exp2,2020.2.5,Win32,60,z,1,0.700095,,,,,,,,0.700095,1,,,,,,249,NW,"ID",16,batrol,BATROL,z,,,,,,0.021993885,-0.418646141,0,0,0,,0,264,264,308,1,
,,,,,,,,,,,,,,,,,,5f3598f48853aa595c6733e2,2020-11-26_17h02.24.705,lexical_decision_task_MP_exp2,2020.2.5,Win32,60,m,1,0.516105,,,,,,,,0.516105,1,,,,,,81,WORD,UN,33,stigma,FRIEND,m,,,,,,0.021993885,-0.418646141,0,0,0,,0,265,265,140,1,
,,,,,,,,,,,,,,,,,,5f3598f48853aa595c6733e2,2020-11-26_17h02.24.705,lexical_decision_task_MP_exp2,2020.2.5,Win32,60,m,1,0.63522,,,,,,,,0.63522,1,,,,,,196,WORD,"ID",33,credit,CREDIT,m,,,,,,0.021993885,-0.418646141,0,0,0,,0,266,266,15,1,
,,,,,,,,,,,,,,,,,,5f3598f48853aa595c6733e2,2020-11-26_17h02.24.705,lexical_decision_task_MP_exp2,2020.2.5,Win32,60,z,1,0.60063,,,,,,,,0.60063,1,,,,,,397,NW,UN,16,blunde,CAMBLE,z,,,,,,0.021993885,-0.418646141,0,0,0,,0,267,267,456,1,
,,,,,,,,,,,,,,,,,,5f3598f48853aa595c6733e2,2020-11-26_17h02.24.705,lexical_decision_task_MP_exp2,2020.2.5,Win32,60,z,1,0.57606,,,,,,,,0.57606,1,,,,,,383,NW,UN,16,guesco,AUNGRE,z,,,,,,0.021993885,-0.418646141,0,0,0,,0,268,268,442,1,
,,,,,,,,,,,,,,,,,,5f3598f48853aa595c6733e2,2020-11-26_17h02.24.705,lexical_decision_task_MP_exp2,2020.2.5,Win32,60,m,1,0.533315,,,,,,,,0.533315,1,,,,,,77,WORD,UN,33,column,RACKET,m,,,,,,0.021993885,-0.418646141,0,0,0,,0,269,269,136,1,
,,,,,,,,,,,,,,,,,,5f3598f48853aa595c6733e2,2020-11-26_17h02.24.705,lexical_decision_task_MP_exp2,2020.2.5,Win32,60,z,1,0.57765,,,,,,,,0.57765,1,,,,,,306,NW,UN,33,kirafe,SOUNGE,z,,,,,,0.021993885,-0.418646141,0,0,0,,0,270,270,365,1,
,,,,,,,,,,,,,,,,,,5f3598f48853aa595c6733e2,2020-11-26_17h02.24.705,lexical_decision_task_MP_exp2,2020.2.5,Win32,60,z,1,0.61679,,,,,,,,0.61679,1,,,,,,311,NW,UN,33,nerawl,SPROLY,z,,,,,,0.021993885,-0.418646141,0,0,0,,0,271,271,370,1,
,,,,,,,,,,,,,,,,,,5f3598f48853aa595c6733e2,2020-11-26_17h02.24.705,lexical_decision_task_MP_exp2,2020.2.5,Win32,60,m,1,1.234095,,,,,,,,1.234095,1,,,,,,128,WORD,UN,16,marvel,SENIOR,m,,,,,,0.021993885,-0.418646141,0,0,0,,0,272,272,187,1,
,,,,,,,,,,,,,,,,,,5f3598f48853aa595c6733e2,2020-11-26_17h02.24.705,lexical_decision_task_MP_exp2,2020.2.5,Win32,60,z,1,0.71501,,,,,,,,0.71501,1,,,,,,263,NW,"ID",16,dolica,DOLICA,z,,,,,,0.021993885,-0.418646141,0,0,0,,0,273,273,322,1,
,,,,,,,,,,,,,,,,,,5f3598f48853aa595c6733e2,2020-11-26_17h02.24.705,lexical_decision_task_MP_exp2,2020.2.5,Win32,60,z,1,0.47159,,,,,,,,0.47159,1,,,,,,464,NW,"ID",33,chaite,CHAITE,z,,,,,,0.021993885,-0.418646141,0,0,0,,0,274,274,283,1,
,,,,,,,,,,,,,,,,,,5f3598f48853aa595c6733e2,2020-11-26_17h02.24.705,lexical_decision_task_MP_exp2,2020.2.5,Win32,60,z,1,0.53156,,,,,,,,0.53156,1,,,,,,279,NW,"ID",16,celond,CELOND,z,,,,,,0.021993885,-0.418646141,0,0,0,,0,275,275,338,1,
,,,,,,,,,,,,,,,,,,5f3598f48853aa595c6733e2,2020-11-26_17h02.24.705,lexical_decision_task_MP_exp2,2020.2.5,Win32,60,m,1,0.55023,,,,,,,,0.55023,1,,,,,,10,WORD,"ID",16,ethnic,ETHNIC,m,,,,,,0.021993885,-0.418646141,0,0,0,,0,276,276,69,1,
,,,,,,,,,,,,,,,,,,5f3598f48853aa595c6733e2,2020-11-26_17h02.24.705,lexical_decision_task_MP_exp2,2020.2.5,Win32,60,m,1,0.707665,,,,,,,,0.707665,1,,,,,,218,WORD,"ID",33,shrink,SHRINK,m,,,,,,0.021993885,-0.418646141,0,0,0,,0,277,277,37,1,
,,,,,,,,,,,,,,,,,,5f3598f48853aa595c6733e2,2020-11-26_17h02.24.705,lexical_decision_task_MP_exp2,2020.2.5,Win32,60,m,1,0.50497,,,,,,,,0.50497,1,,,,,,186,WORD,"ID",33,portal,PORTAL,m,,,,,,0.021993885,-0.418646141,0,0,0,,0,278,278,5,1,
,,,,,,,,,,,,,,,,,,5f3598f48853aa595c6733e2,2020-11-26_17h02.24.705,lexical_decision_task_MP_exp2,2020.2.5,Win32,60,m,1,0.50847,,,,,,,,0.50847,1,,,,,,102,WORD,UN,33,bounce,DIRECT,m,,,,,,0.021993885,-0.418646141,0,0,0,,0,279,279,161,1,
,,,,,,,,,,,,,,,,,,5f3598f48853aa595c6733e2,2020-11-26_17h02.24.705,lexical_decision_task_MP_exp2,2020.2.5,Win32,60,m,1,0.541215,,,,,,,,0.541215,1,,,,,,57,WORD,"ID",16,change,CHANGE,m,,,,,,0.021993885,-0.418646141,0,0,0,,0,280,280,116,1,
,,,,,,,,,,,,,,,,,,5f3598f48853aa595c6733e2,2020-11-26_17h02.24.705,lexical_decision_task_MP_exp2,2020.2.5,Win32,60,m,1,0.464495,,,,,,,,0.464495,1,,,,,,117,WORD,UN,33,flight,BRANCH,m,,,,,,0.021993885,-0.418646141,0,0,0,,0,281,281,176,1,
,,,,,,,,,,,,,,,,,,5f3598f48853aa595c6733e2,2020-11-26_17h02.24.705,lexical_decision_task_MP_exp2,2020.2.5,Win32,60,z,1,0.5265,,,,,,,,0.5265,1,,,,,,403,NW,UN,16,cluirm,BRUATS,z,,,,,,0.021993885,-0.418646141,0,0,0,,0,282,282,462,1,
,,,,,,,,,,,,,,,,,,5f3598f48853aa595c6733e2,2020-11-26_17h02.24.705,lexical_decision_task_MP_exp2,2020.2.5,Win32,60,m,1,0.519955,,,,,,,,0.519955,1,,,,,,172,WORD,UN,16,shower,PATROL,m,,,,,,0.021993885,-0.418646141,0,0,0,,0,283,283,231,1,
,,,,,,,,,,,,,,,,,,5f3598f48853aa595c6733e2,2020-11-26_17h02.24.705,lexical_decision_task_MP_exp2,2020.2.5,Win32,60,z,1,0.67154,,,,,,,,0.67154,1,,,,,,340,NW,UN,33,myrtie,FIATCH,z,,,,,,0.021993885,-0.418646141,0,0,0,,0,284,284,399,1,
,,,,,,,,,,,,,,,,,,5f3598f48853aa595c6733e2,2020-11-26_17h02.24.705,lexical_decision_task_MP_exp2,2020.2.5,Win32,60,m,1,0.635095,,,,,,,,0.635095,1,,,,,,221,WORD,"ID",33,mascot,MASCOT,m,,,,,,0.021993885,-0.418646141,0,0,0,,0,285,285,40,1,
,,,,,,,,,,,,,,,,,,5f3598f48853aa595c6733e2,2020-11-26_17h02.24.705,lexical_decision_task_MP_exp2,2020.2.5,Win32,60,m,1,0.616465,,,,,,,,0.616465,1,,,,,,53,WORD,"ID",16,police,POLICE,m,,,,,,0.021993885,-0.418646141,0,0,0,,0,286,286,112,1,
,,,,,,,,,,,,,,,,,,5f3598f48853aa595c6733e2,2020-11-26_17h02.24.705,lexical_decision_task_MP_exp2,2020.2.5,Win32,60,m,1,0.524265,,,,,,,,0.524265,1,,,,,,17,WORD,"ID",16,charge,CHARGE,m,,,,,,0.021993885,-0.418646141,0,0,0,,0,287,287,76,1,
,,,,,,,,,,,,,,,,,,5f3598f48853aa595c6733e2,2020-11-26_17h02.24.705,lexical_decision_task_MP_exp2,2020.2.5,Win32,60,z,1,0.56326,,,,,,,,0.56326,1,,,,,,272,NW,"ID",16,damilt,DAMILT,z,,,,,,0.021993885,-0.418646141,0,0,0,,0,288,288,331,1,
,,,,,,,,,,,,,,,,,,5f3598f48853aa595c6733e2,2020-11-26_17h02.24.705,lexical_decision_task_MP_exp2,2020.2.5,Win32,60,z,1,0.618615,,,,,,,,0.618615,1,,,,,,405,NW,UN,16,nouply,FLUMNI,z,,,,,,0.021993885,-0.418646141,0,0,0,,0,289,289,464,1,
,,,,,,,,,,,,,,,,,,5f3598f48853aa595c6733e2,2020-11-26_17h02.24.705,lexical_decision_task_MP_exp2,2020.2.5,Win32,60,z,1,0.539115,,,,,,,,0.539115,1,,,,,,386,NW,UN,16,gronce,ANCUST,z,,,,,,0.021993885,-0.418646141,0,0,0,,0,290,290,445,1,
,,,,,,,,,,,,,,,,,,5f3598f48853aa595c6733e2,2020-11-26_17h02.24.705,lexical_decision_task_MP_exp2,2020.2.5,Win32,60,m,1,0.48365,,,,,,,,0.48365,1,,,,,,61,WORD,UN,33,region,PONDER,m,,,,,,0.021993885,-0.418646141,0,0,0,,0,291,291,120,1,
,,,,,,,,,,,,,,,,,,5f3598f48853aa595c6733e2,2020-11-26_17h02.24.705,lexical_decision_task_MP_exp2,2020.2.5,Win32,60,m,1,0.447305,,,,,,,,0.447305,1,,,,,,174,WORD,UN,16,fabric,TURKEY,m,,,,,,0.021993885,-0.418646141,0,0,0,,0,292,292,233,1,
,,,,,,,,,,,,,,,,,,5f3598f48853aa595c6733e2,2020-11-26_17h02.24.705,lexical_decision_task_MP_exp2,2020.2.5,Win32,60,z,1,0.564965,,,,,,,,0.564965,1,,,,,,414,NW,UN,16,higsta,SERBOL,z,,,,,,0.021993885,-0.418646141,0,0,0,,0,293,293,473,1,
,,,,,,,,,,,,,,,,,,5f3598f48853aa595c6733e2,2020-11-26_17h02.24.705,lexical_decision_task_MP_exp2,2020.2.5,Win32,60,z,1,0.550965,,,,,,,,0.550965,1,,,,,,353,NW,UN,33,virlex,CLUREY,z,,,,,,0.021993885,-0.418646141,0,0,0,,0,294,294,412,1,
,,,,,,,,,,,,,,,,,,5f3598f48853aa595c6733e2,2020-11-26_17h02.24.705,lexical_decision_task_MP_exp2,2020.2.5,Win32,60,m,1,0.55355,,,,,,,,0.55355,1,,,,,,236,WORD,"ID",33,pirate,PIRATE,m,,,,,,0.021993885,-0.418646141,0,0,0,,0,295,295,55,1,
,,,,,,,,,,,,,,,,,,5f3598f48853aa595c6733e2,2020-11-26_17h02.24.705,lexical_decision_task_MP_exp2,2020.2.5,Win32,60,z,1,0.541005,,,,,,,,0.541005,1,,,,,,456,NW,"ID",33,broget,BROGET,z,,,,,,0.021993885,-0.418646141,0,0,0,,0,296,296,275,1,
,,,,,,,,,,,,,,,,,,5f3598f48853aa595c6733e2,2020-11-26_17h02.24.705,lexical_decision_task_MP_exp2,2020.2.5,Win32,60,m,1,0.57633,,,,,,,,0.57633,1,,,,,,133,WORD,UN,16,staple,CHROME,m,,,,,,0.021993885,-0.418646141,0,0,0,,0,297,297,192,1,
,,,,,,,,,,,,,,,,,,5f3598f48853aa595c6733e2,2020-11-26_17h02.24.705,lexical_decision_task_MP_exp2,2020.2.5,Win32,60,z,1,0.585435,,,,,,,,0.585435,1,,,,,,368,NW,UN,16,wronch,HORNAL,z,,,,,,0.021993885,-0.418646141,0,0,0,,0,298,298,427,1,
,,,,,,,,,,,,,,,,,,5f3598f48853aa595c6733e2,2020-11-26_17h02.24.705,lexical_decision_task_MP_exp2,2020.2.5,Win32,60,m,1,0.427025,,,,,,,,0.427025,1,,,,,,40,WORD,"ID",16,convey,CONVEY,m,,,,,,0.021993885,-0.418646141,0,0,0,,0,299,299,99,1,
,,,,,,,,,,,,,,,,,,5f3598f48853aa595c6733e2,2020-11-26_17h02.24.705,lexical_decision_task_MP_exp2,2020.2.5,Win32,60,m,1,0.591915,,,,,,,,0.591915,1,,,,,,183,WORD,"ID",33,mildew,MILDEW,m,,,,,,0.021993885,-0.418646141,0,0,0,,0,300,300,2,1,
,,,,,,,,,,,,,,,,,,5f3598f48853aa595c6733e2,2020-11-26_17h02.24.705,lexical_decision_task_MP_exp2,2020.2.5,Win32,60,m,0,0.473855,,,,,,,,0.473855,0,,,,,,338,NW,UN,33,fachow,WREASH,z,,,,,,0.021993885,-0.418646141,0,0,0,,0,301,301,397,1,
,,,,,,,,,,,,,,,,,,5f3598f48853aa595c6733e2,2020-11-26_17h02.24.705,lexical_decision_task_MP_exp2,2020.2.5,Win32,60,z,1,0.65931,,,,,,,,0.65931,1,,,,,,441,NW,"ID",33,rastoe,RASTOE,z,,,,,,0.021993885,-0.418646141,0,0,0,,0,302,302,260,1,
,,,,,,,,,,,,,,,,,,5f3598f48853aa595c6733e2,2020-11-26_17h02.24.705,lexical_decision_task_MP_exp2,2020.2.5,Win32,60,m,1,0.65015,,,,,,,,0.65015,1,,,,,,26,WORD,"ID",16,sprint,SPRINT,m,,,,,,0.021993885,-0.418646141,0,0,0,,0,303,303,85,1,
,,,,,,,,,,,,,,,,,,5f3598f48853aa595c6733e2,2020-11-26_17h02.24.705,lexical_decision_task_MP_exp2,2020.2.5,Win32,60,m,1,0.569825,,,,,,,,0.569825,1,,,,,,192,WORD,"ID",33,plague,PLAGUE,m,,,,,,0.021993885,-0.418646141,0,0,0,,0,304,304,11,1,
,,,,,,,,,,,,,,,,,,5f3598f48853aa595c6733e2,2020-11-26_17h02.24.705,lexical_decision_task_MP_exp2,2020.2.5,Win32,60,m,1,0.518725,,,,,,,,0.518725,1,,,,,,173,WORD,UN,16,turkey,SHOWER,m,,,,,,0.021993885,-0.418646141,0,0,0,,0,305,305,232,1,
,,,,,,,,,,,,,,,,,,5f3598f48853aa595c6733e2,2020-11-26_17h02.24.705,lexical_decision_task_MP_exp2,2020.2.5,Win32,60,m,1,0.51156,,,,,,,,0.51156,1,,,,,,165,WORD,UN,16,starch,INVEST,m,,,,,,0.021993885,-0.418646141,0,0,0,,0,306,306,224,1,
,,,,,,,,,,,,,,,,,,5f3598f48853aa595c6733e2,2020-11-26_17h02.24.705,lexical_decision_task_MP_exp2,2020.2.5,Win32,60,m,1,0.53329,,,,,,,,0.53329,1,,,,,,225,WORD,"ID",33,vulgar,VULGAR,m,,,,,,0.021993885,-0.418646141,0,0,0,,0,307,307,44,1,
,,,,,,,,,,,,,,,,,,5f3598f48853aa595c6733e2,2020-11-26_17h02.24.705,lexical_decision_task_MP_exp2,2020.2.5,Win32,60,m,1,0.441785,,,,,,,,0.441785,1,,,,,,203,WORD,"ID",33,phrase,PHRASE,m,,,,,,0.021993885,-0.418646141,0,0,0,,0,308,308,22,1,
,,,,,,,,,,,,,,,,,,5f3598f48853aa595c6733e2,2020-11-26_17h02.24.705,lexical_decision_task_MP_exp2,2020.2.5,Win32,60,z,1,0.613265,,,,,,,,0.613265,1,,,,,,475,NW,"ID",33,pebric,PEBRIC,z,,,,,,0.021993885,-0.418646141,0,0,0,,0,309,309,294,1,
,,,,,,,,,,,,,,,,,,5f3598f48853aa595c6733e2,2020-11-26_17h02.24.705,lexical_decision_task_MP_exp2,2020.2.5,Win32,60,m,1,0.59984,,,,,,,,0.59984,1,,,,,,13,WORD,"ID",16,strive,STRIVE,m,,,,,,0.021993885,-0.418646141,0,0,0,,0,310,310,72,1,
,,,,,,,,,,,,,,,,,,5f3598f48853aa595c6733e2,2020-11-26_17h02.24.705,lexical_decision_task_MP_exp2,2020.2.5,Win32,60,z,1,0.699965,,,,,,,,0.699965,1,,,,,,467,NW,"ID",33,gorbie,GORBIE,z,,,,,,0.021993885,-0.418646141,0,0,0,,0,311,311,286,1,
,,,,,,,,,,,,,,,,,,5f3598f48853aa595c6733e2,2020-11-26_17h02.24.705,lexical_decision_task_MP_exp2,2020.2.5,Win32,60,m,1,0.433445,,,,,,,,0.433445,1,,,,,,167,WORD,UN,16,answer,DESIGN,m,,,,,,0.021993885,-0.418646141,0,0,0,,0,312,312,226,1,
,,,,,,,,,,,,,,,,,,5f3598f48853aa595c6733e2,2020-11-26_17h02.24.705,lexical_decision_task_MP_exp2,2020.2.5,Win32,60,z,1,0.58943,,,,,,,,0.58943,1,,,,,,344,NW,UN,33,absend,SCRILY,z,,,,,,0.021993885,-0.418646141,0,0,0,,0,313,313,403,1,
,,,,,,,,,,,,,,,,,,5f3598f48853aa595c6733e2,2020-11-26_17h02.24.705,lexical_decision_task_MP_exp2,2020.2.5,Win32,60,z,1,0.52463,,,,,,,,0.52463,1,,,,,,330,NW,UN,33,gilfew,KENSOM,z,,,,,,0.021993885,-0.418646141,0,0,0,,0,314,314,389,1,
,,,,,,,,,,,,,,,,,,5f3598f48853aa595c6733e2,2020-11-26_17h02.24.705,lexical_decision_task_MP_exp2,2020.2.5,Win32,60,m,1,0.57257,,,,,,,,0.57257,1,,,,,,217,WORD,"ID",33,liquor,LIQUOR,m,,,,,,0.021993885,-0.418646141,0,0,0,,0,315,315,36,1,
,,,,,,,,,,,,,,,,,,5f3598f48853aa595c6733e2,2020-11-26_17h02.24.705,lexical_decision_task_MP_exp2,2020.2.5,Win32,60,m,1,0.75974,,,,,,,,0.75974,1,,,,,,125,WORD,UN,16,enough,NICKEL,m,,,,,,0.021993885,-0.418646141,0,0,0,,0,316,316,184,1,
,,,,,,,,,,,,,,,,,,5f3598f48853aa595c6733e2,2020-11-26_17h02.24.705,lexical_decision_task_MP_exp2,2020.2.5,Win32,60,m,1,0.593935,,,,,,,,0.593935,1,,,,,,234,WORD,"ID",33,clumsy,CLUMSY,m,,,,,,0.021993885,-0.418646141,0,0,0,,0,317,317,53,1,
,,,,,,,,,,,,,,,,,,5f3598f48853aa595c6733e2,2020-11-26_17h02.24.705,lexical_decision_task_MP_exp2,2020.2.5,Win32,60,z,1,0.515615,,,,,,,,0.515615,1,,,,,,365,NW,UN,16,toshel,GUAIRT,z,,,,,,0.021993885,-0.418646141,0,0,0,,0,318,318,424,1,
,,,,,,,,,,,,,,,,,,5f3598f48853aa595c6733e2,2020-11-26_17h02.24.705,lexical_decision_task_MP_exp2,2020.2.5,Win32,60,z,1,0.5281,,,,,,,,0.5281,1,,,,,,334,NW,UN,33,desion,WATMEG,z,,,,,,0.021993885,-0.418646141,0,0,0,,0,319,319,393,1,
,,,,,,,,,,,,,,,,,,5f3598f48853aa595c6733e2,2020-11-26_17h02.24.705,lexical_decision_task_MP_exp2,2020.2.5,Win32,60,m,1,0.61668,,,,,,,,0.61668,1,,,,,,115,WORD,UN,33,tumble,GUITAR,m,,,,,,0.021993885,-0.418646141,0,0,0,,0,320,320,174,1,
,,,,,,,,,,,,,,,,,,5f3598f48853aa595c6733e2,2020-11-26_17h02.24.705,lexical_decision_task_MP_exp2,2020.2.5,Win32,60,m,1,0.46705,,,,,,,,0.46705,1,,,,,,91,WORD,UN,33,hunger,EXPAND,m,,,,,,0.021993885,-0.418646141,0,0,0,,0,321,321,150,1,
,,,,,,,,,,,,,,,,,,5f3598f48853aa595c6733e2,2020-11-26_17h02.24.705,lexical_decision_task_MP_exp2,2020.2.5,Win32,60,z,1,0.492145,,,,,,,,0.492145,1,,,,,,444,NW,"ID",33,jaunce,JAUNCE,z,,,,,,0.021993885,-0.418646141,0,0,0,,0,322,322,263,1,
,,,,,,,,,,,,,,,,,,5f3598f48853aa595c6733e2,2020-11-26_17h02.24.705,lexical_decision_task_MP_exp2,2020.2.5,Win32,60,z,1,0.520195,,,,,,,,0.520195,1,,,,,,438,NW,"ID",33,baitch,BAITCH,z,,,,,,0.021993885,-0.418646141,0,0,0,,0,323,323,257,1,
,,,,,,,,,,,,,,,,,,5f3598f48853aa595c6733e2,2020-11-26_17h02.24.705,lexical_decision_task_MP_exp2,2020.2.5,Win32,60,m,1,0.54968,,,,,,,,0.54968,1,,,,,,70,WORD,UN,33,garden,SQUARE,m,,,,,,0.021993885,-0.418646141,0,0,0,,0,324,324,129,1,
,,,,,,,,,,,,,,,,,,5f3598f48853aa595c6733e2,2020-11-26_17h02.24.705,lexical_decision_task_MP_exp2,2020.2.5,Win32,60,m,0,0.483145,,,,,,,,0.483145,0,,,,,,335,NW,UN,33,ghodus,DESION,z,,,,,,0.021993885,-0.418646141,0,0,0,,0,325,325,394,1,
,,,,,,,,,,,,,,,,,,5f3598f48853aa595c6733e2,2020-11-26_17h02.24.705,lexical_decision_task_MP_exp2,2020.2.5,Win32,60,m,0,0.70078,,,,,,,,0.70078,0,,,,,,355,NW,UN,33,othnis,ZINGLY,z,,,,,,0.021993885,-0.418646141,0,0,0,,0,326,326,414,1,
,,,,,,,,,,,,,,,,,,5f3598f48853aa595c6733e2,2020-11-26_17h02.24.705,lexical_decision_task_MP_exp2,2020.2.5,Win32,60,z,1,0.666665,,,,,,,,0.666665,1,,,,,,352,NW,UN,33,clurey,TRINGE,z,,,,,,0.021993885,-0.418646141,0,0,0,,0,327,327,411,1,
,,,,,,,,,,,,,,,,,,5f3598f48853aa595c6733e2,2020-11-26_17h02.24.705,lexical_decision_task_MP_exp2,2020.2.5,Win32,60,m,1,0.723475,,,,,,,,0.723475,1,,,,,,159,WORD,UN,16,violet,DETAIL,m,,,,,,0.021993885,-0.418646141,0,0,0,,0,328,328,218,1,
,,,,,,,,,,,,,,,,,,5f3598f48853aa595c6733e2,2020-11-26_17h02.24.705,lexical_decision_task_MP_exp2,2020.2.5,Win32,60,z,1,0.59558,,,,,,,,0.59558,1,,,,,,372,NW,UN,16,bigent,RAMILY,z,,,,,,0.021993885,-0.418646141,0,0,0,,0,329,329,431,1,
,,,,,,,,,,,,,,,,,,5f3598f48853aa595c6733e2,2020-11-26_17h02.24.705,lexical_decision_task_MP_exp2,2020.2.5,Win32,60,z,1,0.66659,,,,,,,,0.66659,1,,,,,,304,NW,UN,33,forgle,CLUDIE,z,,,,,,0.021993885,-0.418646141,0,0,0,,0,330,330,363,1,
,,,,,,,,,,,,,,,,,,5f3598f48853aa595c6733e2,2020-11-26_17h02.24.705,lexical_decision_task_MP_exp2,2020.2.5,Win32,60,m,1,0.54253,,,,,,,,0.54253,1,,,,,,220,WORD,"ID",33,voyage,VOYAGE,m,,,,,,0.021993885,-0.418646141,0,0,0,,0,331,331,39,1,
,,,,,,,,,,,,,,,,,,5f3598f48853aa595c6733e2,2020-11-26_17h02.24.705,lexical_decision_task_MP_exp2,2020.2.5,Win32,60,m,1,0.68998,,,,,,,,0.68998,1,,,,,,199,WORD,"ID",33,invoke,INVOKE,m,,,,,,0.021993885,-0.418646141,0,0,0,,0,332,332,18,1,
,,,,,,,,,,,,,,,,,,5f3598f48853aa595c6733e2,2020-11-26_17h02.24.705,lexical_decision_task_MP_exp2,2020.2.5,Win32,60,z,1,0.56695,,,,,,,,0.56695,1,,,,,,292,NW,"ID",16,ablint,ABLINT,z,,,,,,0.021993885,-0.418646141,0,0,0,,0,333,333,351,1,
,,,,,,,,,,,,,,,,,,5f3598f48853aa595c6733e2,2020-11-26_17h02.24.705,lexical_decision_task_MP_exp2,2020.2.5,Win32,60,z,1,0.704605,,,,,,,,0.704605,1,,,,,,432,NW,"ID",33,lunker,LUNKER,z,,,,,,0.021993885,-0.418646141,0,0,0,,0,334,334,251,1,
,,,,,,,,,,,,,,,,,,5f3598f48853aa595c6733e2,2020-11-26_17h02.24.705,lexical_decision_task_MP_exp2,2020.2.5,Win32,60,z,1,0.533995,,,,,,,,0.533995,1,,,,,,453,NW,"ID",33,bolvis,BOLVIS,z,,,,,,0.021993885,-0.418646141,0,0,0,,0,335,335,272,1,
,,,,,,,,,,,,,,,,,,5f3598f48853aa595c6733e2,2020-11-26_17h02.24.705,lexical_decision_task_MP_exp2,2020.2.5,Win32,60,m,1,0.590395,,,,,,,,0.590395,1,,,,,,97,WORD,UN,33,belong,CLIENT,m,,,,,,0.021993885,-0.418646141,0,0,0,,0,336,336,156,1,
,,,,,,,,,,,,,,,,,,5f3598f48853aa595c6733e2,2020-11-26_17h02.24.705,lexical_decision_task_MP_exp2,2020.2.5,Win32,60,z,1,0.57875,,,,,,,,0.57875,1,,,,,,257,NW,"ID",16,veniod,VENIOD,z,,,,,,0.021993885,-0.418646141,0,0,0,,0,337,337,316,1,
,,,,,,,,,,,,,,,,,,5f3598f48853aa595c6733e2,2020-11-26_17h02.24.705,lexical_decision_task_MP_exp2,2020.2.5,Win32,60,m,0,0.6172,,,,,,,,0.6172,0,,,,,,260,NW,"ID",16,unject,UNJECT,z,,,,,,0.021993885,-0.418646141,0,0,0,,0,338,338,319,1,
,,,,,,,,,,,,,,,,,,5f3598f48853aa595c6733e2,2020-11-26_17h02.24.705,lexical_decision_task_MP_exp2,2020.2.5,Win32,60,z,1,1.093695,,,,,,,,1.093695,1,,,,,,399,NW,UN,16,wearox,FOURET,z,,,,,,0.021993885,-0.418646141,0,0,0,,0,339,339,458,1,
,,,,,,,,,,,,,,,,,,5f3598f48853aa595c6733e2,2020-11-26_17h02.24.705,lexical_decision_task_MP_exp2,2020.2.5,Win32,60,m,1,0.601355,,,,,,,,0.601355,1,,,,,,126,WORD,UN,16,castle,ENOUGH,m,,,,,,0.021993885,-0.418646141,0,0,0,,0,340,340,185,1,
,,,,,,,,,,,,,,,,,,5f3598f48853aa595c6733e2,2020-11-26_17h02.24.705,lexical_decision_task_MP_exp2,2020.2.5,Win32,60,m,1,0.493975,,,,,,,,0.493975,1,,,,,,67,WORD,UN,33,fumble,POLICY,m,,,,,,0.021993885,-0.418646141,0,0,0,,0,341,341,126,1,
,,,,,,,,,,,,,,,,,,5f3598f48853aa595c6733e2,2020-11-26_17h02.24.705,lexical_decision_task_MP_exp2,2020.2.5,Win32,60,m,1,0.52244,,,,,,,,0.52244,1,,,,,,210,WORD,"ID",33,monkey,MONKEY,m,,,,,,0.021993885,-0.418646141,0,0,0,,0,342,342,29,1,
,,,,,,,,,,,,,,,,,,5f3598f48853aa595c6733e2,2020-11-26_17h02.24.705,lexical_decision_task_MP_exp2,2020.2.5,Win32,60,m,1,0.48803,,,,,,,,0.48803,1,,,,,,74,WORD,UN,33,trophy,PLAQUE,m,,,,,,0.021993885,-0.418646141,0,0,0,,0,343,343,133,1,
,,,,,,,,,,,,,,,,,,5f3598f48853aa595c6733e2,2020-11-26_17h02.24.705,lexical_decision_task_MP_exp2,2020.2.5,Win32,60,z,1,0.5372,,,,,,,,0.5372,1,,,,,,323,NW,UN,33,steikh,ROSAIL,z,,,,,,0.021993885,-0.418646141,0,0,0,,0,344,344,382,1,
,,,,,,,,,,,,,,,,,,5f3598f48853aa595c6733e2,2020-11-26_17h02.24.705,lexical_decision_task_MP_exp2,2020.2.5,Win32,60,m,1,0.568735,,,,,,,,0.568735,1,,,,,,185,WORD,"ID",33,bother,BOTHER,m,,,,,,0.021993885,-0.418646141,0,0,0,,0,345,345,4,1,
,,,,,,,,,,,,,,,,,,5f3598f48853aa595c6733e2,2020-11-26_17h02.24.705,lexical_decision_task_MP_exp2,2020.2.5,Win32,60,z,1,0.87606,,,,,,,,0.87606,1,,,,,,418,NW,UN,16,slount,SUIDLE,z,,,,,,0.021993885,-0.418646141,0,0,0,,0,346,346,477,1,
,,,,,,,,,,,,,,,,,,5f3598f48853aa595c6733e2,2020-11-26_17h02.24.705,lexical_decision_task_MP_exp2,2020.2.5,Win32,60,z,1,0.856865,,,,,,,,0.856865,1,,,,,,244,NW,"ID",16,eatric,EATRIC,z,,,,,,0.021993885,-0.418646141,0,0,0,,0,347,347,303,1,
,,,,,,,,,,,,,,,,,,5f3598f48853aa595c6733e2,2020-11-26_17h02.24.705,lexical_decision_task_MP_exp2,2020.2.5,Win32,60,z,1,0.45433,,,,,,,,0.45433,1,,,,,,359,NW,UN,33,desory,FONVER,z,,,,,,0.021993885,-0.418646141,0,0,0,,0,348,348,418,1,
,,,,,,,,,,,,,,,,,,5f3598f48853aa595c6733e2,2020-11-26_17h02.24.705,lexical_decision_task_MP_exp2,2020.2.5,Win32,60,m,1,0.65041,,,,,,,,0.65041,1,,,,,,75,WORD,UN,33,exotic,TROPHY,m,,,,,,0.021993885,-0.418646141,0,0,0,,0,349,349,134,1,
,,,,,,,,,,,,,,,,,,5f3598f48853aa595c6733e2,2020-11-26_17h02.24.705,lexical_decision_task_MP_exp2,2020.2.5,Win32,60,m,1,0.624835,,,,,,,,0.624835,1,,,,,,146,WORD,UN,16,garlic,COUPLE,m,,,,,,0.021993885,-0.418646141,0,0,0,,0,350,350,205,1,
,,,,,,,,,,,,,,,,,,5f3598f48853aa595c6733e2,2020-11-26_17h02.24.705,lexical_decision_task_MP_exp2,2020.2.5,Win32,60,z,1,0.575805,,,,,,,,0.575805,1,,,,,,282,NW,"ID",16,porlex,PORLEX,z,,,,,,0.021993885,-0.418646141,0,0,0,,0,351,351,341,1,
,,,,,,,,,,,,,,,,,,5f3598f48853aa595c6733e2,2020-11-26_17h02.24.705,lexical_decision_task_MP_exp2,2020.2.5,Win32,60,z,1,0.50919,,,,,,,,0.50919,1,,,,,,285,NW,"ID",16,prudge,PRUDGE,z,,,,,,0.021993885,-0.418646141,0,0,0,,0,352,352,344,1,
,,,,,,,,,,,,,,,,,,5f3598f48853aa595c6733e2,2020-11-26_17h02.24.705,lexical_decision_task_MP_exp2,2020.2.5,Win32,60,m,1,0.558315,,,,,,,,0.558315,1,,,,,,119,WORD,UN,33,strain,SPIDER,m,,,,,,0.021993885,-0.418646141,0,0,0,,0,353,353,178,1,
,,,,,,,,,,,,,,,,,,5f3598f48853aa595c6733e2,2020-11-26_17h02.24.705,lexical_decision_task_MP_exp2,2020.2.5,Win32,60,m,1,0.64988,,,,,,,,0.64988,1,,,,,,14,WORD,"ID",16,almost,ALMOST,m,,,,,,0.021993885,-0.418646141,0,0,0,,0,354,354,73,1,
,,,,,,,,,,,,,,,,,,5f3598f48853aa595c6733e2,2020-11-26_17h02.24.705,lexical_decision_task_MP_exp2,2020.2.5,Win32,60,m,1,0.60348,,,,,,,,0.60348,1,,,,,,44,WORD,"ID",16,danger,DANGER,m,,,,,,0.021993885,-0.418646141,0,0,0,,0,355,355,103,1,
,,,,,,,,,,,,,,,,,,5f3598f48853aa595c6733e2,2020-11-26_17h02.24.705,lexical_decision_task_MP_exp2,2020.2.5,Win32,60,m,1,0.472895,,,,,,,,0.472895,1,,,,,,47,WORD,"ID",16,income,INCOME,m,,,,,,0.021993885,-0.418646141,0,0,0,,0,356,356,106,1,
,,,,,,,,,,,,,,,,,,5f3598f48853aa595c6733e2,2020-11-26_17h02.24.705,lexical_decision_task_MP_exp2,2020.2.5,Win32,60,z,1,0.500165,,,,,,,,0.500165,1,,,,,,435,NW,"ID",33,impurb,IMPURB,z,,,,,,0.021993885,-0.418646141,0,0,0,,0,357,357,254,1,
,,,,,,,,,,,,,,,,,,5f3598f48853aa595c6733e2,2020-11-26_17h02.24.705,lexical_decision_task_MP_exp2,2020.2.5,Win32,60,m,1,0.47778,,,,,,,,0.47778,1,,,,,,188,WORD,"ID",33,social,SOCIAL,m,,,,,,0.021993885,-0.418646141,0,0,0,,0,358,358,7,1,
,,,,,,,,,,,,,,,,,,5f3598f48853aa595c6733e2,2020-11-26_17h02.24.705,lexical_decision_task_MP_exp2,2020.2.5,Win32,60,z,1,0.55116,,,,,,,,0.55116,1,,,,,,461,NW,"ID",33,justre,JUSTRE,z,,,,,,0.021993885,-0.418646141,0,0,0,,0,359,359,280,1,
,,,,,,,,,,,,,,,,,,5f3598f48853aa595c6733e2,2020-11-26_17h02.24.705,lexical_decision_task_MP_exp2,2020.2.5,Win32,60,z,1,0.60249,,,,,,,,0.60249,1,,,,,,373,NW,UN,16,sliant,BIGENT,z,,,,,,0.021993885,-0.418646141,0,0,0,,0,360,360,432,1,
,,,,,,,,,,,,,,,,,,5f3598f48853aa595c6733e2,2020-11-26_17h02.24.705,lexical_decision_task_MP_exp2,2020.2.5,Win32,60,m,1,0.51676,,,,,,,,0.51676,1,,,,,,238,WORD,"ID",33,flower,FLOWER,m,,,,,,0.021993885,-0.418646141,0,0,0,,0,361,361,57,1,
,,,,,,,,,,,,,,,,,,5f3598f48853aa595c6733e2,2020-11-26_17h02.24.705,lexical_decision_task_MP_exp2,2020.2.5,Win32,60,m,1,0.48588,,,,,,,,0.48588,1,,,,,,138,WORD,UN,16,debris,MELODY,m,,,,,,0.053479684,-0.441797506,1,0,0,,0,362,362,197,1,break_done_button
,,,,,,,,,,,,,,,,,,5f3598f48853aa595c6733e2,2020-11-26_17h02.24.705,lexical_decision_task_MP_exp2,2020.2.5,Win32,60,z,1,0.62054,,,,,,,,0.62054,1,,,,,,284,NW,"ID",16,shaple,SHAPLE,z,,,,,,0.026624157,-0.389012395,0,0,0,,0,363,363,343,1,
,,,,,,,,,,,,,,,,,,5f3598f48853aa595c6733e2,2020-11-26_17h02.24.705,lexical_decision_task_MP_exp2,2020.2.5,Win32,60,m,1,0.544795,,,,,,,,0.544795,1,,,,,,110,WORD,UN,33,induce,POLITE,m,,,,,,0.026624157,-0.389012395,0,0,0,,0,364,364,169,1,
,,,,,,,,,,,,,,,,,,5f3598f48853aa595c6733e2,2020-11-26_17h02.24.705,lexical_decision_task_MP_exp2,2020.2.5,Win32,60,z,1,0.52496,,,,,,,,0.52496,1,,,,,,422,NW,"ID",33,alcoud,ALCOUD,z,,,,,,0.026624157,-0.389012395,0,0,0,,0,365,365,241,1,
,,,,,,,,,,,,,,,,,,5f3598f48853aa595c6733e2,2020-11-26_17h02.24.705,lexical_decision_task_MP_exp2,2020.2.5,Win32,60,m,1,0.49009,,,,,,,,0.49009,1,,,,,,71,WORD,UN,33,bright,GARDEN,m,,,,,,0.026624157,-0.389012395,0,0,0,,0,366,366,130,1,
,,,,,,,,,,,,,,,,,,5f3598f48853aa595c6733e2,2020-11-26_17h02.24.705,lexical_decision_task_MP_exp2,2020.2.5,Win32,60,z,1,0.616225,,,,,,,,0.616225,1,,,,,,425,NW,"ID",33,frudge,FRUDGE,z,,,,,,0.026624157,-0.389012395,0,0,0,,0,367,367,244,1,
,,,,,,,,,,,,,,,,,,5f3598f48853aa595c6733e2,2020-11-26_17h02.24.705,lexical_decision_task_MP_exp2,2020.2.5,Win32,60,m,1,0.58377,,,,,,,,0.58377,1,,,,,,20,WORD,"ID",16,breast,BREAST,m,,,,,,0.026624157,-0.389012395,0,0,0,,0,368,368,79,1,
,,,,,,,,,,,,,,,,,,5f3598f48853aa595c6733e2,2020-11-26_17h02.24.705,lexical_decision_task_MP_exp2,2020.2.5,Win32,60,z,1,0.504085,,,,,,,,0.504085,1,,,,,,273,NW,"ID",16,sortel,SORTEL,z,,,,,,0.026624157,-0.389012395,0,0,0,,0,369,369,332,1,
,,,,,,,,,,,,,,,,,,5f3598f48853aa595c6733e2,2020-11-26_17h02.24.705,lexical_decision_task_MP_exp2,2020.2.5,Win32,60,m,1,0.63785,,,,,,,,0.63785,1,,,,,,143,WORD,UN,16,sponge,REASON,m,,,,,,0.026624157,-0.389012395,0,0,0,,0,370,370,202,1,
,,,,,,,,,,,,,,,,,,5f3598f48853aa595c6733e2,2020-11-26_17h02.24.705,lexical_decision_task_MP_exp2,2020.2.5,Win32,60,m,1,0.618155,,,,,,,,0.618155,1,,,,,,191,WORD,"ID",33,stable,STABLE,m,,,,,,0.026624157,-0.389012395,0,0,0,,0,371,371,10,1,
,,,,,,,,,,,,,,,,,,5f3598f48853aa595c6733e2,2020-11-26_17h02.24.705,lexical_decision_task_MP_exp2,2020.2.5,Win32,60,m,1,0.52269,,,,,,,,0.52269,1,,,,,,153,WORD,UN,16,author,BEHOLD,m,,,,,,0.026624157,-0.389012395,0,0,0,,0,372,372,212,1,
,,,,,,,,,,,,,,,,,,5f3598f48853aa595c6733e2,2020-11-26_17h02.24.705,lexical_decision_task_MP_exp2,2020.2.5,Win32,60,z,1,0.52591,,,,,,,,0.52591,1,,,,,,265,NW,"ID",16,distar,DISTAR,z,,,,,,0.026624157,-0.389012395,0,0,0,,0,373,373,324,1,
,,,,,,,,,,,,,,,,,,5f3598f48853aa595c6733e2,2020-11-26_17h02.24.705,lexical_decision_task_MP_exp2,2020.2.5,Win32,60,m,1,0.540985,,,,,,,,0.540985,1,,,,,,213,WORD,"ID",33,squeal,SQUEAL,m,,,,,,0.026624157,-0.389012395,0,0,0,,0,374,374,32,1,
,,,,,,,,,,,,,,,,,,5f3598f48853aa595c6733e2,2020-11-26_17h02.24.705,lexical_decision_task_MP_exp2,2020.2.5,Win32,60,m,1,0.52049,,,,,,,,0.52049,1,,,,,,166,WORD,UN,16,design,STARCH,m,,,,,,0.026624157,-0.389012395,0,0,0,,0,375,375,225,1,
,,,,,,,,,,,,,,,,,,5f3598f48853aa595c6733e2,2020-11-26_17h02.24.705,lexical_decision_task_MP_exp2,2020.2.5,Win32,60,m,1,0.610405,,,,,,,,0.610405,1,,,,,,113,WORD,UN,33,placid,CHORUS,m,,,,,,0.026624157,-0.389012395,0,0,0,,0,376,376,172,1,
,,,,,,,,,,,,,,,,,,5f3598f48853aa595c6733e2,2020-11-26_17h02.24.705,lexical_decision_task_MP_exp2,2020.2.5,Win32,60,z,0,0.600265,,,,,,,,0.600265,0,,,,,,124,WORD,UN,16,nickel,BLOUSE,m,,,,,,0.026624157,-0.389012395,0,0,0,,0,377,377,183,1,
,,,,,,,,,,,,,,,,,,5f3598f48853aa595c6733e2,2020-11-26_17h02.24.705,lexical_decision_task_MP_exp2,2020.2.5,Win32,60,m,1,0.48752,,,,,,,,0.48752,1,,,,,,39,WORD,"ID",16,insect,INSECT,m,,,,,,0.026624157,-0.389012395,0,0,0,,0,378,378,98,1,
,,,,,,,,,,,,,,,,,,5f3598f48853aa595c6733e2,2020-11-26_17h02.24.705,lexical_decision_task_MP_exp2,2020.2.5,Win32,60,z,1,0.566825,,,,,,,,0.566825,1,,,,,,466,NW,"ID",33,hocite,HOCITE,z,,,,,,0.026624157,-0.389012395,0,0,0,,0,379,379,285,1,
,,,,,,,,,,,,,,,,,,5f3598f48853aa595c6733e2,2020-11-26_17h02.24.705,lexical_decision_task_MP_exp2,2020.2.5,Win32,60,m,1,0.49991,,,,,,,,0.49991,1,,,,,,35,WORD,"ID",16,socket,SOCKET,m,,,,,,0.026624157,-0.389012395,0,0,0,,0,380,380,94,1,
,,,,,,,,,,,,,,,,,,5f3598f48853aa595c6733e2,2020-11-26_17h02.24.705,lexical_decision_task_MP_exp2,2020.2.5,Win32,60,z,1,0.550285,,,,,,,,0.550285,1,,,,,,309,NW,UN,33,daniet,AMILOY,z,,,,,,0.026624157,-0.389012395,0,0,0,,0,381,381,368,1,
,,,,,,,,,,,,,,,,,,5f3598f48853aa595c6733e2,2020-11-26_17h02.24.705,lexical_decision_task_MP_exp2,2020.2.5,Win32,60,z,1,0.665695,,,,,,,,0.665695,1,,,,,,297,NW,"ID",16,fertic,FERTIC,z,,,,,,0.026624157,-0.389012395,0,0,0,,0,382,382,356,1,
,,,,,,,,,,,,,,,,,,5f3598f48853aa595c6733e2,2020-11-26_17h02.24.705,lexical_decision_task_MP_exp2,2020.2.5,Win32,60,z,1,0.61705,,,,,,,,0.61705,1,,,,,,469,NW,"ID",33,padifs,PADIFS,z,,,,,,0.026624157,-0.389012395,0,0,0,,0,383,383,288,1,
,,,,,,,,,,,,,,,,,,5f3598f48853aa595c6733e2,2020-11-26_17h02.24.705,lexical_decision_task_MP_exp2,2020.2.5,Win32,60,m,1,0.531605,,,,,,,,0.531605,1,,,,,,136,WORD,UN,16,finger,BLEACH,m,,,,,,0.026624157,-0.389012395,0,0,0,,0,384,384,195,1,
,,,,,,,,,,,,,,,,,,5f3598f48853aa595c6733e2,2020-11-26_17h02.24.705,lexical_decision_task_MP_exp2,2020.2.5,Win32,60,m,1,0.5171,,,,,,,,0.5171,1,,,,,,65,WORD,UN,33,gospel,SYMBOL,m,,,,,,0.026624157,-0.389012395,0,0,0,,0,385,385,124,1,
,,,,,,,,,,,,,,,,,,5f3598f48853aa595c6733e2,2020-11-26_17h02.24.705,lexical_decision_task_MP_exp2,2020.2.5,Win32,60,z,1,0.53044,,,,,,,,0.53044,1,,,,,,315,NW,UN,33,scregm,LASTON,z,,,,,,0.026624157,-0.389012395,0,0,0,,0,386,386,374,1,
,,,,,,,,,,,,,,,,,,5f3598f48853aa595c6733e2,2020-11-26_17h02.24.705,lexical_decision_task_MP_exp2,2020.2.5,Win32,60,z,1,0.483535,,,,,,,,0.483535,1,,,,,,350,NW,UN,33,tiesch,NAGURS,z,,,,,,0.026624157,-0.389012395,0,0,0,,0,387,387,409,1,
,,,,,,,,,,,,,,,,,,5f3598f48853aa595c6733e2,2020-11-26_17h02.24.705,lexical_decision_task_MP_exp2,2020.2.5,Win32,60,z,0,0.49083,,,,,,,,0.49083,0,,,,,,222,WORD,"ID",33,hinder,HINDER,m,,,,,,0.026624157,-0.389012395,0,0,0,,0,388,388,41,1,
,,,,,,,,,,,,,,,,,,5f3598f48853aa595c6733e2,2020-11-26_17h02.24.705,lexical_decision_task_MP_exp2,2020.2.5,Win32,60,z,1,0.743195,,,,,,,,0.743195,1,,,,,,406,NW,UN,16,suiver,NOUPLY,z,,,,,,0.026624157,-0.389012395,0,0,0,,0,389,389,465,1,
,,,,,,,,,,,,,,,,,,5f3598f48853aa595c6733e2,2020-11-26_17h02.24.705,lexical_decision_task_MP_exp2,2020.2.5,Win32,60,m,1,0.4629,,,,,,,,0.4629,1,,,,,,144,WORD,UN,16,parish,SPONGE,m,,,,,,0.026624157,-0.389012395,0,0,0,,0,390,390,203,1,
,,,,,,,,,,,,,,,,,,5f3598f48853aa595c6733e2,2020-11-26_17h02.24.705,lexical_decision_task_MP_exp2,2020.2.5,Win32,60,z,1,0.51187,,,,,,,,0.51187,1,,,,,,290,NW,"ID",16,splino,SPLINO,z,,,,,,0.026624157,-0.389012395,0,0,0,,0,391,391,349,1,
,,,,,,,,,,,,,,,,,,5f3598f48853aa595c6733e2,2020-11-26_17h02.24.705,lexical_decision_task_MP_exp2,2020.2.5,Win32,60,m,1,0.437735,,,,,,,,0.437735,1,,,,,,206,WORD,"ID",33,tailor,TAILOR,m,,,,,,0.026624157,-0.389012395,0,0,0,,0,392,392,25,1,
,,,,,,,,,,,,,,,,,,5f3598f48853aa595c6733e2,2020-11-26_17h02.24.705,lexical_decision_task_MP_exp2,2020.2.5,Win32,60,m,1,0.489645,,,,,,,,0.489645,1,,,,,,22,WORD,"ID",16,jockey,JOCKEY,m,,,,,,0.026624157,-0.389012395,0,0,0,,0,393,393,81,1,
