counterbalancing_condition,instr_done_keyboard.keys,instr_done_touch.x,instr_done_touch.y,instr_done_touch.leftButton,instr_done_touch.midButton,instr_done_touch.rightButton,instr_done_touch.clicked_name,instruction_pages.thisRepN,instruction_pages.thisTrialN,instruction_pages.thisN,instruction_pages.thisIndex,instruction_pages.ran,pageN,phase,instruct_text,has_image,instruct_image,participant,date,expName,psychopyVersion,OS,frameRate,response.keys,response.corr,touch_resp.x,touch_resp.y,touch_resp.leftButton,touch_resp.midButton,touch_resp.rightButton,touch_resp.time,touch_resp.clicked_name,rt,corr,practice_trials.thisRepN,practice_trials.thisTrialN,practice_trials.thisN,practice_trials.thisIndex,practice_trials.ran,TrialID,StimulusType,Condition,PrimeDuration,Prime,Target,corrAns,response.rt,end_of_practice_trials_pages.thisRepN,end_of_practice_trials_pages.thisTrialN,end_of_practice_trials_pages.thisN,end_of_practice_trials_pages.thisIndex,end_of_practice_trials_pages.ran,break_done_touch.x,break_done_touch.y,break_done_touch.leftButton,break_done_touch.midButton,break_done_touch.rightButton,break_done_keyboard.keys,experiment_trials.thisRepN,experiment_trials.thisTrialN,experiment_trials.thisN,experiment_trials.thisIndex,experiment_trials.ran,break_done_touch.clicked_name,break_done_keyboard.rt
2,,-0.092592593,-0.392592593,1,0,0,instr_done_button,0,0,0,0,1,1,instructions,"INSTRUCTIONS
At the start of each trial, look at the hash marks (######) in the center of the screen. After a moment, a string of letters will appear. Your task is to indicate if the letter string forms a word or not (i.e., if it is a nonword). For example, AUTHOR is a word while AUTHON is a nonword.

Press the space bar or touch the button below to continue.",0,,5f511be28ba7012e8c040f50,2020-11-27_12h06.35.675,lexical_decision_task_MP_exp2,2020.2.5,Win32,60,,,,,,,,,,,,,,,,,,,,,,,,,,,,,,,,,,,,,,,,,,
,,-0.065740741,-0.372222222,1,0,0,instr_done_button,0,1,1,1,1,2,instructions,"If your device has a keyboard, press the 'Z' key for nonwords and the 'M' key for words.





Press the space bar or touch the button below to continue.",1,keyboard-example.gif,5f511be28ba7012e8c040f50,2020-11-27_12h06.35.675,lexical_decision_task_MP_exp2,2020.2.5,Win32,60,,,,,,,,,,,,,,,,,,,,,,,,,,,,,,,,,,,,,,,,,,
,,-0.065740741,-0.372222222,1,0,0,instr_done_button,0,2,2,2,1,3,instructions,"If you are using a touchscreen only device, use the buttons on the screen. Do not use the mouse.





Press the space bar or touch the button below to continue.",1,touchscreen-example.gif,5f511be28ba7012e8c040f50,2020-11-27_12h06.35.675,lexical_decision_task_MP_exp2,2020.2.5,Win32,60,,,,,,,,,,,,,,,,,,,,,,,,,,,,,,,,,,,,,,,,,,
,,-0.057407407,-0.376851852,1,0,0,instr_done_button,0,3,3,3,1,4,instructions,"It is very important that you respond as quickly and accurately as possible, as each letter string will only be on the screen for two seconds. If you do not respond within this time, the message 'Too slow!' will be displayed and the experiment will progress to the next letter string. The first 20 trials will be practice trials and you will receive feedback on your answers. 

Press the space bar or touch the button below to start the practice trials.",0,,5f511be28ba7012e8c040f50,2020-11-27_12h06.35.675,lexical_decision_task_MP_exp2,2020.2.5,Win32,60,,,,,,,,,,,,,,,,,,,,,,,,,,,,,,,,,,,,,,,,,,
,,,,,,,,,,,,,,,,,,5f511be28ba7012e8c040f50,2020-11-27_12h06.35.675,lexical_decision_task_MP_exp2,2020.2.5,Win32,60,,0,,,,,,,,,-1,0,0,0,14,1,1015,NW,UN,16,miaber,THRALE,z,,,,,,,,,,,,,,,,,,,
,,,,,,,,,,,,,,,,,,5f511be28ba7012e8c040f50,2020-11-27_12h06.35.675,lexical_decision_task_MP_exp2,2020.2.5,Win32,60,m,0,,,,,,,,1.79281,0,0,1,1,13,1,1014,NW,UN,33,winfer,ROUPET,z,1.79281,,,,,,,,,,,,,,,,,,
,,,,,,,,,,,,,,,,,,5f511be28ba7012e8c040f50,2020-11-27_12h06.35.675,lexical_decision_task_MP_exp2,2020.2.5,Win32,60,m,0,,,,,,,,1.766885,0,0,2,2,10,1,1011,NW,"ID",16,inlade,INLADE,z,1.766885,,,,,,,,,,,,,,,,,,
,,,,,,,,,,,,,,,,,,5f511be28ba7012e8c040f50,2020-11-27_12h06.35.675,lexical_decision_task_MP_exp2,2020.2.5,Win32,60,m,1,,,,,,,,0.782155,1,0,3,3,1,1,1002,WORD,"ID",33,adjust,ADJUST,m,0.782155,,,,,,,,,,,,,,,,,,
,,,,,,,,,,,,,,,,,,5f511be28ba7012e8c040f50,2020-11-27_12h06.35.675,lexical_decision_task_MP_exp2,2020.2.5,Win32,60,m,1,,,,,,,,1.32679,1,0,4,4,2,1,1003,WORD,"ID",16,almond,ALMOND,m,1.32679,,,,,,,,,,,,,,,,,,
,,,,,,,,,,,,,,,,,,5f511be28ba7012e8c040f50,2020-11-27_12h06.35.675,lexical_decision_task_MP_exp2,2020.2.5,Win32,60,,0,,,,,,,,1.32679,-1,0,5,5,12,1,1013,NW,UN,33,adveil,SPRINY,z,,,,,,,,,,,,,,,,,,,
,,,,,,,,,,,,,,,,,,5f511be28ba7012e8c040f50,2020-11-27_12h06.35.675,lexical_decision_task_MP_exp2,2020.2.5,Win32,60,m,1,,,,,,,,0.80351,1,0,6,6,4,1,1005,WORD,UN,33,abound,SQUEAK,m,0.80351,,,,,,,,,,,,,,,,,,
,,,,,,,,,,,,,,,,,,5f511be28ba7012e8c040f50,2020-11-27_12h06.35.675,lexical_decision_task_MP_exp2,2020.2.5,Win32,60,z,1,,,,,,,,1.845635,1,0,7,7,11,1,1012,NW,"ID",16,rashet,RASHET,z,1.845635,,,,,,,,,,,,,,,,,,
,,,,,,,,,,,,,,,,,,5f511be28ba7012e8c040f50,2020-11-27_12h06.35.675,lexical_decision_task_MP_exp2,2020.2.5,Win32,60,m,1,,,,,,,,0.79262,1,0,8,8,3,1,1004,WORD,"ID",16,matrix,MATRIX,m,0.79262,,,,,,,,,,,,,,,,,,
,,,,,,,,,,,,,,,,,,5f511be28ba7012e8c040f50,2020-11-27_12h06.35.675,lexical_decision_task_MP_exp2,2020.2.5,Win32,60,,0,,,,,,,,0.79262,-1,0,9,9,5,1,1006,WORD,UN,33,frenzy,OBTAIN,m,,,,,,,,,,,,,,,,,,,
,,,,,,,,,,,,,,,,,,5f511be28ba7012e8c040f50,2020-11-27_12h06.35.675,lexical_decision_task_MP_exp2,2020.2.5,Win32,60,z,1,,,,,,,,0.76787,1,0,10,10,15,1,1016,NW,UN,16,mushed,WHAISE,z,0.76787,,,,,,,,,,,,,,,,,,
,,,,,,,,,,,,,,,,,,5f511be28ba7012e8c040f50,2020-11-27_12h06.35.675,lexical_decision_task_MP_exp2,2020.2.5,Win32,60,m,1,,,,,,,,0.65368,1,0,11,11,6,1,1007,WORD,UN,16,tropic,ZOMBIE,m,0.65368,,,,,,,,,,,,,,,,,,
,,,,,,,,,,,,,,,,,,5f511be28ba7012e8c040f50,2020-11-27_12h06.35.675,lexical_decision_task_MP_exp2,2020.2.5,Win32,60,z,1,,,,,,,,0.985755,1,0,12,12,9,1,1010,NW,"ID",33,fariny,FARINY,z,0.985755,,,,,,,,,,,,,,,,,,
,,,,,,,,,,,,,,,,,,5f511be28ba7012e8c040f50,2020-11-27_12h06.35.675,lexical_decision_task_MP_exp2,2020.2.5,Win32,60,m,1,,,,,,,,0.82733,1,0,13,13,0,1,1001,WORD,"ID",33,utopia,UTOPIA,m,0.82733,,,,,,,,,,,,,,,,,,
,,,,,,,,,,,,,,,,,,5f511be28ba7012e8c040f50,2020-11-27_12h06.35.675,lexical_decision_task_MP_exp2,2020.2.5,Win32,60,z,1,,,,,,,,0.879725,1,0,14,14,8,1,1009,NW,"ID",33,aslert,ASLERT,z,0.879725,,,,,,,,,,,,,,,,,,
,,,,,,,,,,,,,,,,,,5f511be28ba7012e8c040f50,2020-11-27_12h06.35.675,lexical_decision_task_MP_exp2,2020.2.5,Win32,60,m,1,,,,,,,,0.58605,1,0,15,15,7,1,1008,WORD,UN,16,hurdle,VOLUME,m,0.58605,,,,,,,,,,,,,,,,,,
,,-0.055555556,-0.361111111,1,0,0,instr_done_button,,,,,,1,end_of_practice,"You have completed the practice trials. During the experimental trials, you will not receive feedback, but it is very important that you respond as quickly and accurately as possible. 
Before you begin, please ensure that you are in a comfortable and quiet location and will not be disturbed for about 15 minutes, as we cannot use your data if you do not complete all the trials. 
There will be opportunities to take breaks at regular intervals during the experiment. When you are ready to start the experimental trials, please press space or touch the button below.",,,5f511be28ba7012e8c040f50,2020-11-27_12h06.35.675,lexical_decision_task_MP_exp2,2020.2.5,Win32,60,,,,,,,,,,,,,,,,,,,,,,,,,0,0,0,0,1,,,,,,,,,,,,,
,,,,,,,,,,,,,,,,,,5f511be28ba7012e8c040f50,2020-11-27_12h06.35.675,lexical_decision_task_MP_exp2,2020.2.5,Win32,60,,0,,,,,,,,0.58605,-1,,,,,,311,NW,"ID",33,sproly,SPROLY,z,,,,,,,-0.025925926,-0.307407407,0,0,0,,0,0,0,250,1,,
,,,,,,,,,,,,,,,,,,5f511be28ba7012e8c040f50,2020-11-27_12h06.35.675,lexical_decision_task_MP_exp2,2020.2.5,Win32,60,m,1,,,,,,,,0.753475,1,,,,,,192,WORD,UN,33,object,PLAGUE,m,0.753475,,,,,,-0.025925926,-0.307407407,0,0,0,,0,1,1,131,1,,
,,,,,,,,,,,,,,,,,,5f511be28ba7012e8c040f50,2020-11-27_12h06.35.675,lexical_decision_task_MP_exp2,2020.2.5,Win32,60,m,1,,,,,,,,1.65896,1,,,,,,214,WORD,UN,33,phobia,INTAKE,m,1.65896,,,,,,-0.025925926,-0.307407407,0,0,0,,0,2,2,153,1,,
,,,,,,,,,,,,,,,,,,5f511be28ba7012e8c040f50,2020-11-27_12h06.35.675,lexical_decision_task_MP_exp2,2020.2.5,Win32,60,m,1,,,,,,,,0.782625,1,,,,,,53,WORD,UN,16,ramble,POLICE,m,0.782625,,,,,,-0.025925926,-0.307407407,0,0,0,,0,3,3,232,1,,
,,,,,,,,,,,,,,,,,,5f511be28ba7012e8c040f50,2020-11-27_12h06.35.675,lexical_decision_task_MP_exp2,2020.2.5,Win32,60,z,1,,,,,,,,1.250205,1,,,,,,358,NW,"ID",33,fleack,FLEACK,z,1.250205,,,,,,-0.025925926,-0.307407407,0,0,0,,0,4,4,297,1,,
,,,,,,,,,,,,,,,,,,5f511be28ba7012e8c040f50,2020-11-27_12h06.35.675,lexical_decision_task_MP_exp2,2020.2.5,Win32,60,m,1,,,,,,,,0.66137,1,,,,,,148,WORD,"ID",16,custom,CUSTOM,m,0.66137,,,,,,-0.025925926,-0.307407407,0,0,0,,0,5,5,87,1,,
,,,,,,,,,,,,,,,,,,5f511be28ba7012e8c040f50,2020-11-27_12h06.35.675,lexical_decision_task_MP_exp2,2020.2.5,Win32,60,m,1,,,,,,,,0.737655,1,,,,,,71,WORD,"ID",33,garden,GARDEN,m,0.737655,,,,,,-0.025925926,-0.307407407,0,0,0,,0,6,6,10,1,,
,,,,,,,,,,,,,,,,,,5f511be28ba7012e8c040f50,2020-11-27_12h06.35.675,lexical_decision_task_MP_exp2,2020.2.5,Win32,60,m,1,,,,,,,,1.642205,1,,,,,,140,WORD,"ID",16,prince,PRINCE,m,1.642205,,,,,,-0.025925926,-0.307407407,0,0,0,,0,7,7,79,1,,
,,,,,,,,,,,,,,,,,,5f511be28ba7012e8c040f50,2020-11-27_12h06.35.675,lexical_decision_task_MP_exp2,2020.2.5,Win32,60,z,1,,,,,,,,1.557105,1,,,,,,303,NW,"ID",33,fiream,FIREAM,z,1.557105,,,,,,-0.025925926,-0.307407407,0,0,0,,0,8,8,242,1,,
,,,,,,,,,,,,,,,,,,5f511be28ba7012e8c040f50,2020-11-27_12h06.35.675,lexical_decision_task_MP_exp2,2020.2.5,Win32,60,z,0,,,,,,,,1.039755,0,,,,,,211,WORD,UN,33,verify,INFECT,m,1.039755,,,,,,-0.025925926,-0.307407407,0,0,0,,0,9,9,150,1,,
,,,,,,,,,,,,,,,,,,5f511be28ba7012e8c040f50,2020-11-27_12h06.35.675,lexical_decision_task_MP_exp2,2020.2.5,Win32,60,z,0,,,,,,,,1.62992,0,,,,,,24,WORD,UN,16,domain,PRAISE,m,1.62992,,,,,,-0.025925926,-0.307407407,0,0,0,,0,10,10,203,1,,
,,,,,,,,,,,,,,,,,,5f511be28ba7012e8c040f50,2020-11-27_12h06.35.675,lexical_decision_task_MP_exp2,2020.2.5,Win32,60,,0,,,,,,,,1.62992,-1,,,,,,38,WORD,UN,16,insect,POWDER,m,,,,,,,-0.025925926,-0.307407407,0,0,0,,0,11,11,217,1,,
,,,,,,,,,,,,,,,,,,5f511be28ba7012e8c040f50,2020-11-27_12h06.35.675,lexical_decision_task_MP_exp2,2020.2.5,Win32,60,z,1,,,,,,,,0.818605,1,,,,,,422,NW,UN,33,streld,ALCOUD,z,0.818605,,,,,,-0.025925926,-0.307407407,0,0,0,,0,12,12,361,1,,
,,,,,,,,,,,,,,,,,,5f511be28ba7012e8c040f50,2020-11-27_12h06.35.675,lexical_decision_task_MP_exp2,2020.2.5,Win32,60,z,1,,,,,,,,1.69883,1,,,,,,258,NW,UN,16,soudal,POLUTH,z,1.69883,,,,,,-0.025925926,-0.307407407,0,0,0,,0,13,13,437,1,,
,,,,,,,,,,,,,,,,,,5f511be28ba7012e8c040f50,2020-11-27_12h06.35.675,lexical_decision_task_MP_exp2,2020.2.5,Win32,60,z,1,,,,,,,,1.754335,1,,,,,,342,NW,"ID",33,randow,RANDOW,z,1.754335,,,,,,-0.025925926,-0.307407407,0,0,0,,0,14,14,281,1,,
,,,,,,,,,,,,,,,,,,5f511be28ba7012e8c040f50,2020-11-27_12h06.35.675,lexical_decision_task_MP_exp2,2020.2.5,Win32,60,m,1,,,,,,,,1.104245,1,,,,,,122,WORD,"ID",16,linger,LINGER,m,1.104245,,,,,,-0.025925926,-0.307407407,0,0,0,,0,15,15,61,1,,
,,,,,,,,,,,,,,,,,,5f511be28ba7012e8c040f50,2020-11-27_12h06.35.675,lexical_decision_task_MP_exp2,2020.2.5,Win32,60,z,1,,,,,,,,1.50583,1,,,,,,341,NW,"ID",33,myrtie,MYRTIE,z,1.50583,,,,,,-0.025925926,-0.307407407,0,0,0,,0,16,16,280,1,,
,,,,,,,,,,,,,,,,,,5f511be28ba7012e8c040f50,2020-11-27_12h06.35.675,lexical_decision_task_MP_exp2,2020.2.5,Win32,60,m,1,,,,,,,,0.66887,1,,,,,,49,WORD,UN,16,snatch,SURVEY,m,0.66887,,,,,,-0.025925926,-0.307407407,0,0,0,,0,17,17,228,1,,
,,,,,,,,,,,,,,,,,,5f511be28ba7012e8c040f50,2020-11-27_12h06.35.675,lexical_decision_task_MP_exp2,2020.2.5,Win32,60,z,1,,,,,,,,1.47344,1,,,,,,410,NW,"ID",16,tunory,TUNORY,z,1.47344,,,,,,-0.025925926,-0.307407407,0,0,0,,0,18,18,349,1,,
,,,,,,,,,,,,,,,,,,5f511be28ba7012e8c040f50,2020-11-27_12h06.35.675,lexical_decision_task_MP_exp2,2020.2.5,Win32,60,m,1,,,,,,,,1.11564,1,,,,,,237,WORD,UN,33,glance,POSTER,m,1.11564,,,,,,-0.025925926,-0.307407407,0,0,0,,0,19,19,176,1,,
,,,,,,,,,,,,,,,,,,5f511be28ba7012e8c040f50,2020-11-27_12h06.35.675,lexical_decision_task_MP_exp2,2020.2.5,Win32,60,z,1,,,,,,,,1.385695,1,,,,,,337,NW,"ID",33,rejols,REJOLS,z,1.385695,,,,,,-0.025925926,-0.307407407,0,0,0,,0,20,20,276,1,,
,,,,,,,,,,,,,,,,,,5f511be28ba7012e8c040f50,2020-11-27_12h06.35.675,lexical_decision_task_MP_exp2,2020.2.5,Win32,60,z,1,,,,,,,,1.169815,1,,,,,,436,NW,UN,33,snapel,FRUTAN,z,1.169815,,,,,,-0.025925926,-0.307407407,0,0,0,,0,21,21,375,1,,
,,,,,,,,,,,,,,,,,,5f511be28ba7012e8c040f50,2020-11-27_12h06.35.675,lexical_decision_task_MP_exp2,2020.2.5,Win32,60,z,1,,,,,,,,1.85065,1,,,,,,430,NW,UN,33,chrums,CAROEY,z,1.85065,,,,,,-0.025925926,-0.307407407,0,0,0,,0,22,22,369,1,,
,,,,,,,,,,,,,,,,,,5f511be28ba7012e8c040f50,2020-11-27_12h06.35.675,lexical_decision_task_MP_exp2,2020.2.5,Win32,60,m,1,,,,,,,,0.804485,1,,,,,,109,WORD,"ID",33,wonder,WONDER,m,0.804485,,,,,,-0.025925926,-0.307407407,0,0,0,,0,23,23,48,1,,
,,,,,,,,,,,,,,,,,,5f511be28ba7012e8c040f50,2020-11-27_12h06.35.675,lexical_decision_task_MP_exp2,2020.2.5,Win32,60,z,1,,,,,,,,1.957275,1,,,,,,459,NW,UN,33,mingar,BAFENT,z,1.957275,,,,,,-0.025925926,-0.307407407,0,0,0,,0,24,24,398,1,,
,,,,,,,,,,,,,,,,,,5f511be28ba7012e8c040f50,2020-11-27_12h06.35.675,lexical_decision_task_MP_exp2,2020.2.5,Win32,60,m,1,,,,,,,,1.60469,1,,,,,,108,WORD,"ID",33,reckon,RECKON,m,1.60469,,,,,,-0.025925926,-0.307407407,0,0,0,,0,25,25,47,1,,
,,,,,,,,,,,,,,,,,,5f511be28ba7012e8c040f50,2020-11-27_12h06.35.675,lexical_decision_task_MP_exp2,2020.2.5,Win32,60,z,1,,,,,,,,1.53929,1,,,,,,369,NW,"ID",16,wronch,WRONCH,z,1.53929,,,,,,-0.025925926,-0.307407407,0,0,0,,0,26,26,308,1,,
,,,,,,,,,,,,,,,,,,5f511be28ba7012e8c040f50,2020-11-27_12h06.35.675,lexical_decision_task_MP_exp2,2020.2.5,Win32,60,m,1,,,,,,,,0.789675,1,,,,,,186,WORD,UN,33,course,PORTAL,m,0.789675,,,,,,-0.025925926,-0.307407407,0,0,0,,0,27,27,125,1,,
,,,,,,,,,,,,,,,,,,5f511be28ba7012e8c040f50,2020-11-27_12h06.35.675,lexical_decision_task_MP_exp2,2020.2.5,Win32,60,m,1,,,,,,,,0.72139,1,,,,,,168,WORD,"ID",16,answer,ANSWER,m,0.72139,,,,,,-0.025925926,-0.307407407,0,0,0,,0,28,28,107,1,,
,,,,,,,,,,,,,,,,,,5f511be28ba7012e8c040f50,2020-11-27_12h06.35.675,lexical_decision_task_MP_exp2,2020.2.5,Win32,60,z,1,,,,,,,,1.382115,1,,,,,,376,NW,"ID",16,iguare,IGUARE,z,1.382115,,,,,,-0.025925926,-0.307407407,0,0,0,,0,29,29,315,1,,
,,,,,,,,,,,,,,,,,,5f511be28ba7012e8c040f50,2020-11-27_12h06.35.675,lexical_decision_task_MP_exp2,2020.2.5,Win32,60,,0,,,,,,,,1.382115,-1,,,,,,310,NW,"ID",33,daniet,DANIET,z,,,,,,,-0.025925926,-0.307407407,0,0,0,,0,30,30,249,1,,
,,,,,,,,,,,,,,,,,,5f511be28ba7012e8c040f50,2020-11-27_12h06.35.675,lexical_decision_task_MP_exp2,2020.2.5,Win32,60,m,0,,,,,,,,0.973105,0,,,,,,401,NW,"ID",16,mustil,MUSTIL,z,0.973105,,,,,,-0.025925926,-0.307407407,0,0,0,,0,31,31,340,1,,
,,,,,,,,,,,,,,,,,,5f511be28ba7012e8c040f50,2020-11-27_12h06.35.675,lexical_decision_task_MP_exp2,2020.2.5,Win32,60,,0,,,,,,,,0.973105,-1,,,,,,384,NW,"ID",16,guesco,GUESCO,z,,,,,,,-0.025925926,-0.307407407,0,0,0,,0,32,32,323,1,,
,,,,,,,,,,,,,,,,,,5f511be28ba7012e8c040f50,2020-11-27_12h06.35.675,lexical_decision_task_MP_exp2,2020.2.5,Win32,60,m,1,,,,,,,,1.39617,1,,,,,,99,WORD,"ID",33,fluent,FLUENT,m,1.39617,,,,,,-0.025925926,-0.307407407,0,0,0,,0,33,33,38,1,,
,,,,,,,,,,,,,,,,,,5f511be28ba7012e8c040f50,2020-11-27_12h06.35.675,lexical_decision_task_MP_exp2,2020.2.5,Win32,60,z,1,,,,,,,,1.527355,1,,,,,,367,NW,"ID",16,slique,SLIQUE,z,1.527355,,,,,,-0.025925926,-0.307407407,0,0,0,,0,34,34,306,1,,
,,,,,,,,,,,,,,,,,,5f511be28ba7012e8c040f50,2020-11-27_12h06.35.675,lexical_decision_task_MP_exp2,2020.2.5,Win32,60,m,1,,,,,,,,0.765575,1,,,,,,126,WORD,"ID",16,enough,ENOUGH,m,0.765575,,,,,,-0.025925926,-0.307407407,0,0,0,,0,35,35,65,1,,
,,,,,,,,,,,,,,,,,,5f511be28ba7012e8c040f50,2020-11-27_12h06.35.675,lexical_decision_task_MP_exp2,2020.2.5,Win32,60,m,1,,,,,,,,0.56549,1,,,,,,70,WORD,"ID",33,square,SQUARE,m,0.56549,,,,,,-0.025925926,-0.307407407,0,0,0,,0,36,36,9,1,,
,,,,,,,,,,,,,,,,,,5f511be28ba7012e8c040f50,2020-11-27_12h06.35.675,lexical_decision_task_MP_exp2,2020.2.5,Win32,60,z,1,,,,,,,,0.92872,1,,,,,,476,NW,UN,33,photie,JOSTED,z,0.92872,,,,,,-0.025925926,-0.307407407,0,0,0,,0,37,37,415,1,,
,,,,,,,,,,,,,,,,,,5f511be28ba7012e8c040f50,2020-11-27_12h06.35.675,lexical_decision_task_MP_exp2,2020.2.5,Win32,60,z,1,,,,,,,,0.95205,1,,,,,,372,NW,"ID",16,ramily,RAMILY,z,0.95205,,,,,,-0.025925926,-0.307407407,0,0,0,,0,38,38,311,1,,
,,,,,,,,,,,,,,,,,,5f511be28ba7012e8c040f50,2020-11-27_12h06.35.675,lexical_decision_task_MP_exp2,2020.2.5,Win32,60,z,0,,,,,,,,0.996165,0,,,,,,18,WORD,UN,16,patron,HUMBLE,m,0.996165,,,,,,-0.025925926,-0.307407407,0,0,0,,0,39,39,197,1,,
,,,,,,,,,,,,,,,,,,5f511be28ba7012e8c040f50,2020-11-27_12h06.35.675,lexical_decision_task_MP_exp2,2020.2.5,Win32,60,z,1,,,,,,,,0.91626,1,,,,,,426,NW,UN,33,schind,URIVEL,z,0.91626,,,,,,-0.025925926,-0.307407407,0,0,0,,0,40,40,365,1,,
,,,,,,,,,,,,,,,,,,5f511be28ba7012e8c040f50,2020-11-27_12h06.35.675,lexical_decision_task_MP_exp2,2020.2.5,Win32,60,m,1,,,,,,,,0.827365,1,,,,,,20,WORD,UN,16,simple,BREAST,m,0.827365,,,,,,-0.025925926,-0.307407407,0,0,0,,0,41,41,199,1,,
,,,,,,,,,,,,,,,,,,5f511be28ba7012e8c040f50,2020-11-27_12h06.35.675,lexical_decision_task_MP_exp2,2020.2.5,Win32,60,z,0,,,,,,,,1.315855,0,,,,,,69,WORD,"ID",33,plenty,PLENTY,m,1.315855,,,,,,-0.025925926,-0.307407407,0,0,0,,0,42,42,8,1,,
,,,,,,,,,,,,,,,,,,5f511be28ba7012e8c040f50,2020-11-27_12h06.35.675,lexical_decision_task_MP_exp2,2020.2.5,Win32,60,m,1,,,,,,,,0.6597,1,,,,,,167,WORD,"ID",16,design,DESIGN,m,0.6597,,,,,,-0.025925926,-0.307407407,0,0,0,,0,43,43,106,1,,
,,,,,,,,,,,,,,,,,,5f511be28ba7012e8c040f50,2020-11-27_12h06.35.675,lexical_decision_task_MP_exp2,2020.2.5,Win32,60,z,1,,,,,,,,1.56872,1,,,,,,419,NW,"ID",16,slount,SLOUNT,z,1.56872,,,,,,-0.025925926,-0.307407407,0,0,0,,0,44,44,358,1,,
,,,,,,,,,,,,,,,,,,5f511be28ba7012e8c040f50,2020-11-27_12h06.35.675,lexical_decision_task_MP_exp2,2020.2.5,Win32,60,m,1,,,,,,,,0.57848,1,,,,,,74,WORD,"ID",33,plaque,PLAQUE,m,0.57848,,,,,,-0.025925926,-0.307407407,0,0,0,,0,45,45,13,1,,
,,,,,,,,,,,,,,,,,,5f511be28ba7012e8c040f50,2020-11-27_12h06.35.675,lexical_decision_task_MP_exp2,2020.2.5,Win32,60,z,0,,,,,,,,1.13852,0,,,,,,125,WORD,"ID",16,nickel,NICKEL,m,1.13852,,,,,,-0.025925926,-0.307407407,0,0,0,,0,46,46,64,1,,
,,,,,,,,,,,,,,,,,,5f511be28ba7012e8c040f50,2020-11-27_12h06.35.675,lexical_decision_task_MP_exp2,2020.2.5,Win32,60,,0,,,,,,,,1.13852,-1,,,,,,147,WORD,"ID",16,garlic,GARLIC,m,,,,,,,-0.025925926,-0.307407407,0,0,0,,0,47,47,86,1,,
,,,,,,,,,,,,,,,,,,5f511be28ba7012e8c040f50,2020-11-27_12h06.35.675,lexical_decision_task_MP_exp2,2020.2.5,Win32,60,m,1,,,,,,,,1.09175,1,,,,,,239,WORD,UN,33,forest,LUMBER,m,1.09175,,,,,,-0.025925926,-0.307407407,0,0,0,,0,48,48,178,1,,
,,,,,,,,,,,,,,,,,,5f511be28ba7012e8c040f50,2020-11-27_12h06.35.675,lexical_decision_task_MP_exp2,2020.2.5,Win32,60,m,0,,,,,,,,1.242965,0,,,,,,261,NW,UN,16,quilew,STUNCH,z,1.242965,,,,,,-0.025925926,-0.307407407,0,0,0,,0,49,49,440,1,,
,,,,,,,,,,,,,,,,,,5f511be28ba7012e8c040f50,2020-11-27_12h06.35.675,lexical_decision_task_MP_exp2,2020.2.5,Win32,60,m,1,,,,,,,,0.570775,1,,,,,,150,WORD,"ID",16,random,RANDOM,m,0.570775,,,,,,-0.025925926,-0.307407407,0,0,0,,0,50,50,89,1,,
,,,,,,,,,,,,,,,,,,5f511be28ba7012e8c040f50,2020-11-27_12h06.35.675,lexical_decision_task_MP_exp2,2020.2.5,Win32,60,z,1,,,,,,,,1.33214,1,,,,,,425,NW,UN,33,urivel,FRUDGE,z,1.33214,,,,,,-0.025925926,-0.307407407,0,0,0,,0,51,51,364,1,,
,,,,,,,,,,,,,,,,,,5f511be28ba7012e8c040f50,2020-11-27_12h06.35.675,lexical_decision_task_MP_exp2,2020.2.5,Win32,60,m,1,,,,,,,,0.734505,1,,,,,,117,WORD,"ID",33,branch,BRANCH,m,0.734505,,,,,,-0.025925926,-0.307407407,0,0,0,,0,52,52,56,1,,
,,,,,,,,,,,,,,,,,,5f511be28ba7012e8c040f50,2020-11-27_12h06.35.675,lexical_decision_task_MP_exp2,2020.2.5,Win32,60,m,1,,,,,,,,1.221595,1,,,,,,189,WORD,UN,33,backup,CENSOR,m,1.221595,,,,,,-0.025925926,-0.307407407,0,0,0,,0,53,53,128,1,,
,,,,,,,,,,,,,,,,,,5f511be28ba7012e8c040f50,2020-11-27_12h06.35.675,lexical_decision_task_MP_exp2,2020.2.5,Win32,60,z,1,,,,,,,,1.29389,1,,,,,,368,NW,"ID",16,hornal,HORNAL,z,1.29389,,,,,,-0.025925926,-0.307407407,0,0,0,,0,54,54,307,1,,
,,,,,,,,,,,,,,,,,,5f511be28ba7012e8c040f50,2020-11-27_12h06.35.675,lexical_decision_task_MP_exp2,2020.2.5,Win32,60,m,0,,,,,,,,1.457085,0,,,,,,254,NW,UN,16,apight,VAROSH,z,1.457085,,,,,,-0.025925926,-0.307407407,0,0,0,,0,55,55,433,1,,
,,,,,,,,,,,,,,,,,,5f511be28ba7012e8c040f50,2020-11-27_12h06.35.675,lexical_decision_task_MP_exp2,2020.2.5,Win32,60,m,1,,,,,,,,0.701025,1,,,,,,187,WORD,UN,33,social,COURSE,m,0.701025,,,,,,-0.025925926,-0.307407407,0,0,0,,0,56,56,126,1,,
,,,,,,,,,,,,,,,,,,5f511be28ba7012e8c040f50,2020-11-27_12h06.35.675,lexical_decision_task_MP_exp2,2020.2.5,Win32,60,m,1,,,,,,,,0.691495,1,,,,,,195,WORD,UN,33,credit,RESIGN,m,0.691495,,,,,,-0.025925926,-0.307407407,0,0,0,,0,57,57,134,1,,
,,,,,,,,,,,,,,,,,,5f511be28ba7012e8c040f50,2020-11-27_12h06.35.675,lexical_decision_task_MP_exp2,2020.2.5,Win32,60,z,1,,,,,,,,1.765825,1,,,,,,306,NW,"ID",33,sounge,SOUNGE,z,1.765825,,,,,,-0.025925926,-0.307407407,0,0,0,,0,58,58,245,1,,
,,,,,,,,,,,,,,,,,,5f511be28ba7012e8c040f50,2020-11-27_12h06.35.675,lexical_decision_task_MP_exp2,2020.2.5,Win32,60,z,1,,,,,,,,1.675815,1,,,,,,296,NW,UN,16,fertic,BEINCH,z,1.675815,,,,,,-0.025925926,-0.307407407,0,0,0,,0,59,59,475,1,,
,,,,,,,,,,,,,,,,,,5f511be28ba7012e8c040f50,2020-11-27_12h06.35.675,lexical_decision_task_MP_exp2,2020.2.5,Win32,60,z,1,,,,,,,,0.87748,1,,,,,,312,NW,"ID",33,nerawl,NERAWL,z,0.87748,,,,,,-0.025925926,-0.307407407,0,0,0,,0,60,60,251,1,,
,,,,,,,,,,,,,,,,,,5f511be28ba7012e8c040f50,2020-11-27_12h06.35.675,lexical_decision_task_MP_exp2,2020.2.5,Win32,60,z,0,,,,,,,,1.50247,0,,,,,,144,WORD,"ID",16,sponge,SPONGE,m,1.50247,,,,,,-0.025925926,-0.307407407,0,0,0,,0,61,61,83,1,,
,,,,,,,,,,,,,,,,,,5f511be28ba7012e8c040f50,2020-11-27_12h06.35.675,lexical_decision_task_MP_exp2,2020.2.5,Win32,60,z,1,,,,,,,,0.718245,1,,,,,,283,NW,UN,16,shaple,VERALF,z,0.718245,,,,,,-0.025925926,-0.307407407,0,0,0,,0,62,62,462,1,,
,,,,,,,,,,,,,,,,,,5f511be28ba7012e8c040f50,2020-11-27_12h06.35.675,lexical_decision_task_MP_exp2,2020.2.5,Win32,60,z,1,,,,,,,,1.80475,1,,,,,,472,NW,UN,33,gorbie,CIGNEY,z,1.80475,,,,,,-0.025925926,-0.307407407,0,0,0,,0,63,63,411,1,,
,,,,,,,,,,,,,,,,,,5f511be28ba7012e8c040f50,2020-11-27_12h06.35.675,lexical_decision_task_MP_exp2,2020.2.5,Win32,60,m,0,,,,,,,,1.540825,0,,,,,,398,NW,"ID",16,blunde,BLUNDE,z,1.540825,,,,,,-0.025925926,-0.307407407,0,0,0,,0,64,64,337,1,,
,,,,,,,,,,,,,,,,,,5f511be28ba7012e8c040f50,2020-11-27_12h06.35.675,lexical_decision_task_MP_exp2,2020.2.5,Win32,60,z,1,,,,,,,,1.47086,1,,,,,,259,NW,UN,16,unject,SOUDAL,z,1.47086,,,,,,-0.025925926,-0.307407407,0,0,0,,0,65,65,438,1,,
,,,,,,,,,,,,,,,,,,5f511be28ba7012e8c040f50,2020-11-27_12h06.35.675,lexical_decision_task_MP_exp2,2020.2.5,Win32,60,m,1,,,,,,,,0.52929,1,,,,,,67,WORD,"ID",33,policy,POLICY,m,0.52929,,,,,,-0.025925926,-0.307407407,0,0,0,,0,66,66,6,1,,
,,,,,,,,,,,,,,,,,,5f511be28ba7012e8c040f50,2020-11-27_12h06.35.675,lexical_decision_task_MP_exp2,2020.2.5,Win32,60,m,1,,,,,,,,0.638555,1,,,,,,118,WORD,"ID",33,flight,FLIGHT,m,0.638555,,,,,,-0.025925926,-0.307407407,0,0,0,,0,67,67,57,1,,
,,,,,,,,,,,,,,,,,,5f511be28ba7012e8c040f50,2020-11-27_12h06.35.675,lexical_decision_task_MP_exp2,2020.2.5,Win32,60,,0,,,,,,,,0.638555,-1,,,,,,408,NW,"ID",16,hurnia,HURNIA,z,,,,,,,-0.025925926,-0.307407407,0,0,0,,0,68,68,347,1,,
,,,,,,,,,,,,,,,,,,5f511be28ba7012e8c040f50,2020-11-27_12h06.35.675,lexical_decision_task_MP_exp2,2020.2.5,Win32,60,m,1,,,,,,,,1.32631,1,,,,,,120,WORD,"ID",33,strain,STRAIN,m,1.32631,,,,,,-0.025925926,-0.307407407,0,0,0,,0,69,69,59,1,,
,,,,,,,,,,,,,,,,,,5f511be28ba7012e8c040f50,2020-11-27_12h06.35.675,lexical_decision_task_MP_exp2,2020.2.5,Win32,60,m,1,,,,,,,,0.666555,1,,,,,,157,WORD,"ID",16,dragon,DRAGON,m,0.666555,,,,,,-0.025925926,-0.307407407,0,0,0,,0,70,70,96,1,,
,,,,,,,,,,,,,,,,,,5f511be28ba7012e8c040f50,2020-11-27_12h06.35.675,lexical_decision_task_MP_exp2,2020.2.5,Win32,60,m,1,,,,,,,,1.277595,1,,,,,,205,WORD,UN,33,tailor,LOUNGE,m,1.277595,,,,,,-0.025925926,-0.307407407,0,0,0,,0,71,71,144,1,,
,,,,,,,,,,,,,,,,,,5f511be28ba7012e8c040f50,2020-11-27_12h06.35.675,lexical_decision_task_MP_exp2,2020.2.5,Win32,60,z,0,,,,,,,,0.91192,0,,,,,,179,WORD,"ID",16,basket,BASKET,m,0.91192,,,,,,-0.025925926,-0.307407407,0,0,0,,0,72,72,118,1,,
,,,,,,,,,,,,,,,,,,5f511be28ba7012e8c040f50,2020-11-27_12h06.35.675,lexical_decision_task_MP_exp2,2020.2.5,Win32,60,z,1,,,,,,,,0.85021,1,,,,,,316,NW,"ID",33,scregm,SCREGM,z,0.85021,,,,,,-0.025925926,-0.307407407,0,0,0,,0,73,73,255,1,,
,,,,,,,,,,,,,,,,,,5f511be28ba7012e8c040f50,2020-11-27_12h06.35.675,lexical_decision_task_MP_exp2,2020.2.5,Win32,60,m,1,,,,,,,,0.58277,1,,,,,,196,WORD,UN,33,stream,CREDIT,m,0.58277,,,,,,-0.025925926,-0.307407407,0,0,0,,0,74,74,135,1,,
,,,,,,,,,,,,,,,,,,5f511be28ba7012e8c040f50,2020-11-27_12h06.35.675,lexical_decision_task_MP_exp2,2020.2.5,Win32,60,m,1,,,,,,,,0.771845,1,,,,,,146,WORD,"ID",16,couple,COUPLE,m,0.771845,,,,,,-0.025925926,-0.307407407,0,0,0,,0,75,75,85,1,,
,,,,,,,,,,,,,,,,,,5f511be28ba7012e8c040f50,2020-11-27_12h06.35.675,lexical_decision_task_MP_exp2,2020.2.5,Win32,60,m,1,,,,,,,,0.59184,1,,,,,,169,WORD,"ID",16,genius,GENIUS,m,0.59184,,,,,,-0.025925926,-0.307407407,0,0,0,,0,76,76,108,1,,
,,,,,,,,,,,,,,,,,,5f511be28ba7012e8c040f50,2020-11-27_12h06.35.675,lexical_decision_task_MP_exp2,2020.2.5,Win32,60,m,0,,,,,,,,0.639755,0,,,,,,432,NW,UN,33,drance,LUNKER,z,0.639755,,,,,,-0.025925926,-0.307407407,0,0,0,,0,77,77,371,1,,
,,,,,,,,,,,,,,,,,,5f511be28ba7012e8c040f50,2020-11-27_12h06.35.675,lexical_decision_task_MP_exp2,2020.2.5,Win32,60,z,1,,,,,,,,0.732965,1,,,,,,309,NW,"ID",33,amiloy,AMILOY,z,0.732965,,,,,,-0.025925926,-0.307407407,0,0,0,,0,78,78,248,1,,
,,,,,,,,,,,,,,,,,,5f511be28ba7012e8c040f50,2020-11-27_12h06.35.675,lexical_decision_task_MP_exp2,2020.2.5,Win32,60,m,0,,,,,,,,0.783065,0,,,,,,350,NW,"ID",33,nagurs,NAGURS,z,0.783065,,,,,,-0.025925926,-0.307407407,0,0,0,,0,79,79,289,1,,
,,,,,,,,,,,,,,,,,,5f511be28ba7012e8c040f50,2020-11-27_12h06.35.675,lexical_decision_task_MP_exp2,2020.2.5,Win32,60,z,0,,,,,,,,1.183065,0,,,,,,121,WORD,"ID",16,thrive,THRIVE,m,1.183065,,,,,,-0.025925926,-0.307407407,0,0,0,,0,80,80,60,1,,
,,,,,,,,,,,,,,,,,,5f511be28ba7012e8c040f50,2020-11-27_12h06.35.675,lexical_decision_task_MP_exp2,2020.2.5,Win32,60,,0,,,,,,,,1.183065,-1,,,,,,56,WORD,UN,16,change,AMBUSH,m,,,,,,,-0.025925926,-0.307407407,0,0,0,,0,81,81,235,1,,
,,,,,,,,,,,,,,,,,,5f511be28ba7012e8c040f50,2020-11-27_12h06.35.675,lexical_decision_task_MP_exp2,2020.2.5,Win32,60,z,1,,,,,,,,0.71944,1,,,,,,295,NW,UN,16,beinch,GLEATH,z,0.71944,,,,,,-0.025925926,-0.307407407,0,0,0,,0,82,82,474,1,,
,,,,,,,,,,,,,,,,,,5f511be28ba7012e8c040f50,2020-11-27_12h06.35.675,lexical_decision_task_MP_exp2,2020.2.5,Win32,60,z,1,,,,,,,,0.86546,1,,,,,,418,NW,"ID",16,suidle,SUIDLE,z,0.86546,,,,,,-0.025925926,-0.307407407,0,0,0,,0,83,83,357,1,,
,,,,,,,,,,,,,,,,,,5f511be28ba7012e8c040f50,2020-11-27_12h06.35.675,lexical_decision_task_MP_exp2,2020.2.5,Win32,60,m,1,,,,,,,,1.338205,1,,,,,,83,WORD,"ID",33,result,RESULT,m,1.338205,,,,,,-0.025925926,-0.307407407,0,0,0,,0,84,84,22,1,,
,,,,,,,,,,,,,,,,,,5f511be28ba7012e8c040f50,2020-11-27_12h06.35.675,lexical_decision_task_MP_exp2,2020.2.5,Win32,60,m,1,,,,,,,,1.238595,1,,,,,,206,WORD,UN,33,wreath,TAILOR,m,1.238595,,,,,,-0.025925926,-0.307407407,0,0,0,,0,85,85,145,1,,
,,,,,,,,,,,,,,,,,,5f511be28ba7012e8c040f50,2020-11-27_12h06.35.675,lexical_decision_task_MP_exp2,2020.2.5,Win32,60,m,0,,,,,,,,1.342195,0,,,,,,379,NW,"ID",16,auting,AUTING,z,1.342195,,,,,,-0.025925926,-0.307407407,0,0,0,,0,86,86,318,1,,
,,,,,,,,,,,,,,,,,,5f511be28ba7012e8c040f50,2020-11-27_12h06.35.675,lexical_decision_task_MP_exp2,2020.2.5,Win32,60,z,1,,,,,,,,0.822385,1,,,,,,447,NW,UN,33,sadent,GIRCUE,z,0.822385,,,,,,-0.025925926,-0.307407407,0,0,0,,0,87,87,386,1,,
,,,,,,,,,,,,,,,,,,5f511be28ba7012e8c040f50,2020-11-27_12h06.35.675,lexical_decision_task_MP_exp2,2020.2.5,Win32,60,z,0,,,,,,,,1.00222,0,,,,,,10,WORD,UN,16,cruise,ETHNIC,m,1.00222,,,,,,-0.025925926,-0.307407407,0,0,0,,0,88,88,189,1,,
,,,,,,,,,,,,,,,,,,5f511be28ba7012e8c040f50,2020-11-27_12h06.35.675,lexical_decision_task_MP_exp2,2020.2.5,Win32,60,z,1,,,,,,,,1.42718,1,,,,,,299,NW,UN,16,yarion,STURCH,z,1.42718,,,,,,-0.025925926,-0.307407407,0,0,0,,0,89,89,478,1,,
,,,,,,,,,,,,,,,,,,5f511be28ba7012e8c040f50,2020-11-27_12h06.35.675,lexical_decision_task_MP_exp2,2020.2.5,Win32,60,m,1,,,,,,,,1.46551,1,,,,,,136,WORD,"ID",16,bleach,BLEACH,m,1.46551,,,,,,-0.025925926,-0.307407407,0,0,0,,0,90,90,75,1,,
,,,,,,,,,,,,,,,,,,5f511be28ba7012e8c040f50,2020-11-27_12h06.35.675,lexical_decision_task_MP_exp2,2020.2.5,Win32,60,z,0,,,,,,,,1.471855,0,,,,,,203,WORD,UN,33,burden,PHRASE,m,1.471855,,,,,,-0.025925926,-0.307407407,0,0,0,,0,91,91,142,1,,
,,,,,,,,,,,,,,,,,,5f511be28ba7012e8c040f50,2020-11-27_12h06.35.675,lexical_decision_task_MP_exp2,2020.2.5,Win32,60,m,1,,,,,,,,0.74461,1,,,,,,88,WORD,"ID",33,hunger,HUNGER,m,0.74461,,,,,,-0.025925926,-0.307407407,0,0,0,,0,92,92,27,1,,
,,,,,,,,,,,,,,,,,,5f511be28ba7012e8c040f50,2020-11-27_12h06.35.675,lexical_decision_task_MP_exp2,2020.2.5,Win32,60,,0,,,,,,,,0.74461,-1,,,,,,455,NW,UN,33,broget,TONDLE,z,,,,,,,-0.025925926,-0.307407407,0,0,0,,0,93,93,394,1,,
,,,,,,,,,,,,,,,,,,5f511be28ba7012e8c040f50,2020-11-27_12h06.35.675,lexical_decision_task_MP_exp2,2020.2.5,Win32,60,m,0,,,,,,,,1.230625,0,,,,,,395,NW,"ID",16,colury,COLURY,z,1.230625,,,,,,-0.025925926,-0.307407407,0,0,0,,0,94,94,334,1,,
,,,,,,,,,,,,,,,,,,5f511be28ba7012e8c040f50,2020-11-27_12h06.35.675,lexical_decision_task_MP_exp2,2020.2.5,Win32,60,z,1,,,,,,,,1.115475,1,,,,,,479,NW,UN,33,crible,LOBUSH,z,1.115475,,,,,,-0.025925926,-0.307407407,0,0,0,,0,95,95,418,1,,
,,,,,,,,,,,,,,,,,,5f511be28ba7012e8c040f50,2020-11-27_12h06.35.675,lexical_decision_task_MP_exp2,2020.2.5,Win32,60,m,0,,,,,,,,1.45717,0,,,,,,380,NW,"ID",16,cavory,CAVORY,z,1.45717,,,,,,-0.025925926,-0.307407407,0,0,0,,0,96,96,319,1,,
,,,,,,,,,,,,,,,,,,5f511be28ba7012e8c040f50,2020-11-27_12h06.35.675,lexical_decision_task_MP_exp2,2020.2.5,Win32,60,m,1,,,,,,,,0.77024,1,,,,,,130,WORD,"ID",16,stupid,STUPID,m,0.77024,,,,,,-0.025925926,-0.307407407,0,0,0,,0,97,97,69,1,,
,,,,,,,,,,,,,,,,,,5f511be28ba7012e8c040f50,2020-11-27_12h06.35.675,lexical_decision_task_MP_exp2,2020.2.5,Win32,60,z,1,,,,,,,,1.38859,1,,,,,,282,NW,UN,16,veralf,PORLEX,z,1.38859,,,,,,-0.025925926,-0.307407407,0,0,0,,0,98,98,461,1,,
,,,,,,,,,,,,,,,,,,5f511be28ba7012e8c040f50,2020-11-27_12h06.35.675,lexical_decision_task_MP_exp2,2020.2.5,Win32,60,m,1,,,,,,,,1.358405,1,,,,,,25,WORD,UN,16,sprint,DOMAIN,m,1.358405,,,,,,-0.025925926,-0.307407407,0,0,0,,0,99,99,204,1,,
,,,,,,,,,,,,,,,,,,5f511be28ba7012e8c040f50,2020-11-27_12h06.35.675,lexical_decision_task_MP_exp2,2020.2.5,Win32,60,m,0,,,,,,,,1.49098,0,,,,,,277,NW,UN,16,unighs,PETAIN,z,1.49098,,,,,,-0.025925926,-0.307407407,0,0,0,,0,100,100,456,1,,
,,,,,,,,,,,,,,,,,,5f511be28ba7012e8c040f50,2020-11-27_12h06.35.675,lexical_decision_task_MP_exp2,2020.2.5,Win32,60,m,1,,,,,,,,1.240115,1,,,,,,35,WORD,UN,16,vanish,SOCKET,m,1.240115,,,,,,-0.025925926,-0.307407407,0,0,0,,0,101,101,214,1,,
,,,,,,,,,,,,,,,,,,5f511be28ba7012e8c040f50,2020-11-27_12h06.35.675,lexical_decision_task_MP_exp2,2020.2.5,Win32,60,z,0,,,,,,,,0.88517,0,,,,,,227,WORD,UN,33,master,SELDOM,m,0.88517,,,,,,-0.025925926,-0.307407407,0,0,0,,0,102,102,166,1,,
,,,,,,,,,,,,,,,,,,5f511be28ba7012e8c040f50,2020-11-27_12h06.35.675,lexical_decision_task_MP_exp2,2020.2.5,Win32,60,m,1,,,,,,,,0.73594,1,,,,,,3,WORD,UN,16,trench,KNIGHT,m,0.73594,,,,,,-0.025925926,-0.307407407,0,0,0,,0,103,103,182,1,,
,,,,,,,,,,,,,,,,,,5f511be28ba7012e8c040f50,2020-11-27_12h06.35.675,lexical_decision_task_MP_exp2,2020.2.5,Win32,60,m,0,,,,,,,,1.88917,0,,,,,,278,NW,UN,16,celond,UNIGHS,z,1.88917,,,,,,-0.025925926,-0.307407407,0,0,0,,0,104,104,457,1,,
,,,,,,,,,,,,,,,,,,5f511be28ba7012e8c040f50,2020-11-27_12h06.35.675,lexical_decision_task_MP_exp2,2020.2.5,Win32,60,m,1,,,,,,,,0.88579,1,,,,,,138,WORD,"ID",16,melody,MELODY,m,0.88579,,,,,,-0.025925926,-0.307407407,0,0,0,,0,105,105,77,1,,
,,,,,,,,,,,,,,,,,,5f511be28ba7012e8c040f50,2020-11-27_12h06.35.675,lexical_decision_task_MP_exp2,2020.2.5,Win32,60,z,1,,,,,,,,1.217795,1,,,,,,334,NW,"ID",33,watmeg,WATMEG,z,1.217795,,,,,,-0.025925926,-0.307407407,0,0,0,,0,106,106,273,1,,
,,,,,,,,,,,,,,,,,,5f511be28ba7012e8c040f50,2020-11-27_12h06.35.675,lexical_decision_task_MP_exp2,2020.2.5,Win32,60,,0,,,,,,,,1.217795,-1,,,,,,7,WORD,UN,16,abrupt,ANCHOR,m,,,,,,,-0.025925926,-0.307407407,0,0,0,,0,107,107,186,1,,
,,,,,,,,,,,,,,,,,,5f511be28ba7012e8c040f50,2020-11-27_12h06.35.675,lexical_decision_task_MP_exp2,2020.2.5,Win32,60,m,1,,,,,,,,0.76352,1,,,,,,112,WORD,"ID",33,breath,BREATH,m,0.76352,,,,,,-0.025925926,-0.307407407,0,0,0,,0,108,108,51,1,,
,,,,,,,,,,,,,,,,,,5f511be28ba7012e8c040f50,2020-11-27_12h06.35.675,lexical_decision_task_MP_exp2,2020.2.5,Win32,60,m,1,,,,,,,,0.879685,1,,,,,,11,WORD,UN,16,amount,CRUISE,m,0.879685,,,,,,-0.025925926,-0.307407407,0,0,0,,0,109,109,190,1,,
,,,,,,,,,,,,,,,,,,5f511be28ba7012e8c040f50,2020-11-27_12h06.35.675,lexical_decision_task_MP_exp2,2020.2.5,Win32,60,z,1,,,,,,,,0.82396,1,,,,,,256,NW,UN,16,veniod,INLORS,z,0.82396,,,,,,-0.025925926,-0.307407407,0,0,0,,0,110,110,435,1,,
,,,,,,,,,,,,,,,,,,5f511be28ba7012e8c040f50,2020-11-27_12h06.35.675,lexical_decision_task_MP_exp2,2020.2.5,Win32,60,m,1,,,,,,,,0.937665,1,,,,,,226,WORD,UN,33,flower,CASINO,m,0.937665,,,,,,-0.025925926,-0.307407407,0,0,0,,0,111,111,165,1,,
,,,,,,,,,,,,,,,,,,5f511be28ba7012e8c040f50,2020-11-27_12h06.35.675,lexical_decision_task_MP_exp2,2020.2.5,Win32,60,z,1,,,,,,,,1.671265,1,,,,,,471,NW,UN,33,cigney,NOBEST,z,1.671265,,,,,,-0.025925926,-0.307407407,0,0,0,,0,112,112,410,1,,
,,,,,,,,,,,,,,,,,,5f511be28ba7012e8c040f50,2020-11-27_12h06.35.675,lexical_decision_task_MP_exp2,2020.2.5,Win32,60,z,0,,,,,,,,1.629595,0,,,,,,5,WORD,UN,16,bundle,PLUNGE,m,1.629595,,,,,,-0.025925926,-0.307407407,0,0,0,,0,113,113,184,1,,
,,,,,,,,,,,,,,,,,,5f511be28ba7012e8c040f50,2020-11-27_12h06.35.675,lexical_decision_task_MP_exp2,2020.2.5,Win32,60,z,1,,,,,,,,1.173505,1,,,,,,257,NW,UN,16,poluth,VENIOD,z,1.173505,,,,,,-0.025925926,-0.307407407,0,0,0,,0,114,114,436,1,,
,,,,,,,,,,,,,,,,,,5f511be28ba7012e8c040f50,2020-11-27_12h06.35.675,lexical_decision_task_MP_exp2,2020.2.5,Win32,60,z,1,,,,,,,,1.17691,1,,,,,,262,NW,UN,16,dolica,QUILEW,z,1.17691,,,,,,-0.025925926,-0.307407407,0,0,0,,0,115,115,441,1,,
,,,,,,,,,,,,,,,,,,5f511be28ba7012e8c040f50,2020-11-27_12h06.35.675,lexical_decision_task_MP_exp2,2020.2.5,Win32,60,m,1,,,,,,,,0.893275,1,,,,,,153,WORD,"ID",16,behold,BEHOLD,m,0.893275,,,,,,-0.025925926,-0.307407407,0,0,0,,0,116,116,92,1,,
,,,,,,,,,,,,,,,,,,5f511be28ba7012e8c040f50,2020-11-27_12h06.35.675,lexical_decision_task_MP_exp2,2020.2.5,Win32,60,m,0,,,,,,,,0.885715,0,,,,,,251,NW,UN,16,stapod,LUPICT,z,0.885715,,,,,,-0.025925926,-0.307407407,0,0,0,,0,117,117,430,1,,
,,,,,,,,,,,,,,,,,,5f511be28ba7012e8c040f50,2020-11-27_12h06.35.675,lexical_decision_task_MP_exp2,2020.2.5,Win32,60,z,1,,,,,,,,1.15251,1,,,,,,357,NW,"ID",33,derain,DERAIN,z,1.15251,,,,,,-0.025925926,-0.307407407,0,0,0,,0,118,118,296,1,,
,,,,,,,,,,,,,,,,,,5f511be28ba7012e8c040f50,2020-11-27_12h06.35.675,lexical_decision_task_MP_exp2,2020.2.5,Win32,60,m,1,,,,,,,,0.6521,1,,,,,,1,WORD,UN,16,ethnic,FRIGHT,m,0.6521,,,,,,-0.025925926,-0.307407407,0,0,0,,0,119,119,180,1,,
,,,,,,,,,,,,,,,,,,5f511be28ba7012e8c040f50,2020-11-27_12h06.35.675,lexical_decision_task_MP_exp2,2020.2.5,Win32,60,m,0,,,,,,,,1.91412,0,,,,,,391,NW,"ID",16,theldy,THELDY,z,1.91412,,,,,,0.021296296,-0.399074074,1,0,0,,0,120,120,330,1,break_done_button,
,,,,,,,,,,,,,,,,,,5f511be28ba7012e8c040f50,2020-11-27_12h06.35.675,lexical_decision_task_MP_exp2,2020.2.5,Win32,60,,0,,,,,,,,1.91412,-1,,,,,,451,NW,UN,33,surden,CAINKY,z,,,,,,,0.019444444,-0.388888889,0,0,0,,0,121,121,390,1,,
,,,,,,,,,,,,,,,,,,5f511be28ba7012e8c040f50,2020-11-27_12h06.35.675,lexical_decision_task_MP_exp2,2020.2.5,Win32,60,m,0,,,,,,,,0.765775,0,,,,,,441,NW,UN,33,aboune,RASTOE,z,0.765775,,,,,,0.019444444,-0.388888889,0,0,0,,0,122,122,380,1,,
,,,,,,,,,,,,,,,,,,5f511be28ba7012e8c040f50,2020-11-27_12h06.35.675,lexical_decision_task_MP_exp2,2020.2.5,Win32,60,m,0,,,,,,,,0.774135,0,,,,,,361,NW,"ID",16,pauche,PAUCHE,z,0.774135,,,,,,0.019444444,-0.388888889,0,0,0,,0,123,123,300,1,,
,,,,,,,,,,,,,,,,,,5f511be28ba7012e8c040f50,2020-11-27_12h06.35.675,lexical_decision_task_MP_exp2,2020.2.5,Win32,60,m,1,,,,,,,,0.607905,1,,,,,,182,WORD,UN,33,absent,WINTER,m,0.607905,,,,,,0.019444444,-0.388888889,0,0,0,,0,124,124,121,1,,
,,,,,,,,,,,,,,,,,,5f511be28ba7012e8c040f50,2020-11-27_12h06.35.675,lexical_decision_task_MP_exp2,2020.2.5,Win32,60,m,1,,,,,,,,0.941975,1,,,,,,176,WORD,"ID",16,strife,STRIFE,m,0.941975,,,,,,0.019444444,-0.388888889,0,0,0,,0,125,125,115,1,,
,,,,,,,,,,,,,,,,,,5f511be28ba7012e8c040f50,2020-11-27_12h06.35.675,lexical_decision_task_MP_exp2,2020.2.5,Win32,60,m,0,,,,,,,,0.621995,0,,,,,,446,NW,UN,33,gircue,RUNAMO,z,0.621995,,,,,,0.019444444,-0.388888889,0,0,0,,0,126,126,385,1,,
,,,,,,,,,,,,,,,,,,5f511be28ba7012e8c040f50,2020-11-27_12h06.35.675,lexical_decision_task_MP_exp2,2020.2.5,Win32,60,z,0,,,,,,,,0.73585,0,,,,,,32,WORD,UN,16,scream,BUCKLE,m,0.73585,,,,,,0.019444444,-0.388888889,0,0,0,,0,127,127,211,1,,
,,,,,,,,,,,,,,,,,,5f511be28ba7012e8c040f50,2020-11-27_12h06.35.675,lexical_decision_task_MP_exp2,2020.2.5,Win32,60,m,1,,,,,,,,0.5463,1,,,,,,97,WORD,"ID",33,client,CLIENT,m,0.5463,,,,,,0.019444444,-0.388888889,0,0,0,,0,128,128,36,1,,
,,,,,,,,,,,,,,,,,,5f511be28ba7012e8c040f50,2020-11-27_12h06.35.675,lexical_decision_task_MP_exp2,2020.2.5,Win32,60,z,1,,,,,,,,1.55143,1,,,,,,340,NW,"ID",33,fiatch,FIATCH,z,1.55143,,,,,,0.019444444,-0.388888889,0,0,0,,0,129,129,279,1,,
,,,,,,,,,,,,,,,,,,5f511be28ba7012e8c040f50,2020-11-27_12h06.35.675,lexical_decision_task_MP_exp2,2020.2.5,Win32,60,m,0,,,,,,,,1.460805,0,,,,,,347,NW,"ID",33,kerift,KERIFT,z,1.460805,,,,,,0.019444444,-0.388888889,0,0,0,,0,130,130,286,1,,
,,,,,,,,,,,,,,,,,,5f511be28ba7012e8c040f50,2020-11-27_12h06.35.675,lexical_decision_task_MP_exp2,2020.2.5,Win32,60,m,1,,,,,,,,0.743305,1,,,,,,96,WORD,"ID",33,ignore,IGNORE,m,0.743305,,,,,,0.019444444,-0.388888889,0,0,0,,0,131,131,35,1,,
,,,,,,,,,,,,,,,,,,5f511be28ba7012e8c040f50,2020-11-27_12h06.35.675,lexical_decision_task_MP_exp2,2020.2.5,Win32,60,z,1,,,,,,,,1.083065,1,,,,,,330,NW,"ID",33,kensom,KENSOM,z,1.083065,,,,,,0.019444444,-0.388888889,0,0,0,,0,132,132,269,1,,
,,,,,,,,,,,,,,,,,,5f511be28ba7012e8c040f50,2020-11-27_12h06.35.675,lexical_decision_task_MP_exp2,2020.2.5,Win32,60,m,0,,,,,,,,1.18338,0,,,,,,305,NW,"ID",33,forgle,FORGLE,z,1.18338,,,,,,0.019444444,-0.388888889,0,0,0,,0,133,133,244,1,,
,,,,,,,,,,,,,,,,,,5f511be28ba7012e8c040f50,2020-11-27_12h06.35.675,lexical_decision_task_MP_exp2,2020.2.5,Win32,60,,0,,,,,,,,1.18338,-1,,,,,,429,NW,UN,33,caroey,FUNTLE,z,,,,,,,0.019444444,-0.388888889,0,0,0,,0,134,134,368,1,,
,,,,,,,,,,,,,,,,,,5f511be28ba7012e8c040f50,2020-11-27_12h06.35.675,lexical_decision_task_MP_exp2,2020.2.5,Win32,60,z,0,,,,,,,,1.30961,0,,,,,,235,WORD,UN,33,pirate,GRUMPY,m,1.30961,,,,,,0.019444444,-0.388888889,0,0,0,,0,135,135,174,1,,
,,,,,,,,,,,,,,,,,,5f511be28ba7012e8c040f50,2020-11-27_12h06.35.675,lexical_decision_task_MP_exp2,2020.2.5,Win32,60,z,1,,,,,,,,0.90513,1,,,,,,406,NW,"ID",16,nouply,NOUPLY,z,0.90513,,,,,,0.019444444,-0.388888889,0,0,0,,0,136,136,345,1,,
,,,,,,,,,,,,,,,,,,5f511be28ba7012e8c040f50,2020-11-27_12h06.35.675,lexical_decision_task_MP_exp2,2020.2.5,Win32,60,m,1,,,,,,,,0.549495,1,,,,,,102,WORD,"ID",33,direct,DIRECT,m,0.549495,,,,,,0.019444444,-0.388888889,0,0,0,,0,137,137,41,1,,
,,,,,,,,,,,,,,,,,,5f511be28ba7012e8c040f50,2020-11-27_12h06.35.675,lexical_decision_task_MP_exp2,2020.2.5,Win32,60,,0,0.019444444,-0.388888889,0,0,1,1.19955,,0.549495,-1,,,,,,44,WORD,UN,16,clergy,DANGER,m,,,,,,,0.019444444,-0.388888889,0,0,0,,0,138,138,223,1,,
,,,,,,,,,,,,,,,,,,5f511be28ba7012e8c040f50,2020-11-27_12h06.35.675,lexical_decision_task_MP_exp2,2020.2.5,Win32,60,z,1,-0.033333333,-0.230555556,1,0,0,1.56631,,1.807545,1,,,,,,443,NW,UN,33,jaunce,DORSEX,z,1.807545,,,,,,-0.016666667,-0.238888889,0,0,0,,0,139,139,382,1,,
,,,,,,,,,,,,,,,,,,5f511be28ba7012e8c040f50,2020-11-27_12h06.35.675,lexical_decision_task_MP_exp2,2020.2.5,Win32,60,m,1,,,,,,,,0.80511,1,,,,,,193,WORD,UN,33,mildew,OBJECT,m,0.80511,,,,,,-0.016666667,-0.238888889,0,0,0,,0,140,140,132,1,,
,,,,,,,,,,,,,,,,,,5f511be28ba7012e8c040f50,2020-11-27_12h06.35.675,lexical_decision_task_MP_exp2,2020.2.5,Win32,60,,0,,,,,,,,0.80511,-1,,,,,,156,WORD,"ID",16,cradle,CRADLE,m,,,,,,,-0.016666667,-0.238888889,0,0,0,,0,141,141,95,1,,
,,,,,,,,,,,,,,,,,,5f511be28ba7012e8c040f50,2020-11-27_12h06.35.675,lexical_decision_task_MP_exp2,2020.2.5,Win32,60,z,1,,,,,,,,0.84729,1,,,,,,290,NW,UN,16,pretch,SPLINO,z,0.84729,,,,,,-0.016666667,-0.238888889,0,0,0,,0,142,142,469,1,,
,,,,,,,,,,,,,,,,,,5f511be28ba7012e8c040f50,2020-11-27_12h06.35.675,lexical_decision_task_MP_exp2,2020.2.5,Win32,60,z,1,,,,,,,,1.080935,1,,,,,,255,NW,UN,16,inlors,APIGHT,z,1.080935,,,,,,-0.016666667,-0.238888889,0,0,0,,0,143,143,434,1,,
,,,,,,,,,,,,,,,,,,5f511be28ba7012e8c040f50,2020-11-27_12h06.35.675,lexical_decision_task_MP_exp2,2020.2.5,Win32,60,m,1,,,,,,,,1.075655,1,,,,,,17,WORD,UN,16,humble,CHARGE,m,1.075655,,,,,,-0.016666667,-0.238888889,0,0,0,,0,144,144,196,1,,
,,,,,,,,,,,,,,,,,,5f511be28ba7012e8c040f50,2020-11-27_12h06.35.675,lexical_decision_task_MP_exp2,2020.2.5,Win32,60,m,1,,,,,,,,1.101505,1,,,,,,13,WORD,UN,16,almost,STRIVE,m,1.101505,,,,,,-0.016666667,-0.238888889,0,0,0,,0,145,145,192,1,,
,,,,,,,,,,,,,,,,,,5f511be28ba7012e8c040f50,2020-11-27_12h06.35.675,lexical_decision_task_MP_exp2,2020.2.5,Win32,60,z,1,,,,,,,,0.904785,1,,,,,,242,NW,UN,16,musied,UNWERT,z,0.904785,,,,,,-0.016666667,-0.238888889,0,0,0,,0,146,146,421,1,,
,,,,,,,,,,,,,,,,,,5f511be28ba7012e8c040f50,2020-11-27_12h06.35.675,lexical_decision_task_MP_exp2,2020.2.5,Win32,60,m,0,,,,,,,,0.887135,0,,,,,,462,NW,UN,33,kispel,ABSULT,z,0.887135,,,,,,-0.016666667,-0.238888889,0,0,0,,0,147,147,401,1,,
,,,,,,,,,,,,,,,,,,5f511be28ba7012e8c040f50,2020-11-27_12h06.35.675,lexical_decision_task_MP_exp2,2020.2.5,Win32,60,z,1,,,,,,,,1.02012,1,,,,,,394,NW,"ID",16,spaqux,SPAQUX,z,1.02012,,,,,,-0.016666667,-0.238888889,0,0,0,,0,148,148,333,1,,
,,,,,,,,,,,,,,,,,,5f511be28ba7012e8c040f50,2020-11-27_12h06.35.675,lexical_decision_task_MP_exp2,2020.2.5,Win32,60,m,1,,,,,,,,1.18046,1,,,,,,107,WORD,"ID",33,slogan,SLOGAN,m,1.18046,,,,,,-0.016666667,-0.238888889,0,0,0,,0,149,149,46,1,,
,,,,,,,,,,,,,,,,,,5f511be28ba7012e8c040f50,2020-11-27_12h06.35.675,lexical_decision_task_MP_exp2,2020.2.5,Win32,60,m,1,,,,,,,,0.889685,1,,,,,,105,WORD,"ID",33,number,NUMBER,m,0.889685,,,,,,-0.016666667,-0.238888889,0,0,0,,0,150,150,44,1,,
,,,,,,,,,,,,,,,,,,5f511be28ba7012e8c040f50,2020-11-27_12h06.35.675,lexical_decision_task_MP_exp2,2020.2.5,Win32,60,m,0,,,,,,,,1.6834,0,,,,,,378,NW,"ID",16,shrile,SHRILE,z,1.6834,,,,,,-0.016666667,-0.238888889,0,0,0,,0,151,151,317,1,,
,,,,,,,,,,,,,,,,,,5f511be28ba7012e8c040f50,2020-11-27_12h06.35.675,lexical_decision_task_MP_exp2,2020.2.5,Win32,60,m,0,,,,,,,,1.77363,0,,,,,,246,NW,UN,16,blarge,PIATON,z,1.77363,,,,,,-0.016666667,-0.238888889,0,0,0,,0,152,152,425,1,,
,,,,,,,,,,,,,,,,,,5f511be28ba7012e8c040f50,2020-11-27_12h06.35.675,lexical_decision_task_MP_exp2,2020.2.5,Win32,60,m,1,,,,,,,,0.74664,1,,,,,,229,WORD,UN,33,fringe,MOTHER,m,0.74664,,,,,,-0.016666667,-0.238888889,0,0,0,,0,153,153,168,1,,
,,,,,,,,,,,,,,,,,,5f511be28ba7012e8c040f50,2020-11-27_12h06.35.675,lexical_decision_task_MP_exp2,2020.2.5,Win32,60,z,1,,,,,,,,1.089415,1,,,,,,412,NW,"ID",16,jiluer,JILUER,z,1.089415,,,,,,-0.016666667,-0.238888889,0,0,0,,0,154,154,351,1,,
,,,,,,,,,,,,,,,,,,5f511be28ba7012e8c040f50,2020-11-27_12h06.35.675,lexical_decision_task_MP_exp2,2020.2.5,Win32,60,m,1,,,,,,,,1.217725,1,,,,,,152,WORD,"ID",16,rocket,ROCKET,m,1.217725,,,,,,-0.016666667,-0.238888889,0,0,0,,0,155,155,91,1,,
,,,,,,,,,,,,,,,,,,5f511be28ba7012e8c040f50,2020-11-27_12h06.35.675,lexical_decision_task_MP_exp2,2020.2.5,Win32,60,m,1,,,,,,,,0.925535,1,,,,,,197,WORD,UN,33,wicked,STREAM,m,0.925535,,,,,,-0.016666667,-0.238888889,0,0,0,,0,156,156,136,1,,
,,,,,,,,,,,,,,,,,,5f511be28ba7012e8c040f50,2020-11-27_12h06.35.675,lexical_decision_task_MP_exp2,2020.2.5,Win32,60,z,0,,,,,,,,1.247275,0,,,,,,48,WORD,UN,16,survey,WALNUT,m,1.247275,,,,,,-0.016666667,-0.238888889,0,0,0,,0,157,157,227,1,,
,,,,,,,,,,,,,,,,,,5f511be28ba7012e8c040f50,2020-11-27_12h06.35.675,lexical_decision_task_MP_exp2,2020.2.5,Win32,60,z,0,,,,,,,,0.85012,0,,,,,,66,WORD,"ID",33,gospel,GOSPEL,m,0.85012,,,,,,-0.016666667,-0.238888889,0,0,0,,0,158,158,5,1,,
,,,,,,,,,,,,,,,,,,5f511be28ba7012e8c040f50,2020-11-27_12h06.35.675,lexical_decision_task_MP_exp2,2020.2.5,Win32,60,,0,,,,,,,,0.85012,-1,,,,,,468,NW,UN,33,padifs,WICTOR,z,,,,,,,-0.016666667,-0.238888889,0,0,0,,0,159,159,407,1,,
,,,,,,,,,,,,,,,,,,5f511be28ba7012e8c040f50,2020-11-27_12h06.35.675,lexical_decision_task_MP_exp2,2020.2.5,Win32,60,m,0,,,,,,,,0.952505,0,,,,,,353,NW,"ID",33,clurey,CLUREY,z,0.952505,,,,,,-0.016666667,-0.238888889,0,0,0,,0,160,160,292,1,,
,,,,,,,,,,,,,,,,,,5f511be28ba7012e8c040f50,2020-11-27_12h06.35.675,lexical_decision_task_MP_exp2,2020.2.5,Win32,60,z,0,,,,,,,,1.00011,0,,,,,,94,WORD,"ID",33,travel,TRAVEL,m,1.00011,,,,,,-0.016666667,-0.238888889,0,0,0,,0,161,161,33,1,,
,,,,,,,,,,,,,,,,,,5f511be28ba7012e8c040f50,2020-11-27_12h06.35.675,lexical_decision_task_MP_exp2,2020.2.5,Win32,60,m,1,,,,,,,,0.5667,1,,,,,,132,WORD,"ID",16,strong,STRONG,m,0.5667,,,,,,-0.016666667,-0.238888889,0,0,0,,0,162,162,71,1,,
,,,,,,,,,,,,,,,,,,5f511be28ba7012e8c040f50,2020-11-27_12h06.35.675,lexical_decision_task_MP_exp2,2020.2.5,Win32,60,z,1,,,,,,,,0.773,1,,,,,,416,NW,"ID",16,pathel,PATHEL,z,0.773,,,,,,-0.016666667,-0.238888889,0,0,0,,0,163,163,355,1,,
,,,,,,,,,,,,,,,,,,5f511be28ba7012e8c040f50,2020-11-27_12h06.35.675,lexical_decision_task_MP_exp2,2020.2.5,Win32,60,m,0,,,,,,,,0.90871,0,,,,,,265,NW,UN,16,varmit,DISTAR,z,0.90871,,,,,,-0.016666667,-0.238888889,0,0,0,,0,164,164,444,1,,
,,,,,,,,,,,,,,,,,,5f511be28ba7012e8c040f50,2020-11-27_12h06.35.675,lexical_decision_task_MP_exp2,2020.2.5,Win32,60,z,1,,,,,,,,0.874105,1,,,,,,473,NW,UN,33,hablin,CRIBLE,z,0.874105,,,,,,-0.016666667,-0.238888889,0,0,0,,0,165,165,412,1,,
,,,,,,,,,,,,,,,,,,5f511be28ba7012e8c040f50,2020-11-27_12h06.35.675,lexical_decision_task_MP_exp2,2020.2.5,Win32,60,z,1,,,,,,,,1.66784,1,,,,,,458,NW,UN,33,hocite,BARCET,z,1.66784,,,,,,-0.016666667,-0.238888889,0,0,0,,0,166,166,397,1,,
,,,,,,,,,,,,,,,,,,5f511be28ba7012e8c040f50,2020-11-27_12h06.35.675,lexical_decision_task_MP_exp2,2020.2.5,Win32,60,m,1,,,,,,,,1.34047,1,,,,,,50,WORD,UN,16,hungry,SNATCH,m,1.34047,,,,,,-0.016666667,-0.238888889,0,0,0,,0,167,167,229,1,,
,,,,,,,,,,,,,,,,,,5f511be28ba7012e8c040f50,2020-11-27_12h06.35.675,lexical_decision_task_MP_exp2,2020.2.5,Win32,60,m,1,,,,,,,,0.80017,1,,,,,,240,WORD,UN,33,seldom,FOREST,m,0.80017,,,,,,-0.016666667,-0.238888889,0,0,0,,0,168,168,179,1,,
,,,,,,,,,,,,,,,,,,5f511be28ba7012e8c040f50,2020-11-27_12h06.35.675,lexical_decision_task_MP_exp2,2020.2.5,Win32,60,z,1,,,,,,,,1.116985,1,,,,,,354,NW,"ID",33,virlex,VIRLEX,z,1.116985,,,,,,-0.016666667,-0.238888889,0,0,0,,0,169,169,293,1,,
,,,,,,,,,,,,,,,,,,5f511be28ba7012e8c040f50,2020-11-27_12h06.35.675,lexical_decision_task_MP_exp2,2020.2.5,Win32,60,m,1,,,,,,,,0.64188,1,,,,,,100,WORD,"ID",33,carbon,CARBON,m,0.64188,,,,,,-0.016666667,-0.238888889,0,0,0,,0,170,170,39,1,,
,,,,,,,,,,,,,,,,,,5f511be28ba7012e8c040f50,2020-11-27_12h06.35.675,lexical_decision_task_MP_exp2,2020.2.5,Win32,60,m,1,,,,,,,,1.50774,1,,,,,,215,WORD,UN,33,lumber,PHOBIA,m,1.50774,,,,,,-0.016666667,-0.238888889,0,0,0,,0,171,171,154,1,,
,,,,,,,,,,,,,,,,,,5f511be28ba7012e8c040f50,2020-11-27_12h06.35.675,lexical_decision_task_MP_exp2,2020.2.5,Win32,60,z,0,,,,,,,,0.96211,0,,,,,,162,WORD,"ID",16,candle,CANDLE,m,0.96211,,,,,,-0.016666667,-0.238888889,0,0,0,,0,172,172,101,1,,
,,,,,,,,,,,,,,,,,,5f511be28ba7012e8c040f50,2020-11-27_12h06.35.675,lexical_decision_task_MP_exp2,2020.2.5,Win32,60,m,1,,,,,,,,0.793505,1,,,,,,23,WORD,UN,16,praise,WEALTH,m,0.793505,,,,,,-0.016666667,-0.238888889,0,0,0,,0,173,173,202,1,,
,,,,,,,,,,,,,,,,,,5f511be28ba7012e8c040f50,2020-11-27_12h06.35.675,lexical_decision_task_MP_exp2,2020.2.5,Win32,60,,0,,,,,,,,0.793505,-1,,,,,,396,NW,"ID",16,flengy,FLENGY,z,,,,,,,-0.016666667,-0.238888889,0,0,0,,0,174,174,335,1,,
,,,,,,,,,,,,,,,,,,5f511be28ba7012e8c040f50,2020-11-27_12h06.35.675,lexical_decision_task_MP_exp2,2020.2.5,Win32,60,m,1,,,,,,,,0.801135,1,,,,,,143,WORD,"ID",16,reason,REASON,m,0.801135,,,,,,-0.016666667,-0.238888889,0,0,0,,0,175,175,82,1,,
,,,,,,,,,,,,,,,,,,5f511be28ba7012e8c040f50,2020-11-27_12h06.35.675,lexical_decision_task_MP_exp2,2020.2.5,Win32,60,m,1,,,,,,,,0.633415,1,,,,,,104,WORD,"ID",33,studio,STUDIO,m,0.633415,,,,,,-0.016666667,-0.238888889,0,0,0,,0,176,176,43,1,,
,,,,,,,,,,,,,,,,,,5f511be28ba7012e8c040f50,2020-11-27_12h06.35.675,lexical_decision_task_MP_exp2,2020.2.5,Win32,60,m,1,,,,,,,,0.89005,1,,,,,,95,WORD,"ID",33,thread,THREAD,m,0.89005,,,,,,-0.016666667,-0.238888889,0,0,0,,0,177,177,34,1,,
,,,,,,,,,,,,,,,,,,5f511be28ba7012e8c040f50,2020-11-27_12h06.35.675,lexical_decision_task_MP_exp2,2020.2.5,Win32,60,z,1,,,,,,,,0.806115,1,,,,,,439,NW,UN,33,saride,LIMPOR,z,0.806115,,,,,,-0.016666667,-0.238888889,0,0,0,,0,178,178,378,1,,
,,,,,,,,,,,,,,,,,,5f511be28ba7012e8c040f50,2020-11-27_12h06.35.675,lexical_decision_task_MP_exp2,2020.2.5,Win32,60,z,1,,,,,,,,0.9874,1,,,,,,281,NW,UN,16,porlex,MELATY,z,0.9874,,,,,,-0.016666667,-0.238888889,0,0,0,,0,179,179,460,1,,
,,,,,,,,,,,,,,,,,,5f511be28ba7012e8c040f50,2020-11-27_12h06.35.675,lexical_decision_task_MP_exp2,2020.2.5,Win32,60,m,0,,,,,,,,1.05005,0,,,,,,383,NW,"ID",16,aungre,AUNGRE,z,1.05005,,,,,,-0.016666667,-0.238888889,0,0,0,,0,180,180,322,1,,
,,,,,,,,,,,,,,,,,,5f511be28ba7012e8c040f50,2020-11-27_12h06.35.675,lexical_decision_task_MP_exp2,2020.2.5,Win32,60,z,1,,,,,,,,1.80196,1,,,,,,437,NW,UN,33,baitch,SNAPEL,z,1.80196,,,,,,-0.016666667,-0.238888889,0,0,0,,0,181,181,376,1,,
,,,,,,,,,,,,,,,,,,5f511be28ba7012e8c040f50,2020-11-27_12h06.35.675,lexical_decision_task_MP_exp2,2020.2.5,Win32,60,m,1,,,,,,,,0.691675,1,,,,,,14,WORD,UN,16,orange,ALMOST,m,0.691675,,,,,,-0.016666667,-0.238888889,0,0,0,,0,182,182,193,1,,
,,,,,,,,,,,,,,,,,,5f511be28ba7012e8c040f50,2020-11-27_12h06.35.675,lexical_decision_task_MP_exp2,2020.2.5,Win32,60,m,1,,,,,,,,0.73357,1,,,,,,79,WORD,"ID",33,theory,THEORY,m,0.73357,,,,,,-0.016666667,-0.238888889,0,0,0,,0,183,183,18,1,,
,,,,,,,,,,,,,,,,,,5f511be28ba7012e8c040f50,2020-11-27_12h06.35.675,lexical_decision_task_MP_exp2,2020.2.5,Win32,60,,0,,,,,,,,0.73357,-1,,,,,,263,NW,UN,16,vackel,DOLICA,z,,,,,,,-0.016666667,-0.238888889,0,0,0,,0,184,184,442,1,,
,,,,,,,,,,,,,,,,,,5f511be28ba7012e8c040f50,2020-11-27_12h06.35.675,lexical_decision_task_MP_exp2,2020.2.5,Win32,60,m,0,,,,,,,,1.71042,0,,,,,,326,NW,"ID",33,iguade,IGUADE,z,1.71042,,,,,,-0.016666667,-0.238888889,0,0,0,,0,185,185,265,1,,
,,,,,,,,,,,,,,,,,,5f511be28ba7012e8c040f50,2020-11-27_12h06.35.675,lexical_decision_task_MP_exp2,2020.2.5,Win32,60,z,1,,,,,,,,1.426275,1,,,,,,465,NW,UN,33,bafent,WHIVEX,z,1.426275,,,,,,-0.016666667,-0.238888889,0,0,0,,0,186,186,404,1,,
,,,,,,,,,,,,,,,,,,5f511be28ba7012e8c040f50,2020-11-27_12h06.35.675,lexical_decision_task_MP_exp2,2020.2.5,Win32,60,z,0,,,,,,,,1.383485,0,,,,,,85,WORD,"ID",33,sprawl,SPRAWL,m,1.383485,,,,,,-0.016666667,-0.238888889,0,0,0,,0,187,187,24,1,,
,,,,,,,,,,,,,,,,,,5f511be28ba7012e8c040f50,2020-11-27_12h06.35.675,lexical_decision_task_MP_exp2,2020.2.5,Win32,60,m,1,,,,,,,,1.133685,1,,,,,,219,WORD,UN,33,voyage,BUCKET,m,1.133685,,,,,,-0.016666667,-0.238888889,0,0,0,,0,188,188,158,1,,
,,,,,,,,,,,,,,,,,,5f511be28ba7012e8c040f50,2020-11-27_12h06.35.675,lexical_decision_task_MP_exp2,2020.2.5,Win32,60,z,1,,,,,,,,0.85164,1,,,,,,415,NW,"ID",16,higsta,HIGSTA,z,0.85164,,,,,,-0.016666667,-0.238888889,0,0,0,,0,189,189,354,1,,
,,,,,,,,,,,,,,,,,,5f511be28ba7012e8c040f50,2020-11-27_12h06.35.675,lexical_decision_task_MP_exp2,2020.2.5,Win32,60,z,1,,,,,,,,1.010055,1,,,,,,434,NW,UN,33,impurb,PITROM,z,1.010055,,,,,,-0.016666667,-0.238888889,0,0,0,,0,190,190,373,1,,
,,,,,,,,,,,,,,,,,,5f511be28ba7012e8c040f50,2020-11-27_12h06.35.675,lexical_decision_task_MP_exp2,2020.2.5,Win32,60,,0,,,,,,,,1.010055,-1,,,,,,338,NW,"ID",33,wreash,WREASH,z,,,,,,,-0.016666667,-0.238888889,0,0,0,,0,191,191,277,1,,
,,,,,,,,,,,,,,,,,,5f511be28ba7012e8c040f50,2020-11-27_12h06.35.675,lexical_decision_task_MP_exp2,2020.2.5,Win32,60,z,1,,,,,,,,1.04327,1,,,,,,478,NW,UN,33,pebric,ACRISE,z,1.04327,,,,,,-0.016666667,-0.238888889,0,0,0,,0,192,192,417,1,,
,,,,,,,,,,,,,,,,,,5f511be28ba7012e8c040f50,2020-11-27_12h06.35.675,lexical_decision_task_MP_exp2,2020.2.5,Win32,60,m,1,,,,,,,,0.67775,1,,,,,,160,WORD,"ID",16,violet,VIOLET,m,0.67775,,,,,,-0.016666667,-0.238888889,0,0,0,,0,193,193,99,1,,
,,,,,,,,,,,,,,,,,,5f511be28ba7012e8c040f50,2020-11-27_12h06.35.675,lexical_decision_task_MP_exp2,2020.2.5,Win32,60,z,1,,,,,,,,0.75594,1,,,,,,414,NW,"ID",16,serbol,SERBOL,z,0.75594,,,,,,-0.016666667,-0.238888889,0,0,0,,0,194,194,353,1,,
,,,,,,,,,,,,,,,,,,5f511be28ba7012e8c040f50,2020-11-27_12h06.35.675,lexical_decision_task_MP_exp2,2020.2.5,Win32,60,z,1,,,,,,,,0.720345,1,,,,,,308,NW,"ID",33,psetch,PSETCH,z,0.720345,,,,,,-0.016666667,-0.238888889,0,0,0,,0,195,195,247,1,,
,,,,,,,,,,,,,,,,,,5f511be28ba7012e8c040f50,2020-11-27_12h06.35.675,lexical_decision_task_MP_exp2,2020.2.5,Win32,60,m,1,,,,,,,,1.24305,1,,,,,,9,WORD,UN,16,bridge,HUSTLE,m,1.24305,,,,,,-0.016666667,-0.238888889,0,0,0,,0,196,196,188,1,,
,,,,,,,,,,,,,,,,,,5f511be28ba7012e8c040f50,2020-11-27_12h06.35.675,lexical_decision_task_MP_exp2,2020.2.5,Win32,60,m,0,,,,,,,,1.1911,0,,,,,,373,NW,"ID",16,bigent,BIGENT,z,1.1911,,,,,,-0.016666667,-0.238888889,0,0,0,,0,197,197,312,1,,
,,,,,,,,,,,,,,,,,,5f511be28ba7012e8c040f50,2020-11-27_12h06.35.675,lexical_decision_task_MP_exp2,2020.2.5,Win32,60,,0,,,,,,,,1.1911,-1,,,,,,178,WORD,"ID",16,inform,INFORM,m,,,,,,,-0.016666667,-0.238888889,0,0,0,,0,198,198,117,1,,
,,,,,,,,,,,,,,,,,,5f511be28ba7012e8c040f50,2020-11-27_12h06.35.675,lexical_decision_task_MP_exp2,2020.2.5,Win32,60,z,1,,,,,,,,0.95196,1,,,,,,438,NW,UN,33,limpor,BAITCH,z,0.95196,,,,,,-0.016666667,-0.238888889,0,0,0,,0,199,199,377,1,,
,,,,,,,,,,,,,,,,,,5f511be28ba7012e8c040f50,2020-11-27_12h06.35.675,lexical_decision_task_MP_exp2,2020.2.5,Win32,60,,0,,,,,,,,0.95196,-1,,,,,,247,NW,UN,16,strole,BLARGE,z,,,,,,,-0.016666667,-0.238888889,0,0,0,,0,200,200,426,1,,
,,,,,,,,,,,,,,,,,,5f511be28ba7012e8c040f50,2020-11-27_12h06.35.675,lexical_decision_task_MP_exp2,2020.2.5,Win32,60,m,0,,,,,,,,0.83332,0,,,,,,431,NW,UN,33,lunker,CHRUMS,z,0.83332,,,,,,-0.016666667,-0.238888889,0,0,0,,0,201,201,370,1,,
,,,,,,,,,,,,,,,,,,5f511be28ba7012e8c040f50,2020-11-27_12h06.35.675,lexical_decision_task_MP_exp2,2020.2.5,Win32,60,,0,,,,,,,,0.83332,-1,,,,,,346,NW,"ID",33,saudic,SAUDIC,z,,,,,,,-0.016666667,-0.238888889,0,0,0,,0,202,202,285,1,,
,,,,,,,,,,,,,,,,,,5f511be28ba7012e8c040f50,2020-11-27_12h06.35.675,lexical_decision_task_MP_exp2,2020.2.5,Win32,60,m,1,,,,,,,,0.859875,1,,,,,,142,WORD,"ID",16,spruce,SPRUCE,m,0.859875,,,,,,-0.016666667,-0.238888889,0,0,0,,0,203,203,81,1,,
,,,,,,,,,,,,,,,,,,5f511be28ba7012e8c040f50,2020-11-27_12h06.35.675,lexical_decision_task_MP_exp2,2020.2.5,Win32,60,m,1,,,,,,,,1.71675,1,,,,,,200,WORD,UN,33,admire,BEACON,m,1.71675,,,,,,-0.016666667,-0.238888889,0,0,0,,0,204,204,139,1,,
,,,,,,,,,,,,,,,,,,5f511be28ba7012e8c040f50,2020-11-27_12h06.35.675,lexical_decision_task_MP_exp2,2020.2.5,Win32,60,,0,,,,,,,,1.71675,-1,,,,,,284,NW,UN,16,prudge,SHAPLE,z,,,,,,,-0.016666667,-0.238888889,0,0,0,,0,205,205,463,1,,
,,,,,,,,,,,,,,,,,,5f511be28ba7012e8c040f50,2020-11-27_12h06.35.675,lexical_decision_task_MP_exp2,2020.2.5,Win32,60,m,1,,,,,,,,1.900485,1,,,,,,208,WORD,UN,33,search,HOCKEY,m,1.900485,,,,,,-0.016666667,-0.238888889,0,0,0,,0,206,206,147,1,,
,,,,,,,,,,,,,,,,,,5f511be28ba7012e8c040f50,2020-11-27_12h06.35.675,lexical_decision_task_MP_exp2,2020.2.5,Win32,60,m,1,,,,,,,,0.90983,1,,,,,,201,WORD,UN,33,factor,ADMIRE,m,0.90983,,,,,,-0.016666667,-0.238888889,0,0,0,,0,207,207,140,1,,
,,,,,,,,,,,,,,,,,,5f511be28ba7012e8c040f50,2020-11-27_12h06.35.675,lexical_decision_task_MP_exp2,2020.2.5,Win32,60,,0,,,,,,,,0.90983,-1,,,,,,137,WORD,"ID",16,finger,FINGER,m,,,,,,,-0.016666667,-0.238888889,0,0,0,,0,208,208,76,1,,
,,,,,,,,,,,,,,,,,,5f511be28ba7012e8c040f50,2020-11-27_12h06.35.675,lexical_decision_task_MP_exp2,2020.2.5,Win32,60,,0,,,,,,,,0.90983,-1,,,,,,293,NW,UN,16,inhort,SWANCE,z,,,,,,,-0.016666667,-0.238888889,0,0,0,,0,209,209,472,1,,
,,,,,,,,,,,,,,,,,,5f511be28ba7012e8c040f50,2020-11-27_12h06.35.675,lexical_decision_task_MP_exp2,2020.2.5,Win32,60,m,1,,,,,,,,0.69266,1,,,,,,39,WORD,UN,16,convey,INSECT,m,0.69266,,,,,,-0.016666667,-0.238888889,0,0,0,,0,210,210,218,1,,
,,,,,,,,,,,,,,,,,,5f511be28ba7012e8c040f50,2020-11-27_12h06.35.675,lexical_decision_task_MP_exp2,2020.2.5,Win32,60,m,1,,,,,,,,0.662895,1,,,,,,26,WORD,UN,16,butler,SPRINT,m,0.662895,,,,,,-0.016666667,-0.238888889,0,0,0,,0,211,211,205,1,,
,,,,,,,,,,,,,,,,,,5f511be28ba7012e8c040f50,2020-11-27_12h06.35.675,lexical_decision_task_MP_exp2,2020.2.5,Win32,60,z,1,,,,,,,,1.05609,1,,,,,,433,NW,UN,33,pitrom,DRANCE,z,1.05609,,,,,,-0.016666667,-0.238888889,0,0,0,,0,212,212,372,1,,
,,,,,,,,,,,,,,,,,,5f511be28ba7012e8c040f50,2020-11-27_12h06.35.675,lexical_decision_task_MP_exp2,2020.2.5,Win32,60,z,1,,,,,,,,0.658435,1,,,,,,382,NW,"ID",16,sarley,SARLEY,z,0.658435,,,,,,-0.016666667,-0.238888889,0,0,0,,0,213,213,321,1,,
,,,,,,,,,,,,,,,,,,5f511be28ba7012e8c040f50,2020-11-27_12h06.35.675,lexical_decision_task_MP_exp2,2020.2.5,Win32,60,z,0,,,,,,,,0.711015,0,,,,,,111,WORD,"ID",33,induce,INDUCE,m,0.711015,,,,,,-0.016666667,-0.238888889,0,0,0,,0,214,214,50,1,,
,,,,,,,,,,,,,,,,,,5f511be28ba7012e8c040f50,2020-11-27_12h06.35.675,lexical_decision_task_MP_exp2,2020.2.5,Win32,60,m,1,,,,,,,,0.616745,1,,,,,,60,WORD,UN,16,fright,PENCIL,m,0.616745,,,,,,-0.016666667,-0.238888889,0,0,0,,0,215,215,239,1,,
,,,,,,,,,,,,,,,,,,5f511be28ba7012e8c040f50,2020-11-27_12h06.35.675,lexical_decision_task_MP_exp2,2020.2.5,Win32,60,m,1,,,,,,,,0.66681,1,,,,,,55,WORD,UN,16,ambush,STROKE,m,0.66681,,,,,,-0.016666667,-0.238888889,0,0,0,,0,216,216,234,1,,
,,,,,,,,,,,,,,,,,,5f511be28ba7012e8c040f50,2020-11-27_12h06.35.675,lexical_decision_task_MP_exp2,2020.2.5,Win32,60,z,1,,,,,,,,0.772115,1,,,,,,318,NW,"ID",33,reagly,REAGLY,z,0.772115,,,,,,-0.016666667,-0.238888889,0,0,0,,0,217,217,257,1,,
,,,,,,,,,,,,,,,,,,5f511be28ba7012e8c040f50,2020-11-27_12h06.35.675,lexical_decision_task_MP_exp2,2020.2.5,Win32,60,m,0,,,,,,,,0.954395,0,,,,,,248,NW,UN,16,batrol,STROLE,z,0.954395,,,,,,-0.016666667,-0.238888889,0,0,0,,0,218,218,427,1,,
,,,,,,,,,,,,,,,,,,5f511be28ba7012e8c040f50,2020-11-27_12h06.35.675,lexical_decision_task_MP_exp2,2020.2.5,Win32,60,m,1,,,,,,,,0.62122,1,,,,,,76,WORD,"ID",33,exotic,EXOTIC,m,0.62122,,,,,,-0.016666667,-0.238888889,0,0,0,,0,219,219,15,1,,
,,,,,,,,,,,,,,,,,,5f511be28ba7012e8c040f50,2020-11-27_12h06.35.675,lexical_decision_task_MP_exp2,2020.2.5,Win32,60,,0,,,,,,,,0.62122,-1,,,,,,232,WORD,UN,33,nature,INJECT,m,,,,,,,-0.016666667,-0.238888889,0,0,0,,0,220,220,171,1,,
,,,,,,,,,,,,,,,,,,5f511be28ba7012e8c040f50,2020-11-27_12h06.35.675,lexical_decision_task_MP_exp2,2020.2.5,Win32,60,m,1,,,,,,,,0.451985,1,,,,,,78,WORD,"ID",33,column,COLUMN,m,0.451985,,,,,,-0.016666667,-0.238888889,0,0,0,,0,221,221,17,1,,
,,,,,,,,,,,,,,,,,,5f511be28ba7012e8c040f50,2020-11-27_12h06.35.675,lexical_decision_task_MP_exp2,2020.2.5,Win32,60,m,1,,,,,,,,0.454515,1,,,,,,154,WORD,"ID",16,author,AUTHOR,m,0.454515,,,,,,-0.016666667,-0.238888889,0,0,0,,0,222,222,93,1,,
,,,,,,,,,,,,,,,,,,5f511be28ba7012e8c040f50,2020-11-27_12h06.35.675,lexical_decision_task_MP_exp2,2020.2.5,Win32,60,z,1,,,,,,,,0.667045,1,,,,,,411,NW,"ID",16,orchin,ORCHIN,z,0.667045,,,,,,-0.016666667,-0.238888889,0,0,0,,0,223,223,350,1,,
,,,,,,,,,,,,,,,,,,5f511be28ba7012e8c040f50,2020-11-27_12h06.35.675,lexical_decision_task_MP_exp2,2020.2.5,Win32,60,z,0,,,,,,,,1.14608,0,,,,,,141,WORD,"ID",16,orphan,ORPHAN,m,1.14608,,,,,,-0.016666667,-0.238888889,0,0,0,,0,224,224,80,1,,
,,,,,,,,,,,,,,,,,,5f511be28ba7012e8c040f50,2020-11-27_12h06.35.675,lexical_decision_task_MP_exp2,2020.2.5,Win32,60,m,0,,,,,,,,1.333495,0,,,,,,392,NW,"ID",16,rouncy,ROUNCY,z,1.333495,,,,,,-0.016666667,-0.238888889,0,0,0,,0,225,225,331,1,,
,,,,,,,,,,,,,,,,,,5f511be28ba7012e8c040f50,2020-11-27_12h06.35.675,lexical_decision_task_MP_exp2,2020.2.5,Win32,60,m,1,,,,,,,,0.6207,1,,,,,,80,WORD,"ID",33,family,FAMILY,m,0.6207,,,,,,-0.016666667,-0.238888889,0,0,0,,0,226,226,19,1,,
,,,,,,,,,,,,,,,,,,5f511be28ba7012e8c040f50,2020-11-27_12h06.35.675,lexical_decision_task_MP_exp2,2020.2.5,Win32,60,m,1,,,,,,,,1.41035,1,,,,,,139,WORD,"ID",16,debris,DEBRIS,m,1.41035,,,,,,-0.016666667,-0.238888889,0,0,0,,0,227,227,78,1,,
,,,,,,,,,,,,,,,,,,5f511be28ba7012e8c040f50,2020-11-27_12h06.35.675,lexical_decision_task_MP_exp2,2020.2.5,Win32,60,m,1,,,,,,,,0.566685,1,,,,,,174,WORD,"ID",16,turkey,TURKEY,m,0.566685,,,,,,-0.016666667,-0.238888889,0,0,0,,0,228,228,113,1,,
,,,,,,,,,,,,,,,,,,5f511be28ba7012e8c040f50,2020-11-27_12h06.35.675,lexical_decision_task_MP_exp2,2020.2.5,Win32,60,m,0,,,,,,,,0.96748,0,,,,,,421,NW,UN,33,alcoud,KNISMA,z,0.96748,,,,,,-0.016666667,-0.238888889,0,0,0,,0,229,229,360,1,,
,,,,,,,,,,,,,,,,,,5f511be28ba7012e8c040f50,2020-11-27_12h06.35.675,lexical_decision_task_MP_exp2,2020.2.5,Win32,60,z,1,,,,,,,,0.792295,1,,,,,,348,NW,"ID",33,dumple,DUMPLE,z,0.792295,,,,,,-0.016666667,-0.238888889,0,0,0,,0,230,230,287,1,,
,,,,,,,,,,,,,,,,,,5f511be28ba7012e8c040f50,2020-11-27_12h06.35.675,lexical_decision_task_MP_exp2,2020.2.5,Win32,60,z,1,,,,,,,,0.700145,1,,,,,,404,NW,"ID",16,cluirm,CLUIRM,z,0.700145,,,,,,-0.016666667,-0.238888889,0,0,0,,0,231,231,343,1,,
,,,,,,,,,,,,,,,,,,5f511be28ba7012e8c040f50,2020-11-27_12h06.35.675,lexical_decision_task_MP_exp2,2020.2.5,Win32,60,z,1,,,,,,,,0.766755,1,,,,,,241,NW,UN,16,unwert,SMENCO,z,0.766755,,,,,,-0.016666667,-0.238888889,0,0,0,,0,232,232,420,1,,
,,,,,,,,,,,,,,,,,,5f511be28ba7012e8c040f50,2020-11-27_12h06.35.675,lexical_decision_task_MP_exp2,2020.2.5,Win32,60,z,1,,,,,,,,0.729305,1,,,,,,268,NW,UN,16,orchet,PACKES,z,0.729305,,,,,,-0.016666667,-0.238888889,0,0,0,,0,233,233,447,1,,
,,,,,,,,,,,,,,,,,,5f511be28ba7012e8c040f50,2020-11-27_12h06.35.675,lexical_decision_task_MP_exp2,2020.2.5,Win32,60,m,1,,,,,,,,0.535045,1,,,,,,21,WORD,UN,16,jockey,SIMPLE,m,0.535045,,,,,,-0.016666667,-0.238888889,0,0,0,,0,234,234,200,1,,
,,,,,,,,,,,,,,,,,,5f511be28ba7012e8c040f50,2020-11-27_12h06.35.675,lexical_decision_task_MP_exp2,2020.2.5,Win32,60,z,1,,,,,,,,1.05204,1,,,,,,336,NW,"ID",33,ghodus,GHODUS,z,1.05204,,,,,,-0.016666667,-0.238888889,0,0,0,,0,235,235,275,1,,
,,,,,,,,,,,,,,,,,,5f511be28ba7012e8c040f50,2020-11-27_12h06.35.675,lexical_decision_task_MP_exp2,2020.2.5,Win32,60,z,1,,,,,,,,0.67142,1,,,,,,288,NW,UN,16,starby,YACEUP,z,0.67142,,,,,,-0.016666667,-0.238888889,0,0,0,,0,236,236,467,1,,
,,,,,,,,,,,,,,,,,,5f511be28ba7012e8c040f50,2020-11-27_12h06.35.675,lexical_decision_task_MP_exp2,2020.2.5,Win32,60,m,0,,,,,,,,1.594145,0,,,,,,442,NW,UN,33,dorsex,ABOUNE,z,1.594145,,,,,,-0.016666667,-0.238888889,0,0,0,,0,237,237,381,1,,
,,,,,,,,,,,,,,,,,,5f511be28ba7012e8c040f50,2020-11-27_12h06.35.675,lexical_decision_task_MP_exp2,2020.2.5,Win32,60,m,1,,,,,,,,0.629395,1,,,,,,207,WORD,UN,33,hockey,WREATH,m,0.629395,,,,,,-0.016666667,-0.238888889,0,0,0,,0,238,238,146,1,,
,,,,,,,,,,,,,,,,,,5f511be28ba7012e8c040f50,2020-11-27_12h06.35.675,lexical_decision_task_MP_exp2,2020.2.5,Win32,60,z,1,,,,,,,,0.73848,1,,,,,,355,NW,"ID",33,zingly,ZINGLY,z,0.73848,,,,,,-0.016666667,-0.238888889,0,0,0,,0,239,239,294,1,,
,,,,,,,,,,,,,,,,,,5f511be28ba7012e8c040f50,2020-11-27_12h06.35.675,lexical_decision_task_MP_exp2,2020.2.5,Win32,60,m,1,,,,,,,,1.026045,1,,,,,,238,WORD,UN,33,behalf,FLOWER,m,1.026045,,,,,,-0.016666667,-0.238888889,0,0,0,,0,240,240,177,1,,
,,,,,,,,,,,,,,,,,,5f511be28ba7012e8c040f50,2020-11-27_12h06.35.675,lexical_decision_task_MP_exp2,2020.2.5,Win32,60,m,1,,,,,,,,1.08337,1,,,,,,131,WORD,"ID",16,quench,QUENCH,m,1.08337,,,,,,-0.016666667,-0.238888889,0,0,0,space,0,241,241,70,1,,6.89968
,,,,,,,,,,,,,,,,,,5f511be28ba7012e8c040f50,2020-11-27_12h06.35.675,lexical_decision_task_MP_exp2,2020.2.5,Win32,60,m,1,,,,,,,,1.01685,1,,,,,,212,WORD,UN,33,squeal,VERIFY,m,1.01685,,,,,,-0.016666667,-0.238888889,0,0,0,,0,242,242,151,1,,
,,,,,,,,,,,,,,,,,,5f511be28ba7012e8c040f50,2020-11-27_12h06.35.675,lexical_decision_task_MP_exp2,2020.2.5,Win32,60,z,1,,,,,,,,1.16729,1,,,,,,420,NW,"ID",16,gushop,GUSHOP,z,1.16729,,,,,,-0.016666667,-0.238888889,0,0,0,,0,243,243,359,1,,
,,,,,,,,,,,,,,,,,,5f511be28ba7012e8c040f50,2020-11-27_12h06.35.675,lexical_decision_task_MP_exp2,2020.2.5,Win32,60,m,1,,,,,,,,0.67403,1,,,,,,228,WORD,UN,33,kidney,MASTER,m,0.67403,,,,,,-0.016666667,-0.238888889,0,0,0,,0,244,244,167,1,,
,,,,,,,,,,,,,,,,,,5f511be28ba7012e8c040f50,2020-11-27_12h06.35.675,lexical_decision_task_MP_exp2,2020.2.5,Win32,60,z,1,,,,,,,,0.65496,1,,,,,,351,NW,"ID",33,tiesch,TIESCH,z,0.65496,,,,,,-0.016666667,-0.238888889,0,0,0,,0,245,245,290,1,,
,,,,,,,,,,,,,,,,,,5f511be28ba7012e8c040f50,2020-11-27_12h06.35.675,lexical_decision_task_MP_exp2,2020.2.5,Win32,60,m,1,,,,,,,,0.633515,1,,,,,,75,WORD,"ID",33,trophy,TROPHY,m,0.633515,,,,,,-0.016666667,-0.238888889,0,0,0,,0,246,246,14,1,,
,,,,,,,,,,,,,,,,,,5f511be28ba7012e8c040f50,2020-11-27_12h06.35.675,lexical_decision_task_MP_exp2,2020.2.5,Win32,60,m,1,,,,,,,,1.02428,1,,,,,,230,WORD,UN,33,mother,FRINGE,m,1.02428,,,,,,-0.016666667,-0.238888889,0,0,0,,0,247,247,169,1,,
,,,,,,,,,,,,,,,,,,5f511be28ba7012e8c040f50,2020-11-27_12h06.35.675,lexical_decision_task_MP_exp2,2020.2.5,Win32,60,z,1,,,,,,,,0.794865,1,,,,,,453,NW,UN,33,scouge,BOLVIS,z,0.794865,,,,,,-0.016666667,-0.238888889,0,0,0,,0,248,248,392,1,,
,,,,,,,,,,,,,,,,,,5f511be28ba7012e8c040f50,2020-11-27_12h06.35.675,lexical_decision_task_MP_exp2,2020.2.5,Win32,60,m,1,,,,,,,,0.59437,1,,,,,,145,WORD,"ID",16,parish,PARISH,m,0.59437,,,,,,-0.016666667,-0.238888889,0,0,0,,0,249,249,84,1,,
,,,,,,,,,,,,,,,,,,5f511be28ba7012e8c040f50,2020-11-27_12h06.35.675,lexical_decision_task_MP_exp2,2020.2.5,Win32,60,m,1,,,,,,,,0.722965,1,,,,,,15,WORD,UN,16,faucet,AMOUNT,m,0.722965,,,,,,-0.016666667,-0.238888889,0,0,0,,0,250,250,194,1,,
,,,,,,,,,,,,,,,,,,5f511be28ba7012e8c040f50,2020-11-27_12h06.35.675,lexical_decision_task_MP_exp2,2020.2.5,Win32,60,z,0,,,,,,,,0.65066,0,,,,,,198,WORD,UN,33,invoke,WICKED,m,0.65066,,,,,,-0.016666667,-0.238888889,0,0,0,,0,251,251,137,1,,
,,,,,,,,,,,,,,,,,,5f511be28ba7012e8c040f50,2020-11-27_12h06.35.675,lexical_decision_task_MP_exp2,2020.2.5,Win32,60,m,0,,,,,,,,1.28712,0,,,,,,456,NW,UN,33,wanigh,BROGET,z,1.28712,,,,,,-0.016666667,-0.238888889,0,0,0,,0,252,252,395,1,,
,,,,,,,,,,,,,,,,,,5f511be28ba7012e8c040f50,2020-11-27_12h06.35.675,lexical_decision_task_MP_exp2,2020.2.5,Win32,60,z,1,,,,,,,,1.05111,1,,,,,,274,NW,UN,16,sleirt,FUMBLO,z,1.05111,,,,,,-0.016666667,-0.238888889,0,0,0,,0,253,253,453,1,,
,,,,,,,,,,,,,,,,,,5f511be28ba7012e8c040f50,2020-11-27_12h06.35.675,lexical_decision_task_MP_exp2,2020.2.5,Win32,60,m,0,,,,,,,,1.28348,0,,,,,,260,NW,UN,16,stunch,UNJECT,z,1.28348,,,,,,-0.016666667,-0.238888889,0,0,0,,0,254,254,439,1,,
,,,,,,,,,,,,,,,,,,5f511be28ba7012e8c040f50,2020-11-27_12h06.35.675,lexical_decision_task_MP_exp2,2020.2.5,Win32,60,m,0,,,,,,,,1.266845,0,,,,,,345,NW,"ID",33,absend,ABSEND,z,1.266845,,,,,,-0.016666667,-0.238888889,0,0,0,,0,255,255,284,1,,
,,,,,,,,,,,,,,,,,,5f511be28ba7012e8c040f50,2020-11-27_12h06.35.675,lexical_decision_task_MP_exp2,2020.2.5,Win32,60,m,0,,,,,,,,1.6866,0,,,,,,374,NW,"ID",16,sliant,SLIANT,z,1.6866,,,,,,-0.016666667,-0.238888889,0,0,0,,0,256,256,313,1,,
,,,,,,,,,,,,,,,,,,5f511be28ba7012e8c040f50,2020-11-27_12h06.35.675,lexical_decision_task_MP_exp2,2020.2.5,Win32,60,m,1,,,,,,,,0.78337,1,,,,,,29,WORD,UN,16,orient,SKETCH,m,0.78337,,,,,,-0.016666667,-0.238888889,0,0,0,,0,257,257,208,1,,
,,,,,,,,,,,,,,,,,,5f511be28ba7012e8c040f50,2020-11-27_12h06.35.675,lexical_decision_task_MP_exp2,2020.2.5,Win32,60,z,1,,,,,,,,1.017385,1,,,,,,315,NW,"ID",33,laston,LASTON,z,1.017385,,,,,,-0.016666667,-0.238888889,0,0,0,,0,258,258,254,1,,
,,,,,,,,,,,,,,,,,,5f511be28ba7012e8c040f50,2020-11-27_12h06.35.675,lexical_decision_task_MP_exp2,2020.2.5,Win32,60,m,0,,,,,,,,0.61917,0,,,,,,449,NW,UN,33,phrect,BRUNGE,z,0.61917,,,,,,-0.016666667,-0.238888889,0,0,0,,0,259,259,388,1,,
,,,,,,,,,,,,,,,,,,5f511be28ba7012e8c040f50,2020-11-27_12h06.35.675,lexical_decision_task_MP_exp2,2020.2.5,Win32,60,m,1,,,,,,,,1.63344,1,,,,,,128,WORD,"ID",16,senior,SENIOR,m,1.63344,,,,,,-0.016666667,-0.238888889,0,0,0,,0,260,260,67,1,,
,,,,,,,,,,,,,,,,,,5f511be28ba7012e8c040f50,2020-11-27_12h06.35.675,lexical_decision_task_MP_exp2,2020.2.5,Win32,60,z,1,,,,,,,,1.346875,1,,,,,,244,NW,UN,16,anougs,EATRIC,z,1.346875,,,,,,-0.016666667,-0.238888889,0,0,0,,0,261,261,423,1,,
,,,,,,,,,,,,,,,,,,5f511be28ba7012e8c040f50,2020-11-27_12h06.35.675,lexical_decision_task_MP_exp2,2020.2.5,Win32,60,,0,,,,,,,,1.346875,-1,,,,,,389,NW,"ID",16,witmer,WITMER,z,,,,,,,-0.016666667,-0.238888889,0,0,0,,0,262,262,328,1,,
,,,,,,,,,,,,,,,,,,5f511be28ba7012e8c040f50,2020-11-27_12h06.35.675,lexical_decision_task_MP_exp2,2020.2.5,Win32,60,z,1,,,,,,,,1.00134,1,,,,,,252,NW,UN,16,resait,STAPOD,z,1.00134,,,,,,-0.016666667,-0.238888889,0,0,0,,0,263,263,431,1,,
,,,,,,,,,,,,,,,,,,5f511be28ba7012e8c040f50,2020-11-27_12h06.35.675,lexical_decision_task_MP_exp2,2020.2.5,Win32,60,m,1,,,,,,,,0.86139,1,,,,,,27,WORD,UN,16,comedy,SCREAM,m,0.86139,,,,,,-0.016666667,-0.238888889,0,0,0,,0,264,264,206,1,,
,,,,,,,,,,,,,,,,,,5f511be28ba7012e8c040f50,2020-11-27_12h06.35.675,lexical_decision_task_MP_exp2,2020.2.5,Win32,60,m,1,,,,,,,,0.643765,1,,,,,,31,WORD,UN,16,buckle,WEAPON,m,0.643765,,,,,,-0.016666667,-0.238888889,0,0,0,,0,265,265,210,1,,
,,,,,,,,,,,,,,,,,,5f511be28ba7012e8c040f50,2020-11-27_12h06.35.675,lexical_decision_task_MP_exp2,2020.2.5,Win32,60,z,0,,,,,,,,0.860775,0,,,,,,61,WORD,"ID",33,ponder,PONDER,m,0.860775,,,,,,-0.016666667,-0.238888889,0,0,0,,0,266,266,0,1,,
,,,,,,,,,,,,,,,,,,5f511be28ba7012e8c040f50,2020-11-27_12h06.35.675,lexical_decision_task_MP_exp2,2020.2.5,Win32,60,m,1,,,,,,,,0.604235,1,,,,,,119,WORD,"ID",33,spider,SPIDER,m,0.604235,,,,,,-0.016666667,-0.238888889,0,0,0,,0,267,267,58,1,,
,,,,,,,,,,,,,,,,,,5f511be28ba7012e8c040f50,2020-11-27_12h06.35.675,lexical_decision_task_MP_exp2,2020.2.5,Win32,60,m,1,,,,,,,,0.841635,1,,,,,,64,WORD,"ID",33,throne,THRONE,m,0.841635,,,,,,-0.016666667,-0.238888889,0,0,0,,0,268,268,3,1,,
,,,,,,,,,,,,,,,,,,5f511be28ba7012e8c040f50,2020-11-27_12h06.35.675,lexical_decision_task_MP_exp2,2020.2.5,Win32,60,m,1,,,,,,,,0.74466,1,,,,,,180,WORD,"ID",16,silent,SILENT,m,0.74466,,,,,,-0.016666667,-0.238888889,0,0,0,,0,269,269,119,1,,
,,,,,,,,,,,,,,,,,,5f511be28ba7012e8c040f50,2020-11-27_12h06.35.675,lexical_decision_task_MP_exp2,2020.2.5,Win32,60,z,1,,,,,,,,0.81737,1,,,,,,272,NW,UN,16,sortel,DAMILT,z,0.81737,,,,,,-0.016666667,-0.238888889,0,0,0,,0,270,270,451,1,,
,,,,,,,,,,,,,,,,,,5f511be28ba7012e8c040f50,2020-11-27_12h06.35.675,lexical_decision_task_MP_exp2,2020.2.5,Win32,60,m,1,,,,,,,,0.601745,1,,,,,,171,WORD,"ID",16,depart,DEPART,m,0.601745,,,,,,-0.016666667,-0.238888889,0,0,0,,0,271,271,110,1,,
,,,,,,,,,,,,,,,,,,5f511be28ba7012e8c040f50,2020-11-27_12h06.35.675,lexical_decision_task_MP_exp2,2020.2.5,Win32,60,,0,,,,,,,,0.601745,-1,,,,,,393,NW,"ID",16,ganous,GANOUS,z,,,,,,,-0.016666667,-0.238888889,0,0,0,,0,272,272,332,1,,
,,,,,,,,,,,,,,,,,,5f511be28ba7012e8c040f50,2020-11-27_12h06.35.675,lexical_decision_task_MP_exp2,2020.2.5,Win32,60,m,1,,,,,,,,0.77695,1,,,,,,191,WORD,UN,33,beacon,STABLE,m,0.77695,,,,,,-0.016666667,-0.238888889,0,0,0,,0,273,273,130,1,,
,,,,,,,,,,,,,,,,,,5f511be28ba7012e8c040f50,2020-11-27_12h06.35.675,lexical_decision_task_MP_exp2,2020.2.5,Win32,60,m,0,,,,,,,,1.202875,0,,,,,,335,NW,"ID",33,desion,DESION,z,1.202875,,,,,,-0.016666667,-0.238888889,0,0,0,,0,274,274,274,1,,
,,,,,,,,,,,,,,,,,,5f511be28ba7012e8c040f50,2020-11-27_12h06.35.675,lexical_decision_task_MP_exp2,2020.2.5,Win32,60,m,1,,,,,,,,0.652205,1,,,,,,30,WORD,UN,16,weapon,ORIENT,m,0.652205,,,,,,-0.016666667,-0.238888889,0,0,0,,0,275,275,209,1,,
,,,,,,,,,,,,,,,,,,5f511be28ba7012e8c040f50,2020-11-27_12h06.35.675,lexical_decision_task_MP_exp2,2020.2.5,Win32,60,z,1,,,,,,,,1.140215,1,,,,,,365,NW,"ID",16,guairt,GUAIRT,z,1.140215,,,,,,-0.016666667,-0.238888889,0,0,0,,0,276,276,304,1,,
,,,,,,,,,,,,,,,,,,5f511be28ba7012e8c040f50,2020-11-27_12h06.35.675,lexical_decision_task_MP_exp2,2020.2.5,Win32,60,z,1,,,,,,,,0.95702,1,,,,,,402,NW,"ID",16,syntic,SYNTIC,z,0.95702,,,,,,-0.016666667,-0.238888889,0,0,0,,0,277,277,341,1,,
,,,,,,,,,,,,,,,,,,5f511be28ba7012e8c040f50,2020-11-27_12h06.35.675,lexical_decision_task_MP_exp2,2020.2.5,Win32,60,m,1,,,,,,,,0.821075,1,,,,,,91,WORD,"ID",33,expand,EXPAND,m,0.821075,,,,,,-0.016666667,-0.238888889,0,0,0,,0,278,278,30,1,,
,,,,,,,,,,,,,,,,,,5f511be28ba7012e8c040f50,2020-11-27_12h06.35.675,lexical_decision_task_MP_exp2,2020.2.5,Win32,60,z,1,,,,,,,,1.57776,1,,,,,,267,NW,UN,16,packes,PASINK,z,1.57776,,,,,,-0.016666667,-0.238888889,0,0,0,,0,279,279,446,1,,
,,,,,,,,,,,,,,,,,,5f511be28ba7012e8c040f50,2020-11-27_12h06.35.675,lexical_decision_task_MP_exp2,2020.2.5,Win32,60,z,0,,,,,,,,0.702405,0,,,,,,181,WORD,UN,33,winter,GLANCE,m,0.702405,,,,,,-0.016666667,-0.238888889,0,0,0,,0,280,280,120,1,,
,,,,,,,,,,,,,,,,,,5f511be28ba7012e8c040f50,2020-11-27_12h06.35.675,lexical_decision_task_MP_exp2,2020.2.5,Win32,60,m,0,,,,,,,,1.83895,0,,,,,,328,NW,"ID",33,broake,BROAKE,z,1.83895,,,,,,-0.016666667,-0.238888889,0,0,0,,0,281,281,267,1,,
,,,,,,,,,,,,,,,,,,5f511be28ba7012e8c040f50,2020-11-27_12h06.35.675,lexical_decision_task_MP_exp2,2020.2.5,Win32,60,m,1,,,,,,,,0.683425,1,,,,,,37,WORD,UN,16,powder,INSULT,m,0.683425,,,,,,-0.016666667,-0.238888889,0,0,0,,0,282,282,216,1,,
,,,,,,,,,,,,,,,,,,5f511be28ba7012e8c040f50,2020-11-27_12h06.35.675,lexical_decision_task_MP_exp2,2020.2.5,Win32,60,m,1,,,,,,,,0.890005,1,,,,,,110,WORD,"ID",33,polite,POLITE,m,0.890005,,,,,,-0.016666667,-0.238888889,0,0,0,,0,283,283,49,1,,
,,,,,,,,,,,,,,,,,,5f511be28ba7012e8c040f50,2020-11-27_12h06.35.675,lexical_decision_task_MP_exp2,2020.2.5,Win32,60,m,1,,,,,,,,0.94248,1,,,,,,58,WORD,UN,16,splint,FOSTER,m,0.94248,,,,,,-0.016666667,-0.238888889,0,0,0,,0,284,284,237,1,,
,,,,,,,,,,,,,,,,,,5f511be28ba7012e8c040f50,2020-11-27_12h06.35.675,lexical_decision_task_MP_exp2,2020.2.5,Win32,60,,0,,,,,,,,0.94248,-1,,,,,,249,NW,UN,16,milted,BATROL,z,,,,,,,-0.016666667,-0.238888889,0,0,0,,0,285,285,428,1,,
,,,,,,,,,,,,,,,,,,5f511be28ba7012e8c040f50,2020-11-27_12h06.35.675,lexical_decision_task_MP_exp2,2020.2.5,Win32,60,z,1,,,,,,,,0.90643,1,,,,,,270,NW,UN,16,aubrid,WRIMSY,z,0.90643,,,,,,-0.016666667,-0.238888889,0,0,0,,0,286,286,449,1,,
,,,,,,,,,,,,,,,,,,5f511be28ba7012e8c040f50,2020-11-27_12h06.35.675,lexical_decision_task_MP_exp2,2020.2.5,Win32,60,m,1,,,,,,,,0.888845,1,,,,,,188,WORD,UN,33,censor,SOCIAL,m,0.888845,,,,,,-0.016666667,-0.238888889,0,0,0,,0,287,287,127,1,,
,,,,,,,,,,,,,,,,,,5f511be28ba7012e8c040f50,2020-11-27_12h06.35.675,lexical_decision_task_MP_exp2,2020.2.5,Win32,60,z,1,,,,,,,,1.550135,1,,,,,,464,NW,UN,33,whivex,CHAITE,z,1.550135,,,,,,-0.016666667,-0.238888889,0,0,0,,0,288,288,403,1,,
,,,,,,,,,,,,,,,,,,5f511be28ba7012e8c040f50,2020-11-27_12h06.35.675,lexical_decision_task_MP_exp2,2020.2.5,Win32,60,z,1,,,,,,,,0.820745,1,,,,,,477,NW,UN,33,lobush,PHOTIE,z,0.820745,,,,,,-0.016666667,-0.238888889,0,0,0,,0,289,289,416,1,,
,,,,,,,,,,,,,,,,,,5f511be28ba7012e8c040f50,2020-11-27_12h06.35.675,lexical_decision_task_MP_exp2,2020.2.5,Win32,60,m,1,,,,,,,,0.778385,1,,,,,,155,WORD,"ID",16,lizard,LIZARD,m,0.778385,,,,,,-0.016666667,-0.238888889,0,0,0,,0,290,290,94,1,,
,,,,,,,,,,,,,,,,,,5f511be28ba7012e8c040f50,2020-11-27_12h06.35.675,lexical_decision_task_MP_exp2,2020.2.5,Win32,60,m,1,,,,,,,,1.11168,1,,,,,,89,WORD,"ID",33,permit,PERMIT,m,1.11168,,,,,,-0.016666667,-0.238888889,0,0,0,,0,291,291,28,1,,
,,,,,,,,,,,,,,,,,,5f511be28ba7012e8c040f50,2020-11-27_12h06.35.675,lexical_decision_task_MP_exp2,2020.2.5,Win32,60,,0,,,,,,,,1.11168,-1,,,,,,332,NW,"ID",33,vangue,VANGUE,z,,,,,,,-0.016666667,-0.238888889,0,0,0,,0,292,292,271,1,,
,,,,,,,,,,,,,,,,,,5f511be28ba7012e8c040f50,2020-11-27_12h06.35.675,lexical_decision_task_MP_exp2,2020.2.5,Win32,60,m,0,,,,,,,,0.684505,0,,,,,,417,NW,"ID",16,earoud,EAROUD,z,0.684505,,,,,,-0.016666667,-0.238888889,0,0,0,,0,293,293,356,1,,
,,,,,,,,,,,,,,,,,,5f511be28ba7012e8c040f50,2020-11-27_12h06.35.675,lexical_decision_task_MP_exp2,2020.2.5,Win32,60,m,0,,,,,,,,0.70624,0,,,,,,307,NW,"ID",33,kirafe,KIRAFE,z,0.70624,,,,,,-0.016666667,-0.238888889,0,0,0,,0,294,294,246,1,,
,,,,,,,,,,,,,,,,,,5f511be28ba7012e8c040f50,2020-11-27_12h06.35.675,lexical_decision_task_MP_exp2,2020.2.5,Win32,60,m,1,,,,,,,,0.741935,1,,,,,,86,WORD,"ID",33,rodent,RODENT,m,0.741935,,,,,,-0.016666667,-0.238888889,0,0,0,,0,295,295,25,1,,
,,,,,,,,,,,,,,,,,,5f511be28ba7012e8c040f50,2020-11-27_12h06.35.675,lexical_decision_task_MP_exp2,2020.2.5,Win32,60,m,1,,,,,,,,0.589275,1,,,,,,46,WORD,UN,16,income,SINGLE,m,0.589275,,,,,,-0.016666667,-0.238888889,0,0,0,,0,296,296,225,1,,
,,,,,,,,,,,,,,,,,,5f511be28ba7012e8c040f50,2020-11-27_12h06.35.675,lexical_decision_task_MP_exp2,2020.2.5,Win32,60,z,1,,,,,,,,0.80452,1,,,,,,291,NW,UN,16,ablint,PRETCH,z,0.80452,,,,,,-0.016666667,-0.238888889,0,0,0,,0,297,297,470,1,,
,,,,,,,,,,,,,,,,,,5f511be28ba7012e8c040f50,2020-11-27_12h06.35.675,lexical_decision_task_MP_exp2,2020.2.5,Win32,60,m,1,,,,,,,,1.24035,1,,,,,,236,WORD,UN,33,grumpy,PIRATE,m,1.24035,,,,,,-0.016666667,-0.238888889,0,0,0,,0,298,298,175,1,,
,,,,,,,,,,,,,,,,,,5f511be28ba7012e8c040f50,2020-11-27_12h06.35.675,lexical_decision_task_MP_exp2,2020.2.5,Win32,60,m,1,,,,,,,,0.81246,1,,,,,,199,WORD,UN,33,plague,INVOKE,m,0.81246,,,,,,-0.016666667,-0.238888889,0,0,0,,0,299,299,138,1,,
,,,,,,,,,,,,,,,,,,5f511be28ba7012e8c040f50,2020-11-27_12h06.35.675,lexical_decision_task_MP_exp2,2020.2.5,Win32,60,m,1,,,,,,,,1.085825,1,,,,,,114,WORD,"ID",33,placid,PLACID,m,1.085825,,,,,,-0.016666667,-0.238888889,0,0,0,,0,300,300,53,1,,
,,,,,,,,,,,,,,,,,,5f511be28ba7012e8c040f50,2020-11-27_12h06.35.675,lexical_decision_task_MP_exp2,2020.2.5,Win32,60,m,0,,,,,,,,1.57984,0,,,,,,364,NW,"ID",16,impote,IMPOTE,z,1.57984,,,,,,-0.016666667,-0.238888889,0,0,0,,0,301,301,303,1,,
,,,,,,,,,,,,,,,,,,5f511be28ba7012e8c040f50,2020-11-27_12h06.35.675,lexical_decision_task_MP_exp2,2020.2.5,Win32,60,z,1,,,,,,,,1.53564,1,,,,,,363,NW,"ID",16,breali,BREALI,z,1.53564,,,,,,-0.016666667,-0.238888889,0,0,0,,0,302,302,302,1,,
,,,,,,,,,,,,,,,,,,5f511be28ba7012e8c040f50,2020-11-27_12h06.35.675,lexical_decision_task_MP_exp2,2020.2.5,Win32,60,m,1,,,,,,,,0.592175,1,,,,,,123,WORD,"ID",16,strike,STRIKE,m,0.592175,,,,,,-0.016666667,-0.238888889,0,0,0,,0,303,303,62,1,,
,,,,,,,,,,,,,,,,,,5f511be28ba7012e8c040f50,2020-11-27_12h06.35.675,lexical_decision_task_MP_exp2,2020.2.5,Win32,60,z,1,,,,,,,,0.74473,1,,,,,,423,NW,UN,33,praile,STRELD,z,0.74473,,,,,,-0.016666667,-0.238888889,0,0,0,,0,304,304,362,1,,
,,,,,,,,,,,,,,,,,,5f511be28ba7012e8c040f50,2020-11-27_12h06.35.675,lexical_decision_task_MP_exp2,2020.2.5,Win32,60,z,1,,,,,,,,0.74066,1,,,,,,269,NW,UN,16,wrimsy,ORCHET,z,0.74066,,,,,,-0.016666667,-0.238888889,0,0,0,,0,305,305,448,1,,
,,,,,,,,,,,,,,,,,,5f511be28ba7012e8c040f50,2020-11-27_12h06.35.675,lexical_decision_task_MP_exp2,2020.2.5,Win32,60,z,1,,,,,,,,0.709435,1,,,,,,331,NW,"ID",33,gilfew,GILFEW,z,0.709435,,,,,,-0.016666667,-0.238888889,0,0,0,,0,306,306,270,1,,
,,,,,,,,,,,,,,,,,,5f511be28ba7012e8c040f50,2020-11-27_12h06.35.675,lexical_decision_task_MP_exp2,2020.2.5,Win32,60,m,1,,,,,,,,0.556095,1,,,,,,151,WORD,"ID",16,mystic,MYSTIC,m,0.556095,,,,,,-0.016666667,-0.238888889,0,0,0,,0,307,307,90,1,,
,,,,,,,,,,,,,,,,,,5f511be28ba7012e8c040f50,2020-11-27_12h06.35.675,lexical_decision_task_MP_exp2,2020.2.5,Win32,60,z,1,,,,,,,,1.353545,1,,,,,,469,NW,UN,33,crudio,PADIFS,z,1.353545,,,,,,-0.016666667,-0.238888889,0,0,0,,0,308,308,408,1,,
,,,,,,,,,,,,,,,,,,5f511be28ba7012e8c040f50,2020-11-27_12h06.35.675,lexical_decision_task_MP_exp2,2020.2.5,Win32,60,z,0,,,,,,,,1.423015,0,,,,,,221,WORD,UN,33,hinder,MASCOT,m,1.423015,,,,,,-0.016666667,-0.238888889,0,0,0,,0,309,309,160,1,,
,,,,,,,,,,,,,,,,,,5f511be28ba7012e8c040f50,2020-11-27_12h06.35.675,lexical_decision_task_MP_exp2,2020.2.5,Win32,60,z,1,,,,,,,,0.80002,1,,,,,,371,NW,"ID",16,geiloy,GEILOY,z,0.80002,,,,,,-0.016666667,-0.238888889,0,0,0,,0,310,310,310,1,,
,,,,,,,,,,,,,,,,,,5f511be28ba7012e8c040f50,2020-11-27_12h06.35.675,lexical_decision_task_MP_exp2,2020.2.5,Win32,60,z,1,,,,,,,,0.73695,1,,,,,,480,NW,UN,33,knisma,ROBULY,z,0.73695,,,,,,-0.016666667,-0.238888889,0,0,0,,0,311,311,419,1,,
,,,,,,,,,,,,,,,,,,5f511be28ba7012e8c040f50,2020-11-27_12h06.35.675,lexical_decision_task_MP_exp2,2020.2.5,Win32,60,m,0,,,,,,,,1.30308,0,,,,,,470,NW,UN,33,nobest,CRUDIO,z,1.30308,,,,,,-0.016666667,-0.238888889,0,0,0,,0,312,312,409,1,,
,,,,,,,,,,,,,,,,,,5f511be28ba7012e8c040f50,2020-11-27_12h06.35.675,lexical_decision_task_MP_exp2,2020.2.5,Win32,60,m,0,,,,,,,,1.318475,0,,,,,,253,NW,UN,16,varosh,RESAIT,z,1.318475,,,,,,-0.016666667,-0.238888889,0,0,0,,0,313,313,432,1,,
,,,,,,,,,,,,,,,,,,5f511be28ba7012e8c040f50,2020-11-27_12h06.35.675,lexical_decision_task_MP_exp2,2020.2.5,Win32,60,m,1,,,,,,,,1.354135,1,,,,,,161,WORD,"ID",16,pastor,PASTOR,m,1.354135,,,,,,-0.016666667,-0.238888889,0,0,0,,0,314,314,100,1,,
,,,,,,,,,,,,,,,,,,5f511be28ba7012e8c040f50,2020-11-27_12h06.35.675,lexical_decision_task_MP_exp2,2020.2.5,Win32,60,z,1,,,,,,,,0.833495,1,,,,,,321,NW,"ID",33,miator,MIATOR,z,0.833495,,,,,,-0.016666667,-0.238888889,0,0,0,,0,315,315,260,1,,
,,,,,,,,,,,,,,,,,,5f511be28ba7012e8c040f50,2020-11-27_12h06.35.675,lexical_decision_task_MP_exp2,2020.2.5,Win32,60,z,0,,,,,,,,1.47598,0,,,,,,184,WORD,UN,33,bother,SLEAZY,m,1.47598,,,,,,-0.016666667,-0.238888889,0,0,0,,0,316,316,123,1,,
,,,,,,,,,,,,,,,,,,5f511be28ba7012e8c040f50,2020-11-27_12h06.35.675,lexical_decision_task_MP_exp2,2020.2.5,Win32,60,,0,,,,,,,,1.47598,-1,,,,,,399,NW,"ID",16,fouret,FOURET,z,,,,,,,-0.016666667,-0.238888889,0,0,0,,0,317,317,338,1,,
,,,,,,,,,,,,,,,,,,5f511be28ba7012e8c040f50,2020-11-27_12h06.35.675,lexical_decision_task_MP_exp2,2020.2.5,Win32,60,z,1,,,,,,,,1.316795,1,,,,,,343,NW,"ID",33,aimosy,AIMOSY,z,1.316795,,,,,,-0.016666667,-0.238888889,0,0,0,,0,318,318,282,1,,
,,,,,,,,,,,,,,,,,,5f511be28ba7012e8c040f50,2020-11-27_12h06.35.675,lexical_decision_task_MP_exp2,2020.2.5,Win32,60,m,1,,,,,,,,0.884355,1,,,,,,135,WORD,"ID",16,import,IMPORT,m,0.884355,,,,,,-0.016666667,-0.238888889,0,0,0,,0,319,319,74,1,,
,,,,,,,,,,,,,,,,,,5f511be28ba7012e8c040f50,2020-11-27_12h06.35.675,lexical_decision_task_MP_exp2,2020.2.5,Win32,60,m,1,,,,,,,,0.900095,1,,,,,,65,WORD,"ID",33,symbol,SYMBOL,m,0.900095,,,,,,-0.016666667,-0.238888889,0,0,0,,0,320,320,4,1,,
,,,,,,,,,,,,,,,,,,5f511be28ba7012e8c040f50,2020-11-27_12h06.35.675,lexical_decision_task_MP_exp2,2020.2.5,Win32,60,,0,,,,,,,,0.900095,-1,,,,,,298,NW,UN,16,sturch,PIERGY,z,,,,,,,-0.016666667,-0.238888889,0,0,0,,0,321,321,477,1,,
,,,,,,,,,,,,,,,,,,5f511be28ba7012e8c040f50,2020-11-27_12h06.35.675,lexical_decision_task_MP_exp2,2020.2.5,Win32,60,m,1,,,,,,,,0.8598,1,,,,,,194,WORD,UN,33,resign,ABSENT,m,0.8598,,,,,,-0.016666667,-0.238888889,0,0,0,,0,322,322,133,1,,
,,,,,,,,,,,,,,,,,,5f511be28ba7012e8c040f50,2020-11-27_12h06.35.675,lexical_decision_task_MP_exp2,2020.2.5,Win32,60,m,1,,,,,,,,1.49763,1,,,,,,173,WORD,"ID",16,shower,SHOWER,m,1.49763,,,,,,-0.016666667,-0.238888889,0,0,0,,0,323,323,112,1,,
,,,,,,,,,,,,,,,,,,5f511be28ba7012e8c040f50,2020-11-27_12h06.35.675,lexical_decision_task_MP_exp2,2020.2.5,Win32,60,m,0,,,,,,,,0.80274,0,,,,,,344,NW,"ID",33,scrily,SCRILY,z,0.80274,,,,,,-0.016666667,-0.238888889,0,0,0,,0,324,324,283,1,,
,,,,,,,,,,,,,,,,,,5f511be28ba7012e8c040f50,2020-11-27_12h06.35.675,lexical_decision_task_MP_exp2,2020.2.5,Win32,60,m,1,,,,,,,,0.621105,1,,,,,,63,WORD,"ID",33,launch,LAUNCH,m,0.621105,,,,,,-0.016666667,-0.238888889,0,0,0,,0,325,325,2,1,,
,,,,,,,,,,,,,,,,,,5f511be28ba7012e8c040f50,2020-11-27_12h06.35.675,lexical_decision_task_MP_exp2,2020.2.5,Win32,60,z,0,,,,,,,,0.6419,0,,,,,,222,WORD,UN,33,export,HINDER,m,0.6419,,,,,,-0.016666667,-0.238888889,0,0,0,,0,326,326,161,1,,
,,,,,,,,,,,,,,,,,,5f511be28ba7012e8c040f50,2020-11-27_12h06.35.675,lexical_decision_task_MP_exp2,2020.2.5,Win32,60,m,1,,,,,,,,0.541925,1,,,,,,202,WORD,UN,33,phrase,FACTOR,m,0.541925,,,,,,-0.016666667,-0.238888889,0,0,0,,0,327,327,141,1,,
,,,,,,,,,,,,,,,,,,5f511be28ba7012e8c040f50,2020-11-27_12h06.35.675,lexical_decision_task_MP_exp2,2020.2.5,Win32,60,z,1,,,,,,,,0.705935,1,,,,,,475,NW,UN,33,josted,PEBRIC,z,0.705935,,,,,,-0.016666667,-0.238888889,0,0,0,,0,328,328,414,1,,
,,,,,,,,,,,,,,,,,,5f511be28ba7012e8c040f50,2020-11-27_12h06.35.675,lexical_decision_task_MP_exp2,2020.2.5,Win32,60,m,1,,,,,,,,0.780095,1,,,,,,40,WORD,UN,16,spring,CONVEY,m,0.780095,,,,,,-0.016666667,-0.238888889,0,0,0,,0,329,329,219,1,,
,,,,,,,,,,,,,,,,,,5f511be28ba7012e8c040f50,2020-11-27_12h06.35.675,lexical_decision_task_MP_exp2,2020.2.5,Win32,60,m,0,,,,,,,,1.01045,0,,,,,,403,NW,"ID",16,bruats,BRUATS,z,1.01045,,,,,,-0.016666667,-0.238888889,0,0,0,,0,330,330,342,1,,
,,,,,,,,,,,,,,,,,,5f511be28ba7012e8c040f50,2020-11-27_12h06.35.675,lexical_decision_task_MP_exp2,2020.2.5,Win32,60,z,1,,,,,,,,0.784365,1,,,,,,450,NW,UN,33,cainky,PHRECT,z,0.784365,,,,,,-0.016666667,-0.238888889,0,0,0,,0,331,331,389,1,,
,,,,,,,,,,,,,,,,,,5f511be28ba7012e8c040f50,2020-11-27_12h06.35.675,lexical_decision_task_MP_exp2,2020.2.5,Win32,60,m,0,,,,,,,,0.919335,0,,,,,,285,NW,UN,16,reldon,PRUDGE,z,0.919335,,,,,,-0.016666667,-0.238888889,0,0,0,,0,332,332,464,1,,
,,,,,,,,,,,,,,,,,,5f511be28ba7012e8c040f50,2020-11-27_12h06.35.675,lexical_decision_task_MP_exp2,2020.2.5,Win32,60,m,1,,,,,,,,0.541125,1,,,,,,47,WORD,UN,16,walnut,INCOME,m,0.541125,,,,,,-0.016666667,-0.238888889,0,0,0,,0,333,333,226,1,,
,,,,,,,,,,,,,,,,,,5f511be28ba7012e8c040f50,2020-11-27_12h06.35.675,lexical_decision_task_MP_exp2,2020.2.5,Win32,60,m,1,,,,,,,,0.53811,1,,,,,,175,WORD,"ID",16,fabric,FABRIC,m,0.53811,,,,,,-0.016666667,-0.238888889,0,0,0,,0,334,334,114,1,,
,,,,,,,,,,,,,,,,,,5f511be28ba7012e8c040f50,2020-11-27_12h06.35.675,lexical_decision_task_MP_exp2,2020.2.5,Win32,60,z,1,,,,,,,,0.837785,1,,,,,,297,NW,UN,16,piergy,FERTIC,z,0.837785,,,,,,-0.016666667,-0.238888889,0,0,0,,0,335,335,476,1,,
,,,,,,,,,,,,,,,,,,5f511be28ba7012e8c040f50,2020-11-27_12h06.35.675,lexical_decision_task_MP_exp2,2020.2.5,Win32,60,z,1,,,,,,,,0.600135,1,,,,,,276,NW,UN,16,petain,YARMON,z,0.600135,,,,,,-0.016666667,-0.238888889,0,0,0,,0,336,336,455,1,,
,,,,,,,,,,,,,,,,,,5f511be28ba7012e8c040f50,2020-11-27_12h06.35.675,lexical_decision_task_MP_exp2,2020.2.5,Win32,60,z,0,,,,,,,,0.96923,0,,,,,,218,WORD,UN,33,bucket,SHRINK,m,0.96923,,,,,,-0.016666667,-0.238888889,0,0,0,,0,337,337,157,1,,
,,,,,,,,,,,,,,,,,,5f511be28ba7012e8c040f50,2020-11-27_12h06.35.675,lexical_decision_task_MP_exp2,2020.2.5,Win32,60,z,0,,,,,,,,0.896525,0,,,,,,216,WORD,UN,33,liquor,BEHALF,m,0.896525,,,,,,-0.016666667,-0.238888889,0,0,0,,0,338,338,155,1,,
,,,,,,,,,,,,,,,,,,5f511be28ba7012e8c040f50,2020-11-27_12h06.35.675,lexical_decision_task_MP_exp2,2020.2.5,Win32,60,z,1,,,,,,,,0.804075,1,,,,,,339,NW,"ID",33,fachow,FACHOW,z,0.804075,,,,,,-0.016666667,-0.238888889,0,0,0,,0,339,339,278,1,,
,,,,,,,,,,,,,,,,,,5f511be28ba7012e8c040f50,2020-11-27_12h06.35.675,lexical_decision_task_MP_exp2,2020.2.5,Win32,60,m,1,,,,,,,,1.14344,1,,,,,,82,WORD,"ID",33,stigma,STIGMA,m,1.14344,,,,,,-0.016666667,-0.238888889,0,0,0,,0,340,340,21,1,,
,,,,,,,,,,,,,,,,,,5f511be28ba7012e8c040f50,2020-11-27_12h06.35.675,lexical_decision_task_MP_exp2,2020.2.5,Win32,60,m,1,,,,,,,,0.84436,1,,,,,,43,WORD,UN,16,foster,TONGUE,m,0.84436,,,,,,-0.016666667,-0.238888889,0,0,0,,0,341,341,222,1,,
,,,,,,,,,,,,,,,,,,5f511be28ba7012e8c040f50,2020-11-27_12h06.35.675,lexical_decision_task_MP_exp2,2020.2.5,Win32,60,m,0,,,,,,,,0.716885,0,,,,,,386,NW,"ID",16,ancust,ANCUST,z,0.716885,,,,,,-0.016666667,-0.238888889,0,0,0,,0,342,342,325,1,,
,,,,,,,,,,,,,,,,,,5f511be28ba7012e8c040f50,2020-11-27_12h06.35.675,lexical_decision_task_MP_exp2,2020.2.5,Win32,60,m,1,,,,,,,,0.59194,1,,,,,,133,WORD,"ID",16,chrome,CHROME,m,0.59194,,,,,,-0.016666667,-0.238888889,0,0,0,,0,343,343,72,1,,
,,,,,,,,,,,,,,,,,,5f511be28ba7012e8c040f50,2020-11-27_12h06.35.675,lexical_decision_task_MP_exp2,2020.2.5,Win32,60,m,1,,,,,,,,0.894675,1,,,,,,209,WORD,UN,33,monkey,SEARCH,m,0.894675,,,,,,-0.016666667,-0.238888889,0,0,0,,0,344,344,148,1,,
,,,,,,,,,,,,,,,,,,5f511be28ba7012e8c040f50,2020-11-27_12h06.35.675,lexical_decision_task_MP_exp2,2020.2.5,Win32,60,m,1,,,,,,,,0.60799,1,,,,,,73,WORD,"ID",33,source,SOURCE,m,0.60799,,,,,,-0.016666667,-0.238888889,0,0,0,,0,345,345,12,1,,
,,,,,,,,,,,,,,,,,,5f511be28ba7012e8c040f50,2020-11-27_12h06.35.675,lexical_decision_task_MP_exp2,2020.2.5,Win32,60,m,0,,,,,,,,0.65881,0,,,,,,313,NW,"ID",33,paurse,PAURSE,z,0.65881,,,,,,-0.016666667,-0.238888889,0,0,0,,0,346,346,252,1,,
,,,,,,,,,,,,,,,,,,5f511be28ba7012e8c040f50,2020-11-27_12h06.35.675,lexical_decision_task_MP_exp2,2020.2.5,Win32,60,m,0,,,,,,,,1.15974,0,,,,,,314,NW,"ID",33,sprine,SPRINE,z,1.15974,,,,,,-0.016666667,-0.238888889,0,0,0,,0,347,347,253,1,,
,,,,,,,,,,,,,,,,,,5f511be28ba7012e8c040f50,2020-11-27_12h06.35.675,lexical_decision_task_MP_exp2,2020.2.5,Win32,60,z,0,,,,,,,,1.485985,0,,,,,,172,WORD,"ID",16,patrol,PATROL,m,1.485985,,,,,,-0.016666667,-0.238888889,0,0,0,,0,348,348,111,1,,
,,,,,,,,,,,,,,,,,,5f511be28ba7012e8c040f50,2020-11-27_12h06.35.675,lexical_decision_task_MP_exp2,2020.2.5,Win32,60,m,1,,,,,,,,0.6601,1,,,,,,164,WORD,"ID",16,market,MARKET,m,0.6601,,,,,,-0.016666667,-0.238888889,0,0,0,,0,349,349,103,1,,
,,,,,,,,,,,,,,,,,,5f511be28ba7012e8c040f50,2020-11-27_12h06.35.675,lexical_decision_task_MP_exp2,2020.2.5,Win32,60,z,0,,,,,,,,0.8715,0,,,,,,36,WORD,UN,16,insult,VANISH,m,0.8715,,,,,,-0.016666667,-0.238888889,0,0,0,,0,350,350,215,1,,
,,,,,,,,,,,,,,,,,,5f511be28ba7012e8c040f50,2020-11-27_12h06.35.675,lexical_decision_task_MP_exp2,2020.2.5,Win32,60,,0,,,,,,,,0.8715,-1,,,,,,327,NW,"ID",33,plenac,PLENAC,z,,,,,,,-0.016666667,-0.238888889,0,0,0,,0,351,351,266,1,,
,,,,,,,,,,,,,,,,,,5f511be28ba7012e8c040f50,2020-11-27_12h06.35.675,lexical_decision_task_MP_exp2,2020.2.5,Win32,60,m,1,,,,,,,,0.53615,1,,,,,,163,WORD,"ID",16,string,STRING,m,0.53615,,,,,,-0.016666667,-0.238888889,0,0,0,,0,352,352,102,1,,
,,,,,,,,,,,,,,,,,,5f511be28ba7012e8c040f50,2020-11-27_12h06.35.675,lexical_decision_task_MP_exp2,2020.2.5,Win32,60,z,1,,,,,,,,1.140655,1,,,,,,301,NW,"ID",33,fainch,FAINCH,z,1.140655,,,,,,-0.016666667,-0.238888889,0,0,0,,0,353,353,240,1,,
,,,,,,,,,,,,,,,,,,5f511be28ba7012e8c040f50,2020-11-27_12h06.35.675,lexical_decision_task_MP_exp2,2020.2.5,Win32,60,z,0,,,,,,,,0.83524,0,,,,,,45,WORD,UN,16,single,CLERGY,m,0.83524,,,,,,-0.016666667,-0.238888889,0,0,0,,0,354,354,224,1,,
,,,,,,,,,,,,,,,,,,5f511be28ba7012e8c040f50,2020-11-27_12h06.35.675,lexical_decision_task_MP_exp2,2020.2.5,Win32,60,m,1,,,,,,,,0.959745,1,,,,,,22,WORD,UN,16,wealth,JOCKEY,m,0.959745,,,,,,-0.016666667,-0.238888889,0,0,0,,0,355,355,201,1,,
,,,,,,,,,,,,,,,,,,5f511be28ba7012e8c040f50,2020-11-27_12h06.35.675,lexical_decision_task_MP_exp2,2020.2.5,Win32,60,z,1,,,,,,,,0.84217,1,,,,,,320,NW,"ID",33,jockal,JOCKAL,z,0.84217,,,,,,-0.016666667,-0.238888889,0,0,0,,0,356,356,259,1,,
,,,,,,,,,,,,,,,,,,5f511be28ba7012e8c040f50,2020-11-27_12h06.35.675,lexical_decision_task_MP_exp2,2020.2.5,Win32,60,m,1,,,,,,,,1.03722,1,,,,,,166,WORD,"ID",16,starch,STARCH,m,1.03722,,,,,,-0.016666667,-0.238888889,0,0,0,,0,357,357,105,1,,
,,,,,,,,,,,,,,,,,,5f511be28ba7012e8c040f50,2020-11-27_12h06.35.675,lexical_decision_task_MP_exp2,2020.2.5,Win32,60,m,1,,,,,,,,0.70418,1,,,,,,54,WORD,UN,16,stroke,RAMBLE,m,0.70418,,,,,,-0.016666667,-0.238888889,0,0,0,,0,358,358,233,1,,
,,,,,,,,,,,,,,,,,,5f511be28ba7012e8c040f50,2020-11-27_12h06.35.675,lexical_decision_task_MP_exp2,2020.2.5,Win32,60,m,1,,,,,,,,0.680075,1,,,,,,165,WORD,"ID",16,invest,INVEST,m,0.680075,,,,,,-0.016666667,-0.238888889,0,0,0,,0,359,359,104,1,,
,,,,,,,,,,,,,,,,,,5f511be28ba7012e8c040f50,2020-11-27_12h06.35.675,lexical_decision_task_MP_exp2,2020.2.5,Win32,60,m,1,,,,,,,,0.68343,1,,,,,,81,WORD,"ID",33,friend,FRIEND,m,0.68343,,,,,,-0.016666667,-0.238888889,0,0,0,,0,360,360,20,1,,
,,,,,,,,,,,,,,,,,,5f511be28ba7012e8c040f50,2020-11-27_12h06.35.675,lexical_decision_task_MP_exp2,2020.2.5,Win32,60,m,1,,,,,,,,0.57439,1,,,,,,84,WORD,"ID",33,mortal,MORTAL,m,0.57439,,,,,,-0.016666667,-0.238888889,0,0,0,,0,361,361,23,1,,
,,,,,,,,,,,,,,,,,,5f511be28ba7012e8c040f50,2020-11-27_12h06.35.675,lexical_decision_task_MP_exp2,2020.2.5,Win32,60,z,1,,,,,,,,0.936035,1,,,,,,390,NW,"ID",16,hatrus,HATRUS,z,0.936035,,,,,,-0.016666667,-0.238888889,0,0,0,space,0,362,362,329,1,,6.429375
,,,,,,,,,,,,,,,,,,5f511be28ba7012e8c040f50,2020-11-27_12h06.35.675,lexical_decision_task_MP_exp2,2020.2.5,Win32,60,m,0,,,,,,,,0.995235,0,,,,,,397,NW,"ID",16,camble,CAMBLE,z,0.995235,,,,,,-0.016666667,-0.238888889,0,0,0,,0,363,363,336,1,,
,,,,,,,,,,,,,,,,,,5f511be28ba7012e8c040f50,2020-11-27_12h06.35.675,lexical_decision_task_MP_exp2,2020.2.5,Win32,60,z,1,,,,,,,,0.812475,1,,,,,,440,NW,UN,33,rastoe,SARIDE,z,0.812475,,,,,,-0.016666667,-0.238888889,0,0,0,,0,364,364,379,1,,
,,,,,,,,,,,,,,,,,,5f511be28ba7012e8c040f50,2020-11-27_12h06.35.675,lexical_decision_task_MP_exp2,2020.2.5,Win32,60,m,1,,,,,,,,0.85866,1,,,,,,59,WORD,UN,16,pencil,SPLINT,m,0.85866,,,,,,-0.016666667,-0.238888889,0,0,0,,0,365,365,238,1,,
,,,,,,,,,,,,,,,,,,5f511be28ba7012e8c040f50,2020-11-27_12h06.35.675,lexical_decision_task_MP_exp2,2020.2.5,Win32,60,m,1,,,,,,,,0.645115,1,,,,,,159,WORD,"ID",16,detail,DETAIL,m,0.645115,,,,,,-0.016666667,-0.238888889,0,0,0,,0,366,366,98,1,,
,,,,,,,,,,,,,,,,,,5f511be28ba7012e8c040f50,2020-11-27_12h06.35.675,lexical_decision_task_MP_exp2,2020.2.5,Win32,60,z,1,,,,,,,,0.697185,1,,,,,,352,NW,"ID",33,tringe,TRINGE,z,0.697185,,,,,,-0.016666667,-0.238888889,0,0,0,,0,367,367,291,1,,
,,,,,,,,,,,,,,,,,,5f511be28ba7012e8c040f50,2020-11-27_12h06.35.675,lexical_decision_task_MP_exp2,2020.2.5,Win32,60,z,1,,,,,,,,0.854095,1,,,,,,388,NW,"ID",16,cragin,CRAGIN,z,0.854095,,,,,,-0.016666667,-0.238888889,0,0,0,,0,368,368,327,1,,
,,,,,,,,,,,,,,,,,,5f511be28ba7012e8c040f50,2020-11-27_12h06.35.675,lexical_decision_task_MP_exp2,2020.2.5,Win32,60,z,1,,,,,,,,1.04054,1,,,,,,435,NW,UN,33,frutan,IMPURB,z,1.04054,,,,,,-0.016666667,-0.238888889,0,0,0,,0,369,369,374,1,,
,,,,,,,,,,,,,,,,,,5f511be28ba7012e8c040f50,2020-11-27_12h06.35.675,lexical_decision_task_MP_exp2,2020.2.5,Win32,60,m,0,,,,,,,,0.86914,0,,,,,,323,NW,"ID",33,rosail,ROSAIL,z,0.86914,,,,,,-0.016666667,-0.238888889,0,0,0,,0,370,370,262,1,,
,,,,,,,,,,,,,,,,,,5f511be28ba7012e8c040f50,2020-11-27_12h06.35.675,lexical_decision_task_MP_exp2,2020.2.5,Win32,60,z,1,,,,,,,,0.73738,1,,,,,,329,NW,"ID",33,yarike,YARIKE,z,0.73738,,,,,,-0.016666667,-0.238888889,0,0,0,,0,371,371,268,1,,
,,,,,,,,,,,,,,,,,,5f511be28ba7012e8c040f50,2020-11-27_12h06.35.675,lexical_decision_task_MP_exp2,2020.2.5,Win32,60,z,0,,,,,,,,0.8,0,,,,,,4,WORD,UN,16,plunge,TRENCH,m,0.8,,,,,,-0.016666667,-0.238888889,0,0,0,,0,372,372,183,1,,
,,,,,,,,,,,,,,,,,,5f511be28ba7012e8c040f50,2020-11-27_12h06.35.675,lexical_decision_task_MP_exp2,2020.2.5,Win32,60,z,0,,,,,,,,0.917765,0,,,,,,113,WORD,"ID",33,chorus,CHORUS,m,0.917765,,,,,,-0.016666667,-0.238888889,0,0,0,,0,373,373,52,1,,
,,,,,,,,,,,,,,,,,,5f511be28ba7012e8c040f50,2020-11-27_12h06.35.675,lexical_decision_task_MP_exp2,2020.2.5,Win32,60,z,1,,,,,,,,0.83448,1,,,,,,302,NW,"ID",33,miluer,MILUER,z,0.83448,,,,,,-0.016666667,-0.238888889,0,0,0,,0,374,374,241,1,,
,,,,,,,,,,,,,,,,,,5f511be28ba7012e8c040f50,2020-11-27_12h06.35.675,lexical_decision_task_MP_exp2,2020.2.5,Win32,60,m,1,,,,,,,,0.61671,1,,,,,,51,WORD,UN,16,impose,HUNGRY,m,0.61671,,,,,,-0.016666667,-0.238888889,0,0,0,,0,375,375,230,1,,
,,,,,,,,,,,,,,,,,,5f511be28ba7012e8c040f50,2020-11-27_12h06.35.675,lexical_decision_task_MP_exp2,2020.2.5,Win32,60,z,1,,,,,,,,0.925145,1,,,,,,279,NW,UN,16,curbol,CELOND,z,0.925145,,,,,,-0.016666667,-0.238888889,0,0,0,,0,376,376,458,1,,
,,,,,,,,,,,,,,,,,,5f511be28ba7012e8c040f50,2020-11-27_12h06.35.675,lexical_decision_task_MP_exp2,2020.2.5,Win32,60,m,1,,,,,,,,0.542905,1,,,,,,62,WORD,"ID",33,region,REGION,m,0.542905,,,,,,-0.016666667,-0.238888889,0,0,0,,0,377,377,1,1,,
,,,,,,,,,,,,,,,,,,5f511be28ba7012e8c040f50,2020-11-27_12h06.35.675,lexical_decision_task_MP_exp2,2020.2.5,Win32,60,m,1,,,,,,,,0.666735,1,,,,,,57,WORD,UN,16,danger,CHANGE,m,0.666735,,,,,,-0.016666667,-0.238888889,0,0,0,,0,378,378,236,1,,
,,,,,,,,,,,,,,,,,,5f511be28ba7012e8c040f50,2020-11-27_12h06.35.675,lexical_decision_task_MP_exp2,2020.2.5,Win32,60,z,1,,,,,,,,0.783665,1,,,,,,460,NW,UN,33,justre,MINGAR,z,0.783665,,,,,,-0.016666667,-0.238888889,0,0,0,,0,379,379,399,1,,
,,,,,,,,,,,,,,,,,,5f511be28ba7012e8c040f50,2020-11-27_12h06.35.675,lexical_decision_task_MP_exp2,2020.2.5,Win32,60,m,1,,,,,,,,0.597715,1,,,,,,12,WORD,UN,16,strive,ORANGE,m,0.597715,,,,,,-0.016666667,-0.238888889,0,0,0,,0,380,380,191,1,,
,,,,,,,,,,,,,,,,,,5f511be28ba7012e8c040f50,2020-11-27_12h06.35.675,lexical_decision_task_MP_exp2,2020.2.5,Win32,60,z,0,,,,,,,,0.662695,0,,,,,,101,WORD,"ID",33,wrench,WRENCH,m,0.662695,,,,,,-0.016666667,-0.238888889,0,0,0,,0,381,381,40,1,,
,,,,,,,,,,,,,,,,,,5f511be28ba7012e8c040f50,2020-11-27_12h06.35.675,lexical_decision_task_MP_exp2,2020.2.5,Win32,60,z,1,,,,,,,,1.661995,1,,,,,,409,NW,"ID",16,elopia,ELOPIA,z,1.661995,,,,,,-0.016666667,-0.238888889,0,0,0,,0,382,382,348,1,,
,,,,,,,,,,,,,,,,,,5f511be28ba7012e8c040f50,2020-11-27_12h06.35.675,lexical_decision_task_MP_exp2,2020.2.5,Win32,60,m,1,,,,,,,,0.791575,1,,,,,,41,WORD,UN,16,chapel,SPRING,m,0.791575,,,,,,-0.016666667,-0.238888889,0,0,0,,0,383,383,220,1,,
,,,,,,,,,,,,,,,,,,5f511be28ba7012e8c040f50,2020-11-27_12h06.35.675,lexical_decision_task_MP_exp2,2020.2.5,Win32,60,z,1,,,,,,,,0.900125,1,,,,,,444,NW,UN,33,minkel,JAUNCE,z,0.900125,,,,,,-0.016666667,-0.238888889,0,0,0,,0,384,384,383,1,,
,,,,,,,,,,,,,,,,,,5f511be28ba7012e8c040f50,2020-11-27_12h06.35.675,lexical_decision_task_MP_exp2,2020.2.5,Win32,60,z,1,,,,,,,,0.81328,1,,,,,,292,NW,UN,16,swance,ABLINT,z,0.81328,,,,,,-0.016666667,-0.238888889,0,0,0,,0,385,385,471,1,,
,,,,,,,,,,,,,,,,,,5f511be28ba7012e8c040f50,2020-11-27_12h06.35.675,lexical_decision_task_MP_exp2,2020.2.5,Win32,60,m,1,,,,,,,,0.637355,1,,,,,,98,WORD,"ID",33,belong,BELONG,m,0.637355,,,,,,-0.016666667,-0.238888889,0,0,0,,0,386,386,37,1,,
,,,,,,,,,,,,,,,,,,5f511be28ba7012e8c040f50,2020-11-27_12h06.35.675,lexical_decision_task_MP_exp2,2020.2.5,Win32,60,z,1,,,,,,,,0.71029,1,,,,,,385,NW,"ID",16,veigma,VEIGMA,z,0.71029,,,,,,-0.016666667,-0.238888889,0,0,0,,0,387,387,324,1,,
,,,,,,,,,,,,,,,,,,5f511be28ba7012e8c040f50,2020-11-27_12h06.35.675,lexical_decision_task_MP_exp2,2020.2.5,Win32,60,m,1,,,,,,,,0.450085,1,,,,,,231,WORD,UN,33,inject,EXPORT,m,0.450085,,,,,,-0.016666667,-0.238888889,0,0,0,,0,388,388,170,1,,
,,,,,,,,,,,,,,,,,,5f511be28ba7012e8c040f50,2020-11-27_12h06.35.675,lexical_decision_task_MP_exp2,2020.2.5,Win32,60,z,1,,,,,,,,0.797065,1,,,,,,325,NW,"ID",33,thruse,THRUSE,z,0.797065,,,,,,-0.016666667,-0.238888889,0,0,0,,0,389,389,264,1,,
,,,,,,,,,,,,,,,,,,5f511be28ba7012e8c040f50,2020-11-27_12h06.35.675,lexical_decision_task_MP_exp2,2020.2.5,Win32,60,m,0,,,,,,,,1.04809,0,,,,,,273,NW,UN,16,fumblo,SORTEL,z,1.04809,,,,,,-0.016666667,-0.238888889,0,0,0,,0,390,390,452,1,,
,,,,,,,,,,,,,,,,,,5f511be28ba7012e8c040f50,2020-11-27_12h06.35.675,lexical_decision_task_MP_exp2,2020.2.5,Win32,60,m,1,,,,,,,,0.776025,1,,,,,,28,WORD,UN,16,sketch,COMEDY,m,0.776025,,,,,,-0.016666667,-0.238888889,0,0,0,,0,391,391,207,1,,
