counterbalancing_condition,instr_done_keyboard.keys,instr_done_touch.x,instr_done_touch.y,instr_done_touch.leftButton,instr_done_touch.midButton,instr_done_touch.rightButton,instr_done_touch.clicked_name,instruction_pages.thisRepN,instruction_pages.thisTrialN,instruction_pages.thisN,instruction_pages.thisIndex,instruction_pages.ran,pageN,phase,instruct_text,has_image,instruct_image,participant,date,expName,psychopyVersion,OS,frameRate,response.keys,response.corr,touch_resp.x,touch_resp.y,touch_resp.leftButton,touch_resp.midButton,touch_resp.rightButton,touch_resp.time,touch_resp.clicked_name,rt,corr,practice_trials.thisRepN,practice_trials.thisTrialN,practice_trials.thisN,practice_trials.thisIndex,practice_trials.ran,TrialID,StimulusType,Condition,PrimeDuration,Prime,Target,corrAns,end_of_practice_trials_pages.thisRepN,end_of_practice_trials_pages.thisTrialN,end_of_practice_trials_pages.thisN,end_of_practice_trials_pages.thisIndex,end_of_practice_trials_pages.ran,break_done_touch.x,break_done_touch.y,break_done_touch.leftButton,break_done_touch.midButton,break_done_touch.rightButton,break_done_keyboard.keys,experiment_trials.thisRepN,experiment_trials.thisTrialN,experiment_trials.thisN,experiment_trials.thisIndex,experiment_trials.ran,break_done_touch.clicked_name
2,,0.110526298,-0.401336077,1,0,0,instr_done_button,0,0,0,0,1,1,instructions,"INSTRUCTIONS
At the start of each trial, look at the hash marks (######) in the center of the screen. After a moment, a string of letters will appear. Your task is to indicate if the letter string forms a word or not (i.e., if it is a nonword). For example, AUTHOR is a word while AUTHON is a nonword.

Press the space bar or touch the button below to continue.",0,,5f5a292573b827085d758463,2020-11-26_15h59.31.220,lexical_decision_task_MP_exp2,2020.2.5,Linux armv8l,60,,,,,,,,,,,,,,,,,,,,,,,,,,,,,,,,,,,,,,,,
,,0.162144633,-0.384513707,1,0,0,instr_done_button,0,1,1,1,1,2,instructions,"If your device has a keyboard, press the 'Z' key for nonwords and the 'M' key for words.





Press the space bar or touch the button below to continue.",1,keyboard-example.gif,5f5a292573b827085d758463,2020-11-26_15h59.31.220,lexical_decision_task_MP_exp2,2020.2.5,Linux armv8l,60,,,,,,,,,,,,,,,,,,,,,,,,,,,,,,,,,,,,,,,,
,,0.125560798,-0.37890625,1,0,0,instr_done_button,0,2,2,2,1,3,instructions,"If you are using a touchscreen only device, use the buttons on the screen. Do not use the mouse.





Press the space bar or touch the button below to continue.",1,touchscreen-example.gif,5f5a292573b827085d758463,2020-11-26_15h59.31.220,lexical_decision_task_MP_exp2,2020.2.5,Linux armv8l,60,,,,,,,,,,,,,,,,,,,,,,,,,,,,,,,,,,,,,,,,
,,0.159137689,-0.395972391,1,0,0,instr_done_button,0,3,3,3,1,4,instructions,"It is very important that you respond as quickly and accurately as possible, as each letter string will only be on the screen for two seconds. If you do not respond within this time, the message 'Too slow!' will be displayed and the experiment will progress to the next letter string. The first 20 trials will be practice trials and you will receive feedback on your answers. 

Press the space bar or touch the button below to start the practice trials.",0,,5f5a292573b827085d758463,2020-11-26_15h59.31.220,lexical_decision_task_MP_exp2,2020.2.5,Linux armv8l,60,,,,,,,,,,,,,,,,,,,,,,,,,,,,,,,,,,,,,,,,
,,,,,,,,,,,,,,,,,,5f5a292573b827085d758463,2020-11-26_15h59.31.220,lexical_decision_task_MP_exp2,2020.2.5,Linux armv8l,60,,0,-0.462787665,-0.288699548,1,0,0,1.563,button_left,1.563,1,0,0,0,14,1,1015,NW,UN,16,miaber,THRALE,z,,,,,,,,,,,,,,,,,
,,,,,,,,,,,,,,,,,,5f5a292573b827085d758463,2020-11-26_15h59.31.220,lexical_decision_task_MP_exp2,2020.2.5,Linux armv8l,60,,0,-0.47531639,-0.301133387,1,0,0,0.7565,button_left,0.7565,1,0,1,1,10,1,1011,NW,"ID",16,inlade,INLADE,z,,,,,,,,,,,,,,,,,
,,,,,,,,,,,,,,,,,,5f5a292573b827085d758463,2020-11-26_15h59.31.220,lexical_decision_task_MP_exp2,2020.2.5,Linux armv8l,60,,0,0.507435919,-0.317224447,1,0,0,0.8422,button_right,0.8422,1,0,2,2,1,1,1002,WORD,"ID",33,adjust,ADJUST,m,,,,,,,,,,,,,,,,,
,,,,,,,,,,,,,,,,,,5f5a292573b827085d758463,2020-11-26_15h59.31.220,lexical_decision_task_MP_exp2,2020.2.5,Linux armv8l,60,,0,-0.453767017,-0.303815231,1,0,0,1.0184,button_left,1.0184,1,0,3,3,9,1,1010,NW,"ID",33,fariny,FARINY,z,,,,,,,,,,,,,,,,,
,,,,,,,,,,,,,,,,,,5f5a292573b827085d758463,2020-11-26_15h59.31.220,lexical_decision_task_MP_exp2,2020.2.5,Linux armv8l,60,,0,0.504930218,-0.296988774,1,0,0,0.895,button_right,0.895,1,0,4,4,6,1,1007,WORD,UN,16,tropic,ZOMBIE,m,,,,,,,,,,,,,,,,,
,,,,,,,,,,,,,,,,,,5f5a292573b827085d758463,2020-11-26_15h59.31.220,lexical_decision_task_MP_exp2,2020.2.5,Linux armv8l,60,,0,-0.460783097,-0.297720159,1,0,0,1.2433,button_left,1.2433,1,0,5,5,11,1,1012,NW,"ID",16,rashet,RASHET,z,,,,,,,,,,,,,,,,,
,,,,,,,,,,,,,,,,,,5f5a292573b827085d758463,2020-11-26_15h59.31.220,lexical_decision_task_MP_exp2,2020.2.5,Linux armv8l,60,,0,-0.475817523,-0.291868932,1,0,0,0.9269,button_left,0.9269,1,0,6,6,12,1,1013,NW,UN,33,adveil,SPRINY,z,,,,,,,,,,,,,,,,,
,,,,,,,,,,,,,,,,,,5f5a292573b827085d758463,2020-11-26_15h59.31.220,lexical_decision_task_MP_exp2,2020.2.5,Linux armv8l,60,,0,-0.484838208,-0.278947404,1,0,0,1.0479,button_left,1.0479,1,0,7,7,8,1,1009,NW,"ID",33,aslert,ASLERT,z,,,,,,,,,,,,,,,,,
,,,,,,,,,,,,,,,,,,5f5a292573b827085d758463,2020-11-26_15h59.31.220,lexical_decision_task_MP_exp2,2020.2.5,Linux armv8l,60,,0,-0.466295705,-0.273583792,1,0,0,0.7278,button_left,0.7278,1,0,8,8,13,1,1014,NW,UN,33,winfer,ROUPET,z,,,,,,,,,,,,,,,,,
,,,,,,,,,,,,,,,,,,5f5a292573b827085d758463,2020-11-26_15h59.31.220,lexical_decision_task_MP_exp2,2020.2.5,Linux armv8l,60,,0,0.496911799,-0.30186492,1,0,0,0.8039,button_right,0.8039,1,0,9,9,3,1,1004,WORD,"ID",16,matrix,MATRIX,m,,,,,,,,,,,,,,,,,
,,,,,,,,,,,,,,,,,,5f5a292573b827085d758463,2020-11-26_15h59.31.220,lexical_decision_task_MP_exp2,2020.2.5,Linux armv8l,60,,0,-0.454769283,-0.298695388,1,0,0,0.7799,button_left,0.7799,1,0,10,10,15,1,1016,NW,UN,16,mushed,WHAISE,z,,,,,,,,,,,,,,,,,
,,,,,,,,,,,,,,,,,,5f5a292573b827085d758463,2020-11-26_15h59.31.220,lexical_decision_task_MP_exp2,2020.2.5,Linux armv8l,60,,0,0.465840608,-0.302596231,1,0,0,0.7923,button_right,0.7923,1,0,11,11,0,1,1001,WORD,"ID",33,utopia,UTOPIA,m,,,,,,,,,,,,,,,,,
,,,,,,,,,,,,,,,,,,5f5a292573b827085d758463,2020-11-26_15h59.31.220,lexical_decision_task_MP_exp2,2020.2.5,Linux armv8l,60,,0,0.499417796,-0.302352461,1,0,0,0.749,button_right,0.749,1,0,12,12,4,1,1005,WORD,UN,33,abound,SQUEAK,m,,,,,,,,,,,,,,,,,
,,,,,,,,,,,,,,,,,,5f5a292573b827085d758463,2020-11-26_15h59.31.220,lexical_decision_task_MP_exp2,2020.2.5,Linux armv8l,60,,0,0.514451999,-0.298451692,1,0,0,0.9282,button_right,0.9282,1,0,13,13,2,1,1003,WORD,"ID",16,almond,ALMOND,m,,,,,,,,,,,,,,,,,
,,,,,,,,,,,,,,,,,,5f5a292573b827085d758463,2020-11-26_15h59.31.220,lexical_decision_task_MP_exp2,2020.2.5,Linux armv8l,60,,0,0.494907268,-0.298451692,1,0,0,0.7854,button_right,0.7854,1,0,14,14,7,1,1008,WORD,UN,16,hurdle,VOLUME,m,,,,,,,,,,,,,,,,,
,,,,,,,,,,,,,,,,,,5f5a292573b827085d758463,2020-11-26_15h59.31.220,lexical_decision_task_MP_exp2,2020.2.5,Linux armv8l,60,,0,0.492401716,-0.313811219,1,0,0,0.7131,button_right,0.7131,1,0,15,15,5,1,1006,WORD,UN,33,frenzy,OBTAIN,m,,,,,,,,,,,,,,,,,
,,0.142599828,-0.39670385,1,0,0,instr_done_button,,,,,,1,end_of_practice,"You have completed the practice trials. During the experimental trials, you will not receive feedback, but it is very important that you respond as quickly and accurately as possible. 
Before you begin, please ensure that you are in a comfortable and quiet location and will not be disturbed for about 15 minutes, as we cannot use your data if you do not complete all the trials. 
There will be opportunities to take breaks at regular intervals during the experiment. When you are ready to start the experimental trials, please press space or touch the button below.",,,5f5a292573b827085d758463,2020-11-26_15h59.31.220,lexical_decision_task_MP_exp2,2020.2.5,Linux armv8l,60,,,,,,,,,,,,,,,,,,,,,,,,0,0,0,0,1,,,,,,,,,,,,
,,,,,,,,,,,,,,,,,,5f5a292573b827085d758463,2020-11-26_15h59.31.220,lexical_decision_task_MP_exp2,2020.2.5,Linux armv8l,60,,0,-0.446750937,-0.28674909,1,0,0,1.1968,button_left,1.1968,1,,,,,,290,NW,UN,16,pretch,SPLINO,z,,,,,,-0.446750937,-0.28674909,1,0,0,,0,0,0,469,1,
,,,,,,,,,,,,,,,,,,5f5a292573b827085d758463,2020-11-26_15h59.31.220,lexical_decision_task_MP_exp2,2020.2.5,Linux armv8l,60,,0,0.522470419,-0.277484635,1,0,0,0.6961,button_right,0.6961,1,,,,,,237,WORD,UN,33,glance,POSTER,m,,,,,,0.522470419,-0.277484635,1,0,0,,0,1,1,176,1,
,,,,,,,,,,,,,,,,,,5f5a292573b827085d758463,2020-11-26_15h59.31.220,lexical_decision_task_MP_exp2,2020.2.5,Linux armv8l,60,,0,-0.47180835,-0.280166478,1,0,0,0.8381,button_left,0.8381,1,,,,,,252,NW,UN,16,resait,STAPOD,z,,,,,,-0.47180835,-0.280166478,1,0,0,,0,2,2,431,1,
,,,,,,,,,,,,,,,,,,5f5a292573b827085d758463,2020-11-26_15h59.31.220,lexical_decision_task_MP_exp2,2020.2.5,Linux armv8l,60,,0,0.520967058,-0.305521845,1,0,0,0.7795,button_right,0.7795,1,,,,,,200,WORD,UN,33,admire,BEACON,m,,,,,,0.520967058,-0.305521845,1,0,0,,0,3,3,139,1,
,,,,,,,,,,,,,,,,,,5f5a292573b827085d758463,2020-11-26_15h59.31.220,lexical_decision_task_MP_exp2,2020.2.5,Linux armv8l,60,,0,-0.467298008,-0.306984763,1,0,0,0.7338,button_left,0.7338,1,,,,,,317,NW,"ID",33,worbal,WORBAL,z,,,,,,-0.467298008,-0.306984763,1,0,0,,0,4,4,256,1,
,,,,,,,,,,,,,,,,,,5f5a292573b827085d758463,2020-11-26_15h59.31.220,lexical_decision_task_MP_exp2,2020.2.5,Linux armv8l,60,,0,0.521969249,-0.292844161,1,0,0,0.6807,button_right,0.6807,1,,,,,,42,WORD,UN,16,tongue,CHAPEL,m,,,,,,0.521969249,-0.292844161,1,0,0,,0,5,5,221,1,
,,,,,,,,,,,,,,,,,,5f5a292573b827085d758463,2020-11-26_15h59.31.220,lexical_decision_task_MP_exp2,2020.2.5,Linux armv8l,60,,0,0.482879639,-0.300402002,1,0,0,0.6086,button_right,0.6086,1,,,,,,43,WORD,UN,16,foster,TONGUE,m,,,,,,0.482879639,-0.300402002,1,0,0,,0,6,6,222,1,
,,,,,,,,,,,,,,,,,,5f5a292573b827085d758463,2020-11-26_15h59.31.220,lexical_decision_task_MP_exp2,2020.2.5,Linux armv8l,60,,0,-0.471307217,-0.311616916,1,0,0,0.6793,button_left,0.6793,1,,,,,,434,NW,UN,33,impurb,PITROM,z,,,,,,-0.471307217,-0.311616916,1,0,0,,0,7,7,373,1,
,,,,,,,,,,,,,,,,,,5f5a292573b827085d758463,2020-11-26_15h59.31.220,lexical_decision_task_MP_exp2,2020.2.5,Linux armv8l,60,,0,0.497412969,-0.293087932,1,0,0,0.5587,button_right,0.5587,1,,,,,,197,WORD,UN,33,wicked,STREAM,m,,,,,,0.497412969,-0.293087932,1,0,0,,0,8,8,136,1,
,,,,,,,,,,,,,,,,,,5f5a292573b827085d758463,2020-11-26_15h59.31.220,lexical_decision_task_MP_exp2,2020.2.5,Linux armv8l,60,,0,0.497412969,-0.303815231,1,0,0,0.6419,button_right,0.6419,1,,,,,,143,WORD,"ID",16,reason,REASON,m,,,,,,0.497412969,-0.303815231,1,0,0,,0,9,9,82,1,
,,,,,,,,,,,,,,,,,,5f5a292573b827085d758463,2020-11-26_15h59.31.220,lexical_decision_task_MP_exp2,2020.2.5,Linux armv8l,60,,0,0.524976119,-0.300645847,1,0,0,0.5929,button_right,0.5929,1,,,,,,27,WORD,UN,16,comedy,SCREAM,m,,,,,,0.524976119,-0.300645847,1,0,0,,0,10,10,206,1,
,,,,,,,,,,,,,,,,,,5f5a292573b827085d758463,2020-11-26_15h59.31.220,lexical_decision_task_MP_exp2,2020.2.5,Linux armv8l,60,,0,-0.480327865,-0.280654018,1,0,0,0.5914,button_left,0.5914,1,,,,,,323,NW,"ID",33,rosail,ROSAIL,z,,,,,,-0.480327865,-0.280654018,1,0,0,,0,11,11,262,1,
,,,,,,,,,,,,,,,,,,5f5a292573b827085d758463,2020-11-26_15h59.31.220,lexical_decision_task_MP_exp2,2020.2.5,Linux armv8l,60,,0,-0.467799177,-0.29381939,1,0,0,0.8225,button_left,0.8225,1,,,,,,406,NW,"ID",16,nouply,NOUPLY,z,,,,,,-0.467799177,-0.29381939,1,0,0,,0,12,12,345,1,
,,,,,,,,,,,,,,,,,,5f5a292573b827085d758463,2020-11-26_15h59.31.220,lexical_decision_task_MP_exp2,2020.2.5,Linux armv8l,60,,0,0.514451999,-0.313079686,1,0,0,0.558,button_right,0.558,1,,,,,,70,WORD,"ID",33,square,SQUARE,m,,,,,,0.514451999,-0.313079686,1,0,0,,0,13,13,9,1,
,,,,,,,,,,,,,,,,,,5f5a292573b827085d758463,2020-11-26_15h59.31.220,lexical_decision_task_MP_exp2,2020.2.5,Linux armv8l,60,,0,0.498916478,-0.291137547,1,0,0,0.5892,button_right,0.5892,1,,,,,,74,WORD,"ID",33,plaque,PLAQUE,m,,,,,,0.498916478,-0.291137547,1,0,0,,0,14,14,13,1,
,,,,,,,,,,,,,,,,,,5f5a292573b827085d758463,2020-11-26_15h59.31.220,lexical_decision_task_MP_exp2,2020.2.5,Linux armv8l,60,,0,0.490396889,-0.302596231,1,0,0,0.5587,button_right,0.5587,1,,,,,,28,WORD,UN,16,sketch,COMEDY,m,,,,,,0.490396889,-0.302596231,1,0,0,,0,15,15,207,1,
,,,,,,,,,,,,,,,,,,5f5a292573b827085d758463,2020-11-26_15h59.31.220,lexical_decision_task_MP_exp2,2020.2.5,Linux armv8l,60,,0,0.509941916,-0.307716073,1,0,0,0.5424,button_right,0.5424,1,,,,,,52,WORD,UN,16,police,IMPOSE,m,,,,,,0.509941916,-0.307716073,1,0,0,,0,16,16,231,1,
,,,,,,,,,,,,,,,,,,5f5a292573b827085d758463,2020-11-26_15h59.31.220,lexical_decision_task_MP_exp2,2020.2.5,Linux armv8l,60,,0,-0.465293403,-0.292600317,1,0,0,0.6152,button_left,0.6152,1,,,,,,263,NW,UN,16,vackel,DOLICA,z,,,,,,-0.465293403,-0.292600317,1,0,0,,0,17,17,442,1,
,,,,,,,,,,,,,,,,,,5f5a292573b827085d758463,2020-11-26_15h59.31.220,lexical_decision_task_MP_exp2,2020.2.5,Linux armv8l,60,,0,0.501923348,-0.311373072,1,0,0,0.6401,button_right,0.6401,1,,,,,,14,WORD,UN,16,orange,ALMOST,m,,,,,,0.501923348,-0.311373072,1,0,0,,0,18,18,193,1,
,,,,,,,,,,,,,,,,,,5f5a292573b827085d758463,2020-11-26_15h59.31.220,lexical_decision_task_MP_exp2,2020.2.5,Linux armv8l,60,,0,-0.449256675,-0.289430933,1,0,0,0.5906,button_left,0.5906,1,,,,,,476,NW,UN,33,photie,JOSTED,z,,,,,,-0.449256675,-0.289430933,1,0,0,,0,19,19,415,1,
,,,,,,,,,,,,,,,,,,5f5a292573b827085d758463,2020-11-26_15h59.31.220,lexical_decision_task_MP_exp2,2020.2.5,Linux armv8l,60,,0,-0.480327865,-0.281873092,1,0,0,0.8058,button_left,0.8058,1,,,,,,262,NW,UN,16,dolica,QUILEW,z,,,,,,-0.480327865,-0.281873092,1,0,0,,0,20,20,441,1,
,,,,,,,,,,,,,,,,,,5f5a292573b827085d758463,2020-11-26_15h59.31.220,lexical_decision_task_MP_exp2,2020.2.5,Linux armv8l,60,,0,0.486387679,-0.305278148,1,0,0,0.5793,button_right,0.5793,1,,,,,,97,WORD,"ID",33,client,CLIENT,m,,,,,,0.486387679,-0.305278148,1,0,0,,0,21,21,36,1,
,,,,,,,,,,,,,,,,,,5f5a292573b827085d758463,2020-11-26_15h59.31.220,lexical_decision_task_MP_exp2,2020.2.5,Linux armv8l,60,,0,0.515454339,-0.310885531,1,0,0,0.5975,button_right,0.5975,1,,,,,,190,WORD,UN,33,stable,BACKUP,m,,,,,,0.515454339,-0.310885531,1,0,0,,0,22,22,129,1,
,,,,,,,,,,,,,,,,,,5f5a292573b827085d758463,2020-11-26_15h59.31.220,lexical_decision_task_MP_exp2,2020.2.5,Linux armv8l,60,,0,-0.476819825,-0.284554861,1,0,0,0.6442,button_left,0.6442,1,,,,,,422,NW,UN,33,streld,ALCOUD,z,,,,,,-0.476819825,-0.284554861,1,0,0,,0,23,23,361,1,
,,,,,,,,,,,,,,,,,,5f5a292573b827085d758463,2020-11-26_15h59.31.220,lexical_decision_task_MP_exp2,2020.2.5,Linux armv8l,60,,0,0.498415308,-0.305521845,1,0,0,0.642,button_right,0.642,1,,,,,,33,WORD,UN,16,jungle,BUTLER,m,,,,,,0.498415308,-0.305521845,1,0,0,,0,24,24,212,1,
,,,,,,,,,,,,,,,,,,5f5a292573b827085d758463,2020-11-26_15h59.31.220,lexical_decision_task_MP_exp2,2020.2.5,Linux armv8l,60,,0,-0.497868066,-0.280410248,1,0,0,0.6929,button_left,0.6929,1,,,,,,295,NW,UN,16,beinch,GLEATH,z,,,,,,-0.497868066,-0.280410248,1,0,0,,0,25,25,474,1,
,,,,,,,,,,,,,,,,,,5f5a292573b827085d758463,2020-11-26_15h59.31.220,lexical_decision_task_MP_exp2,2020.2.5,Linux armv8l,60,,0,0.492902737,-0.312592145,1,0,0,0.6121,button_right,0.6121,1,,,,,,101,WORD,"ID",33,wrench,WRENCH,m,,,,,,0.492902737,-0.312592145,1,0,0,,0,26,26,40,1,
,,,,,,,,,,,,,,,,,,5f5a292573b827085d758463,2020-11-26_15h59.31.220,lexical_decision_task_MP_exp2,2020.2.5,Linux armv8l,60,,0,0.510442937,-0.310885531,1,0,0,0.6909,button_right,0.6909,1,,,,,,100,WORD,"ID",33,carbon,CARBON,m,,,,,,0.510442937,-0.310885531,1,0,0,,0,27,27,39,1,
,,,,,,,,,,,,,,,,,,5f5a292573b827085d758463,2020-11-26_15h59.31.220,lexical_decision_task_MP_exp2,2020.2.5,Linux armv8l,60,,0,-0.466796875,-0.282360632,1,0,0,0.5932,button_left,0.5932,1,,,,,,479,NW,UN,33,crible,LOBUSH,z,,,,,,-0.466796875,-0.282360632,1,0,0,,0,28,28,418,1,
,,,,,,,,,,,,,,,,,,5f5a292573b827085d758463,2020-11-26_15h59.31.220,lexical_decision_task_MP_exp2,2020.2.5,Linux armv8l,60,,0,0.508939428,-0.313811219,1,0,0,0.5749,button_right,0.5749,1,,,,,,110,WORD,"ID",33,polite,POLITE,m,,,,,,0.508939428,-0.313811219,1,0,0,,0,29,29,49,1,
,,,,,,,,,,,,,,,,,,5f5a292573b827085d758463,2020-11-26_15h59.31.220,lexical_decision_task_MP_exp2,2020.2.5,Linux armv8l,60,,0,-0.441739425,-0.270658178,1,0,0,0.5617,button_left,0.5617,1,,,,,,448,NW,UN,33,brunge,SADENT,z,,,,,,-0.441739425,-0.270658178,1,0,0,,0,30,30,387,1,
,,,,,,,,,,,,,,,,,,5f5a292573b827085d758463,2020-11-26_15h59.31.220,lexical_decision_task_MP_exp2,2020.2.5,Linux armv8l,60,,0,0.491399228,-0.291381317,1,0,0,0.5086,button_right,0.5086,1,,,,,,238,WORD,UN,33,behalf,FLOWER,m,,,,,,0.491399228,-0.291381317,1,0,0,,0,31,31,177,1,
,,,,,,,,,,,,,,,,,,5f5a292573b827085d758463,2020-11-26_15h59.31.220,lexical_decision_task_MP_exp2,2020.2.5,Linux armv8l,60,,0,-0.49285659,-0.263831722,1,0,0,0.6353,button_left,0.6353,1,,,,,,429,NW,UN,33,caroey,FUNTLE,z,,,,,,-0.49285659,-0.263831722,1,0,0,,0,32,32,368,1,
,,,,,,,,,,,,,,,,,,5f5a292573b827085d758463,2020-11-26_15h59.31.220,lexical_decision_task_MP_exp2,2020.2.5,Linux armv8l,60,,0,-0.481831338,-0.260418494,1,0,0,0.6154,button_left,0.6154,0,,,,,,111,WORD,"ID",33,induce,INDUCE,m,,,,,,-0.481831338,-0.260418494,1,0,0,,0,33,33,50,1,
,,,,,,,,,,,,,,,,,,5f5a292573b827085d758463,2020-11-26_15h59.31.220,lexical_decision_task_MP_exp2,2020.2.5,Linux armv8l,60,,0,0.490396889,-0.309910302,1,0,0,0.5131,button_right,0.5131,1,,,,,,73,WORD,"ID",33,source,SOURCE,m,,,,,,0.490396889,-0.309910302,1,0,0,,0,34,34,12,1,
,,,,,,,,,,,,,,,,,,5f5a292573b827085d758463,2020-11-26_15h59.31.220,lexical_decision_task_MP_exp2,2020.2.5,Linux armv8l,60,,0,0.476865898,-0.302840001,1,0,0,0.5793,button_right,0.5793,0,,,,,,396,NW,"ID",16,flengy,FLENGY,z,,,,,,0.476865898,-0.302840001,1,0,0,,0,35,35,335,1,
,,,,,,,,,,,,,,,,,,5f5a292573b827085d758463,2020-11-26_15h59.31.220,lexical_decision_task_MP_exp2,2020.2.5,Linux armv8l,60,,0,-0.463288835,-0.274315177,1,0,0,0.6954,button_left,0.6954,1,,,,,,460,NW,UN,33,justre,MINGAR,z,,,,,,-0.463288835,-0.274315177,1,0,0,,0,36,36,399,1,
,,,,,,,,,,,,,,,,,,5f5a292573b827085d758463,2020-11-26_15h59.31.220,lexical_decision_task_MP_exp2,2020.2.5,Linux armv8l,60,,0,0.508939428,-0.298207774,1,0,0,0.6651,button_right,0.6651,1,,,,,,154,WORD,"ID",16,author,AUTHOR,m,,,,,,0.508939428,-0.298207774,1,0,0,,0,37,37,93,1,
,,,,,,,,,,,,,,,,,,5f5a292573b827085d758463,2020-11-26_15h59.31.220,lexical_decision_task_MP_exp2,2020.2.5,Linux armv8l,60,,0,-0.474314088,-0.282604477,1,0,0,0.6084,button_left,0.6084,1,,,,,,393,NW,"ID",16,ganous,GANOUS,z,,,,,,-0.474314088,-0.282604477,1,0,0,,0,38,38,332,1,
,,,,,,,,,,,,,,,,,,5f5a292573b827085d758463,2020-11-26_15h59.31.220,lexical_decision_task_MP_exp2,2020.2.5,Linux armv8l,60,,0,-0.504884146,-0.263587878,1,0,0,0.6776,button_left,0.6776,1,,,,,,369,NW,"ID",16,wronch,WRONCH,z,,,,,,-0.504884146,-0.263587878,1,0,0,,0,39,39,308,1,
,,,,,,,,,,,,,,,,,,5f5a292573b827085d758463,2020-11-26_15h59.31.220,lexical_decision_task_MP_exp2,2020.2.5,Linux armv8l,60,,0,-0.49285659,-0.262856493,1,0,0,0.7428,button_left,0.7428,1,,,,,,296,NW,UN,16,fertic,BEINCH,z,,,,,,-0.49285659,-0.262856493,1,0,0,,0,40,40,475,1,
,,,,,,,,,,,,,,,,,,5f5a292573b827085d758463,2020-11-26_15h59.31.220,lexical_decision_task_MP_exp2,2020.2.5,Linux armv8l,60,,0,-0.484337075,-0.271877178,1,0,0,0.5962,button_left,0.5962,1,,,,,,354,NW,"ID",33,virlex,VIRLEX,z,,,,,,-0.484337075,-0.271877178,1,0,0,,0,41,41,293,1,
,,,,,,,,,,,,,,,,,,5f5a292573b827085d758463,2020-11-26_15h59.31.220,lexical_decision_task_MP_exp2,2020.2.5,Linux armv8l,60,,0,0.502925836,-0.309178917,1,0,0,0.5668,button_right,0.5668,1,,,,,,80,WORD,"ID",33,family,FAMILY,m,,,,,,0.502925836,-0.309178917,1,0,0,,0,42,42,19,1,
,,,,,,,,,,,,,,,,,,5f5a292573b827085d758463,2020-11-26_15h59.31.220,lexical_decision_task_MP_exp2,2020.2.5,Linux armv8l,60,,0,-0.502378371,-0.274315177,1,0,0,0.5575,button_left,0.5575,1,,,,,,358,NW,"ID",33,fleack,FLEACK,z,,,,,,-0.502378371,-0.274315177,1,0,0,,0,43,43,297,1,
,,,,,,,,,,,,,,,,,,5f5a292573b827085d758463,2020-11-26_15h59.31.220,lexical_decision_task_MP_exp2,2020.2.5,Linux armv8l,60,,0,0.511946299,-0.300889617,1,0,0,0.5623,button_right,0.5623,1,,,,,,88,WORD,"ID",33,hunger,HUNGER,m,,,,,,0.511946299,-0.300889617,1,0,0,,0,44,44,27,1,
,,,,,,,,,,,,,,,,,,5f5a292573b827085d758463,2020-11-26_15h59.31.220,lexical_decision_task_MP_exp2,2020.2.5,Linux armv8l,60,,0,-0.513403698,-0.270414334,1,0,0,0.5469,button_left,0.5469,1,,,,,,365,NW,"ID",16,guairt,GUAIRT,z,,,,,,-0.513403698,-0.270414334,1,0,0,,0,45,45,304,1,
,,,,,,,,,,,,,,,,,,5f5a292573b827085d758463,2020-11-26_15h59.31.220,lexical_decision_task_MP_exp2,2020.2.5,Linux armv8l,60,,0,0.514953169,-0.320149986,1,0,0,0.664,button_right,0.664,1,,,,,,240,WORD,UN,33,seldom,FOREST,m,,,,,,0.514953169,-0.320149986,1,0,0,,0,46,46,179,1,
,,,,,,,,,,,,,,,,,,5f5a292573b827085d758463,2020-11-26_15h59.31.220,lexical_decision_task_MP_exp2,2020.2.5,Linux armv8l,60,,0,-0.499872671,-0.273340022,1,0,0,0.6069,button_left,0.6069,1,,,,,,357,NW,"ID",33,derain,DERAIN,z,,,,,,-0.499872671,-0.273340022,1,0,0,,0,47,47,296,1,
,,,,,,,,,,,,,,,,,,5f5a292573b827085d758463,2020-11-26_15h59.31.220,lexical_decision_task_MP_exp2,2020.2.5,Linux armv8l,60,,0,0.509941916,-0.300158306,1,0,0,0.5747,button_right,0.5747,1,,,,,,65,WORD,"ID",33,symbol,SYMBOL,m,,,,,,0.509941916,-0.300158306,1,0,0,,0,48,48,4,1,
,,,,,,,,,,,,,,,,,,5f5a292573b827085d758463,2020-11-26_15h59.31.220,lexical_decision_task_MP_exp2,2020.2.5,Linux armv8l,60,,0,0.498916478,-0.309910302,1,0,0,0.6233,button_right,0.6233,1,,,,,,170,WORD,"ID",16,pounce,POUNCE,m,,,,,,0.498916478,-0.309910302,1,0,0,,0,49,49,109,1,
,,,,,,,,,,,,,,,,,,5f5a292573b827085d758463,2020-11-26_15h59.31.220,lexical_decision_task_MP_exp2,2020.2.5,Linux armv8l,60,,0,0.523472758,-0.311860686,1,0,0,0.6095,button_right,0.6095,0,,,,,,319,NW,"ID",33,zomber,ZOMBER,z,,,,,,0.523472758,-0.311860686,1,0,0,,0,50,50,258,1,
,,,,,,,,,,,,,,,,,,5f5a292573b827085d758463,2020-11-26_15h59.31.220,lexical_decision_task_MP_exp2,2020.2.5,Linux armv8l,60,,0,-0.504383013,-0.266269721,1,0,0,0.6579,button_left,0.6579,1,,,,,,331,NW,"ID",33,gilfew,GILFEW,z,,,,,,-0.504383013,-0.266269721,1,0,0,,0,51,51,270,1,
,,,,,,,,,,,,,,,,,,5f5a292573b827085d758463,2020-11-26_15h59.31.220,lexical_decision_task_MP_exp2,2020.2.5,Linux armv8l,60,,0,-0.498369235,-0.257005266,1,0,0,0.584,button_left,0.584,1,,,,,,307,NW,"ID",33,kirafe,KIRAFE,z,,,,,,-0.498369235,-0.257005266,1,0,0,,0,52,52,246,1,
,,,,,,,,,,,,,,,,,,5f5a292573b827085d758463,2020-11-26_15h59.31.220,lexical_decision_task_MP_exp2,2020.2.5,Linux armv8l,60,,0,0.507937089,-0.304546615,1,0,0,0.5873,button_right,0.5873,1,,,,,,192,WORD,UN,33,object,PLAGUE,m,,,,,,0.507937089,-0.304546615,1,0,0,,0,53,53,131,1,
,,,,,,,,,,,,,,,,,,5f5a292573b827085d758463,2020-11-26_15h59.31.220,lexical_decision_task_MP_exp2,2020.2.5,Linux armv8l,60,,0,-0.491353155,-0.275290406,1,0,0,0.5571,button_left,0.5571,1,,,,,,241,NW,UN,16,unwert,SMENCO,z,,,,,,-0.491353155,-0.275290406,1,0,0,,0,54,54,420,1,
,,,,,,,,,,,,,,,,,,5f5a292573b827085d758463,2020-11-26_15h59.31.220,lexical_decision_task_MP_exp2,2020.2.5,Linux armv8l,60,,0,0.503426857,-0.305278148,1,0,0,0.5739,button_right,0.5739,1,,,,,,12,WORD,UN,16,strive,ORANGE,m,,,,,,0.503426857,-0.305278148,1,0,0,,0,55,55,191,1,
,,,,,,,,,,,,,,,,,,5f5a292573b827085d758463,2020-11-26_15h59.31.220,lexical_decision_task_MP_exp2,2020.2.5,Linux armv8l,60,,0,-0.502879578,-0.261881264,1,0,0,0.6295,button_left,0.6295,1,,,,,,267,NW,UN,16,packes,PASINK,z,,,,,,-0.502879578,-0.261881264,1,0,0,,0,56,56,446,1,
,,,,,,,,,,,,,,,,,,5f5a292573b827085d758463,2020-11-26_15h59.31.220,lexical_decision_task_MP_exp2,2020.2.5,Linux armv8l,60,,0,-0.500373803,-0.275534176,1,0,0,0.6367,button_left,0.6367,1,,,,,,336,NW,"ID",33,ghodus,GHODUS,z,,,,,,-0.500373803,-0.275534176,1,0,0,,0,57,57,275,1,
,,,,,,,,,,,,,,,,,,5f5a292573b827085d758463,2020-11-26_15h59.31.220,lexical_decision_task_MP_exp2,2020.2.5,Linux armv8l,60,,0,-0.481831338,-0.281385551,1,0,0,0.6058,button_left,0.6058,1,,,,,,414,NW,"ID",16,serbol,SERBOL,z,,,,,,-0.481831338,-0.281385551,1,0,0,,0,58,58,353,1,
,,,,,,,,,,,,,,,,,,5f5a292573b827085d758463,2020-11-26_15h59.31.220,lexical_decision_task_MP_exp2,2020.2.5,Linux armv8l,60,,0,-0.474314088,-0.267976335,1,0,0,0.5725,button_left,0.5725,1,,,,,,466,NW,UN,33,robuly,HOCITE,z,,,,,,-0.474314088,-0.267976335,1,0,0,,0,59,59,405,1,
,,,,,,,,,,,,,,,,,,5f5a292573b827085d758463,2020-11-26_15h59.31.220,lexical_decision_task_MP_exp2,2020.2.5,Linux armv8l,60,,0,-0.459780795,-0.282604477,1,0,0,0.6322,button_left,0.6322,1,,,,,,306,NW,"ID",33,sounge,SOUNGE,z,,,,,,-0.459780795,-0.282604477,1,0,0,,0,60,60,245,1,
,,,,,,,,,,,,,,,,,,5f5a292573b827085d758463,2020-11-26_15h59.31.220,lexical_decision_task_MP_exp2,2020.2.5,Linux armv8l,60,,0,-0.472309483,-0.27577802,1,0,0,0.5566,button_left,0.5566,1,,,,,,392,NW,"ID",16,rouncy,ROUNCY,z,,,,,,-0.472309483,-0.27577802,1,0,0,,0,61,61,331,1,
,,,,,,,,,,,,,,,,,,5f5a292573b827085d758463,2020-11-26_15h59.31.220,lexical_decision_task_MP_exp2,2020.2.5,Linux armv8l,60,,0,-0.474815258,-0.275290406,1,0,0,0.5334,button_left,0.5334,1,,,,,,412,NW,"ID",16,jiluer,JILUER,z,,,,,,-0.474815258,-0.275290406,1,0,0,,0,62,62,351,1,
,,,,,,,,,,,,,,,,,,5f5a292573b827085d758463,2020-11-26_15h59.31.220,lexical_decision_task_MP_exp2,2020.2.5,Linux armv8l,60,,0,0.525477289,-0.296745078,1,0,0,0.6187,button_right,0.6187,1,,,,,,19,WORD,UN,16,breast,PATRON,m,,,,,,0.525477289,-0.296745078,1,0,0,,0,63,63,198,1,
,,,,,,,,,,,,,,,,,,5f5a292573b827085d758463,2020-11-26_15h59.31.220,lexical_decision_task_MP_exp2,2020.2.5,Linux armv8l,60,,0,0.528484159,-0.316005373,1,0,0,0.7081,button_right,0.7081,1,,,,,,54,WORD,UN,16,stroke,RAMBLE,m,,,,,,0.528484159,-0.316005373,1,0,0,,0,64,64,233,1,
,,,,,,,,,,,,,,,,,,5f5a292573b827085d758463,2020-11-26_15h59.31.220,lexical_decision_task_MP_exp2,2020.2.5,Linux armv8l,60,,0,-0.478323298,-0.276509405,1,0,0,0.5666,button_left,0.5666,1,,,,,,344,NW,"ID",33,scrily,SCRILY,z,,,,,,-0.478323298,-0.276509405,1,0,0,,0,65,65,283,1,
,,,,,,,,,,,,,,,,,,5f5a292573b827085d758463,2020-11-26_15h59.31.220,lexical_decision_task_MP_exp2,2020.2.5,Linux armv8l,60,,0,0.524976119,-0.318687143,1,0,0,0.6767,button_right,0.6767,1,,,,,,236,WORD,UN,33,grumpy,PIRATE,m,,,,,,0.524976119,-0.318687143,1,0,0,,0,66,66,175,1,
,,,,,,,,,,,,,,,,,,5f5a292573b827085d758463,2020-11-26_15h59.31.220,lexical_decision_task_MP_exp2,2020.2.5,Linux armv8l,60,,0,-0.48934855,-0.26870772,1,0,0,0.8304,button_left,0.8304,1,,,,,,419,NW,"ID",16,slount,SLOUNT,z,,,,,,-0.48934855,-0.26870772,1,0,0,,0,67,67,358,1,
,,,,,,,,,,,,,,,,,,5f5a292573b827085d758463,2020-11-26_15h59.31.220,lexical_decision_task_MP_exp2,2020.2.5,Linux armv8l,60,,0,-0.46128423,-0.274559095,1,0,0,0.5589,button_left,0.5589,0,,,,,,203,WORD,UN,33,burden,PHRASE,m,,,,,,-0.46128423,-0.274559095,1,0,0,,0,68,68,142,1,
,,,,,,,,,,,,,,,,,,5f5a292573b827085d758463,2020-11-26_15h59.31.220,lexical_decision_task_MP_exp2,2020.2.5,Linux armv8l,60,,0,-0.477822128,-0.26870772,1,0,0,0.8354,button_left,0.8354,1,,,,,,385,NW,"ID",16,veigma,VEIGMA,z,,,,,,-0.477822128,-0.26870772,1,0,0,,0,69,69,324,1,
,,,,,,,,,,,,,,,,,,5f5a292573b827085d758463,2020-11-26_15h59.31.220,lexical_decision_task_MP_exp2,2020.2.5,Linux armv8l,60,,0,-0.48934855,-0.266757335,1,0,0,0.6728,button_left,0.6728,1,,,,,,281,NW,UN,16,porlex,MELATY,z,,,,,,-0.48934855,-0.266757335,1,0,0,,0,70,70,460,1,
,,,,,,,,,,,,,,,,,,5f5a292573b827085d758463,2020-11-26_15h59.31.220,lexical_decision_task_MP_exp2,2020.2.5,Linux armv8l,60,,0,-0.490851986,-0.265294492,1,0,0,0.6221,button_left,0.6221,1,,,,,,297,NW,UN,16,piergy,FERTIC,z,,,,,,-0.490851986,-0.265294492,1,0,0,,0,71,71,476,1,
,,,,,,,,,,,,,,,,,,5f5a292573b827085d758463,2020-11-26_15h59.31.220,lexical_decision_task_MP_exp2,2020.2.5,Linux armv8l,60,,0,-0.502879578,-0.266757335,1,0,0,0.696,button_left,0.696,1,,,,,,260,NW,UN,16,stunch,UNJECT,z,,,,,,-0.502879578,-0.266757335,1,0,0,,0,72,72,439,1,
,,,,,,,,,,,,,,,,,,5f5a292573b827085d758463,2020-11-26_15h59.31.220,lexical_decision_task_MP_exp2,2020.2.5,Linux armv8l,60,,0,0.467344117,-0.319662372,1,0,0,0.5441,button_right,0.5441,1,,,,,,67,WORD,"ID",33,policy,POLICY,m,,,,,,0.467344117,-0.319662372,1,0,0,,0,73,73,6,1,
,,,,,,,,,,,,,,,,,,5f5a292573b827085d758463,2020-11-26_15h59.31.220,lexical_decision_task_MP_exp2,2020.2.5,Linux armv8l,60,,0,0.485886657,-0.300645847,1,0,0,0.6342,button_right,0.6342,1,,,,,,58,WORD,UN,16,splint,FOSTER,m,,,,,,0.485886657,-0.300645847,1,0,0,,0,74,74,237,1,
,,,,,,,,,,,,,,,,,,5f5a292573b827085d758463,2020-11-26_15h59.31.220,lexical_decision_task_MP_exp2,2020.2.5,Linux armv8l,60,,0,-0.488346248,-0.274071406,1,0,0,0.56,button_left,0.56,1,,,,,,334,NW,"ID",33,watmeg,WATMEG,z,,,,,,-0.488346248,-0.274071406,1,0,0,,0,75,75,273,1,
,,,,,,,,,,,,,,,,,,5f5a292573b827085d758463,2020-11-26_15h59.31.220,lexical_decision_task_MP_exp2,2020.2.5,Linux armv8l,60,,0,-0.500373803,-0.255054807,1,0,0,0.6314,button_left,0.6314,1,,,,,,264,NW,UN,16,distar,VACKEL,z,,,,,,-0.500373803,-0.255054807,1,0,0,,0,76,76,443,1,
,,,,,,,,,,,,,,,,,,5f5a292573b827085d758463,2020-11-26_15h59.31.220,lexical_decision_task_MP_exp2,2020.2.5,Linux armv8l,60,,0,0.512948638,-0.307228459,1,0,0,0.5892,button_right,0.5892,1,,,,,,169,WORD,"ID",16,genius,GENIUS,m,,,,,,0.512948638,-0.307228459,1,0,0,,0,77,77,108,1,
,,,,,,,,,,,,,,,,,,5f5a292573b827085d758463,2020-11-26_15h59.31.220,lexical_decision_task_MP_exp2,2020.2.5,Linux armv8l,60,,0,-0.48934855,-0.282360632,1,0,0,0.6119,button_left,0.6119,1,,,,,,363,NW,"ID",16,breali,BREALI,z,,,,,,-0.48934855,-0.282360632,1,0,0,,0,78,78,302,1,
,,,,,,,,,,,,,,,,,,5f5a292573b827085d758463,2020-11-26_15h59.31.220,lexical_decision_task_MP_exp2,2020.2.5,Linux armv8l,60,,0,-0.473311785,-0.273583792,1,0,0,0.6806,button_left,0.6806,1,,,,,,371,NW,"ID",16,geiloy,GEILOY,z,,,,,,-0.473311785,-0.273583792,1,0,0,,0,79,79,310,1,
,,,,,,,,,,,,,,,,,,5f5a292573b827085d758463,2020-11-26_15h59.31.220,lexical_decision_task_MP_exp2,2020.2.5,Linux armv8l,60,,0,-0.455270452,-0.282116862,1,0,0,0.5764,button_left,0.5764,1,,,,,,322,NW,"ID",33,slanch,SLANCH,z,,,,,,-0.455270452,-0.282116862,1,0,0,,0,80,80,261,1,
,,,,,,,,,,,,,,,,,,5f5a292573b827085d758463,2020-11-26_15h59.31.220,lexical_decision_task_MP_exp2,2020.2.5,Linux armv8l,60,,0,-0.486341643,-0.263100337,1,0,0,0.5667,button_left,0.5667,1,,,,,,451,NW,UN,33,surden,CAINKY,z,,,,,,-0.486341643,-0.263100337,1,0,0,,0,81,81,390,1,
,,,,,,,,,,,,,,,,,,5f5a292573b827085d758463,2020-11-26_15h59.31.220,lexical_decision_task_MP_exp2,2020.2.5,Linux armv8l,60,,0,-0.48233247,-0.247009351,1,0,0,0.566,button_left,0.566,1,,,,,,442,NW,UN,33,dorsex,ABOUNE,z,,,,,,-0.48233247,-0.247009351,1,0,0,,0,82,82,381,1,
,,,,,,,,,,,,,,,,,,5f5a292573b827085d758463,2020-11-26_15h59.31.220,lexical_decision_task_MP_exp2,2020.2.5,Linux armv8l,60,,0,-0.483334773,-0.258224265,1,0,0,0.5054,button_left,0.5054,1,,,,,,462,NW,UN,33,kispel,ABSULT,z,,,,,,-0.483334773,-0.258224265,1,0,0,,0,83,83,401,1,
,,,,,,,,,,,,,,,,,,5f5a292573b827085d758463,2020-11-26_15h59.31.220,lexical_decision_task_MP_exp2,2020.2.5,Linux armv8l,60,,0,-0.488346248,-0.263344107,1,0,0,0.5436,button_left,0.5436,1,,,,,,400,NW,"ID",16,wearox,WEAROX,z,,,,,,-0.488346248,-0.263344107,1,0,0,,0,84,84,339,1,
,,,,,,,,,,,,,,,,,,5f5a292573b827085d758463,2020-11-26_15h59.31.220,lexical_decision_task_MP_exp2,2020.2.5,Linux armv8l,60,,0,0.518962379,-0.317711988,1,0,0,0.7119,button_right,0.7119,1,,,,,,227,WORD,UN,33,master,SELDOM,m,,,,,,0.518962379,-0.317711988,1,0,0,,0,85,85,166,1,
,,,,,,,,,,,,,,,,,,5f5a292573b827085d758463,2020-11-26_15h59.31.220,lexical_decision_task_MP_exp2,2020.2.5,Linux armv8l,60,,0,0.513449956,-0.294794546,1,0,0,0.5299,button_right,0.5299,1,,,,,,229,WORD,UN,33,fringe,MOTHER,m,,,,,,0.513449956,-0.294794546,1,0,0,,0,86,86,168,1,
,,,,,,,,,,,,,,,,,,5f5a292573b827085d758463,2020-11-26_15h59.31.220,lexical_decision_task_MP_exp2,2020.2.5,Linux armv8l,60,,0,0.497914138,-0.317224447,1,0,0,0.5835,button_right,0.5835,1,,,,,,112,WORD,"ID",33,breath,BREATH,m,,,,,,0.497914138,-0.317224447,1,0,0,,0,87,87,51,1,
,,,,,,,,,,,,,,,,,,5f5a292573b827085d758463,2020-11-26_15h59.31.220,lexical_decision_task_MP_exp2,2020.2.5,Linux armv8l,60,,0,-0.489849683,-0.277972323,1,0,0,0.6075,button_left,0.6075,0,,,,,,16,WORD,UN,16,charge,FAUCET,m,,,,,,-0.489849683,-0.277972323,1,0,0,,0,88,88,195,1,
,,,,,,,,,,,,,,,,,,5f5a292573b827085d758463,2020-11-26_15h59.31.220,lexical_decision_task_MP_exp2,2020.2.5,Linux armv8l,60,,0,0.511445129,-0.301621002,1,0,0,0.7334,button_right,0.7334,1,,,,,,198,WORD,UN,33,invoke,WICKED,m,,,,,,0.511445129,-0.301621002,1,0,0,,0,89,89,137,1,
,,,,,,,,,,,,,,,,,,5f5a292573b827085d758463,2020-11-26_15h59.31.220,lexical_decision_task_MP_exp2,2020.2.5,Linux armv8l,60,,0,-0.495863498,-0.290162318,1,0,0,0.66,button_left,0.66,1,,,,,,366,NW,"ID",16,toshel,TOSHEL,z,,,,,,-0.495863498,-0.290162318,1,0,0,,0,90,90,305,1,
,,,,,,,,,,,,,,,,,,5f5a292573b827085d758463,2020-11-26_15h59.31.220,lexical_decision_task_MP_exp2,2020.2.5,Linux armv8l,60,,0,-0.493357723,-0.280654018,1,0,0,0.6127,button_left,0.6127,1,,,,,,342,NW,"ID",33,randow,RANDOW,z,,,,,,-0.493357723,-0.280654018,1,0,0,,0,91,91,281,1,
,,,,,,,,,,,,,,,,,,5f5a292573b827085d758463,2020-11-26_15h59.31.220,lexical_decision_task_MP_exp2,2020.2.5,Linux armv8l,60,,0,-0.505886411,-0.275290406,1,0,0,1.0867,button_left,1.0867,1,,,,,,332,NW,"ID",33,vangue,VANGUE,z,,,,,,-0.505886411,-0.275290406,1,0,0,,0,92,92,271,1,
,,,,,,,,,,,,,,,,,,5f5a292573b827085d758463,2020-11-26_15h59.31.220,lexical_decision_task_MP_exp2,2020.2.5,Linux armv8l,60,,0,0.532493369,-0.306497074,1,0,0,0.6595,button_right,0.6595,1,,,,,,151,WORD,"ID",16,mystic,MYSTIC,m,,,,,,0.532493369,-0.306497074,1,0,0,,0,93,93,90,1,
,,,,,,,,,,,,,,,,,,5f5a292573b827085d758463,2020-11-26_15h59.31.220,lexical_decision_task_MP_exp2,2020.2.5,Linux armv8l,60,,0,-0.486341643,-0.280166478,1,0,0,0.626,button_left,0.626,1,,,,,,320,NW,"ID",33,jockal,JOCKAL,z,,,,,,-0.486341643,-0.280166478,1,0,0,,0,94,94,259,1,
,,,,,,,,,,,,,,,,,,5f5a292573b827085d758463,2020-11-26_15h59.31.220,lexical_decision_task_MP_exp2,2020.2.5,Linux armv8l,60,,0,0.513449956,-0.304546615,1,0,0,0.6453,button_right,0.6453,1,,,,,,199,WORD,UN,33,plague,INVOKE,m,,,,,,0.513449956,-0.304546615,1,0,0,,0,95,95,138,1,
,,,,,,,,,,,,,,,,,,5f5a292573b827085d758463,2020-11-26_15h59.31.220,lexical_decision_task_MP_exp2,2020.2.5,Linux armv8l,60,,0,0.515955508,-0.295769775,1,0,0,0.6486,button_right,0.6486,1,,,,,,216,WORD,UN,33,liquor,BEHALF,m,,,,,,0.515955508,-0.295769775,1,0,0,,0,96,96,155,1,
,,,,,,,,,,,,,,,,,,5f5a292573b827085d758463,2020-11-26_15h59.31.220,lexical_decision_task_MP_exp2,2020.2.5,Linux armv8l,60,,0,-0.491353155,-0.274315177,1,0,0,0.6156,button_left,0.6156,1,,,,,,304,NW,"ID",33,cludie,CLUDIE,z,,,,,,-0.491353155,-0.274315177,1,0,0,,0,97,97,243,1,
,,,,,,,,,,,,,,,,,,5f5a292573b827085d758463,2020-11-26_15h59.31.220,lexical_decision_task_MP_exp2,2020.2.5,Linux armv8l,60,,0,-0.49285659,-0.269682949,1,0,0,0.5755,button_left,0.5755,1,,,,,,418,NW,"ID",16,suidle,SUIDLE,z,,,,,,-0.49285659,-0.269682949,1,0,0,,0,98,98,357,1,
,,,,,,,,,,,,,,,,,,5f5a292573b827085d758463,2020-11-26_15h59.31.220,lexical_decision_task_MP_exp2,2020.2.5,Linux armv8l,60,,0,-0.486842813,-0.274559095,1,0,0,0.6142,button_left,0.6142,1,,,,,,337,NW,"ID",33,rejols,REJOLS,z,,,,,,-0.486842813,-0.274559095,1,0,0,,0,99,99,276,1,
,,,,,,,,,,,,,,,,,,5f5a292573b827085d758463,2020-11-26_15h59.31.220,lexical_decision_task_MP_exp2,2020.2.5,Linux armv8l,60,,0,0.523472758,-0.307228459,1,0,0,0.5773,button_right,0.5773,1,,,,,,214,WORD,UN,33,phobia,INTAKE,m,,,,,,0.523472758,-0.307228459,1,0,0,,0,100,100,153,1,
,,,,,,,,,,,,,,,,,,5f5a292573b827085d758463,2020-11-26_15h59.31.220,lexical_decision_task_MP_exp2,2020.2.5,Linux armv8l,60,,0,0.522971588,-0.294063161,1,0,0,0.6601,button_right,0.6601,1,,,,,,59,WORD,UN,16,pencil,SPLINT,m,,,,,,0.522971588,-0.294063161,1,0,0,,0,101,101,238,1,
,,,,,,,,,,,,,,,,,,5f5a292573b827085d758463,2020-11-26_15h59.31.220,lexical_decision_task_MP_exp2,2020.2.5,Linux armv8l,60,,0,0.522470419,-0.302596231,1,0,0,0.5596,button_right,0.5596,1,,,,,,120,WORD,"ID",33,strain,STRAIN,m,,,,,,0.522470419,-0.302596231,1,0,0,,0,102,102,59,1,
,,,,,,,,,,,,,,,,,,5f5a292573b827085d758463,2020-11-26_15h59.31.220,lexical_decision_task_MP_exp2,2020.2.5,Linux armv8l,60,,0,0.500921009,-0.286017705,1,0,0,0.5774,button_right,0.5774,1,,,,,,168,WORD,"ID",16,answer,ANSWER,m,,,,,,0.500921009,-0.286017705,1,0,0,,0,103,103,107,1,
,,,,,,,,,,,,,,,,,,5f5a292573b827085d758463,2020-11-26_15h59.31.220,lexical_decision_task_MP_exp2,2020.2.5,Linux armv8l,60,,0,0.506934897,-0.289187089,1,0,0,0.5886,button_right,0.5886,1,,,,,,51,WORD,UN,16,impose,HUNGRY,m,,,,,,0.506934897,-0.289187089,1,0,0,,0,104,104,230,1,
,,,,,,,,,,,,,,,,,,5f5a292573b827085d758463,2020-11-26_15h59.31.220,lexical_decision_task_MP_exp2,2020.2.5,Linux armv8l,60,,0,-0.481330168,-0.26870772,1,0,0,0.6638,button_left,0.6638,1,,,,,,435,NW,UN,33,frutan,IMPURB,z,,,,,,-0.481330168,-0.26870772,1,0,0,,0,105,105,374,1,
,,,,,,,,,,,,,,,,,,5f5a292573b827085d758463,2020-11-26_15h59.31.220,lexical_decision_task_MP_exp2,2020.2.5,Linux armv8l,60,,0,0.515955508,-0.303571534,1,0,0,0.7247,button_right,0.7247,1,,,,,,183,WORD,UN,33,sleazy,MILDEW,m,,,,,,0.515955508,-0.303571534,1,0,0,,0,106,106,122,1,
,,,,,,,,,,,,,,,,,,5f5a292573b827085d758463,2020-11-26_15h59.31.220,lexical_decision_task_MP_exp2,2020.2.5,Linux armv8l,60,,0,-0.491353155,-0.267732639,1,0,0,0.5957,button_left,0.5957,1,,,,,,326,NW,"ID",33,iguade,IGUADE,z,,,,,,-0.491353155,-0.267732639,1,0,0,,0,107,107,265,1,
,,,,,,,,,,,,,,,,,,5f5a292573b827085d758463,2020-11-26_15h59.31.220,lexical_decision_task_MP_exp2,2020.2.5,Linux armv8l,60,,0,0.519964718,-0.309910302,1,0,0,0.6642,button_right,0.6642,1,,,,,,2,WORD,UN,16,knight,BRIDGE,m,,,,,,0.519964718,-0.309910302,1,0,0,,0,108,108,181,1,
,,,,,,,,,,,,,,,,,,5f5a292573b827085d758463,2020-11-26_15h59.31.220,lexical_decision_task_MP_exp2,2020.2.5,Linux armv8l,60,,0,0.509440598,-0.28553009,1,0,0,0.5267,button_right,0.5267,1,,,,,,107,WORD,"ID",33,slogan,SLOGAN,m,,,,,,0.509440598,-0.28553009,1,0,0,,0,109,109,46,1,
,,,,,,,,,,,,,,,,,,5f5a292573b827085d758463,2020-11-26_15h59.31.220,lexical_decision_task_MP_exp2,2020.2.5,Linux armv8l,60,,0,-0.499371538,-0.255298652,1,0,0,0.6293,button_left,0.6293,1,,,,,,463,NW,UN,33,chaite,KISPEL,z,,,,,,-0.499371538,-0.255298652,1,0,0,,0,110,110,402,1,
,,,,,,,,,,,,,,,,,,5f5a292573b827085d758463,2020-11-26_15h59.31.220,lexical_decision_task_MP_exp2,2020.2.5,Linux armv8l,60,,0,-0.477822128,-0.27699702,1,0,0,0.7088,button_left,0.7088,1,,,,,,390,NW,"ID",16,hatrus,HATRUS,z,,,,,,-0.477822128,-0.27699702,1,0,0,,0,111,111,329,1,
,,,,,,,,,,,,,,,,,,5f5a292573b827085d758463,2020-11-26_15h59.31.220,lexical_decision_task_MP_exp2,2020.2.5,Linux armv8l,60,,0,0.505932558,-0.295769775,1,0,0,0.6061,button_right,0.6061,1,,,,,,46,WORD,UN,16,income,SINGLE,m,,,,,,0.505932558,-0.295769775,1,0,0,,0,112,112,225,1,
,,,,,,,,,,,,,,,,,,5f5a292573b827085d758463,2020-11-26_15h59.31.220,lexical_decision_task_MP_exp2,2020.2.5,Linux armv8l,60,,0,0.525978459,-0.308691377,1,0,0,0.6986,button_right,0.6986,1,,,,,,10,WORD,UN,16,cruise,ETHNIC,m,,,,,,0.525978459,-0.308691377,1,0,0,,0,113,113,189,1,
,,,,,,,,,,,,,,,,,,5f5a292573b827085d758463,2020-11-26_15h59.31.220,lexical_decision_task_MP_exp2,2020.2.5,Linux armv8l,60,,0,0.498415308,-0.29528216,1,0,0,0.5646,button_right,0.5646,1,,,,,,37,WORD,UN,16,powder,INSULT,m,,,,,,0.498415308,-0.29528216,1,0,0,,0,114,114,216,1,
,,,,,,,,,,,,,,,,,,5f5a292573b827085d758463,2020-11-26_15h59.31.220,lexical_decision_task_MP_exp2,2020.2.5,Linux armv8l,60,,0,0.508939428,-0.294794546,1,0,0,0.5567,button_right,0.5567,1,,,,,,128,WORD,"ID",16,senior,SENIOR,m,,,,,,0.508939428,-0.294794546,1,0,0,,0,115,115,67,1,
,,,,,,,,,,,,,,,,,,5f5a292573b827085d758463,2020-11-26_15h59.31.220,lexical_decision_task_MP_exp2,2020.2.5,Linux armv8l,60,,0,0.527983138,-0.292844161,1,0,0,0.5987,button_right,0.5987,1,,,,,,205,WORD,UN,33,tailor,LOUNGE,m,,,,,,0.527983138,-0.292844161,1,0,0,,0,116,116,144,1,
,,,,,,,,,,,,,,,,,,5f5a292573b827085d758463,2020-11-26_15h59.31.220,lexical_decision_task_MP_exp2,2020.2.5,Linux armv8l,60,,0,0.502424518,-0.294794546,1,0,0,0.5722,button_right,0.5722,1,,,,,,219,WORD,UN,33,voyage,BUCKET,m,,,,,,0.502424518,-0.294794546,1,0,0,,0,117,117,158,1,
,,,,,,,,,,,,,,,,,,5f5a292573b827085d758463,2020-11-26_15h59.31.220,lexical_decision_task_MP_exp2,2020.2.5,Linux armv8l,60,,0,0.490898058,-0.294794546,1,0,0,0.6325,button_right,0.6325,1,,,,,,92,WORD,"ID",33,strand,STRAND,m,,,,,,0.490898058,-0.294794546,1,0,0,,0,118,118,31,1,
,,,,,,,,,,,,,,,,,,5f5a292573b827085d758463,2020-11-26_15h59.31.220,lexical_decision_task_MP_exp2,2020.2.5,Linux armv8l,60,,0,0.504429049,-0.300889617,1,0,0,0.5582,button_right,0.5582,1,,,,,,38,WORD,UN,16,insect,POWDER,m,,,,,,0.504429049,-0.300889617,1,0,0,,0,119,119,217,1,
,,,,,,,,,,,,,,,,,,5f5a292573b827085d758463,2020-11-26_15h59.31.220,lexical_decision_task_MP_exp2,2020.2.5,Linux armv8l,60,,0,-0.474314088,-0.265538336,1,0,0,0.7279,button_left,0.7279,1,,,,,,249,NW,UN,16,milted,BATROL,z,,,,,,0.149615908,-0.422790601,1,0,0,,0,120,120,428,1,break_done_button
,,,,,,,,,,,,,,,,,,5f5a292573b827085d758463,2020-11-26_15h59.31.220,lexical_decision_task_MP_exp2,2020.2.5,Linux armv8l,60,,0,-0.434222212,-0.259930879,1,0,0,1.0255,button_left,1.0255,1,,,,,,409,NW,"ID",16,elopia,ELOPIA,z,,,,,,-0.434222212,-0.259930879,1,0,0,,0,121,121,348,1,
,,,,,,,,,,,,,,,,,,5f5a292573b827085d758463,2020-11-26_15h59.31.220,lexical_decision_task_MP_exp2,2020.2.5,Linux armv8l,60,,0,-0.455270452,-0.251154039,1,0,0,0.6414,button_left,0.6414,1,,,,,,394,NW,"ID",16,spaqux,SPAQUX,z,,,,,,-0.455270452,-0.251154039,1,0,0,,0,122,122,333,1,
,,,,,,,,,,,,,,,,,,5f5a292573b827085d758463,2020-11-26_15h59.31.220,lexical_decision_task_MP_exp2,2020.2.5,Linux armv8l,60,,0,0.525978459,-0.303083846,1,0,0,0.5416,button_right,0.5416,1,,,,,,163,WORD,"ID",16,string,STRING,m,,,,,,0.525978459,-0.303083846,1,0,0,,0,123,123,102,1,
,,,,,,,,,,,,,,,,,,5f5a292573b827085d758463,2020-11-26_15h59.31.220,lexical_decision_task_MP_exp2,2020.2.5,Linux armv8l,60,,0,-0.441238292,-0.266269721,1,0,0,0.575,button_left,0.575,1,,,,,,289,NW,UN,16,splino,STARBY,z,,,,,,-0.441238292,-0.266269721,1,0,0,,0,124,124,468,1,
,,,,,,,,,,,,,,,,,,5f5a292573b827085d758463,2020-11-26_15h59.31.220,lexical_decision_task_MP_exp2,2020.2.5,Linux armv8l,60,,0,0.541514276,-0.311373072,1,0,0,0.6771,button_right,0.6771,1,,,,,,149,WORD,"ID",16,invade,INVADE,m,,,,,,0.541514276,-0.311373072,1,0,0,,0,125,125,88,1,
,,,,,,,,,,,,,,,,,,5f5a292573b827085d758463,2020-11-26_15h59.31.220,lexical_decision_task_MP_exp2,2020.2.5,Linux armv8l,60,,0,0.537003749,-0.295769775,1,0,0,0.6286,button_right,0.6286,1,,,,,,63,WORD,"ID",33,launch,LAUNCH,m,,,,,,0.537003749,-0.295769775,1,0,0,,0,126,126,2,1,
,,,,,,,,,,,,,,,,,,5f5a292573b827085d758463,2020-11-26_15h59.31.220,lexical_decision_task_MP_exp2,2020.2.5,Linux armv8l,60,,0,-0.446249767,-0.271633407,1,0,0,0.5268,button_left,0.5268,1,,,,,,360,NW,"ID",33,desory,DESORY,z,,,,,,-0.446249767,-0.271633407,1,0,0,,0,127,127,299,1,
,,,,,,,,,,,,,,,,,,5f5a292573b827085d758463,2020-11-26_15h59.31.220,lexical_decision_task_MP_exp2,2020.2.5,Linux armv8l,60,,0,0.540010619,-0.298939233,1,0,0,0.9257,button_right,0.9257,1,,,,,,82,WORD,"ID",33,stigma,STIGMA,m,,,,,,0.540010619,-0.298939233,1,0,0,,0,128,128,21,1,
,,,,,,,,,,,,,,,,,,5f5a292573b827085d758463,2020-11-26_15h59.31.220,lexical_decision_task_MP_exp2,2020.2.5,Linux armv8l,60,,0,-0.463789968,-0.259930879,1,0,0,0.592,button_left,0.592,1,,,,,,373,NW,"ID",16,bigent,BIGENT,z,,,,,,-0.463789968,-0.259930879,1,0,0,,0,129,129,312,1,
,,,,,,,,,,,,,,,,,,5f5a292573b827085d758463,2020-11-26_15h59.31.220,lexical_decision_task_MP_exp2,2020.2.5,Linux armv8l,60,,0,0.509941916,-0.297720159,1,0,0,0.7429,button_right,0.7429,1,,,,,,35,WORD,UN,16,vanish,SOCKET,m,,,,,,0.509941916,-0.297720159,1,0,0,,0,130,130,214,1,
,,,,,,,,,,,,,,,,,,5f5a292573b827085d758463,2020-11-26_15h59.31.220,lexical_decision_task_MP_exp2,2020.2.5,Linux armv8l,60,,0,-0.500874973,-0.251885423,1,0,0,0.6103,button_left,0.6103,1,,,,,,420,NW,"ID",16,gushop,GUSHOP,z,,,,,,-0.500874973,-0.251885423,1,0,0,,0,131,131,359,1,
,,,,,,,,,,,,,,,,,,5f5a292573b827085d758463,2020-11-26_15h59.31.220,lexical_decision_task_MP_exp2,2020.2.5,Linux armv8l,60,,0,-0.498870331,-0.24920358,1,0,0,0.5813,button_left,0.5813,0,,,,,,185,WORD,UN,33,portal,BOTHER,m,,,,,,-0.498870331,-0.24920358,1,0,0,,0,132,132,124,1,
,,,,,,,,,,,,,,,,,,5f5a292573b827085d758463,2020-11-26_15h59.31.220,lexical_decision_task_MP_exp2,2020.2.5,Linux armv8l,60,,0,-0.482833603,-0.245546656,1,0,0,0.8226,button_left,0.8226,1,,,,,,376,NW,"ID",16,iguare,IGUARE,z,,,,,,-0.482833603,-0.245546656,1,0,0,,0,133,133,315,1,
,,,,,,,,,,,,,,,,,,5f5a292573b827085d758463,2020-11-26_15h59.31.220,lexical_decision_task_MP_exp2,2020.2.5,Linux armv8l,60,,0,0.509440598,-0.291137547,1,0,0,0.8019,button_right,0.8019,1,,,,,,50,WORD,UN,16,hungry,SNATCH,m,,,,,,0.509440598,-0.291137547,1,0,0,,0,134,134,229,1,
,,,,,,,,,,,,,,,,,,5f5a292573b827085d758463,2020-11-26_15h59.31.220,lexical_decision_task_MP_exp2,2020.2.5,Linux armv8l,60,,0,-0.474314088,-0.260906182,1,0,0,0.709,button_left,0.709,1,,,,,,367,NW,"ID",16,slique,SLIQUE,z,,,,,,-0.474314088,-0.260906182,1,0,0,,0,135,135,306,1,
,,,,,,,,,,,,,,,,,,5f5a292573b827085d758463,2020-11-26_15h59.31.220,lexical_decision_task_MP_exp2,2020.2.5,Linux armv8l,60,,0,-0.460783097,-0.248472195,1,0,0,0.606,button_left,0.606,1,,,,,,286,NW,UN,16,nymbel,RELDON,z,,,,,,-0.460783097,-0.248472195,1,0,0,,0,136,136,465,1,
,,,,,,,,,,,,,,,,,,5f5a292573b827085d758463,2020-11-26_15h59.31.220,lexical_decision_task_MP_exp2,2020.2.5,Linux armv8l,60,,0,-0.460783097,-0.243108509,1,0,0,0.5503,button_left,0.5503,1,,,,,,255,NW,UN,16,inlors,APIGHT,z,,,,,,-0.460783097,-0.243108509,1,0,0,,0,137,137,434,1,
,,,,,,,,,,,,,,,,,,5f5a292573b827085d758463,2020-11-26_15h59.31.220,lexical_decision_task_MP_exp2,2020.2.5,Linux armv8l,60,,0,0.536502579,-0.291625236,1,0,0,0.5905,button_right,0.5905,1,,,,,,158,WORD,"ID",16,island,ISLAND,m,,,,,,0.536502579,-0.291625236,1,0,0,,0,138,138,97,1,
,,,,,,,,,,,,,,,,,,5f5a292573b827085d758463,2020-11-26_15h59.31.220,lexical_decision_task_MP_exp2,2020.2.5,Linux armv8l,60,,0,0.534498196,-0.294794546,1,0,0,0.5576,button_right,0.5576,1,,,,,,66,WORD,"ID",33,gospel,GOSPEL,m,,,,,,0.534498196,-0.294794546,1,0,0,,0,139,139,5,1,
,,,,,,,,,,,,,,,,,,5f5a292573b827085d758463,2020-11-26_15h59.31.220,lexical_decision_task_MP_exp2,2020.2.5,Linux armv8l,60,,0,-0.495863498,-0.257249036,1,0,0,0.6926,button_left,0.6926,1,,,,,,313,NW,"ID",33,paurse,PAURSE,z,,,,,,-0.495863498,-0.257249036,1,0,0,,0,140,140,252,1,
,,,,,,,,,,,,,,,,,,5f5a292573b827085d758463,2020-11-26_15h59.31.220,lexical_decision_task_MP_exp2,2020.2.5,Linux armv8l,60,,0,0.529486499,-0.288699548,1,0,0,0.5494,button_right,0.5494,1,,,,,,93,WORD,"ID",33,public,PUBLIC,m,,,,,,0.529486499,-0.288699548,1,0,0,,0,141,141,32,1,
,,,,,,,,,,,,,,,,,,5f5a292573b827085d758463,2020-11-26_15h59.31.220,lexical_decision_task_MP_exp2,2020.2.5,Linux armv8l,60,,0,-0.489849683,-0.256761421,1,0,0,0.5832,button_left,0.5832,1,,,,,,355,NW,"ID",33,zingly,ZINGLY,z,,,,,,-0.489849683,-0.256761421,1,0,0,,0,142,142,294,1,
,,,,,,,,,,,,,,,,,,5f5a292573b827085d758463,2020-11-26_15h59.31.220,lexical_decision_task_MP_exp2,2020.2.5,Linux armv8l,60,,0,-0.488346248,-0.244815123,1,0,0,1.0596,button_left,1.0596,1,,,,,,348,NW,"ID",33,dumple,DUMPLE,z,,,,,,-0.488346248,-0.244815123,1,0,0,,0,143,143,287,1,
,,,,,,,,,,,,,,,,,,5f5a292573b827085d758463,2020-11-26_15h59.31.220,lexical_decision_task_MP_exp2,2020.2.5,Linux armv8l,60,,0,-0.460281928,-0.259930879,1,0,0,0.6607,button_left,0.6607,0,,,,,,124,WORD,"ID",16,blouse,BLOUSE,m,,,,,,-0.460281928,-0.259930879,1,0,0,,0,144,144,63,1,
,,,,,,,,,,,,,,,,,,5f5a292573b827085d758463,2020-11-26_15h59.31.220,lexical_decision_task_MP_exp2,2020.2.5,Linux armv8l,60,,0,0.517960039,-0.292112776,1,0,0,0.6887,button_right,0.6887,1,,,,,,6,WORD,UN,16,anchor,BUNDLE,m,,,,,,0.517960039,-0.292112776,1,0,0,,0,145,145,185,1,
,,,,,,,,,,,,,,,,,,5f5a292573b827085d758463,2020-11-26_15h59.31.220,lexical_decision_task_MP_exp2,2020.2.5,Linux armv8l,60,,0,-0.476819825,-0.260906182,1,0,0,0.6978,button_left,0.6978,1,,,,,,368,NW,"ID",16,hornal,HORNAL,z,,,,,,-0.476819825,-0.260906182,1,0,0,,0,146,146,307,1,
,,,,,,,,,,,,,,,,,,5f5a292573b827085d758463,2020-11-26_15h59.31.220,lexical_decision_task_MP_exp2,2020.2.5,Linux armv8l,60,,0,-0.460783097,-0.262856493,1,0,0,0.7125,button_left,0.7125,1,,,,,,389,NW,"ID",16,witmer,WITMER,z,,,,,,-0.460783097,-0.262856493,1,0,0,,0,147,147,328,1,
,,,,,,,,,,,,,,,,,,5f5a292573b827085d758463,2020-11-26_15h59.31.220,lexical_decision_task_MP_exp2,2020.2.5,Linux armv8l,60,,0,-0.452764715,-0.270901949,1,0,0,0.8492,button_left,0.8492,0,,,,,,176,WORD,"ID",16,strife,STRIFE,m,,,,,,-0.452764715,-0.270901949,1,0,0,,0,148,148,115,1,
,,,,,,,,,,,,,,,,,,5f5a292573b827085d758463,2020-11-26_15h59.31.220,lexical_decision_task_MP_exp2,2020.2.5,Linux armv8l,60,,0,0.513449956,-0.282604477,1,0,0,0.6968,button_right,0.6968,1,,,,,,204,WORD,UN,33,lounge,BURDEN,m,,,,,,0.513449956,-0.282604477,1,0,0,,0,149,149,143,1,
,,,,,,,,,,,,,,,,,,5f5a292573b827085d758463,2020-11-26_15h59.31.220,lexical_decision_task_MP_exp2,2020.2.5,Linux armv8l,60,,0,-0.472309483,-0.270658178,1,0,0,0.8267,button_left,0.8267,1,,,,,,423,NW,UN,33,praile,STRELD,z,,,,,,-0.472309483,-0.270658178,1,0,0,,0,150,150,362,1,
,,,,,,,,,,,,,,,,,,5f5a292573b827085d758463,2020-11-26_15h59.31.220,lexical_decision_task_MP_exp2,2020.2.5,Linux armv8l,60,,0,0.524976119,-0.295769775,1,0,0,0.6579,button_right,0.6579,1,,,,,,8,WORD,UN,16,hustle,ABRUPT,m,,,,,,0.524976119,-0.295769775,1,0,0,,0,151,151,187,1,
,,,,,,,,,,,,,,,,,,5f5a292573b827085d758463,2020-11-26_15h59.31.220,lexical_decision_task_MP_exp2,2020.2.5,Linux armv8l,60,,0,-0.483334773,-0.261881264,1,0,0,0.6138,button_left,0.6138,1,,,,,,421,NW,UN,33,alcoud,KNISMA,z,,,,,,-0.483334773,-0.261881264,1,0,0,,0,152,152,360,1,
,,,,,,,,,,,,,,,,,,5f5a292573b827085d758463,2020-11-26_15h59.31.220,lexical_decision_task_MP_exp2,2020.2.5,Linux armv8l,60,,0,-0.469302613,-0.268951564,1,0,0,0.7265,button_left,0.7265,1,,,,,,294,NW,UN,16,gleath,INHORT,z,,,,,,-0.469302613,-0.268951564,1,0,0,,0,153,153,473,1,
,,,,,,,,,,,,,,,,,,5f5a292573b827085d758463,2020-11-26_15h59.31.220,lexical_decision_task_MP_exp2,2020.2.5,Linux armv8l,60,,0,0.532493369,-0.280654018,1,0,0,0.5759,button_right,0.5759,1,,,,,,175,WORD,"ID",16,fabric,FABRIC,m,,,,,,0.532493369,-0.280654018,1,0,0,,0,154,154,114,1,
,,,,,,,,,,,,,,,,,,5f5a292573b827085d758463,2020-11-26_15h59.31.220,lexical_decision_task_MP_exp2,2020.2.5,Linux armv8l,60,,0,0.529486499,-0.282848247,1,0,0,0.5758,button_right,0.5758,1,,,,,,84,WORD,"ID",33,mortal,MORTAL,m,,,,,,0.529486499,-0.282848247,1,0,0,,0,155,155,23,1,
,,,,,,,,,,,,,,,,,,5f5a292573b827085d758463,2020-11-26_15h59.31.220,lexical_decision_task_MP_exp2,2020.2.5,Linux armv8l,60,,0,0.546525529,-0.270658178,1,0,0,0.7306,button_right,0.7306,1,,,,,,77,WORD,"ID",33,racket,RACKET,m,,,,,,0.546525529,-0.270658178,1,0,0,,0,156,156,16,1,
,,,,,,,,,,,,,,,,,,5f5a292573b827085d758463,2020-11-26_15h59.31.220,lexical_decision_task_MP_exp2,2020.2.5,Linux armv8l,60,,0,0.523974076,-0.290406162,1,0,0,0.5792,button_right,0.5792,1,,,,,,228,WORD,UN,33,kidney,MASTER,m,,,,,,0.523974076,-0.290406162,1,0,0,,0,157,157,167,1,
,,,,,,,,,,,,,,,,,,5f5a292573b827085d758463,2020-11-26_15h59.31.220,lexical_decision_task_MP_exp2,2020.2.5,Linux armv8l,60,,0,-0.484838208,-0.265782106,1,0,0,0.5958,button_left,0.5958,1,,,,,,318,NW,"ID",33,reagly,REAGLY,z,,,,,,-0.484838208,-0.265782106,1,0,0,,0,158,158,257,1,
,,,,,,,,,,,,,,,,,,5f5a292573b827085d758463,2020-11-26_15h59.31.220,lexical_decision_task_MP_exp2,2020.2.5,Linux armv8l,60,,0,-0.494861195,-0.242377124,1,0,0,0.7317,button_left,0.7317,1,,,,,,370,NW,"ID",16,sleact,SLEACT,z,,,,,,-0.494861195,-0.242377124,1,0,0,,0,159,159,309,1,
,,,,,,,,,,,,,,,,,,5f5a292573b827085d758463,2020-11-26_15h59.31.220,lexical_decision_task_MP_exp2,2020.2.5,Linux armv8l,60,,0,0.551035909,-0.295526005,1,0,0,0.628,button_right,0.628,1,,,,,,232,WORD,UN,33,nature,INJECT,m,,,,,,0.551035909,-0.295526005,1,0,0,,0,160,160,171,1,
,,,,,,,,,,,,,,,,,,5f5a292573b827085d758463,2020-11-26_15h59.31.220,lexical_decision_task_MP_exp2,2020.2.5,Linux armv8l,60,,0,-0.478323298,-0.265294492,1,0,0,0.6226,button_left,0.6226,1,,,,,,405,NW,"ID",16,flumni,FLUMNI,z,,,,,,-0.478323298,-0.265294492,1,0,0,,0,161,161,344,1,
,,,,,,,,,,,,,,,,,,5f5a292573b827085d758463,2020-11-26_15h59.31.220,lexical_decision_task_MP_exp2,2020.2.5,Linux armv8l,60,,0,0.528985329,-0.265782106,1,0,0,0.7256,button_right,0.7256,1,,,,,,156,WORD,"ID",16,cradle,CRADLE,m,,,,,,0.528985329,-0.265782106,1,0,0,,0,162,162,95,1,
,,,,,,,,,,,,,,,,,,5f5a292573b827085d758463,2020-11-26_15h59.31.220,lexical_decision_task_MP_exp2,2020.2.5,Linux armv8l,60,,0,-0.469803745,-0.248715965,1,0,0,0.6082,button_left,0.6082,1,,,,,,271,NW,UN,16,damilt,AUBRID,z,,,,,,-0.469803745,-0.248715965,1,0,0,,0,163,163,450,1,
,,,,,,,,,,,,,,,,,,5f5a292573b827085d758463,2020-11-26_15h59.31.220,lexical_decision_task_MP_exp2,2020.2.5,Linux armv8l,60,,0,-0.481831338,-0.250666498,1,0,0,0.8479,button_left,0.8479,1,,,,,,395,NW,"ID",16,colury,COLURY,z,,,,,,-0.481831338,-0.250666498,1,0,0,,0,164,164,334,1,
,,,,,,,,,,,,,,,,,,5f5a292573b827085d758463,2020-11-26_15h59.31.220,lexical_decision_task_MP_exp2,2020.2.5,Linux armv8l,60,,0,0.539008279,-0.282360632,1,0,0,0.6301,button_right,0.6301,1,,,,,,234,WORD,UN,33,poster,CLUMSY,m,,,,,,0.539008279,-0.282360632,1,0,0,,0,165,165,173,1,
,,,,,,,,,,,,,,,,,,5f5a292573b827085d758463,2020-11-26_15h59.31.220,lexical_decision_task_MP_exp2,2020.2.5,Linux armv8l,60,,0,-0.491353155,-0.274559095,1,0,0,0.5967,button_left,0.5967,1,,,,,,356,NW,"ID",33,othnis,OTHNIS,z,,,,,,-0.491353155,-0.274559095,1,0,0,,0,166,166,295,1,
,,,,,,,,,,,,,,,,,,5f5a292573b827085d758463,2020-11-26_15h59.31.220,lexical_decision_task_MP_exp2,2020.2.5,Linux armv8l,60,,0,0.517960039,-0.277728405,1,0,0,0.6222,button_right,0.6222,1,,,,,,117,WORD,"ID",33,branch,BRANCH,m,,,,,,0.517960039,-0.277728405,1,0,0,,0,167,167,56,1,
,,,,,,,,,,,,,,,,,,5f5a292573b827085d758463,2020-11-26_15h59.31.220,lexical_decision_task_MP_exp2,2020.2.5,Linux armv8l,60,,0,-0.490350853,-0.278703634,1,0,0,0.6265,button_left,0.6265,1,,,,,,391,NW,"ID",16,theldy,THELDY,z,,,,,,-0.490350853,-0.278703634,1,0,0,,0,168,168,330,1,
,,,,,,,,,,,,,,,,,,5f5a292573b827085d758463,2020-11-26_15h59.31.220,lexical_decision_task_MP_exp2,2020.2.5,Linux armv8l,60,,0,-0.49285659,-0.279922633,1,0,0,0.7463,button_left,0.7463,1,,,,,,377,NW,"ID",16,injore,INJORE,z,,,,,,-0.49285659,-0.279922633,1,0,0,,0,169,169,316,1,
,,,,,,,,,,,,,,,,,,5f5a292573b827085d758463,2020-11-26_15h59.31.220,lexical_decision_task_MP_exp2,2020.2.5,Linux armv8l,60,,0,0.509440598,-0.294306931,1,0,0,0.6325,button_right,0.6325,1,,,,,,5,WORD,UN,16,bundle,PLUNGE,m,,,,,,0.509440598,-0.294306931,1,0,0,,0,170,170,184,1,
,,,,,,,,,,,,,,,,,,5f5a292573b827085d758463,2020-11-26_15h59.31.220,lexical_decision_task_MP_exp2,2020.2.5,Linux armv8l,60,,0,0.539509449,-0.253835808,1,0,0,0.7433,button_right,0.7433,0,,,,,,303,NW,"ID",33,fiream,FIREAM,z,,,,,,0.539509449,-0.253835808,1,0,0,,0,171,171,242,1,
,,,,,,,,,,,,,,,,,,5f5a292573b827085d758463,2020-11-26_15h59.31.220,lexical_decision_task_MP_exp2,2020.2.5,Linux armv8l,60,,0,-0.448755505,-0.285773861,1,0,0,0.6139,button_left,0.6139,1,,,,,,459,NW,UN,33,mingar,BAFENT,z,,,,,,-0.448755505,-0.285773861,1,0,0,,0,172,172,398,1,
,,,,,,,,,,,,,,,,,,5f5a292573b827085d758463,2020-11-26_15h59.31.220,lexical_decision_task_MP_exp2,2020.2.5,Linux armv8l,60,,0,-0.479325563,-0.273340022,1,0,0,0.6253,button_left,0.6253,1,,,,,,433,NW,UN,33,pitrom,DRANCE,z,,,,,,-0.479325563,-0.273340022,1,0,0,,0,173,173,372,1,
,,,,,,,,,,,,,,,,,,5f5a292573b827085d758463,2020-11-26_15h59.31.220,lexical_decision_task_MP_exp2,2020.2.5,Linux armv8l,60,,0,-0.481831338,-0.273583792,1,0,0,0.8376,button_left,0.8376,1,,,,,,284,NW,UN,16,prudge,SHAPLE,z,,,,,,-0.481831338,-0.273583792,1,0,0,,0,174,174,463,1,
,,,,,,,,,,,,,,,,,,5f5a292573b827085d758463,2020-11-26_15h59.31.220,lexical_decision_task_MP_exp2,2020.2.5,Linux armv8l,60,,0,-0.486341643,-0.262368878,1,0,0,0.8434,button_left,0.8434,1,,,,,,250,NW,UN,16,lupict,MILTED,z,,,,,,-0.486341643,-0.262368878,1,0,0,,0,175,175,429,1,
,,,,,,,,,,,,,,,,,,5f5a292573b827085d758463,2020-11-26_15h59.31.220,lexical_decision_task_MP_exp2,2020.2.5,Linux armv8l,60,,0,0.522470419,-0.290406162,1,0,0,0.6964,button_right,0.6964,1,,,,,,220,WORD,UN,33,mascot,VOYAGE,m,,,,,,0.522470419,-0.290406162,1,0,0,,0,176,176,159,1,
,,,,,,,,,,,,,,,,,,5f5a292573b827085d758463,2020-11-26_15h59.31.220,lexical_decision_task_MP_exp2,2020.2.5,Linux armv8l,60,,0,-0.46830031,-0.253592037,1,0,0,0.6463,button_left,0.6463,1,,,,,,380,NW,"ID",16,cavory,CAVORY,z,,,,,,-0.46830031,-0.253592037,1,0,0,,0,177,177,319,1,
,,,,,,,,,,,,,,,,,,5f5a292573b827085d758463,2020-11-26_15h59.31.220,lexical_decision_task_MP_exp2,2020.2.5,Linux armv8l,60,,0,0.510442937,-0.28553009,1,0,0,0.6073,button_right,0.6073,1,,,,,,127,WORD,"ID",16,castle,CASTLE,m,,,,,,0.510442937,-0.28553009,1,0,0,,0,178,178,66,1,
,,,,,,,,,,,,,,,,,,5f5a292573b827085d758463,2020-11-26_15h59.31.220,lexical_decision_task_MP_exp2,2020.2.5,Linux armv8l,60,,0,0.511445129,-0.289430933,1,0,0,0.6513,button_right,0.6513,1,,,,,,62,WORD,"ID",33,region,REGION,m,,,,,,0.511445129,-0.289430933,1,0,0,,0,179,179,1,1,
,,,,,,,,,,,,,,,,,,5f5a292573b827085d758463,2020-11-26_15h59.31.220,lexical_decision_task_MP_exp2,2020.2.5,Linux armv8l,60,,0,0.499918817,-0.284067247,1,0,0,0.6418,button_right,0.6418,1,,,,,,178,WORD,"ID",16,inform,INFORM,m,,,,,,0.499918817,-0.284067247,1,0,0,,0,180,180,117,1,
,,,,,,,,,,,,,,,,,,5f5a292573b827085d758463,2020-11-26_15h59.31.220,lexical_decision_task_MP_exp2,2020.2.5,Linux armv8l,60,,0,0.539509449,-0.270414334,1,0,0,0.6044,button_right,0.6044,1,,,,,,83,WORD,"ID",33,result,RESULT,m,,,,,,0.539509449,-0.270414334,1,0,0,,0,181,181,22,1,
,,,,,,,,,,,,,,,,,,5f5a292573b827085d758463,2020-11-26_15h59.31.220,lexical_decision_task_MP_exp2,2020.2.5,Linux armv8l,60,,0,0.537504918,-0.283823476,1,0,0,0.8303,button_right,0.8303,1,,,,,,226,WORD,UN,33,flower,CASINO,m,,,,,,0.537504918,-0.283823476,1,0,0,,0,182,182,165,1,
,,,,,,,,,,,,,,,,,,5f5a292573b827085d758463,2020-11-26_15h59.31.220,lexical_decision_task_MP_exp2,2020.2.5,Linux armv8l,60,,0,-0.502879578,-0.263100337,1,0,0,0.6547,button_left,0.6547,1,,,,,,291,NW,UN,16,ablint,PRETCH,z,,,,,,-0.502879578,-0.263100337,1,0,0,,0,183,183,470,1,
,,,,,,,,,,,,,,,,,,5f5a292573b827085d758463,2020-11-26_15h59.31.220,lexical_decision_task_MP_exp2,2020.2.5,Linux armv8l,60,,0,-0.481831338,-0.258468035,1,0,0,0.7927,button_left,0.7927,1,,,,,,408,NW,"ID",16,hurnia,HURNIA,z,,,,,,-0.481831338,-0.258468035,1,0,0,,0,184,184,347,1,
,,,,,,,,,,,,,,,,,,5f5a292573b827085d758463,2020-11-26_15h59.31.220,lexical_decision_task_MP_exp2,2020.2.5,Linux armv8l,60,,0,-0.487343946,-0.258468035,1,0,0,0.6353,button_left,0.6353,1,,,,,,436,NW,UN,33,snapel,FRUTAN,z,,,,,,-0.487343946,-0.258468035,1,0,0,,0,185,185,375,1,
,,,,,,,,,,,,,,,,,,5f5a292573b827085d758463,2020-11-26_15h59.31.220,lexical_decision_task_MP_exp2,2020.2.5,Linux armv8l,60,,0,-0.478323298,-0.262612797,1,0,0,0.5753,button_left,0.5753,1,,,,,,279,NW,UN,16,curbol,CELOND,z,,,,,,-0.478323298,-0.262612797,1,0,0,,0,186,186,458,1,
,,,,,,,,,,,,,,,,,,5f5a292573b827085d758463,2020-11-26_15h59.31.220,lexical_decision_task_MP_exp2,2020.2.5,Linux armv8l,60,,0,-0.482833603,-0.257980495,1,0,0,0.7583,button_left,0.7583,1,,,,,,364,NW,"ID",16,impote,IMPOTE,z,,,,,,-0.482833603,-0.257980495,1,0,0,,0,187,187,303,1,
,,,,,,,,,,,,,,,,,,5f5a292573b827085d758463,2020-11-26_15h59.31.220,lexical_decision_task_MP_exp2,2020.2.5,Linux armv8l,60,,0,0.542516319,-0.279191249,1,0,0,0.7742,button_right,0.7742,1,,,,,,125,WORD,"ID",16,nickel,NICKEL,m,,,,,,0.542516319,-0.279191249,1,0,0,,0,188,188,64,1,
,,,,,,,,,,,,,,,,,,5f5a292573b827085d758463,2020-11-26_15h59.31.220,lexical_decision_task_MP_exp2,2020.2.5,Linux armv8l,60,,0,-0.473311785,-0.271633407,1,0,0,0.8099,button_left,0.8099,1,,,,,,431,NW,UN,33,lunker,CHRUMS,z,,,,,,-0.473311785,-0.271633407,1,0,0,,0,189,189,370,1,
,,,,,,,,,,,,,,,,,,5f5a292573b827085d758463,2020-11-26_15h59.31.220,lexical_decision_task_MP_exp2,2020.2.5,Linux armv8l,60,,0,0.551035909,-0.29528216,1,0,0,0.569,button_right,0.569,1,,,,,,207,WORD,UN,33,hockey,WREATH,m,,,,,,0.551035909,-0.29528216,1,0,0,,0,190,190,146,1,
,,,,,,,,,,,,,,,,,,5f5a292573b827085d758463,2020-11-26_15h59.31.220,lexical_decision_task_MP_exp2,2020.2.5,Linux armv8l,60,,0,-0.486341643,-0.261881264,1,0,0,0.6069,button_left,0.6069,1,,,,,,404,NW,"ID",16,cluirm,CLUIRM,z,,,,,,-0.486341643,-0.261881264,1,0,0,,0,191,191,343,1,
,,,,,,,,,,,,,,,,,,5f5a292573b827085d758463,2020-11-26_15h59.31.220,lexical_decision_task_MP_exp2,2020.2.5,Linux armv8l,60,,0,-0.496865763,-0.244083738,1,0,0,0.6762,button_left,0.6762,1,,,,,,261,NW,UN,16,quilew,STUNCH,z,,,,,,-0.496865763,-0.244083738,1,0,0,,0,192,192,440,1,
,,,,,,,,,,,,,,,,,,5f5a292573b827085d758463,2020-11-26_15h59.31.220,lexical_decision_task_MP_exp2,2020.2.5,Linux armv8l,60,,0,-0.487845115,-0.26724495,1,0,0,0.6917,button_left,0.6917,0,,,,,,61,WORD,"ID",33,ponder,PONDER,m,,,,,,-0.487845115,-0.26724495,1,0,0,,0,193,193,0,1,
,,,,,,,,,,,,,,,,,,5f5a292573b827085d758463,2020-11-26_15h59.31.220,lexical_decision_task_MP_exp2,2020.2.5,Linux armv8l,60,,0,-0.476318693,-0.248472195,1,0,0,0.858,button_left,0.858,1,,,,,,464,NW,UN,33,whivex,CHAITE,z,,,,,,-0.476318693,-0.248472195,1,0,0,,0,194,194,403,1,
,,,,,,,,,,,,,,,,,,5f5a292573b827085d758463,2020-11-26_15h59.31.220,lexical_decision_task_MP_exp2,2020.2.5,Linux armv8l,60,,0,-0.474815258,-0.265050721,1,0,0,0.6453,button_left,0.6453,1,,,,,,383,NW,"ID",16,aungre,AUNGRE,z,,,,,,-0.474815258,-0.265050721,1,0,0,,0,195,195,322,1,
,,,,,,,,,,,,,,,,,,5f5a292573b827085d758463,2020-11-26_15h59.31.220,lexical_decision_task_MP_exp2,2020.2.5,Linux armv8l,60,,0,0.559054477,-0.27724079,1,0,0,0.6935,button_right,0.6935,1,,,,,,201,WORD,UN,33,factor,ADMIRE,m,,,,,,0.559054477,-0.27724079,1,0,0,,0,196,196,140,1,
,,,,,,,,,,,,,,,,,,5f5a292573b827085d758463,2020-11-26_15h59.31.220,lexical_decision_task_MP_exp2,2020.2.5,Linux armv8l,60,,0,0.540511789,-0.283579706,1,0,0,0.6357,button_right,0.6357,1,,,,,,132,WORD,"ID",16,strong,STRONG,m,,,,,,0.540511789,-0.283579706,1,0,0,,0,197,197,71,1,
,,,,,,,,,,,,,,,,,,5f5a292573b827085d758463,2020-11-26_15h59.31.220,lexical_decision_task_MP_exp2,2020.2.5,Linux armv8l,60,,0,-0.473812955,-0.26748872,1,0,0,0.6641,button_left,0.6641,1,,,,,,321,NW,"ID",33,miator,MIATOR,z,,,,,,-0.473812955,-0.26748872,1,0,0,,0,198,198,260,1,
,,,,,,,,,,,,,,,,,,5f5a292573b827085d758463,2020-11-26_15h59.31.220,lexical_decision_task_MP_exp2,2020.2.5,Linux armv8l,60,,0,-0.474815258,-0.283335862,1,0,0,0.6138,button_left,0.6138,1,,,,,,339,NW,"ID",33,fachow,FACHOW,z,,,,,,-0.474815258,-0.283335862,1,0,0,,0,199,199,278,1,
,,,,,,,,,,,,,,,,,,5f5a292573b827085d758463,2020-11-26_15h59.31.220,lexical_decision_task_MP_exp2,2020.2.5,Linux armv8l,60,,0,0.569578597,-0.290649933,1,0,0,0.657,button_right,0.657,1,,,,,,224,WORD,UN,33,vulgar,PERIOD,m,,,,,,0.569578597,-0.290649933,1,0,0,,0,200,200,163,1,
,,,,,,,,,,,,,,,,,,5f5a292573b827085d758463,2020-11-26_15h59.31.220,lexical_decision_task_MP_exp2,2020.2.5,Linux armv8l,60,,0,0.543518659,-0.289918622,1,0,0,0.8907,button_right,0.8907,1,,,,,,85,WORD,"ID",33,sprawl,SPRAWL,m,,,,,,0.543518659,-0.289918622,1,0,0,,0,201,201,24,1,
,,,,,,,,,,,,,,,,,,5f5a292573b827085d758463,2020-11-26_15h59.31.220,lexical_decision_task_MP_exp2,2020.2.5,Linux armv8l,60,,0,0.530488838,-0.30479046,1,0,0,0.5405,button_right,0.5405,1,,,,,,177,WORD,"ID",16,advent,ADVENT,m,,,,,,0.530488838,-0.30479046,1,0,0,,0,202,202,116,1,
,,,,,,,,,,,,,,,,,,5f5a292573b827085d758463,2020-11-26_15h59.31.220,lexical_decision_task_MP_exp2,2020.2.5,Linux armv8l,60,,0,0.548029039,-0.275534176,1,0,0,0.5387,button_right,0.5387,1,,,,,,146,WORD,"ID",16,couple,COUPLE,m,,,,,,0.548029039,-0.275534176,1,0,0,,0,203,203,85,1,
,,,,,,,,,,,,,,,,,,5f5a292573b827085d758463,2020-11-26_15h59.31.220,lexical_decision_task_MP_exp2,2020.2.5,Linux armv8l,60,,0,-0.490851986,-0.274802791,1,0,0,0.6012,button_left,0.6012,1,,,,,,308,NW,"ID",33,psetch,PSETCH,z,,,,,,-0.490851986,-0.274802791,1,0,0,,0,204,204,247,1,
,,,,,,,,,,,,,,,,,,5f5a292573b827085d758463,2020-11-26_15h59.31.220,lexical_decision_task_MP_exp2,2020.2.5,Linux armv8l,60,,0,-0.449757807,-0.276509405,1,0,0,0.7629,button_left,0.7629,1,,,,,,438,NW,UN,33,limpor,BAITCH,z,,,,,,-0.449757807,-0.276509405,1,0,0,,0,205,205,377,1,
,,,,,,,,,,,,,,,,,,5f5a292573b827085d758463,2020-11-26_15h59.31.220,lexical_decision_task_MP_exp2,2020.2.5,Linux armv8l,60,,0,0.55304044,-0.288455704,1,0,0,0.5953,button_right,0.5953,1,,,,,,89,WORD,"ID",33,permit,PERMIT,m,,,,,,0.55304044,-0.288455704,1,0,0,,0,206,206,28,1,
,,,,,,,,,,,,,,,,,,5f5a292573b827085d758463,2020-11-26_15h59.31.220,lexical_decision_task_MP_exp2,2020.2.5,Linux armv8l,60,,0,-0.456773888,-0.264806951,1,0,0,0.6111,button_left,0.6111,1,,,,,,465,NW,UN,33,bafent,WHIVEX,z,,,,,,-0.456773888,-0.264806951,1,0,0,,0,207,207,404,1,
,,,,,,,,,,,,,,,,,,5f5a292573b827085d758463,2020-11-26_15h59.31.220,lexical_decision_task_MP_exp2,2020.2.5,Linux armv8l,60,,0,0.542015298,-0.289187089,1,0,0,0.691,button_right,0.691,1,,,,,,212,WORD,UN,33,squeal,VERIFY,m,,,,,,0.542015298,-0.289187089,1,0,0,,0,208,208,151,1,
,,,,,,,,,,,,,,,,,,5f5a292573b827085d758463,2020-11-26_15h59.31.220,lexical_decision_task_MP_exp2,2020.2.5,Linux armv8l,60,,0,0.544019829,-0.288943318,1,0,0,0.5274,button_right,0.5274,1,,,,,,69,WORD,"ID",33,plenty,PLENTY,m,,,,,,0.544019829,-0.288943318,1,0,0,,0,209,209,8,1,
,,,,,,,,,,,,,,,,,,5f5a292573b827085d758463,2020-11-26_15h59.31.220,lexical_decision_task_MP_exp2,2020.2.5,Linux armv8l,60,,0,-0.456773888,-0.267976335,1,0,0,0.5822,button_left,0.5822,1,,,,,,467,NW,UN,33,wictor,GORBIE,z,,,,,,-0.456773888,-0.267976335,1,0,0,,0,210,210,406,1,
,,,,,,,,,,,,,,,,,,5f5a292573b827085d758463,2020-11-26_15h59.31.220,lexical_decision_task_MP_exp2,2020.2.5,Linux armv8l,60,,0,-0.469803745,-0.259687109,1,0,0,0.6502,button_left,0.6502,1,,,,,,388,NW,"ID",16,cragin,CRAGIN,z,,,,,,-0.469803745,-0.259687109,1,0,0,,0,211,211,327,1,
,,,,,,,,,,,,,,,,,,5f5a292573b827085d758463,2020-11-26_15h59.31.220,lexical_decision_task_MP_exp2,2020.2.5,Linux armv8l,60,,0,-0.493357723,-0.25773665,1,0,0,0.7314,button_left,0.7314,1,,,,,,461,NW,UN,33,absult,JUSTRE,z,,,,,,-0.493357723,-0.25773665,1,0,0,,0,212,212,400,1,
,,,,,,,,,,,,,,,,,,5f5a292573b827085d758463,2020-11-26_15h59.31.220,lexical_decision_task_MP_exp2,2020.2.5,Linux armv8l,60,,0,-0.496364631,-0.25871188,1,0,0,0.6131,button_left,0.6131,1,,,,,,301,NW,"ID",33,fainch,FAINCH,z,,,,,,-0.496364631,-0.25871188,1,0,0,,0,213,213,240,1,
,,,,,,,,,,,,,,,,,,5f5a292573b827085d758463,2020-11-26_15h59.31.220,lexical_decision_task_MP_exp2,2020.2.5,Linux armv8l,60,,0,-0.508893356,-0.259199568,1,0,0,0.8144,button_left,0.8144,1,,,,,,402,NW,"ID",16,syntic,SYNTIC,z,,,,,,-0.508893356,-0.259199568,1,0,0,,0,214,214,341,1,
,,,,,,,,,,,,,,,,,,5f5a292573b827085d758463,2020-11-26_15h59.31.220,lexical_decision_task_MP_exp2,2020.2.5,Linux armv8l,60,,0,0.536001409,-0.28674909,1,0,0,0.5628,button_right,0.5628,1,,,,,,130,WORD,"ID",16,stupid,STUPID,m,,,,,,0.536001409,-0.28674909,1,0,0,,0,215,215,69,1,
,,,,,,,,,,,,,,,,,,5f5a292573b827085d758463,2020-11-26_15h59.31.220,lexical_decision_task_MP_exp2,2020.2.5,Linux armv8l,60,,0,-0.498369235,-0.278703634,1,0,0,0.746,button_left,0.746,1,,,,,,403,NW,"ID",16,bruats,BRUATS,z,,,,,,-0.498369235,-0.278703634,1,0,0,,0,216,216,342,1,
,,,,,,,,,,,,,,,,,,5f5a292573b827085d758463,2020-11-26_15h59.31.220,lexical_decision_task_MP_exp2,2020.2.5,Linux armv8l,60,,0,0.530488838,-0.260418494,1,0,0,0.9291,button_right,0.9291,0,,,,,,471,NW,UN,33,cigney,NOBEST,z,,,,,,0.530488838,-0.260418494,1,0,0,,0,217,217,410,1,
,,,,,,,,,,,,,,,,,,5f5a292573b827085d758463,2020-11-26_15h59.31.220,lexical_decision_task_MP_exp2,2020.2.5,Linux armv8l,60,,0,0.516456678,-0.267732639,1,0,0,0.6605,button_right,0.6605,1,,,,,,108,WORD,"ID",33,reckon,RECKON,m,,,,,,0.516456678,-0.267732639,1,0,0,,0,218,218,47,1,
,,,,,,,,,,,,,,,,,,5f5a292573b827085d758463,2020-11-26_15h59.31.220,lexical_decision_task_MP_exp2,2020.2.5,Linux armv8l,60,,0,0.54602436,-0.284554861,1,0,0,0.8911,button_right,0.8911,1,,,,,,166,WORD,"ID",16,starch,STARCH,m,,,,,,0.54602436,-0.284554861,1,0,0,,0,219,219,105,1,
,,,,,,,,,,,,,,,,,,5f5a292573b827085d758463,2020-11-26_15h59.31.220,lexical_decision_task_MP_exp2,2020.2.5,Linux armv8l,60,,0,-0.466295705,-0.256761421,1,0,0,0.7744,button_left,0.7744,1,,,,,,416,NW,"ID",16,pathel,PATHEL,z,,,,,,-0.466295705,-0.256761421,1,0,0,,0,220,220,355,1,
,,,,,,,,,,,,,,,,,,5f5a292573b827085d758463,2020-11-26_15h59.31.220,lexical_decision_task_MP_exp2,2020.2.5,Linux armv8l,60,,0,0.521969249,-0.271633407,1,0,0,0.6476,button_right,0.6476,1,,,,,,181,WORD,UN,33,winter,GLANCE,m,,,,,,0.521969249,-0.271633407,1,0,0,,0,221,221,120,1,
,,,,,,,,,,,,,,,,,,5f5a292573b827085d758463,2020-11-26_15h59.31.220,lexical_decision_task_MP_exp2,2020.2.5,Linux armv8l,60,,0,0.523472758,-0.26846395,1,0,0,0.9327,button_right,0.9327,1,,,,,,29,WORD,UN,16,orient,SKETCH,m,,,,,,0.523472758,-0.26846395,1,0,0,,0,222,222,208,1,
,,,,,,,,,,,,,,,,,,5f5a292573b827085d758463,2020-11-26_15h59.31.220,lexical_decision_task_MP_exp2,2020.2.5,Linux armv8l,60,,0,0.524976119,-0.270414334,1,0,0,0.66,button_right,0.66,1,,,,,,164,WORD,"ID",16,market,MARKET,m,,,,,,0.524976119,-0.270414334,1,0,0,,0,223,223,103,1,
,,,,,,,,,,,,,,,,,,5f5a292573b827085d758463,2020-11-26_15h59.31.220,lexical_decision_task_MP_exp2,2020.2.5,Linux armv8l,60,,0,-0.487343946,-0.252860653,1,0,0,0.7379,button_left,0.7379,1,,,,,,425,NW,UN,33,urivel,FRUDGE,z,,,,,,-0.487343946,-0.252860653,1,0,0,,0,224,224,364,1,
,,,,,,,,,,,,,,,,,,5f5a292573b827085d758463,2020-11-26_15h59.31.220,lexical_decision_task_MP_exp2,2020.2.5,Linux armv8l,60,,0,0.532994539,-0.280897863,1,0,0,0.6083,button_right,0.6083,1,,,,,,64,WORD,"ID",33,throne,THRONE,m,,,,,,0.532994539,-0.280897863,1,0,0,,0,225,225,3,1,
,,,,,,,,,,,,,,,,,,5f5a292573b827085d758463,2020-11-26_15h59.31.220,lexical_decision_task_MP_exp2,2020.2.5,Linux armv8l,60,,0,-0.479325563,-0.25895565,1,0,0,0.6527,button_left,0.6527,1,,,,,,456,NW,UN,33,wanigh,BROGET,z,,,,,,-0.479325563,-0.25895565,1,0,0,,0,226,226,395,1,
,,,,,,,,,,,,,,,,,,5f5a292573b827085d758463,2020-11-26_15h59.31.220,lexical_decision_task_MP_exp2,2020.2.5,Linux armv8l,60,,0,-0.47882443,-0.249691195,1,0,0,0.6326,button_left,0.6326,1,,,,,,329,NW,"ID",33,yarike,YARIKE,z,,,,,,-0.47882443,-0.249691195,1,0,0,,0,227,227,268,1,
,,,,,,,,,,,,,,,,,,5f5a292573b827085d758463,2020-11-26_15h59.31.220,lexical_decision_task_MP_exp2,2020.2.5,Linux armv8l,60,,0,0.507435919,-0.289430933,1,0,0,0.6029,button_right,0.6029,1,,,,,,22,WORD,UN,16,wealth,JOCKEY,m,,,,,,0.507435919,-0.289430933,1,0,0,,0,228,228,201,1,
,,,,,,,,,,,,,,,,,,5f5a292573b827085d758463,2020-11-26_15h59.31.220,lexical_decision_task_MP_exp2,2020.2.5,Linux armv8l,60,,0,0.523974076,-0.275046636,1,0,0,0.5937,button_right,0.5937,1,,,,,,194,WORD,UN,33,resign,ABSENT,m,,,,,,0.523974076,-0.275046636,1,0,0,,0,229,229,133,1,
,,,,,,,,,,,,,,,,,,5f5a292573b827085d758463,2020-11-26_15h59.31.220,lexical_decision_task_MP_exp2,2020.2.5,Linux armv8l,60,,0,-0.463288835,-0.259199568,1,0,0,0.7562,button_left,0.7562,1,,,,,,386,NW,"ID",16,ancust,ANCUST,z,,,,,,-0.463288835,-0.259199568,1,0,0,,0,230,230,325,1,
,,,,,,,,,,,,,,,,,,5f5a292573b827085d758463,2020-11-26_15h59.31.220,lexical_decision_task_MP_exp2,2020.2.5,Linux armv8l,60,,0,-0.470304915,-0.262612797,1,0,0,0.6561,button_left,0.6561,1,,,,,,269,NW,UN,16,wrimsy,ORCHET,z,,,,,,-0.470304915,-0.262612797,1,0,0,,0,231,231,448,1,
,,,,,,,,,,,,,,,,,,5f5a292573b827085d758463,2020-11-26_15h59.31.220,lexical_decision_task_MP_exp2,2020.2.5,Linux armv8l,60,,0,-0.452263545,-0.246034196,1,0,0,0.7352,button_left,0.7352,1,,,,,,298,NW,UN,16,sturch,PIERGY,z,,,,,,-0.452263545,-0.246034196,1,0,0,,0,232,232,477,1,
,,,,,,,,,,,,,,,,,,5f5a292573b827085d758463,2020-11-26_15h59.31.220,lexical_decision_task_MP_exp2,2020.2.5,Linux armv8l,60,,0,-0.486842813,-0.235306971,1,0,0,0.7852,button_left,0.7852,1,,,,,,305,NW,"ID",33,forgle,FORGLE,z,,,,,,-0.486842813,-0.235306971,1,0,0,,0,233,233,244,1,
,,,,,,,,,,,,,,,,,,5f5a292573b827085d758463,2020-11-26_15h59.31.220,lexical_decision_task_MP_exp2,2020.2.5,Linux armv8l,60,,0,-0.488346248,-0.223360673,1,0,0,0.6281,button_left,0.6281,1,,,,,,446,NW,UN,33,gircue,RUNAMO,z,,,,,,-0.488346248,-0.223360673,1,0,0,,0,234,234,385,1,
,,,,,,,,,,,,,,,,,,5f5a292573b827085d758463,2020-11-26_15h59.31.220,lexical_decision_task_MP_exp2,2020.2.5,Linux armv8l,60,,0,0.526479628,-0.288943318,1,0,0,0.6297,button_right,0.6297,1,,,,,,91,WORD,"ID",33,expand,EXPAND,m,,,,,,0.526479628,-0.288943318,1,0,0,,0,235,235,30,1,
,,,,,,,,,,,,,,,,,,5f5a292573b827085d758463,2020-11-26_15h59.31.220,lexical_decision_task_MP_exp2,2020.2.5,Linux armv8l,60,,0,0.526980798,-0.274559095,1,0,0,0.5442,button_right,0.5442,1,,,,,,102,WORD,"ID",33,direct,DIRECT,m,,,,,,0.526980798,-0.274559095,1,0,0,,0,236,236,41,1,
,,,,,,,,,,,,,,,,,,5f5a292573b827085d758463,2020-11-26_15h59.31.220,lexical_decision_task_MP_exp2,2020.2.5,Linux armv8l,60,,0,0.543017489,-0.263100337,1,0,0,0.724,button_right,0.724,0,,,,,,454,NW,UN,33,tondle,SCOUGE,z,,,,,,0.543017489,-0.263100337,1,0,0,,0,237,237,393,1,
,,,,,,,,,,,,,,,,,,5f5a292573b827085d758463,2020-11-26_15h59.31.220,lexical_decision_task_MP_exp2,2020.2.5,Linux armv8l,60,,0,0.524475098,-0.275534176,1,0,0,0.6729,button_right,0.6729,1,,,,,,41,WORD,UN,16,chapel,SPRING,m,,,,,,0.524475098,-0.275534176,1,0,0,,0,238,238,220,1,
,,,,,,,,,,,,,,,,,,5f5a292573b827085d758463,2020-11-26_15h59.31.220,lexical_decision_task_MP_exp2,2020.2.5,Linux armv8l,60,,0,-0.474314088,-0.251885423,1,0,0,0.6443,button_left,0.6443,1,,,,,,258,NW,UN,16,soudal,POLUTH,z,,,,,,-0.474314088,-0.251885423,1,0,0,,0,239,239,437,1,
,,,,,,,,,,,,,,,,,,5f5a292573b827085d758463,2020-11-26_15h59.31.220,lexical_decision_task_MP_exp2,2020.2.5,Linux armv8l,60,,0,0.529486499,-0.273340022,1,0,0,0.7792,button_right,0.7792,1,,,,,,140,WORD,"ID",16,prince,PRINCE,m,,,,,,0.529486499,-0.273340022,1,0,0,,0,240,240,79,1,
,,,,,,,,,,,,,,,,,,5f5a292573b827085d758463,2020-11-26_15h59.31.220,lexical_decision_task_MP_exp2,2020.2.5,Linux armv8l,60,,0,-0.46479227,-0.254079726,1,0,0,0.5932,button_left,0.5932,1,,,,,,311,NW,"ID",33,sproly,SPROLY,z,,,,,,0.058406867,-0.382075782,1,0,0,,0,241,241,250,1,break_done_button
,,,,,,,,,,,,,,,,,,5f5a292573b827085d758463,2020-11-26_15h59.31.220,lexical_decision_task_MP_exp2,2020.2.5,Linux armv8l,60,,0,-0.473311785,-0.301377232,1,0,0,0.6559,button_left,0.6559,0,,,,,,68,WORD,"ID",33,fumble,FUMBLE,m,,,,,,-0.473311785,-0.301377232,1,0,0,,0,242,242,7,1,
,,,,,,,,,,,,,,,,,,5f5a292573b827085d758463,2020-11-26_15h59.31.220,lexical_decision_task_MP_exp2,2020.2.5,Linux armv8l,60,,0,-0.503380711,-0.262856493,1,0,0,0.7323,button_left,0.7323,1,,,,,,381,NW,"ID",16,huniek,HUNIEK,z,,,,,,-0.503380711,-0.262856493,1,0,0,,0,243,243,320,1,
,,,,,,,,,,,,,,,,,,5f5a292573b827085d758463,2020-11-26_15h59.31.220,lexical_decision_task_MP_exp2,2020.2.5,Linux armv8l,60,,0,0.495909756,-0.307228459,1,0,0,0.6384,button_right,0.6384,0,,,,,,345,NW,"ID",33,absend,ABSEND,z,,,,,,0.495909756,-0.307228459,1,0,0,,0,244,244,284,1,
,,,,,,,,,,,,,,,,,,5f5a292573b827085d758463,2020-11-26_15h59.31.220,lexical_decision_task_MP_exp2,2020.2.5,Linux armv8l,60,,0,0.484383148,-0.301621002,1,0,0,0.8236,button_right,0.8236,1,,,,,,230,WORD,UN,33,mother,FRINGE,m,,,,,,0.484383148,-0.301621002,1,0,0,,0,245,245,169,1,
,,,,,,,,,,,,,,,,,,5f5a292573b827085d758463,2020-11-26_15h59.31.220,lexical_decision_task_MP_exp2,2020.2.5,Linux armv8l,60,,0,0.475362537,-0.30186492,1,0,0,0.6361,button_right,0.6361,1,,,,,,13,WORD,UN,16,almost,STRIVE,m,,,,,,0.475362537,-0.30186492,1,0,0,,0,246,246,192,1,
,,,,,,,,,,,,,,,,,,5f5a292573b827085d758463,2020-11-26_15h59.31.220,lexical_decision_task_MP_exp2,2020.2.5,Linux armv8l,60,,0,-0.452764715,-0.267976335,1,0,0,0.6436,button_left,0.6436,1,,,,,,443,NW,UN,33,jaunce,DORSEX,z,,,,,,-0.452764715,-0.267976335,1,0,0,,0,247,247,382,1,
,,,,,,,,,,,,,,,,,,5f5a292573b827085d758463,2020-11-26_15h59.31.220,lexical_decision_task_MP_exp2,2020.2.5,Linux armv8l,60,,0,0.475863559,-0.303327616,1,0,0,0.574,button_right,0.574,1,,,,,,17,WORD,UN,16,humble,CHARGE,m,,,,,,0.475863559,-0.303327616,1,0,0,,0,248,248,196,1,
,,,,,,,,,,,,,,,,,,5f5a292573b827085d758463,2020-11-26_15h59.31.220,lexical_decision_task_MP_exp2,2020.2.5,Linux armv8l,60,,0,-0.481330168,-0.272852481,1,0,0,0.6064,button_left,0.6064,1,,,,,,243,NW,UN,16,eatric,MUSIED,z,,,,,,-0.481330168,-0.272852481,1,0,0,,0,249,249,422,1,
,,,,,,,,,,,,,,,,,,5f5a292573b827085d758463,2020-11-26_15h59.31.220,lexical_decision_task_MP_exp2,2020.2.5,Linux armv8l,60,,0,0.483881978,-0.302108617,1,0,0,0.6045,button_right,0.6045,1,,,,,,141,WORD,"ID",16,orphan,ORPHAN,m,,,,,,0.483881978,-0.302108617,1,0,0,,0,250,250,80,1,
,,,,,,,,,,,,,,,,,,5f5a292573b827085d758463,2020-11-26_15h59.31.220,lexical_decision_task_MP_exp2,2020.2.5,Linux armv8l,60,,0,-0.46830031,-0.269195334,1,0,0,0.55,button_left,0.55,1,,,,,,362,NW,"ID",16,tireau,TIREAU,z,,,,,,-0.46830031,-0.269195334,1,0,0,,0,251,251,301,1,
,,,,,,,,,,,,,,,,,,5f5a292573b827085d758463,2020-11-26_15h59.31.220,lexical_decision_task_MP_exp2,2020.2.5,Linux armv8l,60,,0,-0.447753203,-0.269682949,1,0,0,0.6579,button_left,0.6579,1,,,,,,474,NW,UN,33,acrise,HABLIN,z,,,,,,-0.447753203,-0.269682949,1,0,0,,0,252,252,413,1,
,,,,,,,,,,,,,,,,,,5f5a292573b827085d758463,2020-11-26_15h59.31.220,lexical_decision_task_MP_exp2,2020.2.5,Linux armv8l,60,,0,-0.439734857,-0.257492954,1,0,0,0.7383,button_left,0.7383,0,,,,,,30,WORD,UN,16,weapon,ORIENT,m,,,,,,-0.439734857,-0.257492954,1,0,0,,0,253,253,209,1,
,,,,,,,,,,,,,,,,,,5f5a292573b827085d758463,2020-11-26_15h59.31.220,lexical_decision_task_MP_exp2,2020.2.5,Linux armv8l,60,,0,0.486387679,-0.295526005,1,0,0,0.5909,button_right,0.5909,1,,,,,,191,WORD,UN,33,beacon,STABLE,m,,,,,,0.486387679,-0.295526005,1,0,0,,0,254,254,130,1,
,,,,,,,,,,,,,,,,,,5f5a292573b827085d758463,2020-11-26_15h59.31.220,lexical_decision_task_MP_exp2,2020.2.5,Linux armv8l,60,,0,0.493403759,-0.279435019,1,0,0,0.6144,button_right,0.6144,1,,,,,,7,WORD,UN,16,abrupt,ANCHOR,m,,,,,,0.493403759,-0.279435019,1,0,0,,0,255,255,186,1,
,,,,,,,,,,,,,,,,,,5f5a292573b827085d758463,2020-11-26_15h59.31.220,lexical_decision_task_MP_exp2,2020.2.5,Linux armv8l,60,,0,0.503927879,-0.28674909,1,0,0,0.5685,button_right,0.5685,1,,,,,,119,WORD,"ID",33,spider,SPIDER,m,,,,,,0.503927879,-0.28674909,1,0,0,,0,256,256,58,1,
,,,,,,,,,,,,,,,,,,5f5a292573b827085d758463,2020-11-26_15h59.31.220,lexical_decision_task_MP_exp2,2020.2.5,Linux armv8l,60,,0,-0.466295705,-0.25773665,1,0,0,0.6587,button_left,0.6587,1,,,,,,374,NW,"ID",16,sliant,SLIANT,z,,,,,,-0.466295705,-0.25773665,1,0,0,,0,257,257,313,1,
,,,,,,,,,,,,,,,,,,5f5a292573b827085d758463,2020-11-26_15h59.31.220,lexical_decision_task_MP_exp2,2020.2.5,Linux armv8l,60,,0,0.502424518,-0.279922633,1,0,0,0.5956,button_right,0.5956,1,,,,,,162,WORD,"ID",16,candle,CANDLE,m,,,,,,0.502424518,-0.279922633,1,0,0,,0,258,258,101,1,
,,,,,,,,,,,,,,,,,,5f5a292573b827085d758463,2020-11-26_15h59.31.220,lexical_decision_task_MP_exp2,2020.2.5,Linux armv8l,60,,0,-0.470304915,-0.249691195,1,0,0,0.5951,button_left,0.5951,1,,,,,,316,NW,"ID",33,scregm,SCREGM,z,,,,,,-0.470304915,-0.249691195,1,0,0,,0,259,259,255,1,
,,,,,,,,,,,,,,,,,,5f5a292573b827085d758463,2020-11-26_15h59.31.220,lexical_decision_task_MP_exp2,2020.2.5,Linux armv8l,60,,0,0.527482116,-0.280166478,1,0,0,0.6111,button_right,0.6111,1,,,,,,136,WORD,"ID",16,bleach,BLEACH,m,,,,,,0.527482116,-0.280166478,1,0,0,,0,260,260,75,1,
,,,,,,,,,,,,,,,,,,5f5a292573b827085d758463,2020-11-26_15h59.31.220,lexical_decision_task_MP_exp2,2020.2.5,Linux armv8l,60,,0,0.504429049,-0.282604477,1,0,0,0.5738,button_right,0.5738,1,,,,,,48,WORD,UN,16,survey,WALNUT,m,,,,,,0.504429049,-0.282604477,1,0,0,,0,261,261,227,1,
,,,,,,,,,,,,,,,,,,5f5a292573b827085d758463,2020-11-26_15h59.31.220,lexical_decision_task_MP_exp2,2020.2.5,Linux armv8l,60,,0,0.506433876,-0.297720159,1,0,0,0.6308,button_right,0.6308,1,,,,,,72,WORD,"ID",33,bright,BRIGHT,m,,,,,,0.506433876,-0.297720159,1,0,0,,0,262,262,11,1,
,,,,,,,,,,,,,,,,,,5f5a292573b827085d758463,2020-11-26_15h59.31.220,lexical_decision_task_MP_exp2,2020.2.5,Linux armv8l,60,,0,0.498916478,-0.286017705,1,0,0,0.6143,button_right,0.6143,1,,,,,,231,WORD,UN,33,inject,EXPORT,m,,,,,,0.498916478,-0.286017705,1,0,0,,0,263,263,170,1,
,,,,,,,,,,,,,,,,,,5f5a292573b827085d758463,2020-11-26_15h59.31.220,lexical_decision_task_MP_exp2,2020.2.5,Linux armv8l,60,,0,0.514953169,-0.287724319,1,0,0,0.5756,button_right,0.5756,1,,,,,,26,WORD,UN,16,butler,SPRINT,m,,,,,,0.514953169,-0.287724319,1,0,0,,0,264,264,205,1,
,,,,,,,,,,,,,,,,,,5f5a292573b827085d758463,2020-11-26_15h59.31.220,lexical_decision_task_MP_exp2,2020.2.5,Linux armv8l,60,,0,-0.452263545,-0.273096177,1,0,0,0.5871,button_left,0.5871,1,,,,,,457,NW,UN,33,barcet,WANIGH,z,,,,,,-0.452263545,-0.273096177,1,0,0,,0,265,265,396,1,
,,,,,,,,,,,,,,,,,,5f5a292573b827085d758463,2020-11-26_15h59.31.220,lexical_decision_task_MP_exp2,2020.2.5,Linux armv8l,60,,0,-0.460281928,-0.242620968,1,0,0,0.6046,button_left,0.6046,1,,,,,,349,NW,"ID",33,asylen,ASYLEN,z,,,,,,-0.460281928,-0.242620968,1,0,0,,0,266,266,288,1,
,,,,,,,,,,,,,,,,,,5f5a292573b827085d758463,2020-11-26_15h59.31.220,lexical_decision_task_MP_exp2,2020.2.5,Linux armv8l,60,,0,-0.468801443,-0.264563107,1,0,0,0.6209,button_left,0.6209,1,,,,,,375,NW,"ID",16,yorque,YORQUE,z,,,,,,-0.468801443,-0.264563107,1,0,0,,0,267,267,314,1,
,,,,,,,,,,,,,,,,,,5f5a292573b827085d758463,2020-11-26_15h59.31.220,lexical_decision_task_MP_exp2,2020.2.5,Linux armv8l,60,,0,-0.474815258,-0.246277967,1,0,0,0.6736,button_left,0.6736,1,,,,,,453,NW,UN,33,scouge,BOLVIS,z,,,,,,-0.474815258,-0.246277967,1,0,0,,0,268,268,392,1,
,,,,,,,,,,,,,,,,,,5f5a292573b827085d758463,2020-11-26_15h59.31.220,lexical_decision_task_MP_exp2,2020.2.5,Linux armv8l,60,,0,-0.483334773,-0.251397809,1,0,0,0.5539,button_left,0.5539,1,,,,,,427,NW,UN,33,tandly,SCHIND,z,,,,,,-0.483334773,-0.251397809,1,0,0,,0,269,269,366,1,
,,,,,,,,,,,,,,,,,,5f5a292573b827085d758463,2020-11-26_15h59.31.220,lexical_decision_task_MP_exp2,2020.2.5,Linux armv8l,60,,0,-0.491353155,-0.253835808,1,0,0,0.6132,button_left,0.6132,1,,,,,,470,NW,UN,33,nobest,CRUDIO,z,,,,,,-0.491353155,-0.253835808,1,0,0,,0,270,270,409,1,
,,,,,,,,,,,,,,,,,,5f5a292573b827085d758463,2020-11-26_15h59.31.220,lexical_decision_task_MP_exp2,2020.2.5,Linux armv8l,60,,0,-0.47882443,-0.245790352,1,0,0,0.5939,button_left,0.5939,1,,,,,,399,NW,"ID",16,fouret,FOURET,z,,,,,,-0.47882443,-0.245790352,1,0,0,,0,271,271,338,1,
,,,,,,,,,,,,,,,,,,5f5a292573b827085d758463,2020-11-26_15h59.31.220,lexical_decision_task_MP_exp2,2020.2.5,Linux armv8l,60,,0,-0.474314088,-0.230430825,1,0,0,0.6332,button_left,0.6332,1,,,,,,266,NW,UN,16,pasink,VARMIT,z,,,,,,-0.474314088,-0.230430825,1,0,0,,0,272,272,445,1,
,,,,,,,,,,,,,,,,,,5f5a292573b827085d758463,2020-11-26_15h59.31.220,lexical_decision_task_MP_exp2,2020.2.5,Linux armv8l,60,,0,-0.466796875,-0.219215912,1,0,0,0.5329,button_left,0.5329,1,,,,,,472,NW,UN,33,gorbie,CIGNEY,z,,,,,,-0.466796875,-0.219215912,1,0,0,,0,273,273,411,1,
,,,,,,,,,,,,,,,,,,5f5a292573b827085d758463,2020-11-26_15h59.31.220,lexical_decision_task_MP_exp2,2020.2.5,Linux armv8l,60,,0,-0.452764715,-0.257249036,1,0,0,0.5436,button_left,0.5436,1,,,,,,445,NW,UN,33,runamo,MINKEL,z,,,,,,-0.452764715,-0.257249036,1,0,0,,0,274,274,384,1,
,,,,,,,,,,,,,,,,,,5f5a292573b827085d758463,2020-11-26_15h59.31.220,lexical_decision_task_MP_exp2,2020.2.5,Linux armv8l,60,,0,-0.45426815,-0.247496966,1,0,0,0.5666,button_left,0.5666,1,,,,,,333,NW,"ID",33,catrie,CATRIE,z,,,,,,-0.45426815,-0.247496966,1,0,0,,0,275,275,272,1,
,,,,,,,,,,,,,,,,,,5f5a292573b827085d758463,2020-11-26_15h59.31.220,lexical_decision_task_MP_exp2,2020.2.5,Linux armv8l,60,,0,-0.454769283,-0.26870772,1,0,0,0.5465,button_left,0.5465,1,,,,,,439,NW,UN,33,saride,LIMPOR,z,,,,,,-0.454769283,-0.26870772,1,0,0,,0,276,276,378,1,
,,,,,,,,,,,,,,,,,,5f5a292573b827085d758463,2020-11-26_15h59.31.220,lexical_decision_task_MP_exp2,2020.2.5,Linux armv8l,60,,0,0.558051989,-0.28553009,1,0,0,0.6137,button_right,0.6137,1,,,,,,165,WORD,"ID",16,invest,INVEST,m,,,,,,0.558051989,-0.28553009,1,0,0,,0,277,277,104,1,
,,,,,,,,,,,,,,,,,,5f5a292573b827085d758463,2020-11-26_15h59.31.220,lexical_decision_task_MP_exp2,2020.2.5,Linux armv8l,60,,0,-0.452764715,-0.268951564,1,0,0,0.675,button_left,0.675,1,,,,,,398,NW,"ID",16,blunde,BLUNDE,z,,,,,,-0.452764715,-0.268951564,1,0,0,,0,278,278,337,1,
,,,,,,,,,,,,,,,,,,5f5a292573b827085d758463,2020-11-26_15h59.31.220,lexical_decision_task_MP_exp2,2020.2.5,Linux armv8l,60,,0,0.554042779,-0.294550775,1,0,0,0.5631,button_right,0.5631,1,,,,,,57,WORD,UN,16,danger,CHANGE,m,,,,,,0.554042779,-0.294550775,1,0,0,,0,279,279,236,1,
,,,,,,,,,,,,,,,,,,5f5a292573b827085d758463,2020-11-26_15h59.31.220,lexical_decision_task_MP_exp2,2020.2.5,Linux armv8l,60,,0,-0.457275057,-0.268951564,1,0,0,0.6181,button_left,0.6181,1,,,,,,283,NW,UN,16,shaple,VERALF,z,,,,,,-0.457275057,-0.268951564,1,0,0,,0,280,280,462,1,
,,,,,,,,,,,,,,,,,,5f5a292573b827085d758463,2020-11-26_15h59.31.220,lexical_decision_task_MP_exp2,2020.2.5,Linux armv8l,60,,0,-0.477822128,-0.259930879,1,0,0,0.5761,button_left,0.5761,1,,,,,,330,NW,"ID",33,kensom,KENSOM,z,,,,,,-0.477822128,-0.259930879,1,0,0,,0,281,281,269,1,
,,,,,,,,,,,,,,,,,,5f5a292573b827085d758463,2020-11-26_15h59.31.220,lexical_decision_task_MP_exp2,2020.2.5,Linux armv8l,60,,0,0.569077279,-0.295769775,1,0,0,0.5915,button_right,0.5915,1,,,,,,49,WORD,UN,16,snatch,SURVEY,m,,,,,,0.569077279,-0.295769775,1,0,0,,0,282,282,228,1,
,,,,,,,,,,,,,,,,,,5f5a292573b827085d758463,2020-11-26_15h59.31.220,lexical_decision_task_MP_exp2,2020.2.5,Linux armv8l,60,,0,0.561058859,-0.291868932,1,0,0,0.5394,button_right,0.5394,1,,,,,,145,WORD,"ID",16,parish,PARISH,m,,,,,,0.561058859,-0.291868932,1,0,0,,0,283,283,84,1,
,,,,,,,,,,,,,,,,,,5f5a292573b827085d758463,2020-11-26_15h59.31.220,lexical_decision_task_MP_exp2,2020.2.5,Linux armv8l,60,,0,0.560557689,-0.286505394,1,0,0,0.6513,button_right,0.6513,1,,,,,,195,WORD,UN,33,credit,RESIGN,m,,,,,,0.560557689,-0.286505394,1,0,0,,0,284,284,134,1,
,,,,,,,,,,,,,,,,,,5f5a292573b827085d758463,2020-11-26_15h59.31.220,lexical_decision_task_MP_exp2,2020.2.5,Linux armv8l,60,,0,0.540010619,-0.277484635,1,0,0,0.563,button_right,0.563,1,,,,,,189,WORD,UN,33,backup,CENSOR,m,,,,,,0.540010619,-0.277484635,1,0,0,,0,285,285,128,1,
,,,,,,,,,,,,,,,,,,5f5a292573b827085d758463,2020-11-26_15h59.31.220,lexical_decision_task_MP_exp2,2020.2.5,Linux armv8l,60,,0,0.541514276,-0.284067247,1,0,0,0.5442,button_right,0.5442,1,,,,,,211,WORD,UN,33,verify,INFECT,m,,,,,,0.541514276,-0.284067247,1,0,0,,0,286,286,150,1,
,,,,,,,,,,,,,,,,,,5f5a292573b827085d758463,2020-11-26_15h59.31.220,lexical_decision_task_MP_exp2,2020.2.5,Linux armv8l,60,,0,-0.438732555,-0.269682949,1,0,0,0.7109,button_left,0.7109,1,,,,,,352,NW,"ID",33,tringe,TRINGE,z,,,,,,-0.438732555,-0.269682949,1,0,0,,0,287,287,291,1,
,,,,,,,,,,,,,,,,,,5f5a292573b827085d758463,2020-11-26_15h59.31.220,lexical_decision_task_MP_exp2,2020.2.5,Linux armv8l,60,,0,0.541012958,-0.281141633,1,0,0,0.5652,button_right,0.5652,1,,,,,,34,WORD,UN,16,socket,JUNGLE,m,,,,,,0.541012958,-0.281141633,1,0,0,,0,288,288,213,1,
,,,,,,,,,,,,,,,,,,5f5a292573b827085d758463,2020-11-26_15h59.31.220,lexical_decision_task_MP_exp2,2020.2.5,Linux armv8l,60,,0,-0.469302613,-0.261393723,1,0,0,0.5839,button_left,0.5839,1,,,,,,347,NW,"ID",33,kerift,KERIFT,z,,,,,,-0.469302613,-0.261393723,1,0,0,,0,289,289,286,1,
,,,,,,,,,,,,,,,,,,5f5a292573b827085d758463,2020-11-26_15h59.31.220,lexical_decision_task_MP_exp2,2020.2.5,Linux armv8l,60,,0,0.544520998,-0.287236704,1,0,0,0.575,button_right,0.575,1,,,,,,39,WORD,UN,16,convey,INSECT,m,,,,,,0.544520998,-0.287236704,1,0,0,,0,290,290,218,1,
,,,,,,,,,,,,,,,,,,5f5a292573b827085d758463,2020-11-26_15h59.31.220,lexical_decision_task_MP_exp2,2020.2.5,Linux armv8l,60,,0,-0.454769283,-0.259930879,1,0,0,0.6084,button_left,0.6084,1,,,,,,452,NW,UN,33,bolvis,SURDEN,z,,,,,,-0.454769283,-0.259930879,1,0,0,,0,291,291,391,1,
,,,,,,,,,,,,,,,,,,5f5a292573b827085d758463,2020-11-26_15h59.31.220,lexical_decision_task_MP_exp2,2020.2.5,Linux armv8l,60,,0,0.545022316,-0.282604477,1,0,0,0.5881,button_right,0.5881,1,,,,,,116,WORD,"ID",33,tumble,TUMBLE,m,,,,,,0.545022316,-0.282604477,1,0,0,,0,292,292,55,1,
,,,,,,,,,,,,,,,,,,5f5a292573b827085d758463,2020-11-26_15h59.31.220,lexical_decision_task_MP_exp2,2020.2.5,Linux armv8l,60,,0,-0.472309483,-0.257005266,1,0,0,0.5773,button_left,0.5773,1,,,,,,432,NW,UN,33,drance,LUNKER,z,,,,,,-0.472309483,-0.257005266,1,0,0,,0,293,293,371,1,
,,,,,,,,,,,,,,,,,,5f5a292573b827085d758463,2020-11-26_15h59.31.220,lexical_decision_task_MP_exp2,2020.2.5,Linux armv8l,60,,0,-0.471307217,-0.24067051,1,0,0,0.6553,button_left,0.6553,1,,,,,,265,NW,UN,16,varmit,DISTAR,z,,,,,,-0.471307217,-0.24067051,1,0,0,,0,294,294,444,1,
,,,,,,,,,,,,,,,,,,5f5a292573b827085d758463,2020-11-26_15h59.31.220,lexical_decision_task_MP_exp2,2020.2.5,Linux armv8l,60,,0,0.543518659,-0.289918622,1,0,0,0.5645,button_right,0.5645,1,,,,,,173,WORD,"ID",16,shower,SHOWER,m,,,,,,0.543518659,-0.289918622,1,0,0,,0,295,295,112,1,
,,,,,,,,,,,,,,,,,,5f5a292573b827085d758463,2020-11-26_15h59.31.220,lexical_decision_task_MP_exp2,2020.2.5,Linux armv8l,60,,0,-0.499371538,-0.235306971,1,0,0,0.631,button_left,0.631,1,,,,,,478,NW,UN,33,pebric,ACRISE,z,,,,,,-0.499371538,-0.235306971,1,0,0,,0,296,296,417,1,
,,,,,,,,,,,,,,,,,,5f5a292573b827085d758463,2020-11-26_15h59.31.220,lexical_decision_task_MP_exp2,2020.2.5,Linux armv8l,60,,0,0.54602436,-0.273096177,1,0,0,0.5625,button_right,0.5625,1,,,,,,56,WORD,UN,16,change,AMBUSH,m,,,,,,0.54602436,-0.273096177,1,0,0,,0,297,297,235,1,
,,,,,,,,,,,,,,,,,,5f5a292573b827085d758463,2020-11-26_15h59.31.220,lexical_decision_task_MP_exp2,2020.2.5,Linux armv8l,60,,0,-0.461785363,-0.237257282,1,0,0,0.8444,button_left,0.8444,1,,,,,,338,NW,"ID",33,wreash,WREASH,z,,,,,,-0.461785363,-0.237257282,1,0,0,,0,298,298,277,1,
,,,,,,,,,,,,,,,,,,5f5a292573b827085d758463,2020-11-26_15h59.31.220,lexical_decision_task_MP_exp2,2020.2.5,Linux armv8l,60,,0,0.557550819,-0.29333185,1,0,0,0.6421,button_right,0.6421,1,,,,,,221,WORD,UN,33,hinder,MASCOT,m,,,,,,0.557550819,-0.29333185,1,0,0,,0,299,299,160,1,
,,,,,,,,,,,,,,,,,,5f5a292573b827085d758463,2020-11-26_15h59.31.220,lexical_decision_task_MP_exp2,2020.2.5,Linux armv8l,60,,0,0.5495324,-0.290893703,1,0,0,0.5313,button_right,0.5313,1,,,,,,172,WORD,"ID",16,patrol,PATROL,m,,,,,,0.5495324,-0.290893703,1,0,0,,0,300,300,111,1,
,,,,,,,,,,,,,,,,,,5f5a292573b827085d758463,2020-11-26_15h59.31.220,lexical_decision_task_MP_exp2,2020.2.5,Linux armv8l,60,,0,-0.466295705,-0.244571352,1,0,0,0.613,button_left,0.613,1,,,,,,458,NW,UN,33,hocite,BARCET,z,,,,,,-0.466295705,-0.244571352,1,0,0,,0,301,301,397,1,
,,,,,,,,,,,,,,,,,,5f5a292573b827085d758463,2020-11-26_15h59.31.220,lexical_decision_task_MP_exp2,2020.2.5,Linux armv8l,60,,0,0.553541609,-0.281629248,1,0,0,0.5029,button_right,0.5029,1,,,,,,104,WORD,"ID",33,studio,STUDIO,m,,,,,,0.553541609,-0.281629248,1,0,0,,0,302,302,43,1,
,,,,,,,,,,,,,,,,,,5f5a292573b827085d758463,2020-11-26_15h59.31.220,lexical_decision_task_MP_exp2,2020.2.5,Linux armv8l,60,,0,-0.453767017,-0.23116221,1,0,0,0.5622,button_left,0.5622,1,,,,,,426,NW,UN,33,schind,URIVEL,z,,,,,,-0.453767017,-0.23116221,1,0,0,,0,303,303,365,1,
,,,,,,,,,,,,,,,,,,5f5a292573b827085d758463,2020-11-26_15h59.31.220,lexical_decision_task_MP_exp2,2020.2.5,Linux armv8l,60,,0,0.571582979,-0.284554861,1,0,0,0.5777,button_right,0.5777,1,,,,,,233,WORD,UN,33,clumsy,NATURE,m,,,,,,0.571582979,-0.284554861,1,0,0,,0,304,304,172,1,
,,,,,,,,,,,,,,,,,,5f5a292573b827085d758463,2020-11-26_15h59.31.220,lexical_decision_task_MP_exp2,2020.2.5,Linux armv8l,60,,0,-0.451261243,-0.235550667,1,0,0,0.5986,button_left,0.5986,1,,,,,,302,NW,"ID",33,miluer,MILUER,z,,,,,,-0.451261243,-0.235550667,1,0,0,,0,305,305,241,1,
,,,,,,,,,,,,,,,,,,5f5a292573b827085d758463,2020-11-26_15h59.31.220,lexical_decision_task_MP_exp2,2020.2.5,Linux armv8l,60,,0,-0.462787665,-0.23920774,1,0,0,0.621,button_left,0.621,1,,,,,,424,NW,UN,33,frudge,PRAILE,z,,,,,,-0.462787665,-0.23920774,1,0,0,,0,306,306,363,1,
,,,,,,,,,,,,,,,,,,5f5a292573b827085d758463,2020-11-26_15h59.31.220,lexical_decision_task_MP_exp2,2020.2.5,Linux armv8l,60,,0,0.562061199,-0.297964003,1,0,0,0.5482,button_right,0.5482,1,,,,,,123,WORD,"ID",16,strike,STRIKE,m,,,,,,0.562061199,-0.297964003,1,0,0,,0,307,307,62,1,
,,,,,,,,,,,,,,,,,,5f5a292573b827085d758463,2020-11-26_15h59.31.220,lexical_decision_task_MP_exp2,2020.2.5,Linux armv8l,60,,0,-0.446750937,-0.250666498,1,0,0,0.6065,button_left,0.6065,1,,,,,,246,NW,UN,16,blarge,PIATON,z,,,,,,-0.446750937,-0.250666498,1,0,0,,0,308,308,425,1,
,,,,,,,,,,,,,,,,,,5f5a292573b827085d758463,2020-11-26_15h59.31.220,lexical_decision_task_MP_exp2,2020.2.5,Linux armv8l,60,,0,0.553541609,-0.282848247,1,0,0,0.591,button_right,0.591,1,,,,,,126,WORD,"ID",16,enough,ENOUGH,m,,,,,,0.553541609,-0.282848247,1,0,0,,0,309,309,65,1,
,,,,,,,,,,,,,,,,,,5f5a292573b827085d758463,2020-11-26_15h59.31.220,lexical_decision_task_MP_exp2,2020.2.5,Linux armv8l,60,,0,0.56005652,-0.28553009,1,0,0,0.6154,button_right,0.6154,1,,,,,,223,WORD,UN,33,period,KIDNEY,m,,,,,,0.56005652,-0.28553009,1,0,0,,0,310,310,162,1,
,,,,,,,,,,,,,,,,,,5f5a292573b827085d758463,2020-11-26_15h59.31.220,lexical_decision_task_MP_exp2,2020.2.5,Linux armv8l,60,,0,-0.435725647,-0.245058967,1,0,0,0.578,button_left,0.578,1,,,,,,378,NW,"ID",16,shrile,SHRILE,z,,,,,,-0.435725647,-0.245058967,1,0,0,,0,311,311,317,1,
,,,,,,,,,,,,,,,,,,5f5a292573b827085d758463,2020-11-26_15h59.31.220,lexical_decision_task_MP_exp2,2020.2.5,Linux armv8l,60,,0,-0.447753203,-0.236038282,1,0,0,0.5439,button_left,0.5439,1,,,,,,244,NW,UN,16,anougs,EATRIC,z,,,,,,-0.447753203,-0.236038282,1,0,0,,0,312,312,423,1,
,,,,,,,,,,,,,,,,,,5f5a292573b827085d758463,2020-11-26_15h59.31.220,lexical_decision_task_MP_exp2,2020.2.5,Linux armv8l,60,,0,0.555045119,-0.287480475,1,0,0,0.6005,button_right,0.6005,1,,,,,,202,WORD,UN,33,phrase,FACTOR,m,,,,,,0.555045119,-0.287480475,1,0,0,,0,313,313,141,1,
,,,,,,,,,,,,,,,,,,5f5a292573b827085d758463,2020-11-26_15h59.31.220,lexical_decision_task_MP_exp2,2020.2.5,Linux armv8l,60,,0,0.549031378,-0.273340022,1,0,0,0.6073,button_right,0.6073,1,,,,,,24,WORD,UN,16,domain,PRAISE,m,,,,,,0.549031378,-0.273340022,1,0,0,,0,314,314,203,1,
,,,,,,,,,,,,,,,,,,5f5a292573b827085d758463,2020-11-26_15h59.31.220,lexical_decision_task_MP_exp2,2020.2.5,Linux armv8l,60,,0,-0.428709567,-0.24774081,1,0,0,0.6374,button_left,0.6374,1,,,,,,417,NW,"ID",16,earoud,EAROUD,z,,,,,,-0.428709567,-0.24774081,1,0,0,,0,315,315,356,1,
,,,,,,,,,,,,,,,,,,5f5a292573b827085d758463,2020-11-26_15h59.31.220,lexical_decision_task_MP_exp2,2020.2.5,Linux armv8l,60,,0,0.562562517,-0.274559095,1,0,0,0.6327,button_right,0.6327,1,,,,,,90,WORD,"ID",33,relish,RELISH,m,,,,,,0.562562517,-0.274559095,1,0,0,,0,316,316,29,1,
,,,,,,,,,,,,,,,,,,5f5a292573b827085d758463,2020-11-26_15h59.31.220,lexical_decision_task_MP_exp2,2020.2.5,Linux armv8l,60,,0,-0.45076011,-0.246034196,1,0,0,0.525,button_left,0.525,1,,,,,,324,NW,"ID",33,steikh,STEIKH,z,,,,,,-0.45076011,-0.246034196,1,0,0,,0,317,317,263,1,
,,,,,,,,,,,,,,,,,,5f5a292573b827085d758463,2020-11-26_15h59.31.220,lexical_decision_task_MP_exp2,2020.2.5,Linux armv8l,60,,0,0.569077279,-0.283092165,1,0,0,0.5758,button_right,0.5758,1,,,,,,106,WORD,"ID",33,ransom,RANSOM,m,,,,,,0.569077279,-0.283092165,1,0,0,,0,318,318,45,1,
,,,,,,,,,,,,,,,,,,5f5a292573b827085d758463,2020-11-26_15h59.31.220,lexical_decision_task_MP_exp2,2020.2.5,Linux armv8l,60,,0,-0.455270452,-0.233112669,1,0,0,0.5841,button_left,0.5841,1,,,,,,450,NW,UN,33,cainky,PHRECT,z,,,,,,-0.455270452,-0.233112669,1,0,0,,0,319,319,389,1,
,,,,,,,,,,,,,,,,,,5f5a292573b827085d758463,2020-11-26_15h59.31.220,lexical_decision_task_MP_exp2,2020.2.5,Linux armv8l,60,,0,0.547026699,-0.281141633,1,0,0,0.5685,button_right,0.5685,1,,,,,,150,WORD,"ID",16,random,RANDOM,m,,,,,,0.547026699,-0.281141633,1,0,0,,0,320,320,89,1,
,,,,,,,,,,,,,,,,,,5f5a292573b827085d758463,2020-11-26_15h59.31.220,lexical_decision_task_MP_exp2,2020.2.5,Linux armv8l,60,,0,0.55304044,-0.289918622,1,0,0,0.544,button_right,0.544,1,,,,,,193,WORD,UN,33,mildew,OBJECT,m,,,,,,0.55304044,-0.289918622,1,0,0,,0,321,321,132,1,
,,,,,,,,,,,,,,,,,,5f5a292573b827085d758463,2020-11-26_15h59.31.220,lexical_decision_task_MP_exp2,2020.2.5,Linux armv8l,60,,0,0.565068069,-0.296013545,1,0,0,0.5076,button_right,0.5076,1,,,,,,99,WORD,"ID",33,fluent,FLUENT,m,,,,,,0.565068069,-0.296013545,1,0,0,,0,322,322,38,1,
,,,,,,,,,,,,,,,,,,5f5a292573b827085d758463,2020-11-26_15h59.31.220,lexical_decision_task_MP_exp2,2020.2.5,Linux armv8l,60,,0,0.557550819,-0.286017705,1,0,0,0.5404,button_right,0.5404,1,,,,,,179,WORD,"ID",16,basket,BASKET,m,,,,,,0.557550819,-0.286017705,1,0,0,,0,323,323,118,1,
,,,,,,,,,,,,,,,,,,5f5a292573b827085d758463,2020-11-26_15h59.31.220,lexical_decision_task_MP_exp2,2020.2.5,Linux armv8l,60,,0,-0.46479227,-0.24774081,1,0,0,0.6092,button_left,0.6092,1,,,,,,256,NW,UN,16,veniod,INLORS,z,,,,,,-0.46479227,-0.24774081,1,0,0,,0,324,324,435,1,
,,,,,,,,,,,,,,,,,,5f5a292573b827085d758463,2020-11-26_15h59.31.220,lexical_decision_task_MP_exp2,2020.2.5,Linux armv8l,60,,0,0.551035909,-0.30503423,1,0,0,0.5752,button_right,0.5752,1,,,,,,139,WORD,"ID",16,debris,DEBRIS,m,,,,,,0.551035909,-0.30503423,1,0,0,,0,325,325,78,1,
,,,,,,,,,,,,,,,,,,5f5a292573b827085d758463,2020-11-26_15h59.31.220,lexical_decision_task_MP_exp2,2020.2.5,Linux armv8l,60,,0,0.554543949,-0.291381317,1,0,0,0.5877,button_right,0.5877,1,,,,,,218,WORD,UN,33,bucket,SHRINK,m,,,,,,0.554543949,-0.291381317,1,0,0,,0,326,326,157,1,
,,,,,,,,,,,,,,,,,,5f5a292573b827085d758463,2020-11-26_15h59.31.220,lexical_decision_task_MP_exp2,2020.2.5,Linux armv8l,60,,0,0.557550819,-0.298939233,1,0,0,0.5916,button_right,0.5916,1,,,,,,153,WORD,"ID",16,behold,BEHOLD,m,,,,,,0.557550819,-0.298939233,1,0,0,,0,327,327,92,1,
,,,,,,,,,,,,,,,,,,5f5a292573b827085d758463,2020-11-26_15h59.31.220,lexical_decision_task_MP_exp2,2020.2.5,Linux armv8l,60,,0,0.538006236,-0.28479878,1,0,0,0.512,button_right,0.512,1,,,,,,71,WORD,"ID",33,garden,GARDEN,m,,,,,,0.538006236,-0.28479878,1,0,0,,0,328,328,10,1,
,,,,,,,,,,,,,,,,,,5f5a292573b827085d758463,2020-11-26_15h59.31.220,lexical_decision_task_MP_exp2,2020.2.5,Linux armv8l,60,,0,0.562562517,-0.296745078,1,0,0,0.857,button_right,0.857,0,,,,,,379,NW,"ID",16,auting,AUTING,z,,,,,,0.562562517,-0.296745078,1,0,0,,0,329,329,318,1,
,,,,,,,,,,,,,,,,,,5f5a292573b827085d758463,2020-11-26_15h59.31.220,lexical_decision_task_MP_exp2,2020.2.5,Linux armv8l,60,,0,0.542516319,-0.298939233,1,0,0,1.1939,button_right,1.1939,1,,,,,,103,WORD,"ID",33,bounce,BOUNCE,m,,,,,,0.542516319,-0.298939233,1,0,0,,0,330,330,42,1,
,,,,,,,,,,,,,,,,,,5f5a292573b827085d758463,2020-11-26_15h59.31.220,lexical_decision_task_MP_exp2,2020.2.5,Linux armv8l,60,,0,0.511946299,-0.298695388,1,0,0,0.7008,button_right,0.7008,1,,,,,,160,WORD,"ID",16,violet,VIOLET,m,,,,,,0.511946299,-0.298695388,1,0,0,,0,331,331,99,1,
,,,,,,,,,,,,,,,,,,5f5a292573b827085d758463,2020-11-26_15h59.31.220,lexical_decision_task_MP_exp2,2020.2.5,Linux armv8l,60,,0,-0.483334773,-0.243352353,1,0,0,0.7732,button_left,0.7732,1,,,,,,384,NW,"ID",16,guesco,GUESCO,z,,,,,,-0.483334773,-0.243352353,1,0,0,,0,332,332,323,1,
,,,,,,,,,,,,,,,,,,5f5a292573b827085d758463,2020-11-26_15h59.31.220,lexical_decision_task_MP_exp2,2020.2.5,Linux armv8l,60,,0,0.540010619,-0.29381939,1,0,0,0.5976,button_right,0.5976,1,,,,,,137,WORD,"ID",16,finger,FINGER,m,,,,,,0.540010619,-0.29381939,1,0,0,,0,333,333,76,1,
,,,,,,,,,,,,,,,,,,5f5a292573b827085d758463,2020-11-26_15h59.31.220,lexical_decision_task_MP_exp2,2020.2.5,Linux armv8l,60,,0,-0.46479227,-0.244571352,1,0,0,0.6348,button_left,0.6348,1,,,,,,248,NW,UN,16,batrol,STROLE,z,,,,,,-0.46479227,-0.244571352,1,0,0,,0,334,334,427,1,
