counterbalancing_condition,instr_done_keyboard.keys,instr_done_keyboard.rt,instr_done_touch.x,instr_done_touch.y,instr_done_touch.leftButton,instr_done_touch.midButton,instr_done_touch.rightButton,instruction_pages.thisRepN,instruction_pages.thisTrialN,instruction_pages.thisN,instruction_pages.thisIndex,instruction_pages.ran,pageN,phase,instruct_text,has_image,instruct_image,participant,date,expName,psychopyVersion,OS,frameRate,response.keys,response.corr,response.rt,touch_resp.x,touch_resp.y,touch_resp.leftButton,touch_resp.midButton,touch_resp.rightButton,touch_resp.time,touch_resp.clicked_name,rt,corr,practice_trials.thisRepN,practice_trials.thisTrialN,practice_trials.thisN,practice_trials.thisIndex,practice_trials.ran,TrialID,StimulusType,Condition,PrimeDuration,Prime,Target,corrAns,end_of_practice_trials_pages.thisRepN,end_of_practice_trials_pages.thisTrialN,end_of_practice_trials_pages.thisN,end_of_practice_trials_pages.thisIndex,end_of_practice_trials_pages.ran,break_done_touch.x,break_done_touch.y,break_done_touch.leftButton,break_done_touch.midButton,break_done_touch.rightButton,break_done_keyboard.keys,experiment_trials.thisRepN,experiment_trials.thisTrialN,experiment_trials.thisN,experiment_trials.thisIndex,experiment_trials.ran,break_done_keyboard.rt
3,space,20.765965,0.328703722,-0.224074141,0,0,0,0,0,0,0,1,1,instructions,"INSTRUCTIONS
At the start of each trial, look at the hash marks (######) in the center of the screen. After a moment, a string of letters will appear. Your task is to indicate if the letter string forms a word or not (i.e., if it is a nonword). For example, AUTHOR is a word while AUTHON is a nonword.

Press the space bar or touch the button below to continue.",0,,5f68fe45f544c70bb0f525e6,2020-12-01_16h20.56.776,lexical_decision_task_MP_exp2,2020.2.8,Win32,60,,,,,,,,,,,,,,,,,,,,,,,,,,,,,,,,,,,,,,,,,
,space,24.43941,0.250925943,-0.493518533,0,0,0,0,1,1,1,1,2,instructions,"If your device has a keyboard, press the 'Z' key for nonwords and the 'M' key for words.





Press the space bar or touch the button below to continue.",1,keyboard-example.gif,5f68fe45f544c70bb0f525e6,2020-12-01_16h20.56.776,lexical_decision_task_MP_exp2,2020.2.8,Win32,60,,,,,,,,,,,,,,,,,,,,,,,,,,,,,,,,,,,,,,,,,
,space,9.1509,0.08055557,-0.418518589,0,0,0,0,2,2,2,1,3,instructions,"If you are using a touchscreen only device, use the buttons on the screen. Do not use the mouse.





Press the space bar or touch the button below to continue.",1,touchscreen-example.gif,5f68fe45f544c70bb0f525e6,2020-12-01_16h20.56.776,lexical_decision_task_MP_exp2,2020.2.8,Win32,60,,,,,,,,,,,,,,,,,,,,,,,,,,,,,,,,,,,,,,,,,
,space,10.666225,0.113888904,-0.419444458,0,0,0,0,3,3,3,1,4,instructions,"It is very important that you respond as quickly and accurately as possible, as each letter string will only be on the screen for two seconds. If you do not respond within this time, the message 'Too slow!' will be displayed and the experiment will progress to the next letter string. The first 20 trials will be practice trials and you will receive feedback on your answers. 

Press the space bar or touch the button below to start the practice trials.",0,,5f68fe45f544c70bb0f525e6,2020-12-01_16h20.56.776,lexical_decision_task_MP_exp2,2020.2.8,Win32,60,,,,,,,,,,,,,,,,,,,,,,,,,,,,,,,,,,,,,,,,,
,,,,,,,,,,,,,,,,,,5f68fe45f544c70bb0f525e6,2020-12-01_16h20.56.776,lexical_decision_task_MP_exp2,2020.2.8,Win32,60,z,1,1.615125,,,,,,,,1.615125,1,0,0,0,12,1,1013,NW,UN,33,adveil,SPRINY,z,,,,,,,,,,,,,,,,,
,,,,,,,,,,,,,,,,,,5f68fe45f544c70bb0f525e6,2020-12-01_16h20.56.776,lexical_decision_task_MP_exp2,2020.2.8,Win32,60,z,1,0.83403,,,,,,,,0.83403,1,0,1,1,15,1,1016,NW,UN,16,mushed,WHAISE,z,,,,,,,,,,,,,,,,,
,,,,,,,,,,,,,,,,,,5f68fe45f544c70bb0f525e6,2020-12-01_16h20.56.776,lexical_decision_task_MP_exp2,2020.2.8,Win32,60,z,1,0.677315,,,,,,,,0.677315,1,0,2,2,14,1,1015,NW,UN,16,miaber,THRALE,z,,,,,,,,,,,,,,,,,
,,,,,,,,,,,,,,,,,,5f68fe45f544c70bb0f525e6,2020-12-01_16h20.56.776,lexical_decision_task_MP_exp2,2020.2.8,Win32,60,m,1,0.63452,,,,,,,,0.63452,1,0,3,3,1,1,1002,WORD,"ID",33,adjust,ADJUST,m,,,,,,,,,,,,,,,,,
,,,,,,,,,,,,,,,,,,5f68fe45f544c70bb0f525e6,2020-12-01_16h20.56.776,lexical_decision_task_MP_exp2,2020.2.8,Win32,60,m,1,0.633985,,,,,,,,0.633985,1,0,4,4,2,1,1003,WORD,"ID",16,almond,ALMOND,m,,,,,,,,,,,,,,,,,
,,,,,,,,,,,,,,,,,,5f68fe45f544c70bb0f525e6,2020-12-01_16h20.56.776,lexical_decision_task_MP_exp2,2020.2.8,Win32,60,z,1,0.78413,,,,,,,,0.78413,1,0,5,5,10,1,1011,NW,"ID",16,inlade,INLADE,z,,,,,,,,,,,,,,,,,
,,,,,,,,,,,,,,,,,,5f68fe45f544c70bb0f525e6,2020-12-01_16h20.56.776,lexical_decision_task_MP_exp2,2020.2.8,Win32,60,z,1,0.80064,,,,,,,,0.80064,1,0,6,6,9,1,1010,NW,"ID",33,fariny,FARINY,z,,,,,,,,,,,,,,,,,
,,,,,,,,,,,,,,,,,,5f68fe45f544c70bb0f525e6,2020-12-01_16h20.56.776,lexical_decision_task_MP_exp2,2020.2.8,Win32,60,z,1,0.90568,,,,,,,,0.90568,1,0,7,7,13,1,1014,NW,UN,33,winfer,ROUPET,z,,,,,,,,,,,,,,,,,
,,,,,,,,,,,,,,,,,,5f68fe45f544c70bb0f525e6,2020-12-01_16h20.56.776,lexical_decision_task_MP_exp2,2020.2.8,Win32,60,m,1,0.752885,,,,,,,,0.752885,1,0,8,8,7,1,1008,WORD,UN,16,hurdle,VOLUME,m,,,,,,,,,,,,,,,,,
,,,,,,,,,,,,,,,,,,5f68fe45f544c70bb0f525e6,2020-12-01_16h20.56.776,lexical_decision_task_MP_exp2,2020.2.8,Win32,60,m,1,0.75101,,,,,,,,0.75101,1,0,9,9,0,1,1001,WORD,"ID",33,utopia,UTOPIA,m,,,,,,,,,,,,,,,,,
,,,,,,,,,,,,,,,,,,5f68fe45f544c70bb0f525e6,2020-12-01_16h20.56.776,lexical_decision_task_MP_exp2,2020.2.8,Win32,60,m,1,0.61756,,,,,,,,0.61756,1,0,10,10,6,1,1007,WORD,UN,16,tropic,ZOMBIE,m,,,,,,,,,,,,,,,,,
,,,,,,,,,,,,,,,,,,5f68fe45f544c70bb0f525e6,2020-12-01_16h20.56.776,lexical_decision_task_MP_exp2,2020.2.8,Win32,60,m,1,0.68695,,,,,,,,0.68695,1,0,11,11,5,1,1006,WORD,UN,33,frenzy,OBTAIN,m,,,,,,,,,,,,,,,,,
,,,,,,,,,,,,,,,,,,5f68fe45f544c70bb0f525e6,2020-12-01_16h20.56.776,lexical_decision_task_MP_exp2,2020.2.8,Win32,60,m,1,0.582035,,,,,,,,0.582035,1,0,12,12,4,1,1005,WORD,UN,33,abound,SQUEAK,m,,,,,,,,,,,,,,,,,
,,,,,,,,,,,,,,,,,,5f68fe45f544c70bb0f525e6,2020-12-01_16h20.56.776,lexical_decision_task_MP_exp2,2020.2.8,Win32,60,m,1,0.65754,,,,,,,,0.65754,1,0,13,13,3,1,1004,WORD,"ID",16,matrix,MATRIX,m,,,,,,,,,,,,,,,,,
,,,,,,,,,,,,,,,,,,5f68fe45f544c70bb0f525e6,2020-12-01_16h20.56.776,lexical_decision_task_MP_exp2,2020.2.8,Win32,60,z,1,0.754645,,,,,,,,0.754645,1,0,14,14,11,1,1012,NW,"ID",16,rashet,RASHET,z,,,,,,,,,,,,,,,,,
,,,,,,,,,,,,,,,,,,5f68fe45f544c70bb0f525e6,2020-12-01_16h20.56.776,lexical_decision_task_MP_exp2,2020.2.8,Win32,60,z,1,0.763485,,,,,,,,0.763485,1,0,15,15,8,1,1009,NW,"ID",33,aslert,ASLERT,z,,,,,,,,,,,,,,,,,
,space,14.746995,0.138888904,-0.418518589,0,0,0,,,,,,1,end_of_practice,"You have completed the practice trials. During the experimental trials, you will not receive feedback, but it is very important that you respond as quickly and accurately as possible. 
Before you begin, please ensure that you are in a comfortable and quiet location and will not be disturbed for about 15 minutes, as we cannot use your data if you do not complete all the trials. 
There will be opportunities to take breaks at regular intervals during the experiment. When you are ready to start the experimental trials, please press space or touch the button below.",,,5f68fe45f544c70bb0f525e6,2020-12-01_16h20.56.776,lexical_decision_task_MP_exp2,2020.2.8,Win32,60,,,,,,,,,,,,,,,,,,,,,,,,,0,0,0,0,1,,,,,,,,,,,,
,,,,,,,,,,,,,,,,,,5f68fe45f544c70bb0f525e6,2020-12-01_16h20.56.776,lexical_decision_task_MP_exp2,2020.2.8,Win32,60,m,1,0.664305,,,,,,,,0.664305,1,,,,,,201,WORD,UN,33,factor,ADMIRE,m,,,,,,0.138888904,-0.418518589,0,0,0,,0,0,0,140,1,
,,,,,,,,,,,,,,,,,,5f68fe45f544c70bb0f525e6,2020-12-01_16h20.56.776,lexical_decision_task_MP_exp2,2020.2.8,Win32,60,m,1,0.98784,,,,,,,,0.98784,1,,,,,,65,WORD,"ID",33,symbol,SYMBOL,m,,,,,,0.138888904,-0.418518589,0,0,0,,0,1,1,4,1,
,,,,,,,,,,,,,,,,,,5f68fe45f544c70bb0f525e6,2020-12-01_16h20.56.776,lexical_decision_task_MP_exp2,2020.2.8,Win32,60,m,1,0.598265,,,,,,,,0.598265,1,,,,,,117,WORD,"ID",33,branch,BRANCH,m,,,,,,0.138888904,-0.418518589,0,0,0,,0,2,2,56,1,
,,,,,,,,,,,,,,,,,,5f68fe45f544c70bb0f525e6,2020-12-01_16h20.56.776,lexical_decision_task_MP_exp2,2020.2.8,Win32,60,z,1,0.67274,,,,,,,,0.67274,1,,,,,,406,NW,"ID",16,nouply,NOUPLY,z,,,,,,0.138888904,-0.418518589,0,0,0,,0,3,3,345,1,
,,,,,,,,,,,,,,,,,,5f68fe45f544c70bb0f525e6,2020-12-01_16h20.56.776,lexical_decision_task_MP_exp2,2020.2.8,Win32,60,m,1,0.700795,,,,,,,,0.700795,1,,,,,,72,WORD,"ID",33,bright,BRIGHT,m,,,,,,0.138888904,-0.418518589,0,0,0,,0,4,4,11,1,
,,,,,,,,,,,,,,,,,,5f68fe45f544c70bb0f525e6,2020-12-01_16h20.56.776,lexical_decision_task_MP_exp2,2020.2.8,Win32,60,m,1,0.78418,,,,,,,,0.78418,1,,,,,,212,WORD,UN,33,squeal,VERIFY,m,,,,,,0.138888904,-0.418518589,0,0,0,,0,5,5,151,1,
,,,,,,,,,,,,,,,,,,5f68fe45f544c70bb0f525e6,2020-12-01_16h20.56.776,lexical_decision_task_MP_exp2,2020.2.8,Win32,60,m,1,0.649415,,,,,,,,0.649415,1,,,,,,43,WORD,UN,16,foster,TONGUE,m,,,,,,0.138888904,-0.418518589,0,0,0,,0,6,6,222,1,
,,,,,,,,,,,,,,,,,,5f68fe45f544c70bb0f525e6,2020-12-01_16h20.56.776,lexical_decision_task_MP_exp2,2020.2.8,Win32,60,m,1,0.60074,,,,,,,,0.60074,1,,,,,,224,WORD,UN,33,vulgar,PERIOD,m,,,,,,0.138888904,-0.418518589,0,0,0,,0,7,7,163,1,
,,,,,,,,,,,,,,,,,,5f68fe45f544c70bb0f525e6,2020-12-01_16h20.56.776,lexical_decision_task_MP_exp2,2020.2.8,Win32,60,m,1,0.723335,,,,,,,,0.723335,1,,,,,,236,WORD,UN,33,grumpy,PIRATE,m,,,,,,0.138888904,-0.418518589,0,0,0,,0,8,8,175,1,
,,,,,,,,,,,,,,,,,,5f68fe45f544c70bb0f525e6,2020-12-01_16h20.56.776,lexical_decision_task_MP_exp2,2020.2.8,Win32,60,m,1,0.60723,,,,,,,,0.60723,1,,,,,,80,WORD,"ID",33,family,FAMILY,m,,,,,,0.138888904,-0.418518589,0,0,0,,0,9,9,19,1,
,,,,,,,,,,,,,,,,,,5f68fe45f544c70bb0f525e6,2020-12-01_16h20.56.776,lexical_decision_task_MP_exp2,2020.2.8,Win32,60,z,1,0.66742,,,,,,,,0.66742,1,,,,,,326,NW,"ID",33,iguade,IGUADE,z,,,,,,0.138888904,-0.418518589,0,0,0,,0,10,10,265,1,
,,,,,,,,,,,,,,,,,,5f68fe45f544c70bb0f525e6,2020-12-01_16h20.56.776,lexical_decision_task_MP_exp2,2020.2.8,Win32,60,m,1,0.641025,,,,,,,,0.641025,1,,,,,,92,WORD,"ID",33,strand,STRAND,m,,,,,,0.138888904,-0.418518589,0,0,0,,0,11,11,31,1,
,,,,,,,,,,,,,,,,,,5f68fe45f544c70bb0f525e6,2020-12-01_16h20.56.776,lexical_decision_task_MP_exp2,2020.2.8,Win32,60,z,1,0.7644,,,,,,,,0.7644,1,,,,,,383,NW,"ID",16,aungre,AUNGRE,z,,,,,,0.138888904,-0.418518589,0,0,0,,0,12,12,322,1,
,,,,,,,,,,,,,,,,,,5f68fe45f544c70bb0f525e6,2020-12-01_16h20.56.776,lexical_decision_task_MP_exp2,2020.2.8,Win32,60,m,1,0.637745,,,,,,,,0.637745,1,,,,,,146,WORD,"ID",16,couple,COUPLE,m,,,,,,0.138888904,-0.418518589,0,0,0,,0,13,13,85,1,
,,,,,,,,,,,,,,,,,,5f68fe45f544c70bb0f525e6,2020-12-01_16h20.56.776,lexical_decision_task_MP_exp2,2020.2.8,Win32,60,m,1,0.681715,,,,,,,,0.681715,1,,,,,,239,WORD,UN,33,forest,LUMBER,m,,,,,,0.138888904,-0.418518589,0,0,0,,0,14,14,178,1,
,,,,,,,,,,,,,,,,,,5f68fe45f544c70bb0f525e6,2020-12-01_16h20.56.776,lexical_decision_task_MP_exp2,2020.2.8,Win32,60,z,1,0.89561,,,,,,,,0.89561,1,,,,,,262,NW,UN,16,dolica,QUILEW,z,,,,,,0.138888904,-0.418518589,0,0,0,,0,15,15,441,1,
,,,,,,,,,,,,,,,,,,5f68fe45f544c70bb0f525e6,2020-12-01_16h20.56.776,lexical_decision_task_MP_exp2,2020.2.8,Win32,60,m,1,0.81564,,,,,,,,0.81564,1,,,,,,27,WORD,UN,16,comedy,SCREAM,m,,,,,,0.138888904,-0.418518589,0,0,0,,0,16,16,206,1,
,,,,,,,,,,,,,,,,,,5f68fe45f544c70bb0f525e6,2020-12-01_16h20.56.776,lexical_decision_task_MP_exp2,2020.2.8,Win32,60,m,1,1.059375,,,,,,,,1.059375,1,,,,,,54,WORD,UN,16,stroke,RAMBLE,m,,,,,,0.138888904,-0.418518589,0,0,0,,0,17,17,233,1,
,,,,,,,,,,,,,,,,,,5f68fe45f544c70bb0f525e6,2020-12-01_16h20.56.776,lexical_decision_task_MP_exp2,2020.2.8,Win32,60,m,1,0.64583,,,,,,,,0.64583,1,,,,,,234,WORD,UN,33,poster,CLUMSY,m,,,,,,0.138888904,-0.418518589,0,0,0,,0,18,18,173,1,
,,,,,,,,,,,,,,,,,,5f68fe45f544c70bb0f525e6,2020-12-01_16h20.56.776,lexical_decision_task_MP_exp2,2020.2.8,Win32,60,m,1,0.75439,,,,,,,,0.75439,1,,,,,,192,WORD,UN,33,object,PLAGUE,m,,,,,,0.138888904,-0.418518589,0,0,0,,0,19,19,131,1,
,,,,,,,,,,,,,,,,,,5f68fe45f544c70bb0f525e6,2020-12-01_16h20.56.776,lexical_decision_task_MP_exp2,2020.2.8,Win32,60,z,1,0.706455,,,,,,,,0.706455,1,,,,,,280,NW,UN,16,melaty,CURBOL,z,,,,,,0.138888904,-0.418518589,0,0,0,,0,20,20,459,1,
,,,,,,,,,,,,,,,,,,5f68fe45f544c70bb0f525e6,2020-12-01_16h20.56.776,lexical_decision_task_MP_exp2,2020.2.8,Win32,60,z,1,0.950635,,,,,,,,0.950635,1,,,,,,371,NW,"ID",16,geiloy,GEILOY,z,,,,,,0.138888904,-0.418518589,0,0,0,,0,21,21,310,1,
,,,,,,,,,,,,,,,,,,5f68fe45f544c70bb0f525e6,2020-12-01_16h20.56.776,lexical_decision_task_MP_exp2,2020.2.8,Win32,60,m,1,0.75053,,,,,,,,0.75053,1,,,,,,37,WORD,UN,16,powder,INSULT,m,,,,,,0.138888904,-0.418518589,0,0,0,,0,22,22,216,1,
,,,,,,,,,,,,,,,,,,5f68fe45f544c70bb0f525e6,2020-12-01_16h20.56.776,lexical_decision_task_MP_exp2,2020.2.8,Win32,60,z,1,0.8141,,,,,,,,0.8141,1,,,,,,306,NW,"ID",33,sounge,SOUNGE,z,,,,,,0.138888904,-0.418518589,0,0,0,,0,23,23,245,1,
,,,,,,,,,,,,,,,,,,5f68fe45f544c70bb0f525e6,2020-12-01_16h20.56.776,lexical_decision_task_MP_exp2,2020.2.8,Win32,60,m,1,0.66751,,,,,,,,0.66751,1,,,,,,198,WORD,UN,33,invoke,WICKED,m,,,,,,0.138888904,-0.418518589,0,0,0,,0,24,24,137,1,
,,,,,,,,,,,,,,,,,,5f68fe45f544c70bb0f525e6,2020-12-01_16h20.56.776,lexical_decision_task_MP_exp2,2020.2.8,Win32,60,m,1,0.60373,,,,,,,,0.60373,1,,,,,,137,WORD,"ID",16,finger,FINGER,m,,,,,,0.138888904,-0.418518589,0,0,0,,0,25,25,76,1,
,,,,,,,,,,,,,,,,,,5f68fe45f544c70bb0f525e6,2020-12-01_16h20.56.776,lexical_decision_task_MP_exp2,2020.2.8,Win32,60,m,1,0.68422,,,,,,,,0.68422,1,,,,,,61,WORD,"ID",33,ponder,PONDER,m,,,,,,0.138888904,-0.418518589,0,0,0,,0,26,26,0,1,
,,,,,,,,,,,,,,,,,,5f68fe45f544c70bb0f525e6,2020-12-01_16h20.56.776,lexical_decision_task_MP_exp2,2020.2.8,Win32,60,z,1,0.758745,,,,,,,,0.758745,1,,,,,,398,NW,"ID",16,blunde,BLUNDE,z,,,,,,0.138888904,-0.418518589,0,0,0,,0,27,27,337,1,
,,,,,,,,,,,,,,,,,,5f68fe45f544c70bb0f525e6,2020-12-01_16h20.56.776,lexical_decision_task_MP_exp2,2020.2.8,Win32,60,z,1,1.08764,,,,,,,,1.08764,1,,,,,,343,NW,"ID",33,aimosy,AIMOSY,z,,,,,,0.138888904,-0.418518589,0,0,0,,0,28,28,282,1,
,,,,,,,,,,,,,,,,,,5f68fe45f544c70bb0f525e6,2020-12-01_16h20.56.776,lexical_decision_task_MP_exp2,2020.2.8,Win32,60,z,1,0.830175,,,,,,,,0.830175,1,,,,,,322,NW,"ID",33,slanch,SLANCH,z,,,,,,0.138888904,-0.418518589,0,0,0,,0,29,29,261,1,
,,,,,,,,,,,,,,,,,,5f68fe45f544c70bb0f525e6,2020-12-01_16h20.56.776,lexical_decision_task_MP_exp2,2020.2.8,Win32,60,z,1,1.28376,,,,,,,,1.28376,1,,,,,,408,NW,"ID",16,hurnia,HURNIA,z,,,,,,0.138888904,-0.418518589,0,0,0,,0,30,30,347,1,
,,,,,,,,,,,,,,,,,,5f68fe45f544c70bb0f525e6,2020-12-01_16h20.56.776,lexical_decision_task_MP_exp2,2020.2.8,Win32,60,m,1,0.713805,,,,,,,,0.713805,1,,,,,,68,WORD,"ID",33,fumble,FUMBLE,m,,,,,,0.138888904,-0.418518589,0,0,0,,0,31,31,7,1,
,,,,,,,,,,,,,,,,,,5f68fe45f544c70bb0f525e6,2020-12-01_16h20.56.776,lexical_decision_task_MP_exp2,2020.2.8,Win32,60,m,1,1.19528,,,,,,,,1.19528,1,,,,,,143,WORD,"ID",16,reason,REASON,m,,,,,,0.138888904,-0.418518589,0,0,0,,0,32,32,82,1,
,,,,,,,,,,,,,,,,,,5f68fe45f544c70bb0f525e6,2020-12-01_16h20.56.776,lexical_decision_task_MP_exp2,2020.2.8,Win32,60,z,1,0.85936,,,,,,,,0.85936,1,,,,,,444,NW,UN,33,minkel,JAUNCE,z,,,,,,0.138888904,-0.418518589,0,0,0,,0,33,33,383,1,
,,,,,,,,,,,,,,,,,,5f68fe45f544c70bb0f525e6,2020-12-01_16h20.56.776,lexical_decision_task_MP_exp2,2020.2.8,Win32,60,m,1,0.734115,,,,,,,,0.734115,1,,,,,,25,WORD,UN,16,sprint,DOMAIN,m,,,,,,0.138888904,-0.418518589,0,0,0,,0,34,34,204,1,
,,,,,,,,,,,,,,,,,,5f68fe45f544c70bb0f525e6,2020-12-01_16h20.56.776,lexical_decision_task_MP_exp2,2020.2.8,Win32,60,z,1,0.76356,,,,,,,,0.76356,1,,,,,,360,NW,"ID",33,desory,DESORY,z,,,,,,0.138888904,-0.418518589,0,0,0,,0,35,35,299,1,
,,,,,,,,,,,,,,,,,,5f68fe45f544c70bb0f525e6,2020-12-01_16h20.56.776,lexical_decision_task_MP_exp2,2020.2.8,Win32,60,z,1,0.83392,,,,,,,,0.83392,1,,,,,,434,NW,UN,33,impurb,PITROM,z,,,,,,0.138888904,-0.418518589,0,0,0,,0,36,36,373,1,
,,,,,,,,,,,,,,,,,,5f68fe45f544c70bb0f525e6,2020-12-01_16h20.56.776,lexical_decision_task_MP_exp2,2020.2.8,Win32,60,z,1,0.713795,,,,,,,,0.713795,1,,,,,,311,NW,"ID",33,sproly,SPROLY,z,,,,,,0.138888904,-0.418518589,0,0,0,,0,37,37,250,1,
,,,,,,,,,,,,,,,,,,5f68fe45f544c70bb0f525e6,2020-12-01_16h20.56.776,lexical_decision_task_MP_exp2,2020.2.8,Win32,60,m,1,0.789125,,,,,,,,0.789125,1,,,,,,156,WORD,"ID",16,cradle,CRADLE,m,,,,,,0.138888904,-0.418518589,0,0,0,,0,38,38,95,1,
,,,,,,,,,,,,,,,,,,5f68fe45f544c70bb0f525e6,2020-12-01_16h20.56.776,lexical_decision_task_MP_exp2,2020.2.8,Win32,60,z,1,0.97444,,,,,,,,0.97444,1,,,,,,267,NW,UN,16,packes,PASINK,z,,,,,,0.138888904,-0.418518589,0,0,0,,0,39,39,446,1,
,,,,,,,,,,,,,,,,,,5f68fe45f544c70bb0f525e6,2020-12-01_16h20.56.776,lexical_decision_task_MP_exp2,2020.2.8,Win32,60,z,1,0.833905,,,,,,,,0.833905,1,,,,,,442,NW,UN,33,dorsex,ABOUNE,z,,,,,,0.138888904,-0.418518589,0,0,0,,0,40,40,381,1,
,,,,,,,,,,,,,,,,,,5f68fe45f544c70bb0f525e6,2020-12-01_16h20.56.776,lexical_decision_task_MP_exp2,2020.2.8,Win32,60,m,1,0.72782,,,,,,,,0.72782,1,,,,,,217,WORD,UN,33,shrink,LIQUOR,m,,,,,,0.138888904,-0.418518589,0,0,0,,0,41,41,156,1,
,,,,,,,,,,,,,,,,,,5f68fe45f544c70bb0f525e6,2020-12-01_16h20.56.776,lexical_decision_task_MP_exp2,2020.2.8,Win32,60,m,1,0.8754,,,,,,,,0.8754,1,,,,,,131,WORD,"ID",16,quench,QUENCH,m,,,,,,0.138888904,-0.418518589,0,0,0,,0,42,42,70,1,
,,,,,,,,,,,,,,,,,,5f68fe45f544c70bb0f525e6,2020-12-01_16h20.56.776,lexical_decision_task_MP_exp2,2020.2.8,Win32,60,m,1,0.76969,,,,,,,,0.76969,1,,,,,,67,WORD,"ID",33,policy,POLICY,m,,,,,,0.138888904,-0.418518589,0,0,0,,0,43,43,6,1,
,,,,,,,,,,,,,,,,,,5f68fe45f544c70bb0f525e6,2020-12-01_16h20.56.776,lexical_decision_task_MP_exp2,2020.2.8,Win32,60,z,1,0.750195,,,,,,,,0.750195,1,,,,,,440,NW,UN,33,rastoe,SARIDE,z,,,,,,0.138888904,-0.418518589,0,0,0,,0,44,44,379,1,
,,,,,,,,,,,,,,,,,,5f68fe45f544c70bb0f525e6,2020-12-01_16h20.56.776,lexical_decision_task_MP_exp2,2020.2.8,Win32,60,z,1,0.805725,,,,,,,,0.805725,1,,,,,,386,NW,"ID",16,ancust,ANCUST,z,,,,,,0.138888904,-0.418518589,0,0,0,,0,45,45,325,1,
,,,,,,,,,,,,,,,,,,5f68fe45f544c70bb0f525e6,2020-12-01_16h20.56.776,lexical_decision_task_MP_exp2,2020.2.8,Win32,60,m,1,0.81748,,,,,,,,0.81748,1,,,,,,82,WORD,"ID",33,stigma,STIGMA,m,,,,,,0.138888904,-0.418518589,0,0,0,,0,46,46,21,1,
,,,,,,,,,,,,,,,,,,5f68fe45f544c70bb0f525e6,2020-12-01_16h20.56.776,lexical_decision_task_MP_exp2,2020.2.8,Win32,60,m,1,0.860835,,,,,,,,0.860835,1,,,,,,191,WORD,UN,33,beacon,STABLE,m,,,,,,0.138888904,-0.418518589,0,0,0,,0,47,47,130,1,
,,,,,,,,,,,,,,,,,,5f68fe45f544c70bb0f525e6,2020-12-01_16h20.56.776,lexical_decision_task_MP_exp2,2020.2.8,Win32,60,m,1,0.67355,,,,,,,,0.67355,1,,,,,,88,WORD,"ID",33,hunger,HUNGER,m,,,,,,0.138888904,-0.418518589,0,0,0,,0,48,48,27,1,
,,,,,,,,,,,,,,,,,,5f68fe45f544c70bb0f525e6,2020-12-01_16h20.56.776,lexical_decision_task_MP_exp2,2020.2.8,Win32,60,m,1,0.6436,,,,,,,,0.6436,1,,,,,,95,WORD,"ID",33,thread,THREAD,m,,,,,,0.138888904,-0.418518589,0,0,0,,0,49,49,34,1,
,,,,,,,,,,,,,,,,,,5f68fe45f544c70bb0f525e6,2020-12-01_16h20.56.776,lexical_decision_task_MP_exp2,2020.2.8,Win32,60,z,1,0.676965,,,,,,,,0.676965,1,,,,,,369,NW,"ID",16,wronch,WRONCH,z,,,,,,0.138888904,-0.418518589,0,0,0,,0,50,50,308,1,
,,,,,,,,,,,,,,,,,,5f68fe45f544c70bb0f525e6,2020-12-01_16h20.56.776,lexical_decision_task_MP_exp2,2020.2.8,Win32,60,m,1,0.71971,,,,,,,,0.71971,1,,,,,,60,WORD,UN,16,fright,PENCIL,m,,,,,,0.138888904,-0.418518589,0,0,0,,0,51,51,239,1,
,,,,,,,,,,,,,,,,,,5f68fe45f544c70bb0f525e6,2020-12-01_16h20.56.776,lexical_decision_task_MP_exp2,2020.2.8,Win32,60,z,1,0.791175,,,,,,,,0.791175,1,,,,,,416,NW,"ID",16,pathel,PATHEL,z,,,,,,0.138888904,-0.418518589,0,0,0,,0,52,52,355,1,
,,,,,,,,,,,,,,,,,,5f68fe45f544c70bb0f525e6,2020-12-01_16h20.56.776,lexical_decision_task_MP_exp2,2020.2.8,Win32,60,m,1,0.816595,,,,,,,,0.816595,1,,,,,,89,WORD,"ID",33,permit,PERMIT,m,,,,,,0.138888904,-0.418518589,0,0,0,,0,53,53,28,1,
,,,,,,,,,,,,,,,,,,5f68fe45f544c70bb0f525e6,2020-12-01_16h20.56.776,lexical_decision_task_MP_exp2,2020.2.8,Win32,60,m,1,0.866895,,,,,,,,0.866895,1,,,,,,184,WORD,UN,33,bother,SLEAZY,m,,,,,,0.138888904,-0.418518589,0,0,0,,0,54,54,123,1,
,,,,,,,,,,,,,,,,,,5f68fe45f544c70bb0f525e6,2020-12-01_16h20.56.776,lexical_decision_task_MP_exp2,2020.2.8,Win32,60,z,1,0.701125,,,,,,,,0.701125,1,,,,,,333,NW,"ID",33,catrie,CATRIE,z,,,,,,0.138888904,-0.418518589,0,0,0,,0,55,55,272,1,
,,,,,,,,,,,,,,,,,,5f68fe45f544c70bb0f525e6,2020-12-01_16h20.56.776,lexical_decision_task_MP_exp2,2020.2.8,Win32,60,m,1,0.783635,,,,,,,,0.783635,1,,,,,,214,WORD,UN,33,phobia,INTAKE,m,,,,,,0.138888904,-0.418518589,0,0,0,,0,56,56,153,1,
,,,,,,,,,,,,,,,,,,5f68fe45f544c70bb0f525e6,2020-12-01_16h20.56.776,lexical_decision_task_MP_exp2,2020.2.8,Win32,60,z,1,0.89416,,,,,,,,0.89416,1,,,,,,330,NW,"ID",33,kensom,KENSOM,z,,,,,,0.138888904,-0.418518589,0,0,0,,0,57,57,269,1,
,,,,,,,,,,,,,,,,,,5f68fe45f544c70bb0f525e6,2020-12-01_16h20.56.776,lexical_decision_task_MP_exp2,2020.2.8,Win32,60,m,1,0.73084,,,,,,,,0.73084,1,,,,,,208,WORD,UN,33,search,HOCKEY,m,,,,,,0.138888904,-0.418518589,0,0,0,,0,58,58,147,1,
,,,,,,,,,,,,,,,,,,5f68fe45f544c70bb0f525e6,2020-12-01_16h20.56.776,lexical_decision_task_MP_exp2,2020.2.8,Win32,60,m,1,0.753905,,,,,,,,0.753905,1,,,,,,128,WORD,"ID",16,senior,SENIOR,m,,,,,,0.138888904,-0.418518589,0,0,0,,0,59,59,67,1,
,,,,,,,,,,,,,,,,,,5f68fe45f544c70bb0f525e6,2020-12-01_16h20.56.776,lexical_decision_task_MP_exp2,2020.2.8,Win32,60,m,1,0.61389,,,,,,,,0.61389,1,,,,,,14,WORD,UN,16,orange,ALMOST,m,,,,,,0.138888904,-0.418518589,0,0,0,,0,60,60,193,1,
,,,,,,,,,,,,,,,,,,5f68fe45f544c70bb0f525e6,2020-12-01_16h20.56.776,lexical_decision_task_MP_exp2,2020.2.8,Win32,60,m,1,0.6216,,,,,,,,0.6216,1,,,,,,147,WORD,"ID",16,garlic,GARLIC,m,,,,,,0.138888904,-0.418518589,0,0,0,,0,61,61,86,1,
,,,,,,,,,,,,,,,,,,5f68fe45f544c70bb0f525e6,2020-12-01_16h20.56.776,lexical_decision_task_MP_exp2,2020.2.8,Win32,60,z,1,0.75075,,,,,,,,0.75075,1,,,,,,464,NW,UN,33,whivex,CHAITE,z,,,,,,0.138888904,-0.418518589,0,0,0,,0,62,62,403,1,
,,,,,,,,,,,,,,,,,,5f68fe45f544c70bb0f525e6,2020-12-01_16h20.56.776,lexical_decision_task_MP_exp2,2020.2.8,Win32,60,m,1,0.66763,,,,,,,,0.66763,1,,,,,,144,WORD,"ID",16,sponge,SPONGE,m,,,,,,0.138888904,-0.418518589,0,0,0,,0,63,63,83,1,
,,,,,,,,,,,,,,,,,,5f68fe45f544c70bb0f525e6,2020-12-01_16h20.56.776,lexical_decision_task_MP_exp2,2020.2.8,Win32,60,z,1,1.034405,,,,,,,,1.034405,1,,,,,,407,NW,"ID",16,suiver,SUIVER,z,,,,,,0.138888904,-0.418518589,0,0,0,,0,64,64,346,1,
,,,,,,,,,,,,,,,,,,5f68fe45f544c70bb0f525e6,2020-12-01_16h20.56.776,lexical_decision_task_MP_exp2,2020.2.8,Win32,60,m,1,0.77676,,,,,,,,0.77676,1,,,,,,177,WORD,"ID",16,advent,ADVENT,m,,,,,,0.138888904,-0.418518589,0,0,0,,0,65,65,116,1,
,,,,,,,,,,,,,,,,,,5f68fe45f544c70bb0f525e6,2020-12-01_16h20.56.776,lexical_decision_task_MP_exp2,2020.2.8,Win32,60,z,1,0.817065,,,,,,,,0.817065,1,,,,,,294,NW,UN,16,gleath,INHORT,z,,,,,,0.138888904,-0.418518589,0,0,0,,0,66,66,473,1,
,,,,,,,,,,,,,,,,,,5f68fe45f544c70bb0f525e6,2020-12-01_16h20.56.776,lexical_decision_task_MP_exp2,2020.2.8,Win32,60,z,1,0.90052,,,,,,,,0.90052,1,,,,,,366,NW,"ID",16,toshel,TOSHEL,z,,,,,,0.138888904,-0.418518589,0,0,0,,0,67,67,305,1,
,,,,,,,,,,,,,,,,,,5f68fe45f544c70bb0f525e6,2020-12-01_16h20.56.776,lexical_decision_task_MP_exp2,2020.2.8,Win32,60,m,1,0.717345,,,,,,,,0.717345,1,,,,,,169,WORD,"ID",16,genius,GENIUS,m,,,,,,0.138888904,-0.418518589,0,0,0,,0,68,68,108,1,
,,,,,,,,,,,,,,,,,,5f68fe45f544c70bb0f525e6,2020-12-01_16h20.56.776,lexical_decision_task_MP_exp2,2020.2.8,Win32,60,m,1,0.714655,,,,,,,,0.714655,1,,,,,,102,WORD,"ID",33,direct,DIRECT,m,,,,,,0.138888904,-0.418518589,0,0,0,,0,69,69,41,1,
,,,,,,,,,,,,,,,,,,5f68fe45f544c70bb0f525e6,2020-12-01_16h20.56.776,lexical_decision_task_MP_exp2,2020.2.8,Win32,60,z,1,0.952585,,,,,,,,0.952585,1,,,,,,350,NW,"ID",33,nagurs,NAGURS,z,,,,,,0.138888904,-0.418518589,0,0,0,,0,70,70,289,1,
,,,,,,,,,,,,,,,,,,5f68fe45f544c70bb0f525e6,2020-12-01_16h20.56.776,lexical_decision_task_MP_exp2,2020.2.8,Win32,60,z,1,1.13402,,,,,,,,1.13402,1,,,,,,318,NW,"ID",33,reagly,REAGLY,z,,,,,,0.138888904,-0.418518589,0,0,0,,0,71,71,257,1,
,,,,,,,,,,,,,,,,,,5f68fe45f544c70bb0f525e6,2020-12-01_16h20.56.776,lexical_decision_task_MP_exp2,2020.2.8,Win32,60,m,1,0.70894,,,,,,,,0.70894,1,,,,,,110,WORD,"ID",33,polite,POLITE,m,,,,,,0.138888904,-0.418518589,0,0,0,,0,72,72,49,1,
,,,,,,,,,,,,,,,,,,5f68fe45f544c70bb0f525e6,2020-12-01_16h20.56.776,lexical_decision_task_MP_exp2,2020.2.8,Win32,60,z,1,0.954045,,,,,,,,0.954045,1,,,,,,435,NW,UN,33,frutan,IMPURB,z,,,,,,0.138888904,-0.418518589,0,0,0,,0,73,73,374,1,
,,,,,,,,,,,,,,,,,,5f68fe45f544c70bb0f525e6,2020-12-01_16h20.56.776,lexical_decision_task_MP_exp2,2020.2.8,Win32,60,m,1,0.81731,,,,,,,,0.81731,1,,,,,,123,WORD,"ID",16,strike,STRIKE,m,,,,,,0.138888904,-0.418518589,0,0,0,,0,74,74,62,1,
,,,,,,,,,,,,,,,,,,5f68fe45f544c70bb0f525e6,2020-12-01_16h20.56.776,lexical_decision_task_MP_exp2,2020.2.8,Win32,60,z,1,1.000565,,,,,,,,1.000565,1,,,,,,437,NW,UN,33,baitch,SNAPEL,z,,,,,,0.138888904,-0.418518589,0,0,0,,0,75,75,376,1,
,,,,,,,,,,,,,,,,,,5f68fe45f544c70bb0f525e6,2020-12-01_16h20.56.776,lexical_decision_task_MP_exp2,2020.2.8,Win32,60,m,1,0.72347,,,,,,,,0.72347,1,,,,,,76,WORD,"ID",33,exotic,EXOTIC,m,,,,,,0.138888904,-0.418518589,0,0,0,,0,76,76,15,1,
,,,,,,,,,,,,,,,,,,5f68fe45f544c70bb0f525e6,2020-12-01_16h20.56.776,lexical_decision_task_MP_exp2,2020.2.8,Win32,60,m,1,0.641335,,,,,,,,0.641335,1,,,,,,55,WORD,UN,16,ambush,STROKE,m,,,,,,0.138888904,-0.418518589,0,0,0,,0,77,77,234,1,
,,,,,,,,,,,,,,,,,,5f68fe45f544c70bb0f525e6,2020-12-01_16h20.56.776,lexical_decision_task_MP_exp2,2020.2.8,Win32,60,m,1,0.684515,,,,,,,,0.684515,1,,,,,,9,WORD,UN,16,bridge,HUSTLE,m,,,,,,0.138888904,-0.418518589,0,0,0,,0,78,78,188,1,
,,,,,,,,,,,,,,,,,,5f68fe45f544c70bb0f525e6,2020-12-01_16h20.56.776,lexical_decision_task_MP_exp2,2020.2.8,Win32,60,z,1,0.767085,,,,,,,,0.767085,1,,,,,,297,NW,UN,16,piergy,FERTIC,z,,,,,,0.138888904,-0.418518589,0,0,0,,0,79,79,476,1,
,,,,,,,,,,,,,,,,,,5f68fe45f544c70bb0f525e6,2020-12-01_16h20.56.776,lexical_decision_task_MP_exp2,2020.2.8,Win32,60,m,1,0.72648,,,,,,,,0.72648,1,,,,,,113,WORD,"ID",33,chorus,CHORUS,m,,,,,,0.138888904,-0.418518589,0,0,0,,0,80,80,52,1,
,,,,,,,,,,,,,,,,,,5f68fe45f544c70bb0f525e6,2020-12-01_16h20.56.776,lexical_decision_task_MP_exp2,2020.2.8,Win32,60,z,1,1.06764,,,,,,,,1.06764,1,,,,,,413,NW,"ID",16,equats,EQUATS,z,,,,,,0.138888904,-0.418518589,0,0,0,,0,81,81,352,1,
,,,,,,,,,,,,,,,,,,5f68fe45f544c70bb0f525e6,2020-12-01_16h20.56.776,lexical_decision_task_MP_exp2,2020.2.8,Win32,60,z,1,1.07033,,,,,,,,1.07033,1,,,,,,397,NW,"ID",16,camble,CAMBLE,z,,,,,,0.138888904,-0.418518589,0,0,0,,0,82,82,336,1,
,,,,,,,,,,,,,,,,,,5f68fe45f544c70bb0f525e6,2020-12-01_16h20.56.776,lexical_decision_task_MP_exp2,2020.2.8,Win32,60,z,1,0.81366,,,,,,,,0.81366,1,,,,,,391,NW,"ID",16,theldy,THELDY,z,,,,,,0.138888904,-0.418518589,0,0,0,,0,83,83,330,1,
,,,,,,,,,,,,,,,,,,5f68fe45f544c70bb0f525e6,2020-12-01_16h20.56.776,lexical_decision_task_MP_exp2,2020.2.8,Win32,60,z,1,0.638285,,,,,,,,0.638285,1,,,,,,256,NW,UN,16,veniod,INLORS,z,,,,,,0.138888904,-0.418518589,0,0,0,,0,84,84,435,1,
,,,,,,,,,,,,,,,,,,5f68fe45f544c70bb0f525e6,2020-12-01_16h20.56.776,lexical_decision_task_MP_exp2,2020.2.8,Win32,60,z,1,1.094295,,,,,,,,1.094295,1,,,,,,340,NW,"ID",33,fiatch,FIATCH,z,,,,,,0.138888904,-0.418518589,0,0,0,,0,85,85,279,1,
,,,,,,,,,,,,,,,,,,5f68fe45f544c70bb0f525e6,2020-12-01_16h20.56.776,lexical_decision_task_MP_exp2,2020.2.8,Win32,60,z,1,0.81034,,,,,,,,0.81034,1,,,,,,304,NW,"ID",33,cludie,CLUDIE,z,,,,,,0.138888904,-0.418518589,0,0,0,,0,86,86,243,1,
,,,,,,,,,,,,,,,,,,5f68fe45f544c70bb0f525e6,2020-12-01_16h20.56.776,lexical_decision_task_MP_exp2,2020.2.8,Win32,60,m,1,0.625385,,,,,,,,0.625385,1,,,,,,26,WORD,UN,16,butler,SPRINT,m,,,,,,0.138888904,-0.418518589,0,0,0,,0,87,87,205,1,
,,,,,,,,,,,,,,,,,,5f68fe45f544c70bb0f525e6,2020-12-01_16h20.56.776,lexical_decision_task_MP_exp2,2020.2.8,Win32,60,z,1,0.9707,,,,,,,,0.9707,1,,,,,,269,NW,UN,16,wrimsy,ORCHET,z,,,,,,0.138888904,-0.418518589,0,0,0,,0,88,88,448,1,
,,,,,,,,,,,,,,,,,,5f68fe45f544c70bb0f525e6,2020-12-01_16h20.56.776,lexical_decision_task_MP_exp2,2020.2.8,Win32,60,m,1,1.473435,,,,,,,,1.473435,1,,,,,,163,WORD,"ID",16,string,STRING,m,,,,,,0.138888904,-0.418518589,0,0,0,,0,89,89,102,1,
,,,,,,,,,,,,,,,,,,5f68fe45f544c70bb0f525e6,2020-12-01_16h20.56.776,lexical_decision_task_MP_exp2,2020.2.8,Win32,60,m,1,0.671165,,,,,,,,0.671165,1,,,,,,22,WORD,UN,16,wealth,JOCKEY,m,,,,,,0.138888904,-0.418518589,0,0,0,,0,90,90,201,1,
,,,,,,,,,,,,,,,,,,5f68fe45f544c70bb0f525e6,2020-12-01_16h20.56.776,lexical_decision_task_MP_exp2,2020.2.8,Win32,60,m,1,0.57131,,,,,,,,0.57131,1,,,,,,221,WORD,UN,33,hinder,MASCOT,m,,,,,,0.138888904,-0.418518589,0,0,0,,0,91,91,160,1,
,,,,,,,,,,,,,,,,,,5f68fe45f544c70bb0f525e6,2020-12-01_16h20.56.776,lexical_decision_task_MP_exp2,2020.2.8,Win32,60,z,1,0.75019,,,,,,,,0.75019,1,,,,,,268,NW,UN,16,orchet,PACKES,z,,,,,,0.138888904,-0.418518589,0,0,0,,0,92,92,447,1,
,,,,,,,,,,,,,,,,,,5f68fe45f544c70bb0f525e6,2020-12-01_16h20.56.776,lexical_decision_task_MP_exp2,2020.2.8,Win32,60,z,1,0.99314,,,,,,,,0.99314,1,,,,,,241,NW,UN,16,unwert,SMENCO,z,,,,,,0.138888904,-0.418518589,0,0,0,,0,93,93,420,1,
,,,,,,,,,,,,,,,,,,5f68fe45f544c70bb0f525e6,2020-12-01_16h20.56.776,lexical_decision_task_MP_exp2,2020.2.8,Win32,60,m,1,0.847075,,,,,,,,0.847075,1,,,,,,170,WORD,"ID",16,pounce,POUNCE,m,,,,,,0.138888904,-0.418518589,0,0,0,,0,94,94,109,1,
,,,,,,,,,,,,,,,,,,5f68fe45f544c70bb0f525e6,2020-12-01_16h20.56.776,lexical_decision_task_MP_exp2,2020.2.8,Win32,60,z,1,0.692115,,,,,,,,0.692115,1,,,,,,281,NW,UN,16,porlex,MELATY,z,,,,,,0.138888904,-0.418518589,0,0,0,,0,95,95,460,1,
,,,,,,,,,,,,,,,,,,5f68fe45f544c70bb0f525e6,2020-12-01_16h20.56.776,lexical_decision_task_MP_exp2,2020.2.8,Win32,60,z,1,0.68416,,,,,,,,0.68416,1,,,,,,282,NW,UN,16,veralf,PORLEX,z,,,,,,0.138888904,-0.418518589,0,0,0,,0,96,96,461,1,
,,,,,,,,,,,,,,,,,,5f68fe45f544c70bb0f525e6,2020-12-01_16h20.56.776,lexical_decision_task_MP_exp2,2020.2.8,Win32,60,z,1,1.00057,,,,,,,,1.00057,1,,,,,,447,NW,UN,33,sadent,GIRCUE,z,,,,,,0.138888904,-0.418518589,0,0,0,,0,97,97,386,1,
,,,,,,,,,,,,,,,,,,5f68fe45f544c70bb0f525e6,2020-12-01_16h20.56.776,lexical_decision_task_MP_exp2,2020.2.8,Win32,60,z,1,0.807865,,,,,,,,0.807865,1,,,,,,273,NW,UN,16,fumblo,SORTEL,z,,,,,,0.138888904,-0.418518589,0,0,0,,0,98,98,452,1,
,,,,,,,,,,,,,,,,,,5f68fe45f544c70bb0f525e6,2020-12-01_16h20.56.776,lexical_decision_task_MP_exp2,2020.2.8,Win32,60,m,1,0.627875,,,,,,,,0.627875,1,,,,,,182,WORD,UN,33,absent,WINTER,m,,,,,,0.138888904,-0.418518589,0,0,0,,0,99,99,121,1,
,,,,,,,,,,,,,,,,,,5f68fe45f544c70bb0f525e6,2020-12-01_16h20.56.776,lexical_decision_task_MP_exp2,2020.2.8,Win32,60,m,1,0.68399,,,,,,,,0.68399,1,,,,,,183,WORD,UN,33,sleazy,MILDEW,m,,,,,,0.138888904,-0.418518589,0,0,0,,0,100,100,122,1,
,,,,,,,,,,,,,,,,,,5f68fe45f544c70bb0f525e6,2020-12-01_16h20.56.776,lexical_decision_task_MP_exp2,2020.2.8,Win32,60,z,1,0.784225,,,,,,,,0.784225,1,,,,,,382,NW,"ID",16,sarley,SARLEY,z,,,,,,0.138888904,-0.418518589,0,0,0,,0,101,101,321,1,
,,,,,,,,,,,,,,,,,,5f68fe45f544c70bb0f525e6,2020-12-01_16h20.56.776,lexical_decision_task_MP_exp2,2020.2.8,Win32,60,m,1,0.96368,,,,,,,,0.96368,1,,,,,,230,WORD,UN,33,mother,FRINGE,m,,,,,,0.138888904,-0.418518589,0,0,0,,0,102,102,169,1,
,,,,,,,,,,,,,,,,,,5f68fe45f544c70bb0f525e6,2020-12-01_16h20.56.776,lexical_decision_task_MP_exp2,2020.2.8,Win32,60,m,1,0.766915,,,,,,,,0.766915,1,,,,,,34,WORD,UN,16,socket,JUNGLE,m,,,,,,0.138888904,-0.418518589,0,0,0,,0,103,103,213,1,
,,,,,,,,,,,,,,,,,,5f68fe45f544c70bb0f525e6,2020-12-01_16h20.56.776,lexical_decision_task_MP_exp2,2020.2.8,Win32,60,z,1,0.73503,,,,,,,,0.73503,1,,,,,,479,NW,UN,33,crible,LOBUSH,z,,,,,,0.138888904,-0.418518589,0,0,0,,0,104,104,418,1,
,,,,,,,,,,,,,,,,,,5f68fe45f544c70bb0f525e6,2020-12-01_16h20.56.776,lexical_decision_task_MP_exp2,2020.2.8,Win32,60,m,1,0.803375,,,,,,,,0.803375,1,,,,,,87,WORD,"ID",33,filter,FILTER,m,,,,,,0.138888904,-0.418518589,0,0,0,,0,105,105,26,1,
,,,,,,,,,,,,,,,,,,5f68fe45f544c70bb0f525e6,2020-12-01_16h20.56.776,lexical_decision_task_MP_exp2,2020.2.8,Win32,60,z,1,0.842865,,,,,,,,0.842865,1,,,,,,385,NW,"ID",16,veigma,VEIGMA,z,,,,,,0.138888904,-0.418518589,0,0,0,,0,106,106,324,1,
,,,,,,,,,,,,,,,,,,5f68fe45f544c70bb0f525e6,2020-12-01_16h20.56.776,lexical_decision_task_MP_exp2,2020.2.8,Win32,60,m,1,1.142995,,,,,,,,1.142995,1,,,,,,166,WORD,"ID",16,starch,STARCH,m,,,,,,0.138888904,-0.418518589,0,0,0,,0,107,107,105,1,
,,,,,,,,,,,,,,,,,,5f68fe45f544c70bb0f525e6,2020-12-01_16h20.56.776,lexical_decision_task_MP_exp2,2020.2.8,Win32,60,m,1,0.647845,,,,,,,,0.647845,1,,,,,,210,WORD,UN,33,infect,MONKEY,m,,,,,,0.138888904,-0.418518589,0,0,0,,0,108,108,149,1,
,,,,,,,,,,,,,,,,,,5f68fe45f544c70bb0f525e6,2020-12-01_16h20.56.776,lexical_decision_task_MP_exp2,2020.2.8,Win32,60,m,1,0.70331,,,,,,,,0.70331,1,,,,,,84,WORD,"ID",33,mortal,MORTAL,m,,,,,,0.138888904,-0.418518589,0,0,0,,0,109,109,23,1,
,,,,,,,,,,,,,,,,,,5f68fe45f544c70bb0f525e6,2020-12-01_16h20.56.776,lexical_decision_task_MP_exp2,2020.2.8,Win32,60,z,1,1.01751,,,,,,,,1.01751,1,,,,,,433,NW,UN,33,pitrom,DRANCE,z,,,,,,0.138888904,-0.418518589,0,0,0,,0,110,110,372,1,
,,,,,,,,,,,,,,,,,,5f68fe45f544c70bb0f525e6,2020-12-01_16h20.56.776,lexical_decision_task_MP_exp2,2020.2.8,Win32,60,m,1,1.26192,,,,,,,,1.26192,1,,,,,,132,WORD,"ID",16,strong,STRONG,m,,,,,,0.138888904,-0.418518589,0,0,0,,0,111,111,71,1,
,,,,,,,,,,,,,,,,,,5f68fe45f544c70bb0f525e6,2020-12-01_16h20.56.776,lexical_decision_task_MP_exp2,2020.2.8,Win32,60,m,1,0.767405,,,,,,,,0.767405,1,,,,,,227,WORD,UN,33,master,SELDOM,m,,,,,,0.138888904,-0.418518589,0,0,0,,0,112,112,166,1,
,,,,,,,,,,,,,,,,,,5f68fe45f544c70bb0f525e6,2020-12-01_16h20.56.776,lexical_decision_task_MP_exp2,2020.2.8,Win32,60,m,1,0.793685,,,,,,,,0.793685,1,,,,,,81,WORD,"ID",33,friend,FRIEND,m,,,,,,0.138888904,-0.418518589,0,0,0,,0,113,113,20,1,
,,,,,,,,,,,,,,,,,,5f68fe45f544c70bb0f525e6,2020-12-01_16h20.56.776,lexical_decision_task_MP_exp2,2020.2.8,Win32,60,z,1,0.69794,,,,,,,,0.69794,1,,,,,,475,NW,UN,33,josted,PEBRIC,z,,,,,,0.138888904,-0.418518589,0,0,0,,0,114,114,414,1,
,,,,,,,,,,,,,,,,,,5f68fe45f544c70bb0f525e6,2020-12-01_16h20.56.776,lexical_decision_task_MP_exp2,2020.2.8,Win32,60,z,1,0.57828,,,,,,,,0.57828,1,,,,,,356,NW,"ID",33,othnis,OTHNIS,z,,,,,,0.138888904,-0.418518589,0,0,0,,0,115,115,295,1,
,,,,,,,,,,,,,,,,,,5f68fe45f544c70bb0f525e6,2020-12-01_16h20.56.776,lexical_decision_task_MP_exp2,2020.2.8,Win32,60,z,1,0.68977,,,,,,,,0.68977,1,,,,,,453,NW,UN,33,scouge,BOLVIS,z,,,,,,0.138888904,-0.418518589,0,0,0,,0,116,116,392,1,
,,,,,,,,,,,,,,,,,,5f68fe45f544c70bb0f525e6,2020-12-01_16h20.56.776,lexical_decision_task_MP_exp2,2020.2.8,Win32,60,m,1,0.66733,,,,,,,,0.66733,1,,,,,,238,WORD,UN,33,behalf,FLOWER,m,,,,,,0.138888904,-0.418518589,0,0,0,,0,117,117,177,1,
,,,,,,,,,,,,,,,,,,5f68fe45f544c70bb0f525e6,2020-12-01_16h20.56.776,lexical_decision_task_MP_exp2,2020.2.8,Win32,60,z,1,0.801605,,,,,,,,0.801605,1,,,,,,338,NW,"ID",33,wreash,WREASH,z,,,,,,0.138888904,-0.418518589,0,0,0,,0,118,118,277,1,
,,,,,,,,,,,,,,,,,,5f68fe45f544c70bb0f525e6,2020-12-01_16h20.56.776,lexical_decision_task_MP_exp2,2020.2.8,Win32,60,z,1,0.667895,,,,,,,,0.667895,1,,,,,,315,NW,"ID",33,laston,LASTON,z,,,,,,0.138888904,-0.418518589,0,0,0,,0,119,119,254,1,
,,,,,,,,,,,,,,,,,,5f68fe45f544c70bb0f525e6,2020-12-01_16h20.56.776,lexical_decision_task_MP_exp2,2020.2.8,Win32,60,m,1,0.80637,,,,,,,,0.80637,1,,,,,,24,WORD,UN,16,domain,PRAISE,m,,,,,,0.141666682,-0.426851866,0,0,0,space,0,120,120,203,1,17.11833
,,,,,,,,,,,,,,,,,,5f68fe45f544c70bb0f525e6,2020-12-01_16h20.56.776,lexical_decision_task_MP_exp2,2020.2.8,Win32,60,z,1,0.63648,,,,,,,,0.63648,1,,,,,,448,NW,UN,33,brunge,SADENT,z,,,,,,0.142592608,-0.42592594,0,0,0,,0,121,121,387,1,
,,,,,,,,,,,,,,,,,,5f68fe45f544c70bb0f525e6,2020-12-01_16h20.56.776,lexical_decision_task_MP_exp2,2020.2.8,Win32,60,m,1,0.634505,,,,,,,,0.634505,1,,,,,,150,WORD,"ID",16,random,RANDOM,m,,,,,,0.137962978,-0.423148218,0,0,0,,0,122,122,89,1,
,,,,,,,,,,,,,,,,,,5f68fe45f544c70bb0f525e6,2020-12-01_16h20.56.776,lexical_decision_task_MP_exp2,2020.2.8,Win32,60,m,1,0.58711,,,,,,,,0.58711,1,,,,,,109,WORD,"ID",33,wonder,WONDER,m,,,,,,0.137962978,-0.423148218,0,0,0,,0,123,123,48,1,
,,,,,,,,,,,,,,,,,,5f68fe45f544c70bb0f525e6,2020-12-01_16h20.56.776,lexical_decision_task_MP_exp2,2020.2.8,Win32,60,z,1,0.68284,,,,,,,,0.68284,1,,,,,,349,NW,"ID",33,asylen,ASYLEN,z,,,,,,0.143518534,-0.419444458,0,0,0,,0,124,124,288,1,
,,,,,,,,,,,,,,,,,,5f68fe45f544c70bb0f525e6,2020-12-01_16h20.56.776,lexical_decision_task_MP_exp2,2020.2.8,Win32,60,z,1,0.78484,,,,,,,,0.78484,1,,,,,,387,NW,"ID",16,gronce,GRONCE,z,,,,,,0.136111126,-0.424074088,0,0,0,,0,125,125,326,1,
,,,,,,,,,,,,,,,,,,5f68fe45f544c70bb0f525e6,2020-12-01_16h20.56.776,lexical_decision_task_MP_exp2,2020.2.8,Win32,60,z,1,0.57532,,,,,,,,0.57532,1,,,,,,324,NW,"ID",33,steikh,STEIKH,z,,,,,,0.129629645,-0.425000014,0,0,0,,0,126,126,263,1,
,,,,,,,,,,,,,,,,,,5f68fe45f544c70bb0f525e6,2020-12-01_16h20.56.776,lexical_decision_task_MP_exp2,2020.2.8,Win32,60,z,1,0.834425,,,,,,,,0.834425,1,,,,,,339,NW,"ID",33,fachow,FACHOW,z,,,,,,0.125925941,-0.424074088,0,0,0,,0,127,127,278,1,
,,,,,,,,,,,,,,,,,,5f68fe45f544c70bb0f525e6,2020-12-01_16h20.56.776,lexical_decision_task_MP_exp2,2020.2.8,Win32,60,m,1,0.636865,,,,,,,,0.636865,1,,,,,,162,WORD,"ID",16,candle,CANDLE,m,,,,,,0.121296311,-0.427777848,0,0,0,,0,128,128,101,1,
,,,,,,,,,,,,,,,,,,5f68fe45f544c70bb0f525e6,2020-12-01_16h20.56.776,lexical_decision_task_MP_exp2,2020.2.8,Win32,60,z,1,0.70071,,,,,,,,0.70071,1,,,,,,289,NW,UN,16,splino,STARBY,z,,,,,,0.123148163,-0.426851866,0,0,0,,0,129,129,468,1,
,,,,,,,,,,,,,,,,,,5f68fe45f544c70bb0f525e6,2020-12-01_16h20.56.776,lexical_decision_task_MP_exp2,2020.2.8,Win32,60,m,1,0.71769,,,,,,,,0.71769,1,,,,,,190,WORD,UN,33,stable,BACKUP,m,,,,,,0.119444459,-0.425000014,0,0,0,,0,130,130,129,1,
,,,,,,,,,,,,,,,,,,5f68fe45f544c70bb0f525e6,2020-12-01_16h20.56.776,lexical_decision_task_MP_exp2,2020.2.8,Win32,60,m,1,0.66747,,,,,,,,0.66747,1,,,,,,223,WORD,UN,33,period,KIDNEY,m,,,,,,0.120370385,-0.425000014,0,0,0,,0,131,131,162,1,
,,,,,,,,,,,,,,,,,,5f68fe45f544c70bb0f525e6,2020-12-01_16h20.56.776,lexical_decision_task_MP_exp2,2020.2.8,Win32,60,m,1,0.767385,,,,,,,,0.767385,1,,,,,,199,WORD,UN,33,plague,INVOKE,m,,,,,,0.120370385,-0.425000014,0,0,0,,0,132,132,138,1,
,,,,,,,,,,,,,,,,,,5f68fe45f544c70bb0f525e6,2020-12-01_16h20.56.776,lexical_decision_task_MP_exp2,2020.2.8,Win32,60,m,1,0.8507,,,,,,,,0.8507,1,,,,,,111,WORD,"ID",33,induce,INDUCE,m,,,,,,0.120370385,-0.425000014,0,0,0,,0,133,133,50,1,
,,,,,,,,,,,,,,,,,,5f68fe45f544c70bb0f525e6,2020-12-01_16h20.56.776,lexical_decision_task_MP_exp2,2020.2.8,Win32,60,m,1,1.216865,,,,,,,,1.216865,1,,,,,,140,WORD,"ID",16,prince,PRINCE,m,,,,,,0.120370385,-0.425000014,0,0,0,,0,134,134,79,1,
,,,,,,,,,,,,,,,,,,5f68fe45f544c70bb0f525e6,2020-12-01_16h20.56.776,lexical_decision_task_MP_exp2,2020.2.8,Win32,60,z,1,0.70352,,,,,,,,0.70352,1,,,,,,323,NW,"ID",33,rosail,ROSAIL,z,,,,,,0.120370385,-0.425000014,0,0,0,,0,135,135,262,1,
,,,,,,,,,,,,,,,,,,5f68fe45f544c70bb0f525e6,2020-12-01_16h20.56.776,lexical_decision_task_MP_exp2,2020.2.8,Win32,60,z,1,1.067865,,,,,,,,1.067865,1,,,,,,455,NW,UN,33,broget,TONDLE,z,,,,,,0.120370385,-0.425000014,0,0,0,,0,136,136,394,1,
,,,,,,,,,,,,,,,,,,5f68fe45f544c70bb0f525e6,2020-12-01_16h20.56.776,lexical_decision_task_MP_exp2,2020.2.8,Win32,60,m,1,0.641815,,,,,,,,0.641815,1,,,,,,138,WORD,"ID",16,melody,MELODY,m,,,,,,0.123148163,-0.423148218,0,0,0,,0,137,137,77,1,
,,,,,,,,,,,,,,,,,,5f68fe45f544c70bb0f525e6,2020-12-01_16h20.56.776,lexical_decision_task_MP_exp2,2020.2.8,Win32,60,m,1,0.72666,,,,,,,,0.72666,1,,,,,,216,WORD,UN,33,liquor,BEHALF,m,,,,,,0.123148163,-0.423148218,0,0,0,,0,138,138,155,1,
,,,,,,,,,,,,,,,,,,5f68fe45f544c70bb0f525e6,2020-12-01_16h20.56.776,lexical_decision_task_MP_exp2,2020.2.8,Win32,60,z,1,0.703725,,,,,,,,0.703725,1,,,,,,381,NW,"ID",16,huniek,HUNIEK,z,,,,,,0.123148163,-0.424074088,0,0,0,,0,139,139,320,1,
,,,,,,,,,,,,,,,,,,5f68fe45f544c70bb0f525e6,2020-12-01_16h20.56.776,lexical_decision_task_MP_exp2,2020.2.8,Win32,60,m,1,0.783795,,,,,,,,0.783795,1,,,,,,71,WORD,"ID",33,garden,GARDEN,m,,,,,,0.123148163,-0.424074088,0,0,0,,0,140,140,10,1,
,,,,,,,,,,,,,,,,,,5f68fe45f544c70bb0f525e6,2020-12-01_16h20.56.776,lexical_decision_task_MP_exp2,2020.2.8,Win32,60,z,1,0.787895,,,,,,,,0.787895,1,,,,,,439,NW,UN,33,saride,LIMPOR,z,,,,,,0.123148163,-0.424074088,0,0,0,,0,141,141,378,1,
,,,,,,,,,,,,,,,,,,5f68fe45f544c70bb0f525e6,2020-12-01_16h20.56.776,lexical_decision_task_MP_exp2,2020.2.8,Win32,60,z,1,0.66898,,,,,,,,0.66898,1,,,,,,334,NW,"ID",33,watmeg,WATMEG,z,,,,,,0.124074089,-0.423148218,0,0,0,,0,142,142,273,1,
,,,,,,,,,,,,,,,,,,5f68fe45f544c70bb0f525e6,2020-12-01_16h20.56.776,lexical_decision_task_MP_exp2,2020.2.8,Win32,60,m,1,0.751125,,,,,,,,0.751125,1,,,,,,189,WORD,UN,33,backup,CENSOR,m,,,,,,0.124074089,-0.423148218,0,0,0,,0,143,143,128,1,
,,,,,,,,,,,,,,,,,,5f68fe45f544c70bb0f525e6,2020-12-01_16h20.56.776,lexical_decision_task_MP_exp2,2020.2.8,Win32,60,z,1,0.780825,,,,,,,,0.780825,1,,,,,,423,NW,UN,33,praile,STRELD,z,,,,,,0.124074089,-0.423148218,0,0,0,,0,144,144,362,1,
,,,,,,,,,,,,,,,,,,5f68fe45f544c70bb0f525e6,2020-12-01_16h20.56.776,lexical_decision_task_MP_exp2,2020.2.8,Win32,60,z,1,0.967095,,,,,,,,0.967095,1,,,,,,478,NW,UN,33,pebric,ACRISE,z,,,,,,0.124074089,-0.423148218,0,0,0,,0,145,145,417,1,
,,,,,,,,,,,,,,,,,,5f68fe45f544c70bb0f525e6,2020-12-01_16h20.56.776,lexical_decision_task_MP_exp2,2020.2.8,Win32,60,z,1,0.86747,,,,,,,,0.86747,1,,,,,,329,NW,"ID",33,yarike,YARIKE,z,,,,,,0.123148163,-0.423148218,0,0,0,,0,146,146,268,1,
,,,,,,,,,,,,,,,,,,5f68fe45f544c70bb0f525e6,2020-12-01_16h20.56.776,lexical_decision_task_MP_exp2,2020.2.8,Win32,60,m,1,0.60957,,,,,,,,0.60957,1,,,,,,45,WORD,UN,16,single,CLERGY,m,,,,,,0.121296311,-0.42592594,0,0,0,,0,147,147,224,1,
,,,,,,,,,,,,,,,,,,5f68fe45f544c70bb0f525e6,2020-12-01_16h20.56.776,lexical_decision_task_MP_exp2,2020.2.8,Win32,60,m,1,0.786415,,,,,,,,0.786415,1,,,,,,185,WORD,UN,33,portal,BOTHER,m,,,,,,0.121296311,-0.42592594,0,0,0,,0,148,148,124,1,
,,,,,,,,,,,,,,,,,,5f68fe45f544c70bb0f525e6,2020-12-01_16h20.56.776,lexical_decision_task_MP_exp2,2020.2.8,Win32,60,m,1,0.858035,,,,,,,,0.858035,1,,,,,,213,WORD,UN,33,intake,SQUEAL,m,,,,,,0.121296311,-0.42592594,0,0,0,,0,149,149,152,1,
,,,,,,,,,,,,,,,,,,5f68fe45f544c70bb0f525e6,2020-12-01_16h20.56.776,lexical_decision_task_MP_exp2,2020.2.8,Win32,60,z,1,0.784165,,,,,,,,0.784165,1,,,,,,422,NW,UN,33,streld,ALCOUD,z,,,,,,0.121296311,-0.42592594,0,0,0,,0,150,150,361,1,
,,,,,,,,,,,,,,,,,,5f68fe45f544c70bb0f525e6,2020-12-01_16h20.56.776,lexical_decision_task_MP_exp2,2020.2.8,Win32,60,m,1,0.883625,,,,,,,,0.883625,1,,,,,,235,WORD,UN,33,pirate,GRUMPY,m,,,,,,0.122222237,-0.425000014,0,0,0,,0,151,151,174,1,
,,,,,,,,,,,,,,,,,,5f68fe45f544c70bb0f525e6,2020-12-01_16h20.56.776,lexical_decision_task_MP_exp2,2020.2.8,Win32,60,z,1,0.94997,,,,,,,,0.94997,1,,,,,,248,NW,UN,16,batrol,STROLE,z,,,,,,0.122222237,-0.425000014,0,0,0,,0,152,152,427,1,
,,,,,,,,,,,,,,,,,,5f68fe45f544c70bb0f525e6,2020-12-01_16h20.56.776,lexical_decision_task_MP_exp2,2020.2.8,Win32,60,z,1,0.84206,,,,,,,,0.84206,1,,,,,,316,NW,"ID",33,scregm,SCREGM,z,,,,,,0.121296311,-0.425000014,0,0,0,,0,153,153,255,1,
,,,,,,,,,,,,,,,,,,5f68fe45f544c70bb0f525e6,2020-12-01_16h20.56.776,lexical_decision_task_MP_exp2,2020.2.8,Win32,60,z,1,0.75402,,,,,,,,0.75402,1,,,,,,412,NW,"ID",16,jiluer,JILUER,z,,,,,,0.118518534,-0.426851866,0,0,0,,0,154,154,351,1,
,,,,,,,,,,,,,,,,,,5f68fe45f544c70bb0f525e6,2020-12-01_16h20.56.776,lexical_decision_task_MP_exp2,2020.2.8,Win32,60,z,1,0.98495,,,,,,,,0.98495,1,,,,,,376,NW,"ID",16,iguare,IGUARE,z,,,,,,0.115740756,-0.431481495,0,0,0,,0,155,155,315,1,
,,,,,,,,,,,,,,,,,,5f68fe45f544c70bb0f525e6,2020-12-01_16h20.56.776,lexical_decision_task_MP_exp2,2020.2.8,Win32,60,m,1,0.672475,,,,,,,,0.672475,1,,,,,,130,WORD,"ID",16,stupid,STUPID,m,,,,,,0.120370385,-0.428703718,0,0,0,,0,156,156,69,1,
,,,,,,,,,,,,,,,,,,5f68fe45f544c70bb0f525e6,2020-12-01_16h20.56.776,lexical_decision_task_MP_exp2,2020.2.8,Win32,60,z,1,0.723975,,,,,,,,0.723975,1,,,,,,404,NW,"ID",16,cluirm,CLUIRM,z,,,,,,0.120370385,-0.428703718,0,0,0,,0,157,157,343,1,
,,,,,,,,,,,,,,,,,,5f68fe45f544c70bb0f525e6,2020-12-01_16h20.56.776,lexical_decision_task_MP_exp2,2020.2.8,Win32,60,z,1,0.756695,,,,,,,,0.756695,1,,,,,,467,NW,UN,33,wictor,GORBIE,z,,,,,,0.119444459,-0.428703718,0,0,0,,0,158,158,406,1,
,,,,,,,,,,,,,,,,,,5f68fe45f544c70bb0f525e6,2020-12-01_16h20.56.776,lexical_decision_task_MP_exp2,2020.2.8,Win32,60,m,1,0.58757,,,,,,,,0.58757,1,,,,,,17,WORD,UN,16,humble,CHARGE,m,,,,,,0.117592608,-0.428703718,0,0,0,,0,159,159,196,1,
,,,,,,,,,,,,,,,,,,5f68fe45f544c70bb0f525e6,2020-12-01_16h20.56.776,lexical_decision_task_MP_exp2,2020.2.8,Win32,60,m,1,0.634385,,,,,,,,0.634385,1,,,,,,202,WORD,UN,33,phrase,FACTOR,m,,,,,,0.117592608,-0.428703718,0,0,0,,0,160,160,141,1,
,,,,,,,,,,,,,,,,,,5f68fe45f544c70bb0f525e6,2020-12-01_16h20.56.776,lexical_decision_task_MP_exp2,2020.2.8,Win32,60,m,1,0.87431,,,,,,,,0.87431,1,,,,,,161,WORD,"ID",16,pastor,PASTOR,m,,,,,,0.117592608,-0.428703718,0,0,0,,0,161,161,100,1,
,,,,,,,,,,,,,,,,,,5f68fe45f544c70bb0f525e6,2020-12-01_16h20.56.776,lexical_decision_task_MP_exp2,2020.2.8,Win32,60,m,1,0.718025,,,,,,,,0.718025,1,,,,,,73,WORD,"ID",33,source,SOURCE,m,,,,,,0.123148163,-0.426851866,0,0,0,,0,162,162,12,1,
,,,,,,,,,,,,,,,,,,5f68fe45f544c70bb0f525e6,2020-12-01_16h20.56.776,lexical_decision_task_MP_exp2,2020.2.8,Win32,60,m,1,0.93453,,,,,,,,0.93453,1,,,,,,187,WORD,UN,33,social,COURSE,m,,,,,,0.121296311,-0.428703718,0,0,0,,0,163,163,126,1,
,,,,,,,,,,,,,,,,,,5f68fe45f544c70bb0f525e6,2020-12-01_16h20.56.776,lexical_decision_task_MP_exp2,2020.2.8,Win32,60,m,1,0.720565,,,,,,,,0.720565,1,,,,,,207,WORD,UN,33,hockey,WREATH,m,,,,,,0.121296311,-0.428703718,0,0,0,,0,164,164,146,1,
,,,,,,,,,,,,,,,,,,5f68fe45f544c70bb0f525e6,2020-12-01_16h20.56.776,lexical_decision_task_MP_exp2,2020.2.8,Win32,60,m,1,0.634095,,,,,,,,0.634095,1,,,,,,232,WORD,UN,33,nature,INJECT,m,,,,,,0.121296311,-0.428703718,0,0,0,,0,165,165,171,1,
,,,,,,,,,,,,,,,,,,5f68fe45f544c70bb0f525e6,2020-12-01_16h20.56.776,lexical_decision_task_MP_exp2,2020.2.8,Win32,60,m,1,0.619955,,,,,,,,0.619955,1,,,,,,8,WORD,UN,16,hustle,ABRUPT,m,,,,,,0.121296311,-0.428703718,0,0,0,,0,166,166,187,1,
,,,,,,,,,,,,,,,,,,5f68fe45f544c70bb0f525e6,2020-12-01_16h20.56.776,lexical_decision_task_MP_exp2,2020.2.8,Win32,60,m,1,0.63443,,,,,,,,0.63443,1,,,,,,47,WORD,UN,16,walnut,INCOME,m,,,,,,0.121296311,-0.428703718,0,0,0,,0,167,167,226,1,
,,,,,,,,,,,,,,,,,,5f68fe45f544c70bb0f525e6,2020-12-01_16h20.56.776,lexical_decision_task_MP_exp2,2020.2.8,Win32,60,m,1,0.757205,,,,,,,,0.757205,1,,,,,,126,WORD,"ID",16,enough,ENOUGH,m,,,,,,0.121296311,-0.428703718,0,0,0,,0,168,168,65,1,
,,,,,,,,,,,,,,,,,,5f68fe45f544c70bb0f525e6,2020-12-01_16h20.56.776,lexical_decision_task_MP_exp2,2020.2.8,Win32,60,m,1,0.717375,,,,,,,,0.717375,1,,,,,,33,WORD,UN,16,jungle,BUTLER,m,,,,,,0.121296311,-0.428703718,0,0,0,,0,169,169,212,1,
,,,,,,,,,,,,,,,,,,5f68fe45f544c70bb0f525e6,2020-12-01_16h20.56.776,lexical_decision_task_MP_exp2,2020.2.8,Win32,60,m,1,0.67022,,,,,,,,0.67022,1,,,,,,151,WORD,"ID",16,mystic,MYSTIC,m,,,,,,0.121296311,-0.428703718,0,0,0,,0,170,170,90,1,
,,,,,,,,,,,,,,,,,,5f68fe45f544c70bb0f525e6,2020-12-01_16h20.56.776,lexical_decision_task_MP_exp2,2020.2.8,Win32,60,z,1,0.7011,,,,,,,,0.7011,1,,,,,,429,NW,UN,33,caroey,FUNTLE,z,,,,,,0.122222237,-0.428703718,0,0,0,,0,171,171,368,1,
,,,,,,,,,,,,,,,,,,5f68fe45f544c70bb0f525e6,2020-12-01_16h20.56.776,lexical_decision_task_MP_exp2,2020.2.8,Win32,60,m,1,0.602115,,,,,,,,0.602115,1,,,,,,96,WORD,"ID",33,ignore,IGNORE,m,,,,,,0.123148163,-0.428703718,0,0,0,,0,172,172,35,1,
,,,,,,,,,,,,,,,,,,5f68fe45f544c70bb0f525e6,2020-12-01_16h20.56.776,lexical_decision_task_MP_exp2,2020.2.8,Win32,60,z,1,0.700485,,,,,,,,0.700485,1,,,,,,319,NW,"ID",33,zomber,ZOMBER,z,,,,,,0.123148163,-0.428703718,0,0,0,,0,173,173,258,1,
,,,,,,,,,,,,,,,,,,5f68fe45f544c70bb0f525e6,2020-12-01_16h20.56.776,lexical_decision_task_MP_exp2,2020.2.8,Win32,60,m,1,0.770535,,,,,,,,0.770535,1,,,,,,3,WORD,UN,16,trench,KNIGHT,m,,,,,,0.122222237,-0.428703718,0,0,0,,0,174,174,182,1,
,,,,,,,,,,,,,,,,,,5f68fe45f544c70bb0f525e6,2020-12-01_16h20.56.776,lexical_decision_task_MP_exp2,2020.2.8,Win32,60,z,1,0.9064,,,,,,,,0.9064,1,,,,,,367,NW,"ID",16,slique,SLIQUE,z,,,,,,0.122222237,-0.428703718,0,0,0,,0,175,175,306,1,
,,,,,,,,,,,,,,,,,,5f68fe45f544c70bb0f525e6,2020-12-01_16h20.56.776,lexical_decision_task_MP_exp2,2020.2.8,Win32,60,m,1,0.800755,,,,,,,,0.800755,1,,,,,,108,WORD,"ID",33,reckon,RECKON,m,,,,,,0.122222237,-0.428703718,0,0,0,,0,176,176,47,1,
,,,,,,,,,,,,,,,,,,5f68fe45f544c70bb0f525e6,2020-12-01_16h20.56.776,lexical_decision_task_MP_exp2,2020.2.8,Win32,60,m,1,0.700815,,,,,,,,0.700815,1,,,,,,13,WORD,UN,16,almost,STRIVE,m,,,,,,0.122222237,-0.428703718,0,0,0,,0,177,177,192,1,
,,,,,,,,,,,,,,,,,,5f68fe45f544c70bb0f525e6,2020-12-01_16h20.56.776,lexical_decision_task_MP_exp2,2020.2.8,Win32,60,z,1,0.633055,,,,,,,,0.633055,1,,,,,,309,NW,"ID",33,amiloy,AMILOY,z,,,,,,0.122222237,-0.428703718,0,0,0,,0,178,178,248,1,
,,,,,,,,,,,,,,,,,,5f68fe45f544c70bb0f525e6,2020-12-01_16h20.56.776,lexical_decision_task_MP_exp2,2020.2.8,Win32,60,z,1,0.68114,,,,,,,,0.68114,1,,,,,,345,NW,"ID",33,absend,ABSEND,z,,,,,,0.121296311,-0.428703718,0,0,0,,0,179,179,284,1,
,,,,,,,,,,,,,,,,,,5f68fe45f544c70bb0f525e6,2020-12-01_16h20.56.776,lexical_decision_task_MP_exp2,2020.2.8,Win32,60,m,1,0.64075,,,,,,,,0.64075,1,,,,,,78,WORD,"ID",33,column,COLUMN,m,,,,,,0.121296311,-0.428703718,0,0,0,,0,180,180,17,1,
,,,,,,,,,,,,,,,,,,5f68fe45f544c70bb0f525e6,2020-12-01_16h20.56.776,lexical_decision_task_MP_exp2,2020.2.8,Win32,60,z,1,0.93473,,,,,,,,0.93473,1,,,,,,384,NW,"ID",16,guesco,GUESCO,z,,,,,,0.121296311,-0.428703718,0,0,0,,0,181,181,323,1,
,,,,,,,,,,,,,,,,,,5f68fe45f544c70bb0f525e6,2020-12-01_16h20.56.776,lexical_decision_task_MP_exp2,2020.2.8,Win32,60,z,1,0.688455,,,,,,,,0.688455,1,,,,,,458,NW,UN,33,hocite,BARCET,z,,,,,,0.121296311,-0.429629643,0,0,0,,0,182,182,397,1,
,,,,,,,,,,,,,,,,,,5f68fe45f544c70bb0f525e6,2020-12-01_16h20.56.776,lexical_decision_task_MP_exp2,2020.2.8,Win32,60,m,1,0.73429,,,,,,,,0.73429,1,,,,,,139,WORD,"ID",16,debris,DEBRIS,m,,,,,,0.121296311,-0.429629643,0,0,0,,0,183,183,78,1,
,,,,,,,,,,,,,,,,,,5f68fe45f544c70bb0f525e6,2020-12-01_16h20.56.776,lexical_decision_task_MP_exp2,2020.2.8,Win32,60,z,1,0.703065,,,,,,,,0.703065,1,,,,,,299,NW,UN,16,yarion,STURCH,z,,,,,,0.121296311,-0.429629643,0,0,0,,0,184,184,478,1,
,,,,,,,,,,,,,,,,,,5f68fe45f544c70bb0f525e6,2020-12-01_16h20.56.776,lexical_decision_task_MP_exp2,2020.2.8,Win32,60,z,1,0.695,,,,,,,,0.695,1,,,,,,325,NW,"ID",33,thruse,THRUSE,z,,,,,,0.120370385,-0.430555569,0,0,0,,0,185,185,264,1,
,,,,,,,,,,,,,,,,,,5f68fe45f544c70bb0f525e6,2020-12-01_16h20.56.776,lexical_decision_task_MP_exp2,2020.2.8,Win32,60,z,1,0.70061,,,,,,,,0.70061,1,,,,,,355,NW,"ID",33,zingly,ZINGLY,z,,,,,,0.119444459,-0.430555569,0,0,0,,0,186,186,294,1,
,,,,,,,,,,,,,,,,,,5f68fe45f544c70bb0f525e6,2020-12-01_16h20.56.776,lexical_decision_task_MP_exp2,2020.2.8,Win32,60,m,1,0.781405,,,,,,,,0.781405,1,,,,,,180,WORD,"ID",16,silent,SILENT,m,,,,,,0.119444459,-0.430555569,0,0,0,,0,187,187,119,1,
,,,,,,,,,,,,,,,,,,5f68fe45f544c70bb0f525e6,2020-12-01_16h20.56.776,lexical_decision_task_MP_exp2,2020.2.8,Win32,60,m,1,1.025405,,,,,,,,1.025405,1,,,,,,1,WORD,UN,16,ethnic,FRIGHT,m,,,,,,0.119444459,-0.430555569,0,0,0,,0,188,188,180,1,
,,,,,,,,,,,,,,,,,,5f68fe45f544c70bb0f525e6,2020-12-01_16h20.56.776,lexical_decision_task_MP_exp2,2020.2.8,Win32,60,z,1,0.82255,,,,,,,,0.82255,1,,,,,,274,NW,UN,16,sleirt,FUMBLO,z,,,,,,0.119444459,-0.430555569,0,0,0,,0,189,189,453,1,
,,,,,,,,,,,,,,,,,,5f68fe45f544c70bb0f525e6,2020-12-01_16h20.56.776,lexical_decision_task_MP_exp2,2020.2.8,Win32,60,z,1,0.875455,,,,,,,,0.875455,1,,,,,,277,NW,UN,16,unighs,PETAIN,z,,,,,,0.120370385,-0.431481495,0,0,0,,0,190,190,456,1,
,,,,,,,,,,,,,,,,,,5f68fe45f544c70bb0f525e6,2020-12-01_16h20.56.776,lexical_decision_task_MP_exp2,2020.2.8,Win32,60,m,1,0.717375,,,,,,,,0.717375,1,,,,,,133,WORD,"ID",16,chrome,CHROME,m,,,,,,0.120370385,-0.431481495,0,0,0,,0,191,191,72,1,
,,,,,,,,,,,,,,,,,,5f68fe45f544c70bb0f525e6,2020-12-01_16h20.56.776,lexical_decision_task_MP_exp2,2020.2.8,Win32,60,z,1,0.88678,,,,,,,,0.88678,1,,,,,,287,NW,UN,16,yaceup,NYMBEL,z,,,,,,0.120370385,-0.431481495,0,0,0,,0,192,192,466,1,
,,,,,,,,,,,,,,,,,,5f68fe45f544c70bb0f525e6,2020-12-01_16h20.56.776,lexical_decision_task_MP_exp2,2020.2.8,Win32,60,z,1,0.823735,,,,,,,,0.823735,1,,,,,,270,NW,UN,16,aubrid,WRIMSY,z,,,,,,0.120370385,-0.431481495,0,0,0,,0,193,193,449,1,
,,,,,,,,,,,,,,,,,,5f68fe45f544c70bb0f525e6,2020-12-01_16h20.56.776,lexical_decision_task_MP_exp2,2020.2.8,Win32,60,z,1,1.138005,,,,,,,,1.138005,1,,,,,,314,NW,"ID",33,sprine,SPRINE,z,,,,,,0.119444459,-0.433333347,0,0,0,,0,194,194,253,1,
,,,,,,,,,,,,,,,,,,5f68fe45f544c70bb0f525e6,2020-12-01_16h20.56.776,lexical_decision_task_MP_exp2,2020.2.8,Win32,60,z,1,0.93378,,,,,,,,0.93378,1,,,,,,409,NW,"ID",16,elopia,ELOPIA,z,,,,,,0.119444459,-0.433333347,0,0,0,,0,195,195,348,1,
,,,,,,,,,,,,,,,,,,5f68fe45f544c70bb0f525e6,2020-12-01_16h20.56.776,lexical_decision_task_MP_exp2,2020.2.8,Win32,60,z,1,0.86017,,,,,,,,0.86017,1,,,,,,432,NW,UN,33,drance,LUNKER,z,,,,,,0.117592608,-0.435185199,0,0,0,,0,196,196,371,1,
,,,,,,,,,,,,,,,,,,5f68fe45f544c70bb0f525e6,2020-12-01_16h20.56.776,lexical_decision_task_MP_exp2,2020.2.8,Win32,60,m,1,0.640205,,,,,,,,0.640205,1,,,,,,49,WORD,UN,16,snatch,SURVEY,m,,,,,,0.117592608,-0.435185199,0,0,0,,0,197,197,228,1,
,,,,,,,,,,,,,,,,,,5f68fe45f544c70bb0f525e6,2020-12-01_16h20.56.776,lexical_decision_task_MP_exp2,2020.2.8,Win32,60,z,1,0.71707,,,,,,,,0.71707,1,,,,,,286,NW,UN,16,nymbel,RELDON,z,,,,,,0.120370385,-0.435185199,0,0,0,,0,198,198,465,1,
,,,,,,,,,,,,,,,,,,5f68fe45f544c70bb0f525e6,2020-12-01_16h20.56.776,lexical_decision_task_MP_exp2,2020.2.8,Win32,60,m,1,0.77506,,,,,,,,0.77506,1,,,,,,127,WORD,"ID",16,castle,CASTLE,m,,,,,,0.120370385,-0.435185199,0,0,0,,0,199,199,66,1,
,,,,,,,,,,,,,,,,,,5f68fe45f544c70bb0f525e6,2020-12-01_16h20.56.776,lexical_decision_task_MP_exp2,2020.2.8,Win32,60,m,1,0.859655,,,,,,,,0.859655,1,,,,,,176,WORD,"ID",16,strife,STRIFE,m,,,,,,0.120370385,-0.435185199,0,0,0,,0,200,200,115,1,
,,,,,,,,,,,,,,,,,,5f68fe45f544c70bb0f525e6,2020-12-01_16h20.56.776,lexical_decision_task_MP_exp2,2020.2.8,Win32,60,m,1,0.780665,,,,,,,,0.780665,1,,,,,,152,WORD,"ID",16,rocket,ROCKET,m,,,,,,0.120370385,-0.435185199,0,0,0,,0,201,201,91,1,
,,,,,,,,,,,,,,,,,,5f68fe45f544c70bb0f525e6,2020-12-01_16h20.56.776,lexical_decision_task_MP_exp2,2020.2.8,Win32,60,m,1,0.621125,,,,,,,,0.621125,1,,,,,,56,WORD,UN,16,change,AMBUSH,m,,,,,,0.120370385,-0.435185199,0,0,0,,0,202,202,235,1,
,,,,,,,,,,,,,,,,,,5f68fe45f544c70bb0f525e6,2020-12-01_16h20.56.776,lexical_decision_task_MP_exp2,2020.2.8,Win32,60,z,1,0.717365,,,,,,,,0.717365,1,,,,,,362,NW,"ID",16,tireau,TIREAU,z,,,,,,0.120370385,-0.435185199,0,0,0,,0,203,203,301,1,
,,,,,,,,,,,,,,,,,,5f68fe45f544c70bb0f525e6,2020-12-01_16h20.56.776,lexical_decision_task_MP_exp2,2020.2.8,Win32,60,z,1,0.75097,,,,,,,,0.75097,1,,,,,,400,NW,"ID",16,wearox,WEAROX,z,,,,,,0.120370385,-0.435185199,0,0,0,,0,204,204,339,1,
,,,,,,,,,,,,,,,,,,5f68fe45f544c70bb0f525e6,2020-12-01_16h20.56.776,lexical_decision_task_MP_exp2,2020.2.8,Win32,60,m,1,0.92386,,,,,,,,0.92386,1,,,,,,18,WORD,UN,16,patron,HUMBLE,m,,,,,,0.120370385,-0.435185199,0,0,0,,0,205,205,197,1,
,,,,,,,,,,,,,,,,,,5f68fe45f544c70bb0f525e6,2020-12-01_16h20.56.776,lexical_decision_task_MP_exp2,2020.2.8,Win32,60,m,1,1.20134,,,,,,,,1.20134,1,,,,,,204,WORD,UN,33,lounge,BURDEN,m,,,,,,0.120370385,-0.435185199,0,0,0,,0,206,206,143,1,
,,,,,,,,,,,,,,,,,,5f68fe45f544c70bb0f525e6,2020-12-01_16h20.56.776,lexical_decision_task_MP_exp2,2020.2.8,Win32,60,z,1,0.636785,,,,,,,,0.636785,1,,,,,,302,NW,"ID",33,miluer,MILUER,z,,,,,,0.120370385,-0.435185199,0,0,0,,0,207,207,241,1,
,,,,,,,,,,,,,,,,,,5f68fe45f544c70bb0f525e6,2020-12-01_16h20.56.776,lexical_decision_task_MP_exp2,2020.2.8,Win32,60,m,1,0.60474,,,,,,,,0.60474,1,,,,,,62,WORD,"ID",33,region,REGION,m,,,,,,0.120370385,-0.435185199,0,0,0,,0,208,208,1,1,
,,,,,,,,,,,,,,,,,,5f68fe45f544c70bb0f525e6,2020-12-01_16h20.56.776,lexical_decision_task_MP_exp2,2020.2.8,Win32,60,m,1,0.817565,,,,,,,,0.817565,1,,,,,,159,WORD,"ID",16,detail,DETAIL,m,,,,,,0.120370385,-0.435185199,0,0,0,,0,209,209,98,1,
,,,,,,,,,,,,,,,,,,5f68fe45f544c70bb0f525e6,2020-12-01_16h20.56.776,lexical_decision_task_MP_exp2,2020.2.8,Win32,60,m,1,0.8347,,,,,,,,0.8347,1,,,,,,222,WORD,UN,33,export,HINDER,m,,,,,,0.120370385,-0.435185199,0,0,0,,0,210,210,161,1,
,,,,,,,,,,,,,,,,,,5f68fe45f544c70bb0f525e6,2020-12-01_16h20.56.776,lexical_decision_task_MP_exp2,2020.2.8,Win32,60,z,1,0.671925,,,,,,,,0.671925,1,,,,,,392,NW,"ID",16,rouncy,ROUNCY,z,,,,,,0.120370385,-0.435185199,0,0,0,,0,211,211,331,1,
,,,,,,,,,,,,,,,,,,5f68fe45f544c70bb0f525e6,2020-12-01_16h20.56.776,lexical_decision_task_MP_exp2,2020.2.8,Win32,60,z,1,0.75448,,,,,,,,0.75448,1,,,,,,410,NW,"ID",16,tunory,TUNORY,z,,,,,,0.120370385,-0.435185199,0,0,0,,0,212,212,349,1,
,,,,,,,,,,,,,,,,,,5f68fe45f544c70bb0f525e6,2020-12-01_16h20.56.776,lexical_decision_task_MP_exp2,2020.2.8,Win32,60,m,1,0.58422,,,,,,,,0.58422,1,,,,,,63,WORD,"ID",33,launch,LAUNCH,m,,,,,,0.11481483,-0.439814829,0,0,0,,0,213,213,2,1,
,,,,,,,,,,,,,,,,,,5f68fe45f544c70bb0f525e6,2020-12-01_16h20.56.776,lexical_decision_task_MP_exp2,2020.2.8,Win32,60,z,1,0.792895,,,,,,,,0.792895,1,,,,,,291,NW,UN,16,ablint,PRETCH,z,,,,,,0.113888904,-0.439814829,0,0,0,,0,214,214,470,1,
,,,,,,,,,,,,,,,,,,5f68fe45f544c70bb0f525e6,2020-12-01_16h20.56.776,lexical_decision_task_MP_exp2,2020.2.8,Win32,60,m,1,0.8181,,,,,,,,0.8181,1,,,,,,218,WORD,UN,33,bucket,SHRINK,m,,,,,,0.113888904,-0.439814829,0,0,0,,0,215,215,157,1,
,,,,,,,,,,,,,,,,,,5f68fe45f544c70bb0f525e6,2020-12-01_16h20.56.776,lexical_decision_task_MP_exp2,2020.2.8,Win32,60,m,1,1.100325,,,,,,,,1.100325,1,,,,,,206,WORD,UN,33,wreath,TAILOR,m,,,,,,0.113888904,-0.441666737,0,0,0,,0,216,216,145,1,
,,,,,,,,,,,,,,,,,,5f68fe45f544c70bb0f525e6,2020-12-01_16h20.56.776,lexical_decision_task_MP_exp2,2020.2.8,Win32,60,m,1,0.89201,,,,,,,,0.89201,1,,,,,,186,WORD,UN,33,course,PORTAL,m,,,,,,0.113888904,-0.441666737,0,0,0,,0,217,217,125,1,
,,,,,,,,,,,,,,,,,,5f68fe45f544c70bb0f525e6,2020-12-01_16h20.56.776,lexical_decision_task_MP_exp2,2020.2.8,Win32,60,z,1,0.850365,,,,,,,,0.850365,1,,,,,,272,NW,UN,16,sortel,DAMILT,z,,,,,,0.113888904,-0.441666737,0,0,0,,0,218,218,451,1,
,,,,,,,,,,,,,,,,,,5f68fe45f544c70bb0f525e6,2020-12-01_16h20.56.776,lexical_decision_task_MP_exp2,2020.2.8,Win32,60,m,1,0.91707,,,,,,,,0.91707,1,,,,,,46,WORD,UN,16,income,SINGLE,m,,,,,,0.113888904,-0.441666737,0,0,0,,0,219,219,225,1,
,,,,,,,,,,,,,,,,,,5f68fe45f544c70bb0f525e6,2020-12-01_16h20.56.776,lexical_decision_task_MP_exp2,2020.2.8,Win32,60,z,1,0.93429,,,,,,,,0.93429,1,,,,,,378,NW,"ID",16,shrile,SHRILE,z,,,,,,0.113888904,-0.441666737,0,0,0,,0,220,220,317,1,
,,,,,,,,,,,,,,,,,,5f68fe45f544c70bb0f525e6,2020-12-01_16h20.56.776,lexical_decision_task_MP_exp2,2020.2.8,Win32,60,z,1,1.09176,,,,,,,,1.09176,1,,,,,,247,NW,UN,16,strole,BLARGE,z,,,,,,0.113888904,-0.441666737,0,0,0,,0,221,221,426,1,
,,,,,,,,,,,,,,,,,,5f68fe45f544c70bb0f525e6,2020-12-01_16h20.56.776,lexical_decision_task_MP_exp2,2020.2.8,Win32,60,z,1,1.170365,,,,,,,,1.170365,1,,,,,,298,NW,UN,16,sturch,PIERGY,z,,,,,,0.113888904,-0.441666737,0,0,0,,0,222,222,477,1,
,,,,,,,,,,,,,,,,,,5f68fe45f544c70bb0f525e6,2020-12-01_16h20.56.776,lexical_decision_task_MP_exp2,2020.2.8,Win32,60,z,1,0.884045,,,,,,,,0.884045,1,,,,,,243,NW,UN,16,eatric,MUSIED,z,,,,,,0.113888904,-0.441666737,0,0,0,,0,223,223,422,1,
,,,,,,,,,,,,,,,,,,5f68fe45f544c70bb0f525e6,2020-12-01_16h20.56.776,lexical_decision_task_MP_exp2,2020.2.8,Win32,60,z,1,0.63429,,,,,,,,0.63429,1,,,,,,252,NW,UN,16,resait,STAPOD,z,,,,,,0.113888904,-0.441666737,0,0,0,,0,224,224,431,1,
,,,,,,,,,,,,,,,,,,5f68fe45f544c70bb0f525e6,2020-12-01_16h20.56.776,lexical_decision_task_MP_exp2,2020.2.8,Win32,60,m,1,1.4169,,,,,,,,1.4169,1,,,,,,197,WORD,UN,33,wicked,STREAM,m,,,,,,0.113888904,-0.441666737,0,0,0,,0,225,225,136,1,
,,,,,,,,,,,,,,,,,,5f68fe45f544c70bb0f525e6,2020-12-01_16h20.56.776,lexical_decision_task_MP_exp2,2020.2.8,Win32,60,z,1,0.893595,,,,,,,,0.893595,1,,,,,,259,NW,UN,16,unject,SOUDAL,z,,,,,,0.113888904,-0.441666737,0,0,0,,0,226,226,438,1,
,,,,,,,,,,,,,,,,,,5f68fe45f544c70bb0f525e6,2020-12-01_16h20.56.776,lexical_decision_task_MP_exp2,2020.2.8,Win32,60,z,1,0.869975,,,,,,,,0.869975,1,,,,,,313,NW,"ID",33,paurse,PAURSE,z,,,,,,0.113888904,-0.441666737,0,0,0,,0,227,227,252,1,
,,,,,,,,,,,,,,,,,,5f68fe45f544c70bb0f525e6,2020-12-01_16h20.56.776,lexical_decision_task_MP_exp2,2020.2.8,Win32,60,m,1,0.62757,,,,,,,,0.62757,1,,,,,,21,WORD,UN,16,jockey,SIMPLE,m,,,,,,0.112037052,-0.442592607,0,0,0,,0,228,228,200,1,
,,,,,,,,,,,,,,,,,,5f68fe45f544c70bb0f525e6,2020-12-01_16h20.56.776,lexical_decision_task_MP_exp2,2020.2.8,Win32,60,z,1,0.721125,,,,,,,,0.721125,1,,,,,,389,NW,"ID",16,witmer,WITMER,z,,,,,,0.112037052,-0.442592607,0,0,0,,0,229,229,328,1,
,,,,,,,,,,,,,,,,,,5f68fe45f544c70bb0f525e6,2020-12-01_16h20.56.776,lexical_decision_task_MP_exp2,2020.2.8,Win32,60,z,1,0.700975,,,,,,,,0.700975,1,,,,,,354,NW,"ID",33,virlex,VIRLEX,z,,,,,,0.112037052,-0.442592607,0,0,0,,0,230,230,293,1,
,,,,,,,,,,,,,,,,,,5f68fe45f544c70bb0f525e6,2020-12-01_16h20.56.776,lexical_decision_task_MP_exp2,2020.2.8,Win32,60,z,1,0.66834,,,,,,,,0.66834,1,,,,,,414,NW,"ID",16,serbol,SERBOL,z,,,,,,0.112037052,-0.442592607,0,0,0,,0,231,231,353,1,
,,,,,,,,,,,,,,,,,,5f68fe45f544c70bb0f525e6,2020-12-01_16h20.56.776,lexical_decision_task_MP_exp2,2020.2.8,Win32,60,z,1,0.767915,,,,,,,,0.767915,1,,,,,,244,NW,UN,16,anougs,EATRIC,z,,,,,,0.112037052,-0.442592607,0,0,0,,0,232,232,423,1,
,,,,,,,,,,,,,,,,,,5f68fe45f544c70bb0f525e6,2020-12-01_16h20.56.776,lexical_decision_task_MP_exp2,2020.2.8,Win32,60,m,1,0.69472,,,,,,,,0.69472,1,,,,,,174,WORD,"ID",16,turkey,TURKEY,m,,,,,,0.112037052,-0.442592607,0,0,0,,0,233,233,113,1,
,,,,,,,,,,,,,,,,,,5f68fe45f544c70bb0f525e6,2020-12-01_16h20.56.776,lexical_decision_task_MP_exp2,2020.2.8,Win32,60,z,1,1.18385,,,,,,,,1.18385,1,,,,,,352,NW,"ID",33,tringe,TRINGE,z,,,,,,0.112037052,-0.442592607,0,0,0,,0,234,234,291,1,
,,,,,,,,,,,,,,,,,,5f68fe45f544c70bb0f525e6,2020-12-01_16h20.56.776,lexical_decision_task_MP_exp2,2020.2.8,Win32,60,m,1,1.050565,,,,,,,,1.050565,1,,,,,,70,WORD,"ID",33,square,SQUARE,m,,,,,,0.1101852,-0.442592607,0,0,0,,0,235,235,9,1,
,,,,,,,,,,,,,,,,,,5f68fe45f544c70bb0f525e6,2020-12-01_16h20.56.776,lexical_decision_task_MP_exp2,2020.2.8,Win32,60,z,1,0.825585,,,,,,,,0.825585,1,,,,,,363,NW,"ID",16,breali,BREALI,z,,,,,,0.1101852,-0.442592607,0,0,0,,0,236,236,302,1,
,,,,,,,,,,,,,,,,,,5f68fe45f544c70bb0f525e6,2020-12-01_16h20.56.776,lexical_decision_task_MP_exp2,2020.2.8,Win32,60,m,1,0.63442,,,,,,,,0.63442,1,,,,,,157,WORD,"ID",16,dragon,DRAGON,m,,,,,,0.109259274,-0.442592607,0,0,0,,0,237,237,96,1,
,,,,,,,,,,,,,,,,,,5f68fe45f544c70bb0f525e6,2020-12-01_16h20.56.776,lexical_decision_task_MP_exp2,2020.2.8,Win32,60,m,1,0.870085,,,,,,,,0.870085,1,,,,,,6,WORD,UN,16,anchor,BUNDLE,m,,,,,,0.109259274,-0.442592607,0,0,0,,0,238,238,185,1,
,,,,,,,,,,,,,,,,,,5f68fe45f544c70bb0f525e6,2020-12-01_16h20.56.776,lexical_decision_task_MP_exp2,2020.2.8,Win32,60,m,1,0.60066,,,,,,,,0.60066,1,,,,,,100,WORD,"ID",33,carbon,CARBON,m,,,,,,0.109259274,-0.442592607,0,0,0,,0,239,239,39,1,
,,,,,,,,,,,,,,,,,,5f68fe45f544c70bb0f525e6,2020-12-01_16h20.56.776,lexical_decision_task_MP_exp2,2020.2.8,Win32,60,m,1,0.68608,,,,,,,,0.68608,1,,,,,,125,WORD,"ID",16,nickel,NICKEL,m,,,,,,0.109259274,-0.442592607,0,0,0,,0,240,240,64,1,
,,,,,,,,,,,,,,,,,,5f68fe45f544c70bb0f525e6,2020-12-01_16h20.56.776,lexical_decision_task_MP_exp2,2020.2.8,Win32,60,m,1,0.618035,,,,,,,,0.618035,1,,,,,,231,WORD,UN,33,inject,EXPORT,m,,,,,,0.077777792,-0.398148162,0,0,0,space,0,241,241,170,1,39.26606
,,,,,,,,,,,,,,,,,,5f68fe45f544c70bb0f525e6,2020-12-01_16h20.56.776,lexical_decision_task_MP_exp2,2020.2.8,Win32,60,m,1,0.586345,,,,,,,,0.586345,1,,,,,,11,WORD,UN,16,amount,CRUISE,m,,,,,,0.077777792,-0.398148162,0,0,0,,0,242,242,190,1,
,,,,,,,,,,,,,,,,,,5f68fe45f544c70bb0f525e6,2020-12-01_16h20.56.776,lexical_decision_task_MP_exp2,2020.2.8,Win32,60,m,1,0.93833,,,,,,,,0.93833,1,,,,,,52,WORD,UN,16,police,IMPOSE,m,,,,,,0.077777792,-0.398148162,0,0,0,,0,243,243,231,1,
,,,,,,,,,,,,,,,,,,5f68fe45f544c70bb0f525e6,2020-12-01_16h20.56.776,lexical_decision_task_MP_exp2,2020.2.8,Win32,60,z,1,0.737535,,,,,,,,0.737535,1,,,,,,242,NW,UN,16,musied,UNWERT,z,,,,,,0.07592594,-0.398148162,0,0,0,,0,244,244,421,1,
,,,,,,,,,,,,,,,,,,5f68fe45f544c70bb0f525e6,2020-12-01_16h20.56.776,lexical_decision_task_MP_exp2,2020.2.8,Win32,60,m,1,0.75888,,,,,,,,0.75888,1,,,,,,149,WORD,"ID",16,invade,INVADE,m,,,,,,0.076851866,-0.393518532,0,0,0,,0,245,245,88,1,
,,,,,,,,,,,,,,,,,,5f68fe45f544c70bb0f525e6,2020-12-01_16h20.56.776,lexical_decision_task_MP_exp2,2020.2.8,Win32,60,z,1,0.636775,,,,,,,,0.636775,1,,,,,,264,NW,UN,16,distar,VACKEL,z,,,,,,0.076851866,-0.392592606,0,0,0,,0,246,246,443,1,
,,,,,,,,,,,,,,,,,,5f68fe45f544c70bb0f525e6,2020-12-01_16h20.56.776,lexical_decision_task_MP_exp2,2020.2.8,Win32,60,m,1,0.74137,,,,,,,,0.74137,1,,,,,,10,WORD,UN,16,cruise,ETHNIC,m,,,,,,0.079629644,-0.390740811,0,0,0,,0,247,247,189,1,
,,,,,,,,,,,,,,,,,,5f68fe45f544c70bb0f525e6,2020-12-01_16h20.56.776,lexical_decision_task_MP_exp2,2020.2.8,Win32,60,z,1,0.933915,,,,,,,,0.933915,1,,,,,,364,NW,"ID",16,impote,IMPOTE,z,,,,,,0.079629644,-0.390740811,0,0,0,,0,248,248,303,1,
,,,,,,,,,,,,,,,,,,5f68fe45f544c70bb0f525e6,2020-12-01_16h20.56.776,lexical_decision_task_MP_exp2,2020.2.8,Win32,60,m,1,0.734045,,,,,,,,0.734045,1,,,,,,50,WORD,UN,16,hungry,SNATCH,m,,,,,,0.079629644,-0.390740811,0,0,0,,0,249,249,229,1,
,,,,,,,,,,,,,,,,,,5f68fe45f544c70bb0f525e6,2020-12-01_16h20.56.776,lexical_decision_task_MP_exp2,2020.2.8,Win32,60,m,1,0.67352,,,,,,,,0.67352,1,,,,,,94,WORD,"ID",33,travel,TRAVEL,m,,,,,,0.079629644,-0.390740811,0,0,0,,0,250,250,33,1,
,,,,,,,,,,,,,,,,,,5f68fe45f544c70bb0f525e6,2020-12-01_16h20.56.776,lexical_decision_task_MP_exp2,2020.2.8,Win32,60,z,1,0.717425,,,,,,,,0.717425,1,,,,,,372,NW,"ID",16,ramily,RAMILY,z,,,,,,0.079629644,-0.390740811,0,0,0,,0,251,251,311,1,
,,,,,,,,,,,,,,,,,,5f68fe45f544c70bb0f525e6,2020-12-01_16h20.56.776,lexical_decision_task_MP_exp2,2020.2.8,Win32,60,z,1,0.71734,,,,,,,,0.71734,1,,,,,,251,NW,UN,16,stapod,LUPICT,z,,,,,,0.079629644,-0.390740811,0,0,0,,0,252,252,430,1,
,,,,,,,,,,,,,,,,,,5f68fe45f544c70bb0f525e6,2020-12-01_16h20.56.776,lexical_decision_task_MP_exp2,2020.2.8,Win32,60,m,1,1.23631,,,,,,,,1.23631,1,,,,,,196,WORD,UN,33,stream,CREDIT,m,,,,,,0.079629644,-0.390740811,0,0,0,,0,253,253,135,1,
,,,,,,,,,,,,,,,,,,5f68fe45f544c70bb0f525e6,2020-12-01_16h20.56.776,lexical_decision_task_MP_exp2,2020.2.8,Win32,60,z,1,0.96754,,,,,,,,0.96754,1,,,,,,342,NW,"ID",33,randow,RANDOW,z,,,,,,0.079629644,-0.390740811,0,0,0,,0,254,254,281,1,
,,,,,,,,,,,,,,,,,,5f68fe45f544c70bb0f525e6,2020-12-01_16h20.56.776,lexical_decision_task_MP_exp2,2020.2.8,Win32,60,m,1,1.0904,,,,,,,,1.0904,1,,,,,,134,WORD,"ID",16,staple,STAPLE,m,,,,,,0.079629644,-0.390740811,0,0,0,,0,255,255,73,1,
,,,,,,,,,,,,,,,,,,5f68fe45f544c70bb0f525e6,2020-12-01_16h20.56.776,lexical_decision_task_MP_exp2,2020.2.8,Win32,60,z,1,0.817255,,,,,,,,0.817255,1,,,,,,462,NW,UN,33,kispel,ABSULT,z,,,,,,0.077777792,-0.390740811,0,0,0,,0,256,256,401,1,
,,,,,,,,,,,,,,,,,,5f68fe45f544c70bb0f525e6,2020-12-01_16h20.56.776,lexical_decision_task_MP_exp2,2020.2.8,Win32,60,z,1,0.933665,,,,,,,,0.933665,1,,,,,,320,NW,"ID",33,jockal,JOCKAL,z,,,,,,0.077777792,-0.390740811,0,0,0,,0,257,257,259,1,
,,,,,,,,,,,,,,,,,,5f68fe45f544c70bb0f525e6,2020-12-01_16h20.56.776,lexical_decision_task_MP_exp2,2020.2.8,Win32,60,m,1,0.784285,,,,,,,,0.784285,1,,,,,,219,WORD,UN,33,voyage,BUCKET,m,,,,,,0.077777792,-0.39166668,0,0,0,,0,258,258,158,1,
,,,,,,,,,,,,,,,,,,5f68fe45f544c70bb0f525e6,2020-12-01_16h20.56.776,lexical_decision_task_MP_exp2,2020.2.8,Win32,60,z,1,0.66639,,,,,,,,0.66639,1,,,,,,346,NW,"ID",33,saudic,SAUDIC,z,,,,,,0.076851866,-0.392592606,0,0,0,,0,259,259,285,1,
,,,,,,,,,,,,,,,,,,5f68fe45f544c70bb0f525e6,2020-12-01_16h20.56.776,lexical_decision_task_MP_exp2,2020.2.8,Win32,60,m,1,0.6712,,,,,,,,0.6712,1,,,,,,44,WORD,UN,16,clergy,DANGER,m,,,,,,0.076851866,-0.392592606,0,0,0,,0,260,260,223,1,
,,,,,,,,,,,,,,,,,,5f68fe45f544c70bb0f525e6,2020-12-01_16h20.56.776,lexical_decision_task_MP_exp2,2020.2.8,Win32,60,m,1,0.70099,,,,,,,,0.70099,1,,,,,,90,WORD,"ID",33,relish,RELISH,m,,,,,,0.076851866,-0.392592606,0,0,0,,0,261,261,29,1,
,,,,,,,,,,,,,,,,,,5f68fe45f544c70bb0f525e6,2020-12-01_16h20.56.776,lexical_decision_task_MP_exp2,2020.2.8,Win32,60,m,1,0.576175,,,,,,,,0.576175,1,,,,,,48,WORD,UN,16,survey,WALNUT,m,,,,,,0.076851866,-0.392592606,0,0,0,,0,262,262,227,1,
,,,,,,,,,,,,,,,,,,5f68fe45f544c70bb0f525e6,2020-12-01_16h20.56.776,lexical_decision_task_MP_exp2,2020.2.8,Win32,60,m,1,0.617675,,,,,,,,0.617675,1,,,,,,119,WORD,"ID",33,spider,SPIDER,m,,,,,,0.076851866,-0.392592606,0,0,0,,0,263,263,58,1,
,,,,,,,,,,,,,,,,,,5f68fe45f544c70bb0f525e6,2020-12-01_16h20.56.776,lexical_decision_task_MP_exp2,2020.2.8,Win32,60,z,1,0.701215,,,,,,,,0.701215,1,,,,,,474,NW,UN,33,acrise,HABLIN,z,,,,,,0.076851866,-0.392592606,0,0,0,,0,264,264,413,1,
,,,,,,,,,,,,,,,,,,5f68fe45f544c70bb0f525e6,2020-12-01_16h20.56.776,lexical_decision_task_MP_exp2,2020.2.8,Win32,60,z,1,0.670385,,,,,,,,0.670385,1,,,,,,336,NW,"ID",33,ghodus,GHODUS,z,,,,,,0.076851866,-0.392592606,0,0,0,,0,265,265,275,1,
,,,,,,,,,,,,,,,,,,5f68fe45f544c70bb0f525e6,2020-12-01_16h20.56.776,lexical_decision_task_MP_exp2,2020.2.8,Win32,60,m,1,0.594795,,,,,,,,0.594795,1,,,,,,59,WORD,UN,16,pencil,SPLINT,m,,,,,,0.076851866,-0.392592606,0,0,0,,0,266,266,238,1,
,,,,,,,,,,,,,,,,,,5f68fe45f544c70bb0f525e6,2020-12-01_16h20.56.776,lexical_decision_task_MP_exp2,2020.2.8,Win32,60,m,1,0.99297,,,,,,,,0.99297,1,,,,,,194,WORD,UN,33,resign,ABSENT,m,,,,,,0.076851866,-0.392592606,0,0,0,,0,267,267,133,1,
,,,,,,,,,,,,,,,,,,5f68fe45f544c70bb0f525e6,2020-12-01_16h20.56.776,lexical_decision_task_MP_exp2,2020.2.8,Win32,60,z,1,1.0172,,,,,,,,1.0172,1,,,,,,295,NW,UN,16,beinch,GLEATH,z,,,,,,0.076851866,-0.392592606,0,0,0,,0,268,268,474,1,
,,,,,,,,,,,,,,,,,,5f68fe45f544c70bb0f525e6,2020-12-01_16h20.56.776,lexical_decision_task_MP_exp2,2020.2.8,Win32,60,z,1,0.88413,,,,,,,,0.88413,1,,,,,,351,NW,"ID",33,tiesch,TIESCH,z,,,,,,0.076851866,-0.392592606,0,0,0,,0,269,269,290,1,
,,,,,,,,,,,,,,,,,,5f68fe45f544c70bb0f525e6,2020-12-01_16h20.56.776,lexical_decision_task_MP_exp2,2020.2.8,Win32,60,z,1,0.735065,,,,,,,,0.735065,1,,,,,,430,NW,UN,33,chrums,CAROEY,z,,,,,,0.076851866,-0.392592606,0,0,0,,0,270,270,369,1,
,,,,,,,,,,,,,,,,,,5f68fe45f544c70bb0f525e6,2020-12-01_16h20.56.776,lexical_decision_task_MP_exp2,2020.2.8,Win32,60,m,1,0.76751,,,,,,,,0.76751,1,,,,,,20,WORD,UN,16,simple,BREAST,m,,,,,,0.076851866,-0.392592606,0,0,0,,0,271,271,199,1,
,,,,,,,,,,,,,,,,,,5f68fe45f544c70bb0f525e6,2020-12-01_16h20.56.776,lexical_decision_task_MP_exp2,2020.2.8,Win32,60,m,1,0.877315,,,,,,,,0.877315,1,,,,,,19,WORD,UN,16,breast,PATRON,m,,,,,,0.076851866,-0.392592606,0,0,0,,0,272,272,198,1,
,,,,,,,,,,,,,,,,,,5f68fe45f544c70bb0f525e6,2020-12-01_16h20.56.776,lexical_decision_task_MP_exp2,2020.2.8,Win32,60,z,1,0.867255,,,,,,,,0.867255,1,,,,,,459,NW,UN,33,mingar,BAFENT,z,,,,,,0.076851866,-0.392592606,0,0,0,,0,273,273,398,1,
,,,,,,,,,,,,,,,,,,5f68fe45f544c70bb0f525e6,2020-12-01_16h20.56.776,lexical_decision_task_MP_exp2,2020.2.8,Win32,60,z,1,0.739835,,,,,,,,0.739835,1,,,,,,417,NW,"ID",16,earoud,EAROUD,z,,,,,,0.07592594,-0.393518532,0,0,0,,0,274,274,356,1,
,,,,,,,,,,,,,,,,,,5f68fe45f544c70bb0f525e6,2020-12-01_16h20.56.776,lexical_decision_task_MP_exp2,2020.2.8,Win32,60,z,1,0.60096,,,,,,,,0.60096,1,,,,,,317,NW,"ID",33,worbal,WORBAL,z,,,,,,0.07592594,-0.393518532,0,0,0,,0,275,275,256,1,
,,,,,,,,,,,,,,,,,,5f68fe45f544c70bb0f525e6,2020-12-01_16h20.56.776,lexical_decision_task_MP_exp2,2020.2.8,Win32,60,z,1,0.950535,,,,,,,,0.950535,1,,,,,,284,NW,UN,16,prudge,SHAPLE,z,,,,,,0.07592594,-0.393518532,0,0,0,,0,276,276,463,1,
,,,,,,,,,,,,,,,,,,5f68fe45f544c70bb0f525e6,2020-12-01_16h20.56.776,lexical_decision_task_MP_exp2,2020.2.8,Win32,60,m,1,0.651125,,,,,,,,0.651125,1,,,,,,164,WORD,"ID",16,market,MARKET,m,,,,,,0.07592594,-0.393518532,0,0,0,,0,277,277,103,1,
,,,,,,,,,,,,,,,,,,5f68fe45f544c70bb0f525e6,2020-12-01_16h20.56.776,lexical_decision_task_MP_exp2,2020.2.8,Win32,60,m,1,0.88385,,,,,,,,0.88385,1,,,,,,40,WORD,UN,16,spring,CONVEY,m,,,,,,0.07592594,-0.393518532,0,0,0,,0,278,278,219,1,
,,,,,,,,,,,,,,,,,,5f68fe45f544c70bb0f525e6,2020-12-01_16h20.56.776,lexical_decision_task_MP_exp2,2020.2.8,Win32,60,z,1,0.956435,,,,,,,,0.956435,1,,,,,,374,NW,"ID",16,sliant,SLIANT,z,,,,,,0.07592594,-0.393518532,0,0,0,,0,279,279,313,1,
,,,,,,,,,,,,,,,,,,5f68fe45f544c70bb0f525e6,2020-12-01_16h20.56.776,lexical_decision_task_MP_exp2,2020.2.8,Win32,60,z,1,1.05373,,,,,,,,1.05373,1,,,,,,390,NW,"ID",16,hatrus,HATRUS,z,,,,,,0.07592594,-0.39537044,0,0,0,,0,280,280,329,1,
,,,,,,,,,,,,,,,,,,5f68fe45f544c70bb0f525e6,2020-12-01_16h20.56.776,lexical_decision_task_MP_exp2,2020.2.8,Win32,60,z,1,0.872145,,,,,,,,0.872145,1,,,,,,358,NW,"ID",33,fleack,FLEACK,z,,,,,,0.07592594,-0.39537044,0,0,0,,0,281,281,297,1,
,,,,,,,,,,,,,,,,,,5f68fe45f544c70bb0f525e6,2020-12-01_16h20.56.776,lexical_decision_task_MP_exp2,2020.2.8,Win32,60,z,1,0.90946,,,,,,,,0.90946,1,,,,,,310,NW,"ID",33,daniet,DANIET,z,,,,,,0.075000014,-0.39629631,0,0,0,,0,282,282,249,1,
,,,,,,,,,,,,,,,,,,5f68fe45f544c70bb0f525e6,2020-12-01_16h20.56.776,lexical_decision_task_MP_exp2,2020.2.8,Win32,60,m,1,0.73446,,,,,,,,0.73446,1,,,,,,86,WORD,"ID",33,rodent,RODENT,m,,,,,,0.073148162,-0.397222236,0,0,0,,0,283,283,25,1,
,,,,,,,,,,,,,,,,,,5f68fe45f544c70bb0f525e6,2020-12-01_16h20.56.776,lexical_decision_task_MP_exp2,2020.2.8,Win32,60,m,1,1.034175,,,,,,,,1.034175,1,,,,,,153,WORD,"ID",16,behold,BEHOLD,m,,,,,,0.072222237,-0.398148162,0,0,0,,0,284,284,92,1,
,,,,,,,,,,,,,,,,,,5f68fe45f544c70bb0f525e6,2020-12-01_16h20.56.776,lexical_decision_task_MP_exp2,2020.2.8,Win32,60,z,1,0.783995,,,,,,,,0.783995,1,,,,,,443,NW,UN,33,jaunce,DORSEX,z,,,,,,0.072222237,-0.398148162,0,0,0,,0,285,285,382,1,
,,,,,,,,,,,,,,,,,,5f68fe45f544c70bb0f525e6,2020-12-01_16h20.56.776,lexical_decision_task_MP_exp2,2020.2.8,Win32,60,z,1,0.73496,,,,,,,,0.73496,1,,,,,,368,NW,"ID",16,hornal,HORNAL,z,,,,,,0.072222237,-0.398148162,0,0,0,,0,286,286,307,1,
,,,,,,,,,,,,,,,,,,5f68fe45f544c70bb0f525e6,2020-12-01_16h20.56.776,lexical_decision_task_MP_exp2,2020.2.8,Win32,60,z,1,0.767585,,,,,,,,0.767585,1,,,,,,471,NW,UN,33,cigney,NOBEST,z,,,,,,0.072222237,-0.398148162,0,0,0,,0,287,287,410,1,
,,,,,,,,,,,,,,,,,,5f68fe45f544c70bb0f525e6,2020-12-01_16h20.56.776,lexical_decision_task_MP_exp2,2020.2.8,Win32,60,z,1,0.750965,,,,,,,,0.750965,1,,,,,,431,NW,UN,33,lunker,CHRUMS,z,,,,,,0.072222237,-0.398148162,0,0,0,,0,288,288,370,1,
,,,,,,,,,,,,,,,,,,5f68fe45f544c70bb0f525e6,2020-12-01_16h20.56.776,lexical_decision_task_MP_exp2,2020.2.8,Win32,60,m,1,0.654225,,,,,,,,0.654225,1,,,,,,142,WORD,"ID",16,spruce,SPRUCE,m,,,,,,0.072222237,-0.398148162,0,0,0,,0,289,289,81,1,
,,,,,,,,,,,,,,,,,,5f68fe45f544c70bb0f525e6,2020-12-01_16h20.56.776,lexical_decision_task_MP_exp2,2020.2.8,Win32,60,m,1,0.514455,,,,,,,,0.514455,1,,,,,,2,WORD,UN,16,knight,BRIDGE,m,,,,,,0.072222237,-0.40000007,0,0,0,,0,290,290,181,1,
,,,,,,,,,,,,,,,,,,5f68fe45f544c70bb0f525e6,2020-12-01_16h20.56.776,lexical_decision_task_MP_exp2,2020.2.8,Win32,60,m,1,0.556385,,,,,,,,0.556385,1,,,,,,23,WORD,UN,16,praise,WEALTH,m,,,,,,0.072222237,-0.40000007,0,0,0,,0,291,291,202,1,
,,,,,,,,,,,,,,,,,,5f68fe45f544c70bb0f525e6,2020-12-01_16h20.56.776,lexical_decision_task_MP_exp2,2020.2.8,Win32,60,m,1,0.592875,,,,,,,,0.592875,1,,,,,,83,WORD,"ID",33,result,RESULT,m,,,,,,0.072222237,-0.40000007,0,0,0,,0,292,292,22,1,
,,,,,,,,,,,,,,,,,,5f68fe45f544c70bb0f525e6,2020-12-01_16h20.56.776,lexical_decision_task_MP_exp2,2020.2.8,Win32,60,m,1,0.58459,,,,,,,,0.58459,1,,,,,,120,WORD,"ID",33,strain,STRAIN,m,,,,,,0.072222237,-0.40000007,0,0,0,,0,293,293,59,1,
,,,,,,,,,,,,,,,,,,5f68fe45f544c70bb0f525e6,2020-12-01_16h20.56.776,lexical_decision_task_MP_exp2,2020.2.8,Win32,60,z,1,0.687455,,,,,,,,0.687455,1,,,,,,438,NW,UN,33,limpor,BAITCH,z,,,,,,0.072222237,-0.40000007,0,0,0,,0,294,294,377,1,
,,,,,,,,,,,,,,,,,,5f68fe45f544c70bb0f525e6,2020-12-01_16h20.56.776,lexical_decision_task_MP_exp2,2020.2.8,Win32,60,m,1,0.836695,,,,,,,,0.836695,1,,,,,,30,WORD,UN,16,weapon,ORIENT,m,,,,,,0.071296311,-0.40000007,0,0,0,,0,295,295,209,1,
,,,,,,,,,,,,,,,,,,5f68fe45f544c70bb0f525e6,2020-12-01_16h20.56.776,lexical_decision_task_MP_exp2,2020.2.8,Win32,60,m,1,0.91442,,,,,,,,0.91442,1,,,,,,36,WORD,UN,16,insult,VANISH,m,,,,,,0.071296311,-0.40000007,0,0,0,,0,296,296,215,1,
,,,,,,,,,,,,,,,,,,5f68fe45f544c70bb0f525e6,2020-12-01_16h20.56.776,lexical_decision_task_MP_exp2,2020.2.8,Win32,60,z,1,1.48363,,,,,,,,1.48363,1,,,,,,341,NW,"ID",33,myrtie,MYRTIE,z,,,,,,0.071296311,-0.40000007,0,0,0,,0,297,297,280,1,
,,,,,,,,,,,,,,,,,,5f68fe45f544c70bb0f525e6,2020-12-01_16h20.56.776,lexical_decision_task_MP_exp2,2020.2.8,Win32,60,m,1,0.62377,,,,,,,,0.62377,1,,,,,,114,WORD,"ID",33,placid,PLACID,m,,,,,,0.071296311,-0.40000007,0,0,0,,0,298,298,53,1,
,,,,,,,,,,,,,,,,,,5f68fe45f544c70bb0f525e6,2020-12-01_16h20.56.776,lexical_decision_task_MP_exp2,2020.2.8,Win32,60,z,1,0.78891,,,,,,,,0.78891,1,,,,,,250,NW,UN,16,lupict,MILTED,z,,,,,,0.071296311,-0.40000007,0,0,0,,0,299,299,429,1,
,,,,,,,,,,,,,,,,,,5f68fe45f544c70bb0f525e6,2020-12-01_16h20.56.776,lexical_decision_task_MP_exp2,2020.2.8,Win32,60,m,1,0.83415,,,,,,,,0.83415,1,,,,,,101,WORD,"ID",33,wrench,WRENCH,m,,,,,,0.068518533,-0.401851865,0,0,0,,0,300,300,40,1,
,,,,,,,,,,,,,,,,,,5f68fe45f544c70bb0f525e6,2020-12-01_16h20.56.776,lexical_decision_task_MP_exp2,2020.2.8,Win32,60,m,1,0.854035,,,,,,,,0.854035,1,,,,,,64,WORD,"ID",33,throne,THRONE,m,,,,,,0.068518533,-0.402777791,0,0,0,,0,301,301,3,1,
,,,,,,,,,,,,,,,,,,5f68fe45f544c70bb0f525e6,2020-12-01_16h20.56.776,lexical_decision_task_MP_exp2,2020.2.8,Win32,60,m,1,0.534455,,,,,,,,0.534455,1,,,,,,103,WORD,"ID",33,bounce,BOUNCE,m,,,,,,0.068518533,-0.402777791,0,0,0,,0,302,302,42,1,
,,,,,,,,,,,,,,,,,,5f68fe45f544c70bb0f525e6,2020-12-01_16h20.56.776,lexical_decision_task_MP_exp2,2020.2.8,Win32,60,z,1,0.737145,,,,,,,,0.737145,1,,,,,,265,NW,UN,16,varmit,DISTAR,z,,,,,,0.067592607,-0.403703717,0,0,0,,0,303,303,444,1,
,,,,,,,,,,,,,,,,,,5f68fe45f544c70bb0f525e6,2020-12-01_16h20.56.776,lexical_decision_task_MP_exp2,2020.2.8,Win32,60,z,1,0.72777,,,,,,,,0.72777,1,,,,,,249,NW,UN,16,milted,BATROL,z,,,,,,0.066666681,-0.403703717,0,0,0,,0,304,304,428,1,
,,,,,,,,,,,,,,,,,,5f68fe45f544c70bb0f525e6,2020-12-01_16h20.56.776,lexical_decision_task_MP_exp2,2020.2.8,Win32,60,m,1,0.80486,,,,,,,,0.80486,1,,,,,,35,WORD,UN,16,vanish,SOCKET,m,,,,,,0.063888903,-0.406481495,0,0,0,,0,305,305,214,1,
,,,,,,,,,,,,,,,,,,5f68fe45f544c70bb0f525e6,2020-12-01_16h20.56.776,lexical_decision_task_MP_exp2,2020.2.8,Win32,60,z,1,0.65808,,,,,,,,0.65808,1,,,,,,476,NW,UN,33,photie,JOSTED,z,,,,,,0.063888903,-0.406481495,0,0,0,,0,306,306,415,1,
,,,,,,,,,,,,,,,,,,5f68fe45f544c70bb0f525e6,2020-12-01_16h20.56.776,lexical_decision_task_MP_exp2,2020.2.8,Win32,60,m,1,0.836845,,,,,,,,0.836845,1,,,,,,77,WORD,"ID",33,racket,RACKET,m,,,,,,0.063888903,-0.407407421,0,0,0,,0,307,307,16,1,
,,,,,,,,,,,,,,,,,,5f68fe45f544c70bb0f525e6,2020-12-01_16h20.56.776,lexical_decision_task_MP_exp2,2020.2.8,Win32,60,m,1,0.63507,,,,,,,,0.63507,1,,,,,,171,WORD,"ID",16,depart,DEPART,m,,,,,,0.063888903,-0.407407421,0,0,0,,0,308,308,110,1,
,,,,,,,,,,,,,,,,,,5f68fe45f544c70bb0f525e6,2020-12-01_16h20.56.776,lexical_decision_task_MP_exp2,2020.2.8,Win32,60,m,1,0.69027,,,,,,,,0.69027,1,,,,,,175,WORD,"ID",16,fabric,FABRIC,m,,,,,,0.063888903,-0.407407421,0,0,0,,0,309,309,114,1,
,,,,,,,,,,,,,,,,,,5f68fe45f544c70bb0f525e6,2020-12-01_16h20.56.776,lexical_decision_task_MP_exp2,2020.2.8,Win32,60,z,1,0.66776,,,,,,,,0.66776,1,,,,,,337,NW,"ID",33,rejols,REJOLS,z,,,,,,0.063888903,-0.407407421,0,0,0,,0,310,310,276,1,
,,,,,,,,,,,,,,,,,,5f68fe45f544c70bb0f525e6,2020-12-01_16h20.56.776,lexical_decision_task_MP_exp2,2020.2.8,Win32,60,m,1,0.862465,,,,,,,,0.862465,1,,,,,,135,WORD,"ID",16,import,IMPORT,m,,,,,,0.062037051,-0.408333347,0,0,0,,0,311,311,74,1,
,,,,,,,,,,,,,,,,,,5f68fe45f544c70bb0f525e6,2020-12-01_16h20.56.776,lexical_decision_task_MP_exp2,2020.2.8,Win32,60,m,1,0.87854,,,,,,,,0.87854,1,,,,,,148,WORD,"ID",16,custom,CUSTOM,m,,,,,,0.062037051,-0.408333347,0,0,0,,0,312,312,87,1,
,,,,,,,,,,,,,,,,,,5f68fe45f544c70bb0f525e6,2020-12-01_16h20.56.776,lexical_decision_task_MP_exp2,2020.2.8,Win32,60,m,1,0.60099,,,,,,,,0.60099,1,,,,,,168,WORD,"ID",16,answer,ANSWER,m,,,,,,0.062037051,-0.408333347,0,0,0,,0,313,313,107,1,
,,,,,,,,,,,,,,,,,,5f68fe45f544c70bb0f525e6,2020-12-01_16h20.56.776,lexical_decision_task_MP_exp2,2020.2.8,Win32,60,m,1,0.483655,,,,,,,,0.483655,1,,,,,,173,WORD,"ID",16,shower,SHOWER,m,,,,,,0.062037051,-0.408333347,0,0,0,,0,314,314,112,1,
,,,,,,,,,,,,,,,,,,5f68fe45f544c70bb0f525e6,2020-12-01_16h20.56.776,lexical_decision_task_MP_exp2,2020.2.8,Win32,60,m,1,0.75071,,,,,,,,0.75071,1,,,,,,205,WORD,UN,33,tailor,LOUNGE,m,,,,,,0.062037051,-0.408333347,0,0,0,,0,315,315,144,1,
,,,,,,,,,,,,,,,,,,5f68fe45f544c70bb0f525e6,2020-12-01_16h20.56.776,lexical_decision_task_MP_exp2,2020.2.8,Win32,60,m,1,0.56829,,,,,,,,0.56829,1,,,,,,57,WORD,UN,16,danger,CHANGE,m,,,,,,0.062037051,-0.408333347,0,0,0,,0,316,316,236,1,
,,,,,,,,,,,,,,,,,,5f68fe45f544c70bb0f525e6,2020-12-01_16h20.56.776,lexical_decision_task_MP_exp2,2020.2.8,Win32,60,z,1,0.68506,,,,,,,,0.68506,1,,,,,,263,NW,UN,16,vackel,DOLICA,z,,,,,,0.062037051,-0.408333347,0,0,0,,0,317,317,442,1,
,,,,,,,,,,,,,,,,,,5f68fe45f544c70bb0f525e6,2020-12-01_16h20.56.776,lexical_decision_task_MP_exp2,2020.2.8,Win32,60,m,1,0.8988,,,,,,,,0.8988,1,,,,,,220,WORD,UN,33,mascot,VOYAGE,m,,,,,,0.062037051,-0.408333347,0,0,0,,0,318,318,159,1,
,,,,,,,,,,,,,,,,,,5f68fe45f544c70bb0f525e6,2020-12-01_16h20.56.776,lexical_decision_task_MP_exp2,2020.2.8,Win32,60,z,1,0.903495,,,,,,,,0.903495,1,,,,,,477,NW,UN,33,lobush,PHOTIE,z,,,,,,0.062037051,-0.408333347,0,0,0,,0,319,319,416,1,
,,,,,,,,,,,,,,,,,,5f68fe45f544c70bb0f525e6,2020-12-01_16h20.56.776,lexical_decision_task_MP_exp2,2020.2.8,Win32,60,z,1,0.643145,,,,,,,,0.643145,1,,,,,,466,NW,UN,33,robuly,HOCITE,z,,,,,,0.062037051,-0.408333347,0,0,0,,0,320,320,405,1,
,,,,,,,,,,,,,,,,,,5f68fe45f544c70bb0f525e6,2020-12-01_16h20.56.776,lexical_decision_task_MP_exp2,2020.2.8,Win32,60,z,1,0.757445,,,,,,,,0.757445,1,,,,,,278,NW,UN,16,celond,UNIGHS,z,,,,,,0.062037051,-0.409259329,0,0,0,,0,321,321,457,1,
,,,,,,,,,,,,,,,,,,5f68fe45f544c70bb0f525e6,2020-12-01_16h20.56.776,lexical_decision_task_MP_exp2,2020.2.8,Win32,60,m,1,0.504395,,,,,,,,0.504395,1,,,,,,165,WORD,"ID",16,invest,INVEST,m,,,,,,0.061111125,-0.410185199,0,0,0,,0,322,322,104,1,
,,,,,,,,,,,,,,,,,,5f68fe45f544c70bb0f525e6,2020-12-01_16h20.56.776,lexical_decision_task_MP_exp2,2020.2.8,Win32,60,m,1,0.93362,,,,,,,,0.93362,1,,,,,,42,WORD,UN,16,tongue,CHAPEL,m,,,,,,0.061111125,-0.410185199,0,0,0,,0,323,323,221,1,
,,,,,,,,,,,,,,,,,,5f68fe45f544c70bb0f525e6,2020-12-01_16h20.56.776,lexical_decision_task_MP_exp2,2020.2.8,Win32,60,m,1,0.66866,,,,,,,,0.66866,1,,,,,,29,WORD,UN,16,orient,SKETCH,m,,,,,,0.061111125,-0.410185199,0,0,0,,0,324,324,208,1,
,,,,,,,,,,,,,,,,,,5f68fe45f544c70bb0f525e6,2020-12-01_16h20.56.776,lexical_decision_task_MP_exp2,2020.2.8,Win32,60,z,1,0.65046,,,,,,,,0.65046,1,,,,,,421,NW,UN,33,alcoud,KNISMA,z,,,,,,0.061111125,-0.410185199,0,0,0,,0,325,325,360,1,
,,,,,,,,,,,,,,,,,,5f68fe45f544c70bb0f525e6,2020-12-01_16h20.56.776,lexical_decision_task_MP_exp2,2020.2.8,Win32,60,m,0,0.658925,,,,,,,,0.658925,0,,,,,,445,NW,UN,33,runamo,MINKEL,z,,,,,,0.062037051,-0.409259329,0,0,0,,0,326,326,384,1,
,,,,,,,,,,,,,,,,,,5f68fe45f544c70bb0f525e6,2020-12-01_16h20.56.776,lexical_decision_task_MP_exp2,2020.2.8,Win32,60,z,1,0.800765,,,,,,,,0.800765,1,,,,,,373,NW,"ID",16,bigent,BIGENT,z,,,,,,0.061111125,-0.410185199,0,0,0,,0,327,327,312,1,
,,,,,,,,,,,,,,,,,,5f68fe45f544c70bb0f525e6,2020-12-01_16h20.56.776,lexical_decision_task_MP_exp2,2020.2.8,Win32,60,m,1,1.050645,,,,,,,,1.050645,1,,,,,,229,WORD,UN,33,fringe,MOTHER,m,,,,,,0.061111125,-0.410185199,0,0,0,,0,328,328,168,1,
,,,,,,,,,,,,,,,,,,5f68fe45f544c70bb0f525e6,2020-12-01_16h20.56.776,lexical_decision_task_MP_exp2,2020.2.8,Win32,60,z,1,0.833965,,,,,,,,0.833965,1,,,,,,283,NW,UN,16,shaple,VERALF,z,,,,,,0.057407478,-0.414814828,0,0,0,,0,329,329,462,1,
,,,,,,,,,,,,,,,,,,5f68fe45f544c70bb0f525e6,2020-12-01_16h20.56.776,lexical_decision_task_MP_exp2,2020.2.8,Win32,60,m,1,0.846825,,,,,,,,0.846825,1,,,,,,97,WORD,"ID",33,client,CLIENT,m,,,,,,0.057407478,-0.412962977,0,0,0,,0,330,330,36,1,
,,,,,,,,,,,,,,,,,,5f68fe45f544c70bb0f525e6,2020-12-01_16h20.56.776,lexical_decision_task_MP_exp2,2020.2.8,Win32,60,m,1,0.61738,,,,,,,,0.61738,1,,,,,,99,WORD,"ID",33,fluent,FLUENT,m,,,,,,0.057407478,-0.412962977,0,0,0,,0,331,331,38,1,
,,,,,,,,,,,,,,,,,,5f68fe45f544c70bb0f525e6,2020-12-01_16h20.56.776,lexical_decision_task_MP_exp2,2020.2.8,Win32,60,z,1,0.65119,,,,,,,,0.65119,1,,,,,,460,NW,UN,33,justre,MINGAR,z,,,,,,0.057407478,-0.412962977,0,0,0,,0,332,332,399,1,
,,,,,,,,,,,,,,,,,,5f68fe45f544c70bb0f525e6,2020-12-01_16h20.56.776,lexical_decision_task_MP_exp2,2020.2.8,Win32,60,z,1,0.75169,,,,,,,,0.75169,1,,,,,,415,NW,"ID",16,higsta,HIGSTA,z,,,,,,0.057407478,-0.412962977,0,0,0,,0,333,333,354,1,
,,,,,,,,,,,,,,,,,,5f68fe45f544c70bb0f525e6,2020-12-01_16h20.56.776,lexical_decision_task_MP_exp2,2020.2.8,Win32,60,m,1,0.900305,,,,,,,,0.900305,1,,,,,,195,WORD,UN,33,credit,RESIGN,m,,,,,,0.056481496,-0.414814828,0,0,0,,0,334,334,134,1,
,,,,,,,,,,,,,,,,,,5f68fe45f544c70bb0f525e6,2020-12-01_16h20.56.776,lexical_decision_task_MP_exp2,2020.2.8,Win32,60,z,1,1.00073,,,,,,,,1.00073,1,,,,,,292,NW,UN,16,swance,ABLINT,z,,,,,,0.056481496,-0.414814828,0,0,0,,0,335,335,471,1,
,,,,,,,,,,,,,,,,,,5f68fe45f544c70bb0f525e6,2020-12-01_16h20.56.776,lexical_decision_task_MP_exp2,2020.2.8,Win32,60,m,1,0.71416,,,,,,,,0.71416,1,,,,,,4,WORD,UN,16,plunge,TRENCH,m,,,,,,0.056481496,-0.414814828,0,0,0,,0,336,336,183,1,
,,,,,,,,,,,,,,,,,,5f68fe45f544c70bb0f525e6,2020-12-01_16h20.56.776,lexical_decision_task_MP_exp2,2020.2.8,Win32,60,z,1,0.850185,,,,,,,,0.850185,1,,,,,,375,NW,"ID",16,yorque,YORQUE,z,,,,,,0.05555557,-0.41666668,0,0,0,,0,337,337,314,1,
,,,,,,,,,,,,,,,,,,5f68fe45f544c70bb0f525e6,2020-12-01_16h20.56.776,lexical_decision_task_MP_exp2,2020.2.8,Win32,60,z,1,0.86741,,,,,,,,0.86741,1,,,,,,379,NW,"ID",16,auting,AUTING,z,,,,,,0.052777848,-0.418518589,0,0,0,,0,338,338,318,1,
,,,,,,,,,,,,,,,,,,5f68fe45f544c70bb0f525e6,2020-12-01_16h20.56.776,lexical_decision_task_MP_exp2,2020.2.8,Win32,60,z,1,0.790265,,,,,,,,0.790265,1,,,,,,300,NW,UN,16,smenco,YARION,z,,,,,,0.049074088,-0.423148218,0,0,0,,0,339,339,479,1,
,,,,,,,,,,,,,,,,,,5f68fe45f544c70bb0f525e6,2020-12-01_16h20.56.776,lexical_decision_task_MP_exp2,2020.2.8,Win32,60,m,1,0.820915,,,,,,,,0.820915,1,,,,,,66,WORD,"ID",33,gospel,GOSPEL,m,,,,,,0.04629631,-0.42592594,0,0,0,,0,340,340,5,1,
,,,,,,,,,,,,,,,,,,5f68fe45f544c70bb0f525e6,2020-12-01_16h20.56.776,lexical_decision_task_MP_exp2,2020.2.8,Win32,60,z,1,1.06722,,,,,,,,1.06722,1,,,,,,303,NW,"ID",33,fiream,FIREAM,z,,,,,,0.04629631,-0.425000014,0,0,0,,0,341,341,242,1,
,,,,,,,,,,,,,,,,,,5f68fe45f544c70bb0f525e6,2020-12-01_16h20.56.776,lexical_decision_task_MP_exp2,2020.2.8,Win32,60,m,1,0.767395,,,,,,,,0.767395,1,,,,,,167,WORD,"ID",16,design,DESIGN,m,,,,,,0.043518589,-0.42592594,0,0,0,,0,342,342,106,1,
,,,,,,,,,,,,,,,,,,5f68fe45f544c70bb0f525e6,2020-12-01_16h20.56.776,lexical_decision_task_MP_exp2,2020.2.8,Win32,60,m,1,0.88718,,,,,,,,0.88718,1,,,,,,136,WORD,"ID",16,bleach,BLEACH,m,,,,,,0.043518589,-0.42592594,0,0,0,,0,343,343,75,1,
,,,,,,,,,,,,,,,,,,5f68fe45f544c70bb0f525e6,2020-12-01_16h20.56.776,lexical_decision_task_MP_exp2,2020.2.8,Win32,60,z,1,0.70648,,,,,,,,0.70648,1,,,,,,457,NW,UN,33,barcet,WANIGH,z,,,,,,0.043518589,-0.42592594,0,0,0,,0,344,344,396,1,
,,,,,,,,,,,,,,,,,,5f68fe45f544c70bb0f525e6,2020-12-01_16h20.56.776,lexical_decision_task_MP_exp2,2020.2.8,Win32,60,z,1,0.9115,,,,,,,,0.9115,1,,,,,,271,NW,UN,16,damilt,AUBRID,z,,,,,,0.040740755,-0.428703718,0,0,0,,0,345,345,450,1,
,,,,,,,,,,,,,,,,,,5f68fe45f544c70bb0f525e6,2020-12-01_16h20.56.776,lexical_decision_task_MP_exp2,2020.2.8,Win32,60,z,1,0.768545,,,,,,,,0.768545,1,,,,,,266,NW,UN,16,pasink,VARMIT,z,,,,,,0.041666681,-0.428703718,0,0,0,,0,346,346,445,1,
,,,,,,,,,,,,,,,,,,5f68fe45f544c70bb0f525e6,2020-12-01_16h20.56.776,lexical_decision_task_MP_exp2,2020.2.8,Win32,60,m,1,0.90128,,,,,,,,0.90128,1,,,,,,16,WORD,UN,16,charge,FAUCET,m,,,,,,0.038888959,-0.430555569,0,0,0,,0,347,347,195,1,
,,,,,,,,,,,,,,,,,,5f68fe45f544c70bb0f525e6,2020-12-01_16h20.56.776,lexical_decision_task_MP_exp2,2020.2.8,Win32,60,,0,,,,,,,,,0.90128,-1,,,,,,106,WORD,"ID",33,ransom,RANSOM,m,,,,,,0.038888959,-0.430555569,0,0,0,,0,348,348,45,1,
,,,,,,,,,,,,,,,,,,5f68fe45f544c70bb0f525e6,2020-12-01_16h20.56.776,lexical_decision_task_MP_exp2,2020.2.8,Win32,60,,0,,,,,,,,,0.90128,-1,,,,,,312,NW,"ID",33,nerawl,NERAWL,z,,,,,,0.03425933,-0.427777848,0,0,0,,0,349,349,251,1,
,,,,,,,,,,,,,,,,,,5f68fe45f544c70bb0f525e6,2020-12-01_16h20.56.776,lexical_decision_task_MP_exp2,2020.2.8,Win32,60,,0,,,,,,,,,0.90128,-1,,,,,,461,NW,UN,33,absult,JUSTRE,z,,,,,,0.350926057,0.178703699,0,0,0,,0,350,350,400,1,
,,,,,,,,,,,,,,,,,,5f68fe45f544c70bb0f525e6,2020-12-01_16h20.56.776,lexical_decision_task_MP_exp2,2020.2.8,Win32,60,,0,,,,,,,,,0.90128,-1,,,,,,296,NW,UN,16,fertic,BEINCH,z,,,,,,0.350926057,0.178703699,0,0,0,,0,351,351,475,1,
,,,,,,,,,,,,,,,,,,5f68fe45f544c70bb0f525e6,2020-12-01_16h20.56.776,lexical_decision_task_MP_exp2,2020.2.8,Win32,60,,0,,,,,,,,,0.90128,-1,,,,,,401,NW,"ID",16,mustil,MUSTIL,z,,,,,,0.230555572,0.088888883,0,0,0,,0,352,352,340,1,
,,,,,,,,,,,,,,,,,,5f68fe45f544c70bb0f525e6,2020-12-01_16h20.56.776,lexical_decision_task_MP_exp2,2020.2.8,Win32,60,z,1,1.8475,0.189814831,0.077777743,1,0,0,1.61358,,1.8475,1,,,,,,405,NW,"ID",16,flumni,FLUMNI,z,,,,,,0.189814831,0.077777743,0,0,0,,0,353,353,344,1,
,,,,,,,,,,,,,,,,,,5f68fe45f544c70bb0f525e6,2020-12-01_16h20.56.776,lexical_decision_task_MP_exp2,2020.2.8,Win32,60,z,1,0.801345,,,,,,,,0.801345,1,,,,,,402,NW,"ID",16,syntic,SYNTIC,z,,,,,,0.189814831,0.077777743,0,0,0,,0,354,354,341,1,
,,,,,,,,,,,,,,,,,,5f68fe45f544c70bb0f525e6,2020-12-01_16h20.56.776,lexical_decision_task_MP_exp2,2020.2.8,Win32,60,z,1,0.618375,,,,,,,,0.618375,1,,,,,,305,NW,"ID",33,forgle,FORGLE,z,,,,,,0.182407423,0.100925892,0,0,0,,0,355,355,244,1,
,,,,,,,,,,,,,,,,,,5f68fe45f544c70bb0f525e6,2020-12-01_16h20.56.776,lexical_decision_task_MP_exp2,2020.2.8,Win32,60,z,1,0.767345,,,,,,,,0.767345,1,,,,,,261,NW,UN,16,quilew,STUNCH,z,,,,,,0.168518534,0.126851846,0,0,0,,0,356,356,440,1,
,,,,,,,,,,,,,,,,,,5f68fe45f544c70bb0f525e6,2020-12-01_16h20.56.776,lexical_decision_task_MP_exp2,2020.2.8,Win32,60,z,1,0.600965,,,,,,,,0.600965,1,,,,,,411,NW,"ID",16,orchin,ORCHIN,z,,,,,,0.168518534,0.126851846,0,0,0,,0,357,357,350,1,
,,,,,,,,,,,,,,,,,,5f68fe45f544c70bb0f525e6,2020-12-01_16h20.56.776,lexical_decision_task_MP_exp2,2020.2.8,Win32,60,z,1,0.717425,,,,,,,,0.717425,1,,,,,,480,NW,UN,33,knisma,ROBULY,z,,,,,,0.168518534,0.126851846,0,0,0,,0,358,358,419,1,
,,,,,,,,,,,,,,,,,,5f68fe45f544c70bb0f525e6,2020-12-01_16h20.56.776,lexical_decision_task_MP_exp2,2020.2.8,Win32,60,z,1,0.584725,,,,,,,,0.584725,1,,,,,,424,NW,UN,33,frudge,PRAILE,z,,,,,,0.168518534,0.126851846,0,0,0,,0,359,359,363,1,
,,,,,,,,,,,,,,,,,,5f68fe45f544c70bb0f525e6,2020-12-01_16h20.56.776,lexical_decision_task_MP_exp2,2020.2.8,Win32,60,m,1,0.98449,,,,,,,,0.98449,1,,,,,,178,WORD,"ID",16,inform,INFORM,m,,,,,,0.168518534,0.126851846,0,0,0,,0,360,360,117,1,
,,,,,,,,,,,,,,,,,,5f68fe45f544c70bb0f525e6,2020-12-01_16h20.56.776,lexical_decision_task_MP_exp2,2020.2.8,Win32,60,z,1,0.70269,,,,,,,,0.70269,1,,,,,,418,NW,"ID",16,suidle,SUIDLE,z,,,,,,0.168518534,0.126851846,0,0,0,,0,361,361,357,1,
,,,,,,,,,,,,,,,,,,5f68fe45f544c70bb0f525e6,2020-12-01_16h20.56.776,lexical_decision_task_MP_exp2,2020.2.8,Win32,60,m,1,0.651405,,,,,,,,0.651405,1,,,,,,193,WORD,UN,33,mildew,OBJECT,m,,,,,,0.009259273,-0.069444453,0,0,0,space,0,362,362,132,1,13.887445
,,,,,,,,,,,,,,,,,,5f68fe45f544c70bb0f525e6,2020-12-01_16h20.56.776,lexical_decision_task_MP_exp2,2020.2.8,Win32,60,m,1,0.618215,,,,,,,,0.618215,1,,,,,,237,WORD,UN,33,glance,POSTER,m,,,,,,0.009259273,-0.069444453,0,0,0,,0,363,363,176,1,
,,,,,,,,,,,,,,,,,,5f68fe45f544c70bb0f525e6,2020-12-01_16h20.56.776,lexical_decision_task_MP_exp2,2020.2.8,Win32,60,m,1,0.617935,,,,,,,,0.617935,1,,,,,,69,WORD,"ID",33,plenty,PLENTY,m,,,,,,0.009259273,-0.069444453,0,0,0,,0,364,364,8,1,
,,,,,,,,,,,,,,,,,,5f68fe45f544c70bb0f525e6,2020-12-01_16h20.56.776,lexical_decision_task_MP_exp2,2020.2.8,Win32,60,z,1,0.6684,,,,,,,,0.6684,1,,,,,,450,NW,UN,33,cainky,PHRECT,z,,,,,,0.009259273,-0.069444453,0,0,0,,0,365,365,389,1,
,,,,,,,,,,,,,,,,,,5f68fe45f544c70bb0f525e6,2020-12-01_16h20.56.776,lexical_decision_task_MP_exp2,2020.2.8,Win32,60,z,1,1.26734,,,,,,,,1.26734,1,,,,,,394,NW,"ID",16,spaqux,SPAQUX,z,,,,,,0.009259273,-0.069444453,0,0,0,,0,366,366,333,1,
,,,,,,,,,,,,,,,,,,5f68fe45f544c70bb0f525e6,2020-12-01_16h20.56.776,lexical_decision_task_MP_exp2,2020.2.8,Win32,60,m,1,0.718155,,,,,,,,0.718155,1,,,,,,104,WORD,"ID",33,studio,STUDIO,m,,,,,,0.009259273,-0.069444453,0,0,0,,0,367,367,43,1,
,,,,,,,,,,,,,,,,,,5f68fe45f544c70bb0f525e6,2020-12-01_16h20.56.776,lexical_decision_task_MP_exp2,2020.2.8,Win32,60,m,1,0.81774,,,,,,,,0.81774,1,,,,,,211,WORD,UN,33,verify,INFECT,m,,,,,,0.009259273,-0.069444453,0,0,0,,0,368,368,150,1,
,,,,,,,,,,,,,,,,,,5f68fe45f544c70bb0f525e6,2020-12-01_16h20.56.776,lexical_decision_task_MP_exp2,2020.2.8,Win32,60,m,1,0.90112,,,,,,,,0.90112,1,,,,,,203,WORD,UN,33,burden,PHRASE,m,,,,,,0.009259273,-0.069444453,0,0,0,,0,369,369,142,1,
,,,,,,,,,,,,,,,,,,5f68fe45f544c70bb0f525e6,2020-12-01_16h20.56.776,lexical_decision_task_MP_exp2,2020.2.8,Win32,60,z,1,0.668155,,,,,,,,0.668155,1,,,,,,403,NW,"ID",16,bruats,BRUATS,z,,,,,,0.009259273,-0.069444453,0,0,0,,0,370,370,342,1,
,,,,,,,,,,,,,,,,,,5f68fe45f544c70bb0f525e6,2020-12-01_16h20.56.776,lexical_decision_task_MP_exp2,2020.2.8,Win32,60,z,1,0.66813,,,,,,,,0.66813,1,,,,,,395,NW,"ID",16,colury,COLURY,z,,,,,,0.009259273,-0.069444453,0,0,0,,0,371,371,334,1,
,,,,,,,,,,,,,,,,,,5f68fe45f544c70bb0f525e6,2020-12-01_16h20.56.776,lexical_decision_task_MP_exp2,2020.2.8,Win32,60,z,1,1.018195,,,,,,,,1.018195,1,,,,,,253,NW,UN,16,varosh,RESAIT,z,,,,,,0.009259273,-0.069444453,0,0,0,,0,372,372,432,1,
,,,,,,,,,,,,,,,,,,5f68fe45f544c70bb0f525e6,2020-12-01_16h20.56.776,lexical_decision_task_MP_exp2,2020.2.8,Win32,60,m,1,0.78561,,,,,,,,0.78561,1,,,,,,225,WORD,UN,33,casino,VULGAR,m,,,,,,0.009259273,-0.069444453,0,0,0,,0,373,373,164,1,
,,,,,,,,,,,,,,,,,,5f68fe45f544c70bb0f525e6,2020-12-01_16h20.56.776,lexical_decision_task_MP_exp2,2020.2.8,Win32,60,m,1,0.71794,,,,,,,,0.71794,1,,,,,,116,WORD,"ID",33,tumble,TUMBLE,m,,,,,,0.009259273,-0.069444453,0,0,0,,0,374,374,55,1,
,,,,,,,,,,,,,,,,,,5f68fe45f544c70bb0f525e6,2020-12-01_16h20.56.776,lexical_decision_task_MP_exp2,2020.2.8,Win32,60,z,1,0.73637,,,,,,,,0.73637,1,,,,,,257,NW,UN,16,poluth,VENIOD,z,,,,,,0.011111181,-0.070370379,0,0,0,,0,375,375,436,1,
,,,,,,,,,,,,,,,,,,5f68fe45f544c70bb0f525e6,2020-12-01_16h20.56.776,lexical_decision_task_MP_exp2,2020.2.8,Win32,60,z,1,0.719045,,,,,,,,0.719045,1,,,,,,388,NW,"ID",16,cragin,CRAGIN,z,,,,,,0.013888902,-0.069444453,0,0,0,,0,376,376,327,1,
,,,,,,,,,,,,,,,,,,5f68fe45f544c70bb0f525e6,2020-12-01_16h20.56.776,lexical_decision_task_MP_exp2,2020.2.8,Win32,60,m,1,0.56774,,,,,,,,0.56774,1,,,,,,98,WORD,"ID",33,belong,BELONG,m,,,,,,0.013888902,-0.069444453,0,0,0,,0,377,377,37,1,
,,,,,,,,,,,,,,,,,,5f68fe45f544c70bb0f525e6,2020-12-01_16h20.56.776,lexical_decision_task_MP_exp2,2020.2.8,Win32,60,z,1,0.65746,,,,,,,,0.65746,1,,,,,,473,NW,UN,33,hablin,CRIBLE,z,,,,,,0.02037044,-0.067592601,0,0,0,,0,378,378,412,1,
,,,,,,,,,,,,,,,,,,5f68fe45f544c70bb0f525e6,2020-12-01_16h20.56.776,lexical_decision_task_MP_exp2,2020.2.8,Win32,60,m,1,0.784805,,,,,,,,0.784805,1,,,,,,228,WORD,UN,33,kidney,MASTER,m,,,,,,0.02037044,-0.067592601,0,0,0,,0,379,379,167,1,
,,,,,,,,,,,,,,,,,,5f68fe45f544c70bb0f525e6,2020-12-01_16h20.56.776,lexical_decision_task_MP_exp2,2020.2.8,Win32,60,m,1,0.83409,,,,,,,,0.83409,1,,,,,,91,WORD,"ID",33,expand,EXPAND,m,,,,,,0.02037044,-0.067592601,0,0,0,,0,380,380,30,1,
,,,,,,,,,,,,,,,,,,5f68fe45f544c70bb0f525e6,2020-12-01_16h20.56.776,lexical_decision_task_MP_exp2,2020.2.8,Win32,60,z,1,1.366545,,,,,,,,1.366545,1,,,,,,361,NW,"ID",16,pauche,PAUCHE,z,,,,,,0.014814828,-0.069444453,0,0,0,,0,381,381,300,1,
,,,,,,,,,,,,,,,,,,5f68fe45f544c70bb0f525e6,2020-12-01_16h20.56.776,lexical_decision_task_MP_exp2,2020.2.8,Win32,60,m,1,0.62997,,,,,,,,0.62997,1,,,,,,58,WORD,UN,16,splint,FOSTER,m,,,,,,0.01203705,-0.060185194,0,0,0,,0,382,382,237,1,
,,,,,,,,,,,,,,,,,,5f68fe45f544c70bb0f525e6,2020-12-01_16h20.56.776,lexical_decision_task_MP_exp2,2020.2.8,Win32,60,z,1,0.767325,,,,,,,,0.767325,1,,,,,,357,NW,"ID",33,derain,DERAIN,z,,,,,,0.01203705,-0.060185194,0,0,0,,0,383,383,296,1,
,,,,,,,,,,,,,,,,,,5f68fe45f544c70bb0f525e6,2020-12-01_16h20.56.776,lexical_decision_task_MP_exp2,2020.2.8,Win32,60,m,1,0.63401,,,,,,,,0.63401,1,,,,,,145,WORD,"ID",16,parish,PARISH,m,,,,,,0.010185199,-0.060185194,0,0,0,,0,384,384,84,1,
,,,,,,,,,,,,,,,,,,5f68fe45f544c70bb0f525e6,2020-12-01_16h20.56.776,lexical_decision_task_MP_exp2,2020.2.8,Win32,60,m,1,0.67678,,,,,,,,0.67678,1,,,,,,75,WORD,"ID",33,trophy,TROPHY,m,,,,,,0.010185199,-0.060185194,0,0,0,,0,385,385,14,1,
,,,,,,,,,,,,,,,,,,5f68fe45f544c70bb0f525e6,2020-12-01_16h20.56.776,lexical_decision_task_MP_exp2,2020.2.8,Win32,60,z,1,0.626455,,,,,,,,0.626455,1,,,,,,365,NW,"ID",16,guairt,GUAIRT,z,,,,,,0.011111181,-0.060185194,0,0,0,,0,386,386,304,1,
,,,,,,,,,,,,,,,,,,5f68fe45f544c70bb0f525e6,2020-12-01_16h20.56.776,lexical_decision_task_MP_exp2,2020.2.8,Win32,60,m,1,0.900575,,,,,,,,0.900575,1,,,,,,32,WORD,UN,16,scream,BUCKLE,m,,,,,,0.011111181,-0.060185194,0,0,0,,0,387,387,211,1,
,,,,,,,,,,,,,,,,,,5f68fe45f544c70bb0f525e6,2020-12-01_16h20.56.776,lexical_decision_task_MP_exp2,2020.2.8,Win32,60,m,1,0.634995,,,,,,,,0.634995,1,,,,,,124,WORD,"ID",16,blouse,BLOUSE,m,,,,,,0.011111181,-0.060185194,0,0,0,,0,388,388,63,1,
,,,,,,,,,,,,,,,,,,5f68fe45f544c70bb0f525e6,2020-12-01_16h20.56.776,lexical_decision_task_MP_exp2,2020.2.8,Win32,60,z,1,0.73447,,,,,,,,0.73447,1,,,,,,335,NW,"ID",33,desion,DESION,z,,,,,,0.011111181,-0.060185194,0,0,0,,0,389,389,274,1,
,,,,,,,,,,,,,,,,,,5f68fe45f544c70bb0f525e6,2020-12-01_16h20.56.776,lexical_decision_task_MP_exp2,2020.2.8,Win32,60,z,1,0.729005,,,,,,,,0.729005,1,,,,,,393,NW,"ID",16,ganous,GANOUS,z,,,,,,0.015740811,-0.060185194,0,0,0,,0,390,390,332,1,
,,,,,,,,,,,,,,,,,,5f68fe45f544c70bb0f525e6,2020-12-01_16h20.56.776,lexical_decision_task_MP_exp2,2020.2.8,Win32,60,m,1,0.611285,,,,,,,,0.611285,1,,,,,,122,WORD,"ID",16,linger,LINGER,m,,,,,,0.012962976,-0.060185194,0,0,0,,0,391,391,61,1,
,,,,,,,,,,,,,,,,,,5f68fe45f544c70bb0f525e6,2020-12-01_16h20.56.776,lexical_decision_task_MP_exp2,2020.2.8,Win32,60,z,1,0.717725,,,,,,,,0.717725,1,,,,,,308,NW,"ID",33,psetch,PSETCH,z,,,,,,0.012962976,-0.060185194,0,0,0,,0,392,392,247,1,
,,,,,,,,,,,,,,,,,,5f68fe45f544c70bb0f525e6,2020-12-01_16h20.56.776,lexical_decision_task_MP_exp2,2020.2.8,Win32,60,m,1,1.07321,,,,,,,,1.07321,1,,,,,,141,WORD,"ID",16,orphan,ORPHAN,m,,,,,,0.012962976,-0.060185194,0,0,0,,0,393,393,80,1,
,,,,,,,,,,,,,,,,,,5f68fe45f544c70bb0f525e6,2020-12-01_16h20.56.776,lexical_decision_task_MP_exp2,2020.2.8,Win32,60,z,1,0.94168,,,,,,,,0.94168,1,,,,,,399,NW,"ID",16,fouret,FOURET,z,,,,,,0.012962976,-0.060185194,0,0,0,,0,394,394,338,1,
,,,,,,,,,,,,,,,,,,5f68fe45f544c70bb0f525e6,2020-12-01_16h20.56.776,lexical_decision_task_MP_exp2,2020.2.8,Win32,60,z,1,0.73902,,,,,,,,0.73902,1,,,,,,472,NW,UN,33,gorbie,CIGNEY,z,,,,,,0.012962976,-0.060185194,0,0,0,,0,395,395,411,1,
