counterbalancing_condition,instr_done_keyboard.keys,instr_done_keyboard.rt,instr_done_touch.x,instr_done_touch.y,instr_done_touch.leftButton,instr_done_touch.midButton,instr_done_touch.rightButton,instruction_pages.thisRepN,instruction_pages.thisTrialN,instruction_pages.thisN,instruction_pages.thisIndex,instruction_pages.ran,pageN,phase,instruct_text,has_image,instruct_image,participant,date,expName,psychopyVersion,OS,frameRate,instr_done_touch.clicked_name,response.keys,response.corr,touch_resp.x,touch_resp.y,touch_resp.leftButton,touch_resp.midButton,touch_resp.rightButton,touch_resp.time,touch_resp.clicked_name,rt,corr,practice_trials.thisRepN,practice_trials.thisTrialN,practice_trials.thisN,practice_trials.thisIndex,practice_trials.ran,TrialID,StimulusType,Condition,PrimeDuration,Prime,Target,corrAns,response.rt,end_of_practice_trials_pages.thisRepN,end_of_practice_trials_pages.thisTrialN,end_of_practice_trials_pages.thisN,end_of_practice_trials_pages.thisIndex,end_of_practice_trials_pages.ran,break_done_touch.x,break_done_touch.y,break_done_touch.leftButton,break_done_touch.midButton,break_done_touch.rightButton,break_done_keyboard.keys,experiment_trials.thisRepN,experiment_trials.thisTrialN,experiment_trials.thisN,experiment_trials.thisIndex,experiment_trials.ran,break_done_keyboard.rt
3,space,23.663,0.021296296,-0.110185185,0,0,0,0,0,0,0,1,1,instructions,"INSTRUCTIONS
At the start of each trial, look at the hash marks (######) in the center of the screen. After a moment, a string of letters will appear. Your task is to indicate if the letter string forms a word or not (i.e., if it is a nonword). For example, AUTHOR is a word while AUTHON is a nonword.

Press the space bar or touch the button below to continue.",0,,5f85bd6e80e28b067e4e7f6d,2020-12-01_11h25.58.707,lexical_decision_task_MP_exp2,2020.2.8,Win32,60,,,,,,,,,,,,,,,,,,,,,,,,,,,,,,,,,,,,,,,,,,
,,,0.025,-0.40462963,1,0,0,0,1,1,1,1,2,instructions,"If your device has a keyboard, press the 'Z' key for nonwords and the 'M' key for words.





Press the space bar or touch the button below to continue.",1,keyboard-example.gif,5f85bd6e80e28b067e4e7f6d,2020-12-01_11h25.58.707,lexical_decision_task_MP_exp2,2020.2.8,Win32,60,instr_done_button,,,,,,,,,,,,,,,,,,,,,,,,,,,,,,,,,,,,,,,,,
,space,15.576,0.597222222,0.193518519,0,0,0,0,2,2,2,1,3,instructions,"If you are using a touchscreen only device, use the buttons on the screen. Do not use the mouse.





Press the space bar or touch the button below to continue.",1,touchscreen-example.gif,5f85bd6e80e28b067e4e7f6d,2020-12-01_11h25.58.707,lexical_decision_task_MP_exp2,2020.2.8,Win32,60,,,,,,,,,,,,,,,,,,,,,,,,,,,,,,,,,,,,,,,,,,
,space,5.204,0.597222222,0.193518519,0,0,0,0,3,3,3,1,4,instructions,"It is very important that you respond as quickly and accurately as possible, as each letter string will only be on the screen for two seconds. If you do not respond within this time, the message 'Too slow!' will be displayed and the experiment will progress to the next letter string. The first 20 trials will be practice trials and you will receive feedback on your answers. 

Press the space bar or touch the button below to start the practice trials.",0,,5f85bd6e80e28b067e4e7f6d,2020-12-01_11h25.58.707,lexical_decision_task_MP_exp2,2020.2.8,Win32,60,,,,,,,,,,,,,,,,,,,,,,,,,,,,,,,,,,,,,,,,,,
,,,,,,,,,,,,,,,,,,5f85bd6e80e28b067e4e7f6d,2020-12-01_11h25.58.707,lexical_decision_task_MP_exp2,2020.2.8,Win32,60,,,0,,,,,,,,,-1,0,0,0,9,1,1010,NW,"ID",33,fariny,FARINY,z,,,,,,,,,,,,,,,,,,
,,,,,,,,,,,,,,,,,,5f85bd6e80e28b067e4e7f6d,2020-12-01_11h25.58.707,lexical_decision_task_MP_exp2,2020.2.8,Win32,60,,z,0,,,,,,,,1.035,0,0,1,1,6,1,1007,WORD,UN,16,tropic,ZOMBIE,m,1.035,,,,,,,,,,,,,,,,,
,,,,,,,,,,,,,,,,,,5f85bd6e80e28b067e4e7f6d,2020-12-01_11h25.58.707,lexical_decision_task_MP_exp2,2020.2.8,Win32,60,,z,1,,,,,,,,1.824,1,0,2,2,10,1,1011,NW,"ID",16,inlade,INLADE,z,1.824,,,,,,,,,,,,,,,,,
,,,,,,,,,,,,,,,,,,5f85bd6e80e28b067e4e7f6d,2020-12-01_11h25.58.707,lexical_decision_task_MP_exp2,2020.2.8,Win32,60,,m,1,,,,,,,,1.005,1,0,3,3,5,1,1006,WORD,UN,33,frenzy,OBTAIN,m,1.005,,,,,,,,,,,,,,,,,
,,,,,,,,,,,,,,,,,,5f85bd6e80e28b067e4e7f6d,2020-12-01_11h25.58.707,lexical_decision_task_MP_exp2,2020.2.8,Win32,60,,z,1,,,,,,,,1.433,1,0,4,4,11,1,1012,NW,"ID",16,rashet,RASHET,z,1.433,,,,,,,,,,,,,,,,,
,,,,,,,,,,,,,,,,,,5f85bd6e80e28b067e4e7f6d,2020-12-01_11h25.58.707,lexical_decision_task_MP_exp2,2020.2.8,Win32,60,,m,1,,,,,,,,0.891,1,0,5,5,2,1,1003,WORD,"ID",16,almond,ALMOND,m,0.891,,,,,,,,,,,,,,,,,
,,,,,,,,,,,,,,,,,,5f85bd6e80e28b067e4e7f6d,2020-12-01_11h25.58.707,lexical_decision_task_MP_exp2,2020.2.8,Win32,60,,m,1,,,,,,,,1.137,1,0,6,6,7,1,1008,WORD,UN,16,hurdle,VOLUME,m,1.137,,,,,,,,,,,,,,,,,
,,,,,,,,,,,,,,,,,,5f85bd6e80e28b067e4e7f6d,2020-12-01_11h25.58.707,lexical_decision_task_MP_exp2,2020.2.8,Win32,60,,m,1,,,,,,,,0.887,1,0,7,7,3,1,1004,WORD,"ID",16,matrix,MATRIX,m,0.887,,,,,,,,,,,,,,,,,
,,,,,,,,,,,,,,,,,,5f85bd6e80e28b067e4e7f6d,2020-12-01_11h25.58.707,lexical_decision_task_MP_exp2,2020.2.8,Win32,60,,m,1,,,,,,,,0.765,1,0,8,8,1,1,1002,WORD,"ID",33,adjust,ADJUST,m,0.765,,,,,,,,,,,,,,,,,
,,,,,,,,,,,,,,,,,,5f85bd6e80e28b067e4e7f6d,2020-12-01_11h25.58.707,lexical_decision_task_MP_exp2,2020.2.8,Win32,60,,m,1,,,,,,,,1.07,1,0,9,9,0,1,1001,WORD,"ID",33,utopia,UTOPIA,m,1.07,,,,,,,,,,,,,,,,,
,,,,,,,,,,,,,,,,,,5f85bd6e80e28b067e4e7f6d,2020-12-01_11h25.58.707,lexical_decision_task_MP_exp2,2020.2.8,Win32,60,,m,0,,,,,,,,1.073,0,0,10,10,14,1,1015,NW,UN,16,miaber,THRALE,z,1.073,,,,,,,,,,,,,,,,,
,,,,,,,,,,,,,,,,,,5f85bd6e80e28b067e4e7f6d,2020-12-01_11h25.58.707,lexical_decision_task_MP_exp2,2020.2.8,Win32,60,,m,0,,,,,,,,1.054,0,0,11,11,8,1,1009,NW,"ID",33,aslert,ASLERT,z,1.054,,,,,,,,,,,,,,,,,
,,,,,,,,,,,,,,,,,,5f85bd6e80e28b067e4e7f6d,2020-12-01_11h25.58.707,lexical_decision_task_MP_exp2,2020.2.8,Win32,60,,m,0,,,,,,,,0.954,0,0,12,12,13,1,1014,NW,UN,33,winfer,ROUPET,z,0.954,,,,,,,,,,,,,,,,,
,,,,,,,,,,,,,,,,,,5f85bd6e80e28b067e4e7f6d,2020-12-01_11h25.58.707,lexical_decision_task_MP_exp2,2020.2.8,Win32,60,,m,0,,,,,,,,1.006,0,0,13,13,12,1,1013,NW,UN,33,adveil,SPRINY,z,1.006,,,,,,,,,,,,,,,,,
,,,,,,,,,,,,,,,,,,5f85bd6e80e28b067e4e7f6d,2020-12-01_11h25.58.707,lexical_decision_task_MP_exp2,2020.2.8,Win32,60,,z,0,,,,,,,,1.002,0,0,14,14,4,1,1005,WORD,UN,33,abound,SQUEAK,m,1.002,,,,,,,,,,,,,,,,,
,,,,,,,,,,,,,,,,,,5f85bd6e80e28b067e4e7f6d,2020-12-01_11h25.58.707,lexical_decision_task_MP_exp2,2020.2.8,Win32,60,,m,0,,,,,,,,1.135,0,0,15,15,15,1,1016,NW,UN,16,mushed,WHAISE,z,1.135,,,,,,,,,,,,,,,,,
,space,8.041,0.597222222,0.193518519,0,0,0,,,,,,1,end_of_practice,"You have completed the practice trials. During the experimental trials, you will not receive feedback, but it is very important that you respond as quickly and accurately as possible. 
Before you begin, please ensure that you are in a comfortable and quiet location and will not be disturbed for about 15 minutes, as we cannot use your data if you do not complete all the trials. 
There will be opportunities to take breaks at regular intervals during the experiment. When you are ready to start the experimental trials, please press space or touch the button below.",,,5f85bd6e80e28b067e4e7f6d,2020-12-01_11h25.58.707,lexical_decision_task_MP_exp2,2020.2.8,Win32,60,,,,,,,,,,,,,,,,,,,,,,,,,,0,0,0,0,1,,,,,,,,,,,,
,,,,,,,,,,,,,,,,,,5f85bd6e80e28b067e4e7f6d,2020-12-01_11h25.58.707,lexical_decision_task_MP_exp2,2020.2.8,Win32,60,,m,0,,,,,,,,1.006,0,,,,,,303,NW,"ID",33,fiream,FIREAM,z,1.006,,,,,,0.597222222,0.193518519,0,0,0,,0,0,0,242,1,
,,,,,,,,,,,,,,,,,,5f85bd6e80e28b067e4e7f6d,2020-12-01_11h25.58.707,lexical_decision_task_MP_exp2,2020.2.8,Win32,60,,m,0,,,,,,,,0.774,0,,,,,,379,NW,"ID",16,auting,AUTING,z,0.774,,,,,,0.597222222,0.193518519,0,0,0,,0,1,1,318,1,
,,,,,,,,,,,,,,,,,,5f85bd6e80e28b067e4e7f6d,2020-12-01_11h25.58.707,lexical_decision_task_MP_exp2,2020.2.8,Win32,60,,z,1,,,,,,,,0.688,1,,,,,,428,NW,UN,33,funtle,TANDLY,z,0.688,,,,,,0.597222222,0.193518519,0,0,0,,0,2,2,367,1,
,,,,,,,,,,,,,,,,,,5f85bd6e80e28b067e4e7f6d,2020-12-01_11h25.58.707,lexical_decision_task_MP_exp2,2020.2.8,Win32,60,,m,0,,,,,,,,0.475,0,,,,,,413,NW,"ID",16,equats,EQUATS,z,0.475,,,,,,0.597222222,0.193518519,0,0,0,,0,3,3,352,1,
,,,,,,,,,,,,,,,,,,5f85bd6e80e28b067e4e7f6d,2020-12-01_11h25.58.707,lexical_decision_task_MP_exp2,2020.2.8,Win32,60,,m,0,,,,,,,,0.755,0,,,,,,372,NW,"ID",16,ramily,RAMILY,z,0.755,,,,,,0.597222222,0.193518519,0,0,0,,0,4,4,311,1,
,,,,,,,,,,,,,,,,,,5f85bd6e80e28b067e4e7f6d,2020-12-01_11h25.58.707,lexical_decision_task_MP_exp2,2020.2.8,Win32,60,,m,1,,,,,,,,0.794,1,,,,,,103,WORD,"ID",33,bounce,BOUNCE,m,0.794,,,,,,0.597222222,0.193518519,0,0,0,,0,5,5,42,1,
,,,,,,,,,,,,,,,,,,5f85bd6e80e28b067e4e7f6d,2020-12-01_11h25.58.707,lexical_decision_task_MP_exp2,2020.2.8,Win32,60,,m,0,,,,,,,,0.801,0,,,,,,385,NW,"ID",16,veigma,VEIGMA,z,0.801,,,,,,0.597222222,0.193518519,0,0,0,,0,6,6,324,1,
,,,,,,,,,,,,,,,,,,5f85bd6e80e28b067e4e7f6d,2020-12-01_11h25.58.707,lexical_decision_task_MP_exp2,2020.2.8,Win32,60,,z,0,,,,,,,,0.888,0,,,,,,8,WORD,UN,16,hustle,ABRUPT,m,0.888,,,,,,0.597222222,0.193518519,0,0,0,,0,7,7,187,1,
,,,,,,,,,,,,,,,,,,5f85bd6e80e28b067e4e7f6d,2020-12-01_11h25.58.707,lexical_decision_task_MP_exp2,2020.2.8,Win32,60,,m,1,,,,,,,,0.828,1,,,,,,29,WORD,UN,16,orient,SKETCH,m,0.828,,,,,,0.597222222,0.193518519,0,0,0,,0,8,8,208,1,
,,,,,,,,,,,,,,,,,,5f85bd6e80e28b067e4e7f6d,2020-12-01_11h25.58.707,lexical_decision_task_MP_exp2,2020.2.8,Win32,60,,m,1,,,,,,,,0.865,1,,,,,,224,WORD,UN,33,vulgar,PERIOD,m,0.865,,,,,,0.597222222,0.193518519,0,0,0,,0,9,9,163,1,
,,,,,,,,,,,,,,,,,,5f85bd6e80e28b067e4e7f6d,2020-12-01_11h25.58.707,lexical_decision_task_MP_exp2,2020.2.8,Win32,60,,m,0,,,,,,,,0.882,0,,,,,,408,NW,"ID",16,hurnia,HURNIA,z,0.882,,,,,,0.597222222,0.193518519,0,0,0,,0,10,10,347,1,
,,,,,,,,,,,,,,,,,,5f85bd6e80e28b067e4e7f6d,2020-12-01_11h25.58.707,lexical_decision_task_MP_exp2,2020.2.8,Win32,60,,z,1,,,,,,,,0.815,1,,,,,,400,NW,"ID",16,wearox,WEAROX,z,0.815,,,,,,0.597222222,0.193518519,0,0,0,,0,11,11,339,1,
,,,,,,,,,,,,,,,,,,5f85bd6e80e28b067e4e7f6d,2020-12-01_11h25.58.707,lexical_decision_task_MP_exp2,2020.2.8,Win32,60,,m,0,,,,,,,,0.817,0,,,,,,353,NW,"ID",33,clurey,CLUREY,z,0.817,,,,,,0.597222222,0.193518519,0,0,0,,0,12,12,292,1,
,,,,,,,,,,,,,,,,,,5f85bd6e80e28b067e4e7f6d,2020-12-01_11h25.58.707,lexical_decision_task_MP_exp2,2020.2.8,Win32,60,,m,1,,,,,,,,1.077,1,,,,,,168,WORD,"ID",16,answer,ANSWER,m,1.077,,,,,,0.597222222,0.193518519,0,0,0,,0,13,13,107,1,
,,,,,,,,,,,,,,,,,,5f85bd6e80e28b067e4e7f6d,2020-12-01_11h25.58.707,lexical_decision_task_MP_exp2,2020.2.8,Win32,60,,m,1,,,,,,,,0.817,1,,,,,,215,WORD,UN,33,lumber,PHOBIA,m,0.817,,,,,,0.597222222,0.193518519,0,0,0,,0,14,14,154,1,
,,,,,,,,,,,,,,,,,,5f85bd6e80e28b067e4e7f6d,2020-12-01_11h25.58.707,lexical_decision_task_MP_exp2,2020.2.8,Win32,60,,z,1,,,,,,,,0.88,1,,,,,,440,NW,UN,33,rastoe,SARIDE,z,0.88,,,,,,0.597222222,0.193518519,0,0,0,,0,15,15,379,1,
,,,,,,,,,,,,,,,,,,5f85bd6e80e28b067e4e7f6d,2020-12-01_11h25.58.707,lexical_decision_task_MP_exp2,2020.2.8,Win32,60,,m,1,,,,,,,,0.662,1,,,,,,53,WORD,UN,16,ramble,POLICE,m,0.662,,,,,,0.597222222,0.193518519,0,0,0,,0,16,16,232,1,
,,,,,,,,,,,,,,,,,,5f85bd6e80e28b067e4e7f6d,2020-12-01_11h25.58.707,lexical_decision_task_MP_exp2,2020.2.8,Win32,60,,m,0,,,,,,,,0.82,0,,,,,,414,NW,"ID",16,serbol,SERBOL,z,0.82,,,,,,0.597222222,0.193518519,0,0,0,,0,17,17,353,1,
,,,,,,,,,,,,,,,,,,5f85bd6e80e28b067e4e7f6d,2020-12-01_11h25.58.707,lexical_decision_task_MP_exp2,2020.2.8,Win32,60,,m,1,,,,,,,,0.776,1,,,,,,190,WORD,UN,33,stable,BACKUP,m,0.776,,,,,,0.597222222,0.193518519,0,0,0,,0,18,18,129,1,
,,,,,,,,,,,,,,,,,,5f85bd6e80e28b067e4e7f6d,2020-12-01_11h25.58.707,lexical_decision_task_MP_exp2,2020.2.8,Win32,60,,z,0,,,,,,,,0.695,0,,,,,,16,WORD,UN,16,charge,FAUCET,m,0.695,,,,,,0.597222222,0.193518519,0,0,0,,0,19,19,195,1,
,,,,,,,,,,,,,,,,,,5f85bd6e80e28b067e4e7f6d,2020-12-01_11h25.58.707,lexical_decision_task_MP_exp2,2020.2.8,Win32,60,,z,0,,,,,,,,0.842,0,,,,,,108,WORD,"ID",33,reckon,RECKON,m,0.842,,,,,,0.597222222,0.193518519,0,0,0,,0,20,20,47,1,
,,,,,,,,,,,,,,,,,,5f85bd6e80e28b067e4e7f6d,2020-12-01_11h25.58.707,lexical_decision_task_MP_exp2,2020.2.8,Win32,60,,m,0,,,,,,,,1.022,0,,,,,,452,NW,UN,33,bolvis,SURDEN,z,1.022,,,,,,0.597222222,0.193518519,0,0,0,,0,21,21,391,1,
,,,,,,,,,,,,,,,,,,5f85bd6e80e28b067e4e7f6d,2020-12-01_11h25.58.707,lexical_decision_task_MP_exp2,2020.2.8,Win32,60,,m,0,,,,,,,,0.71,0,,,,,,285,NW,UN,16,reldon,PRUDGE,z,0.71,,,,,,0.597222222,0.193518519,0,0,0,,0,22,22,464,1,
,,,,,,,,,,,,,,,,,,5f85bd6e80e28b067e4e7f6d,2020-12-01_11h25.58.707,lexical_decision_task_MP_exp2,2020.2.8,Win32,60,,z,1,,,,,,,,0.605,1,,,,,,278,NW,UN,16,celond,UNIGHS,z,0.605,,,,,,0.597222222,0.193518519,0,0,0,,0,23,23,457,1,
,,,,,,,,,,,,,,,,,,5f85bd6e80e28b067e4e7f6d,2020-12-01_11h25.58.707,lexical_decision_task_MP_exp2,2020.2.8,Win32,60,,m,0,,,,,,,,0.705,0,,,,,,479,NW,UN,33,crible,LOBUSH,z,0.705,,,,,,0.597222222,0.193518519,0,0,0,,0,24,24,418,1,
,,,,,,,,,,,,,,,,,,5f85bd6e80e28b067e4e7f6d,2020-12-01_11h25.58.707,lexical_decision_task_MP_exp2,2020.2.8,Win32,60,,,0,,,,,,,,0.705,-1,,,,,,119,WORD,"ID",33,spider,SPIDER,m,,,,,,,0.849074074,-0.378703704,0,0,0,,0,25,25,58,1,
,,,,,,,,,,,,,,,,,,5f85bd6e80e28b067e4e7f6d,2020-12-01_11h25.58.707,lexical_decision_task_MP_exp2,2020.2.8,Win32,60,,,0,,,,,,,,0.705,-1,,,,,,270,NW,UN,16,aubrid,WRIMSY,z,,,,,,,0.443518519,-0.001851852,0,0,0,,0,26,26,449,1,
,,,,,,,,,,,,,,,,,,5f85bd6e80e28b067e4e7f6d,2020-12-01_11h25.58.707,lexical_decision_task_MP_exp2,2020.2.8,Win32,60,,,0,,,,,,,,0.705,-1,,,,,,331,NW,"ID",33,gilfew,GILFEW,z,,,,,,,0.169444444,-0.001851852,0,0,0,,0,27,27,270,1,
,,,,,,,,,,,,,,,,,,5f85bd6e80e28b067e4e7f6d,2020-12-01_11h25.58.707,lexical_decision_task_MP_exp2,2020.2.8,Win32,60,,m,1,,,,,,,,0.856,1,,,,,,27,WORD,UN,16,comedy,SCREAM,m,0.856,,,,,,0.169444444,-0.001851852,0,0,0,,0,28,28,206,1,
,,,,,,,,,,,,,,,,,,5f85bd6e80e28b067e4e7f6d,2020-12-01_11h25.58.707,lexical_decision_task_MP_exp2,2020.2.8,Win32,60,,,0,,,,,,,,0.856,-1,,,,,,123,WORD,"ID",16,strike,STRIKE,m,,,,,,,0.169444444,-0.001851852,0,0,0,,0,29,29,62,1,
,,,,,,,,,,,,,,,,,,5f85bd6e80e28b067e4e7f6d,2020-12-01_11h25.58.707,lexical_decision_task_MP_exp2,2020.2.8,Win32,60,,m,0,,,,,,,,0.498,0,,,,,,325,NW,"ID",33,thruse,THRUSE,z,0.498,,,,,,0.169444444,-0.001851852,0,0,0,,0,30,30,264,1,
,,,,,,,,,,,,,,,,,,5f85bd6e80e28b067e4e7f6d,2020-12-01_11h25.58.707,lexical_decision_task_MP_exp2,2020.2.8,Win32,60,,z,0,,,,,,,,0.45,0,,,,,,139,WORD,"ID",16,debris,DEBRIS,m,0.45,,,,,,0.169444444,-0.001851852,0,0,0,,0,31,31,78,1,
,,,,,,,,,,,,,,,,,,5f85bd6e80e28b067e4e7f6d,2020-12-01_11h25.58.707,lexical_decision_task_MP_exp2,2020.2.8,Win32,60,,m,1,,,,,,,,0.337,1,,,,,,230,WORD,UN,33,mother,FRINGE,m,0.337,,,,,,0.169444444,-0.001851852,0,0,0,,0,32,32,169,1,
,,,,,,,,,,,,,,,,,,5f85bd6e80e28b067e4e7f6d,2020-12-01_11h25.58.707,lexical_decision_task_MP_exp2,2020.2.8,Win32,60,,z,1,,,,,,,,0.533,1,,,,,,430,NW,UN,33,chrums,CAROEY,z,0.533,,,,,,0.169444444,-0.001851852,0,0,0,,0,33,33,369,1,
,,,,,,,,,,,,,,,,,,5f85bd6e80e28b067e4e7f6d,2020-12-01_11h25.58.707,lexical_decision_task_MP_exp2,2020.2.8,Win32,60,,m,0,,,,,,,,0.459,0,,,,,,433,NW,UN,33,pitrom,DRANCE,z,0.459,,,,,,0.169444444,-0.001851852,0,0,0,,0,34,34,372,1,
,,,,,,,,,,,,,,,,,,5f85bd6e80e28b067e4e7f6d,2020-12-01_11h25.58.707,lexical_decision_task_MP_exp2,2020.2.8,Win32,60,,m,1,,,,,,,,0.681,1,,,,,,138,WORD,"ID",16,melody,MELODY,m,0.681,,,,,,0.169444444,-0.001851852,0,0,0,,0,35,35,77,1,
,,,,,,,,,,,,,,,,,,5f85bd6e80e28b067e4e7f6d,2020-12-01_11h25.58.707,lexical_decision_task_MP_exp2,2020.2.8,Win32,60,,m,1,,,,,,,,0.741,1,,,,,,126,WORD,"ID",16,enough,ENOUGH,m,0.741,,,,,,0.169444444,-0.001851852,0,0,0,,0,36,36,65,1,
,,,,,,,,,,,,,,,,,,5f85bd6e80e28b067e4e7f6d,2020-12-01_11h25.58.707,lexical_decision_task_MP_exp2,2020.2.8,Win32,60,,m,1,,,,,,,,0.643,1,,,,,,90,WORD,"ID",33,relish,RELISH,m,0.643,,,,,,0.169444444,-0.001851852,0,0,0,,0,37,37,29,1,
,,,,,,,,,,,,,,,,,,5f85bd6e80e28b067e4e7f6d,2020-12-01_11h25.58.707,lexical_decision_task_MP_exp2,2020.2.8,Win32,60,,z,1,,,,,,,,0.541,1,,,,,,438,NW,UN,33,limpor,BAITCH,z,0.541,,,,,,0.169444444,-0.001851852,0,0,0,,0,38,38,377,1,
,,,,,,,,,,,,,,,,,,5f85bd6e80e28b067e4e7f6d,2020-12-01_11h25.58.707,lexical_decision_task_MP_exp2,2020.2.8,Win32,60,,m,0,,,,,,,,0.634,0,,,,,,271,NW,UN,16,damilt,AUBRID,z,0.634,,,,,,0.169444444,-0.001851852,0,0,0,,0,39,39,450,1,
,,,,,,,,,,,,,,,,,,5f85bd6e80e28b067e4e7f6d,2020-12-01_11h25.58.707,lexical_decision_task_MP_exp2,2020.2.8,Win32,60,,m,1,,,,,,,,0.67,1,,,,,,197,WORD,UN,33,wicked,STREAM,m,0.67,,,,,,0.169444444,-0.001851852,0,0,0,,0,40,40,136,1,
,,,,,,,,,,,,,,,,,,5f85bd6e80e28b067e4e7f6d,2020-12-01_11h25.58.707,lexical_decision_task_MP_exp2,2020.2.8,Win32,60,,z,1,,,,,,,,0.74,1,,,,,,426,NW,UN,33,schind,URIVEL,z,0.74,,,,,,0.169444444,-0.001851852,0,0,0,,0,41,41,365,1,
,,,,,,,,,,,,,,,,,,5f85bd6e80e28b067e4e7f6d,2020-12-01_11h25.58.707,lexical_decision_task_MP_exp2,2020.2.8,Win32,60,,z,1,,,,,,,,0.856,1,,,,,,256,NW,UN,16,veniod,INLORS,z,0.856,,,,,,0.169444444,-0.001851852,0,0,0,,0,42,42,435,1,
,,,,,,,,,,,,,,,,,,5f85bd6e80e28b067e4e7f6d,2020-12-01_11h25.58.707,lexical_decision_task_MP_exp2,2020.2.8,Win32,60,,m,0,,,,,,,,0.694,0,,,,,,398,NW,"ID",16,blunde,BLUNDE,z,0.694,,,,,,0.169444444,-0.001851852,0,0,0,,0,43,43,337,1,
,,,,,,,,,,,,,,,,,,5f85bd6e80e28b067e4e7f6d,2020-12-01_11h25.58.707,lexical_decision_task_MP_exp2,2020.2.8,Win32,60,,z,0,,,,,,,,0.586,0,,,,,,183,WORD,UN,33,sleazy,MILDEW,m,0.586,,,,,,0.169444444,-0.001851852,0,0,0,,0,44,44,122,1,
,,,,,,,,,,,,,,,,,,5f85bd6e80e28b067e4e7f6d,2020-12-01_11h25.58.707,lexical_decision_task_MP_exp2,2020.2.8,Win32,60,,m,0,,,,,,,,0.591,0,,,,,,448,NW,UN,33,brunge,SADENT,z,0.591,,,,,,0.169444444,-0.001851852,0,0,0,,0,45,45,387,1,
,,,,,,,,,,,,,,,,,,5f85bd6e80e28b067e4e7f6d,2020-12-01_11h25.58.707,lexical_decision_task_MP_exp2,2020.2.8,Win32,60,,z,1,,,,,,,,0.433,1,,,,,,298,NW,UN,16,sturch,PIERGY,z,0.433,,,,,,0.169444444,-0.001851852,0,0,0,,0,46,46,477,1,
,,,,,,,,,,,,,,,,,,5f85bd6e80e28b067e4e7f6d,2020-12-01_11h25.58.707,lexical_decision_task_MP_exp2,2020.2.8,Win32,60,,m,1,,,,,,,,0.606,1,,,,,,142,WORD,"ID",16,spruce,SPRUCE,m,0.606,,,,,,0.169444444,-0.001851852,0,0,0,,0,47,47,81,1,
,,,,,,,,,,,,,,,,,,5f85bd6e80e28b067e4e7f6d,2020-12-01_11h25.58.707,lexical_decision_task_MP_exp2,2020.2.8,Win32,60,,z,1,,,,,,,,0.565,1,,,,,,475,NW,UN,33,josted,PEBRIC,z,0.565,,,,,,0.169444444,-0.001851852,0,0,0,,0,48,48,414,1,
,,,,,,,,,,,,,,,,,,5f85bd6e80e28b067e4e7f6d,2020-12-01_11h25.58.707,lexical_decision_task_MP_exp2,2020.2.8,Win32,60,,z,0,,,,,,,,0.581,0,,,,,,57,WORD,UN,16,danger,CHANGE,m,0.581,,,,,,0.169444444,-0.001851852,0,0,0,,0,49,49,236,1,
,,,,,,,,,,,,,,,,,,5f85bd6e80e28b067e4e7f6d,2020-12-01_11h25.58.707,lexical_decision_task_MP_exp2,2020.2.8,Win32,60,,z,1,,,,,,,,0.896,1,,,,,,431,NW,UN,33,lunker,CHRUMS,z,0.896,,,,,,0.169444444,-0.001851852,0,0,0,,0,50,50,370,1,
,,,,,,,,,,,,,,,,,,5f85bd6e80e28b067e4e7f6d,2020-12-01_11h25.58.707,lexical_decision_task_MP_exp2,2020.2.8,Win32,60,,m,1,,,,,,,,0.637,1,,,,,,94,WORD,"ID",33,travel,TRAVEL,m,0.637,,,,,,0.169444444,-0.001851852,0,0,0,,0,51,51,33,1,
,,,,,,,,,,,,,,,,,,5f85bd6e80e28b067e4e7f6d,2020-12-01_11h25.58.707,lexical_decision_task_MP_exp2,2020.2.8,Win32,60,,m,1,,,,,,,,0.823,1,,,,,,185,WORD,UN,33,portal,BOTHER,m,0.823,,,,,,0.169444444,-0.001851852,0,0,0,,0,52,52,124,1,
,,,,,,,,,,,,,,,,,,5f85bd6e80e28b067e4e7f6d,2020-12-01_11h25.58.707,lexical_decision_task_MP_exp2,2020.2.8,Win32,60,,m,0,,,,,,,,0.839,0,,,,,,382,NW,"ID",16,sarley,SARLEY,z,0.839,,,,,,0.169444444,-0.001851852,0,0,0,,0,53,53,321,1,
,,,,,,,,,,,,,,,,,,5f85bd6e80e28b067e4e7f6d,2020-12-01_11h25.58.707,lexical_decision_task_MP_exp2,2020.2.8,Win32,60,,z,1,,,,,,,,0.715,1,,,,,,406,NW,"ID",16,nouply,NOUPLY,z,0.715,,,,,,0.169444444,-0.001851852,0,0,0,,0,54,54,345,1,
,,,,,,,,,,,,,,,,,,5f85bd6e80e28b067e4e7f6d,2020-12-01_11h25.58.707,lexical_decision_task_MP_exp2,2020.2.8,Win32,60,,m,0,,,,,,,,0.804,0,,,,,,435,NW,UN,33,frutan,IMPURB,z,0.804,,,,,,0.169444444,-0.001851852,0,0,0,,0,55,55,374,1,
,,,,,,,,,,,,,,,,,,5f85bd6e80e28b067e4e7f6d,2020-12-01_11h25.58.707,lexical_decision_task_MP_exp2,2020.2.8,Win32,60,,z,1,,,,,,,,0.768,1,,,,,,356,NW,"ID",33,othnis,OTHNIS,z,0.768,,,,,,0.169444444,-0.001851852,0,0,0,,0,56,56,295,1,
,,,,,,,,,,,,,,,,,,5f85bd6e80e28b067e4e7f6d,2020-12-01_11h25.58.707,lexical_decision_task_MP_exp2,2020.2.8,Win32,60,,m,1,,,,,,,,0.776,1,,,,,,60,WORD,UN,16,fright,PENCIL,m,0.776,,,,,,0.169444444,-0.001851852,0,0,0,,0,57,57,239,1,
,,,,,,,,,,,,,,,,,,5f85bd6e80e28b067e4e7f6d,2020-12-01_11h25.58.707,lexical_decision_task_MP_exp2,2020.2.8,Win32,60,,z,1,,,,,,,,1.035,1,,,,,,332,NW,"ID",33,vangue,VANGUE,z,1.035,,,,,,0.169444444,-0.001851852,0,0,0,,0,58,58,271,1,
,,,,,,,,,,,,,,,,,,5f85bd6e80e28b067e4e7f6d,2020-12-01_11h25.58.707,lexical_decision_task_MP_exp2,2020.2.8,Win32,60,,z,1,,,,,,,,0.887,1,,,,,,264,NW,UN,16,distar,VACKEL,z,0.887,,,,,,0.169444444,-0.001851852,0,0,0,,0,59,59,443,1,
,,,,,,,,,,,,,,,,,,5f85bd6e80e28b067e4e7f6d,2020-12-01_11h25.58.707,lexical_decision_task_MP_exp2,2020.2.8,Win32,60,,z,1,,,,,,,,0.762,1,,,,,,470,NW,UN,33,nobest,CRUDIO,z,0.762,,,,,,0.169444444,-0.001851852,0,0,0,,0,60,60,409,1,
,,,,,,,,,,,,,,,,,,5f85bd6e80e28b067e4e7f6d,2020-12-01_11h25.58.707,lexical_decision_task_MP_exp2,2020.2.8,Win32,60,,m,0,,,,,,,,0.659,0,,,,,,456,NW,UN,33,wanigh,BROGET,z,0.659,,,,,,0.169444444,-0.001851852,0,0,0,,0,61,61,395,1,
,,,,,,,,,,,,,,,,,,5f85bd6e80e28b067e4e7f6d,2020-12-01_11h25.58.707,lexical_decision_task_MP_exp2,2020.2.8,Win32,60,,m,1,,,,,,,,0.664,1,,,,,,1,WORD,UN,16,ethnic,FRIGHT,m,0.664,,,,,,0.169444444,-0.001851852,0,0,0,,0,62,62,180,1,
,,,,,,,,,,,,,,,,,,5f85bd6e80e28b067e4e7f6d,2020-12-01_11h25.58.707,lexical_decision_task_MP_exp2,2020.2.8,Win32,60,,z,0,,,,,,,,0.766,0,,,,,,129,WORD,"ID",16,marvel,MARVEL,m,0.766,,,,,,0.169444444,-0.001851852,0,0,0,,0,63,63,68,1,
,,,,,,,,,,,,,,,,,,5f85bd6e80e28b067e4e7f6d,2020-12-01_11h25.58.707,lexical_decision_task_MP_exp2,2020.2.8,Win32,60,,z,1,,,,,,,,0.863,1,,,,,,300,NW,UN,16,smenco,YARION,z,0.863,,,,,,0.169444444,-0.001851852,0,0,0,,0,64,64,479,1,
,,,,,,,,,,,,,,,,,,5f85bd6e80e28b067e4e7f6d,2020-12-01_11h25.58.707,lexical_decision_task_MP_exp2,2020.2.8,Win32,60,,m,1,,,,,,,,0.704,1,,,,,,226,WORD,UN,33,flower,CASINO,m,0.704,,,,,,0.169444444,-0.001851852,0,0,0,,0,65,65,165,1,
,,,,,,,,,,,,,,,,,,5f85bd6e80e28b067e4e7f6d,2020-12-01_11h25.58.707,lexical_decision_task_MP_exp2,2020.2.8,Win32,60,,m,1,,,,,,,,0.69,1,,,,,,91,WORD,"ID",33,expand,EXPAND,m,0.69,,,,,,0.169444444,-0.001851852,0,0,0,,0,66,66,30,1,
,,,,,,,,,,,,,,,,,,5f85bd6e80e28b067e4e7f6d,2020-12-01_11h25.58.707,lexical_decision_task_MP_exp2,2020.2.8,Win32,60,,z,0,,,,,,,,0.781,0,,,,,,171,WORD,"ID",16,depart,DEPART,m,0.781,,,,,,0.169444444,-0.001851852,0,0,0,,0,67,67,110,1,
,,,,,,,,,,,,,,,,,,5f85bd6e80e28b067e4e7f6d,2020-12-01_11h25.58.707,lexical_decision_task_MP_exp2,2020.2.8,Win32,60,,m,1,,,,,,,,0.786,1,,,,,,5,WORD,UN,16,bundle,PLUNGE,m,0.786,,,,,,0.169444444,-0.001851852,0,0,0,,0,68,68,184,1,
,,,,,,,,,,,,,,,,,,5f85bd6e80e28b067e4e7f6d,2020-12-01_11h25.58.707,lexical_decision_task_MP_exp2,2020.2.8,Win32,60,,m,1,,,,,,,,0.759,1,,,,,,49,WORD,UN,16,snatch,SURVEY,m,0.759,,,,,,0.169444444,-0.001851852,0,0,0,,0,69,69,228,1,
,,,,,,,,,,,,,,,,,,5f85bd6e80e28b067e4e7f6d,2020-12-01_11h25.58.707,lexical_decision_task_MP_exp2,2020.2.8,Win32,60,,z,1,,,,,,,,0.786,1,,,,,,287,NW,UN,16,yaceup,NYMBEL,z,0.786,,,,,,0.169444444,-0.001851852,0,0,0,,0,70,70,466,1,
,,,,,,,,,,,,,,,,,,5f85bd6e80e28b067e4e7f6d,2020-12-01_11h25.58.707,lexical_decision_task_MP_exp2,2020.2.8,Win32,60,,m,1,,,,,,,,0.783,1,,,,,,199,WORD,UN,33,plague,INVOKE,m,0.783,,,,,,0.169444444,-0.001851852,0,0,0,,0,71,71,138,1,
,,,,,,,,,,,,,,,,,,5f85bd6e80e28b067e4e7f6d,2020-12-01_11h25.58.707,lexical_decision_task_MP_exp2,2020.2.8,Win32,60,,z,0,,,,,,,,0.659,0,,,,,,192,WORD,UN,33,object,PLAGUE,m,0.659,,,,,,0.169444444,-0.001851852,0,0,0,,0,72,72,131,1,
,,,,,,,,,,,,,,,,,,5f85bd6e80e28b067e4e7f6d,2020-12-01_11h25.58.707,lexical_decision_task_MP_exp2,2020.2.8,Win32,60,,m,0,,,,,,,,0.695,0,,,,,,323,NW,"ID",33,rosail,ROSAIL,z,0.695,,,,,,0.169444444,-0.001851852,0,0,0,,0,73,73,262,1,
,,,,,,,,,,,,,,,,,,5f85bd6e80e28b067e4e7f6d,2020-12-01_11h25.58.707,lexical_decision_task_MP_exp2,2020.2.8,Win32,60,,m,1,,,,,,,,0.833,1,,,,,,42,WORD,UN,16,tongue,CHAPEL,m,0.833,,,,,,0.169444444,-0.001851852,0,0,0,,0,74,74,221,1,
,,,,,,,,,,,,,,,,,,5f85bd6e80e28b067e4e7f6d,2020-12-01_11h25.58.707,lexical_decision_task_MP_exp2,2020.2.8,Win32,60,,z,0,,,,,,,,0.713,0,,,,,,206,WORD,UN,33,wreath,TAILOR,m,0.713,,,,,,0.169444444,-0.001851852,0,0,0,,0,75,75,145,1,
,,,,,,,,,,,,,,,,,,5f85bd6e80e28b067e4e7f6d,2020-12-01_11h25.58.707,lexical_decision_task_MP_exp2,2020.2.8,Win32,60,,m,1,,,,,,,,0.832,1,,,,,,195,WORD,UN,33,credit,RESIGN,m,0.832,,,,,,0.169444444,-0.001851852,0,0,0,,0,76,76,134,1,
,,,,,,,,,,,,,,,,,,5f85bd6e80e28b067e4e7f6d,2020-12-01_11h25.58.707,lexical_decision_task_MP_exp2,2020.2.8,Win32,60,,m,0,,,,,,,,0.932,0,,,,,,390,NW,"ID",16,hatrus,HATRUS,z,0.932,,,,,,0.169444444,-0.001851852,0,0,0,,0,77,77,329,1,
,,,,,,,,,,,,,,,,,,5f85bd6e80e28b067e4e7f6d,2020-12-01_11h25.58.707,lexical_decision_task_MP_exp2,2020.2.8,Win32,60,,z,1,,,,,,,,0.745,1,,,,,,311,NW,"ID",33,sproly,SPROLY,z,0.745,,,,,,0.169444444,-0.001851852,0,0,0,,0,78,78,250,1,
,,,,,,,,,,,,,,,,,,5f85bd6e80e28b067e4e7f6d,2020-12-01_11h25.58.707,lexical_decision_task_MP_exp2,2020.2.8,Win32,60,,m,1,,,,,,,,0.796,1,,,,,,157,WORD,"ID",16,dragon,DRAGON,m,0.796,,,,,,0.169444444,-0.001851852,0,0,0,,0,79,79,96,1,
,,,,,,,,,,,,,,,,,,5f85bd6e80e28b067e4e7f6d,2020-12-01_11h25.58.707,lexical_decision_task_MP_exp2,2020.2.8,Win32,60,,m,1,,,,,,,,0.718,1,,,,,,43,WORD,UN,16,foster,TONGUE,m,0.718,,,,,,0.169444444,-0.001851852,0,0,0,,0,80,80,222,1,
,,,,,,,,,,,,,,,,,,5f85bd6e80e28b067e4e7f6d,2020-12-01_11h25.58.707,lexical_decision_task_MP_exp2,2020.2.8,Win32,60,,m,0,,,,,,,,0.81,0,,,,,,302,NW,"ID",33,miluer,MILUER,z,0.81,,,,,,0.169444444,-0.001851852,0,0,0,,0,81,81,241,1,
,,,,,,,,,,,,,,,,,,5f85bd6e80e28b067e4e7f6d,2020-12-01_11h25.58.707,lexical_decision_task_MP_exp2,2020.2.8,Win32,60,,z,1,,,,,,,,0.547,1,,,,,,339,NW,"ID",33,fachow,FACHOW,z,0.547,,,,,,0.169444444,-0.001851852,0,0,0,,0,82,82,278,1,
,,,,,,,,,,,,,,,,,,5f85bd6e80e28b067e4e7f6d,2020-12-01_11h25.58.707,lexical_decision_task_MP_exp2,2020.2.8,Win32,60,,m,0,,,,,,,,1.06,0,,,,,,434,NW,UN,33,impurb,PITROM,z,1.06,,,,,,0.169444444,-0.001851852,0,0,0,,0,83,83,373,1,
,,,,,,,,,,,,,,,,,,5f85bd6e80e28b067e4e7f6d,2020-12-01_11h25.58.707,lexical_decision_task_MP_exp2,2020.2.8,Win32,60,,m,1,,,,,,,,0.693,1,,,,,,45,WORD,UN,16,single,CLERGY,m,0.693,,,,,,0.169444444,-0.001851852,0,0,0,,0,84,84,224,1,
,,,,,,,,,,,,,,,,,,5f85bd6e80e28b067e4e7f6d,2020-12-01_11h25.58.707,lexical_decision_task_MP_exp2,2020.2.8,Win32,60,,z,1,,,,,,,,0.371,1,,,,,,276,NW,UN,16,petain,YARMON,z,0.371,,,,,,0.169444444,-0.001851852,0,0,0,,0,85,85,455,1,
,,,,,,,,,,,,,,,,,,5f85bd6e80e28b067e4e7f6d,2020-12-01_11h25.58.707,lexical_decision_task_MP_exp2,2020.2.8,Win32,60,,z,0,,,,,,,,0.506,0,,,,,,81,WORD,"ID",33,friend,FRIEND,m,0.506,,,,,,0.169444444,-0.001851852,0,0,0,,0,86,86,20,1,
,,,,,,,,,,,,,,,,,,5f85bd6e80e28b067e4e7f6d,2020-12-01_11h25.58.707,lexical_decision_task_MP_exp2,2020.2.8,Win32,60,,m,0,,,,,,,,0.496,0,,,,,,386,NW,"ID",16,ancust,ANCUST,z,0.496,,,,,,0.169444444,-0.001851852,0,0,0,,0,87,87,325,1,
,,,,,,,,,,,,,,,,,,5f85bd6e80e28b067e4e7f6d,2020-12-01_11h25.58.707,lexical_decision_task_MP_exp2,2020.2.8,Win32,60,,m,1,,,,,,,,0.658,1,,,,,,210,WORD,UN,33,infect,MONKEY,m,0.658,,,,,,0.169444444,-0.001851852,0,0,0,,0,88,88,149,1,
,,,,,,,,,,,,,,,,,,5f85bd6e80e28b067e4e7f6d,2020-12-01_11h25.58.707,lexical_decision_task_MP_exp2,2020.2.8,Win32,60,,m,1,,,,,,,,0.634,1,,,,,,144,WORD,"ID",16,sponge,SPONGE,m,0.634,,,,,,0.169444444,-0.001851852,0,0,0,,0,89,89,83,1,
,,,,,,,,,,,,,,,,,,5f85bd6e80e28b067e4e7f6d,2020-12-01_11h25.58.707,lexical_decision_task_MP_exp2,2020.2.8,Win32,60,,m,0,,,,,,,,0.849,0,,,,,,474,NW,UN,33,acrise,HABLIN,z,0.849,,,,,,0.169444444,-0.001851852,0,0,0,,0,90,90,413,1,
,,,,,,,,,,,,,,,,,,5f85bd6e80e28b067e4e7f6d,2020-12-01_11h25.58.707,lexical_decision_task_MP_exp2,2020.2.8,Win32,60,,z,1,,,,,,,,0.748,1,,,,,,277,NW,UN,16,unighs,PETAIN,z,0.748,,,,,,0.169444444,-0.001851852,0,0,0,,0,91,91,456,1,
,,,,,,,,,,,,,,,,,,5f85bd6e80e28b067e4e7f6d,2020-12-01_11h25.58.707,lexical_decision_task_MP_exp2,2020.2.8,Win32,60,,m,0,,,,,,,,1.013,0,,,,,,464,NW,UN,33,whivex,CHAITE,z,1.013,,,,,,0.169444444,-0.001851852,0,0,0,,0,92,92,403,1,
,,,,,,,,,,,,,,,,,,5f85bd6e80e28b067e4e7f6d,2020-12-01_11h25.58.707,lexical_decision_task_MP_exp2,2020.2.8,Win32,60,,z,1,,,,,,,,0.81,1,,,,,,345,NW,"ID",33,absend,ABSEND,z,0.81,,,,,,0.169444444,-0.001851852,0,0,0,,0,93,93,284,1,
,,,,,,,,,,,,,,,,,,5f85bd6e80e28b067e4e7f6d,2020-12-01_11h25.58.707,lexical_decision_task_MP_exp2,2020.2.8,Win32,60,,m,0,,,,,,,,0.872,0,,,,,,320,NW,"ID",33,jockal,JOCKAL,z,0.872,,,,,,0.169444444,-0.001851852,0,0,0,,0,94,94,259,1,
,,,,,,,,,,,,,,,,,,5f85bd6e80e28b067e4e7f6d,2020-12-01_11h25.58.707,lexical_decision_task_MP_exp2,2020.2.8,Win32,60,,z,1,,,,,,,,0.869,1,,,,,,364,NW,"ID",16,impote,IMPOTE,z,0.869,,,,,,0.169444444,-0.001851852,0,0,0,,0,95,95,303,1,
,,,,,,,,,,,,,,,,,,5f85bd6e80e28b067e4e7f6d,2020-12-01_11h25.58.707,lexical_decision_task_MP_exp2,2020.2.8,Win32,60,,z,0,,,,,,,,0.637,0,,,,,,26,WORD,UN,16,butler,SPRINT,m,0.637,,,,,,0.169444444,-0.001851852,0,0,0,,0,96,96,205,1,
,,,,,,,,,,,,,,,,,,5f85bd6e80e28b067e4e7f6d,2020-12-01_11h25.58.707,lexical_decision_task_MP_exp2,2020.2.8,Win32,60,,m,0,,,,,,,,0.785,0,,,,,,423,NW,UN,33,praile,STRELD,z,0.785,,,,,,0.169444444,-0.001851852,0,0,0,,0,97,97,362,1,
,,,,,,,,,,,,,,,,,,5f85bd6e80e28b067e4e7f6d,2020-12-01_11h25.58.707,lexical_decision_task_MP_exp2,2020.2.8,Win32,60,,z,1,,,,,,,,1.105,1,,,,,,252,NW,UN,16,resait,STAPOD,z,1.105,,,,,,0.169444444,-0.001851852,0,0,0,,0,98,98,431,1,
,,,,,,,,,,,,,,,,,,5f85bd6e80e28b067e4e7f6d,2020-12-01_11h25.58.707,lexical_decision_task_MP_exp2,2020.2.8,Win32,60,,m,0,,,,,,,,0.722,0,,,,,,442,NW,UN,33,dorsex,ABOUNE,z,0.722,,,,,,0.169444444,-0.001851852,0,0,0,,0,99,99,381,1,
,,,,,,,,,,,,,,,,,,5f85bd6e80e28b067e4e7f6d,2020-12-01_11h25.58.707,lexical_decision_task_MP_exp2,2020.2.8,Win32,60,,z,1,,,,,,,,0.958,1,,,,,,471,NW,UN,33,cigney,NOBEST,z,0.958,,,,,,0.169444444,-0.001851852,0,0,0,,0,100,100,410,1,
,,,,,,,,,,,,,,,,,,5f85bd6e80e28b067e4e7f6d,2020-12-01_11h25.58.707,lexical_decision_task_MP_exp2,2020.2.8,Win32,60,,m,1,,,,,,,,0.534,1,,,,,,74,WORD,"ID",33,plaque,PLAQUE,m,0.534,,,,,,0.169444444,-0.001851852,0,0,0,,0,101,101,13,1,
,,,,,,,,,,,,,,,,,,5f85bd6e80e28b067e4e7f6d,2020-12-01_11h25.58.707,lexical_decision_task_MP_exp2,2020.2.8,Win32,60,,m,0,,,,,,,,0.614,0,,,,,,259,NW,UN,16,unject,SOUDAL,z,0.614,,,,,,0.169444444,-0.001851852,0,0,0,,0,102,102,438,1,
,,,,,,,,,,,,,,,,,,5f85bd6e80e28b067e4e7f6d,2020-12-01_11h25.58.707,lexical_decision_task_MP_exp2,2020.2.8,Win32,60,,m,1,,,,,,,,0.814,1,,,,,,4,WORD,UN,16,plunge,TRENCH,m,0.814,,,,,,0.169444444,-0.001851852,0,0,0,,0,103,103,183,1,
,,,,,,,,,,,,,,,,,,5f85bd6e80e28b067e4e7f6d,2020-12-01_11h25.58.707,lexical_decision_task_MP_exp2,2020.2.8,Win32,60,,z,1,,,,,,,,0.395,1,,,,,,412,NW,"ID",16,jiluer,JILUER,z,0.395,,,,,,0.169444444,-0.001851852,0,0,0,,0,104,104,351,1,
,,,,,,,,,,,,,,,,,,5f85bd6e80e28b067e4e7f6d,2020-12-01_11h25.58.707,lexical_decision_task_MP_exp2,2020.2.8,Win32,60,,m,1,,,,,,,,1.001,1,,,,,,68,WORD,"ID",33,fumble,FUMBLE,m,1.001,,,,,,0.169444444,-0.001851852,0,0,0,,0,105,105,7,1,
,,,,,,,,,,,,,,,,,,5f85bd6e80e28b067e4e7f6d,2020-12-01_11h25.58.707,lexical_decision_task_MP_exp2,2020.2.8,Win32,60,,m,0,,,,,,,,0.605,0,,,,,,251,NW,UN,16,stapod,LUPICT,z,0.605,,,,,,0.169444444,-0.001851852,0,0,0,,0,106,106,430,1,
,,,,,,,,,,,,,,,,,,5f85bd6e80e28b067e4e7f6d,2020-12-01_11h25.58.707,lexical_decision_task_MP_exp2,2020.2.8,Win32,60,,z,0,,,,,,,,0.555,0,,,,,,222,WORD,UN,33,export,HINDER,m,0.555,,,,,,0.169444444,-0.001851852,0,0,0,,0,107,107,161,1,
,,,,,,,,,,,,,,,,,,5f85bd6e80e28b067e4e7f6d,2020-12-01_11h25.58.707,lexical_decision_task_MP_exp2,2020.2.8,Win32,60,,m,1,,,,,,,,0.504,1,,,,,,78,WORD,"ID",33,column,COLUMN,m,0.504,,,,,,0.169444444,-0.001851852,0,0,0,,0,108,108,17,1,
,,,,,,,,,,,,,,,,,,5f85bd6e80e28b067e4e7f6d,2020-12-01_11h25.58.707,lexical_decision_task_MP_exp2,2020.2.8,Win32,60,,m,0,,,,,,,,0.605,0,,,,,,293,NW,UN,16,inhort,SWANCE,z,0.605,,,,,,0.169444444,-0.001851852,0,0,0,,0,109,109,472,1,
,,,,,,,,,,,,,,,,,,5f85bd6e80e28b067e4e7f6d,2020-12-01_11h25.58.707,lexical_decision_task_MP_exp2,2020.2.8,Win32,60,,m,0,,,,,,,,0.658,0,,,,,,480,NW,UN,33,knisma,ROBULY,z,0.658,,,,,,0.169444444,-0.001851852,0,0,0,,0,110,110,419,1,
,,,,,,,,,,,,,,,,,,5f85bd6e80e28b067e4e7f6d,2020-12-01_11h25.58.707,lexical_decision_task_MP_exp2,2020.2.8,Win32,60,,m,1,,,,,,,,0.736,1,,,,,,184,WORD,UN,33,bother,SLEAZY,m,0.736,,,,,,0.169444444,-0.001851852,0,0,0,,0,111,111,123,1,
,,,,,,,,,,,,,,,,,,5f85bd6e80e28b067e4e7f6d,2020-12-01_11h25.58.707,lexical_decision_task_MP_exp2,2020.2.8,Win32,60,,z,1,,,,,,,,0.516,1,,,,,,301,NW,"ID",33,fainch,FAINCH,z,0.516,,,,,,0.169444444,-0.001851852,0,0,0,,0,112,112,240,1,
,,,,,,,,,,,,,,,,,,5f85bd6e80e28b067e4e7f6d,2020-12-01_11h25.58.707,lexical_decision_task_MP_exp2,2020.2.8,Win32,60,,m,0,,,,,,,,0.745,0,,,,,,469,NW,UN,33,crudio,PADIFS,z,0.745,,,,,,0.169444444,-0.001851852,0,0,0,,0,113,113,408,1,
,,,,,,,,,,,,,,,,,,5f85bd6e80e28b067e4e7f6d,2020-12-01_11h25.58.707,lexical_decision_task_MP_exp2,2020.2.8,Win32,60,,m,1,,,,,,,,0.801,1,,,,,,22,WORD,UN,16,wealth,JOCKEY,m,0.801,,,,,,0.169444444,-0.001851852,0,0,0,,0,114,114,201,1,
,,,,,,,,,,,,,,,,,,5f85bd6e80e28b067e4e7f6d,2020-12-01_11h25.58.707,lexical_decision_task_MP_exp2,2020.2.8,Win32,60,,z,0,,,,,,,,0.814,0,,,,,,219,WORD,UN,33,voyage,BUCKET,m,0.814,,,,,,0.169444444,-0.001851852,0,0,0,,0,115,115,158,1,
,,,,,,,,,,,,,,,,,,5f85bd6e80e28b067e4e7f6d,2020-12-01_11h25.58.707,lexical_decision_task_MP_exp2,2020.2.8,Win32,60,,m,0,,,,,,,,0.774,0,,,,,,344,NW,"ID",33,scrily,SCRILY,z,0.774,,,,,,0.169444444,-0.001851852,0,0,0,,0,116,116,283,1,
,,,,,,,,,,,,,,,,,,5f85bd6e80e28b067e4e7f6d,2020-12-01_11h25.58.707,lexical_decision_task_MP_exp2,2020.2.8,Win32,60,,z,1,,,,,,,,0.867,1,,,,,,463,NW,UN,33,chaite,KISPEL,z,0.867,,,,,,0.169444444,-0.001851852,0,0,0,,0,117,117,402,1,
,,,,,,,,,,,,,,,,,,5f85bd6e80e28b067e4e7f6d,2020-12-01_11h25.58.707,lexical_decision_task_MP_exp2,2020.2.8,Win32,60,,m,0,,,,,,,,0.832,0,,,,,,336,NW,"ID",33,ghodus,GHODUS,z,0.832,,,,,,0.169444444,-0.001851852,0,0,0,,0,118,118,275,1,
,,,,,,,,,,,,,,,,,,5f85bd6e80e28b067e4e7f6d,2020-12-01_11h25.58.707,lexical_decision_task_MP_exp2,2020.2.8,Win32,60,,m,1,,,,,,,,0.748,1,,,,,,156,WORD,"ID",16,cradle,CRADLE,m,0.748,,,,,,0.169444444,-0.001851852,0,0,0,,0,119,119,95,1,
,,,,,,,,,,,,,,,,,,5f85bd6e80e28b067e4e7f6d,2020-12-01_11h25.58.707,lexical_decision_task_MP_exp2,2020.2.8,Win32,60,,m,1,,,,,,,,0.904,1,,,,,,154,WORD,"ID",16,author,AUTHOR,m,0.904,,,,,,0.072222222,-0.141666667,0,0,0,space,0,120,120,93,1,110.704
,,,,,,,,,,,,,,,,,,5f85bd6e80e28b067e4e7f6d,2020-12-01_11h25.58.707,lexical_decision_task_MP_exp2,2020.2.8,Win32,60,,z,0,,,,,,,,1.007,0,,,,,,59,WORD,UN,16,pencil,SPLINT,m,1.007,,,,,,0.072222222,-0.141666667,0,0,0,,0,121,121,238,1,
,,,,,,,,,,,,,,,,,,5f85bd6e80e28b067e4e7f6d,2020-12-01_11h25.58.707,lexical_decision_task_MP_exp2,2020.2.8,Win32,60,,z,1,,,,,,,,0.67,1,,,,,,288,NW,UN,16,starby,YACEUP,z,0.67,,,,,,0.072222222,-0.141666667,0,0,0,,0,122,122,467,1,
,,,,,,,,,,,,,,,,,,5f85bd6e80e28b067e4e7f6d,2020-12-01_11h25.58.707,lexical_decision_task_MP_exp2,2020.2.8,Win32,60,,,0,,,,,,,,0.67,-1,,,,,,79,WORD,"ID",33,theory,THEORY,m,,,,,,,0.072222222,-0.141666667,0,0,0,,0,123,123,18,1,
,,,,,,,,,,,,,,,,,,5f85bd6e80e28b067e4e7f6d,2020-12-01_11h25.58.707,lexical_decision_task_MP_exp2,2020.2.8,Win32,60,,m,0,,,,,,,,0.753,0,,,,,,397,NW,"ID",16,camble,CAMBLE,z,0.753,,,,,,0.072222222,-0.141666667,0,0,0,,0,124,124,336,1,
,,,,,,,,,,,,,,,,,,5f85bd6e80e28b067e4e7f6d,2020-12-01_11h25.58.707,lexical_decision_task_MP_exp2,2020.2.8,Win32,60,,z,1,,,,,,,,1.148,1,,,,,,342,NW,"ID",33,randow,RANDOW,z,1.148,,,,,,0.072222222,-0.141666667,0,0,0,,0,125,125,281,1,
,,,,,,,,,,,,,,,,,,5f85bd6e80e28b067e4e7f6d,2020-12-01_11h25.58.707,lexical_decision_task_MP_exp2,2020.2.8,Win32,60,,z,1,,,,,,,,1.017,1,,,,,,358,NW,"ID",33,fleack,FLEACK,z,1.017,,,,,,0.072222222,-0.141666667,0,0,0,,0,126,126,297,1,
,,,,,,,,,,,,,,,,,,5f85bd6e80e28b067e4e7f6d,2020-12-01_11h25.58.707,lexical_decision_task_MP_exp2,2020.2.8,Win32,60,,m,0,,,,,,,,0.933,0,,,,,,443,NW,UN,33,jaunce,DORSEX,z,0.933,,,,,,0.072222222,-0.141666667,0,0,0,,0,127,127,382,1,
,,,,,,,,,,,,,,,,,,5f85bd6e80e28b067e4e7f6d,2020-12-01_11h25.58.707,lexical_decision_task_MP_exp2,2020.2.8,Win32,60,,z,0,,,,,,,,0.918,0,,,,,,133,WORD,"ID",16,chrome,CHROME,m,0.918,,,,,,0.072222222,-0.141666667,0,0,0,,0,128,128,72,1,
,,,,,,,,,,,,,,,,,,5f85bd6e80e28b067e4e7f6d,2020-12-01_11h25.58.707,lexical_decision_task_MP_exp2,2020.2.8,Win32,60,,m,1,,,,,,,,0.818,1,,,,,,140,WORD,"ID",16,prince,PRINCE,m,0.818,,,,,,0.072222222,-0.141666667,0,0,0,,0,129,129,79,1,
,,,,,,,,,,,,,,,,,,5f85bd6e80e28b067e4e7f6d,2020-12-01_11h25.58.707,lexical_decision_task_MP_exp2,2020.2.8,Win32,60,,z,1,,,,,,,,1.111,1,,,,,,459,NW,UN,33,mingar,BAFENT,z,1.111,,,,,,0.072222222,-0.141666667,0,0,0,,0,130,130,398,1,
,,,,,,,,,,,,,,,,,,5f85bd6e80e28b067e4e7f6d,2020-12-01_11h25.58.707,lexical_decision_task_MP_exp2,2020.2.8,Win32,60,,m,0,,,,,,,,0.901,0,,,,,,317,NW,"ID",33,worbal,WORBAL,z,0.901,,,,,,0.072222222,-0.141666667,0,0,0,,0,131,131,256,1,
,,,,,,,,,,,,,,,,,,5f85bd6e80e28b067e4e7f6d,2020-12-01_11h25.58.707,lexical_decision_task_MP_exp2,2020.2.8,Win32,60,,m,1,,,,,,,,0.706,1,,,,,,132,WORD,"ID",16,strong,STRONG,m,0.706,,,,,,0.072222222,-0.141666667,0,0,0,,0,132,132,71,1,
,,,,,,,,,,,,,,,,,,5f85bd6e80e28b067e4e7f6d,2020-12-01_11h25.58.707,lexical_decision_task_MP_exp2,2020.2.8,Win32,60,,m,1,,,,,,,,0.947,1,,,,,,235,WORD,UN,33,pirate,GRUMPY,m,0.947,,,,,,0.072222222,-0.141666667,0,0,0,,0,133,133,174,1,
,,,,,,,,,,,,,,,,,,5f85bd6e80e28b067e4e7f6d,2020-12-01_11h25.58.707,lexical_decision_task_MP_exp2,2020.2.8,Win32,60,,m,1,,,,,,,,0.771,1,,,,,,63,WORD,"ID",33,launch,LAUNCH,m,0.771,,,,,,0.072222222,-0.141666667,0,0,0,,0,134,134,2,1,
,,,,,,,,,,,,,,,,,,5f85bd6e80e28b067e4e7f6d,2020-12-01_11h25.58.707,lexical_decision_task_MP_exp2,2020.2.8,Win32,60,,m,1,,,,,,,,0.747,1,,,,,,178,WORD,"ID",16,inform,INFORM,m,0.747,,,,,,0.072222222,-0.141666667,0,0,0,,0,135,135,117,1,
,,,,,,,,,,,,,,,,,,5f85bd6e80e28b067e4e7f6d,2020-12-01_11h25.58.707,lexical_decision_task_MP_exp2,2020.2.8,Win32,60,,m,1,,,,,,,,0.966,1,,,,,,189,WORD,UN,33,backup,CENSOR,m,0.966,,,,,,0.072222222,-0.141666667,0,0,0,,0,136,136,128,1,
,,,,,,,,,,,,,,,,,,5f85bd6e80e28b067e4e7f6d,2020-12-01_11h25.58.707,lexical_decision_task_MP_exp2,2020.2.8,Win32,60,,z,0,,,,,,,,0.794,0,,,,,,52,WORD,UN,16,police,IMPOSE,m,0.794,,,,,,0.072222222,-0.141666667,0,0,0,,0,137,137,231,1,
,,,,,,,,,,,,,,,,,,5f85bd6e80e28b067e4e7f6d,2020-12-01_11h25.58.707,lexical_decision_task_MP_exp2,2020.2.8,Win32,60,,m,0,,,,,,,,0.807,0,,,,,,290,NW,UN,16,pretch,SPLINO,z,0.807,,,,,,0.072222222,-0.141666667,0,0,0,,0,138,138,469,1,
,,,,,,,,,,,,,,,,,,5f85bd6e80e28b067e4e7f6d,2020-12-01_11h25.58.707,lexical_decision_task_MP_exp2,2020.2.8,Win32,60,,z,1,,,,,,,,0.924,1,,,,,,321,NW,"ID",33,miator,MIATOR,z,0.924,,,,,,0.072222222,-0.141666667,0,0,0,,0,139,139,260,1,
,,,,,,,,,,,,,,,,,,5f85bd6e80e28b067e4e7f6d,2020-12-01_11h25.58.707,lexical_decision_task_MP_exp2,2020.2.8,Win32,60,,m,1,,,,,,,,1.15,1,,,,,,107,WORD,"ID",33,slogan,SLOGAN,m,1.15,,,,,,0.072222222,-0.141666667,0,0,0,,0,140,140,46,1,
,,,,,,,,,,,,,,,,,,5f85bd6e80e28b067e4e7f6d,2020-12-01_11h25.58.707,lexical_decision_task_MP_exp2,2020.2.8,Win32,60,,z,1,,,,,,,,0.77,1,,,,,,330,NW,"ID",33,kensom,KENSOM,z,0.77,,,,,,0.072222222,-0.141666667,0,0,0,,0,141,141,269,1,
,,,,,,,,,,,,,,,,,,5f85bd6e80e28b067e4e7f6d,2020-12-01_11h25.58.707,lexical_decision_task_MP_exp2,2020.2.8,Win32,60,,m,1,,,,,,,,0.752,1,,,,,,141,WORD,"ID",16,orphan,ORPHAN,m,0.752,,,,,,0.072222222,-0.141666667,0,0,0,,0,142,142,80,1,
,,,,,,,,,,,,,,,,,,5f85bd6e80e28b067e4e7f6d,2020-12-01_11h25.58.707,lexical_decision_task_MP_exp2,2020.2.8,Win32,60,,m,1,,,,,,,,0.888,1,,,,,,164,WORD,"ID",16,market,MARKET,m,0.888,,,,,,0.072222222,-0.141666667,0,0,0,,0,143,143,103,1,
,,,,,,,,,,,,,,,,,,5f85bd6e80e28b067e4e7f6d,2020-12-01_11h25.58.707,lexical_decision_task_MP_exp2,2020.2.8,Win32,60,,m,1,,,,,,,,0.914,1,,,,,,135,WORD,"ID",16,import,IMPORT,m,0.914,,,,,,0.072222222,-0.141666667,0,0,0,,0,144,144,74,1,
,,,,,,,,,,,,,,,,,,5f85bd6e80e28b067e4e7f6d,2020-12-01_11h25.58.707,lexical_decision_task_MP_exp2,2020.2.8,Win32,60,,z,1,,,,,,,,1.063,1,,,,,,318,NW,"ID",33,reagly,REAGLY,z,1.063,,,,,,0.072222222,-0.141666667,0,0,0,,0,145,145,257,1,
,,,,,,,,,,,,,,,,,,5f85bd6e80e28b067e4e7f6d,2020-12-01_11h25.58.707,lexical_decision_task_MP_exp2,2020.2.8,Win32,60,,m,1,,,,,,,,0.711,1,,,,,,88,WORD,"ID",33,hunger,HUNGER,m,0.711,,,,,,0.072222222,-0.141666667,0,0,0,,0,146,146,27,1,
,,,,,,,,,,,,,,,,,,5f85bd6e80e28b067e4e7f6d,2020-12-01_11h25.58.707,lexical_decision_task_MP_exp2,2020.2.8,Win32,60,,z,0,,,,,,,,1.135,0,,,,,,213,WORD,UN,33,intake,SQUEAL,m,1.135,,,,,,0.072222222,-0.141666667,0,0,0,,0,147,147,152,1,
,,,,,,,,,,,,,,,,,,5f85bd6e80e28b067e4e7f6d,2020-12-01_11h25.58.707,lexical_decision_task_MP_exp2,2020.2.8,Win32,60,,m,0,,,,,,,,0.791,0,,,,,,348,NW,"ID",33,dumple,DUMPLE,z,0.791,,,,,,0.072222222,-0.141666667,0,0,0,,0,148,148,287,1,
,,,,,,,,,,,,,,,,,,5f85bd6e80e28b067e4e7f6d,2020-12-01_11h25.58.707,lexical_decision_task_MP_exp2,2020.2.8,Win32,60,,m,0,,,,,,,,1.193,0,,,,,,405,NW,"ID",16,flumni,FLUMNI,z,1.193,,,,,,0.072222222,-0.141666667,0,0,0,,0,149,149,344,1,
,,,,,,,,,,,,,,,,,,5f85bd6e80e28b067e4e7f6d,2020-12-01_11h25.58.707,lexical_decision_task_MP_exp2,2020.2.8,Win32,60,,z,0,,,,,,,,0.698,0,,,,,,40,WORD,UN,16,spring,CONVEY,m,0.698,,,,,,0.072222222,-0.141666667,0,0,0,,0,150,150,219,1,
,,,,,,,,,,,,,,,,,,5f85bd6e80e28b067e4e7f6d,2020-12-01_11h25.58.707,lexical_decision_task_MP_exp2,2020.2.8,Win32,60,,m,1,,,,,,,,0.479,1,,,,,,6,WORD,UN,16,anchor,BUNDLE,m,0.479,,,,,,0.072222222,-0.141666667,0,0,0,,0,151,151,185,1,
,,,,,,,,,,,,,,,,,,5f85bd6e80e28b067e4e7f6d,2020-12-01_11h25.58.707,lexical_decision_task_MP_exp2,2020.2.8,Win32,60,,m,1,,,,,,,,0.724,1,,,,,,64,WORD,"ID",33,throne,THRONE,m,0.724,,,,,,0.072222222,-0.141666667,0,0,0,,0,152,152,3,1,
,,,,,,,,,,,,,,,,,,5f85bd6e80e28b067e4e7f6d,2020-12-01_11h25.58.707,lexical_decision_task_MP_exp2,2020.2.8,Win32,60,,m,0,,,,,,,,1.082,0,,,,,,291,NW,UN,16,ablint,PRETCH,z,1.082,,,,,,0.072222222,-0.141666667,0,0,0,,0,153,153,470,1,
,,,,,,,,,,,,,,,,,,5f85bd6e80e28b067e4e7f6d,2020-12-01_11h25.58.707,lexical_decision_task_MP_exp2,2020.2.8,Win32,60,,m,1,,,,,,,,0.812,1,,,,,,25,WORD,UN,16,sprint,DOMAIN,m,0.812,,,,,,0.072222222,-0.141666667,0,0,0,,0,154,154,204,1,
,,,,,,,,,,,,,,,,,,5f85bd6e80e28b067e4e7f6d,2020-12-01_11h25.58.707,lexical_decision_task_MP_exp2,2020.2.8,Win32,60,,m,1,,,,,,,,0.841,1,,,,,,3,WORD,UN,16,trench,KNIGHT,m,0.841,,,,,,0.072222222,-0.141666667,0,0,0,,0,155,155,182,1,
,,,,,,,,,,,,,,,,,,5f85bd6e80e28b067e4e7f6d,2020-12-01_11h25.58.707,lexical_decision_task_MP_exp2,2020.2.8,Win32,60,,z,0,,,,,,,,0.687,0,,,,,,62,WORD,"ID",33,region,REGION,m,0.687,,,,,,0.072222222,-0.141666667,0,0,0,,0,156,156,1,1,
,,,,,,,,,,,,,,,,,,5f85bd6e80e28b067e4e7f6d,2020-12-01_11h25.58.707,lexical_decision_task_MP_exp2,2020.2.8,Win32,60,,m,0,,,,,,,,0.955,0,,,,,,392,NW,"ID",16,rouncy,ROUNCY,z,0.955,,,,,,0.072222222,-0.141666667,0,0,0,,0,157,157,331,1,
,,,,,,,,,,,,,,,,,,5f85bd6e80e28b067e4e7f6d,2020-12-01_11h25.58.707,lexical_decision_task_MP_exp2,2020.2.8,Win32,60,,z,1,,,,,,,,0.951,1,,,,,,450,NW,UN,33,cainky,PHRECT,z,0.951,,,,,,0.072222222,-0.141666667,0,0,0,,0,158,158,389,1,
,,,,,,,,,,,,,,,,,,5f85bd6e80e28b067e4e7f6d,2020-12-01_11h25.58.707,lexical_decision_task_MP_exp2,2020.2.8,Win32,60,,m,0,,,,,,,,1.098,0,,,,,,370,NW,"ID",16,sleact,SLEACT,z,1.098,,,,,,0.072222222,-0.141666667,0,0,0,,0,159,159,309,1,
,,,,,,,,,,,,,,,,,,5f85bd6e80e28b067e4e7f6d,2020-12-01_11h25.58.707,lexical_decision_task_MP_exp2,2020.2.8,Win32,60,,z,0,,,,,,,,0.76,0,,,,,,110,WORD,"ID",33,polite,POLITE,m,0.76,,,,,,0.072222222,-0.141666667,0,0,0,,0,160,160,49,1,
,,,,,,,,,,,,,,,,,,5f85bd6e80e28b067e4e7f6d,2020-12-01_11h25.58.707,lexical_decision_task_MP_exp2,2020.2.8,Win32,60,,,0,,,,,,,,0.76,-1,,,,,,314,NW,"ID",33,sprine,SPRINE,z,,,,,,,0.072222222,-0.141666667,0,0,0,,0,161,161,253,1,
,,,,,,,,,,,,,,,,,,5f85bd6e80e28b067e4e7f6d,2020-12-01_11h25.58.707,lexical_decision_task_MP_exp2,2020.2.8,Win32,60,,z,1,,,,,,,,1.413,1,,,,,,366,NW,"ID",16,toshel,TOSHEL,z,1.413,,,,,,0.072222222,-0.141666667,0,0,0,,0,162,162,305,1,
,,,,,,,,,,,,,,,,,,5f85bd6e80e28b067e4e7f6d,2020-12-01_11h25.58.707,lexical_decision_task_MP_exp2,2020.2.8,Win32,60,,m,0,,,,,,,,0.717,0,,,,,,310,NW,"ID",33,daniet,DANIET,z,0.717,,,,,,0.072222222,-0.141666667,0,0,0,,0,163,163,249,1,
,,,,,,,,,,,,,,,,,,5f85bd6e80e28b067e4e7f6d,2020-12-01_11h25.58.707,lexical_decision_task_MP_exp2,2020.2.8,Win32,60,,z,1,,,,,,,,0.817,1,,,,,,374,NW,"ID",16,sliant,SLIANT,z,0.817,,,,,,0.072222222,-0.141666667,0,0,0,,0,164,164,313,1,
,,,,,,,,,,,,,,,,,,5f85bd6e80e28b067e4e7f6d,2020-12-01_11h25.58.707,lexical_decision_task_MP_exp2,2020.2.8,Win32,60,,m,1,,,,,,,,0.697,1,,,,,,238,WORD,UN,33,behalf,FLOWER,m,0.697,,,,,,0.072222222,-0.141666667,0,0,0,,0,165,165,177,1,
,,,,,,,,,,,,,,,,,,5f85bd6e80e28b067e4e7f6d,2020-12-01_11h25.58.707,lexical_decision_task_MP_exp2,2020.2.8,Win32,60,,m,1,,,,,,,,1.153,1,,,,,,172,WORD,"ID",16,patrol,PATROL,m,1.153,,,,,,0.072222222,-0.141666667,0,0,0,,0,166,166,111,1,
,,,,,,,,,,,,,,,,,,5f85bd6e80e28b067e4e7f6d,2020-12-01_11h25.58.707,lexical_decision_task_MP_exp2,2020.2.8,Win32,60,,z,0,,,,,,,,0.595,0,,,,,,19,WORD,UN,16,breast,PATRON,m,0.595,,,,,,0.072222222,-0.141666667,0,0,0,,0,167,167,198,1,
,,,,,,,,,,,,,,,,,,5f85bd6e80e28b067e4e7f6d,2020-12-01_11h25.58.707,lexical_decision_task_MP_exp2,2020.2.8,Win32,60,,m,1,,,,,,,,0.356,1,,,,,,214,WORD,UN,33,phobia,INTAKE,m,0.356,,,,,,0.072222222,-0.141666667,0,0,0,,0,168,168,153,1,
,,,,,,,,,,,,,,,,,,5f85bd6e80e28b067e4e7f6d,2020-12-01_11h25.58.707,lexical_decision_task_MP_exp2,2020.2.8,Win32,60,,m,0,,,,,,,,0.646,0,,,,,,361,NW,"ID",16,pauche,PAUCHE,z,0.646,,,,,,0.072222222,-0.141666667,0,0,0,,0,169,169,300,1,
,,,,,,,,,,,,,,,,,,5f85bd6e80e28b067e4e7f6d,2020-12-01_11h25.58.707,lexical_decision_task_MP_exp2,2020.2.8,Win32,60,,z,0,,,,,,,,0.837,0,,,,,,30,WORD,UN,16,weapon,ORIENT,m,0.837,,,,,,0.072222222,-0.141666667,0,0,0,,0,170,170,209,1,
,,,,,,,,,,,,,,,,,,5f85bd6e80e28b067e4e7f6d,2020-12-01_11h25.58.707,lexical_decision_task_MP_exp2,2020.2.8,Win32,60,,z,1,,,,,,,,0.822,1,,,,,,272,NW,UN,16,sortel,DAMILT,z,0.822,,,,,,0.072222222,-0.141666667,0,0,0,,0,171,171,451,1,
,,,,,,,,,,,,,,,,,,5f85bd6e80e28b067e4e7f6d,2020-12-01_11h25.58.707,lexical_decision_task_MP_exp2,2020.2.8,Win32,60,,m,1,,,,,,,,0.816,1,,,,,,232,WORD,UN,33,nature,INJECT,m,0.816,,,,,,0.072222222,-0.141666667,0,0,0,,0,172,172,171,1,
,,,,,,,,,,,,,,,,,,5f85bd6e80e28b067e4e7f6d,2020-12-01_11h25.58.707,lexical_decision_task_MP_exp2,2020.2.8,Win32,60,,m,1,,,,,,,,0.758,1,,,,,,21,WORD,UN,16,jockey,SIMPLE,m,0.758,,,,,,0.072222222,-0.141666667,0,0,0,,0,173,173,200,1,
,,,,,,,,,,,,,,,,,,5f85bd6e80e28b067e4e7f6d,2020-12-01_11h25.58.707,lexical_decision_task_MP_exp2,2020.2.8,Win32,60,,z,1,,,,,,,,0.953,1,,,,,,384,NW,"ID",16,guesco,GUESCO,z,0.953,,,,,,0.072222222,-0.141666667,0,0,0,,0,174,174,323,1,
,,,,,,,,,,,,,,,,,,5f85bd6e80e28b067e4e7f6d,2020-12-01_11h25.58.707,lexical_decision_task_MP_exp2,2020.2.8,Win32,60,,z,1,,,,,,,,0.801,1,,,,,,381,NW,"ID",16,huniek,HUNIEK,z,0.801,,,,,,0.072222222,-0.141666667,0,0,0,,0,175,175,320,1,
,,,,,,,,,,,,,,,,,,5f85bd6e80e28b067e4e7f6d,2020-12-01_11h25.58.707,lexical_decision_task_MP_exp2,2020.2.8,Win32,60,,m,0,,,,,,,,0.932,0,,,,,,292,NW,UN,16,swance,ABLINT,z,0.932,,,,,,0.072222222,-0.141666667,0,0,0,,0,176,176,471,1,
,,,,,,,,,,,,,,,,,,5f85bd6e80e28b067e4e7f6d,2020-12-01_11h25.58.707,lexical_decision_task_MP_exp2,2020.2.8,Win32,60,,m,1,,,,,,,,0.786,1,,,,,,92,WORD,"ID",33,strand,STRAND,m,0.786,,,,,,0.072222222,-0.141666667,0,0,0,,0,177,177,31,1,
,,,,,,,,,,,,,,,,,,5f85bd6e80e28b067e4e7f6d,2020-12-01_11h25.58.707,lexical_decision_task_MP_exp2,2020.2.8,Win32,60,,z,0,,,,,,,,0.74,0,,,,,,165,WORD,"ID",16,invest,INVEST,m,0.74,,,,,,0.072222222,-0.141666667,0,0,0,,0,178,178,104,1,
,,,,,,,,,,,,,,,,,,5f85bd6e80e28b067e4e7f6d,2020-12-01_11h25.58.707,lexical_decision_task_MP_exp2,2020.2.8,Win32,60,,z,1,,,,,,,,0.992,1,,,,,,415,NW,"ID",16,higsta,HIGSTA,z,0.992,,,,,,0.072222222,-0.141666667,0,0,0,,0,179,179,354,1,
,,,,,,,,,,,,,,,,,,5f85bd6e80e28b067e4e7f6d,2020-12-01_11h25.58.707,lexical_decision_task_MP_exp2,2020.2.8,Win32,60,,m,1,,,,,,,,1.046,1,,,,,,83,WORD,"ID",33,result,RESULT,m,1.046,,,,,,0.072222222,-0.141666667,0,0,0,,0,180,180,22,1,
,,,,,,,,,,,,,,,,,,5f85bd6e80e28b067e4e7f6d,2020-12-01_11h25.58.707,lexical_decision_task_MP_exp2,2020.2.8,Win32,60,,m,0,,,,,,,,0.855,0,,,,,,388,NW,"ID",16,cragin,CRAGIN,z,0.855,,,,,,0.072222222,-0.141666667,0,0,0,,0,181,181,327,1,
,,,,,,,,,,,,,,,,,,5f85bd6e80e28b067e4e7f6d,2020-12-01_11h25.58.707,lexical_decision_task_MP_exp2,2020.2.8,Win32,60,,m,1,,,,,,,,0.891,1,,,,,,207,WORD,UN,33,hockey,WREATH,m,0.891,,,,,,0.072222222,-0.141666667,0,0,0,,0,182,182,146,1,
,,,,,,,,,,,,,,,,,,5f85bd6e80e28b067e4e7f6d,2020-12-01_11h25.58.707,lexical_decision_task_MP_exp2,2020.2.8,Win32,60,,m,1,,,,,,,,0.69,1,,,,,,130,WORD,"ID",16,stupid,STUPID,m,0.69,,,,,,0.072222222,-0.141666667,0,0,0,,0,183,183,69,1,
,,,,,,,,,,,,,,,,,,5f85bd6e80e28b067e4e7f6d,2020-12-01_11h25.58.707,lexical_decision_task_MP_exp2,2020.2.8,Win32,60,,m,1,,,,,,,,0.837,1,,,,,,37,WORD,UN,16,powder,INSULT,m,0.837,,,,,,0.072222222,-0.141666667,0,0,0,,0,184,184,216,1,
,,,,,,,,,,,,,,,,,,5f85bd6e80e28b067e4e7f6d,2020-12-01_11h25.58.707,lexical_decision_task_MP_exp2,2020.2.8,Win32,60,,m,1,,,,,,,,0.728,1,,,,,,217,WORD,UN,33,shrink,LIQUOR,m,0.728,,,,,,0.072222222,-0.141666667,0,0,0,,0,185,185,156,1,
,,,,,,,,,,,,,,,,,,5f85bd6e80e28b067e4e7f6d,2020-12-01_11h25.58.707,lexical_decision_task_MP_exp2,2020.2.8,Win32,60,,z,0,,,,,,,,0.66,0,,,,,,118,WORD,"ID",33,flight,FLIGHT,m,0.66,,,,,,0.072222222,-0.141666667,0,0,0,,0,186,186,57,1,
,,,,,,,,,,,,,,,,,,5f85bd6e80e28b067e4e7f6d,2020-12-01_11h25.58.707,lexical_decision_task_MP_exp2,2020.2.8,Win32,60,,m,1,,,,,,,,0.655,1,,,,,,102,WORD,"ID",33,direct,DIRECT,m,0.655,,,,,,0.072222222,-0.141666667,0,0,0,,0,187,187,41,1,
,,,,,,,,,,,,,,,,,,5f85bd6e80e28b067e4e7f6d,2020-12-01_11h25.58.707,lexical_decision_task_MP_exp2,2020.2.8,Win32,60,,m,1,,,,,,,,0.67,1,,,,,,136,WORD,"ID",16,bleach,BLEACH,m,0.67,,,,,,0.072222222,-0.141666667,0,0,0,,0,188,188,75,1,
,,,,,,,,,,,,,,,,,,5f85bd6e80e28b067e4e7f6d,2020-12-01_11h25.58.707,lexical_decision_task_MP_exp2,2020.2.8,Win32,60,,z,0,,,,,,,,0.624,0,,,,,,239,WORD,UN,33,forest,LUMBER,m,0.624,,,,,,0.072222222,-0.141666667,0,0,0,,0,189,189,178,1,
,,,,,,,,,,,,,,,,,,5f85bd6e80e28b067e4e7f6d,2020-12-01_11h25.58.707,lexical_decision_task_MP_exp2,2020.2.8,Win32,60,,m,0,,,,,,,,0.8,0,,,,,,441,NW,UN,33,aboune,RASTOE,z,0.8,,,,,,0.072222222,-0.141666667,0,0,0,,0,190,190,380,1,
,,,,,,,,,,,,,,,,,,5f85bd6e80e28b067e4e7f6d,2020-12-01_11h25.58.707,lexical_decision_task_MP_exp2,2020.2.8,Win32,60,,z,0,,,,,,,,0.765,0,,,,,,205,WORD,UN,33,tailor,LOUNGE,m,0.765,,,,,,0.072222222,-0.141666667,0,0,0,,0,191,191,144,1,
,,,,,,,,,,,,,,,,,,5f85bd6e80e28b067e4e7f6d,2020-12-01_11h25.58.707,lexical_decision_task_MP_exp2,2020.2.8,Win32,60,,z,1,,,,,,,,0.869,1,,,,,,306,NW,"ID",33,sounge,SOUNGE,z,0.869,,,,,,0.072222222,-0.141666667,0,0,0,,0,192,192,245,1,
,,,,,,,,,,,,,,,,,,5f85bd6e80e28b067e4e7f6d,2020-12-01_11h25.58.707,lexical_decision_task_MP_exp2,2020.2.8,Win32,60,,m,1,,,,,,,,0.844,1,,,,,,181,WORD,UN,33,winter,GLANCE,m,0.844,,,,,,0.072222222,-0.141666667,0,0,0,,0,193,193,120,1,
,,,,,,,,,,,,,,,,,,5f85bd6e80e28b067e4e7f6d,2020-12-01_11h25.58.707,lexical_decision_task_MP_exp2,2020.2.8,Win32,60,,m,0,,,,,,,,0.732,0,,,,,,369,NW,"ID",16,wronch,WRONCH,z,0.732,,,,,,0.072222222,-0.141666667,0,0,0,,0,194,194,308,1,
,,,,,,,,,,,,,,,,,,5f85bd6e80e28b067e4e7f6d,2020-12-01_11h25.58.707,lexical_decision_task_MP_exp2,2020.2.8,Win32,60,,z,0,,,,,,,,0.802,0,,,,,,101,WORD,"ID",33,wrench,WRENCH,m,0.802,,,,,,0.072222222,-0.141666667,0,0,0,,0,195,195,40,1,
,,,,,,,,,,,,,,,,,,5f85bd6e80e28b067e4e7f6d,2020-12-01_11h25.58.707,lexical_decision_task_MP_exp2,2020.2.8,Win32,60,,m,0,,,,,,,,0.602,0,,,,,,322,NW,"ID",33,slanch,SLANCH,z,0.602,,,,,,0.072222222,-0.141666667,0,0,0,,0,196,196,261,1,
,,,,,,,,,,,,,,,,,,5f85bd6e80e28b067e4e7f6d,2020-12-01_11h25.58.707,lexical_decision_task_MP_exp2,2020.2.8,Win32,60,,z,1,,,,,,,,0.55,1,,,,,,437,NW,UN,33,baitch,SNAPEL,z,0.55,,,,,,0.072222222,-0.141666667,0,0,0,,0,197,197,376,1,
,,,,,,,,,,,,,,,,,,5f85bd6e80e28b067e4e7f6d,2020-12-01_11h25.58.707,lexical_decision_task_MP_exp2,2020.2.8,Win32,60,,z,0,,,,,,,,0.525,0,,,,,,70,WORD,"ID",33,square,SQUARE,m,0.525,,,,,,0.072222222,-0.141666667,0,0,0,,0,198,198,9,1,
,,,,,,,,,,,,,,,,,,5f85bd6e80e28b067e4e7f6d,2020-12-01_11h25.58.707,lexical_decision_task_MP_exp2,2020.2.8,Win32,60,,m,0,,,,,,,,0.722,0,,,,,,380,NW,"ID",16,cavory,CAVORY,z,0.722,,,,,,0.072222222,-0.141666667,0,0,0,,0,199,199,319,1,
,,,,,,,,,,,,,,,,,,5f85bd6e80e28b067e4e7f6d,2020-12-01_11h25.58.707,lexical_decision_task_MP_exp2,2020.2.8,Win32,60,,m,1,,,,,,,,0.706,1,,,,,,198,WORD,UN,33,invoke,WICKED,m,0.706,,,,,,0.072222222,-0.141666667,0,0,0,,0,200,200,137,1,
,,,,,,,,,,,,,,,,,,5f85bd6e80e28b067e4e7f6d,2020-12-01_11h25.58.707,lexical_decision_task_MP_exp2,2020.2.8,Win32,60,,m,1,,,,,,,,0.651,1,,,,,,221,WORD,UN,33,hinder,MASCOT,m,0.651,,,,,,0.072222222,-0.141666667,0,0,0,,0,201,201,160,1,
,,,,,,,,,,,,,,,,,,5f85bd6e80e28b067e4e7f6d,2020-12-01_11h25.58.707,lexical_decision_task_MP_exp2,2020.2.8,Win32,60,,m,0,,,,,,,,0.819,0,,,,,,299,NW,UN,16,yarion,STURCH,z,0.819,,,,,,0.072222222,-0.141666667,0,0,0,,0,202,202,478,1,
,,,,,,,,,,,,,,,,,,5f85bd6e80e28b067e4e7f6d,2020-12-01_11h25.58.707,lexical_decision_task_MP_exp2,2020.2.8,Win32,60,,m,0,,,,,,,,0.731,0,,,,,,279,NW,UN,16,curbol,CELOND,z,0.731,,,,,,0.072222222,-0.141666667,0,0,0,,0,203,203,458,1,
,,,,,,,,,,,,,,,,,,5f85bd6e80e28b067e4e7f6d,2020-12-01_11h25.58.707,lexical_decision_task_MP_exp2,2020.2.8,Win32,60,,z,1,,,,,,,,0.47,1,,,,,,343,NW,"ID",33,aimosy,AIMOSY,z,0.47,,,,,,0.072222222,-0.141666667,0,0,0,,0,204,204,282,1,
,,,,,,,,,,,,,,,,,,5f85bd6e80e28b067e4e7f6d,2020-12-01_11h25.58.707,lexical_decision_task_MP_exp2,2020.2.8,Win32,60,,m,0,,,,,,,,0.59,0,,,,,,319,NW,"ID",33,zomber,ZOMBER,z,0.59,,,,,,0.072222222,-0.141666667,0,0,0,,0,205,205,258,1,
,,,,,,,,,,,,,,,,,,5f85bd6e80e28b067e4e7f6d,2020-12-01_11h25.58.707,lexical_decision_task_MP_exp2,2020.2.8,Win32,60,,z,0,,,,,,,,0.736,0,,,,,,131,WORD,"ID",16,quench,QUENCH,m,0.736,,,,,,0.072222222,-0.141666667,0,0,0,,0,206,206,70,1,
,,,,,,,,,,,,,,,,,,5f85bd6e80e28b067e4e7f6d,2020-12-01_11h25.58.707,lexical_decision_task_MP_exp2,2020.2.8,Win32,60,,m,0,,,,,,,,0.637,0,,,,,,247,NW,UN,16,strole,BLARGE,z,0.637,,,,,,0.072222222,-0.141666667,0,0,0,,0,207,207,426,1,
,,,,,,,,,,,,,,,,,,5f85bd6e80e28b067e4e7f6d,2020-12-01_11h25.58.707,lexical_decision_task_MP_exp2,2020.2.8,Win32,60,,m,1,,,,,,,,0.749,1,,,,,,39,WORD,UN,16,convey,INSECT,m,0.749,,,,,,0.072222222,-0.141666667,0,0,0,,0,208,208,218,1,
,,,,,,,,,,,,,,,,,,5f85bd6e80e28b067e4e7f6d,2020-12-01_11h25.58.707,lexical_decision_task_MP_exp2,2020.2.8,Win32,60,,m,0,,,,,,,,0.814,0,,,,,,453,NW,UN,33,scouge,BOLVIS,z,0.814,,,,,,0.072222222,-0.141666667,0,0,0,,0,209,209,392,1,
,,,,,,,,,,,,,,,,,,5f85bd6e80e28b067e4e7f6d,2020-12-01_11h25.58.707,lexical_decision_task_MP_exp2,2020.2.8,Win32,60,,z,0,,,,,,,,0.438,0,,,,,,125,WORD,"ID",16,nickel,NICKEL,m,0.438,,,,,,0.072222222,-0.141666667,0,0,0,,0,210,210,64,1,
,,,,,,,,,,,,,,,,,,5f85bd6e80e28b067e4e7f6d,2020-12-01_11h25.58.707,lexical_decision_task_MP_exp2,2020.2.8,Win32,60,,m,1,,,,,,,,0.45,1,,,,,,175,WORD,"ID",16,fabric,FABRIC,m,0.45,,,,,,0.072222222,-0.141666667,0,0,0,,0,211,211,114,1,
,,,,,,,,,,,,,,,,,,5f85bd6e80e28b067e4e7f6d,2020-12-01_11h25.58.707,lexical_decision_task_MP_exp2,2020.2.8,Win32,60,,m,0,,,,,,,,0.45,0,,,,,,350,NW,"ID",33,nagurs,NAGURS,z,0.45,,,,,,0.072222222,-0.141666667,0,0,0,,0,212,212,289,1,
,,,,,,,,,,,,,,,,,,5f85bd6e80e28b067e4e7f6d,2020-12-01_11h25.58.707,lexical_decision_task_MP_exp2,2020.2.8,Win32,60,,z,1,,,,,,,,0.48,1,,,,,,447,NW,UN,33,sadent,GIRCUE,z,0.48,,,,,,0.072222222,-0.141666667,0,0,0,,0,213,213,386,1,
,,,,,,,,,,,,,,,,,,5f85bd6e80e28b067e4e7f6d,2020-12-01_11h25.58.707,lexical_decision_task_MP_exp2,2020.2.8,Win32,60,,m,0,,,,,,,,0.621,0,,,,,,245,NW,UN,16,piaton,ANOUGS,z,0.621,,,,,,0.072222222,-0.141666667,0,0,0,,0,214,214,424,1,
,,,,,,,,,,,,,,,,,,5f85bd6e80e28b067e4e7f6d,2020-12-01_11h25.58.707,lexical_decision_task_MP_exp2,2020.2.8,Win32,60,,z,1,,,,,,,,0.353,1,,,,,,477,NW,UN,33,lobush,PHOTIE,z,0.353,,,,,,0.072222222,-0.141666667,0,0,0,,0,215,215,416,1,
,,,,,,,,,,,,,,,,,,5f85bd6e80e28b067e4e7f6d,2020-12-01_11h25.58.707,lexical_decision_task_MP_exp2,2020.2.8,Win32,60,,m,1,,,,,,,,0.573,1,,,,,,116,WORD,"ID",33,tumble,TUMBLE,m,0.573,,,,,,0.072222222,-0.141666667,0,0,0,,0,216,216,55,1,
,,,,,,,,,,,,,,,,,,5f85bd6e80e28b067e4e7f6d,2020-12-01_11h25.58.707,lexical_decision_task_MP_exp2,2020.2.8,Win32,60,,m,0,,,,,,,,0.574,0,,,,,,326,NW,"ID",33,iguade,IGUADE,z,0.574,,,,,,0.072222222,-0.141666667,0,0,0,,0,217,217,265,1,
,,,,,,,,,,,,,,,,,,5f85bd6e80e28b067e4e7f6d,2020-12-01_11h25.58.707,lexical_decision_task_MP_exp2,2020.2.8,Win32,60,,z,1,,,,,,,,0.289,1,,,,,,308,NW,"ID",33,psetch,PSETCH,z,0.289,,,,,,0.072222222,-0.141666667,0,0,0,,0,218,218,247,1,
,,,,,,,,,,,,,,,,,,5f85bd6e80e28b067e4e7f6d,2020-12-01_11h25.58.707,lexical_decision_task_MP_exp2,2020.2.8,Win32,60,,m,0,,,,,,,,0.53,0,,,,,,241,NW,UN,16,unwert,SMENCO,z,0.53,,,,,,0.072222222,-0.141666667,0,0,0,,0,219,219,420,1,
,,,,,,,,,,,,,,,,,,5f85bd6e80e28b067e4e7f6d,2020-12-01_11h25.58.707,lexical_decision_task_MP_exp2,2020.2.8,Win32,60,,z,0,,,,,,,,0.355,0,,,,,,104,WORD,"ID",33,studio,STUDIO,m,0.355,,,,,,0.072222222,-0.141666667,0,0,0,,0,220,220,43,1,
,,,,,,,,,,,,,,,,,,5f85bd6e80e28b067e4e7f6d,2020-12-01_11h25.58.707,lexical_decision_task_MP_exp2,2020.2.8,Win32,60,,m,0,,,,,,,,0.774,0,,,,,,346,NW,"ID",33,saudic,SAUDIC,z,0.774,,,,,,0.072222222,-0.141666667,0,0,0,,0,221,221,285,1,
,,,,,,,,,,,,,,,,,,5f85bd6e80e28b067e4e7f6d,2020-12-01_11h25.58.707,lexical_decision_task_MP_exp2,2020.2.8,Win32,60,,m,1,,,,,,,,0.704,1,,,,,,67,WORD,"ID",33,policy,POLICY,m,0.704,,,,,,0.072222222,-0.141666667,0,0,0,,0,222,222,6,1,
,,,,,,,,,,,,,,,,,,5f85bd6e80e28b067e4e7f6d,2020-12-01_11h25.58.707,lexical_decision_task_MP_exp2,2020.2.8,Win32,60,,m,1,,,,,,,,0.711,1,,,,,,233,WORD,UN,33,clumsy,NATURE,m,0.711,,,,,,0.072222222,-0.141666667,0,0,0,,0,223,223,172,1,
,,,,,,,,,,,,,,,,,,5f85bd6e80e28b067e4e7f6d,2020-12-01_11h25.58.707,lexical_decision_task_MP_exp2,2020.2.8,Win32,60,,z,1,,,,,,,,0.913,1,,,,,,359,NW,"ID",33,fonver,FONVER,z,0.913,,,,,,0.072222222,-0.141666667,0,0,0,,0,224,224,298,1,
,,,,,,,,,,,,,,,,,,5f85bd6e80e28b067e4e7f6d,2020-12-01_11h25.58.707,lexical_decision_task_MP_exp2,2020.2.8,Win32,60,,z,0,,,,,,,,0.65,0,,,,,,186,WORD,UN,33,course,PORTAL,m,0.65,,,,,,0.072222222,-0.141666667,0,0,0,,0,225,225,125,1,
,,,,,,,,,,,,,,,,,,5f85bd6e80e28b067e4e7f6d,2020-12-01_11h25.58.707,lexical_decision_task_MP_exp2,2020.2.8,Win32,60,,z,0,,,,,,,,0.83,0,,,,,,36,WORD,UN,16,insult,VANISH,m,0.83,,,,,,0.072222222,-0.141666667,0,0,0,,0,226,226,215,1,
,,,,,,,,,,,,,,,,,,5f85bd6e80e28b067e4e7f6d,2020-12-01_11h25.58.707,lexical_decision_task_MP_exp2,2020.2.8,Win32,60,,m,1,,,,,,,,0.695,1,,,,,,28,WORD,UN,16,sketch,COMEDY,m,0.695,,,,,,0.072222222,-0.141666667,0,0,0,,0,227,227,207,1,
,,,,,,,,,,,,,,,,,,5f85bd6e80e28b067e4e7f6d,2020-12-01_11h25.58.707,lexical_decision_task_MP_exp2,2020.2.8,Win32,60,,m,0,,,,,,,,0.613,0,,,,,,418,NW,"ID",16,suidle,SUIDLE,z,0.613,,,,,,0.072222222,-0.141666667,0,0,0,,0,228,228,357,1,
,,,,,,,,,,,,,,,,,,5f85bd6e80e28b067e4e7f6d,2020-12-01_11h25.58.707,lexical_decision_task_MP_exp2,2020.2.8,Win32,60,,z,0,,,,,,,,0.827,0,,,,,,54,WORD,UN,16,stroke,RAMBLE,m,0.827,,,,,,0.072222222,-0.141666667,0,0,0,,0,229,229,233,1,
,,,,,,,,,,,,,,,,,,5f85bd6e80e28b067e4e7f6d,2020-12-01_11h25.58.707,lexical_decision_task_MP_exp2,2020.2.8,Win32,60,,m,0,,,,,,,,0.72,0,,,,,,307,NW,"ID",33,kirafe,KIRAFE,z,0.72,,,,,,0.072222222,-0.141666667,0,0,0,,0,230,230,246,1,
,,,,,,,,,,,,,,,,,,5f85bd6e80e28b067e4e7f6d,2020-12-01_11h25.58.707,lexical_decision_task_MP_exp2,2020.2.8,Win32,60,,z,1,,,,,,,,0.969,1,,,,,,478,NW,UN,33,pebric,ACRISE,z,0.969,,,,,,0.072222222,-0.141666667,0,0,0,,0,231,231,417,1,
,,,,,,,,,,,,,,,,,,5f85bd6e80e28b067e4e7f6d,2020-12-01_11h25.58.707,lexical_decision_task_MP_exp2,2020.2.8,Win32,60,,m,1,,,,,,,,0.825,1,,,,,,167,WORD,"ID",16,design,DESIGN,m,0.825,,,,,,0.072222222,-0.141666667,0,0,0,,0,232,232,106,1,
,,,,,,,,,,,,,,,,,,5f85bd6e80e28b067e4e7f6d,2020-12-01_11h25.58.707,lexical_decision_task_MP_exp2,2020.2.8,Win32,60,,m,0,,,,,,,,0.687,0,,,,,,280,NW,UN,16,melaty,CURBOL,z,0.687,,,,,,0.072222222,-0.141666667,0,0,0,,0,233,233,459,1,
,,,,,,,,,,,,,,,,,,5f85bd6e80e28b067e4e7f6d,2020-12-01_11h25.58.707,lexical_decision_task_MP_exp2,2020.2.8,Win32,60,,m,1,,,,,,,,0.687,1,,,,,,120,WORD,"ID",33,strain,STRAIN,m,0.687,,,,,,0.072222222,-0.141666667,0,0,0,,0,234,234,59,1,
,,,,,,,,,,,,,,,,,,5f85bd6e80e28b067e4e7f6d,2020-12-01_11h25.58.707,lexical_decision_task_MP_exp2,2020.2.8,Win32,60,,z,0,,,,,,,,0.473,0,,,,,,2,WORD,UN,16,knight,BRIDGE,m,0.473,,,,,,0.072222222,-0.141666667,0,0,0,,0,235,235,181,1,
,,,,,,,,,,,,,,,,,,5f85bd6e80e28b067e4e7f6d,2020-12-01_11h25.58.707,lexical_decision_task_MP_exp2,2020.2.8,Win32,60,,m,0,,,,,,,,0.402,0,,,,,,338,NW,"ID",33,wreash,WREASH,z,0.402,,,,,,0.072222222,-0.141666667,0,0,0,,0,236,236,277,1,
,,,,,,,,,,,,,,,,,,5f85bd6e80e28b067e4e7f6d,2020-12-01_11h25.58.707,lexical_decision_task_MP_exp2,2020.2.8,Win32,60,,m,0,,,,,,,,0.453,0,,,,,,258,NW,UN,16,soudal,POLUTH,z,0.453,,,,,,0.072222222,-0.141666667,0,0,0,,0,237,237,437,1,
,,,,,,,,,,,,,,,,,,5f85bd6e80e28b067e4e7f6d,2020-12-01_11h25.58.707,lexical_decision_task_MP_exp2,2020.2.8,Win32,60,,z,0,,,,,,,,0.467,0,,,,,,56,WORD,UN,16,change,AMBUSH,m,0.467,,,,,,0.072222222,-0.141666667,0,0,0,,0,238,238,235,1,
,,,,,,,,,,,,,,,,,,5f85bd6e80e28b067e4e7f6d,2020-12-01_11h25.58.707,lexical_decision_task_MP_exp2,2020.2.8,Win32,60,,m,0,,,,,,,,0.395,0,,,,,,340,NW,"ID",33,fiatch,FIATCH,z,0.395,,,,,,0.072222222,-0.141666667,0,0,0,,0,239,239,279,1,
,,,,,,,,,,,,,,,,,,5f85bd6e80e28b067e4e7f6d,2020-12-01_11h25.58.707,lexical_decision_task_MP_exp2,2020.2.8,Win32,60,,m,0,,,,,,,,0.575,0,,,,,,454,NW,UN,33,tondle,SCOUGE,z,0.575,,,,,,0.072222222,-0.141666667,0,0,0,,0,240,240,393,1,
,,,,,,,,,,,,,,,,,,5f85bd6e80e28b067e4e7f6d,2020-12-01_11h25.58.707,lexical_decision_task_MP_exp2,2020.2.8,Win32,60,,m,0,,,,,,,,0.721,0,,,,,,416,NW,"ID",16,pathel,PATHEL,z,0.721,,,,,,0.048148148,-0.419444444,0,0,0,space,0,241,241,355,1,26.752
,,,,,,,,,,,,,,,,,,5f85bd6e80e28b067e4e7f6d,2020-12-01_11h25.58.707,lexical_decision_task_MP_exp2,2020.2.8,Win32,60,,z,1,,,,,,,,0.989,1,,,,,,304,NW,"ID",33,cludie,CLUDIE,z,0.989,,,,,,0.048148148,-0.419444444,0,0,0,,0,242,242,243,1,
,,,,,,,,,,,,,,,,,,5f85bd6e80e28b067e4e7f6d,2020-12-01_11h25.58.707,lexical_decision_task_MP_exp2,2020.2.8,Win32,60,,m,0,,,,,,,,0.636,0,,,,,,347,NW,"ID",33,kerift,KERIFT,z,0.636,,,,,,0.048148148,-0.419444444,0,0,0,,0,243,243,286,1,
,,,,,,,,,,,,,,,,,,5f85bd6e80e28b067e4e7f6d,2020-12-01_11h25.58.707,lexical_decision_task_MP_exp2,2020.2.8,Win32,60,,z,0,,,,,,,,0.344,0,,,,,,124,WORD,"ID",16,blouse,BLOUSE,m,0.344,,,,,,0.048148148,-0.419444444,0,0,0,,0,244,244,63,1,
,,,,,,,,,,,,,,,,,,5f85bd6e80e28b067e4e7f6d,2020-12-01_11h25.58.707,lexical_decision_task_MP_exp2,2020.2.8,Win32,60,,m,1,,,,,,,,0.665,1,,,,,,202,WORD,UN,33,phrase,FACTOR,m,0.665,,,,,,0.048148148,-0.419444444,0,0,0,,0,245,245,141,1,
,,,,,,,,,,,,,,,,,,5f85bd6e80e28b067e4e7f6d,2020-12-01_11h25.58.707,lexical_decision_task_MP_exp2,2020.2.8,Win32,60,,m,1,,,,,,,,0.706,1,,,,,,76,WORD,"ID",33,exotic,EXOTIC,m,0.706,,,,,,0.048148148,-0.419444444,0,0,0,,0,246,246,15,1,
,,,,,,,,,,,,,,,,,,5f85bd6e80e28b067e4e7f6d,2020-12-01_11h25.58.707,lexical_decision_task_MP_exp2,2020.2.8,Win32,60,,m,1,,,,,,,,0.691,1,,,,,,87,WORD,"ID",33,filter,FILTER,m,0.691,,,,,,0.048148148,-0.419444444,0,0,0,,0,247,247,26,1,
,,,,,,,,,,,,,,,,,,5f85bd6e80e28b067e4e7f6d,2020-12-01_11h25.58.707,lexical_decision_task_MP_exp2,2020.2.8,Win32,60,,m,0,,,,,,,,0.611,0,,,,,,282,NW,UN,16,veralf,PORLEX,z,0.611,,,,,,0.048148148,-0.419444444,0,0,0,,0,248,248,461,1,
,,,,,,,,,,,,,,,,,,5f85bd6e80e28b067e4e7f6d,2020-12-01_11h25.58.707,lexical_decision_task_MP_exp2,2020.2.8,Win32,60,,z,0,,,,,,,,0.398,0,,,,,,24,WORD,UN,16,domain,PRAISE,m,0.398,,,,,,0.048148148,-0.419444444,0,0,0,,0,249,249,203,1,
,,,,,,,,,,,,,,,,,,5f85bd6e80e28b067e4e7f6d,2020-12-01_11h25.58.707,lexical_decision_task_MP_exp2,2020.2.8,Win32,60,,m,1,,,,,,,,0.53,1,,,,,,20,WORD,UN,16,simple,BREAST,m,0.53,,,,,,0.048148148,-0.419444444,0,0,0,,0,250,250,199,1,
,,,,,,,,,,,,,,,,,,5f85bd6e80e28b067e4e7f6d,2020-12-01_11h25.58.707,lexical_decision_task_MP_exp2,2020.2.8,Win32,60,,m,1,,,,,,,,0.717,1,,,,,,161,WORD,"ID",16,pastor,PASTOR,m,0.717,,,,,,0.048148148,-0.419444444,0,0,0,,0,251,251,100,1,
,,,,,,,,,,,,,,,,,,5f85bd6e80e28b067e4e7f6d,2020-12-01_11h25.58.707,lexical_decision_task_MP_exp2,2020.2.8,Win32,60,,z,0,,,,,,,,0.693,0,,,,,,97,WORD,"ID",33,client,CLIENT,m,0.693,,,,,,0.048148148,-0.419444444,0,0,0,,0,252,252,36,1,
,,,,,,,,,,,,,,,,,,5f85bd6e80e28b067e4e7f6d,2020-12-01_11h25.58.707,lexical_decision_task_MP_exp2,2020.2.8,Win32,60,,z,1,,,,,,,,0.852,1,,,,,,455,NW,UN,33,broget,TONDLE,z,0.852,,,,,,0.048148148,-0.419444444,0,0,0,,0,253,253,394,1,
,,,,,,,,,,,,,,,,,,5f85bd6e80e28b067e4e7f6d,2020-12-01_11h25.58.707,lexical_decision_task_MP_exp2,2020.2.8,Win32,60,,m,1,,,,,,,,0.792,1,,,,,,170,WORD,"ID",16,pounce,POUNCE,m,0.792,,,,,,0.048148148,-0.419444444,0,0,0,,0,254,254,109,1,
,,,,,,,,,,,,,,,,,,5f85bd6e80e28b067e4e7f6d,2020-12-01_11h25.58.707,lexical_decision_task_MP_exp2,2020.2.8,Win32,60,,m,0,,,,,,,,0.883,0,,,,,,283,NW,UN,16,shaple,VERALF,z,0.883,,,,,,0.048148148,-0.419444444,0,0,0,,0,255,255,462,1,
,,,,,,,,,,,,,,,,,,5f85bd6e80e28b067e4e7f6d,2020-12-01_11h25.58.707,lexical_decision_task_MP_exp2,2020.2.8,Win32,60,,z,0,,,,,,,,0.827,0,,,,,,106,WORD,"ID",33,ransom,RANSOM,m,0.827,,,,,,0.048148148,-0.419444444,0,0,0,,0,256,256,45,1,
,,,,,,,,,,,,,,,,,,5f85bd6e80e28b067e4e7f6d,2020-12-01_11h25.58.707,lexical_decision_task_MP_exp2,2020.2.8,Win32,60,,z,1,,,,,,,,1.131,1,,,,,,420,NW,"ID",16,gushop,GUSHOP,z,1.131,,,,,,0.048148148,-0.419444444,0,0,0,,0,257,257,359,1,
,,,,,,,,,,,,,,,,,,5f85bd6e80e28b067e4e7f6d,2020-12-01_11h25.58.707,lexical_decision_task_MP_exp2,2020.2.8,Win32,60,,z,0,,,,,,,,0.916,0,,,,,,113,WORD,"ID",33,chorus,CHORUS,m,0.916,,,,,,0.048148148,-0.419444444,0,0,0,,0,258,258,52,1,
,,,,,,,,,,,,,,,,,,5f85bd6e80e28b067e4e7f6d,2020-12-01_11h25.58.707,lexical_decision_task_MP_exp2,2020.2.8,Win32,60,,m,1,,,,,,,,0.695,1,,,,,,105,WORD,"ID",33,number,NUMBER,m,0.695,,,,,,0.048148148,-0.419444444,0,0,0,,0,259,259,44,1,
,,,,,,,,,,,,,,,,,,5f85bd6e80e28b067e4e7f6d,2020-12-01_11h25.58.707,lexical_decision_task_MP_exp2,2020.2.8,Win32,60,,m,0,,,,,,,,0.695,0,,,,,,352,NW,"ID",33,tringe,TRINGE,z,0.695,,,,,,0.048148148,-0.419444444,0,0,0,,0,260,260,291,1,
,,,,,,,,,,,,,,,,,,5f85bd6e80e28b067e4e7f6d,2020-12-01_11h25.58.707,lexical_decision_task_MP_exp2,2020.2.8,Win32,60,,m,1,,,,,,,,0.946,1,,,,,,236,WORD,UN,33,grumpy,PIRATE,m,0.946,,,,,,0.048148148,-0.419444444,0,0,0,,0,261,261,175,1,
,,,,,,,,,,,,,,,,,,5f85bd6e80e28b067e4e7f6d,2020-12-01_11h25.58.707,lexical_decision_task_MP_exp2,2020.2.8,Win32,60,,m,1,,,,,,,,0.698,1,,,,,,109,WORD,"ID",33,wonder,WONDER,m,0.698,,,,,,0.048148148,-0.419444444,0,0,0,,0,262,262,48,1,
,,,,,,,,,,,,,,,,,,5f85bd6e80e28b067e4e7f6d,2020-12-01_11h25.58.707,lexical_decision_task_MP_exp2,2020.2.8,Win32,60,,z,0,,,,,,,,0.779,0,,,,,,69,WORD,"ID",33,plenty,PLENTY,m,0.779,,,,,,0.048148148,-0.419444444,0,0,0,,0,263,263,8,1,
,,,,,,,,,,,,,,,,,,5f85bd6e80e28b067e4e7f6d,2020-12-01_11h25.58.707,lexical_decision_task_MP_exp2,2020.2.8,Win32,60,,m,1,,,,,,,,0.884,1,,,,,,209,WORD,UN,33,monkey,SEARCH,m,0.884,,,,,,0.048148148,-0.419444444,0,0,0,,0,264,264,148,1,
,,,,,,,,,,,,,,,,,,5f85bd6e80e28b067e4e7f6d,2020-12-01_11h25.58.707,lexical_decision_task_MP_exp2,2020.2.8,Win32,60,,m,1,,,,,,,,0.824,1,,,,,,203,WORD,UN,33,burden,PHRASE,m,0.824,,,,,,0.048148148,-0.419444444,0,0,0,,0,265,265,142,1,
,,,,,,,,,,,,,,,,,,5f85bd6e80e28b067e4e7f6d,2020-12-01_11h25.58.707,lexical_decision_task_MP_exp2,2020.2.8,Win32,60,,z,1,,,,,,,,1.114,1,,,,,,334,NW,"ID",33,watmeg,WATMEG,z,1.114,,,,,,0.048148148,-0.419444444,0,0,0,,0,266,266,273,1,
,,,,,,,,,,,,,,,,,,5f85bd6e80e28b067e4e7f6d,2020-12-01_11h25.58.707,lexical_decision_task_MP_exp2,2020.2.8,Win32,60,,z,1,,,,,,,,1.14,1,,,,,,295,NW,UN,16,beinch,GLEATH,z,1.14,,,,,,0.048148148,-0.419444444,0,0,0,,0,267,267,474,1,
,,,,,,,,,,,,,,,,,,5f85bd6e80e28b067e4e7f6d,2020-12-01_11h25.58.707,lexical_decision_task_MP_exp2,2020.2.8,Win32,60,,z,0,,,,,,,,0.999,0,,,,,,216,WORD,UN,33,liquor,BEHALF,m,0.999,,,,,,0.048148148,-0.419444444,0,0,0,,0,268,268,155,1,
,,,,,,,,,,,,,,,,,,5f85bd6e80e28b067e4e7f6d,2020-12-01_11h25.58.707,lexical_decision_task_MP_exp2,2020.2.8,Win32,60,,m,1,,,,,,,,0.687,1,,,,,,72,WORD,"ID",33,bright,BRIGHT,m,0.687,,,,,,0.048148148,-0.419444444,0,0,0,,0,269,269,11,1,
,,,,,,,,,,,,,,,,,,5f85bd6e80e28b067e4e7f6d,2020-12-01_11h25.58.707,lexical_decision_task_MP_exp2,2020.2.8,Win32,60,,z,1,,,,,,,,0.996,1,,,,,,422,NW,UN,33,streld,ALCOUD,z,0.996,,,,,,0.048148148,-0.419444444,0,0,0,,0,270,270,361,1,
,,,,,,,,,,,,,,,,,,5f85bd6e80e28b067e4e7f6d,2020-12-01_11h25.58.707,lexical_decision_task_MP_exp2,2020.2.8,Win32,60,,m,1,,,,,,,,0.825,1,,,,,,38,WORD,UN,16,insect,POWDER,m,0.825,,,,,,0.048148148,-0.419444444,0,0,0,,0,271,271,217,1,
,,,,,,,,,,,,,,,,,,5f85bd6e80e28b067e4e7f6d,2020-12-01_11h25.58.707,lexical_decision_task_MP_exp2,2020.2.8,Win32,60,,m,1,,,,,,,,0.915,1,,,,,,225,WORD,UN,33,casino,VULGAR,m,0.915,,,,,,0.048148148,-0.419444444,0,0,0,,0,272,272,164,1,
,,,,,,,,,,,,,,,,,,5f85bd6e80e28b067e4e7f6d,2020-12-01_11h25.58.707,lexical_decision_task_MP_exp2,2020.2.8,Win32,60,,z,1,,,,,,,,1.09,1,,,,,,305,NW,"ID",33,forgle,FORGLE,z,1.09,,,,,,0.048148148,-0.419444444,0,0,0,,0,273,273,244,1,
,,,,,,,,,,,,,,,,,,5f85bd6e80e28b067e4e7f6d,2020-12-01_11h25.58.707,lexical_decision_task_MP_exp2,2020.2.8,Win32,60,,m,1,,,,,,,,0.817,1,,,,,,7,WORD,UN,16,abrupt,ANCHOR,m,0.817,,,,,,0.048148148,-0.419444444,0,0,0,,0,274,274,186,1,
,,,,,,,,,,,,,,,,,,5f85bd6e80e28b067e4e7f6d,2020-12-01_11h25.58.707,lexical_decision_task_MP_exp2,2020.2.8,Win32,60,,m,1,,,,,,,,1.078,1,,,,,,159,WORD,"ID",16,detail,DETAIL,m,1.078,,,,,,0.048148148,-0.419444444,0,0,0,,0,275,275,98,1,
,,,,,,,,,,,,,,,,,,5f85bd6e80e28b067e4e7f6d,2020-12-01_11h25.58.707,lexical_decision_task_MP_exp2,2020.2.8,Win32,60,,z,0,,,,,,,,0.565,0,,,,,,58,WORD,UN,16,splint,FOSTER,m,0.565,,,,,,0.048148148,-0.419444444,0,0,0,,0,276,276,237,1,
,,,,,,,,,,,,,,,,,,5f85bd6e80e28b067e4e7f6d,2020-12-01_11h25.58.707,lexical_decision_task_MP_exp2,2020.2.8,Win32,60,,m,1,,,,,,,,0.785,1,,,,,,112,WORD,"ID",33,breath,BREATH,m,0.785,,,,,,0.048148148,-0.419444444,0,0,0,,0,277,277,51,1,
,,,,,,,,,,,,,,,,,,5f85bd6e80e28b067e4e7f6d,2020-12-01_11h25.58.707,lexical_decision_task_MP_exp2,2020.2.8,Win32,60,,m,0,,,,,,,,0.633,0,,,,,,432,NW,UN,33,drance,LUNKER,z,0.633,,,,,,0.048148148,-0.419444444,0,0,0,,0,278,278,371,1,
,,,,,,,,,,,,,,,,,,5f85bd6e80e28b067e4e7f6d,2020-12-01_11h25.58.707,lexical_decision_task_MP_exp2,2020.2.8,Win32,60,,z,1,,,,,,,,0.749,1,,,,,,297,NW,UN,16,piergy,FERTIC,z,0.749,,,,,,0.048148148,-0.419444444,0,0,0,,0,279,279,476,1,
,,,,,,,,,,,,,,,,,,5f85bd6e80e28b067e4e7f6d,2020-12-01_11h25.58.707,lexical_decision_task_MP_exp2,2020.2.8,Win32,60,,m,0,,,,,,,,0.826,0,,,,,,373,NW,"ID",16,bigent,BIGENT,z,0.826,,,,,,0.048148148,-0.419444444,0,0,0,,0,280,280,312,1,
,,,,,,,,,,,,,,,,,,5f85bd6e80e28b067e4e7f6d,2020-12-01_11h25.58.707,lexical_decision_task_MP_exp2,2020.2.8,Win32,60,,z,0,,,,,,,,1.199,0,,,,,,13,WORD,UN,16,almost,STRIVE,m,1.199,,,,,,0.048148148,-0.419444444,0,0,0,,0,281,281,192,1,
,,,,,,,,,,,,,,,,,,5f85bd6e80e28b067e4e7f6d,2020-12-01_11h25.58.707,lexical_decision_task_MP_exp2,2020.2.8,Win32,60,,z,1,,,,,,,,0.846,1,,,,,,257,NW,UN,16,poluth,VENIOD,z,0.846,,,,,,0.048148148,-0.419444444,0,0,0,,0,282,282,436,1,
,,,,,,,,,,,,,,,,,,5f85bd6e80e28b067e4e7f6d,2020-12-01_11h25.58.707,lexical_decision_task_MP_exp2,2020.2.8,Win32,60,,m,0,,,,,,,,0.93,0,,,,,,377,NW,"ID",16,injore,INJORE,z,0.93,,,,,,0.048148148,-0.419444444,0,0,0,,0,283,283,316,1,
,,,,,,,,,,,,,,,,,,5f85bd6e80e28b067e4e7f6d,2020-12-01_11h25.58.707,lexical_decision_task_MP_exp2,2020.2.8,Win32,60,,z,1,,,,,,,,0.717,1,,,,,,244,NW,UN,16,anougs,EATRIC,z,0.717,,,,,,0.048148148,-0.419444444,0,0,0,,0,284,284,423,1,
,,,,,,,,,,,,,,,,,,5f85bd6e80e28b067e4e7f6d,2020-12-01_11h25.58.707,lexical_decision_task_MP_exp2,2020.2.8,Win32,60,,m,0,,,,,,,,0.729,0,,,,,,396,NW,"ID",16,flengy,FLENGY,z,0.729,,,,,,0.048148148,-0.419444444,0,0,0,,0,285,285,335,1,
,,,,,,,,,,,,,,,,,,5f85bd6e80e28b067e4e7f6d,2020-12-01_11h25.58.707,lexical_decision_task_MP_exp2,2020.2.8,Win32,60,,m,1,,,,,,,,0.839,1,,,,,,145,WORD,"ID",16,parish,PARISH,m,0.839,,,,,,0.048148148,-0.419444444,0,0,0,,0,286,286,84,1,
,,,,,,,,,,,,,,,,,,5f85bd6e80e28b067e4e7f6d,2020-12-01_11h25.58.707,lexical_decision_task_MP_exp2,2020.2.8,Win32,60,,m,1,,,,,,,,0.902,1,,,,,,212,WORD,UN,33,squeal,VERIFY,m,0.902,,,,,,0.048148148,-0.419444444,0,0,0,,0,287,287,151,1,
,,,,,,,,,,,,,,,,,,5f85bd6e80e28b067e4e7f6d,2020-12-01_11h25.58.707,lexical_decision_task_MP_exp2,2020.2.8,Win32,60,,z,0,,,,,,,,0.434,0,,,,,,32,WORD,UN,16,scream,BUCKLE,m,0.434,,,,,,0.048148148,-0.419444444,0,0,0,,0,288,288,211,1,
,,,,,,,,,,,,,,,,,,5f85bd6e80e28b067e4e7f6d,2020-12-01_11h25.58.707,lexical_decision_task_MP_exp2,2020.2.8,Win32,60,,m,1,,,,,,,,0.854,1,,,,,,10,WORD,UN,16,cruise,ETHNIC,m,0.854,,,,,,0.048148148,-0.419444444,0,0,0,,0,289,289,189,1,
,,,,,,,,,,,,,,,,,,5f85bd6e80e28b067e4e7f6d,2020-12-01_11h25.58.707,lexical_decision_task_MP_exp2,2020.2.8,Win32,60,,m,1,,,,,,,,0.626,1,,,,,,80,WORD,"ID",33,family,FAMILY,m,0.626,,,,,,0.048148148,-0.419444444,0,0,0,,0,290,290,19,1,
,,,,,,,,,,,,,,,,,,5f85bd6e80e28b067e4e7f6d,2020-12-01_11h25.58.707,lexical_decision_task_MP_exp2,2020.2.8,Win32,60,,m,1,,,,,,,,0.891,1,,,,,,191,WORD,UN,33,beacon,STABLE,m,0.891,,,,,,0.048148148,-0.419444444,0,0,0,,0,291,291,130,1,
,,,,,,,,,,,,,,,,,,5f85bd6e80e28b067e4e7f6d,2020-12-01_11h25.58.707,lexical_decision_task_MP_exp2,2020.2.8,Win32,60,,z,1,,,,,,,,1.1,1,,,,,,284,NW,UN,16,prudge,SHAPLE,z,1.1,,,,,,0.048148148,-0.419444444,0,0,0,,0,292,292,463,1,
,,,,,,,,,,,,,,,,,,5f85bd6e80e28b067e4e7f6d,2020-12-01_11h25.58.707,lexical_decision_task_MP_exp2,2020.2.8,Win32,60,,z,0,,,,,,,,0.876,0,,,,,,17,WORD,UN,16,humble,CHARGE,m,0.876,,,,,,0.048148148,-0.419444444,0,0,0,,0,293,293,196,1,
,,,,,,,,,,,,,,,,,,5f85bd6e80e28b067e4e7f6d,2020-12-01_11h25.58.707,lexical_decision_task_MP_exp2,2020.2.8,Win32,60,,m,1,,,,,,,,0.624,1,,,,,,231,WORD,UN,33,inject,EXPORT,m,0.624,,,,,,0.048148148,-0.419444444,0,0,0,,0,294,294,170,1,
,,,,,,,,,,,,,,,,,,5f85bd6e80e28b067e4e7f6d,2020-12-01_11h25.58.707,lexical_decision_task_MP_exp2,2020.2.8,Win32,60,,m,1,,,,,,,,0.77,1,,,,,,128,WORD,"ID",16,senior,SENIOR,m,0.77,,,,,,0.048148148,-0.419444444,0,0,0,,0,295,295,67,1,
,,,,,,,,,,,,,,,,,,5f85bd6e80e28b067e4e7f6d,2020-12-01_11h25.58.707,lexical_decision_task_MP_exp2,2020.2.8,Win32,60,,m,1,,,,,,,,0.654,1,,,,,,152,WORD,"ID",16,rocket,ROCKET,m,0.654,,,,,,0.048148148,-0.419444444,0,0,0,,0,296,296,91,1,
,,,,,,,,,,,,,,,,,,5f85bd6e80e28b067e4e7f6d,2020-12-01_11h25.58.707,lexical_decision_task_MP_exp2,2020.2.8,Win32,60,,m,1,,,,,,,,0.791,1,,,,,,223,WORD,UN,33,period,KIDNEY,m,0.791,,,,,,0.048148148,-0.419444444,0,0,0,,0,297,297,162,1,
,,,,,,,,,,,,,,,,,,5f85bd6e80e28b067e4e7f6d,2020-12-01_11h25.58.707,lexical_decision_task_MP_exp2,2020.2.8,Win32,60,,z,0,,,,,,,,0.791,0,,,,,,234,WORD,UN,33,poster,CLUMSY,m,0.791,,,,,,0.048148148,-0.419444444,0,0,0,,0,298,298,173,1,
,,,,,,,,,,,,,,,,,,5f85bd6e80e28b067e4e7f6d,2020-12-01_11h25.58.707,lexical_decision_task_MP_exp2,2020.2.8,Win32,60,,z,0,,,,,,,,0.874,0,,,,,,86,WORD,"ID",33,rodent,RODENT,m,0.874,,,,,,0.048148148,-0.419444444,0,0,0,,0,299,299,25,1,
,,,,,,,,,,,,,,,,,,5f85bd6e80e28b067e4e7f6d,2020-12-01_11h25.58.707,lexical_decision_task_MP_exp2,2020.2.8,Win32,60,,m,0,,,,,,,,0.778,0,,,,,,393,NW,"ID",16,ganous,GANOUS,z,0.778,,,,,,0.048148148,-0.419444444,0,0,0,,0,300,300,332,1,
,,,,,,,,,,,,,,,,,,5f85bd6e80e28b067e4e7f6d,2020-12-01_11h25.58.707,lexical_decision_task_MP_exp2,2020.2.8,Win32,60,,z,0,,,,,,,,0.788,0,,,,,,201,WORD,UN,33,factor,ADMIRE,m,0.788,,,,,,0.048148148,-0.419444444,0,0,0,,0,301,301,140,1,
,,,,,,,,,,,,,,,,,,5f85bd6e80e28b067e4e7f6d,2020-12-01_11h25.58.707,lexical_decision_task_MP_exp2,2020.2.8,Win32,60,,m,1,,,,,,,,0.962,1,,,,,,35,WORD,UN,16,vanish,SOCKET,m,0.962,,,,,,0.048148148,-0.419444444,0,0,0,,0,302,302,214,1,
,,,,,,,,,,,,,,,,,,5f85bd6e80e28b067e4e7f6d,2020-12-01_11h25.58.707,lexical_decision_task_MP_exp2,2020.2.8,Win32,60,,m,0,,,,,,,,0.634,0,,,,,,410,NW,"ID",16,tunory,TUNORY,z,0.634,,,,,,0.048148148,-0.419444444,0,0,0,,0,303,303,349,1,
,,,,,,,,,,,,,,,,,,5f85bd6e80e28b067e4e7f6d,2020-12-01_11h25.58.707,lexical_decision_task_MP_exp2,2020.2.8,Win32,60,,m,1,,,,,,,,0.813,1,,,,,,31,WORD,UN,16,buckle,WEAPON,m,0.813,,,,,,0.048148148,-0.419444444,0,0,0,,0,304,304,210,1,
,,,,,,,,,,,,,,,,,,5f85bd6e80e28b067e4e7f6d,2020-12-01_11h25.58.707,lexical_decision_task_MP_exp2,2020.2.8,Win32,60,,m,0,,,,,,,,0.724,0,,,,,,281,NW,UN,16,porlex,MELATY,z,0.724,,,,,,0.048148148,-0.419444444,0,0,0,,0,305,305,460,1,
,,,,,,,,,,,,,,,,,,5f85bd6e80e28b067e4e7f6d,2020-12-01_11h25.58.707,lexical_decision_task_MP_exp2,2020.2.8,Win32,60,,m,1,,,,,,,,0.773,1,,,,,,75,WORD,"ID",33,trophy,TROPHY,m,0.773,,,,,,0.048148148,-0.419444444,0,0,0,,0,306,306,14,1,
,,,,,,,,,,,,,,,,,,5f85bd6e80e28b067e4e7f6d,2020-12-01_11h25.58.707,lexical_decision_task_MP_exp2,2020.2.8,Win32,60,,z,1,,,,,,,,0.686,1,,,,,,425,NW,UN,33,urivel,FRUDGE,z,0.686,,,,,,0.048148148,-0.419444444,0,0,0,,0,307,307,364,1,
,,,,,,,,,,,,,,,,,,5f85bd6e80e28b067e4e7f6d,2020-12-01_11h25.58.707,lexical_decision_task_MP_exp2,2020.2.8,Win32,60,,z,1,,,,,,,,1.025,1,,,,,,367,NW,"ID",16,slique,SLIQUE,z,1.025,,,,,,0.048148148,-0.419444444,0,0,0,,0,308,308,306,1,
,,,,,,,,,,,,,,,,,,5f85bd6e80e28b067e4e7f6d,2020-12-01_11h25.58.707,lexical_decision_task_MP_exp2,2020.2.8,Win32,60,,m,1,,,,,,,,0.712,1,,,,,,48,WORD,UN,16,survey,WALNUT,m,0.712,,,,,,0.048148148,-0.419444444,0,0,0,,0,309,309,227,1,
,,,,,,,,,,,,,,,,,,5f85bd6e80e28b067e4e7f6d,2020-12-01_11h25.58.707,lexical_decision_task_MP_exp2,2020.2.8,Win32,60,,z,0,,,,,,,,0.642,0,,,,,,11,WORD,UN,16,amount,CRUISE,m,0.642,,,,,,0.048148148,-0.419444444,0,0,0,,0,310,310,190,1,
,,,,,,,,,,,,,,,,,,5f85bd6e80e28b067e4e7f6d,2020-12-01_11h25.58.707,lexical_decision_task_MP_exp2,2020.2.8,Win32,60,,m,1,,,,,,,,0.69,1,,,,,,9,WORD,UN,16,bridge,HUSTLE,m,0.69,,,,,,0.048148148,-0.419444444,0,0,0,,0,311,311,188,1,
,,,,,,,,,,,,,,,,,,5f85bd6e80e28b067e4e7f6d,2020-12-01_11h25.58.707,lexical_decision_task_MP_exp2,2020.2.8,Win32,60,,m,1,,,,,,,,0.814,1,,,,,,163,WORD,"ID",16,string,STRING,m,0.814,,,,,,0.048148148,-0.419444444,0,0,0,,0,312,312,102,1,
,,,,,,,,,,,,,,,,,,5f85bd6e80e28b067e4e7f6d,2020-12-01_11h25.58.707,lexical_decision_task_MP_exp2,2020.2.8,Win32,60,,m,0,,,,,,,,0.898,0,,,,,,254,NW,UN,16,apight,VAROSH,z,0.898,,,,,,0.048148148,-0.419444444,0,0,0,,0,313,313,433,1,
,,,,,,,,,,,,,,,,,,5f85bd6e80e28b067e4e7f6d,2020-12-01_11h25.58.707,lexical_decision_task_MP_exp2,2020.2.8,Win32,60,,z,0,,,,,,,,0.935,0,,,,,,121,WORD,"ID",16,thrive,THRIVE,m,0.935,,,,,,0.048148148,-0.419444444,0,0,0,,0,314,314,60,1,
,,,,,,,,,,,,,,,,,,5f85bd6e80e28b067e4e7f6d,2020-12-01_11h25.58.707,lexical_decision_task_MP_exp2,2020.2.8,Win32,60,,z,1,,,,,,,,0.95,1,,,,,,466,NW,UN,33,robuly,HOCITE,z,0.95,,,,,,0.048148148,-0.419444444,0,0,0,,0,315,315,405,1,
,,,,,,,,,,,,,,,,,,5f85bd6e80e28b067e4e7f6d,2020-12-01_11h25.58.707,lexical_decision_task_MP_exp2,2020.2.8,Win32,60,,m,0,,,,,,,,0.667,0,,,,,,375,NW,"ID",16,yorque,YORQUE,z,0.667,,,,,,0.048148148,-0.419444444,0,0,0,,0,316,316,314,1,
,,,,,,,,,,,,,,,,,,5f85bd6e80e28b067e4e7f6d,2020-12-01_11h25.58.707,lexical_decision_task_MP_exp2,2020.2.8,Win32,60,,m,1,,,,,,,,0.839,1,,,,,,160,WORD,"ID",16,violet,VIOLET,m,0.839,,,,,,0.048148148,-0.419444444,0,0,0,,0,317,317,99,1,
,,,,,,,,,,,,,,,,,,5f85bd6e80e28b067e4e7f6d,2020-12-01_11h25.58.707,lexical_decision_task_MP_exp2,2020.2.8,Win32,60,,m,1,,,,,,,,0.758,1,,,,,,153,WORD,"ID",16,behold,BEHOLD,m,0.758,,,,,,0.048148148,-0.419444444,0,0,0,,0,318,318,92,1,
,,,,,,,,,,,,,,,,,,5f85bd6e80e28b067e4e7f6d,2020-12-01_11h25.58.707,lexical_decision_task_MP_exp2,2020.2.8,Win32,60,,z,1,,,,,,,,0.617,1,,,,,,368,NW,"ID",16,hornal,HORNAL,z,0.617,,,,,,0.048148148,-0.419444444,0,0,0,,0,319,319,307,1,
,,,,,,,,,,,,,,,,,,5f85bd6e80e28b067e4e7f6d,2020-12-01_11h25.58.707,lexical_decision_task_MP_exp2,2020.2.8,Win32,60,,z,0,,,,,,,,0.871,0,,,,,,33,WORD,UN,16,jungle,BUTLER,m,0.871,,,,,,0.048148148,-0.419444444,0,0,0,,0,320,320,212,1,
,,,,,,,,,,,,,,,,,,5f85bd6e80e28b067e4e7f6d,2020-12-01_11h25.58.707,lexical_decision_task_MP_exp2,2020.2.8,Win32,60,,m,0,,,,,,,,0.744,0,,,,,,419,NW,"ID",16,slount,SLOUNT,z,0.744,,,,,,0.048148148,-0.419444444,0,0,0,,0,321,321,358,1,
,,,,,,,,,,,,,,,,,,5f85bd6e80e28b067e4e7f6d,2020-12-01_11h25.58.707,lexical_decision_task_MP_exp2,2020.2.8,Win32,60,,m,1,,,,,,,,0.782,1,,,,,,146,WORD,"ID",16,couple,COUPLE,m,0.782,,,,,,0.048148148,-0.419444444,0,0,0,,0,322,322,85,1,
,,,,,,,,,,,,,,,,,,5f85bd6e80e28b067e4e7f6d,2020-12-01_11h25.58.707,lexical_decision_task_MP_exp2,2020.2.8,Win32,60,,z,0,,,,,,,,0.874,0,,,,,,218,WORD,UN,33,bucket,SHRINK,m,0.874,,,,,,0.048148148,-0.419444444,0,0,0,,0,323,323,157,1,
,,,,,,,,,,,,,,,,,,5f85bd6e80e28b067e4e7f6d,2020-12-01_11h25.58.707,lexical_decision_task_MP_exp2,2020.2.8,Win32,60,,z,0,,,,,,,,1.01,0,,,,,,177,WORD,"ID",16,advent,ADVENT,m,1.01,,,,,,0.048148148,-0.419444444,0,0,0,,0,324,324,116,1,
,,,,,,,,,,,,,,,,,,5f85bd6e80e28b067e4e7f6d,2020-12-01_11h25.58.707,lexical_decision_task_MP_exp2,2020.2.8,Win32,60,,z,1,,,,,,,,0.825,1,,,,,,329,NW,"ID",33,yarike,YARIKE,z,0.825,,,,,,0.048148148,-0.419444444,0,0,0,,0,325,325,268,1,
,,,,,,,,,,,,,,,,,,5f85bd6e80e28b067e4e7f6d,2020-12-01_11h25.58.707,lexical_decision_task_MP_exp2,2020.2.8,Win32,60,,z,0,,,,,,,,0.975,0,,,,,,50,WORD,UN,16,hungry,SNATCH,m,0.975,,,,,,0.048148148,-0.419444444,0,0,0,,0,326,326,229,1,
,,,,,,,,,,,,,,,,,,5f85bd6e80e28b067e4e7f6d,2020-12-01_11h25.58.707,lexical_decision_task_MP_exp2,2020.2.8,Win32,60,,z,0,,,,,,,,1.041,0,,,,,,179,WORD,"ID",16,basket,BASKET,m,1.041,,,,,,0.048148148,-0.419444444,0,0,0,,0,327,327,118,1,
,,,,,,,,,,,,,,,,,,5f85bd6e80e28b067e4e7f6d,2020-12-01_11h25.58.707,lexical_decision_task_MP_exp2,2020.2.8,Win32,60,,z,0,,,,,,,,0.998,0,,,,,,149,WORD,"ID",16,invade,INVADE,m,0.998,,,,,,0.048148148,-0.419444444,0,0,0,,0,328,328,88,1,
,,,,,,,,,,,,,,,,,,5f85bd6e80e28b067e4e7f6d,2020-12-01_11h25.58.707,lexical_decision_task_MP_exp2,2020.2.8,Win32,60,,m,0,,,,,,,,0.749,0,,,,,,360,NW,"ID",33,desory,DESORY,z,0.749,,,,,,0.048148148,-0.419444444,0,0,0,,0,329,329,299,1,
,,,,,,,,,,,,,,,,,,5f85bd6e80e28b067e4e7f6d,2020-12-01_11h25.58.707,lexical_decision_task_MP_exp2,2020.2.8,Win32,60,,m,0,,,,,,,,1.236,0,,,,,,328,NW,"ID",33,broake,BROAKE,z,1.236,,,,,,0.048148148,-0.419444444,0,0,0,,0,330,330,267,1,
,,,,,,,,,,,,,,,,,,5f85bd6e80e28b067e4e7f6d,2020-12-01_11h25.58.707,lexical_decision_task_MP_exp2,2020.2.8,Win32,60,,m,0,,,,,,,,0.788,0,,,,,,274,NW,UN,16,sleirt,FUMBLO,z,0.788,,,,,,0.048148148,-0.419444444,0,0,0,,0,331,331,453,1,
,,,,,,,,,,,,,,,,,,5f85bd6e80e28b067e4e7f6d,2020-12-01_11h25.58.707,lexical_decision_task_MP_exp2,2020.2.8,Win32,60,,z,1,,,,,,,,0.606,1,,,,,,403,NW,"ID",16,bruats,BRUATS,z,0.606,,,,,,0.048148148,-0.419444444,0,0,0,,0,332,332,342,1,
,,,,,,,,,,,,,,,,,,5f85bd6e80e28b067e4e7f6d,2020-12-01_11h25.58.707,lexical_decision_task_MP_exp2,2020.2.8,Win32,60,,m,0,,,,,,,,1.009,0,,,,,,253,NW,UN,16,varosh,RESAIT,z,1.009,,,,,,0.048148148,-0.419444444,0,0,0,,0,333,333,432,1,
,,,,,,,,,,,,,,,,,,5f85bd6e80e28b067e4e7f6d,2020-12-01_11h25.58.707,lexical_decision_task_MP_exp2,2020.2.8,Win32,60,,z,0,,,,,,,,0.878,0,,,,,,114,WORD,"ID",33,placid,PLACID,m,0.878,,,,,,0.048148148,-0.419444444,0,0,0,,0,334,334,53,1,
,,,,,,,,,,,,,,,,,,5f85bd6e80e28b067e4e7f6d,2020-12-01_11h25.58.707,lexical_decision_task_MP_exp2,2020.2.8,Win32,60,,m,0,,,,,,,,0.689,0,,,,,,246,NW,UN,16,blarge,PIATON,z,0.689,,,,,,0.048148148,-0.419444444,0,0,0,,0,335,335,425,1,
,,,,,,,,,,,,,,,,,,5f85bd6e80e28b067e4e7f6d,2020-12-01_11h25.58.707,lexical_decision_task_MP_exp2,2020.2.8,Win32,60,,m,0,,,,,,,,0.874,0,,,,,,407,NW,"ID",16,suiver,SUIVER,z,0.874,,,,,,0.048148148,-0.419444444,0,0,0,,0,336,336,346,1,
,,,,,,,,,,,,,,,,,,5f85bd6e80e28b067e4e7f6d,2020-12-01_11h25.58.707,lexical_decision_task_MP_exp2,2020.2.8,Win32,60,,m,1,,,,,,,,0.839,1,,,,,,180,WORD,"ID",16,silent,SILENT,m,0.839,,,,,,0.048148148,-0.419444444,0,0,0,,0,337,337,119,1,
,,,,,,,,,,,,,,,,,,5f85bd6e80e28b067e4e7f6d,2020-12-01_11h25.58.707,lexical_decision_task_MP_exp2,2020.2.8,Win32,60,,z,1,,,,,,,,0.663,1,,,,,,255,NW,UN,16,inlors,APIGHT,z,0.663,,,,,,0.048148148,-0.419444444,0,0,0,,0,338,338,434,1,
,,,,,,,,,,,,,,,,,,5f85bd6e80e28b067e4e7f6d,2020-12-01_11h25.58.707,lexical_decision_task_MP_exp2,2020.2.8,Win32,60,,m,0,,,,,,,,0.789,0,,,,,,376,NW,"ID",16,iguare,IGUARE,z,0.789,,,,,,0.048148148,-0.419444444,0,0,0,,0,339,339,315,1,
,,,,,,,,,,,,,,,,,,5f85bd6e80e28b067e4e7f6d,2020-12-01_11h25.58.707,lexical_decision_task_MP_exp2,2020.2.8,Win32,60,,z,0,,,,,,,,0.367,0,,,,,,46,WORD,UN,16,income,SINGLE,m,0.367,,,,,,0.048148148,-0.419444444,0,0,0,,0,340,340,225,1,
,,,,,,,,,,,,,,,,,,5f85bd6e80e28b067e4e7f6d,2020-12-01_11h25.58.707,lexical_decision_task_MP_exp2,2020.2.8,Win32,60,,m,0,,,,,,,,0.461,0,,,,,,476,NW,UN,33,photie,JOSTED,z,0.461,,,,,,0.048148148,-0.419444444,0,0,0,,0,341,341,415,1,
,,,,,,,,,,,,,,,,,,5f85bd6e80e28b067e4e7f6d,2020-12-01_11h25.58.707,lexical_decision_task_MP_exp2,2020.2.8,Win32,60,,m,1,,,,,,,,0.668,1,,,,,,47,WORD,UN,16,walnut,INCOME,m,0.668,,,,,,0.048148148,-0.419444444,0,0,0,,0,342,342,226,1,
,,,,,,,,,,,,,,,,,,5f85bd6e80e28b067e4e7f6d,2020-12-01_11h25.58.707,lexical_decision_task_MP_exp2,2020.2.8,Win32,60,,m,1,,,,,,,,0.634,1,,,,,,61,WORD,"ID",33,ponder,PONDER,m,0.634,,,,,,0.048148148,-0.419444444,0,0,0,,0,343,343,0,1,
,,,,,,,,,,,,,,,,,,5f85bd6e80e28b067e4e7f6d,2020-12-01_11h25.58.707,lexical_decision_task_MP_exp2,2020.2.8,Win32,60,,m,0,,,,,,,,0.912,0,,,,,,357,NW,"ID",33,derain,DERAIN,z,0.912,,,,,,0.048148148,-0.419444444,0,0,0,,0,344,344,296,1,
,,,,,,,,,,,,,,,,,,5f85bd6e80e28b067e4e7f6d,2020-12-01_11h25.58.707,lexical_decision_task_MP_exp2,2020.2.8,Win32,60,,z,1,,,,,,,,0.806,1,,,,,,363,NW,"ID",16,breali,BREALI,z,0.806,,,,,,0.048148148,-0.419444444,0,0,0,,0,345,345,302,1,
,,,,,,,,,,,,,,,,,,5f85bd6e80e28b067e4e7f6d,2020-12-01_11h25.58.707,lexical_decision_task_MP_exp2,2020.2.8,Win32,60,,m,1,,,,,,,,0.633,1,,,,,,147,WORD,"ID",16,garlic,GARLIC,m,0.633,,,,,,0.048148148,-0.419444444,0,0,0,,0,346,346,86,1,
,,,,,,,,,,,,,,,,,,5f85bd6e80e28b067e4e7f6d,2020-12-01_11h25.58.707,lexical_decision_task_MP_exp2,2020.2.8,Win32,60,,m,1,,,,,,,,0.743,1,,,,,,15,WORD,UN,16,faucet,AMOUNT,m,0.743,,,,,,0.048148148,-0.419444444,0,0,0,,0,347,347,194,1,
,,,,,,,,,,,,,,,,,,5f85bd6e80e28b067e4e7f6d,2020-12-01_11h25.58.707,lexical_decision_task_MP_exp2,2020.2.8,Win32,60,,z,1,,,,,,,,0.989,1,,,,,,316,NW,"ID",33,scregm,SCREGM,z,0.989,,,,,,0.048148148,-0.419444444,0,0,0,,0,348,348,255,1,
,,,,,,,,,,,,,,,,,,5f85bd6e80e28b067e4e7f6d,2020-12-01_11h25.58.707,lexical_decision_task_MP_exp2,2020.2.8,Win32,60,,m,1,,,,,,,,0.745,1,,,,,,51,WORD,UN,16,impose,HUNGRY,m,0.745,,,,,,0.048148148,-0.419444444,0,0,0,,0,349,349,230,1,
,,,,,,,,,,,,,,,,,,5f85bd6e80e28b067e4e7f6d,2020-12-01_11h25.58.707,lexical_decision_task_MP_exp2,2020.2.8,Win32,60,,m,1,,,,,,,,1.17,1,,,,,,77,WORD,"ID",33,racket,RACKET,m,1.17,,,,,,0.048148148,-0.419444444,0,0,0,,0,350,350,16,1,
,,,,,,,,,,,,,,,,,,5f85bd6e80e28b067e4e7f6d,2020-12-01_11h25.58.707,lexical_decision_task_MP_exp2,2020.2.8,Win32,60,,z,0,,,,,,,,0.631,0,,,,,,176,WORD,"ID",16,strife,STRIFE,m,0.631,,,,,,0.048148148,-0.419444444,0,0,0,,0,351,351,115,1,
,,,,,,,,,,,,,,,,,,5f85bd6e80e28b067e4e7f6d,2020-12-01_11h25.58.707,lexical_decision_task_MP_exp2,2020.2.8,Win32,60,,m,0,,,,,,,,0.71,0,,,,,,446,NW,UN,33,gircue,RUNAMO,z,0.71,,,,,,0.048148148,-0.419444444,0,0,0,,0,352,352,385,1,
,,,,,,,,,,,,,,,,,,5f85bd6e80e28b067e4e7f6d,2020-12-01_11h25.58.707,lexical_decision_task_MP_exp2,2020.2.8,Win32,60,,z,1,,,,,,,,0.561,1,,,,,,349,NW,"ID",33,asylen,ASYLEN,z,0.561,,,,,,0.048148148,-0.419444444,0,0,0,,0,353,353,288,1,
,,,,,,,,,,,,,,,,,,5f85bd6e80e28b067e4e7f6d,2020-12-01_11h25.58.707,lexical_decision_task_MP_exp2,2020.2.8,Win32,60,,m,1,,,,,,,,0.691,1,,,,,,182,WORD,UN,33,absent,WINTER,m,0.691,,,,,,0.048148148,-0.419444444,0,0,0,,0,354,354,121,1,
,,,,,,,,,,,,,,,,,,5f85bd6e80e28b067e4e7f6d,2020-12-01_11h25.58.707,lexical_decision_task_MP_exp2,2020.2.8,Win32,60,,z,0,,,,,,,,0.701,0,,,,,,55,WORD,UN,16,ambush,STROKE,m,0.701,,,,,,0.048148148,-0.419444444,0,0,0,,0,355,355,234,1,
,,,,,,,,,,,,,,,,,,5f85bd6e80e28b067e4e7f6d,2020-12-01_11h25.58.707,lexical_decision_task_MP_exp2,2020.2.8,Win32,60,,m,1,,,,,,,,0.709,1,,,,,,174,WORD,"ID",16,turkey,TURKEY,m,0.709,,,,,,0.048148148,-0.419444444,0,0,0,,0,356,356,113,1,
,,,,,,,,,,,,,,,,,,5f85bd6e80e28b067e4e7f6d,2020-12-01_11h25.58.707,lexical_decision_task_MP_exp2,2020.2.8,Win32,60,,m,1,,,,,,,,0.925,1,,,,,,162,WORD,"ID",16,candle,CANDLE,m,0.925,,,,,,0.048148148,-0.419444444,0,0,0,,0,357,357,101,1,
,,,,,,,,,,,,,,,,,,5f85bd6e80e28b067e4e7f6d,2020-12-01_11h25.58.707,lexical_decision_task_MP_exp2,2020.2.8,Win32,60,,m,0,,,,,,,,0.849,0,,,,,,467,NW,UN,33,wictor,GORBIE,z,0.849,,,,,,0.048148148,-0.419444444,0,0,0,,0,358,358,406,1,
,,,,,,,,,,,,,,,,,,5f85bd6e80e28b067e4e7f6d,2020-12-01_11h25.58.707,lexical_decision_task_MP_exp2,2020.2.8,Win32,60,,z,0,,,,,,,,0.803,0,,,,,,100,WORD,"ID",33,carbon,CARBON,m,0.803,,,,,,0.048148148,-0.419444444,0,0,0,,0,359,359,39,1,
,,,,,,,,,,,,,,,,,,5f85bd6e80e28b067e4e7f6d,2020-12-01_11h25.58.707,lexical_decision_task_MP_exp2,2020.2.8,Win32,60,,m,1,,,,,,,,0.723,1,,,,,,196,WORD,UN,33,stream,CREDIT,m,0.723,,,,,,0.048148148,-0.419444444,0,0,0,,0,360,360,135,1,
,,,,,,,,,,,,,,,,,,5f85bd6e80e28b067e4e7f6d,2020-12-01_11h25.58.707,lexical_decision_task_MP_exp2,2020.2.8,Win32,60,,m,0,,,,,,,,1.141,0,,,,,,371,NW,"ID",16,geiloy,GEILOY,z,1.141,,,,,,0.048148148,-0.419444444,0,0,0,,0,361,361,310,1,
,,,,,,,,,,,,,,,,,,5f85bd6e80e28b067e4e7f6d,2020-12-01_11h25.58.707,lexical_decision_task_MP_exp2,2020.2.8,Win32,60,,m,0,,,,,,,,0.712,0,,,,,,309,NW,"ID",33,amiloy,AMILOY,z,0.712,,,,,,0.048148148,-0.419444444,0,0,0,space,0,362,362,248,1,4.853
,,,,,,,,,,,,,,,,,,5f85bd6e80e28b067e4e7f6d,2020-12-01_11h25.58.707,lexical_decision_task_MP_exp2,2020.2.8,Win32,60,,m,0,,,,,,,,0.958,0,,,,,,429,NW,UN,33,caroey,FUNTLE,z,0.958,,,,,,0.048148148,-0.419444444,0,0,0,,0,363,363,368,1,
,,,,,,,,,,,,,,,,,,5f85bd6e80e28b067e4e7f6d,2020-12-01_11h25.58.707,lexical_decision_task_MP_exp2,2020.2.8,Win32,60,,z,1,,,,,,,,0.874,1,,,,,,409,NW,"ID",16,elopia,ELOPIA,z,0.874,,,,,,0.048148148,-0.419444444,0,0,0,,0,364,364,348,1,
,,,,,,,,,,,,,,,,,,5f85bd6e80e28b067e4e7f6d,2020-12-01_11h25.58.707,lexical_decision_task_MP_exp2,2020.2.8,Win32,60,,m,0,,,,,,,,0.973,0,,,,,,268,NW,UN,16,orchet,PACKES,z,0.973,,,,,,0.048148148,-0.419444444,0,0,0,,0,365,365,447,1,
,,,,,,,,,,,,,,,,,,5f85bd6e80e28b067e4e7f6d,2020-12-01_11h25.58.707,lexical_decision_task_MP_exp2,2020.2.8,Win32,60,,m,1,,,,,,,,1.049,1,,,,,,173,WORD,"ID",16,shower,SHOWER,m,1.049,,,,,,0.048148148,-0.419444444,0,0,0,,0,366,366,112,1,
,,,,,,,,,,,,,,,,,,5f85bd6e80e28b067e4e7f6d,2020-12-01_11h25.58.707,lexical_decision_task_MP_exp2,2020.2.8,Win32,60,,m,1,,,,,,,,0.643,1,,,,,,82,WORD,"ID",33,stigma,STIGMA,m,0.643,,,,,,0.048148148,-0.419444444,0,0,0,,0,367,367,21,1,
,,,,,,,,,,,,,,,,,,5f85bd6e80e28b067e4e7f6d,2020-12-01_11h25.58.707,lexical_decision_task_MP_exp2,2020.2.8,Win32,60,,m,0,,,,,,,,0.777,0,,,,,,427,NW,UN,33,tandly,SCHIND,z,0.777,,,,,,0.048148148,-0.419444444,0,0,0,,0,368,368,366,1,
,,,,,,,,,,,,,,,,,,5f85bd6e80e28b067e4e7f6d,2020-12-01_11h25.58.707,lexical_decision_task_MP_exp2,2020.2.8,Win32,60,,m,0,,,,,,,,0.846,0,,,,,,460,NW,UN,33,justre,MINGAR,z,0.846,,,,,,0.048148148,-0.419444444,0,0,0,,0,369,369,399,1,
,,,,,,,,,,,,,,,,,,5f85bd6e80e28b067e4e7f6d,2020-12-01_11h25.58.707,lexical_decision_task_MP_exp2,2020.2.8,Win32,60,,z,0,,,,,,,,0.828,0,,,,,,115,WORD,"ID",33,guitar,GUITAR,m,0.828,,,,,,0.048148148,-0.419444444,0,0,0,,0,370,370,54,1,
,,,,,,,,,,,,,,,,,,5f85bd6e80e28b067e4e7f6d,2020-12-01_11h25.58.707,lexical_decision_task_MP_exp2,2020.2.8,Win32,60,,m,1,,,,,,,,0.783,1,,,,,,134,WORD,"ID",16,staple,STAPLE,m,0.783,,,,,,0.048148148,-0.419444444,0,0,0,,0,371,371,73,1,
,,,,,,,,,,,,,,,,,,5f85bd6e80e28b067e4e7f6d,2020-12-01_11h25.58.707,lexical_decision_task_MP_exp2,2020.2.8,Win32,60,,m,1,,,,,,,,0.909,1,,,,,,71,WORD,"ID",33,garden,GARDEN,m,0.909,,,,,,0.048148148,-0.419444444,0,0,0,,0,372,372,10,1,
,,,,,,,,,,,,,,,,,,5f85bd6e80e28b067e4e7f6d,2020-12-01_11h25.58.707,lexical_decision_task_MP_exp2,2020.2.8,Win32,60,,m,1,,,,,,,,0.845,1,,,,,,228,WORD,UN,33,kidney,MASTER,m,0.845,,,,,,0.048148148,-0.419444444,0,0,0,,0,373,373,167,1,
,,,,,,,,,,,,,,,,,,5f85bd6e80e28b067e4e7f6d,2020-12-01_11h25.58.707,lexical_decision_task_MP_exp2,2020.2.8,Win32,60,,m,1,,,,,,,,0.86,1,,,,,,208,WORD,UN,33,search,HOCKEY,m,0.86,,,,,,0.048148148,-0.419444444,0,0,0,,0,374,374,147,1,
,,,,,,,,,,,,,,,,,,5f85bd6e80e28b067e4e7f6d,2020-12-01_11h25.58.707,lexical_decision_task_MP_exp2,2020.2.8,Win32,60,,m,1,,,,,,,,0.754,1,,,,,,150,WORD,"ID",16,random,RANDOM,m,0.754,,,,,,0.048148148,-0.419444444,0,0,0,,0,375,375,89,1,
,,,,,,,,,,,,,,,,,,5f85bd6e80e28b067e4e7f6d,2020-12-01_11h25.58.707,lexical_decision_task_MP_exp2,2020.2.8,Win32,60,,z,0,,,,,,,,0.78,0,,,,,,85,WORD,"ID",33,sprawl,SPRAWL,m,0.78,,,,,,0.048148148,-0.419444444,0,0,0,,0,376,376,24,1,
,,,,,,,,,,,,,,,,,,5f85bd6e80e28b067e4e7f6d,2020-12-01_11h25.58.707,lexical_decision_task_MP_exp2,2020.2.8,Win32,60,,z,1,,,,,,,,0.972,1,,,,,,445,NW,UN,33,runamo,MINKEL,z,0.972,,,,,,0.048148148,-0.419444444,0,0,0,,0,377,377,384,1,
,,,,,,,,,,,,,,,,,,5f85bd6e80e28b067e4e7f6d,2020-12-01_11h25.58.707,lexical_decision_task_MP_exp2,2020.2.8,Win32,60,,m,0,,,,,,,,1.015,0,,,,,,421,NW,UN,33,alcoud,KNISMA,z,1.015,,,,,,0.048148148,-0.419444444,0,0,0,,0,378,378,360,1,
,,,,,,,,,,,,,,,,,,5f85bd6e80e28b067e4e7f6d,2020-12-01_11h25.58.707,lexical_decision_task_MP_exp2,2020.2.8,Win32,60,,m,0,,,,,,,,0.871,0,,,,,,248,NW,UN,16,batrol,STROLE,z,0.871,,,,,,0.048148148,-0.419444444,0,0,0,,0,379,379,427,1,
,,,,,,,,,,,,,,,,,,5f85bd6e80e28b067e4e7f6d,2020-12-01_11h25.58.707,lexical_decision_task_MP_exp2,2020.2.8,Win32,60,,z,1,,,,,,,,0.774,1,,,,,,260,NW,UN,16,stunch,UNJECT,z,0.774,,,,,,0.048148148,-0.419444444,0,0,0,,0,380,380,439,1,
,,,,,,,,,,,,,,,,,,5f85bd6e80e28b067e4e7f6d,2020-12-01_11h25.58.707,lexical_decision_task_MP_exp2,2020.2.8,Win32,60,,m,0,,,,,,,,0.934,0,,,,,,286,NW,UN,16,nymbel,RELDON,z,0.934,,,,,,0.048148148,-0.419444444,0,0,0,,0,381,381,465,1,
,,,,,,,,,,,,,,,,,,5f85bd6e80e28b067e4e7f6d,2020-12-01_11h25.58.707,lexical_decision_task_MP_exp2,2020.2.8,Win32,60,,m,0,,,,,,,,1.416,0,,,,,,362,NW,"ID",16,tireau,TIREAU,z,1.416,,,,,,0.048148148,-0.419444444,0,0,0,,0,382,382,301,1,
,,,,,,,,,,,,,,,,,,5f85bd6e80e28b067e4e7f6d,2020-12-01_11h25.58.707,lexical_decision_task_MP_exp2,2020.2.8,Win32,60,,z,1,,,,,,,,0.745,1,,,,,,394,NW,"ID",16,spaqux,SPAQUX,z,0.745,,,,,,0.048148148,-0.419444444,0,0,0,,0,383,383,333,1,
,,,,,,,,,,,,,,,,,,5f85bd6e80e28b067e4e7f6d,2020-12-01_11h25.58.707,lexical_decision_task_MP_exp2,2020.2.8,Win32,60,,m,0,,,,,,,,0.929,0,,,,,,335,NW,"ID",33,desion,DESION,z,0.929,,,,,,0.048148148,-0.419444444,0,0,0,,0,384,384,274,1,
,,,,,,,,,,,,,,,,,,5f85bd6e80e28b067e4e7f6d,2020-12-01_11h25.58.707,lexical_decision_task_MP_exp2,2020.2.8,Win32,60,,m,1,,,,,,,,0.976,1,,,,,,169,WORD,"ID",16,genius,GENIUS,m,0.976,,,,,,0.048148148,-0.419444444,0,0,0,,0,385,385,108,1,
,,,,,,,,,,,,,,,,,,5f85bd6e80e28b067e4e7f6d,2020-12-01_11h25.58.707,lexical_decision_task_MP_exp2,2020.2.8,Win32,60,,z,1,,,,,,,,0.802,1,,,,,,327,NW,"ID",33,plenac,PLENAC,z,0.802,,,,,,0.048148148,-0.419444444,0,0,0,,0,386,386,266,1,
,,,,,,,,,,,,,,,,,,5f85bd6e80e28b067e4e7f6d,2020-12-01_11h25.58.707,lexical_decision_task_MP_exp2,2020.2.8,Win32,60,,m,0,,,,,,,,0.839,0,,,,,,324,NW,"ID",33,steikh,STEIKH,z,0.839,,,,,,0.048148148,-0.419444444,0,0,0,,0,387,387,263,1,
,,,,,,,,,,,,,,,,,,5f85bd6e80e28b067e4e7f6d,2020-12-01_11h25.58.707,lexical_decision_task_MP_exp2,2020.2.8,Win32,60,,m,1,,,,,,,,0.867,1,,,,,,34,WORD,UN,16,socket,JUNGLE,m,0.867,,,,,,0.048148148,-0.419444444,0,0,0,,0,388,388,213,1,
,,,,,,,,,,,,,,,,,,5f85bd6e80e28b067e4e7f6d,2020-12-01_11h25.58.707,lexical_decision_task_MP_exp2,2020.2.8,Win32,60,,m,1,,,,,,,,0.763,1,,,,,,23,WORD,UN,16,praise,WEALTH,m,0.763,,,,,,0.048148148,-0.419444444,0,0,0,,0,389,389,202,1,
,,,,,,,,,,,,,,,,,,5f85bd6e80e28b067e4e7f6d,2020-12-01_11h25.58.707,lexical_decision_task_MP_exp2,2020.2.8,Win32,60,,m,0,,,,,,,,1.016,0,,,,,,315,NW,"ID",33,laston,LASTON,z,1.016,,,,,,0.048148148,-0.419444444,0,0,0,,0,390,390,254,1,
,,,,,,,,,,,,,,,,,,5f85bd6e80e28b067e4e7f6d,2020-12-01_11h25.58.707,lexical_decision_task_MP_exp2,2020.2.8,Win32,60,,z,1,,,,,,,,0.99,1,,,,,,389,NW,"ID",16,witmer,WITMER,z,0.99,,,,,,0.048148148,-0.419444444,0,0,0,,0,391,391,328,1,
,,,,,,,,,,,,,,,,,,5f85bd6e80e28b067e4e7f6d,2020-12-01_11h25.58.707,lexical_decision_task_MP_exp2,2020.2.8,Win32,60,,m,1,,,,,,,,0.769,1,,,,,,204,WORD,UN,33,lounge,BURDEN,m,0.769,,,,,,0.048148148,-0.419444444,0,0,0,,0,392,392,143,1,
,,,,,,,,,,,,,,,,,,5f85bd6e80e28b067e4e7f6d,2020-12-01_11h25.58.707,lexical_decision_task_MP_exp2,2020.2.8,Win32,60,,m,1,,,,,,,,0.904,1,,,,,,44,WORD,UN,16,clergy,DANGER,m,0.904,,,,,,0.048148148,-0.419444444,0,0,0,,0,393,393,223,1,
,,,,,,,,,,,,,,,,,,5f85bd6e80e28b067e4e7f6d,2020-12-01_11h25.58.707,lexical_decision_task_MP_exp2,2020.2.8,Win32,60,,m,1,,,,,,,,0.835,1,,,,,,89,WORD,"ID",33,permit,PERMIT,m,0.835,,,,,,0.048148148,-0.419444444,0,0,0,,0,394,394,28,1,
,,,,,,,,,,,,,,,,,,5f85bd6e80e28b067e4e7f6d,2020-12-01_11h25.58.707,lexical_decision_task_MP_exp2,2020.2.8,Win32,60,,z,0,,,,,,,,0.859,0,,,,,,188,WORD,UN,33,censor,SOCIAL,m,0.859,,,,,,0.048148148,-0.419444444,0,0,0,,0,395,395,127,1,
,,,,,,,,,,,,,,,,,,5f85bd6e80e28b067e4e7f6d,2020-12-01_11h25.58.707,lexical_decision_task_MP_exp2,2020.2.8,Win32,60,,m,0,,,,,,,,0.925,0,,,,,,267,NW,UN,16,packes,PASINK,z,0.925,,,,,,0.048148148,-0.419444444,0,0,0,,0,396,396,446,1,
,,,,,,,,,,,,,,,,,,5f85bd6e80e28b067e4e7f6d,2020-12-01_11h25.58.707,lexical_decision_task_MP_exp2,2020.2.8,Win32,60,,z,1,,,,,,,,1.12,1,,,,,,250,NW,UN,16,lupict,MILTED,z,1.12,,,,,,0.048148148,-0.419444444,0,0,0,,0,397,397,429,1,
,,,,,,,,,,,,,,,,,,5f85bd6e80e28b067e4e7f6d,2020-12-01_11h25.58.707,lexical_decision_task_MP_exp2,2020.2.8,Win32,60,,m,1,,,,,,,,0.854,1,,,,,,227,WORD,UN,33,master,SELDOM,m,0.854,,,,,,0.048148148,-0.419444444,0,0,0,,0,398,398,166,1,
,,,,,,,,,,,,,,,,,,5f85bd6e80e28b067e4e7f6d,2020-12-01_11h25.58.707,lexical_decision_task_MP_exp2,2020.2.8,Win32,60,,z,1,,,,,,,,0.842,1,,,,,,242,NW,UN,16,musied,UNWERT,z,0.842,,,,,,0.048148148,-0.419444444,0,0,0,,0,399,399,421,1,
,,,,,,,,,,,,,,,,,,5f85bd6e80e28b067e4e7f6d,2020-12-01_11h25.58.707,lexical_decision_task_MP_exp2,2020.2.8,Win32,60,,m,1,,,,,,,,0.913,1,,,,,,237,WORD,UN,33,glance,POSTER,m,0.913,,,,,,0.048148148,-0.419444444,0,0,0,,0,400,400,176,1,
,,,,,,,,,,,,,,,,,,5f85bd6e80e28b067e4e7f6d,2020-12-01_11h25.58.707,lexical_decision_task_MP_exp2,2020.2.8,Win32,60,,m,1,,,,,,,,0.847,1,,,,,,84,WORD,"ID",33,mortal,MORTAL,m,0.847,,,,,,0.048148148,-0.419444444,0,0,0,,0,401,401,23,1,
,,,,,,,,,,,,,,,,,,5f85bd6e80e28b067e4e7f6d,2020-12-01_11h25.58.707,lexical_decision_task_MP_exp2,2020.2.8,Win32,60,,z,1,,,,,,,,0.812,1,,,,,,451,NW,UN,33,surden,CAINKY,z,0.812,,,,,,0.048148148,-0.419444444,0,0,0,,0,402,402,390,1,
