counterbalancing_condition,instr_done_keyboard.keys,instr_done_touch.x,instr_done_touch.y,instr_done_touch.leftButton,instr_done_touch.midButton,instr_done_touch.rightButton,instr_done_touch.clicked_name,instruction_pages.thisRepN,instruction_pages.thisTrialN,instruction_pages.thisN,instruction_pages.thisIndex,instruction_pages.ran,pageN,phase,instruct_text,has_image,instruct_image,participant,date,expName,psychopyVersion,OS,frameRate,response.keys,response.corr,touch_resp.x,touch_resp.y,touch_resp.leftButton,touch_resp.midButton,touch_resp.rightButton,touch_resp.time,touch_resp.clicked_name,rt,corr,practice_trials.thisRepN,practice_trials.thisTrialN,practice_trials.thisN,practice_trials.thisIndex,practice_trials.ran,TrialID,StimulusType,Condition,PrimeDuration,Prime,Target,corrAns,end_of_practice_trials_pages.thisRepN,end_of_practice_trials_pages.thisTrialN,end_of_practice_trials_pages.thisN,end_of_practice_trials_pages.thisIndex,end_of_practice_trials_pages.ran,break_done_touch.x,break_done_touch.y,break_done_touch.leftButton,break_done_touch.midButton,break_done_touch.rightButton,break_done_keyboard.keys,experiment_trials.thisRepN,experiment_trials.thisTrialN,experiment_trials.thisN,experiment_trials.thisIndex,experiment_trials.ran,break_done_touch.clicked_name,response.rt,break_done_keyboard.rt
2,,0.07,-0.4,1,0,0,instr_done_button,0,0,0,0,1,1,instructions,"INSTRUCTIONS
At the start of each trial, look at the hash marks (######) in the center of the screen. After a moment, a string of letters will appear. Your task is to indicate if the letter string forms a word or not (i.e., if it is a nonword). For example, AUTHOR is a word while AUTHON is a nonword.

Press the space bar or touch the button below to continue.",0,,5f8836a5fb70462a169fc0ac,2020-11-27_16h02.23.683,lexical_decision_task_MP_exp2,2020.2.5,Win32,60,,,,,,,,,,,,,,,,,,,,,,,,,,,,,,,,,,,,,,,,,,
,,-0.003333333,-0.382222222,1,0,0,instr_done_button,0,1,1,1,1,2,instructions,"If your device has a keyboard, press the 'Z' key for nonwords and the 'M' key for words.





Press the space bar or touch the button below to continue.",1,keyboard-example.gif,5f8836a5fb70462a169fc0ac,2020-11-27_16h02.23.683,lexical_decision_task_MP_exp2,2020.2.5,Win32,60,,,,,,,,,,,,,,,,,,,,,,,,,,,,,,,,,,,,,,,,,,
,,-0.003333333,-0.382222222,1,0,0,instr_done_button,0,2,2,2,1,3,instructions,"If you are using a touchscreen only device, use the buttons on the screen. Do not use the mouse.





Press the space bar or touch the button below to continue.",1,touchscreen-example.gif,5f8836a5fb70462a169fc0ac,2020-11-27_16h02.23.683,lexical_decision_task_MP_exp2,2020.2.5,Win32,60,,,,,,,,,,,,,,,,,,,,,,,,,,,,,,,,,,,,,,,,,,
,,-0.032222222,-0.382222222,1,0,0,instr_done_button,0,3,3,3,1,4,instructions,"It is very important that you respond as quickly and accurately as possible, as each letter string will only be on the screen for two seconds. If you do not respond within this time, the message 'Too slow!' will be displayed and the experiment will progress to the next letter string. The first 20 trials will be practice trials and you will receive feedback on your answers. 

Press the space bar or touch the button below to start the practice trials.",0,,5f8836a5fb70462a169fc0ac,2020-11-27_16h02.23.683,lexical_decision_task_MP_exp2,2020.2.5,Win32,60,,,,,,,,,,,,,,,,,,,,,,,,,,,,,,,,,,,,,,,,,,
,,,,,,,,,,,,,,,,,,5f8836a5fb70462a169fc0ac,2020-11-27_16h02.23.683,lexical_decision_task_MP_exp2,2020.2.5,Win32,60,,0,0.368888889,-0.302222222,1,0,0,1.348,button_right,1.348,1,0,0,0,1,1,1002,WORD,"ID",33,adjust,ADJUST,m,,,,,,,,,,,,,,,,,,,
,,,,,,,,,,,,,,,,,,5f8836a5fb70462a169fc0ac,2020-11-27_16h02.23.683,lexical_decision_task_MP_exp2,2020.2.5,Win32,60,,0,-0.283333333,-0.292222222,1,0,0,0.899,button_left,0.899,1,0,1,1,14,1,1015,NW,UN,16,miaber,THRALE,z,,,,,,,,,,,,,,,,,,,
,,,,,,,,,,,,,,,,,,5f8836a5fb70462a169fc0ac,2020-11-27_16h02.23.683,lexical_decision_task_MP_exp2,2020.2.5,Win32,60,,0,0.353333333,-0.275555556,1,0,0,0.699,button_right,0.699,1,0,2,2,3,1,1004,WORD,"ID",16,matrix,MATRIX,m,,,,,,,,,,,,,,,,,,,
,,,,,,,,,,,,,,,,,,5f8836a5fb70462a169fc0ac,2020-11-27_16h02.23.683,lexical_decision_task_MP_exp2,2020.2.5,Win32,60,,0,0.44,-0.258888889,1,0,0,0.699,button_right,0.699,1,0,3,3,5,1,1006,WORD,UN,33,frenzy,OBTAIN,m,,,,,,,,,,,,,,,,,,,
,,,,,,,,,,,,,,,,,,5f8836a5fb70462a169fc0ac,2020-11-27_16h02.23.683,lexical_decision_task_MP_exp2,2020.2.5,Win32,60,,0,0.405555556,-0.281111111,1,0,0,0.6,button_right,0.6,1,0,4,4,7,1,1008,WORD,UN,16,hurdle,VOLUME,m,,,,,,,,,,,,,,,,,,,
,,,,,,,,,,,,,,,,,,5f8836a5fb70462a169fc0ac,2020-11-27_16h02.23.683,lexical_decision_task_MP_exp2,2020.2.5,Win32,60,,0,-0.251111111,-0.287777778,1,0,0,0.815,button_left,0.815,1,0,5,5,12,1,1013,NW,UN,33,adveil,SPRINY,z,,,,,,,,,,,,,,,,,,,
,,,,,,,,,,,,,,,,,,5f8836a5fb70462a169fc0ac,2020-11-27_16h02.23.683,lexical_decision_task_MP_exp2,2020.2.5,Win32,60,,0,0.396666667,-0.284444444,1,0,0,0.965,button_right,0.965,0,0,6,6,11,1,1012,NW,"ID",16,rashet,RASHET,z,,,,,,,,,,,,,,,,,,,
,,,,,,,,,,,,,,,,,,5f8836a5fb70462a169fc0ac,2020-11-27_16h02.23.683,lexical_decision_task_MP_exp2,2020.2.5,Win32,60,,0,-0.332222222,-0.267777778,1,0,0,0.816,button_left,0.816,1,0,7,7,15,1,1016,NW,UN,16,mushed,WHAISE,z,,,,,,,,,,,,,,,,,,,
,,,,,,,,,,,,,,,,,,5f8836a5fb70462a169fc0ac,2020-11-27_16h02.23.683,lexical_decision_task_MP_exp2,2020.2.5,Win32,60,,0,-0.297777778,-0.294444444,1,0,0,0.882,button_left,0.882,1,0,8,8,9,1,1010,NW,"ID",33,fariny,FARINY,z,,,,,,,,,,,,,,,,,,,
,,,,,,,,,,,,,,,,,,5f8836a5fb70462a169fc0ac,2020-11-27_16h02.23.683,lexical_decision_task_MP_exp2,2020.2.5,Win32,60,,0,0.417777778,-0.285555556,1,0,0,1.233,button_right,1.233,0,0,9,9,10,1,1011,NW,"ID",16,inlade,INLADE,z,,,,,,,,,,,,,,,,,,,
,,,,,,,,,,,,,,,,,,5f8836a5fb70462a169fc0ac,2020-11-27_16h02.23.683,lexical_decision_task_MP_exp2,2020.2.5,Win32,60,,0,0.403333333,-0.352222222,1,0,0,0.998,button_right,0.998,1,0,10,10,4,1,1005,WORD,UN,33,abound,SQUEAK,m,,,,,,,,,,,,,,,,,,,
,,,,,,,,,,,,,,,,,,5f8836a5fb70462a169fc0ac,2020-11-27_16h02.23.683,lexical_decision_task_MP_exp2,2020.2.5,Win32,60,,0,-0.252222222,-0.253333333,1,0,0,1.115,button_left,1.115,1,0,11,11,8,1,1009,NW,"ID",33,aslert,ASLERT,z,,,,,,,,,,,,,,,,,,,
,,,,,,,,,,,,,,,,,,5f8836a5fb70462a169fc0ac,2020-11-27_16h02.23.683,lexical_decision_task_MP_exp2,2020.2.5,Win32,60,,0,-0.273333333,-0.295555556,1,0,0,0.933,button_left,0.933,1,0,12,12,13,1,1014,NW,UN,33,winfer,ROUPET,z,,,,,,,,,,,,,,,,,,,
,,,,,,,,,,,,,,,,,,5f8836a5fb70462a169fc0ac,2020-11-27_16h02.23.683,lexical_decision_task_MP_exp2,2020.2.5,Win32,60,,0,0.334444444,-0.31,1,0,0,0.633,button_right,0.633,1,0,13,13,2,1,1003,WORD,"ID",16,almond,ALMOND,m,,,,,,,,,,,,,,,,,,,
,,,,,,,,,,,,,,,,,,5f8836a5fb70462a169fc0ac,2020-11-27_16h02.23.683,lexical_decision_task_MP_exp2,2020.2.5,Win32,60,,0,0.304444444,-0.281111111,1,0,0,1.232,button_right,1.232,1,0,14,14,0,1,1001,WORD,"ID",33,utopia,UTOPIA,m,,,,,,,,,,,,,,,,,,,
,,,,,,,,,,,,,,,,,,5f8836a5fb70462a169fc0ac,2020-11-27_16h02.23.683,lexical_decision_task_MP_exp2,2020.2.5,Win32,60,,0,0.344444444,-0.337777778,1,0,0,0.881,button_right,0.881,1,0,15,15,6,1,1007,WORD,UN,16,tropic,ZOMBIE,m,,,,,,,,,,,,,,,,,,,
,,0.028888889,-0.406666667,1,0,0,instr_done_button,,,,,,1,end_of_practice,"You have completed the practice trials. During the experimental trials, you will not receive feedback, but it is very important that you respond as quickly and accurately as possible. 
Before you begin, please ensure that you are in a comfortable and quiet location and will not be disturbed for about 15 minutes, as we cannot use your data if you do not complete all the trials. 
There will be opportunities to take breaks at regular intervals during the experiment. When you are ready to start the experimental trials, please press space or touch the button below.",,,5f8836a5fb70462a169fc0ac,2020-11-27_16h02.23.683,lexical_decision_task_MP_exp2,2020.2.5,Win32,60,,,,,,,,,,,,,,,,,,,,,,,,0,0,0,0,1,,,,,,,,,,,,,,
,,,,,,,,,,,,,,,,,,5f8836a5fb70462a169fc0ac,2020-11-27_16h02.23.683,lexical_decision_task_MP_exp2,2020.2.5,Win32,60,,0,0.34,-0.323333333,1,0,0,0.749,button_right,0.749,1,,,,,,208,WORD,UN,33,search,HOCKEY,m,,,,,,0.34,-0.323333333,1,0,0,,0,0,0,147,1,,,
,,,,,,,,,,,,,,,,,,5f8836a5fb70462a169fc0ac,2020-11-27_16h02.23.683,lexical_decision_task_MP_exp2,2020.2.5,Win32,60,,0,-0.292222222,-0.282222222,1,0,0,1.115,button_left,1.115,1,,,,,,477,NW,UN,33,lobush,PHOTIE,z,,,,,,-0.292222222,-0.282222222,1,0,0,,0,1,1,416,1,,,
,,,,,,,,,,,,,,,,,,5f8836a5fb70462a169fc0ac,2020-11-27_16h02.23.683,lexical_decision_task_MP_exp2,2020.2.5,Win32,60,,0,0.351111111,-0.332222222,1,0,0,0.782,button_right,0.782,1,,,,,,155,WORD,"ID",16,lizard,LIZARD,m,,,,,,0.351111111,-0.332222222,1,0,0,,0,2,2,94,1,,,
,,,,,,,,,,,,,,,,,,5f8836a5fb70462a169fc0ac,2020-11-27_16h02.23.683,lexical_decision_task_MP_exp2,2020.2.5,Win32,60,,0,0.332222222,-0.317777778,1,0,0,0.583,button_right,0.583,1,,,,,,80,WORD,"ID",33,family,FAMILY,m,,,,,,0.332222222,-0.317777778,1,0,0,,0,3,3,19,1,,,
,,,,,,,,,,,,,,,,,,5f8836a5fb70462a169fc0ac,2020-11-27_16h02.23.683,lexical_decision_task_MP_exp2,2020.2.5,Win32,60,,0,-0.315555556,-0.3,1,0,0,0.732,button_left,0.732,1,,,,,,316,NW,"ID",33,scregm,SCREGM,z,,,,,,-0.315555556,-0.3,1,0,0,,0,4,4,255,1,,,
,,,,,,,,,,,,,,,,,,5f8836a5fb70462a169fc0ac,2020-11-27_16h02.23.683,lexical_decision_task_MP_exp2,2020.2.5,Win32,60,,0,-0.31,-0.334444444,1,0,0,0.716,button_left,0.716,1,,,,,,375,NW,"ID",16,yorque,YORQUE,z,,,,,,-0.31,-0.334444444,1,0,0,,0,5,5,314,1,,,
,,,,,,,,,,,,,,,,,,5f8836a5fb70462a169fc0ac,2020-11-27_16h02.23.683,lexical_decision_task_MP_exp2,2020.2.5,Win32,60,,0,0.37,-0.33,1,0,0,1.082,button_right,1.082,0,,,,,,382,NW,"ID",16,sarley,SARLEY,z,,,,,,0.37,-0.33,1,0,0,,0,6,6,321,1,,,
,,,,,,,,,,,,,,,,,,5f8836a5fb70462a169fc0ac,2020-11-27_16h02.23.683,lexical_decision_task_MP_exp2,2020.2.5,Win32,60,,0,-0.282222222,-0.29,1,0,0,0.816,button_left,0.816,1,,,,,,442,NW,UN,33,dorsex,ABOUNE,z,,,,,,-0.282222222,-0.29,1,0,0,,0,7,7,381,1,,,
,,,,,,,,,,,,,,,,,,5f8836a5fb70462a169fc0ac,2020-11-27_16h02.23.683,lexical_decision_task_MP_exp2,2020.2.5,Win32,60,,0,-0.231111111,-0.304444444,1,0,0,1.016,button_left,1.016,1,,,,,,274,NW,UN,16,sleirt,FUMBLO,z,,,,,,-0.231111111,-0.304444444,1,0,0,,0,8,8,453,1,,,
,,,,,,,,,,,,,,,,,,5f8836a5fb70462a169fc0ac,2020-11-27_16h02.23.683,lexical_decision_task_MP_exp2,2020.2.5,Win32,60,,0,0.285555556,-0.283333333,1,0,0,0.749,button_right,0.749,0,,,,,,386,NW,"ID",16,ancust,ANCUST,z,,,,,,0.285555556,-0.283333333,1,0,0,,0,9,9,325,1,,,
,,,,,,,,,,,,,,,,,,5f8836a5fb70462a169fc0ac,2020-11-27_16h02.23.683,lexical_decision_task_MP_exp2,2020.2.5,Win32,60,,0,0.292222222,-0.281111111,1,0,0,0.749,button_right,0.749,1,,,,,,46,WORD,UN,16,income,SINGLE,m,,,,,,0.292222222,-0.281111111,1,0,0,,0,10,10,225,1,,,
,,,,,,,,,,,,,,,,,,5f8836a5fb70462a169fc0ac,2020-11-27_16h02.23.683,lexical_decision_task_MP_exp2,2020.2.5,Win32,60,,0,-0.175555556,-0.32,1,0,0,0.883,button_left,0.883,1,,,,,,372,NW,"ID",16,ramily,RAMILY,z,,,,,,-0.296666667,-0.302222222,1,0,0,,0,11,11,311,1,,,
,,,,,,,,,,,,,,,,,,5f8836a5fb70462a169fc0ac,2020-11-27_16h02.23.683,lexical_decision_task_MP_exp2,2020.2.5,Win32,60,,0,-0.35,-0.316666667,1,0,0,1.166,button_left,1.166,1,,,,,,414,NW,"ID",16,serbol,SERBOL,z,,,,,,-0.35,-0.316666667,1,0,0,,0,12,12,353,1,,,
,,,,,,,,,,,,,,,,,,5f8836a5fb70462a169fc0ac,2020-11-27_16h02.23.683,lexical_decision_task_MP_exp2,2020.2.5,Win32,60,,0,0.273333333,-0.304444444,1,0,0,0.615,button_right,0.615,1,,,,,,30,WORD,UN,16,weapon,ORIENT,m,,,,,,0.273333333,-0.304444444,1,0,0,,0,13,13,209,1,,,
,,,,,,,,,,,,,,,,,,5f8836a5fb70462a169fc0ac,2020-11-27_16h02.23.683,lexical_decision_task_MP_exp2,2020.2.5,Win32,60,,0,0.314444444,-0.267777778,1,0,0,0.832,button_right,0.832,1,,,,,,70,WORD,"ID",33,square,SQUARE,m,,,,,,0.314444444,-0.267777778,1,0,0,,0,14,14,9,1,,,
,,,,,,,,,,,,,,,,,,5f8836a5fb70462a169fc0ac,2020-11-27_16h02.23.683,lexical_decision_task_MP_exp2,2020.2.5,Win32,60,,0,0.336666667,-0.283333333,1,0,0,0.699,button_right,0.699,1,,,,,,167,WORD,"ID",16,design,DESIGN,m,,,,,,0.336666667,-0.283333333,1,0,0,,0,15,15,106,1,,,
,,,,,,,,,,,,,,,,,,5f8836a5fb70462a169fc0ac,2020-11-27_16h02.23.683,lexical_decision_task_MP_exp2,2020.2.5,Win32,60,,0,0.33,-0.353333333,1,0,0,1.265,button_right,1.265,1,,,,,,21,WORD,UN,16,jockey,SIMPLE,m,,,,,,0.33,-0.353333333,1,0,0,,0,16,16,200,1,,,
,,,,,,,,,,,,,,,,,,5f8836a5fb70462a169fc0ac,2020-11-27_16h02.23.683,lexical_decision_task_MP_exp2,2020.2.5,Win32,60,,0,0.361111111,-0.28,1,0,0,1.25,button_right,1.25,0,,,,,,357,NW,"ID",33,derain,DERAIN,z,,,,,,0.361111111,-0.28,1,0,0,,0,17,17,296,1,,,
,,,,,,,,,,,,,,,,,,5f8836a5fb70462a169fc0ac,2020-11-27_16h02.23.683,lexical_decision_task_MP_exp2,2020.2.5,Win32,60,,0,0.334444444,-0.295555556,1,0,0,0.616,button_right,0.616,1,,,,,,65,WORD,"ID",33,symbol,SYMBOL,m,,,,,,0.334444444,-0.295555556,1,0,0,,0,18,18,4,1,,,
,,,,,,,,,,,,,,,,,,5f8836a5fb70462a169fc0ac,2020-11-27_16h02.23.683,lexical_decision_task_MP_exp2,2020.2.5,Win32,60,,0,-0.265555556,-0.293333333,1,0,0,0.632,button_left,0.632,1,,,,,,457,NW,UN,33,barcet,WANIGH,z,,,,,,-0.265555556,-0.293333333,1,0,0,,0,19,19,396,1,,,
,,,,,,,,,,,,,,,,,,5f8836a5fb70462a169fc0ac,2020-11-27_16h02.23.683,lexical_decision_task_MP_exp2,2020.2.5,Win32,60,,0,0.36,-0.302222222,1,0,0,0.582,button_right,0.582,1,,,,,,53,WORD,UN,16,ramble,POLICE,m,,,,,,0.36,-0.302222222,1,0,0,,0,20,20,232,1,,,
,,,,,,,,,,,,,,,,,,5f8836a5fb70462a169fc0ac,2020-11-27_16h02.23.683,lexical_decision_task_MP_exp2,2020.2.5,Win32,60,,0,0.324444444,-0.27,1,0,0,0.616,button_right,0.616,1,,,,,,39,WORD,UN,16,convey,INSECT,m,,,,,,0.324444444,-0.27,1,0,0,,0,21,21,218,1,,,
,,,,,,,,,,,,,,,,,,5f8836a5fb70462a169fc0ac,2020-11-27_16h02.23.683,lexical_decision_task_MP_exp2,2020.2.5,Win32,60,,0,0.314444444,-0.304444444,1,0,0,0.599,button_right,0.599,1,,,,,,119,WORD,"ID",33,spider,SPIDER,m,,,,,,0.314444444,-0.304444444,1,0,0,,0,22,22,58,1,,,
,,,,,,,,,,,,,,,,,,5f8836a5fb70462a169fc0ac,2020-11-27_16h02.23.683,lexical_decision_task_MP_exp2,2020.2.5,Win32,60,,0,-0.334444444,-0.298888889,1,0,0,0.933,button_left,0.933,1,,,,,,362,NW,"ID",16,tireau,TIREAU,z,,,,,,-0.334444444,-0.298888889,1,0,0,,0,23,23,301,1,,,
,,,,,,,,,,,,,,,,,,5f8836a5fb70462a169fc0ac,2020-11-27_16h02.23.683,lexical_decision_task_MP_exp2,2020.2.5,Win32,60,,0,0.45,-0.271111111,1,0,0,0.832,button_right,0.832,0,,,,,,249,NW,UN,16,milted,BATROL,z,,,,,,0.45,-0.271111111,1,0,0,,0,24,24,428,1,,,
,,,,,,,,,,,,,,,,,,5f8836a5fb70462a169fc0ac,2020-11-27_16h02.23.683,lexical_decision_task_MP_exp2,2020.2.5,Win32,60,,0,0.376666667,-0.343333333,1,0,0,0.615,button_right,0.615,1,,,,,,63,WORD,"ID",33,launch,LAUNCH,m,,,,,,0.376666667,-0.343333333,1,0,0,,0,25,25,2,1,,,
,,,,,,,,,,,,,,,,,,5f8836a5fb70462a169fc0ac,2020-11-27_16h02.23.683,lexical_decision_task_MP_exp2,2020.2.5,Win32,60,,0,-0.244444444,-0.294444444,1,0,0,0.948,button_left,0.948,1,,,,,,428,NW,UN,33,funtle,TANDLY,z,,,,,,-0.244444444,-0.294444444,1,0,0,,0,26,26,367,1,,,
,,,,,,,,,,,,,,,,,,5f8836a5fb70462a169fc0ac,2020-11-27_16h02.23.683,lexical_decision_task_MP_exp2,2020.2.5,Win32,60,,0,-0.28,-0.274444444,1,0,0,0.866,button_left,0.866,1,,,,,,270,NW,UN,16,aubrid,WRIMSY,z,,,,,,-0.28,-0.274444444,1,0,0,,0,27,27,449,1,,,
,,,,,,,,,,,,,,,,,,5f8836a5fb70462a169fc0ac,2020-11-27_16h02.23.683,lexical_decision_task_MP_exp2,2020.2.5,Win32,60,,0,-0.285555556,-0.291111111,1,0,0,0.849,button_left,0.849,1,,,,,,257,NW,UN,16,poluth,VENIOD,z,,,,,,-0.285555556,-0.291111111,1,0,0,,0,28,28,436,1,,,
,,,,,,,,,,,,,,,,,,5f8836a5fb70462a169fc0ac,2020-11-27_16h02.23.683,lexical_decision_task_MP_exp2,2020.2.5,Win32,60,,0,0.358888889,-0.362222222,1,0,0,0.565,button_right,0.565,0,,,,,,259,NW,UN,16,unject,SOUDAL,z,,,,,,0.358888889,-0.362222222,1,0,0,,0,29,29,438,1,,,
,,,,,,,,,,,,,,,,,,5f8836a5fb70462a169fc0ac,2020-11-27_16h02.23.683,lexical_decision_task_MP_exp2,2020.2.5,Win32,60,,0,0.358888889,-0.291111111,1,0,0,0.615,button_right,0.615,1,,,,,,165,WORD,"ID",16,invest,INVEST,m,,,,,,0.358888889,-0.291111111,1,0,0,,0,30,30,104,1,,,
,,,,,,,,,,,,,,,,,,5f8836a5fb70462a169fc0ac,2020-11-27_16h02.23.683,lexical_decision_task_MP_exp2,2020.2.5,Win32,60,,0,0.342222222,-0.296666667,1,0,0,1.249,button_right,1.249,0,,,,,,429,NW,UN,33,caroey,FUNTLE,z,,,,,,0.342222222,-0.296666667,1,0,0,,0,31,31,368,1,,,
,,,,,,,,,,,,,,,,,,5f8836a5fb70462a169fc0ac,2020-11-27_16h02.23.683,lexical_decision_task_MP_exp2,2020.2.5,Win32,60,,0,0.283333333,-0.346666667,1,0,0,1.049,button_right,1.049,1,,,,,,101,WORD,"ID",33,wrench,WRENCH,m,,,,,,0.283333333,-0.346666667,1,0,0,,0,32,32,40,1,,,
,,,,,,,,,,,,,,,,,,5f8836a5fb70462a169fc0ac,2020-11-27_16h02.23.683,lexical_decision_task_MP_exp2,2020.2.5,Win32,60,,0,-0.298888889,-0.273333333,1,0,0,0.999,button_left,0.999,1,,,,,,466,NW,UN,33,robuly,HOCITE,z,,,,,,-0.298888889,-0.273333333,1,0,0,,0,33,33,405,1,,,
,,,,,,,,,,,,,,,,,,5f8836a5fb70462a169fc0ac,2020-11-27_16h02.23.683,lexical_decision_task_MP_exp2,2020.2.5,Win32,60,,0,-0.32,-0.286666667,1,0,0,0.916,button_left,0.916,1,,,,,,462,NW,UN,33,kispel,ABSULT,z,,,,,,-0.32,-0.286666667,1,0,0,,0,34,34,401,1,,,
,,,,,,,,,,,,,,,,,,5f8836a5fb70462a169fc0ac,2020-11-27_16h02.23.683,lexical_decision_task_MP_exp2,2020.2.5,Win32,60,,0,0.33,-0.3,1,0,0,1.965,button_right,1.965,0,,,,,,289,NW,UN,16,splino,STARBY,z,,,,,,0.33,-0.3,1,0,0,,0,35,35,468,1,,,
,,,,,,,,,,,,,,,,,,5f8836a5fb70462a169fc0ac,2020-11-27_16h02.23.683,lexical_decision_task_MP_exp2,2020.2.5,Win32,60,,0,0.322222222,-0.351111111,1,0,0,0.665,button_right,0.665,1,,,,,,62,WORD,"ID",33,region,REGION,m,,,,,,0.322222222,-0.351111111,1,0,0,,0,36,36,1,1,,,
,,,,,,,,,,,,,,,,,,5f8836a5fb70462a169fc0ac,2020-11-27_16h02.23.683,lexical_decision_task_MP_exp2,2020.2.5,Win32,60,,0,0.317777778,-0.301111111,1,0,0,1.066,button_right,1.066,0,,,,,,416,NW,"ID",16,pathel,PATHEL,z,,,,,,0.317777778,-0.301111111,1,0,0,,0,37,37,355,1,,,
,,,,,,,,,,,,,,,,,,5f8836a5fb70462a169fc0ac,2020-11-27_16h02.23.683,lexical_decision_task_MP_exp2,2020.2.5,Win32,60,,0,-0.282222222,-0.263333333,1,0,0,1.282,button_left,1.282,0,,,,,,59,WORD,UN,16,pencil,SPLINT,m,,,,,,-0.282222222,-0.263333333,1,0,0,,0,38,38,238,1,,,
,,,,,,,,,,,,,,,,,,5f8836a5fb70462a169fc0ac,2020-11-27_16h02.23.683,lexical_decision_task_MP_exp2,2020.2.5,Win32,60,,0,-0.244444444,-0.3,1,0,0,0.85,button_left,0.85,1,,,,,,293,NW,UN,16,inhort,SWANCE,z,,,,,,-0.244444444,-0.3,1,0,0,,0,39,39,472,1,,,
,,,,,,,,,,,,,,,,,,5f8836a5fb70462a169fc0ac,2020-11-27_16h02.23.683,lexical_decision_task_MP_exp2,2020.2.5,Win32,60,,0,0.322222222,-0.283333333,1,0,0,0.649,button_right,0.649,1,,,,,,78,WORD,"ID",33,column,COLUMN,m,,,,,,0.322222222,-0.283333333,1,0,0,,0,40,40,17,1,,,
,,,,,,,,,,,,,,,,,,5f8836a5fb70462a169fc0ac,2020-11-27_16h02.23.683,lexical_decision_task_MP_exp2,2020.2.5,Win32,60,,0,-0.283333333,-0.224444444,1,0,0,0.899,button_left,0.899,1,,,,,,326,NW,"ID",33,iguade,IGUADE,z,,,,,,-0.283333333,-0.224444444,1,0,0,,0,41,41,265,1,,,
,,,,,,,,,,,,,,,,,,5f8836a5fb70462a169fc0ac,2020-11-27_16h02.23.683,lexical_decision_task_MP_exp2,2020.2.5,Win32,60,,0,0.278888889,-0.263333333,1,0,0,0.683,button_right,0.683,1,,,,,,58,WORD,UN,16,splint,FOSTER,m,,,,,,0.278888889,-0.263333333,1,0,0,,0,42,42,237,1,,,
,,,,,,,,,,,,,,,,,,5f8836a5fb70462a169fc0ac,2020-11-27_16h02.23.683,lexical_decision_task_MP_exp2,2020.2.5,Win32,60,,0,-0.298888889,-0.274444444,1,0,0,0.782,button_left,0.782,0,,,,,,134,WORD,"ID",16,staple,STAPLE,m,,,,,,-0.298888889,-0.274444444,1,0,0,,0,43,43,73,1,,,
,,,,,,,,,,,,,,,,,,5f8836a5fb70462a169fc0ac,2020-11-27_16h02.23.683,lexical_decision_task_MP_exp2,2020.2.5,Win32,60,,0,0.247777778,-0.284444444,1,0,0,1.949,button_right,1.949,0,,,,,,266,NW,UN,16,pasink,VARMIT,z,,,,,,0.247777778,-0.284444444,1,0,0,,0,44,44,445,1,,,
,,,,,,,,,,,,,,,,,,5f8836a5fb70462a169fc0ac,2020-11-27_16h02.23.683,lexical_decision_task_MP_exp2,2020.2.5,Win32,60,,0,-0.326666667,-0.317777778,1,0,0,0.699,button_left,0.699,1,,,,,,422,NW,UN,33,streld,ALCOUD,z,,,,,,-0.326666667,-0.317777778,1,0,0,,0,45,45,361,1,,,
,,,,,,,,,,,,,,,,,,5f8836a5fb70462a169fc0ac,2020-11-27_16h02.23.683,lexical_decision_task_MP_exp2,2020.2.5,Win32,60,,0,-0.28,-0.271111111,1,0,0,0.767,button_left,0.767,1,,,,,,367,NW,"ID",16,slique,SLIQUE,z,,,,,,-0.28,-0.271111111,1,0,0,,0,46,46,306,1,,,
,,,,,,,,,,,,,,,,,,5f8836a5fb70462a169fc0ac,2020-11-27_16h02.23.683,lexical_decision_task_MP_exp2,2020.2.5,Win32,60,,0,0.274444444,-0.281111111,1,0,0,0.699,button_right,0.699,1,,,,,,79,WORD,"ID",33,theory,THEORY,m,,,,,,0.274444444,-0.281111111,1,0,0,,0,47,47,18,1,,,
,,,,,,,,,,,,,,,,,,5f8836a5fb70462a169fc0ac,2020-11-27_16h02.23.683,lexical_decision_task_MP_exp2,2020.2.5,Win32,60,,0,-0.237777778,-0.277777778,1,0,0,0.932,button_left,0.932,1,,,,,,271,NW,UN,16,damilt,AUBRID,z,,,,,,-0.237777778,-0.277777778,1,0,0,,0,48,48,450,1,,,
,,,,,,,,,,,,,,,,,,5f8836a5fb70462a169fc0ac,2020-11-27_16h02.23.683,lexical_decision_task_MP_exp2,2020.2.5,Win32,60,,0,-0.234444444,-0.276666667,1,0,0,0.598,button_left,0.598,1,,,,,,241,NW,UN,16,unwert,SMENCO,z,,,,,,-0.234444444,-0.276666667,1,0,0,,0,49,49,420,1,,,
,,,,,,,,,,,,,,,,,,5f8836a5fb70462a169fc0ac,2020-11-27_16h02.23.683,lexical_decision_task_MP_exp2,2020.2.5,Win32,60,,0,0.302222222,-0.302222222,1,0,0,0.666,button_right,0.666,1,,,,,,15,WORD,UN,16,faucet,AMOUNT,m,,,,,,0.302222222,-0.302222222,1,0,0,,0,50,50,194,1,,,
,,,,,,,,,,,,,,,,,,5f8836a5fb70462a169fc0ac,2020-11-27_16h02.23.683,lexical_decision_task_MP_exp2,2020.2.5,Win32,60,,0,0.356666667,-0.285555556,1,0,0,0.9,button_right,0.9,1,,,,,,234,WORD,UN,33,poster,CLUMSY,m,,,,,,0.356666667,-0.285555556,1,0,0,,0,51,51,173,1,,,
,,,,,,,,,,,,,,,,,,5f8836a5fb70462a169fc0ac,2020-11-27_16h02.23.683,lexical_decision_task_MP_exp2,2020.2.5,Win32,60,,0,0.342222222,-0.326666667,1,0,0,0.65,button_right,0.65,1,,,,,,88,WORD,"ID",33,hunger,HUNGER,m,,,,,,0.342222222,-0.326666667,1,0,0,,0,52,52,27,1,,,
,,,,,,,,,,,,,,,,,,5f8836a5fb70462a169fc0ac,2020-11-27_16h02.23.683,lexical_decision_task_MP_exp2,2020.2.5,Win32,60,,0,-0.301111111,-0.292222222,1,0,0,1.049,button_left,1.049,1,,,,,,401,NW,"ID",16,mustil,MUSTIL,z,,,,,,-0.301111111,-0.292222222,1,0,0,,0,53,53,340,1,,,
,,,,,,,,,,,,,,,,,,5f8836a5fb70462a169fc0ac,2020-11-27_16h02.23.683,lexical_decision_task_MP_exp2,2020.2.5,Win32,60,,0,0.377777778,-0.317777778,1,0,0,0.683,button_right,0.683,1,,,,,,160,WORD,"ID",16,violet,VIOLET,m,,,,,,0.377777778,-0.317777778,1,0,0,,0,54,54,99,1,,,
,,,,,,,,,,,,,,,,,,5f8836a5fb70462a169fc0ac,2020-11-27_16h02.23.683,lexical_decision_task_MP_exp2,2020.2.5,Win32,60,,0,0.331111111,-0.278888889,1,0,0,0.766,button_right,0.766,1,,,,,,199,WORD,UN,33,plague,INVOKE,m,,,,,,0.331111111,-0.278888889,1,0,0,,0,55,55,138,1,,,
,,,,,,,,,,,,,,,,,,5f8836a5fb70462a169fc0ac,2020-11-27_16h02.23.683,lexical_decision_task_MP_exp2,2020.2.5,Win32,60,,0,0.363333333,-0.283333333,1,0,0,1.165,button_right,1.165,1,,,,,,40,WORD,UN,16,spring,CONVEY,m,,,,,,0.363333333,-0.283333333,1,0,0,,0,56,56,219,1,,,
,,,,,,,,,,,,,,,,,,5f8836a5fb70462a169fc0ac,2020-11-27_16h02.23.683,lexical_decision_task_MP_exp2,2020.2.5,Win32,60,,0,-0.281111111,-0.238888889,1,0,0,0.966,button_left,0.966,0,,,,,,125,WORD,"ID",16,nickel,NICKEL,m,,,,,,-0.281111111,-0.238888889,1,0,0,,0,57,57,64,1,,,
,,,,,,,,,,,,,,,,,,5f8836a5fb70462a169fc0ac,2020-11-27_16h02.23.683,lexical_decision_task_MP_exp2,2020.2.5,Win32,60,,0,,,,,,,,0.966,-1,,,,,,475,NW,UN,33,josted,PEBRIC,z,,,,,,-0.264444444,-0.234444444,0,0,0,,0,58,58,414,1,,,
,,,,,,,,,,,,,,,,,,5f8836a5fb70462a169fc0ac,2020-11-27_16h02.23.683,lexical_decision_task_MP_exp2,2020.2.5,Win32,60,,0,-0.216666667,-0.295555556,1,0,0,0.849,button_left,0.849,1,,,,,,366,NW,"ID",16,toshel,TOSHEL,z,,,,,,-0.216666667,-0.295555556,1,0,0,,0,59,59,305,1,,,
,,,,,,,,,,,,,,,,,,5f8836a5fb70462a169fc0ac,2020-11-27_16h02.23.683,lexical_decision_task_MP_exp2,2020.2.5,Win32,60,,0,0.251111111,-0.264444444,1,0,0,0.566,button_right,0.566,1,,,,,,73,WORD,"ID",33,source,SOURCE,m,,,,,,0.251111111,-0.264444444,1,0,0,,0,60,60,12,1,,,
,,,,,,,,,,,,,,,,,,5f8836a5fb70462a169fc0ac,2020-11-27_16h02.23.683,lexical_decision_task_MP_exp2,2020.2.5,Win32,60,,0,0.358888889,-0.277777778,1,0,0,0.733,button_right,0.733,1,,,,,,219,WORD,UN,33,voyage,BUCKET,m,,,,,,0.358888889,-0.277777778,1,0,0,,0,61,61,158,1,,,
,,,,,,,,,,,,,,,,,,5f8836a5fb70462a169fc0ac,2020-11-27_16h02.23.683,lexical_decision_task_MP_exp2,2020.2.5,Win32,60,,0,-0.28,-0.272222222,1,0,0,0.717,button_left,0.717,1,,,,,,252,NW,UN,16,resait,STAPOD,z,,,,,,-0.28,-0.272222222,1,0,0,,0,62,62,431,1,,,
,,,,,,,,,,,,,,,,,,5f8836a5fb70462a169fc0ac,2020-11-27_16h02.23.683,lexical_decision_task_MP_exp2,2020.2.5,Win32,60,,0,-0.224444444,-0.275555556,1,0,0,0.998,button_left,0.998,1,,,,,,425,NW,UN,33,urivel,FRUDGE,z,,,,,,-0.224444444,-0.275555556,1,0,0,,0,63,63,364,1,,,
,,,,,,,,,,,,,,,,,,5f8836a5fb70462a169fc0ac,2020-11-27_16h02.23.683,lexical_decision_task_MP_exp2,2020.2.5,Win32,60,,0,-0.237777778,-0.305555556,1,0,0,1.282,button_left,1.282,1,,,,,,310,NW,"ID",33,daniet,DANIET,z,,,,,,-0.237777778,-0.305555556,1,0,0,,0,64,64,249,1,,,
,,,,,,,,,,,,,,,,,,5f8836a5fb70462a169fc0ac,2020-11-27_16h02.23.683,lexical_decision_task_MP_exp2,2020.2.5,Win32,60,,0,-0.238888889,-0.305555556,1,0,0,0.866,button_left,0.866,1,,,,,,343,NW,"ID",33,aimosy,AIMOSY,z,,,,,,-0.238888889,-0.305555556,1,0,0,,0,65,65,282,1,,,
,,,,,,,,,,,,,,,,,,5f8836a5fb70462a169fc0ac,2020-11-27_16h02.23.683,lexical_decision_task_MP_exp2,2020.2.5,Win32,60,,0,0.403333333,-0.328888889,1,0,0,0.915,button_right,0.915,1,,,,,,158,WORD,"ID",16,island,ISLAND,m,,,,,,0.403333333,-0.328888889,1,0,0,,0,66,66,97,1,,,
,,,,,,,,,,,,,,,,,,5f8836a5fb70462a169fc0ac,2020-11-27_16h02.23.683,lexical_decision_task_MP_exp2,2020.2.5,Win32,60,,0,0.421111111,-0.302222222,1,0,0,1.032,button_right,1.032,1,,,,,,7,WORD,UN,16,abrupt,ANCHOR,m,,,,,,0.421111111,-0.302222222,1,0,0,,0,67,67,186,1,,,
,,,,,,,,,,,,,,,,,,5f8836a5fb70462a169fc0ac,2020-11-27_16h02.23.683,lexical_decision_task_MP_exp2,2020.2.5,Win32,60,,0,0.418888889,-0.312222222,1,0,0,1.3,button_right,1.3,1,,,,,,235,WORD,UN,33,pirate,GRUMPY,m,,,,,,0.418888889,-0.312222222,1,0,0,,0,68,68,174,1,,,
,,,,,,,,,,,,,,,,,,5f8836a5fb70462a169fc0ac,2020-11-27_16h02.23.683,lexical_decision_task_MP_exp2,2020.2.5,Win32,60,,0,-0.283333333,-0.303333333,1,0,0,0.9,button_left,0.9,1,,,,,,464,NW,UN,33,whivex,CHAITE,z,,,,,,-0.283333333,-0.303333333,1,0,0,,0,69,69,403,1,,,
,,,,,,,,,,,,,,,,,,5f8836a5fb70462a169fc0ac,2020-11-27_16h02.23.683,lexical_decision_task_MP_exp2,2020.2.5,Win32,60,,0,-0.275555556,-0.264444444,1,0,0,0.816,button_left,0.816,1,,,,,,296,NW,UN,16,fertic,BEINCH,z,,,,,,-0.275555556,-0.264444444,1,0,0,,0,70,70,475,1,,,
,,,,,,,,,,,,,,,,,,5f8836a5fb70462a169fc0ac,2020-11-27_16h02.23.683,lexical_decision_task_MP_exp2,2020.2.5,Win32,60,,0,-0.303333333,-0.268888889,1,0,0,0.815,button_left,0.815,1,,,,,,327,NW,"ID",33,plenac,PLENAC,z,,,,,,-0.303333333,-0.268888889,1,0,0,,0,71,71,266,1,,,
,,,,,,,,,,,,,,,,,,5f8836a5fb70462a169fc0ac,2020-11-27_16h02.23.683,lexical_decision_task_MP_exp2,2020.2.5,Win32,60,,0,-0.255555556,-0.297777778,1,0,0,1.033,button_left,1.033,1,,,,,,385,NW,"ID",16,veigma,VEIGMA,z,,,,,,-0.255555556,-0.297777778,1,0,0,,0,72,72,324,1,,,
,,,,,,,,,,,,,,,,,,5f8836a5fb70462a169fc0ac,2020-11-27_16h02.23.683,lexical_decision_task_MP_exp2,2020.2.5,Win32,60,,0,0.442222222,-0.306666667,1,0,0,0.648,button_right,0.648,1,,,,,,133,WORD,"ID",16,chrome,CHROME,m,,,,,,0.442222222,-0.306666667,1,0,0,,0,73,73,72,1,,,
,,,,,,,,,,,,,,,,,,5f8836a5fb70462a169fc0ac,2020-11-27_16h02.23.683,lexical_decision_task_MP_exp2,2020.2.5,Win32,60,,0,-0.28,-0.327777778,1,0,0,0.832,button_left,0.832,1,,,,,,273,NW,UN,16,fumblo,SORTEL,z,,,,,,-0.28,-0.327777778,1,0,0,,0,74,74,452,1,,,
,,,,,,,,,,,,,,,,,,5f8836a5fb70462a169fc0ac,2020-11-27_16h02.23.683,lexical_decision_task_MP_exp2,2020.2.5,Win32,60,,0,-0.283333333,-0.294444444,1,0,0,1.266,button_left,1.266,1,,,,,,454,NW,UN,33,tondle,SCOUGE,z,,,,,,-0.283333333,-0.294444444,1,0,0,,0,75,75,393,1,,,
,,,,,,,,,,,,,,,,,,5f8836a5fb70462a169fc0ac,2020-11-27_16h02.23.683,lexical_decision_task_MP_exp2,2020.2.5,Win32,60,,0,-0.383333333,-0.277777778,1,0,0,0.847,button_left,0.847,1,,,,,,248,NW,UN,16,batrol,STROLE,z,,,,,,-0.383333333,-0.277777778,1,0,0,,0,76,76,427,1,,,
,,,,,,,,,,,,,,,,,,5f8836a5fb70462a169fc0ac,2020-11-27_16h02.23.683,lexical_decision_task_MP_exp2,2020.2.5,Win32,60,,0,-0.346666667,-0.316666667,1,0,0,0.832,button_left,0.832,1,,,,,,430,NW,UN,33,chrums,CAROEY,z,,,,,,-0.346666667,-0.316666667,1,0,0,,0,77,77,369,1,,,
,,,,,,,,,,,,,,,,,,5f8836a5fb70462a169fc0ac,2020-11-27_16h02.23.683,lexical_decision_task_MP_exp2,2020.2.5,Win32,60,,0,-0.366666667,-0.358888889,1,0,0,1.149,button_left,1.149,1,,,,,,460,NW,UN,33,justre,MINGAR,z,,,,,,-0.366666667,-0.358888889,1,0,0,,0,78,78,399,1,,,
,,,,,,,,,,,,,,,,,,5f8836a5fb70462a169fc0ac,2020-11-27_16h02.23.683,lexical_decision_task_MP_exp2,2020.2.5,Win32,60,,0,0.306666667,-0.283333333,1,0,0,0.598,button_right,0.598,1,,,,,,103,WORD,"ID",33,bounce,BOUNCE,m,,,,,,0.306666667,-0.283333333,1,0,0,,0,79,79,42,1,,,
,,,,,,,,,,,,,,,,,,5f8836a5fb70462a169fc0ac,2020-11-27_16h02.23.683,lexical_decision_task_MP_exp2,2020.2.5,Win32,60,,0,0.262222222,-0.304444444,1,0,0,1.433,button_right,1.433,0,,,,,,434,NW,UN,33,impurb,PITROM,z,,,,,,0.262222222,-0.304444444,1,0,0,,0,80,80,373,1,,,
,,,,,,,,,,,,,,,,,,5f8836a5fb70462a169fc0ac,2020-11-27_16h02.23.683,lexical_decision_task_MP_exp2,2020.2.5,Win32,60,,0,-0.266666667,-0.32,1,0,0,1.349,button_left,1.349,1,,,,,,431,NW,UN,33,lunker,CHRUMS,z,,,,,,-0.266666667,-0.32,1,0,0,,0,81,81,370,1,,,
,,,,,,,,,,,,,,,,,,5f8836a5fb70462a169fc0ac,2020-11-27_16h02.23.683,lexical_decision_task_MP_exp2,2020.2.5,Win32,60,,0,0.351111111,-0.293333333,1,0,0,0.75,button_right,0.75,1,,,,,,214,WORD,UN,33,phobia,INTAKE,m,,,,,,0.351111111,-0.293333333,1,0,0,,0,82,82,153,1,,,
,,,,,,,,,,,,,,,,,,5f8836a5fb70462a169fc0ac,2020-11-27_16h02.23.683,lexical_decision_task_MP_exp2,2020.2.5,Win32,60,,0,-0.261111111,-0.268888889,1,0,0,0.715,button_left,0.715,1,,,,,,309,NW,"ID",33,amiloy,AMILOY,z,,,,,,-0.261111111,-0.268888889,1,0,0,,0,83,83,248,1,,,
,,,,,,,,,,,,,,,,,,5f8836a5fb70462a169fc0ac,2020-11-27_16h02.23.683,lexical_decision_task_MP_exp2,2020.2.5,Win32,60,,0,0.22,-0.321111111,1,0,0,0.732,button_right,0.732,0,,,,,,299,NW,UN,16,yarion,STURCH,z,,,,,,0.22,-0.321111111,1,0,0,,0,84,84,478,1,,,
,,,,,,,,,,,,,,,,,,5f8836a5fb70462a169fc0ac,2020-11-27_16h02.23.683,lexical_decision_task_MP_exp2,2020.2.5,Win32,60,,0,-0.292222222,-0.307777778,1,0,0,0.882,button_left,0.882,1,,,,,,255,NW,UN,16,inlors,APIGHT,z,,,,,,-0.292222222,-0.307777778,1,0,0,,0,85,85,434,1,,,
,,,,,,,,,,,,,,,,,,5f8836a5fb70462a169fc0ac,2020-11-27_16h02.23.683,lexical_decision_task_MP_exp2,2020.2.5,Win32,60,,0,0.305555556,-0.281111111,1,0,0,0.899,button_right,0.899,1,,,,,,38,WORD,UN,16,insect,POWDER,m,,,,,,0.305555556,-0.281111111,1,0,0,,0,86,86,217,1,,,
,,,,,,,,,,,,,,,,,,5f8836a5fb70462a169fc0ac,2020-11-27_16h02.23.683,lexical_decision_task_MP_exp2,2020.2.5,Win32,60,,0,-0.234444444,-0.261111111,1,0,0,1.1,button_left,1.1,0,,,,,,74,WORD,"ID",33,plaque,PLAQUE,m,,,,,,-0.234444444,-0.261111111,1,0,0,,0,87,87,13,1,,,
,,,,,,,,,,,,,,,,,,5f8836a5fb70462a169fc0ac,2020-11-27_16h02.23.683,lexical_decision_task_MP_exp2,2020.2.5,Win32,60,,0,0.291111111,-0.295555556,1,0,0,0.932,button_right,0.932,1,,,,,,170,WORD,"ID",16,pounce,POUNCE,m,,,,,,0.291111111,-0.295555556,1,0,0,,0,88,88,109,1,,,
,,,,,,,,,,,,,,,,,,5f8836a5fb70462a169fc0ac,2020-11-27_16h02.23.683,lexical_decision_task_MP_exp2,2020.2.5,Win32,60,,0,0.235555556,-0.264444444,1,0,0,0.599,button_right,0.599,1,,,,,,55,WORD,UN,16,ambush,STROKE,m,,,,,,0.235555556,-0.264444444,1,0,0,,0,89,89,234,1,,,
,,,,,,,,,,,,,,,,,,5f8836a5fb70462a169fc0ac,2020-11-27_16h02.23.683,lexical_decision_task_MP_exp2,2020.2.5,Win32,60,,0,0.321111111,-0.307777778,1,0,0,0.649,button_right,0.649,1,,,,,,173,WORD,"ID",16,shower,SHOWER,m,,,,,,0.321111111,-0.307777778,1,0,0,,0,90,90,112,1,,,
,,,,,,,,,,,,,,,,,,5f8836a5fb70462a169fc0ac,2020-11-27_16h02.23.683,lexical_decision_task_MP_exp2,2020.2.5,Win32,60,,0,-0.356666667,-0.317777778,1,0,0,0.748,button_left,0.748,1,,,,,,406,NW,"ID",16,nouply,NOUPLY,z,,,,,,-0.356666667,-0.317777778,1,0,0,,0,91,91,345,1,,,
,,,,,,,,,,,,,,,,,,5f8836a5fb70462a169fc0ac,2020-11-27_16h02.23.683,lexical_decision_task_MP_exp2,2020.2.5,Win32,60,,0,-0.314444444,-0.265555556,1,0,0,0.899,button_left,0.899,1,,,,,,284,NW,UN,16,prudge,SHAPLE,z,,,,,,-0.314444444,-0.265555556,1,0,0,,0,92,92,463,1,,,
,,,,,,,,,,,,,,,,,,5f8836a5fb70462a169fc0ac,2020-11-27_16h02.23.683,lexical_decision_task_MP_exp2,2020.2.5,Win32,60,,0,0.351111111,-0.281111111,1,0,0,0.632,button_right,0.632,1,,,,,,2,WORD,UN,16,knight,BRIDGE,m,,,,,,0.351111111,-0.281111111,1,0,0,,0,93,93,181,1,,,
,,,,,,,,,,,,,,,,,,5f8836a5fb70462a169fc0ac,2020-11-27_16h02.23.683,lexical_decision_task_MP_exp2,2020.2.5,Win32,60,,0,-0.292222222,-0.331111111,1,0,0,0.732,button_left,0.732,1,,,,,,383,NW,"ID",16,aungre,AUNGRE,z,,,,,,-0.292222222,-0.331111111,1,0,0,,0,94,94,322,1,,,
,,,,,,,,,,,,,,,,,,5f8836a5fb70462a169fc0ac,2020-11-27_16h02.23.683,lexical_decision_task_MP_exp2,2020.2.5,Win32,60,,0,0.332222222,-0.327777778,1,0,0,0.716,button_right,0.716,1,,,,,,94,WORD,"ID",33,travel,TRAVEL,m,,,,,,0.332222222,-0.327777778,1,0,0,,0,95,95,33,1,,,
,,,,,,,,,,,,,,,,,,5f8836a5fb70462a169fc0ac,2020-11-27_16h02.23.683,lexical_decision_task_MP_exp2,2020.2.5,Win32,60,,0,-0.281111111,-0.298888889,1,0,0,0.632,button_left,0.632,1,,,,,,444,NW,UN,33,minkel,JAUNCE,z,,,,,,-0.281111111,-0.298888889,1,0,0,,0,96,96,383,1,,,
,,,,,,,,,,,,,,,,,,5f8836a5fb70462a169fc0ac,2020-11-27_16h02.23.683,lexical_decision_task_MP_exp2,2020.2.5,Win32,60,,0,0.337777778,-0.274444444,1,0,0,0.683,button_right,0.683,1,,,,,,91,WORD,"ID",33,expand,EXPAND,m,,,,,,0.337777778,-0.274444444,1,0,0,,0,97,97,30,1,,,
,,,,,,,,,,,,,,,,,,5f8836a5fb70462a169fc0ac,2020-11-27_16h02.23.683,lexical_decision_task_MP_exp2,2020.2.5,Win32,60,,0,-0.313333333,-0.331111111,1,0,0,1.649,button_left,1.649,1,,,,,,315,NW,"ID",33,laston,LASTON,z,,,,,,-0.313333333,-0.331111111,1,0,0,,0,98,98,254,1,,,
,,,,,,,,,,,,,,,,,,5f8836a5fb70462a169fc0ac,2020-11-27_16h02.23.683,lexical_decision_task_MP_exp2,2020.2.5,Win32,60,,0,0.323333333,-0.237777778,1,0,0,0.6,button_right,0.6,1,,,,,,28,WORD,UN,16,sketch,COMEDY,m,,,,,,0.323333333,-0.237777778,1,0,0,,0,99,99,207,1,,,
,,,,,,,,,,,,,,,,,,5f8836a5fb70462a169fc0ac,2020-11-27_16h02.23.683,lexical_decision_task_MP_exp2,2020.2.5,Win32,60,,0,-0.308888889,-0.297777778,1,0,0,0.698,button_left,0.698,1,,,,,,455,NW,UN,33,broget,TONDLE,z,,,,,,-0.308888889,-0.297777778,1,0,0,,0,100,100,394,1,,,
,,,,,,,,,,,,,,,,,,5f8836a5fb70462a169fc0ac,2020-11-27_16h02.23.683,lexical_decision_task_MP_exp2,2020.2.5,Win32,60,,0,0.355555556,-0.318888889,1,0,0,0.849,button_right,0.849,1,,,,,,215,WORD,UN,33,lumber,PHOBIA,m,,,,,,0.355555556,-0.318888889,1,0,0,,0,101,101,154,1,,,
,,,,,,,,,,,,,,,,,,5f8836a5fb70462a169fc0ac,2020-11-27_16h02.23.683,lexical_decision_task_MP_exp2,2020.2.5,Win32,60,,0,0.364444444,-0.241111111,1,0,0,0.633,button_right,0.633,1,,,,,,25,WORD,UN,16,sprint,DOMAIN,m,,,,,,0.364444444,-0.241111111,1,0,0,,0,102,102,204,1,,,
,,,,,,,,,,,,,,,,,,5f8836a5fb70462a169fc0ac,2020-11-27_16h02.23.683,lexical_decision_task_MP_exp2,2020.2.5,Win32,60,,0,-0.32,-0.273333333,1,0,0,1.016,button_left,1.016,1,,,,,,243,NW,UN,16,eatric,MUSIED,z,,,,,,-0.32,-0.273333333,1,0,0,,0,103,103,422,1,,,
,,,,,,,,,,,,,,,,,,5f8836a5fb70462a169fc0ac,2020-11-27_16h02.23.683,lexical_decision_task_MP_exp2,2020.2.5,Win32,60,,0,0.324444444,-0.322222222,1,0,0,1.016,button_right,1.016,1,,,,,,220,WORD,UN,33,mascot,VOYAGE,m,,,,,,0.324444444,-0.322222222,1,0,0,,0,104,104,159,1,,,
,,,,,,,,,,,,,,,,,,5f8836a5fb70462a169fc0ac,2020-11-27_16h02.23.683,lexical_decision_task_MP_exp2,2020.2.5,Win32,60,,0,0.401111111,-0.266666667,1,0,0,0.616,button_right,0.616,1,,,,,,140,WORD,"ID",16,prince,PRINCE,m,,,,,,0.401111111,-0.266666667,1,0,0,,0,105,105,79,1,,,
,,,,,,,,,,,,,,,,,,5f8836a5fb70462a169fc0ac,2020-11-27_16h02.23.683,lexical_decision_task_MP_exp2,2020.2.5,Win32,60,,0,-0.263333333,-0.298888889,1,0,0,0.698,button_left,0.698,1,,,,,,288,NW,UN,16,starby,YACEUP,z,,,,,,-0.263333333,-0.298888889,1,0,0,,0,106,106,467,1,,,
,,,,,,,,,,,,,,,,,,5f8836a5fb70462a169fc0ac,2020-11-27_16h02.23.683,lexical_decision_task_MP_exp2,2020.2.5,Win32,60,,0,-0.274444444,-0.278888889,1,0,0,0.85,button_left,0.85,1,,,,,,307,NW,"ID",33,kirafe,KIRAFE,z,,,,,,-0.274444444,-0.278888889,1,0,0,,0,107,107,246,1,,,
,,,,,,,,,,,,,,,,,,5f8836a5fb70462a169fc0ac,2020-11-27_16h02.23.683,lexical_decision_task_MP_exp2,2020.2.5,Win32,60,,0,0.395555556,-0.316666667,1,0,0,0.65,button_right,0.65,1,,,,,,56,WORD,UN,16,change,AMBUSH,m,,,,,,0.395555556,-0.316666667,1,0,0,,0,108,108,235,1,,,
,,,,,,,,,,,,,,,,,,5f8836a5fb70462a169fc0ac,2020-11-27_16h02.23.683,lexical_decision_task_MP_exp2,2020.2.5,Win32,60,,0,0.348888889,-0.268888889,1,0,0,1.232,button_right,1.232,0,,,,,,269,NW,UN,16,wrimsy,ORCHET,z,,,,,,0.348888889,-0.268888889,1,0,0,,0,109,109,448,1,,,
,,,,,,,,,,,,,,,,,,5f8836a5fb70462a169fc0ac,2020-11-27_16h02.23.683,lexical_decision_task_MP_exp2,2020.2.5,Win32,60,,0,-0.267777778,-0.253333333,1,0,0,1.115,button_left,1.115,0,,,,,,66,WORD,"ID",33,gospel,GOSPEL,m,,,,,,-0.267777778,-0.253333333,1,0,0,,0,110,110,5,1,,,
,,,,,,,,,,,,,,,,,,5f8836a5fb70462a169fc0ac,2020-11-27_16h02.23.683,lexical_decision_task_MP_exp2,2020.2.5,Win32,60,,0,-0.288888889,-0.275555556,1,0,0,1.35,button_left,1.35,1,,,,,,449,NW,UN,33,phrect,BRUNGE,z,,,,,,-0.288888889,-0.275555556,1,0,0,,0,111,111,388,1,,,
,,,,,,,,,,,,,,,,,,5f8836a5fb70462a169fc0ac,2020-11-27_16h02.23.683,lexical_decision_task_MP_exp2,2020.2.5,Win32,60,,0,0.278888889,-0.313333333,1,0,0,0.733,button_right,0.733,1,,,,,,120,WORD,"ID",33,strain,STRAIN,m,,,,,,0.278888889,-0.313333333,1,0,0,,0,112,112,59,1,,,
,,,,,,,,,,,,,,,,,,5f8836a5fb70462a169fc0ac,2020-11-27_16h02.23.683,lexical_decision_task_MP_exp2,2020.2.5,Win32,60,,0,-0.304444444,-0.284444444,1,0,0,0.766,button_left,0.766,1,,,,,,283,NW,UN,16,shaple,VERALF,z,,,,,,-0.304444444,-0.284444444,1,0,0,,0,113,113,462,1,,,
,,,,,,,,,,,,,,,,,,5f8836a5fb70462a169fc0ac,2020-11-27_16h02.23.683,lexical_decision_task_MP_exp2,2020.2.5,Win32,60,,0,-0.278888889,-0.277777778,1,0,0,1.182,button_left,1.182,1,,,,,,417,NW,"ID",16,earoud,EAROUD,z,,,,,,-0.278888889,-0.277777778,1,0,0,,0,114,114,356,1,,,
,,,,,,,,,,,,,,,,,,5f8836a5fb70462a169fc0ac,2020-11-27_16h02.23.683,lexical_decision_task_MP_exp2,2020.2.5,Win32,60,,0,0.336666667,-0.314444444,1,0,0,0.732,button_right,0.732,1,,,,,,236,WORD,UN,33,grumpy,PIRATE,m,,,,,,0.336666667,-0.314444444,1,0,0,,0,115,115,175,1,,,
,,,,,,,,,,,,,,,,,,5f8836a5fb70462a169fc0ac,2020-11-27_16h02.23.683,lexical_decision_task_MP_exp2,2020.2.5,Win32,60,,0,-0.231111111,-0.287777778,1,0,0,0.948,button_left,0.948,0,,,,,,85,WORD,"ID",33,sprawl,SPRAWL,m,,,,,,-0.231111111,-0.287777778,1,0,0,,0,116,116,24,1,,,
,,,,,,,,,,,,,,,,,,5f8836a5fb70462a169fc0ac,2020-11-27_16h02.23.683,lexical_decision_task_MP_exp2,2020.2.5,Win32,60,,0,-0.296666667,-0.29,1,0,0,1.548,button_left,1.548,1,,,,,,331,NW,"ID",33,gilfew,GILFEW,z,,,,,,-0.296666667,-0.29,1,0,0,,0,117,117,270,1,,,
,,,,,,,,,,,,,,,,,,5f8836a5fb70462a169fc0ac,2020-11-27_16h02.23.683,lexical_decision_task_MP_exp2,2020.2.5,Win32,60,,0,-0.248888889,-0.258888889,1,0,0,1.531,button_left,1.531,1,,,,,,424,NW,UN,33,frudge,PRAILE,z,,,,,,-0.248888889,-0.258888889,1,0,0,,0,118,118,363,1,,,
,,,,,,,,,,,,,,,,,,5f8836a5fb70462a169fc0ac,2020-11-27_16h02.23.683,lexical_decision_task_MP_exp2,2020.2.5,Win32,60,,0,0.362222222,-0.29,1,0,0,0.7,button_right,0.7,1,,,,,,171,WORD,"ID",16,depart,DEPART,m,,,,,,0.362222222,-0.29,1,0,0,,0,119,119,110,1,,,
,,,,,,,,,,,,,,,,,,5f8836a5fb70462a169fc0ac,2020-11-27_16h02.23.683,lexical_decision_task_MP_exp2,2020.2.5,Win32,60,,0,-0.283333333,-0.307777778,1,0,0,0.998,button_left,0.998,1,,,,,,277,NW,UN,16,unighs,PETAIN,z,,,,,,0.001111111,-0.371111111,1,0,0,,0,120,120,456,1,break_done_button,,
,,,,,,,,,,,,,,,,,,5f8836a5fb70462a169fc0ac,2020-11-27_16h02.23.683,lexical_decision_task_MP_exp2,2020.2.5,Win32,60,,0,0.311111111,-0.275555556,1,0,0,0.765,button_right,0.765,1,,,,,,113,WORD,"ID",33,chorus,CHORUS,m,,,,,,0.311111111,-0.275555556,1,0,0,,0,121,121,52,1,,,
,,,,,,,,,,,,,,,,,,5f8836a5fb70462a169fc0ac,2020-11-27_16h02.23.683,lexical_decision_task_MP_exp2,2020.2.5,Win32,60,,0,0.364444444,-0.246666667,1,0,0,1.315,button_right,1.315,1,,,,,,106,WORD,"ID",33,ransom,RANSOM,m,,,,,,0.364444444,-0.246666667,1,0,0,,0,122,122,45,1,,,
,,,,,,,,,,,,,,,,,,5f8836a5fb70462a169fc0ac,2020-11-27_16h02.23.683,lexical_decision_task_MP_exp2,2020.2.5,Win32,60,,0,-0.275555556,-0.258888889,1,0,0,0.749,button_left,0.749,1,,,,,,359,NW,"ID",33,fonver,FONVER,z,,,,,,-0.275555556,-0.258888889,1,0,0,,0,123,123,298,1,,,
,,,,,,,,,,,,,,,,,,5f8836a5fb70462a169fc0ac,2020-11-27_16h02.23.683,lexical_decision_task_MP_exp2,2020.2.5,Win32,60,,0,-0.245555556,-0.252222222,1,0,0,0.932,button_left,0.932,1,,,,,,332,NW,"ID",33,vangue,VANGUE,z,,,,,,-0.245555556,-0.252222222,1,0,0,,0,124,124,271,1,,,
,,,,,,,,,,,,,,,,,,5f8836a5fb70462a169fc0ac,2020-11-27_16h02.23.683,lexical_decision_task_MP_exp2,2020.2.5,Win32,60,,0,0.286666667,-0.303333333,1,0,0,0.699,button_right,0.699,1,,,,,,51,WORD,UN,16,impose,HUNGRY,m,,,,,,0.286666667,-0.303333333,1,0,0,,0,125,125,230,1,,,
,,,,,,,,,,,,,,,,,,5f8836a5fb70462a169fc0ac,2020-11-27_16h02.23.683,lexical_decision_task_MP_exp2,2020.2.5,Win32,60,,0,-0.306666667,-0.221111111,1,0,0,0.699,button_left,0.699,1,,,,,,387,NW,"ID",16,gronce,GRONCE,z,,,,,,-0.306666667,-0.221111111,1,0,0,,0,126,126,326,1,,,
,,,,,,,,,,,,,,,,,,5f8836a5fb70462a169fc0ac,2020-11-27_16h02.23.683,lexical_decision_task_MP_exp2,2020.2.5,Win32,60,,0,0.287777778,-0.298888889,1,0,0,0.616,button_right,0.616,1,,,,,,202,WORD,UN,33,phrase,FACTOR,m,,,,,,0.287777778,-0.298888889,1,0,0,,0,127,127,141,1,,,
,,,,,,,,,,,,,,,,,,5f8836a5fb70462a169fc0ac,2020-11-27_16h02.23.683,lexical_decision_task_MP_exp2,2020.2.5,Win32,60,,0,0.324444444,-0.316666667,1,0,0,0.714,button_right,0.714,1,,,,,,3,WORD,UN,16,trench,KNIGHT,m,,,,,,0.324444444,-0.316666667,1,0,0,,0,128,128,182,1,,,
,,,,,,,,,,,,,,,,,,5f8836a5fb70462a169fc0ac,2020-11-27_16h02.23.683,lexical_decision_task_MP_exp2,2020.2.5,Win32,60,,0,-0.277777778,-0.297777778,1,0,0,0.732,button_left,0.732,1,,,,,,404,NW,"ID",16,cluirm,CLUIRM,z,,,,,,-0.277777778,-0.297777778,1,0,0,,0,129,129,343,1,,,
,,,,,,,,,,,,,,,,,,5f8836a5fb70462a169fc0ac,2020-11-27_16h02.23.683,lexical_decision_task_MP_exp2,2020.2.5,Win32,60,,0,-0.271111111,-0.307777778,1,0,0,0.85,button_left,0.85,1,,,,,,423,NW,UN,33,praile,STRELD,z,,,,,,-0.271111111,-0.307777778,1,0,0,,0,130,130,362,1,,,
,,,,,,,,,,,,,,,,,,5f8836a5fb70462a169fc0ac,2020-11-27_16h02.23.683,lexical_decision_task_MP_exp2,2020.2.5,Win32,60,,0,0.302222222,-0.303333333,1,0,0,0.749,button_right,0.749,1,,,,,,228,WORD,UN,33,kidney,MASTER,m,,,,,,0.302222222,-0.303333333,1,0,0,,0,131,131,167,1,,,
,,,,,,,,,,,,,,,,,,5f8836a5fb70462a169fc0ac,2020-11-27_16h02.23.683,lexical_decision_task_MP_exp2,2020.2.5,Win32,60,,0,-0.292222222,-0.312222222,1,0,0,0.75,button_left,0.75,1,,,,,,391,NW,"ID",16,theldy,THELDY,z,,,,,,-0.292222222,-0.312222222,1,0,0,,0,132,132,330,1,,,
,,,,,,,,,,,,,,,,,,5f8836a5fb70462a169fc0ac,2020-11-27_16h02.23.683,lexical_decision_task_MP_exp2,2020.2.5,Win32,60,,0,,,,,,,,0.75,-1,,,,,,139,WORD,"ID",16,debris,DEBRIS,m,,,,,,0.252222222,-0.227777778,0,0,0,,0,133,133,78,1,,,
,,,,,,,,,,,,,,,,,,5f8836a5fb70462a169fc0ac,2020-11-27_16h02.23.683,lexical_decision_task_MP_exp2,2020.2.5,Win32,60,m,1,,,,,,,,1.13,1,,,,,,193,WORD,UN,33,mildew,OBJECT,m,,,,,,0.166666667,-0.201111111,0,0,0,,0,134,134,132,1,,1.13,
,,,,,,,,,,,,,,,,,,5f8836a5fb70462a169fc0ac,2020-11-27_16h02.23.683,lexical_decision_task_MP_exp2,2020.2.5,Win32,60,m,1,,,,,,,,0.583,1,,,,,,57,WORD,UN,16,danger,CHANGE,m,,,,,,0.166666667,-0.201111111,0,0,0,,0,135,135,236,1,,0.583,
,,,,,,,,,,,,,,,,,,5f8836a5fb70462a169fc0ac,2020-11-27_16h02.23.683,lexical_decision_task_MP_exp2,2020.2.5,Win32,60,m,1,,,,,,,,0.737,1,,,,,,210,WORD,UN,33,infect,MONKEY,m,,,,,,0.166666667,-0.201111111,0,0,0,,0,136,136,149,1,,0.737,
,,,,,,,,,,,,,,,,,,5f8836a5fb70462a169fc0ac,2020-11-27_16h02.23.683,lexical_decision_task_MP_exp2,2020.2.5,Win32,60,m,1,,,,,,,,0.525,1,,,,,,190,WORD,UN,33,stable,BACKUP,m,,,,,,0.166666667,-0.201111111,0,0,0,,0,137,137,129,1,,0.525,
,,,,,,,,,,,,,,,,,,5f8836a5fb70462a169fc0ac,2020-11-27_16h02.23.683,lexical_decision_task_MP_exp2,2020.2.5,Win32,60,m,1,,,,,,,,1.368,1,,,,,,195,WORD,UN,33,credit,RESIGN,m,,,,,,0.166666667,-0.201111111,0,0,0,,0,138,138,134,1,,1.368,
,,,,,,,,,,,,,,,,,,5f8836a5fb70462a169fc0ac,2020-11-27_16h02.23.683,lexical_decision_task_MP_exp2,2020.2.5,Win32,60,m,1,,,,,,,,0.717,1,,,,,,89,WORD,"ID",33,permit,PERMIT,m,,,,,,0.166666667,-0.201111111,0,0,0,,0,139,139,28,1,,0.717,
,,,,,,,,,,,,,,,,,,5f8836a5fb70462a169fc0ac,2020-11-27_16h02.23.683,lexical_decision_task_MP_exp2,2020.2.5,Win32,60,z,1,,,,,,,,1.058,1,,,,,,364,NW,"ID",16,impote,IMPOTE,z,,,,,,0.166666667,-0.201111111,0,0,0,,0,140,140,303,1,,1.058,
,,,,,,,,,,,,,,,,,,5f8836a5fb70462a169fc0ac,2020-11-27_16h02.23.683,lexical_decision_task_MP_exp2,2020.2.5,Win32,60,m,1,,,,,,,,0.689,1,,,,,,18,WORD,UN,16,patron,HUMBLE,m,,,,,,0.166666667,-0.201111111,0,0,0,,0,141,141,197,1,,0.689,
,,,,,,,,,,,,,,,,,,5f8836a5fb70462a169fc0ac,2020-11-27_16h02.23.683,lexical_decision_task_MP_exp2,2020.2.5,Win32,60,m,1,,,,,,,,0.87,1,,,,,,111,WORD,"ID",33,induce,INDUCE,m,,,,,,0.166666667,-0.201111111,0,0,0,,0,142,142,50,1,,0.87,
,,,,,,,,,,,,,,,,,,5f8836a5fb70462a169fc0ac,2020-11-27_16h02.23.683,lexical_decision_task_MP_exp2,2020.2.5,Win32,60,z,1,,,,,,,,0.678,1,,,,,,278,NW,UN,16,celond,UNIGHS,z,,,,,,0.166666667,-0.201111111,0,0,0,,0,143,143,457,1,,0.678,
,,,,,,,,,,,,,,,,,,5f8836a5fb70462a169fc0ac,2020-11-27_16h02.23.683,lexical_decision_task_MP_exp2,2020.2.5,Win32,60,m,1,,,,,,,,0.622,1,,,,,,198,WORD,UN,33,invoke,WICKED,m,,,,,,0.166666667,-0.201111111,0,0,0,,0,144,144,137,1,,0.622,
,,,,,,,,,,,,,,,,,,5f8836a5fb70462a169fc0ac,2020-11-27_16h02.23.683,lexical_decision_task_MP_exp2,2020.2.5,Win32,60,z,1,,,,,,,,0.902,1,,,,,,258,NW,UN,16,soudal,POLUTH,z,,,,,,0.166666667,-0.201111111,0,0,0,,0,145,145,437,1,,0.902,
,,,,,,,,,,,,,,,,,,5f8836a5fb70462a169fc0ac,2020-11-27_16h02.23.683,lexical_decision_task_MP_exp2,2020.2.5,Win32,60,z,1,,,,,,,,0.75,1,,,,,,301,NW,"ID",33,fainch,FAINCH,z,,,,,,0.166666667,-0.201111111,0,0,0,,0,146,146,240,1,,0.75,
,,,,,,,,,,,,,,,,,,5f8836a5fb70462a169fc0ac,2020-11-27_16h02.23.683,lexical_decision_task_MP_exp2,2020.2.5,Win32,60,m,1,,,,,,,,0.574,1,,,,,,209,WORD,UN,33,monkey,SEARCH,m,,,,,,0.166666667,-0.201111111,0,0,0,,0,147,147,148,1,,0.574,
,,,,,,,,,,,,,,,,,,5f8836a5fb70462a169fc0ac,2020-11-27_16h02.23.683,lexical_decision_task_MP_exp2,2020.2.5,Win32,60,m,1,,,,,,,,0.553,1,,,,,,200,WORD,UN,33,admire,BEACON,m,,,,,,0.166666667,-0.201111111,0,0,0,,0,148,148,139,1,,0.553,
,,,,,,,,,,,,,,,,,,5f8836a5fb70462a169fc0ac,2020-11-27_16h02.23.683,lexical_decision_task_MP_exp2,2020.2.5,Win32,60,m,1,,,,,,,,0.757,1,,,,,,52,WORD,UN,16,police,IMPOSE,m,,,,,,0.166666667,-0.201111111,0,0,0,,0,149,149,231,1,,0.757,
,,,,,,,,,,,,,,,,,,5f8836a5fb70462a169fc0ac,2020-11-27_16h02.23.683,lexical_decision_task_MP_exp2,2020.2.5,Win32,60,z,1,,,,,,,,0.624,1,,,,,,447,NW,UN,33,sadent,GIRCUE,z,,,,,,0.166666667,-0.201111111,0,0,0,,0,150,150,386,1,,0.624,
,,,,,,,,,,,,,,,,,,5f8836a5fb70462a169fc0ac,2020-11-27_16h02.23.683,lexical_decision_task_MP_exp2,2020.2.5,Win32,60,z,1,,,,,,,,0.705,1,,,,,,298,NW,UN,16,sturch,PIERGY,z,,,,,,0.166666667,-0.201111111,0,0,0,,0,151,151,477,1,,0.705,
,,,,,,,,,,,,,,,,,,5f8836a5fb70462a169fc0ac,2020-11-27_16h02.23.683,lexical_decision_task_MP_exp2,2020.2.5,Win32,60,m,1,,,,,,,,0.591,1,,,,,,112,WORD,"ID",33,breath,BREATH,m,,,,,,0.166666667,-0.201111111,0,0,0,,0,152,152,51,1,,0.591,
,,,,,,,,,,,,,,,,,,5f8836a5fb70462a169fc0ac,2020-11-27_16h02.23.683,lexical_decision_task_MP_exp2,2020.2.5,Win32,60,z,1,,,,,,,,0.937,1,,,,,,397,NW,"ID",16,camble,CAMBLE,z,,,,,,0.166666667,-0.201111111,0,0,0,,0,153,153,336,1,,0.937,
,,,,,,,,,,,,,,,,,,5f8836a5fb70462a169fc0ac,2020-11-27_16h02.23.683,lexical_decision_task_MP_exp2,2020.2.5,Win32,60,m,1,,,,,,,,0.692,1,,,,,,69,WORD,"ID",33,plenty,PLENTY,m,,,,,,0.166666667,-0.201111111,0,0,0,,0,154,154,8,1,,0.692,
,,,,,,,,,,,,,,,,,,5f8836a5fb70462a169fc0ac,2020-11-27_16h02.23.683,lexical_decision_task_MP_exp2,2020.2.5,Win32,60,z,0,,,,,,,,0.765,0,,,,,,161,WORD,"ID",16,pastor,PASTOR,m,,,,,,0.166666667,-0.201111111,0,0,0,,0,155,155,100,1,,0.765,
,,,,,,,,,,,,,,,,,,5f8836a5fb70462a169fc0ac,2020-11-27_16h02.23.683,lexical_decision_task_MP_exp2,2020.2.5,Win32,60,m,1,,,,,,,,0.528,1,,,,,,149,WORD,"ID",16,invade,INVADE,m,,,,,,0.166666667,-0.201111111,0,0,0,,0,156,156,88,1,,0.528,
,,,,,,,,,,,,,,,,,,5f8836a5fb70462a169fc0ac,2020-11-27_16h02.23.683,lexical_decision_task_MP_exp2,2020.2.5,Win32,60,z,0,,,,,,,,0.589,0,,,,,,225,WORD,UN,33,casino,VULGAR,m,,,,,,0.166666667,-0.201111111,0,0,0,,0,157,157,164,1,,0.589,
,,,,,,,,,,,,,,,,,,5f8836a5fb70462a169fc0ac,2020-11-27_16h02.23.683,lexical_decision_task_MP_exp2,2020.2.5,Win32,60,m,1,,,,,,,,0.661,1,,,,,,61,WORD,"ID",33,ponder,PONDER,m,,,,,,0.166666667,-0.201111111,0,0,0,,0,158,158,0,1,,0.661,
,,,,,,,,,,,,,,,,,,5f8836a5fb70462a169fc0ac,2020-11-27_16h02.23.683,lexical_decision_task_MP_exp2,2020.2.5,Win32,60,z,0,,,,,,,,0.637,0,,,,,,217,WORD,UN,33,shrink,LIQUOR,m,,,,,,0.166666667,-0.201111111,0,0,0,,0,159,159,156,1,,0.637,
,,,,,,,,,,,,,,,,,,5f8836a5fb70462a169fc0ac,2020-11-27_16h02.23.683,lexical_decision_task_MP_exp2,2020.2.5,Win32,60,m,1,,,,,,,,0.767,1,,,,,,224,WORD,UN,33,vulgar,PERIOD,m,,,,,,0.166666667,-0.201111111,0,0,0,,0,160,160,163,1,,0.767,
,,,,,,,,,,,,,,,,,,5f8836a5fb70462a169fc0ac,2020-11-27_16h02.23.683,lexical_decision_task_MP_exp2,2020.2.5,Win32,60,z,1,,,,,,,,0.616,1,,,,,,324,NW,"ID",33,steikh,STEIKH,z,,,,,,0.166666667,-0.201111111,0,0,0,,0,161,161,263,1,,0.616,
,,,,,,,,,,,,,,,,,,5f8836a5fb70462a169fc0ac,2020-11-27_16h02.23.683,lexical_decision_task_MP_exp2,2020.2.5,Win32,60,z,1,,,,,,,,1.209,1,,,,,,399,NW,"ID",16,fouret,FOURET,z,,,,,,0.166666667,-0.201111111,0,0,0,,0,162,162,338,1,,1.209,
,,,,,,,,,,,,,,,,,,5f8836a5fb70462a169fc0ac,2020-11-27_16h02.23.683,lexical_decision_task_MP_exp2,2020.2.5,Win32,60,z,0,,,,,,,,1.034,0,,,,,,50,WORD,UN,16,hungry,SNATCH,m,,,,,,0.166666667,-0.201111111,0,0,0,,0,163,163,229,1,,1.034,
,,,,,,,,,,,,,,,,,,5f8836a5fb70462a169fc0ac,2020-11-27_16h02.23.683,lexical_decision_task_MP_exp2,2020.2.5,Win32,60,m,1,,,,,,,,0.771,1,,,,,,24,WORD,UN,16,domain,PRAISE,m,,,,,,0.166666667,-0.201111111,0,0,0,,0,164,164,203,1,,0.771,
,,,,,,,,,,,,,,,,,,5f8836a5fb70462a169fc0ac,2020-11-27_16h02.23.683,lexical_decision_task_MP_exp2,2020.2.5,Win32,60,m,1,,,,,,,,0.695,1,,,,,,23,WORD,UN,16,praise,WEALTH,m,,,,,,0.166666667,-0.201111111,0,0,0,,0,165,165,202,1,,0.695,
,,,,,,,,,,,,,,,,,,5f8836a5fb70462a169fc0ac,2020-11-27_16h02.23.683,lexical_decision_task_MP_exp2,2020.2.5,Win32,60,m,1,,,,,,,,1.15,1,,,,,,108,WORD,"ID",33,reckon,RECKON,m,,,,,,0.166666667,-0.201111111,0,0,0,,0,166,166,47,1,,1.15,
,,,,,,,,,,,,,,,,,,5f8836a5fb70462a169fc0ac,2020-11-27_16h02.23.683,lexical_decision_task_MP_exp2,2020.2.5,Win32,60,z,1,,,,,,,,0.719,1,,,,,,340,NW,"ID",33,fiatch,FIATCH,z,,,,,,0.166666667,-0.201111111,0,0,0,,0,167,167,279,1,,0.719,
,,,,,,,,,,,,,,,,,,5f8836a5fb70462a169fc0ac,2020-11-27_16h02.23.683,lexical_decision_task_MP_exp2,2020.2.5,Win32,60,m,1,,,,,,,,0.525,1,,,,,,157,WORD,"ID",16,dragon,DRAGON,m,,,,,,0.166666667,-0.201111111,0,0,0,,0,168,168,96,1,,0.525,
,,,,,,,,,,,,,,,,,,5f8836a5fb70462a169fc0ac,2020-11-27_16h02.23.683,lexical_decision_task_MP_exp2,2020.2.5,Win32,60,z,1,,,,,,,,0.609,1,,,,,,426,NW,UN,33,schind,URIVEL,z,,,,,,0.166666667,-0.201111111,0,0,0,,0,169,169,365,1,,0.609,
,,,,,,,,,,,,,,,,,,5f8836a5fb70462a169fc0ac,2020-11-27_16h02.23.683,lexical_decision_task_MP_exp2,2020.2.5,Win32,60,z,1,,,,,,,,0.603,1,,,,,,354,NW,"ID",33,virlex,VIRLEX,z,,,,,,0.166666667,-0.201111111,0,0,0,,0,170,170,293,1,,0.603,
,,,,,,,,,,,,,,,,,,5f8836a5fb70462a169fc0ac,2020-11-27_16h02.23.683,lexical_decision_task_MP_exp2,2020.2.5,Win32,60,m,1,,,,,,,,0.517,1,,,,,,185,WORD,UN,33,portal,BOTHER,m,,,,,,0.166666667,-0.201111111,0,0,0,,0,171,171,124,1,,0.517,
,,,,,,,,,,,,,,,,,,5f8836a5fb70462a169fc0ac,2020-11-27_16h02.23.683,lexical_decision_task_MP_exp2,2020.2.5,Win32,60,z,1,,,,,,,,0.633,1,,,,,,392,NW,"ID",16,rouncy,ROUNCY,z,,,,,,0.166666667,-0.201111111,0,0,0,,0,172,172,331,1,,0.633,
,,,,,,,,,,,,,,,,,,5f8836a5fb70462a169fc0ac,2020-11-27_16h02.23.683,lexical_decision_task_MP_exp2,2020.2.5,Win32,60,m,1,,,,,,,,0.688,1,,,,,,218,WORD,UN,33,bucket,SHRINK,m,,,,,,0.166666667,-0.201111111,0,0,0,,0,173,173,157,1,,0.688,
,,,,,,,,,,,,,,,,,,5f8836a5fb70462a169fc0ac,2020-11-27_16h02.23.683,lexical_decision_task_MP_exp2,2020.2.5,Win32,60,m,0,,,,,,,,0.528,0,,,,,,345,NW,"ID",33,absend,ABSEND,z,,,,,,0.166666667,-0.201111111,0,0,0,,0,174,174,284,1,,0.528,
,,,,,,,,,,,,,,,,,,5f8836a5fb70462a169fc0ac,2020-11-27_16h02.23.683,lexical_decision_task_MP_exp2,2020.2.5,Win32,60,z,1,,,,,,,,0.54,1,,,,,,300,NW,UN,16,smenco,YARION,z,,,,,,0.166666667,-0.201111111,0,0,0,,0,175,175,479,1,,0.54,
,,,,,,,,,,,,,,,,,,5f8836a5fb70462a169fc0ac,2020-11-27_16h02.23.683,lexical_decision_task_MP_exp2,2020.2.5,Win32,60,z,1,,,,,,,,0.714,1,,,,,,390,NW,"ID",16,hatrus,HATRUS,z,,,,,,0.166666667,-0.201111111,0,0,0,,0,176,176,329,1,,0.714,
,,,,,,,,,,,,,,,,,,5f8836a5fb70462a169fc0ac,2020-11-27_16h02.23.683,lexical_decision_task_MP_exp2,2020.2.5,Win32,60,m,1,,,,,,,,0.559,1,,,,,,44,WORD,UN,16,clergy,DANGER,m,,,,,,0.166666667,-0.201111111,0,0,0,,0,177,177,223,1,,0.559,
,,,,,,,,,,,,,,,,,,5f8836a5fb70462a169fc0ac,2020-11-27_16h02.23.683,lexical_decision_task_MP_exp2,2020.2.5,Win32,60,m,0,,,,,,,,0.716,0,,,,,,476,NW,UN,33,photie,JOSTED,z,,,,,,0.166666667,-0.201111111,0,0,0,,0,178,178,415,1,,0.716,
,,,,,,,,,,,,,,,,,,5f8836a5fb70462a169fc0ac,2020-11-27_16h02.23.683,lexical_decision_task_MP_exp2,2020.2.5,Win32,60,z,1,,,,,,,,0.791,1,,,,,,471,NW,UN,33,cigney,NOBEST,z,,,,,,0.166666667,-0.201111111,0,0,0,,0,179,179,410,1,,0.791,
,,,,,,,,,,,,,,,,,,5f8836a5fb70462a169fc0ac,2020-11-27_16h02.23.683,lexical_decision_task_MP_exp2,2020.2.5,Win32,60,z,1,,,,,,,,0.688,1,,,,,,337,NW,"ID",33,rejols,REJOLS,z,,,,,,0.166666667,-0.201111111,0,0,0,,0,180,180,276,1,,0.688,
,,,,,,,,,,,,,,,,,,5f8836a5fb70462a169fc0ac,2020-11-27_16h02.23.683,lexical_decision_task_MP_exp2,2020.2.5,Win32,60,z,0,,,,,,,,0.934,0,,,,,,181,WORD,UN,33,winter,GLANCE,m,,,,,,0.166666667,-0.201111111,0,0,0,,0,181,181,120,1,,0.934,
,,,,,,,,,,,,,,,,,,5f8836a5fb70462a169fc0ac,2020-11-27_16h02.23.683,lexical_decision_task_MP_exp2,2020.2.5,Win32,60,z,1,,,,,,,,0.674,1,,,,,,393,NW,"ID",16,ganous,GANOUS,z,,,,,,0.166666667,-0.201111111,0,0,0,,0,182,182,332,1,,0.674,
,,,,,,,,,,,,,,,,,,5f8836a5fb70462a169fc0ac,2020-11-27_16h02.23.683,lexical_decision_task_MP_exp2,2020.2.5,Win32,60,z,1,,,,,,,,0.683,1,,,,,,365,NW,"ID",16,guairt,GUAIRT,z,,,,,,0.166666667,-0.201111111,0,0,0,,0,183,183,304,1,,0.683,
,,,,,,,,,,,,,,,,,,5f8836a5fb70462a169fc0ac,2020-11-27_16h02.23.683,lexical_decision_task_MP_exp2,2020.2.5,Win32,60,m,0,,,,,,,,1.001,0,,,,,,379,NW,"ID",16,auting,AUTING,z,,,,,,0.166666667,-0.201111111,0,0,0,,0,184,184,318,1,,1.001,
,,,,,,,,,,,,,,,,,,5f8836a5fb70462a169fc0ac,2020-11-27_16h02.23.683,lexical_decision_task_MP_exp2,2020.2.5,Win32,60,m,0,,,,,,,,0.74,0,,,,,,286,NW,UN,16,nymbel,RELDON,z,,,,,,0.166666667,-0.201111111,0,0,0,,0,185,185,465,1,,0.74,
,,,,,,,,,,,,,,,,,,5f8836a5fb70462a169fc0ac,2020-11-27_16h02.23.683,lexical_decision_task_MP_exp2,2020.2.5,Win32,60,m,1,,,,,,,,0.59,1,,,,,,168,WORD,"ID",16,answer,ANSWER,m,,,,,,0.166666667,-0.201111111,0,0,0,,0,186,186,107,1,,0.59,
,,,,,,,,,,,,,,,,,,5f8836a5fb70462a169fc0ac,2020-11-27_16h02.23.683,lexical_decision_task_MP_exp2,2020.2.5,Win32,60,m,1,,,,,,,,0.946,1,,,,,,194,WORD,UN,33,resign,ABSENT,m,,,,,,0.166666667,-0.201111111,0,0,0,,0,187,187,133,1,,0.946,
,,,,,,,,,,,,,,,,,,5f8836a5fb70462a169fc0ac,2020-11-27_16h02.23.683,lexical_decision_task_MP_exp2,2020.2.5,Win32,60,m,1,,,,,,,,0.727,1,,,,,,11,WORD,UN,16,amount,CRUISE,m,,,,,,0.166666667,-0.201111111,0,0,0,,0,188,188,190,1,,0.727,
,,,,,,,,,,,,,,,,,,5f8836a5fb70462a169fc0ac,2020-11-27_16h02.23.683,lexical_decision_task_MP_exp2,2020.2.5,Win32,60,m,1,,,,,,,,0.794,1,,,,,,100,WORD,"ID",33,carbon,CARBON,m,,,,,,0.166666667,-0.201111111,0,0,0,,0,189,189,39,1,,0.794,
,,,,,,,,,,,,,,,,,,5f8836a5fb70462a169fc0ac,2020-11-27_16h02.23.683,lexical_decision_task_MP_exp2,2020.2.5,Win32,60,z,0,,,,,,,,0.774,0,,,,,,175,WORD,"ID",16,fabric,FABRIC,m,,,,,,0.166666667,-0.201111111,0,0,0,,0,190,190,114,1,,0.774,
,,,,,,,,,,,,,,,,,,5f8836a5fb70462a169fc0ac,2020-11-27_16h02.23.683,lexical_decision_task_MP_exp2,2020.2.5,Win32,60,m,0,,,,,,,,0.697,0,,,,,,285,NW,UN,16,reldon,PRUDGE,z,,,,,,0.166666667,-0.201111111,0,0,0,,0,191,191,464,1,,0.697,
,,,,,,,,,,,,,,,,,,5f8836a5fb70462a169fc0ac,2020-11-27_16h02.23.683,lexical_decision_task_MP_exp2,2020.2.5,Win32,60,m,1,,,,,,,,1.208,1,,,,,,135,WORD,"ID",16,import,IMPORT,m,,,,,,0.166666667,-0.201111111,0,0,0,,0,192,192,74,1,,1.208,
,,,,,,,,,,,,,,,,,,5f8836a5fb70462a169fc0ac,2020-11-27_16h02.23.683,lexical_decision_task_MP_exp2,2020.2.5,Win32,60,z,1,,,,,,,,0.592,1,,,,,,355,NW,"ID",33,zingly,ZINGLY,z,,,,,,0.166666667,-0.201111111,0,0,0,,0,193,193,294,1,,0.592,
,,,,,,,,,,,,,,,,,,5f8836a5fb70462a169fc0ac,2020-11-27_16h02.23.683,lexical_decision_task_MP_exp2,2020.2.5,Win32,60,m,1,,,,,,,,0.61,1,,,,,,212,WORD,UN,33,squeal,VERIFY,m,,,,,,0.166666667,-0.201111111,0,0,0,,0,194,194,151,1,,0.61,
,,,,,,,,,,,,,,,,,,5f8836a5fb70462a169fc0ac,2020-11-27_16h02.23.683,lexical_decision_task_MP_exp2,2020.2.5,Win32,60,m,1,,,,,,,,0.604,1,,,,,,83,WORD,"ID",33,result,RESULT,m,,,,,,0.166666667,-0.201111111,0,0,0,,0,195,195,22,1,,0.604,
,,,,,,,,,,,,,,,,,,5f8836a5fb70462a169fc0ac,2020-11-27_16h02.23.683,lexical_decision_task_MP_exp2,2020.2.5,Win32,60,z,1,,,,,,,,0.638,1,,,,,,262,NW,UN,16,dolica,QUILEW,z,,,,,,0.166666667,-0.201111111,0,0,0,,0,196,196,441,1,,0.638,
,,,,,,,,,,,,,,,,,,5f8836a5fb70462a169fc0ac,2020-11-27_16h02.23.683,lexical_decision_task_MP_exp2,2020.2.5,Win32,60,m,0,,,,,,,,1.606,0,,,,,,440,NW,UN,33,rastoe,SARIDE,z,,,,,,0.166666667,-0.201111111,0,0,0,,0,197,197,379,1,,1.606,
,,,,,,,,,,,,,,,,,,5f8836a5fb70462a169fc0ac,2020-11-27_16h02.23.683,lexical_decision_task_MP_exp2,2020.2.5,Win32,60,m,0,,,,,,,,0.799,0,,,,,,311,NW,"ID",33,sproly,SPROLY,z,,,,,,0.166666667,-0.201111111,0,0,0,,0,198,198,250,1,,0.799,
,,,,,,,,,,,,,,,,,,5f8836a5fb70462a169fc0ac,2020-11-27_16h02.23.683,lexical_decision_task_MP_exp2,2020.2.5,Win32,60,m,1,,,,,,,,0.688,1,,,,,,97,WORD,"ID",33,client,CLIENT,m,,,,,,0.166666667,-0.201111111,0,0,0,,0,199,199,36,1,,0.688,
,,,,,,,,,,,,,,,,,,5f8836a5fb70462a169fc0ac,2020-11-27_16h02.23.683,lexical_decision_task_MP_exp2,2020.2.5,Win32,60,z,1,,,,,,,,0.942,1,,,,,,330,NW,"ID",33,kensom,KENSOM,z,,,,,,0.166666667,-0.201111111,0,0,0,,0,200,200,269,1,,0.942,
,,,,,,,,,,,,,,,,,,5f8836a5fb70462a169fc0ac,2020-11-27_16h02.23.683,lexical_decision_task_MP_exp2,2020.2.5,Win32,60,z,1,,,,,,,,0.673,1,,,,,,325,NW,"ID",33,thruse,THRUSE,z,,,,,,0.166666667,-0.201111111,0,0,0,,0,201,201,264,1,,0.673,
,,,,,,,,,,,,,,,,,,5f8836a5fb70462a169fc0ac,2020-11-27_16h02.23.683,lexical_decision_task_MP_exp2,2020.2.5,Win32,60,z,0,,,,,,,,0.754,0,,,,,,147,WORD,"ID",16,garlic,GARLIC,m,,,,,,0.166666667,-0.201111111,0,0,0,,0,202,202,86,1,,0.754,
,,,,,,,,,,,,,,,,,,5f8836a5fb70462a169fc0ac,2020-11-27_16h02.23.683,lexical_decision_task_MP_exp2,2020.2.5,Win32,60,z,1,,,,,,,,0.821,1,,,,,,377,NW,"ID",16,injore,INJORE,z,,,,,,0.166666667,-0.201111111,0,0,0,,0,203,203,316,1,,0.821,
,,,,,,,,,,,,,,,,,,5f8836a5fb70462a169fc0ac,2020-11-27_16h02.23.683,lexical_decision_task_MP_exp2,2020.2.5,Win32,60,m,1,,,,,,,,0.775,1,,,,,,110,WORD,"ID",33,polite,POLITE,m,,,,,,0.166666667,-0.201111111,0,0,0,,0,204,204,49,1,,0.775,
,,,,,,,,,,,,,,,,,,5f8836a5fb70462a169fc0ac,2020-11-27_16h02.23.683,lexical_decision_task_MP_exp2,2020.2.5,Win32,60,z,0,,,,,,,,0.792,0,,,,,,222,WORD,UN,33,export,HINDER,m,,,,,,0.166666667,-0.201111111,0,0,0,,0,205,205,161,1,,0.792,
,,,,,,,,,,,,,,,,,,5f8836a5fb70462a169fc0ac,2020-11-27_16h02.23.683,lexical_decision_task_MP_exp2,2020.2.5,Win32,60,m,1,,,,,,,,0.641,1,,,,,,82,WORD,"ID",33,stigma,STIGMA,m,,,,,,0.166666667,-0.201111111,0,0,0,,0,206,206,21,1,,0.641,
,,,,,,,,,,,,,,,,,,5f8836a5fb70462a169fc0ac,2020-11-27_16h02.23.683,lexical_decision_task_MP_exp2,2020.2.5,Win32,60,z,1,,,,,,,,0.555,1,,,,,,320,NW,"ID",33,jockal,JOCKAL,z,,,,,,0.166666667,-0.201111111,0,0,0,,0,207,207,259,1,,0.555,
,,,,,,,,,,,,,,,,,,5f8836a5fb70462a169fc0ac,2020-11-27_16h02.23.683,lexical_decision_task_MP_exp2,2020.2.5,Win32,60,m,0,,,,,,,,0.893,0,,,,,,314,NW,"ID",33,sprine,SPRINE,z,,,,,,0.166666667,-0.201111111,0,0,0,,0,208,208,253,1,,0.893,
,,,,,,,,,,,,,,,,,,5f8836a5fb70462a169fc0ac,2020-11-27_16h02.23.683,lexical_decision_task_MP_exp2,2020.2.5,Win32,60,m,1,,,,,,,,0.698,1,,,,,,205,WORD,UN,33,tailor,LOUNGE,m,,,,,,0.166666667,-0.201111111,0,0,0,,0,209,209,144,1,,0.698,
,,,,,,,,,,,,,,,,,,5f8836a5fb70462a169fc0ac,2020-11-27_16h02.23.683,lexical_decision_task_MP_exp2,2020.2.5,Win32,60,m,1,,,,,,,,0.521,1,,,,,,32,WORD,UN,16,scream,BUCKLE,m,,,,,,0.166666667,-0.201111111,0,0,0,,0,210,210,211,1,,0.521,
,,,,,,,,,,,,,,,,,,5f8836a5fb70462a169fc0ac,2020-11-27_16h02.23.683,lexical_decision_task_MP_exp2,2020.2.5,Win32,60,m,1,,,,,,,,0.631,1,,,,,,162,WORD,"ID",16,candle,CANDLE,m,,,,,,0.166666667,-0.201111111,0,0,0,,0,211,211,101,1,,0.631,
,,,,,,,,,,,,,,,,,,5f8836a5fb70462a169fc0ac,2020-11-27_16h02.23.683,lexical_decision_task_MP_exp2,2020.2.5,Win32,60,z,1,,,,,,,,1.511,1,,,,,,363,NW,"ID",16,breali,BREALI,z,,,,,,0.166666667,-0.201111111,0,0,0,,0,212,212,302,1,,1.511,
,,,,,,,,,,,,,,,,,,5f8836a5fb70462a169fc0ac,2020-11-27_16h02.23.683,lexical_decision_task_MP_exp2,2020.2.5,Win32,60,z,1,,,,,,,,1.068,1,,,,,,319,NW,"ID",33,zomber,ZOMBER,z,,,,,,0.166666667,-0.201111111,0,0,0,,0,213,213,258,1,,1.068,
,,,,,,,,,,,,,,,,,,5f8836a5fb70462a169fc0ac,2020-11-27_16h02.23.683,lexical_decision_task_MP_exp2,2020.2.5,Win32,60,m,1,,,,,,,,0.555,1,,,,,,98,WORD,"ID",33,belong,BELONG,m,,,,,,0.166666667,-0.201111111,0,0,0,,0,214,214,37,1,,0.555,
,,,,,,,,,,,,,,,,,,5f8836a5fb70462a169fc0ac,2020-11-27_16h02.23.683,lexical_decision_task_MP_exp2,2020.2.5,Win32,60,z,1,,,,,,,,0.863,1,,,,,,253,NW,UN,16,varosh,RESAIT,z,,,,,,0.166666667,-0.201111111,0,0,0,,0,215,215,432,1,,0.863,
,,,,,,,,,,,,,,,,,,5f8836a5fb70462a169fc0ac,2020-11-27_16h02.23.683,lexical_decision_task_MP_exp2,2020.2.5,Win32,60,z,1,,,,,,,,0.631,1,,,,,,329,NW,"ID",33,yarike,YARIKE,z,,,,,,0.166666667,-0.201111111,0,0,0,,0,216,216,268,1,,0.631,
,,,,,,,,,,,,,,,,,,5f8836a5fb70462a169fc0ac,2020-11-27_16h02.23.683,lexical_decision_task_MP_exp2,2020.2.5,Win32,60,m,1,,,,,,,,0.993,1,,,,,,124,WORD,"ID",16,blouse,BLOUSE,m,,,,,,0.166666667,-0.201111111,0,0,0,,0,217,217,63,1,,0.993,
,,,,,,,,,,,,,,,,,,5f8836a5fb70462a169fc0ac,2020-11-27_16h02.23.683,lexical_decision_task_MP_exp2,2020.2.5,Win32,60,m,0,,,,,,,,0.649,0,,,,,,448,NW,UN,33,brunge,SADENT,z,,,,,,0.166666667,-0.201111111,0,0,0,,0,218,218,387,1,,0.649,
,,,,,,,,,,,,,,,,,,5f8836a5fb70462a169fc0ac,2020-11-27_16h02.23.683,lexical_decision_task_MP_exp2,2020.2.5,Win32,60,m,1,,,,,,,,0.683,1,,,,,,118,WORD,"ID",33,flight,FLIGHT,m,,,,,,0.166666667,-0.201111111,0,0,0,,0,219,219,57,1,,0.683,
,,,,,,,,,,,,,,,,,,5f8836a5fb70462a169fc0ac,2020-11-27_16h02.23.683,lexical_decision_task_MP_exp2,2020.2.5,Win32,60,m,1,,,,,,,,0.575,1,,,,,,143,WORD,"ID",16,reason,REASON,m,,,,,,0.166666667,-0.201111111,0,0,0,,0,220,220,82,1,,0.575,
,,,,,,,,,,,,,,,,,,5f8836a5fb70462a169fc0ac,2020-11-27_16h02.23.683,lexical_decision_task_MP_exp2,2020.2.5,Win32,60,z,1,,,,,,,,0.611,1,,,,,,254,NW,UN,16,apight,VAROSH,z,,,,,,0.166666667,-0.201111111,0,0,0,,0,221,221,433,1,,0.611,
,,,,,,,,,,,,,,,,,,5f8836a5fb70462a169fc0ac,2020-11-27_16h02.23.683,lexical_decision_task_MP_exp2,2020.2.5,Win32,60,z,1,,,,,,,,1.151,1,,,,,,433,NW,UN,33,pitrom,DRANCE,z,,,,,,0.166666667,-0.201111111,0,0,0,,0,222,222,372,1,,1.151,
,,,,,,,,,,,,,,,,,,5f8836a5fb70462a169fc0ac,2020-11-27_16h02.23.683,lexical_decision_task_MP_exp2,2020.2.5,Win32,60,m,1,,,,,,,,0.623,1,,,,,,159,WORD,"ID",16,detail,DETAIL,m,,,,,,0.166666667,-0.201111111,0,0,0,,0,223,223,98,1,,0.623,
,,,,,,,,,,,,,,,,,,5f8836a5fb70462a169fc0ac,2020-11-27_16h02.23.683,lexical_decision_task_MP_exp2,2020.2.5,Win32,60,m,1,,,,,,,,1.561,1,,,,,,136,WORD,"ID",16,bleach,BLEACH,m,,,,,,0.166666667,-0.201111111,0,0,0,,0,224,224,75,1,,1.561,
,,,,,,,,,,,,,,,,,,5f8836a5fb70462a169fc0ac,2020-11-27_16h02.23.683,lexical_decision_task_MP_exp2,2020.2.5,Win32,60,z,1,,,,,,,,0.756,1,,,,,,338,NW,"ID",33,wreash,WREASH,z,,,,,,0.166666667,-0.201111111,0,0,0,,0,225,225,277,1,,0.756,
,,,,,,,,,,,,,,,,,,5f8836a5fb70462a169fc0ac,2020-11-27_16h02.23.683,lexical_decision_task_MP_exp2,2020.2.5,Win32,60,z,1,,,,,,,,1.912,1,,,,,,451,NW,UN,33,surden,CAINKY,z,,,,,,0.166666667,-0.201111111,0,0,0,,0,226,226,390,1,,1.912,
,,,,,,,,,,,,,,,,,,5f8836a5fb70462a169fc0ac,2020-11-27_16h02.23.683,lexical_decision_task_MP_exp2,2020.2.5,Win32,60,z,1,,,,,,,,0.853,1,,,,,,376,NW,"ID",16,iguare,IGUARE,z,,,,,,0.166666667,-0.201111111,0,0,0,,0,227,227,315,1,,0.853,
,,,,,,,,,,,,,,,,,,5f8836a5fb70462a169fc0ac,2020-11-27_16h02.23.683,lexical_decision_task_MP_exp2,2020.2.5,Win32,60,m,1,,,,,,,,0.58,1,,,,,,231,WORD,UN,33,inject,EXPORT,m,,,,,,0.166666667,-0.201111111,0,0,0,,0,228,228,170,1,,0.58,
,,,,,,,,,,,,,,,,,,5f8836a5fb70462a169fc0ac,2020-11-27_16h02.23.683,lexical_decision_task_MP_exp2,2020.2.5,Win32,60,m,1,,,,,,,,0.656,1,,,,,,81,WORD,"ID",33,friend,FRIEND,m,,,,,,0.166666667,-0.201111111,0,0,0,,0,229,229,20,1,,0.656,
,,,,,,,,,,,,,,,,,,5f8836a5fb70462a169fc0ac,2020-11-27_16h02.23.683,lexical_decision_task_MP_exp2,2020.2.5,Win32,60,m,1,,,,,,,,0.783,1,,,,,,196,WORD,UN,33,stream,CREDIT,m,,,,,,0.166666667,-0.201111111,0,0,0,,0,230,230,135,1,,0.783,
,,,,,,,,,,,,,,,,,,5f8836a5fb70462a169fc0ac,2020-11-27_16h02.23.683,lexical_decision_task_MP_exp2,2020.2.5,Win32,60,z,1,,,,,,,,0.594,1,,,,,,394,NW,"ID",16,spaqux,SPAQUX,z,,,,,,0.166666667,-0.201111111,0,0,0,,0,231,231,333,1,,0.594,
,,,,,,,,,,,,,,,,,,5f8836a5fb70462a169fc0ac,2020-11-27_16h02.23.683,lexical_decision_task_MP_exp2,2020.2.5,Win32,60,z,1,,,,,,,,0.732,1,,,,,,468,NW,UN,33,padifs,WICTOR,z,,,,,,0.166666667,-0.201111111,0,0,0,,0,232,232,407,1,,0.732,
,,,,,,,,,,,,,,,,,,5f8836a5fb70462a169fc0ac,2020-11-27_16h02.23.683,lexical_decision_task_MP_exp2,2020.2.5,Win32,60,z,0,,,,,,,,0.575,0,,,,,,189,WORD,UN,33,backup,CENSOR,m,,,,,,0.166666667,-0.201111111,0,0,0,,0,233,233,128,1,,0.575,
,,,,,,,,,,,,,,,,,,5f8836a5fb70462a169fc0ac,2020-11-27_16h02.23.683,lexical_decision_task_MP_exp2,2020.2.5,Win32,60,z,1,,,,,,,,0.633,1,,,,,,308,NW,"ID",33,psetch,PSETCH,z,,,,,,0.166666667,-0.201111111,0,0,0,,0,234,234,247,1,,0.633,
,,,,,,,,,,,,,,,,,,5f8836a5fb70462a169fc0ac,2020-11-27_16h02.23.683,lexical_decision_task_MP_exp2,2020.2.5,Win32,60,m,1,,,,,,,,0.85,1,,,,,,116,WORD,"ID",33,tumble,TUMBLE,m,,,,,,0.166666667,-0.201111111,0,0,0,,0,235,235,55,1,,0.85,
,,,,,,,,,,,,,,,,,,5f8836a5fb70462a169fc0ac,2020-11-27_16h02.23.683,lexical_decision_task_MP_exp2,2020.2.5,Win32,60,z,1,,,,,,,,0.628,1,,,,,,389,NW,"ID",16,witmer,WITMER,z,,,,,,0.166666667,-0.201111111,0,0,0,,0,236,236,328,1,,0.628,
,,,,,,,,,,,,,,,,,,5f8836a5fb70462a169fc0ac,2020-11-27_16h02.23.683,lexical_decision_task_MP_exp2,2020.2.5,Win32,60,m,1,,,,,,,,0.602,1,,,,,,206,WORD,UN,33,wreath,TAILOR,m,,,,,,0.166666667,-0.201111111,0,0,0,,0,237,237,145,1,,0.602,
,,,,,,,,,,,,,,,,,,5f8836a5fb70462a169fc0ac,2020-11-27_16h02.23.683,lexical_decision_task_MP_exp2,2020.2.5,Win32,60,m,1,,,,,,,,0.75,1,,,,,,174,WORD,"ID",16,turkey,TURKEY,m,,,,,,0.166666667,-0.201111111,0,0,0,,0,238,238,113,1,,0.75,
,,,,,,,,,,,,,,,,,,5f8836a5fb70462a169fc0ac,2020-11-27_16h02.23.683,lexical_decision_task_MP_exp2,2020.2.5,Win32,60,m,1,,,,,,,,0.887,1,,,,,,5,WORD,UN,16,bundle,PLUNGE,m,,,,,,0.166666667,-0.201111111,0,0,0,,0,239,239,184,1,,0.887,
,,,,,,,,,,,,,,,,,,5f8836a5fb70462a169fc0ac,2020-11-27_16h02.23.683,lexical_decision_task_MP_exp2,2020.2.5,Win32,60,z,1,,,,,,,,0.862,1,,,,,,407,NW,"ID",16,suiver,SUIVER,z,,,,,,0.166666667,-0.201111111,0,0,0,,0,240,240,346,1,,0.862,
,,,,,,,,,,,,,,,,,,5f8836a5fb70462a169fc0ac,2020-11-27_16h02.23.683,lexical_decision_task_MP_exp2,2020.2.5,Win32,60,m,1,,,,,,,,0.525,1,,,,,,109,WORD,"ID",33,wonder,WONDER,m,,,,,,0.166666667,-0.201111111,0,0,0,space,0,241,241,48,1,,0.525,0.743
,,,,,,,,,,,,,,,,,,5f8836a5fb70462a169fc0ac,2020-11-27_16h02.23.683,lexical_decision_task_MP_exp2,2020.2.5,Win32,60,z,0,,,,,,,,0.74,0,,,,,,16,WORD,UN,16,charge,FAUCET,m,,,,,,0.166666667,-0.201111111,0,0,0,,0,242,242,195,1,,0.74,
,,,,,,,,,,,,,,,,,,5f8836a5fb70462a169fc0ac,2020-11-27_16h02.23.683,lexical_decision_task_MP_exp2,2020.2.5,Win32,60,m,1,,,,,,,,0.633,1,,,,,,216,WORD,UN,33,liquor,BEHALF,m,,,,,,0.166666667,-0.201111111,0,0,0,,0,243,243,155,1,,0.633,
,,,,,,,,,,,,,,,,,,5f8836a5fb70462a169fc0ac,2020-11-27_16h02.23.683,lexical_decision_task_MP_exp2,2020.2.5,Win32,60,z,1,,,,,,,,0.857,1,,,,,,388,NW,"ID",16,cragin,CRAGIN,z,,,,,,0.166666667,-0.201111111,0,0,0,,0,244,244,327,1,,0.857,
,,,,,,,,,,,,,,,,,,5f8836a5fb70462a169fc0ac,2020-11-27_16h02.23.683,lexical_decision_task_MP_exp2,2020.2.5,Win32,60,m,1,,,,,,,,0.489,1,,,,,,132,WORD,"ID",16,strong,STRONG,m,,,,,,0.166666667,-0.201111111,0,0,0,,0,245,245,71,1,,0.489,
,,,,,,,,,,,,,,,,,,5f8836a5fb70462a169fc0ac,2020-11-27_16h02.23.683,lexical_decision_task_MP_exp2,2020.2.5,Win32,60,z,1,,,,,,,,0.559,1,,,,,,450,NW,UN,33,cainky,PHRECT,z,,,,,,0.166666667,-0.201111111,0,0,0,,0,246,246,389,1,,0.559,
,,,,,,,,,,,,,,,,,,5f8836a5fb70462a169fc0ac,2020-11-27_16h02.23.683,lexical_decision_task_MP_exp2,2020.2.5,Win32,60,z,0,,,,,,,,0.516,0,,,,,,122,WORD,"ID",16,linger,LINGER,m,,,,,,0.166666667,-0.201111111,0,0,0,,0,247,247,61,1,,0.516,
,,,,,,,,,,,,,,,,,,5f8836a5fb70462a169fc0ac,2020-11-27_16h02.23.683,lexical_decision_task_MP_exp2,2020.2.5,Win32,60,z,1,,,,,,,,0.656,1,,,,,,304,NW,"ID",33,cludie,CLUDIE,z,,,,,,0.166666667,-0.201111111,0,0,0,,0,248,248,243,1,,0.656,
,,,,,,,,,,,,,,,,,,5f8836a5fb70462a169fc0ac,2020-11-27_16h02.23.683,lexical_decision_task_MP_exp2,2020.2.5,Win32,60,m,1,,,,,,,,0.536,1,,,,,,37,WORD,UN,16,powder,INSULT,m,,,,,,0.166666667,-0.201111111,0,0,0,,0,249,249,216,1,,0.536,
,,,,,,,,,,,,,,,,,,5f8836a5fb70462a169fc0ac,2020-11-27_16h02.23.683,lexical_decision_task_MP_exp2,2020.2.5,Win32,60,z,1,,,,,,,,0.612,1,,,,,,470,NW,UN,33,nobest,CRUDIO,z,,,,,,0.166666667,-0.201111111,0,0,0,,0,250,250,409,1,,0.612,
,,,,,,,,,,,,,,,,,,5f8836a5fb70462a169fc0ac,2020-11-27_16h02.23.683,lexical_decision_task_MP_exp2,2020.2.5,Win32,60,z,1,,,,,,,,0.615,1,,,,,,242,NW,UN,16,musied,UNWERT,z,,,,,,0.166666667,-0.201111111,0,0,0,,0,251,251,421,1,,0.615,
,,,,,,,,,,,,,,,,,,5f8836a5fb70462a169fc0ac,2020-11-27_16h02.23.683,lexical_decision_task_MP_exp2,2020.2.5,Win32,60,m,1,,,,,,,,0.551,1,,,,,,188,WORD,UN,33,censor,SOCIAL,m,,,,,,0.166666667,-0.201111111,0,0,0,,0,252,252,127,1,,0.551,
,,,,,,,,,,,,,,,,,,5f8836a5fb70462a169fc0ac,2020-11-27_16h02.23.683,lexical_decision_task_MP_exp2,2020.2.5,Win32,60,z,1,,,,,,,,0.817,1,,,,,,467,NW,UN,33,wictor,GORBIE,z,,,,,,0.166666667,-0.201111111,0,0,0,,0,253,253,406,1,,0.817,
,,,,,,,,,,,,,,,,,,5f8836a5fb70462a169fc0ac,2020-11-27_16h02.23.683,lexical_decision_task_MP_exp2,2020.2.5,Win32,60,z,1,,,,,,,,0.627,1,,,,,,276,NW,UN,16,petain,YARMON,z,,,,,,0.166666667,-0.201111111,0,0,0,,0,254,254,455,1,,0.627,
,,,,,,,,,,,,,,,,,,5f8836a5fb70462a169fc0ac,2020-11-27_16h02.23.683,lexical_decision_task_MP_exp2,2020.2.5,Win32,60,m,1,,,,,,,,0.669,1,,,,,,34,WORD,UN,16,socket,JUNGLE,m,,,,,,0.166666667,-0.201111111,0,0,0,,0,255,255,213,1,,0.669,
,,,,,,,,,,,,,,,,,,5f8836a5fb70462a169fc0ac,2020-11-27_16h02.23.683,lexical_decision_task_MP_exp2,2020.2.5,Win32,60,m,1,,,,,,,,0.548,1,,,,,,186,WORD,UN,33,course,PORTAL,m,,,,,,0.166666667,-0.201111111,0,0,0,,0,256,256,125,1,,0.548,
,,,,,,,,,,,,,,,,,,5f8836a5fb70462a169fc0ac,2020-11-27_16h02.23.683,lexical_decision_task_MP_exp2,2020.2.5,Win32,60,m,1,,,,,,,,0.584,1,,,,,,169,WORD,"ID",16,genius,GENIUS,m,,,,,,0.166666667,-0.201111111,0,0,0,,0,257,257,108,1,,0.584,
,,,,,,,,,,,,,,,,,,5f8836a5fb70462a169fc0ac,2020-11-27_16h02.23.683,lexical_decision_task_MP_exp2,2020.2.5,Win32,60,m,1,,,,,,,,0.562,1,,,,,,84,WORD,"ID",33,mortal,MORTAL,m,,,,,,0.166666667,-0.201111111,0,0,0,,0,258,258,23,1,,0.562,
,,,,,,,,,,,,,,,,,,5f8836a5fb70462a169fc0ac,2020-11-27_16h02.23.683,lexical_decision_task_MP_exp2,2020.2.5,Win32,60,z,0,,,,,,,,0.654,0,,,,,,86,WORD,"ID",33,rodent,RODENT,m,,,,,,0.166666667,-0.201111111,0,0,0,,0,259,259,25,1,,0.654,
,,,,,,,,,,,,,,,,,,5f8836a5fb70462a169fc0ac,2020-11-27_16h02.23.683,lexical_decision_task_MP_exp2,2020.2.5,Win32,60,z,0,,,,,,,,0.701,0,,,,,,33,WORD,UN,16,jungle,BUTLER,m,,,,,,0.166666667,-0.201111111,0,0,0,,0,260,260,212,1,,0.701,
,,,,,,,,,,,,,,,,,,5f8836a5fb70462a169fc0ac,2020-11-27_16h02.23.683,lexical_decision_task_MP_exp2,2020.2.5,Win32,60,m,1,,,,,,,,0.724,1,,,,,,138,WORD,"ID",16,melody,MELODY,m,,,,,,0.166666667,-0.201111111,0,0,0,,0,261,261,77,1,,0.724,
,,,,,,,,,,,,,,,,,,5f8836a5fb70462a169fc0ac,2020-11-27_16h02.23.683,lexical_decision_task_MP_exp2,2020.2.5,Win32,60,z,1,,,,,,,,0.999,1,,,,,,279,NW,UN,16,curbol,CELOND,z,,,,,,0.166666667,-0.201111111,0,0,0,,0,262,262,458,1,,0.999,
,,,,,,,,,,,,,,,,,,5f8836a5fb70462a169fc0ac,2020-11-27_16h02.23.683,lexical_decision_task_MP_exp2,2020.2.5,Win32,60,m,1,,,,,,,,0.874,1,,,,,,10,WORD,UN,16,cruise,ETHNIC,m,,,,,,0.166666667,-0.201111111,0,0,0,,0,263,263,189,1,,0.874,
,,,,,,,,,,,,,,,,,,5f8836a5fb70462a169fc0ac,2020-11-27_16h02.23.683,lexical_decision_task_MP_exp2,2020.2.5,Win32,60,m,1,,,,,,,,0.81,1,,,,,,9,WORD,UN,16,bridge,HUSTLE,m,,,,,,0.166666667,-0.201111111,0,0,0,,0,264,264,188,1,,0.81,
,,,,,,,,,,,,,,,,,,5f8836a5fb70462a169fc0ac,2020-11-27_16h02.23.683,lexical_decision_task_MP_exp2,2020.2.5,Win32,60,z,1,,,,,,,,0.717,1,,,,,,415,NW,"ID",16,higsta,HIGSTA,z,,,,,,0.166666667,-0.201111111,0,0,0,,0,265,265,354,1,,0.717,
,,,,,,,,,,,,,,,,,,5f8836a5fb70462a169fc0ac,2020-11-27_16h02.23.683,lexical_decision_task_MP_exp2,2020.2.5,Win32,60,z,1,,,,,,,,0.863,1,,,,,,322,NW,"ID",33,slanch,SLANCH,z,,,,,,0.166666667,-0.201111111,0,0,0,,0,266,266,261,1,,0.863,
,,,,,,,,,,,,,,,,,,5f8836a5fb70462a169fc0ac,2020-11-27_16h02.23.683,lexical_decision_task_MP_exp2,2020.2.5,Win32,60,z,1,,,,,,,,0.622,1,,,,,,463,NW,UN,33,chaite,KISPEL,z,,,,,,0.166666667,-0.201111111,0,0,0,,0,267,267,402,1,,0.622,
,,,,,,,,,,,,,,,,,,5f8836a5fb70462a169fc0ac,2020-11-27_16h02.23.683,lexical_decision_task_MP_exp2,2020.2.5,Win32,60,z,1,,,,,,,,0.672,1,,,,,,260,NW,UN,16,stunch,UNJECT,z,,,,,,0.166666667,-0.201111111,0,0,0,,0,268,268,439,1,,0.672,
,,,,,,,,,,,,,,,,,,5f8836a5fb70462a169fc0ac,2020-11-27_16h02.23.683,lexical_decision_task_MP_exp2,2020.2.5,Win32,60,z,1,,,,,,,,0.633,1,,,,,,350,NW,"ID",33,nagurs,NAGURS,z,,,,,,0.166666667,-0.201111111,0,0,0,,0,269,269,289,1,,0.633,
,,,,,,,,,,,,,,,,,,5f8836a5fb70462a169fc0ac,2020-11-27_16h02.23.683,lexical_decision_task_MP_exp2,2020.2.5,Win32,60,m,1,,,,,,,,0.544,1,,,,,,14,WORD,UN,16,orange,ALMOST,m,,,,,,0.166666667,-0.201111111,0,0,0,,0,270,270,193,1,,0.544,
,,,,,,,,,,,,,,,,,,5f8836a5fb70462a169fc0ac,2020-11-27_16h02.23.683,lexical_decision_task_MP_exp2,2020.2.5,Win32,60,m,1,,,,,,,,0.54,1,,,,,,130,WORD,"ID",16,stupid,STUPID,m,,,,,,0.166666667,-0.201111111,0,0,0,,0,271,271,69,1,,0.54,
,,,,,,,,,,,,,,,,,,5f8836a5fb70462a169fc0ac,2020-11-27_16h02.23.683,lexical_decision_task_MP_exp2,2020.2.5,Win32,60,z,1,,,,,,,,0.649,1,,,,,,381,NW,"ID",16,huniek,HUNIEK,z,,,,,,0.166666667,-0.201111111,0,0,0,,0,272,272,320,1,,0.649,
,,,,,,,,,,,,,,,,,,5f8836a5fb70462a169fc0ac,2020-11-27_16h02.23.683,lexical_decision_task_MP_exp2,2020.2.5,Win32,60,m,1,,,,,,,,0.696,1,,,,,,211,WORD,UN,33,verify,INFECT,m,,,,,,0.166666667,-0.201111111,0,0,0,,0,273,273,150,1,,0.696,
,,,,,,,,,,,,,,,,,,5f8836a5fb70462a169fc0ac,2020-11-27_16h02.23.683,lexical_decision_task_MP_exp2,2020.2.5,Win32,60,m,0,,,,,,,,1.27,0,,,,,,402,NW,"ID",16,syntic,SYNTIC,z,,,,,,0.166666667,-0.201111111,0,0,0,,0,274,274,341,1,,1.27,
,,,,,,,,,,,,,,,,,,5f8836a5fb70462a169fc0ac,2020-11-27_16h02.23.683,lexical_decision_task_MP_exp2,2020.2.5,Win32,60,m,0,,,,,,,,0.478,0,,,,,,335,NW,"ID",33,desion,DESION,z,,,,,,0.166666667,-0.201111111,0,0,0,,0,275,275,274,1,,0.478,
,,,,,,,,,,,,,,,,,,5f8836a5fb70462a169fc0ac,2020-11-27_16h02.23.683,lexical_decision_task_MP_exp2,2020.2.5,Win32,60,m,1,,,,,,,,0.572,1,,,,,,129,WORD,"ID",16,marvel,MARVEL,m,,,,,,0.166666667,-0.201111111,0,0,0,,0,276,276,68,1,,0.572,
,,,,,,,,,,,,,,,,,,5f8836a5fb70462a169fc0ac,2020-11-27_16h02.23.683,lexical_decision_task_MP_exp2,2020.2.5,Win32,60,z,1,,,,,,,,0.575,1,,,,,,287,NW,UN,16,yaceup,NYMBEL,z,,,,,,0.166666667,-0.201111111,0,0,0,,0,277,277,466,1,,0.575,
,,,,,,,,,,,,,,,,,,5f8836a5fb70462a169fc0ac,2020-11-27_16h02.23.683,lexical_decision_task_MP_exp2,2020.2.5,Win32,60,m,1,,,,,,,,0.546,1,,,,,,104,WORD,"ID",33,studio,STUDIO,m,,,,,,0.166666667,-0.201111111,0,0,0,,0,278,278,43,1,,0.546,
,,,,,,,,,,,,,,,,,,5f8836a5fb70462a169fc0ac,2020-11-27_16h02.23.683,lexical_decision_task_MP_exp2,2020.2.5,Win32,60,z,1,,,,,,,,0.92,1,,,,,,368,NW,"ID",16,hornal,HORNAL,z,,,,,,0.166666667,-0.201111111,0,0,0,,0,279,279,307,1,,0.92,
,,,,,,,,,,,,,,,,,,5f8836a5fb70462a169fc0ac,2020-11-27_16h02.23.683,lexical_decision_task_MP_exp2,2020.2.5,Win32,60,z,1,,,,,,,,0.725,1,,,,,,371,NW,"ID",16,geiloy,GEILOY,z,,,,,,0.166666667,-0.201111111,0,0,0,,0,280,280,310,1,,0.725,
,,,,,,,,,,,,,,,,,,5f8836a5fb70462a169fc0ac,2020-11-27_16h02.23.683,lexical_decision_task_MP_exp2,2020.2.5,Win32,60,m,0,,,,,,,,0.706,0,,,,,,380,NW,"ID",16,cavory,CAVORY,z,,,,,,0.166666667,-0.201111111,0,0,0,,0,281,281,319,1,,0.706,
,,,,,,,,,,,,,,,,,,5f8836a5fb70462a169fc0ac,2020-11-27_16h02.23.683,lexical_decision_task_MP_exp2,2020.2.5,Win32,60,m,1,,,,,,,,0.511,1,,,,,,12,WORD,UN,16,strive,ORANGE,m,,,,,,0.166666667,-0.201111111,0,0,0,,0,282,282,191,1,,0.511,
,,,,,,,,,,,,,,,,,,5f8836a5fb70462a169fc0ac,2020-11-27_16h02.23.683,lexical_decision_task_MP_exp2,2020.2.5,Win32,60,m,0,,,,,,,,0.596,0,,,,,,439,NW,UN,33,saride,LIMPOR,z,,,,,,0.166666667,-0.201111111,0,0,0,,0,283,283,378,1,,0.596,
,,,,,,,,,,,,,,,,,,5f8836a5fb70462a169fc0ac,2020-11-27_16h02.23.683,lexical_decision_task_MP_exp2,2020.2.5,Win32,60,z,0,,,,,,,,0.584,0,,,,,,227,WORD,UN,33,master,SELDOM,m,,,,,,0.166666667,-0.201111111,0,0,0,,0,284,284,166,1,,0.584,
,,,,,,,,,,,,,,,,,,5f8836a5fb70462a169fc0ac,2020-11-27_16h02.23.683,lexical_decision_task_MP_exp2,2020.2.5,Win32,60,z,0,,,,,,,,0.57,0,,,,,,31,WORD,UN,16,buckle,WEAPON,m,,,,,,0.166666667,-0.201111111,0,0,0,,0,285,285,210,1,,0.57,
,,,,,,,,,,,,,,,,,,5f8836a5fb70462a169fc0ac,2020-11-27_16h02.23.683,lexical_decision_task_MP_exp2,2020.2.5,Win32,60,z,1,,,,,,,,1.253,1,,,,,,281,NW,UN,16,porlex,MELATY,z,,,,,,0.166666667,-0.201111111,0,0,0,,0,286,286,460,1,,1.253,
,,,,,,,,,,,,,,,,,,5f8836a5fb70462a169fc0ac,2020-11-27_16h02.23.683,lexical_decision_task_MP_exp2,2020.2.5,Win32,60,z,1,,,,,,,,1.252,1,,,,,,251,NW,UN,16,stapod,LUPICT,z,,,,,,0.166666667,-0.201111111,0,0,0,,0,287,287,430,1,,1.252,
,,,,,,,,,,,,,,,,,,5f8836a5fb70462a169fc0ac,2020-11-27_16h02.23.683,lexical_decision_task_MP_exp2,2020.2.5,Win32,60,m,1,,,,,,,,0.907,1,,,,,,114,WORD,"ID",33,placid,PLACID,m,,,,,,0.166666667,-0.201111111,0,0,0,,0,288,288,53,1,,0.907,
,,,,,,,,,,,,,,,,,,5f8836a5fb70462a169fc0ac,2020-11-27_16h02.23.683,lexical_decision_task_MP_exp2,2020.2.5,Win32,60,m,0,,,,,,,,0.609,0,,,,,,398,NW,"ID",16,blunde,BLUNDE,z,,,,,,0.166666667,-0.201111111,0,0,0,,0,289,289,337,1,,0.609,
,,,,,,,,,,,,,,,,,,5f8836a5fb70462a169fc0ac,2020-11-27_16h02.23.683,lexical_decision_task_MP_exp2,2020.2.5,Win32,60,m,0,,,,,,,,0.652,0,,,,,,373,NW,"ID",16,bigent,BIGENT,z,,,,,,0.166666667,-0.201111111,0,0,0,,0,290,290,312,1,,0.652,
,,,,,,,,,,,,,,,,,,5f8836a5fb70462a169fc0ac,2020-11-27_16h02.23.683,lexical_decision_task_MP_exp2,2020.2.5,Win32,60,z,0,,,,,,,,0.75,0,,,,,,48,WORD,UN,16,survey,WALNUT,m,,,,,,0.166666667,-0.201111111,0,0,0,,0,291,291,227,1,,0.75,
,,,,,,,,,,,,,,,,,,5f8836a5fb70462a169fc0ac,2020-11-27_16h02.23.683,lexical_decision_task_MP_exp2,2020.2.5,Win32,60,m,1,,,,,,,,0.792,1,,,,,,47,WORD,UN,16,walnut,INCOME,m,,,,,,0.166666667,-0.201111111,0,0,0,,0,292,292,226,1,,0.792,
,,,,,,,,,,,,,,,,,,5f8836a5fb70462a169fc0ac,2020-11-27_16h02.23.683,lexical_decision_task_MP_exp2,2020.2.5,Win32,60,z,1,,,,,,,,0.706,1,,,,,,312,NW,"ID",33,nerawl,NERAWL,z,,,,,,0.166666667,-0.201111111,0,0,0,,0,293,293,251,1,,0.706,
,,,,,,,,,,,,,,,,,,5f8836a5fb70462a169fc0ac,2020-11-27_16h02.23.683,lexical_decision_task_MP_exp2,2020.2.5,Win32,60,m,1,,,,,,,,0.656,1,,,,,,35,WORD,UN,16,vanish,SOCKET,m,,,,,,0.166666667,-0.201111111,0,0,0,,0,294,294,214,1,,0.656,
,,,,,,,,,,,,,,,,,,5f8836a5fb70462a169fc0ac,2020-11-27_16h02.23.683,lexical_decision_task_MP_exp2,2020.2.5,Win32,60,z,1,,,,,,,,0.751,1,,,,,,317,NW,"ID",33,worbal,WORBAL,z,,,,,,0.166666667,-0.201111111,0,0,0,,0,295,295,256,1,,0.751,
,,,,,,,,,,,,,,,,,,5f8836a5fb70462a169fc0ac,2020-11-27_16h02.23.683,lexical_decision_task_MP_exp2,2020.2.5,Win32,60,m,0,,,,,,,,0.906,0,,,,,,396,NW,"ID",16,flengy,FLENGY,z,,,,,,0.166666667,-0.201111111,0,0,0,,0,296,296,335,1,,0.906,
,,,,,,,,,,,,,,,,,,5f8836a5fb70462a169fc0ac,2020-11-27_16h02.23.683,lexical_decision_task_MP_exp2,2020.2.5,Win32,60,m,1,,,,,,,,0.609,1,,,,,,237,WORD,UN,33,glance,POSTER,m,,,,,,0.166666667,-0.201111111,0,0,0,,0,297,297,176,1,,0.609,
,,,,,,,,,,,,,,,,,,5f8836a5fb70462a169fc0ac,2020-11-27_16h02.23.683,lexical_decision_task_MP_exp2,2020.2.5,Win32,60,z,1,,,,,,,,0.729,1,,,,,,333,NW,"ID",33,catrie,CATRIE,z,,,,,,0.166666667,-0.201111111,0,0,0,,0,298,298,272,1,,0.729,
,,,,,,,,,,,,,,,,,,5f8836a5fb70462a169fc0ac,2020-11-27_16h02.23.683,lexical_decision_task_MP_exp2,2020.2.5,Win32,60,m,1,,,,,,,,0.606,1,,,,,,87,WORD,"ID",33,filter,FILTER,m,,,,,,0.166666667,-0.201111111,0,0,0,,0,299,299,26,1,,0.606,
,,,,,,,,,,,,,,,,,,5f8836a5fb70462a169fc0ac,2020-11-27_16h02.23.683,lexical_decision_task_MP_exp2,2020.2.5,Win32,60,z,1,,,,,,,,0.648,1,,,,,,446,NW,UN,33,gircue,RUNAMO,z,,,,,,0.166666667,-0.201111111,0,0,0,,0,300,300,385,1,,0.648,
,,,,,,,,,,,,,,,,,,5f8836a5fb70462a169fc0ac,2020-11-27_16h02.23.683,lexical_decision_task_MP_exp2,2020.2.5,Win32,60,z,1,,,,,,,,0.688,1,,,,,,321,NW,"ID",33,miator,MIATOR,z,,,,,,0.166666667,-0.201111111,0,0,0,,0,301,301,260,1,,0.688,
,,,,,,,,,,,,,,,,,,5f8836a5fb70462a169fc0ac,2020-11-27_16h02.23.683,lexical_decision_task_MP_exp2,2020.2.5,Win32,60,z,1,,,,,,,,0.644,1,,,,,,349,NW,"ID",33,asylen,ASYLEN,z,,,,,,0.166666667,-0.201111111,0,0,0,,0,302,302,288,1,,0.644,
,,,,,,,,,,,,,,,,,,5f8836a5fb70462a169fc0ac,2020-11-27_16h02.23.683,lexical_decision_task_MP_exp2,2020.2.5,Win32,60,z,1,,,,,,,,0.686,1,,,,,,432,NW,UN,33,drance,LUNKER,z,,,,,,0.166666667,-0.201111111,0,0,0,,0,303,303,371,1,,0.686,
,,,,,,,,,,,,,,,,,,5f8836a5fb70462a169fc0ac,2020-11-27_16h02.23.683,lexical_decision_task_MP_exp2,2020.2.5,Win32,60,z,1,,,,,,,,0.81,1,,,,,,361,NW,"ID",16,pauche,PAUCHE,z,,,,,,0.166666667,-0.201111111,0,0,0,,0,304,304,300,1,,0.81,
,,,,,,,,,,,,,,,,,,5f8836a5fb70462a169fc0ac,2020-11-27_16h02.23.683,lexical_decision_task_MP_exp2,2020.2.5,Win32,60,z,1,,,,,,,,0.846,1,,,,,,334,NW,"ID",33,watmeg,WATMEG,z,,,,,,0.166666667,-0.201111111,0,0,0,,0,305,305,273,1,,0.846,
,,,,,,,,,,,,,,,,,,5f8836a5fb70462a169fc0ac,2020-11-27_16h02.23.683,lexical_decision_task_MP_exp2,2020.2.5,Win32,60,z,1,,,,,,,,1.068,1,,,,,,469,NW,UN,33,crudio,PADIFS,z,,,,,,0.166666667,-0.201111111,0,0,0,,0,306,306,408,1,,1.068,
,,,,,,,,,,,,,,,,,,5f8836a5fb70462a169fc0ac,2020-11-27_16h02.23.683,lexical_decision_task_MP_exp2,2020.2.5,Win32,60,m,1,,,,,,,,0.644,1,,,,,,90,WORD,"ID",33,relish,RELISH,m,,,,,,0.166666667,-0.201111111,0,0,0,,0,307,307,29,1,,0.644,
,,,,,,,,,,,,,,,,,,5f8836a5fb70462a169fc0ac,2020-11-27_16h02.23.683,lexical_decision_task_MP_exp2,2020.2.5,Win32,60,m,0,,,,,,,,0.644,0,,,,,,419,NW,"ID",16,slount,SLOUNT,z,,,,,,0.166666667,-0.201111111,0,0,0,,0,308,308,358,1,,0.644,
,,,,,,,,,,,,,,,,,,5f8836a5fb70462a169fc0ac,2020-11-27_16h02.23.683,lexical_decision_task_MP_exp2,2020.2.5,Win32,60,m,0,,,,,,,,0.66,0,,,,,,418,NW,"ID",16,suidle,SUIDLE,z,,,,,,0.166666667,-0.201111111,0,0,0,,0,309,309,357,1,,0.66,
,,,,,,,,,,,,,,,,,,5f8836a5fb70462a169fc0ac,2020-11-27_16h02.23.683,lexical_decision_task_MP_exp2,2020.2.5,Win32,60,m,0,,,,,,,,0.861,0,,,,,,478,NW,UN,33,pebric,ACRISE,z,,,,,,0.166666667,-0.201111111,0,0,0,,0,310,310,417,1,,0.861,
,,,,,,,,,,,,,,,,,,5f8836a5fb70462a169fc0ac,2020-11-27_16h02.23.683,lexical_decision_task_MP_exp2,2020.2.5,Win32,60,z,1,,,,,,,,0.891,1,,,,,,384,NW,"ID",16,guesco,GUESCO,z,,,,,,0.166666667,-0.201111111,0,0,0,,0,311,311,323,1,,0.891,
,,,,,,,,,,,,,,,,,,5f8836a5fb70462a169fc0ac,2020-11-27_16h02.23.683,lexical_decision_task_MP_exp2,2020.2.5,Win32,60,m,1,,,,,,,,0.554,1,,,,,,96,WORD,"ID",33,ignore,IGNORE,m,,,,,,0.166666667,-0.201111111,0,0,0,,0,312,312,35,1,,0.554,
,,,,,,,,,,,,,,,,,,5f8836a5fb70462a169fc0ac,2020-11-27_16h02.23.683,lexical_decision_task_MP_exp2,2020.2.5,Win32,60,m,1,,,,,,,,0.533,1,,,,,,148,WORD,"ID",16,custom,CUSTOM,m,,,,,,0.166666667,-0.201111111,0,0,0,,0,313,313,87,1,,0.533,
,,,,,,,,,,,,,,,,,,5f8836a5fb70462a169fc0ac,2020-11-27_16h02.23.683,lexical_decision_task_MP_exp2,2020.2.5,Win32,60,m,1,,,,,,,,0.517,1,,,,,,41,WORD,UN,16,chapel,SPRING,m,,,,,,0.166666667,-0.201111111,0,0,0,,0,314,314,220,1,,0.517,
,,,,,,,,,,,,,,,,,,5f8836a5fb70462a169fc0ac,2020-11-27_16h02.23.683,lexical_decision_task_MP_exp2,2020.2.5,Win32,60,m,1,,,,,,,,0.96,1,,,,,,4,WORD,UN,16,plunge,TRENCH,m,,,,,,0.166666667,-0.201111111,0,0,0,,0,315,315,183,1,,0.96,
,,,,,,,,,,,,,,,,,,5f8836a5fb70462a169fc0ac,2020-11-27_16h02.23.683,lexical_decision_task_MP_exp2,2020.2.5,Win32,60,m,1,,,,,,,,0.603,1,,,,,,95,WORD,"ID",33,thread,THREAD,m,,,,,,0.166666667,-0.201111111,0,0,0,,0,316,316,34,1,,0.603,
,,,,,,,,,,,,,,,,,,5f8836a5fb70462a169fc0ac,2020-11-27_16h02.23.683,lexical_decision_task_MP_exp2,2020.2.5,Win32,60,z,1,,,,,,,,0.612,1,,,,,,459,NW,UN,33,mingar,BAFENT,z,,,,,,0.166666667,-0.201111111,0,0,0,,0,317,317,398,1,,0.612,
,,,,,,,,,,,,,,,,,,5f8836a5fb70462a169fc0ac,2020-11-27_16h02.23.683,lexical_decision_task_MP_exp2,2020.2.5,Win32,60,z,1,,,,,,,,0.527,1,,,,,,413,NW,"ID",16,equats,EQUATS,z,,,,,,0.166666667,-0.201111111,0,0,0,,0,318,318,352,1,,0.527,
,,,,,,,,,,,,,,,,,,5f8836a5fb70462a169fc0ac,2020-11-27_16h02.23.683,lexical_decision_task_MP_exp2,2020.2.5,Win32,60,m,1,,,,,,,,1.035,1,,,,,,141,WORD,"ID",16,orphan,ORPHAN,m,,,,,,0.166666667,-0.201111111,0,0,0,,0,319,319,80,1,,1.035,
,,,,,,,,,,,,,,,,,,5f8836a5fb70462a169fc0ac,2020-11-27_16h02.23.683,lexical_decision_task_MP_exp2,2020.2.5,Win32,60,z,1,,,,,,,,1.179,1,,,,,,405,NW,"ID",16,flumni,FLUMNI,z,,,,,,0.166666667,-0.201111111,0,0,0,,0,320,320,344,1,,1.179,
,,,,,,,,,,,,,,,,,,5f8836a5fb70462a169fc0ac,2020-11-27_16h02.23.683,lexical_decision_task_MP_exp2,2020.2.5,Win32,60,z,1,,,,,,,,1.102,1,,,,,,360,NW,"ID",33,desory,DESORY,z,,,,,,0.166666667,-0.201111111,0,0,0,,0,321,321,299,1,,1.102,
,,,,,,,,,,,,,,,,,,5f8836a5fb70462a169fc0ac,2020-11-27_16h02.23.683,lexical_decision_task_MP_exp2,2020.2.5,Win32,60,z,1,,,,,,,,1.067,1,,,,,,436,NW,UN,33,snapel,FRUTAN,z,,,,,,0.166666667,-0.201111111,0,0,0,,0,322,322,375,1,,1.067,
,,,,,,,,,,,,,,,,,,5f8836a5fb70462a169fc0ac,2020-11-27_16h02.23.683,lexical_decision_task_MP_exp2,2020.2.5,Win32,60,m,1,,,,,,,,0.586,1,,,,,,229,WORD,UN,33,fringe,MOTHER,m,,,,,,0.166666667,-0.201111111,0,0,0,,0,323,323,168,1,,0.586,
,,,,,,,,,,,,,,,,,,5f8836a5fb70462a169fc0ac,2020-11-27_16h02.23.683,lexical_decision_task_MP_exp2,2020.2.5,Win32,60,m,0,,,,,,,,1.092,0,,,,,,352,NW,"ID",33,tringe,TRINGE,z,,,,,,0.166666667,-0.201111111,0,0,0,,0,324,324,291,1,,1.092,
,,,,,,,,,,,,,,,,,,5f8836a5fb70462a169fc0ac,2020-11-27_16h02.23.683,lexical_decision_task_MP_exp2,2020.2.5,Win32,60,m,1,,,,,,,,0.641,1,,,,,,230,WORD,UN,33,mother,FRINGE,m,,,,,,0.166666667,-0.201111111,0,0,0,,0,325,325,169,1,,0.641,
,,,,,,,,,,,,,,,,,,5f8836a5fb70462a169fc0ac,2020-11-27_16h02.23.683,lexical_decision_task_MP_exp2,2020.2.5,Win32,60,z,1,,,,,,,,0.938,1,,,,,,313,NW,"ID",33,paurse,PAURSE,z,,,,,,0.166666667,-0.201111111,0,0,0,,0,326,326,252,1,,0.938,
,,,,,,,,,,,,,,,,,,5f8836a5fb70462a169fc0ac,2020-11-27_16h02.23.683,lexical_decision_task_MP_exp2,2020.2.5,Win32,60,z,1,,,,,,,,1.037,1,,,,,,328,NW,"ID",33,broake,BROAKE,z,,,,,,0.166666667,-0.201111111,0,0,0,,0,327,327,267,1,,1.037,
,,,,,,,,,,,,,,,,,,5f8836a5fb70462a169fc0ac,2020-11-27_16h02.23.683,lexical_decision_task_MP_exp2,2020.2.5,Win32,60,m,1,,,,,,,,0.75,1,,,,,,153,WORD,"ID",16,behold,BEHOLD,m,,,,,,0.166666667,-0.201111111,0,0,0,,0,328,328,92,1,,0.75,
,,,,,,,,,,,,,,,,,,5f8836a5fb70462a169fc0ac,2020-11-27_16h02.23.683,lexical_decision_task_MP_exp2,2020.2.5,Win32,60,m,1,,,,,,,,0.682,1,,,,,,151,WORD,"ID",16,mystic,MYSTIC,m,,,,,,0.166666667,-0.201111111,0,0,0,,0,329,329,90,1,,0.682,
,,,,,,,,,,,,,,,,,,5f8836a5fb70462a169fc0ac,2020-11-27_16h02.23.683,lexical_decision_task_MP_exp2,2020.2.5,Win32,60,z,1,,,,,,,,0.777,1,,,,,,369,NW,"ID",16,wronch,WRONCH,z,,,,,,0.166666667,-0.201111111,0,0,0,,0,330,330,308,1,,0.777,
,,,,,,,,,,,,,,,,,,5f8836a5fb70462a169fc0ac,2020-11-27_16h02.23.683,lexical_decision_task_MP_exp2,2020.2.5,Win32,60,,0,,,,,,,,0.777,-1,,,,,,64,WORD,"ID",33,throne,THRONE,m,,,,,,0.166666667,-0.201111111,0,0,0,,0,331,331,3,1,,,
,,,,,,,,,,,,,,,,,,5f8836a5fb70462a169fc0ac,2020-11-27_16h02.23.683,lexical_decision_task_MP_exp2,2020.2.5,Win32,60,z,0,,,,,,,,0.619,0,,,,,,131,WORD,"ID",16,quench,QUENCH,m,,,,,,0.166666667,-0.201111111,0,0,0,,0,332,332,70,1,,0.619,
,,,,,,,,,,,,,,,,,,5f8836a5fb70462a169fc0ac,2020-11-27_16h02.23.683,lexical_decision_task_MP_exp2,2020.2.5,Win32,60,m,1,,,,,,,,0.644,1,,,,,,145,WORD,"ID",16,parish,PARISH,m,,,,,,0.166666667,-0.201111111,0,0,0,,0,333,333,84,1,,0.644,
,,,,,,,,,,,,,,,,,,5f8836a5fb70462a169fc0ac,2020-11-27_16h02.23.683,lexical_decision_task_MP_exp2,2020.2.5,Win32,60,m,1,,,,,,,,0.604,1,,,,,,207,WORD,UN,33,hockey,WREATH,m,,,,,,0.166666667,-0.201111111,0,0,0,,0,334,334,146,1,,0.604,
,,,,,,,,,,,,,,,,,,5f8836a5fb70462a169fc0ac,2020-11-27_16h02.23.683,lexical_decision_task_MP_exp2,2020.2.5,Win32,60,m,0,,,,,,,,0.767,0,,,,,,358,NW,"ID",33,fleack,FLEACK,z,,,,,,0.166666667,-0.201111111,0,0,0,,0,335,335,297,1,,0.767,
,,,,,,,,,,,,,,,,,,5f8836a5fb70462a169fc0ac,2020-11-27_16h02.23.683,lexical_decision_task_MP_exp2,2020.2.5,Win32,60,z,1,,,,,,,,0.816,1,,,,,,339,NW,"ID",33,fachow,FACHOW,z,,,,,,0.166666667,-0.201111111,0,0,0,,0,336,336,278,1,,0.816,
,,,,,,,,,,,,,,,,,,5f8836a5fb70462a169fc0ac,2020-11-27_16h02.23.683,lexical_decision_task_MP_exp2,2020.2.5,Win32,60,m,1,,,,,,,,0.624,1,,,,,,233,WORD,UN,33,clumsy,NATURE,m,,,,,,0.166666667,-0.201111111,0,0,0,,0,337,337,172,1,,0.624,
,,,,,,,,,,,,,,,,,,5f8836a5fb70462a169fc0ac,2020-11-27_16h02.23.683,lexical_decision_task_MP_exp2,2020.2.5,Win32,60,z,1,,,,,,,,1.058,1,,,,,,244,NW,UN,16,anougs,EATRIC,z,,,,,,0.166666667,-0.201111111,0,0,0,,0,338,338,423,1,,1.058,
,,,,,,,,,,,,,,,,,,5f8836a5fb70462a169fc0ac,2020-11-27_16h02.23.683,lexical_decision_task_MP_exp2,2020.2.5,Win32,60,z,1,,,,,,,,0.696,1,,,,,,474,NW,UN,33,acrise,HABLIN,z,,,,,,0.166666667,-0.201111111,0,0,0,,0,339,339,413,1,,0.696,
,,,,,,,,,,,,,,,,,,5f8836a5fb70462a169fc0ac,2020-11-27_16h02.23.683,lexical_decision_task_MP_exp2,2020.2.5,Win32,60,m,1,,,,,,,,0.711,1,,,,,,115,WORD,"ID",33,guitar,GUITAR,m,,,,,,0.166666667,-0.201111111,0,0,0,,0,340,340,54,1,,0.711,
,,,,,,,,,,,,,,,,,,5f8836a5fb70462a169fc0ac,2020-11-27_16h02.23.683,lexical_decision_task_MP_exp2,2020.2.5,Win32,60,z,1,,,,,,,,0.611,1,,,,,,465,NW,UN,33,bafent,WHIVEX,z,,,,,,0.166666667,-0.201111111,0,0,0,,0,341,341,404,1,,0.611,
,,,,,,,,,,,,,,,,,,5f8836a5fb70462a169fc0ac,2020-11-27_16h02.23.683,lexical_decision_task_MP_exp2,2020.2.5,Win32,60,z,1,,,,,,,,0.788,1,,,,,,318,NW,"ID",33,reagly,REAGLY,z,,,,,,0.166666667,-0.201111111,0,0,0,,0,342,342,257,1,,0.788,
,,,,,,,,,,,,,,,,,,5f8836a5fb70462a169fc0ac,2020-11-27_16h02.23.683,lexical_decision_task_MP_exp2,2020.2.5,Win32,60,z,1,,,,,,,,0.84,1,,,,,,268,NW,UN,16,orchet,PACKES,z,,,,,,0.166666667,-0.201111111,0,0,0,,0,343,343,447,1,,0.84,
,,,,,,,,,,,,,,,,,,5f8836a5fb70462a169fc0ac,2020-11-27_16h02.23.683,lexical_decision_task_MP_exp2,2020.2.5,Win32,60,z,1,,,,,,,,0.745,1,,,,,,400,NW,"ID",16,wearox,WEAROX,z,,,,,,0.166666667,-0.201111111,0,0,0,,0,344,344,339,1,,0.745,
,,,,,,,,,,,,,,,,,,5f8836a5fb70462a169fc0ac,2020-11-27_16h02.23.683,lexical_decision_task_MP_exp2,2020.2.5,Win32,60,z,1,,,,,,,,0.595,1,,,,,,347,NW,"ID",33,kerift,KERIFT,z,,,,,,0.166666667,-0.201111111,0,0,0,,0,345,345,286,1,,0.595,
,,,,,,,,,,,,,,,,,,5f8836a5fb70462a169fc0ac,2020-11-27_16h02.23.683,lexical_decision_task_MP_exp2,2020.2.5,Win32,60,m,1,,,,,,,,0.623,1,,,,,,22,WORD,UN,16,wealth,JOCKEY,m,,,,,,0.166666667,-0.201111111,0,0,0,,0,346,346,201,1,,0.623,
,,,,,,,,,,,,,,,,,,5f8836a5fb70462a169fc0ac,2020-11-27_16h02.23.683,lexical_decision_task_MP_exp2,2020.2.5,Win32,60,z,1,,,,,,,,0.711,1,,,,,,353,NW,"ID",33,clurey,CLUREY,z,,,,,,0.166666667,-0.201111111,0,0,0,,0,347,347,292,1,,0.711,
,,,,,,,,,,,,,,,,,,5f8836a5fb70462a169fc0ac,2020-11-27_16h02.23.683,lexical_decision_task_MP_exp2,2020.2.5,Win32,60,m,1,,,,,,,,0.638,1,,,,,,127,WORD,"ID",16,castle,CASTLE,m,,,,,,0.166666667,-0.201111111,0,0,0,,0,348,348,66,1,,0.638,
,,,,,,,,,,,,,,,,,,5f8836a5fb70462a169fc0ac,2020-11-27_16h02.23.683,lexical_decision_task_MP_exp2,2020.2.5,Win32,60,m,1,,,,,,,,0.599,1,,,,,,49,WORD,UN,16,snatch,SURVEY,m,,,,,,0.166666667,-0.201111111,0,0,0,,0,349,349,228,1,,0.599,
,,,,,,,,,,,,,,,,,,5f8836a5fb70462a169fc0ac,2020-11-27_16h02.23.683,lexical_decision_task_MP_exp2,2020.2.5,Win32,60,m,1,,,,,,,,0.638,1,,,,,,201,WORD,UN,33,factor,ADMIRE,m,,,,,,0.166666667,-0.201111111,0,0,0,,0,350,350,140,1,,0.638,
,,,,,,,,,,,,,,,,,,5f8836a5fb70462a169fc0ac,2020-11-27_16h02.23.683,lexical_decision_task_MP_exp2,2020.2.5,Win32,60,m,0,,,,,,,,0.575,0,,,,,,348,NW,"ID",33,dumple,DUMPLE,z,,,,,,0.166666667,-0.201111111,0,0,0,,0,351,351,287,1,,0.575,
,,,,,,,,,,,,,,,,,,5f8836a5fb70462a169fc0ac,2020-11-27_16h02.23.683,lexical_decision_task_MP_exp2,2020.2.5,Win32,60,z,1,,,,,,,,0.656,1,,,,,,351,NW,"ID",33,tiesch,TIESCH,z,,,,,,0.166666667,-0.201111111,0,0,0,,0,352,352,290,1,,0.656,
,,,,,,,,,,,,,,,,,,5f8836a5fb70462a169fc0ac,2020-11-27_16h02.23.683,lexical_decision_task_MP_exp2,2020.2.5,Win32,60,m,1,,,,,,,,0.721,1,,,,,,182,WORD,UN,33,absent,WINTER,m,,,,,,0.166666667,-0.201111111,0,0,0,,0,353,353,121,1,,0.721,
,,,,,,,,,,,,,,,,,,5f8836a5fb70462a169fc0ac,2020-11-27_16h02.23.683,lexical_decision_task_MP_exp2,2020.2.5,Win32,60,z,1,,,,,,,,0.719,1,,,,,,263,NW,UN,16,vackel,DOLICA,z,,,,,,0.166666667,-0.201111111,0,0,0,,0,354,354,442,1,,0.719,
,,,,,,,,,,,,,,,,,,5f8836a5fb70462a169fc0ac,2020-11-27_16h02.23.683,lexical_decision_task_MP_exp2,2020.2.5,Win32,60,z,1,,,,,,,,0.579,1,,,,,,341,NW,"ID",33,myrtie,MYRTIE,z,,,,,,0.166666667,-0.201111111,0,0,0,,0,355,355,280,1,,0.579,
,,,,,,,,,,,,,,,,,,5f8836a5fb70462a169fc0ac,2020-11-27_16h02.23.683,lexical_decision_task_MP_exp2,2020.2.5,Win32,60,m,1,,,,,,,,0.572,1,,,,,,92,WORD,"ID",33,strand,STRAND,m,,,,,,0.166666667,-0.201111111,0,0,0,,0,356,356,31,1,,0.572,
,,,,,,,,,,,,,,,,,,5f8836a5fb70462a169fc0ac,2020-11-27_16h02.23.683,lexical_decision_task_MP_exp2,2020.2.5,Win32,60,m,0,,,,,,,,0.512,0,,,,,,306,NW,"ID",33,sounge,SOUNGE,z,,,,,,0.166666667,-0.201111111,0,0,0,,0,357,357,245,1,,0.512,
,,,,,,,,,,,,,,,,,,5f8836a5fb70462a169fc0ac,2020-11-27_16h02.23.683,lexical_decision_task_MP_exp2,2020.2.5,Win32,60,z,1,,,,,,,,0.605,1,,,,,,370,NW,"ID",16,sleact,SLEACT,z,,,,,,0.166666667,-0.201111111,0,0,0,,0,358,358,309,1,,0.605,
,,,,,,,,,,,,,,,,,,5f8836a5fb70462a169fc0ac,2020-11-27_16h02.23.683,lexical_decision_task_MP_exp2,2020.2.5,Win32,60,m,1,,,,,,,,0.663,1,,,,,,76,WORD,"ID",33,exotic,EXOTIC,m,,,,,,0.166666667,-0.201111111,0,0,0,,0,359,359,15,1,,0.663,
,,,,,,,,,,,,,,,,,,5f8836a5fb70462a169fc0ac,2020-11-27_16h02.23.683,lexical_decision_task_MP_exp2,2020.2.5,Win32,60,m,1,,,,,,,,0.575,1,,,,,,176,WORD,"ID",16,strife,STRIFE,m,,,,,,0.166666667,-0.201111111,0,0,0,,0,360,360,115,1,,0.575,
,,,,,,,,,,,,,,,,,,5f8836a5fb70462a169fc0ac,2020-11-27_16h02.23.683,lexical_decision_task_MP_exp2,2020.2.5,Win32,60,m,1,,,,,,,,0.513,1,,,,,,27,WORD,UN,16,comedy,SCREAM,m,,,,,,0.166666667,-0.201111111,0,0,0,,0,361,361,206,1,,0.513,
,,,,,,,,,,,,,,,,,,5f8836a5fb70462a169fc0ac,2020-11-27_16h02.23.683,lexical_decision_task_MP_exp2,2020.2.5,Win32,60,m,1,,,,,,,,0.607,1,,,,,,203,WORD,UN,33,burden,PHRASE,m,,,,,,0.166666667,-0.201111111,0,0,0,space,0,362,362,142,1,,0.607,0.762
,,,,,,,,,,,,,,,,,,5f8836a5fb70462a169fc0ac,2020-11-27_16h02.23.683,lexical_decision_task_MP_exp2,2020.2.5,Win32,60,z,1,,,,,,,,0.818,1,,,,,,453,NW,UN,33,scouge,BOLVIS,z,,,,,,0.166666667,-0.201111111,0,0,0,,0,363,363,392,1,,0.818,
,,,,,,,,,,,,,,,,,,5f8836a5fb70462a169fc0ac,2020-11-27_16h02.23.683,lexical_decision_task_MP_exp2,2020.2.5,Win32,60,z,0,,,,,,,,0.859,0,,,,,,8,WORD,UN,16,hustle,ABRUPT,m,,,,,,0.166666667,-0.201111111,0,0,0,,0,364,364,187,1,,0.859,
,,,,,,,,,,,,,,,,,,5f8836a5fb70462a169fc0ac,2020-11-27_16h02.23.683,lexical_decision_task_MP_exp2,2020.2.5,Win32,60,z,1,,,,,,,,0.706,1,,,,,,267,NW,UN,16,packes,PASINK,z,,,,,,0.166666667,-0.201111111,0,0,0,,0,365,365,446,1,,0.706,
,,,,,,,,,,,,,,,,,,5f8836a5fb70462a169fc0ac,2020-11-27_16h02.23.683,lexical_decision_task_MP_exp2,2020.2.5,Win32,60,z,1,,,,,,,,0.937,1,,,,,,461,NW,UN,33,absult,JUSTRE,z,,,,,,0.166666667,-0.201111111,0,0,0,,0,366,366,400,1,,0.937,
,,,,,,,,,,,,,,,,,,5f8836a5fb70462a169fc0ac,2020-11-27_16h02.23.683,lexical_decision_task_MP_exp2,2020.2.5,Win32,60,m,1,,,,,,,,0.476,1,,,,,,105,WORD,"ID",33,number,NUMBER,m,,,,,,0.166666667,-0.201111111,0,0,0,,0,367,367,44,1,,0.476,
,,,,,,,,,,,,,,,,,,5f8836a5fb70462a169fc0ac,2020-11-27_16h02.23.683,lexical_decision_task_MP_exp2,2020.2.5,Win32,60,m,1,,,,,,,,0.771,1,,,,,,19,WORD,UN,16,breast,PATRON,m,,,,,,0.166666667,-0.201111111,0,0,0,,0,368,368,198,1,,0.771,
,,,,,,,,,,,,,,,,,,5f8836a5fb70462a169fc0ac,2020-11-27_16h02.23.683,lexical_decision_task_MP_exp2,2020.2.5,Win32,60,z,1,,,,,,,,0.656,1,,,,,,292,NW,UN,16,swance,ABLINT,z,,,,,,0.166666667,-0.201111111,0,0,0,,0,369,369,471,1,,0.656,
,,,,,,,,,,,,,,,,,,5f8836a5fb70462a169fc0ac,2020-11-27_16h02.23.683,lexical_decision_task_MP_exp2,2020.2.5,Win32,60,m,0,,,,,,,,0.629,0,,,,,,421,NW,UN,33,alcoud,KNISMA,z,,,,,,0.166666667,-0.201111111,0,0,0,,0,370,370,360,1,,0.629,
,,,,,,,,,,,,,,,,,,5f8836a5fb70462a169fc0ac,2020-11-27_16h02.23.683,lexical_decision_task_MP_exp2,2020.2.5,Win32,60,m,1,,,,,,,,0.518,1,,,,,,232,WORD,UN,33,nature,INJECT,m,,,,,,0.166666667,-0.201111111,0,0,0,,0,371,371,171,1,,0.518,
,,,,,,,,,,,,,,,,,,5f8836a5fb70462a169fc0ac,2020-11-27_16h02.23.683,lexical_decision_task_MP_exp2,2020.2.5,Win32,60,m,1,,,,,,,,0.954,1,,,,,,184,WORD,UN,33,bother,SLEAZY,m,,,,,,0.166666667,-0.201111111,0,0,0,,0,372,372,123,1,,0.954,
,,,,,,,,,,,,,,,,,,5f8836a5fb70462a169fc0ac,2020-11-27_16h02.23.683,lexical_decision_task_MP_exp2,2020.2.5,Win32,60,z,1,,,,,,,,0.903,1,,,,,,378,NW,"ID",16,shrile,SHRILE,z,,,,,,0.166666667,-0.201111111,0,0,0,,0,373,373,317,1,,0.903,
,,,,,,,,,,,,,,,,,,5f8836a5fb70462a169fc0ac,2020-11-27_16h02.23.683,lexical_decision_task_MP_exp2,2020.2.5,Win32,60,m,1,,,,,,,,0.652,1,,,,,,117,WORD,"ID",33,branch,BRANCH,m,,,,,,0.166666667,-0.201111111,0,0,0,,0,374,374,56,1,,0.652,
,,,,,,,,,,,,,,,,,,5f8836a5fb70462a169fc0ac,2020-11-27_16h02.23.683,lexical_decision_task_MP_exp2,2020.2.5,Win32,60,z,1,,,,,,,,0.747,1,,,,,,437,NW,UN,33,baitch,SNAPEL,z,,,,,,0.166666667,-0.201111111,0,0,0,,0,375,375,376,1,,0.747,
,,,,,,,,,,,,,,,,,,5f8836a5fb70462a169fc0ac,2020-11-27_16h02.23.683,lexical_decision_task_MP_exp2,2020.2.5,Win32,60,z,1,,,,,,,,0.711,1,,,,,,427,NW,UN,33,tandly,SCHIND,z,,,,,,0.166666667,-0.201111111,0,0,0,,0,376,376,366,1,,0.711,
,,,,,,,,,,,,,,,,,,5f8836a5fb70462a169fc0ac,2020-11-27_16h02.23.683,lexical_decision_task_MP_exp2,2020.2.5,Win32,60,m,1,,,,,,,,0.541,1,,,,,,71,WORD,"ID",33,garden,GARDEN,m,,,,,,0.166666667,-0.201111111,0,0,0,,0,377,377,10,1,,0.541,
,,,,,,,,,,,,,,,,,,5f8836a5fb70462a169fc0ac,2020-11-27_16h02.23.683,lexical_decision_task_MP_exp2,2020.2.5,Win32,60,m,1,,,,,,,,0.61,1,,,,,,17,WORD,UN,16,humble,CHARGE,m,,,,,,0.166666667,-0.201111111,0,0,0,,0,378,378,196,1,,0.61,
,,,,,,,,,,,,,,,,,,5f8836a5fb70462a169fc0ac,2020-11-27_16h02.23.683,lexical_decision_task_MP_exp2,2020.2.5,Win32,60,m,1,,,,,,,,0.802,1,,,,,,204,WORD,UN,33,lounge,BURDEN,m,,,,,,0.166666667,-0.201111111,0,0,0,,0,379,379,143,1,,0.802,
