counterbalancing_condition,instr_done_keyboard.keys,instr_done_keyboard.rt,instr_done_touch.x,instr_done_touch.y,instr_done_touch.leftButton,instr_done_touch.midButton,instr_done_touch.rightButton,instruction_pages.thisRepN,instruction_pages.thisTrialN,instruction_pages.thisN,instruction_pages.thisIndex,instruction_pages.ran,pageN,phase,instruct_text,has_image,instruct_image,participant,date,expName,psychopyVersion,OS,frameRate,response.keys,response.corr,response.rt,touch_resp.x,touch_resp.y,touch_resp.leftButton,touch_resp.midButton,touch_resp.rightButton,touch_resp.time,touch_resp.clicked_name,rt,corr,practice_trials.thisRepN,practice_trials.thisTrialN,practice_trials.thisN,practice_trials.thisIndex,practice_trials.ran,TrialID,StimulusType,Condition,PrimeDuration,Prime,Target,corrAns,end_of_practice_trials_pages.thisRepN,end_of_practice_trials_pages.thisTrialN,end_of_practice_trials_pages.thisN,end_of_practice_trials_pages.thisIndex,end_of_practice_trials_pages.ran,break_done_touch.x,break_done_touch.y,break_done_touch.leftButton,break_done_touch.midButton,break_done_touch.rightButton,break_done_keyboard.keys,experiment_trials.thisRepN,experiment_trials.thisTrialN,experiment_trials.thisN,experiment_trials.thisIndex,experiment_trials.ran,break_done_keyboard.rt
2,space,1.16574,0.271296331,-0.199074095,0,0,0,0,0,0,0,1,1,instructions,"INSTRUCTIONS
At the start of each trial, look at the hash marks (######) in the center of the screen. After a moment, a string of letters will appear. Your task is to indicate if the letter string forms a word or not (i.e., if it is a nonword). For example, AUTHOR is a word while AUTHON is a nonword.

Press the space bar or touch the button below to continue.",0,,5fa3b4abbcfd0b6c243758bc,2020-11-26_13h34.33.630,lexical_decision_task_MP_exp2,2020.2.5,Win32,60,,,,,,,,,,,,,,,,,,,,,,,,,,,,,,,,,,,,,,,,,
,space,2.378665,0.271296331,-0.199074095,0,0,0,0,1,1,1,1,2,instructions,"If your device has a keyboard, press the 'Z' key for nonwords and the 'M' key for words.





Press the space bar or touch the button below to continue.",1,keyboard-example.gif,5fa3b4abbcfd0b6c243758bc,2020-11-26_13h34.33.630,lexical_decision_task_MP_exp2,2020.2.5,Win32,60,,,,,,,,,,,,,,,,,,,,,,,,,,,,,,,,,,,,,,,,,
,space,0.9284,0.271296331,-0.199074095,0,0,0,0,2,2,2,1,3,instructions,"If you are using a touchscreen only device, use the buttons on the screen. Do not use the mouse.





Press the space bar or touch the button below to continue.",1,touchscreen-example.gif,5fa3b4abbcfd0b6c243758bc,2020-11-26_13h34.33.630,lexical_decision_task_MP_exp2,2020.2.5,Win32,60,,,,,,,,,,,,,,,,,,,,,,,,,,,,,,,,,,,,,,,,,
,space,1.265885,0.271296331,-0.199074095,0,0,0,0,3,3,3,1,4,instructions,"It is very important that you respond as quickly and accurately as possible, as each letter string will only be on the screen for two seconds. If you do not respond within this time, the message 'Too slow!' will be displayed and the experiment will progress to the next letter string. The first 20 trials will be practice trials and you will receive feedback on your answers. 

Press the space bar or touch the button below to start the practice trials.",0,,5fa3b4abbcfd0b6c243758bc,2020-11-26_13h34.33.630,lexical_decision_task_MP_exp2,2020.2.5,Win32,60,,,,,,,,,,,,,,,,,,,,,,,,,,,,,,,,,,,,,,,,,
,,,,,,,,,,,,,,,,,,5fa3b4abbcfd0b6c243758bc,2020-11-26_13h34.33.630,lexical_decision_task_MP_exp2,2020.2.5,Win32,60,m,1,0.78342,,,,,,,,0.78342,1,0,0,0,4,1,1005,WORD,UN,33,abound,SQUEAK,m,,,,,,,,,,,,,,,,,
,,,,,,,,,,,,,,,,,,5fa3b4abbcfd0b6c243758bc,2020-11-26_13h34.33.630,lexical_decision_task_MP_exp2,2020.2.5,Win32,60,m,1,0.21713,,,,,,,,0.21713,1,0,1,1,6,1,1007,WORD,UN,16,tropic,ZOMBIE,m,,,,,,,,,,,,,,,,,
,,,,,,,,,,,,,,,,,,5fa3b4abbcfd0b6c243758bc,2020-11-26_13h34.33.630,lexical_decision_task_MP_exp2,2020.2.5,Win32,60,m,0,0.212815,,,,,,,,0.212815,0,0,2,2,13,1,1014,NW,UN,33,winfer,ROUPET,z,,,,,,,,,,,,,,,,,
,,,,,,,,,,,,,,,,,,5fa3b4abbcfd0b6c243758bc,2020-11-26_13h34.33.630,lexical_decision_task_MP_exp2,2020.2.5,Win32,60,m,0,0.24297,,,,,,,,0.24297,0,0,3,3,12,1,1013,NW,UN,33,adveil,SPRINY,z,,,,,,,,,,,,,,,,,
,,,,,,,,,,,,,,,,,,5fa3b4abbcfd0b6c243758bc,2020-11-26_13h34.33.630,lexical_decision_task_MP_exp2,2020.2.5,Win32,60,m,0,0.1542,,,,,,,,0.1542,0,0,4,4,8,1,1009,NW,"ID",33,aslert,ASLERT,z,,,,,,,,,,,,,,,,,
,,,,,,,,,,,,,,,,,,5fa3b4abbcfd0b6c243758bc,2020-11-26_13h34.33.630,lexical_decision_task_MP_exp2,2020.2.5,Win32,60,m,0,0.25296,,,,,,,,0.25296,0,0,5,5,15,1,1016,NW,UN,16,mushed,WHAISE,z,,,,,,,,,,,,,,,,,
,,,,,,,,,,,,,,,,,,5fa3b4abbcfd0b6c243758bc,2020-11-26_13h34.33.630,lexical_decision_task_MP_exp2,2020.2.5,Win32,60,m,0,0.267675,,,,,,,,0.267675,0,0,6,6,11,1,1012,NW,"ID",16,rashet,RASHET,z,,,,,,,,,,,,,,,,,
,,,,,,,,,,,,,,,,,,5fa3b4abbcfd0b6c243758bc,2020-11-26_13h34.33.630,lexical_decision_task_MP_exp2,2020.2.5,Win32,60,m,0,0.43986,,,,,,,,0.43986,0,0,7,7,9,1,1010,NW,"ID",33,fariny,FARINY,z,,,,,,,,,,,,,,,,,
,,,,,,,,,,,,,,,,,,5fa3b4abbcfd0b6c243758bc,2020-11-26_13h34.33.630,lexical_decision_task_MP_exp2,2020.2.5,Win32,60,m,0,0.28471,,,,,,,,0.28471,0,0,8,8,14,1,1015,NW,UN,16,miaber,THRALE,z,,,,,,,,,,,,,,,,,
,,,,,,,,,,,,,,,,,,5fa3b4abbcfd0b6c243758bc,2020-11-26_13h34.33.630,lexical_decision_task_MP_exp2,2020.2.5,Win32,60,m,1,0.285325,,,,,,,,0.285325,1,0,9,9,2,1,1003,WORD,"ID",16,almond,ALMOND,m,,,,,,,,,,,,,,,,,
,,,,,,,,,,,,,,,,,,5fa3b4abbcfd0b6c243758bc,2020-11-26_13h34.33.630,lexical_decision_task_MP_exp2,2020.2.5,Win32,60,m,1,0.306585,,,,,,,,0.306585,1,0,10,10,7,1,1008,WORD,UN,16,hurdle,VOLUME,m,,,,,,,,,,,,,,,,,
,,,,,,,,,,,,,,,,,,5fa3b4abbcfd0b6c243758bc,2020-11-26_13h34.33.630,lexical_decision_task_MP_exp2,2020.2.5,Win32,60,m,1,0.20124,,,,,,,,0.20124,1,0,11,11,1,1,1002,WORD,"ID",33,adjust,ADJUST,m,,,,,,,,,,,,,,,,,
,,,,,,,,,,,,,,,,,,5fa3b4abbcfd0b6c243758bc,2020-11-26_13h34.33.630,lexical_decision_task_MP_exp2,2020.2.5,Win32,60,m,1,0.211305,,,,,,,,0.211305,1,0,12,12,0,1,1001,WORD,"ID",33,utopia,UTOPIA,m,,,,,,,,,,,,,,,,,
,,,,,,,,,,,,,,,,,,5fa3b4abbcfd0b6c243758bc,2020-11-26_13h34.33.630,lexical_decision_task_MP_exp2,2020.2.5,Win32,60,m,1,0.205975,,,,,,,,0.205975,1,0,13,13,3,1,1004,WORD,"ID",16,matrix,MATRIX,m,,,,,,,,,,,,,,,,,
,,,,,,,,,,,,,,,,,,5fa3b4abbcfd0b6c243758bc,2020-11-26_13h34.33.630,lexical_decision_task_MP_exp2,2020.2.5,Win32,60,,0,,,,,,,,,0.205975,-1,0,14,14,5,1,1006,WORD,UN,33,frenzy,OBTAIN,m,,,,,,,,,,,,,,,,,
,,,,,,,,,,,,,,,,,,5fa3b4abbcfd0b6c243758bc,2020-11-26_13h34.33.630,lexical_decision_task_MP_exp2,2020.2.5,Win32,60,m,0,0.392845,,,,,,,,0.392845,0,0,15,15,10,1,1011,NW,"ID",16,inlade,INLADE,z,,,,,,,,,,,,,,,,,
,space,19.219735,0.271296331,-0.199074095,0,0,0,,,,,,1,end_of_practice,"You have completed the practice trials. During the experimental trials, you will not receive feedback, but it is very important that you respond as quickly and accurately as possible. 
Before you begin, please ensure that you are in a comfortable and quiet location and will not be disturbed for about 15 minutes, as we cannot use your data if you do not complete all the trials. 
There will be opportunities to take breaks at regular intervals during the experiment. When you are ready to start the experimental trials, please press space or touch the button below.",,,5fa3b4abbcfd0b6c243758bc,2020-11-26_13h34.33.630,lexical_decision_task_MP_exp2,2020.2.5,Win32,60,,,,,,,,,,,,,,,,,,,,,,,,,0,0,0,0,1,,,,,,,,,,,,
,,,,,,,,,,,,,,,,,,5fa3b4abbcfd0b6c243758bc,2020-11-26_13h34.33.630,lexical_decision_task_MP_exp2,2020.2.5,Win32,60,m,0,0.408195,,,,,,,,0.408195,0,,,,,,332,NW,"ID",33,vangue,VANGUE,z,,,,,,0.271296331,-0.199074095,0,0,0,,0,0,0,271,1,
,,,,,,,,,,,,,,,,,,5fa3b4abbcfd0b6c243758bc,2020-11-26_13h34.33.630,lexical_decision_task_MP_exp2,2020.2.5,Win32,60,m,1,0.369615,,,,,,,,0.369615,1,,,,,,134,WORD,"ID",16,staple,STAPLE,m,,,,,,0.271296331,-0.199074095,0,0,0,,0,1,1,73,1,
,,,,,,,,,,,,,,,,,,5fa3b4abbcfd0b6c243758bc,2020-11-26_13h34.33.630,lexical_decision_task_MP_exp2,2020.2.5,Win32,60,m,0,0.29334,,,,,,,,0.29334,0,,,,,,469,NW,UN,33,crudio,PADIFS,z,,,,,,0.271296331,-0.199074095,0,0,0,,0,2,2,408,1,
,,,,,,,,,,,,,,,,,,5fa3b4abbcfd0b6c243758bc,2020-11-26_13h34.33.630,lexical_decision_task_MP_exp2,2020.2.5,Win32,60,m,1,0.65064,,,,,,,,0.65064,1,,,,,,168,WORD,"ID",16,answer,ANSWER,m,,,,,,0.271296331,-0.199074095,0,0,0,,0,3,3,107,1,
,,,,,,,,,,,,,,,,,,5fa3b4abbcfd0b6c243758bc,2020-11-26_13h34.33.630,lexical_decision_task_MP_exp2,2020.2.5,Win32,60,m,1,0.499145,,,,,,,,0.499145,1,,,,,,121,WORD,"ID",16,thrive,THRIVE,m,,,,,,0.271296331,-0.199074095,0,0,0,,0,4,4,60,1,
,,,,,,,,,,,,,,,,,,5fa3b4abbcfd0b6c243758bc,2020-11-26_13h34.33.630,lexical_decision_task_MP_exp2,2020.2.5,Win32,60,m,1,0.6556,,,,,,,,0.6556,1,,,,,,165,WORD,"ID",16,invest,INVEST,m,,,,,,0.271296331,-0.199074095,0,0,0,,0,5,5,104,1,
,,,,,,,,,,,,,,,,,,5fa3b4abbcfd0b6c243758bc,2020-11-26_13h34.33.630,lexical_decision_task_MP_exp2,2020.2.5,Win32,60,m,0,0.38687,,,,,,,,0.38687,0,,,,,,383,NW,"ID",16,aungre,AUNGRE,z,,,,,,0.271296331,-0.199074095,0,0,0,,0,6,6,322,1,
,,,,,,,,,,,,,,,,,,5fa3b4abbcfd0b6c243758bc,2020-11-26_13h34.33.630,lexical_decision_task_MP_exp2,2020.2.5,Win32,60,m,1,0.47396,,,,,,,,0.47396,1,,,,,,84,WORD,"ID",33,mortal,MORTAL,m,,,,,,0.271296331,-0.199074095,0,0,0,,0,7,7,23,1,
,,,,,,,,,,,,,,,,,,5fa3b4abbcfd0b6c243758bc,2020-11-26_13h34.33.630,lexical_decision_task_MP_exp2,2020.2.5,Win32,60,m,0,0.674735,,,,,,,,0.674735,0,,,,,,370,NW,"ID",16,sleact,SLEACT,z,,,,,,0.271296331,-0.199074095,0,0,0,,0,8,8,309,1,
,,,,,,,,,,,,,,,,,,5fa3b4abbcfd0b6c243758bc,2020-11-26_13h34.33.630,lexical_decision_task_MP_exp2,2020.2.5,Win32,60,m,1,0.713795,,,,,,,,0.713795,1,,,,,,94,WORD,"ID",33,travel,TRAVEL,m,,,,,,0.271296331,-0.199074095,0,0,0,,0,9,9,33,1,
,,,,,,,,,,,,,,,,,,5fa3b4abbcfd0b6c243758bc,2020-11-26_13h34.33.630,lexical_decision_task_MP_exp2,2020.2.5,Win32,60,m,0,1.687345,,,,,,,,1.687345,0,,,,,,333,NW,"ID",33,catrie,CATRIE,z,,,,,,0.271296331,-0.199074095,0,0,0,,0,10,10,272,1,
,,,,,,,,,,,,,,,,,,5fa3b4abbcfd0b6c243758bc,2020-11-26_13h34.33.630,lexical_decision_task_MP_exp2,2020.2.5,Win32,60,m,0,0.39902,,,,,,,,0.39902,0,,,,,,390,NW,"ID",16,hatrus,HATRUS,z,,,,,,0.271296331,-0.199074095,0,0,0,,0,11,11,329,1,
,,,,,,,,,,,,,,,,,,5fa3b4abbcfd0b6c243758bc,2020-11-26_13h34.33.630,lexical_decision_task_MP_exp2,2020.2.5,Win32,60,m,1,0.25564,,,,,,,,0.25564,1,,,,,,158,WORD,"ID",16,island,ISLAND,m,,,,,,0.271296331,-0.199074095,0,0,0,,0,12,12,97,1,
,,,,,,,,,,,,,,,,,,5fa3b4abbcfd0b6c243758bc,2020-11-26_13h34.33.630,lexical_decision_task_MP_exp2,2020.2.5,Win32,60,m,1,0.205725,,,,,,,,0.205725,1,,,,,,190,WORD,UN,33,stable,BACKUP,m,,,,,,0.271296331,-0.199074095,0,0,0,,0,13,13,129,1,
,,,,,,,,,,,,,,,,,,5fa3b4abbcfd0b6c243758bc,2020-11-26_13h34.33.630,lexical_decision_task_MP_exp2,2020.2.5,Win32,60,m,0,0.19503,,,,,,,,0.19503,0,,,,,,284,NW,UN,16,prudge,SHAPLE,z,,,,,,0.271296331,-0.199074095,0,0,0,,0,14,14,463,1,
,,,,,,,,,,,,,,,,,,5fa3b4abbcfd0b6c243758bc,2020-11-26_13h34.33.630,lexical_decision_task_MP_exp2,2020.2.5,Win32,60,m,1,0.209565,,,,,,,,0.209565,1,,,,,,80,WORD,"ID",33,family,FAMILY,m,,,,,,0.271296331,-0.199074095,0,0,0,,0,15,15,19,1,
,,,,,,,,,,,,,,,,,,5fa3b4abbcfd0b6c243758bc,2020-11-26_13h34.33.630,lexical_decision_task_MP_exp2,2020.2.5,Win32,60,m,0,0.18483,,,,,,,,0.18483,0,,,,,,298,NW,UN,16,sturch,PIERGY,z,,,,,,0.271296331,-0.199074095,0,0,0,,0,16,16,477,1,
,,,,,,,,,,,,,,,,,,5fa3b4abbcfd0b6c243758bc,2020-11-26_13h34.33.630,lexical_decision_task_MP_exp2,2020.2.5,Win32,60,m,1,0.19883,,,,,,,,0.19883,1,,,,,,52,WORD,UN,16,police,IMPOSE,m,,,,,,0.271296331,-0.199074095,0,0,0,,0,17,17,231,1,
,,,,,,,,,,,,,,,,,,5fa3b4abbcfd0b6c243758bc,2020-11-26_13h34.33.630,lexical_decision_task_MP_exp2,2020.2.5,Win32,60,m,1,0.199415,,,,,,,,0.199415,1,,,,,,226,WORD,UN,33,flower,CASINO,m,,,,,,0.271296331,-0.199074095,0,0,0,,0,18,18,165,1,
,,,,,,,,,,,,,,,,,,5fa3b4abbcfd0b6c243758bc,2020-11-26_13h34.33.630,lexical_decision_task_MP_exp2,2020.2.5,Win32,60,m,1,0.256635,,,,,,,,0.256635,1,,,,,,218,WORD,UN,33,bucket,SHRINK,m,,,,,,0.271296331,-0.199074095,0,0,0,,0,19,19,157,1,
,,,,,,,,,,,,,,,,,,5fa3b4abbcfd0b6c243758bc,2020-11-26_13h34.33.630,lexical_decision_task_MP_exp2,2020.2.5,Win32,60,m,0,0.17679,,,,,,,,0.17679,0,,,,,,325,NW,"ID",33,thruse,THRUSE,z,,,,,,0.271296331,-0.199074095,0,0,0,,0,20,20,264,1,
,,,,,,,,,,,,,,,,,,5fa3b4abbcfd0b6c243758bc,2020-11-26_13h34.33.630,lexical_decision_task_MP_exp2,2020.2.5,Win32,60,m,1,0.07286,,,,,,,,0.07286,1,,,,,,12,WORD,UN,16,strive,ORANGE,m,,,,,,0.271296331,-0.199074095,0,0,0,,0,21,21,191,1,
,,,,,,,,,,,,,,,,,,5fa3b4abbcfd0b6c243758bc,2020-11-26_13h34.33.630,lexical_decision_task_MP_exp2,2020.2.5,Win32,60,m,1,0.18638,,,,,,,,0.18638,1,,,,,,25,WORD,UN,16,sprint,DOMAIN,m,,,,,,0.271296331,-0.199074095,0,0,0,,0,22,22,204,1,
,,,,,,,,,,,,,,,,,,5fa3b4abbcfd0b6c243758bc,2020-11-26_13h34.33.630,lexical_decision_task_MP_exp2,2020.2.5,Win32,60,m,0,0.21479,,,,,,,,0.21479,0,,,,,,385,NW,"ID",16,veigma,VEIGMA,z,,,,,,0.271296331,-0.199074095,0,0,0,,0,23,23,324,1,
,,,,,,,,,,,,,,,,,,5fa3b4abbcfd0b6c243758bc,2020-11-26_13h34.33.630,lexical_decision_task_MP_exp2,2020.2.5,Win32,60,m,0,0.217625,,,,,,,,0.217625,0,,,,,,355,NW,"ID",33,zingly,ZINGLY,z,,,,,,0.271296331,-0.199074095,0,0,0,,0,24,24,294,1,
,,,,,,,,,,,,,,,,,,5fa3b4abbcfd0b6c243758bc,2020-11-26_13h34.33.630,lexical_decision_task_MP_exp2,2020.2.5,Win32,60,m,0,0.183115,,,,,,,,0.183115,0,,,,,,457,NW,UN,33,barcet,WANIGH,z,,,,,,0.271296331,-0.199074095,0,0,0,,0,25,25,396,1,
,,,,,,,,,,,,,,,,,,5fa3b4abbcfd0b6c243758bc,2020-11-26_13h34.33.630,lexical_decision_task_MP_exp2,2020.2.5,Win32,60,m,1,0.216035,,,,,,,,0.216035,1,,,,,,193,WORD,UN,33,mildew,OBJECT,m,,,,,,0.271296331,-0.199074095,0,0,0,,0,26,26,132,1,
,,,,,,,,,,,,,,,,,,5fa3b4abbcfd0b6c243758bc,2020-11-26_13h34.33.630,lexical_decision_task_MP_exp2,2020.2.5,Win32,60,m,1,0.21604,,,,,,,,0.21604,1,,,,,,61,WORD,"ID",33,ponder,PONDER,m,,,,,,0.271296331,-0.199074095,0,0,0,,0,27,27,0,1,
,,,,,,,,,,,,,,,,,,5fa3b4abbcfd0b6c243758bc,2020-11-26_13h34.33.630,lexical_decision_task_MP_exp2,2020.2.5,Win32,60,m,1,0.18403,,,,,,,,0.18403,1,,,,,,6,WORD,UN,16,anchor,BUNDLE,m,,,,,,0.271296331,-0.199074095,0,0,0,,0,28,28,185,1,
,,,,,,,,,,,,,,,,,,5fa3b4abbcfd0b6c243758bc,2020-11-26_13h34.33.630,lexical_decision_task_MP_exp2,2020.2.5,Win32,60,m,0,0.18624,,,,,,,,0.18624,0,,,,,,353,NW,"ID",33,clurey,CLUREY,z,,,,,,0.271296331,-0.199074095,0,0,0,,0,29,29,292,1,
,,,,,,,,,,,,,,,,,,5fa3b4abbcfd0b6c243758bc,2020-11-26_13h34.33.630,lexical_decision_task_MP_exp2,2020.2.5,Win32,60,m,0,0.15065,,,,,,,,0.15065,0,,,,,,434,NW,UN,33,impurb,PITROM,z,,,,,,0.271296331,-0.199074095,0,0,0,,0,30,30,373,1,
,,,,,,,,,,,,,,,,,,5fa3b4abbcfd0b6c243758bc,2020-11-26_13h34.33.630,lexical_decision_task_MP_exp2,2020.2.5,Win32,60,m,0,0.165545,,,,,,,,0.165545,0,,,,,,444,NW,UN,33,minkel,JAUNCE,z,,,,,,0.271296331,-0.199074095,0,0,0,,0,31,31,383,1,
,,,,,,,,,,,,,,,,,,5fa3b4abbcfd0b6c243758bc,2020-11-26_13h34.33.630,lexical_decision_task_MP_exp2,2020.2.5,Win32,60,m,1,0.198805,,,,,,,,0.198805,1,,,,,,163,WORD,"ID",16,string,STRING,m,,,,,,0.271296331,-0.199074095,0,0,0,,0,32,32,102,1,
,,,,,,,,,,,,,,,,,,5fa3b4abbcfd0b6c243758bc,2020-11-26_13h34.33.630,lexical_decision_task_MP_exp2,2020.2.5,Win32,60,m,1,0.23195,,,,,,,,0.23195,1,,,,,,51,WORD,UN,16,impose,HUNGRY,m,,,,,,0.271296331,-0.199074095,0,0,0,,0,33,33,230,1,
,,,,,,,,,,,,,,,,,,5fa3b4abbcfd0b6c243758bc,2020-11-26_13h34.33.630,lexical_decision_task_MP_exp2,2020.2.5,Win32,60,m,1,0.175005,,,,,,,,0.175005,1,,,,,,233,WORD,UN,33,clumsy,NATURE,m,,,,,,0.271296331,-0.199074095,0,0,0,,0,34,34,172,1,
,,,,,,,,,,,,,,,,,,5fa3b4abbcfd0b6c243758bc,2020-11-26_13h34.33.630,lexical_decision_task_MP_exp2,2020.2.5,Win32,60,m,1,0.21545,,,,,,,,0.21545,1,,,,,,236,WORD,UN,33,grumpy,PIRATE,m,,,,,,0.271296331,-0.199074095,0,0,0,,0,35,35,175,1,
,,,,,,,,,,,,,,,,,,5fa3b4abbcfd0b6c243758bc,2020-11-26_13h34.33.630,lexical_decision_task_MP_exp2,2020.2.5,Win32,60,m,0,0.221755,,,,,,,,0.221755,0,,,,,,360,NW,"ID",33,desory,DESORY,z,,,,,,0.271296331,-0.199074095,0,0,0,,0,36,36,299,1,
,,,,,,,,,,,,,,,,,,5fa3b4abbcfd0b6c243758bc,2020-11-26_13h34.33.630,lexical_decision_task_MP_exp2,2020.2.5,Win32,60,m,1,0.24022,,,,,,,,0.24022,1,,,,,,36,WORD,UN,16,insult,VANISH,m,,,,,,0.271296331,-0.199074095,0,0,0,,0,37,37,215,1,
,,,,,,,,,,,,,,,,,,5fa3b4abbcfd0b6c243758bc,2020-11-26_13h34.33.630,lexical_decision_task_MP_exp2,2020.2.5,Win32,60,m,0,0.207115,,,,,,,,0.207115,0,,,,,,294,NW,UN,16,gleath,INHORT,z,,,,,,0.271296331,-0.199074095,0,0,0,,0,38,38,473,1,
,,,,,,,,,,,,,,,,,,5fa3b4abbcfd0b6c243758bc,2020-11-26_13h34.33.630,lexical_decision_task_MP_exp2,2020.2.5,Win32,60,m,1,0.26997,,,,,,,,0.26997,1,,,,,,228,WORD,UN,33,kidney,MASTER,m,,,,,,0.271296331,-0.199074095,0,0,0,,0,39,39,167,1,
,,,,,,,,,,,,,,,,,,5fa3b4abbcfd0b6c243758bc,2020-11-26_13h34.33.630,lexical_decision_task_MP_exp2,2020.2.5,Win32,60,m,0,0.26875,,,,,,,,0.26875,0,,,,,,275,NW,UN,16,yarmon,SLEIRT,z,,,,,,0.271296331,-0.199074095,0,0,0,,0,40,40,454,1,
,,,,,,,,,,,,,,,,,,5fa3b4abbcfd0b6c243758bc,2020-11-26_13h34.33.630,lexical_decision_task_MP_exp2,2020.2.5,Win32,60,m,0,0.25498,,,,,,,,0.25498,0,,,,,,267,NW,UN,16,packes,PASINK,z,,,,,,0.271296331,-0.199074095,0,0,0,,0,41,41,446,1,
,,,,,,,,,,,,,,,,,,5fa3b4abbcfd0b6c243758bc,2020-11-26_13h34.33.630,lexical_decision_task_MP_exp2,2020.2.5,Win32,60,m,1,0.198435,,,,,,,,0.198435,1,,,,,,197,WORD,UN,33,wicked,STREAM,m,,,,,,0.271296331,-0.199074095,0,0,0,,0,42,42,136,1,
,,,,,,,,,,,,,,,,,,5fa3b4abbcfd0b6c243758bc,2020-11-26_13h34.33.630,lexical_decision_task_MP_exp2,2020.2.5,Win32,60,m,0,0.19998,,,,,,,,0.19998,0,,,,,,359,NW,"ID",33,fonver,FONVER,z,,,,,,0.271296331,-0.199074095,0,0,0,,0,43,43,298,1,
,,,,,,,,,,,,,,,,,,5fa3b4abbcfd0b6c243758bc,2020-11-26_13h34.33.630,lexical_decision_task_MP_exp2,2020.2.5,Win32,60,m,0,0.254605,,,,,,,,0.254605,0,,,,,,378,NW,"ID",16,shrile,SHRILE,z,,,,,,0.271296331,-0.199074095,0,0,0,,0,44,44,317,1,
,,,,,,,,,,,,,,,,,,5fa3b4abbcfd0b6c243758bc,2020-11-26_13h34.33.630,lexical_decision_task_MP_exp2,2020.2.5,Win32,60,m,1,0.43561,,,,,,,,0.43561,1,,,,,,41,WORD,UN,16,chapel,SPRING,m,,,,,,0.271296331,-0.199074095,0,0,0,,0,45,45,220,1,
,,,,,,,,,,,,,,,,,,5fa3b4abbcfd0b6c243758bc,2020-11-26_13h34.33.630,lexical_decision_task_MP_exp2,2020.2.5,Win32,60,m,1,0.15787,,,,,,,,0.15787,1,,,,,,56,WORD,UN,16,change,AMBUSH,m,,,,,,0.271296331,-0.199074095,0,0,0,,0,46,46,235,1,
,,,,,,,,,,,,,,,,,,5fa3b4abbcfd0b6c243758bc,2020-11-26_13h34.33.630,lexical_decision_task_MP_exp2,2020.2.5,Win32,60,m,0,0.26433,,,,,,,,0.26433,0,,,,,,470,NW,UN,33,nobest,CRUDIO,z,,,,,,0.271296331,-0.199074095,0,0,0,,0,47,47,409,1,
,,,,,,,,,,,,,,,,,,5fa3b4abbcfd0b6c243758bc,2020-11-26_13h34.33.630,lexical_decision_task_MP_exp2,2020.2.5,Win32,60,m,1,0.225335,,,,,,,,0.225335,1,,,,,,112,WORD,"ID",33,breath,BREATH,m,,,,,,0.271296331,-0.199074095,0,0,0,,0,48,48,51,1,
,,,,,,,,,,,,,,,,,,5fa3b4abbcfd0b6c243758bc,2020-11-26_13h34.33.630,lexical_decision_task_MP_exp2,2020.2.5,Win32,60,m,1,0.31474,,,,,,,,0.31474,1,,,,,,44,WORD,UN,16,clergy,DANGER,m,,,,,,0.271296331,-0.199074095,0,0,0,,0,49,49,223,1,
,,,,,,,,,,,,,,,,,,5fa3b4abbcfd0b6c243758bc,2020-11-26_13h34.33.630,lexical_decision_task_MP_exp2,2020.2.5,Win32,60,m,0,0.288575,,,,,,,,0.288575,0,,,,,,414,NW,"ID",16,serbol,SERBOL,z,,,,,,0.271296331,-0.199074095,0,0,0,,0,50,50,353,1,
,,,,,,,,,,,,,,,,,,5fa3b4abbcfd0b6c243758bc,2020-11-26_13h34.33.630,lexical_decision_task_MP_exp2,2020.2.5,Win32,60,m,0,0.24817,,,,,,,,0.24817,0,,,,,,282,NW,UN,16,veralf,PORLEX,z,,,,,,0.271296331,-0.199074095,0,0,0,,0,51,51,461,1,
,,,,,,,,,,,,,,,,,,5fa3b4abbcfd0b6c243758bc,2020-11-26_13h34.33.630,lexical_decision_task_MP_exp2,2020.2.5,Win32,60,m,0,0.214725,,,,,,,,0.214725,0,,,,,,297,NW,UN,16,piergy,FERTIC,z,,,,,,0.271296331,-0.199074095,0,0,0,,0,52,52,476,1,
,,,,,,,,,,,,,,,,,,5fa3b4abbcfd0b6c243758bc,2020-11-26_13h34.33.630,lexical_decision_task_MP_exp2,2020.2.5,Win32,60,m,1,0.231425,,,,,,,,0.231425,1,,,,,,141,WORD,"ID",16,orphan,ORPHAN,m,,,,,,0.271296331,-0.199074095,0,0,0,,0,53,53,80,1,
,,,,,,,,,,,,,,,,,,5fa3b4abbcfd0b6c243758bc,2020-11-26_13h34.33.630,lexical_decision_task_MP_exp2,2020.2.5,Win32,60,m,1,0.282615,,,,,,,,0.282615,1,,,,,,207,WORD,UN,33,hockey,WREATH,m,,,,,,0.271296331,-0.199074095,0,0,0,,0,54,54,146,1,
,,,,,,,,,,,,,,,,,,5fa3b4abbcfd0b6c243758bc,2020-11-26_13h34.33.630,lexical_decision_task_MP_exp2,2020.2.5,Win32,60,m,1,0.23407,,,,,,,,0.23407,1,,,,,,135,WORD,"ID",16,import,IMPORT,m,,,,,,0.271296331,-0.199074095,0,0,0,,0,55,55,74,1,
,,,,,,,,,,,,,,,,,,5fa3b4abbcfd0b6c243758bc,2020-11-26_13h34.33.630,lexical_decision_task_MP_exp2,2020.2.5,Win32,60,m,1,0.238135,,,,,,,,0.238135,1,,,,,,169,WORD,"ID",16,genius,GENIUS,m,,,,,,0.271296331,-0.199074095,0,0,0,,0,56,56,108,1,
,,,,,,,,,,,,,,,,,,5fa3b4abbcfd0b6c243758bc,2020-11-26_13h34.33.630,lexical_decision_task_MP_exp2,2020.2.5,Win32,60,m,0,0.199635,,,,,,,,0.199635,0,,,,,,308,NW,"ID",33,psetch,PSETCH,z,,,,,,0.271296331,-0.199074095,0,0,0,,0,57,57,247,1,
,,,,,,,,,,,,,,,,,,5fa3b4abbcfd0b6c243758bc,2020-11-26_13h34.33.630,lexical_decision_task_MP_exp2,2020.2.5,Win32,60,m,0,0.28959,,,,,,,,0.28959,0,,,,,,314,NW,"ID",33,sprine,SPRINE,z,,,,,,0.271296331,-0.199074095,0,0,0,,0,58,58,253,1,
,,,,,,,,,,,,,,,,,,5fa3b4abbcfd0b6c243758bc,2020-11-26_13h34.33.630,lexical_decision_task_MP_exp2,2020.2.5,Win32,60,m,0,0.25542,,,,,,,,0.25542,0,,,,,,265,NW,UN,16,varmit,DISTAR,z,,,,,,0.271296331,-0.199074095,0,0,0,,0,59,59,444,1,
,,,,,,,,,,,,,,,,,,5fa3b4abbcfd0b6c243758bc,2020-11-26_13h34.33.630,lexical_decision_task_MP_exp2,2020.2.5,Win32,60,m,1,0.253755,,,,,,,,0.253755,1,,,,,,172,WORD,"ID",16,patrol,PATROL,m,,,,,,0.271296331,-0.199074095,0,0,0,,0,60,60,111,1,
,,,,,,,,,,,,,,,,,,5fa3b4abbcfd0b6c243758bc,2020-11-26_13h34.33.630,lexical_decision_task_MP_exp2,2020.2.5,Win32,60,m,0,0.265565,,,,,,,,0.265565,0,,,,,,312,NW,"ID",33,nerawl,NERAWL,z,,,,,,0.271296331,-0.199074095,0,0,0,,0,61,61,251,1,
,,,,,,,,,,,,,,,,,,5fa3b4abbcfd0b6c243758bc,2020-11-26_13h34.33.630,lexical_decision_task_MP_exp2,2020.2.5,Win32,60,m,1,0.272525,,,,,,,,0.272525,1,,,,,,119,WORD,"ID",33,spider,SPIDER,m,,,,,,0.271296331,-0.199074095,0,0,0,,0,62,62,58,1,
,,,,,,,,,,,,,,,,,,5fa3b4abbcfd0b6c243758bc,2020-11-26_13h34.33.630,lexical_decision_task_MP_exp2,2020.2.5,Win32,60,m,1,0.22383,,,,,,,,0.22383,1,,,,,,111,WORD,"ID",33,induce,INDUCE,m,,,,,,0.271296331,-0.199074095,0,0,0,,0,63,63,50,1,
,,,,,,,,,,,,,,,,,,5fa3b4abbcfd0b6c243758bc,2020-11-26_13h34.33.630,lexical_decision_task_MP_exp2,2020.2.5,Win32,60,m,0,0.235855,,,,,,,,0.235855,0,,,,,,311,NW,"ID",33,sproly,SPROLY,z,,,,,,0.271296331,-0.199074095,0,0,0,,0,64,64,250,1,
,,,,,,,,,,,,,,,,,,5fa3b4abbcfd0b6c243758bc,2020-11-26_13h34.33.630,lexical_decision_task_MP_exp2,2020.2.5,Win32,60,m,1,0.19969,,,,,,,,0.19969,1,,,,,,209,WORD,UN,33,monkey,SEARCH,m,,,,,,0.271296331,-0.199074095,0,0,0,,0,65,65,148,1,
,,,,,,,,,,,,,,,,,,5fa3b4abbcfd0b6c243758bc,2020-11-26_13h34.33.630,lexical_decision_task_MP_exp2,2020.2.5,Win32,60,m,0,0.16654,,,,,,,,0.16654,0,,,,,,366,NW,"ID",16,toshel,TOSHEL,z,,,,,,0.271296331,-0.199074095,0,0,0,,0,66,66,305,1,
,,,,,,,,,,,,,,,,,,5fa3b4abbcfd0b6c243758bc,2020-11-26_13h34.33.630,lexical_decision_task_MP_exp2,2020.2.5,Win32,60,m,1,0.265495,,,,,,,,0.265495,1,,,,,,144,WORD,"ID",16,sponge,SPONGE,m,,,,,,0.271296331,-0.199074095,0,0,0,,0,67,67,83,1,
,,,,,,,,,,,,,,,,,,5fa3b4abbcfd0b6c243758bc,2020-11-26_13h34.33.630,lexical_decision_task_MP_exp2,2020.2.5,Win32,60,m,1,0.19929,,,,,,,,0.19929,1,,,,,,74,WORD,"ID",33,plaque,PLAQUE,m,,,,,,0.271296331,-0.199074095,0,0,0,,0,68,68,13,1,
,,,,,,,,,,,,,,,,,,5fa3b4abbcfd0b6c243758bc,2020-11-26_13h34.33.630,lexical_decision_task_MP_exp2,2020.2.5,Win32,60,m,1,0.16488,,,,,,,,0.16488,1,,,,,,18,WORD,UN,16,patron,HUMBLE,m,,,,,,0.271296331,-0.199074095,0,0,0,,0,69,69,197,1,
,,,,,,,,,,,,,,,,,,5fa3b4abbcfd0b6c243758bc,2020-11-26_13h34.33.630,lexical_decision_task_MP_exp2,2020.2.5,Win32,60,m,1,0.27462,,,,,,,,0.27462,1,,,,,,177,WORD,"ID",16,advent,ADVENT,m,,,,,,0.271296331,-0.199074095,0,0,0,,0,70,70,116,1,
,,,,,,,,,,,,,,,,,,5fa3b4abbcfd0b6c243758bc,2020-11-26_13h34.33.630,lexical_decision_task_MP_exp2,2020.2.5,Win32,60,m,1,0.253765,,,,,,,,0.253765,1,,,,,,62,WORD,"ID",33,region,REGION,m,,,,,,0.271296331,-0.199074095,0,0,0,,0,71,71,1,1,
,,,,,,,,,,,,,,,,,,5fa3b4abbcfd0b6c243758bc,2020-11-26_13h34.33.630,lexical_decision_task_MP_exp2,2020.2.5,Win32,60,m,0,0.24131,,,,,,,,0.24131,0,,,,,,456,NW,UN,33,wanigh,BROGET,z,,,,,,0.271296331,-0.199074095,0,0,0,,0,72,72,395,1,
,,,,,,,,,,,,,,,,,,5fa3b4abbcfd0b6c243758bc,2020-11-26_13h34.33.630,lexical_decision_task_MP_exp2,2020.2.5,Win32,60,m,1,0.248255,,,,,,,,0.248255,1,,,,,,35,WORD,UN,16,vanish,SOCKET,m,,,,,,0.271296331,-0.199074095,0,0,0,,0,73,73,214,1,
,,,,,,,,,,,,,,,,,,5fa3b4abbcfd0b6c243758bc,2020-11-26_13h34.33.630,lexical_decision_task_MP_exp2,2020.2.5,Win32,60,m,1,0.282535,,,,,,,,0.282535,1,,,,,,113,WORD,"ID",33,chorus,CHORUS,m,,,,,,0.271296331,-0.199074095,0,0,0,,0,74,74,52,1,
,,,,,,,,,,,,,,,,,,5fa3b4abbcfd0b6c243758bc,2020-11-26_13h34.33.630,lexical_decision_task_MP_exp2,2020.2.5,Win32,60,m,1,0.21623,,,,,,,,0.21623,1,,,,,,213,WORD,UN,33,intake,SQUEAL,m,,,,,,0.271296331,-0.199074095,0,0,0,,0,75,75,152,1,
,,,,,,,,,,,,,,,,,,5fa3b4abbcfd0b6c243758bc,2020-11-26_13h34.33.630,lexical_decision_task_MP_exp2,2020.2.5,Win32,60,m,1,0.15475,,,,,,,,0.15475,1,,,,,,224,WORD,UN,33,vulgar,PERIOD,m,,,,,,0.271296331,-0.199074095,0,0,0,,0,76,76,163,1,
,,,,,,,,,,,,,,,,,,5fa3b4abbcfd0b6c243758bc,2020-11-26_13h34.33.630,lexical_decision_task_MP_exp2,2020.2.5,Win32,60,m,0,0.07399,,,,,,,,0.07399,0,,,,,,316,NW,"ID",33,scregm,SCREGM,z,,,,,,0.271296331,-0.199074095,0,0,0,,0,77,77,255,1,
,,,,,,,,,,,,,,,,,,5fa3b4abbcfd0b6c243758bc,2020-11-26_13h34.33.630,lexical_decision_task_MP_exp2,2020.2.5,Win32,60,m,1,0.291445,,,,,,,,0.291445,1,,,,,,27,WORD,UN,16,comedy,SCREAM,m,,,,,,0.271296331,-0.199074095,0,0,0,,0,78,78,206,1,
,,,,,,,,,,,,,,,,,,5fa3b4abbcfd0b6c243758bc,2020-11-26_13h34.33.630,lexical_decision_task_MP_exp2,2020.2.5,Win32,60,m,1,0.29081,,,,,,,,0.29081,1,,,,,,7,WORD,UN,16,abrupt,ANCHOR,m,,,,,,0.271296331,-0.199074095,0,0,0,,0,79,79,186,1,
,,,,,,,,,,,,,,,,,,5fa3b4abbcfd0b6c243758bc,2020-11-26_13h34.33.630,lexical_decision_task_MP_exp2,2020.2.5,Win32,60,m,1,0.18597,,,,,,,,0.18597,1,,,,,,231,WORD,UN,33,inject,EXPORT,m,,,,,,0.271296331,-0.199074095,0,0,0,,0,80,80,170,1,
,,,,,,,,,,,,,,,,,,5fa3b4abbcfd0b6c243758bc,2020-11-26_13h34.33.630,lexical_decision_task_MP_exp2,2020.2.5,Win32,60,m,0,0.1492,,,,,,,,0.1492,0,,,,,,321,NW,"ID",33,miator,MIATOR,z,,,,,,0.271296331,-0.199074095,0,0,0,,0,81,81,260,1,
,,,,,,,,,,,,,,,,,,5fa3b4abbcfd0b6c243758bc,2020-11-26_13h34.33.630,lexical_decision_task_MP_exp2,2020.2.5,Win32,60,m,1,0.30465,,,,,,,,0.30465,1,,,,,,174,WORD,"ID",16,turkey,TURKEY,m,,,,,,0.271296331,-0.199074095,0,0,0,,0,82,82,113,1,
,,,,,,,,,,,,,,,,,,5fa3b4abbcfd0b6c243758bc,2020-11-26_13h34.33.630,lexical_decision_task_MP_exp2,2020.2.5,Win32,60,m,0,0.21618,,,,,,,,0.21618,0,,,,,,443,NW,UN,33,jaunce,DORSEX,z,,,,,,0.271296331,-0.199074095,0,0,0,,0,83,83,382,1,
,,,,,,,,,,,,,,,,,,5fa3b4abbcfd0b6c243758bc,2020-11-26_13h34.33.630,lexical_decision_task_MP_exp2,2020.2.5,Win32,60,m,1,0.320315,,,,,,,,0.320315,1,,,,,,194,WORD,UN,33,resign,ABSENT,m,,,,,,0.271296331,-0.199074095,0,0,0,,0,84,84,133,1,
,,,,,,,,,,,,,,,,,,5fa3b4abbcfd0b6c243758bc,2020-11-26_13h34.33.630,lexical_decision_task_MP_exp2,2020.2.5,Win32,60,m,1,0.26758,,,,,,,,0.26758,1,,,,,,210,WORD,UN,33,infect,MONKEY,m,,,,,,0.271296331,-0.199074095,0,0,0,,0,85,85,149,1,
,,,,,,,,,,,,,,,,,,5fa3b4abbcfd0b6c243758bc,2020-11-26_13h34.33.630,lexical_decision_task_MP_exp2,2020.2.5,Win32,60,m,1,0.23835,,,,,,,,0.23835,1,,,,,,157,WORD,"ID",16,dragon,DRAGON,m,,,,,,0.271296331,-0.199074095,0,0,0,,0,86,86,96,1,
,,,,,,,,,,,,,,,,,,5fa3b4abbcfd0b6c243758bc,2020-11-26_13h34.33.630,lexical_decision_task_MP_exp2,2020.2.5,Win32,60,m,1,0.25174,,,,,,,,0.25174,1,,,,,,92,WORD,"ID",33,strand,STRAND,m,,,,,,0.271296331,-0.199074095,0,0,0,,0,87,87,31,1,
,,,,,,,,,,,,,,,,,,5fa3b4abbcfd0b6c243758bc,2020-11-26_13h34.33.630,lexical_decision_task_MP_exp2,2020.2.5,Win32,60,m,1,0.24901,,,,,,,,0.24901,1,,,,,,114,WORD,"ID",33,placid,PLACID,m,,,,,,0.271296331,-0.199074095,0,0,0,,0,88,88,53,1,
,,,,,,,,,,,,,,,,,,5fa3b4abbcfd0b6c243758bc,2020-11-26_13h34.33.630,lexical_decision_task_MP_exp2,2020.2.5,Win32,60,m,1,0.38224,,,,,,,,0.38224,1,,,,,,99,WORD,"ID",33,fluent,FLUENT,m,,,,,,0.271296331,-0.199074095,0,0,0,,0,89,89,38,1,
,,,,,,,,,,,,,,,,,,5fa3b4abbcfd0b6c243758bc,2020-11-26_13h34.33.630,lexical_decision_task_MP_exp2,2020.2.5,Win32,60,m,0,0.27324,,,,,,,,0.27324,0,,,,,,334,NW,"ID",33,watmeg,WATMEG,z,,,,,,0.271296331,-0.199074095,0,0,0,,0,90,90,273,1,
,,,,,,,,,,,,,,,,,,5fa3b4abbcfd0b6c243758bc,2020-11-26_13h34.33.630,lexical_decision_task_MP_exp2,2020.2.5,Win32,60,m,0,0.293625,,,,,,,,0.293625,0,,,,,,304,NW,"ID",33,cludie,CLUDIE,z,,,,,,0.271296331,-0.199074095,0,0,0,,0,91,91,243,1,
,,,,,,,,,,,,,,,,,,5fa3b4abbcfd0b6c243758bc,2020-11-26_13h34.33.630,lexical_decision_task_MP_exp2,2020.2.5,Win32,60,m,0,0.216185,,,,,,,,0.216185,0,,,,,,447,NW,UN,33,sadent,GIRCUE,z,,,,,,0.271296331,-0.199074095,0,0,0,,0,92,92,386,1,
,,,,,,,,,,,,,,,,,,5fa3b4abbcfd0b6c243758bc,2020-11-26_13h34.33.630,lexical_decision_task_MP_exp2,2020.2.5,Win32,60,m,0,0.22113,,,,,,,,0.22113,0,,,,,,358,NW,"ID",33,fleack,FLEACK,z,,,,,,0.271296331,-0.199074095,0,0,0,,0,93,93,297,1,
,,,,,,,,,,,,,,,,,,5fa3b4abbcfd0b6c243758bc,2020-11-26_13h34.33.630,lexical_decision_task_MP_exp2,2020.2.5,Win32,60,m,1,0.28206,,,,,,,,0.28206,1,,,,,,239,WORD,UN,33,forest,LUMBER,m,,,,,,0.271296331,-0.199074095,0,0,0,,0,94,94,178,1,
,,,,,,,,,,,,,,,,,,5fa3b4abbcfd0b6c243758bc,2020-11-26_13h34.33.630,lexical_decision_task_MP_exp2,2020.2.5,Win32,60,m,1,0.265965,,,,,,,,0.265965,1,,,,,,87,WORD,"ID",33,filter,FILTER,m,,,,,,0.271296331,-0.199074095,0,0,0,,0,95,95,26,1,
,,,,,,,,,,,,,,,,,,5fa3b4abbcfd0b6c243758bc,2020-11-26_13h34.33.630,lexical_decision_task_MP_exp2,2020.2.5,Win32,60,m,1,0.351415,,,,,,,,0.351415,1,,,,,,212,WORD,UN,33,squeal,VERIFY,m,,,,,,0.271296331,-0.199074095,0,0,0,,0,96,96,151,1,
,,,,,,,,,,,,,,,,,,5fa3b4abbcfd0b6c243758bc,2020-11-26_13h34.33.630,lexical_decision_task_MP_exp2,2020.2.5,Win32,60,m,0,0.26671,,,,,,,,0.26671,0,,,,,,417,NW,"ID",16,earoud,EAROUD,z,,,,,,0.271296331,-0.199074095,0,0,0,,0,97,97,356,1,
,,,,,,,,,,,,,,,,,,5fa3b4abbcfd0b6c243758bc,2020-11-26_13h34.33.630,lexical_decision_task_MP_exp2,2020.2.5,Win32,60,m,0,0.292485,,,,,,,,0.292485,0,,,,,,454,NW,UN,33,tondle,SCOUGE,z,,,,,,0.271296331,-0.199074095,0,0,0,,0,98,98,393,1,
,,,,,,,,,,,,,,,,,,5fa3b4abbcfd0b6c243758bc,2020-11-26_13h34.33.630,lexical_decision_task_MP_exp2,2020.2.5,Win32,60,m,0,0.349595,,,,,,,,0.349595,0,,,,,,361,NW,"ID",16,pauche,PAUCHE,z,,,,,,0.271296331,-0.199074095,0,0,0,,0,99,99,300,1,
,,,,,,,,,,,,,,,,,,5fa3b4abbcfd0b6c243758bc,2020-11-26_13h34.33.630,lexical_decision_task_MP_exp2,2020.2.5,Win32,60,m,1,0.33417,,,,,,,,0.33417,1,,,,,,81,WORD,"ID",33,friend,FRIEND,m,,,,,,0.271296331,-0.199074095,0,0,0,,0,100,100,20,1,
,,,,,,,,,,,,,,,,,,5fa3b4abbcfd0b6c243758bc,2020-11-26_13h34.33.630,lexical_decision_task_MP_exp2,2020.2.5,Win32,60,m,1,0.29169,,,,,,,,0.29169,1,,,,,,97,WORD,"ID",33,client,CLIENT,m,,,,,,0.271296331,-0.199074095,0,0,0,,0,101,101,36,1,
,,,,,,,,,,,,,,,,,,5fa3b4abbcfd0b6c243758bc,2020-11-26_13h34.33.630,lexical_decision_task_MP_exp2,2020.2.5,Win32,60,m,0,0.232025,,,,,,,,0.232025,0,,,,,,426,NW,UN,33,schind,URIVEL,z,,,,,,0.271296331,-0.199074095,0,0,0,,0,102,102,365,1,
,,,,,,,,,,,,,,,,,,5fa3b4abbcfd0b6c243758bc,2020-11-26_13h34.33.630,lexical_decision_task_MP_exp2,2020.2.5,Win32,60,m,0,0.25165,,,,,,,,0.25165,0,,,,,,477,NW,UN,33,lobush,PHOTIE,z,,,,,,0.271296331,-0.199074095,0,0,0,,0,103,103,416,1,
,,,,,,,,,,,,,,,,,,5fa3b4abbcfd0b6c243758bc,2020-11-26_13h34.33.630,lexical_decision_task_MP_exp2,2020.2.5,Win32,60,m,1,0.35136,,,,,,,,0.35136,1,,,,,,200,WORD,UN,33,admire,BEACON,m,,,,,,0.271296331,-0.199074095,0,0,0,,0,104,104,139,1,
,,,,,,,,,,,,,,,,,,5fa3b4abbcfd0b6c243758bc,2020-11-26_13h34.33.630,lexical_decision_task_MP_exp2,2020.2.5,Win32,60,m,0,0.29913,,,,,,,,0.29913,0,,,,,,302,NW,"ID",33,miluer,MILUER,z,,,,,,0.271296331,-0.199074095,0,0,0,,0,105,105,241,1,
,,,,,,,,,,,,,,,,,,5fa3b4abbcfd0b6c243758bc,2020-11-26_13h34.33.630,lexical_decision_task_MP_exp2,2020.2.5,Win32,60,m,0,0.233395,,,,,,,,0.233395,0,,,,,,346,NW,"ID",33,saudic,SAUDIC,z,,,,,,0.271296331,-0.199074095,0,0,0,,0,106,106,285,1,
,,,,,,,,,,,,,,,,,,5fa3b4abbcfd0b6c243758bc,2020-11-26_13h34.33.630,lexical_decision_task_MP_exp2,2020.2.5,Win32,60,m,0,0.233875,,,,,,,,0.233875,0,,,,,,350,NW,"ID",33,nagurs,NAGURS,z,,,,,,0.271296331,-0.199074095,0,0,0,,0,107,107,289,1,
,,,,,,,,,,,,,,,,,,5fa3b4abbcfd0b6c243758bc,2020-11-26_13h34.33.630,lexical_decision_task_MP_exp2,2020.2.5,Win32,60,m,1,0.251365,,,,,,,,0.251365,1,,,,,,30,WORD,UN,16,weapon,ORIENT,m,,,,,,0.271296331,-0.199074095,0,0,0,,0,108,108,209,1,
,,,,,,,,,,,,,,,,,,5fa3b4abbcfd0b6c243758bc,2020-11-26_13h34.33.630,lexical_decision_task_MP_exp2,2020.2.5,Win32,60,m,1,0.347025,,,,,,,,0.347025,1,,,,,,123,WORD,"ID",16,strike,STRIKE,m,,,,,,0.271296331,-0.199074095,0,0,0,,0,109,109,62,1,
,,,,,,,,,,,,,,,,,,5fa3b4abbcfd0b6c243758bc,2020-11-26_13h34.33.630,lexical_decision_task_MP_exp2,2020.2.5,Win32,60,,0,,,,,,,,,0.347025,-1,,,,,,222,WORD,UN,33,export,HINDER,m,,,,,,0.271296331,-0.199074095,0,0,0,,0,110,110,161,1,
,,,,,,,,,,,,,,,,,,5fa3b4abbcfd0b6c243758bc,2020-11-26_13h34.33.630,lexical_decision_task_MP_exp2,2020.2.5,Win32,60,,0,,,,,,,,,0.347025,-1,,,,,,201,WORD,UN,33,factor,ADMIRE,m,,,,,,0.271296331,-0.199074095,0,0,0,,0,111,111,140,1,
,,,,,,,,,,,,,,,,,,5fa3b4abbcfd0b6c243758bc,2020-11-26_13h34.33.630,lexical_decision_task_MP_exp2,2020.2.5,Win32,60,,0,,,,,,,,,0.347025,-1,,,,,,427,NW,UN,33,tandly,SCHIND,z,,,,,,0.271296331,-0.199074095,0,0,0,,0,112,112,366,1,
,,,,,,,,,,,,,,,,,,5fa3b4abbcfd0b6c243758bc,2020-11-26_13h34.33.630,lexical_decision_task_MP_exp2,2020.2.5,Win32,60,,0,,,,,,,,,0.347025,-1,,,,,,59,WORD,UN,16,pencil,SPLINT,m,,,,,,0.271296331,-0.199074095,0,0,0,,0,113,113,238,1,
,,,,,,,,,,,,,,,,,,5fa3b4abbcfd0b6c243758bc,2020-11-26_13h34.33.630,lexical_decision_task_MP_exp2,2020.2.5,Win32,60,,0,,,,,,,,,0.347025,-1,,,,,,413,NW,"ID",16,equats,EQUATS,z,,,,,,0.271296331,-0.199074095,0,0,0,,0,114,114,352,1,
,,,,,,,,,,,,,,,,,,5fa3b4abbcfd0b6c243758bc,2020-11-26_13h34.33.630,lexical_decision_task_MP_exp2,2020.2.5,Win32,60,,0,,,,,,,,,0.347025,-1,,,,,,198,WORD,UN,33,invoke,WICKED,m,,,,,,0.271296331,-0.199074095,0,0,0,,0,115,115,137,1,
,,,,,,,,,,,,,,,,,,5fa3b4abbcfd0b6c243758bc,2020-11-26_13h34.33.630,lexical_decision_task_MP_exp2,2020.2.5,Win32,60,,0,,,,,,,,,0.347025,-1,,,,,,387,NW,"ID",16,gronce,GRONCE,z,,,,,,0.271296331,-0.199074095,0,0,0,,0,116,116,326,1,
,,,,,,,,,,,,,,,,,,5fa3b4abbcfd0b6c243758bc,2020-11-26_13h34.33.630,lexical_decision_task_MP_exp2,2020.2.5,Win32,60,,0,,,,,,,,,0.347025,-1,,,,,,357,NW,"ID",33,derain,DERAIN,z,,,,,,0.271296331,-0.199074095,0,0,0,,0,117,117,296,1,
,,,,,,,,,,,,,,,,,,5fa3b4abbcfd0b6c243758bc,2020-11-26_13h34.33.630,lexical_decision_task_MP_exp2,2020.2.5,Win32,60,,0,,,,,,,,,0.347025,-1,,,,,,394,NW,"ID",16,spaqux,SPAQUX,z,,,,,,0.271296331,-0.199074095,0,0,0,,0,118,118,333,1,
,,,,,,,,,,,,,,,,,,5fa3b4abbcfd0b6c243758bc,2020-11-26_13h34.33.630,lexical_decision_task_MP_exp2,2020.2.5,Win32,60,,0,,,,,,,,,0.347025,-1,,,,,,122,WORD,"ID",16,linger,LINGER,m,,,,,,0.271296331,-0.199074095,0,0,0,,0,119,119,61,1,
,,,,,,,,,,,,,,,,,,5fa3b4abbcfd0b6c243758bc,2020-11-26_13h34.33.630,lexical_decision_task_MP_exp2,2020.2.5,Win32,60,,0,,,,,,,,,0.347025,-1,,,,,,57,WORD,UN,16,danger,CHANGE,m,,,,,,0.271296331,-0.199074095,0,0,0,space,0,120,120,236,1,147.774465
,,,,,,,,,,,,,,,,,,5fa3b4abbcfd0b6c243758bc,2020-11-26_13h34.33.630,lexical_decision_task_MP_exp2,2020.2.5,Win32,60,,0,,,,,,,,,0.347025,-1,,,,,,116,WORD,"ID",33,tumble,TUMBLE,m,,,,,,0.271296331,-0.199074095,0,0,0,,0,121,121,55,1,
,,,,,,,,,,,,,,,,,,5fa3b4abbcfd0b6c243758bc,2020-11-26_13h34.33.630,lexical_decision_task_MP_exp2,2020.2.5,Win32,60,m,1,0.1991,,,,,,,,0.1991,1,,,,,,91,WORD,"ID",33,expand,EXPAND,m,,,,,,0.271296331,-0.199074095,0,0,0,,0,122,122,30,1,
,,,,,,,,,,,,,,,,,,5fa3b4abbcfd0b6c243758bc,2020-11-26_13h34.33.630,lexical_decision_task_MP_exp2,2020.2.5,Win32,60,m,1,0.54277,,,,,,,,0.54277,1,,,,,,220,WORD,UN,33,mascot,VOYAGE,m,,,,,,0.271296331,-0.199074095,0,0,0,,0,123,123,159,1,
,,,,,,,,,,,,,,,,,,5fa3b4abbcfd0b6c243758bc,2020-11-26_13h34.33.630,lexical_decision_task_MP_exp2,2020.2.5,Win32,60,m,0,0.60852,,,,,,,,0.60852,0,,,,,,263,NW,UN,16,vackel,DOLICA,z,,,,,,0.271296331,-0.199074095,0,0,0,,0,124,124,442,1,
,,,,,,,,,,,,,,,,,,5fa3b4abbcfd0b6c243758bc,2020-11-26_13h34.33.630,lexical_decision_task_MP_exp2,2020.2.5,Win32,60,m,0,1.801775,,,,,,,,1.801775,0,,,,,,269,NW,UN,16,wrimsy,ORCHET,z,,,,,,0.271296331,-0.199074095,0,0,0,,0,125,125,448,1,
,,,,,,,,,,,,,,,,,,5fa3b4abbcfd0b6c243758bc,2020-11-26_13h34.33.630,lexical_decision_task_MP_exp2,2020.2.5,Win32,60,m,1,1.170805,,,,,,,,1.170805,1,,,,,,211,WORD,UN,33,verify,INFECT,m,,,,,,0.271296331,-0.199074095,0,0,0,,0,126,126,150,1,
,,,,,,,,,,,,,,,,,,5fa3b4abbcfd0b6c243758bc,2020-11-26_13h34.33.630,lexical_decision_task_MP_exp2,2020.2.5,Win32,60,m,0,0.482635,,,,,,,,0.482635,0,,,,,,251,NW,UN,16,stapod,LUPICT,z,,,,,,0.271296331,-0.199074095,0,0,0,,0,127,127,430,1,
,,,,,,,,,,,,,,,,,,5fa3b4abbcfd0b6c243758bc,2020-11-26_13h34.33.630,lexical_decision_task_MP_exp2,2020.2.5,Win32,60,m,0,0.49999,,,,,,,,0.49999,0,,,,,,262,NW,UN,16,dolica,QUILEW,z,,,,,,0.271296331,-0.199074095,0,0,0,,0,128,128,441,1,
,,,,,,,,,,,,,,,,,,5fa3b4abbcfd0b6c243758bc,2020-11-26_13h34.33.630,lexical_decision_task_MP_exp2,2020.2.5,Win32,60,m,1,0.35855,,,,,,,,0.35855,1,,,,,,29,WORD,UN,16,orient,SKETCH,m,,,,,,0.271296331,-0.199074095,0,0,0,,0,129,129,208,1,
,,,,,,,,,,,,,,,,,,5fa3b4abbcfd0b6c243758bc,2020-11-26_13h34.33.630,lexical_decision_task_MP_exp2,2020.2.5,Win32,60,m,0,0.557805,,,,,,,,0.557805,0,,,,,,327,NW,"ID",33,plenac,PLENAC,z,,,,,,0.271296331,-0.199074095,0,0,0,,0,130,130,266,1,
,,,,,,,,,,,,,,,,,,5fa3b4abbcfd0b6c243758bc,2020-11-26_13h34.33.630,lexical_decision_task_MP_exp2,2020.2.5,Win32,60,m,0,0.532205,,,,,,,,0.532205,0,,,,,,446,NW,UN,33,gircue,RUNAMO,z,,,,,,0.271296331,-0.199074095,0,0,0,,0,131,131,385,1,
,,,,,,,,,,,,,,,,,,5fa3b4abbcfd0b6c243758bc,2020-11-26_13h34.33.630,lexical_decision_task_MP_exp2,2020.2.5,Win32,60,m,0,0.310155,,,,,,,,0.310155,0,,,,,,458,NW,UN,33,hocite,BARCET,z,,,,,,0.271296331,-0.199074095,0,0,0,,0,132,132,397,1,
,,,,,,,,,,,,,,,,,,5fa3b4abbcfd0b6c243758bc,2020-11-26_13h34.33.630,lexical_decision_task_MP_exp2,2020.2.5,Win32,60,m,1,0.402895,,,,,,,,0.402895,1,,,,,,19,WORD,UN,16,breast,PATRON,m,,,,,,0.271296331,-0.199074095,0,0,0,,0,133,133,198,1,
,,,,,,,,,,,,,,,,,,5fa3b4abbcfd0b6c243758bc,2020-11-26_13h34.33.630,lexical_decision_task_MP_exp2,2020.2.5,Win32,60,m,0,0.468975,,,,,,,,0.468975,0,,,,,,479,NW,UN,33,crible,LOBUSH,z,,,,,,0.271296331,-0.199074095,0,0,0,,0,134,134,418,1,
,,,,,,,,,,,,,,,,,,5fa3b4abbcfd0b6c243758bc,2020-11-26_13h34.33.630,lexical_decision_task_MP_exp2,2020.2.5,Win32,60,m,0,0.55109,,,,,,,,0.55109,0,,,,,,476,NW,UN,33,photie,JOSTED,z,,,,,,0.271296331,-0.199074095,0,0,0,,0,135,135,415,1,
,,,,,,,,,,,,,,,,,,5fa3b4abbcfd0b6c243758bc,2020-11-26_13h34.33.630,lexical_decision_task_MP_exp2,2020.2.5,Win32,60,m,0,0.699045,,,,,,,,0.699045,0,,,,,,431,NW,UN,33,lunker,CHRUMS,z,,,,,,0.271296331,-0.199074095,0,0,0,,0,136,136,370,1,
,,,,,,,,,,,,,,,,,,5fa3b4abbcfd0b6c243758bc,2020-11-26_13h34.33.630,lexical_decision_task_MP_exp2,2020.2.5,Win32,60,m,0,0.742075,,,,,,,,0.742075,0,,,,,,338,NW,"ID",33,wreash,WREASH,z,,,,,,0.271296331,-0.199074095,0,0,0,,0,137,137,277,1,
,,,,,,,,,,,,,,,,,,5fa3b4abbcfd0b6c243758bc,2020-11-26_13h34.33.630,lexical_decision_task_MP_exp2,2020.2.5,Win32,60,m,1,0.333385,,,,,,,,0.333385,1,,,,,,182,WORD,UN,33,absent,WINTER,m,,,,,,0.271296331,-0.199074095,0,0,0,,0,138,138,121,1,
,,,,,,,,,,,,,,,,,,5fa3b4abbcfd0b6c243758bc,2020-11-26_13h34.33.630,lexical_decision_task_MP_exp2,2020.2.5,Win32,60,m,0,0.243785,,,,,,,,0.243785,0,,,,,,415,NW,"ID",16,higsta,HIGSTA,z,,,,,,0.271296331,-0.199074095,0,0,0,,0,139,139,354,1,
,,,,,,,,,,,,,,,,,,5fa3b4abbcfd0b6c243758bc,2020-11-26_13h34.33.630,lexical_decision_task_MP_exp2,2020.2.5,Win32,60,m,1,0.300265,,,,,,,,0.300265,1,,,,,,195,WORD,UN,33,credit,RESIGN,m,,,,,,0.271296331,-0.199074095,0,0,0,,0,140,140,134,1,
,,,,,,,,,,,,,,,,,,5fa3b4abbcfd0b6c243758bc,2020-11-26_13h34.33.630,lexical_decision_task_MP_exp2,2020.2.5,Win32,60,m,1,0.217035,,,,,,,,0.217035,1,,,,,,11,WORD,UN,16,amount,CRUISE,m,,,,,,0.271296331,-0.199074095,0,0,0,,0,141,141,190,1,
,,,,,,,,,,,,,,,,,,5fa3b4abbcfd0b6c243758bc,2020-11-26_13h34.33.630,lexical_decision_task_MP_exp2,2020.2.5,Win32,60,m,1,0.26872,,,,,,,,0.26872,1,,,,,,98,WORD,"ID",33,belong,BELONG,m,,,,,,0.271296331,-0.199074095,0,0,0,,0,142,142,37,1,
,,,,,,,,,,,,,,,,,,5fa3b4abbcfd0b6c243758bc,2020-11-26_13h34.33.630,lexical_decision_task_MP_exp2,2020.2.5,Win32,60,m,1,0.44351,,,,,,,,0.44351,1,,,,,,22,WORD,UN,16,wealth,JOCKEY,m,,,,,,0.271296331,-0.199074095,0,0,0,,0,143,143,201,1,
,,,,,,,,,,,,,,,,,,5fa3b4abbcfd0b6c243758bc,2020-11-26_13h34.33.630,lexical_decision_task_MP_exp2,2020.2.5,Win32,60,m,1,0.79807,,,,,,,,0.79807,1,,,,,,14,WORD,UN,16,orange,ALMOST,m,,,,,,0.271296331,-0.199074095,0,0,0,,0,144,144,193,1,
,,,,,,,,,,,,,,,,,,5fa3b4abbcfd0b6c243758bc,2020-11-26_13h34.33.630,lexical_decision_task_MP_exp2,2020.2.5,Win32,60,m,0,0.381705,,,,,,,,0.381705,0,,,,,,281,NW,UN,16,porlex,MELATY,z,,,,,,0.271296331,-0.199074095,0,0,0,,0,145,145,460,1,
,,,,,,,,,,,,,,,,,,5fa3b4abbcfd0b6c243758bc,2020-11-26_13h34.33.630,lexical_decision_task_MP_exp2,2020.2.5,Win32,60,m,0,0.28521,,,,,,,,0.28521,0,,,,,,337,NW,"ID",33,rejols,REJOLS,z,,,,,,0.271296331,-0.199074095,0,0,0,,0,146,146,276,1,
,,,,,,,,,,,,,,,,,,5fa3b4abbcfd0b6c243758bc,2020-11-26_13h34.33.630,lexical_decision_task_MP_exp2,2020.2.5,Win32,60,m,0,0.36515,,,,,,,,0.36515,0,,,,,,319,NW,"ID",33,zomber,ZOMBER,z,,,,,,0.271296331,-0.199074095,0,0,0,,0,147,147,258,1,
,,,,,,,,,,,,,,,,,,5fa3b4abbcfd0b6c243758bc,2020-11-26_13h34.33.630,lexical_decision_task_MP_exp2,2020.2.5,Win32,60,m,1,0.56458,,,,,,,,0.56458,1,,,,,,130,WORD,"ID",16,stupid,STUPID,m,,,,,,0.271296331,-0.199074095,0,0,0,,0,148,148,69,1,
,,,,,,,,,,,,,,,,,,5fa3b4abbcfd0b6c243758bc,2020-11-26_13h34.33.630,lexical_decision_task_MP_exp2,2020.2.5,Win32,60,m,1,0.53247,,,,,,,,0.53247,1,,,,,,93,WORD,"ID",33,public,PUBLIC,m,,,,,,0.271296331,-0.199074095,0,0,0,,0,149,149,32,1,
,,,,,,,,,,,,,,,,,,5fa3b4abbcfd0b6c243758bc,2020-11-26_13h34.33.630,lexical_decision_task_MP_exp2,2020.2.5,Win32,60,m,1,0.273545,,,,,,,,0.273545,1,,,,,,100,WORD,"ID",33,carbon,CARBON,m,,,,,,0.271296331,-0.199074095,0,0,0,,0,150,150,39,1,
,,,,,,,,,,,,,,,,,,5fa3b4abbcfd0b6c243758bc,2020-11-26_13h34.33.630,lexical_decision_task_MP_exp2,2020.2.5,Win32,60,,0,,,,,,,,,0.273545,-1,,,,,,37,WORD,UN,16,powder,INSULT,m,,,,,,0.271296331,-0.199074095,0,0,0,,0,151,151,216,1,
,,,,,,,,,,,,,,,,,,5fa3b4abbcfd0b6c243758bc,2020-11-26_13h34.33.630,lexical_decision_task_MP_exp2,2020.2.5,Win32,60,m,1,0.31505,,,,,,,,0.31505,1,,,,,,167,WORD,"ID",16,design,DESIGN,m,,,,,,0.271296331,-0.199074095,0,0,0,,0,152,152,106,1,
,,,,,,,,,,,,,,,,,,5fa3b4abbcfd0b6c243758bc,2020-11-26_13h34.33.630,lexical_decision_task_MP_exp2,2020.2.5,Win32,60,m,0,0.57463,,,,,,,,0.57463,0,,,,,,432,NW,UN,33,drance,LUNKER,z,,,,,,0.271296331,-0.199074095,0,0,0,,0,153,153,371,1,
,,,,,,,,,,,,,,,,,,5fa3b4abbcfd0b6c243758bc,2020-11-26_13h34.33.630,lexical_decision_task_MP_exp2,2020.2.5,Win32,60,m,0,0.323055,,,,,,,,0.323055,0,,,,,,290,NW,UN,16,pretch,SPLINO,z,,,,,,0.271296331,-0.199074095,0,0,0,,0,154,154,469,1,
,,,,,,,,,,,,,,,,,,5fa3b4abbcfd0b6c243758bc,2020-11-26_13h34.33.630,lexical_decision_task_MP_exp2,2020.2.5,Win32,60,m,0,0.34091,,,,,,,,0.34091,0,,,,,,382,NW,"ID",16,sarley,SARLEY,z,,,,,,0.271296331,-0.199074095,0,0,0,,0,155,155,321,1,
,,,,,,,,,,,,,,,,,,5fa3b4abbcfd0b6c243758bc,2020-11-26_13h34.33.630,lexical_decision_task_MP_exp2,2020.2.5,Win32,60,m,1,0.249215,,,,,,,,0.249215,1,,,,,,120,WORD,"ID",33,strain,STRAIN,m,,,,,,0.271296331,-0.199074095,0,0,0,,0,156,156,59,1,
,,,,,,,,,,,,,,,,,,5fa3b4abbcfd0b6c243758bc,2020-11-26_13h34.33.630,lexical_decision_task_MP_exp2,2020.2.5,Win32,60,m,0,0.292575,,,,,,,,0.292575,0,,,,,,336,NW,"ID",33,ghodus,GHODUS,z,,,,,,0.271296331,-0.199074095,0,0,0,,0,157,157,275,1,
,,,,,,,,,,,,,,,,,,5fa3b4abbcfd0b6c243758bc,2020-11-26_13h34.33.630,lexical_decision_task_MP_exp2,2020.2.5,Win32,60,m,0,0.714465,,,,,,,,0.714465,0,,,,,,295,NW,UN,16,beinch,GLEATH,z,,,,,,0.271296331,-0.199074095,0,0,0,,0,158,158,474,1,
,,,,,,,,,,,,,,,,,,5fa3b4abbcfd0b6c243758bc,2020-11-26_13h34.33.630,lexical_decision_task_MP_exp2,2020.2.5,Win32,60,m,1,0.402005,,,,,,,,0.402005,1,,,,,,227,WORD,UN,33,master,SELDOM,m,,,,,,0.271296331,-0.199074095,0,0,0,,0,159,159,166,1,
,,,,,,,,,,,,,,,,,,5fa3b4abbcfd0b6c243758bc,2020-11-26_13h34.33.630,lexical_decision_task_MP_exp2,2020.2.5,Win32,60,m,1,0.89849,0.271296331,-0.199074095,1,0,0,0.385765,,0.89849,1,,,,,,204,WORD,UN,33,lounge,BURDEN,m,,,,,,0.271296331,-0.199074095,0,0,0,,0,160,160,143,1,
,,,,,,,,,,,,,,,,,,5fa3b4abbcfd0b6c243758bc,2020-11-26_13h34.33.630,lexical_decision_task_MP_exp2,2020.2.5,Win32,60,m,0,0.670975,,,,,,,,0.670975,0,,,,,,300,NW,UN,16,smenco,YARION,z,,,,,,0.271296331,-0.199074095,0,0,0,,0,161,161,479,1,
,,,,,,,,,,,,,,,,,,5fa3b4abbcfd0b6c243758bc,2020-11-26_13h34.33.630,lexical_decision_task_MP_exp2,2020.2.5,Win32,60,m,1,0.48128,,,,,,,,0.48128,1,,,,,,48,WORD,UN,16,survey,WALNUT,m,,,,,,0.271296331,-0.199074095,0,0,0,,0,162,162,227,1,
,,,,,,,,,,,,,,,,,,5fa3b4abbcfd0b6c243758bc,2020-11-26_13h34.33.630,lexical_decision_task_MP_exp2,2020.2.5,Win32,60,m,0,0.266785,,,,,,,,0.266785,0,,,,,,317,NW,"ID",33,worbal,WORBAL,z,,,,,,0.271296331,-0.199074095,0,0,0,,0,163,163,256,1,
,,,,,,,,,,,,,,,,,,5fa3b4abbcfd0b6c243758bc,2020-11-26_13h34.33.630,lexical_decision_task_MP_exp2,2020.2.5,Win32,60,m,1,0.49063,,,,,,,,0.49063,1,,,,,,65,WORD,"ID",33,symbol,SYMBOL,m,,,,,,0.271296331,-0.199074095,0,0,0,,0,164,164,4,1,
,,,,,,,,,,,,,,,,,,5fa3b4abbcfd0b6c243758bc,2020-11-26_13h34.33.630,lexical_decision_task_MP_exp2,2020.2.5,Win32,60,m,1,0.498925,,,,,,,,0.498925,1,,,,,,221,WORD,UN,33,hinder,MASCOT,m,,,,,,0.271296331,-0.199074095,0,0,0,,0,165,165,160,1,
,,,,,,,,,,,,,,,,,,5fa3b4abbcfd0b6c243758bc,2020-11-26_13h34.33.630,lexical_decision_task_MP_exp2,2020.2.5,Win32,60,m,1,0.4663,,,,,,,,0.4663,1,,,,,,3,WORD,UN,16,trench,KNIGHT,m,,,,,,0.271296331,-0.199074095,0,0,0,,0,166,166,182,1,
,,,,,,,,,,,,,,,,,,5fa3b4abbcfd0b6c243758bc,2020-11-26_13h34.33.630,lexical_decision_task_MP_exp2,2020.2.5,Win32,60,m,1,0.548395,,,,,,,,0.548395,1,,,,,,146,WORD,"ID",16,couple,COUPLE,m,,,,,,0.271296331,-0.199074095,0,0,0,,0,167,167,85,1,
,,,,,,,,,,,,,,,,,,5fa3b4abbcfd0b6c243758bc,2020-11-26_13h34.33.630,lexical_decision_task_MP_exp2,2020.2.5,Win32,60,m,1,0.416475,,,,,,,,0.416475,1,,,,,,125,WORD,"ID",16,nickel,NICKEL,m,,,,,,0.271296331,-0.199074095,0,0,0,,0,168,168,64,1,
,,,,,,,,,,,,,,,,,,5fa3b4abbcfd0b6c243758bc,2020-11-26_13h34.33.630,lexical_decision_task_MP_exp2,2020.2.5,Win32,60,m,1,0.422625,,,,,,,,0.422625,1,,,,,,166,WORD,"ID",16,starch,STARCH,m,,,,,,0.271296331,-0.199074095,0,0,0,,0,169,169,105,1,
,,,,,,,,,,,,,,,,,,5fa3b4abbcfd0b6c243758bc,2020-11-26_13h34.33.630,lexical_decision_task_MP_exp2,2020.2.5,Win32,60,m,0,0.814185,,,,,,,,0.814185,0,,,,,,320,NW,"ID",33,jockal,JOCKAL,z,,,,,,0.271296331,-0.199074095,0,0,0,,0,170,170,259,1,
,,,,,,,,,,,,,,,,,,5fa3b4abbcfd0b6c243758bc,2020-11-26_13h34.33.630,lexical_decision_task_MP_exp2,2020.2.5,Win32,60,m,0,0.30489,,,,,,,,0.30489,0,,,,,,436,NW,UN,33,snapel,FRUTAN,z,,,,,,0.271296331,-0.199074095,0,0,0,,0,171,171,375,1,
,,,,,,,,,,,,,,,,,,5fa3b4abbcfd0b6c243758bc,2020-11-26_13h34.33.630,lexical_decision_task_MP_exp2,2020.2.5,Win32,60,m,0,0.36626,,,,,,,,0.36626,0,,,,,,403,NW,"ID",16,bruats,BRUATS,z,,,,,,0.271296331,-0.199074095,0,0,0,,0,172,172,342,1,
,,,,,,,,,,,,,,,,,,5fa3b4abbcfd0b6c243758bc,2020-11-26_13h34.33.630,lexical_decision_task_MP_exp2,2020.2.5,Win32,60,m,0,0.4054,,,,,,,,0.4054,0,,,,,,328,NW,"ID",33,broake,BROAKE,z,,,,,,0.271296331,-0.199074095,0,0,0,,0,173,173,267,1,
,,,,,,,,,,,,,,,,,,5fa3b4abbcfd0b6c243758bc,2020-11-26_13h34.33.630,lexical_decision_task_MP_exp2,2020.2.5,Win32,60,m,1,0.388875,,,,,,,,0.388875,1,,,,,,156,WORD,"ID",16,cradle,CRADLE,m,,,,,,0.271296331,-0.199074095,0,0,0,,0,174,174,95,1,
,,,,,,,,,,,,,,,,,,5fa3b4abbcfd0b6c243758bc,2020-11-26_13h34.33.630,lexical_decision_task_MP_exp2,2020.2.5,Win32,60,m,0,0.44841,,,,,,,,0.44841,0,,,,,,433,NW,UN,33,pitrom,DRANCE,z,,,,,,0.271296331,-0.199074095,0,0,0,,0,175,175,372,1,
,,,,,,,,,,,,,,,,,,5fa3b4abbcfd0b6c243758bc,2020-11-26_13h34.33.630,lexical_decision_task_MP_exp2,2020.2.5,Win32,60,m,0,0.43208,,,,,,,,0.43208,0,,,,,,440,NW,UN,33,rastoe,SARIDE,z,,,,,,0.271296331,-0.199074095,0,0,0,,0,176,176,379,1,
,,,,,,,,,,,,,,,,,,5fa3b4abbcfd0b6c243758bc,2020-11-26_13h34.33.630,lexical_decision_task_MP_exp2,2020.2.5,Win32,60,m,1,0.48305,,,,,,,,0.48305,1,,,,,,38,WORD,UN,16,insect,POWDER,m,,,,,,0.271296331,-0.199074095,0,0,0,,0,177,177,217,1,
,,,,,,,,,,,,,,,,,,5fa3b4abbcfd0b6c243758bc,2020-11-26_13h34.33.630,lexical_decision_task_MP_exp2,2020.2.5,Win32,60,m,0,0.43306,,,,,,,,0.43306,0,,,,,,259,NW,UN,16,unject,SOUDAL,z,,,,,,0.271296331,-0.199074095,0,0,0,,0,178,178,438,1,
,,,,,,,,,,,,,,,,,,5fa3b4abbcfd0b6c243758bc,2020-11-26_13h34.33.630,lexical_decision_task_MP_exp2,2020.2.5,Win32,60,m,1,0.36726,,,,,,,,0.36726,1,,,,,,96,WORD,"ID",33,ignore,IGNORE,m,,,,,,0.271296331,-0.199074095,0,0,0,,0,179,179,35,1,
,,,,,,,,,,,,,,,,,,5fa3b4abbcfd0b6c243758bc,2020-11-26_13h34.33.630,lexical_decision_task_MP_exp2,2020.2.5,Win32,60,m,0,0.26968,,,,,,,,0.26968,0,,,,,,306,NW,"ID",33,sounge,SOUNGE,z,,,,,,0.271296331,-0.199074095,0,0,0,,0,180,180,245,1,
,,,,,,,,,,,,,,,,,,5fa3b4abbcfd0b6c243758bc,2020-11-26_13h34.33.630,lexical_decision_task_MP_exp2,2020.2.5,Win32,60,m,0,0.33572,,,,,,,,0.33572,0,,,,,,399,NW,"ID",16,fouret,FOURET,z,,,,,,0.271296331,-0.199074095,0,0,0,,0,181,181,338,1,
,,,,,,,,,,,,,,,,,,5fa3b4abbcfd0b6c243758bc,2020-11-26_13h34.33.630,lexical_decision_task_MP_exp2,2020.2.5,Win32,60,m,0,0.31741,,,,,,,,0.31741,0,,,,,,423,NW,UN,33,praile,STRELD,z,,,,,,0.271296331,-0.199074095,0,0,0,,0,182,182,362,1,
,,,,,,,,,,,,,,,,,,5fa3b4abbcfd0b6c243758bc,2020-11-26_13h34.33.630,lexical_decision_task_MP_exp2,2020.2.5,Win32,60,m,1,0.265315,,,,,,,,0.265315,1,,,,,,33,WORD,UN,16,jungle,BUTLER,m,,,,,,0.271296331,-0.199074095,0,0,0,,0,183,183,212,1,
,,,,,,,,,,,,,,,,,,5fa3b4abbcfd0b6c243758bc,2020-11-26_13h34.33.630,lexical_decision_task_MP_exp2,2020.2.5,Win32,60,m,1,0.29056,,,,,,,,0.29056,1,,,,,,77,WORD,"ID",33,racket,RACKET,m,,,,,,0.271296331,-0.199074095,0,0,0,,0,184,184,16,1,
,,,,,,,,,,,,,,,,,,5fa3b4abbcfd0b6c243758bc,2020-11-26_13h34.33.630,lexical_decision_task_MP_exp2,2020.2.5,Win32,60,m,0,0.46396,,,,,,,,0.46396,0,,,,,,271,NW,UN,16,damilt,AUBRID,z,,,,,,0.271296331,-0.199074095,0,0,0,,0,185,185,450,1,
,,,,,,,,,,,,,,,,,,5fa3b4abbcfd0b6c243758bc,2020-11-26_13h34.33.630,lexical_decision_task_MP_exp2,2020.2.5,Win32,60,m,0,0.16322,,,,,,,,0.16322,0,,,,,,445,NW,UN,33,runamo,MINKEL,z,,,,,,0.271296331,-0.199074095,0,0,0,,0,186,186,384,1,
,,,,,,,,,,,,,,,,,,5fa3b4abbcfd0b6c243758bc,2020-11-26_13h34.33.630,lexical_decision_task_MP_exp2,2020.2.5,Win32,60,m,1,0.80381,,,,,,,,0.80381,1,,,,,,75,WORD,"ID",33,trophy,TROPHY,m,,,,,,0.271296331,-0.199074095,0,0,0,,0,187,187,14,1,
,,,,,,,,,,,,,,,,,,5fa3b4abbcfd0b6c243758bc,2020-11-26_13h34.33.630,lexical_decision_task_MP_exp2,2020.2.5,Win32,60,,0,,,,,,,,,0.80381,-1,,,,,,313,NW,"ID",33,paurse,PAURSE,z,,,,,,0.271296331,-0.199074095,0,0,0,,0,188,188,252,1,
,,,,,,,,,,,,,,,,,,5fa3b4abbcfd0b6c243758bc,2020-11-26_13h34.33.630,lexical_decision_task_MP_exp2,2020.2.5,Win32,60,m,0,0.133005,,,,,,,,0.133005,0,,,,,,478,NW,UN,33,pebric,ACRISE,z,,,,,,0.271296331,-0.199074095,0,0,0,,0,189,189,417,1,
,,,,,,,,,,,,,,,,,,5fa3b4abbcfd0b6c243758bc,2020-11-26_13h34.33.630,lexical_decision_task_MP_exp2,2020.2.5,Win32,60,m,1,1.151735,,,,,,,,1.151735,1,,,,,,208,WORD,UN,33,search,HOCKEY,m,,,,,,0.271296331,-0.199074095,0,0,0,,0,190,190,147,1,
,,,,,,,,,,,,,,,,,,5fa3b4abbcfd0b6c243758bc,2020-11-26_13h34.33.630,lexical_decision_task_MP_exp2,2020.2.5,Win32,60,m,0,0.37525,,,,,,,,0.37525,0,,,,,,351,NW,"ID",33,tiesch,TIESCH,z,,,,,,0.271296331,-0.199074095,0,0,0,,0,191,191,290,1,
,,,,,,,,,,,,,,,,,,5fa3b4abbcfd0b6c243758bc,2020-11-26_13h34.33.630,lexical_decision_task_MP_exp2,2020.2.5,Win32,60,m,0,0.798595,,,,,,,,0.798595,0,,,,,,354,NW,"ID",33,virlex,VIRLEX,z,,,,,,0.271296331,-0.199074095,0,0,0,,0,192,192,293,1,
,,,,,,,,,,,,,,,,,,5fa3b4abbcfd0b6c243758bc,2020-11-26_13h34.33.630,lexical_decision_task_MP_exp2,2020.2.5,Win32,60,m,0,0.44928,,,,,,,,0.44928,0,,,,,,329,NW,"ID",33,yarike,YARIKE,z,,,,,,0.271296331,-0.199074095,0,0,0,,0,193,193,268,1,
,,,,,,,,,,,,,,,,,,5fa3b4abbcfd0b6c243758bc,2020-11-26_13h34.33.630,lexical_decision_task_MP_exp2,2020.2.5,Win32,60,m,0,0.290755,,,,,,,,0.290755,0,,,,,,365,NW,"ID",16,guairt,GUAIRT,z,,,,,,0.271296331,-0.199074095,0,0,0,,0,194,194,304,1,
,,,,,,,,,,,,,,,,,,5fa3b4abbcfd0b6c243758bc,2020-11-26_13h34.33.630,lexical_decision_task_MP_exp2,2020.2.5,Win32,60,m,0,0.282895,,,,,,,,0.282895,0,,,,,,455,NW,UN,33,broget,TONDLE,z,,,,,,0.271296331,-0.199074095,0,0,0,,0,195,195,394,1,
,,,,,,,,,,,,,,,,,,5fa3b4abbcfd0b6c243758bc,2020-11-26_13h34.33.630,lexical_decision_task_MP_exp2,2020.2.5,Win32,60,m,1,0.26625,,,,,,,,0.26625,1,,,,,,109,WORD,"ID",33,wonder,WONDER,m,,,,,,0.271296331,-0.199074095,0,0,0,,0,196,196,48,1,
,,,,,,,,,,,,,,,,,,5fa3b4abbcfd0b6c243758bc,2020-11-26_13h34.33.630,lexical_decision_task_MP_exp2,2020.2.5,Win32,60,m,1,0.19328,,,,,,,,0.19328,1,,,,,,78,WORD,"ID",33,column,COLUMN,m,,,,,,0.271296331,-0.199074095,0,0,0,,0,197,197,17,1,
,,,,,,,,,,,,,,,,,,5fa3b4abbcfd0b6c243758bc,2020-11-26_13h34.33.630,lexical_decision_task_MP_exp2,2020.2.5,Win32,60,m,0,0.384345,,,,,,,,0.384345,0,,,,,,395,NW,"ID",16,colury,COLURY,z,,,,,,0.271296331,-0.199074095,0,0,0,,0,198,198,334,1,
,,,,,,,,,,,,,,,,,,5fa3b4abbcfd0b6c243758bc,2020-11-26_13h34.33.630,lexical_decision_task_MP_exp2,2020.2.5,Win32,60,m,1,0.215465,,,,,,,,0.215465,1,,,,,,240,WORD,UN,33,seldom,FOREST,m,,,,,,0.271296331,-0.199074095,0,0,0,,0,199,199,179,1,
,,,,,,,,,,,,,,,,,,5fa3b4abbcfd0b6c243758bc,2020-11-26_13h34.33.630,lexical_decision_task_MP_exp2,2020.2.5,Win32,60,m,0,1.514675,,,,,,,,1.514675,0,,,,,,253,NW,UN,16,varosh,RESAIT,z,,,,,,0.271296331,-0.199074095,0,0,0,,0,200,200,432,1,
,,,,,,,,,,,,,,,,,,5fa3b4abbcfd0b6c243758bc,2020-11-26_13h34.33.630,lexical_decision_task_MP_exp2,2020.2.5,Win32,60,m,1,0.359705,,,,,,,,0.359705,1,,,,,,186,WORD,UN,33,course,PORTAL,m,,,,,,0.271296331,-0.199074095,0,0,0,,0,201,201,125,1,
,,,,,,,,,,,,,,,,,,5fa3b4abbcfd0b6c243758bc,2020-11-26_13h34.33.630,lexical_decision_task_MP_exp2,2020.2.5,Win32,60,m,0,0.386245,,,,,,,,0.386245,0,,,,,,471,NW,UN,33,cigney,NOBEST,z,,,,,,0.271296331,-0.199074095,0,0,0,,0,202,202,410,1,
,,,,,,,,,,,,,,,,,,5fa3b4abbcfd0b6c243758bc,2020-11-26_13h34.33.630,lexical_decision_task_MP_exp2,2020.2.5,Win32,60,m,1,0.59898,,,,,,,,0.59898,1,,,,,,79,WORD,"ID",33,theory,THEORY,m,,,,,,0.271296331,-0.199074095,0,0,0,,0,203,203,18,1,
,,,,,,,,,,,,,,,,,,5fa3b4abbcfd0b6c243758bc,2020-11-26_13h34.33.630,lexical_decision_task_MP_exp2,2020.2.5,Win32,60,m,1,0.637375,,,,,,,,0.637375,1,,,,,,178,WORD,"ID",16,inform,INFORM,m,,,,,,0.271296331,-0.199074095,0,0,0,,0,204,204,117,1,
,,,,,,,,,,,,,,,,,,5fa3b4abbcfd0b6c243758bc,2020-11-26_13h34.33.630,lexical_decision_task_MP_exp2,2020.2.5,Win32,60,m,0,0.366995,,,,,,,,0.366995,0,,,,,,305,NW,"ID",33,forgle,FORGLE,z,,,,,,0.271296331,-0.199074095,0,0,0,,0,205,205,244,1,
,,,,,,,,,,,,,,,,,,5fa3b4abbcfd0b6c243758bc,2020-11-26_13h34.33.630,lexical_decision_task_MP_exp2,2020.2.5,Win32,60,m,1,0.369,,,,,,,,0.369,1,,,,,,17,WORD,UN,16,humble,CHARGE,m,,,,,,0.271296331,-0.199074095,0,0,0,,0,206,206,196,1,
,,,,,,,,,,,,,,,,,,5fa3b4abbcfd0b6c243758bc,2020-11-26_13h34.33.630,lexical_decision_task_MP_exp2,2020.2.5,Win32,60,m,1,0.493235,,,,,,,,0.493235,1,,,,,,10,WORD,UN,16,cruise,ETHNIC,m,,,,,,0.271296331,-0.199074095,0,0,0,,0,207,207,189,1,
,,,,,,,,,,,,,,,,,,5fa3b4abbcfd0b6c243758bc,2020-11-26_13h34.33.630,lexical_decision_task_MP_exp2,2020.2.5,Win32,60,m,0,0.31608,,,,,,,,0.31608,0,,,,,,439,NW,UN,33,saride,LIMPOR,z,,,,,,0.271296331,-0.199074095,0,0,0,,0,208,208,378,1,
,,,,,,,,,,,,,,,,,,5fa3b4abbcfd0b6c243758bc,2020-11-26_13h34.33.630,lexical_decision_task_MP_exp2,2020.2.5,Win32,60,m,0,0.274465,,,,,,,,0.274465,0,,,,,,379,NW,"ID",16,auting,AUTING,z,,,,,,0.271296331,-0.199074095,0,0,0,,0,209,209,318,1,
,,,,,,,,,,,,,,,,,,5fa3b4abbcfd0b6c243758bc,2020-11-26_13h34.33.630,lexical_decision_task_MP_exp2,2020.2.5,Win32,60,m,0,0.37451,,,,,,,,0.37451,0,,,,,,341,NW,"ID",33,myrtie,MYRTIE,z,,,,,,0.271296331,-0.199074095,0,0,0,,0,210,210,280,1,
,,,,,,,,,,,,,,,,,,5fa3b4abbcfd0b6c243758bc,2020-11-26_13h34.33.630,lexical_decision_task_MP_exp2,2020.2.5,Win32,60,m,1,0.48948,,,,,,,,0.48948,1,,,,,,20,WORD,UN,16,simple,BREAST,m,,,,,,0.271296331,-0.199074095,0,0,0,,0,211,211,199,1,
,,,,,,,,,,,,,,,,,,5fa3b4abbcfd0b6c243758bc,2020-11-26_13h34.33.630,lexical_decision_task_MP_exp2,2020.2.5,Win32,60,m,0,0.748805,,,,,,,,0.748805,0,,,,,,398,NW,"ID",16,blunde,BLUNDE,z,,,,,,0.271296331,-0.199074095,0,0,0,,0,212,212,337,1,
,,,,,,,,,,,,,,,,,,5fa3b4abbcfd0b6c243758bc,2020-11-26_13h34.33.630,lexical_decision_task_MP_exp2,2020.2.5,Win32,60,m,0,1.48193,,,,,,,,1.48193,0,,,,,,289,NW,UN,16,splino,STARBY,z,,,,,,0.271296331,-0.199074095,0,0,0,,0,213,213,468,1,
,,,,,,,,,,,,,,,,,,5fa3b4abbcfd0b6c243758bc,2020-11-26_13h34.33.630,lexical_decision_task_MP_exp2,2020.2.5,Win32,60,m,1,0.467385,,,,,,,,0.467385,1,,,,,,23,WORD,UN,16,praise,WEALTH,m,,,,,,0.271296331,-0.199074095,0,0,0,,0,214,214,202,1,
,,,,,,,,,,,,,,,,,,5fa3b4abbcfd0b6c243758bc,2020-11-26_13h34.33.630,lexical_decision_task_MP_exp2,2020.2.5,Win32,60,m,1,0.97125,,,,,,,,0.97125,1,,,,,,76,WORD,"ID",33,exotic,EXOTIC,m,,,,,,0.271296331,-0.199074095,0,0,0,,0,215,215,15,1,
,,,,,,,,,,,,,,,,,,5fa3b4abbcfd0b6c243758bc,2020-11-26_13h34.33.630,lexical_decision_task_MP_exp2,2020.2.5,Win32,60,m,0,0.249115,,,,,,,,0.249115,0,,,,,,303,NW,"ID",33,fiream,FIREAM,z,,,,,,0.271296331,-0.199074095,0,0,0,,0,216,216,242,1,
,,,,,,,,,,,,,,,,,,5fa3b4abbcfd0b6c243758bc,2020-11-26_13h34.33.630,lexical_decision_task_MP_exp2,2020.2.5,Win32,60,m,0,0.249925,,,,,,,,0.249925,0,,,,,,363,NW,"ID",16,breali,BREALI,z,,,,,,0.271296331,-0.199074095,0,0,0,,0,217,217,302,1,
,,,,,,,,,,,,,,,,,,5fa3b4abbcfd0b6c243758bc,2020-11-26_13h34.33.630,lexical_decision_task_MP_exp2,2020.2.5,Win32,60,m,1,0.25524,,,,,,,,0.25524,1,,,,,,126,WORD,"ID",16,enough,ENOUGH,m,,,,,,0.271296331,-0.199074095,0,0,0,,0,218,218,65,1,
,,,,,,,,,,,,,,,,,,5fa3b4abbcfd0b6c243758bc,2020-11-26_13h34.33.630,lexical_decision_task_MP_exp2,2020.2.5,Win32,60,m,1,0.35104,,,,,,,,0.35104,1,,,,,,32,WORD,UN,16,scream,BUCKLE,m,,,,,,0.271296331,-0.199074095,0,0,0,,0,219,219,211,1,
,,,,,,,,,,,,,,,,,,5fa3b4abbcfd0b6c243758bc,2020-11-26_13h34.33.630,lexical_decision_task_MP_exp2,2020.2.5,Win32,60,,0,,,,,,,,,0.35104,-1,,,,,,45,WORD,UN,16,single,CLERGY,m,,,,,,0.271296331,-0.199074095,0,0,0,,0,220,220,224,1,
,,,,,,,,,,,,,,,,,,5fa3b4abbcfd0b6c243758bc,2020-11-26_13h34.33.630,lexical_decision_task_MP_exp2,2020.2.5,Win32,60,,0,,,,,,,,,0.35104,-1,,,,,,170,WORD,"ID",16,pounce,POUNCE,m,,,,,,0.271296331,-0.199074095,0,0,0,,0,221,221,109,1,
,,,,,,,,,,,,,,,,,,5fa3b4abbcfd0b6c243758bc,2020-11-26_13h34.33.630,lexical_decision_task_MP_exp2,2020.2.5,Win32,60,m,0,1.480775,,,,,,,,1.480775,0,,,,,,272,NW,UN,16,sortel,DAMILT,z,,,,,,0.271296331,-0.199074095,0,0,0,,0,222,222,451,1,
,,,,,,,,,,,,,,,,,,5fa3b4abbcfd0b6c243758bc,2020-11-26_13h34.33.630,lexical_decision_task_MP_exp2,2020.2.5,Win32,60,,0,,,,,,,,,1.480775,-1,,,,,,86,WORD,"ID",33,rodent,RODENT,m,,,,,,0.271296331,-0.199074095,0,0,0,,0,223,223,25,1,
,,,,,,,,,,,,,,,,,,5fa3b4abbcfd0b6c243758bc,2020-11-26_13h34.33.630,lexical_decision_task_MP_exp2,2020.2.5,Win32,60,m,0,0.7037,,,,,,,,0.7037,0,,,,,,404,NW,"ID",16,cluirm,CLUIRM,z,,,,,,0.271296331,-0.199074095,0,0,0,,0,224,224,343,1,
,,,,,,,,,,,,,,,,,,5fa3b4abbcfd0b6c243758bc,2020-11-26_13h34.33.630,lexical_decision_task_MP_exp2,2020.2.5,Win32,60,m,1,0.482405,,,,,,,,0.482405,1,,,,,,68,WORD,"ID",33,fumble,FUMBLE,m,,,,,,0.271296331,-0.199074095,0,0,0,,0,225,225,7,1,
,,,,,,,,,,,,,,,,,,5fa3b4abbcfd0b6c243758bc,2020-11-26_13h34.33.630,lexical_decision_task_MP_exp2,2020.2.5,Win32,60,m,0,0.46853,,,,,,,,0.46853,0,,,,,,402,NW,"ID",16,syntic,SYNTIC,z,,,,,,0.271296331,-0.199074095,0,0,0,,0,226,226,341,1,
,,,,,,,,,,,,,,,,,,5fa3b4abbcfd0b6c243758bc,2020-11-26_13h34.33.630,lexical_decision_task_MP_exp2,2020.2.5,Win32,60,m,0,0.76619,,,,,,,,0.76619,0,,,,,,429,NW,UN,33,caroey,FUNTLE,z,,,,,,0.271296331,-0.199074095,0,0,0,,0,227,227,368,1,
,,,,,,,,,,,,,,,,,,5fa3b4abbcfd0b6c243758bc,2020-11-26_13h34.33.630,lexical_decision_task_MP_exp2,2020.2.5,Win32,60,m,1,0.53928,,,,,,,,0.53928,1,,,,,,150,WORD,"ID",16,random,RANDOM,m,,,,,,0.271296331,-0.199074095,0,0,0,,0,228,228,89,1,
,,,,,,,,,,,,,,,,,,5fa3b4abbcfd0b6c243758bc,2020-11-26_13h34.33.630,lexical_decision_task_MP_exp2,2020.2.5,Win32,60,m,1,0.23183,,,,,,,,0.23183,1,,,,,,55,WORD,UN,16,ambush,STROKE,m,,,,,,0.271296331,-0.199074095,0,0,0,,0,229,229,234,1,
,,,,,,,,,,,,,,,,,,5fa3b4abbcfd0b6c243758bc,2020-11-26_13h34.33.630,lexical_decision_task_MP_exp2,2020.2.5,Win32,60,m,0,0.38327,,,,,,,,0.38327,0,,,,,,247,NW,UN,16,strole,BLARGE,z,,,,,,0.271296331,-0.199074095,0,0,0,,0,230,230,426,1,
,,,,,,,,,,,,,,,,,,5fa3b4abbcfd0b6c243758bc,2020-11-26_13h34.33.630,lexical_decision_task_MP_exp2,2020.2.5,Win32,60,m,0,0.215975,,,,,,,,0.215975,0,,,,,,326,NW,"ID",33,iguade,IGUADE,z,,,,,,0.271296331,-0.199074095,0,0,0,,0,231,231,265,1,
,,,,,,,,,,,,,,,,,,5fa3b4abbcfd0b6c243758bc,2020-11-26_13h34.33.630,lexical_decision_task_MP_exp2,2020.2.5,Win32,60,m,1,0.33539,,,,,,,,0.33539,1,,,,,,173,WORD,"ID",16,shower,SHOWER,m,,,,,,0.271296331,-0.199074095,0,0,0,,0,232,232,112,1,
,,,,,,,,,,,,,,,,,,5fa3b4abbcfd0b6c243758bc,2020-11-26_13h34.33.630,lexical_decision_task_MP_exp2,2020.2.5,Win32,60,m,0,0.285695,,,,,,,,0.285695,0,,,,,,293,NW,UN,16,inhort,SWANCE,z,,,,,,0.271296331,-0.199074095,0,0,0,,0,233,233,472,1,
,,,,,,,,,,,,,,,,,,5fa3b4abbcfd0b6c243758bc,2020-11-26_13h34.33.630,lexical_decision_task_MP_exp2,2020.2.5,Win32,60,m,0,0.37078,,,,,,,,0.37078,0,,,,,,437,NW,UN,33,baitch,SNAPEL,z,,,,,,0.271296331,-0.199074095,0,0,0,,0,234,234,376,1,
,,,,,,,,,,,,,,,,,,5fa3b4abbcfd0b6c243758bc,2020-11-26_13h34.33.630,lexical_decision_task_MP_exp2,2020.2.5,Win32,60,m,1,0.415945,,,,,,,,0.415945,1,,,,,,142,WORD,"ID",16,spruce,SPRUCE,m,,,,,,0.271296331,-0.199074095,0,0,0,,0,235,235,81,1,
,,,,,,,,,,,,,,,,,,5fa3b4abbcfd0b6c243758bc,2020-11-26_13h34.33.630,lexical_decision_task_MP_exp2,2020.2.5,Win32,60,m,0,1.23312,,,,,,,,1.23312,0,,,,,,330,NW,"ID",33,kensom,KENSOM,z,,,,,,0.271296331,-0.199074095,0,0,0,,0,236,236,269,1,
,,,,,,,,,,,,,,,,,,5fa3b4abbcfd0b6c243758bc,2020-11-26_13h34.33.630,lexical_decision_task_MP_exp2,2020.2.5,Win32,60,m,1,1.631755,,,,,,,,1.631755,1,,,,,,54,WORD,UN,16,stroke,RAMBLE,m,,,,,,0.271296331,-0.199074095,0,0,0,,0,237,237,233,1,
,,,,,,,,,,,,,,,,,,5fa3b4abbcfd0b6c243758bc,2020-11-26_13h34.33.630,lexical_decision_task_MP_exp2,2020.2.5,Win32,60,m,1,0.799015,,,,,,,,0.799015,1,,,,,,131,WORD,"ID",16,quench,QUENCH,m,,,,,,0.271296331,-0.199074095,0,0,0,,0,238,238,70,1,
,,,,,,,,,,,,,,,,,,5fa3b4abbcfd0b6c243758bc,2020-11-26_13h34.33.630,lexical_decision_task_MP_exp2,2020.2.5,Win32,60,m,0,0.441845,,,,,,,,0.441845,0,,,,,,280,NW,UN,16,melaty,CURBOL,z,,,,,,0.271296331,-0.199074095,0,0,0,,0,239,239,459,1,
,,,,,,,,,,,,,,,,,,5fa3b4abbcfd0b6c243758bc,2020-11-26_13h34.33.630,lexical_decision_task_MP_exp2,2020.2.5,Win32,60,m,1,0.647675,,,,,,,,0.647675,1,,,,,,118,WORD,"ID",33,flight,FLIGHT,m,,,,,,0.271296331,-0.199074095,0,0,0,,0,240,240,57,1,
,,,,,,,,,,,,,,,,,,5fa3b4abbcfd0b6c243758bc,2020-11-26_13h34.33.630,lexical_decision_task_MP_exp2,2020.2.5,Win32,60,m,0,0.38194,,,,,,,,0.38194,0,,,,,,256,NW,UN,16,veniod,INLORS,z,,,,,,0.271296331,-0.199074095,0,0,0,space,0,241,241,435,1,119.306855
,,,,,,,,,,,,,,,,,,5fa3b4abbcfd0b6c243758bc,2020-11-26_13h34.33.630,lexical_decision_task_MP_exp2,2020.2.5,Win32,60,m,0,0.25238,,,,,,,,0.25238,0,,,,,,270,NW,UN,16,aubrid,WRIMSY,z,,,,,,0.271296331,-0.199074095,0,0,0,,0,242,242,449,1,
,,,,,,,,,,,,,,,,,,5fa3b4abbcfd0b6c243758bc,2020-11-26_13h34.33.630,lexical_decision_task_MP_exp2,2020.2.5,Win32,60,m,0,0.235305,,,,,,,,0.235305,0,,,,,,368,NW,"ID",16,hornal,HORNAL,z,,,,,,0.271296331,-0.199074095,0,0,0,,0,243,243,307,1,
,,,,,,,,,,,,,,,,,,5fa3b4abbcfd0b6c243758bc,2020-11-26_13h34.33.630,lexical_decision_task_MP_exp2,2020.2.5,Win32,60,m,1,0.24842,,,,,,,,0.24842,1,,,,,,127,WORD,"ID",16,castle,CASTLE,m,,,,,,0.271296331,-0.199074095,0,0,0,,0,244,244,66,1,
,,,,,,,,,,,,,,,,,,5fa3b4abbcfd0b6c243758bc,2020-11-26_13h34.33.630,lexical_decision_task_MP_exp2,2020.2.5,Win32,60,m,0,0.34988,,,,,,,,0.34988,0,,,,,,261,NW,UN,16,quilew,STUNCH,z,,,,,,0.271296331,-0.199074095,0,0,0,,0,245,245,440,1,
,,,,,,,,,,,,,,,,,,5fa3b4abbcfd0b6c243758bc,2020-11-26_13h34.33.630,lexical_decision_task_MP_exp2,2020.2.5,Win32,60,m,0,0.39839,,,,,,,,0.39839,0,,,,,,278,NW,UN,16,celond,UNIGHS,z,,,,,,0.271296331,-0.199074095,0,0,0,,0,246,246,457,1,
,,,,,,,,,,,,,,,,,,5fa3b4abbcfd0b6c243758bc,2020-11-26_13h34.33.630,lexical_decision_task_MP_exp2,2020.2.5,Win32,60,m,0,0.798895,,,,,,,,0.798895,0,,,,,,468,NW,UN,33,padifs,WICTOR,z,,,,,,0.271296331,-0.199074095,0,0,0,,0,247,247,407,1,
,,,,,,,,,,,,,,,,,,5fa3b4abbcfd0b6c243758bc,2020-11-26_13h34.33.630,lexical_decision_task_MP_exp2,2020.2.5,Win32,60,m,0,0.692775,,,,,,,,0.692775,0,,,,,,286,NW,UN,16,nymbel,RELDON,z,,,,,,0.271296331,-0.199074095,0,0,0,,0,248,248,465,1,
,,,,,,,,,,,,,,,,,,5fa3b4abbcfd0b6c243758bc,2020-11-26_13h34.33.630,lexical_decision_task_MP_exp2,2020.2.5,Win32,60,m,0,0.648785,,,,,,,,0.648785,0,,,,,,466,NW,UN,33,robuly,HOCITE,z,,,,,,0.271296331,-0.199074095,0,0,0,,0,249,249,405,1,
,,,,,,,,,,,,,,,,,,5fa3b4abbcfd0b6c243758bc,2020-11-26_13h34.33.630,lexical_decision_task_MP_exp2,2020.2.5,Win32,60,m,1,0.72483,,,,,,,,0.72483,1,,,,,,175,WORD,"ID",16,fabric,FABRIC,m,,,,,,0.271296331,-0.199074095,0,0,0,,0,250,250,114,1,
,,,,,,,,,,,,,,,,,,5fa3b4abbcfd0b6c243758bc,2020-11-26_13h34.33.630,lexical_decision_task_MP_exp2,2020.2.5,Win32,60,m,1,0.66535,,,,,,,,0.66535,1,,,,,,1,WORD,UN,16,ethnic,FRIGHT,m,,,,,,0.271296331,-0.199074095,0,0,0,,0,251,251,180,1,
,,,,,,,,,,,,,,,,,,5fa3b4abbcfd0b6c243758bc,2020-11-26_13h34.33.630,lexical_decision_task_MP_exp2,2020.2.5,Win32,60,m,1,0.4707,,,,,,,,0.4707,1,,,,,,234,WORD,UN,33,poster,CLUMSY,m,,,,,,0.271296331,-0.199074095,0,0,0,,0,252,252,173,1,
,,,,,,,,,,,,,,,,,,5fa3b4abbcfd0b6c243758bc,2020-11-26_13h34.33.630,lexical_decision_task_MP_exp2,2020.2.5,Win32,60,m,0,0.31578,,,,,,,,0.31578,0,,,,,,241,NW,UN,16,unwert,SMENCO,z,,,,,,0.271296331,-0.199074095,0,0,0,,0,253,253,420,1,
,,,,,,,,,,,,,,,,,,5fa3b4abbcfd0b6c243758bc,2020-11-26_13h34.33.630,lexical_decision_task_MP_exp2,2020.2.5,Win32,60,m,0,0.48376,,,,,,,,0.48376,0,,,,,,384,NW,"ID",16,guesco,GUESCO,z,,,,,,0.271296331,-0.199074095,0,0,0,,0,254,254,323,1,
,,,,,,,,,,,,,,,,,,5fa3b4abbcfd0b6c243758bc,2020-11-26_13h34.33.630,lexical_decision_task_MP_exp2,2020.2.5,Win32,60,m,1,1.44788,,,,,,,,1.44788,1,,,,,,160,WORD,"ID",16,violet,VIOLET,m,,,,,,0.271296331,-0.199074095,0,0,0,,0,255,255,99,1,
,,,,,,,,,,,,,,,,,,5fa3b4abbcfd0b6c243758bc,2020-11-26_13h34.33.630,lexical_decision_task_MP_exp2,2020.2.5,Win32,60,m,0,0.366115,,,,,,,,0.366115,0,,,,,,288,NW,UN,16,starby,YACEUP,z,,,,,,0.271296331,-0.199074095,0,0,0,,0,256,256,467,1,
,,,,,,,,,,,,,,,,,,5fa3b4abbcfd0b6c243758bc,2020-11-26_13h34.33.630,lexical_decision_task_MP_exp2,2020.2.5,Win32,60,m,1,0.44929,,,,,,,,0.44929,1,,,,,,229,WORD,UN,33,fringe,MOTHER,m,,,,,,0.271296331,-0.199074095,0,0,0,,0,257,257,168,1,
,,,,,,,,,,,,,,,,,,5fa3b4abbcfd0b6c243758bc,2020-11-26_13h34.33.630,lexical_decision_task_MP_exp2,2020.2.5,Win32,60,m,1,0.236465,,,,,,,,0.236465,1,,,,,,215,WORD,UN,33,lumber,PHOBIA,m,,,,,,0.271296331,-0.199074095,0,0,0,,0,258,258,154,1,
,,,,,,,,,,,,,,,,,,5fa3b4abbcfd0b6c243758bc,2020-11-26_13h34.33.630,lexical_decision_task_MP_exp2,2020.2.5,Win32,60,m,0,0.199775,,,,,,,,0.199775,0,,,,,,291,NW,UN,16,ablint,PRETCH,z,,,,,,0.271296331,-0.199074095,0,0,0,,0,259,259,470,1,
,,,,,,,,,,,,,,,,,,5fa3b4abbcfd0b6c243758bc,2020-11-26_13h34.33.630,lexical_decision_task_MP_exp2,2020.2.5,Win32,60,m,1,0.132535,,,,,,,,0.132535,1,,,,,,103,WORD,"ID",33,bounce,BOUNCE,m,,,,,,0.271296331,-0.199074095,0,0,0,,0,260,260,42,1,
,,,,,,,,,,,,,,,,,,5fa3b4abbcfd0b6c243758bc,2020-11-26_13h34.33.630,lexical_decision_task_MP_exp2,2020.2.5,Win32,60,m,0,0.18143,,,,,,,,0.18143,0,,,,,,245,NW,UN,16,piaton,ANOUGS,z,,,,,,0.271296331,-0.199074095,0,0,0,,0,261,261,424,1,
,,,,,,,,,,,,,,,,,,5fa3b4abbcfd0b6c243758bc,2020-11-26_13h34.33.630,lexical_decision_task_MP_exp2,2020.2.5,Win32,60,m,1,0.12301,,,,,,,,0.12301,1,,,,,,214,WORD,UN,33,phobia,INTAKE,m,,,,,,0.271296331,-0.199074095,0,0,0,,0,262,262,153,1,
,,,,,,,,,,,,,,,,,,5fa3b4abbcfd0b6c243758bc,2020-11-26_13h34.33.630,lexical_decision_task_MP_exp2,2020.2.5,Win32,60,m,0,0.282055,,,,,,,,0.282055,0,,,,,,371,NW,"ID",16,geiloy,GEILOY,z,,,,,,0.271296331,-0.199074095,0,0,0,,0,263,263,310,1,
,,,,,,,,,,,,,,,,,,5fa3b4abbcfd0b6c243758bc,2020-11-26_13h34.33.630,lexical_decision_task_MP_exp2,2020.2.5,Win32,60,m,1,0.281995,,,,,,,,0.281995,1,,,,,,107,WORD,"ID",33,slogan,SLOGAN,m,,,,,,0.271296331,-0.199074095,0,0,0,,0,264,264,46,1,
,,,,,,,,,,,,,,,,,,5fa3b4abbcfd0b6c243758bc,2020-11-26_13h34.33.630,lexical_decision_task_MP_exp2,2020.2.5,Win32,60,m,1,0.250035,,,,,,,,0.250035,1,,,,,,238,WORD,UN,33,behalf,FLOWER,m,,,,,,0.271296331,-0.199074095,0,0,0,,0,265,265,177,1,
,,,,,,,,,,,,,,,,,,5fa3b4abbcfd0b6c243758bc,2020-11-26_13h34.33.630,lexical_decision_task_MP_exp2,2020.2.5,Win32,60,m,0,0.219565,,,,,,,,0.219565,0,,,,,,356,NW,"ID",33,othnis,OTHNIS,z,,,,,,0.271296331,-0.199074095,0,0,0,,0,266,266,295,1,
,,,,,,,,,,,,,,,,,,5fa3b4abbcfd0b6c243758bc,2020-11-26_13h34.33.630,lexical_decision_task_MP_exp2,2020.2.5,Win32,60,m,0,0.523785,,,,,,,,0.523785,0,,,,,,393,NW,"ID",16,ganous,GANOUS,z,,,,,,0.271296331,-0.199074095,0,0,0,,0,267,267,332,1,
,,,,,,,,,,,,,,,,,,5fa3b4abbcfd0b6c243758bc,2020-11-26_13h34.33.630,lexical_decision_task_MP_exp2,2020.2.5,Win32,60,m,1,0.61537,,,,,,,,0.61537,1,,,,,,183,WORD,UN,33,sleazy,MILDEW,m,,,,,,0.271296331,-0.199074095,0,0,0,,0,268,268,122,1,
,,,,,,,,,,,,,,,,,,5fa3b4abbcfd0b6c243758bc,2020-11-26_13h34.33.630,lexical_decision_task_MP_exp2,2020.2.5,Win32,60,m,0,0.714815,,,,,,,,0.714815,0,,,,,,472,NW,UN,33,gorbie,CIGNEY,z,,,,,,0.271296331,-0.199074095,0,0,0,,0,269,269,411,1,
,,,,,,,,,,,,,,,,,,5fa3b4abbcfd0b6c243758bc,2020-11-26_13h34.33.630,lexical_decision_task_MP_exp2,2020.2.5,Win32,60,m,0,0.574445,,,,,,,,0.574445,0,,,,,,322,NW,"ID",33,slanch,SLANCH,z,,,,,,0.271296331,-0.199074095,0,0,0,,0,270,270,261,1,
,,,,,,,,,,,,,,,,,,5fa3b4abbcfd0b6c243758bc,2020-11-26_13h34.33.630,lexical_decision_task_MP_exp2,2020.2.5,Win32,60,m,1,1.371465,,,,,,,,1.371465,1,,,,,,230,WORD,UN,33,mother,FRINGE,m,,,,,,0.271296331,-0.199074095,0,0,0,,0,271,271,169,1,
,,,,,,,,,,,,,,,,,,5fa3b4abbcfd0b6c243758bc,2020-11-26_13h34.33.630,lexical_decision_task_MP_exp2,2020.2.5,Win32,60,m,1,0.96502,,,,,,,,0.96502,1,,,,,,60,WORD,UN,16,fright,PENCIL,m,,,,,,0.271296331,-0.199074095,0,0,0,,0,272,272,239,1,
,,,,,,,,,,,,,,,,,,5fa3b4abbcfd0b6c243758bc,2020-11-26_13h34.33.630,lexical_decision_task_MP_exp2,2020.2.5,Win32,60,m,0,0.38902,,,,,,,,0.38902,0,,,,,,301,NW,"ID",33,fainch,FAINCH,z,,,,,,0.271296331,-0.199074095,0,0,0,,0,273,273,240,1,
,,,,,,,,,,,,,,,,,,5fa3b4abbcfd0b6c243758bc,2020-11-26_13h34.33.630,lexical_decision_task_MP_exp2,2020.2.5,Win32,60,m,1,1.098385,,,,,,,,1.098385,1,,,,,,138,WORD,"ID",16,melody,MELODY,m,,,,,,0.271296331,-0.199074095,0,0,0,,0,274,274,77,1,
,,,,,,,,,,,,,,,,,,5fa3b4abbcfd0b6c243758bc,2020-11-26_13h34.33.630,lexical_decision_task_MP_exp2,2020.2.5,Win32,60,m,0,0.3674,,,,,,,,0.3674,0,,,,,,420,NW,"ID",16,gushop,GUSHOP,z,,,,,,0.271296331,-0.199074095,0,0,0,,0,275,275,359,1,
,,,,,,,,,,,,,,,,,,5fa3b4abbcfd0b6c243758bc,2020-11-26_13h34.33.630,lexical_decision_task_MP_exp2,2020.2.5,Win32,60,m,0,0.281905,,,,,,,,0.281905,0,,,,,,248,NW,UN,16,batrol,STROLE,z,,,,,,0.271296331,-0.199074095,0,0,0,,0,276,276,427,1,
,,,,,,,,,,,,,,,,,,5fa3b4abbcfd0b6c243758bc,2020-11-26_13h34.33.630,lexical_decision_task_MP_exp2,2020.2.5,Win32,60,m,0,0.34822,,,,,,,,0.34822,0,,,,,,283,NW,UN,16,shaple,VERALF,z,,,,,,0.271296331,-0.199074095,0,0,0,,0,277,277,462,1,
,,,,,,,,,,,,,,,,,,5fa3b4abbcfd0b6c243758bc,2020-11-26_13h34.33.630,lexical_decision_task_MP_exp2,2020.2.5,Win32,60,m,0,0.26644,,,,,,,,0.26644,0,,,,,,339,NW,"ID",33,fachow,FACHOW,z,,,,,,0.271296331,-0.199074095,0,0,0,,0,278,278,278,1,
,,,,,,,,,,,,,,,,,,5fa3b4abbcfd0b6c243758bc,2020-11-26_13h34.33.630,lexical_decision_task_MP_exp2,2020.2.5,Win32,60,m,0,0.255465,,,,,,,,0.255465,0,,,,,,430,NW,UN,33,chrums,CAROEY,z,,,,,,0.271296331,-0.199074095,0,0,0,,0,279,279,369,1,
,,,,,,,,,,,,,,,,,,5fa3b4abbcfd0b6c243758bc,2020-11-26_13h34.33.630,lexical_decision_task_MP_exp2,2020.2.5,Win32,60,m,0,0.315255,,,,,,,,0.315255,0,,,,,,406,NW,"ID",16,nouply,NOUPLY,z,,,,,,0.271296331,-0.199074095,0,0,0,,0,280,280,345,1,
,,,,,,,,,,,,,,,,,,5fa3b4abbcfd0b6c243758bc,2020-11-26_13h34.33.630,lexical_decision_task_MP_exp2,2020.2.5,Win32,60,m,0,0.248275,,,,,,,,0.248275,0,,,,,,309,NW,"ID",33,amiloy,AMILOY,z,,,,,,0.271296331,-0.199074095,0,0,0,,0,281,281,248,1,
,,,,,,,,,,,,,,,,,,5fa3b4abbcfd0b6c243758bc,2020-11-26_13h34.33.630,lexical_decision_task_MP_exp2,2020.2.5,Win32,60,m,0,0.21477,,,,,,,,0.21477,0,,,,,,292,NW,UN,16,swance,ABLINT,z,,,,,,0.271296331,-0.199074095,0,0,0,,0,282,282,471,1,
,,,,,,,,,,,,,,,,,,5fa3b4abbcfd0b6c243758bc,2020-11-26_13h34.33.630,lexical_decision_task_MP_exp2,2020.2.5,Win32,60,m,0,0.38372,,,,,,,,0.38372,0,,,,,,268,NW,UN,16,orchet,PACKES,z,,,,,,0.271296331,-0.199074095,0,0,0,,0,283,283,447,1,
,,,,,,,,,,,,,,,,,,5fa3b4abbcfd0b6c243758bc,2020-11-26_13h34.33.630,lexical_decision_task_MP_exp2,2020.2.5,Win32,60,m,1,0.170355,,,,,,,,0.170355,1,,,,,,4,WORD,UN,16,plunge,TRENCH,m,,,,,,0.271296331,-0.199074095,0,0,0,,0,284,284,183,1,
,,,,,,,,,,,,,,,,,,5fa3b4abbcfd0b6c243758bc,2020-11-26_13h34.33.630,lexical_decision_task_MP_exp2,2020.2.5,Win32,60,m,0,0.29814,,,,,,,,0.29814,0,,,,,,258,NW,UN,16,soudal,POLUTH,z,,,,,,0.271296331,-0.199074095,0,0,0,,0,285,285,437,1,
,,,,,,,,,,,,,,,,,,5fa3b4abbcfd0b6c243758bc,2020-11-26_13h34.33.630,lexical_decision_task_MP_exp2,2020.2.5,Win32,60,m,0,0.282035,,,,,,,,0.282035,0,,,,,,364,NW,"ID",16,impote,IMPOTE,z,,,,,,0.271296331,-0.199074095,0,0,0,,0,286,286,303,1,
,,,,,,,,,,,,,,,,,,5fa3b4abbcfd0b6c243758bc,2020-11-26_13h34.33.630,lexical_decision_task_MP_exp2,2020.2.5,Win32,60,m,0,0.15269,,,,,,,,0.15269,0,,,,,,480,NW,UN,33,knisma,ROBULY,z,,,,,,0.271296331,-0.199074095,0,0,0,,0,287,287,419,1,
,,,,,,,,,,,,,,,,,,5fa3b4abbcfd0b6c243758bc,2020-11-26_13h34.33.630,lexical_decision_task_MP_exp2,2020.2.5,Win32,60,m,0,0.305315,,,,,,,,0.305315,0,,,,,,345,NW,"ID",33,absend,ABSEND,z,,,,,,0.271296331,-0.199074095,0,0,0,,0,288,288,284,1,
,,,,,,,,,,,,,,,,,,5fa3b4abbcfd0b6c243758bc,2020-11-26_13h34.33.630,lexical_decision_task_MP_exp2,2020.2.5,Win32,60,m,1,0.499285,,,,,,,,0.499285,1,,,,,,21,WORD,UN,16,jockey,SIMPLE,m,,,,,,0.271296331,-0.199074095,0,0,0,,0,289,289,200,1,
,,,,,,,,,,,,,,,,,,5fa3b4abbcfd0b6c243758bc,2020-11-26_13h34.33.630,lexical_decision_task_MP_exp2,2020.2.5,Win32,60,m,0,0.203415,,,,,,,,0.203415,0,,,,,,324,NW,"ID",33,steikh,STEIKH,z,,,,,,0.271296331,-0.199074095,0,0,0,,0,290,290,263,1,
,,,,,,,,,,,,,,,,,,5fa3b4abbcfd0b6c243758bc,2020-11-26_13h34.33.630,lexical_decision_task_MP_exp2,2020.2.5,Win32,60,m,0,0.43157,,,,,,,,0.43157,0,,,,,,375,NW,"ID",16,yorque,YORQUE,z,,,,,,0.271296331,-0.199074095,0,0,0,,0,291,291,314,1,
,,,,,,,,,,,,,,,,,,5fa3b4abbcfd0b6c243758bc,2020-11-26_13h34.33.630,lexical_decision_task_MP_exp2,2020.2.5,Win32,60,m,1,0.332145,,,,,,,,0.332145,1,,,,,,199,WORD,UN,33,plague,INVOKE,m,,,,,,0.271296331,-0.199074095,0,0,0,,0,292,292,138,1,
,,,,,,,,,,,,,,,,,,5fa3b4abbcfd0b6c243758bc,2020-11-26_13h34.33.630,lexical_decision_task_MP_exp2,2020.2.5,Win32,60,m,0,0.350455,,,,,,,,0.350455,0,,,,,,257,NW,UN,16,poluth,VENIOD,z,,,,,,0.271296331,-0.199074095,0,0,0,,0,293,293,436,1,
,,,,,,,,,,,,,,,,,,5fa3b4abbcfd0b6c243758bc,2020-11-26_13h34.33.630,lexical_decision_task_MP_exp2,2020.2.5,Win32,60,m,1,0.438855,,,,,,,,0.438855,1,,,,,,203,WORD,UN,33,burden,PHRASE,m,,,,,,0.271296331,-0.199074095,0,0,0,,0,294,294,142,1,
,,,,,,,,,,,,,,,,,,5fa3b4abbcfd0b6c243758bc,2020-11-26_13h34.33.630,lexical_decision_task_MP_exp2,2020.2.5,Win32,60,m,1,0.343725,,,,,,,,0.343725,1,,,,,,181,WORD,UN,33,winter,GLANCE,m,,,,,,0.271296331,-0.199074095,0,0,0,,0,295,295,120,1,
,,,,,,,,,,,,,,,,,,5fa3b4abbcfd0b6c243758bc,2020-11-26_13h34.33.630,lexical_decision_task_MP_exp2,2020.2.5,Win32,60,m,1,0.33519,,,,,,,,0.33519,1,,,,,,28,WORD,UN,16,sketch,COMEDY,m,,,,,,0.271296331,-0.199074095,0,0,0,,0,296,296,207,1,
,,,,,,,,,,,,,,,,,,5fa3b4abbcfd0b6c243758bc,2020-11-26_13h34.33.630,lexical_decision_task_MP_exp2,2020.2.5,Win32,60,m,1,0.36804,,,,,,,,0.36804,1,,,,,,128,WORD,"ID",16,senior,SENIOR,m,,,,,,0.271296331,-0.199074095,0,0,0,,0,297,297,67,1,
,,,,,,,,,,,,,,,,,,5fa3b4abbcfd0b6c243758bc,2020-11-26_13h34.33.630,lexical_decision_task_MP_exp2,2020.2.5,Win32,60,m,1,0.386585,,,,,,,,0.386585,1,,,,,,223,WORD,UN,33,period,KIDNEY,m,,,,,,0.271296331,-0.199074095,0,0,0,,0,298,298,162,1,
,,,,,,,,,,,,,,,,,,5fa3b4abbcfd0b6c243758bc,2020-11-26_13h34.33.630,lexical_decision_task_MP_exp2,2020.2.5,Win32,60,m,0,0.30048,,,,,,,,0.30048,0,,,,,,392,NW,"ID",16,rouncy,ROUNCY,z,,,,,,0.271296331,-0.199074095,0,0,0,,0,299,299,331,1,
,,,,,,,,,,,,,,,,,,5fa3b4abbcfd0b6c243758bc,2020-11-26_13h34.33.630,lexical_decision_task_MP_exp2,2020.2.5,Win32,60,m,1,0.339495,,,,,,,,0.339495,1,,,,,,155,WORD,"ID",16,lizard,LIZARD,m,,,,,,0.271296331,-0.199074095,0,0,0,,0,300,300,94,1,
,,,,,,,,,,,,,,,,,,5fa3b4abbcfd0b6c243758bc,2020-11-26_13h34.33.630,lexical_decision_task_MP_exp2,2020.2.5,Win32,60,m,1,0.2653,,,,,,,,0.2653,1,,,,,,202,WORD,UN,33,phrase,FACTOR,m,,,,,,0.271296331,-0.199074095,0,0,0,,0,301,301,141,1,
,,,,,,,,,,,,,,,,,,5fa3b4abbcfd0b6c243758bc,2020-11-26_13h34.33.630,lexical_decision_task_MP_exp2,2020.2.5,Win32,60,m,1,0.140445,,,,,,,,0.140445,1,,,,,,216,WORD,UN,33,liquor,BEHALF,m,,,,,,0.271296331,-0.199074095,0,0,0,,0,302,302,155,1,
,,,,,,,,,,,,,,,,,,5fa3b4abbcfd0b6c243758bc,2020-11-26_13h34.33.630,lexical_decision_task_MP_exp2,2020.2.5,Win32,60,m,0,0.200305,,,,,,,,0.200305,0,,,,,,461,NW,UN,33,absult,JUSTRE,z,,,,,,0.271296331,-0.199074095,0,0,0,,0,303,303,400,1,
,,,,,,,,,,,,,,,,,,5fa3b4abbcfd0b6c243758bc,2020-11-26_13h34.33.630,lexical_decision_task_MP_exp2,2020.2.5,Win32,60,m,0,0.308695,,,,,,,,0.308695,0,,,,,,438,NW,UN,33,limpor,BAITCH,z,,,,,,0.271296331,-0.199074095,0,0,0,,0,304,304,377,1,
,,,,,,,,,,,,,,,,,,5fa3b4abbcfd0b6c243758bc,2020-11-26_13h34.33.630,lexical_decision_task_MP_exp2,2020.2.5,Win32,60,m,1,0.40536,,,,,,,,0.40536,1,,,,,,117,WORD,"ID",33,branch,BRANCH,m,,,,,,0.271296331,-0.199074095,0,0,0,,0,305,305,56,1,
,,,,,,,,,,,,,,,,,,5fa3b4abbcfd0b6c243758bc,2020-11-26_13h34.33.630,lexical_decision_task_MP_exp2,2020.2.5,Win32,60,m,0,0.365635,,,,,,,,0.365635,0,,,,,,400,NW,"ID",16,wearox,WEAROX,z,,,,,,0.271296331,-0.199074095,0,0,0,,0,306,306,339,1,
,,,,,,,,,,,,,,,,,,5fa3b4abbcfd0b6c243758bc,2020-11-26_13h34.33.630,lexical_decision_task_MP_exp2,2020.2.5,Win32,60,m,1,0.550985,,,,,,,,0.550985,1,,,,,,9,WORD,UN,16,bridge,HUSTLE,m,,,,,,0.271296331,-0.199074095,0,0,0,,0,307,307,188,1,
,,,,,,,,,,,,,,,,,,5fa3b4abbcfd0b6c243758bc,2020-11-26_13h34.33.630,lexical_decision_task_MP_exp2,2020.2.5,Win32,60,m,0,0.26822,,,,,,,,0.26822,0,,,,,,342,NW,"ID",33,randow,RANDOW,z,,,,,,0.271296331,-0.199074095,0,0,0,,0,308,308,281,1,
,,,,,,,,,,,,,,,,,,5fa3b4abbcfd0b6c243758bc,2020-11-26_13h34.33.630,lexical_decision_task_MP_exp2,2020.2.5,Win32,60,m,1,0.286645,,,,,,,,0.286645,1,,,,,,147,WORD,"ID",16,garlic,GARLIC,m,,,,,,0.271296331,-0.199074095,0,0,0,,0,309,309,86,1,
,,,,,,,,,,,,,,,,,,5fa3b4abbcfd0b6c243758bc,2020-11-26_13h34.33.630,lexical_decision_task_MP_exp2,2020.2.5,Win32,60,m,0,0.316535,,,,,,,,0.316535,0,,,,,,397,NW,"ID",16,camble,CAMBLE,z,,,,,,0.271296331,-0.199074095,0,0,0,,0,310,310,336,1,
,,,,,,,,,,,,,,,,,,5fa3b4abbcfd0b6c243758bc,2020-11-26_13h34.33.630,lexical_decision_task_MP_exp2,2020.2.5,Win32,60,m,1,0.81734,,,,,,,,0.81734,1,,,,,,235,WORD,UN,33,pirate,GRUMPY,m,,,,,,0.271296331,-0.199074095,0,0,0,,0,311,311,174,1,
,,,,,,,,,,,,,,,,,,5fa3b4abbcfd0b6c243758bc,2020-11-26_13h34.33.630,lexical_decision_task_MP_exp2,2020.2.5,Win32,60,m,0,0.232885,,,,,,,,0.232885,0,,,,,,396,NW,"ID",16,flengy,FLENGY,z,,,,,,0.271296331,-0.199074095,0,0,0,,0,312,312,335,1,
,,,,,,,,,,,,,,,,,,5fa3b4abbcfd0b6c243758bc,2020-11-26_13h34.33.630,lexical_decision_task_MP_exp2,2020.2.5,Win32,60,m,1,0.300375,,,,,,,,0.300375,1,,,,,,162,WORD,"ID",16,candle,CANDLE,m,,,,,,0.271296331,-0.199074095,0,0,0,,0,313,313,101,1,
,,,,,,,,,,,,,,,,,,5fa3b4abbcfd0b6c243758bc,2020-11-26_13h34.33.630,lexical_decision_task_MP_exp2,2020.2.5,Win32,60,m,0,0.182975,,,,,,,,0.182975,0,,,,,,335,NW,"ID",33,desion,DESION,z,,,,,,0.271296331,-0.199074095,0,0,0,,0,314,314,274,1,
,,,,,,,,,,,,,,,,,,5fa3b4abbcfd0b6c243758bc,2020-11-26_13h34.33.630,lexical_decision_task_MP_exp2,2020.2.5,Win32,60,m,0,0.25384,,,,,,,,0.25384,0,,,,,,310,NW,"ID",33,daniet,DANIET,z,,,,,,0.271296331,-0.199074095,0,0,0,,0,315,315,249,1,
,,,,,,,,,,,,,,,,,,5fa3b4abbcfd0b6c243758bc,2020-11-26_13h34.33.630,lexical_decision_task_MP_exp2,2020.2.5,Win32,60,m,0,0.18232,,,,,,,,0.18232,0,,,,,,391,NW,"ID",16,theldy,THELDY,z,,,,,,0.271296331,-0.199074095,0,0,0,,0,316,316,330,1,
,,,,,,,,,,,,,,,,,,5fa3b4abbcfd0b6c243758bc,2020-11-26_13h34.33.630,lexical_decision_task_MP_exp2,2020.2.5,Win32,60,m,0,0.286325,,,,,,,,0.286325,0,,,,,,244,NW,UN,16,anougs,EATRIC,z,,,,,,0.271296331,-0.199074095,0,0,0,,0,317,317,423,1,
,,,,,,,,,,,,,,,,,,5fa3b4abbcfd0b6c243758bc,2020-11-26_13h34.33.630,lexical_decision_task_MP_exp2,2020.2.5,Win32,60,m,1,0.26703,,,,,,,,0.26703,1,,,,,,159,WORD,"ID",16,detail,DETAIL,m,,,,,,0.271296331,-0.199074095,0,0,0,,0,318,318,98,1,
,,,,,,,,,,,,,,,,,,5fa3b4abbcfd0b6c243758bc,2020-11-26_13h34.33.630,lexical_decision_task_MP_exp2,2020.2.5,Win32,60,m,1,0.32057,,,,,,,,0.32057,1,,,,,,69,WORD,"ID",33,plenty,PLENTY,m,,,,,,0.271296331,-0.199074095,0,0,0,,0,319,319,8,1,
,,,,,,,,,,,,,,,,,,5fa3b4abbcfd0b6c243758bc,2020-11-26_13h34.33.630,lexical_decision_task_MP_exp2,2020.2.5,Win32,60,m,1,0.65747,,,,,,,,0.65747,1,,,,,,188,WORD,UN,33,censor,SOCIAL,m,,,,,,0.271296331,-0.199074095,0,0,0,,0,320,320,127,1,
,,,,,,,,,,,,,,,,,,5fa3b4abbcfd0b6c243758bc,2020-11-26_13h34.33.630,lexical_decision_task_MP_exp2,2020.2.5,Win32,60,m,0,0.354735,,,,,,,,0.354735,0,,,,,,418,NW,"ID",16,suidle,SUIDLE,z,,,,,,0.271296331,-0.199074095,0,0,0,,0,321,321,357,1,
,,,,,,,,,,,,,,,,,,5fa3b4abbcfd0b6c243758bc,2020-11-26_13h34.33.630,lexical_decision_task_MP_exp2,2020.2.5,Win32,60,m,1,0.302515,,,,,,,,0.302515,1,,,,,,137,WORD,"ID",16,finger,FINGER,m,,,,,,0.271296331,-0.199074095,0,0,0,,0,322,322,76,1,
,,,,,,,,,,,,,,,,,,5fa3b4abbcfd0b6c243758bc,2020-11-26_13h34.33.630,lexical_decision_task_MP_exp2,2020.2.5,Win32,60,m,1,0.588215,,,,,,,,0.588215,1,,,,,,108,WORD,"ID",33,reckon,RECKON,m,,,,,,0.271296331,-0.199074095,0,0,0,,0,323,323,47,1,
,,,,,,,,,,,,,,,,,,5fa3b4abbcfd0b6c243758bc,2020-11-26_13h34.33.630,lexical_decision_task_MP_exp2,2020.2.5,Win32,60,m,1,0.326215,,,,,,,,0.326215,1,,,,,,206,WORD,UN,33,wreath,TAILOR,m,,,,,,0.271296331,-0.199074095,0,0,0,,0,324,324,145,1,
,,,,,,,,,,,,,,,,,,5fa3b4abbcfd0b6c243758bc,2020-11-26_13h34.33.630,lexical_decision_task_MP_exp2,2020.2.5,Win32,60,m,1,0.249945,,,,,,,,0.249945,1,,,,,,225,WORD,UN,33,casino,VULGAR,m,,,,,,0.271296331,-0.199074095,0,0,0,,0,325,325,164,1,
,,,,,,,,,,,,,,,,,,5fa3b4abbcfd0b6c243758bc,2020-11-26_13h34.33.630,lexical_decision_task_MP_exp2,2020.2.5,Win32,60,m,1,0.456825,,,,,,,,0.456825,1,,,,,,71,WORD,"ID",33,garden,GARDEN,m,,,,,,0.271296331,-0.199074095,0,0,0,,0,326,326,10,1,
,,,,,,,,,,,,,,,,,,5fa3b4abbcfd0b6c243758bc,2020-11-26_13h34.33.630,lexical_decision_task_MP_exp2,2020.2.5,Win32,60,m,0,0.248805,,,,,,,,0.248805,0,,,,,,331,NW,"ID",33,gilfew,GILFEW,z,,,,,,0.271296331,-0.199074095,0,0,0,,0,327,327,270,1,
,,,,,,,,,,,,,,,,,,5fa3b4abbcfd0b6c243758bc,2020-11-26_13h34.33.630,lexical_decision_task_MP_exp2,2020.2.5,Win32,60,m,0,0.36852,,,,,,,,0.36852,0,,,,,,369,NW,"ID",16,wronch,WRONCH,z,,,,,,0.271296331,-0.199074095,0,0,0,,0,328,328,308,1,
,,,,,,,,,,,,,,,,,,5fa3b4abbcfd0b6c243758bc,2020-11-26_13h34.33.630,lexical_decision_task_MP_exp2,2020.2.5,Win32,60,m,0,0.26371,,,,,,,,0.26371,0,,,,,,467,NW,UN,33,wictor,GORBIE,z,,,,,,0.271296331,-0.199074095,0,0,0,,0,329,329,406,1,
,,,,,,,,,,,,,,,,,,5fa3b4abbcfd0b6c243758bc,2020-11-26_13h34.33.630,lexical_decision_task_MP_exp2,2020.2.5,Win32,60,m,0,0.26591,,,,,,,,0.26591,0,,,,,,448,NW,UN,33,brunge,SADENT,z,,,,,,0.271296331,-0.199074095,0,0,0,,0,330,330,387,1,
,,,,,,,,,,,,,,,,,,5fa3b4abbcfd0b6c243758bc,2020-11-26_13h34.33.630,lexical_decision_task_MP_exp2,2020.2.5,Win32,60,m,1,0.274705,,,,,,,,0.274705,1,,,,,,90,WORD,"ID",33,relish,RELISH,m,,,,,,0.271296331,-0.199074095,0,0,0,,0,331,331,29,1,
,,,,,,,,,,,,,,,,,,5fa3b4abbcfd0b6c243758bc,2020-11-26_13h34.33.630,lexical_decision_task_MP_exp2,2020.2.5,Win32,60,m,0,0.275245,,,,,,,,0.275245,0,,,,,,318,NW,"ID",33,reagly,REAGLY,z,,,,,,0.271296331,-0.199074095,0,0,0,,0,332,332,257,1,
,,,,,,,,,,,,,,,,,,5fa3b4abbcfd0b6c243758bc,2020-11-26_13h34.33.630,lexical_decision_task_MP_exp2,2020.2.5,Win32,60,m,0,0.231125,,,,,,,,0.231125,0,,,,,,452,NW,UN,33,bolvis,SURDEN,z,,,,,,0.271296331,-0.199074095,0,0,0,,0,333,333,391,1,
,,,,,,,,,,,,,,,,,,5fa3b4abbcfd0b6c243758bc,2020-11-26_13h34.33.630,lexical_decision_task_MP_exp2,2020.2.5,Win32,60,m,0,0.268025,,,,,,,,0.268025,0,,,,,,243,NW,UN,16,eatric,MUSIED,z,,,,,,0.271296331,-0.199074095,0,0,0,,0,334,334,422,1,
,,,,,,,,,,,,,,,,,,5fa3b4abbcfd0b6c243758bc,2020-11-26_13h34.33.630,lexical_decision_task_MP_exp2,2020.2.5,Win32,60,m,0,0.435105,,,,,,,,0.435105,0,,,,,,386,NW,"ID",16,ancust,ANCUST,z,,,,,,0.271296331,-0.199074095,0,0,0,,0,335,335,325,1,
,,,,,,,,,,,,,,,,,,5fa3b4abbcfd0b6c243758bc,2020-11-26_13h34.33.630,lexical_decision_task_MP_exp2,2020.2.5,Win32,60,m,0,0.3478,,,,,,,,0.3478,0,,,,,,373,NW,"ID",16,bigent,BIGENT,z,,,,,,0.271296331,-0.199074095,0,0,0,,0,336,336,312,1,
,,,,,,,,,,,,,,,,,,5fa3b4abbcfd0b6c243758bc,2020-11-26_13h34.33.630,lexical_decision_task_MP_exp2,2020.2.5,Win32,60,m,0,0.698995,,,,,,,,0.698995,0,,,,,,274,NW,UN,16,sleirt,FUMBLO,z,,,,,,0.271296331,-0.199074095,0,0,0,,0,337,337,453,1,
,,,,,,,,,,,,,,,,,,5fa3b4abbcfd0b6c243758bc,2020-11-26_13h34.33.630,lexical_decision_task_MP_exp2,2020.2.5,Win32,60,m,0,0.8486,,,,,,,,0.8486,0,,,,,,460,NW,UN,33,justre,MINGAR,z,,,,,,0.271296331,-0.199074095,0,0,0,,0,338,338,399,1,
,,,,,,,,,,,,,,,,,,5fa3b4abbcfd0b6c243758bc,2020-11-26_13h34.33.630,lexical_decision_task_MP_exp2,2020.2.5,Win32,60,m,1,0.370045,,,,,,,,0.370045,1,,,,,,70,WORD,"ID",33,square,SQUARE,m,,,,,,0.271296331,-0.199074095,0,0,0,,0,339,339,9,1,
,,,,,,,,,,,,,,,,,,5fa3b4abbcfd0b6c243758bc,2020-11-26_13h34.33.630,lexical_decision_task_MP_exp2,2020.2.5,Win32,60,m,1,0.448215,,,,,,,,0.448215,1,,,,,,132,WORD,"ID",16,strong,STRONG,m,,,,,,0.271296331,-0.199074095,0,0,0,,0,340,340,71,1,
,,,,,,,,,,,,,,,,,,5fa3b4abbcfd0b6c243758bc,2020-11-26_13h34.33.630,lexical_decision_task_MP_exp2,2020.2.5,Win32,60,m,0,0.38852,,,,,,,,0.38852,0,,,,,,372,NW,"ID",16,ramily,RAMILY,z,,,,,,0.271296331,-0.199074095,0,0,0,,0,341,341,311,1,
,,,,,,,,,,,,,,,,,,5fa3b4abbcfd0b6c243758bc,2020-11-26_13h34.33.630,lexical_decision_task_MP_exp2,2020.2.5,Win32,60,m,1,0.4312,,,,,,,,0.4312,1,,,,,,34,WORD,UN,16,socket,JUNGLE,m,,,,,,0.271296331,-0.199074095,0,0,0,,0,342,342,213,1,
,,,,,,,,,,,,,,,,,,5fa3b4abbcfd0b6c243758bc,2020-11-26_13h34.33.630,lexical_decision_task_MP_exp2,2020.2.5,Win32,60,m,0,1.50115,,,,,,,,1.50115,0,,,,,,349,NW,"ID",33,asylen,ASYLEN,z,,,,,,0.271296331,-0.199074095,0,0,0,,0,343,343,288,1,
,,,,,,,,,,,,,,,,,,5fa3b4abbcfd0b6c243758bc,2020-11-26_13h34.33.630,lexical_decision_task_MP_exp2,2020.2.5,Win32,60,m,0,0.539865,,,,,,,,0.539865,0,,,,,,374,NW,"ID",16,sliant,SLIANT,z,,,,,,0.271296331,-0.199074095,0,0,0,,0,344,344,313,1,
,,,,,,,,,,,,,,,,,,5fa3b4abbcfd0b6c243758bc,2020-11-26_13h34.33.630,lexical_decision_task_MP_exp2,2020.2.5,Win32,60,m,1,0.532835,,,,,,,,0.532835,1,,,,,,205,WORD,UN,33,tailor,LOUNGE,m,,,,,,0.271296331,-0.199074095,0,0,0,,0,345,345,144,1,
,,,,,,,,,,,,,,,,,,5fa3b4abbcfd0b6c243758bc,2020-11-26_13h34.33.630,lexical_decision_task_MP_exp2,2020.2.5,Win32,60,m,1,1.015285,,,,,,,,1.015285,1,,,,,,161,WORD,"ID",16,pastor,PASTOR,m,,,,,,0.271296331,-0.199074095,0,0,0,,0,346,346,100,1,
,,,,,,,,,,,,,,,,,,5fa3b4abbcfd0b6c243758bc,2020-11-26_13h34.33.630,lexical_decision_task_MP_exp2,2020.2.5,Win32,60,m,1,0.28226,,,,,,,,0.28226,1,,,,,,39,WORD,UN,16,convey,INSECT,m,,,,,,0.271296331,-0.199074095,0,0,0,,0,347,347,218,1,
,,,,,,,,,,,,,,,,,,5fa3b4abbcfd0b6c243758bc,2020-11-26_13h34.33.630,lexical_decision_task_MP_exp2,2020.2.5,Win32,60,m,1,0.69861,,,,,,,,0.69861,1,,,,,,110,WORD,"ID",33,polite,POLITE,m,,,,,,0.271296331,-0.199074095,0,0,0,,0,348,348,49,1,
,,,,,,,,,,,,,,,,,,5fa3b4abbcfd0b6c243758bc,2020-11-26_13h34.33.630,lexical_decision_task_MP_exp2,2020.2.5,Win32,60,m,0,0.536555,,,,,,,,0.536555,0,,,,,,401,NW,"ID",16,mustil,MUSTIL,z,,,,,,0.271296331,-0.199074095,0,0,0,,0,349,349,340,1,
,,,,,,,,,,,,,,,,,,5fa3b4abbcfd0b6c243758bc,2020-11-26_13h34.33.630,lexical_decision_task_MP_exp2,2020.2.5,Win32,60,m,0,0.63228,,,,,,,,0.63228,0,,,,,,348,NW,"ID",33,dumple,DUMPLE,z,,,,,,0.271296331,-0.199074095,0,0,0,,0,350,350,287,1,
,,,,,,,,,,,,,,,,,,5fa3b4abbcfd0b6c243758bc,2020-11-26_13h34.33.630,lexical_decision_task_MP_exp2,2020.2.5,Win32,60,,0,,,,,,,,,0.63228,-1,,,,,,187,WORD,UN,33,social,COURSE,m,,,,,,0.271296331,-0.199074095,0,0,0,,0,351,351,126,1,
,,,,,,,,,,,,,,,,,,5fa3b4abbcfd0b6c243758bc,2020-11-26_13h34.33.630,lexical_decision_task_MP_exp2,2020.2.5,Win32,60,m,1,0.34893,,,,,,,,0.34893,1,,,,,,196,WORD,UN,33,stream,CREDIT,m,,,,,,0.271296331,-0.199074095,0,0,0,,0,352,352,135,1,
,,,,,,,,,,,,,,,,,,5fa3b4abbcfd0b6c243758bc,2020-11-26_13h34.33.630,lexical_decision_task_MP_exp2,2020.2.5,Win32,60,m,1,0.448955,,,,,,,,0.448955,1,,,,,,2,WORD,UN,16,knight,BRIDGE,m,,,,,,0.271296331,-0.199074095,0,0,0,,0,353,353,181,1,
,,,,,,,,,,,,,,,,,,5fa3b4abbcfd0b6c243758bc,2020-11-26_13h34.33.630,lexical_decision_task_MP_exp2,2020.2.5,Win32,60,m,0,0.305475,,,,,,,,0.305475,0,,,,,,422,NW,UN,33,streld,ALCOUD,z,,,,,,0.271296331,-0.199074095,0,0,0,,0,354,354,361,1,
,,,,,,,,,,,,,,,,,,5fa3b4abbcfd0b6c243758bc,2020-11-26_13h34.33.630,lexical_decision_task_MP_exp2,2020.2.5,Win32,60,m,1,0.623135,,,,,,,,0.623135,1,,,,,,148,WORD,"ID",16,custom,CUSTOM,m,,,,,,0.271296331,-0.199074095,0,0,0,,0,355,355,87,1,
,,,,,,,,,,,,,,,,,,5fa3b4abbcfd0b6c243758bc,2020-11-26_13h34.33.630,lexical_decision_task_MP_exp2,2020.2.5,Win32,60,,0,,,,,,,,,0.623135,-1,,,,,,189,WORD,UN,33,backup,CENSOR,m,,,,,,0.271296331,-0.199074095,0,0,0,,0,356,356,128,1,
,,,,,,,,,,,,,,,,,,5fa3b4abbcfd0b6c243758bc,2020-11-26_13h34.33.630,lexical_decision_task_MP_exp2,2020.2.5,Win32,60,m,1,1.04824,,,,,,,,1.04824,1,,,,,,85,WORD,"ID",33,sprawl,SPRAWL,m,,,,,,0.271296331,-0.199074095,0,0,0,,0,357,357,24,1,
,,,,,,,,,,,,,,,,,,5fa3b4abbcfd0b6c243758bc,2020-11-26_13h34.33.630,lexical_decision_task_MP_exp2,2020.2.5,Win32,60,m,1,0.74778,,,,,,,,0.74778,1,,,,,,180,WORD,"ID",16,silent,SILENT,m,,,,,,0.271296331,-0.199074095,0,0,0,,0,358,358,119,1,
,,,,,,,,,,,,,,,,,,5fa3b4abbcfd0b6c243758bc,2020-11-26_13h34.33.630,lexical_decision_task_MP_exp2,2020.2.5,Win32,60,m,1,0.515695,,,,,,,,0.515695,1,,,,,,153,WORD,"ID",16,behold,BEHOLD,m,,,,,,0.271296331,-0.199074095,0,0,0,,0,359,359,92,1,
,,,,,,,,,,,,,,,,,,5fa3b4abbcfd0b6c243758bc,2020-11-26_13h34.33.630,lexical_decision_task_MP_exp2,2020.2.5,Win32,60,m,1,0.8746,,,,,,,,0.8746,1,,,,,,53,WORD,UN,16,ramble,POLICE,m,,,,,,0.271296331,-0.199074095,0,0,0,,0,360,360,232,1,
,,,,,,,,,,,,,,,,,,5fa3b4abbcfd0b6c243758bc,2020-11-26_13h34.33.630,lexical_decision_task_MP_exp2,2020.2.5,Win32,60,,0,,,,,,,,,0.8746,-1,,,,,,388,NW,"ID",16,cragin,CRAGIN,z,,,,,,0.271296331,-0.199074095,0,0,0,,0,361,361,327,1,
,,,,,,,,,,,,,,,,,,5fa3b4abbcfd0b6c243758bc,2020-11-26_13h34.33.630,lexical_decision_task_MP_exp2,2020.2.5,Win32,60,,0,,,,,,,,,0.8746,-1,,,,,,254,NW,UN,16,apight,VAROSH,z,,,,,,0.271296331,-0.199074095,0,0,0,space,0,362,362,433,1,36.79127
,,,,,,,,,,,,,,,,,,5fa3b4abbcfd0b6c243758bc,2020-11-26_13h34.33.630,lexical_decision_task_MP_exp2,2020.2.5,Win32,60,m,1,0.298605,,,,,,,,0.298605,1,,,,,,64,WORD,"ID",33,throne,THRONE,m,,,,,,0.271296331,-0.199074095,0,0,0,,0,363,363,3,1,
,,,,,,,,,,,,,,,,,,5fa3b4abbcfd0b6c243758bc,2020-11-26_13h34.33.630,lexical_decision_task_MP_exp2,2020.2.5,Win32,60,m,0,0.31499,,,,,,,,0.31499,0,,,,,,411,NW,"ID",16,orchin,ORCHIN,z,,,,,,0.271296331,-0.199074095,0,0,0,,0,364,364,350,1,
,,,,,,,,,,,,,,,,,,5fa3b4abbcfd0b6c243758bc,2020-11-26_13h34.33.630,lexical_decision_task_MP_exp2,2020.2.5,Win32,60,m,0,0.38199,,,,,,,,0.38199,0,,,,,,367,NW,"ID",16,slique,SLIQUE,z,,,,,,0.271296331,-0.199074095,0,0,0,,0,365,365,306,1,
,,,,,,,,,,,,,,,,,,5fa3b4abbcfd0b6c243758bc,2020-11-26_13h34.33.630,lexical_decision_task_MP_exp2,2020.2.5,Win32,60,m,0,0.334805,,,,,,,,0.334805,0,,,,,,428,NW,UN,33,funtle,TANDLY,z,,,,,,0.271296331,-0.199074095,0,0,0,,0,366,366,367,1,
,,,,,,,,,,,,,,,,,,5fa3b4abbcfd0b6c243758bc,2020-11-26_13h34.33.630,lexical_decision_task_MP_exp2,2020.2.5,Win32,60,m,0,0.349755,,,,,,,,0.349755,0,,,,,,255,NW,UN,16,inlors,APIGHT,z,,,,,,0.271296331,-0.199074095,0,0,0,,0,367,367,434,1,
,,,,,,,,,,,,,,,,,,5fa3b4abbcfd0b6c243758bc,2020-11-26_13h34.33.630,lexical_decision_task_MP_exp2,2020.2.5,Win32,60,m,1,0.28281,,,,,,,,0.28281,1,,,,,,191,WORD,UN,33,beacon,STABLE,m,,,,,,0.271296331,-0.199074095,0,0,0,,0,368,368,130,1,
,,,,,,,,,,,,,,,,,,5fa3b4abbcfd0b6c243758bc,2020-11-26_13h34.33.630,lexical_decision_task_MP_exp2,2020.2.5,Win32,60,m,1,0.220615,,,,,,,,0.220615,1,,,,,,47,WORD,UN,16,walnut,INCOME,m,,,,,,0.271296331,-0.199074095,0,0,0,,0,369,369,226,1,
,,,,,,,,,,,,,,,,,,5fa3b4abbcfd0b6c243758bc,2020-11-26_13h34.33.630,lexical_decision_task_MP_exp2,2020.2.5,Win32,60,m,0,0.32102,,,,,,,,0.32102,0,,,,,,315,NW,"ID",33,laston,LASTON,z,,,,,,0.271296331,-0.199074095,0,0,0,,0,370,370,254,1,
,,,,,,,,,,,,,,,,,,5fa3b4abbcfd0b6c243758bc,2020-11-26_13h34.33.630,lexical_decision_task_MP_exp2,2020.2.5,Win32,60,m,0,0.332405,,,,,,,,0.332405,0,,,,,,389,NW,"ID",16,witmer,WITMER,z,,,,,,0.271296331,-0.199074095,0,0,0,,0,371,371,328,1,
,,,,,,,,,,,,,,,,,,5fa3b4abbcfd0b6c243758bc,2020-11-26_13h34.33.630,lexical_decision_task_MP_exp2,2020.2.5,Win32,60,m,1,0.33271,,,,,,,,0.33271,1,,,,,,192,WORD,UN,33,object,PLAGUE,m,,,,,,0.271296331,-0.199074095,0,0,0,,0,372,372,131,1,
,,,,,,,,,,,,,,,,,,5fa3b4abbcfd0b6c243758bc,2020-11-26_13h34.33.630,lexical_decision_task_MP_exp2,2020.2.5,Win32,60,m,0,0.369465,,,,,,,,0.369465,0,,,,,,407,NW,"ID",16,suiver,SUIVER,z,,,,,,0.271296331,-0.199074095,0,0,0,,0,373,373,346,1,
,,,,,,,,,,,,,,,,,,5fa3b4abbcfd0b6c243758bc,2020-11-26_13h34.33.630,lexical_decision_task_MP_exp2,2020.2.5,Win32,60,m,0,0.309415,,,,,,,,0.309415,0,,,,,,424,NW,UN,33,frudge,PRAILE,z,,,,,,0.271296331,-0.199074095,0,0,0,,0,374,374,363,1,
,,,,,,,,,,,,,,,,,,5fa3b4abbcfd0b6c243758bc,2020-11-26_13h34.33.630,lexical_decision_task_MP_exp2,2020.2.5,Win32,60,m,0,0.46612,,,,,,,,0.46612,0,,,,,,260,NW,UN,16,stunch,UNJECT,z,,,,,,0.271296331,-0.199074095,0,0,0,,0,375,375,439,1,
,,,,,,,,,,,,,,,,,,5fa3b4abbcfd0b6c243758bc,2020-11-26_13h34.33.630,lexical_decision_task_MP_exp2,2020.2.5,Win32,60,m,0,0.45375,,,,,,,,0.45375,0,,,,,,451,NW,UN,33,surden,CAINKY,z,,,,,,0.271296331,-0.199074095,0,0,0,,0,376,376,390,1,
,,,,,,,,,,,,,,,,,,5fa3b4abbcfd0b6c243758bc,2020-11-26_13h34.33.630,lexical_decision_task_MP_exp2,2020.2.5,Win32,60,m,1,0.27646,,,,,,,,0.27646,1,,,,,,105,WORD,"ID",33,number,NUMBER,m,,,,,,0.271296331,-0.199074095,0,0,0,,0,377,377,44,1,
,,,,,,,,,,,,,,,,,,5fa3b4abbcfd0b6c243758bc,2020-11-26_13h34.33.630,lexical_decision_task_MP_exp2,2020.2.5,Win32,60,m,0,0.30963,,,,,,,,0.30963,0,,,,,,425,NW,UN,33,urivel,FRUDGE,z,,,,,,0.271296331,-0.199074095,0,0,0,,0,378,378,364,1,
,,,,,,,,,,,,,,,,,,5fa3b4abbcfd0b6c243758bc,2020-11-26_13h34.33.630,lexical_decision_task_MP_exp2,2020.2.5,Win32,60,m,0,0.36523,,,,,,,,0.36523,0,,,,,,381,NW,"ID",16,huniek,HUNIEK,z,,,,,,0.271296331,-0.199074095,0,0,0,,0,379,379,320,1,
,,,,,,,,,,,,,,,,,,5fa3b4abbcfd0b6c243758bc,2020-11-26_13h34.33.630,lexical_decision_task_MP_exp2,2020.2.5,Win32,60,m,1,0.398425,,,,,,,,0.398425,1,,,,,,31,WORD,UN,16,buckle,WEAPON,m,,,,,,0.271296331,-0.199074095,0,0,0,,0,380,380,210,1,
,,,,,,,,,,,,,,,,,,5fa3b4abbcfd0b6c243758bc,2020-11-26_13h34.33.630,lexical_decision_task_MP_exp2,2020.2.5,Win32,60,m,0,0.32271,,,,,,,,0.32271,0,,,,,,287,NW,UN,16,yaceup,NYMBEL,z,,,,,,0.271296331,-0.199074095,0,0,0,,0,381,381,466,1,
,,,,,,,,,,,,,,,,,,5fa3b4abbcfd0b6c243758bc,2020-11-26_13h34.33.630,lexical_decision_task_MP_exp2,2020.2.5,Win32,60,m,1,0.3881,,,,,,,,0.3881,1,,,,,,152,WORD,"ID",16,rocket,ROCKET,m,,,,,,0.271296331,-0.199074095,0,0,0,,0,382,382,91,1,
,,,,,,,,,,,,,,,,,,5fa3b4abbcfd0b6c243758bc,2020-11-26_13h34.33.630,lexical_decision_task_MP_exp2,2020.2.5,Win32,60,m,1,0.371125,,,,,,,,0.371125,1,,,,,,40,WORD,UN,16,spring,CONVEY,m,,,,,,0.271296331,-0.199074095,0,0,0,,0,383,383,219,1,
,,,,,,,,,,,,,,,,,,5fa3b4abbcfd0b6c243758bc,2020-11-26_13h34.33.630,lexical_decision_task_MP_exp2,2020.2.5,Win32,60,m,0,0.42222,,,,,,,,0.42222,0,,,,,,380,NW,"ID",16,cavory,CAVORY,z,,,,,,0.271296331,-0.199074095,0,0,0,,0,384,384,319,1,
,,,,,,,,,,,,,,,,,,5fa3b4abbcfd0b6c243758bc,2020-11-26_13h34.33.630,lexical_decision_task_MP_exp2,2020.2.5,Win32,60,m,1,0.473135,,,,,,,,0.473135,1,,,,,,15,WORD,UN,16,faucet,AMOUNT,m,,,,,,0.271296331,-0.199074095,0,0,0,,0,385,385,194,1,
,,,,,,,,,,,,,,,,,,5fa3b4abbcfd0b6c243758bc,2020-11-26_13h34.33.630,lexical_decision_task_MP_exp2,2020.2.5,Win32,60,m,0,0.432005,,,,,,,,0.432005,0,,,,,,459,NW,UN,33,mingar,BAFENT,z,,,,,,0.271296331,-0.199074095,0,0,0,,0,386,386,398,1,
,,,,,,,,,,,,,,,,,,5fa3b4abbcfd0b6c243758bc,2020-11-26_13h34.33.630,lexical_decision_task_MP_exp2,2020.2.5,Win32,60,m,1,0.43378,,,,,,,,0.43378,1,,,,,,16,WORD,UN,16,charge,FAUCET,m,,,,,,0.271296331,-0.199074095,0,0,0,,0,387,387,195,1,
,,,,,,,,,,,,,,,,,,5fa3b4abbcfd0b6c243758bc,2020-11-26_13h34.33.630,lexical_decision_task_MP_exp2,2020.2.5,Win32,60,m,1,0.319875,,,,,,,,0.319875,1,,,,,,8,WORD,UN,16,hustle,ABRUPT,m,,,,,,0.271296331,-0.199074095,0,0,0,,0,388,388,187,1,
,,,,,,,,,,,,,,,,,,5fa3b4abbcfd0b6c243758bc,2020-11-26_13h34.33.630,lexical_decision_task_MP_exp2,2020.2.5,Win32,60,m,1,0.46621,,,,,,,,0.46621,1,,,,,,219,WORD,UN,33,voyage,BUCKET,m,,,,,,0.271296331,-0.199074095,0,0,0,,0,389,389,158,1,
,,,,,,,,,,,,,,,,,,5fa3b4abbcfd0b6c243758bc,2020-11-26_13h34.33.630,lexical_decision_task_MP_exp2,2020.2.5,Win32,60,m,0,0.468,,,,,,,,0.468,0,,,,,,279,NW,UN,16,curbol,CELOND,z,,,,,,0.271296331,-0.199074095,0,0,0,,0,390,390,458,1,
,,,,,,,,,,,,,,,,,,5fa3b4abbcfd0b6c243758bc,2020-11-26_13h34.33.630,lexical_decision_task_MP_exp2,2020.2.5,Win32,60,m,1,0.46569,,,,,,,,0.46569,1,,,,,,184,WORD,UN,33,bother,SLEAZY,m,,,,,,0.271296331,-0.199074095,0,0,0,,0,391,391,123,1,
,,,,,,,,,,,,,,,,,,5fa3b4abbcfd0b6c243758bc,2020-11-26_13h34.33.630,lexical_decision_task_MP_exp2,2020.2.5,Win32,60,m,0,0.466555,,,,,,,,0.466555,0,,,,,,344,NW,"ID",33,scrily,SCRILY,z,,,,,,0.271296331,-0.199074095,0,0,0,,0,392,392,283,1,
,,,,,,,,,,,,,,,,,,5fa3b4abbcfd0b6c243758bc,2020-11-26_13h34.33.630,lexical_decision_task_MP_exp2,2020.2.5,Win32,60,m,0,0.40007,,,,,,,,0.40007,0,,,,,,285,NW,UN,16,reldon,PRUDGE,z,,,,,,0.271296331,-0.199074095,0,0,0,,0,393,393,464,1,
,,,,,,,,,,,,,,,,,,5fa3b4abbcfd0b6c243758bc,2020-11-26_13h34.33.630,lexical_decision_task_MP_exp2,2020.2.5,Win32,60,m,0,0.418135,,,,,,,,0.418135,0,,,,,,462,NW,UN,33,kispel,ABSULT,z,,,,,,0.271296331,-0.199074095,0,0,0,,0,394,394,401,1,
,,,,,,,,,,,,,,,,,,5fa3b4abbcfd0b6c243758bc,2020-11-26_13h34.33.630,lexical_decision_task_MP_exp2,2020.2.5,Win32,60,m,0,0.52283,,,,,,,,0.52283,0,,,,,,442,NW,UN,33,dorsex,ABOUNE,z,,,,,,0.271296331,-0.199074095,0,0,0,,0,395,395,381,1,
