counterbalancing_condition,instr_done_keyboard.keys,instr_done_touch.x,instr_done_touch.y,instr_done_touch.leftButton,instr_done_touch.midButton,instr_done_touch.rightButton,instr_done_touch.clicked_name,instruction_pages.thisRepN,instruction_pages.thisTrialN,instruction_pages.thisN,instruction_pages.thisIndex,instruction_pages.ran,pageN,phase,instruct_text,has_image,instruct_image,participant,date,expName,psychopyVersion,OS,frameRate,response.keys,response.corr,touch_resp.x,touch_resp.y,touch_resp.leftButton,touch_resp.midButton,touch_resp.rightButton,touch_resp.time,touch_resp.clicked_name,rt,corr,practice_trials.thisRepN,practice_trials.thisTrialN,practice_trials.thisN,practice_trials.thisIndex,practice_trials.ran,TrialID,StimulusType,Condition,PrimeDuration,Prime,Target,corrAns,end_of_practice_trials_pages.thisRepN,end_of_practice_trials_pages.thisTrialN,end_of_practice_trials_pages.thisN,end_of_practice_trials_pages.thisIndex,end_of_practice_trials_pages.ran,break_done_touch.x,break_done_touch.y,break_done_touch.leftButton,break_done_touch.midButton,break_done_touch.rightButton,break_done_keyboard.keys,experiment_trials.thisRepN,experiment_trials.thisTrialN,experiment_trials.thisN,experiment_trials.thisIndex,experiment_trials.ran,break_done_touch.clicked_name
1,,0.027314843,-0.398148176,1,0,0,instr_done_button,0,0,0,0,1,1,instructions,"INSTRUCTIONS
At the start of each trial, look at the hash marks (######) in the center of the screen. After a moment, a string of letters will appear. Your task is to indicate if the letter string forms a word or not (i.e., if it is a nonword). For example, AUTHOR is a word while AUTHON is a nonword.

Press the space bar or touch the button below to continue.",0,,5fb3814f2ed467ac73fe19fd,2020-11-27_16h06.10.045,lexical_decision_task_MP_exp2,2020.2.5,Linux armv8l,60,,,,,,,,,,,,,,,,,,,,,,,,,,,,,,,,,,,,,,,,
,,0.086574131,-0.423148176,1,0,0,instr_done_button,0,1,1,1,1,2,instructions,"If your device has a keyboard, press the 'Z' key for nonwords and the 'M' key for words.





Press the space bar or touch the button below to continue.",1,keyboard-example.gif,5fb3814f2ed467ac73fe19fd,2020-11-27_16h06.10.045,lexical_decision_task_MP_exp2,2020.2.5,Linux armv8l,60,,,,,,,,,,,,,,,,,,,,,,,,,,,,,,,,,,,,,,,,
,,0.092129686,-0.402777778,1,0,0,instr_done_button,0,2,2,2,1,3,instructions,"If you are using a touchscreen only device, use the buttons on the screen. Do not use the mouse.





Press the space bar or touch the button below to continue.",1,touchscreen-example.gif,5fb3814f2ed467ac73fe19fd,2020-11-27_16h06.10.045,lexical_decision_task_MP_exp2,2020.2.5,Linux armv8l,60,,,,,,,,,,,,,,,,,,,,,,,,,,,,,,,,,,,,,,,,
,,0.086574131,-0.423148176,1,0,0,instr_done_button,0,3,3,3,1,4,instructions,"It is very important that you respond as quickly and accurately as possible, as each letter string will only be on the screen for two seconds. If you do not respond within this time, the message 'Too slow!' will be displayed and the experiment will progress to the next letter string. The first 20 trials will be practice trials and you will receive feedback on your answers. 

Press the space bar or touch the button below to start the practice trials.",0,,5fb3814f2ed467ac73fe19fd,2020-11-27_16h06.10.045,lexical_decision_task_MP_exp2,2020.2.5,Linux armv8l,60,,,,,,,,,,,,,,,,,,,,,,,,,,,,,,,,,,,,,,,,
,,,,,,,,,,,,,,,,,,5fb3814f2ed467ac73fe19fd,2020-11-27_16h06.10.045,lexical_decision_task_MP_exp2,2020.2.5,Linux armv8l,60,,0,-0.41620369,-0.276851908,1,0,0,1.8873,button_left,1.8873,1,0,0,0,10,1,1011,NW,"ID",16,inlade,INLADE,z,,,,,,,,,,,,,,,,,
,,,,,,,,,,,,,,,,,,5fb3814f2ed467ac73fe19fd,2020-11-27_16h06.10.045,lexical_decision_task_MP_exp2,2020.2.5,Linux armv8l,60,,0,0.428240797,-0.304629686,1,0,0,1.2171,button_right,1.2171,1,0,1,1,3,1,1004,WORD,"ID",16,matrix,MATRIX,m,,,,,,,,,,,,,,,,,
,,,,,,,,,,,,,,,,,,5fb3814f2ed467ac73fe19fd,2020-11-27_16h06.10.045,lexical_decision_task_MP_exp2,2020.2.5,Linux armv8l,60,,0,0.4125,-0.296296353,1,0,0,1.0861,button_right,1.0861,1,0,2,2,6,1,1007,WORD,UN,16,tropic,ZOMBIE,m,,,,,,,,,,,,,,,,,
,,,,,,,,,,,,,,,,,,5fb3814f2ed467ac73fe19fd,2020-11-27_16h06.10.045,lexical_decision_task_MP_exp2,2020.2.5,Linux armv8l,60,,0,-0.406944444,-0.277777778,1,0,0,1.3094,button_left,1.3094,1,0,3,3,8,1,1009,NW,"ID",33,aslert,ASLERT,z,,,,,,,,,,,,,,,,,
,,,,,,,,,,,,,,,,,,5fb3814f2ed467ac73fe19fd,2020-11-27_16h06.10.045,lexical_decision_task_MP_exp2,2020.2.5,Linux armv8l,60,,0,0.430092621,-0.305555556,1,0,0,0.8497,button_right,0.8497,1,0,4,4,5,1,1006,WORD,UN,33,frenzy,OBTAIN,m,,,,,,,,,,,,,,,,,
,,,,,,,,,,,,,,,,,,5fb3814f2ed467ac73fe19fd,2020-11-27_16h06.10.045,lexical_decision_task_MP_exp2,2020.2.5,Linux armv8l,60,,0,-0.400462935,-0.291666667,1,0,0,1.4992,button_left,1.4992,1,0,5,5,11,1,1012,NW,"ID",16,rashet,RASHET,z,,,,,,,,,,,,,,,,,
,,,,,,,,,,,,,,,,,,5fb3814f2ed467ac73fe19fd,2020-11-27_16h06.10.045,lexical_decision_task_MP_exp2,2020.2.5,Linux armv8l,60,,0,0.438425954,-0.302777778,1,0,0,1.0656,button_right,1.0656,1,0,6,6,1,1,1002,WORD,"ID",33,adjust,ADJUST,m,,,,,,,,,,,,,,,,,
,,,,,,,,,,,,,,,,,,5fb3814f2ed467ac73fe19fd,2020-11-27_16h06.10.045,lexical_decision_task_MP_exp2,2020.2.5,Linux armv8l,60,,0,-0.401388889,-0.263888889,1,0,0,1.5214,button_left,1.5214,1,0,7,7,14,1,1015,NW,UN,16,miaber,THRALE,z,,,,,,,,,,,,,,,,,
,,,,,,,,,,,,,,,,,,5fb3814f2ed467ac73fe19fd,2020-11-27_16h06.10.045,lexical_decision_task_MP_exp2,2020.2.5,Linux armv8l,60,,0,0.399537065,-0.278703732,1,0,0,1.7786,button_right,1.7786,1,0,8,8,0,1,1001,WORD,"ID",33,utopia,UTOPIA,m,,,,,,,,,,,,,,,,,
,,,,,,,,,,,,,,,,,,5fb3814f2ed467ac73fe19fd,2020-11-27_16h06.10.045,lexical_decision_task_MP_exp2,2020.2.5,Linux armv8l,60,,0,0.439351908,-0.307407464,1,0,0,0.996,button_right,0.996,1,0,9,9,4,1,1005,WORD,UN,33,abound,SQUEAK,m,,,,,,,,,,,,,,,,,
,,,,,,,,,,,,,,,,,,5fb3814f2ed467ac73fe19fd,2020-11-27_16h06.10.045,lexical_decision_task_MP_exp2,2020.2.5,Linux armv8l,60,,0,-0.401388889,-0.289814843,1,0,0,0.9622,button_left,0.9622,1,0,10,10,9,1,1010,NW,"ID",33,fariny,FARINY,z,,,,,,,,,,,,,,,,,
,,,,,,,,,,,,,,,,,,5fb3814f2ed467ac73fe19fd,2020-11-27_16h06.10.045,lexical_decision_task_MP_exp2,2020.2.5,Linux armv8l,60,,0,-0.425462935,-0.290740797,1,0,0,1.2755,button_left,1.2755,1,0,11,11,15,1,1016,NW,UN,16,mushed,WHAISE,z,,,,,,,,,,,,,,,,,
,,,,,,,,,,,,,,,,,,5fb3814f2ed467ac73fe19fd,2020-11-27_16h06.10.045,lexical_decision_task_MP_exp2,2020.2.5,Linux armv8l,60,,0,0.430092621,-0.295370399,1,0,0,1.0763,button_right,1.0763,1,0,12,12,2,1,1003,WORD,"ID",16,almond,ALMOND,m,,,,,,,,,,,,,,,,,
,,,,,,,,,,,,,,,,,,5fb3814f2ed467ac73fe19fd,2020-11-27_16h06.10.045,lexical_decision_task_MP_exp2,2020.2.5,Linux armv8l,60,,0,-0.408796268,-0.285185242,1,0,0,1.5632,button_left,1.5632,1,0,13,13,13,1,1014,NW,UN,33,winfer,ROUPET,z,,,,,,,,,,,,,,,,,
,,,,,,,,,,,,,,,,,,5fb3814f2ed467ac73fe19fd,2020-11-27_16h06.10.045,lexical_decision_task_MP_exp2,2020.2.5,Linux armv8l,60,,0,-0.418055556,-0.278703732,1,0,0,1.2908,button_left,1.2908,1,0,14,14,12,1,1013,NW,UN,33,adveil,SPRINY,z,,,,,,,,,,,,,,,,,
,,,,,,,,,,,,,,,,,,5fb3814f2ed467ac73fe19fd,2020-11-27_16h06.10.045,lexical_decision_task_MP_exp2,2020.2.5,Linux armv8l,60,,0,0.421759288,-0.287037065,1,0,0,0.9272,button_right,0.9272,1,0,15,15,7,1,1008,WORD,UN,16,hurdle,VOLUME,m,,,,,,,,,,,,,,,,,
,,0.060648176,-0.428703732,1,0,0,instr_done_button,,,,,,1,end_of_practice,"You have completed the practice trials. During the experimental trials, you will not receive feedback, but it is very important that you respond as quickly and accurately as possible. 
Before you begin, please ensure that you are in a comfortable and quiet location and will not be disturbed for about 15 minutes, as we cannot use your data if you do not complete all the trials. 
There will be opportunities to take breaks at regular intervals during the experiment. When you are ready to start the experimental trials, please press space or touch the button below.",,,5fb3814f2ed467ac73fe19fd,2020-11-27_16h06.10.045,lexical_decision_task_MP_exp2,2020.2.5,Linux armv8l,60,,,,,,,,,,,,,,,,,,,,,,,,0,0,0,0,1,,,,,,,,,,,,
,,,,,,,,,,,,,,,,,,5fb3814f2ed467ac73fe19fd,2020-11-27_16h06.10.045,lexical_decision_task_MP_exp2,2020.2.5,Linux armv8l,60,,0,-0.374537023,-0.285185242,1,0,0,1.0408,button_left,1.0408,1,,,,,,393,NW,UN,33,spaqux,GANOUS,z,,,,,,-0.374537023,-0.285185242,1,0,0,,0,0,0,392,1,
,,,,,,,,,,,,,,,,,,5fb3814f2ed467ac73fe19fd,2020-11-27_16h06.10.045,lexical_decision_task_MP_exp2,2020.2.5,Linux armv8l,60,,0,-0.403240712,-0.273148176,1,0,0,1.4571,button_left,1.4571,1,,,,,,374,NW,UN,33,yorque,SLIANT,z,,,,,,-0.403240712,-0.273148176,1,0,0,,0,1,1,373,1,
,,,,,,,,,,,,,,,,,,5fb3814f2ed467ac73fe19fd,2020-11-27_16h06.10.045,lexical_decision_task_MP_exp2,2020.2.5,Linux armv8l,60,,0,-0.423611111,-0.287037065,1,0,0,0.7795,button_left,0.7795,1,,,,,,412,NW,UN,33,equats,JILUER,z,,,,,,-0.423611111,-0.287037065,1,0,0,,0,2,2,411,1,
,,,,,,,,,,,,,,,,,,5fb3814f2ed467ac73fe19fd,2020-11-27_16h06.10.045,lexical_decision_task_MP_exp2,2020.2.5,Linux armv8l,60,,0,0.425463019,-0.289814843,1,0,0,0.7648,button_right,0.7648,1,,,,,,53,WORD,"ID",33,police,POLICE,m,,,,,,0.425463019,-0.289814843,1,0,0,,0,3,3,52,1,
,,,,,,,,,,,,,,,,,,5fb3814f2ed467ac73fe19fd,2020-11-27_16h06.10.045,lexical_decision_task_MP_exp2,2020.2.5,Linux armv8l,60,,0,-0.433796268,-0.289814843,1,0,0,0.9083,button_left,0.9083,1,,,,,,472,NW,UN,16,crible,CIGNEY,z,,,,,,-0.433796268,-0.289814843,1,0,0,,0,4,4,471,1,
,,,,,,,,,,,,,,,,,,5fb3814f2ed467ac73fe19fd,2020-11-27_16h06.10.045,lexical_decision_task_MP_exp2,2020.2.5,Linux armv8l,60,,0,0.44398151,-0.293518575,1,0,0,0.8758,button_right,0.8758,1,,,,,,24,WORD,"ID",33,praise,PRAISE,m,,,,,,0.44398151,-0.293518575,1,0,0,,0,5,5,23,1,
,,,,,,,,,,,,,,,,,,5fb3814f2ed467ac73fe19fd,2020-11-27_16h06.10.045,lexical_decision_task_MP_exp2,2020.2.5,Linux armv8l,60,,0,0.443055556,-0.293518575,1,0,0,1.0935,button_right,1.0935,1,,,,,,211,WORD,UN,16,verify,INFECT,m,,,,,,0.443055556,-0.293518575,1,0,0,,0,6,6,210,1,
,,,,,,,,,,,,,,,,,,5fb3814f2ed467ac73fe19fd,2020-11-27_16h06.10.045,lexical_decision_task_MP_exp2,2020.2.5,Linux armv8l,60,,0,0.432870399,-0.288888889,1,0,0,0.8403,button_right,0.8403,1,,,,,,96,WORD,"ID",16,ignore,IGNORE,m,,,,,,0.432870399,-0.288888889,1,0,0,,0,7,7,95,1,
,,,,,,,,,,,,,,,,,,5fb3814f2ed467ac73fe19fd,2020-11-27_16h06.10.045,lexical_decision_task_MP_exp2,2020.2.5,Linux armv8l,60,,0,0.456944444,-0.287963019,1,0,0,0.7369,button_right,0.7369,1,,,,,,110,WORD,"ID",16,polite,POLITE,m,,,,,,0.456944444,-0.287963019,1,0,0,,0,8,8,109,1,
,,,,,,,,,,,,,,,,,,5fb3814f2ed467ac73fe19fd,2020-11-27_16h06.10.045,lexical_decision_task_MP_exp2,2020.2.5,Linux armv8l,60,,0,-0.418981467,-0.294444444,1,0,0,0.861,button_left,0.861,1,,,,,,325,NW,"ID",16,thruse,THRUSE,z,,,,,,-0.418981467,-0.294444444,1,0,0,,0,9,9,324,1,
,,,,,,,,,,,,,,,,,,5fb3814f2ed467ac73fe19fd,2020-11-27_16h06.10.045,lexical_decision_task_MP_exp2,2020.2.5,Linux armv8l,60,,0,0.459722222,-0.304629686,1,0,0,0.7776,button_right,0.7776,1,,,,,,84,WORD,"ID",16,mortal,MORTAL,m,,,,,,0.459722222,-0.304629686,1,0,0,,0,10,10,83,1,
,,,,,,,,,,,,,,,,,,5fb3814f2ed467ac73fe19fd,2020-11-27_16h06.10.045,lexical_decision_task_MP_exp2,2020.2.5,Linux armv8l,60,,0,0.457870483,-0.282407464,1,0,0,1.1492,button_right,1.1492,1,,,,,,144,WORD,UN,33,parish,SPONGE,m,,,,,,0.457870483,-0.282407464,1,0,0,,0,11,11,143,1,
,,,,,,,,,,,,,,,,,,5fb3814f2ed467ac73fe19fd,2020-11-27_16h06.10.045,lexical_decision_task_MP_exp2,2020.2.5,Linux armv8l,60,,0,0.457870483,-0.282407464,1,0,0,0.774,button_right,0.774,1,,,,,,55,WORD,"ID",33,stroke,STROKE,m,,,,,,0.457870483,-0.282407464,1,0,0,,0,12,12,54,1,
,,,,,,,,,,,,,,,,,,5fb3814f2ed467ac73fe19fd,2020-11-27_16h06.10.045,lexical_decision_task_MP_exp2,2020.2.5,Linux armv8l,60,,0,-0.425462935,-0.280555556,1,0,0,0.8477,button_left,0.8477,1,,,,,,449,NW,UN,16,phrect,BRUNGE,z,,,,,,-0.425462935,-0.280555556,1,0,0,,0,13,13,448,1,
,,,,,,,,,,,,,,,,,,5fb3814f2ed467ac73fe19fd,2020-11-27_16h06.10.045,lexical_decision_task_MP_exp2,2020.2.5,Linux armv8l,60,,0,0.465277778,-0.3,1,0,0,0.8704,button_right,0.8704,1,,,,,,207,WORD,UN,16,hockey,WREATH,m,,,,,,0.465277778,-0.3,1,0,0,,0,14,14,206,1,
,,,,,,,,,,,,,,,,,,5fb3814f2ed467ac73fe19fd,2020-11-27_16h06.10.045,lexical_decision_task_MP_exp2,2020.2.5,Linux armv8l,60,,0,-0.425462935,-0.274074131,1,0,0,0.7248,button_left,0.7248,1,,,,,,301,NW,"ID",16,fainch,FAINCH,z,,,,,,-0.425462935,-0.274074131,1,0,0,,0,15,15,300,1,
,,,,,,,,,,,,,,,,,,5fb3814f2ed467ac73fe19fd,2020-11-27_16h06.10.045,lexical_decision_task_MP_exp2,2020.2.5,Linux armv8l,60,,0,-0.418981467,-0.265740797,1,0,0,0.7748,button_left,0.7748,1,,,,,,258,NW,"ID",33,poluth,POLUTH,z,,,,,,-0.418981467,-0.265740797,1,0,0,,0,16,16,257,1,
,,,,,,,,,,,,,,,,,,5fb3814f2ed467ac73fe19fd,2020-11-27_16h06.10.045,lexical_decision_task_MP_exp2,2020.2.5,Linux armv8l,60,,0,0.456018575,-0.299074131,1,0,0,0.7789,button_right,0.7789,1,,,,,,70,WORD,"ID",16,square,SQUARE,m,,,,,,0.456018575,-0.299074131,1,0,0,,0,17,17,69,1,
,,,,,,,,,,,,,,,,,,5fb3814f2ed467ac73fe19fd,2020-11-27_16h06.10.045,lexical_decision_task_MP_exp2,2020.2.5,Linux armv8l,60,,0,0.444907464,-0.288888889,1,0,0,1.0097,button_right,1.0097,1,,,,,,44,WORD,"ID",33,danger,DANGER,m,,,,,,0.444907464,-0.288888889,1,0,0,,0,18,18,43,1,
,,,,,,,,,,,,,,,,,,5fb3814f2ed467ac73fe19fd,2020-11-27_16h06.10.045,lexical_decision_task_MP_exp2,2020.2.5,Linux armv8l,60,,0,0.465277778,-0.296296353,1,0,0,1.2002,button_right,1.2002,1,,,,,,126,WORD,UN,33,castle,ENOUGH,m,,,,,,0.465277778,-0.296296353,1,0,0,,0,19,19,125,1,
,,,,,,,,,,,,,,,,,,5fb3814f2ed467ac73fe19fd,2020-11-27_16h06.10.045,lexical_decision_task_MP_exp2,2020.2.5,Linux armv8l,60,,0,0.466203817,-0.296296353,1,0,0,0.7071,button_right,0.7071,1,,,,,,49,WORD,"ID",33,survey,SURVEY,m,,,,,,0.466203817,-0.296296353,1,0,0,,0,20,20,48,1,
,,,,,,,,,,,,,,,,,,5fb3814f2ed467ac73fe19fd,2020-11-27_16h06.10.045,lexical_decision_task_MP_exp2,2020.2.5,Linux armv8l,60,,0,-0.418981467,-0.289814843,1,0,0,0.8814,button_left,0.8814,1,,,,,,380,NW,UN,33,huniek,CAVORY,z,,,,,,-0.418981467,-0.289814843,1,0,0,,0,21,21,379,1,
,,,,,,,,,,,,,,,,,,5fb3814f2ed467ac73fe19fd,2020-11-27_16h06.10.045,lexical_decision_task_MP_exp2,2020.2.5,Linux armv8l,60,,0,-0.419907379,-0.289814843,1,0,0,0.7896,button_left,0.7896,1,,,,,,263,NW,"ID",33,dolica,DOLICA,z,,,,,,-0.419907379,-0.289814843,1,0,0,,0,22,22,262,1,
,,,,,,,,,,,,,,,,,,5fb3814f2ed467ac73fe19fd,2020-11-27_16h06.10.045,lexical_decision_task_MP_exp2,2020.2.5,Linux armv8l,60,,0,-0.439351824,-0.275925954,1,0,0,1.1088,button_left,1.1088,1,,,,,,409,NW,UN,33,tunory,ELOPIA,z,,,,,,-0.439351824,-0.275925954,1,0,0,,0,23,23,408,1,
,,,,,,,,,,,,,,,,,,5fb3814f2ed467ac73fe19fd,2020-11-27_16h06.10.045,lexical_decision_task_MP_exp2,2020.2.5,Linux armv8l,60,,0,0.463426039,-0.299074131,1,0,0,0.8696,button_right,0.8696,1,,,,,,203,WORD,UN,16,burden,PHRASE,m,,,,,,0.463426039,-0.299074131,1,0,0,,0,24,24,202,1,
,,,,,,,,,,,,,,,,,,5fb3814f2ed467ac73fe19fd,2020-11-27_16h06.10.045,lexical_decision_task_MP_exp2,2020.2.5,Linux armv8l,60,,0,0.464351908,-0.298148176,1,0,0,1.1722,button_right,1.1722,1,,,,,,145,WORD,UN,33,couple,PARISH,m,,,,,,0.464351908,-0.298148176,1,0,0,,0,25,25,144,1,
,,,,,,,,,,,,,,,,,,5fb3814f2ed467ac73fe19fd,2020-11-27_16h06.10.045,lexical_decision_task_MP_exp2,2020.2.5,Linux armv8l,60,,0,0.461574131,-0.28148151,1,0,0,1.0847,button_right,1.0847,1,,,,,,158,WORD,UN,33,detail,ISLAND,m,,,,,,0.461574131,-0.28148151,1,0,0,,0,26,26,157,1,
,,,,,,,,,,,,,,,,,,5fb3814f2ed467ac73fe19fd,2020-11-27_16h06.10.045,lexical_decision_task_MP_exp2,2020.2.5,Linux armv8l,60,,0,0.441203732,-0.290740797,1,0,0,1.1039,button_right,1.1039,1,,,,,,215,WORD,UN,16,behalf,PHOBIA,m,,,,,,0.441203732,-0.290740797,1,0,0,,0,27,27,214,1,
,,,,,,,,,,,,,,,,,,5fb3814f2ed467ac73fe19fd,2020-11-27_16h06.10.045,lexical_decision_task_MP_exp2,2020.2.5,Linux armv8l,60,,0,-0.422685157,-0.285185242,1,0,0,0.834,button_left,0.834,1,,,,,,311,NW,"ID",16,sproly,SPROLY,z,,,,,,-0.422685157,-0.285185242,1,0,0,,0,28,28,310,1,
,,,,,,,,,,,,,,,,,,5fb3814f2ed467ac73fe19fd,2020-11-27_16h06.10.045,lexical_decision_task_MP_exp2,2020.2.5,Linux armv8l,60,,0,-0.438425912,-0.292592621,1,0,0,1.0107,button_left,1.0107,1,,,,,,321,NW,"ID",16,miator,MIATOR,z,,,,,,-0.438425912,-0.292592621,1,0,0,,0,29,29,320,1,
,,,,,,,,,,,,,,,,,,5fb3814f2ed467ac73fe19fd,2020-11-27_16h06.10.045,lexical_decision_task_MP_exp2,2020.2.5,Linux armv8l,60,,0,0.466203817,-0.296296353,1,0,0,0.7733,button_right,0.7733,1,,,,,,199,WORD,UN,16,beacon,INVOKE,m,,,,,,0.466203817,-0.296296353,1,0,0,,0,30,30,198,1,
,,,,,,,,,,,,,,,,,,5fb3814f2ed467ac73fe19fd,2020-11-27_16h06.10.045,lexical_decision_task_MP_exp2,2020.2.5,Linux armv8l,60,,0,-0.431944444,-0.283333333,1,0,0,0.9916,button_left,0.9916,1,,,,,,274,NW,"ID",33,fumblo,FUMBLO,z,,,,,,-0.431944444,-0.283333333,1,0,0,,0,31,31,273,1,
,,,,,,,,,,,,,,,,,,5fb3814f2ed467ac73fe19fd,2020-11-27_16h06.10.045,lexical_decision_task_MP_exp2,2020.2.5,Linux armv8l,60,,0,0.460648261,-0.301851908,1,0,0,1.1297,button_right,1.1297,1,,,,,,112,WORD,"ID",16,breath,BREATH,m,,,,,,0.460648261,-0.301851908,1,0,0,,0,32,32,111,1,
,,,,,,,,,,,,,,,,,,5fb3814f2ed467ac73fe19fd,2020-11-27_16h06.10.045,lexical_decision_task_MP_exp2,2020.2.5,Linux armv8l,60,,0,-0.430092578,-0.288888889,1,0,0,1.0095,button_left,1.0095,1,,,,,,383,NW,UN,33,guesco,AUNGRE,z,,,,,,-0.430092578,-0.288888889,1,0,0,,0,33,33,382,1,
,,,,,,,,,,,,,,,,,,5fb3814f2ed467ac73fe19fd,2020-11-27_16h06.10.045,lexical_decision_task_MP_exp2,2020.2.5,Linux armv8l,60,,0,-0.429166667,-0.288888889,1,0,0,1.5326,button_left,1.5326,1,,,,,,253,NW,"ID",33,resait,RESAIT,z,,,,,,-0.429166667,-0.288888889,1,0,0,,0,34,34,252,1,
,,,,,,,,,,,,,,,,,,5fb3814f2ed467ac73fe19fd,2020-11-27_16h06.10.045,lexical_decision_task_MP_exp2,2020.2.5,Linux armv8l,60,,0,-0.439351824,-0.285185242,1,0,0,0.8256,button_left,0.8256,1,,,,,,338,NW,"ID",16,wreash,WREASH,z,,,,,,-0.439351824,-0.285185242,1,0,0,,0,35,35,337,1,
,,,,,,,,,,,,,,,,,,5fb3814f2ed467ac73fe19fd,2020-11-27_16h06.10.045,lexical_decision_task_MP_exp2,2020.2.5,Linux armv8l,60,,0,0.447685242,-0.289814843,1,0,0,0.7029,button_right,0.7029,1,,,,,,109,WORD,"ID",16,wonder,WONDER,m,,,,,,0.447685242,-0.289814843,1,0,0,,0,36,36,108,1,
,,,,,,,,,,,,,,,,,,5fb3814f2ed467ac73fe19fd,2020-11-27_16h06.10.045,lexical_decision_task_MP_exp2,2020.2.5,Linux armv8l,60,,0,0.447685242,-0.290740797,1,0,0,1.2216,button_right,1.2216,1,,,,,,97,WORD,"ID",16,client,CLIENT,m,,,,,,0.447685242,-0.290740797,1,0,0,,0,37,37,96,1,
,,,,,,,,,,,,,,,,,,5fb3814f2ed467ac73fe19fd,2020-11-27_16h06.10.045,lexical_decision_task_MP_exp2,2020.2.5,Linux armv8l,60,,0,-0.443055556,-0.284259288,1,0,0,0.9287,button_left,0.9287,1,,,,,,479,NW,UN,16,josted,LOBUSH,z,,,,,,-0.443055556,-0.284259288,1,0,0,,0,38,38,478,1,
,,,,,,,,,,,,,,,,,,5fb3814f2ed467ac73fe19fd,2020-11-27_16h06.10.045,lexical_decision_task_MP_exp2,2020.2.5,Linux armv8l,60,,0,-0.442129601,-0.284259288,1,0,0,0.9548,button_left,0.9548,1,,,,,,264,NW,"ID",33,vackel,VACKEL,z,,,,,,-0.442129601,-0.284259288,1,0,0,,0,39,39,263,1,
,,,,,,,,,,,,,,,,,,5fb3814f2ed467ac73fe19fd,2020-11-27_16h06.10.045,lexical_decision_task_MP_exp2,2020.2.5,Linux armv8l,60,,0,0.469907464,-0.302777778,1,0,0,0.8225,button_right,0.8225,1,,,,,,81,WORD,"ID",16,friend,FRIEND,m,,,,,,0.469907464,-0.302777778,1,0,0,,0,40,40,80,1,
,,,,,,,,,,,,,,,,,,5fb3814f2ed467ac73fe19fd,2020-11-27_16h06.10.045,lexical_decision_task_MP_exp2,2020.2.5,Linux armv8l,60,,0,0.469907464,-0.301851908,1,0,0,1.1239,button_right,1.1239,1,,,,,,101,WORD,"ID",16,wrench,WRENCH,m,,,,,,0.469907464,-0.301851908,1,0,0,,0,41,41,100,1,
,,,,,,,,,,,,,,,,,,5fb3814f2ed467ac73fe19fd,2020-11-27_16h06.10.045,lexical_decision_task_MP_exp2,2020.2.5,Linux armv8l,60,,0,-0.424537023,-0.285185242,1,0,0,1.0265,button_left,1.0265,1,,,,,,396,NW,UN,33,camble,FLENGY,z,,,,,,-0.424537023,-0.285185242,1,0,0,,0,42,42,395,1,
,,,,,,,,,,,,,,,,,,5fb3814f2ed467ac73fe19fd,2020-11-27_16h06.10.045,lexical_decision_task_MP_exp2,2020.2.5,Linux armv8l,60,,0,-0.427314801,-0.3,1,0,0,0.8417,button_left,0.8417,1,,,,,,430,NW,UN,16,funtle,CAROEY,z,,,,,,-0.427314801,-0.3,1,0,0,,0,43,43,429,1,
,,,,,,,,,,,,,,,,,,5fb3814f2ed467ac73fe19fd,2020-11-27_16h06.10.045,lexical_decision_task_MP_exp2,2020.2.5,Linux armv8l,60,,0,-0.445833333,-0.288888889,1,0,0,0.9081,button_left,0.9081,1,,,,,,391,NW,UN,33,rouncy,THELDY,z,,,,,,-0.445833333,-0.288888889,1,0,0,,0,44,44,390,1,
,,,,,,,,,,,,,,,,,,5fb3814f2ed467ac73fe19fd,2020-11-27_16h06.10.045,lexical_decision_task_MP_exp2,2020.2.5,Linux armv8l,60,,0,0.451388889,-0.292592621,1,0,0,0.9257,button_right,0.9257,1,,,,,,19,WORD,"ID",33,patron,PATRON,m,,,,,,0.451388889,-0.292592621,1,0,0,,0,45,45,18,1,
,,,,,,,,,,,,,,,,,,5fb3814f2ed467ac73fe19fd,2020-11-27_16h06.10.045,lexical_decision_task_MP_exp2,2020.2.5,Linux armv8l,60,,0,0.434722222,-0.298148176,1,0,0,1.5169,button_right,1.5169,1,,,,,,92,WORD,"ID",16,strand,STRAND,m,,,,,,0.434722222,-0.298148176,1,0,0,,0,46,46,91,1,
,,,,,,,,,,,,,,,,,,5fb3814f2ed467ac73fe19fd,2020-11-27_16h06.10.045,lexical_decision_task_MP_exp2,2020.2.5,Linux armv8l,60,,0,0.436574131,-0.298148176,1,0,0,1.2095,button_right,1.2095,1,,,,,,113,WORD,"ID",16,chorus,CHORUS,m,,,,,,0.436574131,-0.298148176,1,0,0,,0,47,47,112,1,
,,,,,,,,,,,,,,,,,,5fb3814f2ed467ac73fe19fd,2020-11-27_16h06.10.045,lexical_decision_task_MP_exp2,2020.2.5,Linux armv8l,60,,0,-0.413425912,-0.296296353,1,0,0,0.9555,button_left,0.9555,1,,,,,,334,NW,"ID",16,watmeg,WATMEG,z,,,,,,-0.413425912,-0.296296353,1,0,0,,0,48,48,333,1,
,,,,,,,,,,,,,,,,,,5fb3814f2ed467ac73fe19fd,2020-11-27_16h06.10.045,lexical_decision_task_MP_exp2,2020.2.5,Linux armv8l,60,,0,-0.413425912,-0.295370399,1,0,0,1.3572,button_left,1.3572,1,,,,,,432,NW,UN,16,drance,LUNKER,z,,,,,,-0.413425912,-0.295370399,1,0,0,,0,49,49,431,1,
,,,,,,,,,,,,,,,,,,5fb3814f2ed467ac73fe19fd,2020-11-27_16h06.10.045,lexical_decision_task_MP_exp2,2020.2.5,Linux armv8l,60,,0,-0.429166667,-0.283333333,1,0,0,0.9232,button_left,0.9232,1,,,,,,401,NW,UN,33,elopia,MUSTIL,z,,,,,,-0.429166667,-0.283333333,1,0,0,,0,50,50,400,1,
,,,,,,,,,,,,,,,,,,5fb3814f2ed467ac73fe19fd,2020-11-27_16h06.10.045,lexical_decision_task_MP_exp2,2020.2.5,Linux armv8l,60,,0,0.44953715,-0.299074131,1,0,0,0.825,button_right,0.825,1,,,,,,189,WORD,UN,16,backup,CENSOR,m,,,,,,0.44953715,-0.299074131,1,0,0,,0,51,51,188,1,
,,,,,,,,,,,,,,,,,,5fb3814f2ed467ac73fe19fd,2020-11-27_16h06.10.045,lexical_decision_task_MP_exp2,2020.2.5,Linux armv8l,60,,0,-0.431944444,-0.285185242,1,0,0,0.9423,button_left,0.9423,1,,,,,,344,NW,"ID",16,scrily,SCRILY,z,,,,,,-0.431944444,-0.285185242,1,0,0,,0,52,52,343,1,
,,,,,,,,,,,,,,,,,,5fb3814f2ed467ac73fe19fd,2020-11-27_16h06.10.045,lexical_decision_task_MP_exp2,2020.2.5,Linux armv8l,60,,0,-0.445833333,-0.278703732,1,0,0,0.8104,button_left,0.8104,1,,,,,,427,NW,UN,16,tandly,SCHIND,z,,,,,,-0.445833333,-0.278703732,1,0,0,,0,53,53,426,1,
,,,,,,,,,,,,,,,,,,5fb3814f2ed467ac73fe19fd,2020-11-27_16h06.10.045,lexical_decision_task_MP_exp2,2020.2.5,Linux armv8l,60,,0,0.457870483,-0.302777778,1,0,0,0.8352,button_right,0.8352,1,,,,,,86,WORD,"ID",16,rodent,RODENT,m,,,,,,0.457870483,-0.302777778,1,0,0,,0,54,54,85,1,
,,,,,,,,,,,,,,,,,,5fb3814f2ed467ac73fe19fd,2020-11-27_16h06.10.045,lexical_decision_task_MP_exp2,2020.2.5,Linux armv8l,60,,0,-0.445833333,-0.275,1,0,0,0.897,button_left,0.897,1,,,,,,283,NW,"ID",33,veralf,VERALF,z,,,,,,-0.445833333,-0.275,1,0,0,,0,55,55,282,1,
,,,,,,,,,,,,,,,,,,5fb3814f2ed467ac73fe19fd,2020-11-27_16h06.10.045,lexical_decision_task_MP_exp2,2020.2.5,Linux armv8l,60,,0,-0.447685157,-0.294444444,1,0,0,1.262,button_left,1.262,1,,,,,,289,NW,"ID",33,starby,STARBY,z,,,,,,-0.447685157,-0.294444444,1,0,0,,0,56,56,288,1,
,,,,,,,,,,,,,,,,,,5fb3814f2ed467ac73fe19fd,2020-11-27_16h06.10.045,lexical_decision_task_MP_exp2,2020.2.5,Linux armv8l,60,,0,-0.448611111,-0.280555556,1,0,0,0.8637,button_left,0.8637,1,,,,,,440,NW,UN,16,cainky,SARIDE,z,,,,,,-0.448611111,-0.280555556,1,0,0,,0,57,57,439,1,
,,,,,,,,,,,,,,,,,,5fb3814f2ed467ac73fe19fd,2020-11-27_16h06.10.045,lexical_decision_task_MP_exp2,2020.2.5,Linux armv8l,60,,0,-0.448611111,-0.280555556,1,0,0,0.9275,button_left,0.9275,1,,,,,,314,NW,"ID",16,sprine,SPRINE,z,,,,,,-0.448611111,-0.280555556,1,0,0,,0,58,58,313,1,
,,,,,,,,,,,,,,,,,,5fb3814f2ed467ac73fe19fd,2020-11-27_16h06.10.045,lexical_decision_task_MP_exp2,2020.2.5,Linux armv8l,60,,0,0.44398151,-0.294444444,1,0,0,0.8034,button_right,0.8034,1,,,,,,111,WORD,"ID",16,induce,INDUCE,m,,,,,,0.44398151,-0.294444444,1,0,0,,0,59,59,110,1,
,,,,,,,,,,,,,,,,,,5fb3814f2ed467ac73fe19fd,2020-11-27_16h06.10.045,lexical_decision_task_MP_exp2,2020.2.5,Linux armv8l,60,,0,0.444907464,-0.293518575,1,0,0,1.1101,button_right,1.1101,1,,,,,,205,WORD,UN,16,tailor,LOUNGE,m,,,,,,0.444907464,-0.293518575,1,0,0,,0,60,60,204,1,
,,,,,,,,,,,,,,,,,,5fb3814f2ed467ac73fe19fd,2020-11-27_16h06.10.045,lexical_decision_task_MP_exp2,2020.2.5,Linux armv8l,60,,0,0.463426039,-0.288888889,1,0,0,0.78,button_right,0.78,1,,,,,,65,WORD,"ID",16,symbol,SYMBOL,m,,,,,,0.463426039,-0.288888889,1,0,0,,0,61,61,64,1,
,,,,,,,,,,,,,,,,,,5fb3814f2ed467ac73fe19fd,2020-11-27_16h06.10.045,lexical_decision_task_MP_exp2,2020.2.5,Linux armv8l,60,,0,0.4625,-0.288888889,1,0,0,0.7202,button_right,0.7202,1,,,,,,91,WORD,"ID",16,expand,EXPAND,m,,,,,,0.4625,-0.288888889,1,0,0,,0,62,62,90,1,
,,,,,,,,,,,,,,,,,,5fb3814f2ed467ac73fe19fd,2020-11-27_16h06.10.045,lexical_decision_task_MP_exp2,2020.2.5,Linux armv8l,60,,0,0.4625,-0.288888889,1,0,0,0.7766,button_right,0.7766,1,,,,,,160,WORD,UN,33,dragon,VIOLET,m,,,,,,0.4625,-0.288888889,1,0,0,,0,63,63,159,1,
,,,,,,,,,,,,,,,,,,5fb3814f2ed467ac73fe19fd,2020-11-27_16h06.10.045,lexical_decision_task_MP_exp2,2020.2.5,Linux armv8l,60,,0,-0.423611111,-0.284259288,1,0,0,1.0285,button_left,1.0285,1,,,,,,342,NW,"ID",16,randow,RANDOW,z,,,,,,-0.423611111,-0.284259288,1,0,0,,0,64,64,341,1,
,,,,,,,,,,,,,,,,,,5fb3814f2ed467ac73fe19fd,2020-11-27_16h06.10.045,lexical_decision_task_MP_exp2,2020.2.5,Linux armv8l,60,,0,0.478240797,-0.297222222,1,0,0,1.0348,button_right,1.0348,1,,,,,,235,WORD,UN,16,pirate,GRUMPY,m,,,,,,0.478240797,-0.297222222,1,0,0,,0,65,65,234,1,
,,,,,,,,,,,,,,,,,,5fb3814f2ed467ac73fe19fd,2020-11-27_16h06.10.045,lexical_decision_task_MP_exp2,2020.2.5,Linux armv8l,60,,0,-0.425462935,-0.285185242,1,0,0,0.7084,button_left,0.7084,1,,,,,,384,NW,UN,33,veigma,GUESCO,z,,,,,,-0.425462935,-0.285185242,1,0,0,,0,66,66,383,1,
,,,,,,,,,,,,,,,,,,5fb3814f2ed467ac73fe19fd,2020-11-27_16h06.10.045,lexical_decision_task_MP_exp2,2020.2.5,Linux armv8l,60,,0,-0.445833333,-0.282407464,1,0,0,0.9612,button_left,0.9612,1,,,,,,268,NW,"ID",33,packes,PACKES,z,,,,,,-0.445833333,-0.282407464,1,0,0,,0,67,67,267,1,
,,,,,,,,,,,,,,,,,,5fb3814f2ed467ac73fe19fd,2020-11-27_16h06.10.045,lexical_decision_task_MP_exp2,2020.2.5,Linux armv8l,60,,0,-0.445833333,-0.282407464,1,0,0,0.7296,button_left,0.7296,1,,,,,,275,NW,"ID",33,sleirt,SLEIRT,z,,,,,,-0.445833333,-0.282407464,1,0,0,,0,68,68,274,1,
,,,,,,,,,,,,,,,,,,5fb3814f2ed467ac73fe19fd,2020-11-27_16h06.10.045,lexical_decision_task_MP_exp2,2020.2.5,Linux armv8l,60,,0,0.473611111,-0.290740797,1,0,0,1.0615,button_right,1.0615,1,,,,,,163,WORD,UN,33,market,STRING,m,,,,,,0.473611111,-0.290740797,1,0,0,,0,69,69,162,1,
,,,,,,,,,,,,,,,,,,5fb3814f2ed467ac73fe19fd,2020-11-27_16h06.10.045,lexical_decision_task_MP_exp2,2020.2.5,Linux armv8l,60,,0,-0.433796268,-0.280555556,1,0,0,0.7609,button_left,0.7609,1,,,,,,255,NW,"ID",33,apight,APIGHT,z,,,,,,-0.433796268,-0.280555556,1,0,0,,0,70,70,254,1,
,,,,,,,,,,,,,,,,,,5fb3814f2ed467ac73fe19fd,2020-11-27_16h06.10.045,lexical_decision_task_MP_exp2,2020.2.5,Linux armv8l,60,,0,0.459722222,-0.299074131,1,0,0,0.8065,button_right,0.8065,1,,,,,,2,WORD,"ID",33,bridge,BRIDGE,m,,,,,,0.459722222,-0.299074131,1,0,0,,0,71,71,1,1,
,,,,,,,,,,,,,,,,,,5fb3814f2ed467ac73fe19fd,2020-11-27_16h06.10.045,lexical_decision_task_MP_exp2,2020.2.5,Linux armv8l,60,,0,-0.432870356,-0.283333333,1,0,0,0.7622,button_left,0.7622,1,,,,,,337,NW,"ID",16,rejols,REJOLS,z,,,,,,-0.432870356,-0.283333333,1,0,0,,0,72,72,336,1,
,,,,,,,,,,,,,,,,,,5fb3814f2ed467ac73fe19fd,2020-11-27_16h06.10.045,lexical_decision_task_MP_exp2,2020.2.5,Linux armv8l,60,,0,-0.442129601,-0.271296353,1,0,0,0.9805,button_left,0.9805,1,,,,,,426,NW,UN,16,frudge,URIVEL,z,,,,,,-0.442129601,-0.271296353,1,0,0,,0,73,73,425,1,
,,,,,,,,,,,,,,,,,,5fb3814f2ed467ac73fe19fd,2020-11-27_16h06.10.045,lexical_decision_task_MP_exp2,2020.2.5,Linux armv8l,60,,0,,,,,,,,0.9805,-1,,,,,,1,WORD,"ID",33,fright,FRIGHT,m,,,,,,-0.422685157,-0.287963019,1,0,0,,0,74,74,0,1,
,,,,,,,,,,,,,,,,,,5fb3814f2ed467ac73fe19fd,2020-11-27_16h06.10.045,lexical_decision_task_MP_exp2,2020.2.5,Linux armv8l,60,,0,-0.422685157,-0.287037065,1,0,0,0.8712,button_left,0.8712,1,,,,,,441,NW,UN,16,aboune,RASTOE,z,,,,,,-0.422685157,-0.287037065,1,0,0,,0,75,75,440,1,
,,,,,,,,,,,,,,,,,,5fb3814f2ed467ac73fe19fd,2020-11-27_16h06.10.045,lexical_decision_task_MP_exp2,2020.2.5,Linux armv8l,60,,0,-0.43101849,-0.278703732,1,0,0,0.8458,button_left,0.8458,1,,,,,,422,NW,UN,16,streld,ALCOUD,z,,,,,,-0.43101849,-0.278703732,1,0,0,,0,76,76,421,1,
,,,,,,,,,,,,,,,,,,5fb3814f2ed467ac73fe19fd,2020-11-27_16h06.10.045,lexical_decision_task_MP_exp2,2020.2.5,Linux armv8l,60,,0,-0.431944444,-0.278703732,1,0,0,0.9702,button_left,0.9702,1,,,,,,352,NW,"ID",16,tringe,TRINGE,z,,,,,,-0.431944444,-0.278703732,1,0,0,,0,77,77,351,1,
,,,,,,,,,,,,,,,,,,5fb3814f2ed467ac73fe19fd,2020-11-27_16h06.10.045,lexical_decision_task_MP_exp2,2020.2.5,Linux armv8l,60,,0,-0.451388889,-0.275925954,1,0,0,1.1114,button_left,1.1114,1,,,,,,445,NW,UN,16,runamo,MINKEL,z,,,,,,-0.451388889,-0.275925954,1,0,0,,0,78,78,444,1,
,,,,,,,,,,,,,,,,,,5fb3814f2ed467ac73fe19fd,2020-11-27_16h06.10.045,lexical_decision_task_MP_exp2,2020.2.5,Linux armv8l,60,,0,-0.469907379,-0.285185242,1,0,0,0.8823,button_left,0.8823,1,,,,,,265,NW,"ID",33,distar,DISTAR,z,,,,,,-0.469907379,-0.285185242,1,0,0,,0,79,79,264,1,
,,,,,,,,,,,,,,,,,,5fb3814f2ed467ac73fe19fd,2020-11-27_16h06.10.045,lexical_decision_task_MP_exp2,2020.2.5,Linux armv8l,60,,0,-0.422685157,-0.274074131,1,0,0,1.8628,button_left,1.8628,1,,,,,,361,NW,UN,33,tireau,PAUCHE,z,,,,,,-0.422685157,-0.274074131,1,0,0,,0,80,80,360,1,
,,,,,,,,,,,,,,,,,,5fb3814f2ed467ac73fe19fd,2020-11-27_16h06.10.045,lexical_decision_task_MP_exp2,2020.2.5,Linux armv8l,60,,0,0.438425954,-0.299074131,1,0,0,0.8424,button_right,0.8424,1,,,,,,76,WORD,"ID",16,exotic,EXOTIC,m,,,,,,0.438425954,-0.299074131,1,0,0,,0,81,81,75,1,
,,,,,,,,,,,,,,,,,,5fb3814f2ed467ac73fe19fd,2020-11-27_16h06.10.045,lexical_decision_task_MP_exp2,2020.2.5,Linux armv8l,60,,0,0.463426039,-0.289814843,1,0,0,1.0933,button_right,1.0933,1,,,,,,54,WORD,"ID",33,ramble,RAMBLE,m,,,,,,0.463426039,-0.289814843,1,0,0,,0,82,82,53,1,
,,,,,,,,,,,,,,,,,,5fb3814f2ed467ac73fe19fd,2020-11-27_16h06.10.045,lexical_decision_task_MP_exp2,2020.2.5,Linux armv8l,60,,0,0.463426039,-0.289814843,1,0,0,0.9619,button_right,0.9619,1,,,,,,5,WORD,"ID",33,plunge,PLUNGE,m,,,,,,0.463426039,-0.289814843,1,0,0,,0,83,83,4,1,
,,,,,,,,,,,,,,,,,,5fb3814f2ed467ac73fe19fd,2020-11-27_16h06.10.045,lexical_decision_task_MP_exp2,2020.2.5,Linux armv8l,60,,0,0.476388889,-0.287963019,1,0,0,0.9253,button_right,0.9253,1,,,,,,43,WORD,"ID",33,tongue,TONGUE,m,,,,,,0.476388889,-0.287963019,1,0,0,,0,84,84,42,1,
,,,,,,,,,,,,,,,,,,5fb3814f2ed467ac73fe19fd,2020-11-27_16h06.10.045,lexical_decision_task_MP_exp2,2020.2.5,Linux armv8l,60,,0,0.44398151,-0.30648151,1,0,0,1.0588,button_right,1.0588,1,,,,,,181,WORD,UN,16,winter,GLANCE,m,,,,,,0.44398151,-0.30648151,1,0,0,,0,85,85,180,1,
,,,,,,,,,,,,,,,,,,5fb3814f2ed467ac73fe19fd,2020-11-27_16h06.10.045,lexical_decision_task_MP_exp2,2020.2.5,Linux armv8l,60,,0,-0.425462935,-0.28148151,1,0,0,0.7133,button_left,0.7133,1,,,,,,417,NW,UN,33,suidle,EAROUD,z,,,,,,-0.425462935,-0.28148151,1,0,0,,0,86,86,416,1,
,,,,,,,,,,,,,,,,,,5fb3814f2ed467ac73fe19fd,2020-11-27_16h06.10.045,lexical_decision_task_MP_exp2,2020.2.5,Linux armv8l,60,,0,0.467129686,-0.288888889,1,0,0,0.7334,button_right,0.7334,1,,,,,,168,WORD,UN,33,genius,ANSWER,m,,,,,,0.467129686,-0.288888889,1,0,0,,0,87,87,167,1,
,,,,,,,,,,,,,,,,,,5fb3814f2ed467ac73fe19fd,2020-11-27_16h06.10.045,lexical_decision_task_MP_exp2,2020.2.5,Linux armv8l,60,,0,0.455092706,-0.302777778,1,0,0,0.7765,button_right,0.7765,1,,,,,,186,WORD,UN,16,course,PORTAL,m,,,,,,0.455092706,-0.302777778,1,0,0,,0,88,88,185,1,
,,,,,,,,,,,,,,,,,,5fb3814f2ed467ac73fe19fd,2020-11-27_16h06.10.045,lexical_decision_task_MP_exp2,2020.2.5,Linux armv8l,60,,0,-0.423611111,-0.275925954,1,0,0,0.7016,button_left,0.7016,1,,,,,,446,NW,UN,16,gircue,RUNAMO,z,,,,,,-0.423611111,-0.275925954,1,0,0,,0,89,89,445,1,
,,,,,,,,,,,,,,,,,,5fb3814f2ed467ac73fe19fd,2020-11-27_16h06.10.045,lexical_decision_task_MP_exp2,2020.2.5,Linux armv8l,60,,0,0.466203817,-0.299074131,1,0,0,0.9767,button_right,0.9767,1,,,,,,170,WORD,UN,33,depart,POUNCE,m,,,,,,0.466203817,-0.299074131,1,0,0,,0,90,90,169,1,
,,,,,,,,,,,,,,,,,,5fb3814f2ed467ac73fe19fd,2020-11-27_16h06.10.045,lexical_decision_task_MP_exp2,2020.2.5,Linux armv8l,60,,0,0.488426039,-0.312963019,1,0,0,1.1613,button_right,1.1613,1,,,,,,115,WORD,"ID",16,guitar,GUITAR,m,,,,,,0.488426039,-0.312963019,1,0,0,,0,91,91,114,1,
,,,,,,,,,,,,,,,,,,5fb3814f2ed467ac73fe19fd,2020-11-27_16h06.10.045,lexical_decision_task_MP_exp2,2020.2.5,Linux armv8l,60,,0,0.478240797,-0.296296353,1,0,0,0.8241,button_right,0.8241,1,,,,,,20,WORD,"ID",33,breast,BREAST,m,,,,,,0.478240797,-0.296296353,1,0,0,,0,92,92,19,1,
,,,,,,,,,,,,,,,,,,5fb3814f2ed467ac73fe19fd,2020-11-27_16h06.10.045,lexical_decision_task_MP_exp2,2020.2.5,Linux armv8l,60,,0,-0.423611111,-0.287037065,1,0,0,0.816,button_left,0.816,1,,,,,,477,NW,UN,16,acrise,PHOTIE,z,,,,,,-0.423611111,-0.287037065,1,0,0,,0,93,93,476,1,
,,,,,,,,,,,,,,,,,,5fb3814f2ed467ac73fe19fd,2020-11-27_16h06.10.045,lexical_decision_task_MP_exp2,2020.2.5,Linux armv8l,60,,0,-0.422685157,-0.287037065,1,0,0,0.98,button_left,0.98,1,,,,,,392,NW,UN,33,ganous,ROUNCY,z,,,,,,-0.422685157,-0.287037065,1,0,0,,0,94,94,391,1,
,,,,,,,,,,,,,,,,,,5fb3814f2ed467ac73fe19fd,2020-11-27_16h06.10.045,lexical_decision_task_MP_exp2,2020.2.5,Linux armv8l,60,,0,0.458796353,-0.295370399,1,0,0,0.8112,button_right,0.8112,1,,,,,,206,WORD,UN,16,wreath,TAILOR,m,,,,,,0.458796353,-0.295370399,1,0,0,,0,95,95,205,1,
,,,,,,,,,,,,,,,,,,5fb3814f2ed467ac73fe19fd,2020-11-27_16h06.10.045,lexical_decision_task_MP_exp2,2020.2.5,Linux armv8l,60,,0,-0.414351824,-0.28148151,1,0,0,0.9238,button_left,0.9238,1,,,,,,461,NW,UN,16,absult,JUSTRE,z,,,,,,-0.414351824,-0.28148151,1,0,0,,0,96,96,460,1,
,,,,,,,,,,,,,,,,,,5fb3814f2ed467ac73fe19fd,2020-11-27_16h06.10.045,lexical_decision_task_MP_exp2,2020.2.5,Linux armv8l,60,,0,0.456018575,-0.301851908,1,0,0,0.9998,button_right,0.9998,1,,,,,,103,WORD,"ID",16,bounce,BOUNCE,m,,,,,,0.456018575,-0.301851908,1,0,0,,0,97,97,102,1,
,,,,,,,,,,,,,,,,,,5fb3814f2ed467ac73fe19fd,2020-11-27_16h06.10.045,lexical_decision_task_MP_exp2,2020.2.5,Linux armv8l,60,,0,-0.41620369,-0.273148176,1,0,0,0.8408,button_left,0.8408,1,,,,,,366,NW,UN,33,slique,TOSHEL,z,,,,,,-0.41620369,-0.273148176,1,0,0,,0,98,98,365,1,
,,,,,,,,,,,,,,,,,,5fb3814f2ed467ac73fe19fd,2020-11-27_16h06.10.045,lexical_decision_task_MP_exp2,2020.2.5,Linux armv8l,60,,0,-0.424537023,-0.285185242,1,0,0,0.832,button_left,0.832,1,,,,,,326,NW,"ID",16,iguade,IGUADE,z,,,,,,-0.424537023,-0.285185242,1,0,0,,0,99,99,325,1,
,,,,,,,,,,,,,,,,,,5fb3814f2ed467ac73fe19fd,2020-11-27_16h06.10.045,lexical_decision_task_MP_exp2,2020.2.5,Linux armv8l,60,,0,-0.434722222,-0.275925954,1,0,0,0.6455,button_left,0.6455,1,,,,,,331,NW,"ID",16,gilfew,GILFEW,z,,,,,,-0.434722222,-0.275925954,1,0,0,,0,100,100,330,1,
,,,,,,,,,,,,,,,,,,5fb3814f2ed467ac73fe19fd,2020-11-27_16h06.10.045,lexical_decision_task_MP_exp2,2020.2.5,Linux armv8l,60,,0,0.466203817,-0.287037065,1,0,0,0.848,button_right,0.848,1,,,,,,183,WORD,UN,16,sleazy,MILDEW,m,,,,,,0.466203817,-0.287037065,1,0,0,,0,101,101,182,1,
,,,,,,,,,,,,,,,,,,5fb3814f2ed467ac73fe19fd,2020-11-27_16h06.10.045,lexical_decision_task_MP_exp2,2020.2.5,Linux armv8l,60,,0,0.466203817,-0.287037065,1,0,0,1.1715,button_right,1.1715,1,,,,,,224,WORD,UN,16,vulgar,PERIOD,m,,,,,,0.466203817,-0.287037065,1,0,0,,0,102,102,223,1,
,,,,,,,,,,,,,,,,,,5fb3814f2ed467ac73fe19fd,2020-11-27_16h06.10.045,lexical_decision_task_MP_exp2,2020.2.5,Linux armv8l,60,,0,-0.43101849,-0.294444444,1,0,0,0.7453,button_left,0.7453,1,,,,,,249,NW,"ID",33,batrol,BATROL,z,,,,,,-0.43101849,-0.294444444,1,0,0,,0,103,103,248,1,
,,,,,,,,,,,,,,,,,,5fb3814f2ed467ac73fe19fd,2020-11-27_16h06.10.045,lexical_decision_task_MP_exp2,2020.2.5,Linux armv8l,60,,0,0.472685242,-0.296296353,1,0,0,0.8263,button_right,0.8263,1,,,,,,83,WORD,"ID",16,result,RESULT,m,,,,,,0.472685242,-0.296296353,1,0,0,,0,104,104,82,1,
,,,,,,,,,,,,,,,,,,5fb3814f2ed467ac73fe19fd,2020-11-27_16h06.10.045,lexical_decision_task_MP_exp2,2020.2.5,Linux armv8l,60,,0,-0.419907379,-0.275,1,0,0,0.7903,button_left,0.7903,1,,,,,,454,NW,UN,16,tondle,SCOUGE,z,,,,,,-0.419907379,-0.275,1,0,0,,0,105,105,453,1,
,,,,,,,,,,,,,,,,,,5fb3814f2ed467ac73fe19fd,2020-11-27_16h06.10.045,lexical_decision_task_MP_exp2,2020.2.5,Linux armv8l,60,,0,-0.426388889,-0.284259288,1,0,0,1.2248,button_left,1.2248,1,,,,,,322,NW,"ID",16,slanch,SLANCH,z,,,,,,-0.426388889,-0.284259288,1,0,0,,0,106,106,321,1,
,,,,,,,,,,,,,,,,,,5fb3814f2ed467ac73fe19fd,2020-11-27_16h06.10.045,lexical_decision_task_MP_exp2,2020.2.5,Linux armv8l,60,,0,-0.426388889,-0.283333333,1,0,0,0.7119,button_left,0.7119,1,,,,,,351,NW,"ID",16,tiesch,TIESCH,z,,,,,,-0.426388889,-0.283333333,1,0,0,,0,107,107,350,1,
,,,,,,,,,,,,,,,,,,5fb3814f2ed467ac73fe19fd,2020-11-27_16h06.10.045,lexical_decision_task_MP_exp2,2020.2.5,Linux armv8l,60,,0,-0.425462935,-0.282407464,1,0,0,0.6823,button_left,0.6823,1,,,,,,310,NW,"ID",16,daniet,DANIET,z,,,,,,-0.425462935,-0.282407464,1,0,0,,0,108,108,309,1,
,,,,,,,,,,,,,,,,,,5fb3814f2ed467ac73fe19fd,2020-11-27_16h06.10.045,lexical_decision_task_MP_exp2,2020.2.5,Linux armv8l,60,,0,0.472685242,-0.279629686,1,0,0,0.6892,button_right,0.6892,1,,,,,,104,WORD,"ID",16,studio,STUDIO,m,,,,,,0.472685242,-0.279629686,1,0,0,,0,109,109,103,1,
,,,,,,,,,,,,,,,,,,5fb3814f2ed467ac73fe19fd,2020-11-27_16h06.10.045,lexical_decision_task_MP_exp2,2020.2.5,Linux armv8l,60,,0,0.472685242,-0.279629686,1,0,0,0.7214,button_right,0.7214,1,,,,,,238,WORD,UN,16,grumpy,FLOWER,m,,,,,,0.472685242,-0.279629686,1,0,0,,0,110,110,237,1,
,,,,,,,,,,,,,,,,,,5fb3814f2ed467ac73fe19fd,2020-11-27_16h06.10.045,lexical_decision_task_MP_exp2,2020.2.5,Linux armv8l,60,,0,-0.43101849,-0.286111111,1,0,0,0.8096,button_left,0.8096,1,,,,,,442,NW,UN,16,dorsex,ABOUNE,z,,,,,,-0.43101849,-0.286111111,1,0,0,,0,111,111,441,1,
,,,,,,,,,,,,,,,,,,5fb3814f2ed467ac73fe19fd,2020-11-27_16h06.10.045,lexical_decision_task_MP_exp2,2020.2.5,Linux armv8l,60,,0,-0.428240712,-0.273148176,1,0,0,0.9788,button_left,0.9788,1,,,,,,372,NW,UN,33,bigent,RAMILY,z,,,,,,-0.428240712,-0.273148176,1,0,0,,0,112,112,371,1,
,,,,,,,,,,,,,,,,,,5fb3814f2ed467ac73fe19fd,2020-11-27_16h06.10.045,lexical_decision_task_MP_exp2,2020.2.5,Linux armv8l,60,,0,-0.429166667,-0.274074131,1,0,0,1.0717,button_left,1.0717,1,,,,,,250,NW,"ID",33,milted,MILTED,z,,,,,,-0.429166667,-0.274074131,1,0,0,,0,113,113,249,1,
,,,,,,,,,,,,,,,,,,5fb3814f2ed467ac73fe19fd,2020-11-27_16h06.10.045,lexical_decision_task_MP_exp2,2020.2.5,Linux armv8l,60,,0,-0.418055556,-0.25648151,1,0,0,0.7747,button_left,0.7747,1,,,,,,339,NW,"ID",16,fachow,FACHOW,z,,,,,,-0.418055556,-0.25648151,1,0,0,,0,114,114,338,1,
,,,,,,,,,,,,,,,,,,5fb3814f2ed467ac73fe19fd,2020-11-27_16h06.10.045,lexical_decision_task_MP_exp2,2020.2.5,Linux armv8l,60,,0,-0.418055556,-0.298148176,1,0,0,0.7237,button_left,0.7237,1,,,,,,480,NW,UN,16,knisma,ROBULY,z,,,,,,-0.418055556,-0.298148176,1,0,0,,0,115,115,479,1,
,,,,,,,,,,,,,,,,,,5fb3814f2ed467ac73fe19fd,2020-11-27_16h06.10.045,lexical_decision_task_MP_exp2,2020.2.5,Linux armv8l,60,,0,-0.443055556,-0.295370399,1,0,0,0.6713,button_left,0.6713,1,,,,,,354,NW,"ID",16,virlex,VIRLEX,z,,,,,,-0.443055556,-0.295370399,1,0,0,,0,116,116,353,1,
,,,,,,,,,,,,,,,,,,5fb3814f2ed467ac73fe19fd,2020-11-27_16h06.10.045,lexical_decision_task_MP_exp2,2020.2.5,Linux armv8l,60,,0,-0.443981467,-0.276851908,1,0,0,0.6177,button_left,0.6177,1,,,,,,435,NW,UN,16,frutan,IMPURB,z,,,,,,-0.443981467,-0.276851908,1,0,0,,0,117,117,434,1,
,,,,,,,,,,,,,,,,,,5fb3814f2ed467ac73fe19fd,2020-11-27_16h06.10.045,lexical_decision_task_MP_exp2,2020.2.5,Linux armv8l,60,,0,-0.443981467,-0.275925954,1,0,0,0.689,button_left,0.689,1,,,,,,416,NW,UN,33,earoud,PATHEL,z,,,,,,-0.443981467,-0.275925954,1,0,0,,0,118,118,415,1,
,,,,,,,,,,,,,,,,,,5fb3814f2ed467ac73fe19fd,2020-11-27_16h06.10.045,lexical_decision_task_MP_exp2,2020.2.5,Linux armv8l,60,,0,-0.454166667,-0.262963019,1,0,0,0.7074,button_left,0.7074,1,,,,,,455,NW,UN,16,broget,TONDLE,z,,,,,,-0.454166667,-0.262963019,1,0,0,,0,119,119,454,1,
,,,,,,,,,,,,,,,,,,5fb3814f2ed467ac73fe19fd,2020-11-27_16h06.10.045,lexical_decision_task_MP_exp2,2020.2.5,Linux armv8l,60,,0,0.435648176,-0.266666667,1,0,0,0.7365,button_right,0.7365,1,,,,,,80,WORD,"ID",16,family,FAMILY,m,,,,,,0.081944444,-0.421296353,1,0,0,,0,120,120,79,1,break_done_button
,,,,,,,,,,,,,,,,,,5fb3814f2ed467ac73fe19fd,2020-11-27_16h06.10.045,lexical_decision_task_MP_exp2,2020.2.5,Linux armv8l,60,,0,0.451388889,-0.275,1,0,0,0.7757,button_right,0.7757,1,,,,,,11,WORD,"ID",33,cruise,CRUISE,m,,,,,,0.451388889,-0.275,1,0,0,,0,121,121,10,1,
,,,,,,,,,,,,,,,,,,5fb3814f2ed467ac73fe19fd,2020-11-27_16h06.10.045,lexical_decision_task_MP_exp2,2020.2.5,Linux armv8l,60,,0,0.421759288,-0.298148176,1,0,0,0.7589,button_right,0.7589,1,,,,,,185,WORD,UN,16,portal,BOTHER,m,,,,,,0.421759288,-0.298148176,1,0,0,,0,122,122,184,1,
,,,,,,,,,,,,,,,,,,5fb3814f2ed467ac73fe19fd,2020-11-27_16h06.10.045,lexical_decision_task_MP_exp2,2020.2.5,Linux armv8l,60,,0,0.428240797,-0.287963019,1,0,0,0.6555,button_right,0.6555,1,,,,,,119,WORD,"ID",16,spider,SPIDER,m,,,,,,0.428240797,-0.287963019,1,0,0,,0,123,123,118,1,
,,,,,,,,,,,,,,,,,,5fb3814f2ed467ac73fe19fd,2020-11-27_16h06.10.045,lexical_decision_task_MP_exp2,2020.2.5,Linux armv8l,60,,0,0.429166667,-0.288888889,1,0,0,0.7086,button_right,0.7086,1,,,,,,209,WORD,UN,16,monkey,SEARCH,m,,,,,,0.429166667,-0.288888889,1,0,0,,0,124,124,208,1,
,,,,,,,,,,,,,,,,,,5fb3814f2ed467ac73fe19fd,2020-11-27_16h06.10.045,lexical_decision_task_MP_exp2,2020.2.5,Linux armv8l,60,,0,0.430092621,-0.288888889,1,0,0,0.6456,button_right,0.6456,1,,,,,,180,WORD,UN,33,thrive,SILENT,m,,,,,,0.430092621,-0.288888889,1,0,0,,0,125,125,179,1,
,,,,,,,,,,,,,,,,,,5fb3814f2ed467ac73fe19fd,2020-11-27_16h06.10.045,lexical_decision_task_MP_exp2,2020.2.5,Linux armv8l,60,,0,0.430092621,-0.288888889,1,0,0,0.6355,button_right,0.6355,1,,,,,,57,WORD,"ID",33,change,CHANGE,m,,,,,,0.430092621,-0.288888889,1,0,0,,0,126,126,56,1,
,,,,,,,,,,,,,,,,,,5fb3814f2ed467ac73fe19fd,2020-11-27_16h06.10.045,lexical_decision_task_MP_exp2,2020.2.5,Linux armv8l,60,,0,-0.468981467,-0.294444444,1,0,0,0.6966,button_left,0.6966,1,,,,,,359,NW,"ID",16,fonver,FONVER,z,,,,,,-0.468981467,-0.294444444,1,0,0,,0,127,127,358,1,
,,,,,,,,,,,,,,,,,,5fb3814f2ed467ac73fe19fd,2020-11-27_16h06.10.045,lexical_decision_task_MP_exp2,2020.2.5,Linux armv8l,60,,0,0.440277778,-0.283333333,1,0,0,0.7055,button_right,0.7055,1,,,,,,164,WORD,UN,33,invest,MARKET,m,,,,,,0.440277778,-0.283333333,1,0,0,,0,128,128,163,1,
,,,,,,,,,,,,,,,,,,5fb3814f2ed467ac73fe19fd,2020-11-27_16h06.10.045,lexical_decision_task_MP_exp2,2020.2.5,Linux armv8l,60,,0,0.441203732,-0.283333333,1,0,0,0.92,button_right,0.92,1,,,,,,176,WORD,UN,33,advent,STRIFE,m,,,,,,0.441203732,-0.283333333,1,0,0,,0,129,129,175,1,
,,,,,,,,,,,,,,,,,,5fb3814f2ed467ac73fe19fd,2020-11-27_16h06.10.045,lexical_decision_task_MP_exp2,2020.2.5,Linux armv8l,60,,0,-0.476388889,-0.279629686,1,0,0,0.8977,button_left,0.8977,1,,,,,,462,NW,UN,16,kispel,ABSULT,z,,,,,,-0.476388889,-0.279629686,1,0,0,,0,130,130,461,1,
,,,,,,,,,,,,,,,,,,5fb3814f2ed467ac73fe19fd,2020-11-27_16h06.10.045,lexical_decision_task_MP_exp2,2020.2.5,Linux armv8l,60,,0,-0.476388889,-0.280555556,1,0,0,0.7454,button_left,0.7454,1,,,,,,420,NW,UN,33,pauche,GUSHOP,z,,,,,,-0.476388889,-0.280555556,1,0,0,,0,131,131,419,1,
,,,,,,,,,,,,,,,,,,5fb3814f2ed467ac73fe19fd,2020-11-27_16h06.10.045,lexical_decision_task_MP_exp2,2020.2.5,Linux armv8l,60,,0,-0.4875,-0.300925954,1,0,0,0.721,button_left,0.721,1,,,,,,458,NW,UN,16,chaite,BARCET,z,,,,,,-0.4875,-0.300925954,1,0,0,,0,132,132,457,1,
,,,,,,,,,,,,,,,,,,5fb3814f2ed467ac73fe19fd,2020-11-27_16h06.10.045,lexical_decision_task_MP_exp2,2020.2.5,Linux armv8l,60,,0,0.456944444,-0.284259288,1,0,0,0.7414,button_right,0.7414,1,,,,,,141,WORD,UN,33,spruce,ORPHAN,m,,,,,,0.456944444,-0.284259288,1,0,0,,0,133,133,140,1,
,,,,,,,,,,,,,,,,,,5fb3814f2ed467ac73fe19fd,2020-11-27_16h06.10.045,lexical_decision_task_MP_exp2,2020.2.5,Linux armv8l,60,,0,0.456944444,-0.284259288,1,0,0,0.8461,button_right,0.8461,1,,,,,,50,WORD,"ID",33,snatch,SNATCH,m,,,,,,0.456944444,-0.284259288,1,0,0,,0,134,134,49,1,
,,,,,,,,,,,,,,,,,,5fb3814f2ed467ac73fe19fd,2020-11-27_16h06.10.045,lexical_decision_task_MP_exp2,2020.2.5,Linux armv8l,60,,0,0.456944444,-0.284259288,1,0,0,0.8466,button_right,0.8466,1,,,,,,73,WORD,"ID",16,source,SOURCE,m,,,,,,0.456944444,-0.284259288,1,0,0,,0,135,135,72,1,
,,,,,,,,,,,,,,,,,,5fb3814f2ed467ac73fe19fd,2020-11-27_16h06.10.045,lexical_decision_task_MP_exp2,2020.2.5,Linux armv8l,60,,0,0.450463019,-0.291666667,1,0,0,0.8467,button_right,0.8467,1,,,,,,197,WORD,UN,16,wicked,STREAM,m,,,,,,0.450463019,-0.291666667,1,0,0,,0,136,136,196,1,
,,,,,,,,,,,,,,,,,,5fb3814f2ed467ac73fe19fd,2020-11-27_16h06.10.045,lexical_decision_task_MP_exp2,2020.2.5,Linux armv8l,60,,0,-0.478240712,-0.285185242,1,0,0,0.6831,button_left,0.6831,1,,,,,,419,NW,UN,33,gushop,SLOUNT,z,,,,,,-0.478240712,-0.285185242,1,0,0,,0,137,137,418,1,
,,,,,,,,,,,,,,,,,,5fb3814f2ed467ac73fe19fd,2020-11-27_16h06.10.045,lexical_decision_task_MP_exp2,2020.2.5,Linux armv8l,60,,0,0.455092706,-0.288888889,1,0,0,0.8918,button_right,0.8918,1,,,,,,74,WORD,"ID",16,plaque,PLAQUE,m,,,,,,0.455092706,-0.288888889,1,0,0,,0,138,138,73,1,
,,,,,,,,,,,,,,,,,,5fb3814f2ed467ac73fe19fd,2020-11-27_16h06.10.045,lexical_decision_task_MP_exp2,2020.2.5,Linux armv8l,60,,0,0.490277778,-0.310185242,1,0,0,1.1162,button_right,1.1162,1,,,,,,4,WORD,"ID",33,trench,TRENCH,m,,,,,,0.490277778,-0.310185242,1,0,0,,0,139,139,3,1,
,,,,,,,,,,,,,,,,,,5fb3814f2ed467ac73fe19fd,2020-11-27_16h06.10.045,lexical_decision_task_MP_exp2,2020.2.5,Linux armv8l,60,,0,0.467129686,-0.288888889,1,0,0,0.6228,button_right,0.6228,1,,,,,,146,WORD,UN,33,garlic,COUPLE,m,,,,,,0.467129686,-0.288888889,1,0,0,,0,140,140,145,1,
,,,,,,,,,,,,,,,,,,5fb3814f2ed467ac73fe19fd,2020-11-27_16h06.10.045,lexical_decision_task_MP_exp2,2020.2.5,Linux armv8l,60,,0,0.466203817,-0.288888889,1,0,0,0.6783,button_right,0.6783,1,,,,,,166,WORD,UN,33,design,STARCH,m,,,,,,0.466203817,-0.288888889,1,0,0,,0,141,141,165,1,
,,,,,,,,,,,,,,,,,,5fb3814f2ed467ac73fe19fd,2020-11-27_16h06.10.045,lexical_decision_task_MP_exp2,2020.2.5,Linux armv8l,60,,0,-0.477314801,-0.290740797,1,0,0,0.6864,button_left,0.6864,1,,,,,,288,NW,"ID",33,yaceup,YACEUP,z,,,,,,-0.477314801,-0.290740797,1,0,0,,0,142,142,287,1,
,,,,,,,,,,,,,,,,,,5fb3814f2ed467ac73fe19fd,2020-11-27_16h06.10.045,lexical_decision_task_MP_exp2,2020.2.5,Linux armv8l,60,,0,-0.477314801,-0.290740797,1,0,0,0.8779,button_left,0.8779,1,,,,,,395,NW,UN,33,flengy,COLURY,z,,,,,,-0.477314801,-0.290740797,1,0,0,,0,143,143,394,1,
,,,,,,,,,,,,,,,,,,5fb3814f2ed467ac73fe19fd,2020-11-27_16h06.10.045,lexical_decision_task_MP_exp2,2020.2.5,Linux armv8l,60,,0,-0.479166667,-0.301851908,1,0,0,0.9748,button_left,0.9748,1,,,,,,348,NW,"ID",16,dumple,DUMPLE,z,,,,,,-0.479166667,-0.301851908,1,0,0,,0,144,144,347,1,
,,,,,,,,,,,,,,,,,,5fb3814f2ed467ac73fe19fd,2020-11-27_16h06.10.045,lexical_decision_task_MP_exp2,2020.2.5,Linux armv8l,60,,0,0.448611111,-0.283333333,1,0,0,0.7431,button_right,0.7431,1,,,,,,17,WORD,"ID",33,charge,CHARGE,m,,,,,,0.448611111,-0.283333333,1,0,0,,0,145,145,16,1,
,,,,,,,,,,,,,,,,,,5fb3814f2ed467ac73fe19fd,2020-11-27_16h06.10.045,lexical_decision_task_MP_exp2,2020.2.5,Linux armv8l,60,,0,-0.481944444,-0.272222222,1,0,0,0.7159,button_left,0.7159,1,,,,,,270,NW,"ID",33,wrimsy,WRIMSY,z,,,,,,-0.481944444,-0.272222222,1,0,0,,0,146,146,269,1,
,,,,,,,,,,,,,,,,,,5fb3814f2ed467ac73fe19fd,2020-11-27_16h06.10.045,lexical_decision_task_MP_exp2,2020.2.5,Linux armv8l,60,,0,0.447685242,-0.28148151,1,0,0,0.7597,button_right,0.7597,1,,,,,,7,WORD,"ID",33,anchor,ANCHOR,m,,,,,,0.447685242,-0.28148151,1,0,0,,0,147,147,6,1,
,,,,,,,,,,,,,,,,,,5fb3814f2ed467ac73fe19fd,2020-11-27_16h06.10.045,lexical_decision_task_MP_exp2,2020.2.5,Linux armv8l,60,,0,0.448611111,-0.28148151,1,0,0,0.8099,button_right,0.8099,1,,,,,,151,WORD,UN,33,rocket,MYSTIC,m,,,,,,0.448611111,-0.28148151,1,0,0,,0,148,148,150,1,
,,,,,,,,,,,,,,,,,,5fb3814f2ed467ac73fe19fd,2020-11-27_16h06.10.045,lexical_decision_task_MP_exp2,2020.2.5,Linux armv8l,60,,0,-0.478240712,-0.298148176,1,0,0,0.6633,button_left,0.6633,1,,,,,,300,NW,"ID",33,yarion,YARION,z,,,,,,-0.478240712,-0.298148176,1,0,0,,0,149,149,299,1,
,,,,,,,,,,,,,,,,,,5fb3814f2ed467ac73fe19fd,2020-11-27_16h06.10.045,lexical_decision_task_MP_exp2,2020.2.5,Linux armv8l,60,,0,-0.49120369,-0.284259288,1,0,0,0.9748,button_left,0.9748,0,,,,,,142,WORD,UN,33,orphan,SPRUCE,m,,,,,,-0.49120369,-0.284259288,1,0,0,,0,150,150,141,1,
,,,,,,,,,,,,,,,,,,5fb3814f2ed467ac73fe19fd,2020-11-27_16h06.10.045,lexical_decision_task_MP_exp2,2020.2.5,Linux armv8l,60,,0,0.428240797,-0.289814843,1,0,0,0.9381,button_right,0.9381,1,,,,,,123,WORD,UN,33,enough,STRIKE,m,,,,,,0.428240797,-0.289814843,1,0,0,,0,151,151,122,1,
,,,,,,,,,,,,,,,,,,5fb3814f2ed467ac73fe19fd,2020-11-27_16h06.10.045,lexical_decision_task_MP_exp2,2020.2.5,Linux armv8l,60,,0,-0.468981467,-0.266666667,1,0,0,0.8473,button_left,0.8473,1,,,,,,433,NW,UN,16,pitrom,DRANCE,z,,,,,,-0.468981467,-0.266666667,1,0,0,,0,152,152,432,1,
,,,,,,,,,,,,,,,,,,5fb3814f2ed467ac73fe19fd,2020-11-27_16h06.10.045,lexical_decision_task_MP_exp2,2020.2.5,Linux armv8l,60,,0,-0.488425912,-0.267592621,1,0,0,0.7749,button_left,0.7749,1,,,,,,405,NW,UN,33,nouply,FLUMNI,z,,,,,,-0.488425912,-0.267592621,1,0,0,,0,153,153,404,1,
,,,,,,,,,,,,,,,,,,5fb3814f2ed467ac73fe19fd,2020-11-27_16h06.10.045,lexical_decision_task_MP_exp2,2020.2.5,Linux armv8l,60,,0,-0.476388889,-0.280555556,1,0,0,1.1096,button_left,1.1096,1,,,,,,379,NW,UN,33,cavory,AUTING,z,,,,,,-0.476388889,-0.280555556,1,0,0,,0,154,154,378,1,
,,,,,,,,,,,,,,,,,,5fb3814f2ed467ac73fe19fd,2020-11-27_16h06.10.045,lexical_decision_task_MP_exp2,2020.2.5,Linux armv8l,60,,0,-0.493055556,-0.289814843,1,0,0,0.7317,button_left,0.7317,1,,,,,,438,NW,UN,16,limpor,BAITCH,z,,,,,,-0.493055556,-0.289814843,1,0,0,,0,155,155,437,1,
,,,,,,,,,,,,,,,,,,5fb3814f2ed467ac73fe19fd,2020-11-27_16h06.10.045,lexical_decision_task_MP_exp2,2020.2.5,Linux armv8l,60,,0,0.44953715,-0.275,1,0,0,0.9363,button_right,0.9363,1,,,,,,136,WORD,UN,33,finger,BLEACH,m,,,,,,0.44953715,-0.275,1,0,0,,0,156,156,135,1,
,,,,,,,,,,,,,,,,,,5fb3814f2ed467ac73fe19fd,2020-11-27_16h06.10.045,lexical_decision_task_MP_exp2,2020.2.5,Linux armv8l,60,,0,-0.494907379,-0.280555556,1,0,0,0.8264,button_left,0.8264,1,,,,,,425,NW,UN,16,schind,FRUDGE,z,,,,,,-0.494907379,-0.280555556,1,0,0,,0,157,157,424,1,
,,,,,,,,,,,,,,,,,,5fb3814f2ed467ac73fe19fd,2020-11-27_16h06.10.045,lexical_decision_task_MP_exp2,2020.2.5,Linux armv8l,60,,0,0.470833333,-0.296296353,1,0,0,0.974,button_right,0.974,1,,,,,,175,WORD,UN,33,strife,FABRIC,m,,,,,,0.470833333,-0.296296353,1,0,0,,0,158,158,174,1,
,,,,,,,,,,,,,,,,,,5fb3814f2ed467ac73fe19fd,2020-11-27_16h06.10.045,lexical_decision_task_MP_exp2,2020.2.5,Linux armv8l,60,,0,0.442129686,-0.279629686,1,0,0,0.9317,button_right,0.9317,1,,,,,,25,WORD,"ID",33,domain,DOMAIN,m,,,,,,0.442129686,-0.279629686,1,0,0,,0,159,159,24,1,
,,,,,,,,,,,,,,,,,,5fb3814f2ed467ac73fe19fd,2020-11-27_16h06.10.045,lexical_decision_task_MP_exp2,2020.2.5,Linux armv8l,60,,0,-0.480092578,-0.274074131,1,0,0,0.7838,button_left,0.7838,1,,,,,,246,NW,"ID",33,piaton,PIATON,z,,,,,,-0.480092578,-0.274074131,1,0,0,,0,160,160,245,1,
,,,,,,,,,,,,,,,,,,5fb3814f2ed467ac73fe19fd,2020-11-27_16h06.10.045,lexical_decision_task_MP_exp2,2020.2.5,Linux armv8l,60,,0,0.460648261,-0.277777778,1,0,0,0.7618,button_right,0.7618,1,,,,,,37,WORD,"ID",33,insult,INSULT,m,,,,,,0.460648261,-0.277777778,1,0,0,,0,161,161,36,1,
,,,,,,,,,,,,,,,,,,5fb3814f2ed467ac73fe19fd,2020-11-27_16h06.10.045,lexical_decision_task_MP_exp2,2020.2.5,Linux armv8l,60,,0,-0.486574046,-0.276851908,1,0,0,0.8008,button_left,0.8008,1,,,,,,397,NW,UN,33,blunde,CAMBLE,z,,,,,,-0.486574046,-0.276851908,1,0,0,,0,162,162,396,1,
,,,,,,,,,,,,,,,,,,5fb3814f2ed467ac73fe19fd,2020-11-27_16h06.10.045,lexical_decision_task_MP_exp2,2020.2.5,Linux armv8l,60,,0,0.4625,-0.272222222,1,0,0,0.7287,button_right,0.7287,1,,,,,,33,WORD,"ID",33,butler,BUTLER,m,,,,,,0.4625,-0.272222222,1,0,0,,0,163,163,32,1,
,,,,,,,,,,,,,,,,,,5fb3814f2ed467ac73fe19fd,2020-11-27_16h06.10.045,lexical_decision_task_MP_exp2,2020.2.5,Linux armv8l,60,,0,-0.477314801,-0.274074131,1,0,0,0.7098,button_left,0.7098,1,,,,,,408,NW,UN,33,flumni,HURNIA,z,,,,,,-0.477314801,-0.274074131,1,0,0,,0,164,164,407,1,
,,,,,,,,,,,,,,,,,,5fb3814f2ed467ac73fe19fd,2020-11-27_16h06.10.045,lexical_decision_task_MP_exp2,2020.2.5,Linux armv8l,60,,0,0.454166667,-0.282407464,1,0,0,0.8478,button_right,0.8478,1,,,,,,201,WORD,UN,16,factor,ADMIRE,m,,,,,,0.454166667,-0.282407464,1,0,0,,0,165,165,200,1,
,,,,,,,,,,,,,,,,,,5fb3814f2ed467ac73fe19fd,2020-11-27_16h06.10.045,lexical_decision_task_MP_exp2,2020.2.5,Linux armv8l,60,,0,-0.482870356,-0.25648151,1,0,0,1.3372,button_left,1.3372,1,,,,,,355,NW,"ID",16,zingly,ZINGLY,z,,,,,,-0.482870356,-0.25648151,1,0,0,,0,166,166,354,1,
,,,,,,,,,,,,,,,,,,5fb3814f2ed467ac73fe19fd,2020-11-27_16h06.10.045,lexical_decision_task_MP_exp2,2020.2.5,Linux armv8l,60,,0,0.445833333,-0.284259288,1,0,0,0.8412,button_right,0.8412,1,,,,,,200,WORD,UN,16,admire,BEACON,m,,,,,,0.445833333,-0.284259288,1,0,0,,0,167,167,199,1,
,,,,,,,,,,,,,,,,,,5fb3814f2ed467ac73fe19fd,2020-11-27_16h06.10.045,lexical_decision_task_MP_exp2,2020.2.5,Linux armv8l,60,,0,-0.509722222,-0.265740797,1,0,0,0.8305,button_left,0.8305,1,,,,,,296,NW,"ID",33,beinch,BEINCH,z,,,,,,-0.509722222,-0.265740797,1,0,0,,0,168,168,295,1,
,,,,,,,,,,,,,,,,,,5fb3814f2ed467ac73fe19fd,2020-11-27_16h06.10.045,lexical_decision_task_MP_exp2,2020.2.5,Linux armv8l,60,,0,-0.540277778,-0.285185242,1,0,0,0.7374,button_left,0.7374,1,,,,,,406,NW,UN,33,suiver,NOUPLY,z,,,,,,-0.540277778,-0.285185242,1,0,0,,0,169,169,405,1,
,,,,,,,,,,,,,,,,,,5fb3814f2ed467ac73fe19fd,2020-11-27_16h06.10.045,lexical_decision_task_MP_exp2,2020.2.5,Linux armv8l,60,,0,0.453240797,-0.282407464,1,0,0,0.8317,button_right,0.8317,1,,,,,,59,WORD,"ID",33,splint,SPLINT,m,,,,,,0.453240797,-0.282407464,1,0,0,,0,170,170,58,1,
,,,,,,,,,,,,,,,,,,5fb3814f2ed467ac73fe19fd,2020-11-27_16h06.10.045,lexical_decision_task_MP_exp2,2020.2.5,Linux armv8l,60,,0,-0.531944444,-0.274074131,1,0,0,0.6718,button_left,0.6718,1,,,,,,404,NW,UN,33,syntic,CLUIRM,z,,,,,,-0.531944444,-0.274074131,1,0,0,,0,171,171,403,1,
,,,,,,,,,,,,,,,,,,5fb3814f2ed467ac73fe19fd,2020-11-27_16h06.10.045,lexical_decision_task_MP_exp2,2020.2.5,Linux armv8l,60,,0,0.468055556,-0.282407464,1,0,0,0.7601,button_right,0.7601,1,,,,,,129,WORD,UN,33,stupid,MARVEL,m,,,,,,0.468055556,-0.282407464,1,0,0,,0,172,172,128,1,
,,,,,,,,,,,,,,,,,,5fb3814f2ed467ac73fe19fd,2020-11-27_16h06.10.045,lexical_decision_task_MP_exp2,2020.2.5,Linux armv8l,60,,0,0.468055556,-0.282407464,1,0,0,0.9722,button_right,0.9722,1,,,,,,139,WORD,UN,33,prince,DEBRIS,m,,,,,,0.468055556,-0.282407464,1,0,0,,0,173,173,138,1,
,,,,,,,,,,,,,,,,,,5fb3814f2ed467ac73fe19fd,2020-11-27_16h06.10.045,lexical_decision_task_MP_exp2,2020.2.5,Linux armv8l,60,,0,0.468055556,-0.282407464,1,0,0,0.823,button_right,0.823,1,,,,,,107,WORD,"ID",16,slogan,SLOGAN,m,,,,,,0.468055556,-0.282407464,1,0,0,,0,174,174,106,1,
,,,,,,,,,,,,,,,,,,5fb3814f2ed467ac73fe19fd,2020-11-27_16h06.10.045,lexical_decision_task_MP_exp2,2020.2.5,Linux armv8l,60,,0,-0.5375,-0.268518575,1,0,0,0.7815,button_left,0.7815,1,,,,,,450,NW,UN,16,rastoe,PHRECT,z,,,,,,-0.5375,-0.268518575,1,0,0,,0,175,175,449,1,
,,,,,,,,,,,,,,,,,,5fb3814f2ed467ac73fe19fd,2020-11-27_16h06.10.045,lexical_decision_task_MP_exp2,2020.2.5,Linux armv8l,60,,0,-0.538425912,-0.268518575,1,0,0,0.875,button_left,0.875,1,,,,,,431,NW,UN,16,lunker,CHRUMS,z,,,,,,-0.538425912,-0.268518575,1,0,0,,0,176,176,430,1,
,,,,,,,,,,,,,,,,,,5fb3814f2ed467ac73fe19fd,2020-11-27_16h06.10.045,lexical_decision_task_MP_exp2,2020.2.5,Linux armv8l,60,,0,0.461574131,-0.277777778,1,0,0,0.891,button_right,0.891,1,,,,,,117,WORD,"ID",16,branch,BRANCH,m,,,,,,0.461574131,-0.277777778,1,0,0,,0,177,177,116,1,
,,,,,,,,,,,,,,,,,,5fb3814f2ed467ac73fe19fd,2020-11-27_16h06.10.045,lexical_decision_task_MP_exp2,2020.2.5,Linux armv8l,60,,0,0.4625,-0.276851908,1,0,0,0.8771,button_right,0.8771,1,,,,,,236,WORD,UN,16,poster,PIRATE,m,,,,,,0.4625,-0.276851908,1,0,0,,0,178,178,235,1,
,,,,,,,,,,,,,,,,,,5fb3814f2ed467ac73fe19fd,2020-11-27_16h06.10.045,lexical_decision_task_MP_exp2,2020.2.5,Linux armv8l,60,,0,0.472685242,-0.264814843,1,0,0,0.8029,button_right,0.8029,1,,,,,,29,WORD,"ID",33,sketch,SKETCH,m,,,,,,0.472685242,-0.264814843,1,0,0,,0,179,179,28,1,
,,,,,,,,,,,,,,,,,,5fb3814f2ed467ac73fe19fd,2020-11-27_16h06.10.045,lexical_decision_task_MP_exp2,2020.2.5,Linux armv8l,60,,0,0.473611111,-0.265740797,1,0,0,0.7603,button_right,0.7603,1,,,,,,221,WORD,UN,16,hinder,MASCOT,m,,,,,,0.473611111,-0.265740797,1,0,0,,0,180,180,220,1,
,,,,,,,,,,,,,,,,,,5fb3814f2ed467ac73fe19fd,2020-11-27_16h06.10.045,lexical_decision_task_MP_exp2,2020.2.5,Linux armv8l,60,,0,-0.552314801,-0.262037065,1,0,0,0.7923,button_left,0.7923,1,,,,,,297,NW,"ID",33,fertic,FERTIC,z,,,,,,-0.552314801,-0.262037065,1,0,0,,0,181,181,296,1,
,,,,,,,,,,,,,,,,,,5fb3814f2ed467ac73fe19fd,2020-11-27_16h06.10.045,lexical_decision_task_MP_exp2,2020.2.5,Linux armv8l,60,,0,-0.575462935,-0.250925954,1,0,0,0.7447,button_left,0.7447,1,,,,,,369,NW,UN,33,sleact,WRONCH,z,,,,,,-0.575462935,-0.250925954,1,0,0,,0,182,182,368,1,
,,,,,,,,,,,,,,,,,,5fb3814f2ed467ac73fe19fd,2020-11-27_16h06.10.045,lexical_decision_task_MP_exp2,2020.2.5,Linux armv8l,60,,0,0.467129686,-0.276851908,1,0,0,0.8085,button_right,0.8085,1,,,,,,58,WORD,"ID",33,foster,FOSTER,m,,,,,,0.467129686,-0.276851908,1,0,0,,0,183,183,57,1,
,,,,,,,,,,,,,,,,,,5fb3814f2ed467ac73fe19fd,2020-11-27_16h06.10.045,lexical_decision_task_MP_exp2,2020.2.5,Linux armv8l,60,,0,-0.581944444,-0.257407464,1,0,0,0.7127,button_left,0.7127,1,,,,,,279,NW,"ID",33,celond,CELOND,z,,,,,,-0.581944444,-0.257407464,1,0,0,,0,184,184,278,1,
,,,,,,,,,,,,,,,,,,5fb3814f2ed467ac73fe19fd,2020-11-27_16h06.10.045,lexical_decision_task_MP_exp2,2020.2.5,Linux armv8l,60,,0,0.471759372,-0.267592621,1,0,0,0.7096,button_right,0.7096,1,,,,,,190,WORD,UN,16,stable,BACKUP,m,,,,,,0.471759372,-0.267592621,1,0,0,,0,185,185,189,1,
,,,,,,,,,,,,,,,,,,5fb3814f2ed467ac73fe19fd,2020-11-27_16h06.10.045,lexical_decision_task_MP_exp2,2020.2.5,Linux armv8l,60,,0,0.470833333,-0.267592621,1,0,0,0.7106,button_right,0.7106,1,,,,,,72,WORD,"ID",16,bright,BRIGHT,m,,,,,,0.470833333,-0.267592621,1,0,0,,0,186,186,71,1,
,,,,,,,,,,,,,,,,,,5fb3814f2ed467ac73fe19fd,2020-11-27_16h06.10.045,lexical_decision_task_MP_exp2,2020.2.5,Linux armv8l,60,,0,0.479166667,-0.277777778,1,0,0,0.6892,button_right,0.6892,1,,,,,,143,WORD,UN,33,sponge,REASON,m,,,,,,0.479166667,-0.277777778,1,0,0,,0,187,187,142,1,
,,,,,,,,,,,,,,,,,,5fb3814f2ed467ac73fe19fd,2020-11-27_16h06.10.045,lexical_decision_task_MP_exp2,2020.2.5,Linux armv8l,60,,0,0.479166667,-0.276851908,1,0,0,0.7614,button_right,0.7614,1,,,,,,98,WORD,"ID",16,belong,BELONG,m,,,,,,0.479166667,-0.276851908,1,0,0,,0,188,188,97,1,
,,,,,,,,,,,,,,,,,,5fb3814f2ed467ac73fe19fd,2020-11-27_16h06.10.045,lexical_decision_task_MP_exp2,2020.2.5,Linux armv8l,60,,0,0.479166667,-0.276851908,1,0,0,0.6441,button_right,0.6441,1,,,,,,149,WORD,UN,33,random,INVADE,m,,,,,,0.479166667,-0.276851908,1,0,0,,0,189,189,148,1,
,,,,,,,,,,,,,,,,,,5fb3814f2ed467ac73fe19fd,2020-11-27_16h06.10.045,lexical_decision_task_MP_exp2,2020.2.5,Linux armv8l,60,,0,0.478240797,-0.276851908,1,0,0,0.6441,button_right,0.6441,1,,,,,,219,WORD,UN,16,voyage,BUCKET,m,,,,,,0.478240797,-0.276851908,1,0,0,,0,190,190,218,1,
,,,,,,,,,,,,,,,,,,5fb3814f2ed467ac73fe19fd,2020-11-27_16h06.10.045,lexical_decision_task_MP_exp2,2020.2.5,Linux armv8l,60,,0,0.478240797,-0.276851908,1,0,0,0.6085,button_right,0.6085,1,,,,,,150,WORD,UN,33,mystic,RANDOM,m,,,,,,0.478240797,-0.276851908,1,0,0,,0,191,191,149,1,
,,,,,,,,,,,,,,,,,,5fb3814f2ed467ac73fe19fd,2020-11-27_16h06.10.045,lexical_decision_task_MP_exp2,2020.2.5,Linux armv8l,60,,0,0.478240797,-0.276851908,1,0,0,0.6407,button_right,0.6407,1,,,,,,212,WORD,UN,16,squeal,VERIFY,m,,,,,,0.478240797,-0.276851908,1,0,0,,0,192,192,211,1,
,,,,,,,,,,,,,,,,,,5fb3814f2ed467ac73fe19fd,2020-11-27_16h06.10.045,lexical_decision_task_MP_exp2,2020.2.5,Linux armv8l,60,,0,0.478240797,-0.276851908,1,0,0,0.6195,button_right,0.6195,1,,,,,,223,WORD,UN,16,period,KIDNEY,m,,,,,,0.478240797,-0.276851908,1,0,0,,0,193,193,222,1,
,,,,,,,,,,,,,,,,,,5fb3814f2ed467ac73fe19fd,2020-11-27_16h06.10.045,lexical_decision_task_MP_exp2,2020.2.5,Linux armv8l,60,,0,-0.607870356,-0.275,1,0,0,0.7394,button_left,0.7394,1,,,,,,457,NW,UN,16,barcet,WANIGH,z,,,,,,-0.565277778,-0.242592621,1,0,0,,0,194,194,456,1,
,,,,,,,,,,,,,,,,,,5fb3814f2ed467ac73fe19fd,2020-11-27_16h06.10.045,lexical_decision_task_MP_exp2,2020.2.5,Linux armv8l,60,,0,0.473611111,-0.280555556,1,0,0,0.6152,button_right,0.6152,1,,,,,,51,WORD,"ID",33,hungry,HUNGRY,m,,,,,,0.473611111,-0.280555556,1,0,0,,0,195,195,50,1,
,,,,,,,,,,,,,,,,,,5fb3814f2ed467ac73fe19fd,2020-11-27_16h06.10.045,lexical_decision_task_MP_exp2,2020.2.5,Linux armv8l,60,,0,0.47453715,-0.279629686,1,0,0,0.8539,button_right,0.8539,1,,,,,,138,WORD,UN,33,staple,MELODY,m,,,,,,0.47453715,-0.279629686,1,0,0,,0,196,196,137,1,
,,,,,,,,,,,,,,,,,,5fb3814f2ed467ac73fe19fd,2020-11-27_16h06.10.045,lexical_decision_task_MP_exp2,2020.2.5,Linux armv8l,60,,0,0.481944444,-0.292592621,1,0,0,0.9648,button_right,0.9648,1,,,,,,106,WORD,"ID",16,ransom,RANSOM,m,,,,,,0.481944444,-0.292592621,1,0,0,,0,197,197,105,1,
,,,,,,,,,,,,,,,,,,5fb3814f2ed467ac73fe19fd,2020-11-27_16h06.10.045,lexical_decision_task_MP_exp2,2020.2.5,Linux armv8l,60,,0,-0.488425912,-0.293518575,1,0,0,0.956,button_left,0.956,1,,,,,,376,NW,UN,33,sliant,IGUARE,z,,,,,,-0.488425912,-0.293518575,1,0,0,,0,198,198,375,1,
,,,,,,,,,,,,,,,,,,5fb3814f2ed467ac73fe19fd,2020-11-27_16h06.10.045,lexical_decision_task_MP_exp2,2020.2.5,Linux armv8l,60,,0,0.488426039,-0.287963019,1,0,0,0.6944,button_right,0.6944,1,,,,,,202,WORD,UN,16,phrase,FACTOR,m,,,,,,0.488426039,-0.287963019,1,0,0,,0,199,199,201,1,
,,,,,,,,,,,,,,,,,,5fb3814f2ed467ac73fe19fd,2020-11-27_16h06.10.045,lexical_decision_task_MP_exp2,2020.2.5,Linux armv8l,60,,0,-0.511574046,-0.294444444,1,0,0,0.7903,button_left,0.7903,1,,,,,,316,NW,"ID",16,scregm,SCREGM,z,,,,,,-0.511574046,-0.294444444,1,0,0,,0,200,200,315,1,
,,,,,,,,,,,,,,,,,,5fb3814f2ed467ac73fe19fd,2020-11-27_16h06.10.045,lexical_decision_task_MP_exp2,2020.2.5,Linux armv8l,60,,0,0.483796353,-0.296296353,1,0,0,0.6646,button_right,0.6646,1,,,,,,28,WORD,"ID",33,comedy,COMEDY,m,,,,,,0.483796353,-0.296296353,1,0,0,,0,201,201,27,1,
,,,,,,,,,,,,,,,,,,5fb3814f2ed467ac73fe19fd,2020-11-27_16h06.10.045,lexical_decision_task_MP_exp2,2020.2.5,Linux armv8l,60,,0,0.492129686,-0.284259288,1,0,0,0.7467,button_right,0.7467,1,,,,,,132,WORD,UN,33,bleach,STRONG,m,,,,,,0.492129686,-0.284259288,1,0,0,,0,202,202,131,1,
,,,,,,,,,,,,,,,,,,5fb3814f2ed467ac73fe19fd,2020-11-27_16h06.10.045,lexical_decision_task_MP_exp2,2020.2.5,Linux armv8l,60,,0,-0.517129601,-0.289814843,1,0,0,0.8705,button_left,0.8705,1,,,,,,313,NW,"ID",16,paurse,PAURSE,z,,,,,,-0.517129601,-0.289814843,1,0,0,,0,203,203,312,1,
,,,,,,,,,,,,,,,,,,5fb3814f2ed467ac73fe19fd,2020-11-27_16h06.10.045,lexical_decision_task_MP_exp2,2020.2.5,Linux armv8l,60,,0,0.483796353,-0.296296353,1,0,0,0.7773,button_right,0.7773,1,,,,,,36,WORD,"ID",33,vanish,VANISH,m,,,,,,0.483796353,-0.296296353,1,0,0,,0,204,204,35,1,
,,,,,,,,,,,,,,,,,,5fb3814f2ed467ac73fe19fd,2020-11-27_16h06.10.045,lexical_decision_task_MP_exp2,2020.2.5,Linux armv8l,60,,0,-0.546759245,-0.272222222,1,0,0,0.796,button_left,0.796,1,,,,,,353,NW,"ID",16,clurey,CLUREY,z,,,,,,-0.546759245,-0.272222222,1,0,0,,0,205,205,352,1,
,,,,,,,,,,,,,,,,,,5fb3814f2ed467ac73fe19fd,2020-11-27_16h06.10.045,lexical_decision_task_MP_exp2,2020.2.5,Linux armv8l,60,,0,0.489351908,-0.297222222,1,0,0,0.7133,button_right,0.7133,1,,,,,,32,WORD,"ID",33,buckle,BUCKLE,m,,,,,,0.489351908,-0.297222222,1,0,0,,0,206,206,31,1,
,,,,,,,,,,,,,,,,,,5fb3814f2ed467ac73fe19fd,2020-11-27_16h06.10.045,lexical_decision_task_MP_exp2,2020.2.5,Linux armv8l,60,,0,-0.557870356,-0.268518575,1,0,0,0.7761,button_left,0.7761,1,,,,,,273,NW,"ID",33,sortel,SORTEL,z,,,,,,-0.557870356,-0.268518575,1,0,0,,0,207,207,272,1,
,,,,,,,,,,,,,,,,,,5fb3814f2ed467ac73fe19fd,2020-11-27_16h06.10.045,lexical_decision_task_MP_exp2,2020.2.5,Linux armv8l,60,,0,0.484722222,-0.294444444,1,0,0,0.6788,button_right,0.6788,1,,,,,,135,WORD,UN,33,chrome,IMPORT,m,,,,,,0.484722222,-0.294444444,1,0,0,,0,208,208,134,1,
,,,,,,,,,,,,,,,,,,5fb3814f2ed467ac73fe19fd,2020-11-27_16h06.10.045,lexical_decision_task_MP_exp2,2020.2.5,Linux armv8l,60,,0,0.492129686,-0.285185242,1,0,0,0.7435,button_right,0.7435,1,,,,,,229,WORD,UN,16,fringe,MOTHER,m,,,,,,0.492129686,-0.285185242,1,0,0,,0,209,209,228,1,
,,,,,,,,,,,,,,,,,,5fb3814f2ed467ac73fe19fd,2020-11-27_16h06.10.045,lexical_decision_task_MP_exp2,2020.2.5,Linux armv8l,60,,0,0.485648261,-0.295370399,1,0,0,0.7142,button_right,0.7142,1,,,,,,227,WORD,UN,16,master,SELDOM,m,,,,,,0.485648261,-0.295370399,1,0,0,,0,210,210,226,1,
,,,,,,,,,,,,,,,,,,5fb3814f2ed467ac73fe19fd,2020-11-27_16h06.10.045,lexical_decision_task_MP_exp2,2020.2.5,Linux armv8l,60,,0,0.481018575,-0.275925954,1,0,0,0.8278,button_right,0.8278,1,,,,,,69,WORD,"ID",16,plenty,PLENTY,m,,,,,,0.481018575,-0.275925954,1,0,0,,0,211,211,68,1,
,,,,,,,,,,,,,,,,,,5fb3814f2ed467ac73fe19fd,2020-11-27_16h06.10.045,lexical_decision_task_MP_exp2,2020.2.5,Linux armv8l,60,,0,0.481018575,-0.275925954,1,0,0,0.708,button_right,0.708,1,,,,,,233,WORD,UN,16,clumsy,NATURE,m,,,,,,0.481018575,-0.275925954,1,0,0,,0,212,212,232,1,
,,,,,,,,,,,,,,,,,,5fb3814f2ed467ac73fe19fd,2020-11-27_16h06.10.045,lexical_decision_task_MP_exp2,2020.2.5,Linux armv8l,60,,0,-0.55601849,-0.282407464,1,0,0,0.7297,button_left,0.7297,1,,,,,,468,NW,UN,16,padifs,WICTOR,z,,,,,,-0.55601849,-0.282407464,1,0,0,,0,213,213,467,1,
,,,,,,,,,,,,,,,,,,5fb3814f2ed467ac73fe19fd,2020-11-27_16h06.10.045,lexical_decision_task_MP_exp2,2020.2.5,Linux armv8l,60,,0,-0.579166667,-0.274074131,1,0,0,0.9267,button_left,0.9267,1,,,,,,386,NW,UN,33,gronce,ANCUST,z,,,,,,-0.579166667,-0.274074131,1,0,0,,0,214,214,385,1,
,,,,,,,,,,,,,,,,,,5fb3814f2ed467ac73fe19fd,2020-11-27_16h06.10.045,lexical_decision_task_MP_exp2,2020.2.5,Linux armv8l,60,,0,0.488426039,-0.296296353,1,0,0,0.8089,button_right,0.8089,1,,,,,,82,WORD,"ID",16,stigma,STIGMA,m,,,,,,0.488426039,-0.296296353,1,0,0,,0,215,215,81,1,
,,,,,,,,,,,,,,,,,,5fb3814f2ed467ac73fe19fd,2020-11-27_16h06.10.045,lexical_decision_task_MP_exp2,2020.2.5,Linux armv8l,60,,0,0.488426039,-0.295370399,1,0,0,0.8597,button_right,0.8597,1,,,,,,177,WORD,UN,33,inform,ADVENT,m,,,,,,0.488426039,-0.295370399,1,0,0,,0,216,216,176,1,
,,,,,,,,,,,,,,,,,,5fb3814f2ed467ac73fe19fd,2020-11-27_16h06.10.045,lexical_decision_task_MP_exp2,2020.2.5,Linux armv8l,60,,0,0.491203817,-0.282407464,1,0,0,0.712,button_right,0.712,1,,,,,,240,WORD,UN,16,glance,FOREST,m,,,,,,0.491203817,-0.282407464,1,0,0,,0,217,217,239,1,
,,,,,,,,,,,,,,,,,,5fb3814f2ed467ac73fe19fd,2020-11-27_16h06.10.045,lexical_decision_task_MP_exp2,2020.2.5,Linux armv8l,60,,0,-0.571759245,-0.274074131,1,0,0,0.6639,button_left,0.6639,1,,,,,,248,NW,"ID",33,strole,STROLE,z,,,,,,-0.571759245,-0.274074131,1,0,0,,0,218,218,247,1,
,,,,,,,,,,,,,,,,,,5fb3814f2ed467ac73fe19fd,2020-11-27_16h06.10.045,lexical_decision_task_MP_exp2,2020.2.5,Linux armv8l,60,,0,0.485648261,-0.287963019,1,0,0,0.7412,button_right,0.7412,1,,,,,,42,WORD,"ID",33,chapel,CHAPEL,m,,,,,,0.485648261,-0.287963019,1,0,0,,0,219,219,41,1,
,,,,,,,,,,,,,,,,,,5fb3814f2ed467ac73fe19fd,2020-11-27_16h06.10.045,lexical_decision_task_MP_exp2,2020.2.5,Linux armv8l,60,,0,-0.573611111,-0.272222222,1,0,0,0.6755,button_left,0.6755,1,,,,,,317,NW,"ID",16,worbal,WORBAL,z,,,,,,-0.573611111,-0.272222222,1,0,0,,0,220,220,316,1,
,,,,,,,,,,,,,,,,,,5fb3814f2ed467ac73fe19fd,2020-11-27_16h06.10.045,lexical_decision_task_MP_exp2,2020.2.5,Linux armv8l,60,,0,-0.596759245,-0.265740797,1,0,0,0.6823,button_left,0.6823,1,,,,,,456,NW,UN,16,wanigh,BROGET,z,,,,,,-0.596759245,-0.265740797,1,0,0,,0,221,221,455,1,
,,,,,,,,,,,,,,,,,,5fb3814f2ed467ac73fe19fd,2020-11-27_16h06.10.045,lexical_decision_task_MP_exp2,2020.2.5,Linux armv8l,60,,0,0.479166667,-0.289814843,1,0,0,0.6624,button_right,0.6624,1,,,,,,27,WORD,"ID",33,scream,SCREAM,m,,,,,,0.479166667,-0.289814843,1,0,0,,0,222,222,26,1,
,,,,,,,,,,,,,,,,,,5fb3814f2ed467ac73fe19fd,2020-11-27_16h06.10.045,lexical_decision_task_MP_exp2,2020.2.5,Linux armv8l,60,,0,-0.558796268,-0.262963019,1,0,0,0.7057,button_left,0.7057,1,,,,,,332,NW,"ID",16,vangue,VANGUE,z,,,,,,-0.558796268,-0.262963019,1,0,0,,0,223,223,331,1,
,,,,,,,,,,,,,,,,,,5fb3814f2ed467ac73fe19fd,2020-11-27_16h06.10.045,lexical_decision_task_MP_exp2,2020.2.5,Linux armv8l,60,,0,0.4875,-0.304629686,1,0,0,0.5874,button_right,0.5874,1,,,,,,231,WORD,UN,16,mother,EXPORT,m,,,,,,0.4875,-0.304629686,1,0,0,,0,224,224,230,1,
,,,,,,,,,,,,,,,,,,5fb3814f2ed467ac73fe19fd,2020-11-27_16h06.10.045,lexical_decision_task_MP_exp2,2020.2.5,Linux armv8l,60,,0,-0.55601849,-0.280555556,1,0,0,0.6391,button_left,0.6391,1,,,,,,241,NW,"ID",33,smenco,SMENCO,z,,,,,,-0.55601849,-0.280555556,1,0,0,,0,225,225,240,1,
,,,,,,,,,,,,,,,,,,5fb3814f2ed467ac73fe19fd,2020-11-27_16h06.10.045,lexical_decision_task_MP_exp2,2020.2.5,Linux armv8l,60,,0,0.480092706,-0.276851908,1,0,0,0.7856,button_right,0.7856,1,,,,,,220,WORD,UN,16,mascot,VOYAGE,m,,,,,,0.480092706,-0.276851908,1,0,0,,0,226,226,219,1,
,,,,,,,,,,,,,,,,,,5fb3814f2ed467ac73fe19fd,2020-11-27_16h06.10.045,lexical_decision_task_MP_exp2,2020.2.5,Linux armv8l,60,,0,0.475463019,-0.292592621,1,0,0,0.8044,button_right,0.8044,1,,,,,,127,WORD,UN,33,senior,CASTLE,m,,,,,,0.475463019,-0.292592621,1,0,0,,0,227,227,126,1,
,,,,,,,,,,,,,,,,,,5fb3814f2ed467ac73fe19fd,2020-11-27_16h06.10.045,lexical_decision_task_MP_exp2,2020.2.5,Linux armv8l,60,,0,-0.561574046,-0.275,1,0,0,0.742,button_left,0.742,1,,,,,,276,NW,"ID",33,yarmon,YARMON,z,,,,,,-0.561574046,-0.275,1,0,0,,0,228,228,275,1,
,,,,,,,,,,,,,,,,,,5fb3814f2ed467ac73fe19fd,2020-11-27_16h06.10.045,lexical_decision_task_MP_exp2,2020.2.5,Linux armv8l,60,,0,0.479166667,-0.287963019,1,0,0,0.9321,button_right,0.9321,1,,,,,,222,WORD,UN,16,casino,HINDER,m,,,,,,0.479166667,-0.287963019,1,0,0,,0,229,229,221,1,
,,,,,,,,,,,,,,,,,,5fb3814f2ed467ac73fe19fd,2020-11-27_16h06.10.045,lexical_decision_task_MP_exp2,2020.2.5,Linux armv8l,60,,0,-0.565277778,-0.289814843,1,0,0,0.8635,button_left,0.8635,1,,,,,,304,NW,"ID",16,cludie,CLUDIE,z,,,,,,-0.565277778,-0.289814843,1,0,0,,0,230,230,303,1,
,,,,,,,,,,,,,,,,,,5fb3814f2ed467ac73fe19fd,2020-11-27_16h06.10.045,lexical_decision_task_MP_exp2,2020.2.5,Linux armv8l,60,,0,-0.568055556,-0.270370399,1,0,0,0.8094,button_left,0.8094,1,,,,,,256,NW,"ID",33,inlors,INLORS,z,,,,,,-0.568055556,-0.270370399,1,0,0,,0,231,231,255,1,
,,,,,,,,,,,,,,,,,,5fb3814f2ed467ac73fe19fd,2020-11-27_16h06.10.045,lexical_decision_task_MP_exp2,2020.2.5,Linux armv8l,60,,0,-0.600462935,-0.273148176,1,0,0,0.7093,button_left,0.7093,1,,,,,,413,NW,UN,33,serbol,EQUATS,z,,,,,,-0.499537023,-0.279629686,1,0,0,,0,232,232,412,1,
,,,,,,,,,,,,,,,,,,5fb3814f2ed467ac73fe19fd,2020-11-27_16h06.10.045,lexical_decision_task_MP_exp2,2020.2.5,Linux armv8l,60,,0,-0.534722222,-0.294444444,1,0,0,0.7689,button_left,0.7689,1,,,,,,473,NW,UN,16,hablin,CRIBLE,z,,,,,,-0.534722222,-0.294444444,1,0,0,,0,233,233,472,1,
,,,,,,,,,,,,,,,,,,5fb3814f2ed467ac73fe19fd,2020-11-27_16h06.10.045,lexical_decision_task_MP_exp2,2020.2.5,Linux armv8l,60,,0,0.466203817,-0.282407464,1,0,0,0.7454,button_right,0.7454,1,,,,,,23,WORD,"ID",33,wealth,WEALTH,m,,,,,,0.466203817,-0.282407464,1,0,0,,0,234,234,22,1,
,,,,,,,,,,,,,,,,,,5fb3814f2ed467ac73fe19fd,2020-11-27_16h06.10.045,lexical_decision_task_MP_exp2,2020.2.5,Linux armv8l,60,,0,-0.534722222,-0.271296353,1,0,0,0.7779,button_left,0.7779,1,,,,,,346,NW,"ID",16,saudic,SAUDIC,z,,,,,,-0.534722222,-0.271296353,1,0,0,,0,235,235,345,1,
,,,,,,,,,,,,,,,,,,5fb3814f2ed467ac73fe19fd,2020-11-27_16h06.10.045,lexical_decision_task_MP_exp2,2020.2.5,Linux armv8l,60,,0,-0.451388889,-0.263888889,1,0,0,0.7604,button_left,0.7604,1,,,,,,410,NW,UN,33,orchin,TUNORY,z,,,,,,-0.451388889,-0.263888889,1,0,0,,0,236,236,409,1,
,,,,,,,,,,,,,,,,,,5fb3814f2ed467ac73fe19fd,2020-11-27_16h06.10.045,lexical_decision_task_MP_exp2,2020.2.5,Linux armv8l,60,,0,0.461574131,-0.28148151,1,0,0,0.945,button_right,0.945,1,,,,,,87,WORD,"ID",16,filter,FILTER,m,,,,,,0.461574131,-0.28148151,1,0,0,,0,237,237,86,1,
,,,,,,,,,,,,,,,,,,5fb3814f2ed467ac73fe19fd,2020-11-27_16h06.10.045,lexical_decision_task_MP_exp2,2020.2.5,Linux armv8l,60,,0,-0.479166667,-0.277777778,1,0,0,0.7118,button_left,0.7118,1,,,,,,403,NW,UN,33,cluirm,BRUATS,z,,,,,,-0.479166667,-0.277777778,1,0,0,,0,238,238,402,1,
,,,,,,,,,,,,,,,,,,5fb3814f2ed467ac73fe19fd,2020-11-27_16h06.10.045,lexical_decision_task_MP_exp2,2020.2.5,Linux armv8l,60,,0,-0.488425912,-0.270370399,1,0,0,1.1945,button_left,1.1945,1,,,,,,335,NW,"ID",16,desion,DESION,z,,,,,,-0.488425912,-0.270370399,1,0,0,,0,239,239,334,1,
,,,,,,,,,,,,,,,,,,5fb3814f2ed467ac73fe19fd,2020-11-27_16h06.10.045,lexical_decision_task_MP_exp2,2020.2.5,Linux armv8l,60,,0,0.457870483,-0.280555556,1,0,0,0.8084,button_right,0.8084,1,,,,,,159,WORD,UN,33,violet,DETAIL,m,,,,,,0.457870483,-0.280555556,1,0,0,,0,240,240,158,1,
,,,,,,,,,,,,,,,,,,5fb3814f2ed467ac73fe19fd,2020-11-27_16h06.10.045,lexical_decision_task_MP_exp2,2020.2.5,Linux armv8l,60,,0,0.458796353,-0.280555556,1,0,0,0.7606,button_right,0.7606,1,,,,,,26,WORD,"ID",33,sprint,SPRINT,m,,,,,,0.046759288,-0.425925954,1,0,0,,0,241,241,25,1,break_done_button
,,,,,,,,,,,,,,,,,,5fb3814f2ed467ac73fe19fd,2020-11-27_16h06.10.045,lexical_decision_task_MP_exp2,2020.2.5,Linux armv8l,60,,0,-0.478240712,-0.294444444,1,0,0,0.6877,button_left,0.6877,1,,,,,,282,NW,"ID",33,porlex,PORLEX,z,,,,,,-0.478240712,-0.294444444,1,0,0,,0,242,242,281,1,
,,,,,,,,,,,,,,,,,,5fb3814f2ed467ac73fe19fd,2020-11-27_16h06.10.045,lexical_decision_task_MP_exp2,2020.2.5,Linux armv8l,60,,0,0.427314843,-0.287037065,1,0,0,0.6799,button_right,0.6799,1,,,,,,226,WORD,UN,16,flower,CASINO,m,,,,,,0.427314843,-0.287037065,1,0,0,,0,243,243,225,1,
,,,,,,,,,,,,,,,,,,5fb3814f2ed467ac73fe19fd,2020-11-27_16h06.10.045,lexical_decision_task_MP_exp2,2020.2.5,Linux armv8l,60,,0,-0.493055556,-0.303703732,1,0,0,0.6776,button_left,0.6776,1,,,,,,443,NW,UN,16,jaunce,DORSEX,z,,,,,,-0.493055556,-0.303703732,1,0,0,,0,244,244,442,1,
,,,,,,,,,,,,,,,,,,5fb3814f2ed467ac73fe19fd,2020-11-27_16h06.10.045,lexical_decision_task_MP_exp2,2020.2.5,Linux armv8l,60,,0,0.466203817,-0.297222222,1,0,0,0.7104,button_right,0.7104,1,,,,,,60,WORD,"ID",33,pencil,PENCIL,m,,,,,,0.466203817,-0.297222222,1,0,0,,0,245,245,59,1,
,,,,,,,,,,,,,,,,,,5fb3814f2ed467ac73fe19fd,2020-11-27_16h06.10.045,lexical_decision_task_MP_exp2,2020.2.5,Linux armv8l,60,,0,0.451388889,-0.312963019,1,0,0,0.6695,button_right,0.6695,1,,,,,,165,WORD,UN,33,starch,INVEST,m,,,,,,0.451388889,-0.312963019,1,0,0,,0,246,246,164,1,
,,,,,,,,,,,,,,,,,,5fb3814f2ed467ac73fe19fd,2020-11-27_16h06.10.045,lexical_decision_task_MP_exp2,2020.2.5,Linux armv8l,60,,0,0.451388889,-0.312037065,1,0,0,0.6428,button_right,0.6428,1,,,,,,35,WORD,"ID",33,socket,SOCKET,m,,,,,,0.451388889,-0.312037065,1,0,0,,0,247,247,34,1,
,,,,,,,,,,,,,,,,,,5fb3814f2ed467ac73fe19fd,2020-11-27_16h06.10.045,lexical_decision_task_MP_exp2,2020.2.5,Linux armv8l,60,,0,0.455092706,-0.3,1,0,0,0.5901,button_right,0.5901,1,,,,,,210,WORD,UN,16,infect,MONKEY,m,,,,,,0.455092706,-0.3,1,0,0,,0,248,248,209,1,
,,,,,,,,,,,,,,,,,,5fb3814f2ed467ac73fe19fd,2020-11-27_16h06.10.045,lexical_decision_task_MP_exp2,2020.2.5,Linux armv8l,60,,0,-0.486574046,-0.289814843,1,0,0,0.647,button_left,0.647,1,,,,,,252,NW,"ID",33,stapod,STAPOD,z,,,,,,-0.486574046,-0.289814843,1,0,0,,0,249,249,251,1,
,,,,,,,,,,,,,,,,,,5fb3814f2ed467ac73fe19fd,2020-11-27_16h06.10.045,lexical_decision_task_MP_exp2,2020.2.5,Linux armv8l,60,,0,-0.4875,-0.289814843,1,0,0,0.7414,button_left,0.7414,1,,,,,,329,NW,"ID",16,yarike,YARIKE,z,,,,,,-0.4875,-0.289814843,1,0,0,,0,250,250,328,1,
,,,,,,,,,,,,,,,,,,5fb3814f2ed467ac73fe19fd,2020-11-27_16h06.10.045,lexical_decision_task_MP_exp2,2020.2.5,Linux armv8l,60,,0,0.461574131,-0.302777778,1,0,0,0.697,button_right,0.697,1,,,,,,100,WORD,"ID",16,carbon,CARBON,m,,,,,,0.461574131,-0.302777778,1,0,0,,0,251,251,99,1,
,,,,,,,,,,,,,,,,,,5fb3814f2ed467ac73fe19fd,2020-11-27_16h06.10.045,lexical_decision_task_MP_exp2,2020.2.5,Linux armv8l,60,,0,-0.506944444,-0.289814843,1,0,0,0.7286,button_left,0.7286,1,,,,,,476,NW,UN,16,photie,JOSTED,z,,,,,,-0.506944444,-0.289814843,1,0,0,,0,252,252,475,1,
,,,,,,,,,,,,,,,,,,5fb3814f2ed467ac73fe19fd,2020-11-27_16h06.10.045,lexical_decision_task_MP_exp2,2020.2.5,Linux armv8l,60,,0,-0.506944444,-0.288888889,1,0,0,0.8746,button_left,0.8746,1,,,,,,291,NW,"ID",33,pretch,PRETCH,z,,,,,,-0.506944444,-0.288888889,1,0,0,,0,253,253,290,1,
,,,,,,,,,,,,,,,,,,5fb3814f2ed467ac73fe19fd,2020-11-27_16h06.10.045,lexical_decision_task_MP_exp2,2020.2.5,Linux armv8l,60,,0,-0.50601849,-0.288888889,1,0,0,0.7454,button_left,0.7454,1,,,,,,281,NW,"ID",33,melaty,MELATY,z,,,,,,-0.50601849,-0.288888889,1,0,0,,0,254,254,280,1,
,,,,,,,,,,,,,,,,,,5fb3814f2ed467ac73fe19fd,2020-11-27_16h06.10.045,lexical_decision_task_MP_exp2,2020.2.5,Linux armv8l,60,,0,0.468981595,-0.298148176,1,0,0,0.7937,button_right,0.7937,1,,,,,,124,WORD,UN,33,nickel,BLOUSE,m,,,,,,0.468981595,-0.298148176,1,0,0,,0,255,255,123,1,
,,,,,,,,,,,,,,,,,,5fb3814f2ed467ac73fe19fd,2020-11-27_16h06.10.045,lexical_decision_task_MP_exp2,2020.2.5,Linux armv8l,60,,0,0.468981595,-0.298148176,1,0,0,0.9201,button_right,0.9201,1,,,,,,68,WORD,"ID",16,fumble,FUMBLE,m,,,,,,0.468981595,-0.298148176,1,0,0,,0,256,256,67,1,
,,,,,,,,,,,,,,,,,,5fb3814f2ed467ac73fe19fd,2020-11-27_16h06.10.045,lexical_decision_task_MP_exp2,2020.2.5,Linux armv8l,60,,0,0.468981595,-0.298148176,1,0,0,0.7117,button_right,0.7117,1,,,,,,157,WORD,UN,33,island,DRAGON,m,,,,,,0.468981595,-0.298148176,1,0,0,,0,257,257,156,1,
,,,,,,,,,,,,,,,,,,5fb3814f2ed467ac73fe19fd,2020-11-27_16h06.10.045,lexical_decision_task_MP_exp2,2020.2.5,Linux armv8l,60,,0,0.458796353,-0.303703732,1,0,0,0.6427,button_right,0.6427,1,,,,,,133,WORD,UN,33,debris,CHROME,m,,,,,,0.458796353,-0.303703732,1,0,0,,0,258,258,132,1,
,,,,,,,,,,,,,,,,,,5fb3814f2ed467ac73fe19fd,2020-11-27_16h06.10.045,lexical_decision_task_MP_exp2,2020.2.5,Linux armv8l,60,,0,-0.479166667,-0.295370399,1,0,0,0.9602,button_left,0.9602,1,,,,,,284,NW,"ID",33,shaple,SHAPLE,z,,,,,,-0.479166667,-0.295370399,1,0,0,,0,259,259,283,1,
,,,,,,,,,,,,,,,,,,5fb3814f2ed467ac73fe19fd,2020-11-27_16h06.10.045,lexical_decision_task_MP_exp2,2020.2.5,Linux armv8l,60,,0,0.457870483,-0.3,1,0,0,0.7961,button_right,0.7961,1,,,,,,213,WORD,UN,16,intake,SQUEAL,m,,,,,,0.457870483,-0.3,1,0,0,,0,260,260,212,1,
,,,,,,,,,,,,,,,,,,5fb3814f2ed467ac73fe19fd,2020-11-27_16h06.10.045,lexical_decision_task_MP_exp2,2020.2.5,Linux armv8l,60,,0,0.458796353,-0.299074131,1,0,0,0.6287,button_right,0.6287,1,,,,,,22,WORD,"ID",33,jockey,JOCKEY,m,,,,,,0.458796353,-0.299074131,1,0,0,,0,261,261,21,1,
,,,,,,,,,,,,,,,,,,5fb3814f2ed467ac73fe19fd,2020-11-27_16h06.10.045,lexical_decision_task_MP_exp2,2020.2.5,Linux armv8l,60,,0,-0.488425912,-0.283333333,1,0,0,0.7973,button_left,0.7973,1,,,,,,285,NW,"ID",33,prudge,PRUDGE,z,,,,,,-0.488425912,-0.283333333,1,0,0,,0,262,262,284,1,
,,,,,,,,,,,,,,,,,,5fb3814f2ed467ac73fe19fd,2020-11-27_16h06.10.045,lexical_decision_task_MP_exp2,2020.2.5,Linux armv8l,60,,0,0.467129686,-0.3,1,0,0,0.8335,button_right,0.8335,1,,,,,,8,WORD,"ID",33,abrupt,ABRUPT,m,,,,,,0.467129686,-0.3,1,0,0,,0,263,263,7,1,
,,,,,,,,,,,,,,,,,,5fb3814f2ed467ac73fe19fd,2020-11-27_16h06.10.045,lexical_decision_task_MP_exp2,2020.2.5,Linux armv8l,60,,0,0.460648261,-0.290740797,1,0,0,0.8291,button_right,0.8291,1,,,,,,116,WORD,"ID",16,tumble,TUMBLE,m,,,,,,0.460648261,-0.290740797,1,0,0,,0,264,264,115,1,
,,,,,,,,,,,,,,,,,,5fb3814f2ed467ac73fe19fd,2020-11-27_16h06.10.045,lexical_decision_task_MP_exp2,2020.2.5,Linux armv8l,60,,0,-0.489351824,-0.28148151,1,0,0,0.8974,button_left,0.8974,1,,,,,,307,NW,"ID",16,kirafe,KIRAFE,z,,,,,,-0.489351824,-0.28148151,1,0,0,,0,265,265,306,1,
,,,,,,,,,,,,,,,,,,5fb3814f2ed467ac73fe19fd,2020-11-27_16h06.10.045,lexical_decision_task_MP_exp2,2020.2.5,Linux armv8l,60,,0,-0.489351824,-0.28148151,1,0,0,1.4981,button_left,1.4981,1,,,,,,303,NW,"ID",16,fiream,FIREAM,z,,,,,,-0.489351824,-0.28148151,1,0,0,,0,266,266,302,1,
,,,,,,,,,,,,,,,,,,5fb3814f2ed467ac73fe19fd,2020-11-27_16h06.10.045,lexical_decision_task_MP_exp2,2020.2.5,Linux armv8l,60,,0,-0.515277778,-0.292592621,1,0,0,0.8187,button_left,0.8187,1,,,,,,469,NW,UN,16,crudio,PADIFS,z,,,,,,-0.515277778,-0.292592621,1,0,0,,0,267,267,468,1,
,,,,,,,,,,,,,,,,,,5fb3814f2ed467ac73fe19fd,2020-11-27_16h06.10.045,lexical_decision_task_MP_exp2,2020.2.5,Linux armv8l,60,,0,0.460648261,-0.296296353,1,0,0,0.7629,button_right,0.7629,1,,,,,,71,WORD,"ID",16,garden,GARDEN,m,,,,,,0.460648261,-0.296296353,1,0,0,,0,268,268,70,1,
,,,,,,,,,,,,,,,,,,5fb3814f2ed467ac73fe19fd,2020-11-27_16h06.10.045,lexical_decision_task_MP_exp2,2020.2.5,Linux armv8l,60,,0,-0.493055556,-0.266666667,1,0,0,0.9787,button_left,0.9787,1,,,,,,306,NW,"ID",16,sounge,SOUNGE,z,,,,,,-0.493055556,-0.266666667,1,0,0,,0,269,269,305,1,
,,,,,,,,,,,,,,,,,,5fb3814f2ed467ac73fe19fd,2020-11-27_16h06.10.045,lexical_decision_task_MP_exp2,2020.2.5,Linux armv8l,60,,0,0.47453715,-0.289814843,1,0,0,0.8042,button_right,0.8042,1,,,,,,118,WORD,"ID",16,flight,FLIGHT,m,,,,,,0.47453715,-0.289814843,1,0,0,,0,270,270,117,1,
,,,,,,,,,,,,,,,,,,5fb3814f2ed467ac73fe19fd,2020-11-27_16h06.10.045,lexical_decision_task_MP_exp2,2020.2.5,Linux armv8l,60,,0,-0.470833333,-0.282407464,1,0,0,0.7126,button_left,0.7126,1,,,,,,298,NW,"ID",33,piergy,PIERGY,z,,,,,,-0.470833333,-0.282407464,1,0,0,,0,271,271,297,1,
,,,,,,,,,,,,,,,,,,5fb3814f2ed467ac73fe19fd,2020-11-27_16h06.10.045,lexical_decision_task_MP_exp2,2020.2.5,Linux armv8l,60,,0,-0.471759245,-0.28148151,1,0,0,0.8565,button_left,0.8565,1,,,,,,292,NW,"ID",33,ablint,ABLINT,z,,,,,,-0.471759245,-0.28148151,1,0,0,,0,272,272,291,1,
,,,,,,,,,,,,,,,,,,5fb3814f2ed467ac73fe19fd,2020-11-27_16h06.10.045,lexical_decision_task_MP_exp2,2020.2.5,Linux armv8l,60,,0,0.467129686,-0.293518575,1,0,0,0.7175,button_right,0.7175,1,,,,,,38,WORD,"ID",33,powder,POWDER,m,,,,,,0.467129686,-0.293518575,1,0,0,,0,273,273,37,1,
,,,,,,,,,,,,,,,,,,5fb3814f2ed467ac73fe19fd,2020-11-27_16h06.10.045,lexical_decision_task_MP_exp2,2020.2.5,Linux armv8l,60,,0,0.468055556,-0.293518575,1,0,0,0.9921,button_right,0.9921,1,,,,,,195,WORD,UN,16,credit,RESIGN,m,,,,,,0.468055556,-0.293518575,1,0,0,,0,274,274,194,1,
,,,,,,,,,,,,,,,,,,5fb3814f2ed467ac73fe19fd,2020-11-27_16h06.10.045,lexical_decision_task_MP_exp2,2020.2.5,Linux armv8l,60,,0,-0.484722222,-0.284259288,1,0,0,0.6995,button_left,0.6995,1,,,,,,394,NW,UN,33,colury,SPAQUX,z,,,,,,-0.484722222,-0.284259288,1,0,0,,0,275,275,393,1,
,,,,,,,,,,,,,,,,,,5fb3814f2ed467ac73fe19fd,2020-11-27_16h06.10.045,lexical_decision_task_MP_exp2,2020.2.5,Linux armv8l,60,,0,0.471759372,-0.290740797,1,0,0,0.8795,button_right,0.8795,1,,,,,,10,WORD,"ID",33,ethnic,ETHNIC,m,,,,,,0.471759372,-0.290740797,1,0,0,,0,276,276,9,1,
,,,,,,,,,,,,,,,,,,5fb3814f2ed467ac73fe19fd,2020-11-27_16h06.10.045,lexical_decision_task_MP_exp2,2020.2.5,Linux armv8l,60,,0,0.471759372,-0.290740797,1,0,0,1.4126,button_right,1.4126,1,,,,,,192,WORD,UN,16,object,PLAGUE,m,,,,,,0.471759372,-0.290740797,1,0,0,,0,277,277,191,1,
,,,,,,,,,,,,,,,,,,5fb3814f2ed467ac73fe19fd,2020-11-27_16h06.10.045,lexical_decision_task_MP_exp2,2020.2.5,Linux armv8l,60,,0,0.471759372,-0.290740797,1,0,0,0.8291,button_right,0.8291,1,,,,,,21,WORD,"ID",33,simple,SIMPLE,m,,,,,,0.471759372,-0.290740797,1,0,0,,0,278,278,20,1,
,,,,,,,,,,,,,,,,,,5fb3814f2ed467ac73fe19fd,2020-11-27_16h06.10.045,lexical_decision_task_MP_exp2,2020.2.5,Linux armv8l,60,,0,0.471759372,-0.290740797,1,0,0,0.8111,button_right,0.8111,1,,,,,,102,WORD,"ID",16,direct,DIRECT,m,,,,,,0.471759372,-0.290740797,1,0,0,,0,279,279,101,1,
,,,,,,,,,,,,,,,,,,5fb3814f2ed467ac73fe19fd,2020-11-27_16h06.10.045,lexical_decision_task_MP_exp2,2020.2.5,Linux armv8l,60,,0,-0.481944444,-0.277777778,1,0,0,0.8103,button_left,0.8103,1,,,,,,478,NW,UN,16,lobush,ACRISE,z,,,,,,-0.481944444,-0.277777778,1,0,0,,0,280,280,477,1,
,,,,,,,,,,,,,,,,,,5fb3814f2ed467ac73fe19fd,2020-11-27_16h06.10.045,lexical_decision_task_MP_exp2,2020.2.5,Linux armv8l,60,,0,0.470833333,-0.293518575,1,0,0,0.762,button_right,0.762,1,,,,,,171,WORD,UN,33,patrol,DEPART,m,,,,,,0.470833333,-0.293518575,1,0,0,,0,281,281,170,1,
,,,,,,,,,,,,,,,,,,5fb3814f2ed467ac73fe19fd,2020-11-27_16h06.10.045,lexical_decision_task_MP_exp2,2020.2.5,Linux armv8l,60,,0,-0.450462935,-0.278703732,1,0,0,0.7271,button_left,0.7271,1,,,,,,290,NW,"ID",33,splino,SPLINO,z,,,,,,-0.450462935,-0.278703732,1,0,0,,0,282,282,289,1,
,,,,,,,,,,,,,,,,,,5fb3814f2ed467ac73fe19fd,2020-11-27_16h06.10.045,lexical_decision_task_MP_exp2,2020.2.5,Linux armv8l,60,,0,0.477314928,-0.287963019,1,0,0,0.5962,button_right,0.5962,1,,,,,,3,WORD,"ID",33,knight,KNIGHT,m,,,,,,0.477314928,-0.287963019,1,0,0,,0,283,283,2,1,
,,,,,,,,,,,,,,,,,,5fb3814f2ed467ac73fe19fd,2020-11-27_16h06.10.045,lexical_decision_task_MP_exp2,2020.2.5,Linux armv8l,60,,0,0.476388889,-0.287963019,1,0,0,0.8883,button_right,0.8883,1,,,,,,114,WORD,"ID",16,placid,PLACID,m,,,,,,0.476388889,-0.287963019,1,0,0,,0,284,284,113,1,
,,,,,,,,,,,,,,,,,,5fb3814f2ed467ac73fe19fd,2020-11-27_16h06.10.045,lexical_decision_task_MP_exp2,2020.2.5,Linux armv8l,60,,0,0.475463019,-0.288888889,1,0,0,0.6599,button_right,0.6599,1,,,,,,77,WORD,"ID",16,racket,RACKET,m,,,,,,0.475463019,-0.288888889,1,0,0,,0,285,285,76,1,
,,,,,,,,,,,,,,,,,,5fb3814f2ed467ac73fe19fd,2020-11-27_16h06.10.045,lexical_decision_task_MP_exp2,2020.2.5,Linux armv8l,60,,0,0.47453715,-0.287963019,1,0,0,1.1417,button_right,1.1417,1,,,,,,93,WORD,"ID",16,public,PUBLIC,m,,,,,,0.47453715,-0.287963019,1,0,0,,0,286,286,92,1,
,,,,,,,,,,,,,,,,,,5fb3814f2ed467ac73fe19fd,2020-11-27_16h06.10.045,lexical_decision_task_MP_exp2,2020.2.5,Linux armv8l,60,,0,-0.492129601,-0.284259288,1,0,0,0.7558,button_left,0.7558,1,,,,,,465,NW,UN,16,hocite,WHIVEX,z,,,,,,-0.492129601,-0.284259288,1,0,0,,0,287,287,464,1,
,,,,,,,,,,,,,,,,,,5fb3814f2ed467ac73fe19fd,2020-11-27_16h06.10.045,lexical_decision_task_MP_exp2,2020.2.5,Linux armv8l,60,,0,-0.51620369,-0.264814843,1,0,0,0.8562,button_left,0.8562,1,,,,,,452,NW,UN,16,bolvis,SURDEN,z,,,,,,-0.51620369,-0.264814843,1,0,0,,0,288,288,451,1,
,,,,,,,,,,,,,,,,,,5fb3814f2ed467ac73fe19fd,2020-11-27_16h06.10.045,lexical_decision_task_MP_exp2,2020.2.5,Linux armv8l,60,,0,-0.5125,-0.254629686,1,0,0,0.7431,button_left,0.7431,1,,,,,,447,NW,UN,16,sadent,GIRCUE,z,,,,,,-0.5125,-0.254629686,1,0,0,,0,289,289,446,1,
,,,,,,,,,,,,,,,,,,5fb3814f2ed467ac73fe19fd,2020-11-27_16h06.10.045,lexical_decision_task_MP_exp2,2020.2.5,Linux armv8l,60,,0,0.452314928,-0.287963019,1,0,0,0.7119,button_right,0.7119,1,,,,,,63,WORD,"ID",16,launch,LAUNCH,m,,,,,,0.452314928,-0.287963019,1,0,0,,0,290,290,62,1,
,,,,,,,,,,,,,,,,,,5fb3814f2ed467ac73fe19fd,2020-11-27_16h06.10.045,lexical_decision_task_MP_exp2,2020.2.5,Linux armv8l,60,,0,-0.501388889,-0.260185242,1,0,0,0.7556,button_left,0.7556,1,,,,,,309,NW,"ID",16,amiloy,AMILOY,z,,,,,,-0.501388889,-0.260185242,1,0,0,,0,291,291,308,1,
,,,,,,,,,,,,,,,,,,5fb3814f2ed467ac73fe19fd,2020-11-27_16h06.10.045,lexical_decision_task_MP_exp2,2020.2.5,Linux armv8l,60,,0,-0.501388889,-0.260185242,1,0,0,1.0086,button_left,1.0086,1,,,,,,459,NW,UN,16,mingar,BAFENT,z,,,,,,-0.501388889,-0.260185242,1,0,0,,0,292,292,458,1,
,,,,,,,,,,,,,,,,,,5fb3814f2ed467ac73fe19fd,2020-11-27_16h06.10.045,lexical_decision_task_MP_exp2,2020.2.5,Linux armv8l,60,,0,0.4625,-0.282407464,1,0,0,0.7483,button_right,0.7483,1,,,,,,13,WORD,"ID",33,strive,STRIVE,m,,,,,,0.4625,-0.282407464,1,0,0,,0,293,293,12,1,
,,,,,,,,,,,,,,,,,,5fb3814f2ed467ac73fe19fd,2020-11-27_16h06.10.045,lexical_decision_task_MP_exp2,2020.2.5,Linux armv8l,60,,0,-0.493055556,-0.276851908,1,0,0,0.9247,button_left,0.9247,1,,,,,,267,NW,"ID",33,pasink,PASINK,z,,,,,,-0.493055556,-0.276851908,1,0,0,,0,294,294,266,1,
,,,,,,,,,,,,,,,,,,5fb3814f2ed467ac73fe19fd,2020-11-27_16h06.10.045,lexical_decision_task_MP_exp2,2020.2.5,Linux armv8l,60,,0,-0.509722222,-0.283333333,1,0,0,0.8935,button_left,0.8935,1,,,,,,382,NW,UN,33,aungre,SARLEY,z,,,,,,-0.509722222,-0.283333333,1,0,0,,0,295,295,381,1,
,,,,,,,,,,,,,,,,,,5fb3814f2ed467ac73fe19fd,2020-11-27_16h06.10.045,lexical_decision_task_MP_exp2,2020.2.5,Linux armv8l,60,,0,0.457870483,-0.285185242,1,0,0,0.6879,button_right,0.6879,1,,,,,,167,WORD,UN,33,answer,DESIGN,m,,,,,,0.457870483,-0.285185242,1,0,0,,0,296,296,166,1,
,,,,,,,,,,,,,,,,,,5fb3814f2ed467ac73fe19fd,2020-11-27_16h06.10.045,lexical_decision_task_MP_exp2,2020.2.5,Linux armv8l,60,,0,0.467129686,-0.272222222,1,0,0,0.8489,button_right,0.8489,1,,,,,,156,WORD,UN,33,pastor,CRADLE,m,,,,,,0.467129686,-0.272222222,1,0,0,,0,297,297,155,1,
,,,,,,,,,,,,,,,,,,5fb3814f2ed467ac73fe19fd,2020-11-27_16h06.10.045,lexical_decision_task_MP_exp2,2020.2.5,Linux armv8l,60,,0,0.467129686,-0.273148176,1,0,0,0.7192,button_right,0.7192,1,,,,,,75,WORD,"ID",16,trophy,TROPHY,m,,,,,,0.467129686,-0.273148176,1,0,0,,0,298,298,74,1,
,,,,,,,,,,,,,,,,,,5fb3814f2ed467ac73fe19fd,2020-11-27_16h06.10.045,lexical_decision_task_MP_exp2,2020.2.5,Linux armv8l,60,,0,-0.503240712,-0.271296353,1,0,0,0.7256,button_left,0.7256,1,,,,,,269,NW,"ID",33,orchet,ORCHET,z,,,,,,-0.503240712,-0.271296353,1,0,0,,0,299,299,268,1,
,,,,,,,,,,,,,,,,,,5fb3814f2ed467ac73fe19fd,2020-11-27_16h06.10.045,lexical_decision_task_MP_exp2,2020.2.5,Linux armv8l,60,,0,-0.517129601,-0.286111111,1,0,0,0.7276,button_left,0.7276,1,,,,,,323,NW,"ID",16,rosail,ROSAIL,z,,,,,,-0.517129601,-0.286111111,1,0,0,,0,300,300,322,1,
,,,,,,,,,,,,,,,,,,5fb3814f2ed467ac73fe19fd,2020-11-27_16h06.10.045,lexical_decision_task_MP_exp2,2020.2.5,Linux armv8l,60,,0,-0.496759245,-0.287037065,1,0,0,0.7141,button_left,0.7141,1,,,,,,375,NW,UN,33,iguare,YORQUE,z,,,,,,-0.496759245,-0.287037065,1,0,0,,0,301,301,374,1,
,,,,,,,,,,,,,,,,,,5fb3814f2ed467ac73fe19fd,2020-11-27_16h06.10.045,lexical_decision_task_MP_exp2,2020.2.5,Linux armv8l,60,,0,0.469907464,-0.270370399,1,0,0,0.6784,button_right,0.6784,1,,,,,,15,WORD,"ID",33,amount,AMOUNT,m,,,,,,0.469907464,-0.270370399,1,0,0,,0,302,302,14,1,
,,,,,,,,,,,,,,,,,,5fb3814f2ed467ac73fe19fd,2020-11-27_16h06.10.045,lexical_decision_task_MP_exp2,2020.2.5,Linux armv8l,60,,0,0.457870483,-0.280555556,1,0,0,0.7995,button_right,0.7995,1,,,,,,217,WORD,UN,16,shrink,LIQUOR,m,,,,,,0.457870483,-0.280555556,1,0,0,,0,303,303,216,1,
,,,,,,,,,,,,,,,,,,5fb3814f2ed467ac73fe19fd,2020-11-27_16h06.10.045,lexical_decision_task_MP_exp2,2020.2.5,Linux armv8l,60,,0,-0.513425912,-0.275925954,1,0,0,0.7886,button_left,0.7886,1,,,,,,428,NW,UN,16,chrums,TANDLY,z,,,,,,-0.513425912,-0.275925954,1,0,0,,0,304,304,427,1,
,,,,,,,,,,,,,,,,,,5fb3814f2ed467ac73fe19fd,2020-11-27_16h06.10.045,lexical_decision_task_MP_exp2,2020.2.5,Linux armv8l,60,,0,0.465277778,-0.290740797,1,0,0,0.7947,button_right,0.7947,1,,,,,,45,WORD,"ID",33,clergy,CLERGY,m,,,,,,0.465277778,-0.290740797,1,0,0,,0,305,305,44,1,
,,,,,,,,,,,,,,,,,,5fb3814f2ed467ac73fe19fd,2020-11-27_16h06.10.045,lexical_decision_task_MP_exp2,2020.2.5,Linux armv8l,60,,0,-0.521759245,-0.280555556,1,0,0,0.7065,button_left,0.7065,1,,,,,,315,NW,"ID",16,laston,LASTON,z,,,,,,-0.521759245,-0.280555556,1,0,0,,0,306,306,314,1,
,,,,,,,,,,,,,,,,,,5fb3814f2ed467ac73fe19fd,2020-11-27_16h06.10.045,lexical_decision_task_MP_exp2,2020.2.5,Linux armv8l,60,,0,-0.540277778,-0.272222222,1,0,0,0.7789,button_left,0.7789,1,,,,,,402,NW,UN,33,bruats,SYNTIC,z,,,,,,-0.540277778,-0.272222222,1,0,0,,0,307,307,401,1,
,,,,,,,,,,,,,,,,,,5fb3814f2ed467ac73fe19fd,2020-11-27_16h06.10.045,lexical_decision_task_MP_exp2,2020.2.5,Linux armv8l,60,,0,-0.540277778,-0.272222222,1,0,0,0.6084,button_left,0.6084,1,,,,,,341,NW,"ID",16,myrtie,MYRTIE,z,,,,,,-0.540277778,-0.272222222,1,0,0,,0,308,308,340,1,
,,,,,,,,,,,,,,,,,,5fb3814f2ed467ac73fe19fd,2020-11-27_16h06.10.045,lexical_decision_task_MP_exp2,2020.2.5,Linux armv8l,60,,0,-0.547685157,-0.290740797,1,0,0,0.8095,button_left,0.8095,1,,,,,,389,NW,UN,33,hatrus,WITMER,z,,,,,,-0.547685157,-0.290740797,1,0,0,,0,309,309,388,1,
,,,,,,,,,,,,,,,,,,5fb3814f2ed467ac73fe19fd,2020-11-27_16h06.10.045,lexical_decision_task_MP_exp2,2020.2.5,Linux armv8l,60,,0,-0.525462935,-0.275,1,0,0,1.4582,button_left,1.4582,1,,,,,,357,NW,"ID",16,derain,DERAIN,z,,,,,,-0.525462935,-0.275,1,0,0,,0,310,310,356,1,
,,,,,,,,,,,,,,,,,,5fb3814f2ed467ac73fe19fd,2020-11-27_16h06.10.045,lexical_decision_task_MP_exp2,2020.2.5,Linux armv8l,60,,0,0.475463019,-0.275925954,1,0,0,1.0787,button_right,1.0787,1,,,,,,16,WORD,"ID",33,faucet,FAUCET,m,,,,,,0.475463019,-0.275925954,1,0,0,,0,311,311,15,1,
,,,,,,,,,,,,,,,,,,5fb3814f2ed467ac73fe19fd,2020-11-27_16h06.10.045,lexical_decision_task_MP_exp2,2020.2.5,Linux armv8l,60,,0,-0.548611111,-0.280555556,1,0,0,0.9816,button_left,0.9816,1,,,,,,294,NW,"ID",33,inhort,INHORT,z,,,,,,-0.548611111,-0.280555556,1,0,0,,0,312,312,293,1,
,,,,,,,,,,,,,,,,,,5fb3814f2ed467ac73fe19fd,2020-11-27_16h06.10.045,lexical_decision_task_MP_exp2,2020.2.5,Linux armv8l,60,,0,0.467129686,-0.286111111,1,0,0,0.7732,button_right,0.7732,1,,,,,,88,WORD,"ID",16,hunger,HUNGER,m,,,,,,0.467129686,-0.286111111,1,0,0,,0,313,313,87,1,
,,,,,,,,,,,,,,,,,,5fb3814f2ed467ac73fe19fd,2020-11-27_16h06.10.045,lexical_decision_task_MP_exp2,2020.2.5,Linux armv8l,60,,0,-0.514351824,-0.280555556,1,0,0,1.2439,button_left,1.2439,1,,,,,,261,NW,"ID",33,stunch,STUNCH,z,,,,,,-0.514351824,-0.280555556,1,0,0,,0,314,314,260,1,
,,,,,,,,,,,,,,,,,,5fb3814f2ed467ac73fe19fd,2020-11-27_16h06.10.045,lexical_decision_task_MP_exp2,2020.2.5,Linux armv8l,60,,0,0.471759372,-0.275925954,1,0,0,0.8418,button_right,0.8418,1,,,,,,120,WORD,"ID",16,strain,STRAIN,m,,,,,,0.471759372,-0.275925954,1,0,0,,0,315,315,119,1,
,,,,,,,,,,,,,,,,,,5fb3814f2ed467ac73fe19fd,2020-11-27_16h06.10.045,lexical_decision_task_MP_exp2,2020.2.5,Linux armv8l,60,,0,-0.500462935,-0.268518575,1,0,0,0.7597,button_left,0.7597,1,,,,,,466,NW,UN,16,pebric,HOCITE,z,,,,,,-0.500462935,-0.268518575,1,0,0,,0,316,316,465,1,
,,,,,,,,,,,,,,,,,,5fb3814f2ed467ac73fe19fd,2020-11-27_16h06.10.045,lexical_decision_task_MP_exp2,2020.2.5,Linux armv8l,60,,0,-0.482870356,-0.28148151,1,0,0,1.2931,button_left,1.2931,1,,,,,,345,NW,"ID",16,absend,ABSEND,z,,,,,,-0.482870356,-0.28148151,1,0,0,,0,317,317,344,1,
,,,,,,,,,,,,,,,,,,5fb3814f2ed467ac73fe19fd,2020-11-27_16h06.10.045,lexical_decision_task_MP_exp2,2020.2.5,Linux armv8l,60,,0,0.467129686,-0.279629686,1,0,0,0.7765,button_right,0.7765,1,,,,,,198,WORD,UN,16,invoke,WICKED,m,,,,,,0.467129686,-0.279629686,1,0,0,,0,318,318,197,1,
,,,,,,,,,,,,,,,,,,5fb3814f2ed467ac73fe19fd,2020-11-27_16h06.10.045,lexical_decision_task_MP_exp2,2020.2.5,Linux armv8l,60,,0,0.467129686,-0.279629686,1,0,0,0.7418,button_right,0.7418,1,,,,,,61,WORD,"ID",16,ponder,PONDER,m,,,,,,0.467129686,-0.279629686,1,0,0,,0,319,319,60,1,
,,,,,,,,,,,,,,,,,,5fb3814f2ed467ac73fe19fd,2020-11-27_16h06.10.045,lexical_decision_task_MP_exp2,2020.2.5,Linux armv8l,60,,0,0.468055556,-0.278703732,1,0,0,0.6994,button_right,0.6994,1,,,,,,161,WORD,UN,33,candle,PASTOR,m,,,,,,0.468055556,-0.278703732,1,0,0,,0,320,320,160,1,
,,,,,,,,,,,,,,,,,,5fb3814f2ed467ac73fe19fd,2020-11-27_16h06.10.045,lexical_decision_task_MP_exp2,2020.2.5,Linux armv8l,60,,0,-0.51620369,-0.273148176,1,0,0,0.7052,button_left,0.7052,1,,,,,,272,NW,"ID",33,damilt,DAMILT,z,,,,,,-0.51620369,-0.273148176,1,0,0,,0,321,321,271,1,
,,,,,,,,,,,,,,,,,,5fb3814f2ed467ac73fe19fd,2020-11-27_16h06.10.045,lexical_decision_task_MP_exp2,2020.2.5,Linux armv8l,60,,0,0.468055556,-0.284259288,1,0,0,0.6624,button_right,0.6624,1,,,,,,147,WORD,UN,33,custom,GARLIC,m,,,,,,0.468055556,-0.284259288,1,0,0,,0,322,322,146,1,
,,,,,,,,,,,,,,,,,,5fb3814f2ed467ac73fe19fd,2020-11-27_16h06.10.045,lexical_decision_task_MP_exp2,2020.2.5,Linux armv8l,60,,0,-0.506944444,-0.276851908,1,0,0,0.9653,button_left,0.9653,1,,,,,,373,NW,UN,33,injore,BIGENT,z,,,,,,-0.506944444,-0.276851908,1,0,0,,0,323,323,372,1,
,,,,,,,,,,,,,,,,,,5fb3814f2ed467ac73fe19fd,2020-11-27_16h06.10.045,lexical_decision_task_MP_exp2,2020.2.5,Linux armv8l,60,,0,-0.50601849,-0.275925954,1,0,0,0.6907,button_left,0.6907,1,,,,,,363,NW,UN,33,impote,BREALI,z,,,,,,-0.50601849,-0.275925954,1,0,0,,0,324,324,362,1,
,,,,,,,,,,,,,,,,,,5fb3814f2ed467ac73fe19fd,2020-11-27_16h06.10.045,lexical_decision_task_MP_exp2,2020.2.5,Linux armv8l,60,,0,-0.53101849,-0.286111111,1,0,0,0.6444,button_left,0.6444,1,,,,,,470,NW,UN,16,nobest,CRUDIO,z,,,,,,-0.53101849,-0.286111111,1,0,0,,0,325,325,469,1,
,,,,,,,,,,,,,,,,,,5fb3814f2ed467ac73fe19fd,2020-11-27_16h06.10.045,lexical_decision_task_MP_exp2,2020.2.5,Linux armv8l,60,,0,0.468055556,-0.282407464,1,0,0,0.7003,button_right,0.7003,1,,,,,,140,WORD,UN,33,reason,PRINCE,m,,,,,,0.468055556,-0.282407464,1,0,0,,0,326,326,139,1,
,,,,,,,,,,,,,,,,,,5fb3814f2ed467ac73fe19fd,2020-11-27_16h06.10.045,lexical_decision_task_MP_exp2,2020.2.5,Linux armv8l,60,,0,-0.527314801,-0.275925954,1,0,0,0.7703,button_left,0.7703,1,,,,,,451,NW,UN,16,surden,CAINKY,z,,,,,,-0.527314801,-0.275925954,1,0,0,,0,327,327,450,1,
,,,,,,,,,,,,,,,,,,5fb3814f2ed467ac73fe19fd,2020-11-27_16h06.10.045,lexical_decision_task_MP_exp2,2020.2.5,Linux armv8l,60,,0,-0.506944444,-0.282407464,1,0,0,0.7591,button_left,0.7591,1,,,,,,328,NW,"ID",16,broake,BROAKE,z,,,,,,-0.506944444,-0.282407464,1,0,0,,0,328,328,327,1,
,,,,,,,,,,,,,,,,,,5fb3814f2ed467ac73fe19fd,2020-11-27_16h06.10.045,lexical_decision_task_MP_exp2,2020.2.5,Linux armv8l,60,,0,0.469907464,-0.276851908,1,0,0,0.7244,button_right,0.7244,1,,,,,,79,WORD,"ID",16,theory,THEORY,m,,,,,,0.469907464,-0.276851908,1,0,0,,0,329,329,78,1,
,,,,,,,,,,,,,,,,,,5fb3814f2ed467ac73fe19fd,2020-11-27_16h06.10.045,lexical_decision_task_MP_exp2,2020.2.5,Linux armv8l,60,,0,-0.510648134,-0.276851908,1,0,0,0.6909,button_left,0.6909,1,,,,,,360,NW,"ID",16,desory,DESORY,z,,,,,,-0.510648134,-0.276851908,1,0,0,,0,330,330,359,1,
,,,,,,,,,,,,,,,,,,5fb3814f2ed467ac73fe19fd,2020-11-27_16h06.10.045,lexical_decision_task_MP_exp2,2020.2.5,Linux armv8l,60,,0,-0.510648134,-0.277777778,1,0,0,0.6875,button_left,0.6875,1,,,,,,295,NW,"ID",33,gleath,GLEATH,z,,,,,,-0.510648134,-0.277777778,1,0,0,,0,331,331,294,1,
,,,,,,,,,,,,,,,,,,5fb3814f2ed467ac73fe19fd,2020-11-27_16h06.10.045,lexical_decision_task_MP_exp2,2020.2.5,Linux armv8l,60,,0,-0.511574046,-0.277777778,1,0,0,0.6719,button_left,0.6719,1,,,,,,278,NW,"ID",33,unighs,UNIGHS,z,,,,,,-0.511574046,-0.277777778,1,0,0,,0,332,332,277,1,
,,,,,,,,,,,,,,,,,,5fb3814f2ed467ac73fe19fd,2020-11-27_16h06.10.045,lexical_decision_task_MP_exp2,2020.2.5,Linux armv8l,60,,0,0.472685242,-0.28148151,1,0,0,0.7598,button_right,0.7598,1,,,,,,78,WORD,"ID",16,column,COLUMN,m,,,,,,0.472685242,-0.28148151,1,0,0,,0,333,333,77,1,
,,,,,,,,,,,,,,,,,,5fb3814f2ed467ac73fe19fd,2020-11-27_16h06.10.045,lexical_decision_task_MP_exp2,2020.2.5,Linux armv8l,60,,0,0.472685242,-0.28148151,1,0,0,0.703,button_right,0.703,1,,,,,,228,WORD,UN,16,inject,MASTER,m,,,,,,0.472685242,-0.28148151,1,0,0,,0,334,334,227,1,
,,,,,,,,,,,,,,,,,,5fb3814f2ed467ac73fe19fd,2020-11-27_16h06.10.045,lexical_decision_task_MP_exp2,2020.2.5,Linux armv8l,60,,0,-0.519907379,-0.272222222,1,0,0,0.8114,button_left,0.8114,1,,,,,,260,NW,"ID",33,unject,UNJECT,z,,,,,,-0.519907379,-0.272222222,1,0,0,,0,335,335,259,1,
