counterbalancing_condition,instr_done_keyboard.keys,instr_done_keyboard.rt,instr_done_touch.x,instr_done_touch.y,instr_done_touch.leftButton,instr_done_touch.midButton,instr_done_touch.rightButton,instruction_pages.thisRepN,instruction_pages.thisTrialN,instruction_pages.thisN,instruction_pages.thisIndex,instruction_pages.ran,pageN,phase,instruct_text,has_image,instruct_image,participant,date,expName,psychopyVersion,OS,frameRate,response.keys,response.corr,response.rt,touch_resp.x,touch_resp.y,touch_resp.leftButton,touch_resp.midButton,touch_resp.rightButton,touch_resp.time,touch_resp.clicked_name,rt,corr,practice_trials.thisRepN,practice_trials.thisTrialN,practice_trials.thisN,practice_trials.thisIndex,practice_trials.ran,TrialID,StimulusType,Condition,PrimeDuration,Prime,Target,corrAns,instr_done_touch.clicked_name,end_of_practice_trials_pages.thisRepN,end_of_practice_trials_pages.thisTrialN,end_of_practice_trials_pages.thisN,end_of_practice_trials_pages.thisIndex,end_of_practice_trials_pages.ran,break_done_touch.x,break_done_touch.y,break_done_touch.leftButton,break_done_touch.midButton,break_done_touch.rightButton,break_done_keyboard.keys,experiment_trials.thisRepN,experiment_trials.thisTrialN,experiment_trials.thisN,experiment_trials.thisIndex,experiment_trials.ran,break_done_touch.clicked_name,break_done_keyboard.rt
1,space,219.563,-0.21484375,-0.48046875,0,0,0,0,0,0,0,1,1,instructions,"INSTRUCTIONS
At the start of each trial, look at the hash marks (######) in the center of the screen. After a moment, a string of letters will appear. Your task is to indicate if the letter string forms a word or not (i.e., if it is a nonword). For example, AUTHOR is a word while AUTHON is a nonword.

Press the space bar or touch the button below to continue.",0,,5fb87cc7e395495e86b4dda8,2020-11-27_07h24.51.333,lexical_decision_task_MP_exp2,2020.2.5,Win32,60,,,,,,,,,,,,,,,,,,,,,,,,,,,,,,,,,,,,,,,,,,,
,space,25.927,-0.889322917,-0.48828125,0,0,0,0,1,1,1,1,2,instructions,"If your device has a keyboard, press the 'Z' key for nonwords and the 'M' key for words.





Press the space bar or touch the button below to continue.",1,keyboard-example.gif,5fb87cc7e395495e86b4dda8,2020-11-27_07h24.51.333,lexical_decision_task_MP_exp2,2020.2.5,Win32,60,,,,,,,,,,,,,,,,,,,,,,,,,,,,,,,,,,,,,,,,,,,
,space,3.217,-0.010416667,0.5,0,0,0,0,2,2,2,1,3,instructions,"If you are using a touchscreen only device, use the buttons on the screen. Do not use the mouse.





Press the space bar or touch the button below to continue.",1,touchscreen-example.gif,5fb87cc7e395495e86b4dda8,2020-11-27_07h24.51.333,lexical_decision_task_MP_exp2,2020.2.5,Win32,60,,,,,,,,,,,,,,,,,,,,,,,,,,,,,,,,,,,,,,,,,,,
,space,1.568,-0.01171875,0.479166667,0,0,0,0,3,3,3,1,4,instructions,"It is very important that you respond as quickly and accurately as possible, as each letter string will only be on the screen for two seconds. If you do not respond within this time, the message 'Too slow!' will be displayed and the experiment will progress to the next letter string. The first 20 trials will be practice trials and you will receive feedback on your answers. 

Press the space bar or touch the button below to start the practice trials.",0,,5fb87cc7e395495e86b4dda8,2020-11-27_07h24.51.333,lexical_decision_task_MP_exp2,2020.2.5,Win32,60,,,,,,,,,,,,,,,,,,,,,,,,,,,,,,,,,,,,,,,,,,,
,,,,,,,,,,,,,,,,,,5fb87cc7e395495e86b4dda8,2020-11-27_07h24.51.333,lexical_decision_task_MP_exp2,2020.2.5,Win32,60,m,0,1.589,,,,,,,,1.589,0,0,0,0,8,1,1009,NW,"ID",33,aslert,ASLERT,z,,,,,,,,,,,,,,,,,,,
,,,,,,,,,,,,,,,,,,5fb87cc7e395495e86b4dda8,2020-11-27_07h24.51.333,lexical_decision_task_MP_exp2,2020.2.5,Win32,60,z,1,0.119,,,,,,,,0.119,1,0,1,1,11,1,1012,NW,"ID",16,rashet,RASHET,z,,,,,,,,,,,,,,,,,,,
,,,,,,,,,,,,,,,,,,5fb87cc7e395495e86b4dda8,2020-11-27_07h24.51.333,lexical_decision_task_MP_exp2,2020.2.5,Win32,60,z,0,0.069,,,,,,,,0.069,0,0,2,2,1,1,1002,WORD,"ID",33,adjust,ADJUST,m,,,,,,,,,,,,,,,,,,,
,,,,,,,,,,,,,,,,,,5fb87cc7e395495e86b4dda8,2020-11-27_07h24.51.333,lexical_decision_task_MP_exp2,2020.2.5,Win32,60,z,0,0.032,,,,,,,,0.032,0,0,3,3,0,1,1001,WORD,"ID",33,utopia,UTOPIA,m,,,,,,,,,,,,,,,,,,,
,,,,,,,,,,,,,,,,,,5fb87cc7e395495e86b4dda8,2020-11-27_07h24.51.333,lexical_decision_task_MP_exp2,2020.2.5,Win32,60,m,0,0.002,,,,,,,,0.002,0,0,4,4,13,1,1014,NW,UN,33,winfer,ROUPET,z,,,,,,,,,,,,,,,,,,,
,,,,,,,,,,,,,,,,,,5fb87cc7e395495e86b4dda8,2020-11-27_07h24.51.333,lexical_decision_task_MP_exp2,2020.2.5,Win32,60,m,1,0.838,,,,,,,,0.838,1,0,5,5,2,1,1003,WORD,"ID",16,almond,ALMOND,m,,,,,,,,,,,,,,,,,,,
,,,,,,,,,,,,,,,,,,5fb87cc7e395495e86b4dda8,2020-11-27_07h24.51.333,lexical_decision_task_MP_exp2,2020.2.5,Win32,60,m,0,0.737,,,,,,,,0.737,0,0,6,6,10,1,1011,NW,"ID",16,inlade,INLADE,z,,,,,,,,,,,,,,,,,,,
,,,,,,,,,,,,,,,,,,5fb87cc7e395495e86b4dda8,2020-11-27_07h24.51.333,lexical_decision_task_MP_exp2,2020.2.5,Win32,60,m,1,0.719,,,,,,,,0.719,1,0,7,7,7,1,1008,WORD,UN,16,hurdle,VOLUME,m,,,,,,,,,,,,,,,,,,,
,,,,,,,,,,,,,,,,,,5fb87cc7e395495e86b4dda8,2020-11-27_07h24.51.333,lexical_decision_task_MP_exp2,2020.2.5,Win32,60,m,1,0.834,,,,,,,,0.834,1,0,8,8,6,1,1007,WORD,UN,16,tropic,ZOMBIE,m,,,,,,,,,,,,,,,,,,,
,,,,,,,,,,,,,,,,,,5fb87cc7e395495e86b4dda8,2020-11-27_07h24.51.333,lexical_decision_task_MP_exp2,2020.2.5,Win32,60,m,1,0.805,,,,,,,,0.805,1,0,9,9,3,1,1004,WORD,"ID",16,matrix,MATRIX,m,,,,,,,,,,,,,,,,,,,
,,,,,,,,,,,,,,,,,,5fb87cc7e395495e86b4dda8,2020-11-27_07h24.51.333,lexical_decision_task_MP_exp2,2020.2.5,Win32,60,m,1,0.72,,,,,,,,0.72,1,0,10,10,4,1,1005,WORD,UN,33,abound,SQUEAK,m,,,,,,,,,,,,,,,,,,,
,,,,,,,,,,,,,,,,,,5fb87cc7e395495e86b4dda8,2020-11-27_07h24.51.333,lexical_decision_task_MP_exp2,2020.2.5,Win32,60,m,0,0.665,,,,,,,,0.665,0,0,11,11,15,1,1016,NW,UN,16,mushed,WHAISE,z,,,,,,,,,,,,,,,,,,,
,,,,,,,,,,,,,,,,,,5fb87cc7e395495e86b4dda8,2020-11-27_07h24.51.333,lexical_decision_task_MP_exp2,2020.2.5,Win32,60,m,0,0.634,,,,,,,,0.634,0,0,12,12,14,1,1015,NW,UN,16,miaber,THRALE,z,,,,,,,,,,,,,,,,,,,
,,,,,,,,,,,,,,,,,,5fb87cc7e395495e86b4dda8,2020-11-27_07h24.51.333,lexical_decision_task_MP_exp2,2020.2.5,Win32,60,m,0,0.535,,,,,,,,0.535,0,0,13,13,9,1,1010,NW,"ID",33,fariny,FARINY,z,,,,,,,,,,,,,,,,,,,
,,,,,,,,,,,,,,,,,,5fb87cc7e395495e86b4dda8,2020-11-27_07h24.51.333,lexical_decision_task_MP_exp2,2020.2.5,Win32,60,z,1,0.502,,,,,,,,0.502,1,0,14,14,12,1,1013,NW,UN,33,adveil,SPRINY,z,,,,,,,,,,,,,,,,,,,
,,,,,,,,,,,,,,,,,,5fb87cc7e395495e86b4dda8,2020-11-27_07h24.51.333,lexical_decision_task_MP_exp2,2020.2.5,Win32,60,m,1,0.683,,,,,,,,0.683,1,0,15,15,5,1,1006,WORD,UN,33,frenzy,OBTAIN,m,,,,,,,,,,,,,,,,,,,
,,,0.04296875,-0.38671875,1,0,0,,,,,,1,end_of_practice,"You have completed the practice trials. During the experimental trials, you will not receive feedback, but it is very important that you respond as quickly and accurately as possible. 
Before you begin, please ensure that you are in a comfortable and quiet location and will not be disturbed for about 15 minutes, as we cannot use your data if you do not complete all the trials. 
There will be opportunities to take breaks at regular intervals during the experiment. When you are ready to start the experimental trials, please press space or touch the button below.",,,5fb87cc7e395495e86b4dda8,2020-11-27_07h24.51.333,lexical_decision_task_MP_exp2,2020.2.5,Win32,60,,,,,,,,,,,,,,,,,,,,,,,,,instr_done_button,0,0,0,0,1,,,,,,,,,,,,,
,,,,,,,,,,,,,,,,,,5fb87cc7e395495e86b4dda8,2020-11-27_07h24.51.333,lexical_decision_task_MP_exp2,2020.2.5,Win32,60,z,0,1.325,,,,,,,,1.325,0,,,,,,115,WORD,"ID",16,guitar,GUITAR,m,,,,,,,0.04296875,-0.37890625,0,0,0,,0,0,0,114,1,,
,,,,,,,,,,,,,,,,,,5fb87cc7e395495e86b4dda8,2020-11-27_07h24.51.333,lexical_decision_task_MP_exp2,2020.2.5,Win32,60,m,0,0.65,,,,,,,,0.65,0,,,,,,331,NW,"ID",16,gilfew,GILFEW,z,,,,,,,0.040364583,-0.37890625,0,0,0,,0,1,1,330,1,,
,,,,,,,,,,,,,,,,,,5fb87cc7e395495e86b4dda8,2020-11-27_07h24.51.333,lexical_decision_task_MP_exp2,2020.2.5,Win32,60,m,0,0.392,,,,,,,,0.392,0,,,,,,462,NW,UN,16,kispel,ABSULT,z,,,,,,,0.0390625,-0.37890625,0,0,0,,0,2,2,461,1,,
,,,,,,,,,,,,,,,,,,5fb87cc7e395495e86b4dda8,2020-11-27_07h24.51.333,lexical_decision_task_MP_exp2,2020.2.5,Win32,60,m,0,0.002,,,,,,,,0.002,0,,,,,,377,NW,UN,33,shrile,INJORE,z,,,,,,,0.0390625,-0.37890625,0,0,0,,0,3,3,376,1,,
,,,,,,,,,,,,,,,,,,5fb87cc7e395495e86b4dda8,2020-11-27_07h24.51.333,lexical_decision_task_MP_exp2,2020.2.5,Win32,60,z,1,0.085,,,,,,,,0.085,1,,,,,,249,NW,"ID",33,batrol,BATROL,z,,,,,,,0.0390625,-0.37890625,0,0,0,,0,4,4,248,1,,
,,,,,,,,,,,,,,,,,,5fb87cc7e395495e86b4dda8,2020-11-27_07h24.51.333,lexical_decision_task_MP_exp2,2020.2.5,Win32,60,m,1,0.127,,,,,,,,0.127,1,,,,,,33,WORD,"ID",33,butler,BUTLER,m,,,,,,,0.0390625,-0.37890625,0,0,0,,0,5,5,32,1,,
,,,,,,,,,,,,,,,,,,5fb87cc7e395495e86b4dda8,2020-11-27_07h24.51.333,lexical_decision_task_MP_exp2,2020.2.5,Win32,60,z,0,0.027,,,,,,,,0.027,0,,,,,,127,WORD,UN,33,senior,CASTLE,m,,,,,,,0.0390625,-0.37890625,0,0,0,,0,6,6,126,1,,
,,,,,,,,,,,,,,,,,,5fb87cc7e395495e86b4dda8,2020-11-27_07h24.51.333,lexical_decision_task_MP_exp2,2020.2.5,Win32,60,m,1,0.123,,,,,,,,0.123,1,,,,,,86,WORD,"ID",16,rodent,RODENT,m,,,,,,,0.0390625,-0.37890625,0,0,0,,0,7,7,85,1,,
,,,,,,,,,,,,,,,,,,5fb87cc7e395495e86b4dda8,2020-11-27_07h24.51.333,lexical_decision_task_MP_exp2,2020.2.5,Win32,60,z,0,0.184,,,,,,,,0.184,0,,,,,,240,WORD,UN,16,glance,FOREST,m,,,,,,,0.0390625,-0.37890625,0,0,0,,0,8,8,239,1,,
,,,,,,,,,,,,,,,,,,5fb87cc7e395495e86b4dda8,2020-11-27_07h24.51.333,lexical_decision_task_MP_exp2,2020.2.5,Win32,60,m,0,0.034,,,,,,,,0.034,0,,,,,,281,NW,"ID",33,melaty,MELATY,z,,,,,,,0.0390625,-0.37890625,0,0,0,,0,9,9,280,1,,
,,,,,,,,,,,,,,,,,,5fb87cc7e395495e86b4dda8,2020-11-27_07h24.51.333,lexical_decision_task_MP_exp2,2020.2.5,Win32,60,z,0,0.017,,,,,,,,0.017,0,,,,,,44,WORD,"ID",33,danger,DANGER,m,,,,,,,0.0390625,-0.37890625,0,0,0,,0,10,10,43,1,,
,,,,,,,,,,,,,,,,,,5fb87cc7e395495e86b4dda8,2020-11-27_07h24.51.333,lexical_decision_task_MP_exp2,2020.2.5,Win32,60,m,1,0.136,,,,,,,,0.136,1,,,,,,157,WORD,UN,33,island,DRAGON,m,,,,,,,0.0390625,-0.37890625,0,0,0,,0,11,11,156,1,,
,,,,,,,,,,,,,,,,,,5fb87cc7e395495e86b4dda8,2020-11-27_07h24.51.333,lexical_decision_task_MP_exp2,2020.2.5,Win32,60,z,1,0.003,,,,,,,,0.003,1,,,,,,252,NW,"ID",33,stapod,STAPOD,z,,,,,,,0.0390625,-0.37890625,0,0,0,,0,12,12,251,1,,
,,,,,,,,,,,,,,,,,,5fb87cc7e395495e86b4dda8,2020-11-27_07h24.51.333,lexical_decision_task_MP_exp2,2020.2.5,Win32,60,m,0,0.142,,,,,,,,0.142,0,,,,,,446,NW,UN,16,gircue,RUNAMO,z,,,,,,,0.0390625,-0.37890625,0,0,0,,0,13,13,445,1,,
,,,,,,,,,,,,,,,,,,5fb87cc7e395495e86b4dda8,2020-11-27_07h24.51.333,lexical_decision_task_MP_exp2,2020.2.5,Win32,60,z,0,0.15,,,,,,,,0.15,0,,,,,,25,WORD,"ID",33,domain,DOMAIN,m,,,,,,,0.0390625,-0.37890625,0,0,0,,0,14,14,24,1,,
,,,,,,,,,,,,,,,,,,5fb87cc7e395495e86b4dda8,2020-11-27_07h24.51.333,lexical_decision_task_MP_exp2,2020.2.5,Win32,60,m,1,0.036,,,,,,,,0.036,1,,,,,,159,WORD,UN,33,violet,DETAIL,m,,,,,,,0.0390625,-0.37890625,0,0,0,,0,15,15,158,1,,
,,,,,,,,,,,,,,,,,,5fb87cc7e395495e86b4dda8,2020-11-27_07h24.51.333,lexical_decision_task_MP_exp2,2020.2.5,Win32,60,z,1,0.017,,,,,,,,0.017,1,,,,,,272,NW,"ID",33,damilt,DAMILT,z,,,,,,,0.0390625,-0.37890625,0,0,0,,0,16,16,271,1,,
,,,,,,,,,,,,,,,,,,5fb87cc7e395495e86b4dda8,2020-11-27_07h24.51.333,lexical_decision_task_MP_exp2,2020.2.5,Win32,60,m,0,0.1,,,,,,,,0.1,0,,,,,,438,NW,UN,16,limpor,BAITCH,z,,,,,,,0.0390625,-0.37890625,0,0,0,,0,17,17,437,1,,
,,,,,,,,,,,,,,,,,,5fb87cc7e395495e86b4dda8,2020-11-27_07h24.51.333,lexical_decision_task_MP_exp2,2020.2.5,Win32,60,m,0,0.122,,,,,,,,0.122,0,,,,,,322,NW,"ID",16,slanch,SLANCH,z,,,,,,,0.0390625,-0.37890625,0,0,0,,0,18,18,321,1,,
,,,,,,,,,,,,,,,,,,5fb87cc7e395495e86b4dda8,2020-11-27_07h24.51.333,lexical_decision_task_MP_exp2,2020.2.5,Win32,60,m,0,0.051,,,,,,,,0.051,0,,,,,,332,NW,"ID",16,vangue,VANGUE,z,,,,,,,0.0390625,-0.37890625,0,0,0,,0,19,19,331,1,,
,,,,,,,,,,,,,,,,,,5fb87cc7e395495e86b4dda8,2020-11-27_07h24.51.333,lexical_decision_task_MP_exp2,2020.2.5,Win32,60,z,0,0.037,,,,,,,,0.037,0,,,,,,48,WORD,"ID",33,walnut,WALNUT,m,,,,,,,0.0390625,-0.37890625,0,0,0,,0,20,20,47,1,,
,,,,,,,,,,,,,,,,,,5fb87cc7e395495e86b4dda8,2020-11-27_07h24.51.333,lexical_decision_task_MP_exp2,2020.2.5,Win32,60,m,1,0.172,,,,,,,,0.172,1,,,,,,219,WORD,UN,16,voyage,BUCKET,m,,,,,,,0.0390625,-0.37890625,0,0,0,,0,21,21,218,1,,
,,,,,,,,,,,,,,,,,,5fb87cc7e395495e86b4dda8,2020-11-27_07h24.51.333,lexical_decision_task_MP_exp2,2020.2.5,Win32,60,m,1,0.007,,,,,,,,0.007,1,,,,,,84,WORD,"ID",16,mortal,MORTAL,m,,,,,,,0.0390625,-0.37890625,0,0,0,,0,22,22,83,1,,
,,,,,,,,,,,,,,,,,,5fb87cc7e395495e86b4dda8,2020-11-27_07h24.51.333,lexical_decision_task_MP_exp2,2020.2.5,Win32,60,m,1,0.016,,,,,,,,0.016,1,,,,,,200,WORD,UN,16,admire,BEACON,m,,,,,,,0.0390625,-0.37890625,0,0,0,,0,23,23,199,1,,
,,,,,,,,,,,,,,,,,,5fb87cc7e395495e86b4dda8,2020-11-27_07h24.51.333,lexical_decision_task_MP_exp2,2020.2.5,Win32,60,z,0,0.05,,,,,,,,0.05,0,,,,,,161,WORD,UN,33,candle,PASTOR,m,,,,,,,0.0390625,-0.37890625,0,0,0,,0,24,24,160,1,,
,,,,,,,,,,,,,,,,,,5fb87cc7e395495e86b4dda8,2020-11-27_07h24.51.333,lexical_decision_task_MP_exp2,2020.2.5,Win32,60,z,0,0.136,,,,,,,,0.136,0,,,,,,209,WORD,UN,16,monkey,SEARCH,m,,,,,,,0.0390625,-0.37890625,0,0,0,,0,25,25,208,1,,
,,,,,,,,,,,,,,,,,,5fb87cc7e395495e86b4dda8,2020-11-27_07h24.51.333,lexical_decision_task_MP_exp2,2020.2.5,Win32,60,m,0,0.06,,,,,,,,0.06,0,,,,,,387,NW,UN,33,cragin,GRONCE,z,,,,,,,0.0390625,-0.37890625,0,0,0,,0,26,26,386,1,,
,,,,,,,,,,,,,,,,,,5fb87cc7e395495e86b4dda8,2020-11-27_07h24.51.333,lexical_decision_task_MP_exp2,2020.2.5,Win32,60,z,0,0.107,,,,,,,,0.107,0,,,,,,120,WORD,"ID",16,strain,STRAIN,m,,,,,,,0.0390625,-0.37890625,0,0,0,,0,27,27,119,1,,
,,,,,,,,,,,,,,,,,,5fb87cc7e395495e86b4dda8,2020-11-27_07h24.51.333,lexical_decision_task_MP_exp2,2020.2.5,Win32,60,m,1,0.137,,,,,,,,0.137,1,,,,,,230,WORD,UN,16,export,FRINGE,m,,,,,,,0.0390625,-0.37890625,0,0,0,,0,28,28,229,1,,
,,,,,,,,,,,,,,,,,,5fb87cc7e395495e86b4dda8,2020-11-27_07h24.51.333,lexical_decision_task_MP_exp2,2020.2.5,Win32,60,z,1,0.053,,,,,,,,0.053,1,,,,,,385,NW,UN,33,ancust,VEIGMA,z,,,,,,,0.0390625,-0.37890625,0,0,0,,0,29,29,384,1,,
,,,,,,,,,,,,,,,,,,5fb87cc7e395495e86b4dda8,2020-11-27_07h24.51.333,lexical_decision_task_MP_exp2,2020.2.5,Win32,60,m,0,0.154,,,,,,,,0.154,0,,,,,,384,NW,UN,33,veigma,GUESCO,z,,,,,,,0.0390625,-0.37890625,0,0,0,,0,30,30,383,1,,
,,,,,,,,,,,,,,,,,,5fb87cc7e395495e86b4dda8,2020-11-27_07h24.51.333,lexical_decision_task_MP_exp2,2020.2.5,Win32,60,m,0,0.006,,,,,,,,0.006,0,,,,,,431,NW,UN,16,lunker,CHRUMS,z,,,,,,,0.0390625,-0.37890625,0,0,0,,0,31,31,430,1,,
,,,,,,,,,,,,,,,,,,5fb87cc7e395495e86b4dda8,2020-11-27_07h24.51.333,lexical_decision_task_MP_exp2,2020.2.5,Win32,60,z,1,0.136,,,,,,,,0.136,1,,,,,,301,NW,"ID",16,fainch,FAINCH,z,,,,,,,0.0390625,-0.37890625,0,0,0,,0,32,32,300,1,,
,,,,,,,,,,,,,,,,,,5fb87cc7e395495e86b4dda8,2020-11-27_07h24.51.333,lexical_decision_task_MP_exp2,2020.2.5,Win32,60,z,1,0.186,,,,,,,,0.186,1,,,,,,479,NW,UN,16,josted,LOBUSH,z,,,,,,,0.0390625,-0.37890625,0,0,0,,0,33,33,478,1,,
,,,,,,,,,,,,,,,,,,5fb87cc7e395495e86b4dda8,2020-11-27_07h24.51.333,lexical_decision_task_MP_exp2,2020.2.5,Win32,60,m,0,0.067,,,,,,,,0.067,0,,,,,,388,NW,UN,33,witmer,CRAGIN,z,,,,,,,0.0390625,-0.37890625,0,0,0,,0,34,34,387,1,,
,,,,,,,,,,,,,,,,,,5fb87cc7e395495e86b4dda8,2020-11-27_07h24.51.333,lexical_decision_task_MP_exp2,2020.2.5,Win32,60,z,0,0.091,,,,,,,,0.091,0,,,,,,68,WORD,"ID",16,fumble,FUMBLE,m,,,,,,,0.0390625,-0.37890625,0,0,0,,0,35,35,67,1,,
,,,,,,,,,,,,,,,,,,5fb87cc7e395495e86b4dda8,2020-11-27_07h24.51.333,lexical_decision_task_MP_exp2,2020.2.5,Win32,60,z,1,0.167,,,,,,,,0.167,1,,,,,,373,NW,UN,33,injore,BIGENT,z,,,,,,,0.0390625,-0.37890625,0,0,0,,0,36,36,372,1,,
,,,,,,,,,,,,,,,,,,5fb87cc7e395495e86b4dda8,2020-11-27_07h24.51.333,lexical_decision_task_MP_exp2,2020.2.5,Win32,60,z,1,0.052,,,,,,,,0.052,1,,,,,,280,NW,"ID",33,curbol,CURBOL,z,,,,,,,0.0390625,-0.37890625,0,0,0,,0,37,37,279,1,,
,,,,,,,,,,,,,,,,,,5fb87cc7e395495e86b4dda8,2020-11-27_07h24.51.333,lexical_decision_task_MP_exp2,2020.2.5,Win32,60,m,1,0.002,,,,,,,,0.002,1,,,,,,180,WORD,UN,33,thrive,SILENT,m,,,,,,,0.0390625,-0.37890625,0,0,0,,0,38,38,179,1,,
,,,,,,,,,,,,,,,,,,5fb87cc7e395495e86b4dda8,2020-11-27_07h24.51.333,lexical_decision_task_MP_exp2,2020.2.5,Win32,60,z,1,0.001,,,,,,,,0.001,1,,,,,,324,NW,"ID",16,steikh,STEIKH,z,,,,,,,0.0390625,-0.37890625,0,0,0,,0,39,39,323,1,,
,,,,,,,,,,,,,,,,,,5fb87cc7e395495e86b4dda8,2020-11-27_07h24.51.333,lexical_decision_task_MP_exp2,2020.2.5,Win32,60,z,0,1.092,,,,,,,,1.092,0,,,,,,168,WORD,UN,33,genius,ANSWER,m,,,,,,,0.0390625,-0.37890625,0,0,0,,0,40,40,167,1,,
,,,,,,,,,,,,,,,,,,5fb87cc7e395495e86b4dda8,2020-11-27_07h24.51.333,lexical_decision_task_MP_exp2,2020.2.5,Win32,60,m,0,0.134,,,,,,,,0.134,0,,,,,,410,NW,UN,33,orchin,TUNORY,z,,,,,,,0.0390625,-0.37890625,0,0,0,,0,41,41,409,1,,
,,,,,,,,,,,,,,,,,,5fb87cc7e395495e86b4dda8,2020-11-27_07h24.51.333,lexical_decision_task_MP_exp2,2020.2.5,Win32,60,m,1,0.002,,,,,,,,0.002,1,,,,,,225,WORD,UN,16,kidney,VULGAR,m,,,,,,,0.0390625,-0.37890625,0,0,0,,0,42,42,224,1,,
,,,,,,,,,,,,,,,,,,5fb87cc7e395495e86b4dda8,2020-11-27_07h24.51.333,lexical_decision_task_MP_exp2,2020.2.5,Win32,60,m,1,0.006,,,,,,,,0.006,1,,,,,,7,WORD,"ID",33,anchor,ANCHOR,m,,,,,,,0.0390625,-0.37890625,0,0,0,,0,43,43,6,1,,
,,,,,,,,,,,,,,,,,,5fb87cc7e395495e86b4dda8,2020-11-27_07h24.51.333,lexical_decision_task_MP_exp2,2020.2.5,Win32,60,m,1,0.056,,,,,,,,0.056,1,,,,,,87,WORD,"ID",16,filter,FILTER,m,,,,,,,0.0390625,-0.37890625,0,0,0,,0,44,44,86,1,,
,,,,,,,,,,,,,,,,,,5fb87cc7e395495e86b4dda8,2020-11-27_07h24.51.333,lexical_decision_task_MP_exp2,2020.2.5,Win32,60,z,1,0.086,,,,,,,,0.086,1,,,,,,283,NW,"ID",33,veralf,VERALF,z,,,,,,,0.0390625,-0.37890625,0,0,0,,0,45,45,282,1,,
,,,,,,,,,,,,,,,,,,5fb87cc7e395495e86b4dda8,2020-11-27_07h24.51.333,lexical_decision_task_MP_exp2,2020.2.5,Win32,60,m,1,0.859,,,,,,,,0.859,1,,,,,,52,WORD,"ID",33,impose,IMPOSE,m,,,,,,,0.0390625,-0.380208333,0,0,0,,0,46,46,51,1,,
,,,,,,,,,,,,,,,,,,5fb87cc7e395495e86b4dda8,2020-11-27_07h24.51.333,lexical_decision_task_MP_exp2,2020.2.5,Win32,60,m,0,0.04,,,,,,,,0.04,0,,,,,,425,NW,UN,16,schind,FRUDGE,z,,,,,,,-0.015625,-0.377604167,0,0,0,,0,47,47,424,1,,
,,,,,,,,,,,,,,,,,,5fb87cc7e395495e86b4dda8,2020-11-27_07h24.51.333,lexical_decision_task_MP_exp2,2020.2.5,Win32,60,m,0,0.105,,,,,,,,0.105,0,,,,,,397,NW,UN,33,blunde,CAMBLE,z,,,,,,,-0.096354167,-0.37109375,0,0,0,,0,48,48,396,1,,
,,,,,,,,,,,,,,,,,,5fb87cc7e395495e86b4dda8,2020-11-27_07h24.51.333,lexical_decision_task_MP_exp2,2020.2.5,Win32,60,m,0,0.433,,,,,,,,0.433,0,,,,,,242,NW,"ID",33,unwert,UNWERT,z,,,,,,,-0.16015625,-0.368489583,0,0,0,,0,49,49,241,1,,
,,,,,,,,,,,,,,,,,,5fb87cc7e395495e86b4dda8,2020-11-27_07h24.51.333,lexical_decision_task_MP_exp2,2020.2.5,Win32,60,z,1,0.333,,,,,,,,0.333,1,,,,,,299,NW,"ID",33,sturch,STURCH,z,,,,,,,-0.170572917,-0.369791667,0,0,0,,0,50,50,298,1,,
,,,,,,,,,,,,,,,,,,5fb87cc7e395495e86b4dda8,2020-11-27_07h24.51.333,lexical_decision_task_MP_exp2,2020.2.5,Win32,60,m,1,0.193,,,,,,,,0.193,1,,,,,,8,WORD,"ID",33,abrupt,ABRUPT,m,,,,,,,-0.170572917,-0.369791667,0,0,0,,0,51,51,7,1,,
,,,,,,,,,,,,,,,,,,5fb87cc7e395495e86b4dda8,2020-11-27_07h24.51.333,lexical_decision_task_MP_exp2,2020.2.5,Win32,60,m,1,0.139,,,,,,,,0.139,1,,,,,,204,WORD,UN,16,lounge,BURDEN,m,,,,,,,-0.201822917,-0.376302083,0,0,0,,0,52,52,203,1,,
,,,,,,,,,,,,,,,,,,5fb87cc7e395495e86b4dda8,2020-11-27_07h24.51.333,lexical_decision_task_MP_exp2,2020.2.5,Win32,60,m,0,0.001,,,,,,,,0.001,0,,,,,,304,NW,"ID",16,cludie,CLUDIE,z,,,,,,,-0.201822917,-0.376302083,0,0,0,,0,53,53,303,1,,
,,,,,,,,,,,,,,,,,,5fb87cc7e395495e86b4dda8,2020-11-27_07h24.51.333,lexical_decision_task_MP_exp2,2020.2.5,Win32,60,m,1,0.024,,,,,,,,0.024,1,,,,,,205,WORD,UN,16,tailor,LOUNGE,m,,,,,,,-0.201822917,-0.376302083,0,0,0,,0,54,54,204,1,,
,,,,,,,,,,,,,,,,,,5fb87cc7e395495e86b4dda8,2020-11-27_07h24.51.333,lexical_decision_task_MP_exp2,2020.2.5,Win32,60,z,0,0.1,,,,,,,,0.1,0,,,,,,174,WORD,UN,33,fabric,TURKEY,m,,,,,,,-0.201822917,-0.376302083,0,0,0,,0,55,55,173,1,,
,,,,,,,,,,,,,,,,,,5fb87cc7e395495e86b4dda8,2020-11-27_07h24.51.333,lexical_decision_task_MP_exp2,2020.2.5,Win32,60,m,1,0.151,,,,,,,,0.151,1,,,,,,235,WORD,UN,16,pirate,GRUMPY,m,,,,,,,-0.201822917,-0.376302083,0,0,0,,0,56,56,234,1,,
,,,,,,,,,,,,,,,,,,5fb87cc7e395495e86b4dda8,2020-11-27_07h24.51.333,lexical_decision_task_MP_exp2,2020.2.5,Win32,60,z,1,0.101,,,,,,,,0.101,1,,,,,,246,NW,"ID",33,piaton,PIATON,z,,,,,,,-0.201822917,-0.376302083,0,0,0,,0,57,57,245,1,,
,,,,,,,,,,,,,,,,,,5fb87cc7e395495e86b4dda8,2020-11-27_07h24.51.333,lexical_decision_task_MP_exp2,2020.2.5,Win32,60,m,0,0.107,,,,,,,,0.107,0,,,,,,403,NW,UN,33,cluirm,BRUATS,z,,,,,,,-0.201822917,-0.376302083,0,0,0,,0,58,58,402,1,,
,,,,,,,,,,,,,,,,,,5fb87cc7e395495e86b4dda8,2020-11-27_07h24.51.333,lexical_decision_task_MP_exp2,2020.2.5,Win32,60,m,0,0.002,,,,,,,,0.002,0,,,,,,348,NW,"ID",16,dumple,DUMPLE,z,,,,,,,-0.201822917,-0.376302083,0,0,0,,0,59,59,347,1,,
,,,,,,,,,,,,,,,,,,5fb87cc7e395495e86b4dda8,2020-11-27_07h24.51.333,lexical_decision_task_MP_exp2,2020.2.5,Win32,60,m,1,0.003,,,,,,,,0.003,1,,,,,,74,WORD,"ID",16,plaque,PLAQUE,m,,,,,,,-0.201822917,-0.376302083,0,0,0,,0,60,60,73,1,,
,,,,,,,,,,,,,,,,,,5fb87cc7e395495e86b4dda8,2020-11-27_07h24.51.333,lexical_decision_task_MP_exp2,2020.2.5,Win32,60,m,0,0.003,,,,,,,,0.003,0,,,,,,409,NW,UN,33,tunory,ELOPIA,z,,,,,,,-0.201822917,-0.376302083,0,0,0,,0,61,61,408,1,,
,,,,,,,,,,,,,,,,,,5fb87cc7e395495e86b4dda8,2020-11-27_07h24.51.333,lexical_decision_task_MP_exp2,2020.2.5,Win32,60,z,0,0.101,,,,,,,,0.101,0,,,,,,51,WORD,"ID",33,hungry,HUNGRY,m,,,,,,,-0.201822917,-0.376302083,0,0,0,,0,62,62,50,1,,
,,,,,,,,,,,,,,,,,,5fb87cc7e395495e86b4dda8,2020-11-27_07h24.51.333,lexical_decision_task_MP_exp2,2020.2.5,Win32,60,m,0,0.117,,,,,,,,0.117,0,,,,,,374,NW,UN,33,yorque,SLIANT,z,,,,,,,-0.201822917,-0.376302083,0,0,0,,0,63,63,373,1,,
,,,,,,,,,,,,,,,,,,5fb87cc7e395495e86b4dda8,2020-11-27_07h24.51.333,lexical_decision_task_MP_exp2,2020.2.5,Win32,60,z,0,0.158,,,,,,,,0.158,0,,,,,,149,WORD,UN,33,random,INVADE,m,,,,,,,-0.201822917,-0.376302083,0,0,0,,0,64,64,148,1,,
,,,,,,,,,,,,,,,,,,5fb87cc7e395495e86b4dda8,2020-11-27_07h24.51.333,lexical_decision_task_MP_exp2,2020.2.5,Win32,60,m,0,0.084,,,,,,,,0.084,0,,,,,,293,NW,"ID",33,swance,SWANCE,z,,,,,,,-0.201822917,-0.376302083,0,0,0,,0,65,65,292,1,,
,,,,,,,,,,,,,,,,,,5fb87cc7e395495e86b4dda8,2020-11-27_07h24.51.333,lexical_decision_task_MP_exp2,2020.2.5,Win32,60,m,1,0.017,,,,,,,,0.017,1,,,,,,208,WORD,UN,16,search,HOCKEY,m,,,,,,,-0.201822917,-0.376302083,0,0,0,,0,66,66,207,1,,
,,,,,,,,,,,,,,,,,,5fb87cc7e395495e86b4dda8,2020-11-27_07h24.51.333,lexical_decision_task_MP_exp2,2020.2.5,Win32,60,m,1,0.002,,,,,,,,0.002,1,,,,,,43,WORD,"ID",33,tongue,TONGUE,m,,,,,,,-0.201822917,-0.376302083,0,0,0,,0,67,67,42,1,,
,,,,,,,,,,,,,,,,,,5fb87cc7e395495e86b4dda8,2020-11-27_07h24.51.333,lexical_decision_task_MP_exp2,2020.2.5,Win32,60,z,1,0.117,,,,,,,,0.117,1,,,,,,276,NW,"ID",33,yarmon,YARMON,z,,,,,,,-0.201822917,-0.376302083,0,0,0,,0,68,68,275,1,,
,,,,,,,,,,,,,,,,,,5fb87cc7e395495e86b4dda8,2020-11-27_07h24.51.333,lexical_decision_task_MP_exp2,2020.2.5,Win32,60,m,0,0.117,,,,,,,,0.117,0,,,,,,319,NW,"ID",16,zomber,ZOMBER,z,,,,,,,-0.201822917,-0.376302083,0,0,0,,0,69,69,318,1,,
,,,,,,,,,,,,,,,,,,5fb87cc7e395495e86b4dda8,2020-11-27_07h24.51.333,lexical_decision_task_MP_exp2,2020.2.5,Win32,60,z,0,0.099,,,,,,,,0.099,0,,,,,,234,WORD,UN,16,lumber,CLUMSY,m,,,,,,,-0.201822917,-0.376302083,0,0,0,,0,70,70,233,1,,
,,,,,,,,,,,,,,,,,,5fb87cc7e395495e86b4dda8,2020-11-27_07h24.51.333,lexical_decision_task_MP_exp2,2020.2.5,Win32,60,m,0,0.134,,,,,,,,0.134,0,,,,,,349,NW,"ID",16,asylen,ASYLEN,z,,,,,,,-0.201822917,-0.376302083,0,0,0,,0,71,71,348,1,,
,,,,,,,,,,,,,,,,,,5fb87cc7e395495e86b4dda8,2020-11-27_07h24.51.333,lexical_decision_task_MP_exp2,2020.2.5,Win32,60,z,1,0.122,,,,,,,,0.122,1,,,,,,360,NW,"ID",16,desory,DESORY,z,,,,,,,-0.201822917,-0.376302083,0,0,0,,0,72,72,359,1,,
,,,,,,,,,,,,,,,,,,5fb87cc7e395495e86b4dda8,2020-11-27_07h24.51.333,lexical_decision_task_MP_exp2,2020.2.5,Win32,60,z,1,0.023,,,,,,,,0.023,1,,,,,,308,NW,"ID",16,psetch,PSETCH,z,,,,,,,-0.201822917,-0.376302083,0,0,0,,0,73,73,307,1,,
,,,,,,,,,,,,,,,,,,5fb87cc7e395495e86b4dda8,2020-11-27_07h24.51.333,lexical_decision_task_MP_exp2,2020.2.5,Win32,60,z,0,0.024,,,,,,,,0.024,0,,,,,,99,WORD,"ID",16,fluent,FLUENT,m,,,,,,,-0.201822917,-0.376302083,0,0,0,,0,74,74,98,1,,
,,,,,,,,,,,,,,,,,,5fb87cc7e395495e86b4dda8,2020-11-27_07h24.51.333,lexical_decision_task_MP_exp2,2020.2.5,Win32,60,z,0,0.008,,,,,,,,0.008,0,,,,,,114,WORD,"ID",16,placid,PLACID,m,,,,,,,-0.201822917,-0.376302083,0,0,0,,0,75,75,113,1,,
,,,,,,,,,,,,,,,,,,5fb87cc7e395495e86b4dda8,2020-11-27_07h24.51.333,lexical_decision_task_MP_exp2,2020.2.5,Win32,60,z,1,0.018,,,,,,,,0.018,1,,,,,,344,NW,"ID",16,scrily,SCRILY,z,,,,,,,-0.201822917,-0.376302083,0,0,0,,0,76,76,343,1,,
,,,,,,,,,,,,,,,,,,5fb87cc7e395495e86b4dda8,2020-11-27_07h24.51.333,lexical_decision_task_MP_exp2,2020.2.5,Win32,60,m,0,0.117,,,,,,,,0.117,0,,,,,,480,NW,UN,16,knisma,ROBULY,z,,,,,,,-0.201822917,-0.376302083,0,0,0,,0,77,77,479,1,,
,,,,,,,,,,,,,,,,,,5fb87cc7e395495e86b4dda8,2020-11-27_07h24.51.333,lexical_decision_task_MP_exp2,2020.2.5,Win32,60,m,1,0.051,,,,,,,,0.051,1,,,,,,218,WORD,UN,16,bucket,SHRINK,m,,,,,,,-0.201822917,-0.376302083,0,0,0,,0,78,78,217,1,,
,,,,,,,,,,,,,,,,,,5fb87cc7e395495e86b4dda8,2020-11-27_07h24.51.333,lexical_decision_task_MP_exp2,2020.2.5,Win32,60,z,1,0.038,,,,,,,,0.038,1,,,,,,395,NW,UN,33,flengy,COLURY,z,,,,,,,-0.201822917,-0.376302083,0,0,0,,0,79,79,394,1,,
,,,,,,,,,,,,,,,,,,5fb87cc7e395495e86b4dda8,2020-11-27_07h24.51.333,lexical_decision_task_MP_exp2,2020.2.5,Win32,60,z,1,0.286,,,,,,,,0.286,1,,,,,,477,NW,UN,16,acrise,PHOTIE,z,,,,,,,-0.201822917,-0.376302083,0,0,0,,0,80,80,476,1,,
,,,,,,,,,,,,,,,,,,5fb87cc7e395495e86b4dda8,2020-11-27_07h24.51.333,lexical_decision_task_MP_exp2,2020.2.5,Win32,60,m,1,0.189,,,,,,,,0.189,1,,,,,,215,WORD,UN,16,behalf,PHOBIA,m,,,,,,,-0.201822917,-0.376302083,0,0,0,,0,81,81,214,1,,
,,,,,,,,,,,,,,,,,,5fb87cc7e395495e86b4dda8,2020-11-27_07h24.51.333,lexical_decision_task_MP_exp2,2020.2.5,Win32,60,m,1,0.071,,,,,,,,0.071,1,,,,,,111,WORD,"ID",16,induce,INDUCE,m,,,,,,,-0.201822917,-0.376302083,0,0,0,,0,82,82,110,1,,
,,,,,,,,,,,,,,,,,,5fb87cc7e395495e86b4dda8,2020-11-27_07h24.51.333,lexical_decision_task_MP_exp2,2020.2.5,Win32,60,m,0,0.034,,,,,,,,0.034,0,,,,,,383,NW,UN,33,guesco,AUNGRE,z,,,,,,,-0.201822917,-0.376302083,0,0,0,,0,83,83,382,1,,
,,,,,,,,,,,,,,,,,,5fb87cc7e395495e86b4dda8,2020-11-27_07h24.51.333,lexical_decision_task_MP_exp2,2020.2.5,Win32,60,z,0,0.125,,,,,,,,0.125,0,,,,,,134,WORD,UN,33,import,STAPLE,m,,,,,,,-0.201822917,-0.376302083,0,0,0,,0,84,84,133,1,,
,,,,,,,,,,,,,,,,,,5fb87cc7e395495e86b4dda8,2020-11-27_07h24.51.333,lexical_decision_task_MP_exp2,2020.2.5,Win32,60,m,1,0.12,,,,,,,,0.12,1,,,,,,10,WORD,"ID",33,ethnic,ETHNIC,m,,,,,,,-0.201822917,-0.376302083,0,0,0,,0,85,85,9,1,,
,,,,,,,,,,,,,,,,,,5fb87cc7e395495e86b4dda8,2020-11-27_07h24.51.333,lexical_decision_task_MP_exp2,2020.2.5,Win32,60,m,1,0.025,,,,,,,,0.025,1,,,,,,24,WORD,"ID",33,praise,PRAISE,m,,,,,,,-0.201822917,-0.376302083,0,0,0,,0,86,86,23,1,,
,,,,,,,,,,,,,,,,,,5fb87cc7e395495e86b4dda8,2020-11-27_07h24.51.333,lexical_decision_task_MP_exp2,2020.2.5,Win32,60,z,0,0.077,,,,,,,,0.077,0,,,,,,45,WORD,"ID",33,clergy,CLERGY,m,,,,,,,-0.201822917,-0.376302083,0,0,0,,0,87,87,44,1,,
,,,,,,,,,,,,,,,,,,5fb87cc7e395495e86b4dda8,2020-11-27_07h24.51.333,lexical_decision_task_MP_exp2,2020.2.5,Win32,60,z,0,0.016,,,,,,,,0.016,0,,,,,,207,WORD,UN,16,hockey,WREATH,m,,,,,,,-0.201822917,-0.376302083,0,0,0,,0,88,88,206,1,,
,,,,,,,,,,,,,,,,,,5fb87cc7e395495e86b4dda8,2020-11-27_07h24.51.333,lexical_decision_task_MP_exp2,2020.2.5,Win32,60,z,0,0.067,,,,,,,,0.067,0,,,,,,122,WORD,UN,33,strike,LINGER,m,,,,,,,-0.201822917,-0.376302083,0,0,0,,0,89,89,121,1,,
,,,,,,,,,,,,,,,,,,5fb87cc7e395495e86b4dda8,2020-11-27_07h24.51.333,lexical_decision_task_MP_exp2,2020.2.5,Win32,60,m,0,0.168,,,,,,,,0.168,0,,,,,,399,NW,UN,33,wearox,FOURET,z,,,,,,,-0.201822917,-0.376302083,0,0,0,,0,90,90,398,1,,
,,,,,,,,,,,,,,,,,,5fb87cc7e395495e86b4dda8,2020-11-27_07h24.51.333,lexical_decision_task_MP_exp2,2020.2.5,Win32,60,z,0,0.043,,,,,,,,0.043,0,,,,,,132,WORD,UN,33,bleach,STRONG,m,,,,,,,-0.201822917,-0.376302083,0,0,0,,0,91,91,131,1,,
,,,,,,,,,,,,,,,,,,5fb87cc7e395495e86b4dda8,2020-11-27_07h24.51.333,lexical_decision_task_MP_exp2,2020.2.5,Win32,60,z,1,0.138,,,,,,,,0.138,1,,,,,,468,NW,UN,16,padifs,WICTOR,z,,,,,,,-0.201822917,-0.376302083,0,0,0,,0,92,92,467,1,,
,,,,,,,,,,,,,,,,,,5fb87cc7e395495e86b4dda8,2020-11-27_07h24.51.333,lexical_decision_task_MP_exp2,2020.2.5,Win32,60,m,1,0.102,,,,,,,,0.102,1,,,,,,173,WORD,UN,33,turkey,SHOWER,m,,,,,,,-0.201822917,-0.376302083,0,0,0,,0,93,93,172,1,,
,,,,,,,,,,,,,,,,,,5fb87cc7e395495e86b4dda8,2020-11-27_07h24.51.333,lexical_decision_task_MP_exp2,2020.2.5,Win32,60,z,1,0.068,,,,,,,,0.068,1,,,,,,254,NW,"ID",33,varosh,VAROSH,z,,,,,,,-0.201822917,-0.376302083,0,0,0,,0,94,94,253,1,,
,,,,,,,,,,,,,,,,,,5fb87cc7e395495e86b4dda8,2020-11-27_07h24.51.333,lexical_decision_task_MP_exp2,2020.2.5,Win32,60,z,0,0.002,,,,,,,,0.002,0,,,,,,78,WORD,"ID",16,column,COLUMN,m,,,,,,,-0.201822917,-0.376302083,0,0,0,,0,95,95,77,1,,
,,,,,,,,,,,,,,,,,,5fb87cc7e395495e86b4dda8,2020-11-27_07h24.51.333,lexical_decision_task_MP_exp2,2020.2.5,Win32,60,m,1,0.09,,,,,,,,0.09,1,,,,,,158,WORD,UN,33,detail,ISLAND,m,,,,,,,-0.201822917,-0.376302083,0,0,0,,0,96,96,157,1,,
,,,,,,,,,,,,,,,,,,5fb87cc7e395495e86b4dda8,2020-11-27_07h24.51.333,lexical_decision_task_MP_exp2,2020.2.5,Win32,60,z,0,0.121,,,,,,,,0.121,0,,,,,,66,WORD,"ID",16,gospel,GOSPEL,m,,,,,,,-0.201822917,-0.376302083,0,0,0,,0,97,97,65,1,,
,,,,,,,,,,,,,,,,,,5fb87cc7e395495e86b4dda8,2020-11-27_07h24.51.333,lexical_decision_task_MP_exp2,2020.2.5,Win32,60,m,1,0.124,,,,,,,,0.124,1,,,,,,229,WORD,UN,16,fringe,MOTHER,m,,,,,,,-0.201822917,-0.376302083,0,0,0,,0,98,98,228,1,,
,,,,,,,,,,,,,,,,,,5fb87cc7e395495e86b4dda8,2020-11-27_07h24.51.333,lexical_decision_task_MP_exp2,2020.2.5,Win32,60,z,0,0.084,,,,,,,,0.084,0,,,,,,165,WORD,UN,33,starch,INVEST,m,,,,,,,-0.201822917,-0.376302083,0,0,0,,0,99,99,164,1,,
,,,,,,,,,,,,,,,,,,5fb87cc7e395495e86b4dda8,2020-11-27_07h24.51.333,lexical_decision_task_MP_exp2,2020.2.5,Win32,60,m,1,0.101,,,,,,,,0.101,1,,,,,,21,WORD,"ID",33,simple,SIMPLE,m,,,,,,,-0.201822917,-0.376302083,0,0,0,,0,100,100,20,1,,
,,,,,,,,,,,,,,,,,,5fb87cc7e395495e86b4dda8,2020-11-27_07h24.51.333,lexical_decision_task_MP_exp2,2020.2.5,Win32,60,z,1,0.05,,,,,,,,0.05,1,,,,,,420,NW,UN,33,pauche,GUSHOP,z,,,,,,,-0.201822917,-0.376302083,0,0,0,,0,101,101,419,1,,
,,,,,,,,,,,,,,,,,,5fb87cc7e395495e86b4dda8,2020-11-27_07h24.51.333,lexical_decision_task_MP_exp2,2020.2.5,Win32,60,m,1,0.058,,,,,,,,0.058,1,,,,,,164,WORD,UN,33,invest,MARKET,m,,,,,,,-0.201822917,-0.376302083,0,0,0,,0,102,102,163,1,,
,,,,,,,,,,,,,,,,,,5fb87cc7e395495e86b4dda8,2020-11-27_07h24.51.333,lexical_decision_task_MP_exp2,2020.2.5,Win32,60,m,0,0.083,,,,,,,,0.083,0,,,,,,393,NW,UN,33,spaqux,GANOUS,z,,,,,,,-0.201822917,-0.376302083,0,0,0,,0,103,103,392,1,,
,,,,,,,,,,,,,,,,,,5fb87cc7e395495e86b4dda8,2020-11-27_07h24.51.333,lexical_decision_task_MP_exp2,2020.2.5,Win32,60,m,1,0.049,,,,,,,,0.049,1,,,,,,195,WORD,UN,16,credit,RESIGN,m,,,,,,,-0.201822917,-0.376302083,0,0,0,,0,104,104,194,1,,
,,,,,,,,,,,,,,,,,,5fb87cc7e395495e86b4dda8,2020-11-27_07h24.51.333,lexical_decision_task_MP_exp2,2020.2.5,Win32,60,m,1,0.005,,,,,,,,0.005,1,,,,,,181,WORD,UN,16,winter,GLANCE,m,,,,,,,-0.201822917,-0.376302083,0,0,0,,0,105,105,180,1,,
,,,,,,,,,,,,,,,,,,5fb87cc7e395495e86b4dda8,2020-11-27_07h24.51.333,lexical_decision_task_MP_exp2,2020.2.5,Win32,60,z,1,0.131,,,,,,,,0.131,1,,,,,,416,NW,UN,33,earoud,PATHEL,z,,,,,,,-0.201822917,-0.376302083,0,0,0,,0,106,106,415,1,,
,,,,,,,,,,,,,,,,,,5fb87cc7e395495e86b4dda8,2020-11-27_07h24.51.333,lexical_decision_task_MP_exp2,2020.2.5,Win32,60,m,0,0.042,,,,,,,,0.042,0,,,,,,275,NW,"ID",33,sleirt,SLEIRT,z,,,,,,,-0.201822917,-0.376302083,0,0,0,,0,107,107,274,1,,
,,,,,,,,,,,,,,,,,,5fb87cc7e395495e86b4dda8,2020-11-27_07h24.51.333,lexical_decision_task_MP_exp2,2020.2.5,Win32,60,m,0,0.002,,,,,,,,0.002,0,,,,,,465,NW,UN,16,hocite,WHIVEX,z,,,,,,,-0.201822917,-0.376302083,0,0,0,,0,108,108,464,1,,
,,,,,,,,,,,,,,,,,,5fb87cc7e395495e86b4dda8,2020-11-27_07h24.51.333,lexical_decision_task_MP_exp2,2020.2.5,Win32,60,z,0,0.118,,,,,,,,0.118,0,,,,,,98,WORD,"ID",16,belong,BELONG,m,,,,,,,-0.201822917,-0.376302083,0,0,0,,0,109,109,97,1,,
,,,,,,,,,,,,,,,,,,5fb87cc7e395495e86b4dda8,2020-11-27_07h24.51.333,lexical_decision_task_MP_exp2,2020.2.5,Win32,60,m,0,0.05,,,,,,,,0.05,0,,,,,,337,NW,"ID",16,rejols,REJOLS,z,,,,,,,-0.201822917,-0.376302083,0,0,0,,0,110,110,336,1,,
,,,,,,,,,,,,,,,,,,5fb87cc7e395495e86b4dda8,2020-11-27_07h24.51.333,lexical_decision_task_MP_exp2,2020.2.5,Win32,60,z,0,0.137,,,,,,,,0.137,0,,,,,,119,WORD,"ID",16,spider,SPIDER,m,,,,,,,-0.201822917,-0.376302083,0,0,0,,0,111,111,118,1,,
,,,,,,,,,,,,,,,,,,5fb87cc7e395495e86b4dda8,2020-11-27_07h24.51.333,lexical_decision_task_MP_exp2,2020.2.5,Win32,60,m,1,0.075,,,,,,,,0.075,1,,,,,,123,WORD,UN,33,enough,STRIKE,m,,,,,,,-0.201822917,-0.376302083,0,0,0,,0,112,112,122,1,,
,,,,,,,,,,,,,,,,,,5fb87cc7e395495e86b4dda8,2020-11-27_07h24.51.333,lexical_decision_task_MP_exp2,2020.2.5,Win32,60,m,1,0.186,,,,,,,,0.186,1,,,,,,94,WORD,"ID",16,travel,TRAVEL,m,,,,,,,-0.201822917,-0.376302083,0,0,0,,0,113,113,93,1,,
,,,,,,,,,,,,,,,,,,5fb87cc7e395495e86b4dda8,2020-11-27_07h24.51.333,lexical_decision_task_MP_exp2,2020.2.5,Win32,60,m,0,0.171,,,,,,,,0.171,0,,,,,,406,NW,UN,33,suiver,NOUPLY,z,,,,,,,-0.201822917,-0.376302083,0,0,0,,0,114,114,405,1,,
,,,,,,,,,,,,,,,,,,5fb87cc7e395495e86b4dda8,2020-11-27_07h24.51.333,lexical_decision_task_MP_exp2,2020.2.5,Win32,60,z,1,0.102,,,,,,,,0.102,1,,,,,,318,NW,"ID",16,reagly,REAGLY,z,,,,,,,-0.201822917,-0.376302083,0,0,0,,0,115,115,317,1,,
,,,,,,,,,,,,,,,,,,5fb87cc7e395495e86b4dda8,2020-11-27_07h24.51.333,lexical_decision_task_MP_exp2,2020.2.5,Win32,60,z,1,0.004,,,,,,,,0.004,1,,,,,,366,NW,UN,33,slique,TOSHEL,z,,,,,,,-0.201822917,-0.376302083,0,0,0,,0,116,116,365,1,,
,,,,,,,,,,,,,,,,,,5fb87cc7e395495e86b4dda8,2020-11-27_07h24.51.333,lexical_decision_task_MP_exp2,2020.2.5,Win32,60,z,1,0.005,,,,,,,,0.005,1,,,,,,338,NW,"ID",16,wreash,WREASH,z,,,,,,,-0.201822917,-0.376302083,0,0,0,,0,117,117,337,1,,
,,,,,,,,,,,,,,,,,,5fb87cc7e395495e86b4dda8,2020-11-27_07h24.51.333,lexical_decision_task_MP_exp2,2020.2.5,Win32,60,m,0,0.039,,,,,,,,0.039,0,,,,,,260,NW,"ID",33,unject,UNJECT,z,,,,,,,-0.201822917,-0.376302083,0,0,0,,0,118,118,259,1,,
,,,,,,,,,,,,,,,,,,5fb87cc7e395495e86b4dda8,2020-11-27_07h24.51.333,lexical_decision_task_MP_exp2,2020.2.5,Win32,60,m,1,0.205,,,,,,,,0.205,1,,,,,,30,WORD,"ID",33,orient,ORIENT,m,,,,,,,-0.201822917,-0.376302083,0,0,0,,0,119,119,29,1,,
,,,,,,,,,,,,,,,,,,5fb87cc7e395495e86b4dda8,2020-11-27_07h24.51.333,lexical_decision_task_MP_exp2,2020.2.5,Win32,60,z,0,0.157,,,,,,,,0.157,0,,,,,,41,WORD,"ID",33,spring,SPRING,m,,,,,,,-0.02734375,-0.3984375,1,0,0,,0,120,120,40,1,break_done_button,
,,,,,,,,,,,,,,,,,,5fb87cc7e395495e86b4dda8,2020-11-27_07h24.51.333,lexical_decision_task_MP_exp2,2020.2.5,Win32,60,m,0,1.803,,,,,,,,1.803,0,,,,,,351,NW,"ID",16,tiesch,TIESCH,z,,,,,,,0.19921875,-0.317708333,0,0,0,,0,121,121,350,1,,
,,,,,,,,,,,,,,,,,,5fb87cc7e395495e86b4dda8,2020-11-27_07h24.51.333,lexical_decision_task_MP_exp2,2020.2.5,Win32,60,m,1,0.367,,,,,,,,0.367,1,,,,,,216,WORD,UN,16,liquor,BEHALF,m,,,,,,,0.19921875,-0.317708333,0,0,0,,0,122,122,215,1,,
,,,,,,,,,,,,,,,,,,5fb87cc7e395495e86b4dda8,2020-11-27_07h24.51.333,lexical_decision_task_MP_exp2,2020.2.5,Win32,60,m,0,0.468,,,,,,,,0.468,0,,,,,,424,NW,UN,16,urivel,PRAILE,z,,,,,,,0.192708333,-0.319010417,0,0,0,,0,123,123,423,1,,
,,,,,,,,,,,,,,,,,,5fb87cc7e395495e86b4dda8,2020-11-27_07h24.51.333,lexical_decision_task_MP_exp2,2020.2.5,Win32,60,m,0,0.092,,,,,,,,0.092,0,,,,,,421,NW,UN,16,alcoud,KNISMA,z,,,,,,,0.192708333,-0.319010417,0,0,0,,0,124,124,420,1,,
,,,,,,,,,,,,,,,,,,5fb87cc7e395495e86b4dda8,2020-11-27_07h24.51.333,lexical_decision_task_MP_exp2,2020.2.5,Win32,60,m,0,0.002,,,,,,,,0.002,0,,,,,,427,NW,UN,16,tandly,SCHIND,z,,,,,,,0.192708333,-0.319010417,0,0,0,,0,125,125,426,1,,
,,,,,,,,,,,,,,,,,,5fb87cc7e395495e86b4dda8,2020-11-27_07h24.51.333,lexical_decision_task_MP_exp2,2020.2.5,Win32,60,z,0,0.123,,,,,,,,0.123,0,,,,,,85,WORD,"ID",16,sprawl,SPRAWL,m,,,,,,,0.192708333,-0.319010417,0,0,0,,0,126,126,84,1,,
,,,,,,,,,,,,,,,,,,5fb87cc7e395495e86b4dda8,2020-11-27_07h24.51.333,lexical_decision_task_MP_exp2,2020.2.5,Win32,60,m,0,0.088,,,,,,,,0.088,0,,,,,,433,NW,UN,16,pitrom,DRANCE,z,,,,,,,0.192708333,-0.319010417,0,0,0,,0,127,127,432,1,,
,,,,,,,,,,,,,,,,,,5fb87cc7e395495e86b4dda8,2020-11-27_07h24.51.333,lexical_decision_task_MP_exp2,2020.2.5,Win32,60,z,1,0.086,,,,,,,,0.086,1,,,,,,415,NW,UN,33,pathel,HIGSTA,z,,,,,,,0.192708333,-0.319010417,0,0,0,,0,128,128,414,1,,
,,,,,,,,,,,,,,,,,,5fb87cc7e395495e86b4dda8,2020-11-27_07h24.51.333,lexical_decision_task_MP_exp2,2020.2.5,Win32,60,m,0,0.083,,,,,,,,0.083,0,,,,,,362,NW,UN,33,breali,TIREAU,z,,,,,,,0.192708333,-0.319010417,0,0,0,,0,129,129,361,1,,
,,,,,,,,,,,,,,,,,,5fb87cc7e395495e86b4dda8,2020-11-27_07h24.51.333,lexical_decision_task_MP_exp2,2020.2.5,Win32,60,z,0,0.135,,,,,,,,0.135,0,,,,,,211,WORD,UN,16,verify,INFECT,m,,,,,,,0.192708333,-0.319010417,0,0,0,,0,130,130,210,1,,
,,,,,,,,,,,,,,,,,,5fb87cc7e395495e86b4dda8,2020-11-27_07h24.51.333,lexical_decision_task_MP_exp2,2020.2.5,Win32,60,m,1,0.084,,,,,,,,0.084,1,,,,,,226,WORD,UN,16,flower,CASINO,m,,,,,,,0.192708333,-0.319010417,0,0,0,,0,131,131,225,1,,
,,,,,,,,,,,,,,,,,,5fb87cc7e395495e86b4dda8,2020-11-27_07h24.51.333,lexical_decision_task_MP_exp2,2020.2.5,Win32,60,z,0,0.073,,,,,,,,0.073,0,,,,,,101,WORD,"ID",16,wrench,WRENCH,m,,,,,,,0.192708333,-0.319010417,0,0,0,,0,132,132,100,1,,
,,,,,,,,,,,,,,,,,,5fb87cc7e395495e86b4dda8,2020-11-27_07h24.51.333,lexical_decision_task_MP_exp2,2020.2.5,Win32,60,z,1,0.057,,,,,,,,0.057,1,,,,,,305,NW,"ID",16,forgle,FORGLE,z,,,,,,,0.192708333,-0.319010417,0,0,0,,0,133,133,304,1,,
,,,,,,,,,,,,,,,,,,5fb87cc7e395495e86b4dda8,2020-11-27_07h24.51.333,lexical_decision_task_MP_exp2,2020.2.5,Win32,60,m,0,0.083,,,,,,,,0.083,0,,,,,,460,NW,UN,16,justre,MINGAR,z,,,,,,,0.192708333,-0.319010417,0,0,0,,0,134,134,459,1,,
,,,,,,,,,,,,,,,,,,5fb87cc7e395495e86b4dda8,2020-11-27_07h24.51.333,lexical_decision_task_MP_exp2,2020.2.5,Win32,60,m,1,0.191,,,,,,,,0.191,1,,,,,,54,WORD,"ID",33,ramble,RAMBLE,m,,,,,,,0.192708333,-0.319010417,0,0,0,,0,135,135,53,1,,
,,,,,,,,,,,,,,,,,,5fb87cc7e395495e86b4dda8,2020-11-27_07h24.51.333,lexical_decision_task_MP_exp2,2020.2.5,Win32,60,m,0,0.017,,,,,,,,0.017,0,,,,,,422,NW,UN,16,streld,ALCOUD,z,,,,,,,0.192708333,-0.319010417,0,0,0,,0,136,136,421,1,,
,,,,,,,,,,,,,,,,,,5fb87cc7e395495e86b4dda8,2020-11-27_07h24.51.333,lexical_decision_task_MP_exp2,2020.2.5,Win32,60,m,0,0.16,,,,,,,,0.16,0,,,,,,266,NW,"ID",33,varmit,VARMIT,z,,,,,,,0.192708333,-0.319010417,0,0,0,,0,137,137,265,1,,
,,,,,,,,,,,,,,,,,,5fb87cc7e395495e86b4dda8,2020-11-27_07h24.51.333,lexical_decision_task_MP_exp2,2020.2.5,Win32,60,z,0,0.092,,,,,,,,0.092,0,,,,,,35,WORD,"ID",33,socket,SOCKET,m,,,,,,,0.192708333,-0.319010417,0,0,0,,0,138,138,34,1,,
,,,,,,,,,,,,,,,,,,5fb87cc7e395495e86b4dda8,2020-11-27_07h24.51.333,lexical_decision_task_MP_exp2,2020.2.5,Win32,60,z,0,0.05,,,,,,,,0.05,0,,,,,,239,WORD,UN,16,forest,LUMBER,m,,,,,,,0.192708333,-0.319010417,0,0,0,,0,139,139,238,1,,
,,,,,,,,,,,,,,,,,,5fb87cc7e395495e86b4dda8,2020-11-27_07h24.51.333,lexical_decision_task_MP_exp2,2020.2.5,Win32,60,,0,,,,,,,,,0.05,-1,,,,,,268,NW,"ID",33,packes,PACKES,z,,,,,,,0.192708333,-0.319010417,0,0,0,,0,140,140,267,1,,
,,,,,,,,,,,,,,,,,,5fb87cc7e395495e86b4dda8,2020-11-27_07h24.51.333,lexical_decision_task_MP_exp2,2020.2.5,Win32,60,m,1,0.5,,,,,,,,0.5,1,,,,,,166,WORD,UN,33,design,STARCH,m,,,,,,,0.192708333,-0.319010417,0,0,0,,0,141,141,165,1,,
,,,,,,,,,,,,,,,,,,5fb87cc7e395495e86b4dda8,2020-11-27_07h24.51.333,lexical_decision_task_MP_exp2,2020.2.5,Win32,60,m,1,0.049,,,,,,,,0.049,1,,,,,,63,WORD,"ID",16,launch,LAUNCH,m,,,,,,,0.192708333,-0.319010417,0,0,0,,0,142,142,62,1,,
,,,,,,,,,,,,,,,,,,5fb87cc7e395495e86b4dda8,2020-11-27_07h24.51.333,lexical_decision_task_MP_exp2,2020.2.5,Win32,60,,0,,,,,,,,,0.049,-1,,,,,,70,WORD,"ID",16,square,SQUARE,m,,,,,,,0.33984375,-0.311197917,0,0,0,,0,143,143,69,1,,
,,,,,,,,,,,,,,,,,,5fb87cc7e395495e86b4dda8,2020-11-27_07h24.51.333,lexical_decision_task_MP_exp2,2020.2.5,Win32,60,z,1,0.051,,,,,,,,0.051,1,,,,,,282,NW,"ID",33,porlex,PORLEX,z,,,,,,,0.33984375,-0.311197917,0,0,0,,0,144,144,281,1,,
,,,,,,,,,,,,,,,,,,5fb87cc7e395495e86b4dda8,2020-11-27_07h24.51.333,lexical_decision_task_MP_exp2,2020.2.5,Win32,60,m,1,0.059,,,,,,,,0.059,1,,,,,,14,WORD,"ID",33,almost,ALMOST,m,,,,,,,0.33984375,-0.311197917,0,0,0,,0,145,145,13,1,,
,,,,,,,,,,,,,,,,,,5fb87cc7e395495e86b4dda8,2020-11-27_07h24.51.333,lexical_decision_task_MP_exp2,2020.2.5,Win32,60,,0,,,,,,,,,0.059,-1,,,,,,163,WORD,UN,33,market,STRING,m,,,,,,,0.27734375,-0.265625,0,0,0,,0,146,146,162,1,,
,,,,,,,,,,,,,,,,,,5fb87cc7e395495e86b4dda8,2020-11-27_07h24.51.333,lexical_decision_task_MP_exp2,2020.2.5,Win32,60,,0,,,,,,,,,0.059,-1,,,,,,47,WORD,"ID",33,income,INCOME,m,,,,,,,0.27734375,-0.265625,0,0,0,,0,147,147,46,1,,
,,,,,,,,,,,,,,,,,,5fb87cc7e395495e86b4dda8,2020-11-27_07h24.51.333,lexical_decision_task_MP_exp2,2020.2.5,Win32,60,,0,,,,,,,,,0.059,-1,,,,,,152,WORD,UN,33,behold,ROCKET,m,,,,,,,0.27734375,-0.265625,0,0,0,,0,148,148,151,1,,
,,,,,,,,,,,,,,,,,,5fb87cc7e395495e86b4dda8,2020-11-27_07h24.51.333,lexical_decision_task_MP_exp2,2020.2.5,Win32,60,,0,,,,,,,,,0.059,-1,,,,,,241,NW,"ID",33,smenco,SMENCO,z,,,,,,,0.27734375,-0.265625,0,0,0,,0,149,149,240,1,,
,,,,,,,,,,,,,,,,,,5fb87cc7e395495e86b4dda8,2020-11-27_07h24.51.333,lexical_decision_task_MP_exp2,2020.2.5,Win32,60,,0,,,,,,,,,0.059,-1,,,,,,182,WORD,UN,16,basket,WINTER,m,,,,,,,0.27734375,-0.265625,0,0,0,,0,150,150,181,1,,
,,,,,,,,,,,,,,,,,,5fb87cc7e395495e86b4dda8,2020-11-27_07h24.51.333,lexical_decision_task_MP_exp2,2020.2.5,Win32,60,,0,,,,,,,,,0.059,-1,,,,,,270,NW,"ID",33,wrimsy,WRIMSY,z,,,,,,,0.27734375,-0.265625,0,0,0,,0,151,151,269,1,,
,,,,,,,,,,,,,,,,,,5fb87cc7e395495e86b4dda8,2020-11-27_07h24.51.333,lexical_decision_task_MP_exp2,2020.2.5,Win32,60,,0,,,,,,,,,0.059,-1,,,,,,131,WORD,UN,33,strong,QUENCH,m,,,,,,,0.27734375,-0.265625,0,0,0,,0,152,152,130,1,,
,,,,,,,,,,,,,,,,,,5fb87cc7e395495e86b4dda8,2020-11-27_07h24.51.333,lexical_decision_task_MP_exp2,2020.2.5,Win32,60,,0,,,,,,,,,0.059,-1,,,,,,430,NW,UN,16,funtle,CAROEY,z,,,,,,,0.27734375,-0.265625,0,0,0,,0,153,153,429,1,,
,,,,,,,,,,,,,,,,,,5fb87cc7e395495e86b4dda8,2020-11-27_07h24.51.333,lexical_decision_task_MP_exp2,2020.2.5,Win32,60,,0,,,,,,,,,0.059,-1,,,,,,19,WORD,"ID",33,patron,PATRON,m,,,,,,,0.27734375,-0.265625,0,0,0,,0,154,154,18,1,,
,,,,,,,,,,,,,,,,,,5fb87cc7e395495e86b4dda8,2020-11-27_07h24.51.333,lexical_decision_task_MP_exp2,2020.2.5,Win32,60,,0,,,,,,,,,0.059,-1,,,,,,155,WORD,UN,33,cradle,LIZARD,m,,,,,,,0.27734375,-0.265625,0,0,0,,0,155,155,154,1,,
,,,,,,,,,,,,,,,,,,5fb87cc7e395495e86b4dda8,2020-11-27_07h24.51.333,lexical_decision_task_MP_exp2,2020.2.5,Win32,60,,0,,,,,,,,,0.059,-1,,,,,,263,NW,"ID",33,dolica,DOLICA,z,,,,,,,0.27734375,-0.265625,0,0,0,,0,156,156,262,1,,
,,,,,,,,,,,,,,,,,,5fb87cc7e395495e86b4dda8,2020-11-27_07h24.51.333,lexical_decision_task_MP_exp2,2020.2.5,Win32,60,,0,,,,,,,,,0.059,-1,,,,,,455,NW,UN,16,broget,TONDLE,z,,,,,,,0.27734375,-0.265625,0,0,0,,0,157,157,454,1,,
,,,,,,,,,,,,,,,,,,5fb87cc7e395495e86b4dda8,2020-11-27_07h24.51.333,lexical_decision_task_MP_exp2,2020.2.5,Win32,60,,0,,,,,,,,,0.059,-1,,,,,,83,WORD,"ID",16,result,RESULT,m,,,,,,,0.27734375,-0.265625,0,0,0,,0,158,158,82,1,,
,,,,,,,,,,,,,,,,,,5fb87cc7e395495e86b4dda8,2020-11-27_07h24.51.333,lexical_decision_task_MP_exp2,2020.2.5,Win32,60,,0,,,,,,,,,0.059,-1,,,,,,365,NW,UN,33,toshel,GUAIRT,z,,,,,,,0.27734375,-0.265625,0,0,0,,0,159,159,364,1,,
,,,,,,,,,,,,,,,,,,5fb87cc7e395495e86b4dda8,2020-11-27_07h24.51.333,lexical_decision_task_MP_exp2,2020.2.5,Win32,60,,0,,,,,,,,,0.059,-1,,,,,,267,NW,"ID",33,pasink,PASINK,z,,,,,,,0.27734375,-0.265625,0,0,0,,0,160,160,266,1,,
,,,,,,,,,,,,,,,,,,5fb87cc7e395495e86b4dda8,2020-11-27_07h24.51.333,lexical_decision_task_MP_exp2,2020.2.5,Win32,60,,0,,,,,,,,,0.059,-1,,,,,,69,WORD,"ID",16,plenty,PLENTY,m,,,,,,,0.27734375,-0.265625,0,0,0,,0,161,161,68,1,,
,,,,,,,,,,,,,,,,,,5fb87cc7e395495e86b4dda8,2020-11-27_07h24.51.333,lexical_decision_task_MP_exp2,2020.2.5,Win32,60,,0,,,,,,,,,0.059,-1,,,,,,227,WORD,UN,16,master,SELDOM,m,,,,,,,0.27734375,-0.265625,0,0,0,,0,162,162,226,1,,
,,,,,,,,,,,,,,,,,,5fb87cc7e395495e86b4dda8,2020-11-27_07h24.51.333,lexical_decision_task_MP_exp2,2020.2.5,Win32,60,,0,,,,,,,,,0.059,-1,,,,,,97,WORD,"ID",16,client,CLIENT,m,,,,,,,0.27734375,-0.265625,0,0,0,,0,163,163,96,1,,
,,,,,,,,,,,,,,,,,,5fb87cc7e395495e86b4dda8,2020-11-27_07h24.51.333,lexical_decision_task_MP_exp2,2020.2.5,Win32,60,,0,,,,,,,,,0.059,-1,,,,,,53,WORD,"ID",33,police,POLICE,m,,,,,,,0.27734375,-0.265625,0,0,0,,0,164,164,52,1,,
,,,,,,,,,,,,,,,,,,5fb87cc7e395495e86b4dda8,2020-11-27_07h24.51.333,lexical_decision_task_MP_exp2,2020.2.5,Win32,60,,0,,,,,,,,,0.059,-1,,,,,,1,WORD,"ID",33,fright,FRIGHT,m,,,,,,,0.27734375,-0.265625,0,0,0,,0,165,165,0,1,,
,,,,,,,,,,,,,,,,,,5fb87cc7e395495e86b4dda8,2020-11-27_07h24.51.333,lexical_decision_task_MP_exp2,2020.2.5,Win32,60,,0,,,,,,,,,0.059,-1,,,,,,140,WORD,UN,33,reason,PRINCE,m,,,,,,,0.27734375,-0.265625,0,0,0,,0,166,166,139,1,,
,,,,,,,,,,,,,,,,,,5fb87cc7e395495e86b4dda8,2020-11-27_07h24.51.333,lexical_decision_task_MP_exp2,2020.2.5,Win32,60,,0,,,,,,,,,0.059,-1,,,,,,464,NW,UN,16,whivex,CHAITE,z,,,,,,,0.27734375,-0.265625,0,0,0,,0,167,167,463,1,,
,,,,,,,,,,,,,,,,,,5fb87cc7e395495e86b4dda8,2020-11-27_07h24.51.333,lexical_decision_task_MP_exp2,2020.2.5,Win32,60,,0,,,,,,,,,0.059,-1,,,,,,46,WORD,"ID",33,single,SINGLE,m,,,,,,,0.27734375,-0.265625,0,0,0,,0,168,168,45,1,,
,,,,,,,,,,,,,,,,,,5fb87cc7e395495e86b4dda8,2020-11-27_07h24.51.333,lexical_decision_task_MP_exp2,2020.2.5,Win32,60,,0,,,,,,,,,0.059,-1,,,,,,232,WORD,UN,16,nature,INJECT,m,,,,,,,0.27734375,-0.265625,0,0,0,,0,169,169,231,1,,
,,,,,,,,,,,,,,,,,,5fb87cc7e395495e86b4dda8,2020-11-27_07h24.51.333,lexical_decision_task_MP_exp2,2020.2.5,Win32,60,,0,,,,,,,,,0.059,-1,,,,,,199,WORD,UN,16,beacon,INVOKE,m,,,,,,,0.27734375,-0.265625,0,0,0,,0,170,170,198,1,,
,,,,,,,,,,,,,,,,,,5fb87cc7e395495e86b4dda8,2020-11-27_07h24.51.333,lexical_decision_task_MP_exp2,2020.2.5,Win32,60,,0,,,,,,,,,0.059,-1,,,,,,359,NW,"ID",16,fonver,FONVER,z,,,,,,,0.27734375,-0.265625,0,0,0,,0,171,171,358,1,,
,,,,,,,,,,,,,,,,,,5fb87cc7e395495e86b4dda8,2020-11-27_07h24.51.333,lexical_decision_task_MP_exp2,2020.2.5,Win32,60,,0,,,,,,,,,0.059,-1,,,,,,124,WORD,UN,33,nickel,BLOUSE,m,,,,,,,0.27734375,-0.265625,0,0,0,,0,172,172,123,1,,
,,,,,,,,,,,,,,,,,,5fb87cc7e395495e86b4dda8,2020-11-27_07h24.51.333,lexical_decision_task_MP_exp2,2020.2.5,Win32,60,,0,,,,,,,,,0.059,-1,,,,,,238,WORD,UN,16,grumpy,FLOWER,m,,,,,,,0.27734375,-0.265625,0,0,0,,0,173,173,237,1,,
,,,,,,,,,,,,,,,,,,5fb87cc7e395495e86b4dda8,2020-11-27_07h24.51.333,lexical_decision_task_MP_exp2,2020.2.5,Win32,60,,0,,,,,,,,,0.059,-1,,,,,,375,NW,UN,33,iguare,YORQUE,z,,,,,,,0.27734375,-0.265625,0,0,0,,0,174,174,374,1,,
,,,,,,,,,,,,,,,,,,5fb87cc7e395495e86b4dda8,2020-11-27_07h24.51.333,lexical_decision_task_MP_exp2,2020.2.5,Win32,60,,0,,,,,,,,,0.059,-1,,,,,,391,NW,UN,33,rouncy,THELDY,z,,,,,,,0.27734375,-0.265625,0,0,0,,0,175,175,390,1,,
,,,,,,,,,,,,,,,,,,5fb87cc7e395495e86b4dda8,2020-11-27_07h24.51.333,lexical_decision_task_MP_exp2,2020.2.5,Win32,60,z,0,0.911,,,,,,,,0.911,0,,,,,,148,WORD,UN,33,invade,CUSTOM,m,,,,,,,0.27734375,-0.265625,0,0,0,,0,176,176,147,1,,
,,,,,,,,,,,,,,,,,,5fb87cc7e395495e86b4dda8,2020-11-27_07h24.51.333,lexical_decision_task_MP_exp2,2020.2.5,Win32,60,z,1,0.042,,,,,,,,0.042,1,,,,,,341,NW,"ID",16,myrtie,MYRTIE,z,,,,,,,0.27734375,-0.265625,0,0,0,,0,177,177,340,1,,
,,,,,,,,,,,,,,,,,,5fb87cc7e395495e86b4dda8,2020-11-27_07h24.51.333,lexical_decision_task_MP_exp2,2020.2.5,Win32,60,z,1,0.034,,,,,,,,0.034,1,,,,,,472,NW,UN,16,crible,CIGNEY,z,,,,,,,0.27734375,-0.265625,0,0,0,,0,178,178,471,1,,
,,,,,,,,,,,,,,,,,,5fb87cc7e395495e86b4dda8,2020-11-27_07h24.51.333,lexical_decision_task_MP_exp2,2020.2.5,Win32,60,m,1,0.122,,,,,,,,0.122,1,,,,,,198,WORD,UN,16,invoke,WICKED,m,,,,,,,0.27734375,-0.265625,0,0,0,,0,179,179,197,1,,
,,,,,,,,,,,,,,,,,,5fb87cc7e395495e86b4dda8,2020-11-27_07h24.51.333,lexical_decision_task_MP_exp2,2020.2.5,Win32,60,z,0,0.119,,,,,,,,0.119,0,,,,,,130,WORD,UN,33,quench,STUPID,m,,,,,,,0.27734375,-0.265625,0,0,0,,0,180,180,129,1,,
,,,,,,,,,,,,,,,,,,5fb87cc7e395495e86b4dda8,2020-11-27_07h24.51.333,lexical_decision_task_MP_exp2,2020.2.5,Win32,60,m,1,0.089,,,,,,,,0.089,1,,,,,,59,WORD,"ID",33,splint,SPLINT,m,,,,,,,0.27734375,-0.265625,0,0,0,,0,181,181,58,1,,
,,,,,,,,,,,,,,,,,,5fb87cc7e395495e86b4dda8,2020-11-27_07h24.51.333,lexical_decision_task_MP_exp2,2020.2.5,Win32,60,z,0,0.084,,,,,,,,0.084,0,,,,,,3,WORD,"ID",33,knight,KNIGHT,m,,,,,,,0.27734375,-0.265625,0,0,0,,0,182,182,2,1,,
,,,,,,,,,,,,,,,,,,5fb87cc7e395495e86b4dda8,2020-11-27_07h24.51.333,lexical_decision_task_MP_exp2,2020.2.5,Win32,60,m,1,0.201,,,,,,,,0.201,1,,,,,,50,WORD,"ID",33,snatch,SNATCH,m,,,,,,,0.27734375,-0.265625,0,0,0,,0,183,183,49,1,,
,,,,,,,,,,,,,,,,,,5fb87cc7e395495e86b4dda8,2020-11-27_07h24.51.333,lexical_decision_task_MP_exp2,2020.2.5,Win32,60,m,1,0.118,,,,,,,,0.118,1,,,,,,82,WORD,"ID",16,stigma,STIGMA,m,,,,,,,0.27734375,-0.265625,0,0,0,,0,184,184,81,1,,
,,,,,,,,,,,,,,,,,,5fb87cc7e395495e86b4dda8,2020-11-27_07h24.51.333,lexical_decision_task_MP_exp2,2020.2.5,Win32,60,m,1,0.058,,,,,,,,0.058,1,,,,,,81,WORD,"ID",16,friend,FRIEND,m,,,,,,,0.27734375,-0.265625,0,0,0,,0,185,185,80,1,,
,,,,,,,,,,,,,,,,,,5fb87cc7e395495e86b4dda8,2020-11-27_07h24.51.333,lexical_decision_task_MP_exp2,2020.2.5,Win32,60,z,1,0.041,,,,,,,,0.041,1,,,,,,411,NW,UN,33,jiluer,ORCHIN,z,,,,,,,0.27734375,-0.265625,0,0,0,,0,186,186,410,1,,
,,,,,,,,,,,,,,,,,,5fb87cc7e395495e86b4dda8,2020-11-27_07h24.51.333,lexical_decision_task_MP_exp2,2020.2.5,Win32,60,m,0,0.034,,,,,,,,0.034,0,,,,,,382,NW,UN,33,aungre,SARLEY,z,,,,,,,0.27734375,-0.265625,0,0,0,,0,187,187,381,1,,
,,,,,,,,,,,,,,,,,,5fb87cc7e395495e86b4dda8,2020-11-27_07h24.51.333,lexical_decision_task_MP_exp2,2020.2.5,Win32,60,m,0,0.017,,,,,,,,0.017,0,,,,,,442,NW,UN,16,dorsex,ABOUNE,z,,,,,,,0.27734375,-0.265625,0,0,0,,0,188,188,441,1,,
,,,,,,,,,,,,,,,,,,5fb87cc7e395495e86b4dda8,2020-11-27_07h24.51.333,lexical_decision_task_MP_exp2,2020.2.5,Win32,60,m,0,0.05,,,,,,,,0.05,0,,,,,,478,NW,UN,16,lobush,ACRISE,z,,,,,,,0.27734375,-0.265625,0,0,0,,0,189,189,477,1,,
,,,,,,,,,,,,,,,,,,5fb87cc7e395495e86b4dda8,2020-11-27_07h24.51.333,lexical_decision_task_MP_exp2,2020.2.5,Win32,60,z,1,0.153,,,,,,,,0.153,1,,,,,,285,NW,"ID",33,prudge,PRUDGE,z,,,,,,,0.27734375,-0.265625,0,0,0,,0,190,190,284,1,,
,,,,,,,,,,,,,,,,,,5fb87cc7e395495e86b4dda8,2020-11-27_07h24.51.333,lexical_decision_task_MP_exp2,2020.2.5,Win32,60,z,0,0.001,,,,,,,,0.001,0,,,,,,93,WORD,"ID",16,public,PUBLIC,m,,,,,,,0.27734375,-0.265625,0,0,0,,0,191,191,92,1,,
,,,,,,,,,,,,,,,,,,5fb87cc7e395495e86b4dda8,2020-11-27_07h24.51.333,lexical_decision_task_MP_exp2,2020.2.5,Win32,60,m,1,0.084,,,,,,,,0.084,1,,,,,,100,WORD,"ID",16,carbon,CARBON,m,,,,,,,0.27734375,-0.265625,0,0,0,,0,192,192,99,1,,
,,,,,,,,,,,,,,,,,,5fb87cc7e395495e86b4dda8,2020-11-27_07h24.51.333,lexical_decision_task_MP_exp2,2020.2.5,Win32,60,z,0,0.139,,,,,,,,0.139,0,,,,,,117,WORD,"ID",16,branch,BRANCH,m,,,,,,,0.27734375,-0.265625,0,0,0,,0,193,193,116,1,,
,,,,,,,,,,,,,,,,,,5fb87cc7e395495e86b4dda8,2020-11-27_07h24.51.333,lexical_decision_task_MP_exp2,2020.2.5,Win32,60,m,0,0.119,,,,,,,,0.119,0,,,,,,402,NW,UN,33,bruats,SYNTIC,z,,,,,,,0.27734375,-0.265625,0,0,0,,0,194,194,401,1,,
,,,,,,,,,,,,,,,,,,5fb87cc7e395495e86b4dda8,2020-11-27_07h24.51.333,lexical_decision_task_MP_exp2,2020.2.5,Win32,60,z,0,0.165,,,,,,,,0.165,0,,,,,,189,WORD,UN,16,backup,CENSOR,m,,,,,,,0.27734375,-0.265625,0,0,0,,0,195,195,188,1,,
,,,,,,,,,,,,,,,,,,5fb87cc7e395495e86b4dda8,2020-11-27_07h24.51.333,lexical_decision_task_MP_exp2,2020.2.5,Win32,60,z,0,0.134,,,,,,,,0.134,0,,,,,,34,WORD,"ID",33,jungle,JUNGLE,m,,,,,,,0.27734375,-0.265625,0,0,0,,0,196,196,33,1,,
,,,,,,,,,,,,,,,,,,5fb87cc7e395495e86b4dda8,2020-11-27_07h24.51.333,lexical_decision_task_MP_exp2,2020.2.5,Win32,60,z,0,0.051,,,,,,,,0.051,0,,,,,,62,WORD,"ID",16,region,REGION,m,,,,,,,0.27734375,-0.265625,0,0,0,,0,197,197,61,1,,
,,,,,,,,,,,,,,,,,,5fb87cc7e395495e86b4dda8,2020-11-27_07h24.51.333,lexical_decision_task_MP_exp2,2020.2.5,Win32,60,,0,,,,,,,,,0.051,-1,,,,,,144,WORD,UN,33,parish,SPONGE,m,,,,,,,0.27734375,-0.265625,0,0,0,,0,198,198,143,1,,
,,,,,,,,,,,,,,,,,,5fb87cc7e395495e86b4dda8,2020-11-27_07h24.51.333,lexical_decision_task_MP_exp2,2020.2.5,Win32,60,z,1,0.102,,,,,,,,0.102,1,,,,,,356,NW,"ID",16,othnis,OTHNIS,z,,,,,,,0.27734375,-0.265625,0,0,0,,0,199,199,355,1,,
,,,,,,,,,,,,,,,,,,5fb87cc7e395495e86b4dda8,2020-11-27_07h24.51.333,lexical_decision_task_MP_exp2,2020.2.5,Win32,60,z,0,0.025,,,,,,,,0.025,0,,,,,,170,WORD,UN,33,depart,POUNCE,m,,,,,,,0.27734375,-0.265625,0,0,0,,0,200,200,169,1,,
,,,,,,,,,,,,,,,,,,5fb87cc7e395495e86b4dda8,2020-11-27_07h24.51.333,lexical_decision_task_MP_exp2,2020.2.5,Win32,60,z,1,0.035,,,,,,,,0.035,1,,,,,,457,NW,UN,16,barcet,WANIGH,z,,,,,,,0.27734375,-0.265625,0,0,0,,0,201,201,456,1,,
,,,,,,,,,,,,,,,,,,5fb87cc7e395495e86b4dda8,2020-11-27_07h24.51.333,lexical_decision_task_MP_exp2,2020.2.5,Win32,60,m,1,0.091,,,,,,,,0.091,1,,,,,,190,WORD,UN,16,stable,BACKUP,m,,,,,,,0.27734375,-0.265625,0,0,0,,0,202,202,189,1,,
,,,,,,,,,,,,,,,,,,5fb87cc7e395495e86b4dda8,2020-11-27_07h24.51.333,lexical_decision_task_MP_exp2,2020.2.5,Win32,60,z,1,0.116,,,,,,,,0.116,1,,,,,,273,NW,"ID",33,sortel,SORTEL,z,,,,,,,0.27734375,-0.265625,0,0,0,,0,203,203,272,1,,
,,,,,,,,,,,,,,,,,,5fb87cc7e395495e86b4dda8,2020-11-27_07h24.51.333,lexical_decision_task_MP_exp2,2020.2.5,Win32,60,z,0,0.017,,,,,,,,0.017,0,,,,,,39,WORD,"ID",33,insect,INSECT,m,,,,,,,0.27734375,-0.265625,0,0,0,,0,204,204,38,1,,
,,,,,,,,,,,,,,,,,,5fb87cc7e395495e86b4dda8,2020-11-27_07h24.51.333,lexical_decision_task_MP_exp2,2020.2.5,Win32,60,m,0,0.085,,,,,,,,0.085,0,,,,,,264,NW,"ID",33,vackel,VACKEL,z,,,,,,,0.27734375,-0.265625,0,0,0,,0,205,205,263,1,,
,,,,,,,,,,,,,,,,,,5fb87cc7e395495e86b4dda8,2020-11-27_07h24.51.333,lexical_decision_task_MP_exp2,2020.2.5,Win32,60,m,0,0.051,,,,,,,,0.051,0,,,,,,335,NW,"ID",16,desion,DESION,z,,,,,,,0.27734375,-0.265625,0,0,0,,0,206,206,334,1,,
,,,,,,,,,,,,,,,,,,5fb87cc7e395495e86b4dda8,2020-11-27_07h24.51.333,lexical_decision_task_MP_exp2,2020.2.5,Win32,60,m,1,0.116,,,,,,,,0.116,1,,,,,,15,WORD,"ID",33,amount,AMOUNT,m,,,,,,,0.27734375,-0.265625,0,0,0,,0,207,207,14,1,,
,,,,,,,,,,,,,,,,,,5fb87cc7e395495e86b4dda8,2020-11-27_07h24.51.333,lexical_decision_task_MP_exp2,2020.2.5,Win32,60,z,1,0.068,,,,,,,,0.068,1,,,,,,287,NW,"ID",33,nymbel,NYMBEL,z,,,,,,,0.27734375,-0.265625,0,0,0,,0,208,208,286,1,,
,,,,,,,,,,,,,,,,,,5fb87cc7e395495e86b4dda8,2020-11-27_07h24.51.333,lexical_decision_task_MP_exp2,2020.2.5,Win32,60,m,0,0.118,,,,,,,,0.118,0,,,,,,255,NW,"ID",33,apight,APIGHT,z,,,,,,,0.27734375,-0.265625,0,0,0,,0,209,209,254,1,,
,,,,,,,,,,,,,,,,,,5fb87cc7e395495e86b4dda8,2020-11-27_07h24.51.333,lexical_decision_task_MP_exp2,2020.2.5,Win32,60,z,1,0.169,,,,,,,,0.169,1,,,,,,475,NW,UN,16,robuly,PEBRIC,z,,,,,,,0.27734375,-0.265625,0,0,0,,0,210,210,474,1,,
,,,,,,,,,,,,,,,,,,5fb87cc7e395495e86b4dda8,2020-11-27_07h24.51.333,lexical_decision_task_MP_exp2,2020.2.5,Win32,60,m,1,0.083,,,,,,,,0.083,1,,,,,,176,WORD,UN,33,advent,STRIFE,m,,,,,,,0.27734375,-0.265625,0,0,0,,0,211,211,175,1,,
,,,,,,,,,,,,,,,,,,5fb87cc7e395495e86b4dda8,2020-11-27_07h24.51.333,lexical_decision_task_MP_exp2,2020.2.5,Win32,60,z,1,0.12,,,,,,,,0.12,1,,,,,,368,NW,UN,33,wronch,HORNAL,z,,,,,,,0.27734375,-0.265625,0,0,0,,0,212,212,367,1,,
,,,,,,,,,,,,,,,,,,5fb87cc7e395495e86b4dda8,2020-11-27_07h24.51.333,lexical_decision_task_MP_exp2,2020.2.5,Win32,60,m,0,0.1,,,,,,,,0.1,0,,,,,,414,NW,UN,33,higsta,SERBOL,z,,,,,,,0.27734375,-0.265625,0,0,0,,0,213,213,413,1,,
,,,,,,,,,,,,,,,,,,5fb87cc7e395495e86b4dda8,2020-11-27_07h24.51.333,lexical_decision_task_MP_exp2,2020.2.5,Win32,60,z,1,0.133,,,,,,,,0.133,1,,,,,,456,NW,UN,16,wanigh,BROGET,z,,,,,,,0.27734375,-0.265625,0,0,0,,0,214,214,455,1,,
,,,,,,,,,,,,,,,,,,5fb87cc7e395495e86b4dda8,2020-11-27_07h24.51.333,lexical_decision_task_MP_exp2,2020.2.5,Win32,60,m,0,0.094,,,,,,,,0.094,0,,,,,,458,NW,UN,16,chaite,BARCET,z,,,,,,,0.27734375,-0.265625,0,0,0,,0,215,215,457,1,,
,,,,,,,,,,,,,,,,,,5fb87cc7e395495e86b4dda8,2020-11-27_07h24.51.333,lexical_decision_task_MP_exp2,2020.2.5,Win32,60,z,0,0.075,,,,,,,,0.075,0,,,,,,137,WORD,UN,33,melody,FINGER,m,,,,,,,0.27734375,-0.265625,0,0,0,,0,216,216,136,1,,
,,,,,,,,,,,,,,,,,,5fb87cc7e395495e86b4dda8,2020-11-27_07h24.51.333,lexical_decision_task_MP_exp2,2020.2.5,Win32,60,z,0,0.009,,,,,,,,0.009,0,,,,,,193,WORD,UN,16,plague,OBJECT,m,,,,,,,0.27734375,-0.265625,0,0,0,,0,217,217,192,1,,
,,,,,,,,,,,,,,,,,,5fb87cc7e395495e86b4dda8,2020-11-27_07h24.51.333,lexical_decision_task_MP_exp2,2020.2.5,Win32,60,m,0,0.139,,,,,,,,0.139,0,,,,,,452,NW,UN,16,bolvis,SURDEN,z,,,,,,,0.27734375,-0.265625,0,0,0,,0,218,218,451,1,,
,,,,,,,,,,,,,,,,,,5fb87cc7e395495e86b4dda8,2020-11-27_07h24.51.333,lexical_decision_task_MP_exp2,2020.2.5,Win32,60,z,1,1.191,,,,,,,,1.191,1,,,,,,419,NW,UN,33,gushop,SLOUNT,z,,,,,,,0.27734375,-0.265625,0,0,0,,0,219,219,418,1,,
,,,,,,,,,,,,,,,,,,5fb87cc7e395495e86b4dda8,2020-11-27_07h24.51.333,lexical_decision_task_MP_exp2,2020.2.5,Win32,60,m,0,0.144,,,,,,,,0.144,0,,,,,,440,NW,UN,16,cainky,SARIDE,z,,,,,,,0.27734375,-0.265625,0,0,0,,0,220,220,439,1,,
,,,,,,,,,,,,,,,,,,5fb87cc7e395495e86b4dda8,2020-11-27_07h24.51.333,lexical_decision_task_MP_exp2,2020.2.5,Win32,60,z,0,0.101,,,,,,,,0.101,0,,,,,,38,WORD,"ID",33,powder,POWDER,m,,,,,,,0.27734375,-0.265625,0,0,0,,0,221,221,37,1,,
,,,,,,,,,,,,,,,,,,5fb87cc7e395495e86b4dda8,2020-11-27_07h24.51.333,lexical_decision_task_MP_exp2,2020.2.5,Win32,60,m,1,0.092,,,,,,,,0.092,1,,,,,,203,WORD,UN,16,burden,PHRASE,m,,,,,,,0.27734375,-0.265625,0,0,0,,0,222,222,202,1,,
,,,,,,,,,,,,,,,,,,5fb87cc7e395495e86b4dda8,2020-11-27_07h24.51.333,lexical_decision_task_MP_exp2,2020.2.5,Win32,60,z,1,0.125,,,,,,,,0.125,1,,,,,,345,NW,"ID",16,absend,ABSEND,z,,,,,,,0.27734375,-0.265625,0,0,0,,0,223,223,344,1,,
,,,,,,,,,,,,,,,,,,5fb87cc7e395495e86b4dda8,2020-11-27_07h24.51.333,lexical_decision_task_MP_exp2,2020.2.5,Win32,60,m,0,0.139,,,,,,,,0.139,0,,,,,,251,NW,"ID",33,lupict,LUPICT,z,,,,,,,0.27734375,-0.265625,0,0,0,,0,224,224,250,1,,
,,,,,,,,,,,,,,,,,,5fb87cc7e395495e86b4dda8,2020-11-27_07h24.51.333,lexical_decision_task_MP_exp2,2020.2.5,Win32,60,z,0,0.117,,,,,,,,0.117,0,,,,,,9,WORD,"ID",33,hustle,HUSTLE,m,,,,,,,0.27734375,-0.265625,0,0,0,,0,225,225,8,1,,
,,,,,,,,,,,,,,,,,,5fb87cc7e395495e86b4dda8,2020-11-27_07h24.51.333,lexical_decision_task_MP_exp2,2020.2.5,Win32,60,m,1,0.072,,,,,,,,0.072,1,,,,,,2,WORD,"ID",33,bridge,BRIDGE,m,,,,,,,0.27734375,-0.265625,0,0,0,,0,226,226,1,1,,
,,,,,,,,,,,,,,,,,,5fb87cc7e395495e86b4dda8,2020-11-27_07h24.51.333,lexical_decision_task_MP_exp2,2020.2.5,Win32,60,z,0,0.087,,,,,,,,0.087,0,,,,,,40,WORD,"ID",33,convey,CONVEY,m,,,,,,,0.27734375,-0.265625,0,0,0,,0,227,227,39,1,,
,,,,,,,,,,,,,,,,,,5fb87cc7e395495e86b4dda8,2020-11-27_07h24.51.333,lexical_decision_task_MP_exp2,2020.2.5,Win32,60,m,1,0.036,,,,,,,,0.036,1,,,,,,156,WORD,UN,33,pastor,CRADLE,m,,,,,,,0.27734375,-0.265625,0,0,0,,0,228,228,155,1,,
,,,,,,,,,,,,,,,,,,5fb87cc7e395495e86b4dda8,2020-11-27_07h24.51.333,lexical_decision_task_MP_exp2,2020.2.5,Win32,60,m,0,0.156,,,,,,,,0.156,0,,,,,,298,NW,"ID",33,piergy,PIERGY,z,,,,,,,0.27734375,-0.265625,0,0,0,,0,229,229,297,1,,
,,,,,,,,,,,,,,,,,,5fb87cc7e395495e86b4dda8,2020-11-27_07h24.51.333,lexical_decision_task_MP_exp2,2020.2.5,Win32,60,m,0,0.056,,,,,,,,0.056,0,,,,,,340,NW,"ID",16,fiatch,FIATCH,z,,,,,,,0.27734375,-0.265625,0,0,0,,0,230,230,339,1,,
,,,,,,,,,,,,,,,,,,5fb87cc7e395495e86b4dda8,2020-11-27_07h24.51.333,lexical_decision_task_MP_exp2,2020.2.5,Win32,60,z,1,0.118,,,,,,,,0.118,1,,,,,,459,NW,UN,16,mingar,BAFENT,z,,,,,,,0.27734375,-0.265625,0,0,0,,0,231,231,458,1,,
,,,,,,,,,,,,,,,,,,5fb87cc7e395495e86b4dda8,2020-11-27_07h24.51.333,lexical_decision_task_MP_exp2,2020.2.5,Win32,60,m,1,0.085,,,,,,,,0.085,1,,,,,,172,WORD,UN,33,shower,PATROL,m,,,,,,,0.27734375,-0.265625,0,0,0,,0,232,232,171,1,,
,,,,,,,,,,,,,,,,,,5fb87cc7e395495e86b4dda8,2020-11-27_07h24.51.333,lexical_decision_task_MP_exp2,2020.2.5,Win32,60,z,1,0.152,,,,,,,,0.152,1,,,,,,261,NW,"ID",33,stunch,STUNCH,z,,,,,,,0.27734375,-0.265625,0,0,0,,0,233,233,260,1,,
,,,,,,,,,,,,,,,,,,5fb87cc7e395495e86b4dda8,2020-11-27_07h24.51.333,lexical_decision_task_MP_exp2,2020.2.5,Win32,60,m,1,0.036,,,,,,,,0.036,1,,,,,,90,WORD,"ID",16,relish,RELISH,m,,,,,,,0.27734375,-0.265625,0,0,0,,0,234,234,89,1,,
,,,,,,,,,,,,,,,,,,5fb87cc7e395495e86b4dda8,2020-11-27_07h24.51.333,lexical_decision_task_MP_exp2,2020.2.5,Win32,60,z,1,0.101,,,,,,,,0.101,1,,,,,,450,NW,UN,16,rastoe,PHRECT,z,,,,,,,0.27734375,-0.265625,0,0,0,,0,235,235,449,1,,
,,,,,,,,,,,,,,,,,,5fb87cc7e395495e86b4dda8,2020-11-27_07h24.51.333,lexical_decision_task_MP_exp2,2020.2.5,Win32,60,m,1,0.073,,,,,,,,0.073,1,,,,,,58,WORD,"ID",33,foster,FOSTER,m,,,,,,,0.27734375,-0.265625,0,0,0,,0,236,236,57,1,,
,,,,,,,,,,,,,,,,,,5fb87cc7e395495e86b4dda8,2020-11-27_07h24.51.333,lexical_decision_task_MP_exp2,2020.2.5,Win32,60,z,0,0.134,,,,,,,,0.134,0,,,,,,187,WORD,UN,16,social,COURSE,m,,,,,,,0.27734375,-0.265625,0,0,0,,0,237,237,186,1,,
,,,,,,,,,,,,,,,,,,5fb87cc7e395495e86b4dda8,2020-11-27_07h24.51.333,lexical_decision_task_MP_exp2,2020.2.5,Win32,60,z,0,0.017,,,,,,,,0.017,0,,,,,,197,WORD,UN,16,wicked,STREAM,m,,,,,,,0.27734375,-0.265625,0,0,0,,0,238,238,196,1,,
,,,,,,,,,,,,,,,,,,5fb87cc7e395495e86b4dda8,2020-11-27_07h24.51.333,lexical_decision_task_MP_exp2,2020.2.5,Win32,60,m,0,0.06,,,,,,,,0.06,0,,,,,,429,NW,UN,16,caroey,FUNTLE,z,,,,,,,0.27734375,-0.265625,0,0,0,,0,239,239,428,1,,
,,,,,,,,,,,,,,,,,,5fb87cc7e395495e86b4dda8,2020-11-27_07h24.51.333,lexical_decision_task_MP_exp2,2020.2.5,Win32,60,z,1,0.149,,,,,,,,0.149,1,,,,,,448,NW,UN,16,brunge,SADENT,z,,,,,,,0.27734375,-0.265625,0,0,0,,0,240,240,447,1,,
,,,,,,,,,,,,,,,,,,5fb87cc7e395495e86b4dda8,2020-11-27_07h24.51.333,lexical_decision_task_MP_exp2,2020.2.5,Win32,60,m,0,0.037,,,,,,,,0.037,0,,,,,,379,NW,UN,33,cavory,AUTING,z,,,,,,,-0.03515625,-0.389322917,1,0,0,,0,241,241,378,1,break_done_button,
,,,,,,,,,,,,,,,,,,5fb87cc7e395495e86b4dda8,2020-11-27_07h24.51.333,lexical_decision_task_MP_exp2,2020.2.5,Win32,60,z,1,1.636,,,,,,,,1.636,1,,,,,,453,NW,UN,16,scouge,BOLVIS,z,,,,,,,0.29296875,-0.358072917,0,0,0,,0,242,242,452,1,,
,,,,,,,,,,,,,,,,,,5fb87cc7e395495e86b4dda8,2020-11-27_07h24.51.333,lexical_decision_task_MP_exp2,2020.2.5,Win32,60,z,1,0.105,,,,,,,,0.105,1,,,,,,257,NW,"ID",33,veniod,VENIOD,z,,,,,,,0.29296875,-0.358072917,0,0,0,,0,243,243,256,1,,
,,,,,,,,,,,,,,,,,,5fb87cc7e395495e86b4dda8,2020-11-27_07h24.51.333,lexical_decision_task_MP_exp2,2020.2.5,Win32,60,z,1,0.022,,,,,,,,0.022,1,,,,,,434,NW,UN,16,impurb,PITROM,z,,,,,,,0.29296875,-0.358072917,0,0,0,,0,244,244,433,1,,
,,,,,,,,,,,,,,,,,,5fb87cc7e395495e86b4dda8,2020-11-27_07h24.51.333,lexical_decision_task_MP_exp2,2020.2.5,Win32,60,z,1,0.051,,,,,,,,0.051,1,,,,,,461,NW,UN,16,absult,JUSTRE,z,,,,,,,0.29296875,-0.358072917,0,0,0,,0,245,245,460,1,,
,,,,,,,,,,,,,,,,,,5fb87cc7e395495e86b4dda8,2020-11-27_07h24.51.333,lexical_decision_task_MP_exp2,2020.2.5,Win32,60,,0,,,,,,,,,0.051,-1,,,,,,437,NW,UN,16,baitch,SNAPEL,z,,,,,,,0.29296875,-0.358072917,0,0,0,,0,246,246,436,1,,
,,,,,,,,,,,,,,,,,,5fb87cc7e395495e86b4dda8,2020-11-27_07h24.51.333,lexical_decision_task_MP_exp2,2020.2.5,Win32,60,,0,,,,,,,,,0.051,-1,,,,,,80,WORD,"ID",16,family,FAMILY,m,,,,,,,0.29296875,-0.358072917,0,0,0,,0,247,247,79,1,,
,,,,,,,,,,,,,,,,,,5fb87cc7e395495e86b4dda8,2020-11-27_07h24.51.333,lexical_decision_task_MP_exp2,2020.2.5,Win32,60,,0,,,,,,,,,0.051,-1,,,,,,118,WORD,"ID",16,flight,FLIGHT,m,,,,,,,0.29296875,-0.358072917,0,0,0,,0,248,248,117,1,,
,,,,,,,,,,,,,,,,,,5fb87cc7e395495e86b4dda8,2020-11-27_07h24.51.333,lexical_decision_task_MP_exp2,2020.2.5,Win32,60,,0,,,,,,,,,0.051,-1,,,,,,150,WORD,UN,33,mystic,RANDOM,m,,,,,,,0.29296875,-0.358072917,0,0,0,,0,249,249,149,1,,
,,,,,,,,,,,,,,,,,,5fb87cc7e395495e86b4dda8,2020-11-27_07h24.51.333,lexical_decision_task_MP_exp2,2020.2.5,Win32,60,,0,,,,,,,,,0.051,-1,,,,,,447,NW,UN,16,sadent,GIRCUE,z,,,,,,,0.29296875,-0.358072917,0,0,0,,0,250,250,446,1,,
,,,,,,,,,,,,,,,,,,5fb87cc7e395495e86b4dda8,2020-11-27_07h24.51.333,lexical_decision_task_MP_exp2,2020.2.5,Win32,60,,0,,,,,,,,,0.051,-1,,,,,,236,WORD,UN,16,poster,PIRATE,m,,,,,,,0.29296875,-0.358072917,0,0,0,,0,251,251,235,1,,
,,,,,,,,,,,,,,,,,,5fb87cc7e395495e86b4dda8,2020-11-27_07h24.51.333,lexical_decision_task_MP_exp2,2020.2.5,Win32,60,,0,,,,,,,,,0.051,-1,,,,,,371,NW,UN,33,ramily,GEILOY,z,,,,,,,0.29296875,-0.358072917,0,0,0,,0,252,252,370,1,,
,,,,,,,,,,,,,,,,,,5fb87cc7e395495e86b4dda8,2020-11-27_07h24.51.333,lexical_decision_task_MP_exp2,2020.2.5,Win32,60,z,1,0.817,,,,,,,,0.817,1,,,,,,445,NW,UN,16,runamo,MINKEL,z,,,,,,,0.29296875,-0.358072917,0,0,0,,0,253,253,444,1,,
,,,,,,,,,,,,,,,,,,5fb87cc7e395495e86b4dda8,2020-11-27_07h24.51.333,lexical_decision_task_MP_exp2,2020.2.5,Win32,60,m,1,0.069,,,,,,,,0.069,1,,,,,,217,WORD,UN,16,shrink,LIQUOR,m,,,,,,,0.29296875,-0.358072917,0,0,0,,0,254,254,216,1,,
,,,,,,,,,,,,,,,,,,5fb87cc7e395495e86b4dda8,2020-11-27_07h24.51.333,lexical_decision_task_MP_exp2,2020.2.5,Win32,60,,0,,,,,,,,,0.069,-1,,,,,,355,NW,"ID",16,zingly,ZINGLY,z,,,,,,,0.29296875,-0.358072917,0,0,0,,0,255,255,354,1,,
,,,,,,,,,,,,,,,,,,5fb87cc7e395495e86b4dda8,2020-11-27_07h24.51.333,lexical_decision_task_MP_exp2,2020.2.5,Win32,60,,0,,,,,,,,,0.069,-1,,,,,,444,NW,UN,16,minkel,JAUNCE,z,,,,,,,0.29296875,-0.358072917,0,0,0,,0,256,256,443,1,,
,,,,,,,,,,,,,,,,,,5fb87cc7e395495e86b4dda8,2020-11-27_07h24.51.333,lexical_decision_task_MP_exp2,2020.2.5,Win32,60,,0,,,,,,,,,0.069,-1,,,,,,71,WORD,"ID",16,garden,GARDEN,m,,,,,,,0.29296875,-0.358072917,0,0,0,,0,257,257,70,1,,
,,,,,,,,,,,,,,,,,,5fb87cc7e395495e86b4dda8,2020-11-27_07h24.51.333,lexical_decision_task_MP_exp2,2020.2.5,Win32,60,,0,,,,,,,,,0.069,-1,,,,,,214,WORD,UN,16,phobia,INTAKE,m,,,,,,,0.29296875,-0.358072917,0,0,0,,0,258,258,213,1,,
,,,,,,,,,,,,,,,,,,5fb87cc7e395495e86b4dda8,2020-11-27_07h24.51.333,lexical_decision_task_MP_exp2,2020.2.5,Win32,60,,0,,,,,,,,,0.069,-1,,,,,,441,NW,UN,16,aboune,RASTOE,z,,,,,,,0.29296875,-0.358072917,0,0,0,,0,259,259,440,1,,
,,,,,,,,,,,,,,,,,,5fb87cc7e395495e86b4dda8,2020-11-27_07h24.51.333,lexical_decision_task_MP_exp2,2020.2.5,Win32,60,,0,,,,,,,,,0.069,-1,,,,,,67,WORD,"ID",16,policy,POLICY,m,,,,,,,0.29296875,-0.358072917,0,0,0,,0,260,260,66,1,,
,,,,,,,,,,,,,,,,,,5fb87cc7e395495e86b4dda8,2020-11-27_07h24.51.333,lexical_decision_task_MP_exp2,2020.2.5,Win32,60,,0,,,,,,,,,0.069,-1,,,,,,436,NW,UN,16,snapel,FRUTAN,z,,,,,,,0.29296875,-0.358072917,0,0,0,,0,261,261,435,1,,
,,,,,,,,,,,,,,,,,,5fb87cc7e395495e86b4dda8,2020-11-27_07h24.51.333,lexical_decision_task_MP_exp2,2020.2.5,Win32,60,,0,,,,,,,,,0.069,-1,,,,,,320,NW,"ID",16,jockal,JOCKAL,z,,,,,,,0.29296875,-0.358072917,0,0,0,,0,262,262,319,1,,
,,,,,,,,,,,,,,,,,,5fb87cc7e395495e86b4dda8,2020-11-27_07h24.51.333,lexical_decision_task_MP_exp2,2020.2.5,Win32,60,,0,,,,,,,,,0.069,-1,,,,,,328,NW,"ID",16,broake,BROAKE,z,,,,,,,0.29296875,-0.358072917,0,0,0,,0,263,263,327,1,,
,,,,,,,,,,,,,,,,,,5fb87cc7e395495e86b4dda8,2020-11-27_07h24.51.333,lexical_decision_task_MP_exp2,2020.2.5,Win32,60,,0,,,,,,,,,0.069,-1,,,,,,121,WORD,UN,33,linger,THRIVE,m,,,,,,,0.29296875,-0.358072917,0,0,0,,0,264,264,120,1,,
,,,,,,,,,,,,,,,,,,5fb87cc7e395495e86b4dda8,2020-11-27_07h24.51.333,lexical_decision_task_MP_exp2,2020.2.5,Win32,60,,0,,,,,,,,,0.069,-1,,,,,,396,NW,UN,33,camble,FLENGY,z,,,,,,,0.29296875,-0.358072917,0,0,0,,0,265,265,395,1,,
,,,,,,,,,,,,,,,,,,5fb87cc7e395495e86b4dda8,2020-11-27_07h24.51.333,lexical_decision_task_MP_exp2,2020.2.5,Win32,60,,0,,,,,,,,,0.069,-1,,,,,,65,WORD,"ID",16,symbol,SYMBOL,m,,,,,,,0.29296875,-0.358072917,0,0,0,,0,266,266,64,1,,
,,,,,,,,,,,,,,,,,,5fb87cc7e395495e86b4dda8,2020-11-27_07h24.51.333,lexical_decision_task_MP_exp2,2020.2.5,Win32,60,,0,,,,,,,,,0.069,-1,,,,,,42,WORD,"ID",33,chapel,CHAPEL,m,,,,,,,0.29296875,-0.358072917,0,0,0,,0,267,267,41,1,,
,,,,,,,,,,,,,,,,,,5fb87cc7e395495e86b4dda8,2020-11-27_07h24.51.333,lexical_decision_task_MP_exp2,2020.2.5,Win32,60,,0,,,,,,,,,0.069,-1,,,,,,153,WORD,UN,33,author,BEHOLD,m,,,,,,,0.29296875,-0.358072917,0,0,0,,0,268,268,152,1,,
,,,,,,,,,,,,,,,,,,5fb87cc7e395495e86b4dda8,2020-11-27_07h24.51.333,lexical_decision_task_MP_exp2,2020.2.5,Win32,60,,0,,,,,,,,,0.069,-1,,,,,,364,NW,UN,33,guairt,IMPOTE,z,,,,,,,0.29296875,-0.358072917,0,0,0,,0,269,269,363,1,,
,,,,,,,,,,,,,,,,,,5fb87cc7e395495e86b4dda8,2020-11-27_07h24.51.333,lexical_decision_task_MP_exp2,2020.2.5,Win32,60,,0,,,,,,,,,0.069,-1,,,,,,171,WORD,UN,33,patrol,DEPART,m,,,,,,,0.29296875,-0.358072917,0,0,0,,0,270,270,170,1,,
,,,,,,,,,,,,,,,,,,5fb87cc7e395495e86b4dda8,2020-11-27_07h24.51.333,lexical_decision_task_MP_exp2,2020.2.5,Win32,60,,0,,,,,,,,,0.069,-1,,,,,,326,NW,"ID",16,iguade,IGUADE,z,,,,,,,0.29296875,-0.358072917,0,0,0,,0,271,271,325,1,,
,,,,,,,,,,,,,,,,,,5fb87cc7e395495e86b4dda8,2020-11-27_07h24.51.333,lexical_decision_task_MP_exp2,2020.2.5,Win32,60,,0,,,,,,,,,0.069,-1,,,,,,162,WORD,UN,33,string,CANDLE,m,,,,,,,0.29296875,-0.358072917,0,0,0,,0,272,272,161,1,,
,,,,,,,,,,,,,,,,,,5fb87cc7e395495e86b4dda8,2020-11-27_07h24.51.333,lexical_decision_task_MP_exp2,2020.2.5,Win32,60,,0,,,,,,,,,0.069,-1,,,,,,26,WORD,"ID",33,sprint,SPRINT,m,,,,,,,0.29296875,-0.358072917,0,0,0,,0,273,273,25,1,,
,,,,,,,,,,,,,,,,,,5fb87cc7e395495e86b4dda8,2020-11-27_07h24.51.333,lexical_decision_task_MP_exp2,2020.2.5,Win32,60,,0,,,,,,,,,0.069,-1,,,,,,12,WORD,"ID",33,orange,ORANGE,m,,,,,,,0.29296875,-0.358072917,0,0,0,,0,274,274,11,1,,
,,,,,,,,,,,,,,,,,,5fb87cc7e395495e86b4dda8,2020-11-27_07h24.51.333,lexical_decision_task_MP_exp2,2020.2.5,Win32,60,,0,,,,,,,,,0.069,-1,,,,,,89,WORD,"ID",16,permit,PERMIT,m,,,,,,,0.29296875,-0.358072917,0,0,0,,0,275,275,88,1,,
,,,,,,,,,,,,,,,,,,5fb87cc7e395495e86b4dda8,2020-11-27_07h24.51.333,lexical_decision_task_MP_exp2,2020.2.5,Win32,60,,0,,,,,,,,,0.069,-1,,,,,,112,WORD,"ID",16,breath,BREATH,m,,,,,,,0.29296875,-0.358072917,0,0,0,,0,276,276,111,1,,
,,,,,,,,,,,,,,,,,,5fb87cc7e395495e86b4dda8,2020-11-27_07h24.51.333,lexical_decision_task_MP_exp2,2020.2.5,Win32,60,,0,,,,,,,,,0.069,-1,,,,,,312,NW,"ID",16,nerawl,NERAWL,z,,,,,,,0.29296875,-0.358072917,0,0,0,,0,277,277,311,1,,
,,,,,,,,,,,,,,,,,,5fb87cc7e395495e86b4dda8,2020-11-27_07h24.51.333,lexical_decision_task_MP_exp2,2020.2.5,Win32,60,,0,,,,,,,,,0.069,-1,,,,,,449,NW,UN,16,phrect,BRUNGE,z,,,,,,,0.29296875,-0.358072917,0,0,0,,0,278,278,448,1,,
,,,,,,,,,,,,,,,,,,5fb87cc7e395495e86b4dda8,2020-11-27_07h24.51.333,lexical_decision_task_MP_exp2,2020.2.5,Win32,60,,0,,,,,,,,,0.069,-1,,,,,,95,WORD,"ID",16,thread,THREAD,m,,,,,,,0.29296875,-0.358072917,0,0,0,,0,279,279,94,1,,
,,,,,,,,,,,,,,,,,,5fb87cc7e395495e86b4dda8,2020-11-27_07h24.51.333,lexical_decision_task_MP_exp2,2020.2.5,Win32,60,,0,,,,,,,,,0.069,-1,,,,,,102,WORD,"ID",16,direct,DIRECT,m,,,,,,,0.29296875,-0.358072917,0,0,0,,0,280,280,101,1,,
,,,,,,,,,,,,,,,,,,5fb87cc7e395495e86b4dda8,2020-11-27_07h24.51.333,lexical_decision_task_MP_exp2,2020.2.5,Win32,60,,0,,,,,,,,,0.069,-1,,,,,,466,NW,UN,16,pebric,HOCITE,z,,,,,,,0.29296875,-0.358072917,0,0,0,,0,281,281,465,1,,
,,,,,,,,,,,,,,,,,,5fb87cc7e395495e86b4dda8,2020-11-27_07h24.51.333,lexical_decision_task_MP_exp2,2020.2.5,Win32,60,,0,,,,,,,,,0.069,-1,,,,,,37,WORD,"ID",33,insult,INSULT,m,,,,,,,0.29296875,-0.358072917,0,0,0,,0,282,282,36,1,,
,,,,,,,,,,,,,,,,,,5fb87cc7e395495e86b4dda8,2020-11-27_07h24.51.333,lexical_decision_task_MP_exp2,2020.2.5,Win32,60,,0,,,,,,,,,0.069,-1,,,,,,22,WORD,"ID",33,jockey,JOCKEY,m,,,,,,,0.29296875,-0.358072917,0,0,0,,0,283,283,21,1,,
,,,,,,,,,,,,,,,,,,5fb87cc7e395495e86b4dda8,2020-11-27_07h24.51.333,lexical_decision_task_MP_exp2,2020.2.5,Win32,60,,0,,,,,,,,,0.069,-1,,,,,,292,NW,"ID",33,ablint,ABLINT,z,,,,,,,0.29296875,-0.358072917,0,0,0,,0,284,284,291,1,,
,,,,,,,,,,,,,,,,,,5fb87cc7e395495e86b4dda8,2020-11-27_07h24.51.333,lexical_decision_task_MP_exp2,2020.2.5,Win32,60,,0,,,,,,,,,0.069,-1,,,,,,49,WORD,"ID",33,survey,SURVEY,m,,,,,,,0.29296875,-0.358072917,0,0,0,,0,285,285,48,1,,
,,,,,,,,,,,,,,,,,,5fb87cc7e395495e86b4dda8,2020-11-27_07h24.51.333,lexical_decision_task_MP_exp2,2020.2.5,Win32,60,,0,,,,,,,,,0.069,-1,,,,,,476,NW,UN,16,photie,JOSTED,z,,,,,,,0.29296875,-0.358072917,0,0,0,,0,286,286,475,1,,
,,,,,,,,,,,,,,,,,,5fb87cc7e395495e86b4dda8,2020-11-27_07h24.51.333,lexical_decision_task_MP_exp2,2020.2.5,Win32,60,,0,,,,,,,,,0.069,-1,,,,,,407,NW,UN,33,hurnia,SUIVER,z,,,,,,,0.29296875,-0.358072917,0,0,0,,0,287,287,406,1,,
,,,,,,,,,,,,,,,,,,5fb87cc7e395495e86b4dda8,2020-11-27_07h24.51.333,lexical_decision_task_MP_exp2,2020.2.5,Win32,60,,0,,,,,,,,,0.069,-1,,,,,,6,WORD,"ID",33,bundle,BUNDLE,m,,,,,,,0.29296875,-0.358072917,0,0,0,,0,288,288,5,1,,
,,,,,,,,,,,,,,,,,,5fb87cc7e395495e86b4dda8,2020-11-27_07h24.51.333,lexical_decision_task_MP_exp2,2020.2.5,Win32,60,,0,,,,,,,,,0.069,-1,,,,,,64,WORD,"ID",16,throne,THRONE,m,,,,,,,0.29296875,-0.358072917,0,0,0,,0,289,289,63,1,,
,,,,,,,,,,,,,,,,,,5fb87cc7e395495e86b4dda8,2020-11-27_07h24.51.333,lexical_decision_task_MP_exp2,2020.2.5,Win32,60,,0,,,,,,,,,0.069,-1,,,,,,56,WORD,"ID",33,ambush,AMBUSH,m,,,,,,,0.29296875,-0.358072917,0,0,0,,0,290,290,55,1,,
,,,,,,,,,,,,,,,,,,5fb87cc7e395495e86b4dda8,2020-11-27_07h24.51.333,lexical_decision_task_MP_exp2,2020.2.5,Win32,60,,0,,,,,,,,,0.069,-1,,,,,,295,NW,"ID",33,gleath,GLEATH,z,,,,,,,0.29296875,-0.358072917,0,0,0,,0,291,291,294,1,,
,,,,,,,,,,,,,,,,,,5fb87cc7e395495e86b4dda8,2020-11-27_07h24.51.333,lexical_decision_task_MP_exp2,2020.2.5,Win32,60,,0,,,,,,,,,0.069,-1,,,,,,228,WORD,UN,16,inject,MASTER,m,,,,,,,0.118489583,-0.498697917,0,0,0,,0,292,292,227,1,,
,,,,,,,,,,,,,,,,,,5fb87cc7e395495e86b4dda8,2020-11-27_07h24.51.333,lexical_decision_task_MP_exp2,2020.2.5,Win32,60,,0,,,,,,,,,0.069,-1,,,,,,145,WORD,UN,33,couple,PARISH,m,,,,,,,0.118489583,-0.498697917,0,0,0,,0,293,293,144,1,,
,,,,,,,,,,,,,,,,,,5fb87cc7e395495e86b4dda8,2020-11-27_07h24.51.333,lexical_decision_task_MP_exp2,2020.2.5,Win32,60,,0,,,,,,,,,0.069,-1,,,,,,401,NW,UN,33,elopia,MUSTIL,z,,,,,,,0.118489583,-0.498697917,0,0,0,,0,294,294,400,1,,
,,,,,,,,,,,,,,,,,,5fb87cc7e395495e86b4dda8,2020-11-27_07h24.51.333,lexical_decision_task_MP_exp2,2020.2.5,Win32,60,m,0,0.973,,,,,,,,0.973,0,,,,,,417,NW,UN,33,suidle,EAROUD,z,,,,,,,0.118489583,-0.498697917,0,0,0,,0,295,295,416,1,,
,,,,,,,,,,,,,,,,,,5fb87cc7e395495e86b4dda8,2020-11-27_07h24.51.333,lexical_decision_task_MP_exp2,2020.2.5,Win32,60,z,1,0.235,,,,,,,,0.235,1,,,,,,404,NW,UN,33,syntic,CLUIRM,z,,,,,,,0.118489583,-0.498697917,0,0,0,,0,296,296,403,1,,
,,,,,,,,,,,,,,,,,,5fb87cc7e395495e86b4dda8,2020-11-27_07h24.51.333,lexical_decision_task_MP_exp2,2020.2.5,Win32,60,m,1,1.803,,,,,,,,1.803,1,,,,,,192,WORD,UN,16,object,PLAGUE,m,,,,,,,-0.889322917,0.5,0,0,0,,0,297,297,191,1,,
,,,,,,,,,,,,,,,,,,5fb87cc7e395495e86b4dda8,2020-11-27_07h24.51.333,lexical_decision_task_MP_exp2,2020.2.5,Win32,60,m,0,0.071,,,,,,,,0.071,0,,,,,,277,NW,"ID",33,petain,PETAIN,z,,,,,,,-0.889322917,0.5,0,0,0,,0,298,298,276,1,,
,,,,,,,,,,,,,,,,,,5fb87cc7e395495e86b4dda8,2020-11-27_07h24.51.333,lexical_decision_task_MP_exp2,2020.2.5,Win32,60,m,0,0.12,,,,,,,,0.12,0,,,,,,367,NW,UN,33,hornal,SLIQUE,z,,,,,,,-0.889322917,0.5,0,0,0,,0,299,299,366,1,,
,,,,,,,,,,,,,,,,,,5fb87cc7e395495e86b4dda8,2020-11-27_07h24.51.333,lexical_decision_task_MP_exp2,2020.2.5,Win32,60,m,0,0.152,,,,,,,,0.152,0,,,,,,271,NW,"ID",33,aubrid,AUBRID,z,,,,,,,-0.889322917,0.5,0,0,0,,0,300,300,270,1,,
,,,,,,,,,,,,,,,,,,5fb87cc7e395495e86b4dda8,2020-11-27_07h24.51.333,lexical_decision_task_MP_exp2,2020.2.5,Win32,60,m,0,0.087,,,,,,,,0.087,0,,,,,,247,NW,"ID",33,blarge,BLARGE,z,,,,,,,-0.889322917,0.5,0,0,0,,0,301,301,246,1,,
,,,,,,,,,,,,,,,,,,5fb87cc7e395495e86b4dda8,2020-11-27_07h24.51.333,lexical_decision_task_MP_exp2,2020.2.5,Win32,60,z,0,0.152,,,,,,,,0.152,0,,,,,,60,WORD,"ID",33,pencil,PENCIL,m,,,,,,,-0.889322917,0.5,0,0,0,,0,302,302,59,1,,
,,,,,,,,,,,,,,,,,,5fb87cc7e395495e86b4dda8,2020-11-27_07h24.51.333,lexical_decision_task_MP_exp2,2020.2.5,Win32,60,m,1,0.184,,,,,,,,0.184,1,,,,,,32,WORD,"ID",33,buckle,BUCKLE,m,,,,,,,-0.889322917,0.5,0,0,0,,0,303,303,31,1,,
,,,,,,,,,,,,,,,,,,5fb87cc7e395495e86b4dda8,2020-11-27_07h24.51.333,lexical_decision_task_MP_exp2,2020.2.5,Win32,60,m,1,0.085,,,,,,,,0.085,1,,,,,,11,WORD,"ID",33,cruise,CRUISE,m,,,,,,,-0.889322917,0.5,0,0,0,,0,304,304,10,1,,
,,,,,,,,,,,,,,,,,,5fb87cc7e395495e86b4dda8,2020-11-27_07h24.51.333,lexical_decision_task_MP_exp2,2020.2.5,Win32,60,m,1,0.052,,,,,,,,0.052,1,,,,,,143,WORD,UN,33,sponge,REASON,m,,,,,,,-0.889322917,0.5,0,0,0,,0,305,305,142,1,,
,,,,,,,,,,,,,,,,,,5fb87cc7e395495e86b4dda8,2020-11-27_07h24.51.333,lexical_decision_task_MP_exp2,2020.2.5,Win32,60,z,1,0.021,,,,,,,,0.021,1,,,,,,389,NW,UN,33,hatrus,WITMER,z,,,,,,,-0.889322917,0.5,0,0,0,,0,306,306,388,1,,
,,,,,,,,,,,,,,,,,,5fb87cc7e395495e86b4dda8,2020-11-27_07h24.51.333,lexical_decision_task_MP_exp2,2020.2.5,Win32,60,z,0,0.174,,,,,,,,0.174,0,,,,,,206,WORD,UN,16,wreath,TAILOR,m,,,,,,,-0.889322917,0.5,0,0,0,,0,307,307,205,1,,
,,,,,,,,,,,,,,,,,,5fb87cc7e395495e86b4dda8,2020-11-27_07h24.51.333,lexical_decision_task_MP_exp2,2020.2.5,Win32,60,m,0,0.535,,,,,,,,0.535,0,,,,,,303,NW,"ID",16,fiream,FIREAM,z,,,,,,,-0.889322917,0.5,0,0,0,,0,308,308,302,1,,
,,,,,,,,,,,,,,,,,,5fb87cc7e395495e86b4dda8,2020-11-27_07h24.51.333,lexical_decision_task_MP_exp2,2020.2.5,Win32,60,z,1,1.118,,,,,,,,1.118,1,,,,,,321,NW,"ID",16,miator,MIATOR,z,,,,,,,-0.889322917,0.5,0,0,0,,0,309,309,320,1,,
,,,,,,,,,,,,,,,,,,5fb87cc7e395495e86b4dda8,2020-11-27_07h24.51.333,lexical_decision_task_MP_exp2,2020.2.5,Win32,60,m,1,0.617,,,,,,,,0.617,1,,,,,,109,WORD,"ID",16,wonder,WONDER,m,,,,,,,-0.889322917,0.5,0,0,0,,0,310,310,108,1,,
,,,,,,,,,,,,,,,,,,5fb87cc7e395495e86b4dda8,2020-11-27_07h24.51.333,lexical_decision_task_MP_exp2,2020.2.5,Win32,60,m,1,0.776,,,,,,,,0.776,1,,,,,,222,WORD,UN,16,casino,HINDER,m,,,,,,,-0.889322917,0.5,0,0,0,,0,311,311,221,1,,
,,,,,,,,,,,,,,,,,,5fb87cc7e395495e86b4dda8,2020-11-27_07h24.51.333,lexical_decision_task_MP_exp2,2020.2.5,Win32,60,m,0,0.602,,,,,,,,0.602,0,,,,,,334,NW,"ID",16,watmeg,WATMEG,z,,,,,,,-0.889322917,0.5,0,0,0,,0,312,312,333,1,,
,,,,,,,,,,,,,,,,,,5fb87cc7e395495e86b4dda8,2020-11-27_07h24.51.333,lexical_decision_task_MP_exp2,2020.2.5,Win32,60,m,1,0.738,,,,,,,,0.738,1,,,,,,20,WORD,"ID",33,breast,BREAST,m,,,,,,,-0.889322917,0.5,0,0,0,,0,313,313,19,1,,
,,,,,,,,,,,,,,,,,,5fb87cc7e395495e86b4dda8,2020-11-27_07h24.51.333,lexical_decision_task_MP_exp2,2020.2.5,Win32,60,m,1,0.851,,,,,,,,0.851,1,,,,,,129,WORD,UN,33,stupid,MARVEL,m,,,,,,,-0.889322917,0.5,0,0,0,,0,314,314,128,1,,
,,,,,,,,,,,,,,,,,,5fb87cc7e395495e86b4dda8,2020-11-27_07h24.51.333,lexical_decision_task_MP_exp2,2020.2.5,Win32,60,z,1,1.202,,,,,,,,1.202,1,,,,,,309,NW,"ID",16,amiloy,AMILOY,z,,,,,,,-0.889322917,0.5,0,0,0,,0,315,315,308,1,,
,,,,,,,,,,,,,,,,,,5fb87cc7e395495e86b4dda8,2020-11-27_07h24.51.333,lexical_decision_task_MP_exp2,2020.2.5,Win32,60,z,1,0.885,,,,,,,,0.885,1,,,,,,443,NW,UN,16,jaunce,DORSEX,z,,,,,,,-0.889322917,0.5,0,0,0,,0,316,316,442,1,,
,,,,,,,,,,,,,,,,,,5fb87cc7e395495e86b4dda8,2020-11-27_07h24.51.333,lexical_decision_task_MP_exp2,2020.2.5,Win32,60,m,1,0.873,,,,,,,,0.873,1,,,,,,75,WORD,"ID",16,trophy,TROPHY,m,,,,,,,-0.889322917,0.5,0,0,0,,0,317,317,74,1,,
,,,,,,,,,,,,,,,,,,5fb87cc7e395495e86b4dda8,2020-11-27_07h24.51.333,lexical_decision_task_MP_exp2,2020.2.5,Win32,60,m,0,0.887,,,,,,,,0.887,0,,,,,,259,NW,"ID",33,soudal,SOUDAL,z,,,,,,,-0.889322917,0.5,0,0,0,,0,318,318,258,1,,
,,,,,,,,,,,,,,,,,,5fb87cc7e395495e86b4dda8,2020-11-27_07h24.51.333,lexical_decision_task_MP_exp2,2020.2.5,Win32,60,z,1,0.652,,,,,,,,0.652,1,,,,,,313,NW,"ID",16,paurse,PAURSE,z,,,,,,,-0.889322917,0.5,0,0,0,,0,319,319,312,1,,
,,,,,,,,,,,,,,,,,,5fb87cc7e395495e86b4dda8,2020-11-27_07h24.51.333,lexical_decision_task_MP_exp2,2020.2.5,Win32,60,z,1,1.074,,,,,,,,1.074,1,,,,,,288,NW,"ID",33,yaceup,YACEUP,z,,,,,,,-0.889322917,0.5,0,0,0,,0,320,320,287,1,,
,,,,,,,,,,,,,,,,,,5fb87cc7e395495e86b4dda8,2020-11-27_07h24.51.333,lexical_decision_task_MP_exp2,2020.2.5,Win32,60,z,1,1.085,,,,,,,,1.085,1,,,,,,372,NW,UN,33,bigent,RAMILY,z,,,,,,,-0.889322917,0.5,0,0,0,,0,321,321,371,1,,
,,,,,,,,,,,,,,,,,,5fb87cc7e395495e86b4dda8,2020-11-27_07h24.51.333,lexical_decision_task_MP_exp2,2020.2.5,Win32,60,z,1,0.853,,,,,,,,0.853,1,,,,,,347,NW,"ID",16,kerift,KERIFT,z,,,,,,,-0.889322917,0.5,0,0,0,,0,322,322,346,1,,
,,,,,,,,,,,,,,,,,,5fb87cc7e395495e86b4dda8,2020-11-27_07h24.51.333,lexical_decision_task_MP_exp2,2020.2.5,Win32,60,m,0,1.371,,,,,,,,1.371,0,,,,,,381,NW,UN,33,sarley,HUNIEK,z,,,,,,,-0.889322917,0.5,0,0,0,,0,323,323,380,1,,
,,,,,,,,,,,,,,,,,,5fb87cc7e395495e86b4dda8,2020-11-27_07h24.51.333,lexical_decision_task_MP_exp2,2020.2.5,Win32,60,m,1,1.005,,,,,,,,1.005,1,,,,,,105,WORD,"ID",16,number,NUMBER,m,,,,,,,-0.889322917,0.5,0,0,0,,0,324,324,104,1,,
,,,,,,,,,,,,,,,,,,5fb87cc7e395495e86b4dda8,2020-11-27_07h24.51.333,lexical_decision_task_MP_exp2,2020.2.5,Win32,60,m,0,1.371,,,,,,,,1.371,0,,,,,,439,NW,UN,16,saride,LIMPOR,z,,,,,,,-0.889322917,0.5,0,0,0,,0,325,325,438,1,,
,,,,,,,,,,,,,,,,,,5fb87cc7e395495e86b4dda8,2020-11-27_07h24.51.333,lexical_decision_task_MP_exp2,2020.2.5,Win32,60,z,1,0.85,,,,,,,,0.85,1,,,,,,358,NW,"ID",16,fleack,FLEACK,z,,,,,,,-0.889322917,0.5,0,0,0,,0,326,326,357,1,,
,,,,,,,,,,,,,,,,,,5fb87cc7e395495e86b4dda8,2020-11-27_07h24.51.333,lexical_decision_task_MP_exp2,2020.2.5,Win32,60,z,1,1.335,,,,,,,,1.335,1,,,,,,307,NW,"ID",16,kirafe,KIRAFE,z,,,,,,,-0.889322917,0.5,0,0,0,,0,327,327,306,1,,
,,,,,,,,,,,,,,,,,,5fb87cc7e395495e86b4dda8,2020-11-27_07h24.51.333,lexical_decision_task_MP_exp2,2020.2.5,Win32,60,z,1,0.701,,,,,,,,0.701,1,,,,,,413,NW,UN,33,serbol,EQUATS,z,,,,,,,-0.889322917,0.5,0,0,0,,0,328,328,412,1,,
,,,,,,,,,,,,,,,,,,5fb87cc7e395495e86b4dda8,2020-11-27_07h24.51.333,lexical_decision_task_MP_exp2,2020.2.5,Win32,60,m,1,0.768,,,,,,,,0.768,1,,,,,,183,WORD,UN,16,sleazy,MILDEW,m,,,,,,,-0.889322917,0.5,0,0,0,,0,329,329,182,1,,
,,,,,,,,,,,,,,,,,,5fb87cc7e395495e86b4dda8,2020-11-27_07h24.51.333,lexical_decision_task_MP_exp2,2020.2.5,Win32,60,m,0,0.99,,,,,,,,0.99,0,,,,,,435,NW,UN,16,frutan,IMPURB,z,,,,,,,-0.889322917,0.5,0,0,0,,0,330,330,434,1,,
,,,,,,,,,,,,,,,,,,5fb87cc7e395495e86b4dda8,2020-11-27_07h24.51.333,lexical_decision_task_MP_exp2,2020.2.5,Win32,60,z,1,1.224,,,,,,,,1.224,1,,,,,,265,NW,"ID",33,distar,DISTAR,z,,,,,,,-0.889322917,0.5,0,0,0,,0,331,331,264,1,,
,,,,,,,,,,,,,,,,,,5fb87cc7e395495e86b4dda8,2020-11-27_07h24.51.333,lexical_decision_task_MP_exp2,2020.2.5,Win32,60,z,1,1.353,,,,,,,,1.353,1,,,,,,278,NW,"ID",33,unighs,UNIGHS,z,,,,,,,-0.889322917,0.5,0,0,0,,0,332,332,277,1,,
,,,,,,,,,,,,,,,,,,5fb87cc7e395495e86b4dda8,2020-11-27_07h24.51.333,lexical_decision_task_MP_exp2,2020.2.5,Win32,60,m,1,1.288,,,,,,,,1.288,1,,,,,,72,WORD,"ID",16,bright,BRIGHT,m,,,,,,,-0.889322917,0.5,0,0,0,,0,333,333,71,1,,
,,,,,,,,,,,,,,,,,,5fb87cc7e395495e86b4dda8,2020-11-27_07h24.51.333,lexical_decision_task_MP_exp2,2020.2.5,Win32,60,m,0,1.001,,,,,,,,1.001,0,,,,,,333,NW,"ID",16,catrie,CATRIE,z,,,,,,,-0.889322917,0.5,0,0,0,,0,334,334,332,1,,
,,,,,,,,,,,,,,,,,,5fb87cc7e395495e86b4dda8,2020-11-27_07h24.51.333,lexical_decision_task_MP_exp2,2020.2.5,Win32,60,,0,,,,,,,,,1.001,-1,,,,,,297,NW,"ID",33,fertic,FERTIC,z,,,,,,,-0.889322917,0.5,0,0,0,,0,335,335,296,1,,
,,,,,,,,,,,,,,,,,,5fb87cc7e395495e86b4dda8,2020-11-27_07h24.51.333,lexical_decision_task_MP_exp2,2020.2.5,Win32,60,m,0,0.425,,,,,,,,0.425,0,,,,,,363,NW,UN,33,impote,BREALI,z,,,,,,,-0.889322917,0.5,0,0,0,,0,336,336,362,1,,
,,,,,,,,,,,,,,,,,,5fb87cc7e395495e86b4dda8,2020-11-27_07h24.51.333,lexical_decision_task_MP_exp2,2020.2.5,Win32,60,z,1,0.687,,,,,,,,0.687,1,,,,,,361,NW,UN,33,tireau,PAUCHE,z,,,,,,,-0.889322917,0.5,0,0,0,,0,337,337,360,1,,
,,,,,,,,,,,,,,,,,,5fb87cc7e395495e86b4dda8,2020-11-27_07h24.51.333,lexical_decision_task_MP_exp2,2020.2.5,Win32,60,m,0,0.684,,,,,,,,0.684,0,,,,,,248,NW,"ID",33,strole,STROLE,z,,,,,,,-0.889322917,0.5,0,0,0,,0,338,338,247,1,,
,,,,,,,,,,,,,,,,,,5fb87cc7e395495e86b4dda8,2020-11-27_07h24.51.333,lexical_decision_task_MP_exp2,2020.2.5,Win32,60,z,1,0.858,,,,,,,,0.858,1,,,,,,474,NW,UN,16,gorbie,HABLIN,z,,,,,,,-0.889322917,0.5,0,0,0,,0,339,339,473,1,,
,,,,,,,,,,,,,,,,,,5fb87cc7e395495e86b4dda8,2020-11-27_07h24.51.333,lexical_decision_task_MP_exp2,2020.2.5,Win32,60,m,0,0.686,,,,,,,,0.686,0,,,,,,317,NW,"ID",16,worbal,WORBAL,z,,,,,,,-0.889322917,0.5,0,0,0,,0,340,340,316,1,,
,,,,,,,,,,,,,,,,,,5fb87cc7e395495e86b4dda8,2020-11-27_07h24.51.333,lexical_decision_task_MP_exp2,2020.2.5,Win32,60,z,1,0.868,,,,,,,,0.868,1,,,,,,269,NW,"ID",33,orchet,ORCHET,z,,,,,,,-0.889322917,0.5,0,0,0,,0,341,341,268,1,,
,,,,,,,,,,,,,,,,,,5fb87cc7e395495e86b4dda8,2020-11-27_07h24.51.333,lexical_decision_task_MP_exp2,2020.2.5,Win32,60,m,1,0.636,,,,,,,,0.636,1,,,,,,73,WORD,"ID",16,source,SOURCE,m,,,,,,,-0.889322917,0.5,0,0,0,,0,342,342,72,1,,
,,,,,,,,,,,,,,,,,,5fb87cc7e395495e86b4dda8,2020-11-27_07h24.51.333,lexical_decision_task_MP_exp2,2020.2.5,Win32,60,m,1,0.82,,,,,,,,0.82,1,,,,,,133,WORD,UN,33,debris,CHROME,m,,,,,,,-0.889322917,0.5,0,0,0,,0,343,343,132,1,,
,,,,,,,,,,,,,,,,,,5fb87cc7e395495e86b4dda8,2020-11-27_07h24.51.333,lexical_decision_task_MP_exp2,2020.2.5,Win32,60,m,0,1.074,,,,,,,,1.074,0,,,,,,296,NW,"ID",33,beinch,BEINCH,z,,,,,,,-0.889322917,0.5,0,0,0,,0,344,344,295,1,,
,,,,,,,,,,,,,,,,,,5fb87cc7e395495e86b4dda8,2020-11-27_07h24.51.333,lexical_decision_task_MP_exp2,2020.2.5,Win32,60,m,0,1.055,,,,,,,,1.055,0,,,,,,471,NW,UN,16,cigney,NOBEST,z,,,,,,,-0.889322917,0.5,0,0,0,,0,345,345,470,1,,
,,,,,,,,,,,,,,,,,,5fb87cc7e395495e86b4dda8,2020-11-27_07h24.51.333,lexical_decision_task_MP_exp2,2020.2.5,Win32,60,z,0,0.606,,,,,,,,0.606,0,,,,,,108,WORD,"ID",16,reckon,RECKON,m,,,,,,,-0.889322917,0.5,0,0,0,,0,346,346,107,1,,
,,,,,,,,,,,,,,,,,,5fb87cc7e395495e86b4dda8,2020-11-27_07h24.51.333,lexical_decision_task_MP_exp2,2020.2.5,Win32,60,m,1,1.099,,,,,,,,1.099,1,,,,,,110,WORD,"ID",16,polite,POLITE,m,,,,,,,-0.889322917,0.5,0,0,0,,0,347,347,109,1,,
,,,,,,,,,,,,,,,,,,5fb87cc7e395495e86b4dda8,2020-11-27_07h24.51.333,lexical_decision_task_MP_exp2,2020.2.5,Win32,60,z,0,1.118,,,,,,,,1.118,0,,,,,,5,WORD,"ID",33,plunge,PLUNGE,m,,,,,,,-0.889322917,0.5,0,0,0,,0,348,348,4,1,,
,,,,,,,,,,,,,,,,,,5fb87cc7e395495e86b4dda8,2020-11-27_07h24.51.333,lexical_decision_task_MP_exp2,2020.2.5,Win32,60,m,1,0.824,,,,,,,,0.824,1,,,,,,31,WORD,"ID",33,weapon,WEAPON,m,,,,,,,-0.889322917,0.5,0,0,0,,0,349,349,30,1,,
,,,,,,,,,,,,,,,,,,5fb87cc7e395495e86b4dda8,2020-11-27_07h24.51.333,lexical_decision_task_MP_exp2,2020.2.5,Win32,60,z,1,0.817,,,,,,,,0.817,1,,,,,,243,NW,"ID",33,musied,MUSIED,z,,,,,,,-0.889322917,0.5,0,0,0,,0,350,350,242,1,,
,,,,,,,,,,,,,,,,,,5fb87cc7e395495e86b4dda8,2020-11-27_07h24.51.333,lexical_decision_task_MP_exp2,2020.2.5,Win32,60,m,1,0.374,,,,,,,,0.374,1,,,,,,141,WORD,UN,33,spruce,ORPHAN,m,,,,,,,-0.889322917,0.5,0,0,0,,0,351,351,140,1,,
,,,,,,,,,,,,,,,,,,5fb87cc7e395495e86b4dda8,2020-11-27_07h24.51.333,lexical_decision_task_MP_exp2,2020.2.5,Win32,60,z,0,0.201,,,,,,,,0.201,0,,,,,,17,WORD,"ID",33,charge,CHARGE,m,,,,,,,-0.889322917,0.5,0,0,0,,0,352,352,16,1,,
,,,,,,,,,,,,,,,,,,5fb87cc7e395495e86b4dda8,2020-11-27_07h24.51.333,lexical_decision_task_MP_exp2,2020.2.5,Win32,60,m,1,0.192,,,,,,,,0.192,1,,,,,,224,WORD,UN,16,vulgar,PERIOD,m,,,,,,,-0.889322917,0.5,0,0,0,,0,353,353,223,1,,
,,,,,,,,,,,,,,,,,,5fb87cc7e395495e86b4dda8,2020-11-27_07h24.51.333,lexical_decision_task_MP_exp2,2020.2.5,Win32,60,m,0,0.027,,,,,,,,0.027,0,,,,,,253,NW,"ID",33,resait,RESAIT,z,,,,,,,-0.889322917,0.5,0,0,0,,0,354,354,252,1,,
,,,,,,,,,,,,,,,,,,5fb87cc7e395495e86b4dda8,2020-11-27_07h24.51.333,lexical_decision_task_MP_exp2,2020.2.5,Win32,60,m,0,0.117,,,,,,,,0.117,0,,,,,,454,NW,UN,16,tondle,SCOUGE,z,,,,,,,-0.889322917,0.5,0,0,0,,0,355,355,453,1,,
,,,,,,,,,,,,,,,,,,5fb87cc7e395495e86b4dda8,2020-11-27_07h24.51.333,lexical_decision_task_MP_exp2,2020.2.5,Win32,60,z,1,0.176,,,,,,,,0.176,1,,,,,,294,NW,"ID",33,inhort,INHORT,z,,,,,,,-0.889322917,0.5,0,0,0,,0,356,356,293,1,,
,,,,,,,,,,,,,,,,,,5fb87cc7e395495e86b4dda8,2020-11-27_07h24.51.333,lexical_decision_task_MP_exp2,2020.2.5,Win32,60,z,0,0.218,,,,,,,,0.218,0,,,,,,237,WORD,UN,16,seldom,POSTER,m,,,,,,,-0.889322917,0.5,0,0,0,,0,357,357,236,1,,
,,,,,,,,,,,,,,,,,,5fb87cc7e395495e86b4dda8,2020-11-27_07h24.51.333,lexical_decision_task_MP_exp2,2020.2.5,Win32,60,m,1,0.401,,,,,,,,0.401,1,,,,,,213,WORD,UN,16,intake,SQUEAL,m,,,,,,,-0.889322917,0.5,0,0,0,,0,358,358,212,1,,
,,,,,,,,,,,,,,,,,,5fb87cc7e395495e86b4dda8,2020-11-27_07h24.51.333,lexical_decision_task_MP_exp2,2020.2.5,Win32,60,z,0,0.242,,,,,,,,0.242,0,,,,,,177,WORD,UN,33,inform,ADVENT,m,,,,,,,-0.889322917,0.5,0,0,0,,0,359,359,176,1,,
,,,,,,,,,,,,,,,,,,5fb87cc7e395495e86b4dda8,2020-11-27_07h24.51.333,lexical_decision_task_MP_exp2,2020.2.5,Win32,60,m,1,0.167,,,,,,,,0.167,1,,,,,,212,WORD,UN,16,squeal,VERIFY,m,,,,,,,-0.889322917,0.5,0,0,0,,0,360,360,211,1,,
,,,,,,,,,,,,,,,,,,5fb87cc7e395495e86b4dda8,2020-11-27_07h24.51.333,lexical_decision_task_MP_exp2,2020.2.5,Win32,60,z,1,0.003,,,,,,,,0.003,1,,,,,,336,NW,"ID",16,ghodus,GHODUS,z,,,,,,,-0.889322917,0.5,0,0,0,,0,361,361,335,1,,
,,,,,,,,,,,,,,,,,,5fb87cc7e395495e86b4dda8,2020-11-27_07h24.51.333,lexical_decision_task_MP_exp2,2020.2.5,Win32,60,z,0,0.084,,,,,,,,0.084,0,,,,,,116,WORD,"ID",16,tumble,TUMBLE,m,,,,,,,-0.889322917,0.5,0,0,0,space,0,362,362,115,1,,6.182
,,,,,,,,,,,,,,,,,,5fb87cc7e395495e86b4dda8,2020-11-27_07h24.51.333,lexical_decision_task_MP_exp2,2020.2.5,Win32,60,,0,,,,,,,,,0.084,-1,,,,,,18,WORD,"ID",33,humble,HUMBLE,m,,,,,,,-0.889322917,0.5,0,0,0,,0,363,363,17,1,,
,,,,,,,,,,,,,,,,,,5fb87cc7e395495e86b4dda8,2020-11-27_07h24.51.333,lexical_decision_task_MP_exp2,2020.2.5,Win32,60,m,1,0.058,,,,,,,,0.058,1,,,,,,136,WORD,UN,33,finger,BLEACH,m,,,,,,,-0.889322917,0.5,0,0,0,,0,364,364,135,1,,
,,,,,,,,,,,,,,,,,,5fb87cc7e395495e86b4dda8,2020-11-27_07h24.51.333,lexical_decision_task_MP_exp2,2020.2.5,Win32,60,m,1,0.072,,,,,,,,0.072,1,,,,,,27,WORD,"ID",33,scream,SCREAM,m,,,,,,,-0.889322917,0.5,0,0,0,,0,365,365,26,1,,
,,,,,,,,,,,,,,,,,,5fb87cc7e395495e86b4dda8,2020-11-27_07h24.51.333,lexical_decision_task_MP_exp2,2020.2.5,Win32,60,z,0,0.335,,,,,,,,0.335,0,,,,,,221,WORD,UN,16,hinder,MASCOT,m,,,,,,,-0.889322917,0.5,0,0,0,,0,366,366,220,1,,
,,,,,,,,,,,,,,,,,,5fb87cc7e395495e86b4dda8,2020-11-27_07h24.51.333,lexical_decision_task_MP_exp2,2020.2.5,Win32,60,z,0,0.171,,,,,,,,0.171,0,,,,,,23,WORD,"ID",33,wealth,WEALTH,m,,,,,,,-0.889322917,0.5,0,0,0,,0,367,367,22,1,,
,,,,,,,,,,,,,,,,,,5fb87cc7e395495e86b4dda8,2020-11-27_07h24.51.333,lexical_decision_task_MP_exp2,2020.2.5,Win32,60,m,1,0.651,,,,,,,,0.651,1,,,,,,169,WORD,UN,33,pounce,GENIUS,m,,,,,,,-0.889322917,0.5,0,0,0,,0,368,368,168,1,,
,,,,,,,,,,,,,,,,,,5fb87cc7e395495e86b4dda8,2020-11-27_07h24.51.333,lexical_decision_task_MP_exp2,2020.2.5,Win32,60,m,0,0.535,,,,,,,,0.535,0,,,,,,400,NW,UN,33,mustil,WEAROX,z,,,,,,,-0.889322917,0.5,0,0,0,,0,369,369,399,1,,
,,,,,,,,,,,,,,,,,,5fb87cc7e395495e86b4dda8,2020-11-27_07h24.51.333,lexical_decision_task_MP_exp2,2020.2.5,Win32,60,z,1,0.168,,,,,,,,0.168,1,,,,,,256,NW,"ID",33,inlors,INLORS,z,,,,,,,-0.889322917,0.5,0,0,0,,0,370,370,255,1,,
,,,,,,,,,,,,,,,,,,5fb87cc7e395495e86b4dda8,2020-11-27_07h24.51.333,lexical_decision_task_MP_exp2,2020.2.5,Win32,60,z,0,0.36,,,,,,,,0.36,0,,,,,,194,WORD,UN,16,resign,ABSENT,m,,,,,,,-0.889322917,0.5,0,0,0,,0,371,371,193,1,,
,,,,,,,,,,,,,,,,,,5fb87cc7e395495e86b4dda8,2020-11-27_07h24.51.333,lexical_decision_task_MP_exp2,2020.2.5,Win32,60,z,1,0.29,,,,,,,,0.29,1,,,,,,310,NW,"ID",16,daniet,DANIET,z,,,,,,,-0.889322917,0.5,0,0,0,,0,372,372,309,1,,
,,,,,,,,,,,,,,,,,,5fb87cc7e395495e86b4dda8,2020-11-27_07h24.51.333,lexical_decision_task_MP_exp2,2020.2.5,Win32,60,,0,,,,,,,,,0.29,-1,,,,,,186,WORD,UN,16,course,PORTAL,m,,,,,,,-0.889322917,0.5,0,0,0,,0,373,373,185,1,,
,,,,,,,,,,,,,,,,,,5fb87cc7e395495e86b4dda8,2020-11-27_07h24.51.333,lexical_decision_task_MP_exp2,2020.2.5,Win32,60,m,0,0.604,,,,,,,,0.604,0,,,,,,291,NW,"ID",33,pretch,PRETCH,z,,,,,,,-0.889322917,0.5,0,0,0,,0,374,374,290,1,,
,,,,,,,,,,,,,,,,,,5fb87cc7e395495e86b4dda8,2020-11-27_07h24.51.333,lexical_decision_task_MP_exp2,2020.2.5,Win32,60,m,0,0.686,,,,,,,,0.686,0,,,,,,428,NW,UN,16,chrums,TANDLY,z,,,,,,,-0.889322917,0.5,0,0,0,,0,375,375,427,1,,
,,,,,,,,,,,,,,,,,,5fb87cc7e395495e86b4dda8,2020-11-27_07h24.51.333,lexical_decision_task_MP_exp2,2020.2.5,Win32,60,m,0,0.618,,,,,,,,0.618,0,,,,,,339,NW,"ID",16,fachow,FACHOW,z,,,,,,,-0.889322917,0.5,0,0,0,,0,376,376,338,1,,
,,,,,,,,,,,,,,,,,,5fb87cc7e395495e86b4dda8,2020-11-27_07h24.51.333,lexical_decision_task_MP_exp2,2020.2.5,Win32,60,z,1,0.257,,,,,,,,0.257,1,,,,,,314,NW,"ID",16,sprine,SPRINE,z,,,,,,,-0.889322917,0.5,0,0,0,,0,377,377,313,1,,
,,,,,,,,,,,,,,,,,,5fb87cc7e395495e86b4dda8,2020-11-27_07h24.51.333,lexical_decision_task_MP_exp2,2020.2.5,Win32,60,z,1,0.035,,,,,,,,0.035,1,,,,,,315,NW,"ID",16,laston,LASTON,z,,,,,,,-0.889322917,0.5,0,0,0,,0,378,378,314,1,,
,,,,,,,,,,,,,,,,,,5fb87cc7e395495e86b4dda8,2020-11-27_07h24.51.333,lexical_decision_task_MP_exp2,2020.2.5,Win32,60,m,1,0.851,,,,,,,,0.851,1,,,,,,233,WORD,UN,16,clumsy,NATURE,m,,,,,,,-0.889322917,0.5,0,0,0,,0,379,379,232,1,,
,,,,,,,,,,,,,,,,,,5fb87cc7e395495e86b4dda8,2020-11-27_07h24.51.333,lexical_decision_task_MP_exp2,2020.2.5,Win32,60,z,0,0.818,,,,,,,,0.818,0,,,,,,184,WORD,UN,16,bother,SLEAZY,m,,,,,,,-0.889322917,0.5,0,0,0,,0,380,380,183,1,,
,,,,,,,,,,,,,,,,,,5fb87cc7e395495e86b4dda8,2020-11-27_07h24.51.333,lexical_decision_task_MP_exp2,2020.2.5,Win32,60,z,0,0.834,,,,,,,,0.834,0,,,,,,178,WORD,UN,33,mildew,INFORM,m,,,,,,,-0.889322917,0.5,0,0,0,,0,381,381,177,1,,
,,,,,,,,,,,,,,,,,,5fb87cc7e395495e86b4dda8,2020-11-27_07h24.51.333,lexical_decision_task_MP_exp2,2020.2.5,Win32,60,m,1,1.007,,,,,,,,1.007,1,,,,,,223,WORD,UN,16,period,KIDNEY,m,,,,,,,-0.889322917,0.5,0,0,0,,0,382,382,222,1,,
,,,,,,,,,,,,,,,,,,5fb87cc7e395495e86b4dda8,2020-11-27_07h24.51.333,lexical_decision_task_MP_exp2,2020.2.5,Win32,60,z,0,0.818,,,,,,,,0.818,0,,,,,,13,WORD,"ID",33,strive,STRIVE,m,,,,,,,-0.889322917,0.5,0,0,0,,0,383,383,12,1,,
,,,,,,,,,,,,,,,,,,5fb87cc7e395495e86b4dda8,2020-11-27_07h24.51.333,lexical_decision_task_MP_exp2,2020.2.5,Win32,60,m,1,0.688,,,,,,,,0.688,1,,,,,,88,WORD,"ID",16,hunger,HUNGER,m,,,,,,,-0.889322917,0.5,0,0,0,,0,384,384,87,1,,
,,,,,,,,,,,,,,,,,,5fb87cc7e395495e86b4dda8,2020-11-27_07h24.51.333,lexical_decision_task_MP_exp2,2020.2.5,Win32,60,z,1,1.078,,,,,,,,1.078,1,,,,,,250,NW,"ID",33,milted,MILTED,z,,,,,,,-0.889322917,0.5,0,0,0,,0,385,385,249,1,,
,,,,,,,,,,,,,,,,,,5fb87cc7e395495e86b4dda8,2020-11-27_07h24.51.333,lexical_decision_task_MP_exp2,2020.2.5,Win32,60,m,1,0.668,,,,,,,,0.668,1,,,,,,16,WORD,"ID",33,faucet,FAUCET,m,,,,,,,-0.889322917,0.5,0,0,0,,0,386,386,15,1,,
,,,,,,,,,,,,,,,,,,5fb87cc7e395495e86b4dda8,2020-11-27_07h24.51.333,lexical_decision_task_MP_exp2,2020.2.5,Win32,60,m,1,0.855,,,,,,,,0.855,1,,,,,,61,WORD,"ID",16,ponder,PONDER,m,,,,,,,-0.889322917,0.5,0,0,0,,0,387,387,60,1,,
,,,,,,,,,,,,,,,,,,5fb87cc7e395495e86b4dda8,2020-11-27_07h24.51.333,lexical_decision_task_MP_exp2,2020.2.5,Win32,60,m,0,1.326,,,,,,,,1.326,0,,,,,,286,NW,"ID",33,reldon,RELDON,z,,,,,,,-0.889322917,0.5,0,0,0,,0,388,388,285,1,,
,,,,,,,,,,,,,,,,,,5fb87cc7e395495e86b4dda8,2020-11-27_07h24.51.333,lexical_decision_task_MP_exp2,2020.2.5,Win32,60,z,1,0.386,,,,,,,,0.386,1,,,,,,325,NW,"ID",16,thruse,THRUSE,z,,,,,,,-0.889322917,0.5,0,0,0,,0,389,389,324,1,,
,,,,,,,,,,,,,,,,,,5fb87cc7e395495e86b4dda8,2020-11-27_07h24.51.333,lexical_decision_task_MP_exp2,2020.2.5,Win32,60,z,1,0.116,,,,,,,,0.116,1,,,,,,311,NW,"ID",16,sproly,SPROLY,z,,,,,,,-0.889322917,0.5,0,0,0,,0,390,390,310,1,,
,,,,,,,,,,,,,,,,,,5fb87cc7e395495e86b4dda8,2020-11-27_07h24.51.333,lexical_decision_task_MP_exp2,2020.2.5,Win32,60,m,0,0.152,,,,,,,,0.152,0,,,,,,451,NW,UN,16,surden,CAINKY,z,,,,,,,-0.889322917,0.5,0,0,0,,0,391,391,450,1,,
,,,,,,,,,,,,,,,,,,5fb87cc7e395495e86b4dda8,2020-11-27_07h24.51.333,lexical_decision_task_MP_exp2,2020.2.5,Win32,60,,0,,,,,,,,,0.152,-1,,,,,,126,WORD,UN,33,castle,ENOUGH,m,,,,,,,-0.889322917,0.5,0,0,0,,0,392,392,125,1,,
,,,,,,,,,,,,,,,,,,5fb87cc7e395495e86b4dda8,2020-11-27_07h24.51.333,lexical_decision_task_MP_exp2,2020.2.5,Win32,60,,0,,,,,,,,,0.152,-1,,,,,,128,WORD,UN,33,marvel,SENIOR,m,,,,,,,-0.889322917,0.5,0,0,0,,0,393,393,127,1,,
,,,,,,,,,,,,,,,,,,5fb87cc7e395495e86b4dda8,2020-11-27_07h24.51.333,lexical_decision_task_MP_exp2,2020.2.5,Win32,60,,0,,,,,,,,,0.152,-1,,,,,,77,WORD,"ID",16,racket,RACKET,m,,,,,,,-0.889322917,0.5,0,0,0,,0,394,394,76,1,,
,,,,,,,,,,,,,,,,,,5fb87cc7e395495e86b4dda8,2020-11-27_07h24.51.333,lexical_decision_task_MP_exp2,2020.2.5,Win32,60,,0,,,,,,,,,0.152,-1,,,,,,175,WORD,UN,33,strife,FABRIC,m,,,,,,,0.888020833,-0.319010417,0,0,0,,0,395,395,174,1,,
,,,,,,,,,,,,,,,,,,5fb87cc7e395495e86b4dda8,2020-11-27_07h24.51.333,lexical_decision_task_MP_exp2,2020.2.5,Win32,60,,0,,,,,,,,,0.152,-1,,,,,,392,NW,UN,33,ganous,ROUNCY,z,,,,,,,0.888020833,-0.319010417,0,0,0,,0,396,396,391,1,,
,,,,,,,,,,,,,,,,,,5fb87cc7e395495e86b4dda8,2020-11-27_07h24.51.333,lexical_decision_task_MP_exp2,2020.2.5,Win32,60,,0,,,,,,,,,0.152,-1,,,,,,380,NW,UN,33,huniek,CAVORY,z,,,,,,,0.888020833,-0.319010417,0,0,0,,0,397,397,379,1,,
,,,,,,,,,,,,,,,,,,5fb87cc7e395495e86b4dda8,2020-11-27_07h24.51.333,lexical_decision_task_MP_exp2,2020.2.5,Win32,60,,0,,,,,,,,,0.152,-1,,,,,,290,NW,"ID",33,splino,SPLINO,z,,,,,,,0.888020833,-0.319010417,0,0,0,,0,398,398,289,1,,
,,,,,,,,,,,,,,,,,,5fb87cc7e395495e86b4dda8,2020-11-27_07h24.51.333,lexical_decision_task_MP_exp2,2020.2.5,Win32,60,,0,,,,,,,,,0.152,-1,,,,,,386,NW,UN,33,gronce,ANCUST,z,,,,,,,-0.505208333,0.4609375,0,0,0,,0,399,399,385,1,,
,,,,,,,,,,,,,,,,,,5fb87cc7e395495e86b4dda8,2020-11-27_07h24.51.333,lexical_decision_task_MP_exp2,2020.2.5,Win32,60,,0,,0.361979167,0.263020833,1,0,0,1.474,,0.152,-1,,,,,,352,NW,"ID",16,tringe,TRINGE,z,,,,,,,-0.248697917,-0.123697917,0,0,0,,0,400,400,351,1,,
,,,,,,,,,,,,,,,,,,5fb87cc7e395495e86b4dda8,2020-11-27_07h24.51.333,lexical_decision_task_MP_exp2,2020.2.5,Win32,60,z,1,0.543,,,,,,,,0.543,1,,,,,,245,NW,"ID",33,anougs,ANOUGS,z,,,,,,,-0.23828125,-0.11328125,0,0,0,,0,401,401,244,1,,
,,,,,,,,,,,,,,,,,,5fb87cc7e395495e86b4dda8,2020-11-27_07h24.51.333,lexical_decision_task_MP_exp2,2020.2.5,Win32,60,z,1,0.103,,,,,,,,0.103,1,,,,,,418,NW,UN,33,slount,SUIDLE,z,,,,,,,-0.23828125,-0.11328125,0,0,0,,0,402,402,417,1,,
,,,,,,,,,,,,,,,,,,5fb87cc7e395495e86b4dda8,2020-11-27_07h24.51.333,lexical_decision_task_MP_exp2,2020.2.5,Win32,60,m,1,0.118,,,,,,,,0.118,1,,,,,,91,WORD,"ID",16,expand,EXPAND,m,,,,,,,-0.23828125,-0.11328125,0,0,0,,0,403,403,90,1,,
,,,,,,,,,,,,,,,,,,5fb87cc7e395495e86b4dda8,2020-11-27_07h24.51.333,lexical_decision_task_MP_exp2,2020.2.5,Win32,60,z,1,0.1,,,,,,,,0.1,1,,,,,,353,NW,"ID",16,clurey,CLUREY,z,,,,,,,-0.23828125,-0.11328125,0,0,0,,0,404,404,352,1,,
,,,,,,,,,,,,,,,,,,5fb87cc7e395495e86b4dda8,2020-11-27_07h24.51.333,lexical_decision_task_MP_exp2,2020.2.5,Win32,60,m,0,0.102,,,,,,,,0.102,0,,,,,,258,NW,"ID",33,poluth,POLUTH,z,,,,,,,-0.23828125,-0.11328125,0,0,0,,0,405,405,257,1,,
,,,,,,,,,,,,,,,,,,5fb87cc7e395495e86b4dda8,2020-11-27_07h24.51.333,lexical_decision_task_MP_exp2,2020.2.5,Win32,60,z,0,0.068,,,,,,,,0.068,0,,,,,,135,WORD,UN,33,chrome,IMPORT,m,,,,,,,-0.197916667,-0.067708333,0,0,0,,0,406,406,134,1,,
,,,,,,,,,,,,,,,,,,5fb87cc7e395495e86b4dda8,2020-11-27_07h24.51.333,lexical_decision_task_MP_exp2,2020.2.5,Win32,60,m,0,0.09,,,,,,,,0.09,0,,,,,,354,NW,"ID",16,virlex,VIRLEX,z,,,,,,,-0.1484375,-0.01171875,0,0,0,,0,407,407,353,1,,
