counterbalancing_condition,instr_done_keyboard.keys,instr_done_keyboard.rt,instr_done_touch.x,instr_done_touch.y,instr_done_touch.leftButton,instr_done_touch.midButton,instr_done_touch.rightButton,instruction_pages.thisRepN,instruction_pages.thisTrialN,instruction_pages.thisN,instruction_pages.thisIndex,instruction_pages.ran,pageN,phase,instruct_text,has_image,instruct_image,participant,date,expName,psychopyVersion,OS,frameRate,response.keys,response.corr,response.rt,touch_resp.x,touch_resp.y,touch_resp.leftButton,touch_resp.midButton,touch_resp.rightButton,touch_resp.time,touch_resp.clicked_name,rt,corr,practice_trials.thisRepN,practice_trials.thisTrialN,practice_trials.thisN,practice_trials.thisIndex,practice_trials.ran,TrialID,StimulusType,Condition,PrimeDuration,Prime,Target,corrAns,end_of_practice_trials_pages.thisRepN,end_of_practice_trials_pages.thisTrialN,end_of_practice_trials_pages.thisN,end_of_practice_trials_pages.thisIndex,end_of_practice_trials_pages.ran,break_done_touch.x,break_done_touch.y,break_done_touch.leftButton,break_done_touch.midButton,break_done_touch.rightButton,break_done_keyboard.keys,trials.thisRepN,trials.thisTrialN,trials.thisN,trials.thisIndex,trials.ran,break_done_keyboard.rt
1,space,114.957,0.007181329,-0.381508079,0,0,0,0,0,0,0,1,1,instructions,"INSTRUCTIONS
At the start of each trial, look at the hash marks (######) in the center of the screen. After a moment, a string of letters will appear. Your task is to indicate if the letter string forms a word or not (i.e., if it is a nonword). For example, AUTHOR is a word while AUTHON is a nonword.

Press the space bar or touch the button below to continue.",0,,5f1e827568c1bb862cb9f5bd,2020-08-10_13h26.28.082,lexical_decision_task_MP,2020.1.3,Win32,60,,,,,,,,,,,,,,,,,,,,,,,,,,,,,,,,,,,,,,,,,
,space,1.277,0.007181329,-0.381508079,0,0,0,0,1,1,1,1,2,instructions,"If your device has a keyboard, press the 'Z' key for nonwords and the 'M' key for words.





Press the space bar or touch the button below to continue.",1,keyboard-example.gif,5f1e827568c1bb862cb9f5bd,2020-08-10_13h26.28.082,lexical_decision_task_MP,2020.1.3,Win32,60,,,,,,,,,,,,,,,,,,,,,,,,,,,,,,,,,,,,,,,,,
,space,0.47,0.007181329,-0.381508079,0,0,0,0,2,2,2,1,3,instructions,"If you are using a touchscreen only device, use the buttons on the screen. Do not use the mouse.





Press the space bar or touch the button below to continue.",1,touchscreen-example.gif,5f1e827568c1bb862cb9f5bd,2020-08-10_13h26.28.082,lexical_decision_task_MP,2020.1.3,Win32,60,,,,,,,,,,,,,,,,,,,,,,,,,,,,,,,,,,,,,,,,,
,space,0.688,0.007181329,-0.381508079,0,0,0,0,3,3,3,1,4,instructions,"It is very important that you respond as quickly and accurately as possible, as each letter string will only be on the screen for two seconds. If you do not respond within this time, the message 'Too slow!' will be displayed and the experiment will progress to the next letter string. The first 20 trials will be practice trials and you will receive feedback on your answers. 

Press the space bar or touch the button below to start the practice trials.",0,,5f1e827568c1bb862cb9f5bd,2020-08-10_13h26.28.082,lexical_decision_task_MP,2020.1.3,Win32,60,,,,,,,,,,,,,,,,,,,,,,,,,,,,,,,,,,,,,,,,,
,,,,,,,,,,,,,,,,,,5f1e827568c1bb862cb9f5bd,2020-08-10_13h26.28.082,lexical_decision_task_MP,2020.1.3,Win32,60,m,1,1.664,,,,,,,,1.664,1,0,0,0,0,1,1001,WORD,"ID",33,utopia,UTOPIA,m,,,,,,,,,,,,,,,,,
,,,,,,,,,,,,,,,,,,5f1e827568c1bb862cb9f5bd,2020-08-10_13h26.28.082,lexical_decision_task_MP,2020.1.3,Win32,60,m,1,0.666,,,,,,,,0.666,1,0,1,1,7,1,1008,WORD,UN,50,hurdle,VOLUME,m,,,,,,,,,,,,,,,,,
,,,,,,,,,,,,,,,,,,5f1e827568c1bb862cb9f5bd,2020-08-10_13h26.28.082,lexical_decision_task_MP,2020.1.3,Win32,60,z,1,0.749,,,,,,,,0.749,1,0,2,2,14,1,1015,NW,UN,50,miaber,THRALE,z,,,,,,,,,,,,,,,,,
,,,,,,,,,,,,,,,,,,5f1e827568c1bb862cb9f5bd,2020-08-10_13h26.28.082,lexical_decision_task_MP,2020.1.3,Win32,60,z,1,0.715,,,,,,,,0.715,1,0,3,3,9,1,1010,NW,"ID",33,fariny,FARINY,z,,,,,,,,,,,,,,,,,
,,,,,,,,,,,,,,,,,,5f1e827568c1bb862cb9f5bd,2020-08-10_13h26.28.082,lexical_decision_task_MP,2020.1.3,Win32,60,m,1,0.595,,,,,,,,0.595,1,0,4,4,2,1,1003,WORD,"ID",50,almond,ALMOND,m,,,,,,,,,,,,,,,,,
,,,,,,,,,,,,,,,,,,5f1e827568c1bb862cb9f5bd,2020-08-10_13h26.28.082,lexical_decision_task_MP,2020.1.3,Win32,60,z,0,0.741,,,,,,,,0.741,0,0,5,5,4,1,1005,WORD,UN,33,abound,SQUEAK,m,,,,,,,,,,,,,,,,,
,,,,,,,,,,,,,,,,,,5f1e827568c1bb862cb9f5bd,2020-08-10_13h26.28.082,lexical_decision_task_MP,2020.1.3,Win32,60,m,1,0.565,,,,,,,,0.565,1,0,6,6,3,1,1004,WORD,"ID",50,matrix,MATRIX,m,,,,,,,,,,,,,,,,,
,,,,,,,,,,,,,,,,,,5f1e827568c1bb862cb9f5bd,2020-08-10_13h26.28.082,lexical_decision_task_MP,2020.1.3,Win32,60,m,1,0.549,,,,,,,,0.549,1,0,7,7,5,1,1006,WORD,UN,33,frenzy,OBTAIN,m,,,,,,,,,,,,,,,,,
,,,,,,,,,,,,,,,,,,5f1e827568c1bb862cb9f5bd,2020-08-10_13h26.28.082,lexical_decision_task_MP,2020.1.3,Win32,60,m,1,0.629,,,,,,,,0.629,1,0,8,8,6,1,1007,WORD,UN,50,tropic,ZOMBIE,m,,,,,,,,,,,,,,,,,
,,,,,,,,,,,,,,,,,,5f1e827568c1bb862cb9f5bd,2020-08-10_13h26.28.082,lexical_decision_task_MP,2020.1.3,Win32,60,m,0,0.729,,,,,,,,0.729,0,0,9,9,11,1,1012,NW,"ID",50,rashet,RASHET,z,,,,,,,,,,,,,,,,,
,,,,,,,,,,,,,,,,,,5f1e827568c1bb862cb9f5bd,2020-08-10_13h26.28.082,lexical_decision_task_MP,2020.1.3,Win32,60,m,1,0.559,,,,,,,,0.559,1,0,10,10,1,1,1002,WORD,"ID",33,adjust,ADJUST,m,,,,,,,,,,,,,,,,,
,,,,,,,,,,,,,,,,,,5f1e827568c1bb862cb9f5bd,2020-08-10_13h26.28.082,lexical_decision_task_MP,2020.1.3,Win32,60,z,1,0.771,,,,,,,,0.771,1,0,11,11,8,1,1009,NW,"ID",33,aslert,ASLERT,z,,,,,,,,,,,,,,,,,
,,,,,,,,,,,,,,,,,,5f1e827568c1bb862cb9f5bd,2020-08-10_13h26.28.082,lexical_decision_task_MP,2020.1.3,Win32,60,z,1,0.583,,,,,,,,0.583,1,0,12,12,13,1,1014,NW,UN,33,winfer,ROUPET,z,,,,,,,,,,,,,,,,,
,,,,,,,,,,,,,,,,,,5f1e827568c1bb862cb9f5bd,2020-08-10_13h26.28.082,lexical_decision_task_MP,2020.1.3,Win32,60,z,1,0.645,,,,,,,,0.645,1,0,13,13,15,1,1016,NW,UN,50,mushed,WHAISE,z,,,,,,,,,,,,,,,,,
,,,,,,,,,,,,,,,,,,5f1e827568c1bb862cb9f5bd,2020-08-10_13h26.28.082,lexical_decision_task_MP,2020.1.3,Win32,60,z,1,0.803,,,,,,,,0.803,1,0,14,14,10,1,1011,NW,"ID",50,inlade,INLADE,z,,,,,,,,,,,,,,,,,
,,,,,,,,,,,,,,,,,,5f1e827568c1bb862cb9f5bd,2020-08-10_13h26.28.082,lexical_decision_task_MP,2020.1.3,Win32,60,z,1,0.575,,,,,,,,0.575,1,0,15,15,12,1,1013,NW,UN,33,adveil,SPRINY,z,,,,,,,,,,,,,,,,,
,space,1.209,0.007181329,-0.381508079,0,0,0,,,,,,1,end_of_practice,"You have completed the practice trials. During the experimental trials, you will not receive feedback, but it is very important that you respond as quickly and accurately as possible. 
Before you begin, please ensure that you are in a comfortable and quiet location and will not be disturbed for about 15 minutes, as we cannot use your data if you do not complete all the trials. 
There will be opportunities to take breaks at regular intervals during the experiment. When you are ready to start the experimental trials, please press space or touch the button below.",,,5f1e827568c1bb862cb9f5bd,2020-08-10_13h26.28.082,lexical_decision_task_MP,2020.1.3,Win32,60,,,,,,,,,,,,,,,,,,,,,,,,,0,0,0,0,1,,,,,,,,,,,,
,,,,,,,,,,,,,,,,,,5f1e827568c1bb862cb9f5bd,2020-08-10_13h26.28.082,lexical_decision_task_MP,2020.1.3,Win32,60,z,1,0.989,,,,,,,,0.989,1,,,,,,405,NW,UN,33,nouply,FLUMNI,z,,,,,,0.007181329,-0.381508079,0,0,0,,0,0,0,404,1,
,,,,,,,,,,,,,,,,,,5f1e827568c1bb862cb9f5bd,2020-08-10_13h26.28.082,lexical_decision_task_MP,2020.1.3,Win32,60,z,0,0.563,,,,,,,,0.563,0,,,,,,88,WORD,"ID",50,hunger,HUNGER,m,,,,,,0.007181329,-0.381508079,0,0,0,,0,1,1,87,1,
,,,,,,,,,,,,,,,,,,5f1e827568c1bb862cb9f5bd,2020-08-10_13h26.28.082,lexical_decision_task_MP,2020.1.3,Win32,60,m,1,0.522,,,,,,,,0.522,1,,,,,,130,WORD,UN,33,quench,STUPID,m,,,,,,0.007181329,-0.381508079,0,0,0,,0,2,2,129,1,
,,,,,,,,,,,,,,,,,,5f1e827568c1bb862cb9f5bd,2020-08-10_13h26.28.082,lexical_decision_task_MP,2020.1.3,Win32,60,z,1,0.665,,,,,,,,0.665,1,,,,,,362,NW,UN,33,breali,TIREAU,z,,,,,,0.007181329,-0.381508079,0,0,0,,0,3,3,361,1,
,,,,,,,,,,,,,,,,,,5f1e827568c1bb862cb9f5bd,2020-08-10_13h26.28.082,lexical_decision_task_MP,2020.1.3,Win32,60,m,0,0.588,,,,,,,,0.588,0,,,,,,480,NW,UN,50,knisma,ROBULY,z,,,,,,0.007181329,-0.381508079,0,0,0,,0,4,4,479,1,
,,,,,,,,,,,,,,,,,,5f1e827568c1bb862cb9f5bd,2020-08-10_13h26.28.082,lexical_decision_task_MP,2020.1.3,Win32,60,z,0,1.251,,,,,,,,1.251,0,,,,,,166,WORD,UN,33,design,STARCH,m,,,,,,0.007181329,-0.381508079,0,0,0,,0,5,5,165,1,
,,,,,,,,,,,,,,,,,,5f1e827568c1bb862cb9f5bd,2020-08-10_13h26.28.082,lexical_decision_task_MP,2020.1.3,Win32,60,z,1,0.578,,,,,,,,0.578,1,,,,,,376,NW,UN,33,sliant,IGUARE,z,,,,,,0.007181329,-0.381508079,0,0,0,,0,6,6,375,1,
,,,,,,,,,,,,,,,,,,5f1e827568c1bb862cb9f5bd,2020-08-10_13h26.28.082,lexical_decision_task_MP,2020.1.3,Win32,60,z,0,0.54,,,,,,,,0.54,0,,,,,,220,WORD,UN,50,mascot,VOYAGE,m,,,,,,0.007181329,-0.381508079,0,0,0,,0,7,7,219,1,
,,,,,,,,,,,,,,,,,,5f1e827568c1bb862cb9f5bd,2020-08-10_13h26.28.082,lexical_decision_task_MP,2020.1.3,Win32,60,z,1,0.583,,,,,,,,0.583,1,,,,,,274,NW,"ID",33,fumblo,FUMBLO,z,,,,,,0.007181329,-0.381508079,0,0,0,,0,8,8,273,1,
,,,,,,,,,,,,,,,,,,5f1e827568c1bb862cb9f5bd,2020-08-10_13h26.28.082,lexical_decision_task_MP,2020.1.3,Win32,60,z,0,0.637,,,,,,,,0.637,0,,,,,,207,WORD,UN,50,hockey,WREATH,m,,,,,,0.007181329,-0.381508079,0,0,0,,0,9,9,206,1,
,,,,,,,,,,,,,,,,,,5f1e827568c1bb862cb9f5bd,2020-08-10_13h26.28.082,lexical_decision_task_MP,2020.1.3,Win32,60,m,0,0.771,,,,,,,,0.771,0,,,,,,332,NW,"ID",50,vangue,VANGUE,z,,,,,,0.007181329,-0.381508079,0,0,0,,0,10,10,331,1,
,,,,,,,,,,,,,,,,,,5f1e827568c1bb862cb9f5bd,2020-08-10_13h26.28.082,lexical_decision_task_MP,2020.1.3,Win32,60,m,0,0.791,,,,,,,,0.791,0,,,,,,314,NW,"ID",50,sprine,SPRINE,z,,,,,,0.007181329,-0.381508079,0,0,0,,0,11,11,313,1,
,,,,,,,,,,,,,,,,,,5f1e827568c1bb862cb9f5bd,2020-08-10_13h26.28.082,lexical_decision_task_MP,2020.1.3,Win32,60,z,1,0.612,,,,,,,,0.612,1,,,,,,358,NW,"ID",50,fleack,FLEACK,z,,,,,,0.007181329,-0.381508079,0,0,0,,0,12,12,357,1,
,,,,,,,,,,,,,,,,,,5f1e827568c1bb862cb9f5bd,2020-08-10_13h26.28.082,lexical_decision_task_MP,2020.1.3,Win32,60,m,1,0.753,,,,,,,,0.753,1,,,,,,93,WORD,"ID",50,public,PUBLIC,m,,,,,,0.007181329,-0.381508079,0,0,0,,0,13,13,92,1,
,,,,,,,,,,,,,,,,,,5f1e827568c1bb862cb9f5bd,2020-08-10_13h26.28.082,lexical_decision_task_MP,2020.1.3,Win32,60,m,1,0.529,,,,,,,,0.529,1,,,,,,44,WORD,"ID",33,danger,DANGER,m,,,,,,0.007181329,-0.381508079,0,0,0,,0,14,14,43,1,
,,,,,,,,,,,,,,,,,,5f1e827568c1bb862cb9f5bd,2020-08-10_13h26.28.082,lexical_decision_task_MP,2020.1.3,Win32,60,z,1,0.97,,,,,,,,0.97,1,,,,,,277,NW,"ID",33,petain,PETAIN,z,,,,,,0.007181329,-0.381508079,0,0,0,,0,15,15,276,1,
,,,,,,,,,,,,,,,,,,5f1e827568c1bb862cb9f5bd,2020-08-10_13h26.28.082,lexical_decision_task_MP,2020.1.3,Win32,60,m,1,0.74,,,,,,,,0.74,1,,,,,,22,WORD,"ID",33,jockey,JOCKEY,m,,,,,,0.007181329,-0.381508079,0,0,0,,0,16,16,21,1,
,,,,,,,,,,,,,,,,,,5f1e827568c1bb862cb9f5bd,2020-08-10_13h26.28.082,lexical_decision_task_MP,2020.1.3,Win32,60,z,1,0.614,,,,,,,,0.614,1,,,,,,330,NW,"ID",50,kensom,KENSOM,z,,,,,,0.007181329,-0.381508079,0,0,0,,0,17,17,329,1,
,,,,,,,,,,,,,,,,,,5f1e827568c1bb862cb9f5bd,2020-08-10_13h26.28.082,lexical_decision_task_MP,2020.1.3,Win32,60,m,1,0.691,,,,,,,,0.691,1,,,,,,109,WORD,"ID",50,wonder,WONDER,m,,,,,,0.007181329,-0.381508079,0,0,0,,0,18,18,108,1,
,,,,,,,,,,,,,,,,,,5f1e827568c1bb862cb9f5bd,2020-08-10_13h26.28.082,lexical_decision_task_MP,2020.1.3,Win32,60,z,0,0.573,,,,,,,,0.573,0,,,,,,235,WORD,UN,50,pirate,GRUMPY,m,,,,,,0.007181329,-0.381508079,0,0,0,,0,19,19,234,1,
,,,,,,,,,,,,,,,,,,5f1e827568c1bb862cb9f5bd,2020-08-10_13h26.28.082,lexical_decision_task_MP,2020.1.3,Win32,60,m,1,0.542,,,,,,,,0.542,1,,,,,,98,WORD,"ID",50,belong,BELONG,m,,,,,,0.007181329,-0.381508079,0,0,0,,0,20,20,97,1,
,,,,,,,,,,,,,,,,,,5f1e827568c1bb862cb9f5bd,2020-08-10_13h26.28.082,lexical_decision_task_MP,2020.1.3,Win32,60,m,1,0.817,,,,,,,,0.817,1,,,,,,20,WORD,"ID",33,breast,BREAST,m,,,,,,0.007181329,-0.381508079,0,0,0,,0,21,21,19,1,
,,,,,,,,,,,,,,,,,,5f1e827568c1bb862cb9f5bd,2020-08-10_13h26.28.082,lexical_decision_task_MP,2020.1.3,Win32,60,z,1,0.546,,,,,,,,0.546,1,,,,,,438,NW,UN,50,limpor,BAITCH,z,,,,,,0.007181329,-0.381508079,0,0,0,,0,22,22,437,1,
,,,,,,,,,,,,,,,,,,5f1e827568c1bb862cb9f5bd,2020-08-10_13h26.28.082,lexical_decision_task_MP,2020.1.3,Win32,60,m,1,0.794,,,,,,,,0.794,1,,,,,,219,WORD,UN,50,voyage,BUCKET,m,,,,,,0.007181329,-0.381508079,0,0,0,,0,23,23,218,1,
,,,,,,,,,,,,,,,,,,5f1e827568c1bb862cb9f5bd,2020-08-10_13h26.28.082,lexical_decision_task_MP,2020.1.3,Win32,60,z,1,0.634,,,,,,,,0.634,1,,,,,,273,NW,"ID",33,sortel,SORTEL,z,,,,,,0.007181329,-0.381508079,0,0,0,,0,24,24,272,1,
,,,,,,,,,,,,,,,,,,5f1e827568c1bb862cb9f5bd,2020-08-10_13h26.28.082,lexical_decision_task_MP,2020.1.3,Win32,60,z,1,0.782,,,,,,,,0.782,1,,,,,,359,NW,"ID",50,fonver,FONVER,z,,,,,,0.007181329,-0.381508079,0,0,0,,0,25,25,358,1,
,,,,,,,,,,,,,,,,,,5f1e827568c1bb862cb9f5bd,2020-08-10_13h26.28.082,lexical_decision_task_MP,2020.1.3,Win32,60,z,0,0.541,,,,,,,,0.541,0,,,,,,86,WORD,"ID",50,rodent,RODENT,m,,,,,,0.007181329,-0.381508079,0,0,0,,0,26,26,85,1,
,,,,,,,,,,,,,,,,,,5f1e827568c1bb862cb9f5bd,2020-08-10_13h26.28.082,lexical_decision_task_MP,2020.1.3,Win32,60,z,0,0.835,,,,,,,,0.835,0,,,,,,176,WORD,UN,33,advent,STRIFE,m,,,,,,0.007181329,-0.381508079,0,0,0,,0,27,27,175,1,
,,,,,,,,,,,,,,,,,,5f1e827568c1bb862cb9f5bd,2020-08-10_13h26.28.082,lexical_decision_task_MP,2020.1.3,Win32,60,z,1,0.603,,,,,,,,0.603,1,,,,,,443,NW,UN,50,jaunce,DORSEX,z,,,,,,0.007181329,-0.381508079,0,0,0,,0,28,28,442,1,
,,,,,,,,,,,,,,,,,,5f1e827568c1bb862cb9f5bd,2020-08-10_13h26.28.082,lexical_decision_task_MP,2020.1.3,Win32,60,z,1,0.545,,,,,,,,0.545,1,,,,,,449,NW,UN,50,phrect,BRUNGE,z,,,,,,0.007181329,-0.381508079,0,0,0,,0,29,29,448,1,
,,,,,,,,,,,,,,,,,,5f1e827568c1bb862cb9f5bd,2020-08-10_13h26.28.082,lexical_decision_task_MP,2020.1.3,Win32,60,z,1,0.645,,,,,,,,0.645,1,,,,,,421,NW,UN,50,alcoud,KNISMA,z,,,,,,0.007181329,-0.381508079,0,0,0,,0,30,30,420,1,
,,,,,,,,,,,,,,,,,,5f1e827568c1bb862cb9f5bd,2020-08-10_13h26.28.082,lexical_decision_task_MP,2020.1.3,Win32,60,z,1,0.678,,,,,,,,0.678,1,,,,,,294,NW,"ID",33,inhort,INHORT,z,,,,,,0.007181329,-0.381508079,0,0,0,,0,31,31,293,1,
,,,,,,,,,,,,,,,,,,5f1e827568c1bb862cb9f5bd,2020-08-10_13h26.28.082,lexical_decision_task_MP,2020.1.3,Win32,60,m,1,0.708,,,,,,,,0.708,1,,,,,,25,WORD,"ID",33,domain,DOMAIN,m,,,,,,0.007181329,-0.381508079,0,0,0,,0,32,32,24,1,
,,,,,,,,,,,,,,,,,,5f1e827568c1bb862cb9f5bd,2020-08-10_13h26.28.082,lexical_decision_task_MP,2020.1.3,Win32,60,z,1,0.821,,,,,,,,0.821,1,,,,,,299,NW,"ID",33,sturch,STURCH,z,,,,,,0.007181329,-0.381508079,0,0,0,,0,33,33,298,1,
,,,,,,,,,,,,,,,,,,5f1e827568c1bb862cb9f5bd,2020-08-10_13h26.28.082,lexical_decision_task_MP,2020.1.3,Win32,60,z,1,0.615,,,,,,,,0.615,1,,,,,,278,NW,"ID",33,unighs,UNIGHS,z,,,,,,0.007181329,-0.381508079,0,0,0,,0,34,34,277,1,
,,,,,,,,,,,,,,,,,,5f1e827568c1bb862cb9f5bd,2020-08-10_13h26.28.082,lexical_decision_task_MP,2020.1.3,Win32,60,z,1,0.623,,,,,,,,0.623,1,,,,,,386,NW,UN,33,gronce,ANCUST,z,,,,,,0.007181329,-0.381508079,0,0,0,,0,35,35,385,1,
,,,,,,,,,,,,,,,,,,5f1e827568c1bb862cb9f5bd,2020-08-10_13h26.28.082,lexical_decision_task_MP,2020.1.3,Win32,60,z,1,0.709,,,,,,,,0.709,1,,,,,,333,NW,"ID",50,catrie,CATRIE,z,,,,,,0.007181329,-0.381508079,0,0,0,,0,36,36,332,1,
,,,,,,,,,,,,,,,,,,5f1e827568c1bb862cb9f5bd,2020-08-10_13h26.28.082,lexical_decision_task_MP,2020.1.3,Win32,60,z,0,0.592,,,,,,,,0.592,0,,,,,,106,WORD,"ID",50,ransom,RANSOM,m,,,,,,0.007181329,-0.381508079,0,0,0,,0,37,37,105,1,
,,,,,,,,,,,,,,,,,,5f1e827568c1bb862cb9f5bd,2020-08-10_13h26.28.082,lexical_decision_task_MP,2020.1.3,Win32,60,z,1,1.062,,,,,,,,1.062,1,,,,,,397,NW,UN,33,blunde,CAMBLE,z,,,,,,0.007181329,-0.381508079,0,0,0,,0,38,38,396,1,
,,,,,,,,,,,,,,,,,,5f1e827568c1bb862cb9f5bd,2020-08-10_13h26.28.082,lexical_decision_task_MP,2020.1.3,Win32,60,z,0,0.616,,,,,,,,0.616,0,,,,,,45,WORD,"ID",33,clergy,CLERGY,m,,,,,,0.007181329,-0.381508079,0,0,0,,0,39,39,44,1,
,,,,,,,,,,,,,,,,,,5f1e827568c1bb862cb9f5bd,2020-08-10_13h26.28.082,lexical_decision_task_MP,2020.1.3,Win32,60,m,1,0.552,,,,,,,,0.552,1,,,,,,185,WORD,UN,50,portal,BOTHER,m,,,,,,0.007181329,-0.381508079,0,0,0,,0,40,40,184,1,
,,,,,,,,,,,,,,,,,,5f1e827568c1bb862cb9f5bd,2020-08-10_13h26.28.082,lexical_decision_task_MP,2020.1.3,Win32,60,z,1,0.698,,,,,,,,0.698,1,,,,,,429,NW,UN,50,caroey,FUNTLE,z,,,,,,0.007181329,-0.381508079,0,0,0,,0,41,41,428,1,
,,,,,,,,,,,,,,,,,,5f1e827568c1bb862cb9f5bd,2020-08-10_13h26.28.082,lexical_decision_task_MP,2020.1.3,Win32,60,z,0,0.588,,,,,,,,0.588,0,,,,,,74,WORD,"ID",50,plaque,PLAQUE,m,,,,,,0.007181329,-0.381508079,0,0,0,,0,42,42,73,1,
,,,,,,,,,,,,,,,,,,5f1e827568c1bb862cb9f5bd,2020-08-10_13h26.28.082,lexical_decision_task_MP,2020.1.3,Win32,60,m,1,0.645,,,,,,,,0.645,1,,,,,,76,WORD,"ID",50,exotic,EXOTIC,m,,,,,,0.007181329,-0.381508079,0,0,0,,0,43,43,75,1,
,,,,,,,,,,,,,,,,,,5f1e827568c1bb862cb9f5bd,2020-08-10_13h26.28.082,lexical_decision_task_MP,2020.1.3,Win32,60,z,1,0.549,,,,,,,,0.549,1,,,,,,288,NW,"ID",33,yaceup,YACEUP,z,,,,,,0.007181329,-0.381508079,0,0,0,,0,44,44,287,1,
,,,,,,,,,,,,,,,,,,5f1e827568c1bb862cb9f5bd,2020-08-10_13h26.28.082,lexical_decision_task_MP,2020.1.3,Win32,60,z,0,0.78,,,,,,,,0.78,0,,,,,,116,WORD,"ID",50,tumble,TUMBLE,m,,,,,,0.007181329,-0.381508079,0,0,0,,0,45,45,115,1,
,,,,,,,,,,,,,,,,,,5f1e827568c1bb862cb9f5bd,2020-08-10_13h26.28.082,lexical_decision_task_MP,2020.1.3,Win32,60,m,1,0.999,,,,,,,,0.999,1,,,,,,121,WORD,UN,33,linger,THRIVE,m,,,,,,0.007181329,-0.381508079,0,0,0,,0,46,46,120,1,
,,,,,,,,,,,,,,,,,,5f1e827568c1bb862cb9f5bd,2020-08-10_13h26.28.082,lexical_decision_task_MP,2020.1.3,Win32,60,m,1,0.52,,,,,,,,0.52,1,,,,,,53,WORD,"ID",33,police,POLICE,m,,,,,,0.007181329,-0.381508079,0,0,0,,0,47,47,52,1,
,,,,,,,,,,,,,,,,,,5f1e827568c1bb862cb9f5bd,2020-08-10_13h26.28.082,lexical_decision_task_MP,2020.1.3,Win32,60,z,1,0.625,,,,,,,,0.625,1,,,,,,311,NW,"ID",50,sproly,SPROLY,z,,,,,,0.007181329,-0.381508079,0,0,0,,0,48,48,310,1,
,,,,,,,,,,,,,,,,,,5f1e827568c1bb862cb9f5bd,2020-08-10_13h26.28.082,lexical_decision_task_MP,2020.1.3,Win32,60,z,0,0.647,,,,,,,,0.647,0,,,,,,8,WORD,"ID",33,abrupt,ABRUPT,m,,,,,,0.007181329,-0.381508079,0,0,0,,0,49,49,7,1,
,,,,,,,,,,,,,,,,,,5f1e827568c1bb862cb9f5bd,2020-08-10_13h26.28.082,lexical_decision_task_MP,2020.1.3,Win32,60,z,1,0.617,,,,,,,,0.617,1,,,,,,454,NW,UN,50,tondle,SCOUGE,z,,,,,,0.007181329,-0.381508079,0,0,0,,0,50,50,453,1,
,,,,,,,,,,,,,,,,,,5f1e827568c1bb862cb9f5bd,2020-08-10_13h26.28.082,lexical_decision_task_MP,2020.1.3,Win32,60,m,1,0.753,,,,,,,,0.753,1,,,,,,225,WORD,UN,50,kidney,VULGAR,m,,,,,,0.007181329,-0.381508079,0,0,0,,0,51,51,224,1,
,,,,,,,,,,,,,,,,,,5f1e827568c1bb862cb9f5bd,2020-08-10_13h26.28.082,lexical_decision_task_MP,2020.1.3,Win32,60,z,1,0.681,,,,,,,,0.681,1,,,,,,385,NW,UN,33,ancust,VEIGMA,z,,,,,,0.007181329,-0.381508079,0,0,0,,0,52,52,384,1,
,,,,,,,,,,,,,,,,,,5f1e827568c1bb862cb9f5bd,2020-08-10_13h26.28.082,lexical_decision_task_MP,2020.1.3,Win32,60,m,1,0.714,,,,,,,,0.714,1,,,,,,68,WORD,"ID",50,fumble,FUMBLE,m,,,,,,0.007181329,-0.381508079,0,0,0,,0,53,53,67,1,
,,,,,,,,,,,,,,,,,,5f1e827568c1bb862cb9f5bd,2020-08-10_13h26.28.082,lexical_decision_task_MP,2020.1.3,Win32,60,m,1,0.592,,,,,,,,0.592,1,,,,,,70,WORD,"ID",50,square,SQUARE,m,,,,,,0.007181329,-0.381508079,0,0,0,,0,54,54,69,1,
,,,,,,,,,,,,,,,,,,5f1e827568c1bb862cb9f5bd,2020-08-10_13h26.28.082,lexical_decision_task_MP,2020.1.3,Win32,60,z,1,0.729,,,,,,,,0.729,1,,,,,,363,NW,UN,33,impote,BREALI,z,,,,,,0.007181329,-0.381508079,0,0,0,,0,55,55,362,1,
,,,,,,,,,,,,,,,,,,5f1e827568c1bb862cb9f5bd,2020-08-10_13h26.28.082,lexical_decision_task_MP,2020.1.3,Win32,60,m,1,0.535,,,,,,,,0.535,1,,,,,,228,WORD,UN,50,inject,MASTER,m,,,,,,0.007181329,-0.381508079,0,0,0,,0,56,56,227,1,
,,,,,,,,,,,,,,,,,,5f1e827568c1bb862cb9f5bd,2020-08-10_13h26.28.082,lexical_decision_task_MP,2020.1.3,Win32,60,m,1,0.801,,,,,,,,0.801,1,,,,,,63,WORD,"ID",50,launch,LAUNCH,m,,,,,,0.007181329,-0.381508079,0,0,0,,0,57,57,62,1,
,,,,,,,,,,,,,,,,,,5f1e827568c1bb862cb9f5bd,2020-08-10_13h26.28.082,lexical_decision_task_MP,2020.1.3,Win32,60,z,1,0.592,,,,,,,,0.592,1,,,,,,441,NW,UN,50,aboune,RASTOE,z,,,,,,0.007181329,-0.381508079,0,0,0,,0,58,58,440,1,
,,,,,,,,,,,,,,,,,,5f1e827568c1bb862cb9f5bd,2020-08-10_13h26.28.082,lexical_decision_task_MP,2020.1.3,Win32,60,m,1,0.698,,,,,,,,0.698,1,,,,,,140,WORD,UN,33,reason,PRINCE,m,,,,,,0.007181329,-0.381508079,0,0,0,,0,59,59,139,1,
,,,,,,,,,,,,,,,,,,5f1e827568c1bb862cb9f5bd,2020-08-10_13h26.28.082,lexical_decision_task_MP,2020.1.3,Win32,60,m,1,0.692,,,,,,,,0.692,1,,,,,,211,WORD,UN,50,verify,INFECT,m,,,,,,0.007181329,-0.381508079,0,0,0,,0,60,60,210,1,
,,,,,,,,,,,,,,,,,,5f1e827568c1bb862cb9f5bd,2020-08-10_13h26.28.082,lexical_decision_task_MP,2020.1.3,Win32,60,z,1,0.699,,,,,,,,0.699,1,,,,,,317,NW,"ID",50,worbal,WORBAL,z,,,,,,0.007181329,-0.381508079,0,0,0,,0,61,61,316,1,
,,,,,,,,,,,,,,,,,,5f1e827568c1bb862cb9f5bd,2020-08-10_13h26.28.082,lexical_decision_task_MP,2020.1.3,Win32,60,z,1,0.552,,,,,,,,0.552,1,,,,,,350,NW,"ID",50,nagurs,NAGURS,z,,,,,,0.007181329,-0.381508079,0,0,0,,0,62,62,349,1,
,,,,,,,,,,,,,,,,,,5f1e827568c1bb862cb9f5bd,2020-08-10_13h26.28.082,lexical_decision_task_MP,2020.1.3,Win32,60,z,1,0.587,,,,,,,,0.587,1,,,,,,456,NW,UN,50,wanigh,BROGET,z,,,,,,0.007181329,-0.381508079,0,0,0,,0,63,63,455,1,
,,,,,,,,,,,,,,,,,,5f1e827568c1bb862cb9f5bd,2020-08-10_13h26.28.082,lexical_decision_task_MP,2020.1.3,Win32,60,z,1,0.714,,,,,,,,0.714,1,,,,,,246,NW,"ID",33,piaton,PIATON,z,,,,,,0.007181329,-0.381508079,0,0,0,,0,64,64,245,1,
,,,,,,,,,,,,,,,,,,5f1e827568c1bb862cb9f5bd,2020-08-10_13h26.28.082,lexical_decision_task_MP,2020.1.3,Win32,60,z,1,0.631,,,,,,,,0.631,1,,,,,,343,NW,"ID",50,aimosy,AIMOSY,z,,,,,,0.007181329,-0.381508079,0,0,0,,0,65,65,342,1,
,,,,,,,,,,,,,,,,,,5f1e827568c1bb862cb9f5bd,2020-08-10_13h26.28.082,lexical_decision_task_MP,2020.1.3,Win32,60,m,1,0.619,,,,,,,,0.619,1,,,,,,232,WORD,UN,50,nature,INJECT,m,,,,,,0.007181329,-0.381508079,0,0,0,,0,66,66,231,1,
,,,,,,,,,,,,,,,,,,5f1e827568c1bb862cb9f5bd,2020-08-10_13h26.28.082,lexical_decision_task_MP,2020.1.3,Win32,60,m,1,0.627,,,,,,,,0.627,1,,,,,,125,WORD,UN,33,blouse,NICKEL,m,,,,,,0.007181329,-0.381508079,0,0,0,,0,67,67,124,1,
,,,,,,,,,,,,,,,,,,5f1e827568c1bb862cb9f5bd,2020-08-10_13h26.28.082,lexical_decision_task_MP,2020.1.3,Win32,60,m,1,0.916,,,,,,,,0.916,1,,,,,,177,WORD,UN,33,inform,ADVENT,m,,,,,,0.007181329,-0.381508079,0,0,0,,0,68,68,176,1,
,,,,,,,,,,,,,,,,,,5f1e827568c1bb862cb9f5bd,2020-08-10_13h26.28.082,lexical_decision_task_MP,2020.1.3,Win32,60,z,1,1.27,,,,,,,,1.27,1,,,,,,452,NW,UN,50,bolvis,SURDEN,z,,,,,,0.007181329,-0.381508079,0,0,0,,0,69,69,451,1,
,,,,,,,,,,,,,,,,,,5f1e827568c1bb862cb9f5bd,2020-08-10_13h26.28.082,lexical_decision_task_MP,2020.1.3,Win32,60,z,1,0.66,,,,,,,,0.66,1,,,,,,425,NW,UN,50,schind,FRUDGE,z,,,,,,0.007181329,-0.381508079,0,0,0,,0,70,70,424,1,
,,,,,,,,,,,,,,,,,,5f1e827568c1bb862cb9f5bd,2020-08-10_13h26.28.082,lexical_decision_task_MP,2020.1.3,Win32,60,m,1,0.63,,,,,,,,0.63,1,,,,,,40,WORD,"ID",33,convey,CONVEY,m,,,,,,0.007181329,-0.381508079,0,0,0,,0,71,71,39,1,
,,,,,,,,,,,,,,,,,,5f1e827568c1bb862cb9f5bd,2020-08-10_13h26.28.082,lexical_decision_task_MP,2020.1.3,Win32,60,z,1,0.605,,,,,,,,0.605,1,,,,,,437,NW,UN,50,baitch,SNAPEL,z,,,,,,0.007181329,-0.381508079,0,0,0,,0,72,72,436,1,
,,,,,,,,,,,,,,,,,,5f1e827568c1bb862cb9f5bd,2020-08-10_13h26.28.082,lexical_decision_task_MP,2020.1.3,Win32,60,m,0,0.585,,,,,,,,0.585,0,,,,,,260,NW,"ID",33,unject,UNJECT,z,,,,,,0.007181329,-0.381508079,0,0,0,,0,73,73,259,1,
,,,,,,,,,,,,,,,,,,5f1e827568c1bb862cb9f5bd,2020-08-10_13h26.28.082,lexical_decision_task_MP,2020.1.3,Win32,60,z,1,0.771,,,,,,,,0.771,1,,,,,,432,NW,UN,50,drance,LUNKER,z,,,,,,0.007181329,-0.381508079,0,0,0,,0,74,74,431,1,
,,,,,,,,,,,,,,,,,,5f1e827568c1bb862cb9f5bd,2020-08-10_13h26.28.082,lexical_decision_task_MP,2020.1.3,Win32,60,z,1,0.539,,,,,,,,0.539,1,,,,,,430,NW,UN,50,funtle,CAROEY,z,,,,,,0.007181329,-0.381508079,0,0,0,,0,75,75,429,1,
,,,,,,,,,,,,,,,,,,5f1e827568c1bb862cb9f5bd,2020-08-10_13h26.28.082,lexical_decision_task_MP,2020.1.3,Win32,60,z,1,0.604,,,,,,,,0.604,1,,,,,,302,NW,"ID",50,miluer,MILUER,z,,,,,,0.007181329,-0.381508079,0,0,0,,0,76,76,301,1,
,,,,,,,,,,,,,,,,,,5f1e827568c1bb862cb9f5bd,2020-08-10_13h26.28.082,lexical_decision_task_MP,2020.1.3,Win32,60,z,1,0.52,,,,,,,,0.52,1,,,,,,370,NW,UN,33,geiloy,SLEACT,z,,,,,,0.007181329,-0.381508079,0,0,0,,0,77,77,369,1,
,,,,,,,,,,,,,,,,,,5f1e827568c1bb862cb9f5bd,2020-08-10_13h26.28.082,lexical_decision_task_MP,2020.1.3,Win32,60,z,1,0.57,,,,,,,,0.57,1,,,,,,450,NW,UN,50,rastoe,PHRECT,z,,,,,,0.007181329,-0.381508079,0,0,0,,0,78,78,449,1,
,,,,,,,,,,,,,,,,,,5f1e827568c1bb862cb9f5bd,2020-08-10_13h26.28.082,lexical_decision_task_MP,2020.1.3,Win32,60,m,1,0.623,,,,,,,,0.623,1,,,,,,182,WORD,UN,50,basket,WINTER,m,,,,,,0.007181329,-0.381508079,0,0,0,,0,79,79,181,1,
,,,,,,,,,,,,,,,,,,5f1e827568c1bb862cb9f5bd,2020-08-10_13h26.28.082,lexical_decision_task_MP,2020.1.3,Win32,60,z,1,0.657,,,,,,,,0.657,1,,,,,,263,NW,"ID",33,dolica,DOLICA,z,,,,,,0.007181329,-0.381508079,0,0,0,,0,80,80,262,1,
,,,,,,,,,,,,,,,,,,5f1e827568c1bb862cb9f5bd,2020-08-10_13h26.28.082,lexical_decision_task_MP,2020.1.3,Win32,60,m,1,0.505,,,,,,,,0.505,1,,,,,,81,WORD,"ID",50,friend,FRIEND,m,,,,,,0.007181329,-0.381508079,0,0,0,,0,81,81,80,1,
,,,,,,,,,,,,,,,,,,5f1e827568c1bb862cb9f5bd,2020-08-10_13h26.28.082,lexical_decision_task_MP,2020.1.3,Win32,60,m,1,0.665,,,,,,,,0.665,1,,,,,,201,WORD,UN,50,factor,ADMIRE,m,,,,,,0.007181329,-0.381508079,0,0,0,,0,82,82,200,1,
,,,,,,,,,,,,,,,,,,5f1e827568c1bb862cb9f5bd,2020-08-10_13h26.28.082,lexical_decision_task_MP,2020.1.3,Win32,60,z,1,0.729,,,,,,,,0.729,1,,,,,,322,NW,"ID",50,slanch,SLANCH,z,,,,,,0.007181329,-0.381508079,0,0,0,,0,83,83,321,1,
,,,,,,,,,,,,,,,,,,5f1e827568c1bb862cb9f5bd,2020-08-10_13h26.28.082,lexical_decision_task_MP,2020.1.3,Win32,60,z,1,0.548,,,,,,,,0.548,1,,,,,,351,NW,"ID",50,tiesch,TIESCH,z,,,,,,0.007181329,-0.381508079,0,0,0,,0,84,84,350,1,
,,,,,,,,,,,,,,,,,,5f1e827568c1bb862cb9f5bd,2020-08-10_13h26.28.082,lexical_decision_task_MP,2020.1.3,Win32,60,z,0,0.657,,,,,,,,0.657,0,,,,,,92,WORD,"ID",50,strand,STRAND,m,,,,,,0.007181329,-0.381508079,0,0,0,,0,85,85,91,1,
,,,,,,,,,,,,,,,,,,5f1e827568c1bb862cb9f5bd,2020-08-10_13h26.28.082,lexical_decision_task_MP,2020.1.3,Win32,60,z,1,0.501,,,,,,,,0.501,1,,,,,,459,NW,UN,50,mingar,BAFENT,z,,,,,,0.007181329,-0.381508079,0,0,0,,0,86,86,458,1,
,,,,,,,,,,,,,,,,,,5f1e827568c1bb862cb9f5bd,2020-08-10_13h26.28.082,lexical_decision_task_MP,2020.1.3,Win32,60,z,1,0.505,,,,,,,,0.505,1,,,,,,315,NW,"ID",50,laston,LASTON,z,,,,,,0.007181329,-0.381508079,0,0,0,,0,87,87,314,1,
,,,,,,,,,,,,,,,,,,5f1e827568c1bb862cb9f5bd,2020-08-10_13h26.28.082,lexical_decision_task_MP,2020.1.3,Win32,60,z,1,0.94,,,,,,,,0.94,1,,,,,,244,NW,"ID",33,eatric,EATRIC,z,,,,,,0.007181329,-0.381508079,0,0,0,,0,88,88,243,1,
,,,,,,,,,,,,,,,,,,5f1e827568c1bb862cb9f5bd,2020-08-10_13h26.28.082,lexical_decision_task_MP,2020.1.3,Win32,60,z,1,0.616,,,,,,,,0.616,1,,,,,,272,NW,"ID",33,damilt,DAMILT,z,,,,,,0.007181329,-0.381508079,0,0,0,,0,89,89,271,1,
,,,,,,,,,,,,,,,,,,5f1e827568c1bb862cb9f5bd,2020-08-10_13h26.28.082,lexical_decision_task_MP,2020.1.3,Win32,60,m,1,0.532,,,,,,,,0.532,1,,,,,,49,WORD,"ID",33,survey,SURVEY,m,,,,,,0.007181329,-0.381508079,0,0,0,,0,90,90,48,1,
,,,,,,,,,,,,,,,,,,5f1e827568c1bb862cb9f5bd,2020-08-10_13h26.28.082,lexical_decision_task_MP,2020.1.3,Win32,60,z,0,0.603,,,,,,,,0.603,0,,,,,,122,WORD,UN,33,strike,LINGER,m,,,,,,0.007181329,-0.381508079,0,0,0,,0,91,91,121,1,
,,,,,,,,,,,,,,,,,,5f1e827568c1bb862cb9f5bd,2020-08-10_13h26.28.082,lexical_decision_task_MP,2020.1.3,Win32,60,z,1,0.715,,,,,,,,0.715,1,,,,,,346,NW,"ID",50,saudic,SAUDIC,z,,,,,,0.007181329,-0.381508079,0,0,0,,0,92,92,345,1,
,,,,,,,,,,,,,,,,,,5f1e827568c1bb862cb9f5bd,2020-08-10_13h26.28.082,lexical_decision_task_MP,2020.1.3,Win32,60,z,0,0.564,,,,,,,,0.564,0,,,,,,90,WORD,"ID",50,relish,RELISH,m,,,,,,0.007181329,-0.381508079,0,0,0,,0,93,93,89,1,
,,,,,,,,,,,,,,,,,,5f1e827568c1bb862cb9f5bd,2020-08-10_13h26.28.082,lexical_decision_task_MP,2020.1.3,Win32,60,z,1,0.681,,,,,,,,0.681,1,,,,,,258,NW,"ID",33,poluth,POLUTH,z,,,,,,0.007181329,-0.381508079,0,0,0,,0,94,94,257,1,
,,,,,,,,,,,,,,,,,,5f1e827568c1bb862cb9f5bd,2020-08-10_13h26.28.082,lexical_decision_task_MP,2020.1.3,Win32,60,z,1,0.688,,,,,,,,0.688,1,,,,,,279,NW,"ID",33,celond,CELOND,z,,,,,,0.007181329,-0.381508079,0,0,0,,0,95,95,278,1,
,,,,,,,,,,,,,,,,,,5f1e827568c1bb862cb9f5bd,2020-08-10_13h26.28.082,lexical_decision_task_MP,2020.1.3,Win32,60,z,1,0.503,,,,,,,,0.503,1,,,,,,448,NW,UN,50,brunge,SADENT,z,,,,,,0.007181329,-0.381508079,0,0,0,,0,96,96,447,1,
,,,,,,,,,,,,,,,,,,5f1e827568c1bb862cb9f5bd,2020-08-10_13h26.28.082,lexical_decision_task_MP,2020.1.3,Win32,60,z,0,0.597,,,,,,,,0.597,0,,,,,,82,WORD,"ID",50,stigma,STIGMA,m,,,,,,0.007181329,-0.381508079,0,0,0,,0,97,97,81,1,
,,,,,,,,,,,,,,,,,,5f1e827568c1bb862cb9f5bd,2020-08-10_13h26.28.082,lexical_decision_task_MP,2020.1.3,Win32,60,z,1,0.499,,,,,,,,0.499,1,,,,,,428,NW,UN,50,chrums,TANDLY,z,,,,,,0.007181329,-0.381508079,0,0,0,,0,98,98,427,1,
,,,,,,,,,,,,,,,,,,5f1e827568c1bb862cb9f5bd,2020-08-10_13h26.28.082,lexical_decision_task_MP,2020.1.3,Win32,60,m,1,0.692,,,,,,,,0.692,1,,,,,,24,WORD,"ID",33,praise,PRAISE,m,,,,,,0.007181329,-0.381508079,0,0,0,,0,99,99,23,1,
,,,,,,,,,,,,,,,,,,5f1e827568c1bb862cb9f5bd,2020-08-10_13h26.28.082,lexical_decision_task_MP,2020.1.3,Win32,60,m,1,0.733,,,,,,,,0.733,1,,,,,,73,WORD,"ID",50,source,SOURCE,m,,,,,,0.007181329,-0.381508079,0,0,0,,0,100,100,72,1,
,,,,,,,,,,,,,,,,,,5f1e827568c1bb862cb9f5bd,2020-08-10_13h26.28.082,lexical_decision_task_MP,2020.1.3,Win32,60,z,0,0.632,,,,,,,,0.632,0,,,,,,48,WORD,"ID",33,walnut,WALNUT,m,,,,,,0.007181329,-0.381508079,0,0,0,,0,101,101,47,1,
,,,,,,,,,,,,,,,,,,5f1e827568c1bb862cb9f5bd,2020-08-10_13h26.28.082,lexical_decision_task_MP,2020.1.3,Win32,60,m,1,0.493,,,,,,,,0.493,1,,,,,,110,WORD,"ID",50,polite,POLITE,m,,,,,,0.007181329,-0.381508079,0,0,0,,0,102,102,109,1,
,,,,,,,,,,,,,,,,,,5f1e827568c1bb862cb9f5bd,2020-08-10_13h26.28.082,lexical_decision_task_MP,2020.1.3,Win32,60,z,1,0.685,,,,,,,,0.685,1,,,,,,323,NW,"ID",50,rosail,ROSAIL,z,,,,,,0.007181329,-0.381508079,0,0,0,,0,103,103,322,1,
,,,,,,,,,,,,,,,,,,5f1e827568c1bb862cb9f5bd,2020-08-10_13h26.28.082,lexical_decision_task_MP,2020.1.3,Win32,60,m,1,0.751,,,,,,,,0.751,1,,,,,,143,WORD,UN,33,sponge,REASON,m,,,,,,0.007181329,-0.381508079,0,0,0,,0,104,104,142,1,
,,,,,,,,,,,,,,,,,,5f1e827568c1bb862cb9f5bd,2020-08-10_13h26.28.082,lexical_decision_task_MP,2020.1.3,Win32,60,m,1,0.634,,,,,,,,0.634,1,,,,,,78,WORD,"ID",50,column,COLUMN,m,,,,,,0.007181329,-0.381508079,0,0,0,,0,105,105,77,1,
,,,,,,,,,,,,,,,,,,5f1e827568c1bb862cb9f5bd,2020-08-10_13h26.28.082,lexical_decision_task_MP,2020.1.3,Win32,60,z,0,0.593,,,,,,,,0.593,0,,,,,,113,WORD,"ID",50,chorus,CHORUS,m,,,,,,0.007181329,-0.381508079,0,0,0,,0,106,106,112,1,
,,,,,,,,,,,,,,,,,,5f1e827568c1bb862cb9f5bd,2020-08-10_13h26.28.082,lexical_decision_task_MP,2020.1.3,Win32,60,z,1,0.636,,,,,,,,0.636,1,,,,,,338,NW,"ID",50,wreash,WREASH,z,,,,,,0.007181329,-0.381508079,0,0,0,,0,107,107,337,1,
,,,,,,,,,,,,,,,,,,5f1e827568c1bb862cb9f5bd,2020-08-10_13h26.28.082,lexical_decision_task_MP,2020.1.3,Win32,60,m,1,0.604,,,,,,,,0.604,1,,,,,,158,WORD,UN,33,detail,ISLAND,m,,,,,,0.007181329,-0.381508079,0,0,0,,0,108,108,157,1,
,,,,,,,,,,,,,,,,,,5f1e827568c1bb862cb9f5bd,2020-08-10_13h26.28.082,lexical_decision_task_MP,2020.1.3,Win32,60,z,1,0.646,,,,,,,,0.646,1,,,,,,252,NW,"ID",33,stapod,STAPOD,z,,,,,,0.007181329,-0.381508079,0,0,0,,0,109,109,251,1,
,,,,,,,,,,,,,,,,,,5f1e827568c1bb862cb9f5bd,2020-08-10_13h26.28.082,lexical_decision_task_MP,2020.1.3,Win32,60,m,1,0.593,,,,,,,,0.593,1,,,,,,46,WORD,"ID",33,single,SINGLE,m,,,,,,0.007181329,-0.381508079,0,0,0,,0,110,110,45,1,
,,,,,,,,,,,,,,,,,,5f1e827568c1bb862cb9f5bd,2020-08-10_13h26.28.082,lexical_decision_task_MP,2020.1.3,Win32,60,z,1,0.512,,,,,,,,0.512,1,,,,,,336,NW,"ID",50,ghodus,GHODUS,z,,,,,,0.007181329,-0.381508079,0,0,0,,0,111,111,335,1,
,,,,,,,,,,,,,,,,,,5f1e827568c1bb862cb9f5bd,2020-08-10_13h26.28.082,lexical_decision_task_MP,2020.1.3,Win32,60,z,0,0.582,,,,,,,,0.582,0,,,,,,29,WORD,"ID",33,sketch,SKETCH,m,,,,,,0.007181329,-0.381508079,0,0,0,,0,112,112,28,1,
,,,,,,,,,,,,,,,,,,5f1e827568c1bb862cb9f5bd,2020-08-10_13h26.28.082,lexical_decision_task_MP,2020.1.3,Win32,60,z,0,0.701,,,,,,,,0.701,0,,,,,,236,WORD,UN,50,poster,PIRATE,m,,,,,,0.007181329,-0.381508079,0,0,0,,0,113,113,235,1,
,,,,,,,,,,,,,,,,,,5f1e827568c1bb862cb9f5bd,2020-08-10_13h26.28.082,lexical_decision_task_MP,2020.1.3,Win32,60,z,1,0.652,,,,,,,,0.652,1,,,,,,259,NW,"ID",33,soudal,SOUDAL,z,,,,,,0.007181329,-0.381508079,0,0,0,,0,114,114,258,1,
,,,,,,,,,,,,,,,,,,5f1e827568c1bb862cb9f5bd,2020-08-10_13h26.28.082,lexical_decision_task_MP,2020.1.3,Win32,60,m,1,0.55,,,,,,,,0.55,1,,,,,,15,WORD,"ID",33,amount,AMOUNT,m,,,,,,0.007181329,-0.381508079,0,0,0,,0,115,115,14,1,
,,,,,,,,,,,,,,,,,,5f1e827568c1bb862cb9f5bd,2020-08-10_13h26.28.082,lexical_decision_task_MP,2020.1.3,Win32,60,z,1,1.074,,,,,,,,1.074,1,,,,,,380,NW,UN,33,huniek,CAVORY,z,,,,,,0.007181329,-0.381508079,0,0,0,,0,116,116,379,1,
,,,,,,,,,,,,,,,,,,5f1e827568c1bb862cb9f5bd,2020-08-10_13h26.28.082,lexical_decision_task_MP,2020.1.3,Win32,60,m,1,0.584,,,,,,,,0.584,1,,,,,,103,WORD,"ID",50,bounce,BOUNCE,m,,,,,,0.007181329,-0.381508079,0,0,0,,0,117,117,102,1,
,,,,,,,,,,,,,,,,,,5f1e827568c1bb862cb9f5bd,2020-08-10_13h26.28.082,lexical_decision_task_MP,2020.1.3,Win32,60,m,1,0.56,,,,,,,,0.56,1,,,,,,148,WORD,UN,33,invade,CUSTOM,m,,,,,,0.007181329,-0.381508079,0,0,0,,0,118,118,147,1,
,,,,,,,,,,,,,,,,,,5f1e827568c1bb862cb9f5bd,2020-08-10_13h26.28.082,lexical_decision_task_MP,2020.1.3,Win32,60,m,1,0.771,,,,,,,,0.771,1,,,,,,59,WORD,"ID",33,splint,SPLINT,m,,,,,,0.007181329,-0.381508079,0,0,0,,0,119,119,58,1,
,,,,,,,,,,,,,,,,,,5f1e827568c1bb862cb9f5bd,2020-08-10_13h26.28.082,lexical_decision_task_MP,2020.1.3,Win32,60,m,1,0.924,,,,,,,,0.924,1,,,,,,114,WORD,"ID",50,placid,PLACID,m,,,,,,0.007181329,-0.381508079,0,0,0,space,0,120,120,113,1,2.641
,,,,,,,,,,,,,,,,,,5f1e827568c1bb862cb9f5bd,2020-08-10_13h26.28.082,lexical_decision_task_MP,2020.1.3,Win32,60,z,0,0.917,,,,,,,,0.917,0,,,,,,139,WORD,UN,33,prince,DEBRIS,m,,,,,,0.007181329,-0.381508079,0,0,0,,0,121,121,138,1,
,,,,,,,,,,,,,,,,,,5f1e827568c1bb862cb9f5bd,2020-08-10_13h26.28.082,lexical_decision_task_MP,2020.1.3,Win32,60,m,0,0.792,,,,,,,,0.792,0,,,,,,331,NW,"ID",50,gilfew,GILFEW,z,,,,,,0.007181329,-0.381508079,0,0,0,,0,122,122,330,1,
,,,,,,,,,,,,,,,,,,5f1e827568c1bb862cb9f5bd,2020-08-10_13h26.28.082,lexical_decision_task_MP,2020.1.3,Win32,60,z,0,0.869,,,,,,,,0.869,0,,,,,,133,WORD,UN,33,debris,CHROME,m,,,,,,0.007181329,-0.381508079,0,0,0,,0,123,123,132,1,
,,,,,,,,,,,,,,,,,,5f1e827568c1bb862cb9f5bd,2020-08-10_13h26.28.082,lexical_decision_task_MP,2020.1.3,Win32,60,z,1,0.627,,,,,,,,0.627,1,,,,,,290,NW,"ID",33,splino,SPLINO,z,,,,,,0.007181329,-0.381508079,0,0,0,,0,124,124,289,1,
,,,,,,,,,,,,,,,,,,5f1e827568c1bb862cb9f5bd,2020-08-10_13h26.28.082,lexical_decision_task_MP,2020.1.3,Win32,60,z,0,1.342,,,,,,,,1.342,0,,,,,,181,WORD,UN,50,winter,GLANCE,m,,,,,,0.007181329,-0.381508079,0,0,0,,0,125,125,180,1,
,,,,,,,,,,,,,,,,,,5f1e827568c1bb862cb9f5bd,2020-08-10_13h26.28.082,lexical_decision_task_MP,2020.1.3,Win32,60,z,1,0.949,,,,,,,,0.949,1,,,,,,328,NW,"ID",50,broake,BROAKE,z,,,,,,0.007181329,-0.381508079,0,0,0,,0,126,126,327,1,
,,,,,,,,,,,,,,,,,,5f1e827568c1bb862cb9f5bd,2020-08-10_13h26.28.082,lexical_decision_task_MP,2020.1.3,Win32,60,m,1,0.78,,,,,,,,0.78,1,,,,,,178,WORD,UN,33,mildew,INFORM,m,,,,,,0.007181329,-0.381508079,0,0,0,,0,127,127,177,1,
,,,,,,,,,,,,,,,,,,5f1e827568c1bb862cb9f5bd,2020-08-10_13h26.28.082,lexical_decision_task_MP,2020.1.3,Win32,60,z,1,0.833,,,,,,,,0.833,1,,,,,,243,NW,"ID",33,musied,MUSIED,z,,,,,,0.007181329,-0.381508079,0,0,0,,0,128,128,242,1,
,,,,,,,,,,,,,,,,,,5f1e827568c1bb862cb9f5bd,2020-08-10_13h26.28.082,lexical_decision_task_MP,2020.1.3,Win32,60,z,1,0.793,,,,,,,,0.793,1,,,,,,412,NW,UN,33,equats,JILUER,z,,,,,,0.007181329,-0.381508079,0,0,0,,0,129,129,411,1,
,,,,,,,,,,,,,,,,,,5f1e827568c1bb862cb9f5bd,2020-08-10_13h26.28.082,lexical_decision_task_MP,2020.1.3,Win32,60,z,0,0.568,,,,,,,,0.568,0,,,,,,4,WORD,"ID",33,trench,TRENCH,m,,,,,,0.007181329,-0.381508079,0,0,0,,0,130,130,3,1,
,,,,,,,,,,,,,,,,,,5f1e827568c1bb862cb9f5bd,2020-08-10_13h26.28.082,lexical_decision_task_MP,2020.1.3,Win32,60,m,1,0.883,,,,,,,,0.883,1,,,,,,120,WORD,"ID",50,strain,STRAIN,m,,,,,,0.007181329,-0.381508079,0,0,0,,0,131,131,119,1,
,,,,,,,,,,,,,,,,,,5f1e827568c1bb862cb9f5bd,2020-08-10_13h26.28.082,lexical_decision_task_MP,2020.1.3,Win32,60,m,1,0.757,,,,,,,,0.757,1,,,,,,35,WORD,"ID",33,socket,SOCKET,m,,,,,,0.007181329,-0.381508079,0,0,0,,0,132,132,34,1,
,,,,,,,,,,,,,,,,,,5f1e827568c1bb862cb9f5bd,2020-08-10_13h26.28.082,lexical_decision_task_MP,2020.1.3,Win32,60,m,1,0.729,,,,,,,,0.729,1,,,,,,7,WORD,"ID",33,anchor,ANCHOR,m,,,,,,0.007181329,-0.381508079,0,0,0,,0,133,133,6,1,
,,,,,,,,,,,,,,,,,,5f1e827568c1bb862cb9f5bd,2020-08-10_13h26.28.082,lexical_decision_task_MP,2020.1.3,Win32,60,z,1,0.749,,,,,,,,0.749,1,,,,,,286,NW,"ID",33,reldon,RELDON,z,,,,,,0.007181329,-0.381508079,0,0,0,,0,134,134,285,1,
,,,,,,,,,,,,,,,,,,5f1e827568c1bb862cb9f5bd,2020-08-10_13h26.28.082,lexical_decision_task_MP,2020.1.3,Win32,60,z,1,0.668,,,,,,,,0.668,1,,,,,,431,NW,UN,50,lunker,CHRUMS,z,,,,,,0.007181329,-0.381508079,0,0,0,,0,135,135,430,1,
,,,,,,,,,,,,,,,,,,5f1e827568c1bb862cb9f5bd,2020-08-10_13h26.28.082,lexical_decision_task_MP,2020.1.3,Win32,60,m,1,0.672,,,,,,,,0.672,1,,,,,,194,WORD,UN,50,resign,ABSENT,m,,,,,,0.007181329,-0.381508079,0,0,0,,0,136,136,193,1,
,,,,,,,,,,,,,,,,,,5f1e827568c1bb862cb9f5bd,2020-08-10_13h26.28.082,lexical_decision_task_MP,2020.1.3,Win32,60,m,1,0.645,,,,,,,,0.645,1,,,,,,14,WORD,"ID",33,almost,ALMOST,m,,,,,,0.007181329,-0.381508079,0,0,0,,0,137,137,13,1,
,,,,,,,,,,,,,,,,,,5f1e827568c1bb862cb9f5bd,2020-08-10_13h26.28.082,lexical_decision_task_MP,2020.1.3,Win32,60,m,1,0.708,,,,,,,,0.708,1,,,,,,111,WORD,"ID",50,induce,INDUCE,m,,,,,,0.007181329,-0.381508079,0,0,0,,0,138,138,110,1,
,,,,,,,,,,,,,,,,,,5f1e827568c1bb862cb9f5bd,2020-08-10_13h26.28.082,lexical_decision_task_MP,2020.1.3,Win32,60,m,1,0.83,,,,,,,,0.83,1,,,,,,197,WORD,UN,50,wicked,STREAM,m,,,,,,0.007181329,-0.381508079,0,0,0,,0,139,139,196,1,
,,,,,,,,,,,,,,,,,,5f1e827568c1bb862cb9f5bd,2020-08-10_13h26.28.082,lexical_decision_task_MP,2020.1.3,Win32,60,z,1,0.7,,,,,,,,0.7,1,,,,,,355,NW,"ID",50,zingly,ZINGLY,z,,,,,,0.007181329,-0.381508079,0,0,0,,0,140,140,354,1,
,,,,,,,,,,,,,,,,,,5f1e827568c1bb862cb9f5bd,2020-08-10_13h26.28.082,lexical_decision_task_MP,2020.1.3,Win32,60,m,1,0.583,,,,,,,,0.583,1,,,,,,238,WORD,UN,50,grumpy,FLOWER,m,,,,,,0.007181329,-0.381508079,0,0,0,,0,141,141,237,1,
,,,,,,,,,,,,,,,,,,5f1e827568c1bb862cb9f5bd,2020-08-10_13h26.28.082,lexical_decision_task_MP,2020.1.3,Win32,60,z,1,0.646,,,,,,,,0.646,1,,,,,,411,NW,UN,33,jiluer,ORCHIN,z,,,,,,0.007181329,-0.381508079,0,0,0,,0,142,142,410,1,
,,,,,,,,,,,,,,,,,,5f1e827568c1bb862cb9f5bd,2020-08-10_13h26.28.082,lexical_decision_task_MP,2020.1.3,Win32,60,z,1,0.657,,,,,,,,0.657,1,,,,,,310,NW,"ID",50,daniet,DANIET,z,,,,,,0.007181329,-0.381508079,0,0,0,,0,143,143,309,1,
,,,,,,,,,,,,,,,,,,5f1e827568c1bb862cb9f5bd,2020-08-10_13h26.28.082,lexical_decision_task_MP,2020.1.3,Win32,60,z,1,0.728,,,,,,,,0.728,1,,,,,,422,NW,UN,50,streld,ALCOUD,z,,,,,,0.007181329,-0.381508079,0,0,0,,0,144,144,421,1,
,,,,,,,,,,,,,,,,,,5f1e827568c1bb862cb9f5bd,2020-08-10_13h26.28.082,lexical_decision_task_MP,2020.1.3,Win32,60,z,0,0.614,,,,,,,,0.614,0,,,,,,85,WORD,"ID",50,sprawl,SPRAWL,m,,,,,,0.007181329,-0.381508079,0,0,0,,0,145,145,84,1,
,,,,,,,,,,,,,,,,,,5f1e827568c1bb862cb9f5bd,2020-08-10_13h26.28.082,lexical_decision_task_MP,2020.1.3,Win32,60,z,1,0.597,,,,,,,,0.597,1,,,,,,326,NW,"ID",50,iguade,IGUADE,z,,,,,,0.007181329,-0.381508079,0,0,0,,0,146,146,325,1,
,,,,,,,,,,,,,,,,,,5f1e827568c1bb862cb9f5bd,2020-08-10_13h26.28.082,lexical_decision_task_MP,2020.1.3,Win32,60,m,0,0.673,,,,,,,,0.673,0,,,,,,275,NW,"ID",33,sleirt,SLEIRT,z,,,,,,0.007181329,-0.381508079,0,0,0,,0,147,147,274,1,
,,,,,,,,,,,,,,,,,,5f1e827568c1bb862cb9f5bd,2020-08-10_13h26.28.082,lexical_decision_task_MP,2020.1.3,Win32,60,z,1,0.968,,,,,,,,0.968,1,,,,,,423,NW,UN,50,praile,STRELD,z,,,,,,0.007181329,-0.381508079,0,0,0,,0,148,148,422,1,
,,,,,,,,,,,,,,,,,,5f1e827568c1bb862cb9f5bd,2020-08-10_13h26.28.082,lexical_decision_task_MP,2020.1.3,Win32,60,m,0,0.563,,,,,,,,0.563,0,,,,,,319,NW,"ID",50,zomber,ZOMBER,z,,,,,,0.007181329,-0.381508079,0,0,0,,0,149,149,318,1,
,,,,,,,,,,,,,,,,,,5f1e827568c1bb862cb9f5bd,2020-08-10_13h26.28.082,lexical_decision_task_MP,2020.1.3,Win32,60,z,1,0.602,,,,,,,,0.602,1,,,,,,384,NW,UN,33,veigma,GUESCO,z,,,,,,0.007181329,-0.381508079,0,0,0,,0,150,150,383,1,
,,,,,,,,,,,,,,,,,,5f1e827568c1bb862cb9f5bd,2020-08-10_13h26.28.082,lexical_decision_task_MP,2020.1.3,Win32,60,m,1,0.565,,,,,,,,0.565,1,,,,,,47,WORD,"ID",33,income,INCOME,m,,,,,,0.007181329,-0.381508079,0,0,0,,0,151,151,46,1,
,,,,,,,,,,,,,,,,,,5f1e827568c1bb862cb9f5bd,2020-08-10_13h26.28.082,lexical_decision_task_MP,2020.1.3,Win32,60,m,1,0.707,,,,,,,,0.707,1,,,,,,128,WORD,UN,33,marvel,SENIOR,m,,,,,,0.007181329,-0.381508079,0,0,0,,0,152,152,127,1,
,,,,,,,,,,,,,,,,,,5f1e827568c1bb862cb9f5bd,2020-08-10_13h26.28.082,lexical_decision_task_MP,2020.1.3,Win32,60,m,0,0.543,,,,,,,,0.543,0,,,,,,345,NW,"ID",50,absend,ABSEND,z,,,,,,0.007181329,-0.381508079,0,0,0,,0,153,153,344,1,
,,,,,,,,,,,,,,,,,,5f1e827568c1bb862cb9f5bd,2020-08-10_13h26.28.082,lexical_decision_task_MP,2020.1.3,Win32,60,z,1,1.273,,,,,,,,1.273,1,,,,,,426,NW,UN,50,frudge,URIVEL,z,,,,,,0.007181329,-0.381508079,0,0,0,,0,154,154,425,1,
,,,,,,,,,,,,,,,,,,5f1e827568c1bb862cb9f5bd,2020-08-10_13h26.28.082,lexical_decision_task_MP,2020.1.3,Win32,60,z,1,0.645,,,,,,,,0.645,1,,,,,,353,NW,"ID",50,clurey,CLUREY,z,,,,,,0.007181329,-0.381508079,0,0,0,,0,155,155,352,1,
,,,,,,,,,,,,,,,,,,5f1e827568c1bb862cb9f5bd,2020-08-10_13h26.28.082,lexical_decision_task_MP,2020.1.3,Win32,60,m,1,0.585,,,,,,,,0.585,1,,,,,,191,WORD,UN,50,absent,STABLE,m,,,,,,0.007181329,-0.381508079,0,0,0,,0,156,156,190,1,
,,,,,,,,,,,,,,,,,,5f1e827568c1bb862cb9f5bd,2020-08-10_13h26.28.082,lexical_decision_task_MP,2020.1.3,Win32,60,m,1,0.667,,,,,,,,0.667,1,,,,,,217,WORD,UN,50,shrink,LIQUOR,m,,,,,,0.007181329,-0.381508079,0,0,0,,0,157,157,216,1,
,,,,,,,,,,,,,,,,,,5f1e827568c1bb862cb9f5bd,2020-08-10_13h26.28.082,lexical_decision_task_MP,2020.1.3,Win32,60,z,1,0.71,,,,,,,,0.71,1,,,,,,268,NW,"ID",33,packes,PACKES,z,,,,,,0.007181329,-0.381508079,0,0,0,,0,158,158,267,1,
,,,,,,,,,,,,,,,,,,5f1e827568c1bb862cb9f5bd,2020-08-10_13h26.28.082,lexical_decision_task_MP,2020.1.3,Win32,60,z,1,0.796,,,,,,,,0.796,1,,,,,,354,NW,"ID",50,virlex,VIRLEX,z,,,,,,0.007181329,-0.381508079,0,0,0,,0,159,159,353,1,
,,,,,,,,,,,,,,,,,,5f1e827568c1bb862cb9f5bd,2020-08-10_13h26.28.082,lexical_decision_task_MP,2020.1.3,Win32,60,m,1,0.57,,,,,,,,0.57,1,,,,,,119,WORD,"ID",50,spider,SPIDER,m,,,,,,0.007181329,-0.381508079,0,0,0,,0,160,160,118,1,
,,,,,,,,,,,,,,,,,,5f1e827568c1bb862cb9f5bd,2020-08-10_13h26.28.082,lexical_decision_task_MP,2020.1.3,Win32,60,z,1,0.646,,,,,,,,0.646,1,,,,,,241,NW,"ID",33,smenco,SMENCO,z,,,,,,0.007181329,-0.381508079,0,0,0,,0,161,161,240,1,
,,,,,,,,,,,,,,,,,,5f1e827568c1bb862cb9f5bd,2020-08-10_13h26.28.082,lexical_decision_task_MP,2020.1.3,Win32,60,m,1,0.592,,,,,,,,0.592,1,,,,,,31,WORD,"ID",33,weapon,WEAPON,m,,,,,,0.007181329,-0.381508079,0,0,0,,0,162,162,30,1,
,,,,,,,,,,,,,,,,,,5f1e827568c1bb862cb9f5bd,2020-08-10_13h26.28.082,lexical_decision_task_MP,2020.1.3,Win32,60,z,1,0.791,,,,,,,,0.791,1,,,,,,309,NW,"ID",50,amiloy,AMILOY,z,,,,,,0.007181329,-0.381508079,0,0,0,,0,163,163,308,1,
,,,,,,,,,,,,,,,,,,5f1e827568c1bb862cb9f5bd,2020-08-10_13h26.28.082,lexical_decision_task_MP,2020.1.3,Win32,60,z,1,0.585,,,,,,,,0.585,1,,,,,,417,NW,UN,33,suidle,EAROUD,z,,,,,,0.007181329,-0.381508079,0,0,0,,0,164,164,416,1,
,,,,,,,,,,,,,,,,,,5f1e827568c1bb862cb9f5bd,2020-08-10_13h26.28.082,lexical_decision_task_MP,2020.1.3,Win32,60,m,1,1.156,,,,,,,,1.156,1,,,,,,159,WORD,UN,33,violet,DETAIL,m,,,,,,0.007181329,-0.381508079,0,0,0,,0,165,165,158,1,
,,,,,,,,,,,,,,,,,,5f1e827568c1bb862cb9f5bd,2020-08-10_13h26.28.082,lexical_decision_task_MP,2020.1.3,Win32,60,z,1,0.746,,,,,,,,0.746,1,,,,,,399,NW,UN,33,wearox,FOURET,z,,,,,,0.007181329,-0.381508079,0,0,0,,0,166,166,398,1,
,,,,,,,,,,,,,,,,,,5f1e827568c1bb862cb9f5bd,2020-08-10_13h26.28.082,lexical_decision_task_MP,2020.1.3,Win32,60,m,1,0.645,,,,,,,,0.645,1,,,,,,162,WORD,UN,33,string,CANDLE,m,,,,,,0.007181329,-0.381508079,0,0,0,,0,167,167,161,1,
,,,,,,,,,,,,,,,,,,5f1e827568c1bb862cb9f5bd,2020-08-10_13h26.28.082,lexical_decision_task_MP,2020.1.3,Win32,60,z,1,0.584,,,,,,,,0.584,1,,,,,,293,NW,"ID",33,swance,SWANCE,z,,,,,,0.007181329,-0.381508079,0,0,0,,0,168,168,292,1,
,,,,,,,,,,,,,,,,,,5f1e827568c1bb862cb9f5bd,2020-08-10_13h26.28.082,lexical_decision_task_MP,2020.1.3,Win32,60,z,1,0.563,,,,,,,,0.563,1,,,,,,303,NW,"ID",50,fiream,FIREAM,z,,,,,,0.007181329,-0.381508079,0,0,0,,0,169,169,302,1,
,,,,,,,,,,,,,,,,,,5f1e827568c1bb862cb9f5bd,2020-08-10_13h26.28.082,lexical_decision_task_MP,2020.1.3,Win32,60,m,1,0.688,,,,,,,,0.688,1,,,,,,105,WORD,"ID",50,number,NUMBER,m,,,,,,0.007181329,-0.381508079,0,0,0,,0,170,170,104,1,
,,,,,,,,,,,,,,,,,,5f1e827568c1bb862cb9f5bd,2020-08-10_13h26.28.082,lexical_decision_task_MP,2020.1.3,Win32,60,z,0,0.652,,,,,,,,0.652,0,,,,,,171,WORD,UN,33,patrol,DEPART,m,,,,,,0.007181329,-0.381508079,0,0,0,,0,171,171,170,1,
,,,,,,,,,,,,,,,,,,5f1e827568c1bb862cb9f5bd,2020-08-10_13h26.28.082,lexical_decision_task_MP,2020.1.3,Win32,60,m,0,1.298,,,,,,,,1.298,0,,,,,,402,NW,UN,33,bruats,SYNTIC,z,,,,,,0.007181329,-0.381508079,0,0,0,,0,172,172,401,1,
,,,,,,,,,,,,,,,,,,5f1e827568c1bb862cb9f5bd,2020-08-10_13h26.28.082,lexical_decision_task_MP,2020.1.3,Win32,60,z,1,0.776,,,,,,,,0.776,1,,,,,,280,NW,"ID",33,curbol,CURBOL,z,,,,,,0.007181329,-0.381508079,0,0,0,,0,173,173,279,1,
,,,,,,,,,,,,,,,,,,5f1e827568c1bb862cb9f5bd,2020-08-10_13h26.28.082,lexical_decision_task_MP,2020.1.3,Win32,60,z,1,0.776,,,,,,,,0.776,1,,,,,,466,NW,UN,50,pebric,HOCITE,z,,,,,,0.007181329,-0.381508079,0,0,0,,0,174,174,465,1,
,,,,,,,,,,,,,,,,,,5f1e827568c1bb862cb9f5bd,2020-08-10_13h26.28.082,lexical_decision_task_MP,2020.1.3,Win32,60,m,1,0.775,,,,,,,,0.775,1,,,,,,33,WORD,"ID",33,butler,BUTLER,m,,,,,,0.007181329,-0.381508079,0,0,0,,0,175,175,32,1,
,,,,,,,,,,,,,,,,,,5f1e827568c1bb862cb9f5bd,2020-08-10_13h26.28.082,lexical_decision_task_MP,2020.1.3,Win32,60,z,1,0.727,,,,,,,,0.727,1,,,,,,407,NW,UN,33,hurnia,SUIVER,z,,,,,,0.007181329,-0.381508079,0,0,0,,0,176,176,406,1,
,,,,,,,,,,,,,,,,,,5f1e827568c1bb862cb9f5bd,2020-08-10_13h26.28.082,lexical_decision_task_MP,2020.1.3,Win32,60,z,1,1.009,,,,,,,,1.009,1,,,,,,249,NW,"ID",33,batrol,BATROL,z,,,,,,0.007181329,-0.381508079,0,0,0,,0,177,177,248,1,
,,,,,,,,,,,,,,,,,,5f1e827568c1bb862cb9f5bd,2020-08-10_13h26.28.082,lexical_decision_task_MP,2020.1.3,Win32,60,m,1,0.697,,,,,,,,0.697,1,,,,,,134,WORD,UN,33,import,STAPLE,m,,,,,,0.007181329,-0.381508079,0,0,0,,0,178,178,133,1,
,,,,,,,,,,,,,,,,,,5f1e827568c1bb862cb9f5bd,2020-08-10_13h26.28.082,lexical_decision_task_MP,2020.1.3,Win32,60,m,1,0.584,,,,,,,,0.584,1,,,,,,135,WORD,UN,33,chrome,IMPORT,m,,,,,,0.007181329,-0.381508079,0,0,0,,0,179,179,134,1,
,,,,,,,,,,,,,,,,,,5f1e827568c1bb862cb9f5bd,2020-08-10_13h26.28.082,lexical_decision_task_MP,2020.1.3,Win32,60,m,1,0.561,,,,,,,,0.561,1,,,,,,164,WORD,UN,33,invest,MARKET,m,,,,,,0.007181329,-0.381508079,0,0,0,,0,180,180,163,1,
,,,,,,,,,,,,,,,,,,5f1e827568c1bb862cb9f5bd,2020-08-10_13h26.28.082,lexical_decision_task_MP,2020.1.3,Win32,60,m,1,0.675,,,,,,,,0.675,1,,,,,,138,WORD,UN,33,staple,MELODY,m,,,,,,0.007181329,-0.381508079,0,0,0,,0,181,181,137,1,
,,,,,,,,,,,,,,,,,,5f1e827568c1bb862cb9f5bd,2020-08-10_13h26.28.082,lexical_decision_task_MP,2020.1.3,Win32,60,z,1,0.761,,,,,,,,0.761,1,,,,,,325,NW,"ID",50,thruse,THRUSE,z,,,,,,0.007181329,-0.381508079,0,0,0,,0,182,182,324,1,
,,,,,,,,,,,,,,,,,,5f1e827568c1bb862cb9f5bd,2020-08-10_13h26.28.082,lexical_decision_task_MP,2020.1.3,Win32,60,z,1,0.505,,,,,,,,0.505,1,,,,,,368,NW,UN,33,wronch,HORNAL,z,,,,,,0.007181329,-0.381508079,0,0,0,,0,183,183,367,1,
,,,,,,,,,,,,,,,,,,5f1e827568c1bb862cb9f5bd,2020-08-10_13h26.28.082,lexical_decision_task_MP,2020.1.3,Win32,60,z,1,0.71,,,,,,,,0.71,1,,,,,,250,NW,"ID",33,milted,MILTED,z,,,,,,0.007181329,-0.381508079,0,0,0,,0,184,184,249,1,
,,,,,,,,,,,,,,,,,,5f1e827568c1bb862cb9f5bd,2020-08-10_13h26.28.082,lexical_decision_task_MP,2020.1.3,Win32,60,z,1,0.582,,,,,,,,0.582,1,,,,,,470,NW,UN,50,nobest,CRUDIO,z,,,,,,0.007181329,-0.381508079,0,0,0,,0,185,185,469,1,
,,,,,,,,,,,,,,,,,,5f1e827568c1bb862cb9f5bd,2020-08-10_13h26.28.082,lexical_decision_task_MP,2020.1.3,Win32,60,z,0,0.736,,,,,,,,0.736,0,,,,,,234,WORD,UN,50,lumber,CLUMSY,m,,,,,,0.007181329,-0.381508079,0,0,0,,0,186,186,233,1,
,,,,,,,,,,,,,,,,,,5f1e827568c1bb862cb9f5bd,2020-08-10_13h26.28.082,lexical_decision_task_MP,2020.1.3,Win32,60,z,1,1.334,,,,,,,,1.334,1,,,,,,409,NW,UN,33,tunory,ELOPIA,z,,,,,,0.007181329,-0.381508079,0,0,0,,0,187,187,408,1,
,,,,,,,,,,,,,,,,,,5f1e827568c1bb862cb9f5bd,2020-08-10_13h26.28.082,lexical_decision_task_MP,2020.1.3,Win32,60,z,1,0.622,,,,,,,,0.622,1,,,,,,383,NW,UN,33,guesco,AUNGRE,z,,,,,,0.007181329,-0.381508079,0,0,0,,0,188,188,382,1,
,,,,,,,,,,,,,,,,,,5f1e827568c1bb862cb9f5bd,2020-08-10_13h26.28.082,lexical_decision_task_MP,2020.1.3,Win32,60,z,1,0.547,,,,,,,,0.547,1,,,,,,300,NW,"ID",33,yarion,YARION,z,,,,,,0.007181329,-0.381508079,0,0,0,,0,189,189,299,1,
,,,,,,,,,,,,,,,,,,5f1e827568c1bb862cb9f5bd,2020-08-10_13h26.28.082,lexical_decision_task_MP,2020.1.3,Win32,60,m,1,0.63,,,,,,,,0.63,1,,,,,,57,WORD,"ID",33,change,CHANGE,m,,,,,,0.007181329,-0.381508079,0,0,0,,0,190,190,56,1,
,,,,,,,,,,,,,,,,,,5f1e827568c1bb862cb9f5bd,2020-08-10_13h26.28.082,lexical_decision_task_MP,2020.1.3,Win32,60,m,1,0.985,,,,,,,,0.985,1,,,,,,196,WORD,UN,50,stream,CREDIT,m,,,,,,0.007181329,-0.381508079,0,0,0,,0,191,191,195,1,
,,,,,,,,,,,,,,,,,,5f1e827568c1bb862cb9f5bd,2020-08-10_13h26.28.082,lexical_decision_task_MP,2020.1.3,Win32,60,m,0,1.173,,,,,,,,1.173,0,,,,,,373,NW,UN,33,injore,BIGENT,z,,,,,,0.007181329,-0.381508079,0,0,0,,0,192,192,372,1,
,,,,,,,,,,,,,,,,,,5f1e827568c1bb862cb9f5bd,2020-08-10_13h26.28.082,lexical_decision_task_MP,2020.1.3,Win32,60,z,1,0.839,,,,,,,,0.839,1,,,,,,391,NW,UN,33,rouncy,THELDY,z,,,,,,0.007181329,-0.381508079,0,0,0,,0,193,193,390,1,
,,,,,,,,,,,,,,,,,,5f1e827568c1bb862cb9f5bd,2020-08-10_13h26.28.082,lexical_decision_task_MP,2020.1.3,Win32,60,z,1,0.629,,,,,,,,0.629,1,,,,,,267,NW,"ID",33,pasink,PASINK,z,,,,,,0.007181329,-0.381508079,0,0,0,,0,194,194,266,1,
,,,,,,,,,,,,,,,,,,5f1e827568c1bb862cb9f5bd,2020-08-10_13h26.28.082,lexical_decision_task_MP,2020.1.3,Win32,60,z,1,0.605,,,,,,,,0.605,1,,,,,,463,NW,UN,50,bafent,KISPEL,z,,,,,,0.007181329,-0.381508079,0,0,0,,0,195,195,462,1,
,,,,,,,,,,,,,,,,,,5f1e827568c1bb862cb9f5bd,2020-08-10_13h26.28.082,lexical_decision_task_MP,2020.1.3,Win32,60,z,1,0.551,,,,,,,,0.551,1,,,,,,455,NW,UN,50,broget,TONDLE,z,,,,,,0.007181329,-0.381508079,0,0,0,,0,196,196,454,1,
,,,,,,,,,,,,,,,,,,5f1e827568c1bb862cb9f5bd,2020-08-10_13h26.28.082,lexical_decision_task_MP,2020.1.3,Win32,60,z,0,0.625,,,,,,,,0.625,0,,,,,,87,WORD,"ID",50,filter,FILTER,m,,,,,,0.007181329,-0.381508079,0,0,0,,0,197,197,86,1,
,,,,,,,,,,,,,,,,,,5f1e827568c1bb862cb9f5bd,2020-08-10_13h26.28.082,lexical_decision_task_MP,2020.1.3,Win32,60,z,1,0.694,,,,,,,,0.694,1,,,,,,446,NW,UN,50,gircue,RUNAMO,z,,,,,,0.007181329,-0.381508079,0,0,0,,0,198,198,445,1,
,,,,,,,,,,,,,,,,,,5f1e827568c1bb862cb9f5bd,2020-08-10_13h26.28.082,lexical_decision_task_MP,2020.1.3,Win32,60,m,1,0.584,,,,,,,,0.584,1,,,,,,52,WORD,"ID",33,impose,IMPOSE,m,,,,,,0.007181329,-0.381508079,0,0,0,,0,199,199,51,1,
,,,,,,,,,,,,,,,,,,5f1e827568c1bb862cb9f5bd,2020-08-10_13h26.28.082,lexical_decision_task_MP,2020.1.3,Win32,60,m,1,0.551,,,,,,,,0.551,1,,,,,,180,WORD,UN,33,thrive,SILENT,m,,,,,,0.007181329,-0.381508079,0,0,0,,0,200,200,179,1,
,,,,,,,,,,,,,,,,,,5f1e827568c1bb862cb9f5bd,2020-08-10_13h26.28.082,lexical_decision_task_MP,2020.1.3,Win32,60,m,1,0.687,,,,,,,,0.687,1,,,,,,136,WORD,UN,33,finger,BLEACH,m,,,,,,0.007181329,-0.381508079,0,0,0,,0,201,201,135,1,
,,,,,,,,,,,,,,,,,,5f1e827568c1bb862cb9f5bd,2020-08-10_13h26.28.082,lexical_decision_task_MP,2020.1.3,Win32,60,m,1,0.508,,,,,,,,0.508,1,,,,,,84,WORD,"ID",50,mortal,MORTAL,m,,,,,,0.007181329,-0.381508079,0,0,0,,0,202,202,83,1,
,,,,,,,,,,,,,,,,,,5f1e827568c1bb862cb9f5bd,2020-08-10_13h26.28.082,lexical_decision_task_MP,2020.1.3,Win32,60,m,0,0.614,,,,,,,,0.614,0,,,,,,265,NW,"ID",33,distar,DISTAR,z,,,,,,0.007181329,-0.381508079,0,0,0,,0,203,203,264,1,
,,,,,,,,,,,,,,,,,,5f1e827568c1bb862cb9f5bd,2020-08-10_13h26.28.082,lexical_decision_task_MP,2020.1.3,Win32,60,m,1,0.717,,,,,,,,0.717,1,,,,,,75,WORD,"ID",50,trophy,TROPHY,m,,,,,,0.007181329,-0.381508079,0,0,0,,0,204,204,74,1,
,,,,,,,,,,,,,,,,,,5f1e827568c1bb862cb9f5bd,2020-08-10_13h26.28.082,lexical_decision_task_MP,2020.1.3,Win32,60,z,1,0.71,,,,,,,,0.71,1,,,,,,371,NW,UN,33,ramily,GEILOY,z,,,,,,0.007181329,-0.381508079,0,0,0,,0,205,205,370,1,
,,,,,,,,,,,,,,,,,,5f1e827568c1bb862cb9f5bd,2020-08-10_13h26.28.082,lexical_decision_task_MP,2020.1.3,Win32,60,m,1,0.881,,,,,,,,0.881,1,,,,,,18,WORD,"ID",33,humble,HUMBLE,m,,,,,,0.007181329,-0.381508079,0,0,0,,0,206,206,17,1,
,,,,,,,,,,,,,,,,,,5f1e827568c1bb862cb9f5bd,2020-08-10_13h26.28.082,lexical_decision_task_MP,2020.1.3,Win32,60,m,1,0.753,,,,,,,,0.753,1,,,,,,1,WORD,"ID",33,fright,FRIGHT,m,,,,,,0.007181329,-0.381508079,0,0,0,,0,207,207,0,1,
,,,,,,,,,,,,,,,,,,5f1e827568c1bb862cb9f5bd,2020-08-10_13h26.28.082,lexical_decision_task_MP,2020.1.3,Win32,60,z,1,0.643,,,,,,,,0.643,1,,,,,,378,NW,UN,33,auting,SHRILE,z,,,,,,0.007181329,-0.381508079,0,0,0,,0,208,208,377,1,
,,,,,,,,,,,,,,,,,,5f1e827568c1bb862cb9f5bd,2020-08-10_13h26.28.082,lexical_decision_task_MP,2020.1.3,Win32,60,z,1,0.677,,,,,,,,0.677,1,,,,,,435,NW,UN,50,frutan,IMPURB,z,,,,,,0.007181329,-0.381508079,0,0,0,,0,209,209,434,1,
,,,,,,,,,,,,,,,,,,5f1e827568c1bb862cb9f5bd,2020-08-10_13h26.28.082,lexical_decision_task_MP,2020.1.3,Win32,60,m,1,0.591,,,,,,,,0.591,1,,,,,,95,WORD,"ID",50,thread,THREAD,m,,,,,,0.007181329,-0.381508079,0,0,0,,0,210,210,94,1,
,,,,,,,,,,,,,,,,,,5f1e827568c1bb862cb9f5bd,2020-08-10_13h26.28.082,lexical_decision_task_MP,2020.1.3,Win32,60,m,1,0.499,,,,,,,,0.499,1,,,,,,67,WORD,"ID",50,policy,POLICY,m,,,,,,0.007181329,-0.381508079,0,0,0,,0,211,211,66,1,
,,,,,,,,,,,,,,,,,,5f1e827568c1bb862cb9f5bd,2020-08-10_13h26.28.082,lexical_decision_task_MP,2020.1.3,Win32,60,m,1,0.544,,,,,,,,0.544,1,,,,,,30,WORD,"ID",33,orient,ORIENT,m,,,,,,0.007181329,-0.381508079,0,0,0,,0,212,212,29,1,
,,,,,,,,,,,,,,,,,,5f1e827568c1bb862cb9f5bd,2020-08-10_13h26.28.082,lexical_decision_task_MP,2020.1.3,Win32,60,m,1,0.76,,,,,,,,0.76,1,,,,,,179,WORD,UN,33,silent,BASKET,m,,,,,,0.007181329,-0.381508079,0,0,0,,0,213,213,178,1,
,,,,,,,,,,,,,,,,,,5f1e827568c1bb862cb9f5bd,2020-08-10_13h26.28.082,lexical_decision_task_MP,2020.1.3,Win32,60,m,1,0.603,,,,,,,,0.603,1,,,,,,187,WORD,UN,50,social,COURSE,m,,,,,,0.007181329,-0.381508079,0,0,0,,0,214,214,186,1,
,,,,,,,,,,,,,,,,,,5f1e827568c1bb862cb9f5bd,2020-08-10_13h26.28.082,lexical_decision_task_MP,2020.1.3,Win32,60,z,1,0.592,,,,,,,,0.592,1,,,,,,468,NW,UN,50,padifs,WICTOR,z,,,,,,0.007181329,-0.381508079,0,0,0,,0,215,215,467,1,
,,,,,,,,,,,,,,,,,,5f1e827568c1bb862cb9f5bd,2020-08-10_13h26.28.082,lexical_decision_task_MP,2020.1.3,Win32,60,z,0,0.686,,,,,,,,0.686,0,,,,,,170,WORD,UN,33,depart,POUNCE,m,,,,,,0.007181329,-0.381508079,0,0,0,,0,216,216,169,1,
,,,,,,,,,,,,,,,,,,5f1e827568c1bb862cb9f5bd,2020-08-10_13h26.28.082,lexical_decision_task_MP,2020.1.3,Win32,60,z,1,0.706,,,,,,,,0.706,1,,,,,,458,NW,UN,50,chaite,BARCET,z,,,,,,0.007181329,-0.381508079,0,0,0,,0,217,217,457,1,
,,,,,,,,,,,,,,,,,,5f1e827568c1bb862cb9f5bd,2020-08-10_13h26.28.082,lexical_decision_task_MP,2020.1.3,Win32,60,m,1,0.556,,,,,,,,0.556,1,,,,,,104,WORD,"ID",50,studio,STUDIO,m,,,,,,0.007181329,-0.381508079,0,0,0,,0,218,218,103,1,
,,,,,,,,,,,,,,,,,,5f1e827568c1bb862cb9f5bd,2020-08-10_13h26.28.082,lexical_decision_task_MP,2020.1.3,Win32,60,m,1,0.541,,,,,,,,0.541,1,,,,,,39,WORD,"ID",33,insect,INSECT,m,,,,,,0.007181329,-0.381508079,0,0,0,,0,219,219,38,1,
,,,,,,,,,,,,,,,,,,5f1e827568c1bb862cb9f5bd,2020-08-10_13h26.28.082,lexical_decision_task_MP,2020.1.3,Win32,60,m,1,0.811,,,,,,,,0.811,1,,,,,,112,WORD,"ID",50,breath,BREATH,m,,,,,,0.007181329,-0.381508079,0,0,0,,0,220,220,111,1,
,,,,,,,,,,,,,,,,,,5f1e827568c1bb862cb9f5bd,2020-08-10_13h26.28.082,lexical_decision_task_MP,2020.1.3,Win32,60,z,1,0.707,,,,,,,,0.707,1,,,,,,382,NW,UN,33,aungre,SARLEY,z,,,,,,0.007181329,-0.381508079,0,0,0,,0,221,221,381,1,
,,,,,,,,,,,,,,,,,,5f1e827568c1bb862cb9f5bd,2020-08-10_13h26.28.082,lexical_decision_task_MP,2020.1.3,Win32,60,z,1,0.624,,,,,,,,0.624,1,,,,,,271,NW,"ID",33,aubrid,AUBRID,z,,,,,,0.007181329,-0.381508079,0,0,0,,0,222,222,270,1,
,,,,,,,,,,,,,,,,,,5f1e827568c1bb862cb9f5bd,2020-08-10_13h26.28.082,lexical_decision_task_MP,2020.1.3,Win32,60,m,1,0.542,,,,,,,,0.542,1,,,,,,229,WORD,UN,50,fringe,MOTHER,m,,,,,,0.007181329,-0.381508079,0,0,0,,0,223,223,228,1,
,,,,,,,,,,,,,,,,,,5f1e827568c1bb862cb9f5bd,2020-08-10_13h26.28.082,lexical_decision_task_MP,2020.1.3,Win32,60,z,1,0.564,,,,,,,,0.564,1,,,,,,451,NW,UN,50,surden,CAINKY,z,,,,,,0.007181329,-0.381508079,0,0,0,,0,224,224,450,1,
,,,,,,,,,,,,,,,,,,5f1e827568c1bb862cb9f5bd,2020-08-10_13h26.28.082,lexical_decision_task_MP,2020.1.3,Win32,60,z,1,0.854,,,,,,,,0.854,1,,,,,,418,NW,UN,33,slount,SUIDLE,z,,,,,,0.007181329,-0.381508079,0,0,0,,0,225,225,417,1,
,,,,,,,,,,,,,,,,,,5f1e827568c1bb862cb9f5bd,2020-08-10_13h26.28.082,lexical_decision_task_MP,2020.1.3,Win32,60,z,1,0.658,,,,,,,,0.658,1,,,,,,372,NW,UN,33,bigent,RAMILY,z,,,,,,0.007181329,-0.381508079,0,0,0,,0,226,226,371,1,
,,,,,,,,,,,,,,,,,,5f1e827568c1bb862cb9f5bd,2020-08-10_13h26.28.082,lexical_decision_task_MP,2020.1.3,Win32,60,m,1,0.719,,,,,,,,0.719,1,,,,,,65,WORD,"ID",50,symbol,SYMBOL,m,,,,,,0.007181329,-0.381508079,0,0,0,,0,227,227,64,1,
,,,,,,,,,,,,,,,,,,5f1e827568c1bb862cb9f5bd,2020-08-10_13h26.28.082,lexical_decision_task_MP,2020.1.3,Win32,60,m,1,0.564,,,,,,,,0.564,1,,,,,,62,WORD,"ID",50,region,REGION,m,,,,,,0.007181329,-0.381508079,0,0,0,,0,228,228,61,1,
,,,,,,,,,,,,,,,,,,5f1e827568c1bb862cb9f5bd,2020-08-10_13h26.28.082,lexical_decision_task_MP,2020.1.3,Win32,60,z,1,0.645,,,,,,,,0.645,1,,,,,,282,NW,"ID",33,porlex,PORLEX,z,,,,,,0.007181329,-0.381508079,0,0,0,,0,229,229,281,1,
,,,,,,,,,,,,,,,,,,5f1e827568c1bb862cb9f5bd,2020-08-10_13h26.28.082,lexical_decision_task_MP,2020.1.3,Win32,60,z,1,0.551,,,,,,,,0.551,1,,,,,,465,NW,UN,50,hocite,WHIVEX,z,,,,,,0.007181329,-0.381508079,0,0,0,,0,230,230,464,1,
,,,,,,,,,,,,,,,,,,5f1e827568c1bb862cb9f5bd,2020-08-10_13h26.28.082,lexical_decision_task_MP,2020.1.3,Win32,60,z,1,0.643,,,,,,,,0.643,1,,,,,,261,NW,"ID",33,stunch,STUNCH,z,,,,,,0.007181329,-0.381508079,0,0,0,,0,231,231,260,1,
,,,,,,,,,,,,,,,,,,5f1e827568c1bb862cb9f5bd,2020-08-10_13h26.28.082,lexical_decision_task_MP,2020.1.3,Win32,60,m,1,0.562,,,,,,,,0.562,1,,,,,,132,WORD,UN,33,bleach,STRONG,m,,,,,,0.007181329,-0.381508079,0,0,0,,0,232,232,131,1,
,,,,,,,,,,,,,,,,,,5f1e827568c1bb862cb9f5bd,2020-08-10_13h26.28.082,lexical_decision_task_MP,2020.1.3,Win32,60,z,1,0.688,,,,,,,,0.688,1,,,,,,460,NW,UN,50,justre,MINGAR,z,,,,,,0.007181329,-0.381508079,0,0,0,,0,233,233,459,1,
,,,,,,,,,,,,,,,,,,5f1e827568c1bb862cb9f5bd,2020-08-10_13h26.28.082,lexical_decision_task_MP,2020.1.3,Win32,60,z,0,0.592,,,,,,,,0.592,0,,,,,,108,WORD,"ID",50,reckon,RECKON,m,,,,,,0.007181329,-0.381508079,0,0,0,,0,234,234,107,1,
,,,,,,,,,,,,,,,,,,5f1e827568c1bb862cb9f5bd,2020-08-10_13h26.28.082,lexical_decision_task_MP,2020.1.3,Win32,60,m,1,0.873,,,,,,,,0.873,1,,,,,,115,WORD,"ID",50,guitar,GUITAR,m,,,,,,0.007181329,-0.381508079,0,0,0,,0,235,235,114,1,
,,,,,,,,,,,,,,,,,,5f1e827568c1bb862cb9f5bd,2020-08-10_13h26.28.082,lexical_decision_task_MP,2020.1.3,Win32,60,z,1,0.836,,,,,,,,0.836,1,,,,,,324,NW,"ID",50,steikh,STEIKH,z,,,,,,0.007181329,-0.381508079,0,0,0,,0,236,236,323,1,
,,,,,,,,,,,,,,,,,,5f1e827568c1bb862cb9f5bd,2020-08-10_13h26.28.082,lexical_decision_task_MP,2020.1.3,Win32,60,z,0,0.582,,,,,,,,0.582,0,,,,,,212,WORD,UN,50,squeal,VERIFY,m,,,,,,0.007181329,-0.381508079,0,0,0,,0,237,237,211,1,
,,,,,,,,,,,,,,,,,,5f1e827568c1bb862cb9f5bd,2020-08-10_13h26.28.082,lexical_decision_task_MP,2020.1.3,Win32,60,m,1,0.647,,,,,,,,0.647,1,,,,,,129,WORD,UN,33,stupid,MARVEL,m,,,,,,0.007181329,-0.381508079,0,0,0,,0,238,238,128,1,
,,,,,,,,,,,,,,,,,,5f1e827568c1bb862cb9f5bd,2020-08-10_13h26.28.082,lexical_decision_task_MP,2020.1.3,Win32,60,m,1,0.706,,,,,,,,0.706,1,,,,,,156,WORD,UN,33,pastor,CRADLE,m,,,,,,0.007181329,-0.381508079,0,0,0,,0,239,239,155,1,
,,,,,,,,,,,,,,,,,,5f1e827568c1bb862cb9f5bd,2020-08-10_13h26.28.082,lexical_decision_task_MP,2020.1.3,Win32,60,z,1,0.644,,,,,,,,0.644,1,,,,,,349,NW,"ID",50,asylen,ASYLEN,z,,,,,,0.007181329,-0.381508079,0,0,0,,0,240,240,348,1,
,,,,,,,,,,,,,,,,,,5f1e827568c1bb862cb9f5bd,2020-08-10_13h26.28.082,lexical_decision_task_MP,2020.1.3,Win32,60,z,0,1.436,,,,,,,,1.436,0,,,,,,151,WORD,UN,33,rocket,MYSTIC,m,,,,,,0.007181329,-0.381508079,0,0,0,space,0,241,241,150,1,2.821
,,,,,,,,,,,,,,,,,,5f1e827568c1bb862cb9f5bd,2020-08-10_13h26.28.082,lexical_decision_task_MP,2020.1.3,Win32,60,z,1,0.712,,,,,,,,0.712,1,,,,,,388,NW,UN,33,witmer,CRAGIN,z,,,,,,0.007181329,-0.381508079,0,0,0,,0,242,242,387,1,
,,,,,,,,,,,,,,,,,,5f1e827568c1bb862cb9f5bd,2020-08-10_13h26.28.082,lexical_decision_task_MP,2020.1.3,Win32,60,z,1,0.839,,,,,,,,0.839,1,,,,,,318,NW,"ID",50,reagly,REAGLY,z,,,,,,0.007181329,-0.381508079,0,0,0,,0,243,243,317,1,
,,,,,,,,,,,,,,,,,,5f1e827568c1bb862cb9f5bd,2020-08-10_13h26.28.082,lexical_decision_task_MP,2020.1.3,Win32,60,z,1,0.709,,,,,,,,0.709,1,,,,,,414,NW,UN,33,higsta,SERBOL,z,,,,,,0.007181329,-0.381508079,0,0,0,,0,244,244,413,1,
,,,,,,,,,,,,,,,,,,5f1e827568c1bb862cb9f5bd,2020-08-10_13h26.28.082,lexical_decision_task_MP,2020.1.3,Win32,60,m,1,0.627,,,,,,,,0.627,1,,,,,,11,WORD,"ID",33,cruise,CRUISE,m,,,,,,0.007181329,-0.381508079,0,0,0,,0,245,245,10,1,
,,,,,,,,,,,,,,,,,,5f1e827568c1bb862cb9f5bd,2020-08-10_13h26.28.082,lexical_decision_task_MP,2020.1.3,Win32,60,z,1,0.586,,,,,,,,0.586,1,,,,,,392,NW,UN,33,ganous,ROUNCY,z,,,,,,0.007181329,-0.381508079,0,0,0,,0,246,246,391,1,
,,,,,,,,,,,,,,,,,,5f1e827568c1bb862cb9f5bd,2020-08-10_13h26.28.082,lexical_decision_task_MP,2020.1.3,Win32,60,z,1,0.855,,,,,,,,0.855,1,,,,,,475,NW,UN,50,robuly,PEBRIC,z,,,,,,0.007181329,-0.381508079,0,0,0,,0,247,247,474,1,
,,,,,,,,,,,,,,,,,,5f1e827568c1bb862cb9f5bd,2020-08-10_13h26.28.082,lexical_decision_task_MP,2020.1.3,Win32,60,z,1,0.685,,,,,,,,0.685,1,,,,,,245,NW,"ID",33,anougs,ANOUGS,z,,,,,,0.007181329,-0.381508079,0,0,0,,0,248,248,244,1,
,,,,,,,,,,,,,,,,,,5f1e827568c1bb862cb9f5bd,2020-08-10_13h26.28.082,lexical_decision_task_MP,2020.1.3,Win32,60,z,1,0.648,,,,,,,,0.648,1,,,,,,301,NW,"ID",50,fainch,FAINCH,z,,,,,,0.007181329,-0.381508079,0,0,0,,0,249,249,300,1,
,,,,,,,,,,,,,,,,,,5f1e827568c1bb862cb9f5bd,2020-08-10_13h26.28.082,lexical_decision_task_MP,2020.1.3,Win32,60,z,1,0.542,,,,,,,,0.542,1,,,,,,251,NW,"ID",33,lupict,LUPICT,z,,,,,,0.007181329,-0.381508079,0,0,0,,0,250,250,250,1,
,,,,,,,,,,,,,,,,,,5f1e827568c1bb862cb9f5bd,2020-08-10_13h26.28.082,lexical_decision_task_MP,2020.1.3,Win32,60,m,1,0.608,,,,,,,,0.608,1,,,,,,221,WORD,UN,50,hinder,MASCOT,m,,,,,,0.007181329,-0.381508079,0,0,0,,0,251,251,220,1,
,,,,,,,,,,,,,,,,,,5f1e827568c1bb862cb9f5bd,2020-08-10_13h26.28.082,lexical_decision_task_MP,2020.1.3,Win32,60,z,1,0.866,,,,,,,,0.866,1,,,,,,248,NW,"ID",33,strole,STROLE,z,,,,,,0.007181329,-0.381508079,0,0,0,,0,252,252,247,1,
,,,,,,,,,,,,,,,,,,5f1e827568c1bb862cb9f5bd,2020-08-10_13h26.28.082,lexical_decision_task_MP,2020.1.3,Win32,60,z,0,0.646,,,,,,,,0.646,0,,,,,,145,WORD,UN,33,couple,PARISH,m,,,,,,0.007181329,-0.381508079,0,0,0,,0,253,253,144,1,
,,,,,,,,,,,,,,,,,,5f1e827568c1bb862cb9f5bd,2020-08-10_13h26.28.082,lexical_decision_task_MP,2020.1.3,Win32,60,z,1,1.56,,,,,,,,1.56,1,,,,,,284,NW,"ID",33,shaple,SHAPLE,z,,,,,,0.007181329,-0.381508079,0,0,0,,0,254,254,283,1,
,,,,,,,,,,,,,,,,,,5f1e827568c1bb862cb9f5bd,2020-08-10_13h26.28.082,lexical_decision_task_MP,2020.1.3,Win32,60,z,0,0.561,,,,,,,,0.561,0,,,,,,204,WORD,UN,50,lounge,BURDEN,m,,,,,,0.007181329,-0.381508079,0,0,0,,0,255,255,203,1,
,,,,,,,,,,,,,,,,,,5f1e827568c1bb862cb9f5bd,2020-08-10_13h26.28.082,lexical_decision_task_MP,2020.1.3,Win32,60,z,0,0.834,,,,,,,,0.834,0,,,,,,239,WORD,UN,50,forest,LUMBER,m,,,,,,0.007181329,-0.381508079,0,0,0,,0,256,256,238,1,
,,,,,,,,,,,,,,,,,,5f1e827568c1bb862cb9f5bd,2020-08-10_13h26.28.082,lexical_decision_task_MP,2020.1.3,Win32,60,z,1,0.665,,,,,,,,0.665,1,,,,,,357,NW,"ID",50,derain,DERAIN,z,,,,,,0.007181329,-0.381508079,0,0,0,,0,257,257,356,1,
,,,,,,,,,,,,,,,,,,5f1e827568c1bb862cb9f5bd,2020-08-10_13h26.28.082,lexical_decision_task_MP,2020.1.3,Win32,60,m,0,0.672,,,,,,,,0.672,0,,,,,,352,NW,"ID",50,tringe,TRINGE,z,,,,,,0.007181329,-0.381508079,0,0,0,,0,258,258,351,1,
,,,,,,,,,,,,,,,,,,5f1e827568c1bb862cb9f5bd,2020-08-10_13h26.28.082,lexical_decision_task_MP,2020.1.3,Win32,60,z,0,0.708,,,,,,,,0.708,0,,,,,,16,WORD,"ID",33,faucet,FAUCET,m,,,,,,0.007181329,-0.381508079,0,0,0,,0,259,259,15,1,
,,,,,,,,,,,,,,,,,,5f1e827568c1bb862cb9f5bd,2020-08-10_13h26.28.082,lexical_decision_task_MP,2020.1.3,Win32,60,m,1,0.727,,,,,,,,0.727,1,,,,,,2,WORD,"ID",33,bridge,BRIDGE,m,,,,,,0.007181329,-0.381508079,0,0,0,,0,260,260,1,1,
,,,,,,,,,,,,,,,,,,5f1e827568c1bb862cb9f5bd,2020-08-10_13h26.28.082,lexical_decision_task_MP,2020.1.3,Win32,60,m,1,0.606,,,,,,,,0.606,1,,,,,,3,WORD,"ID",33,knight,KNIGHT,m,,,,,,0.007181329,-0.381508079,0,0,0,,0,261,261,2,1,
,,,,,,,,,,,,,,,,,,5f1e827568c1bb862cb9f5bd,2020-08-10_13h26.28.082,lexical_decision_task_MP,2020.1.3,Win32,60,z,1,0.658,,,,,,,,0.658,1,,,,,,453,NW,UN,50,scouge,BOLVIS,z,,,,,,0.007181329,-0.381508079,0,0,0,,0,262,262,452,1,
,,,,,,,,,,,,,,,,,,5f1e827568c1bb862cb9f5bd,2020-08-10_13h26.28.082,lexical_decision_task_MP,2020.1.3,Win32,60,z,1,0.618,,,,,,,,0.618,1,,,,,,381,NW,UN,33,sarley,HUNIEK,z,,,,,,0.007181329,-0.381508079,0,0,0,,0,263,263,380,1,
,,,,,,,,,,,,,,,,,,5f1e827568c1bb862cb9f5bd,2020-08-10_13h26.28.082,lexical_decision_task_MP,2020.1.3,Win32,60,z,1,0.606,,,,,,,,0.606,1,,,,,,479,NW,UN,50,josted,LOBUSH,z,,,,,,0.007181329,-0.381508079,0,0,0,,0,264,264,478,1,
,,,,,,,,,,,,,,,,,,5f1e827568c1bb862cb9f5bd,2020-08-10_13h26.28.082,lexical_decision_task_MP,2020.1.3,Win32,60,m,1,0.812,,,,,,,,0.812,1,,,,,,216,WORD,UN,50,liquor,BEHALF,m,,,,,,0.007181329,-0.381508079,0,0,0,,0,265,265,215,1,
,,,,,,,,,,,,,,,,,,5f1e827568c1bb862cb9f5bd,2020-08-10_13h26.28.082,lexical_decision_task_MP,2020.1.3,Win32,60,z,1,0.615,,,,,,,,0.615,1,,,,,,410,NW,UN,33,orchin,TUNORY,z,,,,,,0.007181329,-0.381508079,0,0,0,,0,266,266,409,1,
,,,,,,,,,,,,,,,,,,5f1e827568c1bb862cb9f5bd,2020-08-10_13h26.28.082,lexical_decision_task_MP,2020.1.3,Win32,60,z,1,1.366,,,,,,,,1.366,1,,,,,,464,NW,UN,50,whivex,CHAITE,z,,,,,,0.007181329,-0.381508079,0,0,0,,0,267,267,463,1,
,,,,,,,,,,,,,,,,,,5f1e827568c1bb862cb9f5bd,2020-08-10_13h26.28.082,lexical_decision_task_MP,2020.1.3,Win32,60,m,1,0.731,,,,,,,,0.731,1,,,,,,79,WORD,"ID",50,theory,THEORY,m,,,,,,0.007181329,-0.381508079,0,0,0,,0,268,268,78,1,
,,,,,,,,,,,,,,,,,,5f1e827568c1bb862cb9f5bd,2020-08-10_13h26.28.082,lexical_decision_task_MP,2020.1.3,Win32,60,m,1,0.76,,,,,,,,0.76,1,,,,,,51,WORD,"ID",33,hungry,HUNGRY,m,,,,,,0.007181329,-0.381508079,0,0,0,,0,269,269,50,1,
,,,,,,,,,,,,,,,,,,5f1e827568c1bb862cb9f5bd,2020-08-10_13h26.28.082,lexical_decision_task_MP,2020.1.3,Win32,60,z,1,0.657,,,,,,,,0.657,1,,,,,,444,NW,UN,50,minkel,JAUNCE,z,,,,,,0.007181329,-0.381508079,0,0,0,,0,270,270,443,1,
,,,,,,,,,,,,,,,,,,5f1e827568c1bb862cb9f5bd,2020-08-10_13h26.28.082,lexical_decision_task_MP,2020.1.3,Win32,60,z,0,0.574,,,,,,,,0.574,0,,,,,,205,WORD,UN,50,tailor,LOUNGE,m,,,,,,0.007181329,-0.381508079,0,0,0,,0,271,271,204,1,
,,,,,,,,,,,,,,,,,,5f1e827568c1bb862cb9f5bd,2020-08-10_13h26.28.082,lexical_decision_task_MP,2020.1.3,Win32,60,z,1,0.979,,,,,,,,0.979,1,,,,,,337,NW,"ID",50,rejols,REJOLS,z,,,,,,0.007181329,-0.381508079,0,0,0,,0,272,272,336,1,
,,,,,,,,,,,,,,,,,,5f1e827568c1bb862cb9f5bd,2020-08-10_13h26.28.082,lexical_decision_task_MP,2020.1.3,Win32,60,z,1,0.612,,,,,,,,0.612,1,,,,,,478,NW,UN,50,lobush,ACRISE,z,,,,,,0.007181329,-0.381508079,0,0,0,,0,273,273,477,1,
,,,,,,,,,,,,,,,,,,5f1e827568c1bb862cb9f5bd,2020-08-10_13h26.28.082,lexical_decision_task_MP,2020.1.3,Win32,60,z,1,0.657,,,,,,,,0.657,1,,,,,,312,NW,"ID",50,nerawl,NERAWL,z,,,,,,0.007181329,-0.381508079,0,0,0,,0,274,274,311,1,
,,,,,,,,,,,,,,,,,,5f1e827568c1bb862cb9f5bd,2020-08-10_13h26.28.082,lexical_decision_task_MP,2020.1.3,Win32,60,m,1,0.548,,,,,,,,0.548,1,,,,,,55,WORD,"ID",33,stroke,STROKE,m,,,,,,0.007181329,-0.381508079,0,0,0,,0,275,275,54,1,
,,,,,,,,,,,,,,,,,,5f1e827568c1bb862cb9f5bd,2020-08-10_13h26.28.082,lexical_decision_task_MP,2020.1.3,Win32,60,z,1,0.544,,,,,,,,0.544,1,,,,,,276,NW,"ID",33,yarmon,YARMON,z,,,,,,0.007181329,-0.381508079,0,0,0,,0,276,276,275,1,
,,,,,,,,,,,,,,,,,,5f1e827568c1bb862cb9f5bd,2020-08-10_13h26.28.082,lexical_decision_task_MP,2020.1.3,Win32,60,m,1,0.688,,,,,,,,0.688,1,,,,,,50,WORD,"ID",33,snatch,SNATCH,m,,,,,,0.007181329,-0.381508079,0,0,0,,0,277,277,49,1,
,,,,,,,,,,,,,,,,,,5f1e827568c1bb862cb9f5bd,2020-08-10_13h26.28.082,lexical_decision_task_MP,2020.1.3,Win32,60,m,1,0.865,,,,,,,,0.865,1,,,,,,224,WORD,UN,50,vulgar,PERIOD,m,,,,,,0.007181329,-0.381508079,0,0,0,,0,278,278,223,1,
,,,,,,,,,,,,,,,,,,5f1e827568c1bb862cb9f5bd,2020-08-10_13h26.28.082,lexical_decision_task_MP,2020.1.3,Win32,60,m,1,1.229,,,,,,,,1.229,1,,,,,,58,WORD,"ID",33,foster,FOSTER,m,,,,,,0.007181329,-0.381508079,0,0,0,,0,279,279,57,1,
,,,,,,,,,,,,,,,,,,5f1e827568c1bb862cb9f5bd,2020-08-10_13h26.28.082,lexical_decision_task_MP,2020.1.3,Win32,60,m,1,1.21,,,,,,,,1.21,1,,,,,,123,WORD,UN,33,enough,STRIKE,m,,,,,,-0.028725314,-0.349192101,0,0,0,,0,280,280,122,1,
,,,,,,,,,,,,,,,,,,5f1e827568c1bb862cb9f5bd,2020-08-10_13h26.28.082,lexical_decision_task_MP,2020.1.3,Win32,60,m,0,0.764,,,,,,,,0.764,0,,,,,,473,NW,UN,50,hablin,CRIBLE,z,,,,,,-0.671454219,-0.498204668,0,0,0,,0,281,281,472,1,
,,,,,,,,,,,,,,,,,,5f1e827568c1bb862cb9f5bd,2020-08-10_13h26.28.082,lexical_decision_task_MP,2020.1.3,Win32,60,,0,,,,,,,,,0.764,-1,,,,,,147,WORD,UN,33,custom,GARLIC,m,,,,,,-0.671454219,-0.498204668,0,0,0,,0,282,282,146,1,
,,,,,,,,,,,,,,,,,,5f1e827568c1bb862cb9f5bd,2020-08-10_13h26.28.082,lexical_decision_task_MP,2020.1.3,Win32,60,,0,,,,,,,,,0.764,-1,,,,,,474,NW,UN,50,gorbie,HABLIN,z,,,,,,0.0502693,-0.185816876,0,0,0,,0,283,283,473,1,
,,,,,,,,,,,,,,,,,,5f1e827568c1bb862cb9f5bd,2020-08-10_13h26.28.082,lexical_decision_task_MP,2020.1.3,Win32,60,m,0,1.062,,,,,,,,1.062,0,,,,,,308,NW,"ID",50,psetch,PSETCH,z,,,,,,0.0502693,-0.185816876,0,0,0,,0,284,284,307,1,
,,,,,,,,,,,,,,,,,,5f1e827568c1bb862cb9f5bd,2020-08-10_13h26.28.082,lexical_decision_task_MP,2020.1.3,Win32,60,z,1,0.821,,,,,,,,0.821,1,,,,,,242,NW,"ID",33,unwert,UNWERT,z,,,,,,0.0502693,-0.185816876,0,0,0,,0,285,285,241,1,
,,,,,,,,,,,,,,,,,,5f1e827568c1bb862cb9f5bd,2020-08-10_13h26.28.082,lexical_decision_task_MP,2020.1.3,Win32,60,z,0,0.614,,,,,,,,0.614,0,,,,,,154,WORD,UN,33,lizard,AUTHOR,m,,,,,,0.0502693,-0.185816876,0,0,0,,0,286,286,153,1,
,,,,,,,,,,,,,,,,,,5f1e827568c1bb862cb9f5bd,2020-08-10_13h26.28.082,lexical_decision_task_MP,2020.1.3,Win32,60,z,0,0.72,,,,,,,,0.72,0,,,,,,144,WORD,UN,33,parish,SPONGE,m,,,,,,0.0502693,-0.185816876,0,0,0,,0,287,287,143,1,
,,,,,,,,,,,,,,,,,,5f1e827568c1bb862cb9f5bd,2020-08-10_13h26.28.082,lexical_decision_task_MP,2020.1.3,Win32,60,z,1,0.757,,,,,,,,0.757,1,,,,,,287,NW,"ID",33,nymbel,NYMBEL,z,,,,,,0.0502693,-0.185816876,0,0,0,,0,288,288,286,1,
,,,,,,,,,,,,,,,,,,5f1e827568c1bb862cb9f5bd,2020-08-10_13h26.28.082,lexical_decision_task_MP,2020.1.3,Win32,60,z,0,0.866,,,,,,,,0.866,0,,,,,,131,WORD,UN,33,strong,QUENCH,m,,,,,,0.0502693,-0.185816876,0,0,0,,0,289,289,130,1,
,,,,,,,,,,,,,,,,,,5f1e827568c1bb862cb9f5bd,2020-08-10_13h26.28.082,lexical_decision_task_MP,2020.1.3,Win32,60,m,0,0.59,,,,,,,,0.59,0,,,,,,364,NW,UN,33,guairt,IMPOTE,z,,,,,,0.0502693,-0.185816876,0,0,0,,0,290,290,363,1,
,,,,,,,,,,,,,,,,,,5f1e827568c1bb862cb9f5bd,2020-08-10_13h26.28.082,lexical_decision_task_MP,2020.1.3,Win32,60,m,1,0.72,,,,,,,,0.72,1,,,,,,100,WORD,"ID",50,carbon,CARBON,m,,,,,,0.0502693,-0.185816876,0,0,0,,0,291,291,99,1,
,,,,,,,,,,,,,,,,,,5f1e827568c1bb862cb9f5bd,2020-08-10_13h26.28.082,lexical_decision_task_MP,2020.1.3,Win32,60,m,1,0.676,,,,,,,,0.676,1,,,,,,19,WORD,"ID",33,patron,PATRON,m,,,,,,0.0502693,-0.185816876,0,0,0,,0,292,292,18,1,
,,,,,,,,,,,,,,,,,,5f1e827568c1bb862cb9f5bd,2020-08-10_13h26.28.082,lexical_decision_task_MP,2020.1.3,Win32,60,z,0,0.781,,,,,,,,0.781,0,,,,,,142,WORD,UN,33,orphan,SPRUCE,m,,,,,,0.0502693,-0.185816876,0,0,0,,0,293,293,141,1,
,,,,,,,,,,,,,,,,,,5f1e827568c1bb862cb9f5bd,2020-08-10_13h26.28.082,lexical_decision_task_MP,2020.1.3,Win32,60,m,1,0.602,,,,,,,,0.602,1,,,,,,240,WORD,UN,50,glance,FOREST,m,,,,,,0.0502693,-0.185816876,0,0,0,,0,294,294,239,1,
,,,,,,,,,,,,,,,,,,5f1e827568c1bb862cb9f5bd,2020-08-10_13h26.28.082,lexical_decision_task_MP,2020.1.3,Win32,60,z,1,0.673,,,,,,,,0.673,1,,,,,,327,NW,"ID",50,plenac,PLENAC,z,,,,,,0.0502693,-0.185816876,0,0,0,,0,295,295,326,1,
,,,,,,,,,,,,,,,,,,5f1e827568c1bb862cb9f5bd,2020-08-10_13h26.28.082,lexical_decision_task_MP,2020.1.3,Win32,60,z,1,0.693,,,,,,,,0.693,1,,,,,,247,NW,"ID",33,blarge,BLARGE,z,,,,,,0.0502693,-0.185816876,0,0,0,,0,296,296,246,1,
,,,,,,,,,,,,,,,,,,5f1e827568c1bb862cb9f5bd,2020-08-10_13h26.28.082,lexical_decision_task_MP,2020.1.3,Win32,60,z,1,0.592,,,,,,,,0.592,1,,,,,,344,NW,"ID",50,scrily,SCRILY,z,,,,,,0.0502693,-0.185816876,0,0,0,,0,297,297,343,1,
,,,,,,,,,,,,,,,,,,5f1e827568c1bb862cb9f5bd,2020-08-10_13h26.28.082,lexical_decision_task_MP,2020.1.3,Win32,60,m,1,0.987,,,,,,,,0.987,1,,,,,,141,WORD,UN,33,spruce,ORPHAN,m,,,,,,0.0502693,-0.185816876,0,0,0,,0,298,298,140,1,
,,,,,,,,,,,,,,,,,,5f1e827568c1bb862cb9f5bd,2020-08-10_13h26.28.082,lexical_decision_task_MP,2020.1.3,Win32,60,z,0,0.791,,,,,,,,0.791,0,,,,,,61,WORD,"ID",50,ponder,PONDER,m,,,,,,0.0502693,-0.185816876,0,0,0,,0,299,299,60,1,
,,,,,,,,,,,,,,,,,,5f1e827568c1bb862cb9f5bd,2020-08-10_13h26.28.082,lexical_decision_task_MP,2020.1.3,Win32,60,z,1,0.874,,,,,,,,0.874,1,,,,,,313,NW,"ID",50,paurse,PAURSE,z,,,,,,0.0502693,-0.185816876,0,0,0,,0,300,300,312,1,
,,,,,,,,,,,,,,,,,,5f1e827568c1bb862cb9f5bd,2020-08-10_13h26.28.082,lexical_decision_task_MP,2020.1.3,Win32,60,m,1,0.563,,,,,,,,0.563,1,,,,,,28,WORD,"ID",33,comedy,COMEDY,m,,,,,,0.0502693,-0.185816876,0,0,0,,0,301,301,27,1,
,,,,,,,,,,,,,,,,,,5f1e827568c1bb862cb9f5bd,2020-08-10_13h26.28.082,lexical_decision_task_MP,2020.1.3,Win32,60,m,1,0.583,,,,,,,,0.583,1,,,,,,37,WORD,"ID",33,insult,INSULT,m,,,,,,0.0502693,-0.185816876,0,0,0,,0,302,302,36,1,
,,,,,,,,,,,,,,,,,,5f1e827568c1bb862cb9f5bd,2020-08-10_13h26.28.082,lexical_decision_task_MP,2020.1.3,Win32,60,z,1,0.843,,,,,,,,0.843,1,,,,,,283,NW,"ID",33,veralf,VERALF,z,,,,,,0.0502693,-0.185816876,0,0,0,,0,303,303,282,1,
,,,,,,,,,,,,,,,,,,5f1e827568c1bb862cb9f5bd,2020-08-10_13h26.28.082,lexical_decision_task_MP,2020.1.3,Win32,60,m,0,0.181,,,,,,,,0.181,0,,,,,,442,NW,UN,50,dorsex,ABOUNE,z,,,,,,0.0502693,-0.185816876,0,0,0,,0,304,304,441,1,
,,,,,,,,,,,,,,,,,,5f1e827568c1bb862cb9f5bd,2020-08-10_13h26.28.082,lexical_decision_task_MP,2020.1.3,Win32,60,z,0,0.629,,,,,,,,0.629,0,,,,,,206,WORD,UN,50,wreath,TAILOR,m,,,,,,0.0502693,-0.185816876,0,0,0,,0,305,305,205,1,
,,,,,,,,,,,,,,,,,,5f1e827568c1bb862cb9f5bd,2020-08-10_13h26.28.082,lexical_decision_task_MP,2020.1.3,Win32,60,z,1,0.592,,,,,,,,0.592,1,,,,,,375,NW,UN,33,iguare,YORQUE,z,,,,,,0.0502693,-0.185816876,0,0,0,,0,306,306,374,1,
,,,,,,,,,,,,,,,,,,5f1e827568c1bb862cb9f5bd,2020-08-10_13h26.28.082,lexical_decision_task_MP,2020.1.3,Win32,60,z,1,0.711,,,,,,,,0.711,1,,,,,,377,NW,UN,33,shrile,INJORE,z,,,,,,0.0502693,-0.185816876,0,0,0,,0,307,307,376,1,
,,,,,,,,,,,,,,,,,,5f1e827568c1bb862cb9f5bd,2020-08-10_13h26.28.082,lexical_decision_task_MP,2020.1.3,Win32,60,z,0,0.571,,,,,,,,0.571,0,,,,,,208,WORD,UN,50,search,HOCKEY,m,,,,,,0.0502693,-0.185816876,0,0,0,,0,308,308,207,1,
,,,,,,,,,,,,,,,,,,5f1e827568c1bb862cb9f5bd,2020-08-10_13h26.28.082,lexical_decision_task_MP,2020.1.3,Win32,60,z,1,0.625,,,,,,,,0.625,1,,,,,,440,NW,UN,50,cainky,SARIDE,z,,,,,,0.0502693,-0.185816876,0,0,0,,0,309,309,439,1,
,,,,,,,,,,,,,,,,,,5f1e827568c1bb862cb9f5bd,2020-08-10_13h26.28.082,lexical_decision_task_MP,2020.1.3,Win32,60,z,0,0.81,,,,,,,,0.81,0,,,,,,199,WORD,UN,50,beacon,INVOKE,m,,,,,,0.0502693,-0.185816876,0,0,0,,0,310,310,198,1,
,,,,,,,,,,,,,,,,,,5f1e827568c1bb862cb9f5bd,2020-08-10_13h26.28.082,lexical_decision_task_MP,2020.1.3,Win32,60,z,1,0.583,,,,,,,,0.583,1,,,,,,365,NW,UN,33,toshel,GUAIRT,z,,,,,,0.0502693,-0.185816876,0,0,0,,0,311,311,364,1,
,,,,,,,,,,,,,,,,,,5f1e827568c1bb862cb9f5bd,2020-08-10_13h26.28.082,lexical_decision_task_MP,2020.1.3,Win32,60,z,1,0.604,,,,,,,,0.604,1,,,,,,413,NW,UN,33,serbol,EQUATS,z,,,,,,0.0502693,-0.185816876,0,0,0,,0,312,312,412,1,
,,,,,,,,,,,,,,,,,,5f1e827568c1bb862cb9f5bd,2020-08-10_13h26.28.082,lexical_decision_task_MP,2020.1.3,Win32,60,z,1,0.591,,,,,,,,0.591,1,,,,,,270,NW,"ID",33,wrimsy,WRIMSY,z,,,,,,0.0502693,-0.185816876,0,0,0,,0,313,313,269,1,
,,,,,,,,,,,,,,,,,,5f1e827568c1bb862cb9f5bd,2020-08-10_13h26.28.082,lexical_decision_task_MP,2020.1.3,Win32,60,m,1,0.533,,,,,,,,0.533,1,,,,,,210,WORD,UN,50,infect,MONKEY,m,,,,,,0.0502693,-0.185816876,0,0,0,,0,314,314,209,1,
,,,,,,,,,,,,,,,,,,5f1e827568c1bb862cb9f5bd,2020-08-10_13h26.28.082,lexical_decision_task_MP,2020.1.3,Win32,60,z,1,1.438,,,,,,,,1.438,1,,,,,,253,NW,"ID",33,resait,RESAIT,z,,,,,,0.0502693,-0.185816876,0,0,0,,0,315,315,252,1,
,,,,,,,,,,,,,,,,,,5f1e827568c1bb862cb9f5bd,2020-08-10_13h26.28.082,lexical_decision_task_MP,2020.1.3,Win32,60,m,1,0.677,,,,,,,,0.677,1,,,,,,60,WORD,"ID",33,pencil,PENCIL,m,,,,,,0.0502693,-0.185816876,0,0,0,,0,316,316,59,1,
,,,,,,,,,,,,,,,,,,5f1e827568c1bb862cb9f5bd,2020-08-10_13h26.28.082,lexical_decision_task_MP,2020.1.3,Win32,60,m,1,0.612,,,,,,,,0.612,1,,,,,,117,WORD,"ID",50,branch,BRANCH,m,,,,,,0.0502693,-0.185816876,0,0,0,,0,317,317,116,1,
,,,,,,,,,,,,,,,,,,5f1e827568c1bb862cb9f5bd,2020-08-10_13h26.28.082,lexical_decision_task_MP,2020.1.3,Win32,60,m,1,0.542,,,,,,,,0.542,1,,,,,,161,WORD,UN,33,candle,PASTOR,m,,,,,,0.0502693,-0.185816876,0,0,0,,0,318,318,160,1,
,,,,,,,,,,,,,,,,,,5f1e827568c1bb862cb9f5bd,2020-08-10_13h26.28.082,lexical_decision_task_MP,2020.1.3,Win32,60,m,1,0.527,,,,,,,,0.527,1,,,,,,91,WORD,"ID",50,expand,EXPAND,m,,,,,,0.0502693,-0.185816876,0,0,0,,0,319,319,90,1,
,,,,,,,,,,,,,,,,,,5f1e827568c1bb862cb9f5bd,2020-08-10_13h26.28.082,lexical_decision_task_MP,2020.1.3,Win32,60,m,0,0.902,,,,,,,,0.902,0,,,,,,291,NW,"ID",33,pretch,PRETCH,z,,,,,,0.0502693,-0.185816876,0,0,0,,0,320,320,290,1,
,,,,,,,,,,,,,,,,,,5f1e827568c1bb862cb9f5bd,2020-08-10_13h26.28.082,lexical_decision_task_MP,2020.1.3,Win32,60,z,1,0.856,,,,,,,,0.856,1,,,,,,360,NW,"ID",50,desory,DESORY,z,,,,,,0.0502693,-0.185816876,0,0,0,,0,321,321,359,1,
,,,,,,,,,,,,,,,,,,5f1e827568c1bb862cb9f5bd,2020-08-10_13h26.28.082,lexical_decision_task_MP,2020.1.3,Win32,60,z,1,0.624,,,,,,,,0.624,1,,,,,,266,NW,"ID",33,varmit,VARMIT,z,,,,,,0.0502693,-0.185816876,0,0,0,,0,322,322,265,1,
,,,,,,,,,,,,,,,,,,5f1e827568c1bb862cb9f5bd,2020-08-10_13h26.28.082,lexical_decision_task_MP,2020.1.3,Win32,60,z,1,0.562,,,,,,,,0.562,1,,,,,,329,NW,"ID",50,yarike,YARIKE,z,,,,,,0.0502693,-0.185816876,0,0,0,,0,323,323,328,1,
,,,,,,,,,,,,,,,,,,5f1e827568c1bb862cb9f5bd,2020-08-10_13h26.28.082,lexical_decision_task_MP,2020.1.3,Win32,60,z,1,0.571,,,,,,,,0.571,1,,,,,,433,NW,UN,50,pitrom,DRANCE,z,,,,,,0.0502693,-0.185816876,0,0,0,,0,324,324,432,1,
,,,,,,,,,,,,,,,,,,5f1e827568c1bb862cb9f5bd,2020-08-10_13h26.28.082,lexical_decision_task_MP,2020.1.3,Win32,60,z,0,0.612,,,,,,,,0.612,0,,,,,,107,WORD,"ID",50,slogan,SLOGAN,m,,,,,,0.0502693,-0.185816876,0,0,0,,0,325,325,106,1,
,,,,,,,,,,,,,,,,,,5f1e827568c1bb862cb9f5bd,2020-08-10_13h26.28.082,lexical_decision_task_MP,2020.1.3,Win32,60,z,1,0.639,,,,,,,,0.639,1,,,,,,262,NW,"ID",33,quilew,QUILEW,z,,,,,,0.0502693,-0.185816876,0,0,0,,0,326,326,261,1,
,,,,,,,,,,,,,,,,,,5f1e827568c1bb862cb9f5bd,2020-08-10_13h26.28.082,lexical_decision_task_MP,2020.1.3,Win32,60,z,1,0.667,,,,,,,,0.667,1,,,,,,264,NW,"ID",33,vackel,VACKEL,z,,,,,,0.0502693,-0.185816876,0,0,0,,0,327,327,263,1,
,,,,,,,,,,,,,,,,,,5f1e827568c1bb862cb9f5bd,2020-08-10_13h26.28.082,lexical_decision_task_MP,2020.1.3,Win32,60,z,1,1.407,,,,,,,,1.407,1,,,,,,316,NW,"ID",50,scregm,SCREGM,z,,,,,,0.0502693,-0.185816876,0,0,0,,0,328,328,315,1,
,,,,,,,,,,,,,,,,,,5f1e827568c1bb862cb9f5bd,2020-08-10_13h26.28.082,lexical_decision_task_MP,2020.1.3,Win32,60,m,1,0.675,,,,,,,,0.675,1,,,,,,10,WORD,"ID",33,ethnic,ETHNIC,m,,,,,,0.0502693,-0.185816876,0,0,0,,0,329,329,9,1,
,,,,,,,,,,,,,,,,,,5f1e827568c1bb862cb9f5bd,2020-08-10_13h26.28.082,lexical_decision_task_MP,2020.1.3,Win32,60,m,1,1.19,,,,,,,,1.19,1,,,,,,230,WORD,UN,50,export,FRINGE,m,,,,,,0.0502693,-0.185816876,0,0,0,,0,330,330,229,1,
,,,,,,,,,,,,,,,,,,5f1e827568c1bb862cb9f5bd,2020-08-10_13h26.28.082,lexical_decision_task_MP,2020.1.3,Win32,60,m,1,0.812,,,,,,,,0.812,1,,,,,,172,WORD,UN,33,shower,PATROL,m,,,,,,0.0502693,-0.185816876,0,0,0,,0,331,331,171,1,
,,,,,,,,,,,,,,,,,,5f1e827568c1bb862cb9f5bd,2020-08-10_13h26.28.082,lexical_decision_task_MP,2020.1.3,Win32,60,z,0,0.959,,,,,,,,0.959,0,,,,,,183,WORD,UN,50,sleazy,MILDEW,m,,,,,,0.0502693,-0.185816876,0,0,0,,0,332,332,182,1,
,,,,,,,,,,,,,,,,,,5f1e827568c1bb862cb9f5bd,2020-08-10_13h26.28.082,lexical_decision_task_MP,2020.1.3,Win32,60,z,0,0.688,,,,,,,,0.688,0,,,,,,167,WORD,UN,33,answer,DESIGN,m,,,,,,0.0502693,-0.185816876,0,0,0,,0,333,333,166,1,
,,,,,,,,,,,,,,,,,,5f1e827568c1bb862cb9f5bd,2020-08-10_13h26.28.082,lexical_decision_task_MP,2020.1.3,Win32,60,m,1,0.543,,,,,,,,0.543,1,,,,,,96,WORD,"ID",50,ignore,IGNORE,m,,,,,,0.0502693,-0.185816876,0,0,0,,0,334,334,95,1,
,,,,,,,,,,,,,,,,,,5f1e827568c1bb862cb9f5bd,2020-08-10_13h26.28.082,lexical_decision_task_MP,2020.1.3,Win32,60,z,1,1,,,,,,,,1,1,,,,,,320,NW,"ID",50,jockal,JOCKAL,z,,,,,,0.0502693,-0.185816876,0,0,0,,0,335,335,319,1,
,,,,,,,,,,,,,,,,,,5f1e827568c1bb862cb9f5bd,2020-08-10_13h26.28.082,lexical_decision_task_MP,2020.1.3,Win32,60,m,0,0.708,,,,,,,,0.708,0,,,,,,398,NW,UN,33,fouret,BLUNDE,z,,,,,,0.0502693,-0.185816876,0,0,0,,0,336,336,397,1,
,,,,,,,,,,,,,,,,,,5f1e827568c1bb862cb9f5bd,2020-08-10_13h26.28.082,lexical_decision_task_MP,2020.1.3,Win32,60,m,1,0.57,,,,,,,,0.57,1,,,,,,186,WORD,UN,50,course,PORTAL,m,,,,,,0.0502693,-0.185816876,0,0,0,,0,337,337,185,1,
,,,,,,,,,,,,,,,,,,5f1e827568c1bb862cb9f5bd,2020-08-10_13h26.28.082,lexical_decision_task_MP,2020.1.3,Win32,60,z,1,0.854,,,,,,,,0.854,1,,,,,,305,NW,"ID",50,forgle,FORGLE,z,,,,,,0.0502693,-0.185816876,0,0,0,,0,338,338,304,1,
,,,,,,,,,,,,,,,,,,5f1e827568c1bb862cb9f5bd,2020-08-10_13h26.28.082,lexical_decision_task_MP,2020.1.3,Win32,60,z,1,0.803,,,,,,,,0.803,1,,,,,,367,NW,UN,33,hornal,SLIQUE,z,,,,,,0.0502693,-0.185816876,0,0,0,,0,339,339,366,1,
,,,,,,,,,,,,,,,,,,5f1e827568c1bb862cb9f5bd,2020-08-10_13h26.28.082,lexical_decision_task_MP,2020.1.3,Win32,60,z,1,0.59,,,,,,,,0.59,1,,,,,,427,NW,UN,50,tandly,SCHIND,z,,,,,,0.0502693,-0.185816876,0,0,0,,0,340,340,426,1,
,,,,,,,,,,,,,,,,,,5f1e827568c1bb862cb9f5bd,2020-08-10_13h26.28.082,lexical_decision_task_MP,2020.1.3,Win32,60,z,1,0.835,,,,,,,,0.835,1,,,,,,321,NW,"ID",50,miator,MIATOR,z,,,,,,0.0502693,-0.185816876,0,0,0,,0,341,341,320,1,
,,,,,,,,,,,,,,,,,,5f1e827568c1bb862cb9f5bd,2020-08-10_13h26.28.082,lexical_decision_task_MP,2020.1.3,Win32,60,m,1,0.729,,,,,,,,0.729,1,,,,,,226,WORD,UN,50,flower,CASINO,m,,,,,,0.0502693,-0.185816876,0,0,0,,0,342,342,225,1,
,,,,,,,,,,,,,,,,,,5f1e827568c1bb862cb9f5bd,2020-08-10_13h26.28.082,lexical_decision_task_MP,2020.1.3,Win32,60,m,1,0.547,,,,,,,,0.547,1,,,,,,17,WORD,"ID",33,charge,CHARGE,m,,,,,,0.0502693,-0.185816876,0,0,0,,0,343,343,16,1,
,,,,,,,,,,,,,,,,,,5f1e827568c1bb862cb9f5bd,2020-08-10_13h26.28.082,lexical_decision_task_MP,2020.1.3,Win32,60,m,1,0.582,,,,,,,,0.582,1,,,,,,222,WORD,UN,50,casino,HINDER,m,,,,,,0.0502693,-0.185816876,0,0,0,,0,344,344,221,1,
,,,,,,,,,,,,,,,,,,5f1e827568c1bb862cb9f5bd,2020-08-10_13h26.28.082,lexical_decision_task_MP,2020.1.3,Win32,60,z,1,0.815,,,,,,,,0.815,1,,,,,,401,NW,UN,33,elopia,MUSTIL,z,,,,,,0.0502693,-0.185816876,0,0,0,,0,345,345,400,1,
,,,,,,,,,,,,,,,,,,5f1e827568c1bb862cb9f5bd,2020-08-10_13h26.28.082,lexical_decision_task_MP,2020.1.3,Win32,60,z,0,0.694,,,,,,,,0.694,0,,,,,,66,WORD,"ID",50,gospel,GOSPEL,m,,,,,,0.0502693,-0.185816876,0,0,0,,0,346,346,65,1,
,,,,,,,,,,,,,,,,,,5f1e827568c1bb862cb9f5bd,2020-08-10_13h26.28.082,lexical_decision_task_MP,2020.1.3,Win32,60,z,1,0.998,,,,,,,,0.998,1,,,,,,477,NW,UN,50,acrise,PHOTIE,z,,,,,,0.0502693,-0.185816876,0,0,0,,0,347,347,476,1,
,,,,,,,,,,,,,,,,,,5f1e827568c1bb862cb9f5bd,2020-08-10_13h26.28.082,lexical_decision_task_MP,2020.1.3,Win32,60,z,1,0.618,,,,,,,,0.618,1,,,,,,366,NW,UN,33,slique,TOSHEL,z,,,,,,0.0502693,-0.185816876,0,0,0,,0,348,348,365,1,
,,,,,,,,,,,,,,,,,,5f1e827568c1bb862cb9f5bd,2020-08-10_13h26.28.082,lexical_decision_task_MP,2020.1.3,Win32,60,z,1,0.575,,,,,,,,0.575,1,,,,,,307,NW,"ID",50,kirafe,KIRAFE,z,,,,,,0.0502693,-0.185816876,0,0,0,,0,349,349,306,1,
,,,,,,,,,,,,,,,,,,5f1e827568c1bb862cb9f5bd,2020-08-10_13h26.28.082,lexical_decision_task_MP,2020.1.3,Win32,60,m,1,1.107,,,,,,,,1.107,1,,,,,,190,WORD,UN,50,stable,BACKUP,m,,,,,,0.0502693,-0.185816876,0,0,0,,0,350,350,189,1,
,,,,,,,,,,,,,,,,,,5f1e827568c1bb862cb9f5bd,2020-08-10_13h26.28.082,lexical_decision_task_MP,2020.1.3,Win32,60,m,1,0.797,,,,,,,,0.797,1,,,,,,192,WORD,UN,50,object,PLAGUE,m,,,,,,0.0502693,-0.185816876,0,0,0,,0,351,351,191,1,
,,,,,,,,,,,,,,,,,,5f1e827568c1bb862cb9f5bd,2020-08-10_13h26.28.082,lexical_decision_task_MP,2020.1.3,Win32,60,z,1,0.615,,,,,,,,0.615,1,,,,,,339,NW,"ID",50,fachow,FACHOW,z,,,,,,0.0502693,-0.185816876,0,0,0,,0,352,352,338,1,
,,,,,,,,,,,,,,,,,,5f1e827568c1bb862cb9f5bd,2020-08-10_13h26.28.082,lexical_decision_task_MP,2020.1.3,Win32,60,m,0,0.687,,,,,,,,0.687,0,,,,,,369,NW,UN,33,sleact,WRONCH,z,,,,,,0.0502693,-0.185816876,0,0,0,,0,353,353,368,1,
,,,,,,,,,,,,,,,,,,5f1e827568c1bb862cb9f5bd,2020-08-10_13h26.28.082,lexical_decision_task_MP,2020.1.3,Win32,60,m,1,0.734,,,,,,,,0.734,1,,,,,,23,WORD,"ID",33,wealth,WEALTH,m,,,,,,0.0502693,-0.185816876,0,0,0,,0,354,354,22,1,
,,,,,,,,,,,,,,,,,,5f1e827568c1bb862cb9f5bd,2020-08-10_13h26.28.082,lexical_decision_task_MP,2020.1.3,Win32,60,m,1,0.534,,,,,,,,0.534,1,,,,,,12,WORD,"ID",33,orange,ORANGE,m,,,,,,0.0502693,-0.185816876,0,0,0,,0,355,355,11,1,
,,,,,,,,,,,,,,,,,,5f1e827568c1bb862cb9f5bd,2020-08-10_13h26.28.082,lexical_decision_task_MP,2020.1.3,Win32,60,z,1,0.79,,,,,,,,0.79,1,,,,,,419,NW,UN,33,gushop,SLOUNT,z,,,,,,0.0502693,-0.185816876,0,0,0,,0,356,356,418,1,
,,,,,,,,,,,,,,,,,,5f1e827568c1bb862cb9f5bd,2020-08-10_13h26.28.082,lexical_decision_task_MP,2020.1.3,Win32,60,z,1,0.624,,,,,,,,0.624,1,,,,,,469,NW,UN,50,crudio,PADIFS,z,,,,,,0.0502693,-0.185816876,0,0,0,,0,357,357,468,1,
,,,,,,,,,,,,,,,,,,5f1e827568c1bb862cb9f5bd,2020-08-10_13h26.28.082,lexical_decision_task_MP,2020.1.3,Win32,60,m,1,0.625,,,,,,,,0.625,1,,,,,,146,WORD,UN,33,garlic,COUPLE,m,,,,,,0.0502693,-0.185816876,0,0,0,,0,358,358,145,1,
,,,,,,,,,,,,,,,,,,5f1e827568c1bb862cb9f5bd,2020-08-10_13h26.28.082,lexical_decision_task_MP,2020.1.3,Win32,60,z,1,0.597,,,,,,,,0.597,1,,,,,,439,NW,UN,50,saride,LIMPOR,z,,,,,,0.0502693,-0.185816876,0,0,0,,0,359,359,438,1,
,,,,,,,,,,,,,,,,,,5f1e827568c1bb862cb9f5bd,2020-08-10_13h26.28.082,lexical_decision_task_MP,2020.1.3,Win32,60,z,0,0.581,,,,,,,,0.581,0,,,,,,149,WORD,UN,33,random,INVADE,m,,,,,,0.0502693,-0.185816876,0,0,0,,0,360,360,148,1,
,,,,,,,,,,,,,,,,,,5f1e827568c1bb862cb9f5bd,2020-08-10_13h26.28.082,lexical_decision_task_MP,2020.1.3,Win32,60,m,1,0.657,,,,,,,,0.657,1,,,,,,155,WORD,UN,33,cradle,LIZARD,m,,,,,,0.0502693,-0.185816876,0,0,0,,0,361,361,154,1,
,,,,,,,,,,,,,,,,,,5f1e827568c1bb862cb9f5bd,2020-08-10_13h26.28.082,lexical_decision_task_MP,2020.1.3,Win32,60,m,1,0.531,,,,,,,,0.531,1,,,,,,231,WORD,UN,50,mother,EXPORT,m,,,,,,0.0502693,-0.185816876,0,0,0,space,0,362,362,230,1,1.485
,,,,,,,,,,,,,,,,,,5f1e827568c1bb862cb9f5bd,2020-08-10_13h26.28.082,lexical_decision_task_MP,2020.1.3,Win32,60,z,1,0.73,,,,,,,,0.73,1,,,,,,395,NW,UN,33,flengy,COLURY,z,,,,,,0.0502693,-0.185816876,0,0,0,,0,363,363,394,1,
,,,,,,,,,,,,,,,,,,5f1e827568c1bb862cb9f5bd,2020-08-10_13h26.28.082,lexical_decision_task_MP,2020.1.3,Win32,60,z,1,0.728,,,,,,,,0.728,1,,,,,,394,NW,UN,33,colury,SPAQUX,z,,,,,,0.0502693,-0.185816876,0,0,0,,0,364,364,393,1,
,,,,,,,,,,,,,,,,,,5f1e827568c1bb862cb9f5bd,2020-08-10_13h26.28.082,lexical_decision_task_MP,2020.1.3,Win32,60,z,1,0.606,,,,,,,,0.606,1,,,,,,340,NW,"ID",50,fiatch,FIATCH,z,,,,,,0.0502693,-0.185816876,0,0,0,,0,365,365,339,1,
,,,,,,,,,,,,,,,,,,5f1e827568c1bb862cb9f5bd,2020-08-10_13h26.28.082,lexical_decision_task_MP,2020.1.3,Win32,60,z,1,0.749,,,,,,,,0.749,1,,,,,,416,NW,UN,33,earoud,PATHEL,z,,,,,,0.0502693,-0.185816876,0,0,0,,0,366,366,415,1,
,,,,,,,,,,,,,,,,,,5f1e827568c1bb862cb9f5bd,2020-08-10_13h26.28.082,lexical_decision_task_MP,2020.1.3,Win32,60,z,1,0.591,,,,,,,,0.591,1,,,,,,476,NW,UN,50,photie,JOSTED,z,,,,,,0.0502693,-0.185816876,0,0,0,,0,367,367,475,1,
,,,,,,,,,,,,,,,,,,5f1e827568c1bb862cb9f5bd,2020-08-10_13h26.28.082,lexical_decision_task_MP,2020.1.3,Win32,60,z,0,0.793,,,,,,,,0.793,0,,,,,,69,WORD,"ID",50,plenty,PLENTY,m,,,,,,0.0502693,-0.185816876,0,0,0,,0,368,368,68,1,
,,,,,,,,,,,,,,,,,,5f1e827568c1bb862cb9f5bd,2020-08-10_13h26.28.082,lexical_decision_task_MP,2020.1.3,Win32,60,m,1,0.553,,,,,,,,0.553,1,,,,,,71,WORD,"ID",50,garden,GARDEN,m,,,,,,0.0502693,-0.185816876,0,0,0,,0,369,369,70,1,
,,,,,,,,,,,,,,,,,,5f1e827568c1bb862cb9f5bd,2020-08-10_13h26.28.082,lexical_decision_task_MP,2020.1.3,Win32,60,z,1,0.776,,,,,,,,0.776,1,,,,,,387,NW,UN,33,cragin,GRONCE,z,,,,,,0.0502693,-0.185816876,0,0,0,,0,370,370,386,1,
,,,,,,,,,,,,,,,,,,5f1e827568c1bb862cb9f5bd,2020-08-10_13h26.28.082,lexical_decision_task_MP,2020.1.3,Win32,60,z,1,0.605,,,,,,,,0.605,1,,,,,,298,NW,"ID",33,piergy,PIERGY,z,,,,,,0.0502693,-0.185816876,0,0,0,,0,371,371,297,1,
,,,,,,,,,,,,,,,,,,5f1e827568c1bb862cb9f5bd,2020-08-10_13h26.28.082,lexical_decision_task_MP,2020.1.3,Win32,60,m,1,0.771,,,,,,,,0.771,1,,,,,,215,WORD,UN,50,behalf,PHOBIA,m,,,,,,0.0502693,-0.185816876,0,0,0,,0,372,372,214,1,
,,,,,,,,,,,,,,,,,,5f1e827568c1bb862cb9f5bd,2020-08-10_13h26.28.082,lexical_decision_task_MP,2020.1.3,Win32,60,z,1,0.716,,,,,,,,0.716,1,,,,,,341,NW,"ID",50,myrtie,MYRTIE,z,,,,,,0.0502693,-0.185816876,0,0,0,,0,373,373,340,1,
,,,,,,,,,,,,,,,,,,5f1e827568c1bb862cb9f5bd,2020-08-10_13h26.28.082,lexical_decision_task_MP,2020.1.3,Win32,60,z,1,0.812,,,,,,,,0.812,1,,,,,,285,NW,"ID",33,prudge,PRUDGE,z,,,,,,0.0502693,-0.185816876,0,0,0,,0,374,374,284,1,
,,,,,,,,,,,,,,,,,,5f1e827568c1bb862cb9f5bd,2020-08-10_13h26.28.082,lexical_decision_task_MP,2020.1.3,Win32,60,m,0,0.778,,,,,,,,0.778,0,,,,,,335,NW,"ID",50,desion,DESION,z,,,,,,0.0502693,-0.185816876,0,0,0,,0,375,375,334,1,
,,,,,,,,,,,,,,,,,,5f1e827568c1bb862cb9f5bd,2020-08-10_13h26.28.082,lexical_decision_task_MP,2020.1.3,Win32,60,z,1,0.742,,,,,,,,0.742,1,,,,,,269,NW,"ID",33,orchet,ORCHET,z,,,,,,0.0502693,-0.185816876,0,0,0,,0,376,376,268,1,
,,,,,,,,,,,,,,,,,,5f1e827568c1bb862cb9f5bd,2020-08-10_13h26.28.082,lexical_decision_task_MP,2020.1.3,Win32,60,z,1,0.59,,,,,,,,0.59,1,,,,,,334,NW,"ID",50,watmeg,WATMEG,z,,,,,,0.0502693,-0.185816876,0,0,0,,0,377,377,333,1,
,,,,,,,,,,,,,,,,,,5f1e827568c1bb862cb9f5bd,2020-08-10_13h26.28.082,lexical_decision_task_MP,2020.1.3,Win32,60,z,1,1.041,,,,,,,,1.041,1,,,,,,447,NW,UN,50,sadent,GIRCUE,z,,,,,,0.0502693,-0.185816876,0,0,0,,0,378,378,446,1,
,,,,,,,,,,,,,,,,,,5f1e827568c1bb862cb9f5bd,2020-08-10_13h26.28.082,lexical_decision_task_MP,2020.1.3,Win32,60,m,1,0.668,,,,,,,,0.668,1,,,,,,13,WORD,"ID",33,strive,STRIVE,m,,,,,,0.0502693,-0.185816876,0,0,0,,0,379,379,12,1,
,,,,,,,,,,,,,,,,,,5f1e827568c1bb862cb9f5bd,2020-08-10_13h26.28.082,lexical_decision_task_MP,2020.1.3,Win32,60,m,1,0.532,,,,,,,,0.532,1,,,,,,72,WORD,"ID",50,bright,BRIGHT,m,,,,,,0.0502693,-0.185816876,0,0,0,,0,380,380,71,1,
,,,,,,,,,,,,,,,,,,5f1e827568c1bb862cb9f5bd,2020-08-10_13h26.28.082,lexical_decision_task_MP,2020.1.3,Win32,60,z,1,0.656,,,,,,,,0.656,1,,,,,,296,NW,"ID",33,beinch,BEINCH,z,,,,,,0.0502693,-0.185816876,0,0,0,,0,381,381,295,1,
,,,,,,,,,,,,,,,,,,5f1e827568c1bb862cb9f5bd,2020-08-10_13h26.28.082,lexical_decision_task_MP,2020.1.3,Win32,60,z,1,0.802,,,,,,,,0.802,1,,,,,,281,NW,"ID",33,melaty,MELATY,z,,,,,,0.0502693,-0.185816876,0,0,0,,0,382,382,280,1,
,,,,,,,,,,,,,,,,,,5f1e827568c1bb862cb9f5bd,2020-08-10_13h26.28.082,lexical_decision_task_MP,2020.1.3,Win32,60,m,1,0.688,,,,,,,,0.688,1,,,,,,195,WORD,UN,50,credit,RESIGN,m,,,,,,0.0502693,-0.185816876,0,0,0,,0,383,383,194,1,
,,,,,,,,,,,,,,,,,,5f1e827568c1bb862cb9f5bd,2020-08-10_13h26.28.082,lexical_decision_task_MP,2020.1.3,Win32,60,z,1,0.71,,,,,,,,0.71,1,,,,,,404,NW,UN,33,syntic,CLUIRM,z,,,,,,0.0502693,-0.185816876,0,0,0,,0,384,384,403,1,
,,,,,,,,,,,,,,,,,,5f1e827568c1bb862cb9f5bd,2020-08-10_13h26.28.082,lexical_decision_task_MP,2020.1.3,Win32,60,z,1,0.772,,,,,,,,0.772,1,,,,,,347,NW,"ID",50,kerift,KERIFT,z,,,,,,0.0502693,-0.185816876,0,0,0,,0,385,385,346,1,
,,,,,,,,,,,,,,,,,,5f1e827568c1bb862cb9f5bd,2020-08-10_13h26.28.082,lexical_decision_task_MP,2020.1.3,Win32,60,m,1,0.526,,,,,,,,0.526,1,,,,,,237,WORD,UN,50,seldom,POSTER,m,,,,,,0.0502693,-0.185816876,0,0,0,,0,386,386,236,1,
,,,,,,,,,,,,,,,,,,5f1e827568c1bb862cb9f5bd,2020-08-10_13h26.28.082,lexical_decision_task_MP,2020.1.3,Win32,60,z,0,0.659,,,,,,,,0.659,0,,,,,,54,WORD,"ID",33,ramble,RAMBLE,m,,,,,,0.0502693,-0.185816876,0,0,0,,0,387,387,53,1,
,,,,,,,,,,,,,,,,,,5f1e827568c1bb862cb9f5bd,2020-08-10_13h26.28.082,lexical_decision_task_MP,2020.1.3,Win32,60,z,1,0.772,,,,,,,,0.772,1,,,,,,257,NW,"ID",33,veniod,VENIOD,z,,,,,,0.0502693,-0.185816876,0,0,0,,0,388,388,256,1,
,,,,,,,,,,,,,,,,,,5f1e827568c1bb862cb9f5bd,2020-08-10_13h26.28.082,lexical_decision_task_MP,2020.1.3,Win32,60,m,0,0.604,,,,,,,,0.604,0,,,,,,462,NW,UN,50,kispel,ABSULT,z,,,,,,0.0502693,-0.185816876,0,0,0,,0,389,389,461,1,
,,,,,,,,,,,,,,,,,,5f1e827568c1bb862cb9f5bd,2020-08-10_13h26.28.082,lexical_decision_task_MP,2020.1.3,Win32,60,z,0,0.65,,,,,,,,0.65,0,,,,,,101,WORD,"ID",50,wrench,WRENCH,m,,,,,,0.0502693,-0.185816876,0,0,0,,0,390,390,100,1,
,,,,,,,,,,,,,,,,,,5f1e827568c1bb862cb9f5bd,2020-08-10_13h26.28.082,lexical_decision_task_MP,2020.1.3,Win32,60,m,1,0.919,,,,,,,,0.919,1,,,,,,9,WORD,"ID",33,hustle,HUSTLE,m,,,,,,0.0502693,-0.185816876,0,0,0,,0,391,391,8,1,
,,,,,,,,,,,,,,,,,,5f1e827568c1bb862cb9f5bd,2020-08-10_13h26.28.082,lexical_decision_task_MP,2020.1.3,Win32,60,m,1,0.673,,,,,,,,0.673,1,,,,,,34,WORD,"ID",33,jungle,JUNGLE,m,,,,,,0.0502693,-0.185816876,0,0,0,,0,392,392,33,1,
,,,,,,,,,,,,,,,,,,5f1e827568c1bb862cb9f5bd,2020-08-10_13h26.28.082,lexical_decision_task_MP,2020.1.3,Win32,60,z,1,0.743,,,,,,,,0.743,1,,,,,,390,NW,UN,33,theldy,HATRUS,z,,,,,,0.0502693,-0.185816876,0,0,0,,0,393,393,389,1,
,,,,,,,,,,,,,,,,,,5f1e827568c1bb862cb9f5bd,2020-08-10_13h26.28.082,lexical_decision_task_MP,2020.1.3,Win32,60,m,1,0.727,,,,,,,,0.727,1,,,,,,168,WORD,UN,33,genius,ANSWER,m,,,,,,0.0502693,-0.185816876,0,0,0,,0,394,394,167,1,
,,,,,,,,,,,,,,,,,,5f1e827568c1bb862cb9f5bd,2020-08-10_13h26.28.082,lexical_decision_task_MP,2020.1.3,Win32,60,m,1,0.563,,,,,,,,0.563,1,,,,,,27,WORD,"ID",33,scream,SCREAM,m,,,,,,0.0502693,-0.185816876,0,0,0,,0,395,395,26,1,
,,,,,,,,,,,,,,,,,,5f1e827568c1bb862cb9f5bd,2020-08-10_13h26.28.082,lexical_decision_task_MP,2020.1.3,Win32,60,z,1,0.64,,,,,,,,0.64,1,,,,,,472,NW,UN,50,crible,CIGNEY,z,,,,,,0.0502693,-0.185816876,0,0,0,,0,396,396,471,1,
,,,,,,,,,,,,,,,,,,5f1e827568c1bb862cb9f5bd,2020-08-10_13h26.28.082,lexical_decision_task_MP,2020.1.3,Win32,60,m,1,0.673,,,,,,,,0.673,1,,,,,,99,WORD,"ID",50,fluent,FLUENT,m,,,,,,0.0502693,-0.185816876,0,0,0,,0,397,397,98,1,
,,,,,,,,,,,,,,,,,,5f1e827568c1bb862cb9f5bd,2020-08-10_13h26.28.082,lexical_decision_task_MP,2020.1.3,Win32,60,m,1,0.528,,,,,,,,0.528,1,,,,,,102,WORD,"ID",50,direct,DIRECT,m,,,,,,0.0502693,-0.185816876,0,0,0,,0,398,398,101,1,
,,,,,,,,,,,,,,,,,,5f1e827568c1bb862cb9f5bd,2020-08-10_13h26.28.082,lexical_decision_task_MP,2020.1.3,Win32,60,z,1,0.604,,,,,,,,0.604,1,,,,,,342,NW,"ID",50,randow,RANDOW,z,,,,,,0.0502693,-0.185816876,0,0,0,,0,399,399,341,1,
,,,,,,,,,,,,,,,,,,5f1e827568c1bb862cb9f5bd,2020-08-10_13h26.28.082,lexical_decision_task_MP,2020.1.3,Win32,60,z,1,0.648,,,,,,,,0.648,1,,,,,,256,NW,"ID",33,inlors,INLORS,z,,,,,,0.0502693,-0.185816876,0,0,0,,0,400,400,255,1,
,,,,,,,,,,,,,,,,,,5f1e827568c1bb862cb9f5bd,2020-08-10_13h26.28.082,lexical_decision_task_MP,2020.1.3,Win32,60,m,1,0.749,,,,,,,,0.749,1,,,,,,200,WORD,UN,50,admire,BEACON,m,,,,,,0.0502693,-0.185816876,0,0,0,,0,401,401,199,1,
,,,,,,,,,,,,,,,,,,5f1e827568c1bb862cb9f5bd,2020-08-10_13h26.28.082,lexical_decision_task_MP,2020.1.3,Win32,60,m,1,0.654,,,,,,,,0.654,1,,,,,,209,WORD,UN,50,monkey,SEARCH,m,,,,,,0.0502693,-0.185816876,0,0,0,,0,402,402,208,1,
,,,,,,,,,,,,,,,,,,5f1e827568c1bb862cb9f5bd,2020-08-10_13h26.28.082,lexical_decision_task_MP,2020.1.3,Win32,60,z,0,0.635,,,,,,,,0.635,0,,,,,,184,WORD,UN,50,bother,SLEAZY,m,,,,,,0.0502693,-0.185816876,0,0,0,,0,403,403,183,1,
,,,,,,,,,,,,,,,,,,5f1e827568c1bb862cb9f5bd,2020-08-10_13h26.28.082,lexical_decision_task_MP,2020.1.3,Win32,60,m,1,0.51,,,,,,,,0.51,1,,,,,,83,WORD,"ID",50,result,RESULT,m,,,,,,0.0502693,-0.185816876,0,0,0,,0,404,404,82,1,
,,,,,,,,,,,,,,,,,,5f1e827568c1bb862cb9f5bd,2020-08-10_13h26.28.082,lexical_decision_task_MP,2020.1.3,Win32,60,z,1,0.625,,,,,,,,0.625,1,,,,,,467,NW,UN,50,wictor,GORBIE,z,,,,,,0.0502693,-0.185816876,0,0,0,,0,405,405,466,1,
,,,,,,,,,,,,,,,,,,5f1e827568c1bb862cb9f5bd,2020-08-10_13h26.28.082,lexical_decision_task_MP,2020.1.3,Win32,60,z,1,0.585,,,,,,,,0.585,1,,,,,,420,NW,UN,33,pauche,GUSHOP,z,,,,,,0.0502693,-0.185816876,0,0,0,,0,406,406,419,1,
,,,,,,,,,,,,,,,,,,5f1e827568c1bb862cb9f5bd,2020-08-10_13h26.28.082,lexical_decision_task_MP,2020.1.3,Win32,60,z,1,0.669,,,,,,,,0.669,1,,,,,,436,NW,UN,50,snapel,FRUTAN,z,,,,,,0.0502693,-0.185816876,0,0,0,,0,407,407,435,1,
,,,,,,,,,,,,,,,,,,5f1e827568c1bb862cb9f5bd,2020-08-10_13h26.28.082,lexical_decision_task_MP,2020.1.3,Win32,60,m,1,0.584,,,,,,,,0.584,1,,,,,,21,WORD,"ID",33,simple,SIMPLE,m,,,,,,0.0502693,-0.185816876,0,0,0,,0,408,408,20,1,
,,,,,,,,,,,,,,,,,,5f1e827568c1bb862cb9f5bd,2020-08-10_13h26.28.082,lexical_decision_task_MP,2020.1.3,Win32,60,m,1,0.521,,,,,,,,0.521,1,,,,,,163,WORD,UN,33,market,STRING,m,,,,,,0.0502693,-0.185816876,0,0,0,,0,409,409,162,1,
,,,,,,,,,,,,,,,,,,5f1e827568c1bb862cb9f5bd,2020-08-10_13h26.28.082,lexical_decision_task_MP,2020.1.3,Win32,60,z,1,0.915,,,,,,,,0.915,1,,,,,,461,NW,UN,50,absult,JUSTRE,z,,,,,,0.0502693,-0.185816876,0,0,0,,0,410,410,460,1,
,,,,,,,,,,,,,,,,,,5f1e827568c1bb862cb9f5bd,2020-08-10_13h26.28.082,lexical_decision_task_MP,2020.1.3,Win32,60,m,1,0.646,,,,,,,,0.646,1,,,,,,227,WORD,UN,50,master,SELDOM,m,,,,,,0.0502693,-0.185816876,0,0,0,,0,411,411,226,1,
,,,,,,,,,,,,,,,,,,5f1e827568c1bb862cb9f5bd,2020-08-10_13h26.28.082,lexical_decision_task_MP,2020.1.3,Win32,60,m,1,0.572,,,,,,,,0.572,1,,,,,,127,WORD,UN,33,senior,CASTLE,m,,,,,,0.0502693,-0.185816876,0,0,0,,0,412,412,126,1,
,,,,,,,,,,,,,,,,,,5f1e827568c1bb862cb9f5bd,2020-08-10_13h26.28.082,lexical_decision_task_MP,2020.1.3,Win32,60,z,1,0.791,,,,,,,,0.791,1,,,,,,356,NW,"ID",50,othnis,OTHNIS,z,,,,,,0.0502693,-0.185816876,0,0,0,,0,413,413,355,1,
,,,,,,,,,,,,,,,,,,5f1e827568c1bb862cb9f5bd,2020-08-10_13h26.28.082,lexical_decision_task_MP,2020.1.3,Win32,60,z,1,0.718,,,,,,,,0.718,1,,,,,,304,NW,"ID",50,cludie,CLUDIE,z,,,,,,0.0502693,-0.185816876,0,0,0,,0,414,414,303,1,
,,,,,,,,,,,,,,,,,,5f1e827568c1bb862cb9f5bd,2020-08-10_13h26.28.082,lexical_decision_task_MP,2020.1.3,Win32,60,m,1,0.546,,,,,,,,0.546,1,,,,,,160,WORD,UN,33,dragon,VIOLET,m,,,,,,0.0502693,-0.185816876,0,0,0,,0,415,415,159,1,
