instr_done_keyboard.keys,instr_done_touch.x,instr_done_touch.y,instr_done_touch.leftButton,instr_done_touch.midButton,instr_done_touch.rightButton,instr_done_touch.clicked_name,instruction_pages.thisRepN,instruction_pages.thisTrialN,instruction_pages.thisN,instruction_pages.thisIndex,instruction_pages.ran,pageN,phase,instruct_text,has_image,instruct_image,participant,date,expName,psychopyVersion,OS,frameRate,response.keys,response.corr,touch_resp.x,touch_resp.y,touch_resp.leftButton,touch_resp.midButton,touch_resp.rightButton,touch_resp.time,touch_resp.clicked_name,rt,corr,practice_trials.thisRepN,practice_trials.thisTrialN,practice_trials.thisN,practice_trials.thisIndex,practice_trials.ran,TrialID,StimulusType,Condition,PrimeDuration,Prime,Target,corrAns,end_of_practice_trials_pages.thisRepN,end_of_practice_trials_pages.thisTrialN,end_of_practice_trials_pages.thisN,end_of_practice_trials_pages.thisIndex,end_of_practice_trials_pages.ran,break_done_touch.x,break_done_touch.y,break_done_touch.leftButton,break_done_touch.midButton,break_done_touch.rightButton,break_done_keyboard.keys,trials.thisRepN,trials.thisTrialN,trials.thisN,trials.thisIndex,trials.ran,break_done_touch.clicked_name,response.rt
,-0.001984127,-0.378968254,1,0,0,instr_done_button,0,0,0,0,1,1,instructions,"INSTRUCTIONS
At the start of each trial, look at the hash marks (######) in the center of the screen. After a moment, a string of letters will appear. Your task is to indicate if the letter string forms a word or not (i.e., if it is a nonword). For example, AUTHOR is a word while AUTHON is a nonword.

Press the space bar or touch the button below to continue.",0,,5f0c8009958a65612e4e176a,2020-08-06_17h02.58.904,lexical_decision_task_MP,2020.1.3,Win32,60,,,,,,,,,,,,,,,,,,,,,,,,,,,,,,,,,,,,,,,,,
,0.004960317,-0.423611111,1,0,0,instr_done_button,0,1,1,1,1,2,instructions,"If your device has a keyboard, press the 'Z' key for nonwords and the 'M' key for words.





Press the space bar or touch the button below to continue.",1,keyboard-example.gif,5f0c8009958a65612e4e176a,2020-08-06_17h02.58.904,lexical_decision_task_MP,2020.1.3,Win32,60,,,,,,,,,,,,,,,,,,,,,,,,,,,,,,,,,,,,,,,,,
,0.004960317,-0.422619048,1,0,0,instr_done_button,0,2,2,2,1,3,instructions,"If you are using a touchscreen only device, use the buttons on the screen. Do not use the mouse.





Press the space bar or touch the button below to continue.",1,touchscreen-example.gif,5f0c8009958a65612e4e176a,2020-08-06_17h02.58.904,lexical_decision_task_MP,2020.1.3,Win32,60,,,,,,,,,,,,,,,,,,,,,,,,,,,,,,,,,,,,,,,,,
,0.004960317,-0.422619048,1,0,0,instr_done_button,0,3,3,3,1,4,instructions,"It is very important that you respond as quickly and accurately as possible, as each letter string will only be on the screen for two seconds. If you do not respond within this time, the message 'Too slow!' will be displayed and the experiment will progress to the next letter string. The first 20 trials will be practice trials and you will receive feedback on your answers. 

Press the space bar or touch the button below to start the practice trials.",0,,5f0c8009958a65612e4e176a,2020-08-06_17h02.58.904,lexical_decision_task_MP,2020.1.3,Win32,60,,,,,,,,,,,,,,,,,,,,,,,,,,,,,,,,,,,,,,,,,
,,,,,,,,,,,,,,,,,5f0c8009958a65612e4e176a,2020-08-06_17h02.58.904,lexical_decision_task_MP,2020.1.3,Win32,60,,0,,,,,,,,,-1,0,0,0,7,1,1008,WORD,UN,50,hurdle,VOLUME,m,,,,,,,,,,,,,,,,,,
,,,,,,,,,,,,,,,,,5f0c8009958a65612e4e176a,2020-08-06_17h02.58.904,lexical_decision_task_MP,2020.1.3,Win32,60,,0,,,,,,,,,-1,0,1,1,10,1,1011,NW,"ID",50,inlade,INLADE,z,,,,,,,,,,,,,,,,,,
,,,,,,,,,,,,,,,,,5f0c8009958a65612e4e176a,2020-08-06_17h02.58.904,lexical_decision_task_MP,2020.1.3,Win32,60,,0,,,,,,,,,-1,0,2,2,11,1,1012,NW,"ID",50,rashet,RASHET,z,,,,,,,,,,,,,,,,,,
,,,,,,,,,,,,,,,,,5f0c8009958a65612e4e176a,2020-08-06_17h02.58.904,lexical_decision_task_MP,2020.1.3,Win32,60,,0,,,,,,,,,-1,0,3,3,14,1,1015,NW,UN,50,miaber,THRALE,z,,,,,,,,,,,,,,,,,,
,,,,,,,,,,,,,,,,,5f0c8009958a65612e4e176a,2020-08-06_17h02.58.904,lexical_decision_task_MP,2020.1.3,Win32,60,,0,,,,,,,,,-1,0,4,4,6,1,1007,WORD,UN,50,tropic,ZOMBIE,m,,,,,,,,,,,,,,,,,,
,,,,,,,,,,,,,,,,,5f0c8009958a65612e4e176a,2020-08-06_17h02.58.904,lexical_decision_task_MP,2020.1.3,Win32,60,,0,,,,,,,,,-1,0,5,5,0,1,1001,WORD,"ID",33,utopia,UTOPIA,m,,,,,,,,,,,,,,,,,,
,,,,,,,,,,,,,,,,,5f0c8009958a65612e4e176a,2020-08-06_17h02.58.904,lexical_decision_task_MP,2020.1.3,Win32,60,,0,,,,,,,,,-1,0,6,6,9,1,1010,NW,"ID",33,fariny,FARINY,z,,,,,,,,,,,,,,,,,,
,,,,,,,,,,,,,,,,,5f0c8009958a65612e4e176a,2020-08-06_17h02.58.904,lexical_decision_task_MP,2020.1.3,Win32,60,,0,,,,,,,,,-1,0,7,7,8,1,1009,NW,"ID",33,aslert,ASLERT,z,,,,,,,,,,,,,,,,,,
,,,,,,,,,,,,,,,,,5f0c8009958a65612e4e176a,2020-08-06_17h02.58.904,lexical_decision_task_MP,2020.1.3,Win32,60,,0,,,,,,,,,-1,0,8,8,2,1,1003,WORD,"ID",50,almond,ALMOND,m,,,,,,,,,,,,,,,,,,
,,,,,,,,,,,,,,,,,5f0c8009958a65612e4e176a,2020-08-06_17h02.58.904,lexical_decision_task_MP,2020.1.3,Win32,60,,0,,,,,,,,,-1,0,9,9,3,1,1004,WORD,"ID",50,matrix,MATRIX,m,,,,,,,,,,,,,,,,,,
,,,,,,,,,,,,,,,,,5f0c8009958a65612e4e176a,2020-08-06_17h02.58.904,lexical_decision_task_MP,2020.1.3,Win32,60,,0,,,,,,,,,-1,0,10,10,4,1,1005,WORD,UN,33,abound,SQUEAK,m,,,,,,,,,,,,,,,,,,
,,,,,,,,,,,,,,,,,5f0c8009958a65612e4e176a,2020-08-06_17h02.58.904,lexical_decision_task_MP,2020.1.3,Win32,60,,0,,,,,,,,,-1,0,11,11,13,1,1014,NW,UN,33,winfer,ROUPET,z,,,,,,,,,,,,,,,,,,
,,,,,,,,,,,,,,,,,5f0c8009958a65612e4e176a,2020-08-06_17h02.58.904,lexical_decision_task_MP,2020.1.3,Win32,60,,0,-0.392739274,-0.301980198,1,0,0,0.115,button_left,0.115,0,0,12,12,1,1,1002,WORD,"ID",33,adjust,ADJUST,m,,,,,,,,,,,,,,,,,,
,,,,,,,,,,,,,,,,,5f0c8009958a65612e4e176a,2020-08-06_17h02.58.904,lexical_decision_task_MP,2020.1.3,Win32,60,,0,0.359735974,-0.278877888,1,0,0,0.132,button_right,0.132,0,0,13,13,15,1,1016,NW,UN,50,mushed,WHAISE,z,,,,,,,,,,,,,,,,,,
,,,,,,,,,,,,,,,,,5f0c8009958a65612e4e176a,2020-08-06_17h02.58.904,lexical_decision_task_MP,2020.1.3,Win32,60,,0,-0.481848185,-0.344884488,1,0,0,0.096,button_left,0.096,0,0,14,14,5,1,1006,WORD,UN,33,frenzy,OBTAIN,m,,,,,,,,,,,,,,,,,,
,,,,,,,,,,,,,,,,,5f0c8009958a65612e4e176a,2020-08-06_17h02.58.904,lexical_decision_task_MP,2020.1.3,Win32,60,,0,0.366336634,-0.305280528,1,0,0,0.014,button_right,0.014,0,0,15,15,12,1,1013,NW,UN,33,adveil,SPRINY,z,,,,,,,,,,,,,,,,,,
,-0.287128713,-0.311881188,1,0,0,instr_done_button,,,,,,1,end_of_practice,"You have completed the practice trials. During the experimental trials, you will not receive feedback, but it is very important that you respond as quickly and accurately as possible. 
Before you begin, please ensure that you are in a comfortable and quiet location and will not be disturbed for about 25 minutes, as we cannot use your data if you do not complete all the trials. 
There will be opportunities to take breaks at regular intervals during the experiment. When you are ready to start the experimental trials, please press space or touch the button below.",,,5f0c8009958a65612e4e176a,2020-08-06_17h02.58.904,lexical_decision_task_MP,2020.1.3,Win32,60,,,,,,,,,,,,,,,,,,,,,,,,0,0,0,0,1,,,,,,,,,,,,,
,,,,,,,,,,,,,,,,,5f0c8009958a65612e4e176a,2020-08-06_17h02.58.904,lexical_decision_task_MP,2020.1.3,Win32,60,,0,0.415841584,-0.315181518,1,0,0,0.43,button_right,0.43,0,,,,,,405,NW,UN,33,nouply,FLUMNI,z,,,,,,0.415841584,-0.315181518,1,0,0,,0,0,0,404,1,,
,,,,,,,,,,,,,,,,,5f0c8009958a65612e4e176a,2020-08-06_17h02.58.904,lexical_decision_task_MP,2020.1.3,Win32,60,,0,0.316831683,-0.318481848,1,0,0,0.914,button_right,0.914,0,,,,,,210,WORD,UN,50,infect,MONKEY,m,,,,,,0.316831683,-0.318481848,1,0,0,,0,1,1,209,1,,
,,,,,,,,,,,,,,,,,5f0c8009958a65612e4e176a,2020-08-06_17h02.58.904,lexical_decision_task_MP,2020.1.3,Win32,60,,0,-0.429042904,-0.354785479,1,0,0,0.231,button_left,0.231,0,,,,,,325,NW,"ID",50,thruse,THRUSE,z,,,,,,-0.429042904,-0.354785479,1,0,0,,0,2,2,324,1,,
,,,,,,,,,,,,,,,,,5f0c8009958a65612e4e176a,2020-08-06_17h02.58.904,lexical_decision_task_MP,2020.1.3,Win32,60,,0,-0.481848185,-0.272277228,1,0,0,1.346,button_left,1.346,0,,,,,,34,WORD,"ID",33,jungle,JUNGLE,m,,,,,,-0.481848185,-0.272277228,1,0,0,,0,3,3,33,1,,
,,,,,,,,,,,,,,,,,5f0c8009958a65612e4e176a,2020-08-06_17h02.58.904,lexical_decision_task_MP,2020.1.3,Win32,60,,0,0.346534653,-0.265676568,1,0,0,0.236,button_right,0.236,0,,,,,,8,WORD,"ID",33,abrupt,ABRUPT,m,,,,,,0.346534653,-0.265676568,1,0,0,,0,4,4,7,1,,
,,,,,,,,,,,,,,,,,5f0c8009958a65612e4e176a,2020-08-06_17h02.58.904,lexical_decision_task_MP,2020.1.3,Win32,60,,0,-0.297029703,-0.315181518,1,0,0,0.227,button_left,0.227,0,,,,,,261,NW,"ID",33,stunch,STUNCH,z,,,,,,-0.297029703,-0.315181518,1,0,0,,0,5,5,260,1,,
,,,,,,,,,,,,,,,,,5f0c8009958a65612e4e176a,2020-08-06_17h02.58.904,lexical_decision_task_MP,2020.1.3,Win32,60,,0,0.214521452,-0.298679868,1,0,0,0.297,button_right,0.297,0,,,,,,49,WORD,"ID",33,survey,SURVEY,m,,,,,,0.214521452,-0.298679868,1,0,0,,0,6,6,48,1,,
,,,,,,,,,,,,,,,,,5f0c8009958a65612e4e176a,2020-08-06_17h02.58.904,lexical_decision_task_MP,2020.1.3,Win32,60,,0,0.336633663,-0.301980198,1,0,0,0.329,button_right,0.329,0,,,,,,269,NW,"ID",33,orchet,ORCHET,z,,,,,,0.336633663,-0.301980198,1,0,0,,0,7,7,268,1,,
,,,,,,,,,,,,,,,,,5f0c8009958a65612e4e176a,2020-08-06_17h02.58.904,lexical_decision_task_MP,2020.1.3,Win32,60,,0,-0.613861386,-0.318481848,1,0,0,0.167,,0.329,-1,,,,,,162,WORD,UN,33,string,CANDLE,m,,,,,,0.062706271,0.404290429,0,0,0,,0,8,8,161,1,,
,,,,,,,,,,,,,,,,,5f0c8009958a65612e4e176a,2020-08-06_17h02.58.904,lexical_decision_task_MP,2020.1.3,Win32,60,,0,,,,,,,,0.329,-1,,,,,,274,NW,"ID",33,fumblo,FUMBLO,z,,,,,,0.062706271,0.404290429,0,0,0,,0,9,9,273,1,,
,,,,,,,,,,,,,,,,,5f0c8009958a65612e4e176a,2020-08-06_17h02.58.904,lexical_decision_task_MP,2020.1.3,Win32,60,,0,,,,,,,,0.329,-1,,,,,,383,NW,UN,33,guesco,AUNGRE,z,,,,,,0.062706271,0.404290429,0,0,0,,0,10,10,382,1,,
,,,,,,,,,,,,,,,,,5f0c8009958a65612e4e176a,2020-08-06_17h02.58.904,lexical_decision_task_MP,2020.1.3,Win32,60,,0,,,,,,,,0.329,-1,,,,,,63,WORD,"ID",50,launch,LAUNCH,m,,,,,,0.062706271,0.404290429,0,0,0,,0,11,11,62,1,,
,,,,,,,,,,,,,,,,,5f0c8009958a65612e4e176a,2020-08-06_17h02.58.904,lexical_decision_task_MP,2020.1.3,Win32,60,,0,,,,,,,,0.329,-1,,,,,,241,NW,"ID",33,smenco,SMENCO,z,,,,,,0.062706271,0.404290429,0,0,0,,0,12,12,240,1,,
,,,,,,,,,,,,,,,,,5f0c8009958a65612e4e176a,2020-08-06_17h02.58.904,lexical_decision_task_MP,2020.1.3,Win32,60,,0,,,,,,,,0.329,-1,,,,,,467,NW,UN,50,wictor,GORBIE,z,,,,,,0.062706271,0.404290429,0,0,0,,0,13,13,466,1,,
,,,,,,,,,,,,,,,,,5f0c8009958a65612e4e176a,2020-08-06_17h02.58.904,lexical_decision_task_MP,2020.1.3,Win32,60,,0,,,,,,,,0.329,-1,,,,,,60,WORD,"ID",33,pencil,PENCIL,m,,,,,,0.062706271,0.404290429,0,0,0,,0,14,14,59,1,,
,,,,,,,,,,,,,,,,,5f0c8009958a65612e4e176a,2020-08-06_17h02.58.904,lexical_decision_task_MP,2020.1.3,Win32,60,,0,,,,,,,,0.329,-1,,,,,,356,NW,"ID",50,othnis,OTHNIS,z,,,,,,0.062706271,0.404290429,0,0,0,,0,15,15,355,1,,
,,,,,,,,,,,,,,,,,5f0c8009958a65612e4e176a,2020-08-06_17h02.58.904,lexical_decision_task_MP,2020.1.3,Win32,60,,0,,,,,,,,0.329,-1,,,,,,102,WORD,"ID",50,direct,DIRECT,m,,,,,,0.062706271,0.404290429,0,0,0,,0,16,16,101,1,,
,,,,,,,,,,,,,,,,,5f0c8009958a65612e4e176a,2020-08-06_17h02.58.904,lexical_decision_task_MP,2020.1.3,Win32,60,,0,,,,,,,,0.329,-1,,,,,,408,NW,UN,33,flumni,HURNIA,z,,,,,,0.062706271,0.404290429,0,0,0,,0,17,17,407,1,,
,,,,,,,,,,,,,,,,,5f0c8009958a65612e4e176a,2020-08-06_17h02.58.904,lexical_decision_task_MP,2020.1.3,Win32,60,,0,,,,,,,,0.329,-1,,,,,,308,NW,"ID",50,psetch,PSETCH,z,,,,,,0.062706271,0.404290429,0,0,0,,0,18,18,307,1,,
,,,,,,,,,,,,,,,,,5f0c8009958a65612e4e176a,2020-08-06_17h02.58.904,lexical_decision_task_MP,2020.1.3,Win32,60,,0,,,,,,,,0.329,-1,,,,,,468,NW,UN,50,padifs,WICTOR,z,,,,,,0.062706271,0.404290429,0,0,0,,0,19,19,467,1,,
,,,,,,,,,,,,,,,,,5f0c8009958a65612e4e176a,2020-08-06_17h02.58.904,lexical_decision_task_MP,2020.1.3,Win32,60,,0,,,,,,,,0.329,-1,,,,,,393,NW,UN,33,spaqux,GANOUS,z,,,,,,0.062706271,0.404290429,0,0,0,,0,20,20,392,1,,
,,,,,,,,,,,,,,,,,5f0c8009958a65612e4e176a,2020-08-06_17h02.58.904,lexical_decision_task_MP,2020.1.3,Win32,60,,0,,,,,,,,0.329,-1,,,,,,151,WORD,UN,33,rocket,MYSTIC,m,,,,,,0.062706271,0.404290429,0,0,0,,0,21,21,150,1,,
,,,,,,,,,,,,,,,,,5f0c8009958a65612e4e176a,2020-08-06_17h02.58.904,lexical_decision_task_MP,2020.1.3,Win32,60,,0,,,,,,,,0.329,-1,,,,,,127,WORD,UN,33,senior,CASTLE,m,,,,,,0.062706271,0.404290429,0,0,0,,0,22,22,126,1,,
,,,,,,,,,,,,,,,,,5f0c8009958a65612e4e176a,2020-08-06_17h02.58.904,lexical_decision_task_MP,2020.1.3,Win32,60,,0,,,,,,,,0.329,-1,,,,,,14,WORD,"ID",33,almost,ALMOST,m,,,,,,0.062706271,0.404290429,0,0,0,,0,23,23,13,1,,
,,,,,,,,,,,,,,,,,5f0c8009958a65612e4e176a,2020-08-06_17h02.58.904,lexical_decision_task_MP,2020.1.3,Win32,60,,0,,,,,,,,0.329,-1,,,,,,156,WORD,UN,33,pastor,CRADLE,m,,,,,,0.062706271,0.404290429,0,0,0,,0,24,24,155,1,,
,,,,,,,,,,,,,,,,,5f0c8009958a65612e4e176a,2020-08-06_17h02.58.904,lexical_decision_task_MP,2020.1.3,Win32,60,,0,,,,,,,,0.329,-1,,,,,,249,NW,"ID",33,batrol,BATROL,z,,,,,,0.062706271,0.404290429,0,0,0,,0,25,25,248,1,,
,,,,,,,,,,,,,,,,,5f0c8009958a65612e4e176a,2020-08-06_17h02.58.904,lexical_decision_task_MP,2020.1.3,Win32,60,,0,,,,,,,,0.329,-1,,,,,,272,NW,"ID",33,damilt,DAMILT,z,,,,,,0.062706271,0.404290429,0,0,0,,0,26,26,271,1,,
,,,,,,,,,,,,,,,,,5f0c8009958a65612e4e176a,2020-08-06_17h02.58.904,lexical_decision_task_MP,2020.1.3,Win32,60,,0,,,,,,,,0.329,-1,,,,,,97,WORD,"ID",50,client,CLIENT,m,,,,,,0.062706271,0.404290429,0,0,0,,0,27,27,96,1,,
,,,,,,,,,,,,,,,,,5f0c8009958a65612e4e176a,2020-08-06_17h02.58.904,lexical_decision_task_MP,2020.1.3,Win32,60,,0,,,,,,,,0.329,-1,,,,,,386,NW,UN,33,gronce,ANCUST,z,,,,,,0.062706271,0.404290429,0,0,0,,0,28,28,385,1,,
,,,,,,,,,,,,,,,,,5f0c8009958a65612e4e176a,2020-08-06_17h02.58.904,lexical_decision_task_MP,2020.1.3,Win32,60,,0,,,,,,,,0.329,-1,,,,,,158,WORD,UN,33,detail,ISLAND,m,,,,,,0.062706271,0.404290429,0,0,0,,0,29,29,157,1,,
,,,,,,,,,,,,,,,,,5f0c8009958a65612e4e176a,2020-08-06_17h02.58.904,lexical_decision_task_MP,2020.1.3,Win32,60,,0,,,,,,,,0.329,-1,,,,,,444,NW,UN,50,minkel,JAUNCE,z,,,,,,0.062706271,0.404290429,0,0,0,,0,30,30,443,1,,
,,,,,,,,,,,,,,,,,5f0c8009958a65612e4e176a,2020-08-06_17h02.58.904,lexical_decision_task_MP,2020.1.3,Win32,60,,0,,,,,,,,0.329,-1,,,,,,161,WORD,UN,33,candle,PASTOR,m,,,,,,0.062706271,0.404290429,0,0,0,,0,31,31,160,1,,
,,,,,,,,,,,,,,,,,5f0c8009958a65612e4e176a,2020-08-06_17h02.58.904,lexical_decision_task_MP,2020.1.3,Win32,60,,0,,,,,,,,0.329,-1,,,,,,447,NW,UN,50,sadent,GIRCUE,z,,,,,,0.062706271,0.404290429,0,0,0,,0,32,32,446,1,,
,,,,,,,,,,,,,,,,,5f0c8009958a65612e4e176a,2020-08-06_17h02.58.904,lexical_decision_task_MP,2020.1.3,Win32,60,,0,,,,,,,,0.329,-1,,,,,,74,WORD,"ID",50,plaque,PLAQUE,m,,,,,,0.062706271,0.404290429,0,0,0,,0,33,33,73,1,,
,,,,,,,,,,,,,,,,,5f0c8009958a65612e4e176a,2020-08-06_17h02.58.904,lexical_decision_task_MP,2020.1.3,Win32,60,,0,,,,,,,,0.329,-1,,,,,,377,NW,UN,33,shrile,INJORE,z,,,,,,0.062706271,0.404290429,0,0,0,,0,34,34,376,1,,
,,,,,,,,,,,,,,,,,5f0c8009958a65612e4e176a,2020-08-06_17h02.58.904,lexical_decision_task_MP,2020.1.3,Win32,60,,0,,,,,,,,0.329,-1,,,,,,46,WORD,"ID",33,single,SINGLE,m,,,,,,0.062706271,0.404290429,0,0,0,,0,35,35,45,1,,
,,,,,,,,,,,,,,,,,5f0c8009958a65612e4e176a,2020-08-06_17h02.58.904,lexical_decision_task_MP,2020.1.3,Win32,60,,0,,,,,,,,0.329,-1,,,,,,70,WORD,"ID",50,square,SQUARE,m,,,,,,0.062706271,0.404290429,0,0,0,,0,36,36,69,1,,
,,,,,,,,,,,,,,,,,5f0c8009958a65612e4e176a,2020-08-06_17h02.58.904,lexical_decision_task_MP,2020.1.3,Win32,60,,0,,,,,,,,0.329,-1,,,,,,117,WORD,"ID",50,branch,BRANCH,m,,,,,,0.062706271,0.404290429,0,0,0,,0,37,37,116,1,,
,,,,,,,,,,,,,,,,,5f0c8009958a65612e4e176a,2020-08-06_17h02.58.904,lexical_decision_task_MP,2020.1.3,Win32,60,,0,,,,,,,,0.329,-1,,,,,,416,NW,UN,33,earoud,PATHEL,z,,,,,,0.062706271,0.404290429,0,0,0,,0,38,38,415,1,,
,,,,,,,,,,,,,,,,,5f0c8009958a65612e4e176a,2020-08-06_17h02.58.904,lexical_decision_task_MP,2020.1.3,Win32,60,,0,,,,,,,,0.329,-1,,,,,,15,WORD,"ID",33,amount,AMOUNT,m,,,,,,0.062706271,0.404290429,0,0,0,,0,39,39,14,1,,
,,,,,,,,,,,,,,,,,5f0c8009958a65612e4e176a,2020-08-06_17h02.58.904,lexical_decision_task_MP,2020.1.3,Win32,60,,0,,,,,,,,0.329,-1,,,,,,135,WORD,UN,33,chrome,IMPORT,m,,,,,,0.062706271,0.404290429,0,0,0,,0,40,40,134,1,,
,,,,,,,,,,,,,,,,,5f0c8009958a65612e4e176a,2020-08-06_17h02.58.904,lexical_decision_task_MP,2020.1.3,Win32,60,,0,,,,,,,,0.329,-1,,,,,,400,NW,UN,33,mustil,WEAROX,z,,,,,,0.062706271,0.404290429,0,0,0,,0,41,41,399,1,,
,,,,,,,,,,,,,,,,,5f0c8009958a65612e4e176a,2020-08-06_17h02.58.904,lexical_decision_task_MP,2020.1.3,Win32,60,,0,,,,,,,,0.329,-1,,,,,,425,NW,UN,50,schind,FRUDGE,z,,,,,,0.062706271,0.404290429,0,0,0,,0,42,42,424,1,,
,,,,,,,,,,,,,,,,,5f0c8009958a65612e4e176a,2020-08-06_17h02.58.904,lexical_decision_task_MP,2020.1.3,Win32,60,,0,,,,,,,,0.329,-1,,,,,,31,WORD,"ID",33,weapon,WEAPON,m,,,,,,0.062706271,0.404290429,0,0,0,,0,43,43,30,1,,
,,,,,,,,,,,,,,,,,5f0c8009958a65612e4e176a,2020-08-06_17h02.58.904,lexical_decision_task_MP,2020.1.3,Win32,60,,0,,,,,,,,0.329,-1,,,,,,68,WORD,"ID",50,fumble,FUMBLE,m,,,,,,0.062706271,0.404290429,0,0,0,,0,44,44,67,1,,
,,,,,,,,,,,,,,,,,5f0c8009958a65612e4e176a,2020-08-06_17h02.58.904,lexical_decision_task_MP,2020.1.3,Win32,60,,0,,,,,,,,0.329,-1,,,,,,53,WORD,"ID",33,police,POLICE,m,,,,,,0.062706271,0.404290429,0,0,0,,0,45,45,52,1,,
,,,,,,,,,,,,,,,,,5f0c8009958a65612e4e176a,2020-08-06_17h02.58.904,lexical_decision_task_MP,2020.1.3,Win32,60,,0,,,,,,,,0.329,-1,,,,,,335,NW,"ID",50,desion,DESION,z,,,,,,0.062706271,0.404290429,0,0,0,,0,46,46,334,1,,
,,,,,,,,,,,,,,,,,5f0c8009958a65612e4e176a,2020-08-06_17h02.58.904,lexical_decision_task_MP,2020.1.3,Win32,60,,0,,,,,,,,0.329,-1,,,,,,355,NW,"ID",50,zingly,ZINGLY,z,,,,,,0.062706271,0.404290429,0,0,0,,0,47,47,354,1,,
,,,,,,,,,,,,,,,,,5f0c8009958a65612e4e176a,2020-08-06_17h02.58.904,lexical_decision_task_MP,2020.1.3,Win32,60,,0,,,,,,,,0.329,-1,,,,,,417,NW,UN,33,suidle,EAROUD,z,,,,,,0.062706271,0.404290429,0,0,0,,0,48,48,416,1,,
,,,,,,,,,,,,,,,,,5f0c8009958a65612e4e176a,2020-08-06_17h02.58.904,lexical_decision_task_MP,2020.1.3,Win32,60,,0,,,,,,,,0.329,-1,,,,,,138,WORD,UN,33,staple,MELODY,m,,,,,,0.062706271,0.404290429,0,0,0,,0,49,49,137,1,,
,,,,,,,,,,,,,,,,,5f0c8009958a65612e4e176a,2020-08-06_17h02.58.904,lexical_decision_task_MP,2020.1.3,Win32,60,,0,,,,,,,,0.329,-1,,,,,,318,NW,"ID",50,reagly,REAGLY,z,,,,,,0.062706271,0.404290429,0,0,0,,0,50,50,317,1,,
,,,,,,,,,,,,,,,,,5f0c8009958a65612e4e176a,2020-08-06_17h02.58.904,lexical_decision_task_MP,2020.1.3,Win32,60,,0,,,,,,,,0.329,-1,,,,,,22,WORD,"ID",33,jockey,JOCKEY,m,,,,,,0.062706271,0.404290429,0,0,0,,0,51,51,21,1,,
,,,,,,,,,,,,,,,,,5f0c8009958a65612e4e176a,2020-08-06_17h02.58.904,lexical_decision_task_MP,2020.1.3,Win32,60,,0,,,,,,,,0.329,-1,,,,,,170,WORD,UN,33,depart,POUNCE,m,,,,,,0.062706271,0.404290429,0,0,0,,0,52,52,169,1,,
,,,,,,,,,,,,,,,,,5f0c8009958a65612e4e176a,2020-08-06_17h02.58.904,lexical_decision_task_MP,2020.1.3,Win32,60,,0,,,,,,,,0.329,-1,,,,,,201,WORD,UN,50,factor,ADMIRE,m,,,,,,0.062706271,0.404290429,0,0,0,,0,53,53,200,1,,
,,,,,,,,,,,,,,,,,5f0c8009958a65612e4e176a,2020-08-06_17h02.58.904,lexical_decision_task_MP,2020.1.3,Win32,60,,0,,,,,,,,0.329,-1,,,,,,164,WORD,UN,33,invest,MARKET,m,,,,,,0.062706271,0.404290429,0,0,0,,0,54,54,163,1,,
,,,,,,,,,,,,,,,,,5f0c8009958a65612e4e176a,2020-08-06_17h02.58.904,lexical_decision_task_MP,2020.1.3,Win32,60,,0,,,,,,,,0.329,-1,,,,,,295,NW,"ID",33,gleath,GLEATH,z,,,,,,0.062706271,0.404290429,0,0,0,,0,55,55,294,1,,
,,,,,,,,,,,,,,,,,5f0c8009958a65612e4e176a,2020-08-06_17h02.58.904,lexical_decision_task_MP,2020.1.3,Win32,60,,0,,,,,,,,0.329,-1,,,,,,286,NW,"ID",33,reldon,RELDON,z,,,,,,0.062706271,0.404290429,0,0,0,,0,56,56,285,1,,
,,,,,,,,,,,,,,,,,5f0c8009958a65612e4e176a,2020-08-06_17h02.58.904,lexical_decision_task_MP,2020.1.3,Win32,60,,0,,,,,,,,0.329,-1,,,,,,119,WORD,"ID",50,spider,SPIDER,m,,,,,,0.062706271,0.404290429,0,0,0,,0,57,57,118,1,,
,,,,,,,,,,,,,,,,,5f0c8009958a65612e4e176a,2020-08-06_17h02.58.904,lexical_decision_task_MP,2020.1.3,Win32,60,,0,,,,,,,,0.329,-1,,,,,,362,NW,UN,33,breali,TIREAU,z,,,,,,0.062706271,0.404290429,0,0,0,,0,58,58,361,1,,
,,,,,,,,,,,,,,,,,5f0c8009958a65612e4e176a,2020-08-06_17h02.58.904,lexical_decision_task_MP,2020.1.3,Win32,60,,0,,,,,,,,0.329,-1,,,,,,409,NW,UN,33,tunory,ELOPIA,z,,,,,,0.062706271,0.404290429,0,0,0,,0,59,59,408,1,,
,,,,,,,,,,,,,,,,,5f0c8009958a65612e4e176a,2020-08-06_17h02.58.904,lexical_decision_task_MP,2020.1.3,Win32,60,,0,,,,,,,,0.329,-1,,,,,,2,WORD,"ID",33,bridge,BRIDGE,m,,,,,,0.062706271,0.404290429,0,0,0,,0,60,60,1,1,,
,,,,,,,,,,,,,,,,,5f0c8009958a65612e4e176a,2020-08-06_17h02.58.904,lexical_decision_task_MP,2020.1.3,Win32,60,,0,,,,,,,,0.329,-1,,,,,,284,NW,"ID",33,shaple,SHAPLE,z,,,,,,0.062706271,0.404290429,0,0,0,,0,61,61,283,1,,
,,,,,,,,,,,,,,,,,5f0c8009958a65612e4e176a,2020-08-06_17h02.58.904,lexical_decision_task_MP,2020.1.3,Win32,60,,0,,,,,,,,0.329,-1,,,,,,235,WORD,UN,50,pirate,GRUMPY,m,,,,,,0.062706271,0.404290429,0,0,0,,0,62,62,234,1,,
,,,,,,,,,,,,,,,,,5f0c8009958a65612e4e176a,2020-08-06_17h02.58.904,lexical_decision_task_MP,2020.1.3,Win32,60,,0,,,,,,,,0.329,-1,,,,,,446,NW,UN,50,gircue,RUNAMO,z,,,,,,0.062706271,0.404290429,0,0,0,,0,63,63,445,1,,
,,,,,,,,,,,,,,,,,5f0c8009958a65612e4e176a,2020-08-06_17h02.58.904,lexical_decision_task_MP,2020.1.3,Win32,60,,0,,,,,,,,0.329,-1,,,,,,461,NW,UN,50,absult,JUSTRE,z,,,,,,0.062706271,0.404290429,0,0,0,,0,64,64,460,1,,
,,,,,,,,,,,,,,,,,5f0c8009958a65612e4e176a,2020-08-06_17h02.58.904,lexical_decision_task_MP,2020.1.3,Win32,60,,0,,,,,,,,0.329,-1,,,,,,139,WORD,UN,33,prince,DEBRIS,m,,,,,,0.062706271,0.404290429,0,0,0,,0,65,65,138,1,,
,,,,,,,,,,,,,,,,,5f0c8009958a65612e4e176a,2020-08-06_17h02.58.904,lexical_decision_task_MP,2020.1.3,Win32,60,,0,,,,,,,,0.329,-1,,,,,,205,WORD,UN,50,tailor,LOUNGE,m,,,,,,0.062706271,0.404290429,0,0,0,,0,66,66,204,1,,
,,,,,,,,,,,,,,,,,5f0c8009958a65612e4e176a,2020-08-06_17h02.58.904,lexical_decision_task_MP,2020.1.3,Win32,60,,0,,,,,,,,0.329,-1,,,,,,237,WORD,UN,50,seldom,POSTER,m,,,,,,0.062706271,0.404290429,0,0,0,,0,67,67,236,1,,
,,,,,,,,,,,,,,,,,5f0c8009958a65612e4e176a,2020-08-06_17h02.58.904,lexical_decision_task_MP,2020.1.3,Win32,60,,0,,,,,,,,0.329,-1,,,,,,258,NW,"ID",33,poluth,POLUTH,z,,,,,,0.062706271,0.404290429,0,0,0,,0,68,68,257,1,,
,,,,,,,,,,,,,,,,,5f0c8009958a65612e4e176a,2020-08-06_17h02.58.904,lexical_decision_task_MP,2020.1.3,Win32,60,,0,,,,,,,,0.329,-1,,,,,,433,NW,UN,50,pitrom,DRANCE,z,,,,,,0.062706271,0.404290429,0,0,0,,0,69,69,432,1,,
,,,,,,,,,,,,,,,,,5f0c8009958a65612e4e176a,2020-08-06_17h02.58.904,lexical_decision_task_MP,2020.1.3,Win32,60,,0,,,,,,,,0.329,-1,,,,,,369,NW,UN,33,sleact,WRONCH,z,,,,,,0.062706271,0.404290429,0,0,0,,0,70,70,368,1,,
,,,,,,,,,,,,,,,,,5f0c8009958a65612e4e176a,2020-08-06_17h02.58.904,lexical_decision_task_MP,2020.1.3,Win32,60,,0,,,,,,,,0.329,-1,,,,,,326,NW,"ID",50,iguade,IGUADE,z,,,,,,0.062706271,0.404290429,0,0,0,,0,71,71,325,1,,
,,,,,,,,,,,,,,,,,5f0c8009958a65612e4e176a,2020-08-06_17h02.58.904,lexical_decision_task_MP,2020.1.3,Win32,60,,0,,,,,,,,0.329,-1,,,,,,215,WORD,UN,50,behalf,PHOBIA,m,,,,,,0.062706271,0.404290429,0,0,0,,0,72,72,214,1,,
,,,,,,,,,,,,,,,,,5f0c8009958a65612e4e176a,2020-08-06_17h02.58.904,lexical_decision_task_MP,2020.1.3,Win32,60,,0,,,,,,,,0.329,-1,,,,,,80,WORD,"ID",50,family,FAMILY,m,,,,,,0.062706271,0.404290429,0,0,0,,0,73,73,79,1,,
,,,,,,,,,,,,,,,,,5f0c8009958a65612e4e176a,2020-08-06_17h02.58.904,lexical_decision_task_MP,2020.1.3,Win32,60,,0,,,,,,,,0.329,-1,,,,,,254,NW,"ID",33,varosh,VAROSH,z,,,,,,0.062706271,0.404290429,0,0,0,,0,74,74,253,1,,
,,,,,,,,,,,,,,,,,5f0c8009958a65612e4e176a,2020-08-06_17h02.58.904,lexical_decision_task_MP,2020.1.3,Win32,60,,0,,,,,,,,0.329,-1,,,,,,329,NW,"ID",50,yarike,YARIKE,z,,,,,,0.062706271,0.404290429,0,0,0,,0,75,75,328,1,,
,,,,,,,,,,,,,,,,,5f0c8009958a65612e4e176a,2020-08-06_17h02.58.904,lexical_decision_task_MP,2020.1.3,Win32,60,,0,,,,,,,,0.329,-1,,,,,,213,WORD,UN,50,intake,SQUEAL,m,,,,,,0.062706271,0.404290429,0,0,0,,0,76,76,212,1,,
,,,,,,,,,,,,,,,,,5f0c8009958a65612e4e176a,2020-08-06_17h02.58.904,lexical_decision_task_MP,2020.1.3,Win32,60,,0,,,,,,,,0.329,-1,,,,,,189,WORD,UN,50,backup,CENSOR,m,,,,,,0.062706271,0.404290429,0,0,0,,0,77,77,188,1,,
,,,,,,,,,,,,,,,,,5f0c8009958a65612e4e176a,2020-08-06_17h02.58.904,lexical_decision_task_MP,2020.1.3,Win32,60,,0,,,,,,,,0.329,-1,,,,,,388,NW,UN,33,witmer,CRAGIN,z,,,,,,0.062706271,0.404290429,0,0,0,,0,78,78,387,1,,
,,,,,,,,,,,,,,,,,5f0c8009958a65612e4e176a,2020-08-06_17h02.58.904,lexical_decision_task_MP,2020.1.3,Win32,60,,0,,,,,,,,0.329,-1,,,,,,289,NW,"ID",33,starby,STARBY,z,,,,,,0.062706271,0.404290429,0,0,0,,0,79,79,288,1,,
,,,,,,,,,,,,,,,,,5f0c8009958a65612e4e176a,2020-08-06_17h02.58.904,lexical_decision_task_MP,2020.1.3,Win32,60,,0,,,,,,,,0.329,-1,,,,,,65,WORD,"ID",50,symbol,SYMBOL,m,,,,,,0.062706271,0.404290429,0,0,0,,0,80,80,64,1,,
,,,,,,,,,,,,,,,,,5f0c8009958a65612e4e176a,2020-08-06_17h02.58.904,lexical_decision_task_MP,2020.1.3,Win32,60,,0,,,,,,,,0.329,-1,,,,,,214,WORD,UN,50,phobia,INTAKE,m,,,,,,0.062706271,0.404290429,0,0,0,,0,81,81,213,1,,
,,,,,,,,,,,,,,,,,5f0c8009958a65612e4e176a,2020-08-06_17h02.58.904,lexical_decision_task_MP,2020.1.3,Win32,60,,0,,,,,,,,0.329,-1,,,,,,107,WORD,"ID",50,slogan,SLOGAN,m,,,,,,0.062706271,0.404290429,0,0,0,,0,82,82,106,1,,
,,,,,,,,,,,,,,,,,5f0c8009958a65612e4e176a,2020-08-06_17h02.58.904,lexical_decision_task_MP,2020.1.3,Win32,60,,0,,,,,,,,0.329,-1,,,,,,373,NW,UN,33,injore,BIGENT,z,,,,,,0.062706271,0.404290429,0,0,0,,0,83,83,372,1,,
,,,,,,,,,,,,,,,,,5f0c8009958a65612e4e176a,2020-08-06_17h02.58.904,lexical_decision_task_MP,2020.1.3,Win32,60,,0,,,,,,,,0.329,-1,,,,,,58,WORD,"ID",33,foster,FOSTER,m,,,,,,0.062706271,0.404290429,0,0,0,,0,84,84,57,1,,
,,,,,,,,,,,,,,,,,5f0c8009958a65612e4e176a,2020-08-06_17h02.58.904,lexical_decision_task_MP,2020.1.3,Win32,60,,0,,,,,,,,0.329,-1,,,,,,40,WORD,"ID",33,convey,CONVEY,m,,,,,,0.062706271,0.404290429,0,0,0,,0,85,85,39,1,,
,,,,,,,,,,,,,,,,,5f0c8009958a65612e4e176a,2020-08-06_17h02.58.904,lexical_decision_task_MP,2020.1.3,Win32,60,,0,,,,,,,,0.329,-1,,,,,,122,WORD,UN,33,strike,LINGER,m,,,,,,0.062706271,0.404290429,0,0,0,,0,86,86,121,1,,
,,,,,,,,,,,,,,,,,5f0c8009958a65612e4e176a,2020-08-06_17h02.58.904,lexical_decision_task_MP,2020.1.3,Win32,60,,0,,,,,,,,0.329,-1,,,,,,182,WORD,UN,50,basket,WINTER,m,,,,,,0.062706271,0.404290429,0,0,0,,0,87,87,181,1,,
,,,,,,,,,,,,,,,,,5f0c8009958a65612e4e176a,2020-08-06_17h02.58.904,lexical_decision_task_MP,2020.1.3,Win32,60,,0,,,,,,,,0.329,-1,,,,,,89,WORD,"ID",50,permit,PERMIT,m,,,,,,0.062706271,0.404290429,0,0,0,,0,88,88,88,1,,
,,,,,,,,,,,,,,,,,5f0c8009958a65612e4e176a,2020-08-06_17h02.58.904,lexical_decision_task_MP,2020.1.3,Win32,60,,0,,,,,,,,0.329,-1,,,,,,302,NW,"ID",50,miluer,MILUER,z,,,,,,0.062706271,0.404290429,0,0,0,,0,89,89,301,1,,
,,,,,,,,,,,,,,,,,5f0c8009958a65612e4e176a,2020-08-06_17h02.58.904,lexical_decision_task_MP,2020.1.3,Win32,60,,0,,,,,,,,0.329,-1,,,,,,406,NW,UN,33,suiver,NOUPLY,z,,,,,,0.062706271,0.404290429,0,0,0,,0,90,90,405,1,,
,,,,,,,,,,,,,,,,,5f0c8009958a65612e4e176a,2020-08-06_17h02.58.904,lexical_decision_task_MP,2020.1.3,Win32,60,,0,,,,,,,,0.329,-1,,,,,,124,WORD,UN,33,nickel,BLOUSE,m,,,,,,0.062706271,0.404290429,0,0,0,,0,91,91,123,1,,
,,,,,,,,,,,,,,,,,5f0c8009958a65612e4e176a,2020-08-06_17h02.58.904,lexical_decision_task_MP,2020.1.3,Win32,60,,0,,,,,,,,0.329,-1,,,,,,1,WORD,"ID",33,fright,FRIGHT,m,,,,,,0.062706271,0.404290429,0,0,0,,0,92,92,0,1,,
,,,,,,,,,,,,,,,,,5f0c8009958a65612e4e176a,2020-08-06_17h02.58.904,lexical_decision_task_MP,2020.1.3,Win32,60,,0,,,,,,,,0.329,-1,,,,,,20,WORD,"ID",33,breast,BREAST,m,,,,,,0.062706271,0.404290429,0,0,0,,0,93,93,19,1,,
,,,,,,,,,,,,,,,,,5f0c8009958a65612e4e176a,2020-08-06_17h02.58.904,lexical_decision_task_MP,2020.1.3,Win32,60,,0,,,,,,,,0.329,-1,,,,,,187,WORD,UN,50,social,COURSE,m,,,,,,0.062706271,0.404290429,0,0,0,,0,94,94,186,1,,
,,,,,,,,,,,,,,,,,5f0c8009958a65612e4e176a,2020-08-06_17h02.58.904,lexical_decision_task_MP,2020.1.3,Win32,60,,0,,,,,,,,0.329,-1,,,,,,283,NW,"ID",33,veralf,VERALF,z,,,,,,0.062706271,0.404290429,0,0,0,,0,95,95,282,1,,
,,,,,,,,,,,,,,,,,5f0c8009958a65612e4e176a,2020-08-06_17h02.58.904,lexical_decision_task_MP,2020.1.3,Win32,60,,0,,,,,,,,0.329,-1,,,,,,437,NW,UN,50,baitch,SNAPEL,z,,,,,,0.062706271,0.404290429,0,0,0,,0,96,96,436,1,,
,,,,,,,,,,,,,,,,,5f0c8009958a65612e4e176a,2020-08-06_17h02.58.904,lexical_decision_task_MP,2020.1.3,Win32,60,,0,,,,,,,,0.329,-1,,,,,,457,NW,UN,50,barcet,WANIGH,z,,,,,,0.062706271,0.404290429,0,0,0,,0,97,97,456,1,,
,,,,,,,,,,,,,,,,,5f0c8009958a65612e4e176a,2020-08-06_17h02.58.904,lexical_decision_task_MP,2020.1.3,Win32,60,,0,,,,,,,,0.329,-1,,,,,,279,NW,"ID",33,celond,CELOND,z,,,,,,0.062706271,0.404290429,0,0,0,,0,98,98,278,1,,
,,,,,,,,,,,,,,,,,5f0c8009958a65612e4e176a,2020-08-06_17h02.58.904,lexical_decision_task_MP,2020.1.3,Win32,60,,0,,,,,,,,0.329,-1,,,,,,183,WORD,UN,50,sleazy,MILDEW,m,,,,,,0.062706271,0.404290429,0,0,0,,0,99,99,182,1,,
,,,,,,,,,,,,,,,,,5f0c8009958a65612e4e176a,2020-08-06_17h02.58.904,lexical_decision_task_MP,2020.1.3,Win32,60,,0,,,,,,,,0.329,-1,,,,,,38,WORD,"ID",33,powder,POWDER,m,,,,,,0.062706271,0.404290429,0,0,0,,0,100,100,37,1,,
,,,,,,,,,,,,,,,,,5f0c8009958a65612e4e176a,2020-08-06_17h02.58.904,lexical_decision_task_MP,2020.1.3,Win32,60,,0,,,,,,,,0.329,-1,,,,,,246,NW,"ID",33,piaton,PIATON,z,,,,,,0.062706271,0.404290429,0,0,0,,0,101,101,245,1,,
,,,,,,,,,,,,,,,,,5f0c8009958a65612e4e176a,2020-08-06_17h02.58.904,lexical_decision_task_MP,2020.1.3,Win32,60,,0,,,,,,,,0.329,-1,,,,,,256,NW,"ID",33,inlors,INLORS,z,,,,,,0.062706271,0.404290429,0,0,0,,0,102,102,255,1,,
,,,,,,,,,,,,,,,,,5f0c8009958a65612e4e176a,2020-08-06_17h02.58.904,lexical_decision_task_MP,2020.1.3,Win32,60,,0,,,,,,,,0.329,-1,,,,,,378,NW,UN,33,auting,SHRILE,z,,,,,,0.062706271,0.404290429,0,0,0,,0,103,103,377,1,,
,,,,,,,,,,,,,,,,,5f0c8009958a65612e4e176a,2020-08-06_17h02.58.904,lexical_decision_task_MP,2020.1.3,Win32,60,,0,,,,,,,,0.329,-1,,,,,,391,NW,UN,33,rouncy,THELDY,z,,,,,,0.062706271,0.404290429,0,0,0,,0,104,104,390,1,,
,,,,,,,,,,,,,,,,,5f0c8009958a65612e4e176a,2020-08-06_17h02.58.904,lexical_decision_task_MP,2020.1.3,Win32,60,,0,,,,,,,,0.329,-1,,,,,,230,WORD,UN,50,export,FRINGE,m,,,,,,0.062706271,0.404290429,0,0,0,,0,105,105,229,1,,
,,,,,,,,,,,,,,,,,5f0c8009958a65612e4e176a,2020-08-06_17h02.58.904,lexical_decision_task_MP,2020.1.3,Win32,60,,0,,,,,,,,0.329,-1,,,,,,470,NW,UN,50,nobest,CRUDIO,z,,,,,,0.062706271,0.404290429,0,0,0,,0,106,106,469,1,,
,,,,,,,,,,,,,,,,,5f0c8009958a65612e4e176a,2020-08-06_17h02.58.904,lexical_decision_task_MP,2020.1.3,Win32,60,,0,,,,,,,,0.329,-1,,,,,,234,WORD,UN,50,lumber,CLUMSY,m,,,,,,0.062706271,0.404290429,0,0,0,,0,107,107,233,1,,
,,,,,,,,,,,,,,,,,5f0c8009958a65612e4e176a,2020-08-06_17h02.58.904,lexical_decision_task_MP,2020.1.3,Win32,60,,0,,,,,,,,0.329,-1,,,,,,445,NW,UN,50,runamo,MINKEL,z,,,,,,0.062706271,0.404290429,0,0,0,,0,108,108,444,1,,
,,,,,,,,,,,,,,,,,5f0c8009958a65612e4e176a,2020-08-06_17h02.58.904,lexical_decision_task_MP,2020.1.3,Win32,60,,0,,,,,,,,0.329,-1,,,,,,351,NW,"ID",50,tiesch,TIESCH,z,,,,,,0.062706271,0.404290429,0,0,0,,0,109,109,350,1,,
,,,,,,,,,,,,,,,,,5f0c8009958a65612e4e176a,2020-08-06_17h02.58.904,lexical_decision_task_MP,2020.1.3,Win32,60,,0,,,,,,,,0.329,-1,,,,,,198,WORD,UN,50,invoke,WICKED,m,,,,,,0.062706271,0.404290429,0,0,0,,0,110,110,197,1,,
,,,,,,,,,,,,,,,,,5f0c8009958a65612e4e176a,2020-08-06_17h02.58.904,lexical_decision_task_MP,2020.1.3,Win32,60,,0,,,,,,,,0.329,-1,,,,,,73,WORD,"ID",50,source,SOURCE,m,,,,,,0.062706271,0.404290429,0,0,0,,0,111,111,72,1,,
,,,,,,,,,,,,,,,,,5f0c8009958a65612e4e176a,2020-08-06_17h02.58.904,lexical_decision_task_MP,2020.1.3,Win32,60,,0,,,,,,,,0.329,-1,,,,,,42,WORD,"ID",33,chapel,CHAPEL,m,,,,,,0.062706271,0.404290429,0,0,0,,0,112,112,41,1,,
,,,,,,,,,,,,,,,,,5f0c8009958a65612e4e176a,2020-08-06_17h02.58.904,lexical_decision_task_MP,2020.1.3,Win32,60,,0,,,,,,,,0.329,-1,,,,,,136,WORD,UN,33,finger,BLEACH,m,,,,,,0.062706271,0.404290429,0,0,0,,0,113,113,135,1,,
,,,,,,,,,,,,,,,,,5f0c8009958a65612e4e176a,2020-08-06_17h02.58.904,lexical_decision_task_MP,2020.1.3,Win32,60,,0,,,,,,,,0.329,-1,,,,,,418,NW,UN,33,slount,SUIDLE,z,,,,,,0.062706271,0.404290429,0,0,0,,0,114,114,417,1,,
,,,,,,,,,,,,,,,,,5f0c8009958a65612e4e176a,2020-08-06_17h02.58.904,lexical_decision_task_MP,2020.1.3,Win32,60,,0,,,,,,,,0.329,-1,,,,,,184,WORD,UN,50,bother,SLEAZY,m,,,,,,0.062706271,0.404290429,0,0,0,,0,115,115,183,1,,
,,,,,,,,,,,,,,,,,5f0c8009958a65612e4e176a,2020-08-06_17h02.58.904,lexical_decision_task_MP,2020.1.3,Win32,60,,0,,,,,,,,0.329,-1,,,,,,297,NW,"ID",33,fertic,FERTIC,z,,,,,,0.062706271,0.404290429,0,0,0,,0,116,116,296,1,,
,,,,,,,,,,,,,,,,,5f0c8009958a65612e4e176a,2020-08-06_17h02.58.904,lexical_decision_task_MP,2020.1.3,Win32,60,,0,,,,,,,,0.329,-1,,,,,,357,NW,"ID",50,derain,DERAIN,z,,,,,,0.062706271,0.404290429,0,0,0,,0,117,117,356,1,,
,,,,,,,,,,,,,,,,,5f0c8009958a65612e4e176a,2020-08-06_17h02.58.904,lexical_decision_task_MP,2020.1.3,Win32,60,,0,,,,,,,,0.329,-1,,,,,,257,NW,"ID",33,veniod,VENIOD,z,,,,,,0.062706271,0.404290429,0,0,0,,0,118,118,256,1,,
,,,,,,,,,,,,,,,,,5f0c8009958a65612e4e176a,2020-08-06_17h02.58.904,lexical_decision_task_MP,2020.1.3,Win32,60,,0,,,,,,,,0.329,-1,,,,,,449,NW,UN,50,phrect,BRUNGE,z,,,,,,0.062706271,0.404290429,0,0,0,,0,119,119,448,1,,
,,,,,,,,,,,,,,,,,5f0c8009958a65612e4e176a,2020-08-06_17h02.58.904,lexical_decision_task_MP,2020.1.3,Win32,60,,0,,,,,,,,0.329,-1,,,,,,275,NW,"ID",33,sleirt,SLEIRT,z,,,,,,0.02640264,-0.424092409,1,0,0,,0,120,120,274,1,break_done_button,
,,,,,,,,,,,,,,,,,5f0c8009958a65612e4e176a,2020-08-06_17h02.58.904,lexical_decision_task_MP,2020.1.3,Win32,60,,0,-0.478547855,-0.292079208,1,0,0,0.248,button_left,0.248,0,,,,,,442,NW,UN,50,dorsex,ABOUNE,z,,,,,,-0.478547855,-0.292079208,1,0,0,,0,121,121,441,1,,
,,,,,,,,,,,,,,,,,5f0c8009958a65612e4e176a,2020-08-06_17h02.58.904,lexical_decision_task_MP,2020.1.3,Win32,60,,0,0.409240924,-0.305280528,1,0,0,0.016,button_right,0.016,0,,,,,,271,NW,"ID",33,aubrid,AUBRID,z,,,,,,0.409240924,-0.305280528,1,0,0,,0,122,122,270,1,,
,,,,,,,,,,,,,,,,,5f0c8009958a65612e4e176a,2020-08-06_17h02.58.904,lexical_decision_task_MP,2020.1.3,Win32,60,,0,-0.402640264,-0.328382838,1,0,0,0.133,button_left,0.133,0,,,,,,304,NW,"ID",50,cludie,CLUDIE,z,,,,,,-0.402640264,-0.328382838,1,0,0,,0,123,123,303,1,,
,,,,,,,,,,,,,,,,,5f0c8009958a65612e4e176a,2020-08-06_17h02.58.904,lexical_decision_task_MP,2020.1.3,Win32,60,,0,0.303630363,-0.334983498,1,0,0,0.148,button_right,0.148,0,,,,,,203,WORD,UN,50,burden,PHRASE,m,,,,,,0.303630363,-0.334983498,1,0,0,,0,124,124,202,1,,
,,,,,,,,,,,,,,,,,5f0c8009958a65612e4e176a,2020-08-06_17h02.58.904,lexical_decision_task_MP,2020.1.3,Win32,60,,0,-0.382838284,-0.334983498,1,0,0,0.365,button_left,0.365,0,,,,,,327,NW,"ID",50,plenac,PLENAC,z,,,,,,-0.382838284,-0.334983498,1,0,0,,0,125,125,326,1,,
,,,,,,,,,,,,,,,,,5f0c8009958a65612e4e176a,2020-08-06_17h02.58.904,lexical_decision_task_MP,2020.1.3,Win32,60,,0,0.313531353,-0.301980198,1,0,0,0.099,button_right,0.099,0,,,,,,222,WORD,UN,50,casino,HINDER,m,,,,,,0.313531353,-0.301980198,1,0,0,,0,126,126,221,1,,
,,,,,,,,,,,,,,,,,5f0c8009958a65612e4e176a,2020-08-06_17h02.58.904,lexical_decision_task_MP,2020.1.3,Win32,60,,0,-0.376237624,-0.334983498,1,0,0,0.228,button_left,0.228,0,,,,,,229,WORD,UN,50,fringe,MOTHER,m,,,,,,-0.376237624,-0.334983498,1,0,0,,0,127,127,228,1,,
,,,,,,,,,,,,,,,,,5f0c8009958a65612e4e176a,2020-08-06_17h02.58.904,lexical_decision_task_MP,2020.1.3,Win32,60,m,1,,,,,,,,1.039,1,,,,,,45,WORD,"ID",33,clergy,CLERGY,m,,,,,,-0.376237624,-0.334983498,0,0,0,,0,128,128,44,1,,1.039
,,,,,,,,,,,,,,,,,5f0c8009958a65612e4e176a,2020-08-06_17h02.58.904,lexical_decision_task_MP,2020.1.3,Win32,60,z,1,,,,,,,,1.022,1,,,,,,371,NW,UN,33,ramily,GEILOY,z,,,,,,-0.376237624,-0.334983498,0,0,0,,0,129,129,370,1,,1.022
,,,,,,,,,,,,,,,,,5f0c8009958a65612e4e176a,2020-08-06_17h02.58.904,lexical_decision_task_MP,2020.1.3,Win32,60,m,0,,,,,,,,0.273,0,,,,,,452,NW,UN,50,bolvis,SURDEN,z,,,,,,-0.376237624,-0.334983498,0,0,0,,0,130,130,451,1,,0.273
,,,,,,,,,,,,,,,,,5f0c8009958a65612e4e176a,2020-08-06_17h02.58.904,lexical_decision_task_MP,2020.1.3,Win32,60,z,0,,,,,,,,0.207,0,,,,,,78,WORD,"ID",50,column,COLUMN,m,,,,,,-0.376237624,-0.334983498,0,0,0,,0,131,131,77,1,,0.207
,,,,,,,,,,,,,,,,,5f0c8009958a65612e4e176a,2020-08-06_17h02.58.904,lexical_decision_task_MP,2020.1.3,Win32,60,m,0,,,,,,,,0.169,0,,,,,,321,NW,"ID",50,miator,MIATOR,z,,,,,,-0.376237624,-0.334983498,0,0,0,,0,132,132,320,1,,0.169
,,,,,,,,,,,,,,,,,5f0c8009958a65612e4e176a,2020-08-06_17h02.58.904,lexical_decision_task_MP,2020.1.3,Win32,60,z,1,,,,,,,,0.225,1,,,,,,376,NW,UN,33,sliant,IGUARE,z,,,,,,-0.376237624,-0.334983498,0,0,0,,0,133,133,375,1,,0.225
,,,,,,,,,,,,,,,,,5f0c8009958a65612e4e176a,2020-08-06_17h02.58.904,lexical_decision_task_MP,2020.1.3,Win32,60,m,0,,,,,,,,0.316,0,,,,,,392,NW,UN,33,ganous,ROUNCY,z,,,,,,-0.376237624,-0.334983498,0,0,0,,0,134,134,391,1,,0.316
,,,,,,,,,,,,,,,,,5f0c8009958a65612e4e176a,2020-08-06_17h02.58.904,lexical_decision_task_MP,2020.1.3,Win32,60,z,0,,,,,,,,0.245,0,,,,,,157,WORD,UN,33,island,DRAGON,m,,,,,,-0.376237624,-0.334983498,0,0,0,,0,135,135,156,1,,0.245
,,,,,,,,,,,,,,,,,5f0c8009958a65612e4e176a,2020-08-06_17h02.58.904,lexical_decision_task_MP,2020.1.3,Win32,60,m,1,,,,,,,,0.289,1,,,,,,9,WORD,"ID",33,hustle,HUSTLE,m,,,,,,-0.376237624,-0.334983498,0,0,0,,0,136,136,8,1,,0.289
,,,,,,,,,,,,,,,,,5f0c8009958a65612e4e176a,2020-08-06_17h02.58.904,lexical_decision_task_MP,2020.1.3,Win32,60,z,1,,,,,,,,0.35,1,,,,,,394,NW,UN,33,colury,SPAQUX,z,,,,,,-0.376237624,-0.334983498,0,0,0,,0,137,137,393,1,,0.35
,,,,,,,,,,,,,,,,,5f0c8009958a65612e4e176a,2020-08-06_17h02.58.904,lexical_decision_task_MP,2020.1.3,Win32,60,,0,,,,,,,,0.35,-1,,,,,,278,NW,"ID",33,unighs,UNIGHS,z,,,,,,-0.943894389,-0.219471947,0,0,0,,0,138,138,277,1,,
,,,,,,,,,,,,,,,,,5f0c8009958a65612e4e176a,2020-08-06_17h02.58.904,lexical_decision_task_MP,2020.1.3,Win32,60,,0,,,,,,,,0.35,-1,,,,,,266,NW,"ID",33,varmit,VARMIT,z,,,,,,-0.943894389,-0.219471947,0,0,0,,0,139,139,265,1,,
,,,,,,,,,,,,,,,,,5f0c8009958a65612e4e176a,2020-08-06_17h02.58.904,lexical_decision_task_MP,2020.1.3,Win32,60,,0,,,,,,,,0.35,-1,,,,,,311,NW,"ID",50,sproly,SPROLY,z,,,,,,-0.943894389,-0.219471947,0,0,0,,0,140,140,310,1,,
,,,,,,,,,,,,,,,,,5f0c8009958a65612e4e176a,2020-08-06_17h02.58.904,lexical_decision_task_MP,2020.1.3,Win32,60,,0,,,,,,,,0.35,-1,,,,,,247,NW,"ID",33,blarge,BLARGE,z,,,,,,-0.943894389,-0.219471947,0,0,0,,0,141,141,246,1,,
,,,,,,,,,,,,,,,,,5f0c8009958a65612e4e176a,2020-08-06_17h02.58.904,lexical_decision_task_MP,2020.1.3,Win32,60,,0,,,,,,,,0.35,-1,,,,,,332,NW,"ID",50,vangue,VANGUE,z,,,,,,-0.943894389,-0.219471947,0,0,0,,0,142,142,331,1,,
,,,,,,,,,,,,,,,,,5f0c8009958a65612e4e176a,2020-08-06_17h02.58.904,lexical_decision_task_MP,2020.1.3,Win32,60,,0,,,,,,,,0.35,-1,,,,,,412,NW,UN,33,equats,JILUER,z,,,,,,-0.943894389,-0.219471947,0,0,0,,0,143,143,411,1,,
,,,,,,,,,,,,,,,,,5f0c8009958a65612e4e176a,2020-08-06_17h02.58.904,lexical_decision_task_MP,2020.1.3,Win32,60,,0,,,,,,,,0.35,-1,,,,,,436,NW,UN,50,snapel,FRUTAN,z,,,,,,-0.943894389,-0.219471947,0,0,0,,0,144,144,435,1,,
,,,,,,,,,,,,,,,,,5f0c8009958a65612e4e176a,2020-08-06_17h02.58.904,lexical_decision_task_MP,2020.1.3,Win32,60,,0,,,,,,,,0.35,-1,,,,,,77,WORD,"ID",50,racket,RACKET,m,,,,,,-0.943894389,-0.219471947,0,0,0,,0,145,145,76,1,,
,,,,,,,,,,,,,,,,,5f0c8009958a65612e4e176a,2020-08-06_17h02.58.904,lexical_decision_task_MP,2020.1.3,Win32,60,,0,,,,,,,,0.35,-1,,,,,,212,WORD,UN,50,squeal,VERIFY,m,,,,,,-0.943894389,-0.219471947,0,0,0,,0,146,146,211,1,,
,,,,,,,,,,,,,,,,,5f0c8009958a65612e4e176a,2020-08-06_17h02.58.904,lexical_decision_task_MP,2020.1.3,Win32,60,,0,,,,,,,,0.35,-1,,,,,,192,WORD,UN,50,object,PLAGUE,m,,,,,,-0.943894389,-0.219471947,0,0,0,,0,147,147,191,1,,
,,,,,,,,,,,,,,,,,5f0c8009958a65612e4e176a,2020-08-06_17h02.58.904,lexical_decision_task_MP,2020.1.3,Win32,60,,0,,,,,,,,0.35,-1,,,,,,128,WORD,UN,33,marvel,SENIOR,m,,,,,,-0.943894389,-0.219471947,0,0,0,,0,148,148,127,1,,
,,,,,,,,,,,,,,,,,5f0c8009958a65612e4e176a,2020-08-06_17h02.58.904,lexical_decision_task_MP,2020.1.3,Win32,60,,0,,,,,,,,0.35,-1,,,,,,217,WORD,UN,50,shrink,LIQUOR,m,,,,,,-0.943894389,-0.219471947,0,0,0,,0,149,149,216,1,,
,,,,,,,,,,,,,,,,,5f0c8009958a65612e4e176a,2020-08-06_17h02.58.904,lexical_decision_task_MP,2020.1.3,Win32,60,,0,,,,,,,,0.35,-1,,,,,,336,NW,"ID",50,ghodus,GHODUS,z,,,,,,-0.943894389,-0.219471947,0,0,0,,0,150,150,335,1,,
,,,,,,,,,,,,,,,,,5f0c8009958a65612e4e176a,2020-08-06_17h02.58.904,lexical_decision_task_MP,2020.1.3,Win32,60,,0,,,,,,,,0.35,-1,,,,,,364,NW,UN,33,guairt,IMPOTE,z,,,,,,-0.943894389,-0.219471947,0,0,0,,0,151,151,363,1,,
,,,,,,,,,,,,,,,,,5f0c8009958a65612e4e176a,2020-08-06_17h02.58.904,lexical_decision_task_MP,2020.1.3,Win32,60,,0,,,,,,,,0.35,-1,,,,,,132,WORD,UN,33,bleach,STRONG,m,,,,,,-0.943894389,-0.219471947,0,0,0,,0,152,152,131,1,,
,,,,,,,,,,,,,,,,,5f0c8009958a65612e4e176a,2020-08-06_17h02.58.904,lexical_decision_task_MP,2020.1.3,Win32,60,,0,,,,,,,,0.35,-1,,,,,,366,NW,UN,33,slique,TOSHEL,z,,,,,,-0.943894389,-0.219471947,0,0,0,,0,153,153,365,1,,
,,,,,,,,,,,,,,,,,5f0c8009958a65612e4e176a,2020-08-06_17h02.58.904,lexical_decision_task_MP,2020.1.3,Win32,60,,0,,,,,,,,0.35,-1,,,,,,404,NW,UN,33,syntic,CLUIRM,z,,,,,,-0.943894389,-0.219471947,0,0,0,,0,154,154,403,1,,
,,,,,,,,,,,,,,,,,5f0c8009958a65612e4e176a,2020-08-06_17h02.58.904,lexical_decision_task_MP,2020.1.3,Win32,60,,0,,,,,,,,0.35,-1,,,,,,27,WORD,"ID",33,scream,SCREAM,m,,,,,,-0.943894389,-0.219471947,0,0,0,,0,155,155,26,1,,
,,,,,,,,,,,,,,,,,5f0c8009958a65612e4e176a,2020-08-06_17h02.58.904,lexical_decision_task_MP,2020.1.3,Win32,60,,0,,,,,,,,0.35,-1,,,,,,155,WORD,UN,33,cradle,LIZARD,m,,,,,,-0.943894389,-0.219471947,0,0,0,,0,156,156,154,1,,
,,,,,,,,,,,,,,,,,5f0c8009958a65612e4e176a,2020-08-06_17h02.58.904,lexical_decision_task_MP,2020.1.3,Win32,60,,0,,,,,,,,0.35,-1,,,,,,358,NW,"ID",50,fleack,FLEACK,z,,,,,,-0.943894389,-0.219471947,0,0,0,,0,157,157,357,1,,
,,,,,,,,,,,,,,,,,5f0c8009958a65612e4e176a,2020-08-06_17h02.58.904,lexical_decision_task_MP,2020.1.3,Win32,60,,0,,,,,,,,0.35,-1,,,,,,137,WORD,UN,33,melody,FINGER,m,,,,,,-0.943894389,-0.219471947,0,0,0,,0,158,158,136,1,,
,,,,,,,,,,,,,,,,,5f0c8009958a65612e4e176a,2020-08-06_17h02.58.904,lexical_decision_task_MP,2020.1.3,Win32,60,,0,,,,,,,,0.35,-1,,,,,,413,NW,UN,33,serbol,EQUATS,z,,,,,,-0.943894389,-0.219471947,0,0,0,,0,159,159,412,1,,
,,,,,,,,,,,,,,,,,5f0c8009958a65612e4e176a,2020-08-06_17h02.58.904,lexical_decision_task_MP,2020.1.3,Win32,60,,0,,,,,,,,0.35,-1,,,,,,363,NW,UN,33,impote,BREALI,z,,,,,,-0.943894389,-0.219471947,0,0,0,,0,160,160,362,1,,
,,,,,,,,,,,,,,,,,5f0c8009958a65612e4e176a,2020-08-06_17h02.58.904,lexical_decision_task_MP,2020.1.3,Win32,60,,0,,,,,,,,0.35,-1,,,,,,263,NW,"ID",33,dolica,DOLICA,z,,,,,,-0.943894389,-0.219471947,0,0,0,,0,161,161,262,1,,
,,,,,,,,,,,,,,,,,5f0c8009958a65612e4e176a,2020-08-06_17h02.58.904,lexical_decision_task_MP,2020.1.3,Win32,60,,0,,,,,,,,0.35,-1,,,,,,130,WORD,UN,33,quench,STUPID,m,,,,,,-0.943894389,-0.219471947,0,0,0,,0,162,162,129,1,,
,,,,,,,,,,,,,,,,,5f0c8009958a65612e4e176a,2020-08-06_17h02.58.904,lexical_decision_task_MP,2020.1.3,Win32,60,,0,,,,,,,,0.35,-1,,,,,,353,NW,"ID",50,clurey,CLUREY,z,,,,,,-0.943894389,-0.219471947,0,0,0,,0,163,163,352,1,,
,,,,,,,,,,,,,,,,,5f0c8009958a65612e4e176a,2020-08-06_17h02.58.904,lexical_decision_task_MP,2020.1.3,Win32,60,,0,,,,,,,,0.35,-1,,,,,,125,WORD,UN,33,blouse,NICKEL,m,,,,,,-0.943894389,-0.219471947,0,0,0,,0,164,164,124,1,,
,,,,,,,,,,,,,,,,,5f0c8009958a65612e4e176a,2020-08-06_17h02.58.904,lexical_decision_task_MP,2020.1.3,Win32,60,,0,,,,,,,,0.35,-1,,,,,,206,WORD,UN,50,wreath,TAILOR,m,,,,,,-0.943894389,-0.219471947,0,0,0,,0,165,165,205,1,,
,,,,,,,,,,,,,,,,,5f0c8009958a65612e4e176a,2020-08-06_17h02.58.904,lexical_decision_task_MP,2020.1.3,Win32,60,,0,,,,,,,,0.35,-1,,,,,,291,NW,"ID",33,pretch,PRETCH,z,,,,,,-0.943894389,-0.219471947,0,0,0,,0,166,166,290,1,,
,,,,,,,,,,,,,,,,,5f0c8009958a65612e4e176a,2020-08-06_17h02.58.904,lexical_decision_task_MP,2020.1.3,Win32,60,,0,,,,,,,,0.35,-1,,,,,,399,NW,UN,33,wearox,FOURET,z,,,,,,-0.943894389,-0.219471947,0,0,0,,0,167,167,398,1,,
,,,,,,,,,,,,,,,,,5f0c8009958a65612e4e176a,2020-08-06_17h02.58.904,lexical_decision_task_MP,2020.1.3,Win32,60,,0,,,,,,,,0.35,-1,,,,,,6,WORD,"ID",33,bundle,BUNDLE,m,,,,,,-0.943894389,-0.219471947,0,0,0,,0,168,168,5,1,,
,,,,,,,,,,,,,,,,,5f0c8009958a65612e4e176a,2020-08-06_17h02.58.904,lexical_decision_task_MP,2020.1.3,Win32,60,,0,,,,,,,,0.35,-1,,,,,,451,NW,UN,50,surden,CAINKY,z,,,,,,-0.943894389,-0.219471947,0,0,0,,0,169,169,450,1,,
,,,,,,,,,,,,,,,,,5f0c8009958a65612e4e176a,2020-08-06_17h02.58.904,lexical_decision_task_MP,2020.1.3,Win32,60,,0,,,,,,,,0.35,-1,,,,,,21,WORD,"ID",33,simple,SIMPLE,m,,,,,,-0.943894389,-0.219471947,0,0,0,,0,170,170,20,1,,
,,,,,,,,,,,,,,,,,5f0c8009958a65612e4e176a,2020-08-06_17h02.58.904,lexical_decision_task_MP,2020.1.3,Win32,60,,0,,,,,,,,0.35,-1,,,,,,312,NW,"ID",50,nerawl,NERAWL,z,,,,,,-0.943894389,-0.219471947,0,0,0,,0,171,171,311,1,,
,,,,,,,,,,,,,,,,,5f0c8009958a65612e4e176a,2020-08-06_17h02.58.904,lexical_decision_task_MP,2020.1.3,Win32,60,,0,,,,,,,,0.35,-1,,,,,,90,WORD,"ID",50,relish,RELISH,m,,,,,,-0.943894389,-0.219471947,0,0,0,,0,172,172,89,1,,
,,,,,,,,,,,,,,,,,5f0c8009958a65612e4e176a,2020-08-06_17h02.58.904,lexical_decision_task_MP,2020.1.3,Win32,60,,0,,,,,,,,0.35,-1,,,,,,84,WORD,"ID",50,mortal,MORTAL,m,,,,,,-0.943894389,-0.219471947,0,0,0,,0,173,173,83,1,,
,,,,,,,,,,,,,,,,,5f0c8009958a65612e4e176a,2020-08-06_17h02.58.904,lexical_decision_task_MP,2020.1.3,Win32,60,,0,,,,,,,,0.35,-1,,,,,,460,NW,UN,50,justre,MINGAR,z,,,,,,-0.943894389,-0.219471947,0,0,0,,0,174,174,459,1,,
,,,,,,,,,,,,,,,,,5f0c8009958a65612e4e176a,2020-08-06_17h02.58.904,lexical_decision_task_MP,2020.1.3,Win32,60,,0,,,,,,,,0.35,-1,,,,,,255,NW,"ID",33,apight,APIGHT,z,,,,,,-0.943894389,-0.219471947,0,0,0,,0,175,175,254,1,,
,,,,,,,,,,,,,,,,,5f0c8009958a65612e4e176a,2020-08-06_17h02.58.904,lexical_decision_task_MP,2020.1.3,Win32,60,,0,,,,,,,,0.35,-1,,,,,,396,NW,UN,33,camble,FLENGY,z,,,,,,-0.943894389,-0.219471947,0,0,0,,0,176,176,395,1,,
,,,,,,,,,,,,,,,,,5f0c8009958a65612e4e176a,2020-08-06_17h02.58.904,lexical_decision_task_MP,2020.1.3,Win32,60,,0,,,,,,,,0.35,-1,,,,,,281,NW,"ID",33,melaty,MELATY,z,,,,,,-0.943894389,-0.219471947,0,0,0,,0,177,177,280,1,,
,,,,,,,,,,,,,,,,,5f0c8009958a65612e4e176a,2020-08-06_17h02.58.904,lexical_decision_task_MP,2020.1.3,Win32,60,,0,,,,,,,,0.35,-1,,,,,,233,WORD,UN,50,clumsy,NATURE,m,,,,,,-0.943894389,-0.219471947,0,0,0,,0,178,178,232,1,,
,,,,,,,,,,,,,,,,,5f0c8009958a65612e4e176a,2020-08-06_17h02.58.904,lexical_decision_task_MP,2020.1.3,Win32,60,,0,,,,,,,,0.35,-1,,,,,,259,NW,"ID",33,soudal,SOUDAL,z,,,,,,-0.943894389,-0.219471947,0,0,0,,0,179,179,258,1,,
,,,,,,,,,,,,,,,,,5f0c8009958a65612e4e176a,2020-08-06_17h02.58.904,lexical_decision_task_MP,2020.1.3,Win32,60,,0,,,,,,,,0.35,-1,,,,,,328,NW,"ID",50,broake,BROAKE,z,,,,,,-0.943894389,-0.219471947,0,0,0,,0,180,180,327,1,,
,,,,,,,,,,,,,,,,,5f0c8009958a65612e4e176a,2020-08-06_17h02.58.904,lexical_decision_task_MP,2020.1.3,Win32,60,,0,,,,,,,,0.35,-1,,,,,,159,WORD,UN,33,violet,DETAIL,m,,,,,,-0.943894389,-0.219471947,0,0,0,,0,181,181,158,1,,
,,,,,,,,,,,,,,,,,5f0c8009958a65612e4e176a,2020-08-06_17h02.58.904,lexical_decision_task_MP,2020.1.3,Win32,60,,0,,,,,,,,0.35,-1,,,,,,104,WORD,"ID",50,studio,STUDIO,m,,,,,,-0.943894389,-0.219471947,0,0,0,,0,182,182,103,1,,
,,,,,,,,,,,,,,,,,5f0c8009958a65612e4e176a,2020-08-06_17h02.58.904,lexical_decision_task_MP,2020.1.3,Win32,60,,0,,,,,,,,0.35,-1,,,,,,314,NW,"ID",50,sprine,SPRINE,z,,,,,,-0.943894389,-0.219471947,0,0,0,,0,183,183,313,1,,
,,,,,,,,,,,,,,,,,5f0c8009958a65612e4e176a,2020-08-06_17h02.58.904,lexical_decision_task_MP,2020.1.3,Win32,60,,0,,,,,,,,0.35,-1,,,,,,334,NW,"ID",50,watmeg,WATMEG,z,,,,,,-0.943894389,-0.219471947,0,0,0,,0,184,184,333,1,,
,,,,,,,,,,,,,,,,,5f0c8009958a65612e4e176a,2020-08-06_17h02.58.904,lexical_decision_task_MP,2020.1.3,Win32,60,,0,,,,,,,,0.35,-1,,,,,,106,WORD,"ID",50,ransom,RANSOM,m,,,,,,-0.943894389,-0.219471947,0,0,0,,0,185,185,105,1,,
,,,,,,,,,,,,,,,,,5f0c8009958a65612e4e176a,2020-08-06_17h02.58.904,lexical_decision_task_MP,2020.1.3,Win32,60,,0,,,,,,,,0.35,-1,,,,,,144,WORD,UN,33,parish,SPONGE,m,,,,,,-0.943894389,-0.219471947,0,0,0,,0,186,186,143,1,,
,,,,,,,,,,,,,,,,,5f0c8009958a65612e4e176a,2020-08-06_17h02.58.904,lexical_decision_task_MP,2020.1.3,Win32,60,,0,,,,,,,,0.35,-1,,,,,,28,WORD,"ID",33,comedy,COMEDY,m,,,,,,-0.943894389,-0.219471947,0,0,0,,0,187,187,27,1,,
,,,,,,,,,,,,,,,,,5f0c8009958a65612e4e176a,2020-08-06_17h02.58.904,lexical_decision_task_MP,2020.1.3,Win32,60,,0,,,,,,,,0.35,-1,,,,,,244,NW,"ID",33,eatric,EATRIC,z,,,,,,-0.943894389,-0.219471947,0,0,0,,0,188,188,243,1,,
,,,,,,,,,,,,,,,,,5f0c8009958a65612e4e176a,2020-08-06_17h02.58.904,lexical_decision_task_MP,2020.1.3,Win32,60,,0,,,,,,,,0.35,-1,,,,,,367,NW,UN,33,hornal,SLIQUE,z,,,,,,-0.943894389,-0.219471947,0,0,0,,0,189,189,366,1,,
,,,,,,,,,,,,,,,,,5f0c8009958a65612e4e176a,2020-08-06_17h02.58.904,lexical_decision_task_MP,2020.1.3,Win32,60,,0,,,,,,,,0.35,-1,,,,,,301,NW,"ID",50,fainch,FAINCH,z,,,,,,-0.943894389,-0.219471947,0,0,0,,0,190,190,300,1,,
,,,,,,,,,,,,,,,,,5f0c8009958a65612e4e176a,2020-08-06_17h02.58.904,lexical_decision_task_MP,2020.1.3,Win32,60,,0,,,,,,,,0.35,-1,,,,,,348,NW,"ID",50,dumple,DUMPLE,z,,,,,,-0.943894389,-0.219471947,0,0,0,,0,191,191,347,1,,
,,,,,,,,,,,,,,,,,5f0c8009958a65612e4e176a,2020-08-06_17h02.58.904,lexical_decision_task_MP,2020.1.3,Win32,60,,0,,,,,,,,0.35,-1,,,,,,91,WORD,"ID",50,expand,EXPAND,m,,,,,,-0.943894389,-0.219471947,0,0,0,,0,192,192,90,1,,
,,,,,,,,,,,,,,,,,5f0c8009958a65612e4e176a,2020-08-06_17h02.58.904,lexical_decision_task_MP,2020.1.3,Win32,60,,0,,,,,,,,0.35,-1,,,,,,111,WORD,"ID",50,induce,INDUCE,m,,,,,,-0.943894389,-0.219471947,0,0,0,,0,193,193,110,1,,
,,,,,,,,,,,,,,,,,5f0c8009958a65612e4e176a,2020-08-06_17h02.58.904,lexical_decision_task_MP,2020.1.3,Win32,60,,0,,,,,,,,0.35,-1,,,,,,71,WORD,"ID",50,garden,GARDEN,m,,,,,,-0.943894389,-0.219471947,0,0,0,,0,194,194,70,1,,
,,,,,,,,,,,,,,,,,5f0c8009958a65612e4e176a,2020-08-06_17h02.58.904,lexical_decision_task_MP,2020.1.3,Win32,60,,0,,,,,,,,0.35,-1,,,,,,305,NW,"ID",50,forgle,FORGLE,z,,,,,,-0.943894389,-0.219471947,0,0,0,,0,195,195,304,1,,
,,,,,,,,,,,,,,,,,5f0c8009958a65612e4e176a,2020-08-06_17h02.58.904,lexical_decision_task_MP,2020.1.3,Win32,60,,0,,,,,,,,0.35,-1,,,,,,17,WORD,"ID",33,charge,CHARGE,m,,,,,,-0.943894389,-0.219471947,0,0,0,,0,196,196,16,1,,
,,,,,,,,,,,,,,,,,5f0c8009958a65612e4e176a,2020-08-06_17h02.58.904,lexical_decision_task_MP,2020.1.3,Win32,60,,0,,,,,,,,0.35,-1,,,,,,411,NW,UN,33,jiluer,ORCHIN,z,,,,,,-0.943894389,-0.219471947,0,0,0,,0,197,197,410,1,,
,,,,,,,,,,,,,,,,,5f0c8009958a65612e4e176a,2020-08-06_17h02.58.904,lexical_decision_task_MP,2020.1.3,Win32,60,,0,,,,,,,,0.35,-1,,,,,,464,NW,UN,50,whivex,CHAITE,z,,,,,,-0.943894389,-0.219471947,0,0,0,,0,198,198,463,1,,
,,,,,,,,,,,,,,,,,5f0c8009958a65612e4e176a,2020-08-06_17h02.58.904,lexical_decision_task_MP,2020.1.3,Win32,60,,0,,,,,,,,0.35,-1,,,,,,59,WORD,"ID",33,splint,SPLINT,m,,,,,,-0.943894389,-0.219471947,0,0,0,,0,199,199,58,1,,
,,,,,,,,,,,,,,,,,5f0c8009958a65612e4e176a,2020-08-06_17h02.58.904,lexical_decision_task_MP,2020.1.3,Win32,60,,0,,,,,,,,0.35,-1,,,,,,56,WORD,"ID",33,ambush,AMBUSH,m,,,,,,-0.943894389,-0.219471947,0,0,0,,0,200,200,55,1,,
,,,,,,,,,,,,,,,,,5f0c8009958a65612e4e176a,2020-08-06_17h02.58.904,lexical_decision_task_MP,2020.1.3,Win32,60,,0,,,,,,,,0.35,-1,,,,,,150,WORD,UN,33,mystic,RANDOM,m,,,,,,-0.943894389,-0.219471947,0,0,0,,0,201,201,149,1,,
,,,,,,,,,,,,,,,,,5f0c8009958a65612e4e176a,2020-08-06_17h02.58.904,lexical_decision_task_MP,2020.1.3,Win32,60,,0,,,,,,,,0.35,-1,,,,,,379,NW,UN,33,cavory,AUTING,z,,,,,,-0.943894389,-0.219471947,0,0,0,,0,202,202,378,1,,
,,,,,,,,,,,,,,,,,5f0c8009958a65612e4e176a,2020-08-06_17h02.58.904,lexical_decision_task_MP,2020.1.3,Win32,60,,0,,,,,,,,0.35,-1,,,,,,250,NW,"ID",33,milted,MILTED,z,,,,,,-0.943894389,-0.219471947,0,0,0,,0,203,203,249,1,,
,,,,,,,,,,,,,,,,,5f0c8009958a65612e4e176a,2020-08-06_17h02.58.904,lexical_decision_task_MP,2020.1.3,Win32,60,,0,,,,,,,,0.35,-1,,,,,,428,NW,UN,50,chrums,TANDLY,z,,,,,,-0.943894389,-0.219471947,0,0,0,,0,204,204,427,1,,
,,,,,,,,,,,,,,,,,5f0c8009958a65612e4e176a,2020-08-06_17h02.58.904,lexical_decision_task_MP,2020.1.3,Win32,60,,0,,,,,,,,0.35,-1,,,,,,414,NW,UN,33,higsta,SERBOL,z,,,,,,-0.943894389,-0.219471947,0,0,0,,0,205,205,413,1,,
,,,,,,,,,,,,,,,,,5f0c8009958a65612e4e176a,2020-08-06_17h02.58.904,lexical_decision_task_MP,2020.1.3,Win32,60,,0,,,,,,,,0.35,-1,,,,,,101,WORD,"ID",50,wrench,WRENCH,m,,,,,,-0.943894389,-0.219471947,0,0,0,,0,206,206,100,1,,
,,,,,,,,,,,,,,,,,5f0c8009958a65612e4e176a,2020-08-06_17h02.58.904,lexical_decision_task_MP,2020.1.3,Win32,60,,0,,,,,,,,0.35,-1,,,,,,166,WORD,UN,33,design,STARCH,m,,,,,,-0.943894389,-0.219471947,0,0,0,,0,207,207,165,1,,
,,,,,,,,,,,,,,,,,5f0c8009958a65612e4e176a,2020-08-06_17h02.58.904,lexical_decision_task_MP,2020.1.3,Win32,60,,0,,,,,,,,0.35,-1,,,,,,381,NW,UN,33,sarley,HUNIEK,z,,,,,,-0.943894389,-0.219471947,0,0,0,,0,208,208,380,1,,
,,,,,,,,,,,,,,,,,5f0c8009958a65612e4e176a,2020-08-06_17h02.58.904,lexical_decision_task_MP,2020.1.3,Win32,60,,0,,,,,,,,0.35,-1,,,,,,134,WORD,UN,33,import,STAPLE,m,,,,,,-0.943894389,-0.219471947,0,0,0,,0,209,209,133,1,,
,,,,,,,,,,,,,,,,,5f0c8009958a65612e4e176a,2020-08-06_17h02.58.904,lexical_decision_task_MP,2020.1.3,Win32,60,,0,,,,,,,,0.35,-1,,,,,,330,NW,"ID",50,kensom,KENSOM,z,,,,,,-0.943894389,-0.219471947,0,0,0,,0,210,210,329,1,,
,,,,,,,,,,,,,,,,,5f0c8009958a65612e4e176a,2020-08-06_17h02.58.904,lexical_decision_task_MP,2020.1.3,Win32,60,,0,,,,,,,,0.35,-1,,,,,,188,WORD,UN,50,censor,SOCIAL,m,,,,,,-0.943894389,-0.219471947,0,0,0,,0,211,211,187,1,,
,,,,,,,,,,,,,,,,,5f0c8009958a65612e4e176a,2020-08-06_17h02.58.904,lexical_decision_task_MP,2020.1.3,Win32,60,,0,,,,,,,,0.35,-1,,,,,,410,NW,UN,33,orchin,TUNORY,z,,,,,,-0.943894389,-0.219471947,0,0,0,,0,212,212,409,1,,
,,,,,,,,,,,,,,,,,5f0c8009958a65612e4e176a,2020-08-06_17h02.58.904,lexical_decision_task_MP,2020.1.3,Win32,60,,0,,,,,,,,0.35,-1,,,,,,293,NW,"ID",33,swance,SWANCE,z,,,,,,-0.943894389,-0.219471947,0,0,0,,0,213,213,292,1,,
,,,,,,,,,,,,,,,,,5f0c8009958a65612e4e176a,2020-08-06_17h02.58.904,lexical_decision_task_MP,2020.1.3,Win32,60,,0,,,,,,,,0.35,-1,,,,,,35,WORD,"ID",33,socket,SOCKET,m,,,,,,-0.943894389,-0.219471947,0,0,0,,0,214,214,34,1,,
,,,,,,,,,,,,,,,,,5f0c8009958a65612e4e176a,2020-08-06_17h02.58.904,lexical_decision_task_MP,2020.1.3,Win32,60,,0,,,,,,,,0.35,-1,,,,,,100,WORD,"ID",50,carbon,CARBON,m,,,,,,-0.943894389,-0.219471947,0,0,0,,0,215,215,99,1,,
,,,,,,,,,,,,,,,,,5f0c8009958a65612e4e176a,2020-08-06_17h02.58.904,lexical_decision_task_MP,2020.1.3,Win32,60,,0,,,,,,,,0.35,-1,,,,,,105,WORD,"ID",50,number,NUMBER,m,,,,,,-0.943894389,-0.219471947,0,0,0,,0,216,216,104,1,,
,,,,,,,,,,,,,,,,,5f0c8009958a65612e4e176a,2020-08-06_17h02.58.904,lexical_decision_task_MP,2020.1.3,Win32,60,,0,,,,,,,,0.35,-1,,,,,,299,NW,"ID",33,sturch,STURCH,z,,,,,,-0.943894389,-0.219471947,0,0,0,,0,217,217,298,1,,
,,,,,,,,,,,,,,,,,5f0c8009958a65612e4e176a,2020-08-06_17h02.58.904,lexical_decision_task_MP,2020.1.3,Win32,60,,0,,,,,,,,0.35,-1,,,,,,146,WORD,UN,33,garlic,COUPLE,m,,,,,,-0.943894389,-0.219471947,0,0,0,,0,218,218,145,1,,
,,,,,,,,,,,,,,,,,5f0c8009958a65612e4e176a,2020-08-06_17h02.58.904,lexical_decision_task_MP,2020.1.3,Win32,60,,0,,,,,,,,0.35,-1,,,,,,197,WORD,UN,50,wicked,STREAM,m,,,,,,-0.943894389,-0.219471947,0,0,0,,0,219,219,196,1,,
,,,,,,,,,,,,,,,,,5f0c8009958a65612e4e176a,2020-08-06_17h02.58.904,lexical_decision_task_MP,2020.1.3,Win32,60,,0,,,,,,,,0.35,-1,,,,,,165,WORD,UN,33,starch,INVEST,m,,,,,,-0.943894389,-0.219471947,0,0,0,,0,220,220,164,1,,
,,,,,,,,,,,,,,,,,5f0c8009958a65612e4e176a,2020-08-06_17h02.58.904,lexical_decision_task_MP,2020.1.3,Win32,60,,0,,,,,,,,0.35,-1,,,,,,290,NW,"ID",33,splino,SPLINO,z,,,,,,-0.943894389,-0.219471947,0,0,0,,0,221,221,289,1,,
,,,,,,,,,,,,,,,,,5f0c8009958a65612e4e176a,2020-08-06_17h02.58.904,lexical_decision_task_MP,2020.1.3,Win32,60,,0,,,,,,,,0.35,-1,,,,,,423,NW,UN,50,praile,STRELD,z,,,,,,-0.943894389,-0.219471947,0,0,0,,0,222,222,422,1,,
,,,,,,,,,,,,,,,,,5f0c8009958a65612e4e176a,2020-08-06_17h02.58.904,lexical_decision_task_MP,2020.1.3,Win32,60,,0,,,,,,,,0.35,-1,,,,,,456,NW,UN,50,wanigh,BROGET,z,,,,,,-0.943894389,-0.219471947,0,0,0,,0,223,223,455,1,,
,,,,,,,,,,,,,,,,,5f0c8009958a65612e4e176a,2020-08-06_17h02.58.904,lexical_decision_task_MP,2020.1.3,Win32,60,,0,,,,,,,,0.35,-1,,,,,,270,NW,"ID",33,wrimsy,WRIMSY,z,,,,,,-0.943894389,-0.219471947,0,0,0,,0,224,224,269,1,,
,,,,,,,,,,,,,,,,,5f0c8009958a65612e4e176a,2020-08-06_17h02.58.904,lexical_decision_task_MP,2020.1.3,Win32,60,,0,,,,,,,,0.35,-1,,,,,,199,WORD,UN,50,beacon,INVOKE,m,,,,,,-0.943894389,-0.219471947,0,0,0,,0,225,225,198,1,,
,,,,,,,,,,,,,,,,,5f0c8009958a65612e4e176a,2020-08-06_17h02.58.904,lexical_decision_task_MP,2020.1.3,Win32,60,,0,,,,,,,,0.35,-1,,,,,,186,WORD,UN,50,course,PORTAL,m,,,,,,0.125412541,-0.061056106,0,0,0,,0,226,226,185,1,,
,,,,,,,,,,,,,,,,,5f0c8009958a65612e4e176a,2020-08-06_17h02.58.904,lexical_decision_task_MP,2020.1.3,Win32,60,m,0,,,,,,,,0.077,0,,,,,,374,NW,UN,33,yorque,SLIANT,z,,,,,,0.125412541,-0.061056106,0,0,0,,0,227,227,373,1,,0.077
,,,,,,,,,,,,,,,,,5f0c8009958a65612e4e176a,2020-08-06_17h02.58.904,lexical_decision_task_MP,2020.1.3,Win32,60,m,1,,,,,,,,0.099,1,,,,,,92,WORD,"ID",50,strand,STRAND,m,,,,,,0.125412541,-0.061056106,0,0,0,,0,228,228,91,1,,0.099
,,,,,,,,,,,,,,,,,5f0c8009958a65612e4e176a,2020-08-06_17h02.58.904,lexical_decision_task_MP,2020.1.3,Win32,60,m,0,,,,,,,,0.183,0,,,,,,420,NW,UN,33,pauche,GUSHOP,z,,,,,,0.125412541,-0.061056106,0,0,0,,0,229,229,419,1,,0.183
,,,,,,,,,,,,,,,,,5f0c8009958a65612e4e176a,2020-08-06_17h02.58.904,lexical_decision_task_MP,2020.1.3,Win32,60,m,1,,,,,,,,0.024,1,,,,,,118,WORD,"ID",50,flight,FLIGHT,m,,,,,,0.125412541,-0.061056106,0,0,0,,0,230,230,117,1,,0.024
,,,,,,,,,,,,,,,,,5f0c8009958a65612e4e176a,2020-08-06_17h02.58.904,lexical_decision_task_MP,2020.1.3,Win32,60,m,1,,,,,,,,0.024,1,,,,,,218,WORD,UN,50,bucket,SHRINK,m,,,,,,0.125412541,-0.061056106,0,0,0,,0,231,231,217,1,,0.024
,,,,,,,,,,,,,,,,,5f0c8009958a65612e4e176a,2020-08-06_17h02.58.904,lexical_decision_task_MP,2020.1.3,Win32,60,m,0,,,,,,,,0.058,0,,,,,,352,NW,"ID",50,tringe,TRINGE,z,,,,,,0.125412541,-0.061056106,0,0,0,,0,232,232,351,1,,0.058
,,,,,,,,,,,,,,,,,5f0c8009958a65612e4e176a,2020-08-06_17h02.58.904,lexical_decision_task_MP,2020.1.3,Win32,60,m,0,,,,,,,,0.212,0,,,,,,402,NW,UN,33,bruats,SYNTIC,z,,,,,,0.125412541,-0.061056106,0,0,0,,0,233,233,401,1,,0.212
,,,,,,,,,,,,,,,,,5f0c8009958a65612e4e176a,2020-08-06_17h02.58.904,lexical_decision_task_MP,2020.1.3,Win32,60,m,1,,,,,,,,0.034,1,,,,,,190,WORD,UN,50,stable,BACKUP,m,,,,,,0.125412541,-0.061056106,0,0,0,,0,234,234,189,1,,0.034
,,,,,,,,,,,,,,,,,5f0c8009958a65612e4e176a,2020-08-06_17h02.58.904,lexical_decision_task_MP,2020.1.3,Win32,60,m,1,,,,,,,,0.178,1,,,,,,5,WORD,"ID",33,plunge,PLUNGE,m,,,,,,0.125412541,-0.061056106,0,0,0,,0,235,235,4,1,,0.178
,,,,,,,,,,,,,,,,,5f0c8009958a65612e4e176a,2020-08-06_17h02.58.904,lexical_decision_task_MP,2020.1.3,Win32,60,m,0,,,,,,,,0.14,0,,,,,,385,NW,UN,33,ancust,VEIGMA,z,,,,,,0.125412541,-0.061056106,0,0,0,,0,236,236,384,1,,0.14
,,,,,,,,,,,,,,,,,5f0c8009958a65612e4e176a,2020-08-06_17h02.58.904,lexical_decision_task_MP,2020.1.3,Win32,60,m,1,,,,,,,,0.152,1,,,,,,142,WORD,UN,33,orphan,SPRUCE,m,,,,,,0.125412541,-0.061056106,0,0,0,,0,237,237,141,1,,0.152
,,,,,,,,,,,,,,,,,5f0c8009958a65612e4e176a,2020-08-06_17h02.58.904,lexical_decision_task_MP,2020.1.3,Win32,60,m,1,,,,,,,,0.266,1,,,,,,228,WORD,UN,50,inject,MASTER,m,,,,,,0.125412541,-0.061056106,0,0,0,,0,238,238,227,1,,0.266
,,,,,,,,,,,,,,,,,5f0c8009958a65612e4e176a,2020-08-06_17h02.58.904,lexical_decision_task_MP,2020.1.3,Win32,60,m,1,,,,,,,,0.369,1,,,,,,7,WORD,"ID",33,anchor,ANCHOR,m,,,,,,0.125412541,-0.061056106,0,0,0,,0,239,239,6,1,,0.369
,,,,,,,,,,,,,,,,,5f0c8009958a65612e4e176a,2020-08-06_17h02.58.904,lexical_decision_task_MP,2020.1.3,Win32,60,m,1,,,,,,,,0.353,1,,,,,,140,WORD,UN,33,reason,PRINCE,m,,,,,,0.125412541,-0.061056106,0,0,0,,0,240,240,139,1,,0.353
,,,,,,,,,,,,,,,,,5f0c8009958a65612e4e176a,2020-08-06_17h02.58.904,lexical_decision_task_MP,2020.1.3,Win32,60,m,1,,,,,,,,0.479,1,,,,,,167,WORD,UN,33,answer,DESIGN,m,,,,,,0.052805281,-0.364686469,1,0,0,,0,241,241,166,1,break_done_button,0.479
,,,,,,,,,,,,,,,,,5f0c8009958a65612e4e176a,2020-08-06_17h02.58.904,lexical_decision_task_MP,2020.1.3,Win32,60,m,1,,,,,,,,0.895,1,,,,,,66,WORD,"ID",50,gospel,GOSPEL,m,,,,,,-0.310231023,-0.193069307,0,0,0,,0,242,242,65,1,,0.895
,,,,,,,,,,,,,,,,,5f0c8009958a65612e4e176a,2020-08-06_17h02.58.904,lexical_decision_task_MP,2020.1.3,Win32,60,m,1,,,,,,,,0.132,1,,,,,,110,WORD,"ID",50,polite,POLITE,m,,,,,,-0.310231023,-0.193069307,0,0,0,,0,243,243,109,1,,0.132
,,,,,,,,,,,,,,,,,5f0c8009958a65612e4e176a,2020-08-06_17h02.58.904,lexical_decision_task_MP,2020.1.3,Win32,60,m,0,,,,,,,,0.812,0,,,,,,296,NW,"ID",33,beinch,BEINCH,z,,,,,,-0.310231023,-0.193069307,0,0,0,,0,244,244,295,1,,0.812
,,,,,,,,,,,,,,,,,5f0c8009958a65612e4e176a,2020-08-06_17h02.58.904,lexical_decision_task_MP,2020.1.3,Win32,60,m,1,,,,,,,,0.023,1,,,,,,181,WORD,UN,50,winter,GLANCE,m,,,,,,-0.310231023,-0.193069307,0,0,0,,0,245,245,180,1,,0.023
,,,,,,,,,,,,,,,,,5f0c8009958a65612e4e176a,2020-08-06_17h02.58.904,lexical_decision_task_MP,2020.1.3,Win32,60,m,0,,,,,,,,0.06,0,,,,,,415,NW,UN,33,pathel,HIGSTA,z,,,,,,-0.310231023,-0.193069307,0,0,0,,0,246,246,414,1,,0.06
,,,,,,,,,,,,,,,,,5f0c8009958a65612e4e176a,2020-08-06_17h02.58.904,lexical_decision_task_MP,2020.1.3,Win32,60,m,0,,,,,,,,0.121,0,,,,,,458,NW,UN,50,chaite,BARCET,z,,,,,,-0.310231023,-0.193069307,0,0,0,,0,247,247,457,1,,0.121
,,,,,,,,,,,,,,,,,5f0c8009958a65612e4e176a,2020-08-06_17h02.58.904,lexical_decision_task_MP,2020.1.3,Win32,60,m,0,,,,,,,,0.212,0,,,,,,435,NW,UN,50,frutan,IMPURB,z,,,,,,-0.310231023,-0.193069307,0,0,0,,0,248,248,434,1,,0.212
,,,,,,,,,,,,,,,,,5f0c8009958a65612e4e176a,2020-08-06_17h02.58.904,lexical_decision_task_MP,2020.1.3,Win32,60,m,0,,,,,,,,0.302,0,,,,,,372,NW,UN,33,bigent,RAMILY,z,,,,,,-0.310231023,-0.193069307,0,0,0,,0,249,249,371,1,,0.302
,,,,,,,,,,,,,,,,,5f0c8009958a65612e4e176a,2020-08-06_17h02.58.904,lexical_decision_task_MP,2020.1.3,Win32,60,m,1,,,,,,,,0.106,1,,,,,,133,WORD,UN,33,debris,CHROME,m,,,,,,-0.310231023,-0.193069307,0,0,0,,0,250,250,132,1,,0.106
,,,,,,,,,,,,,,,,,5f0c8009958a65612e4e176a,2020-08-06_17h02.58.904,lexical_decision_task_MP,2020.1.3,Win32,60,m,1,,,,,,,,0.07,1,,,,,,240,WORD,UN,50,glance,FOREST,m,,,,,,-0.310231023,-0.193069307,0,0,0,,0,251,251,239,1,,0.07
,,,,,,,,,,,,,,,,,5f0c8009958a65612e4e176a,2020-08-06_17h02.58.904,lexical_decision_task_MP,2020.1.3,Win32,60,,0,,,,,,,,0.07,-1,,,,,,99,WORD,"ID",50,fluent,FLUENT,m,,,,,,-0.310231023,-0.193069307,0,0,0,,0,252,252,98,1,,
,,,,,,,,,,,,,,,,,5f0c8009958a65612e4e176a,2020-08-06_17h02.58.904,lexical_decision_task_MP,2020.1.3,Win32,60,,0,,,,,,,,0.07,-1,,,,,,324,NW,"ID",50,steikh,STEIKH,z,,,,,,-0.310231023,-0.193069307,0,0,0,,0,253,253,323,1,,
,,,,,,,,,,,,,,,,,5f0c8009958a65612e4e176a,2020-08-06_17h02.58.904,lexical_decision_task_MP,2020.1.3,Win32,60,,0,,,,,,,,0.07,-1,,,,,,41,WORD,"ID",33,spring,SPRING,m,,,,,,-0.310231023,-0.193069307,0,0,0,,0,254,254,40,1,,
,,,,,,,,,,,,,,,,,5f0c8009958a65612e4e176a,2020-08-06_17h02.58.904,lexical_decision_task_MP,2020.1.3,Win32,60,,0,,,,,,,,0.07,-1,,,,,,36,WORD,"ID",33,vanish,VANISH,m,,,,,,-0.310231023,-0.193069307,0,0,0,,0,255,255,35,1,,
,,,,,,,,,,,,,,,,,5f0c8009958a65612e4e176a,2020-08-06_17h02.58.904,lexical_decision_task_MP,2020.1.3,Win32,60,,0,,,,,,,,0.07,-1,,,,,,421,NW,UN,50,alcoud,KNISMA,z,,,,,,-0.310231023,-0.193069307,0,0,0,,0,256,256,420,1,,
,,,,,,,,,,,,,,,,,5f0c8009958a65612e4e176a,2020-08-06_17h02.58.904,lexical_decision_task_MP,2020.1.3,Win32,60,,0,,,,,,,,0.07,-1,,,,,,160,WORD,UN,33,dragon,VIOLET,m,,,,,,-0.310231023,-0.193069307,0,0,0,,0,257,257,159,1,,
,,,,,,,,,,,,,,,,,5f0c8009958a65612e4e176a,2020-08-06_17h02.58.904,lexical_decision_task_MP,2020.1.3,Win32,60,,0,,,,,,,,0.07,-1,,,,,,448,NW,UN,50,brunge,SADENT,z,,,,,,-0.310231023,-0.193069307,0,0,0,,0,258,258,447,1,,
,,,,,,,,,,,,,,,,,5f0c8009958a65612e4e176a,2020-08-06_17h02.58.904,lexical_decision_task_MP,2020.1.3,Win32,60,,0,,,,,,,,0.07,-1,,,,,,463,NW,UN,50,bafent,KISPEL,z,,,,,,-0.310231023,-0.193069307,0,0,0,,0,259,259,462,1,,
,,,,,,,,,,,,,,,,,5f0c8009958a65612e4e176a,2020-08-06_17h02.58.904,lexical_decision_task_MP,2020.1.3,Win32,60,,0,,,,,,,,0.07,-1,,,,,,251,NW,"ID",33,lupict,LUPICT,z,,,,,,-0.310231023,-0.193069307,0,0,0,,0,260,260,250,1,,
,,,,,,,,,,,,,,,,,5f0c8009958a65612e4e176a,2020-08-06_17h02.58.904,lexical_decision_task_MP,2020.1.3,Win32,60,,0,,,,,,,,0.07,-1,,,,,,103,WORD,"ID",50,bounce,BOUNCE,m,,,,,,-0.310231023,-0.193069307,0,0,0,,0,261,261,102,1,,
,,,,,,,,,,,,,,,,,5f0c8009958a65612e4e176a,2020-08-06_17h02.58.904,lexical_decision_task_MP,2020.1.3,Win32,60,,0,,,,,,,,0.07,-1,,,,,,389,NW,UN,33,hatrus,WITMER,z,,,,,,-0.310231023,-0.193069307,0,0,0,,0,262,262,388,1,,
,,,,,,,,,,,,,,,,,5f0c8009958a65612e4e176a,2020-08-06_17h02.58.904,lexical_decision_task_MP,2020.1.3,Win32,60,,0,,,,,,,,0.07,-1,,,,,,62,WORD,"ID",50,region,REGION,m,,,,,,-0.310231023,-0.193069307,0,0,0,,0,263,263,61,1,,
,,,,,,,,,,,,,,,,,5f0c8009958a65612e4e176a,2020-08-06_17h02.58.904,lexical_decision_task_MP,2020.1.3,Win32,60,,0,,,,,,,,0.07,-1,,,,,,196,WORD,UN,50,stream,CREDIT,m,,,,,,-0.310231023,-0.193069307,0,0,0,,0,264,264,195,1,,
,,,,,,,,,,,,,,,,,5f0c8009958a65612e4e176a,2020-08-06_17h02.58.904,lexical_decision_task_MP,2020.1.3,Win32,60,,0,,,,,,,,0.07,-1,,,,,,339,NW,"ID",50,fachow,FACHOW,z,,,,,,-0.310231023,-0.193069307,0,0,0,,0,265,265,338,1,,
,,,,,,,,,,,,,,,,,5f0c8009958a65612e4e176a,2020-08-06_17h02.58.904,lexical_decision_task_MP,2020.1.3,Win32,60,,0,,,,,,,,0.07,-1,,,,,,174,WORD,UN,33,fabric,TURKEY,m,,,,,,-0.310231023,-0.193069307,0,0,0,,0,266,266,173,1,,
,,,,,,,,,,,,,,,,,5f0c8009958a65612e4e176a,2020-08-06_17h02.58.904,lexical_decision_task_MP,2020.1.3,Win32,60,,0,,,,,,,,0.07,-1,,,,,,238,WORD,UN,50,grumpy,FLOWER,m,,,,,,-0.310231023,-0.193069307,0,0,0,,0,267,267,237,1,,
,,,,,,,,,,,,,,,,,5f0c8009958a65612e4e176a,2020-08-06_17h02.58.904,lexical_decision_task_MP,2020.1.3,Win32,60,,0,,,,,,,,0.07,-1,,,,,,440,NW,UN,50,cainky,SARIDE,z,,,,,,-0.310231023,-0.193069307,0,0,0,,0,268,268,439,1,,
,,,,,,,,,,,,,,,,,5f0c8009958a65612e4e176a,2020-08-06_17h02.58.904,lexical_decision_task_MP,2020.1.3,Win32,60,,0,,,,,,,,0.07,-1,,,,,,143,WORD,UN,33,sponge,REASON,m,,,,,,-0.310231023,-0.193069307,0,0,0,,0,269,269,142,1,,
,,,,,,,,,,,,,,,,,5f0c8009958a65612e4e176a,2020-08-06_17h02.58.904,lexical_decision_task_MP,2020.1.3,Win32,60,,0,,,,,,,,0.07,-1,,,,,,361,NW,UN,33,tireau,PAUCHE,z,,,,,,-0.310231023,-0.193069307,0,0,0,,0,270,270,360,1,,
,,,,,,,,,,,,,,,,,5f0c8009958a65612e4e176a,2020-08-06_17h02.58.904,lexical_decision_task_MP,2020.1.3,Win32,60,,0,,,,,,,,0.07,-1,,,,,,307,NW,"ID",50,kirafe,KIRAFE,z,,,,,,-0.310231023,-0.193069307,0,0,0,,0,271,271,306,1,,
,,,,,,,,,,,,,,,,,5f0c8009958a65612e4e176a,2020-08-06_17h02.58.904,lexical_decision_task_MP,2020.1.3,Win32,60,,0,,,,,,,,0.07,-1,,,,,,252,NW,"ID",33,stapod,STAPOD,z,,,,,,-0.310231023,-0.193069307,0,0,0,,0,272,272,251,1,,
,,,,,,,,,,,,,,,,,5f0c8009958a65612e4e176a,2020-08-06_17h02.58.904,lexical_decision_task_MP,2020.1.3,Win32,60,,0,,,,,,,,0.07,-1,,,,,,462,NW,UN,50,kispel,ABSULT,z,,,,,,-0.310231023,-0.193069307,0,0,0,,0,273,273,461,1,,
,,,,,,,,,,,,,,,,,5f0c8009958a65612e4e176a,2020-08-06_17h02.58.904,lexical_decision_task_MP,2020.1.3,Win32,60,,0,,,,,,,,0.07,-1,,,,,,44,WORD,"ID",33,danger,DANGER,m,,,,,,-0.310231023,-0.193069307,0,0,0,,0,274,274,43,1,,
,,,,,,,,,,,,,,,,,5f0c8009958a65612e4e176a,2020-08-06_17h02.58.904,lexical_decision_task_MP,2020.1.3,Win32,60,,0,,,,,,,,0.07,-1,,,,,,479,NW,UN,50,josted,LOBUSH,z,,,,,,-0.310231023,-0.193069307,0,0,0,,0,275,275,478,1,,
,,,,,,,,,,,,,,,,,5f0c8009958a65612e4e176a,2020-08-06_17h02.58.904,lexical_decision_task_MP,2020.1.3,Win32,60,,0,,,,,,,,0.07,-1,,,,,,359,NW,"ID",50,fonver,FONVER,z,,,,,,-0.310231023,-0.193069307,0,0,0,,0,276,276,358,1,,
,,,,,,,,,,,,,,,,,5f0c8009958a65612e4e176a,2020-08-06_17h02.58.904,lexical_decision_task_MP,2020.1.3,Win32,60,,0,,,,,,,,0.07,-1,,,,,,173,WORD,UN,33,turkey,SHOWER,m,,,,,,-0.310231023,-0.193069307,0,0,0,,0,277,277,172,1,,
,,,,,,,,,,,,,,,,,5f0c8009958a65612e4e176a,2020-08-06_17h02.58.904,lexical_decision_task_MP,2020.1.3,Win32,60,,0,,,,,,,,0.07,-1,,,,,,239,WORD,UN,50,forest,LUMBER,m,,,,,,-0.310231023,-0.193069307,0,0,0,,0,278,278,238,1,,
,,,,,,,,,,,,,,,,,5f0c8009958a65612e4e176a,2020-08-06_17h02.58.904,lexical_decision_task_MP,2020.1.3,Win32,60,,0,,,,,,,,0.07,-1,,,,,,443,NW,UN,50,jaunce,DORSEX,z,,,,,,-0.310231023,-0.193069307,0,0,0,,0,279,279,442,1,,
,,,,,,,,,,,,,,,,,5f0c8009958a65612e4e176a,2020-08-06_17h02.58.904,lexical_decision_task_MP,2020.1.3,Win32,60,,0,,,,,,,,0.07,-1,,,,,,340,NW,"ID",50,fiatch,FIATCH,z,,,,,,-0.310231023,-0.193069307,0,0,0,,0,280,280,339,1,,
,,,,,,,,,,,,,,,,,5f0c8009958a65612e4e176a,2020-08-06_17h02.58.904,lexical_decision_task_MP,2020.1.3,Win32,60,,0,,,,,,,,0.07,-1,,,,,,194,WORD,UN,50,resign,ABSENT,m,,,,,,-0.310231023,-0.193069307,0,0,0,,0,281,281,193,1,,
,,,,,,,,,,,,,,,,,5f0c8009958a65612e4e176a,2020-08-06_17h02.58.904,lexical_decision_task_MP,2020.1.3,Win32,60,,0,,,,,,,,0.07,-1,,,,,,191,WORD,UN,50,absent,STABLE,m,,,,,,-0.310231023,-0.193069307,0,0,0,,0,282,282,190,1,,
,,,,,,,,,,,,,,,,,5f0c8009958a65612e4e176a,2020-08-06_17h02.58.904,lexical_decision_task_MP,2020.1.3,Win32,60,,0,,,,,,,,0.07,-1,,,,,,37,WORD,"ID",33,insult,INSULT,m,,,,,,-0.310231023,-0.193069307,0,0,0,,0,283,283,36,1,,
,,,,,,,,,,,,,,,,,5f0c8009958a65612e4e176a,2020-08-06_17h02.58.904,lexical_decision_task_MP,2020.1.3,Win32,60,,0,,,,,,,,0.07,-1,,,,,,453,NW,UN,50,scouge,BOLVIS,z,,,,,,-0.310231023,-0.193069307,0,0,0,,0,284,284,452,1,,
,,,,,,,,,,,,,,,,,5f0c8009958a65612e4e176a,2020-08-06_17h02.58.904,lexical_decision_task_MP,2020.1.3,Win32,60,,0,,,,,,,,0.07,-1,,,,,,434,NW,UN,50,impurb,PITROM,z,,,,,,-0.310231023,-0.193069307,0,0,0,,0,285,285,433,1,,
,,,,,,,,,,,,,,,,,5f0c8009958a65612e4e176a,2020-08-06_17h02.58.904,lexical_decision_task_MP,2020.1.3,Win32,60,,0,,,,,,,,0.07,-1,,,,,,343,NW,"ID",50,aimosy,AIMOSY,z,,,,,,-0.310231023,-0.193069307,0,0,0,,0,286,286,342,1,,
,,,,,,,,,,,,,,,,,5f0c8009958a65612e4e176a,2020-08-06_17h02.58.904,lexical_decision_task_MP,2020.1.3,Win32,60,,0,-0.356435644,-0.259075908,1,0,0,1.699,button_left,1.699,0,,,,,,72,WORD,"ID",50,bright,BRIGHT,m,,,,,,-0.356435644,-0.259075908,1,0,0,,0,287,287,71,1,,
,,,,,,,,,,,,,,,,,5f0c8009958a65612e4e176a,2020-08-06_17h02.58.904,lexical_decision_task_MP,2020.1.3,Win32,60,,0,0.198019802,-0.292079208,1,0,0,0.049,button_right,0.049,0,,,,,,424,NW,UN,50,urivel,PRAILE,z,,,,,,0.234323432,-0.292079208,1,0,0,,0,288,288,423,1,,
,,,,,,,,,,,,,,,,,5f0c8009958a65612e4e176a,2020-08-06_17h02.58.904,lexical_decision_task_MP,2020.1.3,Win32,60,,0,-0.471947195,-0.361386139,1,0,0,0.097,button_left,0.097,0,,,,,,253,NW,"ID",33,resait,RESAIT,z,,,,,,-0.471947195,-0.361386139,1,0,0,,0,289,289,252,1,,
,,,,,,,,,,,,,,,,,5f0c8009958a65612e4e176a,2020-08-06_17h02.58.904,lexical_decision_task_MP,2020.1.3,Win32,60,m,0,,,,,,,,0.676,0,,,,,,315,NW,"ID",50,laston,LASTON,z,,,,,,0.419141914,-0.318481848,0,0,0,,0,290,290,314,1,,0.676
,,,,,,,,,,,,,,,,,5f0c8009958a65612e4e176a,2020-08-06_17h02.58.904,lexical_decision_task_MP,2020.1.3,Win32,60,m,1,,,,,,,,0.259,1,,,,,,116,WORD,"ID",50,tumble,TUMBLE,m,,,,,,0.419141914,-0.318481848,0,0,0,,0,291,291,115,1,,0.259
,,,,,,,,,,,,,,,,,5f0c8009958a65612e4e176a,2020-08-06_17h02.58.904,lexical_decision_task_MP,2020.1.3,Win32,60,z,0,,,,,,,,0.004,0,,,,,,223,WORD,UN,50,period,KIDNEY,m,,,,,,0.419141914,-0.318481848,0,0,0,,0,292,292,222,1,,0.004
,,,,,,,,,,,,,,,,,5f0c8009958a65612e4e176a,2020-08-06_17h02.58.904,lexical_decision_task_MP,2020.1.3,Win32,60,m,1,,,,,,,,0.095,1,,,,,,52,WORD,"ID",33,impose,IMPOSE,m,,,,,,0.419141914,-0.318481848,0,0,0,,0,293,293,51,1,,0.095
,,,,,,,,,,,,,,,,,5f0c8009958a65612e4e176a,2020-08-06_17h02.58.904,lexical_decision_task_MP,2020.1.3,Win32,60,z,0,,,,,,,,0.011,0,,,,,,175,WORD,UN,33,strife,FABRIC,m,,,,,,0.419141914,-0.318481848,0,0,0,,0,294,294,174,1,,0.011
,,,,,,,,,,,,,,,,,5f0c8009958a65612e4e176a,2020-08-06_17h02.58.904,lexical_decision_task_MP,2020.1.3,Win32,60,m,0,,,,,,,,0.001,0,,,,,,466,NW,UN,50,pebric,HOCITE,z,,,,,,0.419141914,-0.318481848,0,0,0,,0,295,295,465,1,,0.001
,,,,,,,,,,,,,,,,,5f0c8009958a65612e4e176a,2020-08-06_17h02.58.904,lexical_decision_task_MP,2020.1.3,Win32,60,m,1,,,,,,,,0.193,1,,,,,,87,WORD,"ID",50,filter,FILTER,m,,,,,,0.419141914,-0.318481848,0,0,0,,0,296,296,86,1,,0.193
,,,,,,,,,,,,,,,,,5f0c8009958a65612e4e176a,2020-08-06_17h02.58.904,lexical_decision_task_MP,2020.1.3,Win32,60,z,0,,,,,,,,0.048,0,,,,,,19,WORD,"ID",33,patron,PATRON,m,,,,,,0.419141914,-0.318481848,0,0,0,,0,297,297,18,1,,0.048
,,,,,,,,,,,,,,,,,5f0c8009958a65612e4e176a,2020-08-06_17h02.58.904,lexical_decision_task_MP,2020.1.3,Win32,60,m,1,,,,,,,,0.037,1,,,,,,81,WORD,"ID",50,friend,FRIEND,m,,,,,,0.419141914,-0.318481848,0,0,0,,0,298,298,80,1,,0.037
,,,,,,,,,,,,,,,,,5f0c8009958a65612e4e176a,2020-08-06_17h02.58.904,lexical_decision_task_MP,2020.1.3,Win32,60,z,0,,,,,,,,0.141,0,,,,,,113,WORD,"ID",50,chorus,CHORUS,m,,,,,,0.419141914,-0.318481848,0,0,0,,0,299,299,112,1,,0.141
,,,,,,,,,,,,,,,,,5f0c8009958a65612e4e176a,2020-08-06_17h02.58.904,lexical_decision_task_MP,2020.1.3,Win32,60,m,1,,,,,,,,0.146,1,,,,,,226,WORD,UN,50,flower,CASINO,m,,,,,,0.419141914,-0.318481848,0,0,0,,0,300,300,225,1,,0.146
,,,,,,,,,,,,,,,,,5f0c8009958a65612e4e176a,2020-08-06_17h02.58.904,lexical_decision_task_MP,2020.1.3,Win32,60,z,1,,,,,,,,0.186,1,,,,,,478,NW,UN,50,lobush,ACRISE,z,,,,,,0.419141914,-0.318481848,0,0,0,,0,301,301,477,1,,0.186
,,,,,,,,,,,,,,,,,5f0c8009958a65612e4e176a,2020-08-06_17h02.58.904,lexical_decision_task_MP,2020.1.3,Win32,60,z,0,,,,,,,,0,0,,,,,,169,WORD,UN,33,pounce,GENIUS,m,,,,,,0.419141914,-0.318481848,0,0,0,,0,302,302,168,1,,0
,,,,,,,,,,,,,,,,,5f0c8009958a65612e4e176a,2020-08-06_17h02.58.904,lexical_decision_task_MP,2020.1.3,Win32,60,m,1,,,,,,,,0.282,1,,,,,,126,WORD,UN,33,castle,ENOUGH,m,,,,,,0.419141914,-0.318481848,0,0,0,,0,303,303,125,1,,0.282
,,,,,,,,,,,,,,,,,5f0c8009958a65612e4e176a,2020-08-06_17h02.58.904,lexical_decision_task_MP,2020.1.3,Win32,60,m,1,,,,,,,,0.011,1,,,,,,67,WORD,"ID",50,policy,POLICY,m,,,,,,0.419141914,-0.318481848,0,0,0,,0,304,304,66,1,,0.011
,,,,,,,,,,,,,,,,,5f0c8009958a65612e4e176a,2020-08-06_17h02.58.904,lexical_decision_task_MP,2020.1.3,Win32,60,m,1,,,,,,,,0.06,1,,,,,,225,WORD,UN,50,kidney,VULGAR,m,,,,,,0.419141914,-0.318481848,0,0,0,,0,305,305,224,1,,0.06
,,,,,,,,,,,,,,,,,5f0c8009958a65612e4e176a,2020-08-06_17h02.58.904,lexical_decision_task_MP,2020.1.3,Win32,60,z,1,,,,,,,,0.307,1,,,,,,282,NW,"ID",33,porlex,PORLEX,z,,,,,,0.419141914,-0.318481848,0,0,0,,0,306,306,281,1,,0.307
,,,,,,,,,,,,,,,,,5f0c8009958a65612e4e176a,2020-08-06_17h02.58.904,lexical_decision_task_MP,2020.1.3,Win32,60,z,1,,,,,,,,0.021,1,,,,,,243,NW,"ID",33,musied,MUSIED,z,,,,,,0.419141914,-0.318481848,0,0,0,,0,307,307,242,1,,0.021
,,,,,,,,,,,,,,,,,5f0c8009958a65612e4e176a,2020-08-06_17h02.58.904,lexical_decision_task_MP,2020.1.3,Win32,60,z,1,,,,,,,,0.04,1,,,,,,294,NW,"ID",33,inhort,INHORT,z,,,,,,0.419141914,-0.318481848,0,0,0,,0,308,308,293,1,,0.04
,,,,,,,,,,,,,,,,,5f0c8009958a65612e4e176a,2020-08-06_17h02.58.904,lexical_decision_task_MP,2020.1.3,Win32,60,z,1,,,,,,,,0,1,,,,,,322,NW,"ID",50,slanch,SLANCH,z,,,,,,0.419141914,-0.318481848,0,0,0,,0,309,309,321,1,,0
,,,,,,,,,,,,,,,,,5f0c8009958a65612e4e176a,2020-08-06_17h02.58.904,lexical_decision_task_MP,2020.1.3,Win32,60,z,0,,,,,,,,0.043,0,,,,,,88,WORD,"ID",50,hunger,HUNGER,m,,,,,,0.419141914,-0.318481848,0,0,0,,0,310,310,87,1,,0.043
,,,,,,,,,,,,,,,,,5f0c8009958a65612e4e176a,2020-08-06_17h02.58.904,lexical_decision_task_MP,2020.1.3,Win32,60,z,0,,,,,,,,0.387,0,,,,,,177,WORD,UN,33,inform,ADVENT,m,,,,,,0.419141914,-0.318481848,0,0,0,,0,311,311,176,1,,0.387
,,,,,,,,,,,,,,,,,5f0c8009958a65612e4e176a,2020-08-06_17h02.58.904,lexical_decision_task_MP,2020.1.3,Win32,60,m,1,,,,,,,,0.349,1,,,,,,204,WORD,UN,50,lounge,BURDEN,m,,,,,,0.419141914,-0.318481848,0,0,0,,0,312,312,203,1,,0.349
,,,,,,,,,,,,,,,,,5f0c8009958a65612e4e176a,2020-08-06_17h02.58.904,lexical_decision_task_MP,2020.1.3,Win32,60,z,1,,,,,,,,0.22,1,,,,,,471,NW,UN,50,cigney,NOBEST,z,,,,,,0.419141914,-0.318481848,0,0,0,,0,313,313,470,1,,0.22
,,,,,,,,,,,,,,,,,5f0c8009958a65612e4e176a,2020-08-06_17h02.58.904,lexical_decision_task_MP,2020.1.3,Win32,60,z,0,,,,,,,,0.071,0,,,,,,30,WORD,"ID",33,orient,ORIENT,m,,,,,,0.419141914,-0.318481848,0,0,0,,0,314,314,29,1,,0.071
,,,,,,,,,,,,,,,,,5f0c8009958a65612e4e176a,2020-08-06_17h02.58.904,lexical_decision_task_MP,2020.1.3,Win32,60,z,1,,,,,,,,0.027,1,,,,,,429,NW,UN,50,caroey,FUNTLE,z,,,,,,0.419141914,-0.318481848,0,0,0,,0,315,315,428,1,,0.027
,,,,,,,,,,,,,,,,,5f0c8009958a65612e4e176a,2020-08-06_17h02.58.904,lexical_decision_task_MP,2020.1.3,Win32,60,m,1,,,,,,,,0.196,1,,,,,,29,WORD,"ID",33,sketch,SKETCH,m,,,,,,0.419141914,-0.318481848,0,0,0,,0,316,316,28,1,,0.196
,,,,,,,,,,,,,,,,,5f0c8009958a65612e4e176a,2020-08-06_17h02.58.904,lexical_decision_task_MP,2020.1.3,Win32,60,m,0,,,,,,,,0.165,0,,,,,,300,NW,"ID",33,yarion,YARION,z,,,,,,0.419141914,-0.318481848,0,0,0,,0,317,317,299,1,,0.165
,,,,,,,,,,,,,,,,,5f0c8009958a65612e4e176a,2020-08-06_17h02.58.904,lexical_decision_task_MP,2020.1.3,Win32,60,m,1,,,,,,,,0.018,1,,,,,,39,WORD,"ID",33,insect,INSECT,m,,,,,,0.419141914,-0.318481848,0,0,0,,0,318,318,38,1,,0.018
,,,,,,,,,,,,,,,,,5f0c8009958a65612e4e176a,2020-08-06_17h02.58.904,lexical_decision_task_MP,2020.1.3,Win32,60,m,0,,,,,,,,0.009,0,,,,,,319,NW,"ID",50,zomber,ZOMBER,z,,,,,,0.419141914,-0.318481848,0,0,0,,0,319,319,318,1,,0.009
,,,,,,,,,,,,,,,,,5f0c8009958a65612e4e176a,2020-08-06_17h02.58.904,lexical_decision_task_MP,2020.1.3,Win32,60,m,1,,,,,,,,0.041,1,,,,,,82,WORD,"ID",50,stigma,STIGMA,m,,,,,,0.419141914,-0.318481848,0,0,0,,0,320,320,81,1,,0.041
,,,,,,,,,,,,,,,,,5f0c8009958a65612e4e176a,2020-08-06_17h02.58.904,lexical_decision_task_MP,2020.1.3,Win32,60,m,1,,,,,,,,0.033,1,,,,,,232,WORD,UN,50,nature,INJECT,m,,,,,,0.419141914,-0.318481848,0,0,0,,0,321,321,231,1,,0.033
,,,,,,,,,,,,,,,,,5f0c8009958a65612e4e176a,2020-08-06_17h02.58.904,lexical_decision_task_MP,2020.1.3,Win32,60,z,1,,,,,,,,0.302,1,,,,,,248,NW,"ID",33,strole,STROLE,z,,,,,,0.419141914,-0.318481848,0,0,0,,0,322,322,247,1,,0.302
,,,,,,,,,,,,,,,,,5f0c8009958a65612e4e176a,2020-08-06_17h02.58.904,lexical_decision_task_MP,2020.1.3,Win32,60,z,1,,,,,,,,0.164,1,,,,,,287,NW,"ID",33,nymbel,NYMBEL,z,,,,,,0.419141914,-0.318481848,0,0,0,,0,323,323,286,1,,0.164
,,,,,,,,,,,,,,,,,5f0c8009958a65612e4e176a,2020-08-06_17h02.58.904,lexical_decision_task_MP,2020.1.3,Win32,60,m,1,,,,,,,,0.193,1,,,,,,168,WORD,UN,33,genius,ANSWER,m,,,,,,0.419141914,-0.318481848,0,0,0,,0,324,324,167,1,,0.193
,,,,,,,,,,,,,,,,,5f0c8009958a65612e4e176a,2020-08-06_17h02.58.904,lexical_decision_task_MP,2020.1.3,Win32,60,z,1,,,,,,,,0.327,1,,,,,,303,NW,"ID",50,fiream,FIREAM,z,,,,,,0.419141914,-0.318481848,0,0,0,,0,325,325,302,1,,0.327
,,,,,,,,,,,,,,,,,5f0c8009958a65612e4e176a,2020-08-06_17h02.58.904,lexical_decision_task_MP,2020.1.3,Win32,60,m,1,,,,,,,,0.327,1,,,,,,120,WORD,"ID",50,strain,STRAIN,m,,,,,,0.419141914,-0.318481848,0,0,0,,0,326,326,119,1,,0.327
,,,,,,,,,,,,,,,,,5f0c8009958a65612e4e176a,2020-08-06_17h02.58.904,lexical_decision_task_MP,2020.1.3,Win32,60,z,1,,,,,,,,0.295,1,,,,,,370,NW,UN,33,geiloy,SLEACT,z,,,,,,0.419141914,-0.318481848,0,0,0,,0,327,327,369,1,,0.295
,,,,,,,,,,,,,,,,,5f0c8009958a65612e4e176a,2020-08-06_17h02.58.904,lexical_decision_task_MP,2020.1.3,Win32,60,z,0,,,,,,,,0.006,0,,,,,,26,WORD,"ID",33,sprint,SPRINT,m,,,,,,0.419141914,-0.318481848,0,0,0,,0,328,328,25,1,,0.006
,,,,,,,,,,,,,,,,,5f0c8009958a65612e4e176a,2020-08-06_17h02.58.904,lexical_decision_task_MP,2020.1.3,Win32,60,z,0,,,,,,,,0.05,0,,,,,,75,WORD,"ID",50,trophy,TROPHY,m,,,,,,0.419141914,-0.318481848,0,0,0,,0,329,329,74,1,,0.05
,,,,,,,,,,,,,,,,,5f0c8009958a65612e4e176a,2020-08-06_17h02.58.904,lexical_decision_task_MP,2020.1.3,Win32,60,m,0,,,,,,,,0.23,0,,,,,,346,NW,"ID",50,saudic,SAUDIC,z,,,,,,0.419141914,-0.318481848,0,0,0,,0,330,330,345,1,,0.23
,,,,,,,,,,,,,,,,,5f0c8009958a65612e4e176a,2020-08-06_17h02.58.904,lexical_decision_task_MP,2020.1.3,Win32,60,z,0,,,,,,,,0.171,0,,,,,,154,WORD,UN,33,lizard,AUTHOR,m,,,,,,0.419141914,-0.318481848,0,0,0,,0,331,331,153,1,,0.171
,,,,,,,,,,,,,,,,,5f0c8009958a65612e4e176a,2020-08-06_17h02.58.904,lexical_decision_task_MP,2020.1.3,Win32,60,m,1,,,,,,,,0.136,1,,,,,,16,WORD,"ID",33,faucet,FAUCET,m,,,,,,0.419141914,-0.318481848,0,0,0,,0,332,332,15,1,,0.136
,,,,,,,,,,,,,,,,,5f0c8009958a65612e4e176a,2020-08-06_17h02.58.904,lexical_decision_task_MP,2020.1.3,Win32,60,z,1,,,,,,,,0.111,1,,,,,,477,NW,UN,50,acrise,PHOTIE,z,,,,,,0.419141914,-0.318481848,0,0,0,,0,333,333,476,1,,0.111
,,,,,,,,,,,,,,,,,5f0c8009958a65612e4e176a,2020-08-06_17h02.58.904,lexical_decision_task_MP,2020.1.3,Win32,60,m,0,,,,,,,,0.079,0,,,,,,380,NW,UN,33,huniek,CAVORY,z,,,,,,0.419141914,-0.318481848,0,0,0,,0,334,334,379,1,,0.079
,,,,,,,,,,,,,,,,,5f0c8009958a65612e4e176a,2020-08-06_17h02.58.904,lexical_decision_task_MP,2020.1.3,Win32,60,z,1,,,,,,,,0.12,1,,,,,,280,NW,"ID",33,curbol,CURBOL,z,,,,,,0.419141914,-0.318481848,0,0,0,,0,335,335,279,1,,0.12
,,,,,,,,,,,,,,,,,5f0c8009958a65612e4e176a,2020-08-06_17h02.58.904,lexical_decision_task_MP,2020.1.3,Win32,60,m,0,,,,,,,,0.051,0,,,,,,344,NW,"ID",50,scrily,SCRILY,z,,,,,,0.419141914,-0.318481848,0,0,0,,0,336,336,343,1,,0.051
,,,,,,,,,,,,,,,,,5f0c8009958a65612e4e176a,2020-08-06_17h02.58.904,lexical_decision_task_MP,2020.1.3,Win32,60,z,0,,,,,,,,0.145,0,,,,,,148,WORD,UN,33,invade,CUSTOM,m,,,,,,0.419141914,-0.318481848,0,0,0,,0,337,337,147,1,,0.145
,,,,,,,,,,,,,,,,,5f0c8009958a65612e4e176a,2020-08-06_17h02.58.904,lexical_decision_task_MP,2020.1.3,Win32,60,m,0,,,,,,,,0.156,0,,,,,,265,NW,"ID",33,distar,DISTAR,z,,,,,,0.419141914,-0.318481848,0,0,0,,0,338,338,264,1,,0.156
,,,,,,,,,,,,,,,,,5f0c8009958a65612e4e176a,2020-08-06_17h02.58.904,lexical_decision_task_MP,2020.1.3,Win32,60,z,0,,,,,,,,0.123,0,,,,,,85,WORD,"ID",50,sprawl,SPRAWL,m,,,,,,0.419141914,-0.318481848,0,0,0,,0,339,339,84,1,,0.123
,,,,,,,,,,,,,,,,,5f0c8009958a65612e4e176a,2020-08-06_17h02.58.904,lexical_decision_task_MP,2020.1.3,Win32,60,m,0,,,,,,,,0.079,0,,,,,,430,NW,UN,50,funtle,CAROEY,z,,,,,,0.419141914,-0.318481848,0,0,0,,0,340,340,429,1,,0.079
,,,,,,,,,,,,,,,,,5f0c8009958a65612e4e176a,2020-08-06_17h02.58.904,lexical_decision_task_MP,2020.1.3,Win32,60,m,1,,,,,,,,0.233,1,,,,,,48,WORD,"ID",33,walnut,WALNUT,m,,,,,,0.419141914,-0.318481848,0,0,0,,0,341,341,47,1,,0.233
,,,,,,,,,,,,,,,,,5f0c8009958a65612e4e176a,2020-08-06_17h02.58.904,lexical_decision_task_MP,2020.1.3,Win32,60,z,0,,,,,,,,0.297,0,,,,,,12,WORD,"ID",33,orange,ORANGE,m,,,,,,0.419141914,-0.318481848,0,0,0,,0,342,342,11,1,,0.297
,,,,,,,,,,,,,,,,,5f0c8009958a65612e4e176a,2020-08-06_17h02.58.904,lexical_decision_task_MP,2020.1.3,Win32,60,z,0,,,,,,,,0.066,0,,,,,,200,WORD,UN,50,admire,BEACON,m,,,,,,0.419141914,-0.318481848,0,0,0,,0,343,343,199,1,,0.066
,,,,,,,,,,,,,,,,,5f0c8009958a65612e4e176a,2020-08-06_17h02.58.904,lexical_decision_task_MP,2020.1.3,Win32,60,z,1,,,,,,,,0.123,1,,,,,,342,NW,"ID",50,randow,RANDOW,z,,,,,,0.419141914,-0.318481848,0,0,0,,0,344,344,341,1,,0.123
,,,,,,,,,,,,,,,,,5f0c8009958a65612e4e176a,2020-08-06_17h02.58.904,lexical_decision_task_MP,2020.1.3,Win32,60,z,1,,,,,,,,0.22,1,,,,,,273,NW,"ID",33,sortel,SORTEL,z,,,,,,0.419141914,-0.318481848,0,0,0,,0,345,345,272,1,,0.22
,,,,,,,,,,,,,,,,,5f0c8009958a65612e4e176a,2020-08-06_17h02.58.904,lexical_decision_task_MP,2020.1.3,Win32,60,z,1,,,,,,,,0.048,1,,,,,,316,NW,"ID",50,scregm,SCREGM,z,,,,,,0.419141914,-0.318481848,0,0,0,,0,346,346,315,1,,0.048
,,,,,,,,,,,,,,,,,5f0c8009958a65612e4e176a,2020-08-06_17h02.58.904,lexical_decision_task_MP,2020.1.3,Win32,60,z,0,,,,,,,,0.129,0,,,,,,11,WORD,"ID",33,cruise,CRUISE,m,,,,,,0.419141914,-0.318481848,0,0,0,,0,347,347,10,1,,0.129
,,,,,,,,,,,,,,,,,5f0c8009958a65612e4e176a,2020-08-06_17h02.58.904,lexical_decision_task_MP,2020.1.3,Win32,60,z,1,,,,,,,,0.171,1,,,,,,313,NW,"ID",50,paurse,PAURSE,z,,,,,,0.419141914,-0.318481848,0,0,0,,0,348,348,312,1,,0.171
,,,,,,,,,,,,,,,,,5f0c8009958a65612e4e176a,2020-08-06_17h02.58.904,lexical_decision_task_MP,2020.1.3,Win32,60,z,0,,,,,,,,0.282,0,,,,,,129,WORD,UN,33,stupid,MARVEL,m,,,,,,0.419141914,-0.318481848,0,0,0,,0,349,349,128,1,,0.282
,,,,,,,,,,,,,,,,,5f0c8009958a65612e4e176a,2020-08-06_17h02.58.904,lexical_decision_task_MP,2020.1.3,Win32,60,z,0,,,,,,,,0.168,0,,,,,,79,WORD,"ID",50,theory,THEORY,m,,,,,,0.419141914,-0.318481848,0,0,0,,0,350,350,78,1,,0.168
,,,,,,,,,,,,,,,,,5f0c8009958a65612e4e176a,2020-08-06_17h02.58.904,lexical_decision_task_MP,2020.1.3,Win32,60,z,1,,,,,,,,0.044,1,,,,,,333,NW,"ID",50,catrie,CATRIE,z,,,,,,0.419141914,-0.318481848,0,0,0,,0,351,351,332,1,,0.044
,,,,,,,,,,,,,,,,,5f0c8009958a65612e4e176a,2020-08-06_17h02.58.904,lexical_decision_task_MP,2020.1.3,Win32,60,z,1,,,,,,,,0.168,1,,,,,,398,NW,UN,33,fouret,BLUNDE,z,,,,,,0.419141914,-0.318481848,0,0,0,,0,352,352,397,1,,0.168
,,,,,,,,,,,,,,,,,5f0c8009958a65612e4e176a,2020-08-06_17h02.58.904,lexical_decision_task_MP,2020.1.3,Win32,60,z,0,,,,,,,,0.268,0,,,,,,18,WORD,"ID",33,humble,HUMBLE,m,,,,,,0.419141914,-0.318481848,0,0,0,,0,353,353,17,1,,0.268
,,,,,,,,,,,,,,,,,5f0c8009958a65612e4e176a,2020-08-06_17h02.58.904,lexical_decision_task_MP,2020.1.3,Win32,60,z,0,,,,,,,,0.216,0,,,,,,224,WORD,UN,50,vulgar,PERIOD,m,,,,,,0.419141914,-0.318481848,0,0,0,,0,354,354,223,1,,0.216
,,,,,,,,,,,,,,,,,5f0c8009958a65612e4e176a,2020-08-06_17h02.58.904,lexical_decision_task_MP,2020.1.3,Win32,60,z,1,,,,,,,,0.051,1,,,,,,320,NW,"ID",50,jockal,JOCKAL,z,,,,,,0.419141914,-0.318481848,0,0,0,,0,355,355,319,1,,0.051
,,,,,,,,,,,,,,,,,5f0c8009958a65612e4e176a,2020-08-06_17h02.58.904,lexical_decision_task_MP,2020.1.3,Win32,60,z,0,,,,,,,,0.066,0,,,,,,216,WORD,UN,50,liquor,BEHALF,m,,,,,,0.419141914,-0.318481848,0,0,0,,0,356,356,215,1,,0.066
,,,,,,,,,,,,,,,,,5f0c8009958a65612e4e176a,2020-08-06_17h02.58.904,lexical_decision_task_MP,2020.1.3,Win32,60,z,0,,,,,,,,0.06,0,,,,,,152,WORD,UN,33,behold,ROCKET,m,,,,,,0.419141914,-0.318481848,0,0,0,,0,357,357,151,1,,0.06
,,,,,,,,,,,,,,,,,5f0c8009958a65612e4e176a,2020-08-06_17h02.58.904,lexical_decision_task_MP,2020.1.3,Win32,60,z,0,,,,,,,,0.081,0,,,,,,50,WORD,"ID",33,snatch,SNATCH,m,,,,,,0.419141914,-0.318481848,0,0,0,,0,358,358,49,1,,0.081
,,,,,,,,,,,,,,,,,5f0c8009958a65612e4e176a,2020-08-06_17h02.58.904,lexical_decision_task_MP,2020.1.3,Win32,60,z,0,,,,,,,,0.016,0,,,,,,221,WORD,UN,50,hinder,MASCOT,m,,,,,,0.419141914,-0.318481848,0,0,0,,0,359,359,220,1,,0.016
,,,,,,,,,,,,,,,,,5f0c8009958a65612e4e176a,2020-08-06_17h02.58.904,lexical_decision_task_MP,2020.1.3,Win32,60,m,0,,,,,,,,0.22,0,,,,,,459,NW,UN,50,mingar,BAFENT,z,,,,,,0.419141914,-0.318481848,0,0,0,,0,360,360,458,1,,0.22
,,,,,,,,,,,,,,,,,5f0c8009958a65612e4e176a,2020-08-06_17h02.58.904,lexical_decision_task_MP,2020.1.3,Win32,60,m,1,,,,,,,,0.001,1,,,,,,209,WORD,UN,50,monkey,SEARCH,m,,,,,,0.419141914,-0.318481848,0,0,0,,0,361,361,208,1,,0.001
,,,,,,,,,,,,,,,,,5f0c8009958a65612e4e176a,2020-08-06_17h02.58.904,lexical_decision_task_MP,2020.1.3,Win32,60,m,1,,,,,,,,0.003,1,,,,,,114,WORD,"ID",50,placid,PLACID,m,,,,,,0.075907591,-0.381188119,1,0,0,,0,362,362,113,1,break_done_button,0.003
,,,,,,,,,,,,,,,,,5f0c8009958a65612e4e176a,2020-08-06_17h02.58.904,lexical_decision_task_MP,2020.1.3,Win32,60,z,0,,,,,,,,0.802,0,,,,,,220,WORD,UN,50,mascot,VOYAGE,m,,,,,,-0.066006601,-0.199669967,0,0,0,,0,363,363,219,1,,0.802
,,,,,,,,,,,,,,,,,5f0c8009958a65612e4e176a,2020-08-06_17h02.58.904,lexical_decision_task_MP,2020.1.3,Win32,60,m,0,,,,,,,,0.207,0,,,,,,480,NW,UN,50,knisma,ROBULY,z,,,,,,-0.066006601,-0.199669967,0,0,0,,0,364,364,479,1,,0.207
,,,,,,,,,,,,,,,,,5f0c8009958a65612e4e176a,2020-08-06_17h02.58.904,lexical_decision_task_MP,2020.1.3,Win32,60,z,0,,,,,,,,0.235,0,,,,,,93,WORD,"ID",50,public,PUBLIC,m,,,,,,-0.066006601,-0.199669967,0,0,0,,0,365,365,92,1,,0.235
,,,,,,,,,,,,,,,,,5f0c8009958a65612e4e176a,2020-08-06_17h02.58.904,lexical_decision_task_MP,2020.1.3,Win32,60,m,0,,,,,,,,0.156,0,,,,,,277,NW,"ID",33,petain,PETAIN,z,,,,,,-0.066006601,-0.199669967,0,0,0,,0,366,366,276,1,,0.156
,,,,,,,,,,,,,,,,,5f0c8009958a65612e4e176a,2020-08-06_17h02.58.904,lexical_decision_task_MP,2020.1.3,Win32,60,z,1,,,,,,,,0.313,1,,,,,,338,NW,"ID",50,wreash,WREASH,z,,,,,,-0.066006601,-0.199669967,0,0,0,,0,367,367,337,1,,0.313
,,,,,,,,,,,,,,,,,5f0c8009958a65612e4e176a,2020-08-06_17h02.58.904,lexical_decision_task_MP,2020.1.3,Win32,60,m,0,,,,,,,,0.273,0,,,,,,419,NW,UN,33,gushop,SLOUNT,z,,,,,,-0.066006601,-0.199669967,0,0,0,,0,368,368,418,1,,0.273
,,,,,,,,,,,,,,,,,5f0c8009958a65612e4e176a,2020-08-06_17h02.58.904,lexical_decision_task_MP,2020.1.3,Win32,60,m,1,,,,,,,,0.138,1,,,,,,32,WORD,"ID",33,buckle,BUCKLE,m,,,,,,-0.066006601,-0.199669967,0,0,0,,0,369,369,31,1,,0.138
,,,,,,,,,,,,,,,,,5f0c8009958a65612e4e176a,2020-08-06_17h02.58.904,lexical_decision_task_MP,2020.1.3,Win32,60,m,1,,,,,,,,0.247,1,,,,,,96,WORD,"ID",50,ignore,IGNORE,m,,,,,,-0.066006601,-0.199669967,0,0,0,,0,370,370,95,1,,0.247
,,,,,,,,,,,,,,,,,5f0c8009958a65612e4e176a,2020-08-06_17h02.58.904,lexical_decision_task_MP,2020.1.3,Win32,60,m,0,,,,,,,,0.265,0,,,,,,347,NW,"ID",50,kerift,KERIFT,z,,,,,,-0.066006601,-0.199669967,0,0,0,,0,371,371,346,1,,0.265
,,,,,,,,,,,,,,,,,5f0c8009958a65612e4e176a,2020-08-06_17h02.58.904,lexical_decision_task_MP,2020.1.3,Win32,60,m,0,,,,,,,,0.281,0,,,,,,242,NW,"ID",33,unwert,UNWERT,z,,,,,,-0.066006601,-0.199669967,0,0,0,,0,372,372,241,1,,0.281
,,,,,,,,,,,,,,,,,5f0c8009958a65612e4e176a,2020-08-06_17h02.58.904,lexical_decision_task_MP,2020.1.3,Win32,60,z,0,,,,,,,,0.145,0,,,,,,4,WORD,"ID",33,trench,TRENCH,m,,,,,,-0.066006601,-0.199669967,0,0,0,,0,373,373,3,1,,0.145
,,,,,,,,,,,,,,,,,5f0c8009958a65612e4e176a,2020-08-06_17h02.58.904,lexical_decision_task_MP,2020.1.3,Win32,60,z,0,,,,,,,,0.287,0,,,,,,195,WORD,UN,50,credit,RESIGN,m,,,,,,-0.066006601,-0.199669967,0,0,0,,0,374,374,194,1,,0.287
,,,,,,,,,,,,,,,,,5f0c8009958a65612e4e176a,2020-08-06_17h02.58.904,lexical_decision_task_MP,2020.1.3,Win32,60,z,1,,,,,,,,0.281,1,,,,,,268,NW,"ID",33,packes,PACKES,z,,,,,,-0.066006601,-0.199669967,0,0,0,,0,375,375,267,1,,0.281
,,,,,,,,,,,,,,,,,5f0c8009958a65612e4e176a,2020-08-06_17h02.58.904,lexical_decision_task_MP,2020.1.3,Win32,60,z,0,,,,,,,,0.306,0,,,,,,76,WORD,"ID",50,exotic,EXOTIC,m,,,,,,-0.066006601,-0.199669967,0,0,0,,0,376,376,75,1,,0.306
,,,,,,,,,,,,,,,,,5f0c8009958a65612e4e176a,2020-08-06_17h02.58.904,lexical_decision_task_MP,2020.1.3,Win32,60,z,1,,,,,,,,0.249,1,,,,,,401,NW,UN,33,elopia,MUSTIL,z,,,,,,-0.066006601,-0.199669967,0,0,0,,0,377,377,400,1,,0.249
,,,,,,,,,,,,,,,,,5f0c8009958a65612e4e176a,2020-08-06_17h02.58.904,lexical_decision_task_MP,2020.1.3,Win32,60,z,0,,,,,,,,0.21,0,,,,,,141,WORD,UN,33,spruce,ORPHAN,m,,,,,,-0.066006601,-0.199669967,0,0,0,,0,378,378,140,1,,0.21
,,,,,,,,,,,,,,,,,5f0c8009958a65612e4e176a,2020-08-06_17h02.58.904,lexical_decision_task_MP,2020.1.3,Win32,60,z,1,,,,,,,,0.226,1,,,,,,387,NW,UN,33,cragin,GRONCE,z,,,,,,-0.066006601,-0.199669967,0,0,0,,0,379,379,386,1,,0.226
,,,,,,,,,,,,,,,,,5f0c8009958a65612e4e176a,2020-08-06_17h02.58.904,lexical_decision_task_MP,2020.1.3,Win32,60,z,1,,,,,,,,0.271,1,,,,,,375,NW,UN,33,iguare,YORQUE,z,,,,,,-0.066006601,-0.199669967,0,0,0,,0,380,380,374,1,,0.271
,,,,,,,,,,,,,,,,,5f0c8009958a65612e4e176a,2020-08-06_17h02.58.904,lexical_decision_task_MP,2020.1.3,Win32,60,z,0,,,,,,,,0.225,0,,,,,,219,WORD,UN,50,voyage,BUCKET,m,,,,,,-0.066006601,-0.199669967,0,0,0,,0,381,381,218,1,,0.225
,,,,,,,,,,,,,,,,,5f0c8009958a65612e4e176a,2020-08-06_17h02.58.904,lexical_decision_task_MP,2020.1.3,Win32,60,z,1,,,,,,,,0.229,1,,,,,,441,NW,UN,50,aboune,RASTOE,z,,,,,,-0.066006601,-0.199669967,0,0,0,,0,382,382,440,1,,0.229
,,,,,,,,,,,,,,,,,5f0c8009958a65612e4e176a,2020-08-06_17h02.58.904,lexical_decision_task_MP,2020.1.3,Win32,60,z,0,,,,,,,,0.23,0,,,,,,86,WORD,"ID",50,rodent,RODENT,m,,,,,,-0.066006601,-0.199669967,0,0,0,,0,383,383,85,1,,0.23
,,,,,,,,,,,,,,,,,5f0c8009958a65612e4e176a,2020-08-06_17h02.58.904,lexical_decision_task_MP,2020.1.3,Win32,60,z,1,,,,,,,,0.256,1,,,,,,422,NW,UN,50,streld,ALCOUD,z,,,,,,-0.066006601,-0.199669967,0,0,0,,0,384,384,421,1,,0.256
,,,,,,,,,,,,,,,,,5f0c8009958a65612e4e176a,2020-08-06_17h02.58.904,lexical_decision_task_MP,2020.1.3,Win32,60,z,0,,,,,,,,0.26,0,,,,,,69,WORD,"ID",50,plenty,PLENTY,m,,,,,,-0.066006601,-0.199669967,0,0,0,,0,385,385,68,1,,0.26
,,,,,,,,,,,,,,,,,5f0c8009958a65612e4e176a,2020-08-06_17h02.58.904,lexical_decision_task_MP,2020.1.3,Win32,60,z,0,,,,,,,,0.252,0,,,,,,207,WORD,UN,50,hockey,WREATH,m,,,,,,-0.066006601,-0.199669967,0,0,0,,0,386,386,206,1,,0.252
,,,,,,,,,,,,,,,,,5f0c8009958a65612e4e176a,2020-08-06_17h02.58.904,lexical_decision_task_MP,2020.1.3,Win32,60,z,0,,,,,,,,0.378,0,,,,,,147,WORD,UN,33,custom,GARLIC,m,,,,,,-0.066006601,-0.199669967,0,0,0,,0,387,387,146,1,,0.378
,,,,,,,,,,,,,,,,,5f0c8009958a65612e4e176a,2020-08-06_17h02.58.904,lexical_decision_task_MP,2020.1.3,Win32,60,z,0,,,,,,,,0.27,0,,,,,,94,WORD,"ID",50,travel,TRAVEL,m,,,,,,-0.066006601,-0.199669967,0,0,0,,0,388,388,93,1,,0.27
,,,,,,,,,,,,,,,,,5f0c8009958a65612e4e176a,2020-08-06_17h02.58.904,lexical_decision_task_MP,2020.1.3,Win32,60,z,0,,,,,,,,0.277,0,,,,,,47,WORD,"ID",33,income,INCOME,m,,,,,,-0.066006601,-0.199669967,0,0,0,,0,389,389,46,1,,0.277
,,,,,,,,,,,,,,,,,5f0c8009958a65612e4e176a,2020-08-06_17h02.58.904,lexical_decision_task_MP,2020.1.3,Win32,60,z,0,,,,,,,,0.223,0,,,,,,95,WORD,"ID",50,thread,THREAD,m,,,,,,-0.066006601,-0.199669967,0,0,0,,0,390,390,94,1,,0.223
,,,,,,,,,,,,,,,,,5f0c8009958a65612e4e176a,2020-08-06_17h02.58.904,lexical_decision_task_MP,2020.1.3,Win32,60,z,0,,,,,,,,0.267,0,,,,,,61,WORD,"ID",50,ponder,PONDER,m,,,,,,-0.066006601,-0.199669967,0,0,0,,0,391,391,60,1,,0.267
,,,,,,,,,,,,,,,,,5f0c8009958a65612e4e176a,2020-08-06_17h02.58.904,lexical_decision_task_MP,2020.1.3,Win32,60,z,1,,,,,,,,0.237,1,,,,,,465,NW,UN,50,hocite,WHIVEX,z,,,,,,-0.066006601,-0.199669967,0,0,0,,0,392,392,464,1,,0.237
,,,,,,,,,,,,,,,,,5f0c8009958a65612e4e176a,2020-08-06_17h02.58.904,lexical_decision_task_MP,2020.1.3,Win32,60,z,1,,,,,,,,0.278,1,,,,,,382,NW,UN,33,aungre,SARLEY,z,,,,,,-0.066006601,-0.199669967,0,0,0,,0,393,393,381,1,,0.278
,,,,,,,,,,,,,,,,,5f0c8009958a65612e4e176a,2020-08-06_17h02.58.904,lexical_decision_task_MP,2020.1.3,Win32,60,z,0,,,,,,,,0.271,0,,,,,,25,WORD,"ID",33,domain,DOMAIN,m,,,,,,-0.066006601,-0.199669967,0,0,0,,0,394,394,24,1,,0.271
,,,,,,,,,,,,,,,,,5f0c8009958a65612e4e176a,2020-08-06_17h02.58.904,lexical_decision_task_MP,2020.1.3,Win32,60,z,1,,,,,,,,0.282,1,,,,,,288,NW,"ID",33,yaceup,YACEUP,z,,,,,,-0.066006601,-0.199669967,0,0,0,,0,395,395,287,1,,0.282
,,,,,,,,,,,,,,,,,5f0c8009958a65612e4e176a,2020-08-06_17h02.58.904,lexical_decision_task_MP,2020.1.3,Win32,60,z,1,,,,,,,,0.255,1,,,,,,476,NW,UN,50,photie,JOSTED,z,,,,,,-0.066006601,-0.199669967,0,0,0,,0,396,396,475,1,,0.255
,,,,,,,,,,,,,,,,,5f0c8009958a65612e4e176a,2020-08-06_17h02.58.904,lexical_decision_task_MP,2020.1.3,Win32,60,z,0,,,,,,,,0.205,0,,,,,,121,WORD,UN,33,linger,THRIVE,m,,,,,,-0.066006601,-0.199669967,0,0,0,,0,397,397,120,1,,0.205
,,,,,,,,,,,,,,,,,5f0c8009958a65612e4e176a,2020-08-06_17h02.58.904,lexical_decision_task_MP,2020.1.3,Win32,60,z,1,,,,,,,,0.223,1,,,,,,337,NW,"ID",50,rejols,REJOLS,z,,,,,,-0.066006601,-0.199669967,0,0,0,,0,398,398,336,1,,0.223
,,,,,,,,,,,,,,,,,5f0c8009958a65612e4e176a,2020-08-06_17h02.58.904,lexical_decision_task_MP,2020.1.3,Win32,60,z,0,,,,,,,,0.283,0,,,,,,109,WORD,"ID",50,wonder,WONDER,m,,,,,,-0.066006601,-0.199669967,0,0,0,,0,399,399,108,1,,0.283
,,,,,,,,,,,,,,,,,5f0c8009958a65612e4e176a,2020-08-06_17h02.58.904,lexical_decision_task_MP,2020.1.3,Win32,60,z,1,,,,,,,,0.259,1,,,,,,397,NW,UN,33,blunde,CAMBLE,z,,,,,,-0.066006601,-0.199669967,0,0,0,,0,400,400,396,1,,0.259
,,,,,,,,,,,,,,,,,5f0c8009958a65612e4e176a,2020-08-06_17h02.58.904,lexical_decision_task_MP,2020.1.3,Win32,60,z,1,,,,,,,,0.3,1,,,,,,469,NW,UN,50,crudio,PADIFS,z,,,,,,-0.066006601,-0.199669967,0,0,0,,0,401,401,468,1,,0.3
,,,,,,,,,,,,,,,,,5f0c8009958a65612e4e176a,2020-08-06_17h02.58.904,lexical_decision_task_MP,2020.1.3,Win32,60,z,0,,,,,,,,0.273,0,,,,,,43,WORD,"ID",33,tongue,TONGUE,m,,,,,,-0.066006601,-0.199669967,0,0,0,,0,402,402,42,1,,0.273
,,,,,,,,,,,,,,,,,5f0c8009958a65612e4e176a,2020-08-06_17h02.58.904,lexical_decision_task_MP,2020.1.3,Win32,60,z,0,,,,,,,,0.146,0,,,,,,131,WORD,UN,33,strong,QUENCH,m,,,,,,-0.066006601,-0.199669967,0,0,0,,0,403,403,130,1,,0.146
,,,,,,,,,,,,,,,,,5f0c8009958a65612e4e176a,2020-08-06_17h02.58.904,lexical_decision_task_MP,2020.1.3,Win32,60,z,1,,,,,,,,0.112,1,,,,,,354,NW,"ID",50,virlex,VIRLEX,z,,,,,,-0.066006601,-0.199669967,0,0,0,,0,404,404,353,1,,0.112
,,,,,,,,,,,,,,,,,5f0c8009958a65612e4e176a,2020-08-06_17h02.58.904,lexical_decision_task_MP,2020.1.3,Win32,60,z,0,,,,,,,,0.171,0,,,,,,98,WORD,"ID",50,belong,BELONG,m,,,,,,-0.066006601,-0.199669967,0,0,0,,0,405,405,97,1,,0.171
,,,,,,,,,,,,,,,,,5f0c8009958a65612e4e176a,2020-08-06_17h02.58.904,lexical_decision_task_MP,2020.1.3,Win32,60,z,0,,,,,,,,0.169,0,,,,,,13,WORD,"ID",33,strive,STRIVE,m,,,,,,-0.066006601,-0.199669967,0,0,0,,0,406,406,12,1,,0.169
,,,,,,,,,,,,,,,,,5f0c8009958a65612e4e176a,2020-08-06_17h02.58.904,lexical_decision_task_MP,2020.1.3,Win32,60,z,1,,,,,,,,0.234,1,,,,,,472,NW,UN,50,crible,CIGNEY,z,,,,,,-0.066006601,-0.199669967,0,0,0,,0,407,407,471,1,,0.234
,,,,,,,,,,,,,,,,,5f0c8009958a65612e4e176a,2020-08-06_17h02.58.904,lexical_decision_task_MP,2020.1.3,Win32,60,z,0,,,,,,,,0.219,0,,,,,,211,WORD,UN,50,verify,INFECT,m,,,,,,-0.066006601,-0.199669967,0,0,0,,0,408,408,210,1,,0.219
,,,,,,,,,,,,,,,,,5f0c8009958a65612e4e176a,2020-08-06_17h02.58.904,lexical_decision_task_MP,2020.1.3,Win32,60,z,1,,,,,,,,0.11,1,,,,,,454,NW,UN,50,tondle,SCOUGE,z,,,,,,-0.066006601,-0.199669967,0,0,0,,0,409,409,453,1,,0.11
,,,,,,,,,,,,,,,,,5f0c8009958a65612e4e176a,2020-08-06_17h02.58.904,lexical_decision_task_MP,2020.1.3,Win32,60,z,0,,,,,,,,0.172,0,,,,,,179,WORD,UN,33,silent,BASKET,m,,,,,,-0.066006601,-0.199669967,0,0,0,,0,410,410,178,1,,0.172
,,,,,,,,,,,,,,,,,5f0c8009958a65612e4e176a,2020-08-06_17h02.58.904,lexical_decision_task_MP,2020.1.3,Win32,60,z,0,,,,,,,,0.284,0,,,,,,193,WORD,UN,50,plague,OBJECT,m,,,,,,-0.066006601,-0.199669967,0,0,0,,0,411,411,192,1,,0.284
,,,,,,,,,,,,,,,,,5f0c8009958a65612e4e176a,2020-08-06_17h02.58.904,lexical_decision_task_MP,2020.1.3,Win32,60,z,1,,,,,,,,0.252,1,,,,,,292,NW,"ID",33,ablint,ABLINT,z,,,,,,-0.066006601,-0.199669967,0,0,0,,0,412,412,291,1,,0.252
,,,,,,,,,,,,,,,,,5f0c8009958a65612e4e176a,2020-08-06_17h02.58.904,lexical_decision_task_MP,2020.1.3,Win32,60,z,0,,,,,,,,0.216,0,,,,,,178,WORD,UN,33,mildew,INFORM,m,,,,,,-0.066006601,-0.199669967,0,0,0,,0,413,413,177,1,,0.216
,,,,,,,,,,,,,,,,,5f0c8009958a65612e4e176a,2020-08-06_17h02.58.904,lexical_decision_task_MP,2020.1.3,Win32,60,z,1,,,,,,,,0.166,1,,,,,,407,NW,UN,33,hurnia,SUIVER,z,,,,,,-0.066006601,-0.199669967,0,0,0,,0,414,414,406,1,,0.166
,,,,,,,,,,,,,,,,,5f0c8009958a65612e4e176a,2020-08-06_17h02.58.904,lexical_decision_task_MP,2020.1.3,Win32,60,z,0,,,,,,,,0.067,0,,,,,,172,WORD,UN,33,shower,PATROL,m,,,,,,-0.066006601,-0.199669967,0,0,0,,0,415,415,171,1,,0.067
,,,,,,,,,,,,,,,,,5f0c8009958a65612e4e176a,2020-08-06_17h02.58.904,lexical_decision_task_MP,2020.1.3,Win32,60,z,0,,,,,,,,0.263,0,,,,,,57,WORD,"ID",33,change,CHANGE,m,,,,,,-0.066006601,-0.199669967,0,0,0,,0,416,416,56,1,,0.263
,,,,,,,,,,,,,,,,,5f0c8009958a65612e4e176a,2020-08-06_17h02.58.904,lexical_decision_task_MP,2020.1.3,Win32,60,z,1,,,,,,,,0.242,1,,,,,,345,NW,"ID",50,absend,ABSEND,z,,,,,,-0.066006601,-0.199669967,0,0,0,,0,417,417,344,1,,0.242
