counterbalancing_condition,instr_done_keyboard.keys,instr_done_touch.x,instr_done_touch.y,instr_done_touch.leftButton,instr_done_touch.midButton,instr_done_touch.rightButton,instr_done_touch.clicked_name,instruction_pages.thisRepN,instruction_pages.thisTrialN,instruction_pages.thisN,instruction_pages.thisIndex,instruction_pages.ran,pageN,phase,instruct_text,has_image,instruct_image,participant,date,expName,psychopyVersion,OS,frameRate,response.keys,response.corr,touch_resp.x,touch_resp.y,touch_resp.leftButton,touch_resp.midButton,touch_resp.rightButton,touch_resp.time,touch_resp.clicked_name,rt,corr,practice_trials.thisRepN,practice_trials.thisTrialN,practice_trials.thisN,practice_trials.thisIndex,practice_trials.ran,TrialID,StimulusType,Condition,PrimeDuration,Prime,Target,corrAns,end_of_practice_trials_pages.thisRepN,end_of_practice_trials_pages.thisTrialN,end_of_practice_trials_pages.thisN,end_of_practice_trials_pages.thisIndex,end_of_practice_trials_pages.ran,break_done_touch.x,break_done_touch.y,break_done_touch.leftButton,break_done_touch.midButton,break_done_touch.rightButton,break_done_keyboard.keys,trials.thisRepN,trials.thisTrialN,trials.thisN,trials.thisIndex,trials.ran,break_done_touch.clicked_name
2,,0.009960159,-0.386454183,1,0,0,instr_done_button,0,0,0,0,1,1,instructions,"INSTRUCTIONS
At the start of each trial, look at the hash marks (######) in the center of the screen. After a moment, a string of letters will appear. Your task is to indicate if the letter string forms a word or not (i.e., if it is a nonword). For example, AUTHOR is a word while AUTHON is a nonword.

Press the space bar or touch the button below to continue.",0,,5f2e8596a2eef41fc9968887,2020-08-08_13h03.15.887,lexical_decision_task_MP,2020.1.3,iPhone,60,,,,,,,,,,,,,,,,,,,,,,,,,,,,,,,,,,,,,,,,
,,0.001992032,-0.398406375,1,0,0,instr_done_button,0,1,1,1,1,2,instructions,"If your device has a keyboard, press the 'Z' key for nonwords and the 'M' key for words.





Press the space bar or touch the button below to continue.",1,keyboard-example.gif,5f2e8596a2eef41fc9968887,2020-08-08_13h03.15.887,lexical_decision_task_MP,2020.1.3,iPhone,60,,,,,,,,,,,,,,,,,,,,,,,,,,,,,,,,,,,,,,,,
,,-0.049800797,-0.422310757,1,0,0,instr_done_button,0,2,2,2,1,3,instructions,"If you are using a touchscreen only device, use the buttons on the screen. Do not use the mouse.





Press the space bar or touch the button below to continue.",1,touchscreen-example.gif,5f2e8596a2eef41fc9968887,2020-08-08_13h03.15.887,lexical_decision_task_MP,2020.1.3,iPhone,60,,,,,,,,,,,,,,,,,,,,,,,,,,,,,,,,,,,,,,,,
,,-0.051792829,-0.408366534,1,0,0,instr_done_button,0,3,3,3,1,4,instructions,"It is very important that you respond as quickly and accurately as possible, as each letter string will only be on the screen for two seconds. If you do not respond within this time, the message 'Too slow!' will be displayed and the experiment will progress to the next letter string. The first 20 trials will be practice trials and you will receive feedback on your answers. 

Press the space bar or touch the button below to start the practice trials.",0,,5f2e8596a2eef41fc9968887,2020-08-08_13h03.15.887,lexical_decision_task_MP,2020.1.3,iPhone,60,,,,,,,,,,,,,,,,,,,,,,,,,,,,,,,,,,,,,,,,
,,,,,,,,,,,,,,,,,,5f2e8596a2eef41fc9968887,2020-08-08_13h03.15.887,lexical_decision_task_MP,2020.1.3,iPhone,60,,0,-0.418326693,-0.330677291,1,0,0,0.947,button_left,0.947,1,0,0,0,15,1,1016,NW,UN,50,mushed,WHAISE,z,,,,,,,,,,,,,,,,,
,,,,,,,,,,,,,,,,,,5f2e8596a2eef41fc9968887,2020-08-08_13h03.15.887,lexical_decision_task_MP,2020.1.3,iPhone,60,,0,0.460159363,-0.284860558,1,0,0,0.616,button_right,0.616,1,0,1,1,1,1,1002,WORD,"ID",33,adjust,ADJUST,m,,,,,,,,,,,,,,,,,
,,,,,,,,,,,,,,,,,,5f2e8596a2eef41fc9968887,2020-08-08_13h03.15.887,lexical_decision_task_MP,2020.1.3,iPhone,60,,0,0.456175299,-0.272908367,1,0,0,0.605,button_right,0.605,1,0,2,2,5,1,1006,WORD,UN,33,frenzy,OBTAIN,m,,,,,,,,,,,,,,,,,
,,,,,,,,,,,,,,,,,,5f2e8596a2eef41fc9968887,2020-08-08_13h03.15.887,lexical_decision_task_MP,2020.1.3,iPhone,60,,0,-0.440239044,-0.304780876,1,0,0,0.313,button_left,0.313,0,0,3,3,2,1,1003,WORD,"ID",50,almond,ALMOND,m,,,,,,,,,,,,,,,,,
,,,,,,,,,,,,,,,,,,5f2e8596a2eef41fc9968887,2020-08-08_13h03.15.887,lexical_decision_task_MP,2020.1.3,iPhone,60,,0,0.43625498,-0.296812749,1,0,0,0.597,button_right,0.597,1,0,4,4,3,1,1004,WORD,"ID",50,matrix,MATRIX,m,,,,,,,,,,,,,,,,,
,,,,,,,,,,,,,,,,,,5f2e8596a2eef41fc9968887,2020-08-08_13h03.15.887,lexical_decision_task_MP,2020.1.3,iPhone,60,,0,-0.418326693,-0.290836653,1,0,0,0.627,button_left,0.627,1,0,5,5,8,1,1009,NW,"ID",33,aslert,ASLERT,z,,,,,,,,,,,,,,,,,
,,,,,,,,,,,,,,,,,,5f2e8596a2eef41fc9968887,2020-08-08_13h03.15.887,lexical_decision_task_MP,2020.1.3,iPhone,60,,0,0.424302789,-0.292828685,1,0,0,0.952,button_right,0.952,1,0,6,6,6,1,1007,WORD,UN,50,tropic,ZOMBIE,m,,,,,,,,,,,,,,,,,
,,,,,,,,,,,,,,,,,,5f2e8596a2eef41fc9968887,2020-08-08_13h03.15.887,lexical_decision_task_MP,2020.1.3,iPhone,60,,0,-0.412350598,-0.304780876,1,0,0,0.52,button_left,0.52,1,0,7,7,10,1,1011,NW,"ID",50,inlade,INLADE,z,,,,,,,,,,,,,,,,,
,,,,,,,,,,,,,,,,,,5f2e8596a2eef41fc9968887,2020-08-08_13h03.15.887,lexical_decision_task_MP,2020.1.3,iPhone,60,,0,-0.416334661,-0.298804781,1,0,0,0.653,button_left,0.653,1,0,8,8,11,1,1012,NW,"ID",50,rashet,RASHET,z,,,,,,,,,,,,,,,,,
,,,,,,,,,,,,,,,,,,5f2e8596a2eef41fc9968887,2020-08-08_13h03.15.887,lexical_decision_task_MP,2020.1.3,iPhone,60,,0,0.424302789,-0.28685259,1,0,0,0.508,button_right,0.508,1,0,9,9,0,1,1001,WORD,"ID",33,utopia,UTOPIA,m,,,,,,,,,,,,,,,,,
,,,,,,,,,,,,,,,,,,5f2e8596a2eef41fc9968887,2020-08-08_13h03.15.887,lexical_decision_task_MP,2020.1.3,iPhone,60,,0,-0.412350598,-0.280876494,1,0,0,0.664,button_left,0.664,1,0,10,10,13,1,1014,NW,UN,33,winfer,ROUPET,z,,,,,,,,,,,,,,,,,
,,,,,,,,,,,,,,,,,,5f2e8596a2eef41fc9968887,2020-08-08_13h03.15.887,lexical_decision_task_MP,2020.1.3,iPhone,60,,0,0.420318725,-0.288844622,1,0,0,0.463,button_right,0.463,1,0,11,11,7,1,1008,WORD,UN,50,hurdle,VOLUME,m,,,,,,,,,,,,,,,,,
,,,,,,,,,,,,,,,,,,5f2e8596a2eef41fc9968887,2020-08-08_13h03.15.887,lexical_decision_task_MP,2020.1.3,iPhone,60,,0,-0.40438247,-0.298804781,1,0,0,0.485,button_left,0.485,1,0,12,12,14,1,1015,NW,UN,50,miaber,THRALE,z,,,,,,,,,,,,,,,,,
,,,,,,,,,,,,,,,,,,5f2e8596a2eef41fc9968887,2020-08-08_13h03.15.887,lexical_decision_task_MP,2020.1.3,iPhone,60,,0,0.414342629,-0.290836653,1,0,0,0.593,button_right,0.593,1,0,13,13,4,1,1005,WORD,UN,33,abound,SQUEAK,m,,,,,,,,,,,,,,,,,
,,,,,,,,,,,,,,,,,,5f2e8596a2eef41fc9968887,2020-08-08_13h03.15.887,lexical_decision_task_MP,2020.1.3,iPhone,60,,0,-0.410358566,-0.298804781,1,0,0,0.508,button_left,0.508,1,0,14,14,12,1,1013,NW,UN,33,adveil,SPRINY,z,,,,,,,,,,,,,,,,,
,,,,,,,,,,,,,,,,,,5f2e8596a2eef41fc9968887,2020-08-08_13h03.15.887,lexical_decision_task_MP,2020.1.3,iPhone,60,,0,-0.40438247,-0.298804781,1,0,0,0.642,button_left,0.642,1,0,15,15,9,1,1010,NW,"ID",33,fariny,FARINY,z,,,,,,,,,,,,,,,,,
,,-0.017928287,-0.398406375,1,0,0,instr_done_button,,,,,,1,end_of_practice,"You have completed the practice trials. During the experimental trials, you will not receive feedback, but it is very important that you respond as quickly and accurately as possible. 
Before you begin, please ensure that you are in a comfortable and quiet location and will not be disturbed for about 25 minutes, as we cannot use your data if you do not complete all the trials. 
There will be opportunities to take breaks at regular intervals during the experiment. When you are ready to start the experimental trials, please press space or touch the button below.",,,5f2e8596a2eef41fc9968887,2020-08-08_13h03.15.887,lexical_decision_task_MP,2020.1.3,iPhone,60,,,,,,,,,,,,,,,,,,,,,,,,0,0,0,0,1,,,,,,,,,,,,
,,,,,,,,,,,,,,,,,,5f2e8596a2eef41fc9968887,2020-08-08_13h03.15.887,lexical_decision_task_MP,2020.1.3,iPhone,60,,0,-0.356573705,-0.28685259,1,0,0,0.698,button_left,0.698,1,,,,,,299,NW,UN,50,yarion,STURCH,z,,,,,,-0.356573705,-0.28685259,1,0,0,,0,0,0,478,1,
,,,,,,,,,,,,,,,,,,5f2e8596a2eef41fc9968887,2020-08-08_13h03.15.887,lexical_decision_task_MP,2020.1.3,iPhone,60,,0,0.450199203,-0.284860558,1,0,0,0.614,button_right,0.614,1,,,,,,18,WORD,UN,50,patron,HUMBLE,m,,,,,,0.450199203,-0.284860558,1,0,0,,0,1,1,197,1,
,,,,,,,,,,,,,,,,,,5f2e8596a2eef41fc9968887,2020-08-08_13h03.15.887,lexical_decision_task_MP,2020.1.3,iPhone,60,,0,-0.380478088,-0.288844622,1,0,0,0.555,button_left,0.555,1,,,,,,442,NW,UN,33,dorsex,ABOUNE,z,,,,,,-0.380478088,-0.288844622,1,0,0,,0,2,2,381,1,
,,,,,,,,,,,,,,,,,,5f2e8596a2eef41fc9968887,2020-08-08_13h03.15.887,lexical_decision_task_MP,2020.1.3,iPhone,60,,0,-0.384462151,-0.282868526,1,0,0,0.497,button_left,0.497,1,,,,,,267,NW,UN,50,packes,PASINK,z,,,,,,-0.384462151,-0.282868526,1,0,0,,0,3,3,446,1,
,,,,,,,,,,,,,,,,,,5f2e8596a2eef41fc9968887,2020-08-08_13h03.15.887,lexical_decision_task_MP,2020.1.3,iPhone,60,,0,0.442231076,-0.294820717,1,0,0,0.564,button_right,0.564,1,,,,,,44,WORD,UN,50,clergy,DANGER,m,,,,,,0.442231076,-0.294820717,1,0,0,,0,4,4,223,1,
,,,,,,,,,,,,,,,,,,5f2e8596a2eef41fc9968887,2020-08-08_13h03.15.887,lexical_decision_task_MP,2020.1.3,iPhone,60,,0,0.434262948,-0.298804781,1,0,0,0.655,button_right,0.655,0,,,,,,289,NW,UN,50,splino,STARBY,z,,,,,,0.434262948,-0.298804781,1,0,0,,0,5,5,468,1,
,,,,,,,,,,,,,,,,,,5f2e8596a2eef41fc9968887,2020-08-08_13h03.15.887,lexical_decision_task_MP,2020.1.3,iPhone,60,,0,0.426294821,-0.292828685,1,0,0,0.596,button_right,0.596,1,,,,,,65,WORD,"ID",33,symbol,SYMBOL,m,,,,,,0.426294821,-0.292828685,1,0,0,,0,6,6,4,1,
,,,,,,,,,,,,,,,,,,5f2e8596a2eef41fc9968887,2020-08-08_13h03.15.887,lexical_decision_task_MP,2020.1.3,iPhone,60,,0,0.422310757,-0.302788845,1,0,0,0.639,button_right,0.639,1,,,,,,172,WORD,"ID",50,patrol,PATROL,m,,,,,,0.422310757,-0.302788845,1,0,0,,0,7,7,111,1,
,,,,,,,,,,,,,,,,,,5f2e8596a2eef41fc9968887,2020-08-08_13h03.15.887,lexical_decision_task_MP,2020.1.3,iPhone,60,,0,-0.390438247,-0.294820717,1,0,0,0.53,button_left,0.53,0,,,,,,70,WORD,"ID",33,square,SQUARE,m,,,,,,-0.390438247,-0.294820717,1,0,0,,0,8,8,9,1,
,,,,,,,,,,,,,,,,,,5f2e8596a2eef41fc9968887,2020-08-08_13h03.15.887,lexical_decision_task_MP,2020.1.3,iPhone,60,,0,0.434262948,-0.298804781,1,0,0,0.558,button_right,0.558,1,,,,,,99,WORD,"ID",33,fluent,FLUENT,m,,,,,,0.434262948,-0.298804781,1,0,0,,0,9,9,38,1,
,,,,,,,,,,,,,,,,,,5f2e8596a2eef41fc9968887,2020-08-08_13h03.15.887,lexical_decision_task_MP,2020.1.3,iPhone,60,,0,-0.394422311,-0.298804781,1,0,0,0.521,button_left,0.521,0,,,,,,6,WORD,UN,50,anchor,BUNDLE,m,,,,,,-0.394422311,-0.298804781,1,0,0,,0,10,10,185,1,
,,,,,,,,,,,,,,,,,,5f2e8596a2eef41fc9968887,2020-08-08_13h03.15.887,lexical_decision_task_MP,2020.1.3,iPhone,60,,0,0.430278884,-0.298804781,1,0,0,0.597,button_right,0.597,1,,,,,,27,WORD,UN,50,comedy,SCREAM,m,,,,,,0.430278884,-0.298804781,1,0,0,,0,11,11,206,1,
,,,,,,,,,,,,,,,,,,5f2e8596a2eef41fc9968887,2020-08-08_13h03.15.887,lexical_decision_task_MP,2020.1.3,iPhone,60,,0,-0.390438247,-0.294820717,1,0,0,0.922,button_left,0.922,1,,,,,,391,NW,"ID",50,theldy,THELDY,z,,,,,,-0.390438247,-0.294820717,1,0,0,,0,12,12,330,1,
,,,,,,,,,,,,,,,,,,5f2e8596a2eef41fc9968887,2020-08-08_13h03.15.887,lexical_decision_task_MP,2020.1.3,iPhone,60,,0,0.428286853,-0.298804781,1,0,0,0.598,button_right,0.598,1,,,,,,220,WORD,UN,33,mascot,VOYAGE,m,,,,,,0.428286853,-0.298804781,1,0,0,,0,13,13,159,1,
,,,,,,,,,,,,,,,,,,5f2e8596a2eef41fc9968887,2020-08-08_13h03.15.887,lexical_decision_task_MP,2020.1.3,iPhone,60,,0,0.450199203,-0.290836653,1,0,0,0.557,button_right,0.557,1,,,,,,234,WORD,UN,33,poster,CLUMSY,m,,,,,,0.450199203,-0.290836653,1,0,0,,0,14,14,173,1,
,,,,,,,,,,,,,,,,,,5f2e8596a2eef41fc9968887,2020-08-08_13h03.15.887,lexical_decision_task_MP,2020.1.3,iPhone,60,,0,0.442231076,-0.296812749,1,0,0,0.641,button_right,0.641,1,,,,,,92,WORD,"ID",33,strand,STRAND,m,,,,,,0.442231076,-0.296812749,1,0,0,,0,15,15,31,1,
,,,,,,,,,,,,,,,,,,5f2e8596a2eef41fc9968887,2020-08-08_13h03.15.887,lexical_decision_task_MP,2020.1.3,iPhone,60,,0,-0.40438247,-0.294820717,1,0,0,0.545,button_left,0.545,1,,,,,,263,NW,UN,50,vackel,DOLICA,z,,,,,,-0.40438247,-0.294820717,1,0,0,,0,16,16,442,1,
,,,,,,,,,,,,,,,,,,5f2e8596a2eef41fc9968887,2020-08-08_13h03.15.887,lexical_decision_task_MP,2020.1.3,iPhone,60,,0,0.440239044,-0.298804781,1,0,0,0.592,button_right,0.592,1,,,,,,77,WORD,"ID",33,racket,RACKET,m,,,,,,0.440239044,-0.298804781,1,0,0,,0,17,17,16,1,
,,,,,,,,,,,,,,,,,,5f2e8596a2eef41fc9968887,2020-08-08_13h03.15.887,lexical_decision_task_MP,2020.1.3,iPhone,60,,0,0.440239044,-0.292828685,1,0,0,0.504,button_right,0.504,1,,,,,,58,WORD,UN,50,splint,FOSTER,m,,,,,,0.440239044,-0.292828685,1,0,0,,0,18,18,237,1,
,,,,,,,,,,,,,,,,,,5f2e8596a2eef41fc9968887,2020-08-08_13h03.15.887,lexical_decision_task_MP,2020.1.3,iPhone,60,,0,0.446215139,-0.304780876,1,0,0,0.538,button_right,0.538,1,,,,,,43,WORD,UN,50,foster,TONGUE,m,,,,,,0.446215139,-0.304780876,1,0,0,,0,19,19,222,1,
,,,,,,,,,,,,,,,,,,5f2e8596a2eef41fc9968887,2020-08-08_13h03.15.887,lexical_decision_task_MP,2020.1.3,iPhone,60,,0,0.446215139,-0.300796813,1,0,0,0.497,button_right,0.497,1,,,,,,229,WORD,UN,33,fringe,MOTHER,m,,,,,,0.446215139,-0.300796813,1,0,0,,0,20,20,168,1,
,,,,,,,,,,,,,,,,,,5f2e8596a2eef41fc9968887,2020-08-08_13h03.15.887,lexical_decision_task_MP,2020.1.3,iPhone,60,,0,-0.406374502,-0.302788845,1,0,0,0.505,button_left,0.505,1,,,,,,262,NW,UN,50,dolica,QUILEW,z,,,,,,-0.406374502,-0.302788845,1,0,0,,0,21,21,441,1,
,,,,,,,,,,,,,,,,,,5f2e8596a2eef41fc9968887,2020-08-08_13h03.15.887,lexical_decision_task_MP,2020.1.3,iPhone,60,,0,-0.40438247,-0.294820717,1,0,0,0.489,button_left,0.489,0,,,,,,16,WORD,UN,50,charge,FAUCET,m,,,,,,-0.40438247,-0.294820717,1,0,0,,0,22,22,195,1,
,,,,,,,,,,,,,,,,,,5f2e8596a2eef41fc9968887,2020-08-08_13h03.15.887,lexical_decision_task_MP,2020.1.3,iPhone,60,,0,0.440239044,-0.296812749,1,0,0,0.488,button_right,0.488,1,,,,,,177,WORD,"ID",50,advent,ADVENT,m,,,,,,0.440239044,-0.296812749,1,0,0,,0,23,23,116,1,
,,,,,,,,,,,,,,,,,,5f2e8596a2eef41fc9968887,2020-08-08_13h03.15.887,lexical_decision_task_MP,2020.1.3,iPhone,60,,0,-0.402390438,-0.302788845,1,0,0,0.622,button_left,0.622,1,,,,,,325,NW,"ID",33,thruse,THRUSE,z,,,,,,-0.402390438,-0.302788845,1,0,0,,0,24,24,264,1,
,,,,,,,,,,,,,,,,,,5f2e8596a2eef41fc9968887,2020-08-08_13h03.15.887,lexical_decision_task_MP,2020.1.3,iPhone,60,,0,-0.40438247,-0.298804781,1,0,0,0.623,button_left,0.623,1,,,,,,420,NW,"ID",50,gushop,GUSHOP,z,,,,,,-0.40438247,-0.298804781,1,0,0,,0,25,25,359,1,
,,,,,,,,,,,,,,,,,,5f2e8596a2eef41fc9968887,2020-08-08_13h03.15.887,lexical_decision_task_MP,2020.1.3,iPhone,60,,0,0.438247012,-0.292828685,1,0,0,0.713,button_right,0.713,1,,,,,,74,WORD,"ID",33,plaque,PLAQUE,m,,,,,,0.438247012,-0.292828685,1,0,0,,0,26,26,13,1,
,,,,,,,,,,,,,,,,,,5f2e8596a2eef41fc9968887,2020-08-08_13h03.15.887,lexical_decision_task_MP,2020.1.3,iPhone,60,,0,0.442231076,-0.300796813,1,0,0,0.639,button_right,0.639,1,,,,,,184,WORD,UN,33,bother,SLEAZY,m,,,,,,0.442231076,-0.300796813,1,0,0,,0,27,27,123,1,
,,,,,,,,,,,,,,,,,,5f2e8596a2eef41fc9968887,2020-08-08_13h03.15.887,lexical_decision_task_MP,2020.1.3,iPhone,60,,0,0.442231076,-0.296812749,1,0,0,0.555,button_right,0.555,1,,,,,,37,WORD,UN,50,powder,INSULT,m,,,,,,0.442231076,-0.296812749,1,0,0,,0,28,28,216,1,
,,,,,,,,,,,,,,,,,,5f2e8596a2eef41fc9968887,2020-08-08_13h03.15.887,lexical_decision_task_MP,2020.1.3,iPhone,60,,0,-0.406374502,-0.290836653,1,0,0,0.938,button_left,0.938,1,,,,,,277,NW,UN,50,unighs,PETAIN,z,,,,,,-0.406374502,-0.290836653,1,0,0,,0,29,29,456,1,
,,,,,,,,,,,,,,,,,,5f2e8596a2eef41fc9968887,2020-08-08_13h03.15.887,lexical_decision_task_MP,2020.1.3,iPhone,60,,0,-0.406374502,-0.288844622,1,0,0,0.68,button_left,0.68,1,,,,,,376,NW,"ID",50,iguare,IGUARE,z,,,,,,-0.406374502,-0.288844622,1,0,0,,0,30,30,315,1,
,,,,,,,,,,,,,,,,,,5f2e8596a2eef41fc9968887,2020-08-08_13h03.15.887,lexical_decision_task_MP,2020.1.3,iPhone,60,,0,-0.406374502,-0.290836653,1,0,0,0.565,button_left,0.565,1,,,,,,251,NW,UN,50,stapod,LUPICT,z,,,,,,-0.406374502,-0.290836653,1,0,0,,0,31,31,430,1,
,,,,,,,,,,,,,,,,,,5f2e8596a2eef41fc9968887,2020-08-08_13h03.15.887,lexical_decision_task_MP,2020.1.3,iPhone,60,,0,0.452191235,-0.280876494,1,0,0,0.663,button_right,0.663,1,,,,,,45,WORD,UN,50,single,CLERGY,m,,,,,,0.452191235,-0.280876494,1,0,0,,0,32,32,224,1,
,,,,,,,,,,,,,,,,,,5f2e8596a2eef41fc9968887,2020-08-08_13h03.15.887,lexical_decision_task_MP,2020.1.3,iPhone,60,,0,-0.410358566,-0.292828685,1,0,0,0.675,button_left,0.675,1,,,,,,311,NW,"ID",33,sproly,SPROLY,z,,,,,,-0.410358566,-0.292828685,1,0,0,,0,33,33,250,1,
,,,,,,,,,,,,,,,,,,5f2e8596a2eef41fc9968887,2020-08-08_13h03.15.887,lexical_decision_task_MP,2020.1.3,iPhone,60,,0,-0.406374502,-0.292828685,1,0,0,0.555,button_left,0.555,1,,,,,,371,NW,"ID",50,geiloy,GEILOY,z,,,,,,-0.406374502,-0.292828685,1,0,0,,0,34,34,310,1,
,,,,,,,,,,,,,,,,,,5f2e8596a2eef41fc9968887,2020-08-08_13h03.15.887,lexical_decision_task_MP,2020.1.3,iPhone,60,,0,-0.40438247,-0.292828685,1,0,0,0.512,button_left,0.512,1,,,,,,366,NW,"ID",50,toshel,TOSHEL,z,,,,,,-0.40438247,-0.292828685,1,0,0,,0,35,35,305,1,
,,,,,,,,,,,,,,,,,,5f2e8596a2eef41fc9968887,2020-08-08_13h03.15.887,lexical_decision_task_MP,2020.1.3,iPhone,60,,0,-0.410358566,-0.288844622,1,0,0,0.841,button_left,0.841,1,,,,,,349,NW,"ID",33,asylen,ASYLEN,z,,,,,,-0.410358566,-0.288844622,1,0,0,,0,36,36,288,1,
,,,,,,,,,,,,,,,,,,5f2e8596a2eef41fc9968887,2020-08-08_13h03.15.887,lexical_decision_task_MP,2020.1.3,iPhone,60,,0,-0.406374502,-0.290836653,1,0,0,0.55,button_left,0.55,1,,,,,,463,NW,UN,33,chaite,KISPEL,z,,,,,,-0.406374502,-0.290836653,1,0,0,,0,37,37,402,1,
,,,,,,,,,,,,,,,,,,5f2e8596a2eef41fc9968887,2020-08-08_13h03.15.887,lexical_decision_task_MP,2020.1.3,iPhone,60,,0,0.442231076,-0.302788845,1,0,0,0.573,button_right,0.573,1,,,,,,76,WORD,"ID",33,exotic,EXOTIC,m,,,,,,0.442231076,-0.302788845,1,0,0,,0,38,38,15,1,
,,,,,,,,,,,,,,,,,,5f2e8596a2eef41fc9968887,2020-08-08_13h03.15.887,lexical_decision_task_MP,2020.1.3,iPhone,60,,0,0.43625498,-0.302788845,1,0,0,0.515,button_right,0.515,1,,,,,,165,WORD,"ID",50,invest,INVEST,m,,,,,,0.43625498,-0.302788845,1,0,0,,0,39,39,104,1,
,,,,,,,,,,,,,,,,,,5f2e8596a2eef41fc9968887,2020-08-08_13h03.15.887,lexical_decision_task_MP,2020.1.3,iPhone,60,,0,-0.406374502,-0.288844622,1,0,0,0.597,button_left,0.597,1,,,,,,454,NW,UN,33,tondle,SCOUGE,z,,,,,,-0.406374502,-0.288844622,1,0,0,,0,40,40,393,1,
,,,,,,,,,,,,,,,,,,5f2e8596a2eef41fc9968887,2020-08-08_13h03.15.887,lexical_decision_task_MP,2020.1.3,iPhone,60,,0,-0.40438247,-0.28685259,1,0,0,0.641,button_left,0.641,1,,,,,,449,NW,UN,33,phrect,BRUNGE,z,,,,,,-0.40438247,-0.28685259,1,0,0,,0,41,41,388,1,
,,,,,,,,,,,,,,,,,,5f2e8596a2eef41fc9968887,2020-08-08_13h03.15.887,lexical_decision_task_MP,2020.1.3,iPhone,60,,0,-0.402390438,-0.280876494,1,0,0,0.715,button_left,0.715,1,,,,,,261,NW,UN,50,quilew,STUNCH,z,,,,,,-0.402390438,-0.280876494,1,0,0,,0,42,42,440,1,
,,,,,,,,,,,,,,,,,,5f2e8596a2eef41fc9968887,2020-08-08_13h03.15.887,lexical_decision_task_MP,2020.1.3,iPhone,60,,0,-0.406374502,-0.290836653,1,0,0,0.672,button_left,0.672,1,,,,,,363,NW,"ID",50,breali,BREALI,z,,,,,,-0.406374502,-0.290836653,1,0,0,,0,43,43,302,1,
,,,,,,,,,,,,,,,,,,5f2e8596a2eef41fc9968887,2020-08-08_13h03.15.887,lexical_decision_task_MP,2020.1.3,iPhone,60,,0,-0.402390438,-0.284860558,1,0,0,0.764,button_left,0.764,1,,,,,,416,NW,"ID",50,pathel,PATHEL,z,,,,,,-0.402390438,-0.284860558,1,0,0,,0,44,44,355,1,
,,,,,,,,,,,,,,,,,,5f2e8596a2eef41fc9968887,2020-08-08_13h03.15.887,lexical_decision_task_MP,2020.1.3,iPhone,60,,0,0.434262948,-0.284860558,1,0,0,0.539,button_right,0.539,1,,,,,,123,WORD,"ID",50,strike,STRIKE,m,,,,,,0.434262948,-0.284860558,1,0,0,,0,45,45,62,1,
,,,,,,,,,,,,,,,,,,5f2e8596a2eef41fc9968887,2020-08-08_13h03.15.887,lexical_decision_task_MP,2020.1.3,iPhone,60,,0,0.434262948,-0.280876494,1,0,0,0.53,button_right,0.53,1,,,,,,53,WORD,UN,50,ramble,POLICE,m,,,,,,0.434262948,-0.280876494,1,0,0,,0,46,46,232,1,
,,,,,,,,,,,,,,,,,,5f2e8596a2eef41fc9968887,2020-08-08_13h03.15.887,lexical_decision_task_MP,2020.1.3,iPhone,60,,0,-0.410358566,-0.28685259,1,0,0,0.521,button_left,0.521,1,,,,,,385,NW,"ID",50,veigma,VEIGMA,z,,,,,,-0.410358566,-0.28685259,1,0,0,,0,47,47,324,1,
,,,,,,,,,,,,,,,,,,5f2e8596a2eef41fc9968887,2020-08-08_13h03.15.887,lexical_decision_task_MP,2020.1.3,iPhone,60,,0,0.430278884,-0.294820717,1,0,0,0.656,button_right,0.656,1,,,,,,153,WORD,"ID",50,behold,BEHOLD,m,,,,,,0.430278884,-0.294820717,1,0,0,,0,48,48,92,1,
,,,,,,,,,,,,,,,,,,5f2e8596a2eef41fc9968887,2020-08-08_13h03.15.887,lexical_decision_task_MP,2020.1.3,iPhone,60,,0,-0.408366534,-0.284860558,1,0,0,0.541,button_left,0.541,1,,,,,,334,NW,"ID",33,watmeg,WATMEG,z,,,,,,-0.408366534,-0.284860558,1,0,0,,0,49,49,273,1,
,,,,,,,,,,,,,,,,,,5f2e8596a2eef41fc9968887,2020-08-08_13h03.15.887,lexical_decision_task_MP,2020.1.3,iPhone,60,,0,0.430278884,-0.294820717,1,0,0,0.473,button_right,0.473,1,,,,,,104,WORD,"ID",33,studio,STUDIO,m,,,,,,0.430278884,-0.294820717,1,0,0,,0,50,50,43,1,
,,,,,,,,,,,,,,,,,,5f2e8596a2eef41fc9968887,2020-08-08_13h03.15.887,lexical_decision_task_MP,2020.1.3,iPhone,60,,0,0.426294821,-0.294820717,1,0,0,0.555,button_right,0.555,0,,,,,,248,NW,UN,50,batrol,STROLE,z,,,,,,0.426294821,-0.294820717,1,0,0,,0,51,51,427,1,
,,,,,,,,,,,,,,,,,,5f2e8596a2eef41fc9968887,2020-08-08_13h03.15.887,lexical_decision_task_MP,2020.1.3,iPhone,60,,0,0.428286853,-0.290836653,1,0,0,0.563,button_right,0.563,1,,,,,,85,WORD,"ID",33,sprawl,SPRAWL,m,,,,,,0.428286853,-0.290836653,1,0,0,,0,52,52,24,1,
,,,,,,,,,,,,,,,,,,5f2e8596a2eef41fc9968887,2020-08-08_13h03.15.887,lexical_decision_task_MP,2020.1.3,iPhone,60,,0,0.424302789,-0.292828685,1,0,0,0.556,button_right,0.556,1,,,,,,11,WORD,UN,50,amount,CRUISE,m,,,,,,0.424302789,-0.292828685,1,0,0,,0,53,53,190,1,
,,,,,,,,,,,,,,,,,,5f2e8596a2eef41fc9968887,2020-08-08_13h03.15.887,lexical_decision_task_MP,2020.1.3,iPhone,60,,0,-0.40438247,-0.290836653,1,0,0,0.614,button_left,0.614,1,,,,,,266,NW,UN,50,pasink,VARMIT,z,,,,,,-0.40438247,-0.290836653,1,0,0,,0,54,54,445,1,
,,,,,,,,,,,,,,,,,,5f2e8596a2eef41fc9968887,2020-08-08_13h03.15.887,lexical_decision_task_MP,2020.1.3,iPhone,60,,0,0.426294821,-0.292828685,1,0,0,0.985,button_right,0.985,1,,,,,,230,WORD,UN,33,mother,FRINGE,m,,,,,,0.426294821,-0.292828685,1,0,0,,0,55,55,169,1,
,,,,,,,,,,,,,,,,,,5f2e8596a2eef41fc9968887,2020-08-08_13h03.15.887,lexical_decision_task_MP,2020.1.3,iPhone,60,,0,-0.398406375,-0.278884462,1,0,0,0.622,button_left,0.622,1,,,,,,436,NW,UN,33,snapel,FRUTAN,z,,,,,,-0.398406375,-0.278884462,1,0,0,,0,56,56,375,1,
,,,,,,,,,,,,,,,,,,5f2e8596a2eef41fc9968887,2020-08-08_13h03.15.887,lexical_decision_task_MP,2020.1.3,iPhone,60,,0,0.426294821,-0.290836653,1,0,0,0.481,button_right,0.481,1,,,,,,132,WORD,"ID",50,strong,STRONG,m,,,,,,0.426294821,-0.290836653,1,0,0,,0,57,57,71,1,
,,,,,,,,,,,,,,,,,,5f2e8596a2eef41fc9968887,2020-08-08_13h03.15.887,lexical_decision_task_MP,2020.1.3,iPhone,60,,0,0.418326693,-0.296812749,1,0,0,0.481,button_right,0.481,1,,,,,,145,WORD,"ID",50,parish,PARISH,m,,,,,,0.418326693,-0.296812749,1,0,0,,0,58,58,84,1,
,,,,,,,,,,,,,,,,,,5f2e8596a2eef41fc9968887,2020-08-08_13h03.15.887,lexical_decision_task_MP,2020.1.3,iPhone,60,,0,0.416334661,-0.288844622,1,0,0,0.721,button_right,0.721,1,,,,,,5,WORD,UN,50,bundle,PLUNGE,m,,,,,,0.416334661,-0.288844622,1,0,0,,0,59,59,184,1,
,,,,,,,,,,,,,,,,,,5f2e8596a2eef41fc9968887,2020-08-08_13h03.15.887,lexical_decision_task_MP,2020.1.3,iPhone,60,,0,-0.402390438,-0.28685259,1,0,0,0.565,button_left,0.565,1,,,,,,281,NW,UN,50,porlex,MELATY,z,,,,,,-0.402390438,-0.28685259,1,0,0,,0,60,60,460,1,
,,,,,,,,,,,,,,,,,,5f2e8596a2eef41fc9968887,2020-08-08_13h03.15.887,lexical_decision_task_MP,2020.1.3,iPhone,60,,0,0.420318725,-0.292828685,1,0,0,0.555,button_right,0.555,1,,,,,,31,WORD,UN,50,buckle,WEAPON,m,,,,,,0.420318725,-0.292828685,1,0,0,,0,61,61,210,1,
,,,,,,,,,,,,,,,,,,5f2e8596a2eef41fc9968887,2020-08-08_13h03.15.887,lexical_decision_task_MP,2020.1.3,iPhone,60,,0,0.422310757,-0.294820717,1,0,0,0.58,button_right,0.58,0,,,,,,342,NW,"ID",33,randow,RANDOW,z,,,,,,0.422310757,-0.294820717,1,0,0,,0,62,62,281,1,
,,,,,,,,,,,,,,,,,,5f2e8596a2eef41fc9968887,2020-08-08_13h03.15.887,lexical_decision_task_MP,2020.1.3,iPhone,60,,0,0.424302789,-0.296812749,1,0,0,0.516,button_right,0.516,1,,,,,,224,WORD,UN,33,vulgar,PERIOD,m,,,,,,0.424302789,-0.296812749,1,0,0,,0,63,63,163,1,
,,,,,,,,,,,,,,,,,,5f2e8596a2eef41fc9968887,2020-08-08_13h03.15.887,lexical_decision_task_MP,2020.1.3,iPhone,60,,0,-0.402390438,-0.294820717,1,0,0,0.548,button_left,0.548,1,,,,,,241,NW,UN,50,unwert,SMENCO,z,,,,,,-0.402390438,-0.294820717,1,0,0,,0,64,64,420,1,
,,,,,,,,,,,,,,,,,,5f2e8596a2eef41fc9968887,2020-08-08_13h03.15.887,lexical_decision_task_MP,2020.1.3,iPhone,60,,0,0.426294821,-0.290836653,1,0,0,0.656,button_right,0.656,1,,,,,,10,WORD,UN,50,cruise,ETHNIC,m,,,,,,0.426294821,-0.290836653,1,0,0,,0,65,65,189,1,
,,,,,,,,,,,,,,,,,,5f2e8596a2eef41fc9968887,2020-08-08_13h03.15.887,lexical_decision_task_MP,2020.1.3,iPhone,60,,0,-0.400398406,-0.290836653,1,0,0,0.571,button_left,0.571,1,,,,,,274,NW,UN,50,sleirt,FUMBLO,z,,,,,,-0.400398406,-0.290836653,1,0,0,,0,66,66,453,1,
,,,,,,,,,,,,,,,,,,5f2e8596a2eef41fc9968887,2020-08-08_13h03.15.887,lexical_decision_task_MP,2020.1.3,iPhone,60,,0,0.424302789,-0.294820717,1,0,0,0.556,button_right,0.556,1,,,,,,13,WORD,UN,50,almost,STRIVE,m,,,,,,0.424302789,-0.294820717,1,0,0,,0,67,67,192,1,
,,,,,,,,,,,,,,,,,,5f2e8596a2eef41fc9968887,2020-08-08_13h03.15.887,lexical_decision_task_MP,2020.1.3,iPhone,60,,0,0.424302789,-0.302788845,1,0,0,0.648,button_right,0.648,1,,,,,,61,WORD,"ID",33,ponder,PONDER,m,,,,,,0.424302789,-0.302788845,1,0,0,,0,68,68,0,1,
,,,,,,,,,,,,,,,,,,5f2e8596a2eef41fc9968887,2020-08-08_13h03.15.887,lexical_decision_task_MP,2020.1.3,iPhone,60,,0,-0.400398406,-0.28685259,1,0,0,0.601,button_left,0.601,1,,,,,,346,NW,"ID",33,saudic,SAUDIC,z,,,,,,-0.400398406,-0.28685259,1,0,0,,0,69,69,285,1,
,,,,,,,,,,,,,,,,,,5f2e8596a2eef41fc9968887,2020-08-08_13h03.15.887,lexical_decision_task_MP,2020.1.3,iPhone,60,,0,0.424302789,-0.296812749,1,0,0,0.498,button_right,0.498,1,,,,,,100,WORD,"ID",33,carbon,CARBON,m,,,,,,0.424302789,-0.296812749,1,0,0,,0,70,70,39,1,
,,,,,,,,,,,,,,,,,,5f2e8596a2eef41fc9968887,2020-08-08_13h03.15.887,lexical_decision_task_MP,2020.1.3,iPhone,60,,0,-0.402390438,-0.28685259,1,0,0,0.573,button_left,0.573,1,,,,,,477,NW,UN,33,lobush,PHOTIE,z,,,,,,-0.402390438,-0.28685259,1,0,0,,0,71,71,416,1,
,,,,,,,,,,,,,,,,,,5f2e8596a2eef41fc9968887,2020-08-08_13h03.15.887,lexical_decision_task_MP,2020.1.3,iPhone,60,,0,-0.40438247,-0.284860558,1,0,0,0.606,button_left,0.606,1,,,,,,446,NW,UN,33,gircue,RUNAMO,z,,,,,,-0.40438247,-0.284860558,1,0,0,,0,72,72,385,1,
,,,,,,,,,,,,,,,,,,5f2e8596a2eef41fc9968887,2020-08-08_13h03.15.887,lexical_decision_task_MP,2020.1.3,iPhone,60,,0,0.424302789,-0.292828685,1,0,0,0.564,button_right,0.564,1,,,,,,217,WORD,UN,33,shrink,LIQUOR,m,,,,,,0.424302789,-0.292828685,1,0,0,,0,73,73,156,1,
,,,,,,,,,,,,,,,,,,5f2e8596a2eef41fc9968887,2020-08-08_13h03.15.887,lexical_decision_task_MP,2020.1.3,iPhone,60,,0,-0.40438247,-0.284860558,1,0,0,0.586,button_left,0.586,1,,,,,,352,NW,"ID",33,tringe,TRINGE,z,,,,,,-0.40438247,-0.284860558,1,0,0,,0,74,74,291,1,
,,,,,,,,,,,,,,,,,,5f2e8596a2eef41fc9968887,2020-08-08_13h03.15.887,lexical_decision_task_MP,2020.1.3,iPhone,60,,0,-0.406374502,-0.280876494,1,0,0,0.539,button_left,0.539,1,,,,,,245,NW,UN,50,piaton,ANOUGS,z,,,,,,-0.406374502,-0.280876494,1,0,0,,0,75,75,424,1,
,,,,,,,,,,,,,,,,,,5f2e8596a2eef41fc9968887,2020-08-08_13h03.15.887,lexical_decision_task_MP,2020.1.3,iPhone,60,,0,-0.406374502,-0.278884462,1,0,0,0.522,button_left,0.522,1,,,,,,283,NW,UN,50,shaple,VERALF,z,,,,,,-0.406374502,-0.278884462,1,0,0,,0,76,76,462,1,
,,,,,,,,,,,,,,,,,,5f2e8596a2eef41fc9968887,2020-08-08_13h03.15.887,lexical_decision_task_MP,2020.1.3,iPhone,60,,0,-0.40438247,-0.282868526,1,0,0,0.572,button_left,0.572,1,,,,,,480,NW,UN,33,knisma,ROBULY,z,,,,,,-0.40438247,-0.282868526,1,0,0,,0,77,77,419,1,
,,,,,,,,,,,,,,,,,,5f2e8596a2eef41fc9968887,2020-08-08_13h03.15.887,lexical_decision_task_MP,2020.1.3,iPhone,60,,0,0.422310757,-0.294820717,1,0,0,0.726,button_right,0.726,1,,,,,,95,WORD,"ID",33,thread,THREAD,m,,,,,,0.422310757,-0.294820717,1,0,0,,0,78,78,34,1,
,,,,,,,,,,,,,,,,,,5f2e8596a2eef41fc9968887,2020-08-08_13h03.15.887,lexical_decision_task_MP,2020.1.3,iPhone,60,,0,-0.406374502,-0.284860558,1,0,0,0.531,button_left,0.531,1,,,,,,253,NW,UN,50,varosh,RESAIT,z,,,,,,-0.406374502,-0.284860558,1,0,0,,0,79,79,432,1,
,,,,,,,,,,,,,,,,,,5f2e8596a2eef41fc9968887,2020-08-08_13h03.15.887,lexical_decision_task_MP,2020.1.3,iPhone,60,,0,-0.40438247,-0.280876494,1,0,0,0.523,button_left,0.523,1,,,,,,389,NW,"ID",50,witmer,WITMER,z,,,,,,-0.40438247,-0.280876494,1,0,0,,0,80,80,328,1,
,,,,,,,,,,,,,,,,,,5f2e8596a2eef41fc9968887,2020-08-08_13h03.15.887,lexical_decision_task_MP,2020.1.3,iPhone,60,,0,0.418326693,-0.292828685,1,0,0,0.605,button_right,0.605,1,,,,,,87,WORD,"ID",33,filter,FILTER,m,,,,,,0.418326693,-0.292828685,1,0,0,,0,81,81,26,1,
,,,,,,,,,,,,,,,,,,5f2e8596a2eef41fc9968887,2020-08-08_13h03.15.887,lexical_decision_task_MP,2020.1.3,iPhone,60,,0,-0.406374502,-0.282868526,1,0,0,0.523,button_left,0.523,1,,,,,,275,NW,UN,50,yarmon,SLEIRT,z,,,,,,-0.406374502,-0.282868526,1,0,0,,0,82,82,454,1,
,,,,,,,,,,,,,,,,,,5f2e8596a2eef41fc9968887,2020-08-08_13h03.15.887,lexical_decision_task_MP,2020.1.3,iPhone,60,,0,0.420318725,-0.292828685,1,0,0,0.573,button_right,0.573,1,,,,,,24,WORD,UN,50,domain,PRAISE,m,,,,,,0.420318725,-0.292828685,1,0,0,,0,83,83,203,1,
,,,,,,,,,,,,,,,,,,5f2e8596a2eef41fc9968887,2020-08-08_13h03.15.887,lexical_decision_task_MP,2020.1.3,iPhone,60,,0,0.422310757,-0.294820717,1,0,0,0.523,button_right,0.523,1,,,,,,125,WORD,"ID",50,nickel,NICKEL,m,,,,,,0.422310757,-0.294820717,1,0,0,,0,84,84,64,1,
,,,,,,,,,,,,,,,,,,5f2e8596a2eef41fc9968887,2020-08-08_13h03.15.887,lexical_decision_task_MP,2020.1.3,iPhone,60,,0,0.422310757,-0.292828685,1,0,0,0.514,button_right,0.514,1,,,,,,213,WORD,UN,33,intake,SQUEAL,m,,,,,,0.422310757,-0.292828685,1,0,0,,0,85,85,152,1,
,,,,,,,,,,,,,,,,,,5f2e8596a2eef41fc9968887,2020-08-08_13h03.15.887,lexical_decision_task_MP,2020.1.3,iPhone,60,,0,0.430278884,-0.27689243,1,0,0,0.582,button_right,0.582,1,,,,,,56,WORD,UN,50,change,AMBUSH,m,,,,,,0.430278884,-0.27689243,1,0,0,,0,86,86,235,1,
,,,,,,,,,,,,,,,,,,5f2e8596a2eef41fc9968887,2020-08-08_13h03.15.887,lexical_decision_task_MP,2020.1.3,iPhone,60,,0,-0.396414343,-0.288844622,1,0,0,0.639,button_left,0.639,1,,,,,,379,NW,"ID",50,auting,AUTING,z,,,,,,-0.396414343,-0.288844622,1,0,0,,0,87,87,318,1,
,,,,,,,,,,,,,,,,,,5f2e8596a2eef41fc9968887,2020-08-08_13h03.15.887,lexical_decision_task_MP,2020.1.3,iPhone,60,,0,0.422310757,-0.292828685,1,0,0,0.489,button_right,0.489,1,,,,,,164,WORD,"ID",50,market,MARKET,m,,,,,,0.422310757,-0.292828685,1,0,0,,0,88,88,103,1,
,,,,,,,,,,,,,,,,,,5f2e8596a2eef41fc9968887,2020-08-08_13h03.15.887,lexical_decision_task_MP,2020.1.3,iPhone,60,,0,0.408366534,-0.290836653,1,0,0,0.586,button_right,0.586,1,,,,,,38,WORD,UN,50,insect,POWDER,m,,,,,,0.408366534,-0.290836653,1,0,0,,0,89,89,217,1,
,,,,,,,,,,,,,,,,,,5f2e8596a2eef41fc9968887,2020-08-08_13h03.15.887,lexical_decision_task_MP,2020.1.3,iPhone,60,,0,-0.394422311,-0.290836653,1,0,0,0.556,button_left,0.556,1,,,,,,252,NW,UN,50,resait,STAPOD,z,,,,,,-0.394422311,-0.290836653,1,0,0,,0,90,90,431,1,
,,,,,,,,,,,,,,,,,,5f2e8596a2eef41fc9968887,2020-08-08_13h03.15.887,lexical_decision_task_MP,2020.1.3,iPhone,60,,0,-0.394422311,-0.290836653,1,0,0,0.531,button_left,0.531,1,,,,,,388,NW,"ID",50,cragin,CRAGIN,z,,,,,,-0.394422311,-0.290836653,1,0,0,,0,91,91,327,1,
,,,,,,,,,,,,,,,,,,5f2e8596a2eef41fc9968887,2020-08-08_13h03.15.887,lexical_decision_task_MP,2020.1.3,iPhone,60,,0,-0.400398406,-0.290836653,1,0,0,0.706,button_left,0.706,1,,,,,,323,NW,"ID",33,rosail,ROSAIL,z,,,,,,-0.400398406,-0.290836653,1,0,0,,0,92,92,262,1,
,,,,,,,,,,,,,,,,,,5f2e8596a2eef41fc9968887,2020-08-08_13h03.15.887,lexical_decision_task_MP,2020.1.3,iPhone,60,,0,0.416334661,-0.288844622,1,0,0,0.514,button_right,0.514,1,,,,,,200,WORD,UN,33,admire,BEACON,m,,,,,,0.416334661,-0.288844622,1,0,0,,0,93,93,139,1,
,,,,,,,,,,,,,,,,,,5f2e8596a2eef41fc9968887,2020-08-08_13h03.15.887,lexical_decision_task_MP,2020.1.3,iPhone,60,,0,-0.396414343,-0.290836653,1,0,0,0.563,button_left,0.563,1,,,,,,414,NW,"ID",50,serbol,SERBOL,z,,,,,,-0.396414343,-0.290836653,1,0,0,,0,94,94,353,1,
,,,,,,,,,,,,,,,,,,5f2e8596a2eef41fc9968887,2020-08-08_13h03.15.887,lexical_decision_task_MP,2020.1.3,iPhone,60,,0,-0.400398406,-0.290836653,1,0,0,0.697,button_left,0.697,1,,,,,,410,NW,"ID",50,tunory,TUNORY,z,,,,,,-0.400398406,-0.290836653,1,0,0,,0,95,95,349,1,
,,,,,,,,,,,,,,,,,,5f2e8596a2eef41fc9968887,2020-08-08_13h03.15.887,lexical_decision_task_MP,2020.1.3,iPhone,60,,0,-0.406374502,-0.288844622,1,0,0,0.622,button_left,0.622,1,,,,,,310,NW,"ID",33,daniet,DANIET,z,,,,,,-0.406374502,-0.288844622,1,0,0,,0,96,96,249,1,
,,,,,,,,,,,,,,,,,,5f2e8596a2eef41fc9968887,2020-08-08_13h03.15.887,lexical_decision_task_MP,2020.1.3,iPhone,60,,0,0.416334661,-0.292828685,1,0,0,0.581,button_right,0.581,1,,,,,,64,WORD,"ID",33,throne,THRONE,m,,,,,,0.416334661,-0.292828685,1,0,0,,0,97,97,3,1,
,,,,,,,,,,,,,,,,,,5f2e8596a2eef41fc9968887,2020-08-08_13h03.15.887,lexical_decision_task_MP,2020.1.3,iPhone,60,,0,-0.406374502,-0.284860558,1,0,0,0.531,button_left,0.531,1,,,,,,287,NW,UN,50,yaceup,NYMBEL,z,,,,,,-0.406374502,-0.284860558,1,0,0,,0,98,98,466,1,
,,,,,,,,,,,,,,,,,,5f2e8596a2eef41fc9968887,2020-08-08_13h03.15.887,lexical_decision_task_MP,2020.1.3,iPhone,60,,0,0.412350598,-0.296812749,1,0,0,0.497,button_right,0.497,1,,,,,,147,WORD,"ID",50,garlic,GARLIC,m,,,,,,0.412350598,-0.296812749,1,0,0,,0,99,99,86,1,
,,,,,,,,,,,,,,,,,,5f2e8596a2eef41fc9968887,2020-08-08_13h03.15.887,lexical_decision_task_MP,2020.1.3,iPhone,60,,0,-0.40438247,-0.284860558,1,0,0,0.639,button_left,0.639,1,,,,,,280,NW,UN,50,melaty,CURBOL,z,,,,,,-0.40438247,-0.284860558,1,0,0,,0,100,100,459,1,
,,,,,,,,,,,,,,,,,,5f2e8596a2eef41fc9968887,2020-08-08_13h03.15.887,lexical_decision_task_MP,2020.1.3,iPhone,60,,0,0.412350598,-0.294820717,1,0,0,0.522,button_right,0.522,1,,,,,,190,WORD,UN,33,stable,BACKUP,m,,,,,,0.412350598,-0.294820717,1,0,0,,0,101,101,129,1,
,,,,,,,,,,,,,,,,,,5f2e8596a2eef41fc9968887,2020-08-08_13h03.15.887,lexical_decision_task_MP,2020.1.3,iPhone,60,,0,0.418326693,-0.298804781,1,0,0,0.513,button_right,0.513,1,,,,,,46,WORD,UN,50,income,SINGLE,m,,,,,,0.418326693,-0.298804781,1,0,0,,0,102,102,225,1,
,,,,,,,,,,,,,,,,,,5f2e8596a2eef41fc9968887,2020-08-08_13h03.15.887,lexical_decision_task_MP,2020.1.3,iPhone,60,,0,0.420318725,-0.294820717,1,0,0,0.566,button_right,0.566,1,,,,,,232,WORD,UN,33,nature,INJECT,m,,,,,,0.420318725,-0.294820717,1,0,0,,0,103,103,171,1,
,,,,,,,,,,,,,,,,,,5f2e8596a2eef41fc9968887,2020-08-08_13h03.15.887,lexical_decision_task_MP,2020.1.3,iPhone,60,,0,-0.394422311,-0.290836653,1,0,0,0.522,button_left,0.522,1,,,,,,350,NW,"ID",33,nagurs,NAGURS,z,,,,,,-0.394422311,-0.290836653,1,0,0,,0,104,104,289,1,
,,,,,,,,,,,,,,,,,,5f2e8596a2eef41fc9968887,2020-08-08_13h03.15.887,lexical_decision_task_MP,2020.1.3,iPhone,60,,0,-0.396414343,-0.28685259,1,0,0,0.639,button_left,0.639,1,,,,,,471,NW,UN,33,cigney,NOBEST,z,,,,,,-0.396414343,-0.28685259,1,0,0,,0,105,105,410,1,
,,,,,,,,,,,,,,,,,,5f2e8596a2eef41fc9968887,2020-08-08_13h03.15.887,lexical_decision_task_MP,2020.1.3,iPhone,60,,0,-0.394422311,-0.280876494,1,0,0,1.13,button_left,1.13,1,,,,,,250,NW,UN,50,lupict,MILTED,z,,,,,,-0.394422311,-0.280876494,1,0,0,,0,106,106,429,1,
,,,,,,,,,,,,,,,,,,5f2e8596a2eef41fc9968887,2020-08-08_13h03.15.887,lexical_decision_task_MP,2020.1.3,iPhone,60,,0,-0.406374502,-0.294820717,1,0,0,0.641,button_left,0.641,1,,,,,,478,NW,UN,33,pebric,ACRISE,z,,,,,,-0.406374502,-0.294820717,1,0,0,,0,107,107,417,1,
,,,,,,,,,,,,,,,,,,5f2e8596a2eef41fc9968887,2020-08-08_13h03.15.887,lexical_decision_task_MP,2020.1.3,iPhone,60,,0,0.43625498,-0.296812749,1,0,0,0.606,button_right,0.606,0,,,,,,348,NW,"ID",33,dumple,DUMPLE,z,,,,,,0.43625498,-0.296812749,1,0,0,,0,108,108,287,1,
,,,,,,,,,,,,,,,,,,5f2e8596a2eef41fc9968887,2020-08-08_13h03.15.887,lexical_decision_task_MP,2020.1.3,iPhone,60,,0,0.432270916,-0.302788845,1,0,0,0.53,button_right,0.53,1,,,,,,238,WORD,UN,33,behalf,FLOWER,m,,,,,,0.432270916,-0.302788845,1,0,0,,0,109,109,177,1,
,,,,,,,,,,,,,,,,,,5f2e8596a2eef41fc9968887,2020-08-08_13h03.15.887,lexical_decision_task_MP,2020.1.3,iPhone,60,,0,-0.410358566,-0.290836653,1,0,0,0.576,button_left,0.576,1,,,,,,329,NW,"ID",33,yarike,YARIKE,z,,,,,,-0.410358566,-0.290836653,1,0,0,,0,110,110,268,1,
,,,,,,,,,,,,,,,,,,5f2e8596a2eef41fc9968887,2020-08-08_13h03.15.887,lexical_decision_task_MP,2020.1.3,iPhone,60,,0,0.424302789,-0.302788845,1,0,0,0.556,button_right,0.556,1,,,,,,41,WORD,UN,50,chapel,SPRING,m,,,,,,0.424302789,-0.302788845,1,0,0,,0,111,111,220,1,
,,,,,,,,,,,,,,,,,,5f2e8596a2eef41fc9968887,2020-08-08_13h03.15.887,lexical_decision_task_MP,2020.1.3,iPhone,60,,0,-0.408366534,-0.290836653,1,0,0,0.539,button_left,0.539,1,,,,,,300,NW,UN,50,smenco,YARION,z,,,,,,-0.408366534,-0.290836653,1,0,0,,0,112,112,479,1,
,,,,,,,,,,,,,,,,,,5f2e8596a2eef41fc9968887,2020-08-08_13h03.15.887,lexical_decision_task_MP,2020.1.3,iPhone,60,,0,-0.412350598,-0.28685259,1,0,0,0.572,button_left,0.572,1,,,,,,337,NW,"ID",33,rejols,REJOLS,z,,,,,,-0.412350598,-0.28685259,1,0,0,,0,113,113,276,1,
,,,,,,,,,,,,,,,,,,5f2e8596a2eef41fc9968887,2020-08-08_13h03.15.887,lexical_decision_task_MP,2020.1.3,iPhone,60,,0,0.422310757,-0.298804781,1,0,0,0.55,button_right,0.55,1,,,,,,206,WORD,UN,33,wreath,TAILOR,m,,,,,,0.422310757,-0.298804781,1,0,0,,0,114,114,145,1,
,,,,,,,,,,,,,,,,,,5f2e8596a2eef41fc9968887,2020-08-08_13h03.15.887,lexical_decision_task_MP,2020.1.3,iPhone,60,,0,0.420318725,-0.302788845,1,0,0,0.522,button_right,0.522,1,,,,,,28,WORD,UN,50,sketch,COMEDY,m,,,,,,0.420318725,-0.302788845,1,0,0,,0,115,115,207,1,
,,,,,,,,,,,,,,,,,,5f2e8596a2eef41fc9968887,2020-08-08_13h03.15.887,lexical_decision_task_MP,2020.1.3,iPhone,60,,0,-0.412350598,-0.28685259,1,0,0,0.664,button_left,0.664,1,,,,,,359,NW,"ID",33,fonver,FONVER,z,,,,,,-0.412350598,-0.28685259,1,0,0,,0,116,116,298,1,
,,,,,,,,,,,,,,,,,,5f2e8596a2eef41fc9968887,2020-08-08_13h03.15.887,lexical_decision_task_MP,2020.1.3,iPhone,60,,0,0.422310757,-0.298804781,1,0,0,0.881,button_right,0.881,0,,,,,,285,NW,UN,50,reldon,PRUDGE,z,,,,,,0.422310757,-0.298804781,1,0,0,,0,117,117,464,1,
,,,,,,,,,,,,,,,,,,5f2e8596a2eef41fc9968887,2020-08-08_13h03.15.887,lexical_decision_task_MP,2020.1.3,iPhone,60,,0,0.422310757,-0.296812749,1,0,0,0.516,button_right,0.516,1,,,,,,109,WORD,"ID",33,wonder,WONDER,m,,,,,,0.422310757,-0.296812749,1,0,0,,0,118,118,48,1,
,,,,,,,,,,,,,,,,,,5f2e8596a2eef41fc9968887,2020-08-08_13h03.15.887,lexical_decision_task_MP,2020.1.3,iPhone,60,,0,0.420318725,-0.294820717,1,0,0,0.506,button_right,0.506,1,,,,,,62,WORD,"ID",33,region,REGION,m,,,,,,0.420318725,-0.294820717,1,0,0,,0,119,119,1,1,
,,,,,,,,,,,,,,,,,,5f2e8596a2eef41fc9968887,2020-08-08_13h03.15.887,lexical_decision_task_MP,2020.1.3,iPhone,60,,0,0.418326693,-0.300796813,1,0,0,0.573,button_right,0.573,1,,,,,,167,WORD,"ID",50,design,DESIGN,m,,,,,,-0.015936255,-0.390438247,1,0,0,,0,120,120,106,1,break_done_button
,,,,,,,,,,,,,,,,,,5f2e8596a2eef41fc9968887,2020-08-08_13h03.15.887,lexical_decision_task_MP,2020.1.3,iPhone,60,,0,-0.396414343,-0.260956175,1,0,0,0.707,button_left,0.707,0,,,,,,227,WORD,UN,33,master,SELDOM,m,,,,,,-0.396414343,-0.260956175,1,0,0,,0,121,121,166,1,
,,,,,,,,,,,,,,,,,,5f2e8596a2eef41fc9968887,2020-08-08_13h03.15.887,lexical_decision_task_MP,2020.1.3,iPhone,60,,0,-0.414342629,-0.284860558,1,0,0,0.639,button_left,0.639,1,,,,,,457,NW,UN,33,barcet,WANIGH,z,,,,,,-0.414342629,-0.284860558,1,0,0,,0,122,122,396,1,
,,,,,,,,,,,,,,,,,,5f2e8596a2eef41fc9968887,2020-08-08_13h03.15.887,lexical_decision_task_MP,2020.1.3,iPhone,60,,0,0.452191235,-0.30876494,1,0,0,0.522,button_right,0.522,1,,,,,,141,WORD,"ID",50,orphan,ORPHAN,m,,,,,,0.452191235,-0.30876494,1,0,0,,0,123,123,80,1,
,,,,,,,,,,,,,,,,,,5f2e8596a2eef41fc9968887,2020-08-08_13h03.15.887,lexical_decision_task_MP,2020.1.3,iPhone,60,,0,-0.416334661,-0.294820717,1,0,0,0.531,button_left,0.531,1,,,,,,380,NW,"ID",50,cavory,CAVORY,z,,,,,,-0.416334661,-0.294820717,1,0,0,,0,124,124,319,1,
,,,,,,,,,,,,,,,,,,5f2e8596a2eef41fc9968887,2020-08-08_13h03.15.887,lexical_decision_task_MP,2020.1.3,iPhone,60,,0,-0.40438247,-0.296812749,1,0,0,0.583,button_left,0.583,1,,,,,,464,NW,UN,33,whivex,CHAITE,z,,,,,,-0.40438247,-0.296812749,1,0,0,,0,125,125,403,1,
,,,,,,,,,,,,,,,,,,5f2e8596a2eef41fc9968887,2020-08-08_13h03.15.887,lexical_decision_task_MP,2020.1.3,iPhone,60,,0,-0.400398406,-0.288844622,1,0,0,0.563,button_left,0.563,1,,,,,,259,NW,UN,50,unject,SOUDAL,z,,,,,,-0.400398406,-0.288844622,1,0,0,,0,126,126,438,1,
,,,,,,,,,,,,,,,,,,5f2e8596a2eef41fc9968887,2020-08-08_13h03.15.887,lexical_decision_task_MP,2020.1.3,iPhone,60,,0,-0.396414343,-0.292828685,1,0,0,0.539,button_left,0.539,1,,,,,,279,NW,UN,50,curbol,CELOND,z,,,,,,-0.396414343,-0.292828685,1,0,0,,0,127,127,458,1,
,,,,,,,,,,,,,,,,,,5f2e8596a2eef41fc9968887,2020-08-08_13h03.15.887,lexical_decision_task_MP,2020.1.3,iPhone,60,,0,-0.390438247,-0.292828685,1,0,0,0.579,button_left,0.579,1,,,,,,295,NW,UN,50,beinch,GLEATH,z,,,,,,-0.390438247,-0.292828685,1,0,0,,0,128,128,474,1,
,,,,,,,,,,,,,,,,,,5f2e8596a2eef41fc9968887,2020-08-08_13h03.15.887,lexical_decision_task_MP,2020.1.3,iPhone,60,,0,-0.390438247,-0.292828685,1,0,0,0.542,button_left,0.542,1,,,,,,356,NW,"ID",33,othnis,OTHNIS,z,,,,,,-0.390438247,-0.292828685,1,0,0,,0,129,129,295,1,
,,,,,,,,,,,,,,,,,,5f2e8596a2eef41fc9968887,2020-08-08_13h03.15.887,lexical_decision_task_MP,2020.1.3,iPhone,60,,0,0.442231076,-0.306772908,1,0,0,0.463,button_right,0.463,1,,,,,,237,WORD,UN,33,glance,POSTER,m,,,,,,0.442231076,-0.306772908,1,0,0,,0,130,130,176,1,
,,,,,,,,,,,,,,,,,,5f2e8596a2eef41fc9968887,2020-08-08_13h03.15.887,lexical_decision_task_MP,2020.1.3,iPhone,60,,0,-0.388446215,-0.292828685,1,0,0,0.672,button_left,0.672,1,,,,,,468,NW,UN,33,padifs,WICTOR,z,,,,,,-0.388446215,-0.292828685,1,0,0,,0,131,131,407,1,
,,,,,,,,,,,,,,,,,,5f2e8596a2eef41fc9968887,2020-08-08_13h03.15.887,lexical_decision_task_MP,2020.1.3,iPhone,60,,0,-0.394422311,-0.28685259,1,0,0,0.489,button_left,0.489,1,,,,,,355,NW,"ID",33,zingly,ZINGLY,z,,,,,,-0.394422311,-0.28685259,1,0,0,,0,132,132,294,1,
,,,,,,,,,,,,,,,,,,5f2e8596a2eef41fc9968887,2020-08-08_13h03.15.887,lexical_decision_task_MP,2020.1.3,iPhone,60,,0,-0.388446215,-0.28685259,1,0,0,0.522,button_left,0.522,1,,,,,,404,NW,"ID",50,cluirm,CLUIRM,z,,,,,,-0.388446215,-0.28685259,1,0,0,,0,133,133,343,1,
,,,,,,,,,,,,,,,,,,5f2e8596a2eef41fc9968887,2020-08-08_13h03.15.887,lexical_decision_task_MP,2020.1.3,iPhone,60,,0,-0.394422311,-0.284860558,1,0,0,0.515,button_left,0.515,1,,,,,,336,NW,"ID",33,ghodus,GHODUS,z,,,,,,-0.394422311,-0.284860558,1,0,0,,0,134,134,275,1,
,,,,,,,,,,,,,,,,,,5f2e8596a2eef41fc9968887,2020-08-08_13h03.15.887,lexical_decision_task_MP,2020.1.3,iPhone,60,,0,0.438247012,-0.302788845,1,0,0,0.843,button_right,0.843,1,,,,,,101,WORD,"ID",33,wrench,WRENCH,m,,,,,,0.438247012,-0.302788845,1,0,0,,0,135,135,40,1,
,,,,,,,,,,,,,,,,,,5f2e8596a2eef41fc9968887,2020-08-08_13h03.15.887,lexical_decision_task_MP,2020.1.3,iPhone,60,,0,-0.390438247,-0.290836653,1,0,0,0.658,button_left,0.658,1,,,,,,358,NW,"ID",33,fleack,FLEACK,z,,,,,,-0.390438247,-0.290836653,1,0,0,,0,136,136,297,1,
,,,,,,,,,,,,,,,,,,5f2e8596a2eef41fc9968887,2020-08-08_13h03.15.887,lexical_decision_task_MP,2020.1.3,iPhone,60,,0,-0.390438247,-0.28685259,1,0,0,0.517,button_left,0.517,1,,,,,,428,NW,UN,33,funtle,TANDLY,z,,,,,,-0.390438247,-0.28685259,1,0,0,,0,137,137,367,1,
,,,,,,,,,,,,,,,,,,5f2e8596a2eef41fc9968887,2020-08-08_13h03.15.887,lexical_decision_task_MP,2020.1.3,iPhone,60,,0,-0.394422311,-0.284860558,1,0,0,0.572,button_left,0.572,1,,,,,,339,NW,"ID",33,fachow,FACHOW,z,,,,,,-0.394422311,-0.284860558,1,0,0,,0,138,138,278,1,
,,,,,,,,,,,,,,,,,,5f2e8596a2eef41fc9968887,2020-08-08_13h03.15.887,lexical_decision_task_MP,2020.1.3,iPhone,60,,0,-0.394422311,-0.284860558,1,0,0,0.705,button_left,0.705,1,,,,,,432,NW,UN,33,drance,LUNKER,z,,,,,,-0.394422311,-0.284860558,1,0,0,,0,139,139,371,1,
,,,,,,,,,,,,,,,,,,5f2e8596a2eef41fc9968887,2020-08-08_13h03.15.887,lexical_decision_task_MP,2020.1.3,iPhone,60,,0,0.434262948,-0.310756972,1,0,0,0.548,button_right,0.548,1,,,,,,107,WORD,"ID",33,slogan,SLOGAN,m,,,,,,0.434262948,-0.310756972,1,0,0,,0,140,140,46,1,
,,,,,,,,,,,,,,,,,,5f2e8596a2eef41fc9968887,2020-08-08_13h03.15.887,lexical_decision_task_MP,2020.1.3,iPhone,60,,0,-0.394422311,-0.290836653,1,0,0,0.572,button_left,0.572,1,,,,,,435,NW,UN,33,frutan,IMPURB,z,,,,,,-0.394422311,-0.290836653,1,0,0,,0,141,141,374,1,
,,,,,,,,,,,,,,,,,,5f2e8596a2eef41fc9968887,2020-08-08_13h03.15.887,lexical_decision_task_MP,2020.1.3,iPhone,60,,0,-0.390438247,-0.294820717,1,0,0,0.615,button_left,0.615,1,,,,,,338,NW,"ID",33,wreash,WREASH,z,,,,,,-0.390438247,-0.294820717,1,0,0,,0,142,142,277,1,
,,,,,,,,,,,,,,,,,,5f2e8596a2eef41fc9968887,2020-08-08_13h03.15.887,lexical_decision_task_MP,2020.1.3,iPhone,60,,0,-0.390438247,-0.28685259,1,0,0,0.526,button_left,0.526,1,,,,,,354,NW,"ID",33,virlex,VIRLEX,z,,,,,,-0.390438247,-0.28685259,1,0,0,,0,143,143,293,1,
,,,,,,,,,,,,,,,,,,5f2e8596a2eef41fc9968887,2020-08-08_13h03.15.887,lexical_decision_task_MP,2020.1.3,iPhone,60,,0,0.426294821,-0.306772908,1,0,0,0.559,button_right,0.559,1,,,,,,185,WORD,UN,33,portal,BOTHER,m,,,,,,0.426294821,-0.306772908,1,0,0,,0,144,144,124,1,
,,,,,,,,,,,,,,,,,,5f2e8596a2eef41fc9968887,2020-08-08_13h03.15.887,lexical_decision_task_MP,2020.1.3,iPhone,60,,0,0.428286853,-0.304780876,1,0,0,0.439,button_right,0.439,1,,,,,,180,WORD,"ID",50,silent,SILENT,m,,,,,,0.428286853,-0.304780876,1,0,0,,0,145,145,119,1,
,,,,,,,,,,,,,,,,,,5f2e8596a2eef41fc9968887,2020-08-08_13h03.15.887,lexical_decision_task_MP,2020.1.3,iPhone,60,,0,0.428286853,-0.298804781,1,0,0,0.505,button_right,0.505,1,,,,,,102,WORD,"ID",33,direct,DIRECT,m,,,,,,0.428286853,-0.298804781,1,0,0,,0,146,146,41,1,
,,,,,,,,,,,,,,,,,,5f2e8596a2eef41fc9968887,2020-08-08_13h03.15.887,lexical_decision_task_MP,2020.1.3,iPhone,60,,0,0.422310757,-0.302788845,1,0,0,0.565,button_right,0.565,1,,,,,,25,WORD,UN,50,sprint,DOMAIN,m,,,,,,0.422310757,-0.302788845,1,0,0,,0,147,147,204,1,
,,,,,,,,,,,,,,,,,,5f2e8596a2eef41fc9968887,2020-08-08_13h03.15.887,lexical_decision_task_MP,2020.1.3,iPhone,60,,0,-0.394422311,-0.290836653,1,0,0,0.522,button_left,0.522,1,,,,,,451,NW,UN,33,surden,CAINKY,z,,,,,,-0.394422311,-0.290836653,1,0,0,,0,148,148,390,1,
,,,,,,,,,,,,,,,,,,5f2e8596a2eef41fc9968887,2020-08-08_13h03.15.887,lexical_decision_task_MP,2020.1.3,iPhone,60,,0,-0.396414343,-0.28685259,1,0,0,0.556,button_left,0.556,1,,,,,,324,NW,"ID",33,steikh,STEIKH,z,,,,,,-0.396414343,-0.28685259,1,0,0,,0,149,149,263,1,
,,,,,,,,,,,,,,,,,,5f2e8596a2eef41fc9968887,2020-08-08_13h03.15.887,lexical_decision_task_MP,2020.1.3,iPhone,60,,0,0.422310757,-0.302788845,1,0,0,0.459,button_right,0.459,1,,,,,,189,WORD,UN,33,backup,CENSOR,m,,,,,,0.422310757,-0.302788845,1,0,0,,0,150,150,128,1,
,,,,,,,,,,,,,,,,,,5f2e8596a2eef41fc9968887,2020-08-08_13h03.15.887,lexical_decision_task_MP,2020.1.3,iPhone,60,,0,0.424302789,-0.298804781,1,0,0,0.438,button_right,0.438,1,,,,,,135,WORD,"ID",50,import,IMPORT,m,,,,,,0.424302789,-0.298804781,1,0,0,,0,151,151,74,1,
,,,,,,,,,,,,,,,,,,5f2e8596a2eef41fc9968887,2020-08-08_13h03.15.887,lexical_decision_task_MP,2020.1.3,iPhone,60,,0,-0.402390438,-0.290836653,1,0,0,0.481,button_left,0.481,1,,,,,,377,NW,"ID",50,injore,INJORE,z,,,,,,-0.402390438,-0.290836653,1,0,0,,0,152,152,316,1,
,,,,,,,,,,,,,,,,,,5f2e8596a2eef41fc9968887,2020-08-08_13h03.15.887,lexical_decision_task_MP,2020.1.3,iPhone,60,,0,0.424302789,-0.304780876,1,0,0,0.548,button_right,0.548,1,,,,,,42,WORD,UN,50,tongue,CHAPEL,m,,,,,,0.424302789,-0.304780876,1,0,0,,0,153,153,221,1,
,,,,,,,,,,,,,,,,,,5f2e8596a2eef41fc9968887,2020-08-08_13h03.15.887,lexical_decision_task_MP,2020.1.3,iPhone,60,,0,-0.40438247,-0.282868526,1,0,0,0.559,button_left,0.559,1,,,,,,439,NW,UN,33,saride,LIMPOR,z,,,,,,-0.40438247,-0.282868526,1,0,0,,0,154,154,378,1,
,,,,,,,,,,,,,,,,,,5f2e8596a2eef41fc9968887,2020-08-08_13h03.15.887,lexical_decision_task_MP,2020.1.3,iPhone,60,,0,-0.400398406,-0.290836653,1,0,0,0.538,button_left,0.538,1,,,,,,278,NW,UN,50,celond,UNIGHS,z,,,,,,-0.400398406,-0.290836653,1,0,0,,0,155,155,457,1,
,,,,,,,,,,,,,,,,,,5f2e8596a2eef41fc9968887,2020-08-08_13h03.15.887,lexical_decision_task_MP,2020.1.3,iPhone,60,,0,0.420318725,-0.306772908,1,0,0,0.472,button_right,0.472,1,,,,,,151,WORD,"ID",50,mystic,MYSTIC,m,,,,,,0.420318725,-0.306772908,1,0,0,,0,156,156,90,1,
,,,,,,,,,,,,,,,,,,5f2e8596a2eef41fc9968887,2020-08-08_13h03.15.887,lexical_decision_task_MP,2020.1.3,iPhone,60,,0,-0.40438247,-0.288844622,1,0,0,0.456,button_left,0.456,1,,,,,,249,NW,UN,50,milted,BATROL,z,,,,,,-0.40438247,-0.288844622,1,0,0,,0,157,157,428,1,
,,,,,,,,,,,,,,,,,,5f2e8596a2eef41fc9968887,2020-08-08_13h03.15.887,lexical_decision_task_MP,2020.1.3,iPhone,60,,0,0.422310757,-0.306772908,1,0,0,0.514,button_right,0.514,1,,,,,,211,WORD,UN,33,verify,INFECT,m,,,,,,0.422310757,-0.306772908,1,0,0,,0,158,158,150,1,
,,,,,,,,,,,,,,,,,,5f2e8596a2eef41fc9968887,2020-08-08_13h03.15.887,lexical_decision_task_MP,2020.1.3,iPhone,60,,0,-0.406374502,-0.290836653,1,0,0,0.626,button_left,0.626,1,,,,,,319,NW,"ID",33,zomber,ZOMBER,z,,,,,,-0.406374502,-0.290836653,1,0,0,,0,159,159,258,1,
,,,,,,,,,,,,,,,,,,5f2e8596a2eef41fc9968887,2020-08-08_13h03.15.887,lexical_decision_task_MP,2020.1.3,iPhone,60,,0,0.424302789,-0.302788845,1,0,0,0.572,button_right,0.572,1,,,,,,175,WORD,"ID",50,fabric,FABRIC,m,,,,,,0.424302789,-0.302788845,1,0,0,,0,160,160,114,1,
,,,,,,,,,,,,,,,,,,5f2e8596a2eef41fc9968887,2020-08-08_13h03.15.887,lexical_decision_task_MP,2020.1.3,iPhone,60,,0,-0.406374502,-0.292828685,1,0,0,0.632,button_left,0.632,1,,,,,,425,NW,UN,33,urivel,FRUDGE,z,,,,,,-0.406374502,-0.292828685,1,0,0,,0,161,161,364,1,
,,,,,,,,,,,,,,,,,,5f2e8596a2eef41fc9968887,2020-08-08_13h03.15.887,lexical_decision_task_MP,2020.1.3,iPhone,60,,0,-0.408366534,-0.290836653,1,0,0,0.517,button_left,0.517,1,,,,,,453,NW,UN,33,scouge,BOLVIS,z,,,,,,-0.408366534,-0.290836653,1,0,0,,0,162,162,392,1,
,,,,,,,,,,,,,,,,,,5f2e8596a2eef41fc9968887,2020-08-08_13h03.15.887,lexical_decision_task_MP,2020.1.3,iPhone,60,,0,-0.412350598,-0.282868526,1,0,0,0.548,button_left,0.548,1,,,,,,312,NW,"ID",33,nerawl,NERAWL,z,,,,,,-0.412350598,-0.282868526,1,0,0,,0,163,163,251,1,
,,,,,,,,,,,,,,,,,,5f2e8596a2eef41fc9968887,2020-08-08_13h03.15.887,lexical_decision_task_MP,2020.1.3,iPhone,60,,0,-0.416334661,-0.28685259,1,0,0,0.589,button_left,0.589,1,,,,,,405,NW,"ID",50,flumni,FLUMNI,z,,,,,,-0.416334661,-0.28685259,1,0,0,,0,164,164,344,1,
,,,,,,,,,,,,,,,,,,5f2e8596a2eef41fc9968887,2020-08-08_13h03.15.887,lexical_decision_task_MP,2020.1.3,iPhone,60,,0,-0.410358566,-0.282868526,1,0,0,0.572,button_left,0.572,1,,,,,,396,NW,"ID",50,flengy,FLENGY,z,,,,,,-0.410358566,-0.282868526,1,0,0,,0,165,165,335,1,
,,,,,,,,,,,,,,,,,,5f2e8596a2eef41fc9968887,2020-08-08_13h03.15.887,lexical_decision_task_MP,2020.1.3,iPhone,60,,0,0.426294821,-0.302788845,1,0,0,0.49,button_right,0.49,1,,,,,,89,WORD,"ID",33,permit,PERMIT,m,,,,,,0.426294821,-0.302788845,1,0,0,,0,166,166,28,1,
,,,,,,,,,,,,,,,,,,5f2e8596a2eef41fc9968887,2020-08-08_13h03.15.887,lexical_decision_task_MP,2020.1.3,iPhone,60,,0,0.424302789,-0.300796813,1,0,0,0.531,button_right,0.531,1,,,,,,21,WORD,UN,50,jockey,SIMPLE,m,,,,,,0.424302789,-0.300796813,1,0,0,,0,167,167,200,1,
,,,,,,,,,,,,,,,,,,5f2e8596a2eef41fc9968887,2020-08-08_13h03.15.887,lexical_decision_task_MP,2020.1.3,iPhone,60,,0,-0.416334661,-0.284860558,1,0,0,0.506,button_left,0.506,1,,,,,,294,NW,UN,50,gleath,INHORT,z,,,,,,-0.416334661,-0.284860558,1,0,0,,0,168,168,473,1,
,,,,,,,,,,,,,,,,,,5f2e8596a2eef41fc9968887,2020-08-08_13h03.15.887,lexical_decision_task_MP,2020.1.3,iPhone,60,,0,0.424302789,-0.298804781,1,0,0,0.497,button_right,0.497,1,,,,,,60,WORD,UN,50,fright,PENCIL,m,,,,,,0.424302789,-0.298804781,1,0,0,,0,169,169,239,1,
,,,,,,,,,,,,,,,,,,5f2e8596a2eef41fc9968887,2020-08-08_13h03.15.887,lexical_decision_task_MP,2020.1.3,iPhone,60,,0,-0.418326693,-0.284860558,1,0,0,0.618,button_left,0.618,1,,,,,,433,NW,UN,33,pitrom,DRANCE,z,,,,,,-0.418326693,-0.284860558,1,0,0,,0,170,170,372,1,
,,,,,,,,,,,,,,,,,,5f2e8596a2eef41fc9968887,2020-08-08_13h03.15.887,lexical_decision_task_MP,2020.1.3,iPhone,60,,0,-0.416334661,-0.284860558,1,0,0,0.515,button_left,0.515,1,,,,,,467,NW,UN,33,wictor,GORBIE,z,,,,,,-0.416334661,-0.284860558,1,0,0,,0,171,171,406,1,
,,,,,,,,,,,,,,,,,,5f2e8596a2eef41fc9968887,2020-08-08_13h03.15.887,lexical_decision_task_MP,2020.1.3,iPhone,60,,0,0.422310757,-0.298804781,1,0,0,0.598,button_right,0.598,1,,,,,,1,WORD,UN,50,ethnic,FRIGHT,m,,,,,,0.422310757,-0.298804781,1,0,0,,0,172,172,180,1,
,,,,,,,,,,,,,,,,,,5f2e8596a2eef41fc9968887,2020-08-08_13h03.15.887,lexical_decision_task_MP,2020.1.3,iPhone,60,,0,-0.414342629,-0.284860558,1,0,0,0.531,button_left,0.531,1,,,,,,276,NW,UN,50,petain,YARMON,z,,,,,,-0.414342629,-0.284860558,1,0,0,,0,173,173,455,1,
,,,,,,,,,,,,,,,,,,5f2e8596a2eef41fc9968887,2020-08-08_13h03.15.887,lexical_decision_task_MP,2020.1.3,iPhone,60,,0,0.424302789,-0.302788845,1,0,0,0.647,button_right,0.647,1,,,,,,66,WORD,"ID",33,gospel,GOSPEL,m,,,,,,0.424302789,-0.302788845,1,0,0,,0,174,174,5,1,
,,,,,,,,,,,,,,,,,,5f2e8596a2eef41fc9968887,2020-08-08_13h03.15.887,lexical_decision_task_MP,2020.1.3,iPhone,60,,0,-0.410358566,-0.28685259,1,0,0,0.49,button_left,0.49,1,,,,,,392,NW,"ID",50,rouncy,ROUNCY,z,,,,,,-0.410358566,-0.28685259,1,0,0,,0,175,175,331,1,
,,,,,,,,,,,,,,,,,,5f2e8596a2eef41fc9968887,2020-08-08_13h03.15.887,lexical_decision_task_MP,2020.1.3,iPhone,60,,0,-0.410358566,-0.288844622,1,0,0,0.547,button_left,0.547,1,,,,,,397,NW,"ID",50,camble,CAMBLE,z,,,,,,-0.410358566,-0.288844622,1,0,0,,0,176,176,336,1,
,,,,,,,,,,,,,,,,,,5f2e8596a2eef41fc9968887,2020-08-08_13h03.15.887,lexical_decision_task_MP,2020.1.3,iPhone,60,,0,-0.410358566,-0.290836653,1,0,0,0.525,button_left,0.525,1,,,,,,441,NW,UN,33,aboune,RASTOE,z,,,,,,-0.410358566,-0.290836653,1,0,0,,0,177,177,380,1,
,,,,,,,,,,,,,,,,,,5f2e8596a2eef41fc9968887,2020-08-08_13h03.15.887,lexical_decision_task_MP,2020.1.3,iPhone,60,,0,-0.416334661,-0.284860558,1,0,0,0.526,button_left,0.526,1,,,,,,479,NW,UN,33,crible,LOBUSH,z,,,,,,-0.416334661,-0.284860558,1,0,0,,0,178,178,418,1,
,,,,,,,,,,,,,,,,,,5f2e8596a2eef41fc9968887,2020-08-08_13h03.15.887,lexical_decision_task_MP,2020.1.3,iPhone,60,,0,-0.412350598,-0.284860558,1,0,0,0.558,button_left,0.558,1,,,,,,427,NW,UN,33,tandly,SCHIND,z,,,,,,-0.412350598,-0.284860558,1,0,0,,0,179,179,366,1,
,,,,,,,,,,,,,,,,,,5f2e8596a2eef41fc9968887,2020-08-08_13h03.15.887,lexical_decision_task_MP,2020.1.3,iPhone,60,,0,0.428286853,-0.310756972,1,0,0,0.455,button_right,0.455,1,,,,,,129,WORD,"ID",50,marvel,MARVEL,m,,,,,,0.428286853,-0.310756972,1,0,0,,0,180,180,68,1,
,,,,,,,,,,,,,,,,,,5f2e8596a2eef41fc9968887,2020-08-08_13h03.15.887,lexical_decision_task_MP,2020.1.3,iPhone,60,,0,0.424302789,-0.304780876,1,0,0,0.481,button_right,0.481,1,,,,,,186,WORD,UN,33,course,PORTAL,m,,,,,,0.424302789,-0.304780876,1,0,0,,0,181,181,125,1,
,,,,,,,,,,,,,,,,,,5f2e8596a2eef41fc9968887,2020-08-08_13h03.15.887,lexical_decision_task_MP,2020.1.3,iPhone,60,,0,-0.410358566,-0.28685259,1,0,0,0.467,button_left,0.467,1,,,,,,331,NW,"ID",33,gilfew,GILFEW,z,,,,,,-0.410358566,-0.28685259,1,0,0,,0,182,182,270,1,
,,,,,,,,,,,,,,,,,,5f2e8596a2eef41fc9968887,2020-08-08_13h03.15.887,lexical_decision_task_MP,2020.1.3,iPhone,60,,0,0.424302789,-0.304780876,1,0,0,0.455,button_right,0.455,1,,,,,,168,WORD,"ID",50,answer,ANSWER,m,,,,,,0.424302789,-0.304780876,1,0,0,,0,183,183,107,1,
,,,,,,,,,,,,,,,,,,5f2e8596a2eef41fc9968887,2020-08-08_13h03.15.887,lexical_decision_task_MP,2020.1.3,iPhone,60,,0,0.424302789,-0.310756972,1,0,0,0.478,button_right,0.478,1,,,,,,173,WORD,"ID",50,shower,SHOWER,m,,,,,,0.424302789,-0.310756972,1,0,0,,0,184,184,112,1,
,,,,,,,,,,,,,,,,,,5f2e8596a2eef41fc9968887,2020-08-08_13h03.15.887,lexical_decision_task_MP,2020.1.3,iPhone,60,,0,-0.412350598,-0.290836653,1,0,0,0.489,button_left,0.489,1,,,,,,407,NW,"ID",50,suiver,SUIVER,z,,,,,,-0.412350598,-0.290836653,1,0,0,,0,185,185,346,1,
,,,,,,,,,,,,,,,,,,5f2e8596a2eef41fc9968887,2020-08-08_13h03.15.887,lexical_decision_task_MP,2020.1.3,iPhone,60,,0,-0.412350598,-0.284860558,1,0,0,0.488,button_left,0.488,1,,,,,,256,NW,UN,50,veniod,INLORS,z,,,,,,-0.412350598,-0.284860558,1,0,0,,0,186,186,435,1,
,,,,,,,,,,,,,,,,,,5f2e8596a2eef41fc9968887,2020-08-08_13h03.15.887,lexical_decision_task_MP,2020.1.3,iPhone,60,,0,0.422310757,-0.302788845,1,0,0,0.472,button_right,0.472,1,,,,,,208,WORD,UN,33,search,HOCKEY,m,,,,,,0.422310757,-0.302788845,1,0,0,,0,187,187,147,1,
,,,,,,,,,,,,,,,,,,5f2e8596a2eef41fc9968887,2020-08-08_13h03.15.887,lexical_decision_task_MP,2020.1.3,iPhone,60,,0,-0.412350598,-0.284860558,1,0,0,0.473,button_left,0.473,1,,,,,,406,NW,"ID",50,nouply,NOUPLY,z,,,,,,-0.412350598,-0.284860558,1,0,0,,0,188,188,345,1,
,,,,,,,,,,,,,,,,,,5f2e8596a2eef41fc9968887,2020-08-08_13h03.15.887,lexical_decision_task_MP,2020.1.3,iPhone,60,,0,-0.416334661,-0.282868526,1,0,0,0.506,button_left,0.506,1,,,,,,265,NW,UN,50,varmit,DISTAR,z,,,,,,-0.416334661,-0.282868526,1,0,0,,0,189,189,444,1,
,,,,,,,,,,,,,,,,,,5f2e8596a2eef41fc9968887,2020-08-08_13h03.15.887,lexical_decision_task_MP,2020.1.3,iPhone,60,,0,-0.416334661,-0.284860558,1,0,0,0.505,button_left,0.505,1,,,,,,393,NW,"ID",50,ganous,GANOUS,z,,,,,,-0.416334661,-0.284860558,1,0,0,,0,190,190,332,1,
,,,,,,,,,,,,,,,,,,5f2e8596a2eef41fc9968887,2020-08-08_13h03.15.887,lexical_decision_task_MP,2020.1.3,iPhone,60,,0,-0.408366534,-0.278884462,1,0,0,0.565,button_left,0.565,1,,,,,,318,NW,"ID",33,reagly,REAGLY,z,,,,,,-0.408366534,-0.278884462,1,0,0,,0,191,191,257,1,
,,,,,,,,,,,,,,,,,,5f2e8596a2eef41fc9968887,2020-08-08_13h03.15.887,lexical_decision_task_MP,2020.1.3,iPhone,60,,0,-0.40438247,-0.27689243,1,0,0,0.539,button_left,0.539,0,,,,,,35,WORD,UN,50,vanish,SOCKET,m,,,,,,-0.40438247,-0.27689243,1,0,0,,0,192,192,214,1,
,,,,,,,,,,,,,,,,,,5f2e8596a2eef41fc9968887,2020-08-08_13h03.15.887,lexical_decision_task_MP,2020.1.3,iPhone,60,,0,-0.414342629,-0.278884462,1,0,0,0.772,button_left,0.772,1,,,,,,332,NW,"ID",33,vangue,VANGUE,z,,,,,,-0.414342629,-0.278884462,1,0,0,,0,193,193,271,1,
,,,,,,,,,,,,,,,,,,5f2e8596a2eef41fc9968887,2020-08-08_13h03.15.887,lexical_decision_task_MP,2020.1.3,iPhone,60,,0,0.424302789,-0.302788845,1,0,0,0.516,button_right,0.516,1,,,,,,103,WORD,"ID",33,bounce,BOUNCE,m,,,,,,0.424302789,-0.302788845,1,0,0,,0,194,194,42,1,
,,,,,,,,,,,,,,,,,,5f2e8596a2eef41fc9968887,2020-08-08_13h03.15.887,lexical_decision_task_MP,2020.1.3,iPhone,60,,0,0.424302789,-0.304780876,1,0,0,0.465,button_right,0.465,1,,,,,,80,WORD,"ID",33,family,FAMILY,m,,,,,,0.424302789,-0.304780876,1,0,0,,0,195,195,19,1,
,,,,,,,,,,,,,,,,,,5f2e8596a2eef41fc9968887,2020-08-08_13h03.15.887,lexical_decision_task_MP,2020.1.3,iPhone,60,,0,-0.398406375,-0.28685259,1,0,0,0.584,button_left,0.584,1,,,,,,360,NW,"ID",33,desory,DESORY,z,,,,,,-0.398406375,-0.28685259,1,0,0,,0,196,196,299,1,
,,,,,,,,,,,,,,,,,,5f2e8596a2eef41fc9968887,2020-08-08_13h03.15.887,lexical_decision_task_MP,2020.1.3,iPhone,60,,0,0.424302789,-0.304780876,1,0,0,0.473,button_right,0.473,1,,,,,,83,WORD,"ID",33,result,RESULT,m,,,,,,0.424302789,-0.304780876,1,0,0,,0,197,197,22,1,
,,,,,,,,,,,,,,,,,,5f2e8596a2eef41fc9968887,2020-08-08_13h03.15.887,lexical_decision_task_MP,2020.1.3,iPhone,60,,0,-0.400398406,-0.274900398,1,0,0,0.507,button_left,0.507,1,,,,,,390,NW,"ID",50,hatrus,HATRUS,z,,,,,,-0.400398406,-0.274900398,1,0,0,,0,198,198,329,1,
,,,,,,,,,,,,,,,,,,5f2e8596a2eef41fc9968887,2020-08-08_13h03.15.887,lexical_decision_task_MP,2020.1.3,iPhone,60,,0,-0.396414343,-0.274900398,1,0,0,0.648,button_left,0.648,1,,,,,,362,NW,"ID",50,tireau,TIREAU,z,,,,,,-0.396414343,-0.274900398,1,0,0,,0,199,199,301,1,
,,,,,,,,,,,,,,,,,,5f2e8596a2eef41fc9968887,2020-08-08_13h03.15.887,lexical_decision_task_MP,2020.1.3,iPhone,60,,0,0.422310757,-0.302788845,1,0,0,0.548,button_right,0.548,1,,,,,,19,WORD,UN,50,breast,PATRON,m,,,,,,0.422310757,-0.302788845,1,0,0,,0,200,200,198,1,
,,,,,,,,,,,,,,,,,,5f2e8596a2eef41fc9968887,2020-08-08_13h03.15.887,lexical_decision_task_MP,2020.1.3,iPhone,60,,0,0.424302789,-0.302788845,1,0,0,0.556,button_right,0.556,1,,,,,,139,WORD,"ID",50,debris,DEBRIS,m,,,,,,0.424302789,-0.302788845,1,0,0,,0,201,201,78,1,
,,,,,,,,,,,,,,,,,,5f2e8596a2eef41fc9968887,2020-08-08_13h03.15.887,lexical_decision_task_MP,2020.1.3,iPhone,60,,0,-0.390438247,-0.280876494,1,0,0,0.482,button_left,0.482,1,,,,,,381,NW,"ID",50,huniek,HUNIEK,z,,,,,,-0.390438247,-0.280876494,1,0,0,,0,202,202,320,1,
,,,,,,,,,,,,,,,,,,5f2e8596a2eef41fc9968887,2020-08-08_13h03.15.887,lexical_decision_task_MP,2020.1.3,iPhone,60,,0,-0.394422311,-0.272908367,1,0,0,0.523,button_left,0.523,1,,,,,,443,NW,UN,33,jaunce,DORSEX,z,,,,,,-0.394422311,-0.272908367,1,0,0,,0,203,203,382,1,
,,,,,,,,,,,,,,,,,,5f2e8596a2eef41fc9968887,2020-08-08_13h03.15.887,lexical_decision_task_MP,2020.1.3,iPhone,60,,0,0.422310757,-0.302788845,1,0,0,0.531,button_right,0.531,1,,,,,,231,WORD,UN,33,inject,EXPORT,m,,,,,,0.422310757,-0.302788845,1,0,0,,0,204,204,170,1,
,,,,,,,,,,,,,,,,,,5f2e8596a2eef41fc9968887,2020-08-08_13h03.15.887,lexical_decision_task_MP,2020.1.3,iPhone,60,,0,-0.394422311,-0.274900398,1,0,0,0.523,button_left,0.523,1,,,,,,272,NW,UN,50,sortel,DAMILT,z,,,,,,-0.394422311,-0.274900398,1,0,0,,0,205,205,451,1,
,,,,,,,,,,,,,,,,,,5f2e8596a2eef41fc9968887,2020-08-08_13h03.15.887,lexical_decision_task_MP,2020.1.3,iPhone,60,,0,0.422310757,-0.302788845,1,0,0,0.514,button_right,0.514,1,,,,,,94,WORD,"ID",33,travel,TRAVEL,m,,,,,,0.422310757,-0.302788845,1,0,0,,0,206,206,33,1,
,,,,,,,,,,,,,,,,,,5f2e8596a2eef41fc9968887,2020-08-08_13h03.15.887,lexical_decision_task_MP,2020.1.3,iPhone,60,,0,0.420318725,-0.298804781,1,0,0,0.613,button_right,0.613,1,,,,,,54,WORD,UN,50,stroke,RAMBLE,m,,,,,,0.420318725,-0.298804781,1,0,0,,0,207,207,233,1,
,,,,,,,,,,,,,,,,,,5f2e8596a2eef41fc9968887,2020-08-08_13h03.15.887,lexical_decision_task_MP,2020.1.3,iPhone,60,,0,0.420318725,-0.302788845,1,0,0,0.485,button_right,0.485,1,,,,,,225,WORD,UN,33,casino,VULGAR,m,,,,,,0.420318725,-0.302788845,1,0,0,,0,208,208,164,1,
,,,,,,,,,,,,,,,,,,5f2e8596a2eef41fc9968887,2020-08-08_13h03.15.887,lexical_decision_task_MP,2020.1.3,iPhone,60,,0,0.422310757,-0.298804781,1,0,0,0.464,button_right,0.464,1,,,,,,148,WORD,"ID",50,custom,CUSTOM,m,,,,,,0.422310757,-0.298804781,1,0,0,,0,209,209,87,1,
,,,,,,,,,,,,,,,,,,5f2e8596a2eef41fc9968887,2020-08-08_13h03.15.887,lexical_decision_task_MP,2020.1.3,iPhone,60,,0,0.416334661,-0.294820717,1,0,0,0.494,button_right,0.494,1,,,,,,96,WORD,"ID",33,ignore,IGNORE,m,,,,,,0.416334661,-0.294820717,1,0,0,,0,210,210,35,1,
,,,,,,,,,,,,,,,,,,5f2e8596a2eef41fc9968887,2020-08-08_13h03.15.887,lexical_decision_task_MP,2020.1.3,iPhone,60,,0,0.418326693,-0.292828685,1,0,0,0.614,button_right,0.614,1,,,,,,121,WORD,"ID",50,thrive,THRIVE,m,,,,,,0.418326693,-0.292828685,1,0,0,,0,211,211,60,1,
,,,,,,,,,,,,,,,,,,5f2e8596a2eef41fc9968887,2020-08-08_13h03.15.887,lexical_decision_task_MP,2020.1.3,iPhone,60,,0,0.416334661,-0.294820717,1,0,0,0.55,button_right,0.55,1,,,,,,112,WORD,"ID",33,breath,BREATH,m,,,,,,0.416334661,-0.294820717,1,0,0,,0,212,212,51,1,
,,,,,,,,,,,,,,,,,,5f2e8596a2eef41fc9968887,2020-08-08_13h03.15.887,lexical_decision_task_MP,2020.1.3,iPhone,60,,0,0.412350598,-0.294820717,1,0,0,0.565,button_right,0.565,1,,,,,,20,WORD,UN,50,simple,BREAST,m,,,,,,0.412350598,-0.294820717,1,0,0,,0,213,213,199,1,
,,,,,,,,,,,,,,,,,,5f2e8596a2eef41fc9968887,2020-08-08_13h03.15.887,lexical_decision_task_MP,2020.1.3,iPhone,60,,0,0.412350598,-0.296812749,1,0,0,0.456,button_right,0.456,1,,,,,,171,WORD,"ID",50,depart,DEPART,m,,,,,,0.412350598,-0.296812749,1,0,0,,0,214,214,110,1,
,,,,,,,,,,,,,,,,,,5f2e8596a2eef41fc9968887,2020-08-08_13h03.15.887,lexical_decision_task_MP,2020.1.3,iPhone,60,,0,0.412350598,-0.298804781,1,0,0,0.457,button_right,0.457,1,,,,,,158,WORD,"ID",50,island,ISLAND,m,,,,,,0.412350598,-0.298804781,1,0,0,,0,215,215,97,1,
,,,,,,,,,,,,,,,,,,5f2e8596a2eef41fc9968887,2020-08-08_13h03.15.887,lexical_decision_task_MP,2020.1.3,iPhone,60,,0,-0.380478088,-0.284860558,1,0,0,0.59,button_left,0.59,1,,,,,,469,NW,UN,33,crudio,PADIFS,z,,,,,,-0.380478088,-0.284860558,1,0,0,,0,216,216,408,1,
,,,,,,,,,,,,,,,,,,5f2e8596a2eef41fc9968887,2020-08-08_13h03.15.887,lexical_decision_task_MP,2020.1.3,iPhone,60,,0,-0.38247012,-0.278884462,1,0,0,0.472,button_left,0.472,1,,,,,,296,NW,UN,50,fertic,BEINCH,z,,,,,,-0.38247012,-0.278884462,1,0,0,,0,217,217,475,1,
,,,,,,,,,,,,,,,,,,5f2e8596a2eef41fc9968887,2020-08-08_13h03.15.887,lexical_decision_task_MP,2020.1.3,iPhone,60,,0,-0.380478088,-0.274900398,1,0,0,0.537,button_left,0.537,1,,,,,,418,NW,"ID",50,suidle,SUIDLE,z,,,,,,-0.380478088,-0.274900398,1,0,0,,0,218,218,357,1,
,,,,,,,,,,,,,,,,,,5f2e8596a2eef41fc9968887,2020-08-08_13h03.15.887,lexical_decision_task_MP,2020.1.3,iPhone,60,,0,0.416334661,-0.298804781,1,0,0,0.475,button_right,0.475,1,,,,,,233,WORD,UN,33,clumsy,NATURE,m,,,,,,0.416334661,-0.298804781,1,0,0,,0,219,219,172,1,
,,,,,,,,,,,,,,,,,,5f2e8596a2eef41fc9968887,2020-08-08_13h03.15.887,lexical_decision_task_MP,2020.1.3,iPhone,60,,0,-0.384462151,-0.268924303,1,0,0,0.55,button_left,0.55,1,,,,,,315,NW,"ID",33,laston,LASTON,z,,,,,,-0.384462151,-0.268924303,1,0,0,,0,220,220,254,1,
,,,,,,,,,,,,,,,,,,5f2e8596a2eef41fc9968887,2020-08-08_13h03.15.887,lexical_decision_task_MP,2020.1.3,iPhone,60,,0,0.416334661,-0.298804781,1,0,0,0.489,button_right,0.489,1,,,,,,78,WORD,"ID",33,column,COLUMN,m,,,,,,0.416334661,-0.298804781,1,0,0,,0,221,221,17,1,
,,,,,,,,,,,,,,,,,,5f2e8596a2eef41fc9968887,2020-08-08_13h03.15.887,lexical_decision_task_MP,2020.1.3,iPhone,60,,0,-0.384462151,-0.268924303,1,0,0,0.539,button_left,0.539,1,,,,,,260,NW,UN,50,stunch,UNJECT,z,,,,,,-0.384462151,-0.268924303,1,0,0,,0,222,222,439,1,
,,,,,,,,,,,,,,,,,,5f2e8596a2eef41fc9968887,2020-08-08_13h03.15.887,lexical_decision_task_MP,2020.1.3,iPhone,60,,0,0.410358566,-0.300796813,1,0,0,0.548,button_right,0.548,1,,,,,,176,WORD,"ID",50,strife,STRIFE,m,,,,,,0.410358566,-0.300796813,1,0,0,,0,223,223,115,1,
,,,,,,,,,,,,,,,,,,5f2e8596a2eef41fc9968887,2020-08-08_13h03.15.887,lexical_decision_task_MP,2020.1.3,iPhone,60,,0,-0.376494024,-0.27689243,1,0,0,0.564,button_left,0.564,1,,,,,,286,NW,UN,50,nymbel,RELDON,z,,,,,,-0.376494024,-0.27689243,1,0,0,,0,224,224,465,1,
,,,,,,,,,,,,,,,,,,5f2e8596a2eef41fc9968887,2020-08-08_13h03.15.887,lexical_decision_task_MP,2020.1.3,iPhone,60,,0,0.418326693,-0.298804781,1,0,0,0.617,button_right,0.617,1,,,,,,198,WORD,UN,33,invoke,WICKED,m,,,,,,0.418326693,-0.298804781,1,0,0,,0,225,225,137,1,
,,,,,,,,,,,,,,,,,,5f2e8596a2eef41fc9968887,2020-08-08_13h03.15.887,lexical_decision_task_MP,2020.1.3,iPhone,60,,0,-0.360557769,-0.274900398,1,0,0,0.533,button_left,0.533,1,,,,,,461,NW,UN,33,absult,JUSTRE,z,,,,,,-0.360557769,-0.274900398,1,0,0,,0,226,226,400,1,
,,,,,,,,,,,,,,,,,,5f2e8596a2eef41fc9968887,2020-08-08_13h03.15.887,lexical_decision_task_MP,2020.1.3,iPhone,60,,0,-0.364541833,-0.272908367,1,0,0,0.522,button_left,0.522,1,,,,,,293,NW,UN,50,inhort,SWANCE,z,,,,,,-0.364541833,-0.272908367,1,0,0,,0,227,227,472,1,
,,,,,,,,,,,,,,,,,,5f2e8596a2eef41fc9968887,2020-08-08_13h03.15.887,lexical_decision_task_MP,2020.1.3,iPhone,60,,0,-0.364541833,-0.262948207,1,0,0,0.556,button_left,0.556,1,,,,,,438,NW,UN,33,limpor,BAITCH,z,,,,,,-0.364541833,-0.262948207,1,0,0,,0,228,228,377,1,
,,,,,,,,,,,,,,,,,,5f2e8596a2eef41fc9968887,2020-08-08_13h03.15.887,lexical_decision_task_MP,2020.1.3,iPhone,60,,0,-0.364541833,-0.260956175,1,0,0,0.49,button_left,0.49,1,,,,,,351,NW,"ID",33,tiesch,TIESCH,z,,,,,,-0.364541833,-0.260956175,1,0,0,,0,229,229,290,1,
,,,,,,,,,,,,,,,,,,5f2e8596a2eef41fc9968887,2020-08-08_13h03.15.887,lexical_decision_task_MP,2020.1.3,iPhone,60,,0,-0.356573705,-0.266932271,1,0,0,0.581,button_left,0.581,1,,,,,,317,NW,"ID",33,worbal,WORBAL,z,,,,,,-0.356573705,-0.266932271,1,0,0,,0,230,230,256,1,
,,,,,,,,,,,,,,,,,,5f2e8596a2eef41fc9968887,2020-08-08_13h03.15.887,lexical_decision_task_MP,2020.1.3,iPhone,60,,0,0.416334661,-0.296812749,1,0,0,0.598,button_right,0.598,1,,,,,,14,WORD,UN,50,orange,ALMOST,m,,,,,,0.416334661,-0.296812749,1,0,0,,0,231,231,193,1,
,,,,,,,,,,,,,,,,,,5f2e8596a2eef41fc9968887,2020-08-08_13h03.15.887,lexical_decision_task_MP,2020.1.3,iPhone,60,,0,0.410358566,-0.292828685,1,0,0,0.533,button_right,0.533,1,,,,,,63,WORD,"ID",33,launch,LAUNCH,m,,,,,,0.410358566,-0.292828685,1,0,0,,0,232,232,2,1,
,,,,,,,,,,,,,,,,,,5f2e8596a2eef41fc9968887,2020-08-08_13h03.15.887,lexical_decision_task_MP,2020.1.3,iPhone,60,,0,-0.364541833,-0.272908367,1,0,0,0.497,button_left,0.497,1,,,,,,375,NW,"ID",50,yorque,YORQUE,z,,,,,,-0.364541833,-0.272908367,1,0,0,,0,233,233,314,1,
,,,,,,,,,,,,,,,,,,5f2e8596a2eef41fc9968887,2020-08-08_13h03.15.887,lexical_decision_task_MP,2020.1.3,iPhone,60,,0,0.408366534,-0.302788845,1,0,0,0.493,button_right,0.493,1,,,,,,79,WORD,"ID",33,theory,THEORY,m,,,,,,0.408366534,-0.302788845,1,0,0,,0,234,234,18,1,
,,,,,,,,,,,,,,,,,,5f2e8596a2eef41fc9968887,2020-08-08_13h03.15.887,lexical_decision_task_MP,2020.1.3,iPhone,60,,0,0.410358566,-0.292828685,1,0,0,0.475,button_right,0.475,1,,,,,,226,WORD,UN,33,flower,CASINO,m,,,,,,0.410358566,-0.292828685,1,0,0,,0,235,235,165,1,
,,,,,,,,,,,,,,,,,,5f2e8596a2eef41fc9968887,2020-08-08_13h03.15.887,lexical_decision_task_MP,2020.1.3,iPhone,60,,0,0.40438247,-0.296812749,1,0,0,0.584,button_right,0.584,1,,,,,,215,WORD,UN,33,lumber,PHOBIA,m,,,,,,0.40438247,-0.296812749,1,0,0,,0,236,236,154,1,
,,,,,,,,,,,,,,,,,,5f2e8596a2eef41fc9968887,2020-08-08_13h03.15.887,lexical_decision_task_MP,2020.1.3,iPhone,60,,0,0.40438247,-0.296812749,1,0,0,0.681,button_right,0.681,1,,,,,,50,WORD,UN,50,hungry,SNATCH,m,,,,,,0.40438247,-0.296812749,1,0,0,,0,237,237,229,1,
,,,,,,,,,,,,,,,,,,5f2e8596a2eef41fc9968887,2020-08-08_13h03.15.887,lexical_decision_task_MP,2020.1.3,iPhone,60,,0,0.406374502,-0.300796813,1,0,0,0.498,button_right,0.498,1,,,,,,124,WORD,"ID",50,blouse,BLOUSE,m,,,,,,0.406374502,-0.300796813,1,0,0,,0,238,238,63,1,
,,,,,,,,,,,,,,,,,,5f2e8596a2eef41fc9968887,2020-08-08_13h03.15.887,lexical_decision_task_MP,2020.1.3,iPhone,60,,0,0.402390438,-0.296812749,1,0,0,0.464,button_right,0.464,1,,,,,,82,WORD,"ID",33,stigma,STIGMA,m,,,,,,0.402390438,-0.296812749,1,0,0,,0,239,239,21,1,
,,,,,,,,,,,,,,,,,,5f2e8596a2eef41fc9968887,2020-08-08_13h03.15.887,lexical_decision_task_MP,2020.1.3,iPhone,60,,0,0.40438247,-0.296812749,1,0,0,0.589,button_right,0.589,1,,,,,,162,WORD,"ID",50,candle,CANDLE,m,,,,,,0.40438247,-0.296812749,1,0,0,,0,240,240,101,1,
,,,,,,,,,,,,,,,,,,5f2e8596a2eef41fc9968887,2020-08-08_13h03.15.887,lexical_decision_task_MP,2020.1.3,iPhone,60,,0,0.406374502,-0.294820717,1,0,0,0.49,button_right,0.49,1,,,,,,88,WORD,"ID",33,hunger,HUNGER,m,,,,,,-0.047808765,-0.392430279,1,0,0,,0,241,241,27,1,break_done_button
,,,,,,,,,,,,,,,,,,5f2e8596a2eef41fc9968887,2020-08-08_13h03.15.887,lexical_decision_task_MP,2020.1.3,iPhone,60,,0,-0.406374502,-0.256972112,1,0,0,0.599,button_left,0.599,1,,,,,,327,NW,"ID",33,plenac,PLENAC,z,,,,,,-0.406374502,-0.256972112,1,0,0,,0,242,242,266,1,
,,,,,,,,,,,,,,,,,,5f2e8596a2eef41fc9968887,2020-08-08_13h03.15.887,lexical_decision_task_MP,2020.1.3,iPhone,60,,0,-0.394422311,-0.280876494,1,0,0,0.54,button_left,0.54,1,,,,,,423,NW,UN,33,praile,STRELD,z,,,,,,-0.394422311,-0.280876494,1,0,0,,0,243,243,362,1,
,,,,,,,,,,,,,,,,,,5f2e8596a2eef41fc9968887,2020-08-08_13h03.15.887,lexical_decision_task_MP,2020.1.3,iPhone,60,,0,-0.412350598,-0.272908367,1,0,0,0.611,button_left,0.611,1,,,,,,313,NW,"ID",33,paurse,PAURSE,z,,,,,,-0.412350598,-0.272908367,1,0,0,,0,244,244,252,1,
,,,,,,,,,,,,,,,,,,5f2e8596a2eef41fc9968887,2020-08-08_13h03.15.887,lexical_decision_task_MP,2020.1.3,iPhone,60,,0,0.442231076,-0.284860558,1,0,0,0.874,button_right,0.874,1,,,,,,4,WORD,UN,50,plunge,TRENCH,m,,,,,,0.442231076,-0.284860558,1,0,0,,0,245,245,183,1,
,,,,,,,,,,,,,,,,,,5f2e8596a2eef41fc9968887,2020-08-08_13h03.15.887,lexical_decision_task_MP,2020.1.3,iPhone,60,,0,-0.384462151,-0.292828685,1,0,0,0.581,button_left,0.581,1,,,,,,340,NW,"ID",33,fiatch,FIATCH,z,,,,,,-0.384462151,-0.292828685,1,0,0,,0,246,246,279,1,
,,,,,,,,,,,,,,,,,,5f2e8596a2eef41fc9968887,2020-08-08_13h03.15.887,lexical_decision_task_MP,2020.1.3,iPhone,60,,0,-0.384462151,-0.288844622,1,0,0,0.565,button_left,0.565,1,,,,,,254,NW,UN,50,apight,VAROSH,z,,,,,,-0.384462151,-0.288844622,1,0,0,,0,247,247,433,1,
,,,,,,,,,,,,,,,,,,5f2e8596a2eef41fc9968887,2020-08-08_13h03.15.887,lexical_decision_task_MP,2020.1.3,iPhone,60,,0,-0.390438247,-0.278884462,1,0,0,0.547,button_left,0.547,1,,,,,,417,NW,"ID",50,earoud,EAROUD,z,,,,,,-0.390438247,-0.278884462,1,0,0,,0,248,248,356,1,
,,,,,,,,,,,,,,,,,,5f2e8596a2eef41fc9968887,2020-08-08_13h03.15.887,lexical_decision_task_MP,2020.1.3,iPhone,60,,0,0.440239044,-0.304780876,1,0,0,0.498,button_right,0.498,1,,,,,,130,WORD,"ID",50,stupid,STUPID,m,,,,,,0.440239044,-0.304780876,1,0,0,,0,249,249,69,1,
,,,,,,,,,,,,,,,,,,5f2e8596a2eef41fc9968887,2020-08-08_13h03.15.887,lexical_decision_task_MP,2020.1.3,iPhone,60,,0,-0.400398406,-0.278884462,1,0,0,0.624,button_left,0.624,1,,,,,,402,NW,"ID",50,syntic,SYNTIC,z,,,,,,-0.400398406,-0.278884462,1,0,0,,0,250,250,341,1,
,,,,,,,,,,,,,,,,,,5f2e8596a2eef41fc9968887,2020-08-08_13h03.15.887,lexical_decision_task_MP,2020.1.3,iPhone,60,,0,0.434262948,-0.314741036,1,0,0,0.497,button_right,0.497,1,,,,,,105,WORD,"ID",33,number,NUMBER,m,,,,,,0.434262948,-0.314741036,1,0,0,,0,251,251,44,1,
,,,,,,,,,,,,,,,,,,5f2e8596a2eef41fc9968887,2020-08-08_13h03.15.887,lexical_decision_task_MP,2020.1.3,iPhone,60,,0,-0.384462151,-0.294820717,1,0,0,0.489,button_left,0.489,1,,,,,,370,NW,"ID",50,sleact,SLEACT,z,,,,,,-0.384462151,-0.294820717,1,0,0,,0,252,252,309,1,
,,,,,,,,,,,,,,,,,,5f2e8596a2eef41fc9968887,2020-08-08_13h03.15.887,lexical_decision_task_MP,2020.1.3,iPhone,60,,0,-0.390438247,-0.290836653,1,0,0,0.506,button_left,0.506,1,,,,,,367,NW,"ID",50,slique,SLIQUE,z,,,,,,-0.390438247,-0.290836653,1,0,0,,0,253,253,306,1,
,,,,,,,,,,,,,,,,,,5f2e8596a2eef41fc9968887,2020-08-08_13h03.15.887,lexical_decision_task_MP,2020.1.3,iPhone,60,,0,0.434262948,-0.314741036,1,0,0,0.506,button_right,0.506,0,,,,,,462,NW,UN,33,kispel,ABSULT,z,,,,,,0.434262948,-0.314741036,1,0,0,,0,254,254,401,1,
,,,,,,,,,,,,,,,,,,5f2e8596a2eef41fc9968887,2020-08-08_13h03.15.887,lexical_decision_task_MP,2020.1.3,iPhone,60,,0,-0.394422311,-0.290836653,1,0,0,0.539,button_left,0.539,1,,,,,,269,NW,UN,50,wrimsy,ORCHET,z,,,,,,-0.394422311,-0.290836653,1,0,0,,0,255,255,448,1,
,,,,,,,,,,,,,,,,,,5f2e8596a2eef41fc9968887,2020-08-08_13h03.15.887,lexical_decision_task_MP,2020.1.3,iPhone,60,,0,0.434262948,-0.314741036,1,0,0,0.648,button_right,0.648,1,,,,,,48,WORD,UN,50,survey,WALNUT,m,,,,,,0.434262948,-0.314741036,1,0,0,,0,256,256,227,1,
,,,,,,,,,,,,,,,,,,5f2e8596a2eef41fc9968887,2020-08-08_13h03.15.887,lexical_decision_task_MP,2020.1.3,iPhone,60,,0,-0.398406375,-0.290836653,1,0,0,0.506,button_left,0.506,1,,,,,,297,NW,UN,50,piergy,FERTIC,z,,,,,,-0.398406375,-0.290836653,1,0,0,,0,257,257,476,1,
,,,,,,,,,,,,,,,,,,5f2e8596a2eef41fc9968887,2020-08-08_13h03.15.887,lexical_decision_task_MP,2020.1.3,iPhone,60,,0,0.43625498,-0.30876494,1,0,0,0.497,button_right,0.497,1,,,,,,119,WORD,"ID",33,spider,SPIDER,m,,,,,,0.43625498,-0.30876494,1,0,0,,0,258,258,58,1,
,,,,,,,,,,,,,,,,,,5f2e8596a2eef41fc9968887,2020-08-08_13h03.15.887,lexical_decision_task_MP,2020.1.3,iPhone,60,,0,0.438247012,-0.312749004,1,0,0,0.457,button_right,0.457,1,,,,,,157,WORD,"ID",50,dragon,DRAGON,m,,,,,,0.438247012,-0.312749004,1,0,0,,0,259,259,96,1,
,,,,,,,,,,,,,,,,,,5f2e8596a2eef41fc9968887,2020-08-08_13h03.15.887,lexical_decision_task_MP,2020.1.3,iPhone,60,,0,-0.40438247,-0.296812749,1,0,0,0.715,button_left,0.715,0,,,,,,122,WORD,"ID",50,linger,LINGER,m,,,,,,-0.40438247,-0.296812749,1,0,0,,0,260,260,61,1,
,,,,,,,,,,,,,,,,,,5f2e8596a2eef41fc9968887,2020-08-08_13h03.15.887,lexical_decision_task_MP,2020.1.3,iPhone,60,,0,-0.406374502,-0.296812749,1,0,0,0.515,button_left,0.515,1,,,,,,476,NW,UN,33,photie,JOSTED,z,,,,,,-0.406374502,-0.296812749,1,0,0,,0,261,261,415,1,
,,,,,,,,,,,,,,,,,,5f2e8596a2eef41fc9968887,2020-08-08_13h03.15.887,lexical_decision_task_MP,2020.1.3,iPhone,60,,0,-0.416334661,-0.290836653,1,0,0,0.557,button_left,0.557,1,,,,,,282,NW,UN,50,veralf,PORLEX,z,,,,,,-0.416334661,-0.290836653,1,0,0,,0,262,262,461,1,
,,,,,,,,,,,,,,,,,,5f2e8596a2eef41fc9968887,2020-08-08_13h03.15.887,lexical_decision_task_MP,2020.1.3,iPhone,60,,0,0.43625498,-0.302788845,1,0,0,0.539,button_right,0.539,1,,,,,,140,WORD,"ID",50,prince,PRINCE,m,,,,,,0.43625498,-0.302788845,1,0,0,,0,263,263,79,1,
,,,,,,,,,,,,,,,,,,5f2e8596a2eef41fc9968887,2020-08-08_13h03.15.887,lexical_decision_task_MP,2020.1.3,iPhone,60,,0,-0.418326693,-0.290836653,1,0,0,0.555,button_left,0.555,1,,,,,,368,NW,"ID",50,hornal,HORNAL,z,,,,,,-0.418326693,-0.290836653,1,0,0,,0,264,264,307,1,
,,,,,,,,,,,,,,,,,,5f2e8596a2eef41fc9968887,2020-08-08_13h03.15.887,lexical_decision_task_MP,2020.1.3,iPhone,60,,0,-0.406374502,-0.280876494,1,0,0,0.638,button_left,0.638,0,,,,,,116,WORD,"ID",33,tumble,TUMBLE,m,,,,,,-0.406374502,-0.280876494,1,0,0,,0,265,265,55,1,
,,,,,,,,,,,,,,,,,,5f2e8596a2eef41fc9968887,2020-08-08_13h03.15.887,lexical_decision_task_MP,2020.1.3,iPhone,60,,0,-0.406374502,-0.280876494,1,0,0,0.574,button_left,0.574,1,,,,,,466,NW,UN,33,robuly,HOCITE,z,,,,,,-0.406374502,-0.280876494,1,0,0,,0,266,266,405,1,
,,,,,,,,,,,,,,,,,,5f2e8596a2eef41fc9968887,2020-08-08_13h03.15.887,lexical_decision_task_MP,2020.1.3,iPhone,60,,0,0.434262948,-0.310756972,1,0,0,0.515,button_right,0.515,1,,,,,,197,WORD,UN,33,wicked,STREAM,m,,,,,,0.434262948,-0.310756972,1,0,0,,0,267,267,136,1,
,,,,,,,,,,,,,,,,,,5f2e8596a2eef41fc9968887,2020-08-08_13h03.15.887,lexical_decision_task_MP,2020.1.3,iPhone,60,,0,0.434262948,-0.30876494,1,0,0,0.431,button_right,0.431,1,,,,,,149,WORD,"ID",50,invade,INVADE,m,,,,,,0.434262948,-0.30876494,1,0,0,,0,268,268,88,1,
,,,,,,,,,,,,,,,,,,5f2e8596a2eef41fc9968887,2020-08-08_13h03.15.887,lexical_decision_task_MP,2020.1.3,iPhone,60,,0,0.430278884,-0.30876494,1,0,0,0.559,button_right,0.559,1,,,,,,216,WORD,UN,33,liquor,BEHALF,m,,,,,,0.430278884,-0.30876494,1,0,0,,0,269,269,155,1,
,,,,,,,,,,,,,,,,,,5f2e8596a2eef41fc9968887,2020-08-08_13h03.15.887,lexical_decision_task_MP,2020.1.3,iPhone,60,,0,-0.426294821,-0.288844622,1,0,0,0.518,button_left,0.518,1,,,,,,307,NW,"ID",33,kirafe,KIRAFE,z,,,,,,-0.426294821,-0.288844622,1,0,0,,0,270,270,246,1,
,,,,,,,,,,,,,,,,,,5f2e8596a2eef41fc9968887,2020-08-08_13h03.15.887,lexical_decision_task_MP,2020.1.3,iPhone,60,,0,-0.422310757,-0.278884462,1,0,0,0.706,button_left,0.706,1,,,,,,475,NW,UN,33,josted,PEBRIC,z,,,,,,-0.422310757,-0.278884462,1,0,0,,0,271,271,414,1,
,,,,,,,,,,,,,,,,,,5f2e8596a2eef41fc9968887,2020-08-08_13h03.15.887,lexical_decision_task_MP,2020.1.3,iPhone,60,,0,-0.412350598,-0.280876494,1,0,0,0.563,button_left,0.563,1,,,,,,243,NW,UN,50,eatric,MUSIED,z,,,,,,-0.412350598,-0.280876494,1,0,0,,0,272,272,422,1,
,,,,,,,,,,,,,,,,,,5f2e8596a2eef41fc9968887,2020-08-08_13h03.15.887,lexical_decision_task_MP,2020.1.3,iPhone,60,,0,0.430278884,-0.306772908,1,0,0,0.514,button_right,0.514,1,,,,,,152,WORD,"ID",50,rocket,ROCKET,m,,,,,,0.430278884,-0.306772908,1,0,0,,0,273,273,91,1,
,,,,,,,,,,,,,,,,,,5f2e8596a2eef41fc9968887,2020-08-08_13h03.15.887,lexical_decision_task_MP,2020.1.3,iPhone,60,,0,-0.418326693,-0.284860558,1,0,0,0.508,button_left,0.508,1,,,,,,430,NW,UN,33,chrums,CAROEY,z,,,,,,-0.418326693,-0.284860558,1,0,0,,0,274,274,369,1,
,,,,,,,,,,,,,,,,,,5f2e8596a2eef41fc9968887,2020-08-08_13h03.15.887,lexical_decision_task_MP,2020.1.3,iPhone,60,,0,0.434262948,-0.30876494,1,0,0,0.494,button_right,0.494,1,,,,,,81,WORD,"ID",33,friend,FRIEND,m,,,,,,0.434262948,-0.30876494,1,0,0,,0,275,275,20,1,
,,,,,,,,,,,,,,,,,,5f2e8596a2eef41fc9968887,2020-08-08_13h03.15.887,lexical_decision_task_MP,2020.1.3,iPhone,60,,0,-0.424302789,-0.280876494,1,0,0,0.656,button_left,0.656,1,,,,,,273,NW,UN,50,fumblo,SORTEL,z,,,,,,-0.424302789,-0.280876494,1,0,0,,0,276,276,452,1,
,,,,,,,,,,,,,,,,,,5f2e8596a2eef41fc9968887,2020-08-08_13h03.15.887,lexical_decision_task_MP,2020.1.3,iPhone,60,,0,-0.424302789,-0.278884462,1,0,0,0.615,button_left,0.615,0,,,,,,239,WORD,UN,33,forest,LUMBER,m,,,,,,-0.424302789,-0.278884462,1,0,0,,0,277,277,178,1,
,,,,,,,,,,,,,,,,,,5f2e8596a2eef41fc9968887,2020-08-08_13h03.15.887,lexical_decision_task_MP,2020.1.3,iPhone,60,,0,0.430278884,-0.312749004,1,0,0,0.564,button_right,0.564,1,,,,,,144,WORD,"ID",50,sponge,SPONGE,m,,,,,,0.430278884,-0.312749004,1,0,0,,0,278,278,83,1,
,,,,,,,,,,,,,,,,,,5f2e8596a2eef41fc9968887,2020-08-08_13h03.15.887,lexical_decision_task_MP,2020.1.3,iPhone,60,,0,-0.418326693,-0.290836653,1,0,0,0.543,button_left,0.543,1,,,,,,434,NW,UN,33,impurb,PITROM,z,,,,,,-0.418326693,-0.290836653,1,0,0,,0,279,279,373,1,
,,,,,,,,,,,,,,,,,,5f2e8596a2eef41fc9968887,2020-08-08_13h03.15.887,lexical_decision_task_MP,2020.1.3,iPhone,60,,0,0.434262948,-0.302788845,1,0,0,0.523,button_right,0.523,1,,,,,,7,WORD,UN,50,abrupt,ANCHOR,m,,,,,,0.434262948,-0.302788845,1,0,0,,0,280,280,186,1,
,,,,,,,,,,,,,,,,,,5f2e8596a2eef41fc9968887,2020-08-08_13h03.15.887,lexical_decision_task_MP,2020.1.3,iPhone,60,,0,-0.414342629,-0.28685259,1,0,0,0.523,button_left,0.523,1,,,,,,328,NW,"ID",33,broake,BROAKE,z,,,,,,-0.414342629,-0.28685259,1,0,0,,0,281,281,267,1,
,,,,,,,,,,,,,,,,,,5f2e8596a2eef41fc9968887,2020-08-08_13h03.15.887,lexical_decision_task_MP,2020.1.3,iPhone,60,,0,-0.410358566,-0.278884462,1,0,0,0.523,button_left,0.523,1,,,,,,374,NW,"ID",50,sliant,SLIANT,z,,,,,,-0.410358566,-0.278884462,1,0,0,,0,282,282,313,1,
,,,,,,,,,,,,,,,,,,5f2e8596a2eef41fc9968887,2020-08-08_13h03.15.887,lexical_decision_task_MP,2020.1.3,iPhone,60,,0,-0.394422311,-0.274900398,1,0,0,0.631,button_left,0.631,1,,,,,,373,NW,"ID",50,bigent,BIGENT,z,,,,,,-0.394422311,-0.274900398,1,0,0,,0,283,283,312,1,
,,,,,,,,,,,,,,,,,,5f2e8596a2eef41fc9968887,2020-08-08_13h03.15.887,lexical_decision_task_MP,2020.1.3,iPhone,60,,0,-0.40438247,-0.290836653,1,0,0,0.7,button_left,0.7,1,,,,,,353,NW,"ID",33,clurey,CLUREY,z,,,,,,-0.40438247,-0.290836653,1,0,0,,0,284,284,292,1,
,,,,,,,,,,,,,,,,,,5f2e8596a2eef41fc9968887,2020-08-08_13h03.15.887,lexical_decision_task_MP,2020.1.3,iPhone,60,,0,0.426294821,-0.304780876,1,0,0,0.54,button_right,0.54,1,,,,,,194,WORD,UN,33,resign,ABSENT,m,,,,,,0.426294821,-0.304780876,1,0,0,,0,285,285,133,1,
,,,,,,,,,,,,,,,,,,5f2e8596a2eef41fc9968887,2020-08-08_13h03.15.887,lexical_decision_task_MP,2020.1.3,iPhone,60,,0,0.434262948,-0.306772908,1,0,0,0.499,button_right,0.499,1,,,,,,30,WORD,UN,50,weapon,ORIENT,m,,,,,,0.434262948,-0.306772908,1,0,0,,0,286,286,209,1,
,,,,,,,,,,,,,,,,,,5f2e8596a2eef41fc9968887,2020-08-08_13h03.15.887,lexical_decision_task_MP,2020.1.3,iPhone,60,,0,0.43625498,-0.30876494,1,0,0,0.49,button_right,0.49,1,,,,,,199,WORD,UN,33,plague,INVOKE,m,,,,,,0.43625498,-0.30876494,1,0,0,,0,287,287,138,1,
,,,,,,,,,,,,,,,,,,5f2e8596a2eef41fc9968887,2020-08-08_13h03.15.887,lexical_decision_task_MP,2020.1.3,iPhone,60,,0,-0.412350598,-0.28685259,1,0,0,0.522,button_left,0.522,1,,,,,,270,NW,UN,50,aubrid,WRIMSY,z,,,,,,-0.412350598,-0.28685259,1,0,0,,0,288,288,449,1,
,,,,,,,,,,,,,,,,,,5f2e8596a2eef41fc9968887,2020-08-08_13h03.15.887,lexical_decision_task_MP,2020.1.3,iPhone,60,,0,0.434262948,-0.30876494,1,0,0,0.515,button_right,0.515,1,,,,,,196,WORD,UN,33,stream,CREDIT,m,,,,,,0.434262948,-0.30876494,1,0,0,,0,289,289,135,1,
,,,,,,,,,,,,,,,,,,5f2e8596a2eef41fc9968887,2020-08-08_13h03.15.887,lexical_decision_task_MP,2020.1.3,iPhone,60,,0,-0.390438247,-0.274900398,1,0,0,0.515,button_left,0.515,1,,,,,,255,NW,UN,50,inlors,APIGHT,z,,,,,,-0.390438247,-0.274900398,1,0,0,,0,290,290,434,1,
,,,,,,,,,,,,,,,,,,5f2e8596a2eef41fc9968887,2020-08-08_13h03.15.887,lexical_decision_task_MP,2020.1.3,iPhone,60,,0,0.440239044,-0.306772908,1,0,0,0.618,button_right,0.618,1,,,,,,90,WORD,"ID",33,relish,RELISH,m,,,,,,0.440239044,-0.306772908,1,0,0,,0,291,291,29,1,
,,,,,,,,,,,,,,,,,,5f2e8596a2eef41fc9968887,2020-08-08_13h03.15.887,lexical_decision_task_MP,2020.1.3,iPhone,60,,0,-0.400398406,-0.284860558,1,0,0,0.531,button_left,0.531,1,,,,,,408,NW,"ID",50,hurnia,HURNIA,z,,,,,,-0.400398406,-0.284860558,1,0,0,,0,292,292,347,1,
,,,,,,,,,,,,,,,,,,5f2e8596a2eef41fc9968887,2020-08-08_13h03.15.887,lexical_decision_task_MP,2020.1.3,iPhone,60,,0,-0.402390438,-0.280876494,1,0,0,0.489,button_left,0.489,1,,,,,,288,NW,UN,50,starby,YACEUP,z,,,,,,-0.402390438,-0.280876494,1,0,0,,0,293,293,467,1,
,,,,,,,,,,,,,,,,,,5f2e8596a2eef41fc9968887,2020-08-08_13h03.15.887,lexical_decision_task_MP,2020.1.3,iPhone,60,,0,0.43625498,-0.304780876,1,0,0,0.482,button_right,0.482,1,,,,,,134,WORD,"ID",50,staple,STAPLE,m,,,,,,0.43625498,-0.304780876,1,0,0,,0,294,294,73,1,
,,,,,,,,,,,,,,,,,,5f2e8596a2eef41fc9968887,2020-08-08_13h03.15.887,lexical_decision_task_MP,2020.1.3,iPhone,60,,0,-0.392430279,-0.284860558,1,0,0,0.676,button_left,0.676,1,,,,,,301,NW,"ID",33,fainch,FAINCH,z,,,,,,-0.392430279,-0.284860558,1,0,0,,0,295,295,240,1,
,,,,,,,,,,,,,,,,,,5f2e8596a2eef41fc9968887,2020-08-08_13h03.15.887,lexical_decision_task_MP,2020.1.3,iPhone,60,,0,-0.402390438,-0.288844622,1,0,0,0.5,button_left,0.5,1,,,,,,333,NW,"ID",33,catrie,CATRIE,z,,,,,,-0.402390438,-0.288844622,1,0,0,,0,296,296,272,1,
,,,,,,,,,,,,,,,,,,5f2e8596a2eef41fc9968887,2020-08-08_13h03.15.887,lexical_decision_task_MP,2020.1.3,iPhone,60,,0,0.434262948,-0.312749004,1,0,0,0.49,button_right,0.49,1,,,,,,110,WORD,"ID",33,polite,POLITE,m,,,,,,0.434262948,-0.312749004,1,0,0,,0,297,297,49,1,
,,,,,,,,,,,,,,,,,,5f2e8596a2eef41fc9968887,2020-08-08_13h03.15.887,lexical_decision_task_MP,2020.1.3,iPhone,60,,0,0.432270916,-0.314741036,1,0,0,0.515,button_right,0.515,1,,,,,,209,WORD,UN,33,monkey,SEARCH,m,,,,,,0.432270916,-0.314741036,1,0,0,,0,298,298,148,1,
,,,,,,,,,,,,,,,,,,5f2e8596a2eef41fc9968887,2020-08-08_13h03.15.887,lexical_decision_task_MP,2020.1.3,iPhone,60,,0,0.432270916,-0.314741036,1,0,0,0.449,button_right,0.449,1,,,,,,160,WORD,"ID",50,violet,VIOLET,m,,,,,,0.432270916,-0.314741036,1,0,0,,0,299,299,99,1,
,,,,,,,,,,,,,,,,,,5f2e8596a2eef41fc9968887,2020-08-08_13h03.15.887,lexical_decision_task_MP,2020.1.3,iPhone,60,,0,0.434262948,-0.310756972,1,0,0,0.556,button_right,0.556,1,,,,,,34,WORD,UN,50,socket,JUNGLE,m,,,,,,0.434262948,-0.310756972,1,0,0,,0,300,300,213,1,
,,,,,,,,,,,,,,,,,,5f2e8596a2eef41fc9968887,2020-08-08_13h03.15.887,lexical_decision_task_MP,2020.1.3,iPhone,60,,0,0.434262948,-0.310756972,1,0,0,0.473,button_right,0.473,1,,,,,,113,WORD,"ID",33,chorus,CHORUS,m,,,,,,0.434262948,-0.310756972,1,0,0,,0,301,301,52,1,
,,,,,,,,,,,,,,,,,,5f2e8596a2eef41fc9968887,2020-08-08_13h03.15.887,lexical_decision_task_MP,2020.1.3,iPhone,60,,0,-0.40438247,-0.290836653,1,0,0,0.589,button_left,0.589,1,,,,,,409,NW,"ID",50,elopia,ELOPIA,z,,,,,,-0.40438247,-0.290836653,1,0,0,,0,302,302,348,1,
,,,,,,,,,,,,,,,,,,5f2e8596a2eef41fc9968887,2020-08-08_13h03.15.887,lexical_decision_task_MP,2020.1.3,iPhone,60,,0,0.434262948,-0.304780876,1,0,0,0.632,button_right,0.632,1,,,,,,136,WORD,"ID",50,bleach,BLEACH,m,,,,,,0.434262948,-0.304780876,1,0,0,,0,303,303,75,1,
,,,,,,,,,,,,,,,,,,5f2e8596a2eef41fc9968887,2020-08-08_13h03.15.887,lexical_decision_task_MP,2020.1.3,iPhone,60,,0,0.424302789,-0.312749004,1,0,0,0.639,button_right,0.639,1,,,,,,218,WORD,UN,33,bucket,SHRINK,m,,,,,,0.424302789,-0.312749004,1,0,0,,0,304,304,157,1,
,,,,,,,,,,,,,,,,,,5f2e8596a2eef41fc9968887,2020-08-08_13h03.15.887,lexical_decision_task_MP,2020.1.3,iPhone,60,,0,0.43625498,-0.30876494,1,0,0,0.524,button_right,0.524,1,,,,,,223,WORD,UN,33,period,KIDNEY,m,,,,,,0.43625498,-0.30876494,1,0,0,,0,305,305,162,1,
,,,,,,,,,,,,,,,,,,5f2e8596a2eef41fc9968887,2020-08-08_13h03.15.887,lexical_decision_task_MP,2020.1.3,iPhone,60,,0,-0.396414343,-0.284860558,1,0,0,0.582,button_left,0.582,1,,,,,,330,NW,"ID",33,kensom,KENSOM,z,,,,,,-0.396414343,-0.284860558,1,0,0,,0,306,306,269,1,
,,,,,,,,,,,,,,,,,,5f2e8596a2eef41fc9968887,2020-08-08_13h03.15.887,lexical_decision_task_MP,2020.1.3,iPhone,60,,0,-0.400398406,-0.280876494,1,0,0,0.6,button_left,0.6,1,,,,,,472,NW,UN,33,gorbie,CIGNEY,z,,,,,,-0.400398406,-0.280876494,1,0,0,,0,307,307,411,1,
,,,,,,,,,,,,,,,,,,5f2e8596a2eef41fc9968887,2020-08-08_13h03.15.887,lexical_decision_task_MP,2020.1.3,iPhone,60,,0,0.438247012,-0.304780876,1,0,0,0.632,button_right,0.632,1,,,,,,52,WORD,UN,50,police,IMPOSE,m,,,,,,0.438247012,-0.304780876,1,0,0,,0,308,308,231,1,
,,,,,,,,,,,,,,,,,,5f2e8596a2eef41fc9968887,2020-08-08_13h03.15.887,lexical_decision_task_MP,2020.1.3,iPhone,60,,0,-0.406374502,-0.280876494,1,0,0,0.599,button_left,0.599,1,,,,,,383,NW,"ID",50,aungre,AUNGRE,z,,,,,,-0.406374502,-0.280876494,1,0,0,,0,309,309,322,1,
,,,,,,,,,,,,,,,,,,5f2e8596a2eef41fc9968887,2020-08-08_13h03.15.887,lexical_decision_task_MP,2020.1.3,iPhone,60,,0,-0.376494024,-0.260956175,1,0,0,0.557,button_left,0.557,1,,,,,,415,NW,"ID",50,higsta,HIGSTA,z,,,,,,-0.376494024,-0.260956175,1,0,0,,0,310,310,354,1,
,,,,,,,,,,,,,,,,,,5f2e8596a2eef41fc9968887,2020-08-08_13h03.15.887,lexical_decision_task_MP,2020.1.3,iPhone,60,,0,-0.384462151,-0.264940239,1,0,0,0.614,button_left,0.614,1,,,,,,460,NW,UN,33,justre,MINGAR,z,,,,,,-0.384462151,-0.264940239,1,0,0,,0,311,311,399,1,
,,,,,,,,,,,,,,,,,,5f2e8596a2eef41fc9968887,2020-08-08_13h03.15.887,lexical_decision_task_MP,2020.1.3,iPhone,60,,0,-0.37250996,-0.256972112,1,0,0,0.576,button_left,0.576,1,,,,,,455,NW,UN,33,broget,TONDLE,z,,,,,,-0.37250996,-0.256972112,1,0,0,,0,312,312,394,1,
,,,,,,,,,,,,,,,,,,5f2e8596a2eef41fc9968887,2020-08-08_13h03.15.887,lexical_decision_task_MP,2020.1.3,iPhone,60,,0,0.440239044,-0.302788845,1,0,0,0.472,button_right,0.472,1,,,,,,128,WORD,"ID",50,senior,SENIOR,m,,,,,,0.440239044,-0.302788845,1,0,0,,0,313,313,67,1,
,,,,,,,,,,,,,,,,,,5f2e8596a2eef41fc9968887,2020-08-08_13h03.15.887,lexical_decision_task_MP,2020.1.3,iPhone,60,,0,0.440239044,-0.300796813,1,0,0,0.557,button_right,0.557,1,,,,,,212,WORD,UN,33,squeal,VERIFY,m,,,,,,0.440239044,-0.300796813,1,0,0,,0,314,314,151,1,
,,,,,,,,,,,,,,,,,,5f2e8596a2eef41fc9968887,2020-08-08_13h03.15.887,lexical_decision_task_MP,2020.1.3,iPhone,60,,0,0.434262948,-0.304780876,1,0,0,0.606,button_right,0.606,1,,,,,,55,WORD,UN,50,ambush,STROKE,m,,,,,,0.434262948,-0.304780876,1,0,0,,0,315,315,234,1,
,,,,,,,,,,,,,,,,,,5f2e8596a2eef41fc9968887,2020-08-08_13h03.15.887,lexical_decision_task_MP,2020.1.3,iPhone,60,,0,-0.38247012,-0.268924303,1,0,0,0.547,button_left,0.547,1,,,,,,387,NW,"ID",50,gronce,GRONCE,z,,,,,,-0.38247012,-0.268924303,1,0,0,,0,316,316,326,1,
,,,,,,,,,,,,,,,,,,5f2e8596a2eef41fc9968887,2020-08-08_13h03.15.887,lexical_decision_task_MP,2020.1.3,iPhone,60,,0,0.434262948,-0.302788845,1,0,0,0.484,button_right,0.484,1,,,,,,195,WORD,UN,33,credit,RESIGN,m,,,,,,0.434262948,-0.302788845,1,0,0,,0,317,317,134,1,
,,,,,,,,,,,,,,,,,,5f2e8596a2eef41fc9968887,2020-08-08_13h03.15.887,lexical_decision_task_MP,2020.1.3,iPhone,60,,0,0.438247012,-0.300796813,1,0,0,0.498,button_right,0.498,1,,,,,,235,WORD,UN,33,pirate,GRUMPY,m,,,,,,0.438247012,-0.300796813,1,0,0,,0,318,318,174,1,
,,,,,,,,,,,,,,,,,,5f2e8596a2eef41fc9968887,2020-08-08_13h03.15.887,lexical_decision_task_MP,2020.1.3,iPhone,60,,0,-0.38247012,-0.272908367,1,0,0,0.616,button_left,0.616,1,,,,,,378,NW,"ID",50,shrile,SHRILE,z,,,,,,-0.38247012,-0.272908367,1,0,0,,0,319,319,317,1,
,,,,,,,,,,,,,,,,,,5f2e8596a2eef41fc9968887,2020-08-08_13h03.15.887,lexical_decision_task_MP,2020.1.3,iPhone,60,,0,-0.380478088,-0.262948207,1,0,0,0.539,button_left,0.539,1,,,,,,412,NW,"ID",50,jiluer,JILUER,z,,,,,,-0.380478088,-0.262948207,1,0,0,,0,320,320,351,1,
,,,,,,,,,,,,,,,,,,5f2e8596a2eef41fc9968887,2020-08-08_13h03.15.887,lexical_decision_task_MP,2020.1.3,iPhone,60,,0,-0.378486056,-0.262948207,1,0,0,0.556,button_left,0.556,1,,,,,,361,NW,"ID",50,pauche,PAUCHE,z,,,,,,-0.378486056,-0.262948207,1,0,0,,0,321,321,300,1,
,,,,,,,,,,,,,,,,,,5f2e8596a2eef41fc9968887,2020-08-08_13h03.15.887,lexical_decision_task_MP,2020.1.3,iPhone,60,,0,0.440239044,-0.296812749,1,0,0,0.49,button_right,0.49,1,,,,,,91,WORD,"ID",33,expand,EXPAND,m,,,,,,0.440239044,-0.296812749,1,0,0,,0,322,322,30,1,
,,,,,,,,,,,,,,,,,,5f2e8596a2eef41fc9968887,2020-08-08_13h03.15.887,lexical_decision_task_MP,2020.1.3,iPhone,60,,0,-0.376494024,-0.272908367,1,0,0,0.648,button_left,0.648,1,,,,,,304,NW,"ID",33,cludie,CLUDIE,z,,,,,,-0.376494024,-0.272908367,1,0,0,,0,323,323,243,1,
,,,,,,,,,,,,,,,,,,5f2e8596a2eef41fc9968887,2020-08-08_13h03.15.887,lexical_decision_task_MP,2020.1.3,iPhone,60,,0,0.43625498,-0.298804781,1,0,0,0.615,button_right,0.615,1,,,,,,47,WORD,UN,50,walnut,INCOME,m,,,,,,0.43625498,-0.298804781,1,0,0,,0,324,324,226,1,
,,,,,,,,,,,,,,,,,,5f2e8596a2eef41fc9968887,2020-08-08_13h03.15.887,lexical_decision_task_MP,2020.1.3,iPhone,60,,0,-0.384462151,-0.280876494,1,0,0,0.552,button_left,0.552,0,,,,,,86,WORD,"ID",33,rodent,RODENT,m,,,,,,-0.384462151,-0.280876494,1,0,0,,0,325,325,25,1,
,,,,,,,,,,,,,,,,,,5f2e8596a2eef41fc9968887,2020-08-08_13h03.15.887,lexical_decision_task_MP,2020.1.3,iPhone,60,,0,-0.390438247,-0.274900398,1,0,0,0.614,button_left,0.614,1,,,,,,257,NW,UN,50,poluth,VENIOD,z,,,,,,-0.390438247,-0.274900398,1,0,0,,0,326,326,436,1,
,,,,,,,,,,,,,,,,,,5f2e8596a2eef41fc9968887,2020-08-08_13h03.15.887,lexical_decision_task_MP,2020.1.3,iPhone,60,,0,0.434262948,-0.302788845,1,0,0,0.501,button_right,0.501,1,,,,,,75,WORD,"ID",33,trophy,TROPHY,m,,,,,,0.434262948,-0.302788845,1,0,0,,0,327,327,14,1,
,,,,,,,,,,,,,,,,,,5f2e8596a2eef41fc9968887,2020-08-08_13h03.15.887,lexical_decision_task_MP,2020.1.3,iPhone,60,,0,0.430278884,-0.300796813,1,0,0,0.556,button_right,0.556,1,,,,,,40,WORD,UN,50,spring,CONVEY,m,,,,,,0.430278884,-0.300796813,1,0,0,,0,328,328,219,1,
,,,,,,,,,,,,,,,,,,5f2e8596a2eef41fc9968887,2020-08-08_13h03.15.887,lexical_decision_task_MP,2020.1.3,iPhone,60,,0,0.432270916,-0.302788845,1,0,0,0.465,button_right,0.465,1,,,,,,191,WORD,UN,33,beacon,STABLE,m,,,,,,0.432270916,-0.302788845,1,0,0,,0,329,329,130,1,
,,,,,,,,,,,,,,,,,,5f2e8596a2eef41fc9968887,2020-08-08_13h03.15.887,lexical_decision_task_MP,2020.1.3,iPhone,60,,0,-0.380478088,-0.282868526,1,0,0,0.881,button_left,0.881,0,,,,,,131,WORD,"ID",50,quench,QUENCH,m,,,,,,-0.380478088,-0.282868526,1,0,0,,0,330,330,70,1,
,,,,,,,,,,,,,,,,,,5f2e8596a2eef41fc9968887,2020-08-08_13h03.15.887,lexical_decision_task_MP,2020.1.3,iPhone,60,,0,0.432270916,-0.302788845,1,0,0,0.558,button_right,0.558,1,,,,,,204,WORD,UN,33,lounge,BURDEN,m,,,,,,0.432270916,-0.302788845,1,0,0,,0,331,331,143,1,
,,,,,,,,,,,,,,,,,,5f2e8596a2eef41fc9968887,2020-08-08_13h03.15.887,lexical_decision_task_MP,2020.1.3,iPhone,60,,0,0.432270916,-0.302788845,1,0,0,0.49,button_right,0.49,1,,,,,,166,WORD,"ID",50,starch,STARCH,m,,,,,,0.432270916,-0.302788845,1,0,0,,0,332,332,105,1,
,,,,,,,,,,,,,,,,,,5f2e8596a2eef41fc9968887,2020-08-08_13h03.15.887,lexical_decision_task_MP,2020.1.3,iPhone,60,,0,0.432270916,-0.300796813,1,0,0,0.598,button_right,0.598,1,,,,,,221,WORD,UN,33,hinder,MASCOT,m,,,,,,0.432270916,-0.300796813,1,0,0,,0,333,333,160,1,
,,,,,,,,,,,,,,,,,,5f2e8596a2eef41fc9968887,2020-08-08_13h03.15.887,lexical_decision_task_MP,2020.1.3,iPhone,60,,0,-0.392430279,-0.28685259,1,0,0,0.589,button_left,0.589,1,,,,,,384,NW,"ID",50,guesco,GUESCO,z,,,,,,-0.392430279,-0.28685259,1,0,0,,0,334,334,323,1,
,,,,,,,,,,,,,,,,,,5f2e8596a2eef41fc9968887,2020-08-08_13h03.15.887,lexical_decision_task_MP,2020.1.3,iPhone,60,,0,-0.392430279,-0.282868526,1,0,0,0.638,button_left,0.638,1,,,,,,369,NW,"ID",50,wronch,WRONCH,z,,,,,,-0.392430279,-0.282868526,1,0,0,,0,335,335,308,1,
,,,,,,,,,,,,,,,,,,5f2e8596a2eef41fc9968887,2020-08-08_13h03.15.887,lexical_decision_task_MP,2020.1.3,iPhone,60,,0,-0.388446215,-0.280876494,1,0,0,0.607,button_left,0.607,1,,,,,,450,NW,UN,33,cainky,PHRECT,z,,,,,,-0.388446215,-0.280876494,1,0,0,,0,336,336,389,1,
,,,,,,,,,,,,,,,,,,5f2e8596a2eef41fc9968887,2020-08-08_13h03.15.887,lexical_decision_task_MP,2020.1.3,iPhone,60,,0,-0.390438247,-0.278884462,1,0,0,0.564,button_left,0.564,1,,,,,,444,NW,UN,33,minkel,JAUNCE,z,,,,,,-0.390438247,-0.278884462,1,0,0,,0,337,337,383,1,
,,,,,,,,,,,,,,,,,,5f2e8596a2eef41fc9968887,2020-08-08_13h03.15.887,lexical_decision_task_MP,2020.1.3,iPhone,60,,0,-0.386454183,-0.272908367,1,0,0,0.507,button_left,0.507,1,,,,,,459,NW,UN,33,mingar,BAFENT,z,,,,,,-0.386454183,-0.272908367,1,0,0,,0,338,338,398,1,
,,,,,,,,,,,,,,,,,,5f2e8596a2eef41fc9968887,2020-08-08_13h03.15.887,lexical_decision_task_MP,2020.1.3,iPhone,60,,0,0.43625498,-0.294820717,1,0,0,0.573,button_right,0.573,1,,,,,,210,WORD,UN,33,infect,MONKEY,m,,,,,,0.43625498,-0.294820717,1,0,0,,0,339,339,149,1,
,,,,,,,,,,,,,,,,,,5f2e8596a2eef41fc9968887,2020-08-08_13h03.15.887,lexical_decision_task_MP,2020.1.3,iPhone,60,,0,-0.376494024,-0.274900398,1,0,0,0.666,button_left,0.666,0,,,,,,183,WORD,UN,33,sleazy,MILDEW,m,,,,,,-0.376494024,-0.274900398,1,0,0,,0,340,340,122,1,
,,,,,,,,,,,,,,,,,,5f2e8596a2eef41fc9968887,2020-08-08_13h03.15.887,lexical_decision_task_MP,2020.1.3,iPhone,60,,0,-0.388446215,-0.274900398,1,0,0,0.482,button_left,0.482,1,,,,,,365,NW,"ID",50,guairt,GUAIRT,z,,,,,,-0.388446215,-0.274900398,1,0,0,,0,341,341,304,1,
,,,,,,,,,,,,,,,,,,5f2e8596a2eef41fc9968887,2020-08-08_13h03.15.887,lexical_decision_task_MP,2020.1.3,iPhone,60,,0,-0.384462151,-0.272908367,1,0,0,0.6,button_left,0.6,1,,,,,,445,NW,UN,33,runamo,MINKEL,z,,,,,,-0.384462151,-0.272908367,1,0,0,,0,342,342,384,1,
,,,,,,,,,,,,,,,,,,5f2e8596a2eef41fc9968887,2020-08-08_13h03.15.887,lexical_decision_task_MP,2020.1.3,iPhone,60,,0,0.422310757,-0.290836653,1,0,0,0.532,button_right,0.532,1,,,,,,201,WORD,UN,33,factor,ADMIRE,m,,,,,,0.422310757,-0.290836653,1,0,0,,0,343,343,140,1,
,,,,,,,,,,,,,,,,,,5f2e8596a2eef41fc9968887,2020-08-08_13h03.15.887,lexical_decision_task_MP,2020.1.3,iPhone,60,,0,0.424302789,-0.290836653,1,0,0,0.468,button_right,0.468,1,,,,,,228,WORD,UN,33,kidney,MASTER,m,,,,,,0.424302789,-0.290836653,1,0,0,,0,344,344,167,1,
,,,,,,,,,,,,,,,,,,5f2e8596a2eef41fc9968887,2020-08-08_13h03.15.887,lexical_decision_task_MP,2020.1.3,iPhone,60,,0,0.422310757,-0.296812749,1,0,0,0.457,button_right,0.457,1,,,,,,187,WORD,UN,33,social,COURSE,m,,,,,,0.422310757,-0.296812749,1,0,0,,0,345,345,126,1,
,,,,,,,,,,,,,,,,,,5f2e8596a2eef41fc9968887,2020-08-08_13h03.15.887,lexical_decision_task_MP,2020.1.3,iPhone,60,,0,-0.376494024,-0.278884462,1,0,0,0.473,button_left,0.473,1,,,,,,386,NW,"ID",50,ancust,ANCUST,z,,,,,,-0.376494024,-0.278884462,1,0,0,,0,346,346,325,1,
,,,,,,,,,,,,,,,,,,5f2e8596a2eef41fc9968887,2020-08-08_13h03.15.887,lexical_decision_task_MP,2020.1.3,iPhone,60,,0,0.426294821,-0.294820717,1,0,0,0.514,button_right,0.514,1,,,,,,219,WORD,UN,33,voyage,BUCKET,m,,,,,,0.426294821,-0.294820717,1,0,0,,0,347,347,158,1,
,,,,,,,,,,,,,,,,,,5f2e8596a2eef41fc9968887,2020-08-08_13h03.15.887,lexical_decision_task_MP,2020.1.3,iPhone,60,,0,0.424302789,-0.296812749,1,0,0,0.556,button_right,0.556,1,,,,,,23,WORD,UN,50,praise,WEALTH,m,,,,,,0.424302789,-0.296812749,1,0,0,,0,348,348,202,1,
,,,,,,,,,,,,,,,,,,5f2e8596a2eef41fc9968887,2020-08-08_13h03.15.887,lexical_decision_task_MP,2020.1.3,iPhone,60,,0,-0.37250996,-0.280876494,1,0,0,0.64,button_left,0.64,1,,,,,,398,NW,"ID",50,blunde,BLUNDE,z,,,,,,-0.37250996,-0.280876494,1,0,0,,0,349,349,337,1,
,,,,,,,,,,,,,,,,,,5f2e8596a2eef41fc9968887,2020-08-08_13h03.15.887,lexical_decision_task_MP,2020.1.3,iPhone,60,,0,0.426294821,-0.302788845,1,0,0,0.581,button_right,0.581,1,,,,,,32,WORD,UN,50,scream,BUCKLE,m,,,,,,0.426294821,-0.302788845,1,0,0,,0,350,350,211,1,
,,,,,,,,,,,,,,,,,,5f2e8596a2eef41fc9968887,2020-08-08_13h03.15.887,lexical_decision_task_MP,2020.1.3,iPhone,60,,0,0.430278884,-0.294820717,1,0,0,0.565,button_right,0.565,1,,,,,,126,WORD,"ID",50,enough,ENOUGH,m,,,,,,0.430278884,-0.294820717,1,0,0,,0,351,351,65,1,
,,,,,,,,,,,,,,,,,,5f2e8596a2eef41fc9968887,2020-08-08_13h03.15.887,lexical_decision_task_MP,2020.1.3,iPhone,60,,0,-0.376494024,-0.280876494,1,0,0,0.508,button_left,0.508,1,,,,,,403,NW,"ID",50,bruats,BRUATS,z,,,,,,-0.376494024,-0.280876494,1,0,0,,0,352,352,342,1,
