instr_done_keyboard.keys,instr_done_keyboard.rt,instr_done_touch.x,instr_done_touch.y,instr_done_touch.leftButton,instr_done_touch.midButton,instr_done_touch.rightButton,instruction_pages.thisRepN,instruction_pages.thisTrialN,instruction_pages.thisN,instruction_pages.thisIndex,instruction_pages.ran,pageN,phase,instruct_text,has_image,instruct_image,participant,date,expName,psychopyVersion,OS,frameRate,response.keys,response.corr,touch_resp.x,touch_resp.y,touch_resp.leftButton,touch_resp.midButton,touch_resp.rightButton,touch_resp.time,touch_resp.clicked_name,rt,corr,practice_trials.thisRepN,practice_trials.thisTrialN,practice_trials.thisN,practice_trials.thisIndex,practice_trials.ran,TrialID,StimulusType,Condition,PrimeDuration,Prime,Target,corrAns,instr_done_touch.clicked_name,end_of_practice_trials_pages.thisRepN,end_of_practice_trials_pages.thisTrialN,end_of_practice_trials_pages.thisN,end_of_practice_trials_pages.thisIndex,end_of_practice_trials_pages.ran,break_done_touch.x,break_done_touch.y,break_done_touch.leftButton,break_done_touch.midButton,break_done_touch.rightButton,break_done_keyboard.keys,trials.thisRepN,trials.thisTrialN,trials.thisN,trials.thisIndex,trials.ran
space,13.902375,0.016927083,-0.22265625,0,0,0,0,0,0,0,1,1,instructions,"INSTRUCTIONS
At the start of each trial, look at the hash marks (######) in the center of the screen. After a moment, a string of letters will appear. Your task is to indicate if the letter string forms a word or not (i.e., if it is a nonword). For example, AUTHOR is a word while AUTHON is a nonword.

Press the space bar or touch the button below to continue.",0,,999,2020-07-26_14h05.12.032,lexical_decision_task_MP,2020.1.3,Win32,60,,,,,,,,,,,,,,,,,,,,,,,,,,,,,,,,,,,,,,,,
space,4.38679,0.016927083,-0.22265625,0,0,0,0,1,1,1,1,2,instructions,"If your device has a keyboard, press the 'Z' key for nonwords and the 'M' key for words.





Press the space bar or touch the button below to continue.",1,keyboard-example.gif,999,2020-07-26_14h05.12.032,lexical_decision_task_MP,2020.1.3,Win32,60,,,,,,,,,,,,,,,,,,,,,,,,,,,,,,,,,,,,,,,,
space,13.89244,0.016927083,-0.22265625,0,0,0,0,2,2,2,1,3,instructions,"If you are using a touchscreen only device, use the buttons on the screen. Do not use the mouse as this will slow down your response. 




Press the space bar or touch the button below to continue.",1,touchscreen-example.gif,999,2020-07-26_14h05.12.032,lexical_decision_task_MP,2020.1.3,Win32,60,,,,,,,,,,,,,,,,,,,,,,,,,,,,,,,,,,,,,,,,
space,9.286315,0.016927083,-0.22265625,0,0,0,0,3,3,3,1,4,instructions,"It is very important that you respond as quickly and accurately as possible, as each letter string will only be on the screen for two seconds. If you do not respond within this time, the message 'Too slow!' will be displayed and the experiment will progress to the next letter string. The first 20 trials will be practice trials and you will receive feedback on your answers. 

Press the space bar or touch the button below to start the practice trials.",0,,999,2020-07-26_14h05.12.032,lexical_decision_task_MP,2020.1.3,Win32,60,,,,,,,,,,,,,,,,,,,,,,,,,,,,,,,,,,,,,,,,
,,,,,,,,,,,,,,,,,999,2020-07-26_14h05.12.032,lexical_decision_task_MP,2020.1.3,Win32,60,,0,,,,,,,,,-1,0,0,0,1,1,1002,WORD,"ID",33,adjust,ADJUST,l,,,,,,,,,,,,,,,,,
,,,,,,,,,,,,,,,,,999,2020-07-26_14h05.12.032,lexical_decision_task_MP,2020.1.3,Win32,60,,0,,,,,,,,,-1,0,1,1,11,1,1012,NW,"ID",50,rashet,RASHET,a,,,,,,,,,,,,,,,,,
,,,,,,,,,,,,,,,,,999,2020-07-26_14h05.12.032,lexical_decision_task_MP,2020.1.3,Win32,60,,0,,,,,,,,,-1,0,2,2,0,1,1001,WORD,"ID",33,utopia,UTOPIA,l,,,,,,,,,,,,,,,,,
,,,,,,,,,,,,,,,,,999,2020-07-26_14h05.12.032,lexical_decision_task_MP,2020.1.3,Win32,60,,0,,,,,,,,,-1,0,3,3,15,1,1016,NW,UN,50,mushed,WHAISE,a,,,,,,,,,,,,,,,,,
,,,,,,,,,,,,,,,,,999,2020-07-26_14h05.12.032,lexical_decision_task_MP,2020.1.3,Win32,60,,0,,,,,,,,,-1,0,4,4,4,1,1005,WORD,UN,33,abound,SQUEAK,l,,,,,,,,,,,,,,,,,
,,,,,,,,,,,,,,,,,999,2020-07-26_14h05.12.032,lexical_decision_task_MP,2020.1.3,Win32,60,,0,-0.4256,-0.3176,1,0,0,1.013425,button_left,1.013425,1,0,5,5,9,1,1010,NW,"ID",33,fariny,FARINY,a,,,,,,,,,,,,,,,,,
,,,,,,,,,,,,,,,,,999,2020-07-26_14h05.12.032,lexical_decision_task_MP,2020.1.3,Win32,60,,0,-0.2816,-0.2696,1,0,0,0.9814,button_left,0.9814,1,0,6,6,10,1,1011,NW,"ID",50,inlade,INLADE,a,,,,,,,,,,,,,,,,,
,,,,,,,,,,,,,,,,,999,2020-07-26_14h05.12.032,lexical_decision_task_MP,2020.1.3,Win32,60,,0,-0.2816,-0.2696,1,0,0,0.89812,button_left,0.89812,1,0,7,7,12,1,1013,NW,UN,33,adveil,SPRINY,a,,,,,,,,,,,,,,,,,
,,,,,,,,,,,,,,,,,999,2020-07-26_14h05.12.032,lexical_decision_task_MP,2020.1.3,Win32,60,,0,-0.2816,-0.2696,1,0,0,0.782305,button_left,0.782305,1,0,8,8,13,1,1014,NW,UN,33,winfer,ROUPET,a,,,,,,,,,,,,,,,,,
,,,,,,,,,,,,,,,,,999,2020-07-26_14h05.12.032,lexical_decision_task_MP,2020.1.3,Win32,60,,0,-0.264,-0.2792,1,0,0,1.11526,button_left,1.11526,1,0,9,9,8,1,1009,NW,"ID",33,aslert,ASLERT,a,,,,,,,,,,,,,,,,,
,,,,,,,,,,,,,,,,,999,2020-07-26_14h05.12.032,lexical_decision_task_MP,2020.1.3,Win32,60,,0,-0.3152,-0.2696,1,0,0,0.68182,button_left,0.68182,0,0,10,10,5,1,1006,WORD,UN,33,frenzy,OBTAIN,l,,,,,,,,,,,,,,,,,
,,,,,,,,,,,,,,,,,999,2020-07-26_14h05.12.032,lexical_decision_task_MP,2020.1.3,Win32,60,,0,0.4608,-0.2712,1,0,0,1.09845,button_right,1.09845,1,0,11,11,2,1,1003,WORD,"ID",50,almond,ALMOND,l,,,,,,,,,,,,,,,,,
,,,,,,,,,,,,,,,,,999,2020-07-26_14h05.12.032,lexical_decision_task_MP,2020.1.3,Win32,60,,0,-0.3408,-0.332,1,0,0,1.33166,button_left,1.33166,1,0,12,12,14,1,1015,NW,UN,50,miaber,THRALE,a,,,,,,,,,,,,,,,,,
,,,,,,,,,,,,,,,,,999,2020-07-26_14h05.12.032,lexical_decision_task_MP,2020.1.3,Win32,60,,0,0.4224,-0.3304,1,0,0,1.248365,button_right,1.248365,1,0,13,13,3,1,1004,WORD,"ID",50,matrix,MATRIX,l,,,,,,,,,,,,,,,,,
,,,,,,,,,,,,,,,,,999,2020-07-26_14h05.12.032,lexical_decision_task_MP,2020.1.3,Win32,60,,0,0.3408,-0.2712,1,0,0,1.364565,button_right,1.364565,1,0,14,14,7,1,1008,WORD,UN,50,hurdle,VOLUME,l,,,,,,,,,,,,,,,,,
,,,,,,,,,,,,,,,,,999,2020-07-26_14h05.12.032,lexical_decision_task_MP,2020.1.3,Win32,60,,0,0.512,-0.292,1,0,0,1.03053,button_right,1.03053,1,0,15,15,6,1,1007,WORD,UN,50,tropic,ZOMBIE,l,,,,,,,,,,,,,,,,,
,,-0.072,-0.46,1,0,0,,,,,,1,end_of_practice,"You have completed the practice trials. During the experimental trials, you will not receive feedback, but it is very important that you respond as quickly and accurately as possible. 
Before you begin, please ensure that you are in a comfortable and quiet location and will not be disturbed for about 25 minutes, as we cannot use your data if you do not complete all the trials. 
There will be opportunities to take breaks at regular intervals during the experiment. When you are ready to start the experimental trials, please press space or touch the button below.",,,999,2020-07-26_14h05.12.032,lexical_decision_task_MP,2020.1.3,Win32,60,,,,,,,,,,,,,,,,,,,,,,,,instr_done_button,0,0,0,0,1,,,,,,,,,,,
,,,,,,,,,,,,,,,,,999,2020-07-26_14h05.12.032,lexical_decision_task_MP,2020.1.3,Win32,60,,0,-0.4896,-0.3608,1,0,0,1.1136,button_left,1.1136,1,,,,,,396,NW,"ID",50,flengy,FLENGY,a,,,,,,,-0.4896,-0.3608,1,0,0,,0,0,0,335,1
,,,,,,,,,,,,,,,,,999,2020-07-26_14h05.12.032,lexical_decision_task_MP,2020.1.3,Win32,60,,0,-0.384,-0.3032,1,0,0,0.93231,button_left,0.93231,1,,,,,,275,NW,UN,50,yarmon,SLEIRT,a,,,,,,,-0.384,-0.3032,1,0,0,,0,1,1,454,1
,,,,,,,,,,,,,,,,,999,2020-07-26_14h05.12.032,lexical_decision_task_MP,2020.1.3,Win32,60,,0,-0.4208,-0.2936,1,0,0,0.931135,button_left,0.931135,1,,,,,,480,NW,UN,33,knisma,ROBULY,a,,,,,,,-0.4208,-0.2936,1,0,0,,0,2,2,419,1
,,,,,,,,,,,,,,,,,999,2020-07-26_14h05.12.032,lexical_decision_task_MP,2020.1.3,Win32,60,,0,-0.4176,-0.2936,1,0,0,0.76471,button_left,0.76471,1,,,,,,476,NW,UN,33,photie,JOSTED,a,,,,,,,-0.4176,-0.2936,1,0,0,,0,3,3,415,1
,,,,,,,,,,,,,,,,,999,2020-07-26_14h05.12.032,lexical_decision_task_MP,2020.1.3,Win32,60,,0,-0.4144,-0.2856,1,0,0,0.730955,button_left,0.730955,1,,,,,,447,NW,UN,33,sadent,GIRCUE,a,,,,,,,-0.4144,-0.2856,1,0,0,,0,4,4,386,1
,,,,,,,,,,,,,,,,,999,2020-07-26_14h05.12.032,lexical_decision_task_MP,2020.1.3,Win32,60,,0,0.3072,-0.3704,1,0,0,1.014935,button_right,1.014935,1,,,,,,161,WORD,"ID",50,pastor,PASTOR,l,,,,,,,0.3072,-0.3704,1,0,0,,0,5,5,100,1
,,,,,,,,,,,,,,,,,999,2020-07-26_14h05.12.032,lexical_decision_task_MP,2020.1.3,Win32,60,,0,0.3424,-0.3464,1,0,0,0.981415,button_right,0.981415,1,,,,,,60,WORD,UN,50,fright,PENCIL,l,,,,,,,0.3424,-0.3464,1,0,0,,0,6,6,239,1
,,,,,,,,,,,,,,,,,999,2020-07-26_14h05.12.032,lexical_decision_task_MP,2020.1.3,Win32,60,,0,-0.416,-0.2952,1,0,0,0.981905,button_left,0.981905,1,,,,,,462,NW,UN,33,kispel,ABSULT,a,,,,,,,-0.416,-0.2952,1,0,0,,0,7,7,401,1
,,,,,,,,,,,,,,,,,999,2020-07-26_14h05.12.032,lexical_decision_task_MP,2020.1.3,Win32,60,,0,0.4112,-0.2952,1,0,0,0.93147,button_right,0.93147,1,,,,,,118,WORD,"ID",33,flight,FLIGHT,l,,,,,,,0.4112,-0.2952,1,0,0,,0,8,8,57,1
,,,,,,,,,,,,,,,,,999,2020-07-26_14h05.12.032,lexical_decision_task_MP,2020.1.3,Win32,60,,0,0.4032,-0.3256,1,0,0,0.681875,button_right,0.681875,1,,,,,,74,WORD,"ID",33,plaque,PLAQUE,l,,,,,,,0.4032,-0.3256,1,0,0,,0,9,9,13,1
,,,,,,,,,,,,,,,,,999,2020-07-26_14h05.12.032,lexical_decision_task_MP,2020.1.3,Win32,60,,0,-0.3488,-0.2888,1,0,0,1.66512,button_left,1.66512,1,,,,,,341,NW,"ID",33,myrtie,MYRTIE,a,,,,,,,-0.3488,-0.2888,1,0,0,,0,10,10,280,1
,,,,,,,,,,,,,,,,,999,2020-07-26_14h05.12.032,lexical_decision_task_MP,2020.1.3,Win32,60,,0,-0.3216,-0.3208,1,0,0,1.4482,button_left,1.4482,1,,,,,,441,NW,UN,33,aboune,RASTOE,a,,,,,,,-0.3216,-0.3208,1,0,0,,0,11,11,380,1
,,,,,,,,,,,,,,,,,999,2020-07-26_14h05.12.032,lexical_decision_task_MP,2020.1.3,Win32,60,,0,-0.3408,-0.2792,1,0,0,0.748885,button_left,0.748885,1,,,,,,433,NW,UN,33,pitrom,DRANCE,a,,,,,,,-0.3408,-0.2792,1,0,0,,0,12,12,372,1
,,,,,,,,,,,,,,,,,999,2020-07-26_14h05.12.032,lexical_decision_task_MP,2020.1.3,Win32,60,,0,-0.2928,-0.3128,1,0,0,0.98186,button_left,0.98186,0,,,,,,142,WORD,"ID",50,spruce,SPRUCE,l,,,,,,,-0.2928,-0.3128,1,0,0,,0,13,13,81,1
,,,,,,,,,,,,,,,,,999,2020-07-26_14h05.12.032,lexical_decision_task_MP,2020.1.3,Win32,60,,0,0.32,-0.3096,1,0,0,1.71535,button_right,1.71535,1,,,,,,134,WORD,"ID",50,staple,STAPLE,l,,,,,,,0.32,-0.3096,1,0,0,,0,14,14,73,1
,,,,,,,,,,,,,,,,,999,2020-07-26_14h05.12.032,lexical_decision_task_MP,2020.1.3,Win32,60,,0,0.3136,-0.3176,1,0,0,0.631925,button_right,0.631925,1,,,,,,82,WORD,"ID",33,stigma,STIGMA,l,,,,,,,0.3136,-0.3176,1,0,0,,0,15,15,21,1
,,,,,,,,,,,,,,,,,999,2020-07-26_14h05.12.032,lexical_decision_task_MP,2020.1.3,Win32,60,,0,0.3632,-0.3432,1,0,0,0.54843,button_right,0.54843,1,,,,,,111,WORD,"ID",33,induce,INDUCE,l,,,,,,,0.3632,-0.3432,1,0,0,,0,16,16,50,1
,,,,,,,,,,,,,,,,,999,2020-07-26_14h05.12.032,lexical_decision_task_MP,2020.1.3,Win32,60,,0,0.368,-0.3416,1,0,0,0.448765,button_right,0.448765,1,,,,,,166,WORD,"ID",50,starch,STARCH,l,,,,,,,0.368,-0.3416,1,0,0,,0,17,17,105,1
,,,,,,,,,,,,,,,,,999,2020-07-26_14h05.12.032,lexical_decision_task_MP,2020.1.3,Win32,60,,0,-0.3104,-0.2344,1,0,0,1.18186,button_left,1.18186,1,,,,,,291,NW,UN,50,ablint,PRETCH,a,,,,,,,-0.3104,-0.2344,1,0,0,,0,18,18,470,1
,,,,,,,,,,,,,,,,,999,2020-07-26_14h05.12.032,lexical_decision_task_MP,2020.1.3,Win32,60,,0,-0.3248,-0.292,1,0,0,1.01553,button_left,1.01553,1,,,,,,344,NW,"ID",33,scrily,SCRILY,a,,,,,,,-0.3248,-0.292,1,0,0,,0,19,19,283,1
,,,,,,,,,,,,,,,,,999,2020-07-26_14h05.12.032,lexical_decision_task_MP,2020.1.3,Win32,60,,0,-0.376,-0.2936,1,0,0,1.064955,button_left,1.064955,1,,,,,,354,NW,"ID",33,virlex,VIRLEX,a,,,,,,,-0.376,-0.2936,1,0,0,,0,20,20,293,1
,,,,,,,,,,,,,,,,,999,2020-07-26_14h05.12.032,lexical_decision_task_MP,2020.1.3,Win32,60,,0,-0.296,-0.292,1,0,0,0.731545,button_left,0.731545,1,,,,,,373,NW,"ID",50,bigent,BIGENT,a,,,,,,,-0.296,-0.292,1,0,0,,0,21,21,312,1
,,,,,,,,,,,,,,,,,999,2020-07-26_14h05.12.032,lexical_decision_task_MP,2020.1.3,Win32,60,,0,0.3472,-0.3976,1,0,0,0.964975,button_right,0.964975,1,,,,,,215,WORD,UN,33,lumber,PHOBIA,l,,,,,,,0.3472,-0.3976,1,0,0,,0,22,22,154,1
,,,,,,,,,,,,,,,,,999,2020-07-26_14h05.12.032,lexical_decision_task_MP,2020.1.3,Win32,60,,0,-0.3184,-0.2984,1,0,0,0.981315,button_left,0.981315,1,,,,,,249,NW,UN,50,milted,BATROL,a,,,,,,,-0.3184,-0.2984,1,0,0,,0,23,23,428,1
,,,,,,,,,,,,,,,,,999,2020-07-26_14h05.12.032,lexical_decision_task_MP,2020.1.3,Win32,60,,0,0.3712,-0.3432,1,0,0,0.765225,button_right,0.765225,1,,,,,,210,WORD,UN,33,infect,MONKEY,l,,,,,,,0.3712,-0.3432,1,0,0,,0,24,24,149,1
,,,,,,,,,,,,,,,,,999,2020-07-26_14h05.12.032,lexical_decision_task_MP,2020.1.3,Win32,60,,0,-0.3552,-0.268,1,0,0,0.86652,button_left,0.86652,0,,,,,,193,WORD,UN,33,mildew,OBJECT,l,,,,,,,-0.3552,-0.268,1,0,0,,0,25,25,132,1
,,,,,,,,,,,,,,,,,999,2020-07-26_14h05.12.032,lexical_decision_task_MP,2020.1.3,Win32,60,,0,-0.2528,-0.3,1,0,0,1.01541,button_left,1.01541,1,,,,,,254,NW,UN,50,apight,VAROSH,a,,,,,,,-0.2528,-0.3,1,0,0,,0,26,26,433,1
,,,,,,,,,,,,,,,,,999,2020-07-26_14h05.12.032,lexical_decision_task_MP,2020.1.3,Win32,60,,0,-0.416,-0.2984,1,0,0,1.365555,button_left,1.365555,1,,,,,,423,NW,UN,33,praile,STRELD,a,,,,,,,-0.416,-0.2984,1,0,0,,0,27,27,362,1
,,,,,,,,,,,,,,,,,999,2020-07-26_14h05.12.032,lexical_decision_task_MP,2020.1.3,Win32,60,,0,-0.3184,-0.2728,1,0,0,1.315,button_left,1.315,1,,,,,,304,NW,"ID",33,cludie,CLUDIE,a,,,,,,,-0.3184,-0.2728,1,0,0,,0,28,28,243,1
,,,,,,,,,,,,,,,,,999,2020-07-26_14h05.12.032,lexical_decision_task_MP,2020.1.3,Win32,60,,0,-0.2208,-0.292,1,0,0,1.480975,button_left,1.480975,1,,,,,,398,NW,"ID",50,blunde,BLUNDE,a,,,,,,,-0.2208,-0.292,1,0,0,,0,29,29,337,1
,,,,,,,,,,,,,,,,,999,2020-07-26_14h05.12.032,lexical_decision_task_MP,2020.1.3,Win32,60,,0,0.4688,-0.3368,1,0,0,1.214805,button_right,1.214805,1,,,,,,11,WORD,UN,50,amount,CRUISE,l,,,,,,,0.4688,-0.3368,1,0,0,,0,30,30,190,1
,,,,,,,,,,,,,,,,,999,2020-07-26_14h05.12.032,lexical_decision_task_MP,2020.1.3,Win32,60,,0,0.4448,-0.2776,1,0,0,0.88141,button_right,0.88141,1,,,,,,160,WORD,"ID",50,violet,VIOLET,l,,,,,,,0.4448,-0.2776,1,0,0,,0,31,31,99,1
,,,,,,,,,,,,,,,,,999,2020-07-26_14h05.12.032,lexical_decision_task_MP,2020.1.3,Win32,60,,0,0.3008,-0.3096,1,0,0,1.248225,button_right,1.248225,1,,,,,,228,WORD,UN,33,kidney,MASTER,l,,,,,,,0.3008,-0.3096,1,0,0,,0,32,32,167,1
,,,,,,,,,,,,,,,,,999,2020-07-26_14h05.12.032,lexical_decision_task_MP,2020.1.3,Win32,60,,0,-0.3056,-0.308,1,0,0,1.347845,button_left,1.347845,1,,,,,,318,NW,"ID",33,reagly,REAGLY,a,,,,,,,-0.3056,-0.308,1,0,0,,0,33,33,257,1
,,,,,,,,,,,,,,,,,999,2020-07-26_14h05.12.032,lexical_decision_task_MP,2020.1.3,Win32,60,,0,0.4064,-0.284,1,0,0,0.981345,button_right,0.981345,1,,,,,,238,WORD,UN,33,behalf,FLOWER,l,,,,,,,0.4064,-0.284,1,0,0,,0,34,34,177,1
,,,,,,,,,,,,,,,,,999,2020-07-26_14h05.12.032,lexical_decision_task_MP,2020.1.3,Win32,60,,0,0.4192,-0.1896,1,0,0,1.49821,button_right,1.49821,1,,,,,,124,WORD,"ID",50,blouse,BLOUSE,l,,,,,,,0.3344,-0.3656,1,0,0,,0,35,35,63,1
,,,,,,,,,,,,,,,,,999,2020-07-26_14h05.12.032,lexical_decision_task_MP,2020.1.3,Win32,60,,0,0.5024,-0.2056,1,0,0,1.430895,button_right,1.430895,1,,,,,,97,WORD,"ID",33,client,CLIENT,l,,,,,,,0.5024,-0.2056,1,0,0,,0,36,36,36,1
,,,,,,,,,,,,,,,,,999,2020-07-26_14h05.12.032,lexical_decision_task_MP,2020.1.3,Win32,60,,0,0.3216,-0.2664,1,0,0,0.79882,button_right,0.79882,1,,,,,,8,WORD,UN,50,hustle,ABRUPT,l,,,,,,,0.3216,-0.2664,1,0,0,,0,37,37,187,1
,,,,,,,,,,,,,,,,,999,2020-07-26_14h05.12.032,lexical_decision_task_MP,2020.1.3,Win32,60,,0,-0.3904,-0.2888,1,0,0,0.91475,button_left,0.91475,1,,,,,,330,NW,"ID",33,kensom,KENSOM,a,,,,,,,-0.3904,-0.2888,1,0,0,,0,38,38,269,1
,,,,,,,,,,,,,,,,,999,2020-07-26_14h05.12.032,lexical_decision_task_MP,2020.1.3,Win32,60,,0,0.3296,-0.3096,1,0,0,1.414535,button_right,1.414535,1,,,,,,165,WORD,"ID",50,invest,INVEST,l,,,,,,,0.3296,-0.3096,1,0,0,,0,39,39,104,1
,,,,,,,,,,,,,,,,,999,2020-07-26_14h05.12.032,lexical_decision_task_MP,2020.1.3,Win32,60,,0,0.36,-0.3224,1,0,0,0.74748,button_right,0.74748,1,,,,,,141,WORD,"ID",50,orphan,ORPHAN,l,,,,,,,0.36,-0.3224,1,0,0,,0,40,40,80,1
,,,,,,,,,,,,,,,,,999,2020-07-26_14h05.12.032,lexical_decision_task_MP,2020.1.3,Win32,60,,0,-0.3024,-0.2984,1,0,0,0.81487,button_left,0.81487,1,,,,,,399,NW,"ID",50,fouret,FOURET,a,,,,,,,-0.3024,-0.2984,1,0,0,,0,41,41,338,1
,,,,,,,,,,,,,,,,,999,2020-07-26_14h05.12.032,lexical_decision_task_MP,2020.1.3,Win32,60,,0,-0.2976,-0.3048,1,0,0,1.298375,button_left,1.298375,1,,,,,,305,NW,"ID",33,forgle,FORGLE,a,,,,,,,-0.2976,-0.3048,1,0,0,,0,42,42,244,1
,,,,,,,,,,,,,,,,,999,2020-07-26_14h05.12.032,lexical_decision_task_MP,2020.1.3,Win32,60,,0,-0.3248,-0.324,1,0,0,0.96515,button_left,0.96515,1,,,,,,338,NW,"ID",33,wreash,WREASH,a,,,,,,,-0.3248,-0.324,1,0,0,,0,43,43,277,1
,,,,,,,,,,,,,,,,,999,2020-07-26_14h05.12.032,lexical_decision_task_MP,2020.1.3,Win32,60,,0,0.3552,-0.34,1,0,0,1.71496,button_right,1.71496,1,,,,,,110,WORD,"ID",33,polite,POLITE,l,,,,,,,0.3552,-0.34,1,0,0,,0,44,44,49,1
,,,,,,,,,,,,,,,,,999,2020-07-26_14h05.12.032,lexical_decision_task_MP,2020.1.3,Win32,60,,0,0.3264,-0.3176,1,0,0,0.965275,button_right,0.965275,1,,,,,,182,WORD,UN,33,absent,WINTER,l,,,,,,,0.3264,-0.3176,1,0,0,,0,45,45,121,1
,,,,,,,,,,,,,,,,,999,2020-07-26_14h05.12.032,lexical_decision_task_MP,2020.1.3,Win32,60,,0,-0.3056,-0.3192,1,0,0,1.031275,button_left,1.031275,1,,,,,,380,NW,"ID",50,cavory,CAVORY,a,,,,,,,-0.3056,-0.3192,1,0,0,,0,46,46,319,1
,,,,,,,,,,,,,,,,,999,2020-07-26_14h05.12.032,lexical_decision_task_MP,2020.1.3,Win32,60,,0,-0.2784,-0.3176,1,0,0,0.96567,button_left,0.96567,1,,,,,,469,NW,UN,33,crudio,PADIFS,a,,,,,,,-0.2784,-0.3176,1,0,0,,0,47,47,408,1
,,,,,,,,,,,,,,,,,999,2020-07-26_14h05.12.032,lexical_decision_task_MP,2020.1.3,Win32,60,,0,-0.216,-0.3496,1,0,0,0.9151,button_left,0.9151,1,,,,,,293,NW,UN,50,inhort,SWANCE,a,,,,,,,-0.216,-0.3496,1,0,0,,0,48,48,472,1
,,,,,,,,,,,,,,,,,999,2020-07-26_14h05.12.032,lexical_decision_task_MP,2020.1.3,Win32,60,,0,0.5088,-0.2968,1,0,0,0.86298,button_right,0.86298,1,,,,,,63,WORD,"ID",33,launch,LAUNCH,l,,,,,,,0.5088,-0.2968,1,0,0,,0,49,49,2,1
,,,,,,,,,,,,,,,,,999,2020-07-26_14h05.12.032,lexical_decision_task_MP,2020.1.3,Win32,60,,0,-0.2256,-0.2664,1,0,0,0.964485,button_left,0.964485,1,,,,,,345,NW,"ID",33,absend,ABSEND,a,,,,,,,-0.2256,-0.2664,1,0,0,,0,50,50,284,1
,,,,,,,,,,,,,,,,,999,2020-07-26_14h05.12.032,lexical_decision_task_MP,2020.1.3,Win32,60,,0,-0.352,-0.276,1,0,0,1.01475,button_left,1.01475,1,,,,,,259,NW,UN,50,unject,SOUDAL,a,,,,,,,-0.352,-0.276,1,0,0,,0,51,51,438,1
,,,,,,,,,,,,,,,,,999,2020-07-26_14h05.12.032,lexical_decision_task_MP,2020.1.3,Win32,60,,0,-0.4512,-0.308,1,0,0,0.93064,button_left,0.93064,1,,,,,,296,NW,UN,50,fertic,BEINCH,a,,,,,,,-0.4512,-0.308,1,0,0,,0,52,52,475,1
,,,,,,,,,,,,,,,,,999,2020-07-26_14h05.12.032,lexical_decision_task_MP,2020.1.3,Win32,60,,0,0.4016,-0.2888,1,0,0,1.41461,button_right,1.41461,1,,,,,,133,WORD,"ID",50,chrome,CHROME,l,,,,,,,0.4016,-0.2888,1,0,0,,0,53,53,72,1
,,,,,,,,,,,,,,,,,999,2020-07-26_14h05.12.032,lexical_decision_task_MP,2020.1.3,Win32,60,,0,,,,,,,,1.41461,-1,,,,,,478,NW,UN,33,pebric,ACRISE,a,,,,,,,-0.3072,-0.26,0,0,0,,0,54,54,417,1
