instr_done_keyboard.keys,instr_done_keyboard.rt,instr_done_touch.x,instr_done_touch.y,instr_done_touch.leftButton,instr_done_touch.midButton,instr_done_touch.rightButton,instruction_pages.thisRepN,instruction_pages.thisTrialN,instruction_pages.thisN,instruction_pages.thisIndex,instruction_pages.ran,pageN,phase,instruct_text,has_image,instruct_image,participant,date,expName,psychopyVersion,OS,frameRate,response.keys,response.corr,touch_resp.x,touch_resp.y,touch_resp.leftButton,touch_resp.midButton,touch_resp.rightButton,touch_resp.time,touch_resp.clicked_name,rt,corr,practice_trials.thisRepN,practice_trials.thisTrialN,practice_trials.thisN,practice_trials.thisIndex,practice_trials.ran,TrialID,StimulusType,Condition,PrimeDuration,Prime,Target,corrAns,instr_done_touch.clicked_name,end_of_practice_trials_pages.thisRepN,end_of_practice_trials_pages.thisTrialN,end_of_practice_trials_pages.thisN,end_of_practice_trials_pages.thisIndex,end_of_practice_trials_pages.ran,break_done_touch.x,break_done_touch.y,break_done_touch.leftButton,break_done_touch.midButton,break_done_touch.rightButton,break_done_keyboard.keys,trials.thisRepN,trials.thisTrialN,trials.thisN,trials.thisIndex,trials.ran,break_done_touch.clicked_name
space,20.41394,0.102777793,-0.401851865,0,0,0,0,0,0,0,1,1,instructions,"INSTRUCTIONS
At the start of each trial, look at the hash marks (######) in the center of the screen. After a moment, a string of letters will appear. Your task is to indicate if the letter string forms a word or not (i.e., if it is a nonword). For example, AUTHOR is a word while AUTHON is a nonword.

Press the space bar or touch the button below to continue.",0,,999,2020-07-23_20h36.44.848,lexical_decision_task_MP,2020.1.3,Win32,60,,,,,,,,,,,,,,,,,,,,,,,,,,,,,,,,,,,,,,,,,
space,10.295745,0.102777793,-0.401851865,0,0,0,0,1,1,1,1,2,instructions,"If your device has a keyboard, press the 'Z' key for nonwords and the 'M' key for words.





Press the space bar or touch the button below to continue.",1,keyboard-example.gif,999,2020-07-23_20h36.44.848,lexical_decision_task_MP,2020.1.3,Win32,60,,,,,,,,,,,,,,,,,,,,,,,,,,,,,,,,,,,,,,,,,
space,4.093205,0.102777793,-0.401851865,0,0,0,0,2,2,2,1,3,instructions,"If you are using a touchscreen only device, use the buttons on the screen. Do not use the mouse as this will slow down your response. 




Press the space bar or touch the button below to continue.",1,touchscreen-example.gif,999,2020-07-23_20h36.44.848,lexical_decision_task_MP,2020.1.3,Win32,60,,,,,,,,,,,,,,,,,,,,,,,,,,,,,,,,,,,,,,,,,
space,13.47318,0.102777793,-0.401851865,0,0,0,0,3,3,3,1,4,instructions,"It is very important that you respond as quickly and accurately as possible, as each letter string will only be on the screen for two seconds. If you do not respond within this time, the message 'Too slow!' will be displayed and the experiment will progress to the next letter string. The first 20 trials will be practice trials and you will receive feedback on your answers. 

Press the space bar or touch the button below to start the practice trials.",0,,999,2020-07-23_20h36.44.848,lexical_decision_task_MP,2020.1.3,Win32,60,,,,,,,,,,,,,,,,,,,,,,,,,,,,,,,,,,,,,,,,,
,,,,,,,,,,,,,,,,,999,2020-07-23_20h36.44.848,lexical_decision_task_MP,2020.1.3,Win32,60,,0,,,,,,,,,-1,0,0,0,3,1,1004,WORD,"ID",50,matrix,MATRIX,l,,,,,,,,,,,,,,,,,,
,,,,,,,,,,,,,,,,,999,2020-07-23_20h36.44.848,lexical_decision_task_MP,2020.1.3,Win32,60,,0,,,,,,,,,-1,0,1,1,1,1,1002,WORD,"ID",33,adjust,ADJUST,l,,,,,,,,,,,,,,,,,,
,,,,,,,,,,,,,,,,,999,2020-07-23_20h36.44.848,lexical_decision_task_MP,2020.1.3,Win32,60,,0,,,,,,,,,-1,0,2,2,13,1,1014,NW,UN,33,winfer,ROUPET,a,,,,,,,,,,,,,,,,,,
,,,,,,,,,,,,,,,,,999,2020-07-23_20h36.44.848,lexical_decision_task_MP,2020.1.3,Win32,60,,0,-0.321296288,-0.270370438,1,0,0,1.71527,button_left,1.71527,1,0,3,3,10,1,1011,NW,"ID",50,inlade,INLADE,a,,,,,,,,,,,,,,,,,,
,,,,,,,,,,,,,,,,,999,2020-07-23_20h36.44.848,lexical_decision_task_MP,2020.1.3,Win32,60,,0,-0.326851843,-0.27314816,1,0,0,0.99904,button_left,0.99904,1,0,4,4,8,1,1009,NW,"ID",33,aslert,ASLERT,a,,,,,,,,,,,,,,,,,,
,,,,,,,,,,,,,,,,,999,2020-07-23_20h36.44.848,lexical_decision_task_MP,2020.1.3,Win32,60,,0,0.365740759,-0.343518531,1,0,0,0.915355,button_right,0.915355,1,0,5,5,4,1,1005,WORD,UN,33,abound,SQUEAK,l,,,,,,,,,,,,,,,,,,
,,,,,,,,,,,,,,,,,999,2020-07-23_20h36.44.848,lexical_decision_task_MP,2020.1.3,Win32,60,,0,0.544444466,-0.311111123,1,0,0,0.881705,button_right,0.881705,1,0,6,6,2,1,1003,WORD,"ID",50,almond,ALMOND,l,,,,,,,,,,,,,,,,,,
,,,,,,,,,,,,,,,,,999,2020-07-23_20h36.44.848,lexical_decision_task_MP,2020.1.3,Win32,60,,0,0.375925945,-0.279629698,1,0,0,0.697825,button_right,0.697825,1,0,7,7,5,1,1006,WORD,UN,33,frenzy,OBTAIN,l,,,,,,,,,,,,,,,,,,
,,,,,,,,,,,,,,,,,999,2020-07-23_20h36.44.848,lexical_decision_task_MP,2020.1.3,Win32,60,,0,-0.388888881,-0.2638889,1,0,0,0.981395,button_left,0.981395,1,0,8,8,11,1,1012,NW,"ID",50,rashet,RASHET,a,,,,,,,,,,,,,,,,,,
,,,,,,,,,,,,,,,,,999,2020-07-23_20h36.44.848,lexical_decision_task_MP,2020.1.3,Win32,60,,0,0.359259278,-0.283333345,1,0,0,0.69883,button_right,0.69883,1,0,9,9,6,1,1007,WORD,UN,50,tropic,ZOMBIE,l,,,,,,,,,,,,,,,,,,
,,,,,,,,,,,,,,,,,999,2020-07-23_20h36.44.848,lexical_decision_task_MP,2020.1.3,Win32,60,,0,-0.355555548,-0.266666678,1,0,0,0.847365,button_left,0.847365,1,0,10,10,9,1,1010,NW,"ID",33,fariny,FARINY,a,,,,,,,,,,,,,,,,,,
,,,,,,,,,,,,,,,,,999,2020-07-23_20h36.44.848,lexical_decision_task_MP,2020.1.3,Win32,60,,0,-0.229629563,-0.271296308,1,0,0,0.914995,button_left,0.914995,1,0,11,11,15,1,1016,NW,UN,50,mushed,WHAISE,a,,,,,,,,,,,,,,,,,,
,,,,,,,,,,,,,,,,,999,2020-07-23_20h36.44.848,lexical_decision_task_MP,2020.1.3,Win32,60,,0,0.387037056,-0.289814827,1,0,0,0.71545,button_right,0.71545,1,0,12,12,7,1,1008,WORD,UN,50,hurdle,VOLUME,l,,,,,,,,,,,,,,,,,,
,,,,,,,,,,,,,,,,,999,2020-07-23_20h36.44.848,lexical_decision_task_MP,2020.1.3,Win32,60,,0,0.393518538,-0.308333345,1,0,0,0.816,button_right,0.816,1,0,13,13,0,1,1001,WORD,"ID",33,utopia,UTOPIA,l,,,,,,,,,,,,,,,,,,
,,,,,,,,,,,,,,,,,999,2020-07-23_20h36.44.848,lexical_decision_task_MP,2020.1.3,Win32,60,,0,-0.262962954,-0.260185197,1,0,0,0.965255,button_left,0.965255,1,0,14,14,12,1,1013,NW,UN,33,adveil,SPRINY,a,,,,,,,,,,,,,,,,,,
,,,,,,,,,,,,,,,,,999,2020-07-23_20h36.44.848,lexical_decision_task_MP,2020.1.3,Win32,60,,0,-0.28425925,-0.282407419,1,0,0,0.881485,button_left,0.881485,1,0,15,15,14,1,1015,NW,UN,50,miaber,THRALE,a,,,,,,,,,,,,,,,,,,
,,0.001851922,-0.380555569,1,0,0,,,,,,1,end_of_practice,"You have completed the practice trials. During the experimental trials, you will not receive feedback, but it is very important that you respond as quickly and accurately as possible. 
Before you begin, please ensure that you are in a comfortable and quiet location and will not be disturbed for about 25 minutes, as we cannot use your data if you do not complete all the trials. 
There will be opportunities to take breaks at regular intervals during the experiment. When you are ready to start the experimental trials, please press space or touch the button below.",,,999,2020-07-23_20h36.44.848,lexical_decision_task_MP,2020.1.3,Win32,60,,,,,,,,,,,,,,,,,,,,,,,,instr_done_button,0,0,0,0,1,,,,,,,,,,,,
,,,,,,,,,,,,,,,,,999,2020-07-23_20h36.44.848,lexical_decision_task_MP,2020.1.3,Win32,60,,0,0.383333465,-0.287037049,1,0,0,0.68123,button_right,0.68123,1,,,,,,66,WORD,"ID",33,gospel,GOSPEL,l,,,,,,,0.383333465,-0.287037049,1,0,0,,0,0,0,5,1,
,,,,,,,,,,,,,,,,,999,2020-07-23_20h36.44.848,lexical_decision_task_MP,2020.1.3,Win32,60,,0,0.345370389,-0.300000012,1,0,0,0.63261,button_right,0.63261,1,,,,,,192,WORD,UN,33,object,PLAGUE,l,,,,,,,0.345370389,-0.300000012,1,0,0,,0,1,1,131,1,
,,,,,,,,,,,,,,,,,999,2020-07-23_20h36.44.848,lexical_decision_task_MP,2020.1.3,Win32,60,,0,-0.322222214,-0.277777789,1,0,0,0.73276,button_left,0.73276,1,,,,,,288,NW,UN,50,starby,YACEUP,a,,,,,,,-0.322222214,-0.277777789,1,0,0,,0,2,2,467,1,
,,,,,,,,,,,,,,,,,999,2020-07-23_20h36.44.848,lexical_decision_task_MP,2020.1.3,Win32,60,,0,0.282407425,-0.312962975,1,0,0,0.548835,button_right,0.548835,1,,,,,,79,WORD,"ID",33,theory,THEORY,l,,,,,,,0.282407425,-0.312962975,1,0,0,,0,3,3,18,1,
,,,,,,,,,,,,,,,,,999,2020-07-23_20h36.44.848,lexical_decision_task_MP,2020.1.3,Win32,60,,0,0.289814832,-0.316666735,1,0,0,0.59908,button_right,0.59908,1,,,,,,103,WORD,"ID",33,bounce,BOUNCE,l,,,,,,,0.289814832,-0.316666735,1,0,0,,0,4,4,42,1,
,,,,,,,,,,,,,,,,,999,2020-07-23_20h36.44.848,lexical_decision_task_MP,2020.1.3,Win32,60,,0,-0.28888888,-0.297222234,1,0,0,0.68237,button_left,0.68237,1,,,,,,479,NW,UN,33,crible,LOBUSH,a,,,,,,,-0.28888888,-0.297222234,1,0,0,,0,5,5,418,1,
,,,,,,,,,,,,,,,,,999,2020-07-23_20h36.44.848,lexical_decision_task_MP,2020.1.3,Win32,60,,0,-0.231481472,-0.293518587,1,0,0,0.948735,button_left,0.948735,1,,,,,,467,NW,UN,33,wictor,GORBIE,a,,,,,,,-0.231481472,-0.293518587,1,0,0,,0,6,6,406,1,
,,,,,,,,,,,,,,,,,999,2020-07-23_20h36.44.848,lexical_decision_task_MP,2020.1.3,Win32,60,,0,-0.454629623,-0.278703715,1,0,0,0.832135,button_left,0.832135,1,,,,,,363,NW,"ID",50,breali,BREALI,a,,,,,,,-0.454629623,-0.278703715,1,0,0,,0,7,7,302,1,
,,,,,,,,,,,,,,,,,999,2020-07-23_20h36.44.848,lexical_decision_task_MP,2020.1.3,Win32,60,,0,-0.296296287,-0.270370438,1,0,0,0.899,button_left,0.899,1,,,,,,372,NW,"ID",50,ramily,RAMILY,a,,,,,,,-0.296296287,-0.270370438,1,0,0,,0,8,8,311,1,
,,,,,,,,,,,,,,,,,999,2020-07-23_20h36.44.848,lexical_decision_task_MP,2020.1.3,Win32,60,,0,0.414814834,-0.297222234,1,0,0,0.665545,button_right,0.665545,1,,,,,,38,WORD,UN,50,insect,POWDER,l,,,,,,,0.414814834,-0.297222234,1,0,0,,0,9,9,217,1,
,,,,,,,,,,,,,,,,,999,2020-07-23_20h36.44.848,lexical_decision_task_MP,2020.1.3,Win32,60,,0,0.312962981,-0.296296308,1,0,0,0.566405,button_right,0.566405,1,,,,,,12,WORD,UN,50,strive,ORANGE,l,,,,,,,0.312962981,-0.296296308,1,0,0,,0,10,10,191,1,
,,,,,,,,,,,,,,,,,999,2020-07-23_20h36.44.848,lexical_decision_task_MP,2020.1.3,Win32,60,,0,-0.234259193,-0.285185197,1,0,0,0.798975,button_left,0.798975,1,,,,,,397,NW,"ID",50,camble,CAMBLE,a,,,,,,,-0.234259193,-0.285185197,1,0,0,,0,11,11,336,1,
,,,,,,,,,,,,,,,,,999,2020-07-23_20h36.44.848,lexical_decision_task_MP,2020.1.3,Win32,60,,0,-0.312962954,-0.293518587,1,0,0,0.78254,button_left,0.78254,1,,,,,,465,NW,UN,33,bafent,WHIVEX,a,,,,,,,-0.312962954,-0.293518587,1,0,0,,0,12,12,404,1,
,,,,,,,,,,,,,,,,,999,2020-07-23_20h36.44.848,lexical_decision_task_MP,2020.1.3,Win32,60,,0,0.332407539,-0.279629698,1,0,0,0.54888,button_right,0.54888,1,,,,,,70,WORD,"ID",33,square,SQUARE,l,,,,,,,0.332407539,-0.279629698,1,0,0,,0,13,13,9,1,
,,,,,,,,,,,,,,,,,999,2020-07-23_20h36.44.848,lexical_decision_task_MP,2020.1.3,Win32,60,,0,-0.246296287,-0.265740809,1,0,0,0.715645,button_left,0.715645,1,,,,,,276,NW,UN,50,petain,YARMON,a,,,,,,,-0.246296287,-0.265740809,1,0,0,,0,14,14,455,1,
,,,,,,,,,,,,,,,,,999,2020-07-23_20h36.44.848,lexical_decision_task_MP,2020.1.3,Win32,60,,0,0.231481498,-0.265740809,1,0,0,0.71639,button_right,0.71639,1,,,,,,127,WORD,"ID",50,castle,CASTLE,l,,,,,,,0.231481498,-0.265740809,1,0,0,,0,15,15,66,1,
,,,,,,,,,,,,,,,,,999,2020-07-23_20h36.44.848,lexical_decision_task_MP,2020.1.3,Win32,60,,0,0.375000019,-0.266666678,1,0,0,0.66556,button_right,0.66556,1,,,,,,153,WORD,"ID",50,behold,BEHOLD,l,,,,,,,0.375000019,-0.266666678,1,0,0,,0,16,16,92,1,
,,,,,,,,,,,,,,,,,999,2020-07-23_20h36.44.848,lexical_decision_task_MP,2020.1.3,Win32,60,,0,-0.187962896,-0.252777789,1,0,0,0.74893,button_left,0.74893,1,,,,,,356,NW,"ID",33,othnis,OTHNIS,a,,,,,,,-0.247222213,-0.252777789,1,0,0,,0,17,17,295,1,
,,,,,,,,,,,,,,,,,999,2020-07-23_20h36.44.848,lexical_decision_task_MP,2020.1.3,Win32,60,,0,-0.268518509,-0.266666678,1,0,0,0.83233,button_left,0.83233,1,,,,,,387,NW,"ID",50,gronce,GRONCE,a,,,,,,,-0.268518509,-0.266666678,1,0,0,,0,18,18,326,1,
,,,,,,,,,,,,,,,,,999,2020-07-23_20h36.44.848,lexical_decision_task_MP,2020.1.3,Win32,60,,0,-0.328703695,-0.260185197,1,0,0,0.74932,button_left,0.74932,1,,,,,,458,NW,UN,33,hocite,BARCET,a,,,,,,,-0.328703695,-0.260185197,1,0,0,,0,19,19,397,1,
,,,,,,,,,,,,,,,,,999,2020-07-23_20h36.44.848,lexical_decision_task_MP,2020.1.3,Win32,60,,0,0.171296312,-0.250925937,1,0,0,0.833005,button_right,0.833005,1,,,,,,47,WORD,UN,50,walnut,INCOME,l,,,,,,,0.291666684,-0.25185192,1,0,0,,0,20,20,226,1,
,,,,,,,,,,,,,,,,,999,2020-07-23_20h36.44.848,lexical_decision_task_MP,2020.1.3,Win32,60,,0,0.411111244,-0.255555567,1,0,0,0.61619,button_right,0.61619,1,,,,,,81,WORD,"ID",33,friend,FRIEND,l,,,,,,,0.411111244,-0.255555567,1,0,0,,0,21,21,20,1,
,,,,,,,,,,,,,,,,,999,2020-07-23_20h36.44.848,lexical_decision_task_MP,2020.1.3,Win32,60,,0,0.274074091,-0.255555567,1,0,0,0.78232,button_right,0.78232,1,,,,,,25,WORD,UN,50,sprint,DOMAIN,l,,,,,,,0.274074091,-0.255555567,1,0,0,,0,22,22,204,1,
,,,,,,,,,,,,,,,,,999,2020-07-23_20h36.44.848,lexical_decision_task_MP,2020.1.3,Win32,60,,0,-0.255555546,-0.253703715,1,0,0,0.74915,button_left,0.74915,1,,,,,,446,NW,UN,33,gircue,RUNAMO,a,,,,,,,-0.255555546,-0.253703715,1,0,0,,0,23,23,385,1,
,,,,,,,,,,,,,,,,,999,2020-07-23_20h36.44.848,lexical_decision_task_MP,2020.1.3,Win32,60,,0,0.422222242,-0.255555567,1,0,0,0.632555,button_right,0.632555,1,,,,,,190,WORD,UN,33,stable,BACKUP,l,,,,,,,0.422222242,-0.255555567,1,0,0,,0,24,24,129,1,
,,,,,,,,,,,,,,,,,999,2020-07-23_20h36.44.848,lexical_decision_task_MP,2020.1.3,Win32,60,,0,-0.435185178,-0.24722229,1,0,0,0.74928,button_left,0.74928,1,,,,,,381,NW,"ID",50,huniek,HUNIEK,a,,,,,,,-0.435185178,-0.24722229,1,0,0,,0,25,25,320,1,
,,,,,,,,,,,,,,,,,999,2020-07-23_20h36.44.848,lexical_decision_task_MP,2020.1.3,Win32,60,,0,0.375925945,-0.252777789,1,0,0,0.6329,button_right,0.6329,1,,,,,,188,WORD,UN,33,censor,SOCIAL,l,,,,,,,0.375925945,-0.252777789,1,0,0,,0,26,26,127,1,
,,,,,,,,,,,,,,,,,999,2020-07-23_20h36.44.848,lexical_decision_task_MP,2020.1.3,Win32,60,,0,-0.306481473,-0.248148159,1,0,0,0.6653,button_left,0.6653,1,,,,,,410,NW,"ID",50,tunory,TUNORY,a,,,,,,,-0.306481473,-0.248148159,1,0,0,,0,27,27,349,1,
,,,,,,,,,,,,,,,,,999,2020-07-23_20h36.44.848,lexical_decision_task_MP,2020.1.3,Win32,60,,0,0.404629649,-0.297222234,1,0,0,0.59906,button_right,0.59906,1,,,,,,147,WORD,"ID",50,garlic,GARLIC,l,,,,,,,0.404629649,-0.297222234,1,0,0,,0,28,28,86,1,
,,,,,,,,,,,,,,,,,999,2020-07-23_20h36.44.848,lexical_decision_task_MP,2020.1.3,Win32,60,,0,0.341666798,-0.297222234,1,0,0,0.632685,button_right,0.632685,1,,,,,,18,WORD,UN,50,patron,HUMBLE,l,,,,,,,0.341666798,-0.297222234,1,0,0,,0,29,29,197,1,
,,,,,,,,,,,,,,,,,999,2020-07-23_20h36.44.848,lexical_decision_task_MP,2020.1.3,Win32,60,,0,-0.31388888,-0.290740753,1,0,0,0.63241,button_left,0.63241,1,,,,,,463,NW,UN,33,chaite,KISPEL,a,,,,,,,-0.31388888,-0.290740753,1,0,0,,0,30,30,402,1,
,,,,,,,,,,,,,,,,,999,2020-07-23_20h36.44.848,lexical_decision_task_MP,2020.1.3,Win32,60,,0,0.429629762,-0.290740753,1,0,0,0.58263,button_right,0.58263,1,,,,,,23,WORD,UN,50,praise,WEALTH,l,,,,,,,0.429629762,-0.290740753,1,0,0,,0,31,31,202,1,
,,,,,,,,,,,,,,,,,999,2020-07-23_20h36.44.848,lexical_decision_task_MP,2020.1.3,Win32,60,,0,-0.410185178,-0.245370381,1,0,0,0.78208,button_left,0.78208,0,,,,,,218,WORD,UN,33,bucket,SHRINK,l,,,,,,,-0.410185178,-0.245370381,1,0,0,,0,32,32,157,1,
,,,,,,,,,,,,,,,,,999,2020-07-23_20h36.44.848,lexical_decision_task_MP,2020.1.3,Win32,60,,0,-0.419444437,-0.250000011,1,0,0,0.81534,button_left,0.81534,1,,,,,,470,NW,UN,33,nobest,CRUDIO,a,,,,,,,-0.419444437,-0.250000011,1,0,0,,0,33,33,409,1,
,,,,,,,,,,,,,,,,,999,2020-07-23_20h36.44.848,lexical_decision_task_MP,2020.1.3,Win32,60,,0,-0.271296231,-0.267592604,1,0,0,0.66405,button_left,0.66405,1,,,,,,480,NW,UN,33,knisma,ROBULY,a,,,,,,,-0.271296231,-0.267592604,1,0,0,,0,34,34,419,1,
,,,,,,,,,,,,,,,,,999,2020-07-23_20h36.44.848,lexical_decision_task_MP,2020.1.3,Win32,60,,0,0.245370387,-0.260185197,1,0,0,0.66522,button_right,0.66522,1,,,,,,132,WORD,"ID",50,strong,STRONG,l,,,,,,,0.245370387,-0.260185197,1,0,0,,0,35,35,71,1,
,,,,,,,,,,,,,,,,,999,2020-07-23_20h36.44.848,lexical_decision_task_MP,2020.1.3,Win32,60,,0,0.350926057,-0.260185197,1,0,0,0.61586,button_right,0.61586,1,,,,,,43,WORD,UN,50,foster,TONGUE,l,,,,,,,0.350926057,-0.260185197,1,0,0,,0,36,36,222,1,
,,,,,,,,,,,,,,,,,999,2020-07-23_20h36.44.848,lexical_decision_task_MP,2020.1.3,Win32,60,,0,0.429629762,-0.274074086,1,0,0,0.68203,button_right,0.68203,1,,,,,,146,WORD,"ID",50,couple,COUPLE,l,,,,,,,0.429629762,-0.274074086,1,0,0,,0,37,37,85,1,
,,,,,,,,,,,,,,,,,999,2020-07-23_20h36.44.848,lexical_decision_task_MP,2020.1.3,Win32,60,,0,-0.299074065,-0.265740809,1,0,0,0.849145,button_left,0.849145,1,,,,,,293,NW,UN,50,inhort,SWANCE,a,,,,,,,-0.299074065,-0.265740809,1,0,0,,0,38,38,472,1,
,,,,,,,,,,,,,,,,,999,2020-07-23_20h36.44.848,lexical_decision_task_MP,2020.1.3,Win32,60,,0,0.403703723,-0.284259327,1,0,0,0.931885,button_right,0.931885,1,,,,,,139,WORD,"ID",50,debris,DEBRIS,l,,,,,,,0.403703723,-0.284259327,1,0,0,,0,39,39,78,1,
,,,,,,,,,,,,,,,,,999,2020-07-23_20h36.44.848,lexical_decision_task_MP,2020.1.3,Win32,60,,0,0.359259278,-0.283333345,1,0,0,0.732305,button_right,0.732305,0,,,,,,303,NW,"ID",33,fiream,FIREAM,a,,,,,,,0.359259278,-0.283333345,1,0,0,,0,40,40,242,1,
,,,,,,,,,,,,,,,,,999,2020-07-23_20h36.44.848,lexical_decision_task_MP,2020.1.3,Win32,60,,0,-0.291666658,-0.275925937,1,0,0,0.76634,button_left,0.76634,1,,,,,,253,NW,UN,50,varosh,RESAIT,a,,,,,,,-0.291666658,-0.275925937,1,0,0,,0,41,41,432,1,
,,,,,,,,,,,,,,,,,999,2020-07-23_20h36.44.848,lexical_decision_task_MP,2020.1.3,Win32,60,,0,-0.256481472,-0.278703715,1,0,0,0.748445,button_left,0.748445,1,,,,,,430,NW,UN,33,chrums,CAROEY,a,,,,,,,-0.256481472,-0.278703715,1,0,0,,0,42,42,369,1,
,,,,,,,,,,,,,,,,,999,2020-07-23_20h36.44.848,lexical_decision_task_MP,2020.1.3,Win32,60,,0,-0.384259252,-0.280555567,1,0,0,0.81583,button_left,0.81583,1,,,,,,400,NW,"ID",50,wearox,WEAROX,a,,,,,,,-0.384259252,-0.280555567,1,0,0,,0,43,43,339,1,
,,,,,,,,,,,,,,,,,999,2020-07-23_20h36.44.848,lexical_decision_task_MP,2020.1.3,Win32,60,,0,-0.34351851,-0.283333345,1,0,0,0.765875,button_left,0.765875,1,,,,,,252,NW,UN,50,resait,STAPOD,a,,,,,,,-0.34351851,-0.283333345,1,0,0,,0,44,44,431,1,
,,,,,,,,,,,,,,,,,999,2020-07-23_20h36.44.848,lexical_decision_task_MP,2020.1.3,Win32,60,,0,0.380555574,-0.272222234,1,0,0,0.66617,button_right,0.66617,1,,,,,,193,WORD,UN,33,mildew,OBJECT,l,,,,,,,0.380555574,-0.272222234,1,0,0,,0,45,45,132,1,
,,,,,,,,,,,,,,,,,999,2020-07-23_20h36.44.848,lexical_decision_task_MP,2020.1.3,Win32,60,,0,0.293518536,-0.275925937,1,0,0,0.88277,button_right,0.88277,1,,,,,,207,WORD,UN,33,hockey,WREATH,l,,,,,,,0.293518536,-0.275925937,1,0,0,,0,46,46,146,1,
,,,,,,,,,,,,,,,,,999,2020-07-23_20h36.44.848,lexical_decision_task_MP,2020.1.3,Win32,60,,0,0.377777797,-0.290740753,1,0,0,0.68213,button_right,0.68213,1,,,,,,37,WORD,UN,50,powder,INSULT,l,,,,,,,0.377777797,-0.290740753,1,0,0,,0,47,47,216,1,
,,,,,,,,,,,,,,,,,999,2020-07-23_20h36.44.848,lexical_decision_task_MP,2020.1.3,Win32,60,,0,-0.501851846,-0.2638889,1,0,0,0.714895,button_left,0.714895,1,,,,,,302,NW,"ID",33,miluer,MILUER,a,,,,,,,-0.501851846,-0.2638889,1,0,0,,0,48,48,241,1,
,,,,,,,,,,,,,,,,,999,2020-07-23_20h36.44.848,lexical_decision_task_MP,2020.1.3,Win32,60,,0,0.325925944,-0.267592604,1,0,0,0.631845,button_right,0.631845,1,,,,,,71,WORD,"ID",33,garden,GARDEN,l,,,,,,,0.325925944,-0.267592604,1,0,0,,0,49,49,10,1,
,,,,,,,,,,,,,,,,,999,2020-07-23_20h36.44.848,lexical_decision_task_MP,2020.1.3,Win32,60,,0,0.362037056,-0.27314816,1,0,0,0.665145,button_right,0.665145,1,,,,,,74,WORD,"ID",33,plaque,PLAQUE,l,,,,,,,0.362037056,-0.27314816,1,0,0,,0,50,50,13,1,
,,,,,,,,,,,,,,,,,999,2020-07-23_20h36.44.848,lexical_decision_task_MP,2020.1.3,Win32,60,,0,-0.324999992,-0.262962974,1,0,0,0.732155,button_left,0.732155,1,,,,,,328,NW,"ID",33,broake,BROAKE,a,,,,,,,-0.324999992,-0.262962974,1,0,0,,0,51,51,267,1,
,,,,,,,,,,,,,,,,,999,2020-07-23_20h36.44.848,lexical_decision_task_MP,2020.1.3,Win32,60,,0,-0.269444435,-0.26851853,1,0,0,0.78302,button_left,0.78302,1,,,,,,361,NW,"ID",50,pauche,PAUCHE,a,,,,,,,-0.269444435,-0.26851853,1,0,0,,0,52,52,300,1,
,,,,,,,,,,,,,,,,,999,2020-07-23_20h36.44.848,lexical_decision_task_MP,2020.1.3,Win32,60,,0,-0.328703695,-0.26851853,1,0,0,0.76525,button_left,0.76525,1,,,,,,362,NW,"ID",50,tireau,TIREAU,a,,,,,,,-0.328703695,-0.26851853,1,0,0,,0,53,53,301,1,
,,,,,,,,,,,,,,,,,999,2020-07-23_20h36.44.848,lexical_decision_task_MP,2020.1.3,Win32,60,,0,0.503703837,-0.277777789,1,0,0,0.69949,button_right,0.69949,1,,,,,,109,WORD,"ID",33,wonder,WONDER,l,,,,,,,0.503703837,-0.277777789,1,0,0,,0,54,54,48,1,
,,,,,,,,,,,,,,,,,999,2020-07-23_20h36.44.848,lexical_decision_task_MP,2020.1.3,Win32,60,,0,0.317592611,-0.265740809,1,0,0,0.665925,button_right,0.665925,1,,,,,,151,WORD,"ID",50,mystic,MYSTIC,l,,,,,,,0.317592611,-0.265740809,1,0,0,,0,55,55,90,1,
,,,,,,,,,,,,,,,,,999,2020-07-23_20h36.44.848,lexical_decision_task_MP,2020.1.3,Win32,60,,0,0.39537039,-0.267592604,1,0,0,0.731275,button_right,0.731275,1,,,,,,93,WORD,"ID",33,public,PUBLIC,l,,,,,,,0.39537039,-0.267592604,1,0,0,,0,56,56,32,1,
,,,,,,,,,,,,,,,,,999,2020-07-23_20h36.44.848,lexical_decision_task_MP,2020.1.3,Win32,60,,0,0.412962982,-0.272222234,1,0,0,0.732725,button_right,0.732725,1,,,,,,86,WORD,"ID",33,rodent,RODENT,l,,,,,,,0.412962982,-0.272222234,1,0,0,,0,57,57,25,1,
,,,,,,,,,,,,,,,,,999,2020-07-23_20h36.44.848,lexical_decision_task_MP,2020.1.3,Win32,60,,0,-0.291666658,-0.270370438,1,0,0,0.88207,button_left,0.88207,1,,,,,,391,NW,"ID",50,theldy,THELDY,a,,,,,,,-0.291666658,-0.270370438,1,0,0,,0,58,58,330,1,
,,,,,,,,,,,,,,,,,999,2020-07-23_20h36.44.848,lexical_decision_task_MP,2020.1.3,Win32,60,,0,0.590740763,-0.291666678,1,0,0,0.882595,button_right,0.882595,1,,,,,,107,WORD,"ID",33,slogan,SLOGAN,l,,,,,,,0.590740763,-0.291666678,1,0,0,,0,59,59,46,1,
,,,,,,,,,,,,,,,,,999,2020-07-23_20h36.44.848,lexical_decision_task_MP,2020.1.3,Win32,60,,0,0.399074093,-0.261111179,1,0,0,0.79898,button_right,0.79898,1,,,,,,76,WORD,"ID",33,exotic,EXOTIC,l,,,,,,,0.399074093,-0.261111179,1,0,0,,0,60,60,15,1,
,,,,,,,,,,,,,,,,,999,2020-07-23_20h36.44.848,lexical_decision_task_MP,2020.1.3,Win32,60,,0,-0.302777769,-0.267592604,1,0,0,0.748295,button_left,0.748295,1,,,,,,359,NW,"ID",33,fonver,FONVER,a,,,,,,,-0.302777769,-0.267592604,1,0,0,,0,61,61,298,1,
,,,,,,,,,,,,,,,,,999,2020-07-23_20h36.44.848,lexical_decision_task_MP,2020.1.3,Win32,60,,0,0.359259278,-0.283333345,1,0,0,0.749515,button_right,0.749515,1,,,,,,138,WORD,"ID",50,melody,MELODY,l,,,,,,,0.359259278,-0.283333345,1,0,0,,0,62,62,77,1,
,,,,,,,,,,,,,,,,,999,2020-07-23_20h36.44.848,lexical_decision_task_MP,2020.1.3,Win32,60,,0,-0.327777769,-0.269444456,1,0,0,0.898895,button_left,0.898895,1,,,,,,281,NW,UN,50,porlex,MELATY,a,,,,,,,-0.327777769,-0.269444456,1,0,0,,0,63,63,460,1,
,,,,,,,,,,,,,,,,,999,2020-07-23_20h36.44.848,lexical_decision_task_MP,2020.1.3,Win32,60,,0,-0.255555546,-0.26851853,1,0,0,0.764895,button_left,0.764895,1,,,,,,300,NW,UN,50,smenco,YARION,a,,,,,,,-0.255555546,-0.26851853,1,0,0,,0,64,64,479,1,
,,,,,,,,,,,,,,,,,999,2020-07-23_20h36.44.848,lexical_decision_task_MP,2020.1.3,Win32,60,,0,-0.282407398,-0.276851863,1,0,0,0.865495,button_left,0.865495,0,,,,,,213,WORD,UN,33,intake,SQUEAL,l,,,,,,,-0.282407398,-0.276851863,1,0,0,,0,65,65,152,1,
,,,,,,,,,,,,,,,,,999,2020-07-23_20h36.44.848,lexical_decision_task_MP,2020.1.3,Win32,60,,0,0.422222242,-0.284259327,1,0,0,0.815735,button_right,0.815735,1,,,,,,201,WORD,UN,33,factor,ADMIRE,l,,,,,,,0.422222242,-0.284259327,1,0,0,,0,66,66,140,1,
,,,,,,,,,,,,,,,,,999,2020-07-23_20h36.44.848,lexical_decision_task_MP,2020.1.3,Win32,60,,0,-0.335185177,-0.270370438,1,0,0,0.832975,button_left,0.832975,1,,,,,,350,NW,"ID",33,nagurs,NAGURS,a,,,,,,,-0.335185177,-0.270370438,1,0,0,,0,67,67,289,1,
,,,,,,,,,,,,,,,,,999,2020-07-23_20h36.44.848,lexical_decision_task_MP,2020.1.3,Win32,60,,0,0.342592611,-0.265740809,1,0,0,0.663535,button_right,0.663535,1,,,,,,217,WORD,UN,33,shrink,LIQUOR,l,,,,,,,0.342592611,-0.265740809,1,0,0,,0,68,68,156,1,
,,,,,,,,,,,,,,,,,999,2020-07-23_20h36.44.848,lexical_decision_task_MP,2020.1.3,Win32,60,,0,0.312962981,-0.279629698,1,0,0,0.68281,button_right,0.68281,1,,,,,,162,WORD,"ID",50,candle,CANDLE,l,,,,,,,0.312962981,-0.279629698,1,0,0,,0,69,69,101,1,
,,,,,,,,,,,,,,,,,999,2020-07-23_20h36.44.848,lexical_decision_task_MP,2020.1.3,Win32,60,,0,0.325925944,-0.278703715,1,0,0,0.665755,button_right,0.665755,1,,,,,,148,WORD,"ID",50,custom,CUSTOM,l,,,,,,,0.325925944,-0.278703715,1,0,0,,0,70,70,87,1,
,,,,,,,,,,,,,,,,,999,2020-07-23_20h36.44.848,lexical_decision_task_MP,2020.1.3,Win32,60,,0,0.070370385,-0.278703715,1,0,0,0.548365,button_right,0.548365,1,,,,,,117,WORD,"ID",33,branch,BRANCH,l,,,,,,,0.339814833,-0.286111123,1,0,0,,0,71,71,56,1,
,,,,,,,,,,,,,,,,,999,2020-07-23_20h36.44.848,lexical_decision_task_MP,2020.1.3,Win32,60,,0,0.275925943,-0.249074085,1,0,0,0.64861,button_right,0.64861,1,,,,,,33,WORD,UN,50,jungle,BUTLER,l,,,,,,,0.275925943,-0.249074085,1,0,0,,0,72,72,212,1,
,,,,,,,,,,,,,,,,,999,2020-07-23_20h36.44.848,lexical_decision_task_MP,2020.1.3,Win32,60,,0,-0.228703694,-0.274074086,1,0,0,0.78189,button_left,0.78189,1,,,,,,412,NW,"ID",50,jiluer,JILUER,a,,,,,,,-0.228703694,-0.274074086,1,0,0,,0,73,73,351,1,
,,,,,,,,,,,,,,,,,999,2020-07-23_20h36.44.848,lexical_decision_task_MP,2020.1.3,Win32,60,,0,-0.287037028,-0.290740753,1,0,0,0.89878,button_left,0.89878,1,,,,,,401,NW,"ID",50,mustil,MUSTIL,a,,,,,,,-0.287037028,-0.290740753,1,0,0,,0,74,74,340,1,
,,,,,,,,,,,,,,,,,999,2020-07-23_20h36.44.848,lexical_decision_task_MP,2020.1.3,Win32,60,,0,0.285185203,-0.282407419,1,0,0,0.73217,button_right,0.73217,1,,,,,,92,WORD,"ID",33,strand,STRAND,l,,,,,,,0.285185203,-0.282407419,1,0,0,,0,75,75,31,1,
,,,,,,,,,,,,,,,,,999,2020-07-23_20h36.44.848,lexical_decision_task_MP,2020.1.3,Win32,60,,0,-0.4074074,-0.282407419,1,0,0,0.748695,button_left,0.748695,1,,,,,,428,NW,UN,33,funtle,TANDLY,a,,,,,,,-0.4074074,-0.282407419,1,0,0,,0,76,76,367,1,
,,,,,,,,,,,,,,,,,999,2020-07-23_20h36.44.848,lexical_decision_task_MP,2020.1.3,Win32,60,,0,0.300925944,-0.296296308,1,0,0,0.715345,button_right,0.715345,1,,,,,,2,WORD,UN,50,knight,BRIDGE,l,,,,,,,0.300925944,-0.296296308,1,0,0,,0,77,77,181,1,
,,,,,,,,,,,,,,,,,999,2020-07-23_20h36.44.848,lexical_decision_task_MP,2020.1.3,Win32,60,,0,-0.253703694,-0.262962974,1,0,0,0.91574,button_left,0.91574,1,,,,,,337,NW,"ID",33,rejols,REJOLS,a,,,,,,,-0.253703694,-0.262962974,1,0,0,,0,78,78,276,1,
,,,,,,,,,,,,,,,,,999,2020-07-23_20h36.44.848,lexical_decision_task_MP,2020.1.3,Win32,60,,0,-0.200925916,-0.262962974,1,0,0,0.800065,button_left,0.800065,1,,,,,,464,NW,UN,33,whivex,CHAITE,a,,,,,,,-0.200925916,-0.262962974,1,0,0,,0,79,79,403,1,
,,,,,,,,,,,,,,,,,999,2020-07-23_20h36.44.848,lexical_decision_task_MP,2020.1.3,Win32,60,,0,-0.262962954,-0.252777789,1,0,0,0.8662,button_left,0.8662,1,,,,,,344,NW,"ID",33,scrily,SCRILY,a,,,,,,,-0.262962954,-0.252777789,1,0,0,,0,80,80,283,1,
,,,,,,,,,,,,,,,,,999,2020-07-23_20h36.44.848,lexical_decision_task_MP,2020.1.3,Win32,60,,0,0.252777795,-0.270370438,1,0,0,0.815045,button_right,0.815045,1,,,,,,223,WORD,UN,33,period,KIDNEY,l,,,,,,,0.252777795,-0.270370438,1,0,0,,0,81,81,162,1,
,,,,,,,,,,,,,,,,,999,2020-07-23_20h36.44.848,lexical_decision_task_MP,2020.1.3,Win32,60,,0,0.3314815,-0.270370438,1,0,0,0.66572,button_right,0.66572,1,,,,,,154,WORD,"ID",50,author,AUTHOR,l,,,,,,,0.3314815,-0.270370438,1,0,0,,0,82,82,93,1,
,,,,,,,,,,,,,,,,,999,2020-07-23_20h36.44.848,lexical_decision_task_MP,2020.1.3,Win32,60,,0,0.352777796,-0.286111123,1,0,0,0.88197,button_right,0.88197,1,,,,,,184,WORD,UN,33,bother,SLEAZY,l,,,,,,,0.352777796,-0.286111123,1,0,0,,0,83,83,123,1,
,,,,,,,,,,,,,,,,,999,2020-07-23_20h36.44.848,lexical_decision_task_MP,2020.1.3,Win32,60,,0,0.362037056,-0.272222234,1,0,0,0.648465,button_right,0.648465,1,,,,,,158,WORD,"ID",50,island,ISLAND,l,,,,,,,0.362037056,-0.272222234,1,0,0,,0,84,84,97,1,
,,,,,,,,,,,,,,,,,999,2020-07-23_20h36.44.848,lexical_decision_task_MP,2020.1.3,Win32,60,,0,-0.349074066,-0.254629641,1,0,0,0.749085,button_left,0.749085,1,,,,,,258,NW,UN,50,soudal,POLUTH,a,,,,,,,-0.349074066,-0.254629641,1,0,0,,0,85,85,437,1,
,,,,,,,,,,,,,,,,,999,2020-07-23_20h36.44.848,lexical_decision_task_MP,2020.1.3,Win32,60,,0,0.451851872,-0.293518587,1,0,0,0.682355,button_right,0.682355,1,,,,,,24,WORD,UN,50,domain,PRAISE,l,,,,,,,0.451851872,-0.293518587,1,0,0,,0,86,86,203,1,
,,,,,,,,,,,,,,,,,999,2020-07-23_20h36.44.848,lexical_decision_task_MP,2020.1.3,Win32,60,,0,0.310185203,-0.26851853,1,0,0,0.74819,button_right,0.74819,1,,,,,,145,WORD,"ID",50,parish,PARISH,l,,,,,,,0.310185203,-0.26851853,1,0,0,,0,87,87,84,1,
,,,,,,,,,,,,,,,,,999,2020-07-23_20h36.44.848,lexical_decision_task_MP,2020.1.3,Win32,60,,0,0.383333465,-0.271296308,1,0,0,1.949555,button_right,1.949555,1,,,,,,1,WORD,UN,50,ethnic,FRIGHT,l,,,,,,,0.383333465,-0.271296308,1,0,0,,0,88,88,180,1,
,,,,,,,,,,,,,,,,,999,2020-07-23_20h36.44.848,lexical_decision_task_MP,2020.1.3,Win32,60,,0,-0.308333325,-0.24722229,1,0,0,0.74886,button_left,0.74886,1,,,,,,419,NW,"ID",50,slount,SLOUNT,a,,,,,,,-0.308333325,-0.24722229,1,0,0,,0,89,89,358,1,
,,,,,,,,,,,,,,,,,999,2020-07-23_20h36.44.848,lexical_decision_task_MP,2020.1.3,Win32,60,,0,0.375925945,-0.270370438,1,0,0,0.681805,button_right,0.681805,0,,,,,,364,NW,"ID",50,impote,IMPOTE,a,,,,,,,0.375925945,-0.270370438,1,0,0,,0,90,90,303,1,
,,,,,,,,,,,,,,,,,999,2020-07-23_20h36.44.848,lexical_decision_task_MP,2020.1.3,Win32,60,,0,0.374074206,-0.266666678,1,0,0,0.66544,button_right,0.66544,1,,,,,,171,WORD,"ID",50,depart,DEPART,l,,,,,,,0.374074206,-0.266666678,1,0,0,,0,91,91,110,1,
,,,,,,,,,,,,,,,,,999,2020-07-23_20h36.44.848,lexical_decision_task_MP,2020.1.3,Win32,60,,0,0.350926057,-0.270370438,1,0,0,0.898575,button_right,0.898575,1,,,,,,75,WORD,"ID",33,trophy,TROPHY,l,,,,,,,0.350926057,-0.270370438,1,0,0,,0,92,92,14,1,
,,,,,,,,,,,,,,,,,999,2020-07-23_20h36.44.848,lexical_decision_task_MP,2020.1.3,Win32,60,,0,0.350000018,-0.272222234,1,0,0,0.766575,button_right,0.766575,1,,,,,,54,WORD,UN,50,stroke,RAMBLE,l,,,,,,,0.350000018,-0.272222234,1,0,0,,0,93,93,233,1,
,,,,,,,,,,,,,,,,,999,2020-07-23_20h36.44.848,lexical_decision_task_MP,2020.1.3,Win32,60,,0,-0.365740733,-0.24259266,1,0,0,0.74937,button_left,0.74937,1,,,,,,301,NW,"ID",33,fainch,FAINCH,a,,,,,,,-0.365740733,-0.24259266,1,0,0,,0,94,94,240,1,
,,,,,,,,,,,,,,,,,999,2020-07-23_20h36.44.848,lexical_decision_task_MP,2020.1.3,Win32,60,,0,0.339814833,-0.275000068,1,0,0,0.715065,button_right,0.715065,1,,,,,,130,WORD,"ID",50,stupid,STUPID,l,,,,,,,0.339814833,-0.275000068,1,0,0,,0,95,95,69,1,
,,,,,,,,,,,,,,,,,999,2020-07-23_20h36.44.848,lexical_decision_task_MP,2020.1.3,Win32,60,,0,-0.279629621,-0.252777789,1,0,0,0.69869,button_left,0.69869,1,,,,,,336,NW,"ID",33,ghodus,GHODUS,a,,,,,,,-0.279629621,-0.252777789,1,0,0,,0,96,96,275,1,
,,,,,,,,,,,,,,,,,999,2020-07-23_20h36.44.848,lexical_decision_task_MP,2020.1.3,Win32,60,,0,-0.262962954,-0.249074085,1,0,0,0.714855,button_left,0.714855,1,,,,,,375,NW,"ID",50,yorque,YORQUE,a,,,,,,,-0.262962954,-0.249074085,1,0,0,,0,97,97,314,1,
,,,,,,,,,,,,,,,,,999,2020-07-23_20h36.44.848,lexical_decision_task_MP,2020.1.3,Win32,60,,0,-0.180555545,-0.279629698,1,0,0,0.916305,button_left,0.916305,1,,,,,,407,NW,"ID",50,suiver,SUIVER,a,,,,,,,-0.299999991,-0.279629698,1,0,0,,0,98,98,346,1,
,,,,,,,,,,,,,,,,,999,2020-07-23_20h36.44.848,lexical_decision_task_MP,2020.1.3,Win32,60,,0,-0.324074066,-0.265740809,1,0,0,1.08257,button_left,1.08257,1,,,,,,278,NW,UN,50,celond,UNIGHS,a,,,,,,,-0.324074066,-0.265740809,1,0,0,,0,99,99,457,1,
,,,,,,,,,,,,,,,,,999,2020-07-23_20h36.44.848,lexical_decision_task_MP,2020.1.3,Win32,60,,0,-0.292592584,-0.279629698,1,0,0,0.783035,button_left,0.783035,1,,,,,,365,NW,"ID",50,guairt,GUAIRT,a,,,,,,,-0.292592584,-0.279629698,1,0,0,,0,100,100,304,1,
,,,,,,,,,,,,,,,,,999,2020-07-23_20h36.44.848,lexical_decision_task_MP,2020.1.3,Win32,60,,0,0.196296312,-0.282407419,1,0,0,0.66537,button_right,0.66537,1,,,,,,219,WORD,UN,33,voyage,BUCKET,l,,,,,,,0.436111131,-0.282407419,1,0,0,,0,101,101,158,1,
,,,,,,,,,,,,,,,,,999,2020-07-23_20h36.44.848,lexical_decision_task_MP,2020.1.3,Win32,60,,0,0.321296314,-0.266666678,1,0,0,0.765395,button_right,0.765395,1,,,,,,35,WORD,UN,50,vanish,SOCKET,l,,,,,,,0.321296314,-0.266666678,1,0,0,,0,102,102,214,1,
,,,,,,,,,,,,,,,,,999,2020-07-23_20h36.44.848,lexical_decision_task_MP,2020.1.3,Win32,60,,0,0.311111129,-0.262037048,1,0,0,0.965485,button_right,0.965485,1,,,,,,87,WORD,"ID",33,filter,FILTER,l,,,,,,,0.311111129,-0.262037048,1,0,0,,0,103,103,26,1,
,,,,,,,,,,,,,,,,,999,2020-07-23_20h36.44.848,lexical_decision_task_MP,2020.1.3,Win32,60,,0,-0.218518509,-0.2638889,1,0,0,0.94972,button_left,0.94972,1,,,,,,440,NW,UN,33,rastoe,SARIDE,a,,,,,,,-0.218518509,-0.2638889,1,0,0,,0,104,104,379,1,
,,,,,,,,,,,,,,,,,999,2020-07-23_20h36.44.848,lexical_decision_task_MP,2020.1.3,Win32,60,,0,0.245370387,-0.280555567,1,0,0,1.131845,button_right,1.131845,1,,,,,,200,WORD,UN,33,admire,BEACON,l,,,,,,,0.245370387,-0.280555567,1,0,0,,0,105,105,139,1,
,,,,,,,,,,,,,,,,,999,2020-07-23_20h36.44.848,lexical_decision_task_MP,2020.1.3,Win32,60,,0,-0.302777769,-0.27314816,1,0,0,0.91567,button_left,0.91567,1,,,,,,466,NW,UN,33,robuly,HOCITE,a,,,,,,,-0.302777769,-0.27314816,1,0,0,,0,106,106,405,1,
,,,,,,,,,,,,,,,,,999,2020-07-23_20h36.44.848,lexical_decision_task_MP,2020.1.3,Win32,60,,0,-0.245370361,-0.285185197,1,0,0,1.098495,button_left,1.098495,1,,,,,,435,NW,UN,33,frutan,IMPURB,a,,,,,,,-0.245370361,-0.285185197,1,0,0,,0,107,107,374,1,
,,,,,,,,,,,,,,,,,999,2020-07-23_20h36.44.848,lexical_decision_task_MP,2020.1.3,Win32,60,,0,0.247222239,-0.276851863,1,0,0,0.798685,button_right,0.798685,1,,,,,,172,WORD,"ID",50,patrol,PATROL,l,,,,,,,0.247222239,-0.276851863,1,0,0,,0,108,108,111,1,
,,,,,,,,,,,,,,,,,999,2020-07-23_20h36.44.848,lexical_decision_task_MP,2020.1.3,Win32,60,,0,0.31388902,-0.26851853,1,0,0,0.732395,button_right,0.732395,1,,,,,,211,WORD,UN,33,verify,INFECT,l,,,,,,,0.31388902,-0.26851853,1,0,0,,0,109,109,150,1,
,,,,,,,,,,,,,,,,,999,2020-07-23_20h36.44.848,lexical_decision_task_MP,2020.1.3,Win32,60,,0,-0.274999991,-0.260185197,1,0,0,0.932415,button_left,0.932415,1,,,,,,317,NW,"ID",33,worbal,WORBAL,a,,,,,,,-0.274999991,-0.260185197,1,0,0,,0,110,110,256,1,
,,,,,,,,,,,,,,,,,999,2020-07-23_20h36.44.848,lexical_decision_task_MP,2020.1.3,Win32,60,,0,-0.330555547,-0.248148159,1,0,0,0.88211,button_left,0.88211,1,,,,,,267,NW,UN,50,packes,PASINK,a,,,,,,,-0.330555547,-0.248148159,1,0,0,,0,111,111,446,1,
,,,,,,,,,,,,,,,,,999,2020-07-23_20h36.44.848,lexical_decision_task_MP,2020.1.3,Win32,60,,0,0.312037055,-0.278703715,1,0,0,0.69988,button_right,0.69988,1,,,,,,17,WORD,UN,50,humble,CHARGE,l,,,,,,,0.312037055,-0.278703715,1,0,0,,0,112,112,196,1,
,,,,,,,,,,,,,,,,,999,2020-07-23_20h36.44.848,lexical_decision_task_MP,2020.1.3,Win32,60,,0,-0.342592584,-0.249074085,1,0,0,0.74861,button_left,0.74861,1,,,,,,399,NW,"ID",50,fouret,FOURET,a,,,,,,,-0.342592584,-0.249074085,1,0,0,,0,113,113,338,1,
,,,,,,,,,,,,,,,,,999,2020-07-23_20h36.44.848,lexical_decision_task_MP,2020.1.3,Win32,60,,0,0.294444462,-0.272222234,1,0,0,0.63222,button_right,0.63222,1,,,,,,180,WORD,"ID",50,silent,SILENT,l,,,,,,,0.294444462,-0.272222234,1,0,0,,0,114,114,119,1,
,,,,,,,,,,,,,,,,,999,2020-07-23_20h36.44.848,lexical_decision_task_MP,2020.1.3,Win32,60,,0,-0.320370362,-0.256481549,1,0,0,0.69882,button_left,0.69882,1,,,,,,384,NW,"ID",50,guesco,GUESCO,a,,,,,,,-0.320370362,-0.256481549,1,0,0,,0,115,115,323,1,
,,,,,,,,,,,,,,,,,999,2020-07-23_20h36.44.848,lexical_decision_task_MP,2020.1.3,Win32,60,,0,-0.366666659,-0.255555567,1,0,0,0.832505,button_left,0.832505,1,,,,,,376,NW,"ID",50,iguare,IGUARE,a,,,,,,,-0.366666659,-0.255555567,1,0,0,,0,116,116,315,1,
,,,,,,,,,,,,,,,,,999,2020-07-23_20h36.44.848,lexical_decision_task_MP,2020.1.3,Win32,60,,0,-0.25925925,-0.253703715,1,0,0,0.949195,button_left,0.949195,1,,,,,,284,NW,UN,50,prudge,SHAPLE,a,,,,,,,-0.25925925,-0.253703715,1,0,0,,0,117,117,463,1,
,,,,,,,,,,,,,,,,,999,2020-07-23_20h36.44.848,lexical_decision_task_MP,2020.1.3,Win32,60,,0,-0.344444436,-0.24722229,1,0,0,0.765215,button_left,0.765215,1,,,,,,259,NW,UN,50,unject,SOUDAL,a,,,,,,,-0.344444436,-0.24722229,1,0,0,,0,118,118,438,1,
,,,,,,,,,,,,,,,,,999,2020-07-23_20h36.44.848,lexical_decision_task_MP,2020.1.3,Win32,60,,0,0.418518538,-0.2638889,1,0,0,0.74866,button_right,0.74866,1,,,,,,216,WORD,UN,33,liquor,BEHALF,l,,,,,,,0.418518538,-0.2638889,1,0,0,,0,119,119,155,1,
,,,,,,,,,,,,,,,,,999,2020-07-23_20h36.44.848,lexical_decision_task_MP,2020.1.3,Win32,60,,0,-0.276851843,-0.260185197,1,0,0,1.115105,button_left,1.115105,1,,,,,,298,NW,UN,50,sturch,PIERGY,a,,,,,,,0.004629643,-0.419444458,1,0,0,,0,120,120,477,1,break_done_button
,,,,,,,,,,,,,,,,,999,2020-07-23_20h36.44.848,lexical_decision_task_MP,2020.1.3,Win32,60,,0,-0.53055555,-0.345370383,1,0,0,0.83249,button_left,0.83249,1,,,,,,441,NW,UN,33,aboune,RASTOE,a,,,,,,,-0.53055555,-0.345370383,1,0,0,,0,121,121,380,1,
,,,,,,,,,,,,,,,,,999,2020-07-23_20h36.44.848,lexical_decision_task_MP,2020.1.3,Win32,60,,0,0.378703836,-0.32314816,1,0,0,0.715905,button_right,0.715905,1,,,,,,140,WORD,"ID",50,prince,PRINCE,l,,,,,,,0.378703836,-0.32314816,1,0,0,,0,122,122,79,1,
,,,,,,,,,,,,,,,,,999,2020-07-23_20h36.44.848,lexical_decision_task_MP,2020.1.3,Win32,60,,0,0.278703721,-0.307407476,1,0,0,0.682615,button_right,0.682615,1,,,,,,150,WORD,"ID",50,random,RANDOM,l,,,,,,,0.278703721,-0.307407476,1,0,0,,0,123,123,89,1,
,,,,,,,,,,,,,,,,,999,2020-07-23_20h36.44.848,lexical_decision_task_MP,2020.1.3,Win32,60,,0,0.312037055,-0.289814827,1,0,0,0.765265,button_right,0.765265,1,,,,,,65,WORD,"ID",33,symbol,SYMBOL,l,,,,,,,0.312037055,-0.289814827,1,0,0,,0,124,124,4,1,
,,,,,,,,,,,,,,,,,999,2020-07-23_20h36.44.848,lexical_decision_task_MP,2020.1.3,Win32,60,,0,0.31851865,-0.291666678,1,0,0,0.631865,button_right,0.631865,1,,,,,,94,WORD,"ID",33,travel,TRAVEL,l,,,,,,,0.31851865,-0.291666678,1,0,0,,0,125,125,33,1,
,,,,,,,,,,,,,,,,,999,2020-07-23_20h36.44.848,lexical_decision_task_MP,2020.1.3,Win32,60,,0,-0.3824074,-0.293518587,1,0,0,0.69836,button_left,0.69836,1,,,,,,354,NW,"ID",33,virlex,VIRLEX,a,,,,,,,-0.3824074,-0.293518587,1,0,0,,0,126,126,293,1,
,,,,,,,,,,,,,,,,,999,2020-07-23_20h36.44.848,lexical_decision_task_MP,2020.1.3,Win32,60,,0,-0.328703695,-0.303703716,1,0,0,0.665845,button_left,0.665845,1,,,,,,477,NW,UN,33,lobush,PHOTIE,a,,,,,,,-0.328703695,-0.303703716,1,0,0,,0,127,127,416,1,
,,,,,,,,,,,,,,,,,999,2020-07-23_20h36.44.848,lexical_decision_task_MP,2020.1.3,Win32,60,,0,0.38611113,-0.265740809,1,0,0,0.68236,button_right,0.68236,1,,,,,,197,WORD,UN,33,wicked,STREAM,l,,,,,,,0.38611113,-0.265740809,1,0,0,,0,128,128,136,1,
,,,,,,,,,,,,,,,,,999,2020-07-23_20h36.44.848,lexical_decision_task_MP,2020.1.3,Win32,60,,0,0.300000131,-0.275000068,1,0,0,0.715155,button_right,0.715155,1,,,,,,236,WORD,UN,33,grumpy,PIRATE,l,,,,,,,0.300000131,-0.275000068,1,0,0,,0,129,129,175,1,
,,,,,,,,,,,,,,,,,999,2020-07-23_20h36.44.848,lexical_decision_task_MP,2020.1.3,Win32,60,,0,-0.264814806,-0.290740753,1,0,0,0.615965,button_left,0.615965,1,,,,,,447,NW,UN,33,sadent,GIRCUE,a,,,,,,,-0.264814806,-0.290740753,1,0,0,,0,130,130,386,1,
,,,,,,,,,,,,,,,,,999,2020-07-23_20h36.44.848,lexical_decision_task_MP,2020.1.3,Win32,60,,0,-0.430555549,-0.303703716,1,0,0,0.815525,button_left,0.815525,1,,,,,,246,NW,UN,50,blarge,PIATON,a,,,,,,,-0.430555549,-0.303703716,1,0,0,,0,131,131,425,1,
,,,,,,,,,,,,,,,,,999,2020-07-23_20h36.44.848,lexical_decision_task_MP,2020.1.3,Win32,60,,0,0.582407542,-0.286111123,1,0,0,0.64874,button_right,0.64874,1,,,,,,7,WORD,UN,50,abrupt,ANCHOR,l,,,,,,,0.582407542,-0.286111123,1,0,0,,0,132,132,186,1,
,,,,,,,,,,,,,,,,,999,2020-07-23_20h36.44.848,lexical_decision_task_MP,2020.1.3,Win32,60,,0,0.410185205,-0.275000068,1,0,0,0.947995,button_right,0.947995,1,,,,,,212,WORD,UN,33,squeal,VERIFY,l,,,,,,,0.410185205,-0.275000068,1,0,0,,0,133,133,151,1,
,,,,,,,,,,,,,,,,,999,2020-07-23_20h36.44.848,lexical_decision_task_MP,2020.1.3,Win32,60,,0,0.277777795,-0.285185197,1,0,0,0.781885,button_right,0.781885,1,,,,,,226,WORD,UN,33,flower,CASINO,l,,,,,,,0.277777795,-0.285185197,1,0,0,,0,134,134,165,1,
,,,,,,,,,,,,,,,,,999,2020-07-23_20h36.44.848,lexical_decision_task_MP,2020.1.3,Win32,60,,0,-0.299999991,-0.276851863,1,0,0,0.68201,button_left,0.68201,1,,,,,,290,NW,UN,50,pretch,SPLINO,a,,,,,,,-0.299999991,-0.276851863,1,0,0,,0,135,135,469,1,
,,,,,,,,,,,,,,,,,999,2020-07-23_20h36.44.848,lexical_decision_task_MP,2020.1.3,Win32,60,,0,-0.224999934,-0.276851863,1,0,0,0.76535,button_left,0.76535,1,,,,,,369,NW,"ID",50,wronch,WRONCH,a,,,,,,,-0.224999934,-0.276851863,1,0,0,,0,136,136,308,1,
,,,,,,,,,,,,,,,,,999,2020-07-23_20h36.44.848,lexical_decision_task_MP,2020.1.3,Win32,60,,0,-0.354629622,-0.266666678,1,0,0,0.749215,button_left,0.749215,1,,,,,,324,NW,"ID",33,steikh,STEIKH,a,,,,,,,-0.354629622,-0.266666678,1,0,0,,0,137,137,263,1,
,,,,,,,,,,,,,,,,,999,2020-07-23_20h36.44.848,lexical_decision_task_MP,2020.1.3,Win32,60,,0,-0.257407341,-0.275000068,1,0,0,0.782455,button_left,0.782455,1,,,,,,472,NW,UN,33,gorbie,CIGNEY,a,,,,,,,-0.257407341,-0.275000068,1,0,0,,0,138,138,411,1,
,,,,,,,,,,,,,,,,,999,2020-07-23_20h36.44.848,lexical_decision_task_MP,2020.1.3,Win32,60,,0,0.276851869,-0.271296308,1,0,0,0.61533,button_right,0.61533,1,,,,,,51,WORD,UN,50,impose,HUNGRY,l,,,,,,,0.276851869,-0.271296308,1,0,0,,0,139,139,230,1,
,,,,,,,,,,,,,,,,,999,2020-07-23_20h36.44.848,lexical_decision_task_MP,2020.1.3,Win32,60,,0,-0.299999991,-0.253703715,1,0,0,0.64894,button_left,0.64894,1,,,,,,444,NW,UN,33,minkel,JAUNCE,a,,,,,,,-0.299999991,-0.253703715,1,0,0,,0,140,140,383,1,
,,,,,,,,,,,,,,,,,999,2020-07-23_20h36.44.848,lexical_decision_task_MP,2020.1.3,Win32,60,,0,0.293518536,-0.244444456,1,0,0,0.61535,button_right,0.61535,1,,,,,,224,WORD,UN,33,vulgar,PERIOD,l,,,,,,,0.293518536,-0.244444456,1,0,0,,0,141,141,163,1,
,,,,,,,,,,,,,,,,,999,2020-07-23_20h36.44.848,lexical_decision_task_MP,2020.1.3,Win32,60,,0,-0.266666601,-0.262037048,1,0,0,0.78159,button_left,0.78159,1,,,,,,346,NW,"ID",33,saudic,SAUDIC,a,,,,,,,-0.266666601,-0.262037048,1,0,0,,0,142,142,285,1,
,,,,,,,,,,,,,,,,,999,2020-07-23_20h36.44.848,lexical_decision_task_MP,2020.1.3,Win32,60,,0,0.298148166,-0.277777789,1,0,0,0.932145,button_right,0.932145,1,,,,,,183,WORD,UN,33,sleazy,MILDEW,l,,,,,,,0.298148166,-0.277777789,1,0,0,,0,143,143,122,1,
,,,,,,,,,,,,,,,,,999,2020-07-23_20h36.44.848,lexical_decision_task_MP,2020.1.3,Win32,60,,0,0.405555575,-0.282407419,1,0,0,1.332635,button_right,1.332635,1,,,,,,32,WORD,UN,50,scream,BUCKLE,l,,,,,,,0.405555575,-0.282407419,1,0,0,,0,144,144,211,1,
,,,,,,,,,,,,,,,,,999,2020-07-23_20h36.44.848,lexical_decision_task_MP,2020.1.3,Win32,60,,0,0.308333351,-0.272222234,1,0,0,0.815965,button_right,0.815965,1,,,,,,97,WORD,"ID",33,client,CLIENT,l,,,,,,,0.308333351,-0.272222234,1,0,0,,0,145,145,36,1,
,,,,,,,,,,,,,,,,,999,2020-07-23_20h36.44.848,lexical_decision_task_MP,2020.1.3,Win32,60,,0,0.398148167,-0.270370438,1,0,0,0.832405,button_right,0.832405,1,,,,,,61,WORD,"ID",33,ponder,PONDER,l,,,,,,,0.398148167,-0.270370438,1,0,0,,0,146,146,0,1,
,,,,,,,,,,,,,,,,,999,2020-07-23_20h36.44.848,lexical_decision_task_MP,2020.1.3,Win32,60,,0,-0.277777769,-0.258333345,1,0,0,0.76579,button_left,0.76579,1,,,,,,272,NW,UN,50,sortel,DAMILT,a,,,,,,,-0.277777769,-0.258333345,1,0,0,,0,147,147,451,1,
,,,,,,,,,,,,,,,,,999,2020-07-23_20h36.44.848,lexical_decision_task_MP,2020.1.3,Win32,60,,0,0.352777796,-0.282407419,1,0,0,0.765445,button_right,0.765445,1,,,,,,96,WORD,"ID",33,ignore,IGNORE,l,,,,,,,0.352777796,-0.282407419,1,0,0,,0,148,148,35,1,
,,,,,,,,,,,,,,,,,999,2020-07-23_20h36.44.848,lexical_decision_task_MP,2020.1.3,Win32,60,,0,-0.289814749,-0.275925937,1,0,0,0.7656,button_left,0.7656,1,,,,,,264,NW,UN,50,distar,VACKEL,a,,,,,,,-0.289814749,-0.275925937,1,0,0,,0,149,149,443,1,
,,,,,,,,,,,,,,,,,999,2020-07-23_20h36.44.848,lexical_decision_task_MP,2020.1.3,Win32,60,,0,-0.363888881,-0.261111179,1,0,0,0.91642,button_left,0.91642,1,,,,,,334,NW,"ID",33,watmeg,WATMEG,a,,,,,,,-0.363888881,-0.261111179,1,0,0,,0,150,150,273,1,
,,,,,,,,,,,,,,,,,999,2020-07-23_20h36.44.848,lexical_decision_task_MP,2020.1.3,Win32,60,,0,-0.251851842,-0.262962974,1,0,0,0.81591,button_left,0.81591,1,,,,,,424,NW,UN,33,frudge,PRAILE,a,,,,,,,-0.251851842,-0.262962974,1,0,0,,0,151,151,363,1,
,,,,,,,,,,,,,,,,,999,2020-07-23_20h36.44.848,lexical_decision_task_MP,2020.1.3,Win32,60,,0,-0.215740674,-0.289814827,1,0,0,0.732715,button_left,0.732715,1,,,,,,380,NW,"ID",50,cavory,CAVORY,a,,,,,,,-0.215740674,-0.289814827,1,0,0,,0,152,152,319,1,
,,,,,,,,,,,,,,,,,999,2020-07-23_20h36.44.848,lexical_decision_task_MP,2020.1.3,Win32,60,,0,0.25833335,-0.274074086,1,0,0,0.76547,button_right,0.76547,1,,,,,,177,WORD,"ID",50,advent,ADVENT,l,,,,,,,0.25833335,-0.274074086,1,0,0,,0,153,153,116,1,
,,,,,,,,,,,,,,,,,999,2020-07-23_20h36.44.848,lexical_decision_task_MP,2020.1.3,Win32,60,,0,0.241666684,-0.270370438,1,0,0,0.782235,button_right,0.782235,1,,,,,,77,WORD,"ID",33,racket,RACKET,l,,,,,,,0.241666684,-0.270370438,1,0,0,,0,154,154,16,1,
,,,,,,,,,,,,,,,,,999,2020-07-23_20h36.44.848,lexical_decision_task_MP,2020.1.3,Win32,60,,0,0.275925943,-0.275000068,1,0,0,0.781685,button_right,0.781685,1,,,,,,55,WORD,UN,50,ambush,STROKE,l,,,,,,,0.275925943,-0.275000068,1,0,0,,0,155,155,234,1,
,,,,,,,,,,,,,,,,,999,2020-07-23_20h36.44.848,lexical_decision_task_MP,2020.1.3,Win32,60,,0,-0.295370362,-0.264814826,1,0,0,0.6828,button_left,0.6828,1,,,,,,331,NW,"ID",33,gilfew,GILFEW,a,,,,,,,-0.295370362,-0.264814826,1,0,0,,0,156,156,270,1,
,,,,,,,,,,,,,,,,,999,2020-07-23_20h36.44.848,lexical_decision_task_MP,2020.1.3,Win32,60,,0,-0.262962954,-0.265740809,1,0,0,0.765105,button_left,0.765105,1,,,,,,448,NW,UN,33,brunge,SADENT,a,,,,,,,-0.262962954,-0.265740809,1,0,0,,0,157,157,387,1,
,,,,,,,,,,,,,,,,,999,2020-07-23_20h36.44.848,lexical_decision_task_MP,2020.1.3,Win32,60,,0,-0.299074065,-0.271296308,1,0,0,0.76652,button_left,0.76652,1,,,,,,310,NW,"ID",33,daniet,DANIET,a,,,,,,,-0.299074065,-0.271296308,1,0,0,,0,158,158,249,1,
,,,,,,,,,,,,,,,,,999,2020-07-23_20h36.44.848,lexical_decision_task_MP,2020.1.3,Win32,60,,0,0.374074206,-0.288888957,1,0,0,0.76573,button_right,0.76573,1,,,,,,13,WORD,UN,50,almost,STRIVE,l,,,,,,,0.374074206,-0.288888957,1,0,0,,0,159,159,192,1,
,,,,,,,,,,,,,,,,,999,2020-07-23_20h36.44.848,lexical_decision_task_MP,2020.1.3,Win32,60,,0,-0.309259251,-0.287037049,1,0,0,0.69813,button_left,0.69813,1,,,,,,335,NW,"ID",33,desion,DESION,a,,,,,,,-0.309259251,-0.287037049,1,0,0,,0,160,160,274,1,
,,,,,,,,,,,,,,,,,999,2020-07-23_20h36.44.848,lexical_decision_task_MP,2020.1.3,Win32,60,,0,-0.306481473,-0.293518587,1,0,0,0.731995,button_left,0.731995,1,,,,,,454,NW,UN,33,tondle,SCOUGE,a,,,,,,,-0.306481473,-0.293518587,1,0,0,,0,161,161,393,1,
,,,,,,,,,,,,,,,,,999,2020-07-23_20h36.44.848,lexical_decision_task_MP,2020.1.3,Win32,60,,0,-0.218518509,-0.294444456,1,0,0,1.047865,button_left,1.047865,1,,,,,,452,NW,UN,33,bolvis,SURDEN,a,,,,,,,-0.218518509,-0.294444456,1,0,0,,0,162,162,391,1,
,,,,,,,,,,,,,,,,,999,2020-07-23_20h36.44.848,lexical_decision_task_MP,2020.1.3,Win32,60,,0,0.227777794,-0.298148217,1,0,0,0.715735,button_right,0.715735,1,,,,,,72,WORD,"ID",33,bright,BRIGHT,l,,,,,,,0.227777794,-0.298148217,1,0,0,,0,163,163,11,1,
,,,,,,,,,,,,,,,,,999,2020-07-23_20h36.44.848,lexical_decision_task_MP,2020.1.3,Win32,60,,0,-0.324999992,-0.302777846,1,0,0,1.282715,button_left,1.282715,1,,,,,,462,NW,UN,33,kispel,ABSULT,a,,,,,,,-0.324999992,-0.302777846,1,0,0,,0,164,164,401,1,
,,,,,,,,,,,,,,,,,999,2020-07-23_20h36.44.848,lexical_decision_task_MP,2020.1.3,Win32,60,,0,0.325000018,-0.301851864,1,0,0,0.682705,button_right,0.682705,1,,,,,,210,WORD,UN,33,infect,MONKEY,l,,,,,,,0.325000018,-0.301851864,1,0,0,,0,165,165,149,1,
,,,,,,,,,,,,,,,,,999,2020-07-23_20h36.44.848,lexical_decision_task_MP,2020.1.3,Win32,60,,0,-0.271296231,-0.285185197,1,0,0,0.76551,button_left,0.76551,1,,,,,,242,NW,UN,50,musied,UNWERT,a,,,,,,,-0.271296231,-0.285185197,1,0,0,,0,166,166,421,1,
,,,,,,,,,,,,,,,,,999,2020-07-23_20h36.44.848,lexical_decision_task_MP,2020.1.3,Win32,60,,0,0.293518536,-0.290740753,1,0,0,0.93189,button_right,0.93189,1,,,,,,199,WORD,UN,33,plague,INVOKE,l,,,,,,,0.293518536,-0.290740753,1,0,0,,0,167,167,138,1,
,,,,,,,,,,,,,,,,,999,2020-07-23_20h36.44.848,lexical_decision_task_MP,2020.1.3,Win32,60,,0,0.305555573,-0.275000068,1,0,0,0.66556,button_right,0.66556,1,,,,,,121,WORD,"ID",50,thrive,THRIVE,l,,,,,,,0.305555573,-0.275000068,1,0,0,,0,168,168,60,1,
,,,,,,,,,,,,,,,,,999,2020-07-23_20h36.44.848,lexical_decision_task_MP,2020.1.3,Win32,60,,0,0.36111113,-0.26851853,1,0,0,1.032515,button_right,1.032515,1,,,,,,185,WORD,UN,33,portal,BOTHER,l,,,,,,,0.36111113,-0.26851853,1,0,0,,0,169,169,124,1,
,,,,,,,,,,,,,,,,,999,2020-07-23_20h36.44.848,lexical_decision_task_MP,2020.1.3,Win32,60,,0,0.320370388,-0.258333345,1,0,0,0.749105,button_right,0.749105,1,,,,,,49,WORD,UN,50,snatch,SURVEY,l,,,,,,,0.320370388,-0.258333345,1,0,0,,0,170,170,228,1,
,,,,,,,,,,,,,,,,,999,2020-07-23_20h36.44.848,lexical_decision_task_MP,2020.1.3,Win32,60,,0,-0.179629619,-0.235185196,1,0,0,0.99908,,0.749105,-1,,,,,,176,WORD,"ID",50,strife,STRIFE,l,,,,,,,0.29259261,-0.258333345,0,0,0,,0,171,171,115,1,
,,,,,,,,,,,,,,,,,999,2020-07-23_20h36.44.848,lexical_decision_task_MP,2020.1.3,Win32,60,,0,0.319444462,-0.266666678,1,0,0,0.81648,button_right,0.81648,1,,,,,,135,WORD,"ID",50,import,IMPORT,l,,,,,,,0.319444462,-0.266666678,1,0,0,,0,172,172,74,1,
,,,,,,,,,,,,,,,,,999,2020-07-23_20h36.44.848,lexical_decision_task_MP,2020.1.3,Win32,60,,0,-0.232407398,-0.231481492,1,0,0,1.0157,button_left,1.0157,1,,,,,,341,NW,"ID",33,myrtie,MYRTIE,a,,,,,,,-0.232407398,-0.231481492,1,0,0,,0,173,173,280,1,
,,,,,,,,,,,,,,,,,999,2020-07-23_20h36.44.848,lexical_decision_task_MP,2020.1.3,Win32,60,,0,-0.301851843,-0.239814826,1,0,0,0.716305,button_left,0.716305,1,,,,,,366,NW,"ID",50,toshel,TOSHEL,a,,,,,,,-0.301851843,-0.239814826,1,0,0,,0,174,174,305,1,
,,,,,,,,,,,,,,,,,999,2020-07-23_20h36.44.848,lexical_decision_task_MP,2020.1.3,Win32,60,,0,0.230555572,-0.286111123,1,0,0,0.648345,button_right,0.648345,1,,,,,,173,WORD,"ID",50,shower,SHOWER,l,,,,,,,0.230555572,-0.286111123,1,0,0,,0,175,175,112,1,
,,,,,,,,,,,,,,,,,999,2020-07-23_20h36.44.848,lexical_decision_task_MP,2020.1.3,Win32,60,,0,-0.388888881,-0.287962975,1,0,0,0.729755,button_left,0.729755,1,,,,,,320,NW,"ID",33,jockal,JOCKAL,a,,,,,,,-0.388888881,-0.287962975,1,0,0,,0,176,176,259,1,
,,,,,,,,,,,,,,,,,999,2020-07-23_20h36.44.848,lexical_decision_task_MP,2020.1.3,Win32,60,,0,0.387963095,-0.283333345,1,0,0,0.715995,button_right,0.715995,1,,,,,,136,WORD,"ID",50,bleach,BLEACH,l,,,,,,,0.387963095,-0.283333345,1,0,0,,0,177,177,75,1,
,,,,,,,,,,,,,,,,,999,2020-07-23_20h36.44.848,lexical_decision_task_MP,2020.1.3,Win32,60,,0,-0.219444434,-0.281481493,1,0,0,0.79959,button_left,0.79959,1,,,,,,332,NW,"ID",33,vangue,VANGUE,a,,,,,,,-0.219444434,-0.281481493,1,0,0,,0,178,178,271,1,
,,,,,,,,,,,,,,,,,999,2020-07-23_20h36.44.848,lexical_decision_task_MP,2020.1.3,Win32,60,,0,0.352777796,-0.302777846,1,0,0,0.69874,button_right,0.69874,1,,,,,,149,WORD,"ID",50,invade,INVADE,l,,,,,,,0.352777796,-0.302777846,1,0,0,,0,179,179,88,1,
,,,,,,,,,,,,,,,,,999,2020-07-23_20h36.44.848,lexical_decision_task_MP,2020.1.3,Win32,60,,0,0.31388902,-0.275925937,1,0,0,0.78236,button_right,0.78236,1,,,,,,69,WORD,"ID",33,plenty,PLENTY,l,,,,,,,0.31388902,-0.275925937,1,0,0,,0,180,180,8,1,
,,,,,,,,,,,,,,,,,999,2020-07-23_20h36.44.848,lexical_decision_task_MP,2020.1.3,Win32,60,,0,0.316666685,-0.276851863,1,0,0,0.63233,button_right,0.63233,1,,,,,,156,WORD,"ID",50,cradle,CRADLE,l,,,,,,,0.316666685,-0.276851863,1,0,0,,0,181,181,95,1,
,,,,,,,,,,,,,,,,,999,2020-07-23_20h36.44.848,lexical_decision_task_MP,2020.1.3,Win32,60,,0,0.230555572,-0.272222234,1,0,0,0.748315,button_right,0.748315,1,,,,,,95,WORD,"ID",33,thread,THREAD,l,,,,,,,0.230555572,-0.272222234,1,0,0,,0,182,182,34,1,
,,,,,,,,,,,,,,,,,999,2020-07-23_20h36.44.848,lexical_decision_task_MP,2020.1.3,Win32,60,,0,0.240740758,-0.276851863,1,0,0,0.79929,button_right,0.79929,1,,,,,,78,WORD,"ID",33,column,COLUMN,l,,,,,,,0.240740758,-0.276851863,1,0,0,,0,183,183,17,1,
,,,,,,,,,,,,,,,,,999,2020-07-23_20h36.44.848,lexical_decision_task_MP,2020.1.3,Win32,60,,0,-0.339814807,-0.2638889,1,0,0,0.848965,button_left,0.848965,1,,,,,,283,NW,UN,50,shaple,VERALF,a,,,,,,,-0.339814807,-0.2638889,1,0,0,,0,184,184,462,1,
,,,,,,,,,,,,,,,,,999,2020-07-23_20h36.44.848,lexical_decision_task_MP,2020.1.3,Win32,60,,0,-0.220370304,-0.270370438,1,0,0,0.79917,button_left,0.79917,1,,,,,,321,NW,"ID",33,miator,MIATOR,a,,,,,,,-0.220370304,-0.270370438,1,0,0,,0,185,185,260,1,
,,,,,,,,,,,,,,,,,999,2020-07-23_20h36.44.848,lexical_decision_task_MP,2020.1.3,Win32,60,,0,0.29259261,-0.275000068,1,0,0,0.78126,button_right,0.78126,1,,,,,,104,WORD,"ID",33,studio,STUDIO,l,,,,,,,0.29259261,-0.275000068,1,0,0,,0,186,186,43,1,
,,,,,,,,,,,,,,,,,999,2020-07-23_20h36.44.848,lexical_decision_task_MP,2020.1.3,Win32,60,,0,0.448148281,-0.287037049,1,0,0,0.73253,button_right,0.73253,1,,,,,,113,WORD,"ID",33,chorus,CHORUS,l,,,,,,,0.448148281,-0.287037049,1,0,0,,0,187,187,52,1,
,,,,,,,,,,,,,,,,,999,2020-07-23_20h36.44.848,lexical_decision_task_MP,2020.1.3,Win32,60,,0,-0.223148138,-0.300925938,1,0,0,1.2654,button_left,1.2654,1,,,,,,425,NW,UN,33,urivel,FRUDGE,a,,,,,,,-0.223148138,-0.300925938,1,0,0,,0,188,188,364,1,
,,,,,,,,,,,,,,,,,999,2020-07-23_20h36.44.848,lexical_decision_task_MP,2020.1.3,Win32,60,,0,-0.302777769,-0.290740753,1,0,0,0.865475,button_left,0.865475,1,,,,,,248,NW,UN,50,batrol,STROLE,a,,,,,,,-0.302777769,-0.290740753,1,0,0,,0,189,189,427,1,
,,,,,,,,,,,,,,,,,999,2020-07-23_20h36.44.848,lexical_decision_task_MP,2020.1.3,Win32,60,,0,0.298148166,-0.287962975,1,0,0,0.78234,button_right,0.78234,1,,,,,,22,WORD,UN,50,wealth,JOCKEY,l,,,,,,,0.298148166,-0.287962975,1,0,0,,0,190,190,201,1,
,,,,,,,,,,,,,,,,,999,2020-07-23_20h36.44.848,lexical_decision_task_MP,2020.1.3,Win32,60,,0,-0.228703694,-0.257407419,1,0,0,0.73263,button_left,0.73263,1,,,,,,323,NW,"ID",33,rosail,ROSAIL,a,,,,,,,-0.228703694,-0.257407419,1,0,0,,0,191,191,262,1,
,,,,,,,,,,,,,,,,,999,2020-07-23_20h36.44.848,lexical_decision_task_MP,2020.1.3,Win32,60,,0,-0.257407341,-0.255555567,1,0,0,0.799365,button_left,0.799365,1,,,,,,429,NW,UN,33,caroey,FUNTLE,a,,,,,,,-0.257407341,-0.255555567,1,0,0,,0,192,192,368,1,
,,,,,,,,,,,,,,,,,999,2020-07-23_20h36.44.848,lexical_decision_task_MP,2020.1.3,Win32,60,,0,0.346296428,-0.2638889,1,0,0,0.73276,button_right,0.73276,1,,,,,,186,WORD,UN,33,course,PORTAL,l,,,,,,,0.346296428,-0.2638889,1,0,0,,0,193,193,125,1,
,,,,,,,,,,,,,,,,,999,2020-07-23_20h36.44.848,lexical_decision_task_MP,2020.1.3,Win32,60,,0,-0.274999991,-0.260185197,1,0,0,0.898935,button_left,0.898935,1,,,,,,383,NW,"ID",50,aungre,AUNGRE,a,,,,,,,-0.274999991,-0.260185197,1,0,0,,0,194,194,322,1,
,,,,,,,,,,,,,,,,,999,2020-07-23_20h36.44.848,lexical_decision_task_MP,2020.1.3,Win32,60,,0,-0.322222214,-0.265740809,1,0,0,1.132365,button_left,1.132365,1,,,,,,438,NW,UN,33,limpor,BAITCH,a,,,,,,,-0.322222214,-0.265740809,1,0,0,,0,195,195,377,1,
,,,,,,,,,,,,,,,,,999,2020-07-23_20h36.44.848,lexical_decision_task_MP,2020.1.3,Win32,60,,0,-0.207407397,-0.287962975,1,0,0,0.86545,button_left,0.86545,1,,,,,,433,NW,UN,33,pitrom,DRANCE,a,,,,,,,-0.207407397,-0.287962975,1,0,0,,0,196,196,372,1,
,,,,,,,,,,,,,,,,,999,2020-07-23_20h36.44.848,lexical_decision_task_MP,2020.1.3,Win32,60,,0,-0.260185176,-0.259259271,1,0,0,0.7325,button_left,0.7325,0,,,,,,30,WORD,UN,50,weapon,ORIENT,l,,,,,,,-0.260185176,-0.259259271,1,0,0,,0,197,197,209,1,
,,,,,,,,,,,,,,,,,999,2020-07-23_20h36.44.848,lexical_decision_task_MP,2020.1.3,Win32,60,,0,0.373148167,-0.252777789,1,0,0,0.732105,button_right,0.732105,1,,,,,,100,WORD,"ID",33,carbon,CARBON,l,,,,,,,0.373148167,-0.252777789,1,0,0,,0,198,198,39,1,
,,,,,,,,,,,,,,,,,999,2020-07-23_20h36.44.848,lexical_decision_task_MP,2020.1.3,Win32,60,,0,-0.367592585,-0.24351853,1,0,0,0.716115,button_left,0.716115,1,,,,,,262,NW,UN,50,dolica,QUILEW,a,,,,,,,-0.367592585,-0.24351853,1,0,0,,0,199,199,441,1,
,,,,,,,,,,,,,,,,,999,2020-07-23_20h36.44.848,lexical_decision_task_MP,2020.1.3,Win32,60,,0,0.403703723,-0.272222234,1,0,0,0.71564,button_right,0.71564,1,,,,,,10,WORD,UN,50,cruise,ETHNIC,l,,,,,,,0.403703723,-0.272222234,1,0,0,,0,200,200,189,1,
,,,,,,,,,,,,,,,,,999,2020-07-23_20h36.44.848,lexical_decision_task_MP,2020.1.3,Win32,60,,0,-0.334259251,-0.248148159,1,0,0,0.78229,button_left,0.78229,1,,,,,,370,NW,"ID",50,sleact,SLEACT,a,,,,,,,-0.334259251,-0.248148159,1,0,0,,0,201,201,309,1,
,,,,,,,,,,,,,,,,,999,2020-07-23_20h36.44.848,lexical_decision_task_MP,2020.1.3,Win32,60,,0,0.358333352,-0.266666678,1,0,0,0.64943,button_right,0.64943,1,,,,,,159,WORD,"ID",50,detail,DETAIL,l,,,,,,,0.358333352,-0.266666678,1,0,0,,0,202,202,98,1,
,,,,,,,,,,,,,,,,,999,2020-07-23_20h36.44.848,lexical_decision_task_MP,2020.1.3,Win32,60,,0,0.291666684,-0.267592604,1,0,0,0.732695,button_right,0.732695,1,,,,,,82,WORD,"ID",33,stigma,STIGMA,l,,,,,,,0.291666684,-0.267592604,1,0,0,,0,203,203,21,1,
,,,,,,,,,,,,,,,,,999,2020-07-23_20h36.44.848,lexical_decision_task_MP,2020.1.3,Win32,60,,0,-0.31851851,-0.252777789,1,0,0,0.717095,button_left,0.717095,1,,,,,,355,NW,"ID",33,zingly,ZINGLY,a,,,,,,,-0.31851851,-0.252777789,1,0,0,,0,204,204,294,1,
,,,,,,,,,,,,,,,,,999,2020-07-23_20h36.44.848,lexical_decision_task_MP,2020.1.3,Win32,60,,0,-0.372222215,-0.267592604,1,0,0,0.93277,button_left,0.93277,1,,,,,,326,NW,"ID",33,iguade,IGUADE,a,,,,,,,-0.372222215,-0.267592604,1,0,0,,0,205,205,265,1,
,,,,,,,,,,,,,,,,,999,2020-07-23_20h36.44.848,lexical_decision_task_MP,2020.1.3,Win32,60,,0,-0.305555547,-0.271296308,1,0,0,0.915965,button_left,0.915965,1,,,,,,473,NW,UN,33,hablin,CRIBLE,a,,,,,,,-0.305555547,-0.271296308,1,0,0,,0,206,206,412,1,
,,,,,,,,,,,,,,,,,999,2020-07-23_20h36.44.848,lexical_decision_task_MP,2020.1.3,Win32,60,,0,0.300000131,-0.27314816,1,0,0,0.682295,button_right,0.682295,1,,,,,,26,WORD,UN,50,butler,SPRINT,l,,,,,,,0.300000131,-0.27314816,1,0,0,,0,207,207,205,1,
,,,,,,,,,,,,,,,,,999,2020-07-23_20h36.44.848,lexical_decision_task_MP,2020.1.3,Win32,60,,0,-0.406481474,-0.272222234,1,0,0,0.750075,button_left,0.750075,1,,,,,,373,NW,"ID",50,bigent,BIGENT,a,,,,,,,-0.406481474,-0.272222234,1,0,0,,0,208,208,312,1,
,,,,,,,,,,,,,,,,,999,2020-07-23_20h36.44.848,lexical_decision_task_MP,2020.1.3,Win32,60,,0,-0.197222155,-0.288888957,1,0,0,0.732465,button_left,0.732465,1,,,,,,443,NW,UN,33,jaunce,DORSEX,a,,,,,,,-0.211111044,-0.278703715,1,0,0,,0,209,209,382,1,
,,,,,,,,,,,,,,,,,999,2020-07-23_20h36.44.848,lexical_decision_task_MP,2020.1.3,Win32,60,,0,0.266666684,-0.269444456,1,0,0,0.74951,button_right,0.74951,1,,,,,,41,WORD,UN,50,chapel,SPRING,l,,,,,,,0.266666684,-0.269444456,1,0,0,,0,210,210,220,1,
,,,,,,,,,,,,,,,,,999,2020-07-23_20h36.44.848,lexical_decision_task_MP,2020.1.3,Win32,60,,0,-0.226851842,-0.257407419,1,0,0,0.698705,button_left,0.698705,1,,,,,,460,NW,UN,33,justre,MINGAR,a,,,,,,,-0.226851842,-0.257407419,1,0,0,,0,211,211,399,1,
,,,,,,,,,,,,,,,,,999,2020-07-23_20h36.44.848,lexical_decision_task_MP,2020.1.3,Win32,60,,0,0.325000018,-0.261111179,1,0,0,0.649725,button_right,0.649725,1,,,,,,164,WORD,"ID",50,market,MARKET,l,,,,,,,0.325000018,-0.261111179,1,0,0,,0,212,212,103,1,
,,,,,,,,,,,,,,,,,999,2020-07-23_20h36.44.848,lexical_decision_task_MP,2020.1.3,Win32,60,,0,0.281481499,-0.300925938,1,0,0,0.93219,button_right,0.93219,1,,,,,,45,WORD,UN,50,single,CLERGY,l,,,,,,,0.281481499,-0.300925938,1,0,0,,0,213,213,224,1,
,,,,,,,,,,,,,,,,,999,2020-07-23_20h36.44.848,lexical_decision_task_MP,2020.1.3,Win32,60,,0,0.300925944,-0.287037049,1,0,0,0.56573,button_right,0.56573,1,,,,,,134,WORD,"ID",50,staple,STAPLE,l,,,,,,,0.300925944,-0.287037049,1,0,0,,0,214,214,73,1,
,,,,,,,,,,,,,,,,,999,2020-07-23_20h36.44.848,lexical_decision_task_MP,2020.1.3,Win32,60,,0,-0.281481472,-0.271296308,1,0,0,0.76546,button_left,0.76546,1,,,,,,437,NW,UN,33,baitch,SNAPEL,a,,,,,,,-0.281481472,-0.271296308,1,0,0,,0,215,215,376,1,
,,,,,,,,,,,,,,,,,999,2020-07-23_20h36.44.848,lexical_decision_task_MP,2020.1.3,Win32,60,,0,0.334259277,-0.289814827,1,0,0,0.749325,button_right,0.749325,1,,,,,,227,WORD,UN,33,master,SELDOM,l,,,,,,,0.334259277,-0.289814827,1,0,0,,0,216,216,166,1,
,,,,,,,,,,,,,,,,,999,2020-07-23_20h36.44.848,lexical_decision_task_MP,2020.1.3,Win32,60,,0,0.289814832,-0.27314816,1,0,0,0.69896,button_right,0.69896,1,,,,,,31,WORD,UN,50,buckle,WEAPON,l,,,,,,,0.289814832,-0.27314816,1,0,0,,0,217,217,210,1,
,,,,,,,,,,,,,,,,,999,2020-07-23_20h36.44.848,lexical_decision_task_MP,2020.1.3,Win32,60,,0,-0.257407341,-0.258333345,1,0,0,1.066085,button_left,1.066085,1,,,,,,269,NW,UN,50,wrimsy,ORCHET,a,,,,,,,-0.257407341,-0.258333345,1,0,0,,0,218,218,448,1,
,,,,,,,,,,,,,,,,,999,2020-07-23_20h36.44.848,lexical_decision_task_MP,2020.1.3,Win32,60,,0,-0.232407398,-0.264814826,1,0,0,1.1993,button_left,1.1993,1,,,,,,417,NW,"ID",50,earoud,EAROUD,a,,,,,,,-0.232407398,-0.264814826,1,0,0,,0,219,219,356,1,
,,,,,,,,,,,,,,,,,999,2020-07-23_20h36.44.848,lexical_decision_task_MP,2020.1.3,Win32,60,,0,-0.267592583,-0.310185197,1,0,0,0.782845,button_left,0.782845,1,,,,,,415,NW,"ID",50,higsta,HIGSTA,a,,,,,,,-0.267592583,-0.310185197,1,0,0,,0,220,220,354,1,
,,,,,,,,,,,,,,,,,999,2020-07-23_20h36.44.848,lexical_decision_task_MP,2020.1.3,Win32,60,,0,0.242592609,-0.284259327,1,0,0,0.74641,button_right,0.74641,1,,,,,,141,WORD,"ID",50,orphan,ORPHAN,l,,,,,,,0.242592609,-0.284259327,1,0,0,,0,221,221,80,1,
,,,,,,,,,,,,,,,,,999,2020-07-23_20h36.44.848,lexical_decision_task_MP,2020.1.3,Win32,60,,0,-0.319444436,-0.266666678,1,0,0,0.6988,button_left,0.6988,1,,,,,,307,NW,"ID",33,kirafe,KIRAFE,a,,,,,,,-0.319444436,-0.266666678,1,0,0,,0,222,222,246,1,
,,,,,,,,,,,,,,,,,999,2020-07-23_20h36.44.848,lexical_decision_task_MP,2020.1.3,Win32,60,,0,0.425000133,-0.282407419,1,0,0,0.899355,button_right,0.899355,1,,,,,,58,WORD,UN,50,splint,FOSTER,l,,,,,,,0.425000133,-0.282407419,1,0,0,,0,223,223,237,1,
,,,,,,,,,,,,,,,,,999,2020-07-23_20h36.44.848,lexical_decision_task_MP,2020.1.3,Win32,60,,0,0.262037054,-0.265740809,1,0,0,0.73231,button_right,0.73231,1,,,,,,3,WORD,UN,50,trench,KNIGHT,l,,,,,,,0.262037054,-0.265740809,1,0,0,,0,224,224,182,1,
,,,,,,,,,,,,,,,,,999,2020-07-23_20h36.44.848,lexical_decision_task_MP,2020.1.3,Win32,60,,0,0.30462976,-0.276851863,1,0,0,0.732285,button_right,0.732285,1,,,,,,120,WORD,"ID",33,strain,STRAIN,l,,,,,,,0.30462976,-0.276851863,1,0,0,,0,225,225,59,1,
,,,,,,,,,,,,,,,,,999,2020-07-23_20h36.44.848,lexical_decision_task_MP,2020.1.3,Win32,60,,0,0.312962981,-0.283333345,1,0,0,0.632905,button_right,0.632905,1,,,,,,161,WORD,"ID",50,pastor,PASTOR,l,,,,,,,0.312962981,-0.283333345,1,0,0,,0,226,226,100,1,
,,,,,,,,,,,,,,,,,999,2020-07-23_20h36.44.848,lexical_decision_task_MP,2020.1.3,Win32,60,,0,-0.368518511,-0.262037048,1,0,0,0.83286,button_left,0.83286,1,,,,,,292,NW,UN,50,swance,ABLINT,a,,,,,,,-0.368518511,-0.262037048,1,0,0,,0,227,227,471,1,
,,,,,,,,,,,,,,,,,999,2020-07-23_20h36.44.848,lexical_decision_task_MP,2020.1.3,Win32,60,,0,-0.218518509,-0.266666678,1,0,0,0.81593,button_left,0.81593,1,,,,,,243,NW,UN,50,eatric,MUSIED,a,,,,,,,-0.218518509,-0.266666678,1,0,0,,0,228,228,422,1,
,,,,,,,,,,,,,,,,,999,2020-07-23_20h36.44.848,lexical_decision_task_MP,2020.1.3,Win32,60,,0,0.281481499,-0.267592604,1,0,0,0.74924,button_right,0.74924,1,,,,,,182,WORD,UN,33,absent,WINTER,l,,,,,,,0.281481499,-0.267592604,1,0,0,,0,229,229,121,1,
,,,,,,,,,,,,,,,,,999,2020-07-23_20h36.44.848,lexical_decision_task_MP,2020.1.3,Win32,60,,0,0.31388902,-0.260185197,1,0,0,0.615335,button_right,0.615335,1,,,,,,215,WORD,UN,33,lumber,PHOBIA,l,,,,,,,0.31388902,-0.260185197,1,0,0,,0,230,230,154,1,
,,,,,,,,,,,,,,,,,999,2020-07-23_20h36.44.848,lexical_decision_task_MP,2020.1.3,Win32,60,,0,-0.329629621,-0.239814826,1,0,0,0.799225,button_left,0.799225,1,,,,,,353,NW,"ID",33,clurey,CLUREY,a,,,,,,,-0.329629621,-0.239814826,1,0,0,,0,231,231,292,1,
,,,,,,,,,,,,,,,,,999,2020-07-23_20h36.44.848,lexical_decision_task_MP,2020.1.3,Win32,60,,0,-0.385185178,-0.25185192,1,0,0,0.98291,button_left,0.98291,1,,,,,,342,NW,"ID",33,randow,RANDOW,a,,,,,,,-0.385185178,-0.25185192,1,0,0,,0,232,232,281,1,
,,,,,,,,,,,,,,,,,999,2020-07-23_20h36.44.848,lexical_decision_task_MP,2020.1.3,Win32,60,,0,-0.261111102,-0.264814826,1,0,0,0.76615,button_left,0.76615,1,,,,,,265,NW,UN,50,varmit,DISTAR,a,,,,,,,-0.261111102,-0.264814826,1,0,0,,0,233,233,444,1,
,,,,,,,,,,,,,,,,,999,2020-07-23_20h36.44.848,lexical_decision_task_MP,2020.1.3,Win32,60,,0,-0.312962954,-0.283333345,1,0,0,0.748645,button_left,0.748645,1,,,,,,325,NW,"ID",33,thruse,THRUSE,a,,,,,,,-0.312962954,-0.283333345,1,0,0,,0,234,234,264,1,
,,,,,,,,,,,,,,,,,999,2020-07-23_20h36.44.848,lexical_decision_task_MP,2020.1.3,Win32,60,,0,-0.179629619,-0.267592604,1,0,0,0.91515,button_left,0.91515,1,,,,,,271,NW,UN,50,damilt,AUBRID,a,,,,,,,-0.201851785,-0.267592604,1,0,0,,0,235,235,450,1,
,,,,,,,,,,,,,,,,,999,2020-07-23_20h36.44.848,lexical_decision_task_MP,2020.1.3,Win32,60,,0,-0.312962954,-0.292592604,1,0,0,0.633065,button_left,0.633065,1,,,,,,308,NW,"ID",33,psetch,PSETCH,a,,,,,,,-0.312962954,-0.292592604,1,0,0,,0,236,236,247,1,
,,,,,,,,,,,,,,,,,999,2020-07-23_20h36.44.848,lexical_decision_task_MP,2020.1.3,Win32,60,,0,-0.308333325,-0.277777789,1,0,0,0.683005,button_left,0.683005,1,,,,,,457,NW,UN,33,barcet,WANIGH,a,,,,,,,-0.308333325,-0.277777789,1,0,0,,0,237,237,396,1,
,,,,,,,,,,,,,,,,,999,2020-07-23_20h36.44.848,lexical_decision_task_MP,2020.1.3,Win32,60,,0,0.271296314,-0.26851853,1,0,0,0.682575,button_right,0.682575,1,,,,,,174,WORD,"ID",50,turkey,TURKEY,l,,,,,,,0.271296314,-0.26851853,1,0,0,,0,238,238,113,1,
,,,,,,,,,,,,,,,,,999,2020-07-23_20h36.44.848,lexical_decision_task_MP,2020.1.3,Win32,60,,0,-0.299999991,-0.261111179,1,0,0,0.6823,button_left,0.6823,1,,,,,,395,NW,"ID",50,colury,COLURY,a,,,,,,,-0.299999991,-0.261111179,1,0,0,,0,239,239,334,1,
,,,,,,,,,,,,,,,,,999,2020-07-23_20h36.44.848,lexical_decision_task_MP,2020.1.3,Win32,60,,0,0.324074092,-0.249074085,1,0,0,0.664345,button_right,0.664345,1,,,,,,160,WORD,"ID",50,violet,VIOLET,l,,,,,,,0.324074092,-0.249074085,1,0,0,,0,240,240,99,1,
,,,,,,,,,,,,,,,,,999,2020-07-23_20h36.44.848,lexical_decision_task_MP,2020.1.3,Win32,60,,0,0.270370388,-0.258333345,1,0,0,0.565245,button_right,0.565245,1,,,,,,126,WORD,"ID",50,enough,ENOUGH,l,,,,,,,-0.018518506,-0.414814828,1,0,0,,0,241,241,65,1,break_done_button
,,,,,,,,,,,,,,,,,999,2020-07-23_20h36.44.848,lexical_decision_task_MP,2020.1.3,Win32,60,,0,-0.38703703,-0.300000012,1,0,0,0.816545,button_left,0.816545,1,,,,,,455,NW,UN,33,broget,TONDLE,a,,,,,,,-0.38703703,-0.300000012,1,0,0,,0,242,242,394,1,
,,,,,,,,,,,,,,,,,999,2020-07-23_20h36.44.848,lexical_decision_task_MP,2020.1.3,Win32,60,,0,0.65740743,-0.364814828,1,0,0,0.78255,button_right,0.78255,1,,,,,,48,WORD,UN,50,survey,WALNUT,l,,,,,,,0.474074094,-0.345370383,1,0,0,,0,243,243,227,1,
,,,,,,,,,,,,,,,,,999,2020-07-23_20h36.44.848,lexical_decision_task_MP,2020.1.3,Win32,60,,0,-0.312962954,-0.218518529,1,0,0,0.699345,button_left,0.699345,1,,,,,,450,NW,UN,33,cainky,PHRECT,a,,,,,,,-0.312962954,-0.218518529,1,0,0,,0,244,244,389,1,
,,,,,,,,,,,,,,,,,999,2020-07-23_20h36.44.848,lexical_decision_task_MP,2020.1.3,Win32,60,,0,-0.320370362,-0.262962974,1,0,0,0.898755,button_left,0.898755,1,,,,,,319,NW,"ID",33,zomber,ZOMBER,a,,,,,,,-0.320370362,-0.262962974,1,0,0,,0,245,245,258,1,
,,,,,,,,,,,,,,,,,999,2020-07-23_20h36.44.848,lexical_decision_task_MP,2020.1.3,Win32,60,,0,0.307407425,-0.292592604,1,0,0,0.76633,button_right,0.76633,1,,,,,,52,WORD,UN,50,police,IMPOSE,l,,,,,,,0.307407425,-0.292592604,1,0,0,,0,246,246,231,1,
,,,,,,,,,,,,,,,,,999,2020-07-23_20h36.44.848,lexical_decision_task_MP,2020.1.3,Win32,60,,0,-0.304629621,-0.241666678,1,0,0,0.6664,button_left,0.6664,1,,,,,,304,NW,"ID",33,cludie,CLUDIE,a,,,,,,,-0.304629621,-0.241666678,1,0,0,,0,247,247,243,1,
,,,,,,,,,,,,,,,,,999,2020-07-23_20h36.44.848,lexical_decision_task_MP,2020.1.3,Win32,60,,0,-0.298148139,-0.24259266,1,0,0,0.63116,button_left,0.63116,1,,,,,,318,NW,"ID",33,reagly,REAGLY,a,,,,,,,-0.298148139,-0.24259266,1,0,0,,0,248,248,257,1,
,,,,,,,,,,,,,,,,,999,2020-07-23_20h36.44.848,lexical_decision_task_MP,2020.1.3,Win32,60,,0,0.380555574,-0.283333345,1,0,0,0.63142,button_right,0.63142,1,,,,,,101,WORD,"ID",33,wrench,WRENCH,l,,,,,,,0.380555574,-0.283333345,1,0,0,,0,249,249,40,1,
,,,,,,,,,,,,,,,,,999,2020-07-23_20h36.44.848,lexical_decision_task_MP,2020.1.3,Win32,60,,0,-0.177777767,-0.260185197,1,0,0,0.632505,button_left,0.632505,1,,,,,,343,NW,"ID",33,aimosy,AIMOSY,a,,,,,,,-0.350925918,-0.254629641,1,0,0,,0,250,250,282,1,
,,,,,,,,,,,,,,,,,999,2020-07-23_20h36.44.848,lexical_decision_task_MP,2020.1.3,Win32,60,,0,0.36111113,-0.321296365,1,0,0,0.765125,button_right,0.765125,1,,,,,,240,WORD,UN,33,seldom,FOREST,l,,,,,,,0.36111113,-0.321296365,1,0,0,,0,251,251,179,1,
,,,,,,,,,,,,,,,,,999,2020-07-23_20h36.44.848,lexical_decision_task_MP,2020.1.3,Win32,60,,0,-0.312962954,-0.233333401,1,0,0,0.73215,button_left,0.73215,1,,,,,,459,NW,UN,33,mingar,BAFENT,a,,,,,,,-0.312962954,-0.233333401,1,0,0,,0,252,252,398,1,
,,,,,,,,,,,,,,,,,999,2020-07-23_20h36.44.848,lexical_decision_task_MP,2020.1.3,Win32,60,,0,-0.281481472,-0.253703715,1,0,0,0.515445,button_left,0.515445,1,,,,,,469,NW,UN,33,crudio,PADIFS,a,,,,,,,-0.281481472,-0.253703715,1,0,0,,0,253,253,408,1,
,,,,,,,,,,,,,,,,,999,2020-07-23_20h36.44.848,lexical_decision_task_MP,2020.1.3,Win32,60,,0,-0.358333325,-0.267592604,1,0,0,0.59825,button_left,0.59825,1,,,,,,268,NW,UN,50,orchet,PACKES,a,,,,,,,-0.358333325,-0.267592604,1,0,0,,0,254,254,447,1,
,,,,,,,,,,,,,,,,,999,2020-07-23_20h36.44.848,lexical_decision_task_MP,2020.1.3,Win32,60,,0,-0.315740732,-0.253703715,1,0,0,1.031665,button_left,1.031665,1,,,,,,338,NW,"ID",33,wreash,WREASH,a,,,,,,,-0.315740732,-0.253703715,1,0,0,,0,255,255,277,1,
,,,,,,,,,,,,,,,,,999,2020-07-23_20h36.44.848,lexical_decision_task_MP,2020.1.3,Win32,60,,0,-0.35277777,-0.245370381,1,0,0,0.7318,button_left,0.7318,1,,,,,,351,NW,"ID",33,tiesch,TIESCH,a,,,,,,,-0.35277777,-0.245370381,1,0,0,,0,256,256,290,1,
,,,,,,,,,,,,,,,,,999,2020-07-23_20h36.44.848,lexical_decision_task_MP,2020.1.3,Win32,60,,0,-0.320370362,-0.255555567,1,0,0,0.74952,button_left,0.74952,1,,,,,,442,NW,UN,33,dorsex,ABOUNE,a,,,,,,,-0.320370362,-0.255555567,1,0,0,,0,257,257,381,1,
,,,,,,,,,,,,,,,,,999,2020-07-23_20h36.44.848,lexical_decision_task_MP,2020.1.3,Win32,60,,0,-0.299074065,-0.250925937,1,0,0,0.54738,button_left,0.54738,1,,,,,,389,NW,"ID",50,witmer,WITMER,a,,,,,,,-0.299074065,-0.250925937,1,0,0,,0,258,258,328,1,
,,,,,,,,,,,,,,,,,999,2020-07-23_20h36.44.848,lexical_decision_task_MP,2020.1.3,Win32,60,,0,-0.338888881,-0.241666678,1,0,0,0.86513,button_left,0.86513,1,,,,,,306,NW,"ID",33,sounge,SOUNGE,a,,,,,,,-0.338888881,-0.241666678,1,0,0,,0,259,259,245,1,
,,,,,,,,,,,,,,,,,999,2020-07-23_20h36.44.848,lexical_decision_task_MP,2020.1.3,Win32,60,,0,0.359259278,-0.287037049,1,0,0,0.79926,button_right,0.79926,1,,,,,,27,WORD,UN,50,comedy,SCREAM,l,,,,,,,0.359259278,-0.287037049,1,0,0,,0,260,260,206,1,
,,,,,,,,,,,,,,,,,999,2020-07-23_20h36.44.848,lexical_decision_task_MP,2020.1.3,Win32,60,,0,0.401851984,-0.287037049,1,0,0,1.03355,button_right,1.03355,1,,,,,,91,WORD,"ID",33,expand,EXPAND,l,,,,,,,0.401851984,-0.287037049,1,0,0,,0,261,261,30,1,
,,,,,,,,,,,,,,,,,999,2020-07-23_20h36.44.848,lexical_decision_task_MP,2020.1.3,Win32,60,,0,-0.3824074,-0.193518529,1,0,0,0.748585,button_left,0.748585,1,,,,,,392,NW,"ID",50,rouncy,ROUNCY,a,,,,,,,-0.287962954,-0.250000011,1,0,0,,0,262,262,331,1,
,,,,,,,,,,,,,,,,,999,2020-07-23_20h36.44.848,lexical_decision_task_MP,2020.1.3,Win32,60,,0,-0.316666658,-0.23796303,1,0,0,0.731965,button_left,0.731965,1,,,,,,251,NW,UN,50,stapod,LUPICT,a,,,,,,,-0.316666658,-0.23796303,1,0,0,,0,263,263,430,1,
,,,,,,,,,,,,,,,,,999,2020-07-23_20h36.44.848,lexical_decision_task_MP,2020.1.3,Win32,60,,0,-0.255555546,-0.275000068,1,0,0,0.699145,button_left,0.699145,1,,,,,,416,NW,"ID",50,pathel,PATHEL,a,,,,,,,-0.255555546,-0.275000068,1,0,0,,0,264,264,355,1,
,,,,,,,,,,,,,,,,,999,2020-07-23_20h36.44.848,lexical_decision_task_MP,2020.1.3,Win32,60,,0,-0.286111102,-0.271296308,1,0,0,0.68205,button_left,0.68205,1,,,,,,275,NW,UN,50,yarmon,SLEIRT,a,,,,,,,-0.286111102,-0.271296308,1,0,0,,0,265,265,454,1,
,,,,,,,,,,,,,,,,,999,2020-07-23_20h36.44.848,lexical_decision_task_MP,2020.1.3,Win32,60,,0,0.409259279,-0.315740753,1,0,0,0.78264,button_right,0.78264,1,,,,,,235,WORD,UN,33,pirate,GRUMPY,l,,,,,,,0.409259279,-0.315740753,1,0,0,,0,266,266,174,1,
,,,,,,,,,,,,,,,,,999,2020-07-23_20h36.44.848,lexical_decision_task_MP,2020.1.3,Win32,60,,0,0.300000131,-0.300000012,1,0,0,0.748685,button_right,0.748685,1,,,,,,6,WORD,UN,50,anchor,BUNDLE,l,,,,,,,0.300000131,-0.300000012,1,0,0,,0,267,267,185,1,
,,,,,,,,,,,,,,,,,999,2020-07-23_20h36.44.848,lexical_decision_task_MP,2020.1.3,Win32,60,,0,-0.366666659,-0.225000011,1,0,0,0.7149,button_left,0.7149,1,,,,,,475,NW,UN,33,josted,PEBRIC,a,,,,,,,-0.366666659,-0.225000011,1,0,0,,0,268,268,414,1,
,,,,,,,,,,,,,,,,,999,2020-07-23_20h36.44.848,lexical_decision_task_MP,2020.1.3,Win32,60,,0,0.345370389,-0.285185197,1,0,0,0.73228,button_right,0.73228,1,,,,,,88,WORD,"ID",33,hunger,HUNGER,l,,,,,,,0.345370389,-0.285185197,1,0,0,,0,269,269,27,1,
,,,,,,,,,,,,,,,,,999,2020-07-23_20h36.44.848,lexical_decision_task_MP,2020.1.3,Win32,60,,0,0.456481502,-0.298148217,1,0,0,1.099195,button_right,1.099195,1,,,,,,16,WORD,UN,50,charge,FAUCET,l,,,,,,,0.456481502,-0.298148217,1,0,0,,0,270,270,195,1,
,,,,,,,,,,,,,,,,,999,2020-07-23_20h36.44.848,lexical_decision_task_MP,2020.1.3,Win32,60,,0,-0.221296286,-0.258333345,1,0,0,0.797895,button_left,0.797895,1,,,,,,282,NW,UN,50,veralf,PORLEX,a,,,,,,,-0.221296286,-0.258333345,1,0,0,,0,271,271,461,1,
,,,,,,,,,,,,,,,,,999,2020-07-23_20h36.44.848,lexical_decision_task_MP,2020.1.3,Win32,60,,0,-0.328703695,-0.240740752,1,0,0,0.665085,button_left,0.665085,1,,,,,,374,NW,"ID",50,sliant,SLIANT,a,,,,,,,-0.328703695,-0.240740752,1,0,0,,0,272,272,313,1,
,,,,,,,,,,,,,,,,,999,2020-07-23_20h36.44.848,lexical_decision_task_MP,2020.1.3,Win32,60,,0,0.198148164,-0.258333345,1,0,0,0.699645,button_right,0.699645,1,,,,,,191,WORD,UN,33,beacon,STABLE,l,,,,,,,0.342592611,-0.279629698,1,0,0,,0,273,273,130,1,
,,,,,,,,,,,,,,,,,999,2020-07-23_20h36.44.848,lexical_decision_task_MP,2020.1.3,Win32,60,,0,0.289814832,-0.277777789,1,0,0,0.79894,button_right,0.79894,1,,,,,,11,WORD,UN,50,amount,CRUISE,l,,,,,,,0.289814832,-0.277777789,1,0,0,,0,274,274,190,1,
,,,,,,,,,,,,,,,,,999,2020-07-23_20h36.44.848,lexical_decision_task_MP,2020.1.3,Win32,60,,0,-0.308333325,-0.27314816,1,0,0,0.831565,button_left,0.831565,1,,,,,,244,NW,UN,50,anougs,EATRIC,a,,,,,,,-0.308333325,-0.27314816,1,0,0,,0,275,275,423,1,
,,,,,,,,,,,,,,,,,999,2020-07-23_20h36.44.848,lexical_decision_task_MP,2020.1.3,Win32,60,,0,0.306481499,-0.299074086,1,0,0,0.614705,button_right,0.614705,1,,,,,,196,WORD,UN,33,stream,CREDIT,l,,,,,,,0.306481499,-0.299074086,1,0,0,,0,276,276,135,1,
,,,,,,,,,,,,,,,,,999,2020-07-23_20h36.44.848,lexical_decision_task_MP,2020.1.3,Win32,60,,0,0.293518536,-0.26851853,1,0,0,0.782135,button_right,0.782135,1,,,,,,181,WORD,UN,33,winter,GLANCE,l,,,,,,,0.293518536,-0.26851853,1,0,0,,0,277,277,120,1,
,,,,,,,,,,,,,,,,,999,2020-07-23_20h36.44.848,lexical_decision_task_MP,2020.1.3,Win32,60,,0,0.221296313,-0.260185197,1,0,0,0.715475,button_right,0.715475,1,,,,,,178,WORD,"ID",50,inform,INFORM,l,,,,,,,0.221296313,-0.260185197,1,0,0,,0,278,278,117,1,
,,,,,,,,,,,,,,,,,999,2020-07-23_20h36.44.848,lexical_decision_task_MP,2020.1.3,Win32,60,,0,-0.392592585,-0.262037048,1,0,0,0.76578,button_left,0.76578,1,,,,,,345,NW,"ID",33,absend,ABSEND,a,,,,,,,-0.392592585,-0.262037048,1,0,0,,0,279,279,284,1,
,,,,,,,,,,,,,,,,,999,2020-07-23_20h36.44.848,lexical_decision_task_MP,2020.1.3,Win32,60,,0,-0.365740733,-0.299074086,1,0,0,0.816475,button_left,0.816475,1,,,,,,260,NW,UN,50,stunch,UNJECT,a,,,,,,,-0.365740733,-0.299074086,1,0,0,,0,280,280,439,1,
,,,,,,,,,,,,,,,,,999,2020-07-23_20h36.44.848,lexical_decision_task_MP,2020.1.3,Win32,60,,0,-0.271296231,-0.281481493,1,0,0,0.815795,button_left,0.815795,1,,,,,,386,NW,"ID",50,ancust,ANCUST,a,,,,,,,-0.271296231,-0.281481493,1,0,0,,0,281,281,325,1,
,,,,,,,,,,,,,,,,,999,2020-07-23_20h36.44.848,lexical_decision_task_MP,2020.1.3,Win32,60,,0,-0.375925918,-0.335185254,1,0,0,0.61617,button_left,0.61617,1,,,,,,287,NW,UN,50,yaceup,NYMBEL,a,,,,,,,-0.375925918,-0.335185254,1,0,0,,0,282,282,466,1,
,,,,,,,,,,,,,,,,,999,2020-07-23_20h36.44.848,lexical_decision_task_MP,2020.1.3,Win32,60,,0,-0.239814805,-0.316666735,1,0,0,0.81439,button_left,0.81439,1,,,,,,261,NW,UN,50,quilew,STUNCH,a,,,,,,,-0.239814805,-0.316666735,1,0,0,,0,283,283,440,1,
,,,,,,,,,,,,,,,,,999,2020-07-23_20h36.44.848,lexical_decision_task_MP,2020.1.3,Win32,60,,0,-0.282407398,-0.321296365,1,0,0,0.66451,button_left,0.66451,1,,,,,,388,NW,"ID",50,cragin,CRAGIN,a,,,,,,,-0.282407398,-0.321296365,1,0,0,,0,284,284,327,1,
,,,,,,,,,,,,,,,,,999,2020-07-23_20h36.44.848,lexical_decision_task_MP,2020.1.3,Win32,60,,0,-0.276851843,-0.286111123,1,0,0,0.56481,button_left,0.56481,0,,,,,,166,WORD,"ID",50,starch,STARCH,l,,,,,,,-0.276851843,-0.286111123,1,0,0,,0,285,285,105,1,
,,,,,,,,,,,,,,,,,999,2020-07-23_20h36.44.848,lexical_decision_task_MP,2020.1.3,Win32,60,,0,0.328703722,-0.304629642,1,0,0,0.565205,button_right,0.565205,1,,,,,,167,WORD,"ID",50,design,DESIGN,l,,,,,,,0.328703722,-0.304629642,1,0,0,,0,286,286,106,1,
,,,,,,,,,,,,,,,,,999,2020-07-23_20h36.44.848,lexical_decision_task_MP,2020.1.3,Win32,60,,0,-0.223148138,-0.279629698,1,0,0,0.665745,button_left,0.665745,1,,,,,,330,NW,"ID",33,kensom,KENSOM,a,,,,,,,-0.223148138,-0.279629698,1,0,0,,0,287,287,269,1,
,,,,,,,,,,,,,,,,,999,2020-07-23_20h36.44.848,lexical_decision_task_MP,2020.1.3,Win32,60,,0,-0.191666656,-0.271296308,1,0,0,0.749085,button_left,0.749085,1,,,,,,427,NW,UN,33,tandly,SCHIND,a,,,,,,,-0.331481473,-0.291666678,1,0,0,,0,288,288,366,1,
,,,,,,,,,,,,,,,,,999,2020-07-23_20h36.44.848,lexical_decision_task_MP,2020.1.3,Win32,60,,0,0.295370388,-0.280555567,1,0,0,0.66527,button_right,0.66527,1,,,,,,187,WORD,UN,33,social,COURSE,l,,,,,,,0.295370388,-0.280555567,1,0,0,,0,289,289,126,1,
,,,,,,,,,,,,,,,,,999,2020-07-23_20h36.44.848,lexical_decision_task_MP,2020.1.3,Win32,60,,0,0.436111131,-0.254629641,1,0,0,0.64612,button_right,0.64612,1,,,,,,202,WORD,UN,33,phrase,FACTOR,l,,,,,,,0.436111131,-0.254629641,1,0,0,,0,290,290,141,1,
,,,,,,,,,,,,,,,,,999,2020-07-23_20h36.44.848,lexical_decision_task_MP,2020.1.3,Win32,60,,0,0.264814832,-0.255555567,1,0,0,0.631995,button_right,0.631995,1,,,,,,238,WORD,UN,33,behalf,FLOWER,l,,,,,,,0.264814832,-0.255555567,1,0,0,,0,291,291,177,1,
,,,,,,,,,,,,,,,,,999,2020-07-23_20h36.44.848,lexical_decision_task_MP,2020.1.3,Win32,60,,0,0.38611113,-0.258333345,1,0,0,0.581875,button_right,0.581875,1,,,,,,98,WORD,"ID",33,belong,BELONG,l,,,,,,,0.38611113,-0.258333345,1,0,0,,0,292,292,37,1,
,,,,,,,,,,,,,,,,,999,2020-07-23_20h36.44.848,lexical_decision_task_MP,2020.1.3,Win32,60,,0,0.369444576,-0.270370438,1,0,0,0.76542,button_right,0.76542,1,,,,,,50,WORD,UN,50,hungry,SNATCH,l,,,,,,,0.369444576,-0.270370438,1,0,0,,0,293,293,229,1,
,,,,,,,,,,,,,,,,,999,2020-07-23_20h36.44.848,lexical_decision_task_MP,2020.1.3,Win32,60,,0,-0.247222213,-0.270370438,1,0,0,0.782205,button_left,0.782205,1,,,,,,360,NW,"ID",33,desory,DESORY,a,,,,,,,-0.247222213,-0.270370438,1,0,0,,0,294,294,299,1,
,,,,,,,,,,,,,,,,,999,2020-07-23_20h36.44.848,lexical_decision_task_MP,2020.1.3,Win32,60,,0,0.353703722,-0.270370438,1,0,0,0.64887,button_right,0.64887,1,,,,,,57,WORD,UN,50,danger,CHANGE,l,,,,,,,0.353703722,-0.270370438,1,0,0,,0,295,295,236,1,
,,,,,,,,,,,,,,,,,999,2020-07-23_20h36.44.848,lexical_decision_task_MP,2020.1.3,Win32,60,,0,-0.31388888,-0.266666678,1,0,0,0.68211,button_left,0.68211,1,,,,,,349,NW,"ID",33,asylen,ASYLEN,a,,,,,,,-0.31388888,-0.266666678,1,0,0,,0,296,296,288,1,
,,,,,,,,,,,,,,,,,999,2020-07-23_20h36.44.848,lexical_decision_task_MP,2020.1.3,Win32,60,,0,-0.281481472,-0.267592604,1,0,0,0.665515,button_left,0.665515,1,,,,,,241,NW,UN,50,unwert,SMENCO,a,,,,,,,-0.281481472,-0.267592604,1,0,0,,0,297,297,420,1,
,,,,,,,,,,,,,,,,,999,2020-07-23_20h36.44.848,lexical_decision_task_MP,2020.1.3,Win32,60,,0,-0.312962954,-0.250925937,1,0,0,0.631255,button_left,0.631255,1,,,,,,327,NW,"ID",33,plenac,PLENAC,a,,,,,,,-0.312962954,-0.250925937,1,0,0,,0,298,298,266,1,
,,,,,,,,,,,,,,,,,999,2020-07-23_20h36.44.848,lexical_decision_task_MP,2020.1.3,Win32,60,,0,0.6027778,-0.262962974,1,0,0,0.79808,button_right,0.79808,1,,,,,,9,WORD,UN,50,bridge,HUSTLE,l,,,,,,,0.497222243,-0.262962974,1,0,0,,0,299,299,188,1,
,,,,,,,,,,,,,,,,,999,2020-07-23_20h36.44.848,lexical_decision_task_MP,2020.1.3,Win32,60,,0,0.422222242,-0.270370438,1,0,0,0.64915,button_right,0.64915,1,,,,,,14,WORD,UN,50,orange,ALMOST,l,,,,,,,0.422222242,-0.270370438,1,0,0,,0,300,300,193,1,
,,,,,,,,,,,,,,,,,999,2020-07-23_20h36.44.848,lexical_decision_task_MP,2020.1.3,Win32,60,,0,0.423148168,-0.271296308,1,0,0,0.51573,button_right,0.51573,1,,,,,,204,WORD,UN,33,lounge,BURDEN,l,,,,,,,0.423148168,-0.271296308,1,0,0,,0,301,301,143,1,
,,,,,,,,,,,,,,,,,999,2020-07-23_20h36.44.848,lexical_decision_task_MP,2020.1.3,Win32,60,,0,0.423148168,-0.271296308,1,0,0,0.548695,button_right,0.548695,1,,,,,,208,WORD,UN,33,search,HOCKEY,l,,,,,,,0.423148168,-0.271296308,1,0,0,,0,302,302,147,1,
,,,,,,,,,,,,,,,,,999,2020-07-23_20h36.44.848,lexical_decision_task_MP,2020.1.3,Win32,60,,0,0.423148168,-0.271296308,1,0,0,0.565755,button_right,0.565755,1,,,,,,198,WORD,UN,33,invoke,WICKED,l,,,,,,,0.423148168,-0.271296308,1,0,0,,0,303,303,137,1,
,,,,,,,,,,,,,,,,,999,2020-07-23_20h36.44.848,lexical_decision_task_MP,2020.1.3,Win32,60,,0,-0.307407399,-0.287962975,1,0,0,0.882705,button_left,0.882705,1,,,,,,371,NW,"ID",50,geiloy,GEILOY,a,,,,,,,-0.307407399,-0.287962975,1,0,0,,0,304,304,310,1,
,,,,,,,,,,,,,,,,,999,2020-07-23_20h36.44.848,lexical_decision_task_MP,2020.1.3,Win32,60,,0,-0.29351851,-0.278703715,1,0,0,0.86478,button_left,0.86478,1,,,,,,294,NW,UN,50,gleath,INHORT,a,,,,,,,-0.29351851,-0.278703715,1,0,0,,0,305,305,473,1,
,,,,,,,,,,,,,,,,,999,2020-07-23_20h36.44.848,lexical_decision_task_MP,2020.1.3,Win32,60,,0,-0.353703696,-0.264814826,1,0,0,0.632215,button_left,0.632215,1,,,,,,279,NW,UN,50,curbol,CELOND,a,,,,,,,-0.353703696,-0.264814826,1,0,0,,0,306,306,458,1,
,,,,,,,,,,,,,,,,,999,2020-07-23_20h36.44.848,lexical_decision_task_MP,2020.1.3,Win32,60,,0,-0.28888888,-0.264814826,1,0,0,0.648565,button_left,0.648565,1,,,,,,396,NW,"ID",50,flengy,FLENGY,a,,,,,,,-0.28888888,-0.264814826,1,0,0,,0,307,307,335,1,
,,,,,,,,,,,,,,,,,999,2020-07-23_20h36.44.848,lexical_decision_task_MP,2020.1.3,Win32,60,,0,-0.246296287,-0.255555567,1,0,0,0.598245,button_left,0.598245,1,,,,,,367,NW,"ID",50,slique,SLIQUE,a,,,,,,,-0.246296287,-0.255555567,1,0,0,,0,308,308,306,1,
,,,,,,,,,,,,,,,,,999,2020-07-23_20h36.44.848,lexical_decision_task_MP,2020.1.3,Win32,60,,0,-0.256481472,-0.252777789,1,0,0,0.69871,button_left,0.69871,1,,,,,,313,NW,"ID",33,paurse,PAURSE,a,,,,,,,-0.256481472,-0.252777789,1,0,0,,0,309,309,252,1,
,,,,,,,,,,,,,,,,,999,2020-07-23_20h36.44.848,lexical_decision_task_MP,2020.1.3,Win32,60,,0,-0.249074065,-0.259259271,1,0,0,0.7988,button_left,0.7988,0,,,,,,209,WORD,UN,33,monkey,SEARCH,l,,,,,,,-0.249074065,-0.259259271,1,0,0,,0,310,310,148,1,
,,,,,,,,,,,,,,,,,999,2020-07-23_20h36.44.848,lexical_decision_task_MP,2020.1.3,Win32,60,,0,-0.262962954,-0.262037048,1,0,0,0.89848,button_left,0.89848,1,,,,,,394,NW,"ID",50,spaqux,SPAQUX,a,,,,,,,-0.262962954,-0.262037048,1,0,0,,0,311,311,333,1,
,,,,,,,,,,,,,,,,,999,2020-07-23_20h36.44.848,lexical_decision_task_MP,2020.1.3,Win32,60,,0,-0.221296286,-0.250000011,1,0,0,1.115425,button_left,1.115425,1,,,,,,285,NW,UN,50,reldon,PRUDGE,a,,,,,,,-0.221296286,-0.250000011,1,0,0,,0,312,312,464,1,
,,,,,,,,,,,,,,,,,999,2020-07-23_20h36.44.848,lexical_decision_task_MP,2020.1.3,Win32,60,,0,-0.241666657,-0.250000011,1,0,0,1.24646,button_left,1.24646,0,,,,,,195,WORD,UN,33,credit,RESIGN,l,,,,,,,-0.241666657,-0.250000011,1,0,0,,0,313,313,134,1,
,,,,,,,,,,,,,,,,,999,2020-07-23_20h36.44.848,lexical_decision_task_MP,2020.1.3,Win32,60,,0,-0.28055549,-0.250000011,1,0,0,0.99776,button_left,0.99776,1,,,,,,255,NW,UN,50,inlors,APIGHT,a,,,,,,,-0.28055549,-0.250000011,1,0,0,,0,314,314,434,1,
,,,,,,,,,,,,,,,,,999,2020-07-23_20h36.44.848,lexical_decision_task_MP,2020.1.3,Win32,60,,0,0.342592611,-0.270370438,1,0,0,0.882025,button_right,0.882025,1,,,,,,179,WORD,"ID",50,basket,BASKET,l,,,,,,,0.342592611,-0.270370438,1,0,0,,0,315,315,118,1,
,,,,,,,,,,,,,,,,,999,2020-07-23_20h36.44.848,lexical_decision_task_MP,2020.1.3,Win32,60,,0,-0.239814805,-0.260185197,1,0,0,0.74883,button_left,0.74883,0,,,,,,4,WORD,UN,50,plunge,TRENCH,l,,,,,,,-0.239814805,-0.260185197,1,0,0,,0,316,316,183,1,
,,,,,,,,,,,,,,,,,999,2020-07-23_20h36.44.848,lexical_decision_task_MP,2020.1.3,Win32,60,,0,-0.304629621,-0.24351853,1,0,0,1.011505,button_left,1.011505,1,,,,,,311,NW,"ID",33,sproly,SPROLY,a,,,,,,,-0.304629621,-0.24351853,1,0,0,,0,317,317,250,1,
,,,,,,,,,,,,,,,,,999,2020-07-23_20h36.44.848,lexical_decision_task_MP,2020.1.3,Win32,60,,0,-0.28425925,-0.24351853,1,0,0,0.66633,button_left,0.66633,1,,,,,,329,NW,"ID",33,yarike,YARIKE,a,,,,,,,-0.28425925,-0.24351853,1,0,0,,0,318,318,268,1,
,,,,,,,,,,,,,,,,,999,2020-07-23_20h36.44.848,lexical_decision_task_MP,2020.1.3,Win32,60,,0,-0.235185175,-0.250925937,1,0,0,0.63245,button_left,0.63245,1,,,,,,333,NW,"ID",33,catrie,CATRIE,a,,,,,,,-0.235185175,-0.250925937,1,0,0,,0,319,319,272,1,
,,,,,,,,,,,,,,,,,999,2020-07-23_20h36.44.848,lexical_decision_task_MP,2020.1.3,Win32,60,,0,-0.262036971,-0.250000011,1,0,0,0.86554,button_left,0.86554,1,,,,,,263,NW,UN,50,vackel,DOLICA,a,,,,,,,-0.262036971,-0.250000011,1,0,0,,0,320,320,442,1,
,,,,,,,,,,,,,,,,,999,2020-07-23_20h36.44.848,lexical_decision_task_MP,2020.1.3,Win32,60,,0,-0.28055549,-0.250925937,1,0,0,0.49822,button_left,0.49822,1,,,,,,273,NW,UN,50,fumblo,SORTEL,a,,,,,,,-0.28055549,-0.250925937,1,0,0,,0,321,321,452,1,
,,,,,,,,,,,,,,,,,999,2020-07-23_20h36.44.848,lexical_decision_task_MP,2020.1.3,Win32,60,,0,0.257407424,-0.270370438,1,0,0,0.881555,button_right,0.881555,1,,,,,,131,WORD,"ID",50,quench,QUENCH,l,,,,,,,0.257407424,-0.270370438,1,0,0,,0,322,322,70,1,
,,,,,,,,,,,,,,,,,999,2020-07-23_20h36.44.848,lexical_decision_task_MP,2020.1.3,Win32,60,,0,-0.34814814,-0.253703715,1,0,0,0.63181,button_left,0.63181,1,,,,,,249,NW,UN,50,milted,BATROL,a,,,,,,,-0.34814814,-0.253703715,1,0,0,,0,323,323,428,1,
,,,,,,,,,,,,,,,,,999,2020-07-23_20h36.44.848,lexical_decision_task_MP,2020.1.3,Win32,60,,0,0.505555576,-0.266666678,1,0,0,0.649415,button_right,0.649415,1,,,,,,128,WORD,"ID",50,senior,SENIOR,l,,,,,,,0.505555576,-0.266666678,1,0,0,,0,324,324,67,1,
,,,,,,,,,,,,,,,,,999,2020-07-23_20h36.44.848,lexical_decision_task_MP,2020.1.3,Win32,60,,0,0.317592611,-0.259259271,1,0,0,0.581915,button_right,0.581915,1,,,,,,115,WORD,"ID",33,guitar,GUITAR,l,,,,,,,0.317592611,-0.259259271,1,0,0,,0,325,325,54,1,
,,,,,,,,,,,,,,,,,999,2020-07-23_20h36.44.848,lexical_decision_task_MP,2020.1.3,Win32,60,,0,-0.257407341,-0.262962974,1,0,0,0.915935,button_left,0.915935,1,,,,,,461,NW,UN,33,absult,JUSTRE,a,,,,,,,-0.257407341,-0.262962974,1,0,0,,0,326,326,400,1,
,,,,,,,,,,,,,,,,,999,2020-07-23_20h36.44.848,lexical_decision_task_MP,2020.1.3,Win32,60,,0,-0.227777768,-0.283333345,1,0,0,1.08146,button_left,1.08146,0,,,,,,59,WORD,UN,50,pencil,SPLINT,l,,,,,,,-0.227777768,-0.283333345,1,0,0,,0,327,327,238,1,
,,,,,,,,,,,,,,,,,999,2020-07-23_20h36.44.848,lexical_decision_task_MP,2020.1.3,Win32,60,,0,-0.239814805,-0.26851853,1,0,0,1.147855,button_left,1.147855,1,,,,,,250,NW,UN,50,lupict,MILTED,a,,,,,,,-0.239814805,-0.26851853,1,0,0,,0,328,328,429,1,
,,,,,,,,,,,,,,,,,999,2020-07-23_20h36.44.848,lexical_decision_task_MP,2020.1.3,Win32,60,,0,-0.202777768,-0.261111179,1,0,0,0.815215,button_left,0.815215,1,,,,,,340,NW,"ID",33,fiatch,FIATCH,a,,,,,,,-0.202777768,-0.261111179,1,0,0,,0,329,329,279,1,
,,,,,,,,,,,,,,,,,999,2020-07-23_20h36.44.848,lexical_decision_task_MP,2020.1.3,Win32,60,,0,-0.224074064,-0.26851853,1,0,0,0.599305,button_left,0.599305,1,,,,,,421,NW,UN,33,alcoud,KNISMA,a,,,,,,,-0.224074064,-0.26851853,1,0,0,,0,330,330,360,1,
,,,,,,,,,,,,,,,,,999,2020-07-23_20h36.44.848,lexical_decision_task_MP,2020.1.3,Win32,60,,0,0.432407427,-0.281481493,1,0,0,0.71521,button_right,0.71521,1,,,,,,83,WORD,"ID",33,result,RESULT,l,,,,,,,0.432407427,-0.281481493,1,0,0,,0,331,331,22,1,
,,,,,,,,,,,,,,,,,999,2020-07-23_20h36.44.848,lexical_decision_task_MP,2020.1.3,Win32,60,,0,0.388888908,-0.277777789,1,0,0,0.59898,button_right,0.59898,1,,,,,,67,WORD,"ID",33,policy,POLICY,l,,,,,,,0.388888908,-0.277777789,1,0,0,,0,332,332,6,1,
,,,,,,,,,,,,,,,,,999,2020-07-23_20h36.44.848,lexical_decision_task_MP,2020.1.3,Win32,60,,0,0.388888908,-0.277777789,1,0,0,0.449055,button_right,0.449055,1,,,,,,169,WORD,"ID",50,genius,GENIUS,l,,,,,,,0.388888908,-0.277777789,1,0,0,,0,333,333,108,1,
,,,,,,,,,,,,,,,,,999,2020-07-23_20h36.44.848,lexical_decision_task_MP,2020.1.3,Win32,60,,0,0.388888908,-0.277777789,1,0,0,0.59901,button_right,0.59901,1,,,,,,42,WORD,UN,50,tongue,CHAPEL,l,,,,,,,0.388888908,-0.277777789,1,0,0,,0,334,334,221,1,
,,,,,,,,,,,,,,,,,999,2020-07-23_20h36.44.848,lexical_decision_task_MP,2020.1.3,Win32,60,,0,0.388888908,-0.277777789,1,0,0,0.532415,button_right,0.532415,1,,,,,,221,WORD,UN,33,hinder,MASCOT,l,,,,,,,0.388888908,-0.277777789,1,0,0,,0,335,335,160,1,
,,,,,,,,,,,,,,,,,999,2020-07-23_20h36.44.848,lexical_decision_task_MP,2020.1.3,Win32,60,,0,0.388888908,-0.277777789,1,0,0,0.51546,button_right,0.51546,1,,,,,,165,WORD,"ID",50,invest,INVEST,l,,,,,,,0.388888908,-0.277777789,1,0,0,,0,336,336,104,1,
,,,,,,,,,,,,,,,,,999,2020-07-23_20h36.44.848,lexical_decision_task_MP,2020.1.3,Win32,60,,0,0.388888908,-0.277777789,1,0,0,0.565885,button_right,0.565885,1,,,,,,56,WORD,UN,50,change,AMBUSH,l,,,,,,,0.388888908,-0.277777789,1,0,0,,0,337,337,235,1,
,,,,,,,,,,,,,,,,,999,2020-07-23_20h36.44.848,lexical_decision_task_MP,2020.1.3,Win32,60,,0,0.387963095,-0.277777789,1,0,0,0.43176,button_right,0.43176,1,,,,,,143,WORD,"ID",50,reason,REASON,l,,,,,,,0.387963095,-0.277777789,1,0,0,,0,338,338,82,1,
,,,,,,,,,,,,,,,,,999,2020-07-23_20h36.44.848,lexical_decision_task_MP,2020.1.3,Win32,60,,0,-0.296296287,-0.240740752,1,0,0,0.998785,button_left,0.998785,0,,,,,,85,WORD,"ID",33,sprawl,SPRAWL,l,,,,,,,-0.296296287,-0.240740752,1,0,0,,0,339,339,24,1,
,,,,,,,,,,,,,,,,,999,2020-07-23_20h36.44.848,lexical_decision_task_MP,2020.1.3,Win32,60,,0,-0.312962954,-0.253703715,1,0,0,0.71484,button_left,0.71484,1,,,,,,403,NW,"ID",50,bruats,BRUATS,a,,,,,,,-0.312962954,-0.253703715,1,0,0,,0,340,340,342,1,
,,,,,,,,,,,,,,,,,999,2020-07-23_20h36.44.848,lexical_decision_task_MP,2020.1.3,Win32,60,,0,0.167592608,-0.288888957,1,0,0,0.78185,button_right,0.78185,1,,,,,,99,WORD,"ID",33,fluent,FLUENT,l,,,,,,,0.336111129,-0.287962975,1,0,0,,0,341,341,38,1,
,,,,,,,,,,,,,,,,,999,2020-07-23_20h36.44.848,lexical_decision_task_MP,2020.1.3,Win32,60,,0,-0.351851844,-0.297222234,1,0,0,0.765665,button_left,0.765665,1,,,,,,418,NW,"ID",50,suidle,SUIDLE,a,,,,,,,-0.351851844,-0.297222234,1,0,0,,0,342,342,357,1,
,,,,,,,,,,,,,,,,,999,2020-07-23_20h36.44.848,lexical_decision_task_MP,2020.1.3,Win32,60,,0,0.17407409,-0.276851863,1,0,0,0.648505,button_right,0.648505,1,,,,,,168,WORD,"ID",50,answer,ANSWER,l,,,,,,,0.210185202,-0.276851863,1,0,0,,0,343,343,107,1,
,,,,,,,,,,,,,,,,,999,2020-07-23_20h36.44.848,lexical_decision_task_MP,2020.1.3,Win32,60,,0,-0.320370362,-0.306481493,1,0,0,0.682405,button_left,0.682405,1,,,,,,456,NW,UN,33,wanigh,BROGET,a,,,,,,,-0.320370362,-0.306481493,1,0,0,,0,344,344,395,1,
,,,,,,,,,,,,,,,,,999,2020-07-23_20h36.44.848,lexical_decision_task_MP,2020.1.3,Win32,60,,0,-0.224074064,-0.281481493,1,0,0,1.098485,button_left,1.098485,0,,,,,,68,WORD,"ID",33,fumble,FUMBLE,l,,,,,,,-0.224074064,-0.281481493,1,0,0,,0,345,345,7,1,
,,,,,,,,,,,,,,,,,999,2020-07-23_20h36.44.848,lexical_decision_task_MP,2020.1.3,Win32,60,,0,-0.493518513,-0.255555567,1,0,0,0.81525,button_left,0.81525,1,,,,,,377,NW,"ID",50,injore,INJORE,a,,,,,,,-0.493518513,-0.255555567,1,0,0,,0,346,346,316,1,
,,,,,,,,,,,,,,,,,999,2020-07-23_20h36.44.848,lexical_decision_task_MP,2020.1.3,Win32,60,,0,-0.310185177,-0.277777789,1,0,0,1.03226,button_left,1.03226,1,,,,,,449,NW,UN,33,phrect,BRUNGE,a,,,,,,,-0.310185177,-0.277777789,1,0,0,,0,347,347,388,1,
,,,,,,,,,,,,,,,,,999,2020-07-23_20h36.44.848,lexical_decision_task_MP,2020.1.3,Win32,60,,0,0.530555577,-0.288888957,1,0,0,0.931125,button_right,0.931125,1,,,,,,118,WORD,"ID",33,flight,FLIGHT,l,,,,,,,0.530555577,-0.288888957,1,0,0,,0,348,348,57,1,
,,,,,,,,,,,,,,,,,999,2020-07-23_20h36.44.848,lexical_decision_task_MP,2020.1.3,Win32,60,,0,0.243518535,-0.300925938,1,0,0,0.73196,button_right,0.73196,1,,,,,,155,WORD,"ID",50,lizard,LIZARD,l,,,,,,,0.243518535,-0.300925938,1,0,0,,0,349,349,94,1,
,,,,,,,,,,,,,,,,,999,2020-07-23_20h36.44.848,lexical_decision_task_MP,2020.1.3,Win32,60,,0,-0.266666601,-0.26851853,1,0,0,0.732985,button_left,0.732985,1,,,,,,478,NW,UN,33,pebric,ACRISE,a,,,,,,,-0.266666601,-0.26851853,1,0,0,,0,350,350,417,1,
,,,,,,,,,,,,,,,,,999,2020-07-23_20h36.44.848,lexical_decision_task_MP,2020.1.3,Win32,60,,0,-0.181481471,-0.26851853,1,0,0,0.865445,button_left,0.865445,1,,,,,,270,NW,UN,50,aubrid,WRIMSY,a,,,,,,,-0.34351851,-0.260185197,1,0,0,,0,351,351,449,1,
,,,,,,,,,,,,,,,,,999,2020-07-23_20h36.44.848,lexical_decision_task_MP,2020.1.3,Win32,60,,0,0.211111128,-0.270370438,1,0,0,0.832,button_right,0.832,1,,,,,,206,WORD,UN,33,wreath,TAILOR,l,,,,,,,0.211111128,-0.270370438,1,0,0,,0,352,352,145,1,
,,,,,,,,,,,,,,,,,999,2020-07-23_20h36.44.848,lexical_decision_task_MP,2020.1.3,Win32,60,,0,-0.287037028,-0.252777789,1,0,0,1.564975,button_left,1.564975,1,,,,,,405,NW,"ID",50,flumni,FLUMNI,a,,,,,,,-0.287037028,-0.252777789,1,0,0,,0,353,353,344,1,
,,,,,,,,,,,,,,,,,999,2020-07-23_20h36.44.848,lexical_decision_task_MP,2020.1.3,Win32,60,,0,0.307407425,-0.276851863,1,0,0,0.881815,button_right,0.881815,1,,,,,,105,WORD,"ID",33,number,NUMBER,l,,,,,,,0.307407425,-0.276851863,1,0,0,,0,354,354,44,1,
,,,,,,,,,,,,,,,,,999,2020-07-23_20h36.44.848,lexical_decision_task_MP,2020.1.3,Win32,60,,0,0.485185319,-0.277777789,1,0,0,0.78232,button_right,0.78232,1,,,,,,15,WORD,UN,50,faucet,AMOUNT,l,,,,,,,0.485185319,-0.277777789,1,0,0,,0,355,355,194,1,
,,,,,,,,,,,,,,,,,999,2020-07-23_20h36.44.848,lexical_decision_task_MP,2020.1.3,Win32,60,,0,0.32222224,-0.260185197,1,0,0,0.73139,button_right,0.73139,1,,,,,,144,WORD,"ID",50,sponge,SPONGE,l,,,,,,,0.32222224,-0.260185197,1,0,0,,0,356,356,83,1,
,,,,,,,,,,,,,,,,,999,2020-07-23_20h36.44.848,lexical_decision_task_MP,2020.1.3,Win32,60,,0,0.324074092,-0.260185197,1,0,0,0.56544,button_right,0.56544,1,,,,,,175,WORD,"ID",50,fabric,FABRIC,l,,,,,,,0.324074092,-0.260185197,1,0,0,,0,357,357,114,1,
,,,,,,,,,,,,,,,,,999,2020-07-23_20h36.44.848,lexical_decision_task_MP,2020.1.3,Win32,60,,0,-0.325925918,-0.2638889,1,0,0,0.89774,button_left,0.89774,1,,,,,,393,NW,"ID",50,ganous,GANOUS,a,,,,,,,-0.325925918,-0.2638889,1,0,0,,0,358,358,332,1,
,,,,,,,,,,,,,,,,,999,2020-07-23_20h36.44.848,lexical_decision_task_MP,2020.1.3,Win32,60,,0,0.32685187,-0.259259271,1,0,0,0.631195,button_right,0.631195,1,,,,,,110,WORD,"ID",33,polite,POLITE,l,,,,,,,0.32685187,-0.259259271,1,0,0,,0,359,359,49,1,
,,,,,,,,,,,,,,,,,999,2020-07-23_20h36.44.848,lexical_decision_task_MP,2020.1.3,Win32,60,,0,-0.251851842,-0.236111122,1,0,0,0.69816,button_left,0.69816,1,,,,,,436,NW,UN,33,snapel,FRUTAN,a,,,,,,,-0.251851842,-0.236111122,1,0,0,,0,360,360,375,1,
,,,,,,,,,,,,,,,,,999,2020-07-23_20h36.44.848,lexical_decision_task_MP,2020.1.3,Win32,60,,0,0.526851986,-0.269444456,1,0,0,0.84824,button_right,0.84824,1,,,,,,228,WORD,UN,33,kidney,MASTER,l,,,,,,,0.526851986,-0.269444456,1,0,0,,0,361,361,167,1,
,,,,,,,,,,,,,,,,,999,2020-07-23_20h36.44.848,lexical_decision_task_MP,2020.1.3,Win32,60,,0,-0.372222215,-0.219444512,1,0,0,1.1825,button_left,1.1825,1,,,,,,274,NW,UN,50,sleirt,FUMBLO,a,,,,,,,-0.018518506,-0.364814828,1,0,0,,0,362,362,453,1,break_done_button
,,,,,,,,,,,,,,,,,999,2020-07-23_20h36.44.848,lexical_decision_task_MP,2020.1.3,Win32,60,,0,0.29722224,-0.358333403,1,0,0,0.881885,button_right,0.881885,1,,,,,,220,WORD,UN,33,mascot,VOYAGE,l,,,,,,,0.29722224,-0.358333403,1,0,0,,0,363,363,159,1,
,,,,,,,,,,,,,,,,,999,2020-07-23_20h36.44.848,lexical_decision_task_MP,2020.1.3,Win32,60,,0,0.300925944,-0.350000013,1,0,0,0.56616,button_right,0.56616,1,,,,,,129,WORD,"ID",50,marvel,MARVEL,l,,,,,,,0.300925944,-0.350000013,1,0,0,,0,364,364,68,1,
,,,,,,,,,,,,,,,,,999,2020-07-23_20h36.44.848,lexical_decision_task_MP,2020.1.3,Win32,60,,0,0.516666688,-0.350925939,1,0,0,1.09878,button_right,1.09878,1,,,,,,124,WORD,"ID",50,blouse,BLOUSE,l,,,,,,,0.516666688,-0.350925939,1,0,0,,0,365,365,63,1,
,,,,,,,,,,,,,,,,,999,2020-07-23_20h36.44.848,lexical_decision_task_MP,2020.1.3,Win32,60,,0,0.342592611,-0.325000012,1,0,0,0.665175,button_right,0.665175,1,,,,,,170,WORD,"ID",50,pounce,POUNCE,l,,,,,,,0.342592611,-0.325000012,1,0,0,,0,366,366,109,1,
,,,,,,,,,,,,,,,,,999,2020-07-23_20h36.44.848,lexical_decision_task_MP,2020.1.3,Win32,60,,0,0.30185187,-0.319444457,1,0,0,0.66511,button_right,0.66511,1,,,,,,29,WORD,UN,50,orient,SKETCH,l,,,,,,,0.30185187,-0.319444457,1,0,0,,0,367,367,208,1,
,,,,,,,,,,,,,,,,,999,2020-07-23_20h36.44.848,lexical_decision_task_MP,2020.1.3,Win32,60,,0,0.30185187,-0.319444457,1,0,0,0.59831,button_right,0.59831,1,,,,,,102,WORD,"ID",33,direct,DIRECT,l,,,,,,,0.30185187,-0.319444457,1,0,0,,0,368,368,41,1,
,,,,,,,,,,,,,,,,,999,2020-07-23_20h36.44.848,lexical_decision_task_MP,2020.1.3,Win32,60,,0,-0.245370361,-0.27314816,1,0,0,0.848445,button_left,0.848445,1,,,,,,439,NW,UN,33,saride,LIMPOR,a,,,,,,,-0.245370361,-0.27314816,1,0,0,,0,369,369,378,1,
,,,,,,,,,,,,,,,,,999,2020-07-23_20h36.44.848,lexical_decision_task_MP,2020.1.3,Win32,60,,0,-0.365740733,-0.2638889,1,0,0,0.715855,button_left,0.715855,1,,,,,,431,NW,UN,33,lunker,CHRUMS,a,,,,,,,-0.365740733,-0.2638889,1,0,0,,0,370,370,370,1,
,,,,,,,,,,,,,,,,,999,2020-07-23_20h36.44.848,lexical_decision_task_MP,2020.1.3,Win32,60,,0,-0.228703694,-0.266666678,1,0,0,0.598935,button_left,0.598935,0,,,,,,222,WORD,UN,33,export,HINDER,l,,,,,,,-0.228703694,-0.266666678,1,0,0,,0,371,371,161,1,
,,,,,,,,,,,,,,,,,999,2020-07-23_20h36.44.848,lexical_decision_task_MP,2020.1.3,Win32,60,,0,-0.230555546,-0.267592604,1,0,0,0.5981,button_left,0.5981,1,,,,,,309,NW,"ID",33,amiloy,AMILOY,a,,,,,,,-0.230555546,-0.267592604,1,0,0,,0,372,372,248,1,
,,,,,,,,,,,,,,,,,999,2020-07-23_20h36.44.848,lexical_decision_task_MP,2020.1.3,Win32,60,,0,0.340740759,-0.301851864,1,0,0,0.67889,button_right,0.67889,1,,,,,,237,WORD,UN,33,glance,POSTER,l,,,,,,,0.340740759,-0.301851864,1,0,0,,0,373,373,176,1,
,,,,,,,,,,,,,,,,,999,2020-07-23_20h36.44.848,lexical_decision_task_MP,2020.1.3,Win32,60,,0,-0.317592584,-0.253703715,1,0,0,1.06588,button_left,1.06588,1,,,,,,348,NW,"ID",33,dumple,DUMPLE,a,,,,,,,-0.317592584,-0.253703715,1,0,0,,0,374,374,287,1,
,,,,,,,,,,,,,,,,,999,2020-07-23_20h36.44.848,lexical_decision_task_MP,2020.1.3,Win32,60,,0,0.491666687,-0.288888957,1,0,0,0.765185,button_right,0.765185,1,,,,,,152,WORD,"ID",50,rocket,ROCKET,l,,,,,,,0.491666687,-0.288888957,1,0,0,,0,375,375,91,1,
,,,,,,,,,,,,,,,,,999,2020-07-23_20h36.44.848,lexical_decision_task_MP,2020.1.3,Win32,60,,0,-0.374999992,-0.232407418,1,0,0,0.78242,button_left,0.78242,1,,,,,,295,NW,UN,50,beinch,GLEATH,a,,,,,,,-0.374999992,-0.232407418,1,0,0,,0,376,376,474,1,
,,,,,,,,,,,,,,,,,999,2020-07-23_20h36.44.848,lexical_decision_task_MP,2020.1.3,Win32,60,,0,-0.25925925,-0.230555566,1,0,0,0.73143,button_left,0.73143,1,,,,,,390,NW,"ID",50,hatrus,HATRUS,a,,,,,,,-0.25925925,-0.230555566,1,0,0,,0,377,377,329,1,
,,,,,,,,,,,,,,,,,999,2020-07-23_20h36.44.848,lexical_decision_task_MP,2020.1.3,Win32,60,,0,0.336111129,-0.262962974,1,0,0,0.732135,button_right,0.732135,1,,,,,,73,WORD,"ID",33,source,SOURCE,l,,,,,,,0.336111129,-0.262962974,1,0,0,,0,378,378,12,1,
,,,,,,,,,,,,,,,,,999,2020-07-23_20h36.44.848,lexical_decision_task_MP,2020.1.3,Win32,60,,0,0.283333351,-0.258333345,1,0,0,0.715875,button_right,0.715875,1,,,,,,214,WORD,UN,33,phobia,INTAKE,l,,,,,,,0.283333351,-0.258333345,1,0,0,,0,379,379,153,1,
