instr_done_keyboard.keys,instr_done_touch.x,instr_done_touch.y,instr_done_touch.leftButton,instr_done_touch.midButton,instr_done_touch.rightButton,instr_done_touch.clicked_name,instruction_pages.thisRepN,instruction_pages.thisTrialN,instruction_pages.thisN,instruction_pages.thisIndex,instruction_pages.ran,pageN,phase,instruct_text,participant,date,expName,psychopyVersion,OS,frameRate,response.keys,response.corr,touch_resp.x,touch_resp.y,touch_resp.leftButton,touch_resp.midButton,touch_resp.rightButton,touch_resp.time,touch_resp.clicked_name,rt,corr,practice_trials.thisRepN,practice_trials.thisTrialN,practice_trials.thisN,practice_trials.thisIndex,practice_trials.ran,TrialID,StimulusType,Condition,PrimeDuration,Prime,Target,corrAns,end_of_practice_trials_pages.thisRepN,end_of_practice_trials_pages.thisTrialN,end_of_practice_trials_pages.thisN,end_of_practice_trials_pages.thisIndex,end_of_practice_trials_pages.ran,trials.thisRepN,trials.thisTrialN,trials.thisN,trials.thisIndex,trials.ran
,0.105779716,-0.407306434,1,0,0,instr_done_button,0,0,0,0,1,1,instructions,"In this task you will judge whether a string of letters forms a word or not (i.e., is a nonword). Look at the cross at the start of each trial. After a second, a string of letters will appear. Your task is to indicate if the letter string forms a word or not (i.e., if it is a nonword). If your device has a keyboard, press the 'a' key for nonwords and the 'l' key for words. If your device does not have a keyboard, touch the left button on the screen for nonwords and the right button for words. Do not use the mouse as this will slow down your response. Press the space bar or click the button below to continue.",999mp938,2020-07-22_09h38.19.901,lexical_decision_task_MP,2020.1.3,MacIntel,60,,,,,,,,,,,,,,,,,,,,,,,,,,,,,,,,,
,,,,,,,,,,,,,,,999mp938,2020-07-22_09h38.19.901,lexical_decision_task_MP,2020.1.3,MacIntel,60,,0,-0.428571429,-0.335332606,1,0,0,1.099,button_left,1.099,1,0,0,0,9,1,1010,NW,"ID",33,fariny,FARINY,a,,,,,,,,,,
,,,,,,,,,,,,,,,999mp938,2020-07-22_09h38.19.901,lexical_decision_task_MP,2020.1.3,MacIntel,60,,0,-0.441657579,-0.30697928,1,0,0,0.702,button_left,0.702,1,0,1,1,13,1,1014,NW,UN,33,winfer,ROUPET,a,,,,,,,,,,
,,,,,,,,,,,,,,,999mp938,2020-07-22_09h38.19.901,lexical_decision_task_MP,2020.1.3,MacIntel,60,,0,0.453653217,-0.310250818,1,0,0,0.568,button_right,0.568,1,0,2,2,6,1,1007,WORD,UN,50,tropic,ZOMBIE,l,,,,,,,,,,
,,,,,,,,,,,,,,,999mp938,2020-07-22_09h38.19.901,lexical_decision_task_MP,2020.1.3,MacIntel,60,,0,-0.431842966,-0.300436205,1,0,0,0.639,button_left,0.639,1,0,3,3,14,1,1015,NW,UN,50,miaber,THRALE,a,,,,,,,,,,
,,,,,,,,,,,,,,,999mp938,2020-07-22_09h38.19.901,lexical_decision_task_MP,2020.1.3,MacIntel,60,,0,-0.424209378,-0.309160305,1,0,0,0.51,button_left,0.51,1,0,4,4,10,1,1011,NW,"ID",50,inlade,INLADE,a,,,,,,,,,,
,,,,,,,,,,,,,,,999mp938,2020-07-22_09h38.19.901,lexical_decision_task_MP,2020.1.3,MacIntel,60,,0,0.460196292,-0.305888768,1,0,0,0.575,button_right,0.575,1,0,5,5,5,1,1006,WORD,UN,33,frenzy,OBTAIN,l,,,,,,,,,,
,,,,,,,,,,,,,,,999mp938,2020-07-22_09h38.19.901,lexical_decision_task_MP,2020.1.3,MacIntel,60,,0,0.466739368,-0.30697928,1,0,0,0.777,button_right,0.777,1,0,6,6,7,1,1008,WORD,UN,50,hurdle,VOLUME,l,,,,,,,,,,
,,,,,,,,,,,,,,,999mp938,2020-07-22_09h38.19.901,lexical_decision_task_MP,2020.1.3,MacIntel,60,,0,-0.41221374,-0.308069793,1,0,0,0.658,button_left,0.658,1,0,7,7,12,1,1013,NW,UN,33,adveil,SPRINY,a,,,,,,,,,,
,,,,,,,,,,,,,,,999mp938,2020-07-22_09h38.19.901,lexical_decision_task_MP,2020.1.3,MacIntel,60,,0,0.456924755,-0.305888768,1,0,0,0.523,button_right,0.523,1,0,8,8,2,1,1003,WORD,"ID",50,almond,ALMOND,l,,,,,,,,,,
,,,,,,,,,,,,,,,999mp938,2020-07-22_09h38.19.901,lexical_decision_task_MP,2020.1.3,MacIntel,60,,0,-0.400218103,-0.301526718,1,0,0,0.637,button_left,0.637,1,0,9,9,15,1,1016,NW,UN,50,mushed,WHAISE,a,,,,,,,,,,
,,,,,,,,,,,,,,,999mp938,2020-07-22_09h38.19.901,lexical_decision_task_MP,2020.1.3,MacIntel,60,,0,0.458015267,-0.297164667,1,0,0,0.442,button_right,0.442,1,0,10,10,1,1,1002,WORD,"ID",33,adjust,ADJUST,l,,,,,,,,,,
,,,,,,,,,,,,,,,999mp938,2020-07-22_09h38.19.901,lexical_decision_task_MP,2020.1.3,MacIntel,60,,0,0.458015267,-0.296074155,1,0,0,0.517,button_right,0.517,1,0,11,11,0,1,1001,WORD,"ID",33,utopia,UTOPIA,l,,,,,,,,,,
,,,,,,,,,,,,,,,999mp938,2020-07-22_09h38.19.901,lexical_decision_task_MP,2020.1.3,MacIntel,60,,0,-0.388222465,-0.312431843,1,0,0,0.485,button_left,0.485,1,0,12,12,11,1,1012,NW,"ID",50,rashet,RASHET,a,,,,,,,,,,
,,,,,,,,,,,,,,,999mp938,2020-07-22_09h38.19.901,lexical_decision_task_MP,2020.1.3,MacIntel,60,,0,-0.382769902,-0.312431843,1,0,0,0.632,button_left,0.632,1,0,13,13,8,1,1009,NW,"ID",33,aslert,ASLERT,a,,,,,,,,,,
,,,,,,,,,,,,,,,999mp938,2020-07-22_09h38.19.901,lexical_decision_task_MP,2020.1.3,MacIntel,60,,0,0.442748092,-0.304798255,1,0,0,0.426,button_right,0.426,1,0,14,14,3,1,1004,WORD,"ID",50,matrix,MATRIX,l,,,,,,,,,,
,,,,,,,,,,,,,,,999mp938,2020-07-22_09h38.19.901,lexical_decision_task_MP,2020.1.3,MacIntel,60,,0,-0.370774264,-0.314612868,1,0,0,0.47,button_left,0.47,0,0,15,15,4,1,1005,WORD,UN,33,abound,SQUEAK,l,,,,,,,,,,
,0.006543075,-0.404034896,1,0,0,instr_done_button,,,,,,1,end_of_practice,"You have completed the practice trials. During the experimental trials, you will not receive feedback, but it is very important that you respond as quickly and accurately as possible. Before you begin, please ensure that you are in a comfortable and quiet location and will not be disturbed for about 10 minutes, as the experiment cannot be paused and we cannot use your data if you do not complete all the trials. When you are ready to start the experimental trials, please press space or touch the button below.",999mp938,2020-07-22_09h38.19.901,lexical_decision_task_MP,2020.1.3,MacIntel,60,,,,,,,,,,,,,,,,,,,,,,,,0,0,0,0,1,,,,,
,,,,,,,,,,,,,,,999mp938,2020-07-22_09h38.19.901,lexical_decision_task_MP,2020.1.3,MacIntel,60,,0,-0.460196292,-0.325517993,1,0,0,0.177,button_left,0.177,0,,,,,,23,WORD,UN,50,praise,WEALTH,l,,,,,,0,0,0,202,1
,,,,,,,,,,,,,,,999mp938,2020-07-22_09h38.19.901,lexical_decision_task_MP,2020.1.3,MacIntel,60,,0,-0.437295529,-0.31134133,1,0,0,1.352,button_left,1.352,1,,,,,,285,NW,UN,50,reldon,PRUDGE,a,,,,,,0,1,1,464,1
,,,,,,,,,,,,,,,999mp938,2020-07-22_09h38.19.901,lexical_decision_task_MP,2020.1.3,MacIntel,60,,0,-0.453653217,-0.316793893,1,0,0,0.552,button_left,0.552,1,,,,,,359,NW,"ID",33,fonver,FONVER,a,,,,,,0,2,2,298,1
,,,,,,,,,,,,,,,999mp938,2020-07-22_09h38.19.901,lexical_decision_task_MP,2020.1.3,MacIntel,60,,0,0.468920393,-0.309160305,1,0,0,0.544,button_right,0.544,1,,,,,,25,WORD,UN,50,sprint,DOMAIN,l,,,,,,0,3,3,204,1
,,,,,,,,,,,,,,,999mp938,2020-07-22_09h38.19.901,lexical_decision_task_MP,2020.1.3,MacIntel,60,,0,-0.438386041,-0.30697928,1,0,0,0.599,button_left,0.599,1,,,,,,318,NW,"ID",33,reagly,REAGLY,a,,,,,,0,4,4,257,1
,,,,,,,,,,,,,,,999mp938,2020-07-22_09h38.19.901,lexical_decision_task_MP,2020.1.3,MacIntel,60,,0,-0.435114504,-0.309160305,1,0,0,0.542,button_left,0.542,1,,,,,,274,NW,UN,50,sleirt,FUMBLO,a,,,,,,0,5,5,453,1
,,,,,,,,,,,,,,,999mp938,2020-07-22_09h38.19.901,lexical_decision_task_MP,2020.1.3,MacIntel,60,,0,-0.430752454,-0.309160305,1,0,0,0.538,button_left,0.538,1,,,,,,270,NW,UN,50,aubrid,WRIMSY,a,,,,,,0,6,6,449,1
,,,,,,,,,,,,,,,999mp938,2020-07-22_09h38.19.901,lexical_decision_task_MP,2020.1.3,MacIntel,60,,0,0.468920393,-0.312431843,1,0,0,0.525,button_right,0.525,0,,,,,,246,NW,UN,50,blarge,PIATON,a,,,,,,0,7,7,425,1
,,,,,,,,,,,,,,,999mp938,2020-07-22_09h38.19.901,lexical_decision_task_MP,2020.1.3,MacIntel,60,,0,0.468920393,-0.309160305,1,0,0,0.61,button_right,0.61,1,,,,,,52,WORD,UN,50,police,IMPOSE,l,,,,,,0,8,8,231,1
,,,,,,,,,,,,,,,999mp938,2020-07-22_09h38.19.901,lexical_decision_task_MP,2020.1.3,MacIntel,60,,0,-0.423118866,-0.309160305,1,0,0,0.634,button_left,0.634,1,,,,,,347,NW,"ID",33,kerift,KERIFT,a,,,,,,0,9,9,286,1
,,,,,,,,,,,,,,,999mp938,2020-07-22_09h38.19.901,lexical_decision_task_MP,2020.1.3,MacIntel,60,,0,-0.422028353,-0.304798255,1,0,0,0.614,button_left,0.614,1,,,,,,369,NW,"ID",50,wronch,WRONCH,a,,,,,,0,10,10,308,1
,,,,,,,,,,,,,,,999mp938,2020-07-22_09h38.19.901,lexical_decision_task_MP,2020.1.3,MacIntel,60,,0,0.465648855,-0.312431843,1,0,0,0.558,button_right,0.558,1,,,,,,134,WORD,"ID",50,staple,STAPLE,l,,,,,,0,11,11,73,1
,,,,,,,,,,,,,,,999mp938,2020-07-22_09h38.19.901,lexical_decision_task_MP,2020.1.3,MacIntel,60,,0,-0.410032715,-0.309160305,1,0,0,0.638,button_left,0.638,1,,,,,,380,NW,"ID",50,cavory,CAVORY,a,,,,,,0,12,12,319,1
,,,,,,,,,,,,,,,999mp938,2020-07-22_09h38.19.901,lexical_decision_task_MP,2020.1.3,MacIntel,60,,0,-0.41221374,-0.309160305,1,0,0,0.598,button_left,0.598,1,,,,,,311,NW,"ID",33,sproly,SPROLY,a,,,,,,0,13,13,250,1
,,,,,,,,,,,,,,,999mp938,2020-07-22_09h38.19.901,lexical_decision_task_MP,2020.1.3,MacIntel,60,,0,-0.413304253,-0.305888768,1,0,0,0.563,button_left,0.563,1,,,,,,419,NW,"ID",50,slount,SLOUNT,a,,,,,,0,14,14,358,1
,,,,,,,,,,,,,,,999mp938,2020-07-22_09h38.19.901,lexical_decision_task_MP,2020.1.3,MacIntel,60,,0,-0.411123228,-0.305888768,1,0,0,0.542,button_left,0.542,1,,,,,,393,NW,"ID",50,ganous,GANOUS,a,,,,,,0,15,15,332,1
,,,,,,,,,,,,,,,999mp938,2020-07-22_09h38.19.901,lexical_decision_task_MP,2020.1.3,MacIntel,60,,0,0.461286805,-0.310250818,1,0,0,0.584,button_right,0.584,1,,,,,,237,WORD,UN,33,glance,POSTER,l,,,,,,0,16,16,176,1
,,,,,,,,,,,,,,,999mp938,2020-07-22_09h38.19.901,lexical_decision_task_MP,2020.1.3,MacIntel,60,,0,0.461286805,-0.305888768,1,0,0,0.576,button_right,0.576,1,,,,,,204,WORD,UN,33,lounge,BURDEN,l,,,,,,0,17,17,143,1
,,,,,,,,,,,,,,,999mp938,2020-07-22_09h38.19.901,lexical_decision_task_MP,2020.1.3,MacIntel,60,,0,-0.410032715,-0.305888768,1,0,0,0.536,button_left,0.536,1,,,,,,478,NW,UN,33,pebric,ACRISE,a,,,,,,0,18,18,417,1
,,,,,,,,,,,,,,,999mp938,2020-07-22_09h38.19.901,lexical_decision_task_MP,2020.1.3,MacIntel,60,,0,0.461286805,-0.309160305,1,0,0,0.59,button_right,0.59,1,,,,,,213,WORD,UN,33,intake,SQUEAL,l,,,,,,0,19,19,152,1
,,,,,,,,,,,,,,,999mp938,2020-07-22_09h38.19.901,lexical_decision_task_MP,2020.1.3,MacIntel,60,,0,0.461286805,-0.309160305,1,0,0,0.549,button_right,0.549,0,,,,,,437,NW,UN,33,baitch,SNAPEL,a,,,,,,0,20,20,376,1
,,,,,,,,,,,,,,,999mp938,2020-07-22_09h38.19.901,lexical_decision_task_MP,2020.1.3,MacIntel,60,,0,-0.408942203,-0.305888768,1,0,0,0.503,button_left,0.503,1,,,,,,327,NW,"ID",33,plenac,PLENAC,a,,,,,,0,21,21,266,1
,,,,,,,,,,,,,,,999mp938,2020-07-22_09h38.19.901,lexical_decision_task_MP,2020.1.3,MacIntel,60,,0,-0.410032715,-0.305888768,1,0,0,0.719,button_left,0.719,0,,,,,,166,WORD,"ID",50,starch,STARCH,l,,,,,,0,22,22,105,1
,,,,,,,,,,,,,,,999mp938,2020-07-22_09h38.19.901,lexical_decision_task_MP,2020.1.3,MacIntel,60,,0,-0.410032715,-0.305888768,1,0,0,0.547,button_left,0.547,1,,,,,,446,NW,UN,33,gircue,RUNAMO,a,,,,,,0,23,23,385,1
,,,,,,,,,,,,,,,999mp938,2020-07-22_09h38.19.901,lexical_decision_task_MP,2020.1.3,MacIntel,60,,0,0.446019629,-0.322246456,1,0,0,0.598,button_right,0.598,1,,,,,,221,WORD,UN,33,hinder,MASCOT,l,,,,,,0,24,24,160,1
,,,,,,,,,,,,,,,999mp938,2020-07-22_09h38.19.901,lexical_decision_task_MP,2020.1.3,MacIntel,60,,0,0.45474373,-0.313522356,1,0,0,0.758,button_right,0.758,1,,,,,,4,WORD,UN,50,plunge,TRENCH,l,,,,,,0,25,25,183,1
,,,,,,,,,,,,,,,999mp938,2020-07-22_09h38.19.901,lexical_decision_task_MP,2020.1.3,MacIntel,60,,0,-0.406761178,-0.305888768,1,0,0,0.667,button_left,0.667,1,,,,,,468,NW,UN,33,padifs,WICTOR,a,,,,,,0,26,26,407,1
,,,,,,,,,,,,,,,999mp938,2020-07-22_09h38.19.901,lexical_decision_task_MP,2020.1.3,MacIntel,60,,0,0.456924755,-0.313522356,1,0,0,0.608,button_right,0.608,1,,,,,,234,WORD,UN,33,poster,CLUMSY,l,,,,,,0,27,27,173,1
,,,,,,,,,,,,,,,999mp938,2020-07-22_09h38.19.901,lexical_decision_task_MP,2020.1.3,MacIntel,60,,0,0.458015267,-0.310250818,1,0,0,0.599,button_right,0.599,1,,,,,,232,WORD,UN,33,nature,INJECT,l,,,,,,0,28,28,171,1
,,,,,,,,,,,,,,,999mp938,2020-07-22_09h38.19.901,lexical_decision_task_MP,2020.1.3,MacIntel,60,,0,-0.39912759,-0.309160305,1,0,0,0.559,button_left,0.559,1,,,,,,383,NW,"ID",50,aungre,AUNGRE,a,,,,,,0,29,29,322,1
,,,,,,,,,,,,,,,999mp938,2020-07-22_09h38.19.901,lexical_decision_task_MP,2020.1.3,MacIntel,60,,0,-0.402399128,-0.30697928,1,0,0,0.609,button_left,0.609,1,,,,,,335,NW,"ID",33,desion,DESION,a,,,,,,0,30,30,274,1
,,,,,,,,,,,,,,,999mp938,2020-07-22_09h38.19.901,lexical_decision_task_MP,2020.1.3,MacIntel,60,,0,0.461286805,-0.30697928,1,0,0,0.473,button_right,0.473,1,,,,,,96,WORD,"ID",33,ignore,IGNORE,l,,,,,,0,31,31,35,1
,,,,,,,,,,,,,,,999mp938,2020-07-22_09h38.19.901,lexical_decision_task_MP,2020.1.3,MacIntel,60,,0,0.461286805,-0.30697928,1,0,0,0.471,button_right,0.471,1,,,,,,62,WORD,"ID",33,region,REGION,l,,,,,,0,32,32,1,1
,,,,,,,,,,,,,,,999mp938,2020-07-22_09h38.19.901,lexical_decision_task_MP,2020.1.3,MacIntel,60,,0,0.461286805,-0.305888768,1,0,0,0.524,button_right,0.524,1,,,,,,82,WORD,"ID",33,stigma,STIGMA,l,,,,,,0,33,33,21,1
,,,,,,,,,,,,,,,999mp938,2020-07-22_09h38.19.901,lexical_decision_task_MP,2020.1.3,MacIntel,60,,0,0.461286805,-0.30697928,1,0,0,0.531,button_right,0.531,1,,,,,,3,WORD,UN,50,trench,KNIGHT,l,,,,,,0,34,34,182,1
,,,,,,,,,,,,,,,999mp938,2020-07-22_09h38.19.901,lexical_decision_task_MP,2020.1.3,MacIntel,60,,0,0.460196292,-0.303707743,1,0,0,0.849,button_right,0.849,1,,,,,,116,WORD,"ID",33,tumble,TUMBLE,l,,,,,,0,35,35,55,1
,,,,,,,,,,,,,,,999mp938,2020-07-22_09h38.19.901,lexical_decision_task_MP,2020.1.3,MacIntel,60,,0,0.460196292,-0.305888768,1,0,0,0.715,button_right,0.715,1,,,,,,230,WORD,UN,33,mother,FRINGE,l,,,,,,0,36,36,169,1
,,,,,,,,,,,,,,,999mp938,2020-07-22_09h38.19.901,lexical_decision_task_MP,2020.1.3,MacIntel,60,,0,0.460196292,-0.305888768,1,0,0,0.467,button_right,0.467,1,,,,,,130,WORD,"ID",50,stupid,STUPID,l,,,,,,0,37,37,69,1
,,,,,,,,,,,,,,,999mp938,2020-07-22_09h38.19.901,lexical_decision_task_MP,2020.1.3,MacIntel,60,,0,0.460196292,-0.304798255,1,0,0,0.843,button_right,0.843,1,,,,,,9,WORD,UN,50,bridge,HUSTLE,l,,,,,,0,38,38,188,1
,,,,,,,,,,,,,,,999mp938,2020-07-22_09h38.19.901,lexical_decision_task_MP,2020.1.3,MacIntel,60,,0,0.461286805,-0.30697928,1,0,0,0.465,button_right,0.465,1,,,,,,158,WORD,"ID",50,island,ISLAND,l,,,,,,0,39,39,97,1
,,,,,,,,,,,,,,,999mp938,2020-07-22_09h38.19.901,lexical_decision_task_MP,2020.1.3,MacIntel,60,,0,0.45910578,-0.308069793,1,0,0,0.525,button_right,0.525,1,,,,,,44,WORD,UN,50,clergy,DANGER,l,,,,,,0,40,40,223,1
,,,,,,,,,,,,,,,999mp938,2020-07-22_09h38.19.901,lexical_decision_task_MP,2020.1.3,MacIntel,60,,0,0.45910578,-0.308069793,1,0,0,0.612,button_right,0.612,1,,,,,,227,WORD,UN,33,master,SELDOM,l,,,,,,0,41,41,166,1
,,,,,,,,,,,,,,,999mp938,2020-07-22_09h38.19.901,lexical_decision_task_MP,2020.1.3,MacIntel,60,,0,-0.402399128,-0.310250818,1,0,0,0.583,button_left,0.583,1,,,,,,307,NW,"ID",33,kirafe,KIRAFE,a,,,,,,0,42,42,246,1
,,,,,,,,,,,,,,,999mp938,2020-07-22_09h38.19.901,lexical_decision_task_MP,2020.1.3,MacIntel,60,,0,0.461286805,-0.305888768,1,0,0,0.494,button_right,0.494,1,,,,,,118,WORD,"ID",33,flight,FLIGHT,l,,,,,,0,43,43,57,1
,,,,,,,,,,,,,,,999mp938,2020-07-22_09h38.19.901,lexical_decision_task_MP,2020.1.3,MacIntel,60,,0,0.460196292,-0.30697928,1,0,0,0.516,button_right,0.516,1,,,,,,12,WORD,UN,50,strive,ORANGE,l,,,,,,0,44,44,191,1
,,,,,,,,,,,,,,,999mp938,2020-07-22_09h38.19.901,lexical_decision_task_MP,2020.1.3,MacIntel,60,,0,-0.400218103,-0.31134133,1,0,0,0.559,button_left,0.559,1,,,,,,294,NW,UN,50,gleath,INHORT,a,,,,,,0,45,45,473,1
,,,,,,,,,,,,,,,999mp938,2020-07-22_09h38.19.901,lexical_decision_task_MP,2020.1.3,MacIntel,60,,0,-0.401308615,-0.309160305,1,0,0,0.57,button_left,0.57,1,,,,,,357,NW,"ID",33,derain,DERAIN,a,,,,,,0,46,46,296,1
,,,,,,,,,,,,,,,999mp938,2020-07-22_09h38.19.901,lexical_decision_task_MP,2020.1.3,MacIntel,60,,0,-0.404580153,-0.309160305,1,0,0,0.495,button_left,0.495,1,,,,,,312,NW,"ID",33,nerawl,NERAWL,a,,,,,,0,47,47,251,1
,,,,,,,,,,,,,,,999mp938,2020-07-22_09h38.19.901,lexical_decision_task_MP,2020.1.3,MacIntel,60,,0,-0.400218103,-0.310250818,1,0,0,0.546,button_left,0.546,1,,,,,,256,NW,UN,50,veniod,INLORS,a,,,,,,0,48,48,435,1
,,,,,,,,,,,,,,,999mp938,2020-07-22_09h38.19.901,lexical_decision_task_MP,2020.1.3,MacIntel,60,,0,-0.401308615,-0.309160305,1,0,0,0.651,button_left,0.651,1,,,,,,345,NW,"ID",33,absend,ABSEND,a,,,,,,0,49,49,284,1
,,,,,,,,,,,,,,,999mp938,2020-07-22_09h38.19.901,lexical_decision_task_MP,2020.1.3,MacIntel,60,,0,-0.404580153,-0.308069793,1,0,0,0.58,button_left,0.58,1,,,,,,469,NW,UN,33,crudio,PADIFS,a,,,,,,0,50,50,408,1
,,,,,,,,,,,,,,,999mp938,2020-07-22_09h38.19.901,lexical_decision_task_MP,2020.1.3,MacIntel,60,,0,-0.40348964,-0.30697928,1,0,0,0.569,button_left,0.569,1,,,,,,475,NW,UN,33,josted,PEBRIC,a,,,,,,0,51,51,414,1
,,,,,,,,,,,,,,,999mp938,2020-07-22_09h38.19.901,lexical_decision_task_MP,2020.1.3,MacIntel,60,,0,0.464558342,-0.305888768,1,0,0,0.621,button_right,0.621,1,,,,,,64,WORD,"ID",33,throne,THRONE,l,,,,,,0,52,52,3,1
,,,,,,,,,,,,,,,999mp938,2020-07-22_09h38.19.901,lexical_decision_task_MP,2020.1.3,MacIntel,60,,0,0.465648855,-0.304798255,1,0,0,0.515,button_right,0.515,1,,,,,,192,WORD,UN,33,object,PLAGUE,l,,,,,,0,53,53,131,1
,,,,,,,,,,,,,,,999mp938,2020-07-22_09h38.19.901,lexical_decision_task_MP,2020.1.3,MacIntel,60,,0,0.465648855,-0.304798255,1,0,0,0.491,button_right,0.491,1,,,,,,209,WORD,UN,33,monkey,SEARCH,l,,,,,,0,54,54,148,1
,,,,,,,,,,,,,,,999mp938,2020-07-22_09h38.19.901,lexical_decision_task_MP,2020.1.3,MacIntel,60,,0,0.46346783,-0.30697928,1,0,0,0.539,button_right,0.539,1,,,,,,212,WORD,UN,33,squeal,VERIFY,l,,,,,,0,55,55,151,1
,,,,,,,,,,,,,,,999mp938,2020-07-22_09h38.19.901,lexical_decision_task_MP,2020.1.3,MacIntel,60,,0,0.465648855,-0.304798255,1,0,0,0.565,button_right,0.565,1,,,,,,197,WORD,UN,33,wicked,STREAM,l,,,,,,0,56,56,136,1
,,,,,,,,,,,,,,,999mp938,2020-07-22_09h38.19.901,lexical_decision_task_MP,2020.1.3,MacIntel,60,,0,0.464558342,-0.305888768,1,0,0,0.597,button_right,0.597,1,,,,,,124,WORD,"ID",50,blouse,BLOUSE,l,,,,,,0,57,57,63,1
,,,,,,,,,,,,,,,999mp938,2020-07-22_09h38.19.901,lexical_decision_task_MP,2020.1.3,MacIntel,60,,0,-0.402399128,-0.304798255,1,0,0,0.567,button_left,0.567,1,,,,,,444,NW,UN,33,minkel,JAUNCE,a,,,,,,0,58,58,383,1
,,,,,,,,,,,,,,,999mp938,2020-07-22_09h38.19.901,lexical_decision_task_MP,2020.1.3,MacIntel,60,,0,0.465648855,-0.305888768,1,0,0,0.446,button_right,0.446,1,,,,,,164,WORD,"ID",50,market,MARKET,l,,,,,,0,59,59,103,1
,,,,,,,,,,,,,,,999mp938,2020-07-22_09h38.19.901,lexical_decision_task_MP,2020.1.3,MacIntel,60,,0,0.465648855,-0.303707743,1,0,0,0.566,button_right,0.566,1,,,,,,49,WORD,UN,50,snatch,SURVEY,l,,,,,,0,60,60,228,1
,,,,,,,,,,,,,,,999mp938,2020-07-22_09h38.19.901,lexical_decision_task_MP,2020.1.3,MacIntel,60,,0,-0.400218103,-0.305888768,1,0,0,0.499,button_left,0.499,1,,,,,,290,NW,UN,50,pretch,SPLINO,a,,,,,,0,61,61,469,1
,,,,,,,,,,,,,,,999mp938,2020-07-22_09h38.19.901,lexical_decision_task_MP,2020.1.3,MacIntel,60,,0,0.466739368,-0.304798255,1,0,0,0.509,button_right,0.509,0,,,,,,425,NW,UN,33,urivel,FRUDGE,a,,,,,,0,62,62,364,1
,,,,,,,,,,,,,,,999mp938,2020-07-22_09h38.19.901,lexical_decision_task_MP,2020.1.3,MacIntel,60,,0,-0.396946565,-0.305888768,1,0,0,0.638,button_left,0.638,1,,,,,,275,NW,UN,50,yarmon,SLEIRT,a,,,,,,0,63,63,454,1
,,,,,,,,,,,,,,,999mp938,2020-07-22_09h38.19.901,lexical_decision_task_MP,2020.1.3,MacIntel,60,,0,-0.402399128,-0.304798255,1,0,0,0.523,button_left,0.523,1,,,,,,433,NW,UN,33,pitrom,DRANCE,a,,,,,,0,64,64,372,1
,,,,,,,,,,,,,,,999mp938,2020-07-22_09h38.19.901,lexical_decision_task_MP,2020.1.3,MacIntel,60,,0,-0.404580153,-0.303707743,1,0,0,0.498,button_left,0.498,1,,,,,,302,NW,"ID",33,miluer,MILUER,a,,,,,,0,65,65,241,1
,,,,,,,,,,,,,,,999mp938,2020-07-22_09h38.19.901,lexical_decision_task_MP,2020.1.3,MacIntel,60,,0,0.464558342,-0.30697928,1,0,0,0.791,button_right,0.791,1,,,,,,33,WORD,UN,50,jungle,BUTLER,l,,,,,,0,66,66,212,1
,,,,,,,,,,,,,,,999mp938,2020-07-22_09h38.19.901,lexical_decision_task_MP,2020.1.3,MacIntel,60,,0,-0.40348964,-0.303707743,1,0,0,0.532,button_left,0.532,1,,,,,,263,NW,UN,50,vackel,DOLICA,a,,,,,,0,67,67,442,1
,,,,,,,,,,,,,,,999mp938,2020-07-22_09h38.19.901,lexical_decision_task_MP,2020.1.3,MacIntel,60,,0,0.466739368,-0.304798255,1,0,0,0.54,button_right,0.54,1,,,,,,87,WORD,"ID",33,filter,FILTER,l,,,,,,0,68,68,26,1
,,,,,,,,,,,,,,,999mp938,2020-07-22_09h38.19.901,lexical_decision_task_MP,2020.1.3,MacIntel,60,,0,0.465648855,-0.305888768,1,0,0,0.466,button_right,0.466,1,,,,,,73,WORD,"ID",33,source,SOURCE,l,,,,,,0,69,69,12,1
,,,,,,,,,,,,,,,999mp938,2020-07-22_09h38.19.901,lexical_decision_task_MP,2020.1.3,MacIntel,60,,0,-0.402399128,-0.304798255,1,0,0,0.477,button_left,0.477,1,,,,,,415,NW,"ID",50,higsta,HIGSTA,a,,,,,,0,70,70,354,1
,,,,,,,,,,,,,,,999mp938,2020-07-22_09h38.19.901,lexical_decision_task_MP,2020.1.3,MacIntel,60,,0,-0.40348964,-0.304798255,1,0,0,0.472,button_left,0.472,1,,,,,,244,NW,UN,50,anougs,EATRIC,a,,,,,,0,71,71,423,1
,,,,,,,,,,,,,,,999mp938,2020-07-22_09h38.19.901,lexical_decision_task_MP,2020.1.3,MacIntel,60,,0,-0.402399128,-0.305888768,1,0,0,0.711,button_left,0.711,1,,,,,,277,NW,UN,50,unighs,PETAIN,a,,,,,,0,72,72,456,1
,,,,,,,,,,,,,,,999mp938,2020-07-22_09h38.19.901,lexical_decision_task_MP,2020.1.3,MacIntel,60,,0,0.46346783,-0.30697928,1,0,0,0.581,button_right,0.581,1,,,,,,236,WORD,UN,33,grumpy,PIRATE,l,,,,,,0,73,73,175,1
,,,,,,,,,,,,,,,999mp938,2020-07-22_09h38.19.901,lexical_decision_task_MP,2020.1.3,MacIntel,60,,0,-0.405670665,-0.304798255,1,0,0,0.6,button_left,0.6,1,,,,,,287,NW,UN,50,yaceup,NYMBEL,a,,,,,,0,74,74,466,1
,,,,,,,,,,,,,,,999mp938,2020-07-22_09h38.19.901,lexical_decision_task_MP,2020.1.3,MacIntel,60,,0,0.465648855,-0.30697928,1,0,0,0.5,button_right,0.5,1,,,,,,191,WORD,UN,33,beacon,STABLE,l,,,,,,0,75,75,130,1
,,,,,,,,,,,,,,,999mp938,2020-07-22_09h38.19.901,lexical_decision_task_MP,2020.1.3,MacIntel,60,,0,-0.40348964,-0.304798255,1,0,0,0.62,button_left,0.62,1,,,,,,480,NW,UN,33,knisma,ROBULY,a,,,,,,0,76,76,419,1
,,,,,,,,,,,,,,,999mp938,2020-07-22_09h38.19.901,lexical_decision_task_MP,2020.1.3,MacIntel,60,,0,0.465648855,-0.30697928,1,0,0,0.551,button_right,0.551,1,,,,,,79,WORD,"ID",33,theory,THEORY,l,,,,,,0,77,77,18,1
,,,,,,,,,,,,,,,999mp938,2020-07-22_09h38.19.901,lexical_decision_task_MP,2020.1.3,MacIntel,60,,0,0.465648855,-0.305888768,1,0,0,0.516,button_right,0.516,1,,,,,,97,WORD,"ID",33,client,CLIENT,l,,,,,,0,78,78,36,1
,,,,,,,,,,,,,,,999mp938,2020-07-22_09h38.19.901,lexical_decision_task_MP,2020.1.3,MacIntel,60,,0,0.465648855,-0.305888768,1,0,0,0.42,button_right,0.42,1,,,,,,100,WORD,"ID",33,carbon,CARBON,l,,,,,,0,79,79,39,1
,,,,,,,,,,,,,,,999mp938,2020-07-22_09h38.19.901,lexical_decision_task_MP,2020.1.3,MacIntel,60,,0,-0.402399128,-0.304798255,1,0,0,0.489,button_left,0.489,1,,,,,,268,NW,UN,50,orchet,PACKES,a,,,,,,0,80,80,447,1
,,,,,,,,,,,,,,,999mp938,2020-07-22_09h38.19.901,lexical_decision_task_MP,2020.1.3,MacIntel,60,,0,0.465648855,-0.305888768,1,0,0,0.744,button_right,0.744,1,,,,,,112,WORD,"ID",33,breath,BREATH,l,,,,,,0,81,81,51,1
,,,,,,,,,,,,,,,999mp938,2020-07-22_09h38.19.901,lexical_decision_task_MP,2020.1.3,MacIntel,60,,0,-0.402399128,-0.304798255,1,0,0,0.657,button_left,0.657,1,,,,,,341,NW,"ID",33,myrtie,MYRTIE,a,,,,,,0,82,82,280,1
,,,,,,,,,,,,,,,999mp938,2020-07-22_09h38.19.901,lexical_decision_task_MP,2020.1.3,MacIntel,60,,0,0.468920393,-0.303707743,1,0,0,0.583,button_right,0.583,1,,,,,,151,WORD,"ID",50,mystic,MYSTIC,l,,,,,,0,83,83,90,1
,,,,,,,,,,,,,,,999mp938,2020-07-22_09h38.19.901,lexical_decision_task_MP,2020.1.3,MacIntel,60,,0,-0.40348964,-0.303707743,1,0,0,0.632,button_left,0.632,1,,,,,,404,NW,"ID",50,cluirm,CLUIRM,a,,,,,,0,84,84,343,1
,,,,,,,,,,,,,,,999mp938,2020-07-22_09h38.19.901,lexical_decision_task_MP,2020.1.3,MacIntel,60,,0,-0.405670665,-0.303707743,1,0,0,0.582,button_left,0.582,1,,,,,,376,NW,"ID",50,iguare,IGUARE,a,,,,,,0,85,85,315,1
,,,,,,,,,,,,,,,999mp938,2020-07-22_09h38.19.901,lexical_decision_task_MP,2020.1.3,MacIntel,60,,0,0.46782988,-0.304798255,1,0,0,0.577,button_right,0.577,1,,,,,,69,WORD,"ID",33,plenty,PLENTY,l,,,,,,0,86,86,8,1
,,,,,,,,,,,,,,,999mp938,2020-07-22_09h38.19.901,lexical_decision_task_MP,2020.1.3,MacIntel,60,,0,-0.40348964,-0.303707743,1,0,0,0.572,button_left,0.572,0,,,,,,196,WORD,UN,33,stream,CREDIT,l,,,,,,0,87,87,135,1
,,,,,,,,,,,,,,,999mp938,2020-07-22_09h38.19.901,lexical_decision_task_MP,2020.1.3,MacIntel,60,,0,0.46782988,-0.304798255,1,0,0,0.443,button_right,0.443,1,,,,,,187,WORD,UN,33,social,COURSE,l,,,,,,0,88,88,126,1
,,,,,,,,,,,,,,,999mp938,2020-07-22_09h38.19.901,lexical_decision_task_MP,2020.1.3,MacIntel,60,,0,-0.404580153,-0.303707743,1,0,0,0.553,button_left,0.553,1,,,,,,326,NW,"ID",33,iguade,IGUADE,a,,,,,,0,89,89,265,1
,,,,,,,,,,,,,,,999mp938,2020-07-22_09h38.19.901,lexical_decision_task_MP,2020.1.3,MacIntel,60,,0,-0.404580153,-0.303707743,1,0,0,0.633,button_left,0.633,1,,,,,,443,NW,UN,33,jaunce,DORSEX,a,,,,,,0,90,90,382,1
,,,,,,,,,,,,,,,999mp938,2020-07-22_09h38.19.901,lexical_decision_task_MP,2020.1.3,MacIntel,60,,0,0.46782988,-0.304798255,1,0,0,0.605,button_right,0.605,1,,,,,,21,WORD,UN,50,jockey,SIMPLE,l,,,,,,0,91,91,200,1
,,,,,,,,,,,,,,,999mp938,2020-07-22_09h38.19.901,lexical_decision_task_MP,2020.1.3,MacIntel,60,,0,0.468920393,-0.30261723,1,0,0,0.587,button_right,0.587,1,,,,,,38,WORD,UN,50,insect,POWDER,l,,,,,,0,92,92,217,1
,,,,,,,,,,,,,,,999mp938,2020-07-22_09h38.19.901,lexical_decision_task_MP,2020.1.3,MacIntel,60,,0,0.468920393,-0.30261723,1,0,0,0.54,button_right,0.54,1,,,,,,203,WORD,UN,33,burden,PHRASE,l,,,,,,0,93,93,142,1
,,,,,,,,,,,,,,,999mp938,2020-07-22_09h38.19.901,lexical_decision_task_MP,2020.1.3,MacIntel,60,,0,0.468920393,-0.303707743,1,0,0,0.555,button_right,0.555,1,,,,,,114,WORD,"ID",33,placid,PLACID,l,,,,,,0,94,94,53,1
,,,,,,,,,,,,,,,999mp938,2020-07-22_09h38.19.901,lexical_decision_task_MP,2020.1.3,MacIntel,60,,0,-0.400218103,-0.309160305,1,0,0,0.654,button_left,0.654,1,,,,,,418,NW,"ID",50,suidle,SUIDLE,a,,,,,,0,95,95,357,1
,,,,,,,,,,,,,,,999mp938,2020-07-22_09h38.19.901,lexical_decision_task_MP,2020.1.3,MacIntel,60,,0,0.473282443,-0.301526718,1,0,0,0.456,button_right,0.456,1,,,,,,78,WORD,"ID",33,column,COLUMN,l,,,,,,0,96,96,17,1
,,,,,,,,,,,,,,,999mp938,2020-07-22_09h38.19.901,lexical_decision_task_MP,2020.1.3,MacIntel,60,,0,0.471101418,-0.300436205,1,0,0,0.702,button_right,0.702,1,,,,,,101,WORD,"ID",33,wrench,WRENCH,l,,,,,,0,97,97,40,1
,,,,,,,,,,,,,,,999mp938,2020-07-22_09h38.19.901,lexical_decision_task_MP,2020.1.3,MacIntel,60,,0,-0.404580153,-0.305888768,1,0,0,0.679,button_left,0.679,1,,,,,,375,NW,"ID",50,yorque,YORQUE,a,,,,,,0,98,98,314,1
,,,,,,,,,,,,,,,999mp938,2020-07-22_09h38.19.901,lexical_decision_task_MP,2020.1.3,MacIntel,60,,0,-0.405670665,-0.303707743,1,0,0,0.569,button_left,0.569,1,,,,,,395,NW,"ID",50,colury,COLURY,a,,,,,,0,99,99,334,1
,,,,,,,,,,,,,,,999mp938,2020-07-22_09h38.19.901,lexical_decision_task_MP,2020.1.3,MacIntel,60,,0,-0.404580153,-0.303707743,1,0,0,0.797,button_left,0.797,0,,,,,,206,WORD,UN,33,wreath,TAILOR,l,,,,,,0,100,100,145,1
,,,,,,,,,,,,,,,999mp938,2020-07-22_09h38.19.901,lexical_decision_task_MP,2020.1.3,MacIntel,60,,0,0.468920393,-0.30261723,1,0,0,0.55,button_right,0.55,1,,,,,,55,WORD,UN,50,ambush,STROKE,l,,,,,,0,101,101,234,1
,,,,,,,,,,,,,,,999mp938,2020-07-22_09h38.19.901,lexical_decision_task_MP,2020.1.3,MacIntel,60,,0,0.46782988,-0.30261723,1,0,0,0.765,button_right,0.765,1,,,,,,133,WORD,"ID",50,chrome,CHROME,l,,,,,,0,102,102,72,1
,,,,,,,,,,,,,,,999mp938,2020-07-22_09h38.19.901,lexical_decision_task_MP,2020.1.3,MacIntel,60,,0,0.471101418,-0.301526718,1,0,0,0.582,button_right,0.582,0,,,,,,322,NW,"ID",33,slanch,SLANCH,a,,,,,,0,103,103,261,1
,,,,,,,,,,,,,,,999mp938,2020-07-22_09h38.19.901,lexical_decision_task_MP,2020.1.3,MacIntel,60,,0,0.471101418,-0.299345692,1,0,0,0.758,button_right,0.758,1,,,,,,16,WORD,UN,50,charge,FAUCET,l,,,,,,0,104,104,195,1
,,,,,,,,,,,,,,,999mp938,2020-07-22_09h38.19.901,lexical_decision_task_MP,2020.1.3,MacIntel,60,,0,-0.405670665,-0.303707743,1,0,0,0.587,button_left,0.587,1,,,,,,321,NW,"ID",33,miator,MIATOR,a,,,,,,0,105,105,260,1
,,,,,,,,,,,,,,,999mp938,2020-07-22_09h38.19.901,lexical_decision_task_MP,2020.1.3,MacIntel,60,,0,-0.405670665,-0.303707743,1,0,0,0.814,button_left,0.814,1,,,,,,343,NW,"ID",33,aimosy,AIMOSY,a,,,,,,0,106,106,282,1
,,,,,,,,,,,,,,,999mp938,2020-07-22_09h38.19.901,lexical_decision_task_MP,2020.1.3,MacIntel,60,,0,0.471101418,-0.300436205,1,0,0,0.499,button_right,0.499,1,,,,,,208,WORD,UN,33,search,HOCKEY,l,,,,,,0,107,107,147,1
,,,,,,,,,,,,,,,999mp938,2020-07-22_09h38.19.901,lexical_decision_task_MP,2020.1.3,MacIntel,60,,0,-0.405670665,-0.303707743,1,0,0,0.569,button_left,0.569,1,,,,,,472,NW,UN,33,gorbie,CIGNEY,a,,,,,,0,108,108,411,1
,,,,,,,,,,,,,,,999mp938,2020-07-22_09h38.19.901,lexical_decision_task_MP,2020.1.3,MacIntel,60,,0,0.471101418,-0.300436205,1,0,0,0.608,button_right,0.608,1,,,,,,42,WORD,UN,50,tongue,CHAPEL,l,,,,,,0,109,109,221,1
,,,,,,,,,,,,,,,999mp938,2020-07-22_09h38.19.901,lexical_decision_task_MP,2020.1.3,MacIntel,60,,0,0.474372955,-0.300436205,1,0,0,0.463,button_right,0.463,1,,,,,,88,WORD,"ID",33,hunger,HUNGER,l,,,,,,0,110,110,27,1
,,,,,,,,,,,,,,,999mp938,2020-07-22_09h38.19.901,lexical_decision_task_MP,2020.1.3,MacIntel,60,,0,0.471101418,-0.301526718,1,0,0,0.539,button_right,0.539,1,,,,,,223,WORD,UN,33,period,KIDNEY,l,,,,,,0,111,111,162,1
,,,,,,,,,,,,,,,999mp938,2020-07-22_09h38.19.901,lexical_decision_task_MP,2020.1.3,MacIntel,60,,0,0.471101418,-0.300436205,1,0,0,0.498,button_right,0.498,1,,,,,,182,WORD,UN,33,absent,WINTER,l,,,,,,0,112,112,121,1
,,,,,,,,,,,,,,,999mp938,2020-07-22_09h38.19.901,lexical_decision_task_MP,2020.1.3,MacIntel,60,,0,0.473282443,-0.29825518,1,0,0,0.68,button_right,0.68,1,,,,,,219,WORD,UN,33,voyage,BUCKET,l,,,,,,0,113,113,158,1
,,,,,,,,,,,,,,,999mp938,2020-07-22_09h38.19.901,lexical_decision_task_MP,2020.1.3,MacIntel,60,,0,-0.405670665,-0.303707743,1,0,0,0.655,button_left,0.655,1,,,,,,379,NW,"ID",50,auting,AUTING,a,,,,,,0,114,114,318,1
,,,,,,,,,,,,,,,999mp938,2020-07-22_09h38.19.901,lexical_decision_task_MP,2020.1.3,MacIntel,60,,0,0.474372955,-0.296074155,1,0,0,0.754,button_right,0.754,1,,,,,,40,WORD,UN,50,spring,CONVEY,l,,,,,,0,115,115,219,1
,,,,,,,,,,,,,,,999mp938,2020-07-22_09h38.19.901,lexical_decision_task_MP,2020.1.3,MacIntel,60,,0,-0.404580153,-0.30697928,1,0,0,0.539,button_left,0.539,1,,,,,,280,NW,UN,50,melaty,CURBOL,a,,,,,,0,116,116,459,1
,,,,,,,,,,,,,,,999mp938,2020-07-22_09h38.19.901,lexical_decision_task_MP,2020.1.3,MacIntel,60,,0,0.477644493,-0.299345692,1,0,0,0.532,button_right,0.532,1,,,,,,83,WORD,"ID",33,result,RESULT,l,,,,,,0,117,117,22,1
,,,,,,,,,,,,,,,999mp938,2020-07-22_09h38.19.901,lexical_decision_task_MP,2020.1.3,MacIntel,60,,0,0.474372955,-0.299345692,1,0,0,0.855,button_right,0.855,1,,,,,,2,WORD,UN,50,knight,BRIDGE,l,,,,,,0,118,118,181,1
,,,,,,,,,,,,,,,999mp938,2020-07-22_09h38.19.901,lexical_decision_task_MP,2020.1.3,MacIntel,60,,0,-0.408942203,-0.30261723,1,0,0,0.667,button_left,0.667,1,,,,,,398,NW,"ID",50,blunde,BLUNDE,a,,,,,,0,119,119,337,1
,,,,,,,,,,,,,,,999mp938,2020-07-22_09h38.19.901,lexical_decision_task_MP,2020.1.3,MacIntel,60,,0,-0.404580153,-0.304798255,1,0,0,0.57,button_left,0.57,1,,,,,,317,NW,"ID",33,worbal,WORBAL,a,,,,,,0,120,120,256,1
,,,,,,,,,,,,,,,999mp938,2020-07-22_09h38.19.901,lexical_decision_task_MP,2020.1.3,MacIntel,60,,0,0.478735005,-0.296074155,1,0,0,0.51,button_right,0.51,1,,,,,,224,WORD,UN,33,vulgar,PERIOD,l,,,,,,0,121,121,163,1
,,,,,,,,,,,,,,,999mp938,2020-07-22_09h38.19.901,lexical_decision_task_MP,2020.1.3,MacIntel,60,,0,-0.405670665,-0.303707743,1,0,0,0.587,button_left,0.587,1,,,,,,337,NW,"ID",33,rejols,REJOLS,a,,,,,,0,122,122,276,1
,,,,,,,,,,,,,,,999mp938,2020-07-22_09h38.19.901,lexical_decision_task_MP,2020.1.3,MacIntel,60,,0,-0.40348964,-0.303707743,1,0,0,0.535,button_left,0.535,1,,,,,,451,NW,UN,33,surden,CAINKY,a,,,,,,0,123,123,390,1
,,,,,,,,,,,,,,,999mp938,2020-07-22_09h38.19.901,lexical_decision_task_MP,2020.1.3,MacIntel,60,,0,-0.404580153,-0.303707743,1,0,0,0.661,button_left,0.661,1,,,,,,431,NW,UN,33,lunker,CHRUMS,a,,,,,,0,124,124,370,1
,,,,,,,,,,,,,,,999mp938,2020-07-22_09h38.19.901,lexical_decision_task_MP,2020.1.3,MacIntel,60,,0,-0.405670665,-0.301526718,1,0,0,0.668,button_left,0.668,1,,,,,,370,NW,"ID",50,sleact,SLEACT,a,,,,,,0,125,125,309,1
,,,,,,,,,,,,,,,999mp938,2020-07-22_09h38.19.901,lexical_decision_task_MP,2020.1.3,MacIntel,60,,0,0.477644493,-0.297164667,1,0,0,0.497,button_right,0.497,1,,,,,,193,WORD,UN,33,mildew,OBJECT,l,,,,,,0,126,126,132,1
,,,,,,,,,,,,,,,999mp938,2020-07-22_09h38.19.901,lexical_decision_task_MP,2020.1.3,MacIntel,60,,0,0.47655398,-0.29825518,1,0,0,0.526,button_right,0.526,1,,,,,,1,WORD,UN,50,ethnic,FRIGHT,l,,,,,,0,127,127,180,1
,,,,,,,,,,,,,,,999mp938,2020-07-22_09h38.19.901,lexical_decision_task_MP,2020.1.3,MacIntel,60,,0,0.477644493,-0.296074155,1,0,0,0.515,button_right,0.515,1,,,,,,113,WORD,"ID",33,chorus,CHORUS,l,,,,,,0,128,128,52,1
,,,,,,,,,,,,,,,999mp938,2020-07-22_09h38.19.901,lexical_decision_task_MP,2020.1.3,MacIntel,60,,0,0.478735005,-0.296074155,1,0,0,0.48,button_right,0.48,1,,,,,,58,WORD,UN,50,splint,FOSTER,l,,,,,,0,129,129,237,1
,,,,,,,,,,,,,,,999mp938,2020-07-22_09h38.19.901,lexical_decision_task_MP,2020.1.3,MacIntel,60,,0,0.478735005,-0.29825518,1,0,0,0.521,button_right,0.521,1,,,,,,137,WORD,"ID",50,finger,FINGER,l,,,,,,0,130,130,76,1
,,,,,,,,,,,,,,,999mp938,2020-07-22_09h38.19.901,lexical_decision_task_MP,2020.1.3,MacIntel,60,,0,0.47655398,-0.296074155,1,0,0,0.534,button_right,0.534,1,,,,,,194,WORD,UN,33,resign,ABSENT,l,,,,,,0,131,131,133,1
,,,,,,,,,,,,,,,999mp938,2020-07-22_09h38.19.901,lexical_decision_task_MP,2020.1.3,MacIntel,60,,0,-0.406761178,-0.30261723,1,0,0,0.555,button_left,0.555,1,,,,,,333,NW,"ID",33,catrie,CATRIE,a,,,,,,0,132,132,272,1
,,,,,,,,,,,,,,,999mp938,2020-07-22_09h38.19.901,lexical_decision_task_MP,2020.1.3,MacIntel,60,,0,-0.408942203,-0.300436205,1,0,0,0.511,button_left,0.511,1,,,,,,377,NW,"ID",50,injore,INJORE,a,,,,,,0,133,133,316,1
,,,,,,,,,,,,,,,999mp938,2020-07-22_09h38.19.901,lexical_decision_task_MP,2020.1.3,MacIntel,60,,0,-0.405670665,-0.30261723,1,0,0,0.523,button_left,0.523,1,,,,,,289,NW,UN,50,splino,STARBY,a,,,,,,0,134,134,468,1
,,,,,,,,,,,,,,,999mp938,2020-07-22_09h38.19.901,lexical_decision_task_MP,2020.1.3,MacIntel,60,,0,0.47655398,-0.297164667,1,0,0,0.711,button_right,0.711,1,,,,,,18,WORD,UN,50,patron,HUMBLE,l,,,,,,0,135,135,197,1
,,,,,,,,,,,,,,,999mp938,2020-07-22_09h38.19.901,lexical_decision_task_MP,2020.1.3,MacIntel,60,,0,-0.415485278,-0.297164667,1,0,0,0.862,button_left,0.862,0,,,,,,176,WORD,"ID",50,strife,STRIFE,l,,,,,,0,136,136,115,1
,,,,,,,,,,,,,,,999mp938,2020-07-22_09h38.19.901,lexical_decision_task_MP,2020.1.3,MacIntel,60,,0,0.47655398,-0.29825518,1,0,0,0.549,button_right,0.549,1,,,,,,26,WORD,UN,50,butler,SPRINT,l,,,,,,0,137,137,205,1
,,,,,,,,,,,,,,,999mp938,2020-07-22_09h38.19.901,lexical_decision_task_MP,2020.1.3,MacIntel,60,,0,-0.41221374,-0.300436205,1,0,0,0.519,button_left,0.519,1,,,,,,259,NW,UN,50,unject,SOUDAL,a,,,,,,0,138,138,438,1
,,,,,,,,,,,,,,,999mp938,2020-07-22_09h38.19.901,lexical_decision_task_MP,2020.1.3,MacIntel,60,,0,-0.410032715,-0.300436205,1,0,0,0.536,button_left,0.536,1,,,,,,385,NW,"ID",50,veigma,VEIGMA,a,,,,,,0,139,139,324,1
,,,,,,,,,,,,,,,999mp938,2020-07-22_09h38.19.901,lexical_decision_task_MP,2020.1.3,MacIntel,60,,0,-0.410032715,-0.301526718,1,0,0,0.549,button_left,0.549,1,,,,,,476,NW,UN,33,photie,JOSTED,a,,,,,,0,140,140,415,1
,,,,,,,,,,,,,,,999mp938,2020-07-22_09h38.19.901,lexical_decision_task_MP,2020.1.3,MacIntel,60,,0,0.474372955,-0.299345692,1,0,0,0.933,button_right,0.933,1,,,,,,90,WORD,"ID",33,relish,RELISH,l,,,,,,0,141,141,29,1
,,,,,,,,,,,,,,,999mp938,2020-07-22_09h38.19.901,lexical_decision_task_MP,2020.1.3,MacIntel,60,,0,-0.411123228,-0.300436205,1,0,0,0.484,button_left,0.484,1,,,,,,362,NW,"ID",50,tireau,TIREAU,a,,,,,,0,142,142,301,1
,,,,,,,,,,,,,,,999mp938,2020-07-22_09h38.19.901,lexical_decision_task_MP,2020.1.3,MacIntel,60,,0,-0.411123228,-0.300436205,1,0,0,0.604,button_left,0.604,1,,,,,,306,NW,"ID",33,sounge,SOUNGE,a,,,,,,0,143,143,245,1
,,,,,,,,,,,,,,,999mp938,2020-07-22_09h38.19.901,lexical_decision_task_MP,2020.1.3,MacIntel,60,,0,0.475463468,-0.29825518,1,0,0,0.606,button_right,0.606,1,,,,,,50,WORD,UN,50,hungry,SNATCH,l,,,,,,0,144,144,229,1
,,,,,,,,,,,,,,,999mp938,2020-07-22_09h38.19.901,lexical_decision_task_MP,2020.1.3,MacIntel,60,,0,-0.41221374,-0.299345692,1,0,0,0.537,button_left,0.537,1,,,,,,251,NW,UN,50,stapod,LUPICT,a,,,,,,0,145,145,430,1
,,,,,,,,,,,,,,,999mp938,2020-07-22_09h38.19.901,lexical_decision_task_MP,2020.1.3,MacIntel,60,,0,-0.411123228,-0.300436205,1,0,0,0.654,button_left,0.654,1,,,,,,291,NW,UN,50,ablint,PRETCH,a,,,,,,0,146,146,470,1
,,,,,,,,,,,,,,,999mp938,2020-07-22_09h38.19.901,lexical_decision_task_MP,2020.1.3,MacIntel,60,,0,0.47655398,-0.303707743,1,0,0,0.55,button_right,0.55,1,,,,,,238,WORD,UN,33,behalf,FLOWER,l,,,,,,0,147,147,177,1
,,,,,,,,,,,,,,,999mp938,2020-07-22_09h38.19.901,lexical_decision_task_MP,2020.1.3,MacIntel,60,,0,-0.413304253,-0.300436205,1,0,0,0.716,button_left,0.716,1,,,,,,339,NW,"ID",33,fachow,FACHOW,a,,,,,,0,148,148,278,1
,,,,,,,,,,,,,,,999mp938,2020-07-22_09h38.19.901,lexical_decision_task_MP,2020.1.3,MacIntel,60,,0,-0.416575791,-0.29825518,1,0,0,0.517,button_left,0.517,1,,,,,,288,NW,UN,50,starby,YACEUP,a,,,,,,0,149,149,467,1
,,,,,,,,,,,,,,,999mp938,2020-07-22_09h38.19.901,lexical_decision_task_MP,2020.1.3,MacIntel,60,,0,0.482006543,-0.300436205,1,0,0,0.549,button_right,0.549,1,,,,,,162,WORD,"ID",50,candle,CANDLE,l,,,,,,0,150,150,101,1
,,,,,,,,,,,,,,,999mp938,2020-07-22_09h38.19.901,lexical_decision_task_MP,2020.1.3,MacIntel,60,,0,-0.416575791,-0.29825518,1,0,0,0.546,button_left,0.546,1,,,,,,283,NW,UN,50,shaple,VERALF,a,,,,,,0,151,151,462,1
,,,,,,,,,,,,,,,999mp938,2020-07-22_09h38.19.901,lexical_decision_task_MP,2020.1.3,MacIntel,60,,0,-0.418756816,-0.296074155,1,0,0,0.481,button_left,0.481,1,,,,,,242,NW,UN,50,musied,UNWERT,a,,,,,,0,152,152,421,1
,,,,,,,,,,,,,,,999mp938,2020-07-22_09h38.19.901,lexical_decision_task_MP,2020.1.3,MacIntel,60,,0,-0.419847328,-0.297164667,1,0,0,0.598,button_left,0.598,1,,,,,,336,NW,"ID",33,ghodus,GHODUS,a,,,,,,0,153,153,275,1
,,,,,,,,,,,,,,,999mp938,2020-07-22_09h38.19.901,lexical_decision_task_MP,2020.1.3,MacIntel,60,,0,-0.418756816,-0.296074155,1,0,0,0.641,button_left,0.641,0,,,,,,142,WORD,"ID",50,spruce,SPRUCE,l,,,,,,0,154,154,81,1
,,,,,,,,,,,,,,,999mp938,2020-07-22_09h38.19.901,lexical_decision_task_MP,2020.1.3,MacIntel,60,,0,0.482006543,-0.299345692,1,0,0,0.482,button_right,0.482,1,,,,,,188,WORD,UN,33,censor,SOCIAL,l,,,,,,0,155,155,127,1
,,,,,,,,,,,,,,,999mp938,2020-07-22_09h38.19.901,lexical_decision_task_MP,2020.1.3,MacIntel,60,,0,0.482006543,-0.300436205,1,0,0,0.439,button_right,0.439,1,,,,,,61,WORD,"ID",33,ponder,PONDER,l,,,,,,0,156,156,0,1
,,,,,,,,,,,,,,,999mp938,2020-07-22_09h38.19.901,lexical_decision_task_MP,2020.1.3,MacIntel,60,,0,0.483097056,-0.299345692,1,0,0,0.483,button_right,0.483,1,,,,,,13,WORD,UN,50,almost,STRIVE,l,,,,,,0,157,157,192,1
,,,,,,,,,,,,,,,999mp938,2020-07-22_09h38.19.901,lexical_decision_task_MP,2020.1.3,MacIntel,60,,0,0.482006543,-0.300436205,1,0,0,0.619,button_right,0.619,1,,,,,,8,WORD,UN,50,hustle,ABRUPT,l,,,,,,0,158,158,187,1
,,,,,,,,,,,,,,,999mp938,2020-07-22_09h38.19.901,lexical_decision_task_MP,2020.1.3,MacIntel,60,,0,-0.416575791,-0.296074155,1,0,0,0.6,button_left,0.6,1,,,,,,257,NW,UN,50,poluth,VENIOD,a,,,,,,0,159,159,436,1
,,,,,,,,,,,,,,,999mp938,2020-07-22_09h38.19.901,lexical_decision_task_MP,2020.1.3,MacIntel,60,,0,0.483097056,-0.299345692,1,0,0,0.456,button_right,0.456,1,,,,,,172,WORD,"ID",50,patrol,PATROL,l,,,,,,0,160,160,111,1
,,,,,,,,,,,,,,,999mp938,2020-07-22_09h38.19.901,lexical_decision_task_MP,2020.1.3,MacIntel,60,,0,-0.418756816,-0.29825518,1,0,0,0.601,button_left,0.601,1,,,,,,295,NW,UN,50,beinch,GLEATH,a,,,,,,0,161,161,474,1
,,,,,,,,,,,,,,,999mp938,2020-07-22_09h38.19.901,lexical_decision_task_MP,2020.1.3,MacIntel,60,,0,-0.417666303,-0.297164667,1,0,0,0.587,button_left,0.587,1,,,,,,400,NW,"ID",50,wearox,WEAROX,a,,,,,,0,162,162,339,1
,,,,,,,,,,,,,,,999mp938,2020-07-22_09h38.19.901,lexical_decision_task_MP,2020.1.3,MacIntel,60,,0,-0.418756816,-0.29825518,1,0,0,0.585,button_left,0.585,1,,,,,,477,NW,UN,33,lobush,PHOTIE,a,,,,,,0,163,163,416,1
,,,,,,,,,,,,,,,999mp938,2020-07-22_09h38.19.901,lexical_decision_task_MP,2020.1.3,MacIntel,60,,0,-0.415485278,-0.299345692,1,0,0,0.975,button_left,0.975,1,,,,,,388,NW,"ID",50,cragin,CRAGIN,a,,,,,,0,164,164,327,1
,,,,,,,,,,,,,,,999mp938,2020-07-22_09h38.19.901,lexical_decision_task_MP,2020.1.3,MacIntel,60,,0,0.483097056,-0.300436205,1,0,0,0.548,button_right,0.548,1,,,,,,148,WORD,"ID",50,custom,CUSTOM,l,,,,,,0,165,165,87,1
,,,,,,,,,,,,,,,999mp938,2020-07-22_09h38.19.901,lexical_decision_task_MP,2020.1.3,MacIntel,60,,0,0.482006543,-0.301526718,1,0,0,0.498,button_right,0.498,1,,,,,,143,WORD,"ID",50,reason,REASON,l,,,,,,0,166,166,82,1
,,,,,,,,,,,,,,,999mp938,2020-07-22_09h38.19.901,lexical_decision_task_MP,2020.1.3,MacIntel,60,,0,-0.418756816,-0.29825518,1,0,0,0.58,button_left,0.58,1,,,,,,456,NW,UN,33,wanigh,BROGET,a,,,,,,0,167,167,395,1
,,,,,,,,,,,,,,,999mp938,2020-07-22_09h38.19.901,lexical_decision_task_MP,2020.1.3,MacIntel,60,,0,0.483097056,-0.299345692,1,0,0,0.573,button_right,0.573,1,,,,,,110,WORD,"ID",33,polite,POLITE,l,,,,,,0,168,168,49,1
,,,,,,,,,,,,,,,999mp938,2020-07-22_09h38.19.901,lexical_decision_task_MP,2020.1.3,MacIntel,60,,0,0.483097056,-0.299345692,1,0,0,0.55,button_right,0.55,1,,,,,,181,WORD,UN,33,winter,GLANCE,l,,,,,,0,169,169,120,1
,,,,,,,,,,,,,,,999mp938,2020-07-22_09h38.19.901,lexical_decision_task_MP,2020.1.3,MacIntel,60,,0,-0.419847328,-0.29825518,1,0,0,0.564,button_left,0.564,1,,,,,,479,NW,UN,33,crible,LOBUSH,a,,,,,,0,170,170,418,1
,,,,,,,,,,,,,,,999mp938,2020-07-22_09h38.19.901,lexical_decision_task_MP,2020.1.3,MacIntel,60,,0,-0.423118866,-0.29825518,1,0,0,0.548,button_left,0.548,1,,,,,,304,NW,"ID",33,cludie,CLUDIE,a,,,,,,0,171,171,243,1
,,,,,,,,,,,,,,,999mp938,2020-07-22_09h38.19.901,lexical_decision_task_MP,2020.1.3,MacIntel,60,,0,0.479825518,-0.301526718,1,0,0,0.666,button_right,0.666,1,,,,,,35,WORD,UN,50,vanish,SOCKET,l,,,,,,0,172,172,214,1
,,,,,,,,,,,,,,,999mp938,2020-07-22_09h38.19.901,lexical_decision_task_MP,2020.1.3,MacIntel,60,,0,-0.425299891,-0.296074155,1,0,0,0.487,button_left,0.487,1,,,,,,412,NW,"ID",50,jiluer,JILUER,a,,,,,,0,173,173,351,1
,,,,,,,,,,,,,,,999mp938,2020-07-22_09h38.19.901,lexical_decision_task_MP,2020.1.3,MacIntel,60,,0,-0.422028353,-0.296074155,1,0,0,0.506,button_left,0.506,1,,,,,,245,NW,UN,50,piaton,ANOUGS,a,,,,,,0,174,174,424,1
,,,,,,,,,,,,,,,999mp938,2020-07-22_09h38.19.901,lexical_decision_task_MP,2020.1.3,MacIntel,60,,0,-0.426390403,-0.29389313,1,0,0,0.581,button_left,0.581,1,,,,,,430,NW,UN,33,chrums,CAROEY,a,,,,,,0,175,175,369,1
,,,,,,,,,,,,,,,999mp938,2020-07-22_09h38.19.901,lexical_decision_task_MP,2020.1.3,MacIntel,60,,0,-0.424209378,-0.292802617,1,0,0,0.59,button_left,0.59,1,,,,,,467,NW,UN,33,wictor,GORBIE,a,,,,,,0,176,176,406,1
,,,,,,,,,,,,,,,999mp938,2020-07-22_09h38.19.901,lexical_decision_task_MP,2020.1.3,MacIntel,60,,0,0.480916031,-0.300436205,1,0,0,0.581,button_right,0.581,1,,,,,,220,WORD,UN,33,mascot,VOYAGE,l,,,,,,0,177,177,159,1
,,,,,,,,,,,,,,,999mp938,2020-07-22_09h38.19.901,lexical_decision_task_MP,2020.1.3,MacIntel,60,,0,-0.420937841,-0.296074155,1,0,0,0.489,button_left,0.489,1,,,,,,266,NW,UN,50,pasink,VARMIT,a,,,,,,0,178,178,445,1
,,,,,,,,,,,,,,,999mp938,2020-07-22_09h38.19.901,lexical_decision_task_MP,2020.1.3,MacIntel,60,,0,-0.418756816,-0.297164667,1,0,0,0.495,button_left,0.495,1,,,,,,258,NW,UN,50,soudal,POLUTH,a,,,,,,0,179,179,437,1
,,,,,,,,,,,,,,,999mp938,2020-07-22_09h38.19.901,lexical_decision_task_MP,2020.1.3,MacIntel,60,,0,-0.418756816,-0.29825518,1,0,0,0.478,button_left,0.478,0,,,,,,48,WORD,UN,50,survey,WALNUT,l,,,,,,0,180,180,227,1
,,,,,,,,,,,,,,,999mp938,2020-07-22_09h38.19.901,lexical_decision_task_MP,2020.1.3,MacIntel,60,,0,-0.429661941,-0.292802617,1,0,0,0.546,button_left,0.546,1,,,,,,464,NW,UN,33,whivex,CHAITE,a,,,,,,0,181,181,403,1
,,,,,,,,,,,,,,,999mp938,2020-07-22_09h38.19.901,lexical_decision_task_MP,2020.1.3,MacIntel,60,,0,0.483097056,-0.29825518,1,0,0,0.487,button_right,0.487,1,,,,,,229,WORD,UN,33,fringe,MOTHER,l,,,,,,0,182,182,168,1
,,,,,,,,,,,,,,,999mp938,2020-07-22_09h38.19.901,lexical_decision_task_MP,2020.1.3,MacIntel,60,,0,-0.427480916,-0.296074155,1,0,0,0.504,button_left,0.504,1,,,,,,461,NW,UN,33,absult,JUSTRE,a,,,,,,0,183,183,400,1
,,,,,,,,,,,,,,,999mp938,2020-07-22_09h38.19.901,lexical_decision_task_MP,2020.1.3,MacIntel,60,,0,-0.422028353,-0.29825518,1,0,0,0.511,button_left,0.511,1,,,,,,384,NW,"ID",50,guesco,GUESCO,a,,,,,,0,184,184,323,1
,,,,,,,,,,,,,,,999mp938,2020-07-22_09h38.19.901,lexical_decision_task_MP,2020.1.3,MacIntel,60,,0,-0.423118866,-0.29825518,1,0,0,0.547,button_left,0.547,1,,,,,,328,NW,"ID",33,broake,BROAKE,a,,,,,,0,185,185,267,1
,,,,,,,,,,,,,,,999mp938,2020-07-22_09h38.19.901,lexical_decision_task_MP,2020.1.3,MacIntel,60,,0,-0.428571429,-0.29389313,1,0,0,0.53,button_left,0.53,1,,,,,,355,NW,"ID",33,zingly,ZINGLY,a,,,,,,0,186,186,294,1
,,,,,,,,,,,,,,,999mp938,2020-07-22_09h38.19.901,lexical_decision_task_MP,2020.1.3,MacIntel,60,,0,-0.430752454,-0.292802617,1,0,0,0.566,button_left,0.566,1,,,,,,389,NW,"ID",50,witmer,WITMER,a,,,,,,0,187,187,328,1
,,,,,,,,,,,,,,,999mp938,2020-07-22_09h38.19.901,lexical_decision_task_MP,2020.1.3,MacIntel,60,,0,0.484187568,-0.297164667,1,0,0,0.512,button_right,0.512,1,,,,,,67,WORD,"ID",33,policy,POLICY,l,,,,,,0,188,188,6,1
,,,,,,,,,,,,,,,999mp938,2020-07-22_09h38.19.901,lexical_decision_task_MP,2020.1.3,MacIntel,60,,0,0.484187568,-0.29825518,1,0,0,0.577,button_right,0.577,1,,,,,,29,WORD,UN,50,orient,SKETCH,l,,,,,,0,189,189,208,1
,,,,,,,,,,,,,,,999mp938,2020-07-22_09h38.19.901,lexical_decision_task_MP,2020.1.3,MacIntel,60,,0,0.470010905,-0.301526718,1,0,0,0.529,button_right,0.529,1,,,,,,105,WORD,"ID",33,number,NUMBER,l,,,,,,0,190,190,44,1
,,,,,,,,,,,,,,,999mp938,2020-07-22_09h38.19.901,lexical_decision_task_MP,2020.1.3,MacIntel,60,,0,0.482006543,-0.300436205,1,0,0,0.481,button_right,0.481,1,,,,,,163,WORD,"ID",50,string,STRING,l,,,,,,0,191,191,102,1
,,,,,,,,,,,,,,,999mp938,2020-07-22_09h38.19.901,lexical_decision_task_MP,2020.1.3,MacIntel,60,,0,-0.435114504,-0.304798255,1,0,0,0.549,button_left,0.549,1,,,,,,241,NW,UN,50,unwert,SMENCO,a,,,,,,0,192,192,420,1
,,,,,,,,,,,,,,,999mp938,2020-07-22_09h38.19.901,lexical_decision_task_MP,2020.1.3,MacIntel,60,,0,-0.437295529,-0.305888768,1,0,0,0.524,button_left,0.524,1,,,,,,368,NW,"ID",50,hornal,HORNAL,a,,,,,,0,193,193,307,1
,,,,,,,,,,,,,,,999mp938,2020-07-22_09h38.19.901,lexical_decision_task_MP,2020.1.3,MacIntel,60,,0,0.485278081,-0.300436205,1,0,0,0.7,button_right,0.7,1,,,,,,46,WORD,UN,50,income,SINGLE,l,,,,,,0,194,194,225,1
,,,,,,,,,,,,,,,999mp938,2020-07-22_09h38.19.901,lexical_decision_task_MP,2020.1.3,MacIntel,60,,0,-0.439476554,-0.304798255,1,0,0,0.506,button_left,0.506,1,,,,,,367,NW,"ID",50,slique,SLIQUE,a,,,,,,0,195,195,306,1
,,,,,,,,,,,,,,,999mp938,2020-07-22_09h38.19.901,lexical_decision_task_MP,2020.1.3,MacIntel,60,,0,0.489640131,-0.300436205,1,0,0,0.826,button_right,0.826,1,,,,,,117,WORD,"ID",33,branch,BRANCH,l,,,,,,0,196,196,56,1
,,,,,,,,,,,,,,,999mp938,2020-07-22_09h38.19.901,lexical_decision_task_MP,2020.1.3,MacIntel,60,,0,0.495092694,-0.300436205,1,0,0,0.516,button_right,0.516,1,,,,,,15,WORD,UN,50,faucet,AMOUNT,l,,,,,,0,197,197,194,1
,,,,,,,,,,,,,,,999mp938,2020-07-22_09h38.19.901,lexical_decision_task_MP,2020.1.3,MacIntel,60,,0,-0.437295529,-0.303707743,1,0,0,0.496,button_left,0.496,1,,,,,,309,NW,"ID",33,amiloy,AMILOY,a,,,,,,0,198,198,248,1
,,,,,,,,,,,,,,,999mp938,2020-07-22_09h38.19.901,lexical_decision_task_MP,2020.1.3,MacIntel,60,,0,0.495092694,-0.297164667,1,0,0,0.522,button_right,0.522,1,,,,,,30,WORD,UN,50,weapon,ORIENT,l,,,,,,0,199,199,209,1
,,,,,,,,,,,,,,,999mp938,2020-07-22_09h38.19.901,lexical_decision_task_MP,2020.1.3,MacIntel,60,,0,0.494002181,-0.299345692,1,0,0,0.414,button_right,0.414,1,,,,,,161,WORD,"ID",50,pastor,PASTOR,l,,,,,,0,200,200,100,1
,,,,,,,,,,,,,,,999mp938,2020-07-22_09h38.19.901,lexical_decision_task_MP,2020.1.3,MacIntel,60,,0,0.495092694,-0.300436205,1,0,0,0.452,button_right,0.452,1,,,,,,57,WORD,UN,50,danger,CHANGE,l,,,,,,0,201,201,236,1
,,,,,,,,,,,,,,,999mp938,2020-07-22_09h38.19.901,lexical_decision_task_MP,2020.1.3,MacIntel,60,,0,-0.442748092,-0.301526718,1,0,0,0.52,button_left,0.52,1,,,,,,448,NW,UN,33,brunge,SADENT,a,,,,,,0,202,202,387,1
,,,,,,,,,,,,,,,999mp938,2020-07-22_09h38.19.901,lexical_decision_task_MP,2020.1.3,MacIntel,60,,0,-0.443838604,-0.30261723,1,0,0,0.534,button_left,0.534,0,,,,,,239,WORD,UN,33,forest,LUMBER,l,,,,,,0,203,203,178,1
,,,,,,,,,,,,,,,999mp938,2020-07-22_09h38.19.901,lexical_decision_task_MP,2020.1.3,MacIntel,60,,0,-0.444929117,-0.301526718,1,0,0,0.481,button_left,0.481,1,,,,,,422,NW,UN,33,streld,ALCOUD,a,,,,,,0,204,204,361,1
,,,,,,,,,,,,,,,999mp938,2020-07-22_09h38.19.901,lexical_decision_task_MP,2020.1.3,MacIntel,60,,0,0.495092694,-0.29825518,1,0,0,0.515,button_right,0.515,1,,,,,,94,WORD,"ID",33,travel,TRAVEL,l,,,,,,0,205,205,33,1
,,,,,,,,,,,,,,,999mp938,2020-07-22_09h38.19.901,lexical_decision_task_MP,2020.1.3,MacIntel,60,,0,0.497273719,-0.297164667,1,0,0,0.54,button_right,0.54,1,,,,,,20,WORD,UN,50,simple,BREAST,l,,,,,,0,206,206,199,1
,,,,,,,,,,,,,,,999mp938,2020-07-22_09h38.19.901,lexical_decision_task_MP,2020.1.3,MacIntel,60,,0,0.497273719,-0.296074155,1,0,0,0.439,button_right,0.439,1,,,,,,160,WORD,"ID",50,violet,VIOLET,l,,,,,,0,207,207,99,1
,,,,,,,,,,,,,,,999mp938,2020-07-22_09h38.19.901,lexical_decision_task_MP,2020.1.3,MacIntel,60,,0,-0.444929117,-0.300436205,1,0,0,0.492,button_left,0.492,1,,,,,,334,NW,"ID",33,watmeg,WATMEG,a,,,,,,0,208,208,273,1
,,,,,,,,,,,,,,,999mp938,2020-07-22_09h38.19.901,lexical_decision_task_MP,2020.1.3,MacIntel,60,,0,-0.446019629,-0.301526718,1,0,0,0.613,button_left,0.613,1,,,,,,332,NW,"ID",33,vangue,VANGUE,a,,,,,,0,209,209,271,1
,,,,,,,,,,,,,,,999mp938,2020-07-22_09h38.19.901,lexical_decision_task_MP,2020.1.3,MacIntel,60,,0,0.497273719,-0.297164667,1,0,0,0.484,button_right,0.484,1,,,,,,63,WORD,"ID",33,launch,LAUNCH,l,,,,,,0,210,210,2,1
,,,,,,,,,,,,,,,999mp938,2020-07-22_09h38.19.901,lexical_decision_task_MP,2020.1.3,MacIntel,60,,0,0.498364231,-0.29825518,1,0,0,0.422,button_right,0.422,1,,,,,,126,WORD,"ID",50,enough,ENOUGH,l,,,,,,0,211,211,65,1
,,,,,,,,,,,,,,,999mp938,2020-07-22_09h38.19.901,lexical_decision_task_MP,2020.1.3,MacIntel,60,,0,-0.443838604,-0.30261723,1,0,0,0.458,button_left,0.458,1,,,,,,297,NW,UN,50,piergy,FERTIC,a,,,,,,0,212,212,476,1
,,,,,,,,,,,,,,,999mp938,2020-07-22_09h38.19.901,lexical_decision_task_MP,2020.1.3,MacIntel,60,,0,-0.443838604,-0.299345692,1,0,0,0.478,button_left,0.478,1,,,,,,473,NW,UN,33,hablin,CRIBLE,a,,,,,,0,213,213,412,1
,,,,,,,,,,,,,,,999mp938,2020-07-22_09h38.19.901,lexical_decision_task_MP,2020.1.3,MacIntel,60,,0,-0.443838604,-0.301526718,1,0,0,0.537,button_left,0.537,1,,,,,,450,NW,UN,33,cainky,PHRECT,a,,,,,,0,214,214,389,1
,,,,,,,,,,,,,,,999mp938,2020-07-22_09h38.19.901,lexical_decision_task_MP,2020.1.3,MacIntel,60,,0,-0.439476554,-0.30261723,1,0,0,0.459,button_left,0.459,1,,,,,,271,NW,UN,50,damilt,AUBRID,a,,,,,,0,215,215,450,1
,,,,,,,,,,,,,,,999mp938,2020-07-22_09h38.19.901,lexical_decision_task_MP,2020.1.3,MacIntel,60,,0,-0.439476554,-0.30261723,1,0,0,0.528,button_left,0.528,1,,,,,,441,NW,UN,33,aboune,RASTOE,a,,,,,,0,216,216,380,1
,,,,,,,,,,,,,,,999mp938,2020-07-22_09h38.19.901,lexical_decision_task_MP,2020.1.3,MacIntel,60,,0,0.492911668,-0.301526718,1,0,0,0.663,button_right,0.663,1,,,,,,104,WORD,"ID",33,studio,STUDIO,l,,,,,,0,217,217,43,1
,,,,,,,,,,,,,,,999mp938,2020-07-22_09h38.19.901,lexical_decision_task_MP,2020.1.3,MacIntel,60,,0,-0.443838604,-0.300436205,1,0,0,0.499,button_left,0.499,1,,,,,,366,NW,"ID",50,toshel,TOSHEL,a,,,,,,0,218,218,305,1
,,,,,,,,,,,,,,,999mp938,2020-07-22_09h38.19.901,lexical_decision_task_MP,2020.1.3,MacIntel,60,,0,-0.444929117,-0.300436205,1,0,0,0.516,button_left,0.516,1,,,,,,353,NW,"ID",33,clurey,CLUREY,a,,,,,,0,219,219,292,1
,,,,,,,,,,,,,,,999mp938,2020-07-22_09h38.19.901,lexical_decision_task_MP,2020.1.3,MacIntel,60,,0,0.492911668,-0.301526718,1,0,0,0.595,button_right,0.595,1,,,,,,37,WORD,UN,50,powder,INSULT,l,,,,,,0,220,220,216,1
,,,,,,,,,,,,,,,999mp938,2020-07-22_09h38.19.901,lexical_decision_task_MP,2020.1.3,MacIntel,60,,0,0.495092694,-0.300436205,1,0,0,0.482,button_right,0.482,1,,,,,,107,WORD,"ID",33,slogan,SLOGAN,l,,,,,,0,221,221,46,1
,,,,,,,,,,,,,,,999mp938,2020-07-22_09h38.19.901,lexical_decision_task_MP,2020.1.3,MacIntel,60,,0,0.494002181,-0.300436205,1,0,0,0.546,button_right,0.546,1,,,,,,218,WORD,UN,33,bucket,SHRINK,l,,,,,,0,222,222,157,1
,,,,,,,,,,,,,,,999mp938,2020-07-22_09h38.19.901,lexical_decision_task_MP,2020.1.3,MacIntel,60,,0,0.496183206,-0.299345692,1,0,0,0.484,button_right,0.484,1,,,,,,41,WORD,UN,50,chapel,SPRING,l,,,,,,0,223,223,220,1
,,,,,,,,,,,,,,,999mp938,2020-07-22_09h38.19.901,lexical_decision_task_MP,2020.1.3,MacIntel,60,,0,0.496183206,-0.29825518,1,0,0,0.517,button_right,0.517,1,,,,,,217,WORD,UN,33,shrink,LIQUOR,l,,,,,,0,224,224,156,1
,,,,,,,,,,,,,,,999mp938,2020-07-22_09h38.19.901,lexical_decision_task_MP,2020.1.3,MacIntel,60,,0,0.497273719,-0.29825518,1,0,0,0.493,button_right,0.493,1,,,,,,109,WORD,"ID",33,wonder,WONDER,l,,,,,,0,225,225,48,1
,,,,,,,,,,,,,,,999mp938,2020-07-22_09h38.19.901,lexical_decision_task_MP,2020.1.3,MacIntel,60,,0,0.497273719,-0.299345692,1,0,0,0.475,button_right,0.475,1,,,,,,210,WORD,UN,33,infect,MONKEY,l,,,,,,0,226,226,149,1
,,,,,,,,,,,,,,,999mp938,2020-07-22_09h38.19.901,lexical_decision_task_MP,2020.1.3,MacIntel,60,,0,0.496183206,-0.300436205,1,0,0,0.404,button_right,0.404,1,,,,,,128,WORD,"ID",50,senior,SENIOR,l,,,,,,0,227,227,67,1
,,,,,,,,,,,,,,,999mp938,2020-07-22_09h38.19.901,lexical_decision_task_MP,2020.1.3,MacIntel,60,,0,0.497273719,-0.300436205,1,0,0,0.5,button_right,0.5,1,,,,,,81,WORD,"ID",33,friend,FRIEND,l,,,,,,0,228,228,20,1
,,,,,,,,,,,,,,,999mp938,2020-07-22_09h38.19.901,lexical_decision_task_MP,2020.1.3,MacIntel,60,,0,0.499454744,-0.29825518,1,0,0,0.44,button_right,0.44,1,,,,,,240,WORD,UN,33,seldom,FOREST,l,,,,,,0,229,229,179,1
,,,,,,,,,,,,,,,999mp938,2020-07-22_09h38.19.901,lexical_decision_task_MP,2020.1.3,MacIntel,60,,0,-0.448200654,-0.300436205,1,0,0,0.52,button_left,0.52,1,,,,,,474,NW,UN,33,acrise,HABLIN,a,,,,,,0,230,230,413,1
,,,,,,,,,,,,,,,999mp938,2020-07-22_09h38.19.901,lexical_decision_task_MP,2020.1.3,MacIntel,60,,0,-0.448200654,-0.300436205,1,0,0,0.449,button_left,0.449,1,,,,,,279,NW,UN,50,curbol,CELOND,a,,,,,,0,231,231,458,1
,,,,,,,,,,,,,,,999mp938,2020-07-22_09h38.19.901,lexical_decision_task_MP,2020.1.3,MacIntel,60,,0,-0.449291167,-0.301526718,1,0,0,0.521,button_left,0.521,0,,,,,,68,WORD,"ID",33,fumble,FUMBLE,l,,,,,,0,232,232,7,1
,,,,,,,,,,,,,,,999mp938,2020-07-22_09h38.19.901,lexical_decision_task_MP,2020.1.3,MacIntel,60,,0,-0.448200654,-0.300436205,1,0,0,0.611,button_left,0.611,1,,,,,,316,NW,"ID",33,scregm,SCREGM,a,,,,,,0,233,233,255,1
,,,,,,,,,,,,,,,999mp938,2020-07-22_09h38.19.901,lexical_decision_task_MP,2020.1.3,MacIntel,60,,0,-0.449291167,-0.301526718,1,0,0,0.504,button_left,0.504,1,,,,,,331,NW,"ID",33,gilfew,GILFEW,a,,,,,,0,234,234,270,1
,,,,,,,,,,,,,,,999mp938,2020-07-22_09h38.19.901,lexical_decision_task_MP,2020.1.3,MacIntel,60,,0,0.497273719,-0.29825518,1,0,0,0.572,button_right,0.572,1,,,,,,74,WORD,"ID",33,plaque,PLAQUE,l,,,,,,0,235,235,13,1
,,,,,,,,,,,,,,,999mp938,2020-07-22_09h38.19.901,lexical_decision_task_MP,2020.1.3,MacIntel,60,,0,0.496183206,-0.300436205,1,0,0,0.446,button_right,0.446,1,,,,,,168,WORD,"ID",50,answer,ANSWER,l,,,,,,0,236,236,107,1
,,,,,,,,,,,,,,,999mp938,2020-07-22_09h38.19.901,lexical_decision_task_MP,2020.1.3,MacIntel,60,,0,0.498364231,-0.299345692,1,0,0,0.429,button_right,0.429,1,,,,,,174,WORD,"ID",50,turkey,TURKEY,l,,,,,,0,237,237,113,1
,,,,,,,,,,,,,,,999mp938,2020-07-22_09h38.19.901,lexical_decision_task_MP,2020.1.3,MacIntel,60,,0,0.497273719,-0.29825518,1,0,0,0.503,button_right,0.503,1,,,,,,34,WORD,UN,50,socket,JUNGLE,l,,,,,,0,238,238,213,1
,,,,,,,,,,,,,,,999mp938,2020-07-22_09h38.19.901,lexical_decision_task_MP,2020.1.3,MacIntel,60,,0,-0.449291167,-0.301526718,1,0,0,0.514,button_left,0.514,1,,,,,,296,NW,UN,50,fertic,BEINCH,a,,,,,,0,239,239,475,1
,,,,,,,,,,,,,,,999mp938,2020-07-22_09h38.19.901,lexical_decision_task_MP,2020.1.3,MacIntel,60,,0,-0.448200654,-0.303707743,1,0,0,0.788,button_left,0.788,0,,,,,,59,WORD,UN,50,pencil,SPLINT,l,,,,,,0,240,240,238,1
,,,,,,,,,,,,,,,999mp938,2020-07-22_09h38.19.901,lexical_decision_task_MP,2020.1.3,MacIntel,60,,0,0.497273719,-0.299345692,1,0,0,0.482,button_right,0.482,1,,,,,,147,WORD,"ID",50,garlic,GARLIC,l,,,,,,0,241,241,86,1
,,,,,,,,,,,,,,,999mp938,2020-07-22_09h38.19.901,lexical_decision_task_MP,2020.1.3,MacIntel,60,,0,-0.448200654,-0.303707743,1,0,0,0.641,button_left,0.641,1,,,,,,457,NW,UN,33,barcet,WANIGH,a,,,,,,0,242,242,396,1
,,,,,,,,,,,,,,,999mp938,2020-07-22_09h38.19.901,lexical_decision_task_MP,2020.1.3,MacIntel,60,,0,-0.453653217,-0.30261723,1,0,0,0.744,button_left,0.744,1,,,,,,340,NW,"ID",33,fiatch,FIATCH,a,,,,,,0,243,243,279,1
,,,,,,,,,,,,,,,999mp938,2020-07-22_09h38.19.901,lexical_decision_task_MP,2020.1.3,MacIntel,60,,0,0.499454744,-0.297164667,1,0,0,0.543,button_right,0.543,1,,,,,,47,WORD,UN,50,walnut,INCOME,l,,,,,,0,244,244,226,1
,,,,,,,,,,,,,,,999mp938,2020-07-22_09h38.19.901,lexical_decision_task_MP,2020.1.3,MacIntel,60,,0,0.499454744,-0.296074155,1,0,0,0.498,button_right,0.498,1,,,,,,39,WORD,UN,50,convey,INSECT,l,,,,,,0,245,245,218,1
,,,,,,,,,,,,,,,999mp938,2020-07-22_09h38.19.901,lexical_decision_task_MP,2020.1.3,MacIntel,60,,0,-0.450381679,-0.30261723,1,0,0,0.522,button_left,0.522,1,,,,,,308,NW,"ID",33,psetch,PSETCH,a,,,,,,0,246,246,247,1
,,,,,,,,,,,,,,,999mp938,2020-07-22_09h38.19.901,lexical_decision_task_MP,2020.1.3,MacIntel,60,,0,-0.440567067,-0.304798255,1,0,0,0.674,button_left,0.674,1,,,,,,265,NW,UN,50,varmit,DISTAR,a,,,,,,0,247,247,444,1
,,,,,,,,,,,,,,,999mp938,2020-07-22_09h38.19.901,lexical_decision_task_MP,2020.1.3,MacIntel,60,,0,-0.449291167,-0.303707743,1,0,0,0.502,button_left,0.502,1,,,,,,427,NW,UN,33,tandly,SCHIND,a,,,,,,0,248,248,366,1
,,,,,,,,,,,,,,,999mp938,2020-07-22_09h38.19.901,lexical_decision_task_MP,2020.1.3,MacIntel,60,,0,-0.453653217,-0.301526718,1,0,0,0.515,button_left,0.515,1,,,,,,449,NW,UN,33,phrect,BRUNGE,a,,,,,,0,249,249,388,1
,,,,,,,,,,,,,,,999mp938,2020-07-22_09h38.19.901,lexical_decision_task_MP,2020.1.3,MacIntel,60,,0,0.498364231,-0.296074155,1,0,0,0.518,button_right,0.518,1,,,,,,145,WORD,"ID",50,parish,PARISH,l,,,,,,0,250,250,84,1
,,,,,,,,,,,,,,,999mp938,2020-07-22_09h38.19.901,lexical_decision_task_MP,2020.1.3,MacIntel,60,,0,-0.448200654,-0.303707743,1,0,0,0.566,button_left,0.566,1,,,,,,374,NW,"ID",50,sliant,SLIANT,a,,,,,,0,251,251,313,1
,,,,,,,,,,,,,,,999mp938,2020-07-22_09h38.19.901,lexical_decision_task_MP,2020.1.3,MacIntel,60,,0,0.498364231,-0.296074155,1,0,0,0.588,button_right,0.588,1,,,,,,86,WORD,"ID",33,rodent,RODENT,l,,,,,,0,252,252,25,1
,,,,,,,,,,,,,,,999mp938,2020-07-22_09h38.19.901,lexical_decision_task_MP,2020.1.3,MacIntel,60,,0,-0.450381679,-0.30261723,1,0,0,0.507,button_left,0.507,1,,,,,,445,NW,UN,33,runamo,MINKEL,a,,,,,,0,253,253,384,1
,,,,,,,,,,,,,,,999mp938,2020-07-22_09h38.19.901,lexical_decision_task_MP,2020.1.3,MacIntel,60,,0,-0.455834242,-0.300436205,1,0,0,0.542,button_left,0.542,1,,,,,,284,NW,UN,50,prudge,SHAPLE,a,,,,,,0,254,254,463,1
,,,,,,,,,,,,,,,999mp938,2020-07-22_09h38.19.901,lexical_decision_task_MP,2020.1.3,MacIntel,60,,0,-0.444929117,-0.303707743,1,0,0,0.683,button_left,0.683,1,,,,,,416,NW,"ID",50,pathel,PATHEL,a,,,,,,0,255,255,355,1
,,,,,,,,,,,,,,,999mp938,2020-07-22_09h38.19.901,lexical_decision_task_MP,2020.1.3,MacIntel,60,,0,0.498364231,-0.297164667,1,0,0,0.54,button_right,0.54,1,,,,,,125,WORD,"ID",50,nickel,NICKEL,l,,,,,,0,256,256,64,1
,,,,,,,,,,,,,,,999mp938,2020-07-22_09h38.19.901,lexical_decision_task_MP,2020.1.3,MacIntel,60,,0,0.500545256,-0.296074155,1,0,0,0.43,button_right,0.43,1,,,,,,75,WORD,"ID",33,trophy,TROPHY,l,,,,,,0,257,257,14,1
,,,,,,,,,,,,,,,999mp938,2020-07-22_09h38.19.901,lexical_decision_task_MP,2020.1.3,MacIntel,60,,0,0.498364231,-0.296074155,1,0,0,0.43,button_right,0.43,1,,,,,,138,WORD,"ID",50,melody,MELODY,l,,,,,,0,258,258,77,1
,,,,,,,,,,,,,,,999mp938,2020-07-22_09h38.19.901,lexical_decision_task_MP,2020.1.3,MacIntel,60,,0,-0.458015267,-0.299345692,1,0,0,0.499,button_left,0.499,1,,,,,,403,NW,"ID",50,bruats,BRUATS,a,,,,,,0,259,259,342,1
,,,,,,,,,,,,,,,999mp938,2020-07-22_09h38.19.901,lexical_decision_task_MP,2020.1.3,MacIntel,60,,0,0.500545256,-0.294983642,1,0,0,0.449,button_right,0.449,1,,,,,,159,WORD,"ID",50,detail,DETAIL,l,,,,,,0,260,260,98,1
,,,,,,,,,,,,,,,999mp938,2020-07-22_09h38.19.901,lexical_decision_task_MP,2020.1.3,MacIntel,60,,0,0.500545256,-0.29389313,1,0,0,0.541,button_right,0.541,0,,,,,,462,NW,UN,33,kispel,ABSULT,a,,,,,,0,261,261,401,1
,,,,,,,,,,,,,,,999mp938,2020-07-22_09h38.19.901,lexical_decision_task_MP,2020.1.3,MacIntel,60,,0,-0.45474373,-0.300436205,1,0,0,0.489,button_left,0.489,1,,,,,,407,NW,"ID",50,suiver,SUIVER,a,,,,,,0,262,262,346,1
,,,,,,,,,,,,,,,999mp938,2020-07-22_09h38.19.901,lexical_decision_task_MP,2020.1.3,MacIntel,60,,0,0.498364231,-0.296074155,1,0,0,0.664,button_right,0.664,1,,,,,,36,WORD,UN,50,insult,VANISH,l,,,,,,0,263,263,215,1
,,,,,,,,,,,,,,,999mp938,2020-07-22_09h38.19.901,lexical_decision_task_MP,2020.1.3,MacIntel,60,,0,0.494002181,-0.301526718,1,0,0,0.492,button_right,0.492,1,,,,,,132,WORD,"ID",50,strong,STRONG,l,,,,,,0,264,264,71,1
,,,,,,,,,,,,,,,999mp938,2020-07-22_09h38.19.901,lexical_decision_task_MP,2020.1.3,MacIntel,60,,0,0.495092694,-0.29825518,1,0,0,0.516,button_right,0.516,1,,,,,,129,WORD,"ID",50,marvel,MARVEL,l,,,,,,0,265,265,68,1
,,,,,,,,,,,,,,,999mp938,2020-07-22_09h38.19.901,lexical_decision_task_MP,2020.1.3,MacIntel,60,,0,-0.449291167,-0.297164667,1,0,0,0.501,button_left,0.501,1,,,,,,329,NW,"ID",33,yarike,YARIKE,a,,,,,,0,266,266,268,1
,,,,,,,,,,,,,,,999mp938,2020-07-22_09h38.19.901,lexical_decision_task_MP,2020.1.3,MacIntel,60,,0,-0.443838604,-0.30261723,1,0,0,0.556,button_left,0.556,1,,,,,,249,NW,UN,50,milted,BATROL,a,,,,,,0,267,267,428,1
,,,,,,,,,,,,,,,999mp938,2020-07-22_09h38.19.901,lexical_decision_task_MP,2020.1.3,MacIntel,60,,0,0.494002181,-0.297164667,1,0,0,0.519,button_right,0.519,1,,,,,,233,WORD,UN,33,clumsy,NATURE,l,,,,,,0,268,268,172,1
,,,,,,,,,,,,,,,999mp938,2020-07-22_09h38.19.901,lexical_decision_task_MP,2020.1.3,MacIntel,60,,0,0.496183206,-0.297164667,1,0,0,0.471,button_right,0.471,1,,,,,,165,WORD,"ID",50,invest,INVEST,l,,,,,,0,269,269,104,1
,,,,,,,,,,,,,,,999mp938,2020-07-22_09h38.19.901,lexical_decision_task_MP,2020.1.3,MacIntel,60,,0,-0.446019629,-0.300436205,1,0,0,0.517,button_left,0.517,1,,,,,,313,NW,"ID",33,paurse,PAURSE,a,,,,,,0,270,270,252,1
,,,,,,,,,,,,,,,999mp938,2020-07-22_09h38.19.901,lexical_decision_task_MP,2020.1.3,MacIntel,60,,0,0.495092694,-0.296074155,1,0,0,0.481,button_right,0.481,1,,,,,,146,WORD,"ID",50,couple,COUPLE,l,,,,,,0,271,271,85,1
,,,,,,,,,,,,,,,999mp938,2020-07-22_09h38.19.901,lexical_decision_task_MP,2020.1.3,MacIntel,60,,0,0.496183206,-0.297164667,1,0,0,0.493,button_right,0.493,1,,,,,,70,WORD,"ID",33,square,SQUARE,l,,,,,,0,272,272,9,1
,,,,,,,,,,,,,,,999mp938,2020-07-22_09h38.19.901,lexical_decision_task_MP,2020.1.3,MacIntel,60,,0,-0.449291167,-0.29825518,1,0,0,0.515,button_left,0.515,1,,,,,,378,NW,"ID",50,shrile,SHRILE,a,,,,,,0,273,273,317,1
,,,,,,,,,,,,,,,999mp938,2020-07-22_09h38.19.901,lexical_decision_task_MP,2020.1.3,MacIntel,60,,0,0.495092694,-0.296074155,1,0,0,0.519,button_right,0.519,1,,,,,,22,WORD,UN,50,wealth,JOCKEY,l,,,,,,0,274,274,201,1
,,,,,,,,,,,,,,,999mp938,2020-07-22_09h38.19.901,lexical_decision_task_MP,2020.1.3,MacIntel,60,,0,-0.452562704,-0.296074155,1,0,0,0.532,button_left,0.532,1,,,,,,440,NW,UN,33,rastoe,SARIDE,a,,,,,,0,275,275,379,1
,,,,,,,,,,,,,,,999mp938,2020-07-22_09h38.19.901,lexical_decision_task_MP,2020.1.3,MacIntel,60,,0,-0.450381679,-0.296074155,1,0,0,0.535,button_left,0.535,1,,,,,,434,NW,UN,33,impurb,PITROM,a,,,,,,0,276,276,373,1
,,,,,,,,,,,,,,,999mp938,2020-07-22_09h38.19.901,lexical_decision_task_MP,2020.1.3,MacIntel,60,,0,-0.453653217,-0.296074155,1,0,0,0.552,button_left,0.552,1,,,,,,424,NW,UN,33,frudge,PRAILE,a,,,,,,0,277,277,363,1
,,,,,,,,,,,,,,,999mp938,2020-07-22_09h38.19.901,lexical_decision_task_MP,2020.1.3,MacIntel,60,,0,-0.449291167,-0.297164667,1,0,0,0.505,button_left,0.505,1,,,,,,278,NW,UN,50,celond,UNIGHS,a,,,,,,0,278,278,457,1
,,,,,,,,,,,,,,,999mp938,2020-07-22_09h38.19.901,lexical_decision_task_MP,2020.1.3,MacIntel,60,,0,0.492911668,-0.296074155,1,0,0,0.479,button_right,0.479,1,,,,,,84,WORD,"ID",33,mortal,MORTAL,l,,,,,,0,279,279,23,1
,,,,,,,,,,,,,,,999mp938,2020-07-22_09h38.19.901,lexical_decision_task_MP,2020.1.3,MacIntel,60,,0,0.492911668,-0.297164667,1,0,0,0.506,button_right,0.506,1,,,,,,185,WORD,UN,33,portal,BOTHER,l,,,,,,0,280,280,124,1
,,,,,,,,,,,,,,,999mp938,2020-07-22_09h38.19.901,lexical_decision_task_MP,2020.1.3,MacIntel,60,,0,-0.444929117,-0.300436205,1,0,0,0.532,button_left,0.532,1,,,,,,466,NW,UN,33,robuly,HOCITE,a,,,,,,0,281,281,405,1
,,,,,,,,,,,,,,,999mp938,2020-07-22_09h38.19.901,lexical_decision_task_MP,2020.1.3,MacIntel,60,,0,-0.442748092,-0.300436205,1,0,0,0.54,button_left,0.54,1,,,,,,264,NW,UN,50,distar,VACKEL,a,,,,,,0,282,282,443,1
,,,,,,,,,,,,,,,999mp938,2020-07-22_09h38.19.901,lexical_decision_task_MP,2020.1.3,MacIntel,60,,0,-0.447110142,-0.29825518,1,0,0,0.55,button_left,0.55,1,,,,,,410,NW,"ID",50,tunory,TUNORY,a,,,,,,0,283,283,349,1
,,,,,,,,,,,,,,,999mp938,2020-07-22_09h38.19.901,lexical_decision_task_MP,2020.1.3,MacIntel,60,,0,0.488549618,-0.29825518,1,0,0,0.674,button_right,0.674,1,,,,,,153,WORD,"ID",50,behold,BEHOLD,l,,,,,,0,284,284,92,1
,,,,,,,,,,,,,,,999mp938,2020-07-22_09h38.19.901,lexical_decision_task_MP,2020.1.3,MacIntel,60,,0,0.492911668,-0.296074155,1,0,0,0.434,button_right,0.434,1,,,,,,178,WORD,"ID",50,inform,INFORM,l,,,,,,0,285,285,117,1
,,,,,,,,,,,,,,,999mp938,2020-07-22_09h38.19.901,lexical_decision_task_MP,2020.1.3,MacIntel,60,,0,0.483097056,-0.30261723,1,0,0,0.521,button_right,0.521,1,,,,,,216,WORD,UN,33,liquor,BEHALF,l,,,,,,0,286,286,155,1
,,,,,,,,,,,,,,,999mp938,2020-07-22_09h38.19.901,lexical_decision_task_MP,2020.1.3,MacIntel,60,,0,-0.444929117,-0.300436205,1,0,0,0.555,button_left,0.555,1,,,,,,470,NW,UN,33,nobest,CRUDIO,a,,,,,,0,287,287,409,1
,,,,,,,,,,,,,,,999mp938,2020-07-22_09h38.19.901,lexical_decision_task_MP,2020.1.3,MacIntel,60,,0,-0.442748092,-0.300436205,1,0,0,0.481,button_left,0.481,1,,,,,,299,NW,UN,50,yarion,STURCH,a,,,,,,0,288,288,478,1
,,,,,,,,,,,,,,,999mp938,2020-07-22_09h38.19.901,lexical_decision_task_MP,2020.1.3,MacIntel,60,,0,0.496183206,-0.294983642,1,0,0,0.516,button_right,0.516,1,,,,,,149,WORD,"ID",50,invade,INVADE,l,,,,,,0,289,289,88,1
,,,,,,,,,,,,,,,999mp938,2020-07-22_09h38.19.901,lexical_decision_task_MP,2020.1.3,MacIntel,60,,0,-0.446019629,-0.299345692,1,0,0,0.502,button_left,0.502,1,,,,,,243,NW,UN,50,eatric,MUSIED,a,,,,,,0,290,290,422,1
,,,,,,,,,,,,,,,999mp938,2020-07-22_09h38.19.901,lexical_decision_task_MP,2020.1.3,MacIntel,60,,0,-0.448200654,-0.296074155,1,0,0,0.589,button_left,0.589,1,,,,,,399,NW,"ID",50,fouret,FOURET,a,,,,,,0,291,291,338,1
,,,,,,,,,,,,,,,999mp938,2020-07-22_09h38.19.901,lexical_decision_task_MP,2020.1.3,MacIntel,60,,0,0.497273719,-0.292802617,1,0,0,0.586,button_right,0.586,1,,,,,,214,WORD,UN,33,phobia,INTAKE,l,,,,,,0,292,292,153,1
,,,,,,,,,,,,,,,999mp938,2020-07-22_09h38.19.901,lexical_decision_task_MP,2020.1.3,MacIntel,60,,0,-0.444929117,-0.29825518,1,0,0,0.624,button_left,0.624,1,,,,,,248,NW,UN,50,batrol,STROLE,a,,,,,,0,293,293,427,1
,,,,,,,,,,,,,,,999mp938,2020-07-22_09h38.19.901,lexical_decision_task_MP,2020.1.3,MacIntel,60,,0,-0.449291167,-0.296074155,1,0,0,0.537,button_left,0.537,1,,,,,,360,NW,"ID",33,desory,DESORY,a,,,,,,0,294,294,299,1
,,,,,,,,,,,,,,,999mp938,2020-07-22_09h38.19.901,lexical_decision_task_MP,2020.1.3,MacIntel,60,,0,-0.45474373,-0.292802617,1,0,0,0.515,button_left,0.515,0,,,,,,120,WORD,"ID",33,strain,STRAIN,l,,,,,,0,295,295,59,1
,,,,,,,,,,,,,,,999mp938,2020-07-22_09h38.19.901,lexical_decision_task_MP,2020.1.3,MacIntel,60,,0,-0.448200654,-0.294983642,1,0,0,0.521,button_left,0.521,1,,,,,,463,NW,UN,33,chaite,KISPEL,a,,,,,,0,296,296,402,1
,,,,,,,,,,,,,,,999mp938,2020-07-22_09h38.19.901,lexical_decision_task_MP,2020.1.3,MacIntel,60,,0,-0.448200654,-0.294983642,1,0,0,0.529,button_left,0.529,1,,,,,,453,NW,UN,33,scouge,BOLVIS,a,,,,,,0,297,297,392,1
,,,,,,,,,,,,,,,999mp938,2020-07-22_09h38.19.901,lexical_decision_task_MP,2020.1.3,MacIntel,60,,0,-0.451472192,-0.292802617,1,0,0,0.6,button_left,0.6,1,,,,,,454,NW,UN,33,tondle,SCOUGE,a,,,,,,0,298,298,393,1
,,,,,,,,,,,,,,,999mp938,2020-07-22_09h38.19.901,lexical_decision_task_MP,2020.1.3,MacIntel,60,,0,0.495092694,-0.29389313,1,0,0,0.448,button_right,0.448,1,,,,,,76,WORD,"ID",33,exotic,EXOTIC,l,,,,,,0,299,299,15,1
,,,,,,,,,,,,,,,999mp938,2020-07-22_09h38.19.901,lexical_decision_task_MP,2020.1.3,MacIntel,60,,0,-0.453653217,-0.292802617,1,0,0,0.626,button_left,0.626,1,,,,,,342,NW,"ID",33,randow,RANDOW,a,,,,,,0,300,300,281,1
,,,,,,,,,,,,,,,999mp938,2020-07-22_09h38.19.901,lexical_decision_task_MP,2020.1.3,MacIntel,60,,0,0.495092694,-0.29389313,1,0,0,0.589,button_right,0.589,1,,,,,,200,WORD,UN,33,admire,BEACON,l,,,,,,0,301,301,139,1
,,,,,,,,,,,,,,,999mp938,2020-07-22_09h38.19.901,lexical_decision_task_MP,2020.1.3,MacIntel,60,,0,-0.455834242,-0.291712105,1,0,0,0.607,button_left,0.607,1,,,,,,344,NW,"ID",33,scrily,SCRILY,a,,,,,,0,302,302,283,1
,,,,,,,,,,,,,,,999mp938,2020-07-22_09h38.19.901,lexical_decision_task_MP,2020.1.3,MacIntel,60,,0,-0.453653217,-0.291712105,1,0,0,0.591,button_left,0.591,1,,,,,,267,NW,UN,50,packes,PASINK,a,,,,,,0,303,303,446,1
,,,,,,,,,,,,,,,999mp938,2020-07-22_09h38.19.901,lexical_decision_task_MP,2020.1.3,MacIntel,60,,0,-0.452562704,-0.292802617,1,0,0,0.599,button_left,0.599,1,,,,,,420,NW,"ID",50,gushop,GUSHOP,a,,,,,,0,304,304,359,1
,,,,,,,,,,,,,,,999mp938,2020-07-22_09h38.19.901,lexical_decision_task_MP,2020.1.3,MacIntel,60,,0,0.496183206,-0.290621592,1,0,0,0.533,button_right,0.533,1,,,,,,95,WORD,"ID",33,thread,THREAD,l,,,,,,0,305,305,34,1
,,,,,,,,,,,,,,,999mp938,2020-07-22_09h38.19.901,lexical_decision_task_MP,2020.1.3,MacIntel,60,,0,0.496183206,-0.292802617,1,0,0,0.708,button_right,0.708,0,,,,,,303,NW,"ID",33,fiream,FIREAM,a,,,,,,0,306,306,242,1
,,,,,,,,,,,,,,,999mp938,2020-07-22_09h38.19.901,lexical_decision_task_MP,2020.1.3,MacIntel,60,,0,-0.451472192,-0.292802617,1,0,0,0.746,button_left,0.746,1,,,,,,364,NW,"ID",50,impote,IMPOTE,a,,,,,,0,307,307,303,1
,,,,,,,,,,,,,,,999mp938,2020-07-22_09h38.19.901,lexical_decision_task_MP,2020.1.3,MacIntel,60,,0,0.495092694,-0.291712105,1,0,0,0.59,button_right,0.59,1,,,,,,222,WORD,UN,33,export,HINDER,l,,,,,,0,308,308,161,1
,,,,,,,,,,,,,,,999mp938,2020-07-22_09h38.19.901,lexical_decision_task_MP,2020.1.3,MacIntel,60,,0,0.496183206,-0.292802617,1,0,0,0.479,button_right,0.479,1,,,,,,51,WORD,UN,50,impose,HUNGRY,l,,,,,,0,309,309,230,1
,,,,,,,,,,,,,,,999mp938,2020-07-22_09h38.19.901,lexical_decision_task_MP,2020.1.3,MacIntel,60,,0,0.495092694,-0.297164667,1,0,0,0.59,button_right,0.59,1,,,,,,175,WORD,"ID",50,fabric,FABRIC,l,,,,,,0,310,310,114,1
,,,,,,,,,,,,,,,999mp938,2020-07-22_09h38.19.901,lexical_decision_task_MP,2020.1.3,MacIntel,60,,0,-0.450381679,-0.294983642,1,0,0,0.673,button_left,0.673,1,,,,,,314,NW,"ID",33,sprine,SPRINE,a,,,,,,0,311,311,253,1
,,,,,,,,,,,,,,,999mp938,2020-07-22_09h38.19.901,lexical_decision_task_MP,2020.1.3,MacIntel,60,,0,-0.450381679,-0.296074155,1,0,0,0.764,button_left,0.764,1,,,,,,411,NW,"ID",50,orchin,ORCHIN,a,,,,,,0,312,312,350,1
,,,,,,,,,,,,,,,999mp938,2020-07-22_09h38.19.901,lexical_decision_task_MP,2020.1.3,MacIntel,60,,0,-0.451472192,-0.294983642,1,0,0,0.565,button_left,0.565,1,,,,,,323,NW,"ID",33,rosail,ROSAIL,a,,,,,,0,313,313,262,1
,,,,,,,,,,,,,,,999mp938,2020-07-22_09h38.19.901,lexical_decision_task_MP,2020.1.3,MacIntel,60,,0,0.495092694,-0.29825518,1,0,0,0.58,button_right,0.58,1,,,,,,225,WORD,UN,33,casino,VULGAR,l,,,,,,0,314,314,164,1
,,,,,,,,,,,,,,,999mp938,2020-07-22_09h38.19.901,lexical_decision_task_MP,2020.1.3,MacIntel,60,,0,-0.448200654,-0.299345692,1,0,0,0.502,button_left,0.502,1,,,,,,447,NW,UN,33,sadent,GIRCUE,a,,,,,,0,315,315,386,1
,,,,,,,,,,,,,,,999mp938,2020-07-22_09h38.19.901,lexical_decision_task_MP,2020.1.3,MacIntel,60,,0,0.495092694,-0.29825518,1,0,0,0.615,button_right,0.615,1,,,,,,108,WORD,"ID",33,reckon,RECKON,l,,,,,,0,316,316,47,1
,,,,,,,,,,,,,,,999mp938,2020-07-22_09h38.19.901,lexical_decision_task_MP,2020.1.3,MacIntel,60,,0,-0.453653217,-0.294983642,1,0,0,0.632,button_left,0.632,1,,,,,,408,NW,"ID",50,hurnia,HURNIA,a,,,,,,0,317,317,347,1
,,,,,,,,,,,,,,,999mp938,2020-07-22_09h38.19.901,lexical_decision_task_MP,2020.1.3,MacIntel,60,,0,0.499454744,-0.297164667,1,0,0,0.466,button_right,0.466,1,,,,,,189,WORD,UN,33,backup,CENSOR,l,,,,,,0,318,318,128,1
,,,,,,,,,,,,,,,999mp938,2020-07-22_09h38.19.901,lexical_decision_task_MP,2020.1.3,MacIntel,60,,0,-0.450381679,-0.296074155,1,0,0,0.757,button_left,0.757,1,,,,,,269,NW,UN,50,wrimsy,ORCHET,a,,,,,,0,319,319,448,1
,,,,,,,,,,,,,,,999mp938,2020-07-22_09h38.19.901,lexical_decision_task_MP,2020.1.3,MacIntel,60,,0,-0.452562704,-0.296074155,1,0,0,0.673,button_left,0.673,1,,,,,,421,NW,UN,33,alcoud,KNISMA,a,,,,,,0,320,320,360,1
,,,,,,,,,,,,,,,999mp938,2020-07-22_09h38.19.901,lexical_decision_task_MP,2020.1.3,MacIntel,60,,0,-0.452562704,-0.296074155,1,0,0,0.457,button_left,0.457,1,,,,,,381,NW,"ID",50,huniek,HUNIEK,a,,,,,,0,321,321,320,1
,,,,,,,,,,,,,,,999mp938,2020-07-22_09h38.19.901,lexical_decision_task_MP,2020.1.3,MacIntel,60,,0,0.498364231,-0.294983642,1,0,0,0.449,button_right,0.449,1,,,,,,135,WORD,"ID",50,import,IMPORT,l,,,,,,0,322,322,74,1
,,,,,,,,,,,,,,,999mp938,2020-07-22_09h38.19.901,lexical_decision_task_MP,2020.1.3,MacIntel,60,,0,0.498364231,-0.296074155,1,0,0,0.571,button_right,0.571,1,,,,,,65,WORD,"ID",33,symbol,SYMBOL,l,,,,,,0,323,323,4,1
,,,,,,,,,,,,,,,999mp938,2020-07-22_09h38.19.901,lexical_decision_task_MP,2020.1.3,MacIntel,60,,0,-0.450381679,-0.296074155,1,0,0,0.487,button_left,0.487,1,,,,,,320,NW,"ID",33,jockal,JOCKAL,a,,,,,,0,324,324,259,1
,,,,,,,,,,,,,,,999mp938,2020-07-22_09h38.19.901,lexical_decision_task_MP,2020.1.3,MacIntel,60,,0,0.497273719,-0.296074155,1,0,0,0.588,button_right,0.588,1,,,,,,215,WORD,UN,33,lumber,PHOBIA,l,,,,,,0,325,325,154,1
,,,,,,,,,,,,,,,999mp938,2020-07-22_09h38.19.901,lexical_decision_task_MP,2020.1.3,MacIntel,60,,0,0.500545256,-0.296074155,1,0,0,0.543,button_right,0.543,1,,,,,,27,WORD,UN,50,comedy,SCREAM,l,,,,,,0,326,326,206,1
,,,,,,,,,,,,,,,999mp938,2020-07-22_09h38.19.901,lexical_decision_task_MP,2020.1.3,MacIntel,60,,0,-0.449291167,-0.296074155,1,0,0,0.543,button_left,0.543,1,,,,,,436,NW,UN,33,snapel,FRUTAN,a,,,,,,0,327,327,375,1
,,,,,,,,,,,,,,,999mp938,2020-07-22_09h38.19.901,lexical_decision_task_MP,2020.1.3,MacIntel,60,,0,-0.451472192,-0.294983642,1,0,0,0.556,button_left,0.556,1,,,,,,262,NW,UN,50,dolica,QUILEW,a,,,,,,0,328,328,441,1
,,,,,,,,,,,,,,,999mp938,2020-07-22_09h38.19.901,lexical_decision_task_MP,2020.1.3,MacIntel,60,,0,-0.446019629,-0.29825518,1,0,0,0.564,button_left,0.564,1,,,,,,254,NW,UN,50,apight,VAROSH,a,,,,,,0,329,329,433,1
,,,,,,,,,,,,,,,999mp938,2020-07-22_09h38.19.901,lexical_decision_task_MP,2020.1.3,MacIntel,60,,0,0.499454744,-0.294983642,1,0,0,0.434,button_right,0.434,1,,,,,,171,WORD,"ID",50,depart,DEPART,l,,,,,,0,330,330,110,1
,,,,,,,,,,,,,,,999mp938,2020-07-22_09h38.19.901,lexical_decision_task_MP,2020.1.3,MacIntel,60,,0,-0.452562704,-0.294983642,1,0,0,0.49,button_left,0.49,1,,,,,,382,NW,"ID",50,sarley,SARLEY,a,,,,,,0,331,331,321,1
,,,,,,,,,,,,,,,999mp938,2020-07-22_09h38.19.901,lexical_decision_task_MP,2020.1.3,MacIntel,60,,0,0.500545256,-0.29389313,1,0,0,0.486,button_right,0.486,1,,,,,,71,WORD,"ID",33,garden,GARDEN,l,,,,,,0,332,332,10,1
,,,,,,,,,,,,,,,999mp938,2020-07-22_09h38.19.901,lexical_decision_task_MP,2020.1.3,MacIntel,60,,0,-0.453653217,-0.29389313,1,0,0,0.482,button_left,0.482,1,,,,,,386,NW,"ID",50,ancust,ANCUST,a,,,,,,0,333,333,325,1
,,,,,,,,,,,,,,,999mp938,2020-07-22_09h38.19.901,lexical_decision_task_MP,2020.1.3,MacIntel,60,,0,0.501635769,-0.292802617,1,0,0,0.451,button_right,0.451,1,,,,,,150,WORD,"ID",50,random,RANDOM,l,,,,,,0,334,334,89,1
,,,,,,,,,,,,,,,999mp938,2020-07-22_09h38.19.901,lexical_decision_task_MP,2020.1.3,MacIntel,60,,0,-0.450381679,-0.294983642,1,0,0,0.441,button_left,0.441,0,,,,,,10,WORD,UN,50,cruise,ETHNIC,l,,,,,,0,335,335,189,1
,,,,,,,,,,,,,,,999mp938,2020-07-22_09h38.19.901,lexical_decision_task_MP,2020.1.3,MacIntel,60,,0,0.500545256,-0.291712105,1,0,0,0.416,button_right,0.416,1,,,,,,180,WORD,"ID",50,silent,SILENT,l,,,,,,0,336,336,119,1
,,,,,,,,,,,,,,,999mp938,2020-07-22_09h38.19.901,lexical_decision_task_MP,2020.1.3,MacIntel,60,,0,0.502726281,-0.291712105,1,0,0,0.507,button_right,0.507,1,,,,,,170,WORD,"ID",50,pounce,POUNCE,l,,,,,,0,337,337,109,1
,,,,,,,,,,,,,,,999mp938,2020-07-22_09h38.19.901,lexical_decision_task_MP,2020.1.3,MacIntel,60,,0,0.502726281,-0.290621592,1,0,0,0.555,button_right,0.555,1,,,,,,122,WORD,"ID",50,linger,LINGER,l,,,,,,0,338,338,61,1
,,,,,,,,,,,,,,,999mp938,2020-07-22_09h38.19.901,lexical_decision_task_MP,2020.1.3,MacIntel,60,,0,-0.455834242,-0.29389313,1,0,0,0.622,button_left,0.622,1,,,,,,354,NW,"ID",33,virlex,VIRLEX,a,,,,,,0,339,339,293,1
,,,,,,,,,,,,,,,999mp938,2020-07-22_09h38.19.901,lexical_decision_task_MP,2020.1.3,MacIntel,60,,0,0.501635769,-0.290621592,1,0,0,0.723,button_right,0.723,1,,,,,,198,WORD,UN,33,invoke,WICKED,l,,,,,,0,340,340,137,1
,,,,,,,,,,,,,,,999mp938,2020-07-22_09h38.19.901,lexical_decision_task_MP,2020.1.3,MacIntel,60,,0,-0.437295529,-0.30261723,1,0,0,0.698,button_left,0.698,1,,,,,,261,NW,UN,50,quilew,STUNCH,a,,,,,,0,341,341,440,1
,,,,,,,,,,,,,,,999mp938,2020-07-22_09h38.19.901,lexical_decision_task_MP,2020.1.3,MacIntel,60,,0,0.501635769,-0.290621592,1,0,0,0.501,button_right,0.501,1,,,,,,179,WORD,"ID",50,basket,BASKET,l,,,,,,0,342,342,118,1
,,,,,,,,,,,,,,,999mp938,2020-07-22_09h38.19.901,lexical_decision_task_MP,2020.1.3,MacIntel,60,,0,0.501635769,-0.291712105,1,0,0,0.461,button_right,0.461,1,,,,,,91,WORD,"ID",33,expand,EXPAND,l,,,,,,0,343,343,30,1
,,,,,,,,,,,,,,,999mp938,2020-07-22_09h38.19.901,lexical_decision_task_MP,2020.1.3,MacIntel,60,,0,-0.440567067,-0.300436205,1,0,0,0.624,button_left,0.624,1,,,,,,350,NW,"ID",33,nagurs,NAGURS,a,,,,,,0,344,344,289,1
,,,,,,,,,,,,,,,999mp938,2020-07-22_09h38.19.901,lexical_decision_task_MP,2020.1.3,MacIntel,60,,0,-0.441657579,-0.29825518,1,0,0,0.502,button_left,0.502,1,,,,,,247,NW,UN,50,strole,BLARGE,a,,,,,,0,345,345,426,1
,,,,,,,,,,,,,,,999mp938,2020-07-22_09h38.19.901,lexical_decision_task_MP,2020.1.3,MacIntel,60,,0,0.501635769,-0.291712105,1,0,0,0.54,button_right,0.54,1,,,,,,17,WORD,UN,50,humble,CHARGE,l,,,,,,0,346,346,196,1
,,,,,,,,,,,,,,,999mp938,2020-07-22_09h38.19.901,lexical_decision_task_MP,2020.1.3,MacIntel,60,,0,-0.439476554,-0.300436205,1,0,0,0.532,button_left,0.532,0,,,,,,24,WORD,UN,50,domain,PRAISE,l,,,,,,0,347,347,203,1
,,,,,,,,,,,,,,,999mp938,2020-07-22_09h38.19.901,lexical_decision_task_MP,2020.1.3,MacIntel,60,,0,-0.441657579,-0.299345692,1,0,0,0.522,button_left,0.522,1,,,,,,260,NW,UN,50,stunch,UNJECT,a,,,,,,0,348,348,439,1
,,,,,,,,,,,,,,,999mp938,2020-07-22_09h38.19.901,lexical_decision_task_MP,2020.1.3,MacIntel,60,,0,-0.442748092,-0.29825518,1,0,0,0.599,button_left,0.599,1,,,,,,458,NW,UN,33,hocite,BARCET,a,,,,,,0,349,349,397,1
,,,,,,,,,,,,,,,999mp938,2020-07-22_09h38.19.901,lexical_decision_task_MP,2020.1.3,MacIntel,60,,0,-0.442748092,-0.299345692,1,0,0,0.512,button_left,0.512,1,,,,,,396,NW,"ID",50,flengy,FLENGY,a,,,,,,0,350,350,335,1
,,,,,,,,,,,,,,,999mp938,2020-07-22_09h38.19.901,lexical_decision_task_MP,2020.1.3,MacIntel,60,,0,-0.442748092,-0.299345692,1,0,0,0.597,button_left,0.597,1,,,,,,250,NW,UN,50,lupict,MILTED,a,,,,,,0,351,351,429,1
,,,,,,,,,,,,,,,999mp938,2020-07-22_09h38.19.901,lexical_decision_task_MP,2020.1.3,MacIntel,60,,0,-0.446019629,-0.299345692,1,0,0,0.53,button_left,0.53,1,,,,,,293,NW,UN,50,inhort,SWANCE,a,,,,,,0,352,352,472,1
,,,,,,,,,,,,,,,999mp938,2020-07-22_09h38.19.901,lexical_decision_task_MP,2020.1.3,MacIntel,60,,0,-0.440567067,-0.300436205,1,0,0,0.499,button_left,0.499,1,,,,,,276,NW,UN,50,petain,YARMON,a,,,,,,0,353,353,455,1
,,,,,,,,,,,,,,,999mp938,2020-07-22_09h38.19.901,lexical_decision_task_MP,2020.1.3,MacIntel,60,,0,0.497273719,-0.294983642,1,0,0,0.594,button_right,0.594,1,,,,,,80,WORD,"ID",33,family,FAMILY,l,,,,,,0,354,354,19,1
,,,,,,,,,,,,,,,999mp938,2020-07-22_09h38.19.901,lexical_decision_task_MP,2020.1.3,MacIntel,60,,0,0.497273719,-0.297164667,1,0,0,0.538,button_right,0.538,1,,,,,,14,WORD,UN,50,orange,ALMOST,l,,,,,,0,355,355,193,1
,,,,,,,,,,,,,,,999mp938,2020-07-22_09h38.19.901,lexical_decision_task_MP,2020.1.3,MacIntel,60,,0,0.496183206,-0.296074155,1,0,0,0.571,button_right,0.571,1,,,,,,139,WORD,"ID",50,debris,DEBRIS,l,,,,,,0,356,356,78,1
,,,,,,,,,,,,,,,999mp938,2020-07-22_09h38.19.901,lexical_decision_task_MP,2020.1.3,MacIntel,60,,0,-0.440567067,-0.301526718,1,0,0,0.481,button_left,0.481,1,,,,,,373,NW,"ID",50,bigent,BIGENT,a,,,,,,0,357,357,312,1
,,,,,,,,,,,,,,,999mp938,2020-07-22_09h38.19.901,lexical_decision_task_MP,2020.1.3,MacIntel,60,,0,0.497273719,-0.296074155,1,0,0,0.565,button_right,0.565,1,,,,,,156,WORD,"ID",50,cradle,CRADLE,l,,,,,,0,358,358,95,1
,,,,,,,,,,,,,,,999mp938,2020-07-22_09h38.19.901,lexical_decision_task_MP,2020.1.3,MacIntel,60,,0,-0.442748092,-0.300436205,1,0,0,0.568,button_left,0.568,1,,,,,,319,NW,"ID",33,zomber,ZOMBER,a,,,,,,0,359,359,258,1
,,,,,,,,,,,,,,,999mp938,2020-07-22_09h38.19.901,lexical_decision_task_MP,2020.1.3,MacIntel,60,,0,-0.444929117,-0.299345692,1,0,0,0.557,button_left,0.557,1,,,,,,438,NW,UN,33,limpor,BAITCH,a,,,,,,0,360,360,377,1
,,,,,,,,,,,,,,,999mp938,2020-07-22_09h38.19.901,lexical_decision_task_MP,2020.1.3,MacIntel,60,,0,0.491821156,-0.29825518,1,0,0,0.606,button_right,0.606,1,,,,,,60,WORD,UN,50,fright,PENCIL,l,,,,,,0,361,361,239,1
,,,,,,,,,,,,,,,999mp938,2020-07-22_09h38.19.901,lexical_decision_task_MP,2020.1.3,MacIntel,60,,0,-0.447110142,-0.297164667,1,0,0,0.523,button_left,0.523,1,,,,,,281,NW,UN,50,porlex,MELATY,a,,,,,,0,362,362,460,1
,,,,,,,,,,,,,,,999mp938,2020-07-22_09h38.19.901,lexical_decision_task_MP,2020.1.3,MacIntel,60,,0,-0.450381679,-0.297164667,1,0,0,0.566,button_left,0.566,1,,,,,,300,NW,UN,50,smenco,YARION,a,,,,,,0,363,363,479,1
,,,,,,,,,,,,,,,999mp938,2020-07-22_09h38.19.901,lexical_decision_task_MP,2020.1.3,MacIntel,60,,0,-0.447110142,-0.29825518,1,0,0,0.594,button_left,0.594,1,,,,,,346,NW,"ID",33,saudic,SAUDIC,a,,,,,,0,364,364,285,1
,,,,,,,,,,,,,,,999mp938,2020-07-22_09h38.19.901,lexical_decision_task_MP,2020.1.3,MacIntel,60,,0,-0.442748092,-0.297164667,1,0,0,0.514,button_left,0.514,1,,,,,,429,NW,UN,33,caroey,FUNTLE,a,,,,,,0,365,365,368,1
,,,,,,,,,,,,,,,999mp938,2020-07-22_09h38.19.901,lexical_decision_task_MP,2020.1.3,MacIntel,60,,0,-0.448200654,-0.296074155,1,0,0,0.527,button_left,0.527,1,,,,,,351,NW,"ID",33,tiesch,TIESCH,a,,,,,,0,366,366,290,1
,,,,,,,,,,,,,,,999mp938,2020-07-22_09h38.19.901,lexical_decision_task_MP,2020.1.3,MacIntel,60,,0,-0.449291167,-0.296074155,1,0,0,0.733,button_left,0.733,1,,,,,,273,NW,UN,50,fumblo,SORTEL,a,,,,,,0,367,367,452,1
,,,,,,,,,,,,,,,999mp938,2020-07-22_09h38.19.901,lexical_decision_task_MP,2020.1.3,MacIntel,60,,0,-0.448200654,-0.296074155,1,0,0,0.48,button_left,0.48,1,,,,,,301,NW,"ID",33,fainch,FAINCH,a,,,,,,0,368,368,240,1
,,,,,,,,,,,,,,,999mp938,2020-07-22_09h38.19.901,lexical_decision_task_MP,2020.1.3,MacIntel,60,,0,0.484187568,-0.304798255,1,0,0,0.775,button_right,0.775,1,,,,,,85,WORD,"ID",33,sprawl,SPRAWL,l,,,,,,0,369,369,24,1
,,,,,,,,,,,,,,,999mp938,2020-07-22_09h38.19.901,lexical_decision_task_MP,2020.1.3,MacIntel,60,,0,-0.449291167,-0.296074155,1,0,0,0.533,button_left,0.533,1,,,,,,286,NW,UN,50,nymbel,RELDON,a,,,,,,0,370,370,465,1
,,,,,,,,,,,,,,,999mp938,2020-07-22_09h38.19.901,lexical_decision_task_MP,2020.1.3,MacIntel,60,,0,-0.449291167,-0.296074155,1,0,0,0.549,button_left,0.549,1,,,,,,391,NW,"ID",50,theldy,THELDY,a,,,,,,0,371,371,330,1
,,,,,,,,,,,,,,,999mp938,2020-07-22_09h38.19.901,lexical_decision_task_MP,2020.1.3,MacIntel,60,,0,-0.448200654,-0.297164667,1,0,0,0.449,button_left,0.449,1,,,,,,397,NW,"ID",50,camble,CAMBLE,a,,,,,,0,372,372,336,1
,,,,,,,,,,,,,,,999mp938,2020-07-22_09h38.19.901,lexical_decision_task_MP,2020.1.3,MacIntel,60,,0,-0.446019629,-0.29825518,1,0,0,0.449,button_left,0.449,1,,,,,,459,NW,UN,33,mingar,BAFENT,a,,,,,,0,373,373,398,1
,,,,,,,,,,,,,,,999mp938,2020-07-22_09h38.19.901,lexical_decision_task_MP,2020.1.3,MacIntel,60,,0,0.487459106,-0.30261723,1,0,0,0.553,button_right,0.553,1,,,,,,28,WORD,UN,50,sketch,COMEDY,l,,,,,,0,374,374,207,1
,,,,,,,,,,,,,,,999mp938,2020-07-22_09h38.19.901,lexical_decision_task_MP,2020.1.3,MacIntel,60,,0,-0.447110142,-0.299345692,1,0,0,0.489,button_left,0.489,1,,,,,,413,NW,"ID",50,equats,EQUATS,a,,,,,,0,375,375,352,1
,,,,,,,,,,,,,,,999mp938,2020-07-22_09h38.19.901,lexical_decision_task_MP,2020.1.3,MacIntel,60,,0,0.488549618,-0.303707743,1,0,0,0.59,button_right,0.59,1,,,,,,89,WORD,"ID",33,permit,PERMIT,l,,,,,,0,376,376,28,1
,,,,,,,,,,,,,,,999mp938,2020-07-22_09h38.19.901,lexical_decision_task_MP,2020.1.3,MacIntel,60,,0,-0.449291167,-0.29825518,1,0,0,0.456,button_left,0.456,1,,,,,,401,NW,"ID",50,mustil,MUSTIL,a,,,,,,0,377,377,340,1
,,,,,,,,,,,,,,,999mp938,2020-07-22_09h38.19.901,lexical_decision_task_MP,2020.1.3,MacIntel,60,,0,-0.446019629,-0.29825518,1,0,0,0.557,button_left,0.557,1,,,,,,423,NW,UN,33,praile,STRELD,a,,,,,,0,378,378,362,1
,,,,,,,,,,,,,,,999mp938,2020-07-22_09h38.19.901,lexical_decision_task_MP,2020.1.3,MacIntel,60,,0,0.487459106,-0.30261723,1,0,0,0.724,button_right,0.724,1,,,,,,136,WORD,"ID",50,bleach,BLEACH,l,,,,,,0,379,379,75,1
,,,,,,,,,,,,,,,999mp938,2020-07-22_09h38.19.901,lexical_decision_task_MP,2020.1.3,MacIntel,60,,0,-0.448200654,-0.297164667,1,0,0,0.55,button_left,0.55,1,,,,,,348,NW,"ID",33,dumple,DUMPLE,a,,,,,,0,380,380,287,1
,,,,,,,,,,,,,,,999mp938,2020-07-22_09h38.19.901,lexical_decision_task_MP,2020.1.3,MacIntel,60,,0,-0.450381679,-0.29825518,1,0,0,0.513,button_left,0.513,1,,,,,,387,NW,"ID",50,gronce,GRONCE,a,,,,,,0,381,381,326,1
,,,,,,,,,,,,,,,999mp938,2020-07-22_09h38.19.901,lexical_decision_task_MP,2020.1.3,MacIntel,60,,0,-0.449291167,-0.299345692,1,0,0,0.569,button_left,0.569,0,,,,,,140,WORD,"ID",50,prince,PRINCE,l,,,,,,0,382,382,79,1
,,,,,,,,,,,,,,,999mp938,2020-07-22_09h38.19.901,lexical_decision_task_MP,2020.1.3,MacIntel,60,,0,-0.451472192,-0.29825518,1,0,0,0.487,button_left,0.487,1,,,,,,272,NW,UN,50,sortel,DAMILT,a,,,,,,0,383,383,451,1
,,,,,,,,,,,,,,,999mp938,2020-07-22_09h38.19.901,lexical_decision_task_MP,2020.1.3,MacIntel,60,,0,0.486368593,-0.30261723,1,0,0,0.571,button_right,0.571,1,,,,,,201,WORD,UN,33,factor,ADMIRE,l,,,,,,0,384,384,140,1
,,,,,,,,,,,,,,,999mp938,2020-07-22_09h38.19.901,lexical_decision_task_MP,2020.1.3,MacIntel,60,,0,0.488549618,-0.30261723,1,0,0,0.483,button_right,0.483,1,,,,,,106,WORD,"ID",33,ransom,RANSOM,l,,,,,,0,385,385,45,1
,,,,,,,,,,,,,,,999mp938,2020-07-22_09h38.19.901,lexical_decision_task_MP,2020.1.3,MacIntel,60,,0,-0.450381679,-0.300436205,1,0,0,0.531,button_left,0.531,1,,,,,,409,NW,"ID",50,elopia,ELOPIA,a,,,,,,0,386,386,348,1
,,,,,,,,,,,,,,,999mp938,2020-07-22_09h38.19.901,lexical_decision_task_MP,2020.1.3,MacIntel,60,,0,-0.450381679,-0.299345692,1,0,0,0.567,button_left,0.567,1,,,,,,361,NW,"ID",50,pauche,PAUCHE,a,,,,,,0,387,387,300,1
,,,,,,,,,,,,,,,999mp938,2020-07-22_09h38.19.901,lexical_decision_task_MP,2020.1.3,MacIntel,60,,0,0.489640131,-0.300436205,1,0,0,0.432,button_right,0.432,1,,,,,,202,WORD,UN,33,phrase,FACTOR,l,,,,,,0,388,388,141,1
,,,,,,,,,,,,,,,999mp938,2020-07-22_09h38.19.901,lexical_decision_task_MP,2020.1.3,MacIntel,60,,0,0.489640131,-0.299345692,1,0,0,0.451,button_right,0.451,1,,,,,,186,WORD,UN,33,course,PORTAL,l,,,,,,0,389,389,125,1
,,,,,,,,,,,,,,,999mp938,2020-07-22_09h38.19.901,lexical_decision_task_MP,2020.1.3,MacIntel,60,,0,0.489640131,-0.299345692,1,0,0,0.589,button_right,0.589,1,,,,,,177,WORD,"ID",50,advent,ADVENT,l,,,,,,0,390,390,116,1
,,,,,,,,,,,,,,,999mp938,2020-07-22_09h38.19.901,lexical_decision_task_MP,2020.1.3,MacIntel,60,,0,0.489640131,-0.300436205,1,0,0,0.456,button_right,0.456,1,,,,,,93,WORD,"ID",33,public,PUBLIC,l,,,,,,0,391,391,32,1
,,,,,,,,,,,,,,,999mp938,2020-07-22_09h38.19.901,lexical_decision_task_MP,2020.1.3,MacIntel,60,,0,0.491821156,-0.29825518,1,0,0,0.484,button_right,0.484,1,,,,,,141,WORD,"ID",50,orphan,ORPHAN,l,,,,,,0,392,392,80,1
,,,,,,,,,,,,,,,999mp938,2020-07-22_09h38.19.901,lexical_decision_task_MP,2020.1.3,MacIntel,60,,0,-0.452562704,-0.297164667,1,0,0,0.506,button_left,0.506,1,,,,,,426,NW,UN,33,schind,URIVEL,a,,,,,,0,393,393,365,1
,,,,,,,,,,,,,,,999mp938,2020-07-22_09h38.19.901,lexical_decision_task_MP,2020.1.3,MacIntel,60,,0,0.494002181,-0.299345692,1,0,0,0.546,button_right,0.546,1,,,,,,190,WORD,UN,33,stable,BACKUP,l,,,,,,0,394,394,129,1
,,,,,,,,,,,,,,,999mp938,2020-07-22_09h38.19.901,lexical_decision_task_MP,2020.1.3,MacIntel,60,,0,0.491821156,-0.300436205,1,0,0,0.64,button_right,0.64,1,,,,,,207,WORD,UN,33,hockey,WREATH,l,,,,,,0,395,395,146,1
,,,,,,,,,,,,,,,999mp938,2020-07-22_09h38.19.901,lexical_decision_task_MP,2020.1.3,MacIntel,60,,0,0.494002181,-0.29825518,1,0,0,0.435,button_right,0.435,1,,,,,,154,WORD,"ID",50,author,AUTHOR,l,,,,,,0,396,396,93,1
,,,,,,,,,,,,,,,999mp938,2020-07-22_09h38.19.901,lexical_decision_task_MP,2020.1.3,MacIntel,60,,0,-0.453653217,-0.297164667,1,0,0,0.439,button_left,0.439,1,,,,,,252,NW,UN,50,resait,STAPOD,a,,,,,,0,397,397,431,1
,,,,,,,,,,,,,,,999mp938,2020-07-22_09h38.19.901,lexical_decision_task_MP,2020.1.3,MacIntel,60,,0,-0.448200654,-0.299345692,1,0,0,0.506,button_left,0.506,1,,,,,,253,NW,UN,50,varosh,RESAIT,a,,,,,,0,398,398,432,1
,,,,,,,,,,,,,,,999mp938,2020-07-22_09h38.19.901,lexical_decision_task_MP,2020.1.3,MacIntel,60,,0,-0.449291167,-0.299345692,1,0,0,0.475,button_left,0.475,1,,,,,,365,NW,"ID",50,guairt,GUAIRT,a,,,,,,0,399,399,304,1
,,,,,,,,,,,,,,,999mp938,2020-07-22_09h38.19.901,lexical_decision_task_MP,2020.1.3,MacIntel,60,,0,-0.450381679,-0.29825518,1,0,0,0.505,button_left,0.505,1,,,,,,298,NW,UN,50,sturch,PIERGY,a,,,,,,0,400,400,477,1
,,,,,,,,,,,,,,,999mp938,2020-07-22_09h38.19.901,lexical_decision_task_MP,2020.1.3,MacIntel,60,,0,-0.451472192,-0.29825518,1,0,0,0.498,button_left,0.498,1,,,,,,435,NW,UN,33,frutan,IMPURB,a,,,,,,0,401,401,374,1
,,,,,,,,,,,,,,,999mp938,2020-07-22_09h38.19.901,lexical_decision_task_MP,2020.1.3,MacIntel,60,,0,-0.450381679,-0.29825518,1,0,0,0.466,button_left,0.466,0,,,,,,6,WORD,UN,50,anchor,BUNDLE,l,,,,,,0,402,402,185,1
,,,,,,,,,,,,,,,999mp938,2020-07-22_09h38.19.901,lexical_decision_task_MP,2020.1.3,MacIntel,60,,0,-0.453653217,-0.297164667,1,0,0,0.494,button_left,0.494,1,,,,,,324,NW,"ID",33,steikh,STEIKH,a,,,,,,0,403,403,263,1
,,,,,,,,,,,,,,,999mp938,2020-07-22_09h38.19.901,lexical_decision_task_MP,2020.1.3,MacIntel,60,,0,0.491821156,-0.300436205,1,0,0,0.592,button_right,0.592,1,,,,,,32,WORD,UN,50,scream,BUCKLE,l,,,,,,0,404,404,211,1
,,,,,,,,,,,,,,,999mp938,2020-07-22_09h38.19.901,lexical_decision_task_MP,2020.1.3,MacIntel,60,,0,-0.452562704,-0.297164667,1,0,0,0.515,button_left,0.515,1,,,,,,460,NW,UN,33,justre,MINGAR,a,,,,,,0,405,405,399,1
,,,,,,,,,,,,,,,999mp938,2020-07-22_09h38.19.901,lexical_decision_task_MP,2020.1.3,MacIntel,60,,0,-0.453653217,-0.29825518,1,0,0,0.558,button_left,0.558,1,,,,,,432,NW,UN,33,drance,LUNKER,a,,,,,,0,406,406,371,1
,,,,,,,,,,,,,,,999mp938,2020-07-22_09h38.19.901,lexical_decision_task_MP,2020.1.3,MacIntel,60,,0,-0.453653217,-0.297164667,1,0,0,0.563,button_left,0.563,1,,,,,,405,NW,"ID",50,flumni,FLUMNI,a,,,,,,0,407,407,344,1
,,,,,,,,,,,,,,,999mp938,2020-07-22_09h38.19.901,lexical_decision_task_MP,2020.1.3,MacIntel,60,,0,0.490730643,-0.300436205,1,0,0,0.447,button_right,0.447,1,,,,,,173,WORD,"ID",50,shower,SHOWER,l,,,,,,0,408,408,112,1
,,,,,,,,,,,,,,,999mp938,2020-07-22_09h38.19.901,lexical_decision_task_MP,2020.1.3,MacIntel,60,,0,0.490730643,-0.301526718,1,0,0,0.573,button_right,0.573,1,,,,,,103,WORD,"ID",33,bounce,BOUNCE,l,,,,,,0,409,409,42,1
,,,,,,,,,,,,,,,999mp938,2020-07-22_09h38.19.901,lexical_decision_task_MP,2020.1.3,MacIntel,60,,0,0.491821156,-0.301526718,1,0,0,0.473,button_right,0.473,1,,,,,,211,WORD,UN,33,verify,INFECT,l,,,,,,0,410,410,150,1
,,,,,,,,,,,,,,,999mp938,2020-07-22_09h38.19.901,lexical_decision_task_MP,2020.1.3,MacIntel,60,,0,0.491821156,-0.300436205,1,0,0,0.479,button_right,0.479,1,,,,,,127,WORD,"ID",50,castle,CASTLE,l,,,,,,0,411,411,66,1
,,,,,,,,,,,,,,,999mp938,2020-07-22_09h38.19.901,lexical_decision_task_MP,2020.1.3,MacIntel,60,,0,0.489640131,-0.30261723,1,0,0,0.64,button_right,0.64,1,,,,,,5,WORD,UN,50,bundle,PLUNGE,l,,,,,,0,412,412,184,1
,,,,,,,,,,,,,,,999mp938,2020-07-22_09h38.19.901,lexical_decision_task_MP,2020.1.3,MacIntel,60,,0,-0.453653217,-0.294983642,1,0,0,0.538,button_left,0.538,1,,,,,,325,NW,"ID",33,thruse,THRUSE,a,,,,,,0,413,413,264,1
,,,,,,,,,,,,,,,999mp938,2020-07-22_09h38.19.901,lexical_decision_task_MP,2020.1.3,MacIntel,60,,0,-0.45474373,-0.294983642,1,0,0,0.499,button_left,0.499,1,,,,,,292,NW,UN,50,swance,ABLINT,a,,,,,,0,414,414,471,1
,,,,,,,,,,,,,,,999mp938,2020-07-22_09h38.19.901,lexical_decision_task_MP,2020.1.3,MacIntel,60,,0,0.490730643,-0.300436205,1,0,0,0.536,button_right,0.536,1,,,,,,56,WORD,UN,50,change,AMBUSH,l,,,,,,0,415,415,235,1
,,,,,,,,,,,,,,,999mp938,2020-07-22_09h38.19.901,lexical_decision_task_MP,2020.1.3,MacIntel,60,,0,0.489640131,-0.301526718,1,0,0,0.494,button_right,0.494,1,,,,,,72,WORD,"ID",33,bright,BRIGHT,l,,,,,,0,416,416,11,1
,,,,,,,,,,,,,,,999mp938,2020-07-22_09h38.19.901,lexical_decision_task_MP,2020.1.3,MacIntel,60,,0,0.490730643,-0.301526718,1,0,0,0.599,button_right,0.599,1,,,,,,195,WORD,UN,33,credit,RESIGN,l,,,,,,0,417,417,134,1
,,,,,,,,,,,,,,,999mp938,2020-07-22_09h38.19.901,lexical_decision_task_MP,2020.1.3,MacIntel,60,,0,-0.460196292,-0.296074155,1,0,0,0.505,button_left,0.505,0,,,,,,45,WORD,UN,50,single,CLERGY,l,,,,,,0,418,418,224,1
,,,,,,,,,,,,,,,999mp938,2020-07-22_09h38.19.901,lexical_decision_task_MP,2020.1.3,MacIntel,60,,0,-0.444929117,-0.303707743,1,0,0,0.563,button_left,0.563,1,,,,,,394,NW,"ID",50,spaqux,SPAQUX,a,,,,,,0,419,419,333,1
,,,,,,,,,,,,,,,999mp938,2020-07-22_09h38.19.901,lexical_decision_task_MP,2020.1.3,MacIntel,60,,0,0.490730643,-0.300436205,1,0,0,0.55,button_right,0.55,0,,,,,,390,NW,"ID",50,hatrus,HATRUS,a,,,,,,0,420,420,329,1
,,,,,,,,,,,,,,,999mp938,2020-07-22_09h38.19.901,lexical_decision_task_MP,2020.1.3,MacIntel,60,,0,0.491821156,-0.301526718,1,0,0,0.503,button_right,0.503,1,,,,,,123,WORD,"ID",50,strike,STRIKE,l,,,,,,0,421,421,62,1
,,,,,,,,,,,,,,,999mp938,2020-07-22_09h38.19.901,lexical_decision_task_MP,2020.1.3,MacIntel,60,,0,-0.447110142,-0.308069793,1,0,0,0.507,button_left,0.507,1,,,,,,471,NW,UN,33,cigney,NOBEST,a,,,,,,0,422,422,410,1
,,,,,,,,,,,,,,,999mp938,2020-07-22_09h38.19.901,lexical_decision_task_MP,2020.1.3,MacIntel,60,,0,-0.450381679,-0.303707743,1,0,0,0.64,button_left,0.64,1,,,,,,358,NW,"ID",33,fleack,FLEACK,a,,,,,,0,423,423,297,1
,,,,,,,,,,,,,,,999mp938,2020-07-22_09h38.19.901,lexical_decision_task_MP,2020.1.3,MacIntel,60,,0,0.491821156,-0.300436205,1,0,0,0.456,button_right,0.456,1,,,,,,228,WORD,UN,33,kidney,MASTER,l,,,,,,0,424,424,167,1
,,,,,,,,,,,,,,,999mp938,2020-07-22_09h38.19.901,lexical_decision_task_MP,2020.1.3,MacIntel,60,,0,-0.450381679,-0.304798255,1,0,0,0.488,button_left,0.488,1,,,,,,315,NW,"ID",33,laston,LASTON,a,,,,,,0,425,425,254,1
,,,,,,,,,,,,,,,999mp938,2020-07-22_09h38.19.901,lexical_decision_task_MP,2020.1.3,MacIntel,60,,0,0.491821156,-0.299345692,1,0,0,0.699,button_right,0.699,1,,,,,,144,WORD,"ID",50,sponge,SPONGE,l,,,,,,0,426,426,83,1
,,,,,,,,,,,,,,,999mp938,2020-07-22_09h38.19.901,lexical_decision_task_MP,2020.1.3,MacIntel,60,,0,0.491821156,-0.300436205,1,0,0,0.514,button_right,0.514,1,,,,,,11,WORD,UN,50,amount,CRUISE,l,,,,,,0,427,427,190,1
,,,,,,,,,,,,,,,999mp938,2020-07-22_09h38.19.901,lexical_decision_task_MP,2020.1.3,MacIntel,60,,0,-0.453653217,-0.300436205,1,0,0,0.537,button_left,0.537,1,,,,,,310,NW,"ID",33,daniet,DANIET,a,,,,,,0,428,428,249,1
,,,,,,,,,,,,,,,999mp938,2020-07-22_09h38.19.901,lexical_decision_task_MP,2020.1.3,MacIntel,60,,0,0.492911668,-0.301526718,1,0,0,0.475,button_right,0.475,1,,,,,,152,WORD,"ID",50,rocket,ROCKET,l,,,,,,0,429,429,91,1
,,,,,,,,,,,,,,,999mp938,2020-07-22_09h38.19.901,lexical_decision_task_MP,2020.1.3,MacIntel,60,,0,0.491821156,-0.300436205,1,0,0,0.516,button_right,0.516,1,,,,,,167,WORD,"ID",50,design,DESIGN,l,,,,,,0,430,430,106,1
,,,,,,,,,,,,,,,999mp938,2020-07-22_09h38.19.901,lexical_decision_task_MP,2020.1.3,MacIntel,60,,0,0.491821156,-0.301526718,1,0,0,0.504,button_right,0.504,0,,,,,,402,NW,"ID",50,syntic,SYNTIC,a,,,,,,0,431,431,341,1
,,,,,,,,,,,,,,,999mp938,2020-07-22_09h38.19.901,lexical_decision_task_MP,2020.1.3,MacIntel,60,,0,-0.455834242,-0.299345692,1,0,0,0.491,button_left,0.491,1,,,,,,465,NW,UN,33,bafent,WHIVEX,a,,,,,,0,432,432,404,1
,,,,,,,,,,,,,,,999mp938,2020-07-22_09h38.19.901,lexical_decision_task_MP,2020.1.3,MacIntel,60,,0,-0.45474373,-0.299345692,1,0,0,0.511,button_left,0.511,0,,,,,,131,WORD,"ID",50,quench,QUENCH,l,,,,,,0,433,433,70,1
,,,,,,,,,,,,,,,999mp938,2020-07-22_09h38.19.901,lexical_decision_task_MP,2020.1.3,MacIntel,60,,0,0.494002181,-0.299345692,1,0,0,0.59,button_right,0.59,1,,,,,,102,WORD,"ID",33,direct,DIRECT,l,,,,,,0,434,434,41,1
,,,,,,,,,,,,,,,999mp938,2020-07-22_09h38.19.901,lexical_decision_task_MP,2020.1.3,MacIntel,60,,0,-0.418756816,-0.337513631,1,0,0,0.673,button_left,0.673,1,,,,,,406,NW,"ID",50,nouply,NOUPLY,a,,,,,,0,435,435,345,1
,,,,,,,,,,,,,,,999mp938,2020-07-22_09h38.19.901,lexical_decision_task_MP,2020.1.3,MacIntel,60,,0,-0.470010905,-0.320065431,1,0,0,0.071,button_left,0.071,0,,,,,,226,WORD,UN,33,flower,CASINO,l,,,,,,0,436,436,165,1
,,,,,,,,,,,,,,,999mp938,2020-07-22_09h38.19.901,lexical_decision_task_MP,2020.1.3,MacIntel,60,,0,-0.453653217,-0.30261723,1,0,0,0.558,button_left,0.558,1,,,,,,442,NW,UN,33,dorsex,ABOUNE,a,,,,,,0,437,437,381,1
,,,,,,,,,,,,,,,999mp938,2020-07-22_09h38.19.901,lexical_decision_task_MP,2020.1.3,MacIntel,60,,0,-0.461286805,-0.309160305,1,0,0,0.549,button_left,0.549,1,,,,,,372,NW,"ID",50,ramily,RAMILY,a,,,,,,0,438,438,311,1
,,,,,,,,,,,,,,,999mp938,2020-07-22_09h38.19.901,lexical_decision_task_MP,2020.1.3,MacIntel,60,,0,0.495092694,-0.296074155,1,0,0,0.515,button_right,0.515,1,,,,,,7,WORD,UN,50,abrupt,ANCHOR,l,,,,,,0,439,439,186,1
,,,,,,,,,,,,,,,999mp938,2020-07-22_09h38.19.901,lexical_decision_task_MP,2020.1.3,MacIntel,60,,0,0.497273719,-0.296074155,1,0,0,0.451,button_right,0.451,1,,,,,,231,WORD,UN,33,inject,EXPORT,l,,,,,,0,440,440,170,1
,,,,,,,,,,,,,,,999mp938,2020-07-22_09h38.19.901,lexical_decision_task_MP,2020.1.3,MacIntel,60,,0,0.497273719,-0.29825518,1,0,0,0.526,button_right,0.526,1,,,,,,115,WORD,"ID",33,guitar,GUITAR,l,,,,,,0,441,441,54,1
,,,,,,,,,,,,,,,999mp938,2020-07-22_09h38.19.901,lexical_decision_task_MP,2020.1.3,MacIntel,60,,0,0.498364231,-0.294983642,1,0,0,0.507,button_right,0.507,1,,,,,,99,WORD,"ID",33,fluent,FLUENT,l,,,,,,0,442,442,38,1
,,,,,,,,,,,,,,,999mp938,2020-07-22_09h38.19.901,lexical_decision_task_MP,2020.1.3,MacIntel,60,,0,-0.470010905,-0.301526718,1,0,0,0.646,button_left,0.646,1,,,,,,363,NW,"ID",50,breali,BREALI,a,,,,,,0,443,443,302,1
,,,,,,,,,,,,,,,999mp938,2020-07-22_09h38.19.901,lexical_decision_task_MP,2020.1.3,MacIntel,60,,0,0.499454744,-0.29389313,1,0,0,0.472,button_right,0.472,1,,,,,,157,WORD,"ID",50,dragon,DRAGON,l,,,,,,0,444,444,96,1
,,,,,,,,,,,,,,,999mp938,2020-07-22_09h38.19.901,lexical_decision_task_MP,2020.1.3,MacIntel,60,,0,-0.464558342,-0.303707743,1,0,0,0.58,button_left,0.58,1,,,,,,392,NW,"ID",50,rouncy,ROUNCY,a,,,,,,0,445,445,331,1
,,,,,,,,,,,,,,,999mp938,2020-07-22_09h38.19.901,lexical_decision_task_MP,2020.1.3,MacIntel,60,,0,-0.458015267,-0.30697928,1,0,0,0.506,button_left,0.506,0,,,,,,66,WORD,"ID",33,gospel,GOSPEL,l,,,,,,0,446,446,5,1
