instr_done_keyboard.keys,instr_done_touch.x,instr_done_touch.y,instr_done_touch.leftButton,instr_done_touch.midButton,instr_done_touch.rightButton,instr_done_touch.clicked_name,instruction_pages.thisRepN,instruction_pages.thisTrialN,instruction_pages.thisN,instruction_pages.thisIndex,instruction_pages.ran,pageN,phase,instruct_text,participant,date,expName,psychopyVersion,OS,frameRate,response.keys,response.corr,touch_resp.x,touch_resp.y,touch_resp.leftButton,touch_resp.midButton,touch_resp.rightButton,touch_resp.time,touch_resp.clicked_name,rt,corr,practice_trials.thisRepN,practice_trials.thisTrialN,practice_trials.thisN,practice_trials.thisIndex,practice_trials.ran,TrialID,StimulusType,Condition,PrimeDuration,Prime,Target,corrAns,end_of_practice_trials_pages.thisRepN,end_of_practice_trials_pages.thisTrialN,end_of_practice_trials_pages.thisN,end_of_practice_trials_pages.thisIndex,end_of_practice_trials_pages.ran,break_done_touch.x,break_done_touch.y,break_done_touch.leftButton,break_done_touch.midButton,break_done_touch.rightButton,break_done_keyboard.keys,trials.thisRepN,trials.thisTrialN,trials.thisN,trials.thisIndex,trials.ran,break_done_keyboard.rt,break_done_touch.clicked_name,response.rt
,0.024074074,-0.433333333,1,0,0,instr_done_button,0,0,0,0,1,1,instructions,"INSTRUCTIONS
At the start of each trial, look at the hash marks (######) in the center of the screen. After a moment, a string of letters will appear. Your task is to indicate if the letter string forms a word or not (i.e., if it is a nonword). For example, AUTHOR is a word while AUTHON is a nonword.

Press the space bar or click the button below to continue.",Test1,2020-07-22_14h11.33.015,lexical_decision_task_MP,2020.1.3,Win32,60,,,,,,,,,,,,,,,,,,,,,,,,,,,,,,,,,,,,,,,,,,
,0.012037037,-0.423148148,1,0,0,instr_done_button,0,1,1,1,1,2,instructions,"If your device has a keyboard, press the 'a' key for nonwords and the 'l' key for words. If your device does not have a keyboard, touch the left button on the screen for nonwords and the right button for words. Do not use the mouse as this will slow down your response. 

Press the space bar or click the button below to continue.",Test1,2020-07-22_14h11.33.015,lexical_decision_task_MP,2020.1.3,Win32,60,,,,,,,,,,,,,,,,,,,,,,,,,,,,,,,,,,,,,,,,,,
,0.012037037,-0.423148148,1,0,0,instr_done_button,0,2,2,2,1,3,instructions,"It is very important that you respond as quickly and accurately as possible, as each letter string will only be on the screen for two seconds. If you do not respond within this time, the message 'Too slow!' will be displayed and the experiment will progress to the next letter string. The first 20 trials will be practice trials and you will receive feedback on your answers. 

Press the space bar or touch the button below to start the practice trials.",Test1,2020-07-22_14h11.33.015,lexical_decision_task_MP,2020.1.3,Win32,60,,,,,,,,,,,,,,,,,,,,,,,,,,,,,,,,,,,,,,,,,,
,,,,,,,,,,,,,,,Test1,2020-07-22_14h11.33.015,lexical_decision_task_MP,2020.1.3,Win32,60,,0,,,,,,,,,-1,0,0,0,8,1,1009,NW,ID,33,aslert,ASLERT,a,,,,,,,,,,,,,,,,,,,
,,,,,,,,,,,,,,,Test1,2020-07-22_14h11.33.015,lexical_decision_task_MP,2020.1.3,Win32,60,,0,,,,,,,,,-1,0,1,1,14,1,1015,NW,UN,50,miaber,THRALE,a,,,,,,,,,,,,,,,,,,,
,,,,,,,,,,,,,,,Test1,2020-07-22_14h11.33.015,lexical_decision_task_MP,2020.1.3,Win32,60,,0,0.246296296,-0.314814815,1,0,0,0.21838,button_right,0.21838,1,0,2,2,7,1,1008,WORD,UN,50,hurdle,VOLUME,l,,,,,,,,,,,,,,,,,,,
,,,,,,,,,,,,,,,Test1,2020-07-22_14h11.33.015,lexical_decision_task_MP,2020.1.3,Win32,60,,0,0.246296296,-0.314814815,1,0,0,0.45197,button_right,0.45197,1,0,3,3,5,1,1006,WORD,UN,33,frenzy,OBTAIN,l,,,,,,,,,,,,,,,,,,,
,,,,,,,,,,,,,,,Test1,2020-07-22_14h11.33.015,lexical_decision_task_MP,2020.1.3,Win32,60,,0,0.246296296,-0.314814815,1,0,0,0.272745,button_right,0.272745,1,0,4,4,4,1,1005,WORD,UN,33,abound,SQUEAK,l,,,,,,,,,,,,,,,,,,,
,,,,,,,,,,,,,,,Test1,2020-07-22_14h11.33.015,lexical_decision_task_MP,2020.1.3,Win32,60,,0,0.246296296,-0.314814815,1,0,0,0.324585,button_right,0.324585,0,0,5,5,13,1,1014,NW,UN,33,winfer,ROUPET,a,,,,,,,,,,,,,,,,,,,
,,,,,,,,,,,,,,,Test1,2020-07-22_14h11.33.015,lexical_decision_task_MP,2020.1.3,Win32,60,,0,0.244444444,-0.313888889,1,0,0,0.308825,button_right,0.308825,0,0,6,6,12,1,1013,NW,UN,33,adveil,SPRINY,a,,,,,,,,,,,,,,,,,,,
,,,,,,,,,,,,,,,Test1,2020-07-22_14h11.33.015,lexical_decision_task_MP,2020.1.3,Win32,60,,0,0.239814815,-0.313888889,1,0,0,0.44321,button_right,0.44321,1,0,7,7,1,1,1002,WORD,ID,33,adjust,ADJUST,l,,,,,,,,,,,,,,,,,,,
,,,,,,,,,,,,,,,Test1,2020-07-22_14h11.33.015,lexical_decision_task_MP,2020.1.3,Win32,60,,0,0.234259259,-0.309259259,1,0,0,0.271675,button_right,0.271675,1,0,8,8,3,1,1004,WORD,ID,50,matrix,MATRIX,l,,,,,,,,,,,,,,,,,,,
,,,,,,,,,,,,,,,Test1,2020-07-22_14h11.33.015,lexical_decision_task_MP,2020.1.3,Win32,60,,0,0.234259259,-0.310185185,1,0,0,0.273815,button_right,0.273815,1,0,9,9,2,1,1003,WORD,ID,50,almond,ALMOND,l,,,,,,,,,,,,,,,,,,,
,,,,,,,,,,,,,,,Test1,2020-07-22_14h11.33.015,lexical_decision_task_MP,2020.1.3,Win32,60,,0,0.234259259,-0.310185185,1,0,0,0.146575,button_right,0.146575,0,0,10,10,10,1,1011,NW,ID,50,inlade,INLADE,a,,,,,,,,,,,,,,,,,,,
,,,,,,,,,,,,,,,Test1,2020-07-22_14h11.33.015,lexical_decision_task_MP,2020.1.3,Win32,60,,0,0.234259259,-0.310185185,1,0,0,0.071555,button_right,0.071555,1,0,11,11,0,1,1001,WORD,ID,33,utopia,UTOPIA,l,,,,,,,,,,,,,,,,,,,
,,,,,,,,,,,,,,,Test1,2020-07-22_14h11.33.015,lexical_decision_task_MP,2020.1.3,Win32,60,,0,0.234259259,-0.310185185,1,0,0,0.916715,button_right,0.916715,1,0,12,12,6,1,1007,WORD,UN,50,tropic,ZOMBIE,l,,,,,,,,,,,,,,,,,,,
,,,,,,,,,,,,,,,Test1,2020-07-22_14h11.33.015,lexical_decision_task_MP,2020.1.3,Win32,60,,0,0.234259259,-0.310185185,1,0,0,0.22659,button_right,0.22659,0,0,13,13,9,1,1010,NW,ID,33,fariny,FARINY,a,,,,,,,,,,,,,,,,,,,
,,,,,,,,,,,,,,,Test1,2020-07-22_14h11.33.015,lexical_decision_task_MP,2020.1.3,Win32,60,,0,0.231481481,-0.308333333,1,0,0,0.19341,button_right,0.19341,0,0,14,14,15,1,1016,NW,UN,50,mushed,WHAISE,a,,,,,,,,,,,,,,,,,,,
,,,,,,,,,,,,,,,Test1,2020-07-22_14h11.33.015,lexical_decision_task_MP,2020.1.3,Win32,60,,0,0.228703704,-0.308333333,1,0,0,0.195015,button_right,0.195015,0,0,15,15,11,1,1012,NW,ID,50,rashet,RASHET,a,,,,,,,,,,,,,,,,,,,
,0.105555556,-0.421296296,1,0,0,instr_done_button,,,,,,1,end_of_practice,"You have completed the practice trials. During the experimental trials, you will not receive feedback, but it is very important that you respond as quickly and accurately as possible. 
Before you begin, please ensure that you are in a comfortable and quiet location and will not be disturbed for about 25 minutes, as we cannot use your data if you do not complete all the trials. 
There will be opportunities to take breaks at regular intervals during the experiment. When you are ready to start the experimental trials, please press space or touch the button below.",Test1,2020-07-22_14h11.33.015,lexical_decision_task_MP,2020.1.3,Win32,60,,,,,,,,,,,,,,,,,,,,,,,,0,0,0,0,1,,,,,,,,,,,,,,
,,,,,,,,,,,,,,,Test1,2020-07-22_14h11.33.015,lexical_decision_task_MP,2020.1.3,Win32,60,,0,0.248148148,-0.323148148,1,0,0,1.862065,button_right,1.862065,0,,,,,,297,NW,UN,50,piergy,FERTIC,a,,,,,,0.248148148,-0.323148148,1,0,0,,0,0,0,476,1,,,
,,,,,,,,,,,,,,,Test1,2020-07-22_14h11.33.015,lexical_decision_task_MP,2020.1.3,Win32,60,,0,0.236111111,-0.318518519,1,0,0,0.77819,button_right,0.77819,0,,,,,,454,NW,UN,33,tondle,SCOUGE,a,,,,,,0.236111111,-0.318518519,1,0,0,,0,1,1,393,1,,,
,,,,,,,,,,,,,,,Test1,2020-07-22_14h11.33.015,lexical_decision_task_MP,2020.1.3,Win32,60,,0,,,,,,,,0.77819,-1,,,,,,83,WORD,ID,33,result,RESULT,l,,,,,,-0.107407407,-0.252777778,0,0,0,,0,2,2,22,1,,,
,,,,,,,,,,,,,,,Test1,2020-07-22_14h11.33.015,lexical_decision_task_MP,2020.1.3,Win32,60,,0,,,,,,,,0.77819,-1,,,,,,43,WORD,UN,50,foster,TONGUE,l,,,,,,-0.107407407,-0.252777778,0,0,0,,0,3,3,222,1,,,
,,,,,,,,,,,,,,,Test1,2020-07-22_14h11.33.015,lexical_decision_task_MP,2020.1.3,Win32,60,,0,,,,,,,,0.77819,-1,,,,,,381,NW,ID,50,huniek,HUNIEK,a,,,,,,-0.107407407,-0.252777778,0,0,0,,0,4,4,320,1,,,
,,,,,,,,,,,,,,,Test1,2020-07-22_14h11.33.015,lexical_decision_task_MP,2020.1.3,Win32,60,,0,,,,,,,,0.77819,-1,,,,,,28,WORD,UN,50,sketch,COMEDY,l,,,,,,-0.107407407,-0.252777778,0,0,0,,0,5,5,207,1,,,
,,,,,,,,,,,,,,,Test1,2020-07-22_14h11.33.015,lexical_decision_task_MP,2020.1.3,Win32,60,,0,,,,,,,,0.77819,-1,,,,,,115,WORD,ID,33,guitar,GUITAR,l,,,,,,-0.107407407,-0.252777778,0,0,0,,0,6,6,54,1,,,
,,,,,,,,,,,,,,,Test1,2020-07-22_14h11.33.015,lexical_decision_task_MP,2020.1.3,Win32,60,,0,,,,,,,,0.77819,-1,,,,,,373,NW,ID,50,bigent,BIGENT,a,,,,,,-0.107407407,-0.252777778,0,0,0,,0,7,7,312,1,,,
,,,,,,,,,,,,,,,Test1,2020-07-22_14h11.33.015,lexical_decision_task_MP,2020.1.3,Win32,60,,0,,,,,,,,0.77819,-1,,,,,,302,NW,ID,33,miluer,MILUER,a,,,,,,-0.107407407,-0.252777778,0,0,0,,0,8,8,241,1,,,
,,,,,,,,,,,,,,,Test1,2020-07-22_14h11.33.015,lexical_decision_task_MP,2020.1.3,Win32,60,,0,,,,,,,,0.77819,-1,,,,,,45,WORD,UN,50,single,CLERGY,l,,,,,,-0.107407407,-0.252777778,0,0,0,,0,9,9,224,1,,,
,,,,,,,,,,,,,,,Test1,2020-07-22_14h11.33.015,lexical_decision_task_MP,2020.1.3,Win32,60,,0,,,,,,,,0.77819,-1,,,,,,311,NW,ID,33,sproly,SPROLY,a,,,,,,-0.107407407,-0.252777778,0,0,0,,0,10,10,250,1,,,
,,,,,,,,,,,,,,,Test1,2020-07-22_14h11.33.015,lexical_decision_task_MP,2020.1.3,Win32,60,,0,,,,,,,,0.77819,-1,,,,,,205,WORD,UN,33,tailor,LOUNGE,l,,,,,,-0.107407407,-0.252777778,0,0,0,,0,11,11,144,1,,,
,,,,,,,,,,,,,,,Test1,2020-07-22_14h11.33.015,lexical_decision_task_MP,2020.1.3,Win32,60,,0,,,,,,,,0.77819,-1,,,,,,236,WORD,UN,33,grumpy,PIRATE,l,,,,,,-0.107407407,-0.252777778,0,0,0,,0,12,12,175,1,,,
,,,,,,,,,,,,,,,Test1,2020-07-22_14h11.33.015,lexical_decision_task_MP,2020.1.3,Win32,60,,0,,,,,,,,0.77819,-1,,,,,,10,WORD,UN,50,cruise,ETHNIC,l,,,,,,-0.107407407,-0.252777778,0,0,0,,0,13,13,189,1,,,
,,,,,,,,,,,,,,,Test1,2020-07-22_14h11.33.015,lexical_decision_task_MP,2020.1.3,Win32,60,,0,,,,,,,,0.77819,-1,,,,,,193,WORD,UN,33,mildew,OBJECT,l,,,,,,-0.107407407,-0.252777778,0,0,0,,0,14,14,132,1,,,
,,,,,,,,,,,,,,,Test1,2020-07-22_14h11.33.015,lexical_decision_task_MP,2020.1.3,Win32,60,,0,,,,,,,,0.77819,-1,,,,,,347,NW,ID,33,kerift,KERIFT,a,,,,,,-0.107407407,-0.252777778,0,0,0,,0,15,15,286,1,,,
,,,,,,,,,,,,,,,Test1,2020-07-22_14h11.33.015,lexical_decision_task_MP,2020.1.3,Win32,60,,0,,,,,,,,0.77819,-1,,,,,,363,NW,ID,50,breali,BREALI,a,,,,,,-0.107407407,-0.252777778,0,0,0,,0,16,16,302,1,,,
,,,,,,,,,,,,,,,Test1,2020-07-22_14h11.33.015,lexical_decision_task_MP,2020.1.3,Win32,60,,0,,,,,,,,0.77819,-1,,,,,,470,NW,UN,33,nobest,CRUDIO,a,,,,,,-0.107407407,-0.252777778,0,0,0,,0,17,17,409,1,,,
,,,,,,,,,,,,,,,Test1,2020-07-22_14h11.33.015,lexical_decision_task_MP,2020.1.3,Win32,60,,0,,,,,,,,0.77819,-1,,,,,,11,WORD,UN,50,amount,CRUISE,l,,,,,,-0.107407407,-0.252777778,0,0,0,,0,18,18,190,1,,,
,,,,,,,,,,,,,,,Test1,2020-07-22_14h11.33.015,lexical_decision_task_MP,2020.1.3,Win32,60,,0,,,,,,,,0.77819,-1,,,,,,75,WORD,ID,33,trophy,TROPHY,l,,,,,,-0.107407407,-0.252777778,0,0,0,,0,19,19,14,1,,,
,,,,,,,,,,,,,,,Test1,2020-07-22_14h11.33.015,lexical_decision_task_MP,2020.1.3,Win32,60,,0,,,,,,,,0.77819,-1,,,,,,192,WORD,UN,33,object,PLAGUE,l,,,,,,-0.107407407,-0.252777778,0,0,0,,0,20,20,131,1,,,
,,,,,,,,,,,,,,,Test1,2020-07-22_14h11.33.015,lexical_decision_task_MP,2020.1.3,Win32,60,,0,,,,,,,,0.77819,-1,,,,,,37,WORD,UN,50,powder,INSULT,l,,,,,,-0.107407407,-0.252777778,0,0,0,,0,21,21,216,1,,,
,,,,,,,,,,,,,,,Test1,2020-07-22_14h11.33.015,lexical_decision_task_MP,2020.1.3,Win32,60,,0,,,,,,,,0.77819,-1,,,,,,280,NW,UN,50,melaty,CURBOL,a,,,,,,-0.107407407,-0.252777778,0,0,0,,0,22,22,459,1,,,
,,,,,,,,,,,,,,,Test1,2020-07-22_14h11.33.015,lexical_decision_task_MP,2020.1.3,Win32,60,,0,,,,,,,,0.77819,-1,,,,,,383,NW,ID,50,aungre,AUNGRE,a,,,,,,-0.107407407,-0.252777778,0,0,0,,0,23,23,322,1,,,
,,,,,,,,,,,,,,,Test1,2020-07-22_14h11.33.015,lexical_decision_task_MP,2020.1.3,Win32,60,,0,,,,,,,,0.77819,-1,,,,,,395,NW,ID,50,colury,COLURY,a,,,,,,-0.107407407,-0.252777778,0,0,0,,0,24,24,334,1,,,
,,,,,,,,,,,,,,,Test1,2020-07-22_14h11.33.015,lexical_decision_task_MP,2020.1.3,Win32,60,,0,,,,,,,,0.77819,-1,,,,,,465,NW,UN,33,bafent,WHIVEX,a,,,,,,-0.107407407,-0.252777778,0,0,0,,0,25,25,404,1,,,
,,,,,,,,,,,,,,,Test1,2020-07-22_14h11.33.015,lexical_decision_task_MP,2020.1.3,Win32,60,,0,,,,,,,,0.77819,-1,,,,,,358,NW,ID,33,fleack,FLEACK,a,,,,,,-0.107407407,-0.252777778,0,0,0,,0,26,26,297,1,,,
,,,,,,,,,,,,,,,Test1,2020-07-22_14h11.33.015,lexical_decision_task_MP,2020.1.3,Win32,60,,0,,,,,,,,0.77819,-1,,,,,,62,WORD,ID,33,region,REGION,l,,,,,,-0.107407407,-0.252777778,0,0,0,,0,27,27,1,1,,,
,,,,,,,,,,,,,,,Test1,2020-07-22_14h11.33.015,lexical_decision_task_MP,2020.1.3,Win32,60,,0,,,,,,,,0.77819,-1,,,,,,462,NW,UN,33,kispel,ABSULT,a,,,,,,-0.107407407,-0.252777778,0,0,0,,0,28,28,401,1,,,
,,,,,,,,,,,,,,,Test1,2020-07-22_14h11.33.015,lexical_decision_task_MP,2020.1.3,Win32,60,,0,,,,,,,,0.77819,-1,,,,,,214,WORD,UN,33,phobia,INTAKE,l,,,,,,-0.107407407,-0.252777778,0,0,0,,0,29,29,153,1,,,
,,,,,,,,,,,,,,,Test1,2020-07-22_14h11.33.015,lexical_decision_task_MP,2020.1.3,Win32,60,,0,,,,,,,,0.77819,-1,,,,,,337,NW,ID,33,rejols,REJOLS,a,,,,,,-0.107407407,-0.252777778,0,0,0,,0,30,30,276,1,,,
,,,,,,,,,,,,,,,Test1,2020-07-22_14h11.33.015,lexical_decision_task_MP,2020.1.3,Win32,60,,0,,,,,,,,0.77819,-1,,,,,,320,NW,ID,33,jockal,JOCKAL,a,,,,,,-0.107407407,-0.252777778,0,0,0,,0,31,31,259,1,,,
,,,,,,,,,,,,,,,Test1,2020-07-22_14h11.33.015,lexical_decision_task_MP,2020.1.3,Win32,60,,0,,,,,,,,0.77819,-1,,,,,,334,NW,ID,33,watmeg,WATMEG,a,,,,,,-0.107407407,-0.252777778,0,0,0,,0,32,32,273,1,,,
,,,,,,,,,,,,,,,Test1,2020-07-22_14h11.33.015,lexical_decision_task_MP,2020.1.3,Win32,60,,0,,,,,,,,0.77819,-1,,,,,,133,WORD,ID,50,chrome,CHROME,l,,,,,,-0.107407407,-0.252777778,0,0,0,,0,33,33,72,1,,,
,,,,,,,,,,,,,,,Test1,2020-07-22_14h11.33.015,lexical_decision_task_MP,2020.1.3,Win32,60,,0,,,,,,,,0.77819,-1,,,,,,329,NW,ID,33,yarike,YARIKE,a,,,,,,-0.107407407,-0.252777778,0,0,0,,0,34,34,268,1,,,
,,,,,,,,,,,,,,,Test1,2020-07-22_14h11.33.015,lexical_decision_task_MP,2020.1.3,Win32,60,,0,,,,,,,,0.77819,-1,,,,,,239,WORD,UN,33,forest,LUMBER,l,,,,,,-0.107407407,-0.252777778,0,0,0,,0,35,35,178,1,,,
,,,,,,,,,,,,,,,Test1,2020-07-22_14h11.33.015,lexical_decision_task_MP,2020.1.3,Win32,60,,0,,,,,,,,0.77819,-1,,,,,,105,WORD,ID,33,number,NUMBER,l,,,,,,-0.107407407,-0.252777778,0,0,0,,0,36,36,44,1,,,
,,,,,,,,,,,,,,,Test1,2020-07-22_14h11.33.015,lexical_decision_task_MP,2020.1.3,Win32,60,,0,,,,,,,,0.77819,-1,,,,,,257,NW,UN,50,poluth,VENIOD,a,,,,,,-0.107407407,-0.252777778,0,0,0,,0,37,37,436,1,,,
,,,,,,,,,,,,,,,Test1,2020-07-22_14h11.33.015,lexical_decision_task_MP,2020.1.3,Win32,60,,0,,,,,,,,0.77819,-1,,,,,,201,WORD,UN,33,factor,ADMIRE,l,,,,,,-0.107407407,-0.252777778,0,0,0,,0,38,38,140,1,,,
,,,,,,,,,,,,,,,Test1,2020-07-22_14h11.33.015,lexical_decision_task_MP,2020.1.3,Win32,60,,0,,,,,,,,0.77819,-1,,,,,,290,NW,UN,50,pretch,SPLINO,a,,,,,,-0.107407407,-0.252777778,0,0,0,,0,39,39,469,1,,,
,,,,,,,,,,,,,,,Test1,2020-07-22_14h11.33.015,lexical_decision_task_MP,2020.1.3,Win32,60,,0,,,,,,,,0.77819,-1,,,,,,345,NW,ID,33,absend,ABSEND,a,,,,,,-0.107407407,-0.252777778,0,0,0,,0,40,40,284,1,,,
,,,,,,,,,,,,,,,Test1,2020-07-22_14h11.33.015,lexical_decision_task_MP,2020.1.3,Win32,60,,0,,,,,,,,0.77819,-1,,,,,,18,WORD,UN,50,patron,HUMBLE,l,,,,,,-0.107407407,-0.252777778,0,0,0,,0,41,41,197,1,,,
,,,,,,,,,,,,,,,Test1,2020-07-22_14h11.33.015,lexical_decision_task_MP,2020.1.3,Win32,60,,0,,,,,,,,0.77819,-1,,,,,,418,NW,ID,50,suidle,SUIDLE,a,,,,,,-0.107407407,-0.252777778,0,0,0,,0,42,42,357,1,,,
,,,,,,,,,,,,,,,Test1,2020-07-22_14h11.33.015,lexical_decision_task_MP,2020.1.3,Win32,60,,0,,,,,,,,0.77819,-1,,,,,,99,WORD,ID,33,fluent,FLUENT,l,,,,,,-0.107407407,-0.252777778,0,0,0,,0,43,43,38,1,,,
,,,,,,,,,,,,,,,Test1,2020-07-22_14h11.33.015,lexical_decision_task_MP,2020.1.3,Win32,60,,0,,,,,,,,0.77819,-1,,,,,,151,WORD,ID,50,mystic,MYSTIC,l,,,,,,-0.107407407,-0.252777778,0,0,0,,0,44,44,90,1,,,
,,,,,,,,,,,,,,,Test1,2020-07-22_14h11.33.015,lexical_decision_task_MP,2020.1.3,Win32,60,,0,,,,,,,,0.77819,-1,,,,,,73,WORD,ID,33,source,SOURCE,l,,,,,,-0.107407407,-0.252777778,0,0,0,,0,45,45,12,1,,,
,,,,,,,,,,,,,,,Test1,2020-07-22_14h11.33.015,lexical_decision_task_MP,2020.1.3,Win32,60,,0,,,,,,,,0.77819,-1,,,,,,195,WORD,UN,33,credit,RESIGN,l,,,,,,-0.107407407,-0.252777778,0,0,0,,0,46,46,134,1,,,
,,,,,,,,,,,,,,,Test1,2020-07-22_14h11.33.015,lexical_decision_task_MP,2020.1.3,Win32,60,,0,,,,,,,,0.77819,-1,,,,,,149,WORD,ID,50,invade,INVADE,l,,,,,,-0.107407407,-0.252777778,0,0,0,,0,47,47,88,1,,,
,,,,,,,,,,,,,,,Test1,2020-07-22_14h11.33.015,lexical_decision_task_MP,2020.1.3,Win32,60,,0,,,,,,,,0.77819,-1,,,,,,441,NW,UN,33,aboune,RASTOE,a,,,,,,-0.107407407,-0.252777778,0,0,0,,0,48,48,380,1,,,
,,,,,,,,,,,,,,,Test1,2020-07-22_14h11.33.015,lexical_decision_task_MP,2020.1.3,Win32,60,,0,,,,,,,,0.77819,-1,,,,,,206,WORD,UN,33,wreath,TAILOR,l,,,,,,-0.107407407,-0.252777778,0,0,0,,0,49,49,145,1,,,
,,,,,,,,,,,,,,,Test1,2020-07-22_14h11.33.015,lexical_decision_task_MP,2020.1.3,Win32,60,,0,,,,,,,,0.77819,-1,,,,,,156,WORD,ID,50,cradle,CRADLE,l,,,,,,-0.107407407,-0.252777778,0,0,0,,0,50,50,95,1,,,
,,,,,,,,,,,,,,,Test1,2020-07-22_14h11.33.015,lexical_decision_task_MP,2020.1.3,Win32,60,,0,,,,,,,,0.77819,-1,,,,,,242,NW,UN,50,musied,UNWERT,a,,,,,,-0.107407407,-0.252777778,0,0,0,,0,51,51,421,1,,,
,,,,,,,,,,,,,,,Test1,2020-07-22_14h11.33.015,lexical_decision_task_MP,2020.1.3,Win32,60,,0,,,,,,,,0.77819,-1,,,,,,391,NW,ID,50,theldy,THELDY,a,,,,,,-0.107407407,-0.252777778,0,0,0,,0,52,52,330,1,,,
,,,,,,,,,,,,,,,Test1,2020-07-22_14h11.33.015,lexical_decision_task_MP,2020.1.3,Win32,60,,0,,,,,,,,0.77819,-1,,,,,,473,NW,UN,33,hablin,CRIBLE,a,,,,,,-0.107407407,-0.252777778,0,0,0,,0,53,53,412,1,,,
,,,,,,,,,,,,,,,Test1,2020-07-22_14h11.33.015,lexical_decision_task_MP,2020.1.3,Win32,60,,0,,,,,,,,0.77819,-1,,,,,,180,WORD,ID,50,silent,SILENT,l,,,,,,-0.107407407,-0.252777778,0,0,0,,0,54,54,119,1,,,
,,,,,,,,,,,,,,,Test1,2020-07-22_14h11.33.015,lexical_decision_task_MP,2020.1.3,Win32,60,,0,,,,,,,,0.77819,-1,,,,,,65,WORD,ID,33,symbol,SYMBOL,l,,,,,,-0.107407407,-0.252777778,0,0,0,,0,55,55,4,1,,,
,,,,,,,,,,,,,,,Test1,2020-07-22_14h11.33.015,lexical_decision_task_MP,2020.1.3,Win32,60,,0,,,,,,,,0.77819,-1,,,,,,396,NW,ID,50,flengy,FLENGY,a,,,,,,-0.107407407,-0.252777778,0,0,0,,0,56,56,335,1,,,
,,,,,,,,,,,,,,,Test1,2020-07-22_14h11.33.015,lexical_decision_task_MP,2020.1.3,Win32,60,,0,,,,,,,,0.77819,-1,,,,,,49,WORD,UN,50,snatch,SURVEY,l,,,,,,-0.107407407,-0.252777778,0,0,0,,0,57,57,228,1,,,
,,,,,,,,,,,,,,,Test1,2020-07-22_14h11.33.015,lexical_decision_task_MP,2020.1.3,Win32,60,,0,,,,,,,,0.77819,-1,,,,,,33,WORD,UN,50,jungle,BUTLER,l,,,,,,-0.107407407,-0.252777778,0,0,0,,0,58,58,212,1,,,
,,,,,,,,,,,,,,,Test1,2020-07-22_14h11.33.015,lexical_decision_task_MP,2020.1.3,Win32,60,,0,,,,,,,,0.77819,-1,,,,,,24,WORD,UN,50,domain,PRAISE,l,,,,,,-0.107407407,-0.252777778,0,0,0,,0,59,59,203,1,,,
,,,,,,,,,,,,,,,Test1,2020-07-22_14h11.33.015,lexical_decision_task_MP,2020.1.3,Win32,60,,0,,,,,,,,0.77819,-1,,,,,,223,WORD,UN,33,period,KIDNEY,l,,,,,,-0.107407407,-0.252777778,0,0,0,,0,60,60,162,1,,,
,,,,,,,,,,,,,,,Test1,2020-07-22_14h11.33.015,lexical_decision_task_MP,2020.1.3,Win32,60,,0,,,,,,,,0.77819,-1,,,,,,131,WORD,ID,50,quench,QUENCH,l,,,,,,-0.107407407,-0.252777778,0,0,0,,0,61,61,70,1,,,
,,,,,,,,,,,,,,,Test1,2020-07-22_14h11.33.015,lexical_decision_task_MP,2020.1.3,Win32,60,,0,,,,,,,,0.77819,-1,,,,,,440,NW,UN,33,rastoe,SARIDE,a,,,,,,-0.107407407,-0.252777778,0,0,0,,0,62,62,379,1,,,
,,,,,,,,,,,,,,,Test1,2020-07-22_14h11.33.015,lexical_decision_task_MP,2020.1.3,Win32,60,,0,,,,,,,,0.77819,-1,,,,,,480,NW,UN,33,knisma,ROBULY,a,,,,,,-0.107407407,-0.252777778,0,0,0,,0,63,63,419,1,,,
,,,,,,,,,,,,,,,Test1,2020-07-22_14h11.33.015,lexical_decision_task_MP,2020.1.3,Win32,60,,0,,,,,,,,0.77819,-1,,,,,,378,NW,ID,50,shrile,SHRILE,a,,,,,,-0.107407407,-0.252777778,0,0,0,,0,64,64,317,1,,,
,,,,,,,,,,,,,,,Test1,2020-07-22_14h11.33.015,lexical_decision_task_MP,2020.1.3,Win32,60,,0,,,,,,,,0.77819,-1,,,,,,234,WORD,UN,33,poster,CLUMSY,l,,,,,,-0.107407407,-0.252777778,0,0,0,,0,65,65,173,1,,,
,,,,,,,,,,,,,,,Test1,2020-07-22_14h11.33.015,lexical_decision_task_MP,2020.1.3,Win32,60,,0,,,,,,,,0.77819,-1,,,,,,48,WORD,UN,50,survey,WALNUT,l,,,,,,-0.107407407,-0.252777778,0,0,0,,0,66,66,227,1,,,
,,,,,,,,,,,,,,,Test1,2020-07-22_14h11.33.015,lexical_decision_task_MP,2020.1.3,Win32,60,,0,,,,,,,,0.77819,-1,,,,,,443,NW,UN,33,jaunce,DORSEX,a,,,,,,-0.107407407,-0.252777778,0,0,0,,0,67,67,382,1,,,
,,,,,,,,,,,,,,,Test1,2020-07-22_14h11.33.015,lexical_decision_task_MP,2020.1.3,Win32,60,,0,,,,,,,,0.77819,-1,,,,,,389,NW,ID,50,witmer,WITMER,a,,,,,,-0.107407407,-0.252777778,0,0,0,,0,68,68,328,1,,,
,,,,,,,,,,,,,,,Test1,2020-07-22_14h11.33.015,lexical_decision_task_MP,2020.1.3,Win32,60,,0,,,,,,,,0.77819,-1,,,,,,6,WORD,UN,50,anchor,BUNDLE,l,,,,,,-0.107407407,-0.252777778,0,0,0,,0,69,69,185,1,,,
,,,,,,,,,,,,,,,Test1,2020-07-22_14h11.33.015,lexical_decision_task_MP,2020.1.3,Win32,60,,0,,,,,,,,0.77819,-1,,,,,,341,NW,ID,33,myrtie,MYRTIE,a,,,,,,-0.107407407,-0.252777778,0,0,0,,0,70,70,280,1,,,
,,,,,,,,,,,,,,,Test1,2020-07-22_14h11.33.015,lexical_decision_task_MP,2020.1.3,Win32,60,,0,,,,,,,,0.77819,-1,,,,,,19,WORD,UN,50,breast,PATRON,l,,,,,,-0.107407407,-0.252777778,0,0,0,,0,71,71,198,1,,,
,,,,,,,,,,,,,,,Test1,2020-07-22_14h11.33.015,lexical_decision_task_MP,2020.1.3,Win32,60,,0,,,,,,,,0.77819,-1,,,,,,8,WORD,UN,50,hustle,ABRUPT,l,,,,,,-0.107407407,-0.252777778,0,0,0,,0,72,72,187,1,,,
,,,,,,,,,,,,,,,Test1,2020-07-22_14h11.33.015,lexical_decision_task_MP,2020.1.3,Win32,60,,0,,,,,,,,0.77819,-1,,,,,,388,NW,ID,50,cragin,CRAGIN,a,,,,,,-0.107407407,-0.252777778,0,0,0,,0,73,73,327,1,,,
,,,,,,,,,,,,,,,Test1,2020-07-22_14h11.33.015,lexical_decision_task_MP,2020.1.3,Win32,60,,0,,,,,,,,0.77819,-1,,,,,,394,NW,ID,50,spaqux,SPAQUX,a,,,,,,-0.107407407,-0.252777778,0,0,0,,0,74,74,333,1,,,
,,,,,,,,,,,,,,,Test1,2020-07-22_14h11.33.015,lexical_decision_task_MP,2020.1.3,Win32,60,,0,,,,,,,,0.77819,-1,,,,,,84,WORD,ID,33,mortal,MORTAL,l,,,,,,-0.107407407,-0.252777778,0,0,0,,0,75,75,23,1,,,
,,,,,,,,,,,,,,,Test1,2020-07-22_14h11.33.015,lexical_decision_task_MP,2020.1.3,Win32,60,,0,,,,,,,,0.77819,-1,,,,,,92,WORD,ID,33,strand,STRAND,l,,,,,,-0.107407407,-0.252777778,0,0,0,,0,76,76,31,1,,,
,,,,,,,,,,,,,,,Test1,2020-07-22_14h11.33.015,lexical_decision_task_MP,2020.1.3,Win32,60,,0,,,,,,,,0.77819,-1,,,,,,416,NW,ID,50,pathel,PATHEL,a,,,,,,-0.107407407,-0.252777778,0,0,0,,0,77,77,355,1,,,
,,,,,,,,,,,,,,,Test1,2020-07-22_14h11.33.015,lexical_decision_task_MP,2020.1.3,Win32,60,,0,,,,,,,,0.77819,-1,,,,,,54,WORD,UN,50,stroke,RAMBLE,l,,,,,,-0.107407407,-0.252777778,0,0,0,,0,78,78,233,1,,,
,,,,,,,,,,,,,,,Test1,2020-07-22_14h11.33.015,lexical_decision_task_MP,2020.1.3,Win32,60,,0,,,,,,,,0.77819,-1,,,,,,128,WORD,ID,50,senior,SENIOR,l,,,,,,-0.107407407,-0.252777778,0,0,0,,0,79,79,67,1,,,
,,,,,,,,,,,,,,,Test1,2020-07-22_14h11.33.015,lexical_decision_task_MP,2020.1.3,Win32,60,,0,,,,,,,,0.77819,-1,,,,,,410,NW,ID,50,tunory,TUNORY,a,,,,,,-0.107407407,-0.252777778,0,0,0,,0,80,80,349,1,,,
,,,,,,,,,,,,,,,Test1,2020-07-22_14h11.33.015,lexical_decision_task_MP,2020.1.3,Win32,60,,0,,,,,,,,0.77819,-1,,,,,,369,NW,ID,50,wronch,WRONCH,a,,,,,,-0.107407407,-0.252777778,0,0,0,,0,81,81,308,1,,,
,,,,,,,,,,,,,,,Test1,2020-07-22_14h11.33.015,lexical_decision_task_MP,2020.1.3,Win32,60,,0,,,,,,,,0.77819,-1,,,,,,279,NW,UN,50,curbol,CELOND,a,,,,,,-0.107407407,-0.252777778,0,0,0,,0,82,82,458,1,,,
,,,,,,,,,,,,,,,Test1,2020-07-22_14h11.33.015,lexical_decision_task_MP,2020.1.3,Win32,60,,0,,,,,,,,0.77819,-1,,,,,,303,NW,ID,33,fiream,FIREAM,a,,,,,,-0.107407407,-0.252777778,0,0,0,,0,83,83,242,1,,,
,,,,,,,,,,,,,,,Test1,2020-07-22_14h11.33.015,lexical_decision_task_MP,2020.1.3,Win32,60,,0,,,,,,,,0.77819,-1,,,,,,364,NW,ID,50,impote,IMPOTE,a,,,,,,-0.107407407,-0.252777778,0,0,0,,0,84,84,303,1,,,
,,,,,,,,,,,,,,,Test1,2020-07-22_14h11.33.015,lexical_decision_task_MP,2020.1.3,Win32,60,,0,,,,,,,,0.77819,-1,,,,,,210,WORD,UN,33,infect,MONKEY,l,,,,,,-0.107407407,-0.252777778,0,0,0,,0,85,85,149,1,,,
,,,,,,,,,,,,,,,Test1,2020-07-22_14h11.33.015,lexical_decision_task_MP,2020.1.3,Win32,60,,0,,,,,,,,0.77819,-1,,,,,,15,WORD,UN,50,faucet,AMOUNT,l,,,,,,-0.107407407,-0.252777778,0,0,0,,0,86,86,194,1,,,
,,,,,,,,,,,,,,,Test1,2020-07-22_14h11.33.015,lexical_decision_task_MP,2020.1.3,Win32,60,,0,,,,,,,,0.77819,-1,,,,,,107,WORD,ID,33,slogan,SLOGAN,l,,,,,,-0.107407407,-0.252777778,0,0,0,,0,87,87,46,1,,,
,,,,,,,,,,,,,,,Test1,2020-07-22_14h11.33.015,lexical_decision_task_MP,2020.1.3,Win32,60,,0,,,,,,,,0.77819,-1,,,,,,372,NW,ID,50,ramily,RAMILY,a,,,,,,-0.107407407,-0.252777778,0,0,0,,0,88,88,311,1,,,
,,,,,,,,,,,,,,,Test1,2020-07-22_14h11.33.015,lexical_decision_task_MP,2020.1.3,Win32,60,,0,,,,,,,,0.77819,-1,,,,,,199,WORD,UN,33,plague,INVOKE,l,,,,,,-0.107407407,-0.252777778,0,0,0,,0,89,89,138,1,,,
,,,,,,,,,,,,,,,Test1,2020-07-22_14h11.33.015,lexical_decision_task_MP,2020.1.3,Win32,60,,0,,,,,,,,0.77819,-1,,,,,,403,NW,ID,50,bruats,BRUATS,a,,,,,,-0.107407407,-0.252777778,0,0,0,,0,90,90,342,1,,,
,,,,,,,,,,,,,,,Test1,2020-07-22_14h11.33.015,lexical_decision_task_MP,2020.1.3,Win32,60,,0,,,,,,,,0.77819,-1,,,,,,261,NW,UN,50,quilew,STUNCH,a,,,,,,-0.107407407,-0.252777778,0,0,0,,0,91,91,440,1,,,
,,,,,,,,,,,,,,,Test1,2020-07-22_14h11.33.015,lexical_decision_task_MP,2020.1.3,Win32,60,,0,,,,,,,,0.77819,-1,,,,,,340,NW,ID,33,fiatch,FIATCH,a,,,,,,-0.107407407,-0.252777778,0,0,0,,0,92,92,279,1,,,
,,,,,,,,,,,,,,,Test1,2020-07-22_14h11.33.015,lexical_decision_task_MP,2020.1.3,Win32,60,,0,,,,,,,,0.77819,-1,,,,,,475,NW,UN,33,josted,PEBRIC,a,,,,,,-0.107407407,-0.252777778,0,0,0,,0,93,93,414,1,,,
,,,,,,,,,,,,,,,Test1,2020-07-22_14h11.33.015,lexical_decision_task_MP,2020.1.3,Win32,60,,0,,,,,,,,0.77819,-1,,,,,,220,WORD,UN,33,mascot,VOYAGE,l,,,,,,-0.107407407,-0.252777778,0,0,0,,0,94,94,159,1,,,
,,,,,,,,,,,,,,,Test1,2020-07-22_14h11.33.015,lexical_decision_task_MP,2020.1.3,Win32,60,,0,,,,,,,,0.77819,-1,,,,,,446,NW,UN,33,gircue,RUNAMO,a,,,,,,-0.107407407,-0.252777778,0,0,0,,0,95,95,385,1,,,
,,,,,,,,,,,,,,,Test1,2020-07-22_14h11.33.015,lexical_decision_task_MP,2020.1.3,Win32,60,,0,,,,,,,,0.77819,-1,,,,,,21,WORD,UN,50,jockey,SIMPLE,l,,,,,,-0.107407407,-0.252777778,0,0,0,,0,96,96,200,1,,,
,,,,,,,,,,,,,,,Test1,2020-07-22_14h11.33.015,lexical_decision_task_MP,2020.1.3,Win32,60,,0,,,,,,,,0.77819,-1,,,,,,125,WORD,ID,50,nickel,NICKEL,l,,,,,,-0.107407407,-0.252777778,0,0,0,,0,97,97,64,1,,,
,,,,,,,,,,,,,,,Test1,2020-07-22_14h11.33.015,lexical_decision_task_MP,2020.1.3,Win32,60,,0,,,,,,,,0.77819,-1,,,,,,478,NW,UN,33,pebric,ACRISE,a,,,,,,-0.107407407,-0.252777778,0,0,0,,0,98,98,417,1,,,
,,,,,,,,,,,,,,,Test1,2020-07-22_14h11.33.015,lexical_decision_task_MP,2020.1.3,Win32,60,,0,,,,,,,,0.77819,-1,,,,,,87,WORD,ID,33,filter,FILTER,l,,,,,,-0.107407407,-0.252777778,0,0,0,,0,99,99,26,1,,,
,,,,,,,,,,,,,,,Test1,2020-07-22_14h11.33.015,lexical_decision_task_MP,2020.1.3,Win32,60,,0,,,,,,,,0.77819,-1,,,,,,324,NW,ID,33,steikh,STEIKH,a,,,,,,-0.107407407,-0.252777778,0,0,0,,0,100,100,263,1,,,
,,,,,,,,,,,,,,,Test1,2020-07-22_14h11.33.015,lexical_decision_task_MP,2020.1.3,Win32,60,,0,,,,,,,,0.77819,-1,,,,,,344,NW,ID,33,scrily,SCRILY,a,,,,,,-0.107407407,-0.252777778,0,0,0,,0,101,101,283,1,,,
,,,,,,,,,,,,,,,Test1,2020-07-22_14h11.33.015,lexical_decision_task_MP,2020.1.3,Win32,60,,0,,,,,,,,0.77819,-1,,,,,,202,WORD,UN,33,phrase,FACTOR,l,,,,,,-0.107407407,-0.252777778,0,0,0,,0,102,102,141,1,,,
,,,,,,,,,,,,,,,Test1,2020-07-22_14h11.33.015,lexical_decision_task_MP,2020.1.3,Win32,60,,0,,,,,,,,0.77819,-1,,,,,,82,WORD,ID,33,stigma,STIGMA,l,,,,,,-0.107407407,-0.252777778,0,0,0,,0,103,103,21,1,,,
,,,,,,,,,,,,,,,Test1,2020-07-22_14h11.33.015,lexical_decision_task_MP,2020.1.3,Win32,60,,0,,,,,,,,0.77819,-1,,,,,,459,NW,UN,33,mingar,BAFENT,a,,,,,,-0.107407407,-0.252777778,0,0,0,,0,104,104,398,1,,,
,,,,,,,,,,,,,,,Test1,2020-07-22_14h11.33.015,lexical_decision_task_MP,2020.1.3,Win32,60,,0,,,,,,,,0.77819,-1,,,,,,181,WORD,UN,33,winter,GLANCE,l,,,,,,-0.107407407,-0.252777778,0,0,0,,0,105,105,120,1,,,
,,,,,,,,,,,,,,,Test1,2020-07-22_14h11.33.015,lexical_decision_task_MP,2020.1.3,Win32,60,,0,,,,,,,,0.77819,-1,,,,,,289,NW,UN,50,splino,STARBY,a,,,,,,-0.107407407,-0.252777778,0,0,0,,0,106,106,468,1,,,
,,,,,,,,,,,,,,,Test1,2020-07-22_14h11.33.015,lexical_decision_task_MP,2020.1.3,Win32,60,,0,,,,,,,,0.77819,-1,,,,,,145,WORD,ID,50,parish,PARISH,l,,,,,,-0.107407407,-0.252777778,0,0,0,,0,107,107,84,1,,,
,,,,,,,,,,,,,,,Test1,2020-07-22_14h11.33.015,lexical_decision_task_MP,2020.1.3,Win32,60,,0,,,,,,,,0.77819,-1,,,,,,40,WORD,UN,50,spring,CONVEY,l,,,,,,-0.107407407,-0.252777778,0,0,0,,0,108,108,219,1,,,
,,,,,,,,,,,,,,,Test1,2020-07-22_14h11.33.015,lexical_decision_task_MP,2020.1.3,Win32,60,,0,,,,,,,,0.77819,-1,,,,,,399,NW,ID,50,fouret,FOURET,a,,,,,,-0.107407407,-0.252777778,0,0,0,,0,109,109,338,1,,,
,,,,,,,,,,,,,,,Test1,2020-07-22_14h11.33.015,lexical_decision_task_MP,2020.1.3,Win32,60,,0,,,,,,,,0.77819,-1,,,,,,447,NW,UN,33,sadent,GIRCUE,a,,,,,,-0.107407407,-0.252777778,0,0,0,,0,110,110,386,1,,,
,,,,,,,,,,,,,,,Test1,2020-07-22_14h11.33.015,lexical_decision_task_MP,2020.1.3,Win32,60,,0,,,,,,,,0.77819,-1,,,,,,219,WORD,UN,33,voyage,BUCKET,l,,,,,,-0.107407407,-0.252777778,0,0,0,,0,111,111,158,1,,,
,,,,,,,,,,,,,,,Test1,2020-07-22_14h11.33.015,lexical_decision_task_MP,2020.1.3,Win32,60,,0,,,,,,,,0.77819,-1,,,,,,17,WORD,UN,50,humble,CHARGE,l,,,,,,-0.107407407,-0.252777778,0,0,0,,0,112,112,196,1,,,
,,,,,,,,,,,,,,,Test1,2020-07-22_14h11.33.015,lexical_decision_task_MP,2020.1.3,Win32,60,,0,,,,,,,,0.77819,-1,,,,,,275,NW,UN,50,yarmon,SLEIRT,a,,,,,,-0.107407407,-0.252777778,0,0,0,,0,113,113,454,1,,,
,,,,,,,,,,,,,,,Test1,2020-07-22_14h11.33.015,lexical_decision_task_MP,2020.1.3,Win32,60,,0,,,,,,,,0.77819,-1,,,,,,244,NW,UN,50,anougs,EATRIC,a,,,,,,-0.107407407,-0.252777778,0,0,0,,0,114,114,423,1,,,
,,,,,,,,,,,,,,,Test1,2020-07-22_14h11.33.015,lexical_decision_task_MP,2020.1.3,Win32,60,,0,,,,,,,,0.77819,-1,,,,,,434,NW,UN,33,impurb,PITROM,a,,,,,,-0.107407407,-0.252777778,0,0,0,,0,115,115,373,1,,,
,,,,,,,,,,,,,,,Test1,2020-07-22_14h11.33.015,lexical_decision_task_MP,2020.1.3,Win32,60,,0,,,,,,,,0.77819,-1,,,,,,247,NW,UN,50,strole,BLARGE,a,,,,,,-0.107407407,-0.252777778,0,0,0,,0,116,116,426,1,,,
,,,,,,,,,,,,,,,Test1,2020-07-22_14h11.33.015,lexical_decision_task_MP,2020.1.3,Win32,60,,0,,,,,,,,0.77819,-1,,,,,,379,NW,ID,50,auting,AUTING,a,,,,,,-0.107407407,-0.252777778,0,0,0,,0,117,117,318,1,,,
,,,,,,,,,,,,,,,Test1,2020-07-22_14h11.33.015,lexical_decision_task_MP,2020.1.3,Win32,60,,0,,,,,,,,0.77819,-1,,,,,,423,NW,UN,33,praile,STRELD,a,,,,,,-0.107407407,-0.252777778,0,0,0,,0,118,118,362,1,,,
,,,,,,,,,,,,,,,Test1,2020-07-22_14h11.33.015,lexical_decision_task_MP,2020.1.3,Win32,60,,0,,,,,,,,0.77819,-1,,,,,,398,NW,ID,50,blunde,BLUNDE,a,,,,,,-0.107407407,-0.252777778,0,0,0,,0,119,119,337,1,,,
,,,,,,,,,,,,,,,Test1,2020-07-22_14h11.33.015,lexical_decision_task_MP,2020.1.3,Win32,60,,0,,,,,,,,0.77819,-1,,,,,,27,WORD,UN,50,comedy,SCREAM,l,,,,,,-0.107407407,-0.252777778,0,0,0,space,0,120,120,206,1,328.93232,,
,,,,,,,,,,,,,,,Test1,2020-07-22_14h11.33.015,lexical_decision_task_MP,2020.1.3,Win32,60,,0,,,,,,,,0.77819,-1,,,,,,165,WORD,ID,50,invest,INVEST,l,,,,,,-0.107407407,-0.252777778,0,0,0,,0,121,121,104,1,,,
,,,,,,,,,,,,,,,Test1,2020-07-22_14h11.33.015,lexical_decision_task_MP,2020.1.3,Win32,60,,0,,,,,,,,0.77819,-1,,,,,,50,WORD,UN,50,hungry,SNATCH,l,,,,,,-0.107407407,-0.252777778,0,0,0,,0,122,122,229,1,,,
,,,,,,,,,,,,,,,Test1,2020-07-22_14h11.33.015,lexical_decision_task_MP,2020.1.3,Win32,60,,0,,,,,,,,0.77819,-1,,,,,,400,NW,ID,50,wearox,WEAROX,a,,,,,,-0.107407407,-0.252777778,0,0,0,,0,123,123,339,1,,,
,,,,,,,,,,,,,,,Test1,2020-07-22_14h11.33.015,lexical_decision_task_MP,2020.1.3,Win32,60,,0,,,,,,,,0.77819,-1,,,,,,359,NW,ID,33,fonver,FONVER,a,,,,,,-0.107407407,-0.252777778,0,0,0,,0,124,124,298,1,,,
,,,,,,,,,,,,,,,Test1,2020-07-22_14h11.33.015,lexical_decision_task_MP,2020.1.3,Win32,60,,0,,,,,,,,0.77819,-1,,,,,,407,NW,ID,50,suiver,SUIVER,a,,,,,,-0.107407407,-0.252777778,0,0,0,,0,125,125,346,1,,,
,,,,,,,,,,,,,,,Test1,2020-07-22_14h11.33.015,lexical_decision_task_MP,2020.1.3,Win32,60,,0,,,,,,,,0.77819,-1,,,,,,153,WORD,ID,50,behold,BEHOLD,l,,,,,,-0.107407407,-0.252777778,0,0,0,,0,126,126,92,1,,,
,,,,,,,,,,,,,,,Test1,2020-07-22_14h11.33.015,lexical_decision_task_MP,2020.1.3,Win32,60,,0,,,,,,,,0.77819,-1,,,,,,13,WORD,UN,50,almost,STRIVE,l,,,,,,-0.107407407,-0.252777778,0,0,0,,0,127,127,192,1,,,
,,,,,,,,,,,,,,,Test1,2020-07-22_14h11.33.015,lexical_decision_task_MP,2020.1.3,Win32,60,,0,,,,,,,,0.77819,-1,,,,,,332,NW,ID,33,vangue,VANGUE,a,,,,,,-0.107407407,-0.252777778,0,0,0,,0,128,128,271,1,,,
,,,,,,,,,,,,,,,Test1,2020-07-22_14h11.33.015,lexical_decision_task_MP,2020.1.3,Win32,60,,0,,,,,,,,0.77819,-1,,,,,,235,WORD,UN,33,pirate,GRUMPY,l,,,,,,-0.107407407,-0.252777778,0,0,0,,0,129,129,174,1,,,
,,,,,,,,,,,,,,,Test1,2020-07-22_14h11.33.015,lexical_decision_task_MP,2020.1.3,Win32,60,,0,,,,,,,,0.77819,-1,,,,,,360,NW,ID,33,desory,DESORY,a,,,,,,-0.107407407,-0.252777778,0,0,0,,0,130,130,299,1,,,
,,,,,,,,,,,,,,,Test1,2020-07-22_14h11.33.015,lexical_decision_task_MP,2020.1.3,Win32,60,,0,,,,,,,,0.77819,-1,,,,,,85,WORD,ID,33,sprawl,SPRAWL,l,,,,,,-0.107407407,-0.252777778,0,0,0,,0,131,131,24,1,,,
,,,,,,,,,,,,,,,Test1,2020-07-22_14h11.33.015,lexical_decision_task_MP,2020.1.3,Win32,60,,0,,,,,,,,0.77819,-1,,,,,,164,WORD,ID,50,market,MARKET,l,,,,,,-0.107407407,-0.252777778,0,0,0,,0,132,132,103,1,,,
,,,,,,,,,,,,,,,Test1,2020-07-22_14h11.33.015,lexical_decision_task_MP,2020.1.3,Win32,60,,0,,,,,,,,0.77819,-1,,,,,,221,WORD,UN,33,hinder,MASCOT,l,,,,,,-0.107407407,-0.252777778,0,0,0,,0,133,133,160,1,,,
,,,,,,,,,,,,,,,Test1,2020-07-22_14h11.33.015,lexical_decision_task_MP,2020.1.3,Win32,60,,0,,,,,,,,0.77819,-1,,,,,,119,WORD,ID,33,spider,SPIDER,l,,,,,,-0.107407407,-0.252777778,0,0,0,,0,134,134,58,1,,,
,,,,,,,,,,,,,,,Test1,2020-07-22_14h11.33.015,lexical_decision_task_MP,2020.1.3,Win32,60,,0,,,,,,,,0.77819,-1,,,,,,240,WORD,UN,33,seldom,FOREST,l,,,,,,-0.107407407,-0.252777778,0,0,0,,0,135,135,179,1,,,
,,,,,,,,,,,,,,,Test1,2020-07-22_14h11.33.015,lexical_decision_task_MP,2020.1.3,Win32,60,,0,,,,,,,,0.77819,-1,,,,,,225,WORD,UN,33,casino,VULGAR,l,,,,,,-0.107407407,-0.252777778,0,0,0,,0,136,136,164,1,,,
,,,,,,,,,,,,,,,Test1,2020-07-22_14h11.33.015,lexical_decision_task_MP,2020.1.3,Win32,60,,0,,,,,,,,0.77819,-1,,,,,,424,NW,UN,33,frudge,PRAILE,a,,,,,,-0.107407407,-0.252777778,0,0,0,,0,137,137,363,1,,,
,,,,,,,,,,,,,,,Test1,2020-07-22_14h11.33.015,lexical_decision_task_MP,2020.1.3,Win32,60,,0,,,,,,,,0.77819,-1,,,,,,208,WORD,UN,33,search,HOCKEY,l,,,,,,-0.107407407,-0.252777778,0,0,0,,0,138,138,147,1,,,
,,,,,,,,,,,,,,,Test1,2020-07-22_14h11.33.015,lexical_decision_task_MP,2020.1.3,Win32,60,,0,,,,,,,,0.77819,-1,,,,,,260,NW,UN,50,stunch,UNJECT,a,,,,,,-0.107407407,-0.252777778,0,0,0,,0,139,139,439,1,,,
,,,,,,,,,,,,,,,Test1,2020-07-22_14h11.33.015,lexical_decision_task_MP,2020.1.3,Win32,60,,0,,,,,,,,0.77819,-1,,,,,,35,WORD,UN,50,vanish,SOCKET,l,,,,,,-0.107407407,-0.252777778,0,0,0,,0,140,140,214,1,,,
,,,,,,,,,,,,,,,Test1,2020-07-22_14h11.33.015,lexical_decision_task_MP,2020.1.3,Win32,60,,0,,,,,,,,0.77819,-1,,,,,,422,NW,UN,33,streld,ALCOUD,a,,,,,,-0.107407407,-0.252777778,0,0,0,,0,141,141,361,1,,,
,,,,,,,,,,,,,,,Test1,2020-07-22_14h11.33.015,lexical_decision_task_MP,2020.1.3,Win32,60,,0,,,,,,,,0.77819,-1,,,,,,233,WORD,UN,33,clumsy,NATURE,l,,,,,,-0.107407407,-0.252777778,0,0,0,,0,142,142,172,1,,,
,,,,,,,,,,,,,,,Test1,2020-07-22_14h11.33.015,lexical_decision_task_MP,2020.1.3,Win32,60,,0,,,,,,,,0.77819,-1,,,,,,7,WORD,UN,50,abrupt,ANCHOR,l,,,,,,-0.107407407,-0.252777778,0,0,0,,0,143,143,186,1,,,
,,,,,,,,,,,,,,,Test1,2020-07-22_14h11.33.015,lexical_decision_task_MP,2020.1.3,Win32,60,,0,,,,,,,,0.77819,-1,,,,,,444,NW,UN,33,minkel,JAUNCE,a,,,,,,-0.107407407,-0.252777778,0,0,0,,0,144,144,383,1,,,
,,,,,,,,,,,,,,,Test1,2020-07-22_14h11.33.015,lexical_decision_task_MP,2020.1.3,Win32,60,,0,,,,,,,,0.77819,-1,,,,,,188,WORD,UN,33,censor,SOCIAL,l,,,,,,-0.107407407,-0.252777778,0,0,0,,0,145,145,127,1,,,
,,,,,,,,,,,,,,,Test1,2020-07-22_14h11.33.015,lexical_decision_task_MP,2020.1.3,Win32,60,,0,,,,,,,,0.77819,-1,,,,,,266,NW,UN,50,pasink,VARMIT,a,,,,,,-0.107407407,-0.252777778,0,0,0,,0,146,146,445,1,,,
,,,,,,,,,,,,,,,Test1,2020-07-22_14h11.33.015,lexical_decision_task_MP,2020.1.3,Win32,60,,0,,,,,,,,0.77819,-1,,,,,,194,WORD,UN,33,resign,ABSENT,l,,,,,,-0.107407407,-0.252777778,0,0,0,,0,147,147,133,1,,,
,,,,,,,,,,,,,,,Test1,2020-07-22_14h11.33.015,lexical_decision_task_MP,2020.1.3,Win32,60,,0,,,,,,,,0.77819,-1,,,,,,30,WORD,UN,50,weapon,ORIENT,l,,,,,,-0.107407407,-0.252777778,0,0,0,,0,148,148,209,1,,,
,,,,,,,,,,,,,,,Test1,2020-07-22_14h11.33.015,lexical_decision_task_MP,2020.1.3,Win32,60,,0,,,,,,,,0.77819,-1,,,,,,152,WORD,ID,50,rocket,ROCKET,l,,,,,,-0.107407407,-0.252777778,0,0,0,,0,149,149,91,1,,,
,,,,,,,,,,,,,,,Test1,2020-07-22_14h11.33.015,lexical_decision_task_MP,2020.1.3,Win32,60,,0,,,,,,,,0.77819,-1,,,,,,437,NW,UN,33,baitch,SNAPEL,a,,,,,,-0.107407407,-0.252777778,0,0,0,,0,150,150,376,1,,,
,,,,,,,,,,,,,,,Test1,2020-07-22_14h11.33.015,lexical_decision_task_MP,2020.1.3,Win32,60,,0,,,,,,,,0.77819,-1,,,,,,384,NW,ID,50,guesco,GUESCO,a,,,,,,-0.107407407,-0.252777778,0,0,0,,0,151,151,323,1,,,
,,,,,,,,,,,,,,,Test1,2020-07-22_14h11.33.015,lexical_decision_task_MP,2020.1.3,Win32,60,,0,,,,,,,,0.77819,-1,,,,,,58,WORD,UN,50,splint,FOSTER,l,,,,,,-0.107407407,-0.252777778,0,0,0,,0,152,152,237,1,,,
,,,,,,,,,,,,,,,Test1,2020-07-22_14h11.33.015,lexical_decision_task_MP,2020.1.3,Win32,60,,0,,,,,,,,0.77819,-1,,,,,,182,WORD,UN,33,absent,WINTER,l,,,,,,-0.107407407,-0.252777778,0,0,0,,0,153,153,121,1,,,
,,,,,,,,,,,,,,,Test1,2020-07-22_14h11.33.015,lexical_decision_task_MP,2020.1.3,Win32,60,,0,,,,,,,,0.77819,-1,,,,,,186,WORD,UN,33,course,PORTAL,l,,,,,,-0.107407407,-0.252777778,0,0,0,,0,154,154,125,1,,,
,,,,,,,,,,,,,,,Test1,2020-07-22_14h11.33.015,lexical_decision_task_MP,2020.1.3,Win32,60,,0,,,,,,,,0.77819,-1,,,,,,4,WORD,UN,50,plunge,TRENCH,l,,,,,,-0.107407407,-0.252777778,0,0,0,,0,155,155,183,1,,,
,,,,,,,,,,,,,,,Test1,2020-07-22_14h11.33.015,lexical_decision_task_MP,2020.1.3,Win32,60,,0,,,,,,,,0.77819,-1,,,,,,307,NW,ID,33,kirafe,KIRAFE,a,,,,,,-0.107407407,-0.252777778,0,0,0,,0,156,156,246,1,,,
,,,,,,,,,,,,,,,Test1,2020-07-22_14h11.33.015,lexical_decision_task_MP,2020.1.3,Win32,60,,0,,,,,,,,0.77819,-1,,,,,,183,WORD,UN,33,sleazy,MILDEW,l,,,,,,-0.107407407,-0.252777778,0,0,0,,0,157,157,122,1,,,
,,,,,,,,,,,,,,,Test1,2020-07-22_14h11.33.015,lexical_decision_task_MP,2020.1.3,Win32,60,,0,,,,,,,,0.77819,-1,,,,,,63,WORD,ID,33,launch,LAUNCH,l,,,,,,-0.107407407,-0.252777778,0,0,0,,0,158,158,2,1,,,
,,,,,,,,,,,,,,,Test1,2020-07-22_14h11.33.015,lexical_decision_task_MP,2020.1.3,Win32,60,,0,,,,,,,,0.77819,-1,,,,,,414,NW,ID,50,serbol,SERBOL,a,,,,,,-0.107407407,-0.252777778,0,0,0,,0,159,159,353,1,,,
,,,,,,,,,,,,,,,Test1,2020-07-22_14h11.33.015,lexical_decision_task_MP,2020.1.3,Win32,60,,0,,,,,,,,0.77819,-1,,,,,,96,WORD,ID,33,ignore,IGNORE,l,,,,,,-0.107407407,-0.252777778,0,0,0,,0,160,160,35,1,,,
,,,,,,,,,,,,,,,Test1,2020-07-22_14h11.33.015,lexical_decision_task_MP,2020.1.3,Win32,60,,0,,,,,,,,0.77819,-1,,,,,,140,WORD,ID,50,prince,PRINCE,l,,,,,,-0.107407407,-0.252777778,0,0,0,,0,161,161,79,1,,,
,,,,,,,,,,,,,,,Test1,2020-07-22_14h11.33.015,lexical_decision_task_MP,2020.1.3,Win32,60,,0,,,,,,,,0.77819,-1,,,,,,371,NW,ID,50,geiloy,GEILOY,a,,,,,,-0.107407407,-0.252777778,0,0,0,,0,162,162,310,1,,,
,,,,,,,,,,,,,,,Test1,2020-07-22_14h11.33.015,lexical_decision_task_MP,2020.1.3,Win32,60,,0,,,,,,,,0.77819,-1,,,,,,176,WORD,ID,50,strife,STRIFE,l,,,,,,-0.107407407,-0.252777778,0,0,0,,0,163,163,115,1,,,
,,,,,,,,,,,,,,,Test1,2020-07-22_14h11.33.015,lexical_decision_task_MP,2020.1.3,Win32,60,,0,,,,,,,,0.77819,-1,,,,,,409,NW,ID,50,elopia,ELOPIA,a,,,,,,-0.107407407,-0.252777778,0,0,0,,0,164,164,348,1,,,
,,,,,,,,,,,,,,,Test1,2020-07-22_14h11.33.015,lexical_decision_task_MP,2020.1.3,Win32,60,,0,,,,,,,,0.77819,-1,,,,,,402,NW,ID,50,syntic,SYNTIC,a,,,,,,-0.107407407,-0.252777778,0,0,0,,0,165,165,341,1,,,
,,,,,,,,,,,,,,,Test1,2020-07-22_14h11.33.015,lexical_decision_task_MP,2020.1.3,Win32,60,,0,,,,,,,,0.77819,-1,,,,,,114,WORD,ID,33,placid,PLACID,l,,,,,,-0.107407407,-0.252777778,0,0,0,,0,166,166,53,1,,,
,,,,,,,,,,,,,,,Test1,2020-07-22_14h11.33.015,lexical_decision_task_MP,2020.1.3,Win32,60,,0,,,,,,,,0.77819,-1,,,,,,293,NW,UN,50,inhort,SWANCE,a,,,,,,-0.107407407,-0.252777778,0,0,0,,0,167,167,472,1,,,
,,,,,,,,,,,,,,,Test1,2020-07-22_14h11.33.015,lexical_decision_task_MP,2020.1.3,Win32,60,,0,,,,,,,,0.77819,-1,,,,,,392,NW,ID,50,rouncy,ROUNCY,a,,,,,,-0.107407407,-0.252777778,0,0,0,,0,168,168,331,1,,,
,,,,,,,,,,,,,,,Test1,2020-07-22_14h11.33.015,lexical_decision_task_MP,2020.1.3,Win32,60,,0,,,,,,,,0.77819,-1,,,,,,476,NW,UN,33,photie,JOSTED,a,,,,,,-0.107407407,-0.252777778,0,0,0,,0,169,169,415,1,,,
,,,,,,,,,,,,,,,Test1,2020-07-22_14h11.33.015,lexical_decision_task_MP,2020.1.3,Win32,60,,0,,,,,,,,0.77819,-1,,,,,,288,NW,UN,50,starby,YACEUP,a,,,,,,-0.107407407,-0.252777778,0,0,0,,0,170,170,467,1,,,
,,,,,,,,,,,,,,,Test1,2020-07-22_14h11.33.015,lexical_decision_task_MP,2020.1.3,Win32,60,,0,,,,,,,,0.77819,-1,,,,,,22,WORD,UN,50,wealth,JOCKEY,l,,,,,,-0.107407407,-0.252777778,0,0,0,,0,171,171,201,1,,,
,,,,,,,,,,,,,,,Test1,2020-07-22_14h11.33.015,lexical_decision_task_MP,2020.1.3,Win32,60,,0,,,,,,,,0.77819,-1,,,,,,57,WORD,UN,50,danger,CHANGE,l,,,,,,-0.107407407,-0.252777778,0,0,0,,0,172,172,236,1,,,
,,,,,,,,,,,,,,,Test1,2020-07-22_14h11.33.015,lexical_decision_task_MP,2020.1.3,Win32,60,,0,,,,,,,,0.77819,-1,,,,,,41,WORD,UN,50,chapel,SPRING,l,,,,,,-0.107407407,-0.252777778,0,0,0,,0,173,173,220,1,,,
,,,,,,,,,,,,,,,Test1,2020-07-22_14h11.33.015,lexical_decision_task_MP,2020.1.3,Win32,60,,0,,,,,,,,0.77819,-1,,,,,,167,WORD,ID,50,design,DESIGN,l,,,,,,-0.107407407,-0.252777778,0,0,0,,0,174,174,106,1,,,
,,,,,,,,,,,,,,,Test1,2020-07-22_14h11.33.015,lexical_decision_task_MP,2020.1.3,Win32,60,,0,,,,,,,,0.77819,-1,,,,,,342,NW,ID,33,randow,RANDOW,a,,,,,,-0.107407407,-0.252777778,0,0,0,,0,175,175,281,1,,,
,,,,,,,,,,,,,,,Test1,2020-07-22_14h11.33.015,lexical_decision_task_MP,2020.1.3,Win32,60,,0,,,,,,,,0.77819,-1,,,,,,404,NW,ID,50,cluirm,CLUIRM,a,,,,,,-0.107407407,-0.252777778,0,0,0,,0,176,176,343,1,,,
,,,,,,,,,,,,,,,Test1,2020-07-22_14h11.33.015,lexical_decision_task_MP,2020.1.3,Win32,60,,0,,,,,,,,0.77819,-1,,,,,,323,NW,ID,33,rosail,ROSAIL,a,,,,,,-0.107407407,-0.252777778,0,0,0,,0,177,177,262,1,,,
,,,,,,,,,,,,,,,Test1,2020-07-22_14h11.33.015,lexical_decision_task_MP,2020.1.3,Win32,60,,0,,,,,,,,0.77819,-1,,,,,,157,WORD,ID,50,dragon,DRAGON,l,,,,,,-0.107407407,-0.252777778,0,0,0,,0,178,178,96,1,,,
,,,,,,,,,,,,,,,Test1,2020-07-22_14h11.33.015,lexical_decision_task_MP,2020.1.3,Win32,60,,0,,,,,,,,0.77819,-1,,,,,,134,WORD,ID,50,staple,STAPLE,l,,,,,,-0.107407407,-0.252777778,0,0,0,,0,179,179,73,1,,,
,,,,,,,,,,,,,,,Test1,2020-07-22_14h11.33.015,lexical_decision_task_MP,2020.1.3,Win32,60,,0,,,,,,,,0.77819,-1,,,,,,366,NW,ID,50,toshel,TOSHEL,a,,,,,,-0.107407407,-0.252777778,0,0,0,,0,180,180,305,1,,,
,,,,,,,,,,,,,,,Test1,2020-07-22_14h11.33.015,lexical_decision_task_MP,2020.1.3,Win32,60,,0,,,,,,,,0.77819,-1,,,,,,25,WORD,UN,50,sprint,DOMAIN,l,,,,,,-0.107407407,-0.252777778,0,0,0,,0,181,181,204,1,,,
,,,,,,,,,,,,,,,Test1,2020-07-22_14h11.33.015,lexical_decision_task_MP,2020.1.3,Win32,60,,0,,,,,,,,0.77819,-1,,,,,,211,WORD,UN,33,verify,INFECT,l,,,,,,-0.107407407,-0.252777778,0,0,0,,0,182,182,150,1,,,
,,,,,,,,,,,,,,,Test1,2020-07-22_14h11.33.015,lexical_decision_task_MP,2020.1.3,Win32,60,,0,,,,,,,,0.77819,-1,,,,,,26,WORD,UN,50,butler,SPRINT,l,,,,,,-0.107407407,-0.252777778,0,0,0,,0,183,183,205,1,,,
,,,,,,,,,,,,,,,Test1,2020-07-22_14h11.33.015,lexical_decision_task_MP,2020.1.3,Win32,60,,0,,,,,,,,0.77819,-1,,,,,,419,NW,ID,50,slount,SLOUNT,a,,,,,,-0.107407407,-0.252777778,0,0,0,,0,184,184,358,1,,,
,,,,,,,,,,,,,,,Test1,2020-07-22_14h11.33.015,lexical_decision_task_MP,2020.1.3,Win32,60,,0,,,,,,,,0.77819,-1,,,,,,209,WORD,UN,33,monkey,SEARCH,l,,,,,,-0.107407407,-0.252777778,0,0,0,,0,185,185,148,1,,,
,,,,,,,,,,,,,,,Test1,2020-07-22_14h11.33.015,lexical_decision_task_MP,2020.1.3,Win32,60,,0,,,,,,,,0.77819,-1,,,,,,29,WORD,UN,50,orient,SKETCH,l,,,,,,-0.107407407,-0.252777778,0,0,0,,0,186,186,208,1,,,
,,,,,,,,,,,,,,,Test1,2020-07-22_14h11.33.015,lexical_decision_task_MP,2020.1.3,Win32,60,,0,,,,,,,,0.77819,-1,,,,,,59,WORD,UN,50,pencil,SPLINT,l,,,,,,-0.107407407,-0.252777778,0,0,0,,0,187,187,238,1,,,
,,,,,,,,,,,,,,,Test1,2020-07-22_14h11.33.015,lexical_decision_task_MP,2020.1.3,Win32,60,,0,,,,,,,,0.77819,-1,,,,,,331,NW,ID,33,gilfew,GILFEW,a,,,,,,-0.107407407,-0.252777778,0,0,0,,0,188,188,270,1,,,
,,,,,,,,,,,,,,,Test1,2020-07-22_14h11.33.015,lexical_decision_task_MP,2020.1.3,Win32,60,,0,,,,,,,,0.77819,-1,,,,,,401,NW,ID,50,mustil,MUSTIL,a,,,,,,-0.107407407,-0.252777778,0,0,0,,0,189,189,340,1,,,
,,,,,,,,,,,,,,,Test1,2020-07-22_14h11.33.015,lexical_decision_task_MP,2020.1.3,Win32,60,,0,,,,,,,,0.77819,-1,,,,,,150,WORD,ID,50,random,RANDOM,l,,,,,,-0.107407407,-0.252777778,0,0,0,,0,190,190,89,1,,,
,,,,,,,,,,,,,,,Test1,2020-07-22_14h11.33.015,lexical_decision_task_MP,2020.1.3,Win32,60,,0,,,,,,,,0.77819,-1,,,,,,471,NW,UN,33,cigney,NOBEST,a,,,,,,-0.107407407,-0.252777778,0,0,0,,0,191,191,410,1,,,
,,,,,,,,,,,,,,,Test1,2020-07-22_14h11.33.015,lexical_decision_task_MP,2020.1.3,Win32,60,,0,,,,,,,,0.77819,-1,,,,,,215,WORD,UN,33,lumber,PHOBIA,l,,,,,,-0.107407407,-0.252777778,0,0,0,,0,192,192,154,1,,,
,,,,,,,,,,,,,,,Test1,2020-07-22_14h11.33.015,lexical_decision_task_MP,2020.1.3,Win32,60,,0,,,,,,,,0.77819,-1,,,,,,285,NW,UN,50,reldon,PRUDGE,a,,,,,,-0.107407407,-0.252777778,0,0,0,,0,193,193,464,1,,,
,,,,,,,,,,,,,,,Test1,2020-07-22_14h11.33.015,lexical_decision_task_MP,2020.1.3,Win32,60,,0,,,,,,,,0.77819,-1,,,,,,472,NW,UN,33,gorbie,CIGNEY,a,,,,,,-0.107407407,-0.252777778,0,0,0,,0,194,194,411,1,,,
,,,,,,,,,,,,,,,Test1,2020-07-22_14h11.33.015,lexical_decision_task_MP,2020.1.3,Win32,60,,0,,,,,,,,0.77819,-1,,,,,,158,WORD,ID,50,island,ISLAND,l,,,,,,-0.107407407,-0.252777778,0,0,0,,0,195,195,97,1,,,
,,,,,,,,,,,,,,,Test1,2020-07-22_14h11.33.015,lexical_decision_task_MP,2020.1.3,Win32,60,,0,,,,,,,,0.77819,-1,,,,,,53,WORD,UN,50,ramble,POLICE,l,,,,,,-0.107407407,-0.252777778,0,0,0,,0,196,196,232,1,,,
,,,,,,,,,,,,,,,Test1,2020-07-22_14h11.33.015,lexical_decision_task_MP,2020.1.3,Win32,60,,0,,,,,,,,0.77819,-1,,,,,,161,WORD,ID,50,pastor,PASTOR,l,,,,,,-0.107407407,-0.252777778,0,0,0,,0,197,197,100,1,,,
,,,,,,,,,,,,,,,Test1,2020-07-22_14h11.33.015,lexical_decision_task_MP,2020.1.3,Win32,60,,0,,,,,,,,0.77819,-1,,,,,,270,NW,UN,50,aubrid,WRIMSY,a,,,,,,-0.107407407,-0.252777778,0,0,0,,0,198,198,449,1,,,
,,,,,,,,,,,,,,,Test1,2020-07-22_14h11.33.015,lexical_decision_task_MP,2020.1.3,Win32,60,,0,,,,,,,,0.77819,-1,,,,,,121,WORD,ID,50,thrive,THRIVE,l,,,,,,-0.107407407,-0.252777778,0,0,0,,0,199,199,60,1,,,
,,,,,,,,,,,,,,,Test1,2020-07-22_14h11.33.015,lexical_decision_task_MP,2020.1.3,Win32,60,,0,,,,,,,,0.77819,-1,,,,,,93,WORD,ID,33,public,PUBLIC,l,,,,,,-0.107407407,-0.252777778,0,0,0,,0,200,200,32,1,,,
,,,,,,,,,,,,,,,Test1,2020-07-22_14h11.33.015,lexical_decision_task_MP,2020.1.3,Win32,60,,0,,,,,,,,0.77819,-1,,,,,,284,NW,UN,50,prudge,SHAPLE,a,,,,,,-0.107407407,-0.252777778,0,0,0,,0,201,201,463,1,,,
,,,,,,,,,,,,,,,Test1,2020-07-22_14h11.33.015,lexical_decision_task_MP,2020.1.3,Win32,60,,0,,,,,,,,0.77819,-1,,,,,,155,WORD,ID,50,lizard,LIZARD,l,,,,,,-0.107407407,-0.252777778,0,0,0,,0,202,202,94,1,,,
,,,,,,,,,,,,,,,Test1,2020-07-22_14h11.33.015,lexical_decision_task_MP,2020.1.3,Win32,60,,0,,,,,,,,0.77819,-1,,,,,,252,NW,UN,50,resait,STAPOD,a,,,,,,-0.107407407,-0.252777778,0,0,0,,0,203,203,431,1,,,
,,,,,,,,,,,,,,,Test1,2020-07-22_14h11.33.015,lexical_decision_task_MP,2020.1.3,Win32,60,,0,,,,,,,,0.77819,-1,,,,,,377,NW,ID,50,injore,INJORE,a,,,,,,-0.107407407,-0.252777778,0,0,0,,0,204,204,316,1,,,
,,,,,,,,,,,,,,,Test1,2020-07-22_14h11.33.015,lexical_decision_task_MP,2020.1.3,Win32,60,,0,,,,,,,,0.77819,-1,,,,,,336,NW,ID,33,ghodus,GHODUS,a,,,,,,-0.107407407,-0.252777778,0,0,0,,0,205,205,275,1,,,
,,,,,,,,,,,,,,,Test1,2020-07-22_14h11.33.015,lexical_decision_task_MP,2020.1.3,Win32,60,,0,,,,,,,,0.77819,-1,,,,,,80,WORD,ID,33,family,FAMILY,l,,,,,,-0.107407407,-0.252777778,0,0,0,,0,206,206,19,1,,,
,,,,,,,,,,,,,,,Test1,2020-07-22_14h11.33.015,lexical_decision_task_MP,2020.1.3,Win32,60,,0,,,,,,,,0.77819,-1,,,,,,142,WORD,ID,50,spruce,SPRUCE,l,,,,,,-0.107407407,-0.252777778,0,0,0,,0,207,207,81,1,,,
,,,,,,,,,,,,,,,Test1,2020-07-22_14h11.33.015,lexical_decision_task_MP,2020.1.3,Win32,60,,0,,,,,,,,0.77819,-1,,,,,,222,WORD,UN,33,export,HINDER,l,,,,,,-0.107407407,-0.252777778,0,0,0,,0,208,208,161,1,,,
,,,,,,,,,,,,,,,Test1,2020-07-22_14h11.33.015,lexical_decision_task_MP,2020.1.3,Win32,60,,0,,,,,,,,0.77819,-1,,,,,,179,WORD,ID,50,basket,BASKET,l,,,,,,-0.107407407,-0.252777778,0,0,0,,0,209,209,118,1,,,
,,,,,,,,,,,,,,,Test1,2020-07-22_14h11.33.015,lexical_decision_task_MP,2020.1.3,Win32,60,,0,,,,,,,,0.77819,-1,,,,,,79,WORD,ID,33,theory,THEORY,l,,,,,,-0.107407407,-0.252777778,0,0,0,,0,210,210,18,1,,,
,,,,,,,,,,,,,,,Test1,2020-07-22_14h11.33.015,lexical_decision_task_MP,2020.1.3,Win32,60,,0,,,,,,,,0.77819,-1,,,,,,144,WORD,ID,50,sponge,SPONGE,l,,,,,,-0.107407407,-0.252777778,0,0,0,,0,211,211,83,1,,,
,,,,,,,,,,,,,,,Test1,2020-07-22_14h11.33.015,lexical_decision_task_MP,2020.1.3,Win32,60,,0,,,,,,,,0.77819,-1,,,,,,292,NW,UN,50,swance,ABLINT,a,,,,,,-0.107407407,-0.252777778,0,0,0,,0,212,212,471,1,,,
,,,,,,,,,,,,,,,Test1,2020-07-22_14h11.33.015,lexical_decision_task_MP,2020.1.3,Win32,60,,0,,,,,,,,0.77819,-1,,,,,,479,NW,UN,33,crible,LOBUSH,a,,,,,,-0.107407407,-0.252777778,0,0,0,,0,213,213,418,1,,,
,,,,,,,,,,,,,,,Test1,2020-07-22_14h11.33.015,lexical_decision_task_MP,2020.1.3,Win32,60,,0,,,,,,,,0.77819,-1,,,,,,169,WORD,ID,50,genius,GENIUS,l,,,,,,-0.107407407,-0.252777778,0,0,0,,0,214,214,108,1,,,
,,,,,,,,,,,,,,,Test1,2020-07-22_14h11.33.015,lexical_decision_task_MP,2020.1.3,Win32,60,,0,,,,,,,,0.77819,-1,,,,,,248,NW,UN,50,batrol,STROLE,a,,,,,,-0.107407407,-0.252777778,0,0,0,,0,215,215,427,1,,,
,,,,,,,,,,,,,,,Test1,2020-07-22_14h11.33.015,lexical_decision_task_MP,2020.1.3,Win32,60,,0,,,,,,,,0.77819,-1,,,,,,237,WORD,UN,33,glance,POSTER,l,,,,,,-0.107407407,-0.252777778,0,0,0,,0,216,216,176,1,,,
,,,,,,,,,,,,,,,Test1,2020-07-22_14h11.33.015,lexical_decision_task_MP,2020.1.3,Win32,60,,0,,,,,,,,0.77819,-1,,,,,,356,NW,ID,33,othnis,OTHNIS,a,,,,,,-0.107407407,-0.252777778,0,0,0,,0,217,217,295,1,,,
,,,,,,,,,,,,,,,Test1,2020-07-22_14h11.33.015,lexical_decision_task_MP,2020.1.3,Win32,60,,0,,,,,,,,0.77819,-1,,,,,,60,WORD,UN,50,fright,PENCIL,l,,,,,,-0.107407407,-0.252777778,0,0,0,,0,218,218,239,1,,,
,,,,,,,,,,,,,,,Test1,2020-07-22_14h11.33.015,lexical_decision_task_MP,2020.1.3,Win32,60,,0,,,,,,,,0.77819,-1,,,,,,249,NW,UN,50,milted,BATROL,a,,,,,,-0.107407407,-0.252777778,0,0,0,,0,219,219,428,1,,,
,,,,,,,,,,,,,,,Test1,2020-07-22_14h11.33.015,lexical_decision_task_MP,2020.1.3,Win32,60,,0,,,,,,,,0.77819,-1,,,,,,31,WORD,UN,50,buckle,WEAPON,l,,,,,,-0.107407407,-0.252777778,0,0,0,,0,220,220,210,1,,,
,,,,,,,,,,,,,,,Test1,2020-07-22_14h11.33.015,lexical_decision_task_MP,2020.1.3,Win32,60,,0,,,,,,,,0.77819,-1,,,,,,299,NW,UN,50,yarion,STURCH,a,,,,,,-0.107407407,-0.252777778,0,0,0,,0,221,221,478,1,,,
,,,,,,,,,,,,,,,Test1,2020-07-22_14h11.33.015,lexical_decision_task_MP,2020.1.3,Win32,60,,0,,,,,,,,0.77819,-1,,,,,,453,NW,UN,33,scouge,BOLVIS,a,,,,,,-0.107407407,-0.252777778,0,0,0,,0,222,222,392,1,,,
,,,,,,,,,,,,,,,Test1,2020-07-22_14h11.33.015,lexical_decision_task_MP,2020.1.3,Win32,60,,0,,,,,,,,0.77819,-1,,,,,,430,NW,UN,33,chrums,CAROEY,a,,,,,,-0.107407407,-0.252777778,0,0,0,,0,223,223,369,1,,,
,,,,,,,,,,,,,,,Test1,2020-07-22_14h11.33.015,lexical_decision_task_MP,2020.1.3,Win32,60,,0,,,,,,,,0.77819,-1,,,,,,415,NW,ID,50,higsta,HIGSTA,a,,,,,,-0.107407407,-0.252777778,0,0,0,,0,224,224,354,1,,,
,,,,,,,,,,,,,,,Test1,2020-07-22_14h11.33.015,lexical_decision_task_MP,2020.1.3,Win32,60,,0,,,,,,,,0.77819,-1,,,,,,162,WORD,ID,50,candle,CANDLE,l,,,,,,-0.107407407,-0.252777778,0,0,0,,0,225,225,101,1,,,
,,,,,,,,,,,,,,,Test1,2020-07-22_14h11.33.015,lexical_decision_task_MP,2020.1.3,Win32,60,,0,,,,,,,,0.77819,-1,,,,,,47,WORD,UN,50,walnut,INCOME,l,,,,,,-0.107407407,-0.252777778,0,0,0,,0,226,226,226,1,,,
,,,,,,,,,,,,,,,Test1,2020-07-22_14h11.33.015,lexical_decision_task_MP,2020.1.3,Win32,60,,0,,,,,,,,0.77819,-1,,,,,,317,NW,ID,33,worbal,WORBAL,a,,,,,,-0.107407407,-0.252777778,0,0,0,,0,227,227,256,1,,,
,,,,,,,,,,,,,,,Test1,2020-07-22_14h11.33.015,lexical_decision_task_MP,2020.1.3,Win32,60,,0,,,,,,,,0.77819,-1,,,,,,316,NW,ID,33,scregm,SCREGM,a,,,,,,-0.107407407,-0.252777778,0,0,0,,0,228,228,255,1,,,
,,,,,,,,,,,,,,,Test1,2020-07-22_14h11.33.015,lexical_decision_task_MP,2020.1.3,Win32,60,,0,,,,,,,,0.77819,-1,,,,,,130,WORD,ID,50,stupid,STUPID,l,,,,,,-0.107407407,-0.252777778,0,0,0,,0,229,229,69,1,,,
,,,,,,,,,,,,,,,Test1,2020-07-22_14h11.33.015,lexical_decision_task_MP,2020.1.3,Win32,60,,0,,,,,,,,0.77819,-1,,,,,,390,NW,ID,50,hatrus,HATRUS,a,,,,,,-0.107407407,-0.252777778,0,0,0,,0,230,230,329,1,,,
,,,,,,,,,,,,,,,Test1,2020-07-22_14h11.33.015,lexical_decision_task_MP,2020.1.3,Win32,60,,0,,,,,,,,0.77819,-1,,,,,,32,WORD,UN,50,scream,BUCKLE,l,,,,,,-0.107407407,-0.252777778,0,0,0,,0,231,231,211,1,,,
,,,,,,,,,,,,,,,Test1,2020-07-22_14h11.33.015,lexical_decision_task_MP,2020.1.3,Win32,60,,0,,,,,,,,0.77819,-1,,,,,,438,NW,UN,33,limpor,BAITCH,a,,,,,,-0.107407407,-0.252777778,0,0,0,,0,232,232,377,1,,,
,,,,,,,,,,,,,,,Test1,2020-07-22_14h11.33.015,lexical_decision_task_MP,2020.1.3,Win32,60,,0,,,,,,,,0.77819,-1,,,,,,78,WORD,ID,33,column,COLUMN,l,,,,,,-0.107407407,-0.252777778,0,0,0,,0,233,233,17,1,,,
,,,,,,,,,,,,,,,Test1,2020-07-22_14h11.33.015,lexical_decision_task_MP,2020.1.3,Win32,60,,0,,,,,,,,0.77819,-1,,,,,,117,WORD,ID,33,branch,BRANCH,l,,,,,,-0.107407407,-0.252777778,0,0,0,,0,234,234,56,1,,,
,,,,,,,,,,,,,,,Test1,2020-07-22_14h11.33.015,lexical_decision_task_MP,2020.1.3,Win32,60,,0,,,,,,,,0.77819,-1,,,,,,350,NW,ID,33,nagurs,NAGURS,a,,,,,,-0.107407407,-0.252777778,0,0,0,,0,235,235,289,1,,,
,,,,,,,,,,,,,,,Test1,2020-07-22_14h11.33.015,lexical_decision_task_MP,2020.1.3,Win32,60,,0,,,,,,,,0.77819,-1,,,,,,271,NW,UN,50,damilt,AUBRID,a,,,,,,-0.107407407,-0.252777778,0,0,0,,0,236,236,450,1,,,
,,,,,,,,,,,,,,,Test1,2020-07-22_14h11.33.015,lexical_decision_task_MP,2020.1.3,Win32,60,,0,,,,,,,,0.77819,-1,,,,,,36,WORD,UN,50,insult,VANISH,l,,,,,,-0.107407407,-0.252777778,0,0,0,,0,237,237,215,1,,,
,,,,,,,,,,,,,,,Test1,2020-07-22_14h11.33.015,lexical_decision_task_MP,2020.1.3,Win32,60,,0,,,,,,,,0.77819,-1,,,,,,12,WORD,UN,50,strive,ORANGE,l,,,,,,-0.107407407,-0.252777778,0,0,0,,0,238,238,191,1,,,
,,,,,,,,,,,,,,,Test1,2020-07-22_14h11.33.015,lexical_decision_task_MP,2020.1.3,Win32,60,,0,,,,,,,,0.77819,-1,,,,,,308,NW,ID,33,psetch,PSETCH,a,,,,,,-0.107407407,-0.252777778,0,0,0,,0,239,239,247,1,,,
,,,,,,,,,,,,,,,Test1,2020-07-22_14h11.33.015,lexical_decision_task_MP,2020.1.3,Win32,60,,0,,,,,,,,0.77819,-1,,,,,,348,NW,ID,33,dumple,DUMPLE,a,,,,,,-0.107407407,-0.252777778,0,0,0,,0,240,240,287,1,,,
,,,,,,,,,,,,,,,Test1,2020-07-22_14h11.33.015,lexical_decision_task_MP,2020.1.3,Win32,60,,0,,,,,,,,0.77819,-1,,,,,,300,NW,UN,50,smenco,YARION,a,,,,,,-0.107407407,-0.252777778,0,0,0,space,0,241,241,479,1,61.39287,,
,,,,,,,,,,,,,,,Test1,2020-07-22_14h11.33.015,lexical_decision_task_MP,2020.1.3,Win32,60,,0,,,,,,,,0.77819,-1,,,,,,136,WORD,ID,50,bleach,BLEACH,l,,,,,,-0.107407407,-0.252777778,0,0,0,,0,242,242,75,1,,,
,,,,,,,,,,,,,,,Test1,2020-07-22_14h11.33.015,lexical_decision_task_MP,2020.1.3,Win32,60,,0,,,,,,,,0.77819,-1,,,,,,445,NW,UN,33,runamo,MINKEL,a,,,,,,-0.107407407,-0.252777778,0,0,0,,0,243,243,384,1,,,
,,,,,,,,,,,,,,,Test1,2020-07-22_14h11.33.015,lexical_decision_task_MP,2020.1.3,Win32,60,,0,,,,,,,,0.77819,-1,,,,,,97,WORD,ID,33,client,CLIENT,l,,,,,,-0.107407407,-0.252777778,0,0,0,,0,244,244,36,1,,,
,,,,,,,,,,,,,,,Test1,2020-07-22_14h11.33.015,lexical_decision_task_MP,2020.1.3,Win32,60,,0,,,,,,,,0.77819,-1,,,,,,184,WORD,UN,33,bother,SLEAZY,l,,,,,,-0.107407407,-0.252777778,0,0,0,,0,245,245,123,1,,,
,,,,,,,,,,,,,,,Test1,2020-07-22_14h11.33.015,lexical_decision_task_MP,2020.1.3,Win32,60,,0,,,,,,,,0.77819,-1,,,,,,39,WORD,UN,50,convey,INSECT,l,,,,,,-0.107407407,-0.252777778,0,0,0,,0,246,246,218,1,,,
,,,,,,,,,,,,,,,Test1,2020-07-22_14h11.33.015,lexical_decision_task_MP,2020.1.3,Win32,60,,0,,,,,,,,0.77819,-1,,,,,,232,WORD,UN,33,nature,INJECT,l,,,,,,-0.107407407,-0.252777778,0,0,0,,0,247,247,171,1,,,
,,,,,,,,,,,,,,,Test1,2020-07-22_14h11.33.015,lexical_decision_task_MP,2020.1.3,Win32,60,,0,,,,,,,,0.77819,-1,,,,,,129,WORD,ID,50,marvel,MARVEL,l,,,,,,-0.107407407,-0.252777778,0,0,0,,0,248,248,68,1,,,
,,,,,,,,,,,,,,,Test1,2020-07-22_14h11.33.015,lexical_decision_task_MP,2020.1.3,Win32,60,,0,,,,,,,,0.77819,-1,,,,,,339,NW,ID,33,fachow,FACHOW,a,,,,,,-0.107407407,-0.252777778,0,0,0,,0,249,249,278,1,,,
,,,,,,,,,,,,,,,Test1,2020-07-22_14h11.33.015,lexical_decision_task_MP,2020.1.3,Win32,60,,0,,,,,,,,0.77819,-1,,,,,,94,WORD,ID,33,travel,TRAVEL,l,,,,,,-0.107407407,-0.252777778,0,0,0,,0,250,250,33,1,,,
,,,,,,,,,,,,,,,Test1,2020-07-22_14h11.33.015,lexical_decision_task_MP,2020.1.3,Win32,60,,0,,,,,,,,0.77819,-1,,,,,,173,WORD,ID,50,shower,SHOWER,l,,,,,,-0.107407407,-0.252777778,0,0,0,,0,251,251,112,1,,,
,,,,,,,,,,,,,,,Test1,2020-07-22_14h11.33.015,lexical_decision_task_MP,2020.1.3,Win32,60,,0,,,,,,,,0.77819,-1,,,,,,52,WORD,UN,50,police,IMPOSE,l,,,,,,-0.107407407,-0.252777778,0,0,0,,0,252,252,231,1,,,
,,,,,,,,,,,,,,,Test1,2020-07-22_14h11.33.015,lexical_decision_task_MP,2020.1.3,Win32,60,,0,,,,,,,,0.77819,-1,,,,,,110,WORD,ID,33,polite,POLITE,l,,,,,,-0.107407407,-0.252777778,0,0,0,,0,253,253,49,1,,,
,,,,,,,,,,,,,,,Test1,2020-07-22_14h11.33.015,lexical_decision_task_MP,2020.1.3,Win32,60,,0,,,,,,,,0.77819,-1,,,,,,196,WORD,UN,33,stream,CREDIT,l,,,,,,-0.107407407,-0.252777778,0,0,0,,0,254,254,135,1,,,
,,,,,,,,,,,,,,,Test1,2020-07-22_14h11.33.015,lexical_decision_task_MP,2020.1.3,Win32,60,,0,,,,,,,,0.77819,-1,,,,,,120,WORD,ID,33,strain,STRAIN,l,,,,,,-0.107407407,-0.252777778,0,0,0,,0,255,255,59,1,,,
,,,,,,,,,,,,,,,Test1,2020-07-22_14h11.33.015,lexical_decision_task_MP,2020.1.3,Win32,60,,0,,,,,,,,0.77819,-1,,,,,,112,WORD,ID,33,breath,BREATH,l,,,,,,-0.107407407,-0.252777778,0,0,0,,0,256,256,51,1,,,
,,,,,,,,,,,,,,,Test1,2020-07-22_14h11.33.015,lexical_decision_task_MP,2020.1.3,Win32,60,,0,,,,,,,,0.77819,-1,,,,,,451,NW,UN,33,surden,CAINKY,a,,,,,,-0.107407407,-0.252777778,0,0,0,,0,257,257,390,1,,,
,,,,,,,,,,,,,,,Test1,2020-07-22_14h11.33.015,lexical_decision_task_MP,2020.1.3,Win32,60,,0,,,,,,,,0.77819,-1,,,,,,327,NW,ID,33,plenac,PLENAC,a,,,,,,-0.107407407,-0.252777778,0,0,0,,0,258,258,266,1,,,
,,,,,,,,,,,,,,,Test1,2020-07-22_14h11.33.015,lexical_decision_task_MP,2020.1.3,Win32,60,,0,,,,,,,,0.77819,-1,,,,,,450,NW,UN,33,cainky,PHRECT,a,,,,,,-0.107407407,-0.252777778,0,0,0,,0,259,259,389,1,,,
,,,,,,,,,,,,,,,Test1,2020-07-22_14h11.33.015,lexical_decision_task_MP,2020.1.3,Win32,60,,0,,,,,,,,0.77819,-1,,,,,,172,WORD,ID,50,patrol,PATROL,l,,,,,,-0.107407407,-0.252777778,0,0,0,,0,260,260,111,1,,,
,,,,,,,,,,,,,,,Test1,2020-07-22_14h11.33.015,lexical_decision_task_MP,2020.1.3,Win32,60,,0,,,,,,,,0.77819,-1,,,,,,259,NW,UN,50,unject,SOUDAL,a,,,,,,-0.107407407,-0.252777778,0,0,0,,0,261,261,438,1,,,
,,,,,,,,,,,,,,,Test1,2020-07-22_14h11.33.015,lexical_decision_task_MP,2020.1.3,Win32,60,,0,,,,,,,,0.77819,-1,,,,,,170,WORD,ID,50,pounce,POUNCE,l,,,,,,-0.107407407,-0.252777778,0,0,0,,0,262,262,109,1,,,
,,,,,,,,,,,,,,,Test1,2020-07-22_14h11.33.015,lexical_decision_task_MP,2020.1.3,Win32,60,,0,,,,,,,,0.77819,-1,,,,,,127,WORD,ID,50,castle,CASTLE,l,,,,,,-0.107407407,-0.252777778,0,0,0,,0,263,263,66,1,,,
,,,,,,,,,,,,,,,Test1,2020-07-22_14h11.33.015,lexical_decision_task_MP,2020.1.3,Win32,60,,0,,,,,,,,0.77819,-1,,,,,,393,NW,ID,50,ganous,GANOUS,a,,,,,,-0.107407407,-0.252777778,0,0,0,,0,264,264,332,1,,,
,,,,,,,,,,,,,,,Test1,2020-07-22_14h11.33.015,lexical_decision_task_MP,2020.1.3,Win32,60,,0,,,,,,,,0.77819,-1,,,,,,274,NW,UN,50,sleirt,FUMBLO,a,,,,,,-0.107407407,-0.252777778,0,0,0,,0,265,265,453,1,,,
,,,,,,,,,,,,,,,Test1,2020-07-22_14h11.33.015,lexical_decision_task_MP,2020.1.3,Win32,60,,0,,,,,,,,0.77819,-1,,,,,,171,WORD,ID,50,depart,DEPART,l,,,,,,-0.107407407,-0.252777778,0,0,0,,0,266,266,110,1,,,
,,,,,,,,,,,,,,,Test1,2020-07-22_14h11.33.015,lexical_decision_task_MP,2020.1.3,Win32,60,,0,,,,,,,,0.77819,-1,,,,,,385,NW,ID,50,veigma,VEIGMA,a,,,,,,-0.107407407,-0.252777778,0,0,0,,0,267,267,324,1,,,
,,,,,,,,,,,,,,,Test1,2020-07-22_14h11.33.015,lexical_decision_task_MP,2020.1.3,Win32,60,,0,,,,,,,,0.77819,-1,,,,,,436,NW,UN,33,snapel,FRUTAN,a,,,,,,-0.107407407,-0.252777778,0,0,0,,0,268,268,375,1,,,
,,,,,,,,,,,,,,,Test1,2020-07-22_14h11.33.015,lexical_decision_task_MP,2020.1.3,Win32,60,,0,,,,,,,,0.77819,-1,,,,,,439,NW,UN,33,saride,LIMPOR,a,,,,,,-0.107407407,-0.252777778,0,0,0,,0,269,269,378,1,,,
,,,,,,,,,,,,,,,Test1,2020-07-22_14h11.33.015,lexical_decision_task_MP,2020.1.3,Win32,60,,0,,,,,,,,0.77819,-1,,,,,,20,WORD,UN,50,simple,BREAST,l,,,,,,-0.107407407,-0.252777778,0,0,0,,0,270,270,199,1,,,
,,,,,,,,,,,,,,,Test1,2020-07-22_14h11.33.015,lexical_decision_task_MP,2020.1.3,Win32,60,,0,,,,,,,,0.77819,-1,,,,,,466,NW,UN,33,robuly,HOCITE,a,,,,,,-0.107407407,-0.252777778,0,0,0,,0,271,271,405,1,,,
,,,,,,,,,,,,,,,Test1,2020-07-22_14h11.33.015,lexical_decision_task_MP,2020.1.3,Win32,60,,0,,,,,,,,0.77819,-1,,,,,,338,NW,ID,33,wreash,WREASH,a,,,,,,-0.107407407,-0.252777778,0,0,0,,0,272,272,277,1,,,
,,,,,,,,,,,,,,,Test1,2020-07-22_14h11.33.015,lexical_decision_task_MP,2020.1.3,Win32,60,,0,,,,,,,,0.77819,-1,,,,,,380,NW,ID,50,cavory,CAVORY,a,,,,,,-0.107407407,-0.252777778,0,0,0,,0,273,273,319,1,,,
,,,,,,,,,,,,,,,Test1,2020-07-22_14h11.33.015,lexical_decision_task_MP,2020.1.3,Win32,60,,0,,,,,,,,0.77819,-1,,,,,,185,WORD,UN,33,portal,BOTHER,l,,,,,,-0.107407407,-0.252777778,0,0,0,,0,274,274,124,1,,,
,,,,,,,,,,,,,,,Test1,2020-07-22_14h11.33.015,lexical_decision_task_MP,2020.1.3,Win32,60,,0,,,,,,,,0.77819,-1,,,,,,265,NW,UN,50,varmit,DISTAR,a,,,,,,-0.107407407,-0.252777778,0,0,0,,0,275,275,444,1,,,
,,,,,,,,,,,,,,,Test1,2020-07-22_14h11.33.015,lexical_decision_task_MP,2020.1.3,Win32,60,,0,,,,,,,,0.77819,-1,,,,,,143,WORD,ID,50,reason,REASON,l,,,,,,-0.107407407,-0.252777778,0,0,0,,0,276,276,82,1,,,
,,,,,,,,,,,,,,,Test1,2020-07-22_14h11.33.015,lexical_decision_task_MP,2020.1.3,Win32,60,,0,,,,,,,,0.77819,-1,,,,,,267,NW,UN,50,packes,PASINK,a,,,,,,-0.107407407,-0.252777778,0,0,0,,0,277,277,446,1,,,
,,,,,,,,,,,,,,,Test1,2020-07-22_14h11.33.015,lexical_decision_task_MP,2020.1.3,Win32,60,,0,,,,,,,,0.77819,-1,,,,,,315,NW,ID,33,laston,LASTON,a,,,,,,-0.107407407,-0.252777778,0,0,0,,0,278,278,254,1,,,
,,,,,,,,,,,,,,,Test1,2020-07-22_14h11.33.015,lexical_decision_task_MP,2020.1.3,Win32,60,,0,,,,,,,,0.77819,-1,,,,,,304,NW,ID,33,cludie,CLUDIE,a,,,,,,-0.107407407,-0.252777778,0,0,0,,0,279,279,243,1,,,
,,,,,,,,,,,,,,,Test1,2020-07-22_14h11.33.015,lexical_decision_task_MP,2020.1.3,Win32,60,,0,,,,,,,,0.77819,-1,,,,,,449,NW,UN,33,phrect,BRUNGE,a,,,,,,-0.107407407,-0.252777778,0,0,0,,0,280,280,388,1,,,
,,,,,,,,,,,,,,,Test1,2020-07-22_14h11.33.015,lexical_decision_task_MP,2020.1.3,Win32,60,,0,,,,,,,,0.77819,-1,,,,,,355,NW,ID,33,zingly,ZINGLY,a,,,,,,-0.107407407,-0.252777778,0,0,0,,0,281,281,294,1,,,
,,,,,,,,,,,,,,,Test1,2020-07-22_14h11.33.015,lexical_decision_task_MP,2020.1.3,Win32,60,,0,,,,,,,,0.77819,-1,,,,,,411,NW,ID,50,orchin,ORCHIN,a,,,,,,-0.107407407,-0.252777778,0,0,0,,0,282,282,350,1,,,
,,,,,,,,,,,,,,,Test1,2020-07-22_14h11.33.015,lexical_decision_task_MP,2020.1.3,Win32,60,,0,,,,,,,,0.77819,-1,,,,,,427,NW,UN,33,tandly,SCHIND,a,,,,,,-0.107407407,-0.252777778,0,0,0,,0,283,283,366,1,,,
,,,,,,,,,,,,,,,Test1,2020-07-22_14h11.33.015,lexical_decision_task_MP,2020.1.3,Win32,60,,0,,,,,,,,0.77819,-1,,,,,,95,WORD,ID,33,thread,THREAD,l,,,,,,-0.107407407,-0.252777778,0,0,0,,0,284,284,34,1,,,
,,,,,,,,,,,,,,,Test1,2020-07-22_14h11.33.015,lexical_decision_task_MP,2020.1.3,Win32,60,,0,,,,,,,,0.77819,-1,,,,,,197,WORD,UN,33,wicked,STREAM,l,,,,,,-0.107407407,-0.252777778,0,0,0,,0,285,285,136,1,,,
,,,,,,,,,,,,,,,Test1,2020-07-22_14h11.33.015,lexical_decision_task_MP,2020.1.3,Win32,60,,0,,,,,,,,0.77819,-1,,,,,,254,NW,UN,50,apight,VAROSH,a,,,,,,-0.107407407,-0.252777778,0,0,0,,0,286,286,433,1,,,
,,,,,,,,,,,,,,,Test1,2020-07-22_14h11.33.015,lexical_decision_task_MP,2020.1.3,Win32,60,,0,,,,,,,,0.77819,-1,,,,,,229,WORD,UN,33,fringe,MOTHER,l,,,,,,-0.107407407,-0.252777778,0,0,0,,0,287,287,168,1,,,
,,,,,,,,,,,,,,,Test1,2020-07-22_14h11.33.015,lexical_decision_task_MP,2020.1.3,Win32,60,,0,,,,,,,,0.77819,-1,,,,,,137,WORD,ID,50,finger,FINGER,l,,,,,,-0.107407407,-0.252777778,0,0,0,,0,288,288,76,1,,,
,,,,,,,,,,,,,,,Test1,2020-07-22_14h11.33.015,lexical_decision_task_MP,2020.1.3,Win32,60,,0,,,,,,,,0.77819,-1,,,,,,250,NW,UN,50,lupict,MILTED,a,,,,,,-0.107407407,-0.252777778,0,0,0,,0,289,289,429,1,,,
,,,,,,,,,,,,,,,Test1,2020-07-22_14h11.33.015,lexical_decision_task_MP,2020.1.3,Win32,60,,0,,,,,,,,0.77819,-1,,,,,,431,NW,UN,33,lunker,CHRUMS,a,,,,,,-0.107407407,-0.252777778,0,0,0,,0,290,290,370,1,,,
,,,,,,,,,,,,,,,Test1,2020-07-22_14h11.33.015,lexical_decision_task_MP,2020.1.3,Win32,60,,0,,,,,,,,0.77819,-1,,,,,,227,WORD,UN,33,master,SELDOM,l,,,,,,-0.107407407,-0.252777778,0,0,0,,0,291,291,166,1,,,
,,,,,,,,,,,,,,,Test1,2020-07-22_14h11.33.015,lexical_decision_task_MP,2020.1.3,Win32,60,,0,,,,,,,,0.77819,-1,,,,,,111,WORD,ID,33,induce,INDUCE,l,,,,,,-0.107407407,-0.252777778,0,0,0,,0,292,292,50,1,,,
,,,,,,,,,,,,,,,Test1,2020-07-22_14h11.33.015,lexical_decision_task_MP,2020.1.3,Win32,60,,0,,,,,,,,0.77819,-1,,,,,,282,NW,UN,50,veralf,PORLEX,a,,,,,,-0.107407407,-0.252777778,0,0,0,,0,293,293,461,1,,,
,,,,,,,,,,,,,,,Test1,2020-07-22_14h11.33.015,lexical_decision_task_MP,2020.1.3,Win32,60,,0,,,,,,,,0.77819,-1,,,,,,138,WORD,ID,50,melody,MELODY,l,,,,,,-0.107407407,-0.252777778,0,0,0,,0,294,294,77,1,,,
,,,,,,,,,,,,,,,Test1,2020-07-22_14h11.33.015,lexical_decision_task_MP,2020.1.3,Win32,60,,0,,,,,,,,0.77819,-1,,,,,,56,WORD,UN,50,change,AMBUSH,l,,,,,,-0.107407407,-0.252777778,0,0,0,,0,295,295,235,1,,,
,,,,,,,,,,,,,,,Test1,2020-07-22_14h11.33.015,lexical_decision_task_MP,2020.1.3,Win32,60,,0,,,,,,,,0.77819,-1,,,,,,38,WORD,UN,50,insect,POWDER,l,,,,,,-0.107407407,-0.252777778,0,0,0,,0,296,296,217,1,,,
,,,,,,,,,,,,,,,Test1,2020-07-22_14h11.33.015,lexical_decision_task_MP,2020.1.3,Win32,60,,0,,,,,,,,0.77819,-1,,,,,,310,NW,ID,33,daniet,DANIET,a,,,,,,-0.107407407,-0.252777778,0,0,0,,0,297,297,249,1,,,
,,,,,,,,,,,,,,,Test1,2020-07-22_14h11.33.015,lexical_decision_task_MP,2020.1.3,Win32,60,,0,,,,,,,,0.77819,-1,,,,,,286,NW,UN,50,nymbel,RELDON,a,,,,,,-0.107407407,-0.252777778,0,0,0,,0,298,298,465,1,,,
,,,,,,,,,,,,,,,Test1,2020-07-22_14h11.33.015,lexical_decision_task_MP,2020.1.3,Win32,60,,0,,,,,,,,0.77819,-1,,,,,,276,NW,UN,50,petain,YARMON,a,,,,,,-0.107407407,-0.252777778,0,0,0,,0,299,299,455,1,,,
,,,,,,,,,,,,,,,Test1,2020-07-22_14h11.33.015,lexical_decision_task_MP,2020.1.3,Win32,60,,0,,,,,,,,0.77819,-1,,,,,,330,NW,ID,33,kensom,KENSOM,a,,,,,,-0.107407407,-0.252777778,0,0,0,,0,300,300,269,1,,,
,,,,,,,,,,,,,,,Test1,2020-07-22_14h11.33.015,lexical_decision_task_MP,2020.1.3,Win32,60,,0,,,,,,,,0.77819,-1,,,,,,44,WORD,UN,50,clergy,DANGER,l,,,,,,-0.107407407,-0.252777778,0,0,0,,0,301,301,223,1,,,
,,,,,,,,,,,,,,,Test1,2020-07-22_14h11.33.015,lexical_decision_task_MP,2020.1.3,Win32,60,,0,,,,,,,,0.77819,-1,,,,,,349,NW,ID,33,asylen,ASYLEN,a,,,,,,-0.107407407,-0.252777778,0,0,0,,0,302,302,288,1,,,
,,,,,,,,,,,,,,,Test1,2020-07-22_14h11.33.015,lexical_decision_task_MP,2020.1.3,Win32,60,,0,,,,,,,,0.77819,-1,,,,,,241,NW,UN,50,unwert,SMENCO,a,,,,,,-0.107407407,-0.252777778,0,0,0,,0,303,303,420,1,,,
,,,,,,,,,,,,,,,Test1,2020-07-22_14h11.33.015,lexical_decision_task_MP,2020.1.3,Win32,60,,0,,,,,,,,0.77819,-1,,,,,,352,NW,ID,33,tringe,TRINGE,a,,,,,,-0.107407407,-0.252777778,0,0,0,,0,304,304,291,1,,,
,,,,,,,,,,,,,,,Test1,2020-07-22_14h11.33.015,lexical_decision_task_MP,2020.1.3,Win32,60,,0,,,,,,,,0.77819,-1,,,,,,477,NW,UN,33,lobush,PHOTIE,a,,,,,,-0.107407407,-0.252777778,0,0,0,,0,305,305,416,1,,,
,,,,,,,,,,,,,,,Test1,2020-07-22_14h11.33.015,lexical_decision_task_MP,2020.1.3,Win32,60,,0,,,,,,,,0.77819,-1,,,,,,166,WORD,ID,50,starch,STARCH,l,,,,,,-0.107407407,-0.252777778,0,0,0,,0,306,306,105,1,,,
,,,,,,,,,,,,,,,Test1,2020-07-22_14h11.33.015,lexical_decision_task_MP,2020.1.3,Win32,60,,0,,,,,,,,0.77819,-1,,,,,,46,WORD,UN,50,income,SINGLE,l,,,,,,-0.107407407,-0.252777778,0,0,0,,0,307,307,225,1,,,
,,,,,,,,,,,,,,,Test1,2020-07-22_14h11.33.015,lexical_decision_task_MP,2020.1.3,Win32,60,,0,,,,,,,,0.77819,-1,,,,,,168,WORD,ID,50,answer,ANSWER,l,,,,,,-0.107407407,-0.252777778,0,0,0,,0,308,308,107,1,,,
,,,,,,,,,,,,,,,Test1,2020-07-22_14h11.33.015,lexical_decision_task_MP,2020.1.3,Win32,60,,0,,,,,,,,0.77819,-1,,,,,,207,WORD,UN,33,hockey,WREATH,l,,,,,,-0.107407407,-0.252777778,0,0,0,,0,309,309,146,1,,,
,,,,,,,,,,,,,,,Test1,2020-07-22_14h11.33.015,lexical_decision_task_MP,2020.1.3,Win32,60,,0,,,,,,,,0.77819,-1,,,,,,42,WORD,UN,50,tongue,CHAPEL,l,,,,,,-0.107407407,-0.252777778,0,0,0,,0,310,310,221,1,,,
,,,,,,,,,,,,,,,Test1,2020-07-22_14h11.33.015,lexical_decision_task_MP,2020.1.3,Win32,60,,0,,,,,,,,0.77819,-1,,,,,,213,WORD,UN,33,intake,SQUEAL,l,,,,,,-0.107407407,-0.252777778,0,0,0,,0,311,311,152,1,,,
,,,,,,,,,,,,,,,Test1,2020-07-22_14h11.33.015,lexical_decision_task_MP,2020.1.3,Win32,60,,0,,,,,,,,0.77819,-1,,,,,,146,WORD,ID,50,couple,COUPLE,l,,,,,,-0.107407407,-0.252777778,0,0,0,,0,312,312,85,1,,,
,,,,,,,,,,,,,,,Test1,2020-07-22_14h11.33.015,lexical_decision_task_MP,2020.1.3,Win32,60,,0,,,,,,,,0.77819,-1,,,,,,469,NW,UN,33,crudio,PADIFS,a,,,,,,-0.107407407,-0.252777778,0,0,0,,0,313,313,408,1,,,
,,,,,,,,,,,,,,,Test1,2020-07-22_14h11.33.015,lexical_decision_task_MP,2020.1.3,Win32,60,,0,,,,,,,,0.77819,-1,,,,,,351,NW,ID,33,tiesch,TIESCH,a,,,,,,-0.107407407,-0.252777778,0,0,0,,0,314,314,290,1,,,
,,,,,,,,,,,,,,,Test1,2020-07-22_14h11.33.015,lexical_decision_task_MP,2020.1.3,Win32,60,,0,,,,,,,,0.77819,-1,,,,,,460,NW,UN,33,justre,MINGAR,a,,,,,,-0.107407407,-0.252777778,0,0,0,,0,315,315,399,1,,,
,,,,,,,,,,,,,,,Test1,2020-07-22_14h11.33.015,lexical_decision_task_MP,2020.1.3,Win32,60,,0,,,,,,,,0.77819,-1,,,,,,420,NW,ID,50,gushop,GUSHOP,a,,,,,,-0.107407407,-0.252777778,0,0,0,,0,316,316,359,1,,,
,,,,,,,,,,,,,,,Test1,2020-07-22_14h11.33.015,lexical_decision_task_MP,2020.1.3,Win32,60,,0,,,,,,,,0.77819,-1,,,,,,51,WORD,UN,50,impose,HUNGRY,l,,,,,,-0.107407407,-0.252777778,0,0,0,,0,317,317,230,1,,,
,,,,,,,,,,,,,,,Test1,2020-07-22_14h11.33.015,lexical_decision_task_MP,2020.1.3,Win32,60,,0,,,,,,,,0.77819,-1,,,,,,432,NW,UN,33,drance,LUNKER,a,,,,,,-0.107407407,-0.252777778,0,0,0,,0,318,318,371,1,,,
,,,,,,,,,,,,,,,Test1,2020-07-22_14h11.33.015,lexical_decision_task_MP,2020.1.3,Win32,60,,0,,,,,,,,0.77819,-1,,,,,,262,NW,UN,50,dolica,QUILEW,a,,,,,,-0.107407407,-0.252777778,0,0,0,,0,319,319,441,1,,,
,,,,,,,,,,,,,,,Test1,2020-07-22_14h11.33.015,lexical_decision_task_MP,2020.1.3,Win32,60,,0,,,,,,,,0.77819,-1,,,,,,357,NW,ID,33,derain,DERAIN,a,,,,,,-0.107407407,-0.252777778,0,0,0,,0,320,320,296,1,,,
,,,,,,,,,,,,,,,Test1,2020-07-22_14h11.33.015,lexical_decision_task_MP,2020.1.3,Win32,60,,0,,,,,,,,0.77819,-1,,,,,,113,WORD,ID,33,chorus,CHORUS,l,,,,,,-0.107407407,-0.252777778,0,0,0,,0,321,321,52,1,,,
,,,,,,,,,,,,,,,Test1,2020-07-22_14h11.33.015,lexical_decision_task_MP,2020.1.3,Win32,60,,0,,,,,,,,0.77819,-1,,,,,,2,WORD,UN,50,knight,BRIDGE,l,,,,,,-0.107407407,-0.252777778,0,0,0,,0,322,322,181,1,,,
,,,,,,,,,,,,,,,Test1,2020-07-22_14h11.33.015,lexical_decision_task_MP,2020.1.3,Win32,60,,0,,,,,,,,0.77819,-1,,,,,,448,NW,UN,33,brunge,SADENT,a,,,,,,-0.107407407,-0.252777778,0,0,0,,0,323,323,387,1,,,
,,,,,,,,,,,,,,,Test1,2020-07-22_14h11.33.015,lexical_decision_task_MP,2020.1.3,Win32,60,,0,,,,,,,,0.77819,-1,,,,,,86,WORD,ID,33,rodent,RODENT,l,,,,,,-0.107407407,-0.252777778,0,0,0,,0,324,324,25,1,,,
,,,,,,,,,,,,,,,Test1,2020-07-22_14h11.33.015,lexical_decision_task_MP,2020.1.3,Win32,60,,0,,,,,,,,0.77819,-1,,,,,,72,WORD,ID,33,bright,BRIGHT,l,,,,,,-0.107407407,-0.252777778,0,0,0,,0,325,325,11,1,,,
,,,,,,,,,,,,,,,Test1,2020-07-22_14h11.33.015,lexical_decision_task_MP,2020.1.3,Win32,60,,0,,,,,,,,0.77819,-1,,,,,,3,WORD,UN,50,trench,KNIGHT,l,,,,,,-0.107407407,-0.252777778,0,0,0,,0,326,326,182,1,,,
,,,,,,,,,,,,,,,Test1,2020-07-22_14h11.33.015,lexical_decision_task_MP,2020.1.3,Win32,60,,0,,,,,,,,0.77819,-1,,,,,,251,NW,UN,50,stapod,LUPICT,a,,,,,,-0.107407407,-0.252777778,0,0,0,,0,327,327,430,1,,,
,,,,,,,,,,,,,,,Test1,2020-07-22_14h11.33.015,lexical_decision_task_MP,2020.1.3,Win32,60,,0,,,,,,,,0.77819,-1,,,,,,397,NW,ID,50,camble,CAMBLE,a,,,,,,-0.107407407,-0.252777778,0,0,0,,0,328,328,336,1,,,
,,,,,,,,,,,,,,,Test1,2020-07-22_14h11.33.015,lexical_decision_task_MP,2020.1.3,Win32,60,,0,,,,,,,,0.77819,-1,,,,,,294,NW,UN,50,gleath,INHORT,a,,,,,,-0.107407407,-0.252777778,0,0,0,,0,329,329,473,1,,,
,,,,,,,,,,,,,,,Test1,2020-07-22_14h11.33.015,lexical_decision_task_MP,2020.1.3,Win32,60,,0,,,,,,,,0.77819,-1,,,,,,413,NW,ID,50,equats,EQUATS,a,,,,,,-0.107407407,-0.252777778,0,0,0,,0,330,330,352,1,,,
,,,,,,,,,,,,,,,Test1,2020-07-22_14h11.33.015,lexical_decision_task_MP,2020.1.3,Win32,60,,0,,,,,,,,0.77819,-1,,,,,,148,WORD,ID,50,custom,CUSTOM,l,,,,,,-0.107407407,-0.252777778,0,0,0,,0,331,331,87,1,,,
,,,,,,,,,,,,,,,Test1,2020-07-22_14h11.33.015,lexical_decision_task_MP,2020.1.3,Win32,60,,0,,,,,,,,0.77819,-1,,,,,,191,WORD,UN,33,beacon,STABLE,l,,,,,,-0.107407407,-0.252777778,0,0,0,,0,332,332,130,1,,,
,,,,,,,,,,,,,,,Test1,2020-07-22_14h11.33.015,lexical_decision_task_MP,2020.1.3,Win32,60,,0,,,,,,,,0.77819,-1,,,,,,375,NW,ID,50,yorque,YORQUE,a,,,,,,-0.107407407,-0.252777778,0,0,0,,0,333,333,314,1,,,
,,,,,,,,,,,,,,,Test1,2020-07-22_14h11.33.015,lexical_decision_task_MP,2020.1.3,Win32,60,,0,,,,,,,,0.77819,-1,,,,,,309,NW,ID,33,amiloy,AMILOY,a,,,,,,-0.107407407,-0.252777778,0,0,0,,0,334,334,248,1,,,
,,,,,,,,,,,,,,,Test1,2020-07-22_14h11.33.015,lexical_decision_task_MP,2020.1.3,Win32,60,,0,,,,,,,,0.77819,-1,,,,,,124,WORD,ID,50,blouse,BLOUSE,l,,,,,,-0.107407407,-0.252777778,0,0,0,,0,335,335,63,1,,,
,,,,,,,,,,,,,,,Test1,2020-07-22_14h11.33.015,lexical_decision_task_MP,2020.1.3,Win32,60,,0,,,,,,,,0.77819,-1,,,,,,64,WORD,ID,33,throne,THRONE,l,,,,,,-0.107407407,-0.252777778,0,0,0,,0,336,336,3,1,,,
,,,,,,,,,,,,,,,Test1,2020-07-22_14h11.33.015,lexical_decision_task_MP,2020.1.3,Win32,60,,0,,,,,,,,0.77819,-1,,,,,,74,WORD,ID,33,plaque,PLAQUE,l,,,,,,-0.107407407,-0.252777778,0,0,0,,0,337,337,13,1,,,
,,,,,,,,,,,,,,,Test1,2020-07-22_14h11.33.015,lexical_decision_task_MP,2020.1.3,Win32,60,,0,,,,,,,,0.77819,-1,,,,,,81,WORD,ID,33,friend,FRIEND,l,,,,,,-0.107407407,-0.252777778,0,0,0,,0,338,338,20,1,,,
,,,,,,,,,,,,,,,Test1,2020-07-22_14h11.33.015,lexical_decision_task_MP,2020.1.3,Win32,60,,0,,,,,,,,0.77819,-1,,,,,,106,WORD,ID,33,ransom,RANSOM,l,,,,,,-0.107407407,-0.252777778,0,0,0,,0,339,339,45,1,,,
,,,,,,,,,,,,,,,Test1,2020-07-22_14h11.33.015,lexical_decision_task_MP,2020.1.3,Win32,60,,0,,,,,,,,0.77819,-1,,,,,,474,NW,UN,33,acrise,HABLIN,a,,,,,,-0.107407407,-0.252777778,0,0,0,,0,340,340,413,1,,,
,,,,,,,,,,,,,,,Test1,2020-07-22_14h11.33.015,lexical_decision_task_MP,2020.1.3,Win32,60,,0,,,,,,,,0.77819,-1,,,,,,231,WORD,UN,33,inject,EXPORT,l,,,,,,-0.107407407,-0.252777778,0,0,0,,0,341,341,170,1,,,
,,,,,,,,,,,,,,,Test1,2020-07-22_14h11.33.015,lexical_decision_task_MP,2020.1.3,Win32,60,,0,,,,,,,,0.77819,-1,,,,,,104,WORD,ID,33,studio,STUDIO,l,,,,,,-0.107407407,-0.252777778,0,0,0,,0,342,342,43,1,,,
,,,,,,,,,,,,,,,Test1,2020-07-22_14h11.33.015,lexical_decision_task_MP,2020.1.3,Win32,60,,0,,,,,,,,0.77819,-1,,,,,,386,NW,ID,50,ancust,ANCUST,a,,,,,,-0.107407407,-0.252777778,0,0,0,,0,343,343,325,1,,,
,,,,,,,,,,,,,,,Test1,2020-07-22_14h11.33.015,lexical_decision_task_MP,2020.1.3,Win32,60,,0,,,,,,,,0.77819,-1,,,,,,159,WORD,ID,50,detail,DETAIL,l,,,,,,-0.107407407,-0.252777778,0,0,0,,0,344,344,98,1,,,
,,,,,,,,,,,,,,,Test1,2020-07-22_14h11.33.015,lexical_decision_task_MP,2020.1.3,Win32,60,,0,,,,,,,,0.77819,-1,,,,,,66,WORD,ID,33,gospel,GOSPEL,l,,,,,,-0.107407407,-0.252777778,0,0,0,,0,345,345,5,1,,,
,,,,,,,,,,,,,,,Test1,2020-07-22_14h11.33.015,lexical_decision_task_MP,2020.1.3,Win32,60,,0,,,,,,,,0.77819,-1,,,,,,417,NW,ID,50,earoud,EAROUD,a,,,,,,-0.107407407,-0.252777778,0,0,0,,0,346,346,356,1,,,
,,,,,,,,,,,,,,,Test1,2020-07-22_14h11.33.015,lexical_decision_task_MP,2020.1.3,Win32,60,,0,,,,,,,,0.77819,-1,,,,,,387,NW,ID,50,gronce,GRONCE,a,,,,,,-0.107407407,-0.252777778,0,0,0,,0,347,347,326,1,,,
,,,,,,,,,,,,,,,Test1,2020-07-22_14h11.33.015,lexical_decision_task_MP,2020.1.3,Win32,60,,0,,,,,,,,0.77819,-1,,,,,,245,NW,UN,50,piaton,ANOUGS,a,,,,,,-0.107407407,-0.252777778,0,0,0,,0,348,348,424,1,,,
,,,,,,,,,,,,,,,Test1,2020-07-22_14h11.33.015,lexical_decision_task_MP,2020.1.3,Win32,60,,0,,,,,,,,0.77819,-1,,,,,,77,WORD,ID,33,racket,RACKET,l,,,,,,-0.107407407,-0.252777778,0,0,0,,0,349,349,16,1,,,
,,,,,,,,,,,,,,,Test1,2020-07-22_14h11.33.015,lexical_decision_task_MP,2020.1.3,Win32,60,,0,,,,,,,,0.77819,-1,,,,,,406,NW,ID,50,nouply,NOUPLY,a,,,,,,-0.107407407,-0.252777778,0,0,0,,0,350,350,345,1,,,
,,,,,,,,,,,,,,,Test1,2020-07-22_14h11.33.015,lexical_decision_task_MP,2020.1.3,Win32,60,,0,,,,,,,,0.77819,-1,,,,,,264,NW,UN,50,distar,VACKEL,a,,,,,,-0.107407407,-0.252777778,0,0,0,,0,351,351,443,1,,,
,,,,,,,,,,,,,,,Test1,2020-07-22_14h11.33.015,lexical_decision_task_MP,2020.1.3,Win32,60,,0,,,,,,,,0.77819,-1,,,,,,154,WORD,ID,50,author,AUTHOR,l,,,,,,-0.107407407,-0.252777778,0,0,0,,0,352,352,93,1,,,
,,,,,,,,,,,,,,,Test1,2020-07-22_14h11.33.015,lexical_decision_task_MP,2020.1.3,Win32,60,,0,,,,,,,,0.77819,-1,,,,,,370,NW,ID,50,sleact,SLEACT,a,,,,,,-0.107407407,-0.252777778,0,0,0,,0,353,353,309,1,,,
,,,,,,,,,,,,,,,Test1,2020-07-22_14h11.33.015,lexical_decision_task_MP,2020.1.3,Win32,60,,0,,,,,,,,0.77819,-1,,,,,,455,NW,UN,33,broget,TONDLE,a,,,,,,-0.107407407,-0.252777778,0,0,0,,0,354,354,394,1,,,
,,,,,,,,,,,,,,,Test1,2020-07-22_14h11.33.015,lexical_decision_task_MP,2020.1.3,Win32,60,,0,,,,,,,,0.77819,-1,,,,,,362,NW,ID,50,tireau,TIREAU,a,,,,,,-0.107407407,-0.252777778,0,0,0,,0,355,355,301,1,,,
,,,,,,,,,,,,,,,Test1,2020-07-22_14h11.33.015,lexical_decision_task_MP,2020.1.3,Win32,60,,0,,,,,,,,0.77819,-1,,,,,,382,NW,ID,50,sarley,SARLEY,a,,,,,,-0.107407407,-0.252777778,0,0,0,,0,356,356,321,1,,,
,,,,,,,,,,,,,,,Test1,2020-07-22_14h11.33.015,lexical_decision_task_MP,2020.1.3,Win32,60,,0,,,,,,,,0.77819,-1,,,,,,163,WORD,ID,50,string,STRING,l,,,,,,-0.107407407,-0.252777778,0,0,0,,0,357,357,102,1,,,
,,,,,,,,,,,,,,,Test1,2020-07-22_14h11.33.015,lexical_decision_task_MP,2020.1.3,Win32,60,,0,,,,,,,,0.77819,-1,,,,,,101,WORD,ID,33,wrench,WRENCH,l,,,,,,-0.107407407,-0.252777778,0,0,0,,0,358,358,40,1,,,
,,,,,,,,,,,,,,,Test1,2020-07-22_14h11.33.015,lexical_decision_task_MP,2020.1.3,Win32,60,,0,,,,,,,,0.77819,-1,,,,,,88,WORD,ID,33,hunger,HUNGER,l,,,,,,-0.107407407,-0.252777778,0,0,0,,0,359,359,27,1,,,
,,,,,,,,,,,,,,,Test1,2020-07-22_14h11.33.015,lexical_decision_task_MP,2020.1.3,Win32,60,,0,,,,,,,,0.77819,-1,,,,,,103,WORD,ID,33,bounce,BOUNCE,l,,,,,,-0.107407407,-0.252777778,0,0,0,,0,360,360,42,1,,,
,,,,,,,,,,,,,,,Test1,2020-07-22_14h11.33.015,lexical_decision_task_MP,2020.1.3,Win32,60,,0,,,,,,,,0.77819,-1,,,,,,122,WORD,ID,50,linger,LINGER,l,,,,,,0.786111111,0.478703704,0,0,0,,0,361,361,61,1,,,
,,,,,,,,,,,,,,,Test1,2020-07-22_14h11.33.015,lexical_decision_task_MP,2020.1.3,Win32,60,,0,,,,,,,,0.77819,-1,,,,,,204,WORD,UN,33,lounge,BURDEN,l,,,,,,-0.093518519,-0.398148148,1,0,0,,0,362,362,143,1,,break_done_button,
,,,,,,,,,,,,,,,Test1,2020-07-22_14h11.33.015,lexical_decision_task_MP,2020.1.3,Win32,60,l,0,,,,,,,,1.623335,0,,,,,,328,NW,ID,33,broake,BROAKE,a,,,,,,-0.650925926,-0.003703704,0,0,0,,0,363,363,267,1,,,1.623335
,,,,,,,,,,,,,,,Test1,2020-07-22_14h11.33.015,lexical_decision_task_MP,2020.1.3,Win32,60,l,0,,,,,,,,0.080155,0,,,,,,442,NW,UN,33,dorsex,ABOUNE,a,,,,,,-0.650925926,-0.003703704,0,0,0,,0,364,364,381,1,,,0.080155
,,,,,,,,,,,,,,,Test1,2020-07-22_14h11.33.015,lexical_decision_task_MP,2020.1.3,Win32,60,l,0,,,,,,,,0.19189,0,,,,,,346,NW,ID,33,saudic,SAUDIC,a,,,,,,-0.650925926,-0.003703704,0,0,0,,0,365,365,285,1,,,0.19189
,,,,,,,,,,,,,,,Test1,2020-07-22_14h11.33.015,lexical_decision_task_MP,2020.1.3,Win32,60,l,0,,,,,,,,0.161645,0,,,,,,335,NW,ID,33,desion,DESION,a,,,,,,-0.650925926,-0.003703704,0,0,0,,0,366,366,274,1,,,0.161645
,,,,,,,,,,,,,,,Test1,2020-07-22_14h11.33.015,lexical_decision_task_MP,2020.1.3,Win32,60,a,0,,,,,,,,0.176655,0,,,,,,108,WORD,ID,33,reckon,RECKON,l,,,,,,-0.650925926,-0.003703704,0,0,0,,0,367,367,47,1,,,0.176655
,,,,,,,,,,,,,,,Test1,2020-07-22_14h11.33.015,lexical_decision_task_MP,2020.1.3,Win32,60,a,0,,,,,,,,0.037095,0,,,,,,190,WORD,UN,33,stable,BACKUP,l,,,,,,-0.650925926,-0.003703704,0,0,0,,0,368,368,129,1,,,0.037095
,,,,,,,,,,,,,,,Test1,2020-07-22_14h11.33.015,lexical_decision_task_MP,2020.1.3,Win32,60,l,0,,,,,,,,0.377065,0,,,,,,296,NW,UN,50,fertic,BEINCH,a,,,,,,-0.650925926,-0.003703704,0,0,0,,0,369,369,475,1,,,0.377065
,,,,,,,,,,,,,,,Test1,2020-07-22_14h11.33.015,lexical_decision_task_MP,2020.1.3,Win32,60,l,1,,,,,,,,0.230795,1,,,,,,98,WORD,ID,33,belong,BELONG,l,,,,,,-0.650925926,-0.003703704,0,0,0,,0,370,370,37,1,,,0.230795
,,,,,,,,,,,,,,,Test1,2020-07-22_14h11.33.015,lexical_decision_task_MP,2020.1.3,Win32,60,l,0,,,,,,,,0.204265,0,,,,,,405,NW,ID,50,flumni,FLUMNI,a,,,,,,-0.650925926,-0.003703704,0,0,0,,0,371,371,344,1,,,0.204265
,,,,,,,,,,,,,,,Test1,2020-07-22_14h11.33.015,lexical_decision_task_MP,2020.1.3,Win32,60,l,0,,,,,,,,0.26712,0,,,,,,435,NW,UN,33,frutan,IMPURB,a,,,,,,-0.650925926,-0.003703704,0,0,0,,0,372,372,374,1,,,0.26712
,,,,,,,,,,,,,,,Test1,2020-07-22_14h11.33.015,lexical_decision_task_MP,2020.1.3,Win32,60,l,1,,,,,,,,0.187255,1,,,,,,160,WORD,ID,50,violet,VIOLET,l,,,,,,-0.650925926,-0.003703704,0,0,0,,0,373,373,99,1,,,0.187255
,,,,,,,,,,,,,,,Test1,2020-07-22_14h11.33.015,lexical_decision_task_MP,2020.1.3,Win32,60,a,0,,,,,,,,0.23731,0,,,,,,102,WORD,ID,33,direct,DIRECT,l,,,,,,-0.650925926,-0.003703704,0,0,0,,0,374,374,41,1,,,0.23731
,,,,,,,,,,,,,,,Test1,2020-07-22_14h11.33.015,lexical_decision_task_MP,2020.1.3,Win32,60,l,0,,,,,,,,0.21781,0,,,,,,353,NW,ID,33,clurey,CLUREY,a,,,,,,-0.650925926,-0.003703704,0,0,0,,0,375,375,292,1,,,0.21781
,,,,,,,,,,,,,,,Test1,2020-07-22_14h11.33.015,lexical_decision_task_MP,2020.1.3,Win32,60,l,1,,,,,,,,0.229265,1,,,,,,175,WORD,ID,50,fabric,FABRIC,l,,,,,,-0.650925926,-0.003703704,0,0,0,,0,376,376,114,1,,,0.229265
,,,,,,,,,,,,,,,Test1,2020-07-22_14h11.33.015,lexical_decision_task_MP,2020.1.3,Win32,60,l,1,,,,,,,,0.17136,1,,,,,,139,WORD,ID,50,debris,DEBRIS,l,,,,,,-0.650925926,-0.003703704,0,0,0,,0,377,377,78,1,,,0.17136
,,,,,,,,,,,,,,,Test1,2020-07-22_14h11.33.015,lexical_decision_task_MP,2020.1.3,Win32,60,l,1,,,,,,,,0.20295,1,,,,,,189,WORD,UN,33,backup,CENSOR,l,,,,,,-0.650925926,-0.003703704,0,0,0,,0,378,378,128,1,,,0.20295
,,,,,,,,,,,,,,,Test1,2020-07-22_14h11.33.015,lexical_decision_task_MP,2020.1.3,Win32,60,a,1,,,,,,,,0.5709,1,,,,,,256,NW,UN,50,veniod,INLORS,a,,,,,,-0.650925926,-0.003703704,0,0,0,,0,379,379,435,1,,,0.5709
,,,,,,,,,,,,,,,Test1,2020-07-22_14h11.33.015,lexical_decision_task_MP,2020.1.3,Win32,60,,0,,,,,,,,0.5709,-1,,,,,,68,WORD,ID,33,fumble,FUMBLE,l,,,,,,-0.886111111,-0.033333333,0,0,0,,0,380,380,7,1,,,
,,,,,,,,,,,,,,,Test1,2020-07-22_14h11.33.015,lexical_decision_task_MP,2020.1.3,Win32,60,,0,,,,,,,,0.5709,-1,,,,,,89,WORD,ID,33,permit,PERMIT,l,,,,,,-0.886111111,-0.033333333,0,0,0,,0,381,381,28,1,,,
,,,,,,,,,,,,,,,Test1,2020-07-22_14h11.33.015,lexical_decision_task_MP,2020.1.3,Win32,60,,0,,,,,,,,0.5709,-1,,,,,,429,NW,UN,33,caroey,FUNTLE,a,,,,,,-0.886111111,-0.033333333,0,0,0,,0,382,382,368,1,,,
,,,,,,,,,,,,,,,Test1,2020-07-22_14h11.33.015,lexical_decision_task_MP,2020.1.3,Win32,60,,0,,,,,,,,0.5709,-1,,,,,,461,NW,UN,33,absult,JUSTRE,a,,,,,,-0.886111111,-0.033333333,0,0,0,,0,383,383,400,1,,,
,,,,,,,,,,,,,,,Test1,2020-07-22_14h11.33.015,lexical_decision_task_MP,2020.1.3,Win32,60,,0,,,,,,,,0.5709,-1,,,,,,174,WORD,ID,50,turkey,TURKEY,l,,,,,,-0.886111111,-0.033333333,0,0,0,,0,384,384,113,1,,,
,,,,,,,,,,,,,,,Test1,2020-07-22_14h11.33.015,lexical_decision_task_MP,2020.1.3,Win32,60,,0,,,,,,,,0.5709,-1,,,,,,9,WORD,UN,50,bridge,HUSTLE,l,,,,,,-0.886111111,-0.033333333,0,0,0,,0,385,385,188,1,,,
,,,,,,,,,,,,,,,Test1,2020-07-22_14h11.33.015,lexical_decision_task_MP,2020.1.3,Win32,60,,0,,,,,,,,0.5709,-1,,,,,,425,NW,UN,33,urivel,FRUDGE,a,,,,,,-0.886111111,-0.033333333,0,0,0,,0,386,386,364,1,,,
,,,,,,,,,,,,,,,Test1,2020-07-22_14h11.33.015,lexical_decision_task_MP,2020.1.3,Win32,60,,0,,,,,,,,0.5709,-1,,,,,,312,NW,ID,33,nerawl,NERAWL,a,,,,,,-0.886111111,-0.033333333,0,0,0,,0,387,387,251,1,,,
,,,,,,,,,,,,,,,Test1,2020-07-22_14h11.33.015,lexical_decision_task_MP,2020.1.3,Win32,60,,0,,,,,,,,0.5709,-1,,,,,,277,NW,UN,50,unighs,PETAIN,a,,,,,,-0.886111111,-0.033333333,0,0,0,,0,388,388,456,1,,,
,,,,,,,,,,,,,,,Test1,2020-07-22_14h11.33.015,lexical_decision_task_MP,2020.1.3,Win32,60,,0,,,,,,,,0.5709,-1,,,,,,463,NW,UN,33,chaite,KISPEL,a,,,,,,-0.886111111,-0.033333333,0,0,0,,0,389,389,402,1,,,
,,,,,,,,,,,,,,,Test1,2020-07-22_14h11.33.015,lexical_decision_task_MP,2020.1.3,Win32,60,,0,,,,,,,,0.5709,-1,,,,,,123,WORD,ID,50,strike,STRIKE,l,,,,,,-0.886111111,-0.033333333,0,0,0,,0,390,390,62,1,,,
,,,,,,,,,,,,,,,Test1,2020-07-22_14h11.33.015,lexical_decision_task_MP,2020.1.3,Win32,60,,0,,,,,,,,0.5709,-1,,,,,,200,WORD,UN,33,admire,BEACON,l,,,,,,-0.886111111,-0.033333333,0,0,0,,0,391,391,139,1,,,
,,,,,,,,,,,,,,,Test1,2020-07-22_14h11.33.015,lexical_decision_task_MP,2020.1.3,Win32,60,,0,,,,,,,,0.5709,-1,,,,,,147,WORD,ID,50,garlic,GARLIC,l,,,,,,-0.886111111,-0.033333333,0,0,0,,0,392,392,86,1,,,
,,,,,,,,,,,,,,,Test1,2020-07-22_14h11.33.015,lexical_decision_task_MP,2020.1.3,Win32,60,,0,,,,,,,,0.5709,-1,,,,,,141,WORD,ID,50,orphan,ORPHAN,l,,,,,,-0.886111111,-0.033333333,0,0,0,,0,393,393,80,1,,,
,,,,,,,,,,,,,,,Test1,2020-07-22_14h11.33.015,lexical_decision_task_MP,2020.1.3,Win32,60,,0,,,,,,,,0.5709,-1,,,,,,428,NW,UN,33,funtle,TANDLY,a,,,,,,-0.886111111,-0.033333333,0,0,0,,0,394,394,367,1,,,
,,,,,,,,,,,,,,,Test1,2020-07-22_14h11.33.015,lexical_decision_task_MP,2020.1.3,Win32,60,,0,,,,,,,,0.5709,-1,,,,,,457,NW,UN,33,barcet,WANIGH,a,,,,,,-0.886111111,-0.033333333,0,0,0,,0,395,395,396,1,,,
,,,,,,,,,,,,,,,Test1,2020-07-22_14h11.33.015,lexical_decision_task_MP,2020.1.3,Win32,60,,0,,,,,,,,0.5709,-1,,,,,,321,NW,ID,33,miator,MIATOR,a,,,,,,-0.886111111,-0.033333333,0,0,0,,0,396,396,260,1,,,
,,,,,,,,,,,,,,,Test1,2020-07-22_14h11.33.015,lexical_decision_task_MP,2020.1.3,Win32,60,,0,,,,,,,,0.5709,-1,,,,,,354,NW,ID,33,virlex,VIRLEX,a,,,,,,-0.886111111,-0.033333333,0,0,0,,0,397,397,293,1,,,
,,,,,,,,,,,,,,,Test1,2020-07-22_14h11.33.015,lexical_decision_task_MP,2020.1.3,Win32,60,,0,,,,,,,,0.5709,-1,,,,,,412,NW,ID,50,jiluer,JILUER,a,,,,,,-0.886111111,-0.033333333,0,0,0,,0,398,398,351,1,,,
,,,,,,,,,,,,,,,Test1,2020-07-22_14h11.33.015,lexical_decision_task_MP,2020.1.3,Win32,60,,0,,,,,,,,0.5709,-1,,,,,,376,NW,ID,50,iguare,IGUARE,a,,,,,,-0.886111111,-0.033333333,0,0,0,,0,399,399,315,1,,,
,,,,,,,,,,,,,,,Test1,2020-07-22_14h11.33.015,lexical_decision_task_MP,2020.1.3,Win32,60,,0,,,,,,,,0.5709,-1,,,,,,71,WORD,ID,33,garden,GARDEN,l,,,,,,-0.886111111,-0.033333333,0,0,0,,0,400,400,10,1,,,
,,,,,,,,,,,,,,,Test1,2020-07-22_14h11.33.015,lexical_decision_task_MP,2020.1.3,Win32,60,,0,,,,,,,,0.5709,-1,,,,,,253,NW,UN,50,varosh,RESAIT,a,,,,,,-0.886111111,-0.033333333,0,0,0,,0,401,401,432,1,,,
,,,,,,,,,,,,,,,Test1,2020-07-22_14h11.33.015,lexical_decision_task_MP,2020.1.3,Win32,60,,0,,,,,,,,0.5709,-1,,,,,,287,NW,UN,50,yaceup,NYMBEL,a,,,,,,-0.886111111,-0.033333333,0,0,0,,0,402,402,466,1,,,
,,,,,,,,,,,,,,,Test1,2020-07-22_14h11.33.015,lexical_decision_task_MP,2020.1.3,Win32,60,,0,,,,,,,,0.5709,-1,,,,,,306,NW,ID,33,sounge,SOUNGE,a,,,,,,-0.886111111,-0.033333333,0,0,0,,0,403,403,245,1,,,
,,,,,,,,,,,,,,,Test1,2020-07-22_14h11.33.015,lexical_decision_task_MP,2020.1.3,Win32,60,,0,,,,,,,,0.5709,-1,,,,,,305,NW,ID,33,forgle,FORGLE,a,,,,,,-0.886111111,-0.033333333,0,0,0,,0,404,404,244,1,,,
,,,,,,,,,,,,,,,Test1,2020-07-22_14h11.33.015,lexical_decision_task_MP,2020.1.3,Win32,60,,0,,,,,,,,0.5709,-1,,,,,,421,NW,UN,33,alcoud,KNISMA,a,,,,,,-0.886111111,-0.033333333,0,0,0,,0,405,405,360,1,,,
,,,,,,,,,,,,,,,Test1,2020-07-22_14h11.33.015,lexical_decision_task_MP,2020.1.3,Win32,60,,0,,,,,,,,0.5709,-1,,,,,,255,NW,UN,50,inlors,APIGHT,a,,,,,,-0.886111111,-0.033333333,0,0,0,,0,406,406,434,1,,,
,,,,,,,,,,,,,,,Test1,2020-07-22_14h11.33.015,lexical_decision_task_MP,2020.1.3,Win32,60,,0,,,,,,,,0.5709,-1,,,,,,76,WORD,ID,33,exotic,EXOTIC,l,,,,,,-0.886111111,-0.033333333,0,0,0,,0,407,407,15,1,,,
,,,,,,,,,,,,,,,Test1,2020-07-22_14h11.33.015,lexical_decision_task_MP,2020.1.3,Win32,60,,0,,,,,,,,0.5709,-1,,,,,,224,WORD,UN,33,vulgar,PERIOD,l,,,,,,-0.886111111,-0.033333333,0,0,0,,0,408,408,163,1,,,
,,,,,,,,,,,,,,,Test1,2020-07-22_14h11.33.015,lexical_decision_task_MP,2020.1.3,Win32,60,,0,,,,,,,,0.5709,-1,,,,,,295,NW,UN,50,beinch,GLEATH,a,,,,,,-0.886111111,-0.033333333,0,0,0,,0,409,409,474,1,,,
,,,,,,,,,,,,,,,Test1,2020-07-22_14h11.33.015,lexical_decision_task_MP,2020.1.3,Win32,60,,0,,,,,,,,0.5709,-1,,,,,,1,WORD,UN,50,ethnic,FRIGHT,l,,,,,,-0.886111111,-0.033333333,0,0,0,,0,410,410,180,1,,,
,,,,,,,,,,,,,,,Test1,2020-07-22_14h11.33.015,lexical_decision_task_MP,2020.1.3,Win32,60,,0,,,,,,,,0.5709,-1,,,,,,313,NW,ID,33,paurse,PAURSE,a,,,,,,-0.886111111,-0.033333333,0,0,0,,0,411,411,252,1,,,
,,,,,,,,,,,,,,,Test1,2020-07-22_14h11.33.015,lexical_decision_task_MP,2020.1.3,Win32,60,,0,,,,,,,,0.5709,-1,,,,,,69,WORD,ID,33,plenty,PLENTY,l,,,,,,-0.886111111,-0.033333333,0,0,0,,0,412,412,8,1,,,
,,,,,,,,,,,,,,,Test1,2020-07-22_14h11.33.015,lexical_decision_task_MP,2020.1.3,Win32,60,,0,,,,,,,,0.5709,-1,,,,,,298,NW,UN,50,sturch,PIERGY,a,,,,,,-0.886111111,-0.033333333,0,0,0,,0,413,413,477,1,,,
,,,,,,,,,,,,,,,Test1,2020-07-22_14h11.33.015,lexical_decision_task_MP,2020.1.3,Win32,60,,0,,,,,,,,0.5709,-1,,,,,,228,WORD,UN,33,kidney,MASTER,l,,,,,,-0.886111111,-0.033333333,0,0,0,,0,414,414,167,1,,,
,,,,,,,,,,,,,,,Test1,2020-07-22_14h11.33.015,lexical_decision_task_MP,2020.1.3,Win32,60,,0,,,,,,,,0.5709,-1,,,,,,217,WORD,UN,33,shrink,LIQUOR,l,,,,,,-0.886111111,-0.033333333,0,0,0,,0,415,415,156,1,,,
,,,,,,,,,,,,,,,Test1,2020-07-22_14h11.33.015,lexical_decision_task_MP,2020.1.3,Win32,60,,0,,,,,,,,0.5709,-1,,,,,,291,NW,UN,50,ablint,PRETCH,a,,,,,,-0.886111111,-0.033333333,0,0,0,,0,416,416,470,1,,,
,,,,,,,,,,,,,,,Test1,2020-07-22_14h11.33.015,lexical_decision_task_MP,2020.1.3,Win32,60,,0,,,,,,,,0.5709,-1,,,,,,426,NW,UN,33,schind,URIVEL,a,,,,,,-0.886111111,-0.033333333,0,0,0,,0,417,417,365,1,,,
,,,,,,,,,,,,,,,Test1,2020-07-22_14h11.33.015,lexical_decision_task_MP,2020.1.3,Win32,60,,0,,,,,,,,0.5709,-1,,,,,,91,WORD,ID,33,expand,EXPAND,l,,,,,,-0.886111111,-0.033333333,0,0,0,,0,418,418,30,1,,,
,,,,,,,,,,,,,,,Test1,2020-07-22_14h11.33.015,lexical_decision_task_MP,2020.1.3,Win32,60,,0,,,,,,,,0.5709,-1,,,,,,230,WORD,UN,33,mother,FRINGE,l,,,,,,-0.886111111,-0.033333333,0,0,0,,0,419,419,169,1,,,
,,,,,,,,,,,,,,,Test1,2020-07-22_14h11.33.015,lexical_decision_task_MP,2020.1.3,Win32,60,,0,,,,,,,,0.5709,-1,,,,,,216,WORD,UN,33,liquor,BEHALF,l,,,,,,-0.886111111,-0.033333333,0,0,0,,0,420,420,155,1,,,
,,,,,,,,,,,,,,,Test1,2020-07-22_14h11.33.015,lexical_decision_task_MP,2020.1.3,Win32,60,,0,,,,,,,,0.5709,-1,,,,,,16,WORD,UN,50,charge,FAUCET,l,,,,,,-0.886111111,-0.033333333,0,0,0,,0,421,421,195,1,,,
,,,,,,,,,,,,,,,Test1,2020-07-22_14h11.33.015,lexical_decision_task_MP,2020.1.3,Win32,60,,0,,,,,,,,0.5709,-1,,,,,,67,WORD,ID,33,policy,POLICY,l,,,,,,-0.886111111,-0.033333333,0,0,0,,0,422,422,6,1,,,
,,,,,,,,,,,,,,,Test1,2020-07-22_14h11.33.015,lexical_decision_task_MP,2020.1.3,Win32,60,,0,,,,,,,,0.5709,-1,,,,,,314,NW,ID,33,sprine,SPRINE,a,,,,,,-0.886111111,-0.033333333,0,0,0,,0,423,423,253,1,,,
,,,,,,,,,,,,,,,Test1,2020-07-22_14h11.33.015,lexical_decision_task_MP,2020.1.3,Win32,60,,0,,,,,,,,0.5709,-1,,,,,,319,NW,ID,33,zomber,ZOMBER,a,,,,,,-0.886111111,-0.033333333,0,0,0,,0,424,424,258,1,,,
,,,,,,,,,,,,,,,Test1,2020-07-22_14h11.33.015,lexical_decision_task_MP,2020.1.3,Win32,60,,0,,,,,,,,0.5709,-1,,,,,,322,NW,ID,33,slanch,SLANCH,a,,,,,,-0.886111111,-0.033333333,0,0,0,,0,425,425,261,1,,,
,,,,,,,,,,,,,,,Test1,2020-07-22_14h11.33.015,lexical_decision_task_MP,2020.1.3,Win32,60,,0,,,,,,,,0.5709,-1,,,,,,116,WORD,ID,33,tumble,TUMBLE,l,,,,,,-0.886111111,-0.033333333,0,0,0,,0,426,426,55,1,,,
,,,,,,,,,,,,,,,Test1,2020-07-22_14h11.33.015,lexical_decision_task_MP,2020.1.3,Win32,60,,0,,,,,,,,0.5709,-1,,,,,,212,WORD,UN,33,squeal,VERIFY,l,,,,,,-0.886111111,-0.033333333,0,0,0,,0,427,427,151,1,,,
,,,,,,,,,,,,,,,Test1,2020-07-22_14h11.33.015,lexical_decision_task_MP,2020.1.3,Win32,60,,0,,,,,,,,0.5709,-1,,,,,,301,NW,ID,33,fainch,FAINCH,a,,,,,,-0.886111111,-0.033333333,0,0,0,,0,428,428,240,1,,,
,,,,,,,,,,,,,,,Test1,2020-07-22_14h11.33.015,lexical_decision_task_MP,2020.1.3,Win32,60,,0,,,,,,,,0.5709,-1,,,,,,70,WORD,ID,33,square,SQUARE,l,,,,,,-0.886111111,-0.033333333,0,0,0,,0,429,429,9,1,,,
,,,,,,,,,,,,,,,Test1,2020-07-22_14h11.33.015,lexical_decision_task_MP,2020.1.3,Win32,60,,0,,,,,,,,0.5709,-1,,,,,,365,NW,ID,50,guairt,GUAIRT,a,,,,,,-0.886111111,-0.033333333,0,0,0,,0,430,430,304,1,,,
,,,,,,,,,,,,,,,Test1,2020-07-22_14h11.33.015,lexical_decision_task_MP,2020.1.3,Win32,60,,0,,,,,,,,0.5709,-1,,,,,,367,NW,ID,50,slique,SLIQUE,a,,,,,,-0.886111111,-0.033333333,0,0,0,,0,431,431,306,1,,,
,,,,,,,,,,,,,,,Test1,2020-07-22_14h11.33.015,lexical_decision_task_MP,2020.1.3,Win32,60,,0,,,,,,,,0.5709,-1,,,,,,452,NW,UN,33,bolvis,SURDEN,a,,,,,,-0.886111111,-0.033333333,0,0,0,,0,432,432,391,1,,,
,,,,,,,,,,,,,,,Test1,2020-07-22_14h11.33.015,lexical_decision_task_MP,2020.1.3,Win32,60,,0,,,,,,,,0.5709,-1,,,,,,273,NW,UN,50,fumblo,SORTEL,a,,,,,,-0.886111111,-0.033333333,0,0,0,,0,433,433,452,1,,,
,,,,,,,,,,,,,,,Test1,2020-07-22_14h11.33.015,lexical_decision_task_MP,2020.1.3,Win32,60,,0,,,,,,,,0.5709,-1,,,,,,118,WORD,ID,33,flight,FLIGHT,l,,,,,,-0.886111111,-0.033333333,0,0,0,,0,434,434,57,1,,,
,,,,,,,,,,,,,,,Test1,2020-07-22_14h11.33.015,lexical_decision_task_MP,2020.1.3,Win32,60,,0,,,,,,,,0.5709,-1,,,,,,283,NW,UN,50,shaple,VERALF,a,,,,,,-0.886111111,-0.033333333,0,0,0,,0,435,435,462,1,,,
,,,,,,,,,,,,,,,Test1,2020-07-22_14h11.33.015,lexical_decision_task_MP,2020.1.3,Win32,60,,0,,,,,,,,0.5709,-1,,,,,,23,WORD,UN,50,praise,WEALTH,l,,,,,,-0.886111111,-0.033333333,0,0,0,,0,436,436,202,1,,,
,,,,,,,,,,,,,,,Test1,2020-07-22_14h11.33.015,lexical_decision_task_MP,2020.1.3,Win32,60,,0,,,,,,,,0.5709,-1,,,,,,177,WORD,ID,50,advent,ADVENT,l,,,,,,-0.886111111,-0.033333333,0,0,0,,0,437,437,116,1,,,
,,,,,,,,,,,,,,,Test1,2020-07-22_14h11.33.015,lexical_decision_task_MP,2020.1.3,Win32,60,,0,,,,,,,,0.5709,-1,,,,,,368,NW,ID,50,hornal,HORNAL,a,,,,,,-0.886111111,-0.033333333,0,0,0,,0,438,438,307,1,,,
,,,,,,,,,,,,,,,Test1,2020-07-22_14h11.33.015,lexical_decision_task_MP,2020.1.3,Win32,60,,0,,,,,,,,0.5709,-1,,,,,,374,NW,ID,50,sliant,SLIANT,a,,,,,,-0.886111111,-0.033333333,0,0,0,,0,439,439,313,1,,,
,,,,,,,,,,,,,,,Test1,2020-07-22_14h11.33.015,lexical_decision_task_MP,2020.1.3,Win32,60,,0,,,,,,,,0.5709,-1,,,,,,243,NW,UN,50,eatric,MUSIED,a,,,,,,-0.886111111,-0.033333333,0,0,0,,0,440,440,422,1,,,
,,,,,,,,,,,,,,,Test1,2020-07-22_14h11.33.015,lexical_decision_task_MP,2020.1.3,Win32,60,,0,,,,,,,,0.5709,-1,,,,,,14,WORD,UN,50,orange,ALMOST,l,,,,,,-0.886111111,-0.033333333,0,0,0,,0,441,441,193,1,,,
,,,,,,,,,,,,,,,Test1,2020-07-22_14h11.33.015,lexical_decision_task_MP,2020.1.3,Win32,60,,0,,,,,,,,0.5709,-1,,,,,,100,WORD,ID,33,carbon,CARBON,l,,,,,,-0.886111111,-0.033333333,0,0,0,,0,442,442,39,1,,,
,,,,,,,,,,,,,,,Test1,2020-07-22_14h11.33.015,lexical_decision_task_MP,2020.1.3,Win32,60,,0,,,,,,,,0.5709,-1,,,,,,458,NW,UN,33,hocite,BARCET,a,,,,,,-0.886111111,-0.033333333,0,0,0,,0,443,443,397,1,,,
,,,,,,,,,,,,,,,Test1,2020-07-22_14h11.33.015,lexical_decision_task_MP,2020.1.3,Win32,60,,0,,,,,,,,0.5709,-1,,,,,,318,NW,ID,33,reagly,REAGLY,a,,,,,,-0.886111111,-0.033333333,0,0,0,,0,444,444,257,1,,,
,,,,,,,,,,,,,,,Test1,2020-07-22_14h11.33.015,lexical_decision_task_MP,2020.1.3,Win32,60,,0,,,,,,,,0.5709,-1,,,,,,456,NW,UN,33,wanigh,BROGET,a,,,,,,-0.886111111,-0.033333333,0,0,0,,0,445,445,395,1,,,
,,,,,,,,,,,,,,,Test1,2020-07-22_14h11.33.015,lexical_decision_task_MP,2020.1.3,Win32,60,,0,,,,,,,,0.5709,-1,,,,,,433,NW,UN,33,pitrom,DRANCE,a,,,,,,-0.886111111,-0.033333333,0,0,0,,0,446,446,372,1,,,
,,,,,,,,,,,,,,,Test1,2020-07-22_14h11.33.015,lexical_decision_task_MP,2020.1.3,Win32,60,,0,,,,,,,,0.5709,-1,,,,,,343,NW,ID,33,aimosy,AIMOSY,a,,,,,,-0.886111111,-0.033333333,0,0,0,,0,447,447,282,1,,,
,,,,,,,,,,,,,,,Test1,2020-07-22_14h11.33.015,lexical_decision_task_MP,2020.1.3,Win32,60,,0,,,,,,,,0.5709,-1,,,,,,135,WORD,ID,50,import,IMPORT,l,,,,,,-0.886111111,-0.033333333,0,0,0,,0,448,448,74,1,,,
,,,,,,,,,,,,,,,Test1,2020-07-22_14h11.33.015,lexical_decision_task_MP,2020.1.3,Win32,60,,0,,,,,,,,0.5709,-1,,,,,,178,WORD,ID,50,inform,INFORM,l,,,,,,-0.886111111,-0.033333333,0,0,0,,0,449,449,117,1,,,
,,,,,,,,,,,,,,,Test1,2020-07-22_14h11.33.015,lexical_decision_task_MP,2020.1.3,Win32,60,,0,,,,,,,,0.5709,-1,,,,,,467,NW,UN,33,wictor,GORBIE,a,,,,,,-0.886111111,-0.033333333,0,0,0,,0,450,450,406,1,,,
,,,,,,,,,,,,,,,Test1,2020-07-22_14h11.33.015,lexical_decision_task_MP,2020.1.3,Win32,60,,0,,,,,,,,0.5709,-1,,,,,,269,NW,UN,50,wrimsy,ORCHET,a,,,,,,-0.886111111,-0.033333333,0,0,0,,0,451,451,448,1,,,
,,,,,,,,,,,,,,,Test1,2020-07-22_14h11.33.015,lexical_decision_task_MP,2020.1.3,Win32,60,,0,,,,,,,,0.5709,-1,,,,,,126,WORD,ID,50,enough,ENOUGH,l,,,,,,-0.886111111,-0.033333333,0,0,0,,0,452,452,65,1,,,
,,,,,,,,,,,,,,,Test1,2020-07-22_14h11.33.015,lexical_decision_task_MP,2020.1.3,Win32,60,,0,,,,,,,,0.5709,-1,,,,,,34,WORD,UN,50,socket,JUNGLE,l,,,,,,-0.886111111,-0.033333333,0,0,0,,0,453,453,213,1,,,
,,,,,,,,,,,,,,,Test1,2020-07-22_14h11.33.015,lexical_decision_task_MP,2020.1.3,Win32,60,,0,,,,,,,,0.5709,-1,,,,,,278,NW,UN,50,celond,UNIGHS,a,,,,,,-0.886111111,-0.033333333,0,0,0,,0,454,454,457,1,,,
,,,,,,,,,,,,,,,Test1,2020-07-22_14h11.33.015,lexical_decision_task_MP,2020.1.3,Win32,60,,0,,,,,,,,0.5709,-1,,,,,,109,WORD,ID,33,wonder,WONDER,l,,,,,,-0.886111111,-0.033333333,0,0,0,,0,455,455,48,1,,,
,,,,,,,,,,,,,,,Test1,2020-07-22_14h11.33.015,lexical_decision_task_MP,2020.1.3,Win32,60,,0,,,,,,,,0.5709,-1,,,,,,90,WORD,ID,33,relish,RELISH,l,,,,,,-0.886111111,-0.033333333,0,0,0,,0,456,456,29,1,,,
,,,,,,,,,,,,,,,Test1,2020-07-22_14h11.33.015,lexical_decision_task_MP,2020.1.3,Win32,60,,0,,,,,,,,0.5709,-1,,,,,,361,NW,ID,50,pauche,PAUCHE,a,,,,,,-0.886111111,-0.033333333,0,0,0,,0,457,457,300,1,,,
,,,,,,,,,,,,,,,Test1,2020-07-22_14h11.33.015,lexical_decision_task_MP,2020.1.3,Win32,60,,0,,,,,,,,0.5709,-1,,,,,,258,NW,UN,50,soudal,POLUTH,a,,,,,,-0.130555556,-0.114814815,0,0,0,,0,458,458,437,1,,,
,,,,,,,,,,,,,,,Test1,2020-07-22_14h11.33.015,lexical_decision_task_MP,2020.1.3,Win32,60,,0,,,,,,,,0.5709,-1,,,,,,198,WORD,UN,33,invoke,WICKED,l,,,,,,-0.864814815,-0.190740741,0,0,0,,0,459,459,137,1,,,
,,,,,,,,,,,,,,,Test1,2020-07-22_14h11.33.015,lexical_decision_task_MP,2020.1.3,Win32,60,,0,,,,,,,,0.5709,-1,,,,,,5,WORD,UN,50,bundle,PLUNGE,l,,,,,,-0.874074074,0.375,0,0,0,,0,460,460,184,1,,,
,,,,,,,,,,,,,,,Test1,2020-07-22_14h11.33.015,lexical_decision_task_MP,2020.1.3,Win32,60,,0,,,,,,,,0.5709,-1,,,,,,218,WORD,UN,33,bucket,SHRINK,l,,,,,,-0.874074074,0.375,0,0,0,,0,461,461,157,1,,,
,,,,,,,,,,,,,,,Test1,2020-07-22_14h11.33.015,lexical_decision_task_MP,2020.1.3,Win32,60,,0,,,,,,,,0.5709,-1,,,,,,464,NW,UN,33,whivex,CHAITE,a,,,,,,-0.874074074,0.375,0,0,0,,0,462,462,403,1,,,
