counterbalancing_condition,instr_done_keyboard.keys,instr_done_keyboard.rt,instr_done_touch.x,instr_done_touch.y,instr_done_touch.leftButton,instr_done_touch.midButton,instr_done_touch.rightButton,instruction_pages.thisRepN,instruction_pages.thisTrialN,instruction_pages.thisN,instruction_pages.thisIndex,instruction_pages.ran,pageN,phase,instruct_text,has_image,instruct_image,participant,date,expName,psychopyVersion,OS,frameRate,response.keys,response.corr,response.rt,touch_resp.x,touch_resp.y,touch_resp.leftButton,touch_resp.midButton,touch_resp.rightButton,touch_resp.time,touch_resp.clicked_name,rt,corr,practice_trials.thisRepN,practice_trials.thisTrialN,practice_trials.thisN,practice_trials.thisIndex,practice_trials.ran,TrialID,StimulusType,Condition,PrimeDuration,Prime,Target,corrAns,end_of_practice_trials_pages.thisRepN,end_of_practice_trials_pages.thisTrialN,end_of_practice_trials_pages.thisN,end_of_practice_trials_pages.thisIndex,end_of_practice_trials_pages.ran,break_done_touch.x,break_done_touch.y,break_done_touch.leftButton,break_done_touch.midButton,break_done_touch.rightButton,break_done_keyboard.keys,trials.thisRepN,trials.thisTrialN,trials.thisN,trials.thisIndex,trials.ran,break_done_keyboard.rt
3,space,10.264435,0.123148148,-0.167592593,0,0,0,0,0,0,0,1,1,instructions,"INSTRUCTIONS
At the start of each trial, look at the hash marks (######) in the center of the screen. After a moment, a string of letters will appear. Your task is to indicate if the letter string forms a word or not (i.e., if it is a nonword). For example, AUTHOR is a word while AUTHON is a nonword.

Press the space bar or touch the button below to continue.",0,,5755c957eb80c4000741a9ce,2020-08-10_17h48.30.479,lexical_decision_task_MP,2020.1.3,Win32,60,,,,,,,,,,,,,,,,,,,,,,,,,,,,,,,,,,,,,,,,,
,space,15.345965,0.123148148,-0.167592593,0,0,0,0,1,1,1,1,2,instructions,"If your device has a keyboard, press the 'Z' key for nonwords and the 'M' key for words.





Press the space bar or touch the button below to continue.",1,keyboard-example.gif,5755c957eb80c4000741a9ce,2020-08-10_17h48.30.479,lexical_decision_task_MP,2020.1.3,Win32,60,,,,,,,,,,,,,,,,,,,,,,,,,,,,,,,,,,,,,,,,,
,space,4.394995,0.123148148,-0.167592593,0,0,0,0,2,2,2,1,3,instructions,"If you are using a touchscreen only device, use the buttons on the screen. Do not use the mouse.





Press the space bar or touch the button below to continue.",1,touchscreen-example.gif,5755c957eb80c4000741a9ce,2020-08-10_17h48.30.479,lexical_decision_task_MP,2020.1.3,Win32,60,,,,,,,,,,,,,,,,,,,,,,,,,,,,,,,,,,,,,,,,,
,space,11.412815,0.123148148,-0.167592593,0,0,0,0,3,3,3,1,4,instructions,"It is very important that you respond as quickly and accurately as possible, as each letter string will only be on the screen for two seconds. If you do not respond within this time, the message 'Too slow!' will be displayed and the experiment will progress to the next letter string. The first 20 trials will be practice trials and you will receive feedback on your answers. 

Press the space bar or touch the button below to start the practice trials.",0,,5755c957eb80c4000741a9ce,2020-08-10_17h48.30.479,lexical_decision_task_MP,2020.1.3,Win32,60,,,,,,,,,,,,,,,,,,,,,,,,,,,,,,,,,,,,,,,,,
,,,,,,,,,,,,,,,,,,5755c957eb80c4000741a9ce,2020-08-10_17h48.30.479,lexical_decision_task_MP,2020.1.3,Win32,60,z,1,1.165355,,,,,,,,1.165355,1,0,0,0,15,1,1016,NW,UN,50,mushed,WHAISE,z,,,,,,,,,,,,,,,,,
,,,,,,,,,,,,,,,,,,5755c957eb80c4000741a9ce,2020-08-10_17h48.30.479,lexical_decision_task_MP,2020.1.3,Win32,60,m,1,0.559025,,,,,,,,0.559025,1,0,1,1,3,1,1004,WORD,"ID",50,matrix,MATRIX,m,,,,,,,,,,,,,,,,,
,,,,,,,,,,,,,,,,,,5755c957eb80c4000741a9ce,2020-08-10_17h48.30.479,lexical_decision_task_MP,2020.1.3,Win32,60,m,1,0.54316,,,,,,,,0.54316,1,0,2,2,1,1,1002,WORD,"ID",33,adjust,ADJUST,m,,,,,,,,,,,,,,,,,
,,,,,,,,,,,,,,,,,,5755c957eb80c4000741a9ce,2020-08-10_17h48.30.479,lexical_decision_task_MP,2020.1.3,Win32,60,z,1,0.622775,,,,,,,,0.622775,1,0,3,3,14,1,1015,NW,UN,50,miaber,THRALE,z,,,,,,,,,,,,,,,,,
,,,,,,,,,,,,,,,,,,5755c957eb80c4000741a9ce,2020-08-10_17h48.30.479,lexical_decision_task_MP,2020.1.3,Win32,60,z,1,0.79469,,,,,,,,0.79469,1,0,4,4,10,1,1011,NW,"ID",50,inlade,INLADE,z,,,,,,,,,,,,,,,,,
,,,,,,,,,,,,,,,,,,5755c957eb80c4000741a9ce,2020-08-10_17h48.30.479,lexical_decision_task_MP,2020.1.3,Win32,60,m,1,0.619065,,,,,,,,0.619065,1,0,5,5,5,1,1006,WORD,UN,33,frenzy,OBTAIN,m,,,,,,,,,,,,,,,,,
,,,,,,,,,,,,,,,,,,5755c957eb80c4000741a9ce,2020-08-10_17h48.30.479,lexical_decision_task_MP,2020.1.3,Win32,60,m,1,0.540815,,,,,,,,0.540815,1,0,6,6,4,1,1005,WORD,UN,33,abound,SQUEAK,m,,,,,,,,,,,,,,,,,
,,,,,,,,,,,,,,,,,,5755c957eb80c4000741a9ce,2020-08-10_17h48.30.479,lexical_decision_task_MP,2020.1.3,Win32,60,m,1,0.55894,,,,,,,,0.55894,1,0,7,7,0,1,1001,WORD,"ID",33,utopia,UTOPIA,m,,,,,,,,,,,,,,,,,
,,,,,,,,,,,,,,,,,,5755c957eb80c4000741a9ce,2020-08-10_17h48.30.479,lexical_decision_task_MP,2020.1.3,Win32,60,m,0,0.692885,,,,,,,,0.692885,0,0,8,8,12,1,1013,NW,UN,33,adveil,SPRINY,z,,,,,,,,,,,,,,,,,
,,,,,,,,,,,,,,,,,,5755c957eb80c4000741a9ce,2020-08-10_17h48.30.479,lexical_decision_task_MP,2020.1.3,Win32,60,z,1,0.838575,,,,,,,,0.838575,1,0,9,9,13,1,1014,NW,UN,33,winfer,ROUPET,z,,,,,,,,,,,,,,,,,
,,,,,,,,,,,,,,,,,,5755c957eb80c4000741a9ce,2020-08-10_17h48.30.479,lexical_decision_task_MP,2020.1.3,Win32,60,z,1,0.61955,,,,,,,,0.61955,1,0,10,10,9,1,1010,NW,"ID",33,fariny,FARINY,z,,,,,,,,,,,,,,,,,
,,,,,,,,,,,,,,,,,,5755c957eb80c4000741a9ce,2020-08-10_17h48.30.479,lexical_decision_task_MP,2020.1.3,Win32,60,m,1,0.73502,,,,,,,,0.73502,1,0,11,11,7,1,1008,WORD,UN,50,hurdle,VOLUME,m,,,,,,,,,,,,,,,,,
,,,,,,,,,,,,,,,,,,5755c957eb80c4000741a9ce,2020-08-10_17h48.30.479,lexical_decision_task_MP,2020.1.3,Win32,60,z,1,1.234115,,,,,,,,1.234115,1,0,12,12,11,1,1012,NW,"ID",50,rashet,RASHET,z,,,,,,,,,,,,,,,,,
,,,,,,,,,,,,,,,,,,5755c957eb80c4000741a9ce,2020-08-10_17h48.30.479,lexical_decision_task_MP,2020.1.3,Win32,60,m,1,0.586105,,,,,,,,0.586105,1,0,13,13,6,1,1007,WORD,UN,50,tropic,ZOMBIE,m,,,,,,,,,,,,,,,,,
,,,,,,,,,,,,,,,,,,5755c957eb80c4000741a9ce,2020-08-10_17h48.30.479,lexical_decision_task_MP,2020.1.3,Win32,60,m,1,0.545165,,,,,,,,0.545165,1,0,14,14,2,1,1003,WORD,"ID",50,almond,ALMOND,m,,,,,,,,,,,,,,,,,
,,,,,,,,,,,,,,,,,,5755c957eb80c4000741a9ce,2020-08-10_17h48.30.479,lexical_decision_task_MP,2020.1.3,Win32,60,z,1,0.649585,,,,,,,,0.649585,1,0,15,15,8,1,1009,NW,"ID",33,aslert,ASLERT,z,,,,,,,,,,,,,,,,,
,space,20.092135,0.283333333,-0.482407407,0,0,0,,,,,,1,end_of_practice,"You have completed the practice trials. During the experimental trials, you will not receive feedback, but it is very important that you respond as quickly and accurately as possible. 
Before you begin, please ensure that you are in a comfortable and quiet location and will not be disturbed for about 15 minutes, as we cannot use your data if you do not complete all the trials. 
There will be opportunities to take breaks at regular intervals during the experiment. When you are ready to start the experimental trials, please press space or touch the button below.",,,5755c957eb80c4000741a9ce,2020-08-10_17h48.30.479,lexical_decision_task_MP,2020.1.3,Win32,60,,,,,,,,,,,,,,,,,,,,,,,,,0,0,0,0,1,,,,,,,,,,,,
,,,,,,,,,,,,,,,,,,5755c957eb80c4000741a9ce,2020-08-10_17h48.30.479,lexical_decision_task_MP,2020.1.3,Win32,60,m,1,0.46694,,,,,,,,0.46694,1,,,,,,229,WORD,UN,33,fringe,MOTHER,m,,,,,,0.283333333,-0.482407407,0,0,0,,0,0,0,168,1,
,,,,,,,,,,,,,,,,,,5755c957eb80c4000741a9ce,2020-08-10_17h48.30.479,lexical_decision_task_MP,2020.1.3,Win32,60,z,1,0.575925,,,,,,,,0.575925,1,,,,,,400,NW,"ID",50,wearox,WEAROX,z,,,,,,0.283333333,-0.482407407,0,0,0,,0,1,1,339,1,
,,,,,,,,,,,,,,,,,,5755c957eb80c4000741a9ce,2020-08-10_17h48.30.479,lexical_decision_task_MP,2020.1.3,Win32,60,m,1,0.46616,,,,,,,,0.46616,1,,,,,,103,WORD,"ID",33,bounce,BOUNCE,m,,,,,,0.283333333,-0.482407407,0,0,0,,0,2,2,42,1,
,,,,,,,,,,,,,,,,,,5755c957eb80c4000741a9ce,2020-08-10_17h48.30.479,lexical_decision_task_MP,2020.1.3,Win32,60,z,1,0.53571,,,,,,,,0.53571,1,,,,,,324,NW,"ID",33,steikh,STEIKH,z,,,,,,0.283333333,-0.482407407,0,0,0,,0,3,3,263,1,
,,,,,,,,,,,,,,,,,,5755c957eb80c4000741a9ce,2020-08-10_17h48.30.479,lexical_decision_task_MP,2020.1.3,Win32,60,m,1,0.61067,,,,,,,,0.61067,1,,,,,,183,WORD,UN,33,sleazy,MILDEW,m,,,,,,0.283333333,-0.482407407,0,0,0,,0,4,4,122,1,
,,,,,,,,,,,,,,,,,,5755c957eb80c4000741a9ce,2020-08-10_17h48.30.479,lexical_decision_task_MP,2020.1.3,Win32,60,m,1,0.514085,,,,,,,,0.514085,1,,,,,,66,WORD,"ID",33,gospel,GOSPEL,m,,,,,,0.283333333,-0.482407407,0,0,0,,0,5,5,5,1,
,,,,,,,,,,,,,,,,,,5755c957eb80c4000741a9ce,2020-08-10_17h48.30.479,lexical_decision_task_MP,2020.1.3,Win32,60,m,1,0.4027,,,,,,,,0.4027,1,,,,,,93,WORD,"ID",33,public,PUBLIC,m,,,,,,0.283333333,-0.482407407,0,0,0,,0,6,6,32,1,
,,,,,,,,,,,,,,,,,,5755c957eb80c4000741a9ce,2020-08-10_17h48.30.479,lexical_decision_task_MP,2020.1.3,Win32,60,m,1,0.587895,,,,,,,,0.587895,1,,,,,,60,WORD,UN,50,fright,PENCIL,m,,,,,,0.283333333,-0.482407407,0,0,0,,0,7,7,239,1,
,,,,,,,,,,,,,,,,,,5755c957eb80c4000741a9ce,2020-08-10_17h48.30.479,lexical_decision_task_MP,2020.1.3,Win32,60,m,1,0.493245,,,,,,,,0.493245,1,,,,,,169,WORD,"ID",50,genius,GENIUS,m,,,,,,0.283333333,-0.482407407,0,0,0,,0,8,8,108,1,
,,,,,,,,,,,,,,,,,,5755c957eb80c4000741a9ce,2020-08-10_17h48.30.479,lexical_decision_task_MP,2020.1.3,Win32,60,m,1,0.555205,,,,,,,,0.555205,1,,,,,,55,WORD,UN,50,ambush,STROKE,m,,,,,,0.283333333,-0.482407407,0,0,0,,0,9,9,234,1,
,,,,,,,,,,,,,,,,,,5755c957eb80c4000741a9ce,2020-08-10_17h48.30.479,lexical_decision_task_MP,2020.1.3,Win32,60,m,0,0.461805,,,,,,,,0.461805,0,,,,,,380,NW,"ID",50,cavory,CAVORY,z,,,,,,0.283333333,-0.482407407,0,0,0,,0,10,10,319,1,
,,,,,,,,,,,,,,,,,,5755c957eb80c4000741a9ce,2020-08-10_17h48.30.479,lexical_decision_task_MP,2020.1.3,Win32,60,z,1,0.675495,,,,,,,,0.675495,1,,,,,,326,NW,"ID",33,iguade,IGUADE,z,,,,,,0.283333333,-0.482407407,0,0,0,,0,11,11,265,1,
,,,,,,,,,,,,,,,,,,5755c957eb80c4000741a9ce,2020-08-10_17h48.30.479,lexical_decision_task_MP,2020.1.3,Win32,60,m,1,0.5616,,,,,,,,0.5616,1,,,,,,24,WORD,UN,50,domain,PRAISE,m,,,,,,0.283333333,-0.482407407,0,0,0,,0,12,12,203,1,
,,,,,,,,,,,,,,,,,,5755c957eb80c4000741a9ce,2020-08-10_17h48.30.479,lexical_decision_task_MP,2020.1.3,Win32,60,z,1,0.73242,,,,,,,,0.73242,1,,,,,,313,NW,"ID",33,paurse,PAURSE,z,,,,,,0.283333333,-0.482407407,0,0,0,,0,13,13,252,1,
,,,,,,,,,,,,,,,,,,5755c957eb80c4000741a9ce,2020-08-10_17h48.30.479,lexical_decision_task_MP,2020.1.3,Win32,60,z,1,0.73628,,,,,,,,0.73628,1,,,,,,354,NW,"ID",33,virlex,VIRLEX,z,,,,,,0.283333333,-0.482407407,0,0,0,,0,14,14,293,1,
,,,,,,,,,,,,,,,,,,5755c957eb80c4000741a9ce,2020-08-10_17h48.30.479,lexical_decision_task_MP,2020.1.3,Win32,60,m,1,0.54081,,,,,,,,0.54081,1,,,,,,141,WORD,"ID",50,orphan,ORPHAN,m,,,,,,0.283333333,-0.482407407,0,0,0,,0,15,15,80,1,
,,,,,,,,,,,,,,,,,,5755c957eb80c4000741a9ce,2020-08-10_17h48.30.479,lexical_decision_task_MP,2020.1.3,Win32,60,z,1,0.67834,,,,,,,,0.67834,1,,,,,,423,NW,UN,33,praile,STRELD,z,,,,,,0.283333333,-0.482407407,0,0,0,,0,16,16,362,1,
,,,,,,,,,,,,,,,,,,5755c957eb80c4000741a9ce,2020-08-10_17h48.30.479,lexical_decision_task_MP,2020.1.3,Win32,60,z,1,0.70929,,,,,,,,0.70929,1,,,,,,417,NW,"ID",50,earoud,EAROUD,z,,,,,,0.283333333,-0.482407407,0,0,0,,0,17,17,356,1,
,,,,,,,,,,,,,,,,,,5755c957eb80c4000741a9ce,2020-08-10_17h48.30.479,lexical_decision_task_MP,2020.1.3,Win32,60,z,1,0.86721,,,,,,,,0.86721,1,,,,,,260,NW,UN,50,stunch,UNJECT,z,,,,,,0.283333333,-0.482407407,0,0,0,,0,18,18,439,1,
,,,,,,,,,,,,,,,,,,5755c957eb80c4000741a9ce,2020-08-10_17h48.30.479,lexical_decision_task_MP,2020.1.3,Win32,60,z,1,0.59577,,,,,,,,0.59577,1,,,,,,453,NW,UN,33,scouge,BOLVIS,z,,,,,,0.283333333,-0.482407407,0,0,0,,0,19,19,392,1,
,,,,,,,,,,,,,,,,,,5755c957eb80c4000741a9ce,2020-08-10_17h48.30.479,lexical_decision_task_MP,2020.1.3,Win32,60,z,1,0.594525,,,,,,,,0.594525,1,,,,,,262,NW,UN,50,dolica,QUILEW,z,,,,,,0.283333333,-0.482407407,0,0,0,,0,20,20,441,1,
,,,,,,,,,,,,,,,,,,5755c957eb80c4000741a9ce,2020-08-10_17h48.30.479,lexical_decision_task_MP,2020.1.3,Win32,60,z,1,0.62898,,,,,,,,0.62898,1,,,,,,478,NW,UN,33,pebric,ACRISE,z,,,,,,0.283333333,-0.482407407,0,0,0,,0,21,21,417,1,
,,,,,,,,,,,,,,,,,,5755c957eb80c4000741a9ce,2020-08-10_17h48.30.479,lexical_decision_task_MP,2020.1.3,Win32,60,m,1,0.637005,,,,,,,,0.637005,1,,,,,,180,WORD,"ID",50,silent,SILENT,m,,,,,,0.283333333,-0.482407407,0,0,0,,0,22,22,119,1,
,,,,,,,,,,,,,,,,,,5755c957eb80c4000741a9ce,2020-08-10_17h48.30.479,lexical_decision_task_MP,2020.1.3,Win32,60,m,1,0.539845,,,,,,,,0.539845,1,,,,,,130,WORD,"ID",50,stupid,STUPID,m,,,,,,0.283333333,-0.482407407,0,0,0,,0,23,23,69,1,
,,,,,,,,,,,,,,,,,,5755c957eb80c4000741a9ce,2020-08-10_17h48.30.479,lexical_decision_task_MP,2020.1.3,Win32,60,z,1,0.606605,,,,,,,,0.606605,1,,,,,,466,NW,UN,33,robuly,HOCITE,z,,,,,,0.283333333,-0.482407407,0,0,0,,0,24,24,405,1,
,,,,,,,,,,,,,,,,,,5755c957eb80c4000741a9ce,2020-08-10_17h48.30.479,lexical_decision_task_MP,2020.1.3,Win32,60,z,1,0.80073,,,,,,,,0.80073,1,,,,,,422,NW,UN,33,streld,ALCOUD,z,,,,,,0.283333333,-0.482407407,0,0,0,,0,25,25,361,1,
,,,,,,,,,,,,,,,,,,5755c957eb80c4000741a9ce,2020-08-10_17h48.30.479,lexical_decision_task_MP,2020.1.3,Win32,60,z,1,0.546475,,,,,,,,0.546475,1,,,,,,375,NW,"ID",50,yorque,YORQUE,z,,,,,,0.283333333,-0.482407407,0,0,0,,0,26,26,314,1,
,,,,,,,,,,,,,,,,,,5755c957eb80c4000741a9ce,2020-08-10_17h48.30.479,lexical_decision_task_MP,2020.1.3,Win32,60,m,1,0.680625,,,,,,,,0.680625,1,,,,,,97,WORD,"ID",33,client,CLIENT,m,,,,,,0.283333333,-0.482407407,0,0,0,,0,27,27,36,1,
,,,,,,,,,,,,,,,,,,5755c957eb80c4000741a9ce,2020-08-10_17h48.30.479,lexical_decision_task_MP,2020.1.3,Win32,60,z,1,0.608215,,,,,,,,0.608215,1,,,,,,333,NW,"ID",33,catrie,CATRIE,z,,,,,,0.283333333,-0.482407407,0,0,0,,0,28,28,272,1,
,,,,,,,,,,,,,,,,,,5755c957eb80c4000741a9ce,2020-08-10_17h48.30.479,lexical_decision_task_MP,2020.1.3,Win32,60,m,1,0.672665,,,,,,,,0.672665,1,,,,,,50,WORD,UN,50,hungry,SNATCH,m,,,,,,0.283333333,-0.482407407,0,0,0,,0,29,29,229,1,
,,,,,,,,,,,,,,,,,,5755c957eb80c4000741a9ce,2020-08-10_17h48.30.479,lexical_decision_task_MP,2020.1.3,Win32,60,m,1,0.62296,,,,,,,,0.62296,1,,,,,,194,WORD,UN,33,resign,ABSENT,m,,,,,,0.283333333,-0.482407407,0,0,0,,0,30,30,133,1,
,,,,,,,,,,,,,,,,,,5755c957eb80c4000741a9ce,2020-08-10_17h48.30.479,lexical_decision_task_MP,2020.1.3,Win32,60,m,1,0.60774,,,,,,,,0.60774,1,,,,,,196,WORD,UN,33,stream,CREDIT,m,,,,,,0.283333333,-0.482407407,0,0,0,,0,31,31,135,1,
,,,,,,,,,,,,,,,,,,5755c957eb80c4000741a9ce,2020-08-10_17h48.30.479,lexical_decision_task_MP,2020.1.3,Win32,60,z,1,0.66586,,,,,,,,0.66586,1,,,,,,299,NW,UN,50,yarion,STURCH,z,,,,,,0.283333333,-0.482407407,0,0,0,,0,32,32,478,1,
,,,,,,,,,,,,,,,,,,5755c957eb80c4000741a9ce,2020-08-10_17h48.30.479,lexical_decision_task_MP,2020.1.3,Win32,60,z,1,0.58399,,,,,,,,0.58399,1,,,,,,452,NW,UN,33,bolvis,SURDEN,z,,,,,,0.283333333,-0.482407407,0,0,0,,0,33,33,391,1,
,,,,,,,,,,,,,,,,,,5755c957eb80c4000741a9ce,2020-08-10_17h48.30.479,lexical_decision_task_MP,2020.1.3,Win32,60,z,1,0.665455,,,,,,,,0.665455,1,,,,,,344,NW,"ID",33,scrily,SCRILY,z,,,,,,0.283333333,-0.482407407,0,0,0,,0,34,34,283,1,
,,,,,,,,,,,,,,,,,,5755c957eb80c4000741a9ce,2020-08-10_17h48.30.479,lexical_decision_task_MP,2020.1.3,Win32,60,z,1,0.44752,,,,,,,,0.44752,1,,,,,,304,NW,"ID",33,cludie,CLUDIE,z,,,,,,0.283333333,-0.482407407,0,0,0,,0,35,35,243,1,
,,,,,,,,,,,,,,,,,,5755c957eb80c4000741a9ce,2020-08-10_17h48.30.479,lexical_decision_task_MP,2020.1.3,Win32,60,z,1,0.607375,,,,,,,,0.607375,1,,,,,,329,NW,"ID",33,yarike,YARIKE,z,,,,,,0.283333333,-0.482407407,0,0,0,,0,36,36,268,1,
,,,,,,,,,,,,,,,,,,5755c957eb80c4000741a9ce,2020-08-10_17h48.30.479,lexical_decision_task_MP,2020.1.3,Win32,60,m,1,0.59124,,,,,,,,0.59124,1,,,,,,41,WORD,UN,50,chapel,SPRING,m,,,,,,0.283333333,-0.482407407,0,0,0,,0,37,37,220,1,
,,,,,,,,,,,,,,,,,,5755c957eb80c4000741a9ce,2020-08-10_17h48.30.479,lexical_decision_task_MP,2020.1.3,Win32,60,z,1,0.585745,,,,,,,,0.585745,1,,,,,,438,NW,UN,33,limpor,BAITCH,z,,,,,,0.283333333,-0.482407407,0,0,0,,0,38,38,377,1,
,,,,,,,,,,,,,,,,,,5755c957eb80c4000741a9ce,2020-08-10_17h48.30.479,lexical_decision_task_MP,2020.1.3,Win32,60,z,1,0.966255,,,,,,,,0.966255,1,,,,,,338,NW,"ID",33,wreash,WREASH,z,,,,,,0.283333333,-0.482407407,0,0,0,,0,39,39,277,1,
,,,,,,,,,,,,,,,,,,5755c957eb80c4000741a9ce,2020-08-10_17h48.30.479,lexical_decision_task_MP,2020.1.3,Win32,60,z,1,0.67093,,,,,,,,0.67093,1,,,,,,434,NW,UN,33,impurb,PITROM,z,,,,,,0.283333333,-0.482407407,0,0,0,,0,40,40,373,1,
,,,,,,,,,,,,,,,,,,5755c957eb80c4000741a9ce,2020-08-10_17h48.30.479,lexical_decision_task_MP,2020.1.3,Win32,60,m,1,0.58315,,,,,,,,0.58315,1,,,,,,168,WORD,"ID",50,answer,ANSWER,m,,,,,,0.283333333,-0.482407407,0,0,0,,0,41,41,107,1,
,,,,,,,,,,,,,,,,,,5755c957eb80c4000741a9ce,2020-08-10_17h48.30.479,lexical_decision_task_MP,2020.1.3,Win32,60,z,0,0.58245,,,,,,,,0.58245,0,,,,,,9,WORD,UN,50,bridge,HUSTLE,m,,,,,,0.283333333,-0.482407407,0,0,0,,0,42,42,188,1,
,,,,,,,,,,,,,,,,,,5755c957eb80c4000741a9ce,2020-08-10_17h48.30.479,lexical_decision_task_MP,2020.1.3,Win32,60,m,1,0.679825,,,,,,,,0.679825,1,,,,,,101,WORD,"ID",33,wrench,WRENCH,m,,,,,,0.283333333,-0.482407407,0,0,0,,0,43,43,40,1,
,,,,,,,,,,,,,,,,,,5755c957eb80c4000741a9ce,2020-08-10_17h48.30.479,lexical_decision_task_MP,2020.1.3,Win32,60,m,1,0.606205,,,,,,,,0.606205,1,,,,,,222,WORD,UN,33,export,HINDER,m,,,,,,0.283333333,-0.482407407,0,0,0,,0,44,44,161,1,
,,,,,,,,,,,,,,,,,,5755c957eb80c4000741a9ce,2020-08-10_17h48.30.479,lexical_decision_task_MP,2020.1.3,Win32,60,m,1,0.543365,,,,,,,,0.543365,1,,,,,,150,WORD,"ID",50,random,RANDOM,m,,,,,,0.283333333,-0.482407407,0,0,0,,0,45,45,89,1,
,,,,,,,,,,,,,,,,,,5755c957eb80c4000741a9ce,2020-08-10_17h48.30.479,lexical_decision_task_MP,2020.1.3,Win32,60,m,1,0.593935,,,,,,,,0.593935,1,,,,,,37,WORD,UN,50,powder,INSULT,m,,,,,,0.283333333,-0.482407407,0,0,0,,0,46,46,216,1,
,,,,,,,,,,,,,,,,,,5755c957eb80c4000741a9ce,2020-08-10_17h48.30.479,lexical_decision_task_MP,2020.1.3,Win32,60,m,1,0.60337,,,,,,,,0.60337,1,,,,,,159,WORD,"ID",50,detail,DETAIL,m,,,,,,0.283333333,-0.482407407,0,0,0,,0,47,47,98,1,
,,,,,,,,,,,,,,,,,,5755c957eb80c4000741a9ce,2020-08-10_17h48.30.479,lexical_decision_task_MP,2020.1.3,Win32,60,m,1,0.56264,,,,,,,,0.56264,1,,,,,,178,WORD,"ID",50,inform,INFORM,m,,,,,,0.283333333,-0.482407407,0,0,0,,0,48,48,117,1,
,,,,,,,,,,,,,,,,,,5755c957eb80c4000741a9ce,2020-08-10_17h48.30.479,lexical_decision_task_MP,2020.1.3,Win32,60,m,1,0.558555,,,,,,,,0.558555,1,,,,,,146,WORD,"ID",50,couple,COUPLE,m,,,,,,0.283333333,-0.482407407,0,0,0,,0,49,49,85,1,
,,,,,,,,,,,,,,,,,,5755c957eb80c4000741a9ce,2020-08-10_17h48.30.479,lexical_decision_task_MP,2020.1.3,Win32,60,m,1,0.952195,,,,,,,,0.952195,1,,,,,,206,WORD,UN,33,wreath,TAILOR,m,,,,,,0.283333333,-0.482407407,0,0,0,,0,50,50,145,1,
,,,,,,,,,,,,,,,,,,5755c957eb80c4000741a9ce,2020-08-10_17h48.30.479,lexical_decision_task_MP,2020.1.3,Win32,60,z,1,0.65171,,,,,,,,0.65171,1,,,,,,392,NW,"ID",50,rouncy,ROUNCY,z,,,,,,0.283333333,-0.482407407,0,0,0,,0,51,51,331,1,
,,,,,,,,,,,,,,,,,,5755c957eb80c4000741a9ce,2020-08-10_17h48.30.479,lexical_decision_task_MP,2020.1.3,Win32,60,m,1,0.603105,,,,,,,,0.603105,1,,,,,,4,WORD,UN,50,plunge,TRENCH,m,,,,,,0.283333333,-0.482407407,0,0,0,,0,52,52,183,1,
,,,,,,,,,,,,,,,,,,5755c957eb80c4000741a9ce,2020-08-10_17h48.30.479,lexical_decision_task_MP,2020.1.3,Win32,60,m,1,0.67318,,,,,,,,0.67318,1,,,,,,1,WORD,UN,50,ethnic,FRIGHT,m,,,,,,0.283333333,-0.482407407,0,0,0,,0,53,53,180,1,
,,,,,,,,,,,,,,,,,,5755c957eb80c4000741a9ce,2020-08-10_17h48.30.479,lexical_decision_task_MP,2020.1.3,Win32,60,z,1,0.63336,,,,,,,,0.63336,1,,,,,,256,NW,UN,50,veniod,INLORS,z,,,,,,0.283333333,-0.482407407,0,0,0,,0,54,54,435,1,
,,,,,,,,,,,,,,,,,,5755c957eb80c4000741a9ce,2020-08-10_17h48.30.479,lexical_decision_task_MP,2020.1.3,Win32,60,m,1,0.60798,,,,,,,,0.60798,1,,,,,,12,WORD,UN,50,strive,ORANGE,m,,,,,,0.283333333,-0.482407407,0,0,0,,0,55,55,191,1,
,,,,,,,,,,,,,,,,,,5755c957eb80c4000741a9ce,2020-08-10_17h48.30.479,lexical_decision_task_MP,2020.1.3,Win32,60,m,1,0.625085,,,,,,,,0.625085,1,,,,,,63,WORD,"ID",33,launch,LAUNCH,m,,,,,,0.283333333,-0.482407407,0,0,0,,0,56,56,2,1,
,,,,,,,,,,,,,,,,,,5755c957eb80c4000741a9ce,2020-08-10_17h48.30.479,lexical_decision_task_MP,2020.1.3,Win32,60,m,1,0.809865,,,,,,,,0.809865,1,,,,,,120,WORD,"ID",33,strain,STRAIN,m,,,,,,0.283333333,-0.482407407,0,0,0,,0,57,57,59,1,
,,,,,,,,,,,,,,,,,,5755c957eb80c4000741a9ce,2020-08-10_17h48.30.479,lexical_decision_task_MP,2020.1.3,Win32,60,z,1,0.666985,,,,,,,,0.666985,1,,,,,,310,NW,"ID",33,daniet,DANIET,z,,,,,,0.283333333,-0.482407407,0,0,0,,0,58,58,249,1,
,,,,,,,,,,,,,,,,,,5755c957eb80c4000741a9ce,2020-08-10_17h48.30.479,lexical_decision_task_MP,2020.1.3,Win32,60,z,1,0.80104,,,,,,,,0.80104,1,,,,,,439,NW,UN,33,saride,LIMPOR,z,,,,,,0.283333333,-0.482407407,0,0,0,,0,59,59,378,1,
,,,,,,,,,,,,,,,,,,5755c957eb80c4000741a9ce,2020-08-10_17h48.30.479,lexical_decision_task_MP,2020.1.3,Win32,60,z,1,0.91464,,,,,,,,0.91464,1,,,,,,261,NW,UN,50,quilew,STUNCH,z,,,,,,0.283333333,-0.482407407,0,0,0,,0,60,60,440,1,
,,,,,,,,,,,,,,,,,,5755c957eb80c4000741a9ce,2020-08-10_17h48.30.479,lexical_decision_task_MP,2020.1.3,Win32,60,z,1,0.788105,,,,,,,,0.788105,1,,,,,,401,NW,"ID",50,mustil,MUSTIL,z,,,,,,0.283333333,-0.482407407,0,0,0,,0,61,61,340,1,
,,,,,,,,,,,,,,,,,,5755c957eb80c4000741a9ce,2020-08-10_17h48.30.479,lexical_decision_task_MP,2020.1.3,Win32,60,m,1,0.6227,,,,,,,,0.6227,1,,,,,,166,WORD,"ID",50,starch,STARCH,m,,,,,,0.283333333,-0.482407407,0,0,0,,0,62,62,105,1,
,,,,,,,,,,,,,,,,,,5755c957eb80c4000741a9ce,2020-08-10_17h48.30.479,lexical_decision_task_MP,2020.1.3,Win32,60,m,1,0.580775,,,,,,,,0.580775,1,,,,,,193,WORD,UN,33,mildew,OBJECT,m,,,,,,0.283333333,-0.482407407,0,0,0,,0,63,63,132,1,
,,,,,,,,,,,,,,,,,,5755c957eb80c4000741a9ce,2020-08-10_17h48.30.479,lexical_decision_task_MP,2020.1.3,Win32,60,z,1,0.51522,,,,,,,,0.51522,1,,,,,,317,NW,"ID",33,worbal,WORBAL,z,,,,,,0.283333333,-0.482407407,0,0,0,,0,64,64,256,1,
,,,,,,,,,,,,,,,,,,5755c957eb80c4000741a9ce,2020-08-10_17h48.30.479,lexical_decision_task_MP,2020.1.3,Win32,60,z,1,0.5912,,,,,,,,0.5912,1,,,,,,444,NW,UN,33,minkel,JAUNCE,z,,,,,,0.283333333,-0.482407407,0,0,0,,0,65,65,383,1,
,,,,,,,,,,,,,,,,,,5755c957eb80c4000741a9ce,2020-08-10_17h48.30.479,lexical_decision_task_MP,2020.1.3,Win32,60,z,1,0.73613,,,,,,,,0.73613,1,,,,,,294,NW,UN,50,gleath,INHORT,z,,,,,,0.283333333,-0.482407407,0,0,0,,0,66,66,473,1,
,,,,,,,,,,,,,,,,,,5755c957eb80c4000741a9ce,2020-08-10_17h48.30.479,lexical_decision_task_MP,2020.1.3,Win32,60,m,1,0.46115,,,,,,,,0.46115,1,,,,,,158,WORD,"ID",50,island,ISLAND,m,,,,,,0.283333333,-0.482407407,0,0,0,,0,67,67,97,1,
,,,,,,,,,,,,,,,,,,5755c957eb80c4000741a9ce,2020-08-10_17h48.30.479,lexical_decision_task_MP,2020.1.3,Win32,60,z,1,0.765965,,,,,,,,0.765965,1,,,,,,442,NW,UN,33,dorsex,ABOUNE,z,,,,,,0.283333333,-0.482407407,0,0,0,,0,68,68,381,1,
,,,,,,,,,,,,,,,,,,5755c957eb80c4000741a9ce,2020-08-10_17h48.30.479,lexical_decision_task_MP,2020.1.3,Win32,60,z,1,0.702705,,,,,,,,0.702705,1,,,,,,258,NW,UN,50,soudal,POLUTH,z,,,,,,0.283333333,-0.482407407,0,0,0,,0,69,69,437,1,
,,,,,,,,,,,,,,,,,,5755c957eb80c4000741a9ce,2020-08-10_17h48.30.479,lexical_decision_task_MP,2020.1.3,Win32,60,m,1,0.54914,,,,,,,,0.54914,1,,,,,,234,WORD,UN,33,poster,CLUMSY,m,,,,,,0.283333333,-0.482407407,0,0,0,,0,70,70,173,1,
,,,,,,,,,,,,,,,,,,5755c957eb80c4000741a9ce,2020-08-10_17h48.30.479,lexical_decision_task_MP,2020.1.3,Win32,60,m,1,0.591905,,,,,,,,0.591905,1,,,,,,75,WORD,"ID",33,trophy,TROPHY,m,,,,,,0.283333333,-0.482407407,0,0,0,,0,71,71,14,1,
,,,,,,,,,,,,,,,,,,5755c957eb80c4000741a9ce,2020-08-10_17h48.30.479,lexical_decision_task_MP,2020.1.3,Win32,60,z,1,0.51323,,,,,,,,0.51323,1,,,,,,414,NW,"ID",50,serbol,SERBOL,z,,,,,,0.283333333,-0.482407407,0,0,0,,0,72,72,353,1,
,,,,,,,,,,,,,,,,,,5755c957eb80c4000741a9ce,2020-08-10_17h48.30.479,lexical_decision_task_MP,2020.1.3,Win32,60,m,1,0.629755,,,,,,,,0.629755,1,,,,,,25,WORD,UN,50,sprint,DOMAIN,m,,,,,,0.283333333,-0.482407407,0,0,0,,0,73,73,204,1,
,,,,,,,,,,,,,,,,,,5755c957eb80c4000741a9ce,2020-08-10_17h48.30.479,lexical_decision_task_MP,2020.1.3,Win32,60,m,1,0.626755,,,,,,,,0.626755,1,,,,,,39,WORD,UN,50,convey,INSECT,m,,,,,,0.283333333,-0.482407407,0,0,0,,0,74,74,218,1,
,,,,,,,,,,,,,,,,,,5755c957eb80c4000741a9ce,2020-08-10_17h48.30.479,lexical_decision_task_MP,2020.1.3,Win32,60,m,1,0.651735,,,,,,,,0.651735,1,,,,,,38,WORD,UN,50,insect,POWDER,m,,,,,,0.283333333,-0.482407407,0,0,0,,0,75,75,217,1,
,,,,,,,,,,,,,,,,,,5755c957eb80c4000741a9ce,2020-08-10_17h48.30.479,lexical_decision_task_MP,2020.1.3,Win32,60,m,1,0.490775,,,,,,,,0.490775,1,,,,,,119,WORD,"ID",33,spider,SPIDER,m,,,,,,0.283333333,-0.482407407,0,0,0,,0,76,76,58,1,
,,,,,,,,,,,,,,,,,,5755c957eb80c4000741a9ce,2020-08-10_17h48.30.479,lexical_decision_task_MP,2020.1.3,Win32,60,m,1,0.627265,,,,,,,,0.627265,1,,,,,,115,WORD,"ID",33,guitar,GUITAR,m,,,,,,0.283333333,-0.482407407,0,0,0,,0,77,77,54,1,
,,,,,,,,,,,,,,,,,,5755c957eb80c4000741a9ce,2020-08-10_17h48.30.479,lexical_decision_task_MP,2020.1.3,Win32,60,m,1,0.609785,,,,,,,,0.609785,1,,,,,,228,WORD,UN,33,kidney,MASTER,m,,,,,,0.283333333,-0.482407407,0,0,0,,0,78,78,167,1,
,,,,,,,,,,,,,,,,,,5755c957eb80c4000741a9ce,2020-08-10_17h48.30.479,lexical_decision_task_MP,2020.1.3,Win32,60,m,1,0.73887,,,,,,,,0.73887,1,,,,,,59,WORD,UN,50,pencil,SPLINT,m,,,,,,0.283333333,-0.482407407,0,0,0,,0,79,79,238,1,
,,,,,,,,,,,,,,,,,,5755c957eb80c4000741a9ce,2020-08-10_17h48.30.479,lexical_decision_task_MP,2020.1.3,Win32,60,z,1,0.73446,,,,,,,,0.73446,1,,,,,,268,NW,UN,50,orchet,PACKES,z,,,,,,0.283333333,-0.482407407,0,0,0,,0,80,80,447,1,
,,,,,,,,,,,,,,,,,,5755c957eb80c4000741a9ce,2020-08-10_17h48.30.479,lexical_decision_task_MP,2020.1.3,Win32,60,m,1,0.70624,,,,,,,,0.70624,1,,,,,,160,WORD,"ID",50,violet,VIOLET,m,,,,,,0.283333333,-0.482407407,0,0,0,,0,81,81,99,1,
,,,,,,,,,,,,,,,,,,5755c957eb80c4000741a9ce,2020-08-10_17h48.30.479,lexical_decision_task_MP,2020.1.3,Win32,60,m,1,0.549805,,,,,,,,0.549805,1,,,,,,149,WORD,"ID",50,invade,INVADE,m,,,,,,0.283333333,-0.482407407,0,0,0,,0,82,82,88,1,
,,,,,,,,,,,,,,,,,,5755c957eb80c4000741a9ce,2020-08-10_17h48.30.479,lexical_decision_task_MP,2020.1.3,Win32,60,z,1,1.07901,,,,,,,,1.07901,1,,,,,,306,NW,"ID",33,sounge,SOUNGE,z,,,,,,0.283333333,-0.482407407,0,0,0,,0,83,83,245,1,
,,,,,,,,,,,,,,,,,,5755c957eb80c4000741a9ce,2020-08-10_17h48.30.479,lexical_decision_task_MP,2020.1.3,Win32,60,z,1,0.758605,,,,,,,,0.758605,1,,,,,,363,NW,"ID",50,breali,BREALI,z,,,,,,0.283333333,-0.482407407,0,0,0,,0,84,84,302,1,
,,,,,,,,,,,,,,,,,,5755c957eb80c4000741a9ce,2020-08-10_17h48.30.479,lexical_decision_task_MP,2020.1.3,Win32,60,m,1,0.562685,,,,,,,,0.562685,1,,,,,,148,WORD,"ID",50,custom,CUSTOM,m,,,,,,0.283333333,-0.482407407,0,0,0,,0,85,85,87,1,
,,,,,,,,,,,,,,,,,,5755c957eb80c4000741a9ce,2020-08-10_17h48.30.479,lexical_decision_task_MP,2020.1.3,Win32,60,z,1,0.594795,,,,,,,,0.594795,1,,,,,,451,NW,UN,33,surden,CAINKY,z,,,,,,0.283333333,-0.482407407,0,0,0,,0,86,86,390,1,
,,,,,,,,,,,,,,,,,,5755c957eb80c4000741a9ce,2020-08-10_17h48.30.479,lexical_decision_task_MP,2020.1.3,Win32,60,z,1,0.64942,,,,,,,,0.64942,1,,,,,,428,NW,UN,33,funtle,TANDLY,z,,,,,,0.283333333,-0.482407407,0,0,0,,0,87,87,367,1,
,,,,,,,,,,,,,,,,,,5755c957eb80c4000741a9ce,2020-08-10_17h48.30.479,lexical_decision_task_MP,2020.1.3,Win32,60,m,1,0.606135,,,,,,,,0.606135,1,,,,,,30,WORD,UN,50,weapon,ORIENT,m,,,,,,0.283333333,-0.482407407,0,0,0,,0,88,88,209,1,
,,,,,,,,,,,,,,,,,,5755c957eb80c4000741a9ce,2020-08-10_17h48.30.479,lexical_decision_task_MP,2020.1.3,Win32,60,z,1,0.59171,,,,,,,,0.59171,1,,,,,,462,NW,UN,33,kispel,ABSULT,z,,,,,,0.283333333,-0.482407407,0,0,0,,0,89,89,401,1,
,,,,,,,,,,,,,,,,,,5755c957eb80c4000741a9ce,2020-08-10_17h48.30.479,lexical_decision_task_MP,2020.1.3,Win32,60,z,0,0.55971,,,,,,,,0.55971,0,,,,,,54,WORD,UN,50,stroke,RAMBLE,m,,,,,,0.283333333,-0.482407407,0,0,0,,0,90,90,233,1,
,,,,,,,,,,,,,,,,,,5755c957eb80c4000741a9ce,2020-08-10_17h48.30.479,lexical_decision_task_MP,2020.1.3,Win32,60,m,1,0.650185,,,,,,,,0.650185,1,,,,,,144,WORD,"ID",50,sponge,SPONGE,m,,,,,,0.283333333,-0.482407407,0,0,0,,0,91,91,83,1,
,,,,,,,,,,,,,,,,,,5755c957eb80c4000741a9ce,2020-08-10_17h48.30.479,lexical_decision_task_MP,2020.1.3,Win32,60,m,1,0.61769,,,,,,,,0.61769,1,,,,,,237,WORD,UN,33,glance,POSTER,m,,,,,,0.283333333,-0.482407407,0,0,0,,0,92,92,176,1,
,,,,,,,,,,,,,,,,,,5755c957eb80c4000741a9ce,2020-08-10_17h48.30.479,lexical_decision_task_MP,2020.1.3,Win32,60,z,1,0.81064,,,,,,,,0.81064,1,,,,,,307,NW,"ID",33,kirafe,KIRAFE,z,,,,,,0.283333333,-0.482407407,0,0,0,,0,93,93,246,1,
,,,,,,,,,,,,,,,,,,5755c957eb80c4000741a9ce,2020-08-10_17h48.30.479,lexical_decision_task_MP,2020.1.3,Win32,60,m,1,0.53822,,,,,,,,0.53822,1,,,,,,27,WORD,UN,50,comedy,SCREAM,m,,,,,,0.283333333,-0.482407407,0,0,0,,0,94,94,206,1,
,,,,,,,,,,,,,,,,,,5755c957eb80c4000741a9ce,2020-08-10_17h48.30.479,lexical_decision_task_MP,2020.1.3,Win32,60,m,1,0.615775,,,,,,,,0.615775,1,,,,,,207,WORD,UN,33,hockey,WREATH,m,,,,,,0.283333333,-0.482407407,0,0,0,,0,95,95,146,1,
,,,,,,,,,,,,,,,,,,5755c957eb80c4000741a9ce,2020-08-10_17h48.30.479,lexical_decision_task_MP,2020.1.3,Win32,60,z,1,0.63341,,,,,,,,0.63341,1,,,,,,389,NW,"ID",50,witmer,WITMER,z,,,,,,0.283333333,-0.482407407,0,0,0,,0,96,96,328,1,
,,,,,,,,,,,,,,,,,,5755c957eb80c4000741a9ce,2020-08-10_17h48.30.479,lexical_decision_task_MP,2020.1.3,Win32,60,m,1,0.606895,,,,,,,,0.606895,1,,,,,,49,WORD,UN,50,snatch,SURVEY,m,,,,,,0.283333333,-0.482407407,0,0,0,,0,97,97,228,1,
,,,,,,,,,,,,,,,,,,5755c957eb80c4000741a9ce,2020-08-10_17h48.30.479,lexical_decision_task_MP,2020.1.3,Win32,60,m,1,0.590655,,,,,,,,0.590655,1,,,,,,57,WORD,UN,50,danger,CHANGE,m,,,,,,0.283333333,-0.482407407,0,0,0,,0,98,98,236,1,
,,,,,,,,,,,,,,,,,,5755c957eb80c4000741a9ce,2020-08-10_17h48.30.479,lexical_decision_task_MP,2020.1.3,Win32,60,m,1,0.585335,,,,,,,,0.585335,1,,,,,,219,WORD,UN,33,voyage,BUCKET,m,,,,,,0.283333333,-0.482407407,0,0,0,,0,99,99,158,1,
,,,,,,,,,,,,,,,,,,5755c957eb80c4000741a9ce,2020-08-10_17h48.30.479,lexical_decision_task_MP,2020.1.3,Win32,60,z,1,0.67556,,,,,,,,0.67556,1,,,,,,424,NW,UN,33,frudge,PRAILE,z,,,,,,0.283333333,-0.482407407,0,0,0,,0,100,100,363,1,
,,,,,,,,,,,,,,,,,,5755c957eb80c4000741a9ce,2020-08-10_17h48.30.479,lexical_decision_task_MP,2020.1.3,Win32,60,z,1,0.56953,,,,,,,,0.56953,1,,,,,,264,NW,UN,50,distar,VACKEL,z,,,,,,0.283333333,-0.482407407,0,0,0,,0,101,101,443,1,
,,,,,,,,,,,,,,,,,,5755c957eb80c4000741a9ce,2020-08-10_17h48.30.479,lexical_decision_task_MP,2020.1.3,Win32,60,z,1,0.667335,,,,,,,,0.667335,1,,,,,,467,NW,UN,33,wictor,GORBIE,z,,,,,,0.283333333,-0.482407407,0,0,0,,0,102,102,406,1,
,,,,,,,,,,,,,,,,,,5755c957eb80c4000741a9ce,2020-08-10_17h48.30.479,lexical_decision_task_MP,2020.1.3,Win32,60,m,1,0.62693,,,,,,,,0.62693,1,,,,,,204,WORD,UN,33,lounge,BURDEN,m,,,,,,0.283333333,-0.482407407,0,0,0,,0,103,103,143,1,
,,,,,,,,,,,,,,,,,,5755c957eb80c4000741a9ce,2020-08-10_17h48.30.479,lexical_decision_task_MP,2020.1.3,Win32,60,m,1,0.700245,,,,,,,,0.700245,1,,,,,,117,WORD,"ID",33,branch,BRANCH,m,,,,,,0.283333333,-0.482407407,0,0,0,,0,104,104,56,1,
,,,,,,,,,,,,,,,,,,5755c957eb80c4000741a9ce,2020-08-10_17h48.30.479,lexical_decision_task_MP,2020.1.3,Win32,60,z,1,0.58359,,,,,,,,0.58359,1,,,,,,372,NW,"ID",50,ramily,RAMILY,z,,,,,,0.283333333,-0.482407407,0,0,0,,0,105,105,311,1,
,,,,,,,,,,,,,,,,,,5755c957eb80c4000741a9ce,2020-08-10_17h48.30.479,lexical_decision_task_MP,2020.1.3,Win32,60,z,1,0.69037,,,,,,,,0.69037,1,,,,,,448,NW,UN,33,brunge,SADENT,z,,,,,,0.283333333,-0.482407407,0,0,0,,0,106,106,387,1,
,,,,,,,,,,,,,,,,,,5755c957eb80c4000741a9ce,2020-08-10_17h48.30.479,lexical_decision_task_MP,2020.1.3,Win32,60,z,1,0.6657,,,,,,,,0.6657,1,,,,,,321,NW,"ID",33,miator,MIATOR,z,,,,,,0.283333333,-0.482407407,0,0,0,,0,107,107,260,1,
,,,,,,,,,,,,,,,,,,5755c957eb80c4000741a9ce,2020-08-10_17h48.30.479,lexical_decision_task_MP,2020.1.3,Win32,60,z,1,0.600635,,,,,,,,0.600635,1,,,,,,300,NW,UN,50,smenco,YARION,z,,,,,,0.283333333,-0.482407407,0,0,0,,0,108,108,479,1,
,,,,,,,,,,,,,,,,,,5755c957eb80c4000741a9ce,2020-08-10_17h48.30.479,lexical_decision_task_MP,2020.1.3,Win32,60,z,1,0.91766,,,,,,,,0.91766,1,,,,,,252,NW,UN,50,resait,STAPOD,z,,,,,,0.283333333,-0.482407407,0,0,0,,0,109,109,431,1,
,,,,,,,,,,,,,,,,,,5755c957eb80c4000741a9ce,2020-08-10_17h48.30.479,lexical_decision_task_MP,2020.1.3,Win32,60,z,1,0.83388,,,,,,,,0.83388,1,,,,,,379,NW,"ID",50,auting,AUTING,z,,,,,,0.283333333,-0.482407407,0,0,0,,0,110,110,318,1,
,,,,,,,,,,,,,,,,,,5755c957eb80c4000741a9ce,2020-08-10_17h48.30.479,lexical_decision_task_MP,2020.1.3,Win32,60,z,1,0.882885,,,,,,,,0.882885,1,,,,,,314,NW,"ID",33,sprine,SPRINE,z,,,,,,0.283333333,-0.482407407,0,0,0,,0,111,111,253,1,
,,,,,,,,,,,,,,,,,,5755c957eb80c4000741a9ce,2020-08-10_17h48.30.479,lexical_decision_task_MP,2020.1.3,Win32,60,z,1,0.6729,,,,,,,,0.6729,1,,,,,,476,NW,UN,33,photie,JOSTED,z,,,,,,0.283333333,-0.482407407,0,0,0,,0,112,112,415,1,
,,,,,,,,,,,,,,,,,,5755c957eb80c4000741a9ce,2020-08-10_17h48.30.479,lexical_decision_task_MP,2020.1.3,Win32,60,z,1,0.782925,,,,,,,,0.782925,1,,,,,,331,NW,"ID",33,gilfew,GILFEW,z,,,,,,0.283333333,-0.482407407,0,0,0,,0,113,113,270,1,
,,,,,,,,,,,,,,,,,,5755c957eb80c4000741a9ce,2020-08-10_17h48.30.479,lexical_decision_task_MP,2020.1.3,Win32,60,m,0,1.16069,,,,,,,,1.16069,0,,,,,,361,NW,"ID",50,pauche,PAUCHE,z,,,,,,0.283333333,-0.482407407,0,0,0,,0,114,114,300,1,
,,,,,,,,,,,,,,,,,,5755c957eb80c4000741a9ce,2020-08-10_17h48.30.479,lexical_decision_task_MP,2020.1.3,Win32,60,z,1,0.63506,,,,,,,,0.63506,1,,,,,,421,NW,UN,33,alcoud,KNISMA,z,,,,,,0.283333333,-0.482407407,0,0,0,,0,115,115,360,1,
,,,,,,,,,,,,,,,,,,5755c957eb80c4000741a9ce,2020-08-10_17h48.30.479,lexical_decision_task_MP,2020.1.3,Win32,60,m,1,0.611285,,,,,,,,0.611285,1,,,,,,192,WORD,UN,33,object,PLAGUE,m,,,,,,0.283333333,-0.482407407,0,0,0,,0,116,116,131,1,
,,,,,,,,,,,,,,,,,,5755c957eb80c4000741a9ce,2020-08-10_17h48.30.479,lexical_decision_task_MP,2020.1.3,Win32,60,z,1,0.539905,,,,,,,,0.539905,1,,,,,,427,NW,UN,33,tandly,SCHIND,z,,,,,,0.283333333,-0.482407407,0,0,0,,0,117,117,366,1,
,,,,,,,,,,,,,,,,,,5755c957eb80c4000741a9ce,2020-08-10_17h48.30.479,lexical_decision_task_MP,2020.1.3,Win32,60,z,1,0.736595,,,,,,,,0.736595,1,,,,,,479,NW,UN,33,crible,LOBUSH,z,,,,,,0.283333333,-0.482407407,0,0,0,,0,118,118,418,1,
,,,,,,,,,,,,,,,,,,5755c957eb80c4000741a9ce,2020-08-10_17h48.30.479,lexical_decision_task_MP,2020.1.3,Win32,60,m,1,0.585145,,,,,,,,0.585145,1,,,,,,98,WORD,"ID",33,belong,BELONG,m,,,,,,0.283333333,-0.482407407,0,0,0,,0,119,119,37,1,
,,,,,,,,,,,,,,,,,,5755c957eb80c4000741a9ce,2020-08-10_17h48.30.479,lexical_decision_task_MP,2020.1.3,Win32,60,z,1,0.6633,,,,,,,,0.6633,1,,,,,,255,NW,UN,50,inlors,APIGHT,z,,,,,,0.283333333,-0.482407407,0,0,0,space,0,120,120,434,1,8.32872
,,,,,,,,,,,,,,,,,,5755c957eb80c4000741a9ce,2020-08-10_17h48.30.479,lexical_decision_task_MP,2020.1.3,Win32,60,m,1,0.590935,,,,,,,,0.590935,1,,,,,,175,WORD,"ID",50,fabric,FABRIC,m,,,,,,0.283333333,-0.482407407,0,0,0,,0,121,121,114,1,
,,,,,,,,,,,,,,,,,,5755c957eb80c4000741a9ce,2020-08-10_17h48.30.479,lexical_decision_task_MP,2020.1.3,Win32,60,m,1,0.57978,,,,,,,,0.57978,1,,,,,,47,WORD,UN,50,walnut,INCOME,m,,,,,,0.283333333,-0.482407407,0,0,0,,0,122,122,226,1,
,,,,,,,,,,,,,,,,,,5755c957eb80c4000741a9ce,2020-08-10_17h48.30.479,lexical_decision_task_MP,2020.1.3,Win32,60,m,0,0.50634,,,,,,,,0.50634,0,,,,,,411,NW,"ID",50,orchin,ORCHIN,z,,,,,,0.283333333,-0.482407407,0,0,0,,0,123,123,350,1,
,,,,,,,,,,,,,,,,,,5755c957eb80c4000741a9ce,2020-08-10_17h48.30.479,lexical_decision_task_MP,2020.1.3,Win32,60,m,0,0.54123,,,,,,,,0.54123,0,,,,,,345,NW,"ID",33,absend,ABSEND,z,,,,,,0.283333333,-0.482407407,0,0,0,,0,124,124,284,1,
,,,,,,,,,,,,,,,,,,5755c957eb80c4000741a9ce,2020-08-10_17h48.30.479,lexical_decision_task_MP,2020.1.3,Win32,60,m,1,0.65143,,,,,,,,0.65143,1,,,,,,71,WORD,"ID",33,garden,GARDEN,m,,,,,,0.283333333,-0.482407407,0,0,0,,0,125,125,10,1,
,,,,,,,,,,,,,,,,,,5755c957eb80c4000741a9ce,2020-08-10_17h48.30.479,lexical_decision_task_MP,2020.1.3,Win32,60,z,1,0.60843,,,,,,,,0.60843,1,,,,,,397,NW,"ID",50,camble,CAMBLE,z,,,,,,0.283333333,-0.482407407,0,0,0,,0,126,126,336,1,
,,,,,,,,,,,,,,,,,,5755c957eb80c4000741a9ce,2020-08-10_17h48.30.479,lexical_decision_task_MP,2020.1.3,Win32,60,z,1,0.749215,,,,,,,,0.749215,1,,,,,,454,NW,UN,33,tondle,SCOUGE,z,,,,,,0.283333333,-0.482407407,0,0,0,,0,127,127,393,1,
,,,,,,,,,,,,,,,,,,5755c957eb80c4000741a9ce,2020-08-10_17h48.30.479,lexical_decision_task_MP,2020.1.3,Win32,60,m,1,0.788955,,,,,,,,0.788955,1,,,,,,172,WORD,"ID",50,patrol,PATROL,m,,,,,,0.283333333,-0.482407407,0,0,0,,0,128,128,111,1,
,,,,,,,,,,,,,,,,,,5755c957eb80c4000741a9ce,2020-08-10_17h48.30.479,lexical_decision_task_MP,2020.1.3,Win32,60,m,1,0.57504,,,,,,,,0.57504,1,,,,,,108,WORD,"ID",33,reckon,RECKON,m,,,,,,0.283333333,-0.482407407,0,0,0,,0,129,129,47,1,
,,,,,,,,,,,,,,,,,,5755c957eb80c4000741a9ce,2020-08-10_17h48.30.479,lexical_decision_task_MP,2020.1.3,Win32,60,z,1,0.554405,,,,,,,,0.554405,1,,,,,,464,NW,UN,33,whivex,CHAITE,z,,,,,,0.283333333,-0.482407407,0,0,0,,0,130,130,403,1,
,,,,,,,,,,,,,,,,,,5755c957eb80c4000741a9ce,2020-08-10_17h48.30.479,lexical_decision_task_MP,2020.1.3,Win32,60,z,1,0.563725,,,,,,,,0.563725,1,,,,,,336,NW,"ID",33,ghodus,GHODUS,z,,,,,,0.283333333,-0.482407407,0,0,0,,0,131,131,275,1,
,,,,,,,,,,,,,,,,,,5755c957eb80c4000741a9ce,2020-08-10_17h48.30.479,lexical_decision_task_MP,2020.1.3,Win32,60,m,1,0.59299,,,,,,,,0.59299,1,,,,,,79,WORD,"ID",33,theory,THEORY,m,,,,,,0.283333333,-0.482407407,0,0,0,,0,132,132,18,1,
,,,,,,,,,,,,,,,,,,5755c957eb80c4000741a9ce,2020-08-10_17h48.30.479,lexical_decision_task_MP,2020.1.3,Win32,60,m,1,0.532105,,,,,,,,0.532105,1,,,,,,3,WORD,UN,50,trench,KNIGHT,m,,,,,,0.283333333,-0.482407407,0,0,0,,0,133,133,182,1,
,,,,,,,,,,,,,,,,,,5755c957eb80c4000741a9ce,2020-08-10_17h48.30.479,lexical_decision_task_MP,2020.1.3,Win32,60,z,1,0.54633,,,,,,,,0.54633,1,,,,,,351,NW,"ID",33,tiesch,TIESCH,z,,,,,,0.283333333,-0.482407407,0,0,0,,0,134,134,290,1,
,,,,,,,,,,,,,,,,,,5755c957eb80c4000741a9ce,2020-08-10_17h48.30.479,lexical_decision_task_MP,2020.1.3,Win32,60,z,0,0.5232,,,,,,,,0.5232,0,,,,,,220,WORD,UN,33,mascot,VOYAGE,m,,,,,,0.283333333,-0.482407407,0,0,0,,0,135,135,159,1,
,,,,,,,,,,,,,,,,,,5755c957eb80c4000741a9ce,2020-08-10_17h48.30.479,lexical_decision_task_MP,2020.1.3,Win32,60,z,1,0.7985,,,,,,,,0.7985,1,,,,,,358,NW,"ID",33,fleack,FLEACK,z,,,,,,0.283333333,-0.482407407,0,0,0,,0,136,136,297,1,
,,,,,,,,,,,,,,,,,,5755c957eb80c4000741a9ce,2020-08-10_17h48.30.479,lexical_decision_task_MP,2020.1.3,Win32,60,m,1,0.814945,,,,,,,,0.814945,1,,,,,,58,WORD,UN,50,splint,FOSTER,m,,,,,,0.283333333,-0.482407407,0,0,0,,0,137,137,237,1,
,,,,,,,,,,,,,,,,,,5755c957eb80c4000741a9ce,2020-08-10_17h48.30.479,lexical_decision_task_MP,2020.1.3,Win32,60,z,1,0.840805,,,,,,,,0.840805,1,,,,,,433,NW,UN,33,pitrom,DRANCE,z,,,,,,0.283333333,-0.482407407,0,0,0,,0,138,138,372,1,
,,,,,,,,,,,,,,,,,,5755c957eb80c4000741a9ce,2020-08-10_17h48.30.479,lexical_decision_task_MP,2020.1.3,Win32,60,z,1,0.666555,,,,,,,,0.666555,1,,,,,,429,NW,UN,33,caroey,FUNTLE,z,,,,,,0.283333333,-0.482407407,0,0,0,,0,139,139,368,1,
,,,,,,,,,,,,,,,,,,5755c957eb80c4000741a9ce,2020-08-10_17h48.30.479,lexical_decision_task_MP,2020.1.3,Win32,60,m,1,0.606855,,,,,,,,0.606855,1,,,,,,232,WORD,UN,33,nature,INJECT,m,,,,,,0.283333333,-0.482407407,0,0,0,,0,140,140,171,1,
,,,,,,,,,,,,,,,,,,5755c957eb80c4000741a9ce,2020-08-10_17h48.30.479,lexical_decision_task_MP,2020.1.3,Win32,60,m,1,0.616285,,,,,,,,0.616285,1,,,,,,163,WORD,"ID",50,string,STRING,m,,,,,,0.283333333,-0.482407407,0,0,0,,0,141,141,102,1,
,,,,,,,,,,,,,,,,,,5755c957eb80c4000741a9ce,2020-08-10_17h48.30.479,lexical_decision_task_MP,2020.1.3,Win32,60,m,1,0.551515,,,,,,,,0.551515,1,,,,,,200,WORD,UN,33,admire,BEACON,m,,,,,,0.283333333,-0.482407407,0,0,0,,0,142,142,139,1,
,,,,,,,,,,,,,,,,,,5755c957eb80c4000741a9ce,2020-08-10_17h48.30.479,lexical_decision_task_MP,2020.1.3,Win32,60,m,1,0.933025,,,,,,,,0.933025,1,,,,,,73,WORD,"ID",33,source,SOURCE,m,,,,,,0.283333333,-0.482407407,0,0,0,,0,143,143,12,1,
,,,,,,,,,,,,,,,,,,5755c957eb80c4000741a9ce,2020-08-10_17h48.30.479,lexical_decision_task_MP,2020.1.3,Win32,60,z,1,0.67947,,,,,,,,0.67947,1,,,,,,272,NW,UN,50,sortel,DAMILT,z,,,,,,0.283333333,-0.482407407,0,0,0,,0,144,144,451,1,
,,,,,,,,,,,,,,,,,,5755c957eb80c4000741a9ce,2020-08-10_17h48.30.479,lexical_decision_task_MP,2020.1.3,Win32,60,m,1,0.677315,,,,,,,,0.677315,1,,,,,,198,WORD,UN,33,invoke,WICKED,m,,,,,,0.283333333,-0.482407407,0,0,0,,0,145,145,137,1,
,,,,,,,,,,,,,,,,,,5755c957eb80c4000741a9ce,2020-08-10_17h48.30.479,lexical_decision_task_MP,2020.1.3,Win32,60,z,1,0.619635,,,,,,,,0.619635,1,,,,,,410,NW,"ID",50,tunory,TUNORY,z,,,,,,0.283333333,-0.482407407,0,0,0,,0,146,146,349,1,
,,,,,,,,,,,,,,,,,,5755c957eb80c4000741a9ce,2020-08-10_17h48.30.479,lexical_decision_task_MP,2020.1.3,Win32,60,m,1,0.69251,,,,,,,,0.69251,1,,,,,,122,WORD,"ID",50,linger,LINGER,m,,,,,,0.283333333,-0.482407407,0,0,0,,0,147,147,61,1,
,,,,,,,,,,,,,,,,,,5755c957eb80c4000741a9ce,2020-08-10_17h48.30.479,lexical_decision_task_MP,2020.1.3,Win32,60,z,1,0.60846,,,,,,,,0.60846,1,,,,,,267,NW,UN,50,packes,PASINK,z,,,,,,0.283333333,-0.482407407,0,0,0,,0,148,148,446,1,
,,,,,,,,,,,,,,,,,,5755c957eb80c4000741a9ce,2020-08-10_17h48.30.479,lexical_decision_task_MP,2020.1.3,Win32,60,z,1,0.57864,,,,,,,,0.57864,1,,,,,,318,NW,"ID",33,reagly,REAGLY,z,,,,,,0.283333333,-0.482407407,0,0,0,,0,149,149,257,1,
,,,,,,,,,,,,,,,,,,5755c957eb80c4000741a9ce,2020-08-10_17h48.30.479,lexical_decision_task_MP,2020.1.3,Win32,60,m,1,0.57269,,,,,,,,0.57269,1,,,,,,186,WORD,UN,33,course,PORTAL,m,,,,,,0.283333333,-0.482407407,0,0,0,,0,150,150,125,1,
,,,,,,,,,,,,,,,,,,5755c957eb80c4000741a9ce,2020-08-10_17h48.30.479,lexical_decision_task_MP,2020.1.3,Win32,60,z,1,0.67811,,,,,,,,0.67811,1,,,,,,243,NW,UN,50,eatric,MUSIED,z,,,,,,0.283333333,-0.482407407,0,0,0,,0,151,151,422,1,
,,,,,,,,,,,,,,,,,,5755c957eb80c4000741a9ce,2020-08-10_17h48.30.479,lexical_decision_task_MP,2020.1.3,Win32,60,m,1,0.584705,,,,,,,,0.584705,1,,,,,,14,WORD,UN,50,orange,ALMOST,m,,,,,,0.283333333,-0.482407407,0,0,0,,0,152,152,193,1,
,,,,,,,,,,,,,,,,,,5755c957eb80c4000741a9ce,2020-08-10_17h48.30.479,lexical_decision_task_MP,2020.1.3,Win32,60,z,1,0.754195,,,,,,,,0.754195,1,,,,,,241,NW,UN,50,unwert,SMENCO,z,,,,,,0.283333333,-0.482407407,0,0,0,,0,153,153,420,1,
,,,,,,,,,,,,,,,,,,5755c957eb80c4000741a9ce,2020-08-10_17h48.30.479,lexical_decision_task_MP,2020.1.3,Win32,60,m,1,0.509465,,,,,,,,0.509465,1,,,,,,17,WORD,UN,50,humble,CHARGE,m,,,,,,0.283333333,-0.482407407,0,0,0,,0,154,154,196,1,
,,,,,,,,,,,,,,,,,,5755c957eb80c4000741a9ce,2020-08-10_17h48.30.479,lexical_decision_task_MP,2020.1.3,Win32,60,m,1,0.60229,,,,,,,,0.60229,1,,,,,,199,WORD,UN,33,plague,INVOKE,m,,,,,,0.283333333,-0.482407407,0,0,0,,0,155,155,138,1,
,,,,,,,,,,,,,,,,,,5755c957eb80c4000741a9ce,2020-08-10_17h48.30.479,lexical_decision_task_MP,2020.1.3,Win32,60,m,1,0.522585,,,,,,,,0.522585,1,,,,,,99,WORD,"ID",33,fluent,FLUENT,m,,,,,,0.283333333,-0.482407407,0,0,0,,0,156,156,38,1,
,,,,,,,,,,,,,,,,,,5755c957eb80c4000741a9ce,2020-08-10_17h48.30.479,lexical_decision_task_MP,2020.1.3,Win32,60,m,1,0.47918,,,,,,,,0.47918,1,,,,,,164,WORD,"ID",50,market,MARKET,m,,,,,,0.283333333,-0.482407407,0,0,0,,0,157,157,103,1,
,,,,,,,,,,,,,,,,,,5755c957eb80c4000741a9ce,2020-08-10_17h48.30.479,lexical_decision_task_MP,2020.1.3,Win32,60,m,1,0.526965,,,,,,,,0.526965,1,,,,,,42,WORD,UN,50,tongue,CHAPEL,m,,,,,,0.283333333,-0.482407407,0,0,0,,0,158,158,221,1,
,,,,,,,,,,,,,,,,,,5755c957eb80c4000741a9ce,2020-08-10_17h48.30.479,lexical_decision_task_MP,2020.1.3,Win32,60,m,1,0.649795,,,,,,,,0.649795,1,,,,,,52,WORD,UN,50,police,IMPOSE,m,,,,,,0.283333333,-0.482407407,0,0,0,,0,159,159,231,1,
,,,,,,,,,,,,,,,,,,5755c957eb80c4000741a9ce,2020-08-10_17h48.30.479,lexical_decision_task_MP,2020.1.3,Win32,60,z,1,0.65607,,,,,,,,0.65607,1,,,,,,398,NW,"ID",50,blunde,BLUNDE,z,,,,,,0.283333333,-0.482407407,0,0,0,,0,160,160,337,1,
,,,,,,,,,,,,,,,,,,5755c957eb80c4000741a9ce,2020-08-10_17h48.30.479,lexical_decision_task_MP,2020.1.3,Win32,60,z,1,0.72351,,,,,,,,0.72351,1,,,,,,385,NW,"ID",50,veigma,VEIGMA,z,,,,,,0.283333333,-0.482407407,0,0,0,,0,161,161,324,1,
,,,,,,,,,,,,,,,,,,5755c957eb80c4000741a9ce,2020-08-10_17h48.30.479,lexical_decision_task_MP,2020.1.3,Win32,60,z,1,0.587975,,,,,,,,0.587975,1,,,,,,393,NW,"ID",50,ganous,GANOUS,z,,,,,,0.283333333,-0.482407407,0,0,0,,0,162,162,332,1,
,,,,,,,,,,,,,,,,,,5755c957eb80c4000741a9ce,2020-08-10_17h48.30.479,lexical_decision_task_MP,2020.1.3,Win32,60,z,1,0.605645,,,,,,,,0.605645,1,,,,,,251,NW,UN,50,stapod,LUPICT,z,,,,,,0.283333333,-0.482407407,0,0,0,,0,163,163,430,1,
,,,,,,,,,,,,,,,,,,5755c957eb80c4000741a9ce,2020-08-10_17h48.30.479,lexical_decision_task_MP,2020.1.3,Win32,60,z,1,1.02089,,,,,,,,1.02089,1,,,,,,418,NW,"ID",50,suidle,SUIDLE,z,,,,,,0.283333333,-0.482407407,0,0,0,,0,164,164,357,1,
,,,,,,,,,,,,,,,,,,5755c957eb80c4000741a9ce,2020-08-10_17h48.30.479,lexical_decision_task_MP,2020.1.3,Win32,60,m,1,0.718595,,,,,,,,0.718595,1,,,,,,221,WORD,UN,33,hinder,MASCOT,m,,,,,,0.283333333,-0.482407407,0,0,0,,0,165,165,160,1,
,,,,,,,,,,,,,,,,,,5755c957eb80c4000741a9ce,2020-08-10_17h48.30.479,lexical_decision_task_MP,2020.1.3,Win32,60,z,1,0.66683,,,,,,,,0.66683,1,,,,,,297,NW,UN,50,piergy,FERTIC,z,,,,,,0.283333333,-0.482407407,0,0,0,,0,166,166,476,1,
,,,,,,,,,,,,,,,,,,5755c957eb80c4000741a9ce,2020-08-10_17h48.30.479,lexical_decision_task_MP,2020.1.3,Win32,60,m,1,0.66636,,,,,,,,0.66636,1,,,,,,35,WORD,UN,50,vanish,SOCKET,m,,,,,,0.283333333,-0.482407407,0,0,0,,0,167,167,214,1,
,,,,,,,,,,,,,,,,,,5755c957eb80c4000741a9ce,2020-08-10_17h48.30.479,lexical_decision_task_MP,2020.1.3,Win32,60,m,1,0.670895,,,,,,,,0.670895,1,,,,,,19,WORD,UN,50,breast,PATRON,m,,,,,,0.283333333,-0.482407407,0,0,0,,0,168,168,198,1,
,,,,,,,,,,,,,,,,,,5755c957eb80c4000741a9ce,2020-08-10_17h48.30.479,lexical_decision_task_MP,2020.1.3,Win32,60,m,1,0.533725,,,,,,,,0.533725,1,,,,,,179,WORD,"ID",50,basket,BASKET,m,,,,,,0.283333333,-0.482407407,0,0,0,,0,169,169,118,1,
,,,,,,,,,,,,,,,,,,5755c957eb80c4000741a9ce,2020-08-10_17h48.30.479,lexical_decision_task_MP,2020.1.3,Win32,60,z,1,0.721385,,,,,,,,0.721385,1,,,,,,322,NW,"ID",33,slanch,SLANCH,z,,,,,,0.283333333,-0.482407407,0,0,0,,0,170,170,261,1,
,,,,,,,,,,,,,,,,,,5755c957eb80c4000741a9ce,2020-08-10_17h48.30.479,lexical_decision_task_MP,2020.1.3,Win32,60,z,1,0.796835,,,,,,,,0.796835,1,,,,,,370,NW,"ID",50,sleact,SLEACT,z,,,,,,0.283333333,-0.482407407,0,0,0,,0,171,171,309,1,
,,,,,,,,,,,,,,,,,,5755c957eb80c4000741a9ce,2020-08-10_17h48.30.479,lexical_decision_task_MP,2020.1.3,Win32,60,m,1,0.60738,,,,,,,,0.60738,1,,,,,,118,WORD,"ID",33,flight,FLIGHT,m,,,,,,0.283333333,-0.482407407,0,0,0,,0,172,172,57,1,
,,,,,,,,,,,,,,,,,,5755c957eb80c4000741a9ce,2020-08-10_17h48.30.479,lexical_decision_task_MP,2020.1.3,Win32,60,z,1,0.656465,,,,,,,,0.656465,1,,,,,,437,NW,UN,33,baitch,SNAPEL,z,,,,,,0.283333333,-0.482407407,0,0,0,,0,173,173,376,1,
,,,,,,,,,,,,,,,,,,5755c957eb80c4000741a9ce,2020-08-10_17h48.30.479,lexical_decision_task_MP,2020.1.3,Win32,60,m,1,0.640115,,,,,,,,0.640115,1,,,,,,209,WORD,UN,33,monkey,SEARCH,m,,,,,,0.283333333,-0.482407407,0,0,0,,0,174,174,148,1,
,,,,,,,,,,,,,,,,,,5755c957eb80c4000741a9ce,2020-08-10_17h48.30.479,lexical_decision_task_MP,2020.1.3,Win32,60,m,1,0.67919,,,,,,,,0.67919,1,,,,,,43,WORD,UN,50,foster,TONGUE,m,,,,,,0.283333333,-0.482407407,0,0,0,,0,175,175,222,1,
,,,,,,,,,,,,,,,,,,5755c957eb80c4000741a9ce,2020-08-10_17h48.30.479,lexical_decision_task_MP,2020.1.3,Win32,60,m,1,0.63784,,,,,,,,0.63784,1,,,,,,224,WORD,UN,33,vulgar,PERIOD,m,,,,,,0.283333333,-0.482407407,0,0,0,,0,176,176,163,1,
,,,,,,,,,,,,,,,,,,5755c957eb80c4000741a9ce,2020-08-10_17h48.30.479,lexical_decision_task_MP,2020.1.3,Win32,60,z,1,0.587985,,,,,,,,0.587985,1,,,,,,474,NW,UN,33,acrise,HABLIN,z,,,,,,0.283333333,-0.482407407,0,0,0,,0,177,177,413,1,
,,,,,,,,,,,,,,,,,,5755c957eb80c4000741a9ce,2020-08-10_17h48.30.479,lexical_decision_task_MP,2020.1.3,Win32,60,z,1,0.6497,,,,,,,,0.6497,1,,,,,,327,NW,"ID",33,plenac,PLENAC,z,,,,,,0.283333333,-0.482407407,0,0,0,,0,178,178,266,1,
,,,,,,,,,,,,,,,,,,5755c957eb80c4000741a9ce,2020-08-10_17h48.30.479,lexical_decision_task_MP,2020.1.3,Win32,60,z,1,0.783305,,,,,,,,0.783305,1,,,,,,248,NW,UN,50,batrol,STROLE,z,,,,,,0.283333333,-0.482407407,0,0,0,,0,179,179,427,1,
,,,,,,,,,,,,,,,,,,5755c957eb80c4000741a9ce,2020-08-10_17h48.30.479,lexical_decision_task_MP,2020.1.3,Win32,60,z,1,0.766825,,,,,,,,0.766825,1,,,,,,457,NW,UN,33,barcet,WANIGH,z,,,,,,0.283333333,-0.482407407,0,0,0,,0,180,180,396,1,
,,,,,,,,,,,,,,,,,,5755c957eb80c4000741a9ce,2020-08-10_17h48.30.479,lexical_decision_task_MP,2020.1.3,Win32,60,z,1,0.55378,,,,,,,,0.55378,1,,,,,,362,NW,"ID",50,tireau,TIREAU,z,,,,,,0.283333333,-0.482407407,0,0,0,,0,181,181,301,1,
,,,,,,,,,,,,,,,,,,5755c957eb80c4000741a9ce,2020-08-10_17h48.30.479,lexical_decision_task_MP,2020.1.3,Win32,60,m,1,1.00515,,,,,,,,1.00515,1,,,,,,33,WORD,UN,50,jungle,BUTLER,m,,,,,,0.283333333,-0.482407407,0,0,0,,0,182,182,212,1,
,,,,,,,,,,,,,,,,,,5755c957eb80c4000741a9ce,2020-08-10_17h48.30.479,lexical_decision_task_MP,2020.1.3,Win32,60,z,1,0.66086,,,,,,,,0.66086,1,,,,,,435,NW,UN,33,frutan,IMPURB,z,,,,,,0.283333333,-0.482407407,0,0,0,,0,183,183,374,1,
,,,,,,,,,,,,,,,,,,5755c957eb80c4000741a9ce,2020-08-10_17h48.30.479,lexical_decision_task_MP,2020.1.3,Win32,60,z,1,0.57066,,,,,,,,0.57066,1,,,,,,308,NW,"ID",33,psetch,PSETCH,z,,,,,,0.283333333,-0.482407407,0,0,0,,0,184,184,247,1,
,,,,,,,,,,,,,,,,,,5755c957eb80c4000741a9ce,2020-08-10_17h48.30.479,lexical_decision_task_MP,2020.1.3,Win32,60,z,1,0.73667,,,,,,,,0.73667,1,,,,,,325,NW,"ID",33,thruse,THRUSE,z,,,,,,0.283333333,-0.482407407,0,0,0,,0,185,185,264,1,
,,,,,,,,,,,,,,,,,,5755c957eb80c4000741a9ce,2020-08-10_17h48.30.479,lexical_decision_task_MP,2020.1.3,Win32,60,z,1,0.722415,,,,,,,,0.722415,1,,,,,,458,NW,UN,33,hocite,BARCET,z,,,,,,0.283333333,-0.482407407,0,0,0,,0,186,186,397,1,
,,,,,,,,,,,,,,,,,,5755c957eb80c4000741a9ce,2020-08-10_17h48.30.479,lexical_decision_task_MP,2020.1.3,Win32,60,m,1,0.760825,,,,,,,,0.760825,1,,,,,,87,WORD,"ID",33,filter,FILTER,m,,,,,,0.283333333,-0.482407407,0,0,0,,0,187,187,26,1,
,,,,,,,,,,,,,,,,,,5755c957eb80c4000741a9ce,2020-08-10_17h48.30.479,lexical_decision_task_MP,2020.1.3,Win32,60,z,1,0.69722,,,,,,,,0.69722,1,,,,,,323,NW,"ID",33,rosail,ROSAIL,z,,,,,,0.283333333,-0.482407407,0,0,0,,0,188,188,262,1,
,,,,,,,,,,,,,,,,,,5755c957eb80c4000741a9ce,2020-08-10_17h48.30.479,lexical_decision_task_MP,2020.1.3,Win32,60,z,1,0.56248,,,,,,,,0.56248,1,,,,,,320,NW,"ID",33,jockal,JOCKAL,z,,,,,,0.283333333,-0.482407407,0,0,0,,0,189,189,259,1,
,,,,,,,,,,,,,,,,,,5755c957eb80c4000741a9ce,2020-08-10_17h48.30.479,lexical_decision_task_MP,2020.1.3,Win32,60,m,1,0.750425,,,,,,,,0.750425,1,,,,,,145,WORD,"ID",50,parish,PARISH,m,,,,,,0.283333333,-0.482407407,0,0,0,,0,190,190,84,1,
,,,,,,,,,,,,,,,,,,5755c957eb80c4000741a9ce,2020-08-10_17h48.30.479,lexical_decision_task_MP,2020.1.3,Win32,60,z,1,0.527125,,,,,,,,0.527125,1,,,,,,406,NW,"ID",50,nouply,NOUPLY,z,,,,,,0.283333333,-0.482407407,0,0,0,,0,191,191,345,1,
,,,,,,,,,,,,,,,,,,5755c957eb80c4000741a9ce,2020-08-10_17h48.30.479,lexical_decision_task_MP,2020.1.3,Win32,60,m,1,0.538395,,,,,,,,0.538395,1,,,,,,32,WORD,UN,50,scream,BUCKLE,m,,,,,,0.283333333,-0.482407407,0,0,0,,0,192,192,211,1,
,,,,,,,,,,,,,,,,,,5755c957eb80c4000741a9ce,2020-08-10_17h48.30.479,lexical_decision_task_MP,2020.1.3,Win32,60,z,0,0.534735,,,,,,,,0.534735,0,,,,,,22,WORD,UN,50,wealth,JOCKEY,m,,,,,,0.283333333,-0.482407407,0,0,0,,0,193,193,201,1,
,,,,,,,,,,,,,,,,,,5755c957eb80c4000741a9ce,2020-08-10_17h48.30.479,lexical_decision_task_MP,2020.1.3,Win32,60,z,1,0.738585,,,,,,,,0.738585,1,,,,,,469,NW,UN,33,crudio,PADIFS,z,,,,,,0.283333333,-0.482407407,0,0,0,,0,194,194,408,1,
,,,,,,,,,,,,,,,,,,5755c957eb80c4000741a9ce,2020-08-10_17h48.30.479,lexical_decision_task_MP,2020.1.3,Win32,60,m,1,0.56681,,,,,,,,0.56681,1,,,,,,190,WORD,UN,33,stable,BACKUP,m,,,,,,0.283333333,-0.482407407,0,0,0,,0,195,195,129,1,
,,,,,,,,,,,,,,,,,,5755c957eb80c4000741a9ce,2020-08-10_17h48.30.479,lexical_decision_task_MP,2020.1.3,Win32,60,m,1,0.575805,,,,,,,,0.575805,1,,,,,,128,WORD,"ID",50,senior,SENIOR,m,,,,,,0.283333333,-0.482407407,0,0,0,,0,196,196,67,1,
,,,,,,,,,,,,,,,,,,5755c957eb80c4000741a9ce,2020-08-10_17h48.30.479,lexical_decision_task_MP,2020.1.3,Win32,60,m,1,0.515755,,,,,,,,0.515755,1,,,,,,162,WORD,"ID",50,candle,CANDLE,m,,,,,,0.283333333,-0.482407407,0,0,0,,0,197,197,101,1,
,,,,,,,,,,,,,,,,,,5755c957eb80c4000741a9ce,2020-08-10_17h48.30.479,lexical_decision_task_MP,2020.1.3,Win32,60,m,1,0.55093,,,,,,,,0.55093,1,,,,,,231,WORD,UN,33,inject,EXPORT,m,,,,,,0.283333333,-0.482407407,0,0,0,,0,198,198,170,1,
,,,,,,,,,,,,,,,,,,5755c957eb80c4000741a9ce,2020-08-10_17h48.30.479,lexical_decision_task_MP,2020.1.3,Win32,60,z,1,0.665695,,,,,,,,0.665695,1,,,,,,292,NW,UN,50,swance,ABLINT,z,,,,,,0.283333333,-0.482407407,0,0,0,,0,199,199,471,1,
,,,,,,,,,,,,,,,,,,5755c957eb80c4000741a9ce,2020-08-10_17h48.30.479,lexical_decision_task_MP,2020.1.3,Win32,60,m,1,0.48798,,,,,,,,0.48798,1,,,,,,137,WORD,"ID",50,finger,FINGER,m,,,,,,0.283333333,-0.482407407,0,0,0,,0,200,200,76,1,
,,,,,,,,,,,,,,,,,,5755c957eb80c4000741a9ce,2020-08-10_17h48.30.479,lexical_decision_task_MP,2020.1.3,Win32,60,m,1,0.57342,,,,,,,,0.57342,1,,,,,,106,WORD,"ID",33,ransom,RANSOM,m,,,,,,0.283333333,-0.482407407,0,0,0,,0,201,201,45,1,
,,,,,,,,,,,,,,,,,,5755c957eb80c4000741a9ce,2020-08-10_17h48.30.479,lexical_decision_task_MP,2020.1.3,Win32,60,z,1,0.59261,,,,,,,,0.59261,1,,,,,,353,NW,"ID",33,clurey,CLUREY,z,,,,,,0.283333333,-0.482407407,0,0,0,,0,202,202,292,1,
,,,,,,,,,,,,,,,,,,5755c957eb80c4000741a9ce,2020-08-10_17h48.30.479,lexical_decision_task_MP,2020.1.3,Win32,60,z,1,0.61715,,,,,,,,0.61715,1,,,,,,408,NW,"ID",50,hurnia,HURNIA,z,,,,,,0.283333333,-0.482407407,0,0,0,,0,203,203,347,1,
,,,,,,,,,,,,,,,,,,5755c957eb80c4000741a9ce,2020-08-10_17h48.30.479,lexical_decision_task_MP,2020.1.3,Win32,60,z,1,0.65077,,,,,,,,0.65077,1,,,,,,472,NW,UN,33,gorbie,CIGNEY,z,,,,,,0.283333333,-0.482407407,0,0,0,,0,204,204,411,1,
,,,,,,,,,,,,,,,,,,5755c957eb80c4000741a9ce,2020-08-10_17h48.30.479,lexical_decision_task_MP,2020.1.3,Win32,60,z,1,0.5217,,,,,,,,0.5217,1,,,,,,376,NW,"ID",50,iguare,IGUARE,z,,,,,,0.283333333,-0.482407407,0,0,0,,0,205,205,315,1,
,,,,,,,,,,,,,,,,,,5755c957eb80c4000741a9ce,2020-08-10_17h48.30.479,lexical_decision_task_MP,2020.1.3,Win32,60,m,1,0.533405,,,,,,,,0.533405,1,,,,,,81,WORD,"ID",33,friend,FRIEND,m,,,,,,0.283333333,-0.482407407,0,0,0,,0,206,206,20,1,
,,,,,,,,,,,,,,,,,,5755c957eb80c4000741a9ce,2020-08-10_17h48.30.479,lexical_decision_task_MP,2020.1.3,Win32,60,m,1,0.60866,,,,,,,,0.60866,1,,,,,,56,WORD,UN,50,change,AMBUSH,m,,,,,,0.283333333,-0.482407407,0,0,0,,0,207,207,235,1,
,,,,,,,,,,,,,,,,,,5755c957eb80c4000741a9ce,2020-08-10_17h48.30.479,lexical_decision_task_MP,2020.1.3,Win32,60,m,1,0.545385,,,,,,,,0.545385,1,,,,,,36,WORD,UN,50,insult,VANISH,m,,,,,,0.283333333,-0.482407407,0,0,0,,0,208,208,215,1,
,,,,,,,,,,,,,,,,,,5755c957eb80c4000741a9ce,2020-08-10_17h48.30.479,lexical_decision_task_MP,2020.1.3,Win32,60,z,1,0.701455,,,,,,,,0.701455,1,,,,,,369,NW,"ID",50,wronch,WRONCH,z,,,,,,0.283333333,-0.482407407,0,0,0,,0,209,209,308,1,
,,,,,,,,,,,,,,,,,,5755c957eb80c4000741a9ce,2020-08-10_17h48.30.479,lexical_decision_task_MP,2020.1.3,Win32,60,m,1,0.641165,,,,,,,,0.641165,1,,,,,,197,WORD,UN,33,wicked,STREAM,m,,,,,,0.283333333,-0.482407407,0,0,0,,0,210,210,136,1,
,,,,,,,,,,,,,,,,,,5755c957eb80c4000741a9ce,2020-08-10_17h48.30.479,lexical_decision_task_MP,2020.1.3,Win32,60,z,1,0.593615,,,,,,,,0.593615,1,,,,,,404,NW,"ID",50,cluirm,CLUIRM,z,,,,,,0.283333333,-0.482407407,0,0,0,,0,211,211,343,1,
,,,,,,,,,,,,,,,,,,5755c957eb80c4000741a9ce,2020-08-10_17h48.30.479,lexical_decision_task_MP,2020.1.3,Win32,60,m,1,0.723455,,,,,,,,0.723455,1,,,,,,230,WORD,UN,33,mother,FRINGE,m,,,,,,0.283333333,-0.482407407,0,0,0,,0,212,212,169,1,
,,,,,,,,,,,,,,,,,,5755c957eb80c4000741a9ce,2020-08-10_17h48.30.479,lexical_decision_task_MP,2020.1.3,Win32,60,m,1,0.720125,,,,,,,,0.720125,1,,,,,,239,WORD,UN,33,forest,LUMBER,m,,,,,,0.283333333,-0.482407407,0,0,0,,0,213,213,178,1,
,,,,,,,,,,,,,,,,,,5755c957eb80c4000741a9ce,2020-08-10_17h48.30.479,lexical_decision_task_MP,2020.1.3,Win32,60,z,1,0.61296,,,,,,,,0.61296,1,,,,,,290,NW,UN,50,pretch,SPLINO,z,,,,,,0.283333333,-0.482407407,0,0,0,,0,214,214,469,1,
,,,,,,,,,,,,,,,,,,5755c957eb80c4000741a9ce,2020-08-10_17h48.30.479,lexical_decision_task_MP,2020.1.3,Win32,60,m,1,0.57229,,,,,,,,0.57229,1,,,,,,2,WORD,UN,50,knight,BRIDGE,m,,,,,,0.283333333,-0.482407407,0,0,0,,0,215,215,181,1,
,,,,,,,,,,,,,,,,,,5755c957eb80c4000741a9ce,2020-08-10_17h48.30.479,lexical_decision_task_MP,2020.1.3,Win32,60,m,1,0.566775,,,,,,,,0.566775,1,,,,,,147,WORD,"ID",50,garlic,GARLIC,m,,,,,,0.283333333,-0.482407407,0,0,0,,0,216,216,86,1,
,,,,,,,,,,,,,,,,,,5755c957eb80c4000741a9ce,2020-08-10_17h48.30.479,lexical_decision_task_MP,2020.1.3,Win32,60,m,1,0.608845,,,,,,,,0.608845,1,,,,,,171,WORD,"ID",50,depart,DEPART,m,,,,,,0.283333333,-0.482407407,0,0,0,,0,217,217,110,1,
,,,,,,,,,,,,,,,,,,5755c957eb80c4000741a9ce,2020-08-10_17h48.30.479,lexical_decision_task_MP,2020.1.3,Win32,60,z,1,0.625375,,,,,,,,0.625375,1,,,,,,382,NW,"ID",50,sarley,SARLEY,z,,,,,,0.283333333,-0.482407407,0,0,0,,0,218,218,321,1,
,,,,,,,,,,,,,,,,,,5755c957eb80c4000741a9ce,2020-08-10_17h48.30.479,lexical_decision_task_MP,2020.1.3,Win32,60,m,1,0.499265,,,,,,,,0.499265,1,,,,,,154,WORD,"ID",50,author,AUTHOR,m,,,,,,0.283333333,-0.482407407,0,0,0,,0,219,219,93,1,
,,,,,,,,,,,,,,,,,,5755c957eb80c4000741a9ce,2020-08-10_17h48.30.479,lexical_decision_task_MP,2020.1.3,Win32,60,m,1,0.81584,,,,,,,,0.81584,1,,,,,,74,WORD,"ID",33,plaque,PLAQUE,m,,,,,,0.283333333,-0.482407407,0,0,0,,0,220,220,13,1,
,,,,,,,,,,,,,,,,,,5755c957eb80c4000741a9ce,2020-08-10_17h48.30.479,lexical_decision_task_MP,2020.1.3,Win32,60,m,1,0.575105,,,,,,,,0.575105,1,,,,,,31,WORD,UN,50,buckle,WEAPON,m,,,,,,0.283333333,-0.482407407,0,0,0,,0,221,221,210,1,
,,,,,,,,,,,,,,,,,,5755c957eb80c4000741a9ce,2020-08-10_17h48.30.479,lexical_decision_task_MP,2020.1.3,Win32,60,z,1,0.68309,,,,,,,,0.68309,1,,,,,,302,NW,"ID",33,miluer,MILUER,z,,,,,,0.283333333,-0.482407407,0,0,0,,0,222,222,241,1,
,,,,,,,,,,,,,,,,,,5755c957eb80c4000741a9ce,2020-08-10_17h48.30.479,lexical_decision_task_MP,2020.1.3,Win32,60,z,1,0.751725,,,,,,,,0.751725,1,,,,,,315,NW,"ID",33,laston,LASTON,z,,,,,,0.283333333,-0.482407407,0,0,0,,0,223,223,254,1,
,,,,,,,,,,,,,,,,,,5755c957eb80c4000741a9ce,2020-08-10_17h48.30.479,lexical_decision_task_MP,2020.1.3,Win32,60,z,1,0.706135,,,,,,,,0.706135,1,,,,,,356,NW,"ID",33,othnis,OTHNIS,z,,,,,,0.283333333,-0.482407407,0,0,0,,0,224,224,295,1,
,,,,,,,,,,,,,,,,,,5755c957eb80c4000741a9ce,2020-08-10_17h48.30.479,lexical_decision_task_MP,2020.1.3,Win32,60,m,1,0.751265,,,,,,,,0.751265,1,,,,,,177,WORD,"ID",50,advent,ADVENT,m,,,,,,0.283333333,-0.482407407,0,0,0,,0,225,225,116,1,
,,,,,,,,,,,,,,,,,,5755c957eb80c4000741a9ce,2020-08-10_17h48.30.479,lexical_decision_task_MP,2020.1.3,Win32,60,z,1,0.578365,,,,,,,,0.578365,1,,,,,,280,NW,UN,50,melaty,CURBOL,z,,,,,,0.283333333,-0.482407407,0,0,0,,0,226,226,459,1,
,,,,,,,,,,,,,,,,,,5755c957eb80c4000741a9ce,2020-08-10_17h48.30.479,lexical_decision_task_MP,2020.1.3,Win32,60,z,1,0.644875,,,,,,,,0.644875,1,,,,,,301,NW,"ID",33,fainch,FAINCH,z,,,,,,0.283333333,-0.482407407,0,0,0,,0,227,227,240,1,
,,,,,,,,,,,,,,,,,,5755c957eb80c4000741a9ce,2020-08-10_17h48.30.479,lexical_decision_task_MP,2020.1.3,Win32,60,z,1,0.58824,,,,,,,,0.58824,1,,,,,,242,NW,UN,50,musied,UNWERT,z,,,,,,0.283333333,-0.482407407,0,0,0,,0,228,228,421,1,
,,,,,,,,,,,,,,,,,,5755c957eb80c4000741a9ce,2020-08-10_17h48.30.479,lexical_decision_task_MP,2020.1.3,Win32,60,z,1,0.80543,,,,,,,,0.80543,1,,,,,,419,NW,"ID",50,slount,SLOUNT,z,,,,,,0.283333333,-0.482407407,0,0,0,,0,229,229,358,1,
,,,,,,,,,,,,,,,,,,5755c957eb80c4000741a9ce,2020-08-10_17h48.30.479,lexical_decision_task_MP,2020.1.3,Win32,60,z,0,0.631215,,,,,,,,0.631215,0,,,,,,123,WORD,"ID",50,strike,STRIKE,m,,,,,,0.283333333,-0.482407407,0,0,0,,0,230,230,62,1,
,,,,,,,,,,,,,,,,,,5755c957eb80c4000741a9ce,2020-08-10_17h48.30.479,lexical_decision_task_MP,2020.1.3,Win32,60,m,1,0.884645,,,,,,,,0.884645,1,,,,,,16,WORD,UN,50,charge,FAUCET,m,,,,,,0.283333333,-0.482407407,0,0,0,,0,231,231,195,1,
,,,,,,,,,,,,,,,,,,5755c957eb80c4000741a9ce,2020-08-10_17h48.30.479,lexical_decision_task_MP,2020.1.3,Win32,60,m,1,0.60358,,,,,,,,0.60358,1,,,,,,191,WORD,UN,33,beacon,STABLE,m,,,,,,0.283333333,-0.482407407,0,0,0,,0,232,232,130,1,
,,,,,,,,,,,,,,,,,,5755c957eb80c4000741a9ce,2020-08-10_17h48.30.479,lexical_decision_task_MP,2020.1.3,Win32,60,z,1,0.772085,,,,,,,,0.772085,1,,,,,,244,NW,UN,50,anougs,EATRIC,z,,,,,,0.283333333,-0.482407407,0,0,0,,0,233,233,423,1,
,,,,,,,,,,,,,,,,,,5755c957eb80c4000741a9ce,2020-08-10_17h48.30.479,lexical_decision_task_MP,2020.1.3,Win32,60,z,1,0.604075,,,,,,,,0.604075,1,,,,,,394,NW,"ID",50,spaqux,SPAQUX,z,,,,,,0.283333333,-0.482407407,0,0,0,,0,234,234,333,1,
,,,,,,,,,,,,,,,,,,5755c957eb80c4000741a9ce,2020-08-10_17h48.30.479,lexical_decision_task_MP,2020.1.3,Win32,60,z,1,0.58307,,,,,,,,0.58307,1,,,,,,477,NW,UN,33,lobush,PHOTIE,z,,,,,,0.283333333,-0.482407407,0,0,0,,0,235,235,416,1,
,,,,,,,,,,,,,,,,,,5755c957eb80c4000741a9ce,2020-08-10_17h48.30.479,lexical_decision_task_MP,2020.1.3,Win32,60,z,1,0.640875,,,,,,,,0.640875,1,,,,,,257,NW,UN,50,poluth,VENIOD,z,,,,,,0.283333333,-0.482407407,0,0,0,,0,236,236,436,1,
,,,,,,,,,,,,,,,,,,5755c957eb80c4000741a9ce,2020-08-10_17h48.30.479,lexical_decision_task_MP,2020.1.3,Win32,60,z,1,0.560995,,,,,,,,0.560995,1,,,,,,431,NW,UN,33,lunker,CHRUMS,z,,,,,,0.283333333,-0.482407407,0,0,0,,0,237,237,370,1,
,,,,,,,,,,,,,,,,,,5755c957eb80c4000741a9ce,2020-08-10_17h48.30.479,lexical_decision_task_MP,2020.1.3,Win32,60,z,1,0.540825,,,,,,,,0.540825,1,,,,,,450,NW,UN,33,cainky,PHRECT,z,,,,,,0.283333333,-0.482407407,0,0,0,,0,238,238,389,1,
,,,,,,,,,,,,,,,,,,5755c957eb80c4000741a9ce,2020-08-10_17h48.30.479,lexical_decision_task_MP,2020.1.3,Win32,60,m,1,0.726145,,,,,,,,0.726145,1,,,,,,61,WORD,"ID",33,ponder,PONDER,m,,,,,,0.283333333,-0.482407407,0,0,0,,0,239,239,0,1,
,,,,,,,,,,,,,,,,,,5755c957eb80c4000741a9ce,2020-08-10_17h48.30.479,lexical_decision_task_MP,2020.1.3,Win32,60,z,1,0.621665,,,,,,,,0.621665,1,,,,,,386,NW,"ID",50,ancust,ANCUST,z,,,,,,0.283333333,-0.482407407,0,0,0,,0,240,240,325,1,
,,,,,,,,,,,,,,,,,,5755c957eb80c4000741a9ce,2020-08-10_17h48.30.479,lexical_decision_task_MP,2020.1.3,Win32,60,m,0,0.8271,,,,,,,,0.8271,0,,,,,,425,NW,UN,33,urivel,FRUDGE,z,,,,,,0.283333333,-0.482407407,0,0,0,space,0,241,241,364,1,3.337045
,,,,,,,,,,,,,,,,,,5755c957eb80c4000741a9ce,2020-08-10_17h48.30.479,lexical_decision_task_MP,2020.1.3,Win32,60,z,1,0.649945,,,,,,,,0.649945,1,,,,,,247,NW,UN,50,strole,BLARGE,z,,,,,,0.283333333,-0.482407407,0,0,0,,0,242,242,426,1,
,,,,,,,,,,,,,,,,,,5755c957eb80c4000741a9ce,2020-08-10_17h48.30.479,lexical_decision_task_MP,2020.1.3,Win32,60,m,1,0.518185,,,,,,,,0.518185,1,,,,,,167,WORD,"ID",50,design,DESIGN,m,,,,,,0.283333333,-0.482407407,0,0,0,,0,243,243,106,1,
,,,,,,,,,,,,,,,,,,5755c957eb80c4000741a9ce,2020-08-10_17h48.30.479,lexical_decision_task_MP,2020.1.3,Win32,60,m,1,0.47912,,,,,,,,0.47912,1,,,,,,88,WORD,"ID",33,hunger,HUNGER,m,,,,,,0.283333333,-0.482407407,0,0,0,,0,244,244,27,1,
,,,,,,,,,,,,,,,,,,5755c957eb80c4000741a9ce,2020-08-10_17h48.30.479,lexical_decision_task_MP,2020.1.3,Win32,60,m,1,0.50251,,,,,,,,0.50251,1,,,,,,135,WORD,"ID",50,import,IMPORT,m,,,,,,0.283333333,-0.482407407,0,0,0,,0,245,245,74,1,
,,,,,,,,,,,,,,,,,,5755c957eb80c4000741a9ce,2020-08-10_17h48.30.479,lexical_decision_task_MP,2020.1.3,Win32,60,m,1,0.48351,,,,,,,,0.48351,1,,,,,,125,WORD,"ID",50,nickel,NICKEL,m,,,,,,0.283333333,-0.482407407,0,0,0,,0,246,246,64,1,
,,,,,,,,,,,,,,,,,,5755c957eb80c4000741a9ce,2020-08-10_17h48.30.479,lexical_decision_task_MP,2020.1.3,Win32,60,z,1,0.4611,,,,,,,,0.4611,1,,,,,,277,NW,UN,50,unighs,PETAIN,z,,,,,,0.283333333,-0.482407407,0,0,0,,0,247,247,456,1,
,,,,,,,,,,,,,,,,,,5755c957eb80c4000741a9ce,2020-08-10_17h48.30.479,lexical_decision_task_MP,2020.1.3,Win32,60,z,1,0.720615,,,,,,,,0.720615,1,,,,,,463,NW,UN,33,chaite,KISPEL,z,,,,,,0.283333333,-0.482407407,0,0,0,,0,248,248,402,1,
,,,,,,,,,,,,,,,,,,5755c957eb80c4000741a9ce,2020-08-10_17h48.30.479,lexical_decision_task_MP,2020.1.3,Win32,60,z,1,0.73949,,,,,,,,0.73949,1,,,,,,384,NW,"ID",50,guesco,GUESCO,z,,,,,,0.283333333,-0.482407407,0,0,0,,0,249,249,323,1,
,,,,,,,,,,,,,,,,,,5755c957eb80c4000741a9ce,2020-08-10_17h48.30.479,lexical_decision_task_MP,2020.1.3,Win32,60,m,1,0.64013,,,,,,,,0.64013,1,,,,,,205,WORD,UN,33,tailor,LOUNGE,m,,,,,,0.283333333,-0.482407407,0,0,0,,0,250,250,144,1,
,,,,,,,,,,,,,,,,,,5755c957eb80c4000741a9ce,2020-08-10_17h48.30.479,lexical_decision_task_MP,2020.1.3,Win32,60,z,0,0.624465,,,,,,,,0.624465,0,,,,,,217,WORD,UN,33,shrink,LIQUOR,m,,,,,,0.283333333,-0.482407407,0,0,0,,0,251,251,156,1,
,,,,,,,,,,,,,,,,,,5755c957eb80c4000741a9ce,2020-08-10_17h48.30.479,lexical_decision_task_MP,2020.1.3,Win32,60,m,1,0.729215,,,,,,,,0.729215,1,,,,,,6,WORD,UN,50,anchor,BUNDLE,m,,,,,,0.283333333,-0.482407407,0,0,0,,0,252,252,185,1,
,,,,,,,,,,,,,,,,,,5755c957eb80c4000741a9ce,2020-08-10_17h48.30.479,lexical_decision_task_MP,2020.1.3,Win32,60,m,1,0.53997,,,,,,,,0.53997,1,,,,,,28,WORD,UN,50,sketch,COMEDY,m,,,,,,0.283333333,-0.482407407,0,0,0,,0,253,253,207,1,
,,,,,,,,,,,,,,,,,,5755c957eb80c4000741a9ce,2020-08-10_17h48.30.479,lexical_decision_task_MP,2020.1.3,Win32,60,m,1,0.800235,,,,,,,,0.800235,1,,,,,,86,WORD,"ID",33,rodent,RODENT,m,,,,,,0.283333333,-0.482407407,0,0,0,,0,254,254,25,1,
,,,,,,,,,,,,,,,,,,5755c957eb80c4000741a9ce,2020-08-10_17h48.30.479,lexical_decision_task_MP,2020.1.3,Win32,60,m,1,0.793025,,,,,,,,0.793025,1,,,,,,124,WORD,"ID",50,blouse,BLOUSE,m,,,,,,0.283333333,-0.482407407,0,0,0,,0,255,255,63,1,
,,,,,,,,,,,,,,,,,,5755c957eb80c4000741a9ce,2020-08-10_17h48.30.479,lexical_decision_task_MP,2020.1.3,Win32,60,m,1,0.618645,,,,,,,,0.618645,1,,,,,,15,WORD,UN,50,faucet,AMOUNT,m,,,,,,0.283333333,-0.482407407,0,0,0,,0,256,256,194,1,
,,,,,,,,,,,,,,,,,,5755c957eb80c4000741a9ce,2020-08-10_17h48.30.479,lexical_decision_task_MP,2020.1.3,Win32,60,m,1,0.47544,,,,,,,,0.47544,1,,,,,,91,WORD,"ID",33,expand,EXPAND,m,,,,,,0.283333333,-0.482407407,0,0,0,,0,257,257,30,1,
,,,,,,,,,,,,,,,,,,5755c957eb80c4000741a9ce,2020-08-10_17h48.30.479,lexical_decision_task_MP,2020.1.3,Win32,60,z,1,0.560965,,,,,,,,0.560965,1,,,,,,298,NW,UN,50,sturch,PIERGY,z,,,,,,0.283333333,-0.482407407,0,0,0,,0,258,258,477,1,
,,,,,,,,,,,,,,,,,,5755c957eb80c4000741a9ce,2020-08-10_17h48.30.479,lexical_decision_task_MP,2020.1.3,Win32,60,z,1,0.58266,,,,,,,,0.58266,1,,,,,,349,NW,"ID",33,asylen,ASYLEN,z,,,,,,0.283333333,-0.482407407,0,0,0,,0,259,259,288,1,
,,,,,,,,,,,,,,,,,,5755c957eb80c4000741a9ce,2020-08-10_17h48.30.479,lexical_decision_task_MP,2020.1.3,Win32,60,z,1,1.02185,,,,,,,,1.02185,1,,,,,,420,NW,"ID",50,gushop,GUSHOP,z,,,,,,0.283333333,-0.482407407,0,0,0,,0,260,260,359,1,
,,,,,,,,,,,,,,,,,,5755c957eb80c4000741a9ce,2020-08-10_17h48.30.479,lexical_decision_task_MP,2020.1.3,Win32,60,z,1,0.654435,,,,,,,,0.654435,1,,,,,,402,NW,"ID",50,syntic,SYNTIC,z,,,,,,0.283333333,-0.482407407,0,0,0,,0,261,261,341,1,
,,,,,,,,,,,,,,,,,,5755c957eb80c4000741a9ce,2020-08-10_17h48.30.479,lexical_decision_task_MP,2020.1.3,Win32,60,m,1,0.57189,,,,,,,,0.57189,1,,,,,,161,WORD,"ID",50,pastor,PASTOR,m,,,,,,0.283333333,-0.482407407,0,0,0,,0,262,262,100,1,
,,,,,,,,,,,,,,,,,,5755c957eb80c4000741a9ce,2020-08-10_17h48.30.479,lexical_decision_task_MP,2020.1.3,Win32,60,z,1,0.6158,,,,,,,,0.6158,1,,,,,,399,NW,"ID",50,fouret,FOURET,z,,,,,,0.283333333,-0.482407407,0,0,0,,0,263,263,338,1,
,,,,,,,,,,,,,,,,,,5755c957eb80c4000741a9ce,2020-08-10_17h48.30.479,lexical_decision_task_MP,2020.1.3,Win32,60,m,1,0.55129,,,,,,,,0.55129,1,,,,,,155,WORD,"ID",50,lizard,LIZARD,m,,,,,,0.283333333,-0.482407407,0,0,0,,0,264,264,94,1,
,,,,,,,,,,,,,,,,,,5755c957eb80c4000741a9ce,2020-08-10_17h48.30.479,lexical_decision_task_MP,2020.1.3,Win32,60,z,1,0.65,,,,,,,,0.65,1,,,,,,348,NW,"ID",33,dumple,DUMPLE,z,,,,,,0.283333333,-0.482407407,0,0,0,,0,265,265,287,1,
,,,,,,,,,,,,,,,,,,5755c957eb80c4000741a9ce,2020-08-10_17h48.30.479,lexical_decision_task_MP,2020.1.3,Win32,60,z,1,0.59295,,,,,,,,0.59295,1,,,,,,265,NW,UN,50,varmit,DISTAR,z,,,,,,0.283333333,-0.482407407,0,0,0,,0,266,266,444,1,
,,,,,,,,,,,,,,,,,,5755c957eb80c4000741a9ce,2020-08-10_17h48.30.479,lexical_decision_task_MP,2020.1.3,Win32,60,z,1,0.546835,,,,,,,,0.546835,1,,,,,,440,NW,UN,33,rastoe,SARIDE,z,,,,,,0.283333333,-0.482407407,0,0,0,,0,267,267,379,1,
,,,,,,,,,,,,,,,,,,5755c957eb80c4000741a9ce,2020-08-10_17h48.30.479,lexical_decision_task_MP,2020.1.3,Win32,60,m,1,0.599805,,,,,,,,0.599805,1,,,,,,100,WORD,"ID",33,carbon,CARBON,m,,,,,,0.283333333,-0.482407407,0,0,0,,0,268,268,39,1,
,,,,,,,,,,,,,,,,,,5755c957eb80c4000741a9ce,2020-08-10_17h48.30.479,lexical_decision_task_MP,2020.1.3,Win32,60,z,1,0.608315,,,,,,,,0.608315,1,,,,,,460,NW,UN,33,justre,MINGAR,z,,,,,,0.283333333,-0.482407407,0,0,0,,0,269,269,399,1,
,,,,,,,,,,,,,,,,,,5755c957eb80c4000741a9ce,2020-08-10_17h48.30.479,lexical_decision_task_MP,2020.1.3,Win32,60,m,1,0.576965,,,,,,,,0.576965,1,,,,,,96,WORD,"ID",33,ignore,IGNORE,m,,,,,,0.283333333,-0.482407407,0,0,0,,0,270,270,35,1,
,,,,,,,,,,,,,,,,,,5755c957eb80c4000741a9ce,2020-08-10_17h48.30.479,lexical_decision_task_MP,2020.1.3,Win32,60,z,1,0.490595,,,,,,,,0.490595,1,,,,,,289,NW,UN,50,splino,STARBY,z,,,,,,0.283333333,-0.482407407,0,0,0,,0,271,271,468,1,
,,,,,,,,,,,,,,,,,,5755c957eb80c4000741a9ce,2020-08-10_17h48.30.479,lexical_decision_task_MP,2020.1.3,Win32,60,z,1,0.439265,,,,,,,,0.439265,1,,,,,,275,NW,UN,50,yarmon,SLEIRT,z,,,,,,0.283333333,-0.482407407,0,0,0,,0,272,272,454,1,
,,,,,,,,,,,,,,,,,,5755c957eb80c4000741a9ce,2020-08-10_17h48.30.479,lexical_decision_task_MP,2020.1.3,Win32,60,z,1,0.64,,,,,,,,0.64,1,,,,,,378,NW,"ID",50,shrile,SHRILE,z,,,,,,0.283333333,-0.482407407,0,0,0,,0,273,273,317,1,
,,,,,,,,,,,,,,,,,,5755c957eb80c4000741a9ce,2020-08-10_17h48.30.479,lexical_decision_task_MP,2020.1.3,Win32,60,m,1,0.66539,,,,,,,,0.66539,1,,,,,,90,WORD,"ID",33,relish,RELISH,m,,,,,,0.283333333,-0.482407407,0,0,0,,0,274,274,29,1,
,,,,,,,,,,,,,,,,,,5755c957eb80c4000741a9ce,2020-08-10_17h48.30.479,lexical_decision_task_MP,2020.1.3,Win32,60,z,1,0.590365,,,,,,,,0.590365,1,,,,,,365,NW,"ID",50,guairt,GUAIRT,z,,,,,,0.283333333,-0.482407407,0,0,0,,0,275,275,304,1,
,,,,,,,,,,,,,,,,,,5755c957eb80c4000741a9ce,2020-08-10_17h48.30.479,lexical_decision_task_MP,2020.1.3,Win32,60,m,1,0.592145,,,,,,,,0.592145,1,,,,,,107,WORD,"ID",33,slogan,SLOGAN,m,,,,,,0.283333333,-0.482407407,0,0,0,,0,276,276,46,1,
,,,,,,,,,,,,,,,,,,5755c957eb80c4000741a9ce,2020-08-10_17h48.30.479,lexical_decision_task_MP,2020.1.3,Win32,60,z,1,0.56371,,,,,,,,0.56371,1,,,,,,465,NW,UN,33,bafent,WHIVEX,z,,,,,,0.283333333,-0.482407407,0,0,0,,0,277,277,404,1,
,,,,,,,,,,,,,,,,,,5755c957eb80c4000741a9ce,2020-08-10_17h48.30.479,lexical_decision_task_MP,2020.1.3,Win32,60,m,1,0.475885,,,,,,,,0.475885,1,,,,,,110,WORD,"ID",33,polite,POLITE,m,,,,,,0.283333333,-0.482407407,0,0,0,,0,278,278,49,1,
,,,,,,,,,,,,,,,,,,5755c957eb80c4000741a9ce,2020-08-10_17h48.30.479,lexical_decision_task_MP,2020.1.3,Win32,60,m,1,0.60264,,,,,,,,0.60264,1,,,,,,105,WORD,"ID",33,number,NUMBER,m,,,,,,0.283333333,-0.482407407,0,0,0,,0,279,279,44,1,
,,,,,,,,,,,,,,,,,,5755c957eb80c4000741a9ce,2020-08-10_17h48.30.479,lexical_decision_task_MP,2020.1.3,Win32,60,z,0,0.539395,,,,,,,,0.539395,0,,,,,,187,WORD,UN,33,social,COURSE,m,,,,,,0.283333333,-0.482407407,0,0,0,,0,280,280,126,1,
,,,,,,,,,,,,,,,,,,5755c957eb80c4000741a9ce,2020-08-10_17h48.30.479,lexical_decision_task_MP,2020.1.3,Win32,60,z,1,0.70379,,,,,,,,0.70379,1,,,,,,359,NW,"ID",33,fonver,FONVER,z,,,,,,0.283333333,-0.482407407,0,0,0,,0,281,281,298,1,
,,,,,,,,,,,,,,,,,,5755c957eb80c4000741a9ce,2020-08-10_17h48.30.479,lexical_decision_task_MP,2020.1.3,Win32,60,m,1,0.526395,,,,,,,,0.526395,1,,,,,,202,WORD,UN,33,phrase,FACTOR,m,,,,,,0.283333333,-0.482407407,0,0,0,,0,282,282,141,1,
,,,,,,,,,,,,,,,,,,5755c957eb80c4000741a9ce,2020-08-10_17h48.30.479,lexical_decision_task_MP,2020.1.3,Win32,60,m,1,0.536,,,,,,,,0.536,1,,,,,,131,WORD,"ID",50,quench,QUENCH,m,,,,,,0.283333333,-0.482407407,0,0,0,,0,283,283,70,1,
,,,,,,,,,,,,,,,,,,5755c957eb80c4000741a9ce,2020-08-10_17h48.30.479,lexical_decision_task_MP,2020.1.3,Win32,60,m,1,0.550325,,,,,,,,0.550325,1,,,,,,189,WORD,UN,33,backup,CENSOR,m,,,,,,0.283333333,-0.482407407,0,0,0,,0,284,284,128,1,
,,,,,,,,,,,,,,,,,,5755c957eb80c4000741a9ce,2020-08-10_17h48.30.479,lexical_decision_task_MP,2020.1.3,Win32,60,m,1,0.542625,,,,,,,,0.542625,1,,,,,,157,WORD,"ID",50,dragon,DRAGON,m,,,,,,0.283333333,-0.482407407,0,0,0,,0,285,285,96,1,
,,,,,,,,,,,,,,,,,,5755c957eb80c4000741a9ce,2020-08-10_17h48.30.479,lexical_decision_task_MP,2020.1.3,Win32,60,z,1,0.644455,,,,,,,,0.644455,1,,,,,,250,NW,UN,50,lupict,MILTED,z,,,,,,0.283333333,-0.482407407,0,0,0,,0,286,286,429,1,
,,,,,,,,,,,,,,,,,,5755c957eb80c4000741a9ce,2020-08-10_17h48.30.479,lexical_decision_task_MP,2020.1.3,Win32,60,z,1,0.61895,,,,,,,,0.61895,1,,,,,,246,NW,UN,50,blarge,PIATON,z,,,,,,0.283333333,-0.482407407,0,0,0,,0,287,287,425,1,
,,,,,,,,,,,,,,,,,,5755c957eb80c4000741a9ce,2020-08-10_17h48.30.479,lexical_decision_task_MP,2020.1.3,Win32,60,z,1,0.522615,,,,,,,,0.522615,1,,,,,,245,NW,UN,50,piaton,ANOUGS,z,,,,,,0.283333333,-0.482407407,0,0,0,,0,288,288,424,1,
,,,,,,,,,,,,,,,,,,5755c957eb80c4000741a9ce,2020-08-10_17h48.30.479,lexical_decision_task_MP,2020.1.3,Win32,60,z,1,0.727345,,,,,,,,0.727345,1,,,,,,270,NW,UN,50,aubrid,WRIMSY,z,,,,,,0.283333333,-0.482407407,0,0,0,,0,289,289,449,1,
,,,,,,,,,,,,,,,,,,5755c957eb80c4000741a9ce,2020-08-10_17h48.30.479,lexical_decision_task_MP,2020.1.3,Win32,60,m,1,0.5399,,,,,,,,0.5399,1,,,,,,68,WORD,"ID",33,fumble,FUMBLE,m,,,,,,0.283333333,-0.482407407,0,0,0,,0,290,290,7,1,
,,,,,,,,,,,,,,,,,,5755c957eb80c4000741a9ce,2020-08-10_17h48.30.479,lexical_decision_task_MP,2020.1.3,Win32,60,z,1,0.71159,,,,,,,,0.71159,1,,,,,,443,NW,UN,33,jaunce,DORSEX,z,,,,,,0.283333333,-0.482407407,0,0,0,,0,291,291,382,1,
,,,,,,,,,,,,,,,,,,5755c957eb80c4000741a9ce,2020-08-10_17h48.30.479,lexical_decision_task_MP,2020.1.3,Win32,60,m,1,0.65142,,,,,,,,0.65142,1,,,,,,134,WORD,"ID",50,staple,STAPLE,m,,,,,,0.283333333,-0.482407407,0,0,0,,0,292,292,73,1,
,,,,,,,,,,,,,,,,,,5755c957eb80c4000741a9ce,2020-08-10_17h48.30.479,lexical_decision_task_MP,2020.1.3,Win32,60,m,1,0.54014,,,,,,,,0.54014,1,,,,,,210,WORD,UN,33,infect,MONKEY,m,,,,,,0.283333333,-0.482407407,0,0,0,,0,293,293,149,1,
,,,,,,,,,,,,,,,,,,5755c957eb80c4000741a9ce,2020-08-10_17h48.30.479,lexical_decision_task_MP,2020.1.3,Win32,60,m,1,0.52648,,,,,,,,0.52648,1,,,,,,240,WORD,UN,33,seldom,FOREST,m,,,,,,0.283333333,-0.482407407,0,0,0,,0,294,294,179,1,
,,,,,,,,,,,,,,,,,,5755c957eb80c4000741a9ce,2020-08-10_17h48.30.479,lexical_decision_task_MP,2020.1.3,Win32,60,m,1,0.492745,,,,,,,,0.492745,1,,,,,,95,WORD,"ID",33,thread,THREAD,m,,,,,,0.283333333,-0.482407407,0,0,0,,0,295,295,34,1,
,,,,,,,,,,,,,,,,,,5755c957eb80c4000741a9ce,2020-08-10_17h48.30.479,lexical_decision_task_MP,2020.1.3,Win32,60,z,1,0.609535,,,,,,,,0.609535,1,,,,,,388,NW,"ID",50,cragin,CRAGIN,z,,,,,,0.283333333,-0.482407407,0,0,0,,0,296,296,327,1,
,,,,,,,,,,,,,,,,,,5755c957eb80c4000741a9ce,2020-08-10_17h48.30.479,lexical_decision_task_MP,2020.1.3,Win32,60,z,0,0.690035,,,,,,,,0.690035,0,,,,,,89,WORD,"ID",33,permit,PERMIT,m,,,,,,0.283333333,-0.482407407,0,0,0,,0,297,297,28,1,
,,,,,,,,,,,,,,,,,,5755c957eb80c4000741a9ce,2020-08-10_17h48.30.479,lexical_decision_task_MP,2020.1.3,Win32,60,m,1,0.551675,,,,,,,,0.551675,1,,,,,,121,WORD,"ID",50,thrive,THRIVE,m,,,,,,0.283333333,-0.482407407,0,0,0,,0,298,298,60,1,
,,,,,,,,,,,,,,,,,,5755c957eb80c4000741a9ce,2020-08-10_17h48.30.479,lexical_decision_task_MP,2020.1.3,Win32,60,m,0,0.56288,,,,,,,,0.56288,0,,,,,,413,NW,"ID",50,equats,EQUATS,z,,,,,,0.283333333,-0.482407407,0,0,0,,0,299,299,352,1,
,,,,,,,,,,,,,,,,,,5755c957eb80c4000741a9ce,2020-08-10_17h48.30.479,lexical_decision_task_MP,2020.1.3,Win32,60,z,1,0.799355,,,,,,,,0.799355,1,,,,,,395,NW,"ID",50,colury,COLURY,z,,,,,,0.283333333,-0.482407407,0,0,0,,0,300,300,334,1,
,,,,,,,,,,,,,,,,,,5755c957eb80c4000741a9ce,2020-08-10_17h48.30.479,lexical_decision_task_MP,2020.1.3,Win32,60,z,1,0.599315,,,,,,,,0.599315,1,,,,,,339,NW,"ID",33,fachow,FACHOW,z,,,,,,0.283333333,-0.482407407,0,0,0,,0,301,301,278,1,
,,,,,,,,,,,,,,,,,,5755c957eb80c4000741a9ce,2020-08-10_17h48.30.479,lexical_decision_task_MP,2020.1.3,Win32,60,z,1,0.695475,,,,,,,,0.695475,1,,,,,,253,NW,UN,50,varosh,RESAIT,z,,,,,,0.283333333,-0.482407407,0,0,0,,0,302,302,432,1,
,,,,,,,,,,,,,,,,,,5755c957eb80c4000741a9ce,2020-08-10_17h48.30.479,lexical_decision_task_MP,2020.1.3,Win32,60,z,1,0.549195,,,,,,,,0.549195,1,,,,,,259,NW,UN,50,unject,SOUDAL,z,,,,,,0.283333333,-0.482407407,0,0,0,,0,303,303,438,1,
,,,,,,,,,,,,,,,,,,5755c957eb80c4000741a9ce,2020-08-10_17h48.30.479,lexical_decision_task_MP,2020.1.3,Win32,60,m,1,0.56047,,,,,,,,0.56047,1,,,,,,111,WORD,"ID",33,induce,INDUCE,m,,,,,,0.283333333,-0.482407407,0,0,0,,0,304,304,50,1,
,,,,,,,,,,,,,,,,,,5755c957eb80c4000741a9ce,2020-08-10_17h48.30.479,lexical_decision_task_MP,2020.1.3,Win32,60,z,1,0.511165,,,,,,,,0.511165,1,,,,,,334,NW,"ID",33,watmeg,WATMEG,z,,,,,,0.283333333,-0.482407407,0,0,0,,0,305,305,273,1,
,,,,,,,,,,,,,,,,,,5755c957eb80c4000741a9ce,2020-08-10_17h48.30.479,lexical_decision_task_MP,2020.1.3,Win32,60,z,1,0.479585,,,,,,,,0.479585,1,,,,,,383,NW,"ID",50,aungre,AUNGRE,z,,,,,,0.283333333,-0.482407407,0,0,0,,0,306,306,322,1,
,,,,,,,,,,,,,,,,,,5755c957eb80c4000741a9ce,2020-08-10_17h48.30.479,lexical_decision_task_MP,2020.1.3,Win32,60,m,1,0.774355,,,,,,,,0.774355,1,,,,,,216,WORD,UN,33,liquor,BEHALF,m,,,,,,0.283333333,-0.482407407,0,0,0,,0,307,307,155,1,
,,,,,,,,,,,,,,,,,,5755c957eb80c4000741a9ce,2020-08-10_17h48.30.479,lexical_decision_task_MP,2020.1.3,Win32,60,z,1,0.59984,,,,,,,,0.59984,1,,,,,,346,NW,"ID",33,saudic,SAUDIC,z,,,,,,0.283333333,-0.482407407,0,0,0,,0,308,308,285,1,
,,,,,,,,,,,,,,,,,,5755c957eb80c4000741a9ce,2020-08-10_17h48.30.479,lexical_decision_task_MP,2020.1.3,Win32,60,m,1,0.60204,,,,,,,,0.60204,1,,,,,,5,WORD,UN,50,bundle,PLUNGE,m,,,,,,0.283333333,-0.482407407,0,0,0,,0,309,309,184,1,
,,,,,,,,,,,,,,,,,,5755c957eb80c4000741a9ce,2020-08-10_17h48.30.479,lexical_decision_task_MP,2020.1.3,Win32,60,m,1,0.69843,,,,,,,,0.69843,1,,,,,,69,WORD,"ID",33,plenty,PLENTY,m,,,,,,0.283333333,-0.482407407,0,0,0,,0,310,310,8,1,
,,,,,,,,,,,,,,,,,,5755c957eb80c4000741a9ce,2020-08-10_17h48.30.479,lexical_decision_task_MP,2020.1.3,Win32,60,m,1,0.57933,,,,,,,,0.57933,1,,,,,,182,WORD,UN,33,absent,WINTER,m,,,,,,0.283333333,-0.482407407,0,0,0,,0,311,311,121,1,
,,,,,,,,,,,,,,,,,,5755c957eb80c4000741a9ce,2020-08-10_17h48.30.479,lexical_decision_task_MP,2020.1.3,Win32,60,z,0,0.81828,,,,,,,,0.81828,0,,,,,,212,WORD,UN,33,squeal,VERIFY,m,,,,,,0.283333333,-0.482407407,0,0,0,,0,312,312,151,1,
,,,,,,,,,,,,,,,,,,5755c957eb80c4000741a9ce,2020-08-10_17h48.30.479,lexical_decision_task_MP,2020.1.3,Win32,60,m,1,0.683815,,,,,,,,0.683815,1,,,,,,76,WORD,"ID",33,exotic,EXOTIC,m,,,,,,0.283333333,-0.482407407,0,0,0,,0,313,313,15,1,
,,,,,,,,,,,,,,,,,,5755c957eb80c4000741a9ce,2020-08-10_17h48.30.479,lexical_decision_task_MP,2020.1.3,Win32,60,m,1,0.50428,,,,,,,,0.50428,1,,,,,,104,WORD,"ID",33,studio,STUDIO,m,,,,,,0.283333333,-0.482407407,0,0,0,,0,314,314,43,1,
,,,,,,,,,,,,,,,,,,5755c957eb80c4000741a9ce,2020-08-10_17h48.30.479,lexical_decision_task_MP,2020.1.3,Win32,60,z,1,0.637515,,,,,,,,0.637515,1,,,,,,296,NW,UN,50,fertic,BEINCH,z,,,,,,0.283333333,-0.482407407,0,0,0,,0,315,315,475,1,
,,,,,,,,,,,,,,,,,,5755c957eb80c4000741a9ce,2020-08-10_17h48.30.479,lexical_decision_task_MP,2020.1.3,Win32,60,m,1,0.532085,,,,,,,,0.532085,1,,,,,,85,WORD,"ID",33,sprawl,SPRAWL,m,,,,,,0.283333333,-0.482407407,0,0,0,,0,316,316,24,1,
,,,,,,,,,,,,,,,,,,5755c957eb80c4000741a9ce,2020-08-10_17h48.30.479,lexical_decision_task_MP,2020.1.3,Win32,60,z,1,0.630775,,,,,,,,0.630775,1,,,,,,282,NW,UN,50,veralf,PORLEX,z,,,,,,0.283333333,-0.482407407,0,0,0,,0,317,317,461,1,
,,,,,,,,,,,,,,,,,,5755c957eb80c4000741a9ce,2020-08-10_17h48.30.479,lexical_decision_task_MP,2020.1.3,Win32,60,m,1,0.610105,,,,,,,,0.610105,1,,,,,,218,WORD,UN,33,bucket,SHRINK,m,,,,,,0.283333333,-0.482407407,0,0,0,,0,318,318,157,1,
,,,,,,,,,,,,,,,,,,5755c957eb80c4000741a9ce,2020-08-10_17h48.30.479,lexical_decision_task_MP,2020.1.3,Win32,60,m,1,0.57883,,,,,,,,0.57883,1,,,,,,213,WORD,UN,33,intake,SQUEAL,m,,,,,,0.283333333,-0.482407407,0,0,0,,0,319,319,152,1,
,,,,,,,,,,,,,,,,,,5755c957eb80c4000741a9ce,2020-08-10_17h48.30.479,lexical_decision_task_MP,2020.1.3,Win32,60,z,1,0.62057,,,,,,,,0.62057,1,,,,,,407,NW,"ID",50,suiver,SUIVER,z,,,,,,0.283333333,-0.482407407,0,0,0,,0,320,320,346,1,
,,,,,,,,,,,,,,,,,,5755c957eb80c4000741a9ce,2020-08-10_17h48.30.479,lexical_decision_task_MP,2020.1.3,Win32,60,m,1,0.55687,,,,,,,,0.55687,1,,,,,,7,WORD,UN,50,abrupt,ANCHOR,m,,,,,,0.283333333,-0.482407407,0,0,0,,0,321,321,186,1,
,,,,,,,,,,,,,,,,,,5755c957eb80c4000741a9ce,2020-08-10_17h48.30.479,lexical_decision_task_MP,2020.1.3,Win32,60,z,1,1.36006,,,,,,,,1.36006,1,,,,,,266,NW,UN,50,pasink,VARMIT,z,,,,,,0.283333333,-0.482407407,0,0,0,,0,322,322,445,1,
,,,,,,,,,,,,,,,,,,5755c957eb80c4000741a9ce,2020-08-10_17h48.30.479,lexical_decision_task_MP,2020.1.3,Win32,60,z,1,0.84194,,,,,,,,0.84194,1,,,,,,381,NW,"ID",50,huniek,HUNIEK,z,,,,,,0.283333333,-0.482407407,0,0,0,,0,323,323,320,1,
,,,,,,,,,,,,,,,,,,5755c957eb80c4000741a9ce,2020-08-10_17h48.30.479,lexical_decision_task_MP,2020.1.3,Win32,60,z,1,0.74613,,,,,,,,0.74613,1,,,,,,319,NW,"ID",33,zomber,ZOMBER,z,,,,,,0.283333333,-0.482407407,0,0,0,,0,324,324,258,1,
,,,,,,,,,,,,,,,,,,5755c957eb80c4000741a9ce,2020-08-10_17h48.30.479,lexical_decision_task_MP,2020.1.3,Win32,60,z,1,0.54593,,,,,,,,0.54593,1,,,,,,430,NW,UN,33,chrums,CAROEY,z,,,,,,0.283333333,-0.482407407,0,0,0,,0,325,325,369,1,
,,,,,,,,,,,,,,,,,,5755c957eb80c4000741a9ce,2020-08-10_17h48.30.479,lexical_decision_task_MP,2020.1.3,Win32,60,z,1,0.840795,,,,,,,,0.840795,1,,,,,,335,NW,"ID",33,desion,DESION,z,,,,,,0.283333333,-0.482407407,0,0,0,,0,326,326,274,1,
,,,,,,,,,,,,,,,,,,5755c957eb80c4000741a9ce,2020-08-10_17h48.30.479,lexical_decision_task_MP,2020.1.3,Win32,60,m,1,0.623745,,,,,,,,0.623745,1,,,,,,92,WORD,"ID",33,strand,STRAND,m,,,,,,0.283333333,-0.482407407,0,0,0,,0,327,327,31,1,
,,,,,,,,,,,,,,,,,,5755c957eb80c4000741a9ce,2020-08-10_17h48.30.479,lexical_decision_task_MP,2020.1.3,Win32,60,z,1,0.791325,,,,,,,,0.791325,1,,,,,,373,NW,"ID",50,bigent,BIGENT,z,,,,,,0.283333333,-0.482407407,0,0,0,,0,328,328,312,1,
,,,,,,,,,,,,,,,,,,5755c957eb80c4000741a9ce,2020-08-10_17h48.30.479,lexical_decision_task_MP,2020.1.3,Win32,60,m,1,0.55324,,,,,,,,0.55324,1,,,,,,174,WORD,"ID",50,turkey,TURKEY,m,,,,,,0.283333333,-0.482407407,0,0,0,,0,329,329,113,1,
,,,,,,,,,,,,,,,,,,5755c957eb80c4000741a9ce,2020-08-10_17h48.30.479,lexical_decision_task_MP,2020.1.3,Win32,60,z,1,0.741005,,,,,,,,0.741005,1,,,,,,426,NW,UN,33,schind,URIVEL,z,,,,,,0.283333333,-0.482407407,0,0,0,,0,330,330,365,1,
,,,,,,,,,,,,,,,,,,5755c957eb80c4000741a9ce,2020-08-10_17h48.30.479,lexical_decision_task_MP,2020.1.3,Win32,60,z,1,0.5762,,,,,,,,0.5762,1,,,,,,343,NW,"ID",33,aimosy,AIMOSY,z,,,,,,0.283333333,-0.482407407,0,0,0,,0,331,331,282,1,
,,,,,,,,,,,,,,,,,,5755c957eb80c4000741a9ce,2020-08-10_17h48.30.479,lexical_decision_task_MP,2020.1.3,Win32,60,z,1,0.53203,,,,,,,,0.53203,1,,,,,,330,NW,"ID",33,kensom,KENSOM,z,,,,,,0.283333333,-0.482407407,0,0,0,,0,332,332,269,1,
,,,,,,,,,,,,,,,,,,5755c957eb80c4000741a9ce,2020-08-10_17h48.30.479,lexical_decision_task_MP,2020.1.3,Win32,60,m,1,0.70125,,,,,,,,0.70125,1,,,,,,29,WORD,UN,50,orient,SKETCH,m,,,,,,0.283333333,-0.482407407,0,0,0,,0,333,333,208,1,
,,,,,,,,,,,,,,,,,,5755c957eb80c4000741a9ce,2020-08-10_17h48.30.479,lexical_decision_task_MP,2020.1.3,Win32,60,z,1,0.59666,,,,,,,,0.59666,1,,,,,,447,NW,UN,33,sadent,GIRCUE,z,,,,,,0.283333333,-0.482407407,0,0,0,,0,334,334,386,1,
,,,,,,,,,,,,,,,,,,5755c957eb80c4000741a9ce,2020-08-10_17h48.30.479,lexical_decision_task_MP,2020.1.3,Win32,60,m,1,0.56549,,,,,,,,0.56549,1,,,,,,77,WORD,"ID",33,racket,RACKET,m,,,,,,0.283333333,-0.482407407,0,0,0,,0,335,335,16,1,
,,,,,,,,,,,,,,,,,,5755c957eb80c4000741a9ce,2020-08-10_17h48.30.479,lexical_decision_task_MP,2020.1.3,Win32,60,m,1,0.711935,,,,,,,,0.711935,1,,,,,,136,WORD,"ID",50,bleach,BLEACH,m,,,,,,0.283333333,-0.482407407,0,0,0,,0,336,336,75,1,
,,,,,,,,,,,,,,,,,,5755c957eb80c4000741a9ce,2020-08-10_17h48.30.479,lexical_decision_task_MP,2020.1.3,Win32,60,m,1,0.54062,,,,,,,,0.54062,1,,,,,,223,WORD,UN,33,period,KIDNEY,m,,,,,,0.283333333,-0.482407407,0,0,0,,0,337,337,162,1,
,,,,,,,,,,,,,,,,,,5755c957eb80c4000741a9ce,2020-08-10_17h48.30.479,lexical_decision_task_MP,2020.1.3,Win32,60,z,1,0.74277,,,,,,,,0.74277,1,,,,,,412,NW,"ID",50,jiluer,JILUER,z,,,,,,0.283333333,-0.482407407,0,0,0,,0,338,338,351,1,
,,,,,,,,,,,,,,,,,,5755c957eb80c4000741a9ce,2020-08-10_17h48.30.479,lexical_decision_task_MP,2020.1.3,Win32,60,m,1,0.555905,,,,,,,,0.555905,1,,,,,,235,WORD,UN,33,pirate,GRUMPY,m,,,,,,0.283333333,-0.482407407,0,0,0,,0,339,339,174,1,
,,,,,,,,,,,,,,,,,,5755c957eb80c4000741a9ce,2020-08-10_17h48.30.479,lexical_decision_task_MP,2020.1.3,Win32,60,z,1,0.543245,,,,,,,,0.543245,1,,,,,,441,NW,UN,33,aboune,RASTOE,z,,,,,,0.283333333,-0.482407407,0,0,0,,0,340,340,380,1,
,,,,,,,,,,,,,,,,,,5755c957eb80c4000741a9ce,2020-08-10_17h48.30.479,lexical_decision_task_MP,2020.1.3,Win32,60,m,1,0.732855,,,,,,,,0.732855,1,,,,,,185,WORD,UN,33,portal,BOTHER,m,,,,,,0.283333333,-0.482407407,0,0,0,,0,341,341,124,1,
,,,,,,,,,,,,,,,,,,5755c957eb80c4000741a9ce,2020-08-10_17h48.30.479,lexical_decision_task_MP,2020.1.3,Win32,60,m,1,0.536485,,,,,,,,0.536485,1,,,,,,84,WORD,"ID",33,mortal,MORTAL,m,,,,,,0.283333333,-0.482407407,0,0,0,,0,342,342,23,1,
,,,,,,,,,,,,,,,,,,5755c957eb80c4000741a9ce,2020-08-10_17h48.30.479,lexical_decision_task_MP,2020.1.3,Win32,60,m,1,0.67617,,,,,,,,0.67617,1,,,,,,184,WORD,UN,33,bother,SLEAZY,m,,,,,,0.283333333,-0.482407407,0,0,0,,0,343,343,123,1,
,,,,,,,,,,,,,,,,,,5755c957eb80c4000741a9ce,2020-08-10_17h48.30.479,lexical_decision_task_MP,2020.1.3,Win32,60,m,1,0.532005,,,,,,,,0.532005,1,,,,,,203,WORD,UN,33,burden,PHRASE,m,,,,,,0.283333333,-0.482407407,0,0,0,,0,344,344,142,1,
,,,,,,,,,,,,,,,,,,5755c957eb80c4000741a9ce,2020-08-10_17h48.30.479,lexical_decision_task_MP,2020.1.3,Win32,60,z,1,0.62995,,,,,,,,0.62995,1,,,,,,311,NW,"ID",33,sproly,SPROLY,z,,,,,,0.283333333,-0.482407407,0,0,0,,0,345,345,250,1,
,,,,,,,,,,,,,,,,,,5755c957eb80c4000741a9ce,2020-08-10_17h48.30.479,lexical_decision_task_MP,2020.1.3,Win32,60,m,1,0.541765,,,,,,,,0.541765,1,,,,,,10,WORD,UN,50,cruise,ETHNIC,m,,,,,,0.283333333,-0.482407407,0,0,0,,0,346,346,189,1,
,,,,,,,,,,,,,,,,,,5755c957eb80c4000741a9ce,2020-08-10_17h48.30.479,lexical_decision_task_MP,2020.1.3,Win32,60,m,1,0.6813,,,,,,,,0.6813,1,,,,,,45,WORD,UN,50,single,CLERGY,m,,,,,,0.283333333,-0.482407407,0,0,0,,0,347,347,224,1,
,,,,,,,,,,,,,,,,,,5755c957eb80c4000741a9ce,2020-08-10_17h48.30.479,lexical_decision_task_MP,2020.1.3,Win32,60,z,1,0.98214,,,,,,,,0.98214,1,,,,,,364,NW,"ID",50,impote,IMPOTE,z,,,,,,0.283333333,-0.482407407,0,0,0,,0,348,348,303,1,
,,,,,,,,,,,,,,,,,,5755c957eb80c4000741a9ce,2020-08-10_17h48.30.479,lexical_decision_task_MP,2020.1.3,Win32,60,m,1,0.536625,,,,,,,,0.536625,1,,,,,,208,WORD,UN,33,search,HOCKEY,m,,,,,,0.283333333,-0.482407407,0,0,0,,0,349,349,147,1,
,,,,,,,,,,,,,,,,,,5755c957eb80c4000741a9ce,2020-08-10_17h48.30.479,lexical_decision_task_MP,2020.1.3,Win32,60,z,1,0.67545,,,,,,,,0.67545,1,,,,,,263,NW,UN,50,vackel,DOLICA,z,,,,,,0.283333333,-0.482407407,0,0,0,,0,350,350,442,1,
,,,,,,,,,,,,,,,,,,5755c957eb80c4000741a9ce,2020-08-10_17h48.30.479,lexical_decision_task_MP,2020.1.3,Win32,60,z,1,0.906375,,,,,,,,0.906375,1,,,,,,352,NW,"ID",33,tringe,TRINGE,z,,,,,,0.283333333,-0.482407407,0,0,0,,0,351,351,291,1,
,,,,,,,,,,,,,,,,,,5755c957eb80c4000741a9ce,2020-08-10_17h48.30.479,lexical_decision_task_MP,2020.1.3,Win32,60,z,1,0.616545,,,,,,,,0.616545,1,,,,,,283,NW,UN,50,shaple,VERALF,z,,,,,,0.283333333,-0.482407407,0,0,0,,0,352,352,462,1,
,,,,,,,,,,,,,,,,,,5755c957eb80c4000741a9ce,2020-08-10_17h48.30.479,lexical_decision_task_MP,2020.1.3,Win32,60,m,1,0.702155,,,,,,,,0.702155,1,,,,,,48,WORD,UN,50,survey,WALNUT,m,,,,,,0.283333333,-0.482407407,0,0,0,,0,353,353,227,1,
,,,,,,,,,,,,,,,,,,5755c957eb80c4000741a9ce,2020-08-10_17h48.30.479,lexical_decision_task_MP,2020.1.3,Win32,60,z,1,0.63521,,,,,,,,0.63521,1,,,,,,390,NW,"ID",50,hatrus,HATRUS,z,,,,,,0.283333333,-0.482407407,0,0,0,,0,354,354,329,1,
,,,,,,,,,,,,,,,,,,5755c957eb80c4000741a9ce,2020-08-10_17h48.30.479,lexical_decision_task_MP,2020.1.3,Win32,60,z,1,0.71657,,,,,,,,0.71657,1,,,,,,436,NW,UN,33,snapel,FRUTAN,z,,,,,,0.283333333,-0.482407407,0,0,0,,0,355,355,375,1,
,,,,,,,,,,,,,,,,,,5755c957eb80c4000741a9ce,2020-08-10_17h48.30.479,lexical_decision_task_MP,2020.1.3,Win32,60,z,1,0.687685,,,,,,,,0.687685,1,,,,,,367,NW,"ID",50,slique,SLIQUE,z,,,,,,0.283333333,-0.482407407,0,0,0,,0,356,356,306,1,
,,,,,,,,,,,,,,,,,,5755c957eb80c4000741a9ce,2020-08-10_17h48.30.479,lexical_decision_task_MP,2020.1.3,Win32,60,z,1,0.622675,,,,,,,,0.622675,1,,,,,,342,NW,"ID",33,randow,RANDOW,z,,,,,,0.283333333,-0.482407407,0,0,0,,0,357,357,281,1,
,,,,,,,,,,,,,,,,,,5755c957eb80c4000741a9ce,2020-08-10_17h48.30.479,lexical_decision_task_MP,2020.1.3,Win32,60,m,1,1.18992,,,,,,,,1.18992,1,,,,,,34,WORD,UN,50,socket,JUNGLE,m,,,,,,0.283333333,-0.482407407,0,0,0,,0,358,358,213,1,
,,,,,,,,,,,,,,,,,,5755c957eb80c4000741a9ce,2020-08-10_17h48.30.479,lexical_decision_task_MP,2020.1.3,Win32,60,z,1,0.6718,,,,,,,,0.6718,1,,,,,,278,NW,UN,50,celond,UNIGHS,z,,,,,,0.283333333,-0.482407407,0,0,0,,0,359,359,457,1,
,,,,,,,,,,,,,,,,,,5755c957eb80c4000741a9ce,2020-08-10_17h48.30.479,lexical_decision_task_MP,2020.1.3,Win32,60,z,1,0.7175,,,,,,,,0.7175,1,,,,,,449,NW,UN,33,phrect,BRUNGE,z,,,,,,0.283333333,-0.482407407,0,0,0,,0,360,360,388,1,
,,,,,,,,,,,,,,,,,,5755c957eb80c4000741a9ce,2020-08-10_17h48.30.479,lexical_decision_task_MP,2020.1.3,Win32,60,z,1,0.61694,,,,,,,,0.61694,1,,,,,,475,NW,UN,33,josted,PEBRIC,z,,,,,,0.283333333,-0.482407407,0,0,0,,0,361,361,414,1,
,,,,,,,,,,,,,,,,,,5755c957eb80c4000741a9ce,2020-08-10_17h48.30.479,lexical_decision_task_MP,2020.1.3,Win32,60,z,1,0.56275,,,,,,,,0.56275,1,,,,,,355,NW,"ID",33,zingly,ZINGLY,z,,,,,,0.283333333,-0.482407407,0,0,0,space,0,362,362,294,1,2.472955
,,,,,,,,,,,,,,,,,,5755c957eb80c4000741a9ce,2020-08-10_17h48.30.479,lexical_decision_task_MP,2020.1.3,Win32,60,m,1,0.467035,,,,,,,,0.467035,1,,,,,,129,WORD,"ID",50,marvel,MARVEL,m,,,,,,0.283333333,-0.482407407,0,0,0,,0,363,363,68,1,
,,,,,,,,,,,,,,,,,,5755c957eb80c4000741a9ce,2020-08-10_17h48.30.479,lexical_decision_task_MP,2020.1.3,Win32,60,z,1,0.56816,,,,,,,,0.56816,1,,,,,,276,NW,UN,50,petain,YARMON,z,,,,,,0.283333333,-0.482407407,0,0,0,,0,364,364,455,1,
,,,,,,,,,,,,,,,,,,5755c957eb80c4000741a9ce,2020-08-10_17h48.30.479,lexical_decision_task_MP,2020.1.3,Win32,60,z,0,0.61919,,,,,,,,0.61919,0,,,,,,94,WORD,"ID",33,travel,TRAVEL,m,,,,,,0.283333333,-0.482407407,0,0,0,,0,365,365,33,1,
,,,,,,,,,,,,,,,,,,5755c957eb80c4000741a9ce,2020-08-10_17h48.30.479,lexical_decision_task_MP,2020.1.3,Win32,60,m,1,0.56286,,,,,,,,0.56286,1,,,,,,18,WORD,UN,50,patron,HUMBLE,m,,,,,,0.283333333,-0.482407407,0,0,0,,0,366,366,197,1,
,,,,,,,,,,,,,,,,,,5755c957eb80c4000741a9ce,2020-08-10_17h48.30.479,lexical_decision_task_MP,2020.1.3,Win32,60,m,1,0.461845,,,,,,,,0.461845,1,,,,,,51,WORD,UN,50,impose,HUNGRY,m,,,,,,0.283333333,-0.482407407,0,0,0,,0,367,367,230,1,
,,,,,,,,,,,,,,,,,,5755c957eb80c4000741a9ce,2020-08-10_17h48.30.479,lexical_decision_task_MP,2020.1.3,Win32,60,m,1,0.46098,,,,,,,,0.46098,1,,,,,,109,WORD,"ID",33,wonder,WONDER,m,,,,,,0.283333333,-0.482407407,0,0,0,,0,368,368,48,1,
,,,,,,,,,,,,,,,,,,5755c957eb80c4000741a9ce,2020-08-10_17h48.30.479,lexical_decision_task_MP,2020.1.3,Win32,60,z,1,1.043725,,,,,,,,1.043725,1,,,,,,360,NW,"ID",33,desory,DESORY,z,,,,,,0.283333333,-0.482407407,0,0,0,,0,369,369,299,1,
,,,,,,,,,,,,,,,,,,5755c957eb80c4000741a9ce,2020-08-10_17h48.30.479,lexical_decision_task_MP,2020.1.3,Win32,60,z,1,0.69801,,,,,,,,0.69801,1,,,,,,271,NW,UN,50,damilt,AUBRID,z,,,,,,0.283333333,-0.482407407,0,0,0,,0,370,370,450,1,
,,,,,,,,,,,,,,,,,,5755c957eb80c4000741a9ce,2020-08-10_17h48.30.479,lexical_decision_task_MP,2020.1.3,Win32,60,z,1,0.84814,,,,,,,,0.84814,1,,,,,,368,NW,"ID",50,hornal,HORNAL,z,,,,,,0.283333333,-0.482407407,0,0,0,,0,371,371,307,1,
,,,,,,,,,,,,,,,,,,5755c957eb80c4000741a9ce,2020-08-10_17h48.30.479,lexical_decision_task_MP,2020.1.3,Win32,60,m,1,0.54257,,,,,,,,0.54257,1,,,,,,156,WORD,"ID",50,cradle,CRADLE,m,,,,,,0.283333333,-0.482407407,0,0,0,,0,372,372,95,1,
,,,,,,,,,,,,,,,,,,5755c957eb80c4000741a9ce,2020-08-10_17h48.30.479,lexical_decision_task_MP,2020.1.3,Win32,60,m,1,0.72397,,,,,,,,0.72397,1,,,,,,236,WORD,UN,33,grumpy,PIRATE,m,,,,,,0.283333333,-0.482407407,0,0,0,,0,373,373,175,1,
,,,,,,,,,,,,,,,,,,5755c957eb80c4000741a9ce,2020-08-10_17h48.30.479,lexical_decision_task_MP,2020.1.3,Win32,60,m,1,0.559105,,,,,,,,0.559105,1,,,,,,114,WORD,"ID",33,placid,PLACID,m,,,,,,0.283333333,-0.482407407,0,0,0,,0,374,374,53,1,
,,,,,,,,,,,,,,,,,,5755c957eb80c4000741a9ce,2020-08-10_17h48.30.479,lexical_decision_task_MP,2020.1.3,Win32,60,m,1,0.554795,,,,,,,,0.554795,1,,,,,,233,WORD,UN,33,clumsy,NATURE,m,,,,,,0.283333333,-0.482407407,0,0,0,,0,375,375,172,1,
,,,,,,,,,,,,,,,,,,5755c957eb80c4000741a9ce,2020-08-10_17h48.30.479,lexical_decision_task_MP,2020.1.3,Win32,60,z,1,0.982775,,,,,,,,0.982775,1,,,,,,291,NW,UN,50,ablint,PRETCH,z,,,,,,0.283333333,-0.482407407,0,0,0,,0,376,376,470,1,
,,,,,,,,,,,,,,,,,,5755c957eb80c4000741a9ce,2020-08-10_17h48.30.479,lexical_decision_task_MP,2020.1.3,Win32,60,z,1,0.855065,,,,,,,,0.855065,1,,,,,,316,NW,"ID",33,scregm,SCREGM,z,,,,,,0.283333333,-0.482407407,0,0,0,,0,377,377,255,1,
,,,,,,,,,,,,,,,,,,5755c957eb80c4000741a9ce,2020-08-10_17h48.30.479,lexical_decision_task_MP,2020.1.3,Win32,60,z,1,0.73438,,,,,,,,0.73438,1,,,,,,377,NW,"ID",50,injore,INJORE,z,,,,,,0.283333333,-0.482407407,0,0,0,,0,378,378,316,1,
,,,,,,,,,,,,,,,,,,5755c957eb80c4000741a9ce,2020-08-10_17h48.30.479,lexical_decision_task_MP,2020.1.3,Win32,60,m,1,0.51616,,,,,,,,0.51616,1,,,,,,126,WORD,"ID",50,enough,ENOUGH,m,,,,,,0.283333333,-0.482407407,0,0,0,,0,379,379,65,1,
,,,,,,,,,,,,,,,,,,5755c957eb80c4000741a9ce,2020-08-10_17h48.30.479,lexical_decision_task_MP,2020.1.3,Win32,60,m,1,0.58198,,,,,,,,0.58198,1,,,,,,201,WORD,UN,33,factor,ADMIRE,m,,,,,,0.283333333,-0.482407407,0,0,0,,0,380,380,140,1,
,,,,,,,,,,,,,,,,,,5755c957eb80c4000741a9ce,2020-08-10_17h48.30.479,lexical_decision_task_MP,2020.1.3,Win32,60,m,1,0.825035,,,,,,,,0.825035,1,,,,,,214,WORD,UN,33,phobia,INTAKE,m,,,,,,0.283333333,-0.482407407,0,0,0,,0,381,381,153,1,
,,,,,,,,,,,,,,,,,,5755c957eb80c4000741a9ce,2020-08-10_17h48.30.479,lexical_decision_task_MP,2020.1.3,Win32,60,m,1,0.43822,,,,,,,,0.43822,1,,,,,,132,WORD,"ID",50,strong,STRONG,m,,,,,,0.283333333,-0.482407407,0,0,0,,0,382,382,71,1,
,,,,,,,,,,,,,,,,,,5755c957eb80c4000741a9ce,2020-08-10_17h48.30.479,lexical_decision_task_MP,2020.1.3,Win32,60,z,1,0.59992,,,,,,,,0.59992,1,,,,,,337,NW,"ID",33,rejols,REJOLS,z,,,,,,0.283333333,-0.482407407,0,0,0,,0,383,383,276,1,
,,,,,,,,,,,,,,,,,,5755c957eb80c4000741a9ce,2020-08-10_17h48.30.479,lexical_decision_task_MP,2020.1.3,Win32,60,z,1,0.52119,,,,,,,,0.52119,1,,,,,,403,NW,"ID",50,bruats,BRUATS,z,,,,,,0.283333333,-0.482407407,0,0,0,,0,384,384,342,1,
,,,,,,,,,,,,,,,,,,5755c957eb80c4000741a9ce,2020-08-10_17h48.30.479,lexical_decision_task_MP,2020.1.3,Win32,60,z,1,0.74231,,,,,,,,0.74231,1,,,,,,473,NW,UN,33,hablin,CRIBLE,z,,,,,,0.283333333,-0.482407407,0,0,0,,0,385,385,412,1,
,,,,,,,,,,,,,,,,,,5755c957eb80c4000741a9ce,2020-08-10_17h48.30.479,lexical_decision_task_MP,2020.1.3,Win32,60,m,1,0.732255,,,,,,,,0.732255,1,,,,,,83,WORD,"ID",33,result,RESULT,m,,,,,,0.283333333,-0.482407407,0,0,0,,0,386,386,22,1,
,,,,,,,,,,,,,,,,,,5755c957eb80c4000741a9ce,2020-08-10_17h48.30.479,lexical_decision_task_MP,2020.1.3,Win32,60,m,1,0.509915,,,,,,,,0.509915,1,,,,,,67,WORD,"ID",33,policy,POLICY,m,,,,,,0.283333333,-0.482407407,0,0,0,,0,387,387,6,1,
,,,,,,,,,,,,,,,,,,5755c957eb80c4000741a9ce,2020-08-10_17h48.30.479,lexical_decision_task_MP,2020.1.3,Win32,60,z,0,0.62775,,,,,,,,0.62775,0,,,,,,23,WORD,UN,50,praise,WEALTH,m,,,,,,0.283333333,-0.482407407,0,0,0,,0,388,388,202,1,
,,,,,,,,,,,,,,,,,,5755c957eb80c4000741a9ce,2020-08-10_17h48.30.479,lexical_decision_task_MP,2020.1.3,Win32,60,z,1,0.635755,,,,,,,,0.635755,1,,,,,,480,NW,UN,33,knisma,ROBULY,z,,,,,,0.283333333,-0.482407407,0,0,0,,0,389,389,419,1,
,,,,,,,,,,,,,,,,,,5755c957eb80c4000741a9ce,2020-08-10_17h48.30.479,lexical_decision_task_MP,2020.1.3,Win32,60,z,1,0.62751,,,,,,,,0.62751,1,,,,,,312,NW,"ID",33,nerawl,NERAWL,z,,,,,,0.283333333,-0.482407407,0,0,0,,0,390,390,251,1,
,,,,,,,,,,,,,,,,,,5755c957eb80c4000741a9ce,2020-08-10_17h48.30.479,lexical_decision_task_MP,2020.1.3,Win32,60,z,1,0.67503,,,,,,,,0.67503,1,,,,,,350,NW,"ID",33,nagurs,NAGURS,z,,,,,,0.283333333,-0.482407407,0,0,0,,0,391,391,289,1,
,,,,,,,,,,,,,,,,,,5755c957eb80c4000741a9ce,2020-08-10_17h48.30.479,lexical_decision_task_MP,2020.1.3,Win32,60,m,1,0.53617,,,,,,,,0.53617,1,,,,,,127,WORD,"ID",50,castle,CASTLE,m,,,,,,0.283333333,-0.482407407,0,0,0,,0,392,392,66,1,
,,,,,,,,,,,,,,,,,,5755c957eb80c4000741a9ce,2020-08-10_17h48.30.479,lexical_decision_task_MP,2020.1.3,Win32,60,m,1,0.525165,,,,,,,,0.525165,1,,,,,,20,WORD,UN,50,simple,BREAST,m,,,,,,0.283333333,-0.482407407,0,0,0,,0,393,393,199,1,
,,,,,,,,,,,,,,,,,,5755c957eb80c4000741a9ce,2020-08-10_17h48.30.479,lexical_decision_task_MP,2020.1.3,Win32,60,m,1,0.467175,,,,,,,,0.467175,1,,,,,,138,WORD,"ID",50,melody,MELODY,m,,,,,,0.283333333,-0.482407407,0,0,0,,0,394,394,77,1,
,,,,,,,,,,,,,,,,,,5755c957eb80c4000741a9ce,2020-08-10_17h48.30.479,lexical_decision_task_MP,2020.1.3,Win32,60,m,1,0.51065,,,,,,,,0.51065,1,,,,,,44,WORD,UN,50,clergy,DANGER,m,,,,,,0.283333333,-0.482407407,0,0,0,,0,395,395,223,1,
,,,,,,,,,,,,,,,,,,5755c957eb80c4000741a9ce,2020-08-10_17h48.30.479,lexical_decision_task_MP,2020.1.3,Win32,60,m,1,0.599285,,,,,,,,0.599285,1,,,,,,8,WORD,UN,50,hustle,ABRUPT,m,,,,,,0.283333333,-0.482407407,0,0,0,,0,396,396,187,1,
,,,,,,,,,,,,,,,,,,5755c957eb80c4000741a9ce,2020-08-10_17h48.30.479,lexical_decision_task_MP,2020.1.3,Win32,60,m,1,0.52485,,,,,,,,0.52485,1,,,,,,72,WORD,"ID",33,bright,BRIGHT,m,,,,,,0.283333333,-0.482407407,0,0,0,,0,397,397,11,1,
,,,,,,,,,,,,,,,,,,5755c957eb80c4000741a9ce,2020-08-10_17h48.30.479,lexical_decision_task_MP,2020.1.3,Win32,60,z,1,0.60909,,,,,,,,0.60909,1,,,,,,387,NW,"ID",50,gronce,GRONCE,z,,,,,,0.283333333,-0.482407407,0,0,0,,0,398,398,326,1,
,,,,,,,,,,,,,,,,,,5755c957eb80c4000741a9ce,2020-08-10_17h48.30.479,lexical_decision_task_MP,2020.1.3,Win32,60,m,1,0.75339,,,,,,,,0.75339,1,,,,,,26,WORD,UN,50,butler,SPRINT,m,,,,,,0.283333333,-0.482407407,0,0,0,,0,399,399,205,1,
,,,,,,,,,,,,,,,,,,5755c957eb80c4000741a9ce,2020-08-10_17h48.30.479,lexical_decision_task_MP,2020.1.3,Win32,60,m,1,0.660525,,,,,,,,0.660525,1,,,,,,11,WORD,UN,50,amount,CRUISE,m,,,,,,0.283333333,-0.482407407,0,0,0,,0,400,400,190,1,
,,,,,,,,,,,,,,,,,,5755c957eb80c4000741a9ce,2020-08-10_17h48.30.479,lexical_decision_task_MP,2020.1.3,Win32,60,z,1,0.80338,,,,,,,,0.80338,1,,,,,,470,NW,UN,33,nobest,CRUDIO,z,,,,,,0.283333333,-0.482407407,0,0,0,,0,401,401,409,1,
,,,,,,,,,,,,,,,,,,5755c957eb80c4000741a9ce,2020-08-10_17h48.30.479,lexical_decision_task_MP,2020.1.3,Win32,60,z,1,0.555485,,,,,,,,0.555485,1,,,,,,371,NW,"ID",50,geiloy,GEILOY,z,,,,,,0.283333333,-0.482407407,0,0,0,,0,402,402,310,1,
,,,,,,,,,,,,,,,,,,5755c957eb80c4000741a9ce,2020-08-10_17h48.30.479,lexical_decision_task_MP,2020.1.3,Win32,60,m,1,0.63196,,,,,,,,0.63196,1,,,,,,140,WORD,"ID",50,prince,PRINCE,m,,,,,,0.283333333,-0.482407407,0,0,0,,0,403,403,79,1,
,,,,,,,,,,,,,,,,,,5755c957eb80c4000741a9ce,2020-08-10_17h48.30.479,lexical_decision_task_MP,2020.1.3,Win32,60,z,1,0.66244,,,,,,,,0.66244,1,,,,,,269,NW,UN,50,wrimsy,ORCHET,z,,,,,,0.283333333,-0.482407407,0,0,0,,0,404,404,448,1,
