counterbalancing_condition,instr_done_keyboard.keys,instr_done_keyboard.rt,instr_done_touch.x,instr_done_touch.y,instr_done_touch.leftButton,instr_done_touch.midButton,instr_done_touch.rightButton,instruction_pages.thisRepN,instruction_pages.thisTrialN,instruction_pages.thisN,instruction_pages.thisIndex,instruction_pages.ran,pageN,phase,instruct_text,has_image,instruct_image,participant,date,expName,psychopyVersion,OS,frameRate,response.keys,response.corr,response.rt,touch_resp.x,touch_resp.y,touch_resp.leftButton,touch_resp.midButton,touch_resp.rightButton,touch_resp.time,touch_resp.clicked_name,rt,corr,practice_trials.thisRepN,practice_trials.thisTrialN,practice_trials.thisN,practice_trials.thisIndex,practice_trials.ran,TrialID,StimulusType,Condition,PrimeDuration,Prime,Target,corrAns,end_of_practice_trials_pages.thisRepN,end_of_practice_trials_pages.thisTrialN,end_of_practice_trials_pages.thisN,end_of_practice_trials_pages.thisIndex,end_of_practice_trials_pages.ran,break_done_touch.x,break_done_touch.y,break_done_touch.leftButton,break_done_touch.midButton,break_done_touch.rightButton,break_done_keyboard.keys,trials.thisRepN,trials.thisTrialN,trials.thisN,trials.thisIndex,trials.ran,break_done_keyboard.rt
1,space,4.78024,-0.8,0.5,0,0,0,0,0,0,0,1,1,instructions,"INSTRUCTIONS
At the start of each trial, look at the hash marks (######) in the center of the screen. After a moment, a string of letters will appear. Your task is to indicate if the letter string forms a word or not (i.e., if it is a nonword). For example, AUTHOR is a word while AUTHON is a nonword.

Press the space bar or touch the button below to continue.",0,,5846c387d2be990001174c6f,2020-08-10_10h08.47.810,lexical_decision_task_MP,2020.1.3,MacIntel,60,,,,,,,,,,,,,,,,,,,,,,,,,,,,,,,,,,,,,,,,,
,space,2.916055,-0.8,0.5,0,0,0,0,1,1,1,1,2,instructions,"If your device has a keyboard, press the 'Z' key for nonwords and the 'M' key for words.





Press the space bar or touch the button below to continue.",1,keyboard-example.gif,5846c387d2be990001174c6f,2020-08-10_10h08.47.810,lexical_decision_task_MP,2020.1.3,MacIntel,60,,,,,,,,,,,,,,,,,,,,,,,,,,,,,,,,,,,,,,,,,
,space,2.977605,-0.8,0.5,0,0,0,0,2,2,2,1,3,instructions,"If you are using a touchscreen only device, use the buttons on the screen. Do not use the mouse.





Press the space bar or touch the button below to continue.",1,touchscreen-example.gif,5846c387d2be990001174c6f,2020-08-10_10h08.47.810,lexical_decision_task_MP,2020.1.3,MacIntel,60,,,,,,,,,,,,,,,,,,,,,,,,,,,,,,,,,,,,,,,,,
,space,3.547785,-0.8,0.5,0,0,0,0,3,3,3,1,4,instructions,"It is very important that you respond as quickly and accurately as possible, as each letter string will only be on the screen for two seconds. If you do not respond within this time, the message 'Too slow!' will be displayed and the experiment will progress to the next letter string. The first 20 trials will be practice trials and you will receive feedback on your answers. 

Press the space bar or touch the button below to start the practice trials.",0,,5846c387d2be990001174c6f,2020-08-10_10h08.47.810,lexical_decision_task_MP,2020.1.3,MacIntel,60,,,,,,,,,,,,,,,,,,,,,,,,,,,,,,,,,,,,,,,,,
,,,,,,,,,,,,,,,,,,5846c387d2be990001174c6f,2020-08-10_10h08.47.810,lexical_decision_task_MP,2020.1.3,MacIntel,60,z,0,0.367065,,,,,,,,0.367065,0,0,0,0,7,1,1008,WORD,UN,50,hurdle,VOLUME,m,,,,,,,,,,,,,,,,,
,,,,,,,,,,,,,,,,,,5846c387d2be990001174c6f,2020-08-10_10h08.47.810,lexical_decision_task_MP,2020.1.3,MacIntel,60,m,0,0.640395,,,,,,,,0.640395,0,0,1,1,14,1,1015,NW,UN,50,miaber,THRALE,z,,,,,,,,,,,,,,,,,
,,,,,,,,,,,,,,,,,,5846c387d2be990001174c6f,2020-08-10_10h08.47.810,lexical_decision_task_MP,2020.1.3,MacIntel,60,z,0,0.001165,,,,,,,,0.001165,0,0,2,2,5,1,1006,WORD,UN,33,frenzy,OBTAIN,m,,,,,,,,,,,,,,,,,
,,,,,,,,,,,,,,,,,,5846c387d2be990001174c6f,2020-08-10_10h08.47.810,lexical_decision_task_MP,2020.1.3,MacIntel,60,z,0,0.00267,,,,,,,,0.00267,0,0,3,3,6,1,1007,WORD,UN,50,tropic,ZOMBIE,m,,,,,,,,,,,,,,,,,
,,,,,,,,,,,,,,,,,,5846c387d2be990001174c6f,2020-08-10_10h08.47.810,lexical_decision_task_MP,2020.1.3,MacIntel,60,m,1,0.068795,,,,,,,,0.068795,1,0,4,4,0,1,1001,WORD,"ID",33,utopia,UTOPIA,m,,,,,,,,,,,,,,,,,
,,,,,,,,,,,,,,,,,,5846c387d2be990001174c6f,2020-08-10_10h08.47.810,lexical_decision_task_MP,2020.1.3,MacIntel,60,z,0,0.040545,,,,,,,,0.040545,0,0,5,5,4,1,1005,WORD,UN,33,abound,SQUEAK,m,,,,,,,,,,,,,,,,,
,,,,,,,,,,,,,,,,,,5846c387d2be990001174c6f,2020-08-10_10h08.47.810,lexical_decision_task_MP,2020.1.3,MacIntel,60,m,0,0.0685,,,,,,,,0.0685,0,0,6,6,15,1,1016,NW,UN,50,mushed,WHAISE,z,,,,,,,,,,,,,,,,,
,,,,,,,,,,,,,,,,,,5846c387d2be990001174c6f,2020-08-10_10h08.47.810,lexical_decision_task_MP,2020.1.3,MacIntel,60,z,1,0.50254,,,,,,,,0.50254,1,0,7,7,13,1,1014,NW,UN,33,winfer,ROUPET,z,,,,,,,,,,,,,,,,,
,,,,,,,,,,,,,,,,,,5846c387d2be990001174c6f,2020-08-10_10h08.47.810,lexical_decision_task_MP,2020.1.3,MacIntel,60,m,1,0.18344,,,,,,,,0.18344,1,0,8,8,3,1,1004,WORD,"ID",50,matrix,MATRIX,m,,,,,,,,,,,,,,,,,
,,,,,,,,,,,,,,,,,,5846c387d2be990001174c6f,2020-08-10_10h08.47.810,lexical_decision_task_MP,2020.1.3,MacIntel,60,z,1,0.181305,,,,,,,,0.181305,1,0,9,9,10,1,1011,NW,"ID",50,inlade,INLADE,z,,,,,,,,,,,,,,,,,
,,,,,,,,,,,,,,,,,,5846c387d2be990001174c6f,2020-08-10_10h08.47.810,lexical_decision_task_MP,2020.1.3,MacIntel,60,m,0,0.37932,,,,,,,,0.37932,0,0,10,10,11,1,1012,NW,"ID",50,rashet,RASHET,z,,,,,,,,,,,,,,,,,
,,,,,,,,,,,,,,,,,,5846c387d2be990001174c6f,2020-08-10_10h08.47.810,lexical_decision_task_MP,2020.1.3,MacIntel,60,m,1,0.50865,,,,,,,,0.50865,1,0,11,11,1,1,1002,WORD,"ID",33,adjust,ADJUST,m,,,,,,,,,,,,,,,,,
,,,,,,,,,,,,,,,,,,5846c387d2be990001174c6f,2020-08-10_10h08.47.810,lexical_decision_task_MP,2020.1.3,MacIntel,60,z,1,0.673005,,,,,,,,0.673005,1,0,12,12,8,1,1009,NW,"ID",33,aslert,ASLERT,z,,,,,,,,,,,,,,,,,
,,,,,,,,,,,,,,,,,,5846c387d2be990001174c6f,2020-08-10_10h08.47.810,lexical_decision_task_MP,2020.1.3,MacIntel,60,z,1,0.60028,,,,,,,,0.60028,1,0,13,13,12,1,1013,NW,UN,33,adveil,SPRINY,z,,,,,,,,,,,,,,,,,
,,,,,,,,,,,,,,,,,,5846c387d2be990001174c6f,2020-08-10_10h08.47.810,lexical_decision_task_MP,2020.1.3,MacIntel,60,m,1,0.48548,,,,,,,,0.48548,1,0,14,14,2,1,1003,WORD,"ID",50,almond,ALMOND,m,,,,,,,,,,,,,,,,,
,,,,,,,,,,,,,,,,,,5846c387d2be990001174c6f,2020-08-10_10h08.47.810,lexical_decision_task_MP,2020.1.3,MacIntel,60,z,1,0.60631,,,,,,,,0.60631,1,0,15,15,9,1,1010,NW,"ID",33,fariny,FARINY,z,,,,,,,,,,,,,,,,,
,space,7.467,-0.8,0.5,0,0,0,,,,,,1,end_of_practice,"You have completed the practice trials. During the experimental trials, you will not receive feedback, but it is very important that you respond as quickly and accurately as possible. 
Before you begin, please ensure that you are in a comfortable and quiet location and will not be disturbed for about 15 minutes, as we cannot use your data if you do not complete all the trials. 
There will be opportunities to take breaks at regular intervals during the experiment. When you are ready to start the experimental trials, please press space or touch the button below.",,,5846c387d2be990001174c6f,2020-08-10_10h08.47.810,lexical_decision_task_MP,2020.1.3,MacIntel,60,,,,,,,,,,,,,,,,,,,,,,,,,0,0,0,0,1,,,,,,,,,,,,
,,,,,,,,,,,,,,,,,,5846c387d2be990001174c6f,2020-08-10_10h08.47.810,lexical_decision_task_MP,2020.1.3,MacIntel,60,z,1,0.51998,,,,,,,,0.51998,1,,,,,,380,NW,UN,33,huniek,CAVORY,z,,,,,,-0.8,0.5,0,0,0,,0,0,0,379,1,
,,,,,,,,,,,,,,,,,,5846c387d2be990001174c6f,2020-08-10_10h08.47.810,lexical_decision_task_MP,2020.1.3,MacIntel,60,z,0,0.16807,,,,,,,,0.16807,0,,,,,,14,WORD,"ID",33,almost,ALMOST,m,,,,,,-0.8,0.5,0,0,0,,0,1,1,13,1,
,,,,,,,,,,,,,,,,,,5846c387d2be990001174c6f,2020-08-10_10h08.47.810,lexical_decision_task_MP,2020.1.3,MacIntel,60,m,0,0.364195,,,,,,,,0.364195,0,,,,,,294,NW,"ID",33,inhort,INHORT,z,,,,,,-0.8,0.5,0,0,0,,0,2,2,293,1,
,,,,,,,,,,,,,,,,,,5846c387d2be990001174c6f,2020-08-10_10h08.47.810,lexical_decision_task_MP,2020.1.3,MacIntel,60,z,1,0.03657,,,,,,,,0.03657,1,,,,,,309,NW,"ID",50,amiloy,AMILOY,z,,,,,,-0.8,0.5,0,0,0,,0,3,3,308,1,
,,,,,,,,,,,,,,,,,,5846c387d2be990001174c6f,2020-08-10_10h08.47.810,lexical_decision_task_MP,2020.1.3,MacIntel,60,m,1,0.09038,,,,,,,,0.09038,1,,,,,,200,WORD,UN,50,admire,BEACON,m,,,,,,-0.8,0.5,0,0,0,,0,4,4,199,1,
,,,,,,,,,,,,,,,,,,5846c387d2be990001174c6f,2020-08-10_10h08.47.810,lexical_decision_task_MP,2020.1.3,MacIntel,60,z,0,0.091265,,,,,,,,0.091265,0,,,,,,233,WORD,UN,50,clumsy,NATURE,m,,,,,,-0.8,0.5,0,0,0,,0,5,5,232,1,
,,,,,,,,,,,,,,,,,,5846c387d2be990001174c6f,2020-08-10_10h08.47.810,lexical_decision_task_MP,2020.1.3,MacIntel,60,z,0,0.08675,,,,,,,,0.08675,0,,,,,,36,WORD,"ID",33,vanish,VANISH,m,,,,,,-0.8,0.5,0,0,0,,0,6,6,35,1,
,,,,,,,,,,,,,,,,,,5846c387d2be990001174c6f,2020-08-10_10h08.47.810,lexical_decision_task_MP,2020.1.3,MacIntel,60,z,0,0.26777,,,,,,,,0.26777,0,,,,,,232,WORD,UN,50,nature,INJECT,m,,,,,,-0.8,0.5,0,0,0,,0,7,7,231,1,
,,,,,,,,,,,,,,,,,,5846c387d2be990001174c6f,2020-08-10_10h08.47.810,lexical_decision_task_MP,2020.1.3,MacIntel,60,m,1,0.333865,,,,,,,,0.333865,1,,,,,,180,WORD,UN,33,thrive,SILENT,m,,,,,,-0.8,0.5,0,0,0,,0,8,8,179,1,
,,,,,,,,,,,,,,,,,,5846c387d2be990001174c6f,2020-08-10_10h08.47.810,lexical_decision_task_MP,2020.1.3,MacIntel,60,m,1,0.11843,,,,,,,,0.11843,1,,,,,,206,WORD,UN,50,wreath,TAILOR,m,,,,,,-0.8,0.5,0,0,0,,0,9,9,205,1,
,,,,,,,,,,,,,,,,,,5846c387d2be990001174c6f,2020-08-10_10h08.47.810,lexical_decision_task_MP,2020.1.3,MacIntel,60,z,1,0.014905,,,,,,,,0.014905,1,,,,,,319,NW,"ID",50,zomber,ZOMBER,z,,,,,,-0.8,0.5,0,0,0,,0,10,10,318,1,
,,,,,,,,,,,,,,,,,,5846c387d2be990001174c6f,2020-08-10_10h08.47.810,lexical_decision_task_MP,2020.1.3,MacIntel,60,m,0,0.0383,,,,,,,,0.0383,0,,,,,,321,NW,"ID",50,miator,MIATOR,z,,,,,,-0.8,0.5,0,0,0,,0,11,11,320,1,
,,,,,,,,,,,,,,,,,,5846c387d2be990001174c6f,2020-08-10_10h08.47.810,lexical_decision_task_MP,2020.1.3,MacIntel,60,z,0,0.00107,,,,,,,,0.00107,0,,,,,,166,WORD,UN,33,design,STARCH,m,,,,,,-0.8,0.5,0,0,0,,0,12,12,165,1,
,,,,,,,,,,,,,,,,,,5846c387d2be990001174c6f,2020-08-10_10h08.47.810,lexical_decision_task_MP,2020.1.3,MacIntel,60,m,0,0.000895,,,,,,,,0.000895,0,,,,,,418,NW,UN,33,slount,SUIDLE,z,,,,,,-0.8,0.5,0,0,0,,0,13,13,417,1,
,,,,,,,,,,,,,,,,,,5846c387d2be990001174c6f,2020-08-10_10h08.47.810,lexical_decision_task_MP,2020.1.3,MacIntel,60,z,1,0.086795,,,,,,,,0.086795,1,,,,,,408,NW,UN,33,flumni,HURNIA,z,,,,,,-0.8,0.5,0,0,0,,0,14,14,407,1,
,,,,,,,,,,,,,,,,,,5846c387d2be990001174c6f,2020-08-10_10h08.47.810,lexical_decision_task_MP,2020.1.3,MacIntel,60,z,1,0.05034,,,,,,,,0.05034,1,,,,,,370,NW,UN,33,geiloy,SLEACT,z,,,,,,-0.8,0.5,0,0,0,,0,15,15,369,1,
,,,,,,,,,,,,,,,,,,5846c387d2be990001174c6f,2020-08-10_10h08.47.810,lexical_decision_task_MP,2020.1.3,MacIntel,60,m,0,0.05392,,,,,,,,0.05392,0,,,,,,303,NW,"ID",50,fiream,FIREAM,z,,,,,,-0.8,0.5,0,0,0,,0,16,16,302,1,
,,,,,,,,,,,,,,,,,,5846c387d2be990001174c6f,2020-08-10_10h08.47.810,lexical_decision_task_MP,2020.1.3,MacIntel,60,m,0,0.316215,,,,,,,,0.316215,0,,,,,,281,NW,"ID",33,melaty,MELATY,z,,,,,,-0.8,0.5,0,0,0,,0,17,17,280,1,
,,,,,,,,,,,,,,,,,,5846c387d2be990001174c6f,2020-08-10_10h08.47.810,lexical_decision_task_MP,2020.1.3,MacIntel,60,m,1,0.032,,,,,,,,0.032,1,,,,,,171,WORD,UN,33,patrol,DEPART,m,,,,,,-0.8,0.5,0,0,0,,0,18,18,170,1,
,,,,,,,,,,,,,,,,,,5846c387d2be990001174c6f,2020-08-10_10h08.47.810,lexical_decision_task_MP,2020.1.3,MacIntel,60,m,1,0.00139,,,,,,,,0.00139,1,,,,,,114,WORD,"ID",50,placid,PLACID,m,,,,,,-0.8,0.5,0,0,0,,0,19,19,113,1,
,,,,,,,,,,,,,,,,,,5846c387d2be990001174c6f,2020-08-10_10h08.47.810,lexical_decision_task_MP,2020.1.3,MacIntel,60,m,0,0.01684,,,,,,,,0.01684,0,,,,,,451,NW,UN,50,surden,CAINKY,z,,,,,,-0.8,0.5,0,0,0,,0,20,20,450,1,
,,,,,,,,,,,,,,,,,,5846c387d2be990001174c6f,2020-08-10_10h08.47.810,lexical_decision_task_MP,2020.1.3,MacIntel,60,z,1,0.300355,,,,,,,,0.300355,1,,,,,,464,NW,UN,50,whivex,CHAITE,z,,,,,,-0.8,0.5,0,0,0,,0,21,21,463,1,
,,,,,,,,,,,,,,,,,,5846c387d2be990001174c6f,2020-08-10_10h08.47.810,lexical_decision_task_MP,2020.1.3,MacIntel,60,z,0,0.29854,,,,,,,,0.29854,0,,,,,,149,WORD,UN,33,random,INVADE,m,,,,,,-0.8,0.5,0,0,0,,0,22,22,148,1,
,,,,,,,,,,,,,,,,,,5846c387d2be990001174c6f,2020-08-10_10h08.47.810,lexical_decision_task_MP,2020.1.3,MacIntel,60,z,0,0.30815,,,,,,,,0.30815,0,,,,,,13,WORD,"ID",33,strive,STRIVE,m,,,,,,-0.8,0.5,0,0,0,,0,23,23,12,1,
,,,,,,,,,,,,,,,,,,5846c387d2be990001174c6f,2020-08-10_10h08.47.810,lexical_decision_task_MP,2020.1.3,MacIntel,60,m,1,0.519885,,,,,,,,0.519885,1,,,,,,30,WORD,"ID",33,orient,ORIENT,m,,,,,,-0.8,0.5,0,0,0,,0,24,24,29,1,
,,,,,,,,,,,,,,,,,,5846c387d2be990001174c6f,2020-08-10_10h08.47.810,lexical_decision_task_MP,2020.1.3,MacIntel,60,m,1,0.21767,,,,,,,,0.21767,1,,,,,,17,WORD,"ID",33,charge,CHARGE,m,,,,,,-0.8,0.5,0,0,0,,0,25,25,16,1,
,,,,,,,,,,,,,,,,,,5846c387d2be990001174c6f,2020-08-10_10h08.47.810,lexical_decision_task_MP,2020.1.3,MacIntel,60,m,0,0.28182,,,,,,,,0.28182,0,,,,,,445,NW,UN,50,runamo,MINKEL,z,,,,,,-0.8,0.5,0,0,0,,0,26,26,444,1,
,,,,,,,,,,,,,,,,,,5846c387d2be990001174c6f,2020-08-10_10h08.47.810,lexical_decision_task_MP,2020.1.3,MacIntel,60,m,1,0.43522,,,,,,,,0.43522,1,,,,,,121,WORD,UN,33,linger,THRIVE,m,,,,,,-0.8,0.5,0,0,0,,0,27,27,120,1,
,,,,,,,,,,,,,,,,,,5846c387d2be990001174c6f,2020-08-10_10h08.47.810,lexical_decision_task_MP,2020.1.3,MacIntel,60,m,1,0.441135,,,,,,,,0.441135,1,,,,,,70,WORD,"ID",50,square,SQUARE,m,,,,,,-0.8,0.5,0,0,0,,0,28,28,69,1,
,,,,,,,,,,,,,,,,,,5846c387d2be990001174c6f,2020-08-10_10h08.47.810,lexical_decision_task_MP,2020.1.3,MacIntel,60,m,0,0.341565,,,,,,,,0.341565,0,,,,,,430,NW,UN,50,funtle,CAROEY,z,,,,,,-0.8,0.5,0,0,0,,0,29,29,429,1,
,,,,,,,,,,,,,,,,,,5846c387d2be990001174c6f,2020-08-10_10h08.47.810,lexical_decision_task_MP,2020.1.3,MacIntel,60,z,0,0.484165,,,,,,,,0.484165,0,,,,,,9,WORD,"ID",33,hustle,HUSTLE,m,,,,,,-0.8,0.5,0,0,0,,0,30,30,8,1,
,,,,,,,,,,,,,,,,,,5846c387d2be990001174c6f,2020-08-10_10h08.47.810,lexical_decision_task_MP,2020.1.3,MacIntel,60,z,1,0.95887,,,,,,,,0.95887,1,,,,,,268,NW,"ID",33,packes,PACKES,z,,,,,,-0.8,0.5,0,0,0,,0,31,31,267,1,
,,,,,,,,,,,,,,,,,,5846c387d2be990001174c6f,2020-08-10_10h08.47.810,lexical_decision_task_MP,2020.1.3,MacIntel,60,m,0,0.639715,,,,,,,,0.639715,0,,,,,,413,NW,UN,33,serbol,EQUATS,z,,,,,,-0.8,0.5,0,0,0,,0,32,32,412,1,
,,,,,,,,,,,,,,,,,,5846c387d2be990001174c6f,2020-08-10_10h08.47.810,lexical_decision_task_MP,2020.1.3,MacIntel,60,m,1,0.541685,,,,,,,,0.541685,1,,,,,,152,WORD,UN,33,behold,ROCKET,m,,,,,,-0.8,0.5,0,0,0,,0,33,33,151,1,
,,,,,,,,,,,,,,,,,,5846c387d2be990001174c6f,2020-08-10_10h08.47.810,lexical_decision_task_MP,2020.1.3,MacIntel,60,m,1,0.47452,,,,,,,,0.47452,1,,,,,,27,WORD,"ID",33,scream,SCREAM,m,,,,,,-0.8,0.5,0,0,0,,0,34,34,26,1,
,,,,,,,,,,,,,,,,,,5846c387d2be990001174c6f,2020-08-10_10h08.47.810,lexical_decision_task_MP,2020.1.3,MacIntel,60,z,1,0.815215,,,,,,,,0.815215,1,,,,,,272,NW,"ID",33,damilt,DAMILT,z,,,,,,-0.8,0.5,0,0,0,,0,35,35,271,1,
,,,,,,,,,,,,,,,,,,5846c387d2be990001174c6f,2020-08-10_10h08.47.810,lexical_decision_task_MP,2020.1.3,MacIntel,60,z,1,0.55666,,,,,,,,0.55666,1,,,,,,375,NW,UN,33,iguare,YORQUE,z,,,,,,-0.8,0.5,0,0,0,,0,36,36,374,1,
,,,,,,,,,,,,,,,,,,5846c387d2be990001174c6f,2020-08-10_10h08.47.810,lexical_decision_task_MP,2020.1.3,MacIntel,60,z,1,0.46651,,,,,,,,0.46651,1,,,,,,454,NW,UN,50,tondle,SCOUGE,z,,,,,,-0.8,0.5,0,0,0,,0,37,37,453,1,
,,,,,,,,,,,,,,,,,,5846c387d2be990001174c6f,2020-08-10_10h08.47.810,lexical_decision_task_MP,2020.1.3,MacIntel,60,m,1,0.55185,,,,,,,,0.55185,1,,,,,,92,WORD,"ID",50,strand,STRAND,m,,,,,,-0.8,0.5,0,0,0,,0,38,38,91,1,
,,,,,,,,,,,,,,,,,,5846c387d2be990001174c6f,2020-08-10_10h08.47.810,lexical_decision_task_MP,2020.1.3,MacIntel,60,z,1,0.671345,,,,,,,,0.671345,1,,,,,,476,NW,UN,50,photie,JOSTED,z,,,,,,-0.8,0.5,0,0,0,,0,39,39,475,1,
,,,,,,,,,,,,,,,,,,5846c387d2be990001174c6f,2020-08-10_10h08.47.810,lexical_decision_task_MP,2020.1.3,MacIntel,60,m,1,0.488705,,,,,,,,0.488705,1,,,,,,138,WORD,UN,33,staple,MELODY,m,,,,,,-0.8,0.5,0,0,0,,0,40,40,137,1,
,,,,,,,,,,,,,,,,,,5846c387d2be990001174c6f,2020-08-10_10h08.47.810,lexical_decision_task_MP,2020.1.3,MacIntel,60,z,1,0.68473,,,,,,,,0.68473,1,,,,,,399,NW,UN,33,wearox,FOURET,z,,,,,,-0.8,0.5,0,0,0,,0,41,41,398,1,
,,,,,,,,,,,,,,,,,,5846c387d2be990001174c6f,2020-08-10_10h08.47.810,lexical_decision_task_MP,2020.1.3,MacIntel,60,z,1,0.66993,,,,,,,,0.66993,1,,,,,,313,NW,"ID",50,paurse,PAURSE,z,,,,,,-0.8,0.5,0,0,0,,0,42,42,312,1,
,,,,,,,,,,,,,,,,,,5846c387d2be990001174c6f,2020-08-10_10h08.47.810,lexical_decision_task_MP,2020.1.3,MacIntel,60,m,1,0.535965,,,,,,,,0.535965,1,,,,,,6,WORD,"ID",33,bundle,BUNDLE,m,,,,,,-0.8,0.5,0,0,0,,0,43,43,5,1,
,,,,,,,,,,,,,,,,,,5846c387d2be990001174c6f,2020-08-10_10h08.47.810,lexical_decision_task_MP,2020.1.3,MacIntel,60,z,0,0.56023,,,,,,,,0.56023,0,,,,,,220,WORD,UN,50,mascot,VOYAGE,m,,,,,,-0.8,0.5,0,0,0,,0,44,44,219,1,
,,,,,,,,,,,,,,,,,,5846c387d2be990001174c6f,2020-08-10_10h08.47.810,lexical_decision_task_MP,2020.1.3,MacIntel,60,z,1,0.67419,,,,,,,,0.67419,1,,,,,,277,NW,"ID",33,petain,PETAIN,z,,,,,,-0.8,0.5,0,0,0,,0,45,45,276,1,
,,,,,,,,,,,,,,,,,,5846c387d2be990001174c6f,2020-08-10_10h08.47.810,lexical_decision_task_MP,2020.1.3,MacIntel,60,m,1,0.470085,,,,,,,,0.470085,1,,,,,,67,WORD,"ID",50,policy,POLICY,m,,,,,,-0.8,0.5,0,0,0,,0,46,46,66,1,
,,,,,,,,,,,,,,,,,,5846c387d2be990001174c6f,2020-08-10_10h08.47.810,lexical_decision_task_MP,2020.1.3,MacIntel,60,z,1,0.65109,,,,,,,,0.65109,1,,,,,,242,NW,"ID",33,unwert,UNWERT,z,,,,,,-0.8,0.5,0,0,0,,0,47,47,241,1,
,,,,,,,,,,,,,,,,,,5846c387d2be990001174c6f,2020-08-10_10h08.47.810,lexical_decision_task_MP,2020.1.3,MacIntel,60,m,1,0.484295,,,,,,,,0.484295,1,,,,,,203,WORD,UN,50,burden,PHRASE,m,,,,,,-0.8,0.5,0,0,0,,0,48,48,202,1,
,,,,,,,,,,,,,,,,,,5846c387d2be990001174c6f,2020-08-10_10h08.47.810,lexical_decision_task_MP,2020.1.3,MacIntel,60,z,1,0.702455,,,,,,,,0.702455,1,,,,,,461,NW,UN,50,absult,JUSTRE,z,,,,,,-0.8,0.5,0,0,0,,0,49,49,460,1,
,,,,,,,,,,,,,,,,,,5846c387d2be990001174c6f,2020-08-10_10h08.47.810,lexical_decision_task_MP,2020.1.3,MacIntel,60,m,1,0.638905,,,,,,,,0.638905,1,,,,,,230,WORD,UN,50,export,FRINGE,m,,,,,,-0.8,0.5,0,0,0,,0,50,50,229,1,
,,,,,,,,,,,,,,,,,,5846c387d2be990001174c6f,2020-08-10_10h08.47.810,lexical_decision_task_MP,2020.1.3,MacIntel,60,m,1,0.523655,,,,,,,,0.523655,1,,,,,,130,WORD,UN,33,quench,STUPID,m,,,,,,-0.8,0.5,0,0,0,,0,51,51,129,1,
,,,,,,,,,,,,,,,,,,5846c387d2be990001174c6f,2020-08-10_10h08.47.810,lexical_decision_task_MP,2020.1.3,MacIntel,60,m,1,0.457445,,,,,,,,0.457445,1,,,,,,72,WORD,"ID",50,bright,BRIGHT,m,,,,,,-0.8,0.5,0,0,0,,0,52,52,71,1,
,,,,,,,,,,,,,,,,,,5846c387d2be990001174c6f,2020-08-10_10h08.47.810,lexical_decision_task_MP,2020.1.3,MacIntel,60,z,1,1.046325,,,,,,,,1.046325,1,,,,,,442,NW,UN,50,dorsex,ABOUNE,z,,,,,,-0.8,0.5,0,0,0,,0,53,53,441,1,
,,,,,,,,,,,,,,,,,,5846c387d2be990001174c6f,2020-08-10_10h08.47.810,lexical_decision_task_MP,2020.1.3,MacIntel,60,m,1,0.41976,,,,,,,,0.41976,1,,,,,,12,WORD,"ID",33,orange,ORANGE,m,,,,,,-0.8,0.5,0,0,0,,0,54,54,11,1,
,,,,,,,,,,,,,,,,,,5846c387d2be990001174c6f,2020-08-10_10h08.47.810,lexical_decision_task_MP,2020.1.3,MacIntel,60,z,1,0.622185,,,,,,,,0.622185,1,,,,,,436,NW,UN,50,snapel,FRUTAN,z,,,,,,-0.8,0.5,0,0,0,,0,55,55,435,1,
,,,,,,,,,,,,,,,,,,5846c387d2be990001174c6f,2020-08-10_10h08.47.810,lexical_decision_task_MP,2020.1.3,MacIntel,60,m,1,0.55057,,,,,,,,0.55057,1,,,,,,164,WORD,UN,33,invest,MARKET,m,,,,,,-0.8,0.5,0,0,0,,0,56,56,163,1,
,,,,,,,,,,,,,,,,,,5846c387d2be990001174c6f,2020-08-10_10h08.47.810,lexical_decision_task_MP,2020.1.3,MacIntel,60,m,1,0.590095,,,,,,,,0.590095,1,,,,,,101,WORD,"ID",50,wrench,WRENCH,m,,,,,,-0.8,0.5,0,0,0,,0,57,57,100,1,
,,,,,,,,,,,,,,,,,,5846c387d2be990001174c6f,2020-08-10_10h08.47.810,lexical_decision_task_MP,2020.1.3,MacIntel,60,m,1,0.502365,,,,,,,,0.502365,1,,,,,,191,WORD,UN,50,absent,STABLE,m,,,,,,-0.8,0.5,0,0,0,,0,58,58,190,1,
,,,,,,,,,,,,,,,,,,5846c387d2be990001174c6f,2020-08-10_10h08.47.810,lexical_decision_task_MP,2020.1.3,MacIntel,60,m,1,0.451945,,,,,,,,0.451945,1,,,,,,159,WORD,UN,33,violet,DETAIL,m,,,,,,-0.8,0.5,0,0,0,,0,59,59,158,1,
,,,,,,,,,,,,,,,,,,5846c387d2be990001174c6f,2020-08-10_10h08.47.810,lexical_decision_task_MP,2020.1.3,MacIntel,60,z,1,0.50814,,,,,,,,0.50814,1,,,,,,269,NW,"ID",33,orchet,ORCHET,z,,,,,,-0.8,0.5,0,0,0,,0,60,60,268,1,
,,,,,,,,,,,,,,,,,,5846c387d2be990001174c6f,2020-08-10_10h08.47.810,lexical_decision_task_MP,2020.1.3,MacIntel,60,m,1,0.46536,,,,,,,,0.46536,1,,,,,,88,WORD,"ID",50,hunger,HUNGER,m,,,,,,-0.8,0.5,0,0,0,,0,61,61,87,1,
,,,,,,,,,,,,,,,,,,5846c387d2be990001174c6f,2020-08-10_10h08.47.810,lexical_decision_task_MP,2020.1.3,MacIntel,60,z,1,0.55528,,,,,,,,0.55528,1,,,,,,241,NW,"ID",33,smenco,SMENCO,z,,,,,,-0.8,0.5,0,0,0,,0,62,62,240,1,
,,,,,,,,,,,,,,,,,,5846c387d2be990001174c6f,2020-08-10_10h08.47.810,lexical_decision_task_MP,2020.1.3,MacIntel,60,m,1,0.500085,,,,,,,,0.500085,1,,,,,,163,WORD,UN,33,market,STRING,m,,,,,,-0.8,0.5,0,0,0,,0,63,63,162,1,
,,,,,,,,,,,,,,,,,,5846c387d2be990001174c6f,2020-08-10_10h08.47.810,lexical_decision_task_MP,2020.1.3,MacIntel,60,z,1,0.70316,,,,,,,,0.70316,1,,,,,,261,NW,"ID",33,stunch,STUNCH,z,,,,,,-0.8,0.5,0,0,0,,0,64,64,260,1,
,,,,,,,,,,,,,,,,,,5846c387d2be990001174c6f,2020-08-10_10h08.47.810,lexical_decision_task_MP,2020.1.3,MacIntel,60,z,1,0.98889,,,,,,,,0.98889,1,,,,,,284,NW,"ID",33,shaple,SHAPLE,z,,,,,,-0.8,0.5,0,0,0,,0,65,65,283,1,
,,,,,,,,,,,,,,,,,,5846c387d2be990001174c6f,2020-08-10_10h08.47.810,lexical_decision_task_MP,2020.1.3,MacIntel,60,z,1,0.457155,,,,,,,,0.457155,1,,,,,,371,NW,UN,33,ramily,GEILOY,z,,,,,,-0.8,0.5,0,0,0,,0,66,66,370,1,
,,,,,,,,,,,,,,,,,,5846c387d2be990001174c6f,2020-08-10_10h08.47.810,lexical_decision_task_MP,2020.1.3,MacIntel,60,z,1,1.202165,,,,,,,,1.202165,1,,,,,,477,NW,UN,50,acrise,PHOTIE,z,,,,,,-0.8,0.5,0,0,0,,0,67,67,476,1,
,,,,,,,,,,,,,,,,,,5846c387d2be990001174c6f,2020-08-10_10h08.47.810,lexical_decision_task_MP,2020.1.3,MacIntel,60,m,0,0.774035,,,,,,,,0.774035,0,,,,,,417,NW,UN,33,suidle,EAROUD,z,,,,,,-0.8,0.5,0,0,0,,0,68,68,416,1,
,,,,,,,,,,,,,,,,,,5846c387d2be990001174c6f,2020-08-10_10h08.47.810,lexical_decision_task_MP,2020.1.3,MacIntel,60,m,1,0.6375,,,,,,,,0.6375,1,,,,,,74,WORD,"ID",50,plaque,PLAQUE,m,,,,,,-0.8,0.5,0,0,0,,0,69,69,73,1,
,,,,,,,,,,,,,,,,,,5846c387d2be990001174c6f,2020-08-10_10h08.47.810,lexical_decision_task_MP,2020.1.3,MacIntel,60,m,1,0.50195,,,,,,,,0.50195,1,,,,,,73,WORD,"ID",50,source,SOURCE,m,,,,,,-0.8,0.5,0,0,0,,0,70,70,72,1,
,,,,,,,,,,,,,,,,,,5846c387d2be990001174c6f,2020-08-10_10h08.47.810,lexical_decision_task_MP,2020.1.3,MacIntel,60,z,1,0.572755,,,,,,,,0.572755,1,,,,,,263,NW,"ID",33,dolica,DOLICA,z,,,,,,-0.8,0.5,0,0,0,,0,71,71,262,1,
,,,,,,,,,,,,,,,,,,5846c387d2be990001174c6f,2020-08-10_10h08.47.810,lexical_decision_task_MP,2020.1.3,MacIntel,60,m,1,0.600605,,,,,,,,0.600605,1,,,,,,131,WORD,UN,33,strong,QUENCH,m,,,,,,-0.8,0.5,0,0,0,,0,72,72,130,1,
,,,,,,,,,,,,,,,,,,5846c387d2be990001174c6f,2020-08-10_10h08.47.810,lexical_decision_task_MP,2020.1.3,MacIntel,60,z,1,0.83962,,,,,,,,0.83962,1,,,,,,338,NW,"ID",50,wreash,WREASH,z,,,,,,-0.8,0.5,0,0,0,,0,73,73,337,1,
,,,,,,,,,,,,,,,,,,5846c387d2be990001174c6f,2020-08-10_10h08.47.810,lexical_decision_task_MP,2020.1.3,MacIntel,60,z,1,0.574235,,,,,,,,0.574235,1,,,,,,393,NW,UN,33,spaqux,GANOUS,z,,,,,,-0.8,0.5,0,0,0,,0,74,74,392,1,
,,,,,,,,,,,,,,,,,,5846c387d2be990001174c6f,2020-08-10_10h08.47.810,lexical_decision_task_MP,2020.1.3,MacIntel,60,m,1,0.50065,,,,,,,,0.50065,1,,,,,,193,WORD,UN,50,plague,OBJECT,m,,,,,,-0.8,0.5,0,0,0,,0,75,75,192,1,
,,,,,,,,,,,,,,,,,,5846c387d2be990001174c6f,2020-08-10_10h08.47.810,lexical_decision_task_MP,2020.1.3,MacIntel,60,m,1,0.491255,,,,,,,,0.491255,1,,,,,,213,WORD,UN,50,intake,SQUEAL,m,,,,,,-0.8,0.5,0,0,0,,0,76,76,212,1,
,,,,,,,,,,,,,,,,,,5846c387d2be990001174c6f,2020-08-10_10h08.47.810,lexical_decision_task_MP,2020.1.3,MacIntel,60,m,1,0.533765,,,,,,,,0.533765,1,,,,,,188,WORD,UN,50,censor,SOCIAL,m,,,,,,-0.8,0.5,0,0,0,,0,77,77,187,1,
,,,,,,,,,,,,,,,,,,5846c387d2be990001174c6f,2020-08-10_10h08.47.810,lexical_decision_task_MP,2020.1.3,MacIntel,60,z,1,0.718225,,,,,,,,0.718225,1,,,,,,257,NW,"ID",33,veniod,VENIOD,z,,,,,,-0.8,0.5,0,0,0,,0,78,78,256,1,
,,,,,,,,,,,,,,,,,,5846c387d2be990001174c6f,2020-08-10_10h08.47.810,lexical_decision_task_MP,2020.1.3,MacIntel,60,z,1,0.68492,,,,,,,,0.68492,1,,,,,,317,NW,"ID",50,worbal,WORBAL,z,,,,,,-0.8,0.5,0,0,0,,0,79,79,316,1,
,,,,,,,,,,,,,,,,,,5846c387d2be990001174c6f,2020-08-10_10h08.47.810,lexical_decision_task_MP,2020.1.3,MacIntel,60,m,1,0.468165,,,,,,,,0.468165,1,,,,,,76,WORD,"ID",50,exotic,EXOTIC,m,,,,,,-0.8,0.5,0,0,0,,0,80,80,75,1,
,,,,,,,,,,,,,,,,,,5846c387d2be990001174c6f,2020-08-10_10h08.47.810,lexical_decision_task_MP,2020.1.3,MacIntel,60,m,1,0.522395,,,,,,,,0.522395,1,,,,,,174,WORD,UN,33,fabric,TURKEY,m,,,,,,-0.8,0.5,0,0,0,,0,81,81,173,1,
,,,,,,,,,,,,,,,,,,5846c387d2be990001174c6f,2020-08-10_10h08.47.810,lexical_decision_task_MP,2020.1.3,MacIntel,60,m,1,0.510915,,,,,,,,0.510915,1,,,,,,179,WORD,UN,33,silent,BASKET,m,,,,,,-0.8,0.5,0,0,0,,0,82,82,178,1,
,,,,,,,,,,,,,,,,,,5846c387d2be990001174c6f,2020-08-10_10h08.47.810,lexical_decision_task_MP,2020.1.3,MacIntel,60,m,1,0.522145,,,,,,,,0.522145,1,,,,,,2,WORD,"ID",33,bridge,BRIDGE,m,,,,,,-0.8,0.5,0,0,0,,0,83,83,1,1,
,,,,,,,,,,,,,,,,,,5846c387d2be990001174c6f,2020-08-10_10h08.47.810,lexical_decision_task_MP,2020.1.3,MacIntel,60,m,1,0.56528,,,,,,,,0.56528,1,,,,,,79,WORD,"ID",50,theory,THEORY,m,,,,,,-0.8,0.5,0,0,0,,0,84,84,78,1,
,,,,,,,,,,,,,,,,,,5846c387d2be990001174c6f,2020-08-10_10h08.47.810,lexical_decision_task_MP,2020.1.3,MacIntel,60,m,1,0.4693,,,,,,,,0.4693,1,,,,,,90,WORD,"ID",50,relish,RELISH,m,,,,,,-0.8,0.5,0,0,0,,0,85,85,89,1,
,,,,,,,,,,,,,,,,,,5846c387d2be990001174c6f,2020-08-10_10h08.47.810,lexical_decision_task_MP,2020.1.3,MacIntel,60,z,1,0.63975,,,,,,,,0.63975,1,,,,,,478,NW,UN,50,lobush,ACRISE,z,,,,,,-0.8,0.5,0,0,0,,0,86,86,477,1,
,,,,,,,,,,,,,,,,,,5846c387d2be990001174c6f,2020-08-10_10h08.47.810,lexical_decision_task_MP,2020.1.3,MacIntel,60,z,1,0.72278,,,,,,,,0.72278,1,,,,,,437,NW,UN,50,baitch,SNAPEL,z,,,,,,-0.8,0.5,0,0,0,,0,87,87,436,1,
,,,,,,,,,,,,,,,,,,5846c387d2be990001174c6f,2020-08-10_10h08.47.810,lexical_decision_task_MP,2020.1.3,MacIntel,60,m,1,0.54605,,,,,,,,0.54605,1,,,,,,93,WORD,"ID",50,public,PUBLIC,m,,,,,,-0.8,0.5,0,0,0,,0,88,88,92,1,
,,,,,,,,,,,,,,,,,,5846c387d2be990001174c6f,2020-08-10_10h08.47.810,lexical_decision_task_MP,2020.1.3,MacIntel,60,z,1,0.71505,,,,,,,,0.71505,1,,,,,,310,NW,"ID",50,daniet,DANIET,z,,,,,,-0.8,0.5,0,0,0,,0,89,89,309,1,
,,,,,,,,,,,,,,,,,,5846c387d2be990001174c6f,2020-08-10_10h08.47.810,lexical_decision_task_MP,2020.1.3,MacIntel,60,m,1,0.5201,,,,,,,,0.5201,1,,,,,,60,WORD,"ID",33,pencil,PENCIL,m,,,,,,-0.8,0.5,0,0,0,,0,90,90,59,1,
,,,,,,,,,,,,,,,,,,5846c387d2be990001174c6f,2020-08-10_10h08.47.810,lexical_decision_task_MP,2020.1.3,MacIntel,60,m,1,0.75602,,,,,,,,0.75602,1,,,,,,54,WORD,"ID",33,ramble,RAMBLE,m,,,,,,-0.8,0.5,0,0,0,,0,91,91,53,1,
,,,,,,,,,,,,,,,,,,5846c387d2be990001174c6f,2020-08-10_10h08.47.810,lexical_decision_task_MP,2020.1.3,MacIntel,60,m,1,0.648125,,,,,,,,0.648125,1,,,,,,100,WORD,"ID",50,carbon,CARBON,m,,,,,,-0.8,0.5,0,0,0,,0,92,92,99,1,
,,,,,,,,,,,,,,,,,,5846c387d2be990001174c6f,2020-08-10_10h08.47.810,lexical_decision_task_MP,2020.1.3,MacIntel,60,m,1,0.601205,,,,,,,,0.601205,1,,,,,,133,WORD,UN,33,debris,CHROME,m,,,,,,-0.8,0.5,0,0,0,,0,93,93,132,1,
,,,,,,,,,,,,,,,,,,5846c387d2be990001174c6f,2020-08-10_10h08.47.810,lexical_decision_task_MP,2020.1.3,MacIntel,60,z,1,0.700215,,,,,,,,0.700215,1,,,,,,441,NW,UN,50,aboune,RASTOE,z,,,,,,-0.8,0.5,0,0,0,,0,94,94,440,1,
,,,,,,,,,,,,,,,,,,5846c387d2be990001174c6f,2020-08-10_10h08.47.810,lexical_decision_task_MP,2020.1.3,MacIntel,60,z,1,0.60783,,,,,,,,0.60783,1,,,,,,420,NW,UN,33,pauche,GUSHOP,z,,,,,,-0.8,0.5,0,0,0,,0,95,95,419,1,
,,,,,,,,,,,,,,,,,,5846c387d2be990001174c6f,2020-08-10_10h08.47.810,lexical_decision_task_MP,2020.1.3,MacIntel,60,m,1,0.608575,,,,,,,,0.608575,1,,,,,,143,WORD,UN,33,sponge,REASON,m,,,,,,-0.8,0.5,0,0,0,,0,96,96,142,1,
,,,,,,,,,,,,,,,,,,5846c387d2be990001174c6f,2020-08-10_10h08.47.810,lexical_decision_task_MP,2020.1.3,MacIntel,60,m,1,0.58582,,,,,,,,0.58582,1,,,,,,207,WORD,UN,50,hockey,WREATH,m,,,,,,-0.8,0.5,0,0,0,,0,97,97,206,1,
,,,,,,,,,,,,,,,,,,5846c387d2be990001174c6f,2020-08-10_10h08.47.810,lexical_decision_task_MP,2020.1.3,MacIntel,60,z,1,0.469605,,,,,,,,0.469605,1,,,,,,475,NW,UN,50,robuly,PEBRIC,z,,,,,,-0.8,0.5,0,0,0,,0,98,98,474,1,
,,,,,,,,,,,,,,,,,,5846c387d2be990001174c6f,2020-08-10_10h08.47.810,lexical_decision_task_MP,2020.1.3,MacIntel,60,m,1,0.691805,,,,,,,,0.691805,1,,,,,,42,WORD,"ID",33,chapel,CHAPEL,m,,,,,,-0.8,0.5,0,0,0,,0,99,99,41,1,
,,,,,,,,,,,,,,,,,,5846c387d2be990001174c6f,2020-08-10_10h08.47.810,lexical_decision_task_MP,2020.1.3,MacIntel,60,z,1,0.591225,,,,,,,,0.591225,1,,,,,,334,NW,"ID",50,watmeg,WATMEG,z,,,,,,-0.8,0.5,0,0,0,,0,100,100,333,1,
,,,,,,,,,,,,,,,,,,5846c387d2be990001174c6f,2020-08-10_10h08.47.810,lexical_decision_task_MP,2020.1.3,MacIntel,60,z,1,0.70815,,,,,,,,0.70815,1,,,,,,457,NW,UN,50,barcet,WANIGH,z,,,,,,-0.8,0.5,0,0,0,,0,101,101,456,1,
,,,,,,,,,,,,,,,,,,5846c387d2be990001174c6f,2020-08-10_10h08.47.810,lexical_decision_task_MP,2020.1.3,MacIntel,60,m,1,0.550615,,,,,,,,0.550615,1,,,,,,53,WORD,"ID",33,police,POLICE,m,,,,,,-0.8,0.5,0,0,0,,0,102,102,52,1,
,,,,,,,,,,,,,,,,,,5846c387d2be990001174c6f,2020-08-10_10h08.47.810,lexical_decision_task_MP,2020.1.3,MacIntel,60,z,1,0.600555,,,,,,,,0.600555,1,,,,,,365,NW,UN,33,toshel,GUAIRT,z,,,,,,-0.8,0.5,0,0,0,,0,103,103,364,1,
,,,,,,,,,,,,,,,,,,5846c387d2be990001174c6f,2020-08-10_10h08.47.810,lexical_decision_task_MP,2020.1.3,MacIntel,60,m,1,0.551225,,,,,,,,0.551225,1,,,,,,106,WORD,"ID",50,ransom,RANSOM,m,,,,,,-0.8,0.5,0,0,0,,0,104,104,105,1,
,,,,,,,,,,,,,,,,,,5846c387d2be990001174c6f,2020-08-10_10h08.47.810,lexical_decision_task_MP,2020.1.3,MacIntel,60,m,1,0.537535,,,,,,,,0.537535,1,,,,,,78,WORD,"ID",50,column,COLUMN,m,,,,,,-0.8,0.5,0,0,0,,0,105,105,77,1,
,,,,,,,,,,,,,,,,,,5846c387d2be990001174c6f,2020-08-10_10h08.47.810,lexical_decision_task_MP,2020.1.3,MacIntel,60,m,1,0.583295,,,,,,,,0.583295,1,,,,,,169,WORD,UN,33,pounce,GENIUS,m,,,,,,-0.8,0.5,0,0,0,,0,106,106,168,1,
,,,,,,,,,,,,,,,,,,5846c387d2be990001174c6f,2020-08-10_10h08.47.810,lexical_decision_task_MP,2020.1.3,MacIntel,60,z,1,0.981015,,,,,,,,0.981015,1,,,,,,376,NW,UN,33,sliant,IGUARE,z,,,,,,-0.8,0.5,0,0,0,,0,107,107,375,1,
,,,,,,,,,,,,,,,,,,5846c387d2be990001174c6f,2020-08-10_10h08.47.810,lexical_decision_task_MP,2020.1.3,MacIntel,60,z,1,0.665735,,,,,,,,0.665735,1,,,,,,254,NW,"ID",33,varosh,VAROSH,z,,,,,,-0.8,0.5,0,0,0,,0,108,108,253,1,
,,,,,,,,,,,,,,,,,,5846c387d2be990001174c6f,2020-08-10_10h08.47.810,lexical_decision_task_MP,2020.1.3,MacIntel,60,z,1,0.51684,,,,,,,,0.51684,1,,,,,,449,NW,UN,50,phrect,BRUNGE,z,,,,,,-0.8,0.5,0,0,0,,0,109,109,448,1,
,,,,,,,,,,,,,,,,,,5846c387d2be990001174c6f,2020-08-10_10h08.47.810,lexical_decision_task_MP,2020.1.3,MacIntel,60,z,1,0.585135,,,,,,,,0.585135,1,,,,,,404,NW,UN,33,syntic,CLUIRM,z,,,,,,-0.8,0.5,0,0,0,,0,110,110,403,1,
,,,,,,,,,,,,,,,,,,5846c387d2be990001174c6f,2020-08-10_10h08.47.810,lexical_decision_task_MP,2020.1.3,MacIntel,60,z,1,0.564945,,,,,,,,0.564945,1,,,,,,278,NW,"ID",33,unighs,UNIGHS,z,,,,,,-0.8,0.5,0,0,0,,0,111,111,277,1,
,,,,,,,,,,,,,,,,,,5846c387d2be990001174c6f,2020-08-10_10h08.47.810,lexical_decision_task_MP,2020.1.3,MacIntel,60,z,1,0.475055,,,,,,,,0.475055,1,,,,,,307,NW,"ID",50,kirafe,KIRAFE,z,,,,,,-0.8,0.5,0,0,0,,0,112,112,306,1,
,,,,,,,,,,,,,,,,,,5846c387d2be990001174c6f,2020-08-10_10h08.47.810,lexical_decision_task_MP,2020.1.3,MacIntel,60,z,0,0.41688,,,,,,,,0.41688,0,,,,,,56,WORD,"ID",33,ambush,AMBUSH,m,,,,,,-0.8,0.5,0,0,0,,0,113,113,55,1,
,,,,,,,,,,,,,,,,,,5846c387d2be990001174c6f,2020-08-10_10h08.47.810,lexical_decision_task_MP,2020.1.3,MacIntel,60,z,1,0.677685,,,,,,,,0.677685,1,,,,,,247,NW,"ID",33,blarge,BLARGE,z,,,,,,-0.8,0.5,0,0,0,,0,114,114,246,1,
,,,,,,,,,,,,,,,,,,5846c387d2be990001174c6f,2020-08-10_10h08.47.810,lexical_decision_task_MP,2020.1.3,MacIntel,60,z,0,0.935585,,,,,,,,0.935585,0,,,,,,111,WORD,"ID",50,induce,INDUCE,m,,,,,,-0.8,0.5,0,0,0,,0,115,115,110,1,
,,,,,,,,,,,,,,,,,,5846c387d2be990001174c6f,2020-08-10_10h08.47.810,lexical_decision_task_MP,2020.1.3,MacIntel,60,z,1,0.71409,,,,,,,,0.71409,1,,,,,,368,NW,UN,33,wronch,HORNAL,z,,,,,,-0.8,0.5,0,0,0,,0,116,116,367,1,
,,,,,,,,,,,,,,,,,,5846c387d2be990001174c6f,2020-08-10_10h08.47.810,lexical_decision_task_MP,2020.1.3,MacIntel,60,z,1,0.79319,,,,,,,,0.79319,1,,,,,,446,NW,UN,50,gircue,RUNAMO,z,,,,,,-0.8,0.5,0,0,0,,0,117,117,445,1,
,,,,,,,,,,,,,,,,,,5846c387d2be990001174c6f,2020-08-10_10h08.47.810,lexical_decision_task_MP,2020.1.3,MacIntel,60,m,1,0.500045,,,,,,,,0.500045,1,,,,,,29,WORD,"ID",33,sketch,SKETCH,m,,,,,,-0.8,0.5,0,0,0,,0,118,118,28,1,
,,,,,,,,,,,,,,,,,,5846c387d2be990001174c6f,2020-08-10_10h08.47.810,lexical_decision_task_MP,2020.1.3,MacIntel,60,m,1,0.569525,,,,,,,,0.569525,1,,,,,,57,WORD,"ID",33,change,CHANGE,m,,,,,,-0.8,0.5,0,0,0,,0,119,119,56,1,
,,,,,,,,,,,,,,,,,,5846c387d2be990001174c6f,2020-08-10_10h08.47.810,lexical_decision_task_MP,2020.1.3,MacIntel,60,m,1,0.554485,,,,,,,,0.554485,1,,,,,,47,WORD,"ID",33,income,INCOME,m,,,,,,-0.8,0.5,0,0,0,space,0,120,120,46,1,16.690845
,,,,,,,,,,,,,,,,,,5846c387d2be990001174c6f,2020-08-10_10h08.47.810,lexical_decision_task_MP,2020.1.3,MacIntel,60,z,1,1.098825,,,,,,,,1.098825,1,,,,,,296,NW,"ID",33,beinch,BEINCH,z,,,,,,-0.8,0.5,0,0,0,,0,121,121,295,1,
,,,,,,,,,,,,,,,,,,5846c387d2be990001174c6f,2020-08-10_10h08.47.810,lexical_decision_task_MP,2020.1.3,MacIntel,60,m,1,0.418545,,,,,,,,0.418545,1,,,,,,59,WORD,"ID",33,splint,SPLINT,m,,,,,,-0.8,0.5,0,0,0,,0,122,122,58,1,
,,,,,,,,,,,,,,,,,,5846c387d2be990001174c6f,2020-08-10_10h08.47.810,lexical_decision_task_MP,2020.1.3,MacIntel,60,m,1,0.46695,,,,,,,,0.46695,1,,,,,,155,WORD,UN,33,cradle,LIZARD,m,,,,,,-0.8,0.5,0,0,0,,0,123,123,154,1,
,,,,,,,,,,,,,,,,,,5846c387d2be990001174c6f,2020-08-10_10h08.47.810,lexical_decision_task_MP,2020.1.3,MacIntel,60,m,1,0.46492,,,,,,,,0.46492,1,,,,,,80,WORD,"ID",50,family,FAMILY,m,,,,,,-0.8,0.5,0,0,0,,0,124,124,79,1,
,,,,,,,,,,,,,,,,,,5846c387d2be990001174c6f,2020-08-10_10h08.47.810,lexical_decision_task_MP,2020.1.3,MacIntel,60,m,1,0.568425,,,,,,,,0.568425,1,,,,,,45,WORD,"ID",33,clergy,CLERGY,m,,,,,,-0.8,0.5,0,0,0,,0,125,125,44,1,
,,,,,,,,,,,,,,,,,,5846c387d2be990001174c6f,2020-08-10_10h08.47.810,lexical_decision_task_MP,2020.1.3,MacIntel,60,z,1,0.594215,,,,,,,,0.594215,1,,,,,,302,NW,"ID",50,miluer,MILUER,z,,,,,,-0.8,0.5,0,0,0,,0,126,126,301,1,
,,,,,,,,,,,,,,,,,,5846c387d2be990001174c6f,2020-08-10_10h08.47.810,lexical_decision_task_MP,2020.1.3,MacIntel,60,m,1,0.590175,,,,,,,,0.590175,1,,,,,,120,WORD,"ID",50,strain,STRAIN,m,,,,,,-0.8,0.5,0,0,0,,0,127,127,119,1,
,,,,,,,,,,,,,,,,,,5846c387d2be990001174c6f,2020-08-10_10h08.47.810,lexical_decision_task_MP,2020.1.3,MacIntel,60,z,1,0.65255,,,,,,,,0.65255,1,,,,,,249,NW,"ID",33,batrol,BATROL,z,,,,,,-0.8,0.5,0,0,0,,0,128,128,248,1,
,,,,,,,,,,,,,,,,,,5846c387d2be990001174c6f,2020-08-10_10h08.47.810,lexical_decision_task_MP,2020.1.3,MacIntel,60,z,1,0.795355,,,,,,,,0.795355,1,,,,,,369,NW,UN,33,sleact,WRONCH,z,,,,,,-0.8,0.5,0,0,0,,0,129,129,368,1,
,,,,,,,,,,,,,,,,,,5846c387d2be990001174c6f,2020-08-10_10h08.47.810,lexical_decision_task_MP,2020.1.3,MacIntel,60,z,1,0.61671,,,,,,,,0.61671,1,,,,,,403,NW,UN,33,cluirm,BRUATS,z,,,,,,-0.8,0.5,0,0,0,,0,130,130,402,1,
,,,,,,,,,,,,,,,,,,5846c387d2be990001174c6f,2020-08-10_10h08.47.810,lexical_decision_task_MP,2020.1.3,MacIntel,60,z,1,0.646105,,,,,,,,0.646105,1,,,,,,359,NW,"ID",50,fonver,FONVER,z,,,,,,-0.8,0.5,0,0,0,,0,131,131,358,1,
,,,,,,,,,,,,,,,,,,5846c387d2be990001174c6f,2020-08-10_10h08.47.810,lexical_decision_task_MP,2020.1.3,MacIntel,60,m,1,0.5157,,,,,,,,0.5157,1,,,,,,132,WORD,UN,33,bleach,STRONG,m,,,,,,-0.8,0.5,0,0,0,,0,132,132,131,1,
,,,,,,,,,,,,,,,,,,5846c387d2be990001174c6f,2020-08-10_10h08.47.810,lexical_decision_task_MP,2020.1.3,MacIntel,60,m,1,0.50733,,,,,,,,0.50733,1,,,,,,146,WORD,UN,33,garlic,COUPLE,m,,,,,,-0.8,0.5,0,0,0,,0,133,133,145,1,
,,,,,,,,,,,,,,,,,,5846c387d2be990001174c6f,2020-08-10_10h08.47.810,lexical_decision_task_MP,2020.1.3,MacIntel,60,z,0,0.552175,,,,,,,,0.552175,0,,,,,,234,WORD,UN,50,lumber,CLUMSY,m,,,,,,-0.8,0.5,0,0,0,,0,134,134,233,1,
,,,,,,,,,,,,,,,,,,5846c387d2be990001174c6f,2020-08-10_10h08.47.810,lexical_decision_task_MP,2020.1.3,MacIntel,60,z,1,0.639475,,,,,,,,0.639475,1,,,,,,252,NW,"ID",33,stapod,STAPOD,z,,,,,,-0.8,0.5,0,0,0,,0,135,135,251,1,
,,,,,,,,,,,,,,,,,,5846c387d2be990001174c6f,2020-08-10_10h08.47.810,lexical_decision_task_MP,2020.1.3,MacIntel,60,z,1,0.652,,,,,,,,0.652,1,,,,,,243,NW,"ID",33,musied,MUSIED,z,,,,,,-0.8,0.5,0,0,0,,0,136,136,242,1,
,,,,,,,,,,,,,,,,,,5846c387d2be990001174c6f,2020-08-10_10h08.47.810,lexical_decision_task_MP,2020.1.3,MacIntel,60,z,1,0.532515,,,,,,,,0.532515,1,,,,,,251,NW,"ID",33,lupict,LUPICT,z,,,,,,-0.8,0.5,0,0,0,,0,137,137,250,1,
,,,,,,,,,,,,,,,,,,5846c387d2be990001174c6f,2020-08-10_10h08.47.810,lexical_decision_task_MP,2020.1.3,MacIntel,60,m,1,0.431135,,,,,,,,0.431135,1,,,,,,123,WORD,UN,33,enough,STRIKE,m,,,,,,-0.8,0.5,0,0,0,,0,138,138,122,1,
,,,,,,,,,,,,,,,,,,5846c387d2be990001174c6f,2020-08-10_10h08.47.810,lexical_decision_task_MP,2020.1.3,MacIntel,60,z,1,0.51835,,,,,,,,0.51835,1,,,,,,424,NW,UN,50,urivel,PRAILE,z,,,,,,-0.8,0.5,0,0,0,,0,139,139,423,1,
,,,,,,,,,,,,,,,,,,5846c387d2be990001174c6f,2020-08-10_10h08.47.810,lexical_decision_task_MP,2020.1.3,MacIntel,60,z,1,0.64134,,,,,,,,0.64134,1,,,,,,323,NW,"ID",50,rosail,ROSAIL,z,,,,,,-0.8,0.5,0,0,0,,0,140,140,322,1,
,,,,,,,,,,,,,,,,,,5846c387d2be990001174c6f,2020-08-10_10h08.47.810,lexical_decision_task_MP,2020.1.3,MacIntel,60,m,1,0.51808,,,,,,,,0.51808,1,,,,,,186,WORD,UN,50,course,PORTAL,m,,,,,,-0.8,0.5,0,0,0,,0,141,141,185,1,
,,,,,,,,,,,,,,,,,,5846c387d2be990001174c6f,2020-08-10_10h08.47.810,lexical_decision_task_MP,2020.1.3,MacIntel,60,z,1,0.584295,,,,,,,,0.584295,1,,,,,,409,NW,UN,33,tunory,ELOPIA,z,,,,,,-0.8,0.5,0,0,0,,0,142,142,408,1,
,,,,,,,,,,,,,,,,,,5846c387d2be990001174c6f,2020-08-10_10h08.47.810,lexical_decision_task_MP,2020.1.3,MacIntel,60,m,1,0.5162,,,,,,,,0.5162,1,,,,,,238,WORD,UN,50,grumpy,FLOWER,m,,,,,,-0.8,0.5,0,0,0,,0,143,143,237,1,
,,,,,,,,,,,,,,,,,,5846c387d2be990001174c6f,2020-08-10_10h08.47.810,lexical_decision_task_MP,2020.1.3,MacIntel,60,m,1,0.52093,,,,,,,,0.52093,1,,,,,,144,WORD,UN,33,parish,SPONGE,m,,,,,,-0.8,0.5,0,0,0,,0,144,144,143,1,
,,,,,,,,,,,,,,,,,,5846c387d2be990001174c6f,2020-08-10_10h08.47.810,lexical_decision_task_MP,2020.1.3,MacIntel,60,m,1,0.51995,,,,,,,,0.51995,1,,,,,,148,WORD,UN,33,invade,CUSTOM,m,,,,,,-0.8,0.5,0,0,0,,0,145,145,147,1,
,,,,,,,,,,,,,,,,,,5846c387d2be990001174c6f,2020-08-10_10h08.47.810,lexical_decision_task_MP,2020.1.3,MacIntel,60,m,1,0.56187,,,,,,,,0.56187,1,,,,,,221,WORD,UN,50,hinder,MASCOT,m,,,,,,-0.8,0.5,0,0,0,,0,146,146,220,1,
,,,,,,,,,,,,,,,,,,5846c387d2be990001174c6f,2020-08-10_10h08.47.810,lexical_decision_task_MP,2020.1.3,MacIntel,60,m,1,0.58695,,,,,,,,0.58695,1,,,,,,215,WORD,UN,50,behalf,PHOBIA,m,,,,,,-0.8,0.5,0,0,0,,0,147,147,214,1,
,,,,,,,,,,,,,,,,,,5846c387d2be990001174c6f,2020-08-10_10h08.47.810,lexical_decision_task_MP,2020.1.3,MacIntel,60,z,1,0.659675,,,,,,,,0.659675,1,,,,,,280,NW,"ID",33,curbol,CURBOL,z,,,,,,-0.8,0.5,0,0,0,,0,148,148,279,1,
,,,,,,,,,,,,,,,,,,5846c387d2be990001174c6f,2020-08-10_10h08.47.810,lexical_decision_task_MP,2020.1.3,MacIntel,60,z,1,0.56703,,,,,,,,0.56703,1,,,,,,435,NW,UN,50,frutan,IMPURB,z,,,,,,-0.8,0.5,0,0,0,,0,149,149,434,1,
,,,,,,,,,,,,,,,,,,5846c387d2be990001174c6f,2020-08-10_10h08.47.810,lexical_decision_task_MP,2020.1.3,MacIntel,60,m,1,0.67549,,,,,,,,0.67549,1,,,,,,195,WORD,UN,50,credit,RESIGN,m,,,,,,-0.8,0.5,0,0,0,,0,150,150,194,1,
,,,,,,,,,,,,,,,,,,5846c387d2be990001174c6f,2020-08-10_10h08.47.810,lexical_decision_task_MP,2020.1.3,MacIntel,60,m,1,0.497575,,,,,,,,0.497575,1,,,,,,98,WORD,"ID",50,belong,BELONG,m,,,,,,-0.8,0.5,0,0,0,,0,151,151,97,1,
,,,,,,,,,,,,,,,,,,5846c387d2be990001174c6f,2020-08-10_10h08.47.810,lexical_decision_task_MP,2020.1.3,MacIntel,60,m,1,0.513805,,,,,,,,0.513805,1,,,,,,158,WORD,UN,33,detail,ISLAND,m,,,,,,-0.8,0.5,0,0,0,,0,152,152,157,1,
,,,,,,,,,,,,,,,,,,5846c387d2be990001174c6f,2020-08-10_10h08.47.810,lexical_decision_task_MP,2020.1.3,MacIntel,60,z,1,0.60678,,,,,,,,0.60678,1,,,,,,444,NW,UN,50,minkel,JAUNCE,z,,,,,,-0.8,0.5,0,0,0,,0,153,153,443,1,
,,,,,,,,,,,,,,,,,,5846c387d2be990001174c6f,2020-08-10_10h08.47.810,lexical_decision_task_MP,2020.1.3,MacIntel,60,m,1,0.96578,,,,,,,,0.96578,1,,,,,,122,WORD,UN,33,strike,LINGER,m,,,,,,-0.8,0.5,0,0,0,,0,154,154,121,1,
,,,,,,,,,,,,,,,,,,5846c387d2be990001174c6f,2020-08-10_10h08.47.810,lexical_decision_task_MP,2020.1.3,MacIntel,60,m,0,0.69842,,,,,,,,0.69842,0,,,,,,419,NW,UN,33,gushop,SLOUNT,z,,,,,,-0.8,0.5,0,0,0,,0,155,155,418,1,
,,,,,,,,,,,,,,,,,,5846c387d2be990001174c6f,2020-08-10_10h08.47.810,lexical_decision_task_MP,2020.1.3,MacIntel,60,m,1,0.55655,,,,,,,,0.55655,1,,,,,,137,WORD,UN,33,melody,FINGER,m,,,,,,-0.8,0.5,0,0,0,,0,156,156,136,1,
,,,,,,,,,,,,,,,,,,5846c387d2be990001174c6f,2020-08-10_10h08.47.810,lexical_decision_task_MP,2020.1.3,MacIntel,60,m,1,0.648825,,,,,,,,0.648825,1,,,,,,199,WORD,UN,50,beacon,INVOKE,m,,,,,,-0.8,0.5,0,0,0,,0,157,157,198,1,
,,,,,,,,,,,,,,,,,,5846c387d2be990001174c6f,2020-08-10_10h08.47.810,lexical_decision_task_MP,2020.1.3,MacIntel,60,m,0,0.750465,,,,,,,,0.750465,0,,,,,,433,NW,UN,50,pitrom,DRANCE,z,,,,,,-0.8,0.5,0,0,0,,0,158,158,432,1,
,,,,,,,,,,,,,,,,,,5846c387d2be990001174c6f,2020-08-10_10h08.47.810,lexical_decision_task_MP,2020.1.3,MacIntel,60,m,1,0.718865,,,,,,,,0.718865,1,,,,,,16,WORD,"ID",33,faucet,FAUCET,m,,,,,,-0.8,0.5,0,0,0,,0,159,159,15,1,
,,,,,,,,,,,,,,,,,,5846c387d2be990001174c6f,2020-08-10_10h08.47.810,lexical_decision_task_MP,2020.1.3,MacIntel,60,m,1,0.75252,,,,,,,,0.75252,1,,,,,,184,WORD,UN,50,bother,SLEAZY,m,,,,,,-0.8,0.5,0,0,0,,0,160,160,183,1,
,,,,,,,,,,,,,,,,,,5846c387d2be990001174c6f,2020-08-10_10h08.47.810,lexical_decision_task_MP,2020.1.3,MacIntel,60,z,1,0.687145,,,,,,,,0.687145,1,,,,,,460,NW,UN,50,justre,MINGAR,z,,,,,,-0.8,0.5,0,0,0,,0,161,161,459,1,
,,,,,,,,,,,,,,,,,,5846c387d2be990001174c6f,2020-08-10_10h08.47.810,lexical_decision_task_MP,2020.1.3,MacIntel,60,z,0,0.48546,,,,,,,,0.48546,0,,,,,,170,WORD,UN,33,depart,POUNCE,m,,,,,,-0.8,0.5,0,0,0,,0,162,162,169,1,
,,,,,,,,,,,,,,,,,,5846c387d2be990001174c6f,2020-08-10_10h08.47.810,lexical_decision_task_MP,2020.1.3,MacIntel,60,m,1,0.593005,,,,,,,,0.593005,1,,,,,,41,WORD,"ID",33,spring,SPRING,m,,,,,,-0.8,0.5,0,0,0,,0,163,163,40,1,
,,,,,,,,,,,,,,,,,,5846c387d2be990001174c6f,2020-08-10_10h08.47.810,lexical_decision_task_MP,2020.1.3,MacIntel,60,z,1,0.745875,,,,,,,,0.745875,1,,,,,,246,NW,"ID",33,piaton,PIATON,z,,,,,,-0.8,0.5,0,0,0,,0,164,164,245,1,
,,,,,,,,,,,,,,,,,,5846c387d2be990001174c6f,2020-08-10_10h08.47.810,lexical_decision_task_MP,2020.1.3,MacIntel,60,,0,,,,,,,,,0.745875,-1,,,,,,142,WORD,UN,33,orphan,SPRUCE,m,,,,,,-0.8,0.5,0,0,0,,0,165,165,141,1,
,,,,,,,,,,,,,,,,,,5846c387d2be990001174c6f,2020-08-10_10h08.47.810,lexical_decision_task_MP,2020.1.3,MacIntel,60,m,1,0.93886,,,,,,,,0.93886,1,,,,,,15,WORD,"ID",33,amount,AMOUNT,m,,,,,,-0.8,0.5,0,0,0,,0,166,166,14,1,
,,,,,,,,,,,,,,,,,,5846c387d2be990001174c6f,2020-08-10_10h08.47.810,lexical_decision_task_MP,2020.1.3,MacIntel,60,m,1,0.466625,,,,,,,,0.466625,1,,,,,,150,WORD,UN,33,mystic,RANDOM,m,,,,,,-0.8,0.5,0,0,0,,0,167,167,149,1,
,,,,,,,,,,,,,,,,,,5846c387d2be990001174c6f,2020-08-10_10h08.47.810,lexical_decision_task_MP,2020.1.3,MacIntel,60,z,1,0.58754,,,,,,,,0.58754,1,,,,,,298,NW,"ID",33,piergy,PIERGY,z,,,,,,-0.8,0.5,0,0,0,,0,168,168,297,1,
,,,,,,,,,,,,,,,,,,5846c387d2be990001174c6f,2020-08-10_10h08.47.810,lexical_decision_task_MP,2020.1.3,MacIntel,60,z,1,0.74146,,,,,,,,0.74146,1,,,,,,315,NW,"ID",50,laston,LASTON,z,,,,,,-0.8,0.5,0,0,0,,0,169,169,314,1,
,,,,,,,,,,,,,,,,,,5846c387d2be990001174c6f,2020-08-10_10h08.47.810,lexical_decision_task_MP,2020.1.3,MacIntel,60,m,1,0.502375,,,,,,,,0.502375,1,,,,,,208,WORD,UN,50,search,HOCKEY,m,,,,,,-0.8,0.5,0,0,0,,0,170,170,207,1,
,,,,,,,,,,,,,,,,,,5846c387d2be990001174c6f,2020-08-10_10h08.47.810,lexical_decision_task_MP,2020.1.3,MacIntel,60,m,1,0.55314,,,,,,,,0.55314,1,,,,,,89,WORD,"ID",50,permit,PERMIT,m,,,,,,-0.8,0.5,0,0,0,,0,171,171,88,1,
,,,,,,,,,,,,,,,,,,5846c387d2be990001174c6f,2020-08-10_10h08.47.810,lexical_decision_task_MP,2020.1.3,MacIntel,60,z,1,0.567625,,,,,,,,0.567625,1,,,,,,361,NW,UN,33,tireau,PAUCHE,z,,,,,,-0.8,0.5,0,0,0,,0,172,172,360,1,
,,,,,,,,,,,,,,,,,,5846c387d2be990001174c6f,2020-08-10_10h08.47.810,lexical_decision_task_MP,2020.1.3,MacIntel,60,m,1,0.60192,,,,,,,,0.60192,1,,,,,,140,WORD,UN,33,reason,PRINCE,m,,,,,,-0.8,0.5,0,0,0,,0,173,173,139,1,
,,,,,,,,,,,,,,,,,,5846c387d2be990001174c6f,2020-08-10_10h08.47.810,lexical_decision_task_MP,2020.1.3,MacIntel,60,z,1,0.567555,,,,,,,,0.567555,1,,,,,,351,NW,"ID",50,tiesch,TIESCH,z,,,,,,-0.8,0.5,0,0,0,,0,174,174,350,1,
,,,,,,,,,,,,,,,,,,5846c387d2be990001174c6f,2020-08-10_10h08.47.810,lexical_decision_task_MP,2020.1.3,MacIntel,60,m,1,0.5571,,,,,,,,0.5571,1,,,,,,97,WORD,"ID",50,client,CLIENT,m,,,,,,-0.8,0.5,0,0,0,,0,175,175,96,1,
,,,,,,,,,,,,,,,,,,5846c387d2be990001174c6f,2020-08-10_10h08.47.810,lexical_decision_task_MP,2020.1.3,MacIntel,60,z,1,0.591035,,,,,,,,0.591035,1,,,,,,474,NW,UN,50,gorbie,HABLIN,z,,,,,,-0.8,0.5,0,0,0,,0,176,176,473,1,
,,,,,,,,,,,,,,,,,,5846c387d2be990001174c6f,2020-08-10_10h08.47.810,lexical_decision_task_MP,2020.1.3,MacIntel,60,z,1,0.72318,,,,,,,,0.72318,1,,,,,,292,NW,"ID",33,ablint,ABLINT,z,,,,,,-0.8,0.5,0,0,0,,0,177,177,291,1,
,,,,,,,,,,,,,,,,,,5846c387d2be990001174c6f,2020-08-10_10h08.47.810,lexical_decision_task_MP,2020.1.3,MacIntel,60,z,1,0.66469,,,,,,,,0.66469,1,,,,,,279,NW,"ID",33,celond,CELOND,z,,,,,,-0.8,0.5,0,0,0,,0,178,178,278,1,
,,,,,,,,,,,,,,,,,,5846c387d2be990001174c6f,2020-08-10_10h08.47.810,lexical_decision_task_MP,2020.1.3,MacIntel,60,m,1,0.56581,,,,,,,,0.56581,1,,,,,,94,WORD,"ID",50,travel,TRAVEL,m,,,,,,-0.8,0.5,0,0,0,,0,179,179,93,1,
,,,,,,,,,,,,,,,,,,5846c387d2be990001174c6f,2020-08-10_10h08.47.810,lexical_decision_task_MP,2020.1.3,MacIntel,60,m,1,0.64973,,,,,,,,0.64973,1,,,,,,24,WORD,"ID",33,praise,PRAISE,m,,,,,,-0.8,0.5,0,0,0,,0,180,180,23,1,
,,,,,,,,,,,,,,,,,,5846c387d2be990001174c6f,2020-08-10_10h08.47.810,lexical_decision_task_MP,2020.1.3,MacIntel,60,m,1,0.4345,,,,,,,,0.4345,1,,,,,,85,WORD,"ID",50,sprawl,SPRAWL,m,,,,,,-0.8,0.5,0,0,0,,0,181,181,84,1,
,,,,,,,,,,,,,,,,,,5846c387d2be990001174c6f,2020-08-10_10h08.47.810,lexical_decision_task_MP,2020.1.3,MacIntel,60,z,1,0.64163,,,,,,,,0.64163,1,,,,,,374,NW,UN,33,yorque,SLIANT,z,,,,,,-0.8,0.5,0,0,0,,0,182,182,373,1,
,,,,,,,,,,,,,,,,,,5846c387d2be990001174c6f,2020-08-10_10h08.47.810,lexical_decision_task_MP,2020.1.3,MacIntel,60,z,1,0.615795,,,,,,,,0.615795,1,,,,,,274,NW,"ID",33,fumblo,FUMBLO,z,,,,,,-0.8,0.5,0,0,0,,0,183,183,273,1,
,,,,,,,,,,,,,,,,,,5846c387d2be990001174c6f,2020-08-10_10h08.47.810,lexical_decision_task_MP,2020.1.3,MacIntel,60,m,1,0.57284,,,,,,,,0.57284,1,,,,,,86,WORD,"ID",50,rodent,RODENT,m,,,,,,-0.8,0.5,0,0,0,,0,184,184,85,1,
,,,,,,,,,,,,,,,,,,5846c387d2be990001174c6f,2020-08-10_10h08.47.810,lexical_decision_task_MP,2020.1.3,MacIntel,60,m,0,0.6511,,,,,,,,0.6511,0,,,,,,260,NW,"ID",33,unject,UNJECT,z,,,,,,-0.8,0.5,0,0,0,,0,185,185,259,1,
,,,,,,,,,,,,,,,,,,5846c387d2be990001174c6f,2020-08-10_10h08.47.810,lexical_decision_task_MP,2020.1.3,MacIntel,60,m,1,0.503495,,,,,,,,0.503495,1,,,,,,212,WORD,UN,50,squeal,VERIFY,m,,,,,,-0.8,0.5,0,0,0,,0,186,186,211,1,
,,,,,,,,,,,,,,,,,,5846c387d2be990001174c6f,2020-08-10_10h08.47.810,lexical_decision_task_MP,2020.1.3,MacIntel,60,m,1,0.51659,,,,,,,,0.51659,1,,,,,,77,WORD,"ID",50,racket,RACKET,m,,,,,,-0.8,0.5,0,0,0,,0,187,187,76,1,
,,,,,,,,,,,,,,,,,,5846c387d2be990001174c6f,2020-08-10_10h08.47.810,lexical_decision_task_MP,2020.1.3,MacIntel,60,z,1,0.668025,,,,,,,,0.668025,1,,,,,,410,NW,UN,33,orchin,TUNORY,z,,,,,,-0.8,0.5,0,0,0,,0,188,188,409,1,
,,,,,,,,,,,,,,,,,,5846c387d2be990001174c6f,2020-08-10_10h08.47.810,lexical_decision_task_MP,2020.1.3,MacIntel,60,m,1,0.542745,,,,,,,,0.542745,1,,,,,,124,WORD,UN,33,nickel,BLOUSE,m,,,,,,-0.8,0.5,0,0,0,,0,189,189,123,1,
,,,,,,,,,,,,,,,,,,5846c387d2be990001174c6f,2020-08-10_10h08.47.810,lexical_decision_task_MP,2020.1.3,MacIntel,60,z,1,0.601015,,,,,,,,0.601015,1,,,,,,289,NW,"ID",33,starby,STARBY,z,,,,,,-0.8,0.5,0,0,0,,0,190,190,288,1,
,,,,,,,,,,,,,,,,,,5846c387d2be990001174c6f,2020-08-10_10h08.47.810,lexical_decision_task_MP,2020.1.3,MacIntel,60,m,1,0.523745,,,,,,,,0.523745,1,,,,,,55,WORD,"ID",33,stroke,STROKE,m,,,,,,-0.8,0.5,0,0,0,,0,191,191,54,1,
,,,,,,,,,,,,,,,,,,5846c387d2be990001174c6f,2020-08-10_10h08.47.810,lexical_decision_task_MP,2020.1.3,MacIntel,60,z,1,0.631375,,,,,,,,0.631375,1,,,,,,336,NW,"ID",50,ghodus,GHODUS,z,,,,,,-0.8,0.5,0,0,0,,0,192,192,335,1,
,,,,,,,,,,,,,,,,,,5846c387d2be990001174c6f,2020-08-10_10h08.47.810,lexical_decision_task_MP,2020.1.3,MacIntel,60,m,0,0.421205,,,,,,,,0.421205,0,,,,,,345,NW,"ID",50,absend,ABSEND,z,,,,,,-0.8,0.5,0,0,0,,0,193,193,344,1,
,,,,,,,,,,,,,,,,,,5846c387d2be990001174c6f,2020-08-10_10h08.47.810,lexical_decision_task_MP,2020.1.3,MacIntel,60,z,1,0.748385,,,,,,,,0.748385,1,,,,,,401,NW,UN,33,elopia,MUSTIL,z,,,,,,-0.8,0.5,0,0,0,,0,194,194,400,1,
,,,,,,,,,,,,,,,,,,5846c387d2be990001174c6f,2020-08-10_10h08.47.810,lexical_decision_task_MP,2020.1.3,MacIntel,60,z,1,0.60231,,,,,,,,0.60231,1,,,,,,311,NW,"ID",50,sproly,SPROLY,z,,,,,,-0.8,0.5,0,0,0,,0,195,195,310,1,
,,,,,,,,,,,,,,,,,,5846c387d2be990001174c6f,2020-08-10_10h08.47.810,lexical_decision_task_MP,2020.1.3,MacIntel,60,m,1,0.440135,,,,,,,,0.440135,1,,,,,,109,WORD,"ID",50,wonder,WONDER,m,,,,,,-0.8,0.5,0,0,0,,0,196,196,108,1,
,,,,,,,,,,,,,,,,,,5846c387d2be990001174c6f,2020-08-10_10h08.47.810,lexical_decision_task_MP,2020.1.3,MacIntel,60,z,1,0.66925,,,,,,,,0.66925,1,,,,,,395,NW,UN,33,flengy,COLURY,z,,,,,,-0.8,0.5,0,0,0,,0,197,197,394,1,
,,,,,,,,,,,,,,,,,,5846c387d2be990001174c6f,2020-08-10_10h08.47.810,lexical_decision_task_MP,2020.1.3,MacIntel,60,z,1,0.486145,,,,,,,,0.486145,1,,,,,,355,NW,"ID",50,zingly,ZINGLY,z,,,,,,-0.8,0.5,0,0,0,,0,198,198,354,1,
,,,,,,,,,,,,,,,,,,5846c387d2be990001174c6f,2020-08-10_10h08.47.810,lexical_decision_task_MP,2020.1.3,MacIntel,60,z,1,0.62133,,,,,,,,0.62133,1,,,,,,353,NW,"ID",50,clurey,CLUREY,z,,,,,,-0.8,0.5,0,0,0,,0,199,199,352,1,
,,,,,,,,,,,,,,,,,,5846c387d2be990001174c6f,2020-08-10_10h08.47.810,lexical_decision_task_MP,2020.1.3,MacIntel,60,z,1,0.519405,,,,,,,,0.519405,1,,,,,,354,NW,"ID",50,virlex,VIRLEX,z,,,,,,-0.8,0.5,0,0,0,,0,200,200,353,1,
,,,,,,,,,,,,,,,,,,5846c387d2be990001174c6f,2020-08-10_10h08.47.810,lexical_decision_task_MP,2020.1.3,MacIntel,60,z,1,0.52064,,,,,,,,0.52064,1,,,,,,385,NW,UN,33,ancust,VEIGMA,z,,,,,,-0.8,0.5,0,0,0,,0,201,201,384,1,
,,,,,,,,,,,,,,,,,,5846c387d2be990001174c6f,2020-08-10_10h08.47.810,lexical_decision_task_MP,2020.1.3,MacIntel,60,m,1,0.54114,,,,,,,,0.54114,1,,,,,,192,WORD,UN,50,object,PLAGUE,m,,,,,,-0.8,0.5,0,0,0,,0,202,202,191,1,
,,,,,,,,,,,,,,,,,,5846c387d2be990001174c6f,2020-08-10_10h08.47.810,lexical_decision_task_MP,2020.1.3,MacIntel,60,m,1,0.57454,,,,,,,,0.57454,1,,,,,,176,WORD,UN,33,advent,STRIFE,m,,,,,,-0.8,0.5,0,0,0,,0,203,203,175,1,
,,,,,,,,,,,,,,,,,,5846c387d2be990001174c6f,2020-08-10_10h08.47.810,lexical_decision_task_MP,2020.1.3,MacIntel,60,m,0,0.47474,,,,,,,,0.47474,0,,,,,,342,NW,"ID",50,randow,RANDOW,z,,,,,,-0.8,0.5,0,0,0,,0,204,204,341,1,
,,,,,,,,,,,,,,,,,,5846c387d2be990001174c6f,2020-08-10_10h08.47.810,lexical_decision_task_MP,2020.1.3,MacIntel,60,z,1,0.56653,,,,,,,,0.56653,1,,,,,,425,NW,UN,50,schind,FRUDGE,z,,,,,,-0.8,0.5,0,0,0,,0,205,205,424,1,
,,,,,,,,,,,,,,,,,,5846c387d2be990001174c6f,2020-08-10_10h08.47.810,lexical_decision_task_MP,2020.1.3,MacIntel,60,z,1,0.50513,,,,,,,,0.50513,1,,,,,,346,NW,"ID",50,saudic,SAUDIC,z,,,,,,-0.8,0.5,0,0,0,,0,206,206,345,1,
,,,,,,,,,,,,,,,,,,5846c387d2be990001174c6f,2020-08-10_10h08.47.810,lexical_decision_task_MP,2020.1.3,MacIntel,60,z,1,0.500845,,,,,,,,0.500845,1,,,,,,443,NW,UN,50,jaunce,DORSEX,z,,,,,,-0.8,0.5,0,0,0,,0,207,207,442,1,
,,,,,,,,,,,,,,,,,,5846c387d2be990001174c6f,2020-08-10_10h08.47.810,lexical_decision_task_MP,2020.1.3,MacIntel,60,z,0,0.5349,,,,,,,,0.5349,0,,,,,,204,WORD,UN,50,lounge,BURDEN,m,,,,,,-0.8,0.5,0,0,0,,0,208,208,203,1,
,,,,,,,,,,,,,,,,,,5846c387d2be990001174c6f,2020-08-10_10h08.47.810,lexical_decision_task_MP,2020.1.3,MacIntel,60,z,1,0.60693,,,,,,,,0.60693,1,,,,,,357,NW,"ID",50,derain,DERAIN,z,,,,,,-0.8,0.5,0,0,0,,0,209,209,356,1,
,,,,,,,,,,,,,,,,,,5846c387d2be990001174c6f,2020-08-10_10h08.47.810,lexical_decision_task_MP,2020.1.3,MacIntel,60,m,1,0.525575,,,,,,,,0.525575,1,,,,,,5,WORD,"ID",33,plunge,PLUNGE,m,,,,,,-0.8,0.5,0,0,0,,0,210,210,4,1,
,,,,,,,,,,,,,,,,,,5846c387d2be990001174c6f,2020-08-10_10h08.47.810,lexical_decision_task_MP,2020.1.3,MacIntel,60,z,1,1.01532,,,,,,,,1.01532,1,,,,,,314,NW,"ID",50,sprine,SPRINE,z,,,,,,-0.8,0.5,0,0,0,,0,211,211,313,1,
,,,,,,,,,,,,,,,,,,5846c387d2be990001174c6f,2020-08-10_10h08.47.810,lexical_decision_task_MP,2020.1.3,MacIntel,60,m,1,0.565495,,,,,,,,0.565495,1,,,,,,48,WORD,"ID",33,walnut,WALNUT,m,,,,,,-0.8,0.5,0,0,0,,0,212,212,47,1,
,,,,,,,,,,,,,,,,,,5846c387d2be990001174c6f,2020-08-10_10h08.47.810,lexical_decision_task_MP,2020.1.3,MacIntel,60,m,1,0.551595,,,,,,,,0.551595,1,,,,,,99,WORD,"ID",50,fluent,FLUENT,m,,,,,,-0.8,0.5,0,0,0,,0,213,213,98,1,
,,,,,,,,,,,,,,,,,,5846c387d2be990001174c6f,2020-08-10_10h08.47.810,lexical_decision_task_MP,2020.1.3,MacIntel,60,m,1,0.575145,,,,,,,,0.575145,1,,,,,,214,WORD,UN,50,phobia,INTAKE,m,,,,,,-0.8,0.5,0,0,0,,0,214,214,213,1,
,,,,,,,,,,,,,,,,,,5846c387d2be990001174c6f,2020-08-10_10h08.47.810,lexical_decision_task_MP,2020.1.3,MacIntel,60,z,1,0.615215,,,,,,,,0.615215,1,,,,,,339,NW,"ID",50,fachow,FACHOW,z,,,,,,-0.8,0.5,0,0,0,,0,215,215,338,1,
,,,,,,,,,,,,,,,,,,5846c387d2be990001174c6f,2020-08-10_10h08.47.810,lexical_decision_task_MP,2020.1.3,MacIntel,60,z,1,0.58902,,,,,,,,0.58902,1,,,,,,265,NW,"ID",33,distar,DISTAR,z,,,,,,-0.8,0.5,0,0,0,,0,216,216,264,1,
,,,,,,,,,,,,,,,,,,5846c387d2be990001174c6f,2020-08-10_10h08.47.810,lexical_decision_task_MP,2020.1.3,MacIntel,60,m,1,0.43282,,,,,,,,0.43282,1,,,,,,210,WORD,UN,50,infect,MONKEY,m,,,,,,-0.8,0.5,0,0,0,,0,217,217,209,1,
,,,,,,,,,,,,,,,,,,5846c387d2be990001174c6f,2020-08-10_10h08.47.810,lexical_decision_task_MP,2020.1.3,MacIntel,60,m,1,0.578025,,,,,,,,0.578025,1,,,,,,236,WORD,UN,50,poster,PIRATE,m,,,,,,-0.8,0.5,0,0,0,,0,218,218,235,1,
,,,,,,,,,,,,,,,,,,5846c387d2be990001174c6f,2020-08-10_10h08.47.810,lexical_decision_task_MP,2020.1.3,MacIntel,60,z,1,0.75241,,,,,,,,0.75241,1,,,,,,362,NW,UN,33,breali,TIREAU,z,,,,,,-0.8,0.5,0,0,0,,0,219,219,361,1,
,,,,,,,,,,,,,,,,,,5846c387d2be990001174c6f,2020-08-10_10h08.47.810,lexical_decision_task_MP,2020.1.3,MacIntel,60,m,0,0.004885,,,,,,,,0.004885,0,,,,,,286,NW,"ID",33,reldon,RELDON,z,,,,,,-0.8,0.5,0,0,0,,0,220,220,285,1,
,,,,,,,,,,,,,,,,,,5846c387d2be990001174c6f,2020-08-10_10h08.47.810,lexical_decision_task_MP,2020.1.3,MacIntel,60,m,1,0.675755,,,,,,,,0.675755,1,,,,,,38,WORD,"ID",33,powder,POWDER,m,,,,,,-0.8,0.5,0,0,0,,0,221,221,37,1,
,,,,,,,,,,,,,,,,,,5846c387d2be990001174c6f,2020-08-10_10h08.47.810,lexical_decision_task_MP,2020.1.3,MacIntel,60,z,1,0.621485,,,,,,,,0.621485,1,,,,,,264,NW,"ID",33,vackel,VACKEL,z,,,,,,-0.8,0.5,0,0,0,,0,222,222,263,1,
,,,,,,,,,,,,,,,,,,5846c387d2be990001174c6f,2020-08-10_10h08.47.810,lexical_decision_task_MP,2020.1.3,MacIntel,60,z,1,0.78487,,,,,,,,0.78487,1,,,,,,348,NW,"ID",50,dumple,DUMPLE,z,,,,,,-0.8,0.5,0,0,0,,0,223,223,347,1,
,,,,,,,,,,,,,,,,,,5846c387d2be990001174c6f,2020-08-10_10h08.47.810,lexical_decision_task_MP,2020.1.3,MacIntel,60,m,1,0.548905,,,,,,,,0.548905,1,,,,,,201,WORD,UN,50,factor,ADMIRE,m,,,,,,-0.8,0.5,0,0,0,,0,224,224,200,1,
,,,,,,,,,,,,,,,,,,5846c387d2be990001174c6f,2020-08-10_10h08.47.810,lexical_decision_task_MP,2020.1.3,MacIntel,60,z,1,0.659125,,,,,,,,0.659125,1,,,,,,367,NW,UN,33,hornal,SLIQUE,z,,,,,,-0.8,0.5,0,0,0,,0,225,225,366,1,
,,,,,,,,,,,,,,,,,,5846c387d2be990001174c6f,2020-08-10_10h08.47.810,lexical_decision_task_MP,2020.1.3,MacIntel,60,m,1,0.653405,,,,,,,,0.653405,1,,,,,,35,WORD,"ID",33,socket,SOCKET,m,,,,,,-0.8,0.5,0,0,0,,0,226,226,34,1,
,,,,,,,,,,,,,,,,,,5846c387d2be990001174c6f,2020-08-10_10h08.47.810,lexical_decision_task_MP,2020.1.3,MacIntel,60,z,1,0.621175,,,,,,,,0.621175,1,,,,,,480,NW,UN,50,knisma,ROBULY,z,,,,,,-0.8,0.5,0,0,0,,0,227,227,479,1,
,,,,,,,,,,,,,,,,,,5846c387d2be990001174c6f,2020-08-10_10h08.47.810,lexical_decision_task_MP,2020.1.3,MacIntel,60,z,1,0.708875,,,,,,,,0.708875,1,,,,,,377,NW,UN,33,shrile,INJORE,z,,,,,,-0.8,0.5,0,0,0,,0,228,228,376,1,
,,,,,,,,,,,,,,,,,,5846c387d2be990001174c6f,2020-08-10_10h08.47.810,lexical_decision_task_MP,2020.1.3,MacIntel,60,m,1,0.5413,,,,,,,,0.5413,1,,,,,,209,WORD,UN,50,monkey,SEARCH,m,,,,,,-0.8,0.5,0,0,0,,0,229,229,208,1,
,,,,,,,,,,,,,,,,,,5846c387d2be990001174c6f,2020-08-10_10h08.47.810,lexical_decision_task_MP,2020.1.3,MacIntel,60,z,1,0.57124,,,,,,,,0.57124,1,,,,,,382,NW,UN,33,aungre,SARLEY,z,,,,,,-0.8,0.5,0,0,0,,0,230,230,381,1,
,,,,,,,,,,,,,,,,,,5846c387d2be990001174c6f,2020-08-10_10h08.47.810,lexical_decision_task_MP,2020.1.3,MacIntel,60,m,1,0.532385,,,,,,,,0.532385,1,,,,,,43,WORD,"ID",33,tongue,TONGUE,m,,,,,,-0.8,0.5,0,0,0,,0,231,231,42,1,
,,,,,,,,,,,,,,,,,,5846c387d2be990001174c6f,2020-08-10_10h08.47.810,lexical_decision_task_MP,2020.1.3,MacIntel,60,m,1,0.655965,,,,,,,,0.655965,1,,,,,,237,WORD,UN,50,seldom,POSTER,m,,,,,,-0.8,0.5,0,0,0,,0,232,232,236,1,
,,,,,,,,,,,,,,,,,,5846c387d2be990001174c6f,2020-08-10_10h08.47.810,lexical_decision_task_MP,2020.1.3,MacIntel,60,z,1,0.58454,,,,,,,,0.58454,1,,,,,,253,NW,"ID",33,resait,RESAIT,z,,,,,,-0.8,0.5,0,0,0,,0,233,233,252,1,
,,,,,,,,,,,,,,,,,,5846c387d2be990001174c6f,2020-08-10_10h08.47.810,lexical_decision_task_MP,2020.1.3,MacIntel,60,m,0,0.586215,,,,,,,,0.586215,0,,,,,,432,NW,UN,50,drance,LUNKER,z,,,,,,-0.8,0.5,0,0,0,,0,234,234,431,1,
,,,,,,,,,,,,,,,,,,5846c387d2be990001174c6f,2020-08-10_10h08.47.810,lexical_decision_task_MP,2020.1.3,MacIntel,60,z,1,0.68933,,,,,,,,0.68933,1,,,,,,384,NW,UN,33,veigma,GUESCO,z,,,,,,-0.8,0.5,0,0,0,,0,235,235,383,1,
,,,,,,,,,,,,,,,,,,5846c387d2be990001174c6f,2020-08-10_10h08.47.810,lexical_decision_task_MP,2020.1.3,MacIntel,60,z,1,0.65615,,,,,,,,0.65615,1,,,,,,396,NW,UN,33,camble,FLENGY,z,,,,,,-0.8,0.5,0,0,0,,0,236,236,395,1,
,,,,,,,,,,,,,,,,,,5846c387d2be990001174c6f,2020-08-10_10h08.47.810,lexical_decision_task_MP,2020.1.3,MacIntel,60,z,1,0.58485,,,,,,,,0.58485,1,,,,,,316,NW,"ID",50,scregm,SCREGM,z,,,,,,-0.8,0.5,0,0,0,,0,237,237,315,1,
,,,,,,,,,,,,,,,,,,5846c387d2be990001174c6f,2020-08-10_10h08.47.810,lexical_decision_task_MP,2020.1.3,MacIntel,60,m,1,0.529175,,,,,,,,0.529175,1,,,,,,172,WORD,UN,33,shower,PATROL,m,,,,,,-0.8,0.5,0,0,0,,0,238,238,171,1,
,,,,,,,,,,,,,,,,,,5846c387d2be990001174c6f,2020-08-10_10h08.47.810,lexical_decision_task_MP,2020.1.3,MacIntel,60,m,1,0.549455,,,,,,,,0.549455,1,,,,,,151,WORD,UN,33,rocket,MYSTIC,m,,,,,,-0.8,0.5,0,0,0,,0,239,239,150,1,
,,,,,,,,,,,,,,,,,,5846c387d2be990001174c6f,2020-08-10_10h08.47.810,lexical_decision_task_MP,2020.1.3,MacIntel,60,m,1,0.537375,,,,,,,,0.537375,1,,,,,,66,WORD,"ID",50,gospel,GOSPEL,m,,,,,,-0.8,0.5,0,0,0,,0,240,240,65,1,
,,,,,,,,,,,,,,,,,,5846c387d2be990001174c6f,2020-08-10_10h08.47.810,lexical_decision_task_MP,2020.1.3,MacIntel,60,z,1,0.668155,,,,,,,,0.668155,1,,,,,,320,NW,"ID",50,jockal,JOCKAL,z,,,,,,-0.8,0.5,0,0,0,space,0,241,241,319,1,1.99293
,,,,,,,,,,,,,,,,,,5846c387d2be990001174c6f,2020-08-10_10h08.47.810,lexical_decision_task_MP,2020.1.3,MacIntel,60,m,1,0.832515,,,,,,,,0.832515,1,,,,,,91,WORD,"ID",50,expand,EXPAND,m,,,,,,-0.8,0.5,0,0,0,,0,242,242,90,1,
,,,,,,,,,,,,,,,,,,5846c387d2be990001174c6f,2020-08-10_10h08.47.810,lexical_decision_task_MP,2020.1.3,MacIntel,60,m,1,0.49351,,,,,,,,0.49351,1,,,,,,129,WORD,UN,33,stupid,MARVEL,m,,,,,,-0.8,0.5,0,0,0,,0,243,243,128,1,
,,,,,,,,,,,,,,,,,,5846c387d2be990001174c6f,2020-08-10_10h08.47.810,lexical_decision_task_MP,2020.1.3,MacIntel,60,m,0,0.374255,,,,,,,,0.374255,0,,,,,,271,NW,"ID",33,aubrid,AUBRID,z,,,,,,-0.8,0.5,0,0,0,,0,244,244,270,1,
,,,,,,,,,,,,,,,,,,5846c387d2be990001174c6f,2020-08-10_10h08.47.810,lexical_decision_task_MP,2020.1.3,MacIntel,60,m,1,0.520005,,,,,,,,0.520005,1,,,,,,50,WORD,"ID",33,snatch,SNATCH,m,,,,,,-0.8,0.5,0,0,0,,0,245,245,49,1,
,,,,,,,,,,,,,,,,,,5846c387d2be990001174c6f,2020-08-10_10h08.47.810,lexical_decision_task_MP,2020.1.3,MacIntel,60,m,1,0.467455,,,,,,,,0.467455,1,,,,,,126,WORD,UN,33,castle,ENOUGH,m,,,,,,-0.8,0.5,0,0,0,,0,246,246,125,1,
,,,,,,,,,,,,,,,,,,5846c387d2be990001174c6f,2020-08-10_10h08.47.810,lexical_decision_task_MP,2020.1.3,MacIntel,60,z,1,0.515165,,,,,,,,0.515165,1,,,,,,439,NW,UN,50,saride,LIMPOR,z,,,,,,-0.8,0.5,0,0,0,,0,247,247,438,1,
,,,,,,,,,,,,,,,,,,5846c387d2be990001174c6f,2020-08-10_10h08.47.810,lexical_decision_task_MP,2020.1.3,MacIntel,60,z,1,0.71815,,,,,,,,0.71815,1,,,,,,471,NW,UN,50,cigney,NOBEST,z,,,,,,-0.8,0.5,0,0,0,,0,248,248,470,1,
,,,,,,,,,,,,,,,,,,5846c387d2be990001174c6f,2020-08-10_10h08.47.810,lexical_decision_task_MP,2020.1.3,MacIntel,60,z,1,0.65785,,,,,,,,0.65785,1,,,,,,431,NW,UN,50,lunker,CHRUMS,z,,,,,,-0.8,0.5,0,0,0,,0,249,249,430,1,
,,,,,,,,,,,,,,,,,,5846c387d2be990001174c6f,2020-08-10_10h08.47.810,lexical_decision_task_MP,2020.1.3,MacIntel,60,z,0,0.48896,,,,,,,,0.48896,0,,,,,,223,WORD,UN,50,period,KIDNEY,m,,,,,,-0.8,0.5,0,0,0,,0,250,250,222,1,
,,,,,,,,,,,,,,,,,,5846c387d2be990001174c6f,2020-08-10_10h08.47.810,lexical_decision_task_MP,2020.1.3,MacIntel,60,m,1,0.635125,,,,,,,,0.635125,1,,,,,,178,WORD,UN,33,mildew,INFORM,m,,,,,,-0.8,0.5,0,0,0,,0,251,251,177,1,
,,,,,,,,,,,,,,,,,,5846c387d2be990001174c6f,2020-08-10_10h08.47.810,lexical_decision_task_MP,2020.1.3,MacIntel,60,m,1,0.54276,,,,,,,,0.54276,1,,,,,,198,WORD,UN,50,invoke,WICKED,m,,,,,,-0.8,0.5,0,0,0,,0,252,252,197,1,
,,,,,,,,,,,,,,,,,,5846c387d2be990001174c6f,2020-08-10_10h08.47.810,lexical_decision_task_MP,2020.1.3,MacIntel,60,m,1,0.51944,,,,,,,,0.51944,1,,,,,,162,WORD,UN,33,string,CANDLE,m,,,,,,-0.8,0.5,0,0,0,,0,253,253,161,1,
,,,,,,,,,,,,,,,,,,5846c387d2be990001174c6f,2020-08-10_10h08.47.810,lexical_decision_task_MP,2020.1.3,MacIntel,60,z,0,0.571925,,,,,,,,0.571925,0,,,,,,116,WORD,"ID",50,tumble,TUMBLE,m,,,,,,-0.8,0.5,0,0,0,,0,254,254,115,1,
,,,,,,,,,,,,,,,,,,5846c387d2be990001174c6f,2020-08-10_10h08.47.810,lexical_decision_task_MP,2020.1.3,MacIntel,60,z,1,0.723805,,,,,,,,0.723805,1,,,,,,244,NW,"ID",33,eatric,EATRIC,z,,,,,,-0.8,0.5,0,0,0,,0,255,255,243,1,
,,,,,,,,,,,,,,,,,,5846c387d2be990001174c6f,2020-08-10_10h08.47.810,lexical_decision_task_MP,2020.1.3,MacIntel,60,m,1,0.506165,,,,,,,,0.506165,1,,,,,,34,WORD,"ID",33,jungle,JUNGLE,m,,,,,,-0.8,0.5,0,0,0,,0,256,256,33,1,
,,,,,,,,,,,,,,,,,,5846c387d2be990001174c6f,2020-08-10_10h08.47.810,lexical_decision_task_MP,2020.1.3,MacIntel,60,m,1,0.56926,,,,,,,,0.56926,1,,,,,,235,WORD,UN,50,pirate,GRUMPY,m,,,,,,-0.8,0.5,0,0,0,,0,257,257,234,1,
,,,,,,,,,,,,,,,,,,5846c387d2be990001174c6f,2020-08-10_10h08.47.810,lexical_decision_task_MP,2020.1.3,MacIntel,60,z,1,0.64949,,,,,,,,0.64949,1,,,,,,387,NW,UN,33,cragin,GRONCE,z,,,,,,-0.8,0.5,0,0,0,,0,258,258,386,1,
,,,,,,,,,,,,,,,,,,5846c387d2be990001174c6f,2020-08-10_10h08.47.810,lexical_decision_task_MP,2020.1.3,MacIntel,60,z,1,0.66516,,,,,,,,0.66516,1,,,,,,305,NW,"ID",50,forgle,FORGLE,z,,,,,,-0.8,0.5,0,0,0,,0,259,259,304,1,
,,,,,,,,,,,,,,,,,,5846c387d2be990001174c6f,2020-08-10_10h08.47.810,lexical_decision_task_MP,2020.1.3,MacIntel,60,m,1,0.45919,,,,,,,,0.45919,1,,,,,,28,WORD,"ID",33,comedy,COMEDY,m,,,,,,-0.8,0.5,0,0,0,,0,260,260,27,1,
,,,,,,,,,,,,,,,,,,5846c387d2be990001174c6f,2020-08-10_10h08.47.810,lexical_decision_task_MP,2020.1.3,MacIntel,60,z,1,0.68386,,,,,,,,0.68386,1,,,,,,467,NW,UN,50,wictor,GORBIE,z,,,,,,-0.8,0.5,0,0,0,,0,261,261,466,1,
,,,,,,,,,,,,,,,,,,5846c387d2be990001174c6f,2020-08-10_10h08.47.810,lexical_decision_task_MP,2020.1.3,MacIntel,60,m,1,0.46936,,,,,,,,0.46936,1,,,,,,87,WORD,"ID",50,filter,FILTER,m,,,,,,-0.8,0.5,0,0,0,,0,262,262,86,1,
,,,,,,,,,,,,,,,,,,5846c387d2be990001174c6f,2020-08-10_10h08.47.810,lexical_decision_task_MP,2020.1.3,MacIntel,60,z,1,0.706525,,,,,,,,0.706525,1,,,,,,438,NW,UN,50,limpor,BAITCH,z,,,,,,-0.8,0.5,0,0,0,,0,263,263,437,1,
,,,,,,,,,,,,,,,,,,5846c387d2be990001174c6f,2020-08-10_10h08.47.810,lexical_decision_task_MP,2020.1.3,MacIntel,60,z,1,0.75149,,,,,,,,0.75149,1,,,,,,363,NW,UN,33,impote,BREALI,z,,,,,,-0.8,0.5,0,0,0,,0,264,264,362,1,
,,,,,,,,,,,,,,,,,,5846c387d2be990001174c6f,2020-08-10_10h08.47.810,lexical_decision_task_MP,2020.1.3,MacIntel,60,z,1,0.904845,,,,,,,,0.904845,1,,,,,,322,NW,"ID",50,slanch,SLANCH,z,,,,,,-0.8,0.5,0,0,0,,0,265,265,321,1,
,,,,,,,,,,,,,,,,,,5846c387d2be990001174c6f,2020-08-10_10h08.47.810,lexical_decision_task_MP,2020.1.3,MacIntel,60,m,1,0.60313,,,,,,,,0.60313,1,,,,,,33,WORD,"ID",33,butler,BUTLER,m,,,,,,-0.8,0.5,0,0,0,,0,266,266,32,1,
,,,,,,,,,,,,,,,,,,5846c387d2be990001174c6f,2020-08-10_10h08.47.810,lexical_decision_task_MP,2020.1.3,MacIntel,60,z,1,0.656855,,,,,,,,0.656855,1,,,,,,270,NW,"ID",33,wrimsy,WRIMSY,z,,,,,,-0.8,0.5,0,0,0,,0,267,267,269,1,
,,,,,,,,,,,,,,,,,,5846c387d2be990001174c6f,2020-08-10_10h08.47.810,lexical_decision_task_MP,2020.1.3,MacIntel,60,z,1,0.53144,,,,,,,,0.53144,1,,,,,,301,NW,"ID",50,fainch,FAINCH,z,,,,,,-0.8,0.5,0,0,0,,0,268,268,300,1,
,,,,,,,,,,,,,,,,,,5846c387d2be990001174c6f,2020-08-10_10h08.47.810,lexical_decision_task_MP,2020.1.3,MacIntel,60,m,1,0.546895,,,,,,,,0.546895,1,,,,,,136,WORD,UN,33,finger,BLEACH,m,,,,,,-0.8,0.5,0,0,0,,0,269,269,135,1,
,,,,,,,,,,,,,,,,,,5846c387d2be990001174c6f,2020-08-10_10h08.47.810,lexical_decision_task_MP,2020.1.3,MacIntel,60,m,1,0.55167,,,,,,,,0.55167,1,,,,,,177,WORD,UN,33,inform,ADVENT,m,,,,,,-0.8,0.5,0,0,0,,0,270,270,176,1,
,,,,,,,,,,,,,,,,,,5846c387d2be990001174c6f,2020-08-10_10h08.47.810,lexical_decision_task_MP,2020.1.3,MacIntel,60,m,1,0.58602,,,,,,,,0.58602,1,,,,,,154,WORD,UN,33,lizard,AUTHOR,m,,,,,,-0.8,0.5,0,0,0,,0,271,271,153,1,
,,,,,,,,,,,,,,,,,,5846c387d2be990001174c6f,2020-08-10_10h08.47.810,lexical_decision_task_MP,2020.1.3,MacIntel,60,z,1,0.707185,,,,,,,,0.707185,1,,,,,,328,NW,"ID",50,broake,BROAKE,z,,,,,,-0.8,0.5,0,0,0,,0,272,272,327,1,
,,,,,,,,,,,,,,,,,,5846c387d2be990001174c6f,2020-08-10_10h08.47.810,lexical_decision_task_MP,2020.1.3,MacIntel,60,m,1,0.77881,,,,,,,,0.77881,1,,,,,,82,WORD,"ID",50,stigma,STIGMA,m,,,,,,-0.8,0.5,0,0,0,,0,273,273,81,1,
,,,,,,,,,,,,,,,,,,5846c387d2be990001174c6f,2020-08-10_10h08.47.810,lexical_decision_task_MP,2020.1.3,MacIntel,60,m,1,0.624245,,,,,,,,0.624245,1,,,,,,10,WORD,"ID",33,ethnic,ETHNIC,m,,,,,,-0.8,0.5,0,0,0,,0,274,274,9,1,
,,,,,,,,,,,,,,,,,,5846c387d2be990001174c6f,2020-08-10_10h08.47.810,lexical_decision_task_MP,2020.1.3,MacIntel,60,m,1,0.579475,,,,,,,,0.579475,1,,,,,,190,WORD,UN,50,stable,BACKUP,m,,,,,,-0.8,0.5,0,0,0,,0,275,275,189,1,
,,,,,,,,,,,,,,,,,,5846c387d2be990001174c6f,2020-08-10_10h08.47.810,lexical_decision_task_MP,2020.1.3,MacIntel,60,z,1,0.618045,,,,,,,,0.618045,1,,,,,,332,NW,"ID",50,vangue,VANGUE,z,,,,,,-0.8,0.5,0,0,0,,0,276,276,331,1,
,,,,,,,,,,,,,,,,,,5846c387d2be990001174c6f,2020-08-10_10h08.47.810,lexical_decision_task_MP,2020.1.3,MacIntel,60,z,1,0.670405,,,,,,,,0.670405,1,,,,,,329,NW,"ID",50,yarike,YARIKE,z,,,,,,-0.8,0.5,0,0,0,,0,277,277,328,1,
,,,,,,,,,,,,,,,,,,5846c387d2be990001174c6f,2020-08-10_10h08.47.810,lexical_decision_task_MP,2020.1.3,MacIntel,60,z,1,0.588605,,,,,,,,0.588605,1,,,,,,423,NW,UN,50,praile,STRELD,z,,,,,,-0.8,0.5,0,0,0,,0,278,278,422,1,
,,,,,,,,,,,,,,,,,,5846c387d2be990001174c6f,2020-08-10_10h08.47.810,lexical_decision_task_MP,2020.1.3,MacIntel,60,z,1,0.57691,,,,,,,,0.57691,1,,,,,,299,NW,"ID",33,sturch,STURCH,z,,,,,,-0.8,0.5,0,0,0,,0,279,279,298,1,
,,,,,,,,,,,,,,,,,,5846c387d2be990001174c6f,2020-08-10_10h08.47.810,lexical_decision_task_MP,2020.1.3,MacIntel,60,m,1,0.672305,,,,,,,,0.672305,1,,,,,,227,WORD,UN,50,master,SELDOM,m,,,,,,-0.8,0.5,0,0,0,,0,280,280,226,1,
,,,,,,,,,,,,,,,,,,5846c387d2be990001174c6f,2020-08-10_10h08.47.810,lexical_decision_task_MP,2020.1.3,MacIntel,60,z,1,0.60385,,,,,,,,0.60385,1,,,,,,358,NW,"ID",50,fleack,FLEACK,z,,,,,,-0.8,0.5,0,0,0,,0,281,281,357,1,
,,,,,,,,,,,,,,,,,,5846c387d2be990001174c6f,2020-08-10_10h08.47.810,lexical_decision_task_MP,2020.1.3,MacIntel,60,z,1,0.60306,,,,,,,,0.60306,1,,,,,,400,NW,UN,33,mustil,WEAROX,z,,,,,,-0.8,0.5,0,0,0,,0,282,282,399,1,
,,,,,,,,,,,,,,,,,,5846c387d2be990001174c6f,2020-08-10_10h08.47.810,lexical_decision_task_MP,2020.1.3,MacIntel,60,m,0,0.68677,,,,,,,,0.68677,0,,,,,,291,NW,"ID",33,pretch,PRETCH,z,,,,,,-0.8,0.5,0,0,0,,0,283,283,290,1,
,,,,,,,,,,,,,,,,,,5846c387d2be990001174c6f,2020-08-10_10h08.47.810,lexical_decision_task_MP,2020.1.3,MacIntel,60,m,1,0.662225,,,,,,,,0.662225,1,,,,,,216,WORD,UN,50,liquor,BEHALF,m,,,,,,-0.8,0.5,0,0,0,,0,284,284,215,1,
,,,,,,,,,,,,,,,,,,5846c387d2be990001174c6f,2020-08-10_10h08.47.810,lexical_decision_task_MP,2020.1.3,MacIntel,60,z,1,0.564675,,,,,,,,0.564675,1,,,,,,343,NW,"ID",50,aimosy,AIMOSY,z,,,,,,-0.8,0.5,0,0,0,,0,285,285,342,1,
,,,,,,,,,,,,,,,,,,5846c387d2be990001174c6f,2020-08-10_10h08.47.810,lexical_decision_task_MP,2020.1.3,MacIntel,60,m,1,0.53549,,,,,,,,0.53549,1,,,,,,108,WORD,"ID",50,reckon,RECKON,m,,,,,,-0.8,0.5,0,0,0,,0,286,286,107,1,
,,,,,,,,,,,,,,,,,,5846c387d2be990001174c6f,2020-08-10_10h08.47.810,lexical_decision_task_MP,2020.1.3,MacIntel,60,z,1,0.604285,,,,,,,,0.604285,1,,,,,,290,NW,"ID",33,splino,SPLINO,z,,,,,,-0.8,0.5,0,0,0,,0,287,287,289,1,
,,,,,,,,,,,,,,,,,,5846c387d2be990001174c6f,2020-08-10_10h08.47.810,lexical_decision_task_MP,2020.1.3,MacIntel,60,m,1,0.648985,,,,,,,,0.648985,1,,,,,,68,WORD,"ID",50,fumble,FUMBLE,m,,,,,,-0.8,0.5,0,0,0,,0,288,288,67,1,
,,,,,,,,,,,,,,,,,,5846c387d2be990001174c6f,2020-08-10_10h08.47.810,lexical_decision_task_MP,2020.1.3,MacIntel,60,z,0,0.52366,,,,,,,,0.52366,0,,,,,,139,WORD,UN,33,prince,DEBRIS,m,,,,,,-0.8,0.5,0,0,0,,0,289,289,138,1,
,,,,,,,,,,,,,,,,,,5846c387d2be990001174c6f,2020-08-10_10h08.47.810,lexical_decision_task_MP,2020.1.3,MacIntel,60,m,1,0.522775,,,,,,,,0.522775,1,,,,,,31,WORD,"ID",33,weapon,WEAPON,m,,,,,,-0.8,0.5,0,0,0,,0,290,290,30,1,
,,,,,,,,,,,,,,,,,,5846c387d2be990001174c6f,2020-08-10_10h08.47.810,lexical_decision_task_MP,2020.1.3,MacIntel,60,z,1,0.660245,,,,,,,,0.660245,1,,,,,,466,NW,UN,50,pebric,HOCITE,z,,,,,,-0.8,0.5,0,0,0,,0,291,291,465,1,
,,,,,,,,,,,,,,,,,,5846c387d2be990001174c6f,2020-08-10_10h08.47.810,lexical_decision_task_MP,2020.1.3,MacIntel,60,z,1,0.66546,,,,,,,,0.66546,1,,,,,,349,NW,"ID",50,asylen,ASYLEN,z,,,,,,-0.8,0.5,0,0,0,,0,292,292,348,1,
,,,,,,,,,,,,,,,,,,5846c387d2be990001174c6f,2020-08-10_10h08.47.810,lexical_decision_task_MP,2020.1.3,MacIntel,60,m,0,0.60211,,,,,,,,0.60211,0,,,,,,411,NW,UN,33,jiluer,ORCHIN,z,,,,,,-0.8,0.5,0,0,0,,0,293,293,410,1,
,,,,,,,,,,,,,,,,,,5846c387d2be990001174c6f,2020-08-10_10h08.47.810,lexical_decision_task_MP,2020.1.3,MacIntel,60,m,1,0.58036,,,,,,,,0.58036,1,,,,,,49,WORD,"ID",33,survey,SURVEY,m,,,,,,-0.8,0.5,0,0,0,,0,294,294,48,1,
,,,,,,,,,,,,,,,,,,5846c387d2be990001174c6f,2020-08-10_10h08.47.810,lexical_decision_task_MP,2020.1.3,MacIntel,60,z,1,0.65651,,,,,,,,0.65651,1,,,,,,288,NW,"ID",33,yaceup,YACEUP,z,,,,,,0.030820312,-0.400889757,0,0,0,,0,295,295,287,1,
,,,,,,,,,,,,,,,,,,5846c387d2be990001174c6f,2020-08-10_10h08.47.810,lexical_decision_task_MP,2020.1.3,MacIntel,60,m,1,0.53597,,,,,,,,0.53597,1,,,,,,173,WORD,UN,33,turkey,SHOWER,m,,,,,,0.030820312,-0.401462674,0,0,0,,0,296,296,172,1,
,,,,,,,,,,,,,,,,,,5846c387d2be990001174c6f,2020-08-10_10h08.47.810,lexical_decision_task_MP,2020.1.3,MacIntel,60,m,1,0.48219,,,,,,,,0.48219,1,,,,,,71,WORD,"ID",50,garden,GARDEN,m,,,,,,0.030820312,-0.401462674,0,0,0,,0,297,297,70,1,
,,,,,,,,,,,,,,,,,,5846c387d2be990001174c6f,2020-08-10_10h08.47.810,lexical_decision_task_MP,2020.1.3,MacIntel,60,m,1,0.575505,,,,,,,,0.575505,1,,,,,,226,WORD,UN,50,flower,CASINO,m,,,,,,0.030529514,-0.401749132,0,0,0,,0,298,298,225,1,
,,,,,,,,,,,,,,,,,,5846c387d2be990001174c6f,2020-08-10_10h08.47.810,lexical_decision_task_MP,2020.1.3,MacIntel,60,z,1,0.65815,,,,,,,,0.65815,1,,,,,,473,NW,UN,50,hablin,CRIBLE,z,,,,,,0.030529514,-0.401749132,0,0,0,,0,299,299,472,1,
,,,,,,,,,,,,,,,,,,5846c387d2be990001174c6f,2020-08-10_10h08.47.810,lexical_decision_task_MP,2020.1.3,MacIntel,60,m,1,0.50495,,,,,,,,0.50495,1,,,,,,25,WORD,"ID",33,domain,DOMAIN,m,,,,,,0.030529514,-0.401749132,0,0,0,,0,300,300,24,1,
,,,,,,,,,,,,,,,,,,5846c387d2be990001174c6f,2020-08-10_10h08.47.810,lexical_decision_task_MP,2020.1.3,MacIntel,60,z,1,0.839525,,,,,,,,0.839525,1,,,,,,282,NW,"ID",33,porlex,PORLEX,z,,,,,,0.030807292,-0.402322049,0,0,0,,0,301,301,281,1,
,,,,,,,,,,,,,,,,,,5846c387d2be990001174c6f,2020-08-10_10h08.47.810,lexical_decision_task_MP,2020.1.3,MacIntel,60,m,1,0.563455,,,,,,,,0.563455,1,,,,,,104,WORD,"ID",50,studio,STUDIO,m,,,,,,0.030807292,-0.402322049,0,0,0,,0,302,302,103,1,
,,,,,,,,,,,,,,,,,,5846c387d2be990001174c6f,2020-08-10_10h08.47.810,lexical_decision_task_MP,2020.1.3,MacIntel,60,m,1,0.622725,,,,,,,,0.622725,1,,,,,,105,WORD,"ID",50,number,NUMBER,m,,,,,,0.030516493,-0.402322049,0,0,0,,0,303,303,104,1,
,,,,,,,,,,,,,,,,,,5846c387d2be990001174c6f,2020-08-10_10h08.47.810,lexical_decision_task_MP,2020.1.3,MacIntel,60,z,1,0.71945,,,,,,,,0.71945,1,,,,,,428,NW,UN,50,chrums,TANDLY,z,,,,,,0.032521701,-0.403467882,0,0,0,,0,304,304,427,1,
,,,,,,,,,,,,,,,,,,5846c387d2be990001174c6f,2020-08-10_10h08.47.810,lexical_decision_task_MP,2020.1.3,MacIntel,60,m,1,0.647905,,,,,,,,0.647905,1,,,,,,125,WORD,UN,33,blouse,NICKEL,m,,,,,,0.032521701,-0.403467882,0,0,0,,0,305,305,124,1,
,,,,,,,,,,,,,,,,,,5846c387d2be990001174c6f,2020-08-10_10h08.47.810,lexical_decision_task_MP,2020.1.3,MacIntel,60,z,1,0.962205,,,,,,,,0.962205,1,,,,,,378,NW,UN,33,auting,SHRILE,z,,,,,,0.031935764,-0.403177083,0,0,0,,0,306,306,377,1,
,,,,,,,,,,,,,,,,,,5846c387d2be990001174c6f,2020-08-10_10h08.47.810,lexical_decision_task_MP,2020.1.3,MacIntel,60,m,1,0.65897,,,,,,,,0.65897,1,,,,,,81,WORD,"ID",50,friend,FRIEND,m,,,,,,0.033940972,-0.403459201,0,0,0,,0,307,307,80,1,
,,,,,,,,,,,,,,,,,,5846c387d2be990001174c6f,2020-08-10_10h08.47.810,lexical_decision_task_MP,2020.1.3,MacIntel,60,m,1,0.66692,,,,,,,,0.66692,1,,,,,,37,WORD,"ID",33,insult,INSULT,m,,,,,,0.032721354,-0.402877604,0,0,0,,0,308,308,36,1,
,,,,,,,,,,,,,,,,,,5846c387d2be990001174c6f,2020-08-10_10h08.47.810,lexical_decision_task_MP,2020.1.3,MacIntel,60,z,1,0.82435,,,,,,,,0.82435,1,,,,,,259,NW,"ID",33,soudal,SOUDAL,z,,,,,,0.034726563,-0.403164062,0,0,0,,0,309,309,258,1,
,,,,,,,,,,,,,,,,,,5846c387d2be990001174c6f,2020-08-10_10h08.47.810,lexical_decision_task_MP,2020.1.3,MacIntel,60,z,1,0.51654,,,,,,,,0.51654,1,,,,,,352,NW,"ID",50,tringe,TRINGE,z,,,,,,0.033845486,-0.402873264,0,0,0,,0,310,310,351,1,
,,,,,,,,,,,,,,,,,,5846c387d2be990001174c6f,2020-08-10_10h08.47.810,lexical_decision_task_MP,2020.1.3,MacIntel,60,z,1,0.93527,,,,,,,,0.93527,1,,,,,,381,NW,UN,33,sarley,HUNIEK,z,,,,,,0.032625868,-0.402873264,0,0,0,,0,311,311,380,1,
,,,,,,,,,,,,,,,,,,5846c387d2be990001174c6f,2020-08-10_10h08.47.810,lexical_decision_task_MP,2020.1.3,MacIntel,60,m,1,0.584045,,,,,,,,0.584045,1,,,,,,181,WORD,UN,50,winter,GLANCE,m,,,,,,0.035490451,-0.404592014,0,0,0,,0,312,312,180,1,
,,,,,,,,,,,,,,,,,,5846c387d2be990001174c6f,2020-08-10_10h08.47.810,lexical_decision_task_MP,2020.1.3,MacIntel,60,z,1,0.54981,,,,,,,,0.54981,1,,,,,,394,NW,UN,33,colury,SPAQUX,z,,,,,,0.038927951,-0.405451389,0,0,0,,0,313,313,393,1,
,,,,,,,,,,,,,,,,,,5846c387d2be990001174c6f,2020-08-10_10h08.47.810,lexical_decision_task_MP,2020.1.3,MacIntel,60,m,1,0.550555,,,,,,,,0.550555,1,,,,,,22,WORD,"ID",33,jockey,JOCKEY,m,,,,,,0.038927951,-0.405451389,0,0,0,,0,314,314,21,1,
,,,,,,,,,,,,,,,,,,5846c387d2be990001174c6f,2020-08-10_10h08.47.810,lexical_decision_task_MP,2020.1.3,MacIntel,60,m,1,0.565735,,,,,,,,0.565735,1,,,,,,175,WORD,UN,33,strife,FABRIC,m,,,,,,0.038927951,-0.405451389,0,0,0,,0,315,315,174,1,
,,,,,,,,,,,,,,,,,,5846c387d2be990001174c6f,2020-08-10_10h08.47.810,lexical_decision_task_MP,2020.1.3,MacIntel,60,z,1,0.572295,,,,,,,,0.572295,1,,,,,,308,NW,"ID",50,psetch,PSETCH,z,,,,,,0.038927951,-0.405451389,0,0,0,,0,316,316,307,1,
,,,,,,,,,,,,,,,,,,5846c387d2be990001174c6f,2020-08-10_10h08.47.810,lexical_decision_task_MP,2020.1.3,MacIntel,60,m,1,0.625365,,,,,,,,0.625365,1,,,,,,20,WORD,"ID",33,breast,BREAST,m,,,,,,0.038927951,-0.405451389,0,0,0,,0,317,317,19,1,
,,,,,,,,,,,,,,,,,,5846c387d2be990001174c6f,2020-08-10_10h08.47.810,lexical_decision_task_MP,2020.1.3,MacIntel,60,z,1,0.566115,,,,,,,,0.566115,1,,,,,,479,NW,UN,50,josted,LOBUSH,z,,,,,,0.038927951,-0.405451389,0,0,0,,0,318,318,478,1,
,,,,,,,,,,,,,,,,,,5846c387d2be990001174c6f,2020-08-10_10h08.47.810,lexical_decision_task_MP,2020.1.3,MacIntel,60,m,1,0.57299,,,,,,,,0.57299,1,,,,,,202,WORD,UN,50,phrase,FACTOR,m,,,,,,0.038927951,-0.405451389,0,0,0,,0,319,319,201,1,
,,,,,,,,,,,,,,,,,,5846c387d2be990001174c6f,2020-08-10_10h08.47.810,lexical_decision_task_MP,2020.1.3,MacIntel,60,z,1,0.76673,,,,,,,,0.76673,1,,,,,,335,NW,"ID",50,desion,DESION,z,,,,,,0.038927951,-0.405451389,0,0,0,,0,320,320,334,1,
,,,,,,,,,,,,,,,,,,5846c387d2be990001174c6f,2020-08-10_10h08.47.810,lexical_decision_task_MP,2020.1.3,MacIntel,60,z,1,0.56885,,,,,,,,0.56885,1,,,,,,391,NW,UN,33,rouncy,THELDY,z,,,,,,0.038927951,-0.405451389,0,0,0,,0,321,321,390,1,
,,,,,,,,,,,,,,,,,,5846c387d2be990001174c6f,2020-08-10_10h08.47.810,lexical_decision_task_MP,2020.1.3,MacIntel,60,z,0,0.52074,,,,,,,,0.52074,0,,,,,,194,WORD,UN,50,resign,ABSENT,m,,,,,,0.038927951,-0.405451389,0,0,0,,0,322,322,193,1,
,,,,,,,,,,,,,,,,,,5846c387d2be990001174c6f,2020-08-10_10h08.47.810,lexical_decision_task_MP,2020.1.3,MacIntel,60,m,1,0.572855,,,,,,,,0.572855,1,,,,,,134,WORD,UN,33,import,STAPLE,m,,,,,,0.038927951,-0.405451389,0,0,0,,0,323,323,133,1,
,,,,,,,,,,,,,,,,,,5846c387d2be990001174c6f,2020-08-10_10h08.47.810,lexical_decision_task_MP,2020.1.3,MacIntel,60,z,1,0.690475,,,,,,,,0.690475,1,,,,,,405,NW,UN,33,nouply,FLUMNI,z,,,,,,0.038927951,-0.405451389,0,0,0,,0,324,324,404,1,
,,,,,,,,,,,,,,,,,,5846c387d2be990001174c6f,2020-08-10_10h08.47.810,lexical_decision_task_MP,2020.1.3,MacIntel,60,z,1,0.775545,,,,,,,,0.775545,1,,,,,,388,NW,UN,33,witmer,CRAGIN,z,,,,,,0.038927951,-0.405451389,0,0,0,,0,325,325,387,1,
,,,,,,,,,,,,,,,,,,5846c387d2be990001174c6f,2020-08-10_10h08.47.810,lexical_decision_task_MP,2020.1.3,MacIntel,60,m,1,0.704305,,,,,,,,0.704305,1,,,,,,32,WORD,"ID",33,buckle,BUCKLE,m,,,,,,0.038927951,-0.405451389,0,0,0,,0,326,326,31,1,
,,,,,,,,,,,,,,,,,,5846c387d2be990001174c6f,2020-08-10_10h08.47.810,lexical_decision_task_MP,2020.1.3,MacIntel,60,m,0,1.24924,,,,,,,,1.24924,0,,,,,,427,NW,UN,50,tandly,SCHIND,z,,,,,,0.038927951,-0.405451389,0,0,0,,0,327,327,426,1,
,,,,,,,,,,,,,,,,,,5846c387d2be990001174c6f,2020-08-10_10h08.47.810,lexical_decision_task_MP,2020.1.3,MacIntel,60,m,0,0.62149,,,,,,,,0.62149,0,,,,,,276,NW,"ID",33,yarmon,YARMON,z,,,,,,0.038927951,-0.405451389,0,0,0,,0,328,328,275,1,
,,,,,,,,,,,,,,,,,,5846c387d2be990001174c6f,2020-08-10_10h08.47.810,lexical_decision_task_MP,2020.1.3,MacIntel,60,m,1,1.235145,,,,,,,,1.235145,1,,,,,,167,WORD,UN,33,answer,DESIGN,m,,,,,,0.038927951,-0.405451389,0,0,0,,0,329,329,166,1,
,,,,,,,,,,,,,,,,,,5846c387d2be990001174c6f,2020-08-10_10h08.47.810,lexical_decision_task_MP,2020.1.3,MacIntel,60,z,1,0.600385,,,,,,,,0.600385,1,,,,,,406,NW,UN,33,suiver,NOUPLY,z,,,,,,0.038927951,-0.405451389,0,0,0,,0,330,330,405,1,
,,,,,,,,,,,,,,,,,,5846c387d2be990001174c6f,2020-08-10_10h08.47.810,lexical_decision_task_MP,2020.1.3,MacIntel,60,m,1,0.650775,,,,,,,,0.650775,1,,,,,,160,WORD,UN,33,dragon,VIOLET,m,,,,,,0.038927951,-0.405451389,0,0,0,,0,331,331,159,1,
,,,,,,,,,,,,,,,,,,5846c387d2be990001174c6f,2020-08-10_10h08.47.810,lexical_decision_task_MP,2020.1.3,MacIntel,60,m,1,0.604485,,,,,,,,0.604485,1,,,,,,96,WORD,"ID",50,ignore,IGNORE,m,,,,,,0.038927951,-0.405451389,0,0,0,,0,332,332,95,1,
,,,,,,,,,,,,,,,,,,5846c387d2be990001174c6f,2020-08-10_10h08.47.810,lexical_decision_task_MP,2020.1.3,MacIntel,60,z,1,0.71572,,,,,,,,0.71572,1,,,,,,398,NW,UN,33,fouret,BLUNDE,z,,,,,,0.038927951,-0.405451389,0,0,0,,0,333,333,397,1,
,,,,,,,,,,,,,,,,,,5846c387d2be990001174c6f,2020-08-10_10h08.47.810,lexical_decision_task_MP,2020.1.3,MacIntel,60,m,1,0.58714,,,,,,,,0.58714,1,,,,,,83,WORD,"ID",50,result,RESULT,m,,,,,,0.038927951,-0.405451389,0,0,0,,0,334,334,82,1,
,,,,,,,,,,,,,,,,,,5846c387d2be990001174c6f,2020-08-10_10h08.47.810,lexical_decision_task_MP,2020.1.3,MacIntel,60,,0,,,,,,,,,0.58714,-1,,,,,,386,NW,UN,33,gronce,ANCUST,z,,,,,,0.038927951,-0.405451389,0,0,0,,0,335,335,385,1,
,,,,,,,,,,,,,,,,,,5846c387d2be990001174c6f,2020-08-10_10h08.47.810,lexical_decision_task_MP,2020.1.3,MacIntel,60,m,1,1.24102,,,,,,,,1.24102,1,,,,,,145,WORD,UN,33,couple,PARISH,m,,,,,,0.038927951,-0.405451389,0,0,0,,0,336,336,144,1,
,,,,,,,,,,,,,,,,,,5846c387d2be990001174c6f,2020-08-10_10h08.47.810,lexical_decision_task_MP,2020.1.3,MacIntel,60,z,1,0.769775,,,,,,,,0.769775,1,,,,,,300,NW,"ID",33,yarion,YARION,z,,,,,,0.038927951,-0.405451389,0,0,0,,0,337,337,299,1,
,,,,,,,,,,,,,,,,,,5846c387d2be990001174c6f,2020-08-10_10h08.47.810,lexical_decision_task_MP,2020.1.3,MacIntel,60,m,1,0.634815,,,,,,,,0.634815,1,,,,,,115,WORD,"ID",50,guitar,GUITAR,m,,,,,,0.038927951,-0.405451389,0,0,0,,0,338,338,114,1,
,,,,,,,,,,,,,,,,,,5846c387d2be990001174c6f,2020-08-10_10h08.47.810,lexical_decision_task_MP,2020.1.3,MacIntel,60,z,1,0.684585,,,,,,,,0.684585,1,,,,,,422,NW,UN,50,streld,ALCOUD,z,,,,,,0.038927951,-0.405451389,0,0,0,,0,339,339,421,1,
,,,,,,,,,,,,,,,,,,5846c387d2be990001174c6f,2020-08-10_10h08.47.810,lexical_decision_task_MP,2020.1.3,MacIntel,60,m,1,0.969885,,,,,,,,0.969885,1,,,,,,225,WORD,UN,50,kidney,VULGAR,m,,,,,,0.038927951,-0.405451389,0,0,0,,0,340,340,224,1,
,,,,,,,,,,,,,,,,,,5846c387d2be990001174c6f,2020-08-10_10h08.47.810,lexical_decision_task_MP,2020.1.3,MacIntel,60,m,1,0.570945,,,,,,,,0.570945,1,,,,,,231,WORD,UN,50,mother,EXPORT,m,,,,,,0.038927951,-0.405451389,0,0,0,,0,341,341,230,1,
,,,,,,,,,,,,,,,,,,5846c387d2be990001174c6f,2020-08-10_10h08.47.810,lexical_decision_task_MP,2020.1.3,MacIntel,60,m,1,0.594135,,,,,,,,0.594135,1,,,,,,217,WORD,UN,50,shrink,LIQUOR,m,,,,,,0.038927951,-0.405451389,0,0,0,,0,342,342,216,1,
,,,,,,,,,,,,,,,,,,5846c387d2be990001174c6f,2020-08-10_10h08.47.810,lexical_decision_task_MP,2020.1.3,MacIntel,60,z,1,0.634805,,,,,,,,0.634805,1,,,,,,325,NW,"ID",50,thruse,THRUSE,z,,,,,,0.038927951,-0.405451389,0,0,0,,0,343,343,324,1,
,,,,,,,,,,,,,,,,,,5846c387d2be990001174c6f,2020-08-10_10h08.47.810,lexical_decision_task_MP,2020.1.3,MacIntel,60,z,1,0.650465,,,,,,,,0.650465,1,,,,,,390,NW,UN,33,theldy,HATRUS,z,,,,,,0.038927951,-0.405451389,0,0,0,,0,344,344,389,1,
,,,,,,,,,,,,,,,,,,5846c387d2be990001174c6f,2020-08-10_10h08.47.810,lexical_decision_task_MP,2020.1.3,MacIntel,60,m,1,0.52005,,,,,,,,0.52005,1,,,,,,65,WORD,"ID",50,symbol,SYMBOL,m,,,,,,0.038927951,-0.405451389,0,0,0,,0,345,345,64,1,
,,,,,,,,,,,,,,,,,,5846c387d2be990001174c6f,2020-08-10_10h08.47.810,lexical_decision_task_MP,2020.1.3,MacIntel,60,z,1,0.73083,,,,,,,,0.73083,1,,,,,,421,NW,UN,50,alcoud,KNISMA,z,,,,,,0.038927951,-0.405451389,0,0,0,,0,346,346,420,1,
,,,,,,,,,,,,,,,,,,5846c387d2be990001174c6f,2020-08-10_10h08.47.810,lexical_decision_task_MP,2020.1.3,MacIntel,60,z,1,0.61569,,,,,,,,0.61569,1,,,,,,426,NW,UN,50,frudge,URIVEL,z,,,,,,0.038927951,-0.405451389,0,0,0,,0,347,347,425,1,
,,,,,,,,,,,,,,,,,,5846c387d2be990001174c6f,2020-08-10_10h08.47.810,lexical_decision_task_MP,2020.1.3,MacIntel,60,m,1,0.61845,,,,,,,,0.61845,1,,,,,,219,WORD,UN,50,voyage,BUCKET,m,,,,,,0.038927951,-0.405451389,0,0,0,,0,348,348,218,1,
,,,,,,,,,,,,,,,,,,5846c387d2be990001174c6f,2020-08-10_10h08.47.810,lexical_decision_task_MP,2020.1.3,MacIntel,60,m,1,0.548105,,,,,,,,0.548105,1,,,,,,168,WORD,UN,33,genius,ANSWER,m,,,,,,0.038927951,-0.405451389,0,0,0,,0,349,349,167,1,
,,,,,,,,,,,,,,,,,,5846c387d2be990001174c6f,2020-08-10_10h08.47.810,lexical_decision_task_MP,2020.1.3,MacIntel,60,z,1,0.618035,,,,,,,,0.618035,1,,,,,,415,NW,UN,33,pathel,HIGSTA,z,,,,,,0.038927951,-0.405451389,0,0,0,,0,350,350,414,1,
,,,,,,,,,,,,,,,,,,5846c387d2be990001174c6f,2020-08-10_10h08.47.810,lexical_decision_task_MP,2020.1.3,MacIntel,60,m,1,0.534585,,,,,,,,0.534585,1,,,,,,113,WORD,"ID",50,chorus,CHORUS,m,,,,,,0.038927951,-0.405451389,0,0,0,,0,351,351,112,1,
,,,,,,,,,,,,,,,,,,5846c387d2be990001174c6f,2020-08-10_10h08.47.810,lexical_decision_task_MP,2020.1.3,MacIntel,60,z,1,0.63892,,,,,,,,0.63892,1,,,,,,333,NW,"ID",50,catrie,CATRIE,z,,,,,,0.038927951,-0.405451389,0,0,0,,0,352,352,332,1,
,,,,,,,,,,,,,,,,,,5846c387d2be990001174c6f,2020-08-10_10h08.47.810,lexical_decision_task_MP,2020.1.3,MacIntel,60,m,0,0.70829,,,,,,,,0.70829,0,,,,,,456,NW,UN,50,wanigh,BROGET,z,,,,,,0.038637153,-0.405451389,0,0,0,,0,353,353,455,1,
,,,,,,,,,,,,,,,,,,5846c387d2be990001174c6f,2020-08-10_10h08.47.810,lexical_decision_task_MP,2020.1.3,MacIntel,60,m,1,0.65232,,,,,,,,0.65232,1,,,,,,196,WORD,UN,50,stream,CREDIT,m,,,,,,0.038637153,-0.405451389,0,0,0,,0,354,354,195,1,
,,,,,,,,,,,,,,,,,,5846c387d2be990001174c6f,2020-08-10_10h08.47.810,lexical_decision_task_MP,2020.1.3,MacIntel,60,m,1,0.58346,,,,,,,,0.58346,1,,,,,,110,WORD,"ID",50,polite,POLITE,m,,,,,,0.038923611,-0.405451389,0,0,0,,0,355,355,109,1,
,,,,,,,,,,,,,,,,,,5846c387d2be990001174c6f,2020-08-10_10h08.47.810,lexical_decision_task_MP,2020.1.3,MacIntel,60,z,1,0.585125,,,,,,,,0.585125,1,,,,,,373,NW,UN,33,injore,BIGENT,z,,,,,,0.038923611,-0.405451389,0,0,0,,0,356,356,372,1,
,,,,,,,,,,,,,,,,,,5846c387d2be990001174c6f,2020-08-10_10h08.47.810,lexical_decision_task_MP,2020.1.3,MacIntel,60,z,1,0.76043,,,,,,,,0.76043,1,,,,,,462,NW,UN,50,kispel,ABSULT,z,,,,,,0.041918403,-0.405447049,0,0,0,,0,357,357,461,1,
,,,,,,,,,,,,,,,,,,5846c387d2be990001174c6f,2020-08-10_10h08.47.810,lexical_decision_task_MP,2020.1.3,MacIntel,60,z,1,0.588505,,,,,,,,0.588505,1,,,,,,324,NW,"ID",50,steikh,STEIKH,z,,,,,,0.041918403,-0.405447049,0,0,0,,0,358,358,323,1,
,,,,,,,,,,,,,,,,,,5846c387d2be990001174c6f,2020-08-10_10h08.47.810,lexical_decision_task_MP,2020.1.3,MacIntel,60,z,1,0.49199,,,,,,,,0.49199,1,,,,,,350,NW,"ID",50,nagurs,NAGURS,z,,,,,,0.041918403,-0.405447049,0,0,0,,0,359,359,349,1,
,,,,,,,,,,,,,,,,,,5846c387d2be990001174c6f,2020-08-10_10h08.47.810,lexical_decision_task_MP,2020.1.3,MacIntel,60,z,1,0.49816,,,,,,,,0.49816,1,,,,,,392,NW,UN,33,ganous,ROUNCY,z,,,,,,0.038363715,-0.40515625,0,0,0,,0,360,360,391,1,
,,,,,,,,,,,,,,,,,,5846c387d2be990001174c6f,2020-08-10_10h08.47.810,lexical_decision_task_MP,2020.1.3,MacIntel,60,z,1,0.54816,,,,,,,,0.54816,1,,,,,,414,NW,UN,33,higsta,SERBOL,z,,,,,,0.038927951,-0.405442708,0,0,0,,0,361,361,413,1,
,,,,,,,,,,,,,,,,,,5846c387d2be990001174c6f,2020-08-10_10h08.47.810,lexical_decision_task_MP,2020.1.3,MacIntel,60,m,1,0.73648,,,,,,,,0.73648,1,,,,,,153,WORD,UN,33,author,BEHOLD,m,,,,,,0.033346354,-0.41031684,0,0,0,space,0,362,362,152,1,1.801475
,,,,,,,,,,,,,,,,,,5846c387d2be990001174c6f,2020-08-10_10h08.47.810,lexical_decision_task_MP,2020.1.3,MacIntel,60,,0,,,,,,,,,0.73648,-1,,,,,,407,NW,UN,33,hurnia,SUIVER,z,,,,,,0.033346354,-0.41031684,0,0,0,,0,363,363,406,1,
,,,,,,,,,,,,,,,,,,5846c387d2be990001174c6f,2020-08-10_10h08.47.810,lexical_decision_task_MP,2020.1.3,MacIntel,60,,0,,,,,,,,,0.73648,-1,,,,,,366,NW,UN,33,slique,TOSHEL,z,,,,,,0.033346354,-0.41031684,0,0,0,,0,364,364,365,1,
,,,,,,,,,,,,,,,,,,5846c387d2be990001174c6f,2020-08-10_10h08.47.810,lexical_decision_task_MP,2020.1.3,MacIntel,60,m,1,0.559035,,,,,,,,0.559035,1,,,,,,1,WORD,"ID",33,fright,FRIGHT,m,,,,,,0.033346354,-0.41031684,0,0,0,,0,365,365,0,1,
,,,,,,,,,,,,,,,,,,5846c387d2be990001174c6f,2020-08-10_10h08.47.810,lexical_decision_task_MP,2020.1.3,MacIntel,60,m,1,0.49911,,,,,,,,0.49911,1,,,,,,3,WORD,"ID",33,knight,KNIGHT,m,,,,,,0.033346354,-0.41031684,0,0,0,,0,366,366,2,1,
,,,,,,,,,,,,,,,,,,5846c387d2be990001174c6f,2020-08-10_10h08.47.810,lexical_decision_task_MP,2020.1.3,MacIntel,60,z,1,0.63454,,,,,,,,0.63454,1,,,,,,275,NW,"ID",33,sleirt,SLEIRT,z,,,,,,0.033346354,-0.41031684,0,0,0,,0,367,367,274,1,
,,,,,,,,,,,,,,,,,,5846c387d2be990001174c6f,2020-08-10_10h08.47.810,lexical_decision_task_MP,2020.1.3,MacIntel,60,m,1,0.63865,,,,,,,,0.63865,1,,,,,,161,WORD,UN,33,candle,PASTOR,m,,,,,,0.033346354,-0.41031684,0,0,0,,0,368,368,160,1,
,,,,,,,,,,,,,,,,,,5846c387d2be990001174c6f,2020-08-10_10h08.47.810,lexical_decision_task_MP,2020.1.3,MacIntel,60,z,1,0.58387,,,,,,,,0.58387,1,,,,,,341,NW,"ID",50,myrtie,MYRTIE,z,,,,,,0.033346354,-0.41031684,0,0,0,,0,369,369,340,1,
,,,,,,,,,,,,,,,,,,5846c387d2be990001174c6f,2020-08-10_10h08.47.810,lexical_decision_task_MP,2020.1.3,MacIntel,60,m,1,0.531835,,,,,,,,0.531835,1,,,,,,135,WORD,UN,33,chrome,IMPORT,m,,,,,,0.033346354,-0.41031684,0,0,0,,0,370,370,134,1,
,,,,,,,,,,,,,,,,,,5846c387d2be990001174c6f,2020-08-10_10h08.47.810,lexical_decision_task_MP,2020.1.3,MacIntel,60,z,1,0.566105,,,,,,,,0.566105,1,,,,,,293,NW,"ID",33,swance,SWANCE,z,,,,,,0.033346354,-0.41031684,0,0,0,,0,371,371,292,1,
,,,,,,,,,,,,,,,,,,5846c387d2be990001174c6f,2020-08-10_10h08.47.810,lexical_decision_task_MP,2020.1.3,MacIntel,60,z,1,0.549045,,,,,,,,0.549045,1,,,,,,458,NW,UN,50,chaite,BARCET,z,,,,,,0.033346354,-0.41031684,0,0,0,,0,372,372,457,1,
,,,,,,,,,,,,,,,,,,5846c387d2be990001174c6f,2020-08-10_10h08.47.810,lexical_decision_task_MP,2020.1.3,MacIntel,60,z,1,0.609825,,,,,,,,0.609825,1,,,,,,337,NW,"ID",50,rejols,REJOLS,z,,,,,,0.033346354,-0.41031684,0,0,0,,0,373,373,336,1,
,,,,,,,,,,,,,,,,,,5846c387d2be990001174c6f,2020-08-10_10h08.47.810,lexical_decision_task_MP,2020.1.3,MacIntel,60,m,1,0.648125,,,,,,,,0.648125,1,,,,,,69,WORD,"ID",50,plenty,PLENTY,m,,,,,,0.033346354,-0.4103125,0,0,0,,0,374,374,68,1,
,,,,,,,,,,,,,,,,,,5846c387d2be990001174c6f,2020-08-10_10h08.47.810,lexical_decision_task_MP,2020.1.3,MacIntel,60,z,1,0.56749,,,,,,,,0.56749,1,,,,,,465,NW,UN,50,hocite,WHIVEX,z,,,,,,0.033346354,-0.4103125,0,0,0,,0,375,375,464,1,
,,,,,,,,,,,,,,,,,,5846c387d2be990001174c6f,2020-08-10_10h08.47.810,lexical_decision_task_MP,2020.1.3,MacIntel,60,z,1,0.76852,,,,,,,,0.76852,1,,,,,,468,NW,UN,50,padifs,WICTOR,z,,,,,,0.033055556,-0.4103125,0,0,0,,0,376,376,467,1,
,,,,,,,,,,,,,,,,,,5846c387d2be990001174c6f,2020-08-10_10h08.47.810,lexical_decision_task_MP,2020.1.3,MacIntel,60,m,1,0.603125,,,,,,,,0.603125,1,,,,,,7,WORD,"ID",33,anchor,ANCHOR,m,,,,,,0.033055556,-0.4103125,0,0,0,,0,377,377,6,1,
,,,,,,,,,,,,,,,,,,5846c387d2be990001174c6f,2020-08-10_10h08.47.810,lexical_decision_task_MP,2020.1.3,MacIntel,60,m,1,0.814155,,,,,,,,0.814155,1,,,,,,8,WORD,"ID",33,abrupt,ABRUPT,m,,,,,,0.034487847,-0.408858507,0,0,0,,0,378,378,7,1,
,,,,,,,,,,,,,,,,,,5846c387d2be990001174c6f,2020-08-10_10h08.47.810,lexical_decision_task_MP,2020.1.3,MacIntel,60,m,1,0.559735,,,,,,,,0.559735,1,,,,,,107,WORD,"ID",50,slogan,SLOGAN,m,,,,,,0.035633681,-0.407695313,0,0,0,,0,379,379,106,1,
,,,,,,,,,,,,,,,,,,5846c387d2be990001174c6f,2020-08-10_10h08.47.810,lexical_decision_task_MP,2020.1.3,MacIntel,60,m,1,0.532285,,,,,,,,0.532285,1,,,,,,127,WORD,UN,33,senior,CASTLE,m,,,,,,0.035633681,-0.407695313,0,0,0,,0,380,380,126,1,
,,,,,,,,,,,,,,,,,,5846c387d2be990001174c6f,2020-08-10_10h08.47.810,lexical_decision_task_MP,2020.1.3,MacIntel,60,m,1,0.485745,,,,,,,,0.485745,1,,,,,,75,WORD,"ID",50,trophy,TROPHY,m,,,,,,0.035633681,-0.407695313,0,0,0,,0,381,381,74,1,
,,,,,,,,,,,,,,,,,,5846c387d2be990001174c6f,2020-08-10_10h08.47.810,lexical_decision_task_MP,2020.1.3,MacIntel,60,z,1,0.617515,,,,,,,,0.617515,1,,,,,,356,NW,"ID",50,othnis,OTHNIS,z,,,,,,0.035633681,-0.407695313,0,0,0,,0,382,382,355,1,
,,,,,,,,,,,,,,,,,,5846c387d2be990001174c6f,2020-08-10_10h08.47.810,lexical_decision_task_MP,2020.1.3,MacIntel,60,z,1,0.573455,,,,,,,,0.573455,1,,,,,,447,NW,UN,50,sadent,GIRCUE,z,,,,,,0.035633681,-0.407695313,0,0,0,,0,383,383,446,1,
,,,,,,,,,,,,,,,,,,5846c387d2be990001174c6f,2020-08-10_10h08.47.810,lexical_decision_task_MP,2020.1.3,MacIntel,60,z,1,0.668935,,,,,,,,0.668935,1,,,,,,364,NW,UN,33,guairt,IMPOTE,z,,,,,,0.035633681,-0.407695313,0,0,0,,0,384,384,363,1,
,,,,,,,,,,,,,,,,,,5846c387d2be990001174c6f,2020-08-10_10h08.47.810,lexical_decision_task_MP,2020.1.3,MacIntel,60,z,1,0.432675,,,,,,,,0.432675,1,,,,,,304,NW,"ID",50,cludie,CLUDIE,z,,,,,,0.035633681,-0.407695313,0,0,0,,0,385,385,303,1,
,,,,,,,,,,,,,,,,,,5846c387d2be990001174c6f,2020-08-10_10h08.47.810,lexical_decision_task_MP,2020.1.3,MacIntel,60,m,1,0.600705,,,,,,,,0.600705,1,,,,,,112,WORD,"ID",50,breath,BREATH,m,,,,,,0.036493056,-0.407981771,0,0,0,,0,386,386,111,1,
,,,,,,,,,,,,,,,,,,5846c387d2be990001174c6f,2020-08-10_10h08.47.810,lexical_decision_task_MP,2020.1.3,MacIntel,60,m,1,0.567445,,,,,,,,0.567445,1,,,,,,19,WORD,"ID",33,patron,PATRON,m,,,,,,0.036493056,-0.407981771,0,0,0,,0,387,387,18,1,
,,,,,,,,,,,,,,,,,,5846c387d2be990001174c6f,2020-08-10_10h08.47.810,lexical_decision_task_MP,2020.1.3,MacIntel,60,z,1,0.5892,,,,,,,,0.5892,1,,,,,,450,NW,UN,50,rastoe,PHRECT,z,,,,,,0.036493056,-0.407981771,0,0,0,,0,388,388,449,1,
,,,,,,,,,,,,,,,,,,5846c387d2be990001174c6f,2020-08-10_10h08.47.810,lexical_decision_task_MP,2020.1.3,MacIntel,60,m,1,0.637535,,,,,,,,0.637535,1,,,,,,156,WORD,UN,33,pastor,CRADLE,m,,,,,,0.036202257,-0.407981771,0,0,0,,0,389,389,155,1,
,,,,,,,,,,,,,,,,,,5846c387d2be990001174c6f,2020-08-10_10h08.47.810,lexical_decision_task_MP,2020.1.3,MacIntel,60,z,1,0.575755,,,,,,,,0.575755,1,,,,,,389,NW,UN,33,hatrus,WITMER,z,,,,,,0.036202257,-0.407981771,0,0,0,,0,390,390,388,1,
,,,,,,,,,,,,,,,,,,5846c387d2be990001174c6f,2020-08-10_10h08.47.810,lexical_decision_task_MP,2020.1.3,MacIntel,60,m,1,0.72186,,,,,,,,0.72186,1,,,,,,18,WORD,"ID",33,humble,HUMBLE,m,,,,,,0.036488715,-0.408554688,0,0,0,,0,391,391,17,1,
,,,,,,,,,,,,,,,,,,5846c387d2be990001174c6f,2020-08-10_10h08.47.810,lexical_decision_task_MP,2020.1.3,MacIntel,60,z,1,0.9901,,,,,,,,0.9901,1,,,,,,297,NW,"ID",33,fertic,FERTIC,z,,,,,,0.036488715,-0.408554688,0,0,0,,0,392,392,296,1,
,,,,,,,,,,,,,,,,,,5846c387d2be990001174c6f,2020-08-10_10h08.47.810,lexical_decision_task_MP,2020.1.3,MacIntel,60,z,0,0.80952,,,,,,,,0.80952,0,,,,,,222,WORD,UN,50,casino,HINDER,m,,,,,,0.036488715,-0.408554688,0,0,0,,0,393,393,221,1,
,,,,,,,,,,,,,,,,,,5846c387d2be990001174c6f,2020-08-10_10h08.47.810,lexical_decision_task_MP,2020.1.3,MacIntel,60,z,1,1.05275,,,,,,,,1.05275,1,,,,,,306,NW,"ID",50,sounge,SOUNGE,z,,,,,,0.036488715,-0.408554688,0,0,0,,0,394,394,305,1,
,,,,,,,,,,,,,,,,,,5846c387d2be990001174c6f,2020-08-10_10h08.47.810,lexical_decision_task_MP,2020.1.3,MacIntel,60,z,1,0.72442,,,,,,,,0.72442,1,,,,,,344,NW,"ID",50,scrily,SCRILY,z,,,,,,0.036488715,-0.408841146,0,0,0,,0,395,395,343,1,
,,,,,,,,,,,,,,,,,,5846c387d2be990001174c6f,2020-08-10_10h08.47.810,lexical_decision_task_MP,2020.1.3,MacIntel,60,m,1,0.55049,,,,,,,,0.55049,1,,,,,,117,WORD,"ID",50,branch,BRANCH,m,,,,,,0.036488715,-0.408841146,0,0,0,,0,396,396,116,1,
,,,,,,,,,,,,,,,,,,5846c387d2be990001174c6f,2020-08-10_10h08.47.810,lexical_decision_task_MP,2020.1.3,MacIntel,60,m,1,0.56918,,,,,,,,0.56918,1,,,,,,141,WORD,UN,33,spruce,ORPHAN,m,,,,,,0.036488715,-0.408841146,0,0,0,,0,397,397,140,1,
,,,,,,,,,,,,,,,,,,5846c387d2be990001174c6f,2020-08-10_10h08.47.810,lexical_decision_task_MP,2020.1.3,MacIntel,60,m,1,0.53612,,,,,,,,0.53612,1,,,,,,23,WORD,"ID",33,wealth,WEALTH,m,,,,,,0.036488715,-0.408841146,0,0,0,,0,398,398,22,1,
,,,,,,,,,,,,,,,,,,5846c387d2be990001174c6f,2020-08-10_10h08.47.810,lexical_decision_task_MP,2020.1.3,MacIntel,60,m,1,0.654625,,,,,,,,0.654625,1,,,,,,211,WORD,UN,50,verify,INFECT,m,,,,,,0.036488715,-0.408841146,0,0,0,,0,399,399,210,1,
,,,,,,,,,,,,,,,,,,5846c387d2be990001174c6f,2020-08-10_10h08.47.810,lexical_decision_task_MP,2020.1.3,MacIntel,60,m,1,0.415295,,,,,,,,0.415295,1,,,,,,197,WORD,UN,50,wicked,STREAM,m,,,,,,0.036488715,-0.408550347,0,0,0,,0,400,400,196,1,
,,,,,,,,,,,,,,,,,,5846c387d2be990001174c6f,2020-08-10_10h08.47.810,lexical_decision_task_MP,2020.1.3,MacIntel,60,z,1,0.766625,,,,,,,,0.766625,1,,,,,,258,NW,"ID",33,poluth,POLUTH,z,,,,,,0.036488715,-0.40796875,0,0,0,,0,401,401,257,1,
,,,,,,,,,,,,,,,,,,5846c387d2be990001174c6f,2020-08-10_10h08.47.810,lexical_decision_task_MP,2020.1.3,MacIntel,60,m,1,0.55003,,,,,,,,0.55003,1,,,,,,44,WORD,"ID",33,danger,DANGER,m,,,,,,0.036488715,-0.408255208,0,0,0,,0,402,402,43,1,
,,,,,,,,,,,,,,,,,,5846c387d2be990001174c6f,2020-08-10_10h08.47.810,lexical_decision_task_MP,2020.1.3,MacIntel,60,m,1,0.500255,,,,,,,,0.500255,1,,,,,,102,WORD,"ID",50,direct,DIRECT,m,,,,,,0.036488715,-0.407673611,0,0,0,,0,403,403,101,1,
,,,,,,,,,,,,,,,,,,5846c387d2be990001174c6f,2020-08-10_10h08.47.810,lexical_decision_task_MP,2020.1.3,MacIntel,60,m,1,0.53528,,,,,,,,0.53528,1,,,,,,185,WORD,UN,50,portal,BOTHER,m,,,,,,0.036488715,-0.407382813,0,0,0,,0,404,404,184,1,
,,,,,,,,,,,,,,,,,,5846c387d2be990001174c6f,2020-08-10_10h08.47.810,lexical_decision_task_MP,2020.1.3,MacIntel,60,z,1,0.488,,,,,,,,0.488,1,,,,,,383,NW,UN,33,guesco,AUNGRE,z,,,,,,0.036488715,-0.407382813,0,0,0,,0,405,405,382,1,
,,,,,,,,,,,,,,,,,,5846c387d2be990001174c6f,2020-08-10_10h08.47.810,lexical_decision_task_MP,2020.1.3,MacIntel,60,z,1,0.567125,,,,,,,,0.567125,1,,,,,,470,NW,UN,50,nobest,CRUDIO,z,,,,,,0.036488715,-0.407382813,0,0,0,,0,406,406,469,1,
,,,,,,,,,,,,,,,,,,5846c387d2be990001174c6f,2020-08-10_10h08.47.810,lexical_decision_task_MP,2020.1.3,MacIntel,60,z,1,0.534895,,,,,,,,0.534895,1,,,,,,416,NW,UN,33,earoud,PATHEL,z,,,,,,0.036488715,-0.407382813,0,0,0,,0,407,407,415,1,
,,,,,,,,,,,,,,,,,,5846c387d2be990001174c6f,2020-08-10_10h08.47.810,lexical_decision_task_MP,2020.1.3,MacIntel,60,m,1,0.5593,,,,,,,,0.5593,1,,,,,,118,WORD,"ID",50,flight,FLIGHT,m,,,,,,0.036488715,-0.407382813,0,0,0,,0,408,408,117,1,
,,,,,,,,,,,,,,,,,,5846c387d2be990001174c6f,2020-08-10_10h08.47.810,lexical_decision_task_MP,2020.1.3,MacIntel,60,m,1,0.688575,,,,,,,,0.688575,1,,,,,,40,WORD,"ID",33,convey,CONVEY,m,,,,,,0.036488715,-0.407382813,0,0,0,,0,409,409,39,1,
,,,,,,,,,,,,,,,,,,5846c387d2be990001174c6f,2020-08-10_10h08.47.810,lexical_decision_task_MP,2020.1.3,MacIntel,60,z,1,0.853095,,,,,,,,0.853095,1,,,,,,452,NW,UN,50,bolvis,SURDEN,z,,,,,,0.036488715,-0.407382813,0,0,0,,0,410,410,451,1,
,,,,,,,,,,,,,,,,,,5846c387d2be990001174c6f,2020-08-10_10h08.47.810,lexical_decision_task_MP,2020.1.3,MacIntel,60,m,1,0.577545,,,,,,,,0.577545,1,,,,,,119,WORD,"ID",50,spider,SPIDER,m,,,,,,0.036488715,-0.407669271,0,0,0,,0,411,411,118,1,
,,,,,,,,,,,,,,,,,,5846c387d2be990001174c6f,2020-08-10_10h08.47.810,lexical_decision_task_MP,2020.1.3,MacIntel,60,m,1,0.81795,,,,,,,,0.81795,1,,,,,,189,WORD,UN,50,backup,CENSOR,m,,,,,,0.036197917,-0.407669271,0,0,0,,0,412,412,188,1,
,,,,,,,,,,,,,,,,,,5846c387d2be990001174c6f,2020-08-10_10h08.47.810,lexical_decision_task_MP,2020.1.3,MacIntel,60,z,1,0.73835,,,,,,,,0.73835,1,,,,,,453,NW,UN,50,scouge,BOLVIS,z,,,,,,0.036197917,-0.407955729,0,0,0,,0,413,413,452,1,
,,,,,,,,,,,,,,,,,,5846c387d2be990001174c6f,2020-08-10_10h08.47.810,lexical_decision_task_MP,2020.1.3,MacIntel,60,z,1,0.65107,,,,,,,,0.65107,1,,,,,,283,NW,"ID",33,veralf,VERALF,z,,,,,,0.035559896,-0.407955729,0,0,0,,0,414,414,282,1,
,,,,,,,,,,,,,,,,,,5846c387d2be990001174c6f,2020-08-10_10h08.47.810,lexical_decision_task_MP,2020.1.3,MacIntel,60,m,1,0.54815,,,,,,,,0.54815,1,,,,,,103,WORD,"ID",50,bounce,BOUNCE,m,,,,,,0.035269097,-0.407955729,0,0,0,,0,415,415,102,1,
,,,,,,,,,,,,,,,,,,5846c387d2be990001174c6f,2020-08-10_10h08.47.810,lexical_decision_task_MP,2020.1.3,MacIntel,60,z,1,0.867445,,,,,,,,0.867445,1,,,,,,402,NW,UN,33,bruats,SYNTIC,z,,,,,,0.035269097,-0.407955729,0,0,0,,0,416,416,401,1,
,,,,,,,,,,,,,,,,,,5846c387d2be990001174c6f,2020-08-10_10h08.47.810,lexical_decision_task_MP,2020.1.3,MacIntel,60,z,1,0.65143,,,,,,,,0.65143,1,,,,,,440,NW,UN,50,cainky,SARIDE,z,,,,,,0.035269097,-0.407955729,0,0,0,,0,417,417,439,1,
,,,,,,,,,,,,,,,,,,5846c387d2be990001174c6f,2020-08-10_10h08.47.810,lexical_decision_task_MP,2020.1.3,MacIntel,60,z,1,0.744155,,,,,,,,0.744155,1,,,,,,267,NW,"ID",33,pasink,PASINK,z,,,,,,0.035269097,-0.407955729,0,0,0,,0,418,418,266,1,
,,,,,,,,,,,,,,,,,,5846c387d2be990001174c6f,2020-08-10_10h08.47.810,lexical_decision_task_MP,2020.1.3,MacIntel,60,z,1,0.593085,,,,,,,,0.593085,1,,,,,,327,NW,"ID",50,plenac,PLENAC,z,,,,,,0.035269097,-0.407955729,0,0,0,,0,419,419,326,1,
