counterbalancing_condition,instr_done_keyboard.keys,instr_done_keyboard.rt,instr_done_touch.x,instr_done_touch.y,instr_done_touch.leftButton,instr_done_touch.midButton,instr_done_touch.rightButton,instruction_pages.thisRepN,instruction_pages.thisTrialN,instruction_pages.thisN,instruction_pages.thisIndex,instruction_pages.ran,pageN,phase,instruct_text,has_image,instruct_image,participant,date,expName,psychopyVersion,OS,frameRate,response.keys,response.corr,response.rt,touch_resp.x,touch_resp.y,touch_resp.leftButton,touch_resp.midButton,touch_resp.rightButton,touch_resp.time,touch_resp.clicked_name,rt,corr,practice_trials.thisRepN,practice_trials.thisTrialN,practice_trials.thisN,practice_trials.thisIndex,practice_trials.ran,TrialID,StimulusType,Condition,PrimeDuration,Prime,Target,corrAns,end_of_practice_trials_pages.thisRepN,end_of_practice_trials_pages.thisTrialN,end_of_practice_trials_pages.thisN,end_of_practice_trials_pages.thisIndex,end_of_practice_trials_pages.ran,break_done_touch.x,break_done_touch.y,break_done_touch.leftButton,break_done_touch.midButton,break_done_touch.rightButton,break_done_keyboard.keys,trials.thisRepN,trials.thisTrialN,trials.thisN,trials.thisIndex,trials.ran,break_done_keyboard.rt
0,space,8.42094,-0.026851839,-0.39166668,0,0,0,0,0,0,0,1,1,instructions,"INSTRUCTIONS
At the start of each trial, look at the hash marks (######) in the center of the screen. After a moment, a string of letters will appear. Your task is to indicate if the letter string forms a word or not (i.e., if it is a nonword). For example, AUTHOR is a word while AUTHON is a nonword.

Press the space bar or touch the button below to continue.",0,,5977e3867412f8000194e1fe,2020-08-10_10h07.59.470,lexical_decision_task_MP,2020.1.3,Win32,60,,,,,,,,,,,,,,,,,,,,,,,,,,,,,,,,,,,,,,,,,
,space,6.51116,-0.026851839,-0.39166668,0,0,0,0,1,1,1,1,2,instructions,"If your device has a keyboard, press the 'Z' key for nonwords and the 'M' key for words.





Press the space bar or touch the button below to continue.",1,keyboard-example.gif,5977e3867412f8000194e1fe,2020-08-10_10h07.59.470,lexical_decision_task_MP,2020.1.3,Win32,60,,,,,,,,,,,,,,,,,,,,,,,,,,,,,,,,,,,,,,,,,
,space,4.00604,-0.026851839,-0.39166668,0,0,0,0,2,2,2,1,3,instructions,"If you are using a touchscreen only device, use the buttons on the screen. Do not use the mouse.





Press the space bar or touch the button below to continue.",1,touchscreen-example.gif,5977e3867412f8000194e1fe,2020-08-10_10h07.59.470,lexical_decision_task_MP,2020.1.3,Win32,60,,,,,,,,,,,,,,,,,,,,,,,,,,,,,,,,,,,,,,,,,
,space,1.419705,-0.026851839,-0.39166668,0,0,0,0,3,3,3,1,4,instructions,"It is very important that you respond as quickly and accurately as possible, as each letter string will only be on the screen for two seconds. If you do not respond within this time, the message 'Too slow!' will be displayed and the experiment will progress to the next letter string. The first 20 trials will be practice trials and you will receive feedback on your answers. 

Press the space bar or touch the button below to start the practice trials.",0,,5977e3867412f8000194e1fe,2020-08-10_10h07.59.470,lexical_decision_task_MP,2020.1.3,Win32,60,,,,,,,,,,,,,,,,,,,,,,,,,,,,,,,,,,,,,,,,,
,,,,,,,,,,,,,,,,,,5977e3867412f8000194e1fe,2020-08-10_10h07.59.470,lexical_decision_task_MP,2020.1.3,Win32,60,m,1,0.983625,,,,,,,,0.983625,1,0,0,0,7,1,1008,WORD,UN,50,hurdle,VOLUME,m,,,,,,,,,,,,,,,,,
,,,,,,,,,,,,,,,,,,5977e3867412f8000194e1fe,2020-08-10_10h07.59.470,lexical_decision_task_MP,2020.1.3,Win32,60,z,1,0.775635,,,,,,,,0.775635,1,0,1,1,13,1,1014,NW,UN,33,winfer,ROUPET,z,,,,,,,,,,,,,,,,,
,,,,,,,,,,,,,,,,,,5977e3867412f8000194e1fe,2020-08-10_10h07.59.470,lexical_decision_task_MP,2020.1.3,Win32,60,z,1,0.92013,,,,,,,,0.92013,1,0,2,2,12,1,1013,NW,UN,33,adveil,SPRINY,z,,,,,,,,,,,,,,,,,
,,,,,,,,,,,,,,,,,,5977e3867412f8000194e1fe,2020-08-10_10h07.59.470,lexical_decision_task_MP,2020.1.3,Win32,60,z,1,0.734575,,,,,,,,0.734575,1,0,3,3,11,1,1012,NW,"ID",50,rashet,RASHET,z,,,,,,,,,,,,,,,,,
,,,,,,,,,,,,,,,,,,5977e3867412f8000194e1fe,2020-08-10_10h07.59.470,lexical_decision_task_MP,2020.1.3,Win32,60,m,1,0.45615,,,,,,,,0.45615,1,0,4,4,2,1,1003,WORD,"ID",50,almond,ALMOND,m,,,,,,,,,,,,,,,,,
,,,,,,,,,,,,,,,,,,5977e3867412f8000194e1fe,2020-08-10_10h07.59.470,lexical_decision_task_MP,2020.1.3,Win32,60,z,1,0.63419,,,,,,,,0.63419,1,0,5,5,14,1,1015,NW,UN,50,miaber,THRALE,z,,,,,,,,,,,,,,,,,
,,,,,,,,,,,,,,,,,,5977e3867412f8000194e1fe,2020-08-10_10h07.59.470,lexical_decision_task_MP,2020.1.3,Win32,60,z,1,0.670705,,,,,,,,0.670705,1,0,6,6,8,1,1009,NW,"ID",33,aslert,ASLERT,z,,,,,,,,,,,,,,,,,
,,,,,,,,,,,,,,,,,,5977e3867412f8000194e1fe,2020-08-10_10h07.59.470,lexical_decision_task_MP,2020.1.3,Win32,60,m,1,0.55312,,,,,,,,0.55312,1,0,7,7,5,1,1006,WORD,UN,33,frenzy,OBTAIN,m,,,,,,,,,,,,,,,,,
,,,,,,,,,,,,,,,,,,5977e3867412f8000194e1fe,2020-08-10_10h07.59.470,lexical_decision_task_MP,2020.1.3,Win32,60,z,1,0.536375,,,,,,,,0.536375,1,0,8,8,10,1,1011,NW,"ID",50,inlade,INLADE,z,,,,,,,,,,,,,,,,,
,,,,,,,,,,,,,,,,,,5977e3867412f8000194e1fe,2020-08-10_10h07.59.470,lexical_decision_task_MP,2020.1.3,Win32,60,m,1,0.515415,,,,,,,,0.515415,1,0,9,9,6,1,1007,WORD,UN,50,tropic,ZOMBIE,m,,,,,,,,,,,,,,,,,
,,,,,,,,,,,,,,,,,,5977e3867412f8000194e1fe,2020-08-10_10h07.59.470,lexical_decision_task_MP,2020.1.3,Win32,60,m,1,0.48533,,,,,,,,0.48533,1,0,10,10,3,1,1004,WORD,"ID",50,matrix,MATRIX,m,,,,,,,,,,,,,,,,,
,,,,,,,,,,,,,,,,,,5977e3867412f8000194e1fe,2020-08-10_10h07.59.470,lexical_decision_task_MP,2020.1.3,Win32,60,z,1,0.517615,,,,,,,,0.517615,1,0,11,11,15,1,1016,NW,UN,50,mushed,WHAISE,z,,,,,,,,,,,,,,,,,
,,,,,,,,,,,,,,,,,,5977e3867412f8000194e1fe,2020-08-10_10h07.59.470,lexical_decision_task_MP,2020.1.3,Win32,60,m,1,0.56994,,,,,,,,0.56994,1,0,12,12,1,1,1002,WORD,"ID",33,adjust,ADJUST,m,,,,,,,,,,,,,,,,,
,,,,,,,,,,,,,,,,,,5977e3867412f8000194e1fe,2020-08-10_10h07.59.470,lexical_decision_task_MP,2020.1.3,Win32,60,z,1,0.485995,,,,,,,,0.485995,1,0,13,13,9,1,1010,NW,"ID",33,fariny,FARINY,z,,,,,,,,,,,,,,,,,
,,,,,,,,,,,,,,,,,,5977e3867412f8000194e1fe,2020-08-10_10h07.59.470,lexical_decision_task_MP,2020.1.3,Win32,60,m,1,0.532885,,,,,,,,0.532885,1,0,14,14,4,1,1005,WORD,UN,33,abound,SQUEAK,m,,,,,,,,,,,,,,,,,
,,,,,,,,,,,,,,,,,,5977e3867412f8000194e1fe,2020-08-10_10h07.59.470,lexical_decision_task_MP,2020.1.3,Win32,60,m,1,0.46912,,,,,,,,0.46912,1,0,15,15,0,1,1001,WORD,"ID",33,utopia,UTOPIA,m,,,,,,,,,,,,,,,,,
,space,6.447995,-0.027777765,-0.39537044,0,0,0,,,,,,1,end_of_practice,"You have completed the practice trials. During the experimental trials, you will not receive feedback, but it is very important that you respond as quickly and accurately as possible. 
Before you begin, please ensure that you are in a comfortable and quiet location and will not be disturbed for about 15 minutes, as we cannot use your data if you do not complete all the trials. 
There will be opportunities to take breaks at regular intervals during the experiment. When you are ready to start the experimental trials, please press space or touch the button below.",,,5977e3867412f8000194e1fe,2020-08-10_10h07.59.470,lexical_decision_task_MP,2020.1.3,Win32,60,,,,,,,,,,,,,,,,,,,,,,,,,0,0,0,0,1,,,,,,,,,,,,
,,,,,,,,,,,,,,,,,,5977e3867412f8000194e1fe,2020-08-10_10h07.59.470,lexical_decision_task_MP,2020.1.3,Win32,60,z,1,0.65263,,,,,,,,0.65263,1,,,,,,433,NW,"ID",33,drance,DRANCE,z,,,,,,-0.027777765,-0.39537044,0,0,0,,0,0,0,252,1,
,,,,,,,,,,,,,,,,,,5977e3867412f8000194e1fe,2020-08-10_10h07.59.470,lexical_decision_task_MP,2020.1.3,Win32,60,m,1,0.4673,,,,,,,,0.4673,1,,,,,,165,WORD,UN,50,starch,INVEST,m,,,,,,-0.027777765,-0.39537044,0,0,0,,0,1,1,224,1,
,,,,,,,,,,,,,,,,,,5977e3867412f8000194e1fe,2020-08-10_10h07.59.470,lexical_decision_task_MP,2020.1.3,Win32,60,z,1,0.523205,,,,,,,,0.523205,1,,,,,,474,NW,"ID",33,hablin,HABLIN,z,,,,,,-0.027777765,-0.39537044,0,0,0,,0,2,2,293,1,
,,,,,,,,,,,,,,,,,,5977e3867412f8000194e1fe,2020-08-10_10h07.59.470,lexical_decision_task_MP,2020.1.3,Win32,60,z,1,0.486205,,,,,,,,0.486205,1,,,,,,421,NW,"ID",33,knisma,KNISMA,z,,,,,,-0.027777765,-0.39537044,0,0,0,,0,3,3,240,1,
,,,,,,,,,,,,,,,,,,5977e3867412f8000194e1fe,2020-08-10_10h07.59.470,lexical_decision_task_MP,2020.1.3,Win32,60,m,1,0.442555,,,,,,,,0.442555,1,,,,,,11,WORD,"ID",50,cruise,CRUISE,m,,,,,,-0.027777765,-0.39537044,0,0,0,,0,4,4,70,1,
,,,,,,,,,,,,,,,,,,5977e3867412f8000194e1fe,2020-08-10_10h07.59.470,lexical_decision_task_MP,2020.1.3,Win32,60,z,1,0.47145,,,,,,,,0.47145,1,,,,,,324,NW,UN,33,thruse,STEIKH,z,,,,,,-0.027777765,-0.39537044,0,0,0,,0,5,5,383,1,
,,,,,,,,,,,,,,,,,,5977e3867412f8000194e1fe,2020-08-10_10h07.59.470,lexical_decision_task_MP,2020.1.3,Win32,60,z,1,0.51838,,,,,,,,0.51838,1,,,,,,463,NW,"ID",33,kispel,KISPEL,z,,,,,,-0.027777765,-0.39537044,0,0,0,,0,6,6,282,1,
,,,,,,,,,,,,,,,,,,5977e3867412f8000194e1fe,2020-08-10_10h07.59.470,lexical_decision_task_MP,2020.1.3,Win32,60,m,1,0.46584,,,,,,,,0.46584,1,,,,,,171,WORD,UN,50,patrol,DEPART,m,,,,,,-0.027777765,-0.39537044,0,0,0,,0,7,7,230,1,
,,,,,,,,,,,,,,,,,,5977e3867412f8000194e1fe,2020-08-10_10h07.59.470,lexical_decision_task_MP,2020.1.3,Win32,60,m,1,0.449185,,,,,,,,0.449185,1,,,,,,17,WORD,"ID",50,charge,CHARGE,m,,,,,,-0.027777765,-0.39537044,0,0,0,,0,8,8,76,1,
,,,,,,,,,,,,,,,,,,5977e3867412f8000194e1fe,2020-08-10_10h07.59.470,lexical_decision_task_MP,2020.1.3,Win32,60,z,1,0.46764,,,,,,,,0.46764,1,,,,,,304,NW,UN,33,forgle,CLUDIE,z,,,,,,-0.027777765,-0.39537044,0,0,0,,0,9,9,363,1,
,,,,,,,,,,,,,,,,,,5977e3867412f8000194e1fe,2020-08-10_10h07.59.470,lexical_decision_task_MP,2020.1.3,Win32,60,z,1,0.474645,,,,,,,,0.474645,1,,,,,,353,NW,UN,33,virlex,CLUREY,z,,,,,,-0.027777765,-0.39537044,0,0,0,,0,10,10,412,1,
,,,,,,,,,,,,,,,,,,5977e3867412f8000194e1fe,2020-08-10_10h07.59.470,lexical_decision_task_MP,2020.1.3,Win32,60,z,1,0.471785,,,,,,,,0.471785,1,,,,,,381,NW,UN,50,sarley,HUNIEK,z,,,,,,-0.027777765,-0.39537044,0,0,0,,0,11,11,440,1,
,,,,,,,,,,,,,,,,,,5977e3867412f8000194e1fe,2020-08-10_10h07.59.470,lexical_decision_task_MP,2020.1.3,Win32,60,z,1,0.45203,,,,,,,,0.45203,1,,,,,,343,NW,UN,33,scrily,AIMOSY,z,,,,,,-0.027777765,-0.39537044,0,0,0,,0,12,12,402,1,
,,,,,,,,,,,,,,,,,,5977e3867412f8000194e1fe,2020-08-10_10h07.59.470,lexical_decision_task_MP,2020.1.3,Win32,60,z,0,0.41565,,,,,,,,0.41565,0,,,,,,175,WORD,UN,50,strife,FABRIC,m,,,,,,-0.027777765,-0.39537044,0,0,0,,0,13,13,234,1,
,,,,,,,,,,,,,,,,,,5977e3867412f8000194e1fe,2020-08-10_10h07.59.470,lexical_decision_task_MP,2020.1.3,Win32,60,m,1,0.49733,,,,,,,,0.49733,1,,,,,,26,WORD,"ID",50,sprint,SPRINT,m,,,,,,-0.027777765,-0.39537044,0,0,0,,0,14,14,85,1,
,,,,,,,,,,,,,,,,,,5977e3867412f8000194e1fe,2020-08-10_10h07.59.470,lexical_decision_task_MP,2020.1.3,Win32,60,m,1,0.45734,,,,,,,,0.45734,1,,,,,,112,WORD,UN,33,chorus,BREATH,m,,,,,,-0.027777765,-0.39537044,0,0,0,,0,15,15,171,1,
,,,,,,,,,,,,,,,,,,5977e3867412f8000194e1fe,2020-08-10_10h07.59.470,lexical_decision_task_MP,2020.1.3,Win32,60,m,1,0.485155,,,,,,,,0.485155,1,,,,,,39,WORD,"ID",50,insect,INSECT,m,,,,,,-0.027777765,-0.39537044,0,0,0,,0,16,16,98,1,
,,,,,,,,,,,,,,,,,,5977e3867412f8000194e1fe,2020-08-10_10h07.59.470,lexical_decision_task_MP,2020.1.3,Win32,60,m,1,0.51166,,,,,,,,0.51166,1,,,,,,191,WORD,"ID",33,stable,STABLE,m,,,,,,-0.027777765,-0.39537044,0,0,0,,0,17,17,10,1,
,,,,,,,,,,,,,,,,,,5977e3867412f8000194e1fe,2020-08-10_10h07.59.470,lexical_decision_task_MP,2020.1.3,Win32,60,m,1,0.484805,,,,,,,,0.484805,1,,,,,,217,WORD,"ID",33,liquor,LIQUOR,m,,,,,,-0.027777765,-0.39537044,0,0,0,,0,18,18,36,1,
,,,,,,,,,,,,,,,,,,5977e3867412f8000194e1fe,2020-08-10_10h07.59.470,lexical_decision_task_MP,2020.1.3,Win32,60,z,1,0.614935,,,,,,,,0.614935,1,,,,,,367,NW,UN,50,hornal,SLIQUE,z,,,,,,-0.027777765,-0.39537044,0,0,0,,0,19,19,426,1,
,,,,,,,,,,,,,,,,,,5977e3867412f8000194e1fe,2020-08-10_10h07.59.470,lexical_decision_task_MP,2020.1.3,Win32,60,m,1,0.49599,,,,,,,,0.49599,1,,,,,,156,WORD,UN,50,depart,CRADLE,m,,,,,,-0.027777765,-0.39537044,0,0,0,,0,20,20,215,1,
,,,,,,,,,,,,,,,,,,5977e3867412f8000194e1fe,2020-08-10_10h07.59.470,lexical_decision_task_MP,2020.1.3,Win32,60,z,1,0.5057,,,,,,,,0.5057,1,,,,,,446,NW,"ID",33,runamo,RUNAMO,z,,,,,,-0.027777765,-0.39537044,0,0,0,,0,21,21,265,1,
,,,,,,,,,,,,,,,,,,5977e3867412f8000194e1fe,2020-08-10_10h07.59.470,lexical_decision_task_MP,2020.1.3,Win32,60,z,1,0.451255,,,,,,,,0.451255,1,,,,,,405,NW,UN,50,nouply,FLUMNI,z,,,,,,-0.027777765,-0.39537044,0,0,0,,0,22,22,464,1,
,,,,,,,,,,,,,,,,,,5977e3867412f8000194e1fe,2020-08-10_10h07.59.470,lexical_decision_task_MP,2020.1.3,Win32,60,z,1,0.503,,,,,,,,0.503,1,,,,,,472,NW,"ID",33,cigney,CIGNEY,z,,,,,,-0.027777765,-0.39537044,0,0,0,,0,23,23,291,1,
,,,,,,,,,,,,,,,,,,5977e3867412f8000194e1fe,2020-08-10_10h07.59.470,lexical_decision_task_MP,2020.1.3,Win32,60,m,1,0.53884,,,,,,,,0.53884,1,,,,,,239,WORD,"ID",33,lumber,LUMBER,m,,,,,,-0.027777765,-0.39537044,0,0,0,,0,24,24,58,1,
,,,,,,,,,,,,,,,,,,5977e3867412f8000194e1fe,2020-08-10_10h07.59.470,lexical_decision_task_MP,2020.1.3,Win32,60,z,1,0.45525,,,,,,,,0.45525,1,,,,,,375,NW,UN,50,iguare,YORQUE,z,,,,,,-0.027777765,-0.39537044,0,0,0,,0,25,25,434,1,
,,,,,,,,,,,,,,,,,,5977e3867412f8000194e1fe,2020-08-10_10h07.59.470,lexical_decision_task_MP,2020.1.3,Win32,60,z,1,0.569535,,,,,,,,0.569535,1,,,,,,322,NW,UN,33,rosail,SLANCH,z,,,,,,-0.027777765,-0.39537044,0,0,0,,0,26,26,381,1,
,,,,,,,,,,,,,,,,,,5977e3867412f8000194e1fe,2020-08-10_10h07.59.470,lexical_decision_task_MP,2020.1.3,Win32,60,m,1,0.50591,,,,,,,,0.50591,1,,,,,,167,WORD,UN,50,answer,DESIGN,m,,,,,,-0.027777765,-0.39537044,0,0,0,,0,27,27,226,1,
,,,,,,,,,,,,,,,,,,5977e3867412f8000194e1fe,2020-08-10_10h07.59.470,lexical_decision_task_MP,2020.1.3,Win32,60,z,1,0.491425,,,,,,,,0.491425,1,,,,,,361,NW,UN,50,tireau,PAUCHE,z,,,,,,-0.027777765,-0.39537044,0,0,0,,0,28,28,420,1,
,,,,,,,,,,,,,,,,,,5977e3867412f8000194e1fe,2020-08-10_10h07.59.470,lexical_decision_task_MP,2020.1.3,Win32,60,z,1,0.56961,,,,,,,,0.56961,1,,,,,,457,NW,"ID",33,wanigh,WANIGH,z,,,,,,-0.027777765,-0.39537044,0,0,0,,0,29,29,276,1,
,,,,,,,,,,,,,,,,,,5977e3867412f8000194e1fe,2020-08-10_10h07.59.470,lexical_decision_task_MP,2020.1.3,Win32,60,m,1,0.45562,,,,,,,,0.45562,1,,,,,,164,WORD,UN,50,invest,MARKET,m,,,,,,-0.027777765,-0.39537044,0,0,0,,0,30,30,223,1,
,,,,,,,,,,,,,,,,,,5977e3867412f8000194e1fe,2020-08-10_10h07.59.470,lexical_decision_task_MP,2020.1.3,Win32,60,z,1,0.499545,,,,,,,,0.499545,1,,,,,,469,NW,"ID",33,padifs,PADIFS,z,,,,,,-0.027777765,-0.39537044,0,0,0,,0,31,31,288,1,
,,,,,,,,,,,,,,,,,,5977e3867412f8000194e1fe,2020-08-10_10h07.59.470,lexical_decision_task_MP,2020.1.3,Win32,60,m,1,0.45429,,,,,,,,0.45429,1,,,,,,65,WORD,UN,33,gospel,SYMBOL,m,,,,,,-0.027777765,-0.39537044,0,0,0,,0,32,32,124,1,
,,,,,,,,,,,,,,,,,,5977e3867412f8000194e1fe,2020-08-10_10h07.59.470,lexical_decision_task_MP,2020.1.3,Win32,60,m,1,0.4752,,,,,,,,0.4752,1,,,,,,236,WORD,"ID",33,pirate,PIRATE,m,,,,,,-0.027777765,-0.39537044,0,0,0,,0,33,33,55,1,
,,,,,,,,,,,,,,,,,,5977e3867412f8000194e1fe,2020-08-10_10h07.59.470,lexical_decision_task_MP,2020.1.3,Win32,60,z,1,0.632135,,,,,,,,0.632135,1,,,,,,314,NW,UN,33,laston,SPRINE,z,,,,,,-0.027777765,-0.39537044,0,0,0,,0,34,34,373,1,
,,,,,,,,,,,,,,,,,,5977e3867412f8000194e1fe,2020-08-10_10h07.59.470,lexical_decision_task_MP,2020.1.3,Win32,60,z,1,0.490545,,,,,,,,0.490545,1,,,,,,247,NW,"ID",50,blarge,BLARGE,z,,,,,,-0.027777765,-0.39537044,0,0,0,,0,35,35,306,1,
,,,,,,,,,,,,,,,,,,5977e3867412f8000194e1fe,2020-08-10_10h07.59.470,lexical_decision_task_MP,2020.1.3,Win32,60,z,1,0.491135,,,,,,,,0.491135,1,,,,,,478,NW,"ID",33,acrise,ACRISE,z,,,,,,-0.027777765,-0.39537044,0,0,0,,0,36,36,297,1,
,,,,,,,,,,,,,,,,,,5977e3867412f8000194e1fe,2020-08-10_10h07.59.470,lexical_decision_task_MP,2020.1.3,Win32,60,z,1,0.469725,,,,,,,,0.469725,1,,,,,,428,NW,"ID",33,tandly,TANDLY,z,,,,,,-0.027777765,-0.39537044,0,0,0,,0,37,37,247,1,
,,,,,,,,,,,,,,,,,,5977e3867412f8000194e1fe,2020-08-10_10h07.59.470,lexical_decision_task_MP,2020.1.3,Win32,60,z,1,0.51362,,,,,,,,0.51362,1,,,,,,320,NW,UN,33,miator,JOCKAL,z,,,,,,-0.027777765,-0.39537044,0,0,0,,0,38,38,379,1,
,,,,,,,,,,,,,,,,,,5977e3867412f8000194e1fe,2020-08-10_10h07.59.470,lexical_decision_task_MP,2020.1.3,Win32,60,m,1,0.502035,,,,,,,,0.502035,1,,,,,,149,WORD,UN,50,random,INVADE,m,,,,,,-0.027777765,-0.39537044,0,0,0,,0,39,39,208,1,
,,,,,,,,,,,,,,,,,,5977e3867412f8000194e1fe,2020-08-10_10h07.59.470,lexical_decision_task_MP,2020.1.3,Win32,60,z,1,0.419365,,,,,,,,0.419365,1,,,,,,258,NW,"ID",50,poluth,POLUTH,z,,,,,,-0.027777765,-0.39537044,0,0,0,,0,40,40,317,1,
,,,,,,,,,,,,,,,,,,5977e3867412f8000194e1fe,2020-08-10_10h07.59.470,lexical_decision_task_MP,2020.1.3,Win32,60,m,1,0.43684,,,,,,,,0.43684,1,,,,,,21,WORD,"ID",50,simple,SIMPLE,m,,,,,,-0.027777765,-0.39537044,0,0,0,,0,41,41,80,1,
,,,,,,,,,,,,,,,,,,5977e3867412f8000194e1fe,2020-08-10_10h07.59.470,lexical_decision_task_MP,2020.1.3,Win32,60,z,1,0.47133,,,,,,,,0.47133,1,,,,,,387,NW,UN,50,cragin,GRONCE,z,,,,,,-0.027777765,-0.39537044,0,0,0,,0,42,42,446,1,
,,,,,,,,,,,,,,,,,,5977e3867412f8000194e1fe,2020-08-10_10h07.59.470,lexical_decision_task_MP,2020.1.3,Win32,60,z,1,0.448045,,,,,,,,0.448045,1,,,,,,468,NW,"ID",33,wictor,WICTOR,z,,,,,,-0.027777765,-0.39537044,0,0,0,,0,43,43,287,1,
,,,,,,,,,,,,,,,,,,5977e3867412f8000194e1fe,2020-08-10_10h07.59.470,lexical_decision_task_MP,2020.1.3,Win32,60,z,1,0.48239,,,,,,,,0.48239,1,,,,,,356,NW,UN,33,derain,OTHNIS,z,,,,,,-0.027777765,-0.39537044,0,0,0,,0,44,44,415,1,
,,,,,,,,,,,,,,,,,,5977e3867412f8000194e1fe,2020-08-10_10h07.59.470,lexical_decision_task_MP,2020.1.3,Win32,60,m,1,0.57015,,,,,,,,0.57015,1,,,,,,146,WORD,UN,50,garlic,COUPLE,m,,,,,,-0.027777765,-0.39537044,0,0,0,,0,45,45,205,1,
,,,,,,,,,,,,,,,,,,5977e3867412f8000194e1fe,2020-08-10_10h07.59.470,lexical_decision_task_MP,2020.1.3,Win32,60,z,1,0.570775,,,,,,,,0.570775,1,,,,,,249,NW,"ID",50,batrol,BATROL,z,,,,,,-0.027777765,-0.39537044,0,0,0,,0,46,46,308,1,
,,,,,,,,,,,,,,,,,,5977e3867412f8000194e1fe,2020-08-10_10h07.59.470,lexical_decision_task_MP,2020.1.3,Win32,60,z,1,0.53226,,,,,,,,0.53226,1,,,,,,292,NW,"ID",50,ablint,ABLINT,z,,,,,,-0.027777765,-0.39537044,0,0,0,,0,47,47,351,1,
,,,,,,,,,,,,,,,,,,5977e3867412f8000194e1fe,2020-08-10_10h07.59.470,lexical_decision_task_MP,2020.1.3,Win32,60,z,1,0.50372,,,,,,,,0.50372,1,,,,,,272,NW,"ID",50,damilt,DAMILT,z,,,,,,-0.027777765,-0.39537044,0,0,0,,0,48,48,331,1,
,,,,,,,,,,,,,,,,,,5977e3867412f8000194e1fe,2020-08-10_10h07.59.470,lexical_decision_task_MP,2020.1.3,Win32,60,m,1,0.55736,,,,,,,,0.55736,1,,,,,,196,WORD,"ID",33,credit,CREDIT,m,,,,,,-0.027777765,-0.39537044,0,0,0,,0,49,49,15,1,
,,,,,,,,,,,,,,,,,,5977e3867412f8000194e1fe,2020-08-10_10h07.59.470,lexical_decision_task_MP,2020.1.3,Win32,60,z,1,0.64863,,,,,,,,0.64863,1,,,,,,404,NW,UN,50,flumni,CLUIRM,z,,,,,,-0.027777765,-0.39537044,0,0,0,,0,50,50,463,1,
,,,,,,,,,,,,,,,,,,5977e3867412f8000194e1fe,2020-08-10_10h07.59.470,lexical_decision_task_MP,2020.1.3,Win32,60,z,0,0.571115,,,,,,,,0.571115,0,,,,,,5,WORD,"ID",50,plunge,PLUNGE,m,,,,,,-0.027777765,-0.39537044,0,0,0,,0,51,51,64,1,
,,,,,,,,,,,,,,,,,,5977e3867412f8000194e1fe,2020-08-10_10h07.59.470,lexical_decision_task_MP,2020.1.3,Win32,60,m,1,0.48804,,,,,,,,0.48804,1,,,,,,140,WORD,UN,50,chrome,PRINCE,m,,,,,,-0.027777765,-0.39537044,0,0,0,,0,52,52,199,1,
,,,,,,,,,,,,,,,,,,5977e3867412f8000194e1fe,2020-08-10_10h07.59.470,lexical_decision_task_MP,2020.1.3,Win32,60,z,1,0.54077,,,,,,,,0.54077,1,,,,,,466,NW,"ID",33,hocite,HOCITE,z,,,,,,-0.027777765,-0.39537044,0,0,0,,0,53,53,285,1,
,,,,,,,,,,,,,,,,,,5977e3867412f8000194e1fe,2020-08-10_10h07.59.470,lexical_decision_task_MP,2020.1.3,Win32,60,z,1,0.63245,,,,,,,,0.63245,1,,,,,,325,NW,UN,33,iguade,THRUSE,z,,,,,,-0.027777765,-0.39537044,0,0,0,,0,54,54,384,1,
,,,,,,,,,,,,,,,,,,5977e3867412f8000194e1fe,2020-08-10_10h07.59.470,lexical_decision_task_MP,2020.1.3,Win32,60,z,1,0.549495,,,,,,,,0.549495,1,,,,,,293,NW,"ID",50,swance,SWANCE,z,,,,,,-0.027777765,-0.39537044,0,0,0,,0,55,55,352,1,
,,,,,,,,,,,,,,,,,,5977e3867412f8000194e1fe,2020-08-10_10h07.59.470,lexical_decision_task_MP,2020.1.3,Win32,60,m,1,0.70563,,,,,,,,0.70563,1,,,,,,192,WORD,"ID",33,plague,PLAGUE,m,,,,,,-0.027777765,-0.39537044,0,0,0,,0,56,56,11,1,
,,,,,,,,,,,,,,,,,,5977e3867412f8000194e1fe,2020-08-10_10h07.59.470,lexical_decision_task_MP,2020.1.3,Win32,60,m,1,0.615585,,,,,,,,0.615585,1,,,,,,68,WORD,UN,33,plenty,FUMBLE,m,,,,,,-0.027777765,-0.39537044,0,0,0,,0,57,57,127,1,
,,,,,,,,,,,,,,,,,,5977e3867412f8000194e1fe,2020-08-10_10h07.59.470,lexical_decision_task_MP,2020.1.3,Win32,60,z,1,0.74882,,,,,,,,0.74882,1,,,,,,328,NW,UN,33,yarike,BROAKE,z,,,,,,-0.027777765,-0.39537044,0,0,0,,0,58,58,387,1,
,,,,,,,,,,,,,,,,,,5977e3867412f8000194e1fe,2020-08-10_10h07.59.470,lexical_decision_task_MP,2020.1.3,Win32,60,z,1,0.55115,,,,,,,,0.55115,1,,,,,,308,NW,UN,33,amiloy,PSETCH,z,,,,,,-0.027777765,-0.39537044,0,0,0,,0,59,59,367,1,
,,,,,,,,,,,,,,,,,,5977e3867412f8000194e1fe,2020-08-10_10h07.59.470,lexical_decision_task_MP,2020.1.3,Win32,60,z,1,0.80427,,,,,,,,0.80427,1,,,,,,379,NW,UN,50,cavory,AUTING,z,,,,,,-0.027777765,-0.39537044,0,0,0,,0,60,60,438,1,
,,,,,,,,,,,,,,,,,,5977e3867412f8000194e1fe,2020-08-10_10h07.59.470,lexical_decision_task_MP,2020.1.3,Win32,60,z,1,0.506915,,,,,,,,0.506915,1,,,,,,443,NW,"ID",33,dorsex,DORSEX,z,,,,,,-0.027777765,-0.39537044,0,0,0,,0,61,61,262,1,
,,,,,,,,,,,,,,,,,,5977e3867412f8000194e1fe,2020-08-10_10h07.59.470,lexical_decision_task_MP,2020.1.3,Win32,60,z,1,0.543665,,,,,,,,0.543665,1,,,,,,455,NW,"ID",33,tondle,TONDLE,z,,,,,,-0.027777765,-0.394444458,0,0,0,,0,62,62,274,1,
,,,,,,,,,,,,,,,,,,5977e3867412f8000194e1fe,2020-08-10_10h07.59.470,lexical_decision_task_MP,2020.1.3,Win32,60,z,1,0.61518,,,,,,,,0.61518,1,,,,,,253,NW,"ID",50,resait,RESAIT,z,,,,,,-0.027777765,-0.394444458,0,0,0,,0,63,63,312,1,
,,,,,,,,,,,,,,,,,,5977e3867412f8000194e1fe,2020-08-10_10h07.59.470,lexical_decision_task_MP,2020.1.3,Win32,60,z,1,0.45152,,,,,,,,0.45152,1,,,,,,241,NW,"ID",50,smenco,SMENCO,z,,,,,,-0.027777765,-0.394444458,0,0,0,,0,64,64,300,1,
,,,,,,,,,,,,,,,,,,5977e3867412f8000194e1fe,2020-08-10_10h07.59.470,lexical_decision_task_MP,2020.1.3,Win32,60,m,1,0.57805,,,,,,,,0.57805,1,,,,,,131,WORD,UN,50,strong,QUENCH,m,,,,,,-0.027777765,-0.394444458,0,0,0,,0,65,65,190,1,
,,,,,,,,,,,,,,,,,,5977e3867412f8000194e1fe,2020-08-10_10h07.59.470,lexical_decision_task_MP,2020.1.3,Win32,60,m,1,0.464835,,,,,,,,0.464835,1,,,,,,148,WORD,UN,50,invade,CUSTOM,m,,,,,,-0.027777765,-0.394444458,0,0,0,,0,66,66,207,1,
,,,,,,,,,,,,,,,,,,5977e3867412f8000194e1fe,2020-08-10_10h07.59.470,lexical_decision_task_MP,2020.1.3,Win32,60,m,1,0.58136,,,,,,,,0.58136,1,,,,,,41,WORD,"ID",50,spring,SPRING,m,,,,,,-0.027777765,-0.394444458,0,0,0,,0,67,67,100,1,
,,,,,,,,,,,,,,,,,,5977e3867412f8000194e1fe,2020-08-10_10h07.59.470,lexical_decision_task_MP,2020.1.3,Win32,60,m,1,0.48245,,,,,,,,0.48245,1,,,,,,49,WORD,"ID",50,survey,SURVEY,m,,,,,,-0.027777765,-0.394444458,0,0,0,,0,68,68,108,1,
,,,,,,,,,,,,,,,,,,5977e3867412f8000194e1fe,2020-08-10_10h07.59.470,lexical_decision_task_MP,2020.1.3,Win32,60,z,1,0.552245,,,,,,,,0.552245,1,,,,,,467,NW,"ID",33,gorbie,GORBIE,z,,,,,,-0.027777765,-0.394444458,0,0,0,,0,69,69,286,1,
,,,,,,,,,,,,,,,,,,5977e3867412f8000194e1fe,2020-08-10_10h07.59.470,lexical_decision_task_MP,2020.1.3,Win32,60,z,1,0.606705,,,,,,,,0.606705,1,,,,,,273,NW,"ID",50,sortel,SORTEL,z,,,,,,-0.027777765,-0.394444458,0,0,0,,0,70,70,332,1,
,,,,,,,,,,,,,,,,,,5977e3867412f8000194e1fe,2020-08-10_10h07.59.470,lexical_decision_task_MP,2020.1.3,Win32,60,m,1,0.44514,,,,,,,,0.44514,1,,,,,,109,WORD,UN,33,polite,WONDER,m,,,,,,-0.027777765,-0.394444458,0,0,0,,0,71,71,168,1,
,,,,,,,,,,,,,,,,,,5977e3867412f8000194e1fe,2020-08-10_10h07.59.470,lexical_decision_task_MP,2020.1.3,Win32,60,m,1,0.5272,,,,,,,,0.5272,1,,,,,,231,WORD,"ID",33,export,EXPORT,m,,,,,,-0.027777765,-0.394444458,0,0,0,,0,72,72,50,1,
,,,,,,,,,,,,,,,,,,5977e3867412f8000194e1fe,2020-08-10_10h07.59.470,lexical_decision_task_MP,2020.1.3,Win32,60,m,1,0.574745,,,,,,,,0.574745,1,,,,,,161,WORD,UN,50,candle,PASTOR,m,,,,,,-0.027777765,-0.394444458,0,0,0,,0,73,73,220,1,
,,,,,,,,,,,,,,,,,,5977e3867412f8000194e1fe,2020-08-10_10h07.59.470,lexical_decision_task_MP,2020.1.3,Win32,60,m,1,0.43444,,,,,,,,0.43444,1,,,,,,152,WORD,UN,50,behold,ROCKET,m,,,,,,-0.027777765,-0.394444458,0,0,0,,0,74,74,211,1,
,,,,,,,,,,,,,,,,,,5977e3867412f8000194e1fe,2020-08-10_10h07.59.470,lexical_decision_task_MP,2020.1.3,Win32,60,m,1,0.501395,,,,,,,,0.501395,1,,,,,,91,WORD,UN,33,hunger,EXPAND,m,,,,,,-0.027777765,-0.394444458,0,0,0,,0,75,75,150,1,
,,,,,,,,,,,,,,,,,,5977e3867412f8000194e1fe,2020-08-10_10h07.59.470,lexical_decision_task_MP,2020.1.3,Win32,60,,0,,,,,,,,,0.501395,-1,,,,,,297,NW,"ID",50,fertic,FERTIC,z,,,,,,-0.027777765,-0.394444458,0,0,0,,0,76,76,356,1,
,,,,,,,,,,,,,,,,,,5977e3867412f8000194e1fe,2020-08-10_10h07.59.470,lexical_decision_task_MP,2020.1.3,Win32,60,z,1,0.73519,,,,,,,,0.73519,1,,,,,,394,NW,UN,50,colury,SPAQUX,z,,,,,,-0.027777765,-0.394444458,0,0,0,,0,77,77,453,1,
,,,,,,,,,,,,,,,,,,5977e3867412f8000194e1fe,2020-08-10_10h07.59.470,lexical_decision_task_MP,2020.1.3,Win32,60,m,1,0.5189,,,,,,,,0.5189,1,,,,,,80,WORD,UN,33,friend,FAMILY,m,,,,,,-0.027777765,-0.394444458,0,0,0,,0,78,78,139,1,
,,,,,,,,,,,,,,,,,,5977e3867412f8000194e1fe,2020-08-10_10h07.59.470,lexical_decision_task_MP,2020.1.3,Win32,60,m,1,0.46586,,,,,,,,0.46586,1,,,,,,208,WORD,"ID",33,hockey,HOCKEY,m,,,,,,-0.027777765,-0.394444458,0,0,0,,0,79,79,27,1,
,,,,,,,,,,,,,,,,,,5977e3867412f8000194e1fe,2020-08-10_10h07.59.470,lexical_decision_task_MP,2020.1.3,Win32,60,z,1,0.548705,,,,,,,,0.548705,1,,,,,,280,NW,"ID",50,curbol,CURBOL,z,,,,,,-0.027777765,-0.394444458,0,0,0,,0,80,80,339,1,
,,,,,,,,,,,,,,,,,,5977e3867412f8000194e1fe,2020-08-10_10h07.59.470,lexical_decision_task_MP,2020.1.3,Win32,60,z,1,0.454405,,,,,,,,0.454405,1,,,,,,420,NW,UN,50,pauche,GUSHOP,z,,,,,,-0.027777765,-0.394444458,0,0,0,,0,81,81,479,1,
,,,,,,,,,,,,,,,,,,5977e3867412f8000194e1fe,2020-08-10_10h07.59.470,lexical_decision_task_MP,2020.1.3,Win32,60,m,1,0.46792,,,,,,,,0.46792,1,,,,,,72,WORD,UN,33,source,BRIGHT,m,,,,,,-0.027777765,-0.394444458,0,0,0,,0,82,82,131,1,
,,,,,,,,,,,,,,,,,,5977e3867412f8000194e1fe,2020-08-10_10h07.59.470,lexical_decision_task_MP,2020.1.3,Win32,60,m,1,0.515735,,,,,,,,0.515735,1,,,,,,106,WORD,UN,33,slogan,RANSOM,m,,,,,,-0.027777765,-0.394444458,0,0,0,,0,83,83,165,1,
,,,,,,,,,,,,,,,,,,5977e3867412f8000194e1fe,2020-08-10_10h07.59.470,lexical_decision_task_MP,2020.1.3,Win32,60,z,1,0.68485,,,,,,,,0.68485,1,,,,,,425,NW,"ID",33,frudge,FRUDGE,z,,,,,,-0.027777765,-0.394444458,0,0,0,,0,84,84,244,1,
,,,,,,,,,,,,,,,,,,5977e3867412f8000194e1fe,2020-08-10_10h07.59.470,lexical_decision_task_MP,2020.1.3,Win32,60,m,1,0.46885,,,,,,,,0.46885,1,,,,,,150,WORD,UN,50,mystic,RANDOM,m,,,,,,-0.027777765,-0.394444458,0,0,0,,0,85,85,209,1,
,,,,,,,,,,,,,,,,,,5977e3867412f8000194e1fe,2020-08-10_10h07.59.470,lexical_decision_task_MP,2020.1.3,Win32,60,z,1,0.551855,,,,,,,,0.551855,1,,,,,,451,NW,"ID",33,cainky,CAINKY,z,,,,,,-0.027777765,-0.394444458,0,0,0,,0,86,86,270,1,
,,,,,,,,,,,,,,,,,,5977e3867412f8000194e1fe,2020-08-10_10h07.59.470,lexical_decision_task_MP,2020.1.3,Win32,60,z,0,0.479455,,,,,,,,0.479455,0,,,,,,121,WORD,UN,50,linger,THRIVE,m,,,,,,-0.027777765,-0.394444458,0,0,0,,0,87,87,180,1,
,,,,,,,,,,,,,,,,,,5977e3867412f8000194e1fe,2020-08-10_10h07.59.470,lexical_decision_task_MP,2020.1.3,Win32,60,z,1,0.568535,,,,,,,,0.568535,1,,,,,,412,NW,UN,50,equats,JILUER,z,,,,,,-0.027777765,-0.394444458,0,0,0,,0,88,88,471,1,
,,,,,,,,,,,,,,,,,,5977e3867412f8000194e1fe,2020-08-10_10h07.59.470,lexical_decision_task_MP,2020.1.3,Win32,60,z,1,0.52085,,,,,,,,0.52085,1,,,,,,307,NW,UN,33,psetch,KIRAFE,z,,,,,,-0.027777765,-0.394444458,0,0,0,,0,89,89,366,1,
,,,,,,,,,,,,,,,,,,5977e3867412f8000194e1fe,2020-08-10_10h07.59.470,lexical_decision_task_MP,2020.1.3,Win32,60,m,1,0.47452,,,,,,,,0.47452,1,,,,,,58,WORD,"ID",50,foster,FOSTER,m,,,,,,-0.027777765,-0.394444458,0,0,0,,0,90,90,117,1,
,,,,,,,,,,,,,,,,,,5977e3867412f8000194e1fe,2020-08-10_10h07.59.470,lexical_decision_task_MP,2020.1.3,Win32,60,m,1,0.408815,,,,,,,,0.408815,1,,,,,,212,WORD,"ID",33,verify,VERIFY,m,,,,,,-0.027777765,-0.394444458,0,0,0,,0,91,91,31,1,
,,,,,,,,,,,,,,,,,,5977e3867412f8000194e1fe,2020-08-10_10h07.59.470,lexical_decision_task_MP,2020.1.3,Win32,60,m,1,0.423015,,,,,,,,0.423015,1,,,,,,75,WORD,UN,33,exotic,TROPHY,m,,,,,,-0.027777765,-0.394444458,0,0,0,,0,92,92,134,1,
,,,,,,,,,,,,,,,,,,5977e3867412f8000194e1fe,2020-08-10_10h07.59.470,lexical_decision_task_MP,2020.1.3,Win32,60,z,1,0.540765,,,,,,,,0.540765,1,,,,,,380,NW,UN,50,huniek,CAVORY,z,,,,,,-0.027777765,-0.394444458,0,0,0,,0,93,93,439,1,
,,,,,,,,,,,,,,,,,,5977e3867412f8000194e1fe,2020-08-10_10h07.59.470,lexical_decision_task_MP,2020.1.3,Win32,60,z,1,0.574785,,,,,,,,0.574785,1,,,,,,267,NW,"ID",50,pasink,PASINK,z,,,,,,-0.027777765,-0.394444458,0,0,0,,0,94,94,326,1,
,,,,,,,,,,,,,,,,,,5977e3867412f8000194e1fe,2020-08-10_10h07.59.470,lexical_decision_task_MP,2020.1.3,Win32,60,m,1,0.478965,,,,,,,,0.478965,1,,,,,,209,WORD,"ID",33,search,SEARCH,m,,,,,,-0.027777765,-0.394444458,0,0,0,,0,95,95,28,1,
,,,,,,,,,,,,,,,,,,5977e3867412f8000194e1fe,2020-08-10_10h07.59.470,lexical_decision_task_MP,2020.1.3,Win32,60,m,1,0.437555,,,,,,,,0.437555,1,,,,,,169,WORD,UN,50,pounce,GENIUS,m,,,,,,-0.027777765,-0.394444458,0,0,0,,0,96,96,228,1,
,,,,,,,,,,,,,,,,,,5977e3867412f8000194e1fe,2020-08-10_10h07.59.470,lexical_decision_task_MP,2020.1.3,Win32,60,m,1,0.426725,,,,,,,,0.426725,1,,,,,,186,WORD,"ID",33,portal,PORTAL,m,,,,,,-0.027777765,-0.394444458,0,0,0,,0,97,97,5,1,
,,,,,,,,,,,,,,,,,,5977e3867412f8000194e1fe,2020-08-10_10h07.59.470,lexical_decision_task_MP,2020.1.3,Win32,60,m,1,0.50837,,,,,,,,0.50837,1,,,,,,235,WORD,"ID",33,grumpy,GRUMPY,m,,,,,,-0.027777765,-0.394444458,0,0,0,,0,98,98,54,1,
,,,,,,,,,,,,,,,,,,5977e3867412f8000194e1fe,2020-08-10_10h07.59.470,lexical_decision_task_MP,2020.1.3,Win32,60,m,1,0.506615,,,,,,,,0.506615,1,,,,,,50,WORD,"ID",50,snatch,SNATCH,m,,,,,,-0.027777765,-0.394444458,0,0,0,,0,99,99,109,1,
,,,,,,,,,,,,,,,,,,5977e3867412f8000194e1fe,2020-08-10_10h07.59.470,lexical_decision_task_MP,2020.1.3,Win32,60,z,1,0.54858,,,,,,,,0.54858,1,,,,,,456,NW,"ID",33,broget,BROGET,z,,,,,,-0.027777765,-0.394444458,0,0,0,,0,100,100,275,1,
,,,,,,,,,,,,,,,,,,5977e3867412f8000194e1fe,2020-08-10_10h07.59.470,lexical_decision_task_MP,2020.1.3,Win32,60,m,1,0.46436,,,,,,,,0.46436,1,,,,,,95,WORD,UN,33,ignore,THREAD,m,,,,,,-0.027777765,-0.394444458,0,0,0,,0,101,101,154,1,
,,,,,,,,,,,,,,,,,,5977e3867412f8000194e1fe,2020-08-10_10h07.59.470,lexical_decision_task_MP,2020.1.3,Win32,60,z,1,0.764845,,,,,,,,0.764845,1,,,,,,445,NW,"ID",33,minkel,MINKEL,z,,,,,,-0.027777765,-0.394444458,0,0,0,,0,102,102,264,1,
,,,,,,,,,,,,,,,,,,5977e3867412f8000194e1fe,2020-08-10_10h07.59.470,lexical_decision_task_MP,2020.1.3,Win32,60,z,0,0.597085,,,,,,,,0.597085,0,,,,,,128,WORD,UN,50,marvel,SENIOR,m,,,,,,-0.027777765,-0.394444458,0,0,0,,0,103,103,187,1,
,,,,,,,,,,,,,,,,,,5977e3867412f8000194e1fe,2020-08-10_10h07.59.470,lexical_decision_task_MP,2020.1.3,Win32,60,m,0,0.44927,,,,,,,,0.44927,0,,,,,,303,NW,UN,33,cludie,FIREAM,z,,,,,,-0.027777765,-0.394444458,0,0,0,,0,104,104,362,1,
,,,,,,,,,,,,,,,,,,5977e3867412f8000194e1fe,2020-08-10_10h07.59.470,lexical_decision_task_MP,2020.1.3,Win32,60,m,1,0.617795,,,,,,,,0.617795,1,,,,,,226,WORD,"ID",33,casino,CASINO,m,,,,,,-0.027777765,-0.394444458,0,0,0,,0,105,105,45,1,
,,,,,,,,,,,,,,,,,,5977e3867412f8000194e1fe,2020-08-10_10h07.59.470,lexical_decision_task_MP,2020.1.3,Win32,60,z,1,0.60892,,,,,,,,0.60892,1,,,,,,306,NW,UN,33,kirafe,SOUNGE,z,,,,,,-0.027777765,-0.394444458,0,0,0,,0,106,106,365,1,
,,,,,,,,,,,,,,,,,,5977e3867412f8000194e1fe,2020-08-10_10h07.59.470,lexical_decision_task_MP,2020.1.3,Win32,60,m,1,0.502945,,,,,,,,0.502945,1,,,,,,62,WORD,UN,33,launch,REGION,m,,,,,,-0.027777765,-0.394444458,0,0,0,,0,107,107,121,1,
,,,,,,,,,,,,,,,,,,5977e3867412f8000194e1fe,2020-08-10_10h07.59.470,lexical_decision_task_MP,2020.1.3,Win32,60,z,1,0.482435,,,,,,,,0.482435,1,,,,,,400,NW,UN,50,mustil,WEAROX,z,,,,,,-0.027777765,-0.394444458,0,0,0,,0,108,108,459,1,
,,,,,,,,,,,,,,,,,,5977e3867412f8000194e1fe,2020-08-10_10h07.59.470,lexical_decision_task_MP,2020.1.3,Win32,60,z,1,0.548805,,,,,,,,0.548805,1,,,,,,337,NW,UN,33,wreash,REJOLS,z,,,,,,-0.027777765,-0.394444458,0,0,0,,0,109,109,396,1,
,,,,,,,,,,,,,,,,,,5977e3867412f8000194e1fe,2020-08-10_10h07.59.470,lexical_decision_task_MP,2020.1.3,Win32,60,m,1,0.499725,,,,,,,,0.499725,1,,,,,,108,WORD,UN,33,wonder,RECKON,m,,,,,,-0.027777765,-0.394444458,0,0,0,,0,110,110,167,1,
,,,,,,,,,,,,,,,,,,5977e3867412f8000194e1fe,2020-08-10_10h07.59.470,lexical_decision_task_MP,2020.1.3,Win32,60,m,1,0.4165,,,,,,,,0.4165,1,,,,,,228,WORD,"ID",33,master,MASTER,m,,,,,,-0.027777765,-0.394444458,0,0,0,,0,111,111,47,1,
,,,,,,,,,,,,,,,,,,5977e3867412f8000194e1fe,2020-08-10_10h07.59.470,lexical_decision_task_MP,2020.1.3,Win32,60,m,1,0.37948,,,,,,,,0.37948,1,,,,,,138,WORD,UN,50,debris,MELODY,m,,,,,,-0.027777765,-0.394444458,0,0,0,,0,112,112,197,1,
,,,,,,,,,,,,,,,,,,5977e3867412f8000194e1fe,2020-08-10_10h07.59.470,lexical_decision_task_MP,2020.1.3,Win32,60,m,1,0.517895,,,,,,,,0.517895,1,,,,,,43,WORD,"ID",50,tongue,TONGUE,m,,,,,,-0.027777765,-0.394444458,0,0,0,,0,113,113,102,1,
,,,,,,,,,,,,,,,,,,5977e3867412f8000194e1fe,2020-08-10_10h07.59.470,lexical_decision_task_MP,2020.1.3,Win32,60,m,1,0.45707,,,,,,,,0.45707,1,,,,,,145,WORD,UN,50,couple,PARISH,m,,,,,,-0.027777765,-0.394444458,0,0,0,,0,114,114,204,1,
,,,,,,,,,,,,,,,,,,5977e3867412f8000194e1fe,2020-08-10_10h07.59.470,lexical_decision_task_MP,2020.1.3,Win32,60,m,1,0.487435,,,,,,,,0.487435,1,,,,,,118,WORD,UN,33,spider,FLIGHT,m,,,,,,-0.027777765,-0.394444458,0,0,0,,0,115,115,177,1,
,,,,,,,,,,,,,,,,,,5977e3867412f8000194e1fe,2020-08-10_10h07.59.470,lexical_decision_task_MP,2020.1.3,Win32,60,z,1,0.49696,,,,,,,,0.49696,1,,,,,,275,NW,"ID",50,sleirt,SLEIRT,z,,,,,,-0.027777765,-0.394444458,0,0,0,,0,116,116,334,1,
,,,,,,,,,,,,,,,,,,5977e3867412f8000194e1fe,2020-08-10_10h07.59.470,lexical_decision_task_MP,2020.1.3,Win32,60,m,1,0.4332,,,,,,,,0.4332,1,,,,,,147,WORD,UN,50,custom,GARLIC,m,,,,,,-0.027777765,-0.394444458,0,0,0,,0,117,117,206,1,
,,,,,,,,,,,,,,,,,,5977e3867412f8000194e1fe,2020-08-10_10h07.59.470,lexical_decision_task_MP,2020.1.3,Win32,60,z,1,0.583125,,,,,,,,0.583125,1,,,,,,266,NW,"ID",50,varmit,VARMIT,z,,,,,,-0.027777765,-0.394444458,0,0,0,,0,118,118,325,1,
,,,,,,,,,,,,,,,,,,5977e3867412f8000194e1fe,2020-08-10_10h07.59.470,lexical_decision_task_MP,2020.1.3,Win32,60,m,1,0.79087,,,,,,,,0.79087,1,,,,,,110,WORD,UN,33,induce,POLITE,m,,,,,,-0.027777765,-0.394444458,0,0,0,,0,119,119,169,1,
,,,,,,,,,,,,,,,,,,5977e3867412f8000194e1fe,2020-08-10_10h07.59.470,lexical_decision_task_MP,2020.1.3,Win32,60,z,1,0.558465,,,,,,,,0.558465,1,,,,,,294,NW,"ID",50,inhort,INHORT,z,,,,,,-0.027777765,-0.394444458,0,0,0,space,0,120,120,353,1,9.96915
,,,,,,,,,,,,,,,,,,5977e3867412f8000194e1fe,2020-08-10_10h07.59.470,lexical_decision_task_MP,2020.1.3,Win32,60,m,1,0.58292,,,,,,,,0.58292,1,,,,,,202,WORD,"ID",33,factor,FACTOR,m,,,,,,-0.027777765,-0.394444458,0,0,0,,0,121,121,21,1,
,,,,,,,,,,,,,,,,,,5977e3867412f8000194e1fe,2020-08-10_10h07.59.470,lexical_decision_task_MP,2020.1.3,Win32,60,z,1,0.57162,,,,,,,,0.57162,1,,,,,,458,NW,"ID",33,barcet,BARCET,z,,,,,,-0.027777765,-0.394444458,0,0,0,,0,122,122,277,1,
,,,,,,,,,,,,,,,,,,5977e3867412f8000194e1fe,2020-08-10_10h07.59.470,lexical_decision_task_MP,2020.1.3,Win32,60,m,1,0.60467,,,,,,,,0.60467,1,,,,,,151,WORD,UN,50,rocket,MYSTIC,m,,,,,,-0.027777765,-0.394444458,0,0,0,,0,123,123,210,1,
,,,,,,,,,,,,,,,,,,5977e3867412f8000194e1fe,2020-08-10_10h07.59.470,lexical_decision_task_MP,2020.1.3,Win32,60,z,1,0.57902,,,,,,,,0.57902,1,,,,,,251,NW,"ID",50,lupict,LUPICT,z,,,,,,-0.027777765,-0.394444458,0,0,0,,0,124,124,310,1,
,,,,,,,,,,,,,,,,,,5977e3867412f8000194e1fe,2020-08-10_10h07.59.470,lexical_decision_task_MP,2020.1.3,Win32,60,m,1,0.4493,,,,,,,,0.4493,1,,,,,,46,WORD,"ID",50,single,SINGLE,m,,,,,,-0.027777765,-0.394444458,0,0,0,,0,125,125,105,1,
,,,,,,,,,,,,,,,,,,5977e3867412f8000194e1fe,2020-08-10_10h07.59.470,lexical_decision_task_MP,2020.1.3,Win32,60,m,1,0.50778,,,,,,,,0.50778,1,,,,,,240,WORD,"ID",33,forest,FOREST,m,,,,,,-0.027777765,-0.394444458,0,0,0,,0,126,126,59,1,
,,,,,,,,,,,,,,,,,,5977e3867412f8000194e1fe,2020-08-10_10h07.59.470,lexical_decision_task_MP,2020.1.3,Win32,60,m,1,0.46547,,,,,,,,0.46547,1,,,,,,120,WORD,UN,33,ponder,STRAIN,m,,,,,,-0.027777765,-0.394444458,0,0,0,,0,127,127,179,1,
,,,,,,,,,,,,,,,,,,5977e3867412f8000194e1fe,2020-08-10_10h07.59.470,lexical_decision_task_MP,2020.1.3,Win32,60,m,1,0.432395,,,,,,,,0.432395,1,,,,,,133,WORD,UN,50,staple,CHROME,m,,,,,,-0.027777765,-0.394444458,0,0,0,,0,128,128,192,1,
,,,,,,,,,,,,,,,,,,5977e3867412f8000194e1fe,2020-08-10_10h07.59.470,lexical_decision_task_MP,2020.1.3,Win32,60,z,1,0.51485,,,,,,,,0.51485,1,,,,,,382,NW,UN,50,aungre,SARLEY,z,,,,,,-0.027777765,-0.394444458,0,0,0,,0,129,129,441,1,
,,,,,,,,,,,,,,,,,,5977e3867412f8000194e1fe,2020-08-10_10h07.59.470,lexical_decision_task_MP,2020.1.3,Win32,60,z,1,0.5821,,,,,,,,0.5821,1,,,,,,339,NW,UN,33,fiatch,FACHOW,z,,,,,,-0.027777765,-0.394444458,0,0,0,,0,130,130,398,1,
,,,,,,,,,,,,,,,,,,5977e3867412f8000194e1fe,2020-08-10_10h07.59.470,lexical_decision_task_MP,2020.1.3,Win32,60,m,1,0.433055,,,,,,,,0.433055,1,,,,,,86,WORD,UN,33,filter,RODENT,m,,,,,,-0.027777765,-0.394444458,0,0,0,,0,131,131,145,1,
,,,,,,,,,,,,,,,,,,5977e3867412f8000194e1fe,2020-08-10_10h07.59.470,lexical_decision_task_MP,2020.1.3,Win32,60,z,1,0.5485,,,,,,,,0.5485,1,,,,,,442,NW,"ID",33,aboune,ABOUNE,z,,,,,,-0.027777765,-0.394444458,0,0,0,,0,132,132,261,1,
,,,,,,,,,,,,,,,,,,5977e3867412f8000194e1fe,2020-08-10_10h07.59.470,lexical_decision_task_MP,2020.1.3,Win32,60,m,1,0.414985,,,,,,,,0.414985,1,,,,,,56,WORD,"ID",50,ambush,AMBUSH,m,,,,,,-0.027777765,-0.394444458,0,0,0,,0,133,133,115,1,
,,,,,,,,,,,,,,,,,,5977e3867412f8000194e1fe,2020-08-10_10h07.59.470,lexical_decision_task_MP,2020.1.3,Win32,60,m,1,0.483175,,,,,,,,0.483175,1,,,,,,179,WORD,UN,50,silent,BASKET,m,,,,,,-0.027777765,-0.394444458,0,0,0,,0,134,134,238,1,
,,,,,,,,,,,,,,,,,,5977e3867412f8000194e1fe,2020-08-10_10h07.59.470,lexical_decision_task_MP,2020.1.3,Win32,60,m,1,0.423205,,,,,,,,0.423205,1,,,,,,103,WORD,UN,33,studio,BOUNCE,m,,,,,,-0.027777765,-0.394444458,0,0,0,,0,135,135,162,1,
,,,,,,,,,,,,,,,,,,5977e3867412f8000194e1fe,2020-08-10_10h07.59.470,lexical_decision_task_MP,2020.1.3,Win32,60,z,1,0.61517,,,,,,,,0.61517,1,,,,,,397,NW,UN,50,blunde,CAMBLE,z,,,,,,-0.027777765,-0.394444458,0,0,0,,0,136,136,456,1,
,,,,,,,,,,,,,,,,,,5977e3867412f8000194e1fe,2020-08-10_10h07.59.470,lexical_decision_task_MP,2020.1.3,Win32,60,z,0,0.518065,,,,,,,,0.518065,0,,,,,,183,WORD,"ID",33,mildew,MILDEW,m,,,,,,-0.027777765,-0.394444458,0,0,0,,0,137,137,2,1,
,,,,,,,,,,,,,,,,,,5977e3867412f8000194e1fe,2020-08-10_10h07.59.470,lexical_decision_task_MP,2020.1.3,Win32,60,z,1,0.64829,,,,,,,,0.64829,1,,,,,,291,NW,"ID",50,pretch,PRETCH,z,,,,,,-0.027777765,-0.394444458,0,0,0,,0,138,138,350,1,
,,,,,,,,,,,,,,,,,,5977e3867412f8000194e1fe,2020-08-10_10h07.59.470,lexical_decision_task_MP,2020.1.3,Win32,60,z,1,0.66203,,,,,,,,0.66203,1,,,,,,243,NW,"ID",50,musied,MUSIED,z,,,,,,-0.027777765,-0.394444458,0,0,0,,0,139,139,302,1,
,,,,,,,,,,,,,,,,,,5977e3867412f8000194e1fe,2020-08-10_10h07.59.470,lexical_decision_task_MP,2020.1.3,Win32,60,z,1,0.51901,,,,,,,,0.51901,1,,,,,,393,NW,UN,50,spaqux,GANOUS,z,,,,,,-0.027777765,-0.394444458,0,0,0,,0,140,140,452,1,
,,,,,,,,,,,,,,,,,,5977e3867412f8000194e1fe,2020-08-10_10h07.59.470,lexical_decision_task_MP,2020.1.3,Win32,60,m,1,0.49427,,,,,,,,0.49427,1,,,,,,66,WORD,UN,33,policy,GOSPEL,m,,,,,,-0.027777765,-0.394444458,0,0,0,,0,141,141,125,1,
,,,,,,,,,,,,,,,,,,5977e3867412f8000194e1fe,2020-08-10_10h07.59.470,lexical_decision_task_MP,2020.1.3,Win32,60,z,1,0.731035,,,,,,,,0.731035,1,,,,,,342,NW,UN,33,aimosy,RANDOW,z,,,,,,-0.027777765,-0.394444458,0,0,0,,0,142,142,401,1,
,,,,,,,,,,,,,,,,,,5977e3867412f8000194e1fe,2020-08-10_10h07.59.470,lexical_decision_task_MP,2020.1.3,Win32,60,z,1,0.49012,,,,,,,,0.49012,1,,,,,,392,NW,UN,50,ganous,ROUNCY,z,,,,,,-0.027777765,-0.394444458,0,0,0,,0,143,143,451,1,
,,,,,,,,,,,,,,,,,,5977e3867412f8000194e1fe,2020-08-10_10h07.59.470,lexical_decision_task_MP,2020.1.3,Win32,60,m,1,0.437725,,,,,,,,0.437725,1,,,,,,102,WORD,UN,33,bounce,DIRECT,m,,,,,,-0.027777765,-0.394444458,0,0,0,,0,144,144,161,1,
,,,,,,,,,,,,,,,,,,5977e3867412f8000194e1fe,2020-08-10_10h07.59.470,lexical_decision_task_MP,2020.1.3,Win32,60,m,1,0.53262,,,,,,,,0.53262,1,,,,,,29,WORD,"ID",50,sketch,SKETCH,m,,,,,,-0.027777765,-0.394444458,0,0,0,,0,145,145,88,1,
,,,,,,,,,,,,,,,,,,5977e3867412f8000194e1fe,2020-08-10_10h07.59.470,lexical_decision_task_MP,2020.1.3,Win32,60,m,1,0.409085,,,,,,,,0.409085,1,,,,,,219,WORD,"ID",33,bucket,BUCKET,m,,,,,,-0.027777765,-0.394444458,0,0,0,,0,146,146,38,1,
,,,,,,,,,,,,,,,,,,5977e3867412f8000194e1fe,2020-08-10_10h07.59.470,lexical_decision_task_MP,2020.1.3,Win32,60,z,1,0.490335,,,,,,,,0.490335,1,,,,,,351,NW,UN,33,tringe,TIESCH,z,,,,,,-0.027777765,-0.394444458,0,0,0,,0,147,147,410,1,
,,,,,,,,,,,,,,,,,,5977e3867412f8000194e1fe,2020-08-10_10h07.59.470,lexical_decision_task_MP,2020.1.3,Win32,60,z,1,0.498905,,,,,,,,0.498905,1,,,,,,323,NW,UN,33,steikh,ROSAIL,z,,,,,,-0.027777765,-0.394444458,0,0,0,,0,148,148,382,1,
,,,,,,,,,,,,,,,,,,5977e3867412f8000194e1fe,2020-08-10_10h07.59.470,lexical_decision_task_MP,2020.1.3,Win32,60,z,1,0.601695,,,,,,,,0.601695,1,,,,,,419,NW,UN,50,gushop,SLOUNT,z,,,,,,-0.027777765,-0.394444458,0,0,0,,0,149,149,478,1,
,,,,,,,,,,,,,,,,,,5977e3867412f8000194e1fe,2020-08-10_10h07.59.470,lexical_decision_task_MP,2020.1.3,Win32,60,m,1,0.443025,,,,,,,,0.443025,1,,,,,,97,WORD,UN,33,belong,CLIENT,m,,,,,,-0.027777765,-0.394444458,0,0,0,,0,150,150,156,1,
,,,,,,,,,,,,,,,,,,5977e3867412f8000194e1fe,2020-08-10_10h07.59.470,lexical_decision_task_MP,2020.1.3,Win32,60,z,1,0.501605,,,,,,,,0.501605,1,,,,,,326,NW,UN,33,plenac,IGUADE,z,,,,,,-0.027777765,-0.394444458,0,0,0,,0,151,151,385,1,
,,,,,,,,,,,,,,,,,,5977e3867412f8000194e1fe,2020-08-10_10h07.59.470,lexical_decision_task_MP,2020.1.3,Win32,60,z,1,0.650655,,,,,,,,0.650655,1,,,,,,364,NW,UN,50,guairt,IMPOTE,z,,,,,,-0.027777765,-0.394444458,0,0,0,,0,152,152,423,1,
,,,,,,,,,,,,,,,,,,5977e3867412f8000194e1fe,2020-08-10_10h07.59.470,lexical_decision_task_MP,2020.1.3,Win32,60,z,1,0.421205,,,,,,,,0.421205,1,,,,,,300,NW,"ID",50,yarion,YARION,z,,,,,,-0.027777765,-0.394444458,0,0,0,,0,153,153,359,1,
,,,,,,,,,,,,,,,,,,5977e3867412f8000194e1fe,2020-08-10_10h07.59.470,lexical_decision_task_MP,2020.1.3,Win32,60,m,1,0.4599,,,,,,,,0.4599,1,,,,,,137,WORD,UN,50,melody,FINGER,m,,,,,,-0.027777765,-0.394444458,0,0,0,,0,154,154,196,1,
,,,,,,,,,,,,,,,,,,5977e3867412f8000194e1fe,2020-08-10_10h07.59.470,lexical_decision_task_MP,2020.1.3,Win32,60,z,1,0.53477,,,,,,,,0.53477,1,,,,,,448,NW,"ID",33,sadent,SADENT,z,,,,,,-0.027777765,-0.394444458,0,0,0,,0,155,155,267,1,
,,,,,,,,,,,,,,,,,,5977e3867412f8000194e1fe,2020-08-10_10h07.59.470,lexical_decision_task_MP,2020.1.3,Win32,60,z,1,0.45856,,,,,,,,0.45856,1,,,,,,365,NW,UN,50,toshel,GUAIRT,z,,,,,,-0.027777765,-0.394444458,0,0,0,,0,156,156,424,1,
,,,,,,,,,,,,,,,,,,5977e3867412f8000194e1fe,2020-08-10_10h07.59.470,lexical_decision_task_MP,2020.1.3,Win32,60,z,1,0.485305,,,,,,,,0.485305,1,,,,,,270,NW,"ID",50,wrimsy,WRIMSY,z,,,,,,-0.027777765,-0.394444458,0,0,0,,0,157,157,329,1,
,,,,,,,,,,,,,,,,,,5977e3867412f8000194e1fe,2020-08-10_10h07.59.470,lexical_decision_task_MP,2020.1.3,Win32,60,z,1,0.415475,,,,,,,,0.415475,1,,,,,,310,NW,UN,33,sproly,DANIET,z,,,,,,-0.027777765,-0.394444458,0,0,0,,0,158,158,369,1,
,,,,,,,,,,,,,,,,,,5977e3867412f8000194e1fe,2020-08-10_10h07.59.470,lexical_decision_task_MP,2020.1.3,Win32,60,z,1,0.47476,,,,,,,,0.47476,1,,,,,,383,NW,UN,50,guesco,AUNGRE,z,,,,,,-0.027777765,-0.394444458,0,0,0,,0,159,159,442,1,
,,,,,,,,,,,,,,,,,,5977e3867412f8000194e1fe,2020-08-10_10h07.59.470,lexical_decision_task_MP,2020.1.3,Win32,60,z,1,0.48988,,,,,,,,0.48988,1,,,,,,426,NW,"ID",33,urivel,URIVEL,z,,,,,,-0.027777765,-0.394444458,0,0,0,,0,160,160,245,1,
,,,,,,,,,,,,,,,,,,5977e3867412f8000194e1fe,2020-08-10_10h07.59.470,lexical_decision_task_MP,2020.1.3,Win32,60,z,0,0.55733,,,,,,,,0.55733,0,,,,,,163,WORD,UN,50,market,STRING,m,,,,,,-0.027777765,-0.394444458,0,0,0,,0,161,161,222,1,
,,,,,,,,,,,,,,,,,,5977e3867412f8000194e1fe,2020-08-10_10h07.59.470,lexical_decision_task_MP,2020.1.3,Win32,60,z,1,0.60776,,,,,,,,0.60776,1,,,,,,349,NW,UN,33,nagurs,ASYLEN,z,,,,,,-0.027777765,-0.394444458,0,0,0,,0,162,162,408,1,
,,,,,,,,,,,,,,,,,,5977e3867412f8000194e1fe,2020-08-10_10h07.59.470,lexical_decision_task_MP,2020.1.3,Win32,60,m,1,0.454915,,,,,,,,0.454915,1,,,,,,123,WORD,UN,50,blouse,STRIKE,m,,,,,,-0.027777765,-0.394444458,0,0,0,,0,163,163,182,1,
,,,,,,,,,,,,,,,,,,5977e3867412f8000194e1fe,2020-08-10_10h07.59.470,lexical_decision_task_MP,2020.1.3,Win32,60,m,1,0.458615,,,,,,,,0.458615,1,,,,,,67,WORD,UN,33,fumble,POLICY,m,,,,,,-0.027777765,-0.394444458,0,0,0,,0,164,164,126,1,
,,,,,,,,,,,,,,,,,,5977e3867412f8000194e1fe,2020-08-10_10h07.59.470,lexical_decision_task_MP,2020.1.3,Win32,60,m,1,0.727355,,,,,,,,0.727355,1,,,,,,111,WORD,UN,33,breath,INDUCE,m,,,,,,-0.027777765,-0.394444458,0,0,0,,0,165,165,170,1,
,,,,,,,,,,,,,,,,,,5977e3867412f8000194e1fe,2020-08-10_10h07.59.470,lexical_decision_task_MP,2020.1.3,Win32,60,z,1,0.49523,,,,,,,,0.49523,1,,,,,,447,NW,"ID",33,gircue,GIRCUE,z,,,,,,-0.027777765,-0.394444458,0,0,0,,0,166,166,266,1,
,,,,,,,,,,,,,,,,,,5977e3867412f8000194e1fe,2020-08-10_10h07.59.470,lexical_decision_task_MP,2020.1.3,Win32,60,m,1,0.44295,,,,,,,,0.44295,1,,,,,,198,WORD,"ID",33,wicked,WICKED,m,,,,,,-0.027777765,-0.394444458,0,0,0,,0,167,167,17,1,
,,,,,,,,,,,,,,,,,,5977e3867412f8000194e1fe,2020-08-10_10h07.59.470,lexical_decision_task_MP,2020.1.3,Win32,60,z,1,0.538185,,,,,,,,0.538185,1,,,,,,252,NW,"ID",50,stapod,STAPOD,z,,,,,,-0.027777765,-0.394444458,0,0,0,,0,168,168,311,1,
,,,,,,,,,,,,,,,,,,5977e3867412f8000194e1fe,2020-08-10_10h07.59.470,lexical_decision_task_MP,2020.1.3,Win32,60,m,0,0.766585,,,,,,,,0.766585,0,,,,,,338,NW,UN,33,fachow,WREASH,z,,,,,,-0.027777765,-0.394444458,0,0,0,,0,169,169,397,1,
,,,,,,,,,,,,,,,,,,5977e3867412f8000194e1fe,2020-08-10_10h07.59.470,lexical_decision_task_MP,2020.1.3,Win32,60,m,1,0.49086,,,,,,,,0.49086,1,,,,,,215,WORD,"ID",33,phobia,PHOBIA,m,,,,,,-0.027777765,-0.394444458,0,0,0,,0,170,170,34,1,
,,,,,,,,,,,,,,,,,,5977e3867412f8000194e1fe,2020-08-10_10h07.59.470,lexical_decision_task_MP,2020.1.3,Win32,60,z,1,0.46604,,,,,,,,0.46604,1,,,,,,366,NW,UN,50,slique,TOSHEL,z,,,,,,-0.027777765,-0.394444458,0,0,0,,0,171,171,425,1,
,,,,,,,,,,,,,,,,,,5977e3867412f8000194e1fe,2020-08-10_10h07.59.470,lexical_decision_task_MP,2020.1.3,Win32,60,m,1,0.44793,,,,,,,,0.44793,1,,,,,,199,WORD,"ID",33,invoke,INVOKE,m,,,,,,-0.027777765,-0.394444458,0,0,0,,0,172,172,18,1,
,,,,,,,,,,,,,,,,,,5977e3867412f8000194e1fe,2020-08-10_10h07.59.470,lexical_decision_task_MP,2020.1.3,Win32,60,m,1,0.510195,,,,,,,,0.510195,1,,,,,,119,WORD,UN,33,strain,SPIDER,m,,,,,,-0.027777765,-0.394444458,0,0,0,,0,173,173,178,1,
,,,,,,,,,,,,,,,,,,5977e3867412f8000194e1fe,2020-08-10_10h07.59.470,lexical_decision_task_MP,2020.1.3,Win32,60,m,1,0.63181,,,,,,,,0.63181,1,,,,,,184,WORD,"ID",33,sleazy,SLEAZY,m,,,,,,-0.027777765,-0.394444458,0,0,0,,0,174,174,3,1,
,,,,,,,,,,,,,,,,,,5977e3867412f8000194e1fe,2020-08-10_10h07.59.470,lexical_decision_task_MP,2020.1.3,Win32,60,m,1,0.448785,,,,,,,,0.448785,1,,,,,,211,WORD,"ID",33,infect,INFECT,m,,,,,,-0.027777765,-0.394444458,0,0,0,,0,175,175,30,1,
,,,,,,,,,,,,,,,,,,5977e3867412f8000194e1fe,2020-08-10_10h07.59.470,lexical_decision_task_MP,2020.1.3,Win32,60,m,1,0.50021,,,,,,,,0.50021,1,,,,,,136,WORD,UN,50,finger,BLEACH,m,,,,,,-0.027777765,-0.394444458,0,0,0,,0,176,176,195,1,
,,,,,,,,,,,,,,,,,,5977e3867412f8000194e1fe,2020-08-10_10h07.59.470,lexical_decision_task_MP,2020.1.3,Win32,60,z,1,0.45195,,,,,,,,0.45195,1,,,,,,350,NW,UN,33,tiesch,NAGURS,z,,,,,,-0.027777765,-0.394444458,0,0,0,,0,177,177,409,1,
,,,,,,,,,,,,,,,,,,5977e3867412f8000194e1fe,2020-08-10_10h07.59.470,lexical_decision_task_MP,2020.1.3,Win32,60,z,1,0.510295,,,,,,,,0.510295,1,,,,,,453,NW,"ID",33,bolvis,BOLVIS,z,,,,,,-0.027777765,-0.394444458,0,0,0,,0,178,178,272,1,
,,,,,,,,,,,,,,,,,,5977e3867412f8000194e1fe,2020-08-10_10h07.59.470,lexical_decision_task_MP,2020.1.3,Win32,60,z,1,0.53896,,,,,,,,0.53896,1,,,,,,418,NW,UN,50,slount,SUIDLE,z,,,,,,-0.027777765,-0.394444458,0,0,0,,0,179,179,477,1,
,,,,,,,,,,,,,,,,,,5977e3867412f8000194e1fe,2020-08-10_10h07.59.470,lexical_decision_task_MP,2020.1.3,Win32,60,m,1,0.489155,,,,,,,,0.489155,1,,,,,,153,WORD,UN,50,author,BEHOLD,m,,,,,,-0.027777765,-0.394444458,0,0,0,,0,180,180,212,1,
,,,,,,,,,,,,,,,,,,5977e3867412f8000194e1fe,2020-08-10_10h07.59.470,lexical_decision_task_MP,2020.1.3,Win32,60,m,1,0.38141,,,,,,,,0.38141,1,,,,,,132,WORD,UN,50,orphan,STRONG,m,,,,,,-0.027777765,-0.394444458,0,0,0,,0,181,181,191,1,
,,,,,,,,,,,,,,,,,,5977e3867412f8000194e1fe,2020-08-10_10h07.59.470,lexical_decision_task_MP,2020.1.3,Win32,60,z,0,0.50904,,,,,,,,0.50904,0,,,,,,233,WORD,"ID",33,nature,NATURE,m,,,,,,-0.027777765,-0.394444458,0,0,0,,0,182,182,52,1,
,,,,,,,,,,,,,,,,,,5977e3867412f8000194e1fe,2020-08-10_10h07.59.470,lexical_decision_task_MP,2020.1.3,Win32,60,m,1,0.46558,,,,,,,,0.46558,1,,,,,,125,WORD,UN,50,enough,NICKEL,m,,,,,,-0.027777765,-0.394444458,0,0,0,,0,183,183,184,1,
,,,,,,,,,,,,,,,,,,5977e3867412f8000194e1fe,2020-08-10_10h07.59.470,lexical_decision_task_MP,2020.1.3,Win32,60,z,1,0.52005,,,,,,,,0.52005,1,,,,,,415,NW,UN,50,pathel,HIGSTA,z,,,,,,-0.027777765,-0.394444458,0,0,0,,0,184,184,474,1,
,,,,,,,,,,,,,,,,,,5977e3867412f8000194e1fe,2020-08-10_10h07.59.470,lexical_decision_task_MP,2020.1.3,Win32,60,m,1,0.45322,,,,,,,,0.45322,1,,,,,,1,WORD,"ID",50,fright,FRIGHT,m,,,,,,-0.027777765,-0.394444458,0,0,0,,0,185,185,60,1,
,,,,,,,,,,,,,,,,,,5977e3867412f8000194e1fe,2020-08-10_10h07.59.470,lexical_decision_task_MP,2020.1.3,Win32,60,m,1,0.39807,,,,,,,,0.39807,1,,,,,,227,WORD,"ID",33,seldom,SELDOM,m,,,,,,-0.027777765,-0.394444458,0,0,0,,0,186,186,46,1,
,,,,,,,,,,,,,,,,,,5977e3867412f8000194e1fe,2020-08-10_10h07.59.470,lexical_decision_task_MP,2020.1.3,Win32,60,m,1,0.38823,,,,,,,,0.38823,1,,,,,,83,WORD,UN,33,mortal,RESULT,m,,,,,,-0.027777765,-0.394444458,0,0,0,,0,187,187,142,1,
,,,,,,,,,,,,,,,,,,5977e3867412f8000194e1fe,2020-08-10_10h07.59.470,lexical_decision_task_MP,2020.1.3,Win32,60,z,1,0.533365,,,,,,,,0.533365,1,,,,,,414,NW,UN,50,higsta,SERBOL,z,,,,,,-0.027777765,-0.394444458,0,0,0,,0,188,188,473,1,
,,,,,,,,,,,,,,,,,,5977e3867412f8000194e1fe,2020-08-10_10h07.59.470,lexical_decision_task_MP,2020.1.3,Win32,60,z,1,0.583365,,,,,,,,0.583365,1,,,,,,359,NW,UN,33,desory,FONVER,z,,,,,,-0.027777765,-0.394444458,0,0,0,,0,189,189,418,1,
,,,,,,,,,,,,,,,,,,5977e3867412f8000194e1fe,2020-08-10_10h07.59.470,lexical_decision_task_MP,2020.1.3,Win32,60,m,1,0.443475,,,,,,,,0.443475,1,,,,,,100,WORD,UN,33,wrench,CARBON,m,,,,,,-0.027777765,-0.394444458,0,0,0,,0,190,190,159,1,
,,,,,,,,,,,,,,,,,,5977e3867412f8000194e1fe,2020-08-10_10h07.59.470,lexical_decision_task_MP,2020.1.3,Win32,60,z,1,0.6981,,,,,,,,0.6981,1,,,,,,282,NW,"ID",50,porlex,PORLEX,z,,,,,,-0.027777765,-0.394444458,0,0,0,,0,191,191,341,1,
,,,,,,,,,,,,,,,,,,5977e3867412f8000194e1fe,2020-08-10_10h07.59.470,lexical_decision_task_MP,2020.1.3,Win32,60,z,1,0.519365,,,,,,,,0.519365,1,,,,,,435,NW,"ID",33,impurb,IMPURB,z,,,,,,-0.027777765,-0.394444458,0,0,0,,0,192,192,254,1,
,,,,,,,,,,,,,,,,,,5977e3867412f8000194e1fe,2020-08-10_10h07.59.470,lexical_decision_task_MP,2020.1.3,Win32,60,m,1,0.36613,,,,,,,,0.36613,1,,,,,,55,WORD,"ID",50,stroke,STROKE,m,,,,,,-0.027777765,-0.394444458,0,0,0,,0,193,193,114,1,
,,,,,,,,,,,,,,,,,,5977e3867412f8000194e1fe,2020-08-10_10h07.59.470,lexical_decision_task_MP,2020.1.3,Win32,60,z,1,0.470585,,,,,,,,0.470585,1,,,,,,376,NW,UN,50,veigma,IGUARE,z,,,,,,-0.027777765,-0.394444458,0,0,0,,0,194,194,435,1,
,,,,,,,,,,,,,,,,,,5977e3867412f8000194e1fe,2020-08-10_10h07.59.470,lexical_decision_task_MP,2020.1.3,Win32,60,z,1,0.500205,,,,,,,,0.500205,1,,,,,,407,NW,UN,50,hurnia,SUIVER,z,,,,,,-0.027777765,-0.394444458,0,0,0,,0,195,195,466,1,
,,,,,,,,,,,,,,,,,,5977e3867412f8000194e1fe,2020-08-10_10h07.59.470,lexical_decision_task_MP,2020.1.3,Win32,60,z,1,0.469765,,,,,,,,0.469765,1,,,,,,357,NW,UN,33,fleack,DERAIN,z,,,,,,-0.027777765,-0.394444458,0,0,0,,0,196,196,416,1,
,,,,,,,,,,,,,,,,,,5977e3867412f8000194e1fe,2020-08-10_10h07.59.470,lexical_decision_task_MP,2020.1.3,Win32,60,z,1,0.55473,,,,,,,,0.55473,1,,,,,,242,NW,"ID",50,unwert,UNWERT,z,,,,,,-0.027777765,-0.394444458,0,0,0,,0,197,197,301,1,
,,,,,,,,,,,,,,,,,,5977e3867412f8000194e1fe,2020-08-10_10h07.59.470,lexical_decision_task_MP,2020.1.3,Win32,60,m,1,0.51056,,,,,,,,0.51056,1,,,,,,61,WORD,UN,33,region,PONDER,m,,,,,,-0.027777765,-0.394444458,0,0,0,,0,198,198,120,1,
,,,,,,,,,,,,,,,,,,5977e3867412f8000194e1fe,2020-08-10_10h07.59.470,lexical_decision_task_MP,2020.1.3,Win32,60,m,1,0.45221,,,,,,,,0.45221,1,,,,,,113,WORD,UN,33,placid,CHORUS,m,,,,,,-0.027777765,-0.394444458,0,0,0,,0,199,199,172,1,
,,,,,,,,,,,,,,,,,,5977e3867412f8000194e1fe,2020-08-10_10h07.59.470,lexical_decision_task_MP,2020.1.3,Win32,60,m,1,0.418605,,,,,,,,0.418605,1,,,,,,19,WORD,"ID",50,patron,PATRON,m,,,,,,-0.027777765,-0.394444458,0,0,0,,0,200,200,78,1,
,,,,,,,,,,,,,,,,,,5977e3867412f8000194e1fe,2020-08-10_10h07.59.470,lexical_decision_task_MP,2020.1.3,Win32,60,m,1,0.38378,,,,,,,,0.38378,1,,,,,,185,WORD,"ID",33,bother,BOTHER,m,,,,,,-0.027777765,-0.394444458,0,0,0,,0,201,201,4,1,
,,,,,,,,,,,,,,,,,,5977e3867412f8000194e1fe,2020-08-10_10h07.59.470,lexical_decision_task_MP,2020.1.3,Win32,60,z,1,0.453885,,,,,,,,0.453885,1,,,,,,336,NW,UN,33,rejols,GHODUS,z,,,,,,-0.027777765,-0.394444458,0,0,0,,0,202,202,395,1,
,,,,,,,,,,,,,,,,,,5977e3867412f8000194e1fe,2020-08-10_10h07.59.470,lexical_decision_task_MP,2020.1.3,Win32,60,m,1,0.506545,,,,,,,,0.506545,1,,,,,,2,WORD,"ID",50,bridge,BRIDGE,m,,,,,,-0.027777765,-0.394444458,0,0,0,,0,203,203,61,1,
,,,,,,,,,,,,,,,,,,5977e3867412f8000194e1fe,2020-08-10_10h07.59.470,lexical_decision_task_MP,2020.1.3,Win32,60,z,1,0.466045,,,,,,,,0.466045,1,,,,,,370,NW,UN,50,geiloy,SLEACT,z,,,,,,-0.027777765,-0.394444458,0,0,0,,0,204,204,429,1,
,,,,,,,,,,,,,,,,,,5977e3867412f8000194e1fe,2020-08-10_10h07.59.470,lexical_decision_task_MP,2020.1.3,Win32,60,m,0,0.40594,,,,,,,,0.40594,0,,,,,,424,NW,"ID",33,praile,PRAILE,z,,,,,,-0.027777765,-0.394444458,0,0,0,,0,205,205,243,1,
,,,,,,,,,,,,,,,,,,5977e3867412f8000194e1fe,2020-08-10_10h07.59.470,lexical_decision_task_MP,2020.1.3,Win32,60,m,1,0.40938,,,,,,,,0.40938,1,,,,,,206,WORD,"ID",33,tailor,TAILOR,m,,,,,,-0.027777765,-0.394444458,0,0,0,,0,206,206,25,1,
,,,,,,,,,,,,,,,,,,5977e3867412f8000194e1fe,2020-08-10_10h07.59.470,lexical_decision_task_MP,2020.1.3,Win32,60,z,1,0.392355,,,,,,,,0.392355,1,,,,,,406,NW,UN,50,suiver,NOUPLY,z,,,,,,-0.027777765,-0.394444458,0,0,0,,0,207,207,465,1,
,,,,,,,,,,,,,,,,,,5977e3867412f8000194e1fe,2020-08-10_10h07.59.470,lexical_decision_task_MP,2020.1.3,Win32,60,z,1,0.49377,,,,,,,,0.49377,1,,,,,,346,NW,UN,33,kerift,SAUDIC,z,,,,,,-0.027777765,-0.394444458,0,0,0,,0,208,208,405,1,
,,,,,,,,,,,,,,,,,,5977e3867412f8000194e1fe,2020-08-10_10h07.59.470,lexical_decision_task_MP,2020.1.3,Win32,60,z,1,0.51376,,,,,,,,0.51376,1,,,,,,441,NW,"ID",33,rastoe,RASTOE,z,,,,,,-0.027777765,-0.394444458,0,0,0,,0,209,209,260,1,
,,,,,,,,,,,,,,,,,,5977e3867412f8000194e1fe,2020-08-10_10h07.59.470,lexical_decision_task_MP,2020.1.3,Win32,60,z,1,0.457715,,,,,,,,0.457715,1,,,,,,422,NW,"ID",33,alcoud,ALCOUD,z,,,,,,-0.027777765,-0.394444458,0,0,0,,0,210,210,241,1,
,,,,,,,,,,,,,,,,,,5977e3867412f8000194e1fe,2020-08-10_10h07.59.470,lexical_decision_task_MP,2020.1.3,Win32,60,m,0,0.519695,,,,,,,,0.519695,0,,,,,,358,NW,UN,33,fonver,FLEACK,z,,,,,,-0.027777765,-0.394444458,0,0,0,,0,211,211,417,1,
,,,,,,,,,,,,,,,,,,5977e3867412f8000194e1fe,2020-08-10_10h07.59.470,lexical_decision_task_MP,2020.1.3,Win32,60,m,1,0.49544,,,,,,,,0.49544,1,,,,,,225,WORD,"ID",33,vulgar,VULGAR,m,,,,,,-0.027777765,-0.394444458,0,0,0,,0,212,212,44,1,
,,,,,,,,,,,,,,,,,,5977e3867412f8000194e1fe,2020-08-10_10h07.59.470,lexical_decision_task_MP,2020.1.3,Win32,60,m,1,0.4432,,,,,,,,0.4432,1,,,,,,25,WORD,"ID",50,domain,DOMAIN,m,,,,,,-0.027777765,-0.394444458,0,0,0,,0,213,213,84,1,
,,,,,,,,,,,,,,,,,,5977e3867412f8000194e1fe,2020-08-10_10h07.59.470,lexical_decision_task_MP,2020.1.3,Win32,60,z,1,0.498095,,,,,,,,0.498095,1,,,,,,378,NW,UN,50,auting,SHRILE,z,,,,,,-0.027777765,-0.394444458,0,0,0,,0,214,214,437,1,
,,,,,,,,,,,,,,,,,,5977e3867412f8000194e1fe,2020-08-10_10h07.59.470,lexical_decision_task_MP,2020.1.3,Win32,60,m,1,0.519825,,,,,,,,0.519825,1,,,,,,197,WORD,"ID",33,stream,STREAM,m,,,,,,-0.027777765,-0.394444458,0,0,0,,0,215,215,16,1,
,,,,,,,,,,,,,,,,,,5977e3867412f8000194e1fe,2020-08-10_10h07.59.470,lexical_decision_task_MP,2020.1.3,Win32,60,z,1,0.451905,,,,,,,,0.451905,1,,,,,,254,NW,"ID",50,varosh,VAROSH,z,,,,,,-0.027777765,-0.394444458,0,0,0,,0,216,216,313,1,
,,,,,,,,,,,,,,,,,,5977e3867412f8000194e1fe,2020-08-10_10h07.59.470,lexical_decision_task_MP,2020.1.3,Win32,60,z,1,0.42533,,,,,,,,0.42533,1,,,,,,334,NW,UN,33,desion,WATMEG,z,,,,,,-0.027777765,-0.394444458,0,0,0,,0,217,217,393,1,
,,,,,,,,,,,,,,,,,,5977e3867412f8000194e1fe,2020-08-10_10h07.59.470,lexical_decision_task_MP,2020.1.3,Win32,60,z,1,0.53131,,,,,,,,0.53131,1,,,,,,460,NW,"ID",33,mingar,MINGAR,z,,,,,,-0.027777765,-0.394444458,0,0,0,,0,218,218,279,1,
,,,,,,,,,,,,,,,,,,5977e3867412f8000194e1fe,2020-08-10_10h07.59.470,lexical_decision_task_MP,2020.1.3,Win32,60,m,1,0.52848,,,,,,,,0.52848,1,,,,,,158,WORD,UN,50,detail,ISLAND,m,,,,,,-0.027777765,-0.394444458,0,0,0,,0,219,219,217,1,
,,,,,,,,,,,,,,,,,,5977e3867412f8000194e1fe,2020-08-10_10h07.59.470,lexical_decision_task_MP,2020.1.3,Win32,60,z,1,0.48588,,,,,,,,0.48588,1,,,,,,340,NW,UN,33,myrtie,FIATCH,z,,,,,,-0.027777765,-0.394444458,0,0,0,,0,220,220,399,1,
,,,,,,,,,,,,,,,,,,5977e3867412f8000194e1fe,2020-08-10_10h07.59.470,lexical_decision_task_MP,2020.1.3,Win32,60,z,1,0.50593,,,,,,,,0.50593,1,,,,,,431,NW,"ID",33,chrums,CHRUMS,z,,,,,,-0.027777765,-0.394444458,0,0,0,,0,221,221,250,1,
,,,,,,,,,,,,,,,,,,5977e3867412f8000194e1fe,2020-08-10_10h07.59.470,lexical_decision_task_MP,2020.1.3,Win32,60,z,1,0.473205,,,,,,,,0.473205,1,,,,,,261,NW,"ID",50,stunch,STUNCH,z,,,,,,-0.027777765,-0.394444458,0,0,0,,0,222,222,320,1,
,,,,,,,,,,,,,,,,,,5977e3867412f8000194e1fe,2020-08-10_10h07.59.470,lexical_decision_task_MP,2020.1.3,Win32,60,m,1,0.593055,,,,,,,,0.593055,1,,,,,,16,WORD,"ID",50,faucet,FAUCET,m,,,,,,-0.027777765,-0.394444458,0,0,0,,0,223,223,75,1,
,,,,,,,,,,,,,,,,,,5977e3867412f8000194e1fe,2020-08-10_10h07.59.470,lexical_decision_task_MP,2020.1.3,Win32,60,m,1,0.537295,,,,,,,,0.537295,1,,,,,,134,WORD,UN,50,import,STAPLE,m,,,,,,-0.027777765,-0.394444458,0,0,0,,0,224,224,193,1,
,,,,,,,,,,,,,,,,,,5977e3867412f8000194e1fe,2020-08-10_10h07.59.470,lexical_decision_task_MP,2020.1.3,Win32,60,z,0,0.75333,,,,,,,,0.75333,0,,,,,,142,WORD,UN,50,reason,SPRUCE,m,,,,,,-0.027777765,-0.394444458,0,0,0,,0,225,225,201,1,
,,,,,,,,,,,,,,,,,,5977e3867412f8000194e1fe,2020-08-10_10h07.59.470,lexical_decision_task_MP,2020.1.3,Win32,60,m,1,0.45098,,,,,,,,0.45098,1,,,,,,28,WORD,"ID",50,comedy,COMEDY,m,,,,,,-0.027777765,-0.394444458,0,0,0,,0,226,226,87,1,
,,,,,,,,,,,,,,,,,,5977e3867412f8000194e1fe,2020-08-10_10h07.59.470,lexical_decision_task_MP,2020.1.3,Win32,60,z,1,0.485915,,,,,,,,0.485915,1,,,,,,279,NW,"ID",50,celond,CELOND,z,,,,,,-0.027777765,-0.394444458,0,0,0,,0,227,227,338,1,
,,,,,,,,,,,,,,,,,,5977e3867412f8000194e1fe,2020-08-10_10h07.59.470,lexical_decision_task_MP,2020.1.3,Win32,60,m,1,0.57407,,,,,,,,0.57407,1,,,,,,126,WORD,UN,50,castle,ENOUGH,m,,,,,,-0.027777765,-0.394444458,0,0,0,,0,228,228,185,1,
,,,,,,,,,,,,,,,,,,5977e3867412f8000194e1fe,2020-08-10_10h07.59.470,lexical_decision_task_MP,2020.1.3,Win32,60,m,1,0.46869,,,,,,,,0.46869,1,,,,,,193,WORD,"ID",33,object,OBJECT,m,,,,,,-0.027777765,-0.394444458,0,0,0,,0,229,229,12,1,
,,,,,,,,,,,,,,,,,,5977e3867412f8000194e1fe,2020-08-10_10h07.59.470,lexical_decision_task_MP,2020.1.3,Win32,60,m,1,0.385665,,,,,,,,0.385665,1,,,,,,154,WORD,UN,50,lizard,AUTHOR,m,,,,,,-0.027777765,-0.394444458,0,0,0,,0,230,230,213,1,
,,,,,,,,,,,,,,,,,,5977e3867412f8000194e1fe,2020-08-10_10h07.59.470,lexical_decision_task_MP,2020.1.3,Win32,60,m,1,0.347725,,,,,,,,0.347725,1,,,,,,20,WORD,"ID",50,breast,BREAST,m,,,,,,-0.027777765,-0.394444458,0,0,0,,0,231,231,79,1,
,,,,,,,,,,,,,,,,,,5977e3867412f8000194e1fe,2020-08-10_10h07.59.470,lexical_decision_task_MP,2020.1.3,Win32,60,m,1,0.38211,,,,,,,,0.38211,1,,,,,,6,WORD,"ID",50,bundle,BUNDLE,m,,,,,,-0.027777765,-0.394444458,0,0,0,,0,232,232,65,1,
,,,,,,,,,,,,,,,,,,5977e3867412f8000194e1fe,2020-08-10_10h07.59.470,lexical_decision_task_MP,2020.1.3,Win32,60,z,1,0.56102,,,,,,,,0.56102,1,,,,,,402,NW,UN,50,bruats,SYNTIC,z,,,,,,-0.027777765,-0.394444458,0,0,0,,0,233,233,461,1,
,,,,,,,,,,,,,,,,,,5977e3867412f8000194e1fe,2020-08-10_10h07.59.470,lexical_decision_task_MP,2020.1.3,Win32,60,m,1,0.46885,,,,,,,,0.46885,1,,,,,,30,WORD,"ID",50,orient,ORIENT,m,,,,,,-0.027777765,-0.394444458,0,0,0,,0,234,234,89,1,
,,,,,,,,,,,,,,,,,,5977e3867412f8000194e1fe,2020-08-10_10h07.59.470,lexical_decision_task_MP,2020.1.3,Win32,60,m,1,0.39204,,,,,,,,0.39204,1,,,,,,14,WORD,"ID",50,almost,ALMOST,m,,,,,,-0.027777765,-0.394444458,0,0,0,,0,235,235,73,1,
,,,,,,,,,,,,,,,,,,5977e3867412f8000194e1fe,2020-08-10_10h07.59.470,lexical_decision_task_MP,2020.1.3,Win32,60,m,1,0.33758,,,,,,,,0.33758,1,,,,,,182,WORD,"ID",33,winter,WINTER,m,,,,,,-0.027777765,-0.394444458,0,0,0,,0,236,236,1,1,
,,,,,,,,,,,,,,,,,,5977e3867412f8000194e1fe,2020-08-10_10h07.59.470,lexical_decision_task_MP,2020.1.3,Win32,60,m,1,0.36734,,,,,,,,0.36734,1,,,,,,203,WORD,"ID",33,phrase,PHRASE,m,,,,,,-0.027777765,-0.394444458,0,0,0,,0,237,237,22,1,
,,,,,,,,,,,,,,,,,,5977e3867412f8000194e1fe,2020-08-10_10h07.59.470,lexical_decision_task_MP,2020.1.3,Win32,60,m,1,0.364935,,,,,,,,0.364935,1,,,,,,15,WORD,"ID",50,amount,AMOUNT,m,,,,,,-0.027777765,-0.394444458,0,0,0,,0,238,238,74,1,
,,,,,,,,,,,,,,,,,,5977e3867412f8000194e1fe,2020-08-10_10h07.59.470,lexical_decision_task_MP,2020.1.3,Win32,60,m,1,0.530425,,,,,,,,0.530425,1,,,,,,216,WORD,"ID",33,behalf,BEHALF,m,,,,,,-0.027777765,-0.394444458,0,0,0,,0,239,239,35,1,
,,,,,,,,,,,,,,,,,,5977e3867412f8000194e1fe,2020-08-10_10h07.59.470,lexical_decision_task_MP,2020.1.3,Win32,60,m,1,0.43694,,,,,,,,0.43694,1,,,,,,63,WORD,UN,33,throne,LAUNCH,m,,,,,,-0.027777765,-0.394444458,0,0,0,,0,240,240,122,1,
,,,,,,,,,,,,,,,,,,5977e3867412f8000194e1fe,2020-08-10_10h07.59.470,lexical_decision_task_MP,2020.1.3,Win32,60,z,1,0.5656,,,,,,,,0.5656,1,,,,,,352,NW,UN,33,clurey,TRINGE,z,,,,,,-0.027777765,-0.394444458,0,0,0,space,0,241,241,411,1,122.234345
,,,,,,,,,,,,,,,,,,5977e3867412f8000194e1fe,2020-08-10_10h07.59.470,lexical_decision_task_MP,2020.1.3,Win32,60,m,1,1.41426,,,,,,,,1.41426,1,,,,,,224,WORD,"ID",33,period,PERIOD,m,,,,,,-0.027777765,-0.394444458,0,0,0,,0,242,242,43,1,
,,,,,,,,,,,,,,,,,,5977e3867412f8000194e1fe,2020-08-10_10h07.59.470,lexical_decision_task_MP,2020.1.3,Win32,60,z,1,0.55006,,,,,,,,0.55006,1,,,,,,287,NW,"ID",50,nymbel,NYMBEL,z,,,,,,-0.027777765,-0.394444458,0,0,0,,0,243,243,346,1,
,,,,,,,,,,,,,,,,,,5977e3867412f8000194e1fe,2020-08-10_10h07.59.470,lexical_decision_task_MP,2020.1.3,Win32,60,z,1,0.49542,,,,,,,,0.49542,1,,,,,,290,NW,"ID",50,splino,SPLINO,z,,,,,,-0.027777765,-0.394444458,0,0,0,,0,244,244,349,1,
,,,,,,,,,,,,,,,,,,5977e3867412f8000194e1fe,2020-08-10_10h07.59.470,lexical_decision_task_MP,2020.1.3,Win32,60,m,1,0.49167,,,,,,,,0.49167,1,,,,,,42,WORD,"ID",50,chapel,CHAPEL,m,,,,,,-0.027777765,-0.394444458,0,0,0,,0,245,245,101,1,
,,,,,,,,,,,,,,,,,,5977e3867412f8000194e1fe,2020-08-10_10h07.59.470,lexical_decision_task_MP,2020.1.3,Win32,60,z,1,0.45459,,,,,,,,0.45459,1,,,,,,398,NW,UN,50,fouret,BLUNDE,z,,,,,,-0.027777765,-0.394444458,0,0,0,,0,246,246,457,1,
,,,,,,,,,,,,,,,,,,5977e3867412f8000194e1fe,2020-08-10_10h07.59.470,lexical_decision_task_MP,2020.1.3,Win32,60,m,1,0.51918,,,,,,,,0.51918,1,,,,,,64,WORD,UN,33,symbol,THRONE,m,,,,,,-0.027777765,-0.394444458,0,0,0,,0,247,247,123,1,
,,,,,,,,,,,,,,,,,,5977e3867412f8000194e1fe,2020-08-10_10h07.59.470,lexical_decision_task_MP,2020.1.3,Win32,60,z,1,0.53151,,,,,,,,0.53151,1,,,,,,462,NW,"ID",33,absult,ABSULT,z,,,,,,-0.027777765,-0.394444458,0,0,0,,0,248,248,281,1,
,,,,,,,,,,,,,,,,,,5977e3867412f8000194e1fe,2020-08-10_10h07.59.470,lexical_decision_task_MP,2020.1.3,Win32,60,z,1,0.520045,,,,,,,,0.520045,1,,,,,,395,NW,UN,50,flengy,COLURY,z,,,,,,-0.027777765,-0.394444458,0,0,0,,0,249,249,454,1,
,,,,,,,,,,,,,,,,,,5977e3867412f8000194e1fe,2020-08-10_10h07.59.470,lexical_decision_task_MP,2020.1.3,Win32,60,m,1,0.45786,,,,,,,,0.45786,1,,,,,,143,WORD,UN,50,sponge,REASON,m,,,,,,-0.027777765,-0.394444458,0,0,0,,0,250,250,202,1,
,,,,,,,,,,,,,,,,,,5977e3867412f8000194e1fe,2020-08-10_10h07.59.470,lexical_decision_task_MP,2020.1.3,Win32,60,m,1,0.451835,,,,,,,,0.451835,1,,,,,,93,WORD,UN,33,travel,PUBLIC,m,,,,,,-0.027777765,-0.394444458,0,0,0,,0,251,251,152,1,
,,,,,,,,,,,,,,,,,,5977e3867412f8000194e1fe,2020-08-10_10h07.59.470,lexical_decision_task_MP,2020.1.3,Win32,60,m,1,0.482885,,,,,,,,0.482885,1,,,,,,188,WORD,"ID",33,social,SOCIAL,m,,,,,,-0.027777765,-0.394444458,0,0,0,,0,252,252,7,1,
,,,,,,,,,,,,,,,,,,5977e3867412f8000194e1fe,2020-08-10_10h07.59.470,lexical_decision_task_MP,2020.1.3,Win32,60,z,1,0.47316,,,,,,,,0.47316,1,,,,,,313,NW,UN,33,sprine,PAURSE,z,,,,,,-0.027777765,-0.394444458,0,0,0,,0,253,253,372,1,
,,,,,,,,,,,,,,,,,,5977e3867412f8000194e1fe,2020-08-10_10h07.59.470,lexical_decision_task_MP,2020.1.3,Win32,60,m,1,0.382455,,,,,,,,0.382455,1,,,,,,53,WORD,"ID",50,police,POLICE,m,,,,,,-0.027777765,-0.394444458,0,0,0,,0,254,254,112,1,
,,,,,,,,,,,,,,,,,,5977e3867412f8000194e1fe,2020-08-10_10h07.59.470,lexical_decision_task_MP,2020.1.3,Win32,60,m,1,0.53212,,,,,,,,0.53212,1,,,,,,155,WORD,UN,50,cradle,LIZARD,m,,,,,,-0.027777765,-0.394444458,0,0,0,,0,255,255,214,1,
,,,,,,,,,,,,,,,,,,5977e3867412f8000194e1fe,2020-08-10_10h07.59.470,lexical_decision_task_MP,2020.1.3,Win32,60,z,0,0.50363,,,,,,,,0.50363,0,,,,,,141,WORD,UN,50,spruce,ORPHAN,m,,,,,,-0.027777765,-0.394444458,0,0,0,,0,256,256,200,1,
,,,,,,,,,,,,,,,,,,5977e3867412f8000194e1fe,2020-08-10_10h07.59.470,lexical_decision_task_MP,2020.1.3,Win32,60,m,1,0.42821,,,,,,,,0.42821,1,,,,,,60,WORD,"ID",50,pencil,PENCIL,m,,,,,,-0.027777765,-0.394444458,0,0,0,,0,257,257,119,1,
,,,,,,,,,,,,,,,,,,5977e3867412f8000194e1fe,2020-08-10_10h07.59.470,lexical_decision_task_MP,2020.1.3,Win32,60,m,1,0.512565,,,,,,,,0.512565,1,,,,,,84,WORD,UN,33,strand,MORTAL,m,,,,,,-0.027777765,-0.394444458,0,0,0,,0,258,258,143,1,
,,,,,,,,,,,,,,,,,,5977e3867412f8000194e1fe,2020-08-10_10h07.59.470,lexical_decision_task_MP,2020.1.3,Win32,60,m,1,0.548225,,,,,,,,0.548225,1,,,,,,44,WORD,"ID",50,danger,DANGER,m,,,,,,-0.027777765,-0.394444458,0,0,0,,0,259,259,103,1,
,,,,,,,,,,,,,,,,,,5977e3867412f8000194e1fe,2020-08-10_10h07.59.470,lexical_decision_task_MP,2020.1.3,Win32,60,z,1,0.603845,,,,,,,,0.603845,1,,,,,,335,NW,UN,33,ghodus,DESION,z,,,,,,-0.027777765,-0.394444458,0,0,0,,0,260,260,394,1,
,,,,,,,,,,,,,,,,,,5977e3867412f8000194e1fe,2020-08-10_10h07.59.470,lexical_decision_task_MP,2020.1.3,Win32,60,m,1,0.399725,,,,,,,,0.399725,1,,,,,,51,WORD,"ID",50,hungry,HUNGRY,m,,,,,,-0.027777765,-0.394444458,0,0,0,,0,261,261,110,1,
,,,,,,,,,,,,,,,,,,5977e3867412f8000194e1fe,2020-08-10_10h07.59.470,lexical_decision_task_MP,2020.1.3,Win32,60,m,1,0.485,,,,,,,,0.485,1,,,,,,13,WORD,"ID",50,strive,STRIVE,m,,,,,,-0.027777765,-0.394444458,0,0,0,,0,262,262,72,1,
,,,,,,,,,,,,,,,,,,5977e3867412f8000194e1fe,2020-08-10_10h07.59.470,lexical_decision_task_MP,2020.1.3,Win32,60,m,1,0.515335,,,,,,,,0.515335,1,,,,,,105,WORD,UN,33,ransom,NUMBER,m,,,,,,-0.027777765,-0.394444458,0,0,0,,0,263,263,164,1,
,,,,,,,,,,,,,,,,,,5977e3867412f8000194e1fe,2020-08-10_10h07.59.470,lexical_decision_task_MP,2020.1.3,Win32,60,m,1,0.45971,,,,,,,,0.45971,1,,,,,,34,WORD,"ID",50,jungle,JUNGLE,m,,,,,,-0.027777765,-0.394444458,0,0,0,,0,264,264,93,1,
,,,,,,,,,,,,,,,,,,5977e3867412f8000194e1fe,2020-08-10_10h07.59.470,lexical_decision_task_MP,2020.1.3,Win32,60,m,1,0.53492,,,,,,,,0.53492,1,,,,,,18,WORD,"ID",50,humble,HUMBLE,m,,,,,,-0.027777765,-0.394444458,0,0,0,,0,265,265,77,1,
,,,,,,,,,,,,,,,,,,5977e3867412f8000194e1fe,2020-08-10_10h07.59.470,lexical_decision_task_MP,2020.1.3,Win32,60,z,1,0.61035,,,,,,,,0.61035,1,,,,,,265,NW,"ID",50,distar,DISTAR,z,,,,,,-0.027777765,-0.394444458,0,0,0,,0,266,266,324,1,
,,,,,,,,,,,,,,,,,,5977e3867412f8000194e1fe,2020-08-10_10h07.59.470,lexical_decision_task_MP,2020.1.3,Win32,60,m,1,0.495435,,,,,,,,0.495435,1,,,,,,40,WORD,"ID",50,convey,CONVEY,m,,,,,,-0.027777765,-0.394444458,0,0,0,,0,267,267,99,1,
,,,,,,,,,,,,,,,,,,5977e3867412f8000194e1fe,2020-08-10_10h07.59.470,lexical_decision_task_MP,2020.1.3,Win32,60,z,1,0.640445,,,,,,,,0.640445,1,,,,,,330,NW,UN,33,gilfew,KENSOM,z,,,,,,-0.027777765,-0.394444458,0,0,0,,0,268,268,389,1,
,,,,,,,,,,,,,,,,,,5977e3867412f8000194e1fe,2020-08-10_10h07.59.470,lexical_decision_task_MP,2020.1.3,Win32,60,z,1,0.473135,,,,,,,,0.473135,1,,,,,,403,NW,UN,50,cluirm,BRUATS,z,,,,,,-0.027777765,-0.394444458,0,0,0,,0,269,269,462,1,
,,,,,,,,,,,,,,,,,,5977e3867412f8000194e1fe,2020-08-10_10h07.59.470,lexical_decision_task_MP,2020.1.3,Win32,60,z,1,0.57017,,,,,,,,0.57017,1,,,,,,255,NW,"ID",50,apight,APIGHT,z,,,,,,-0.027777765,-0.394444458,0,0,0,,0,270,270,314,1,
,,,,,,,,,,,,,,,,,,5977e3867412f8000194e1fe,2020-08-10_10h07.59.470,lexical_decision_task_MP,2020.1.3,Win32,60,z,1,0.506155,,,,,,,,0.506155,1,,,,,,449,NW,"ID",33,brunge,BRUNGE,z,,,,,,-0.027777765,-0.394444458,0,0,0,,0,271,271,268,1,
,,,,,,,,,,,,,,,,,,5977e3867412f8000194e1fe,2020-08-10_10h07.59.470,lexical_decision_task_MP,2020.1.3,Win32,60,z,1,0.73201,,,,,,,,0.73201,1,,,,,,372,NW,UN,50,bigent,RAMILY,z,,,,,,-0.027777765,-0.394444458,0,0,0,,0,272,272,431,1,
,,,,,,,,,,,,,,,,,,5977e3867412f8000194e1fe,2020-08-10_10h07.59.470,lexical_decision_task_MP,2020.1.3,Win32,60,z,0,0.45314,,,,,,,,0.45314,0,,,,,,180,WORD,UN,50,thrive,SILENT,m,,,,,,-0.027777765,-0.394444458,0,0,0,,0,273,273,239,1,
,,,,,,,,,,,,,,,,,,5977e3867412f8000194e1fe,2020-08-10_10h07.59.470,lexical_decision_task_MP,2020.1.3,Win32,60,z,1,1.086455,,,,,,,,1.086455,1,,,,,,256,NW,"ID",50,inlors,INLORS,z,,,,,,-0.027777765,-0.394444458,0,0,0,,0,274,274,315,1,
,,,,,,,,,,,,,,,,,,5977e3867412f8000194e1fe,2020-08-10_10h07.59.470,lexical_decision_task_MP,2020.1.3,Win32,60,m,1,1.326095,,,,,,,,1.326095,1,,,,,,207,WORD,"ID",33,wreath,WREATH,m,,,,,,-0.027777765,-0.394444458,0,0,0,,0,275,275,26,1,
,,,,,,,,,,,,,,,,,,5977e3867412f8000194e1fe,2020-08-10_10h07.59.470,lexical_decision_task_MP,2020.1.3,Win32,60,m,1,0.45254,,,,,,,,0.45254,1,,,,,,98,WORD,UN,33,fluent,BELONG,m,,,,,,-0.027777765,-0.394444458,0,0,0,,0,276,276,157,1,
,,,,,,,,,,,,,,,,,,5977e3867412f8000194e1fe,2020-08-10_10h07.59.470,lexical_decision_task_MP,2020.1.3,Win32,60,m,1,0.58619,,,,,,,,0.58619,1,,,,,,232,WORD,"ID",33,inject,INJECT,m,,,,,,-0.027777765,-0.394444458,0,0,0,,0,277,277,51,1,
,,,,,,,,,,,,,,,,,,5977e3867412f8000194e1fe,2020-08-10_10h07.59.470,lexical_decision_task_MP,2020.1.3,Win32,60,z,1,1.895135,,,,,,,,1.895135,1,,,,,,318,NW,UN,33,zomber,REAGLY,z,,,,,,-0.027777765,-0.394444458,0,0,0,,0,278,278,377,1,
,,,,,,,,,,,,,,,,,,5977e3867412f8000194e1fe,2020-08-10_10h07.59.470,lexical_decision_task_MP,2020.1.3,Win32,60,m,1,0.754435,,,,,,,,0.754435,1,,,,,,230,WORD,"ID",33,fringe,FRINGE,m,,,,,,-0.027777765,-0.394444458,0,0,0,,0,279,279,49,1,
,,,,,,,,,,,,,,,,,,5977e3867412f8000194e1fe,2020-08-10_10h07.59.470,lexical_decision_task_MP,2020.1.3,Win32,60,m,1,0.722285,,,,,,,,0.722285,1,,,,,,76,WORD,UN,33,racket,EXOTIC,m,,,,,,-0.027777765,-0.394444458,0,0,0,,0,280,280,135,1,
,,,,,,,,,,,,,,,,,,5977e3867412f8000194e1fe,2020-08-10_10h07.59.470,lexical_decision_task_MP,2020.1.3,Win32,60,z,1,0.61599,,,,,,,,0.61599,1,,,,,,360,NW,UN,33,fainch,DESORY,z,,,,,,-0.027777765,-0.394444458,0,0,0,,0,281,281,419,1,
,,,,,,,,,,,,,,,,,,5977e3867412f8000194e1fe,2020-08-10_10h07.59.470,lexical_decision_task_MP,2020.1.3,Win32,60,m,1,0.636765,,,,,,,,0.636765,1,,,,,,218,WORD,"ID",33,shrink,SHRINK,m,,,,,,-0.027777765,-0.394444458,0,0,0,,0,282,282,37,1,
,,,,,,,,,,,,,,,,,,5977e3867412f8000194e1fe,2020-08-10_10h07.59.470,lexical_decision_task_MP,2020.1.3,Win32,60,m,0,0.922855,,,,,,,,0.922855,0,,,,,,432,NW,"ID",33,lunker,LUNKER,z,,,,,,-0.027777765,-0.394444458,0,0,0,,0,283,283,251,1,
,,,,,,,,,,,,,,,,,,5977e3867412f8000194e1fe,2020-08-10_10h07.59.470,lexical_decision_task_MP,2020.1.3,Win32,60,m,1,0.470905,,,,,,,,0.470905,1,,,,,,78,WORD,UN,33,theory,COLUMN,m,,,,,,-0.027777765,-0.394444458,0,0,0,,0,284,284,137,1,
,,,,,,,,,,,,,,,,,,5977e3867412f8000194e1fe,2020-08-10_10h07.59.470,lexical_decision_task_MP,2020.1.3,Win32,60,m,1,0.563395,,,,,,,,0.563395,1,,,,,,90,WORD,UN,33,expand,RELISH,m,,,,,,-0.027777765,-0.394444458,0,0,0,,0,285,285,149,1,
,,,,,,,,,,,,,,,,,,5977e3867412f8000194e1fe,2020-08-10_10h07.59.470,lexical_decision_task_MP,2020.1.3,Win32,60,m,1,0.56491,,,,,,,,0.56491,1,,,,,,127,WORD,UN,50,senior,CASTLE,m,,,,,,-0.027777765,-0.394444458,0,0,0,,0,286,286,186,1,
,,,,,,,,,,,,,,,,,,5977e3867412f8000194e1fe,2020-08-10_10h07.59.470,lexical_decision_task_MP,2020.1.3,Win32,60,z,1,0.52286,,,,,,,,0.52286,1,,,,,,371,NW,UN,50,ramily,GEILOY,z,,,,,,-0.027777765,-0.394444458,0,0,0,,0,287,287,430,1,
,,,,,,,,,,,,,,,,,,5977e3867412f8000194e1fe,2020-08-10_10h07.59.470,lexical_decision_task_MP,2020.1.3,Win32,60,z,1,0.507595,,,,,,,,0.507595,1,,,,,,288,NW,"ID",50,yaceup,YACEUP,z,,,,,,-0.027777765,-0.394444458,0,0,0,,0,288,288,347,1,
,,,,,,,,,,,,,,,,,,5977e3867412f8000194e1fe,2020-08-10_10h07.59.470,lexical_decision_task_MP,2020.1.3,Win32,60,z,1,0.53361,,,,,,,,0.53361,1,,,,,,274,NW,"ID",50,fumblo,FUMBLO,z,,,,,,-0.027777765,-0.394444458,0,0,0,,0,289,289,333,1,
,,,,,,,,,,,,,,,,,,5977e3867412f8000194e1fe,2020-08-10_10h07.59.470,lexical_decision_task_MP,2020.1.3,Win32,60,m,1,0.52993,,,,,,,,0.52993,1,,,,,,159,WORD,UN,50,violet,DETAIL,m,,,,,,-0.027777765,-0.394444458,0,0,0,,0,290,290,218,1,
,,,,,,,,,,,,,,,,,,5977e3867412f8000194e1fe,2020-08-10_10h07.59.470,lexical_decision_task_MP,2020.1.3,Win32,60,z,1,0.595205,,,,,,,,0.595205,1,,,,,,454,NW,"ID",33,scouge,SCOUGE,z,,,,,,-0.027777765,-0.394444458,0,0,0,,0,291,291,273,1,
,,,,,,,,,,,,,,,,,,5977e3867412f8000194e1fe,2020-08-10_10h07.59.470,lexical_decision_task_MP,2020.1.3,Win32,60,m,1,0.498745,,,,,,,,0.498745,1,,,,,,38,WORD,"ID",50,powder,POWDER,m,,,,,,-0.027777765,-0.394444458,0,0,0,,0,292,292,97,1,
,,,,,,,,,,,,,,,,,,5977e3867412f8000194e1fe,2020-08-10_10h07.59.470,lexical_decision_task_MP,2020.1.3,Win32,60,m,1,0.53789,,,,,,,,0.53789,1,,,,,,130,WORD,UN,50,quench,STUPID,m,,,,,,-0.027777765,-0.394444458,0,0,0,,0,293,293,189,1,
,,,,,,,,,,,,,,,,,,5977e3867412f8000194e1fe,2020-08-10_10h07.59.470,lexical_decision_task_MP,2020.1.3,Win32,60,z,1,0.56976,,,,,,,,0.56976,1,,,,,,377,NW,UN,50,shrile,INJORE,z,,,,,,-0.027777765,-0.394444458,0,0,0,,0,294,294,436,1,
,,,,,,,,,,,,,,,,,,5977e3867412f8000194e1fe,2020-08-10_10h07.59.470,lexical_decision_task_MP,2020.1.3,Win32,60,z,1,0.554155,,,,,,,,0.554155,1,,,,,,299,NW,"ID",50,sturch,STURCH,z,,,,,,-0.027777765,-0.394444458,0,0,0,,0,295,295,358,1,
,,,,,,,,,,,,,,,,,,5977e3867412f8000194e1fe,2020-08-10_10h07.59.470,lexical_decision_task_MP,2020.1.3,Win32,60,m,1,0.55177,,,,,,,,0.55177,1,,,,,,10,WORD,"ID",50,ethnic,ETHNIC,m,,,,,,-0.027777765,-0.394444458,0,0,0,,0,296,296,69,1,
,,,,,,,,,,,,,,,,,,5977e3867412f8000194e1fe,2020-08-10_10h07.59.470,lexical_decision_task_MP,2020.1.3,Win32,60,m,1,0.542115,,,,,,,,0.542115,1,,,,,,162,WORD,UN,50,string,CANDLE,m,,,,,,-0.027777765,-0.394444458,0,0,0,,0,297,297,221,1,
,,,,,,,,,,,,,,,,,,5977e3867412f8000194e1fe,2020-08-10_10h07.59.470,lexical_decision_task_MP,2020.1.3,Win32,60,m,1,0.60332,,,,,,,,0.60332,1,,,,,,71,WORD,UN,33,bright,GARDEN,m,,,,,,-0.027777765,-0.394444458,0,0,0,,0,298,298,130,1,
,,,,,,,,,,,,,,,,,,5977e3867412f8000194e1fe,2020-08-10_10h07.59.470,lexical_decision_task_MP,2020.1.3,Win32,60,m,1,0.786815,,,,,,,,0.786815,1,,,,,,220,WORD,"ID",33,voyage,VOYAGE,m,,,,,,-0.027777765,-0.394444458,0,0,0,,0,299,299,39,1,
,,,,,,,,,,,,,,,,,,5977e3867412f8000194e1fe,2020-08-10_10h07.59.470,lexical_decision_task_MP,2020.1.3,Win32,60,z,0,0.580065,,,,,,,,0.580065,0,,,,,,116,WORD,UN,33,branch,TUMBLE,m,,,,,,-0.027777765,-0.394444458,0,0,0,,0,300,300,175,1,
,,,,,,,,,,,,,,,,,,5977e3867412f8000194e1fe,2020-08-10_10h07.59.470,lexical_decision_task_MP,2020.1.3,Win32,60,z,1,0.530305,,,,,,,,0.530305,1,,,,,,278,NW,"ID",50,unighs,UNIGHS,z,,,,,,-0.027777765,-0.394444458,0,0,0,,0,301,301,337,1,
,,,,,,,,,,,,,,,,,,5977e3867412f8000194e1fe,2020-08-10_10h07.59.470,lexical_decision_task_MP,2020.1.3,Win32,60,m,1,0.54852,,,,,,,,0.54852,1,,,,,,190,WORD,"ID",33,backup,BACKUP,m,,,,,,-0.027777765,-0.394444458,0,0,0,,0,302,302,9,1,
,,,,,,,,,,,,,,,,,,5977e3867412f8000194e1fe,2020-08-10_10h07.59.470,lexical_decision_task_MP,2020.1.3,Win32,60,m,0,0.53235,,,,,,,,0.53235,0,,,,,,355,NW,UN,33,othnis,ZINGLY,z,,,,,,-0.027777765,-0.394444458,0,0,0,,0,303,303,414,1,
,,,,,,,,,,,,,,,,,,5977e3867412f8000194e1fe,2020-08-10_10h07.59.470,lexical_decision_task_MP,2020.1.3,Win32,60,z,1,0.51414,,,,,,,,0.51414,1,,,,,,479,NW,"ID",33,lobush,LOBUSH,z,,,,,,-0.027777765,-0.394444458,0,0,0,,0,304,304,298,1,
,,,,,,,,,,,,,,,,,,5977e3867412f8000194e1fe,2020-08-10_10h07.59.470,lexical_decision_task_MP,2020.1.3,Win32,60,z,1,0.54846,,,,,,,,0.54846,1,,,,,,269,NW,"ID",50,orchet,ORCHET,z,,,,,,-0.027777765,-0.394444458,0,0,0,,0,305,305,328,1,
,,,,,,,,,,,,,,,,,,5977e3867412f8000194e1fe,2020-08-10_10h07.59.470,lexical_decision_task_MP,2020.1.3,Win32,60,m,1,0.55134,,,,,,,,0.55134,1,,,,,,77,WORD,UN,33,column,RACKET,m,,,,,,-0.027777765,-0.394444458,0,0,0,,0,306,306,136,1,
,,,,,,,,,,,,,,,,,,5977e3867412f8000194e1fe,2020-08-10_10h07.59.470,lexical_decision_task_MP,2020.1.3,Win32,60,m,1,0.685755,,,,,,,,0.685755,1,,,,,,114,WORD,UN,33,guitar,PLACID,m,,,,,,-0.027777765,-0.394444458,0,0,0,,0,307,307,173,1,
,,,,,,,,,,,,,,,,,,5977e3867412f8000194e1fe,2020-08-10_10h07.59.470,lexical_decision_task_MP,2020.1.3,Win32,60,m,1,0.791025,,,,,,,,0.791025,1,,,,,,213,WORD,"ID",33,squeal,SQUEAL,m,,,,,,-0.027777765,-0.394444458,0,0,0,,0,308,308,32,1,
,,,,,,,,,,,,,,,,,,5977e3867412f8000194e1fe,2020-08-10_10h07.59.470,lexical_decision_task_MP,2020.1.3,Win32,60,z,1,0.56762,,,,,,,,0.56762,1,,,,,,289,NW,"ID",50,starby,STARBY,z,,,,,,-0.027777765,-0.394444458,0,0,0,,0,309,309,348,1,
,,,,,,,,,,,,,,,,,,5977e3867412f8000194e1fe,2020-08-10_10h07.59.470,lexical_decision_task_MP,2020.1.3,Win32,60,z,1,0.52231,,,,,,,,0.52231,1,,,,,,317,NW,UN,33,reagly,WORBAL,z,,,,,,-0.027777765,-0.394444458,0,0,0,,0,310,310,376,1,
,,,,,,,,,,,,,,,,,,5977e3867412f8000194e1fe,2020-08-10_10h07.59.470,lexical_decision_task_MP,2020.1.3,Win32,60,z,1,0.537025,,,,,,,,0.537025,1,,,,,,244,NW,"ID",50,eatric,EATRIC,z,,,,,,-0.027777765,-0.394444458,0,0,0,,0,311,311,303,1,
,,,,,,,,,,,,,,,,,,5977e3867412f8000194e1fe,2020-08-10_10h07.59.470,lexical_decision_task_MP,2020.1.3,Win32,60,m,1,0.652215,,,,,,,,0.652215,1,,,,,,59,WORD,"ID",50,splint,SPLINT,m,,,,,,-0.027777765,-0.394444458,0,0,0,,0,312,312,118,1,
,,,,,,,,,,,,,,,,,,5977e3867412f8000194e1fe,2020-08-10_10h07.59.470,lexical_decision_task_MP,2020.1.3,Win32,60,z,1,0.58907,,,,,,,,0.58907,1,,,,,,452,NW,"ID",33,surden,SURDEN,z,,,,,,-0.027777765,-0.394444458,0,0,0,,0,313,313,271,1,
,,,,,,,,,,,,,,,,,,5977e3867412f8000194e1fe,2020-08-10_10h07.59.470,lexical_decision_task_MP,2020.1.3,Win32,60,z,1,0.438245,,,,,,,,0.438245,1,,,,,,430,NW,"ID",33,caroey,CAROEY,z,,,,,,-0.027777765,-0.394444458,0,0,0,,0,314,314,249,1,
,,,,,,,,,,,,,,,,,,5977e3867412f8000194e1fe,2020-08-10_10h07.59.470,lexical_decision_task_MP,2020.1.3,Win32,60,m,1,0.43658,,,,,,,,0.43658,1,,,,,,201,WORD,"ID",33,admire,ADMIRE,m,,,,,,-0.027777765,-0.394444458,0,0,0,,0,315,315,20,1,
,,,,,,,,,,,,,,,,,,5977e3867412f8000194e1fe,2020-08-10_10h07.59.470,lexical_decision_task_MP,2020.1.3,Win32,60,m,1,0.48603,,,,,,,,0.48603,1,,,,,,87,WORD,UN,33,sprawl,FILTER,m,,,,,,-0.027777765,-0.394444458,0,0,0,,0,316,316,146,1,
,,,,,,,,,,,,,,,,,,5977e3867412f8000194e1fe,2020-08-10_10h07.59.470,lexical_decision_task_MP,2020.1.3,Win32,60,m,1,0.466495,,,,,,,,0.466495,1,,,,,,214,WORD,"ID",33,intake,INTAKE,m,,,,,,-0.027777765,-0.394444458,0,0,0,,0,317,317,33,1,
,,,,,,,,,,,,,,,,,,5977e3867412f8000194e1fe,2020-08-10_10h07.59.470,lexical_decision_task_MP,2020.1.3,Win32,60,m,1,0.474045,,,,,,,,0.474045,1,,,,,,36,WORD,"ID",50,vanish,VANISH,m,,,,,,-0.027777765,-0.394444458,0,0,0,,0,318,318,95,1,
,,,,,,,,,,,,,,,,,,5977e3867412f8000194e1fe,2020-08-10_10h07.59.470,lexical_decision_task_MP,2020.1.3,Win32,60,m,1,0.48178,,,,,,,,0.48178,1,,,,,,205,WORD,"ID",33,lounge,LOUNGE,m,,,,,,-0.027777765,-0.394444458,0,0,0,,0,319,319,24,1,
,,,,,,,,,,,,,,,,,,5977e3867412f8000194e1fe,2020-08-10_10h07.59.470,lexical_decision_task_MP,2020.1.3,Win32,60,m,1,0.48126,,,,,,,,0.48126,1,,,,,,69,WORD,UN,33,square,PLENTY,m,,,,,,-0.027777765,-0.394444458,0,0,0,,0,320,320,128,1,
,,,,,,,,,,,,,,,,,,5977e3867412f8000194e1fe,2020-08-10_10h07.59.470,lexical_decision_task_MP,2020.1.3,Win32,60,z,1,0.54791,,,,,,,,0.54791,1,,,,,,423,NW,"ID",33,streld,STRELD,z,,,,,,-0.027777765,-0.394444458,0,0,0,,0,321,321,242,1,
,,,,,,,,,,,,,,,,,,5977e3867412f8000194e1fe,2020-08-10_10h07.59.470,lexical_decision_task_MP,2020.1.3,Win32,60,m,1,0.55321,,,,,,,,0.55321,1,,,,,,237,WORD,"ID",33,poster,POSTER,m,,,,,,-0.027777765,-0.394444458,0,0,0,,0,322,322,56,1,
,,,,,,,,,,,,,,,,,,5977e3867412f8000194e1fe,2020-08-10_10h07.59.470,lexical_decision_task_MP,2020.1.3,Win32,60,m,1,0.497375,,,,,,,,0.497375,1,,,,,,124,WORD,UN,50,nickel,BLOUSE,m,,,,,,-0.027777765,-0.394444458,0,0,0,,0,323,323,183,1,
,,,,,,,,,,,,,,,,,,5977e3867412f8000194e1fe,2020-08-10_10h07.59.470,lexical_decision_task_MP,2020.1.3,Win32,60,m,1,0.448245,,,,,,,,0.448245,1,,,,,,45,WORD,"ID",50,clergy,CLERGY,m,,,,,,-0.027777765,-0.394444458,0,0,0,,0,324,324,104,1,
,,,,,,,,,,,,,,,,,,5977e3867412f8000194e1fe,2020-08-10_10h07.59.470,lexical_decision_task_MP,2020.1.3,Win32,60,m,1,0.45847,,,,,,,,0.45847,1,,,,,,170,WORD,UN,50,dragon,POUNCE,m,,,,,,-0.027777765,-0.394444458,0,0,0,,0,325,325,229,1,
,,,,,,,,,,,,,,,,,,5977e3867412f8000194e1fe,2020-08-10_10h07.59.470,lexical_decision_task_MP,2020.1.3,Win32,60,z,1,0.49639,,,,,,,,0.49639,1,,,,,,245,NW,"ID",50,anougs,ANOUGS,z,,,,,,-0.027777765,-0.394444458,0,0,0,,0,326,326,304,1,
,,,,,,,,,,,,,,,,,,5977e3867412f8000194e1fe,2020-08-10_10h07.59.470,lexical_decision_task_MP,2020.1.3,Win32,60,z,1,0.56864,,,,,,,,0.56864,1,,,,,,409,NW,UN,50,tunory,ELOPIA,z,,,,,,-0.027777765,-0.394444458,0,0,0,,0,327,327,468,1,
,,,,,,,,,,,,,,,,,,5977e3867412f8000194e1fe,2020-08-10_10h07.59.470,lexical_decision_task_MP,2020.1.3,Win32,60,m,1,0.50094,,,,,,,,0.50094,1,,,,,,181,WORD,"ID",33,glance,GLANCE,m,,,,,,-0.027777765,-0.394444458,0,0,0,,0,328,328,0,1,
,,,,,,,,,,,,,,,,,,5977e3867412f8000194e1fe,2020-08-10_10h07.59.470,lexical_decision_task_MP,2020.1.3,Win32,60,m,1,0.4621,,,,,,,,0.4621,1,,,,,,22,WORD,"ID",50,jockey,JOCKEY,m,,,,,,-0.027777765,-0.394444458,0,0,0,,0,329,329,81,1,
,,,,,,,,,,,,,,,,,,5977e3867412f8000194e1fe,2020-08-10_10h07.59.470,lexical_decision_task_MP,2020.1.3,Win32,60,m,1,0.486085,,,,,,,,0.486085,1,,,,,,32,WORD,"ID",50,buckle,BUCKLE,m,,,,,,-0.027777765,-0.394444458,0,0,0,,0,330,330,91,1,
,,,,,,,,,,,,,,,,,,5977e3867412f8000194e1fe,2020-08-10_10h07.59.470,lexical_decision_task_MP,2020.1.3,Win32,60,z,1,0.45621,,,,,,,,0.45621,1,,,,,,480,NW,"ID",33,robuly,ROBULY,z,,,,,,-0.027777765,-0.394444458,0,0,0,,0,331,331,299,1,
,,,,,,,,,,,,,,,,,,5977e3867412f8000194e1fe,2020-08-10_10h07.59.470,lexical_decision_task_MP,2020.1.3,Win32,60,z,1,0.45116,,,,,,,,0.45116,1,,,,,,262,NW,"ID",50,quilew,QUILEW,z,,,,,,-0.027777765,-0.394444458,0,0,0,,0,332,332,321,1,
,,,,,,,,,,,,,,,,,,5977e3867412f8000194e1fe,2020-08-10_10h07.59.470,lexical_decision_task_MP,2020.1.3,Win32,60,z,1,0.534615,,,,,,,,0.534615,1,,,,,,444,NW,"ID",33,jaunce,JAUNCE,z,,,,,,-0.027777765,-0.394444458,0,0,0,,0,333,333,263,1,
,,,,,,,,,,,,,,,,,,5977e3867412f8000194e1fe,2020-08-10_10h07.59.470,lexical_decision_task_MP,2020.1.3,Win32,60,z,1,0.5693,,,,,,,,0.5693,1,,,,,,368,NW,UN,50,wronch,HORNAL,z,,,,,,-0.027777765,-0.394444458,0,0,0,,0,334,334,427,1,
,,,,,,,,,,,,,,,,,,5977e3867412f8000194e1fe,2020-08-10_10h07.59.470,lexical_decision_task_MP,2020.1.3,Win32,60,z,1,0.53043,,,,,,,,0.53043,1,,,,,,333,NW,UN,33,watmeg,CATRIE,z,,,,,,-0.027777765,-0.394444458,0,0,0,,0,335,335,392,1,
,,,,,,,,,,,,,,,,,,5977e3867412f8000194e1fe,2020-08-10_10h07.59.470,lexical_decision_task_MP,2020.1.3,Win32,60,m,1,0.519695,,,,,,,,0.519695,1,,,,,,82,WORD,UN,33,result,STIGMA,m,,,,,,-0.027777765,-0.394444458,0,0,0,,0,336,336,141,1,
,,,,,,,,,,,,,,,,,,5977e3867412f8000194e1fe,2020-08-10_10h07.59.470,lexical_decision_task_MP,2020.1.3,Win32,60,m,1,0.683085,,,,,,,,0.683085,1,,,,,,115,WORD,UN,33,tumble,GUITAR,m,,,,,,-0.027777765,-0.394444458,0,0,0,,0,337,337,174,1,
,,,,,,,,,,,,,,,,,,5977e3867412f8000194e1fe,2020-08-10_10h07.59.470,lexical_decision_task_MP,2020.1.3,Win32,60,m,1,0.385085,,,,,,,,0.385085,1,,,,,,157,WORD,UN,50,island,DRAGON,m,,,,,,-0.027777765,-0.394444458,0,0,0,,0,338,338,216,1,
,,,,,,,,,,,,,,,,,,5977e3867412f8000194e1fe,2020-08-10_10h07.59.470,lexical_decision_task_MP,2020.1.3,Win32,60,z,1,0.53164,,,,,,,,0.53164,1,,,,,,427,NW,"ID",33,schind,SCHIND,z,,,,,,-0.027777765,-0.394444458,0,0,0,,0,339,339,246,1,
,,,,,,,,,,,,,,,,,,5977e3867412f8000194e1fe,2020-08-10_10h07.59.470,lexical_decision_task_MP,2020.1.3,Win32,60,z,0,0.482815,,,,,,,,0.482815,0,,,,,,4,WORD,"ID",50,trench,TRENCH,m,,,,,,-0.027777765,-0.394444458,0,0,0,,0,340,340,63,1,
,,,,,,,,,,,,,,,,,,5977e3867412f8000194e1fe,2020-08-10_10h07.59.470,lexical_decision_task_MP,2020.1.3,Win32,60,m,1,0.415895,,,,,,,,0.415895,1,,,,,,122,WORD,UN,50,strike,LINGER,m,,,,,,-0.027777765,-0.394444458,0,0,0,,0,341,341,181,1,
,,,,,,,,,,,,,,,,,,5977e3867412f8000194e1fe,2020-08-10_10h07.59.470,lexical_decision_task_MP,2020.1.3,Win32,60,m,1,0.411545,,,,,,,,0.411545,1,,,,,,166,WORD,UN,50,design,STARCH,m,,,,,,-0.027777765,-0.394444458,0,0,0,,0,342,342,225,1,
,,,,,,,,,,,,,,,,,,5977e3867412f8000194e1fe,2020-08-10_10h07.59.470,lexical_decision_task_MP,2020.1.3,Win32,60,z,1,0.531615,,,,,,,,0.531615,1,,,,,,331,NW,UN,33,vangue,GILFEW,z,,,,,,-0.027777765,-0.394444458,0,0,0,,0,343,343,390,1,
,,,,,,,,,,,,,,,,,,5977e3867412f8000194e1fe,2020-08-10_10h07.59.470,lexical_decision_task_MP,2020.1.3,Win32,60,z,1,0.47584,,,,,,,,0.47584,1,,,,,,373,NW,UN,50,sliant,BIGENT,z,,,,,,-0.027777765,-0.394444458,0,0,0,,0,344,344,432,1,
,,,,,,,,,,,,,,,,,,5977e3867412f8000194e1fe,2020-08-10_10h07.59.470,lexical_decision_task_MP,2020.1.3,Win32,60,m,0,0.643515,,,,,,,,0.643515,0,,,,,,260,NW,"ID",50,unject,UNJECT,z,,,,,,-0.027777765,-0.394444458,0,0,0,,0,345,345,319,1,
,,,,,,,,,,,,,,,,,,5977e3867412f8000194e1fe,2020-08-10_10h07.59.470,lexical_decision_task_MP,2020.1.3,Win32,60,m,1,0.476285,,,,,,,,0.476285,1,,,,,,177,WORD,UN,50,inform,ADVENT,m,,,,,,-0.027777765,-0.394444458,0,0,0,,0,346,346,236,1,
,,,,,,,,,,,,,,,,,,5977e3867412f8000194e1fe,2020-08-10_10h07.59.470,lexical_decision_task_MP,2020.1.3,Win32,60,z,1,0.8376,,,,,,,,0.8376,1,,,,,,473,NW,"ID",33,crible,CRIBLE,z,,,,,,-0.027777765,-0.394444458,0,0,0,,0,347,347,292,1,
,,,,,,,,,,,,,,,,,,5977e3867412f8000194e1fe,2020-08-10_10h07.59.470,lexical_decision_task_MP,2020.1.3,Win32,60,m,1,0.503415,,,,,,,,0.503415,1,,,,,,24,WORD,"ID",50,praise,PRAISE,m,,,,,,-0.027777765,-0.394444458,0,0,0,,0,348,348,83,1,
,,,,,,,,,,,,,,,,,,5977e3867412f8000194e1fe,2020-08-10_10h07.59.470,lexical_decision_task_MP,2020.1.3,Win32,60,z,1,0.557935,,,,,,,,0.557935,1,,,,,,347,NW,UN,33,dumple,KERIFT,z,,,,,,-0.027777765,-0.394444458,0,0,0,,0,349,349,406,1,
,,,,,,,,,,,,,,,,,,5977e3867412f8000194e1fe,2020-08-10_10h07.59.470,lexical_decision_task_MP,2020.1.3,Win32,60,z,1,0.472035,,,,,,,,0.472035,1,,,,,,302,NW,UN,33,fiream,MILUER,z,,,,,,-0.027777765,-0.394444458,0,0,0,,0,350,350,361,1,
,,,,,,,,,,,,,,,,,,5977e3867412f8000194e1fe,2020-08-10_10h07.59.470,lexical_decision_task_MP,2020.1.3,Win32,60,z,1,0.506325,,,,,,,,0.506325,1,,,,,,286,NW,"ID",50,reldon,RELDON,z,,,,,,-0.027777765,-0.394444458,0,0,0,,0,351,351,345,1,
,,,,,,,,,,,,,,,,,,5977e3867412f8000194e1fe,2020-08-10_10h07.59.470,lexical_decision_task_MP,2020.1.3,Win32,60,z,1,0.480195,,,,,,,,0.480195,1,,,,,,296,NW,"ID",50,beinch,BEINCH,z,,,,,,-0.027777765,-0.394444458,0,0,0,,0,352,352,355,1,
,,,,,,,,,,,,,,,,,,5977e3867412f8000194e1fe,2020-08-10_10h07.59.470,lexical_decision_task_MP,2020.1.3,Win32,60,z,1,0.47287,,,,,,,,0.47287,1,,,,,,438,NW,"ID",33,baitch,BAITCH,z,,,,,,-0.027777765,-0.394444458,0,0,0,,0,353,353,257,1,
,,,,,,,,,,,,,,,,,,5977e3867412f8000194e1fe,2020-08-10_10h07.59.470,lexical_decision_task_MP,2020.1.3,Win32,60,z,1,0.451525,,,,,,,,0.451525,1,,,,,,401,NW,UN,50,syntic,MUSTIL,z,,,,,,-0.027777765,-0.394444458,0,0,0,,0,354,354,460,1,
,,,,,,,,,,,,,,,,,,5977e3867412f8000194e1fe,2020-08-10_10h07.59.470,lexical_decision_task_MP,2020.1.3,Win32,60,m,1,0.68213,,,,,,,,0.68213,1,,,,,,47,WORD,"ID",50,income,INCOME,m,,,,,,-0.027777765,-0.394444458,0,0,0,,0,355,355,106,1,
,,,,,,,,,,,,,,,,,,5977e3867412f8000194e1fe,2020-08-10_10h07.59.470,lexical_decision_task_MP,2020.1.3,Win32,60,m,1,0.43225,,,,,,,,0.43225,1,,,,,,23,WORD,"ID",50,wealth,WEALTH,m,,,,,,-0.027777765,-0.394444458,0,0,0,,0,356,356,82,1,
,,,,,,,,,,,,,,,,,,5977e3867412f8000194e1fe,2020-08-10_10h07.59.470,lexical_decision_task_MP,2020.1.3,Win32,60,z,1,0.52019,,,,,,,,0.52019,1,,,,,,388,NW,UN,50,witmer,CRAGIN,z,,,,,,-0.027777765,-0.394444458,0,0,0,,0,357,357,447,1,
,,,,,,,,,,,,,,,,,,5977e3867412f8000194e1fe,2020-08-10_10h07.59.470,lexical_decision_task_MP,2020.1.3,Win32,60,z,1,0.43649,,,,,,,,0.43649,1,,,,,,321,NW,UN,33,slanch,MIATOR,z,,,,,,-0.027777765,-0.394444458,0,0,0,,0,358,358,380,1,
,,,,,,,,,,,,,,,,,,5977e3867412f8000194e1fe,2020-08-10_10h07.59.470,lexical_decision_task_MP,2020.1.3,Win32,60,z,1,0.447075,,,,,,,,0.447075,1,,,,,,257,NW,"ID",50,veniod,VENIOD,z,,,,,,-0.027777765,-0.394444458,0,0,0,,0,359,359,316,1,
,,,,,,,,,,,,,,,,,,5977e3867412f8000194e1fe,2020-08-10_10h07.59.470,lexical_decision_task_MP,2020.1.3,Win32,60,z,1,0.34801,,,,,,,,0.34801,1,,,,,,374,NW,UN,50,yorque,SLIANT,z,,,,,,-0.027777765,-0.394444458,0,0,0,,0,360,360,433,1,
,,,,,,,,,,,,,,,,,,5977e3867412f8000194e1fe,2020-08-10_10h07.59.470,lexical_decision_task_MP,2020.1.3,Win32,60,z,1,0.383585,,,,,,,,0.383585,1,,,,,,362,NW,UN,50,breali,TIREAU,z,,,,,,-0.027777765,-0.394444458,0,0,0,,0,361,361,421,1,
,,,,,,,,,,,,,,,,,,5977e3867412f8000194e1fe,2020-08-10_10h07.59.470,lexical_decision_task_MP,2020.1.3,Win32,60,m,1,0.52732,,,,,,,,0.52732,1,,,,,,200,WORD,"ID",33,beacon,BEACON,m,,,,,,-0.027777765,-0.394444458,0,0,0,space,0,362,362,19,1,52.509555
,,,,,,,,,,,,,,,,,,5977e3867412f8000194e1fe,2020-08-10_10h07.59.470,lexical_decision_task_MP,2020.1.3,Win32,60,z,1,0.631995,,,,,,,,0.631995,1,,,,,,264,NW,"ID",50,vackel,VACKEL,z,,,,,,-0.027777765,-0.394444458,0,0,0,,0,363,363,323,1,
,,,,,,,,,,,,,,,,,,5977e3867412f8000194e1fe,2020-08-10_10h07.59.470,lexical_decision_task_MP,2020.1.3,Win32,60,z,1,0.439995,,,,,,,,0.439995,1,,,,,,312,NW,UN,33,paurse,NERAWL,z,,,,,,-0.027777765,-0.394444458,0,0,0,,0,364,364,371,1,
,,,,,,,,,,,,,,,,,,5977e3867412f8000194e1fe,2020-08-10_10h07.59.470,lexical_decision_task_MP,2020.1.3,Win32,60,m,1,0.57085,,,,,,,,0.57085,1,,,,,,88,WORD,UN,33,permit,HUNGER,m,,,,,,-0.027777765,-0.394444458,0,0,0,,0,365,365,147,1,
,,,,,,,,,,,,,,,,,,5977e3867412f8000194e1fe,2020-08-10_10h07.59.470,lexical_decision_task_MP,2020.1.3,Win32,60,m,1,0.625635,,,,,,,,0.625635,1,,,,,,99,WORD,UN,33,carbon,FLUENT,m,,,,,,-0.027777765,-0.394444458,0,0,0,,0,366,366,158,1,
,,,,,,,,,,,,,,,,,,5977e3867412f8000194e1fe,2020-08-10_10h07.59.470,lexical_decision_task_MP,2020.1.3,Win32,60,z,1,0.494285,,,,,,,,0.494285,1,,,,,,276,NW,"ID",50,yarmon,YARMON,z,,,,,,-0.027777765,-0.394444458,0,0,0,,0,367,367,335,1,
,,,,,,,,,,,,,,,,,,5977e3867412f8000194e1fe,2020-08-10_10h07.59.470,lexical_decision_task_MP,2020.1.3,Win32,60,z,1,0.540575,,,,,,,,0.540575,1,,,,,,416,NW,UN,50,earoud,PATHEL,z,,,,,,-0.027777765,-0.394444458,0,0,0,,0,368,368,475,1,
,,,,,,,,,,,,,,,,,,5977e3867412f8000194e1fe,2020-08-10_10h07.59.470,lexical_decision_task_MP,2020.1.3,Win32,60,z,1,0.438175,,,,,,,,0.438175,1,,,,,,344,NW,UN,33,absend,SCRILY,z,,,,,,-0.027777765,-0.394444458,0,0,0,,0,369,369,403,1,
,,,,,,,,,,,,,,,,,,5977e3867412f8000194e1fe,2020-08-10_10h07.59.470,lexical_decision_task_MP,2020.1.3,Win32,60,m,1,0.57617,,,,,,,,0.57617,1,,,,,,107,WORD,UN,33,reckon,SLOGAN,m,,,,,,-0.027777765,-0.394444458,0,0,0,,0,370,370,166,1,
,,,,,,,,,,,,,,,,,,5977e3867412f8000194e1fe,2020-08-10_10h07.59.470,lexical_decision_task_MP,2020.1.3,Win32,60,m,1,0.6563,,,,,,,,0.6563,1,,,,,,222,WORD,"ID",33,hinder,HINDER,m,,,,,,-0.027777765,-0.394444458,0,0,0,,0,371,371,41,1,
,,,,,,,,,,,,,,,,,,5977e3867412f8000194e1fe,2020-08-10_10h07.59.470,lexical_decision_task_MP,2020.1.3,Win32,60,z,1,0.989585,,,,,,,,0.989585,1,,,,,,386,NW,UN,50,gronce,ANCUST,z,,,,,,-0.027777765,-0.394444458,0,0,0,,0,372,372,445,1,
,,,,,,,,,,,,,,,,,,5977e3867412f8000194e1fe,2020-08-10_10h07.59.470,lexical_decision_task_MP,2020.1.3,Win32,60,z,1,0.777395,,,,,,,,0.777395,1,,,,,,417,NW,UN,50,suidle,EAROUD,z,,,,,,-0.027777765,-0.394444458,0,0,0,,0,373,373,476,1,
,,,,,,,,,,,,,,,,,,5977e3867412f8000194e1fe,2020-08-10_10h07.59.470,lexical_decision_task_MP,2020.1.3,Win32,60,m,1,1.198475,,,,,,,,1.198475,1,,,,,,73,WORD,UN,33,plaque,SOURCE,m,,,,,,-0.027777765,-0.394444458,0,0,0,,0,374,374,132,1,
,,,,,,,,,,,,,,,,,,5977e3867412f8000194e1fe,2020-08-10_10h07.59.470,lexical_decision_task_MP,2020.1.3,Win32,60,z,1,0.456035,,,,,,,,0.456035,1,,,,,,399,NW,UN,50,wearox,FOURET,z,,,,,,-0.027777765,-0.394444458,0,0,0,,0,375,375,458,1,
,,,,,,,,,,,,,,,,,,5977e3867412f8000194e1fe,2020-08-10_10h07.59.470,lexical_decision_task_MP,2020.1.3,Win32,60,m,1,0.44877,,,,,,,,0.44877,1,,,,,,204,WORD,"ID",33,burden,BURDEN,m,,,,,,-0.027777765,-0.394444458,0,0,0,,0,376,376,23,1,
,,,,,,,,,,,,,,,,,,5977e3867412f8000194e1fe,2020-08-10_10h07.59.470,lexical_decision_task_MP,2020.1.3,Win32,60,m,1,0.436555,,,,,,,,0.436555,1,,,,,,189,WORD,"ID",33,censor,CENSOR,m,,,,,,-0.027777765,-0.394444458,0,0,0,,0,377,377,8,1,
,,,,,,,,,,,,,,,,,,5977e3867412f8000194e1fe,2020-08-10_10h07.59.470,lexical_decision_task_MP,2020.1.3,Win32,60,z,1,0.540705,,,,,,,,0.540705,1,,,,,,384,NW,UN,50,injore,GUESCO,z,,,,,,-0.027777765,-0.394444458,0,0,0,,0,378,378,443,1,
,,,,,,,,,,,,,,,,,,5977e3867412f8000194e1fe,2020-08-10_10h07.59.470,lexical_decision_task_MP,2020.1.3,Win32,60,z,1,0.411005,,,,,,,,0.411005,1,,,,,,369,NW,UN,50,sleact,WRONCH,z,,,,,,-0.027777765,-0.394444458,0,0,0,,0,379,379,428,1,
,,,,,,,,,,,,,,,,,,5977e3867412f8000194e1fe,2020-08-10_10h07.59.470,lexical_decision_task_MP,2020.1.3,Win32,60,z,1,0.399175,,,,,,,,0.399175,1,,,,,,470,NW,"ID",33,crudio,CRUDIO,z,,,,,,-0.027777765,-0.394444458,0,0,0,,0,380,380,289,1,
,,,,,,,,,,,,,,,,,,5977e3867412f8000194e1fe,2020-08-10_10h07.59.470,lexical_decision_task_MP,2020.1.3,Win32,60,m,1,0.489135,,,,,,,,0.489135,1,,,,,,194,WORD,"ID",33,absent,ABSENT,m,,,,,,-0.027777765,-0.394444458,0,0,0,,0,381,381,13,1,
,,,,,,,,,,,,,,,,,,5977e3867412f8000194e1fe,2020-08-10_10h07.59.470,lexical_decision_task_MP,2020.1.3,Win32,60,m,1,0.450925,,,,,,,,0.450925,1,,,,,,92,WORD,UN,33,public,STRAND,m,,,,,,-0.027777765,-0.394444458,0,0,0,,0,382,382,151,1,
,,,,,,,,,,,,,,,,,,5977e3867412f8000194e1fe,2020-08-10_10h07.59.470,lexical_decision_task_MP,2020.1.3,Win32,60,m,1,0.48309,,,,,,,,0.48309,1,,,,,,85,WORD,UN,33,rodent,SPRAWL,m,,,,,,-0.027777765,-0.394444458,0,0,0,,0,383,383,144,1,
,,,,,,,,,,,,,,,,,,5977e3867412f8000194e1fe,2020-08-10_10h07.59.470,lexical_decision_task_MP,2020.1.3,Win32,60,z,1,0.515665,,,,,,,,0.515665,1,,,,,,354,NW,UN,33,zingly,VIRLEX,z,,,,,,-0.027777765,-0.394444458,0,0,0,,0,384,384,413,1,
,,,,,,,,,,,,,,,,,,5977e3867412f8000194e1fe,2020-08-10_10h07.59.470,lexical_decision_task_MP,2020.1.3,Win32,60,z,1,0.441295,,,,,,,,0.441295,1,,,,,,315,NW,UN,33,scregm,LASTON,z,,,,,,-0.027777765,-0.394444458,0,0,0,,0,385,385,374,1,
,,,,,,,,,,,,,,,,,,5977e3867412f8000194e1fe,2020-08-10_10h07.59.470,lexical_decision_task_MP,2020.1.3,Win32,60,z,1,0.42552,,,,,,,,0.42552,1,,,,,,410,NW,UN,50,orchin,TUNORY,z,,,,,,-0.027777765,-0.394444458,0,0,0,,0,386,386,469,1,
,,,,,,,,,,,,,,,,,,5977e3867412f8000194e1fe,2020-08-10_10h07.59.470,lexical_decision_task_MP,2020.1.3,Win32,60,z,0,0.41481,,,,,,,,0.41481,0,,,,,,79,WORD,UN,33,family,THEORY,m,,,,,,-0.027777765,-0.394444458,0,0,0,,0,387,387,138,1,
,,,,,,,,,,,,,,,,,,5977e3867412f8000194e1fe,2020-08-10_10h07.59.470,lexical_decision_task_MP,2020.1.3,Win32,60,z,1,0.470865,,,,,,,,0.470865,1,,,,,,316,NW,UN,33,worbal,SCREGM,z,,,,,,-0.027777765,-0.394444458,0,0,0,,0,388,388,375,1,
,,,,,,,,,,,,,,,,,,5977e3867412f8000194e1fe,2020-08-10_10h07.59.470,lexical_decision_task_MP,2020.1.3,Win32,60,m,1,0.412425,,,,,,,,0.412425,1,,,,,,48,WORD,"ID",50,walnut,WALNUT,m,,,,,,-0.027777765,-0.394444458,0,0,0,,0,389,389,107,1,
,,,,,,,,,,,,,,,,,,5977e3867412f8000194e1fe,2020-08-10_10h07.59.470,lexical_decision_task_MP,2020.1.3,Win32,60,m,1,0.49927,,,,,,,,0.49927,1,,,,,,187,WORD,"ID",33,course,COURSE,m,,,,,,-0.027777765,-0.394444458,0,0,0,,0,390,390,6,1,
,,,,,,,,,,,,,,,,,,5977e3867412f8000194e1fe,2020-08-10_10h07.59.470,lexical_decision_task_MP,2020.1.3,Win32,60,z,1,0.533255,,,,,,,,0.533255,1,,,,,,295,NW,"ID",50,gleath,GLEATH,z,,,,,,-0.027777765,-0.394444458,0,0,0,,0,391,391,354,1,
,,,,,,,,,,,,,,,,,,5977e3867412f8000194e1fe,2020-08-10_10h07.59.470,lexical_decision_task_MP,2020.1.3,Win32,60,z,1,0.44349,,,,,,,,0.44349,1,,,,,,436,NW,"ID",33,frutan,FRUTAN,z,,,,,,-0.027777765,-0.394444458,0,0,0,,0,392,392,255,1,
,,,,,,,,,,,,,,,,,,5977e3867412f8000194e1fe,2020-08-10_10h07.59.470,lexical_decision_task_MP,2020.1.3,Win32,60,m,1,0.370045,,,,,,,,0.370045,1,,,,,,229,WORD,"ID",33,mother,MOTHER,m,,,,,,-0.027777765,-0.394444458,0,0,0,,0,393,393,48,1,
,,,,,,,,,,,,,,,,,,5977e3867412f8000194e1fe,2020-08-10_10h07.59.470,lexical_decision_task_MP,2020.1.3,Win32,60,m,1,0.369415,,,,,,,,0.369415,1,,,,,,172,WORD,UN,50,shower,PATROL,m,,,,,,-0.027777765,-0.394444458,0,0,0,,0,394,394,231,1,
,,,,,,,,,,,,,,,,,,5977e3867412f8000194e1fe,2020-08-10_10h07.59.470,lexical_decision_task_MP,2020.1.3,Win32,60,z,1,0.472945,,,,,,,,0.472945,1,,,,,,311,NW,UN,33,nerawl,SPROLY,z,,,,,,-0.027777765,-0.394444458,0,0,0,,0,395,395,370,1,
,,,,,,,,,,,,,,,,,,5977e3867412f8000194e1fe,2020-08-10_10h07.59.470,lexical_decision_task_MP,2020.1.3,Win32,60,z,1,0.41028,,,,,,,,0.41028,1,,,,,,450,NW,"ID",33,phrect,PHRECT,z,,,,,,-0.027777765,-0.394444458,0,0,0,,0,396,396,269,1,
,,,,,,,,,,,,,,,,,,5977e3867412f8000194e1fe,2020-08-10_10h07.59.470,lexical_decision_task_MP,2020.1.3,Win32,60,z,1,0.449295,,,,,,,,0.449295,1,,,,,,341,NW,UN,33,randow,MYRTIE,z,,,,,,-0.027777765,-0.394444458,0,0,0,,0,397,397,400,1,
,,,,,,,,,,,,,,,,,,5977e3867412f8000194e1fe,2020-08-10_10h07.59.470,lexical_decision_task_MP,2020.1.3,Win32,60,z,1,0.548725,,,,,,,,0.548725,1,,,,,,363,NW,UN,50,impote,BREALI,z,,,,,,-0.027777765,-0.394444458,0,0,0,,0,398,398,422,1,
,,,,,,,,,,,,,,,,,,5977e3867412f8000194e1fe,2020-08-10_10h07.59.470,lexical_decision_task_MP,2020.1.3,Win32,60,m,1,0.427925,,,,,,,,0.427925,1,,,,,,89,WORD,UN,33,relish,PERMIT,m,,,,,,-0.027777765,-0.394444458,0,0,0,,0,399,399,148,1,
,,,,,,,,,,,,,,,,,,5977e3867412f8000194e1fe,2020-08-10_10h07.59.470,lexical_decision_task_MP,2020.1.3,Win32,60,z,1,0.621245,,,,,,,,0.621245,1,,,,,,248,NW,"ID",50,strole,STROLE,z,,,,,,-0.027777765,-0.394444458,0,0,0,,0,400,400,307,1,
,,,,,,,,,,,,,,,,,,5977e3867412f8000194e1fe,2020-08-10_10h07.59.470,lexical_decision_task_MP,2020.1.3,Win32,60,z,1,1.079395,,,,,,,,1.079395,1,,,,,,389,NW,UN,50,hatrus,WITMER,z,,,,,,-0.027777765,-0.394444458,0,0,0,,0,401,401,448,1,
,,,,,,,,,,,,,,,,,,5977e3867412f8000194e1fe,2020-08-10_10h07.59.470,lexical_decision_task_MP,2020.1.3,Win32,60,m,1,0.41506,,,,,,,,0.41506,1,,,,,,52,WORD,"ID",50,impose,IMPOSE,m,,,,,,-0.027777765,-0.394444458,0,0,0,,0,402,402,111,1,
