counterbalancing_condition,instr_done_keyboard.keys,instr_done_keyboard.rt,instr_done_touch.x,instr_done_touch.y,instr_done_touch.leftButton,instr_done_touch.midButton,instr_done_touch.rightButton,instruction_pages.thisRepN,instruction_pages.thisTrialN,instruction_pages.thisN,instruction_pages.thisIndex,instruction_pages.ran,pageN,phase,instruct_text,has_image,instruct_image,participant,date,expName,psychopyVersion,OS,frameRate,response.keys,response.corr,response.rt,touch_resp.x,touch_resp.y,touch_resp.leftButton,touch_resp.midButton,touch_resp.rightButton,touch_resp.time,touch_resp.clicked_name,rt,corr,practice_trials.thisRepN,practice_trials.thisTrialN,practice_trials.thisN,practice_trials.thisIndex,practice_trials.ran,TrialID,StimulusType,Condition,PrimeDuration,Prime,Target,corrAns,end_of_practice_trials_pages.thisRepN,end_of_practice_trials_pages.thisTrialN,end_of_practice_trials_pages.thisN,end_of_practice_trials_pages.thisIndex,end_of_practice_trials_pages.ran,break_done_touch.x,break_done_touch.y,break_done_touch.leftButton,break_done_touch.midButton,break_done_touch.rightButton,break_done_keyboard.keys,trials.thisRepN,trials.thisTrialN,trials.thisN,trials.thisIndex,trials.ran,break_done_keyboard.rt
0,space,22.400155,0.138020833,-0.1796875,0,0,0,0,0,0,0,1,1,instructions,"INSTRUCTIONS
At the start of each trial, look at the hash marks (######) in the center of the screen. After a moment, a string of letters will appear. Your task is to indicate if the letter string forms a word or not (i.e., if it is a nonword). For example, AUTHOR is a word while AUTHON is a nonword.

Press the space bar or touch the button below to continue.",0,,59efd2b3d838ae000185123a,2020-08-10_18h10.10.971,lexical_decision_task_MP,2020.1.3,Win32,60,,,,,,,,,,,,,,,,,,,,,,,,,,,,,,,,,,,,,,,,,
,space,12.648615,0.138020833,-0.1796875,0,0,0,0,1,1,1,1,2,instructions,"If your device has a keyboard, press the 'Z' key for nonwords and the 'M' key for words.





Press the space bar or touch the button below to continue.",1,keyboard-example.gif,59efd2b3d838ae000185123a,2020-08-10_18h10.10.971,lexical_decision_task_MP,2020.1.3,Win32,60,,,,,,,,,,,,,,,,,,,,,,,,,,,,,,,,,,,,,,,,,
,space,8.22495,0.138020833,-0.1796875,0,0,0,0,2,2,2,1,3,instructions,"If you are using a touchscreen only device, use the buttons on the screen. Do not use the mouse.





Press the space bar or touch the button below to continue.",1,touchscreen-example.gif,59efd2b3d838ae000185123a,2020-08-10_18h10.10.971,lexical_decision_task_MP,2020.1.3,Win32,60,,,,,,,,,,,,,,,,,,,,,,,,,,,,,,,,,,,,,,,,,
,space,16.654165,0.138020833,-0.1796875,0,0,0,0,3,3,3,1,4,instructions,"It is very important that you respond as quickly and accurately as possible, as each letter string will only be on the screen for two seconds. If you do not respond within this time, the message 'Too slow!' will be displayed and the experiment will progress to the next letter string. The first 20 trials will be practice trials and you will receive feedback on your answers. 

Press the space bar or touch the button below to start the practice trials.",0,,59efd2b3d838ae000185123a,2020-08-10_18h10.10.971,lexical_decision_task_MP,2020.1.3,Win32,60,,,,,,,,,,,,,,,,,,,,,,,,,,,,,,,,,,,,,,,,,
,,,,,,,,,,,,,,,,,,59efd2b3d838ae000185123a,2020-08-10_18h10.10.971,lexical_decision_task_MP,2020.1.3,Win32,60,m,1,1.640855,,,,,,,,1.640855,1,0,0,0,4,1,1005,WORD,UN,33,abound,SQUEAK,m,,,,,,,,,,,,,,,,,
,,,,,,,,,,,,,,,,,,59efd2b3d838ae000185123a,2020-08-10_18h10.10.971,lexical_decision_task_MP,2020.1.3,Win32,60,z,1,0.729405,,,,,,,,0.729405,1,0,1,1,12,1,1013,NW,UN,33,adveil,SPRINY,z,,,,,,,,,,,,,,,,,
,,,,,,,,,,,,,,,,,,59efd2b3d838ae000185123a,2020-08-10_18h10.10.971,lexical_decision_task_MP,2020.1.3,Win32,60,m,1,0.71734,,,,,,,,0.71734,1,0,2,2,6,1,1007,WORD,UN,50,tropic,ZOMBIE,m,,,,,,,,,,,,,,,,,
,,,,,,,,,,,,,,,,,,59efd2b3d838ae000185123a,2020-08-10_18h10.10.971,lexical_decision_task_MP,2020.1.3,Win32,60,z,1,0.83163,,,,,,,,0.83163,1,0,3,3,10,1,1011,NW,"ID",50,inlade,INLADE,z,,,,,,,,,,,,,,,,,
,,,,,,,,,,,,,,,,,,59efd2b3d838ae000185123a,2020-08-10_18h10.10.971,lexical_decision_task_MP,2020.1.3,Win32,60,z,1,0.896565,,,,,,,,0.896565,1,0,4,4,8,1,1009,NW,"ID",33,aslert,ASLERT,z,,,,,,,,,,,,,,,,,
,,,,,,,,,,,,,,,,,,59efd2b3d838ae000185123a,2020-08-10_18h10.10.971,lexical_decision_task_MP,2020.1.3,Win32,60,m,0,0.91043,,,,,,,,0.91043,0,0,5,5,13,1,1014,NW,UN,33,winfer,ROUPET,z,,,,,,,,,,,,,,,,,
,,,,,,,,,,,,,,,,,,59efd2b3d838ae000185123a,2020-08-10_18h10.10.971,lexical_decision_task_MP,2020.1.3,Win32,60,z,1,0.779615,,,,,,,,0.779615,1,0,6,6,15,1,1016,NW,UN,50,mushed,WHAISE,z,,,,,,,,,,,,,,,,,
,,,,,,,,,,,,,,,,,,59efd2b3d838ae000185123a,2020-08-10_18h10.10.971,lexical_decision_task_MP,2020.1.3,Win32,60,m,1,0.62509,,,,,,,,0.62509,1,0,7,7,7,1,1008,WORD,UN,50,hurdle,VOLUME,m,,,,,,,,,,,,,,,,,
,,,,,,,,,,,,,,,,,,59efd2b3d838ae000185123a,2020-08-10_18h10.10.971,lexical_decision_task_MP,2020.1.3,Win32,60,m,1,0.61649,,,,,,,,0.61649,1,0,8,8,5,1,1006,WORD,UN,33,frenzy,OBTAIN,m,,,,,,,,,,,,,,,,,
,,,,,,,,,,,,,,,,,,59efd2b3d838ae000185123a,2020-08-10_18h10.10.971,lexical_decision_task_MP,2020.1.3,Win32,60,z,1,0.68858,,,,,,,,0.68858,1,0,9,9,14,1,1015,NW,UN,50,miaber,THRALE,z,,,,,,,,,,,,,,,,,
,,,,,,,,,,,,,,,,,,59efd2b3d838ae000185123a,2020-08-10_18h10.10.971,lexical_decision_task_MP,2020.1.3,Win32,60,z,1,0.696305,,,,,,,,0.696305,1,0,10,10,9,1,1010,NW,"ID",33,fariny,FARINY,z,,,,,,,,,,,,,,,,,
,,,,,,,,,,,,,,,,,,59efd2b3d838ae000185123a,2020-08-10_18h10.10.971,lexical_decision_task_MP,2020.1.3,Win32,60,m,1,0.61603,,,,,,,,0.61603,1,0,11,11,3,1,1004,WORD,"ID",50,matrix,MATRIX,m,,,,,,,,,,,,,,,,,
,,,,,,,,,,,,,,,,,,59efd2b3d838ae000185123a,2020-08-10_18h10.10.971,lexical_decision_task_MP,2020.1.3,Win32,60,z,0,0.620405,,,,,,,,0.620405,0,0,12,12,2,1,1003,WORD,"ID",50,almond,ALMOND,m,,,,,,,,,,,,,,,,,
,,,,,,,,,,,,,,,,,,59efd2b3d838ae000185123a,2020-08-10_18h10.10.971,lexical_decision_task_MP,2020.1.3,Win32,60,z,0,0.63119,,,,,,,,0.63119,0,0,13,13,0,1,1001,WORD,"ID",33,utopia,UTOPIA,m,,,,,,,,,,,,,,,,,
,,,,,,,,,,,,,,,,,,59efd2b3d838ae000185123a,2020-08-10_18h10.10.971,lexical_decision_task_MP,2020.1.3,Win32,60,z,1,0.5186,,,,,,,,0.5186,1,0,14,14,11,1,1012,NW,"ID",50,rashet,RASHET,z,,,,,,,,,,,,,,,,,
,,,,,,,,,,,,,,,,,,59efd2b3d838ae000185123a,2020-08-10_18h10.10.971,lexical_decision_task_MP,2020.1.3,Win32,60,m,1,0.644265,,,,,,,,0.644265,1,0,15,15,1,1,1002,WORD,"ID",33,adjust,ADJUST,m,,,,,,,,,,,,,,,,,
,space,17.87498,0.138020833,-0.1796875,0,0,0,,,,,,1,end_of_practice,"You have completed the practice trials. During the experimental trials, you will not receive feedback, but it is very important that you respond as quickly and accurately as possible. 
Before you begin, please ensure that you are in a comfortable and quiet location and will not be disturbed for about 15 minutes, as we cannot use your data if you do not complete all the trials. 
There will be opportunities to take breaks at regular intervals during the experiment. When you are ready to start the experimental trials, please press space or touch the button below.",,,59efd2b3d838ae000185123a,2020-08-10_18h10.10.971,lexical_decision_task_MP,2020.1.3,Win32,60,,,,,,,,,,,,,,,,,,,,,,,,,0,0,0,0,1,,,,,,,,,,,,
,,,,,,,,,,,,,,,,,,59efd2b3d838ae000185123a,2020-08-10_18h10.10.971,lexical_decision_task_MP,2020.1.3,Win32,60,z,1,1.06564,,,,,,,,1.06564,1,,,,,,251,NW,"ID",50,lupict,LUPICT,z,,,,,,0.138020833,-0.1796875,0,0,0,,0,0,0,310,1,
,,,,,,,,,,,,,,,,,,59efd2b3d838ae000185123a,2020-08-10_18h10.10.971,lexical_decision_task_MP,2020.1.3,Win32,60,m,1,0.54934,,,,,,,,0.54934,1,,,,,,149,WORD,UN,50,random,INVADE,m,,,,,,0.138020833,-0.1796875,0,0,0,,0,1,1,208,1,
,,,,,,,,,,,,,,,,,,59efd2b3d838ae000185123a,2020-08-10_18h10.10.971,lexical_decision_task_MP,2020.1.3,Win32,60,z,1,0.60119,,,,,,,,0.60119,1,,,,,,322,NW,UN,33,rosail,SLANCH,z,,,,,,0.138020833,-0.1796875,0,0,0,,0,2,2,381,1,
,,,,,,,,,,,,,,,,,,59efd2b3d838ae000185123a,2020-08-10_18h10.10.971,lexical_decision_task_MP,2020.1.3,Win32,60,z,1,0.680115,,,,,,,,0.680115,1,,,,,,469,NW,"ID",33,padifs,PADIFS,z,,,,,,0.138020833,-0.1796875,0,0,0,,0,3,3,288,1,
,,,,,,,,,,,,,,,,,,59efd2b3d838ae000185123a,2020-08-10_18h10.10.971,lexical_decision_task_MP,2020.1.3,Win32,60,m,0,0.750395,,,,,,,,0.750395,0,,,,,,399,NW,UN,50,wearox,FOURET,z,,,,,,0.138020833,-0.1796875,0,0,0,,0,4,4,458,1,
,,,,,,,,,,,,,,,,,,59efd2b3d838ae000185123a,2020-08-10_18h10.10.971,lexical_decision_task_MP,2020.1.3,Win32,60,m,1,0.59986,,,,,,,,0.59986,1,,,,,,141,WORD,UN,50,spruce,ORPHAN,m,,,,,,0.138020833,-0.1796875,0,0,0,,0,5,5,200,1,
,,,,,,,,,,,,,,,,,,59efd2b3d838ae000185123a,2020-08-10_18h10.10.971,lexical_decision_task_MP,2020.1.3,Win32,60,m,0,0.672195,,,,,,,,0.672195,0,,,,,,413,NW,UN,50,serbol,EQUATS,z,,,,,,0.138020833,-0.1796875,0,0,0,,0,6,6,472,1,
,,,,,,,,,,,,,,,,,,59efd2b3d838ae000185123a,2020-08-10_18h10.10.971,lexical_decision_task_MP,2020.1.3,Win32,60,z,1,0.68796,,,,,,,,0.68796,1,,,,,,257,NW,"ID",50,veniod,VENIOD,z,,,,,,0.138020833,-0.1796875,0,0,0,,0,7,7,316,1,
,,,,,,,,,,,,,,,,,,59efd2b3d838ae000185123a,2020-08-10_18h10.10.971,lexical_decision_task_MP,2020.1.3,Win32,60,m,0,0.628685,,,,,,,,0.628685,0,,,,,,475,NW,"ID",33,pebric,PEBRIC,z,,,,,,0.138020833,-0.1796875,0,0,0,,0,8,8,294,1,
,,,,,,,,,,,,,,,,,,59efd2b3d838ae000185123a,2020-08-10_18h10.10.971,lexical_decision_task_MP,2020.1.3,Win32,60,m,1,0.54491,,,,,,,,0.54491,1,,,,,,46,WORD,"ID",50,single,SINGLE,m,,,,,,0.138020833,-0.1796875,0,0,0,,0,9,9,105,1,
,,,,,,,,,,,,,,,,,,59efd2b3d838ae000185123a,2020-08-10_18h10.10.971,lexical_decision_task_MP,2020.1.3,Win32,60,z,1,0.64514,,,,,,,,0.64514,1,,,,,,363,NW,UN,50,impote,BREALI,z,,,,,,0.138020833,-0.1796875,0,0,0,,0,10,10,422,1,
,,,,,,,,,,,,,,,,,,59efd2b3d838ae000185123a,2020-08-10_18h10.10.971,lexical_decision_task_MP,2020.1.3,Win32,60,z,1,0.56685,,,,,,,,0.56685,1,,,,,,280,NW,"ID",50,curbol,CURBOL,z,,,,,,0.138020833,-0.1796875,0,0,0,,0,11,11,339,1,
,,,,,,,,,,,,,,,,,,59efd2b3d838ae000185123a,2020-08-10_18h10.10.971,lexical_decision_task_MP,2020.1.3,Win32,60,z,1,0.65297,,,,,,,,0.65297,1,,,,,,300,NW,"ID",50,yarion,YARION,z,,,,,,0.138020833,-0.1796875,0,0,0,,0,12,12,359,1,
,,,,,,,,,,,,,,,,,,59efd2b3d838ae000185123a,2020-08-10_18h10.10.971,lexical_decision_task_MP,2020.1.3,Win32,60,m,1,0.59546,,,,,,,,0.59546,1,,,,,,183,WORD,"ID",33,mildew,MILDEW,m,,,,,,0.138020833,-0.1796875,0,0,0,,0,13,13,2,1,
,,,,,,,,,,,,,,,,,,59efd2b3d838ae000185123a,2020-08-10_18h10.10.971,lexical_decision_task_MP,2020.1.3,Win32,60,m,1,0.681785,,,,,,,,0.681785,1,,,,,,240,WORD,"ID",33,forest,FOREST,m,,,,,,0.138020833,-0.1796875,0,0,0,,0,14,14,59,1,
,,,,,,,,,,,,,,,,,,59efd2b3d838ae000185123a,2020-08-10_18h10.10.971,lexical_decision_task_MP,2020.1.3,Win32,60,z,1,0.86397,,,,,,,,0.86397,1,,,,,,291,NW,"ID",50,pretch,PRETCH,z,,,,,,0.138020833,-0.1796875,0,0,0,,0,15,15,350,1,
,,,,,,,,,,,,,,,,,,59efd2b3d838ae000185123a,2020-08-10_18h10.10.971,lexical_decision_task_MP,2020.1.3,Win32,60,m,1,0.48191,,,,,,,,0.48191,1,,,,,,211,WORD,"ID",33,infect,INFECT,m,,,,,,0.138020833,-0.1796875,0,0,0,,0,16,16,30,1,
,,,,,,,,,,,,,,,,,,59efd2b3d838ae000185123a,2020-08-10_18h10.10.971,lexical_decision_task_MP,2020.1.3,Win32,60,z,1,0.66558,,,,,,,,0.66558,1,,,,,,439,NW,"ID",33,limpor,LIMPOR,z,,,,,,0.138020833,-0.1796875,0,0,0,,0,17,17,258,1,
,,,,,,,,,,,,,,,,,,59efd2b3d838ae000185123a,2020-08-10_18h10.10.971,lexical_decision_task_MP,2020.1.3,Win32,60,m,1,0.52807,,,,,,,,0.52807,1,,,,,,173,WORD,UN,50,turkey,SHOWER,m,,,,,,0.138020833,-0.1796875,0,0,0,,0,18,18,232,1,
,,,,,,,,,,,,,,,,,,59efd2b3d838ae000185123a,2020-08-10_18h10.10.971,lexical_decision_task_MP,2020.1.3,Win32,60,m,0,0.602505,,,,,,,,0.602505,0,,,,,,345,NW,UN,33,saudic,ABSEND,z,,,,,,0.138020833,-0.1796875,0,0,0,,0,19,19,404,1,
,,,,,,,,,,,,,,,,,,59efd2b3d838ae000185123a,2020-08-10_18h10.10.971,lexical_decision_task_MP,2020.1.3,Win32,60,m,1,0.583915,,,,,,,,0.583915,1,,,,,,231,WORD,"ID",33,export,EXPORT,m,,,,,,0.138020833,-0.1796875,0,0,0,,0,20,20,50,1,
,,,,,,,,,,,,,,,,,,59efd2b3d838ae000185123a,2020-08-10_18h10.10.971,lexical_decision_task_MP,2020.1.3,Win32,60,m,0,0.76593,,,,,,,,0.76593,0,,,,,,466,NW,"ID",33,hocite,HOCITE,z,,,,,,0.138020833,-0.1796875,0,0,0,,0,21,21,285,1,
,,,,,,,,,,,,,,,,,,59efd2b3d838ae000185123a,2020-08-10_18h10.10.971,lexical_decision_task_MP,2020.1.3,Win32,60,z,1,0.58542,,,,,,,,0.58542,1,,,,,,298,NW,"ID",50,piergy,PIERGY,z,,,,,,0.138020833,-0.1796875,0,0,0,,0,22,22,357,1,
,,,,,,,,,,,,,,,,,,59efd2b3d838ae000185123a,2020-08-10_18h10.10.971,lexical_decision_task_MP,2020.1.3,Win32,60,m,1,0.632875,,,,,,,,0.632875,1,,,,,,9,WORD,"ID",50,hustle,HUSTLE,m,,,,,,0.138020833,-0.1796875,0,0,0,,0,23,23,68,1,
,,,,,,,,,,,,,,,,,,59efd2b3d838ae000185123a,2020-08-10_18h10.10.971,lexical_decision_task_MP,2020.1.3,Win32,60,m,1,0.622685,,,,,,,,0.622685,1,,,,,,210,WORD,"ID",33,monkey,MONKEY,m,,,,,,0.138020833,-0.1796875,0,0,0,,0,24,24,29,1,
,,,,,,,,,,,,,,,,,,59efd2b3d838ae000185123a,2020-08-10_18h10.10.971,lexical_decision_task_MP,2020.1.3,Win32,60,z,0,0.650015,,,,,,,,0.650015,0,,,,,,176,WORD,UN,50,advent,STRIFE,m,,,,,,0.138020833,-0.1796875,0,0,0,,0,25,25,235,1,
,,,,,,,,,,,,,,,,,,59efd2b3d838ae000185123a,2020-08-10_18h10.10.971,lexical_decision_task_MP,2020.1.3,Win32,60,m,0,0.59858,,,,,,,,0.59858,0,,,,,,438,NW,"ID",33,baitch,BAITCH,z,,,,,,0.138020833,-0.1796875,0,0,0,,0,26,26,257,1,
,,,,,,,,,,,,,,,,,,59efd2b3d838ae000185123a,2020-08-10_18h10.10.971,lexical_decision_task_MP,2020.1.3,Win32,60,m,1,0.534605,,,,,,,,0.534605,1,,,,,,42,WORD,"ID",50,chapel,CHAPEL,m,,,,,,0.138020833,-0.1796875,0,0,0,,0,27,27,101,1,
,,,,,,,,,,,,,,,,,,59efd2b3d838ae000185123a,2020-08-10_18h10.10.971,lexical_decision_task_MP,2020.1.3,Win32,60,m,1,0.538225,,,,,,,,0.538225,1,,,,,,152,WORD,UN,50,behold,ROCKET,m,,,,,,0.138020833,-0.1796875,0,0,0,,0,28,28,211,1,
,,,,,,,,,,,,,,,,,,59efd2b3d838ae000185123a,2020-08-10_18h10.10.971,lexical_decision_task_MP,2020.1.3,Win32,60,m,1,0.562915,,,,,,,,0.562915,1,,,,,,213,WORD,"ID",33,squeal,SQUEAL,m,,,,,,0.138020833,-0.1796875,0,0,0,,0,29,29,32,1,
,,,,,,,,,,,,,,,,,,59efd2b3d838ae000185123a,2020-08-10_18h10.10.971,lexical_decision_task_MP,2020.1.3,Win32,60,m,1,0.582405,,,,,,,,0.582405,1,,,,,,144,WORD,UN,50,parish,SPONGE,m,,,,,,0.138020833,-0.1796875,0,0,0,,0,30,30,203,1,
,,,,,,,,,,,,,,,,,,59efd2b3d838ae000185123a,2020-08-10_18h10.10.971,lexical_decision_task_MP,2020.1.3,Win32,60,m,0,0.5132,,,,,,,,0.5132,0,,,,,,319,NW,UN,33,jockal,ZOMBER,z,,,,,,0.138020833,-0.1796875,0,0,0,,0,31,31,378,1,
,,,,,,,,,,,,,,,,,,59efd2b3d838ae000185123a,2020-08-10_18h10.10.971,lexical_decision_task_MP,2020.1.3,Win32,60,m,1,0.516595,,,,,,,,0.516595,1,,,,,,217,WORD,"ID",33,liquor,LIQUOR,m,,,,,,0.138020833,-0.1796875,0,0,0,,0,32,32,36,1,
,,,,,,,,,,,,,,,,,,59efd2b3d838ae000185123a,2020-08-10_18h10.10.971,lexical_decision_task_MP,2020.1.3,Win32,60,z,1,0.57119,,,,,,,,0.57119,1,,,,,,378,NW,UN,50,auting,SHRILE,z,,,,,,0.138020833,-0.1796875,0,0,0,,0,33,33,437,1,
,,,,,,,,,,,,,,,,,,59efd2b3d838ae000185123a,2020-08-10_18h10.10.971,lexical_decision_task_MP,2020.1.3,Win32,60,z,0,0.57892,,,,,,,,0.57892,0,,,,,,134,WORD,UN,50,import,STAPLE,m,,,,,,0.138020833,-0.1796875,0,0,0,,0,34,34,193,1,
,,,,,,,,,,,,,,,,,,59efd2b3d838ae000185123a,2020-08-10_18h10.10.971,lexical_decision_task_MP,2020.1.3,Win32,60,m,1,0.52857,,,,,,,,0.52857,1,,,,,,206,WORD,"ID",33,tailor,TAILOR,m,,,,,,0.138020833,-0.1796875,0,0,0,,0,35,35,25,1,
,,,,,,,,,,,,,,,,,,59efd2b3d838ae000185123a,2020-08-10_18h10.10.971,lexical_decision_task_MP,2020.1.3,Win32,60,z,1,0.68318,,,,,,,,0.68318,1,,,,,,402,NW,UN,50,bruats,SYNTIC,z,,,,,,0.138020833,-0.1796875,0,0,0,,0,36,36,461,1,
,,,,,,,,,,,,,,,,,,59efd2b3d838ae000185123a,2020-08-10_18h10.10.971,lexical_decision_task_MP,2020.1.3,Win32,60,m,1,0.57918,,,,,,,,0.57918,1,,,,,,63,WORD,UN,33,throne,LAUNCH,m,,,,,,0.138020833,-0.1796875,0,0,0,,0,37,37,122,1,
,,,,,,,,,,,,,,,,,,59efd2b3d838ae000185123a,2020-08-10_18h10.10.971,lexical_decision_task_MP,2020.1.3,Win32,60,z,1,0.60082,,,,,,,,0.60082,1,,,,,,405,NW,UN,50,nouply,FLUMNI,z,,,,,,0.138020833,-0.1796875,0,0,0,,0,38,38,464,1,
,,,,,,,,,,,,,,,,,,59efd2b3d838ae000185123a,2020-08-10_18h10.10.971,lexical_decision_task_MP,2020.1.3,Win32,60,m,0,0.555935,,,,,,,,0.555935,0,,,,,,299,NW,"ID",50,sturch,STURCH,z,,,,,,0.138020833,-0.1796875,0,0,0,,0,39,39,358,1,
,,,,,,,,,,,,,,,,,,59efd2b3d838ae000185123a,2020-08-10_18h10.10.971,lexical_decision_task_MP,2020.1.3,Win32,60,z,0,0.636045,,,,,,,,0.636045,0,,,,,,113,WORD,UN,33,placid,CHORUS,m,,,,,,0.138020833,-0.1796875,0,0,0,,0,40,40,172,1,
,,,,,,,,,,,,,,,,,,59efd2b3d838ae000185123a,2020-08-10_18h10.10.971,lexical_decision_task_MP,2020.1.3,Win32,60,m,1,0.71253,,,,,,,,0.71253,1,,,,,,117,WORD,UN,33,flight,BRANCH,m,,,,,,0.138020833,-0.1796875,0,0,0,,0,41,41,176,1,
,,,,,,,,,,,,,,,,,,59efd2b3d838ae000185123a,2020-08-10_18h10.10.971,lexical_decision_task_MP,2020.1.3,Win32,60,m,0,0.67358,,,,,,,,0.67358,0,,,,,,353,NW,UN,33,virlex,CLUREY,z,,,,,,0.138020833,-0.1796875,0,0,0,,0,42,42,412,1,
,,,,,,,,,,,,,,,,,,59efd2b3d838ae000185123a,2020-08-10_18h10.10.971,lexical_decision_task_MP,2020.1.3,Win32,60,m,1,0.55089,,,,,,,,0.55089,1,,,,,,76,WORD,UN,33,racket,EXOTIC,m,,,,,,0.138020833,-0.1796875,0,0,0,,0,43,43,135,1,
,,,,,,,,,,,,,,,,,,59efd2b3d838ae000185123a,2020-08-10_18h10.10.971,lexical_decision_task_MP,2020.1.3,Win32,60,m,0,0.74875,,,,,,,,0.74875,0,,,,,,289,NW,"ID",50,starby,STARBY,z,,,,,,0.138020833,-0.1796875,0,0,0,,0,44,44,348,1,
,,,,,,,,,,,,,,,,,,59efd2b3d838ae000185123a,2020-08-10_18h10.10.971,lexical_decision_task_MP,2020.1.3,Win32,60,z,1,0.86829,,,,,,,,0.86829,1,,,,,,430,NW,"ID",33,caroey,CAROEY,z,,,,,,0.138020833,-0.1796875,0,0,0,,0,45,45,249,1,
,,,,,,,,,,,,,,,,,,59efd2b3d838ae000185123a,2020-08-10_18h10.10.971,lexical_decision_task_MP,2020.1.3,Win32,60,m,1,0.59811,,,,,,,,0.59811,1,,,,,,132,WORD,UN,50,orphan,STRONG,m,,,,,,0.138020833,-0.1796875,0,0,0,,0,46,46,191,1,
,,,,,,,,,,,,,,,,,,59efd2b3d838ae000185123a,2020-08-10_18h10.10.971,lexical_decision_task_MP,2020.1.3,Win32,60,z,1,0.56509,,,,,,,,0.56509,1,,,,,,287,NW,"ID",50,nymbel,NYMBEL,z,,,,,,0.138020833,-0.1796875,0,0,0,,0,47,47,346,1,
,,,,,,,,,,,,,,,,,,59efd2b3d838ae000185123a,2020-08-10_18h10.10.971,lexical_decision_task_MP,2020.1.3,Win32,60,z,0,0.599205,,,,,,,,0.599205,0,,,,,,220,WORD,"ID",33,voyage,VOYAGE,m,,,,,,0.138020833,-0.1796875,0,0,0,,0,48,48,39,1,
,,,,,,,,,,,,,,,,,,59efd2b3d838ae000185123a,2020-08-10_18h10.10.971,lexical_decision_task_MP,2020.1.3,Win32,60,m,1,0.622625,,,,,,,,0.622625,1,,,,,,2,WORD,"ID",50,bridge,BRIDGE,m,,,,,,0.138020833,-0.1796875,0,0,0,,0,49,49,61,1,
,,,,,,,,,,,,,,,,,,59efd2b3d838ae000185123a,2020-08-10_18h10.10.971,lexical_decision_task_MP,2020.1.3,Win32,60,m,1,0.550835,,,,,,,,0.550835,1,,,,,,51,WORD,"ID",50,hungry,HUNGRY,m,,,,,,0.138020833,-0.1796875,0,0,0,,0,50,50,110,1,
,,,,,,,,,,,,,,,,,,59efd2b3d838ae000185123a,2020-08-10_18h10.10.971,lexical_decision_task_MP,2020.1.3,Win32,60,m,1,0.579765,,,,,,,,0.579765,1,,,,,,140,WORD,UN,50,chrome,PRINCE,m,,,,,,0.138020833,-0.1796875,0,0,0,,0,51,51,199,1,
,,,,,,,,,,,,,,,,,,59efd2b3d838ae000185123a,2020-08-10_18h10.10.971,lexical_decision_task_MP,2020.1.3,Win32,60,m,1,0.56255,,,,,,,,0.56255,1,,,,,,157,WORD,UN,50,island,DRAGON,m,,,,,,0.138020833,-0.1796875,0,0,0,,0,52,52,216,1,
,,,,,,,,,,,,,,,,,,59efd2b3d838ae000185123a,2020-08-10_18h10.10.971,lexical_decision_task_MP,2020.1.3,Win32,60,m,0,0.637915,,,,,,,,0.637915,0,,,,,,350,NW,UN,33,tiesch,NAGURS,z,,,,,,0.138020833,-0.1796875,0,0,0,,0,53,53,409,1,
,,,,,,,,,,,,,,,,,,59efd2b3d838ae000185123a,2020-08-10_18h10.10.971,lexical_decision_task_MP,2020.1.3,Win32,60,m,1,0.61563,,,,,,,,0.61563,1,,,,,,14,WORD,"ID",50,almost,ALMOST,m,,,,,,0.138020833,-0.1796875,0,0,0,,0,54,54,73,1,
,,,,,,,,,,,,,,,,,,59efd2b3d838ae000185123a,2020-08-10_18h10.10.971,lexical_decision_task_MP,2020.1.3,Win32,60,m,0,0.48443,,,,,,,,0.48443,0,,,,,,336,NW,UN,33,rejols,GHODUS,z,,,,,,0.138020833,-0.1796875,0,0,0,,0,55,55,395,1,
,,,,,,,,,,,,,,,,,,59efd2b3d838ae000185123a,2020-08-10_18h10.10.971,lexical_decision_task_MP,2020.1.3,Win32,60,m,1,0.60284,,,,,,,,0.60284,1,,,,,,89,WORD,UN,33,relish,PERMIT,m,,,,,,0.138020833,-0.1796875,0,0,0,,0,56,56,148,1,
,,,,,,,,,,,,,,,,,,59efd2b3d838ae000185123a,2020-08-10_18h10.10.971,lexical_decision_task_MP,2020.1.3,Win32,60,z,0,0.487325,,,,,,,,0.487325,0,,,,,,118,WORD,UN,33,spider,FLIGHT,m,,,,,,0.138020833,-0.1796875,0,0,0,,0,57,57,177,1,
,,,,,,,,,,,,,,,,,,59efd2b3d838ae000185123a,2020-08-10_18h10.10.971,lexical_decision_task_MP,2020.1.3,Win32,60,z,1,1.084845,,,,,,,,1.084845,1,,,,,,250,NW,"ID",50,milted,MILTED,z,,,,,,0.138020833,-0.1796875,0,0,0,,0,58,58,309,1,
,,,,,,,,,,,,,,,,,,59efd2b3d838ae000185123a,2020-08-10_18h10.10.971,lexical_decision_task_MP,2020.1.3,Win32,60,z,1,0.69574,,,,,,,,0.69574,1,,,,,,444,NW,"ID",33,jaunce,JAUNCE,z,,,,,,0.138020833,-0.1796875,0,0,0,,0,59,59,263,1,
,,,,,,,,,,,,,,,,,,59efd2b3d838ae000185123a,2020-08-10_18h10.10.971,lexical_decision_task_MP,2020.1.3,Win32,60,m,0,0.61382,,,,,,,,0.61382,0,,,,,,423,NW,"ID",33,streld,STRELD,z,,,,,,0.138020833,-0.1796875,0,0,0,,0,60,60,242,1,
,,,,,,,,,,,,,,,,,,59efd2b3d838ae000185123a,2020-08-10_18h10.10.971,lexical_decision_task_MP,2020.1.3,Win32,60,m,1,0.548755,,,,,,,,0.548755,1,,,,,,45,WORD,"ID",50,clergy,CLERGY,m,,,,,,0.138020833,-0.1796875,0,0,0,,0,61,61,104,1,
,,,,,,,,,,,,,,,,,,59efd2b3d838ae000185123a,2020-08-10_18h10.10.971,lexical_decision_task_MP,2020.1.3,Win32,60,m,1,0.61695,,,,,,,,0.61695,1,,,,,,36,WORD,"ID",50,vanish,VANISH,m,,,,,,0.138020833,-0.1796875,0,0,0,,0,62,62,95,1,
,,,,,,,,,,,,,,,,,,59efd2b3d838ae000185123a,2020-08-10_18h10.10.971,lexical_decision_task_MP,2020.1.3,Win32,60,m,1,0.697025,,,,,,,,0.697025,1,,,,,,33,WORD,"ID",50,butler,BUTLER,m,,,,,,0.138020833,-0.1796875,0,0,0,,0,63,63,92,1,
,,,,,,,,,,,,,,,,,,59efd2b3d838ae000185123a,2020-08-10_18h10.10.971,lexical_decision_task_MP,2020.1.3,Win32,60,m,0,0.69817,,,,,,,,0.69817,0,,,,,,284,NW,"ID",50,shaple,SHAPLE,z,,,,,,0.138020833,-0.1796875,0,0,0,,0,64,64,343,1,
,,,,,,,,,,,,,,,,,,59efd2b3d838ae000185123a,2020-08-10_18h10.10.971,lexical_decision_task_MP,2020.1.3,Win32,60,m,1,0.63653,,,,,,,,0.63653,1,,,,,,214,WORD,"ID",33,intake,INTAKE,m,,,,,,0.138020833,-0.1796875,0,0,0,,0,65,65,33,1,
,,,,,,,,,,,,,,,,,,59efd2b3d838ae000185123a,2020-08-10_18h10.10.971,lexical_decision_task_MP,2020.1.3,Win32,60,m,1,0.566625,,,,,,,,0.566625,1,,,,,,102,WORD,UN,33,bounce,DIRECT,m,,,,,,0.138020833,-0.1796875,0,0,0,,0,66,66,161,1,
,,,,,,,,,,,,,,,,,,59efd2b3d838ae000185123a,2020-08-10_18h10.10.971,lexical_decision_task_MP,2020.1.3,Win32,60,z,1,0.666165,,,,,,,,0.666165,1,,,,,,392,NW,UN,50,ganous,ROUNCY,z,,,,,,0.138020833,-0.1796875,0,0,0,,0,67,67,451,1,
,,,,,,,,,,,,,,,,,,59efd2b3d838ae000185123a,2020-08-10_18h10.10.971,lexical_decision_task_MP,2020.1.3,Win32,60,m,1,0.563585,,,,,,,,0.563585,1,,,,,,178,WORD,UN,50,basket,INFORM,m,,,,,,0.138020833,-0.1796875,0,0,0,,0,68,68,237,1,
,,,,,,,,,,,,,,,,,,59efd2b3d838ae000185123a,2020-08-10_18h10.10.971,lexical_decision_task_MP,2020.1.3,Win32,60,z,1,0.568035,,,,,,,,0.568035,1,,,,,,460,NW,"ID",33,mingar,MINGAR,z,,,,,,0.138020833,-0.1796875,0,0,0,,0,69,69,279,1,
,,,,,,,,,,,,,,,,,,59efd2b3d838ae000185123a,2020-08-10_18h10.10.971,lexical_decision_task_MP,2020.1.3,Win32,60,z,0,0.96371,,,,,,,,0.96371,0,,,,,,85,WORD,UN,33,rodent,SPRAWL,m,,,,,,0.138020833,-0.1796875,0,0,0,,0,70,70,144,1,
,,,,,,,,,,,,,,,,,,59efd2b3d838ae000185123a,2020-08-10_18h10.10.971,lexical_decision_task_MP,2020.1.3,Win32,60,m,0,0.61947,,,,,,,,0.61947,0,,,,,,265,NW,"ID",50,distar,DISTAR,z,,,,,,0.138020833,-0.1796875,0,0,0,,0,71,71,324,1,
,,,,,,,,,,,,,,,,,,59efd2b3d838ae000185123a,2020-08-10_18h10.10.971,lexical_decision_task_MP,2020.1.3,Win32,60,m,1,0.73951,,,,,,,,0.73951,1,,,,,,174,WORD,UN,50,fabric,TURKEY,m,,,,,,0.138020833,-0.1796875,0,0,0,,0,72,72,233,1,
,,,,,,,,,,,,,,,,,,59efd2b3d838ae000185123a,2020-08-10_18h10.10.971,lexical_decision_task_MP,2020.1.3,Win32,60,z,1,0.659565,,,,,,,,0.659565,1,,,,,,381,NW,UN,50,sarley,HUNIEK,z,,,,,,0.138020833,-0.1796875,0,0,0,,0,73,73,440,1,
,,,,,,,,,,,,,,,,,,59efd2b3d838ae000185123a,2020-08-10_18h10.10.971,lexical_decision_task_MP,2020.1.3,Win32,60,z,1,0.67075,,,,,,,,0.67075,1,,,,,,385,NW,UN,50,ancust,VEIGMA,z,,,,,,0.138020833,-0.1796875,0,0,0,,0,74,74,444,1,
,,,,,,,,,,,,,,,,,,59efd2b3d838ae000185123a,2020-08-10_18h10.10.971,lexical_decision_task_MP,2020.1.3,Win32,60,m,1,0.56872,,,,,,,,0.56872,1,,,,,,1,WORD,"ID",50,fright,FRIGHT,m,,,,,,0.138020833,-0.1796875,0,0,0,,0,75,75,60,1,
,,,,,,,,,,,,,,,,,,59efd2b3d838ae000185123a,2020-08-10_18h10.10.971,lexical_decision_task_MP,2020.1.3,Win32,60,z,1,0.598935,,,,,,,,0.598935,1,,,,,,433,NW,"ID",33,drance,DRANCE,z,,,,,,0.138020833,-0.1796875,0,0,0,,0,76,76,252,1,
,,,,,,,,,,,,,,,,,,59efd2b3d838ae000185123a,2020-08-10_18h10.10.971,lexical_decision_task_MP,2020.1.3,Win32,60,z,1,0.670305,,,,,,,,0.670305,1,,,,,,382,NW,UN,50,aungre,SARLEY,z,,,,,,0.138020833,-0.1796875,0,0,0,,0,77,77,441,1,
,,,,,,,,,,,,,,,,,,59efd2b3d838ae000185123a,2020-08-10_18h10.10.971,lexical_decision_task_MP,2020.1.3,Win32,60,z,1,0.82872,,,,,,,,0.82872,1,,,,,,358,NW,UN,33,fonver,FLEACK,z,,,,,,0.138020833,-0.1796875,0,0,0,,0,78,78,417,1,
,,,,,,,,,,,,,,,,,,59efd2b3d838ae000185123a,2020-08-10_18h10.10.971,lexical_decision_task_MP,2020.1.3,Win32,60,z,1,0.687085,,,,,,,,0.687085,1,,,,,,305,NW,UN,33,sounge,FORGLE,z,,,,,,0.138020833,-0.1796875,0,0,0,,0,79,79,364,1,
,,,,,,,,,,,,,,,,,,59efd2b3d838ae000185123a,2020-08-10_18h10.10.971,lexical_decision_task_MP,2020.1.3,Win32,60,m,1,0.513695,,,,,,,,0.513695,1,,,,,,7,WORD,"ID",50,anchor,ANCHOR,m,,,,,,0.138020833,-0.1796875,0,0,0,,0,80,80,66,1,
,,,,,,,,,,,,,,,,,,59efd2b3d838ae000185123a,2020-08-10_18h10.10.971,lexical_decision_task_MP,2020.1.3,Win32,60,z,0,0.581,,,,,,,,0.581,0,,,,,,30,WORD,"ID",50,orient,ORIENT,m,,,,,,0.138020833,-0.1796875,0,0,0,,0,81,81,89,1,
,,,,,,,,,,,,,,,,,,59efd2b3d838ae000185123a,2020-08-10_18h10.10.971,lexical_decision_task_MP,2020.1.3,Win32,60,m,1,0.5811,,,,,,,,0.5811,1,,,,,,111,WORD,UN,33,breath,INDUCE,m,,,,,,0.138020833,-0.1796875,0,0,0,,0,82,82,170,1,
,,,,,,,,,,,,,,,,,,59efd2b3d838ae000185123a,2020-08-10_18h10.10.971,lexical_decision_task_MP,2020.1.3,Win32,60,m,1,0.49731,,,,,,,,0.49731,1,,,,,,223,WORD,"ID",33,kidney,KIDNEY,m,,,,,,0.138020833,-0.1796875,0,0,0,,0,83,83,42,1,
,,,,,,,,,,,,,,,,,,59efd2b3d838ae000185123a,2020-08-10_18h10.10.971,lexical_decision_task_MP,2020.1.3,Win32,60,z,0,0.614365,,,,,,,,0.614365,0,,,,,,23,WORD,"ID",50,wealth,WEALTH,m,,,,,,0.138020833,-0.1796875,0,0,0,,0,84,84,82,1,
,,,,,,,,,,,,,,,,,,59efd2b3d838ae000185123a,2020-08-10_18h10.10.971,lexical_decision_task_MP,2020.1.3,Win32,60,z,1,0.69918,,,,,,,,0.69918,1,,,,,,313,NW,UN,33,sprine,PAURSE,z,,,,,,0.138020833,-0.1796875,0,0,0,,0,85,85,372,1,
,,,,,,,,,,,,,,,,,,59efd2b3d838ae000185123a,2020-08-10_18h10.10.971,lexical_decision_task_MP,2020.1.3,Win32,60,m,1,0.533055,,,,,,,,0.533055,1,,,,,,160,WORD,UN,50,pastor,VIOLET,m,,,,,,0.138020833,-0.1796875,0,0,0,,0,86,86,219,1,
,,,,,,,,,,,,,,,,,,59efd2b3d838ae000185123a,2020-08-10_18h10.10.971,lexical_decision_task_MP,2020.1.3,Win32,60,m,1,0.591225,,,,,,,,0.591225,1,,,,,,83,WORD,UN,33,mortal,RESULT,m,,,,,,0.138020833,-0.1796875,0,0,0,,0,87,87,142,1,
,,,,,,,,,,,,,,,,,,59efd2b3d838ae000185123a,2020-08-10_18h10.10.971,lexical_decision_task_MP,2020.1.3,Win32,60,m,1,1.115815,,,,,,,,1.115815,1,,,,,,100,WORD,UN,33,wrench,CARBON,m,,,,,,0.138020833,-0.1796875,0,0,0,,0,88,88,159,1,
,,,,,,,,,,,,,,,,,,59efd2b3d838ae000185123a,2020-08-10_18h10.10.971,lexical_decision_task_MP,2020.1.3,Win32,60,m,1,0.712815,,,,,,,,0.712815,1,,,,,,69,WORD,UN,33,square,PLENTY,m,,,,,,0.138020833,-0.1796875,0,0,0,,0,89,89,128,1,
,,,,,,,,,,,,,,,,,,59efd2b3d838ae000185123a,2020-08-10_18h10.10.971,lexical_decision_task_MP,2020.1.3,Win32,60,m,0,1.049,,,,,,,,1.049,0,,,,,,409,NW,UN,50,tunory,ELOPIA,z,,,,,,0.138020833,-0.1796875,0,0,0,,0,90,90,468,1,
,,,,,,,,,,,,,,,,,,59efd2b3d838ae000185123a,2020-08-10_18h10.10.971,lexical_decision_task_MP,2020.1.3,Win32,60,m,0,0.76388,,,,,,,,0.76388,0,,,,,,332,NW,UN,33,catrie,VANGUE,z,,,,,,0.138020833,-0.1796875,0,0,0,,0,91,91,391,1,
,,,,,,,,,,,,,,,,,,59efd2b3d838ae000185123a,2020-08-10_18h10.10.971,lexical_decision_task_MP,2020.1.3,Win32,60,z,1,1.232535,,,,,,,,1.232535,1,,,,,,333,NW,UN,33,watmeg,CATRIE,z,,,,,,0.138020833,-0.1796875,0,0,0,,0,92,92,392,1,
,,,,,,,,,,,,,,,,,,59efd2b3d838ae000185123a,2020-08-10_18h10.10.971,lexical_decision_task_MP,2020.1.3,Win32,60,m,1,0.519585,,,,,,,,0.519585,1,,,,,,58,WORD,"ID",50,foster,FOSTER,m,,,,,,0.138020833,-0.1796875,0,0,0,,0,93,93,117,1,
,,,,,,,,,,,,,,,,,,59efd2b3d838ae000185123a,2020-08-10_18h10.10.971,lexical_decision_task_MP,2020.1.3,Win32,60,m,1,0.63257,,,,,,,,0.63257,1,,,,,,70,WORD,UN,33,garden,SQUARE,m,,,,,,0.138020833,-0.1796875,0,0,0,,0,94,94,129,1,
,,,,,,,,,,,,,,,,,,59efd2b3d838ae000185123a,2020-08-10_18h10.10.971,lexical_decision_task_MP,2020.1.3,Win32,60,m,0,0.550105,,,,,,,,0.550105,0,,,,,,467,NW,"ID",33,gorbie,GORBIE,z,,,,,,0.138020833,-0.1796875,0,0,0,,0,95,95,286,1,
,,,,,,,,,,,,,,,,,,59efd2b3d838ae000185123a,2020-08-10_18h10.10.971,lexical_decision_task_MP,2020.1.3,Win32,60,m,1,0.552875,,,,,,,,0.552875,1,,,,,,88,WORD,UN,33,permit,HUNGER,m,,,,,,0.138020833,-0.1796875,0,0,0,,0,96,96,147,1,
,,,,,,,,,,,,,,,,,,59efd2b3d838ae000185123a,2020-08-10_18h10.10.971,lexical_decision_task_MP,2020.1.3,Win32,60,z,1,0.59854,,,,,,,,0.59854,1,,,,,,340,NW,UN,33,myrtie,FIATCH,z,,,,,,0.138020833,-0.1796875,0,0,0,,0,97,97,399,1,
,,,,,,,,,,,,,,,,,,59efd2b3d838ae000185123a,2020-08-10_18h10.10.971,lexical_decision_task_MP,2020.1.3,Win32,60,m,0,0.5188,,,,,,,,0.5188,0,,,,,,389,NW,UN,50,hatrus,WITMER,z,,,,,,0.138020833,-0.1796875,0,0,0,,0,98,98,448,1,
,,,,,,,,,,,,,,,,,,59efd2b3d838ae000185123a,2020-08-10_18h10.10.971,lexical_decision_task_MP,2020.1.3,Win32,60,m,0,0.368665,,,,,,,,0.368665,0,,,,,,454,NW,"ID",33,scouge,SCOUGE,z,,,,,,0.138020833,-0.1796875,0,0,0,,0,99,99,273,1,
,,,,,,,,,,,,,,,,,,59efd2b3d838ae000185123a,2020-08-10_18h10.10.971,lexical_decision_task_MP,2020.1.3,Win32,60,m,1,0.448525,,,,,,,,0.448525,1,,,,,,17,WORD,"ID",50,charge,CHARGE,m,,,,,,0.138020833,-0.1796875,0,0,0,,0,100,100,76,1,
,,,,,,,,,,,,,,,,,,59efd2b3d838ae000185123a,2020-08-10_18h10.10.971,lexical_decision_task_MP,2020.1.3,Win32,60,z,0,0.55202,,,,,,,,0.55202,0,,,,,,59,WORD,"ID",50,splint,SPLINT,m,,,,,,0.138020833,-0.1796875,0,0,0,,0,101,101,118,1,
,,,,,,,,,,,,,,,,,,59efd2b3d838ae000185123a,2020-08-10_18h10.10.971,lexical_decision_task_MP,2020.1.3,Win32,60,z,1,0.494695,,,,,,,,0.494695,1,,,,,,472,NW,"ID",33,cigney,CIGNEY,z,,,,,,0.138020833,-0.1796875,0,0,0,,0,102,102,291,1,
,,,,,,,,,,,,,,,,,,59efd2b3d838ae000185123a,2020-08-10_18h10.10.971,lexical_decision_task_MP,2020.1.3,Win32,60,z,1,0.50497,,,,,,,,0.50497,1,,,,,,441,NW,"ID",33,rastoe,RASTOE,z,,,,,,0.138020833,-0.1796875,0,0,0,,0,103,103,260,1,
,,,,,,,,,,,,,,,,,,59efd2b3d838ae000185123a,2020-08-10_18h10.10.971,lexical_decision_task_MP,2020.1.3,Win32,60,m,1,0.59596,0.138020833,-0.1796875,1,0,0,0.56106,,0.59596,1,,,,,,230,WORD,"ID",33,fringe,FRINGE,m,,,,,,0.138020833,-0.1796875,1,0,0,,0,104,104,49,1,
,,,,,,,,,,,,,,,,,,59efd2b3d838ae000185123a,2020-08-10_18h10.10.971,lexical_decision_task_MP,2020.1.3,Win32,60,z,0,0.782505,,,,,,,,0.782505,0,,,,,,68,WORD,UN,33,plenty,FUMBLE,m,,,,,,0.138020833,-0.1796875,0,0,0,,0,105,105,127,1,
,,,,,,,,,,,,,,,,,,59efd2b3d838ae000185123a,2020-08-10_18h10.10.971,lexical_decision_task_MP,2020.1.3,Win32,60,m,1,0.51218,,,,,,,,0.51218,1,,,,,,120,WORD,UN,33,ponder,STRAIN,m,,,,,,0.138020833,-0.1796875,0,0,0,,0,106,106,179,1,
,,,,,,,,,,,,,,,,,,59efd2b3d838ae000185123a,2020-08-10_18h10.10.971,lexical_decision_task_MP,2020.1.3,Win32,60,z,0,0.7041,,,,,,,,0.7041,0,,,,,,159,WORD,UN,50,violet,DETAIL,m,,,,,,0.138020833,-0.1796875,0,0,0,,0,107,107,218,1,
,,,,,,,,,,,,,,,,,,59efd2b3d838ae000185123a,2020-08-10_18h10.10.971,lexical_decision_task_MP,2020.1.3,Win32,60,z,1,0.798775,,,,,,,,0.798775,1,,,,,,315,NW,UN,33,scregm,LASTON,z,,,,,,0.138020833,-0.1796875,0,0,0,,0,108,108,374,1,
,,,,,,,,,,,,,,,,,,59efd2b3d838ae000185123a,2020-08-10_18h10.10.971,lexical_decision_task_MP,2020.1.3,Win32,60,z,0,0.77253,,,,,,,,0.77253,0,,,,,,79,WORD,UN,33,family,THEORY,m,,,,,,0.138020833,-0.1796875,0,0,0,,0,109,109,138,1,
,,,,,,,,,,,,,,,,,,59efd2b3d838ae000185123a,2020-08-10_18h10.10.971,lexical_decision_task_MP,2020.1.3,Win32,60,z,1,0.73162,,,,,,,,0.73162,1,,,,,,331,NW,UN,33,vangue,GILFEW,z,,,,,,0.138020833,-0.1796875,0,0,0,,0,110,110,390,1,
,,,,,,,,,,,,,,,,,,59efd2b3d838ae000185123a,2020-08-10_18h10.10.971,lexical_decision_task_MP,2020.1.3,Win32,60,m,1,0.664465,,,,,,,,0.664465,1,,,,,,6,WORD,"ID",50,bundle,BUNDLE,m,,,,,,0.138020833,-0.1796875,0,0,0,,0,111,111,65,1,
,,,,,,,,,,,,,,,,,,59efd2b3d838ae000185123a,2020-08-10_18h10.10.971,lexical_decision_task_MP,2020.1.3,Win32,60,m,1,0.450085,,,,,,,,0.450085,1,,,,,,197,WORD,"ID",33,stream,STREAM,m,,,,,,0.138020833,-0.1796875,0,0,0,,0,112,112,16,1,
,,,,,,,,,,,,,,,,,,59efd2b3d838ae000185123a,2020-08-10_18h10.10.971,lexical_decision_task_MP,2020.1.3,Win32,60,m,1,0.6511,,,,,,,,0.6511,1,,,,,,121,WORD,UN,50,linger,THRIVE,m,,,,,,0.138020833,-0.1796875,0,0,0,,0,113,113,180,1,
,,,,,,,,,,,,,,,,,,59efd2b3d838ae000185123a,2020-08-10_18h10.10.971,lexical_decision_task_MP,2020.1.3,Win32,60,z,1,0.75138,,,,,,,,0.75138,1,,,,,,453,NW,"ID",33,bolvis,BOLVIS,z,,,,,,0.138020833,-0.1796875,0,0,0,,0,114,114,272,1,
,,,,,,,,,,,,,,,,,,59efd2b3d838ae000185123a,2020-08-10_18h10.10.971,lexical_decision_task_MP,2020.1.3,Win32,60,z,1,0.50733,,,,,,,,0.50733,1,,,,,,312,NW,UN,33,paurse,NERAWL,z,,,,,,0.138020833,-0.1796875,0,0,0,,0,115,115,371,1,
,,,,,,,,,,,,,,,,,,59efd2b3d838ae000185123a,2020-08-10_18h10.10.971,lexical_decision_task_MP,2020.1.3,Win32,60,m,1,0.606825,,,,,,,,0.606825,1,,,,,,55,WORD,"ID",50,stroke,STROKE,m,,,,,,0.138020833,-0.1796875,0,0,0,,0,116,116,114,1,
,,,,,,,,,,,,,,,,,,59efd2b3d838ae000185123a,2020-08-10_18h10.10.971,lexical_decision_task_MP,2020.1.3,Win32,60,z,1,0.54686,,,,,,,,0.54686,1,,,,,,283,NW,"ID",50,veralf,VERALF,z,,,,,,0.138020833,-0.1796875,0,0,0,,0,117,117,342,1,
,,,,,,,,,,,,,,,,,,59efd2b3d838ae000185123a,2020-08-10_18h10.10.971,lexical_decision_task_MP,2020.1.3,Win32,60,m,1,0.545955,,,,,,,,0.545955,1,,,,,,151,WORD,UN,50,rocket,MYSTIC,m,,,,,,0.138020833,-0.1796875,0,0,0,,0,118,118,210,1,
,,,,,,,,,,,,,,,,,,59efd2b3d838ae000185123a,2020-08-10_18h10.10.971,lexical_decision_task_MP,2020.1.3,Win32,60,z,0,0.550015,,,,,,,,0.550015,0,,,,,,224,WORD,"ID",33,period,PERIOD,m,,,,,,0.138020833,-0.1796875,0,0,0,,0,119,119,43,1,
,,,,,,,,,,,,,,,,,,59efd2b3d838ae000185123a,2020-08-10_18h10.10.971,lexical_decision_task_MP,2020.1.3,Win32,60,z,1,0.685865,,,,,,,,0.685865,1,,,,,,262,NW,"ID",50,quilew,QUILEW,z,,,,,,0.138020833,-0.1796875,0,0,0,space,0,120,120,321,1,43.457675
,,,,,,,,,,,,,,,,,,59efd2b3d838ae000185123a,2020-08-10_18h10.10.971,lexical_decision_task_MP,2020.1.3,Win32,60,z,0,0.73209,,,,,,,,0.73209,0,,,,,,212,WORD,"ID",33,verify,VERIFY,m,,,,,,0.138020833,-0.1796875,0,0,0,,0,121,121,31,1,
,,,,,,,,,,,,,,,,,,59efd2b3d838ae000185123a,2020-08-10_18h10.10.971,lexical_decision_task_MP,2020.1.3,Win32,60,z,1,0.59863,,,,,,,,0.59863,1,,,,,,449,NW,"ID",33,brunge,BRUNGE,z,,,,,,0.138020833,-0.1796875,0,0,0,,0,122,122,268,1,
,,,,,,,,,,,,,,,,,,59efd2b3d838ae000185123a,2020-08-10_18h10.10.971,lexical_decision_task_MP,2020.1.3,Win32,60,m,1,0.41694,,,,,,,,0.41694,1,,,,,,219,WORD,"ID",33,bucket,BUCKET,m,,,,,,0.138020833,-0.1796875,0,0,0,,0,123,123,38,1,
,,,,,,,,,,,,,,,,,,59efd2b3d838ae000185123a,2020-08-10_18h10.10.971,lexical_decision_task_MP,2020.1.3,Win32,60,m,1,0.464055,,,,,,,,0.464055,1,,,,,,37,WORD,"ID",50,insult,INSULT,m,,,,,,0.138020833,-0.1796875,0,0,0,,0,124,124,96,1,
,,,,,,,,,,,,,,,,,,59efd2b3d838ae000185123a,2020-08-10_18h10.10.971,lexical_decision_task_MP,2020.1.3,Win32,60,z,1,0.4823,,,,,,,,0.4823,1,,,,,,376,NW,UN,50,veigma,IGUARE,z,,,,,,0.138020833,-0.1796875,0,0,0,,0,125,125,435,1,
,,,,,,,,,,,,,,,,,,59efd2b3d838ae000185123a,2020-08-10_18h10.10.971,lexical_decision_task_MP,2020.1.3,Win32,60,m,1,0.50148,,,,,,,,0.50148,1,,,,,,167,WORD,UN,50,answer,DESIGN,m,,,,,,0.138020833,-0.1796875,0,0,0,,0,126,126,226,1,
,,,,,,,,,,,,,,,,,,59efd2b3d838ae000185123a,2020-08-10_18h10.10.971,lexical_decision_task_MP,2020.1.3,Win32,60,m,1,0.48368,,,,,,,,0.48368,1,,,,,,190,WORD,"ID",33,backup,BACKUP,m,,,,,,0.138020833,-0.1796875,0,0,0,,0,127,127,9,1,
,,,,,,,,,,,,,,,,,,59efd2b3d838ae000185123a,2020-08-10_18h10.10.971,lexical_decision_task_MP,2020.1.3,Win32,60,z,1,0.53581,,,,,,,,0.53581,1,,,,,,429,NW,"ID",33,funtle,FUNTLE,z,,,,,,0.138020833,-0.1796875,0,0,0,,0,128,128,248,1,
,,,,,,,,,,,,,,,,,,59efd2b3d838ae000185123a,2020-08-10_18h10.10.971,lexical_decision_task_MP,2020.1.3,Win32,60,m,0,0.435575,,,,,,,,0.435575,0,,,,,,462,NW,"ID",33,absult,ABSULT,z,,,,,,0.138020833,-0.1796875,0,0,0,,0,129,129,281,1,
,,,,,,,,,,,,,,,,,,59efd2b3d838ae000185123a,2020-08-10_18h10.10.971,lexical_decision_task_MP,2020.1.3,Win32,60,z,1,0.516525,,,,,,,,0.516525,1,,,,,,371,NW,UN,50,ramily,GEILOY,z,,,,,,0.138020833,-0.1796875,0,0,0,,0,130,130,430,1,
,,,,,,,,,,,,,,,,,,59efd2b3d838ae000185123a,2020-08-10_18h10.10.971,lexical_decision_task_MP,2020.1.3,Win32,60,m,1,0.53344,,,,,,,,0.53344,1,,,,,,65,WORD,UN,33,gospel,SYMBOL,m,,,,,,0.138020833,-0.1796875,0,0,0,,0,131,131,124,1,
,,,,,,,,,,,,,,,,,,59efd2b3d838ae000185123a,2020-08-10_18h10.10.971,lexical_decision_task_MP,2020.1.3,Win32,60,m,1,0.594655,,,,,,,,0.594655,1,,,,,,5,WORD,"ID",50,plunge,PLUNGE,m,,,,,,0.138020833,-0.1796875,0,0,0,,0,132,132,64,1,
,,,,,,,,,,,,,,,,,,59efd2b3d838ae000185123a,2020-08-10_18h10.10.971,lexical_decision_task_MP,2020.1.3,Win32,60,z,1,0.52805,,,,,,,,0.52805,1,,,,,,456,NW,"ID",33,broget,BROGET,z,,,,,,0.138020833,-0.1796875,0,0,0,,0,133,133,275,1,
,,,,,,,,,,,,,,,,,,59efd2b3d838ae000185123a,2020-08-10_18h10.10.971,lexical_decision_task_MP,2020.1.3,Win32,60,z,1,0.648435,,,,,,,,0.648435,1,,,,,,301,NW,UN,33,miluer,FAINCH,z,,,,,,0.138020833,-0.1796875,0,0,0,,0,134,134,360,1,
,,,,,,,,,,,,,,,,,,59efd2b3d838ae000185123a,2020-08-10_18h10.10.971,lexical_decision_task_MP,2020.1.3,Win32,60,m,1,0.47217,,,,,,,,0.47217,1,,,,,,168,WORD,UN,50,genius,ANSWER,m,,,,,,0.138020833,-0.1796875,0,0,0,,0,135,135,227,1,
,,,,,,,,,,,,,,,,,,59efd2b3d838ae000185123a,2020-08-10_18h10.10.971,lexical_decision_task_MP,2020.1.3,Win32,60,m,0,0.45301,,,,,,,,0.45301,0,,,,,,261,NW,"ID",50,stunch,STUNCH,z,,,,,,0.138020833,-0.1796875,0,0,0,,0,136,136,320,1,
,,,,,,,,,,,,,,,,,,59efd2b3d838ae000185123a,2020-08-10_18h10.10.971,lexical_decision_task_MP,2020.1.3,Win32,60,m,0,0.53594,,,,,,,,0.53594,0,,,,,,348,NW,UN,33,asylen,DUMPLE,z,,,,,,0.138020833,-0.1796875,0,0,0,,0,137,137,407,1,
,,,,,,,,,,,,,,,,,,59efd2b3d838ae000185123a,2020-08-10_18h10.10.971,lexical_decision_task_MP,2020.1.3,Win32,60,m,0,0.49661,,,,,,,,0.49661,0,,,,,,293,NW,"ID",50,swance,SWANCE,z,,,,,,0.138020833,-0.1796875,0,0,0,,0,138,138,352,1,
,,,,,,,,,,,,,,,,,,59efd2b3d838ae000185123a,2020-08-10_18h10.10.971,lexical_decision_task_MP,2020.1.3,Win32,60,m,1,0.447955,,,,,,,,0.447955,1,,,,,,78,WORD,UN,33,theory,COLUMN,m,,,,,,0.138020833,-0.1796875,0,0,0,,0,139,139,137,1,
,,,,,,,,,,,,,,,,,,59efd2b3d838ae000185123a,2020-08-10_18h10.10.971,lexical_decision_task_MP,2020.1.3,Win32,60,z,1,0.532185,,,,,,,,0.532185,1,,,,,,335,NW,UN,33,ghodus,DESION,z,,,,,,0.138020833,-0.1796875,0,0,0,,0,140,140,394,1,
,,,,,,,,,,,,,,,,,,59efd2b3d838ae000185123a,2020-08-10_18h10.10.971,lexical_decision_task_MP,2020.1.3,Win32,60,m,1,0.379975,,,,,,,,0.379975,1,,,,,,123,WORD,UN,50,blouse,STRIKE,m,,,,,,0.138020833,-0.1796875,0,0,0,,0,141,141,182,1,
,,,,,,,,,,,,,,,,,,59efd2b3d838ae000185123a,2020-08-10_18h10.10.971,lexical_decision_task_MP,2020.1.3,Win32,60,z,1,0.70356,,,,,,,,0.70356,1,,,,,,436,NW,"ID",33,frutan,FRUTAN,z,,,,,,0.138020833,-0.1796875,0,0,0,,0,142,142,255,1,
,,,,,,,,,,,,,,,,,,59efd2b3d838ae000185123a,2020-08-10_18h10.10.971,lexical_decision_task_MP,2020.1.3,Win32,60,m,0,0.497675,,,,,,,,0.497675,0,,,,,,264,NW,"ID",50,vackel,VACKEL,z,,,,,,0.138020833,-0.1796875,0,0,0,,0,143,143,323,1,
,,,,,,,,,,,,,,,,,,59efd2b3d838ae000185123a,2020-08-10_18h10.10.971,lexical_decision_task_MP,2020.1.3,Win32,60,m,1,0.482705,,,,,,,,0.482705,1,,,,,,40,WORD,"ID",50,convey,CONVEY,m,,,,,,0.138020833,-0.1796875,0,0,0,,0,144,144,99,1,
,,,,,,,,,,,,,,,,,,59efd2b3d838ae000185123a,2020-08-10_18h10.10.971,lexical_decision_task_MP,2020.1.3,Win32,60,z,0,0.469325,,,,,,,,0.469325,0,,,,,,25,WORD,"ID",50,domain,DOMAIN,m,,,,,,0.138020833,-0.1796875,0,0,0,,0,145,145,84,1,
,,,,,,,,,,,,,,,,,,59efd2b3d838ae000185123a,2020-08-10_18h10.10.971,lexical_decision_task_MP,2020.1.3,Win32,60,m,0,0.530945,,,,,,,,0.530945,0,,,,,,431,NW,"ID",33,chrums,CHRUMS,z,,,,,,0.138020833,-0.1796875,0,0,0,,0,146,146,250,1,
,,,,,,,,,,,,,,,,,,59efd2b3d838ae000185123a,2020-08-10_18h10.10.971,lexical_decision_task_MP,2020.1.3,Win32,60,m,1,0.582205,,,,,,,,0.582205,1,,,,,,107,WORD,UN,33,reckon,SLOGAN,m,,,,,,0.138020833,-0.1796875,0,0,0,,0,147,147,166,1,
,,,,,,,,,,,,,,,,,,59efd2b3d838ae000185123a,2020-08-10_18h10.10.971,lexical_decision_task_MP,2020.1.3,Win32,60,z,1,0.634045,,,,,,,,0.634045,1,,,,,,292,NW,"ID",50,ablint,ABLINT,z,,,,,,0.138020833,-0.1796875,0,0,0,,0,148,148,351,1,
,,,,,,,,,,,,,,,,,,59efd2b3d838ae000185123a,2020-08-10_18h10.10.971,lexical_decision_task_MP,2020.1.3,Win32,60,z,1,0.733065,,,,,,,,0.733065,1,,,,,,285,NW,"ID",50,prudge,PRUDGE,z,,,,,,0.138020833,-0.1796875,0,0,0,,0,149,149,344,1,
,,,,,,,,,,,,,,,,,,59efd2b3d838ae000185123a,2020-08-10_18h10.10.971,lexical_decision_task_MP,2020.1.3,Win32,60,m,1,0.514025,0.138020833,-0.1796875,1,0,0,0.28656,,0.514025,1,,,,,,32,WORD,"ID",50,buckle,BUCKLE,m,,,,,,0.138020833,-0.1796875,1,0,0,,0,150,150,91,1,
,,,,,,,,,,,,,,,,,,59efd2b3d838ae000185123a,2020-08-10_18h10.10.971,lexical_decision_task_MP,2020.1.3,Win32,60,z,1,0.561865,,,,,,,,0.561865,1,,,,,,394,NW,UN,50,colury,SPAQUX,z,,,,,,0.138020833,-0.1796875,0,0,0,,0,151,151,453,1,
,,,,,,,,,,,,,,,,,,59efd2b3d838ae000185123a,2020-08-10_18h10.10.971,lexical_decision_task_MP,2020.1.3,Win32,60,m,0,0.56504,,,,,,,,0.56504,0,,,,,,273,NW,"ID",50,sortel,SORTEL,z,,,,,,0.138020833,-0.1796875,0,0,0,,0,152,152,332,1,
,,,,,,,,,,,,,,,,,,59efd2b3d838ae000185123a,2020-08-10_18h10.10.971,lexical_decision_task_MP,2020.1.3,Win32,60,z,1,0.45078,,,,,,,,0.45078,1,,,,,,321,NW,UN,33,slanch,MIATOR,z,,,,,,0.138020833,-0.1796875,0,0,0,,0,153,153,380,1,
,,,,,,,,,,,,,,,,,,59efd2b3d838ae000185123a,2020-08-10_18h10.10.971,lexical_decision_task_MP,2020.1.3,Win32,60,z,1,0.750635,,,,,,,,0.750635,1,,,,,,317,NW,UN,33,reagly,WORBAL,z,,,,,,0.138020833,-0.1796875,0,0,0,,0,154,154,376,1,
,,,,,,,,,,,,,,,,,,59efd2b3d838ae000185123a,2020-08-10_18h10.10.971,lexical_decision_task_MP,2020.1.3,Win32,60,m,0,0.513025,,,,,,,,0.513025,0,,,,,,425,NW,"ID",33,frudge,FRUDGE,z,,,,,,0.138020833,-0.1796875,0,0,0,,0,155,155,244,1,
,,,,,,,,,,,,,,,,,,59efd2b3d838ae000185123a,2020-08-10_18h10.10.971,lexical_decision_task_MP,2020.1.3,Win32,60,m,1,0.46368,,,,,,,,0.46368,1,,,,,,193,WORD,"ID",33,object,OBJECT,m,,,,,,0.138020833,-0.1796875,0,0,0,,0,156,156,12,1,
,,,,,,,,,,,,,,,,,,59efd2b3d838ae000185123a,2020-08-10_18h10.10.971,lexical_decision_task_MP,2020.1.3,Win32,60,z,1,0.64729,,,,,,,,0.64729,1,,,,,,422,NW,"ID",33,alcoud,ALCOUD,z,,,,,,0.138020833,-0.1796875,0,0,0,,0,157,157,241,1,
,,,,,,,,,,,,,,,,,,59efd2b3d838ae000185123a,2020-08-10_18h10.10.971,lexical_decision_task_MP,2020.1.3,Win32,60,z,1,0.596895,,,,,,,,0.596895,1,,,,,,266,NW,"ID",50,varmit,VARMIT,z,,,,,,0.138020833,-0.1796875,0,0,0,,0,158,158,325,1,
,,,,,,,,,,,,,,,,,,59efd2b3d838ae000185123a,2020-08-10_18h10.10.971,lexical_decision_task_MP,2020.1.3,Win32,60,z,1,0.54542,,,,,,,,0.54542,1,,,,,,400,NW,UN,50,mustil,WEAROX,z,,,,,,0.138020833,-0.1796875,0,0,0,,0,159,159,459,1,
,,,,,,,,,,,,,,,,,,59efd2b3d838ae000185123a,2020-08-10_18h10.10.971,lexical_decision_task_MP,2020.1.3,Win32,60,m,1,0.499595,,,,,,,,0.499595,1,,,,,,208,WORD,"ID",33,hockey,HOCKEY,m,,,,,,0.138020833,-0.1796875,0,0,0,,0,160,160,27,1,
,,,,,,,,,,,,,,,,,,59efd2b3d838ae000185123a,2020-08-10_18h10.10.971,lexical_decision_task_MP,2020.1.3,Win32,60,m,1,0.55954,,,,,,,,0.55954,1,,,,,,194,WORD,"ID",33,absent,ABSENT,m,,,,,,0.138020833,-0.1796875,0,0,0,,0,161,161,13,1,
,,,,,,,,,,,,,,,,,,59efd2b3d838ae000185123a,2020-08-10_18h10.10.971,lexical_decision_task_MP,2020.1.3,Win32,60,z,1,0.525995,,,,,,,,0.525995,1,,,,,,274,NW,"ID",50,fumblo,FUMBLO,z,,,,,,0.138020833,-0.1796875,0,0,0,,0,162,162,333,1,
,,,,,,,,,,,,,,,,,,59efd2b3d838ae000185123a,2020-08-10_18h10.10.971,lexical_decision_task_MP,2020.1.3,Win32,60,z,1,0.598275,0.138020833,-0.1796875,1,0,0,0.575155,,0.598275,1,,,,,,479,NW,"ID",33,lobush,LOBUSH,z,,,,,,0.138020833,-0.1796875,1,0,0,,0,163,163,298,1,
,,,,,,,,,,,,,,,,,,59efd2b3d838ae000185123a,2020-08-10_18h10.10.971,lexical_decision_task_MP,2020.1.3,Win32,60,m,0,0.54912,,,,,,,,0.54912,0,,,,,,398,NW,UN,50,fouret,BLUNDE,z,,,,,,0.138020833,-0.1796875,0,0,0,,0,164,164,457,1,
,,,,,,,,,,,,,,,,,,59efd2b3d838ae000185123a,2020-08-10_18h10.10.971,lexical_decision_task_MP,2020.1.3,Win32,60,m,1,1.82653,,,,,,,,1.82653,1,,,,,,101,WORD,UN,33,direct,WRENCH,m,,,,,,0.138020833,-0.1796875,0,0,0,,0,165,165,160,1,
,,,,,,,,,,,,,,,,,,59efd2b3d838ae000185123a,2020-08-10_18h10.10.971,lexical_decision_task_MP,2020.1.3,Win32,60,z,0,0.75458,,,,,,,,0.75458,0,,,,,,195,WORD,"ID",33,resign,RESIGN,m,,,,,,0.138020833,-0.1796875,0,0,0,,0,166,166,14,1,
,,,,,,,,,,,,,,,,,,59efd2b3d838ae000185123a,2020-08-10_18h10.10.971,lexical_decision_task_MP,2020.1.3,Win32,60,m,1,0.615435,,,,,,,,0.615435,1,,,,,,162,WORD,UN,50,string,CANDLE,m,,,,,,0.138020833,-0.1796875,0,0,0,,0,167,167,221,1,
,,,,,,,,,,,,,,,,,,59efd2b3d838ae000185123a,2020-08-10_18h10.10.971,lexical_decision_task_MP,2020.1.3,Win32,60,z,1,0.76737,,,,,,,,0.76737,1,,,,,,459,NW,"ID",33,bafent,BAFENT,z,,,,,,0.138020833,-0.1796875,0,0,0,,0,168,168,278,1,
,,,,,,,,,,,,,,,,,,59efd2b3d838ae000185123a,2020-08-10_18h10.10.971,lexical_decision_task_MP,2020.1.3,Win32,60,m,1,0.440465,,,,,,,,0.440465,1,,,,,,233,WORD,"ID",33,nature,NATURE,m,,,,,,0.138020833,-0.1796875,0,0,0,,0,169,169,52,1,
,,,,,,,,,,,,,,,,,,59efd2b3d838ae000185123a,2020-08-10_18h10.10.971,lexical_decision_task_MP,2020.1.3,Win32,60,z,1,0.666435,,,,,,,,0.666435,1,,,,,,282,NW,"ID",50,porlex,PORLEX,z,,,,,,0.138020833,-0.1796875,0,0,0,,0,170,170,341,1,
,,,,,,,,,,,,,,,,,,59efd2b3d838ae000185123a,2020-08-10_18h10.10.971,lexical_decision_task_MP,2020.1.3,Win32,60,z,1,0.670415,,,,,,,,0.670415,1,,,,,,329,NW,UN,33,kensom,YARIKE,z,,,,,,0.138020833,-0.1796875,0,0,0,,0,171,171,388,1,
,,,,,,,,,,,,,,,,,,59efd2b3d838ae000185123a,2020-08-10_18h10.10.971,lexical_decision_task_MP,2020.1.3,Win32,60,z,1,0.56234,,,,,,,,0.56234,1,,,,,,428,NW,"ID",33,tandly,TANDLY,z,,,,,,0.138020833,-0.1796875,0,0,0,,0,172,172,247,1,
,,,,,,,,,,,,,,,,,,59efd2b3d838ae000185123a,2020-08-10_18h10.10.971,lexical_decision_task_MP,2020.1.3,Win32,60,m,0,0.54437,,,,,,,,0.54437,0,,,,,,411,NW,UN,50,jiluer,ORCHIN,z,,,,,,0.138020833,-0.1796875,0,0,0,,0,173,173,470,1,
,,,,,,,,,,,,,,,,,,59efd2b3d838ae000185123a,2020-08-10_18h10.10.971,lexical_decision_task_MP,2020.1.3,Win32,60,m,1,0.675315,,,,,,,,0.675315,1,,,,,,198,WORD,"ID",33,wicked,WICKED,m,,,,,,0.138020833,-0.1796875,0,0,0,,0,174,174,17,1,
,,,,,,,,,,,,,,,,,,59efd2b3d838ae000185123a,2020-08-10_18h10.10.971,lexical_decision_task_MP,2020.1.3,Win32,60,z,1,0.52945,,,,,,,,0.52945,1,,,,,,271,NW,"ID",50,aubrid,AUBRID,z,,,,,,0.138020833,-0.1796875,0,0,0,,0,175,175,330,1,
,,,,,,,,,,,,,,,,,,59efd2b3d838ae000185123a,2020-08-10_18h10.10.971,lexical_decision_task_MP,2020.1.3,Win32,60,m,1,0.53029,,,,,,,,0.53029,1,,,,,,236,WORD,"ID",33,pirate,PIRATE,m,,,,,,0.138020833,-0.1796875,0,0,0,,0,176,176,55,1,
,,,,,,,,,,,,,,,,,,59efd2b3d838ae000185123a,2020-08-10_18h10.10.971,lexical_decision_task_MP,2020.1.3,Win32,60,m,0,0.469625,,,,,,,,0.469625,0,,,,,,388,NW,UN,50,witmer,CRAGIN,z,,,,,,0.138020833,-0.1796875,0,0,0,,0,177,177,447,1,
,,,,,,,,,,,,,,,,,,59efd2b3d838ae000185123a,2020-08-10_18h10.10.971,lexical_decision_task_MP,2020.1.3,Win32,60,m,0,0.513845,0.138020833,-0.1796875,1,0,0,0.32261,,0.513845,0,,,,,,408,NW,UN,50,elopia,HURNIA,z,,,,,,0.138020833,-0.1796875,0,0,0,,0,178,178,467,1,
,,,,,,,,,,,,,,,,,,59efd2b3d838ae000185123a,2020-08-10_18h10.10.971,lexical_decision_task_MP,2020.1.3,Win32,60,z,1,0.701375,,,,,,,,0.701375,1,,,,,,465,NW,"ID",33,whivex,WHIVEX,z,,,,,,0.138020833,-0.1796875,0,0,0,,0,179,179,284,1,
,,,,,,,,,,,,,,,,,,59efd2b3d838ae000185123a,2020-08-10_18h10.10.971,lexical_decision_task_MP,2020.1.3,Win32,60,m,0,0.787395,,,,,,,,0.787395,0,,,,,,377,NW,UN,50,shrile,INJORE,z,,,,,,0.138020833,-0.1796875,0,0,0,,0,180,180,436,1,
,,,,,,,,,,,,,,,,,,59efd2b3d838ae000185123a,2020-08-10_18h10.10.971,lexical_decision_task_MP,2020.1.3,Win32,60,m,0,0.68259,,,,,,,,0.68259,0,,,,,,338,NW,UN,33,fachow,WREASH,z,,,,,,0.138020833,-0.1796875,0,0,0,,0,181,181,397,1,
,,,,,,,,,,,,,,,,,,59efd2b3d838ae000185123a,2020-08-10_18h10.10.971,lexical_decision_task_MP,2020.1.3,Win32,60,z,1,0.499195,0.138020833,-0.1796875,1,0,0,0.03173,,0.499195,1,,,,,,281,NW,"ID",50,melaty,MELATY,z,,,,,,0.138020833,-0.1796875,0,0,0,,0,182,182,340,1,
,,,,,,,,,,,,,,,,,,59efd2b3d838ae000185123a,2020-08-10_18h10.10.971,lexical_decision_task_MP,2020.1.3,Win32,60,m,1,0.93607,,,,,,,,0.93607,1,,,,,,156,WORD,UN,50,depart,CRADLE,m,,,,,,0.138020833,-0.1796875,0,0,0,,0,183,183,215,1,
,,,,,,,,,,,,,,,,,,59efd2b3d838ae000185123a,2020-08-10_18h10.10.971,lexical_decision_task_MP,2020.1.3,Win32,60,m,1,0.916015,,,,,,,,0.916015,1,,,,,,170,WORD,UN,50,dragon,POUNCE,m,,,,,,0.138020833,-0.1796875,0,0,0,,0,184,184,229,1,
,,,,,,,,,,,,,,,,,,59efd2b3d838ae000185123a,2020-08-10_18h10.10.971,lexical_decision_task_MP,2020.1.3,Win32,60,z,1,0.59782,,,,,,,,0.59782,1,,,,,,470,NW,"ID",33,crudio,CRUDIO,z,,,,,,0.138020833,-0.1796875,0,0,0,,0,185,185,289,1,
,,,,,,,,,,,,,,,,,,59efd2b3d838ae000185123a,2020-08-10_18h10.10.971,lexical_decision_task_MP,2020.1.3,Win32,60,m,1,0.56421,,,,,,,,0.56421,1,,,,,,216,WORD,"ID",33,behalf,BEHALF,m,,,,,,0.138020833,-0.1796875,0,0,0,,0,186,186,35,1,
,,,,,,,,,,,,,,,,,,59efd2b3d838ae000185123a,2020-08-10_18h10.10.971,lexical_decision_task_MP,2020.1.3,Win32,60,z,1,0.62919,,,,,,,,0.62919,1,,,,,,297,NW,"ID",50,fertic,FERTIC,z,,,,,,0.138020833,-0.1796875,0,0,0,,0,187,187,356,1,
,,,,,,,,,,,,,,,,,,59efd2b3d838ae000185123a,2020-08-10_18h10.10.971,lexical_decision_task_MP,2020.1.3,Win32,60,z,1,0.535285,,,,,,,,0.535285,1,,,,,,374,NW,UN,50,yorque,SLIANT,z,,,,,,0.138020833,-0.1796875,0,0,0,,0,188,188,433,1,
,,,,,,,,,,,,,,,,,,59efd2b3d838ae000185123a,2020-08-10_18h10.10.971,lexical_decision_task_MP,2020.1.3,Win32,60,z,1,0.52812,,,,,,,,0.52812,1,,,,,,373,NW,UN,50,sliant,BIGENT,z,,,,,,0.138020833,-0.1796875,0,0,0,,0,189,189,432,1,
,,,,,,,,,,,,,,,,,,59efd2b3d838ae000185123a,2020-08-10_18h10.10.971,lexical_decision_task_MP,2020.1.3,Win32,60,m,1,0.64928,,,,,,,,0.64928,1,,,,,,180,WORD,UN,50,thrive,SILENT,m,,,,,,0.138020833,-0.1796875,0,0,0,,0,190,190,239,1,
,,,,,,,,,,,,,,,,,,59efd2b3d838ae000185123a,2020-08-10_18h10.10.971,lexical_decision_task_MP,2020.1.3,Win32,60,m,1,0.591535,,,,,,,,0.591535,1,,,,,,74,WORD,UN,33,trophy,PLAQUE,m,,,,,,0.138020833,-0.1796875,0,0,0,,0,191,191,133,1,
,,,,,,,,,,,,,,,,,,59efd2b3d838ae000185123a,2020-08-10_18h10.10.971,lexical_decision_task_MP,2020.1.3,Win32,60,z,1,0.46997,,,,,,,,0.46997,1,,,,,,390,NW,UN,50,theldy,HATRUS,z,,,,,,0.138020833,-0.1796875,0,0,0,,0,192,192,449,1,
,,,,,,,,,,,,,,,,,,59efd2b3d838ae000185123a,2020-08-10_18h10.10.971,lexical_decision_task_MP,2020.1.3,Win32,60,z,0,0.51715,,,,,,,,0.51715,0,,,,,,137,WORD,UN,50,melody,FINGER,m,,,,,,0.138020833,-0.1796875,0,0,0,,0,193,193,196,1,
,,,,,,,,,,,,,,,,,,59efd2b3d838ae000185123a,2020-08-10_18h10.10.971,lexical_decision_task_MP,2020.1.3,Win32,60,z,1,0.659915,,,,,,,,0.659915,1,,,,,,406,NW,UN,50,suiver,NOUPLY,z,,,,,,0.138020833,-0.1796875,0,0,0,,0,194,194,465,1,
,,,,,,,,,,,,,,,,,,59efd2b3d838ae000185123a,2020-08-10_18h10.10.971,lexical_decision_task_MP,2020.1.3,Win32,60,m,1,0.63496,,,,,,,,0.63496,1,,,,,,38,WORD,"ID",50,powder,POWDER,m,,,,,,0.138020833,-0.1796875,0,0,0,,0,195,195,97,1,
,,,,,,,,,,,,,,,,,,59efd2b3d838ae000185123a,2020-08-10_18h10.10.971,lexical_decision_task_MP,2020.1.3,Win32,60,z,0,0.583965,,,,,,,,0.583965,0,,,,,,234,WORD,"ID",33,clumsy,CLUMSY,m,,,,,,0.138020833,-0.1796875,0,0,0,,0,196,196,53,1,
,,,,,,,,,,,,,,,,,,59efd2b3d838ae000185123a,2020-08-10_18h10.10.971,lexical_decision_task_MP,2020.1.3,Win32,60,z,1,0.569145,,,,,,,,0.569145,1,,,,,,320,NW,UN,33,miator,JOCKAL,z,,,,,,0.138020833,-0.1796875,0,0,0,,0,197,197,379,1,
,,,,,,,,,,,,,,,,,,59efd2b3d838ae000185123a,2020-08-10_18h10.10.971,lexical_decision_task_MP,2020.1.3,Win32,60,z,1,0.651945,,,,,,,,0.651945,1,,,,,,365,NW,UN,50,toshel,GUAIRT,z,,,,,,0.138020833,-0.1796875,0,0,0,,0,198,198,424,1,
,,,,,,,,,,,,,,,,,,59efd2b3d838ae000185123a,2020-08-10_18h10.10.971,lexical_decision_task_MP,2020.1.3,Win32,60,m,1,0.649705,,,,,,,,0.649705,1,,,,,,209,WORD,"ID",33,search,SEARCH,m,,,,,,0.138020833,-0.1796875,0,0,0,,0,199,199,28,1,
,,,,,,,,,,,,,,,,,,59efd2b3d838ae000185123a,2020-08-10_18h10.10.971,lexical_decision_task_MP,2020.1.3,Win32,60,m,1,0.5141,,,,,,,,0.5141,1,,,,,,218,WORD,"ID",33,shrink,SHRINK,m,,,,,,0.138020833,-0.1796875,0,0,0,,0,200,200,37,1,
,,,,,,,,,,,,,,,,,,59efd2b3d838ae000185123a,2020-08-10_18h10.10.971,lexical_decision_task_MP,2020.1.3,Win32,60,z,1,0.702145,,,,,,,,0.702145,1,,,,,,325,NW,UN,33,iguade,THRUSE,z,,,,,,0.138020833,-0.1796875,0,0,0,,0,201,201,384,1,
,,,,,,,,,,,,,,,,,,59efd2b3d838ae000185123a,2020-08-10_18h10.10.971,lexical_decision_task_MP,2020.1.3,Win32,60,m,1,0.61572,,,,,,,,0.61572,1,,,,,,114,WORD,UN,33,guitar,PLACID,m,,,,,,0.138020833,-0.1796875,0,0,0,,0,202,202,173,1,
,,,,,,,,,,,,,,,,,,59efd2b3d838ae000185123a,2020-08-10_18h10.10.971,lexical_decision_task_MP,2020.1.3,Win32,60,m,1,0.482905,,,,,,,,0.482905,1,,,,,,202,WORD,"ID",33,factor,FACTOR,m,,,,,,0.138020833,-0.1796875,0,0,0,,0,203,203,21,1,
,,,,,,,,,,,,,,,,,,59efd2b3d838ae000185123a,2020-08-10_18h10.10.971,lexical_decision_task_MP,2020.1.3,Win32,60,m,1,0.64784,,,,,,,,0.64784,1,,,,,,129,WORD,UN,50,stupid,MARVEL,m,,,,,,0.138020833,-0.1796875,0,0,0,,0,204,204,188,1,
,,,,,,,,,,,,,,,,,,59efd2b3d838ae000185123a,2020-08-10_18h10.10.971,lexical_decision_task_MP,2020.1.3,Win32,60,z,1,0.68544,,,,,,,,0.68544,1,,,,,,253,NW,"ID",50,resait,RESAIT,z,,,,,,0.138020833,-0.1796875,0,0,0,,0,205,205,312,1,
,,,,,,,,,,,,,,,,,,59efd2b3d838ae000185123a,2020-08-10_18h10.10.971,lexical_decision_task_MP,2020.1.3,Win32,60,z,1,0.733075,,,,,,,,0.733075,1,,,,,,242,NW,"ID",50,unwert,UNWERT,z,,,,,,0.138020833,-0.1796875,0,0,0,,0,206,206,301,1,
,,,,,,,,,,,,,,,,,,59efd2b3d838ae000185123a,2020-08-10_18h10.10.971,lexical_decision_task_MP,2020.1.3,Win32,60,z,1,0.646265,0.138020833,-0.1796875,1,0,0,0.31313,,0.646265,1,,,,,,306,NW,UN,33,kirafe,SOUNGE,z,,,,,,0.138020833,-0.1796875,0,0,0,,0,207,207,365,1,
,,,,,,,,,,,,,,,,,,59efd2b3d838ae000185123a,2020-08-10_18h10.10.971,lexical_decision_task_MP,2020.1.3,Win32,60,z,1,0.482465,,,,,,,,0.482465,1,,,,,,458,NW,"ID",33,barcet,BARCET,z,,,,,,0.138020833,-0.1796875,0,0,0,,0,208,208,277,1,
,,,,,,,,,,,,,,,,,,59efd2b3d838ae000185123a,2020-08-10_18h10.10.971,lexical_decision_task_MP,2020.1.3,Win32,60,z,1,0.5189,,,,,,,,0.5189,1,,,,,,362,NW,UN,50,breali,TIREAU,z,,,,,,0.138020833,-0.1796875,0,0,0,,0,209,209,421,1,
,,,,,,,,,,,,,,,,,,59efd2b3d838ae000185123a,2020-08-10_18h10.10.971,lexical_decision_task_MP,2020.1.3,Win32,60,m,1,0.598385,,,,,,,,0.598385,1,,,,,,50,WORD,"ID",50,snatch,SNATCH,m,,,,,,0.138020833,-0.1796875,0,0,0,,0,210,210,109,1,
,,,,,,,,,,,,,,,,,,59efd2b3d838ae000185123a,2020-08-10_18h10.10.971,lexical_decision_task_MP,2020.1.3,Win32,60,m,1,0.885125,,,,,,,,0.885125,1,,,,,,232,WORD,"ID",33,inject,INJECT,m,,,,,,0.138020833,-0.1796875,0,0,0,,0,211,211,51,1,
,,,,,,,,,,,,,,,,,,59efd2b3d838ae000185123a,2020-08-10_18h10.10.971,lexical_decision_task_MP,2020.1.3,Win32,60,m,1,0.517265,,,,,,,,0.517265,1,,,,,,21,WORD,"ID",50,simple,SIMPLE,m,,,,,,0.138020833,-0.1796875,0,0,0,,0,212,212,80,1,
,,,,,,,,,,,,,,,,,,59efd2b3d838ae000185123a,2020-08-10_18h10.10.971,lexical_decision_task_MP,2020.1.3,Win32,60,m,1,0.59713,0.138020833,-0.1796875,1,0,0,0.02801,,0.59713,1,,,,,,135,WORD,UN,50,bleach,IMPORT,m,,,,,,0.138020833,-0.1796875,0,0,0,,0,213,213,194,1,
,,,,,,,,,,,,,,,,,,59efd2b3d838ae000185123a,2020-08-10_18h10.10.971,lexical_decision_task_MP,2020.1.3,Win32,60,m,0,0.668645,,,,,,,,0.668645,0,,,,,,476,NW,"ID",33,josted,JOSTED,z,,,,,,0.138020833,-0.1796875,0,0,0,,0,214,214,295,1,
,,,,,,,,,,,,,,,,,,59efd2b3d838ae000185123a,2020-08-10_18h10.10.971,lexical_decision_task_MP,2020.1.3,Win32,60,z,0,0.781555,,,,,,,,0.781555,0,,,,,,207,WORD,"ID",33,wreath,WREATH,m,,,,,,0.138020833,-0.1796875,0,0,0,,0,215,215,26,1,
,,,,,,,,,,,,,,,,,,59efd2b3d838ae000185123a,2020-08-10_18h10.10.971,lexical_decision_task_MP,2020.1.3,Win32,60,z,1,0.739945,,,,,,,,0.739945,1,,,,,,450,NW,"ID",33,phrect,PHRECT,z,,,,,,0.138020833,-0.1796875,0,0,0,,0,216,216,269,1,
,,,,,,,,,,,,,,,,,,59efd2b3d838ae000185123a,2020-08-10_18h10.10.971,lexical_decision_task_MP,2020.1.3,Win32,60,m,0,0.78013,0.138020833,-0.1796875,1,0,0,0.44914,,0.78013,0,,,,,,410,NW,UN,50,orchin,TUNORY,z,,,,,,0.138020833,-0.1796875,0,0,0,,0,217,217,469,1,
,,,,,,,,,,,,,,,,,,59efd2b3d838ae000185123a,2020-08-10_18h10.10.971,lexical_decision_task_MP,2020.1.3,Win32,60,m,1,1.01525,,,,,,,,1.01525,1,,,,,,15,WORD,"ID",50,amount,AMOUNT,m,,,,,,0.138020833,-0.1796875,0,0,0,,0,218,218,74,1,
,,,,,,,,,,,,,,,,,,59efd2b3d838ae000185123a,2020-08-10_18h10.10.971,lexical_decision_task_MP,2020.1.3,Win32,60,z,1,0.652925,,,,,,,,0.652925,1,,,,,,455,NW,"ID",33,tondle,TONDLE,z,,,,,,0.138020833,-0.1796875,0,0,0,,0,219,219,274,1,
,,,,,,,,,,,,,,,,,,59efd2b3d838ae000185123a,2020-08-10_18h10.10.971,lexical_decision_task_MP,2020.1.3,Win32,60,m,1,1.04083,,,,,,,,1.04083,1,,,,,,116,WORD,UN,33,branch,TUMBLE,m,,,,,,0.138020833,-0.1796875,0,0,0,,0,220,220,175,1,
,,,,,,,,,,,,,,,,,,59efd2b3d838ae000185123a,2020-08-10_18h10.10.971,lexical_decision_task_MP,2020.1.3,Win32,60,m,1,0.750725,,,,,,,,0.750725,1,,,,,,184,WORD,"ID",33,sleazy,SLEAZY,m,,,,,,0.138020833,-0.1796875,0,0,0,,0,221,221,3,1,
,,,,,,,,,,,,,,,,,,59efd2b3d838ae000185123a,2020-08-10_18h10.10.971,lexical_decision_task_MP,2020.1.3,Win32,60,z,1,0.64925,,,,,,,,0.64925,1,,,,,,288,NW,"ID",50,yaceup,YACEUP,z,,,,,,0.138020833,-0.1796875,0,0,0,,0,222,222,347,1,
,,,,,,,,,,,,,,,,,,59efd2b3d838ae000185123a,2020-08-10_18h10.10.971,lexical_decision_task_MP,2020.1.3,Win32,60,m,1,0.84531,0.138020833,-0.1796875,1,0,0,0.497685,,0.84531,1,,,,,,161,WORD,UN,50,candle,PASTOR,m,,,,,,0.138020833,-0.1796875,0,0,0,,0,223,223,220,1,
,,,,,,,,,,,,,,,,,,59efd2b3d838ae000185123a,2020-08-10_18h10.10.971,lexical_decision_task_MP,2020.1.3,Win32,60,m,1,1.061165,,,,,,,,1.061165,1,,,,,,104,WORD,UN,33,number,STUDIO,m,,,,,,0.138020833,-0.1796875,0,0,0,,0,224,224,163,1,
,,,,,,,,,,,,,,,,,,59efd2b3d838ae000185123a,2020-08-10_18h10.10.971,lexical_decision_task_MP,2020.1.3,Win32,60,z,1,0.511945,,,,,,,,0.511945,1,,,,,,380,NW,UN,50,huniek,CAVORY,z,,,,,,0.138020833,-0.1796875,0,0,0,,0,225,225,439,1,
,,,,,,,,,,,,,,,,,,59efd2b3d838ae000185123a,2020-08-10_18h10.10.971,lexical_decision_task_MP,2020.1.3,Win32,60,z,1,0.816265,,,,,,,,0.816265,1,,,,,,316,NW,UN,33,worbal,SCREGM,z,,,,,,0.138020833,-0.1796875,0,0,0,,0,226,226,375,1,
,,,,,,,,,,,,,,,,,,59efd2b3d838ae000185123a,2020-08-10_18h10.10.971,lexical_decision_task_MP,2020.1.3,Win32,60,z,1,0.81913,,,,,,,,0.81913,1,,,,,,452,NW,"ID",33,surden,SURDEN,z,,,,,,0.138020833,-0.1796875,0,0,0,,0,227,227,271,1,
,,,,,,,,,,,,,,,,,,59efd2b3d838ae000185123a,2020-08-10_18h10.10.971,lexical_decision_task_MP,2020.1.3,Win32,60,m,1,0.757035,,,,,,,,0.757035,1,,,,,,227,WORD,"ID",33,seldom,SELDOM,m,,,,,,0.138020833,-0.1796875,0,0,0,,0,228,228,46,1,
,,,,,,,,,,,,,,,,,,59efd2b3d838ae000185123a,2020-08-10_18h10.10.971,lexical_decision_task_MP,2020.1.3,Win32,60,z,1,0.686845,,,,,,,,0.686845,1,,,,,,477,NW,"ID",33,photie,PHOTIE,z,,,,,,0.138020833,-0.1796875,0,0,0,,0,229,229,296,1,
,,,,,,,,,,,,,,,,,,59efd2b3d838ae000185123a,2020-08-10_18h10.10.971,lexical_decision_task_MP,2020.1.3,Win32,60,z,1,0.705835,,,,,,,,0.705835,1,,,,,,404,NW,UN,50,flumni,CLUIRM,z,,,,,,0.138020833,-0.1796875,0,0,0,,0,230,230,463,1,
,,,,,,,,,,,,,,,,,,59efd2b3d838ae000185123a,2020-08-10_18h10.10.971,lexical_decision_task_MP,2020.1.3,Win32,60,z,1,0.736545,,,,,,,,0.736545,1,,,,,,457,NW,"ID",33,wanigh,WANIGH,z,,,,,,0.138020833,-0.1796875,0,0,0,,0,231,231,276,1,
,,,,,,,,,,,,,,,,,,59efd2b3d838ae000185123a,2020-08-10_18h10.10.971,lexical_decision_task_MP,2020.1.3,Win32,60,m,1,0.8171,,,,,,,,0.8171,1,,,,,,171,WORD,UN,50,patrol,DEPART,m,,,,,,0.138020833,-0.1796875,0,0,0,,0,232,232,230,1,
,,,,,,,,,,,,,,,,,,59efd2b3d838ae000185123a,2020-08-10_18h10.10.971,lexical_decision_task_MP,2020.1.3,Win32,60,m,0,0.514165,,,,,,,,0.514165,0,,,,,,387,NW,UN,50,cragin,GRONCE,z,,,,,,0.138020833,-0.1796875,0,0,0,,0,233,233,446,1,
,,,,,,,,,,,,,,,,,,59efd2b3d838ae000185123a,2020-08-10_18h10.10.971,lexical_decision_task_MP,2020.1.3,Win32,60,z,1,1.16553,0.138020833,-0.1796875,1,0,0,0.698785,,1.16553,1,,,,,,241,NW,"ID",50,smenco,SMENCO,z,,,,,,0.138020833,-0.1796875,0,0,0,,0,234,234,300,1,
,,,,,,,,,,,,,,,,,,59efd2b3d838ae000185123a,2020-08-10_18h10.10.971,lexical_decision_task_MP,2020.1.3,Win32,60,z,0,0.88816,,,,,,,,0.88816,0,,,,,,221,WORD,"ID",33,mascot,MASCOT,m,,,,,,0.138020833,-0.1796875,0,0,0,,0,235,235,40,1,
,,,,,,,,,,,,,,,,,,59efd2b3d838ae000185123a,2020-08-10_18h10.10.971,lexical_decision_task_MP,2020.1.3,Win32,60,m,1,0.88167,,,,,,,,0.88167,1,,,,,,62,WORD,UN,33,launch,REGION,m,,,,,,0.138020833,-0.1796875,0,0,0,,0,236,236,121,1,
,,,,,,,,,,,,,,,,,,59efd2b3d838ae000185123a,2020-08-10_18h10.10.971,lexical_decision_task_MP,2020.1.3,Win32,60,m,1,0.614345,0.138020833,-0.1796875,1,0,0,0.046065,,0.614345,1,,,,,,105,WORD,UN,33,ransom,NUMBER,m,,,,,,0.138020833,-0.1796875,0,0,0,,0,237,237,164,1,
,,,,,,,,,,,,,,,,,,59efd2b3d838ae000185123a,2020-08-10_18h10.10.971,lexical_decision_task_MP,2020.1.3,Win32,60,m,1,0.56872,,,,,,,,0.56872,1,,,,,,12,WORD,"ID",50,orange,ORANGE,m,,,,,,0.138020833,-0.1796875,0,0,0,,0,238,238,71,1,
,,,,,,,,,,,,,,,,,,59efd2b3d838ae000185123a,2020-08-10_18h10.10.971,lexical_decision_task_MP,2020.1.3,Win32,60,z,1,0.69731,0.138020833,-0.1796875,1,0,0,0.11424,,0.69731,1,,,,,,396,NW,UN,50,camble,FLENGY,z,,,,,,0.138020833,-0.1796875,1,0,0,,0,239,239,455,1,
,,,,,,,,,,,,,,,,,,59efd2b3d838ae000185123a,2020-08-10_18h10.10.971,lexical_decision_task_MP,2020.1.3,Win32,60,m,1,0.880695,,,,,,,,0.880695,1,,,,,,13,WORD,"ID",50,strive,STRIVE,m,,,,,,0.138020833,-0.1796875,0,0,0,,0,240,240,72,1,
,,,,,,,,,,,,,,,,,,59efd2b3d838ae000185123a,2020-08-10_18h10.10.971,lexical_decision_task_MP,2020.1.3,Win32,60,m,1,0.64934,,,,,,,,0.64934,1,,,,,,31,WORD,"ID",50,weapon,WEAPON,m,,,,,,0.138020833,-0.1796875,0,0,0,space,0,241,241,90,1,25.70883
,,,,,,,,,,,,,,,,,,59efd2b3d838ae000185123a,2020-08-10_18h10.10.971,lexical_decision_task_MP,2020.1.3,Win32,60,m,1,0.729765,,,,,,,,0.729765,1,,,,,,34,WORD,"ID",50,jungle,JUNGLE,m,,,,,,0.138020833,-0.1796875,0,0,0,,0,242,242,93,1,
,,,,,,,,,,,,,,,,,,59efd2b3d838ae000185123a,2020-08-10_18h10.10.971,lexical_decision_task_MP,2020.1.3,Win32,60,m,0,0.44989,,,,,,,,0.44989,0,,,,,,268,NW,"ID",50,packes,PACKES,z,,,,,,0.138020833,-0.1796875,0,0,0,,0,243,243,327,1,
,,,,,,,,,,,,,,,,,,59efd2b3d838ae000185123a,2020-08-10_18h10.10.971,lexical_decision_task_MP,2020.1.3,Win32,60,z,1,0.486965,,,,,,,,0.486965,1,,,,,,303,NW,UN,33,cludie,FIREAM,z,,,,,,0.138020833,-0.1796875,0,0,0,,0,244,244,362,1,
,,,,,,,,,,,,,,,,,,59efd2b3d838ae000185123a,2020-08-10_18h10.10.971,lexical_decision_task_MP,2020.1.3,Win32,60,z,1,0.66316,,,,,,,,0.66316,1,,,,,,361,NW,UN,50,tireau,PAUCHE,z,,,,,,0.138020833,-0.1796875,0,0,0,,0,245,245,420,1,
,,,,,,,,,,,,,,,,,,59efd2b3d838ae000185123a,2020-08-10_18h10.10.971,lexical_decision_task_MP,2020.1.3,Win32,60,m,1,0.533255,,,,,,,,0.533255,1,,,,,,48,WORD,"ID",50,walnut,WALNUT,m,,,,,,0.138020833,-0.1796875,0,0,0,,0,246,246,107,1,
,,,,,,,,,,,,,,,,,,59efd2b3d838ae000185123a,2020-08-10_18h10.10.971,lexical_decision_task_MP,2020.1.3,Win32,60,z,0,0.516995,,,,,,,,0.516995,0,,,,,,110,WORD,UN,33,induce,POLITE,m,,,,,,0.138020833,-0.1796875,0,0,0,,0,247,247,169,1,
,,,,,,,,,,,,,,,,,,59efd2b3d838ae000185123a,2020-08-10_18h10.10.971,lexical_decision_task_MP,2020.1.3,Win32,60,m,1,0.503955,,,,,,,,0.503955,1,,,,,,41,WORD,"ID",50,spring,SPRING,m,,,,,,0.138020833,-0.1796875,0,0,0,,0,248,248,100,1,
,,,,,,,,,,,,,,,,,,59efd2b3d838ae000185123a,2020-08-10_18h10.10.971,lexical_decision_task_MP,2020.1.3,Win32,60,z,1,0.50224,,,,,,,,0.50224,1,,,,,,323,NW,UN,33,steikh,ROSAIL,z,,,,,,0.138020833,-0.1796875,0,0,0,,0,249,249,382,1,
,,,,,,,,,,,,,,,,,,59efd2b3d838ae000185123a,2020-08-10_18h10.10.971,lexical_decision_task_MP,2020.1.3,Win32,60,m,1,0.40518,,,,,,,,0.40518,1,,,,,,47,WORD,"ID",50,income,INCOME,m,,,,,,0.138020833,-0.1796875,0,0,0,,0,250,250,106,1,
,,,,,,,,,,,,,,,,,,59efd2b3d838ae000185123a,2020-08-10_18h10.10.971,lexical_decision_task_MP,2020.1.3,Win32,60,z,1,0.76719,,,,,,,,0.76719,1,,,,,,244,NW,"ID",50,eatric,EATRIC,z,,,,,,0.138020833,-0.1796875,0,0,0,,0,251,251,303,1,
,,,,,,,,,,,,,,,,,,59efd2b3d838ae000185123a,2020-08-10_18h10.10.971,lexical_decision_task_MP,2020.1.3,Win32,60,z,1,0.535875,,,,,,,,0.535875,1,,,,,,420,NW,UN,50,pauche,GUSHOP,z,,,,,,0.138020833,-0.1796875,0,0,0,,0,252,252,479,1,
,,,,,,,,,,,,,,,,,,59efd2b3d838ae000185123a,2020-08-10_18h10.10.971,lexical_decision_task_MP,2020.1.3,Win32,60,m,1,0.401555,,,,,,,,0.401555,1,,,,,,86,WORD,UN,33,filter,RODENT,m,,,,,,0.138020833,-0.1796875,0,0,0,,0,253,253,145,1,
,,,,,,,,,,,,,,,,,,59efd2b3d838ae000185123a,2020-08-10_18h10.10.971,lexical_decision_task_MP,2020.1.3,Win32,60,z,1,0.53393,,,,,,,,0.53393,1,,,,,,341,NW,UN,33,randow,MYRTIE,z,,,,,,0.138020833,-0.1796875,0,0,0,,0,254,254,400,1,
,,,,,,,,,,,,,,,,,,59efd2b3d838ae000185123a,2020-08-10_18h10.10.971,lexical_decision_task_MP,2020.1.3,Win32,60,m,0,0.481325,,,,,,,,0.481325,0,,,,,,310,NW,UN,33,sproly,DANIET,z,,,,,,0.138020833,-0.1796875,0,0,0,,0,255,255,369,1,
,,,,,,,,,,,,,,,,,,59efd2b3d838ae000185123a,2020-08-10_18h10.10.971,lexical_decision_task_MP,2020.1.3,Win32,60,m,1,0.36922,,,,,,,,0.36922,1,,,,,,182,WORD,"ID",33,winter,WINTER,m,,,,,,0.138020833,-0.1796875,0,0,0,,0,256,256,1,1,
,,,,,,,,,,,,,,,,,,59efd2b3d838ae000185123a,2020-08-10_18h10.10.971,lexical_decision_task_MP,2020.1.3,Win32,60,z,1,0.544725,,,,,,,,0.544725,1,,,,,,302,NW,UN,33,fiream,MILUER,z,,,,,,0.138020833,-0.1796875,0,0,0,,0,257,257,361,1,
,,,,,,,,,,,,,,,,,,59efd2b3d838ae000185123a,2020-08-10_18h10.10.971,lexical_decision_task_MP,2020.1.3,Win32,60,z,1,0.579975,,,,,,,,0.579975,1,,,,,,403,NW,UN,50,cluirm,BRUATS,z,,,,,,0.138020833,-0.1796875,0,0,0,,0,258,258,462,1,
,,,,,,,,,,,,,,,,,,59efd2b3d838ae000185123a,2020-08-10_18h10.10.971,lexical_decision_task_MP,2020.1.3,Win32,60,m,0,0.876355,,,,,,,,0.876355,0,,,,,,386,NW,UN,50,gronce,ANCUST,z,,,,,,0.138020833,-0.1796875,0,0,0,,0,259,259,445,1,
,,,,,,,,,,,,,,,,,,59efd2b3d838ae000185123a,2020-08-10_18h10.10.971,lexical_decision_task_MP,2020.1.3,Win32,60,m,0,0.465095,,,,,,,,0.465095,0,,,,,,474,NW,"ID",33,hablin,HABLIN,z,,,,,,0.138020833,-0.1796875,0,0,0,,0,260,260,293,1,
,,,,,,,,,,,,,,,,,,59efd2b3d838ae000185123a,2020-08-10_18h10.10.971,lexical_decision_task_MP,2020.1.3,Win32,60,m,1,0.605875,,,,,,,,0.605875,1,,,,,,143,WORD,UN,50,sponge,REASON,m,,,,,,0.138020833,-0.1796875,0,0,0,,0,261,261,202,1,
,,,,,,,,,,,,,,,,,,59efd2b3d838ae000185123a,2020-08-10_18h10.10.971,lexical_decision_task_MP,2020.1.3,Win32,60,z,0,0.54849,,,,,,,,0.54849,0,,,,,,142,WORD,UN,50,reason,SPRUCE,m,,,,,,0.138020833,-0.1796875,0,0,0,,0,262,262,201,1,
,,,,,,,,,,,,,,,,,,59efd2b3d838ae000185123a,2020-08-10_18h10.10.971,lexical_decision_task_MP,2020.1.3,Win32,60,m,0,0.690415,,,,,,,,0.690415,0,,,,,,294,NW,"ID",50,inhort,INHORT,z,,,,,,0.138020833,-0.1796875,0,0,0,,0,263,263,353,1,
,,,,,,,,,,,,,,,,,,59efd2b3d838ae000185123a,2020-08-10_18h10.10.971,lexical_decision_task_MP,2020.1.3,Win32,60,z,1,0.882175,,,,,,,,0.882175,1,,,,,,447,NW,"ID",33,gircue,GIRCUE,z,,,,,,-0.50390625,-0.153645833,0,0,0,,0,264,264,266,1,
,,,,,,,,,,,,,,,,,,59efd2b3d838ae000185123a,2020-08-10_18h10.10.971,lexical_decision_task_MP,2020.1.3,Win32,60,m,0,0.645875,,,,,,,,0.645875,0,,,,,,355,NW,UN,33,othnis,ZINGLY,z,,,,,,-0.567708333,-0.126302083,0,0,0,,0,265,265,414,1,
,,,,,,,,,,,,,,,,,,59efd2b3d838ae000185123a,2020-08-10_18h10.10.971,lexical_decision_task_MP,2020.1.3,Win32,60,m,0,0.547795,,,,,,,,0.547795,0,,,,,,440,NW,"ID",33,saride,SARIDE,z,,,,,,-0.567708333,-0.126302083,0,0,0,,0,266,266,259,1,
,,,,,,,,,,,,,,,,,,59efd2b3d838ae000185123a,2020-08-10_18h10.10.971,lexical_decision_task_MP,2020.1.3,Win32,60,m,1,0.583715,-0.567708333,-0.126302083,1,0,0,0.01627,,0.583715,1,,,,,,201,WORD,"ID",33,admire,ADMIRE,m,,,,,,-0.567708333,-0.126302083,0,0,0,,0,267,267,20,1,
,,,,,,,,,,,,,,,,,,59efd2b3d838ae000185123a,2020-08-10_18h10.10.971,lexical_decision_task_MP,2020.1.3,Win32,60,m,1,0.67801,,,,,,,,0.67801,1,,,,,,186,WORD,"ID",33,portal,PORTAL,m,,,,,,-0.567708333,-0.126302083,0,0,0,,0,268,268,5,1,
,,,,,,,,,,,,,,,,,,59efd2b3d838ae000185123a,2020-08-10_18h10.10.971,lexical_decision_task_MP,2020.1.3,Win32,60,z,0,0.627685,,,,,,,,0.627685,0,,,,,,169,WORD,UN,50,pounce,GENIUS,m,,,,,,-0.567708333,-0.126302083,0,0,0,,0,269,269,228,1,
,,,,,,,,,,,,,,,,,,59efd2b3d838ae000185123a,2020-08-10_18h10.10.971,lexical_decision_task_MP,2020.1.3,Win32,60,z,1,0.64967,,,,,,,,0.64967,1,,,,,,342,NW,UN,33,aimosy,RANDOW,z,,,,,,-0.567708333,-0.126302083,0,0,0,,0,270,270,401,1,
,,,,,,,,,,,,,,,,,,59efd2b3d838ae000185123a,2020-08-10_18h10.10.971,lexical_decision_task_MP,2020.1.3,Win32,60,m,1,0.804785,,,,,,,,0.804785,1,,,,,,54,WORD,"ID",50,ramble,RAMBLE,m,,,,,,-0.567708333,-0.126302083,0,0,0,,0,271,271,113,1,
,,,,,,,,,,,,,,,,,,59efd2b3d838ae000185123a,2020-08-10_18h10.10.971,lexical_decision_task_MP,2020.1.3,Win32,60,m,1,0.59851,,,,,,,,0.59851,1,,,,,,128,WORD,UN,50,marvel,SENIOR,m,,,,,,-0.567708333,-0.126302083,0,0,0,,0,272,272,187,1,
,,,,,,,,,,,,,,,,,,59efd2b3d838ae000185123a,2020-08-10_18h10.10.971,lexical_decision_task_MP,2020.1.3,Win32,60,m,1,0.514465,,,,,,,,0.514465,1,,,,,,112,WORD,UN,33,chorus,BREATH,m,,,,,,-0.567708333,-0.126302083,0,0,0,,0,273,273,171,1,
,,,,,,,,,,,,,,,,,,59efd2b3d838ae000185123a,2020-08-10_18h10.10.971,lexical_decision_task_MP,2020.1.3,Win32,60,m,1,0.572935,,,,,,,,0.572935,1,,,,,,39,WORD,"ID",50,insect,INSECT,m,,,,,,-0.567708333,-0.126302083,0,0,0,,0,274,274,98,1,
,,,,,,,,,,,,,,,,,,59efd2b3d838ae000185123a,2020-08-10_18h10.10.971,lexical_decision_task_MP,2020.1.3,Win32,60,m,1,0.542125,,,,,,,,0.542125,1,,,,,,175,WORD,UN,50,strife,FABRIC,m,,,,,,-0.567708333,-0.126302083,0,0,0,,0,275,275,234,1,
,,,,,,,,,,,,,,,,,,59efd2b3d838ae000185123a,2020-08-10_18h10.10.971,lexical_decision_task_MP,2020.1.3,Win32,60,z,1,0.69607,,,,,,,,0.69607,1,,,,,,278,NW,"ID",50,unighs,UNIGHS,z,,,,,,-0.567708333,-0.126302083,0,0,0,,0,276,276,337,1,
,,,,,,,,,,,,,,,,,,59efd2b3d838ae000185123a,2020-08-10_18h10.10.971,lexical_decision_task_MP,2020.1.3,Win32,60,m,1,0.42284,,,,,,,,0.42284,1,,,,,,235,WORD,"ID",33,grumpy,GRUMPY,m,,,,,,-0.567708333,-0.126302083,0,0,0,,0,277,277,54,1,
,,,,,,,,,,,,,,,,,,59efd2b3d838ae000185123a,2020-08-10_18h10.10.971,lexical_decision_task_MP,2020.1.3,Win32,60,m,1,0.65036,,,,,,,,0.65036,1,,,,,,90,WORD,UN,33,expand,RELISH,m,,,,,,-0.567708333,-0.126302083,0,0,0,,0,278,278,149,1,
,,,,,,,,,,,,,,,,,,59efd2b3d838ae000185123a,2020-08-10_18h10.10.971,lexical_decision_task_MP,2020.1.3,Win32,60,z,1,0.730305,,,,,,,,0.730305,1,,,,,,308,NW,UN,33,amiloy,PSETCH,z,,,,,,-0.567708333,-0.126302083,0,0,0,,0,279,279,367,1,
,,,,,,,,,,,,,,,,,,59efd2b3d838ae000185123a,2020-08-10_18h10.10.971,lexical_decision_task_MP,2020.1.3,Win32,60,m,0,0.678885,,,,,,,,0.678885,0,,,,,,277,NW,"ID",50,petain,PETAIN,z,,,,,,-0.567708333,-0.126302083,0,0,0,,0,280,280,336,1,
,,,,,,,,,,,,,,,,,,59efd2b3d838ae000185123a,2020-08-10_18h10.10.971,lexical_decision_task_MP,2020.1.3,Win32,60,z,1,0.635175,,,,,,,,0.635175,1,,,,,,432,NW,"ID",33,lunker,LUNKER,z,,,,,,-0.567708333,-0.126302083,0,0,0,,0,281,281,251,1,
,,,,,,,,,,,,,,,,,,59efd2b3d838ae000185123a,2020-08-10_18h10.10.971,lexical_decision_task_MP,2020.1.3,Win32,60,m,1,0.6615,,,,,,,,0.6615,1,,,,,,181,WORD,"ID",33,glance,GLANCE,m,,,,,,-0.567708333,-0.126302083,0,0,0,,0,282,282,0,1,
,,,,,,,,,,,,,,,,,,59efd2b3d838ae000185123a,2020-08-10_18h10.10.971,lexical_decision_task_MP,2020.1.3,Win32,60,z,1,0.68421,,,,,,,,0.68421,1,,,,,,442,NW,"ID",33,aboune,ABOUNE,z,,,,,,-0.567708333,-0.126302083,0,0,0,,0,283,283,261,1,
,,,,,,,,,,,,,,,,,,59efd2b3d838ae000185123a,2020-08-10_18h10.10.971,lexical_decision_task_MP,2020.1.3,Win32,60,m,1,0.650145,,,,,,,,0.650145,1,,,,,,163,WORD,UN,50,market,STRING,m,,,,,,-0.567708333,-0.126302083,0,0,0,,0,284,284,222,1,
,,,,,,,,,,,,,,,,,,59efd2b3d838ae000185123a,2020-08-10_18h10.10.971,lexical_decision_task_MP,2020.1.3,Win32,60,z,1,0.69805,,,,,,,,0.69805,1,,,,,,427,NW,"ID",33,schind,SCHIND,z,,,,,,-0.567708333,-0.126302083,0,0,0,,0,285,285,246,1,
,,,,,,,,,,,,,,,,,,59efd2b3d838ae000185123a,2020-08-10_18h10.10.971,lexical_decision_task_MP,2020.1.3,Win32,60,m,0,0.570155,,,,,,,,0.570155,0,,,,,,328,NW,UN,33,yarike,BROAKE,z,,,,,,-0.567708333,-0.126302083,0,0,0,,0,286,286,387,1,
,,,,,,,,,,,,,,,,,,59efd2b3d838ae000185123a,2020-08-10_18h10.10.971,lexical_decision_task_MP,2020.1.3,Win32,60,m,1,0.66443,,,,,,,,0.66443,1,,,,,,191,WORD,"ID",33,stable,STABLE,m,,,,,,-0.567708333,-0.126302083,0,0,0,,0,287,287,10,1,
,,,,,,,,,,,,,,,,,,59efd2b3d838ae000185123a,2020-08-10_18h10.10.971,lexical_decision_task_MP,2020.1.3,Win32,60,m,1,0.76277,,,,,,,,0.76277,1,,,,,,4,WORD,"ID",50,trench,TRENCH,m,,,,,,-0.567708333,-0.126302083,0,0,0,,0,288,288,63,1,
,,,,,,,,,,,,,,,,,,59efd2b3d838ae000185123a,2020-08-10_18h10.10.971,lexical_decision_task_MP,2020.1.3,Win32,60,z,1,0.683525,,,,,,,,0.683525,1,,,,,,419,NW,UN,50,gushop,SLOUNT,z,,,,,,-0.567708333,-0.126302083,0,0,0,,0,289,289,478,1,
,,,,,,,,,,,,,,,,,,59efd2b3d838ae000185123a,2020-08-10_18h10.10.971,lexical_decision_task_MP,2020.1.3,Win32,60,m,1,0.54769,,,,,,,,0.54769,1,,,,,,24,WORD,"ID",50,praise,PRAISE,m,,,,,,-0.567708333,-0.126302083,0,0,0,,0,290,290,83,1,
,,,,,,,,,,,,,,,,,,59efd2b3d838ae000185123a,2020-08-10_18h10.10.971,lexical_decision_task_MP,2020.1.3,Win32,60,z,1,0.629935,,,,,,,,0.629935,1,,,,,,334,NW,UN,33,desion,WATMEG,z,,,,,,-0.567708333,-0.126302083,0,0,0,,0,291,291,393,1,
,,,,,,,,,,,,,,,,,,59efd2b3d838ae000185123a,2020-08-10_18h10.10.971,lexical_decision_task_MP,2020.1.3,Win32,60,m,1,0.54152,,,,,,,,0.54152,1,,,,,,215,WORD,"ID",33,phobia,PHOBIA,m,,,,,,-0.567708333,-0.126302083,0,0,0,,0,292,292,34,1,
,,,,,,,,,,,,,,,,,,59efd2b3d838ae000185123a,2020-08-10_18h10.10.971,lexical_decision_task_MP,2020.1.3,Win32,60,m,0,0.978925,,,,,,,,0.978925,0,,,,,,352,NW,UN,33,clurey,TRINGE,z,,,,,,-0.567708333,-0.126302083,0,0,0,,0,293,293,411,1,
,,,,,,,,,,,,,,,,,,59efd2b3d838ae000185123a,2020-08-10_18h10.10.971,lexical_decision_task_MP,2020.1.3,Win32,60,z,1,0.86734,-0.567708333,-0.126302083,1,0,0,0.022155,,0.86734,1,,,,,,324,NW,UN,33,thruse,STEIKH,z,,,,,,-0.567708333,-0.126302083,0,0,0,,0,294,294,383,1,
,,,,,,,,,,,,,,,,,,59efd2b3d838ae000185123a,2020-08-10_18h10.10.971,lexical_decision_task_MP,2020.1.3,Win32,60,z,1,0.85005,,,,,,,,0.85005,1,,,,,,480,NW,"ID",33,robuly,ROBULY,z,,,,,,-0.584635417,-0.115885417,0,0,0,,0,295,295,299,1,
,,,,,,,,,,,,,,,,,,59efd2b3d838ae000185123a,2020-08-10_18h10.10.971,lexical_decision_task_MP,2020.1.3,Win32,60,z,1,0.634325,,,,,,,,0.634325,1,,,,,,248,NW,"ID",50,strole,STROLE,z,,,,,,-0.584635417,-0.115885417,0,0,0,,0,296,296,307,1,
,,,,,,,,,,,,,,,,,,59efd2b3d838ae000185123a,2020-08-10_18h10.10.971,lexical_decision_task_MP,2020.1.3,Win32,60,m,1,0.441285,,,,,,,,0.441285,1,,,,,,28,WORD,"ID",50,comedy,COMEDY,m,,,,,,-0.584635417,-0.115885417,0,0,0,,0,297,297,87,1,
,,,,,,,,,,,,,,,,,,59efd2b3d838ae000185123a,2020-08-10_18h10.10.971,lexical_decision_task_MP,2020.1.3,Win32,60,z,1,0.564425,,,,,,,,0.564425,1,,,,,,357,NW,UN,33,fleack,DERAIN,z,,,,,,-0.584635417,-0.115885417,0,0,0,,0,298,298,416,1,
,,,,,,,,,,,,,,,,,,59efd2b3d838ae000185123a,2020-08-10_18h10.10.971,lexical_decision_task_MP,2020.1.3,Win32,60,z,1,0.629325,,,,,,,,0.629325,1,,,,,,384,NW,UN,50,injore,GUESCO,z,,,,,,-0.584635417,-0.115885417,0,0,0,,0,299,299,443,1,
,,,,,,,,,,,,,,,,,,59efd2b3d838ae000185123a,2020-08-10_18h10.10.971,lexical_decision_task_MP,2020.1.3,Win32,60,m,0,0.484105,,,,,,,,0.484105,0,,,,,,269,NW,"ID",50,orchet,ORCHET,z,,,,,,-0.584635417,-0.115885417,0,0,0,,0,300,300,328,1,
,,,,,,,,,,,,,,,,,,59efd2b3d838ae000185123a,2020-08-10_18h10.10.971,lexical_decision_task_MP,2020.1.3,Win32,60,m,0,0.54832,,,,,,,,0.54832,0,,,,,,468,NW,"ID",33,wictor,WICTOR,z,,,,,,-0.584635417,-0.115885417,0,0,0,,0,301,301,287,1,
,,,,,,,,,,,,,,,,,,59efd2b3d838ae000185123a,2020-08-10_18h10.10.971,lexical_decision_task_MP,2020.1.3,Win32,60,m,0,0.481725,,,,,,,,0.481725,0,,,,,,473,NW,"ID",33,crible,CRIBLE,z,,,,,,-0.584635417,-0.115885417,0,0,0,,0,302,302,292,1,
,,,,,,,,,,,,,,,,,,59efd2b3d838ae000185123a,2020-08-10_18h10.10.971,lexical_decision_task_MP,2020.1.3,Win32,60,m,0,0.56592,,,,,,,,0.56592,0,,,,,,267,NW,"ID",50,pasink,PASINK,z,,,,,,-0.584635417,-0.115885417,0,0,0,,0,303,303,326,1,
,,,,,,,,,,,,,,,,,,59efd2b3d838ae000185123a,2020-08-10_18h10.10.971,lexical_decision_task_MP,2020.1.3,Win32,60,m,1,0.70498,,,,,,,,0.70498,1,,,,,,204,WORD,"ID",33,burden,BURDEN,m,,,,,,-0.584635417,-0.115885417,0,0,0,,0,304,304,23,1,
,,,,,,,,,,,,,,,,,,59efd2b3d838ae000185123a,2020-08-10_18h10.10.971,lexical_decision_task_MP,2020.1.3,Win32,60,m,1,0.51976,,,,,,,,0.51976,1,,,,,,27,WORD,"ID",50,scream,SCREAM,m,,,,,,-0.584635417,-0.115885417,0,0,0,,0,305,305,86,1,
,,,,,,,,,,,,,,,,,,59efd2b3d838ae000185123a,2020-08-10_18h10.10.971,lexical_decision_task_MP,2020.1.3,Win32,60,z,1,0.6845,,,,,,,,0.6845,1,,,,,,434,NW,"ID",33,pitrom,PITROM,z,,,,,,-0.584635417,-0.115885417,0,0,0,,0,306,306,253,1,
,,,,,,,,,,,,,,,,,,59efd2b3d838ae000185123a,2020-08-10_18h10.10.971,lexical_decision_task_MP,2020.1.3,Win32,60,z,1,0.64524,,,,,,,,0.64524,1,,,,,,344,NW,UN,33,absend,SCRILY,z,,,,,,-0.584635417,-0.115885417,0,0,0,,0,307,307,403,1,
,,,,,,,,,,,,,,,,,,59efd2b3d838ae000185123a,2020-08-10_18h10.10.971,lexical_decision_task_MP,2020.1.3,Win32,60,m,1,0.514905,,,,,,,,0.514905,1,,,,,,187,WORD,"ID",33,course,COURSE,m,,,,,,-0.584635417,-0.115885417,0,0,0,,0,308,308,6,1,
,,,,,,,,,,,,,,,,,,59efd2b3d838ae000185123a,2020-08-10_18h10.10.971,lexical_decision_task_MP,2020.1.3,Win32,60,z,1,0.61327,,,,,,,,0.61327,1,,,,,,263,NW,"ID",50,dolica,DOLICA,z,,,,,,-0.584635417,-0.115885417,0,0,0,,0,309,309,322,1,
,,,,,,,,,,,,,,,,,,59efd2b3d838ae000185123a,2020-08-10_18h10.10.971,lexical_decision_task_MP,2020.1.3,Win32,60,m,0,0.780605,,,,,,,,0.780605,0,,,,,,437,NW,"ID",33,snapel,SNAPEL,z,,,,,,-0.584635417,-0.115885417,0,0,0,,0,310,310,256,1,
,,,,,,,,,,,,,,,,,,59efd2b3d838ae000185123a,2020-08-10_18h10.10.971,lexical_decision_task_MP,2020.1.3,Win32,60,z,1,0.67047,,,,,,,,0.67047,1,,,,,,379,NW,UN,50,cavory,AUTING,z,,,,,,-0.584635417,-0.115885417,0,0,0,,0,311,311,438,1,
,,,,,,,,,,,,,,,,,,59efd2b3d838ae000185123a,2020-08-10_18h10.10.971,lexical_decision_task_MP,2020.1.3,Win32,60,z,1,0.499085,,,,,,,,0.499085,1,,,,,,426,NW,"ID",33,urivel,URIVEL,z,,,,,,-0.584635417,-0.115885417,0,0,0,,0,312,312,245,1,
,,,,,,,,,,,,,,,,,,59efd2b3d838ae000185123a,2020-08-10_18h10.10.971,lexical_decision_task_MP,2020.1.3,Win32,60,z,1,0.86701,,,,,,,,0.86701,1,,,,,,259,NW,"ID",50,soudal,SOUDAL,z,,,,,,-0.584635417,-0.115885417,0,0,0,,0,313,313,318,1,
,,,,,,,,,,,,,,,,,,59efd2b3d838ae000185123a,2020-08-10_18h10.10.971,lexical_decision_task_MP,2020.1.3,Win32,60,m,1,0.60921,,,,,,,,0.60921,1,,,,,,177,WORD,UN,50,inform,ADVENT,m,,,,,,-0.584635417,-0.115885417,0,0,0,,0,314,314,236,1,
,,,,,,,,,,,,,,,,,,59efd2b3d838ae000185123a,2020-08-10_18h10.10.971,lexical_decision_task_MP,2020.1.3,Win32,60,z,1,0.513275,,,,,,,,0.513275,1,,,,,,272,NW,"ID",50,damilt,DAMILT,z,,,,,,-0.584635417,-0.115885417,0,0,0,,0,315,315,331,1,
,,,,,,,,,,,,,,,,,,59efd2b3d838ae000185123a,2020-08-10_18h10.10.971,lexical_decision_task_MP,2020.1.3,Win32,60,z,0,0.613815,,,,,,,,0.613815,0,,,,,,138,WORD,UN,50,debris,MELODY,m,,,,,,-0.584635417,-0.115885417,0,0,0,,0,316,316,197,1,
,,,,,,,,,,,,,,,,,,59efd2b3d838ae000185123a,2020-08-10_18h10.10.971,lexical_decision_task_MP,2020.1.3,Win32,60,m,1,0.533755,,,,,,,,0.533755,1,,,,,,92,WORD,UN,33,public,STRAND,m,,,,,,-0.584635417,-0.115885417,0,0,0,,0,317,317,151,1,
,,,,,,,,,,,,,,,,,,59efd2b3d838ae000185123a,2020-08-10_18h10.10.971,lexical_decision_task_MP,2020.1.3,Win32,60,z,1,0.55192,,,,,,,,0.55192,1,,,,,,349,NW,UN,33,nagurs,ASYLEN,z,,,,,,-0.584635417,-0.115885417,0,0,0,,0,318,318,408,1,
,,,,,,,,,,,,,,,,,,59efd2b3d838ae000185123a,2020-08-10_18h10.10.971,lexical_decision_task_MP,2020.1.3,Win32,60,z,1,0.70328,,,,,,,,0.70328,1,,,,,,369,NW,UN,50,sleact,WRONCH,z,,,,,,-0.584635417,-0.115885417,0,0,0,,0,319,319,428,1,
,,,,,,,,,,,,,,,,,,59efd2b3d838ae000185123a,2020-08-10_18h10.10.971,lexical_decision_task_MP,2020.1.3,Win32,60,m,0,0.99908,,,,,,,,0.99908,0,,,,,,448,NW,"ID",33,sadent,SADENT,z,,,,,,-0.584635417,-0.115885417,0,0,0,,0,320,320,267,1,
,,,,,,,,,,,,,,,,,,59efd2b3d838ae000185123a,2020-08-10_18h10.10.971,lexical_decision_task_MP,2020.1.3,Win32,60,m,1,0.551995,,,,,,,,0.551995,1,,,,,,205,WORD,"ID",33,lounge,LOUNGE,m,,,,,,-0.584635417,-0.115885417,0,0,0,,0,321,321,24,1,
,,,,,,,,,,,,,,,,,,59efd2b3d838ae000185123a,2020-08-10_18h10.10.971,lexical_decision_task_MP,2020.1.3,Win32,60,m,1,0.529955,,,,,,,,0.529955,1,,,,,,22,WORD,"ID",50,jockey,JOCKEY,m,,,,,,-0.584635417,-0.115885417,0,0,0,,0,322,322,81,1,
,,,,,,,,,,,,,,,,,,59efd2b3d838ae000185123a,2020-08-10_18h10.10.971,lexical_decision_task_MP,2020.1.3,Win32,60,z,1,0.81527,,,,,,,,0.81527,1,,,,,,247,NW,"ID",50,blarge,BLARGE,z,,,,,,-0.584635417,-0.115885417,0,0,0,,0,323,323,306,1,
,,,,,,,,,,,,,,,,,,59efd2b3d838ae000185123a,2020-08-10_18h10.10.971,lexical_decision_task_MP,2020.1.3,Win32,60,z,0,0.45063,,,,,,,,0.45063,0,,,,,,43,WORD,"ID",50,tongue,TONGUE,m,,,,,,-0.584635417,-0.115885417,0,0,0,,0,324,324,102,1,
,,,,,,,,,,,,,,,,,,59efd2b3d838ae000185123a,2020-08-10_18h10.10.971,lexical_decision_task_MP,2020.1.3,Win32,60,m,0,0.632005,,,,,,,,0.632005,0,,,,,,391,NW,UN,50,rouncy,THELDY,z,,,,,,-0.584635417,-0.115885417,0,0,0,,0,325,325,450,1,
,,,,,,,,,,,,,,,,,,59efd2b3d838ae000185123a,2020-08-10_18h10.10.971,lexical_decision_task_MP,2020.1.3,Win32,60,z,1,0.92931,,,,,,,,0.92931,1,,,,,,279,NW,"ID",50,celond,CELOND,z,,,,,,-0.584635417,-0.115885417,0,0,0,,0,326,326,338,1,
,,,,,,,,,,,,,,,,,,59efd2b3d838ae000185123a,2020-08-10_18h10.10.971,lexical_decision_task_MP,2020.1.3,Win32,60,z,1,0.56492,,,,,,,,0.56492,1,,,,,,416,NW,UN,50,earoud,PATHEL,z,,,,,,-0.584635417,-0.115885417,0,0,0,,0,327,327,475,1,
,,,,,,,,,,,,,,,,,,59efd2b3d838ae000185123a,2020-08-10_18h10.10.971,lexical_decision_task_MP,2020.1.3,Win32,60,m,1,0.519155,,,,,,,,0.519155,1,,,,,,150,WORD,UN,50,mystic,RANDOM,m,,,,,,-0.584635417,-0.115885417,0,0,0,,0,328,328,209,1,
,,,,,,,,,,,,,,,,,,59efd2b3d838ae000185123a,2020-08-10_18h10.10.971,lexical_decision_task_MP,2020.1.3,Win32,60,m,1,0.6849,,,,,,,,0.6849,1,,,,,,127,WORD,UN,50,senior,CASTLE,m,,,,,,-0.584635417,-0.115885417,0,0,0,,0,329,329,186,1,
,,,,,,,,,,,,,,,,,,59efd2b3d838ae000185123a,2020-08-10_18h10.10.971,lexical_decision_task_MP,2020.1.3,Win32,60,m,1,0.52029,,,,,,,,0.52029,1,,,,,,3,WORD,"ID",50,knight,KNIGHT,m,,,,,,-0.584635417,-0.115885417,0,0,0,,0,330,330,62,1,
,,,,,,,,,,,,,,,,,,59efd2b3d838ae000185123a,2020-08-10_18h10.10.971,lexical_decision_task_MP,2020.1.3,Win32,60,m,1,0.674905,,,,,,,,0.674905,1,,,,,,75,WORD,UN,33,exotic,TROPHY,m,,,,,,-0.584635417,-0.115885417,0,0,0,,0,331,331,134,1,
,,,,,,,,,,,,,,,,,,59efd2b3d838ae000185123a,2020-08-10_18h10.10.971,lexical_decision_task_MP,2020.1.3,Win32,60,z,1,0.684705,,,,,,,,0.684705,1,,,,,,318,NW,UN,33,zomber,REAGLY,z,,,,,,-0.584635417,-0.115885417,0,0,0,,0,332,332,377,1,
,,,,,,,,,,,,,,,,,,59efd2b3d838ae000185123a,2020-08-10_18h10.10.971,lexical_decision_task_MP,2020.1.3,Win32,60,m,1,0.79767,,,,,,,,0.79767,1,,,,,,81,WORD,UN,33,stigma,FRIEND,m,,,,,,-0.584635417,-0.115885417,0,0,0,,0,333,333,140,1,
,,,,,,,,,,,,,,,,,,59efd2b3d838ae000185123a,2020-08-10_18h10.10.971,lexical_decision_task_MP,2020.1.3,Win32,60,z,1,0.74436,,,,,,,,0.74436,1,,,,,,343,NW,UN,33,scrily,AIMOSY,z,,,,,,-0.584635417,-0.115885417,0,0,0,,0,334,334,402,1,
,,,,,,,,,,,,,,,,,,59efd2b3d838ae000185123a,2020-08-10_18h10.10.971,lexical_decision_task_MP,2020.1.3,Win32,60,m,1,0.533405,,,,,,,,0.533405,1,,,,,,188,WORD,"ID",33,social,SOCIAL,m,,,,,,-0.584635417,-0.115885417,0,0,0,,0,335,335,7,1,
,,,,,,,,,,,,,,,,,,59efd2b3d838ae000185123a,2020-08-10_18h10.10.971,lexical_decision_task_MP,2020.1.3,Win32,60,m,1,0.53514,,,,,,,,0.53514,1,,,,,,103,WORD,UN,33,studio,BOUNCE,m,,,,,,-0.584635417,-0.115885417,0,0,0,,0,336,336,162,1,
,,,,,,,,,,,,,,,,,,59efd2b3d838ae000185123a,2020-08-10_18h10.10.971,lexical_decision_task_MP,2020.1.3,Win32,60,z,1,0.564345,,,,,,,,0.564345,1,,,,,,290,NW,"ID",50,splino,SPLINO,z,,,,,,-0.584635417,-0.115885417,0,0,0,,0,337,337,349,1,
,,,,,,,,,,,,,,,,,,59efd2b3d838ae000185123a,2020-08-10_18h10.10.971,lexical_decision_task_MP,2020.1.3,Win32,60,z,1,0.96176,,,,,,,,0.96176,1,,,,,,243,NW,"ID",50,musied,MUSIED,z,,,,,,-0.584635417,-0.115885417,0,0,0,,0,338,338,302,1,
,,,,,,,,,,,,,,,,,,59efd2b3d838ae000185123a,2020-08-10_18h10.10.971,lexical_decision_task_MP,2020.1.3,Win32,60,z,1,0.577395,,,,,,,,0.577395,1,,,,,,367,NW,UN,50,hornal,SLIQUE,z,,,,,,-0.584635417,-0.115885417,0,0,0,,0,339,339,426,1,
,,,,,,,,,,,,,,,,,,59efd2b3d838ae000185123a,2020-08-10_18h10.10.971,lexical_decision_task_MP,2020.1.3,Win32,60,m,1,0.649945,,,,,,,,0.649945,1,,,,,,82,WORD,UN,33,result,STIGMA,m,,,,,,-0.584635417,-0.115885417,0,0,0,,0,340,340,141,1,
,,,,,,,,,,,,,,,,,,59efd2b3d838ae000185123a,2020-08-10_18h10.10.971,lexical_decision_task_MP,2020.1.3,Win32,60,m,1,0.501085,,,,,,,,0.501085,1,,,,,,80,WORD,UN,33,friend,FAMILY,m,,,,,,-0.584635417,-0.115885417,0,0,0,,0,341,341,139,1,
,,,,,,,,,,,,,,,,,,59efd2b3d838ae000185123a,2020-08-10_18h10.10.971,lexical_decision_task_MP,2020.1.3,Win32,60,z,1,0.54715,,,,,,,,0.54715,1,,,,,,393,NW,UN,50,spaqux,GANOUS,z,,,,,,-0.584635417,-0.115885417,0,0,0,,0,342,342,452,1,
,,,,,,,,,,,,,,,,,,59efd2b3d838ae000185123a,2020-08-10_18h10.10.971,lexical_decision_task_MP,2020.1.3,Win32,60,z,1,0.649475,,,,,,,,0.649475,1,,,,,,463,NW,"ID",33,kispel,KISPEL,z,,,,,,-0.584635417,-0.115885417,0,0,0,,0,343,343,282,1,
,,,,,,,,,,,,,,,,,,59efd2b3d838ae000185123a,2020-08-10_18h10.10.971,lexical_decision_task_MP,2020.1.3,Win32,60,m,0,0.534355,,,,,,,,0.534355,0,,,,,,397,NW,UN,50,blunde,CAMBLE,z,,,,,,-0.584635417,-0.115885417,0,0,0,,0,344,344,456,1,
,,,,,,,,,,,,,,,,,,59efd2b3d838ae000185123a,2020-08-10_18h10.10.971,lexical_decision_task_MP,2020.1.3,Win32,60,m,1,0.666785,,,,,,,,0.666785,1,,,,,,99,WORD,UN,33,carbon,FLUENT,m,,,,,,-0.584635417,-0.115885417,0,0,0,,0,345,345,158,1,
,,,,,,,,,,,,,,,,,,59efd2b3d838ae000185123a,2020-08-10_18h10.10.971,lexical_decision_task_MP,2020.1.3,Win32,60,m,1,0.66097,,,,,,,,0.66097,1,,,,,,115,WORD,UN,33,tumble,GUITAR,m,,,,,,-0.584635417,-0.115885417,0,0,0,,0,346,346,174,1,
,,,,,,,,,,,,,,,,,,59efd2b3d838ae000185123a,2020-08-10_18h10.10.971,lexical_decision_task_MP,2020.1.3,Win32,60,m,1,0.486095,,,,,,,,0.486095,1,,,,,,146,WORD,UN,50,garlic,COUPLE,m,,,,,,-0.584635417,-0.115885417,0,0,0,,0,347,347,205,1,
,,,,,,,,,,,,,,,,,,59efd2b3d838ae000185123a,2020-08-10_18h10.10.971,lexical_decision_task_MP,2020.1.3,Win32,60,z,1,0.546665,,,,,,,,0.546665,1,,,,,,337,NW,UN,33,wreash,REJOLS,z,,,,,,-0.584635417,-0.115885417,0,0,0,,0,348,348,396,1,
,,,,,,,,,,,,,,,,,,59efd2b3d838ae000185123a,2020-08-10_18h10.10.971,lexical_decision_task_MP,2020.1.3,Win32,60,m,1,0.62774,,,,,,,,0.62774,1,,,,,,11,WORD,"ID",50,cruise,CRUISE,m,,,,,,-0.584635417,-0.115885417,0,0,0,,0,349,349,70,1,
,,,,,,,,,,,,,,,,,,59efd2b3d838ae000185123a,2020-08-10_18h10.10.971,lexical_decision_task_MP,2020.1.3,Win32,60,m,1,0.450805,,,,,,,,0.450805,1,,,,,,73,WORD,UN,33,plaque,SOURCE,m,,,,,,-0.584635417,-0.115885417,0,0,0,,0,350,350,132,1,
,,,,,,,,,,,,,,,,,,59efd2b3d838ae000185123a,2020-08-10_18h10.10.971,lexical_decision_task_MP,2020.1.3,Win32,60,z,1,0.62013,,,,,,,,0.62013,1,,,,,,304,NW,UN,33,forgle,CLUDIE,z,,,,,,-0.584635417,-0.115885417,0,0,0,,0,351,351,363,1,
,,,,,,,,,,,,,,,,,,59efd2b3d838ae000185123a,2020-08-10_18h10.10.971,lexical_decision_task_MP,2020.1.3,Win32,60,m,1,0.551895,,,,,,,,0.551895,1,,,,,,77,WORD,UN,33,column,RACKET,m,,,,,,-0.584635417,-0.115885417,0,0,0,,0,352,352,136,1,
,,,,,,,,,,,,,,,,,,59efd2b3d838ae000185123a,2020-08-10_18h10.10.971,lexical_decision_task_MP,2020.1.3,Win32,60,m,1,0.50794,,,,,,,,0.50794,1,,,,,,87,WORD,UN,33,sprawl,FILTER,m,,,,,,-0.584635417,-0.115885417,0,0,0,,0,353,353,146,1,
,,,,,,,,,,,,,,,,,,59efd2b3d838ae000185123a,2020-08-10_18h10.10.971,lexical_decision_task_MP,2020.1.3,Win32,60,z,1,0.644985,,,,,,,,0.644985,1,,,,,,326,NW,UN,33,plenac,IGUADE,z,,,,,,-0.584635417,-0.115885417,0,0,0,,0,354,354,385,1,
,,,,,,,,,,,,,,,,,,59efd2b3d838ae000185123a,2020-08-10_18h10.10.971,lexical_decision_task_MP,2020.1.3,Win32,60,m,0,0.649735,,,,,,,,0.649735,0,,,,,,252,NW,"ID",50,stapod,STAPOD,z,,,,,,-0.584635417,-0.115885417,0,0,0,,0,355,355,311,1,
,,,,,,,,,,,,,,,,,,59efd2b3d838ae000185123a,2020-08-10_18h10.10.971,lexical_decision_task_MP,2020.1.3,Win32,60,m,0,0.53358,,,,,,,,0.53358,0,,,,,,418,NW,UN,50,slount,SUIDLE,z,,,,,,-0.584635417,-0.115885417,0,0,0,,0,356,356,477,1,
,,,,,,,,,,,,,,,,,,59efd2b3d838ae000185123a,2020-08-10_18h10.10.971,lexical_decision_task_MP,2020.1.3,Win32,60,z,0,0.635185,-0.584635417,-0.114583333,1,0,0,0.09959,,0.635185,0,,,,,,199,WORD,"ID",33,invoke,INVOKE,m,,,,,,-0.584635417,-0.114583333,0,0,0,,0,357,357,18,1,
,,,,,,,,,,,,,,,,,,59efd2b3d838ae000185123a,2020-08-10_18h10.10.971,lexical_decision_task_MP,2020.1.3,Win32,60,z,1,0.700345,,,,,,,,0.700345,1,,,,,,255,NW,"ID",50,apight,APIGHT,z,,,,,,-0.584635417,-0.114583333,0,0,0,,0,358,358,314,1,
,,,,,,,,,,,,,,,,,,59efd2b3d838ae000185123a,2020-08-10_18h10.10.971,lexical_decision_task_MP,2020.1.3,Win32,60,m,0,0.781075,,,,,,,,0.781075,0,,,,,,424,NW,"ID",33,praile,PRAILE,z,,,,,,-0.584635417,-0.114583333,0,0,0,,0,359,359,243,1,
,,,,,,,,,,,,,,,,,,59efd2b3d838ae000185123a,2020-08-10_18h10.10.971,lexical_decision_task_MP,2020.1.3,Win32,60,z,1,0.70315,,,,,,,,0.70315,1,,,,,,256,NW,"ID",50,inlors,INLORS,z,,,,,,-0.584635417,-0.114583333,0,0,0,,0,360,360,315,1,
,,,,,,,,,,,,,,,,,,59efd2b3d838ae000185123a,2020-08-10_18h10.10.971,lexical_decision_task_MP,2020.1.3,Win32,60,z,0,0.645935,-0.584635417,-0.11328125,1,0,0,0.248095,,0.645935,0,,,,,,125,WORD,UN,50,enough,NICKEL,m,,,,,,-0.584635417,-0.11328125,0,0,0,,0,361,361,184,1,
,,,,,,,,,,,,,,,,,,59efd2b3d838ae000185123a,2020-08-10_18h10.10.971,lexical_decision_task_MP,2020.1.3,Win32,60,z,1,0.64803,,,,,,,,0.64803,1,,,,,,445,NW,"ID",33,minkel,MINKEL,z,,,,,,-0.584635417,-0.11328125,0,0,0,space,0,362,362,264,1,27.151005
,,,,,,,,,,,,,,,,,,59efd2b3d838ae000185123a,2020-08-10_18h10.10.971,lexical_decision_task_MP,2020.1.3,Win32,60,m,1,0.715425,,,,,,,,0.715425,1,,,,,,19,WORD,"ID",50,patron,PATRON,m,,,,,,-0.584635417,-0.11328125,0,0,0,,0,363,363,78,1,
,,,,,,,,,,,,,,,,,,59efd2b3d838ae000185123a,2020-08-10_18h10.10.971,lexical_decision_task_MP,2020.1.3,Win32,60,m,0,0.48135,,,,,,,,0.48135,0,,,,,,296,NW,"ID",50,beinch,BEINCH,z,,,,,,-0.584635417,-0.11328125,0,0,0,,0,364,364,355,1,
,,,,,,,,,,,,,,,,,,59efd2b3d838ae000185123a,2020-08-10_18h10.10.971,lexical_decision_task_MP,2020.1.3,Win32,60,m,1,0.472135,,,,,,,,0.472135,1,,,,,,200,WORD,"ID",33,beacon,BEACON,m,,,,,,-0.584635417,-0.11328125,0,0,0,,0,365,365,19,1,
,,,,,,,,,,,,,,,,,,59efd2b3d838ae000185123a,2020-08-10_18h10.10.971,lexical_decision_task_MP,2020.1.3,Win32,60,z,1,0.51895,,,,,,,,0.51895,1,,,,,,330,NW,UN,33,gilfew,KENSOM,z,,,,,,-0.584635417,-0.11328125,0,0,0,,0,366,366,389,1,
,,,,,,,,,,,,,,,,,,59efd2b3d838ae000185123a,2020-08-10_18h10.10.971,lexical_decision_task_MP,2020.1.3,Win32,60,m,1,0.50431,,,,,,,,0.50431,1,,,,,,238,WORD,"ID",33,flower,FLOWER,m,,,,,,-0.584635417,-0.11328125,0,0,0,,0,367,367,57,1,
,,,,,,,,,,,,,,,,,,59efd2b3d838ae000185123a,2020-08-10_18h10.10.971,lexical_decision_task_MP,2020.1.3,Win32,60,z,1,0.549455,,,,,,,,0.549455,1,,,,,,443,NW,"ID",33,dorsex,DORSEX,z,,,,,,-0.584635417,-0.11328125,0,0,0,,0,368,368,262,1,
,,,,,,,,,,,,,,,,,,59efd2b3d838ae000185123a,2020-08-10_18h10.10.971,lexical_decision_task_MP,2020.1.3,Win32,60,z,1,0.53467,,,,,,,,0.53467,1,,,,,,347,NW,UN,33,dumple,KERIFT,z,,,,,,-0.584635417,-0.11328125,0,0,0,,0,369,369,406,1,
,,,,,,,,,,,,,,,,,,59efd2b3d838ae000185123a,2020-08-10_18h10.10.971,lexical_decision_task_MP,2020.1.3,Win32,60,z,0,0.46936,,,,,,,,0.46936,0,,,,,,139,WORD,UN,50,prince,DEBRIS,m,,,,,,-0.584635417,-0.11328125,0,0,0,,0,370,370,198,1,
,,,,,,,,,,,,,,,,,,59efd2b3d838ae000185123a,2020-08-10_18h10.10.971,lexical_decision_task_MP,2020.1.3,Win32,60,z,1,0.481825,,,,,,,,0.481825,1,,,,,,401,NW,UN,50,syntic,MUSTIL,z,,,,,,-0.584635417,-0.11328125,0,0,0,,0,371,371,460,1,
,,,,,,,,,,,,,,,,,,59efd2b3d838ae000185123a,2020-08-10_18h10.10.971,lexical_decision_task_MP,2020.1.3,Win32,60,z,1,0.46838,,,,,,,,0.46838,1,,,,,,307,NW,UN,33,psetch,KIRAFE,z,,,,,,-0.584635417,-0.11328125,0,0,0,,0,372,372,366,1,
,,,,,,,,,,,,,,,,,,59efd2b3d838ae000185123a,2020-08-10_18h10.10.971,lexical_decision_task_MP,2020.1.3,Win32,60,m,1,0.466855,,,,,,,,0.466855,1,,,,,,98,WORD,UN,33,fluent,BELONG,m,,,,,,-0.584635417,-0.11328125,0,0,0,,0,373,373,157,1,
,,,,,,,,,,,,,,,,,,59efd2b3d838ae000185123a,2020-08-10_18h10.10.971,lexical_decision_task_MP,2020.1.3,Win32,60,m,1,0.43333,,,,,,,,0.43333,1,,,,,,185,WORD,"ID",33,bother,BOTHER,m,,,,,,-0.584635417,-0.11328125,0,0,0,,0,374,374,4,1,
,,,,,,,,,,,,,,,,,,59efd2b3d838ae000185123a,2020-08-10_18h10.10.971,lexical_decision_task_MP,2020.1.3,Win32,60,z,0,0.53313,,,,,,,,0.53313,0,,,,,,130,WORD,UN,50,quench,STUPID,m,,,,,,-0.584635417,-0.11328125,0,0,0,,0,375,375,189,1,
,,,,,,,,,,,,,,,,,,59efd2b3d838ae000185123a,2020-08-10_18h10.10.971,lexical_decision_task_MP,2020.1.3,Win32,60,z,1,0.522125,,,,,,,,0.522125,1,,,,,,414,NW,UN,50,higsta,SERBOL,z,,,,,,-0.584635417,-0.11328125,0,0,0,,0,376,376,473,1,
,,,,,,,,,,,,,,,,,,59efd2b3d838ae000185123a,2020-08-10_18h10.10.971,lexical_decision_task_MP,2020.1.3,Win32,60,m,1,0.48341,,,,,,,,0.48341,1,,,,,,189,WORD,"ID",33,censor,CENSOR,m,,,,,,-0.584635417,-0.11328125,0,0,0,,0,377,377,8,1,
,,,,,,,,,,,,,,,,,,59efd2b3d838ae000185123a,2020-08-10_18h10.10.971,lexical_decision_task_MP,2020.1.3,Win32,60,z,1,0.678365,,,,,,,,0.678365,1,,,,,,461,NW,"ID",33,justre,JUSTRE,z,,,,,,-0.584635417,-0.11328125,0,0,0,,0,378,378,280,1,
,,,,,,,,,,,,,,,,,,59efd2b3d838ae000185123a,2020-08-10_18h10.10.971,lexical_decision_task_MP,2020.1.3,Win32,60,m,1,0.514985,,,,,,,,0.514985,1,,,,,,154,WORD,UN,50,lizard,AUTHOR,m,,,,,,-0.584635417,-0.11328125,0,0,0,,0,379,379,213,1,
,,,,,,,,,,,,,,,,,,59efd2b3d838ae000185123a,2020-08-10_18h10.10.971,lexical_decision_task_MP,2020.1.3,Win32,60,m,0,0.434565,,,,,,,,0.434565,0,,,,,,346,NW,UN,33,kerift,SAUDIC,z,,,,,,-0.584635417,-0.11328125,0,0,0,,0,380,380,405,1,
,,,,,,,,,,,,,,,,,,59efd2b3d838ae000185123a,2020-08-10_18h10.10.971,lexical_decision_task_MP,2020.1.3,Win32,60,m,0,0.54173,,,,,,,,0.54173,0,,,,,,276,NW,"ID",50,yarmon,YARMON,z,,,,,,-0.584635417,-0.11328125,0,0,0,,0,381,381,335,1,
,,,,,,,,,,,,,,,,,,59efd2b3d838ae000185123a,2020-08-10_18h10.10.971,lexical_decision_task_MP,2020.1.3,Win32,60,z,0,0.49045,,,,,,,,0.49045,0,,,,,,93,WORD,UN,33,travel,PUBLIC,m,,,,,,-0.584635417,-0.11328125,0,0,0,,0,382,382,152,1,
,,,,,,,,,,,,,,,,,,59efd2b3d838ae000185123a,2020-08-10_18h10.10.971,lexical_decision_task_MP,2020.1.3,Win32,60,m,1,0.44564,,,,,,,,0.44564,1,,,,,,29,WORD,"ID",50,sketch,SKETCH,m,,,,,,-0.584635417,-0.11328125,0,0,0,,0,383,383,88,1,
,,,,,,,,,,,,,,,,,,59efd2b3d838ae000185123a,2020-08-10_18h10.10.971,lexical_decision_task_MP,2020.1.3,Win32,60,m,1,0.463875,,,,,,,,0.463875,1,,,,,,164,WORD,UN,50,invest,MARKET,m,,,,,,-0.584635417,-0.11328125,0,0,0,,0,384,384,223,1,
,,,,,,,,,,,,,,,,,,59efd2b3d838ae000185123a,2020-08-10_18h10.10.971,lexical_decision_task_MP,2020.1.3,Win32,60,m,1,0.401955,,,,,,,,0.401955,1,,,,,,147,WORD,UN,50,custom,GARLIC,m,,,,,,-0.584635417,-0.11328125,0,0,0,,0,385,385,206,1,
,,,,,,,,,,,,,,,,,,59efd2b3d838ae000185123a,2020-08-10_18h10.10.971,lexical_decision_task_MP,2020.1.3,Win32,60,m,0,0.44677,,,,,,,,0.44677,0,,,,,,372,NW,UN,50,bigent,RAMILY,z,,,,,,-0.584635417,-0.11328125,0,0,0,,0,386,386,431,1,
,,,,,,,,,,,,,,,,,,59efd2b3d838ae000185123a,2020-08-10_18h10.10.971,lexical_decision_task_MP,2020.1.3,Win32,60,m,1,0.324825,,,,,,,,0.324825,1,,,,,,165,WORD,UN,50,starch,INVEST,m,,,,,,-0.584635417,-0.11328125,0,0,0,,0,387,387,224,1,
,,,,,,,,,,,,,,,,,,59efd2b3d838ae000185123a,2020-08-10_18h10.10.971,lexical_decision_task_MP,2020.1.3,Win32,60,m,1,0.546435,,,,,,,,0.546435,1,,,,,,172,WORD,UN,50,shower,PATROL,m,,,,,,-0.584635417,-0.11328125,0,0,0,,0,388,388,231,1,
,,,,,,,,,,,,,,,,,,59efd2b3d838ae000185123a,2020-08-10_18h10.10.971,lexical_decision_task_MP,2020.1.3,Win32,60,m,0,0.44337,,,,,,,,0.44337,0,,,,,,435,NW,"ID",33,impurb,IMPURB,z,,,,,,-0.584635417,-0.11328125,0,0,0,,0,389,389,254,1,
,,,,,,,,,,,,,,,,,,59efd2b3d838ae000185123a,2020-08-10_18h10.10.971,lexical_decision_task_MP,2020.1.3,Win32,60,m,1,0.65518,,,,,,,,0.65518,1,,,,,,61,WORD,UN,33,region,PONDER,m,,,,,,-0.584635417,-0.11328125,0,0,0,,0,390,390,120,1,
,,,,,,,,,,,,,,,,,,59efd2b3d838ae000185123a,2020-08-10_18h10.10.971,lexical_decision_task_MP,2020.1.3,Win32,60,m,1,0.570535,,,,,,,,0.570535,1,,,,,,44,WORD,"ID",50,danger,DANGER,m,,,,,,-0.584635417,-0.11328125,0,0,0,,0,391,391,103,1,
,,,,,,,,,,,,,,,,,,59efd2b3d838ae000185123a,2020-08-10_18h10.10.971,lexical_decision_task_MP,2020.1.3,Win32,60,z,1,0.63109,,,,,,,,0.63109,1,,,,,,478,NW,"ID",33,acrise,ACRISE,z,,,,,,-0.584635417,-0.11328125,0,0,0,,0,392,392,297,1,
,,,,,,,,,,,,,,,,,,59efd2b3d838ae000185123a,2020-08-10_18h10.10.971,lexical_decision_task_MP,2020.1.3,Win32,60,m,1,0.697865,,,,,,,,0.697865,1,,,,,,226,WORD,"ID",33,casino,CASINO,m,,,,,,-0.584635417,-0.11328125,0,0,0,,0,393,393,45,1,
,,,,,,,,,,,,,,,,,,59efd2b3d838ae000185123a,2020-08-10_18h10.10.971,lexical_decision_task_MP,2020.1.3,Win32,60,z,0,0.731745,,,,,,,,0.731745,0,,,,,,145,WORD,UN,50,couple,PARISH,m,,,,,,-0.584635417,-0.11328125,0,0,0,,0,394,394,204,1,
,,,,,,,,,,,,,,,,,,59efd2b3d838ae000185123a,2020-08-10_18h10.10.971,lexical_decision_task_MP,2020.1.3,Win32,60,m,0,0.59557,-0.584635417,-0.11328125,1,0,0,0.32276,,0.59557,0,,,,,,249,NW,"ID",50,batrol,BATROL,z,,,,,,-0.584635417,-0.11328125,0,0,0,,0,395,395,308,1,
,,,,,,,,,,,,,,,,,,59efd2b3d838ae000185123a,2020-08-10_18h10.10.971,lexical_decision_task_MP,2020.1.3,Win32,60,m,0,0.64219,,,,,,,,0.64219,0,,,,,,351,NW,UN,33,tringe,TIESCH,z,,,,,,-0.584635417,-0.11328125,0,0,0,,0,396,396,410,1,
,,,,,,,,,,,,,,,,,,59efd2b3d838ae000185123a,2020-08-10_18h10.10.971,lexical_decision_task_MP,2020.1.3,Win32,60,m,1,0.417285,,,,,,,,0.417285,1,,,,,,153,WORD,UN,50,author,BEHOLD,m,,,,,,-0.584635417,-0.11328125,0,0,0,,0,397,397,212,1,
,,,,,,,,,,,,,,,,,,59efd2b3d838ae000185123a,2020-08-10_18h10.10.971,lexical_decision_task_MP,2020.1.3,Win32,60,m,1,0.595825,,,,,,,,0.595825,1,,,,,,155,WORD,UN,50,cradle,LIZARD,m,,,,,,-0.584635417,-0.11328125,0,0,0,,0,398,398,214,1,
,,,,,,,,,,,,,,,,,,59efd2b3d838ae000185123a,2020-08-10_18h10.10.971,lexical_decision_task_MP,2020.1.3,Win32,60,z,1,0.59925,,,,,,,,0.59925,1,,,,,,246,NW,"ID",50,piaton,PIATON,z,,,,,,-0.584635417,-0.11328125,0,0,0,,0,399,399,305,1,
,,,,,,,,,,,,,,,,,,59efd2b3d838ae000185123a,2020-08-10_18h10.10.971,lexical_decision_task_MP,2020.1.3,Win32,60,m,1,0.551435,,,,,,,,0.551435,1,,,,,,108,WORD,UN,33,wonder,RECKON,m,,,,,,-0.584635417,-0.11328125,0,0,0,,0,400,400,167,1,
,,,,,,,,,,,,,,,,,,59efd2b3d838ae000185123a,2020-08-10_18h10.10.971,lexical_decision_task_MP,2020.1.3,Win32,60,z,1,0.632675,,,,,,,,0.632675,1,,,,,,417,NW,UN,50,suidle,EAROUD,z,,,,,,-0.584635417,-0.11328125,0,0,0,,0,401,401,476,1,
,,,,,,,,,,,,,,,,,,59efd2b3d838ae000185123a,2020-08-10_18h10.10.971,lexical_decision_task_MP,2020.1.3,Win32,60,m,1,0.80111,,,,,,,,0.80111,1,,,,,,94,WORD,UN,33,thread,TRAVEL,m,,,,,,-0.584635417,-0.11328125,0,0,0,,0,402,402,153,1,
,,,,,,,,,,,,,,,,,,59efd2b3d838ae000185123a,2020-08-10_18h10.10.971,lexical_decision_task_MP,2020.1.3,Win32,60,z,0,0.63653,-0.584635417,-0.11328125,1,0,0,0.533135,,0.63653,0,,,,,,64,WORD,UN,33,symbol,THRONE,m,,,,,,-0.584635417,-0.11328125,1,0,0,,0,403,403,123,1,
