counterbalancing_condition,instr_done_keyboard.keys,instr_done_touch.x,instr_done_touch.y,instr_done_touch.leftButton,instr_done_touch.midButton,instr_done_touch.rightButton,instr_done_touch.clicked_name,instruction_pages.thisRepN,instruction_pages.thisTrialN,instruction_pages.thisN,instruction_pages.thisIndex,instruction_pages.ran,pageN,phase,instruct_text,has_image,instruct_image,participant,date,expName,psychopyVersion,OS,frameRate,instr_done_keyboard.rt,response.keys,response.corr,response.rt,touch_resp.x,touch_resp.y,touch_resp.leftButton,touch_resp.midButton,touch_resp.rightButton,touch_resp.time,touch_resp.clicked_name,rt,corr,practice_trials.thisRepN,practice_trials.thisTrialN,practice_trials.thisN,practice_trials.thisIndex,practice_trials.ran,TrialID,StimulusType,Condition,PrimeDuration,Prime,Target,corrAns,end_of_practice_trials_pages.thisRepN,end_of_practice_trials_pages.thisTrialN,end_of_practice_trials_pages.thisN,end_of_practice_trials_pages.thisIndex,end_of_practice_trials_pages.ran,break_done_touch.x,break_done_touch.y,break_done_touch.leftButton,break_done_touch.midButton,break_done_touch.rightButton,break_done_keyboard.keys,trials.thisRepN,trials.thisTrialN,trials.thisN,trials.thisIndex,trials.ran,break_done_keyboard.rt
2,,-0.01859747,-0.406395089,1,0,0,instr_done_button,0,0,0,0,1,1,instructions,"INSTRUCTIONS
At the start of each trial, look at the hash marks (######) in the center of the screen. After a moment, a string of letters will appear. Your task is to indicate if the letter string forms a word or not (i.e., if it is a nonword). For example, AUTHOR is a word while AUTHON is a nonword.

Press the space bar or touch the button below to continue.",0,,5afa5252672ea800010d97e6,2020-08-10_10h17.37.894,lexical_decision_task_MP,2020.1.3,MacIntel,60,,,,,,,,,,,,,,,,,,,,,,,,,,,,,,,,,,,,,,,,,,
,space,-0.01859747,-0.406395089,0,0,0,,0,1,1,1,1,2,instructions,"If your device has a keyboard, press the 'Z' key for nonwords and the 'M' key for words.





Press the space bar or touch the button below to continue.",1,keyboard-example.gif,5afa5252672ea800010d97e6,2020-08-10_10h17.37.894,lexical_decision_task_MP,2020.1.3,MacIntel,60,4.145325,,,,,,,,,,,,,,,,,,,,,,,,,,,,,,,,,,,,,,,,,
,space,-0.01859747,-0.406395089,0,0,0,,0,2,2,2,1,3,instructions,"If you are using a touchscreen only device, use the buttons on the screen. Do not use the mouse.





Press the space bar or touch the button below to continue.",1,touchscreen-example.gif,5afa5252672ea800010d97e6,2020-08-10_10h17.37.894,lexical_decision_task_MP,2020.1.3,MacIntel,60,3.49208,,,,,,,,,,,,,,,,,,,,,,,,,,,,,,,,,,,,,,,,,
,space,-0.01859747,-0.406395089,0,0,0,,0,3,3,3,1,4,instructions,"It is very important that you respond as quickly and accurately as possible, as each letter string will only be on the screen for two seconds. If you do not respond within this time, the message 'Too slow!' will be displayed and the experiment will progress to the next letter string. The first 20 trials will be practice trials and you will receive feedback on your answers. 

Press the space bar or touch the button below to start the practice trials.",0,,5afa5252672ea800010d97e6,2020-08-10_10h17.37.894,lexical_decision_task_MP,2020.1.3,MacIntel,60,7.075945,,,,,,,,,,,,,,,,,,,,,,,,,,,,,,,,,,,,,,,,,
,,,,,,,,,,,,,,,,,,5afa5252672ea800010d97e6,2020-08-10_10h17.37.894,lexical_decision_task_MP,2020.1.3,MacIntel,60,,m,1,1.279865,,,,,,,,1.279865,1,0,0,0,7,1,1008,WORD,UN,50,hurdle,VOLUME,m,,,,,,,,,,,,,,,,,
,,,,,,,,,,,,,,,,,,5afa5252672ea800010d97e6,2020-08-10_10h17.37.894,lexical_decision_task_MP,2020.1.3,MacIntel,60,,z,1,1.030395,,,,,,,,1.030395,1,0,1,1,10,1,1011,NW,"ID",50,inlade,INLADE,z,,,,,,,,,,,,,,,,,
,,,,,,,,,,,,,,,,,,5afa5252672ea800010d97e6,2020-08-10_10h17.37.894,lexical_decision_task_MP,2020.1.3,MacIntel,60,,z,1,0.931015,,,,,,,,0.931015,1,0,2,2,13,1,1014,NW,UN,33,winfer,ROUPET,z,,,,,,,,,,,,,,,,,
,,,,,,,,,,,,,,,,,,5afa5252672ea800010d97e6,2020-08-10_10h17.37.894,lexical_decision_task_MP,2020.1.3,MacIntel,60,,z,1,0.830215,,,,,,,,0.830215,1,0,3,3,8,1,1009,NW,"ID",33,aslert,ASLERT,z,,,,,,,,,,,,,,,,,
,,,,,,,,,,,,,,,,,,5afa5252672ea800010d97e6,2020-08-10_10h17.37.894,lexical_decision_task_MP,2020.1.3,MacIntel,60,,z,1,0.78358,,,,,,,,0.78358,1,0,4,4,9,1,1010,NW,"ID",33,fariny,FARINY,z,,,,,,,,,,,,,,,,,
,,,,,,,,,,,,,,,,,,5afa5252672ea800010d97e6,2020-08-10_10h17.37.894,lexical_decision_task_MP,2020.1.3,MacIntel,60,,m,1,0.563595,,,,,,,,0.563595,1,0,5,5,3,1,1004,WORD,"ID",50,matrix,MATRIX,m,,,,,,,,,,,,,,,,,
,,,,,,,,,,,,,,,,,,5afa5252672ea800010d97e6,2020-08-10_10h17.37.894,lexical_decision_task_MP,2020.1.3,MacIntel,60,,z,1,1.03382,,,,,,,,1.03382,1,0,6,6,11,1,1012,NW,"ID",50,rashet,RASHET,z,,,,,,,,,,,,,,,,,
,,,,,,,,,,,,,,,,,,5afa5252672ea800010d97e6,2020-08-10_10h17.37.894,lexical_decision_task_MP,2020.1.3,MacIntel,60,,z,1,0.6338,,,,,,,,0.6338,1,0,7,7,15,1,1016,NW,UN,50,mushed,WHAISE,z,,,,,,,,,,,,,,,,,
,,,,,,,,,,,,,,,,,,5afa5252672ea800010d97e6,2020-08-10_10h17.37.894,lexical_decision_task_MP,2020.1.3,MacIntel,60,,m,1,0.551165,,,,,,,,0.551165,1,0,8,8,6,1,1007,WORD,UN,50,tropic,ZOMBIE,m,,,,,,,,,,,,,,,,,
,,,,,,,,,,,,,,,,,,5afa5252672ea800010d97e6,2020-08-10_10h17.37.894,lexical_decision_task_MP,2020.1.3,MacIntel,60,,m,1,0.484475,,,,,,,,0.484475,1,0,9,9,2,1,1003,WORD,"ID",50,almond,ALMOND,m,,,,,,,,,,,,,,,,,
,,,,,,,,,,,,,,,,,,5afa5252672ea800010d97e6,2020-08-10_10h17.37.894,lexical_decision_task_MP,2020.1.3,MacIntel,60,,z,1,0.684695,,,,,,,,0.684695,1,0,10,10,12,1,1013,NW,UN,33,adveil,SPRINY,z,,,,,,,,,,,,,,,,,
,,,,,,,,,,,,,,,,,,5afa5252672ea800010d97e6,2020-08-10_10h17.37.894,lexical_decision_task_MP,2020.1.3,MacIntel,60,,m,1,0.5168,,,,,,,,0.5168,1,0,11,11,4,1,1005,WORD,UN,33,abound,SQUEAK,m,,,,,,,,,,,,,,,,,
,,,,,,,,,,,,,,,,,,5afa5252672ea800010d97e6,2020-08-10_10h17.37.894,lexical_decision_task_MP,2020.1.3,MacIntel,60,,m,1,0.617285,,,,,,,,0.617285,1,0,12,12,5,1,1006,WORD,UN,33,frenzy,OBTAIN,m,,,,,,,,,,,,,,,,,
,,,,,,,,,,,,,,,,,,5afa5252672ea800010d97e6,2020-08-10_10h17.37.894,lexical_decision_task_MP,2020.1.3,MacIntel,60,,m,1,0.557245,,,,,,,,0.557245,1,0,13,13,0,1,1001,WORD,"ID",33,utopia,UTOPIA,m,,,,,,,,,,,,,,,,,
,,,,,,,,,,,,,,,,,,5afa5252672ea800010d97e6,2020-08-10_10h17.37.894,lexical_decision_task_MP,2020.1.3,MacIntel,60,,m,0,0.631395,,,,,,,,0.631395,0,0,14,14,14,1,1015,NW,UN,50,miaber,THRALE,z,,,,,,,,,,,,,,,,,
,,,,,,,,,,,,,,,,,,5afa5252672ea800010d97e6,2020-08-10_10h17.37.894,lexical_decision_task_MP,2020.1.3,MacIntel,60,,m,1,0.58378,,,,,,,,0.58378,1,0,15,15,1,1,1002,WORD,"ID",33,adjust,ADJUST,m,,,,,,,,,,,,,,,,,
,space,-0.01859747,-0.406395089,0,0,0,,,,,,,1,end_of_practice,"You have completed the practice trials. During the experimental trials, you will not receive feedback, but it is very important that you respond as quickly and accurately as possible. 
Before you begin, please ensure that you are in a comfortable and quiet location and will not be disturbed for about 15 minutes, as we cannot use your data if you do not complete all the trials. 
There will be opportunities to take breaks at regular intervals during the experiment. When you are ready to start the experimental trials, please press space or touch the button below.",,,5afa5252672ea800010d97e6,2020-08-10_10h17.37.894,lexical_decision_task_MP,2020.1.3,MacIntel,60,3.80488,,,,,,,,,,,,,,,,,,,,,,,,,0,0,0,0,1,,,,,,,,,,,,
,,,,,,,,,,,,,,,,,,5afa5252672ea800010d97e6,2020-08-10_10h17.37.894,lexical_decision_task_MP,2020.1.3,MacIntel,60,,m,1,0.617135,,,,,,,,0.617135,1,,,,,,142,WORD,"ID",50,spruce,SPRUCE,m,,,,,,-0.01859747,-0.406395089,0,0,0,,0,0,0,81,1,
,,,,,,,,,,,,,,,,,,5afa5252672ea800010d97e6,2020-08-10_10h17.37.894,lexical_decision_task_MP,2020.1.3,MacIntel,60,,m,1,0.61691,,,,,,,,0.61691,1,,,,,,4,WORD,UN,50,plunge,TRENCH,m,,,,,,-0.01859747,-0.406395089,0,0,0,,0,1,1,183,1,
,,,,,,,,,,,,,,,,,,5afa5252672ea800010d97e6,2020-08-10_10h17.37.894,lexical_decision_task_MP,2020.1.3,MacIntel,60,,z,1,0.574055,,,,,,,,0.574055,1,,,,,,327,NW,"ID",33,plenac,PLENAC,z,,,,,,-0.01859747,-0.406395089,0,0,0,,0,2,2,266,1,
,,,,,,,,,,,,,,,,,,5afa5252672ea800010d97e6,2020-08-10_10h17.37.894,lexical_decision_task_MP,2020.1.3,MacIntel,60,,m,1,0.581665,,,,,,,,0.581665,1,,,,,,1,WORD,UN,50,ethnic,FRIGHT,m,,,,,,-0.01859747,-0.406395089,0,0,0,,0,3,3,180,1,
,,,,,,,,,,,,,,,,,,5afa5252672ea800010d97e6,2020-08-10_10h17.37.894,lexical_decision_task_MP,2020.1.3,MacIntel,60,,z,1,0.63521,,,,,,,,0.63521,1,,,,,,448,NW,UN,33,brunge,SADENT,z,,,,,,-0.01859747,-0.406395089,0,0,0,,0,4,4,387,1,
,,,,,,,,,,,,,,,,,,5afa5252672ea800010d97e6,2020-08-10_10h17.37.894,lexical_decision_task_MP,2020.1.3,MacIntel,60,,m,1,0.49763,,,,,,,,0.49763,1,,,,,,12,WORD,UN,50,strive,ORANGE,m,,,,,,-0.01859747,-0.406395089,0,0,0,,0,5,5,191,1,
,,,,,,,,,,,,,,,,,,5afa5252672ea800010d97e6,2020-08-10_10h17.37.894,lexical_decision_task_MP,2020.1.3,MacIntel,60,,z,1,0.734225,,,,,,,,0.734225,1,,,,,,261,NW,UN,50,quilew,STUNCH,z,,,,,,-0.01859747,-0.406395089,0,0,0,,0,6,6,440,1,
,,,,,,,,,,,,,,,,,,5afa5252672ea800010d97e6,2020-08-10_10h17.37.894,lexical_decision_task_MP,2020.1.3,MacIntel,60,,m,1,0.70065,,,,,,,,0.70065,1,,,,,,226,WORD,UN,33,flower,CASINO,m,,,,,,-0.01859747,-0.406395089,0,0,0,,0,7,7,165,1,
,,,,,,,,,,,,,,,,,,5afa5252672ea800010d97e6,2020-08-10_10h17.37.894,lexical_decision_task_MP,2020.1.3,MacIntel,60,,z,1,0.574275,,,,,,,,0.574275,1,,,,,,309,NW,"ID",33,amiloy,AMILOY,z,,,,,,-0.01859747,-0.406395089,0,0,0,,0,8,8,248,1,
,,,,,,,,,,,,,,,,,,5afa5252672ea800010d97e6,2020-08-10_10h17.37.894,lexical_decision_task_MP,2020.1.3,MacIntel,60,,m,1,0.514715,,,,,,,,0.514715,1,,,,,,229,WORD,UN,33,fringe,MOTHER,m,,,,,,-0.01859747,-0.406395089,0,0,0,,0,9,9,168,1,
,,,,,,,,,,,,,,,,,,5afa5252672ea800010d97e6,2020-08-10_10h17.37.894,lexical_decision_task_MP,2020.1.3,MacIntel,60,,m,1,0.57876,,,,,,,,0.57876,1,,,,,,196,WORD,UN,33,stream,CREDIT,m,,,,,,-0.01859747,-0.406395089,0,0,0,,0,10,10,135,1,
,,,,,,,,,,,,,,,,,,5afa5252672ea800010d97e6,2020-08-10_10h17.37.894,lexical_decision_task_MP,2020.1.3,MacIntel,60,,m,1,0.483465,,,,,,,,0.483465,1,,,,,,138,WORD,"ID",50,melody,MELODY,m,,,,,,-0.01859747,-0.406395089,0,0,0,,0,11,11,77,1,
,,,,,,,,,,,,,,,,,,5afa5252672ea800010d97e6,2020-08-10_10h17.37.894,lexical_decision_task_MP,2020.1.3,MacIntel,60,,z,1,0.70131,,,,,,,,0.70131,1,,,,,,285,NW,UN,50,reldon,PRUDGE,z,,,,,,-0.01859747,-0.406395089,0,0,0,,0,12,12,464,1,
,,,,,,,,,,,,,,,,,,5afa5252672ea800010d97e6,2020-08-10_10h17.37.894,lexical_decision_task_MP,2020.1.3,MacIntel,60,,z,1,0.76621,,,,,,,,0.76621,1,,,,,,277,NW,UN,50,unighs,PETAIN,z,,,,,,-0.01859747,-0.406395089,0,0,0,,0,13,13,456,1,
,,,,,,,,,,,,,,,,,,5afa5252672ea800010d97e6,2020-08-10_10h17.37.894,lexical_decision_task_MP,2020.1.3,MacIntel,60,,m,1,0.58414,,,,,,,,0.58414,1,,,,,,135,WORD,"ID",50,import,IMPORT,m,,,,,,-0.01859747,-0.406395089,0,0,0,,0,14,14,74,1,
,,,,,,,,,,,,,,,,,,5afa5252672ea800010d97e6,2020-08-10_10h17.37.894,lexical_decision_task_MP,2020.1.3,MacIntel,60,,m,1,0.58952,,,,,,,,0.58952,1,,,,,,113,WORD,"ID",33,chorus,CHORUS,m,,,,,,-0.01859747,-0.406395089,0,0,0,,0,15,15,52,1,
,,,,,,,,,,,,,,,,,,5afa5252672ea800010d97e6,2020-08-10_10h17.37.894,lexical_decision_task_MP,2020.1.3,MacIntel,60,,m,1,0.566385,,,,,,,,0.566385,1,,,,,,207,WORD,UN,33,hockey,WREATH,m,,,,,,-0.01859747,-0.406395089,0,0,0,,0,16,16,146,1,
,,,,,,,,,,,,,,,,,,5afa5252672ea800010d97e6,2020-08-10_10h17.37.894,lexical_decision_task_MP,2020.1.3,MacIntel,60,,m,1,0.482625,,,,,,,,0.482625,1,,,,,,2,WORD,UN,50,knight,BRIDGE,m,,,,,,-0.01859747,-0.406395089,0,0,0,,0,17,17,181,1,
,,,,,,,,,,,,,,,,,,5afa5252672ea800010d97e6,2020-08-10_10h17.37.894,lexical_decision_task_MP,2020.1.3,MacIntel,60,,m,1,0.50375,,,,,,,,0.50375,1,,,,,,76,WORD,"ID",33,exotic,EXOTIC,m,,,,,,-0.01859747,-0.406395089,0,0,0,,0,18,18,15,1,
,,,,,,,,,,,,,,,,,,5afa5252672ea800010d97e6,2020-08-10_10h17.37.894,lexical_decision_task_MP,2020.1.3,MacIntel,60,,z,1,0.596895,,,,,,,,0.596895,1,,,,,,402,NW,"ID",50,syntic,SYNTIC,z,,,,,,-0.01859747,-0.406395089,0,0,0,,0,19,19,341,1,
,,,,,,,,,,,,,,,,,,5afa5252672ea800010d97e6,2020-08-10_10h17.37.894,lexical_decision_task_MP,2020.1.3,MacIntel,60,,m,1,0.49985,,,,,,,,0.49985,1,,,,,,121,WORD,"ID",50,thrive,THRIVE,m,,,,,,-0.01859747,-0.406395089,0,0,0,,0,20,20,60,1,
,,,,,,,,,,,,,,,,,,5afa5252672ea800010d97e6,2020-08-10_10h17.37.894,lexical_decision_task_MP,2020.1.3,MacIntel,60,,m,1,0.479965,,,,,,,,0.479965,1,,,,,,115,WORD,"ID",33,guitar,GUITAR,m,,,,,,-0.01859747,-0.406395089,0,0,0,,0,21,21,54,1,
,,,,,,,,,,,,,,,,,,5afa5252672ea800010d97e6,2020-08-10_10h17.37.894,lexical_decision_task_MP,2020.1.3,MacIntel,60,,z,1,0.666135,,,,,,,,0.666135,1,,,,,,244,NW,UN,50,anougs,EATRIC,z,,,,,,-0.01859747,-0.406395089,0,0,0,,0,22,22,423,1,
,,,,,,,,,,,,,,,,,,5afa5252672ea800010d97e6,2020-08-10_10h17.37.894,lexical_decision_task_MP,2020.1.3,MacIntel,60,,z,1,0.603065,,,,,,,,0.603065,1,,,,,,441,NW,UN,33,aboune,RASTOE,z,,,,,,-0.01859747,-0.406395089,0,0,0,,0,23,23,380,1,
,,,,,,,,,,,,,,,,,,5afa5252672ea800010d97e6,2020-08-10_10h17.37.894,lexical_decision_task_MP,2020.1.3,MacIntel,60,,m,1,0.50084,,,,,,,,0.50084,1,,,,,,81,WORD,"ID",33,friend,FRIEND,m,,,,,,-0.01859747,-0.406395089,0,0,0,,0,24,24,20,1,
,,,,,,,,,,,,,,,,,,5afa5252672ea800010d97e6,2020-08-10_10h17.37.894,lexical_decision_task_MP,2020.1.3,MacIntel,60,,z,1,0.55176,,,,,,,,0.55176,1,,,,,,339,NW,"ID",33,fachow,FACHOW,z,,,,,,-0.01859747,-0.406395089,0,0,0,,0,25,25,278,1,
,,,,,,,,,,,,,,,,,,5afa5252672ea800010d97e6,2020-08-10_10h17.37.894,lexical_decision_task_MP,2020.1.3,MacIntel,60,,z,1,0.570115,,,,,,,,0.570115,1,,,,,,332,NW,"ID",33,vangue,VANGUE,z,,,,,,-0.01859747,-0.406395089,0,0,0,,0,26,26,271,1,
,,,,,,,,,,,,,,,,,,5afa5252672ea800010d97e6,2020-08-10_10h17.37.894,lexical_decision_task_MP,2020.1.3,MacIntel,60,,z,1,0.60065,,,,,,,,0.60065,1,,,,,,279,NW,UN,50,curbol,CELOND,z,,,,,,-0.01859747,-0.406395089,0,0,0,,0,27,27,458,1,
,,,,,,,,,,,,,,,,,,5afa5252672ea800010d97e6,2020-08-10_10h17.37.894,lexical_decision_task_MP,2020.1.3,MacIntel,60,,z,1,0.583965,,,,,,,,0.583965,1,,,,,,293,NW,UN,50,inhort,SWANCE,z,,,,,,-0.01859747,-0.406395089,0,0,0,,0,28,28,472,1,
,,,,,,,,,,,,,,,,,,5afa5252672ea800010d97e6,2020-08-10_10h17.37.894,lexical_decision_task_MP,2020.1.3,MacIntel,60,,z,1,0.466865,,,,,,,,0.466865,1,,,,,,386,NW,"ID",50,ancust,ANCUST,z,,,,,,-0.01859747,-0.406395089,0,0,0,,0,29,29,325,1,
,,,,,,,,,,,,,,,,,,5afa5252672ea800010d97e6,2020-08-10_10h17.37.894,lexical_decision_task_MP,2020.1.3,MacIntel,60,,z,1,0.501605,,,,,,,,0.501605,1,,,,,,478,NW,UN,33,pebric,ACRISE,z,,,,,,-0.01859747,-0.406395089,0,0,0,,0,30,30,417,1,
,,,,,,,,,,,,,,,,,,5afa5252672ea800010d97e6,2020-08-10_10h17.37.894,lexical_decision_task_MP,2020.1.3,MacIntel,60,,z,1,0.664775,,,,,,,,0.664775,1,,,,,,284,NW,UN,50,prudge,SHAPLE,z,,,,,,-0.01859747,-0.406395089,0,0,0,,0,31,31,463,1,
,,,,,,,,,,,,,,,,,,5afa5252672ea800010d97e6,2020-08-10_10h17.37.894,lexical_decision_task_MP,2020.1.3,MacIntel,60,,z,1,0.600255,,,,,,,,0.600255,1,,,,,,241,NW,UN,50,unwert,SMENCO,z,,,,,,-0.01859747,-0.406395089,0,0,0,,0,32,32,420,1,
,,,,,,,,,,,,,,,,,,5afa5252672ea800010d97e6,2020-08-10_10h17.37.894,lexical_decision_task_MP,2020.1.3,MacIntel,60,,m,1,0.584235,,,,,,,,0.584235,1,,,,,,42,WORD,UN,50,tongue,CHAPEL,m,,,,,,-0.01859747,-0.406395089,0,0,0,,0,33,33,221,1,
,,,,,,,,,,,,,,,,,,5afa5252672ea800010d97e6,2020-08-10_10h17.37.894,lexical_decision_task_MP,2020.1.3,MacIntel,60,,m,1,0.46976,,,,,,,,0.46976,1,,,,,,26,WORD,UN,50,butler,SPRINT,m,,,,,,-0.01859747,-0.406395089,0,0,0,,0,34,34,205,1,
,,,,,,,,,,,,,,,,,,5afa5252672ea800010d97e6,2020-08-10_10h17.37.894,lexical_decision_task_MP,2020.1.3,MacIntel,60,,m,1,0.450145,,,,,,,,0.450145,1,,,,,,72,WORD,"ID",33,bright,BRIGHT,m,,,,,,-0.01859747,-0.406395089,0,0,0,,0,35,35,11,1,
,,,,,,,,,,,,,,,,,,5afa5252672ea800010d97e6,2020-08-10_10h17.37.894,lexical_decision_task_MP,2020.1.3,MacIntel,60,,m,1,0.522975,,,,,,,,0.522975,1,,,,,,234,WORD,UN,33,poster,CLUMSY,m,,,,,,-0.01859747,-0.406395089,0,0,0,,0,36,36,173,1,
,,,,,,,,,,,,,,,,,,5afa5252672ea800010d97e6,2020-08-10_10h17.37.894,lexical_decision_task_MP,2020.1.3,MacIntel,60,,z,1,0.557315,,,,,,,,0.557315,1,,,,,,379,NW,"ID",50,auting,AUTING,z,,,,,,-0.01859747,-0.406395089,0,0,0,,0,37,37,318,1,
,,,,,,,,,,,,,,,,,,5afa5252672ea800010d97e6,2020-08-10_10h17.37.894,lexical_decision_task_MP,2020.1.3,MacIntel,60,,m,1,0.56765,,,,,,,,0.56765,1,,,,,,219,WORD,UN,33,voyage,BUCKET,m,,,,,,-0.01859747,-0.406395089,0,0,0,,0,38,38,158,1,
,,,,,,,,,,,,,,,,,,5afa5252672ea800010d97e6,2020-08-10_10h17.37.894,lexical_decision_task_MP,2020.1.3,MacIntel,60,,m,1,0.533005,,,,,,,,0.533005,1,,,,,,218,WORD,UN,33,bucket,SHRINK,m,,,,,,-0.01859747,-0.406395089,0,0,0,,0,39,39,157,1,
,,,,,,,,,,,,,,,,,,5afa5252672ea800010d97e6,2020-08-10_10h17.37.894,lexical_decision_task_MP,2020.1.3,MacIntel,60,,m,1,0.38153,,,,,,,,0.38153,1,,,,,,109,WORD,"ID",33,wonder,WONDER,m,,,,,,-0.01859747,-0.406395089,0,0,0,,0,40,40,48,1,
,,,,,,,,,,,,,,,,,,5afa5252672ea800010d97e6,2020-08-10_10h17.37.894,lexical_decision_task_MP,2020.1.3,MacIntel,60,,m,1,0.45053,,,,,,,,0.45053,1,,,,,,101,WORD,"ID",33,wrench,WRENCH,m,,,,,,-0.01859747,-0.406395089,0,0,0,,0,41,41,40,1,
,,,,,,,,,,,,,,,,,,5afa5252672ea800010d97e6,2020-08-10_10h17.37.894,lexical_decision_task_MP,2020.1.3,MacIntel,60,,z,1,0.58485,,,,,,,,0.58485,1,,,,,,465,NW,UN,33,bafent,WHIVEX,z,,,,,,-0.01859747,-0.406395089,0,0,0,,0,42,42,404,1,
,,,,,,,,,,,,,,,,,,5afa5252672ea800010d97e6,2020-08-10_10h17.37.894,lexical_decision_task_MP,2020.1.3,MacIntel,60,,m,1,0.54364,,,,,,,,0.54364,1,,,,,,100,WORD,"ID",33,carbon,CARBON,m,,,,,,-0.01859747,-0.406395089,0,0,0,,0,43,43,39,1,
,,,,,,,,,,,,,,,,,,5afa5252672ea800010d97e6,2020-08-10_10h17.37.894,lexical_decision_task_MP,2020.1.3,MacIntel,60,,m,1,0.598415,,,,,,,,0.598415,1,,,,,,22,WORD,UN,50,wealth,JOCKEY,m,,,,,,-0.01859747,-0.406395089,0,0,0,,0,44,44,201,1,
,,,,,,,,,,,,,,,,,,5afa5252672ea800010d97e6,2020-08-10_10h17.37.894,lexical_decision_task_MP,2020.1.3,MacIntel,60,,z,1,0.584485,,,,,,,,0.584485,1,,,,,,306,NW,"ID",33,sounge,SOUNGE,z,,,,,,-0.01859747,-0.406395089,0,0,0,,0,45,45,245,1,
,,,,,,,,,,,,,,,,,,5afa5252672ea800010d97e6,2020-08-10_10h17.37.894,lexical_decision_task_MP,2020.1.3,MacIntel,60,,z,1,0.568225,,,,,,,,0.568225,1,,,,,,320,NW,"ID",33,jockal,JOCKAL,z,,,,,,-0.01859747,-0.406395089,0,0,0,,0,46,46,259,1,
,,,,,,,,,,,,,,,,,,5afa5252672ea800010d97e6,2020-08-10_10h17.37.894,lexical_decision_task_MP,2020.1.3,MacIntel,60,,z,1,0.623365,,,,,,,,0.623365,1,,,,,,356,NW,"ID",33,othnis,OTHNIS,z,,,,,,-0.01859747,-0.406395089,0,0,0,,0,47,47,295,1,
,,,,,,,,,,,,,,,,,,5afa5252672ea800010d97e6,2020-08-10_10h17.37.894,lexical_decision_task_MP,2020.1.3,MacIntel,60,,z,1,0.6347,,,,,,,,0.6347,1,,,,,,468,NW,UN,33,padifs,WICTOR,z,,,,,,-0.01859747,-0.406395089,0,0,0,,0,48,48,407,1,
,,,,,,,,,,,,,,,,,,5afa5252672ea800010d97e6,2020-08-10_10h17.37.894,lexical_decision_task_MP,2020.1.3,MacIntel,60,,m,1,0.533595,,,,,,,,0.533595,1,,,,,,227,WORD,UN,33,master,SELDOM,m,,,,,,-0.01859747,-0.406395089,0,0,0,,0,49,49,166,1,
,,,,,,,,,,,,,,,,,,5afa5252672ea800010d97e6,2020-08-10_10h17.37.894,lexical_decision_task_MP,2020.1.3,MacIntel,60,,m,1,0.39991,,,,,,,,0.39991,1,,,,,,73,WORD,"ID",33,source,SOURCE,m,,,,,,-0.01859747,-0.406395089,0,0,0,,0,50,50,12,1,
,,,,,,,,,,,,,,,,,,5afa5252672ea800010d97e6,2020-08-10_10h17.37.894,lexical_decision_task_MP,2020.1.3,MacIntel,60,,z,1,0.55143,,,,,,,,0.55143,1,,,,,,363,NW,"ID",50,breali,BREALI,z,,,,,,-0.01859747,-0.406395089,0,0,0,,0,51,51,302,1,
,,,,,,,,,,,,,,,,,,5afa5252672ea800010d97e6,2020-08-10_10h17.37.894,lexical_decision_task_MP,2020.1.3,MacIntel,60,,z,1,0.496625,,,,,,,,0.496625,1,,,,,,365,NW,"ID",50,guairt,GUAIRT,z,,,,,,-0.01859747,-0.406395089,0,0,0,,0,52,52,304,1,
,,,,,,,,,,,,,,,,,,5afa5252672ea800010d97e6,2020-08-10_10h17.37.894,lexical_decision_task_MP,2020.1.3,MacIntel,60,,z,1,0.48318,,,,,,,,0.48318,1,,,,,,427,NW,UN,33,tandly,SCHIND,z,,,,,,-0.01859747,-0.406395089,0,0,0,,0,53,53,366,1,
,,,,,,,,,,,,,,,,,,5afa5252672ea800010d97e6,2020-08-10_10h17.37.894,lexical_decision_task_MP,2020.1.3,MacIntel,60,,z,1,0.441725,,,,,,,,0.441725,1,,,,,,351,NW,"ID",33,tiesch,TIESCH,z,,,,,,-0.01859747,-0.406395089,0,0,0,,0,54,54,290,1,
,,,,,,,,,,,,,,,,,,5afa5252672ea800010d97e6,2020-08-10_10h17.37.894,lexical_decision_task_MP,2020.1.3,MacIntel,60,,z,1,0.51376,,,,,,,,0.51376,1,,,,,,477,NW,UN,33,lobush,PHOTIE,z,,,,,,-0.01859747,-0.406395089,0,0,0,,0,55,55,416,1,
,,,,,,,,,,,,,,,,,,5afa5252672ea800010d97e6,2020-08-10_10h17.37.894,lexical_decision_task_MP,2020.1.3,MacIntel,60,,z,1,0.384685,,,,,,,,0.384685,1,,,,,,412,NW,"ID",50,jiluer,JILUER,z,,,,,,-0.01859747,-0.406395089,0,0,0,,0,56,56,351,1,
,,,,,,,,,,,,,,,,,,5afa5252672ea800010d97e6,2020-08-10_10h17.37.894,lexical_decision_task_MP,2020.1.3,MacIntel,60,,m,1,0.550455,,,,,,,,0.550455,1,,,,,,168,WORD,"ID",50,answer,ANSWER,m,,,,,,-0.01859747,-0.406395089,0,0,0,,0,57,57,107,1,
,,,,,,,,,,,,,,,,,,5afa5252672ea800010d97e6,2020-08-10_10h17.37.894,lexical_decision_task_MP,2020.1.3,MacIntel,60,,m,1,0.43595,,,,,,,,0.43595,1,,,,,,14,WORD,UN,50,orange,ALMOST,m,,,,,,-0.01859747,-0.406395089,0,0,0,,0,58,58,193,1,
,,,,,,,,,,,,,,,,,,5afa5252672ea800010d97e6,2020-08-10_10h17.37.894,lexical_decision_task_MP,2020.1.3,MacIntel,60,,m,0,0.436885,,,,,,,,0.436885,0,,,,,,411,NW,"ID",50,orchin,ORCHIN,z,,,,,,-0.01859747,-0.406395089,0,0,0,,0,59,59,350,1,
,,,,,,,,,,,,,,,,,,5afa5252672ea800010d97e6,2020-08-10_10h17.37.894,lexical_decision_task_MP,2020.1.3,MacIntel,60,,z,1,0.651265,,,,,,,,0.651265,1,,,,,,286,NW,UN,50,nymbel,RELDON,z,,,,,,-0.01859747,-0.406395089,0,0,0,,0,60,60,465,1,
,,,,,,,,,,,,,,,,,,5afa5252672ea800010d97e6,2020-08-10_10h17.37.894,lexical_decision_task_MP,2020.1.3,MacIntel,60,,m,1,0.754185,,,,,,,,0.754185,1,,,,,,16,WORD,UN,50,charge,FAUCET,m,,,,,,-0.01859747,-0.406395089,0,0,0,,0,61,61,195,1,
,,,,,,,,,,,,,,,,,,5afa5252672ea800010d97e6,2020-08-10_10h17.37.894,lexical_decision_task_MP,2020.1.3,MacIntel,60,,m,1,0.650365,,,,,,,,0.650365,1,,,,,,215,WORD,UN,33,lumber,PHOBIA,m,,,,,,-0.01859747,-0.406395089,0,0,0,,0,62,62,154,1,
,,,,,,,,,,,,,,,,,,5afa5252672ea800010d97e6,2020-08-10_10h17.37.894,lexical_decision_task_MP,2020.1.3,MacIntel,60,,m,1,0.54869,,,,,,,,0.54869,1,,,,,,143,WORD,"ID",50,reason,REASON,m,,,,,,-0.01859747,-0.406395089,0,0,0,,0,63,63,82,1,
,,,,,,,,,,,,,,,,,,5afa5252672ea800010d97e6,2020-08-10_10h17.37.894,lexical_decision_task_MP,2020.1.3,MacIntel,60,,m,1,0.486015,,,,,,,,0.486015,1,,,,,,174,WORD,"ID",50,turkey,TURKEY,m,,,,,,-0.01859747,-0.406395089,0,0,0,,0,64,64,113,1,
,,,,,,,,,,,,,,,,,,5afa5252672ea800010d97e6,2020-08-10_10h17.37.894,lexical_decision_task_MP,2020.1.3,MacIntel,60,,m,1,0.530375,,,,,,,,0.530375,1,,,,,,150,WORD,"ID",50,random,RANDOM,m,,,,,,-0.01859747,-0.406395089,0,0,0,,0,65,65,89,1,
,,,,,,,,,,,,,,,,,,5afa5252672ea800010d97e6,2020-08-10_10h17.37.894,lexical_decision_task_MP,2020.1.3,MacIntel,60,,m,1,0.710855,,,,,,,,0.710855,1,,,,,,45,WORD,UN,50,single,CLERGY,m,,,,,,-0.01859747,-0.406395089,0,0,0,,0,66,66,224,1,
,,,,,,,,,,,,,,,,,,5afa5252672ea800010d97e6,2020-08-10_10h17.37.894,lexical_decision_task_MP,2020.1.3,MacIntel,60,,m,1,0.46598,,,,,,,,0.46598,1,,,,,,202,WORD,UN,33,phrase,FACTOR,m,,,,,,-0.01859747,-0.406395089,0,0,0,,0,67,67,141,1,
,,,,,,,,,,,,,,,,,,5afa5252672ea800010d97e6,2020-08-10_10h17.37.894,lexical_decision_task_MP,2020.1.3,MacIntel,60,,z,1,0.650365,,,,,,,,0.650365,1,,,,,,372,NW,"ID",50,ramily,RAMILY,z,,,,,,-0.01859747,-0.406395089,0,0,0,,0,68,68,311,1,
,,,,,,,,,,,,,,,,,,5afa5252672ea800010d97e6,2020-08-10_10h17.37.894,lexical_decision_task_MP,2020.1.3,MacIntel,60,,m,1,0.56626,,,,,,,,0.56626,1,,,,,,231,WORD,UN,33,inject,EXPORT,m,,,,,,-0.01859747,-0.406395089,0,0,0,,0,69,69,170,1,
,,,,,,,,,,,,,,,,,,5afa5252672ea800010d97e6,2020-08-10_10h17.37.894,lexical_decision_task_MP,2020.1.3,MacIntel,60,,z,1,0.518925,,,,,,,,0.518925,1,,,,,,257,NW,UN,50,poluth,VENIOD,z,,,,,,-0.01859747,-0.406395089,0,0,0,,0,70,70,436,1,
,,,,,,,,,,,,,,,,,,5afa5252672ea800010d97e6,2020-08-10_10h17.37.894,lexical_decision_task_MP,2020.1.3,MacIntel,60,,m,1,0.784075,,,,,,,,0.784075,1,,,,,,69,WORD,"ID",33,plenty,PLENTY,m,,,,,,-0.01859747,-0.406395089,0,0,0,,0,71,71,8,1,
,,,,,,,,,,,,,,,,,,5afa5252672ea800010d97e6,2020-08-10_10h17.37.894,lexical_decision_task_MP,2020.1.3,MacIntel,60,,z,1,0.516695,,,,,,,,0.516695,1,,,,,,415,NW,"ID",50,higsta,HIGSTA,z,,,,,,-0.01859747,-0.406395089,0,0,0,,0,72,72,354,1,
,,,,,,,,,,,,,,,,,,5afa5252672ea800010d97e6,2020-08-10_10h17.37.894,lexical_decision_task_MP,2020.1.3,MacIntel,60,,z,1,0.45148,,,,,,,,0.45148,1,,,,,,474,NW,UN,33,acrise,HABLIN,z,,,,,,-0.01859747,-0.406395089,0,0,0,,0,73,73,413,1,
,,,,,,,,,,,,,,,,,,5afa5252672ea800010d97e6,2020-08-10_10h17.37.894,lexical_decision_task_MP,2020.1.3,MacIntel,60,,m,1,0.667,,,,,,,,0.667,1,,,,,,56,WORD,UN,50,change,AMBUSH,m,,,,,,-0.01859747,-0.406395089,0,0,0,,0,74,74,235,1,
,,,,,,,,,,,,,,,,,,5afa5252672ea800010d97e6,2020-08-10_10h17.37.894,lexical_decision_task_MP,2020.1.3,MacIntel,60,,m,1,0.5935,,,,,,,,0.5935,1,,,,,,129,WORD,"ID",50,marvel,MARVEL,m,,,,,,-0.01859747,-0.406395089,0,0,0,,0,75,75,68,1,
,,,,,,,,,,,,,,,,,,5afa5252672ea800010d97e6,2020-08-10_10h17.37.894,lexical_decision_task_MP,2020.1.3,MacIntel,60,,m,1,0.498245,,,,,,,,0.498245,1,,,,,,53,WORD,UN,50,ramble,POLICE,m,,,,,,-0.01859747,-0.406395089,0,0,0,,0,76,76,232,1,
,,,,,,,,,,,,,,,,,,5afa5252672ea800010d97e6,2020-08-10_10h17.37.894,lexical_decision_task_MP,2020.1.3,MacIntel,60,,z,1,0.612605,,,,,,,,0.612605,1,,,,,,399,NW,"ID",50,fouret,FOURET,z,,,,,,-0.01859747,-0.406395089,0,0,0,,0,77,77,338,1,
,,,,,,,,,,,,,,,,,,5afa5252672ea800010d97e6,2020-08-10_10h17.37.894,lexical_decision_task_MP,2020.1.3,MacIntel,60,,m,1,0.667955,,,,,,,,0.667955,1,,,,,,214,WORD,UN,33,phobia,INTAKE,m,,,,,,-0.01859747,-0.406395089,0,0,0,,0,78,78,153,1,
,,,,,,,,,,,,,,,,,,5afa5252672ea800010d97e6,2020-08-10_10h17.37.894,lexical_decision_task_MP,2020.1.3,MacIntel,60,,m,1,0.526065,,,,,,,,0.526065,1,,,,,,125,WORD,"ID",50,nickel,NICKEL,m,,,,,,-0.01859747,-0.406395089,0,0,0,,0,79,79,64,1,
,,,,,,,,,,,,,,,,,,5afa5252672ea800010d97e6,2020-08-10_10h17.37.894,lexical_decision_task_MP,2020.1.3,MacIntel,60,,m,1,0.51342,,,,,,,,0.51342,1,,,,,,120,WORD,"ID",33,strain,STRAIN,m,,,,,,-0.01859747,-0.406395089,0,0,0,,0,80,80,59,1,
,,,,,,,,,,,,,,,,,,5afa5252672ea800010d97e6,2020-08-10_10h17.37.894,lexical_decision_task_MP,2020.1.3,MacIntel,60,,m,1,0.569725,,,,,,,,0.569725,1,,,,,,36,WORD,UN,50,insult,VANISH,m,,,,,,-0.01859747,-0.406395089,0,0,0,,0,81,81,215,1,
,,,,,,,,,,,,,,,,,,5afa5252672ea800010d97e6,2020-08-10_10h17.37.894,lexical_decision_task_MP,2020.1.3,MacIntel,60,,z,1,0.58379,,,,,,,,0.58379,1,,,,,,283,NW,UN,50,shaple,VERALF,z,,,,,,-0.01859747,-0.406395089,0,0,0,,0,82,82,462,1,
,,,,,,,,,,,,,,,,,,5afa5252672ea800010d97e6,2020-08-10_10h17.37.894,lexical_decision_task_MP,2020.1.3,MacIntel,60,,z,1,0.499275,,,,,,,,0.499275,1,,,,,,422,NW,UN,33,streld,ALCOUD,z,,,,,,-0.01859747,-0.406395089,0,0,0,,0,83,83,361,1,
,,,,,,,,,,,,,,,,,,5afa5252672ea800010d97e6,2020-08-10_10h17.37.894,lexical_decision_task_MP,2020.1.3,MacIntel,60,,m,1,0.718425,,,,,,,,0.718425,1,,,,,,32,WORD,UN,50,scream,BUCKLE,m,,,,,,-0.01859747,-0.406395089,0,0,0,,0,84,84,211,1,
,,,,,,,,,,,,,,,,,,5afa5252672ea800010d97e6,2020-08-10_10h17.37.894,lexical_decision_task_MP,2020.1.3,MacIntel,60,,z,1,0.701775,,,,,,,,0.701775,1,,,,,,390,NW,"ID",50,hatrus,HATRUS,z,,,,,,-0.01859747,-0.406395089,0,0,0,,0,85,85,329,1,
,,,,,,,,,,,,,,,,,,5afa5252672ea800010d97e6,2020-08-10_10h17.37.894,lexical_decision_task_MP,2020.1.3,MacIntel,60,,z,1,0.66788,,,,,,,,0.66788,1,,,,,,384,NW,"ID",50,guesco,GUESCO,z,,,,,,-0.01859747,-0.406395089,0,0,0,,0,86,86,323,1,
,,,,,,,,,,,,,,,,,,5afa5252672ea800010d97e6,2020-08-10_10h17.37.894,lexical_decision_task_MP,2020.1.3,MacIntel,60,,z,1,0.53373,,,,,,,,0.53373,1,,,,,,480,NW,UN,33,knisma,ROBULY,z,,,,,,-0.01859747,-0.406395089,0,0,0,,0,87,87,419,1,
,,,,,,,,,,,,,,,,,,5afa5252672ea800010d97e6,2020-08-10_10h17.37.894,lexical_decision_task_MP,2020.1.3,MacIntel,60,,m,1,0.55498,,,,,,,,0.55498,1,,,,,,127,WORD,"ID",50,castle,CASTLE,m,,,,,,-0.01859747,-0.406395089,0,0,0,,0,88,88,66,1,
,,,,,,,,,,,,,,,,,,5afa5252672ea800010d97e6,2020-08-10_10h17.37.894,lexical_decision_task_MP,2020.1.3,MacIntel,60,,m,1,0.647995,,,,,,,,0.647995,1,,,,,,223,WORD,UN,33,period,KIDNEY,m,,,,,,-0.01859747,-0.406395089,0,0,0,,0,89,89,162,1,
,,,,,,,,,,,,,,,,,,5afa5252672ea800010d97e6,2020-08-10_10h17.37.894,lexical_decision_task_MP,2020.1.3,MacIntel,60,,z,1,0.626435,,,,,,,,0.626435,1,,,,,,376,NW,"ID",50,iguare,IGUARE,z,,,,,,-0.01859747,-0.406395089,0,0,0,,0,90,90,315,1,
,,,,,,,,,,,,,,,,,,5afa5252672ea800010d97e6,2020-08-10_10h17.37.894,lexical_decision_task_MP,2020.1.3,MacIntel,60,,m,1,0.484125,,,,,,,,0.484125,1,,,,,,209,WORD,UN,33,monkey,SEARCH,m,,,,,,-0.01859747,-0.406395089,0,0,0,,0,91,91,148,1,
,,,,,,,,,,,,,,,,,,5afa5252672ea800010d97e6,2020-08-10_10h17.37.894,lexical_decision_task_MP,2020.1.3,MacIntel,60,,z,1,0.53041,,,,,,,,0.53041,1,,,,,,259,NW,UN,50,unject,SOUDAL,z,,,,,,-0.01859747,-0.406395089,0,0,0,,0,92,92,438,1,
,,,,,,,,,,,,,,,,,,5afa5252672ea800010d97e6,2020-08-10_10h17.37.894,lexical_decision_task_MP,2020.1.3,MacIntel,60,,z,1,0.652655,,,,,,,,0.652655,1,,,,,,469,NW,UN,33,crudio,PADIFS,z,,,,,,-0.01859747,-0.406395089,0,0,0,,0,93,93,408,1,
,,,,,,,,,,,,,,,,,,5afa5252672ea800010d97e6,2020-08-10_10h17.37.894,lexical_decision_task_MP,2020.1.3,MacIntel,60,,z,1,0.51628,,,,,,,,0.51628,1,,,,,,282,NW,UN,50,veralf,PORLEX,z,,,,,,-0.01859747,-0.406395089,0,0,0,,0,94,94,461,1,
,,,,,,,,,,,,,,,,,,5afa5252672ea800010d97e6,2020-08-10_10h17.37.894,lexical_decision_task_MP,2020.1.3,MacIntel,60,,z,1,0.70102,,,,,,,,0.70102,1,,,,,,314,NW,"ID",33,sprine,SPRINE,z,,,,,,-0.01859747,-0.406395089,0,0,0,,0,95,95,253,1,
,,,,,,,,,,,,,,,,,,5afa5252672ea800010d97e6,2020-08-10_10h17.37.894,lexical_decision_task_MP,2020.1.3,MacIntel,60,,z,1,0.67022,,,,,,,,0.67022,1,,,,,,256,NW,UN,50,veniod,INLORS,z,,,,,,-0.01859747,-0.406395089,0,0,0,,0,96,96,435,1,
,,,,,,,,,,,,,,,,,,5afa5252672ea800010d97e6,2020-08-10_10h17.37.894,lexical_decision_task_MP,2020.1.3,MacIntel,60,,m,1,0.619135,,,,,,,,0.619135,1,,,,,,10,WORD,UN,50,cruise,ETHNIC,m,,,,,,-0.01859747,-0.406395089,0,0,0,,0,97,97,189,1,
,,,,,,,,,,,,,,,,,,5afa5252672ea800010d97e6,2020-08-10_10h17.37.894,lexical_decision_task_MP,2020.1.3,MacIntel,60,,z,1,0.55209,,,,,,,,0.55209,1,,,,,,267,NW,UN,50,packes,PASINK,z,,,,,,-0.01859747,-0.406395089,0,0,0,,0,98,98,446,1,
,,,,,,,,,,,,,,,,,,5afa5252672ea800010d97e6,2020-08-10_10h17.37.894,lexical_decision_task_MP,2020.1.3,MacIntel,60,,z,1,0.68082,,,,,,,,0.68082,1,,,,,,467,NW,UN,33,wictor,GORBIE,z,,,,,,-0.01859747,-0.406395089,0,0,0,,0,99,99,406,1,
,,,,,,,,,,,,,,,,,,5afa5252672ea800010d97e6,2020-08-10_10h17.37.894,lexical_decision_task_MP,2020.1.3,MacIntel,60,,z,1,0.53705,,,,,,,,0.53705,1,,,,,,276,NW,UN,50,petain,YARMON,z,,,,,,-0.01859747,-0.406395089,0,0,0,,0,100,100,455,1,
,,,,,,,,,,,,,,,,,,5afa5252672ea800010d97e6,2020-08-10_10h17.37.894,lexical_decision_task_MP,2020.1.3,MacIntel,60,,m,1,0.495645,,,,,,,,0.495645,1,,,,,,128,WORD,"ID",50,senior,SENIOR,m,,,,,,-0.01859747,-0.406395089,0,0,0,,0,101,101,67,1,
,,,,,,,,,,,,,,,,,,5afa5252672ea800010d97e6,2020-08-10_10h17.37.894,lexical_decision_task_MP,2020.1.3,MacIntel,60,,m,1,0.66927,,,,,,,,0.66927,1,,,,,,139,WORD,"ID",50,debris,DEBRIS,m,,,,,,-0.01859747,-0.406395089,0,0,0,,0,102,102,78,1,
,,,,,,,,,,,,,,,,,,5afa5252672ea800010d97e6,2020-08-10_10h17.37.894,lexical_decision_task_MP,2020.1.3,MacIntel,60,,m,1,0.501295,,,,,,,,0.501295,1,,,,,,98,WORD,"ID",33,belong,BELONG,m,,,,,,-0.01859747,-0.406395089,0,0,0,,0,103,103,37,1,
,,,,,,,,,,,,,,,,,,5afa5252672ea800010d97e6,2020-08-10_10h17.37.894,lexical_decision_task_MP,2020.1.3,MacIntel,60,,z,1,0.56743,,,,,,,,0.56743,1,,,,,,471,NW,UN,33,cigney,NOBEST,z,,,,,,-0.01859747,-0.406395089,0,0,0,,0,104,104,410,1,
,,,,,,,,,,,,,,,,,,5afa5252672ea800010d97e6,2020-08-10_10h17.37.894,lexical_decision_task_MP,2020.1.3,MacIntel,60,,z,1,0.469565,,,,,,,,0.469565,1,,,,,,262,NW,UN,50,dolica,QUILEW,z,,,,,,-0.01859747,-0.406395089,0,0,0,,0,105,105,441,1,
,,,,,,,,,,,,,,,,,,5afa5252672ea800010d97e6,2020-08-10_10h17.37.894,lexical_decision_task_MP,2020.1.3,MacIntel,60,,m,1,0.69102,,,,,,,,0.69102,1,,,,,,183,WORD,UN,33,sleazy,MILDEW,m,,,,,,-0.01859747,-0.406395089,0,0,0,,0,106,106,122,1,
,,,,,,,,,,,,,,,,,,5afa5252672ea800010d97e6,2020-08-10_10h17.37.894,lexical_decision_task_MP,2020.1.3,MacIntel,60,,m,1,0.4634,,,,,,,,0.4634,1,,,,,,204,WORD,UN,33,lounge,BURDEN,m,,,,,,-0.01859747,-0.406395089,0,0,0,,0,107,107,143,1,
,,,,,,,,,,,,,,,,,,5afa5252672ea800010d97e6,2020-08-10_10h17.37.894,lexical_decision_task_MP,2020.1.3,MacIntel,60,,z,1,0.577615,,,,,,,,0.577615,1,,,,,,391,NW,"ID",50,theldy,THELDY,z,,,,,,-0.01859747,-0.406395089,0,0,0,,0,108,108,330,1,
,,,,,,,,,,,,,,,,,,5afa5252672ea800010d97e6,2020-08-10_10h17.37.894,lexical_decision_task_MP,2020.1.3,MacIntel,60,,z,1,0.789415,,,,,,,,0.789415,1,,,,,,348,NW,"ID",33,dumple,DUMPLE,z,,,,,,-0.01859747,-0.406395089,0,0,0,,0,109,109,287,1,
,,,,,,,,,,,,,,,,,,5afa5252672ea800010d97e6,2020-08-10_10h17.37.894,lexical_decision_task_MP,2020.1.3,MacIntel,60,,m,1,0.63996,,,,,,,,0.63996,1,,,,,,184,WORD,UN,33,bother,SLEAZY,m,,,,,,-0.01859747,-0.406395089,0,0,0,,0,110,110,123,1,
,,,,,,,,,,,,,,,,,,5afa5252672ea800010d97e6,2020-08-10_10h17.37.894,lexical_decision_task_MP,2020.1.3,MacIntel,60,,z,1,0.649475,,,,,,,,0.649475,1,,,,,,443,NW,UN,33,jaunce,DORSEX,z,,,,,,-0.01859747,-0.406395089,0,0,0,,0,111,111,382,1,
,,,,,,,,,,,,,,,,,,5afa5252672ea800010d97e6,2020-08-10_10h17.37.894,lexical_decision_task_MP,2020.1.3,MacIntel,60,,z,1,0.521315,,,,,,,,0.521315,1,,,,,,464,NW,UN,33,whivex,CHAITE,z,,,,,,-0.01859747,-0.406395089,0,0,0,,0,112,112,403,1,
,,,,,,,,,,,,,,,,,,5afa5252672ea800010d97e6,2020-08-10_10h17.37.894,lexical_decision_task_MP,2020.1.3,MacIntel,60,,m,1,0.752015,,,,,,,,0.752015,1,,,,,,54,WORD,UN,50,stroke,RAMBLE,m,,,,,,-0.01859747,-0.406395089,0,0,0,,0,113,113,233,1,
,,,,,,,,,,,,,,,,,,5afa5252672ea800010d97e6,2020-08-10_10h17.37.894,lexical_decision_task_MP,2020.1.3,MacIntel,60,,m,1,0.45139,,,,,,,,0.45139,1,,,,,,161,WORD,"ID",50,pastor,PASTOR,m,,,,,,-0.01859747,-0.406395089,0,0,0,,0,114,114,100,1,
,,,,,,,,,,,,,,,,,,5afa5252672ea800010d97e6,2020-08-10_10h17.37.894,lexical_decision_task_MP,2020.1.3,MacIntel,60,,z,1,0.506085,,,,,,,,0.506085,1,,,,,,426,NW,UN,33,schind,URIVEL,z,,,,,,-0.01859747,-0.406395089,0,0,0,,0,115,115,365,1,
,,,,,,,,,,,,,,,,,,5afa5252672ea800010d97e6,2020-08-10_10h17.37.894,lexical_decision_task_MP,2020.1.3,MacIntel,60,,m,1,0.444895,,,,,,,,0.444895,1,,,,,,159,WORD,"ID",50,detail,DETAIL,m,,,,,,-0.01859747,-0.406395089,0,0,0,,0,116,116,98,1,
,,,,,,,,,,,,,,,,,,5afa5252672ea800010d97e6,2020-08-10_10h17.37.894,lexical_decision_task_MP,2020.1.3,MacIntel,60,,z,1,0.53365,,,,,,,,0.53365,1,,,,,,343,NW,"ID",33,aimosy,AIMOSY,z,,,,,,-0.01859747,-0.406395089,0,0,0,,0,117,117,282,1,
,,,,,,,,,,,,,,,,,,5afa5252672ea800010d97e6,2020-08-10_10h17.37.894,lexical_decision_task_MP,2020.1.3,MacIntel,60,,m,1,0.51795,,,,,,,,0.51795,1,,,,,,114,WORD,"ID",33,placid,PLACID,m,,,,,,-0.01859747,-0.406395089,0,0,0,,0,118,118,53,1,
,,,,,,,,,,,,,,,,,,5afa5252672ea800010d97e6,2020-08-10_10h17.37.894,lexical_decision_task_MP,2020.1.3,MacIntel,60,,m,1,0.54978,,,,,,,,0.54978,1,,,,,,78,WORD,"ID",33,column,COLUMN,m,,,,,,-0.01859747,-0.406395089,0,0,0,,0,119,119,17,1,
,,,,,,,,,,,,,,,,,,5afa5252672ea800010d97e6,2020-08-10_10h17.37.894,lexical_decision_task_MP,2020.1.3,MacIntel,60,,m,1,0.621575,,,,,,,,0.621575,1,,,,,,97,WORD,"ID",33,client,CLIENT,m,,,,,,-0.01859747,-0.406395089,0,0,0,space,0,120,120,36,1,56.298405
,,,,,,,,,,,,,,,,,,5afa5252672ea800010d97e6,2020-08-10_10h17.37.894,lexical_decision_task_MP,2020.1.3,MacIntel,60,,m,1,0.634835,,,,,,,,0.634835,1,,,,,,162,WORD,"ID",50,candle,CANDLE,m,,,,,,-0.01859747,-0.406395089,0,0,0,,0,121,121,101,1,
,,,,,,,,,,,,,,,,,,5afa5252672ea800010d97e6,2020-08-10_10h17.37.894,lexical_decision_task_MP,2020.1.3,MacIntel,60,,z,1,0.517235,,,,,,,,0.517235,1,,,,,,330,NW,"ID",33,kensom,KENSOM,z,,,,,,-0.01859747,-0.406395089,0,0,0,,0,122,122,269,1,
,,,,,,,,,,,,,,,,,,5afa5252672ea800010d97e6,2020-08-10_10h17.37.894,lexical_decision_task_MP,2020.1.3,MacIntel,60,,m,1,0.450695,,,,,,,,0.450695,1,,,,,,210,WORD,UN,33,infect,MONKEY,m,,,,,,-0.01859747,-0.406395089,0,0,0,,0,123,123,149,1,
,,,,,,,,,,,,,,,,,,5afa5252672ea800010d97e6,2020-08-10_10h17.37.894,lexical_decision_task_MP,2020.1.3,MacIntel,60,,z,1,0.45064,,,,,,,,0.45064,1,,,,,,290,NW,UN,50,pretch,SPLINO,z,,,,,,-0.01859747,-0.406395089,0,0,0,,0,124,124,469,1,
,,,,,,,,,,,,,,,,,,5afa5252672ea800010d97e6,2020-08-10_10h17.37.894,lexical_decision_task_MP,2020.1.3,MacIntel,60,,z,0,0.40156,,,,,,,,0.40156,0,,,,,,112,WORD,"ID",33,breath,BREATH,m,,,,,,-0.01859747,-0.406395089,0,0,0,,0,125,125,51,1,
,,,,,,,,,,,,,,,,,,5afa5252672ea800010d97e6,2020-08-10_10h17.37.894,lexical_decision_task_MP,2020.1.3,MacIntel,60,,z,1,0.61507,,,,,,,,0.61507,1,,,,,,430,NW,UN,33,chrums,CAROEY,z,,,,,,-0.01859747,-0.406395089,0,0,0,,0,126,126,369,1,
,,,,,,,,,,,,,,,,,,5afa5252672ea800010d97e6,2020-08-10_10h17.37.894,lexical_decision_task_MP,2020.1.3,MacIntel,60,,m,1,0.49699,,,,,,,,0.49699,1,,,,,,147,WORD,"ID",50,garlic,GARLIC,m,,,,,,-0.01859747,-0.406395089,0,0,0,,0,127,127,86,1,
,,,,,,,,,,,,,,,,,,5afa5252672ea800010d97e6,2020-08-10_10h17.37.894,lexical_decision_task_MP,2020.1.3,MacIntel,60,,m,1,0.5032,,,,,,,,0.5032,1,,,,,,152,WORD,"ID",50,rocket,ROCKET,m,,,,,,-0.01859747,-0.406395089,0,0,0,,0,128,128,91,1,
,,,,,,,,,,,,,,,,,,5afa5252672ea800010d97e6,2020-08-10_10h17.37.894,lexical_decision_task_MP,2020.1.3,MacIntel,60,,m,1,0.484185,,,,,,,,0.484185,1,,,,,,185,WORD,UN,33,portal,BOTHER,m,,,,,,-0.01859747,-0.406395089,0,0,0,,0,129,129,124,1,
,,,,,,,,,,,,,,,,,,5afa5252672ea800010d97e6,2020-08-10_10h17.37.894,lexical_decision_task_MP,2020.1.3,MacIntel,60,,z,1,0.538215,,,,,,,,0.538215,1,,,,,,385,NW,"ID",50,veigma,VEIGMA,z,,,,,,-0.01859747,-0.406395089,0,0,0,,0,130,130,324,1,
,,,,,,,,,,,,,,,,,,5afa5252672ea800010d97e6,2020-08-10_10h17.37.894,lexical_decision_task_MP,2020.1.3,MacIntel,60,,z,1,0.800065,,,,,,,,0.800065,1,,,,,,248,NW,UN,50,batrol,STROLE,z,,,,,,-0.01859747,-0.406395089,0,0,0,,0,131,131,427,1,
,,,,,,,,,,,,,,,,,,5afa5252672ea800010d97e6,2020-08-10_10h17.37.894,lexical_decision_task_MP,2020.1.3,MacIntel,60,,m,1,0.59724,,,,,,,,0.59724,1,,,,,,44,WORD,UN,50,clergy,DANGER,m,,,,,,-0.01859747,-0.406395089,0,0,0,,0,132,132,223,1,
,,,,,,,,,,,,,,,,,,5afa5252672ea800010d97e6,2020-08-10_10h17.37.894,lexical_decision_task_MP,2020.1.3,MacIntel,60,,z,1,0.503955,,,,,,,,0.503955,1,,,,,,451,NW,UN,33,surden,CAINKY,z,,,,,,-0.01859747,-0.406395089,0,0,0,,0,133,133,390,1,
,,,,,,,,,,,,,,,,,,5afa5252672ea800010d97e6,2020-08-10_10h17.37.894,lexical_decision_task_MP,2020.1.3,MacIntel,60,,m,1,0.74698,,,,,,,,0.74698,1,,,,,,200,WORD,UN,33,admire,BEACON,m,,,,,,-0.01859747,-0.406395089,0,0,0,,0,134,134,139,1,
,,,,,,,,,,,,,,,,,,5afa5252672ea800010d97e6,2020-08-10_10h17.37.894,lexical_decision_task_MP,2020.1.3,MacIntel,60,,z,1,0.50301,,,,,,,,0.50301,1,,,,,,333,NW,"ID",33,catrie,CATRIE,z,,,,,,-0.01859747,-0.406395089,0,0,0,,0,135,135,272,1,
,,,,,,,,,,,,,,,,,,5afa5252672ea800010d97e6,2020-08-10_10h17.37.894,lexical_decision_task_MP,2020.1.3,MacIntel,60,,z,1,0.653255,,,,,,,,0.653255,1,,,,,,307,NW,"ID",33,kirafe,KIRAFE,z,,,,,,-0.01859747,-0.406395089,0,0,0,,0,136,136,246,1,
,,,,,,,,,,,,,,,,,,5afa5252672ea800010d97e6,2020-08-10_10h17.37.894,lexical_decision_task_MP,2020.1.3,MacIntel,60,,z,1,0.71379,,,,,,,,0.71379,1,,,,,,479,NW,UN,33,crible,LOBUSH,z,,,,,,-0.01859747,-0.406395089,0,0,0,,0,137,137,418,1,
,,,,,,,,,,,,,,,,,,5afa5252672ea800010d97e6,2020-08-10_10h17.37.894,lexical_decision_task_MP,2020.1.3,MacIntel,60,,m,1,0.41716,,,,,,,,0.41716,1,,,,,,104,WORD,"ID",33,studio,STUDIO,m,,,,,,-0.01859747,-0.406395089,0,0,0,,0,138,138,43,1,
,,,,,,,,,,,,,,,,,,5afa5252672ea800010d97e6,2020-08-10_10h17.37.894,lexical_decision_task_MP,2020.1.3,MacIntel,60,,m,1,0.558185,,,,,,,,0.558185,1,,,,,,103,WORD,"ID",33,bounce,BOUNCE,m,,,,,,-0.01859747,-0.406395089,0,0,0,,0,139,139,42,1,
,,,,,,,,,,,,,,,,,,5afa5252672ea800010d97e6,2020-08-10_10h17.37.894,lexical_decision_task_MP,2020.1.3,MacIntel,60,,z,1,0.66716,,,,,,,,0.66716,1,,,,,,312,NW,"ID",33,nerawl,NERAWL,z,,,,,,-0.01859747,-0.406395089,0,0,0,,0,140,140,251,1,
,,,,,,,,,,,,,,,,,,5afa5252672ea800010d97e6,2020-08-10_10h17.37.894,lexical_decision_task_MP,2020.1.3,MacIntel,60,,m,1,0.60076,,,,,,,,0.60076,1,,,,,,201,WORD,UN,33,factor,ADMIRE,m,,,,,,-0.01859747,-0.406395089,0,0,0,,0,141,141,140,1,
,,,,,,,,,,,,,,,,,,5afa5252672ea800010d97e6,2020-08-10_10h17.37.894,lexical_decision_task_MP,2020.1.3,MacIntel,60,,z,1,0.648235,,,,,,,,0.648235,1,,,,,,470,NW,UN,33,nobest,CRUDIO,z,,,,,,-0.01859747,-0.406395089,0,0,0,,0,142,142,409,1,
,,,,,,,,,,,,,,,,,,5afa5252672ea800010d97e6,2020-08-10_10h17.37.894,lexical_decision_task_MP,2020.1.3,MacIntel,60,,z,1,0.51704,,,,,,,,0.51704,1,,,,,,463,NW,UN,33,chaite,KISPEL,z,,,,,,-0.01859747,-0.406395089,0,0,0,,0,143,143,402,1,
,,,,,,,,,,,,,,,,,,5afa5252672ea800010d97e6,2020-08-10_10h17.37.894,lexical_decision_task_MP,2020.1.3,MacIntel,60,,m,1,0.580925,,,,,,,,0.580925,1,,,,,,46,WORD,UN,50,income,SINGLE,m,,,,,,-0.01859747,-0.406395089,0,0,0,,0,144,144,225,1,
,,,,,,,,,,,,,,,,,,5afa5252672ea800010d97e6,2020-08-10_10h17.37.894,lexical_decision_task_MP,2020.1.3,MacIntel,60,,z,1,0.63567,,,,,,,,0.63567,1,,,,,,338,NW,"ID",33,wreash,WREASH,z,,,,,,-0.01859747,-0.406395089,0,0,0,,0,145,145,277,1,
,,,,,,,,,,,,,,,,,,5afa5252672ea800010d97e6,2020-08-10_10h17.37.894,lexical_decision_task_MP,2020.1.3,MacIntel,60,,z,1,0.55492,,,,,,,,0.55492,1,,,,,,407,NW,"ID",50,suiver,SUIVER,z,,,,,,-0.01859747,-0.406395089,0,0,0,,0,146,146,346,1,
,,,,,,,,,,,,,,,,,,5afa5252672ea800010d97e6,2020-08-10_10h17.37.894,lexical_decision_task_MP,2020.1.3,MacIntel,60,,z,1,0.44827,,,,,,,,0.44827,1,,,,,,362,NW,"ID",50,tireau,TIREAU,z,,,,,,-0.01859747,-0.406395089,0,0,0,,0,147,147,301,1,
,,,,,,,,,,,,,,,,,,5afa5252672ea800010d97e6,2020-08-10_10h17.37.894,lexical_decision_task_MP,2020.1.3,MacIntel,60,,z,1,0.553785,,,,,,,,0.553785,1,,,,,,315,NW,"ID",33,laston,LASTON,z,,,,,,-0.01859747,-0.406395089,0,0,0,,0,148,148,254,1,
,,,,,,,,,,,,,,,,,,5afa5252672ea800010d97e6,2020-08-10_10h17.37.894,lexical_decision_task_MP,2020.1.3,MacIntel,60,,z,1,0.51461,,,,,,,,0.51461,1,,,,,,444,NW,UN,33,minkel,JAUNCE,z,,,,,,-0.01859747,-0.406395089,0,0,0,,0,149,149,383,1,
,,,,,,,,,,,,,,,,,,5afa5252672ea800010d97e6,2020-08-10_10h17.37.894,lexical_decision_task_MP,2020.1.3,MacIntel,60,,m,1,0.53345,,,,,,,,0.53345,1,,,,,,87,WORD,"ID",33,filter,FILTER,m,,,,,,-0.01859747,-0.406395089,0,0,0,,0,150,150,26,1,
,,,,,,,,,,,,,,,,,,5afa5252672ea800010d97e6,2020-08-10_10h17.37.894,lexical_decision_task_MP,2020.1.3,MacIntel,60,,z,1,0.567085,,,,,,,,0.567085,1,,,,,,280,NW,UN,50,melaty,CURBOL,z,,,,,,-0.01859747,-0.406395089,0,0,0,,0,151,151,459,1,
,,,,,,,,,,,,,,,,,,5afa5252672ea800010d97e6,2020-08-10_10h17.37.894,lexical_decision_task_MP,2020.1.3,MacIntel,60,,m,1,0.584165,,,,,,,,0.584165,1,,,,,,221,WORD,UN,33,hinder,MASCOT,m,,,,,,-0.01859747,-0.406395089,0,0,0,,0,152,152,160,1,
,,,,,,,,,,,,,,,,,,5afa5252672ea800010d97e6,2020-08-10_10h17.37.894,lexical_decision_task_MP,2020.1.3,MacIntel,60,,z,1,0.40097,,,,,,,,0.40097,1,,,,,,281,NW,UN,50,porlex,MELATY,z,,,,,,-0.01859747,-0.406395089,0,0,0,,0,153,153,460,1,
,,,,,,,,,,,,,,,,,,5afa5252672ea800010d97e6,2020-08-10_10h17.37.894,lexical_decision_task_MP,2020.1.3,MacIntel,60,,z,1,0.58453,,,,,,,,0.58453,1,,,,,,270,NW,UN,50,aubrid,WRIMSY,z,,,,,,-0.01859747,-0.406395089,0,0,0,,0,154,154,449,1,
,,,,,,,,,,,,,,,,,,5afa5252672ea800010d97e6,2020-08-10_10h17.37.894,lexical_decision_task_MP,2020.1.3,MacIntel,60,,m,1,0.53354,,,,,,,,0.53354,1,,,,,,141,WORD,"ID",50,orphan,ORPHAN,m,,,,,,-0.01859747,-0.406395089,0,0,0,,0,155,155,80,1,
,,,,,,,,,,,,,,,,,,5afa5252672ea800010d97e6,2020-08-10_10h17.37.894,lexical_decision_task_MP,2020.1.3,MacIntel,60,,m,1,0.55011,,,,,,,,0.55011,1,,,,,,233,WORD,UN,33,clumsy,NATURE,m,,,,,,-0.01859747,-0.406395089,0,0,0,,0,156,156,172,1,
,,,,,,,,,,,,,,,,,,5afa5252672ea800010d97e6,2020-08-10_10h17.37.894,lexical_decision_task_MP,2020.1.3,MacIntel,60,,z,1,0.58369,,,,,,,,0.58369,1,,,,,,460,NW,UN,33,justre,MINGAR,z,,,,,,-0.01859747,-0.406395089,0,0,0,,0,157,157,399,1,
,,,,,,,,,,,,,,,,,,5afa5252672ea800010d97e6,2020-08-10_10h17.37.894,lexical_decision_task_MP,2020.1.3,MacIntel,60,,z,1,0.56982,,,,,,,,0.56982,1,,,,,,291,NW,UN,50,ablint,PRETCH,z,,,,,,-0.01859747,-0.406395089,0,0,0,,0,158,158,470,1,
,,,,,,,,,,,,,,,,,,5afa5252672ea800010d97e6,2020-08-10_10h17.37.894,lexical_decision_task_MP,2020.1.3,MacIntel,60,,z,1,0.584065,,,,,,,,0.584065,1,,,,,,313,NW,"ID",33,paurse,PAURSE,z,,,,,,-0.01859747,-0.406395089,0,0,0,,0,159,159,252,1,
,,,,,,,,,,,,,,,,,,5afa5252672ea800010d97e6,2020-08-10_10h17.37.894,lexical_decision_task_MP,2020.1.3,MacIntel,60,,m,1,0.48331,,,,,,,,0.48331,1,,,,,,39,WORD,UN,50,convey,INSECT,m,,,,,,-0.01859747,-0.406395089,0,0,0,,0,160,160,218,1,
,,,,,,,,,,,,,,,,,,5afa5252672ea800010d97e6,2020-08-10_10h17.37.894,lexical_decision_task_MP,2020.1.3,MacIntel,60,,m,1,0.867485,,,,,,,,0.867485,1,,,,,,222,WORD,UN,33,export,HINDER,m,,,,,,-0.01859747,-0.406395089,0,0,0,,0,161,161,161,1,
,,,,,,,,,,,,,,,,,,5afa5252672ea800010d97e6,2020-08-10_10h17.37.894,lexical_decision_task_MP,2020.1.3,MacIntel,60,,z,1,0.566995,,,,,,,,0.566995,1,,,,,,371,NW,"ID",50,geiloy,GEILOY,z,,,,,,-0.01859747,-0.406395089,0,0,0,,0,162,162,310,1,
,,,,,,,,,,,,,,,,,,5afa5252672ea800010d97e6,2020-08-10_10h17.37.894,lexical_decision_task_MP,2020.1.3,MacIntel,60,,m,1,0.46875,,,,,,,,0.46875,1,,,,,,41,WORD,UN,50,chapel,SPRING,m,,,,,,-0.01859747,-0.406395089,0,0,0,,0,163,163,220,1,
,,,,,,,,,,,,,,,,,,5afa5252672ea800010d97e6,2020-08-10_10h17.37.894,lexical_decision_task_MP,2020.1.3,MacIntel,60,,z,1,0.61881,,,,,,,,0.61881,1,,,,,,377,NW,"ID",50,injore,INJORE,z,,,,,,-0.01859747,-0.406395089,0,0,0,,0,164,164,316,1,
,,,,,,,,,,,,,,,,,,5afa5252672ea800010d97e6,2020-08-10_10h17.37.894,lexical_decision_task_MP,2020.1.3,MacIntel,60,,m,1,0.46877,,,,,,,,0.46877,1,,,,,,89,WORD,"ID",33,permit,PERMIT,m,,,,,,-0.01859747,-0.406395089,0,0,0,,0,165,165,28,1,
,,,,,,,,,,,,,,,,,,5afa5252672ea800010d97e6,2020-08-10_10h17.37.894,lexical_decision_task_MP,2020.1.3,MacIntel,60,,z,1,0.650455,,,,,,,,0.650455,1,,,,,,289,NW,UN,50,splino,STARBY,z,,,,,,-0.01859747,-0.406395089,0,0,0,,0,166,166,468,1,
,,,,,,,,,,,,,,,,,,5afa5252672ea800010d97e6,2020-08-10_10h17.37.894,lexical_decision_task_MP,2020.1.3,MacIntel,60,,m,1,0.43394,,,,,,,,0.43394,1,,,,,,67,WORD,"ID",33,policy,POLICY,m,,,,,,-0.01859747,-0.406395089,0,0,0,,0,167,167,6,1,
,,,,,,,,,,,,,,,,,,5afa5252672ea800010d97e6,2020-08-10_10h17.37.894,lexical_decision_task_MP,2020.1.3,MacIntel,60,,m,1,0.53405,,,,,,,,0.53405,1,,,,,,163,WORD,"ID",50,string,STRING,m,,,,,,-0.01859747,-0.406395089,0,0,0,,0,168,168,102,1,
,,,,,,,,,,,,,,,,,,5afa5252672ea800010d97e6,2020-08-10_10h17.37.894,lexical_decision_task_MP,2020.1.3,MacIntel,60,,z,1,0.588065,,,,,,,,0.588065,1,,,,,,419,NW,"ID",50,slount,SLOUNT,z,,,,,,-0.01859747,-0.406395089,0,0,0,,0,169,169,358,1,
,,,,,,,,,,,,,,,,,,5afa5252672ea800010d97e6,2020-08-10_10h17.37.894,lexical_decision_task_MP,2020.1.3,MacIntel,60,,m,1,0.482415,,,,,,,,0.482415,1,,,,,,238,WORD,UN,33,behalf,FLOWER,m,,,,,,-0.01859747,-0.406395089,0,0,0,,0,170,170,177,1,
,,,,,,,,,,,,,,,,,,5afa5252672ea800010d97e6,2020-08-10_10h17.37.894,lexical_decision_task_MP,2020.1.3,MacIntel,60,,z,1,0.667355,,,,,,,,0.667355,1,,,,,,408,NW,"ID",50,hurnia,HURNIA,z,,,,,,-0.01859747,-0.406395089,0,0,0,,0,171,171,347,1,
,,,,,,,,,,,,,,,,,,5afa5252672ea800010d97e6,2020-08-10_10h17.37.894,lexical_decision_task_MP,2020.1.3,MacIntel,60,,m,1,0.50321,,,,,,,,0.50321,1,,,,,,83,WORD,"ID",33,result,RESULT,m,,,,,,-0.01859747,-0.406395089,0,0,0,,0,172,172,22,1,
,,,,,,,,,,,,,,,,,,5afa5252672ea800010d97e6,2020-08-10_10h17.37.894,lexical_decision_task_MP,2020.1.3,MacIntel,60,,z,1,0.61703,,,,,,,,0.61703,1,,,,,,449,NW,UN,33,phrect,BRUNGE,z,,,,,,-0.01859747,-0.406395089,0,0,0,,0,173,173,388,1,
,,,,,,,,,,,,,,,,,,5afa5252672ea800010d97e6,2020-08-10_10h17.37.894,lexical_decision_task_MP,2020.1.3,MacIntel,60,,m,1,0.61737,,,,,,,,0.61737,1,,,,,,5,WORD,UN,50,bundle,PLUNGE,m,,,,,,-0.01859747,-0.406395089,0,0,0,,0,174,174,184,1,
,,,,,,,,,,,,,,,,,,5afa5252672ea800010d97e6,2020-08-10_10h17.37.894,lexical_decision_task_MP,2020.1.3,MacIntel,60,,z,1,0.5842,,,,,,,,0.5842,1,,,,,,367,NW,"ID",50,slique,SLIQUE,z,,,,,,-0.01859747,-0.406395089,0,0,0,,0,175,175,306,1,
,,,,,,,,,,,,,,,,,,5afa5252672ea800010d97e6,2020-08-10_10h17.37.894,lexical_decision_task_MP,2020.1.3,MacIntel,60,,m,1,0.51607,,,,,,,,0.51607,1,,,,,,154,WORD,"ID",50,author,AUTHOR,m,,,,,,-0.01859747,-0.406395089,0,0,0,,0,176,176,93,1,
,,,,,,,,,,,,,,,,,,5afa5252672ea800010d97e6,2020-08-10_10h17.37.894,lexical_decision_task_MP,2020.1.3,MacIntel,60,,z,1,0.566675,,,,,,,,0.566675,1,,,,,,272,NW,UN,50,sortel,DAMILT,z,,,,,,-0.01859747,-0.406395089,0,0,0,,0,177,177,451,1,
,,,,,,,,,,,,,,,,,,5afa5252672ea800010d97e6,2020-08-10_10h17.37.894,lexical_decision_task_MP,2020.1.3,MacIntel,60,,m,1,0.484135,,,,,,,,0.484135,1,,,,,,9,WORD,UN,50,bridge,HUSTLE,m,,,,,,-0.01859747,-0.406395089,0,0,0,,0,178,178,188,1,
,,,,,,,,,,,,,,,,,,5afa5252672ea800010d97e6,2020-08-10_10h17.37.894,lexical_decision_task_MP,2020.1.3,MacIntel,60,,z,1,0.56613,,,,,,,,0.56613,1,,,,,,378,NW,"ID",50,shrile,SHRILE,z,,,,,,-0.01859747,-0.406395089,0,0,0,,0,179,179,317,1,
,,,,,,,,,,,,,,,,,,5afa5252672ea800010d97e6,2020-08-10_10h17.37.894,lexical_decision_task_MP,2020.1.3,MacIntel,60,,z,1,0.585805,,,,,,,,0.585805,1,,,,,,357,NW,"ID",33,derain,DERAIN,z,,,,,,-0.01859747,-0.406395089,0,0,0,,0,180,180,296,1,
,,,,,,,,,,,,,,,,,,5afa5252672ea800010d97e6,2020-08-10_10h17.37.894,lexical_decision_task_MP,2020.1.3,MacIntel,60,,m,1,0.716875,,,,,,,,0.716875,1,,,,,,99,WORD,"ID",33,fluent,FLUENT,m,,,,,,-0.01859747,-0.406395089,0,0,0,,0,181,181,38,1,
,,,,,,,,,,,,,,,,,,5afa5252672ea800010d97e6,2020-08-10_10h17.37.894,lexical_decision_task_MP,2020.1.3,MacIntel,60,,m,1,0.517245,,,,,,,,0.517245,1,,,,,,15,WORD,UN,50,faucet,AMOUNT,m,,,,,,-0.01859747,-0.406395089,0,0,0,,0,182,182,194,1,
,,,,,,,,,,,,,,,,,,5afa5252672ea800010d97e6,2020-08-10_10h17.37.894,lexical_decision_task_MP,2020.1.3,MacIntel,60,,m,1,0.4505,,,,,,,,0.4505,1,,,,,,27,WORD,UN,50,comedy,SCREAM,m,,,,,,-0.01859747,-0.406395089,0,0,0,,0,183,183,206,1,
,,,,,,,,,,,,,,,,,,5afa5252672ea800010d97e6,2020-08-10_10h17.37.894,lexical_decision_task_MP,2020.1.3,MacIntel,60,,m,1,0.48286,,,,,,,,0.48286,1,,,,,,153,WORD,"ID",50,behold,BEHOLD,m,,,,,,-0.01859747,-0.406395089,0,0,0,,0,184,184,92,1,
,,,,,,,,,,,,,,,,,,5afa5252672ea800010d97e6,2020-08-10_10h17.37.894,lexical_decision_task_MP,2020.1.3,MacIntel,60,,z,1,0.646015,,,,,,,,0.646015,1,,,,,,364,NW,"ID",50,impote,IMPOTE,z,,,,,,-0.01859747,-0.406395089,0,0,0,,0,185,185,303,1,
,,,,,,,,,,,,,,,,,,5afa5252672ea800010d97e6,2020-08-10_10h17.37.894,lexical_decision_task_MP,2020.1.3,MacIntel,60,,z,1,0.679365,,,,,,,,0.679365,1,,,,,,253,NW,UN,50,varosh,RESAIT,z,,,,,,-0.01859747,-0.406395089,0,0,0,,0,186,186,432,1,
,,,,,,,,,,,,,,,,,,5afa5252672ea800010d97e6,2020-08-10_10h17.37.894,lexical_decision_task_MP,2020.1.3,MacIntel,60,,m,1,0.467425,,,,,,,,0.467425,1,,,,,,132,WORD,"ID",50,strong,STRONG,m,,,,,,-0.01859747,-0.406395089,0,0,0,,0,187,187,71,1,
,,,,,,,,,,,,,,,,,,5afa5252672ea800010d97e6,2020-08-10_10h17.37.894,lexical_decision_task_MP,2020.1.3,MacIntel,60,,z,1,1.06941,,,,,,,,1.06941,1,,,,,,273,NW,UN,50,fumblo,SORTEL,z,,,,,,-0.01859747,-0.406395089,0,0,0,,0,188,188,452,1,
,,,,,,,,,,,,,,,,,,5afa5252672ea800010d97e6,2020-08-10_10h17.37.894,lexical_decision_task_MP,2020.1.3,MacIntel,60,,m,1,0.463805,,,,,,,,0.463805,1,,,,,,191,WORD,UN,33,beacon,STABLE,m,,,,,,-0.01859747,-0.406395089,0,0,0,,0,189,189,130,1,
,,,,,,,,,,,,,,,,,,5afa5252672ea800010d97e6,2020-08-10_10h17.37.894,lexical_decision_task_MP,2020.1.3,MacIntel,60,,m,1,0.54771,,,,,,,,0.54771,1,,,,,,122,WORD,"ID",50,linger,LINGER,m,,,,,,-0.01859747,-0.406395089,0,0,0,,0,190,190,61,1,
,,,,,,,,,,,,,,,,,,5afa5252672ea800010d97e6,2020-08-10_10h17.37.894,lexical_decision_task_MP,2020.1.3,MacIntel,60,,z,1,0.66727,,,,,,,,0.66727,1,,,,,,305,NW,"ID",33,forgle,FORGLE,z,,,,,,-0.01859747,-0.406395089,0,0,0,,0,191,191,244,1,
,,,,,,,,,,,,,,,,,,5afa5252672ea800010d97e6,2020-08-10_10h17.37.894,lexical_decision_task_MP,2020.1.3,MacIntel,60,,m,1,0.647425,,,,,,,,0.647425,1,,,,,,29,WORD,UN,50,orient,SKETCH,m,,,,,,-0.01859747,-0.406395089,0,0,0,,0,192,192,208,1,
,,,,,,,,,,,,,,,,,,5afa5252672ea800010d97e6,2020-08-10_10h17.37.894,lexical_decision_task_MP,2020.1.3,MacIntel,60,,z,1,0.68406,,,,,,,,0.68406,1,,,,,,310,NW,"ID",33,daniet,DANIET,z,,,,,,-0.01859747,-0.406395089,0,0,0,,0,193,193,249,1,
,,,,,,,,,,,,,,,,,,5afa5252672ea800010d97e6,2020-08-10_10h17.37.894,lexical_decision_task_MP,2020.1.3,MacIntel,60,,z,1,0.634985,,,,,,,,0.634985,1,,,,,,355,NW,"ID",33,zingly,ZINGLY,z,,,,,,-0.01859747,-0.406395089,0,0,0,,0,194,194,294,1,
,,,,,,,,,,,,,,,,,,5afa5252672ea800010d97e6,2020-08-10_10h17.37.894,lexical_decision_task_MP,2020.1.3,MacIntel,60,,m,1,0.56744,,,,,,,,0.56744,1,,,,,,84,WORD,"ID",33,mortal,MORTAL,m,,,,,,-0.01859747,-0.406395089,0,0,0,,0,195,195,23,1,
,,,,,,,,,,,,,,,,,,5afa5252672ea800010d97e6,2020-08-10_10h17.37.894,lexical_decision_task_MP,2020.1.3,MacIntel,60,,z,1,0.634065,,,,,,,,0.634065,1,,,,,,275,NW,UN,50,yarmon,SLEIRT,z,,,,,,-0.01859747,-0.406395089,0,0,0,,0,196,196,454,1,
,,,,,,,,,,,,,,,,,,5afa5252672ea800010d97e6,2020-08-10_10h17.37.894,lexical_decision_task_MP,2020.1.3,MacIntel,60,,m,1,0.48425,,,,,,,,0.48425,1,,,,,,95,WORD,"ID",33,thread,THREAD,m,,,,,,-0.01859747,-0.406395089,0,0,0,,0,197,197,34,1,
,,,,,,,,,,,,,,,,,,5afa5252672ea800010d97e6,2020-08-10_10h17.37.894,lexical_decision_task_MP,2020.1.3,MacIntel,60,,z,1,0.566705,,,,,,,,0.566705,1,,,,,,424,NW,UN,33,frudge,PRAILE,z,,,,,,-0.01859747,-0.406395089,0,0,0,,0,198,198,363,1,
,,,,,,,,,,,,,,,,,,5afa5252672ea800010d97e6,2020-08-10_10h17.37.894,lexical_decision_task_MP,2020.1.3,MacIntel,60,,m,1,0.451055,,,,,,,,0.451055,1,,,,,,151,WORD,"ID",50,mystic,MYSTIC,m,,,,,,-0.01859747,-0.406395089,0,0,0,,0,199,199,90,1,
,,,,,,,,,,,,,,,,,,5afa5252672ea800010d97e6,2020-08-10_10h17.37.894,lexical_decision_task_MP,2020.1.3,MacIntel,60,,z,1,0.55071,,,,,,,,0.55071,1,,,,,,428,NW,UN,33,funtle,TANDLY,z,,,,,,-0.01859747,-0.406395089,0,0,0,,0,200,200,367,1,
,,,,,,,,,,,,,,,,,,5afa5252672ea800010d97e6,2020-08-10_10h17.37.894,lexical_decision_task_MP,2020.1.3,MacIntel,60,,m,1,0.482385,,,,,,,,0.482385,1,,,,,,217,WORD,UN,33,shrink,LIQUOR,m,,,,,,-0.01859747,-0.406395089,0,0,0,,0,201,201,156,1,
,,,,,,,,,,,,,,,,,,5afa5252672ea800010d97e6,2020-08-10_10h17.37.894,lexical_decision_task_MP,2020.1.3,MacIntel,60,,z,1,0.63333,,,,,,,,0.63333,1,,,,,,436,NW,UN,33,snapel,FRUTAN,z,,,,,,-0.01859747,-0.406395089,0,0,0,,0,202,202,375,1,
,,,,,,,,,,,,,,,,,,5afa5252672ea800010d97e6,2020-08-10_10h17.37.894,lexical_decision_task_MP,2020.1.3,MacIntel,60,,m,1,0.403285,,,,,,,,0.403285,1,,,,,,137,WORD,"ID",50,finger,FINGER,m,,,,,,-0.01859747,-0.406395089,0,0,0,,0,203,203,76,1,
,,,,,,,,,,,,,,,,,,5afa5252672ea800010d97e6,2020-08-10_10h17.37.894,lexical_decision_task_MP,2020.1.3,MacIntel,60,,m,1,0.518155,,,,,,,,0.518155,1,,,,,,96,WORD,"ID",33,ignore,IGNORE,m,,,,,,-0.01859747,-0.406395089,0,0,0,,0,204,204,35,1,
,,,,,,,,,,,,,,,,,,5afa5252672ea800010d97e6,2020-08-10_10h17.37.894,lexical_decision_task_MP,2020.1.3,MacIntel,60,,m,1,0.567215,,,,,,,,0.567215,1,,,,,,145,WORD,"ID",50,parish,PARISH,m,,,,,,-0.01859747,-0.406395089,0,0,0,,0,205,205,84,1,
,,,,,,,,,,,,,,,,,,5afa5252672ea800010d97e6,2020-08-10_10h17.37.894,lexical_decision_task_MP,2020.1.3,MacIntel,60,,z,1,0.62931,,,,,,,,0.62931,1,,,,,,446,NW,UN,33,gircue,RUNAMO,z,,,,,,-0.01859747,-0.406395089,0,0,0,,0,206,206,385,1,
,,,,,,,,,,,,,,,,,,5afa5252672ea800010d97e6,2020-08-10_10h17.37.894,lexical_decision_task_MP,2020.1.3,MacIntel,60,,m,1,0.464515,,,,,,,,0.464515,1,,,,,,195,WORD,UN,33,credit,RESIGN,m,,,,,,-0.01859747,-0.406395089,0,0,0,,0,207,207,134,1,
,,,,,,,,,,,,,,,,,,5afa5252672ea800010d97e6,2020-08-10_10h17.37.894,lexical_decision_task_MP,2020.1.3,MacIntel,60,,z,1,0.649005,,,,,,,,0.649005,1,,,,,,476,NW,UN,33,photie,JOSTED,z,,,,,,-0.01859747,-0.406395089,0,0,0,,0,208,208,415,1,
,,,,,,,,,,,,,,,,,,5afa5252672ea800010d97e6,2020-08-10_10h17.37.894,lexical_decision_task_MP,2020.1.3,MacIntel,60,,z,1,0.801945,,,,,,,,0.801945,1,,,,,,264,NW,UN,50,distar,VACKEL,z,,,,,,-0.01859747,-0.406395089,0,0,0,,0,209,209,443,1,
,,,,,,,,,,,,,,,,,,5afa5252672ea800010d97e6,2020-08-10_10h17.37.894,lexical_decision_task_MP,2020.1.3,MacIntel,60,,m,1,0.767275,,,,,,,,0.767275,1,,,,,,68,WORD,"ID",33,fumble,FUMBLE,m,,,,,,-0.01859747,-0.406395089,0,0,0,,0,210,210,7,1,
,,,,,,,,,,,,,,,,,,5afa5252672ea800010d97e6,2020-08-10_10h17.37.894,lexical_decision_task_MP,2020.1.3,MacIntel,60,,z,1,0.565205,,,,,,,,0.565205,1,,,,,,360,NW,"ID",33,desory,DESORY,z,,,,,,-0.01859747,-0.406395089,0,0,0,,0,211,211,299,1,
,,,,,,,,,,,,,,,,,,5afa5252672ea800010d97e6,2020-08-10_10h17.37.894,lexical_decision_task_MP,2020.1.3,MacIntel,60,,m,1,0.46629,,,,,,,,0.46629,1,,,,,,30,WORD,UN,50,weapon,ORIENT,m,,,,,,-0.01859747,-0.406395089,0,0,0,,0,212,212,209,1,
,,,,,,,,,,,,,,,,,,5afa5252672ea800010d97e6,2020-08-10_10h17.37.894,lexical_decision_task_MP,2020.1.3,MacIntel,60,,z,1,0.73122,,,,,,,,0.73122,1,,,,,,260,NW,UN,50,stunch,UNJECT,z,,,,,,-0.01859747,-0.406395089,0,0,0,,0,213,213,439,1,
,,,,,,,,,,,,,,,,,,5afa5252672ea800010d97e6,2020-08-10_10h17.37.894,lexical_decision_task_MP,2020.1.3,MacIntel,60,,m,1,0.405335,,,,,,,,0.405335,1,,,,,,117,WORD,"ID",33,branch,BRANCH,m,,,,,,-0.01859747,-0.406395089,0,0,0,,0,214,214,56,1,
,,,,,,,,,,,,,,,,,,5afa5252672ea800010d97e6,2020-08-10_10h17.37.894,lexical_decision_task_MP,2020.1.3,MacIntel,60,,m,1,0.48054,,,,,,,,0.48054,1,,,,,,71,WORD,"ID",33,garden,GARDEN,m,,,,,,-0.01859747,-0.406395089,0,0,0,,0,215,215,10,1,
,,,,,,,,,,,,,,,,,,5afa5252672ea800010d97e6,2020-08-10_10h17.37.894,lexical_decision_task_MP,2020.1.3,MacIntel,60,,z,1,0.634345,,,,,,,,0.634345,1,,,,,,296,NW,UN,50,fertic,BEINCH,z,,,,,,-0.01859747,-0.406395089,0,0,0,,0,216,216,475,1,
,,,,,,,,,,,,,,,,,,5afa5252672ea800010d97e6,2020-08-10_10h17.37.894,lexical_decision_task_MP,2020.1.3,MacIntel,60,,m,0,0.56484,,,,,,,,0.56484,0,,,,,,252,NW,UN,50,resait,STAPOD,z,,,,,,-0.01859747,-0.406395089,0,0,0,,0,217,217,431,1,
,,,,,,,,,,,,,,,,,,5afa5252672ea800010d97e6,2020-08-10_10h17.37.894,lexical_decision_task_MP,2020.1.3,MacIntel,60,,m,1,0.596105,,,,,,,,0.596105,1,,,,,,59,WORD,UN,50,pencil,SPLINT,m,,,,,,-0.01859747,-0.406395089,0,0,0,,0,218,218,238,1,
,,,,,,,,,,,,,,,,,,5afa5252672ea800010d97e6,2020-08-10_10h17.37.894,lexical_decision_task_MP,2020.1.3,MacIntel,60,,m,0,0.550485,,,,,,,,0.550485,0,,,,,,413,NW,"ID",50,equats,EQUATS,z,,,,,,-0.01859747,-0.406395089,0,0,0,,0,219,219,352,1,
,,,,,,,,,,,,,,,,,,5afa5252672ea800010d97e6,2020-08-10_10h17.37.894,lexical_decision_task_MP,2020.1.3,MacIntel,60,,m,1,0.63583,,,,,,,,0.63583,1,,,,,,181,WORD,UN,33,winter,GLANCE,m,,,,,,-0.01859747,-0.406395089,0,0,0,,0,220,220,120,1,
,,,,,,,,,,,,,,,,,,5afa5252672ea800010d97e6,2020-08-10_10h17.37.894,lexical_decision_task_MP,2020.1.3,MacIntel,60,,z,1,0.684255,,,,,,,,0.684255,1,,,,,,354,NW,"ID",33,virlex,VIRLEX,z,,,,,,-0.01859747,-0.406395089,0,0,0,,0,221,221,293,1,
,,,,,,,,,,,,,,,,,,5afa5252672ea800010d97e6,2020-08-10_10h17.37.894,lexical_decision_task_MP,2020.1.3,MacIntel,60,,m,1,0.6174,,,,,,,,0.6174,1,,,,,,43,WORD,UN,50,foster,TONGUE,m,,,,,,-0.01859747,-0.406395089,0,0,0,,0,222,222,222,1,
,,,,,,,,,,,,,,,,,,5afa5252672ea800010d97e6,2020-08-10_10h17.37.894,lexical_decision_task_MP,2020.1.3,MacIntel,60,,m,1,0.636115,,,,,,,,0.636115,1,,,,,,93,WORD,"ID",33,public,PUBLIC,m,,,,,,-0.01859747,-0.406395089,0,0,0,,0,223,223,32,1,
,,,,,,,,,,,,,,,,,,5afa5252672ea800010d97e6,2020-08-10_10h17.37.894,lexical_decision_task_MP,2020.1.3,MacIntel,60,,m,1,0.58407,,,,,,,,0.58407,1,,,,,,131,WORD,"ID",50,quench,QUENCH,m,,,,,,-0.01859747,-0.406395089,0,0,0,,0,224,224,70,1,
,,,,,,,,,,,,,,,,,,5afa5252672ea800010d97e6,2020-08-10_10h17.37.894,lexical_decision_task_MP,2020.1.3,MacIntel,60,,m,1,0.600845,,,,,,,,0.600845,1,,,,,,211,WORD,UN,33,verify,INFECT,m,,,,,,-0.01859747,-0.406395089,0,0,0,,0,225,225,150,1,
,,,,,,,,,,,,,,,,,,5afa5252672ea800010d97e6,2020-08-10_10h17.37.894,lexical_decision_task_MP,2020.1.3,MacIntel,60,,z,1,0.65092,,,,,,,,0.65092,1,,,,,,335,NW,"ID",33,desion,DESION,z,,,,,,-0.01859747,-0.406395089,0,0,0,,0,226,226,274,1,
,,,,,,,,,,,,,,,,,,5afa5252672ea800010d97e6,2020-08-10_10h17.37.894,lexical_decision_task_MP,2020.1.3,MacIntel,60,,m,1,0.584395,,,,,,,,0.584395,1,,,,,,160,WORD,"ID",50,violet,VIOLET,m,,,,,,-0.01859747,-0.406395089,0,0,0,,0,227,227,99,1,
,,,,,,,,,,,,,,,,,,5afa5252672ea800010d97e6,2020-08-10_10h17.37.894,lexical_decision_task_MP,2020.1.3,MacIntel,60,,m,1,0.566305,,,,,,,,0.566305,1,,,,,,198,WORD,UN,33,invoke,WICKED,m,,,,,,-0.01859747,-0.406395089,0,0,0,,0,228,228,137,1,
,,,,,,,,,,,,,,,,,,5afa5252672ea800010d97e6,2020-08-10_10h17.37.894,lexical_decision_task_MP,2020.1.3,MacIntel,60,,z,1,0.61303,,,,,,,,0.61303,1,,,,,,299,NW,UN,50,yarion,STURCH,z,,,,,,-0.01859747,-0.406395089,0,0,0,,0,229,229,478,1,
,,,,,,,,,,,,,,,,,,5afa5252672ea800010d97e6,2020-08-10_10h17.37.894,lexical_decision_task_MP,2020.1.3,MacIntel,60,,z,1,0.550675,,,,,,,,0.550675,1,,,,,,352,NW,"ID",33,tringe,TRINGE,z,,,,,,-0.01859747,-0.406395089,0,0,0,,0,230,230,291,1,
,,,,,,,,,,,,,,,,,,5afa5252672ea800010d97e6,2020-08-10_10h17.37.894,lexical_decision_task_MP,2020.1.3,MacIntel,60,,m,1,0.5504,,,,,,,,0.5504,1,,,,,,157,WORD,"ID",50,dragon,DRAGON,m,,,,,,-0.01859747,-0.406395089,0,0,0,,0,231,231,96,1,
,,,,,,,,,,,,,,,,,,5afa5252672ea800010d97e6,2020-08-10_10h17.37.894,lexical_decision_task_MP,2020.1.3,MacIntel,60,,m,1,0.683205,,,,,,,,0.683205,1,,,,,,61,WORD,"ID",33,ponder,PONDER,m,,,,,,-0.01859747,-0.406395089,0,0,0,,0,232,232,0,1,
,,,,,,,,,,,,,,,,,,5afa5252672ea800010d97e6,2020-08-10_10h17.37.894,lexical_decision_task_MP,2020.1.3,MacIntel,60,,m,1,0.551385,,,,,,,,0.551385,1,,,,,,208,WORD,UN,33,search,HOCKEY,m,,,,,,-0.01859747,-0.406395089,0,0,0,,0,233,233,147,1,
,,,,,,,,,,,,,,,,,,5afa5252672ea800010d97e6,2020-08-10_10h17.37.894,lexical_decision_task_MP,2020.1.3,MacIntel,60,,z,1,0.57143,,,,,,,,0.57143,1,,,,,,353,NW,"ID",33,clurey,CLUREY,z,,,,,,-0.01859747,-0.406395089,0,0,0,,0,234,234,292,1,
,,,,,,,,,,,,,,,,,,5afa5252672ea800010d97e6,2020-08-10_10h17.37.894,lexical_decision_task_MP,2020.1.3,MacIntel,60,,z,1,0.58349,,,,,,,,0.58349,1,,,,,,431,NW,UN,33,lunker,CHRUMS,z,,,,,,-0.01859747,-0.406395089,0,0,0,,0,235,235,370,1,
,,,,,,,,,,,,,,,,,,5afa5252672ea800010d97e6,2020-08-10_10h17.37.894,lexical_decision_task_MP,2020.1.3,MacIntel,60,,z,1,0.572085,,,,,,,,0.572085,1,,,,,,245,NW,UN,50,piaton,ANOUGS,z,,,,,,-0.01859747,-0.406395089,0,0,0,,0,236,236,424,1,
,,,,,,,,,,,,,,,,,,5afa5252672ea800010d97e6,2020-08-10_10h17.37.894,lexical_decision_task_MP,2020.1.3,MacIntel,60,,z,1,0.539585,,,,,,,,0.539585,1,,,,,,400,NW,"ID",50,wearox,WEAROX,z,,,,,,-0.01859747,-0.406395089,0,0,0,,0,237,237,339,1,
,,,,,,,,,,,,,,,,,,5afa5252672ea800010d97e6,2020-08-10_10h17.37.894,lexical_decision_task_MP,2020.1.3,MacIntel,60,,m,1,0.6489,,,,,,,,0.6489,1,,,,,,52,WORD,UN,50,police,IMPOSE,m,,,,,,-0.01859747,-0.406395089,0,0,0,,0,238,238,231,1,
,,,,,,,,,,,,,,,,,,5afa5252672ea800010d97e6,2020-08-10_10h17.37.894,lexical_decision_task_MP,2020.1.3,MacIntel,60,,m,1,0.511915,,,,,,,,0.511915,1,,,,,,230,WORD,UN,33,mother,FRINGE,m,,,,,,-0.01859747,-0.406395089,0,0,0,,0,239,239,169,1,
,,,,,,,,,,,,,,,,,,5afa5252672ea800010d97e6,2020-08-10_10h17.37.894,lexical_decision_task_MP,2020.1.3,MacIntel,60,,z,1,0.648315,,,,,,,,0.648315,1,,,,,,462,NW,UN,33,kispel,ABSULT,z,,,,,,-0.01859747,-0.406395089,0,0,0,,0,240,240,401,1,
,,,,,,,,,,,,,,,,,,5afa5252672ea800010d97e6,2020-08-10_10h17.37.894,lexical_decision_task_MP,2020.1.3,MacIntel,60,,m,1,0.488115,,,,,,,,0.488115,1,,,,,,80,WORD,"ID",33,family,FAMILY,m,,,,,,-0.005963542,-0.38077753,0,0,0,space,0,241,241,19,1,58.613185
,,,,,,,,,,,,,,,,,,5afa5252672ea800010d97e6,2020-08-10_10h17.37.894,lexical_decision_task_MP,2020.1.3,MacIntel,60,,m,1,0.78928,,,,,,,,0.78928,1,,,,,,6,WORD,UN,50,anchor,BUNDLE,m,,,,,,-0.005963542,-0.38077753,0,0,0,,0,242,242,185,1,
,,,,,,,,,,,,,,,,,,5afa5252672ea800010d97e6,2020-08-10_10h17.37.894,lexical_decision_task_MP,2020.1.3,MacIntel,60,,m,1,0.550955,,,,,,,,0.550955,1,,,,,,237,WORD,UN,33,glance,POSTER,m,,,,,,-0.005963542,-0.38077753,0,0,0,,0,243,243,176,1,
,,,,,,,,,,,,,,,,,,5afa5252672ea800010d97e6,2020-08-10_10h17.37.894,lexical_decision_task_MP,2020.1.3,MacIntel,60,,m,1,0.407445,,,,,,,,0.407445,1,,,,,,85,WORD,"ID",33,sprawl,SPRAWL,m,,,,,,-0.005963542,-0.38077753,0,0,0,,0,244,244,24,1,
,,,,,,,,,,,,,,,,,,5afa5252672ea800010d97e6,2020-08-10_10h17.37.894,lexical_decision_task_MP,2020.1.3,MacIntel,60,,z,1,0.54818,,,,,,,,0.54818,1,,,,,,243,NW,UN,50,eatric,MUSIED,z,,,,,,-0.005963542,-0.38077753,0,0,0,,0,245,245,422,1,
,,,,,,,,,,,,,,,,,,5afa5252672ea800010d97e6,2020-08-10_10h17.37.894,lexical_decision_task_MP,2020.1.3,MacIntel,60,,z,1,0.631825,,,,,,,,0.631825,1,,,,,,265,NW,UN,50,varmit,DISTAR,z,,,,,,-0.005963542,-0.38077753,0,0,0,,0,246,246,444,1,
,,,,,,,,,,,,,,,,,,5afa5252672ea800010d97e6,2020-08-10_10h17.37.894,lexical_decision_task_MP,2020.1.3,MacIntel,60,,m,1,0.485045,,,,,,,,0.485045,1,,,,,,77,WORD,"ID",33,racket,RACKET,m,,,,,,-0.005963542,-0.38077753,0,0,0,,0,247,247,16,1,
,,,,,,,,,,,,,,,,,,5afa5252672ea800010d97e6,2020-08-10_10h17.37.894,lexical_decision_task_MP,2020.1.3,MacIntel,60,,z,1,0.53532,,,,,,,,0.53532,1,,,,,,453,NW,UN,33,scouge,BOLVIS,z,,,,,,-0.005963542,-0.38077753,0,0,0,,0,248,248,392,1,
,,,,,,,,,,,,,,,,,,5afa5252672ea800010d97e6,2020-08-10_10h17.37.894,lexical_decision_task_MP,2020.1.3,MacIntel,60,,m,1,0.53001,,,,,,,,0.53001,1,,,,,,190,WORD,UN,33,stable,BACKUP,m,,,,,,-0.005963542,-0.38077753,0,0,0,,0,249,249,129,1,
,,,,,,,,,,,,,,,,,,5afa5252672ea800010d97e6,2020-08-10_10h17.37.894,lexical_decision_task_MP,2020.1.3,MacIntel,60,,z,1,0.684425,,,,,,,,0.684425,1,,,,,,334,NW,"ID",33,watmeg,WATMEG,z,,,,,,-0.005963542,-0.38077753,0,0,0,,0,250,250,273,1,
,,,,,,,,,,,,,,,,,,5afa5252672ea800010d97e6,2020-08-10_10h17.37.894,lexical_decision_task_MP,2020.1.3,MacIntel,60,,z,1,0.650555,,,,,,,,0.650555,1,,,,,,304,NW,"ID",33,cludie,CLUDIE,z,,,,,,-0.005963542,-0.38077753,0,0,0,,0,251,251,243,1,
,,,,,,,,,,,,,,,,,,5afa5252672ea800010d97e6,2020-08-10_10h17.37.894,lexical_decision_task_MP,2020.1.3,MacIntel,60,,m,1,0.61667,,,,,,,,0.61667,1,,,,,,111,WORD,"ID",33,induce,INDUCE,m,,,,,,-0.005963542,-0.38077753,0,0,0,,0,252,252,50,1,
,,,,,,,,,,,,,,,,,,5afa5252672ea800010d97e6,2020-08-10_10h17.37.894,lexical_decision_task_MP,2020.1.3,MacIntel,60,,m,1,0.489255,,,,,,,,0.489255,1,,,,,,7,WORD,UN,50,abrupt,ANCHOR,m,,,,,,-0.005963542,-0.38077753,0,0,0,,0,253,253,186,1,
,,,,,,,,,,,,,,,,,,5afa5252672ea800010d97e6,2020-08-10_10h17.37.894,lexical_decision_task_MP,2020.1.3,MacIntel,60,,z,1,0.70347,,,,,,,,0.70347,1,,,,,,263,NW,UN,50,vackel,DOLICA,z,,,,,,-0.005963542,-0.38077753,0,0,0,,0,254,254,442,1,
,,,,,,,,,,,,,,,,,,5afa5252672ea800010d97e6,2020-08-10_10h17.37.894,lexical_decision_task_MP,2020.1.3,MacIntel,60,,z,1,0.698855,,,,,,,,0.698855,1,,,,,,432,NW,UN,33,drance,LUNKER,z,,,,,,-0.005963542,-0.38077753,0,0,0,,0,255,255,371,1,
,,,,,,,,,,,,,,,,,,5afa5252672ea800010d97e6,2020-08-10_10h17.37.894,lexical_decision_task_MP,2020.1.3,MacIntel,60,,z,1,0.516075,,,,,,,,0.516075,1,,,,,,393,NW,"ID",50,ganous,GANOUS,z,,,,,,-0.005963542,-0.38077753,0,0,0,,0,256,256,332,1,
,,,,,,,,,,,,,,,,,,5afa5252672ea800010d97e6,2020-08-10_10h17.37.894,lexical_decision_task_MP,2020.1.3,MacIntel,60,,m,1,0.582185,,,,,,,,0.582185,1,,,,,,94,WORD,"ID",33,travel,TRAVEL,m,,,,,,-0.005963542,-0.38077753,0,0,0,,0,257,257,33,1,
,,,,,,,,,,,,,,,,,,5afa5252672ea800010d97e6,2020-08-10_10h17.37.894,lexical_decision_task_MP,2020.1.3,MacIntel,60,,m,1,0.68337,,,,,,,,0.68337,1,,,,,,102,WORD,"ID",33,direct,DIRECT,m,,,,,,-0.005963542,-0.38077753,0,0,0,,0,258,258,41,1,
,,,,,,,,,,,,,,,,,,5afa5252672ea800010d97e6,2020-08-10_10h17.37.894,lexical_decision_task_MP,2020.1.3,MacIntel,60,,z,1,0.632305,,,,,,,,0.632305,1,,,,,,251,NW,UN,50,stapod,LUPICT,z,,,,,,-0.005963542,-0.38077753,0,0,0,,0,259,259,430,1,
,,,,,,,,,,,,,,,,,,5afa5252672ea800010d97e6,2020-08-10_10h17.37.894,lexical_decision_task_MP,2020.1.3,MacIntel,60,,m,1,0.517,,,,,,,,0.517,1,,,,,,8,WORD,UN,50,hustle,ABRUPT,m,,,,,,-0.005963542,-0.38077753,0,0,0,,0,260,260,187,1,
,,,,,,,,,,,,,,,,,,5afa5252672ea800010d97e6,2020-08-10_10h17.37.894,lexical_decision_task_MP,2020.1.3,MacIntel,60,,z,1,0.7801,,,,,,,,0.7801,1,,,,,,409,NW,"ID",50,elopia,ELOPIA,z,,,,,,-0.005963542,-0.38077753,0,0,0,,0,261,261,348,1,
,,,,,,,,,,,,,,,,,,5afa5252672ea800010d97e6,2020-08-10_10h17.37.894,lexical_decision_task_MP,2020.1.3,MacIntel,60,,m,1,0.617535,,,,,,,,0.617535,1,,,,,,199,WORD,UN,33,plague,INVOKE,m,,,,,,-0.005963542,-0.38077753,0,0,0,,0,262,262,138,1,
,,,,,,,,,,,,,,,,,,5afa5252672ea800010d97e6,2020-08-10_10h17.37.894,lexical_decision_task_MP,2020.1.3,MacIntel,60,,z,1,0.61972,,,,,,,,0.61972,1,,,,,,458,NW,UN,33,hocite,BARCET,z,,,,,,-0.005963542,-0.38077753,0,0,0,,0,263,263,397,1,
,,,,,,,,,,,,,,,,,,5afa5252672ea800010d97e6,2020-08-10_10h17.37.894,lexical_decision_task_MP,2020.1.3,MacIntel,60,,z,1,0.63399,,,,,,,,0.63399,1,,,,,,418,NW,"ID",50,suidle,SUIDLE,z,,,,,,-0.005963542,-0.38077753,0,0,0,,0,264,264,357,1,
,,,,,,,,,,,,,,,,,,5afa5252672ea800010d97e6,2020-08-10_10h17.37.894,lexical_decision_task_MP,2020.1.3,MacIntel,60,,m,1,0.51762,,,,,,,,0.51762,1,,,,,,3,WORD,UN,50,trench,KNIGHT,m,,,,,,-0.005963542,-0.38077753,0,0,0,,0,265,265,182,1,
,,,,,,,,,,,,,,,,,,5afa5252672ea800010d97e6,2020-08-10_10h17.37.894,lexical_decision_task_MP,2020.1.3,MacIntel,60,,z,1,1.21681,,,,,,,,1.21681,1,,,,,,250,NW,UN,50,lupict,MILTED,z,,,,,,-0.005963542,-0.38077753,0,0,0,,0,266,266,429,1,
,,,,,,,,,,,,,,,,,,5afa5252672ea800010d97e6,2020-08-10_10h17.37.894,lexical_decision_task_MP,2020.1.3,MacIntel,60,,m,1,0.61738,,,,,,,,0.61738,1,,,,,,13,WORD,UN,50,almost,STRIVE,m,,,,,,-0.005963542,-0.38077753,0,0,0,,0,267,267,192,1,
,,,,,,,,,,,,,,,,,,5afa5252672ea800010d97e6,2020-08-10_10h17.37.894,lexical_decision_task_MP,2020.1.3,MacIntel,60,,m,1,0.56687,,,,,,,,0.56687,1,,,,,,19,WORD,UN,50,breast,PATRON,m,,,,,,-0.005963542,-0.38077753,0,0,0,,0,268,268,198,1,
,,,,,,,,,,,,,,,,,,5afa5252672ea800010d97e6,2020-08-10_10h17.37.894,lexical_decision_task_MP,2020.1.3,MacIntel,60,,m,1,0.533735,,,,,,,,0.533735,1,,,,,,18,WORD,UN,50,patron,HUMBLE,m,,,,,,-0.005963542,-0.38077753,0,0,0,,0,269,269,197,1,
,,,,,,,,,,,,,,,,,,5afa5252672ea800010d97e6,2020-08-10_10h17.37.894,lexical_decision_task_MP,2020.1.3,MacIntel,60,,m,1,0.44991,,,,,,,,0.44991,1,,,,,,193,WORD,UN,33,mildew,OBJECT,m,,,,,,-0.005963542,-0.38077753,0,0,0,,0,270,270,132,1,
,,,,,,,,,,,,,,,,,,5afa5252672ea800010d97e6,2020-08-10_10h17.37.894,lexical_decision_task_MP,2020.1.3,MacIntel,60,,m,1,0.46679,,,,,,,,0.46679,1,,,,,,66,WORD,"ID",33,gospel,GOSPEL,m,,,,,,-0.005963542,-0.38077753,0,0,0,,0,271,271,5,1,
,,,,,,,,,,,,,,,,,,5afa5252672ea800010d97e6,2020-08-10_10h17.37.894,lexical_decision_task_MP,2020.1.3,MacIntel,60,,z,1,0.550555,,,,,,,,0.550555,1,,,,,,440,NW,UN,33,rastoe,SARIDE,z,,,,,,-0.005963542,-0.38077753,0,0,0,,0,272,272,379,1,
,,,,,,,,,,,,,,,,,,5afa5252672ea800010d97e6,2020-08-10_10h17.37.894,lexical_decision_task_MP,2020.1.3,MacIntel,60,,m,1,0.500085,,,,,,,,0.500085,1,,,,,,92,WORD,"ID",33,strand,STRAND,m,,,,,,-0.005963542,-0.38077753,0,0,0,,0,273,273,31,1,
,,,,,,,,,,,,,,,,,,5afa5252672ea800010d97e6,2020-08-10_10h17.37.894,lexical_decision_task_MP,2020.1.3,MacIntel,60,,z,1,0.83359,,,,,,,,0.83359,1,,,,,,268,NW,UN,50,orchet,PACKES,z,,,,,,-0.005963542,-0.38077753,0,0,0,,0,274,274,447,1,
,,,,,,,,,,,,,,,,,,5afa5252672ea800010d97e6,2020-08-10_10h17.37.894,lexical_decision_task_MP,2020.1.3,MacIntel,60,,z,1,0.83495,,,,,,,,0.83495,1,,,,,,342,NW,"ID",33,randow,RANDOW,z,,,,,,-0.005963542,-0.38077753,0,0,0,,0,275,275,281,1,
,,,,,,,,,,,,,,,,,,5afa5252672ea800010d97e6,2020-08-10_10h17.37.894,lexical_decision_task_MP,2020.1.3,MacIntel,60,,z,1,0.55087,,,,,,,,0.55087,1,,,,,,434,NW,UN,33,impurb,PITROM,z,,,,,,-0.005963542,-0.38077753,0,0,0,,0,276,276,373,1,
,,,,,,,,,,,,,,,,,,5afa5252672ea800010d97e6,2020-08-10_10h17.37.894,lexical_decision_task_MP,2020.1.3,MacIntel,60,,m,1,0.566915,,,,,,,,0.566915,1,,,,,,28,WORD,UN,50,sketch,COMEDY,m,,,,,,-0.005963542,-0.38077753,0,0,0,,0,277,277,207,1,
,,,,,,,,,,,,,,,,,,5afa5252672ea800010d97e6,2020-08-10_10h17.37.894,lexical_decision_task_MP,2020.1.3,MacIntel,60,,m,1,0.57767,,,,,,,,0.57767,1,,,,,,35,WORD,UN,50,vanish,SOCKET,m,,,,,,-0.005963542,-0.38077753,0,0,0,,0,278,278,214,1,
,,,,,,,,,,,,,,,,,,5afa5252672ea800010d97e6,2020-08-10_10h17.37.894,lexical_decision_task_MP,2020.1.3,MacIntel,60,,z,1,0.551165,,,,,,,,0.551165,1,,,,,,274,NW,UN,50,sleirt,FUMBLO,z,,,,,,-0.005963542,-0.38077753,0,0,0,,0,279,279,453,1,
,,,,,,,,,,,,,,,,,,5afa5252672ea800010d97e6,2020-08-10_10h17.37.894,lexical_decision_task_MP,2020.1.3,MacIntel,60,,m,1,0.51296,,,,,,,,0.51296,1,,,,,,188,WORD,UN,33,censor,SOCIAL,m,,,,,,-0.005963542,-0.38077753,0,0,0,,0,280,280,127,1,
,,,,,,,,,,,,,,,,,,5afa5252672ea800010d97e6,2020-08-10_10h17.37.894,lexical_decision_task_MP,2020.1.3,MacIntel,60,,z,1,0.55022,,,,,,,,0.55022,1,,,,,,317,NW,"ID",33,worbal,WORBAL,z,,,,,,-0.005963542,-0.38077753,0,0,0,,0,281,281,256,1,
,,,,,,,,,,,,,,,,,,5afa5252672ea800010d97e6,2020-08-10_10h17.37.894,lexical_decision_task_MP,2020.1.3,MacIntel,60,,z,1,0.571025,,,,,,,,0.571025,1,,,,,,416,NW,"ID",50,pathel,PATHEL,z,,,,,,-0.005963542,-0.38077753,0,0,0,,0,282,282,355,1,
,,,,,,,,,,,,,,,,,,5afa5252672ea800010d97e6,2020-08-10_10h17.37.894,lexical_decision_task_MP,2020.1.3,MacIntel,60,,m,1,0.53186,,,,,,,,0.53186,1,,,,,,149,WORD,"ID",50,invade,INVADE,m,,,,,,-0.005963542,-0.38077753,0,0,0,,0,283,283,88,1,
,,,,,,,,,,,,,,,,,,5afa5252672ea800010d97e6,2020-08-10_10h17.37.894,lexical_decision_task_MP,2020.1.3,MacIntel,60,,z,1,0.65252,,,,,,,,0.65252,1,,,,,,316,NW,"ID",33,scregm,SCREGM,z,,,,,,-0.005963542,-0.38077753,0,0,0,,0,284,284,255,1,
,,,,,,,,,,,,,,,,,,5afa5252672ea800010d97e6,2020-08-10_10h17.37.894,lexical_decision_task_MP,2020.1.3,MacIntel,60,,z,1,0.78447,,,,,,,,0.78447,1,,,,,,295,NW,UN,50,beinch,GLEATH,z,,,,,,-0.005963542,-0.38077753,0,0,0,,0,285,285,474,1,
,,,,,,,,,,,,,,,,,,5afa5252672ea800010d97e6,2020-08-10_10h17.37.894,lexical_decision_task_MP,2020.1.3,MacIntel,60,,z,1,0.48382,,,,,,,,0.48382,1,,,,,,347,NW,"ID",33,kerift,KERIFT,z,,,,,,-0.005963542,-0.38077753,0,0,0,,0,286,286,286,1,
,,,,,,,,,,,,,,,,,,5afa5252672ea800010d97e6,2020-08-10_10h17.37.894,lexical_decision_task_MP,2020.1.3,MacIntel,60,,z,1,0.45091,,,,,,,,0.45091,1,,,,,,395,NW,"ID",50,colury,COLURY,z,,,,,,-0.005963542,-0.38077753,0,0,0,,0,287,287,334,1,
,,,,,,,,,,,,,,,,,,5afa5252672ea800010d97e6,2020-08-10_10h17.37.894,lexical_decision_task_MP,2020.1.3,MacIntel,60,,z,1,0.46851,,,,,,,,0.46851,1,,,,,,368,NW,"ID",50,hornal,HORNAL,z,,,,,,-0.005963542,-0.38077753,0,0,0,,0,288,288,307,1,
,,,,,,,,,,,,,,,,,,5afa5252672ea800010d97e6,2020-08-10_10h17.37.894,lexical_decision_task_MP,2020.1.3,MacIntel,60,,z,1,0.45985,,,,,,,,0.45985,1,,,,,,447,NW,UN,33,sadent,GIRCUE,z,,,,,,-0.005963542,-0.38077753,0,0,0,,0,289,289,386,1,
,,,,,,,,,,,,,,,,,,5afa5252672ea800010d97e6,2020-08-10_10h17.37.894,lexical_decision_task_MP,2020.1.3,MacIntel,60,,z,1,0.451055,,,,,,,,0.451055,1,,,,,,300,NW,UN,50,smenco,YARION,z,,,,,,-0.005963542,-0.38077753,0,0,0,,0,290,290,479,1,
,,,,,,,,,,,,,,,,,,5afa5252672ea800010d97e6,2020-08-10_10h17.37.894,lexical_decision_task_MP,2020.1.3,MacIntel,60,,z,1,0.48854,,,,,,,,0.48854,1,,,,,,421,NW,UN,33,alcoud,KNISMA,z,,,,,,-0.005963542,-0.38077753,0,0,0,,0,291,291,360,1,
,,,,,,,,,,,,,,,,,,5afa5252672ea800010d97e6,2020-08-10_10h17.37.894,lexical_decision_task_MP,2020.1.3,MacIntel,60,,z,1,0.55043,,,,,,,,0.55043,1,,,,,,322,NW,"ID",33,slanch,SLANCH,z,,,,,,-0.005963542,-0.38077753,0,0,0,,0,292,292,261,1,
,,,,,,,,,,,,,,,,,,5afa5252672ea800010d97e6,2020-08-10_10h17.37.894,lexical_decision_task_MP,2020.1.3,MacIntel,60,,z,0,0.5001,,,,,,,,0.5001,0,,,,,,33,WORD,UN,50,jungle,BUTLER,m,,,,,,-0.005963542,-0.38077753,0,0,0,,0,293,293,212,1,
,,,,,,,,,,,,,,,,,,5afa5252672ea800010d97e6,2020-08-10_10h17.37.894,lexical_decision_task_MP,2020.1.3,MacIntel,60,,z,1,0.662335,,,,,,,,0.662335,1,,,,,,328,NW,"ID",33,broake,BROAKE,z,,,,,,-0.005963542,-0.38077753,0,0,0,,0,294,294,267,1,
,,,,,,,,,,,,,,,,,,5afa5252672ea800010d97e6,2020-08-10_10h17.37.894,lexical_decision_task_MP,2020.1.3,MacIntel,60,,z,1,0.61566,,,,,,,,0.61566,1,,,,,,396,NW,"ID",50,flengy,FLENGY,z,,,,,,-0.005963542,-0.38077753,0,0,0,,0,295,295,335,1,
,,,,,,,,,,,,,,,,,,5afa5252672ea800010d97e6,2020-08-10_10h17.37.894,lexical_decision_task_MP,2020.1.3,MacIntel,60,,m,1,0.54786,,,,,,,,0.54786,1,,,,,,177,WORD,"ID",50,advent,ADVENT,m,,,,,,-0.005963542,-0.38077753,0,0,0,,0,296,296,116,1,
,,,,,,,,,,,,,,,,,,5afa5252672ea800010d97e6,2020-08-10_10h17.37.894,lexical_decision_task_MP,2020.1.3,MacIntel,60,,m,1,0.53399,,,,,,,,0.53399,1,,,,,,110,WORD,"ID",33,polite,POLITE,m,,,,,,-0.005963542,-0.38077753,0,0,0,,0,297,297,49,1,
,,,,,,,,,,,,,,,,,,5afa5252672ea800010d97e6,2020-08-10_10h17.37.894,lexical_decision_task_MP,2020.1.3,MacIntel,60,,m,1,0.50127,,,,,,,,0.50127,1,,,,,,213,WORD,UN,33,intake,SQUEAL,m,,,,,,-0.005963542,-0.38077753,0,0,0,,0,298,298,152,1,
,,,,,,,,,,,,,,,,,,5afa5252672ea800010d97e6,2020-08-10_10h17.37.894,lexical_decision_task_MP,2020.1.3,MacIntel,60,,z,1,0.603505,,,,,,,,0.603505,1,,,,,,457,NW,UN,33,barcet,WANIGH,z,,,,,,-0.005963542,-0.38077753,0,0,0,,0,299,299,396,1,
,,,,,,,,,,,,,,,,,,5afa5252672ea800010d97e6,2020-08-10_10h17.37.894,lexical_decision_task_MP,2020.1.3,MacIntel,60,,z,1,0.584185,,,,,,,,0.584185,1,,,,,,344,NW,"ID",33,scrily,SCRILY,z,,,,,,-0.005963542,-0.38077753,0,0,0,,0,300,300,283,1,
,,,,,,,,,,,,,,,,,,5afa5252672ea800010d97e6,2020-08-10_10h17.37.894,lexical_decision_task_MP,2020.1.3,MacIntel,60,,z,1,0.467375,,,,,,,,0.467375,1,,,,,,406,NW,"ID",50,nouply,NOUPLY,z,,,,,,-0.005963542,-0.38077753,0,0,0,,0,301,301,345,1,
,,,,,,,,,,,,,,,,,,5afa5252672ea800010d97e6,2020-08-10_10h17.37.894,lexical_decision_task_MP,2020.1.3,MacIntel,60,,m,1,0.500385,,,,,,,,0.500385,1,,,,,,158,WORD,"ID",50,island,ISLAND,m,,,,,,-0.005963542,-0.38077753,0,0,0,,0,302,302,97,1,
,,,,,,,,,,,,,,,,,,5afa5252672ea800010d97e6,2020-08-10_10h17.37.894,lexical_decision_task_MP,2020.1.3,MacIntel,60,,m,1,0.58395,,,,,,,,0.58395,1,,,,,,50,WORD,UN,50,hungry,SNATCH,m,,,,,,-0.005963542,-0.38077753,0,0,0,,0,303,303,229,1,
,,,,,,,,,,,,,,,,,,5afa5252672ea800010d97e6,2020-08-10_10h17.37.894,lexical_decision_task_MP,2020.1.3,MacIntel,60,,z,1,0.583195,,,,,,,,0.583195,1,,,,,,401,NW,"ID",50,mustil,MUSTIL,z,,,,,,-0.005963542,-0.38077753,0,0,0,,0,304,304,340,1,
,,,,,,,,,,,,,,,,,,5afa5252672ea800010d97e6,2020-08-10_10h17.37.894,lexical_decision_task_MP,2020.1.3,MacIntel,60,,z,1,0.550495,,,,,,,,0.550495,1,,,,,,359,NW,"ID",33,fonver,FONVER,z,,,,,,-0.005963542,-0.38077753,0,0,0,,0,305,305,298,1,
,,,,,,,,,,,,,,,,,,5afa5252672ea800010d97e6,2020-08-10_10h17.37.894,lexical_decision_task_MP,2020.1.3,MacIntel,60,,z,1,0.43556,,,,,,,,0.43556,1,,,,,,247,NW,UN,50,strole,BLARGE,z,,,,,,-0.005963542,-0.38077753,0,0,0,,0,306,306,426,1,
,,,,,,,,,,,,,,,,,,5afa5252672ea800010d97e6,2020-08-10_10h17.37.894,lexical_decision_task_MP,2020.1.3,MacIntel,60,,m,1,0.667185,,,,,,,,0.667185,1,,,,,,225,WORD,UN,33,casino,VULGAR,m,,,,,,-0.005963542,-0.38077753,0,0,0,,0,307,307,164,1,
,,,,,,,,,,,,,,,,,,5afa5252672ea800010d97e6,2020-08-10_10h17.37.894,lexical_decision_task_MP,2020.1.3,MacIntel,60,,m,1,0.483805,,,,,,,,0.483805,1,,,,,,179,WORD,"ID",50,basket,BASKET,m,,,,,,-0.005963542,-0.38077753,0,0,0,,0,308,308,118,1,
,,,,,,,,,,,,,,,,,,5afa5252672ea800010d97e6,2020-08-10_10h17.37.894,lexical_decision_task_MP,2020.1.3,MacIntel,60,,m,1,0.548465,,,,,,,,0.548465,1,,,,,,75,WORD,"ID",33,trophy,TROPHY,m,,,,,,-0.005963542,-0.38077753,0,0,0,,0,309,309,14,1,
,,,,,,,,,,,,,,,,,,5afa5252672ea800010d97e6,2020-08-10_10h17.37.894,lexical_decision_task_MP,2020.1.3,MacIntel,60,,m,1,0.51776,,,,,,,,0.51776,1,,,,,,182,WORD,UN,33,absent,WINTER,m,,,,,,-0.005963542,-0.38077753,0,0,0,,0,310,310,121,1,
,,,,,,,,,,,,,,,,,,5afa5252672ea800010d97e6,2020-08-10_10h17.37.894,lexical_decision_task_MP,2020.1.3,MacIntel,60,,z,1,1.029,,,,,,,,1.029,1,,,,,,437,NW,UN,33,baitch,SNAPEL,z,,,,,,-0.005963542,-0.38077753,0,0,0,,0,311,311,376,1,
,,,,,,,,,,,,,,,,,,5afa5252672ea800010d97e6,2020-08-10_10h17.37.894,lexical_decision_task_MP,2020.1.3,MacIntel,60,,m,1,0.51681,,,,,,,,0.51681,1,,,,,,88,WORD,"ID",33,hunger,HUNGER,m,,,,,,-0.005963542,-0.38077753,0,0,0,,0,312,312,27,1,
,,,,,,,,,,,,,,,,,,5afa5252672ea800010d97e6,2020-08-10_10h17.37.894,lexical_decision_task_MP,2020.1.3,MacIntel,60,,m,1,0.46712,,,,,,,,0.46712,1,,,,,,235,WORD,UN,33,pirate,GRUMPY,m,,,,,,-0.005963542,-0.38077753,0,0,0,,0,313,313,174,1,
,,,,,,,,,,,,,,,,,,5afa5252672ea800010d97e6,2020-08-10_10h17.37.894,lexical_decision_task_MP,2020.1.3,MacIntel,60,,z,1,0.533715,,,,,,,,0.533715,1,,,,,,389,NW,"ID",50,witmer,WITMER,z,,,,,,-0.005963542,-0.38077753,0,0,0,,0,314,314,328,1,
,,,,,,,,,,,,,,,,,,5afa5252672ea800010d97e6,2020-08-10_10h17.37.894,lexical_decision_task_MP,2020.1.3,MacIntel,60,,m,1,0.533655,,,,,,,,0.533655,1,,,,,,86,WORD,"ID",33,rodent,RODENT,m,,,,,,-0.005963542,-0.38077753,0,0,0,,0,315,315,25,1,
,,,,,,,,,,,,,,,,,,5afa5252672ea800010d97e6,2020-08-10_10h17.37.894,lexical_decision_task_MP,2020.1.3,MacIntel,60,,z,1,0.61755,,,,,,,,0.61755,1,,,,,,318,NW,"ID",33,reagly,REAGLY,z,,,,,,-0.005963542,-0.38077753,0,0,0,,0,316,316,257,1,
,,,,,,,,,,,,,,,,,,5afa5252672ea800010d97e6,2020-08-10_10h17.37.894,lexical_decision_task_MP,2020.1.3,MacIntel,60,,m,1,0.499585,,,,,,,,0.499585,1,,,,,,194,WORD,UN,33,resign,ABSENT,m,,,,,,-0.005963542,-0.38077753,0,0,0,,0,317,317,133,1,
,,,,,,,,,,,,,,,,,,5afa5252672ea800010d97e6,2020-08-10_10h17.37.894,lexical_decision_task_MP,2020.1.3,MacIntel,60,,m,1,0.599705,,,,,,,,0.599705,1,,,,,,212,WORD,UN,33,squeal,VERIFY,m,,,,,,-0.005963542,-0.38077753,0,0,0,,0,318,318,151,1,
,,,,,,,,,,,,,,,,,,5afa5252672ea800010d97e6,2020-08-10_10h17.37.894,lexical_decision_task_MP,2020.1.3,MacIntel,60,,m,1,0.41743,,,,,,,,0.41743,1,,,,,,146,WORD,"ID",50,couple,COUPLE,m,,,,,,-0.005963542,-0.38077753,0,0,0,,0,319,319,85,1,
,,,,,,,,,,,,,,,,,,5afa5252672ea800010d97e6,2020-08-10_10h17.37.894,lexical_decision_task_MP,2020.1.3,MacIntel,60,,m,1,0.433135,,,,,,,,0.433135,1,,,,,,116,WORD,"ID",33,tumble,TUMBLE,m,,,,,,-0.005963542,-0.38077753,0,0,0,,0,320,320,55,1,
,,,,,,,,,,,,,,,,,,5afa5252672ea800010d97e6,2020-08-10_10h17.37.894,lexical_decision_task_MP,2020.1.3,MacIntel,60,,m,1,0.52209,,,,,,,,0.52209,1,,,,,,65,WORD,"ID",33,symbol,SYMBOL,m,,,,,,-0.005963542,-0.38077753,0,0,0,,0,321,321,4,1,
,,,,,,,,,,,,,,,,,,5afa5252672ea800010d97e6,2020-08-10_10h17.37.894,lexical_decision_task_MP,2020.1.3,MacIntel,60,,m,1,0.484845,,,,,,,,0.484845,1,,,,,,172,WORD,"ID",50,patrol,PATROL,m,,,,,,-0.005963542,-0.38077753,0,0,0,,0,322,322,111,1,
,,,,,,,,,,,,,,,,,,5afa5252672ea800010d97e6,2020-08-10_10h17.37.894,lexical_decision_task_MP,2020.1.3,MacIntel,60,,z,1,0.67021,,,,,,,,0.67021,1,,,,,,442,NW,UN,33,dorsex,ABOUNE,z,,,,,,-0.005963542,-0.38077753,0,0,0,,0,323,323,381,1,
,,,,,,,,,,,,,,,,,,5afa5252672ea800010d97e6,2020-08-10_10h17.37.894,lexical_decision_task_MP,2020.1.3,MacIntel,60,,z,1,0.51582,,,,,,,,0.51582,1,,,,,,381,NW,"ID",50,huniek,HUNIEK,z,,,,,,-0.005963542,-0.38077753,0,0,0,,0,324,324,320,1,
,,,,,,,,,,,,,,,,,,5afa5252672ea800010d97e6,2020-08-10_10h17.37.894,lexical_decision_task_MP,2020.1.3,MacIntel,60,,m,1,0.50858,,,,,,,,0.50858,1,,,,,,178,WORD,"ID",50,inform,INFORM,m,,,,,,-0.005963542,-0.38077753,0,0,0,,0,325,325,117,1,
,,,,,,,,,,,,,,,,,,5afa5252672ea800010d97e6,2020-08-10_10h17.37.894,lexical_decision_task_MP,2020.1.3,MacIntel,60,,z,1,0.716545,,,,,,,,0.716545,1,,,,,,461,NW,UN,33,absult,JUSTRE,z,,,,,,-0.005963542,-0.38077753,0,0,0,,0,326,326,400,1,
,,,,,,,,,,,,,,,,,,5afa5252672ea800010d97e6,2020-08-10_10h17.37.894,lexical_decision_task_MP,2020.1.3,MacIntel,60,,m,1,0.46778,,,,,,,,0.46778,1,,,,,,164,WORD,"ID",50,market,MARKET,m,,,,,,-0.005963542,-0.38077753,0,0,0,,0,327,327,103,1,
,,,,,,,,,,,,,,,,,,5afa5252672ea800010d97e6,2020-08-10_10h17.37.894,lexical_decision_task_MP,2020.1.3,MacIntel,60,,z,1,0.53387,,,,,,,,0.53387,1,,,,,,254,NW,UN,50,apight,VAROSH,z,,,,,,-0.005963542,-0.38077753,0,0,0,,0,328,328,433,1,
,,,,,,,,,,,,,,,,,,5afa5252672ea800010d97e6,2020-08-10_10h17.37.894,lexical_decision_task_MP,2020.1.3,MacIntel,60,,m,1,0.621225,,,,,,,,0.621225,1,,,,,,74,WORD,"ID",33,plaque,PLAQUE,m,,,,,,-0.005963542,-0.38077753,0,0,0,,0,329,329,13,1,
,,,,,,,,,,,,,,,,,,5afa5252672ea800010d97e6,2020-08-10_10h17.37.894,lexical_decision_task_MP,2020.1.3,MacIntel,60,,m,1,0.61366,,,,,,,,0.61366,1,,,,,,38,WORD,UN,50,insect,POWDER,m,,,,,,-0.005963542,-0.38077753,0,0,0,,0,330,330,217,1,
,,,,,,,,,,,,,,,,,,5afa5252672ea800010d97e6,2020-08-10_10h17.37.894,lexical_decision_task_MP,2020.1.3,MacIntel,60,,z,1,0.60075,,,,,,,,0.60075,1,,,,,,361,NW,"ID",50,pauche,PAUCHE,z,,,,,,-0.005963542,-0.38077753,0,0,0,,0,331,331,300,1,
,,,,,,,,,,,,,,,,,,5afa5252672ea800010d97e6,2020-08-10_10h17.37.894,lexical_decision_task_MP,2020.1.3,MacIntel,60,,z,1,0.63327,,,,,,,,0.63327,1,,,,,,297,NW,UN,50,piergy,FERTIC,z,,,,,,-0.005963542,-0.38077753,0,0,0,,0,332,332,476,1,
,,,,,,,,,,,,,,,,,,5afa5252672ea800010d97e6,2020-08-10_10h17.37.894,lexical_decision_task_MP,2020.1.3,MacIntel,60,,m,1,0.500555,,,,,,,,0.500555,1,,,,,,91,WORD,"ID",33,expand,EXPAND,m,,,,,,-0.005963542,-0.38077753,0,0,0,,0,333,333,30,1,
,,,,,,,,,,,,,,,,,,5afa5252672ea800010d97e6,2020-08-10_10h17.37.894,lexical_decision_task_MP,2020.1.3,MacIntel,60,,m,1,0.6176,,,,,,,,0.6176,1,,,,,,23,WORD,UN,50,praise,WEALTH,m,,,,,,-0.005963542,-0.38077753,0,0,0,,0,334,334,202,1,
,,,,,,,,,,,,,,,,,,5afa5252672ea800010d97e6,2020-08-10_10h17.37.894,lexical_decision_task_MP,2020.1.3,MacIntel,60,,m,1,0.60046,,,,,,,,0.60046,1,,,,,,24,WORD,UN,50,domain,PRAISE,m,,,,,,-0.005963542,-0.38077753,0,0,0,,0,335,335,203,1,
,,,,,,,,,,,,,,,,,,5afa5252672ea800010d97e6,2020-08-10_10h17.37.894,lexical_decision_task_MP,2020.1.3,MacIntel,60,,z,1,0.57035,,,,,,,,0.57035,1,,,,,,450,NW,UN,33,cainky,PHRECT,z,,,,,,-0.005963542,-0.38077753,0,0,0,,0,336,336,389,1,
,,,,,,,,,,,,,,,,,,5afa5252672ea800010d97e6,2020-08-10_10h17.37.894,lexical_decision_task_MP,2020.1.3,MacIntel,60,,m,1,0.834085,,,,,,,,0.834085,1,,,,,,236,WORD,UN,33,grumpy,PIRATE,m,,,,,,-0.005963542,-0.38077753,0,0,0,,0,337,337,175,1,
,,,,,,,,,,,,,,,,,,5afa5252672ea800010d97e6,2020-08-10_10h17.37.894,lexical_decision_task_MP,2020.1.3,MacIntel,60,,m,1,0.531065,,,,,,,,0.531065,1,,,,,,133,WORD,"ID",50,chrome,CHROME,m,,,,,,-0.005963542,-0.38077753,0,0,0,,0,338,338,72,1,
,,,,,,,,,,,,,,,,,,5afa5252672ea800010d97e6,2020-08-10_10h17.37.894,lexical_decision_task_MP,2020.1.3,MacIntel,60,,m,1,0.428645,,,,,,,,0.428645,1,,,,,,205,WORD,UN,33,tailor,LOUNGE,m,,,,,,-0.005963542,-0.38077753,0,0,0,,0,339,339,144,1,
,,,,,,,,,,,,,,,,,,5afa5252672ea800010d97e6,2020-08-10_10h17.37.894,lexical_decision_task_MP,2020.1.3,MacIntel,60,,z,1,0.60155,,,,,,,,0.60155,1,,,,,,350,NW,"ID",33,nagurs,NAGURS,z,,,,,,-0.005963542,-0.38077753,0,0,0,,0,340,340,289,1,
,,,,,,,,,,,,,,,,,,5afa5252672ea800010d97e6,2020-08-10_10h17.37.894,lexical_decision_task_MP,2020.1.3,MacIntel,60,,m,0,0.530985,,,,,,,,0.530985,0,,,,,,345,NW,"ID",33,absend,ABSEND,z,,,,,,-0.005963542,-0.38077753,0,0,0,,0,341,341,284,1,
,,,,,,,,,,,,,,,,,,5afa5252672ea800010d97e6,2020-08-10_10h17.37.894,lexical_decision_task_MP,2020.1.3,MacIntel,60,,m,1,0.484005,,,,,,,,0.484005,1,,,,,,216,WORD,UN,33,liquor,BEHALF,m,,,,,,-0.005963542,-0.38077753,0,0,0,,0,342,342,155,1,
,,,,,,,,,,,,,,,,,,5afa5252672ea800010d97e6,2020-08-10_10h17.37.894,lexical_decision_task_MP,2020.1.3,MacIntel,60,,m,1,0.547695,,,,,,,,0.547695,1,,,,,,123,WORD,"ID",50,strike,STRIKE,m,,,,,,-0.005963542,-0.38077753,0,0,0,,0,343,343,62,1,
,,,,,,,,,,,,,,,,,,5afa5252672ea800010d97e6,2020-08-10_10h17.37.894,lexical_decision_task_MP,2020.1.3,MacIntel,60,,m,1,0.55091,,,,,,,,0.55091,1,,,,,,25,WORD,UN,50,sprint,DOMAIN,m,,,,,,-0.005963542,-0.38077753,0,0,0,,0,344,344,204,1,
,,,,,,,,,,,,,,,,,,5afa5252672ea800010d97e6,2020-08-10_10h17.37.894,lexical_decision_task_MP,2020.1.3,MacIntel,60,,z,1,0.550515,,,,,,,,0.550515,1,,,,,,258,NW,UN,50,soudal,POLUTH,z,,,,,,-0.005963542,-0.38077753,0,0,0,,0,345,345,437,1,
,,,,,,,,,,,,,,,,,,5afa5252672ea800010d97e6,2020-08-10_10h17.37.894,lexical_decision_task_MP,2020.1.3,MacIntel,60,,z,1,0.75097,,,,,,,,0.75097,1,,,,,,417,NW,"ID",50,earoud,EAROUD,z,,,,,,-0.005963542,-0.38077753,0,0,0,,0,346,346,356,1,
,,,,,,,,,,,,,,,,,,5afa5252672ea800010d97e6,2020-08-10_10h17.37.894,lexical_decision_task_MP,2020.1.3,MacIntel,60,,m,1,0.45555,,,,,,,,0.45555,1,,,,,,51,WORD,UN,50,impose,HUNGRY,m,,,,,,-0.005963542,-0.38077753,0,0,0,,0,347,347,230,1,
,,,,,,,,,,,,,,,,,,5afa5252672ea800010d97e6,2020-08-10_10h17.37.894,lexical_decision_task_MP,2020.1.3,MacIntel,60,,m,1,0.55016,,,,,,,,0.55016,1,,,,,,55,WORD,UN,50,ambush,STROKE,m,,,,,,-0.005963542,-0.38077753,0,0,0,,0,348,348,234,1,
,,,,,,,,,,,,,,,,,,5afa5252672ea800010d97e6,2020-08-10_10h17.37.894,lexical_decision_task_MP,2020.1.3,MacIntel,60,,m,1,0.468935,,,,,,,,0.468935,1,,,,,,175,WORD,"ID",50,fabric,FABRIC,m,,,,,,-0.005963542,-0.38077753,0,0,0,,0,349,349,114,1,
,,,,,,,,,,,,,,,,,,5afa5252672ea800010d97e6,2020-08-10_10h17.37.894,lexical_decision_task_MP,2020.1.3,MacIntel,60,,m,1,0.46641,,,,,,,,0.46641,1,,,,,,156,WORD,"ID",50,cradle,CRADLE,m,,,,,,-0.005963542,-0.38077753,0,0,0,,0,350,350,95,1,
,,,,,,,,,,,,,,,,,,5afa5252672ea800010d97e6,2020-08-10_10h17.37.894,lexical_decision_task_MP,2020.1.3,MacIntel,60,,z,1,0.801795,,,,,,,,0.801795,1,,,,,,269,NW,UN,50,wrimsy,ORCHET,z,,,,,,-0.005963542,-0.38077753,0,0,0,,0,351,351,448,1,
,,,,,,,,,,,,,,,,,,5afa5252672ea800010d97e6,2020-08-10_10h17.37.894,lexical_decision_task_MP,2020.1.3,MacIntel,60,,z,1,0.80049,,,,,,,,0.80049,1,,,,,,433,NW,UN,33,pitrom,DRANCE,z,,,,,,-0.005963542,-0.38077753,0,0,0,,0,352,352,372,1,
,,,,,,,,,,,,,,,,,,5afa5252672ea800010d97e6,2020-08-10_10h17.37.894,lexical_decision_task_MP,2020.1.3,MacIntel,60,,m,1,0.451335,,,,,,,,0.451335,1,,,,,,186,WORD,UN,33,course,PORTAL,m,,,,,,-0.005963542,-0.38077753,0,0,0,,0,353,353,125,1,
,,,,,,,,,,,,,,,,,,5afa5252672ea800010d97e6,2020-08-10_10h17.37.894,lexical_decision_task_MP,2020.1.3,MacIntel,60,,m,1,0.552895,,,,,,,,0.552895,1,,,,,,155,WORD,"ID",50,lizard,LIZARD,m,,,,,,-0.005963542,-0.38077753,0,0,0,,0,354,354,94,1,
,,,,,,,,,,,,,,,,,,5afa5252672ea800010d97e6,2020-08-10_10h17.37.894,lexical_decision_task_MP,2020.1.3,MacIntel,60,,z,1,0.60173,,,,,,,,0.60173,1,,,,,,370,NW,"ID",50,sleact,SLEACT,z,,,,,,-0.005963542,-0.38077753,0,0,0,,0,355,355,309,1,
,,,,,,,,,,,,,,,,,,5afa5252672ea800010d97e6,2020-08-10_10h17.37.894,lexical_decision_task_MP,2020.1.3,MacIntel,60,,z,1,0.649615,,,,,,,,0.649615,1,,,,,,405,NW,"ID",50,flumni,FLUMNI,z,,,,,,-0.005963542,-0.38077753,0,0,0,,0,356,356,344,1,
,,,,,,,,,,,,,,,,,,5afa5252672ea800010d97e6,2020-08-10_10h17.37.894,lexical_decision_task_MP,2020.1.3,MacIntel,60,,m,1,0.483925,,,,,,,,0.483925,1,,,,,,130,WORD,"ID",50,stupid,STUPID,m,,,,,,-0.005963542,-0.38077753,0,0,0,,0,357,357,69,1,
,,,,,,,,,,,,,,,,,,5afa5252672ea800010d97e6,2020-08-10_10h17.37.894,lexical_decision_task_MP,2020.1.3,MacIntel,60,,m,1,0.64418,,,,,,,,0.64418,1,,,,,,58,WORD,UN,50,splint,FOSTER,m,,,,,,-0.005963542,-0.38077753,0,0,0,,0,358,358,237,1,
,,,,,,,,,,,,,,,,,,5afa5252672ea800010d97e6,2020-08-10_10h17.37.894,lexical_decision_task_MP,2020.1.3,MacIntel,60,,z,1,0.71554,,,,,,,,0.71554,1,,,,,,425,NW,UN,33,urivel,FRUDGE,z,,,,,,-0.005963542,-0.38077753,0,0,0,,0,359,359,364,1,
,,,,,,,,,,,,,,,,,,5afa5252672ea800010d97e6,2020-08-10_10h17.37.894,lexical_decision_task_MP,2020.1.3,MacIntel,60,,z,1,0.550115,,,,,,,,0.550115,1,,,,,,388,NW,"ID",50,cragin,CRAGIN,z,,,,,,-0.005963542,-0.38077753,0,0,0,,0,360,360,327,1,
,,,,,,,,,,,,,,,,,,5afa5252672ea800010d97e6,2020-08-10_10h17.37.894,lexical_decision_task_MP,2020.1.3,MacIntel,60,,m,1,0.570115,,,,,,,,0.570115,1,,,,,,20,WORD,UN,50,simple,BREAST,m,,,,,,-0.005963542,-0.38077753,0,0,0,,0,361,361,199,1,
,,,,,,,,,,,,,,,,,,5afa5252672ea800010d97e6,2020-08-10_10h17.37.894,lexical_decision_task_MP,2020.1.3,MacIntel,60,,m,1,0.53179,,,,,,,,0.53179,1,,,,,,144,WORD,"ID",50,sponge,SPONGE,m,,,,,,-0.005963542,-0.38077753,0,0,0,space,0,362,362,83,1,18.33016
,,,,,,,,,,,,,,,,,,5afa5252672ea800010d97e6,2020-08-10_10h17.37.894,lexical_decision_task_MP,2020.1.3,MacIntel,60,,m,1,0.500545,,,,,,,,0.500545,1,,,,,,192,WORD,UN,33,object,PLAGUE,m,,,,,,-0.005963542,-0.38077753,0,0,0,,0,363,363,131,1,
,,,,,,,,,,,,,,,,,,5afa5252672ea800010d97e6,2020-08-10_10h17.37.894,lexical_decision_task_MP,2020.1.3,MacIntel,60,,m,1,0.43395,,,,,,,,0.43395,1,,,,,,119,WORD,"ID",33,spider,SPIDER,m,,,,,,-0.005963542,-0.38077753,0,0,0,,0,364,364,58,1,
,,,,,,,,,,,,,,,,,,5afa5252672ea800010d97e6,2020-08-10_10h17.37.894,lexical_decision_task_MP,2020.1.3,MacIntel,60,,m,1,0.417355,,,,,,,,0.417355,1,,,,,,64,WORD,"ID",33,throne,THRONE,m,,,,,,-0.005963542,-0.38077753,0,0,0,,0,365,365,3,1,
,,,,,,,,,,,,,,,,,,5afa5252672ea800010d97e6,2020-08-10_10h17.37.894,lexical_decision_task_MP,2020.1.3,MacIntel,60,,z,1,0.519955,,,,,,,,0.519955,1,,,,,,292,NW,UN,50,swance,ABLINT,z,,,,,,-0.005963542,-0.38077753,0,0,0,,0,366,366,471,1,
,,,,,,,,,,,,,,,,,,5afa5252672ea800010d97e6,2020-08-10_10h17.37.894,lexical_decision_task_MP,2020.1.3,MacIntel,60,,m,1,0.450625,,,,,,,,0.450625,1,,,,,,124,WORD,"ID",50,blouse,BLOUSE,m,,,,,,-0.005963542,-0.38077753,0,0,0,,0,367,367,63,1,
,,,,,,,,,,,,,,,,,,5afa5252672ea800010d97e6,2020-08-10_10h17.37.894,lexical_decision_task_MP,2020.1.3,MacIntel,60,,z,1,0.41711,,,,,,,,0.41711,1,,,,,,308,NW,"ID",33,psetch,PSETCH,z,,,,,,-0.005963542,-0.38077753,0,0,0,,0,368,368,247,1,
,,,,,,,,,,,,,,,,,,5afa5252672ea800010d97e6,2020-08-10_10h17.37.894,lexical_decision_task_MP,2020.1.3,MacIntel,60,,m,1,0.523825,,,,,,,,0.523825,1,,,,,,118,WORD,"ID",33,flight,FLIGHT,m,,,,,,-0.005963542,-0.38077753,0,0,0,,0,369,369,57,1,
,,,,,,,,,,,,,,,,,,5afa5252672ea800010d97e6,2020-08-10_10h17.37.894,lexical_decision_task_MP,2020.1.3,MacIntel,60,,z,1,0.484215,,,,,,,,0.484215,1,,,,,,321,NW,"ID",33,miator,MIATOR,z,,,,,,-0.005963542,-0.38077753,0,0,0,,0,370,370,260,1,
,,,,,,,,,,,,,,,,,,5afa5252672ea800010d97e6,2020-08-10_10h17.37.894,lexical_decision_task_MP,2020.1.3,MacIntel,60,,m,1,0.46031,,,,,,,,0.46031,1,,,,,,49,WORD,UN,50,snatch,SURVEY,m,,,,,,-0.005963542,-0.38077753,0,0,0,,0,371,371,228,1,
,,,,,,,,,,,,,,,,,,5afa5252672ea800010d97e6,2020-08-10_10h17.37.894,lexical_decision_task_MP,2020.1.3,MacIntel,60,,z,1,0.48348,,,,,,,,0.48348,1,,,,,,366,NW,"ID",50,toshel,TOSHEL,z,,,,,,-0.005963542,-0.38077753,0,0,0,,0,372,372,305,1,
,,,,,,,,,,,,,,,,,,5afa5252672ea800010d97e6,2020-08-10_10h17.37.894,lexical_decision_task_MP,2020.1.3,MacIntel,60,,z,1,0.46973,,,,,,,,0.46973,1,,,,,,403,NW,"ID",50,bruats,BRUATS,z,,,,,,-0.005963542,-0.38077753,0,0,0,,0,373,373,342,1,
,,,,,,,,,,,,,,,,,,5afa5252672ea800010d97e6,2020-08-10_10h17.37.894,lexical_decision_task_MP,2020.1.3,MacIntel,60,,m,1,0.61589,,,,,,,,0.61589,1,,,,,,148,WORD,"ID",50,custom,CUSTOM,m,,,,,,-0.005963542,-0.38077753,0,0,0,,0,374,374,87,1,
,,,,,,,,,,,,,,,,,,5afa5252672ea800010d97e6,2020-08-10_10h17.37.894,lexical_decision_task_MP,2020.1.3,MacIntel,60,,m,1,0.76454,,,,,,,,0.76454,1,,,,,,170,WORD,"ID",50,pounce,POUNCE,m,,,,,,-0.005963542,-0.38077753,0,0,0,,0,375,375,109,1,
,,,,,,,,,,,,,,,,,,5afa5252672ea800010d97e6,2020-08-10_10h17.37.894,lexical_decision_task_MP,2020.1.3,MacIntel,60,,z,1,0.48814,,,,,,,,0.48814,1,,,,,,255,NW,UN,50,inlors,APIGHT,z,,,,,,-0.005963542,-0.38077753,0,0,0,,0,376,376,434,1,
,,,,,,,,,,,,,,,,,,5afa5252672ea800010d97e6,2020-08-10_10h17.37.894,lexical_decision_task_MP,2020.1.3,MacIntel,60,,m,1,0.533885,,,,,,,,0.533885,1,,,,,,224,WORD,UN,33,vulgar,PERIOD,m,,,,,,-0.005963542,-0.38077753,0,0,0,,0,377,377,163,1,
,,,,,,,,,,,,,,,,,,5afa5252672ea800010d97e6,2020-08-10_10h17.37.894,lexical_decision_task_MP,2020.1.3,MacIntel,60,,m,0,0.85024,,,,,,,,0.85024,0,,,,,,303,NW,"ID",33,fiream,FIREAM,z,,,,,,-0.005963542,-0.38077753,0,0,0,,0,378,378,242,1,
,,,,,,,,,,,,,,,,,,5afa5252672ea800010d97e6,2020-08-10_10h17.37.894,lexical_decision_task_MP,2020.1.3,MacIntel,60,,z,1,0.61729,,,,,,,,0.61729,1,,,,,,246,NW,UN,50,blarge,PIATON,z,,,,,,-0.005963542,-0.38077753,0,0,0,,0,379,379,425,1,
,,,,,,,,,,,,,,,,,,5afa5252672ea800010d97e6,2020-08-10_10h17.37.894,lexical_decision_task_MP,2020.1.3,MacIntel,60,,m,1,0.567395,,,,,,,,0.567395,1,,,,,,21,WORD,UN,50,jockey,SIMPLE,m,,,,,,-0.005963542,-0.38077753,0,0,0,,0,380,380,200,1,
,,,,,,,,,,,,,,,,,,5afa5252672ea800010d97e6,2020-08-10_10h17.37.894,lexical_decision_task_MP,2020.1.3,MacIntel,60,,m,1,0.621865,,,,,,,,0.621865,1,,,,,,206,WORD,UN,33,wreath,TAILOR,m,,,,,,-0.005963542,-0.38077753,0,0,0,,0,381,381,145,1,
,,,,,,,,,,,,,,,,,,5afa5252672ea800010d97e6,2020-08-10_10h17.37.894,lexical_decision_task_MP,2020.1.3,MacIntel,60,,z,1,0.54994,,,,,,,,0.54994,1,,,,,,298,NW,UN,50,sturch,PIERGY,z,,,,,,-0.005963542,-0.38077753,0,0,0,,0,382,382,477,1,
,,,,,,,,,,,,,,,,,,5afa5252672ea800010d97e6,2020-08-10_10h17.37.894,lexical_decision_task_MP,2020.1.3,MacIntel,60,,m,1,0.550655,,,,,,,,0.550655,1,,,,,,107,WORD,"ID",33,slogan,SLOGAN,m,,,,,,-0.005963542,-0.38077753,0,0,0,,0,383,383,46,1,
,,,,,,,,,,,,,,,,,,5afa5252672ea800010d97e6,2020-08-10_10h17.37.894,lexical_decision_task_MP,2020.1.3,MacIntel,60,,m,1,0.54984,,,,,,,,0.54984,1,,,,,,11,WORD,UN,50,amount,CRUISE,m,,,,,,-0.005963542,-0.38077753,0,0,0,,0,384,384,190,1,
,,,,,,,,,,,,,,,,,,5afa5252672ea800010d97e6,2020-08-10_10h17.37.894,lexical_decision_task_MP,2020.1.3,MacIntel,60,,m,1,0.55298,,,,,,,,0.55298,1,,,,,,189,WORD,UN,33,backup,CENSOR,m,,,,,,-0.005963542,-0.38077753,0,0,0,,0,385,385,128,1,
,,,,,,,,,,,,,,,,,,5afa5252672ea800010d97e6,2020-08-10_10h17.37.894,lexical_decision_task_MP,2020.1.3,MacIntel,60,,z,1,0.567575,,,,,,,,0.567575,1,,,,,,288,NW,UN,50,starby,YACEUP,z,,,,,,-0.005963542,-0.38077753,0,0,0,,0,386,386,467,1,
,,,,,,,,,,,,,,,,,,5afa5252672ea800010d97e6,2020-08-10_10h17.37.894,lexical_decision_task_MP,2020.1.3,MacIntel,60,,z,1,0.583015,,,,,,,,0.583015,1,,,,,,301,NW,"ID",33,fainch,FAINCH,z,,,,,,-0.005963542,-0.38077753,0,0,0,,0,387,387,240,1,
,,,,,,,,,,,,,,,,,,5afa5252672ea800010d97e6,2020-08-10_10h17.37.894,lexical_decision_task_MP,2020.1.3,MacIntel,60,,z,0,1.81779,,,,,,,,1.81779,0,,,,,,176,WORD,"ID",50,strife,STRIFE,m,,,,,,-0.005963542,-0.38077753,0,0,0,,0,388,388,115,1,
,,,,,,,,,,,,,,,,,,5afa5252672ea800010d97e6,2020-08-10_10h17.37.894,lexical_decision_task_MP,2020.1.3,MacIntel,60,,z,1,0.786415,,,,,,,,0.786415,1,,,,,,319,NW,"ID",33,zomber,ZOMBER,z,,,,,,-0.005963542,-0.38077753,0,0,0,,0,389,389,258,1,
,,,,,,,,,,,,,,,,,,5afa5252672ea800010d97e6,2020-08-10_10h17.37.894,lexical_decision_task_MP,2020.1.3,MacIntel,60,,m,1,0.48414,,,,,,,,0.48414,1,,,,,,57,WORD,UN,50,danger,CHANGE,m,,,,,,-0.005963542,-0.38077753,0,0,0,,0,390,390,236,1,
,,,,,,,,,,,,,,,,,,5afa5252672ea800010d97e6,2020-08-10_10h17.37.894,lexical_decision_task_MP,2020.1.3,MacIntel,60,,z,1,0.63092,,,,,,,,0.63092,1,,,,,,429,NW,UN,33,caroey,FUNTLE,z,,,,,,-0.005963542,-0.38077753,0,0,0,,0,391,391,368,1,
,,,,,,,,,,,,,,,,,,5afa5252672ea800010d97e6,2020-08-10_10h17.37.894,lexical_decision_task_MP,2020.1.3,MacIntel,60,,m,1,0.61751,,,,,,,,0.61751,1,,,,,,220,WORD,UN,33,mascot,VOYAGE,m,,,,,,-0.005963542,-0.38077753,0,0,0,,0,392,392,159,1,
,,,,,,,,,,,,,,,,,,5afa5252672ea800010d97e6,2020-08-10_10h17.37.894,lexical_decision_task_MP,2020.1.3,MacIntel,60,,z,1,0.572625,,,,,,,,0.572625,1,,,,,,369,NW,"ID",50,wronch,WRONCH,z,,,,,,-0.005963542,-0.38077753,0,0,0,,0,393,393,308,1,
,,,,,,,,,,,,,,,,,,5afa5252672ea800010d97e6,2020-08-10_10h17.37.894,lexical_decision_task_MP,2020.1.3,MacIntel,60,,m,1,0.500505,,,,,,,,0.500505,1,,,,,,70,WORD,"ID",33,square,SQUARE,m,,,,,,-0.005963542,-0.38077753,0,0,0,,0,394,394,9,1,
,,,,,,,,,,,,,,,,,,5afa5252672ea800010d97e6,2020-08-10_10h17.37.894,lexical_decision_task_MP,2020.1.3,MacIntel,60,,z,1,0.58466,,,,,,,,0.58466,1,,,,,,438,NW,UN,33,limpor,BAITCH,z,,,,,,-0.005963542,-0.38077753,0,0,0,,0,395,395,377,1,
,,,,,,,,,,,,,,,,,,5afa5252672ea800010d97e6,2020-08-10_10h17.37.894,lexical_decision_task_MP,2020.1.3,MacIntel,60,,m,0,0.71583,,,,,,,,0.71583,0,,,,,,341,NW,"ID",33,myrtie,MYRTIE,z,,,,,,-0.005963542,-0.38077753,0,0,0,,0,396,396,280,1,
