counterbalancing_condition,instr_done_keyboard.keys,instr_done_touch.x,instr_done_touch.y,instr_done_touch.leftButton,instr_done_touch.midButton,instr_done_touch.rightButton,instr_done_touch.clicked_name,instruction_pages.thisRepN,instruction_pages.thisTrialN,instruction_pages.thisN,instruction_pages.thisIndex,instruction_pages.ran,pageN,phase,instruct_text,has_image,instruct_image,participant,date,expName,psychopyVersion,OS,frameRate,response.keys,response.corr,response.rt,touch_resp.x,touch_resp.y,touch_resp.leftButton,touch_resp.midButton,touch_resp.rightButton,touch_resp.time,touch_resp.clicked_name,rt,corr,practice_trials.thisRepN,practice_trials.thisTrialN,practice_trials.thisN,practice_trials.thisIndex,practice_trials.ran,TrialID,StimulusType,Condition,PrimeDuration,Prime,Target,corrAns,instr_done_keyboard.rt,end_of_practice_trials_pages.thisRepN,end_of_practice_trials_pages.thisTrialN,end_of_practice_trials_pages.thisN,end_of_practice_trials_pages.thisIndex,end_of_practice_trials_pages.ran,break_done_touch.x,break_done_touch.y,break_done_touch.leftButton,break_done_touch.midButton,break_done_touch.rightButton,break_done_keyboard.keys,trials.thisRepN,trials.thisTrialN,trials.thisN,trials.thisIndex,trials.ran,break_done_keyboard.rt
0,,-0.084635417,-0.42578125,1,0,0,instr_done_button,0,0,0,0,1,1,instructions,"INSTRUCTIONS
At the start of each trial, look at the hash marks (######) in the center of the screen. After a moment, a string of letters will appear. Your task is to indicate if the letter string forms a word or not (i.e., if it is a nonword). For example, AUTHOR is a word while AUTHON is a nonword.

Press the space bar or touch the button below to continue.",0,,5c0c90e7632102000147c3cc,2020-08-10_10h50.25.183,lexical_decision_task_MP,2020.1.3,Win32,60,,,,,,,,,,,,,,,,,,,,,,,,,,,,,,,,,,,,,,,,,,
,,-0.084635417,-0.423177083,1,0,0,instr_done_button,0,1,1,1,1,2,instructions,"If your device has a keyboard, press the 'Z' key for nonwords and the 'M' key for words.





Press the space bar or touch the button below to continue.",1,keyboard-example.gif,5c0c90e7632102000147c3cc,2020-08-10_10h50.25.183,lexical_decision_task_MP,2020.1.3,Win32,60,,,,,,,,,,,,,,,,,,,,,,,,,,,,,,,,,,,,,,,,,,
,,-0.084635417,-0.423177083,1,0,0,instr_done_button,0,2,2,2,1,3,instructions,"If you are using a touchscreen only device, use the buttons on the screen. Do not use the mouse.





Press the space bar or touch the button below to continue.",1,touchscreen-example.gif,5c0c90e7632102000147c3cc,2020-08-10_10h50.25.183,lexical_decision_task_MP,2020.1.3,Win32,60,,,,,,,,,,,,,,,,,,,,,,,,,,,,,,,,,,,,,,,,,,
,,-0.06640625,-0.388020833,1,0,0,instr_done_button,0,3,3,3,1,4,instructions,"It is very important that you respond as quickly and accurately as possible, as each letter string will only be on the screen for two seconds. If you do not respond within this time, the message 'Too slow!' will be displayed and the experiment will progress to the next letter string. The first 20 trials will be practice trials and you will receive feedback on your answers. 

Press the space bar or touch the button below to start the practice trials.",0,,5c0c90e7632102000147c3cc,2020-08-10_10h50.25.183,lexical_decision_task_MP,2020.1.3,Win32,60,,,,,,,,,,,,,,,,,,,,,,,,,,,,,,,,,,,,,,,,,,
,,,,,,,,,,,,,,,,,,5c0c90e7632102000147c3cc,2020-08-10_10h50.25.183,lexical_decision_task_MP,2020.1.3,Win32,60,m,0,1.016,,,,,,,,1.016,0,0,0,0,11,1,1012,NW,"ID",50,rashet,RASHET,z,,,,,,,,,,,,,,,,,,
,,,,,,,,,,,,,,,,,,5c0c90e7632102000147c3cc,2020-08-10_10h50.25.183,lexical_decision_task_MP,2020.1.3,Win32,60,z,0,1.165,,,,,,,,1.165,0,0,1,1,4,1,1005,WORD,UN,33,abound,SQUEAK,m,,,,,,,,,,,,,,,,,,
,,,,,,,,,,,,,,,,,,5c0c90e7632102000147c3cc,2020-08-10_10h50.25.183,lexical_decision_task_MP,2020.1.3,Win32,60,z,1,1.381,,,,,,,,1.381,1,0,2,2,8,1,1009,NW,"ID",33,aslert,ASLERT,z,,,,,,,,,,,,,,,,,,
,,,,,,,,,,,,,,,,,,5c0c90e7632102000147c3cc,2020-08-10_10h50.25.183,lexical_decision_task_MP,2020.1.3,Win32,60,m,1,1.152,,,,,,,,1.152,1,0,3,3,0,1,1001,WORD,"ID",33,utopia,UTOPIA,m,,,,,,,,,,,,,,,,,,
,,,,,,,,,,,,,,,,,,5c0c90e7632102000147c3cc,2020-08-10_10h50.25.183,lexical_decision_task_MP,2020.1.3,Win32,60,z,1,1.214,,,,,,,,1.214,1,0,4,4,14,1,1015,NW,UN,50,miaber,THRALE,z,,,,,,,,,,,,,,,,,,
,,,,,,,,,,,,,,,,,,5c0c90e7632102000147c3cc,2020-08-10_10h50.25.183,lexical_decision_task_MP,2020.1.3,Win32,60,m,1,1.004,,,,,,,,1.004,1,0,5,5,7,1,1008,WORD,UN,50,hurdle,VOLUME,m,,,,,,,,,,,,,,,,,,
,,,,,,,,,,,,,,,,,,5c0c90e7632102000147c3cc,2020-08-10_10h50.25.183,lexical_decision_task_MP,2020.1.3,Win32,60,m,0,0.907,,,,,,,,0.907,0,0,6,6,10,1,1011,NW,"ID",50,inlade,INLADE,z,,,,,,,,,,,,,,,,,,
,,,,,,,,,,,,,,,,,,5c0c90e7632102000147c3cc,2020-08-10_10h50.25.183,lexical_decision_task_MP,2020.1.3,Win32,60,m,1,0.801,,,,,,,,0.801,1,0,7,7,2,1,1003,WORD,"ID",50,almond,ALMOND,m,,,,,,,,,,,,,,,,,,
,,,,,,,,,,,,,,,,,,5c0c90e7632102000147c3cc,2020-08-10_10h50.25.183,lexical_decision_task_MP,2020.1.3,Win32,60,m,0,1.198,,,,,,,,1.198,0,0,8,8,15,1,1016,NW,UN,50,mushed,WHAISE,z,,,,,,,,,,,,,,,,,,
,,,,,,,,,,,,,,,,,,5c0c90e7632102000147c3cc,2020-08-10_10h50.25.183,lexical_decision_task_MP,2020.1.3,Win32,60,m,1,1.015,,,,,,,,1.015,1,0,9,9,1,1,1002,WORD,"ID",33,adjust,ADJUST,m,,,,,,,,,,,,,,,,,,
,,,,,,,,,,,,,,,,,,5c0c90e7632102000147c3cc,2020-08-10_10h50.25.183,lexical_decision_task_MP,2020.1.3,Win32,60,z,1,1.265,,,,,,,,1.265,1,0,10,10,13,1,1014,NW,UN,33,winfer,ROUPET,z,,,,,,,,,,,,,,,,,,
,,,,,,,,,,,,,,,,,,5c0c90e7632102000147c3cc,2020-08-10_10h50.25.183,lexical_decision_task_MP,2020.1.3,Win32,60,z,1,1.293,,,,,,,,1.293,1,0,11,11,12,1,1013,NW,UN,33,adveil,SPRINY,z,,,,,,,,,,,,,,,,,,
,,,,,,,,,,,,,,,,,,5c0c90e7632102000147c3cc,2020-08-10_10h50.25.183,lexical_decision_task_MP,2020.1.3,Win32,60,m,1,0.983,,,,,,,,0.983,1,0,12,12,6,1,1007,WORD,UN,50,tropic,ZOMBIE,m,,,,,,,,,,,,,,,,,,
,,,,,,,,,,,,,,,,,,5c0c90e7632102000147c3cc,2020-08-10_10h50.25.183,lexical_decision_task_MP,2020.1.3,Win32,60,m,1,0.91,,,,,,,,0.91,1,0,13,13,5,1,1006,WORD,UN,33,frenzy,OBTAIN,m,,,,,,,,,,,,,,,,,,
,,,,,,,,,,,,,,,,,,5c0c90e7632102000147c3cc,2020-08-10_10h50.25.183,lexical_decision_task_MP,2020.1.3,Win32,60,z,1,0.716,,,,,,,,0.716,1,0,14,14,9,1,1010,NW,"ID",33,fariny,FARINY,z,,,,,,,,,,,,,,,,,,
,,,,,,,,,,,,,,,,,,5c0c90e7632102000147c3cc,2020-08-10_10h50.25.183,lexical_decision_task_MP,2020.1.3,Win32,60,m,1,0.832,,,,,,,,0.832,1,0,15,15,3,1,1004,WORD,"ID",50,matrix,MATRIX,m,,,,,,,,,,,,,,,,,,
,space,-0.06640625,-0.388020833,0,0,0,,,,,,,1,end_of_practice,"You have completed the practice trials. During the experimental trials, you will not receive feedback, but it is very important that you respond as quickly and accurately as possible. 
Before you begin, please ensure that you are in a comfortable and quiet location and will not be disturbed for about 15 minutes, as we cannot use your data if you do not complete all the trials. 
There will be opportunities to take breaks at regular intervals during the experiment. When you are ready to start the experimental trials, please press space or touch the button below.",,,5c0c90e7632102000147c3cc,2020-08-10_10h50.25.183,lexical_decision_task_MP,2020.1.3,Win32,60,,,,,,,,,,,,,,,,,,,,,,,,,164.846,0,0,0,0,1,,,,,,,,,,,,
,,,,,,,,,,,,,,,,,,5c0c90e7632102000147c3cc,2020-08-10_10h50.25.183,lexical_decision_task_MP,2020.1.3,Win32,60,m,1,0.841,,,,,,,,0.841,1,,,,,,196,WORD,"ID",33,credit,CREDIT,m,,,,,,,-0.06640625,-0.388020833,0,0,0,,0,0,0,15,1,
,,,,,,,,,,,,,,,,,,5c0c90e7632102000147c3cc,2020-08-10_10h50.25.183,lexical_decision_task_MP,2020.1.3,Win32,60,m,1,0.634,,,,,,,,0.634,1,,,,,,80,WORD,UN,33,friend,FAMILY,m,,,,,,,-0.06640625,-0.388020833,0,0,0,,0,1,1,139,1,
,,,,,,,,,,,,,,,,,,5c0c90e7632102000147c3cc,2020-08-10_10h50.25.183,lexical_decision_task_MP,2020.1.3,Win32,60,m,1,0.593,,,,,,,,0.593,1,,,,,,64,WORD,UN,33,symbol,THRONE,m,,,,,,,-0.06640625,-0.388020833,0,0,0,,0,2,2,123,1,
,,,,,,,,,,,,,,,,,,5c0c90e7632102000147c3cc,2020-08-10_10h50.25.183,lexical_decision_task_MP,2020.1.3,Win32,60,m,1,0.732,,,,,,,,0.732,1,,,,,,99,WORD,UN,33,carbon,FLUENT,m,,,,,,,-0.06640625,-0.388020833,0,0,0,,0,3,3,158,1,
,,,,,,,,,,,,,,,,,,5c0c90e7632102000147c3cc,2020-08-10_10h50.25.183,lexical_decision_task_MP,2020.1.3,Win32,60,z,1,1.089,,,,,,,,1.089,1,,,,,,394,NW,UN,50,colury,SPAQUX,z,,,,,,,-0.06640625,-0.388020833,0,0,0,,0,4,4,453,1,
,,,,,,,,,,,,,,,,,,5c0c90e7632102000147c3cc,2020-08-10_10h50.25.183,lexical_decision_task_MP,2020.1.3,Win32,60,m,0,1.022,,,,,,,,1.022,0,,,,,,451,NW,"ID",33,cainky,CAINKY,z,,,,,,,-0.06640625,-0.388020833,0,0,0,,0,5,5,270,1,
,,,,,,,,,,,,,,,,,,5c0c90e7632102000147c3cc,2020-08-10_10h50.25.183,lexical_decision_task_MP,2020.1.3,Win32,60,m,1,1.383,,,,,,,,1.383,1,,,,,,102,WORD,UN,33,bounce,DIRECT,m,,,,,,,-0.06640625,-0.388020833,0,0,0,,0,6,6,161,1,
,,,,,,,,,,,,,,,,,,5c0c90e7632102000147c3cc,2020-08-10_10h50.25.183,lexical_decision_task_MP,2020.1.3,Win32,60,m,1,0.848,,,,,,,,0.848,1,,,,,,143,WORD,UN,50,sponge,REASON,m,,,,,,,-0.06640625,-0.388020833,0,0,0,,0,7,7,202,1,
,,,,,,,,,,,,,,,,,,5c0c90e7632102000147c3cc,2020-08-10_10h50.25.183,lexical_decision_task_MP,2020.1.3,Win32,60,,0,,,,,,,,,0.848,-1,,,,,,76,WORD,UN,33,racket,EXOTIC,m,,,,,,,-0.06640625,-0.388020833,0,0,0,,0,8,8,135,1,
,,,,,,,,,,,,,,,,,,5c0c90e7632102000147c3cc,2020-08-10_10h50.25.183,lexical_decision_task_MP,2020.1.3,Win32,60,m,1,1.038,,,,,,,,1.038,1,,,,,,122,WORD,UN,50,strike,LINGER,m,,,,,,,-0.06640625,-0.388020833,0,0,0,,0,9,9,181,1,
,,,,,,,,,,,,,,,,,,5c0c90e7632102000147c3cc,2020-08-10_10h50.25.183,lexical_decision_task_MP,2020.1.3,Win32,60,m,0,1.282,,,,,,,,1.282,0,,,,,,348,NW,UN,33,asylen,DUMPLE,z,,,,,,,-0.06640625,-0.388020833,0,0,0,,0,10,10,407,1,
,,,,,,,,,,,,,,,,,,5c0c90e7632102000147c3cc,2020-08-10_10h50.25.183,lexical_decision_task_MP,2020.1.3,Win32,60,m,1,0.79,,,,,,,,0.79,1,,,,,,215,WORD,"ID",33,phobia,PHOBIA,m,,,,,,,-0.06640625,-0.388020833,0,0,0,,0,11,11,34,1,
,,,,,,,,,,,,,,,,,,5c0c90e7632102000147c3cc,2020-08-10_10h50.25.183,lexical_decision_task_MP,2020.1.3,Win32,60,m,1,0.683,,,,,,,,0.683,1,,,,,,173,WORD,UN,50,turkey,SHOWER,m,,,,,,,-0.06640625,-0.388020833,0,0,0,,0,12,12,232,1,
,,,,,,,,,,,,,,,,,,5c0c90e7632102000147c3cc,2020-08-10_10h50.25.183,lexical_decision_task_MP,2020.1.3,Win32,60,m,1,0.821,,,,,,,,0.821,1,,,,,,238,WORD,"ID",33,flower,FLOWER,m,,,,,,,-0.06640625,-0.388020833,0,0,0,,0,13,13,57,1,
,,,,,,,,,,,,,,,,,,5c0c90e7632102000147c3cc,2020-08-10_10h50.25.183,lexical_decision_task_MP,2020.1.3,Win32,60,z,1,1.389,,,,,,,,1.389,1,,,,,,373,NW,UN,50,sliant,BIGENT,z,,,,,,,-0.06640625,-0.388020833,0,0,0,,0,14,14,432,1,
,,,,,,,,,,,,,,,,,,5c0c90e7632102000147c3cc,2020-08-10_10h50.25.183,lexical_decision_task_MP,2020.1.3,Win32,60,z,1,1.072,,,,,,,,1.072,1,,,,,,452,NW,"ID",33,surden,SURDEN,z,,,,,,,-0.06640625,-0.388020833,0,0,0,,0,15,15,271,1,
,,,,,,,,,,,,,,,,,,5c0c90e7632102000147c3cc,2020-08-10_10h50.25.183,lexical_decision_task_MP,2020.1.3,Win32,60,z,0,1.082,,,,,,,,1.082,0,,,,,,138,WORD,UN,50,debris,MELODY,m,,,,,,,-0.06640625,-0.388020833,0,0,0,,0,16,16,197,1,
,,,,,,,,,,,,,,,,,,5c0c90e7632102000147c3cc,2020-08-10_10h50.25.183,lexical_decision_task_MP,2020.1.3,Win32,60,z,1,1.042,,,,,,,,1.042,1,,,,,,411,NW,UN,50,jiluer,ORCHIN,z,,,,,,,-0.06640625,-0.388020833,0,0,0,,0,17,17,470,1,
,,,,,,,,,,,,,,,,,,5c0c90e7632102000147c3cc,2020-08-10_10h50.25.183,lexical_decision_task_MP,2020.1.3,Win32,60,m,1,0.821,,,,,,,,0.821,1,,,,,,21,WORD,"ID",50,simple,SIMPLE,m,,,,,,,-0.06640625,-0.388020833,0,0,0,,0,18,18,80,1,
,,,,,,,,,,,,,,,,,,5c0c90e7632102000147c3cc,2020-08-10_10h50.25.183,lexical_decision_task_MP,2020.1.3,Win32,60,z,1,1.059,,,,,,,,1.059,1,,,,,,321,NW,UN,33,slanch,MIATOR,z,,,,,,,-0.06640625,-0.388020833,0,0,0,,0,19,19,380,1,
,,,,,,,,,,,,,,,,,,5c0c90e7632102000147c3cc,2020-08-10_10h50.25.183,lexical_decision_task_MP,2020.1.3,Win32,60,m,1,1.46,,,,,,,,1.46,1,,,,,,105,WORD,UN,33,ransom,NUMBER,m,,,,,,,-0.06640625,-0.388020833,0,0,0,,0,20,20,164,1,
,,,,,,,,,,,,,,,,,,5c0c90e7632102000147c3cc,2020-08-10_10h50.25.183,lexical_decision_task_MP,2020.1.3,Win32,60,m,1,1.059,,,,,,,,1.059,1,,,,,,9,WORD,"ID",50,hustle,HUSTLE,m,,,,,,,-0.06640625,-0.388020833,0,0,0,,0,21,21,68,1,
,,,,,,,,,,,,,,,,,,5c0c90e7632102000147c3cc,2020-08-10_10h50.25.183,lexical_decision_task_MP,2020.1.3,Win32,60,m,1,0.77,,,,,,,,0.77,1,,,,,,77,WORD,UN,33,column,RACKET,m,,,,,,,-0.06640625,-0.388020833,0,0,0,,0,22,22,136,1,
,,,,,,,,,,,,,,,,,,5c0c90e7632102000147c3cc,2020-08-10_10h50.25.183,lexical_decision_task_MP,2020.1.3,Win32,60,z,1,0.819,,,,,,,,0.819,1,,,,,,258,NW,"ID",50,poluth,POLUTH,z,,,,,,,-0.06640625,-0.388020833,0,0,0,,0,23,23,317,1,
,,,,,,,,,,,,,,,,,,5c0c90e7632102000147c3cc,2020-08-10_10h50.25.183,lexical_decision_task_MP,2020.1.3,Win32,60,,0,,,,,,,,,0.819,-1,,,,,,103,WORD,UN,33,studio,BOUNCE,m,,,,,,,-0.06640625,-0.388020833,0,0,0,,0,24,24,162,1,
,,,,,,,,,,,,,,,,,,5c0c90e7632102000147c3cc,2020-08-10_10h50.25.183,lexical_decision_task_MP,2020.1.3,Win32,60,z,1,1.077,,,,,,,,1.077,1,,,,,,396,NW,UN,50,camble,FLENGY,z,,,,,,,-0.06640625,-0.388020833,0,0,0,,0,25,25,455,1,
,,,,,,,,,,,,,,,,,,5c0c90e7632102000147c3cc,2020-08-10_10h50.25.183,lexical_decision_task_MP,2020.1.3,Win32,60,,0,,,,,,,,,1.077,-1,,,,,,327,NW,UN,33,broake,PLENAC,z,,,,,,,-0.06640625,-0.388020833,0,0,0,,0,26,26,386,1,
,,,,,,,,,,,,,,,,,,5c0c90e7632102000147c3cc,2020-08-10_10h50.25.183,lexical_decision_task_MP,2020.1.3,Win32,60,m,1,1.801,,,,,,,,1.801,1,,,,,,137,WORD,UN,50,melody,FINGER,m,,,,,,,-0.06640625,-0.388020833,0,0,0,,0,27,27,196,1,
,,,,,,,,,,,,,,,,,,5c0c90e7632102000147c3cc,2020-08-10_10h50.25.183,lexical_decision_task_MP,2020.1.3,Win32,60,z,1,1.043,,,,,,,,1.043,1,,,,,,390,NW,UN,50,theldy,HATRUS,z,,,,,,,-0.06640625,-0.388020833,0,0,0,,0,28,28,449,1,
,,,,,,,,,,,,,,,,,,5c0c90e7632102000147c3cc,2020-08-10_10h50.25.183,lexical_decision_task_MP,2020.1.3,Win32,60,z,1,1.219,,,,,,,,1.219,1,,,,,,294,NW,"ID",50,inhort,INHORT,z,,,,,,,-0.06640625,-0.388020833,0,0,0,,0,29,29,353,1,
,,,,,,,,,,,,,,,,,,5c0c90e7632102000147c3cc,2020-08-10_10h50.25.183,lexical_decision_task_MP,2020.1.3,Win32,60,z,1,0.82,,,,,,,,0.82,1,,,,,,383,NW,UN,50,guesco,AUNGRE,z,,,,,,,-0.06640625,-0.388020833,0,0,0,,0,30,30,442,1,
,,,,,,,,,,,,,,,,,,5c0c90e7632102000147c3cc,2020-08-10_10h50.25.183,lexical_decision_task_MP,2020.1.3,Win32,60,m,1,0.949,,,,,,,,0.949,1,,,,,,223,WORD,"ID",33,kidney,KIDNEY,m,,,,,,,-0.06640625,-0.388020833,0,0,0,,0,31,31,42,1,
,,,,,,,,,,,,,,,,,,5c0c90e7632102000147c3cc,2020-08-10_10h50.25.183,lexical_decision_task_MP,2020.1.3,Win32,60,m,1,0.591,,,,,,,,0.591,1,,,,,,28,WORD,"ID",50,comedy,COMEDY,m,,,,,,,-0.06640625,-0.388020833,0,0,0,,0,32,32,87,1,
,,,,,,,,,,,,,,,,,,5c0c90e7632102000147c3cc,2020-08-10_10h50.25.183,lexical_decision_task_MP,2020.1.3,Win32,60,z,1,0.617,,,,,,,,0.617,1,,,,,,282,NW,"ID",50,porlex,PORLEX,z,,,,,,,-0.06640625,-0.388020833,0,0,0,,0,33,33,341,1,
,,,,,,,,,,,,,,,,,,5c0c90e7632102000147c3cc,2020-08-10_10h50.25.183,lexical_decision_task_MP,2020.1.3,Win32,60,m,1,1.122,,,,,,,,1.122,1,,,,,,72,WORD,UN,33,source,BRIGHT,m,,,,,,,-0.06640625,-0.388020833,0,0,0,,0,34,34,131,1,
,,,,,,,,,,,,,,,,,,5c0c90e7632102000147c3cc,2020-08-10_10h50.25.183,lexical_decision_task_MP,2020.1.3,Win32,60,z,1,0.815,,,,,,,,0.815,1,,,,,,316,NW,UN,33,worbal,SCREGM,z,,,,,,,-0.06640625,-0.388020833,0,0,0,,0,35,35,375,1,
,,,,,,,,,,,,,,,,,,5c0c90e7632102000147c3cc,2020-08-10_10h50.25.183,lexical_decision_task_MP,2020.1.3,Win32,60,m,1,1,,,,,,,,1,1,,,,,,145,WORD,UN,50,couple,PARISH,m,,,,,,,-0.06640625,-0.388020833,0,0,0,,0,36,36,204,1,
,,,,,,,,,,,,,,,,,,5c0c90e7632102000147c3cc,2020-08-10_10h50.25.183,lexical_decision_task_MP,2020.1.3,Win32,60,z,1,1.04,,,,,,,,1.04,1,,,,,,307,NW,UN,33,psetch,KIRAFE,z,,,,,,,-0.06640625,-0.388020833,0,0,0,,0,37,37,366,1,
,,,,,,,,,,,,,,,,,,5c0c90e7632102000147c3cc,2020-08-10_10h50.25.183,lexical_decision_task_MP,2020.1.3,Win32,60,z,1,0.932,,,,,,,,0.932,1,,,,,,318,NW,UN,33,zomber,REAGLY,z,,,,,,,-0.06640625,-0.388020833,0,0,0,,0,38,38,377,1,
,,,,,,,,,,,,,,,,,,5c0c90e7632102000147c3cc,2020-08-10_10h50.25.183,lexical_decision_task_MP,2020.1.3,Win32,60,z,1,0.702,,,,,,,,0.702,1,,,,,,279,NW,"ID",50,celond,CELOND,z,,,,,,,-0.06640625,-0.388020833,0,0,0,,0,39,39,338,1,
,,,,,,,,,,,,,,,,,,5c0c90e7632102000147c3cc,2020-08-10_10h50.25.183,lexical_decision_task_MP,2020.1.3,Win32,60,z,1,0.851,,,,,,,,0.851,1,,,,,,329,NW,UN,33,kensom,YARIKE,z,,,,,,,-0.06640625,-0.388020833,0,0,0,,0,40,40,388,1,
,,,,,,,,,,,,,,,,,,5c0c90e7632102000147c3cc,2020-08-10_10h50.25.183,lexical_decision_task_MP,2020.1.3,Win32,60,m,1,0.834,,,,,,,,0.834,1,,,,,,117,WORD,UN,33,flight,BRANCH,m,,,,,,,-0.06640625,-0.388020833,0,0,0,,0,41,41,176,1,
,,,,,,,,,,,,,,,,,,5c0c90e7632102000147c3cc,2020-08-10_10h50.25.183,lexical_decision_task_MP,2020.1.3,Win32,60,m,1,1.522,,,,,,,,1.522,1,,,,,,205,WORD,"ID",33,lounge,LOUNGE,m,,,,,,,-0.06640625,-0.388020833,0,0,0,,0,42,42,24,1,
,,,,,,,,,,,,,,,,,,5c0c90e7632102000147c3cc,2020-08-10_10h50.25.183,lexical_decision_task_MP,2020.1.3,Win32,60,z,1,0.871,,,,,,,,0.871,1,,,,,,257,NW,"ID",50,veniod,VENIOD,z,,,,,,,-0.06640625,-0.388020833,0,0,0,,0,43,43,316,1,
,,,,,,,,,,,,,,,,,,5c0c90e7632102000147c3cc,2020-08-10_10h50.25.183,lexical_decision_task_MP,2020.1.3,Win32,60,z,1,1.175,,,,,,,,1.175,1,,,,,,322,NW,UN,33,rosail,SLANCH,z,,,,,,,-0.06640625,-0.388020833,0,0,0,,0,44,44,381,1,
,,,,,,,,,,,,,,,,,,5c0c90e7632102000147c3cc,2020-08-10_10h50.25.183,lexical_decision_task_MP,2020.1.3,Win32,60,m,1,1.257,,,,,,,,1.257,1,,,,,,201,WORD,"ID",33,admire,ADMIRE,m,,,,,,,-0.06640625,-0.388020833,0,0,0,,0,45,45,20,1,
,,,,,,,,,,,,,,,,,,5c0c90e7632102000147c3cc,2020-08-10_10h50.25.183,lexical_decision_task_MP,2020.1.3,Win32,60,z,1,1.233,,,,,,,,1.233,1,,,,,,313,NW,UN,33,sprine,PAURSE,z,,,,,,,-0.06640625,-0.388020833,0,0,0,,0,46,46,372,1,
,,,,,,,,,,,,,,,,,,5c0c90e7632102000147c3cc,2020-08-10_10h50.25.183,lexical_decision_task_MP,2020.1.3,Win32,60,m,1,0.819,,,,,,,,0.819,1,,,,,,199,WORD,"ID",33,invoke,INVOKE,m,,,,,,,-0.06640625,-0.388020833,0,0,0,,0,47,47,18,1,
,,,,,,,,,,,,,,,,,,5c0c90e7632102000147c3cc,2020-08-10_10h50.25.183,lexical_decision_task_MP,2020.1.3,Win32,60,m,1,1.036,,,,,,,,1.036,1,,,,,,51,WORD,"ID",50,hungry,HUNGRY,m,,,,,,,-0.06640625,-0.388020833,0,0,0,,0,48,48,110,1,
,,,,,,,,,,,,,,,,,,5c0c90e7632102000147c3cc,2020-08-10_10h50.25.183,lexical_decision_task_MP,2020.1.3,Win32,60,,0,,,,,,,,,1.036,-1,,,,,,16,WORD,"ID",50,faucet,FAUCET,m,,,,,,,-0.06640625,-0.388020833,0,0,0,,0,49,49,75,1,
,,,,,,,,,,,,,,,,,,5c0c90e7632102000147c3cc,2020-08-10_10h50.25.183,lexical_decision_task_MP,2020.1.3,Win32,60,m,1,1.456,,,,,,,,1.456,1,,,,,,89,WORD,UN,33,relish,PERMIT,m,,,,,,,-0.06640625,-0.388020833,0,0,0,,0,50,50,148,1,
,,,,,,,,,,,,,,,,,,5c0c90e7632102000147c3cc,2020-08-10_10h50.25.183,lexical_decision_task_MP,2020.1.3,Win32,60,m,1,0.934,,,,,,,,0.934,1,,,,,,151,WORD,UN,50,rocket,MYSTIC,m,,,,,,,-0.06640625,-0.388020833,0,0,0,,0,51,51,210,1,
,,,,,,,,,,,,,,,,,,5c0c90e7632102000147c3cc,2020-08-10_10h50.25.183,lexical_decision_task_MP,2020.1.3,Win32,60,z,1,0.801,,,,,,,,0.801,1,,,,,,436,NW,"ID",33,frutan,FRUTAN,z,,,,,,,-0.06640625,-0.388020833,0,0,0,,0,52,52,255,1,
,,,,,,,,,,,,,,,,,,5c0c90e7632102000147c3cc,2020-08-10_10h50.25.183,lexical_decision_task_MP,2020.1.3,Win32,60,z,1,0.6,,,,,,,,0.6,1,,,,,,261,NW,"ID",50,stunch,STUNCH,z,,,,,,,-0.06640625,-0.388020833,0,0,0,,0,53,53,320,1,
,,,,,,,,,,,,,,,,,,5c0c90e7632102000147c3cc,2020-08-10_10h50.25.183,lexical_decision_task_MP,2020.1.3,Win32,60,z,1,0.566,,,,,,,,0.566,1,,,,,,293,NW,"ID",50,swance,SWANCE,z,,,,,,,-0.06640625,-0.388020833,0,0,0,,0,54,54,352,1,
,,,,,,,,,,,,,,,,,,5c0c90e7632102000147c3cc,2020-08-10_10h50.25.183,lexical_decision_task_MP,2020.1.3,Win32,60,m,1,0.801,,,,,,,,0.801,1,,,,,,161,WORD,UN,50,candle,PASTOR,m,,,,,,,-0.06640625,-0.388020833,0,0,0,,0,55,55,220,1,
,,,,,,,,,,,,,,,,,,5c0c90e7632102000147c3cc,2020-08-10_10h50.25.183,lexical_decision_task_MP,2020.1.3,Win32,60,m,1,0.834,,,,,,,,0.834,1,,,,,,78,WORD,UN,33,theory,COLUMN,m,,,,,,,-0.06640625,-0.388020833,0,0,0,,0,56,56,137,1,
,,,,,,,,,,,,,,,,,,5c0c90e7632102000147c3cc,2020-08-10_10h50.25.183,lexical_decision_task_MP,2020.1.3,Win32,60,m,1,0.843,,,,,,,,0.843,1,,,,,,65,WORD,UN,33,gospel,SYMBOL,m,,,,,,,-0.06640625,-0.388020833,0,0,0,,0,57,57,124,1,
,,,,,,,,,,,,,,,,,,5c0c90e7632102000147c3cc,2020-08-10_10h50.25.183,lexical_decision_task_MP,2020.1.3,Win32,60,z,1,1.201,,,,,,,,1.201,1,,,,,,389,NW,UN,50,hatrus,WITMER,z,,,,,,,-0.06640625,-0.388020833,0,0,0,,0,58,58,448,1,
,,,,,,,,,,,,,,,,,,5c0c90e7632102000147c3cc,2020-08-10_10h50.25.183,lexical_decision_task_MP,2020.1.3,Win32,60,z,1,1.676,,,,,,,,1.676,1,,,,,,247,NW,"ID",50,blarge,BLARGE,z,,,,,,,-0.06640625,-0.388020833,0,0,0,,0,59,59,306,1,
,,,,,,,,,,,,,,,,,,5c0c90e7632102000147c3cc,2020-08-10_10h50.25.183,lexical_decision_task_MP,2020.1.3,Win32,60,z,1,0.819,,,,,,,,0.819,1,,,,,,387,NW,UN,50,cragin,GRONCE,z,,,,,,,-0.06640625,-0.388020833,0,0,0,,0,60,60,446,1,
,,,,,,,,,,,,,,,,,,5c0c90e7632102000147c3cc,2020-08-10_10h50.25.183,lexical_decision_task_MP,2020.1.3,Win32,60,m,1,0.804,,,,,,,,0.804,1,,,,,,85,WORD,UN,33,rodent,SPRAWL,m,,,,,,,-0.06640625,-0.388020833,0,0,0,,0,61,61,144,1,
,,,,,,,,,,,,,,,,,,5c0c90e7632102000147c3cc,2020-08-10_10h50.25.183,lexical_decision_task_MP,2020.1.3,Win32,60,m,1,1.532,,,,,,,,1.532,1,,,,,,54,WORD,"ID",50,ramble,RAMBLE,m,,,,,,,-0.06640625,-0.388020833,0,0,0,,0,62,62,113,1,
,,,,,,,,,,,,,,,,,,5c0c90e7632102000147c3cc,2020-08-10_10h50.25.183,lexical_decision_task_MP,2020.1.3,Win32,60,m,1,1.336,,,,,,,,1.336,1,,,,,,46,WORD,"ID",50,single,SINGLE,m,,,,,,,-0.06640625,-0.388020833,0,0,0,,0,63,63,105,1,
,,,,,,,,,,,,,,,,,,5c0c90e7632102000147c3cc,2020-08-10_10h50.25.183,lexical_decision_task_MP,2020.1.3,Win32,60,m,1,1.236,,,,,,,,1.236,1,,,,,,121,WORD,UN,50,linger,THRIVE,m,,,,,,,-0.06640625,-0.388020833,0,0,0,,0,64,64,180,1,
,,,,,,,,,,,,,,,,,,5c0c90e7632102000147c3cc,2020-08-10_10h50.25.183,lexical_decision_task_MP,2020.1.3,Win32,60,m,1,0.603,,,,,,,,0.603,1,,,,,,123,WORD,UN,50,blouse,STRIKE,m,,,,,,,-0.06640625,-0.388020833,0,0,0,,0,65,65,182,1,
,,,,,,,,,,,,,,,,,,5c0c90e7632102000147c3cc,2020-08-10_10h50.25.183,lexical_decision_task_MP,2020.1.3,Win32,60,z,1,0.804,,,,,,,,0.804,1,,,,,,416,NW,UN,50,earoud,PATHEL,z,,,,,,,-0.06640625,-0.388020833,0,0,0,,0,66,66,475,1,
,,,,,,,,,,,,,,,,,,5c0c90e7632102000147c3cc,2020-08-10_10h50.25.183,lexical_decision_task_MP,2020.1.3,Win32,60,m,1,0.79,,,,,,,,0.79,1,,,,,,165,WORD,UN,50,starch,INVEST,m,,,,,,,-0.06640625,-0.388020833,0,0,0,,0,67,67,224,1,
,,,,,,,,,,,,,,,,,,5c0c90e7632102000147c3cc,2020-08-10_10h50.25.183,lexical_decision_task_MP,2020.1.3,Win32,60,z,1,0.883,,,,,,,,0.883,1,,,,,,320,NW,UN,33,miator,JOCKAL,z,,,,,,,-0.06640625,-0.388020833,0,0,0,,0,68,68,379,1,
,,,,,,,,,,,,,,,,,,5c0c90e7632102000147c3cc,2020-08-10_10h50.25.183,lexical_decision_task_MP,2020.1.3,Win32,60,,0,,,,,,,,,0.883,-1,,,,,,153,WORD,UN,50,author,BEHOLD,m,,,,,,,-0.06640625,-0.388020833,0,0,0,,0,69,69,212,1,
,,,,,,,,,,,,,,,,,,5c0c90e7632102000147c3cc,2020-08-10_10h50.25.183,lexical_decision_task_MP,2020.1.3,Win32,60,,0,,,,,,,,,0.883,-1,,,,,,306,NW,UN,33,kirafe,SOUNGE,z,,,,,,,-0.06640625,-0.388020833,0,0,0,,0,70,70,365,1,
,,,,,,,,,,,,,,,,,,5c0c90e7632102000147c3cc,2020-08-10_10h50.25.183,lexical_decision_task_MP,2020.1.3,Win32,60,z,1,0.997,,,,,,,,0.997,1,,,,,,285,NW,"ID",50,prudge,PRUDGE,z,,,,,,,-0.06640625,-0.388020833,0,0,0,,0,71,71,344,1,
,,,,,,,,,,,,,,,,,,5c0c90e7632102000147c3cc,2020-08-10_10h50.25.183,lexical_decision_task_MP,2020.1.3,Win32,60,m,1,1.254,,,,,,,,1.254,1,,,,,,69,WORD,UN,33,square,PLENTY,m,,,,,,,-0.06640625,-0.388020833,0,0,0,,0,72,72,128,1,
,,,,,,,,,,,,,,,,,,5c0c90e7632102000147c3cc,2020-08-10_10h50.25.183,lexical_decision_task_MP,2020.1.3,Win32,60,z,1,1.332,,,,,,,,1.332,1,,,,,,302,NW,UN,33,fiream,MILUER,z,,,,,,,-0.06640625,-0.388020833,0,0,0,,0,73,73,361,1,
,,,,,,,,,,,,,,,,,,5c0c90e7632102000147c3cc,2020-08-10_10h50.25.183,lexical_decision_task_MP,2020.1.3,Win32,60,z,1,0.674,,,,,,,,0.674,1,,,,,,480,NW,"ID",33,robuly,ROBULY,z,,,,,,,-0.06640625,-0.388020833,0,0,0,,0,74,74,299,1,
,,,,,,,,,,,,,,,,,,5c0c90e7632102000147c3cc,2020-08-10_10h50.25.183,lexical_decision_task_MP,2020.1.3,Win32,60,m,1,0.684,,,,,,,,0.684,1,,,,,,158,WORD,UN,50,detail,ISLAND,m,,,,,,,-0.06640625,-0.388020833,0,0,0,,0,75,75,217,1,
,,,,,,,,,,,,,,,,,,5c0c90e7632102000147c3cc,2020-08-10_10h50.25.183,lexical_decision_task_MP,2020.1.3,Win32,60,m,1,1.451,,,,,,,,1.451,1,,,,,,50,WORD,"ID",50,snatch,SNATCH,m,,,,,,,-0.06640625,-0.388020833,0,0,0,,0,76,76,109,1,
,,,,,,,,,,,,,,,,,,5c0c90e7632102000147c3cc,2020-08-10_10h50.25.183,lexical_decision_task_MP,2020.1.3,Win32,60,z,1,1.204,,,,,,,,1.204,1,,,,,,288,NW,"ID",50,yaceup,YACEUP,z,,,,,,,-0.06640625,-0.388020833,0,0,0,,0,77,77,347,1,
,,,,,,,,,,,,,,,,,,5c0c90e7632102000147c3cc,2020-08-10_10h50.25.183,lexical_decision_task_MP,2020.1.3,Win32,60,m,1,0.805,,,,,,,,0.805,1,,,,,,203,WORD,"ID",33,phrase,PHRASE,m,,,,,,,-0.06640625,-0.388020833,0,0,0,,0,78,78,22,1,
,,,,,,,,,,,,,,,,,,5c0c90e7632102000147c3cc,2020-08-10_10h50.25.183,lexical_decision_task_MP,2020.1.3,Win32,60,m,1,0.903,,,,,,,,0.903,1,,,,,,35,WORD,"ID",50,socket,SOCKET,m,,,,,,,-0.06640625,-0.388020833,0,0,0,,0,79,79,94,1,
,,,,,,,,,,,,,,,,,,5c0c90e7632102000147c3cc,2020-08-10_10h50.25.183,lexical_decision_task_MP,2020.1.3,Win32,60,z,1,0.724,,,,,,,,0.724,1,,,,,,461,NW,"ID",33,justre,JUSTRE,z,,,,,,,-0.06640625,-0.388020833,0,0,0,,0,80,80,280,1,
,,,,,,,,,,,,,,,,,,5c0c90e7632102000147c3cc,2020-08-10_10h50.25.183,lexical_decision_task_MP,2020.1.3,Win32,60,z,1,0.64,,,,,,,,0.64,1,,,,,,283,NW,"ID",50,veralf,VERALF,z,,,,,,,-0.06640625,-0.388020833,0,0,0,,0,81,81,342,1,
,,,,,,,,,,,,,,,,,,5c0c90e7632102000147c3cc,2020-08-10_10h50.25.183,lexical_decision_task_MP,2020.1.3,Win32,60,m,1,0.785,,,,,,,,0.785,1,,,,,,13,WORD,"ID",50,strive,STRIVE,m,,,,,,,-0.06640625,-0.388020833,0,0,0,,0,82,82,72,1,
,,,,,,,,,,,,,,,,,,5c0c90e7632102000147c3cc,2020-08-10_10h50.25.183,lexical_decision_task_MP,2020.1.3,Win32,60,m,1,1.042,,,,,,,,1.042,1,,,,,,120,WORD,UN,33,ponder,STRAIN,m,,,,,,,-0.06640625,-0.388020833,0,0,0,,0,83,83,179,1,
,,,,,,,,,,,,,,,,,,5c0c90e7632102000147c3cc,2020-08-10_10h50.25.183,lexical_decision_task_MP,2020.1.3,Win32,60,m,1,0.8,,,,,,,,0.8,1,,,,,,235,WORD,"ID",33,grumpy,GRUMPY,m,,,,,,,-0.06640625,-0.388020833,0,0,0,,0,84,84,54,1,
,,,,,,,,,,,,,,,,,,5c0c90e7632102000147c3cc,2020-08-10_10h50.25.183,lexical_decision_task_MP,2020.1.3,Win32,60,m,1,0.724,,,,,,,,0.724,1,,,,,,4,WORD,"ID",50,trench,TRENCH,m,,,,,,,-0.06640625,-0.388020833,0,0,0,,0,85,85,63,1,
,,,,,,,,,,,,,,,,,,5c0c90e7632102000147c3cc,2020-08-10_10h50.25.183,lexical_decision_task_MP,2020.1.3,Win32,60,,0,,,,,,,,,0.724,-1,,,,,,217,WORD,"ID",33,liquor,LIQUOR,m,,,,,,,-0.06640625,-0.388020833,0,0,0,,0,86,86,36,1,
,,,,,,,,,,,,,,,,,,5c0c90e7632102000147c3cc,2020-08-10_10h50.25.183,lexical_decision_task_MP,2020.1.3,Win32,60,,0,,,,,,,,,0.724,-1,,,,,,268,NW,"ID",50,packes,PACKES,z,,,,,,,-0.06640625,-0.388020833,0,0,0,,0,87,87,327,1,
,,,,,,,,,,,,,,,,,,5c0c90e7632102000147c3cc,2020-08-10_10h50.25.183,lexical_decision_task_MP,2020.1.3,Win32,60,z,1,1.519,,,,,,,,1.519,1,,,,,,478,NW,"ID",33,acrise,ACRISE,z,,,,,,,-0.06640625,-0.388020833,0,0,0,,0,88,88,297,1,
,,,,,,,,,,,,,,,,,,5c0c90e7632102000147c3cc,2020-08-10_10h50.25.183,lexical_decision_task_MP,2020.1.3,Win32,60,z,1,1.123,,,,,,,,1.123,1,,,,,,362,NW,UN,50,breali,TIREAU,z,,,,,,,-0.06640625,-0.388020833,0,0,0,,0,89,89,421,1,
,,,,,,,,,,,,,,,,,,5c0c90e7632102000147c3cc,2020-08-10_10h50.25.183,lexical_decision_task_MP,2020.1.3,Win32,60,z,1,0.699,,,,,,,,0.699,1,,,,,,300,NW,"ID",50,yarion,YARION,z,,,,,,,-0.06640625,-0.388020833,0,0,0,,0,90,90,359,1,
,,,,,,,,,,,,,,,,,,5c0c90e7632102000147c3cc,2020-08-10_10h50.25.183,lexical_decision_task_MP,2020.1.3,Win32,60,z,1,0.6,,,,,,,,0.6,1,,,,,,440,NW,"ID",33,saride,SARIDE,z,,,,,,,-0.06640625,-0.388020833,0,0,0,,0,91,91,259,1,
,,,,,,,,,,,,,,,,,,5c0c90e7632102000147c3cc,2020-08-10_10h50.25.183,lexical_decision_task_MP,2020.1.3,Win32,60,m,1,0.799,,,,,,,,0.799,1,,,,,,1,WORD,"ID",50,fright,FRIGHT,m,,,,,,,-0.06640625,-0.388020833,0,0,0,,0,92,92,60,1,
,,,,,,,,,,,,,,,,,,5c0c90e7632102000147c3cc,2020-08-10_10h50.25.183,lexical_decision_task_MP,2020.1.3,Win32,60,z,1,0.838,,,,,,,,0.838,1,,,,,,406,NW,UN,50,suiver,NOUPLY,z,,,,,,,-0.06640625,-0.388020833,0,0,0,,0,93,93,465,1,
,,,,,,,,,,,,,,,,,,5c0c90e7632102000147c3cc,2020-08-10_10h50.25.183,lexical_decision_task_MP,2020.1.3,Win32,60,z,0,0.888,,,,,,,,0.888,0,,,,,,113,WORD,UN,33,placid,CHORUS,m,,,,,,,-0.06640625,-0.388020833,0,0,0,,0,94,94,172,1,
,,,,,,,,,,,,,,,,,,5c0c90e7632102000147c3cc,2020-08-10_10h50.25.183,lexical_decision_task_MP,2020.1.3,Win32,60,z,1,1.406,,,,,,,,1.406,1,,,,,,401,NW,UN,50,syntic,MUSTIL,z,,,,,,,-0.06640625,-0.388020833,0,0,0,,0,95,95,460,1,
,,,,,,,,,,,,,,,,,,5c0c90e7632102000147c3cc,2020-08-10_10h50.25.183,lexical_decision_task_MP,2020.1.3,Win32,60,z,1,0.759,,,,,,,,0.759,1,,,,,,464,NW,"ID",33,chaite,CHAITE,z,,,,,,,-0.06640625,-0.388020833,0,0,0,,0,96,96,283,1,
,,,,,,,,,,,,,,,,,,5c0c90e7632102000147c3cc,2020-08-10_10h50.25.183,lexical_decision_task_MP,2020.1.3,Win32,60,m,1,0.683,,,,,,,,0.683,1,,,,,,115,WORD,UN,33,tumble,GUITAR,m,,,,,,,-0.06640625,-0.388020833,0,0,0,,0,97,97,174,1,
,,,,,,,,,,,,,,,,,,5c0c90e7632102000147c3cc,2020-08-10_10h50.25.183,lexical_decision_task_MP,2020.1.3,Win32,60,z,1,0.748,,,,,,,,0.748,1,,,,,,421,NW,"ID",33,knisma,KNISMA,z,,,,,,,-0.06640625,-0.388020833,0,0,0,,0,98,98,240,1,
,,,,,,,,,,,,,,,,,,5c0c90e7632102000147c3cc,2020-08-10_10h50.25.183,lexical_decision_task_MP,2020.1.3,Win32,60,z,1,0.85,,,,,,,,0.85,1,,,,,,477,NW,"ID",33,photie,PHOTIE,z,,,,,,,-0.06640625,-0.388020833,0,0,0,,0,99,99,296,1,
,,,,,,,,,,,,,,,,,,5c0c90e7632102000147c3cc,2020-08-10_10h50.25.183,lexical_decision_task_MP,2020.1.3,Win32,60,z,1,1.19,,,,,,,,1.19,1,,,,,,359,NW,UN,33,desory,FONVER,z,,,,,,,-0.06640625,-0.388020833,0,0,0,,0,100,100,418,1,
,,,,,,,,,,,,,,,,,,5c0c90e7632102000147c3cc,2020-08-10_10h50.25.183,lexical_decision_task_MP,2020.1.3,Win32,60,m,1,0.782,,,,,,,,0.782,1,,,,,,236,WORD,"ID",33,pirate,PIRATE,m,,,,,,,-0.06640625,-0.388020833,0,0,0,,0,101,101,55,1,
,,,,,,,,,,,,,,,,,,5c0c90e7632102000147c3cc,2020-08-10_10h50.25.183,lexical_decision_task_MP,2020.1.3,Win32,60,z,1,1.083,,,,,,,,1.083,1,,,,,,252,NW,"ID",50,stapod,STAPOD,z,,,,,,,-0.06640625,-0.388020833,0,0,0,,0,102,102,311,1,
,,,,,,,,,,,,,,,,,,5c0c90e7632102000147c3cc,2020-08-10_10h50.25.183,lexical_decision_task_MP,2020.1.3,Win32,60,m,1,0.854,,,,,,,,0.854,1,,,,,,128,WORD,UN,50,marvel,SENIOR,m,,,,,,,-0.06640625,-0.388020833,0,0,0,,0,103,103,187,1,
,,,,,,,,,,,,,,,,,,5c0c90e7632102000147c3cc,2020-08-10_10h50.25.183,lexical_decision_task_MP,2020.1.3,Win32,60,z,1,1.077,,,,,,,,1.077,1,,,,,,415,NW,UN,50,pathel,HIGSTA,z,,,,,,,-0.06640625,-0.388020833,0,0,0,,0,104,104,474,1,
,,,,,,,,,,,,,,,,,,5c0c90e7632102000147c3cc,2020-08-10_10h50.25.183,lexical_decision_task_MP,2020.1.3,Win32,60,m,1,0.835,,,,,,,,0.835,1,,,,,,124,WORD,UN,50,nickel,BLOUSE,m,,,,,,,-0.06640625,-0.388020833,0,0,0,,0,105,105,183,1,
,,,,,,,,,,,,,,,,,,5c0c90e7632102000147c3cc,2020-08-10_10h50.25.183,lexical_decision_task_MP,2020.1.3,Win32,60,m,1,0.827,,,,,,,,0.827,1,,,,,,131,WORD,UN,50,strong,QUENCH,m,,,,,,,-0.06640625,-0.388020833,0,0,0,,0,106,106,190,1,
,,,,,,,,,,,,,,,,,,5c0c90e7632102000147c3cc,2020-08-10_10h50.25.183,lexical_decision_task_MP,2020.1.3,Win32,60,m,1,0.781,,,,,,,,0.781,1,,,,,,192,WORD,"ID",33,plague,PLAGUE,m,,,,,,,-0.06640625,-0.388020833,0,0,0,,0,107,107,11,1,
,,,,,,,,,,,,,,,,,,5c0c90e7632102000147c3cc,2020-08-10_10h50.25.183,lexical_decision_task_MP,2020.1.3,Win32,60,m,1,0.637,,,,,,,,0.637,1,,,,,,81,WORD,UN,33,stigma,FRIEND,m,,,,,,,-0.06640625,-0.388020833,0,0,0,,0,108,108,140,1,
,,,,,,,,,,,,,,,,,,5c0c90e7632102000147c3cc,2020-08-10_10h50.25.183,lexical_decision_task_MP,2020.1.3,Win32,60,m,1,0.557,,,,,,,,0.557,1,,,,,,49,WORD,"ID",50,survey,SURVEY,m,,,,,,,-0.06640625,-0.388020833,0,0,0,,0,109,109,108,1,
,,,,,,,,,,,,,,,,,,5c0c90e7632102000147c3cc,2020-08-10_10h50.25.183,lexical_decision_task_MP,2020.1.3,Win32,60,m,1,0.522,,,,,,,,0.522,1,,,,,,208,WORD,"ID",33,hockey,HOCKEY,m,,,,,,,-0.06640625,-0.388020833,0,0,0,,0,110,110,27,1,
,,,,,,,,,,,,,,,,,,5c0c90e7632102000147c3cc,2020-08-10_10h50.25.183,lexical_decision_task_MP,2020.1.3,Win32,60,m,1,0.582,,,,,,,,0.582,1,,,,,,195,WORD,"ID",33,resign,RESIGN,m,,,,,,,-0.06640625,-0.388020833,0,0,0,,0,111,111,14,1,
,,,,,,,,,,,,,,,,,,5c0c90e7632102000147c3cc,2020-08-10_10h50.25.183,lexical_decision_task_MP,2020.1.3,Win32,60,m,1,0.515,,,,,,,,0.515,1,,,,,,167,WORD,UN,50,answer,DESIGN,m,,,,,,,-0.06640625,-0.388020833,0,0,0,,0,112,112,226,1,
,,,,,,,,,,,,,,,,,,5c0c90e7632102000147c3cc,2020-08-10_10h50.25.183,lexical_decision_task_MP,2020.1.3,Win32,60,z,1,0.798,,,,,,,,0.798,1,,,,,,317,NW,UN,33,reagly,WORBAL,z,,,,,,,-0.06640625,-0.388020833,0,0,0,,0,113,113,376,1,
,,,,,,,,,,,,,,,,,,5c0c90e7632102000147c3cc,2020-08-10_10h50.25.183,lexical_decision_task_MP,2020.1.3,Win32,60,m,1,0.699,,,,,,,,0.699,1,,,,,,214,WORD,"ID",33,intake,INTAKE,m,,,,,,,-0.06640625,-0.388020833,0,0,0,,0,114,114,33,1,
,,,,,,,,,,,,,,,,,,5c0c90e7632102000147c3cc,2020-08-10_10h50.25.183,lexical_decision_task_MP,2020.1.3,Win32,60,z,1,0.686,,,,,,,,0.686,1,,,,,,343,NW,UN,33,scrily,AIMOSY,z,,,,,,,-0.06640625,-0.388020833,0,0,0,,0,115,115,402,1,
,,,,,,,,,,,,,,,,,,5c0c90e7632102000147c3cc,2020-08-10_10h50.25.183,lexical_decision_task_MP,2020.1.3,Win32,60,m,1,0.8,,,,,,,,0.8,1,,,,,,104,WORD,UN,33,number,STUDIO,m,,,,,,,-0.06640625,-0.388020833,0,0,0,,0,116,116,163,1,
,,,,,,,,,,,,,,,,,,5c0c90e7632102000147c3cc,2020-08-10_10h50.25.183,lexical_decision_task_MP,2020.1.3,Win32,60,m,1,0.675,,,,,,,,0.675,1,,,,,,70,WORD,UN,33,garden,SQUARE,m,,,,,,,-0.06640625,-0.388020833,0,0,0,,0,117,117,129,1,
,,,,,,,,,,,,,,,,,,5c0c90e7632102000147c3cc,2020-08-10_10h50.25.183,lexical_decision_task_MP,2020.1.3,Win32,60,z,1,1.234,,,,,,,,1.234,1,,,,,,314,NW,UN,33,laston,SPRINE,z,,,,,,,-0.06640625,-0.388020833,0,0,0,,0,118,118,373,1,
,,,,,,,,,,,,,,,,,,5c0c90e7632102000147c3cc,2020-08-10_10h50.25.183,lexical_decision_task_MP,2020.1.3,Win32,60,m,0,0.875,,,,,,,,0.875,0,,,,,,289,NW,"ID",50,starby,STARBY,z,,,,,,,-0.06640625,-0.388020833,0,0,0,,0,119,119,348,1,
,,,,,,,,,,,,,,,,,,5c0c90e7632102000147c3cc,2020-08-10_10h50.25.183,lexical_decision_task_MP,2020.1.3,Win32,60,z,1,0.818,,,,,,,,0.818,1,,,,,,465,NW,"ID",33,whivex,WHIVEX,z,,,,,,,-0.06640625,-0.388020833,0,0,0,space,0,120,120,284,1,135.88
,,,,,,,,,,,,,,,,,,5c0c90e7632102000147c3cc,2020-08-10_10h50.25.183,lexical_decision_task_MP,2020.1.3,Win32,60,z,1,0.756,,,,,,,,0.756,1,,,,,,458,NW,"ID",33,barcet,BARCET,z,,,,,,,-0.06640625,-0.388020833,0,0,0,,0,121,121,277,1,
,,,,,,,,,,,,,,,,,,5c0c90e7632102000147c3cc,2020-08-10_10h50.25.183,lexical_decision_task_MP,2020.1.3,Win32,60,m,1,0.783,,,,,,,,0.783,1,,,,,,58,WORD,"ID",50,foster,FOSTER,m,,,,,,,-0.06640625,-0.388020833,0,0,0,,0,122,122,117,1,
,,,,,,,,,,,,,,,,,,5c0c90e7632102000147c3cc,2020-08-10_10h50.25.183,lexical_decision_task_MP,2020.1.3,Win32,60,,0,,,,,,,,,0.783,-1,,,,,,82,WORD,UN,33,result,STIGMA,m,,,,,,,-0.06640625,-0.388020833,0,0,0,,0,123,123,141,1,
,,,,,,,,,,,,,,,,,,5c0c90e7632102000147c3cc,2020-08-10_10h50.25.183,lexical_decision_task_MP,2020.1.3,Win32,60,m,1,0.871,,,,,,,,0.871,1,,,,,,40,WORD,"ID",50,convey,CONVEY,m,,,,,,,-0.06640625,-0.388020833,0,0,0,,0,124,124,99,1,
,,,,,,,,,,,,,,,,,,5c0c90e7632102000147c3cc,2020-08-10_10h50.25.183,lexical_decision_task_MP,2020.1.3,Win32,60,z,1,1.488,,,,,,,,1.488,1,,,,,,427,NW,"ID",33,schind,SCHIND,z,,,,,,,-0.06640625,-0.388020833,0,0,0,,0,125,125,246,1,
,,,,,,,,,,,,,,,,,,5c0c90e7632102000147c3cc,2020-08-10_10h50.25.183,lexical_decision_task_MP,2020.1.3,Win32,60,m,1,0.916,,,,,,,,0.916,1,,,,,,125,WORD,UN,50,enough,NICKEL,m,,,,,,,-0.06640625,-0.388020833,0,0,0,,0,126,126,184,1,
,,,,,,,,,,,,,,,,,,5c0c90e7632102000147c3cc,2020-08-10_10h50.25.183,lexical_decision_task_MP,2020.1.3,Win32,60,z,1,1.058,,,,,,,,1.058,1,,,,,,312,NW,UN,33,paurse,NERAWL,z,,,,,,,-0.06640625,-0.388020833,0,0,0,,0,127,127,371,1,
,,,,,,,,,,,,,,,,,,5c0c90e7632102000147c3cc,2020-08-10_10h50.25.183,lexical_decision_task_MP,2020.1.3,Win32,60,m,1,0.883,,,,,,,,0.883,1,,,,,,156,WORD,UN,50,depart,CRADLE,m,,,,,,,-0.06640625,-0.388020833,0,0,0,,0,128,128,215,1,
,,,,,,,,,,,,,,,,,,5c0c90e7632102000147c3cc,2020-08-10_10h50.25.183,lexical_decision_task_MP,2020.1.3,Win32,60,m,1,1.135,,,,,,,,1.135,1,,,,,,136,WORD,UN,50,finger,BLEACH,m,,,,,,,-0.06640625,-0.388020833,0,0,0,,0,129,129,195,1,
,,,,,,,,,,,,,,,,,,5c0c90e7632102000147c3cc,2020-08-10_10h50.25.183,lexical_decision_task_MP,2020.1.3,Win32,60,m,1,0.827,,,,,,,,0.827,1,,,,,,209,WORD,"ID",33,search,SEARCH,m,,,,,,,-0.06640625,-0.388020833,0,0,0,,0,130,130,28,1,
,,,,,,,,,,,,,,,,,,5c0c90e7632102000147c3cc,2020-08-10_10h50.25.183,lexical_decision_task_MP,2020.1.3,Win32,60,m,1,0.604,,,,,,,,0.604,1,,,,,,96,WORD,UN,33,client,IGNORE,m,,,,,,,-0.06640625,-0.388020833,0,0,0,,0,131,131,155,1,
,,,,,,,,,,,,,,,,,,5c0c90e7632102000147c3cc,2020-08-10_10h50.25.183,lexical_decision_task_MP,2020.1.3,Win32,60,z,1,1.033,,,,,,,,1.033,1,,,,,,358,NW,UN,33,fonver,FLEACK,z,,,,,,,-0.06640625,-0.388020833,0,0,0,,0,132,132,417,1,
,,,,,,,,,,,,,,,,,,5c0c90e7632102000147c3cc,2020-08-10_10h50.25.183,lexical_decision_task_MP,2020.1.3,Win32,60,m,1,0.653,,,,,,,,0.653,1,,,,,,149,WORD,UN,50,random,INVADE,m,,,,,,,-0.06640625,-0.388020833,0,0,0,,0,133,133,208,1,
,,,,,,,,,,,,,,,,,,5c0c90e7632102000147c3cc,2020-08-10_10h50.25.183,lexical_decision_task_MP,2020.1.3,Win32,60,m,1,0.684,,,,,,,,0.684,1,,,,,,224,WORD,"ID",33,period,PERIOD,m,,,,,,,-0.06640625,-0.388020833,0,0,0,,0,134,134,43,1,
,,,,,,,,,,,,,,,,,,5c0c90e7632102000147c3cc,2020-08-10_10h50.25.183,lexical_decision_task_MP,2020.1.3,Win32,60,m,1,0.733,,,,,,,,0.733,1,,,,,,186,WORD,"ID",33,portal,PORTAL,m,,,,,,,-0.06640625,-0.388020833,0,0,0,,0,135,135,5,1,
,,,,,,,,,,,,,,,,,,5c0c90e7632102000147c3cc,2020-08-10_10h50.25.183,lexical_decision_task_MP,2020.1.3,Win32,60,m,1,0.632,,,,,,,,0.632,1,,,,,,134,WORD,UN,50,import,STAPLE,m,,,,,,,-0.06640625,-0.388020833,0,0,0,,0,136,136,193,1,
,,,,,,,,,,,,,,,,,,5c0c90e7632102000147c3cc,2020-08-10_10h50.25.183,lexical_decision_task_MP,2020.1.3,Win32,60,z,1,0.759,,,,,,,,0.759,1,,,,,,298,NW,"ID",50,piergy,PIERGY,z,,,,,,,-0.06640625,-0.388020833,0,0,0,,0,137,137,357,1,
,,,,,,,,,,,,,,,,,,5c0c90e7632102000147c3cc,2020-08-10_10h50.25.183,lexical_decision_task_MP,2020.1.3,Win32,60,z,1,0.873,,,,,,,,0.873,1,,,,,,256,NW,"ID",50,inlors,INLORS,z,,,,,,,-0.06640625,-0.388020833,0,0,0,,0,138,138,315,1,
,,,,,,,,,,,,,,,,,,5c0c90e7632102000147c3cc,2020-08-10_10h50.25.183,lexical_decision_task_MP,2020.1.3,Win32,60,z,1,0.616,,,,,,,,0.616,1,,,,,,445,NW,"ID",33,minkel,MINKEL,z,,,,,,,-0.06640625,-0.388020833,0,0,0,,0,139,139,264,1,
,,,,,,,,,,,,,,,,,,5c0c90e7632102000147c3cc,2020-08-10_10h50.25.183,lexical_decision_task_MP,2020.1.3,Win32,60,z,1,0.683,,,,,,,,0.683,1,,,,,,271,NW,"ID",50,aubrid,AUBRID,z,,,,,,,-0.06640625,-0.388020833,0,0,0,,0,140,140,330,1,
,,,,,,,,,,,,,,,,,,5c0c90e7632102000147c3cc,2020-08-10_10h50.25.183,lexical_decision_task_MP,2020.1.3,Win32,60,z,1,0.791,,,,,,,,0.791,1,,,,,,325,NW,UN,33,iguade,THRUSE,z,,,,,,,-0.06640625,-0.388020833,0,0,0,,0,141,141,384,1,
,,,,,,,,,,,,,,,,,,5c0c90e7632102000147c3cc,2020-08-10_10h50.25.183,lexical_decision_task_MP,2020.1.3,Win32,60,m,1,0.584,,,,,,,,0.584,1,,,,,,53,WORD,"ID",50,police,POLICE,m,,,,,,,-0.06640625,-0.388020833,0,0,0,,0,142,142,112,1,
,,,,,,,,,,,,,,,,,,5c0c90e7632102000147c3cc,2020-08-10_10h50.25.183,lexical_decision_task_MP,2020.1.3,Win32,60,z,1,0.683,,,,,,,,0.683,1,,,,,,374,NW,UN,50,yorque,SLIANT,z,,,,,,,-0.06640625,-0.388020833,0,0,0,,0,143,143,433,1,
,,,,,,,,,,,,,,,,,,5c0c90e7632102000147c3cc,2020-08-10_10h50.25.183,lexical_decision_task_MP,2020.1.3,Win32,60,m,1,0.784,,,,,,,,0.784,1,,,,,,111,WORD,UN,33,breath,INDUCE,m,,,,,,,-0.06640625,-0.388020833,0,0,0,,0,144,144,170,1,
,,,,,,,,,,,,,,,,,,5c0c90e7632102000147c3cc,2020-08-10_10h50.25.183,lexical_decision_task_MP,2020.1.3,Win32,60,m,1,0.667,,,,,,,,0.667,1,,,,,,198,WORD,"ID",33,wicked,WICKED,m,,,,,,,-0.06640625,-0.388020833,0,0,0,,0,145,145,17,1,
,,,,,,,,,,,,,,,,,,5c0c90e7632102000147c3cc,2020-08-10_10h50.25.183,lexical_decision_task_MP,2020.1.3,Win32,60,m,1,0.601,,,,,,,,0.601,1,,,,,,10,WORD,"ID",50,ethnic,ETHNIC,m,,,,,,,-0.06640625,-0.388020833,0,0,0,,0,146,146,69,1,
,,,,,,,,,,,,,,,,,,5c0c90e7632102000147c3cc,2020-08-10_10h50.25.183,lexical_decision_task_MP,2020.1.3,Win32,60,m,1,0.842,,,,,,,,0.842,1,,,,,,220,WORD,"ID",33,voyage,VOYAGE,m,,,,,,,-0.06640625,-0.388020833,0,0,0,,0,147,147,39,1,
,,,,,,,,,,,,,,,,,,5c0c90e7632102000147c3cc,2020-08-10_10h50.25.183,lexical_decision_task_MP,2020.1.3,Win32,60,m,0,0.582,,,,,,,,0.582,0,,,,,,365,NW,UN,50,toshel,GUAIRT,z,,,,,,,-0.06640625,-0.388020833,0,0,0,,0,148,148,424,1,
,,,,,,,,,,,,,,,,,,5c0c90e7632102000147c3cc,2020-08-10_10h50.25.183,lexical_decision_task_MP,2020.1.3,Win32,60,z,1,0.941,,,,,,,,0.941,1,,,,,,338,NW,UN,33,fachow,WREASH,z,,,,,,,-0.06640625,-0.388020833,0,0,0,,0,149,149,397,1,
,,,,,,,,,,,,,,,,,,5c0c90e7632102000147c3cc,2020-08-10_10h50.25.183,lexical_decision_task_MP,2020.1.3,Win32,60,m,1,1.065,,,,,,,,1.065,1,,,,,,26,WORD,"ID",50,sprint,SPRINT,m,,,,,,,-0.06640625,-0.388020833,0,0,0,,0,150,150,85,1,
,,,,,,,,,,,,,,,,,,5c0c90e7632102000147c3cc,2020-08-10_10h50.25.183,lexical_decision_task_MP,2020.1.3,Win32,60,m,1,1.119,,,,,,,,1.119,1,,,,,,142,WORD,UN,50,reason,SPRUCE,m,,,,,,,-0.06640625,-0.388020833,0,0,0,,0,151,151,201,1,
,,,,,,,,,,,,,,,,,,5c0c90e7632102000147c3cc,2020-08-10_10h50.25.183,lexical_decision_task_MP,2020.1.3,Win32,60,m,1,1.004,,,,,,,,1.004,1,,,,,,184,WORD,"ID",33,sleazy,SLEAZY,m,,,,,,,-0.06640625,-0.388020833,0,0,0,,0,152,152,3,1,
,,,,,,,,,,,,,,,,,,5c0c90e7632102000147c3cc,2020-08-10_10h50.25.183,lexical_decision_task_MP,2020.1.3,Win32,60,m,1,0.676,,,,,,,,0.676,1,,,,,,55,WORD,"ID",50,stroke,STROKE,m,,,,,,,-0.06640625,-0.388020833,0,0,0,,0,153,153,114,1,
,,,,,,,,,,,,,,,,,,5c0c90e7632102000147c3cc,2020-08-10_10h50.25.183,lexical_decision_task_MP,2020.1.3,Win32,60,z,1,0.882,,,,,,,,0.882,1,,,,,,347,NW,UN,33,dumple,KERIFT,z,,,,,,,-0.06640625,-0.388020833,0,0,0,,0,154,154,406,1,
,,,,,,,,,,,,,,,,,,5c0c90e7632102000147c3cc,2020-08-10_10h50.25.183,lexical_decision_task_MP,2020.1.3,Win32,60,m,1,1.106,,,,,,,,1.106,1,,,,,,135,WORD,UN,50,bleach,IMPORT,m,,,,,,,-0.06640625,-0.388020833,0,0,0,,0,155,155,194,1,
,,,,,,,,,,,,,,,,,,5c0c90e7632102000147c3cc,2020-08-10_10h50.25.183,lexical_decision_task_MP,2020.1.3,Win32,60,m,1,0.883,,,,,,,,0.883,1,,,,,,216,WORD,"ID",33,behalf,BEHALF,m,,,,,,,-0.06640625,-0.388020833,0,0,0,,0,156,156,35,1,
,,,,,,,,,,,,,,,,,,5c0c90e7632102000147c3cc,2020-08-10_10h50.25.183,lexical_decision_task_MP,2020.1.3,Win32,60,m,1,0.622,,,,,,,,0.622,1,,,,,,202,WORD,"ID",33,factor,FACTOR,m,,,,,,,-0.06640625,-0.388020833,0,0,0,,0,157,157,21,1,
,,,,,,,,,,,,,,,,,,5c0c90e7632102000147c3cc,2020-08-10_10h50.25.183,lexical_decision_task_MP,2020.1.3,Win32,60,z,1,0.885,,,,,,,,0.885,1,,,,,,398,NW,UN,50,fouret,BLUNDE,z,,,,,,,-0.06640625,-0.388020833,0,0,0,,0,158,158,457,1,
,,,,,,,,,,,,,,,,,,5c0c90e7632102000147c3cc,2020-08-10_10h50.25.183,lexical_decision_task_MP,2020.1.3,Win32,60,z,1,1.292,,,,,,,,1.292,1,,,,,,299,NW,"ID",50,sturch,STURCH,z,,,,,,,-0.06640625,-0.388020833,0,0,0,,0,159,159,358,1,
,,,,,,,,,,,,,,,,,,5c0c90e7632102000147c3cc,2020-08-10_10h50.25.183,lexical_decision_task_MP,2020.1.3,Win32,60,m,1,0.656,,,,,,,,0.656,1,,,,,,23,WORD,"ID",50,wealth,WEALTH,m,,,,,,,-0.06640625,-0.388020833,0,0,0,,0,160,160,82,1,
,,,,,,,,,,,,,,,,,,5c0c90e7632102000147c3cc,2020-08-10_10h50.25.183,lexical_decision_task_MP,2020.1.3,Win32,60,m,1,0.784,,,,,,,,0.784,1,,,,,,169,WORD,UN,50,pounce,GENIUS,m,,,,,,,-0.06640625,-0.388020833,0,0,0,,0,161,161,228,1,
,,,,,,,,,,,,,,,,,,5c0c90e7632102000147c3cc,2020-08-10_10h50.25.183,lexical_decision_task_MP,2020.1.3,Win32,60,z,1,0.873,,,,,,,,0.873,1,,,,,,368,NW,UN,50,wronch,HORNAL,z,,,,,,,-0.06640625,-0.388020833,0,0,0,,0,162,162,427,1,
,,,,,,,,,,,,,,,,,,5c0c90e7632102000147c3cc,2020-08-10_10h50.25.183,lexical_decision_task_MP,2020.1.3,Win32,60,z,1,0.866,,,,,,,,0.866,1,,,,,,344,NW,UN,33,absend,SCRILY,z,,,,,,,-0.06640625,-0.388020833,0,0,0,,0,163,163,403,1,
,,,,,,,,,,,,,,,,,,5c0c90e7632102000147c3cc,2020-08-10_10h50.25.183,lexical_decision_task_MP,2020.1.3,Win32,60,m,1,0.639,,,,,,,,0.639,1,,,,,,62,WORD,UN,33,launch,REGION,m,,,,,,,-0.06640625,-0.388020833,0,0,0,,0,164,164,121,1,
,,,,,,,,,,,,,,,,,,5c0c90e7632102000147c3cc,2020-08-10_10h50.25.183,lexical_decision_task_MP,2020.1.3,Win32,60,z,1,1.007,,,,,,,,1.007,1,,,,,,269,NW,"ID",50,orchet,ORCHET,z,,,,,,,-0.06640625,-0.388020833,0,0,0,,0,165,165,328,1,
,,,,,,,,,,,,,,,,,,5c0c90e7632102000147c3cc,2020-08-10_10h50.25.183,lexical_decision_task_MP,2020.1.3,Win32,60,z,0,0.818,,,,,,,,0.818,0,,,,,,114,WORD,UN,33,guitar,PLACID,m,,,,,,,-0.06640625,-0.388020833,0,0,0,,0,166,166,173,1,
,,,,,,,,,,,,,,,,,,5c0c90e7632102000147c3cc,2020-08-10_10h50.25.183,lexical_decision_task_MP,2020.1.3,Win32,60,z,1,1.225,,,,,,,,1.225,1,,,,,,366,NW,UN,50,slique,TOSHEL,z,,,,,,,-0.06640625,-0.388020833,0,0,0,,0,167,167,425,1,
,,,,,,,,,,,,,,,,,,5c0c90e7632102000147c3cc,2020-08-10_10h50.25.183,lexical_decision_task_MP,2020.1.3,Win32,60,z,1,0.787,,,,,,,,0.787,1,,,,,,442,NW,"ID",33,aboune,ABOUNE,z,,,,,,,-0.06640625,-0.388020833,0,0,0,,0,168,168,261,1,
,,,,,,,,,,,,,,,,,,5c0c90e7632102000147c3cc,2020-08-10_10h50.25.183,lexical_decision_task_MP,2020.1.3,Win32,60,z,1,0.693,,,,,,,,0.693,1,,,,,,339,NW,UN,33,fiatch,FACHOW,z,,,,,,,-0.06640625,-0.388020833,0,0,0,,0,169,169,398,1,
,,,,,,,,,,,,,,,,,,5c0c90e7632102000147c3cc,2020-08-10_10h50.25.183,lexical_decision_task_MP,2020.1.3,Win32,60,z,1,0.634,,,,,,,,0.634,1,,,,,,419,NW,UN,50,gushop,SLOUNT,z,,,,,,,-0.06640625,-0.388020833,0,0,0,,0,170,170,478,1,
,,,,,,,,,,,,,,,,,,5c0c90e7632102000147c3cc,2020-08-10_10h50.25.183,lexical_decision_task_MP,2020.1.3,Win32,60,m,1,0.748,,,,,,,,0.748,1,,,,,,88,WORD,UN,33,permit,HUNGER,m,,,,,,,-0.06640625,-0.388020833,0,0,0,,0,171,171,147,1,
,,,,,,,,,,,,,,,,,,5c0c90e7632102000147c3cc,2020-08-10_10h50.25.183,lexical_decision_task_MP,2020.1.3,Win32,60,m,1,0.854,,,,,,,,0.854,1,,,,,,171,WORD,UN,50,patrol,DEPART,m,,,,,,,-0.06640625,-0.388020833,0,0,0,,0,172,172,230,1,
,,,,,,,,,,,,,,,,,,5c0c90e7632102000147c3cc,2020-08-10_10h50.25.183,lexical_decision_task_MP,2020.1.3,Win32,60,m,1,0.638,,,,,,,,0.638,1,,,,,,79,WORD,UN,33,family,THEORY,m,,,,,,,-0.06640625,-0.388020833,0,0,0,,0,173,173,138,1,
,,,,,,,,,,,,,,,,,,5c0c90e7632102000147c3cc,2020-08-10_10h50.25.183,lexical_decision_task_MP,2020.1.3,Win32,60,m,1,0.558,,,,,,,,0.558,1,,,,,,15,WORD,"ID",50,amount,AMOUNT,m,,,,,,,-0.06640625,-0.388020833,0,0,0,,0,174,174,74,1,
,,,,,,,,,,,,,,,,,,5c0c90e7632102000147c3cc,2020-08-10_10h50.25.183,lexical_decision_task_MP,2020.1.3,Win32,60,m,0,0.633,,,,,,,,0.633,0,,,,,,303,NW,UN,33,cludie,FIREAM,z,,,,,,,-0.06640625,-0.388020833,0,0,0,,0,175,175,362,1,
,,,,,,,,,,,,,,,,,,5c0c90e7632102000147c3cc,2020-08-10_10h50.25.183,lexical_decision_task_MP,2020.1.3,Win32,60,z,1,1.849,,,,,,,,1.849,1,,,,,,412,NW,UN,50,equats,JILUER,z,,,,,,,-0.06640625,-0.388020833,0,0,0,,0,176,176,471,1,
,,,,,,,,,,,,,,,,,,5c0c90e7632102000147c3cc,2020-08-10_10h50.25.183,lexical_decision_task_MP,2020.1.3,Win32,60,m,1,0.832,,,,,,,,0.832,1,,,,,,127,WORD,UN,50,senior,CASTLE,m,,,,,,,-0.06640625,-0.388020833,0,0,0,,0,177,177,186,1,
,,,,,,,,,,,,,,,,,,5c0c90e7632102000147c3cc,2020-08-10_10h50.25.183,lexical_decision_task_MP,2020.1.3,Win32,60,m,1,1.039,,,,,,,,1.039,1,,,,,,193,WORD,"ID",33,object,OBJECT,m,,,,,,,-0.06640625,-0.388020833,0,0,0,,0,178,178,12,1,
,,,,,,,,,,,,,,,,,,5c0c90e7632102000147c3cc,2020-08-10_10h50.25.183,lexical_decision_task_MP,2020.1.3,Win32,60,z,1,1.316,,,,,,,,1.316,1,,,,,,248,NW,"ID",50,strole,STROLE,z,,,,,,,-0.06640625,-0.388020833,0,0,0,,0,179,179,307,1,
,,,,,,,,,,,,,,,,,,5c0c90e7632102000147c3cc,2020-08-10_10h50.25.183,lexical_decision_task_MP,2020.1.3,Win32,60,z,1,0.884,,,,,,,,0.884,1,,,,,,408,NW,UN,50,elopia,HURNIA,z,,,,,,,-0.06640625,-0.388020833,0,0,0,,0,180,180,467,1,
,,,,,,,,,,,,,,,,,,5c0c90e7632102000147c3cc,2020-08-10_10h50.25.183,lexical_decision_task_MP,2020.1.3,Win32,60,z,1,0.683,,,,,,,,0.683,1,,,,,,395,NW,UN,50,flengy,COLURY,z,,,,,,,-0.06640625,-0.388020833,0,0,0,,0,181,181,454,1,
,,,,,,,,,,,,,,,,,,5c0c90e7632102000147c3cc,2020-08-10_10h50.25.183,lexical_decision_task_MP,2020.1.3,Win32,60,z,1,0.833,,,,,,,,0.833,1,,,,,,385,NW,UN,50,ancust,VEIGMA,z,,,,,,,-0.06640625,-0.388020833,0,0,0,,0,182,182,444,1,
,,,,,,,,,,,,,,,,,,5c0c90e7632102000147c3cc,2020-08-10_10h50.25.183,lexical_decision_task_MP,2020.1.3,Win32,60,m,1,0.8,,,,,,,,0.8,1,,,,,,84,WORD,UN,33,strand,MORTAL,m,,,,,,,-0.06640625,-0.388020833,0,0,0,,0,183,183,143,1,
,,,,,,,,,,,,,,,,,,5c0c90e7632102000147c3cc,2020-08-10_10h50.25.183,lexical_decision_task_MP,2020.1.3,Win32,60,m,1,0.616,,,,,,,,0.616,1,,,,,,116,WORD,UN,33,branch,TUMBLE,m,,,,,,,-0.06640625,-0.388020833,0,0,0,,0,184,184,175,1,
,,,,,,,,,,,,,,,,,,5c0c90e7632102000147c3cc,2020-08-10_10h50.25.183,lexical_decision_task_MP,2020.1.3,Win32,60,z,1,0.778,,,,,,,,0.778,1,,,,,,388,NW,UN,50,witmer,CRAGIN,z,,,,,,,-0.06640625,-0.388020833,0,0,0,,0,185,185,447,1,
,,,,,,,,,,,,,,,,,,5c0c90e7632102000147c3cc,2020-08-10_10h50.25.183,lexical_decision_task_MP,2020.1.3,Win32,60,m,1,0.599,,,,,,,,0.599,1,,,,,,42,WORD,"ID",50,chapel,CHAPEL,m,,,,,,,-0.06640625,-0.388020833,0,0,0,,0,186,186,101,1,
,,,,,,,,,,,,,,,,,,5c0c90e7632102000147c3cc,2020-08-10_10h50.25.183,lexical_decision_task_MP,2020.1.3,Win32,60,m,1,0.588,,,,,,,,0.588,1,,,,,,11,WORD,"ID",50,cruise,CRUISE,m,,,,,,,-0.06640625,-0.388020833,0,0,0,,0,187,187,70,1,
,,,,,,,,,,,,,,,,,,5c0c90e7632102000147c3cc,2020-08-10_10h50.25.183,lexical_decision_task_MP,2020.1.3,Win32,60,z,1,0.694,,,,,,,,0.694,1,,,,,,276,NW,"ID",50,yarmon,YARMON,z,,,,,,,-0.06640625,-0.388020833,0,0,0,,0,188,188,335,1,
,,,,,,,,,,,,,,,,,,5c0c90e7632102000147c3cc,2020-08-10_10h50.25.183,lexical_decision_task_MP,2020.1.3,Win32,60,m,1,0.876,,,,,,,,0.876,1,,,,,,24,WORD,"ID",50,praise,PRAISE,m,,,,,,,-0.06640625,-0.388020833,0,0,0,,0,189,189,83,1,
,,,,,,,,,,,,,,,,,,5c0c90e7632102000147c3cc,2020-08-10_10h50.25.183,lexical_decision_task_MP,2020.1.3,Win32,60,z,1,0.674,,,,,,,,0.674,1,,,,,,331,NW,UN,33,vangue,GILFEW,z,,,,,,,-0.06640625,-0.388020833,0,0,0,,0,190,190,390,1,
,,,,,,,,,,,,,,,,,,5c0c90e7632102000147c3cc,2020-08-10_10h50.25.183,lexical_decision_task_MP,2020.1.3,Win32,60,z,1,0.915,,,,,,,,0.915,1,,,,,,270,NW,"ID",50,wrimsy,WRIMSY,z,,,,,,,-0.06640625,-0.388020833,0,0,0,,0,191,191,329,1,
,,,,,,,,,,,,,,,,,,5c0c90e7632102000147c3cc,2020-08-10_10h50.25.183,lexical_decision_task_MP,2020.1.3,Win32,60,m,1,0.702,,,,,,,,0.702,1,,,,,,218,WORD,"ID",33,shrink,SHRINK,m,,,,,,,-0.06640625,-0.388020833,0,0,0,,0,192,192,37,1,
,,,,,,,,,,,,,,,,,,5c0c90e7632102000147c3cc,2020-08-10_10h50.25.183,lexical_decision_task_MP,2020.1.3,Win32,60,z,1,0.783,,,,,,,,0.783,1,,,,,,413,NW,UN,50,serbol,EQUATS,z,,,,,,,-0.06640625,-0.388020833,0,0,0,,0,193,193,472,1,
,,,,,,,,,,,,,,,,,,5c0c90e7632102000147c3cc,2020-08-10_10h50.25.183,lexical_decision_task_MP,2020.1.3,Win32,60,m,1,1.005,,,,,,,,1.005,1,,,,,,237,WORD,"ID",33,poster,POSTER,m,,,,,,,-0.06640625,-0.388020833,0,0,0,,0,194,194,56,1,
,,,,,,,,,,,,,,,,,,5c0c90e7632102000147c3cc,2020-08-10_10h50.25.183,lexical_decision_task_MP,2020.1.3,Win32,60,z,1,0.837,,,,,,,,0.837,1,,,,,,360,NW,UN,33,fainch,DESORY,z,,,,,,,-0.06640625,-0.388020833,0,0,0,,0,195,195,419,1,
,,,,,,,,,,,,,,,,,,5c0c90e7632102000147c3cc,2020-08-10_10h50.25.183,lexical_decision_task_MP,2020.1.3,Win32,60,z,1,1.087,,,,,,,,1.087,1,,,,,,245,NW,"ID",50,anougs,ANOUGS,z,,,,,,,-0.06640625,-0.388020833,0,0,0,,0,196,196,304,1,
,,,,,,,,,,,,,,,,,,5c0c90e7632102000147c3cc,2020-08-10_10h50.25.183,lexical_decision_task_MP,2020.1.3,Win32,60,z,1,0.756,,,,,,,,0.756,1,,,,,,379,NW,UN,50,cavory,AUTING,z,,,,,,,-0.06640625,-0.388020833,0,0,0,,0,197,197,438,1,
,,,,,,,,,,,,,,,,,,5c0c90e7632102000147c3cc,2020-08-10_10h50.25.183,lexical_decision_task_MP,2020.1.3,Win32,60,m,1,0.744,,,,,,,,0.744,1,,,,,,227,WORD,"ID",33,seldom,SELDOM,m,,,,,,,-0.06640625,-0.388020833,0,0,0,,0,198,198,46,1,
,,,,,,,,,,,,,,,,,,5c0c90e7632102000147c3cc,2020-08-10_10h50.25.183,lexical_decision_task_MP,2020.1.3,Win32,60,z,1,0.75,,,,,,,,0.75,1,,,,,,414,NW,UN,50,higsta,SERBOL,z,,,,,,,-0.06640625,-0.388020833,0,0,0,,0,199,199,473,1,
,,,,,,,,,,,,,,,,,,5c0c90e7632102000147c3cc,2020-08-10_10h50.25.183,lexical_decision_task_MP,2020.1.3,Win32,60,,0,,,,,,,,,0.75,-1,,,,,,382,NW,UN,50,aungre,SARLEY,z,,,,,,,-0.06640625,-0.388020833,0,0,0,,0,200,200,441,1,
,,,,,,,,,,,,,,,,,,5c0c90e7632102000147c3cc,2020-08-10_10h50.25.183,lexical_decision_task_MP,2020.1.3,Win32,60,z,1,0.085,,,,,,,,0.085,1,,,,,,287,NW,"ID",50,nymbel,NYMBEL,z,,,,,,,-0.06640625,-0.388020833,0,0,0,,0,201,201,346,1,
,,,,,,,,,,,,,,,,,,5c0c90e7632102000147c3cc,2020-08-10_10h50.25.183,lexical_decision_task_MP,2020.1.3,Win32,60,m,1,1.109,,,,,,,,1.109,1,,,,,,234,WORD,"ID",33,clumsy,CLUMSY,m,,,,,,,-0.06640625,-0.388020833,0,0,0,,0,202,202,53,1,
,,,,,,,,,,,,,,,,,,5c0c90e7632102000147c3cc,2020-08-10_10h50.25.183,lexical_decision_task_MP,2020.1.3,Win32,60,m,1,1.289,,,,,,,,1.289,1,,,,,,98,WORD,UN,33,fluent,BELONG,m,,,,,,,-0.06640625,-0.388020833,0,0,0,,0,203,203,157,1,
,,,,,,,,,,,,,,,,,,5c0c90e7632102000147c3cc,2020-08-10_10h50.25.183,lexical_decision_task_MP,2020.1.3,Win32,60,z,1,1.776,,,,,,,,1.776,1,,,,,,433,NW,"ID",33,drance,DRANCE,z,,,,,,,-0.06640625,-0.388020833,0,0,0,,0,204,204,252,1,
,,,,,,,,,,,,,,,,,,5c0c90e7632102000147c3cc,2020-08-10_10h50.25.183,lexical_decision_task_MP,2020.1.3,Win32,60,m,0,0.716,,,,,,,,0.716,0,,,,,,337,NW,UN,33,wreash,REJOLS,z,,,,,,,-0.06640625,-0.388020833,0,0,0,,0,205,205,396,1,
,,,,,,,,,,,,,,,,,,5c0c90e7632102000147c3cc,2020-08-10_10h50.25.183,lexical_decision_task_MP,2020.1.3,Win32,60,m,1,1.866,,,,,,,,1.866,1,,,,,,30,WORD,"ID",50,orient,ORIENT,m,,,,,,,-0.06640625,-0.388020833,0,0,0,,0,206,206,89,1,
,,,,,,,,,,,,,,,,,,5c0c90e7632102000147c3cc,2020-08-10_10h50.25.183,lexical_decision_task_MP,2020.1.3,Win32,60,m,1,0.822,,,,,,,,0.822,1,,,,,,240,WORD,"ID",33,forest,FOREST,m,,,,,,,-0.06640625,-0.388020833,0,0,0,,0,207,207,59,1,
,,,,,,,,,,,,,,,,,,5c0c90e7632102000147c3cc,2020-08-10_10h50.25.183,lexical_decision_task_MP,2020.1.3,Win32,60,z,1,1.266,,,,,,,,1.266,1,,,,,,363,NW,UN,50,impote,BREALI,z,,,,,,,-0.06640625,-0.388020833,0,0,0,,0,208,208,422,1,
,,,,,,,,,,,,,,,,,,5c0c90e7632102000147c3cc,2020-08-10_10h50.25.183,lexical_decision_task_MP,2020.1.3,Win32,60,m,0,0.868,,,,,,,,0.868,0,,,,,,378,NW,UN,50,auting,SHRILE,z,,,,,,,-0.06640625,-0.388020833,0,0,0,,0,209,209,437,1,
,,,,,,,,,,,,,,,,,,5c0c90e7632102000147c3cc,2020-08-10_10h50.25.183,lexical_decision_task_MP,2020.1.3,Win32,60,z,1,1.252,,,,,,,,1.252,1,,,,,,315,NW,UN,33,scregm,LASTON,z,,,,,,,-0.06640625,-0.388020833,0,0,0,,0,210,210,374,1,
,,,,,,,,,,,,,,,,,,5c0c90e7632102000147c3cc,2020-08-10_10h50.25.183,lexical_decision_task_MP,2020.1.3,Win32,60,,0,,,,,,,,,1.252,-1,,,,,,330,NW,UN,33,gilfew,KENSOM,z,,,,,,,-0.06640625,-0.388020833,0,0,0,,0,211,211,389,1,
,,,,,,,,,,,,,,,,,,5c0c90e7632102000147c3cc,2020-08-10_10h50.25.183,lexical_decision_task_MP,2020.1.3,Win32,60,z,0,1.091,,,,,,,,1.091,0,,,,,,66,WORD,UN,33,policy,GOSPEL,m,,,,,,,-0.06640625,-0.388020833,0,0,0,,0,212,212,125,1,
,,,,,,,,,,,,,,,,,,5c0c90e7632102000147c3cc,2020-08-10_10h50.25.183,lexical_decision_task_MP,2020.1.3,Win32,60,z,1,0.76,,,,,,,,0.76,1,,,,,,292,NW,"ID",50,ablint,ABLINT,z,,,,,,,-0.06640625,-0.388020833,0,0,0,,0,213,213,351,1,
,,,,,,,,,,,,,,,,,,5c0c90e7632102000147c3cc,2020-08-10_10h50.25.183,lexical_decision_task_MP,2020.1.3,Win32,60,z,0,0.183,,,,,,,,0.183,0,,,,,,189,WORD,"ID",33,censor,CENSOR,m,,,,,,,-0.06640625,-0.388020833,0,0,0,,0,214,214,8,1,
,,,,,,,,,,,,,,,,,,5c0c90e7632102000147c3cc,2020-08-10_10h50.25.183,lexical_decision_task_MP,2020.1.3,Win32,60,m,1,0.166,,,,,,,,0.166,1,,,,,,39,WORD,"ID",50,insect,INSECT,m,,,,,,,-0.06640625,-0.388020833,0,0,0,,0,215,215,98,1,
,,,,,,,,,,,,,,,,,,5c0c90e7632102000147c3cc,2020-08-10_10h50.25.183,lexical_decision_task_MP,2020.1.3,Win32,60,,0,,,,,,,,,0.166,-1,,,,,,259,NW,"ID",50,soudal,SOUDAL,z,,,,,,,-0.06640625,-0.388020833,0,0,0,,0,216,216,318,1,
,,,,,,,,,,,,,,,,,,5c0c90e7632102000147c3cc,2020-08-10_10h50.25.183,lexical_decision_task_MP,2020.1.3,Win32,60,z,0,0.886,,,,,,,,0.886,0,,,,,,140,WORD,UN,50,chrome,PRINCE,m,,,,,,,-0.06640625,-0.388020833,0,0,0,,0,217,217,199,1,
,,,,,,,,,,,,,,,,,,5c0c90e7632102000147c3cc,2020-08-10_10h50.25.183,lexical_decision_task_MP,2020.1.3,Win32,60,m,0,0.733,,,,,,,,0.733,0,,,,,,438,NW,"ID",33,baitch,BAITCH,z,,,,,,,-0.06640625,-0.388020833,0,0,0,,0,218,218,257,1,
,,,,,,,,,,,,,,,,,,5c0c90e7632102000147c3cc,2020-08-10_10h50.25.183,lexical_decision_task_MP,2020.1.3,Win32,60,z,1,1.936,,,,,,,,1.936,1,,,,,,400,NW,UN,50,mustil,WEAROX,z,,,,,,,-0.06640625,-0.388020833,0,0,0,,0,219,219,459,1,
,,,,,,,,,,,,,,,,,,5c0c90e7632102000147c3cc,2020-08-10_10h50.25.183,lexical_decision_task_MP,2020.1.3,Win32,60,z,1,0.573,,,,,,,,0.573,1,,,,,,333,NW,UN,33,watmeg,CATRIE,z,,,,,,,-0.06640625,-0.388020833,0,0,0,,0,220,220,392,1,
,,,,,,,,,,,,,,,,,,5c0c90e7632102000147c3cc,2020-08-10_10h50.25.183,lexical_decision_task_MP,2020.1.3,Win32,60,z,1,1.831,,,,,,,,1.831,1,,,,,,324,NW,UN,33,thruse,STEIKH,z,,,,,,,-0.06640625,-0.388020833,0,0,0,,0,221,221,383,1,
,,,,,,,,,,,,,,,,,,5c0c90e7632102000147c3cc,2020-08-10_10h50.25.183,lexical_decision_task_MP,2020.1.3,Win32,60,z,1,0.56,,,,,,,,0.56,1,,,,,,273,NW,"ID",50,sortel,SORTEL,z,,,,,,,-0.06640625,-0.388020833,0,0,0,,0,222,222,332,1,
,,,,,,,,,,,,,,,,,,5c0c90e7632102000147c3cc,2020-08-10_10h50.25.183,lexical_decision_task_MP,2020.1.3,Win32,60,z,1,0.627,,,,,,,,0.627,1,,,,,,255,NW,"ID",50,apight,APIGHT,z,,,,,,,-0.06640625,-0.388020833,0,0,0,,0,223,223,314,1,
,,,,,,,,,,,,,,,,,,5c0c90e7632102000147c3cc,2020-08-10_10h50.25.183,lexical_decision_task_MP,2020.1.3,Win32,60,z,1,0.55,,,,,,,,0.55,1,,,,,,450,NW,"ID",33,phrect,PHRECT,z,,,,,,,-0.06640625,-0.388020833,0,0,0,,0,224,224,269,1,
,,,,,,,,,,,,,,,,,,5c0c90e7632102000147c3cc,2020-08-10_10h50.25.183,lexical_decision_task_MP,2020.1.3,Win32,60,z,1,0.552,,,,,,,,0.552,1,,,,,,430,NW,"ID",33,caroey,CAROEY,z,,,,,,,-0.06640625,-0.388020833,0,0,0,,0,225,225,249,1,
,,,,,,,,,,,,,,,,,,5c0c90e7632102000147c3cc,2020-08-10_10h50.25.183,lexical_decision_task_MP,2020.1.3,Win32,60,m,1,0.787,,,,,,,,0.787,1,,,,,,118,WORD,UN,33,spider,FLIGHT,m,,,,,,,-0.06640625,-0.388020833,0,0,0,,0,226,226,177,1,
,,,,,,,,,,,,,,,,,,5c0c90e7632102000147c3cc,2020-08-10_10h50.25.183,lexical_decision_task_MP,2020.1.3,Win32,60,z,1,0.95,,,,,,,,0.95,1,,,,,,357,NW,UN,33,fleack,DERAIN,z,,,,,,,-0.06640625,-0.388020833,0,0,0,,0,227,227,416,1,
,,,,,,,,,,,,,,,,,,5c0c90e7632102000147c3cc,2020-08-10_10h50.25.183,lexical_decision_task_MP,2020.1.3,Win32,60,z,1,0.601,,,,,,,,0.601,1,,,,,,476,NW,"ID",33,josted,JOSTED,z,,,,,,,-0.06640625,-0.388020833,0,0,0,,0,228,228,295,1,
,,,,,,,,,,,,,,,,,,5c0c90e7632102000147c3cc,2020-08-10_10h50.25.183,lexical_decision_task_MP,2020.1.3,Win32,60,z,1,0.602,,,,,,,,0.602,1,,,,,,267,NW,"ID",50,pasink,PASINK,z,,,,,,,-0.06640625,-0.388020833,0,0,0,,0,229,229,326,1,
,,,,,,,,,,,,,,,,,,5c0c90e7632102000147c3cc,2020-08-10_10h50.25.183,lexical_decision_task_MP,2020.1.3,Win32,60,z,1,0.766,,,,,,,,0.766,1,,,,,,397,NW,UN,50,blunde,CAMBLE,z,,,,,,,-0.06640625,-0.388020833,0,0,0,,0,230,230,456,1,
,,,,,,,,,,,,,,,,,,5c0c90e7632102000147c3cc,2020-08-10_10h50.25.183,lexical_decision_task_MP,2020.1.3,Win32,60,z,1,0.653,,,,,,,,0.653,1,,,,,,272,NW,"ID",50,damilt,DAMILT,z,,,,,,,-0.06640625,-0.388020833,0,0,0,,0,231,231,331,1,
,,,,,,,,,,,,,,,,,,5c0c90e7632102000147c3cc,2020-08-10_10h50.25.183,lexical_decision_task_MP,2020.1.3,Win32,60,z,1,0.767,,,,,,,,0.767,1,,,,,,332,NW,UN,33,catrie,VANGUE,z,,,,,,,-0.06640625,-0.388020833,0,0,0,,0,232,232,391,1,
,,,,,,,,,,,,,,,,,,5c0c90e7632102000147c3cc,2020-08-10_10h50.25.183,lexical_decision_task_MP,2020.1.3,Win32,60,z,1,0.638,,,,,,,,0.638,1,,,,,,281,NW,"ID",50,melaty,MELATY,z,,,,,,,-0.06640625,-0.388020833,0,0,0,,0,233,233,340,1,
,,,,,,,,,,,,,,,,,,5c0c90e7632102000147c3cc,2020-08-10_10h50.25.183,lexical_decision_task_MP,2020.1.3,Win32,60,z,0,0.823,,,,,,,,0.823,0,,,,,,213,WORD,"ID",33,squeal,SQUEAL,m,,,,,,,-0.06640625,-0.388020833,0,0,0,,0,234,234,32,1,
,,,,,,,,,,,,,,,,,,5c0c90e7632102000147c3cc,2020-08-10_10h50.25.183,lexical_decision_task_MP,2020.1.3,Win32,60,m,1,0.738,,,,,,,,0.738,1,,,,,,106,WORD,UN,33,slogan,RANSOM,m,,,,,,,-0.06640625,-0.388020833,0,0,0,,0,235,235,165,1,
,,,,,,,,,,,,,,,,,,5c0c90e7632102000147c3cc,2020-08-10_10h50.25.183,lexical_decision_task_MP,2020.1.3,Win32,60,z,1,0.85,,,,,,,,0.85,1,,,,,,462,NW,"ID",33,absult,ABSULT,z,,,,,,,-0.06640625,-0.388020833,0,0,0,,0,236,236,281,1,
,,,,,,,,,,,,,,,,,,5c0c90e7632102000147c3cc,2020-08-10_10h50.25.183,lexical_decision_task_MP,2020.1.3,Win32,60,m,1,0.652,,,,,,,,0.652,1,,,,,,73,WORD,UN,33,plaque,SOURCE,m,,,,,,,-0.06640625,-0.388020833,0,0,0,,0,237,237,132,1,
,,,,,,,,,,,,,,,,,,5c0c90e7632102000147c3cc,2020-08-10_10h50.25.183,lexical_decision_task_MP,2020.1.3,Win32,60,z,1,1.349,,,,,,,,1.349,1,,,,,,471,NW,"ID",33,nobest,NOBEST,z,,,,,,,-0.06640625,-0.388020833,0,0,0,,0,238,238,290,1,
,,,,,,,,,,,,,,,,,,5c0c90e7632102000147c3cc,2020-08-10_10h50.25.183,lexical_decision_task_MP,2020.1.3,Win32,60,m,1,0.686,,,,,,,,0.686,1,,,,,,3,WORD,"ID",50,knight,KNIGHT,m,,,,,,,-0.06640625,-0.388020833,0,0,0,,0,239,239,62,1,
,,,,,,,,,,,,,,,,,,5c0c90e7632102000147c3cc,2020-08-10_10h50.25.183,lexical_decision_task_MP,2020.1.3,Win32,60,z,1,0.701,,,,,,,,0.701,1,,,,,,404,NW,UN,50,flumni,CLUIRM,z,,,,,,,-0.06640625,-0.388020833,0,0,0,,0,240,240,463,1,
,,,,,,,,,,,,,,,,,,5c0c90e7632102000147c3cc,2020-08-10_10h50.25.183,lexical_decision_task_MP,2020.1.3,Win32,60,z,1,0.705,,,,,,,,0.705,1,,,,,,473,NW,"ID",33,crible,CRIBLE,z,,,,,,,0.125,-0.361979167,0,0,0,space,0,241,241,292,1,71.368
,,,,,,,,,,,,,,,,,,5c0c90e7632102000147c3cc,2020-08-10_10h50.25.183,lexical_decision_task_MP,2020.1.3,Win32,60,z,1,0.703,,,,,,,,0.703,1,,,,,,277,NW,"ID",50,petain,PETAIN,z,,,,,,,0.125,-0.361979167,0,0,0,,0,242,242,336,1,
,,,,,,,,,,,,,,,,,,5c0c90e7632102000147c3cc,2020-08-10_10h50.25.183,lexical_decision_task_MP,2020.1.3,Win32,60,z,1,0.716,,,,,,,,0.716,1,,,,,,448,NW,"ID",33,sadent,SADENT,z,,,,,,,0.125,-0.361979167,0,0,0,,0,243,243,267,1,
,,,,,,,,,,,,,,,,,,5c0c90e7632102000147c3cc,2020-08-10_10h50.25.183,lexical_decision_task_MP,2020.1.3,Win32,60,z,1,0.625,,,,,,,,0.625,1,,,,,,392,NW,UN,50,ganous,ROUNCY,z,,,,,,,0.125,-0.361979167,0,0,0,,0,244,244,451,1,
,,,,,,,,,,,,,,,,,,5c0c90e7632102000147c3cc,2020-08-10_10h50.25.183,lexical_decision_task_MP,2020.1.3,Win32,60,m,1,0.801,,,,,,,,0.801,1,,,,,,86,WORD,UN,33,filter,RODENT,m,,,,,,,0.125,-0.361979167,0,0,0,,0,245,245,145,1,
,,,,,,,,,,,,,,,,,,5c0c90e7632102000147c3cc,2020-08-10_10h50.25.183,lexical_decision_task_MP,2020.1.3,Win32,60,z,1,1.166,,,,,,,,1.166,1,,,,,,341,NW,UN,33,randow,MYRTIE,z,,,,,,,0.125,-0.361979167,0,0,0,,0,246,246,400,1,
,,,,,,,,,,,,,,,,,,5c0c90e7632102000147c3cc,2020-08-10_10h50.25.183,lexical_decision_task_MP,2020.1.3,Win32,60,m,1,0.838,,,,,,,,0.838,1,,,,,,228,WORD,"ID",33,master,MASTER,m,,,,,,,0.125,-0.361979167,0,0,0,,0,247,247,47,1,
,,,,,,,,,,,,,,,,,,5c0c90e7632102000147c3cc,2020-08-10_10h50.25.183,lexical_decision_task_MP,2020.1.3,Win32,60,z,1,1.351,,,,,,,,1.351,1,,,,,,386,NW,UN,50,gronce,ANCUST,z,,,,,,,0.125,-0.361979167,0,0,0,,0,248,248,445,1,
,,,,,,,,,,,,,,,,,,5c0c90e7632102000147c3cc,2020-08-10_10h50.25.183,lexical_decision_task_MP,2020.1.3,Win32,60,m,1,0.89,,,,,,,,0.89,1,,,,,,204,WORD,"ID",33,burden,BURDEN,m,,,,,,,0.125,-0.361979167,0,0,0,,0,249,249,23,1,
,,,,,,,,,,,,,,,,,,5c0c90e7632102000147c3cc,2020-08-10_10h50.25.183,lexical_decision_task_MP,2020.1.3,Win32,60,,0,,,,,,,,,0.89,-1,,,,,,460,NW,"ID",33,mingar,MINGAR,z,,,,,,,0.125,-0.361979167,0,0,0,,0,250,250,279,1,
,,,,,,,,,,,,,,,,,,5c0c90e7632102000147c3cc,2020-08-10_10h50.25.183,lexical_decision_task_MP,2020.1.3,Win32,60,z,1,0.904,,,,,,,,0.904,1,,,,,,291,NW,"ID",50,pretch,PRETCH,z,,,,,,,0.125,-0.361979167,0,0,0,,0,251,251,350,1,
,,,,,,,,,,,,,,,,,,5c0c90e7632102000147c3cc,2020-08-10_10h50.25.183,lexical_decision_task_MP,2020.1.3,Win32,60,z,1,0.653,,,,,,,,0.653,1,,,,,,410,NW,UN,50,orchin,TUNORY,z,,,,,,,0.125,-0.361979167,0,0,0,,0,252,252,469,1,
,,,,,,,,,,,,,,,,,,5c0c90e7632102000147c3cc,2020-08-10_10h50.25.183,lexical_decision_task_MP,2020.1.3,Win32,60,z,1,0.659,,,,,,,,0.659,1,,,,,,280,NW,"ID",50,curbol,CURBOL,z,,,,,,,0.125,-0.361979167,0,0,0,,0,253,253,339,1,
,,,,,,,,,,,,,,,,,,5c0c90e7632102000147c3cc,2020-08-10_10h50.25.183,lexical_decision_task_MP,2020.1.3,Win32,60,m,1,0.932,,,,,,,,0.932,1,,,,,,107,WORD,UN,33,reckon,SLOGAN,m,,,,,,,0.125,-0.361979167,0,0,0,,0,254,254,166,1,
,,,,,,,,,,,,,,,,,,5c0c90e7632102000147c3cc,2020-08-10_10h50.25.183,lexical_decision_task_MP,2020.1.3,Win32,60,m,1,1.142,,,,,,,,1.142,1,,,,,,154,WORD,UN,50,lizard,AUTHOR,m,,,,,,,0.125,-0.361979167,0,0,0,,0,255,255,213,1,
,,,,,,,,,,,,,,,,,,5c0c90e7632102000147c3cc,2020-08-10_10h50.25.183,lexical_decision_task_MP,2020.1.3,Win32,60,m,1,1.418,,,,,,,,1.418,1,,,,,,12,WORD,"ID",50,orange,ORANGE,m,,,,,,,0.125,-0.361979167,0,0,0,,0,256,256,71,1,
,,,,,,,,,,,,,,,,,,5c0c90e7632102000147c3cc,2020-08-10_10h50.25.183,lexical_decision_task_MP,2020.1.3,Win32,60,m,1,0.627,,,,,,,,0.627,1,,,,,,150,WORD,UN,50,mystic,RANDOM,m,,,,,,,0.125,-0.361979167,0,0,0,,0,257,257,209,1,
,,,,,,,,,,,,,,,,,,5c0c90e7632102000147c3cc,2020-08-10_10h50.25.183,lexical_decision_task_MP,2020.1.3,Win32,60,,0,,,,,,,,,0.627,-1,,,,,,472,NW,"ID",33,cigney,CIGNEY,z,,,,,,,0.125,-0.361979167,0,0,0,,0,258,258,291,1,
,,,,,,,,,,,,,,,,,,5c0c90e7632102000147c3cc,2020-08-10_10h50.25.183,lexical_decision_task_MP,2020.1.3,Win32,60,,0,,,,,,,,,0.627,-1,,,,,,242,NW,"ID",50,unwert,UNWERT,z,,,,,,,0.125,-0.361979167,0,0,0,,0,259,259,301,1,
,,,,,,,,,,,,,,,,,,5c0c90e7632102000147c3cc,2020-08-10_10h50.25.183,lexical_decision_task_MP,2020.1.3,Win32,60,z,1,1.634,,,,,,,,1.634,1,,,,,,439,NW,"ID",33,limpor,LIMPOR,z,,,,,,,0.125,-0.361979167,0,0,0,,0,260,260,258,1,
,,,,,,,,,,,,,,,,,,5c0c90e7632102000147c3cc,2020-08-10_10h50.25.183,lexical_decision_task_MP,2020.1.3,Win32,60,z,1,0.954,,,,,,,,0.954,1,,,,,,334,NW,UN,33,desion,WATMEG,z,,,,,,,0.125,-0.361979167,0,0,0,,0,261,261,393,1,
,,,,,,,,,,,,,,,,,,5c0c90e7632102000147c3cc,2020-08-10_10h50.25.183,lexical_decision_task_MP,2020.1.3,Win32,60,z,1,0.701,,,,,,,,0.701,1,,,,,,251,NW,"ID",50,lupict,LUPICT,z,,,,,,,0.125,-0.361979167,0,0,0,,0,262,262,310,1,
,,,,,,,,,,,,,,,,,,5c0c90e7632102000147c3cc,2020-08-10_10h50.25.183,lexical_decision_task_MP,2020.1.3,Win32,60,z,1,0.626,,,,,,,,0.626,1,,,,,,431,NW,"ID",33,chrums,CHRUMS,z,,,,,,,0.125,-0.361979167,0,0,0,,0,263,263,250,1,
,,,,,,,,,,,,,,,,,,5c0c90e7632102000147c3cc,2020-08-10_10h50.25.183,lexical_decision_task_MP,2020.1.3,Win32,60,z,1,0.644,,,,,,,,0.644,1,,,,,,437,NW,"ID",33,snapel,SNAPEL,z,,,,,,,0.125,-0.361979167,0,0,0,,0,264,264,256,1,
,,,,,,,,,,,,,,,,,,5c0c90e7632102000147c3cc,2020-08-10_10h50.25.183,lexical_decision_task_MP,2020.1.3,Win32,60,m,1,0.766,,,,,,,,0.766,1,,,,,,239,WORD,"ID",33,lumber,LUMBER,m,,,,,,,0.125,-0.361979167,0,0,0,,0,265,265,58,1,
,,,,,,,,,,,,,,,,,,5c0c90e7632102000147c3cc,2020-08-10_10h50.25.183,lexical_decision_task_MP,2020.1.3,Win32,60,z,1,0.633,,,,,,,,0.633,1,,,,,,393,NW,UN,50,spaqux,GANOUS,z,,,,,,,0.125,-0.361979167,0,0,0,,0,266,266,452,1,
,,,,,,,,,,,,,,,,,,5c0c90e7632102000147c3cc,2020-08-10_10h50.25.183,lexical_decision_task_MP,2020.1.3,Win32,60,m,1,0.702,,,,,,,,0.702,1,,,,,,101,WORD,UN,33,direct,WRENCH,m,,,,,,,0.125,-0.361979167,0,0,0,,0,267,267,160,1,
,,,,,,,,,,,,,,,,,,5c0c90e7632102000147c3cc,2020-08-10_10h50.25.183,lexical_decision_task_MP,2020.1.3,Win32,60,m,1,0.604,,,,,,,,0.604,1,,,,,,168,WORD,UN,50,genius,ANSWER,m,,,,,,,0.125,-0.361979167,0,0,0,,0,268,268,227,1,
,,,,,,,,,,,,,,,,,,5c0c90e7632102000147c3cc,2020-08-10_10h50.25.183,lexical_decision_task_MP,2020.1.3,Win32,60,m,1,0.632,,,,,,,,0.632,1,,,,,,172,WORD,UN,50,shower,PATROL,m,,,,,,,0.125,-0.361979167,0,0,0,,0,269,269,231,1,
,,,,,,,,,,,,,,,,,,5c0c90e7632102000147c3cc,2020-08-10_10h50.25.183,lexical_decision_task_MP,2020.1.3,Win32,60,z,1,0.869,,,,,,,,0.869,1,,,,,,446,NW,"ID",33,runamo,RUNAMO,z,,,,,,,0.125,-0.361979167,0,0,0,,0,270,270,265,1,
,,,,,,,,,,,,,,,,,,5c0c90e7632102000147c3cc,2020-08-10_10h50.25.183,lexical_decision_task_MP,2020.1.3,Win32,60,z,1,0.733,,,,,,,,0.733,1,,,,,,479,NW,"ID",33,lobush,LOBUSH,z,,,,,,,0.125,-0.361979167,0,0,0,,0,271,271,298,1,
,,,,,,,,,,,,,,,,,,5c0c90e7632102000147c3cc,2020-08-10_10h50.25.183,lexical_decision_task_MP,2020.1.3,Win32,60,z,1,0.791,,,,,,,,0.791,1,,,,,,417,NW,UN,50,suidle,EAROUD,z,,,,,,,0.125,-0.361979167,0,0,0,,0,272,272,476,1,
,,,,,,,,,,,,,,,,,,5c0c90e7632102000147c3cc,2020-08-10_10h50.25.183,lexical_decision_task_MP,2020.1.3,Win32,60,m,1,0.867,,,,,,,,0.867,1,,,,,,52,WORD,"ID",50,impose,IMPOSE,m,,,,,,,0.125,-0.361979167,0,0,0,,0,273,273,111,1,
,,,,,,,,,,,,,,,,,,5c0c90e7632102000147c3cc,2020-08-10_10h50.25.183,lexical_decision_task_MP,2020.1.3,Win32,60,z,0,0.744,,,,,,,,0.744,0,,,,,,232,WORD,"ID",33,inject,INJECT,m,,,,,,,0.125,-0.361979167,0,0,0,,0,274,274,51,1,
,,,,,,,,,,,,,,,,,,5c0c90e7632102000147c3cc,2020-08-10_10h50.25.183,lexical_decision_task_MP,2020.1.3,Win32,60,z,1,0.971,,,,,,,,0.971,1,,,,,,349,NW,UN,33,nagurs,ASYLEN,z,,,,,,,0.125,-0.361979167,0,0,0,,0,275,275,408,1,
,,,,,,,,,,,,,,,,,,5c0c90e7632102000147c3cc,2020-08-10_10h50.25.183,lexical_decision_task_MP,2020.1.3,Win32,60,m,1,0.783,,,,,,,,0.783,1,,,,,,194,WORD,"ID",33,absent,ABSENT,m,,,,,,,0.125,-0.361979167,0,0,0,,0,276,276,13,1,
,,,,,,,,,,,,,,,,,,5c0c90e7632102000147c3cc,2020-08-10_10h50.25.183,lexical_decision_task_MP,2020.1.3,Win32,60,z,1,0.976,,,,,,,,0.976,1,,,,,,297,NW,"ID",50,fertic,FERTIC,z,,,,,,,0.125,-0.361979167,0,0,0,,0,277,277,356,1,
,,,,,,,,,,,,,,,,,,5c0c90e7632102000147c3cc,2020-08-10_10h50.25.183,lexical_decision_task_MP,2020.1.3,Win32,60,m,1,0.733,,,,,,,,0.733,1,,,,,,147,WORD,UN,50,custom,GARLIC,m,,,,,,,0.125,-0.361979167,0,0,0,,0,278,278,206,1,
,,,,,,,,,,,,,,,,,,5c0c90e7632102000147c3cc,2020-08-10_10h50.25.183,lexical_decision_task_MP,2020.1.3,Win32,60,m,1,1.359,,,,,,,,1.359,1,,,,,,160,WORD,UN,50,pastor,VIOLET,m,,,,,,,0.125,-0.361979167,0,0,0,,0,279,279,219,1,
,,,,,,,,,,,,,,,,,,5c0c90e7632102000147c3cc,2020-08-10_10h50.25.183,lexical_decision_task_MP,2020.1.3,Win32,60,m,1,0.585,,,,,,,,0.585,1,,,,,,57,WORD,"ID",50,change,CHANGE,m,,,,,,,0.125,-0.361979167,0,0,0,,0,280,280,116,1,
,,,,,,,,,,,,,,,,,,5c0c90e7632102000147c3cc,2020-08-10_10h50.25.183,lexical_decision_task_MP,2020.1.3,Win32,60,z,1,1.249,,,,,,,,1.249,1,,,,,,432,NW,"ID",33,lunker,LUNKER,z,,,,,,,0.125,-0.361979167,0,0,0,,0,281,281,251,1,
,,,,,,,,,,,,,,,,,,5c0c90e7632102000147c3cc,2020-08-10_10h50.25.183,lexical_decision_task_MP,2020.1.3,Win32,60,z,0,0.844,,,,,,,,0.844,0,,,,,,8,WORD,"ID",50,abrupt,ABRUPT,m,,,,,,,0.125,-0.361979167,0,0,0,,0,282,282,67,1,
,,,,,,,,,,,,,,,,,,5c0c90e7632102000147c3cc,2020-08-10_10h50.25.183,lexical_decision_task_MP,2020.1.3,Win32,60,z,1,0.917,,,,,,,,0.917,1,,,,,,405,NW,UN,50,nouply,FLUMNI,z,,,,,,,0.125,-0.361979167,0,0,0,,0,283,283,464,1,
,,,,,,,,,,,,,,,,,,5c0c90e7632102000147c3cc,2020-08-10_10h50.25.183,lexical_decision_task_MP,2020.1.3,Win32,60,m,1,0.716,,,,,,,,0.716,1,,,,,,200,WORD,"ID",33,beacon,BEACON,m,,,,,,,0.125,-0.361979167,0,0,0,,0,284,284,19,1,
,,,,,,,,,,,,,,,,,,5c0c90e7632102000147c3cc,2020-08-10_10h50.25.183,lexical_decision_task_MP,2020.1.3,Win32,60,z,1,0.74,,,,,,,,0.74,1,,,,,,376,NW,UN,50,veigma,IGUARE,z,,,,,,,0.125,-0.361979167,0,0,0,,0,285,285,435,1,
,,,,,,,,,,,,,,,,,,5c0c90e7632102000147c3cc,2020-08-10_10h50.25.183,lexical_decision_task_MP,2020.1.3,Win32,60,z,1,0.667,,,,,,,,0.667,1,,,,,,470,NW,"ID",33,crudio,CRUDIO,z,,,,,,,0.125,-0.361979167,0,0,0,,0,286,286,289,1,
,,,,,,,,,,,,,,,,,,5c0c90e7632102000147c3cc,2020-08-10_10h50.25.183,lexical_decision_task_MP,2020.1.3,Win32,60,m,1,0.816,,,,,,,,0.816,1,,,,,,130,WORD,UN,50,quench,STUPID,m,,,,,,,0.125,-0.361979167,0,0,0,,0,287,287,189,1,
,,,,,,,,,,,,,,,,,,5c0c90e7632102000147c3cc,2020-08-10_10h50.25.183,lexical_decision_task_MP,2020.1.3,Win32,60,m,1,0.851,,,,,,,,0.851,1,,,,,,45,WORD,"ID",50,clergy,CLERGY,m,,,,,,,0.125,-0.361979167,0,0,0,,0,288,288,104,1,
,,,,,,,,,,,,,,,,,,5c0c90e7632102000147c3cc,2020-08-10_10h50.25.183,lexical_decision_task_MP,2020.1.3,Win32,60,m,1,0.687,,,,,,,,0.687,1,,,,,,133,WORD,UN,50,staple,CHROME,m,,,,,,,0.125,-0.361979167,0,0,0,,0,289,289,192,1,
,,,,,,,,,,,,,,,,,,5c0c90e7632102000147c3cc,2020-08-10_10h50.25.183,lexical_decision_task_MP,2020.1.3,Win32,60,z,1,0.692,,,,,,,,0.692,1,,,,,,308,NW,UN,33,amiloy,PSETCH,z,,,,,,,0.125,-0.361979167,0,0,0,,0,290,290,367,1,
,,,,,,,,,,,,,,,,,,5c0c90e7632102000147c3cc,2020-08-10_10h50.25.183,lexical_decision_task_MP,2020.1.3,Win32,60,m,1,0.738,,,,,,,,0.738,1,,,,,,7,WORD,"ID",50,anchor,ANCHOR,m,,,,,,,0.125,-0.361979167,0,0,0,,0,291,291,66,1,
,,,,,,,,,,,,,,,,,,5c0c90e7632102000147c3cc,2020-08-10_10h50.25.183,lexical_decision_task_MP,2020.1.3,Win32,60,z,0,0.79,,,,,,,,0.79,0,,,,,,90,WORD,UN,33,expand,RELISH,m,,,,,,,0.125,-0.361979167,0,0,0,,0,292,292,149,1,
,,,,,,,,,,,,,,,,,,5c0c90e7632102000147c3cc,2020-08-10_10h50.25.183,lexical_decision_task_MP,2020.1.3,Win32,60,m,1,0.721,,,,,,,,0.721,1,,,,,,83,WORD,UN,33,mortal,RESULT,m,,,,,,,0.125,-0.361979167,0,0,0,,0,293,293,142,1,
,,,,,,,,,,,,,,,,,,5c0c90e7632102000147c3cc,2020-08-10_10h50.25.183,lexical_decision_task_MP,2020.1.3,Win32,60,m,1,0.605,,,,,,,,0.605,1,,,,,,144,WORD,UN,50,parish,SPONGE,m,,,,,,,0.125,-0.361979167,0,0,0,,0,294,294,203,1,
,,,,,,,,,,,,,,,,,,5c0c90e7632102000147c3cc,2020-08-10_10h50.25.183,lexical_decision_task_MP,2020.1.3,Win32,60,z,1,0.718,,,,,,,,0.718,1,,,,,,264,NW,"ID",50,vackel,VACKEL,z,,,,,,,0.125,-0.361979167,0,0,0,,0,295,295,323,1,
,,,,,,,,,,,,,,,,,,5c0c90e7632102000147c3cc,2020-08-10_10h50.25.183,lexical_decision_task_MP,2020.1.3,Win32,60,m,1,0.859,,,,,,,,0.859,1,,,,,,110,WORD,UN,33,induce,POLITE,m,,,,,,,0.125,-0.361979167,0,0,0,,0,296,296,169,1,
,,,,,,,,,,,,,,,,,,5c0c90e7632102000147c3cc,2020-08-10_10h50.25.183,lexical_decision_task_MP,2020.1.3,Win32,60,z,1,0.986,,,,,,,,0.986,1,,,,,,454,NW,"ID",33,scouge,SCOUGE,z,,,,,,,0.125,-0.361979167,0,0,0,,0,297,297,273,1,
,,,,,,,,,,,,,,,,,,5c0c90e7632102000147c3cc,2020-08-10_10h50.25.183,lexical_decision_task_MP,2020.1.3,Win32,60,z,1,1.477,,,,,,,,1.477,1,,,,,,275,NW,"ID",50,sleirt,SLEIRT,z,,,,,,,0.125,-0.361979167,0,0,0,,0,298,298,334,1,
,,,,,,,,,,,,,,,,,,5c0c90e7632102000147c3cc,2020-08-10_10h50.25.183,lexical_decision_task_MP,2020.1.3,Win32,60,z,1,0.667,,,,,,,,0.667,1,,,,,,425,NW,"ID",33,frudge,FRUDGE,z,,,,,,,0.125,-0.361979167,0,0,0,,0,299,299,244,1,
,,,,,,,,,,,,,,,,,,5c0c90e7632102000147c3cc,2020-08-10_10h50.25.183,lexical_decision_task_MP,2020.1.3,Win32,60,m,1,0.674,,,,,,,,0.674,1,,,,,,148,WORD,UN,50,invade,CUSTOM,m,,,,,,,0.125,-0.361979167,0,0,0,,0,300,300,207,1,
,,,,,,,,,,,,,,,,,,5c0c90e7632102000147c3cc,2020-08-10_10h50.25.183,lexical_decision_task_MP,2020.1.3,Win32,60,z,1,0.65,,,,,,,,0.65,1,,,,,,274,NW,"ID",50,fumblo,FUMBLO,z,,,,,,,0.125,-0.361979167,0,0,0,,0,301,301,333,1,
,,,,,,,,,,,,,,,,,,5c0c90e7632102000147c3cc,2020-08-10_10h50.25.183,lexical_decision_task_MP,2020.1.3,Win32,60,z,1,0.808,,,,,,,,0.808,1,,,,,,474,NW,"ID",33,hablin,HABLIN,z,,,,,,,0.125,-0.361979167,0,0,0,,0,302,302,293,1,
,,,,,,,,,,,,,,,,,,5c0c90e7632102000147c3cc,2020-08-10_10h50.25.183,lexical_decision_task_MP,2020.1.3,Win32,60,z,1,0.737,,,,,,,,0.737,1,,,,,,466,NW,"ID",33,hocite,HOCITE,z,,,,,,,0.125,-0.361979167,0,0,0,,0,303,303,285,1,
,,,,,,,,,,,,,,,,,,5c0c90e7632102000147c3cc,2020-08-10_10h50.25.183,lexical_decision_task_MP,2020.1.3,Win32,60,m,1,0.653,,,,,,,,0.653,1,,,,,,5,WORD,"ID",50,plunge,PLUNGE,m,,,,,,,0.125,-0.361979167,0,0,0,,0,304,304,64,1,
,,,,,,,,,,,,,,,,,,5c0c90e7632102000147c3cc,2020-08-10_10h50.25.183,lexical_decision_task_MP,2020.1.3,Win32,60,z,0,0.604,,,,,,,,0.604,0,,,,,,19,WORD,"ID",50,patron,PATRON,m,,,,,,,0.125,-0.361979167,0,0,0,,0,305,305,78,1,
,,,,,,,,,,,,,,,,,,5c0c90e7632102000147c3cc,2020-08-10_10h50.25.183,lexical_decision_task_MP,2020.1.3,Win32,60,m,1,0.599,,,,,,,,0.599,1,,,,,,36,WORD,"ID",50,vanish,VANISH,m,,,,,,,0.125,-0.361979167,0,0,0,,0,306,306,95,1,
,,,,,,,,,,,,,,,,,,5c0c90e7632102000147c3cc,2020-08-10_10h50.25.183,lexical_decision_task_MP,2020.1.3,Win32,60,m,1,0.757,,,,,,,,0.757,1,,,,,,43,WORD,"ID",50,tongue,TONGUE,m,,,,,,,0.125,-0.361979167,0,0,0,,0,307,307,102,1,
,,,,,,,,,,,,,,,,,,5c0c90e7632102000147c3cc,2020-08-10_10h50.25.183,lexical_decision_task_MP,2020.1.3,Win32,60,m,1,0.488,,,,,,,,0.488,1,,,,,,27,WORD,"ID",50,scream,SCREAM,m,,,,,,,0.125,-0.361979167,0,0,0,,0,308,308,86,1,
,,,,,,,,,,,,,,,,,,5c0c90e7632102000147c3cc,2020-08-10_10h50.25.183,lexical_decision_task_MP,2020.1.3,Win32,60,m,1,0.55,,,,,,,,0.55,1,,,,,,178,WORD,UN,50,basket,INFORM,m,,,,,,,0.125,-0.361979167,0,0,0,,0,309,309,237,1,
,,,,,,,,,,,,,,,,,,5c0c90e7632102000147c3cc,2020-08-10_10h50.25.183,lexical_decision_task_MP,2020.1.3,Win32,60,m,1,0.57,,,,,,,,0.57,1,,,,,,219,WORD,"ID",33,bucket,BUCKET,m,,,,,,,0.125,-0.361979167,0,0,0,,0,310,310,38,1,
,,,,,,,,,,,,,,,,,,5c0c90e7632102000147c3cc,2020-08-10_10h50.25.183,lexical_decision_task_MP,2020.1.3,Win32,60,z,1,0.668,,,,,,,,0.668,1,,,,,,301,NW,UN,33,miluer,FAINCH,z,,,,,,,0.125,-0.361979167,0,0,0,,0,311,311,360,1,
,,,,,,,,,,,,,,,,,,5c0c90e7632102000147c3cc,2020-08-10_10h50.25.183,lexical_decision_task_MP,2020.1.3,Win32,60,z,1,0.771,,,,,,,,0.771,1,,,,,,447,NW,"ID",33,gircue,GIRCUE,z,,,,,,,0.125,-0.361979167,0,0,0,,0,312,312,266,1,
,,,,,,,,,,,,,,,,,,5c0c90e7632102000147c3cc,2020-08-10_10h50.25.183,lexical_decision_task_MP,2020.1.3,Win32,60,z,1,0.717,,,,,,,,0.717,1,,,,,,286,NW,"ID",50,reldon,RELDON,z,,,,,,,0.125,-0.361979167,0,0,0,,0,313,313,345,1,
,,,,,,,,,,,,,,,,,,5c0c90e7632102000147c3cc,2020-08-10_10h50.25.183,lexical_decision_task_MP,2020.1.3,Win32,60,m,1,0.716,,,,,,,,0.716,1,,,,,,206,WORD,"ID",33,tailor,TAILOR,m,,,,,,,0.125,-0.361979167,0,0,0,,0,314,314,25,1,
,,,,,,,,,,,,,,,,,,5c0c90e7632102000147c3cc,2020-08-10_10h50.25.183,lexical_decision_task_MP,2020.1.3,Win32,60,z,1,0.64,,,,,,,,0.64,1,,,,,,367,NW,UN,50,hornal,SLIQUE,z,,,,,,,0.125,-0.361979167,0,0,0,,0,315,315,426,1,
,,,,,,,,,,,,,,,,,,5c0c90e7632102000147c3cc,2020-08-10_10h50.25.183,lexical_decision_task_MP,2020.1.3,Win32,60,m,1,0.716,,,,,,,,0.716,1,,,,,,163,WORD,UN,50,market,STRING,m,,,,,,,0.125,-0.361979167,0,0,0,,0,316,316,222,1,
,,,,,,,,,,,,,,,,,,5c0c90e7632102000147c3cc,2020-08-10_10h50.25.183,lexical_decision_task_MP,2020.1.3,Win32,60,z,1,0.724,,,,,,,,0.724,1,,,,,,323,NW,UN,33,steikh,ROSAIL,z,,,,,,,0.125,-0.361979167,0,0,0,,0,317,317,382,1,
,,,,,,,,,,,,,,,,,,5c0c90e7632102000147c3cc,2020-08-10_10h50.25.183,lexical_decision_task_MP,2020.1.3,Win32,60,z,1,0.8,,,,,,,,0.8,1,,,,,,361,NW,UN,50,tireau,PAUCHE,z,,,,,,,0.125,-0.361979167,0,0,0,,0,318,318,420,1,
,,,,,,,,,,,,,,,,,,5c0c90e7632102000147c3cc,2020-08-10_10h50.25.183,lexical_decision_task_MP,2020.1.3,Win32,60,m,1,0.752,,,,,,,,0.752,1,,,,,,129,WORD,UN,50,stupid,MARVEL,m,,,,,,,0.125,-0.361979167,0,0,0,,0,319,319,188,1,
,,,,,,,,,,,,,,,,,,5c0c90e7632102000147c3cc,2020-08-10_10h50.25.183,lexical_decision_task_MP,2020.1.3,Win32,60,z,1,1.077,,,,,,,,1.077,1,,,,,,328,NW,UN,33,yarike,BROAKE,z,,,,,,,0.125,-0.361979167,0,0,0,,0,320,320,387,1,
,,,,,,,,,,,,,,,,,,5c0c90e7632102000147c3cc,2020-08-10_10h50.25.183,lexical_decision_task_MP,2020.1.3,Win32,60,m,1,0.766,,,,,,,,0.766,1,,,,,,87,WORD,UN,33,sprawl,FILTER,m,,,,,,,0.125,-0.361979167,0,0,0,,0,321,321,146,1,
,,,,,,,,,,,,,,,,,,5c0c90e7632102000147c3cc,2020-08-10_10h50.25.183,lexical_decision_task_MP,2020.1.3,Win32,60,m,1,0.79,,,,,,,,0.79,1,,,,,,75,WORD,UN,33,exotic,TROPHY,m,,,,,,,0.125,-0.361979167,0,0,0,,0,322,322,134,1,
,,,,,,,,,,,,,,,,,,5c0c90e7632102000147c3cc,2020-08-10_10h50.25.183,lexical_decision_task_MP,2020.1.3,Win32,60,m,1,0.592,,,,,,,,0.592,1,,,,,,37,WORD,"ID",50,insult,INSULT,m,,,,,,,0.125,-0.361979167,0,0,0,,0,323,323,96,1,
,,,,,,,,,,,,,,,,,,5c0c90e7632102000147c3cc,2020-08-10_10h50.25.183,lexical_decision_task_MP,2020.1.3,Win32,60,m,1,0.538,,,,,,,,0.538,1,,,,,,210,WORD,"ID",33,monkey,MONKEY,m,,,,,,,0.125,-0.361979167,0,0,0,,0,324,324,29,1,
,,,,,,,,,,,,,,,,,,5c0c90e7632102000147c3cc,2020-08-10_10h50.25.183,lexical_decision_task_MP,2020.1.3,Win32,60,m,1,0.542,,,,,,,,0.542,1,,,,,,152,WORD,UN,50,behold,ROCKET,m,,,,,,,0.125,-0.361979167,0,0,0,,0,325,325,211,1,
,,,,,,,,,,,,,,,,,,5c0c90e7632102000147c3cc,2020-08-10_10h50.25.183,lexical_decision_task_MP,2020.1.3,Win32,60,z,1,0.7,,,,,,,,0.7,1,,,,,,455,NW,"ID",33,tondle,TONDLE,z,,,,,,,0.125,-0.361979167,0,0,0,,0,326,326,274,1,
,,,,,,,,,,,,,,,,,,5c0c90e7632102000147c3cc,2020-08-10_10h50.25.183,lexical_decision_task_MP,2020.1.3,Win32,60,z,0,0.551,,,,,,,,0.551,0,,,,,,139,WORD,UN,50,prince,DEBRIS,m,,,,,,,0.125,-0.361979167,0,0,0,,0,327,327,198,1,
,,,,,,,,,,,,,,,,,,5c0c90e7632102000147c3cc,2020-08-10_10h50.25.183,lexical_decision_task_MP,2020.1.3,Win32,60,z,1,0.75,,,,,,,,0.75,1,,,,,,407,NW,UN,50,hurnia,SUIVER,z,,,,,,,0.125,-0.361979167,0,0,0,,0,328,328,466,1,
,,,,,,,,,,,,,,,,,,5c0c90e7632102000147c3cc,2020-08-10_10h50.25.183,lexical_decision_task_MP,2020.1.3,Win32,60,m,0,0.772,,,,,,,,0.772,0,,,,,,384,NW,UN,50,injore,GUESCO,z,,,,,,,0.125,-0.361979167,0,0,0,,0,329,329,443,1,
,,,,,,,,,,,,,,,,,,5c0c90e7632102000147c3cc,2020-08-10_10h50.25.183,lexical_decision_task_MP,2020.1.3,Win32,60,m,1,0.944,,,,,,,,0.944,1,,,,,,20,WORD,"ID",50,breast,BREAST,m,,,,,,,0.125,-0.361979167,0,0,0,,0,330,330,79,1,
,,,,,,,,,,,,,,,,,,5c0c90e7632102000147c3cc,2020-08-10_10h50.25.183,lexical_decision_task_MP,2020.1.3,Win32,60,z,1,1.284,,,,,,,,1.284,1,,,,,,422,NW,"ID",33,alcoud,ALCOUD,z,,,,,,,0.125,-0.361979167,0,0,0,,0,331,331,241,1,
,,,,,,,,,,,,,,,,,,5c0c90e7632102000147c3cc,2020-08-10_10h50.25.183,lexical_decision_task_MP,2020.1.3,Win32,60,z,1,0.966,,,,,,,,0.966,1,,,,,,249,NW,"ID",50,batrol,BATROL,z,,,,,,,0.125,-0.361979167,0,0,0,,0,332,332,308,1,
,,,,,,,,,,,,,,,,,,5c0c90e7632102000147c3cc,2020-08-10_10h50.25.183,lexical_decision_task_MP,2020.1.3,Win32,60,z,1,0.788,,,,,,,,0.788,1,,,,,,456,NW,"ID",33,broget,BROGET,z,,,,,,,0.125,-0.361979167,0,0,0,,0,333,333,275,1,
,,,,,,,,,,,,,,,,,,5c0c90e7632102000147c3cc,2020-08-10_10h50.25.183,lexical_decision_task_MP,2020.1.3,Win32,60,z,1,0.67,,,,,,,,0.67,1,,,,,,356,NW,UN,33,derain,OTHNIS,z,,,,,,,0.125,-0.361979167,0,0,0,,0,334,334,415,1,
,,,,,,,,,,,,,,,,,,5c0c90e7632102000147c3cc,2020-08-10_10h50.25.183,lexical_decision_task_MP,2020.1.3,Win32,60,z,1,0.65,,,,,,,,0.65,1,,,,,,370,NW,UN,50,geiloy,SLEACT,z,,,,,,,0.125,-0.361979167,0,0,0,,0,335,335,429,1,
,,,,,,,,,,,,,,,,,,5c0c90e7632102000147c3cc,2020-08-10_10h50.25.183,lexical_decision_task_MP,2020.1.3,Win32,60,z,1,0.621,,,,,,,,0.621,1,,,,,,326,NW,UN,33,plenac,IGUADE,z,,,,,,,0.125,-0.361979167,0,0,0,,0,336,336,385,1,
,,,,,,,,,,,,,,,,,,5c0c90e7632102000147c3cc,2020-08-10_10h50.25.183,lexical_decision_task_MP,2020.1.3,Win32,60,m,1,0.789,,,,,,,,0.789,1,,,,,,231,WORD,"ID",33,export,EXPORT,m,,,,,,,0.125,-0.361979167,0,0,0,,0,337,337,50,1,
,,,,,,,,,,,,,,,,,,5c0c90e7632102000147c3cc,2020-08-10_10h50.25.183,lexical_decision_task_MP,2020.1.3,Win32,60,m,1,0.656,,,,,,,,0.656,1,,,,,,94,WORD,UN,33,thread,TRAVEL,m,,,,,,,0.125,-0.361979167,0,0,0,,0,338,338,153,1,
,,,,,,,,,,,,,,,,,,5c0c90e7632102000147c3cc,2020-08-10_10h50.25.183,lexical_decision_task_MP,2020.1.3,Win32,60,m,1,0.6,,,,,,,,0.6,1,,,,,,157,WORD,UN,50,island,DRAGON,m,,,,,,,0.125,-0.361979167,0,0,0,,0,339,339,216,1,
,,,,,,,,,,,,,,,,,,5c0c90e7632102000147c3cc,2020-08-10_10h50.25.183,lexical_decision_task_MP,2020.1.3,Win32,60,z,1,0.785,,,,,,,,0.785,1,,,,,,305,NW,UN,33,sounge,FORGLE,z,,,,,,,0.125,-0.361979167,0,0,0,,0,340,340,364,1,
,,,,,,,,,,,,,,,,,,5c0c90e7632102000147c3cc,2020-08-10_10h50.25.183,lexical_decision_task_MP,2020.1.3,Win32,60,m,1,0.739,,,,,,,,0.739,1,,,,,,233,WORD,"ID",33,nature,NATURE,m,,,,,,,0.125,-0.361979167,0,0,0,,0,341,341,52,1,
,,,,,,,,,,,,,,,,,,5c0c90e7632102000147c3cc,2020-08-10_10h50.25.183,lexical_decision_task_MP,2020.1.3,Win32,60,m,1,0.592,,,,,,,,0.592,1,,,,,,191,WORD,"ID",33,stable,STABLE,m,,,,,,,0.125,-0.361979167,0,0,0,,0,342,342,10,1,
,,,,,,,,,,,,,,,,,,5c0c90e7632102000147c3cc,2020-08-10_10h50.25.183,lexical_decision_task_MP,2020.1.3,Win32,60,z,1,0.633,,,,,,,,0.633,1,,,,,,399,NW,UN,50,wearox,FOURET,z,,,,,,,0.125,-0.361979167,0,0,0,,0,343,343,458,1,
,,,,,,,,,,,,,,,,,,5c0c90e7632102000147c3cc,2020-08-10_10h50.25.183,lexical_decision_task_MP,2020.1.3,Win32,60,z,1,0.704,,,,,,,,0.704,1,,,,,,265,NW,"ID",50,distar,DISTAR,z,,,,,,,0.125,-0.361979167,0,0,0,,0,344,344,324,1,
,,,,,,,,,,,,,,,,,,5c0c90e7632102000147c3cc,2020-08-10_10h50.25.183,lexical_decision_task_MP,2020.1.3,Win32,60,m,0,1.022,,,,,,,,1.022,0,,,,,,364,NW,UN,50,guairt,IMPOTE,z,,,,,,,0.125,-0.361979167,0,0,0,,0,345,345,423,1,
,,,,,,,,,,,,,,,,,,5c0c90e7632102000147c3cc,2020-08-10_10h50.25.183,lexical_decision_task_MP,2020.1.3,Win32,60,m,1,0.684,,,,,,,,0.684,1,,,,,,18,WORD,"ID",50,humble,HUMBLE,m,,,,,,,0.125,-0.361979167,0,0,0,,0,346,346,77,1,
,,,,,,,,,,,,,,,,,,5c0c90e7632102000147c3cc,2020-08-10_10h50.25.183,lexical_decision_task_MP,2020.1.3,Win32,60,z,1,1.036,,,,,,,,1.036,1,,,,,,278,NW,"ID",50,unighs,UNIGHS,z,,,,,,,0.125,-0.361979167,0,0,0,,0,347,347,337,1,
,,,,,,,,,,,,,,,,,,5c0c90e7632102000147c3cc,2020-08-10_10h50.25.183,lexical_decision_task_MP,2020.1.3,Win32,60,z,0,0.941,,,,,,,,0.941,0,,,,,,74,WORD,UN,33,trophy,PLAQUE,m,,,,,,,0.125,-0.361979167,0,0,0,,0,348,348,133,1,
,,,,,,,,,,,,,,,,,,5c0c90e7632102000147c3cc,2020-08-10_10h50.25.183,lexical_decision_task_MP,2020.1.3,Win32,60,z,1,0.816,,,,,,,,0.816,1,,,,,,429,NW,"ID",33,funtle,FUNTLE,z,,,,,,,0.125,-0.361979167,0,0,0,,0,349,349,248,1,
,,,,,,,,,,,,,,,,,,5c0c90e7632102000147c3cc,2020-08-10_10h50.25.183,lexical_decision_task_MP,2020.1.3,Win32,60,z,1,0.749,,,,,,,,0.749,1,,,,,,340,NW,UN,33,myrtie,FIATCH,z,,,,,,,0.125,-0.361979167,0,0,0,,0,350,350,399,1,
,,,,,,,,,,,,,,,,,,5c0c90e7632102000147c3cc,2020-08-10_10h50.25.183,lexical_decision_task_MP,2020.1.3,Win32,60,m,1,0.669,,,,,,,,0.669,1,,,,,,91,WORD,UN,33,hunger,EXPAND,m,,,,,,,0.125,-0.361979167,0,0,0,,0,351,351,150,1,
,,,,,,,,,,,,,,,,,,5c0c90e7632102000147c3cc,2020-08-10_10h50.25.183,lexical_decision_task_MP,2020.1.3,Win32,60,z,1,1.075,,,,,,,,1.075,1,,,,,,475,NW,"ID",33,pebric,PEBRIC,z,,,,,,,0.125,-0.361979167,0,0,0,,0,352,352,294,1,
,,,,,,,,,,,,,,,,,,5c0c90e7632102000147c3cc,2020-08-10_10h50.25.183,lexical_decision_task_MP,2020.1.3,Win32,60,z,0,1.149,,,,,,,,1.149,0,,,,,,190,WORD,"ID",33,backup,BACKUP,m,,,,,,,0.125,-0.361979167,0,0,0,,0,353,353,9,1,
,,,,,,,,,,,,,,,,,,5c0c90e7632102000147c3cc,2020-08-10_10h50.25.183,lexical_decision_task_MP,2020.1.3,Win32,60,z,1,1.565,,,,,,,,1.565,1,,,,,,309,NW,UN,33,daniet,AMILOY,z,,,,,,,0.125,-0.361979167,0,0,0,,0,354,354,368,1,
,,,,,,,,,,,,,,,,,,5c0c90e7632102000147c3cc,2020-08-10_10h50.25.183,lexical_decision_task_MP,2020.1.3,Win32,60,m,1,0.717,,,,,,,,0.717,1,,,,,,226,WORD,"ID",33,casino,CASINO,m,,,,,,,0.125,-0.361979167,0,0,0,,0,355,355,45,1,
,,,,,,,,,,,,,,,,,,5c0c90e7632102000147c3cc,2020-08-10_10h50.25.183,lexical_decision_task_MP,2020.1.3,Win32,60,z,1,0.866,,,,,,,,0.866,1,,,,,,254,NW,"ID",50,varosh,VAROSH,z,,,,,,,0.125,-0.361979167,0,0,0,,0,356,356,313,1,
,,,,,,,,,,,,,,,,,,5c0c90e7632102000147c3cc,2020-08-10_10h50.25.183,lexical_decision_task_MP,2020.1.3,Win32,60,z,1,1.049,,,,,,,,1.049,1,,,,,,295,NW,"ID",50,gleath,GLEATH,z,,,,,,,0.125,-0.361979167,0,0,0,,0,357,357,354,1,
,,,,,,,,,,,,,,,,,,5c0c90e7632102000147c3cc,2020-08-10_10h50.25.183,lexical_decision_task_MP,2020.1.3,Win32,60,m,1,0.867,,,,,,,,0.867,1,,,,,,159,WORD,UN,50,violet,DETAIL,m,,,,,,,0.125,-0.361979167,0,0,0,,0,358,358,218,1,
,,,,,,,,,,,,,,,,,,5c0c90e7632102000147c3cc,2020-08-10_10h50.25.183,lexical_decision_task_MP,2020.1.3,Win32,60,z,1,0.716,,,,,,,,0.716,1,,,,,,457,NW,"ID",33,wanigh,WANIGH,z,,,,,,,0.125,-0.361979167,0,0,0,,0,359,359,276,1,
,,,,,,,,,,,,,,,,,,5c0c90e7632102000147c3cc,2020-08-10_10h50.25.183,lexical_decision_task_MP,2020.1.3,Win32,60,z,1,1.35,,,,,,,,1.35,1,,,,,,355,NW,UN,33,othnis,ZINGLY,z,,,,,,,0.125,-0.361979167,0,0,0,,0,360,360,414,1,
,,,,,,,,,,,,,,,,,,5c0c90e7632102000147c3cc,2020-08-10_10h50.25.183,lexical_decision_task_MP,2020.1.3,Win32,60,z,0,1,,,,,,,,1,0,,,,,,141,WORD,UN,50,spruce,ORPHAN,m,,,,,,,0.125,-0.361979167,0,0,0,,0,361,361,200,1,
,,,,,,,,,,,,,,,,,,5c0c90e7632102000147c3cc,2020-08-10_10h50.25.183,lexical_decision_task_MP,2020.1.3,Win32,60,m,1,0.749,,,,,,,,0.749,1,,,,,,95,WORD,UN,33,ignore,THREAD,m,,,,,,,0.125,-0.361979167,0,0,0,space,0,362,362,154,1,82.598
,,,,,,,,,,,,,,,,,,5c0c90e7632102000147c3cc,2020-08-10_10h50.25.183,lexical_decision_task_MP,2020.1.3,Win32,60,m,1,0.657,,,,,,,,0.657,1,,,,,,38,WORD,"ID",50,powder,POWDER,m,,,,,,,0.125,-0.361979167,0,0,0,,0,363,363,97,1,
,,,,,,,,,,,,,,,,,,5c0c90e7632102000147c3cc,2020-08-10_10h50.25.183,lexical_decision_task_MP,2020.1.3,Win32,60,m,1,1.008,,,,,,,,1.008,1,,,,,,183,WORD,"ID",33,mildew,MILDEW,m,,,,,,,0.125,-0.361979167,0,0,0,,0,364,364,2,1,
,,,,,,,,,,,,,,,,,,5c0c90e7632102000147c3cc,2020-08-10_10h50.25.183,lexical_decision_task_MP,2020.1.3,Win32,60,m,1,0.593,,,,,,,,0.593,1,,,,,,155,WORD,UN,50,cradle,LIZARD,m,,,,,,,0.125,-0.361979167,0,0,0,,0,365,365,214,1,
,,,,,,,,,,,,,,,,,,5c0c90e7632102000147c3cc,2020-08-10_10h50.25.183,lexical_decision_task_MP,2020.1.3,Win32,60,m,1,0.618,,,,,,,,0.618,1,,,,,,67,WORD,UN,33,fumble,POLICY,m,,,,,,,0.125,-0.361979167,0,0,0,,0,366,366,126,1,
,,,,,,,,,,,,,,,,,,5c0c90e7632102000147c3cc,2020-08-10_10h50.25.183,lexical_decision_task_MP,2020.1.3,Win32,60,m,1,0.567,,,,,,,,0.567,1,,,,,,60,WORD,"ID",50,pencil,PENCIL,m,,,,,,,0.125,-0.361979167,0,0,0,,0,367,367,119,1,
,,,,,,,,,,,,,,,,,,5c0c90e7632102000147c3cc,2020-08-10_10h50.25.183,lexical_decision_task_MP,2020.1.3,Win32,60,z,1,0.958,,,,,,,,0.958,1,,,,,,319,NW,UN,33,jockal,ZOMBER,z,,,,,,,0.125,-0.361979167,0,0,0,,0,368,368,378,1,
,,,,,,,,,,,,,,,,,,5c0c90e7632102000147c3cc,2020-08-10_10h50.25.183,lexical_decision_task_MP,2020.1.3,Win32,60,m,1,0.983,,,,,,,,0.983,1,,,,,,25,WORD,"ID",50,domain,DOMAIN,m,,,,,,,0.125,-0.361979167,0,0,0,,0,369,369,84,1,
,,,,,,,,,,,,,,,,,,5c0c90e7632102000147c3cc,2020-08-10_10h50.25.183,lexical_decision_task_MP,2020.1.3,Win32,60,z,1,0.843,,,,,,,,0.843,1,,,,,,377,NW,UN,50,shrile,INJORE,z,,,,,,,0.125,-0.361979167,0,0,0,,0,370,370,436,1,
,,,,,,,,,,,,,,,,,,5c0c90e7632102000147c3cc,2020-08-10_10h50.25.183,lexical_decision_task_MP,2020.1.3,Win32,60,z,1,0.835,,,,,,,,0.835,1,,,,,,345,NW,UN,33,saudic,ABSEND,z,,,,,,,0.125,-0.361979167,0,0,0,,0,371,371,404,1,
,,,,,,,,,,,,,,,,,,5c0c90e7632102000147c3cc,2020-08-10_10h50.25.183,lexical_decision_task_MP,2020.1.3,Win32,60,m,1,0.691,,,,,,,,0.691,1,,,,,,211,WORD,"ID",33,infect,INFECT,m,,,,,,,0.125,-0.361979167,0,0,0,,0,372,372,30,1,
,,,,,,,,,,,,,,,,,,5c0c90e7632102000147c3cc,2020-08-10_10h50.25.183,lexical_decision_task_MP,2020.1.3,Win32,60,m,1,0.69,,,,,,,,0.69,1,,,,,,44,WORD,"ID",50,danger,DANGER,m,,,,,,,0.125,-0.361979167,0,0,0,,0,373,373,103,1,
,,,,,,,,,,,,,,,,,,5c0c90e7632102000147c3cc,2020-08-10_10h50.25.183,lexical_decision_task_MP,2020.1.3,Win32,60,m,1,0.656,,,,,,,,0.656,1,,,,,,48,WORD,"ID",50,walnut,WALNUT,m,,,,,,,0.125,-0.361979167,0,0,0,,0,374,374,107,1,
,,,,,,,,,,,,,,,,,,5c0c90e7632102000147c3cc,2020-08-10_10h50.25.183,lexical_decision_task_MP,2020.1.3,Win32,60,m,1,0.719,,,,,,,,0.719,1,,,,,,166,WORD,UN,50,design,STARCH,m,,,,,,,0.125,-0.361979167,0,0,0,,0,375,375,225,1,
,,,,,,,,,,,,,,,,,,5c0c90e7632102000147c3cc,2020-08-10_10h50.25.183,lexical_decision_task_MP,2020.1.3,Win32,60,z,1,0.667,,,,,,,,0.667,1,,,,,,354,NW,UN,33,zingly,VIRLEX,z,,,,,,,0.125,-0.361979167,0,0,0,,0,376,376,413,1,
,,,,,,,,,,,,,,,,,,5c0c90e7632102000147c3cc,2020-08-10_10h50.25.183,lexical_decision_task_MP,2020.1.3,Win32,60,m,0,0.825,,,,,,,,0.825,0,,,,,,372,NW,UN,50,bigent,RAMILY,z,,,,,,,0.125,-0.361979167,0,0,0,,0,377,377,431,1,
,,,,,,,,,,,,,,,,,,5c0c90e7632102000147c3cc,2020-08-10_10h50.25.183,lexical_decision_task_MP,2020.1.3,Win32,60,m,1,0.802,,,,,,,,0.802,1,,,,,,175,WORD,UN,50,strife,FABRIC,m,,,,,,,0.125,-0.361979167,0,0,0,,0,378,378,234,1,
,,,,,,,,,,,,,,,,,,5c0c90e7632102000147c3cc,2020-08-10_10h50.25.183,lexical_decision_task_MP,2020.1.3,Win32,60,m,1,0.819,,,,,,,,0.819,1,,,,,,222,WORD,"ID",33,hinder,HINDER,m,,,,,,,0.125,-0.361979167,0,0,0,,0,379,379,41,1,
,,,,,,,,,,,,,,,,,,5c0c90e7632102000147c3cc,2020-08-10_10h50.25.183,lexical_decision_task_MP,2020.1.3,Win32,60,m,1,0.717,,,,,,,,0.717,1,,,,,,112,WORD,UN,33,chorus,BREATH,m,,,,,,,0.125,-0.361979167,0,0,0,,0,380,380,171,1,
,,,,,,,,,,,,,,,,,,5c0c90e7632102000147c3cc,2020-08-10_10h50.25.183,lexical_decision_task_MP,2020.1.3,Win32,60,m,1,0.899,,,,,,,,0.899,1,,,,,,100,WORD,UN,33,wrench,CARBON,m,,,,,,,0.125,-0.361979167,0,0,0,,0,381,381,159,1,
,,,,,,,,,,,,,,,,,,5c0c90e7632102000147c3cc,2020-08-10_10h50.25.183,lexical_decision_task_MP,2020.1.3,Win32,60,z,1,0.666,,,,,,,,0.666,1,,,,,,428,NW,"ID",33,tandly,TANDLY,z,,,,,,,0.125,-0.361979167,0,0,0,,0,382,382,247,1,
,,,,,,,,,,,,,,,,,,5c0c90e7632102000147c3cc,2020-08-10_10h50.25.183,lexical_decision_task_MP,2020.1.3,Win32,60,m,1,0.676,,,,,,,,0.676,1,,,,,,33,WORD,"ID",50,butler,BUTLER,m,,,,,,,0.125,-0.361979167,0,0,0,,0,383,383,92,1,
,,,,,,,,,,,,,,,,,,5c0c90e7632102000147c3cc,2020-08-10_10h50.25.183,lexical_decision_task_MP,2020.1.3,Win32,60,z,1,0.827,,,,,,,,0.827,1,,,,,,371,NW,UN,50,ramily,GEILOY,z,,,,,,,0.125,-0.361979167,0,0,0,,0,384,384,430,1,
,,,,,,,,,,,,,,,,,,5c0c90e7632102000147c3cc,2020-08-10_10h50.25.183,lexical_decision_task_MP,2020.1.3,Win32,60,z,1,0.832,,,,,,,,0.832,1,,,,,,350,NW,UN,33,tiesch,NAGURS,z,,,,,,,0.125,-0.361979167,0,0,0,,0,385,385,409,1,
,,,,,,,,,,,,,,,,,,5c0c90e7632102000147c3cc,2020-08-10_10h50.25.183,lexical_decision_task_MP,2020.1.3,Win32,60,m,1,0.772,,,,,,,,0.772,1,,,,,,108,WORD,UN,33,wonder,RECKON,m,,,,,,,0.125,-0.361979167,0,0,0,,0,386,386,167,1,
,,,,,,,,,,,,,,,,,,5c0c90e7632102000147c3cc,2020-08-10_10h50.25.183,lexical_decision_task_MP,2020.1.3,Win32,60,z,1,0.733,,,,,,,,0.733,1,,,,,,346,NW,UN,33,kerift,SAUDIC,z,,,,,,,0.125,-0.361979167,0,0,0,,0,387,387,405,1,
,,,,,,,,,,,,,,,,,,5c0c90e7632102000147c3cc,2020-08-10_10h50.25.183,lexical_decision_task_MP,2020.1.3,Win32,60,z,1,0.917,,,,,,,,0.917,1,,,,,,426,NW,"ID",33,urivel,URIVEL,z,,,,,,,0.125,-0.361979167,0,0,0,,0,388,388,245,1,
,,,,,,,,,,,,,,,,,,5c0c90e7632102000147c3cc,2020-08-10_10h50.25.183,lexical_decision_task_MP,2020.1.3,Win32,60,z,1,0.656,,,,,,,,0.656,1,,,,,,246,NW,"ID",50,piaton,PIATON,z,,,,,,,0.125,-0.361979167,0,0,0,,0,389,389,305,1,
,,,,,,,,,,,,,,,,,,5c0c90e7632102000147c3cc,2020-08-10_10h50.25.183,lexical_decision_task_MP,2020.1.3,Win32,60,z,1,0.866,,,,,,,,0.866,1,,,,,,444,NW,"ID",33,jaunce,JAUNCE,z,,,,,,,0.125,-0.361979167,0,0,0,,0,390,390,263,1,
,,,,,,,,,,,,,,,,,,5c0c90e7632102000147c3cc,2020-08-10_10h50.25.183,lexical_decision_task_MP,2020.1.3,Win32,60,m,1,0.982,,,,,,,,0.982,1,,,,,,6,WORD,"ID",50,bundle,BUNDLE,m,,,,,,,0.125,-0.361979167,0,0,0,,0,391,391,65,1,
,,,,,,,,,,,,,,,,,,5c0c90e7632102000147c3cc,2020-08-10_10h50.25.183,lexical_decision_task_MP,2020.1.3,Win32,60,m,1,0.716,,,,,,,,0.716,1,,,,,,93,WORD,UN,33,travel,PUBLIC,m,,,,,,,0.125,-0.361979167,0,0,0,,0,392,392,152,1,
,,,,,,,,,,,,,,,,,,5c0c90e7632102000147c3cc,2020-08-10_10h50.25.183,lexical_decision_task_MP,2020.1.3,Win32,60,z,1,0.717,,,,,,,,0.717,1,,,,,,304,NW,UN,33,forgle,CLUDIE,z,,,,,,,0.125,-0.361979167,0,0,0,,0,393,393,363,1,
,,,,,,,,,,,,,,,,,,5c0c90e7632102000147c3cc,2020-08-10_10h50.25.183,lexical_decision_task_MP,2020.1.3,Win32,60,z,1,0.683,,,,,,,,0.683,1,,,,,,241,NW,"ID",50,smenco,SMENCO,z,,,,,,,0.125,-0.361979167,0,0,0,,0,394,394,300,1,
,,,,,,,,,,,,,,,,,,5c0c90e7632102000147c3cc,2020-08-10_10h50.25.183,lexical_decision_task_MP,2020.1.3,Win32,60,z,1,0.903,,,,,,,,0.903,1,,,,,,250,NW,"ID",50,milted,MILTED,z,,,,,,,0.125,-0.361979167,0,0,0,,0,395,395,309,1,
,,,,,,,,,,,,,,,,,,5c0c90e7632102000147c3cc,2020-08-10_10h50.25.183,lexical_decision_task_MP,2020.1.3,Win32,60,m,1,0.756,,,,,,,,0.756,1,,,,,,34,WORD,"ID",50,jungle,JUNGLE,m,,,,,,,0.125,-0.361979167,0,0,0,,0,396,396,93,1,
,,,,,,,,,,,,,,,,,,5c0c90e7632102000147c3cc,2020-08-10_10h50.25.183,lexical_decision_task_MP,2020.1.3,Win32,60,z,1,0.833,,,,,,,,0.833,1,,,,,,353,NW,UN,33,virlex,CLUREY,z,,,,,,,0.125,-0.361979167,0,0,0,,0,397,397,412,1,
,,,,,,,,,,,,,,,,,,5c0c90e7632102000147c3cc,2020-08-10_10h50.25.183,lexical_decision_task_MP,2020.1.3,Win32,60,m,1,0.785,,,,,,,,0.785,1,,,,,,119,WORD,UN,33,strain,SPIDER,m,,,,,,,0.125,-0.361979167,0,0,0,,0,398,398,178,1,
,,,,,,,,,,,,,,,,,,5c0c90e7632102000147c3cc,2020-08-10_10h50.25.183,lexical_decision_task_MP,2020.1.3,Win32,60,m,1,0.643,,,,,,,,0.643,1,,,,,,197,WORD,"ID",33,stream,STREAM,m,,,,,,,0.125,-0.361979167,0,0,0,,0,399,399,16,1,
,,,,,,,,,,,,,,,,,,5c0c90e7632102000147c3cc,2020-08-10_10h50.25.183,lexical_decision_task_MP,2020.1.3,Win32,60,m,1,0.706,,,,,,,,0.706,1,,,,,,180,WORD,UN,50,thrive,SILENT,m,,,,,,,0.125,-0.361979167,0,0,0,,0,400,400,239,1,
,,,,,,,,,,,,,,,,,,5c0c90e7632102000147c3cc,2020-08-10_10h50.25.183,lexical_decision_task_MP,2020.1.3,Win32,60,m,1,0.64,,,,,,,,0.64,1,,,,,,109,WORD,UN,33,polite,WONDER,m,,,,,,,0.125,-0.361979167,0,0,0,,0,401,401,168,1,
,,,,,,,,,,,,,,,,,,5c0c90e7632102000147c3cc,2020-08-10_10h50.25.183,lexical_decision_task_MP,2020.1.3,Win32,60,z,1,0.857,,,,,,,,0.857,1,,,,,,342,NW,UN,33,aimosy,RANDOW,z,,,,,,,0.125,-0.361979167,0,0,0,,0,402,402,401,1,
,,,,,,,,,,,,,,,,,,5c0c90e7632102000147c3cc,2020-08-10_10h50.25.183,lexical_decision_task_MP,2020.1.3,Win32,60,z,1,0.683,,,,,,,,0.683,1,,,,,,391,NW,UN,50,rouncy,THELDY,z,,,,,,,0.125,-0.361979167,0,0,0,,0,403,403,450,1,
,,,,,,,,,,,,,,,,,,5c0c90e7632102000147c3cc,2020-08-10_10h50.25.183,lexical_decision_task_MP,2020.1.3,Win32,60,z,1,0.877,,,,,,,,0.877,1,,,,,,260,NW,"ID",50,unject,UNJECT,z,,,,,,,0.125,-0.361979167,0,0,0,,0,404,404,319,1,
,,,,,,,,,,,,,,,,,,5c0c90e7632102000147c3cc,2020-08-10_10h50.25.183,lexical_decision_task_MP,2020.1.3,Win32,60,m,0,1.416,,,,,,,,1.416,0,,,,,,468,NW,"ID",33,wictor,WICTOR,z,,,,,,,0.125,-0.361979167,0,0,0,,0,405,405,287,1,
,,,,,,,,,,,,,,,,,,5c0c90e7632102000147c3cc,2020-08-10_10h50.25.183,lexical_decision_task_MP,2020.1.3,Win32,60,z,1,0.916,,,,,,,,0.916,1,,,,,,418,NW,UN,50,slount,SUIDLE,z,,,,,,,0.125,-0.361979167,0,0,0,,0,406,406,477,1,
,,,,,,,,,,,,,,,,,,5c0c90e7632102000147c3cc,2020-08-10_10h50.25.183,lexical_decision_task_MP,2020.1.3,Win32,60,z,1,0.737,,,,,,,,0.737,1,,,,,,311,NW,UN,33,nerawl,SPROLY,z,,,,,,,0.125,-0.361979167,0,0,0,,0,407,407,370,1,
,,,,,,,,,,,,,,,,,,5c0c90e7632102000147c3cc,2020-08-10_10h50.25.183,lexical_decision_task_MP,2020.1.3,Win32,60,z,1,0.668,,,,,,,,0.668,1,,,,,,290,NW,"ID",50,splino,SPLINO,z,,,,,,,0.125,-0.361979167,0,0,0,,0,408,408,349,1,
,,,,,,,,,,,,,,,,,,5c0c90e7632102000147c3cc,2020-08-10_10h50.25.183,lexical_decision_task_MP,2020.1.3,Win32,60,z,0,0.684,,,,,,,,0.684,0,,,,,,61,WORD,UN,33,region,PONDER,m,,,,,,,0.125,-0.361979167,0,0,0,,0,409,409,120,1,
,,,,,,,,,,,,,,,,,,5c0c90e7632102000147c3cc,2020-08-10_10h50.25.183,lexical_decision_task_MP,2020.1.3,Win32,60,z,1,1.233,,,,,,,,1.233,1,,,,,,420,NW,UN,50,pauche,GUSHOP,z,,,,,,,0.125,-0.361979167,0,0,0,,0,410,410,479,1,
,,,,,,,,,,,,,,,,,,5c0c90e7632102000147c3cc,2020-08-10_10h50.25.183,lexical_decision_task_MP,2020.1.3,Win32,60,m,1,1.009,,,,,,,,1.009,1,,,,,,162,WORD,UN,50,string,CANDLE,m,,,,,,,0.125,-0.361979167,0,0,0,,0,411,411,221,1,
,,,,,,,,,,,,,,,,,,5c0c90e7632102000147c3cc,2020-08-10_10h50.25.183,lexical_decision_task_MP,2020.1.3,Win32,60,z,1,0.982,,,,,,,,0.982,1,,,,,,380,NW,UN,50,huniek,CAVORY,z,,,,,,,0.125,-0.361979167,0,0,0,,0,412,412,439,1,
,,,,,,,,,,,,,,,,,,5c0c90e7632102000147c3cc,2020-08-10_10h50.25.183,lexical_decision_task_MP,2020.1.3,Win32,60,z,1,0.883,,,,,,,,0.883,1,,,,,,449,NW,"ID",33,brunge,BRUNGE,z,,,,,,,0.125,-0.361979167,0,0,0,,0,413,413,268,1,
,,,,,,,,,,,,,,,,,,5c0c90e7632102000147c3cc,2020-08-10_10h50.25.183,lexical_decision_task_MP,2020.1.3,Win32,60,m,1,0.815,,,,,,,,0.815,1,,,,,,182,WORD,"ID",33,winter,WINTER,m,,,,,,,0.125,-0.361979167,0,0,0,,0,414,414,1,1,
,,,,,,,,,,,,,,,,,,5c0c90e7632102000147c3cc,2020-08-10_10h50.25.183,lexical_decision_task_MP,2020.1.3,Win32,60,z,1,1.188,,,,,,,,1.188,1,,,,,,467,NW,"ID",33,gorbie,GORBIE,z,,,,,,,0.125,-0.361979167,0,0,0,,0,415,415,286,1,
,,,,,,,,,,,,,,,,,,5c0c90e7632102000147c3cc,2020-08-10_10h50.25.183,lexical_decision_task_MP,2020.1.3,Win32,60,m,1,0.75,,,,,,,,0.75,1,,,,,,164,WORD,UN,50,invest,MARKET,m,,,,,,,0.125,-0.361979167,0,0,0,,0,416,416,223,1,
