counterbalancing_condition,instr_done_keyboard.keys,instr_done_keyboard.rt,instr_done_touch.x,instr_done_touch.y,instr_done_touch.leftButton,instr_done_touch.midButton,instr_done_touch.rightButton,instruction_pages.thisRepN,instruction_pages.thisTrialN,instruction_pages.thisN,instruction_pages.thisIndex,instruction_pages.ran,pageN,phase,instruct_text,has_image,instruct_image,participant,date,expName,psychopyVersion,OS,frameRate,response.keys,response.corr,response.rt,touch_resp.x,touch_resp.y,touch_resp.leftButton,touch_resp.midButton,touch_resp.rightButton,touch_resp.time,touch_resp.clicked_name,rt,corr,practice_trials.thisRepN,practice_trials.thisTrialN,practice_trials.thisN,practice_trials.thisIndex,practice_trials.ran,TrialID,StimulusType,Condition,PrimeDuration,Prime,Target,corrAns,end_of_practice_trials_pages.thisRepN,end_of_practice_trials_pages.thisTrialN,end_of_practice_trials_pages.thisN,end_of_practice_trials_pages.thisIndex,end_of_practice_trials_pages.ran,break_done_touch.x,break_done_touch.y,break_done_touch.leftButton,break_done_touch.midButton,break_done_touch.rightButton,break_done_keyboard.keys,trials.thisRepN,trials.thisTrialN,trials.thisN,trials.thisIndex,trials.ran,break_done_keyboard.rt,break_done_touch.clicked_name
0,space,25.677,0.117777778,-0.177777778,0,0,0,0,0,0,0,1,1,instructions,"INSTRUCTIONS
At the start of each trial, look at the hash marks (######) in the center of the screen. After a moment, a string of letters will appear. Your task is to indicate if the letter string forms a word or not (i.e., if it is a nonword). For example, AUTHOR is a word while AUTHON is a nonword.

Press the space bar or touch the button below to continue.",0,,5c0da14d656168000159da7a,2020-08-10_13h20.20.779,lexical_decision_task_MP,2020.1.3,Win32,60,,,,,,,,,,,,,,,,,,,,,,,,,,,,,,,,,,,,,,,,,,
,space,15.471,0.117777778,-0.177777778,0,0,0,0,1,1,1,1,2,instructions,"If your device has a keyboard, press the 'Z' key for nonwords and the 'M' key for words.





Press the space bar or touch the button below to continue.",1,keyboard-example.gif,5c0da14d656168000159da7a,2020-08-10_13h20.20.779,lexical_decision_task_MP,2020.1.3,Win32,60,,,,,,,,,,,,,,,,,,,,,,,,,,,,,,,,,,,,,,,,,,
,space,6.855,0.117777778,-0.177777778,0,0,0,0,2,2,2,1,3,instructions,"If you are using a touchscreen only device, use the buttons on the screen. Do not use the mouse.





Press the space bar or touch the button below to continue.",1,touchscreen-example.gif,5c0da14d656168000159da7a,2020-08-10_13h20.20.779,lexical_decision_task_MP,2020.1.3,Win32,60,,,,,,,,,,,,,,,,,,,,,,,,,,,,,,,,,,,,,,,,,,
,space,29.135,0.117777778,-0.177777778,0,0,0,0,3,3,3,1,4,instructions,"It is very important that you respond as quickly and accurately as possible, as each letter string will only be on the screen for two seconds. If you do not respond within this time, the message 'Too slow!' will be displayed and the experiment will progress to the next letter string. The first 20 trials will be practice trials and you will receive feedback on your answers. 

Press the space bar or touch the button below to start the practice trials.",0,,5c0da14d656168000159da7a,2020-08-10_13h20.20.779,lexical_decision_task_MP,2020.1.3,Win32,60,,,,,,,,,,,,,,,,,,,,,,,,,,,,,,,,,,,,,,,,,,
,,,,,,,,,,,,,,,,,,5c0da14d656168000159da7a,2020-08-10_13h20.20.779,lexical_decision_task_MP,2020.1.3,Win32,60,m,1,1.537,,,,,,,,1.537,1,0,0,0,6,1,1007,WORD,UN,50,tropic,ZOMBIE,m,,,,,,,,,,,,,,,,,,
,,,,,,,,,,,,,,,,,,5c0da14d656168000159da7a,2020-08-10_13h20.20.779,lexical_decision_task_MP,2020.1.3,Win32,60,z,1,0.921,,,,,,,,0.921,1,0,1,1,12,1,1013,NW,UN,33,adveil,SPRINY,z,,,,,,,,,,,,,,,,,,
,,,,,,,,,,,,,,,,,,5c0da14d656168000159da7a,2020-08-10_13h20.20.779,lexical_decision_task_MP,2020.1.3,Win32,60,z,1,0.673,,,,,,,,0.673,1,0,2,2,13,1,1014,NW,UN,33,winfer,ROUPET,z,,,,,,,,,,,,,,,,,,
,,,,,,,,,,,,,,,,,,5c0da14d656168000159da7a,2020-08-10_13h20.20.779,lexical_decision_task_MP,2020.1.3,Win32,60,m,1,0.717,,,,,,,,0.717,1,0,3,3,3,1,1004,WORD,"ID",50,matrix,MATRIX,m,,,,,,,,,,,,,,,,,,
,,,,,,,,,,,,,,,,,,5c0da14d656168000159da7a,2020-08-10_13h20.20.779,lexical_decision_task_MP,2020.1.3,Win32,60,z,1,0.705,,,,,,,,0.705,1,0,4,4,8,1,1009,NW,"ID",33,aslert,ASLERT,z,,,,,,,,,,,,,,,,,,
,,,,,,,,,,,,,,,,,,5c0da14d656168000159da7a,2020-08-10_13h20.20.779,lexical_decision_task_MP,2020.1.3,Win32,60,z,1,0.689,,,,,,,,0.689,1,0,5,5,11,1,1012,NW,"ID",50,rashet,RASHET,z,,,,,,,,,,,,,,,,,,
,,,,,,,,,,,,,,,,,,5c0da14d656168000159da7a,2020-08-10_13h20.20.779,lexical_decision_task_MP,2020.1.3,Win32,60,z,1,0.604,,,,,,,,0.604,1,0,6,6,9,1,1010,NW,"ID",33,fariny,FARINY,z,,,,,,,,,,,,,,,,,,
,,,,,,,,,,,,,,,,,,5c0da14d656168000159da7a,2020-08-10_13h20.20.779,lexical_decision_task_MP,2020.1.3,Win32,60,m,1,0.501,,,,,,,,0.501,1,0,7,7,2,1,1003,WORD,"ID",50,almond,ALMOND,m,,,,,,,,,,,,,,,,,,
,,,,,,,,,,,,,,,,,,5c0da14d656168000159da7a,2020-08-10_13h20.20.779,lexical_decision_task_MP,2020.1.3,Win32,60,m,1,0.584,,,,,,,,0.584,1,0,8,8,7,1,1008,WORD,UN,50,hurdle,VOLUME,m,,,,,,,,,,,,,,,,,,
,,,,,,,,,,,,,,,,,,5c0da14d656168000159da7a,2020-08-10_13h20.20.779,lexical_decision_task_MP,2020.1.3,Win32,60,m,1,0.649,,,,,,,,0.649,1,0,9,9,4,1,1005,WORD,UN,33,abound,SQUEAK,m,,,,,,,,,,,,,,,,,,
,,,,,,,,,,,,,,,,,,5c0da14d656168000159da7a,2020-08-10_13h20.20.779,lexical_decision_task_MP,2020.1.3,Win32,60,m,1,0.65,,,,,,,,0.65,1,0,10,10,5,1,1006,WORD,UN,33,frenzy,OBTAIN,m,,,,,,,,,,,,,,,,,,
,,,,,,,,,,,,,,,,,,5c0da14d656168000159da7a,2020-08-10_13h20.20.779,lexical_decision_task_MP,2020.1.3,Win32,60,z,1,0.685,,,,,,,,0.685,1,0,11,11,15,1,1016,NW,UN,50,mushed,WHAISE,z,,,,,,,,,,,,,,,,,,
,,,,,,,,,,,,,,,,,,5c0da14d656168000159da7a,2020-08-10_13h20.20.779,lexical_decision_task_MP,2020.1.3,Win32,60,z,1,0.587,,,,,,,,0.587,1,0,12,12,14,1,1015,NW,UN,50,miaber,THRALE,z,,,,,,,,,,,,,,,,,,
,,,,,,,,,,,,,,,,,,5c0da14d656168000159da7a,2020-08-10_13h20.20.779,lexical_decision_task_MP,2020.1.3,Win32,60,m,1,0.582,,,,,,,,0.582,1,0,13,13,1,1,1002,WORD,"ID",33,adjust,ADJUST,m,,,,,,,,,,,,,,,,,,
,,,,,,,,,,,,,,,,,,5c0da14d656168000159da7a,2020-08-10_13h20.20.779,lexical_decision_task_MP,2020.1.3,Win32,60,m,1,0.634,,,,,,,,0.634,1,0,14,14,0,1,1001,WORD,"ID",33,utopia,UTOPIA,m,,,,,,,,,,,,,,,,,,
,,,,,,,,,,,,,,,,,,5c0da14d656168000159da7a,2020-08-10_13h20.20.779,lexical_decision_task_MP,2020.1.3,Win32,60,z,1,0.7,,,,,,,,0.7,1,0,15,15,10,1,1011,NW,"ID",50,inlade,INLADE,z,,,,,,,,,,,,,,,,,,
,space,32.823,0.117777778,-0.177777778,0,0,0,,,,,,1,end_of_practice,"You have completed the practice trials. During the experimental trials, you will not receive feedback, but it is very important that you respond as quickly and accurately as possible. 
Before you begin, please ensure that you are in a comfortable and quiet location and will not be disturbed for about 15 minutes, as we cannot use your data if you do not complete all the trials. 
There will be opportunities to take breaks at regular intervals during the experiment. When you are ready to start the experimental trials, please press space or touch the button below.",,,5c0da14d656168000159da7a,2020-08-10_13h20.20.779,lexical_decision_task_MP,2020.1.3,Win32,60,,,,,,,,,,,,,,,,,,,,,,,,,0,0,0,0,1,,,,,,,,,,,,,
,,,,,,,,,,,,,,,,,,5c0da14d656168000159da7a,2020-08-10_13h20.20.779,lexical_decision_task_MP,2020.1.3,Win32,60,m,1,0.687,,,,,,,,0.687,1,,,,,,6,WORD,"ID",50,bundle,BUNDLE,m,,,,,,0.117777778,-0.177777778,0,0,0,,0,0,0,65,1,,
,,,,,,,,,,,,,,,,,,5c0da14d656168000159da7a,2020-08-10_13h20.20.779,lexical_decision_task_MP,2020.1.3,Win32,60,m,0,1.203,,,,,,,,1.203,0,,,,,,303,NW,UN,33,cludie,FIREAM,z,,,,,,0.117777778,-0.177777778,0,0,0,,0,1,1,362,1,,
,,,,,,,,,,,,,,,,,,5c0da14d656168000159da7a,2020-08-10_13h20.20.779,lexical_decision_task_MP,2020.1.3,Win32,60,z,1,0.934,,,,,,,,0.934,1,,,,,,462,NW,"ID",33,absult,ABSULT,z,,,,,,0.117777778,-0.177777778,0,0,0,,0,2,2,281,1,,
,,,,,,,,,,,,,,,,,,5c0da14d656168000159da7a,2020-08-10_13h20.20.779,lexical_decision_task_MP,2020.1.3,Win32,60,m,1,0.969,,,,,,,,0.969,1,,,,,,56,WORD,"ID",50,ambush,AMBUSH,m,,,,,,0.117777778,-0.177777778,0,0,0,,0,3,3,115,1,,
,,,,,,,,,,,,,,,,,,5c0da14d656168000159da7a,2020-08-10_13h20.20.779,lexical_decision_task_MP,2020.1.3,Win32,60,z,1,0.69,,,,,,,,0.69,1,,,,,,399,NW,UN,50,wearox,FOURET,z,,,,,,0.117777778,-0.177777778,0,0,0,,0,4,4,458,1,,
,,,,,,,,,,,,,,,,,,5c0da14d656168000159da7a,2020-08-10_13h20.20.779,lexical_decision_task_MP,2020.1.3,Win32,60,m,1,0.886,,,,,,,,0.886,1,,,,,,1,WORD,"ID",50,fright,FRIGHT,m,,,,,,0.117777778,-0.177777778,0,0,0,,0,5,5,60,1,,
,,,,,,,,,,,,,,,,,,5c0da14d656168000159da7a,2020-08-10_13h20.20.779,lexical_decision_task_MP,2020.1.3,Win32,60,m,1,0.668,,,,,,,,0.668,1,,,,,,99,WORD,UN,33,carbon,FLUENT,m,,,,,,0.117777778,-0.177777778,0,0,0,,0,6,6,158,1,,
,,,,,,,,,,,,,,,,,,5c0da14d656168000159da7a,2020-08-10_13h20.20.779,lexical_decision_task_MP,2020.1.3,Win32,60,m,1,0.555,,,,,,,,0.555,1,,,,,,192,WORD,"ID",33,plague,PLAGUE,m,,,,,,0.117777778,-0.177777778,0,0,0,,0,7,7,11,1,,
,,,,,,,,,,,,,,,,,,5c0da14d656168000159da7a,2020-08-10_13h20.20.779,lexical_decision_task_MP,2020.1.3,Win32,60,m,1,0.622,,,,,,,,0.622,1,,,,,,86,WORD,UN,33,filter,RODENT,m,,,,,,0.117777778,-0.177777778,0,0,0,,0,8,8,145,1,,
,,,,,,,,,,,,,,,,,,5c0da14d656168000159da7a,2020-08-10_13h20.20.779,lexical_decision_task_MP,2020.1.3,Win32,60,m,1,0.635,,,,,,,,0.635,1,,,,,,178,WORD,UN,50,basket,INFORM,m,,,,,,0.117777778,-0.177777778,0,0,0,,0,9,9,237,1,,
,,,,,,,,,,,,,,,,,,5c0da14d656168000159da7a,2020-08-10_13h20.20.779,lexical_decision_task_MP,2020.1.3,Win32,60,z,1,0.668,,,,,,,,0.668,1,,,,,,263,NW,"ID",50,dolica,DOLICA,z,,,,,,0.117777778,-0.177777778,0,0,0,,0,10,10,322,1,,
,,,,,,,,,,,,,,,,,,5c0da14d656168000159da7a,2020-08-10_13h20.20.779,lexical_decision_task_MP,2020.1.3,Win32,60,m,1,0.619,,,,,,,,0.619,1,,,,,,115,WORD,UN,33,tumble,GUITAR,m,,,,,,0.117777778,-0.177777778,0,0,0,,0,11,11,174,1,,
,,,,,,,,,,,,,,,,,,5c0da14d656168000159da7a,2020-08-10_13h20.20.779,lexical_decision_task_MP,2020.1.3,Win32,60,m,1,0.555,,,,,,,,0.555,1,,,,,,36,WORD,"ID",50,vanish,VANISH,m,,,,,,0.117777778,-0.177777778,0,0,0,,0,12,12,95,1,,
,,,,,,,,,,,,,,,,,,5c0da14d656168000159da7a,2020-08-10_13h20.20.779,lexical_decision_task_MP,2020.1.3,Win32,60,m,1,0.567,,,,,,,,0.567,1,,,,,,159,WORD,UN,50,violet,DETAIL,m,,,,,,0.117777778,-0.177777778,0,0,0,,0,13,13,218,1,,
,,,,,,,,,,,,,,,,,,5c0da14d656168000159da7a,2020-08-10_13h20.20.779,lexical_decision_task_MP,2020.1.3,Win32,60,m,1,0.535,,,,,,,,0.535,1,,,,,,226,WORD,"ID",33,casino,CASINO,m,,,,,,0.117777778,-0.177777778,0,0,0,,0,14,14,45,1,,
,,,,,,,,,,,,,,,,,,5c0da14d656168000159da7a,2020-08-10_13h20.20.779,lexical_decision_task_MP,2020.1.3,Win32,60,z,1,0.689,,,,,,,,0.689,1,,,,,,434,NW,"ID",33,pitrom,PITROM,z,,,,,,0.117777778,-0.177777778,0,0,0,,0,15,15,253,1,,
,,,,,,,,,,,,,,,,,,5c0da14d656168000159da7a,2020-08-10_13h20.20.779,lexical_decision_task_MP,2020.1.3,Win32,60,z,1,0.735,,,,,,,,0.735,1,,,,,,398,NW,UN,50,fouret,BLUNDE,z,,,,,,0.117777778,-0.177777778,0,0,0,,0,16,16,457,1,,
,,,,,,,,,,,,,,,,,,5c0da14d656168000159da7a,2020-08-10_13h20.20.779,lexical_decision_task_MP,2020.1.3,Win32,60,m,1,0.57,,,,,,,,0.57,1,,,,,,57,WORD,"ID",50,change,CHANGE,m,,,,,,0.117777778,-0.177777778,0,0,0,,0,17,17,116,1,,
,,,,,,,,,,,,,,,,,,5c0da14d656168000159da7a,2020-08-10_13h20.20.779,lexical_decision_task_MP,2020.1.3,Win32,60,m,1,0.541,,,,,,,,0.541,1,,,,,,44,WORD,"ID",50,danger,DANGER,m,,,,,,0.117777778,-0.177777778,0,0,0,,0,18,18,103,1,,
,,,,,,,,,,,,,,,,,,5c0da14d656168000159da7a,2020-08-10_13h20.20.779,lexical_decision_task_MP,2020.1.3,Win32,60,z,1,0.667,,,,,,,,0.667,1,,,,,,273,NW,"ID",50,sortel,SORTEL,z,,,,,,0.117777778,-0.177777778,0,0,0,,0,19,19,332,1,,
,,,,,,,,,,,,,,,,,,5c0da14d656168000159da7a,2020-08-10_13h20.20.779,lexical_decision_task_MP,2020.1.3,Win32,60,m,1,0.616,,,,,,,,0.616,1,,,,,,214,WORD,"ID",33,intake,INTAKE,m,,,,,,0.117777778,-0.177777778,0,0,0,,0,20,20,33,1,,
,,,,,,,,,,,,,,,,,,5c0da14d656168000159da7a,2020-08-10_13h20.20.779,lexical_decision_task_MP,2020.1.3,Win32,60,m,1,0.534,,,,,,,,0.534,1,,,,,,83,WORD,UN,33,mortal,RESULT,m,,,,,,0.117777778,-0.177777778,0,0,0,,0,21,21,142,1,,
,,,,,,,,,,,,,,,,,,5c0da14d656168000159da7a,2020-08-10_13h20.20.779,lexical_decision_task_MP,2020.1.3,Win32,60,m,1,0.641,,,,,,,,0.641,1,,,,,,212,WORD,"ID",33,verify,VERIFY,m,,,,,,0.117777778,-0.177777778,0,0,0,,0,22,22,31,1,,
,,,,,,,,,,,,,,,,,,5c0da14d656168000159da7a,2020-08-10_13h20.20.779,lexical_decision_task_MP,2020.1.3,Win32,60,m,1,0.657,,,,,,,,0.657,1,,,,,,197,WORD,"ID",33,stream,STREAM,m,,,,,,0.117777778,-0.177777778,0,0,0,,0,23,23,16,1,,
,,,,,,,,,,,,,,,,,,5c0da14d656168000159da7a,2020-08-10_13h20.20.779,lexical_decision_task_MP,2020.1.3,Win32,60,m,1,0.537,,,,,,,,0.537,1,,,,,,63,WORD,UN,33,throne,LAUNCH,m,,,,,,0.117777778,-0.177777778,0,0,0,,0,24,24,122,1,,
,,,,,,,,,,,,,,,,,,5c0da14d656168000159da7a,2020-08-10_13h20.20.779,lexical_decision_task_MP,2020.1.3,Win32,60,m,1,0.6,,,,,,,,0.6,1,,,,,,230,WORD,"ID",33,fringe,FRINGE,m,,,,,,0.117777778,-0.177777778,0,0,0,,0,25,25,49,1,,
,,,,,,,,,,,,,,,,,,5c0da14d656168000159da7a,2020-08-10_13h20.20.779,lexical_decision_task_MP,2020.1.3,Win32,60,m,1,0.534,,,,,,,,0.534,1,,,,,,238,WORD,"ID",33,flower,FLOWER,m,,,,,,0.117777778,-0.177777778,0,0,0,,0,26,26,57,1,,
,,,,,,,,,,,,,,,,,,5c0da14d656168000159da7a,2020-08-10_13h20.20.779,lexical_decision_task_MP,2020.1.3,Win32,60,z,1,0.616,,,,,,,,0.616,1,,,,,,415,NW,UN,50,pathel,HIGSTA,z,,,,,,0.117777778,-0.177777778,0,0,0,,0,27,27,474,1,,
,,,,,,,,,,,,,,,,,,5c0da14d656168000159da7a,2020-08-10_13h20.20.779,lexical_decision_task_MP,2020.1.3,Win32,60,m,1,0.551,,,,,,,,0.551,1,,,,,,100,WORD,UN,33,wrench,CARBON,m,,,,,,0.117777778,-0.177777778,0,0,0,,0,28,28,159,1,,
,,,,,,,,,,,,,,,,,,5c0da14d656168000159da7a,2020-08-10_13h20.20.779,lexical_decision_task_MP,2020.1.3,Win32,60,m,1,0.501,,,,,,,,0.501,1,,,,,,33,WORD,"ID",50,butler,BUTLER,m,,,,,,0.117777778,-0.177777778,0,0,0,,0,29,29,92,1,,
,,,,,,,,,,,,,,,,,,5c0da14d656168000159da7a,2020-08-10_13h20.20.779,lexical_decision_task_MP,2020.1.3,Win32,60,m,1,0.485,,,,,,,,0.485,1,,,,,,235,WORD,"ID",33,grumpy,GRUMPY,m,,,,,,0.117777778,-0.177777778,0,0,0,,0,30,30,54,1,,
,,,,,,,,,,,,,,,,,,5c0da14d656168000159da7a,2020-08-10_13h20.20.779,lexical_decision_task_MP,2020.1.3,Win32,60,m,1,0.567,,,,,,,,0.567,1,,,,,,79,WORD,UN,33,family,THEORY,m,,,,,,0.117777778,-0.177777778,0,0,0,,0,31,31,138,1,,
,,,,,,,,,,,,,,,,,,5c0da14d656168000159da7a,2020-08-10_13h20.20.779,lexical_decision_task_MP,2020.1.3,Win32,60,m,1,0.583,,,,,,,,0.583,1,,,,,,68,WORD,UN,33,plenty,FUMBLE,m,,,,,,0.117777778,-0.177777778,0,0,0,,0,32,32,127,1,,
,,,,,,,,,,,,,,,,,,5c0da14d656168000159da7a,2020-08-10_13h20.20.779,lexical_decision_task_MP,2020.1.3,Win32,60,z,1,0.641,,,,,,,,0.641,1,,,,,,249,NW,"ID",50,batrol,BATROL,z,,,,,,0.117777778,-0.177777778,0,0,0,,0,33,33,308,1,,
,,,,,,,,,,,,,,,,,,5c0da14d656168000159da7a,2020-08-10_13h20.20.779,lexical_decision_task_MP,2020.1.3,Win32,60,m,1,0.551,,,,,,,,0.551,1,,,,,,195,WORD,"ID",33,resign,RESIGN,m,,,,,,0.117777778,-0.177777778,0,0,0,,0,34,34,14,1,,
,,,,,,,,,,,,,,,,,,5c0da14d656168000159da7a,2020-08-10_13h20.20.779,lexical_decision_task_MP,2020.1.3,Win32,60,m,1,0.707,,,,,,,,0.707,1,,,,,,166,WORD,UN,50,design,STARCH,m,,,,,,0.117777778,-0.177777778,0,0,0,,0,35,35,225,1,,
,,,,,,,,,,,,,,,,,,5c0da14d656168000159da7a,2020-08-10_13h20.20.779,lexical_decision_task_MP,2020.1.3,Win32,60,m,1,0.618,,,,,,,,0.618,1,,,,,,189,WORD,"ID",33,censor,CENSOR,m,,,,,,0.117777778,-0.177777778,0,0,0,,0,36,36,8,1,,
,,,,,,,,,,,,,,,,,,5c0da14d656168000159da7a,2020-08-10_13h20.20.779,lexical_decision_task_MP,2020.1.3,Win32,60,m,1,0.45,,,,,,,,0.45,1,,,,,,47,WORD,"ID",50,income,INCOME,m,,,,,,0.117777778,-0.177777778,0,0,0,,0,37,37,106,1,,
,,,,,,,,,,,,,,,,,,5c0da14d656168000159da7a,2020-08-10_13h20.20.779,lexical_decision_task_MP,2020.1.3,Win32,60,z,1,0.637,,,,,,,,0.637,1,,,,,,257,NW,"ID",50,veniod,VENIOD,z,,,,,,0.117777778,-0.177777778,0,0,0,,0,38,38,316,1,,
,,,,,,,,,,,,,,,,,,5c0da14d656168000159da7a,2020-08-10_13h20.20.779,lexical_decision_task_MP,2020.1.3,Win32,60,m,1,0.701,,,,,,,,0.701,1,,,,,,177,WORD,UN,50,inform,ADVENT,m,,,,,,0.117777778,-0.177777778,0,0,0,,0,39,39,236,1,,
,,,,,,,,,,,,,,,,,,5c0da14d656168000159da7a,2020-08-10_13h20.20.779,lexical_decision_task_MP,2020.1.3,Win32,60,m,1,0.553,,,,,,,,0.553,1,,,,,,160,WORD,UN,50,pastor,VIOLET,m,,,,,,0.117777778,-0.177777778,0,0,0,,0,40,40,219,1,,
,,,,,,,,,,,,,,,,,,5c0da14d656168000159da7a,2020-08-10_13h20.20.779,lexical_decision_task_MP,2020.1.3,Win32,60,m,1,0.586,,,,,,,,0.586,1,,,,,,3,WORD,"ID",50,knight,KNIGHT,m,,,,,,0.117777778,-0.177777778,0,0,0,,0,41,41,62,1,,
,,,,,,,,,,,,,,,,,,5c0da14d656168000159da7a,2020-08-10_13h20.20.779,lexical_decision_task_MP,2020.1.3,Win32,60,z,1,0.724,,,,,,,,0.724,1,,,,,,360,NW,UN,33,fainch,DESORY,z,,,,,,0.117777778,-0.177777778,0,0,0,,0,42,42,419,1,,
,,,,,,,,,,,,,,,,,,5c0da14d656168000159da7a,2020-08-10_13h20.20.779,lexical_decision_task_MP,2020.1.3,Win32,60,m,1,0.567,,,,,,,,0.567,1,,,,,,28,WORD,"ID",50,comedy,COMEDY,m,,,,,,0.117777778,-0.177777778,0,0,0,,0,43,43,87,1,,
,,,,,,,,,,,,,,,,,,5c0da14d656168000159da7a,2020-08-10_13h20.20.779,lexical_decision_task_MP,2020.1.3,Win32,60,m,1,0.635,,,,,,,,0.635,1,,,,,,69,WORD,UN,33,square,PLENTY,m,,,,,,0.117777778,-0.177777778,0,0,0,,0,44,44,128,1,,
,,,,,,,,,,,,,,,,,,5c0da14d656168000159da7a,2020-08-10_13h20.20.779,lexical_decision_task_MP,2020.1.3,Win32,60,m,1,0.642,,,,,,,,0.642,1,,,,,,7,WORD,"ID",50,anchor,ANCHOR,m,,,,,,0.117777778,-0.177777778,0,0,0,,0,45,45,66,1,,
,,,,,,,,,,,,,,,,,,5c0da14d656168000159da7a,2020-08-10_13h20.20.779,lexical_decision_task_MP,2020.1.3,Win32,60,z,1,0.684,,,,,,,,0.684,1,,,,,,439,NW,"ID",33,limpor,LIMPOR,z,,,,,,0.117777778,-0.177777778,0,0,0,,0,46,46,258,1,,
,,,,,,,,,,,,,,,,,,5c0da14d656168000159da7a,2020-08-10_13h20.20.779,lexical_decision_task_MP,2020.1.3,Win32,60,m,1,0.5,,,,,,,,0.5,1,,,,,,211,WORD,"ID",33,infect,INFECT,m,,,,,,0.117777778,-0.177777778,0,0,0,,0,47,47,30,1,,
,,,,,,,,,,,,,,,,,,5c0da14d656168000159da7a,2020-08-10_13h20.20.779,lexical_decision_task_MP,2020.1.3,Win32,60,m,1,0.667,,,,,,,,0.667,1,,,,,,113,WORD,UN,33,placid,CHORUS,m,,,,,,0.117777778,-0.177777778,0,0,0,,0,48,48,172,1,,
,,,,,,,,,,,,,,,,,,5c0da14d656168000159da7a,2020-08-10_13h20.20.779,lexical_decision_task_MP,2020.1.3,Win32,60,m,1,0.651,,,,,,,,0.651,1,,,,,,213,WORD,"ID",33,squeal,SQUEAL,m,,,,,,0.117777778,-0.177777778,0,0,0,,0,49,49,32,1,,
,,,,,,,,,,,,,,,,,,5c0da14d656168000159da7a,2020-08-10_13h20.20.779,lexical_decision_task_MP,2020.1.3,Win32,60,z,1,0.768,,,,,,,,0.768,1,,,,,,445,NW,"ID",33,minkel,MINKEL,z,,,,,,0.117777778,-0.177777778,0,0,0,,0,50,50,264,1,,
,,,,,,,,,,,,,,,,,,5c0da14d656168000159da7a,2020-08-10_13h20.20.779,lexical_decision_task_MP,2020.1.3,Win32,60,m,1,0.604,,,,,,,,0.604,1,,,,,,210,WORD,"ID",33,monkey,MONKEY,m,,,,,,0.117777778,-0.177777778,0,0,0,,0,51,51,29,1,,
,,,,,,,,,,,,,,,,,,5c0da14d656168000159da7a,2020-08-10_13h20.20.779,lexical_decision_task_MP,2020.1.3,Win32,60,z,1,0.833,,,,,,,,0.833,1,,,,,,293,NW,"ID",50,swance,SWANCE,z,,,,,,0.117777778,-0.177777778,0,0,0,,0,52,52,352,1,,
,,,,,,,,,,,,,,,,,,5c0da14d656168000159da7a,2020-08-10_13h20.20.779,lexical_decision_task_MP,2020.1.3,Win32,60,m,1,0.668,,,,,,,,0.668,1,,,,,,171,WORD,UN,50,patrol,DEPART,m,,,,,,0.117777778,-0.177777778,0,0,0,,0,53,53,230,1,,
,,,,,,,,,,,,,,,,,,5c0da14d656168000159da7a,2020-08-10_13h20.20.779,lexical_decision_task_MP,2020.1.3,Win32,60,z,1,0.703,,,,,,,,0.703,1,,,,,,262,NW,"ID",50,quilew,QUILEW,z,,,,,,0.117777778,-0.177777778,0,0,0,,0,54,54,321,1,,
,,,,,,,,,,,,,,,,,,5c0da14d656168000159da7a,2020-08-10_13h20.20.779,lexical_decision_task_MP,2020.1.3,Win32,60,m,1,0.551,,,,,,,,0.551,1,,,,,,49,WORD,"ID",50,survey,SURVEY,m,,,,,,0.117777778,-0.177777778,0,0,0,,0,55,55,108,1,,
,,,,,,,,,,,,,,,,,,5c0da14d656168000159da7a,2020-08-10_13h20.20.779,lexical_decision_task_MP,2020.1.3,Win32,60,m,1,0.639,,,,,,,,0.639,1,,,,,,61,WORD,UN,33,region,PONDER,m,,,,,,0.117777778,-0.177777778,0,0,0,,0,56,56,120,1,,
,,,,,,,,,,,,,,,,,,5c0da14d656168000159da7a,2020-08-10_13h20.20.779,lexical_decision_task_MP,2020.1.3,Win32,60,m,1,0.638,,,,,,,,0.638,1,,,,,,179,WORD,UN,50,silent,BASKET,m,,,,,,0.117777778,-0.177777778,0,0,0,,0,57,57,238,1,,
,,,,,,,,,,,,,,,,,,5c0da14d656168000159da7a,2020-08-10_13h20.20.779,lexical_decision_task_MP,2020.1.3,Win32,60,m,1,0.6,,,,,,,,0.6,1,,,,,,129,WORD,UN,50,stupid,MARVEL,m,,,,,,0.117777778,-0.177777778,0,0,0,,0,58,58,188,1,,
,,,,,,,,,,,,,,,,,,5c0da14d656168000159da7a,2020-08-10_13h20.20.779,lexical_decision_task_MP,2020.1.3,Win32,60,z,1,0.805,,,,,,,,0.805,1,,,,,,379,NW,UN,50,cavory,AUTING,z,,,,,,0.117777778,-0.177777778,0,0,0,,0,59,59,438,1,,
,,,,,,,,,,,,,,,,,,5c0da14d656168000159da7a,2020-08-10_13h20.20.779,lexical_decision_task_MP,2020.1.3,Win32,60,m,1,0.59,,,,,,,,0.59,1,,,,,,200,WORD,"ID",33,beacon,BEACON,m,,,,,,0.117777778,-0.177777778,0,0,0,,0,60,60,19,1,,
,,,,,,,,,,,,,,,,,,5c0da14d656168000159da7a,2020-08-10_13h20.20.779,lexical_decision_task_MP,2020.1.3,Win32,60,z,1,0.867,,,,,,,,0.867,1,,,,,,321,NW,UN,33,slanch,MIATOR,z,,,,,,0.117777778,-0.177777778,0,0,0,,0,61,61,380,1,,
,,,,,,,,,,,,,,,,,,5c0da14d656168000159da7a,2020-08-10_13h20.20.779,lexical_decision_task_MP,2020.1.3,Win32,60,z,1,0.637,,,,,,,,0.637,1,,,,,,440,NW,"ID",33,saride,SARIDE,z,,,,,,0.117777778,-0.177777778,0,0,0,,0,62,62,259,1,,
,,,,,,,,,,,,,,,,,,5c0da14d656168000159da7a,2020-08-10_13h20.20.779,lexical_decision_task_MP,2020.1.3,Win32,60,m,1,0.718,,,,,,,,0.718,1,,,,,,42,WORD,"ID",50,chapel,CHAPEL,m,,,,,,0.117777778,-0.177777778,0,0,0,,0,63,63,101,1,,
,,,,,,,,,,,,,,,,,,5c0da14d656168000159da7a,2020-08-10_13h20.20.779,lexical_decision_task_MP,2020.1.3,Win32,60,z,1,0.568,,,,,,,,0.568,1,,,,,,241,NW,"ID",50,smenco,SMENCO,z,,,,,,0.117777778,-0.177777778,0,0,0,,0,64,64,300,1,,
,,,,,,,,,,,,,,,,,,5c0da14d656168000159da7a,2020-08-10_13h20.20.779,lexical_decision_task_MP,2020.1.3,Win32,60,z,1,0.635,,,,,,,,0.635,1,,,,,,435,NW,"ID",33,impurb,IMPURB,z,,,,,,0.117777778,-0.177777778,0,0,0,,0,65,65,254,1,,
,,,,,,,,,,,,,,,,,,5c0da14d656168000159da7a,2020-08-10_13h20.20.779,lexical_decision_task_MP,2020.1.3,Win32,60,z,1,0.6,,,,,,,,0.6,1,,,,,,287,NW,"ID",50,nymbel,NYMBEL,z,,,,,,0.117777778,-0.177777778,0,0,0,,0,66,66,346,1,,
,,,,,,,,,,,,,,,,,,5c0da14d656168000159da7a,2020-08-10_13h20.20.779,lexical_decision_task_MP,2020.1.3,Win32,60,z,1,0.617,,,,,,,,0.617,1,,,,,,460,NW,"ID",33,mingar,MINGAR,z,,,,,,0.117777778,-0.177777778,0,0,0,,0,67,67,279,1,,
,,,,,,,,,,,,,,,,,,5c0da14d656168000159da7a,2020-08-10_13h20.20.779,lexical_decision_task_MP,2020.1.3,Win32,60,m,1,0.586,,,,,,,,0.586,1,,,,,,39,WORD,"ID",50,insect,INSECT,m,,,,,,0.117777778,-0.177777778,0,0,0,,0,68,68,98,1,,
,,,,,,,,,,,,,,,,,,5c0da14d656168000159da7a,2020-08-10_13h20.20.779,lexical_decision_task_MP,2020.1.3,Win32,60,m,1,0.515,,,,,,,,0.515,1,,,,,,220,WORD,"ID",33,voyage,VOYAGE,m,,,,,,0.117777778,-0.177777778,0,0,0,,0,69,69,39,1,,
,,,,,,,,,,,,,,,,,,5c0da14d656168000159da7a,2020-08-10_13h20.20.779,lexical_decision_task_MP,2020.1.3,Win32,60,m,1,0.585,,,,,,,,0.585,1,,,,,,55,WORD,"ID",50,stroke,STROKE,m,,,,,,0.117777778,-0.177777778,0,0,0,,0,70,70,114,1,,
,,,,,,,,,,,,,,,,,,5c0da14d656168000159da7a,2020-08-10_13h20.20.779,lexical_decision_task_MP,2020.1.3,Win32,60,m,1,0.552,,,,,,,,0.552,1,,,,,,121,WORD,UN,50,linger,THRIVE,m,,,,,,0.117777778,-0.177777778,0,0,0,,0,71,71,180,1,,
,,,,,,,,,,,,,,,,,,5c0da14d656168000159da7a,2020-08-10_13h20.20.779,lexical_decision_task_MP,2020.1.3,Win32,60,z,1,0.716,,,,,,,,0.716,1,,,,,,469,NW,"ID",33,padifs,PADIFS,z,,,,,,0.117777778,-0.177777778,0,0,0,,0,72,72,288,1,,
,,,,,,,,,,,,,,,,,,5c0da14d656168000159da7a,2020-08-10_13h20.20.779,lexical_decision_task_MP,2020.1.3,Win32,60,z,1,0.768,,,,,,,,0.768,1,,,,,,423,NW,"ID",33,streld,STRELD,z,,,,,,0.117777778,-0.177777778,0,0,0,,0,73,73,242,1,,
,,,,,,,,,,,,,,,,,,5c0da14d656168000159da7a,2020-08-10_13h20.20.779,lexical_decision_task_MP,2020.1.3,Win32,60,m,1,0.753,,,,,,,,0.753,1,,,,,,24,WORD,"ID",50,praise,PRAISE,m,,,,,,0.117777778,-0.177777778,0,0,0,,0,74,74,83,1,,
,,,,,,,,,,,,,,,,,,5c0da14d656168000159da7a,2020-08-10_13h20.20.779,lexical_decision_task_MP,2020.1.3,Win32,60,m,1,0.523,,,,,,,,0.523,1,,,,,,209,WORD,"ID",33,search,SEARCH,m,,,,,,0.117777778,-0.177777778,0,0,0,,0,75,75,28,1,,
,,,,,,,,,,,,,,,,,,5c0da14d656168000159da7a,2020-08-10_13h20.20.779,lexical_decision_task_MP,2020.1.3,Win32,60,m,1,0.618,,,,,,,,0.618,1,,,,,,62,WORD,UN,33,launch,REGION,m,,,,,,0.117777778,-0.177777778,0,0,0,,0,76,76,121,1,,
,,,,,,,,,,,,,,,,,,5c0da14d656168000159da7a,2020-08-10_13h20.20.779,lexical_decision_task_MP,2020.1.3,Win32,60,m,1,0.535,,,,,,,,0.535,1,,,,,,71,WORD,UN,33,bright,GARDEN,m,,,,,,0.117777778,-0.177777778,0,0,0,,0,77,77,130,1,,
,,,,,,,,,,,,,,,,,,5c0da14d656168000159da7a,2020-08-10_13h20.20.779,lexical_decision_task_MP,2020.1.3,Win32,60,m,1,0.568,,,,,,,,0.568,1,,,,,,234,WORD,"ID",33,clumsy,CLUMSY,m,,,,,,0.117777778,-0.177777778,0,0,0,,0,78,78,53,1,,
,,,,,,,,,,,,,,,,,,5c0da14d656168000159da7a,2020-08-10_13h20.20.779,lexical_decision_task_MP,2020.1.3,Win32,60,z,1,0.552,,,,,,,,0.552,1,,,,,,375,NW,UN,50,iguare,YORQUE,z,,,,,,0.117777778,-0.177777778,0,0,0,,0,79,79,434,1,,
,,,,,,,,,,,,,,,,,,5c0da14d656168000159da7a,2020-08-10_13h20.20.779,lexical_decision_task_MP,2020.1.3,Win32,60,m,1,0.672,,,,,,,,0.672,1,,,,,,74,WORD,UN,33,trophy,PLAQUE,m,,,,,,0.117777778,-0.177777778,0,0,0,,0,80,80,133,1,,
,,,,,,,,,,,,,,,,,,5c0da14d656168000159da7a,2020-08-10_13h20.20.779,lexical_decision_task_MP,2020.1.3,Win32,60,m,1,0.807,,,,,,,,0.807,1,,,,,,35,WORD,"ID",50,socket,SOCKET,m,,,,,,0.117777778,-0.177777778,0,0,0,,0,81,81,94,1,,
,,,,,,,,,,,,,,,,,,5c0da14d656168000159da7a,2020-08-10_13h20.20.779,lexical_decision_task_MP,2020.1.3,Win32,60,m,1,0.654,,,,,,,,0.654,1,,,,,,150,WORD,UN,50,mystic,RANDOM,m,,,,,,0.117777778,-0.177777778,0,0,0,,0,82,82,209,1,,
,,,,,,,,,,,,,,,,,,5c0da14d656168000159da7a,2020-08-10_13h20.20.779,lexical_decision_task_MP,2020.1.3,Win32,60,z,1,0.668,,,,,,,,0.668,1,,,,,,466,NW,"ID",33,hocite,HOCITE,z,,,,,,0.117777778,-0.177777778,0,0,0,,0,83,83,285,1,,
,,,,,,,,,,,,,,,,,,5c0da14d656168000159da7a,2020-08-10_13h20.20.779,lexical_decision_task_MP,2020.1.3,Win32,60,z,1,0.74,,,,,,,,0.74,1,,,,,,314,NW,UN,33,laston,SPRINE,z,,,,,,0.117777778,-0.177777778,0,0,0,,0,84,84,373,1,,
,,,,,,,,,,,,,,,,,,5c0da14d656168000159da7a,2020-08-10_13h20.20.779,lexical_decision_task_MP,2020.1.3,Win32,60,z,1,0.871,,,,,,,,0.871,1,,,,,,285,NW,"ID",50,prudge,PRUDGE,z,,,,,,0.117777778,-0.177777778,0,0,0,,0,85,85,344,1,,
,,,,,,,,,,,,,,,,,,5c0da14d656168000159da7a,2020-08-10_13h20.20.779,lexical_decision_task_MP,2020.1.3,Win32,60,z,1,0.635,,,,,,,,0.635,1,,,,,,359,NW,UN,33,desory,FONVER,z,,,,,,0.117777778,-0.177777778,0,0,0,,0,86,86,418,1,,
,,,,,,,,,,,,,,,,,,5c0da14d656168000159da7a,2020-08-10_13h20.20.779,lexical_decision_task_MP,2020.1.3,Win32,60,m,1,0.956,,,,,,,,0.956,1,,,,,,59,WORD,"ID",50,splint,SPLINT,m,,,,,,0.117777778,-0.177777778,0,0,0,,0,87,87,118,1,,
,,,,,,,,,,,,,,,,,,5c0da14d656168000159da7a,2020-08-10_13h20.20.779,lexical_decision_task_MP,2020.1.3,Win32,60,z,1,1.07,,,,,,,,1.07,1,,,,,,268,NW,"ID",50,packes,PACKES,z,,,,,,0.117777778,-0.177777778,0,0,0,,0,88,88,327,1,,
,,,,,,,,,,,,,,,,,,5c0da14d656168000159da7a,2020-08-10_13h20.20.779,lexical_decision_task_MP,2020.1.3,Win32,60,m,1,0.917,,,,,,,,0.917,1,,,,,,101,WORD,UN,33,direct,WRENCH,m,,,,,,0.117777778,-0.177777778,0,0,0,,0,89,89,160,1,,
,,,,,,,,,,,,,,,,,,5c0da14d656168000159da7a,2020-08-10_13h20.20.779,lexical_decision_task_MP,2020.1.3,Win32,60,z,1,0.735,,,,,,,,0.735,1,,,,,,477,NW,"ID",33,photie,PHOTIE,z,,,,,,0.117777778,-0.177777778,0,0,0,,0,90,90,296,1,,
,,,,,,,,,,,,,,,,,,5c0da14d656168000159da7a,2020-08-10_13h20.20.779,lexical_decision_task_MP,2020.1.3,Win32,60,z,1,0.62,,,,,,,,0.62,1,,,,,,430,NW,"ID",33,caroey,CAROEY,z,,,,,,0.117777778,-0.177777778,0,0,0,,0,91,91,249,1,,
,,,,,,,,,,,,,,,,,,5c0da14d656168000159da7a,2020-08-10_13h20.20.779,lexical_decision_task_MP,2020.1.3,Win32,60,m,1,0.718,,,,,,,,0.718,1,,,,,,215,WORD,"ID",33,phobia,PHOBIA,m,,,,,,0.117777778,-0.177777778,0,0,0,,0,92,92,34,1,,
,,,,,,,,,,,,,,,,,,5c0da14d656168000159da7a,2020-08-10_13h20.20.779,lexical_decision_task_MP,2020.1.3,Win32,60,m,1,0.568,,,,,,,,0.568,1,,,,,,199,WORD,"ID",33,invoke,INVOKE,m,,,,,,0.117777778,-0.177777778,0,0,0,,0,93,93,18,1,,
,,,,,,,,,,,,,,,,,,5c0da14d656168000159da7a,2020-08-10_13h20.20.779,lexical_decision_task_MP,2020.1.3,Win32,60,m,1,0.984,,,,,,,,0.984,1,,,,,,120,WORD,UN,33,ponder,STRAIN,m,,,,,,0.117777778,-0.177777778,0,0,0,,0,94,94,179,1,,
,,,,,,,,,,,,,,,,,,5c0da14d656168000159da7a,2020-08-10_13h20.20.779,lexical_decision_task_MP,2020.1.3,Win32,60,z,1,0.804,,,,,,,,0.804,1,,,,,,343,NW,UN,33,scrily,AIMOSY,z,,,,,,0.117777778,-0.177777778,0,0,0,,0,95,95,402,1,,
,,,,,,,,,,,,,,,,,,5c0da14d656168000159da7a,2020-08-10_13h20.20.779,lexical_decision_task_MP,2020.1.3,Win32,60,m,1,0.917,,,,,,,,0.917,1,,,,,,18,WORD,"ID",50,humble,HUMBLE,m,,,,,,0.117777778,-0.177777778,0,0,0,,0,96,96,77,1,,
,,,,,,,,,,,,,,,,,,5c0da14d656168000159da7a,2020-08-10_13h20.20.779,lexical_decision_task_MP,2020.1.3,Win32,60,z,1,0.689,,,,,,,,0.689,1,,,,,,396,NW,UN,50,camble,FLENGY,z,,,,,,0.117777778,-0.177777778,0,0,0,,0,97,97,455,1,,
,,,,,,,,,,,,,,,,,,5c0da14d656168000159da7a,2020-08-10_13h20.20.779,lexical_decision_task_MP,2020.1.3,Win32,60,m,1,0.789,,,,,,,,0.789,1,,,,,,15,WORD,"ID",50,amount,AMOUNT,m,,,,,,0.117777778,-0.177777778,0,0,0,,0,98,98,74,1,,
,,,,,,,,,,,,,,,,,,5c0da14d656168000159da7a,2020-08-10_13h20.20.779,lexical_decision_task_MP,2020.1.3,Win32,60,m,1,0.9,,,,,,,,0.9,1,,,,,,22,WORD,"ID",50,jockey,JOCKEY,m,,,,,,0.117777778,-0.177777778,0,0,0,,0,99,99,81,1,,
,,,,,,,,,,,,,,,,,,5c0da14d656168000159da7a,2020-08-10_13h20.20.779,lexical_decision_task_MP,2020.1.3,Win32,60,m,1,0.603,,,,,,,,0.603,1,,,,,,191,WORD,"ID",33,stable,STABLE,m,,,,,,0.117777778,-0.177777778,0,0,0,,0,100,100,10,1,,
,,,,,,,,,,,,,,,,,,5c0da14d656168000159da7a,2020-08-10_13h20.20.779,lexical_decision_task_MP,2020.1.3,Win32,60,z,1,0.701,,,,,,,,0.701,1,,,,,,458,NW,"ID",33,barcet,BARCET,z,,,,,,0.117777778,-0.177777778,0,0,0,,0,101,101,277,1,,
,,,,,,,,,,,,,,,,,,5c0da14d656168000159da7a,2020-08-10_13h20.20.779,lexical_decision_task_MP,2020.1.3,Win32,60,m,1,0.752,,,,,,,,0.752,1,,,,,,218,WORD,"ID",33,shrink,SHRINK,m,,,,,,0.117777778,-0.177777778,0,0,0,,0,102,102,37,1,,
,,,,,,,,,,,,,,,,,,5c0da14d656168000159da7a,2020-08-10_13h20.20.779,lexical_decision_task_MP,2020.1.3,Win32,60,z,1,1.267,,,,,,,,1.267,1,,,,,,361,NW,UN,50,tireau,PAUCHE,z,,,,,,0.117777778,-0.177777778,0,0,0,,0,103,103,420,1,,
,,,,,,,,,,,,,,,,,,5c0da14d656168000159da7a,2020-08-10_13h20.20.779,lexical_decision_task_MP,2020.1.3,Win32,60,z,1,0.618,,,,,,,,0.618,1,,,,,,436,NW,"ID",33,frutan,FRUTAN,z,,,,,,0.117777778,-0.177777778,0,0,0,,0,104,104,255,1,,
,,,,,,,,,,,,,,,,,,5c0da14d656168000159da7a,2020-08-10_13h20.20.779,lexical_decision_task_MP,2020.1.3,Win32,60,z,1,0.689,,,,,,,,0.689,1,,,,,,300,NW,"ID",50,yarion,YARION,z,,,,,,0.117777778,-0.177777778,0,0,0,,0,105,105,359,1,,
,,,,,,,,,,,,,,,,,,5c0da14d656168000159da7a,2020-08-10_13h20.20.779,lexical_decision_task_MP,2020.1.3,Win32,60,z,1,0.79,,,,,,,,0.79,1,,,,,,380,NW,UN,50,huniek,CAVORY,z,,,,,,0.117777778,-0.177777778,0,0,0,,0,106,106,439,1,,
,,,,,,,,,,,,,,,,,,5c0da14d656168000159da7a,2020-08-10_13h20.20.779,lexical_decision_task_MP,2020.1.3,Win32,60,z,1,0.807,,,,,,,,0.807,1,,,,,,376,NW,UN,50,veigma,IGUARE,z,,,,,,0.117777778,-0.177777778,0,0,0,,0,107,107,435,1,,
,,,,,,,,,,,,,,,,,,5c0da14d656168000159da7a,2020-08-10_13h20.20.779,lexical_decision_task_MP,2020.1.3,Win32,60,z,1,0.617,,,,,,,,0.617,1,,,,,,372,NW,UN,50,bigent,RAMILY,z,,,,,,0.117777778,-0.177777778,0,0,0,,0,108,108,431,1,,
,,,,,,,,,,,,,,,,,,5c0da14d656168000159da7a,2020-08-10_13h20.20.779,lexical_decision_task_MP,2020.1.3,Win32,60,z,1,0.64,,,,,,,,0.64,1,,,,,,455,NW,"ID",33,tondle,TONDLE,z,,,,,,0.117777778,-0.177777778,0,0,0,,0,109,109,274,1,,
,,,,,,,,,,,,,,,,,,5c0da14d656168000159da7a,2020-08-10_13h20.20.779,lexical_decision_task_MP,2020.1.3,Win32,60,z,1,0.686,,,,,,,,0.686,1,,,,,,370,NW,UN,50,geiloy,SLEACT,z,,,,,,0.117777778,-0.177777778,0,0,0,,0,110,110,429,1,,
,,,,,,,,,,,,,,,,,,5c0da14d656168000159da7a,2020-08-10_13h20.20.779,lexical_decision_task_MP,2020.1.3,Win32,60,z,1,0.718,,,,,,,,0.718,1,,,,,,418,NW,UN,50,slount,SUIDLE,z,,,,,,0.117777778,-0.177777778,0,0,0,,0,111,111,477,1,,
,,,,,,,,,,,,,,,,,,5c0da14d656168000159da7a,2020-08-10_13h20.20.779,lexical_decision_task_MP,2020.1.3,Win32,60,z,1,0.638,,,,,,,,0.638,1,,,,,,400,NW,UN,50,mustil,WEAROX,z,,,,,,0.117777778,-0.177777778,0,0,0,,0,112,112,459,1,,
,,,,,,,,,,,,,,,,,,5c0da14d656168000159da7a,2020-08-10_13h20.20.779,lexical_decision_task_MP,2020.1.3,Win32,60,z,1,0.602,,,,,,,,0.602,1,,,,,,324,NW,UN,33,thruse,STEIKH,z,,,,,,0.117777778,-0.177777778,0,0,0,,0,113,113,383,1,,
,,,,,,,,,,,,,,,,,,5c0da14d656168000159da7a,2020-08-10_13h20.20.779,lexical_decision_task_MP,2020.1.3,Win32,60,m,1,0.807,,,,,,,,0.807,1,,,,,,173,WORD,UN,50,turkey,SHOWER,m,,,,,,0.117777778,-0.177777778,0,0,0,,0,114,114,232,1,,
,,,,,,,,,,,,,,,,,,5c0da14d656168000159da7a,2020-08-10_13h20.20.779,lexical_decision_task_MP,2020.1.3,Win32,60,z,1,0.702,,,,,,,,0.702,1,,,,,,329,NW,UN,33,kensom,YARIKE,z,,,,,,0.117777778,-0.177777778,0,0,0,,0,115,115,388,1,,
,,,,,,,,,,,,,,,,,,5c0da14d656168000159da7a,2020-08-10_13h20.20.779,lexical_decision_task_MP,2020.1.3,Win32,60,m,1,0.702,,,,,,,,0.702,1,,,,,,11,WORD,"ID",50,cruise,CRUISE,m,,,,,,0.117777778,-0.177777778,0,0,0,,0,116,116,70,1,,
,,,,,,,,,,,,,,,,,,5c0da14d656168000159da7a,2020-08-10_13h20.20.779,lexical_decision_task_MP,2020.1.3,Win32,60,z,1,1.185,,,,,,,,1.185,1,,,,,,282,NW,"ID",50,porlex,PORLEX,z,,,,,,0.117777778,-0.177777778,0,0,0,,0,117,117,341,1,,
,,,,,,,,,,,,,,,,,,5c0da14d656168000159da7a,2020-08-10_13h20.20.779,lexical_decision_task_MP,2020.1.3,Win32,60,z,1,0.551,,,,,,,,0.551,1,,,,,,347,NW,UN,33,dumple,KERIFT,z,,,,,,0.117777778,-0.177777778,0,0,0,,0,118,118,406,1,,
,,,,,,,,,,,,,,,,,,5c0da14d656168000159da7a,2020-08-10_13h20.20.779,lexical_decision_task_MP,2020.1.3,Win32,60,z,1,0.533,,,,,,,,0.533,1,,,,,,382,NW,UN,50,aungre,SARLEY,z,,,,,,0.117777778,-0.177777778,0,0,0,,0,119,119,441,1,,
,,,,,,,,,,,,,,,,,,5c0da14d656168000159da7a,2020-08-10_13h20.20.779,lexical_decision_task_MP,2020.1.3,Win32,60,z,1,0.52,,,,,,,,0.52,1,,,,,,470,NW,"ID",33,crudio,CRUDIO,z,,,,,,0.117777778,-0.177777778,0,0,0,space,0,120,120,289,1,18.326,
,,,,,,,,,,,,,,,,,,5c0da14d656168000159da7a,2020-08-10_13h20.20.779,lexical_decision_task_MP,2020.1.3,Win32,60,m,1,0.6,,,,,,,,0.6,1,,,,,,119,WORD,UN,33,strain,SPIDER,m,,,,,,0.117777778,-0.177777778,0,0,0,,0,121,121,178,1,,
,,,,,,,,,,,,,,,,,,5c0da14d656168000159da7a,2020-08-10_13h20.20.779,lexical_decision_task_MP,2020.1.3,Win32,60,m,1,0.634,,,,,,,,0.634,1,,,,,,155,WORD,UN,50,cradle,LIZARD,m,,,,,,0.117777778,-0.177777778,0,0,0,,0,122,122,214,1,,
,,,,,,,,,,,,,,,,,,5c0da14d656168000159da7a,2020-08-10_13h20.20.779,lexical_decision_task_MP,2020.1.3,Win32,60,z,1,0.619,,,,,,,,0.619,1,,,,,,414,NW,UN,50,higsta,SERBOL,z,,,,,,0.117777778,-0.177777778,0,0,0,,0,123,123,473,1,,
,,,,,,,,,,,,,,,,,,5c0da14d656168000159da7a,2020-08-10_13h20.20.779,lexical_decision_task_MP,2020.1.3,Win32,60,z,1,0.702,,,,,,,,0.702,1,,,,,,366,NW,UN,50,slique,TOSHEL,z,,,,,,0.117777778,-0.177777778,0,0,0,,0,124,124,425,1,,
,,,,,,,,,,,,,,,,,,5c0da14d656168000159da7a,2020-08-10_13h20.20.779,lexical_decision_task_MP,2020.1.3,Win32,60,m,1,0.636,,,,,,,,0.636,1,,,,,,203,WORD,"ID",33,phrase,PHRASE,m,,,,,,0.117777778,-0.177777778,0,0,0,,0,125,125,22,1,,
,,,,,,,,,,,,,,,,,,5c0da14d656168000159da7a,2020-08-10_13h20.20.779,lexical_decision_task_MP,2020.1.3,Win32,60,m,1,0.65,,,,,,,,0.65,1,,,,,,127,WORD,UN,50,senior,CASTLE,m,,,,,,0.117777778,-0.177777778,0,0,0,,0,126,126,186,1,,
,,,,,,,,,,,,,,,,,,5c0da14d656168000159da7a,2020-08-10_13h20.20.779,lexical_decision_task_MP,2020.1.3,Win32,60,m,1,0.635,,,,,,,,0.635,1,,,,,,138,WORD,UN,50,debris,MELODY,m,,,,,,0.117777778,-0.177777778,0,0,0,,0,127,127,197,1,,
,,,,,,,,,,,,,,,,,,5c0da14d656168000159da7a,2020-08-10_13h20.20.779,lexical_decision_task_MP,2020.1.3,Win32,60,m,1,0.652,,,,,,,,0.652,1,,,,,,76,WORD,UN,33,racket,EXOTIC,m,,,,,,0.117777778,-0.177777778,0,0,0,,0,128,128,135,1,,
,,,,,,,,,,,,,,,,,,5c0da14d656168000159da7a,2020-08-10_13h20.20.779,lexical_decision_task_MP,2020.1.3,Win32,60,m,1,0.517,,,,,,,,0.517,1,,,,,,168,WORD,UN,50,genius,ANSWER,m,,,,,,0.117777778,-0.177777778,0,0,0,,0,129,129,227,1,,
,,,,,,,,,,,,,,,,,,5c0da14d656168000159da7a,2020-08-10_13h20.20.779,lexical_decision_task_MP,2020.1.3,Win32,60,z,1,0.724,,,,,,,,0.724,1,,,,,,322,NW,UN,33,rosail,SLANCH,z,,,,,,0.117777778,-0.177777778,0,0,0,,0,130,130,381,1,,
,,,,,,,,,,,,,,,,,,5c0da14d656168000159da7a,2020-08-10_13h20.20.779,lexical_decision_task_MP,2020.1.3,Win32,60,z,1,0.751,,,,,,,,0.751,1,,,,,,297,NW,"ID",50,fertic,FERTIC,z,,,,,,0.117777778,-0.177777778,0,0,0,,0,131,131,356,1,,
,,,,,,,,,,,,,,,,,,5c0da14d656168000159da7a,2020-08-10_13h20.20.779,lexical_decision_task_MP,2020.1.3,Win32,60,z,1,0.737,,,,,,,,0.737,1,,,,,,397,NW,UN,50,blunde,CAMBLE,z,,,,,,0.117777778,-0.177777778,0,0,0,,0,132,132,456,1,,
,,,,,,,,,,,,,,,,,,5c0da14d656168000159da7a,2020-08-10_13h20.20.779,lexical_decision_task_MP,2020.1.3,Win32,60,z,1,0.6,,,,,,,,0.6,1,,,,,,294,NW,"ID",50,inhort,INHORT,z,,,,,,0.117777778,-0.177777778,0,0,0,,0,133,133,353,1,,
,,,,,,,,,,,,,,,,,,5c0da14d656168000159da7a,2020-08-10_13h20.20.779,lexical_decision_task_MP,2020.1.3,Win32,60,z,1,0.541,,,,,,,,0.541,1,,,,,,443,NW,"ID",33,dorsex,DORSEX,z,,,,,,0.117777778,-0.177777778,0,0,0,,0,134,134,262,1,,
,,,,,,,,,,,,,,,,,,5c0da14d656168000159da7a,2020-08-10_13h20.20.779,lexical_decision_task_MP,2020.1.3,Win32,60,z,1,0.617,,,,,,,,0.617,1,,,,,,253,NW,"ID",50,resait,RESAIT,z,,,,,,0.117777778,-0.177777778,0,0,0,,0,135,135,312,1,,
,,,,,,,,,,,,,,,,,,5c0da14d656168000159da7a,2020-08-10_13h20.20.779,lexical_decision_task_MP,2020.1.3,Win32,60,m,1,0.584,,,,,,,,0.584,1,,,,,,40,WORD,"ID",50,convey,CONVEY,m,,,,,,0.117777778,-0.177777778,0,0,0,,0,136,136,99,1,,
,,,,,,,,,,,,,,,,,,5c0da14d656168000159da7a,2020-08-10_13h20.20.779,lexical_decision_task_MP,2020.1.3,Win32,60,m,1,0.618,,,,,,,,0.618,1,,,,,,151,WORD,UN,50,rocket,MYSTIC,m,,,,,,0.117777778,-0.177777778,0,0,0,,0,137,137,210,1,,
,,,,,,,,,,,,,,,,,,5c0da14d656168000159da7a,2020-08-10_13h20.20.779,lexical_decision_task_MP,2020.1.3,Win32,60,z,1,0.656,,,,,,,,0.656,1,,,,,,378,NW,UN,50,auting,SHRILE,z,,,,,,0.117777778,-0.177777778,0,0,0,,0,138,138,437,1,,
,,,,,,,,,,,,,,,,,,5c0da14d656168000159da7a,2020-08-10_13h20.20.779,lexical_decision_task_MP,2020.1.3,Win32,60,m,1,0.584,,,,,,,,0.584,1,,,,,,187,WORD,"ID",33,course,COURSE,m,,,,,,0.117777778,-0.177777778,0,0,0,,0,139,139,6,1,,
,,,,,,,,,,,,,,,,,,5c0da14d656168000159da7a,2020-08-10_13h20.20.779,lexical_decision_task_MP,2020.1.3,Win32,60,z,1,0.703,,,,,,,,0.703,1,,,,,,410,NW,UN,50,orchin,TUNORY,z,,,,,,0.117777778,-0.177777778,0,0,0,,0,140,140,469,1,,
,,,,,,,,,,,,,,,,,,5c0da14d656168000159da7a,2020-08-10_13h20.20.779,lexical_decision_task_MP,2020.1.3,Win32,60,m,1,0.636,,,,,,,,0.636,1,,,,,,111,WORD,UN,33,breath,INDUCE,m,,,,,,0.117777778,-0.177777778,0,0,0,,0,141,141,170,1,,
,,,,,,,,,,,,,,,,,,5c0da14d656168000159da7a,2020-08-10_13h20.20.779,lexical_decision_task_MP,2020.1.3,Win32,60,m,1,0.507,,,,,,,,0.507,1,,,,,,27,WORD,"ID",50,scream,SCREAM,m,,,,,,0.117777778,-0.177777778,0,0,0,,0,142,142,86,1,,
,,,,,,,,,,,,,,,,,,5c0da14d656168000159da7a,2020-08-10_13h20.20.779,lexical_decision_task_MP,2020.1.3,Win32,60,m,1,0.736,,,,,,,,0.736,1,,,,,,9,WORD,"ID",50,hustle,HUSTLE,m,,,,,,0.117777778,-0.177777778,0,0,0,,0,143,143,68,1,,
,,,,,,,,,,,,,,,,,,5c0da14d656168000159da7a,2020-08-10_13h20.20.779,lexical_decision_task_MP,2020.1.3,Win32,60,z,1,0.707,,,,,,,,0.707,1,,,,,,305,NW,UN,33,sounge,FORGLE,z,,,,,,0.117777778,-0.177777778,0,0,0,,0,144,144,364,1,,
,,,,,,,,,,,,,,,,,,5c0da14d656168000159da7a,2020-08-10_13h20.20.779,lexical_decision_task_MP,2020.1.3,Win32,60,m,1,0.649,,,,,,,,0.649,1,,,,,,182,WORD,"ID",33,winter,WINTER,m,,,,,,0.117777778,-0.177777778,0,0,0,,0,145,145,1,1,,
,,,,,,,,,,,,,,,,,,5c0da14d656168000159da7a,2020-08-10_13h20.20.779,lexical_decision_task_MP,2020.1.3,Win32,60,z,1,0.84,,,,,,,,0.84,1,,,,,,339,NW,UN,33,fiatch,FACHOW,z,,,,,,0.117777778,-0.177777778,0,0,0,,0,146,146,398,1,,
,,,,,,,,,,,,,,,,,,5c0da14d656168000159da7a,2020-08-10_13h20.20.779,lexical_decision_task_MP,2020.1.3,Win32,60,m,1,0.685,,,,,,,,0.685,1,,,,,,135,WORD,UN,50,bleach,IMPORT,m,,,,,,0.117777778,-0.177777778,0,0,0,,0,147,147,194,1,,
,,,,,,,,,,,,,,,,,,5c0da14d656168000159da7a,2020-08-10_13h20.20.779,lexical_decision_task_MP,2020.1.3,Win32,60,z,0,0.852,,,,,,,,0.852,0,,,,,,216,WORD,"ID",33,behalf,BEHALF,m,,,,,,0.117777778,-0.177777778,0,0,0,,0,148,148,35,1,,
,,,,,,,,,,,,,,,,,,5c0da14d656168000159da7a,2020-08-10_13h20.20.779,lexical_decision_task_MP,2020.1.3,Win32,60,m,1,1.051,,,,,,,,1.051,1,,,,,,19,WORD,"ID",50,patron,PATRON,m,,,,,,0.117777778,-0.177777778,0,0,0,,0,149,149,78,1,,
,,,,,,,,,,,,,,,,,,5c0da14d656168000159da7a,2020-08-10_13h20.20.779,lexical_decision_task_MP,2020.1.3,Win32,60,z,1,0.818,,,,,,,,0.818,1,,,,,,278,NW,"ID",50,unighs,UNIGHS,z,,,,,,0.117777778,-0.177777778,0,0,0,,0,150,150,337,1,,
,,,,,,,,,,,,,,,,,,5c0da14d656168000159da7a,2020-08-10_13h20.20.779,lexical_decision_task_MP,2020.1.3,Win32,60,z,1,0.667,,,,,,,,0.667,1,,,,,,401,NW,UN,50,syntic,MUSTIL,z,,,,,,0.117777778,-0.177777778,0,0,0,,0,151,151,460,1,,
,,,,,,,,,,,,,,,,,,5c0da14d656168000159da7a,2020-08-10_13h20.20.779,lexical_decision_task_MP,2020.1.3,Win32,60,z,1,0.984,,,,,,,,0.984,1,,,,,,480,NW,"ID",33,robuly,ROBULY,z,,,,,,0.117777778,-0.177777778,0,0,0,,0,152,152,299,1,,
,,,,,,,,,,,,,,,,,,5c0da14d656168000159da7a,2020-08-10_13h20.20.779,lexical_decision_task_MP,2020.1.3,Win32,60,z,1,0.591,,,,,,,,0.591,1,,,,,,246,NW,"ID",50,piaton,PIATON,z,,,,,,0.117777778,-0.177777778,0,0,0,,0,153,153,305,1,,
,,,,,,,,,,,,,,,,,,5c0da14d656168000159da7a,2020-08-10_13h20.20.779,lexical_decision_task_MP,2020.1.3,Win32,60,m,1,0.652,,,,,,,,0.652,1,,,,,,153,WORD,UN,50,author,BEHOLD,m,,,,,,0.117777778,-0.177777778,0,0,0,,0,154,154,212,1,,
,,,,,,,,,,,,,,,,,,5c0da14d656168000159da7a,2020-08-10_13h20.20.779,lexical_decision_task_MP,2020.1.3,Win32,60,m,1,0.684,,,,,,,,0.684,1,,,,,,165,WORD,UN,50,starch,INVEST,m,,,,,,0.117777778,-0.177777778,0,0,0,,0,155,155,224,1,,
,,,,,,,,,,,,,,,,,,5c0da14d656168000159da7a,2020-08-10_13h20.20.779,lexical_decision_task_MP,2020.1.3,Win32,60,m,1,0.604,,,,,,,,0.604,1,,,,,,158,WORD,UN,50,detail,ISLAND,m,,,,,,0.117777778,-0.177777778,0,0,0,,0,156,156,217,1,,
,,,,,,,,,,,,,,,,,,5c0da14d656168000159da7a,2020-08-10_13h20.20.779,lexical_decision_task_MP,2020.1.3,Win32,60,m,1,0.635,,,,,,,,0.635,1,,,,,,157,WORD,UN,50,island,DRAGON,m,,,,,,0.117777778,-0.177777778,0,0,0,,0,157,157,216,1,,
,,,,,,,,,,,,,,,,,,5c0da14d656168000159da7a,2020-08-10_13h20.20.779,lexical_decision_task_MP,2020.1.3,Win32,60,z,1,0.685,,,,,,,,0.685,1,,,,,,281,NW,"ID",50,melaty,MELATY,z,,,,,,0.117777778,-0.177777778,0,0,0,,0,158,158,340,1,,
,,,,,,,,,,,,,,,,,,5c0da14d656168000159da7a,2020-08-10_13h20.20.779,lexical_decision_task_MP,2020.1.3,Win32,60,z,1,1.265,,,,,,,,1.265,1,,,,,,341,NW,UN,33,randow,MYRTIE,z,,,,,,0.117777778,-0.177777778,0,0,0,,0,159,159,400,1,,
,,,,,,,,,,,,,,,,,,5c0da14d656168000159da7a,2020-08-10_13h20.20.779,lexical_decision_task_MP,2020.1.3,Win32,60,z,1,0.758,,,,,,,,0.758,1,,,,,,417,NW,UN,50,suidle,EAROUD,z,,,,,,0.117777778,-0.177777778,0,0,0,,0,160,160,476,1,,
,,,,,,,,,,,,,,,,,,5c0da14d656168000159da7a,2020-08-10_13h20.20.779,lexical_decision_task_MP,2020.1.3,Win32,60,m,1,0.801,,,,,,,,0.801,1,,,,,,134,WORD,UN,50,import,STAPLE,m,,,,,,0.117777778,-0.177777778,0,0,0,,0,161,161,193,1,,
,,,,,,,,,,,,,,,,,,5c0da14d656168000159da7a,2020-08-10_13h20.20.779,lexical_decision_task_MP,2020.1.3,Win32,60,m,1,1.104,,,,,,,,1.104,1,,,,,,4,WORD,"ID",50,trench,TRENCH,m,,,,,,0.117777778,-0.177777778,0,0,0,,0,162,162,63,1,,
,,,,,,,,,,,,,,,,,,5c0da14d656168000159da7a,2020-08-10_13h20.20.779,lexical_decision_task_MP,2020.1.3,Win32,60,z,1,0.62,,,,,,,,0.62,1,,,,,,280,NW,"ID",50,curbol,CURBOL,z,,,,,,0.117777778,-0.177777778,0,0,0,,0,163,163,339,1,,
,,,,,,,,,,,,,,,,,,5c0da14d656168000159da7a,2020-08-10_13h20.20.779,lexical_decision_task_MP,2020.1.3,Win32,60,z,1,1.068,,,,,,,,1.068,1,,,,,,425,NW,"ID",33,frudge,FRUDGE,z,,,,,,0.117777778,-0.177777778,0,0,0,,0,164,164,244,1,,
,,,,,,,,,,,,,,,,,,5c0da14d656168000159da7a,2020-08-10_13h20.20.779,lexical_decision_task_MP,2020.1.3,Win32,60,z,1,0.602,,,,,,,,0.602,1,,,,,,346,NW,UN,33,kerift,SAUDIC,z,,,,,,0.117777778,-0.177777778,0,0,0,,0,165,165,405,1,,
,,,,,,,,,,,,,,,,,,5c0da14d656168000159da7a,2020-08-10_13h20.20.779,lexical_decision_task_MP,2020.1.3,Win32,60,z,1,0.802,,,,,,,,0.802,1,,,,,,345,NW,UN,33,saudic,ABSEND,z,,,,,,0.117777778,-0.177777778,0,0,0,,0,166,166,404,1,,
,,,,,,,,,,,,,,,,,,5c0da14d656168000159da7a,2020-08-10_13h20.20.779,lexical_decision_task_MP,2020.1.3,Win32,60,m,1,0.784,,,,,,,,0.784,1,,,,,,116,WORD,UN,33,branch,TUMBLE,m,,,,,,0.117777778,-0.177777778,0,0,0,,0,167,167,175,1,,
,,,,,,,,,,,,,,,,,,5c0da14d656168000159da7a,2020-08-10_13h20.20.779,lexical_decision_task_MP,2020.1.3,Win32,60,m,1,0.884,,,,,,,,0.884,1,,,,,,142,WORD,UN,50,reason,SPRUCE,m,,,,,,0.117777778,-0.177777778,0,0,0,,0,168,168,201,1,,
,,,,,,,,,,,,,,,,,,5c0da14d656168000159da7a,2020-08-10_13h20.20.779,lexical_decision_task_MP,2020.1.3,Win32,60,m,1,0.585,,,,,,,,0.585,1,,,,,,48,WORD,"ID",50,walnut,WALNUT,m,,,,,,0.117777778,-0.177777778,0,0,0,,0,169,169,107,1,,
,,,,,,,,,,,,,,,,,,5c0da14d656168000159da7a,2020-08-10_13h20.20.779,lexical_decision_task_MP,2020.1.3,Win32,60,m,1,0.668,,,,,,,,0.668,1,,,,,,70,WORD,UN,33,garden,SQUARE,m,,,,,,0.117777778,-0.177777778,0,0,0,,0,170,170,129,1,,
,,,,,,,,,,,,,,,,,,5c0da14d656168000159da7a,2020-08-10_13h20.20.779,lexical_decision_task_MP,2020.1.3,Win32,60,z,1,0.634,,,,,,,,0.634,1,,,,,,438,NW,"ID",33,baitch,BAITCH,z,,,,,,0.117777778,-0.177777778,0,0,0,,0,171,171,257,1,,
,,,,,,,,,,,,,,,,,,5c0da14d656168000159da7a,2020-08-10_13h20.20.779,lexical_decision_task_MP,2020.1.3,Win32,60,z,0,0.62,,,,,,,,0.62,0,,,,,,131,WORD,UN,50,strong,QUENCH,m,,,,,,0.117777778,-0.177777778,0,0,0,,0,172,172,190,1,,
,,,,,,,,,,,,,,,,,,5c0da14d656168000159da7a,2020-08-10_13h20.20.779,lexical_decision_task_MP,2020.1.3,Win32,60,z,1,1.153,,,,,,,,1.153,1,,,,,,277,NW,"ID",50,petain,PETAIN,z,,,,,,0.117777778,-0.177777778,0,0,0,,0,173,173,336,1,,
,,,,,,,,,,,,,,,,,,5c0da14d656168000159da7a,2020-08-10_13h20.20.779,lexical_decision_task_MP,2020.1.3,Win32,60,z,1,1.184,,,,,,,,1.184,1,,,,,,449,NW,"ID",33,brunge,BRUNGE,z,,,,,,0.117777778,-0.177777778,0,0,0,,0,174,174,268,1,,
,,,,,,,,,,,,,,,,,,5c0da14d656168000159da7a,2020-08-10_13h20.20.779,lexical_decision_task_MP,2020.1.3,Win32,60,m,1,0.683,,,,,,,,0.683,1,,,,,,126,WORD,UN,50,castle,ENOUGH,m,,,,,,0.117777778,-0.177777778,0,0,0,,0,175,175,185,1,,
,,,,,,,,,,,,,,,,,,5c0da14d656168000159da7a,2020-08-10_13h20.20.779,lexical_decision_task_MP,2020.1.3,Win32,60,z,1,0.951,,,,,,,,0.951,1,,,,,,395,NW,UN,50,flengy,COLURY,z,,,,,,0.117777778,-0.177777778,0,0,0,,0,176,176,454,1,,
,,,,,,,,,,,,,,,,,,5c0da14d656168000159da7a,2020-08-10_13h20.20.779,lexical_decision_task_MP,2020.1.3,Win32,60,m,1,0.667,,,,,,,,0.667,1,,,,,,8,WORD,"ID",50,abrupt,ABRUPT,m,,,,,,0.117777778,-0.177777778,0,0,0,,0,177,177,67,1,,
,,,,,,,,,,,,,,,,,,5c0da14d656168000159da7a,2020-08-10_13h20.20.779,lexical_decision_task_MP,2020.1.3,Win32,60,z,1,0.835,,,,,,,,0.835,1,,,,,,312,NW,UN,33,paurse,NERAWL,z,,,,,,0.117777778,-0.177777778,0,0,0,,0,178,178,371,1,,
,,,,,,,,,,,,,,,,,,5c0da14d656168000159da7a,2020-08-10_13h20.20.779,lexical_decision_task_MP,2020.1.3,Win32,60,m,1,1.2,,,,,,,,1.2,1,,,,,,163,WORD,UN,50,market,STRING,m,,,,,,0.117777778,-0.177777778,0,0,0,,0,179,179,222,1,,
,,,,,,,,,,,,,,,,,,5c0da14d656168000159da7a,2020-08-10_13h20.20.779,lexical_decision_task_MP,2020.1.3,Win32,60,z,1,0.841,,,,,,,,0.841,1,,,,,,270,NW,"ID",50,wrimsy,WRIMSY,z,,,,,,0.117777778,-0.177777778,0,0,0,,0,180,180,329,1,,
,,,,,,,,,,,,,,,,,,5c0da14d656168000159da7a,2020-08-10_13h20.20.779,lexical_decision_task_MP,2020.1.3,Win32,60,m,1,0.655,,,,,,,,0.655,1,,,,,,201,WORD,"ID",33,admire,ADMIRE,m,,,,,,0.117777778,-0.177777778,0,0,0,,0,181,181,20,1,,
,,,,,,,,,,,,,,,,,,5c0da14d656168000159da7a,2020-08-10_13h20.20.779,lexical_decision_task_MP,2020.1.3,Win32,60,m,1,0.734,,,,,,,,0.734,1,,,,,,16,WORD,"ID",50,faucet,FAUCET,m,,,,,,0.117777778,-0.177777778,0,0,0,,0,182,182,75,1,,
,,,,,,,,,,,,,,,,,,5c0da14d656168000159da7a,2020-08-10_13h20.20.779,lexical_decision_task_MP,2020.1.3,Win32,60,z,1,0.97,,,,,,,,0.97,1,,,,,,284,NW,"ID",50,shaple,SHAPLE,z,,,,,,0.117777778,-0.177777778,0,0,0,,0,183,183,343,1,,
,,,,,,,,,,,,,,,,,,5c0da14d656168000159da7a,2020-08-10_13h20.20.779,lexical_decision_task_MP,2020.1.3,Win32,60,z,1,0.753,,,,,,,,0.753,1,,,,,,421,NW,"ID",33,knisma,KNISMA,z,,,,,,0.117777778,-0.177777778,0,0,0,,0,184,184,240,1,,
,,,,,,,,,,,,,,,,,,5c0da14d656168000159da7a,2020-08-10_13h20.20.779,lexical_decision_task_MP,2020.1.3,Win32,60,z,1,0.958,,,,,,,,0.958,1,,,,,,315,NW,UN,33,scregm,LASTON,z,,,,,,0.117777778,-0.177777778,0,0,0,,0,185,185,374,1,,
,,,,,,,,,,,,,,,,,,5c0da14d656168000159da7a,2020-08-10_13h20.20.779,lexical_decision_task_MP,2020.1.3,Win32,60,m,1,0.919,,,,,,,,0.919,1,,,,,,50,WORD,"ID",50,snatch,SNATCH,m,,,,,,0.117777778,-0.177777778,0,0,0,,0,186,186,109,1,,
,,,,,,,,,,,,,,,,,,5c0da14d656168000159da7a,2020-08-10_13h20.20.779,lexical_decision_task_MP,2020.1.3,Win32,60,m,1,0.819,,,,,,,,0.819,1,,,,,,82,WORD,UN,33,result,STIGMA,m,,,,,,0.117777778,-0.177777778,0,0,0,,0,187,187,141,1,,
,,,,,,,,,,,,,,,,,,5c0da14d656168000159da7a,2020-08-10_13h20.20.779,lexical_decision_task_MP,2020.1.3,Win32,60,m,1,0.651,,,,,,,,0.651,1,,,,,,154,WORD,UN,50,lizard,AUTHOR,m,,,,,,0.117777778,-0.177777778,0,0,0,,0,188,188,213,1,,
,,,,,,,,,,,,,,,,,,5c0da14d656168000159da7a,2020-08-10_13h20.20.779,lexical_decision_task_MP,2020.1.3,Win32,60,m,1,0.586,,,,,,,,0.586,1,,,,,,196,WORD,"ID",33,credit,CREDIT,m,,,,,,0.117777778,-0.177777778,0,0,0,,0,189,189,15,1,,
,,,,,,,,,,,,,,,,,,5c0da14d656168000159da7a,2020-08-10_13h20.20.779,lexical_decision_task_MP,2020.1.3,Win32,60,m,1,0.6,,,,,,,,0.6,1,,,,,,236,WORD,"ID",33,pirate,PIRATE,m,,,,,,0.117777778,-0.177777778,0,0,0,,0,190,190,55,1,,
,,,,,,,,,,,,,,,,,,5c0da14d656168000159da7a,2020-08-10_13h20.20.779,lexical_decision_task_MP,2020.1.3,Win32,60,z,1,0.724,,,,,,,,0.724,1,,,,,,354,NW,UN,33,zingly,VIRLEX,z,,,,,,0.117777778,-0.177777778,0,0,0,,0,191,191,413,1,,
,,,,,,,,,,,,,,,,,,5c0da14d656168000159da7a,2020-08-10_13h20.20.779,lexical_decision_task_MP,2020.1.3,Win32,60,m,1,0.801,,,,,,,,0.801,1,,,,,,123,WORD,UN,50,blouse,STRIKE,m,,,,,,0.117777778,-0.177777778,0,0,0,,0,192,192,182,1,,
,,,,,,,,,,,,,,,,,,5c0da14d656168000159da7a,2020-08-10_13h20.20.779,lexical_decision_task_MP,2020.1.3,Win32,60,z,1,0.851,,,,,,,,0.851,1,,,,,,353,NW,UN,33,virlex,CLUREY,z,,,,,,0.117777778,-0.177777778,0,0,0,,0,193,193,412,1,,
,,,,,,,,,,,,,,,,,,5c0da14d656168000159da7a,2020-08-10_13h20.20.779,lexical_decision_task_MP,2020.1.3,Win32,60,m,1,0.753,,,,,,,,0.753,1,,,,,,145,WORD,UN,50,couple,PARISH,m,,,,,,0.117777778,-0.177777778,0,0,0,,0,194,194,204,1,,
,,,,,,,,,,,,,,,,,,5c0da14d656168000159da7a,2020-08-10_13h20.20.779,lexical_decision_task_MP,2020.1.3,Win32,60,z,1,0.716,,,,,,,,0.716,1,,,,,,254,NW,"ID",50,varosh,VAROSH,z,,,,,,0.117777778,-0.177777778,0,0,0,,0,195,195,313,1,,
,,,,,,,,,,,,,,,,,,5c0da14d656168000159da7a,2020-08-10_13h20.20.779,lexical_decision_task_MP,2020.1.3,Win32,60,z,1,0.741,,,,,,,,0.741,1,,,,,,256,NW,"ID",50,inlors,INLORS,z,,,,,,0.117777778,-0.177777778,0,0,0,,0,196,196,315,1,,
,,,,,,,,,,,,,,,,,,5c0da14d656168000159da7a,2020-08-10_13h20.20.779,lexical_decision_task_MP,2020.1.3,Win32,60,z,1,1.018,,,,,,,,1.018,1,,,,,,299,NW,"ID",50,sturch,STURCH,z,,,,,,0.117777778,-0.177777778,0,0,0,,0,197,197,358,1,,
,,,,,,,,,,,,,,,,,,5c0da14d656168000159da7a,2020-08-10_13h20.20.779,lexical_decision_task_MP,2020.1.3,Win32,60,z,1,0.851,,,,,,,,0.851,1,,,,,,251,NW,"ID",50,lupict,LUPICT,z,,,,,,0.117777778,-0.177777778,0,0,0,,0,198,198,310,1,,
,,,,,,,,,,,,,,,,,,5c0da14d656168000159da7a,2020-08-10_13h20.20.779,lexical_decision_task_MP,2020.1.3,Win32,60,m,1,0.601,,,,,,,,0.601,1,,,,,,185,WORD,"ID",33,bother,BOTHER,m,,,,,,0.117777778,-0.177777778,0,0,0,,0,199,199,4,1,,
,,,,,,,,,,,,,,,,,,5c0da14d656168000159da7a,2020-08-10_13h20.20.779,lexical_decision_task_MP,2020.1.3,Win32,60,m,1,0.719,,,,,,,,0.719,1,,,,,,152,WORD,UN,50,behold,ROCKET,m,,,,,,0.117777778,-0.177777778,0,0,0,,0,200,200,211,1,,
,,,,,,,,,,,,,,,,,,5c0da14d656168000159da7a,2020-08-10_13h20.20.779,lexical_decision_task_MP,2020.1.3,Win32,60,m,1,0.652,,,,,,,,0.652,1,,,,,,217,WORD,"ID",33,liquor,LIQUOR,m,,,,,,0.117777778,-0.177777778,0,0,0,,0,201,201,36,1,,
,,,,,,,,,,,,,,,,,,5c0da14d656168000159da7a,2020-08-10_13h20.20.779,lexical_decision_task_MP,2020.1.3,Win32,60,m,1,0.619,,,,,,,,0.619,1,,,,,,164,WORD,UN,50,invest,MARKET,m,,,,,,0.117777778,-0.177777778,0,0,0,,0,202,202,223,1,,
,,,,,,,,,,,,,,,,,,5c0da14d656168000159da7a,2020-08-10_13h20.20.779,lexical_decision_task_MP,2020.1.3,Win32,60,z,1,0.884,,,,,,,,0.884,1,,,,,,275,NW,"ID",50,sleirt,SLEIRT,z,,,,,,0.117777778,-0.177777778,0,0,0,,0,203,203,334,1,,
,,,,,,,,,,,,,,,,,,5c0da14d656168000159da7a,2020-08-10_13h20.20.779,lexical_decision_task_MP,2020.1.3,Win32,60,m,1,0.822,,,,,,,,0.822,1,,,,,,125,WORD,UN,50,enough,NICKEL,m,,,,,,0.117777778,-0.177777778,0,0,0,,0,204,204,184,1,,
,,,,,,,,,,,,,,,,,,5c0da14d656168000159da7a,2020-08-10_13h20.20.779,lexical_decision_task_MP,2020.1.3,Win32,60,m,1,0.575,,,,,,,,0.575,1,,,,,,208,WORD,"ID",33,hockey,HOCKEY,m,,,,,,0.117777778,-0.177777778,0,0,0,,0,205,205,27,1,,
,,,,,,,,,,,,,,,,,,5c0da14d656168000159da7a,2020-08-10_13h20.20.779,lexical_decision_task_MP,2020.1.3,Win32,60,z,1,0.704,,,,,,,,0.704,1,,,,,,309,NW,UN,33,daniet,AMILOY,z,,,,,,0.117777778,-0.177777778,0,0,0,,0,206,206,368,1,,
,,,,,,,,,,,,,,,,,,5c0da14d656168000159da7a,2020-08-10_13h20.20.779,lexical_decision_task_MP,2020.1.3,Win32,60,z,1,0.65,,,,,,,,0.65,1,,,,,,311,NW,UN,33,nerawl,SPROLY,z,,,,,,0.117777778,-0.177777778,0,0,0,,0,207,207,370,1,,
,,,,,,,,,,,,,,,,,,5c0da14d656168000159da7a,2020-08-10_13h20.20.779,lexical_decision_task_MP,2020.1.3,Win32,60,m,1,0.604,,,,,,,,0.604,1,,,,,,102,WORD,UN,33,bounce,DIRECT,m,,,,,,0.117777778,-0.177777778,0,0,0,,0,208,208,161,1,,
,,,,,,,,,,,,,,,,,,5c0da14d656168000159da7a,2020-08-10_13h20.20.779,lexical_decision_task_MP,2020.1.3,Win32,60,z,0,1.42,,,,,,,,1.42,0,,,,,,139,WORD,UN,50,prince,DEBRIS,m,,,,,,0.117777778,-0.177777778,0,0,0,,0,209,209,198,1,,
,,,,,,,,,,,,,,,,,,5c0da14d656168000159da7a,2020-08-10_13h20.20.779,lexical_decision_task_MP,2020.1.3,Win32,60,m,1,0.989,,,,,,,,0.989,1,,,,,,112,WORD,UN,33,chorus,BREATH,m,,,,,,0.117777778,-0.177777778,0,0,0,,0,210,210,171,1,,
,,,,,,,,,,,,,,,,,,5c0da14d656168000159da7a,2020-08-10_13h20.20.779,lexical_decision_task_MP,2020.1.3,Win32,60,z,1,0.884,,,,,,,,0.884,1,,,,,,373,NW,UN,50,sliant,BIGENT,z,,,,,,0.117777778,-0.177777778,0,0,0,,0,211,211,432,1,,
,,,,,,,,,,,,,,,,,,5c0da14d656168000159da7a,2020-08-10_13h20.20.779,lexical_decision_task_MP,2020.1.3,Win32,60,m,1,0.734,,,,,,,,0.734,1,,,,,,80,WORD,UN,33,friend,FAMILY,m,,,,,,0.117777778,-0.177777778,0,0,0,,0,212,212,139,1,,
,,,,,,,,,,,,,,,,,,5c0da14d656168000159da7a,2020-08-10_13h20.20.779,lexical_decision_task_MP,2020.1.3,Win32,60,z,1,0.768,,,,,,,,0.768,1,,,,,,323,NW,UN,33,steikh,ROSAIL,z,,,,,,0.117777778,-0.177777778,0,0,0,,0,213,213,382,1,,
,,,,,,,,,,,,,,,,,,5c0da14d656168000159da7a,2020-08-10_13h20.20.779,lexical_decision_task_MP,2020.1.3,Win32,60,z,1,0.737,,,,,,,,0.737,1,,,,,,317,NW,UN,33,reagly,WORBAL,z,,,,,,0.117777778,-0.177777778,0,0,0,,0,214,214,376,1,,
,,,,,,,,,,,,,,,,,,5c0da14d656168000159da7a,2020-08-10_13h20.20.779,lexical_decision_task_MP,2020.1.3,Win32,60,z,1,0.708,,,,,,,,0.708,1,,,,,,464,NW,"ID",33,chaite,CHAITE,z,,,,,,0.117777778,-0.177777778,0,0,0,,0,215,215,283,1,,
,,,,,,,,,,,,,,,,,,5c0da14d656168000159da7a,2020-08-10_13h20.20.779,lexical_decision_task_MP,2020.1.3,Win32,60,z,1,0.869,,,,,,,,0.869,1,,,,,,419,NW,UN,50,gushop,SLOUNT,z,,,,,,0.117777778,-0.177777778,0,0,0,,0,216,216,478,1,,
,,,,,,,,,,,,,,,,,,5c0da14d656168000159da7a,2020-08-10_13h20.20.779,lexical_decision_task_MP,2020.1.3,Win32,60,m,1,0.605,,,,,,,,0.605,1,,,,,,147,WORD,UN,50,custom,GARLIC,m,,,,,,0.117777778,-0.177777778,0,0,0,,0,217,217,206,1,,
,,,,,,,,,,,,,,,,,,5c0da14d656168000159da7a,2020-08-10_13h20.20.779,lexical_decision_task_MP,2020.1.3,Win32,60,m,1,0.717,,,,,,,,0.717,1,,,,,,30,WORD,"ID",50,orient,ORIENT,m,,,,,,0.117777778,-0.177777778,0,0,0,,0,218,218,89,1,,
,,,,,,,,,,,,,,,,,,5c0da14d656168000159da7a,2020-08-10_13h20.20.779,lexical_decision_task_MP,2020.1.3,Win32,60,z,1,0.867,,,,,,,,0.867,1,,,,,,319,NW,UN,33,jockal,ZOMBER,z,,,,,,0.117777778,-0.177777778,0,0,0,,0,219,219,378,1,,
,,,,,,,,,,,,,,,,,,5c0da14d656168000159da7a,2020-08-10_13h20.20.779,lexical_decision_task_MP,2020.1.3,Win32,60,z,1,0.851,,,,,,,,0.851,1,,,,,,333,NW,UN,33,watmeg,CATRIE,z,,,,,,0.117777778,-0.177777778,0,0,0,,0,220,220,392,1,,
,,,,,,,,,,,,,,,,,,5c0da14d656168000159da7a,2020-08-10_13h20.20.779,lexical_decision_task_MP,2020.1.3,Win32,60,m,1,0.67,,,,,,,,0.67,1,,,,,,23,WORD,"ID",50,wealth,WEALTH,m,,,,,,0.117777778,-0.177777778,0,0,0,,0,221,221,82,1,,
,,,,,,,,,,,,,,,,,,5c0da14d656168000159da7a,2020-08-10_13h20.20.779,lexical_decision_task_MP,2020.1.3,Win32,60,z,1,0.773,,,,,,,,0.773,1,,,,,,337,NW,UN,33,wreash,REJOLS,z,,,,,,0.117777778,-0.177777778,0,0,0,,0,222,222,396,1,,
,,,,,,,,,,,,,,,,,,5c0da14d656168000159da7a,2020-08-10_13h20.20.779,lexical_decision_task_MP,2020.1.3,Win32,60,m,1,0.702,,,,,,,,0.702,1,,,,,,10,WORD,"ID",50,ethnic,ETHNIC,m,,,,,,0.117777778,-0.177777778,0,0,0,,0,223,223,69,1,,
,,,,,,,,,,,,,,,,,,5c0da14d656168000159da7a,2020-08-10_13h20.20.779,lexical_decision_task_MP,2020.1.3,Win32,60,z,1,0.755,,,,,,,,0.755,1,,,,,,248,NW,"ID",50,strole,STROLE,z,,,,,,0.117777778,-0.177777778,0,0,0,,0,224,224,307,1,,
,,,,,,,,,,,,,,,,,,5c0da14d656168000159da7a,2020-08-10_13h20.20.779,lexical_decision_task_MP,2020.1.3,Win32,60,m,1,0.6,,,,,,,,0.6,1,,,,,,109,WORD,UN,33,polite,WONDER,m,,,,,,0.117777778,-0.177777778,0,0,0,,0,225,225,168,1,,
,,,,,,,,,,,,,,,,,,5c0da14d656168000159da7a,2020-08-10_13h20.20.779,lexical_decision_task_MP,2020.1.3,Win32,60,z,1,0.621,,,,,,,,0.621,1,,,,,,383,NW,UN,50,guesco,AUNGRE,z,,,,,,0.117777778,-0.177777778,0,0,0,,0,226,226,442,1,,
,,,,,,,,,,,,,,,,,,5c0da14d656168000159da7a,2020-08-10_13h20.20.779,lexical_decision_task_MP,2020.1.3,Win32,60,z,1,0.767,,,,,,,,0.767,1,,,,,,318,NW,UN,33,zomber,REAGLY,z,,,,,,0.117777778,-0.177777778,0,0,0,,0,227,227,377,1,,
,,,,,,,,,,,,,,,,,,5c0da14d656168000159da7a,2020-08-10_13h20.20.779,lexical_decision_task_MP,2020.1.3,Win32,60,m,1,1.287,,,,,,,,1.287,1,,,,,,54,WORD,"ID",50,ramble,RAMBLE,m,,,,,,0.117777778,-0.177777778,0,0,0,,0,228,228,113,1,,
,,,,,,,,,,,,,,,,,,5c0da14d656168000159da7a,2020-08-10_13h20.20.779,lexical_decision_task_MP,2020.1.3,Win32,60,z,1,0.769,,,,,,,,0.769,1,,,,,,365,NW,UN,50,toshel,GUAIRT,z,,,,,,0.117777778,-0.177777778,0,0,0,,0,229,229,424,1,,
,,,,,,,,,,,,,,,,,,5c0da14d656168000159da7a,2020-08-10_13h20.20.779,lexical_decision_task_MP,2020.1.3,Win32,60,z,1,1.037,,,,,,,,1.037,1,,,,,,351,NW,UN,33,tringe,TIESCH,z,,,,,,0.117777778,-0.177777778,0,0,0,,0,230,230,410,1,,
,,,,,,,,,,,,,,,,,,5c0da14d656168000159da7a,2020-08-10_13h20.20.779,lexical_decision_task_MP,2020.1.3,Win32,60,m,1,0.618,,,,,,,,0.618,1,,,,,,223,WORD,"ID",33,kidney,KIDNEY,m,,,,,,0.117777778,-0.177777778,0,0,0,,0,231,231,42,1,,
,,,,,,,,,,,,,,,,,,5c0da14d656168000159da7a,2020-08-10_13h20.20.779,lexical_decision_task_MP,2020.1.3,Win32,60,z,1,0.789,,,,,,,,0.789,1,,,,,,302,NW,UN,33,fiream,MILUER,z,,,,,,0.117777778,-0.177777778,0,0,0,,0,232,232,361,1,,
,,,,,,,,,,,,,,,,,,5c0da14d656168000159da7a,2020-08-10_13h20.20.779,lexical_decision_task_MP,2020.1.3,Win32,60,z,1,0.806,,,,,,,,0.806,1,,,,,,478,NW,"ID",33,acrise,ACRISE,z,,,,,,0.117777778,-0.177777778,0,0,0,,0,233,233,297,1,,
,,,,,,,,,,,,,,,,,,5c0da14d656168000159da7a,2020-08-10_13h20.20.779,lexical_decision_task_MP,2020.1.3,Win32,60,m,1,0.686,,,,,,,,0.686,1,,,,,,117,WORD,UN,33,flight,BRANCH,m,,,,,,0.117777778,-0.177777778,0,0,0,,0,234,234,176,1,,
,,,,,,,,,,,,,,,,,,5c0da14d656168000159da7a,2020-08-10_13h20.20.779,lexical_decision_task_MP,2020.1.3,Win32,60,m,1,0.917,,,,,,,,0.917,1,,,,,,227,WORD,"ID",33,seldom,SELDOM,m,,,,,,0.117777778,-0.177777778,0,0,0,,0,235,235,46,1,,
,,,,,,,,,,,,,,,,,,5c0da14d656168000159da7a,2020-08-10_13h20.20.779,lexical_decision_task_MP,2020.1.3,Win32,60,z,1,0.867,,,,,,,,0.867,1,,,,,,332,NW,UN,33,catrie,VANGUE,z,,,,,,0.117777778,-0.177777778,0,0,0,,0,236,236,391,1,,
,,,,,,,,,,,,,,,,,,5c0da14d656168000159da7a,2020-08-10_13h20.20.779,lexical_decision_task_MP,2020.1.3,Win32,60,z,1,0.79,,,,,,,,0.79,1,,,,,,363,NW,UN,50,impote,BREALI,z,,,,,,0.117777778,-0.177777778,0,0,0,,0,237,237,422,1,,
,,,,,,,,,,,,,,,,,,5c0da14d656168000159da7a,2020-08-10_13h20.20.779,lexical_decision_task_MP,2020.1.3,Win32,60,z,1,1.301,,,,,,,,1.301,1,,,,,,389,NW,UN,50,hatrus,WITMER,z,,,,,,0.117777778,-0.177777778,0,0,0,,0,238,238,448,1,,
,,,,,,,,,,,,,,,,,,5c0da14d656168000159da7a,2020-08-10_13h20.20.779,lexical_decision_task_MP,2020.1.3,Win32,60,m,1,0.651,,,,,,,,0.651,1,,,,,,172,WORD,UN,50,shower,PATROL,m,,,,,,0.117777778,-0.177777778,0,0,0,,0,239,239,231,1,,
,,,,,,,,,,,,,,,,,,5c0da14d656168000159da7a,2020-08-10_13h20.20.779,lexical_decision_task_MP,2020.1.3,Win32,60,m,0,1.252,,,,,,,,1.252,0,,,,,,432,NW,"ID",33,lunker,LUNKER,z,,,,,,0.117777778,-0.177777778,0,0,0,,0,240,240,251,1,,
,,,,,,,,,,,,,,,,,,5c0da14d656168000159da7a,2020-08-10_13h20.20.779,lexical_decision_task_MP,2020.1.3,Win32,60,m,1,0.641,,,,,,,,0.641,1,,,,,,181,WORD,"ID",33,glance,GLANCE,m,,,,,,0.018888889,-0.397777778,1,0,0,,0,241,241,0,1,,break_done_button
,,,,,,,,,,,,,,,,,,5c0da14d656168000159da7a,2020-08-10_13h20.20.779,lexical_decision_task_MP,2020.1.3,Win32,60,,0,,,,,,,,,0.641,-1,,,,,,219,WORD,"ID",33,bucket,BUCKET,m,,,,,,0.022222222,-0.385555556,0,0,0,,0,242,242,38,1,,
,,,,,,,,,,,,,,,,,,5c0da14d656168000159da7a,2020-08-10_13h20.20.779,lexical_decision_task_MP,2020.1.3,Win32,60,m,1,0.802,,,,,,,,0.802,1,,,,,,43,WORD,"ID",50,tongue,TONGUE,m,,,,,,0.023333333,-0.384444444,0,0,0,,0,243,243,102,1,,
,,,,,,,,,,,,,,,,,,5c0da14d656168000159da7a,2020-08-10_13h20.20.779,lexical_decision_task_MP,2020.1.3,Win32,60,m,1,0.705,,,,,,,,0.705,1,,,,,,175,WORD,UN,50,strife,FABRIC,m,,,,,,0.023333333,-0.384444444,0,0,0,,0,244,244,234,1,,
,,,,,,,,,,,,,,,,,,5c0da14d656168000159da7a,2020-08-10_13h20.20.779,lexical_decision_task_MP,2020.1.3,Win32,60,m,1,0.918,,,,,,,,0.918,1,,,,,,233,WORD,"ID",33,nature,NATURE,m,,,,,,0.023333333,-0.384444444,0,0,0,,0,245,245,52,1,,
,,,,,,,,,,,,,,,,,,5c0da14d656168000159da7a,2020-08-10_13h20.20.779,lexical_decision_task_MP,2020.1.3,Win32,60,z,1,0.737,,,,,,,,0.737,1,,,,,,391,NW,UN,50,rouncy,THELDY,z,,,,,,0.023333333,-0.384444444,0,0,0,,0,246,246,450,1,,
,,,,,,,,,,,,,,,,,,5c0da14d656168000159da7a,2020-08-10_13h20.20.779,lexical_decision_task_MP,2020.1.3,Win32,60,m,1,1.002,,,,,,,,1.002,1,,,,,,81,WORD,UN,33,stigma,FRIEND,m,,,,,,0.023333333,-0.384444444,0,0,0,,0,247,247,140,1,,
,,,,,,,,,,,,,,,,,,5c0da14d656168000159da7a,2020-08-10_13h20.20.779,lexical_decision_task_MP,2020.1.3,Win32,60,m,1,0.742,,,,,,,,0.742,1,,,,,,132,WORD,UN,50,orphan,STRONG,m,,,,,,0.023333333,-0.384444444,0,0,0,,0,248,248,191,1,,
,,,,,,,,,,,,,,,,,,5c0da14d656168000159da7a,2020-08-10_13h20.20.779,lexical_decision_task_MP,2020.1.3,Win32,60,z,1,0.674,,,,,,,,0.674,1,,,,,,358,NW,UN,33,fonver,FLEACK,z,,,,,,0.023333333,-0.384444444,0,0,0,,0,249,249,417,1,,
,,,,,,,,,,,,,,,,,,5c0da14d656168000159da7a,2020-08-10_13h20.20.779,lexical_decision_task_MP,2020.1.3,Win32,60,m,1,0.518,,,,,,,,0.518,1,,,,,,14,WORD,"ID",50,almost,ALMOST,m,,,,,,0.023333333,-0.384444444,0,0,0,,0,250,250,73,1,,
,,,,,,,,,,,,,,,,,,5c0da14d656168000159da7a,2020-08-10_13h20.20.779,lexical_decision_task_MP,2020.1.3,Win32,60,m,1,0.717,,,,,,,,0.717,1,,,,,,77,WORD,UN,33,column,RACKET,m,,,,,,0.023333333,-0.384444444,0,0,0,,0,251,251,136,1,,
,,,,,,,,,,,,,,,,,,5c0da14d656168000159da7a,2020-08-10_13h20.20.779,lexical_decision_task_MP,2020.1.3,Win32,60,z,1,0.669,,,,,,,,0.669,1,,,,,,474,NW,"ID",33,hablin,HABLIN,z,,,,,,0.023333333,-0.384444444,0,0,0,,0,252,252,293,1,,
,,,,,,,,,,,,,,,,,,5c0da14d656168000159da7a,2020-08-10_13h20.20.779,lexical_decision_task_MP,2020.1.3,Win32,60,z,1,0.684,,,,,,,,0.684,1,,,,,,271,NW,"ID",50,aubrid,AUBRID,z,,,,,,0.023333333,-0.384444444,0,0,0,,0,253,253,330,1,,
,,,,,,,,,,,,,,,,,,5c0da14d656168000159da7a,2020-08-10_13h20.20.779,lexical_decision_task_MP,2020.1.3,Win32,60,z,1,0.705,,,,,,,,0.705,1,,,,,,479,NW,"ID",33,lobush,LOBUSH,z,,,,,,0.023333333,-0.384444444,0,0,0,,0,254,254,298,1,,
,,,,,,,,,,,,,,,,,,5c0da14d656168000159da7a,2020-08-10_13h20.20.779,lexical_decision_task_MP,2020.1.3,Win32,60,m,1,0.669,,,,,,,,0.669,1,,,,,,188,WORD,"ID",33,social,SOCIAL,m,,,,,,0.023333333,-0.384444444,0,0,0,,0,255,255,7,1,,
,,,,,,,,,,,,,,,,,,5c0da14d656168000159da7a,2020-08-10_13h20.20.779,lexical_decision_task_MP,2020.1.3,Win32,60,m,1,0.788,,,,,,,,0.788,1,,,,,,231,WORD,"ID",33,export,EXPORT,m,,,,,,0.023333333,-0.384444444,0,0,0,,0,256,256,50,1,,
,,,,,,,,,,,,,,,,,,5c0da14d656168000159da7a,2020-08-10_13h20.20.779,lexical_decision_task_MP,2020.1.3,Win32,60,m,1,0.734,,,,,,,,0.734,1,,,,,,105,WORD,UN,33,ransom,NUMBER,m,,,,,,0.023333333,-0.384444444,0,0,0,,0,257,257,164,1,,
,,,,,,,,,,,,,,,,,,5c0da14d656168000159da7a,2020-08-10_13h20.20.779,lexical_decision_task_MP,2020.1.3,Win32,60,z,1,0.734,,,,,,,,0.734,1,,,,,,429,NW,"ID",33,funtle,FUNTLE,z,,,,,,0.023333333,-0.384444444,0,0,0,,0,258,258,248,1,,
,,,,,,,,,,,,,,,,,,5c0da14d656168000159da7a,2020-08-10_13h20.20.779,lexical_decision_task_MP,2020.1.3,Win32,60,m,1,0.54,,,,,,,,0.54,1,,,,,,202,WORD,"ID",33,factor,FACTOR,m,,,,,,0.023333333,-0.384444444,0,0,0,,0,259,259,21,1,,
,,,,,,,,,,,,,,,,,,5c0da14d656168000159da7a,2020-08-10_13h20.20.779,lexical_decision_task_MP,2020.1.3,Win32,60,z,1,0.667,,,,,,,,0.667,1,,,,,,381,NW,UN,50,sarley,HUNIEK,z,,,,,,0.023333333,-0.384444444,0,0,0,,0,260,260,440,1,,
,,,,,,,,,,,,,,,,,,5c0da14d656168000159da7a,2020-08-10_13h20.20.779,lexical_decision_task_MP,2020.1.3,Win32,60,m,1,0.584,,,,,,,,0.584,1,,,,,,20,WORD,"ID",50,breast,BREAST,m,,,,,,0.023333333,-0.384444444,0,0,0,,0,261,261,79,1,,
,,,,,,,,,,,,,,,,,,5c0da14d656168000159da7a,2020-08-10_13h20.20.779,lexical_decision_task_MP,2020.1.3,Win32,60,m,0,0.575,,,,,,,,0.575,0,,,,,,342,NW,UN,33,aimosy,RANDOW,z,,,,,,0.023333333,-0.384444444,0,0,0,,0,262,262,401,1,,
,,,,,,,,,,,,,,,,,,5c0da14d656168000159da7a,2020-08-10_13h20.20.779,lexical_decision_task_MP,2020.1.3,Win32,60,z,0,0.584,,,,,,,,0.584,0,,,,,,104,WORD,UN,33,number,STUDIO,m,,,,,,0.023333333,-0.384444444,0,0,0,,0,263,263,163,1,,
,,,,,,,,,,,,,,,,,,5c0da14d656168000159da7a,2020-08-10_13h20.20.779,lexical_decision_task_MP,2020.1.3,Win32,60,m,1,0.658,,,,,,,,0.658,1,,,,,,88,WORD,UN,33,permit,HUNGER,m,,,,,,0.023333333,-0.384444444,0,0,0,,0,264,264,147,1,,
,,,,,,,,,,,,,,,,,,5c0da14d656168000159da7a,2020-08-10_13h20.20.779,lexical_decision_task_MP,2020.1.3,Win32,60,z,1,0.753,,,,,,,,0.753,1,,,,,,463,NW,"ID",33,kispel,KISPEL,z,,,,,,0.023333333,-0.384444444,0,0,0,,0,265,265,282,1,,
,,,,,,,,,,,,,,,,,,5c0da14d656168000159da7a,2020-08-10_13h20.20.779,lexical_decision_task_MP,2020.1.3,Win32,60,z,1,0.72,,,,,,,,0.72,1,,,,,,292,NW,"ID",50,ablint,ABLINT,z,,,,,,0.023333333,-0.384444444,0,0,0,,0,266,266,351,1,,
,,,,,,,,,,,,,,,,,,5c0da14d656168000159da7a,2020-08-10_13h20.20.779,lexical_decision_task_MP,2020.1.3,Win32,60,m,1,0.703,,,,,,,,0.703,1,,,,,,31,WORD,"ID",50,weapon,WEAPON,m,,,,,,0.023333333,-0.384444444,0,0,0,,0,267,267,90,1,,
,,,,,,,,,,,,,,,,,,5c0da14d656168000159da7a,2020-08-10_13h20.20.779,lexical_decision_task_MP,2020.1.3,Win32,60,m,1,0.674,,,,,,,,0.674,1,,,,,,194,WORD,"ID",33,absent,ABSENT,m,,,,,,0.023333333,-0.384444444,0,0,0,,0,268,268,13,1,,
,,,,,,,,,,,,,,,,,,5c0da14d656168000159da7a,2020-08-10_13h20.20.779,lexical_decision_task_MP,2020.1.3,Win32,60,z,1,0.9,,,,,,,,0.9,1,,,,,,296,NW,"ID",50,beinch,BEINCH,z,,,,,,0.023333333,-0.384444444,0,0,0,,0,269,269,355,1,,
,,,,,,,,,,,,,,,,,,5c0da14d656168000159da7a,2020-08-10_13h20.20.779,lexical_decision_task_MP,2020.1.3,Win32,60,z,1,0.82,,,,,,,,0.82,1,,,,,,310,NW,UN,33,sproly,DANIET,z,,,,,,0.023333333,-0.384444444,0,0,0,,0,270,270,369,1,,
,,,,,,,,,,,,,,,,,,5c0da14d656168000159da7a,2020-08-10_13h20.20.779,lexical_decision_task_MP,2020.1.3,Win32,60,z,1,0.669,,,,,,,,0.669,1,,,,,,444,NW,"ID",33,jaunce,JAUNCE,z,,,,,,0.023333333,-0.384444444,0,0,0,,0,271,271,263,1,,
,,,,,,,,,,,,,,,,,,5c0da14d656168000159da7a,2020-08-10_13h20.20.779,lexical_decision_task_MP,2020.1.3,Win32,60,z,1,0.691,,,,,,,,0.691,1,,,,,,247,NW,"ID",50,blarge,BLARGE,z,,,,,,0.023333333,-0.384444444,0,0,0,,0,272,272,306,1,,
,,,,,,,,,,,,,,,,,,5c0da14d656168000159da7a,2020-08-10_13h20.20.779,lexical_decision_task_MP,2020.1.3,Win32,60,z,1,0.684,,,,,,,,0.684,1,,,,,,348,NW,UN,33,asylen,DUMPLE,z,,,,,,0.023333333,-0.384444444,0,0,0,,0,273,273,407,1,,
,,,,,,,,,,,,,,,,,,5c0da14d656168000159da7a,2020-08-10_13h20.20.779,lexical_decision_task_MP,2020.1.3,Win32,60,z,0,0.668,,,,,,,,0.668,0,,,,,,176,WORD,UN,50,advent,STRIFE,m,,,,,,0.023333333,-0.384444444,0,0,0,,0,274,274,235,1,,
,,,,,,,,,,,,,,,,,,5c0da14d656168000159da7a,2020-08-10_13h20.20.779,lexical_decision_task_MP,2020.1.3,Win32,60,m,1,0.651,,,,,,,,0.651,1,,,,,,66,WORD,UN,33,policy,GOSPEL,m,,,,,,0.023333333,-0.384444444,0,0,0,,0,275,275,125,1,,
,,,,,,,,,,,,,,,,,,5c0da14d656168000159da7a,2020-08-10_13h20.20.779,lexical_decision_task_MP,2020.1.3,Win32,60,z,1,0.754,,,,,,,,0.754,1,,,,,,255,NW,"ID",50,apight,APIGHT,z,,,,,,0.023333333,-0.384444444,0,0,0,,0,276,276,314,1,,
,,,,,,,,,,,,,,,,,,5c0da14d656168000159da7a,2020-08-10_13h20.20.779,lexical_decision_task_MP,2020.1.3,Win32,60,z,1,0.773,,,,,,,,0.773,1,,,,,,355,NW,UN,33,othnis,ZINGLY,z,,,,,,0.023333333,-0.384444444,0,0,0,,0,277,277,414,1,,
,,,,,,,,,,,,,,,,,,5c0da14d656168000159da7a,2020-08-10_13h20.20.779,lexical_decision_task_MP,2020.1.3,Win32,60,m,1,0.735,,,,,,,,0.735,1,,,,,,169,WORD,UN,50,pounce,GENIUS,m,,,,,,0.023333333,-0.384444444,0,0,0,,0,278,278,228,1,,
,,,,,,,,,,,,,,,,,,5c0da14d656168000159da7a,2020-08-10_13h20.20.779,lexical_decision_task_MP,2020.1.3,Win32,60,m,1,0.551,,,,,,,,0.551,1,,,,,,53,WORD,"ID",50,police,POLICE,m,,,,,,0.023333333,-0.384444444,0,0,0,,0,279,279,112,1,,
,,,,,,,,,,,,,,,,,,5c0da14d656168000159da7a,2020-08-10_13h20.20.779,lexical_decision_task_MP,2020.1.3,Win32,60,m,1,0.601,,,,,,,,0.601,1,,,,,,84,WORD,UN,33,strand,MORTAL,m,,,,,,0.023333333,-0.384444444,0,0,0,,0,280,280,143,1,,
,,,,,,,,,,,,,,,,,,5c0da14d656168000159da7a,2020-08-10_13h20.20.779,lexical_decision_task_MP,2020.1.3,Win32,60,z,1,0.667,,,,,,,,0.667,1,,,,,,267,NW,"ID",50,pasink,PASINK,z,,,,,,0.023333333,-0.384444444,0,0,0,,0,281,281,326,1,,
,,,,,,,,,,,,,,,,,,5c0da14d656168000159da7a,2020-08-10_13h20.20.779,lexical_decision_task_MP,2020.1.3,Win32,60,m,1,0.802,,,,,,,,0.802,1,,,,,,110,WORD,UN,33,induce,POLITE,m,,,,,,0.023333333,-0.384444444,0,0,0,,0,282,282,169,1,,
,,,,,,,,,,,,,,,,,,5c0da14d656168000159da7a,2020-08-10_13h20.20.779,lexical_decision_task_MP,2020.1.3,Win32,60,m,1,0.734,,,,,,,,0.734,1,,,,,,78,WORD,UN,33,theory,COLUMN,m,,,,,,0.023333333,-0.384444444,0,0,0,,0,283,283,137,1,,
,,,,,,,,,,,,,,,,,,5c0da14d656168000159da7a,2020-08-10_13h20.20.779,lexical_decision_task_MP,2020.1.3,Win32,60,z,1,0.684,,,,,,,,0.684,1,,,,,,336,NW,UN,33,rejols,GHODUS,z,,,,,,0.023333333,-0.384444444,0,0,0,,0,284,284,395,1,,
,,,,,,,,,,,,,,,,,,5c0da14d656168000159da7a,2020-08-10_13h20.20.779,lexical_decision_task_MP,2020.1.3,Win32,60,m,1,0.717,,,,,,,,0.717,1,,,,,,237,WORD,"ID",33,poster,POSTER,m,,,,,,0.023333333,-0.384444444,0,0,0,,0,285,285,56,1,,
,,,,,,,,,,,,,,,,,,5c0da14d656168000159da7a,2020-08-10_13h20.20.779,lexical_decision_task_MP,2020.1.3,Win32,60,z,1,0.818,,,,,,,,0.818,1,,,,,,242,NW,"ID",50,unwert,UNWERT,z,,,,,,0.023333333,-0.384444444,0,0,0,,0,286,286,301,1,,
,,,,,,,,,,,,,,,,,,5c0da14d656168000159da7a,2020-08-10_13h20.20.779,lexical_decision_task_MP,2020.1.3,Win32,60,m,1,0.617,,,,,,,,0.617,1,,,,,,162,WORD,UN,50,string,CANDLE,m,,,,,,0.023333333,-0.384444444,0,0,0,,0,287,287,221,1,,
,,,,,,,,,,,,,,,,,,5c0da14d656168000159da7a,2020-08-10_13h20.20.779,lexical_decision_task_MP,2020.1.3,Win32,60,m,1,0.617,,,,,,,,0.617,1,,,,,,67,WORD,UN,33,fumble,POLICY,m,,,,,,0.023333333,-0.384444444,0,0,0,,0,288,288,126,1,,
,,,,,,,,,,,,,,,,,,5c0da14d656168000159da7a,2020-08-10_13h20.20.779,lexical_decision_task_MP,2020.1.3,Win32,60,z,1,0.767,,,,,,,,0.767,1,,,,,,252,NW,"ID",50,stapod,STAPOD,z,,,,,,0.023333333,-0.384444444,0,0,0,,0,289,289,311,1,,
,,,,,,,,,,,,,,,,,,5c0da14d656168000159da7a,2020-08-10_13h20.20.779,lexical_decision_task_MP,2020.1.3,Win32,60,m,1,0.667,,,,,,,,0.667,1,,,,,,65,WORD,UN,33,gospel,SYMBOL,m,,,,,,0.023333333,-0.384444444,0,0,0,,0,290,290,124,1,,
,,,,,,,,,,,,,,,,,,5c0da14d656168000159da7a,2020-08-10_13h20.20.779,lexical_decision_task_MP,2020.1.3,Win32,60,m,1,0.718,,,,,,,,0.718,1,,,,,,190,WORD,"ID",33,backup,BACKUP,m,,,,,,0.023333333,-0.384444444,0,0,0,,0,291,291,9,1,,
,,,,,,,,,,,,,,,,,,5c0da14d656168000159da7a,2020-08-10_13h20.20.779,lexical_decision_task_MP,2020.1.3,Win32,60,z,1,0.99,,,,,,,,0.99,1,,,,,,476,NW,"ID",33,josted,JOSTED,z,,,,,,0.023333333,-0.384444444,0,0,0,,0,292,292,295,1,,
,,,,,,,,,,,,,,,,,,5c0da14d656168000159da7a,2020-08-10_13h20.20.779,lexical_decision_task_MP,2020.1.3,Win32,60,z,1,1.101,,,,,,,,1.101,1,,,,,,448,NW,"ID",33,sadent,SADENT,z,,,,,,0.023333333,-0.384444444,0,0,0,,0,293,293,267,1,,
,,,,,,,,,,,,,,,,,,5c0da14d656168000159da7a,2020-08-10_13h20.20.779,lexical_decision_task_MP,2020.1.3,Win32,60,z,1,0.667,,,,,,,,0.667,1,,,,,,330,NW,UN,33,gilfew,KENSOM,z,,,,,,0.023333333,-0.384444444,0,0,0,,0,294,294,389,1,,
,,,,,,,,,,,,,,,,,,5c0da14d656168000159da7a,2020-08-10_13h20.20.779,lexical_decision_task_MP,2020.1.3,Win32,60,z,1,0.641,,,,,,,,0.641,1,,,,,,412,NW,UN,50,equats,JILUER,z,,,,,,0.023333333,-0.384444444,0,0,0,,0,295,295,471,1,,
,,,,,,,,,,,,,,,,,,5c0da14d656168000159da7a,2020-08-10_13h20.20.779,lexical_decision_task_MP,2020.1.3,Win32,60,z,1,0.704,,,,,,,,0.704,1,,,,,,301,NW,UN,33,miluer,FAINCH,z,,,,,,0.023333333,-0.384444444,0,0,0,,0,296,296,360,1,,
,,,,,,,,,,,,,,,,,,5c0da14d656168000159da7a,2020-08-10_13h20.20.779,lexical_decision_task_MP,2020.1.3,Win32,60,m,1,0.719,,,,,,,,0.719,1,,,,,,207,WORD,"ID",33,wreath,WREATH,m,,,,,,0.023333333,-0.384444444,0,0,0,,0,297,297,26,1,,
,,,,,,,,,,,,,,,,,,5c0da14d656168000159da7a,2020-08-10_13h20.20.779,lexical_decision_task_MP,2020.1.3,Win32,60,m,1,0.602,,,,,,,,0.602,1,,,,,,97,WORD,UN,33,belong,CLIENT,m,,,,,,0.023333333,-0.384444444,0,0,0,,0,298,298,156,1,,
,,,,,,,,,,,,,,,,,,5c0da14d656168000159da7a,2020-08-10_13h20.20.779,lexical_decision_task_MP,2020.1.3,Win32,60,m,1,0.683,,,,,,,,0.683,1,,,,,,122,WORD,UN,50,strike,LINGER,m,,,,,,0.023333333,-0.384444444,0,0,0,,0,299,299,181,1,,
,,,,,,,,,,,,,,,,,,5c0da14d656168000159da7a,2020-08-10_13h20.20.779,lexical_decision_task_MP,2020.1.3,Win32,60,m,1,0.552,,,,,,,,0.552,1,,,,,,198,WORD,"ID",33,wicked,WICKED,m,,,,,,0.023333333,-0.384444444,0,0,0,,0,300,300,17,1,,
,,,,,,,,,,,,,,,,,,5c0da14d656168000159da7a,2020-08-10_13h20.20.779,lexical_decision_task_MP,2020.1.3,Win32,60,m,1,0.585,,,,,,,,0.585,1,,,,,,161,WORD,UN,50,candle,PASTOR,m,,,,,,0.023333333,-0.384444444,0,0,0,,0,301,301,220,1,,
,,,,,,,,,,,,,,,,,,5c0da14d656168000159da7a,2020-08-10_13h20.20.779,lexical_decision_task_MP,2020.1.3,Win32,60,z,1,0.668,,,,,,,,0.668,1,,,,,,279,NW,"ID",50,celond,CELOND,z,,,,,,0.023333333,-0.384444444,0,0,0,,0,302,302,338,1,,
,,,,,,,,,,,,,,,,,,5c0da14d656168000159da7a,2020-08-10_13h20.20.779,lexical_decision_task_MP,2020.1.3,Win32,60,m,1,0.751,,,,,,,,0.751,1,,,,,,87,WORD,UN,33,sprawl,FILTER,m,,,,,,0.023333333,-0.384444444,0,0,0,,0,303,303,146,1,,
,,,,,,,,,,,,,,,,,,5c0da14d656168000159da7a,2020-08-10_13h20.20.779,lexical_decision_task_MP,2020.1.3,Win32,60,z,1,0.707,,,,,,,,0.707,1,,,,,,258,NW,"ID",50,poluth,POLUTH,z,,,,,,0.023333333,-0.384444444,0,0,0,,0,304,304,317,1,,
,,,,,,,,,,,,,,,,,,5c0da14d656168000159da7a,2020-08-10_13h20.20.779,lexical_decision_task_MP,2020.1.3,Win32,60,z,1,0.583,,,,,,,,0.583,1,,,,,,384,NW,UN,50,injore,GUESCO,z,,,,,,0.023333333,-0.384444444,0,0,0,,0,305,305,443,1,,
,,,,,,,,,,,,,,,,,,5c0da14d656168000159da7a,2020-08-10_13h20.20.779,lexical_decision_task_MP,2020.1.3,Win32,60,m,1,0.617,,,,,,,,0.617,1,,,,,,146,WORD,UN,50,garlic,COUPLE,m,,,,,,0.023333333,-0.384444444,0,0,0,,0,306,306,205,1,,
,,,,,,,,,,,,,,,,,,5c0da14d656168000159da7a,2020-08-10_13h20.20.779,lexical_decision_task_MP,2020.1.3,Win32,60,z,1,0.672,,,,,,,,0.672,1,,,,,,308,NW,UN,33,amiloy,PSETCH,z,,,,,,0.023333333,-0.384444444,0,0,0,,0,307,307,367,1,,
,,,,,,,,,,,,,,,,,,5c0da14d656168000159da7a,2020-08-10_13h20.20.779,lexical_decision_task_MP,2020.1.3,Win32,60,z,1,0.601,,,,,,,,0.601,1,,,,,,467,NW,"ID",33,gorbie,GORBIE,z,,,,,,0.023333333,-0.384444444,0,0,0,,0,308,308,286,1,,
,,,,,,,,,,,,,,,,,,5c0da14d656168000159da7a,2020-08-10_13h20.20.779,lexical_decision_task_MP,2020.1.3,Win32,60,m,1,0.568,,,,,,,,0.568,1,,,,,,206,WORD,"ID",33,tailor,TAILOR,m,,,,,,0.023333333,-0.384444444,0,0,0,,0,309,309,25,1,,
,,,,,,,,,,,,,,,,,,5c0da14d656168000159da7a,2020-08-10_13h20.20.779,lexical_decision_task_MP,2020.1.3,Win32,60,m,1,0.69,,,,,,,,0.69,1,,,,,,107,WORD,UN,33,reckon,SLOGAN,m,,,,,,0.023333333,-0.384444444,0,0,0,,0,310,310,166,1,,
,,,,,,,,,,,,,,,,,,5c0da14d656168000159da7a,2020-08-10_13h20.20.779,lexical_decision_task_MP,2020.1.3,Win32,60,m,1,0.601,,,,,,,,0.601,1,,,,,,93,WORD,UN,33,travel,PUBLIC,m,,,,,,0.023333333,-0.384444444,0,0,0,,0,311,311,152,1,,
,,,,,,,,,,,,,,,,,,5c0da14d656168000159da7a,2020-08-10_13h20.20.779,lexical_decision_task_MP,2020.1.3,Win32,60,m,1,0.551,,,,,,,,0.551,1,,,,,,94,WORD,UN,33,thread,TRAVEL,m,,,,,,0.023333333,-0.384444444,0,0,0,,0,312,312,153,1,,
,,,,,,,,,,,,,,,,,,5c0da14d656168000159da7a,2020-08-10_13h20.20.779,lexical_decision_task_MP,2020.1.3,Win32,60,m,1,0.684,,,,,,,,0.684,1,,,,,,124,WORD,UN,50,nickel,BLOUSE,m,,,,,,0.023333333,-0.384444444,0,0,0,,0,313,313,183,1,,
,,,,,,,,,,,,,,,,,,5c0da14d656168000159da7a,2020-08-10_13h20.20.779,lexical_decision_task_MP,2020.1.3,Win32,60,z,1,0.736,,,,,,,,0.736,1,,,,,,289,NW,"ID",50,starby,STARBY,z,,,,,,0.023333333,-0.384444444,0,0,0,,0,314,314,348,1,,
,,,,,,,,,,,,,,,,,,5c0da14d656168000159da7a,2020-08-10_13h20.20.779,lexical_decision_task_MP,2020.1.3,Win32,60,m,1,0.907,,,,,,,,0.907,1,,,,,,156,WORD,UN,50,depart,CRADLE,m,,,,,,0.023333333,-0.384444444,0,0,0,,0,315,315,215,1,,
,,,,,,,,,,,,,,,,,,5c0da14d656168000159da7a,2020-08-10_13h20.20.779,lexical_decision_task_MP,2020.1.3,Win32,60,z,1,0.951,,,,,,,,0.951,1,,,,,,261,NW,"ID",50,stunch,STUNCH,z,,,,,,0.023333333,-0.384444444,0,0,0,,0,316,316,320,1,,
,,,,,,,,,,,,,,,,,,5c0da14d656168000159da7a,2020-08-10_13h20.20.779,lexical_decision_task_MP,2020.1.3,Win32,60,m,1,0.651,,,,,,,,0.651,1,,,,,,13,WORD,"ID",50,strive,STRIVE,m,,,,,,0.023333333,-0.384444444,0,0,0,,0,317,317,72,1,,
,,,,,,,,,,,,,,,,,,5c0da14d656168000159da7a,2020-08-10_13h20.20.779,lexical_decision_task_MP,2020.1.3,Win32,60,z,1,0.9,,,,,,,,0.9,1,,,,,,350,NW,UN,33,tiesch,NAGURS,z,,,,,,0.023333333,-0.384444444,0,0,0,,0,318,318,409,1,,
,,,,,,,,,,,,,,,,,,5c0da14d656168000159da7a,2020-08-10_13h20.20.779,lexical_decision_task_MP,2020.1.3,Win32,60,z,1,1.102,,,,,,,,1.102,1,,,,,,272,NW,"ID",50,damilt,DAMILT,z,,,,,,0.023333333,-0.384444444,0,0,0,,0,319,319,331,1,,
,,,,,,,,,,,,,,,,,,5c0da14d656168000159da7a,2020-08-10_13h20.20.779,lexical_decision_task_MP,2020.1.3,Win32,60,z,1,0.868,,,,,,,,0.868,1,,,,,,368,NW,UN,50,wronch,HORNAL,z,,,,,,0.023333333,-0.384444444,0,0,0,,0,320,320,427,1,,
,,,,,,,,,,,,,,,,,,5c0da14d656168000159da7a,2020-08-10_13h20.20.779,lexical_decision_task_MP,2020.1.3,Win32,60,z,1,0.784,,,,,,,,0.784,1,,,,,,413,NW,UN,50,serbol,EQUATS,z,,,,,,0.023333333,-0.384444444,0,0,0,,0,321,321,472,1,,
,,,,,,,,,,,,,,,,,,5c0da14d656168000159da7a,2020-08-10_13h20.20.779,lexical_decision_task_MP,2020.1.3,Win32,60,z,1,0.655,,,,,,,,0.655,1,,,,,,288,NW,"ID",50,yaceup,YACEUP,z,,,,,,0.023333333,-0.384444444,0,0,0,,0,322,322,347,1,,
,,,,,,,,,,,,,,,,,,5c0da14d656168000159da7a,2020-08-10_13h20.20.779,lexical_decision_task_MP,2020.1.3,Win32,60,m,1,0.617,,,,,,,,0.617,1,,,,,,184,WORD,"ID",33,sleazy,SLEAZY,m,,,,,,0.023333333,-0.384444444,0,0,0,,0,323,323,3,1,,
,,,,,,,,,,,,,,,,,,5c0da14d656168000159da7a,2020-08-10_13h20.20.779,lexical_decision_task_MP,2020.1.3,Win32,60,m,1,0.638,,,,,,,,0.638,1,,,,,,130,WORD,UN,50,quench,STUPID,m,,,,,,0.023333333,-0.384444444,0,0,0,,0,324,324,189,1,,
,,,,,,,,,,,,,,,,,,5c0da14d656168000159da7a,2020-08-10_13h20.20.779,lexical_decision_task_MP,2020.1.3,Win32,60,z,1,0.635,,,,,,,,0.635,1,,,,,,442,NW,"ID",33,aboune,ABOUNE,z,,,,,,0.023333333,-0.384444444,0,0,0,,0,325,325,261,1,,
,,,,,,,,,,,,,,,,,,5c0da14d656168000159da7a,2020-08-10_13h20.20.779,lexical_decision_task_MP,2020.1.3,Win32,60,z,1,0.637,,,,,,,,0.637,1,,,,,,452,NW,"ID",33,surden,SURDEN,z,,,,,,0.023333333,-0.384444444,0,0,0,,0,326,326,271,1,,
,,,,,,,,,,,,,,,,,,5c0da14d656168000159da7a,2020-08-10_13h20.20.779,lexical_decision_task_MP,2020.1.3,Win32,60,m,1,0.734,,,,,,,,0.734,1,,,,,,170,WORD,UN,50,dragon,POUNCE,m,,,,,,0.023333333,-0.384444444,0,0,0,,0,327,327,229,1,,
,,,,,,,,,,,,,,,,,,5c0da14d656168000159da7a,2020-08-10_13h20.20.779,lexical_decision_task_MP,2020.1.3,Win32,60,z,1,0.801,,,,,,,,0.801,1,,,,,,416,NW,UN,50,earoud,PATHEL,z,,,,,,0.023333333,-0.384444444,0,0,0,,0,328,328,475,1,,
,,,,,,,,,,,,,,,,,,5c0da14d656168000159da7a,2020-08-10_13h20.20.779,lexical_decision_task_MP,2020.1.3,Win32,60,m,1,0.735,,,,,,,,0.735,1,,,,,,128,WORD,UN,50,marvel,SENIOR,m,,,,,,0.023333333,-0.384444444,0,0,0,,0,329,329,187,1,,
,,,,,,,,,,,,,,,,,,5c0da14d656168000159da7a,2020-08-10_13h20.20.779,lexical_decision_task_MP,2020.1.3,Win32,60,z,1,0.706,,,,,,,,0.706,1,,,,,,374,NW,UN,50,yorque,SLIANT,z,,,,,,0.023333333,-0.384444444,0,0,0,,0,330,330,433,1,,
,,,,,,,,,,,,,,,,,,5c0da14d656168000159da7a,2020-08-10_13h20.20.779,lexical_decision_task_MP,2020.1.3,Win32,60,m,1,1.084,,,,,,,,1.084,1,,,,,,75,WORD,UN,33,exotic,TROPHY,m,,,,,,0.023333333,-0.384444444,0,0,0,,0,331,331,134,1,,
,,,,,,,,,,,,,,,,,,5c0da14d656168000159da7a,2020-08-10_13h20.20.779,lexical_decision_task_MP,2020.1.3,Win32,60,m,1,0.901,,,,,,,,0.901,1,,,,,,5,WORD,"ID",50,plunge,PLUNGE,m,,,,,,0.023333333,-0.384444444,0,0,0,,0,332,332,64,1,,
,,,,,,,,,,,,,,,,,,5c0da14d656168000159da7a,2020-08-10_13h20.20.779,lexical_decision_task_MP,2020.1.3,Win32,60,m,1,0.625,,,,,,,,0.625,1,,,,,,103,WORD,UN,33,studio,BOUNCE,m,,,,,,0.023333333,-0.384444444,0,0,0,,0,333,333,162,1,,
,,,,,,,,,,,,,,,,,,5c0da14d656168000159da7a,2020-08-10_13h20.20.779,lexical_decision_task_MP,2020.1.3,Win32,60,m,1,0.651,,,,,,,,0.651,1,,,,,,133,WORD,UN,50,staple,CHROME,m,,,,,,0.023333333,-0.384444444,0,0,0,,0,334,334,192,1,,
,,,,,,,,,,,,,,,,,,5c0da14d656168000159da7a,2020-08-10_13h20.20.779,lexical_decision_task_MP,2020.1.3,Win32,60,m,1,0.784,,,,,,,,0.784,1,,,,,,95,WORD,UN,33,ignore,THREAD,m,,,,,,0.023333333,-0.384444444,0,0,0,,0,335,335,154,1,,
,,,,,,,,,,,,,,,,,,5c0da14d656168000159da7a,2020-08-10_13h20.20.779,lexical_decision_task_MP,2020.1.3,Win32,60,z,1,0.825,,,,,,,,0.825,1,,,,,,338,NW,UN,33,fachow,WREASH,z,,,,,,0.023333333,-0.384444444,0,0,0,,0,336,336,397,1,,
,,,,,,,,,,,,,,,,,,5c0da14d656168000159da7a,2020-08-10_13h20.20.779,lexical_decision_task_MP,2020.1.3,Win32,60,z,1,0.8,,,,,,,,0.8,1,,,,,,356,NW,UN,33,derain,OTHNIS,z,,,,,,0.023333333,-0.384444444,0,0,0,,0,337,337,415,1,,
,,,,,,,,,,,,,,,,,,5c0da14d656168000159da7a,2020-08-10_13h20.20.779,lexical_decision_task_MP,2020.1.3,Win32,60,m,1,0.851,,,,,,,,0.851,1,,,,,,118,WORD,UN,33,spider,FLIGHT,m,,,,,,0.023333333,-0.384444444,0,0,0,,0,338,338,177,1,,
,,,,,,,,,,,,,,,,,,5c0da14d656168000159da7a,2020-08-10_13h20.20.779,lexical_decision_task_MP,2020.1.3,Win32,60,z,1,0.701,,,,,,,,0.701,1,,,,,,420,NW,UN,50,pauche,GUSHOP,z,,,,,,0.023333333,-0.384444444,0,0,0,,0,339,339,479,1,,
,,,,,,,,,,,,,,,,,,5c0da14d656168000159da7a,2020-08-10_13h20.20.779,lexical_decision_task_MP,2020.1.3,Win32,60,z,1,1.019,,,,,,,,1.019,1,,,,,,392,NW,UN,50,ganous,ROUNCY,z,,,,,,0.023333333,-0.384444444,0,0,0,,0,340,340,451,1,,
,,,,,,,,,,,,,,,,,,5c0da14d656168000159da7a,2020-08-10_13h20.20.779,lexical_decision_task_MP,2020.1.3,Win32,60,z,1,0.517,,,,,,,,0.517,1,,,,,,298,NW,"ID",50,piergy,PIERGY,z,,,,,,0.023333333,-0.384444444,0,0,0,,0,341,341,357,1,,
,,,,,,,,,,,,,,,,,,5c0da14d656168000159da7a,2020-08-10_13h20.20.779,lexical_decision_task_MP,2020.1.3,Win32,60,z,1,0.655,,,,,,,,0.655,1,,,,,,386,NW,UN,50,gronce,ANCUST,z,,,,,,0.023333333,-0.384444444,0,0,0,,0,342,342,445,1,,
,,,,,,,,,,,,,,,,,,5c0da14d656168000159da7a,2020-08-10_13h20.20.779,lexical_decision_task_MP,2020.1.3,Win32,60,z,1,0.605,,,,,,,,0.605,1,,,,,,426,NW,"ID",33,urivel,URIVEL,z,,,,,,0.023333333,-0.384444444,0,0,0,,0,343,343,245,1,,
,,,,,,,,,,,,,,,,,,5c0da14d656168000159da7a,2020-08-10_13h20.20.779,lexical_decision_task_MP,2020.1.3,Win32,60,m,1,0.701,,,,,,,,0.701,1,,,,,,229,WORD,"ID",33,mother,MOTHER,m,,,,,,0.023333333,-0.384444444,0,0,0,,0,344,344,48,1,,
,,,,,,,,,,,,,,,,,,5c0da14d656168000159da7a,2020-08-10_13h20.20.779,lexical_decision_task_MP,2020.1.3,Win32,60,m,1,0.784,,,,,,,,0.784,1,,,,,,239,WORD,"ID",33,lumber,LUMBER,m,,,,,,0.023333333,-0.384444444,0,0,0,,0,345,345,58,1,,
,,,,,,,,,,,,,,,,,,5c0da14d656168000159da7a,2020-08-10_13h20.20.779,lexical_decision_task_MP,2020.1.3,Win32,60,z,1,0.605,,,,,,,,0.605,1,,,,,,408,NW,UN,50,elopia,HURNIA,z,,,,,,0.023333333,-0.384444444,0,0,0,,0,346,346,467,1,,
,,,,,,,,,,,,,,,,,,5c0da14d656168000159da7a,2020-08-10_13h20.20.779,lexical_decision_task_MP,2020.1.3,Win32,60,m,1,0.573,,,,,,,,0.573,1,,,,,,149,WORD,UN,50,random,INVADE,m,,,,,,0.023333333,-0.384444444,0,0,0,,0,347,347,208,1,,
,,,,,,,,,,,,,,,,,,5c0da14d656168000159da7a,2020-08-10_13h20.20.779,lexical_decision_task_MP,2020.1.3,Win32,60,z,1,0.617,,,,,,,,0.617,1,,,,,,427,NW,"ID",33,schind,SCHIND,z,,,,,,0.023333333,-0.384444444,0,0,0,,0,348,348,246,1,,
,,,,,,,,,,,,,,,,,,5c0da14d656168000159da7a,2020-08-10_13h20.20.779,lexical_decision_task_MP,2020.1.3,Win32,60,z,1,0.904,,,,,,,,0.904,1,,,,,,473,NW,"ID",33,crible,CRIBLE,z,,,,,,0.023333333,-0.384444444,0,0,0,,0,349,349,292,1,,
,,,,,,,,,,,,,,,,,,5c0da14d656168000159da7a,2020-08-10_13h20.20.779,lexical_decision_task_MP,2020.1.3,Win32,60,m,1,0.702,,,,,,,,0.702,1,,,,,,221,WORD,"ID",33,mascot,MASCOT,m,,,,,,0.023333333,-0.384444444,0,0,0,,0,350,350,40,1,,
,,,,,,,,,,,,,,,,,,5c0da14d656168000159da7a,2020-08-10_13h20.20.779,lexical_decision_task_MP,2020.1.3,Win32,60,m,1,0.769,,,,,,,,0.769,1,,,,,,73,WORD,UN,33,plaque,SOURCE,m,,,,,,0.023333333,-0.384444444,0,0,0,,0,351,351,132,1,,
,,,,,,,,,,,,,,,,,,5c0da14d656168000159da7a,2020-08-10_13h20.20.779,lexical_decision_task_MP,2020.1.3,Win32,60,z,1,0.669,,,,,,,,0.669,1,,,,,,334,NW,UN,33,desion,WATMEG,z,,,,,,0.023333333,-0.384444444,0,0,0,,0,352,352,393,1,,
,,,,,,,,,,,,,,,,,,5c0da14d656168000159da7a,2020-08-10_13h20.20.779,lexical_decision_task_MP,2020.1.3,Win32,60,z,1,1.052,,,,,,,,1.052,1,,,,,,367,NW,UN,50,hornal,SLIQUE,z,,,,,,0.023333333,-0.384444444,0,0,0,,0,353,353,426,1,,
,,,,,,,,,,,,,,,,,,5c0da14d656168000159da7a,2020-08-10_13h20.20.779,lexical_decision_task_MP,2020.1.3,Win32,60,m,1,0.619,,,,,,,,0.619,1,,,,,,174,WORD,UN,50,fabric,TURKEY,m,,,,,,0.023333333,-0.384444444,0,0,0,,0,354,354,233,1,,
,,,,,,,,,,,,,,,,,,5c0da14d656168000159da7a,2020-08-10_13h20.20.779,lexical_decision_task_MP,2020.1.3,Win32,60,m,1,0.518,,,,,,,,0.518,1,,,,,,58,WORD,"ID",50,foster,FOSTER,m,,,,,,0.023333333,-0.384444444,0,0,0,,0,355,355,117,1,,
,,,,,,,,,,,,,,,,,,5c0da14d656168000159da7a,2020-08-10_13h20.20.779,lexical_decision_task_MP,2020.1.3,Win32,60,z,1,0.616,,,,,,,,0.616,1,,,,,,290,NW,"ID",50,splino,SPLINO,z,,,,,,0.023333333,-0.384444444,0,0,0,,0,356,356,349,1,,
,,,,,,,,,,,,,,,,,,5c0da14d656168000159da7a,2020-08-10_13h20.20.779,lexical_decision_task_MP,2020.1.3,Win32,60,m,1,0.634,,,,,,,,0.634,1,,,,,,91,WORD,UN,33,hunger,EXPAND,m,,,,,,0.023333333,-0.384444444,0,0,0,,0,357,357,150,1,,
,,,,,,,,,,,,,,,,,,5c0da14d656168000159da7a,2020-08-10_13h20.20.779,lexical_decision_task_MP,2020.1.3,Win32,60,z,0,0.785,,,,,,,,0.785,0,,,,,,180,WORD,UN,50,thrive,SILENT,m,,,,,,0.023333333,-0.384444444,0,0,0,,0,358,358,239,1,,
,,,,,,,,,,,,,,,,,,5c0da14d656168000159da7a,2020-08-10_13h20.20.779,lexical_decision_task_MP,2020.1.3,Win32,60,m,1,0.62,,,,,,,,0.62,1,,,,,,38,WORD,"ID",50,powder,POWDER,m,,,,,,0.023333333,-0.384444444,0,0,0,,0,359,359,97,1,,
,,,,,,,,,,,,,,,,,,5c0da14d656168000159da7a,2020-08-10_13h20.20.779,lexical_decision_task_MP,2020.1.3,Win32,60,z,1,1.001,,,,,,,,1.001,1,,,,,,340,NW,UN,33,myrtie,FIATCH,z,,,,,,0.023333333,-0.384444444,0,0,0,,0,360,360,399,1,,
,,,,,,,,,,,,,,,,,,5c0da14d656168000159da7a,2020-08-10_13h20.20.779,lexical_decision_task_MP,2020.1.3,Win32,60,z,1,0.67,,,,,,,,0.67,1,,,,,,404,NW,UN,50,flumni,CLUIRM,z,,,,,,0.023333333,-0.384444444,0,0,0,,0,361,361,463,1,,
,,,,,,,,,,,,,,,,,,5c0da14d656168000159da7a,2020-08-10_13h20.20.779,lexical_decision_task_MP,2020.1.3,Win32,60,z,1,0.951,,,,,,,,0.951,1,,,,,,437,NW,"ID",33,snapel,SNAPEL,z,,,,,,0.023333333,-0.384444444,0,0,0,space,0,362,362,256,1,21.765,
,,,,,,,,,,,,,,,,,,5c0da14d656168000159da7a,2020-08-10_13h20.20.779,lexical_decision_task_MP,2020.1.3,Win32,60,z,1,0.684,,,,,,,,0.684,1,,,,,,327,NW,UN,33,broake,PLENAC,z,,,,,,0.023333333,-0.384444444,0,0,0,,0,363,363,386,1,,
,,,,,,,,,,,,,,,,,,5c0da14d656168000159da7a,2020-08-10_13h20.20.779,lexical_decision_task_MP,2020.1.3,Win32,60,z,1,0.539,,,,,,,,0.539,1,,,,,,387,NW,UN,50,cragin,GRONCE,z,,,,,,0.023333333,-0.384444444,0,0,0,,0,364,364,446,1,,
,,,,,,,,,,,,,,,,,,5c0da14d656168000159da7a,2020-08-10_13h20.20.779,lexical_decision_task_MP,2020.1.3,Win32,60,m,1,0.735,,,,,,,,0.735,1,,,,,,106,WORD,UN,33,slogan,RANSOM,m,,,,,,0.023333333,-0.384444444,0,0,0,,0,365,365,165,1,,
,,,,,,,,,,,,,,,,,,5c0da14d656168000159da7a,2020-08-10_13h20.20.779,lexical_decision_task_MP,2020.1.3,Win32,60,m,1,0.618,,,,,,,,0.618,1,,,,,,41,WORD,"ID",50,spring,SPRING,m,,,,,,0.023333333,-0.384444444,0,0,0,,0,366,366,100,1,,
,,,,,,,,,,,,,,,,,,5c0da14d656168000159da7a,2020-08-10_13h20.20.779,lexical_decision_task_MP,2020.1.3,Win32,60,m,1,0.635,,,,,,,,0.635,1,,,,,,25,WORD,"ID",50,domain,DOMAIN,m,,,,,,0.023333333,-0.384444444,0,0,0,,0,367,367,84,1,,
,,,,,,,,,,,,,,,,,,5c0da14d656168000159da7a,2020-08-10_13h20.20.779,lexical_decision_task_MP,2020.1.3,Win32,60,z,1,0.769,,,,,,,,0.769,1,,,,,,269,NW,"ID",50,orchet,ORCHET,z,,,,,,0.023333333,-0.384444444,0,0,0,,0,368,368,328,1,,
,,,,,,,,,,,,,,,,,,5c0da14d656168000159da7a,2020-08-10_13h20.20.779,lexical_decision_task_MP,2020.1.3,Win32,60,z,1,0.734,,,,,,,,0.734,1,,,,,,461,NW,"ID",33,justre,JUSTRE,z,,,,,,0.023333333,-0.384444444,0,0,0,,0,369,369,280,1,,
,,,,,,,,,,,,,,,,,,5c0da14d656168000159da7a,2020-08-10_13h20.20.779,lexical_decision_task_MP,2020.1.3,Win32,60,z,1,0.621,,,,,,,,0.621,1,,,,,,291,NW,"ID",50,pretch,PRETCH,z,,,,,,0.023333333,-0.384444444,0,0,0,,0,370,370,350,1,,
,,,,,,,,,,,,,,,,,,5c0da14d656168000159da7a,2020-08-10_13h20.20.779,lexical_decision_task_MP,2020.1.3,Win32,60,z,1,0.567,,,,,,,,0.567,1,,,,,,283,NW,"ID",50,veralf,VERALF,z,,,,,,0.023333333,-0.384444444,0,0,0,,0,371,371,342,1,,
,,,,,,,,,,,,,,,,,,5c0da14d656168000159da7a,2020-08-10_13h20.20.779,lexical_decision_task_MP,2020.1.3,Win32,60,m,1,0.719,,,,,,,,0.719,1,,,,,,26,WORD,"ID",50,sprint,SPRINT,m,,,,,,0.023333333,-0.384444444,0,0,0,,0,372,372,85,1,,
,,,,,,,,,,,,,,,,,,5c0da14d656168000159da7a,2020-08-10_13h20.20.779,lexical_decision_task_MP,2020.1.3,Win32,60,m,1,0.554,,,,,,,,0.554,1,,,,,,37,WORD,"ID",50,insult,INSULT,m,,,,,,0.023333333,-0.384444444,0,0,0,,0,373,373,96,1,,
,,,,,,,,,,,,,,,,,,5c0da14d656168000159da7a,2020-08-10_13h20.20.779,lexical_decision_task_MP,2020.1.3,Win32,60,m,1,0.502,,,,,,,,0.502,1,,,,,,204,WORD,"ID",33,burden,BURDEN,m,,,,,,0.023333333,-0.384444444,0,0,0,,0,374,374,23,1,,
,,,,,,,,,,,,,,,,,,5c0da14d656168000159da7a,2020-08-10_13h20.20.779,lexical_decision_task_MP,2020.1.3,Win32,60,z,0,0.69,,,,,,,,0.69,0,,,,,,90,WORD,UN,33,expand,RELISH,m,,,,,,0.023333333,-0.384444444,0,0,0,,0,375,375,149,1,,
,,,,,,,,,,,,,,,,,,5c0da14d656168000159da7a,2020-08-10_13h20.20.779,lexical_decision_task_MP,2020.1.3,Win32,60,z,1,0.752,,,,,,,,0.752,1,,,,,,259,NW,"ID",50,soudal,SOUDAL,z,,,,,,0.023333333,-0.384444444,0,0,0,,0,376,376,318,1,,
,,,,,,,,,,,,,,,,,,5c0da14d656168000159da7a,2020-08-10_13h20.20.779,lexical_decision_task_MP,2020.1.3,Win32,60,z,1,0.701,,,,,,,,0.701,1,,,,,,344,NW,UN,33,absend,SCRILY,z,,,,,,0.023333333,-0.384444444,0,0,0,,0,377,377,403,1,,
,,,,,,,,,,,,,,,,,,5c0da14d656168000159da7a,2020-08-10_13h20.20.779,lexical_decision_task_MP,2020.1.3,Win32,60,m,1,0.566,,,,,,,,0.566,1,,,,,,2,WORD,"ID",50,bridge,BRIDGE,m,,,,,,0.023333333,-0.384444444,0,0,0,,0,378,378,61,1,,
,,,,,,,,,,,,,,,,,,5c0da14d656168000159da7a,2020-08-10_13h20.20.779,lexical_decision_task_MP,2020.1.3,Win32,60,m,1,0.55,,,,,,,,0.55,1,,,,,,224,WORD,"ID",33,period,PERIOD,m,,,,,,0.023333333,-0.384444444,0,0,0,,0,379,379,43,1,,
,,,,,,,,,,,,,,,,,,5c0da14d656168000159da7a,2020-08-10_13h20.20.779,lexical_decision_task_MP,2020.1.3,Win32,60,z,1,1.036,,,,,,,,1.036,1,,,,,,357,NW,UN,33,fleack,DERAIN,z,,,,,,0.023333333,-0.384444444,0,0,0,,0,380,380,416,1,,
,,,,,,,,,,,,,,,,,,5c0da14d656168000159da7a,2020-08-10_13h20.20.779,lexical_decision_task_MP,2020.1.3,Win32,60,z,1,1.003,,,,,,,,1.003,1,,,,,,454,NW,"ID",33,scouge,SCOUGE,z,,,,,,0.023333333,-0.384444444,0,0,0,,0,381,381,273,1,,
,,,,,,,,,,,,,,,,,,5c0da14d656168000159da7a,2020-08-10_13h20.20.779,lexical_decision_task_MP,2020.1.3,Win32,60,z,1,0.518,,,,,,,,0.518,1,,,,,,472,NW,"ID",33,cigney,CIGNEY,z,,,,,,0.023333333,-0.384444444,0,0,0,,0,382,382,291,1,,
,,,,,,,,,,,,,,,,,,5c0da14d656168000159da7a,2020-08-10_13h20.20.779,lexical_decision_task_MP,2020.1.3,Win32,60,z,1,0.608,,,,,,,,0.608,1,,,,,,276,NW,"ID",50,yarmon,YARMON,z,,,,,,0.023333333,-0.384444444,0,0,0,,0,383,383,335,1,,
,,,,,,,,,,,,,,,,,,5c0da14d656168000159da7a,2020-08-10_13h20.20.779,lexical_decision_task_MP,2020.1.3,Win32,60,m,1,0.64,,,,,,,,0.64,1,,,,,,96,WORD,UN,33,client,IGNORE,m,,,,,,0.023333333,-0.384444444,0,0,0,,0,384,384,155,1,,
,,,,,,,,,,,,,,,,,,5c0da14d656168000159da7a,2020-08-10_13h20.20.779,lexical_decision_task_MP,2020.1.3,Win32,60,m,1,0.567,,,,,,,,0.567,1,,,,,,148,WORD,UN,50,invade,CUSTOM,m,,,,,,0.023333333,-0.384444444,0,0,0,,0,385,385,207,1,,
,,,,,,,,,,,,,,,,,,5c0da14d656168000159da7a,2020-08-10_13h20.20.779,lexical_decision_task_MP,2020.1.3,Win32,60,m,1,0.684,,,,,,,,0.684,1,,,,,,140,WORD,UN,50,chrome,PRINCE,m,,,,,,0.023333333,-0.384444444,0,0,0,,0,386,386,199,1,,
,,,,,,,,,,,,,,,,,,5c0da14d656168000159da7a,2020-08-10_13h20.20.779,lexical_decision_task_MP,2020.1.3,Win32,60,m,1,0.55,,,,,,,,0.55,1,,,,,,232,WORD,"ID",33,inject,INJECT,m,,,,,,0.023333333,-0.384444444,0,0,0,,0,387,387,51,1,,
,,,,,,,,,,,,,,,,,,5c0da14d656168000159da7a,2020-08-10_13h20.20.779,lexical_decision_task_MP,2020.1.3,Win32,60,z,1,0.888,,,,,,,,0.888,1,,,,,,260,NW,"ID",50,unject,UNJECT,z,,,,,,0.023333333,-0.384444444,0,0,0,,0,388,388,319,1,,
,,,,,,,,,,,,,,,,,,5c0da14d656168000159da7a,2020-08-10_13h20.20.779,lexical_decision_task_MP,2020.1.3,Win32,60,z,1,0.718,,,,,,,,0.718,1,,,,,,328,NW,UN,33,yarike,BROAKE,z,,,,,,0.023333333,-0.384444444,0,0,0,,0,389,389,387,1,,
,,,,,,,,,,,,,,,,,,5c0da14d656168000159da7a,2020-08-10_13h20.20.779,lexical_decision_task_MP,2020.1.3,Win32,60,z,1,0.65,,,,,,,,0.65,1,,,,,,264,NW,"ID",50,vackel,VACKEL,z,,,,,,0.023333333,-0.384444444,0,0,0,,0,390,390,323,1,,
,,,,,,,,,,,,,,,,,,5c0da14d656168000159da7a,2020-08-10_13h20.20.779,lexical_decision_task_MP,2020.1.3,Win32,60,z,1,0.534,,,,,,,,0.534,1,,,,,,465,NW,"ID",33,whivex,WHIVEX,z,,,,,,0.023333333,-0.384444444,0,0,0,,0,391,391,284,1,,
,,,,,,,,,,,,,,,,,,5c0da14d656168000159da7a,2020-08-10_13h20.20.779,lexical_decision_task_MP,2020.1.3,Win32,60,z,1,0.702,,,,,,,,0.702,1,,,,,,304,NW,UN,33,forgle,CLUDIE,z,,,,,,0.023333333,-0.384444444,0,0,0,,0,392,392,363,1,,
,,,,,,,,,,,,,,,,,,5c0da14d656168000159da7a,2020-08-10_13h20.20.779,lexical_decision_task_MP,2020.1.3,Win32,60,z,1,0.553,,,,,,,,0.553,1,,,,,,388,NW,UN,50,witmer,CRAGIN,z,,,,,,0.023333333,-0.384444444,0,0,0,,0,393,393,447,1,,
,,,,,,,,,,,,,,,,,,5c0da14d656168000159da7a,2020-08-10_13h20.20.779,lexical_decision_task_MP,2020.1.3,Win32,60,z,1,0.637,,,,,,,,0.637,1,,,,,,471,NW,"ID",33,nobest,NOBEST,z,,,,,,0.023333333,-0.384444444,0,0,0,,0,394,394,290,1,,
,,,,,,,,,,,,,,,,,,5c0da14d656168000159da7a,2020-08-10_13h20.20.779,lexical_decision_task_MP,2020.1.3,Win32,60,z,1,0.502,,,,,,,,0.502,1,,,,,,385,NW,UN,50,ancust,VEIGMA,z,,,,,,0.023333333,-0.384444444,0,0,0,,0,395,395,444,1,,
,,,,,,,,,,,,,,,,,,5c0da14d656168000159da7a,2020-08-10_13h20.20.779,lexical_decision_task_MP,2020.1.3,Win32,60,z,0,0.52,,,,,,,,0.52,0,,,,,,167,WORD,UN,50,answer,DESIGN,m,,,,,,0.023333333,-0.384444444,0,0,0,,0,396,396,226,1,,
,,,,,,,,,,,,,,,,,,5c0da14d656168000159da7a,2020-08-10_13h20.20.779,lexical_decision_task_MP,2020.1.3,Win32,60,z,1,0.82,,,,,,,,0.82,1,,,,,,459,NW,"ID",33,bafent,BAFENT,z,,,,,,0.023333333,-0.384444444,0,0,0,,0,397,397,278,1,,
,,,,,,,,,,,,,,,,,,5c0da14d656168000159da7a,2020-08-10_13h20.20.779,lexical_decision_task_MP,2020.1.3,Win32,60,z,1,0.669,,,,,,,,0.669,1,,,,,,456,NW,"ID",33,broget,BROGET,z,,,,,,0.023333333,-0.384444444,0,0,0,,0,398,398,275,1,,
,,,,,,,,,,,,,,,,,,5c0da14d656168000159da7a,2020-08-10_13h20.20.779,lexical_decision_task_MP,2020.1.3,Win32,60,m,1,0.619,,,,,,,,0.619,1,,,,,,114,WORD,UN,33,guitar,PLACID,m,,,,,,0.023333333,-0.384444444,0,0,0,,0,399,399,173,1,,
,,,,,,,,,,,,,,,,,,5c0da14d656168000159da7a,2020-08-10_13h20.20.779,lexical_decision_task_MP,2020.1.3,Win32,60,z,1,0.651,,,,,,,,0.651,1,,,,,,245,NW,"ID",50,anougs,ANOUGS,z,,,,,,0.023333333,-0.384444444,0,0,0,,0,400,400,304,1,,
,,,,,,,,,,,,,,,,,,5c0da14d656168000159da7a,2020-08-10_13h20.20.779,lexical_decision_task_MP,2020.1.3,Win32,60,z,1,0.818,,,,,,,,0.818,1,,,,,,407,NW,UN,50,hurnia,SUIVER,z,,,,,,0.023333333,-0.384444444,0,0,0,,0,401,401,466,1,,
,,,,,,,,,,,,,,,,,,5c0da14d656168000159da7a,2020-08-10_13h20.20.779,lexical_decision_task_MP,2020.1.3,Win32,60,z,1,0.705,,,,,,,,0.705,1,,,,,,433,NW,"ID",33,drance,DRANCE,z,,,,,,0.023333333,-0.384444444,0,0,0,,0,402,402,252,1,,
,,,,,,,,,,,,,,,,,,5c0da14d656168000159da7a,2020-08-10_13h20.20.779,lexical_decision_task_MP,2020.1.3,Win32,60,z,1,0.636,,,,,,,,0.636,1,,,,,,362,NW,UN,50,breali,TIREAU,z,,,,,,0.023333333,-0.384444444,0,0,0,,0,403,403,421,1,,
,,,,,,,,,,,,,,,,,,5c0da14d656168000159da7a,2020-08-10_13h20.20.779,lexical_decision_task_MP,2020.1.3,Win32,60,z,1,0.667,,,,,,,,0.667,1,,,,,,457,NW,"ID",33,wanigh,WANIGH,z,,,,,,0.023333333,-0.384444444,0,0,0,,0,404,404,276,1,,
,,,,,,,,,,,,,,,,,,5c0da14d656168000159da7a,2020-08-10_13h20.20.779,lexical_decision_task_MP,2020.1.3,Win32,60,m,1,0.868,,,,,,,,0.868,1,,,,,,92,WORD,UN,33,public,STRAND,m,,,,,,0.023333333,-0.384444444,0,0,0,,0,405,405,151,1,,
,,,,,,,,,,,,,,,,,,5c0da14d656168000159da7a,2020-08-10_13h20.20.779,lexical_decision_task_MP,2020.1.3,Win32,60,m,1,0.623,,,,,,,,0.623,1,,,,,,12,WORD,"ID",50,orange,ORANGE,m,,,,,,0.023333333,-0.384444444,0,0,0,,0,406,406,71,1,,
,,,,,,,,,,,,,,,,,,5c0da14d656168000159da7a,2020-08-10_13h20.20.779,lexical_decision_task_MP,2020.1.3,Win32,60,z,1,0.668,,,,,,,,0.668,1,,,,,,320,NW,UN,33,miator,JOCKAL,z,,,,,,0.023333333,-0.384444444,0,0,0,,0,407,407,379,1,,
,,,,,,,,,,,,,,,,,,5c0da14d656168000159da7a,2020-08-10_13h20.20.779,lexical_decision_task_MP,2020.1.3,Win32,60,z,1,0.719,,,,,,,,0.719,1,,,,,,451,NW,"ID",33,cainky,CAINKY,z,,,,,,0.023333333,-0.384444444,0,0,0,,0,408,408,270,1,,
,,,,,,,,,,,,,,,,,,5c0da14d656168000159da7a,2020-08-10_13h20.20.779,lexical_decision_task_MP,2020.1.3,Win32,60,z,1,0.751,,,,,,,,0.751,1,,,,,,313,NW,UN,33,sprine,PAURSE,z,,,,,,0.023333333,-0.384444444,0,0,0,,0,409,409,372,1,,
,,,,,,,,,,,,,,,,,,5c0da14d656168000159da7a,2020-08-10_13h20.20.779,lexical_decision_task_MP,2020.1.3,Win32,60,m,1,0.654,,,,,,,,0.654,1,,,,,,98,WORD,UN,33,fluent,BELONG,m,,,,,,0.023333333,-0.384444444,0,0,0,,0,410,410,157,1,,
,,,,,,,,,,,,,,,,,,5c0da14d656168000159da7a,2020-08-10_13h20.20.779,lexical_decision_task_MP,2020.1.3,Win32,60,m,1,0.668,,,,,,,,0.668,1,,,,,,183,WORD,"ID",33,mildew,MILDEW,m,,,,,,0.023333333,-0.384444444,0,0,0,,0,411,411,2,1,,
