counterbalancing_condition,instr_done_keyboard.keys,instr_done_touch.x,instr_done_touch.y,instr_done_touch.leftButton,instr_done_touch.midButton,instr_done_touch.rightButton,instr_done_touch.clicked_name,instruction_pages.thisRepN,instruction_pages.thisTrialN,instruction_pages.thisN,instruction_pages.thisIndex,instruction_pages.ran,pageN,phase,instruct_text,has_image,instruct_image,participant,date,expName,psychopyVersion,OS,frameRate,instr_done_keyboard.rt,response.keys,response.corr,response.rt,touch_resp.x,touch_resp.y,touch_resp.leftButton,touch_resp.midButton,touch_resp.rightButton,touch_resp.time,touch_resp.clicked_name,rt,corr,practice_trials.thisRepN,practice_trials.thisTrialN,practice_trials.thisN,practice_trials.thisIndex,practice_trials.ran,TrialID,StimulusType,Condition,PrimeDuration,Prime,Target,corrAns,end_of_practice_trials_pages.thisRepN,end_of_practice_trials_pages.thisTrialN,end_of_practice_trials_pages.thisN,end_of_practice_trials_pages.thisIndex,end_of_practice_trials_pages.ran,break_done_touch.x,break_done_touch.y,break_done_touch.leftButton,break_done_touch.midButton,break_done_touch.rightButton,break_done_keyboard.keys,trials.thisRepN,trials.thisTrialN,trials.thisN,trials.thisIndex,trials.ran,break_done_keyboard.rt
2,,0.07037037,-0.387037037,1,0,0,instr_done_button,0,0,0,0,1,1,instructions,"INSTRUCTIONS
At the start of each trial, look at the hash marks (######) in the center of the screen. After a moment, a string of letters will appear. Your task is to indicate if the letter string forms a word or not (i.e., if it is a nonword). For example, AUTHOR is a word while AUTHON is a nonword.

Press the space bar or touch the button below to continue.",0,,5c4602713d08e80001369876,2020-08-08_10h26.36.811,lexical_decision_task_MP,2020.1.3,Win32,60,,,,,,,,,,,,,,,,,,,,,,,,,,,,,,,,,,,,,,,,,,
,space,0.09537037,-0.387962963,0,0,0,,0,1,1,1,1,2,instructions,"If your device has a keyboard, press the 'Z' key for nonwords and the 'M' key for words.





Press the space bar or touch the button below to continue.",1,keyboard-example.gif,5c4602713d08e80001369876,2020-08-08_10h26.36.811,lexical_decision_task_MP,2020.1.3,Win32,60,15.65084,,,,,,,,,,,,,,,,,,,,,,,,,,,,,,,,,,,,,,,,,
,space,0.09537037,-0.387962963,0,0,0,,0,2,2,2,1,3,instructions,"If you are using a touchscreen only device, use the buttons on the screen. Do not use the mouse.





Press the space bar or touch the button below to continue.",1,touchscreen-example.gif,5c4602713d08e80001369876,2020-08-08_10h26.36.811,lexical_decision_task_MP,2020.1.3,Win32,60,7.002045,,,,,,,,,,,,,,,,,,,,,,,,,,,,,,,,,,,,,,,,,
,space,0.09537037,-0.387962963,0,0,0,,0,3,3,3,1,4,instructions,"It is very important that you respond as quickly and accurately as possible, as each letter string will only be on the screen for two seconds. If you do not respond within this time, the message 'Too slow!' will be displayed and the experiment will progress to the next letter string. The first 20 trials will be practice trials and you will receive feedback on your answers. 

Press the space bar or touch the button below to start the practice trials.",0,,5c4602713d08e80001369876,2020-08-08_10h26.36.811,lexical_decision_task_MP,2020.1.3,Win32,60,17.80982,,,,,,,,,,,,,,,,,,,,,,,,,,,,,,,,,,,,,,,,,
,,,,,,,,,,,,,,,,,,5c4602713d08e80001369876,2020-08-08_10h26.36.811,lexical_decision_task_MP,2020.1.3,Win32,60,,m,0,0.841435,,,,,,,,0.841435,0,0,0,0,10,1,1011,NW,"ID",50,inlade,INLADE,z,,,,,,,,,,,,,,,,,
,,,,,,,,,,,,,,,,,,5c4602713d08e80001369876,2020-08-08_10h26.36.811,lexical_decision_task_MP,2020.1.3,Win32,60,,z,0,0.618815,,,,,,,,0.618815,0,0,1,1,2,1,1003,WORD,"ID",50,almond,ALMOND,m,,,,,,,,,,,,,,,,,
,,,,,,,,,,,,,,,,,,5c4602713d08e80001369876,2020-08-08_10h26.36.811,lexical_decision_task_MP,2020.1.3,Win32,60,,m,1,0.5588,,,,,,,,0.5588,1,0,2,2,3,1,1004,WORD,"ID",50,matrix,MATRIX,m,,,,,,,,,,,,,,,,,
,,,,,,,,,,,,,,,,,,5c4602713d08e80001369876,2020-08-08_10h26.36.811,lexical_decision_task_MP,2020.1.3,Win32,60,,m,1,0.486045,,,,,,,,0.486045,1,0,3,3,7,1,1008,WORD,UN,50,hurdle,VOLUME,m,,,,,,,,,,,,,,,,,
,,,,,,,,,,,,,,,,,,5c4602713d08e80001369876,2020-08-08_10h26.36.811,lexical_decision_task_MP,2020.1.3,Win32,60,,z,0,0.66551,,,,,,,,0.66551,0,0,4,4,4,1,1005,WORD,UN,33,abound,SQUEAK,m,,,,,,,,,,,,,,,,,
,,,,,,,,,,,,,,,,,,5c4602713d08e80001369876,2020-08-08_10h26.36.811,lexical_decision_task_MP,2020.1.3,Win32,60,,z,1,0.682395,,,,,,,,0.682395,1,0,5,5,8,1,1009,NW,"ID",33,aslert,ASLERT,z,,,,,,,,,,,,,,,,,
,,,,,,,,,,,,,,,,,,5c4602713d08e80001369876,2020-08-08_10h26.36.811,lexical_decision_task_MP,2020.1.3,Win32,60,,z,1,0.62261,,,,,,,,0.62261,1,0,6,6,13,1,1014,NW,UN,33,winfer,ROUPET,z,,,,,,,,,,,,,,,,,
,,,,,,,,,,,,,,,,,,5c4602713d08e80001369876,2020-08-08_10h26.36.811,lexical_decision_task_MP,2020.1.3,Win32,60,,z,1,0.743355,,,,,,,,0.743355,1,0,7,7,9,1,1010,NW,"ID",33,fariny,FARINY,z,,,,,,,,,,,,,,,,,
,,,,,,,,,,,,,,,,,,5c4602713d08e80001369876,2020-08-08_10h26.36.811,lexical_decision_task_MP,2020.1.3,Win32,60,,m,1,0.64623,,,,,,,,0.64623,1,0,8,8,0,1,1001,WORD,"ID",33,utopia,UTOPIA,m,,,,,,,,,,,,,,,,,
,,,,,,,,,,,,,,,,,,5c4602713d08e80001369876,2020-08-08_10h26.36.811,lexical_decision_task_MP,2020.1.3,Win32,60,,z,1,0.599085,,,,,,,,0.599085,1,0,9,9,14,1,1015,NW,UN,50,miaber,THRALE,z,,,,,,,,,,,,,,,,,
,,,,,,,,,,,,,,,,,,5c4602713d08e80001369876,2020-08-08_10h26.36.811,lexical_decision_task_MP,2020.1.3,Win32,60,,m,1,0.39363,,,,,,,,0.39363,1,0,10,10,5,1,1006,WORD,UN,33,frenzy,OBTAIN,m,,,,,,,,,,,,,,,,,
,,,,,,,,,,,,,,,,,,5c4602713d08e80001369876,2020-08-08_10h26.36.811,lexical_decision_task_MP,2020.1.3,Win32,60,,z,0,0.46886,,,,,,,,0.46886,0,0,11,11,6,1,1007,WORD,UN,50,tropic,ZOMBIE,m,,,,,,,,,,,,,,,,,
,,,,,,,,,,,,,,,,,,5c4602713d08e80001369876,2020-08-08_10h26.36.811,lexical_decision_task_MP,2020.1.3,Win32,60,,z,1,0.619805,,,,,,,,0.619805,1,0,12,12,15,1,1016,NW,UN,50,mushed,WHAISE,z,,,,,,,,,,,,,,,,,
,,,,,,,,,,,,,,,,,,5c4602713d08e80001369876,2020-08-08_10h26.36.811,lexical_decision_task_MP,2020.1.3,Win32,60,,m,1,0.50049,,,,,,,,0.50049,1,0,13,13,1,1,1002,WORD,"ID",33,adjust,ADJUST,m,,,,,,,,,,,,,,,,,
,,,,,,,,,,,,,,,,,,5c4602713d08e80001369876,2020-08-08_10h26.36.811,lexical_decision_task_MP,2020.1.3,Win32,60,,m,0,0.85423,,,,,,,,0.85423,0,0,14,14,11,1,1012,NW,"ID",50,rashet,RASHET,z,,,,,,,,,,,,,,,,,
,,,,,,,,,,,,,,,,,,5c4602713d08e80001369876,2020-08-08_10h26.36.811,lexical_decision_task_MP,2020.1.3,Win32,60,,m,0,0.60175,,,,,,,,0.60175,0,0,15,15,12,1,1013,NW,UN,33,adveil,SPRINY,z,,,,,,,,,,,,,,,,,
,space,0.313888889,-0.353703704,0,0,0,,,,,,,1,end_of_practice,"You have completed the practice trials. During the experimental trials, you will not receive feedback, but it is very important that you respond as quickly and accurately as possible. 
Before you begin, please ensure that you are in a comfortable and quiet location and will not be disturbed for about 25 minutes, as we cannot use your data if you do not complete all the trials. 
There will be opportunities to take breaks at regular intervals during the experiment. When you are ready to start the experimental trials, please press space or touch the button below.",,,5c4602713d08e80001369876,2020-08-08_10h26.36.811,lexical_decision_task_MP,2020.1.3,Win32,60,22.9776,,,,,,,,,,,,,,,,,,,,,,,,,0,0,0,0,1,,,,,,,,,,,,
,,,,,,,,,,,,,,,,,,5c4602713d08e80001369876,2020-08-08_10h26.36.811,lexical_decision_task_MP,2020.1.3,Win32,60,,m,1,0.488445,,,,,,,,0.488445,1,,,,,,84,WORD,"ID",33,mortal,MORTAL,m,,,,,,0.313888889,-0.353703704,0,0,0,,0,0,0,23,1,
,,,,,,,,,,,,,,,,,,5c4602713d08e80001369876,2020-08-08_10h26.36.811,lexical_decision_task_MP,2020.1.3,Win32,60,,z,1,0.792685,,,,,,,,0.792685,1,,,,,,281,NW,UN,50,porlex,MELATY,z,,,,,,0.313888889,-0.353703704,0,0,0,,0,1,1,460,1,
,,,,,,,,,,,,,,,,,,5c4602713d08e80001369876,2020-08-08_10h26.36.811,lexical_decision_task_MP,2020.1.3,Win32,60,,z,1,0.612395,,,,,,,,0.612395,1,,,,,,324,NW,"ID",33,steikh,STEIKH,z,,,,,,0.313888889,-0.353703704,0,0,0,,0,2,2,263,1,
,,,,,,,,,,,,,,,,,,5c4602713d08e80001369876,2020-08-08_10h26.36.811,lexical_decision_task_MP,2020.1.3,Win32,60,,z,1,0.9068,,,,,,,,0.9068,1,,,,,,432,NW,UN,33,drance,LUNKER,z,,,,,,0.313888889,-0.353703704,0,0,0,,0,3,3,371,1,
,,,,,,,,,,,,,,,,,,5c4602713d08e80001369876,2020-08-08_10h26.36.811,lexical_decision_task_MP,2020.1.3,Win32,60,,z,1,0.84032,,,,,,,,0.84032,1,,,,,,266,NW,UN,50,pasink,VARMIT,z,,,,,,0.313888889,-0.353703704,0,0,0,,0,4,4,445,1,
,,,,,,,,,,,,,,,,,,5c4602713d08e80001369876,2020-08-08_10h26.36.811,lexical_decision_task_MP,2020.1.3,Win32,60,,z,1,0.7706,,,,,,,,0.7706,1,,,,,,315,NW,"ID",33,laston,LASTON,z,,,,,,0.313888889,-0.353703704,0,0,0,,0,5,5,254,1,
,,,,,,,,,,,,,,,,,,5c4602713d08e80001369876,2020-08-08_10h26.36.811,lexical_decision_task_MP,2020.1.3,Win32,60,,m,1,0.674375,,,,,,,,0.674375,1,,,,,,90,WORD,"ID",33,relish,RELISH,m,,,,,,0.313888889,-0.353703704,0,0,0,,0,6,6,29,1,
,,,,,,,,,,,,,,,,,,5c4602713d08e80001369876,2020-08-08_10h26.36.811,lexical_decision_task_MP,2020.1.3,Win32,60,,m,1,0.638755,,,,,,,,0.638755,1,,,,,,217,WORD,UN,33,shrink,LIQUOR,m,,,,,,0.313888889,-0.353703704,0,0,0,,0,7,7,156,1,
,,,,,,,,,,,,,,,,,,5c4602713d08e80001369876,2020-08-08_10h26.36.811,lexical_decision_task_MP,2020.1.3,Win32,60,,m,1,0.775755,,,,,,,,0.775755,1,,,,,,220,WORD,UN,33,mascot,VOYAGE,m,,,,,,0.313888889,-0.353703704,0,0,0,,0,8,8,159,1,
,,,,,,,,,,,,,,,,,,5c4602713d08e80001369876,2020-08-08_10h26.36.811,lexical_decision_task_MP,2020.1.3,Win32,60,,z,1,0.84912,,,,,,,,0.84912,1,,,,,,348,NW,"ID",33,dumple,DUMPLE,z,,,,,,0.313888889,-0.353703704,0,0,0,,0,9,9,287,1,
,,,,,,,,,,,,,,,,,,5c4602713d08e80001369876,2020-08-08_10h26.36.811,lexical_decision_task_MP,2020.1.3,Win32,60,,z,1,0.85238,,,,,,,,0.85238,1,,,,,,298,NW,UN,50,sturch,PIERGY,z,,,,,,0.313888889,-0.353703704,0,0,0,,0,10,10,477,1,
,,,,,,,,,,,,,,,,,,5c4602713d08e80001369876,2020-08-08_10h26.36.811,lexical_decision_task_MP,2020.1.3,Win32,60,,m,1,0.547155,,,,,,,,0.547155,1,,,,,,190,WORD,UN,33,stable,BACKUP,m,,,,,,0.313888889,-0.353703704,0,0,0,,0,11,11,129,1,
,,,,,,,,,,,,,,,,,,5c4602713d08e80001369876,2020-08-08_10h26.36.811,lexical_decision_task_MP,2020.1.3,Win32,60,,m,1,0.707775,,,,,,,,0.707775,1,,,,,,180,WORD,"ID",50,silent,SILENT,m,,,,,,0.313888889,-0.353703704,0,0,0,,0,12,12,119,1,
,,,,,,,,,,,,,,,,,,5c4602713d08e80001369876,2020-08-08_10h26.36.811,lexical_decision_task_MP,2020.1.3,Win32,60,,z,1,0.711825,,,,,,,,0.711825,1,,,,,,443,NW,UN,33,jaunce,DORSEX,z,,,,,,0.313888889,-0.353703704,0,0,0,,0,13,13,382,1,
,,,,,,,,,,,,,,,,,,5c4602713d08e80001369876,2020-08-08_10h26.36.811,lexical_decision_task_MP,2020.1.3,Win32,60,,m,1,0.828105,,,,,,,,0.828105,1,,,,,,93,WORD,"ID",33,public,PUBLIC,m,,,,,,0.313888889,-0.353703704,0,0,0,,0,14,14,32,1,
,,,,,,,,,,,,,,,,,,5c4602713d08e80001369876,2020-08-08_10h26.36.811,lexical_decision_task_MP,2020.1.3,Win32,60,,z,1,0.891845,,,,,,,,0.891845,1,,,,,,374,NW,"ID",50,sliant,SLIANT,z,,,,,,0.313888889,-0.353703704,0,0,0,,0,15,15,313,1,
,,,,,,,,,,,,,,,,,,5c4602713d08e80001369876,2020-08-08_10h26.36.811,lexical_decision_task_MP,2020.1.3,Win32,60,,m,1,0.67287,,,,,,,,0.67287,1,,,,,,186,WORD,UN,33,course,PORTAL,m,,,,,,0.313888889,-0.353703704,0,0,0,,0,16,16,125,1,
,,,,,,,,,,,,,,,,,,5c4602713d08e80001369876,2020-08-08_10h26.36.811,lexical_decision_task_MP,2020.1.3,Win32,60,,m,1,0.842635,,,,,,,,0.842635,1,,,,,,10,WORD,UN,50,cruise,ETHNIC,m,,,,,,0.313888889,-0.353703704,0,0,0,,0,17,17,189,1,
,,,,,,,,,,,,,,,,,,5c4602713d08e80001369876,2020-08-08_10h26.36.811,lexical_decision_task_MP,2020.1.3,Win32,60,,m,0,0.800685,,,,,,,,0.800685,0,,,,,,409,NW,"ID",50,elopia,ELOPIA,z,,,,,,0.313888889,-0.353703704,0,0,0,,0,18,18,348,1,
,,,,,,,,,,,,,,,,,,5c4602713d08e80001369876,2020-08-08_10h26.36.811,lexical_decision_task_MP,2020.1.3,Win32,60,,z,0,0.769555,,,,,,,,0.769555,0,,,,,,45,WORD,UN,50,single,CLERGY,m,,,,,,0.313888889,-0.353703704,0,0,0,,0,19,19,224,1,
,,,,,,,,,,,,,,,,,,5c4602713d08e80001369876,2020-08-08_10h26.36.811,lexical_decision_task_MP,2020.1.3,Win32,60,,z,1,1.043215,,,,,,,,1.043215,1,,,,,,319,NW,"ID",33,zomber,ZOMBER,z,,,,,,0.313888889,-0.353703704,0,0,0,,0,20,20,258,1,
,,,,,,,,,,,,,,,,,,5c4602713d08e80001369876,2020-08-08_10h26.36.811,lexical_decision_task_MP,2020.1.3,Win32,60,,z,1,0.915405,,,,,,,,0.915405,1,,,,,,430,NW,UN,33,chrums,CAROEY,z,,,,,,0.313888889,-0.353703704,0,0,0,,0,21,21,369,1,
,,,,,,,,,,,,,,,,,,5c4602713d08e80001369876,2020-08-08_10h26.36.811,lexical_decision_task_MP,2020.1.3,Win32,60,,z,1,0.935115,,,,,,,,0.935115,1,,,,,,451,NW,UN,33,surden,CAINKY,z,,,,,,0.313888889,-0.353703704,0,0,0,,0,22,22,390,1,
,,,,,,,,,,,,,,,,,,5c4602713d08e80001369876,2020-08-08_10h26.36.811,lexical_decision_task_MP,2020.1.3,Win32,60,,m,1,0.570525,,,,,,,,0.570525,1,,,,,,141,WORD,"ID",50,orphan,ORPHAN,m,,,,,,0.313888889,-0.353703704,0,0,0,,0,23,23,80,1,
,,,,,,,,,,,,,,,,,,5c4602713d08e80001369876,2020-08-08_10h26.36.811,lexical_decision_task_MP,2020.1.3,Win32,60,,z,1,0.73446,,,,,,,,0.73446,1,,,,,,295,NW,UN,50,beinch,GLEATH,z,,,,,,0.313888889,-0.353703704,0,0,0,,0,24,24,474,1,
,,,,,,,,,,,,,,,,,,5c4602713d08e80001369876,2020-08-08_10h26.36.811,lexical_decision_task_MP,2020.1.3,Win32,60,,m,1,0.570535,,,,,,,,0.570535,1,,,,,,12,WORD,UN,50,strive,ORANGE,m,,,,,,0.313888889,-0.353703704,0,0,0,,0,25,25,191,1,
,,,,,,,,,,,,,,,,,,5c4602713d08e80001369876,2020-08-08_10h26.36.811,lexical_decision_task_MP,2020.1.3,Win32,60,,z,1,1.02692,,,,,,,,1.02692,1,,,,,,320,NW,"ID",33,jockal,JOCKAL,z,,,,,,0.313888889,-0.353703704,0,0,0,,0,26,26,259,1,
,,,,,,,,,,,,,,,,,,5c4602713d08e80001369876,2020-08-08_10h26.36.811,lexical_decision_task_MP,2020.1.3,Win32,60,,m,1,0.613325,,,,,,,,0.613325,1,,,,,,195,WORD,UN,33,credit,RESIGN,m,,,,,,0.313888889,-0.353703704,0,0,0,,0,27,27,134,1,
,,,,,,,,,,,,,,,,,,5c4602713d08e80001369876,2020-08-08_10h26.36.811,lexical_decision_task_MP,2020.1.3,Win32,60,,z,1,0.72034,,,,,,,,0.72034,1,,,,,,400,NW,"ID",50,wearox,WEAROX,z,,,,,,0.313888889,-0.353703704,0,0,0,,0,28,28,339,1,
,,,,,,,,,,,,,,,,,,5c4602713d08e80001369876,2020-08-08_10h26.36.811,lexical_decision_task_MP,2020.1.3,Win32,60,,z,1,0.74683,,,,,,,,0.74683,1,,,,,,372,NW,"ID",50,ramily,RAMILY,z,,,,,,0.313888889,-0.353703704,0,0,0,,0,29,29,311,1,
,,,,,,,,,,,,,,,,,,5c4602713d08e80001369876,2020-08-08_10h26.36.811,lexical_decision_task_MP,2020.1.3,Win32,60,,z,1,0.922565,,,,,,,,0.922565,1,,,,,,395,NW,"ID",50,colury,COLURY,z,,,,,,0.313888889,-0.353703704,0,0,0,,0,30,30,334,1,
,,,,,,,,,,,,,,,,,,5c4602713d08e80001369876,2020-08-08_10h26.36.811,lexical_decision_task_MP,2020.1.3,Win32,60,,z,1,0.871025,,,,,,,,0.871025,1,,,,,,462,NW,UN,33,kispel,ABSULT,z,,,,,,0.313888889,-0.353703704,0,0,0,,0,31,31,401,1,
,,,,,,,,,,,,,,,,,,5c4602713d08e80001369876,2020-08-08_10h26.36.811,lexical_decision_task_MP,2020.1.3,Win32,60,,z,1,0.86233,,,,,,,,0.86233,1,,,,,,278,NW,UN,50,celond,UNIGHS,z,,,,,,0.313888889,-0.353703704,0,0,0,,0,32,32,457,1,
,,,,,,,,,,,,,,,,,,5c4602713d08e80001369876,2020-08-08_10h26.36.811,lexical_decision_task_MP,2020.1.3,Win32,60,,m,1,0.62119,,,,,,,,0.62119,1,,,,,,25,WORD,UN,50,sprint,DOMAIN,m,,,,,,0.313888889,-0.353703704,0,0,0,,0,33,33,204,1,
,,,,,,,,,,,,,,,,,,5c4602713d08e80001369876,2020-08-08_10h26.36.811,lexical_decision_task_MP,2020.1.3,Win32,60,,z,1,0.76996,,,,,,,,0.76996,1,,,,,,364,NW,"ID",50,impote,IMPOTE,z,,,,,,0.313888889,-0.353703704,0,0,0,,0,34,34,303,1,
,,,,,,,,,,,,,,,,,,5c4602713d08e80001369876,2020-08-08_10h26.36.811,lexical_decision_task_MP,2020.1.3,Win32,60,,m,1,0.646285,,,,,,,,0.646285,1,,,,,,126,WORD,"ID",50,enough,ENOUGH,m,,,,,,0.313888889,-0.353703704,0,0,0,,0,35,35,65,1,
,,,,,,,,,,,,,,,,,,5c4602713d08e80001369876,2020-08-08_10h26.36.811,lexical_decision_task_MP,2020.1.3,Win32,60,,z,1,0.97011,,,,,,,,0.97011,1,,,,,,424,NW,UN,33,frudge,PRAILE,z,,,,,,0.313888889,-0.353703704,0,0,0,,0,36,36,363,1,
,,,,,,,,,,,,,,,,,,5c4602713d08e80001369876,2020-08-08_10h26.36.811,lexical_decision_task_MP,2020.1.3,Win32,60,,m,1,0.634075,,,,,,,,0.634075,1,,,,,,216,WORD,UN,33,liquor,BEHALF,m,,,,,,0.313888889,-0.353703704,0,0,0,,0,37,37,155,1,
,,,,,,,,,,,,,,,,,,5c4602713d08e80001369876,2020-08-08_10h26.36.811,lexical_decision_task_MP,2020.1.3,Win32,60,,z,1,0.921655,,,,,,,,0.921655,1,,,,,,376,NW,"ID",50,iguare,IGUARE,z,,,,,,0.313888889,-0.353703704,0,0,0,,0,38,38,315,1,
,,,,,,,,,,,,,,,,,,5c4602713d08e80001369876,2020-08-08_10h26.36.811,lexical_decision_task_MP,2020.1.3,Win32,60,,m,1,0.809105,,,,,,,,0.809105,1,,,,,,215,WORD,UN,33,lumber,PHOBIA,m,,,,,,0.313888889,-0.353703704,0,0,0,,0,39,39,154,1,
,,,,,,,,,,,,,,,,,,5c4602713d08e80001369876,2020-08-08_10h26.36.811,lexical_decision_task_MP,2020.1.3,Win32,60,,z,1,0.841815,,,,,,,,0.841815,1,,,,,,360,NW,"ID",33,desory,DESORY,z,,,,,,0.313888889,-0.353703704,0,0,0,,0,40,40,299,1,
,,,,,,,,,,,,,,,,,,5c4602713d08e80001369876,2020-08-08_10h26.36.811,lexical_decision_task_MP,2020.1.3,Win32,60,,z,1,0.802645,,,,,,,,0.802645,1,,,,,,284,NW,UN,50,prudge,SHAPLE,z,,,,,,0.313888889,-0.353703704,0,0,0,,0,41,41,463,1,
,,,,,,,,,,,,,,,,,,5c4602713d08e80001369876,2020-08-08_10h26.36.811,lexical_decision_task_MP,2020.1.3,Win32,60,,z,1,0.705645,,,,,,,,0.705645,1,,,,,,379,NW,"ID",50,auting,AUTING,z,,,,,,0.313888889,-0.353703704,0,0,0,,0,42,42,318,1,
,,,,,,,,,,,,,,,,,,5c4602713d08e80001369876,2020-08-08_10h26.36.811,lexical_decision_task_MP,2020.1.3,Win32,60,,m,1,0.66744,,,,,,,,0.66744,1,,,,,,107,WORD,"ID",33,slogan,SLOGAN,m,,,,,,0.313888889,-0.353703704,0,0,0,,0,43,43,46,1,
,,,,,,,,,,,,,,,,,,5c4602713d08e80001369876,2020-08-08_10h26.36.811,lexical_decision_task_MP,2020.1.3,Win32,60,,z,1,1.19359,,,,,,,,1.19359,1,,,,,,425,NW,UN,33,urivel,FRUDGE,z,,,,,,0.313888889,-0.353703704,0,0,0,,0,44,44,364,1,
,,,,,,,,,,,,,,,,,,5c4602713d08e80001369876,2020-08-08_10h26.36.811,lexical_decision_task_MP,2020.1.3,Win32,60,,m,1,0.621535,,,,,,,,0.621535,1,,,,,,80,WORD,"ID",33,family,FAMILY,m,,,,,,0.313888889,-0.353703704,0,0,0,,0,45,45,19,1,
,,,,,,,,,,,,,,,,,,5c4602713d08e80001369876,2020-08-08_10h26.36.811,lexical_decision_task_MP,2020.1.3,Win32,60,,m,1,0.64942,,,,,,,,0.64942,1,,,,,,101,WORD,"ID",33,wrench,WRENCH,m,,,,,,0.313888889,-0.353703704,0,0,0,,0,46,46,40,1,
,,,,,,,,,,,,,,,,,,5c4602713d08e80001369876,2020-08-08_10h26.36.811,lexical_decision_task_MP,2020.1.3,Win32,60,,z,1,0.565685,,,,,,,,0.565685,1,,,,,,241,NW,UN,50,unwert,SMENCO,z,,,,,,0.313888889,-0.353703704,0,0,0,,0,47,47,420,1,
,,,,,,,,,,,,,,,,,,5c4602713d08e80001369876,2020-08-08_10h26.36.811,lexical_decision_task_MP,2020.1.3,Win32,60,,m,1,0.565315,,,,,,,,0.565315,1,,,,,,119,WORD,"ID",33,spider,SPIDER,m,,,,,,0.313888889,-0.353703704,0,0,0,,0,48,48,58,1,
,,,,,,,,,,,,,,,,,,5c4602713d08e80001369876,2020-08-08_10h26.36.811,lexical_decision_task_MP,2020.1.3,Win32,60,,m,1,0.57134,,,,,,,,0.57134,1,,,,,,103,WORD,"ID",33,bounce,BOUNCE,m,,,,,,0.313888889,-0.353703704,0,0,0,,0,49,49,42,1,
,,,,,,,,,,,,,,,,,,5c4602713d08e80001369876,2020-08-08_10h26.36.811,lexical_decision_task_MP,2020.1.3,Win32,60,,m,1,0.72339,,,,,,,,0.72339,1,,,,,,75,WORD,"ID",33,trophy,TROPHY,m,,,,,,0.313888889,-0.353703704,0,0,0,,0,50,50,14,1,
,,,,,,,,,,,,,,,,,,5c4602713d08e80001369876,2020-08-08_10h26.36.811,lexical_decision_task_MP,2020.1.3,Win32,60,,m,1,0.64751,,,,,,,,0.64751,1,,,,,,149,WORD,"ID",50,invade,INVADE,m,,,,,,0.313888889,-0.353703704,0,0,0,,0,51,51,88,1,
,,,,,,,,,,,,,,,,,,5c4602713d08e80001369876,2020-08-08_10h26.36.811,lexical_decision_task_MP,2020.1.3,Win32,60,,m,1,0.64324,,,,,,,,0.64324,1,,,,,,17,WORD,UN,50,humble,CHARGE,m,,,,,,0.313888889,-0.353703704,0,0,0,,0,52,52,196,1,
,,,,,,,,,,,,,,,,,,5c4602713d08e80001369876,2020-08-08_10h26.36.811,lexical_decision_task_MP,2020.1.3,Win32,60,,z,1,0.560495,,,,,,,,0.560495,1,,,,,,385,NW,"ID",50,veigma,VEIGMA,z,,,,,,0.313888889,-0.353703704,0,0,0,,0,53,53,324,1,
,,,,,,,,,,,,,,,,,,5c4602713d08e80001369876,2020-08-08_10h26.36.811,lexical_decision_task_MP,2020.1.3,Win32,60,,m,1,0.61115,,,,,,,,0.61115,1,,,,,,169,WORD,"ID",50,genius,GENIUS,m,,,,,,0.313888889,-0.353703704,0,0,0,,0,54,54,108,1,
,,,,,,,,,,,,,,,,,,5c4602713d08e80001369876,2020-08-08_10h26.36.811,lexical_decision_task_MP,2020.1.3,Win32,60,,z,1,0.687275,,,,,,,,0.687275,1,,,,,,386,NW,"ID",50,ancust,ANCUST,z,,,,,,0.313888889,-0.353703704,0,0,0,,0,55,55,325,1,
,,,,,,,,,,,,,,,,,,5c4602713d08e80001369876,2020-08-08_10h26.36.811,lexical_decision_task_MP,2020.1.3,Win32,60,,m,1,0.55946,,,,,,,,0.55946,1,,,,,,71,WORD,"ID",33,garden,GARDEN,m,,,,,,0.313888889,-0.353703704,0,0,0,,0,56,56,10,1,
,,,,,,,,,,,,,,,,,,5c4602713d08e80001369876,2020-08-08_10h26.36.811,lexical_decision_task_MP,2020.1.3,Win32,60,,m,1,0.96414,,,,,,,,0.96414,1,,,,,,59,WORD,UN,50,pencil,SPLINT,m,,,,,,0.313888889,-0.353703704,0,0,0,,0,57,57,238,1,
,,,,,,,,,,,,,,,,,,5c4602713d08e80001369876,2020-08-08_10h26.36.811,lexical_decision_task_MP,2020.1.3,Win32,60,,z,1,0.688225,,,,,,,,0.688225,1,,,,,,247,NW,UN,50,strole,BLARGE,z,,,,,,0.313888889,-0.353703704,0,0,0,,0,58,58,426,1,
,,,,,,,,,,,,,,,,,,5c4602713d08e80001369876,2020-08-08_10h26.36.811,lexical_decision_task_MP,2020.1.3,Win32,60,,z,1,0.704335,,,,,,,,0.704335,1,,,,,,352,NW,"ID",33,tringe,TRINGE,z,,,,,,0.313888889,-0.353703704,0,0,0,,0,59,59,291,1,
,,,,,,,,,,,,,,,,,,5c4602713d08e80001369876,2020-08-08_10h26.36.811,lexical_decision_task_MP,2020.1.3,Win32,60,,m,1,0.62005,,,,,,,,0.62005,1,,,,,,224,WORD,UN,33,vulgar,PERIOD,m,,,,,,0.313888889,-0.353703704,0,0,0,,0,60,60,163,1,
,,,,,,,,,,,,,,,,,,5c4602713d08e80001369876,2020-08-08_10h26.36.811,lexical_decision_task_MP,2020.1.3,Win32,60,,z,1,0.643645,,,,,,,,0.643645,1,,,,,,403,NW,"ID",50,bruats,BRUATS,z,,,,,,0.313888889,-0.353703704,0,0,0,,0,61,61,342,1,
,,,,,,,,,,,,,,,,,,5c4602713d08e80001369876,2020-08-08_10h26.36.811,lexical_decision_task_MP,2020.1.3,Win32,60,,z,1,0.632305,,,,,,,,0.632305,1,,,,,,279,NW,UN,50,curbol,CELOND,z,,,,,,0.313888889,-0.353703704,0,0,0,,0,62,62,458,1,
,,,,,,,,,,,,,,,,,,5c4602713d08e80001369876,2020-08-08_10h26.36.811,lexical_decision_task_MP,2020.1.3,Win32,60,,z,1,0.73219,,,,,,,,0.73219,1,,,,,,441,NW,UN,33,aboune,RASTOE,z,,,,,,0.313888889,-0.353703704,0,0,0,,0,63,63,380,1,
,,,,,,,,,,,,,,,,,,5c4602713d08e80001369876,2020-08-08_10h26.36.811,lexical_decision_task_MP,2020.1.3,Win32,60,,z,1,0.78436,,,,,,,,0.78436,1,,,,,,365,NW,"ID",50,guairt,GUAIRT,z,,,,,,0.313888889,-0.353703704,0,0,0,,0,64,64,304,1,
,,,,,,,,,,,,,,,,,,5c4602713d08e80001369876,2020-08-08_10h26.36.811,lexical_decision_task_MP,2020.1.3,Win32,60,,m,1,0.515845,,,,,,,,0.515845,1,,,,,,115,WORD,"ID",33,guitar,GUITAR,m,,,,,,0.313888889,-0.353703704,0,0,0,,0,65,65,54,1,
,,,,,,,,,,,,,,,,,,5c4602713d08e80001369876,2020-08-08_10h26.36.811,lexical_decision_task_MP,2020.1.3,Win32,60,,z,1,0.65533,,,,,,,,0.65533,1,,,,,,302,NW,"ID",33,miluer,MILUER,z,,,,,,0.313888889,-0.353703704,0,0,0,,0,66,66,241,1,
,,,,,,,,,,,,,,,,,,5c4602713d08e80001369876,2020-08-08_10h26.36.811,lexical_decision_task_MP,2020.1.3,Win32,60,,z,1,0.67588,,,,,,,,0.67588,1,,,,,,464,NW,UN,33,whivex,CHAITE,z,,,,,,0.313888889,-0.353703704,0,0,0,,0,67,67,403,1,
,,,,,,,,,,,,,,,,,,5c4602713d08e80001369876,2020-08-08_10h26.36.811,lexical_decision_task_MP,2020.1.3,Win32,60,,z,1,0.70027,,,,,,,,0.70027,1,,,,,,332,NW,"ID",33,vangue,VANGUE,z,,,,,,0.313888889,-0.353703704,0,0,0,,0,68,68,271,1,
,,,,,,,,,,,,,,,,,,5c4602713d08e80001369876,2020-08-08_10h26.36.811,lexical_decision_task_MP,2020.1.3,Win32,60,,m,1,0.520145,,,,,,,,0.520145,1,,,,,,23,WORD,UN,50,praise,WEALTH,m,,,,,,0.313888889,-0.353703704,0,0,0,,0,69,69,202,1,
,,,,,,,,,,,,,,,,,,5c4602713d08e80001369876,2020-08-08_10h26.36.811,lexical_decision_task_MP,2020.1.3,Win32,60,,z,1,0.75407,,,,,,,,0.75407,1,,,,,,401,NW,"ID",50,mustil,MUSTIL,z,,,,,,0.313888889,-0.353703704,0,0,0,,0,70,70,340,1,
,,,,,,,,,,,,,,,,,,5c4602713d08e80001369876,2020-08-08_10h26.36.811,lexical_decision_task_MP,2020.1.3,Win32,60,,z,1,0.709935,,,,,,,,0.709935,1,,,,,,468,NW,UN,33,padifs,WICTOR,z,,,,,,0.313888889,-0.353703704,0,0,0,,0,71,71,407,1,
,,,,,,,,,,,,,,,,,,5c4602713d08e80001369876,2020-08-08_10h26.36.811,lexical_decision_task_MP,2020.1.3,Win32,60,,z,1,0.811925,,,,,,,,0.811925,1,,,,,,390,NW,"ID",50,hatrus,HATRUS,z,,,,,,0.313888889,-0.353703704,0,0,0,,0,72,72,329,1,
,,,,,,,,,,,,,,,,,,5c4602713d08e80001369876,2020-08-08_10h26.36.811,lexical_decision_task_MP,2020.1.3,Win32,60,,z,1,0.854005,,,,,,,,0.854005,1,,,,,,291,NW,UN,50,ablint,PRETCH,z,,,,,,0.313888889,-0.353703704,0,0,0,,0,73,73,470,1,
,,,,,,,,,,,,,,,,,,5c4602713d08e80001369876,2020-08-08_10h26.36.811,lexical_decision_task_MP,2020.1.3,Win32,60,,m,1,0.620225,,,,,,,,0.620225,1,,,,,,139,WORD,"ID",50,debris,DEBRIS,m,,,,,,0.313888889,-0.353703704,0,0,0,,0,74,74,78,1,
,,,,,,,,,,,,,,,,,,5c4602713d08e80001369876,2020-08-08_10h26.36.811,lexical_decision_task_MP,2020.1.3,Win32,60,,z,1,1.083195,,,,,,,,1.083195,1,,,,,,260,NW,UN,50,stunch,UNJECT,z,,,,,,0.313888889,-0.353703704,0,0,0,,0,75,75,439,1,
,,,,,,,,,,,,,,,,,,5c4602713d08e80001369876,2020-08-08_10h26.36.811,lexical_decision_task_MP,2020.1.3,Win32,60,,z,1,0.8455,,,,,,,,0.8455,1,,,,,,384,NW,"ID",50,guesco,GUESCO,z,,,,,,0.313888889,-0.353703704,0,0,0,,0,76,76,323,1,
,,,,,,,,,,,,,,,,,,5c4602713d08e80001369876,2020-08-08_10h26.36.811,lexical_decision_task_MP,2020.1.3,Win32,60,,z,1,0.989345,,,,,,,,0.989345,1,,,,,,459,NW,UN,33,mingar,BAFENT,z,,,,,,0.313888889,-0.353703704,0,0,0,,0,77,77,398,1,
,,,,,,,,,,,,,,,,,,5c4602713d08e80001369876,2020-08-08_10h26.36.811,lexical_decision_task_MP,2020.1.3,Win32,60,,m,1,0.500925,,,,,,,,0.500925,1,,,,,,73,WORD,"ID",33,source,SOURCE,m,,,,,,0.313888889,-0.353703704,0,0,0,,0,78,78,12,1,
,,,,,,,,,,,,,,,,,,5c4602713d08e80001369876,2020-08-08_10h26.36.811,lexical_decision_task_MP,2020.1.3,Win32,60,,m,1,0.72138,,,,,,,,0.72138,1,,,,,,20,WORD,UN,50,simple,BREAST,m,,,,,,0.313888889,-0.353703704,0,0,0,,0,79,79,199,1,
,,,,,,,,,,,,,,,,,,5c4602713d08e80001369876,2020-08-08_10h26.36.811,lexical_decision_task_MP,2020.1.3,Win32,60,,m,1,0.622205,,,,,,,,0.622205,1,,,,,,35,WORD,UN,50,vanish,SOCKET,m,,,,,,0.313888889,-0.353703704,0,0,0,,0,80,80,214,1,
,,,,,,,,,,,,,,,,,,5c4602713d08e80001369876,2020-08-08_10h26.36.811,lexical_decision_task_MP,2020.1.3,Win32,60,,m,1,0.553465,,,,,,,,0.553465,1,,,,,,92,WORD,"ID",33,strand,STRAND,m,,,,,,0.313888889,-0.353703704,0,0,0,,0,81,81,31,1,
,,,,,,,,,,,,,,,,,,5c4602713d08e80001369876,2020-08-08_10h26.36.811,lexical_decision_task_MP,2020.1.3,Win32,60,,m,1,0.810855,,,,,,,,0.810855,1,,,,,,19,WORD,UN,50,breast,PATRON,m,,,,,,0.313888889,-0.353703704,0,0,0,,0,82,82,198,1,
,,,,,,,,,,,,,,,,,,5c4602713d08e80001369876,2020-08-08_10h26.36.811,lexical_decision_task_MP,2020.1.3,Win32,60,,m,1,0.7467,,,,,,,,0.7467,1,,,,,,110,WORD,"ID",33,polite,POLITE,m,,,,,,0.313888889,-0.353703704,0,0,0,,0,83,83,49,1,
,,,,,,,,,,,,,,,,,,5c4602713d08e80001369876,2020-08-08_10h26.36.811,lexical_decision_task_MP,2020.1.3,Win32,60,,m,1,0.733605,,,,,,,,0.733605,1,,,,,,57,WORD,UN,50,danger,CHANGE,m,,,,,,0.313888889,-0.353703704,0,0,0,,0,84,84,236,1,
,,,,,,,,,,,,,,,,,,5c4602713d08e80001369876,2020-08-08_10h26.36.811,lexical_decision_task_MP,2020.1.3,Win32,60,,z,1,0.65301,,,,,,,,0.65301,1,,,,,,461,NW,UN,33,absult,JUSTRE,z,,,,,,0.313888889,-0.353703704,0,0,0,,0,85,85,400,1,
,,,,,,,,,,,,,,,,,,5c4602713d08e80001369876,2020-08-08_10h26.36.811,lexical_decision_task_MP,2020.1.3,Win32,60,,z,1,0.664735,,,,,,,,0.664735,1,,,,,,392,NW,"ID",50,rouncy,ROUNCY,z,,,,,,0.313888889,-0.353703704,0,0,0,,0,86,86,331,1,
,,,,,,,,,,,,,,,,,,5c4602713d08e80001369876,2020-08-08_10h26.36.811,lexical_decision_task_MP,2020.1.3,Win32,60,,m,1,0.620705,,,,,,,,0.620705,1,,,,,,64,WORD,"ID",33,throne,THRONE,m,,,,,,0.313888889,-0.353703704,0,0,0,,0,87,87,3,1,
,,,,,,,,,,,,,,,,,,5c4602713d08e80001369876,2020-08-08_10h26.36.811,lexical_decision_task_MP,2020.1.3,Win32,60,,z,1,0.630215,,,,,,,,0.630215,1,,,,,,273,NW,UN,50,fumblo,SORTEL,z,,,,,,0.313888889,-0.353703704,0,0,0,,0,88,88,452,1,
,,,,,,,,,,,,,,,,,,5c4602713d08e80001369876,2020-08-08_10h26.36.811,lexical_decision_task_MP,2020.1.3,Win32,60,,z,1,0.600415,,,,,,,,0.600415,1,,,,,,405,NW,"ID",50,flumni,FLUMNI,z,,,,,,0.313888889,-0.353703704,0,0,0,,0,89,89,344,1,
,,,,,,,,,,,,,,,,,,5c4602713d08e80001369876,2020-08-08_10h26.36.811,lexical_decision_task_MP,2020.1.3,Win32,60,,z,1,0.72063,,,,,,,,0.72063,1,,,,,,358,NW,"ID",33,fleack,FLEACK,z,,,,,,0.313888889,-0.353703704,0,0,0,,0,90,90,297,1,
,,,,,,,,,,,,,,,,,,5c4602713d08e80001369876,2020-08-08_10h26.36.811,lexical_decision_task_MP,2020.1.3,Win32,60,,m,0,1.122425,,,,,,,,1.122425,0,,,,,,345,NW,"ID",33,absend,ABSEND,z,,,,,,0.313888889,-0.353703704,0,0,0,,0,91,91,284,1,
,,,,,,,,,,,,,,,,,,5c4602713d08e80001369876,2020-08-08_10h26.36.811,lexical_decision_task_MP,2020.1.3,Win32,60,,z,1,0.732335,,,,,,,,0.732335,1,,,,,,307,NW,"ID",33,kirafe,KIRAFE,z,,,,,,0.313888889,-0.353703704,0,0,0,,0,92,92,246,1,
,,,,,,,,,,,,,,,,,,5c4602713d08e80001369876,2020-08-08_10h26.36.811,lexical_decision_task_MP,2020.1.3,Win32,60,,m,0,0.938515,,,,,,,,0.938515,0,,,,,,408,NW,"ID",50,hurnia,HURNIA,z,,,,,,0.313888889,-0.353703704,0,0,0,,0,93,93,347,1,
,,,,,,,,,,,,,,,,,,5c4602713d08e80001369876,2020-08-08_10h26.36.811,lexical_decision_task_MP,2020.1.3,Win32,60,,m,1,0.72038,,,,,,,,0.72038,1,,,,,,205,WORD,UN,33,tailor,LOUNGE,m,,,,,,0.313888889,-0.353703704,0,0,0,,0,94,94,144,1,
,,,,,,,,,,,,,,,,,,5c4602713d08e80001369876,2020-08-08_10h26.36.811,lexical_decision_task_MP,2020.1.3,Win32,60,,z,1,0.7237,,,,,,,,0.7237,1,,,,,,436,NW,UN,33,snapel,FRUTAN,z,,,,,,0.313888889,-0.353703704,0,0,0,,0,95,95,375,1,
,,,,,,,,,,,,,,,,,,5c4602713d08e80001369876,2020-08-08_10h26.36.811,lexical_decision_task_MP,2020.1.3,Win32,60,,z,1,0.645625,,,,,,,,0.645625,1,,,,,,452,NW,UN,33,bolvis,SURDEN,z,,,,,,0.313888889,-0.353703704,0,0,0,,0,96,96,391,1,
,,,,,,,,,,,,,,,,,,5c4602713d08e80001369876,2020-08-08_10h26.36.811,lexical_decision_task_MP,2020.1.3,Win32,60,,m,1,0.82246,,,,,,,,0.82246,1,,,,,,86,WORD,"ID",33,rodent,RODENT,m,,,,,,0.313888889,-0.353703704,0,0,0,,0,97,97,25,1,
,,,,,,,,,,,,,,,,,,5c4602713d08e80001369876,2020-08-08_10h26.36.811,lexical_decision_task_MP,2020.1.3,Win32,60,,m,1,0.78103,,,,,,,,0.78103,1,,,,,,54,WORD,UN,50,stroke,RAMBLE,m,,,,,,0.313888889,-0.353703704,0,0,0,,0,98,98,233,1,
,,,,,,,,,,,,,,,,,,5c4602713d08e80001369876,2020-08-08_10h26.36.811,lexical_decision_task_MP,2020.1.3,Win32,60,,z,1,0.67214,,,,,,,,0.67214,1,,,,,,310,NW,"ID",33,daniet,DANIET,z,,,,,,0.313888889,-0.353703704,0,0,0,,0,99,99,249,1,
,,,,,,,,,,,,,,,,,,5c4602713d08e80001369876,2020-08-08_10h26.36.811,lexical_decision_task_MP,2020.1.3,Win32,60,,z,1,0.849655,,,,,,,,0.849655,1,,,,,,256,NW,UN,50,veniod,INLORS,z,,,,,,0.313888889,-0.353703704,0,0,0,,0,100,100,435,1,
,,,,,,,,,,,,,,,,,,5c4602713d08e80001369876,2020-08-08_10h26.36.811,lexical_decision_task_MP,2020.1.3,Win32,60,,m,0,1.093095,,,,,,,,1.093095,0,,,,,,248,NW,UN,50,batrol,STROLE,z,,,,,,0.313888889,-0.353703704,0,0,0,,0,101,101,427,1,
,,,,,,,,,,,,,,,,,,5c4602713d08e80001369876,2020-08-08_10h26.36.811,lexical_decision_task_MP,2020.1.3,Win32,60,,z,1,0.64056,,,,,,,,0.64056,1,,,,,,336,NW,"ID",33,ghodus,GHODUS,z,,,,,,0.313888889,-0.353703704,0,0,0,,0,102,102,275,1,
,,,,,,,,,,,,,,,,,,5c4602713d08e80001369876,2020-08-08_10h26.36.811,lexical_decision_task_MP,2020.1.3,Win32,60,,m,1,0.589345,,,,,,,,0.589345,1,,,,,,61,WORD,"ID",33,ponder,PONDER,m,,,,,,0.313888889,-0.353703704,0,0,0,,0,103,103,0,1,
,,,,,,,,,,,,,,,,,,5c4602713d08e80001369876,2020-08-08_10h26.36.811,lexical_decision_task_MP,2020.1.3,Win32,60,,z,1,0.71333,,,,,,,,0.71333,1,,,,,,472,NW,UN,33,gorbie,CIGNEY,z,,,,,,0.313888889,-0.353703704,0,0,0,,0,104,104,411,1,
,,,,,,,,,,,,,,,,,,5c4602713d08e80001369876,2020-08-08_10h26.36.811,lexical_decision_task_MP,2020.1.3,Win32,60,,z,1,0.70088,,,,,,,,0.70088,1,,,,,,246,NW,UN,50,blarge,PIATON,z,,,,,,0.313888889,-0.353703704,0,0,0,,0,105,105,425,1,
,,,,,,,,,,,,,,,,,,5c4602713d08e80001369876,2020-08-08_10h26.36.811,lexical_decision_task_MP,2020.1.3,Win32,60,,z,1,0.68941,,,,,,,,0.68941,1,,,,,,300,NW,UN,50,smenco,YARION,z,,,,,,0.313888889,-0.353703704,0,0,0,,0,106,106,479,1,
,,,,,,,,,,,,,,,,,,5c4602713d08e80001369876,2020-08-08_10h26.36.811,lexical_decision_task_MP,2020.1.3,Win32,60,,z,1,0.652825,,,,,,,,0.652825,1,,,,,,398,NW,"ID",50,blunde,BLUNDE,z,,,,,,0.313888889,-0.353703704,0,0,0,,0,107,107,337,1,
,,,,,,,,,,,,,,,,,,5c4602713d08e80001369876,2020-08-08_10h26.36.811,lexical_decision_task_MP,2020.1.3,Win32,60,,m,1,0.708415,,,,,,,,0.708415,1,,,,,,74,WORD,"ID",33,plaque,PLAQUE,m,,,,,,0.313888889,-0.353703704,0,0,0,,0,108,108,13,1,
,,,,,,,,,,,,,,,,,,5c4602713d08e80001369876,2020-08-08_10h26.36.811,lexical_decision_task_MP,2020.1.3,Win32,60,,m,1,0.62881,,,,,,,,0.62881,1,,,,,,137,WORD,"ID",50,finger,FINGER,m,,,,,,0.313888889,-0.353703704,0,0,0,,0,109,109,76,1,
,,,,,,,,,,,,,,,,,,5c4602713d08e80001369876,2020-08-08_10h26.36.811,lexical_decision_task_MP,2020.1.3,Win32,60,,m,1,0.765,,,,,,,,0.765,1,,,,,,55,WORD,UN,50,ambush,STROKE,m,,,,,,0.313888889,-0.353703704,0,0,0,,0,110,110,234,1,
,,,,,,,,,,,,,,,,,,5c4602713d08e80001369876,2020-08-08_10h26.36.811,lexical_decision_task_MP,2020.1.3,Win32,60,,m,1,0.76459,,,,,,,,0.76459,1,,,,,,113,WORD,"ID",33,chorus,CHORUS,m,,,,,,0.313888889,-0.353703704,0,0,0,,0,111,111,52,1,
,,,,,,,,,,,,,,,,,,5c4602713d08e80001369876,2020-08-08_10h26.36.811,lexical_decision_task_MP,2020.1.3,Win32,60,,z,1,1.08877,,,,,,,,1.08877,1,,,,,,417,NW,"ID",50,earoud,EAROUD,z,,,,,,0.313888889,-0.353703704,0,0,0,,0,112,112,356,1,
,,,,,,,,,,,,,,,,,,5c4602713d08e80001369876,2020-08-08_10h26.36.811,lexical_decision_task_MP,2020.1.3,Win32,60,,m,0,0.712635,,,,,,,,0.712635,0,,,,,,303,NW,"ID",33,fiream,FIREAM,z,,,,,,0.313888889,-0.353703704,0,0,0,,0,113,113,242,1,
,,,,,,,,,,,,,,,,,,5c4602713d08e80001369876,2020-08-08_10h26.36.811,lexical_decision_task_MP,2020.1.3,Win32,60,,m,1,0.58473,,,,,,,,0.58473,1,,,,,,14,WORD,UN,50,orange,ALMOST,m,,,,,,0.313888889,-0.353703704,0,0,0,,0,114,114,193,1,
,,,,,,,,,,,,,,,,,,5c4602713d08e80001369876,2020-08-08_10h26.36.811,lexical_decision_task_MP,2020.1.3,Win32,60,,m,1,0.62587,,,,,,,,0.62587,1,,,,,,127,WORD,"ID",50,castle,CASTLE,m,,,,,,0.313888889,-0.353703704,0,0,0,,0,115,115,66,1,
,,,,,,,,,,,,,,,,,,5c4602713d08e80001369876,2020-08-08_10h26.36.811,lexical_decision_task_MP,2020.1.3,Win32,60,,z,1,0.860335,,,,,,,,0.860335,1,,,,,,416,NW,"ID",50,pathel,PATHEL,z,,,,,,0.313888889,-0.353703704,0,0,0,,0,116,116,355,1,
,,,,,,,,,,,,,,,,,,5c4602713d08e80001369876,2020-08-08_10h26.36.811,lexical_decision_task_MP,2020.1.3,Win32,60,,z,1,0.714815,,,,,,,,0.714815,1,,,,,,288,NW,UN,50,starby,YACEUP,z,,,,,,0.313888889,-0.353703704,0,0,0,,0,117,117,467,1,
,,,,,,,,,,,,,,,,,,5c4602713d08e80001369876,2020-08-08_10h26.36.811,lexical_decision_task_MP,2020.1.3,Win32,60,,m,1,0.629525,,,,,,,,0.629525,1,,,,,,69,WORD,"ID",33,plenty,PLENTY,m,,,,,,0.313888889,-0.353703704,0,0,0,,0,118,118,8,1,
,,,,,,,,,,,,,,,,,,5c4602713d08e80001369876,2020-08-08_10h26.36.811,lexical_decision_task_MP,2020.1.3,Win32,60,,m,1,0.60251,,,,,,,,0.60251,1,,,,,,223,WORD,UN,33,period,KIDNEY,m,,,,,,0.313888889,-0.353703704,0,0,0,,0,119,119,162,1,
,,,,,,,,,,,,,,,,,,5c4602713d08e80001369876,2020-08-08_10h26.36.811,lexical_decision_task_MP,2020.1.3,Win32,60,,m,1,0.91999,,,,,,,,0.91999,1,,,,,,131,WORD,"ID",50,quench,QUENCH,m,,,,,,0.313888889,-0.353703704,0,0,0,space,0,120,120,70,1,16.468205
,,,,,,,,,,,,,,,,,,5c4602713d08e80001369876,2020-08-08_10h26.36.811,lexical_decision_task_MP,2020.1.3,Win32,60,,m,1,0.690815,,,,,,,,0.690815,1,,,,,,13,WORD,UN,50,almost,STRIVE,m,,,,,,0.313888889,-0.353703704,0,0,0,,0,121,121,192,1,
,,,,,,,,,,,,,,,,,,5c4602713d08e80001369876,2020-08-08_10h26.36.811,lexical_decision_task_MP,2020.1.3,Win32,60,,m,0,0.65098,,,,,,,,0.65098,0,,,,,,313,NW,"ID",33,paurse,PAURSE,z,,,,,,0.313888889,-0.353703704,0,0,0,,0,122,122,252,1,
,,,,,,,,,,,,,,,,,,5c4602713d08e80001369876,2020-08-08_10h26.36.811,lexical_decision_task_MP,2020.1.3,Win32,60,,m,1,0.851075,,,,,,,,0.851075,1,,,,,,89,WORD,"ID",33,permit,PERMIT,m,,,,,,0.313888889,-0.353703704,0,0,0,,0,123,123,28,1,
,,,,,,,,,,,,,,,,,,5c4602713d08e80001369876,2020-08-08_10h26.36.811,lexical_decision_task_MP,2020.1.3,Win32,60,,m,1,0.586915,,,,,,,,0.586915,1,,,,,,182,WORD,UN,33,absent,WINTER,m,,,,,,0.313888889,-0.353703704,0,0,0,,0,124,124,121,1,
,,,,,,,,,,,,,,,,,,5c4602713d08e80001369876,2020-08-08_10h26.36.811,lexical_decision_task_MP,2020.1.3,Win32,60,,m,1,0.67324,,,,,,,,0.67324,1,,,,,,136,WORD,"ID",50,bleach,BLEACH,m,,,,,,0.313888889,-0.353703704,0,0,0,,0,125,125,75,1,
,,,,,,,,,,,,,,,,,,5c4602713d08e80001369876,2020-08-08_10h26.36.811,lexical_decision_task_MP,2020.1.3,Win32,60,,z,0,0.473155,,,,,,,,0.473155,0,,,,,,8,WORD,UN,50,hustle,ABRUPT,m,,,,,,0.313888889,-0.353703704,0,0,0,,0,126,126,187,1,
,,,,,,,,,,,,,,,,,,5c4602713d08e80001369876,2020-08-08_10h26.36.811,lexical_decision_task_MP,2020.1.3,Win32,60,,m,1,0.700505,,,,,,,,0.700505,1,,,,,,140,WORD,"ID",50,prince,PRINCE,m,,,,,,0.313888889,-0.353703704,0,0,0,,0,127,127,79,1,
,,,,,,,,,,,,,,,,,,5c4602713d08e80001369876,2020-08-08_10h26.36.811,lexical_decision_task_MP,2020.1.3,Win32,60,,m,1,0.544805,,,,,,,,0.544805,1,,,,,,168,WORD,"ID",50,answer,ANSWER,m,,,,,,0.313888889,-0.353703704,0,0,0,,0,128,128,107,1,
,,,,,,,,,,,,,,,,,,5c4602713d08e80001369876,2020-08-08_10h26.36.811,lexical_decision_task_MP,2020.1.3,Win32,60,,z,1,0.62146,,,,,,,,0.62146,1,,,,,,444,NW,UN,33,minkel,JAUNCE,z,,,,,,0.313888889,-0.353703704,0,0,0,,0,129,129,383,1,
,,,,,,,,,,,,,,,,,,5c4602713d08e80001369876,2020-08-08_10h26.36.811,lexical_decision_task_MP,2020.1.3,Win32,60,,z,1,0.980315,,,,,,,,0.980315,1,,,,,,411,NW,"ID",50,orchin,ORCHIN,z,,,,,,0.313888889,-0.353703704,0,0,0,,0,130,130,350,1,
,,,,,,,,,,,,,,,,,,5c4602713d08e80001369876,2020-08-08_10h26.36.811,lexical_decision_task_MP,2020.1.3,Win32,60,,z,1,0.732805,,,,,,,,0.732805,1,,,,,,366,NW,"ID",50,toshel,TOSHEL,z,,,,,,0.313888889,-0.353703704,0,0,0,,0,131,131,305,1,
,,,,,,,,,,,,,,,,,,5c4602713d08e80001369876,2020-08-08_10h26.36.811,lexical_decision_task_MP,2020.1.3,Win32,60,,m,1,0.62861,,,,,,,,0.62861,1,,,,,,106,WORD,"ID",33,ransom,RANSOM,m,,,,,,0.313888889,-0.353703704,0,0,0,,0,132,132,45,1,
,,,,,,,,,,,,,,,,,,5c4602713d08e80001369876,2020-08-08_10h26.36.811,lexical_decision_task_MP,2020.1.3,Win32,60,,m,1,0.753445,,,,,,,,0.753445,1,,,,,,166,WORD,"ID",50,starch,STARCH,m,,,,,,0.313888889,-0.353703704,0,0,0,,0,133,133,105,1,
,,,,,,,,,,,,,,,,,,5c4602713d08e80001369876,2020-08-08_10h26.36.811,lexical_decision_task_MP,2020.1.3,Win32,60,,z,1,0.774235,,,,,,,,0.774235,1,,,,,,469,NW,UN,33,crudio,PADIFS,z,,,,,,0.313888889,-0.353703704,0,0,0,,0,134,134,408,1,
,,,,,,,,,,,,,,,,,,5c4602713d08e80001369876,2020-08-08_10h26.36.811,lexical_decision_task_MP,2020.1.3,Win32,60,,z,1,0.70515,,,,,,,,0.70515,1,,,,,,244,NW,UN,50,anougs,EATRIC,z,,,,,,0.313888889,-0.353703704,0,0,0,,0,135,135,423,1,
,,,,,,,,,,,,,,,,,,5c4602713d08e80001369876,2020-08-08_10h26.36.811,lexical_decision_task_MP,2020.1.3,Win32,60,,m,1,0.53396,,,,,,,,0.53396,1,,,,,,2,WORD,UN,50,knight,BRIDGE,m,,,,,,0.313888889,-0.353703704,0,0,0,,0,136,136,181,1,
,,,,,,,,,,,,,,,,,,5c4602713d08e80001369876,2020-08-08_10h26.36.811,lexical_decision_task_MP,2020.1.3,Win32,60,,z,1,0.686925,,,,,,,,0.686925,1,,,,,,316,NW,"ID",33,scregm,SCREGM,z,,,,,,0.313888889,-0.353703704,0,0,0,,0,137,137,255,1,
,,,,,,,,,,,,,,,,,,5c4602713d08e80001369876,2020-08-08_10h26.36.811,lexical_decision_task_MP,2020.1.3,Win32,60,,m,1,0.54012,,,,,,,,0.54012,1,,,,,,187,WORD,UN,33,social,COURSE,m,,,,,,0.313888889,-0.353703704,0,0,0,,0,138,138,126,1,
,,,,,,,,,,,,,,,,,,5c4602713d08e80001369876,2020-08-08_10h26.36.811,lexical_decision_task_MP,2020.1.3,Win32,60,,z,1,0.72913,,,,,,,,0.72913,1,,,,,,314,NW,"ID",33,sprine,SPRINE,z,,,,,,0.313888889,-0.353703704,0,0,0,,0,139,139,253,1,
,,,,,,,,,,,,,,,,,,5c4602713d08e80001369876,2020-08-08_10h26.36.811,lexical_decision_task_MP,2020.1.3,Win32,60,,z,0,0.60916,,,,,,,,0.60916,0,,,,,,183,WORD,UN,33,sleazy,MILDEW,m,,,,,,0.313888889,-0.353703704,0,0,0,,0,140,140,122,1,
,,,,,,,,,,,,,,,,,,5c4602713d08e80001369876,2020-08-08_10h26.36.811,lexical_decision_task_MP,2020.1.3,Win32,60,,m,1,0.50175,,,,,,,,0.50175,1,,,,,,157,WORD,"ID",50,dragon,DRAGON,m,,,,,,0.313888889,-0.353703704,0,0,0,,0,141,141,96,1,
,,,,,,,,,,,,,,,,,,5c4602713d08e80001369876,2020-08-08_10h26.36.811,lexical_decision_task_MP,2020.1.3,Win32,60,,m,1,0.625275,,,,,,,,0.625275,1,,,,,,225,WORD,UN,33,casino,VULGAR,m,,,,,,0.313888889,-0.353703704,0,0,0,,0,142,142,164,1,
,,,,,,,,,,,,,,,,,,5c4602713d08e80001369876,2020-08-08_10h26.36.811,lexical_decision_task_MP,2020.1.3,Win32,60,,z,0,0.941555,,,,,,,,0.941555,0,,,,,,116,WORD,"ID",33,tumble,TUMBLE,m,,,,,,0.313888889,-0.353703704,0,0,0,,0,143,143,55,1,
,,,,,,,,,,,,,,,,,,5c4602713d08e80001369876,2020-08-08_10h26.36.811,lexical_decision_task_MP,2020.1.3,Win32,60,,m,1,0.700535,,,,,,,,0.700535,1,,,,,,77,WORD,"ID",33,racket,RACKET,m,,,,,,0.313888889,-0.353703704,0,0,0,,0,144,144,16,1,
,,,,,,,,,,,,,,,,,,5c4602713d08e80001369876,2020-08-08_10h26.36.811,lexical_decision_task_MP,2020.1.3,Win32,60,,m,1,0.953855,,,,,,,,0.953855,1,,,,,,32,WORD,UN,50,scream,BUCKLE,m,,,,,,0.313888889,-0.353703704,0,0,0,,0,145,145,211,1,
,,,,,,,,,,,,,,,,,,5c4602713d08e80001369876,2020-08-08_10h26.36.811,lexical_decision_task_MP,2020.1.3,Win32,60,,m,1,0.54493,,,,,,,,0.54493,1,,,,,,152,WORD,"ID",50,rocket,ROCKET,m,,,,,,0.313888889,-0.353703704,0,0,0,,0,146,146,91,1,
,,,,,,,,,,,,,,,,,,5c4602713d08e80001369876,2020-08-08_10h26.36.811,lexical_decision_task_MP,2020.1.3,Win32,60,,m,1,0.660025,,,,,,,,0.660025,1,,,,,,37,WORD,UN,50,powder,INSULT,m,,,,,,0.313888889,-0.353703704,0,0,0,,0,147,147,216,1,
,,,,,,,,,,,,,,,,,,5c4602713d08e80001369876,2020-08-08_10h26.36.811,lexical_decision_task_MP,2020.1.3,Win32,60,,m,1,0.664355,,,,,,,,0.664355,1,,,,,,237,WORD,UN,33,glance,POSTER,m,,,,,,0.313888889,-0.353703704,0,0,0,,0,148,148,176,1,
,,,,,,,,,,,,,,,,,,5c4602713d08e80001369876,2020-08-08_10h26.36.811,lexical_decision_task_MP,2020.1.3,Win32,60,,m,1,0.59116,,,,,,,,0.59116,1,,,,,,142,WORD,"ID",50,spruce,SPRUCE,m,,,,,,0.313888889,-0.353703704,0,0,0,,0,149,149,81,1,
,,,,,,,,,,,,,,,,,,5c4602713d08e80001369876,2020-08-08_10h26.36.811,lexical_decision_task_MP,2020.1.3,Win32,60,,m,1,0.760855,,,,,,,,0.760855,1,,,,,,1,WORD,UN,50,ethnic,FRIGHT,m,,,,,,0.313888889,-0.353703704,0,0,0,,0,150,150,180,1,
,,,,,,,,,,,,,,,,,,5c4602713d08e80001369876,2020-08-08_10h26.36.811,lexical_decision_task_MP,2020.1.3,Win32,60,,z,1,0.67287,,,,,,,,0.67287,1,,,,,,456,NW,UN,33,wanigh,BROGET,z,,,,,,0.313888889,-0.353703704,0,0,0,,0,151,151,395,1,
,,,,,,,,,,,,,,,,,,5c4602713d08e80001369876,2020-08-08_10h26.36.811,lexical_decision_task_MP,2020.1.3,Win32,60,,m,0,0.952705,,,,,,,,0.952705,0,,,,,,287,NW,UN,50,yaceup,NYMBEL,z,,,,,,0.313888889,-0.353703704,0,0,0,,0,152,152,466,1,
,,,,,,,,,,,,,,,,,,5c4602713d08e80001369876,2020-08-08_10h26.36.811,lexical_decision_task_MP,2020.1.3,Win32,60,,m,1,0.768895,,,,,,,,0.768895,1,,,,,,199,WORD,UN,33,plague,INVOKE,m,,,,,,0.313888889,-0.353703704,0,0,0,,0,153,153,138,1,
,,,,,,,,,,,,,,,,,,5c4602713d08e80001369876,2020-08-08_10h26.36.811,lexical_decision_task_MP,2020.1.3,Win32,60,,m,1,0.688665,,,,,,,,0.688665,1,,,,,,82,WORD,"ID",33,stigma,STIGMA,m,,,,,,0.313888889,-0.353703704,0,0,0,,0,154,154,21,1,
,,,,,,,,,,,,,,,,,,5c4602713d08e80001369876,2020-08-08_10h26.36.811,lexical_decision_task_MP,2020.1.3,Win32,60,,z,1,0.680245,,,,,,,,0.680245,1,,,,,,252,NW,UN,50,resait,STAPOD,z,,,,,,0.313888889,-0.353703704,0,0,0,,0,155,155,431,1,
,,,,,,,,,,,,,,,,,,5c4602713d08e80001369876,2020-08-08_10h26.36.811,lexical_decision_task_MP,2020.1.3,Win32,60,,z,1,0.66067,,,,,,,,0.66067,1,,,,,,331,NW,"ID",33,gilfew,GILFEW,z,,,,,,0.313888889,-0.353703704,0,0,0,,0,156,156,270,1,
,,,,,,,,,,,,,,,,,,5c4602713d08e80001369876,2020-08-08_10h26.36.811,lexical_decision_task_MP,2020.1.3,Win32,60,,m,1,0.528675,,,,,,,,0.528675,1,,,,,,191,WORD,UN,33,beacon,STABLE,m,,,,,,0.313888889,-0.353703704,0,0,0,,0,157,157,130,1,
,,,,,,,,,,,,,,,,,,5c4602713d08e80001369876,2020-08-08_10h26.36.811,lexical_decision_task_MP,2020.1.3,Win32,60,,z,1,0.600305,,,,,,,,0.600305,1,,,,,,415,NW,"ID",50,higsta,HIGSTA,z,,,,,,0.313888889,-0.353703704,0,0,0,,0,158,158,354,1,
,,,,,,,,,,,,,,,,,,5c4602713d08e80001369876,2020-08-08_10h26.36.811,lexical_decision_task_MP,2020.1.3,Win32,60,,z,1,0.54366,,,,,,,,0.54366,1,,,,,,419,NW,"ID",50,slount,SLOUNT,z,,,,,,0.313888889,-0.353703704,0,0,0,,0,159,159,358,1,
,,,,,,,,,,,,,,,,,,5c4602713d08e80001369876,2020-08-08_10h26.36.811,lexical_decision_task_MP,2020.1.3,Win32,60,,z,1,0.656355,,,,,,,,0.656355,1,,,,,,258,NW,UN,50,soudal,POLUTH,z,,,,,,0.313888889,-0.353703704,0,0,0,,0,160,160,437,1,
,,,,,,,,,,,,,,,,,,5c4602713d08e80001369876,2020-08-08_10h26.36.811,lexical_decision_task_MP,2020.1.3,Win32,60,,m,1,0.604255,,,,,,,,0.604255,1,,,,,,161,WORD,"ID",50,pastor,PASTOR,m,,,,,,0.313888889,-0.353703704,0,0,0,,0,161,161,100,1,
,,,,,,,,,,,,,,,,,,5c4602713d08e80001369876,2020-08-08_10h26.36.811,lexical_decision_task_MP,2020.1.3,Win32,60,,z,1,0.6237,,,,,,,,0.6237,1,,,,,,280,NW,UN,50,melaty,CURBOL,z,,,,,,0.313888889,-0.353703704,0,0,0,,0,162,162,459,1,
,,,,,,,,,,,,,,,,,,5c4602713d08e80001369876,2020-08-08_10h26.36.811,lexical_decision_task_MP,2020.1.3,Win32,60,,m,1,0.611955,,,,,,,,0.611955,1,,,,,,65,WORD,"ID",33,symbol,SYMBOL,m,,,,,,0.313888889,-0.353703704,0,0,0,,0,163,163,4,1,
,,,,,,,,,,,,,,,,,,5c4602713d08e80001369876,2020-08-08_10h26.36.811,lexical_decision_task_MP,2020.1.3,Win32,60,,m,1,0.56815,,,,,,,,0.56815,1,,,,,,60,WORD,UN,50,fright,PENCIL,m,,,,,,0.313888889,-0.353703704,0,0,0,,0,164,164,239,1,
,,,,,,,,,,,,,,,,,,5c4602713d08e80001369876,2020-08-08_10h26.36.811,lexical_decision_task_MP,2020.1.3,Win32,60,,z,1,0.951765,,,,,,,,0.951765,1,,,,,,261,NW,UN,50,quilew,STUNCH,z,,,,,,0.313888889,-0.353703704,0,0,0,,0,165,165,440,1,
,,,,,,,,,,,,,,,,,,5c4602713d08e80001369876,2020-08-08_10h26.36.811,lexical_decision_task_MP,2020.1.3,Win32,60,,m,1,0.56048,,,,,,,,0.56048,1,,,,,,72,WORD,"ID",33,bright,BRIGHT,m,,,,,,0.313888889,-0.353703704,0,0,0,,0,166,166,11,1,
,,,,,,,,,,,,,,,,,,5c4602713d08e80001369876,2020-08-08_10h26.36.811,lexical_decision_task_MP,2020.1.3,Win32,60,,z,1,0.627715,,,,,,,,0.627715,1,,,,,,422,NW,UN,33,streld,ALCOUD,z,,,,,,0.313888889,-0.353703704,0,0,0,,0,167,167,361,1,
,,,,,,,,,,,,,,,,,,5c4602713d08e80001369876,2020-08-08_10h26.36.811,lexical_decision_task_MP,2020.1.3,Win32,60,,z,1,0.583735,,,,,,,,0.583735,1,,,,,,308,NW,"ID",33,psetch,PSETCH,z,,,,,,0.313888889,-0.353703704,0,0,0,,0,168,168,247,1,
,,,,,,,,,,,,,,,,,,5c4602713d08e80001369876,2020-08-08_10h26.36.811,lexical_decision_task_MP,2020.1.3,Win32,60,,z,1,0.5786,,,,,,,,0.5786,1,,,,,,434,NW,UN,33,impurb,PITROM,z,,,,,,0.313888889,-0.353703704,0,0,0,,0,169,169,373,1,
,,,,,,,,,,,,,,,,,,5c4602713d08e80001369876,2020-08-08_10h26.36.811,lexical_decision_task_MP,2020.1.3,Win32,60,,m,1,0.791475,,,,,,,,0.791475,1,,,,,,204,WORD,UN,33,lounge,BURDEN,m,,,,,,0.313888889,-0.353703704,0,0,0,,0,170,170,143,1,
,,,,,,,,,,,,,,,,,,5c4602713d08e80001369876,2020-08-08_10h26.36.811,lexical_decision_task_MP,2020.1.3,Win32,60,,m,1,0.57627,,,,,,,,0.57627,1,,,,,,178,WORD,"ID",50,inform,INFORM,m,,,,,,0.313888889,-0.353703704,0,0,0,,0,171,171,117,1,
,,,,,,,,,,,,,,,,,,5c4602713d08e80001369876,2020-08-08_10h26.36.811,lexical_decision_task_MP,2020.1.3,Win32,60,,m,1,0.650795,,,,,,,,0.650795,1,,,,,,124,WORD,"ID",50,blouse,BLOUSE,m,,,,,,0.313888889,-0.353703704,0,0,0,,0,172,172,63,1,
,,,,,,,,,,,,,,,,,,5c4602713d08e80001369876,2020-08-08_10h26.36.811,lexical_decision_task_MP,2020.1.3,Win32,60,,m,1,0.73114,,,,,,,,0.73114,1,,,,,,203,WORD,UN,33,burden,PHRASE,m,,,,,,0.313888889,-0.353703704,0,0,0,,0,173,173,142,1,
,,,,,,,,,,,,,,,,,,5c4602713d08e80001369876,2020-08-08_10h26.36.811,lexical_decision_task_MP,2020.1.3,Win32,60,,m,1,0.68017,,,,,,,,0.68017,1,,,,,,130,WORD,"ID",50,stupid,STUPID,m,,,,,,0.313888889,-0.353703704,0,0,0,,0,174,174,69,1,
,,,,,,,,,,,,,,,,,,5c4602713d08e80001369876,2020-08-08_10h26.36.811,lexical_decision_task_MP,2020.1.3,Win32,60,,z,1,0.80752,,,,,,,,0.80752,1,,,,,,342,NW,"ID",33,randow,RANDOW,z,,,,,,0.313888889,-0.353703704,0,0,0,,0,175,175,281,1,
,,,,,,,,,,,,,,,,,,5c4602713d08e80001369876,2020-08-08_10h26.36.811,lexical_decision_task_MP,2020.1.3,Win32,60,,m,1,0.659395,,,,,,,,0.659395,1,,,,,,49,WORD,UN,50,snatch,SURVEY,m,,,,,,0.313888889,-0.353703704,0,0,0,,0,176,176,228,1,
,,,,,,,,,,,,,,,,,,5c4602713d08e80001369876,2020-08-08_10h26.36.811,lexical_decision_task_MP,2020.1.3,Win32,60,,m,1,0.673215,,,,,,,,0.673215,1,,,,,,155,WORD,"ID",50,lizard,LIZARD,m,,,,,,0.313888889,-0.353703704,0,0,0,,0,177,177,94,1,
,,,,,,,,,,,,,,,,,,5c4602713d08e80001369876,2020-08-08_10h26.36.811,lexical_decision_task_MP,2020.1.3,Win32,60,,z,1,0.82137,,,,,,,,0.82137,1,,,,,,431,NW,UN,33,lunker,CHRUMS,z,,,,,,0.313888889,-0.353703704,0,0,0,,0,178,178,370,1,
,,,,,,,,,,,,,,,,,,5c4602713d08e80001369876,2020-08-08_10h26.36.811,lexical_decision_task_MP,2020.1.3,Win32,60,,z,1,0.78089,,,,,,,,0.78089,1,,,,,,402,NW,"ID",50,syntic,SYNTIC,z,,,,,,0.313888889,-0.353703704,0,0,0,,0,179,179,341,1,
,,,,,,,,,,,,,,,,,,5c4602713d08e80001369876,2020-08-08_10h26.36.811,lexical_decision_task_MP,2020.1.3,Win32,60,,z,1,0.786875,,,,,,,,0.786875,1,,,,,,322,NW,"ID",33,slanch,SLANCH,z,,,,,,0.313888889,-0.353703704,0,0,0,,0,180,180,261,1,
,,,,,,,,,,,,,,,,,,5c4602713d08e80001369876,2020-08-08_10h26.36.811,lexical_decision_task_MP,2020.1.3,Win32,60,,z,1,0.685745,,,,,,,,0.685745,1,,,,,,439,NW,UN,33,saride,LIMPOR,z,,,,,,0.313888889,-0.353703704,0,0,0,,0,181,181,378,1,
,,,,,,,,,,,,,,,,,,5c4602713d08e80001369876,2020-08-08_10h26.36.811,lexical_decision_task_MP,2020.1.3,Win32,60,,z,1,0.74256,,,,,,,,0.74256,1,,,,,,304,NW,"ID",33,cludie,CLUDIE,z,,,,,,0.313888889,-0.353703704,0,0,0,,0,182,182,243,1,
,,,,,,,,,,,,,,,,,,5c4602713d08e80001369876,2020-08-08_10h26.36.811,lexical_decision_task_MP,2020.1.3,Win32,60,,z,1,0.60664,,,,,,,,0.60664,1,,,,,,286,NW,UN,50,nymbel,RELDON,z,,,,,,0.313888889,-0.353703704,0,0,0,,0,183,183,465,1,
,,,,,,,,,,,,,,,,,,5c4602713d08e80001369876,2020-08-08_10h26.36.811,lexical_decision_task_MP,2020.1.3,Win32,60,,z,1,0.81038,,,,,,,,0.81038,1,,,,,,292,NW,UN,50,swance,ABLINT,z,,,,,,0.313888889,-0.353703704,0,0,0,,0,184,184,471,1,
,,,,,,,,,,,,,,,,,,5c4602713d08e80001369876,2020-08-08_10h26.36.811,lexical_decision_task_MP,2020.1.3,Win32,60,,m,1,0.558075,,,,,,,,0.558075,1,,,,,,3,WORD,UN,50,trench,KNIGHT,m,,,,,,0.313888889,-0.353703704,0,0,0,,0,185,185,182,1,
,,,,,,,,,,,,,,,,,,5c4602713d08e80001369876,2020-08-08_10h26.36.811,lexical_decision_task_MP,2020.1.3,Win32,60,,z,1,0.65959,,,,,,,,0.65959,1,,,,,,383,NW,"ID",50,aungre,AUNGRE,z,,,,,,0.313888889,-0.353703704,0,0,0,,0,186,186,322,1,
,,,,,,,,,,,,,,,,,,5c4602713d08e80001369876,2020-08-08_10h26.36.811,lexical_decision_task_MP,2020.1.3,Win32,60,,m,1,0.614395,,,,,,,,0.614395,1,,,,,,192,WORD,UN,33,object,PLAGUE,m,,,,,,0.313888889,-0.353703704,0,0,0,,0,187,187,131,1,
,,,,,,,,,,,,,,,,,,5c4602713d08e80001369876,2020-08-08_10h26.36.811,lexical_decision_task_MP,2020.1.3,Win32,60,,z,1,0.78177,,,,,,,,0.78177,1,,,,,,321,NW,"ID",33,miator,MIATOR,z,,,,,,0.313888889,-0.353703704,0,0,0,,0,188,188,260,1,
,,,,,,,,,,,,,,,,,,5c4602713d08e80001369876,2020-08-08_10h26.36.811,lexical_decision_task_MP,2020.1.3,Win32,60,,m,1,0.71234,,,,,,,,0.71234,1,,,,,,212,WORD,UN,33,squeal,VERIFY,m,,,,,,0.313888889,-0.353703704,0,0,0,,0,189,189,151,1,
,,,,,,,,,,,,,,,,,,5c4602713d08e80001369876,2020-08-08_10h26.36.811,lexical_decision_task_MP,2020.1.3,Win32,60,,m,1,0.54614,,,,,,,,0.54614,1,,,,,,91,WORD,"ID",33,expand,EXPAND,m,,,,,,0.313888889,-0.353703704,0,0,0,,0,190,190,30,1,
,,,,,,,,,,,,,,,,,,5c4602713d08e80001369876,2020-08-08_10h26.36.811,lexical_decision_task_MP,2020.1.3,Win32,60,,z,1,0.62553,,,,,,,,0.62553,1,,,,,,350,NW,"ID",33,nagurs,NAGURS,z,,,,,,0.313888889,-0.353703704,0,0,0,,0,191,191,289,1,
,,,,,,,,,,,,,,,,,,5c4602713d08e80001369876,2020-08-08_10h26.36.811,lexical_decision_task_MP,2020.1.3,Win32,60,,z,1,0.642175,,,,,,,,0.642175,1,,,,,,391,NW,"ID",50,theldy,THELDY,z,,,,,,0.313888889,-0.353703704,0,0,0,,0,192,192,330,1,
,,,,,,,,,,,,,,,,,,5c4602713d08e80001369876,2020-08-08_10h26.36.811,lexical_decision_task_MP,2020.1.3,Win32,60,,z,1,1.010085,,,,,,,,1.010085,1,,,,,,442,NW,UN,33,dorsex,ABOUNE,z,,,,,,0.313888889,-0.353703704,0,0,0,,0,193,193,381,1,
,,,,,,,,,,,,,,,,,,5c4602713d08e80001369876,2020-08-08_10h26.36.811,lexical_decision_task_MP,2020.1.3,Win32,60,,m,1,0.55001,,,,,,,,0.55001,1,,,,,,31,WORD,UN,50,buckle,WEAPON,m,,,,,,0.313888889,-0.353703704,0,0,0,,0,194,194,210,1,
,,,,,,,,,,,,,,,,,,5c4602713d08e80001369876,2020-08-08_10h26.36.811,lexical_decision_task_MP,2020.1.3,Win32,60,,m,1,0.680485,,,,,,,,0.680485,1,,,,,,197,WORD,UN,33,wicked,STREAM,m,,,,,,0.313888889,-0.353703704,0,0,0,,0,195,195,136,1,
,,,,,,,,,,,,,,,,,,5c4602713d08e80001369876,2020-08-08_10h26.36.811,lexical_decision_task_MP,2020.1.3,Win32,60,,m,1,0.592455,,,,,,,,0.592455,1,,,,,,229,WORD,UN,33,fringe,MOTHER,m,,,,,,0.313888889,-0.353703704,0,0,0,,0,196,196,168,1,
,,,,,,,,,,,,,,,,,,5c4602713d08e80001369876,2020-08-08_10h26.36.811,lexical_decision_task_MP,2020.1.3,Win32,60,,m,1,0.64945,,,,,,,,0.64945,1,,,,,,43,WORD,UN,50,foster,TONGUE,m,,,,,,0.313888889,-0.353703704,0,0,0,,0,197,197,222,1,
,,,,,,,,,,,,,,,,,,5c4602713d08e80001369876,2020-08-08_10h26.36.811,lexical_decision_task_MP,2020.1.3,Win32,60,,z,0,0.641095,,,,,,,,0.641095,0,,,,,,184,WORD,UN,33,bother,SLEAZY,m,,,,,,0.313888889,-0.353703704,0,0,0,,0,198,198,123,1,
,,,,,,,,,,,,,,,,,,5c4602713d08e80001369876,2020-08-08_10h26.36.811,lexical_decision_task_MP,2020.1.3,Win32,60,,m,1,0.525575,,,,,,,,0.525575,1,,,,,,121,WORD,"ID",50,thrive,THRIVE,m,,,,,,0.313888889,-0.353703704,0,0,0,,0,199,199,60,1,
,,,,,,,,,,,,,,,,,,5c4602713d08e80001369876,2020-08-08_10h26.36.811,lexical_decision_task_MP,2020.1.3,Win32,60,,m,1,0.789455,,,,,,,,0.789455,1,,,,,,189,WORD,UN,33,backup,CENSOR,m,,,,,,0.313888889,-0.353703704,0,0,0,,0,200,200,128,1,
,,,,,,,,,,,,,,,,,,5c4602713d08e80001369876,2020-08-08_10h26.36.811,lexical_decision_task_MP,2020.1.3,Win32,60,,z,1,0.635005,,,,,,,,0.635005,1,,,,,,413,NW,"ID",50,equats,EQUATS,z,,,,,,0.313888889,-0.353703704,0,0,0,,0,201,201,352,1,
,,,,,,,,,,,,,,,,,,5c4602713d08e80001369876,2020-08-08_10h26.36.811,lexical_decision_task_MP,2020.1.3,Win32,60,,z,1,0.69353,,,,,,,,0.69353,1,,,,,,463,NW,UN,33,chaite,KISPEL,z,,,,,,0.313888889,-0.353703704,0,0,0,,0,202,202,402,1,
,,,,,,,,,,,,,,,,,,5c4602713d08e80001369876,2020-08-08_10h26.36.811,lexical_decision_task_MP,2020.1.3,Win32,60,,z,1,0.780335,,,,,,,,0.780335,1,,,,,,388,NW,"ID",50,cragin,CRAGIN,z,,,,,,0.313888889,-0.353703704,0,0,0,,0,203,203,327,1,
,,,,,,,,,,,,,,,,,,5c4602713d08e80001369876,2020-08-08_10h26.36.811,lexical_decision_task_MP,2020.1.3,Win32,60,,m,1,0.52754,,,,,,,,0.52754,1,,,,,,158,WORD,"ID",50,island,ISLAND,m,,,,,,0.313888889,-0.353703704,0,0,0,,0,204,204,97,1,
,,,,,,,,,,,,,,,,,,5c4602713d08e80001369876,2020-08-08_10h26.36.811,lexical_decision_task_MP,2020.1.3,Win32,60,,m,1,0.689335,,,,,,,,0.689335,1,,,,,,145,WORD,"ID",50,parish,PARISH,m,,,,,,0.313888889,-0.353703704,0,0,0,,0,205,205,84,1,
,,,,,,,,,,,,,,,,,,5c4602713d08e80001369876,2020-08-08_10h26.36.811,lexical_decision_task_MP,2020.1.3,Win32,60,,m,1,0.705465,,,,,,,,0.705465,1,,,,,,193,WORD,UN,33,mildew,OBJECT,m,,,,,,0.313888889,-0.353703704,0,0,0,,0,206,206,132,1,
,,,,,,,,,,,,,,,,,,5c4602713d08e80001369876,2020-08-08_10h26.36.811,lexical_decision_task_MP,2020.1.3,Win32,60,,m,1,0.73838,,,,,,,,0.73838,1,,,,,,51,WORD,UN,50,impose,HUNGRY,m,,,,,,0.313888889,-0.353703704,0,0,0,,0,207,207,230,1,
,,,,,,,,,,,,,,,,,,5c4602713d08e80001369876,2020-08-08_10h26.36.811,lexical_decision_task_MP,2020.1.3,Win32,60,,z,1,0.632795,,,,,,,,0.632795,1,,,,,,426,NW,UN,33,schind,URIVEL,z,,,,,,0.313888889,-0.353703704,0,0,0,,0,208,208,365,1,
,,,,,,,,,,,,,,,,,,5c4602713d08e80001369876,2020-08-08_10h26.36.811,lexical_decision_task_MP,2020.1.3,Win32,60,,z,1,0.78072,,,,,,,,0.78072,1,,,,,,353,NW,"ID",33,clurey,CLUREY,z,,,,,,0.313888889,-0.353703704,0,0,0,,0,209,209,292,1,
,,,,,,,,,,,,,,,,,,5c4602713d08e80001369876,2020-08-08_10h26.36.811,lexical_decision_task_MP,2020.1.3,Win32,60,,m,1,0.592465,,,,,,,,0.592465,1,,,,,,226,WORD,UN,33,flower,CASINO,m,,,,,,0.313888889,-0.353703704,0,0,0,,0,210,210,165,1,
,,,,,,,,,,,,,,,,,,5c4602713d08e80001369876,2020-08-08_10h26.36.811,lexical_decision_task_MP,2020.1.3,Win32,60,,m,1,0.68704,,,,,,,,0.68704,1,,,,,,44,WORD,UN,50,clergy,DANGER,m,,,,,,0.313888889,-0.353703704,0,0,0,,0,211,211,223,1,
,,,,,,,,,,,,,,,,,,5c4602713d08e80001369876,2020-08-08_10h26.36.811,lexical_decision_task_MP,2020.1.3,Win32,60,,z,1,0.611035,,,,,,,,0.611035,1,,,,,,381,NW,"ID",50,huniek,HUNIEK,z,,,,,,0.313888889,-0.353703704,0,0,0,,0,212,212,320,1,
,,,,,,,,,,,,,,,,,,5c4602713d08e80001369876,2020-08-08_10h26.36.811,lexical_decision_task_MP,2020.1.3,Win32,60,,m,1,0.74294,,,,,,,,0.74294,1,,,,,,134,WORD,"ID",50,staple,STAPLE,m,,,,,,0.313888889,-0.353703704,0,0,0,,0,213,213,73,1,
,,,,,,,,,,,,,,,,,,5c4602713d08e80001369876,2020-08-08_10h26.36.811,lexical_decision_task_MP,2020.1.3,Win32,60,,m,1,0.57076,,,,,,,,0.57076,1,,,,,,79,WORD,"ID",33,theory,THEORY,m,,,,,,0.313888889,-0.353703704,0,0,0,,0,214,214,18,1,
,,,,,,,,,,,,,,,,,,5c4602713d08e80001369876,2020-08-08_10h26.36.811,lexical_decision_task_MP,2020.1.3,Win32,60,,z,1,1.259115,,,,,,,,1.259115,1,,,,,,338,NW,"ID",33,wreash,WREASH,z,,,,,,0.313888889,-0.353703704,0,0,0,,0,215,215,277,1,
,,,,,,,,,,,,,,,,,,5c4602713d08e80001369876,2020-08-08_10h26.36.811,lexical_decision_task_MP,2020.1.3,Win32,60,,m,1,0.648035,,,,,,,,0.648035,1,,,,,,206,WORD,UN,33,wreath,TAILOR,m,,,,,,0.313888889,-0.353703704,0,0,0,,0,216,216,145,1,
,,,,,,,,,,,,,,,,,,5c4602713d08e80001369876,2020-08-08_10h26.36.811,lexical_decision_task_MP,2020.1.3,Win32,60,,z,1,0.63919,,,,,,,,0.63919,1,,,,,,334,NW,"ID",33,watmeg,WATMEG,z,,,,,,0.313888889,-0.353703704,0,0,0,,0,217,217,273,1,
,,,,,,,,,,,,,,,,,,5c4602713d08e80001369876,2020-08-08_10h26.36.811,lexical_decision_task_MP,2020.1.3,Win32,60,,m,1,0.5921,,,,,,,,0.5921,1,,,,,,209,WORD,UN,33,monkey,SEARCH,m,,,,,,0.313888889,-0.353703704,0,0,0,,0,218,218,148,1,
,,,,,,,,,,,,,,,,,,5c4602713d08e80001369876,2020-08-08_10h26.36.811,lexical_decision_task_MP,2020.1.3,Win32,60,,m,1,0.583755,,,,,,,,0.583755,1,,,,,,132,WORD,"ID",50,strong,STRONG,m,,,,,,0.313888889,-0.353703704,0,0,0,,0,219,219,71,1,
,,,,,,,,,,,,,,,,,,5c4602713d08e80001369876,2020-08-08_10h26.36.811,lexical_decision_task_MP,2020.1.3,Win32,60,,z,1,0.61997,,,,,,,,0.61997,1,,,,,,333,NW,"ID",33,catrie,CATRIE,z,,,,,,0.313888889,-0.353703704,0,0,0,,0,220,220,272,1,
,,,,,,,,,,,,,,,,,,5c4602713d08e80001369876,2020-08-08_10h26.36.811,lexical_decision_task_MP,2020.1.3,Win32,60,,z,1,0.652945,,,,,,,,0.652945,1,,,,,,323,NW,"ID",33,rosail,ROSAIL,z,,,,,,0.313888889,-0.353703704,0,0,0,,0,221,221,262,1,
,,,,,,,,,,,,,,,,,,5c4602713d08e80001369876,2020-08-08_10h26.36.811,lexical_decision_task_MP,2020.1.3,Win32,60,,m,1,0.58786,,,,,,,,0.58786,1,,,,,,234,WORD,UN,33,poster,CLUMSY,m,,,,,,0.313888889,-0.353703704,0,0,0,,0,222,222,173,1,
,,,,,,,,,,,,,,,,,,5c4602713d08e80001369876,2020-08-08_10h26.36.811,lexical_decision_task_MP,2020.1.3,Win32,60,,z,1,1.18823,,,,,,,,1.18823,1,,,,,,297,NW,UN,50,piergy,FERTIC,z,,,,,,0.313888889,-0.353703704,0,0,0,,0,223,223,476,1,
,,,,,,,,,,,,,,,,,,5c4602713d08e80001369876,2020-08-08_10h26.36.811,lexical_decision_task_MP,2020.1.3,Win32,60,,m,1,0.587675,,,,,,,,0.587675,1,,,,,,175,WORD,"ID",50,fabric,FABRIC,m,,,,,,0.313888889,-0.353703704,0,0,0,,0,224,224,114,1,
,,,,,,,,,,,,,,,,,,5c4602713d08e80001369876,2020-08-08_10h26.36.811,lexical_decision_task_MP,2020.1.3,Win32,60,,z,1,0.710035,,,,,,,,0.710035,1,,,,,,325,NW,"ID",33,thruse,THRUSE,z,,,,,,0.313888889,-0.353703704,0,0,0,,0,225,225,264,1,
,,,,,,,,,,,,,,,,,,5c4602713d08e80001369876,2020-08-08_10h26.36.811,lexical_decision_task_MP,2020.1.3,Win32,60,,z,1,0.881345,,,,,,,,0.881345,1,,,,,,407,NW,"ID",50,suiver,SUIVER,z,,,,,,0.313888889,-0.353703704,0,0,0,,0,226,226,346,1,
,,,,,,,,,,,,,,,,,,5c4602713d08e80001369876,2020-08-08_10h26.36.811,lexical_decision_task_MP,2020.1.3,Win32,60,,m,1,0.57905,,,,,,,,0.57905,1,,,,,,167,WORD,"ID",50,design,DESIGN,m,,,,,,0.313888889,-0.353703704,0,0,0,,0,227,227,106,1,
,,,,,,,,,,,,,,,,,,5c4602713d08e80001369876,2020-08-08_10h26.36.811,lexical_decision_task_MP,2020.1.3,Win32,60,,z,1,0.595555,,,,,,,,0.595555,1,,,,,,249,NW,UN,50,milted,BATROL,z,,,,,,0.313888889,-0.353703704,0,0,0,,0,228,228,428,1,
,,,,,,,,,,,,,,,,,,5c4602713d08e80001369876,2020-08-08_10h26.36.811,lexical_decision_task_MP,2020.1.3,Win32,60,,z,1,0.78969,,,,,,,,0.78969,1,,,,,,449,NW,UN,33,phrect,BRUNGE,z,,,,,,0.313888889,-0.353703704,0,0,0,,0,229,229,388,1,
,,,,,,,,,,,,,,,,,,5c4602713d08e80001369876,2020-08-08_10h26.36.811,lexical_decision_task_MP,2020.1.3,Win32,60,,z,1,0.72218,,,,,,,,0.72218,1,,,,,,344,NW,"ID",33,scrily,SCRILY,z,,,,,,0.313888889,-0.353703704,0,0,0,,0,230,230,283,1,
,,,,,,,,,,,,,,,,,,5c4602713d08e80001369876,2020-08-08_10h26.36.811,lexical_decision_task_MP,2020.1.3,Win32,60,,m,1,0.589695,,,,,,,,0.589695,1,,,,,,42,WORD,UN,50,tongue,CHAPEL,m,,,,,,0.313888889,-0.353703704,0,0,0,,0,231,231,221,1,
,,,,,,,,,,,,,,,,,,5c4602713d08e80001369876,2020-08-08_10h26.36.811,lexical_decision_task_MP,2020.1.3,Win32,60,,m,1,0.67869,,,,,,,,0.67869,1,,,,,,15,WORD,UN,50,faucet,AMOUNT,m,,,,,,0.313888889,-0.353703704,0,0,0,,0,232,232,194,1,
,,,,,,,,,,,,,,,,,,5c4602713d08e80001369876,2020-08-08_10h26.36.811,lexical_decision_task_MP,2020.1.3,Win32,60,,z,1,0.57041,,,,,,,,0.57041,1,,,,,,448,NW,UN,33,brunge,SADENT,z,,,,,,0.313888889,-0.353703704,0,0,0,,0,233,233,387,1,
,,,,,,,,,,,,,,,,,,5c4602713d08e80001369876,2020-08-08_10h26.36.811,lexical_decision_task_MP,2020.1.3,Win32,60,,m,1,0.735195,,,,,,,,0.735195,1,,,,,,125,WORD,"ID",50,nickel,NICKEL,m,,,,,,0.313888889,-0.353703704,0,0,0,,0,234,234,64,1,
,,,,,,,,,,,,,,,,,,5c4602713d08e80001369876,2020-08-08_10h26.36.811,lexical_decision_task_MP,2020.1.3,Win32,60,,z,1,0.63103,,,,,,,,0.63103,1,,,,,,311,NW,"ID",33,sproly,SPROLY,z,,,,,,0.313888889,-0.353703704,0,0,0,,0,235,235,250,1,
,,,,,,,,,,,,,,,,,,5c4602713d08e80001369876,2020-08-08_10h26.36.811,lexical_decision_task_MP,2020.1.3,Win32,60,,z,1,0.621005,,,,,,,,0.621005,1,,,,,,446,NW,UN,33,gircue,RUNAMO,z,,,,,,0.313888889,-0.353703704,0,0,0,,0,236,236,385,1,
,,,,,,,,,,,,,,,,,,5c4602713d08e80001369876,2020-08-08_10h26.36.811,lexical_decision_task_MP,2020.1.3,Win32,60,,z,1,0.73951,,,,,,,,0.73951,1,,,,,,437,NW,UN,33,baitch,SNAPEL,z,,,,,,0.313888889,-0.353703704,0,0,0,,0,237,237,376,1,
,,,,,,,,,,,,,,,,,,5c4602713d08e80001369876,2020-08-08_10h26.36.811,lexical_decision_task_MP,2020.1.3,Win32,60,,z,1,0.8062,,,,,,,,0.8062,1,,,,,,476,NW,UN,33,photie,JOSTED,z,,,,,,0.313888889,-0.353703704,0,0,0,,0,238,238,415,1,
,,,,,,,,,,,,,,,,,,5c4602713d08e80001369876,2020-08-08_10h26.36.811,lexical_decision_task_MP,2020.1.3,Win32,60,,m,1,0.588385,,,,,,,,0.588385,1,,,,,,177,WORD,"ID",50,advent,ADVENT,m,,,,,,0.313888889,-0.353703704,0,0,0,,0,239,239,116,1,
,,,,,,,,,,,,,,,,,,5c4602713d08e80001369876,2020-08-08_10h26.36.811,lexical_decision_task_MP,2020.1.3,Win32,60,,m,1,0.531035,,,,,,,,0.531035,1,,,,,,174,WORD,"ID",50,turkey,TURKEY,m,,,,,,0.313888889,-0.353703704,0,0,0,,0,240,240,113,1,
,,,,,,,,,,,,,,,,,,5c4602713d08e80001369876,2020-08-08_10h26.36.811,lexical_decision_task_MP,2020.1.3,Win32,60,,z,1,0.63004,,,,,,,,0.63004,1,,,,,,399,NW,"ID",50,fouret,FOURET,z,,,,,,0.313888889,-0.353703704,0,0,0,space,0,241,241,338,1,10.330205
,,,,,,,,,,,,,,,,,,5c4602713d08e80001369876,2020-08-08_10h26.36.811,lexical_decision_task_MP,2020.1.3,Win32,60,,m,1,0.784165,,,,,,,,0.784165,1,,,,,,36,WORD,UN,50,insult,VANISH,m,,,,,,0.313888889,-0.353703704,0,0,0,,0,242,242,215,1,
,,,,,,,,,,,,,,,,,,5c4602713d08e80001369876,2020-08-08_10h26.36.811,lexical_decision_task_MP,2020.1.3,Win32,60,,z,1,0.62468,,,,,,,,0.62468,1,,,,,,362,NW,"ID",50,tireau,TIREAU,z,,,,,,0.313888889,-0.353703704,0,0,0,,0,243,243,301,1,
,,,,,,,,,,,,,,,,,,5c4602713d08e80001369876,2020-08-08_10h26.36.811,lexical_decision_task_MP,2020.1.3,Win32,60,,z,1,0.64171,,,,,,,,0.64171,1,,,,,,377,NW,"ID",50,injore,INJORE,z,,,,,,0.313888889,-0.353703704,0,0,0,,0,244,244,316,1,
,,,,,,,,,,,,,,,,,,5c4602713d08e80001369876,2020-08-08_10h26.36.811,lexical_decision_task_MP,2020.1.3,Win32,60,,m,1,0.501325,,,,,,,,0.501325,1,,,,,,153,WORD,"ID",50,behold,BEHOLD,m,,,,,,0.313888889,-0.353703704,0,0,0,,0,245,245,92,1,
,,,,,,,,,,,,,,,,,,5c4602713d08e80001369876,2020-08-08_10h26.36.811,lexical_decision_task_MP,2020.1.3,Win32,60,,z,1,0.63731,,,,,,,,0.63731,1,,,,,,283,NW,UN,50,shaple,VERALF,z,,,,,,0.313888889,-0.353703704,0,0,0,,0,246,246,462,1,
,,,,,,,,,,,,,,,,,,5c4602713d08e80001369876,2020-08-08_10h26.36.811,lexical_decision_task_MP,2020.1.3,Win32,60,,z,1,0.563175,,,,,,,,0.563175,1,,,,,,473,NW,UN,33,hablin,CRIBLE,z,,,,,,0.313888889,-0.353703704,0,0,0,,0,247,247,412,1,
,,,,,,,,,,,,,,,,,,5c4602713d08e80001369876,2020-08-08_10h26.36.811,lexical_decision_task_MP,2020.1.3,Win32,60,,z,1,0.622835,,,,,,,,0.622835,1,,,,,,296,NW,UN,50,fertic,BEINCH,z,,,,,,0.313888889,-0.353703704,0,0,0,,0,248,248,475,1,
,,,,,,,,,,,,,,,,,,5c4602713d08e80001369876,2020-08-08_10h26.36.811,lexical_decision_task_MP,2020.1.3,Win32,60,,m,1,0.591635,,,,,,,,0.591635,1,,,,,,47,WORD,UN,50,walnut,INCOME,m,,,,,,0.313888889,-0.353703704,0,0,0,,0,249,249,226,1,
,,,,,,,,,,,,,,,,,,5c4602713d08e80001369876,2020-08-08_10h26.36.811,lexical_decision_task_MP,2020.1.3,Win32,60,,z,1,0.53906,,,,,,,,0.53906,1,,,,,,465,NW,UN,33,bafent,WHIVEX,z,,,,,,0.313888889,-0.353703704,0,0,0,,0,250,250,404,1,
,,,,,,,,,,,,,,,,,,5c4602713d08e80001369876,2020-08-08_10h26.36.811,lexical_decision_task_MP,2020.1.3,Win32,60,,m,1,0.54045,,,,,,,,0.54045,1,,,,,,147,WORD,"ID",50,garlic,GARLIC,m,,,,,,0.313888889,-0.353703704,0,0,0,,0,251,251,86,1,
,,,,,,,,,,,,,,,,,,5c4602713d08e80001369876,2020-08-08_10h26.36.811,lexical_decision_task_MP,2020.1.3,Win32,60,,m,1,0.557475,,,,,,,,0.557475,1,,,,,,231,WORD,UN,33,inject,EXPORT,m,,,,,,0.313888889,-0.353703704,0,0,0,,0,252,252,170,1,
,,,,,,,,,,,,,,,,,,5c4602713d08e80001369876,2020-08-08_10h26.36.811,lexical_decision_task_MP,2020.1.3,Win32,60,,m,1,0.551545,,,,,,,,0.551545,1,,,,,,98,WORD,"ID",33,belong,BELONG,m,,,,,,0.313888889,-0.353703704,0,0,0,,0,253,253,37,1,
,,,,,,,,,,,,,,,,,,5c4602713d08e80001369876,2020-08-08_10h26.36.811,lexical_decision_task_MP,2020.1.3,Win32,60,,m,1,0.52081,,,,,,,,0.52081,1,,,,,,198,WORD,UN,33,invoke,WICKED,m,,,,,,0.313888889,-0.353703704,0,0,0,,0,254,254,137,1,
,,,,,,,,,,,,,,,,,,5c4602713d08e80001369876,2020-08-08_10h26.36.811,lexical_decision_task_MP,2020.1.3,Win32,60,,z,1,0.94407,,,,,,,,0.94407,1,,,,,,330,NW,"ID",33,kensom,KENSOM,z,,,,,,0.313888889,-0.353703704,0,0,0,,0,255,255,269,1,
,,,,,,,,,,,,,,,,,,5c4602713d08e80001369876,2020-08-08_10h26.36.811,lexical_decision_task_MP,2020.1.3,Win32,60,,z,1,0.726875,,,,,,,,0.726875,1,,,,,,264,NW,UN,50,distar,VACKEL,z,,,,,,0.313888889,-0.353703704,0,0,0,,0,256,256,443,1,
,,,,,,,,,,,,,,,,,,5c4602713d08e80001369876,2020-08-08_10h26.36.811,lexical_decision_task_MP,2020.1.3,Win32,60,,z,1,0.615285,,,,,,,,0.615285,1,,,,,,359,NW,"ID",33,fonver,FONVER,z,,,,,,0.313888889,-0.353703704,0,0,0,,0,257,257,298,1,
,,,,,,,,,,,,,,,,,,5c4602713d08e80001369876,2020-08-08_10h26.36.811,lexical_decision_task_MP,2020.1.3,Win32,60,,z,1,0.723315,,,,,,,,0.723315,1,,,,,,294,NW,UN,50,gleath,INHORT,z,,,,,,0.313888889,-0.353703704,0,0,0,,0,258,258,473,1,
,,,,,,,,,,,,,,,,,,5c4602713d08e80001369876,2020-08-08_10h26.36.811,lexical_decision_task_MP,2020.1.3,Win32,60,,z,1,0.721245,,,,,,,,0.721245,1,,,,,,254,NW,UN,50,apight,VAROSH,z,,,,,,0.313888889,-0.353703704,0,0,0,,0,259,259,433,1,
,,,,,,,,,,,,,,,,,,5c4602713d08e80001369876,2020-08-08_10h26.36.811,lexical_decision_task_MP,2020.1.3,Win32,60,,z,1,0.51697,,,,,,,,0.51697,1,,,,,,471,NW,UN,33,cigney,NOBEST,z,,,,,,0.313888889,-0.353703704,0,0,0,,0,260,260,410,1,
,,,,,,,,,,,,,,,,,,5c4602713d08e80001369876,2020-08-08_10h26.36.811,lexical_decision_task_MP,2020.1.3,Win32,60,,m,1,0.5888,,,,,,,,0.5888,1,,,,,,160,WORD,"ID",50,violet,VIOLET,m,,,,,,0.313888889,-0.353703704,0,0,0,,0,261,261,99,1,
,,,,,,,,,,,,,,,,,,5c4602713d08e80001369876,2020-08-08_10h26.36.811,lexical_decision_task_MP,2020.1.3,Win32,60,,z,1,0.743395,,,,,,,,0.743395,1,,,,,,423,NW,UN,33,praile,STRELD,z,,,,,,0.313888889,-0.353703704,0,0,0,,0,262,262,362,1,
,,,,,,,,,,,,,,,,,,5c4602713d08e80001369876,2020-08-08_10h26.36.811,lexical_decision_task_MP,2020.1.3,Win32,60,,m,1,0.7237,,,,,,,,0.7237,1,,,,,,219,WORD,UN,33,voyage,BUCKET,m,,,,,,0.313888889,-0.353703704,0,0,0,,0,263,263,158,1,
,,,,,,,,,,,,,,,,,,5c4602713d08e80001369876,2020-08-08_10h26.36.811,lexical_decision_task_MP,2020.1.3,Win32,60,,m,1,0.61054,,,,,,,,0.61054,1,,,,,,208,WORD,UN,33,search,HOCKEY,m,,,,,,0.313888889,-0.353703704,0,0,0,,0,264,264,147,1,
,,,,,,,,,,,,,,,,,,5c4602713d08e80001369876,2020-08-08_10h26.36.811,lexical_decision_task_MP,2020.1.3,Win32,60,,z,1,0.654235,,,,,,,,0.654235,1,,,,,,301,NW,"ID",33,fainch,FAINCH,z,,,,,,0.313888889,-0.353703704,0,0,0,,0,265,265,240,1,
,,,,,,,,,,,,,,,,,,5c4602713d08e80001369876,2020-08-08_10h26.36.811,lexical_decision_task_MP,2020.1.3,Win32,60,,z,1,0.72724,,,,,,,,0.72724,1,,,,,,245,NW,UN,50,piaton,ANOUGS,z,,,,,,0.313888889,-0.353703704,0,0,0,,0,266,266,424,1,
,,,,,,,,,,,,,,,,,,5c4602713d08e80001369876,2020-08-08_10h26.36.811,lexical_decision_task_MP,2020.1.3,Win32,60,,z,1,0.666375,,,,,,,,0.666375,1,,,,,,355,NW,"ID",33,zingly,ZINGLY,z,,,,,,0.313888889,-0.353703704,0,0,0,,0,267,267,294,1,
,,,,,,,,,,,,,,,,,,5c4602713d08e80001369876,2020-08-08_10h26.36.811,lexical_decision_task_MP,2020.1.3,Win32,60,,m,1,0.500015,,,,,,,,0.500015,1,,,,,,100,WORD,"ID",33,carbon,CARBON,m,,,,,,0.313888889,-0.353703704,0,0,0,,0,268,268,39,1,
,,,,,,,,,,,,,,,,,,5c4602713d08e80001369876,2020-08-08_10h26.36.811,lexical_decision_task_MP,2020.1.3,Win32,60,,m,1,0.64958,,,,,,,,0.64958,1,,,,,,40,WORD,UN,50,spring,CONVEY,m,,,,,,0.313888889,-0.353703704,0,0,0,,0,269,269,219,1,
,,,,,,,,,,,,,,,,,,5c4602713d08e80001369876,2020-08-08_10h26.36.811,lexical_decision_task_MP,2020.1.3,Win32,60,,m,1,0.52526,,,,,,,,0.52526,1,,,,,,105,WORD,"ID",33,number,NUMBER,m,,,,,,0.313888889,-0.353703704,0,0,0,,0,270,270,44,1,
,,,,,,,,,,,,,,,,,,5c4602713d08e80001369876,2020-08-08_10h26.36.811,lexical_decision_task_MP,2020.1.3,Win32,60,,m,1,0.58756,,,,,,,,0.58756,1,,,,,,129,WORD,"ID",50,marvel,MARVEL,m,,,,,,0.313888889,-0.353703704,0,0,0,,0,271,271,68,1,
,,,,,,,,,,,,,,,,,,5c4602713d08e80001369876,2020-08-08_10h26.36.811,lexical_decision_task_MP,2020.1.3,Win32,60,,m,1,0.56637,,,,,,,,0.56637,1,,,,,,76,WORD,"ID",33,exotic,EXOTIC,m,,,,,,0.313888889,-0.353703704,0,0,0,,0,272,272,15,1,
,,,,,,,,,,,,,,,,,,5c4602713d08e80001369876,2020-08-08_10h26.36.811,lexical_decision_task_MP,2020.1.3,Win32,60,,z,1,0.54174,,,,,,,,0.54174,1,,,,,,447,NW,UN,33,sadent,GIRCUE,z,,,,,,0.313888889,-0.353703704,0,0,0,,0,273,273,386,1,
,,,,,,,,,,,,,,,,,,5c4602713d08e80001369876,2020-08-08_10h26.36.811,lexical_decision_task_MP,2020.1.3,Win32,60,,z,1,0.72611,,,,,,,,0.72611,1,,,,,,265,NW,UN,50,varmit,DISTAR,z,,,,,,0.313888889,-0.353703704,0,0,0,,0,274,274,444,1,
,,,,,,,,,,,,,,,,,,5c4602713d08e80001369876,2020-08-08_10h26.36.811,lexical_decision_task_MP,2020.1.3,Win32,60,,z,1,0.610915,,,,,,,,0.610915,1,,,,,,370,NW,"ID",50,sleact,SLEACT,z,,,,,,0.313888889,-0.353703704,0,0,0,,0,275,275,309,1,
,,,,,,,,,,,,,,,,,,5c4602713d08e80001369876,2020-08-08_10h26.36.811,lexical_decision_task_MP,2020.1.3,Win32,60,,m,1,0.55585,,,,,,,,0.55585,1,,,,,,236,WORD,UN,33,grumpy,PIRATE,m,,,,,,0.313888889,-0.353703704,0,0,0,,0,276,276,175,1,
,,,,,,,,,,,,,,,,,,5c4602713d08e80001369876,2020-08-08_10h26.36.811,lexical_decision_task_MP,2020.1.3,Win32,60,,m,1,0.56121,,,,,,,,0.56121,1,,,,,,112,WORD,"ID",33,breath,BREATH,m,,,,,,0.313888889,-0.353703704,0,0,0,,0,277,277,51,1,
,,,,,,,,,,,,,,,,,,5c4602713d08e80001369876,2020-08-08_10h26.36.811,lexical_decision_task_MP,2020.1.3,Win32,60,,z,1,0.67078,,,,,,,,0.67078,1,,,,,,453,NW,UN,33,scouge,BOLVIS,z,,,,,,0.313888889,-0.353703704,0,0,0,,0,278,278,392,1,
,,,,,,,,,,,,,,,,,,5c4602713d08e80001369876,2020-08-08_10h26.36.811,lexical_decision_task_MP,2020.1.3,Win32,60,,z,1,0.714445,,,,,,,,0.714445,1,,,,,,312,NW,"ID",33,nerawl,NERAWL,z,,,,,,0.313888889,-0.353703704,0,0,0,,0,279,279,251,1,
,,,,,,,,,,,,,,,,,,5c4602713d08e80001369876,2020-08-08_10h26.36.811,lexical_decision_task_MP,2020.1.3,Win32,60,,m,1,0.564475,,,,,,,,0.564475,1,,,,,,67,WORD,"ID",33,policy,POLICY,m,,,,,,0.313888889,-0.353703704,0,0,0,,0,280,280,6,1,
,,,,,,,,,,,,,,,,,,5c4602713d08e80001369876,2020-08-08_10h26.36.811,lexical_decision_task_MP,2020.1.3,Win32,60,,m,1,0.54754,,,,,,,,0.54754,1,,,,,,164,WORD,"ID",50,market,MARKET,m,,,,,,0.313888889,-0.353703704,0,0,0,,0,281,281,103,1,
,,,,,,,,,,,,,,,,,,5c4602713d08e80001369876,2020-08-08_10h26.36.811,lexical_decision_task_MP,2020.1.3,Win32,60,,m,1,0.81229,,,,,,,,0.81229,1,,,,,,85,WORD,"ID",33,sprawl,SPRAWL,m,,,,,,0.313888889,-0.353703704,0,0,0,,0,282,282,24,1,
,,,,,,,,,,,,,,,,,,5c4602713d08e80001369876,2020-08-08_10h26.36.811,lexical_decision_task_MP,2020.1.3,Win32,60,,m,1,0.65372,,,,,,,,0.65372,1,,,,,,150,WORD,"ID",50,random,RANDOM,m,,,,,,0.313888889,-0.353703704,0,0,0,,0,283,283,89,1,
,,,,,,,,,,,,,,,,,,5c4602713d08e80001369876,2020-08-08_10h26.36.811,lexical_decision_task_MP,2020.1.3,Win32,60,,m,1,0.82018,,,,,,,,0.82018,1,,,,,,227,WORD,UN,33,master,SELDOM,m,,,,,,0.313888889,-0.353703704,0,0,0,,0,284,284,166,1,
,,,,,,,,,,,,,,,,,,5c4602713d08e80001369876,2020-08-08_10h26.36.811,lexical_decision_task_MP,2020.1.3,Win32,60,,z,1,0.73142,,,,,,,,0.73142,1,,,,,,242,NW,UN,50,musied,UNWERT,z,,,,,,0.313888889,-0.353703704,0,0,0,,0,285,285,421,1,
,,,,,,,,,,,,,,,,,,5c4602713d08e80001369876,2020-08-08_10h26.36.811,lexical_decision_task_MP,2020.1.3,Win32,60,,m,1,0.611185,,,,,,,,0.611185,1,,,,,,102,WORD,"ID",33,direct,DIRECT,m,,,,,,0.313888889,-0.353703704,0,0,0,,0,286,286,41,1,
,,,,,,,,,,,,,,,,,,5c4602713d08e80001369876,2020-08-08_10h26.36.811,lexical_decision_task_MP,2020.1.3,Win32,60,,m,1,0.60452,,,,,,,,0.60452,1,,,,,,170,WORD,"ID",50,pounce,POUNCE,m,,,,,,0.313888889,-0.353703704,0,0,0,,0,287,287,109,1,
,,,,,,,,,,,,,,,,,,5c4602713d08e80001369876,2020-08-08_10h26.36.811,lexical_decision_task_MP,2020.1.3,Win32,60,,z,1,0.5428,,,,,,,,0.5428,1,,,,,,351,NW,"ID",33,tiesch,TIESCH,z,,,,,,0.313888889,-0.353703704,0,0,0,,0,288,288,290,1,
,,,,,,,,,,,,,,,,,,5c4602713d08e80001369876,2020-08-08_10h26.36.811,lexical_decision_task_MP,2020.1.3,Win32,60,,m,1,0.63699,,,,,,,,0.63699,1,,,,,,196,WORD,UN,33,stream,CREDIT,m,,,,,,0.313888889,-0.353703704,0,0,0,,0,289,289,135,1,
,,,,,,,,,,,,,,,,,,5c4602713d08e80001369876,2020-08-08_10h26.36.811,lexical_decision_task_MP,2020.1.3,Win32,60,,m,1,0.532705,,,,,,,,0.532705,1,,,,,,138,WORD,"ID",50,melody,MELODY,m,,,,,,0.313888889,-0.353703704,0,0,0,,0,290,290,77,1,
,,,,,,,,,,,,,,,,,,5c4602713d08e80001369876,2020-08-08_10h26.36.811,lexical_decision_task_MP,2020.1.3,Win32,60,,z,1,0.614665,,,,,,,,0.614665,1,,,,,,480,NW,UN,33,knisma,ROBULY,z,,,,,,0.313888889,-0.353703704,0,0,0,,0,291,291,419,1,
,,,,,,,,,,,,,,,,,,5c4602713d08e80001369876,2020-08-08_10h26.36.811,lexical_decision_task_MP,2020.1.3,Win32,60,,m,1,0.61947,,,,,,,,0.61947,1,,,,,,6,WORD,UN,50,anchor,BUNDLE,m,,,,,,0.313888889,-0.353703704,0,0,0,,0,292,292,185,1,
,,,,,,,,,,,,,,,,,,5c4602713d08e80001369876,2020-08-08_10h26.36.811,lexical_decision_task_MP,2020.1.3,Win32,60,,m,1,0.760885,,,,,,,,0.760885,1,,,,,,95,WORD,"ID",33,thread,THREAD,m,,,,,,0.313888889,-0.353703704,0,0,0,,0,293,293,34,1,
,,,,,,,,,,,,,,,,,,5c4602713d08e80001369876,2020-08-08_10h26.36.811,lexical_decision_task_MP,2020.1.3,Win32,60,,z,1,0.6243,,,,,,,,0.6243,1,,,,,,367,NW,"ID",50,slique,SLIQUE,z,,,,,,0.313888889,-0.353703704,0,0,0,,0,294,294,306,1,
,,,,,,,,,,,,,,,,,,5c4602713d08e80001369876,2020-08-08_10h26.36.811,lexical_decision_task_MP,2020.1.3,Win32,60,,m,1,0.639885,,,,,,,,0.639885,1,,,,,,162,WORD,"ID",50,candle,CANDLE,m,,,,,,0.313888889,-0.353703704,0,0,0,,0,295,295,101,1,
,,,,,,,,,,,,,,,,,,5c4602713d08e80001369876,2020-08-08_10h26.36.811,lexical_decision_task_MP,2020.1.3,Win32,60,,m,1,0.652265,,,,,,,,0.652265,1,,,,,,122,WORD,"ID",50,linger,LINGER,m,,,,,,0.313888889,-0.353703704,0,0,0,,0,296,296,61,1,
,,,,,,,,,,,,,,,,,,5c4602713d08e80001369876,2020-08-08_10h26.36.811,lexical_decision_task_MP,2020.1.3,Win32,60,,m,1,0.621255,,,,,,,,0.621255,1,,,,,,172,WORD,"ID",50,patrol,PATROL,m,,,,,,0.313888889,-0.353703704,0,0,0,,0,297,297,111,1,
,,,,,,,,,,,,,,,,,,5c4602713d08e80001369876,2020-08-08_10h26.36.811,lexical_decision_task_MP,2020.1.3,Win32,60,,z,1,0.64461,,,,,,,,0.64461,1,,,,,,272,NW,UN,50,sortel,DAMILT,z,,,,,,0.313888889,-0.353703704,0,0,0,,0,298,298,451,1,
,,,,,,,,,,,,,,,,,,5c4602713d08e80001369876,2020-08-08_10h26.36.811,lexical_decision_task_MP,2020.1.3,Win32,60,,m,1,0.5794,,,,,,,,0.5794,1,,,,,,11,WORD,UN,50,amount,CRUISE,m,,,,,,0.313888889,-0.353703704,0,0,0,,0,299,299,190,1,
,,,,,,,,,,,,,,,,,,5c4602713d08e80001369876,2020-08-08_10h26.36.811,lexical_decision_task_MP,2020.1.3,Win32,60,,m,1,0.52789,,,,,,,,0.52789,1,,,,,,104,WORD,"ID",33,studio,STUDIO,m,,,,,,0.313888889,-0.353703704,0,0,0,,0,300,300,43,1,
,,,,,,,,,,,,,,,,,,5c4602713d08e80001369876,2020-08-08_10h26.36.811,lexical_decision_task_MP,2020.1.3,Win32,60,,z,1,0.60814,,,,,,,,0.60814,1,,,,,,346,NW,"ID",33,saudic,SAUDIC,z,,,,,,0.313888889,-0.353703704,0,0,0,,0,301,301,285,1,
,,,,,,,,,,,,,,,,,,5c4602713d08e80001369876,2020-08-08_10h26.36.811,lexical_decision_task_MP,2020.1.3,Win32,60,,m,1,0.851875,,,,,,,,0.851875,1,,,,,,33,WORD,UN,50,jungle,BUTLER,m,,,,,,0.313888889,-0.353703704,0,0,0,,0,302,302,212,1,
,,,,,,,,,,,,,,,,,,5c4602713d08e80001369876,2020-08-08_10h26.36.811,lexical_decision_task_MP,2020.1.3,Win32,60,,m,1,0.506315,,,,,,,,0.506315,1,,,,,,123,WORD,"ID",50,strike,STRIKE,m,,,,,,0.313888889,-0.353703704,0,0,0,,0,303,303,62,1,
,,,,,,,,,,,,,,,,,,5c4602713d08e80001369876,2020-08-08_10h26.36.811,lexical_decision_task_MP,2020.1.3,Win32,60,,z,1,0.58598,,,,,,,,0.58598,1,,,,,,271,NW,UN,50,damilt,AUBRID,z,,,,,,0.313888889,-0.353703704,0,0,0,,0,304,304,450,1,
,,,,,,,,,,,,,,,,,,5c4602713d08e80001369876,2020-08-08_10h26.36.811,lexical_decision_task_MP,2020.1.3,Win32,60,,z,1,0.58808,,,,,,,,0.58808,1,,,,,,326,NW,"ID",33,iguade,IGUADE,z,,,,,,0.313888889,-0.353703704,0,0,0,,0,305,305,265,1,
,,,,,,,,,,,,,,,,,,5c4602713d08e80001369876,2020-08-08_10h26.36.811,lexical_decision_task_MP,2020.1.3,Win32,60,,m,1,0.540315,,,,,,,,0.540315,1,,,,,,53,WORD,UN,50,ramble,POLICE,m,,,,,,0.313888889,-0.353703704,0,0,0,,0,306,306,232,1,
,,,,,,,,,,,,,,,,,,5c4602713d08e80001369876,2020-08-08_10h26.36.811,lexical_decision_task_MP,2020.1.3,Win32,60,,m,1,0.48702,,,,,,,,0.48702,1,,,,,,38,WORD,UN,50,insect,POWDER,m,,,,,,0.313888889,-0.353703704,0,0,0,,0,307,307,217,1,
,,,,,,,,,,,,,,,,,,5c4602713d08e80001369876,2020-08-08_10h26.36.811,lexical_decision_task_MP,2020.1.3,Win32,60,,m,1,0.53359,,,,,,,,0.53359,1,,,,,,117,WORD,"ID",33,branch,BRANCH,m,,,,,,0.313888889,-0.353703704,0,0,0,,0,308,308,56,1,
,,,,,,,,,,,,,,,,,,5c4602713d08e80001369876,2020-08-08_10h26.36.811,lexical_decision_task_MP,2020.1.3,Win32,60,,m,1,0.43817,,,,,,,,0.43817,1,,,,,,63,WORD,"ID",33,launch,LAUNCH,m,,,,,,0.313888889,-0.353703704,0,0,0,,0,309,309,2,1,
,,,,,,,,,,,,,,,,,,5c4602713d08e80001369876,2020-08-08_10h26.36.811,lexical_decision_task_MP,2020.1.3,Win32,60,,m,1,0.521675,,,,,,,,0.521675,1,,,,,,148,WORD,"ID",50,custom,CUSTOM,m,,,,,,0.313888889,-0.353703704,0,0,0,,0,310,310,87,1,
,,,,,,,,,,,,,,,,,,5c4602713d08e80001369876,2020-08-08_10h26.36.811,lexical_decision_task_MP,2020.1.3,Win32,60,,z,1,0.54611,,,,,,,,0.54611,1,,,,,,380,NW,"ID",50,cavory,CAVORY,z,,,,,,0.313888889,-0.353703704,0,0,0,,0,311,311,319,1,
,,,,,,,,,,,,,,,,,,5c4602713d08e80001369876,2020-08-08_10h26.36.811,lexical_decision_task_MP,2020.1.3,Win32,60,,m,1,0.79968,,,,,,,,0.79968,1,,,,,,179,WORD,"ID",50,basket,BASKET,m,,,,,,0.313888889,-0.353703704,0,0,0,,0,312,312,118,1,
,,,,,,,,,,,,,,,,,,5c4602713d08e80001369876,2020-08-08_10h26.36.811,lexical_decision_task_MP,2020.1.3,Win32,60,,m,1,0.52801,,,,,,,,0.52801,1,,,,,,133,WORD,"ID",50,chrome,CHROME,m,,,,,,0.313888889,-0.353703704,0,0,0,,0,313,313,72,1,
,,,,,,,,,,,,,,,,,,5c4602713d08e80001369876,2020-08-08_10h26.36.811,lexical_decision_task_MP,2020.1.3,Win32,60,,m,1,0.601095,,,,,,,,0.601095,1,,,,,,163,WORD,"ID",50,string,STRING,m,,,,,,0.313888889,-0.353703704,0,0,0,,0,314,314,102,1,
,,,,,,,,,,,,,,,,,,5c4602713d08e80001369876,2020-08-08_10h26.36.811,lexical_decision_task_MP,2020.1.3,Win32,60,,z,1,0.67884,,,,,,,,0.67884,1,,,,,,317,NW,"ID",33,worbal,WORBAL,z,,,,,,0.313888889,-0.353703704,0,0,0,,0,315,315,256,1,
,,,,,,,,,,,,,,,,,,5c4602713d08e80001369876,2020-08-08_10h26.36.811,lexical_decision_task_MP,2020.1.3,Win32,60,,m,1,0.54261,,,,,,,,0.54261,1,,,,,,151,WORD,"ID",50,mystic,MYSTIC,m,,,,,,0.313888889,-0.353703704,0,0,0,,0,316,316,90,1,
,,,,,,,,,,,,,,,,,,5c4602713d08e80001369876,2020-08-08_10h26.36.811,lexical_decision_task_MP,2020.1.3,Win32,60,,z,1,0.62458,,,,,,,,0.62458,1,,,,,,414,NW,"ID",50,serbol,SERBOL,z,,,,,,0.313888889,-0.353703704,0,0,0,,0,317,317,353,1,
,,,,,,,,,,,,,,,,,,5c4602713d08e80001369876,2020-08-08_10h26.36.811,lexical_decision_task_MP,2020.1.3,Win32,60,,z,1,0.545275,,,,,,,,0.545275,1,,,,,,262,NW,UN,50,dolica,QUILEW,z,,,,,,0.313888889,-0.353703704,0,0,0,,0,318,318,441,1,
,,,,,,,,,,,,,,,,,,5c4602713d08e80001369876,2020-08-08_10h26.36.811,lexical_decision_task_MP,2020.1.3,Win32,60,,m,0,0.52467,,,,,,,,0.52467,0,,,,,,458,NW,UN,33,hocite,BARCET,z,,,,,,0.313888889,-0.353703704,0,0,0,,0,319,319,397,1,
,,,,,,,,,,,,,,,,,,5c4602713d08e80001369876,2020-08-08_10h26.36.811,lexical_decision_task_MP,2020.1.3,Win32,60,,z,1,1.144175,,,,,,,,1.144175,1,,,,,,378,NW,"ID",50,shrile,SHRILE,z,,,,,,0.313888889,-0.353703704,0,0,0,,0,320,320,317,1,
,,,,,,,,,,,,,,,,,,5c4602713d08e80001369876,2020-08-08_10h26.36.811,lexical_decision_task_MP,2020.1.3,Win32,60,,m,0,0.68686,,,,,,,,0.68686,0,,,,,,269,NW,UN,50,wrimsy,ORCHET,z,,,,,,0.313888889,-0.353703704,0,0,0,,0,321,321,448,1,
,,,,,,,,,,,,,,,,,,5c4602713d08e80001369876,2020-08-08_10h26.36.811,lexical_decision_task_MP,2020.1.3,Win32,60,,z,1,0.83511,,,,,,,,0.83511,1,,,,,,290,NW,UN,50,pretch,SPLINO,z,,,,,,0.313888889,-0.353703704,0,0,0,,0,322,322,469,1,
,,,,,,,,,,,,,,,,,,5c4602713d08e80001369876,2020-08-08_10h26.36.811,lexical_decision_task_MP,2020.1.3,Win32,60,,z,1,0.666505,,,,,,,,0.666505,1,,,,,,299,NW,UN,50,yarion,STURCH,z,,,,,,0.313888889,-0.353703704,0,0,0,,0,323,323,478,1,
,,,,,,,,,,,,,,,,,,5c4602713d08e80001369876,2020-08-08_10h26.36.811,lexical_decision_task_MP,2020.1.3,Win32,60,,m,1,0.756075,,,,,,,,0.756075,1,,,,,,232,WORD,UN,33,nature,INJECT,m,,,,,,0.313888889,-0.353703704,0,0,0,,0,324,324,171,1,
,,,,,,,,,,,,,,,,,,5c4602713d08e80001369876,2020-08-08_10h26.36.811,lexical_decision_task_MP,2020.1.3,Win32,60,,m,1,0.5836,,,,,,,,0.5836,1,,,,,,188,WORD,UN,33,censor,SOCIAL,m,,,,,,0.313888889,-0.353703704,0,0,0,,0,325,325,127,1,
,,,,,,,,,,,,,,,,,,5c4602713d08e80001369876,2020-08-08_10h26.36.811,lexical_decision_task_MP,2020.1.3,Win32,60,,m,1,0.788055,,,,,,,,0.788055,1,,,,,,99,WORD,"ID",33,fluent,FLUENT,m,,,,,,0.313888889,-0.353703704,0,0,0,,0,326,326,38,1,
,,,,,,,,,,,,,,,,,,5c4602713d08e80001369876,2020-08-08_10h26.36.811,lexical_decision_task_MP,2020.1.3,Win32,60,,z,1,0.8577,,,,,,,,0.8577,1,,,,,,285,NW,UN,50,reldon,PRUDGE,z,,,,,,0.313888889,-0.353703704,0,0,0,,0,327,327,464,1,
,,,,,,,,,,,,,,,,,,5c4602713d08e80001369876,2020-08-08_10h26.36.811,lexical_decision_task_MP,2020.1.3,Win32,60,,z,1,0.726405,,,,,,,,0.726405,1,,,,,,455,NW,UN,33,broget,TONDLE,z,,,,,,0.313888889,-0.353703704,0,0,0,,0,328,328,394,1,
,,,,,,,,,,,,,,,,,,5c4602713d08e80001369876,2020-08-08_10h26.36.811,lexical_decision_task_MP,2020.1.3,Win32,60,,m,1,0.570315,,,,,,,,0.570315,1,,,,,,135,WORD,"ID",50,import,IMPORT,m,,,,,,0.313888889,-0.353703704,0,0,0,,0,329,329,74,1,
,,,,,,,,,,,,,,,,,,5c4602713d08e80001369876,2020-08-08_10h26.36.811,lexical_decision_task_MP,2020.1.3,Win32,60,,m,1,0.66573,,,,,,,,0.66573,1,,,,,,202,WORD,UN,33,phrase,FACTOR,m,,,,,,0.313888889,-0.353703704,0,0,0,,0,330,330,141,1,
,,,,,,,,,,,,,,,,,,5c4602713d08e80001369876,2020-08-08_10h26.36.811,lexical_decision_task_MP,2020.1.3,Win32,60,,z,1,0.60542,,,,,,,,0.60542,1,,,,,,306,NW,"ID",33,sounge,SOUNGE,z,,,,,,0.313888889,-0.353703704,0,0,0,,0,331,331,245,1,
,,,,,,,,,,,,,,,,,,5c4602713d08e80001369876,2020-08-08_10h26.36.811,lexical_decision_task_MP,2020.1.3,Win32,60,,m,1,0.53016,,,,,,,,0.53016,1,,,,,,143,WORD,"ID",50,reason,REASON,m,,,,,,0.313888889,-0.353703704,0,0,0,,0,332,332,82,1,
,,,,,,,,,,,,,,,,,,5c4602713d08e80001369876,2020-08-08_10h26.36.811,lexical_decision_task_MP,2020.1.3,Win32,60,,m,1,0.606845,,,,,,,,0.606845,1,,,,,,26,WORD,UN,50,butler,SPRINT,m,,,,,,0.313888889,-0.353703704,0,0,0,,0,333,333,205,1,
,,,,,,,,,,,,,,,,,,5c4602713d08e80001369876,2020-08-08_10h26.36.811,lexical_decision_task_MP,2020.1.3,Win32,60,,z,1,0.693305,,,,,,,,0.693305,1,,,,,,429,NW,UN,33,caroey,FUNTLE,z,,,,,,0.313888889,-0.353703704,0,0,0,,0,334,334,368,1,
,,,,,,,,,,,,,,,,,,5c4602713d08e80001369876,2020-08-08_10h26.36.811,lexical_decision_task_MP,2020.1.3,Win32,60,,z,1,0.700275,,,,,,,,0.700275,1,,,,,,369,NW,"ID",50,wronch,WRONCH,z,,,,,,0.313888889,-0.353703704,0,0,0,,0,335,335,308,1,
,,,,,,,,,,,,,,,,,,5c4602713d08e80001369876,2020-08-08_10h26.36.811,lexical_decision_task_MP,2020.1.3,Win32,60,,m,1,0.64558,,,,,,,,0.64558,1,,,,,,194,WORD,UN,33,resign,ABSENT,m,,,,,,0.313888889,-0.353703704,0,0,0,,0,336,336,133,1,
,,,,,,,,,,,,,,,,,,5c4602713d08e80001369876,2020-08-08_10h26.36.811,lexical_decision_task_MP,2020.1.3,Win32,60,,m,1,0.64131,,,,,,,,0.64131,1,,,,,,21,WORD,UN,50,jockey,SIMPLE,m,,,,,,0.313888889,-0.353703704,0,0,0,,0,337,337,200,1,
,,,,,,,,,,,,,,,,,,5c4602713d08e80001369876,2020-08-08_10h26.36.811,lexical_decision_task_MP,2020.1.3,Win32,60,,z,1,0.80761,,,,,,,,0.80761,1,,,,,,293,NW,UN,50,inhort,SWANCE,z,,,,,,0.313888889,-0.353703704,0,0,0,,0,338,338,472,1,
,,,,,,,,,,,,,,,,,,5c4602713d08e80001369876,2020-08-08_10h26.36.811,lexical_decision_task_MP,2020.1.3,Win32,60,,m,1,0.973145,,,,,,,,0.973145,1,,,,,,207,WORD,UN,33,hockey,WREATH,m,,,,,,0.313888889,-0.353703704,0,0,0,,0,339,339,146,1,
,,,,,,,,,,,,,,,,,,5c4602713d08e80001369876,2020-08-08_10h26.36.811,lexical_decision_task_MP,2020.1.3,Win32,60,,m,1,0.65299,,,,,,,,0.65299,1,,,,,,83,WORD,"ID",33,result,RESULT,m,,,,,,0.313888889,-0.353703704,0,0,0,,0,340,340,22,1,
,,,,,,,,,,,,,,,,,,5c4602713d08e80001369876,2020-08-08_10h26.36.811,lexical_decision_task_MP,2020.1.3,Win32,60,,z,1,0.624055,,,,,,,,0.624055,1,,,,,,410,NW,"ID",50,tunory,TUNORY,z,,,,,,0.313888889,-0.353703704,0,0,0,,0,341,341,349,1,
,,,,,,,,,,,,,,,,,,5c4602713d08e80001369876,2020-08-08_10h26.36.811,lexical_decision_task_MP,2020.1.3,Win32,60,,m,1,0.66075,,,,,,,,0.66075,1,,,,,,144,WORD,"ID",50,sponge,SPONGE,m,,,,,,0.313888889,-0.353703704,0,0,0,,0,342,342,83,1,
,,,,,,,,,,,,,,,,,,5c4602713d08e80001369876,2020-08-08_10h26.36.811,lexical_decision_task_MP,2020.1.3,Win32,60,,z,1,0.645815,,,,,,,,0.645815,1,,,,,,478,NW,UN,33,pebric,ACRISE,z,,,,,,0.313888889,-0.353703704,0,0,0,,0,343,343,417,1,
,,,,,,,,,,,,,,,,,,5c4602713d08e80001369876,2020-08-08_10h26.36.811,lexical_decision_task_MP,2020.1.3,Win32,60,,z,1,0.65092,,,,,,,,0.65092,1,,,,,,363,NW,"ID",50,breali,BREALI,z,,,,,,0.313888889,-0.353703704,0,0,0,,0,344,344,302,1,
,,,,,,,,,,,,,,,,,,5c4602713d08e80001369876,2020-08-08_10h26.36.811,lexical_decision_task_MP,2020.1.3,Win32,60,,m,1,0.7575,,,,,,,,0.7575,1,,,,,,39,WORD,UN,50,convey,INSECT,m,,,,,,0.313888889,-0.353703704,0,0,0,,0,345,345,218,1,
,,,,,,,,,,,,,,,,,,5c4602713d08e80001369876,2020-08-08_10h26.36.811,lexical_decision_task_MP,2020.1.3,Win32,60,,z,1,0.623265,,,,,,,,0.623265,1,,,,,,328,NW,"ID",33,broake,BROAKE,z,,,,,,0.313888889,-0.353703704,0,0,0,,0,346,346,267,1,
,,,,,,,,,,,,,,,,,,5c4602713d08e80001369876,2020-08-08_10h26.36.811,lexical_decision_task_MP,2020.1.3,Win32,60,,z,1,0.61959,,,,,,,,0.61959,1,,,,,,428,NW,UN,33,funtle,TANDLY,z,,,,,,0.313888889,-0.353703704,0,0,0,,0,347,347,367,1,
,,,,,,,,,,,,,,,,,,5c4602713d08e80001369876,2020-08-08_10h26.36.811,lexical_decision_task_MP,2020.1.3,Win32,60,,m,1,0.63222,,,,,,,,0.63222,1,,,,,,201,WORD,UN,33,factor,ADMIRE,m,,,,,,0.313888889,-0.353703704,0,0,0,,0,348,348,140,1,
,,,,,,,,,,,,,,,,,,5c4602713d08e80001369876,2020-08-08_10h26.36.811,lexical_decision_task_MP,2020.1.3,Win32,60,,m,1,0.690685,,,,,,,,0.690685,1,,,,,,146,WORD,"ID",50,couple,COUPLE,m,,,,,,0.313888889,-0.353703704,0,0,0,,0,349,349,85,1,
,,,,,,,,,,,,,,,,,,5c4602713d08e80001369876,2020-08-08_10h26.36.811,lexical_decision_task_MP,2020.1.3,Win32,60,,z,1,0.6432,,,,,,,,0.6432,1,,,,,,477,NW,UN,33,lobush,PHOTIE,z,,,,,,0.313888889,-0.353703704,0,0,0,,0,350,350,416,1,
,,,,,,,,,,,,,,,,,,5c4602713d08e80001369876,2020-08-08_10h26.36.811,lexical_decision_task_MP,2020.1.3,Win32,60,,z,1,0.661015,,,,,,,,0.661015,1,,,,,,460,NW,UN,33,justre,MINGAR,z,,,,,,0.313888889,-0.353703704,0,0,0,,0,351,351,399,1,
,,,,,,,,,,,,,,,,,,5c4602713d08e80001369876,2020-08-08_10h26.36.811,lexical_decision_task_MP,2020.1.3,Win32,60,,z,1,0.82548,,,,,,,,0.82548,1,,,,,,387,NW,"ID",50,gronce,GRONCE,z,,,,,,0.313888889,-0.353703704,0,0,0,,0,352,352,326,1,
,,,,,,,,,,,,,,,,,,5c4602713d08e80001369876,2020-08-08_10h26.36.811,lexical_decision_task_MP,2020.1.3,Win32,60,,z,1,0.67926,,,,,,,,0.67926,1,,,,,,356,NW,"ID",33,othnis,OTHNIS,z,,,,,,0.313888889,-0.353703704,0,0,0,,0,353,353,295,1,
,,,,,,,,,,,,,,,,,,5c4602713d08e80001369876,2020-08-08_10h26.36.811,lexical_decision_task_MP,2020.1.3,Win32,60,,m,1,0.633065,,,,,,,,0.633065,1,,,,,,50,WORD,UN,50,hungry,SNATCH,m,,,,,,0.313888889,-0.353703704,0,0,0,,0,354,354,229,1,
,,,,,,,,,,,,,,,,,,5c4602713d08e80001369876,2020-08-08_10h26.36.811,lexical_decision_task_MP,2020.1.3,Win32,60,,m,1,0.66913,,,,,,,,0.66913,1,,,,,,87,WORD,"ID",33,filter,FILTER,m,,,,,,0.313888889,-0.353703704,0,0,0,,0,355,355,26,1,
,,,,,,,,,,,,,,,,,,5c4602713d08e80001369876,2020-08-08_10h26.36.811,lexical_decision_task_MP,2020.1.3,Win32,60,,m,1,0.65393,,,,,,,,0.65393,1,,,,,,34,WORD,UN,50,socket,JUNGLE,m,,,,,,0.313888889,-0.353703704,0,0,0,,0,356,356,213,1,
,,,,,,,,,,,,,,,,,,5c4602713d08e80001369876,2020-08-08_10h26.36.811,lexical_decision_task_MP,2020.1.3,Win32,60,,z,1,0.60124,,,,,,,,0.60124,1,,,,,,337,NW,"ID",33,rejols,REJOLS,z,,,,,,0.313888889,-0.353703704,0,0,0,,0,357,357,276,1,
,,,,,,,,,,,,,,,,,,5c4602713d08e80001369876,2020-08-08_10h26.36.811,lexical_decision_task_MP,2020.1.3,Win32,60,,z,0,0.60847,,,,,,,,0.60847,0,,,,,,58,WORD,UN,50,splint,FOSTER,m,,,,,,0.313888889,-0.353703704,0,0,0,,0,358,358,237,1,
,,,,,,,,,,,,,,,,,,5c4602713d08e80001369876,2020-08-08_10h26.36.811,lexical_decision_task_MP,2020.1.3,Win32,60,,m,1,0.558855,,,,,,,,0.558855,1,,,,,,173,WORD,"ID",50,shower,SHOWER,m,,,,,,0.313888889,-0.353703704,0,0,0,,0,359,359,112,1,
,,,,,,,,,,,,,,,,,,5c4602713d08e80001369876,2020-08-08_10h26.36.811,lexical_decision_task_MP,2020.1.3,Win32,60,,z,1,0.76194,,,,,,,,0.76194,1,,,,,,268,NW,UN,50,orchet,PACKES,z,,,,,,0.313888889,-0.353703704,0,0,0,,0,360,360,447,1,
,,,,,,,,,,,,,,,,,,5c4602713d08e80001369876,2020-08-08_10h26.36.811,lexical_decision_task_MP,2020.1.3,Win32,60,,z,1,0.70067,,,,,,,,0.70067,1,,,,,,327,NW,"ID",33,plenac,PLENAC,z,,,,,,0.313888889,-0.353703704,0,0,0,,0,361,361,266,1,
,,,,,,,,,,,,,,,,,,5c4602713d08e80001369876,2020-08-08_10h26.36.811,lexical_decision_task_MP,2020.1.3,Win32,60,,z,1,0.55235,,,,,,,,0.55235,1,,,,,,412,NW,"ID",50,jiluer,JILUER,z,,,,,,0.313888889,-0.353703704,0,0,0,space,0,362,362,351,1,29.16478
,,,,,,,,,,,,,,,,,,5c4602713d08e80001369876,2020-08-08_10h26.36.811,lexical_decision_task_MP,2020.1.3,Win32,60,,z,1,0.606475,,,,,,,,0.606475,1,,,,,,475,NW,UN,33,josted,PEBRIC,z,,,,,,0.313888889,-0.353703704,0,0,0,,0,363,363,414,1,
,,,,,,,,,,,,,,,,,,5c4602713d08e80001369876,2020-08-08_10h26.36.811,lexical_decision_task_MP,2020.1.3,Win32,60,,z,1,0.538385,,,,,,,,0.538385,1,,,,,,375,NW,"ID",50,yorque,YORQUE,z,,,,,,0.313888889,-0.353703704,0,0,0,,0,364,364,314,1,
,,,,,,,,,,,,,,,,,,5c4602713d08e80001369876,2020-08-08_10h26.36.811,lexical_decision_task_MP,2020.1.3,Win32,60,,z,1,0.616425,,,,,,,,0.616425,1,,,,,,274,NW,UN,50,sleirt,FUMBLO,z,,,,,,0.313888889,-0.353703704,0,0,0,,0,365,365,453,1,
,,,,,,,,,,,,,,,,,,5c4602713d08e80001369876,2020-08-08_10h26.36.811,lexical_decision_task_MP,2020.1.3,Win32,60,,m,1,0.48128,,,,,,,,0.48128,1,,,,,,159,WORD,"ID",50,detail,DETAIL,m,,,,,,0.313888889,-0.353703704,0,0,0,,0,366,366,98,1,
,,,,,,,,,,,,,,,,,,5c4602713d08e80001369876,2020-08-08_10h26.36.811,lexical_decision_task_MP,2020.1.3,Win32,60,,z,1,0.735215,,,,,,,,0.735215,1,,,,,,289,NW,UN,50,splino,STARBY,z,,,,,,0.313888889,-0.353703704,0,0,0,,0,367,367,468,1,
,,,,,,,,,,,,,,,,,,5c4602713d08e80001369876,2020-08-08_10h26.36.811,lexical_decision_task_MP,2020.1.3,Win32,60,,z,1,0.49166,,,,,,,,0.49166,1,,,,,,404,NW,"ID",50,cluirm,CLUIRM,z,,,,,,0.313888889,-0.353703704,0,0,0,,0,368,368,343,1,
,,,,,,,,,,,,,,,,,,5c4602713d08e80001369876,2020-08-08_10h26.36.811,lexical_decision_task_MP,2020.1.3,Win32,60,,z,1,0.501605,,,,,,,,0.501605,1,,,,,,418,NW,"ID",50,suidle,SUIDLE,z,,,,,,0.313888889,-0.353703704,0,0,0,,0,369,369,357,1,
,,,,,,,,,,,,,,,,,,5c4602713d08e80001369876,2020-08-08_10h26.36.811,lexical_decision_task_MP,2020.1.3,Win32,60,,z,1,0.56905,,,,,,,,0.56905,1,,,,,,427,NW,UN,33,tandly,SCHIND,z,,,,,,0.313888889,-0.353703704,0,0,0,,0,370,370,366,1,
,,,,,,,,,,,,,,,,,,5c4602713d08e80001369876,2020-08-08_10h26.36.811,lexical_decision_task_MP,2020.1.3,Win32,60,,z,1,0.54146,,,,,,,,0.54146,1,,,,,,394,NW,"ID",50,spaqux,SPAQUX,z,,,,,,0.313888889,-0.353703704,0,0,0,,0,371,371,333,1,
,,,,,,,,,,,,,,,,,,5c4602713d08e80001369876,2020-08-08_10h26.36.811,lexical_decision_task_MP,2020.1.3,Win32,60,,z,1,0.534735,,,,,,,,0.534735,1,,,,,,267,NW,UN,50,packes,PASINK,z,,,,,,0.313888889,-0.353703704,0,0,0,,0,372,372,446,1,
,,,,,,,,,,,,,,,,,,5c4602713d08e80001369876,2020-08-08_10h26.36.811,lexical_decision_task_MP,2020.1.3,Win32,60,,m,1,0.494945,,,,,,,,0.494945,1,,,,,,109,WORD,"ID",33,wonder,WONDER,m,,,,,,0.313888889,-0.353703704,0,0,0,,0,373,373,48,1,
,,,,,,,,,,,,,,,,,,5c4602713d08e80001369876,2020-08-08_10h26.36.811,lexical_decision_task_MP,2020.1.3,Win32,60,,m,1,0.5432,,,,,,,,0.5432,1,,,,,,211,WORD,UN,33,verify,INFECT,m,,,,,,0.313888889,-0.353703704,0,0,0,,0,374,374,150,1,
,,,,,,,,,,,,,,,,,,5c4602713d08e80001369876,2020-08-08_10h26.36.811,lexical_decision_task_MP,2020.1.3,Win32,60,,m,1,0.653745,,,,,,,,0.653745,1,,,,,,214,WORD,UN,33,phobia,INTAKE,m,,,,,,0.313888889,-0.353703704,0,0,0,,0,375,375,153,1,
,,,,,,,,,,,,,,,,,,5c4602713d08e80001369876,2020-08-08_10h26.36.811,lexical_decision_task_MP,2020.1.3,Win32,60,,z,1,0.64095,,,,,,,,0.64095,1,,,,,,275,NW,UN,50,yarmon,SLEIRT,z,,,,,,0.313888889,-0.353703704,0,0,0,,0,376,376,454,1,
,,,,,,,,,,,,,,,,,,5c4602713d08e80001369876,2020-08-08_10h26.36.811,lexical_decision_task_MP,2020.1.3,Win32,60,,z,1,0.603545,,,,,,,,0.603545,1,,,,,,305,NW,"ID",33,forgle,FORGLE,z,,,,,,0.313888889,-0.353703704,0,0,0,,0,377,377,244,1,
,,,,,,,,,,,,,,,,,,5c4602713d08e80001369876,2020-08-08_10h26.36.811,lexical_decision_task_MP,2020.1.3,Win32,60,,m,1,0.71405,,,,,,,,0.71405,1,,,,,,114,WORD,"ID",33,placid,PLACID,m,,,,,,0.313888889,-0.353703704,0,0,0,,0,378,378,53,1,
,,,,,,,,,,,,,,,,,,5c4602713d08e80001369876,2020-08-08_10h26.36.811,lexical_decision_task_MP,2020.1.3,Win32,60,,m,1,0.741415,,,,,,,,0.741415,1,,,,,,228,WORD,UN,33,kidney,MASTER,m,,,,,,0.313888889,-0.353703704,0,0,0,,0,379,379,167,1,
,,,,,,,,,,,,,,,,,,5c4602713d08e80001369876,2020-08-08_10h26.36.811,lexical_decision_task_MP,2020.1.3,Win32,60,,m,1,0.591885,,,,,,,,0.591885,1,,,,,,28,WORD,UN,50,sketch,COMEDY,m,,,,,,0.313888889,-0.353703704,0,0,0,,0,380,380,207,1,
,,,,,,,,,,,,,,,,,,5c4602713d08e80001369876,2020-08-08_10h26.36.811,lexical_decision_task_MP,2020.1.3,Win32,60,,m,1,0.56087,,,,,,,,0.56087,1,,,,,,62,WORD,"ID",33,region,REGION,m,,,,,,0.313888889,-0.353703704,0,0,0,,0,381,381,1,1,
,,,,,,,,,,,,,,,,,,5c4602713d08e80001369876,2020-08-08_10h26.36.811,lexical_decision_task_MP,2020.1.3,Win32,60,,m,1,0.61911,,,,,,,,0.61911,1,,,,,,233,WORD,UN,33,clumsy,NATURE,m,,,,,,0.313888889,-0.353703704,0,0,0,,0,382,382,172,1,
,,,,,,,,,,,,,,,,,,5c4602713d08e80001369876,2020-08-08_10h26.36.811,lexical_decision_task_MP,2020.1.3,Win32,60,,m,1,0.622365,,,,,,,,0.622365,1,,,,,,128,WORD,"ID",50,senior,SENIOR,m,,,,,,0.313888889,-0.353703704,0,0,0,,0,383,383,67,1,
,,,,,,,,,,,,,,,,,,5c4602713d08e80001369876,2020-08-08_10h26.36.811,lexical_decision_task_MP,2020.1.3,Win32,60,,z,1,0.540795,,,,,,,,0.540795,1,,,,,,368,NW,"ID",50,hornal,HORNAL,z,,,,,,0.313888889,-0.353703704,0,0,0,,0,384,384,307,1,
,,,,,,,,,,,,,,,,,,5c4602713d08e80001369876,2020-08-08_10h26.36.811,lexical_decision_task_MP,2020.1.3,Win32,60,,z,1,0.64268,,,,,,,,0.64268,1,,,,,,474,NW,UN,33,acrise,HABLIN,z,,,,,,0.313888889,-0.353703704,0,0,0,,0,385,385,413,1,
,,,,,,,,,,,,,,,,,,5c4602713d08e80001369876,2020-08-08_10h26.36.811,lexical_decision_task_MP,2020.1.3,Win32,60,,z,1,0.55975,,,,,,,,0.55975,1,,,,,,445,NW,UN,33,runamo,MINKEL,z,,,,,,0.313888889,-0.353703704,0,0,0,,0,386,386,384,1,
,,,,,,,,,,,,,,,,,,5c4602713d08e80001369876,2020-08-08_10h26.36.811,lexical_decision_task_MP,2020.1.3,Win32,60,,z,1,0.55001,,,,,,,,0.55001,1,,,,,,466,NW,UN,33,robuly,HOCITE,z,,,,,,0.313888889,-0.353703704,0,0,0,,0,387,387,405,1,
,,,,,,,,,,,,,,,,,,5c4602713d08e80001369876,2020-08-08_10h26.36.811,lexical_decision_task_MP,2020.1.3,Win32,60,,m,1,0.507875,,,,,,,,0.507875,1,,,,,,108,WORD,"ID",33,reckon,RECKON,m,,,,,,0.313888889,-0.353703704,0,0,0,,0,388,388,47,1,
,,,,,,,,,,,,,,,,,,5c4602713d08e80001369876,2020-08-08_10h26.36.811,lexical_decision_task_MP,2020.1.3,Win32,60,,m,0,0.526805,,,,,,,,0.526805,0,,,,,,420,NW,"ID",50,gushop,GUSHOP,z,,,,,,0.313888889,-0.353703704,0,0,0,,0,389,389,359,1,
,,,,,,,,,,,,,,,,,,5c4602713d08e80001369876,2020-08-08_10h26.36.811,lexical_decision_task_MP,2020.1.3,Win32,60,,z,1,0.82854,,,,,,,,0.82854,1,,,,,,421,NW,UN,33,alcoud,KNISMA,z,,,,,,0.313888889,-0.353703704,0,0,0,,0,390,390,360,1,
,,,,,,,,,,,,,,,,,,5c4602713d08e80001369876,2020-08-08_10h26.36.811,lexical_decision_task_MP,2020.1.3,Win32,60,,z,1,0.798495,,,,,,,,0.798495,1,,,,,,277,NW,UN,50,unighs,PETAIN,z,,,,,,0.313888889,-0.353703704,0,0,0,,0,391,391,456,1,
,,,,,,,,,,,,,,,,,,5c4602713d08e80001369876,2020-08-08_10h26.36.811,lexical_decision_task_MP,2020.1.3,Win32,60,,m,1,0.511915,,,,,,,,0.511915,1,,,,,,7,WORD,UN,50,abrupt,ANCHOR,m,,,,,,0.313888889,-0.353703704,0,0,0,,0,392,392,186,1,
,,,,,,,,,,,,,,,,,,5c4602713d08e80001369876,2020-08-08_10h26.36.811,lexical_decision_task_MP,2020.1.3,Win32,60,,m,1,0.691975,,,,,,,,0.691975,1,,,,,,156,WORD,"ID",50,cradle,CRADLE,m,,,,,,0.313888889,-0.353703704,0,0,0,,0,393,393,95,1,
,,,,,,,,,,,,,,,,,,5c4602713d08e80001369876,2020-08-08_10h26.36.811,lexical_decision_task_MP,2020.1.3,Win32,60,,z,1,0.560465,,,,,,,,0.560465,1,,,,,,406,NW,"ID",50,nouply,NOUPLY,z,,,,,,0.313888889,-0.353703704,0,0,0,,0,394,394,345,1,
,,,,,,,,,,,,,,,,,,5c4602713d08e80001369876,2020-08-08_10h26.36.811,lexical_decision_task_MP,2020.1.3,Win32,60,,z,1,0.647835,,,,,,,,0.647835,1,,,,,,341,NW,"ID",33,myrtie,MYRTIE,z,,,,,,0.313888889,-0.353703704,0,0,0,,0,395,395,280,1,
,,,,,,,,,,,,,,,,,,5c4602713d08e80001369876,2020-08-08_10h26.36.811,lexical_decision_task_MP,2020.1.3,Win32,60,,z,1,0.587575,,,,,,,,0.587575,1,,,,,,454,NW,UN,33,tondle,SCOUGE,z,,,,,,0.313888889,-0.353703704,0,0,0,,0,396,396,393,1,
,,,,,,,,,,,,,,,,,,5c4602713d08e80001369876,2020-08-08_10h26.36.811,lexical_decision_task_MP,2020.1.3,Win32,60,,z,1,0.619645,,,,,,,,0.619645,1,,,,,,339,NW,"ID",33,fachow,FACHOW,z,,,,,,0.313888889,-0.353703704,0,0,0,,0,397,397,278,1,
,,,,,,,,,,,,,,,,,,5c4602713d08e80001369876,2020-08-08_10h26.36.811,lexical_decision_task_MP,2020.1.3,Win32,60,,z,1,0.98789,,,,,,,,0.98789,1,,,,,,318,NW,"ID",33,reagly,REAGLY,z,,,,,,0.313888889,-0.353703704,0,0,0,,0,398,398,257,1,
,,,,,,,,,,,,,,,,,,5c4602713d08e80001369876,2020-08-08_10h26.36.811,lexical_decision_task_MP,2020.1.3,Win32,60,,m,1,0.57258,,,,,,,,0.57258,1,,,,,,22,WORD,UN,50,wealth,JOCKEY,m,,,,,,0.313888889,-0.353703704,0,0,0,,0,399,399,201,1,
,,,,,,,,,,,,,,,,,,5c4602713d08e80001369876,2020-08-08_10h26.36.811,lexical_decision_task_MP,2020.1.3,Win32,60,,z,0,0.950115,,,,,,,,0.950115,0,,,,,,111,WORD,"ID",33,induce,INDUCE,m,,,,,,0.313888889,-0.353703704,0,0,0,,0,400,400,50,1,
,,,,,,,,,,,,,,,,,,5c4602713d08e80001369876,2020-08-08_10h26.36.811,lexical_decision_task_MP,2020.1.3,Win32,60,,m,1,0.64116,,,,,,,,0.64116,1,,,,,,9,WORD,UN,50,bridge,HUSTLE,m,,,,,,0.313888889,-0.353703704,0,0,0,,0,401,401,188,1,
,,,,,,,,,,,,,,,,,,5c4602713d08e80001369876,2020-08-08_10h26.36.811,lexical_decision_task_MP,2020.1.3,Win32,60,,m,0,1.059895,,,,,,,,1.059895,0,,,,,,250,NW,UN,50,lupict,MILTED,z,,,,,,0.313888889,-0.353703704,0,0,0,,0,402,402,429,1,
