counterbalancing_condition,instr_done_keyboard.keys,instr_done_touch.x,instr_done_touch.y,instr_done_touch.leftButton,instr_done_touch.midButton,instr_done_touch.rightButton,instr_done_touch.clicked_name,instruction_pages.thisRepN,instruction_pages.thisTrialN,instruction_pages.thisN,instruction_pages.thisIndex,instruction_pages.ran,pageN,phase,instruct_text,has_image,instruct_image,participant,date,expName,psychopyVersion,OS,frameRate,response.keys,response.corr,touch_resp.x,touch_resp.y,touch_resp.leftButton,touch_resp.midButton,touch_resp.rightButton,touch_resp.time,touch_resp.clicked_name,rt,corr,practice_trials.thisRepN,practice_trials.thisTrialN,practice_trials.thisN,practice_trials.thisIndex,practice_trials.ran,TrialID,StimulusType,Condition,PrimeDuration,Prime,Target,corrAns,end_of_practice_trials_pages.thisRepN,end_of_practice_trials_pages.thisTrialN,end_of_practice_trials_pages.thisN,end_of_practice_trials_pages.thisIndex,end_of_practice_trials_pages.ran,break_done_touch.x,break_done_touch.y,break_done_touch.leftButton,break_done_touch.midButton,break_done_touch.rightButton,break_done_keyboard.keys,trials.thisRepN,trials.thisTrialN,trials.thisN,trials.thisIndex,trials.ran,break_done_touch.clicked_name
1,,0.096296353,-0.412963019,1,0,0,instr_done_button,0,0,0,0,1,1,instructions,"INSTRUCTIONS
At the start of each trial, look at the hash marks (######) in the center of the screen. After a moment, a string of letters will appear. Your task is to indicate if the letter string forms a word or not (i.e., if it is a nonword). For example, AUTHOR is a word while AUTHON is a nonword.

Press the space bar or touch the button below to continue.",0,,5c477c3b302d8a0001c52ee2,2020-08-10_16h13.17.127,lexical_decision_task_MP,2020.1.3,Linux armv7l,60,,,,,,,,,,,,,,,,,,,,,,,,,,,,,,,,,,,,,,,,
,,0.098148176,-0.438888889,1,0,0,instr_done_button,0,1,1,1,1,2,instructions,"If your device has a keyboard, press the 'Z' key for nonwords and the 'M' key for words.





Press the space bar or touch the button below to continue.",1,keyboard-example.gif,5c477c3b302d8a0001c52ee2,2020-08-10_16h13.17.127,lexical_decision_task_MP,2020.1.3,Linux armv7l,60,,,,,,,,,,,,,,,,,,,,,,,,,,,,,,,,,,,,,,,,
,,0.118518575,-0.420370399,1,0,0,instr_done_button,0,2,2,2,1,3,instructions,"If you are using a touchscreen only device, use the buttons on the screen. Do not use the mouse.





Press the space bar or touch the button below to continue.",1,touchscreen-example.gif,5c477c3b302d8a0001c52ee2,2020-08-10_16h13.17.127,lexical_decision_task_MP,2020.1.3,Linux armv7l,60,,,,,,,,,,,,,,,,,,,,,,,,,,,,,,,,,,,,,,,,
,,0.135185242,-0.412963019,1,0,0,instr_done_button,0,3,3,3,1,4,instructions,"It is very important that you respond as quickly and accurately as possible, as each letter string will only be on the screen for two seconds. If you do not respond within this time, the message 'Too slow!' will be displayed and the experiment will progress to the next letter string. The first 20 trials will be practice trials and you will receive feedback on your answers. 

Press the space bar or touch the button below to start the practice trials.",0,,5c477c3b302d8a0001c52ee2,2020-08-10_16h13.17.127,lexical_decision_task_MP,2020.1.3,Linux armv7l,60,,,,,,,,,,,,,,,,,,,,,,,,,,,,,,,,,,,,,,,,
,,,,,,,,,,,,,,,,,,5c477c3b302d8a0001c52ee2,2020-08-10_16h13.17.127,lexical_decision_task_MP,2020.1.3,Linux armv7l,60,,0,0.383333333,-0.322222222,1,0,0,1.2352,button_right,1.2352,0,0,0,0,11,1,1012,NW,"ID",50,rashet,RASHET,z,,,,,,,,,,,,,,,,,
,,,,,,,,,,,,,,,,,,5c477c3b302d8a0001c52ee2,2020-08-10_16h13.17.127,lexical_decision_task_MP,2020.1.3,Linux armv7l,60,,0,-0.490740712,-0.305555556,1,0,0,1.2477,button_left,1.2477,1,0,1,1,15,1,1016,NW,UN,50,mushed,WHAISE,z,,,,,,,,,,,,,,,,,
,,,,,,,,,,,,,,,,,,5c477c3b302d8a0001c52ee2,2020-08-10_16h13.17.127,lexical_decision_task_MP,2020.1.3,Linux armv7l,60,,0,0.392592621,-0.307407464,1,0,0,0.8999,button_right,0.8999,1,0,2,2,1,1,1002,WORD,"ID",33,adjust,ADJUST,m,,,,,,,,,,,,,,,,,
,,,,,,,,,,,,,,,,,,5c477c3b302d8a0001c52ee2,2020-08-10_16h13.17.127,lexical_decision_task_MP,2020.1.3,Linux armv7l,60,,0,-0.492592578,-0.305555556,1,0,0,0.8996,button_left,0.8996,1,0,3,3,9,1,1010,NW,"ID",33,fariny,FARINY,z,,,,,,,,,,,,,,,,,
,,,,,,,,,,,,,,,,,,5c477c3b302d8a0001c52ee2,2020-08-10_16h13.17.127,lexical_decision_task_MP,2020.1.3,Linux armv7l,60,,0,0.425925954,-0.314814843,1,0,0,0.8166,button_right,0.8166,1,0,4,4,4,1,1005,WORD,UN,33,abound,SQUEAK,m,,,,,,,,,,,,,,,,,
,,,,,,,,,,,,,,,,,,5c477c3b302d8a0001c52ee2,2020-08-10_16h13.17.127,lexical_decision_task_MP,2020.1.3,Linux armv7l,60,,0,0.403703732,-0.311111111,1,0,0,0.6645,button_right,0.6645,1,0,5,5,2,1,1003,WORD,"ID",50,almond,ALMOND,m,,,,,,,,,,,,,,,,,
,,,,,,,,,,,,,,,,,,5c477c3b302d8a0001c52ee2,2020-08-10_16h13.17.127,lexical_decision_task_MP,2020.1.3,Linux armv7l,60,,0,0.453703732,-0.318518575,1,0,0,0.5476,button_right,0.5476,1,0,6,6,3,1,1004,WORD,"ID",50,matrix,MATRIX,m,,,,,,,,,,,,,,,,,
,,,,,,,,,,,,,,,,,,5c477c3b302d8a0001c52ee2,2020-08-10_16h13.17.127,lexical_decision_task_MP,2020.1.3,Linux armv7l,60,,0,0.464814843,-0.303703732,1,0,0,0.9848,button_right,0.9848,0,0,7,7,10,1,1011,NW,"ID",50,inlade,INLADE,z,,,,,,,,,,,,,,,,,
,,,,,,,,,,,,,,,,,,5c477c3b302d8a0001c52ee2,2020-08-10_16h13.17.127,lexical_decision_task_MP,2020.1.3,Linux armv7l,60,,0,0.411111111,-0.292592621,1,0,0,1.0035,button_right,1.0035,1,0,8,8,6,1,1007,WORD,UN,50,tropic,ZOMBIE,m,,,,,,,,,,,,,,,,,
,,,,,,,,,,,,,,,,,,5c477c3b302d8a0001c52ee2,2020-08-10_16h13.17.127,lexical_decision_task_MP,2020.1.3,Linux armv7l,60,,0,0.412963019,-0.3,1,0,0,0.6818,button_right,0.6818,1,0,9,9,0,1,1001,WORD,"ID",33,utopia,UTOPIA,m,,,,,,,,,,,,,,,,,
,,,,,,,,,,,,,,,,,,5c477c3b302d8a0001c52ee2,2020-08-10_16h13.17.127,lexical_decision_task_MP,2020.1.3,Linux armv7l,60,,0,0.448148176,-0.296296353,1,0,0,0.6319,button_right,0.6319,1,0,10,10,7,1,1008,WORD,UN,50,hurdle,VOLUME,m,,,,,,,,,,,,,,,,,
,,,,,,,,,,,,,,,,,,5c477c3b302d8a0001c52ee2,2020-08-10_16h13.17.127,lexical_decision_task_MP,2020.1.3,Linux armv7l,60,,0,0.451851908,-0.307407464,1,0,0,0.5989,button_right,0.5989,1,0,11,11,5,1,1006,WORD,UN,33,frenzy,OBTAIN,m,,,,,,,,,,,,,,,,,
,,,,,,,,,,,,,,,,,,5c477c3b302d8a0001c52ee2,2020-08-10_16h13.17.127,lexical_decision_task_MP,2020.1.3,Linux armv7l,60,,0,-0.485185157,-0.312963019,1,0,0,0.8629,button_left,0.8629,1,0,12,12,14,1,1015,NW,UN,50,miaber,THRALE,z,,,,,,,,,,,,,,,,,
,,,,,,,,,,,,,,,,,,5c477c3b302d8a0001c52ee2,2020-08-10_16h13.17.127,lexical_decision_task_MP,2020.1.3,Linux armv7l,60,,0,-0.475925912,-0.312963019,1,0,0,0.9346,button_left,0.9346,1,0,13,13,12,1,1013,NW,UN,33,adveil,SPRINY,z,,,,,,,,,,,,,,,,,
,,,,,,,,,,,,,,,,,,5c477c3b302d8a0001c52ee2,2020-08-10_16h13.17.127,lexical_decision_task_MP,2020.1.3,Linux armv7l,60,,0,-0.466666667,-0.312963019,1,0,0,0.749,button_left,0.749,1,0,14,14,13,1,1014,NW,UN,33,winfer,ROUPET,z,,,,,,,,,,,,,,,,,
,,,,,,,,,,,,,,,,,,5c477c3b302d8a0001c52ee2,2020-08-10_16h13.17.127,lexical_decision_task_MP,2020.1.3,Linux armv7l,60,,0,-0.466666667,-0.325925954,1,0,0,0.7669,button_left,0.7669,1,0,15,15,8,1,1009,NW,"ID",33,aslert,ASLERT,z,,,,,,,,,,,,,,,,,
,,0.114814843,-0.401851908,1,0,0,instr_done_button,,,,,,1,end_of_practice,"You have completed the practice trials. During the experimental trials, you will not receive feedback, but it is very important that you respond as quickly and accurately as possible. 
Before you begin, please ensure that you are in a comfortable and quiet location and will not be disturbed for about 15 minutes, as we cannot use your data if you do not complete all the trials. 
There will be opportunities to take breaks at regular intervals during the experiment. When you are ready to start the experimental trials, please press space or touch the button below.",,,5c477c3b302d8a0001c52ee2,2020-08-10_16h13.17.127,lexical_decision_task_MP,2020.1.3,Linux armv7l,60,,,,,,,,,,,,,,,,,,,,,,,,0,0,0,0,1,,,,,,,,,,,,
,,,,,,,,,,,,,,,,,,5c477c3b302d8a0001c52ee2,2020-08-10_16h13.17.127,lexical_decision_task_MP,2020.1.3,Linux armv7l,60,,0,0.424074131,-0.311111111,1,0,0,0.715,button_right,0.715,1,,,,,,9,WORD,"ID",33,hustle,HUSTLE,m,,,,,,0.424074131,-0.311111111,1,0,0,,0,0,0,8,1,
,,,,,,,,,,,,,,,,,,5c477c3b302d8a0001c52ee2,2020-08-10_16h13.17.127,lexical_decision_task_MP,2020.1.3,Linux armv7l,60,,0,0.388888889,-0.3,1,0,0,0.6665,button_right,0.6665,1,,,,,,216,WORD,UN,50,liquor,BEHALF,m,,,,,,0.388888889,-0.3,1,0,0,,0,1,1,215,1,
,,,,,,,,,,,,,,,,,,5c477c3b302d8a0001c52ee2,2020-08-10_16h13.17.127,lexical_decision_task_MP,2020.1.3,Linux armv7l,60,,0,-0.462962935,-0.292592621,1,0,0,0.7509,button_left,0.7509,0,,,,,,142,WORD,UN,33,orphan,SPRUCE,m,,,,,,-0.462962935,-0.292592621,1,0,0,,0,2,2,141,1,
,,,,,,,,,,,,,,,,,,5c477c3b302d8a0001c52ee2,2020-08-10_16h13.17.127,lexical_decision_task_MP,2020.1.3,Linux armv7l,60,,0,-0.45370369,-0.333333333,1,0,0,0.652,button_left,0.652,1,,,,,,311,NW,"ID",50,sproly,SPROLY,z,,,,,,-0.45370369,-0.333333333,1,0,0,,0,3,3,310,1,
,,,,,,,,,,,,,,,,,,5c477c3b302d8a0001c52ee2,2020-08-10_16h13.17.127,lexical_decision_task_MP,2020.1.3,Linux armv7l,60,,0,0.43148151,-0.316666667,1,0,0,0.7173,button_right,0.7173,1,,,,,,85,WORD,"ID",50,sprawl,SPRAWL,m,,,,,,0.43148151,-0.316666667,1,0,0,,0,4,4,84,1,
,,,,,,,,,,,,,,,,,,5c477c3b302d8a0001c52ee2,2020-08-10_16h13.17.127,lexical_decision_task_MP,2020.1.3,Linux armv7l,60,,0,-0.462962935,-0.314814843,1,0,0,0.6788,button_left,0.6788,1,,,,,,393,NW,UN,33,spaqux,GANOUS,z,,,,,,-0.462962935,-0.314814843,1,0,0,,0,5,5,392,1,
,,,,,,,,,,,,,,,,,,5c477c3b302d8a0001c52ee2,2020-08-10_16h13.17.127,lexical_decision_task_MP,2020.1.3,Linux armv7l,60,,0,-0.455555556,-0.335185242,1,0,0,0.7078,button_left,0.7078,1,,,,,,409,NW,UN,33,tunory,ELOPIA,z,,,,,,-0.455555556,-0.335185242,1,0,0,,0,6,6,408,1,
,,,,,,,,,,,,,,,,,,5c477c3b302d8a0001c52ee2,2020-08-10_16h13.17.127,lexical_decision_task_MP,2020.1.3,Linux armv7l,60,,0,0.438888889,-0.312963019,1,0,0,0.5829,button_right,0.5829,1,,,,,,135,WORD,UN,33,chrome,IMPORT,m,,,,,,0.438888889,-0.312963019,1,0,0,,0,7,7,134,1,
,,,,,,,,,,,,,,,,,,5c477c3b302d8a0001c52ee2,2020-08-10_16h13.17.127,lexical_decision_task_MP,2020.1.3,Linux armv7l,60,,0,0.451851908,-0.312963019,1,0,0,0.5662,button_right,0.5662,1,,,,,,221,WORD,UN,50,hinder,MASCOT,m,,,,,,0.451851908,-0.312963019,1,0,0,,0,8,8,220,1,
,,,,,,,,,,,,,,,,,,5c477c3b302d8a0001c52ee2,2020-08-10_16h13.17.127,lexical_decision_task_MP,2020.1.3,Linux armv7l,60,,0,0.442592621,-0.301851908,1,0,0,0.5497,button_right,0.5497,1,,,,,,67,WORD,"ID",50,policy,POLICY,m,,,,,,0.442592621,-0.301851908,1,0,0,,0,9,9,66,1,
,,,,,,,,,,,,,,,,,,5c477c3b302d8a0001c52ee2,2020-08-10_16h13.17.127,lexical_decision_task_MP,2020.1.3,Linux armv7l,60,,0,-0.470370356,-0.312963019,1,0,0,0.7839,button_left,0.7839,1,,,,,,443,NW,UN,50,jaunce,DORSEX,z,,,,,,-0.470370356,-0.312963019,1,0,0,,0,10,10,442,1,
,,,,,,,,,,,,,,,,,,5c477c3b302d8a0001c52ee2,2020-08-10_16h13.17.127,lexical_decision_task_MP,2020.1.3,Linux armv7l,60,,0,0.455555556,-0.3,1,0,0,0.6998,button_right,0.6998,1,,,,,,25,WORD,"ID",33,domain,DOMAIN,m,,,,,,0.455555556,-0.3,1,0,0,,0,11,11,24,1,
,,,,,,,,,,,,,,,,,,5c477c3b302d8a0001c52ee2,2020-08-10_16h13.17.127,lexical_decision_task_MP,2020.1.3,Linux armv7l,60,,0,-0.435185157,-0.311111111,1,0,0,0.6303,button_left,0.6303,1,,,,,,456,NW,UN,50,wanigh,BROGET,z,,,,,,-0.435185157,-0.311111111,1,0,0,,0,12,12,455,1,
,,,,,,,,,,,,,,,,,,5c477c3b302d8a0001c52ee2,2020-08-10_16h13.17.127,lexical_decision_task_MP,2020.1.3,Linux armv7l,60,,0,-0.425925912,-0.311111111,1,0,0,0.6157,button_left,0.6157,1,,,,,,333,NW,"ID",50,catrie,CATRIE,z,,,,,,-0.425925912,-0.311111111,1,0,0,,0,13,13,332,1,
,,,,,,,,,,,,,,,,,,5c477c3b302d8a0001c52ee2,2020-08-10_16h13.17.127,lexical_decision_task_MP,2020.1.3,Linux armv7l,60,,0,0.440740797,-0.320370399,1,0,0,0.6001,button_right,0.6001,1,,,,,,84,WORD,"ID",50,mortal,MORTAL,m,,,,,,0.440740797,-0.320370399,1,0,0,,0,14,14,83,1,
,,,,,,,,,,,,,,,,,,5c477c3b302d8a0001c52ee2,2020-08-10_16h13.17.127,lexical_decision_task_MP,2020.1.3,Linux armv7l,60,,0,-0.422222222,-0.3,1,0,0,0.6186,button_left,0.6186,1,,,,,,308,NW,"ID",50,psetch,PSETCH,z,,,,,,-0.422222222,-0.3,1,0,0,,0,15,15,307,1,
,,,,,,,,,,,,,,,,,,5c477c3b302d8a0001c52ee2,2020-08-10_16h13.17.127,lexical_decision_task_MP,2020.1.3,Linux armv7l,60,,0,-0.435185157,-0.311111111,1,0,0,0.6162,button_left,0.6162,1,,,,,,341,NW,"ID",50,myrtie,MYRTIE,z,,,,,,-0.435185157,-0.311111111,1,0,0,,0,16,16,340,1,
,,,,,,,,,,,,,,,,,,5c477c3b302d8a0001c52ee2,2020-08-10_16h13.17.127,lexical_decision_task_MP,2020.1.3,Linux armv7l,60,,0,-0.437037023,-0.3,1,0,0,0.6161,button_left,0.6161,1,,,,,,291,NW,"ID",33,pretch,PRETCH,z,,,,,,-0.437037023,-0.3,1,0,0,,0,17,17,290,1,
,,,,,,,,,,,,,,,,,,5c477c3b302d8a0001c52ee2,2020-08-10_16h13.17.127,lexical_decision_task_MP,2020.1.3,Linux armv7l,60,,0,0.448148176,-0.322222222,1,0,0,0.7347,button_right,0.7347,1,,,,,,74,WORD,"ID",50,plaque,PLAQUE,m,,,,,,0.448148176,-0.322222222,1,0,0,,0,18,18,73,1,
,,,,,,,,,,,,,,,,,,5c477c3b302d8a0001c52ee2,2020-08-10_16h13.17.127,lexical_decision_task_MP,2020.1.3,Linux armv7l,60,,0,0.429629686,-0.303703732,1,0,0,0.6294,button_right,0.6294,1,,,,,,68,WORD,"ID",50,fumble,FUMBLE,m,,,,,,0.429629686,-0.303703732,1,0,0,,0,19,19,67,1,
,,,,,,,,,,,,,,,,,,5c477c3b302d8a0001c52ee2,2020-08-10_16h13.17.127,lexical_decision_task_MP,2020.1.3,Linux armv7l,60,,0,0.438888889,-0.327777778,1,0,0,0.5186,button_right,0.5186,1,,,,,,113,WORD,"ID",50,chorus,CHORUS,m,,,,,,0.438888889,-0.327777778,1,0,0,,0,20,20,112,1,
,,,,,,,,,,,,,,,,,,5c477c3b302d8a0001c52ee2,2020-08-10_16h13.17.127,lexical_decision_task_MP,2020.1.3,Linux armv7l,60,,0,0.442592621,-0.311111111,1,0,0,0.4988,button_right,0.4988,1,,,,,,134,WORD,UN,33,import,STAPLE,m,,,,,,0.442592621,-0.311111111,1,0,0,,0,21,21,133,1,
,,,,,,,,,,,,,,,,,,5c477c3b302d8a0001c52ee2,2020-08-10_16h13.17.127,lexical_decision_task_MP,2020.1.3,Linux armv7l,60,,0,0.414814843,-0.312963019,1,0,0,1.0681,button_right,1.0681,0,,,,,,260,NW,"ID",33,unject,UNJECT,z,,,,,,0.414814843,-0.312963019,1,0,0,,0,22,22,259,1,
,,,,,,,,,,,,,,,,,,5c477c3b302d8a0001c52ee2,2020-08-10_16h13.17.127,lexical_decision_task_MP,2020.1.3,Linux armv7l,60,,0,-0.424074046,-0.311111111,1,0,0,0.7998,button_left,0.7998,1,,,,,,320,NW,"ID",50,jockal,JOCKAL,z,,,,,,-0.424074046,-0.311111111,1,0,0,,0,23,23,319,1,
,,,,,,,,,,,,,,,,,,5c477c3b302d8a0001c52ee2,2020-08-10_16h13.17.127,lexical_decision_task_MP,2020.1.3,Linux armv7l,60,,0,-0.45370369,-0.287037065,1,0,0,0.7832,button_left,0.7832,1,,,,,,335,NW,"ID",50,desion,DESION,z,,,,,,-0.45370369,-0.287037065,1,0,0,,0,24,24,334,1,
,,,,,,,,,,,,,,,,,,5c477c3b302d8a0001c52ee2,2020-08-10_16h13.17.127,lexical_decision_task_MP,2020.1.3,Linux armv7l,60,,0,-0.455555556,-0.28148151,1,0,0,0.7346,button_left,0.7346,1,,,,,,264,NW,"ID",33,vackel,VACKEL,z,,,,,,-0.455555556,-0.28148151,1,0,0,,0,25,25,263,1,
,,,,,,,,,,,,,,,,,,5c477c3b302d8a0001c52ee2,2020-08-10_16h13.17.127,lexical_decision_task_MP,2020.1.3,Linux armv7l,60,,0,0.409259288,-0.322222222,1,0,0,0.6937,button_right,0.6937,1,,,,,,112,WORD,"ID",50,breath,BREATH,m,,,,,,0.409259288,-0.322222222,1,0,0,,0,26,26,111,1,
,,,,,,,,,,,,,,,,,,5c477c3b302d8a0001c52ee2,2020-08-10_16h13.17.127,lexical_decision_task_MP,2020.1.3,Linux armv7l,60,,0,0.433333333,-0.314814843,1,0,0,0.6663,button_right,0.6663,1,,,,,,102,WORD,"ID",50,direct,DIRECT,m,,,,,,0.433333333,-0.314814843,1,0,0,,0,27,27,101,1,
,,,,,,,,,,,,,,,,,,5c477c3b302d8a0001c52ee2,2020-08-10_16h13.17.127,lexical_decision_task_MP,2020.1.3,Linux armv7l,60,,0,-0.446296268,-0.3,1,0,0,0.6829,button_left,0.6829,0,,,,,,205,WORD,UN,50,tailor,LOUNGE,m,,,,,,-0.446296268,-0.3,1,0,0,,0,28,28,204,1,
,,,,,,,,,,,,,,,,,,5c477c3b302d8a0001c52ee2,2020-08-10_16h13.17.127,lexical_decision_task_MP,2020.1.3,Linux armv7l,60,,0,0.422222222,-0.312963019,1,0,0,0.7173,button_right,0.7173,1,,,,,,4,WORD,"ID",33,trench,TRENCH,m,,,,,,0.422222222,-0.312963019,1,0,0,,0,29,29,3,1,
,,,,,,,,,,,,,,,,,,5c477c3b302d8a0001c52ee2,2020-08-10_16h13.17.127,lexical_decision_task_MP,2020.1.3,Linux armv7l,60,,0,-0.442592578,-0.283333333,1,0,0,0.6333,button_left,0.6333,1,,,,,,346,NW,"ID",50,saudic,SAUDIC,z,,,,,,-0.442592578,-0.283333333,1,0,0,,0,30,30,345,1,
,,,,,,,,,,,,,,,,,,5c477c3b302d8a0001c52ee2,2020-08-10_16h13.17.127,lexical_decision_task_MP,2020.1.3,Linux armv7l,60,,0,0.420370399,-0.318518575,1,0,0,0.5332,button_right,0.5332,1,,,,,,132,WORD,UN,33,bleach,STRONG,m,,,,,,0.420370399,-0.318518575,1,0,0,,0,31,31,131,1,
,,,,,,,,,,,,,,,,,,5c477c3b302d8a0001c52ee2,2020-08-10_16h13.17.127,lexical_decision_task_MP,2020.1.3,Linux armv7l,60,,0,0.420370399,-0.301851908,1,0,0,0.5279,button_right,0.5279,1,,,,,,62,WORD,"ID",50,region,REGION,m,,,,,,0.420370399,-0.301851908,1,0,0,,0,32,32,61,1,
,,,,,,,,,,,,,,,,,,5c477c3b302d8a0001c52ee2,2020-08-10_16h13.17.127,lexical_decision_task_MP,2020.1.3,Linux armv7l,60,,0,0.418518575,-0.320370399,1,0,0,0.5297,button_right,0.5297,1,,,,,,57,WORD,"ID",33,change,CHANGE,m,,,,,,0.418518575,-0.320370399,1,0,0,,0,33,33,56,1,
,,,,,,,,,,,,,,,,,,5c477c3b302d8a0001c52ee2,2020-08-10_16h13.17.127,lexical_decision_task_MP,2020.1.3,Linux armv7l,60,,0,-0.431481467,-0.298148176,1,0,0,0.8168,button_left,0.8168,1,,,,,,289,NW,"ID",33,starby,STARBY,z,,,,,,-0.431481467,-0.298148176,1,0,0,,0,34,34,288,1,
,,,,,,,,,,,,,,,,,,5c477c3b302d8a0001c52ee2,2020-08-10_16h13.17.127,lexical_decision_task_MP,2020.1.3,Linux armv7l,60,,0,-0.425925912,-0.296296353,1,0,0,0.7202,button_left,0.7202,1,,,,,,266,NW,"ID",33,varmit,VARMIT,z,,,,,,-0.425925912,-0.296296353,1,0,0,,0,35,35,265,1,
,,,,,,,,,,,,,,,,,,5c477c3b302d8a0001c52ee2,2020-08-10_16h13.17.127,lexical_decision_task_MP,2020.1.3,Linux armv7l,60,,0,0.394444444,-0.314814843,1,0,0,0.6687,button_right,0.6687,1,,,,,,15,WORD,"ID",33,amount,AMOUNT,m,,,,,,0.394444444,-0.314814843,1,0,0,,0,36,36,14,1,
,,,,,,,,,,,,,,,,,,5c477c3b302d8a0001c52ee2,2020-08-10_16h13.17.127,lexical_decision_task_MP,2020.1.3,Linux armv7l,60,,0,0.433333333,-0.320370399,1,0,0,0.5356,button_right,0.5356,1,,,,,,65,WORD,"ID",50,symbol,SYMBOL,m,,,,,,0.433333333,-0.320370399,1,0,0,,0,37,37,64,1,
,,,,,,,,,,,,,,,,,,5c477c3b302d8a0001c52ee2,2020-08-10_16h13.17.127,lexical_decision_task_MP,2020.1.3,Linux armv7l,60,,0,0.422222222,-0.3,1,0,0,0.5496,button_right,0.5496,1,,,,,,182,WORD,UN,50,basket,WINTER,m,,,,,,0.422222222,-0.3,1,0,0,,0,38,38,181,1,
,,,,,,,,,,,,,,,,,,5c477c3b302d8a0001c52ee2,2020-08-10_16h13.17.127,lexical_decision_task_MP,2020.1.3,Linux armv7l,60,,0,-0.440740712,-0.288888889,1,0,0,0.6495,button_left,0.6495,1,,,,,,422,NW,UN,50,streld,ALCOUD,z,,,,,,-0.440740712,-0.288888889,1,0,0,,0,39,39,421,1,
,,,,,,,,,,,,,,,,,,5c477c3b302d8a0001c52ee2,2020-08-10_16h13.17.127,lexical_decision_task_MP,2020.1.3,Linux armv7l,60,,0,0.424074131,-0.325925954,1,0,0,0.5828,button_right,0.5828,1,,,,,,53,WORD,"ID",33,police,POLICE,m,,,,,,0.424074131,-0.325925954,1,0,0,,0,40,40,52,1,
,,,,,,,,,,,,,,,,,,5c477c3b302d8a0001c52ee2,2020-08-10_16h13.17.127,lexical_decision_task_MP,2020.1.3,Linux armv7l,60,,0,0.424074131,-0.311111111,1,0,0,0.5159,button_right,0.5159,1,,,,,,228,WORD,UN,50,inject,MASTER,m,,,,,,0.424074131,-0.311111111,1,0,0,,0,41,41,227,1,
,,,,,,,,,,,,,,,,,,5c477c3b302d8a0001c52ee2,2020-08-10_16h13.17.127,lexical_decision_task_MP,2020.1.3,Linux armv7l,60,,0,-0.444444444,-0.287037065,1,0,0,0.717,button_left,0.717,1,,,,,,473,NW,UN,50,hablin,CRIBLE,z,,,,,,-0.444444444,-0.287037065,1,0,0,,0,42,42,472,1,
,,,,,,,,,,,,,,,,,,5c477c3b302d8a0001c52ee2,2020-08-10_16h13.17.127,lexical_decision_task_MP,2020.1.3,Linux armv7l,60,,0,-0.462962935,-0.274074131,1,0,0,0.5836,button_left,0.5836,1,,,,,,394,NW,UN,33,colury,SPAQUX,z,,,,,,-0.462962935,-0.274074131,1,0,0,,0,43,43,393,1,
,,,,,,,,,,,,,,,,,,5c477c3b302d8a0001c52ee2,2020-08-10_16h13.17.127,lexical_decision_task_MP,2020.1.3,Linux armv7l,60,,0,0.440740797,-0.314814843,1,0,0,0.5998,button_right,0.5998,1,,,,,,167,WORD,UN,33,answer,DESIGN,m,,,,,,0.440740797,-0.314814843,1,0,0,,0,44,44,166,1,
,,,,,,,,,,,,,,,,,,5c477c3b302d8a0001c52ee2,2020-08-10_16h13.17.127,lexical_decision_task_MP,2020.1.3,Linux armv7l,60,,0,-0.437037023,-0.283333333,1,0,0,0.6667,button_left,0.6667,1,,,,,,453,NW,UN,50,scouge,BOLVIS,z,,,,,,-0.437037023,-0.283333333,1,0,0,,0,45,45,452,1,
,,,,,,,,,,,,,,,,,,5c477c3b302d8a0001c52ee2,2020-08-10_16h13.17.127,lexical_decision_task_MP,2020.1.3,Linux armv7l,60,,0,0.43148151,-0.311111111,1,0,0,0.6501,button_right,0.6501,1,,,,,,154,WORD,UN,33,lizard,AUTHOR,m,,,,,,0.43148151,-0.311111111,1,0,0,,0,46,46,153,1,
,,,,,,,,,,,,,,,,,,5c477c3b302d8a0001c52ee2,2020-08-10_16h13.17.127,lexical_decision_task_MP,2020.1.3,Linux armv7l,60,,0,0.420370399,-0.296296353,1,0,0,0.6345,button_right,0.6345,1,,,,,,152,WORD,UN,33,behold,ROCKET,m,,,,,,0.420370399,-0.296296353,1,0,0,,0,47,47,151,1,
,,,,,,,,,,,,,,,,,,5c477c3b302d8a0001c52ee2,2020-08-10_16h13.17.127,lexical_decision_task_MP,2020.1.3,Linux armv7l,60,,0,-0.444444444,-0.290740797,1,0,0,0.6498,button_left,0.6498,1,,,,,,403,NW,UN,33,cluirm,BRUATS,z,,,,,,-0.444444444,-0.290740797,1,0,0,,0,48,48,402,1,
,,,,,,,,,,,,,,,,,,5c477c3b302d8a0001c52ee2,2020-08-10_16h13.17.127,lexical_decision_task_MP,2020.1.3,Linux armv7l,60,,0,0.411111111,-0.314814843,1,0,0,0.7328,button_right,0.7328,1,,,,,,36,WORD,"ID",33,vanish,VANISH,m,,,,,,0.411111111,-0.314814843,1,0,0,,0,49,49,35,1,
,,,,,,,,,,,,,,,,,,5c477c3b302d8a0001c52ee2,2020-08-10_16h13.17.127,lexical_decision_task_MP,2020.1.3,Linux armv7l,60,,0,0.414814843,-0.3,1,0,0,0.5994,button_right,0.5994,1,,,,,,78,WORD,"ID",50,column,COLUMN,m,,,,,,0.414814843,-0.3,1,0,0,,0,50,50,77,1,
,,,,,,,,,,,,,,,,,,5c477c3b302d8a0001c52ee2,2020-08-10_16h13.17.127,lexical_decision_task_MP,2020.1.3,Linux armv7l,60,,0,0.416666667,-0.307407464,1,0,0,0.7861,button_right,0.7861,1,,,,,,183,WORD,UN,50,sleazy,MILDEW,m,,,,,,0.416666667,-0.307407464,1,0,0,,0,51,51,182,1,
,,,,,,,,,,,,,,,,,,5c477c3b302d8a0001c52ee2,2020-08-10_16h13.17.127,lexical_decision_task_MP,2020.1.3,Linux armv7l,60,,0,-0.424074046,-0.298148176,1,0,0,0.635,button_left,0.635,1,,,,,,313,NW,"ID",50,paurse,PAURSE,z,,,,,,-0.424074046,-0.298148176,1,0,0,,0,52,52,312,1,
,,,,,,,,,,,,,,,,,,5c477c3b302d8a0001c52ee2,2020-08-10_16h13.17.127,lexical_decision_task_MP,2020.1.3,Linux armv7l,60,,0,-0.440740712,-0.3,1,0,0,0.817,button_left,0.817,1,,,,,,380,NW,UN,33,huniek,CAVORY,z,,,,,,-0.440740712,-0.3,1,0,0,,0,53,53,379,1,
,,,,,,,,,,,,,,,,,,5c477c3b302d8a0001c52ee2,2020-08-10_16h13.17.127,lexical_decision_task_MP,2020.1.3,Linux armv7l,60,,0,0.403703732,-0.3,1,0,0,0.6332,button_right,0.6332,1,,,,,,201,WORD,UN,50,factor,ADMIRE,m,,,,,,0.403703732,-0.3,1,0,0,,0,54,54,200,1,
,,,,,,,,,,,,,,,,,,5c477c3b302d8a0001c52ee2,2020-08-10_16h13.17.127,lexical_decision_task_MP,2020.1.3,Linux armv7l,60,,0,-0.446296268,-0.294444444,1,0,0,0.6843,button_left,0.6843,1,,,,,,374,NW,UN,33,yorque,SLIANT,z,,,,,,-0.446296268,-0.294444444,1,0,0,,0,55,55,373,1,
,,,,,,,,,,,,,,,,,,5c477c3b302d8a0001c52ee2,2020-08-10_16h13.17.127,lexical_decision_task_MP,2020.1.3,Linux armv7l,60,,0,-0.433333333,-0.3,1,0,0,0.6326,button_left,0.6326,1,,,,,,278,NW,"ID",33,unighs,UNIGHS,z,,,,,,-0.433333333,-0.3,1,0,0,,0,56,56,277,1,
,,,,,,,,,,,,,,,,,,5c477c3b302d8a0001c52ee2,2020-08-10_16h13.17.127,lexical_decision_task_MP,2020.1.3,Linux armv7l,60,,0,0.4,-0.3,1,0,0,0.8017,button_right,0.8017,1,,,,,,217,WORD,UN,50,shrink,LIQUOR,m,,,,,,0.4,-0.3,1,0,0,,0,57,57,216,1,
,,,,,,,,,,,,,,,,,,5c477c3b302d8a0001c52ee2,2020-08-10_16h13.17.127,lexical_decision_task_MP,2020.1.3,Linux armv7l,60,,0,-0.425925912,-0.3,1,0,0,0.6998,button_left,0.6998,1,,,,,,293,NW,"ID",33,swance,SWANCE,z,,,,,,-0.425925912,-0.3,1,0,0,,0,58,58,292,1,
,,,,,,,,,,,,,,,,,,5c477c3b302d8a0001c52ee2,2020-08-10_16h13.17.127,lexical_decision_task_MP,2020.1.3,Linux armv7l,60,,0,-0.442592578,-0.290740797,1,0,0,0.7161,button_left,0.7161,1,,,,,,344,NW,"ID",50,scrily,SCRILY,z,,,,,,-0.442592578,-0.290740797,1,0,0,,0,59,59,343,1,
,,,,,,,,,,,,,,,,,,5c477c3b302d8a0001c52ee2,2020-08-10_16h13.17.127,lexical_decision_task_MP,2020.1.3,Linux armv7l,60,,0,-0.416666667,-0.294444444,1,0,0,0.6162,button_left,0.6162,1,,,,,,245,NW,"ID",33,anougs,ANOUGS,z,,,,,,-0.416666667,-0.294444444,1,0,0,,0,60,60,244,1,
,,,,,,,,,,,,,,,,,,5c477c3b302d8a0001c52ee2,2020-08-10_16h13.17.127,lexical_decision_task_MP,2020.1.3,Linux armv7l,60,,0,-0.41851849,-0.296296353,1,0,0,0.5992,button_left,0.5992,1,,,,,,351,NW,"ID",50,tiesch,TIESCH,z,,,,,,-0.41851849,-0.296296353,1,0,0,,0,61,61,350,1,
,,,,,,,,,,,,,,,,,,5c477c3b302d8a0001c52ee2,2020-08-10_16h13.17.127,lexical_decision_task_MP,2020.1.3,Linux armv7l,60,,0,0.390740797,-0.305555556,1,0,0,0.9364,button_right,0.9364,1,,,,,,239,WORD,UN,50,forest,LUMBER,m,,,,,,0.390740797,-0.305555556,1,0,0,,0,62,62,238,1,
,,,,,,,,,,,,,,,,,,5c477c3b302d8a0001c52ee2,2020-08-10_16h13.17.127,lexical_decision_task_MP,2020.1.3,Linux armv7l,60,,0,0.392592621,-0.288888889,1,0,0,0.7682,button_right,0.7682,1,,,,,,44,WORD,"ID",33,danger,DANGER,m,,,,,,0.392592621,-0.288888889,1,0,0,,0,63,63,43,1,
,,,,,,,,,,,,,,,,,,5c477c3b302d8a0001c52ee2,2020-08-10_16h13.17.127,lexical_decision_task_MP,2020.1.3,Linux armv7l,60,,0,0.416666667,-0.3,1,0,0,0.5663,button_right,0.5663,1,,,,,,99,WORD,"ID",50,fluent,FLUENT,m,,,,,,0.416666667,-0.3,1,0,0,,0,64,64,98,1,
,,,,,,,,,,,,,,,,,,5c477c3b302d8a0001c52ee2,2020-08-10_16h13.17.127,lexical_decision_task_MP,2020.1.3,Linux armv7l,60,,0,0.403703732,-0.296296353,1,0,0,0.7342,button_right,0.7342,1,,,,,,166,WORD,UN,33,design,STARCH,m,,,,,,0.403703732,-0.296296353,1,0,0,,0,65,65,165,1,
,,,,,,,,,,,,,,,,,,5c477c3b302d8a0001c52ee2,2020-08-10_16h13.17.127,lexical_decision_task_MP,2020.1.3,Linux armv7l,60,,0,0.411111111,-0.305555556,1,0,0,0.7329,button_right,0.7329,1,,,,,,46,WORD,"ID",33,single,SINGLE,m,,,,,,0.411111111,-0.305555556,1,0,0,,0,66,66,45,1,
,,,,,,,,,,,,,,,,,,5c477c3b302d8a0001c52ee2,2020-08-10_16h13.17.127,lexical_decision_task_MP,2020.1.3,Linux armv7l,60,,0,-0.416666667,-0.314814843,1,0,0,0.918,button_left,0.918,1,,,,,,435,NW,UN,50,frutan,IMPURB,z,,,,,,-0.416666667,-0.314814843,1,0,0,,0,67,67,434,1,
,,,,,,,,,,,,,,,,,,5c477c3b302d8a0001c52ee2,2020-08-10_16h13.17.127,lexical_decision_task_MP,2020.1.3,Linux armv7l,60,,0,0.401851908,-0.294444444,1,0,0,0.6669,button_right,0.6669,1,,,,,,107,WORD,"ID",50,slogan,SLOGAN,m,,,,,,0.401851908,-0.294444444,1,0,0,,0,68,68,106,1,
,,,,,,,,,,,,,,,,,,5c477c3b302d8a0001c52ee2,2020-08-10_16h13.17.127,lexical_decision_task_MP,2020.1.3,Linux armv7l,60,,0,-0.424074046,-0.3,1,0,0,0.6675,button_left,0.6675,1,,,,,,325,NW,"ID",50,thruse,THRUSE,z,,,,,,-0.424074046,-0.3,1,0,0,,0,69,69,324,1,
,,,,,,,,,,,,,,,,,,5c477c3b302d8a0001c52ee2,2020-08-10_16h13.17.127,lexical_decision_task_MP,2020.1.3,Linux armv7l,60,,0,-0.4,-0.296296353,1,0,0,0.7471,button_left,0.7471,1,,,,,,332,NW,"ID",50,vangue,VANGUE,z,,,,,,-0.4,-0.296296353,1,0,0,,0,70,70,331,1,
,,,,,,,,,,,,,,,,,,5c477c3b302d8a0001c52ee2,2020-08-10_16h13.17.127,lexical_decision_task_MP,2020.1.3,Linux armv7l,60,,0,0.405555556,-0.309259288,1,0,0,0.5489,button_right,0.5489,1,,,,,,22,WORD,"ID",33,jockey,JOCKEY,m,,,,,,0.405555556,-0.309259288,1,0,0,,0,71,71,21,1,
,,,,,,,,,,,,,,,,,,5c477c3b302d8a0001c52ee2,2020-08-10_16h13.17.127,lexical_decision_task_MP,2020.1.3,Linux armv7l,60,,0,-0.429629601,-0.298148176,1,0,0,0.6331,button_left,0.6331,1,,,,,,420,NW,UN,33,pauche,GUSHOP,z,,,,,,-0.429629601,-0.298148176,1,0,0,,0,72,72,419,1,
,,,,,,,,,,,,,,,,,,5c477c3b302d8a0001c52ee2,2020-08-10_16h13.17.127,lexical_decision_task_MP,2020.1.3,Linux armv7l,60,,0,0.403703732,-0.303703732,1,0,0,0.6668,button_right,0.6668,1,,,,,,161,WORD,UN,33,candle,PASTOR,m,,,,,,0.403703732,-0.303703732,1,0,0,,0,73,73,160,1,
,,,,,,,,,,,,,,,,,,5c477c3b302d8a0001c52ee2,2020-08-10_16h13.17.127,lexical_decision_task_MP,2020.1.3,Linux armv7l,60,,0,0.412963019,-0.303703732,1,0,0,0.6485,button_right,0.6485,1,,,,,,58,WORD,"ID",33,foster,FOSTER,m,,,,,,0.412963019,-0.303703732,1,0,0,,0,74,74,57,1,
,,,,,,,,,,,,,,,,,,5c477c3b302d8a0001c52ee2,2020-08-10_16h13.17.127,lexical_decision_task_MP,2020.1.3,Linux armv7l,60,,0,0.429629686,-0.3,1,0,0,0.4819,button_right,0.4819,1,,,,,,177,WORD,UN,33,inform,ADVENT,m,,,,,,0.429629686,-0.3,1,0,0,,0,75,75,176,1,
,,,,,,,,,,,,,,,,,,5c477c3b302d8a0001c52ee2,2020-08-10_16h13.17.127,lexical_decision_task_MP,2020.1.3,Linux armv7l,60,,0,0.429629686,-0.298148176,1,0,0,0.5158,button_right,0.5158,1,,,,,,200,WORD,UN,50,admire,BEACON,m,,,,,,0.429629686,-0.298148176,1,0,0,,0,76,76,199,1,
,,,,,,,,,,,,,,,,,,5c477c3b302d8a0001c52ee2,2020-08-10_16h13.17.127,lexical_decision_task_MP,2020.1.3,Linux armv7l,60,,0,-0.442592578,-0.28148151,1,0,0,0.6843,button_left,0.6843,1,,,,,,384,NW,UN,33,veigma,GUESCO,z,,,,,,-0.442592578,-0.28148151,1,0,0,,0,77,77,383,1,
,,,,,,,,,,,,,,,,,,5c477c3b302d8a0001c52ee2,2020-08-10_16h13.17.127,lexical_decision_task_MP,2020.1.3,Linux armv7l,60,,0,-0.442592578,-0.285185242,1,0,0,0.7357,button_left,0.7357,1,,,,,,323,NW,"ID",50,rosail,ROSAIL,z,,,,,,-0.442592578,-0.285185242,1,0,0,,0,78,78,322,1,
,,,,,,,,,,,,,,,,,,5c477c3b302d8a0001c52ee2,2020-08-10_16h13.17.127,lexical_decision_task_MP,2020.1.3,Linux armv7l,60,,0,-0.442592578,-0.279629686,1,0,0,0.6672,button_left,0.6672,1,,,,,,343,NW,"ID",50,aimosy,AIMOSY,z,,,,,,-0.442592578,-0.279629686,1,0,0,,0,79,79,342,1,
,,,,,,,,,,,,,,,,,,5c477c3b302d8a0001c52ee2,2020-08-10_16h13.17.127,lexical_decision_task_MP,2020.1.3,Linux armv7l,60,,0,-0.437037023,-0.266666667,1,0,0,0.6158,button_left,0.6158,1,,,,,,468,NW,UN,50,padifs,WICTOR,z,,,,,,-0.437037023,-0.266666667,1,0,0,,0,80,80,467,1,
,,,,,,,,,,,,,,,,,,5c477c3b302d8a0001c52ee2,2020-08-10_16h13.17.127,lexical_decision_task_MP,2020.1.3,Linux armv7l,60,,0,0.424074131,-0.318518575,1,0,0,0.6698,button_right,0.6698,1,,,,,,136,WORD,UN,33,finger,BLEACH,m,,,,,,0.424074131,-0.318518575,1,0,0,,0,81,81,135,1,
,,,,,,,,,,,,,,,,,,5c477c3b302d8a0001c52ee2,2020-08-10_16h13.17.127,lexical_decision_task_MP,2020.1.3,Linux armv7l,60,,0,-0.444444444,-0.262963019,1,0,0,0.6002,button_left,0.6002,0,,,,,,10,WORD,"ID",33,ethnic,ETHNIC,m,,,,,,-0.444444444,-0.262963019,1,0,0,,0,82,82,9,1,
,,,,,,,,,,,,,,,,,,5c477c3b302d8a0001c52ee2,2020-08-10_16h13.17.127,lexical_decision_task_MP,2020.1.3,Linux armv7l,60,,0,0.405555556,-0.305555556,1,0,0,0.8205,button_right,0.8205,0,,,,,,426,NW,UN,50,frudge,URIVEL,z,,,,,,0.405555556,-0.305555556,1,0,0,,0,83,83,425,1,
,,,,,,,,,,,,,,,,,,5c477c3b302d8a0001c52ee2,2020-08-10_16h13.17.127,lexical_decision_task_MP,2020.1.3,Linux armv7l,60,,0,-0.466666667,-0.25,1,0,0,0.7364,button_left,0.7364,1,,,,,,296,NW,"ID",33,beinch,BEINCH,z,,,,,,-0.466666667,-0.25,1,0,0,,0,84,84,295,1,
,,,,,,,,,,,,,,,,,,5c477c3b302d8a0001c52ee2,2020-08-10_16h13.17.127,lexical_decision_task_MP,2020.1.3,Linux armv7l,60,,0,0.414814843,-0.3,1,0,0,0.5833,button_right,0.5833,1,,,,,,38,WORD,"ID",33,powder,POWDER,m,,,,,,0.414814843,-0.3,1,0,0,,0,85,85,37,1,
,,,,,,,,,,,,,,,,,,5c477c3b302d8a0001c52ee2,2020-08-10_16h13.17.127,lexical_decision_task_MP,2020.1.3,Linux armv7l,60,,0,-0.424074046,-0.288888889,1,0,0,0.7672,button_left,0.7672,1,,,,,,271,NW,"ID",33,aubrid,AUBRID,z,,,,,,-0.424074046,-0.288888889,1,0,0,,0,86,86,270,1,
,,,,,,,,,,,,,,,,,,5c477c3b302d8a0001c52ee2,2020-08-10_16h13.17.127,lexical_decision_task_MP,2020.1.3,Linux armv7l,60,,0,-0.440740712,-0.264814843,1,0,0,0.7667,button_left,0.7667,1,,,,,,316,NW,"ID",50,scregm,SCREGM,z,,,,,,-0.440740712,-0.264814843,1,0,0,,0,87,87,315,1,
,,,,,,,,,,,,,,,,,,5c477c3b302d8a0001c52ee2,2020-08-10_16h13.17.127,lexical_decision_task_MP,2020.1.3,Linux armv7l,60,,0,-0.448148134,-0.275925954,1,0,0,0.6007,button_left,0.6007,1,,,,,,321,NW,"ID",50,miator,MIATOR,z,,,,,,-0.448148134,-0.275925954,1,0,0,,0,88,88,320,1,
,,,,,,,,,,,,,,,,,,5c477c3b302d8a0001c52ee2,2020-08-10_16h13.17.127,lexical_decision_task_MP,2020.1.3,Linux armv7l,60,,0,-0.424074046,-0.259259288,1,0,0,0.6344,button_left,0.6344,1,,,,,,362,NW,UN,33,breali,TIREAU,z,,,,,,-0.424074046,-0.259259288,1,0,0,,0,89,89,361,1,
,,,,,,,,,,,,,,,,,,5c477c3b302d8a0001c52ee2,2020-08-10_16h13.17.127,lexical_decision_task_MP,2020.1.3,Linux armv7l,60,,0,-0.433333333,-0.270370399,1,0,0,0.6847,button_left,0.6847,1,,,,,,265,NW,"ID",33,distar,DISTAR,z,,,,,,-0.433333333,-0.270370399,1,0,0,,0,90,90,264,1,
,,,,,,,,,,,,,,,,,,5c477c3b302d8a0001c52ee2,2020-08-10_16h13.17.127,lexical_decision_task_MP,2020.1.3,Linux armv7l,60,,0,-0.448148134,-0.25,1,0,0,0.6021,button_left,0.6021,1,,,,,,314,NW,"ID",50,sprine,SPRINE,z,,,,,,-0.448148134,-0.25,1,0,0,,0,91,91,313,1,
,,,,,,,,,,,,,,,,,,5c477c3b302d8a0001c52ee2,2020-08-10_16h13.17.127,lexical_decision_task_MP,2020.1.3,Linux armv7l,60,,0,-0.438888889,-0.262963019,1,0,0,0.6334,button_left,0.6334,1,,,,,,254,NW,"ID",33,varosh,VAROSH,z,,,,,,-0.438888889,-0.262963019,1,0,0,,0,92,92,253,1,
,,,,,,,,,,,,,,,,,,5c477c3b302d8a0001c52ee2,2020-08-10_16h13.17.127,lexical_decision_task_MP,2020.1.3,Linux armv7l,60,,0,-0.431481467,-0.264814843,1,0,0,0.6171,button_left,0.6171,1,,,,,,401,NW,UN,33,elopia,MUSTIL,z,,,,,,-0.431481467,-0.264814843,1,0,0,,0,93,93,400,1,
,,,,,,,,,,,,,,,,,,5c477c3b302d8a0001c52ee2,2020-08-10_16h13.17.127,lexical_decision_task_MP,2020.1.3,Linux armv7l,60,,0,-0.437037023,-0.253703732,1,0,0,0.5515,button_left,0.5515,1,,,,,,416,NW,UN,33,earoud,PATHEL,z,,,,,,-0.437037023,-0.253703732,1,0,0,,0,94,94,415,1,
,,,,,,,,,,,,,,,,,,5c477c3b302d8a0001c52ee2,2020-08-10_16h13.17.127,lexical_decision_task_MP,2020.1.3,Linux armv7l,60,,0,0.405555556,-0.307407464,1,0,0,0.6333,button_right,0.6333,1,,,,,,219,WORD,UN,50,voyage,BUCKET,m,,,,,,0.405555556,-0.307407464,1,0,0,,0,95,95,218,1,
,,,,,,,,,,,,,,,,,,5c477c3b302d8a0001c52ee2,2020-08-10_16h13.17.127,lexical_decision_task_MP,2020.1.3,Linux armv7l,60,,0,-0.440740712,-0.262963019,1,0,0,0.6995,button_left,0.6995,1,,,,,,253,NW,"ID",33,resait,RESAIT,z,,,,,,-0.440740712,-0.262963019,1,0,0,,0,96,96,252,1,
,,,,,,,,,,,,,,,,,,5c477c3b302d8a0001c52ee2,2020-08-10_16h13.17.127,lexical_decision_task_MP,2020.1.3,Linux armv7l,60,,0,-0.455555556,-0.257407464,1,0,0,0.8675,button_left,0.8675,1,,,,,,295,NW,"ID",33,gleath,GLEATH,z,,,,,,-0.455555556,-0.257407464,1,0,0,,0,97,97,294,1,
,,,,,,,,,,,,,,,,,,5c477c3b302d8a0001c52ee2,2020-08-10_16h13.17.127,lexical_decision_task_MP,2020.1.3,Linux armv7l,60,,0,0.401851908,-0.318518575,1,0,0,0.6504,button_right,0.6504,1,,,,,,43,WORD,"ID",33,tongue,TONGUE,m,,,,,,0.401851908,-0.318518575,1,0,0,,0,98,98,42,1,
,,,,,,,,,,,,,,,,,,5c477c3b302d8a0001c52ee2,2020-08-10_16h13.17.127,lexical_decision_task_MP,2020.1.3,Linux armv7l,60,,0,-0.512962935,-0.2,1,0,0,1.0198,button_left,1.0198,1,,,,,,359,NW,"ID",50,fonver,FONVER,z,,,,,,-0.490740712,-0.262963019,1,0,0,,0,99,99,358,1,
,,,,,,,,,,,,,,,,,,5c477c3b302d8a0001c52ee2,2020-08-10_16h13.17.127,lexical_decision_task_MP,2020.1.3,Linux armv7l,60,,0,-0.45370369,-0.327777778,1,0,0,0.7515,button_left,0.7515,1,,,,,,417,NW,UN,33,suidle,EAROUD,z,,,,,,-0.45370369,-0.327777778,1,0,0,,0,100,100,416,1,
,,,,,,,,,,,,,,,,,,5c477c3b302d8a0001c52ee2,2020-08-10_16h13.17.127,lexical_decision_task_MP,2020.1.3,Linux armv7l,60,,0,0.451851908,-0.296296353,1,0,0,0.6674,button_right,0.6674,1,,,,,,81,WORD,"ID",50,friend,FRIEND,m,,,,,,0.451851908,-0.296296353,1,0,0,,0,101,101,80,1,
,,,,,,,,,,,,,,,,,,5c477c3b302d8a0001c52ee2,2020-08-10_16h13.17.127,lexical_decision_task_MP,2020.1.3,Linux armv7l,60,,0,0.427777778,-0.3,1,0,0,0.5152,button_right,0.5152,1,,,,,,173,WORD,UN,33,turkey,SHOWER,m,,,,,,0.427777778,-0.3,1,0,0,,0,102,102,172,1,
,,,,,,,,,,,,,,,,,,5c477c3b302d8a0001c52ee2,2020-08-10_16h13.17.127,lexical_decision_task_MP,2020.1.3,Linux armv7l,60,,0,-0.40370369,-0.320370399,1,0,0,0.5993,button_left,0.5993,1,,,,,,463,NW,UN,50,bafent,KISPEL,z,,,,,,-0.40370369,-0.320370399,1,0,0,,0,103,103,462,1,
,,,,,,,,,,,,,,,,,,5c477c3b302d8a0001c52ee2,2020-08-10_16h13.17.127,lexical_decision_task_MP,2020.1.3,Linux armv7l,60,,0,-0.461111111,-0.320370399,1,0,0,0.7036,button_left,0.7036,1,,,,,,370,NW,UN,33,geiloy,SLEACT,z,,,,,,-0.461111111,-0.320370399,1,0,0,,0,104,104,369,1,
,,,,,,,,,,,,,,,,,,5c477c3b302d8a0001c52ee2,2020-08-10_16h13.17.127,lexical_decision_task_MP,2020.1.3,Linux armv7l,60,,0,-0.438888889,-0.316666667,1,0,0,0.5491,button_left,0.5491,1,,,,,,415,NW,UN,33,pathel,HIGSTA,z,,,,,,-0.438888889,-0.316666667,1,0,0,,0,105,105,414,1,
,,,,,,,,,,,,,,,,,,5c477c3b302d8a0001c52ee2,2020-08-10_16h13.17.127,lexical_decision_task_MP,2020.1.3,Linux armv7l,60,,0,-0.494444444,-0.312963019,1,0,0,0.5987,button_left,0.5987,1,,,,,,472,NW,UN,50,crible,CIGNEY,z,,,,,,-0.494444444,-0.312963019,1,0,0,,0,106,106,471,1,
,,,,,,,,,,,,,,,,,,5c477c3b302d8a0001c52ee2,2020-08-10_16h13.17.127,lexical_decision_task_MP,2020.1.3,Linux armv7l,60,,0,-0.440740712,-0.3,1,0,0,0.5143,button_left,0.5143,1,,,,,,309,NW,"ID",50,amiloy,AMILOY,z,,,,,,-0.440740712,-0.3,1,0,0,,0,107,107,308,1,
,,,,,,,,,,,,,,,,,,5c477c3b302d8a0001c52ee2,2020-08-10_16h13.17.127,lexical_decision_task_MP,2020.1.3,Linux armv7l,60,,0,0.405555556,-0.3,1,0,0,0.6834,button_right,0.6834,1,,,,,,155,WORD,UN,33,cradle,LIZARD,m,,,,,,0.405555556,-0.3,1,0,0,,0,108,108,154,1,
,,,,,,,,,,,,,,,,,,5c477c3b302d8a0001c52ee2,2020-08-10_16h13.17.127,lexical_decision_task_MP,2020.1.3,Linux armv7l,60,,0,0.429629686,-0.296296353,1,0,0,0.4819,button_right,0.4819,1,,,,,,93,WORD,"ID",50,public,PUBLIC,m,,,,,,0.429629686,-0.296296353,1,0,0,,0,109,109,92,1,
,,,,,,,,,,,,,,,,,,5c477c3b302d8a0001c52ee2,2020-08-10_16h13.17.127,lexical_decision_task_MP,2020.1.3,Linux armv7l,60,,0,0.427777778,-0.294444444,1,0,0,0.581,button_right,0.581,1,,,,,,73,WORD,"ID",50,source,SOURCE,m,,,,,,0.427777778,-0.294444444,1,0,0,,0,110,110,72,1,
,,,,,,,,,,,,,,,,,,5c477c3b302d8a0001c52ee2,2020-08-10_16h13.17.127,lexical_decision_task_MP,2020.1.3,Linux armv7l,60,,0,-0.388888889,-0.3,1,0,0,0.7157,button_left,0.7157,1,,,,,,287,NW,"ID",33,nymbel,NYMBEL,z,,,,,,-0.388888889,-0.3,1,0,0,,0,111,111,286,1,
,,,,,,,,,,,,,,,,,,5c477c3b302d8a0001c52ee2,2020-08-10_16h13.17.127,lexical_decision_task_MP,2020.1.3,Linux armv7l,60,,0,0.418518575,-0.335185242,1,0,0,0.4992,button_right,0.4992,0,,,,,,371,NW,UN,33,ramily,GEILOY,z,,,,,,0.418518575,-0.335185242,1,0,0,,0,112,112,370,1,
,,,,,,,,,,,,,,,,,,5c477c3b302d8a0001c52ee2,2020-08-10_16h13.17.127,lexical_decision_task_MP,2020.1.3,Linux armv7l,60,,0,-0.414814801,-0.316666667,1,0,0,0.5664,button_left,0.5664,1,,,,,,324,NW,"ID",50,steikh,STEIKH,z,,,,,,-0.414814801,-0.316666667,1,0,0,,0,113,113,323,1,
,,,,,,,,,,,,,,,,,,5c477c3b302d8a0001c52ee2,2020-08-10_16h13.17.127,lexical_decision_task_MP,2020.1.3,Linux armv7l,60,,0,-0.424074046,-0.3,1,0,0,0.7844,button_left,0.7844,1,,,,,,252,NW,"ID",33,stapod,STAPOD,z,,,,,,-0.424074046,-0.3,1,0,0,,0,114,114,251,1,
,,,,,,,,,,,,,,,,,,5c477c3b302d8a0001c52ee2,2020-08-10_16h13.17.127,lexical_decision_task_MP,2020.1.3,Linux armv7l,60,,0,-0.45,-0.312963019,1,0,0,0.8178,button_left,0.8178,0,,,,,,54,WORD,"ID",33,ramble,RAMBLE,m,,,,,,-0.45,-0.312963019,1,0,0,,0,115,115,53,1,
,,,,,,,,,,,,,,,,,,5c477c3b302d8a0001c52ee2,2020-08-10_16h13.17.127,lexical_decision_task_MP,2020.1.3,Linux armv7l,60,,0,0.403703732,-0.307407464,1,0,0,0.797,button_right,0.797,1,,,,,,33,WORD,"ID",33,butler,BUTLER,m,,,,,,0.403703732,-0.307407464,1,0,0,,0,116,116,32,1,
,,,,,,,,,,,,,,,,,,5c477c3b302d8a0001c52ee2,2020-08-10_16h13.17.127,lexical_decision_task_MP,2020.1.3,Linux armv7l,60,,0,0.427777778,-0.312963019,1,0,0,0.6345,button_right,0.6345,1,,,,,,240,WORD,UN,50,glance,FOREST,m,,,,,,0.427777778,-0.312963019,1,0,0,,0,117,117,239,1,
,,,,,,,,,,,,,,,,,,5c477c3b302d8a0001c52ee2,2020-08-10_16h13.17.127,lexical_decision_task_MP,2020.1.3,Linux armv7l,60,,0,-0.411111111,-0.3,1,0,0,0.8002,button_left,0.8002,1,,,,,,282,NW,"ID",33,porlex,PORLEX,z,,,,,,-0.411111111,-0.3,1,0,0,,0,118,118,281,1,
,,,,,,,,,,,,,,,,,,5c477c3b302d8a0001c52ee2,2020-08-10_16h13.17.127,lexical_decision_task_MP,2020.1.3,Linux armv7l,60,,0,0.435185242,-0.3,1,0,0,0.6665,button_right,0.6665,1,,,,,,225,WORD,UN,50,kidney,VULGAR,m,,,,,,0.435185242,-0.3,1,0,0,,0,119,119,224,1,
,,,,,,,,,,,,,,,,,,5c477c3b302d8a0001c52ee2,2020-08-10_16h13.17.127,lexical_decision_task_MP,2020.1.3,Linux armv7l,60,,0,-0.431481467,-0.3,1,0,0,0.7334,button_left,0.7334,1,,,,,,383,NW,UN,33,guesco,AUNGRE,z,,,,,,0.1,-0.398148176,1,0,0,,0,120,120,382,1,break_done_button
,,,,,,,,,,,,,,,,,,5c477c3b302d8a0001c52ee2,2020-08-10_16h13.17.127,lexical_decision_task_MP,2020.1.3,Linux armv7l,60,,0,0.475925954,-0.287037065,1,0,0,0.6506,button_right,0.6506,1,,,,,,202,WORD,UN,50,phrase,FACTOR,m,,,,,,0.475925954,-0.287037065,1,0,0,,0,121,121,201,1,
,,,,,,,,,,,,,,,,,,5c477c3b302d8a0001c52ee2,2020-08-10_16h13.17.127,lexical_decision_task_MP,2020.1.3,Linux armv7l,60,,0,0.396296353,-0.3,1,0,0,0.65,button_right,0.65,1,,,,,,176,WORD,UN,33,advent,STRIFE,m,,,,,,0.396296353,-0.3,1,0,0,,0,122,122,175,1,
,,,,,,,,,,,,,,,,,,5c477c3b302d8a0001c52ee2,2020-08-10_16h13.17.127,lexical_decision_task_MP,2020.1.3,Linux armv7l,60,,0,-0.483333333,-0.298148176,1,0,0,0.6171,button_left,0.6171,1,,,,,,479,NW,UN,50,josted,LOBUSH,z,,,,,,-0.483333333,-0.298148176,1,0,0,,0,123,123,478,1,
,,,,,,,,,,,,,,,,,,5c477c3b302d8a0001c52ee2,2020-08-10_16h13.17.127,lexical_decision_task_MP,2020.1.3,Linux armv7l,60,,0,0.409259288,-0.311111111,1,0,0,0.5664,button_right,0.5664,1,,,,,,204,WORD,UN,50,lounge,BURDEN,m,,,,,,0.409259288,-0.311111111,1,0,0,,0,124,124,203,1,
,,,,,,,,,,,,,,,,,,5c477c3b302d8a0001c52ee2,2020-08-10_16h13.17.127,lexical_decision_task_MP,2020.1.3,Linux armv7l,60,,0,0.440740797,-0.305555556,1,0,0,0.4496,button_right,0.4496,1,,,,,,92,WORD,"ID",50,strand,STRAND,m,,,,,,0.440740797,-0.305555556,1,0,0,,0,125,125,91,1,
,,,,,,,,,,,,,,,,,,5c477c3b302d8a0001c52ee2,2020-08-10_16h13.17.127,lexical_decision_task_MP,2020.1.3,Linux armv7l,60,,0,-0.487037023,-0.320370399,1,0,0,0.6199,button_left,0.6199,1,,,,,,340,NW,"ID",50,fiatch,FIATCH,z,,,,,,-0.487037023,-0.320370399,1,0,0,,0,126,126,339,1,
,,,,,,,,,,,,,,,,,,5c477c3b302d8a0001c52ee2,2020-08-10_16h13.17.127,lexical_decision_task_MP,2020.1.3,Linux armv7l,60,,0,-0.45370369,-0.312963019,1,0,0,0.7006,button_left,0.7006,1,,,,,,319,NW,"ID",50,zomber,ZOMBER,z,,,,,,-0.45370369,-0.312963019,1,0,0,,0,127,127,318,1,
,,,,,,,,,,,,,,,,,,5c477c3b302d8a0001c52ee2,2020-08-10_16h13.17.127,lexical_decision_task_MP,2020.1.3,Linux armv7l,60,,0,-0.433333333,-0.320370399,1,0,0,0.5506,button_left,0.5506,1,,,,,,274,NW,"ID",33,fumblo,FUMBLO,z,,,,,,-0.433333333,-0.320370399,1,0,0,,0,128,128,273,1,
,,,,,,,,,,,,,,,,,,5c477c3b302d8a0001c52ee2,2020-08-10_16h13.17.127,lexical_decision_task_MP,2020.1.3,Linux armv7l,60,,0,0.444444444,-0.318518575,1,0,0,0.6142,button_right,0.6142,1,,,,,,66,WORD,"ID",50,gospel,GOSPEL,m,,,,,,0.444444444,-0.318518575,1,0,0,,0,129,129,65,1,
,,,,,,,,,,,,,,,,,,5c477c3b302d8a0001c52ee2,2020-08-10_16h13.17.127,lexical_decision_task_MP,2020.1.3,Linux armv7l,60,,0,0.427777778,-0.296296353,1,0,0,0.5333,button_right,0.5333,1,,,,,,103,WORD,"ID",50,bounce,BOUNCE,m,,,,,,0.427777778,-0.296296353,1,0,0,,0,130,130,102,1,
,,,,,,,,,,,,,,,,,,5c477c3b302d8a0001c52ee2,2020-08-10_16h13.17.127,lexical_decision_task_MP,2020.1.3,Linux armv7l,60,,0,0.457407464,-0.325925954,1,0,0,0.5493,button_right,0.5493,0,,,,,,454,NW,UN,50,tondle,SCOUGE,z,,,,,,0.457407464,-0.325925954,1,0,0,,0,131,131,453,1,
,,,,,,,,,,,,,,,,,,5c477c3b302d8a0001c52ee2,2020-08-10_16h13.17.127,lexical_decision_task_MP,2020.1.3,Linux armv7l,60,,0,0.455555556,-0.316666667,1,0,0,0.497,button_right,0.497,1,,,,,,6,WORD,"ID",33,bundle,BUNDLE,m,,,,,,0.455555556,-0.316666667,1,0,0,,0,132,132,5,1,
,,,,,,,,,,,,,,,,,,5c477c3b302d8a0001c52ee2,2020-08-10_16h13.17.127,lexical_decision_task_MP,2020.1.3,Linux armv7l,60,,0,0.444444444,-0.327777778,1,0,0,0.4995,button_right,0.4995,1,,,,,,26,WORD,"ID",33,sprint,SPRINT,m,,,,,,0.444444444,-0.327777778,1,0,0,,0,133,133,25,1,
,,,,,,,,,,,,,,,,,,5c477c3b302d8a0001c52ee2,2020-08-10_16h13.17.127,lexical_decision_task_MP,2020.1.3,Linux armv7l,60,,0,-0.437037023,-0.320370399,1,0,0,0.636,button_left,0.636,1,,,,,,330,NW,"ID",50,kensom,KENSOM,z,,,,,,-0.437037023,-0.320370399,1,0,0,,0,134,134,329,1,
,,,,,,,,,,,,,,,,,,5c477c3b302d8a0001c52ee2,2020-08-10_16h13.17.127,lexical_decision_task_MP,2020.1.3,Linux armv7l,60,,0,-0.424074046,-0.312963019,1,0,0,0.5514,button_left,0.5514,1,,,,,,414,NW,UN,33,higsta,SERBOL,z,,,,,,-0.424074046,-0.312963019,1,0,0,,0,135,135,413,1,
,,,,,,,,,,,,,,,,,,5c477c3b302d8a0001c52ee2,2020-08-10_16h13.17.127,lexical_decision_task_MP,2020.1.3,Linux armv7l,60,,0,-0.424074046,-0.318518575,1,0,0,0.6173,button_left,0.6173,1,,,,,,369,NW,UN,33,sleact,WRONCH,z,,,,,,-0.424074046,-0.318518575,1,0,0,,0,136,136,368,1,
,,,,,,,,,,,,,,,,,,5c477c3b302d8a0001c52ee2,2020-08-10_16h13.17.127,lexical_decision_task_MP,2020.1.3,Linux armv7l,60,,0,-0.429629601,-0.316666667,1,0,0,0.5686,button_left,0.5686,1,,,,,,276,NW,"ID",33,yarmon,YARMON,z,,,,,,-0.429629601,-0.316666667,1,0,0,,0,137,137,275,1,
,,,,,,,,,,,,,,,,,,5c477c3b302d8a0001c52ee2,2020-08-10_16h13.17.127,lexical_decision_task_MP,2020.1.3,Linux armv7l,60,,0,0.35,-0.259259288,1,0,0,0.8362,button_right,0.8362,1,,,,,,39,WORD,"ID",33,insect,INSECT,m,,,,,,0.35,-0.259259288,1,0,0,,0,138,138,38,1,
,,,,,,,,,,,,,,,,,,5c477c3b302d8a0001c52ee2,2020-08-10_16h13.17.127,lexical_decision_task_MP,2020.1.3,Linux armv7l,60,,0,0.398148176,-0.307407464,1,0,0,0.7504,button_right,0.7504,1,,,,,,94,WORD,"ID",50,travel,TRAVEL,m,,,,,,0.398148176,-0.307407464,1,0,0,,0,139,139,93,1,
,,,,,,,,,,,,,,,,,,5c477c3b302d8a0001c52ee2,2020-08-10_16h13.17.127,lexical_decision_task_MP,2020.1.3,Linux armv7l,60,,0,-0.407407379,-0.264814843,1,0,0,0.6836,button_left,0.6836,1,,,,,,430,NW,UN,50,funtle,CAROEY,z,,,,,,-0.407407379,-0.264814843,1,0,0,,0,140,140,429,1,
,,,,,,,,,,,,,,,,,,5c477c3b302d8a0001c52ee2,2020-08-10_16h13.17.127,lexical_decision_task_MP,2020.1.3,Linux armv7l,60,,0,0.377777778,-0.35,1,0,0,0.6854,button_right,0.6854,1,,,,,,79,WORD,"ID",50,theory,THEORY,m,,,,,,0.377777778,-0.35,1,0,0,,0,141,141,78,1,
,,,,,,,,,,,,,,,,,,5c477c3b302d8a0001c52ee2,2020-08-10_16h13.17.127,lexical_decision_task_MP,2020.1.3,Linux armv7l,60,,0,0.379629686,-0.305555556,1,0,0,1.0684,button_right,1.0684,0,,,,,,248,NW,"ID",33,strole,STROLE,z,,,,,,0.379629686,-0.305555556,1,0,0,,0,142,142,247,1,
,,,,,,,,,,,,,,,,,,5c477c3b302d8a0001c52ee2,2020-08-10_16h13.17.127,lexical_decision_task_MP,2020.1.3,Linux armv7l,60,,0,-0.340740712,-0.251851908,1,0,0,1.521,button_left,1.521,1,,,,,,438,NW,UN,50,limpor,BAITCH,z,,,,,,-0.340740712,-0.251851908,1,0,0,,0,143,143,437,1,
,,,,,,,,,,,,,,,,,,5c477c3b302d8a0001c52ee2,2020-08-10_16h13.17.127,lexical_decision_task_MP,2020.1.3,Linux armv7l,60,,0,0.361111111,-0.312963019,1,0,0,0.6475,button_right,0.6475,1,,,,,,157,WORD,UN,33,island,DRAGON,m,,,,,,0.361111111,-0.312963019,1,0,0,,0,144,144,156,1,
,,,,,,,,,,,,,,,,,,5c477c3b302d8a0001c52ee2,2020-08-10_16h13.17.127,lexical_decision_task_MP,2020.1.3,Linux armv7l,60,,0,-0.337037023,-0.201851866,1,0,0,0.7835,button_left,0.7835,1,,,,,,391,NW,UN,33,rouncy,THELDY,z,,,,,,-0.337037023,-0.201851866,1,0,0,,0,145,145,390,1,
,,,,,,,,,,,,,,,,,,5c477c3b302d8a0001c52ee2,2020-08-10_16h13.17.127,lexical_decision_task_MP,2020.1.3,Linux armv7l,60,,0,-0.390740712,-0.311111111,1,0,0,0.8346,button_left,0.8346,1,,,,,,446,NW,UN,50,gircue,RUNAMO,z,,,,,,-0.390740712,-0.311111111,1,0,0,,0,146,146,445,1,
,,,,,,,,,,,,,,,,,,5c477c3b302d8a0001c52ee2,2020-08-10_16h13.17.127,lexical_decision_task_MP,2020.1.3,Linux armv7l,60,,0,-0.364814801,-0.344444444,1,0,0,0.5673,button_left,0.5673,1,,,,,,402,NW,UN,33,bruats,SYNTIC,z,,,,,,-0.364814801,-0.344444444,1,0,0,,0,147,147,401,1,
,,,,,,,,,,,,,,,,,,5c477c3b302d8a0001c52ee2,2020-08-10_16h13.17.127,lexical_decision_task_MP,2020.1.3,Linux armv7l,60,,0,-0.35370369,-0.33148151,1,0,0,0.7332,button_left,0.7332,1,,,,,,366,NW,UN,33,slique,TOSHEL,z,,,,,,-0.35370369,-0.33148151,1,0,0,,0,148,148,365,1,
,,,,,,,,,,,,,,,,,,5c477c3b302d8a0001c52ee2,2020-08-10_16h13.17.127,lexical_decision_task_MP,2020.1.3,Linux armv7l,60,,0,-0.385185157,-0.324074131,1,0,0,0.6834,button_left,0.6834,1,,,,,,408,NW,UN,33,flumni,HURNIA,z,,,,,,-0.385185157,-0.324074131,1,0,0,,0,149,149,407,1,
,,,,,,,,,,,,,,,,,,5c477c3b302d8a0001c52ee2,2020-08-10_16h13.17.127,lexical_decision_task_MP,2020.1.3,Linux armv7l,60,,0,0.294444444,-0.301851908,1,0,0,0.7831,button_right,0.7831,1,,,,,,212,WORD,UN,50,squeal,VERIFY,m,,,,,,0.294444444,-0.301851908,1,0,0,,0,150,150,211,1,
,,,,,,,,,,,,,,,,,,5c477c3b302d8a0001c52ee2,2020-08-10_16h13.17.127,lexical_decision_task_MP,2020.1.3,Linux armv7l,60,,0,-0.342592578,-0.3,1,0,0,0.768,button_left,0.768,1,,,,,,427,NW,UN,50,tandly,SCHIND,z,,,,,,-0.342592578,-0.3,1,0,0,,0,151,151,426,1,
,,,,,,,,,,,,,,,,,,5c477c3b302d8a0001c52ee2,2020-08-10_16h13.17.127,lexical_decision_task_MP,2020.1.3,Linux armv7l,60,,0,-0.398148134,-0.301851908,1,0,0,0.6842,button_left,0.6842,1,,,,,,386,NW,UN,33,gronce,ANCUST,z,,,,,,-0.398148134,-0.301851908,1,0,0,,0,152,152,385,1,
,,,,,,,,,,,,,,,,,,5c477c3b302d8a0001c52ee2,2020-08-10_16h13.17.127,lexical_decision_task_MP,2020.1.3,Linux armv7l,60,,0,0.412963019,-0.344444444,1,0,0,0.566,button_right,0.566,1,,,,,,105,WORD,"ID",50,number,NUMBER,m,,,,,,0.412963019,-0.344444444,1,0,0,,0,153,153,104,1,
,,,,,,,,,,,,,,,,,,5c477c3b302d8a0001c52ee2,2020-08-10_16h13.17.127,lexical_decision_task_MP,2020.1.3,Linux armv7l,60,,0,0.470370399,-0.33148151,1,0,0,0.7673,button_right,0.7673,1,,,,,,45,WORD,"ID",33,clergy,CLERGY,m,,,,,,0.470370399,-0.33148151,1,0,0,,0,154,154,44,1,
,,,,,,,,,,,,,,,,,,5c477c3b302d8a0001c52ee2,2020-08-10_16h13.17.127,lexical_decision_task_MP,2020.1.3,Linux armv7l,60,,0,0.472222222,-0.33148151,1,0,0,0.5831,button_right,0.5831,1,,,,,,27,WORD,"ID",33,scream,SCREAM,m,,,,,,0.472222222,-0.33148151,1,0,0,,0,155,155,26,1,
,,,,,,,,,,,,,,,,,,5c477c3b302d8a0001c52ee2,2020-08-10_16h13.17.127,lexical_decision_task_MP,2020.1.3,Linux armv7l,60,,0,-0.407407379,-0.322222222,1,0,0,0.6512,button_left,0.6512,1,,,,,,241,NW,"ID",33,smenco,SMENCO,z,,,,,,-0.407407379,-0.322222222,1,0,0,,0,156,156,240,1,
,,,,,,,,,,,,,,,,,,5c477c3b302d8a0001c52ee2,2020-08-10_16h13.17.127,lexical_decision_task_MP,2020.1.3,Linux armv7l,60,,0,0.485185242,-0.346296353,1,0,0,0.6524,button_right,0.6524,1,,,,,,234,WORD,UN,50,lumber,CLUMSY,m,,,,,,0.485185242,-0.346296353,1,0,0,,0,157,157,233,1,
,,,,,,,,,,,,,,,,,,5c477c3b302d8a0001c52ee2,2020-08-10_16h13.17.127,lexical_decision_task_MP,2020.1.3,Linux armv7l,60,,0,-0.396296268,-0.348148176,1,0,0,0.7336,button_left,0.7336,1,,,,,,396,NW,UN,33,camble,FLENGY,z,,,,,,-0.396296268,-0.348148176,1,0,0,,0,158,158,395,1,
,,,,,,,,,,,,,,,,,,5c477c3b302d8a0001c52ee2,2020-08-10_16h13.17.127,lexical_decision_task_MP,2020.1.3,Linux armv7l,60,,0,-0.405555556,-0.322222222,1,0,0,0.7179,button_left,0.7179,1,,,,,,439,NW,UN,50,saride,LIMPOR,z,,,,,,-0.405555556,-0.322222222,1,0,0,,0,159,159,438,1,
,,,,,,,,,,,,,,,,,,5c477c3b302d8a0001c52ee2,2020-08-10_16h13.17.127,lexical_decision_task_MP,2020.1.3,Linux armv7l,60,,0,-0.396296268,-0.3,1,0,0,0.8839,button_left,0.8839,1,,,,,,399,NW,UN,33,wearox,FOURET,z,,,,,,-0.396296268,-0.3,1,0,0,,0,160,160,398,1,
,,,,,,,,,,,,,,,,,,5c477c3b302d8a0001c52ee2,2020-08-10_16h13.17.127,lexical_decision_task_MP,2020.1.3,Linux armv7l,60,,0,-0.396296268,-0.305555556,1,0,0,0.6345,button_left,0.6345,1,,,,,,339,NW,"ID",50,fachow,FACHOW,z,,,,,,-0.396296268,-0.305555556,1,0,0,,0,161,161,338,1,
,,,,,,,,,,,,,,,,,,5c477c3b302d8a0001c52ee2,2020-08-10_16h13.17.127,lexical_decision_task_MP,2020.1.3,Linux armv7l,60,,0,-0.401851824,-0.287037065,1,0,0,0.6839,button_left,0.6839,1,,,,,,423,NW,UN,50,praile,STRELD,z,,,,,,-0.401851824,-0.287037065,1,0,0,,0,162,162,422,1,
,,,,,,,,,,,,,,,,,,5c477c3b302d8a0001c52ee2,2020-08-10_16h13.17.127,lexical_decision_task_MP,2020.1.3,Linux armv7l,60,,0,0.475925954,-0.35,1,0,0,0.8179,button_right,0.8179,1,,,,,,223,WORD,UN,50,period,KIDNEY,m,,,,,,0.475925954,-0.35,1,0,0,,0,163,163,222,1,
,,,,,,,,,,,,,,,,,,5c477c3b302d8a0001c52ee2,2020-08-10_16h13.17.127,lexical_decision_task_MP,2020.1.3,Linux armv7l,60,,0,0.487037065,-0.333333333,1,0,0,0.5334,button_right,0.5334,1,,,,,,51,WORD,"ID",33,hungry,HUNGRY,m,,,,,,0.487037065,-0.333333333,1,0,0,,0,164,164,50,1,
,,,,,,,,,,,,,,,,,,5c477c3b302d8a0001c52ee2,2020-08-10_16h13.17.127,lexical_decision_task_MP,2020.1.3,Linux armv7l,60,,0,-0.398148134,-0.296296353,1,0,0,0.7342,button_left,0.7342,1,,,,,,301,NW,"ID",50,fainch,FAINCH,z,,,,,,-0.398148134,-0.296296353,1,0,0,,0,165,165,300,1,
,,,,,,,,,,,,,,,,,,5c477c3b302d8a0001c52ee2,2020-08-10_16h13.17.127,lexical_decision_task_MP,2020.1.3,Linux armv7l,60,,0,0.485185242,-0.312963019,1,0,0,0.6452,button_right,0.6452,1,,,,,,76,WORD,"ID",50,exotic,EXOTIC,m,,,,,,0.485185242,-0.312963019,1,0,0,,0,166,166,75,1,
,,,,,,,,,,,,,,,,,,5c477c3b302d8a0001c52ee2,2020-08-10_16h13.17.127,lexical_decision_task_MP,2020.1.3,Linux armv7l,60,,0,0.488888889,-0.33148151,1,0,0,0.9505,button_right,0.9505,0,,,,,,444,NW,UN,50,minkel,JAUNCE,z,,,,,,0.488888889,-0.33148151,1,0,0,,0,167,167,443,1,
,,,,,,,,,,,,,,,,,,5c477c3b302d8a0001c52ee2,2020-08-10_16h13.17.127,lexical_decision_task_MP,2020.1.3,Linux armv7l,60,,0,-0.411111111,-0.283333333,1,0,0,0.717,button_left,0.717,1,,,,,,331,NW,"ID",50,gilfew,GILFEW,z,,,,,,-0.411111111,-0.283333333,1,0,0,,0,168,168,330,1,
,,,,,,,,,,,,,,,,,,5c477c3b302d8a0001c52ee2,2020-08-10_16h13.17.127,lexical_decision_task_MP,2020.1.3,Linux armv7l,60,,0,0.470370399,-0.314814843,1,0,0,0.751,button_right,0.751,1,,,,,,111,WORD,"ID",50,induce,INDUCE,m,,,,,,0.470370399,-0.314814843,1,0,0,,0,169,169,110,1,
,,,,,,,,,,,,,,,,,,5c477c3b302d8a0001c52ee2,2020-08-10_16h13.17.127,lexical_decision_task_MP,2020.1.3,Linux armv7l,60,,0,0.462963019,-0.338888889,1,0,0,0.5516,button_right,0.5516,1,,,,,,118,WORD,"ID",50,flight,FLIGHT,m,,,,,,0.462963019,-0.338888889,1,0,0,,0,170,170,117,1,
,,,,,,,,,,,,,,,,,,5c477c3b302d8a0001c52ee2,2020-08-10_16h13.17.127,lexical_decision_task_MP,2020.1.3,Linux armv7l,60,,0,0.470370399,-0.337037065,1,0,0,0.7362,button_right,0.7362,0,,,,,,297,NW,"ID",33,fertic,FERTIC,z,,,,,,0.470370399,-0.337037065,1,0,0,,0,171,171,296,1,
,,,,,,,,,,,,,,,,,,5c477c3b302d8a0001c52ee2,2020-08-10_16h13.17.127,lexical_decision_task_MP,2020.1.3,Linux armv7l,60,,0,-0.411111111,-0.288888889,1,0,0,0.6334,button_left,0.6334,1,,,,,,272,NW,"ID",33,damilt,DAMILT,z,,,,,,-0.411111111,-0.288888889,1,0,0,,0,172,172,271,1,
,,,,,,,,,,,,,,,,,,5c477c3b302d8a0001c52ee2,2020-08-10_16h13.17.127,lexical_decision_task_MP,2020.1.3,Linux armv7l,60,,0,-0.409259245,-0.290740797,1,0,0,0.7006,button_left,0.7006,1,,,,,,381,NW,UN,33,sarley,HUNIEK,z,,,,,,-0.409259245,-0.290740797,1,0,0,,0,173,173,380,1,
,,,,,,,,,,,,,,,,,,5c477c3b302d8a0001c52ee2,2020-08-10_16h13.17.127,lexical_decision_task_MP,2020.1.3,Linux armv7l,60,,0,0.475925954,-0.338888889,1,0,0,0.7995,button_right,0.7995,0,,,,,,437,NW,UN,50,baitch,SNAPEL,z,,,,,,0.475925954,-0.338888889,1,0,0,,0,174,174,436,1,
,,,,,,,,,,,,,,,,,,5c477c3b302d8a0001c52ee2,2020-08-10_16h13.17.127,lexical_decision_task_MP,2020.1.3,Linux armv7l,60,,0,-0.414814801,-0.266666667,1,0,0,0.7184,button_left,0.7184,1,,,,,,275,NW,"ID",33,sleirt,SLEIRT,z,,,,,,-0.414814801,-0.266666667,1,0,0,,0,175,175,274,1,
,,,,,,,,,,,,,,,,,,5c477c3b302d8a0001c52ee2,2020-08-10_16h13.17.127,lexical_decision_task_MP,2020.1.3,Linux armv7l,60,,0,-0.405555556,-0.283333333,1,0,0,0.9522,button_left,0.9522,1,,,,,,429,NW,UN,50,caroey,FUNTLE,z,,,,,,-0.405555556,-0.283333333,1,0,0,,0,176,176,428,1,
,,,,,,,,,,,,,,,,,,5c477c3b302d8a0001c52ee2,2020-08-10_16h13.17.127,lexical_decision_task_MP,2020.1.3,Linux armv7l,60,,0,0.483333333,-0.35,1,0,0,0.7001,button_right,0.7001,1,,,,,,121,WORD,UN,33,linger,THRIVE,m,,,,,,0.483333333,-0.35,1,0,0,,0,177,177,120,1,
,,,,,,,,,,,,,,,,,,5c477c3b302d8a0001c52ee2,2020-08-10_16h13.17.127,lexical_decision_task_MP,2020.1.3,Linux armv7l,60,,0,0.477777778,-0.33148151,1,0,0,0.6165,button_right,0.6165,1,,,,,,120,WORD,"ID",50,strain,STRAIN,m,,,,,,0.477777778,-0.33148151,1,0,0,,0,178,178,119,1,
,,,,,,,,,,,,,,,,,,5c477c3b302d8a0001c52ee2,2020-08-10_16h13.17.127,lexical_decision_task_MP,2020.1.3,Linux armv7l,60,,0,0.490740797,-0.322222222,1,0,0,0.7685,button_right,0.7685,0,,,,,,270,NW,"ID",33,wrimsy,WRIMSY,z,,,,,,0.490740797,-0.322222222,1,0,0,,0,179,179,269,1,
,,,,,,,,,,,,,,,,,,5c477c3b302d8a0001c52ee2,2020-08-10_16h13.17.127,lexical_decision_task_MP,2020.1.3,Linux armv7l,60,,0,0.492592621,-0.316666667,1,0,0,0.8175,button_right,0.8175,0,,,,,,261,NW,"ID",33,stunch,STUNCH,z,,,,,,0.492592621,-0.316666667,1,0,0,,0,180,180,260,1,
,,,,,,,,,,,,,,,,,,5c477c3b302d8a0001c52ee2,2020-08-10_16h13.17.127,lexical_decision_task_MP,2020.1.3,Linux armv7l,60,,0,0.488888889,-0.327777778,1,0,0,0.7328,button_right,0.7328,1,,,,,,144,WORD,UN,33,parish,SPONGE,m,,,,,,0.488888889,-0.327777778,1,0,0,,0,181,181,143,1,
,,,,,,,,,,,,,,,,,,5c477c3b302d8a0001c52ee2,2020-08-10_16h13.17.127,lexical_decision_task_MP,2020.1.3,Linux armv7l,60,,0,-0.412962935,-0.288888889,1,0,0,0.7178,button_left,0.7178,1,,,,,,448,NW,UN,50,brunge,SADENT,z,,,,,,-0.412962935,-0.288888889,1,0,0,,0,182,182,447,1,
,,,,,,,,,,,,,,,,,,5c477c3b302d8a0001c52ee2,2020-08-10_16h13.17.127,lexical_decision_task_MP,2020.1.3,Linux armv7l,60,,0,0.488888889,-0.325925954,1,0,0,0.6178,button_right,0.6178,1,,,,,,70,WORD,"ID",50,square,SQUARE,m,,,,,,0.488888889,-0.325925954,1,0,0,,0,183,183,69,1,
,,,,,,,,,,,,,,,,,,5c477c3b302d8a0001c52ee2,2020-08-10_16h13.17.127,lexical_decision_task_MP,2020.1.3,Linux armv7l,60,,0,-0.411111111,-0.294444444,1,0,0,0.7669,button_left,0.7669,1,,,,,,267,NW,"ID",33,pasink,PASINK,z,,,,,,-0.411111111,-0.294444444,1,0,0,,0,184,184,266,1,
,,,,,,,,,,,,,,,,,,5c477c3b302d8a0001c52ee2,2020-08-10_16h13.17.127,lexical_decision_task_MP,2020.1.3,Linux armv7l,60,,0,0.48148151,-0.322222222,1,0,0,0.6387,button_right,0.6387,1,,,,,,137,WORD,UN,33,melody,FINGER,m,,,,,,0.48148151,-0.322222222,1,0,0,,0,185,185,136,1,
,,,,,,,,,,,,,,,,,,5c477c3b302d8a0001c52ee2,2020-08-10_16h13.17.127,lexical_decision_task_MP,2020.1.3,Linux armv7l,60,,0,-0.412962935,-0.296296353,1,0,0,0.6798,button_left,0.6798,1,,,,,,410,NW,UN,33,orchin,TUNORY,z,,,,,,-0.412962935,-0.296296353,1,0,0,,0,186,186,409,1,
,,,,,,,,,,,,,,,,,,5c477c3b302d8a0001c52ee2,2020-08-10_16h13.17.127,lexical_decision_task_MP,2020.1.3,Linux armv7l,60,,0,-0.414814801,-0.290740797,1,0,0,0.5688,button_left,0.5688,1,,,,,,298,NW,"ID",33,piergy,PIERGY,z,,,,,,-0.414814801,-0.290740797,1,0,0,,0,187,187,297,1,
,,,,,,,,,,,,,,,,,,5c477c3b302d8a0001c52ee2,2020-08-10_16h13.17.127,lexical_decision_task_MP,2020.1.3,Linux armv7l,60,,0,0.483333333,-0.329629686,1,0,0,0.7998,button_right,0.7998,1,,,,,,230,WORD,UN,50,export,FRINGE,m,,,,,,0.483333333,-0.329629686,1,0,0,,0,188,188,229,1,
,,,,,,,,,,,,,,,,,,5c477c3b302d8a0001c52ee2,2020-08-10_16h13.17.127,lexical_decision_task_MP,2020.1.3,Linux armv7l,60,,0,0.468518575,-0.335185242,1,0,0,0.6848,button_right,0.6848,1,,,,,,127,WORD,UN,33,senior,CASTLE,m,,,,,,0.468518575,-0.335185242,1,0,0,,0,189,189,126,1,
,,,,,,,,,,,,,,,,,,5c477c3b302d8a0001c52ee2,2020-08-10_16h13.17.127,lexical_decision_task_MP,2020.1.3,Linux armv7l,60,,0,-0.359259245,-0.338888889,1,0,0,0.7016,button_left,0.7016,1,,,,,,406,NW,UN,33,suiver,NOUPLY,z,,,,,,-0.359259245,-0.338888889,1,0,0,,0,190,190,405,1,
,,,,,,,,,,,,,,,,,,5c477c3b302d8a0001c52ee2,2020-08-10_16h13.17.127,lexical_decision_task_MP,2020.1.3,Linux armv7l,60,,0,-0.381481467,-0.35,1,0,0,1.0523,button_left,1.0523,1,,,,,,373,NW,UN,33,injore,BIGENT,z,,,,,,-0.381481467,-0.35,1,0,0,,0,191,191,372,1,
,,,,,,,,,,,,,,,,,,5c477c3b302d8a0001c52ee2,2020-08-10_16h13.17.127,lexical_decision_task_MP,2020.1.3,Linux armv7l,60,,0,-0.320370356,-0.337037065,1,0,0,0.7867,button_left,0.7867,1,,,,,,243,NW,"ID",33,musied,MUSIED,z,,,,,,-0.320370356,-0.337037065,1,0,0,,0,192,192,242,1,
,,,,,,,,,,,,,,,,,,5c477c3b302d8a0001c52ee2,2020-08-10_16h13.17.127,lexical_decision_task_MP,2020.1.3,Linux armv7l,60,,0,-0.3,-0.314814843,1,0,0,0.7838,button_left,0.7838,1,,,,,,310,NW,"ID",50,daniet,DANIET,z,,,,,,-0.3,-0.314814843,1,0,0,,0,193,193,309,1,
,,,,,,,,,,,,,,,,,,5c477c3b302d8a0001c52ee2,2020-08-10_16h13.17.127,lexical_decision_task_MP,2020.1.3,Linux armv7l,60,,0,-0.348148134,-0.348148176,1,0,0,0.8017,button_left,0.8017,1,,,,,,353,NW,"ID",50,clurey,CLUREY,z,,,,,,-0.348148134,-0.348148176,1,0,0,,0,194,194,352,1,
,,,,,,,,,,,,,,,,,,5c477c3b302d8a0001c52ee2,2020-08-10_16h13.17.127,lexical_decision_task_MP,2020.1.3,Linux armv7l,60,,0,-0.298148134,-0.359259288,1,0,0,0.596,button_left,0.596,1,,,,,,379,NW,UN,33,cavory,AUTING,z,,,,,,-0.298148134,-0.359259288,1,0,0,,0,195,195,378,1,
,,,,,,,,,,,,,,,,,,5c477c3b302d8a0001c52ee2,2020-08-10_16h13.17.127,lexical_decision_task_MP,2020.1.3,Linux armv7l,60,,0,0.444444444,-0.285185242,1,0,0,0.634,button_right,0.634,1,,,,,,207,WORD,UN,50,hockey,WREATH,m,,,,,,0.444444444,-0.285185242,1,0,0,,0,196,196,206,1,
,,,,,,,,,,,,,,,,,,5c477c3b302d8a0001c52ee2,2020-08-10_16h13.17.127,lexical_decision_task_MP,2020.1.3,Linux armv7l,60,,0,-0.3,-0.351851908,1,0,0,0.6832,button_left,0.6832,1,,,,,,247,NW,"ID",33,blarge,BLARGE,z,,,,,,-0.3,-0.351851908,1,0,0,,0,197,197,246,1,
,,,,,,,,,,,,,,,,,,5c477c3b302d8a0001c52ee2,2020-08-10_16h13.17.127,lexical_decision_task_MP,2020.1.3,Linux armv7l,60,,0,0.4,-0.301851908,1,0,0,0.6659,button_right,0.6659,1,,,,,,128,WORD,UN,33,marvel,SENIOR,m,,,,,,0.4,-0.301851908,1,0,0,,0,198,198,127,1,
,,,,,,,,,,,,,,,,,,5c477c3b302d8a0001c52ee2,2020-08-10_16h13.17.127,lexical_decision_task_MP,2020.1.3,Linux armv7l,60,,0,-0.3,-0.361111111,1,0,0,0.8854,button_left,0.8854,1,,,,,,378,NW,UN,33,auting,SHRILE,z,,,,,,-0.3,-0.361111111,1,0,0,,0,199,199,377,1,
,,,,,,,,,,,,,,,,,,5c477c3b302d8a0001c52ee2,2020-08-10_16h13.17.127,lexical_decision_task_MP,2020.1.3,Linux armv7l,60,,0,0.429629686,-0.327777778,1,0,0,0.6665,button_right,0.6665,1,,,,,,175,WORD,UN,33,strife,FABRIC,m,,,,,,0.429629686,-0.327777778,1,0,0,,0,200,200,174,1,
,,,,,,,,,,,,,,,,,,5c477c3b302d8a0001c52ee2,2020-08-10_16h13.17.127,lexical_decision_task_MP,2020.1.3,Linux armv7l,60,,0,-0.305555556,-0.335185242,1,0,0,0.9358,button_left,0.9358,1,,,,,,268,NW,"ID",33,packes,PACKES,z,,,,,,-0.305555556,-0.335185242,1,0,0,,0,201,201,267,1,
,,,,,,,,,,,,,,,,,,5c477c3b302d8a0001c52ee2,2020-08-10_16h13.17.127,lexical_decision_task_MP,2020.1.3,Linux armv7l,60,,0,0.477777778,-0.28148151,1,0,0,0.6003,button_right,0.6003,1,,,,,,164,WORD,UN,33,invest,MARKET,m,,,,,,0.477777778,-0.28148151,1,0,0,,0,202,202,163,1,
,,,,,,,,,,,,,,,,,,5c477c3b302d8a0001c52ee2,2020-08-10_16h13.17.127,lexical_decision_task_MP,2020.1.3,Linux armv7l,60,,0,0.444444444,-0.275925954,1,0,0,0.5834,button_right,0.5834,1,,,,,,178,WORD,UN,33,mildew,INFORM,m,,,,,,0.444444444,-0.275925954,1,0,0,,0,203,203,177,1,
,,,,,,,,,,,,,,,,,,5c477c3b302d8a0001c52ee2,2020-08-10_16h13.17.127,lexical_decision_task_MP,2020.1.3,Linux armv7l,60,,0,-0.364814801,-0.307407464,1,0,0,1.0356,button_left,1.0356,1,,,,,,322,NW,"ID",50,slanch,SLANCH,z,,,,,,-0.364814801,-0.307407464,1,0,0,,0,204,204,321,1,
,,,,,,,,,,,,,,,,,,5c477c3b302d8a0001c52ee2,2020-08-10_16h13.17.127,lexical_decision_task_MP,2020.1.3,Linux armv7l,60,,0,0.490740797,-0.285185242,1,0,0,0.6503,button_right,0.6503,1,,,,,,138,WORD,UN,33,staple,MELODY,m,,,,,,0.490740797,-0.285185242,1,0,0,,0,205,205,137,1,
,,,,,,,,,,,,,,,,,,5c477c3b302d8a0001c52ee2,2020-08-10_16h13.17.127,lexical_decision_task_MP,2020.1.3,Linux armv7l,60,,0,0.468518575,-0.301851908,1,0,0,0.6514,button_right,0.6514,0,,,,,,303,NW,"ID",50,fiream,FIREAM,z,,,,,,0.468518575,-0.301851908,1,0,0,,0,206,206,302,1,
,,,,,,,,,,,,,,,,,,5c477c3b302d8a0001c52ee2,2020-08-10_16h13.17.127,lexical_decision_task_MP,2020.1.3,Linux armv7l,60,,0,-0.3,-0.342592621,1,0,0,1.0028,button_left,1.0028,1,,,,,,400,NW,UN,33,mustil,WEAROX,z,,,,,,-0.3,-0.342592621,1,0,0,,0,207,207,399,1,
,,,,,,,,,,,,,,,,,,5c477c3b302d8a0001c52ee2,2020-08-10_16h13.17.127,lexical_decision_task_MP,2020.1.3,Linux armv7l,60,,0,-0.301851824,-0.325925954,1,0,0,0.6846,button_left,0.6846,1,,,,,,242,NW,"ID",33,unwert,UNWERT,z,,,,,,-0.301851824,-0.325925954,1,0,0,,0,208,208,241,1,
,,,,,,,,,,,,,,,,,,5c477c3b302d8a0001c52ee2,2020-08-10_16h13.17.127,lexical_decision_task_MP,2020.1.3,Linux armv7l,60,,0,0.488888889,-0.309259288,1,0,0,0.6008,button_right,0.6008,1,,,,,,63,WORD,"ID",50,launch,LAUNCH,m,,,,,,0.488888889,-0.309259288,1,0,0,,0,209,209,62,1,
,,,,,,,,,,,,,,,,,,5c477c3b302d8a0001c52ee2,2020-08-10_16h13.17.127,lexical_decision_task_MP,2020.1.3,Linux armv7l,60,,0,0.464814843,-0.287037065,1,0,0,0.5835,button_right,0.5835,1,,,,,,232,WORD,UN,50,nature,INJECT,m,,,,,,0.464814843,-0.287037065,1,0,0,,0,210,210,231,1,
,,,,,,,,,,,,,,,,,,5c477c3b302d8a0001c52ee2,2020-08-10_16h13.17.127,lexical_decision_task_MP,2020.1.3,Linux armv7l,60,,0,-0.325925912,-0.311111111,1,0,0,0.6496,button_left,0.6496,1,,,,,,288,NW,"ID",33,yaceup,YACEUP,z,,,,,,-0.325925912,-0.311111111,1,0,0,,0,211,211,287,1,
,,,,,,,,,,,,,,,,,,5c477c3b302d8a0001c52ee2,2020-08-10_16h13.17.127,lexical_decision_task_MP,2020.1.3,Linux armv7l,60,,0,0.475925954,-0.290740797,1,0,0,0.6679,button_right,0.6679,1,,,,,,97,WORD,"ID",50,client,CLIENT,m,,,,,,0.475925954,-0.290740797,1,0,0,,0,212,212,96,1,
,,,,,,,,,,,,,,,,,,5c477c3b302d8a0001c52ee2,2020-08-10_16h13.17.127,lexical_decision_task_MP,2020.1.3,Linux armv7l,60,,0,-0.364814801,-0.311111111,1,0,0,0.6664,button_left,0.6664,1,,,,,,469,NW,UN,50,crudio,PADIFS,z,,,,,,-0.364814801,-0.311111111,1,0,0,,0,213,213,468,1,
,,,,,,,,,,,,,,,,,,5c477c3b302d8a0001c52ee2,2020-08-10_16h13.17.127,lexical_decision_task_MP,2020.1.3,Linux armv7l,60,,0,-0.335185157,-0.301851908,1,0,0,0.6503,button_left,0.6503,1,,,,,,466,NW,UN,50,pebric,HOCITE,z,,,,,,-0.335185157,-0.301851908,1,0,0,,0,214,214,465,1,
,,,,,,,,,,,,,,,,,,5c477c3b302d8a0001c52ee2,2020-08-10_16h13.17.127,lexical_decision_task_MP,2020.1.3,Linux armv7l,60,,0,0.468518575,-0.333333333,1,0,0,0.5858,button_right,0.5858,1,,,,,,236,WORD,UN,50,poster,PIRATE,m,,,,,,0.468518575,-0.333333333,1,0,0,,0,215,215,235,1,
,,,,,,,,,,,,,,,,,,5c477c3b302d8a0001c52ee2,2020-08-10_16h13.17.127,lexical_decision_task_MP,2020.1.3,Linux armv7l,60,,0,-0.324074046,-0.303703732,1,0,0,0.7352,button_left,0.7352,1,,,,,,255,NW,"ID",33,apight,APIGHT,z,,,,,,-0.324074046,-0.303703732,1,0,0,,0,216,216,254,1,
,,,,,,,,,,,,,,,,,,5c477c3b302d8a0001c52ee2,2020-08-10_16h13.17.127,lexical_decision_task_MP,2020.1.3,Linux armv7l,60,,0,0.446296353,-0.311111111,1,0,0,0.7335,button_right,0.7335,1,,,,,,60,WORD,"ID",33,pencil,PENCIL,m,,,,,,0.446296353,-0.311111111,1,0,0,,0,217,217,59,1,
,,,,,,,,,,,,,,,,,,5c477c3b302d8a0001c52ee2,2020-08-10_16h13.17.127,lexical_decision_task_MP,2020.1.3,Linux armv7l,60,,0,-0.370370356,-0.314814843,1,0,0,0.6835,button_left,0.6835,1,,,,,,300,NW,"ID",33,yarion,YARION,z,,,,,,-0.370370356,-0.314814843,1,0,0,,0,218,218,299,1,
,,,,,,,,,,,,,,,,,,5c477c3b302d8a0001c52ee2,2020-08-10_16h13.17.127,lexical_decision_task_MP,2020.1.3,Linux armv7l,60,,0,0.464814843,-0.292592621,1,0,0,0.7356,button_right,0.7356,0,,,,,,342,NW,"ID",50,randow,RANDOW,z,,,,,,0.464814843,-0.292592621,1,0,0,,0,219,219,341,1,
,,,,,,,,,,,,,,,,,,5c477c3b302d8a0001c52ee2,2020-08-10_16h13.17.127,lexical_decision_task_MP,2020.1.3,Linux armv7l,60,,0,-0.359259245,-0.3,1,0,0,0.5826,button_left,0.5826,0,,,,,,220,WORD,UN,50,mascot,VOYAGE,m,,,,,,-0.359259245,-0.3,1,0,0,,0,220,220,219,1,
,,,,,,,,,,,,,,,,,,5c477c3b302d8a0001c52ee2,2020-08-10_16h13.17.127,lexical_decision_task_MP,2020.1.3,Linux armv7l,60,,0,-0.338888889,-0.314814843,1,0,0,0.6515,button_left,0.6515,1,,,,,,412,NW,UN,33,equats,JILUER,z,,,,,,-0.338888889,-0.314814843,1,0,0,,0,221,221,411,1,
,,,,,,,,,,,,,,,,,,5c477c3b302d8a0001c52ee2,2020-08-10_16h13.17.127,lexical_decision_task_MP,2020.1.3,Linux armv7l,60,,0,0.527777778,-0.311111111,1,0,0,0.718,button_right,0.718,1,,,,,,48,WORD,"ID",33,walnut,WALNUT,m,,,,,,0.527777778,-0.311111111,1,0,0,,0,222,222,47,1,
,,,,,,,,,,,,,,,,,,5c477c3b302d8a0001c52ee2,2020-08-10_16h13.17.127,lexical_decision_task_MP,2020.1.3,Linux armv7l,60,,0,0.492592621,-0.287037065,1,0,0,0.6335,button_right,0.6335,1,,,,,,197,WORD,UN,50,wicked,STREAM,m,,,,,,0.492592621,-0.287037065,1,0,0,,0,223,223,196,1,
,,,,,,,,,,,,,,,,,,5c477c3b302d8a0001c52ee2,2020-08-10_16h13.17.127,lexical_decision_task_MP,2020.1.3,Linux armv7l,60,,0,-0.35370369,-0.338888889,1,0,0,0.7362,button_left,0.7362,1,,,,,,246,NW,"ID",33,piaton,PIATON,z,,,,,,-0.35370369,-0.338888889,1,0,0,,0,224,224,245,1,
,,,,,,,,,,,,,,,,,,5c477c3b302d8a0001c52ee2,2020-08-10_16h13.17.127,lexical_decision_task_MP,2020.1.3,Linux armv7l,60,,0,0.511111111,-0.272222222,1,0,0,0.5665,button_right,0.5665,1,,,,,,14,WORD,"ID",33,almost,ALMOST,m,,,,,,0.511111111,-0.272222222,1,0,0,,0,225,225,13,1,
,,,,,,,,,,,,,,,,,,5c477c3b302d8a0001c52ee2,2020-08-10_16h13.17.127,lexical_decision_task_MP,2020.1.3,Linux armv7l,60,,0,-0.375925912,-0.324074131,1,0,0,0.7357,button_left,0.7357,1,,,,,,328,NW,"ID",50,broake,BROAKE,z,,,,,,-0.375925912,-0.324074131,1,0,0,,0,226,226,327,1,
,,,,,,,,,,,,,,,,,,5c477c3b302d8a0001c52ee2,2020-08-10_16h13.17.127,lexical_decision_task_MP,2020.1.3,Linux armv7l,60,,0,0.496296353,-0.311111111,1,0,0,0.6844,button_right,0.6844,1,,,,,,32,WORD,"ID",33,buckle,BUCKLE,m,,,,,,0.496296353,-0.311111111,1,0,0,,0,227,227,31,1,
,,,,,,,,,,,,,,,,,,5c477c3b302d8a0001c52ee2,2020-08-10_16h13.17.127,lexical_decision_task_MP,2020.1.3,Linux armv7l,60,,0,0.503703732,-0.301851908,1,0,0,0.6165,button_right,0.6165,1,,,,,,5,WORD,"ID",33,plunge,PLUNGE,m,,,,,,0.503703732,-0.301851908,1,0,0,,0,228,228,4,1,
,,,,,,,,,,,,,,,,,,5c477c3b302d8a0001c52ee2,2020-08-10_16h13.17.127,lexical_decision_task_MP,2020.1.3,Linux armv7l,60,,0,-0.392592578,-0.337037065,1,0,0,0.65,button_left,0.65,1,,,,,,470,NW,UN,50,nobest,CRUDIO,z,,,,,,-0.392592578,-0.337037065,1,0,0,,0,229,229,469,1,
,,,,,,,,,,,,,,,,,,5c477c3b302d8a0001c52ee2,2020-08-10_16h13.17.127,lexical_decision_task_MP,2020.1.3,Linux armv7l,60,,0,0.490740797,-0.303703732,1,0,0,0.7506,button_right,0.7506,1,,,,,,42,WORD,"ID",33,chapel,CHAPEL,m,,,,,,0.490740797,-0.303703732,1,0,0,,0,230,230,41,1,
,,,,,,,,,,,,,,,,,,5c477c3b302d8a0001c52ee2,2020-08-10_16h13.17.127,lexical_decision_task_MP,2020.1.3,Linux armv7l,60,,0,-0.396296268,-0.305555556,1,0,0,0.7182,button_left,0.7182,1,,,,,,431,NW,UN,50,lunker,CHRUMS,z,,,,,,-0.396296268,-0.305555556,1,0,0,,0,231,231,430,1,
,,,,,,,,,,,,,,,,,,5c477c3b302d8a0001c52ee2,2020-08-10_16h13.17.127,lexical_decision_task_MP,2020.1.3,Linux armv7l,60,,0,0.483333333,-0.298148176,1,0,0,0.7847,button_right,0.7847,1,,,,,,222,WORD,UN,50,casino,HINDER,m,,,,,,0.483333333,-0.298148176,1,0,0,,0,232,232,221,1,
,,,,,,,,,,,,,,,,,,5c477c3b302d8a0001c52ee2,2020-08-10_16h13.17.127,lexical_decision_task_MP,2020.1.3,Linux armv7l,60,,0,0.485185242,-0.294444444,1,0,0,0.5341,button_right,0.5341,1,,,,,,69,WORD,"ID",50,plenty,PLENTY,m,,,,,,0.485185242,-0.294444444,1,0,0,,0,233,233,68,1,
,,,,,,,,,,,,,,,,,,5c477c3b302d8a0001c52ee2,2020-08-10_16h13.17.127,lexical_decision_task_MP,2020.1.3,Linux armv7l,60,,0,0.470370399,-0.298148176,1,0,0,0.5009,button_right,0.5009,1,,,,,,163,WORD,UN,33,market,STRING,m,,,,,,0.470370399,-0.298148176,1,0,0,,0,234,234,162,1,
,,,,,,,,,,,,,,,,,,5c477c3b302d8a0001c52ee2,2020-08-10_16h13.17.127,lexical_decision_task_MP,2020.1.3,Linux armv7l,60,,0,-0.396296268,-0.312963019,1,0,0,0.8685,button_left,0.8685,1,,,,,,273,NW,"ID",33,sortel,SORTEL,z,,,,,,-0.396296268,-0.312963019,1,0,0,,0,235,235,272,1,
,,,,,,,,,,,,,,,,,,5c477c3b302d8a0001c52ee2,2020-08-10_16h13.17.127,lexical_decision_task_MP,2020.1.3,Linux armv7l,60,,0,0.487037065,-0.296296353,1,0,0,0.6154,button_right,0.6154,1,,,,,,227,WORD,UN,50,master,SELDOM,m,,,,,,0.487037065,-0.296296353,1,0,0,,0,236,236,226,1,
,,,,,,,,,,,,,,,,,,5c477c3b302d8a0001c52ee2,2020-08-10_16h13.17.127,lexical_decision_task_MP,2020.1.3,Linux armv7l,60,,0,-0.40370369,-0.287037065,1,0,0,0.6507,button_left,0.6507,1,,,,,,451,NW,UN,50,surden,CAINKY,z,,,,,,-0.40370369,-0.287037065,1,0,0,,0,237,237,450,1,
,,,,,,,,,,,,,,,,,,5c477c3b302d8a0001c52ee2,2020-08-10_16h13.17.127,lexical_decision_task_MP,2020.1.3,Linux armv7l,60,,0,0.492592621,-0.290740797,1,0,0,0.6834,button_right,0.6834,1,,,,,,195,WORD,UN,50,credit,RESIGN,m,,,,,,0.492592621,-0.290740797,1,0,0,,0,238,238,194,1,
,,,,,,,,,,,,,,,,,,5c477c3b302d8a0001c52ee2,2020-08-10_16h13.17.127,lexical_decision_task_MP,2020.1.3,Linux armv7l,60,,0,0.490740797,-0.312963019,1,0,0,0.6689,button_right,0.6689,1,,,,,,133,WORD,UN,33,debris,CHROME,m,,,,,,0.490740797,-0.312963019,1,0,0,,0,239,239,132,1,
,,,,,,,,,,,,,,,,,,5c477c3b302d8a0001c52ee2,2020-08-10_16h13.17.127,lexical_decision_task_MP,2020.1.3,Linux armv7l,60,,0,0.483333333,-0.320370399,1,0,0,0.5496,button_right,0.5496,1,,,,,,162,WORD,UN,33,string,CANDLE,m,,,,,,0.483333333,-0.320370399,1,0,0,,0,240,240,161,1,
,,,,,,,,,,,,,,,,,,5c477c3b302d8a0001c52ee2,2020-08-10_16h13.17.127,lexical_decision_task_MP,2020.1.3,Linux armv7l,60,,0,0.492592621,-0.316666667,1,0,0,0.5569,button_right,0.5569,1,,,,,,77,WORD,"ID",50,racket,RACKET,m,,,,,,0.109259288,-0.424074131,1,0,0,,0,241,241,76,1,break_done_button
,,,,,,,,,,,,,,,,,,5c477c3b302d8a0001c52ee2,2020-08-10_16h13.17.127,lexical_decision_task_MP,2020.1.3,Linux armv7l,60,,0,0.487037065,-0.307407464,1,0,0,0.6005,button_right,0.6005,1,,,,,,139,WORD,UN,33,prince,DEBRIS,m,,,,,,0.487037065,-0.307407464,1,0,0,,0,242,242,138,1,
,,,,,,,,,,,,,,,,,,5c477c3b302d8a0001c52ee2,2020-08-10_16h13.17.127,lexical_decision_task_MP,2020.1.3,Linux armv7l,60,,0,0.475925954,-0.3,1,0,0,0.5331,button_right,0.5331,1,,,,,,160,WORD,UN,33,dragon,VIOLET,m,,,,,,0.475925954,-0.3,1,0,0,,0,243,243,159,1,
,,,,,,,,,,,,,,,,,,5c477c3b302d8a0001c52ee2,2020-08-10_16h13.17.127,lexical_decision_task_MP,2020.1.3,Linux armv7l,60,,0,0.488888889,-0.316666667,1,0,0,0.516,button_right,0.516,1,,,,,,75,WORD,"ID",50,trophy,TROPHY,m,,,,,,0.488888889,-0.316666667,1,0,0,,0,244,244,74,1,
,,,,,,,,,,,,,,,,,,5c477c3b302d8a0001c52ee2,2020-08-10_16h13.17.127,lexical_decision_task_MP,2020.1.3,Linux armv7l,60,,0,0.488888889,-0.327777778,1,0,0,0.5329,button_right,0.5329,1,,,,,,191,WORD,UN,50,absent,STABLE,m,,,,,,0.488888889,-0.327777778,1,0,0,,0,245,245,190,1,
,,,,,,,,,,,,,,,,,,5c477c3b302d8a0001c52ee2,2020-08-10_16h13.17.127,lexical_decision_task_MP,2020.1.3,Linux armv7l,60,,0,0.488888889,-0.333333333,1,0,0,0.5829,button_right,0.5829,0,,,,,,306,NW,"ID",50,sounge,SOUNGE,z,,,,,,0.488888889,-0.333333333,1,0,0,,0,246,246,305,1,
,,,,,,,,,,,,,,,,,,5c477c3b302d8a0001c52ee2,2020-08-10_16h13.17.127,lexical_decision_task_MP,2020.1.3,Linux armv7l,60,,0,0.488888889,-0.318518575,1,0,0,0.7521,button_right,0.7521,1,,,,,,184,WORD,UN,50,bother,SLEAZY,m,,,,,,0.488888889,-0.318518575,1,0,0,,0,247,247,183,1,
,,,,,,,,,,,,,,,,,,5c477c3b302d8a0001c52ee2,2020-08-10_16h13.17.127,lexical_decision_task_MP,2020.1.3,Linux armv7l,60,,0,0.490740797,-0.312963019,1,0,0,0.5506,button_right,0.5506,1,,,,,,123,WORD,UN,33,enough,STRIKE,m,,,,,,0.490740797,-0.312963019,1,0,0,,0,248,248,122,1,
,,,,,,,,,,,,,,,,,,5c477c3b302d8a0001c52ee2,2020-08-10_16h13.17.127,lexical_decision_task_MP,2020.1.3,Linux armv7l,60,,0,-0.444444444,-0.28148151,1,0,0,0.783,button_left,0.783,1,,,,,,433,NW,UN,50,pitrom,DRANCE,z,,,,,,-0.444444444,-0.28148151,1,0,0,,0,249,249,432,1,
,,,,,,,,,,,,,,,,,,5c477c3b302d8a0001c52ee2,2020-08-10_16h13.17.127,lexical_decision_task_MP,2020.1.3,Linux armv7l,60,,0,-0.407407379,-0.290740797,1,0,0,0.667,button_left,0.667,1,,,,,,251,NW,"ID",33,lupict,LUPICT,z,,,,,,-0.407407379,-0.290740797,1,0,0,,0,250,250,250,1,
,,,,,,,,,,,,,,,,,,5c477c3b302d8a0001c52ee2,2020-08-10_16h13.17.127,lexical_decision_task_MP,2020.1.3,Linux armv7l,60,,0,-0.414814801,-0.290740797,1,0,0,0.6165,button_left,0.6165,1,,,,,,376,NW,UN,33,sliant,IGUARE,z,,,,,,-0.414814801,-0.290740797,1,0,0,,0,251,251,375,1,
,,,,,,,,,,,,,,,,,,5c477c3b302d8a0001c52ee2,2020-08-10_16h13.17.127,lexical_decision_task_MP,2020.1.3,Linux armv7l,60,,0,0.488888889,-0.322222222,1,0,0,0.652,button_right,0.652,1,,,,,,187,WORD,UN,50,social,COURSE,m,,,,,,0.488888889,-0.322222222,1,0,0,,0,252,252,186,1,
,,,,,,,,,,,,,,,,,,5c477c3b302d8a0001c52ee2,2020-08-10_16h13.17.127,lexical_decision_task_MP,2020.1.3,Linux armv7l,60,,0,-0.435185157,-0.3,1,0,0,0.6841,button_left,0.6841,1,,,,,,405,NW,UN,33,nouply,FLUMNI,z,,,,,,-0.435185157,-0.3,1,0,0,,0,253,253,404,1,
,,,,,,,,,,,,,,,,,,5c477c3b302d8a0001c52ee2,2020-08-10_16h13.17.127,lexical_decision_task_MP,2020.1.3,Linux armv7l,60,,0,0.483333333,-0.327777778,1,0,0,0.7675,button_right,0.7675,1,,,,,,156,WORD,UN,33,pastor,CRADLE,m,,,,,,0.483333333,-0.327777778,1,0,0,,0,254,254,155,1,
,,,,,,,,,,,,,,,,,,5c477c3b302d8a0001c52ee2,2020-08-10_16h13.17.127,lexical_decision_task_MP,2020.1.3,Linux armv7l,60,,0,0.490740797,-0.318518575,1,0,0,0.7176,button_right,0.7176,1,,,,,,19,WORD,"ID",33,patron,PATRON,m,,,,,,0.490740797,-0.318518575,1,0,0,,0,255,255,18,1,
,,,,,,,,,,,,,,,,,,5c477c3b302d8a0001c52ee2,2020-08-10_16h13.17.127,lexical_decision_task_MP,2020.1.3,Linux armv7l,60,,0,0.490740797,-0.311111111,1,0,0,0.7856,button_right,0.7856,0,,,,,,413,NW,UN,33,serbol,EQUATS,z,,,,,,0.490740797,-0.311111111,1,0,0,,0,256,256,412,1,
,,,,,,,,,,,,,,,,,,5c477c3b302d8a0001c52ee2,2020-08-10_16h13.17.127,lexical_decision_task_MP,2020.1.3,Linux armv7l,60,,0,-0.442592578,-0.28148151,1,0,0,0.7678,button_left,0.7678,1,,,,,,419,NW,UN,33,gushop,SLOUNT,z,,,,,,-0.442592578,-0.28148151,1,0,0,,0,257,257,418,1,
,,,,,,,,,,,,,,,,,,5c477c3b302d8a0001c52ee2,2020-08-10_16h13.17.127,lexical_decision_task_MP,2020.1.3,Linux armv7l,60,,0,0.483333333,-0.312963019,1,0,0,0.8337,button_right,0.8337,1,,,,,,145,WORD,UN,33,couple,PARISH,m,,,,,,0.483333333,-0.312963019,1,0,0,,0,258,258,144,1,
,,,,,,,,,,,,,,,,,,5c477c3b302d8a0001c52ee2,2020-08-10_16h13.17.127,lexical_decision_task_MP,2020.1.3,Linux armv7l,60,,0,0.479629686,-0.318518575,1,0,0,0.5668,button_right,0.5668,1,,,,,,83,WORD,"ID",50,result,RESULT,m,,,,,,0.479629686,-0.318518575,1,0,0,,0,259,259,82,1,
,,,,,,,,,,,,,,,,,,5c477c3b302d8a0001c52ee2,2020-08-10_16h13.17.127,lexical_decision_task_MP,2020.1.3,Linux armv7l,60,,0,0.483333333,-0.305555556,1,0,0,0.7006,button_right,0.7006,1,,,,,,224,WORD,UN,50,vulgar,PERIOD,m,,,,,,0.483333333,-0.305555556,1,0,0,,0,260,260,223,1,
,,,,,,,,,,,,,,,,,,5c477c3b302d8a0001c52ee2,2020-08-10_16h13.17.127,lexical_decision_task_MP,2020.1.3,Linux armv7l,60,,0,-0.494444444,-0.301851908,1,0,0,0.8185,button_left,0.8185,1,,,,,,348,NW,"ID",50,dumple,DUMPLE,z,,,,,,-0.494444444,-0.301851908,1,0,0,,0,261,261,347,1,
,,,,,,,,,,,,,,,,,,5c477c3b302d8a0001c52ee2,2020-08-10_16h13.17.127,lexical_decision_task_MP,2020.1.3,Linux armv7l,60,,0,0.455555556,-0.303703732,1,0,0,0.82,button_right,0.82,1,,,,,,214,WORD,UN,50,phobia,INTAKE,m,,,,,,0.455555556,-0.303703732,1,0,0,,0,262,262,213,1,
,,,,,,,,,,,,,,,,,,5c477c3b302d8a0001c52ee2,2020-08-10_16h13.17.127,lexical_decision_task_MP,2020.1.3,Linux armv7l,60,,0,-0.396296268,-0.301851908,1,0,0,0.7505,button_left,0.7505,1,,,,,,315,NW,"ID",50,laston,LASTON,z,,,,,,-0.396296268,-0.301851908,1,0,0,,0,263,263,314,1,
,,,,,,,,,,,,,,,,,,5c477c3b302d8a0001c52ee2,2020-08-10_16h13.17.127,lexical_decision_task_MP,2020.1.3,Linux armv7l,60,,0,-0.396296268,-0.257407464,1,0,0,0.6679,button_left,0.6679,1,,,,,,292,NW,"ID",33,ablint,ABLINT,z,,,,,,-0.396296268,-0.257407464,1,0,0,,0,264,264,291,1,
,,,,,,,,,,,,,,,,,,5c477c3b302d8a0001c52ee2,2020-08-10_16h13.17.127,lexical_decision_task_MP,2020.1.3,Linux armv7l,60,,0,0.468518575,-0.296296353,1,0,0,0.5828,button_right,0.5828,1,,,,,,98,WORD,"ID",50,belong,BELONG,m,,,,,,0.468518575,-0.296296353,1,0,0,,0,265,265,97,1,
,,,,,,,,,,,,,,,,,,5c477c3b302d8a0001c52ee2,2020-08-10_16h13.17.127,lexical_decision_task_MP,2020.1.3,Linux armv7l,60,,0,0.459259288,-0.301851908,1,0,0,0.7807,button_right,0.7807,1,,,,,,87,WORD,"ID",50,filter,FILTER,m,,,,,,0.459259288,-0.301851908,1,0,0,,0,266,266,86,1,
,,,,,,,,,,,,,,,,,,5c477c3b302d8a0001c52ee2,2020-08-10_16h13.17.127,lexical_decision_task_MP,2020.1.3,Linux armv7l,60,,0,-0.396296268,-0.28148151,1,0,0,0.6663,button_left,0.6663,1,,,,,,363,NW,UN,33,impote,BREALI,z,,,,,,-0.396296268,-0.28148151,1,0,0,,0,267,267,362,1,
,,,,,,,,,,,,,,,,,,5c477c3b302d8a0001c52ee2,2020-08-10_16h13.17.127,lexical_decision_task_MP,2020.1.3,Linux armv7l,60,,0,0.466666667,-0.303703732,1,0,0,0.6166,button_right,0.6166,1,,,,,,88,WORD,"ID",50,hunger,HUNGER,m,,,,,,0.466666667,-0.303703732,1,0,0,,0,268,268,87,1,
,,,,,,,,,,,,,,,,,,5c477c3b302d8a0001c52ee2,2020-08-10_16h13.17.127,lexical_decision_task_MP,2020.1.3,Linux armv7l,60,,0,0.470370399,-0.312963019,1,0,0,0.5331,button_right,0.5331,1,,,,,,72,WORD,"ID",50,bright,BRIGHT,m,,,,,,0.470370399,-0.312963019,1,0,0,,0,269,269,71,1,
,,,,,,,,,,,,,,,,,,5c477c3b302d8a0001c52ee2,2020-08-10_16h13.17.127,lexical_decision_task_MP,2020.1.3,Linux armv7l,60,,0,-0.385185157,-0.287037065,1,0,0,0.6348,button_left,0.6348,1,,,,,,256,NW,"ID",33,inlors,INLORS,z,,,,,,-0.385185157,-0.287037065,1,0,0,,0,270,270,255,1,
,,,,,,,,,,,,,,,,,,5c477c3b302d8a0001c52ee2,2020-08-10_16h13.17.127,lexical_decision_task_MP,2020.1.3,Linux armv7l,60,,0,0.464814843,-0.314814843,1,0,0,0.5322,button_right,0.5322,1,,,,,,104,WORD,"ID",50,studio,STUDIO,m,,,,,,0.464814843,-0.314814843,1,0,0,,0,271,271,103,1,
,,,,,,,,,,,,,,,,,,5c477c3b302d8a0001c52ee2,2020-08-10_16h13.17.127,lexical_decision_task_MP,2020.1.3,Linux armv7l,60,,0,0.451851908,-0.316666667,1,0,0,0.499,button_right,0.499,1,,,,,,116,WORD,"ID",50,tumble,TUMBLE,m,,,,,,0.451851908,-0.316666667,1,0,0,,0,272,272,115,1,
,,,,,,,,,,,,,,,,,,5c477c3b302d8a0001c52ee2,2020-08-10_16h13.17.127,lexical_decision_task_MP,2020.1.3,Linux armv7l,60,,0,0.466666667,-0.316666667,1,0,0,0.4997,button_right,0.4997,1,,,,,,231,WORD,UN,50,mother,EXPORT,m,,,,,,0.466666667,-0.316666667,1,0,0,,0,273,273,230,1,
,,,,,,,,,,,,,,,,,,5c477c3b302d8a0001c52ee2,2020-08-10_16h13.17.127,lexical_decision_task_MP,2020.1.3,Linux armv7l,60,,0,-0.390740712,-0.296296353,1,0,0,0.752,button_left,0.752,1,,,,,,249,NW,"ID",33,batrol,BATROL,z,,,,,,-0.390740712,-0.296296353,1,0,0,,0,274,274,248,1,
,,,,,,,,,,,,,,,,,,5c477c3b302d8a0001c52ee2,2020-08-10_16h13.17.127,lexical_decision_task_MP,2020.1.3,Linux armv7l,60,,0,-0.338888889,-0.287037065,1,0,0,0.7849,button_left,0.7849,1,,,,,,441,NW,UN,50,aboune,RASTOE,z,,,,,,-0.338888889,-0.287037065,1,0,0,,0,275,275,440,1,
,,,,,,,,,,,,,,,,,,5c477c3b302d8a0001c52ee2,2020-08-10_16h13.17.127,lexical_decision_task_MP,2020.1.3,Linux armv7l,60,,0,0.483333333,-0.298148176,1,0,0,0.5996,button_right,0.5996,1,,,,,,52,WORD,"ID",33,impose,IMPOSE,m,,,,,,0.483333333,-0.298148176,1,0,0,,0,276,276,51,1,
,,,,,,,,,,,,,,,,,,5c477c3b302d8a0001c52ee2,2020-08-10_16h13.17.127,lexical_decision_task_MP,2020.1.3,Linux armv7l,60,,0,0.477777778,-0.301851908,1,0,0,0.5792,button_right,0.5792,1,,,,,,91,WORD,"ID",50,expand,EXPAND,m,,,,,,0.477777778,-0.301851908,1,0,0,,0,277,277,90,1,
,,,,,,,,,,,,,,,,,,5c477c3b302d8a0001c52ee2,2020-08-10_16h13.17.127,lexical_decision_task_MP,2020.1.3,Linux armv7l,60,,0,0.472222222,-0.301851908,1,0,0,0.5327,button_right,0.5327,0,,,,,,284,NW,"ID",33,shaple,SHAPLE,z,,,,,,0.472222222,-0.301851908,1,0,0,,0,278,278,283,1,
,,,,,,,,,,,,,,,,,,5c477c3b302d8a0001c52ee2,2020-08-10_16h13.17.127,lexical_decision_task_MP,2020.1.3,Linux armv7l,60,,0,0.483333333,-0.3,1,0,0,0.7012,button_right,0.7012,1,,,,,,192,WORD,UN,50,object,PLAGUE,m,,,,,,0.483333333,-0.3,1,0,0,,0,279,279,191,1,
,,,,,,,,,,,,,,,,,,5c477c3b302d8a0001c52ee2,2020-08-10_16h13.17.127,lexical_decision_task_MP,2020.1.3,Linux armv7l,60,,0,-0.381481467,-0.275925954,1,0,0,0.835,button_left,0.835,1,,,,,,392,NW,UN,33,ganous,ROUNCY,z,,,,,,-0.381481467,-0.275925954,1,0,0,,0,280,280,391,1,
,,,,,,,,,,,,,,,,,,5c477c3b302d8a0001c52ee2,2020-08-10_16h13.17.127,lexical_decision_task_MP,2020.1.3,Linux armv7l,60,,0,0.474074131,-0.3,1,0,0,0.7,button_right,0.7,1,,,,,,29,WORD,"ID",33,sketch,SKETCH,m,,,,,,0.474074131,-0.3,1,0,0,,0,281,281,28,1,
,,,,,,,,,,,,,,,,,,5c477c3b302d8a0001c52ee2,2020-08-10_16h13.17.127,lexical_decision_task_MP,2020.1.3,Linux armv7l,60,,0,0.470370399,-0.305555556,1,0,0,0.5494,button_right,0.5494,1,,,,,,106,WORD,"ID",50,ransom,RANSOM,m,,,,,,0.470370399,-0.305555556,1,0,0,,0,282,282,105,1,
,,,,,,,,,,,,,,,,,,5c477c3b302d8a0001c52ee2,2020-08-10_16h13.17.127,lexical_decision_task_MP,2020.1.3,Linux armv7l,60,,0,-0.351851824,-0.28148151,1,0,0,0.5995,button_left,0.5995,1,,,,,,312,NW,"ID",50,nerawl,NERAWL,z,,,,,,-0.351851824,-0.28148151,1,0,0,,0,283,283,311,1,
,,,,,,,,,,,,,,,,,,5c477c3b302d8a0001c52ee2,2020-08-10_16h13.17.127,lexical_decision_task_MP,2020.1.3,Linux armv7l,60,,0,-0.396296268,-0.287037065,1,0,0,0.8507,button_left,0.8507,1,,,,,,390,NW,UN,33,theldy,HATRUS,z,,,,,,-0.396296268,-0.287037065,1,0,0,,0,284,284,389,1,
,,,,,,,,,,,,,,,,,,5c477c3b302d8a0001c52ee2,2020-08-10_16h13.17.127,lexical_decision_task_MP,2020.1.3,Linux armv7l,60,,0,-0.362962935,-0.287037065,1,0,0,0.6177,button_left,0.6177,1,,,,,,337,NW,"ID",50,rejols,REJOLS,z,,,,,,-0.362962935,-0.287037065,1,0,0,,0,285,285,336,1,
,,,,,,,,,,,,,,,,,,5c477c3b302d8a0001c52ee2,2020-08-10_16h13.17.127,lexical_decision_task_MP,2020.1.3,Linux armv7l,60,,0,0.470370399,-0.3,1,0,0,0.7003,button_right,0.7003,1,,,,,,90,WORD,"ID",50,relish,RELISH,m,,,,,,0.470370399,-0.3,1,0,0,,0,286,286,89,1,
,,,,,,,,,,,,,,,,,,5c477c3b302d8a0001c52ee2,2020-08-10_16h13.17.127,lexical_decision_task_MP,2020.1.3,Linux armv7l,60,,0,-0.361111111,-0.275925954,1,0,0,0.6831,button_left,0.6831,1,,,,,,455,NW,UN,50,broget,TONDLE,z,,,,,,-0.361111111,-0.275925954,1,0,0,,0,287,287,454,1,
,,,,,,,,,,,,,,,,,,5c477c3b302d8a0001c52ee2,2020-08-10_16h13.17.127,lexical_decision_task_MP,2020.1.3,Linux armv7l,60,,0,0.470370399,-0.311111111,1,0,0,0.5837,button_right,0.5837,1,,,,,,208,WORD,UN,50,search,HOCKEY,m,,,,,,0.470370399,-0.311111111,1,0,0,,0,288,288,207,1,
,,,,,,,,,,,,,,,,,,5c477c3b302d8a0001c52ee2,2020-08-10_16h13.17.127,lexical_decision_task_MP,2020.1.3,Linux armv7l,60,,0,-0.36851849,-0.264814843,1,0,0,0.6168,button_left,0.6168,0,,,,,,237,WORD,UN,50,seldom,POSTER,m,,,,,,-0.36851849,-0.264814843,1,0,0,,0,289,289,236,1,
,,,,,,,,,,,,,,,,,,5c477c3b302d8a0001c52ee2,2020-08-10_16h13.17.127,lexical_decision_task_MP,2020.1.3,Linux armv7l,60,,0,0.477777778,-0.301851908,1,0,0,0.6165,button_right,0.6165,1,,,,,,50,WORD,"ID",33,snatch,SNATCH,m,,,,,,0.477777778,-0.301851908,1,0,0,,0,290,290,49,1,
,,,,,,,,,,,,,,,,,,5c477c3b302d8a0001c52ee2,2020-08-10_16h13.17.127,lexical_decision_task_MP,2020.1.3,Linux armv7l,60,,0,-0.385185157,-0.25,1,0,0,0.9677,button_left,0.9677,1,,,,,,305,NW,"ID",50,forgle,FORGLE,z,,,,,,-0.385185157,-0.25,1,0,0,,0,291,291,304,1,
,,,,,,,,,,,,,,,,,,5c477c3b302d8a0001c52ee2,2020-08-10_16h13.17.127,lexical_decision_task_MP,2020.1.3,Linux armv7l,60,,0,-0.381481467,-0.255555556,1,0,0,0.9694,button_left,0.9694,1,,,,,,418,NW,UN,33,slount,SUIDLE,z,,,,,,-0.381481467,-0.255555556,1,0,0,,0,292,292,417,1,
,,,,,,,,,,,,,,,,,,5c477c3b302d8a0001c52ee2,2020-08-10_16h13.17.127,lexical_decision_task_MP,2020.1.3,Linux armv7l,60,,0,0.470370399,-0.3,1,0,0,0.6499,button_right,0.6499,1,,,,,,140,WORD,UN,33,reason,PRINCE,m,,,,,,0.470370399,-0.3,1,0,0,,0,293,293,139,1,
,,,,,,,,,,,,,,,,,,5c477c3b302d8a0001c52ee2,2020-08-10_16h13.17.127,lexical_decision_task_MP,2020.1.3,Linux armv7l,60,,0,-0.355555556,-0.253703732,1,0,0,0.7306,button_left,0.7306,1,,,,,,334,NW,"ID",50,watmeg,WATMEG,z,,,,,,-0.355555556,-0.253703732,1,0,0,,0,294,294,333,1,
,,,,,,,,,,,,,,,,,,5c477c3b302d8a0001c52ee2,2020-08-10_16h13.17.127,lexical_decision_task_MP,2020.1.3,Linux armv7l,60,,0,0.466666667,-0.3,1,0,0,0.5658,button_right,0.5658,1,,,,,,172,WORD,UN,33,shower,PATROL,m,,,,,,0.466666667,-0.3,1,0,0,,0,295,295,171,1,
,,,,,,,,,,,,,,,,,,5c477c3b302d8a0001c52ee2,2020-08-10_16h13.17.127,lexical_decision_task_MP,2020.1.3,Linux armv7l,60,,0,0.472222222,-0.3,1,0,0,0.4827,button_right,0.4827,1,,,,,,150,WORD,UN,33,mystic,RANDOM,m,,,,,,0.472222222,-0.3,1,0,0,,0,296,296,149,1,
,,,,,,,,,,,,,,,,,,5c477c3b302d8a0001c52ee2,2020-08-10_16h13.17.127,lexical_decision_task_MP,2020.1.3,Linux armv7l,60,,0,-0.374074046,-0.253703732,1,0,0,0.65,button_left,0.65,1,,,,,,354,NW,"ID",50,virlex,VIRLEX,z,,,,,,-0.374074046,-0.253703732,1,0,0,,0,297,297,353,1,
,,,,,,,,,,,,,,,,,,5c477c3b302d8a0001c52ee2,2020-08-10_16h13.17.127,lexical_decision_task_MP,2020.1.3,Linux armv7l,60,,0,-0.35370369,-0.251851908,1,0,0,0.5665,button_left,0.5665,1,,,,,,477,NW,UN,50,acrise,PHOTIE,z,,,,,,-0.35370369,-0.251851908,1,0,0,,0,298,298,476,1,
,,,,,,,,,,,,,,,,,,5c477c3b302d8a0001c52ee2,2020-08-10_16h13.17.127,lexical_decision_task_MP,2020.1.3,Linux armv7l,60,,0,-0.355555556,-0.25,1,0,0,0.4847,button_left,0.4847,1,,,,,,424,NW,UN,50,urivel,PRAILE,z,,,,,,-0.355555556,-0.25,1,0,0,,0,299,299,423,1,
,,,,,,,,,,,,,,,,,,5c477c3b302d8a0001c52ee2,2020-08-10_16h13.17.127,lexical_decision_task_MP,2020.1.3,Linux armv7l,60,,0,-0.322222222,-0.285185242,1,0,0,0.4494,button_left,0.4494,1,,,,,,471,NW,UN,50,cigney,NOBEST,z,,,,,,-0.322222222,-0.285185242,1,0,0,,0,300,300,470,1,
,,,,,,,,,,,,,,,,,,5c477c3b302d8a0001c52ee2,2020-08-10_16h13.17.127,lexical_decision_task_MP,2020.1.3,Linux armv7l,60,,0,0.468518575,-0.3,1,0,0,0.5494,button_right,0.5494,1,,,,,,37,WORD,"ID",33,insult,INSULT,m,,,,,,0.468518575,-0.3,1,0,0,,0,301,301,36,1,
,,,,,,,,,,,,,,,,,,5c477c3b302d8a0001c52ee2,2020-08-10_16h13.17.127,lexical_decision_task_MP,2020.1.3,Linux armv7l,60,,0,-0.375925912,-0.259259288,1,0,0,0.7336,button_left,0.7336,1,,,,,,352,NW,"ID",50,tringe,TRINGE,z,,,,,,-0.375925912,-0.259259288,1,0,0,,0,302,302,351,1,
,,,,,,,,,,,,,,,,,,5c477c3b302d8a0001c52ee2,2020-08-10_16h13.17.127,lexical_decision_task_MP,2020.1.3,Linux armv7l,60,,0,0.475925954,-0.3,1,0,0,0.6003,button_right,0.6003,1,,,,,,129,WORD,UN,33,stupid,MARVEL,m,,,,,,0.475925954,-0.3,1,0,0,,0,303,303,128,1,
,,,,,,,,,,,,,,,,,,5c477c3b302d8a0001c52ee2,2020-08-10_16h13.17.127,lexical_decision_task_MP,2020.1.3,Linux armv7l,60,,0,0.462963019,-0.307407464,1,0,0,0.5498,button_right,0.5498,1,,,,,,12,WORD,"ID",33,orange,ORANGE,m,,,,,,0.462963019,-0.307407464,1,0,0,,0,304,304,11,1,
,,,,,,,,,,,,,,,,,,5c477c3b302d8a0001c52ee2,2020-08-10_16h13.17.127,lexical_decision_task_MP,2020.1.3,Linux armv7l,60,,0,0.474074131,-0.301851908,1,0,0,0.5341,button_right,0.5341,1,,,,,,119,WORD,"ID",50,spider,SPIDER,m,,,,,,0.474074131,-0.301851908,1,0,0,,0,305,305,118,1,
,,,,,,,,,,,,,,,,,,5c477c3b302d8a0001c52ee2,2020-08-10_16h13.17.127,lexical_decision_task_MP,2020.1.3,Linux armv7l,60,,0,0.466666667,-0.312963019,1,0,0,0.5665,button_right,0.5665,1,,,,,,17,WORD,"ID",33,charge,CHARGE,m,,,,,,0.466666667,-0.312963019,1,0,0,,0,306,306,16,1,
,,,,,,,,,,,,,,,,,,5c477c3b302d8a0001c52ee2,2020-08-10_16h13.17.127,lexical_decision_task_MP,2020.1.3,Linux armv7l,60,,0,-0.331481467,-0.277777778,1,0,0,0.6011,button_left,0.6011,1,,,,,,259,NW,"ID",33,soudal,SOUDAL,z,,,,,,-0.331481467,-0.277777778,1,0,0,,0,307,307,258,1,
,,,,,,,,,,,,,,,,,,5c477c3b302d8a0001c52ee2,2020-08-10_16h13.17.127,lexical_decision_task_MP,2020.1.3,Linux armv7l,60,,0,0.457407464,-0.333333333,1,0,0,0.5841,button_right,0.5841,1,,,,,,117,WORD,"ID",50,branch,BRANCH,m,,,,,,0.457407464,-0.333333333,1,0,0,,0,308,308,116,1,
,,,,,,,,,,,,,,,,,,5c477c3b302d8a0001c52ee2,2020-08-10_16h13.17.127,lexical_decision_task_MP,2020.1.3,Linux armv7l,60,,0,-0.383333333,-0.264814843,1,0,0,0.7861,button_left,0.7861,1,,,,,,432,NW,UN,50,drance,LUNKER,z,,,,,,-0.383333333,-0.264814843,1,0,0,,0,309,309,431,1,
,,,,,,,,,,,,,,,,,,5c477c3b302d8a0001c52ee2,2020-08-10_16h13.17.127,lexical_decision_task_MP,2020.1.3,Linux armv7l,60,,0,-0.366666667,-0.266666667,1,0,0,0.5494,button_left,0.5494,0,,,,,,82,WORD,"ID",50,stigma,STIGMA,m,,,,,,-0.366666667,-0.266666667,1,0,0,,0,310,310,81,1,
,,,,,,,,,,,,,,,,,,5c477c3b302d8a0001c52ee2,2020-08-10_16h13.17.127,lexical_decision_task_MP,2020.1.3,Linux armv7l,60,,0,0.414814843,-0.346296353,1,0,0,0.8698,button_right,0.8698,1,,,,,,131,WORD,UN,33,strong,QUENCH,m,,,,,,0.414814843,-0.346296353,1,0,0,,0,311,311,130,1,
,,,,,,,,,,,,,,,,,,5c477c3b302d8a0001c52ee2,2020-08-10_16h13.17.127,lexical_decision_task_MP,2020.1.3,Linux armv7l,60,,0,-0.388888889,-0.25,1,0,0,0.6658,button_left,0.6658,1,,,,,,358,NW,"ID",50,fleack,FLEACK,z,,,,,,-0.388888889,-0.25,1,0,0,,0,312,312,357,1,
,,,,,,,,,,,,,,,,,,5c477c3b302d8a0001c52ee2,2020-08-10_16h13.17.127,lexical_decision_task_MP,2020.1.3,Linux armv7l,60,,0,-0.364814801,-0.25,1,0,0,0.6705,button_left,0.6705,1,,,,,,279,NW,"ID",33,celond,CELOND,z,,,,,,-0.364814801,-0.25,1,0,0,,0,313,313,278,1,
,,,,,,,,,,,,,,,,,,5c477c3b302d8a0001c52ee2,2020-08-10_16h13.17.127,lexical_decision_task_MP,2020.1.3,Linux armv7l,60,,0,0.483333333,-0.338888889,1,0,0,0.6847,button_right,0.6847,1,,,,,,28,WORD,"ID",33,comedy,COMEDY,m,,,,,,0.483333333,-0.338888889,1,0,0,,0,314,314,27,1,
,,,,,,,,,,,,,,,,,,5c477c3b302d8a0001c52ee2,2020-08-10_16h13.17.127,lexical_decision_task_MP,2020.1.3,Linux armv7l,60,,0,0.48148151,-0.337037065,1,0,0,0.7024,button_right,0.7024,1,,,,,,101,WORD,"ID",50,wrench,WRENCH,m,,,,,,0.48148151,-0.337037065,1,0,0,,0,315,315,100,1,
,,,,,,,,,,,,,,,,,,5c477c3b302d8a0001c52ee2,2020-08-10_16h13.17.127,lexical_decision_task_MP,2020.1.3,Linux armv7l,60,,0,0.48148151,-0.35,1,0,0,0.5837,button_right,0.5837,1,,,,,,141,WORD,UN,33,spruce,ORPHAN,m,,,,,,0.48148151,-0.35,1,0,0,,0,316,316,140,1,
,,,,,,,,,,,,,,,,,,5c477c3b302d8a0001c52ee2,2020-08-10_16h13.17.127,lexical_decision_task_MP,2020.1.3,Linux armv7l,60,,0,0.492592621,-0.318518575,1,0,0,0.6995,button_right,0.6995,0,,,,,,277,NW,"ID",33,petain,PETAIN,z,,,,,,0.492592621,-0.318518575,1,0,0,,0,317,317,276,1,
,,,,,,,,,,,,,,,,,,5c477c3b302d8a0001c52ee2,2020-08-10_16h13.17.127,lexical_decision_task_MP,2020.1.3,Linux armv7l,60,,0,0.490740797,-0.344444444,1,0,0,0.5855,button_right,0.5855,1,,,,,,149,WORD,UN,33,random,INVADE,m,,,,,,0.490740797,-0.344444444,1,0,0,,0,318,318,148,1,
,,,,,,,,,,,,,,,,,,5c477c3b302d8a0001c52ee2,2020-08-10_16h13.17.127,lexical_decision_task_MP,2020.1.3,Linux armv7l,60,,0,0.498148176,-0.333333333,1,0,0,0.5329,button_right,0.5329,1,,,,,,199,WORD,UN,50,beacon,INVOKE,m,,,,,,0.498148176,-0.333333333,1,0,0,,0,319,319,198,1,
,,,,,,,,,,,,,,,,,,5c477c3b302d8a0001c52ee2,2020-08-10_16h13.17.127,lexical_decision_task_MP,2020.1.3,Linux armv7l,60,,0,-0.383333333,-0.296296353,1,0,0,0.7338,button_left,0.7338,1,,,,,,326,NW,"ID",50,iguade,IGUADE,z,,,,,,-0.383333333,-0.296296353,1,0,0,,0,320,320,325,1,
,,,,,,,,,,,,,,,,,,5c477c3b302d8a0001c52ee2,2020-08-10_16h13.17.127,lexical_decision_task_MP,2020.1.3,Linux armv7l,60,,0,-0.35370369,-0.275925954,1,0,0,0.5997,button_left,0.5997,1,,,,,,365,NW,UN,33,toshel,GUAIRT,z,,,,,,-0.35370369,-0.275925954,1,0,0,,0,321,321,364,1,
,,,,,,,,,,,,,,,,,,5c477c3b302d8a0001c52ee2,2020-08-10_16h13.17.127,lexical_decision_task_MP,2020.1.3,Linux armv7l,60,,0,-0.396296268,-0.266666667,1,0,0,0.7169,button_left,0.7169,1,,,,,,389,NW,UN,33,hatrus,WITMER,z,,,,,,-0.396296268,-0.266666667,1,0,0,,0,322,322,388,1,
,,,,,,,,,,,,,,,,,,5c477c3b302d8a0001c52ee2,2020-08-10_16h13.17.127,lexical_decision_task_MP,2020.1.3,Linux armv7l,60,,0,-0.388888889,-0.279629686,1,0,0,0.6861,button_left,0.6861,1,,,,,,398,NW,UN,33,fouret,BLUNDE,z,,,,,,-0.388888889,-0.279629686,1,0,0,,0,323,323,397,1,
,,,,,,,,,,,,,,,,,,5c477c3b302d8a0001c52ee2,2020-08-10_16h13.17.127,lexical_decision_task_MP,2020.1.3,Linux armv7l,60,,0,0.483333333,-0.335185242,1,0,0,0.7001,button_right,0.7001,1,,,,,,59,WORD,"ID",33,splint,SPLINT,m,,,,,,0.483333333,-0.335185242,1,0,0,,0,324,324,58,1,
,,,,,,,,,,,,,,,,,,5c477c3b302d8a0001c52ee2,2020-08-10_16h13.17.127,lexical_decision_task_MP,2020.1.3,Linux armv7l,60,,0,-0.388888889,-0.279629686,1,0,0,0.6512,button_left,0.6512,1,,,,,,407,NW,UN,33,hurnia,SUIVER,z,,,,,,-0.388888889,-0.279629686,1,0,0,,0,325,325,406,1,
,,,,,,,,,,,,,,,,,,5c477c3b302d8a0001c52ee2,2020-08-10_16h13.17.127,lexical_decision_task_MP,2020.1.3,Linux armv7l,60,,0,0.483333333,-0.318518575,1,0,0,0.5307,button_right,0.5307,1,,,,,,80,WORD,"ID",50,family,FAMILY,m,,,,,,0.483333333,-0.318518575,1,0,0,,0,326,326,79,1,
,,,,,,,,,,,,,,,,,,5c477c3b302d8a0001c52ee2,2020-08-10_16h13.17.127,lexical_decision_task_MP,2020.1.3,Linux armv7l,60,,0,0.479629686,-0.327777778,1,0,0,0.533,button_right,0.533,1,,,,,,180,WORD,UN,33,thrive,SILENT,m,,,,,,0.479629686,-0.327777778,1,0,0,,0,327,327,179,1,
,,,,,,,,,,,,,,,,,,5c477c3b302d8a0001c52ee2,2020-08-10_16h13.17.127,lexical_decision_task_MP,2020.1.3,Linux armv7l,60,,0,0.483333333,-0.318518575,1,0,0,0.7008,button_right,0.7008,1,,,,,,8,WORD,"ID",33,abrupt,ABRUPT,m,,,,,,0.483333333,-0.318518575,1,0,0,,0,328,328,7,1,
,,,,,,,,,,,,,,,,,,5c477c3b302d8a0001c52ee2,2020-08-10_16h13.17.127,lexical_decision_task_MP,2020.1.3,Linux armv7l,60,,0,-0.370370356,-0.292592621,1,0,0,0.8185,button_left,0.8185,1,,,,,,459,NW,UN,50,mingar,BAFENT,z,,,,,,-0.370370356,-0.292592621,1,0,0,,0,329,329,458,1,
,,,,,,,,,,,,,,,,,,5c477c3b302d8a0001c52ee2,2020-08-10_16h13.17.127,lexical_decision_task_MP,2020.1.3,Linux armv7l,60,,0,0.479629686,-0.322222222,1,0,0,0.6179,button_right,0.6179,0,,,,,,307,NW,"ID",50,kirafe,KIRAFE,z,,,,,,0.479629686,-0.322222222,1,0,0,,0,330,330,306,1,
,,,,,,,,,,,,,,,,,,5c477c3b302d8a0001c52ee2,2020-08-10_16h13.17.127,lexical_decision_task_MP,2020.1.3,Linux armv7l,60,,0,-0.379629601,-0.288888889,1,0,0,0.6661,button_left,0.6661,1,,,,,,388,NW,UN,33,witmer,CRAGIN,z,,,,,,-0.379629601,-0.288888889,1,0,0,,0,331,331,387,1,
,,,,,,,,,,,,,,,,,,5c477c3b302d8a0001c52ee2,2020-08-10_16h13.17.127,lexical_decision_task_MP,2020.1.3,Linux armv7l,60,,0,0.487037065,-0.311111111,1,0,0,1.2611,button_right,1.2611,1,,,,,,56,WORD,"ID",33,ambush,AMBUSH,m,,,,,,0.487037065,-0.311111111,1,0,0,,0,332,332,55,1,
,,,,,,,,,,,,,,,,,,5c477c3b302d8a0001c52ee2,2020-08-10_16h13.17.127,lexical_decision_task_MP,2020.1.3,Linux armv7l,60,,0,0.487037065,-0.316666667,1,0,0,0.5692,button_right,0.5692,1,,,,,,174,WORD,UN,33,fabric,TURKEY,m,,,,,,0.487037065,-0.316666667,1,0,0,,0,333,333,173,1,
,,,,,,,,,,,,,,,,,,5c477c3b302d8a0001c52ee2,2020-08-10_16h13.17.127,lexical_decision_task_MP,2020.1.3,Linux armv7l,60,,0,0.492592621,-0.303703732,1,0,0,0.5342,button_right,0.5342,1,,,,,,3,WORD,"ID",33,knight,KNIGHT,m,,,,,,0.492592621,-0.303703732,1,0,0,,0,334,334,2,1,
,,,,,,,,,,,,,,,,,,5c477c3b302d8a0001c52ee2,2020-08-10_16h13.17.127,lexical_decision_task_MP,2020.1.3,Linux armv7l,60,,0,0.485185242,-0.309259288,1,0,0,0.5513,button_right,0.5513,1,,,,,,96,WORD,"ID",50,ignore,IGNORE,m,,,,,,0.485185242,-0.309259288,1,0,0,,0,335,335,95,1,
,,,,,,,,,,,,,,,,,,5c477c3b302d8a0001c52ee2,2020-08-10_16h13.17.127,lexical_decision_task_MP,2020.1.3,Linux armv7l,60,,0,-0.390740712,-0.283333333,1,0,0,0.6346,button_left,0.6346,0,,,,,,16,WORD,"ID",33,faucet,FAUCET,m,,,,,,-0.390740712,-0.283333333,1,0,0,,0,336,336,15,1,
,,,,,,,,,,,,,,,,,,5c477c3b302d8a0001c52ee2,2020-08-10_16h13.17.127,lexical_decision_task_MP,2020.1.3,Linux armv7l,60,,0,-0.401851824,-0.266666667,1,0,0,0.7366,button_left,0.7366,1,,,,,,467,NW,UN,50,wictor,GORBIE,z,,,,,,-0.401851824,-0.266666667,1,0,0,,0,337,337,466,1,
,,,,,,,,,,,,,,,,,,5c477c3b302d8a0001c52ee2,2020-08-10_16h13.17.127,lexical_decision_task_MP,2020.1.3,Linux armv7l,60,,0,-0.392592578,-0.268518575,1,0,0,0.6664,button_left,0.6664,1,,,,,,445,NW,UN,50,runamo,MINKEL,z,,,,,,-0.392592578,-0.268518575,1,0,0,,0,338,338,444,1,
,,,,,,,,,,,,,,,,,,5c477c3b302d8a0001c52ee2,2020-08-10_16h13.17.127,lexical_decision_task_MP,2020.1.3,Linux armv7l,60,,0,0.490740797,-0.3,1,0,0,0.6509,button_right,0.6509,1,,,,,,226,WORD,UN,50,flower,CASINO,m,,,,,,0.490740797,-0.3,1,0,0,,0,339,339,225,1,
,,,,,,,,,,,,,,,,,,5c477c3b302d8a0001c52ee2,2020-08-10_16h13.17.127,lexical_decision_task_MP,2020.1.3,Linux armv7l,60,,0,-0.327777778,-0.257407464,1,0,0,0.7005,button_left,0.7005,1,,,,,,299,NW,"ID",33,sturch,STURCH,z,,,,,,-0.327777778,-0.257407464,1,0,0,,0,340,340,298,1,
,,,,,,,,,,,,,,,,,,5c477c3b302d8a0001c52ee2,2020-08-10_16h13.17.127,lexical_decision_task_MP,2020.1.3,Linux armv7l,60,,0,-0.298148134,-0.303703732,1,0,0,0.6166,button_left,0.6166,1,,,,,,461,NW,UN,50,absult,JUSTRE,z,,,,,,-0.298148134,-0.303703732,1,0,0,,0,341,341,460,1,
,,,,,,,,,,,,,,,,,,5c477c3b302d8a0001c52ee2,2020-08-10_16h13.17.127,lexical_decision_task_MP,2020.1.3,Linux armv7l,60,,0,0.459259288,-0.307407464,1,0,0,0.5844,button_right,0.5844,1,,,,,,153,WORD,UN,33,author,BEHOLD,m,,,,,,0.459259288,-0.307407464,1,0,0,,0,342,342,152,1,
,,,,,,,,,,,,,,,,,,5c477c3b302d8a0001c52ee2,2020-08-10_16h13.17.127,lexical_decision_task_MP,2020.1.3,Linux armv7l,60,,0,0.485185242,-0.3,1,0,0,0.7683,button_right,0.7683,1,,,,,,114,WORD,"ID",50,placid,PLACID,m,,,,,,0.485185242,-0.3,1,0,0,,0,343,343,113,1,
,,,,,,,,,,,,,,,,,,5c477c3b302d8a0001c52ee2,2020-08-10_16h13.17.127,lexical_decision_task_MP,2020.1.3,Linux armv7l,60,,0,-0.333333333,-0.274074131,1,0,0,0.9185,button_left,0.9185,1,,,,,,286,NW,"ID",33,reldon,RELDON,z,,,,,,-0.333333333,-0.274074131,1,0,0,,0,344,344,285,1,
