counterbalancing_condition,instr_done_keyboard.keys,instr_done_touch.x,instr_done_touch.y,instr_done_touch.leftButton,instr_done_touch.midButton,instr_done_touch.rightButton,instr_done_touch.clicked_name,instruction_pages.thisRepN,instruction_pages.thisTrialN,instruction_pages.thisN,instruction_pages.thisIndex,instruction_pages.ran,pageN,phase,instruct_text,has_image,instruct_image,participant,date,expName,psychopyVersion,OS,frameRate,response.keys,response.corr,touch_resp.x,touch_resp.y,touch_resp.leftButton,touch_resp.midButton,touch_resp.rightButton,touch_resp.time,touch_resp.clicked_name,rt,corr,practice_trials.thisRepN,practice_trials.thisTrialN,practice_trials.thisN,practice_trials.thisIndex,practice_trials.ran,TrialID,StimulusType,Condition,PrimeDuration,Prime,Target,corrAns,end_of_practice_trials_pages.thisRepN,end_of_practice_trials_pages.thisTrialN,end_of_practice_trials_pages.thisN,end_of_practice_trials_pages.thisIndex,end_of_practice_trials_pages.ran,break_done_touch.x,break_done_touch.y,break_done_touch.leftButton,break_done_touch.midButton,break_done_touch.rightButton,break_done_keyboard.keys,trials.thisRepN,trials.thisTrialN,trials.thisN,trials.thisIndex,trials.ran,break_done_touch.clicked_name
1,,-0.031169028,-0.386052546,1,0,0,instr_done_button,0,0,0,0,1,1,instructions,"INSTRUCTIONS
At the start of each trial, look at the hash marks (######) in the center of the screen. After a moment, a string of letters will appear. Your task is to indicate if the letter string forms a word or not (i.e., if it is a nonword). For example, AUTHOR is a word while AUTHON is a nonword.

Press the space bar or touch the button below to continue.",0,,5c576413a7890b0001f59a92,2020-08-10_16h12.16.981,lexical_decision_task_MP,2020.1.3,Linux armv8l,60,,,,,,,,,,,,,,,,,,,,,,,,,,,,,,,,,,,,,,,,
,,0.038198291,-0.397151299,1,0,0,instr_done_button,0,1,1,1,1,2,instructions,"If your device has a keyboard, press the 'Z' key for nonwords and the 'M' key for words.





Press the space bar or touch the button below to continue.",1,keyboard-example.gif,5c576413a7890b0001f59a92,2020-08-10_16h12.16.981,lexical_decision_task_MP,2020.1.3,Linux armv8l,60,,,,,,,,,,,,,,,,,,,,,,,,,,,,,,,,,,,,,,,,
,,-0.010821288,-0.397151299,1,0,0,instr_done_button,0,2,2,2,1,3,instructions,"If you are using a touchscreen only device, use the buttons on the screen. Do not use the mouse.





Press the space bar or touch the button below to continue.",1,touchscreen-example.gif,5c576413a7890b0001f59a92,2020-08-10_16h12.16.981,lexical_decision_task_MP,2020.1.3,Linux armv8l,60,,,,,,,,,,,,,,,,,,,,,,,,,,,,,,,,,,,,,,,,
,,0.028949306,-0.391601922,1,0,0,instr_done_button,0,3,3,3,1,4,instructions,"It is very important that you respond as quickly and accurately as possible, as each letter string will only be on the screen for two seconds. If you do not respond within this time, the message 'Too slow!' will be displayed and the experiment will progress to the next letter string. The first 20 trials will be practice trials and you will receive feedback on your answers. 

Press the space bar or touch the button below to start the practice trials.",0,,5c576413a7890b0001f59a92,2020-08-10_16h12.16.981,lexical_decision_task_MP,2020.1.3,Linux armv8l,60,,,,,,,,,,,,,,,,,,,,,,,,,,,,,,,,,,,,,,,,
,,,,,,,,,,,,,,,,,,5c576413a7890b0001f59a92,2020-08-10_16h12.16.981,lexical_decision_task_MP,2020.1.3,Linux armv8l,60,,0,-0.426100605,-0.316685155,1,0,0,1.3492,button_left,1.3492,1,0,0,0,8,1,1009,NW,"ID",33,aslert,ASLERT,z,,,,,,,,,,,,,,,,,
,,,,,,,,,,,,,,,,,,5c576413a7890b0001f59a92,2020-08-10_16h12.16.981,lexical_decision_task_MP,2020.1.3,Linux armv8l,60,,0,-0.371531648,-0.274139836,1,0,0,0.7987,button_left,0.7987,1,0,1,1,11,1,1012,NW,"ID",50,rashet,RASHET,z,,,,,,,,,,,,,,,,,
,,,,,,,,,,,,,,,,,,5c576413a7890b0001f59a92,2020-08-10_16h12.16.981,lexical_decision_task_MP,2020.1.3,Linux armv8l,60,,0,-0.408527554,-0.24639288,1,0,0,0.9427,button_left,0.9427,1,0,2,2,15,1,1016,NW,UN,50,mushed,WHAISE,z,,,,,,,,,,,,,,,,,
,,,,,,,,,,,,,,,,,,5c576413a7890b0001f59a92,2020-08-10_16h12.16.981,lexical_decision_task_MP,2020.1.3,Linux armv8l,60,,0,-0.339160199,-0.282463937,1,0,0,0.7857,button_left,0.7857,1,0,3,3,9,1,1010,NW,"ID",33,fariny,FARINY,z,,,,,,,,,,,,,,,,,
,,,,,,,,,,,,,,,,,,5c576413a7890b0001f59a92,2020-08-10_16h12.16.981,lexical_decision_task_MP,2020.1.3,Linux armv8l,60,,0,0.388734782,-0.310210894,1,0,0,0.6347,button_right,0.6347,1,0,4,4,4,1,1005,WORD,UN,33,abound,SQUEAK,m,,,,,,,,,,,,,,,,,
,,,,,,,,,,,,,,,,,,5c576413a7890b0001f59a92,2020-08-10_16h12.16.981,lexical_decision_task_MP,2020.1.3,Linux armv8l,60,,0,-0.296614881,-0.285238662,1,0,0,0.8884,button_left,0.8884,1,0,5,5,14,1,1015,NW,UN,50,miaber,THRALE,z,,,,,,,,,,,,,,,,,
,,,,,,,,,,,,,,,,,,5c576413a7890b0001f59a92,2020-08-10_16h12.16.981,lexical_decision_task_MP,2020.1.3,Linux armv8l,60,,0,0.350813956,-0.328708865,1,0,0,0.6859,button_right,0.6859,1,0,6,6,7,1,1008,WORD,UN,50,hurdle,VOLUME,m,,,,,,,,,,,,,,,,,
,,,,,,,,,,,,,,,,,,5c576413a7890b0001f59a92,2020-08-10_16h12.16.981,lexical_decision_task_MP,2020.1.3,Linux armv8l,60,,0,0.401683304,-0.374953792,1,0,0,0.7819,button_right,0.7819,1,0,7,7,1,1,1002,WORD,"ID",33,adjust,ADJUST,m,,,,,,,,,,,,,,,,,
,,,,,,,,,,,,,,,,,,5c576413a7890b0001f59a92,2020-08-10_16h12.16.981,lexical_decision_task_MP,2020.1.3,Linux armv8l,60,,0,0.350813956,-0.312060662,1,0,0,0.6348,button_right,0.6348,1,0,8,8,5,1,1006,WORD,UN,33,frenzy,OBTAIN,m,,,,,,,,,,,,,,,,,
,,,,,,,,,,,,,,,,,,5c576413a7890b0001f59a92,2020-08-10_16h12.16.981,lexical_decision_task_MP,2020.1.3,Linux armv8l,60,,0,-0.344709576,-0.302811677,1,0,0,0.9853,button_left,0.9853,1,0,9,9,13,1,1014,NW,UN,33,winfer,ROUPET,z,,,,,,,,,,,,,,,,,
,,,,,,,,,,,,,,,,,,5c576413a7890b0001f59a92,2020-08-10_16h12.16.981,lexical_decision_task_MP,2020.1.3,Linux armv8l,60,,0,0.340640086,-0.300037024,1,0,0,0.5828,button_right,0.5828,1,0,10,10,2,1,1003,WORD,"ID",50,almond,ALMOND,m,,,,,,,,,,,,,,,,,
,,,,,,,,,,,,,,,,,,5c576413a7890b0001f59a92,2020-08-10_16h12.16.981,lexical_decision_task_MP,2020.1.3,Linux armv8l,60,,0,-0.378005909,-0.313910502,1,0,0,0.8812,button_left,0.8812,1,0,11,11,10,1,1011,NW,"ID",50,inlade,INLADE,z,,,,,,,,,,,,,,,,,
,,,,,,,,,,,,,,,,,,5c576413a7890b0001f59a92,2020-08-10_16h12.16.981,lexical_decision_task_MP,2020.1.3,Linux armv8l,60,,0,0.322142115,-0.325009256,1,0,0,0.6975,button_right,0.6975,1,0,12,12,0,1,1001,WORD,"ID",33,utopia,UTOPIA,m,,,,,,,,,,,,,,,,,
,,,,,,,,,,,,,,,,,,5c576413a7890b0001f59a92,2020-08-10_16h12.16.981,lexical_decision_task_MP,2020.1.3,Linux armv8l,60,,0,0.326766536,-0.296337416,1,0,0,0.6992,button_right,0.6992,1,0,13,13,6,1,1007,WORD,UN,50,tropic,ZOMBIE,m,,,,,,,,,,,,,,,,,
,,,,,,,,,,,,,,,,,,5c576413a7890b0001f59a92,2020-08-10_16h12.16.981,lexical_decision_task_MP,2020.1.3,Linux armv8l,60,,0,-0.36783204,-0.322234604,1,0,0,0.8336,button_left,0.8336,1,0,14,14,12,1,1013,NW,UN,33,adveil,SPRINY,z,,,,,,,,,,,,,,,,,
,,,,,,,,,,,,,,,,,,5c576413a7890b0001f59a92,2020-08-10_16h12.16.981,lexical_decision_task_MP,2020.1.3,Linux armv8l,60,,0,0.362837594,-0.330558633,1,0,0,0.6482,button_right,0.6482,1,0,15,15,3,1,1004,WORD,"ID",50,matrix,MATRIX,m,,,,,,,,,,,,,,,,,
,,-0.079339378,-0.3787437,1,0,0,instr_done_button,,,,,,1,end_of_practice,"You have completed the practice trials. During the experimental trials, you will not receive feedback, but it is very important that you respond as quickly and accurately as possible. 
Before you begin, please ensure that you are in a comfortable and quiet location and will not be disturbed for about 15 minutes, as we cannot use your data if you do not complete all the trials. 
There will be opportunities to take breaks at regular intervals during the experiment. When you are ready to start the experimental trials, please press space or touch the button below.",,,5c576413a7890b0001f59a92,2020-08-10_16h12.16.981,lexical_decision_task_MP,2020.1.3,Linux armv8l,60,,,,,,,,,,,,,,,,,,,,,,,,0,0,0,0,1,,,,,,,,,,,,
,,,,,,,,,,,,,,,,,,5c576413a7890b0001f59a92,2020-08-10_16h12.16.981,lexical_decision_task_MP,2020.1.3,Linux armv8l,60,,0,0.385877856,-0.30541502,1,0,0,0.6646,button_right,0.6646,1,,,,,,35,WORD,"ID",33,socket,SOCKET,m,,,,,,0.385877856,-0.30541502,1,0,0,,0,0,0,34,1,
,,,,,,,,,,,,,,,,,,5c576413a7890b0001f59a92,2020-08-10_16h12.16.981,lexical_decision_task_MP,2020.1.3,Linux armv8l,60,,0,-0.33178284,-0.349893046,1,0,0,0.7279,button_left,0.7279,1,,,,,,403,NW,UN,33,cluirm,BRUATS,z,,,,,,-0.33178284,-0.349893046,1,0,0,,0,1,1,402,1,
,,,,,,,,,,,,,,,,,,5c576413a7890b0001f59a92,2020-08-10_16h12.16.981,lexical_decision_task_MP,2020.1.3,Linux armv8l,60,,0,0.384675812,-0.349893046,1,0,0,0.7049,button_right,0.7049,1,,,,,,165,WORD,UN,33,starch,INVEST,m,,,,,,0.384675812,-0.349893046,1,0,0,,0,2,2,164,1,
,,,,,,,,,,,,,,,,,,5c576413a7890b0001f59a92,2020-08-10_16h12.16.981,lexical_decision_task_MP,2020.1.3,Linux armv8l,60,,0,0.357027202,-0.312627605,1,0,0,0.5345,button_right,0.5345,1,,,,,,110,WORD,"ID",50,polite,POLITE,m,,,,,,0.357027202,-0.312627605,1,0,0,,0,3,3,109,1,
,,,,,,,,,,,,,,,,,,5c576413a7890b0001f59a92,2020-08-10_16h12.16.981,lexical_decision_task_MP,2020.1.3,Linux armv8l,60,,0,-0.330580716,-0.349893046,1,0,0,0.6638,button_left,0.6638,1,,,,,,343,NW,"ID",50,aimosy,AIMOSY,z,,,,,,-0.330580716,-0.349893046,1,0,0,,0,4,4,342,1,
,,,,,,,,,,,,,,,,,,5c576413a7890b0001f59a92,2020-08-10_16h12.16.981,lexical_decision_task_MP,2020.1.3,Linux armv8l,60,,0,-0.375058901,-0.306617065,1,0,0,0.8152,button_left,0.8152,1,,,,,,429,NW,UN,50,caroey,FUNTLE,z,,,,,,-0.375058901,-0.306617065,1,0,0,,0,5,5,428,1,
,,,,,,,,,,,,,,,,,,5c576413a7890b0001f59a92,2020-08-10_16h12.16.981,lexical_decision_task_MP,2020.1.3,Linux armv8l,60,,0,0.477238472,-0.3787437,1,0,0,0.5475,button_right,0.5475,1,,,,,,75,WORD,"ID",50,trophy,TROPHY,m,,,,,,0.477238472,-0.3787437,1,0,0,,0,6,6,74,1,
,,,,,,,,,,,,,,,,,,5c576413a7890b0001f59a92,2020-08-10_16h12.16.981,lexical_decision_task_MP,2020.1.3,Linux armv8l,60,,0,0.314953265,-0.292191659,1,0,0,0.5483,button_right,0.5483,1,,,,,,80,WORD,"ID",50,family,FAMILY,m,,,,,,0.314953265,-0.292191659,1,0,0,,0,7,7,79,1,
,,,,,,,,,,,,,,,,,,5c576413a7890b0001f59a92,2020-08-10_16h12.16.981,lexical_decision_task_MP,2020.1.3,Linux armv8l,60,,0,0.37866543,-0.343882506,1,0,0,0.6488,button_right,0.6488,1,,,,,,82,WORD,"ID",50,stigma,STIGMA,m,,,,,,0.37866543,-0.343882506,1,0,0,,0,8,8,81,1,
,,,,,,,,,,,,,,,,,,5c576413a7890b0001f59a92,2020-08-10_16h12.16.981,lexical_decision_task_MP,2020.1.3,Linux armv8l,60,,0,0.408717971,-0.30781911,1,0,0,0.6738,button_right,0.6738,1,,,,,,134,WORD,UN,33,import,STAPLE,m,,,,,,0.408717971,-0.30781911,1,0,0,,0,9,9,133,1,
,,,,,,,,,,,,,,,,,,5c576413a7890b0001f59a92,2020-08-10_16h12.16.981,lexical_decision_task_MP,2020.1.3,Linux armv8l,60,,0,-0.411122218,-0.289787411,1,0,0,0.6312,button_left,0.6312,1,,,,,,359,NW,"ID",50,fonver,FONVER,z,,,,,,-0.411122218,-0.289787411,1,0,0,,0,10,10,358,1,
,,,,,,,,,,,,,,,,,,5c576413a7890b0001f59a92,2020-08-10_16h12.16.981,lexical_decision_task_MP,2020.1.3,Linux armv8l,60,,0,0.372654732,-0.330659303,1,0,0,0.5818,button_right,0.5818,1,,,,,,22,WORD,"ID",33,jockey,JOCKEY,m,,,,,,0.372654732,-0.330659303,1,0,0,,0,11,11,21,1,
,,,,,,,,,,,,,,,,,,5c576413a7890b0001f59a92,2020-08-10_16h12.16.981,lexical_decision_task_MP,2020.1.3,Linux armv8l,60,,0,-0.371452529,-0.282574748,1,0,0,0.6488,button_left,0.6488,1,,,,,,330,NW,"ID",50,kensom,KENSOM,z,,,,,,-0.371452529,-0.282574748,1,0,0,,0,12,12,329,1,
,,,,,,,,,,,,,,,,,,5c576413a7890b0001f59a92,2020-08-10_16h12.16.981,lexical_decision_task_MP,2020.1.3,Linux armv8l,60,,0,-0.375058901,-0.306617065,1,0,0,0.7997,button_left,0.7997,1,,,,,,284,NW,"ID",33,shaple,SHAPLE,z,,,,,,-0.375058901,-0.306617065,1,0,0,,0,13,13,283,1,
,,,,,,,,,,,,,,,,,,5c576413a7890b0001f59a92,2020-08-10_16h12.16.981,lexical_decision_task_MP,2020.1.3,Linux armv8l,60,,0,0.372654732,-0.327052932,1,0,0,0.613,button_right,0.613,1,,,,,,91,WORD,"ID",50,expand,EXPAND,m,,,,,,0.372654732,-0.327052932,1,0,0,,0,14,14,90,1,
,,,,,,,,,,,,,,,,,,5c576413a7890b0001f59a92,2020-08-10_16h12.16.981,lexical_decision_task_MP,2020.1.3,Linux armv8l,60,,0,0.43636658,-0.381147948,1,0,0,0.6077,button_right,0.6077,1,,,,,,195,WORD,UN,50,credit,RESIGN,m,,,,,,0.43636658,-0.381147948,1,0,0,,0,15,15,194,1,
,,,,,,,,,,,,,,,,,,5c576413a7890b0001f59a92,2020-08-10_16h12.16.981,lexical_decision_task_MP,2020.1.3,Linux armv8l,60,,0,0.382271564,-0.348691001,1,0,0,0.6706,button_right,0.6706,1,,,,,,143,WORD,UN,33,sponge,REASON,m,,,,,,0.382271564,-0.348691001,1,0,0,,0,16,16,142,1,
,,,,,,,,,,,,,,,,,,5c576413a7890b0001f59a92,2020-08-10_16h12.16.981,lexical_decision_task_MP,2020.1.3,Linux armv8l,60,,0,0.355825157,-0.330659303,1,0,0,0.6653,button_right,0.6653,1,,,,,,30,WORD,"ID",33,orient,ORIENT,m,,,,,,0.355825157,-0.330659303,1,0,0,,0,17,17,29,1,
,,,,,,,,,,,,,,,,,,5c576413a7890b0001f59a92,2020-08-10_16h12.16.981,lexical_decision_task_MP,2020.1.3,Linux armv8l,60,,0,0.384675812,-0.379945824,1,0,0,0.644,button_right,0.644,1,,,,,,220,WORD,UN,50,mascot,VOYAGE,m,,,,,,0.384675812,-0.379945824,1,0,0,,0,18,18,219,1,
,,,,,,,,,,,,,,,,,,5c576413a7890b0001f59a92,2020-08-10_16h12.16.981,lexical_decision_task_MP,2020.1.3,Linux armv8l,60,,0,0.32817639,-0.327052932,1,0,0,0.664,button_right,0.664,1,,,,,,13,WORD,"ID",33,strive,STRIVE,m,,,,,,0.32817639,-0.327052932,1,0,0,,0,19,19,12,1,
,,,,,,,,,,,,,,,,,,5c576413a7890b0001f59a92,2020-08-10_16h12.16.981,lexical_decision_task_MP,2020.1.3,Linux armv8l,60,,0,-0.424345422,-0.33546764,1,0,0,0.6717,button_left,0.6717,1,,,,,,270,NW,"ID",33,wrimsy,WRIMSY,z,,,,,,-0.424345422,-0.33546764,1,0,0,,0,20,20,269,1,
,,,,,,,,,,,,,,,,,,5c576413a7890b0001f59a92,2020-08-10_16h12.16.981,lexical_decision_task_MP,2020.1.3,Linux armv8l,60,,0,0.388282104,-0.337871967,1,0,0,0.8651,button_right,0.8651,1,,,,,,224,WORD,UN,50,vulgar,PERIOD,m,,,,,,0.388282104,-0.337871967,1,0,0,,0,21,21,223,1,
,,,,,,,,,,,,,,,,,,5c576413a7890b0001f59a92,2020-08-10_16h12.16.981,lexical_decision_task_MP,2020.1.3,Linux armv8l,60,,0,-0.359431371,-0.367924745,1,0,0,0.7012,button_left,0.7012,1,,,,,,348,NW,"ID",50,dumple,DUMPLE,z,,,,,,-0.359431371,-0.367924745,1,0,0,,0,22,22,347,1,
,,,,,,,,,,,,,,,,,,5c576413a7890b0001f59a92,2020-08-10_16h12.16.981,lexical_decision_task_MP,2020.1.3,Linux armv8l,60,,0,0.449589863,-0.375137408,1,0,0,0.6486,button_right,0.6486,1,,,,,,146,WORD,UN,33,garlic,COUPLE,m,,,,,,0.449589863,-0.375137408,1,0,0,,0,23,23,145,1,
,,,,,,,,,,,,,,,,,,5c576413a7890b0001f59a92,2020-08-10_16h12.16.981,lexical_decision_task_MP,2020.1.3,Linux armv8l,60,,0,0.3257723,-0.337871967,1,0,0,0.7818,button_right,0.7818,1,,,,,,188,WORD,UN,50,censor,SOCIAL,m,,,,,,0.3257723,-0.337871967,1,0,0,,0,24,24,187,1,
,,,,,,,,,,,,,,,,,,5c576413a7890b0001f59a92,2020-08-10_16h12.16.981,lexical_decision_task_MP,2020.1.3,Linux armv8l,60,,0,0.311346973,-0.316233897,1,0,0,0.6977,button_right,0.6977,1,,,,,,115,WORD,"ID",50,guitar,GUITAR,m,,,,,,0.311346973,-0.316233897,1,0,0,,0,25,25,114,1,
,,,,,,,,,,,,,,,,,,5c576413a7890b0001f59a92,2020-08-10_16h12.16.981,lexical_decision_task_MP,2020.1.3,Linux armv8l,60,,0,-0.378665272,-0.300606446,1,0,0,0.7982,button_left,0.7982,1,,,,,,354,NW,"ID",50,virlex,VIRLEX,z,,,,,,-0.378665272,-0.300606446,1,0,0,,0,26,26,353,1,
,,,,,,,,,,,,,,,,,,5c576413a7890b0001f59a92,2020-08-10_16h12.16.981,lexical_decision_task_MP,2020.1.3,Linux armv8l,60,,0,0.406313881,-0.34748872,1,0,0,0.6481,button_right,0.6481,1,,,,,,133,WORD,UN,33,debris,CHROME,m,,,,,,0.406313881,-0.34748872,1,0,0,,0,27,27,132,1,
,,,,,,,,,,,,,,,,,,5c576413a7890b0001f59a92,2020-08-10_16h12.16.981,lexical_decision_task_MP,2020.1.3,Linux armv8l,60,,0,-0.395494767,-0.354701541,1,0,0,0.71,button_left,0.71,1,,,,,,307,NW,"ID",50,kirafe,KIRAFE,z,,,,,,-0.395494767,-0.354701541,1,0,0,,0,28,28,306,1,
,,,,,,,,,,,,,,,,,,5c576413a7890b0001f59a92,2020-08-10_16h12.16.981,lexical_decision_task_MP,2020.1.3,Linux armv8l,60,,0,0.367846237,-0.312627605,1,0,0,0.6486,button_right,0.6486,1,,,,,,147,WORD,UN,33,custom,GARLIC,m,,,,,,0.367846237,-0.312627605,1,0,0,,0,29,29,146,1,
,,,,,,,,,,,,,,,,,,5c576413a7890b0001f59a92,2020-08-10_16h12.16.981,lexical_decision_task_MP,2020.1.3,Linux armv8l,60,,0,-0.419537006,-0.337871967,1,0,0,0.8645,button_left,0.8645,1,,,,,,299,NW,"ID",33,sturch,STURCH,z,,,,,,-0.419537006,-0.337871967,1,0,0,,0,30,30,298,1,
,,,,,,,,,,,,,,,,,,5c576413a7890b0001f59a92,2020-08-10_16h12.16.981,lexical_decision_task_MP,2020.1.3,Linux armv8l,60,,0,-0.361835618,-0.317435942,1,0,0,0.7856,button_left,0.7856,1,,,,,,388,NW,UN,33,witmer,CRAGIN,z,,,,,,-0.361835618,-0.317435942,1,0,0,,0,31,31,387,1,
,,,,,,,,,,,,,,,,,,5c576413a7890b0001f59a92,2020-08-10_16h12.16.981,lexical_decision_task_MP,2020.1.3,Linux armv8l,60,,0,-0.313751221,-0.329457021,1,0,0,0.7515,button_left,0.7515,1,,,,,,479,NW,UN,50,josted,LOBUSH,z,,,,,,-0.313751221,-0.329457021,1,0,0,,0,32,32,478,1,
,,,,,,,,,,,,,,,,,,5c576413a7890b0001f59a92,2020-08-10_16h12.16.981,lexical_decision_task_MP,2020.1.3,Linux armv8l,60,,0,0.38948399,-0.297000075,1,0,0,0.7827,button_right,0.7827,1,,,,,,108,WORD,"ID",50,reckon,RECKON,m,,,,,,0.38948399,-0.297000075,1,0,0,,0,33,33,107,1,
,,,,,,,,,,,,,,,,,,5c576413a7890b0001f59a92,2020-08-10_16h12.16.981,lexical_decision_task_MP,2020.1.3,Linux armv8l,60,,0,0.429153838,-0.352297294,1,0,0,0.7761,button_right,0.7761,1,,,,,,174,WORD,UN,33,fabric,TURKEY,m,,,,,,0.429153838,-0.352297294,1,0,0,,0,34,34,173,1,
,,,,,,,,,,,,,,,,,,5c576413a7890b0001f59a92,2020-08-10_16h12.16.981,lexical_decision_task_MP,2020.1.3,Linux armv8l,60,,0,0.346208167,-0.289787411,1,0,0,0.6469,button_right,0.6469,1,,,,,,99,WORD,"ID",50,fluent,FLUENT,m,,,,,,0.346208167,-0.289787411,1,0,0,,0,35,35,98,1,
,,,,,,,,,,,,,,,,,,5c576413a7890b0001f59a92,2020-08-10_16h12.16.981,lexical_decision_task_MP,2020.1.3,Linux armv8l,60,,0,-0.358229326,-0.33546764,1,0,0,0.8151,button_left,0.8151,1,,,,,,432,NW,UN,50,drance,LUNKER,z,,,,,,-0.358229326,-0.33546764,1,0,0,,0,36,36,431,1,
,,,,,,,,,,,,,,,,,,5c576413a7890b0001f59a92,2020-08-10_16h12.16.981,lexical_decision_task_MP,2020.1.3,Linux armv8l,60,,0,-0.370250405,-0.276564208,1,0,0,0.8007,button_left,0.8007,1,,,,,,374,NW,UN,33,yorque,SLIANT,z,,,,,,-0.370250405,-0.276564208,1,0,0,,0,37,37,373,1,
,,,,,,,,,,,,,,,,,,5c576413a7890b0001f59a92,2020-08-10_16h12.16.981,lexical_decision_task_MP,2020.1.3,Linux armv8l,60,,0,-0.3257723,-0.323446481,1,0,0,0.682,button_left,0.682,1,,,,,,264,NW,"ID",33,vackel,VACKEL,z,,,,,,-0.3257723,-0.323446481,1,0,0,,0,38,38,263,1,
,,,,,,,,,,,,,,,,,,5c576413a7890b0001f59a92,2020-08-10_16h12.16.981,lexical_decision_task_MP,2020.1.3,Linux armv8l,60,,0,-0.403909555,-0.294595906,1,0,0,0.6459,button_left,0.6459,1,,,,,,459,NW,UN,50,mingar,BAFENT,z,,,,,,-0.403909555,-0.294595906,1,0,0,,0,39,39,458,1,
,,,,,,,,,,,,,,,,,,5c576413a7890b0001f59a92,2020-08-10_16h12.16.981,lexical_decision_task_MP,2020.1.3,Linux armv8l,60,,0,0.296921646,-0.252521969,1,0,0,0.6321,button_right,0.6321,1,,,,,,90,WORD,"ID",50,relish,RELISH,m,,,,,,0.296921646,-0.252521969,1,0,0,,0,40,40,89,1,
,,,,,,,,,,,,,,,,,,5c576413a7890b0001f59a92,2020-08-10_16h12.16.981,lexical_decision_task_MP,2020.1.3,Linux armv8l,60,,0,0.406313881,-0.395573275,1,0,0,0.609,button_right,0.609,1,,,,,,34,WORD,"ID",33,jungle,JUNGLE,m,,,,,,0.406313881,-0.395573275,1,0,0,,0,41,41,33,1,
,,,,,,,,,,,,,,,,,,5c576413a7890b0001f59a92,2020-08-10_16h12.16.981,lexical_decision_task_MP,2020.1.3,Linux armv8l,60,,0,0.283698364,-0.300606446,1,0,0,0.6645,button_right,0.6645,1,,,,,,163,WORD,UN,33,market,STRING,m,,,,,,0.283698364,-0.300606446,1,0,0,,0,42,42,162,1,
,,,,,,,,,,,,,,,,,,5c576413a7890b0001f59a92,2020-08-10_16h12.16.981,lexical_decision_task_MP,2020.1.3,Linux armv8l,60,,0,0.345006122,-0.376339453,1,0,0,0.5408,button_right,0.5408,1,,,,,,62,WORD,"ID",50,region,REGION,m,,,,,,0.345006122,-0.376339453,1,0,0,,0,43,43,61,1,
,,,,,,,,,,,,,,,,,,5c576413a7890b0001f59a92,2020-08-10_16h12.16.981,lexical_decision_task_MP,2020.1.3,Linux armv8l,60,,0,-0.489259473,-0.33546764,1,0,0,0.6317,button_left,0.6317,1,,,,,,337,NW,"ID",50,rejols,REJOLS,z,,,,,,-0.489259473,-0.33546764,1,0,0,,0,44,44,336,1,
,,,,,,,,,,,,,,,,,,5c576413a7890b0001f59a92,2020-08-10_16h12.16.981,lexical_decision_task_MP,2020.1.3,Linux armv8l,60,,0,0.384675812,-0.35109517,1,0,0,0.625,button_right,0.625,1,,,,,,141,WORD,UN,33,spruce,ORPHAN,m,,,,,,0.384675812,-0.35109517,1,0,0,,0,45,45,140,1,
,,,,,,,,,,,,,,,,,,5c576413a7890b0001f59a92,2020-08-10_16h12.16.981,lexical_decision_task_MP,2020.1.3,Linux armv8l,60,,0,-0.449589784,-0.361914126,1,0,0,0.5817,button_left,0.5817,1,,,,,,355,NW,"ID",50,zingly,ZINGLY,z,,,,,,-0.449589784,-0.361914126,1,0,0,,0,46,46,354,1,
,,,,,,,,,,,,,,,,,,5c576413a7890b0001f59a92,2020-08-10_16h12.16.981,lexical_decision_task_MP,2020.1.3,Linux armv8l,60,,0,0.37866543,-0.361914126,1,0,0,0.5634,button_right,0.5634,1,,,,,,46,WORD,"ID",33,single,SINGLE,m,,,,,,0.37866543,-0.361914126,1,0,0,,0,47,47,45,1,
,,,,,,,,,,,,,,,,,,5c576413a7890b0001f59a92,2020-08-10_16h12.16.981,lexical_decision_task_MP,2020.1.3,Linux armv8l,60,,0,-0.421941332,-0.359509957,1,0,0,0.716,button_left,0.716,1,,,,,,368,NW,UN,33,wronch,HORNAL,z,,,,,,-0.421941332,-0.359509957,1,0,0,,0,48,48,367,1,
,,,,,,,,,,,,,,,,,,5c576413a7890b0001f59a92,2020-08-10_16h12.16.981,lexical_decision_task_MP,2020.1.3,Linux armv8l,60,,0,-0.425547545,-0.287383322,1,0,0,0.6524,button_left,0.6524,1,,,,,,380,NW,UN,33,huniek,CAVORY,z,,,,,,-0.425547545,-0.287383322,1,0,0,,0,49,49,379,1,
,,,,,,,,,,,,,,,,,,5c576413a7890b0001f59a92,2020-08-10_16h12.16.981,lexical_decision_task_MP,2020.1.3,Linux armv8l,60,,0,0.35943145,-0.343882506,1,0,0,0.6469,button_right,0.6469,1,,,,,,137,WORD,UN,33,melody,FINGER,m,,,,,,0.35943145,-0.343882506,1,0,0,,0,50,50,136,1,
,,,,,,,,,,,,,,,,,,5c576413a7890b0001f59a92,2020-08-10_16h12.16.981,lexical_decision_task_MP,2020.1.3,Linux armv8l,60,,0,0.460408898,-0.353499417,1,0,0,0.8334,button_right,0.8334,1,,,,,,223,WORD,UN,50,period,KIDNEY,m,,,,,,0.460408898,-0.353499417,1,0,0,,0,51,51,222,1,
,,,,,,,,,,,,,,,,,,5c576413a7890b0001f59a92,2020-08-10_16h12.16.981,lexical_decision_task_MP,2020.1.3,Linux armv8l,60,,0,0.391888554,-0.337871967,1,0,0,0.7156,button_right,0.7156,1,,,,,,9,WORD,"ID",33,hustle,HUSTLE,m,,,,,,0.391888554,-0.337871967,1,0,0,,0,52,52,8,1,
,,,,,,,,,,,,,,,,,,5c576413a7890b0001f59a92,2020-08-10_16h12.16.981,lexical_decision_task_MP,2020.1.3,Linux armv8l,60,,0,-0.367846237,-0.329457021,1,0,0,0.6258,button_left,0.6258,1,,,,,,276,NW,"ID",33,yarmon,YARMON,z,,,,,,-0.367846237,-0.329457021,1,0,0,,0,53,53,275,1,
,,,,,,,,,,,,,,,,,,5c576413a7890b0001f59a92,2020-08-10_16h12.16.981,lexical_decision_task_MP,2020.1.3,Linux armv8l,60,,0,-0.372654732,-0.269351544,1,0,0,0.6982,button_left,0.6982,1,,,,,,340,NW,"ID",50,fiatch,FIATCH,z,,,,,,-0.372654732,-0.269351544,1,0,0,,0,54,54,339,1,
,,,,,,,,,,,,,,,,,,5c576413a7890b0001f59a92,2020-08-10_16h12.16.981,lexical_decision_task_MP,2020.1.3,Linux armv8l,60,,0,-0.394292644,-0.289787411,1,0,0,0.754,button_left,0.754,1,,,,,,244,NW,"ID",33,eatric,EATRIC,z,,,,,,-0.394292644,-0.289787411,1,0,0,,0,55,55,243,1,
,,,,,,,,,,,,,,,,,,5c576413a7890b0001f59a92,2020-08-10_16h12.16.981,lexical_decision_task_MP,2020.1.3,Linux armv8l,60,,0,0.455600403,-0.353499417,1,0,0,0.5981,button_right,0.5981,1,,,,,,74,WORD,"ID",50,plaque,PLAQUE,m,,,,,,0.455600403,-0.353499417,1,0,0,,0,56,56,73,1,
,,,,,,,,,,,,,,,,,,5c576413a7890b0001f59a92,2020-08-10_16h12.16.981,lexical_decision_task_MP,2020.1.3,Linux armv8l,60,,0,-0.401505307,-0.365520497,1,0,0,0.6564,button_left,0.6564,1,,,,,,255,NW,"ID",33,apight,APIGHT,z,,,,,,-0.401505307,-0.365520497,1,0,0,,0,57,57,254,1,
,,,,,,,,,,,,,,,,,,5c576413a7890b0001f59a92,2020-08-10_16h12.16.981,lexical_decision_task_MP,2020.1.3,Linux armv8l,60,,0,-0.284900487,-0.364318373,1,0,0,0.6041,button_left,0.6041,1,,,,,,369,NW,UN,33,sleact,WRONCH,z,,,,,,-0.284900487,-0.364318373,1,0,0,,0,58,58,368,1,
,,,,,,,,,,,,,,,,,,5c576413a7890b0001f59a92,2020-08-10_16h12.16.981,lexical_decision_task_MP,2020.1.3,Linux armv8l,60,,0,-0.376260945,-0.333063472,1,0,0,0.6306,button_left,0.6306,1,,,,,,350,NW,"ID",50,nagurs,NAGURS,z,,,,,,-0.376260945,-0.333063472,1,0,0,,0,59,59,349,1,
,,,,,,,,,,,,,,,,,,5c576413a7890b0001f59a92,2020-08-10_16h12.16.981,lexical_decision_task_MP,2020.1.3,Linux armv8l,60,,0,-0.39910106,-0.30180857,1,0,0,0.6501,button_left,0.6501,1,,,,,,397,NW,UN,33,blunde,CAMBLE,z,,,,,,-0.39910106,-0.30180857,1,0,0,,0,60,60,396,1,
,,,,,,,,,,,,,,,,,,5c576413a7890b0001f59a92,2020-08-10_16h12.16.981,lexical_decision_task_MP,2020.1.3,Linux armv8l,60,,0,0.393090599,-0.369126789,1,0,0,0.7674,button_right,0.7674,1,,,,,,185,WORD,UN,50,portal,BOTHER,m,,,,,,0.393090599,-0.369126789,1,0,0,,0,61,61,184,1,
,,,,,,,,,,,,,,,,,,5c576413a7890b0001f59a92,2020-08-10_16h12.16.981,lexical_decision_task_MP,2020.1.3,Linux armv8l,60,,0,0.433962333,-0.346286754,1,0,0,0.8671,button_right,0.8671,1,,,,,,38,WORD,"ID",33,powder,POWDER,m,,,,,,0.433962333,-0.346286754,1,0,0,,0,62,62,37,1,
,,,,,,,,,,,,,,,,,,5c576413a7890b0001f59a92,2020-08-10_16h12.16.981,lexical_decision_task_MP,2020.1.3,Linux armv8l,60,,0,-0.390686351,-0.35109517,1,0,0,0.6776,button_left,0.6776,1,,,,,,381,NW,UN,33,sarley,HUNIEK,z,,,,,,-0.390686351,-0.35109517,1,0,0,,0,63,63,380,1,
,,,,,,,,,,,,,,,,,,5c576413a7890b0001f59a92,2020-08-10_16h12.16.981,lexical_decision_task_MP,2020.1.3,Linux armv8l,60,,0,0.250039214,-0.265745252,1,0,0,0.8987,button_right,0.8987,1,,,,,,32,WORD,"ID",33,buckle,BUCKLE,m,,,,,,0.250039214,-0.265745252,1,0,0,,0,64,64,31,1,
,,,,,,,,,,,,,,,,,,5c576413a7890b0001f59a92,2020-08-10_16h12.16.981,lexical_decision_task_MP,2020.1.3,Linux armv8l,60,,0,-0.414728511,-0.343882506,1,0,0,0.5974,button_left,0.5974,1,,,,,,247,NW,"ID",33,blarge,BLARGE,z,,,,,,-0.414728511,-0.343882506,1,0,0,,0,65,65,246,1,
,,,,,,,,,,,,,,,,,,5c576413a7890b0001f59a92,2020-08-10_16h12.16.981,lexical_decision_task_MP,2020.1.3,Linux armv8l,60,,0,0.494067889,-0.393169107,1,0,0,0.6151,button_right,0.6151,1,,,,,,203,WORD,UN,50,burden,PHRASE,m,,,,,,0.494067889,-0.393169107,1,0,0,,0,66,66,202,1,
,,,,,,,,,,,,,,,,,,5c576413a7890b0001f59a92,2020-08-10_16h12.16.981,lexical_decision_task_MP,2020.1.3,Linux armv8l,60,,0,0.38948399,-0.340276135,1,0,0,0.65,button_right,0.65,1,,,,,,47,WORD,"ID",33,income,INCOME,m,,,,,,0.38948399,-0.340276135,1,0,0,,0,67,67,46,1,
,,,,,,,,,,,,,,,,,,5c576413a7890b0001f59a92,2020-08-10_16h12.16.981,lexical_decision_task_MP,2020.1.3,Linux armv8l,60,,0,-0.378665272,-0.327052932,1,0,0,0.6016,button_left,0.6016,1,,,,,,453,NW,UN,50,scouge,BOLVIS,z,,,,,,-0.378665272,-0.327052932,1,0,0,,0,68,68,452,1,
,,,,,,,,,,,,,,,,,,5c576413a7890b0001f59a92,2020-08-10_16h12.16.981,lexical_decision_task_MP,2020.1.3,Linux armv8l,60,,0,0.427951951,-0.328255055,1,0,0,0.5655,button_right,0.5655,1,,,,,,11,WORD,"ID",33,cruise,CRUISE,m,,,,,,0.427951951,-0.328255055,1,0,0,,0,69,69,10,1,
,,,,,,,,,,,,,,,,,,5c576413a7890b0001f59a92,2020-08-10_16h12.16.981,lexical_decision_task_MP,2020.1.3,Linux armv8l,60,,0,0.492865844,-0.435242964,1,0,0,0.7166,button_right,0.7166,1,,,,,,199,WORD,UN,50,beacon,INVOKE,m,,,,,,0.381069519,-0.292191659,1,0,0,,0,70,70,198,1,
,,,,,,,,,,,,,,,,,,5c576413a7890b0001f59a92,2020-08-10_16h12.16.981,lexical_decision_task_MP,2020.1.3,Linux armv8l,60,,0,-0.391888396,-0.292191659,1,0,0,0.6198,button_left,0.6198,1,,,,,,477,NW,UN,50,acrise,PHOTIE,z,,,,,,-0.391888396,-0.292191659,1,0,0,,0,71,71,476,1,
,,,,,,,,,,,,,,,,,,5c576413a7890b0001f59a92,2020-08-10_16h12.16.981,lexical_decision_task_MP,2020.1.3,Linux armv8l,60,,0,0.435164536,-0.325850808,1,0,0,0.5981,button_right,0.5981,1,,,,,,178,WORD,UN,33,mildew,INFORM,m,,,,,,0.435164536,-0.325850808,1,0,0,,0,72,72,177,1,
,,,,,,,,,,,,,,,,,,5c576413a7890b0001f59a92,2020-08-10_16h12.16.981,lexical_decision_task_MP,2020.1.3,Linux armv8l,60,,0,-0.389484228,-0.30180857,1,0,0,0.5943,button_left,0.5943,1,,,,,,304,NW,"ID",50,cludie,CLUDIE,z,,,,,,-0.389484228,-0.30180857,1,0,0,,0,73,73,303,1,
,,,,,,,,,,,,,,,,,,5c576413a7890b0001f59a92,2020-08-10_16h12.16.981,lexical_decision_task_MP,2020.1.3,Linux armv8l,60,,0,0.418334961,-0.369126789,1,0,0,0.5869,button_right,0.5869,1,,,,,,126,WORD,UN,33,castle,ENOUGH,m,,,,,,0.418334961,-0.369126789,1,0,0,,0,74,74,125,1,
,,,,,,,,,,,,,,,,,,5c576413a7890b0001f59a92,2020-08-10_16h12.16.981,lexical_decision_task_MP,2020.1.3,Linux armv8l,60,,0,-0.402707352,-0.331861348,1,0,0,0.6196,button_left,0.6196,1,,,,,,316,NW,"ID",50,scregm,SCREGM,z,,,,,,-0.402707352,-0.331861348,1,0,0,,0,75,75,315,1,
,,,,,,,,,,,,,,,,,,5c576413a7890b0001f59a92,2020-08-10_16h12.16.981,lexical_decision_task_MP,2020.1.3,Linux armv8l,60,,0,-0.447185615,-0.282574748,1,0,0,0.7111,button_left,0.7111,1,,,,,,245,NW,"ID",33,anougs,ANOUGS,z,,,,,,-0.447185615,-0.282574748,1,0,0,,0,76,76,244,1,
,,,,,,,,,,,,,,,,,,5c576413a7890b0001f59a92,2020-08-10_16h12.16.981,lexical_decision_task_MP,2020.1.3,Linux armv8l,60,,0,0.433962333,-0.354701541,1,0,0,0.669,button_right,0.669,1,,,,,,43,WORD,"ID",33,tongue,TONGUE,m,,,,,,0.433962333,-0.354701541,1,0,0,,0,77,77,42,1,
,,,,,,,,,,,,,,,,,,5c576413a7890b0001f59a92,2020-08-10_16h12.16.981,lexical_decision_task_MP,2020.1.3,Linux armv8l,60,,0,0.383473767,-0.343882506,1,0,0,0.7537,button_right,0.7537,1,,,,,,151,WORD,UN,33,rocket,MYSTIC,m,,,,,,0.383473767,-0.343882506,1,0,0,,0,78,78,150,1,
,,,,,,,,,,,,,,,,,,5c576413a7890b0001f59a92,2020-08-10_16h12.16.981,lexical_decision_task_MP,2020.1.3,Linux armv8l,60,,0,-0.449589784,-0.336669764,1,0,0,0.6655,button_left,0.6655,1,,,,,,400,NW,UN,33,mustil,WEAROX,z,,,,,,-0.449589784,-0.336669764,1,0,0,,0,79,79,399,1,
,,,,,,,,,,,,,,,,,,5c576413a7890b0001f59a92,2020-08-10_16h12.16.981,lexical_decision_task_MP,2020.1.3,Linux armv8l,60,,0,0.478440517,-0.381147948,1,0,0,0.6479,button_right,0.6479,1,,,,,,127,WORD,UN,33,senior,CASTLE,m,,,,,,0.478440517,-0.381147948,1,0,0,,0,80,80,126,1,
,,,,,,,,,,,,,,,,,,5c576413a7890b0001f59a92,2020-08-10_16h12.16.981,lexical_decision_task_MP,2020.1.3,Linux armv8l,60,,0,0.394292644,-0.327052932,1,0,0,0.7351,button_right,0.7351,1,,,,,,21,WORD,"ID",33,simple,SIMPLE,m,,,,,,0.394292644,-0.327052932,1,0,0,,0,81,81,20,1,
,,,,,,,,,,,,,,,,,,5c576413a7890b0001f59a92,2020-08-10_16h12.16.981,lexical_decision_task_MP,2020.1.3,Linux armv8l,60,,0,0.396696891,-0.29579803,1,0,0,0.7331,button_right,0.7331,1,,,,,,118,WORD,"ID",50,flight,FLIGHT,m,,,,,,0.396696891,-0.29579803,1,0,0,,0,82,82,117,1,
,,,,,,,,,,,,,,,,,,5c576413a7890b0001f59a92,2020-08-10_16h12.16.981,lexical_decision_task_MP,2020.1.3,Linux armv8l,60,,0,0.403909476,-0.387158488,1,0,0,0.6655,button_right,0.6655,1,,,,,,204,WORD,UN,50,lounge,BURDEN,m,,,,,,0.403909476,-0.387158488,1,0,0,,0,83,83,203,1,
,,,,,,,,,,,,,,,,,,5c576413a7890b0001f59a92,2020-08-10_16h12.16.981,lexical_decision_task_MP,2020.1.3,Linux armv8l,60,,0,-0.366644192,-0.293393861,1,0,0,0.6829,button_left,0.6829,1,,,,,,241,NW,"ID",33,smenco,SMENCO,z,,,,,,-0.366644192,-0.293393861,1,0,0,,0,84,84,240,1,
,,,,,,,,,,,,,,,,,,5c576413a7890b0001f59a92,2020-08-10_16h12.16.981,lexical_decision_task_MP,2020.1.3,Linux armv8l,60,,0,0.399101139,-0.36311625,1,0,0,0.5796,button_right,0.5796,0,,,,,,342,NW,"ID",50,randow,RANDOW,z,,,,,,0.399101139,-0.36311625,1,0,0,,0,85,85,341,1,
,,,,,,,,,,,,,,,,,,5c576413a7890b0001f59a92,2020-08-10_16h12.16.981,lexical_decision_task_MP,2020.1.3,Linux armv8l,60,,0,0.371452529,-0.348691001,1,0,0,0.7905,button_right,0.7905,1,,,,,,52,WORD,"ID",33,impose,IMPOSE,m,,,,,,0.371452529,-0.348691001,1,0,0,,0,86,86,51,1,
,,,,,,,,,,,,,,,,,,5c576413a7890b0001f59a92,2020-08-10_16h12.16.981,lexical_decision_task_MP,2020.1.3,Linux armv8l,60,,0,-0.335389132,-0.324648684,1,0,0,0.6484,button_left,0.6484,1,,,,,,465,NW,UN,50,hocite,WHIVEX,z,,,,,,-0.335389132,-0.324648684,1,0,0,,0,87,87,464,1,
,,,,,,,,,,,,,,,,,,5c576413a7890b0001f59a92,2020-08-10_16h12.16.981,lexical_decision_task_MP,2020.1.3,Linux armv8l,60,,0,0.403909476,-0.323446481,1,0,0,0.6696,button_right,0.6696,1,,,,,,98,WORD,"ID",50,belong,BELONG,m,,,,,,0.403909476,-0.323446481,1,0,0,,0,88,88,97,1,
,,,,,,,,,,,,,,,,,,5c576413a7890b0001f59a92,2020-08-10_16h12.16.981,lexical_decision_task_MP,2020.1.3,Linux armv8l,60,,0,0.397899094,-0.364318373,1,0,0,0.7487,button_right,0.7487,1,,,,,,15,WORD,"ID",33,amount,AMOUNT,m,,,,,,0.397899094,-0.364318373,1,0,0,,0,89,89,14,1,
,,,,,,,,,,,,,,,,,,5c576413a7890b0001f59a92,2020-08-10_16h12.16.981,lexical_decision_task_MP,2020.1.3,Linux armv8l,60,,0,0.360633494,-0.336669764,1,0,0,0.6954,button_right,0.6954,1,,,,,,27,WORD,"ID",33,scream,SCREAM,m,,,,,,0.360633494,-0.336669764,1,0,0,,0,90,90,26,1,
,,,,,,,,,,,,,,,,,,5c576413a7890b0001f59a92,2020-08-10_16h12.16.981,lexical_decision_task_MP,2020.1.3,Linux armv8l,60,,0,-0.384675812,-0.333063472,1,0,0,0.6816,button_left,0.6816,1,,,,,,268,NW,"ID",33,packes,PACKES,z,,,,,,-0.384675812,-0.333063472,1,0,0,,0,91,91,267,1,
,,,,,,,,,,,,,,,,,,5c576413a7890b0001f59a92,2020-08-10_16h12.16.981,lexical_decision_task_MP,2020.1.3,Linux armv8l,60,,0,-0.33178284,-0.353499417,1,0,0,0.7109,button_left,0.7109,1,,,,,,384,NW,UN,33,veigma,GUESCO,z,,,,,,-0.33178284,-0.353499417,1,0,0,,0,92,92,383,1,
,,,,,,,,,,,,,,,,,,5c576413a7890b0001f59a92,2020-08-10_16h12.16.981,lexical_decision_task_MP,2020.1.3,Linux armv8l,60,,0,-0.390686351,-0.29579803,1,0,0,0.6826,button_left,0.6826,1,,,,,,423,NW,UN,50,praile,STRELD,z,,,,,,-0.390686351,-0.29579803,1,0,0,,0,93,93,422,1,
,,,,,,,,,,,,,,,,,,5c576413a7890b0001f59a92,2020-08-10_16h12.16.981,lexical_decision_task_MP,2020.1.3,Linux armv8l,60,,0,0.361835697,-0.339074011,1,0,0,0.68,button_right,0.68,1,,,,,,87,WORD,"ID",50,filter,FILTER,m,,,,,,0.361835697,-0.339074011,1,0,0,,0,94,94,86,1,
,,,,,,,,,,,,,,,,,,5c576413a7890b0001f59a92,2020-08-10_16h12.16.981,lexical_decision_task_MP,2020.1.3,Linux armv8l,60,,0,-0.359431371,-0.3667227,1,0,0,0.5612,button_left,0.5612,1,,,,,,367,NW,UN,33,hornal,SLIQUE,z,,,,,,-0.359431371,-0.3667227,1,0,0,,0,95,95,366,1,
,,,,,,,,,,,,,,,,,,5c576413a7890b0001f59a92,2020-08-10_16h12.16.981,lexical_decision_task_MP,2020.1.3,Linux armv8l,60,,0,0.427951951,-0.349893046,1,0,0,0.682,button_right,0.682,1,,,,,,175,WORD,UN,33,strife,FABRIC,m,,,,,,0.427951951,-0.349893046,1,0,0,,0,96,96,174,1,
,,,,,,,,,,,,,,,,,,5c576413a7890b0001f59a92,2020-08-10_16h12.16.981,lexical_decision_task_MP,2020.1.3,Linux armv8l,60,,0,-0.430356041,-0.355903586,1,0,0,0.6148,button_left,0.6148,1,,,,,,329,NW,"ID",50,yarike,YARIKE,z,,,,,,-0.430356041,-0.355903586,1,0,0,,0,97,97,328,1,
,,,,,,,,,,,,,,,,,,5c576413a7890b0001f59a92,2020-08-10_16h12.16.981,lexical_decision_task_MP,2020.1.3,Linux armv8l,60,,0,0.162285049,-0.254926217,1,0,0,0.7002,button_right,0.7002,1,,,,,,200,WORD,UN,50,admire,BEACON,m,,,,,,0.4543982,-0.40639231,1,0,0,,0,98,98,199,1,
,,,,,,,,,,,,,,,,,,5c576413a7890b0001f59a92,2020-08-10_16h12.16.981,lexical_decision_task_MP,2020.1.3,Linux armv8l,60,,0,-0.377463069,-0.30180857,1,0,0,0.6464,button_left,0.6464,1,,,,,,446,NW,UN,50,gircue,RUNAMO,z,,,,,,-0.377463069,-0.30180857,1,0,0,,0,99,99,445,1,
,,,,,,,,,,,,,,,,,,5c576413a7890b0001f59a92,2020-08-10_16h12.16.981,lexical_decision_task_MP,2020.1.3,Linux armv8l,60,,0,-0.366644192,-0.292191659,1,0,0,0.7481,button_left,0.7481,1,,,,,,324,NW,"ID",50,steikh,STEIKH,z,,,,,,-0.366644192,-0.292191659,1,0,0,,0,100,100,323,1,
,,,,,,,,,,,,,,,,,,5c576413a7890b0001f59a92,2020-08-10_16h12.16.981,lexical_decision_task_MP,2020.1.3,Linux armv8l,60,,0,0.479642562,-0.333063472,1,0,0,0.7318,button_right,0.7318,1,,,,,,145,WORD,UN,33,couple,PARISH,m,,,,,,0.479642562,-0.333063472,1,0,0,,0,101,101,144,1,
,,,,,,,,,,,,,,,,,,5c576413a7890b0001f59a92,2020-08-10_16h12.16.981,lexical_decision_task_MP,2020.1.3,Linux armv8l,60,,0,0.439973031,-0.377541656,1,0,0,0.648,button_right,0.648,1,,,,,,2,WORD,"ID",33,bridge,BRIDGE,m,,,,,,0.439973031,-0.377541656,1,0,0,,0,102,102,1,1,
,,,,,,,,,,,,,,,,,,5c576413a7890b0001f59a92,2020-08-10_16h12.16.981,lexical_decision_task_MP,2020.1.3,Linux armv8l,60,,0,0.394292644,-0.328255055,1,0,0,0.7154,button_right,0.7154,1,,,,,,116,WORD,"ID",50,tumble,TUMBLE,m,,,,,,0.394292644,-0.328255055,1,0,0,,0,103,103,115,1,
,,,,,,,,,,,,,,,,,,5c576413a7890b0001f59a92,2020-08-10_16h12.16.981,lexical_decision_task_MP,2020.1.3,Linux armv8l,60,,0,-0.391888396,-0.303010693,1,0,0,0.6215,button_left,0.6215,1,,,,,,385,NW,UN,33,ancust,VEIGMA,z,,,,,,-0.391888396,-0.303010693,1,0,0,,0,104,104,384,1,
,,,,,,,,,,,,,,,,,,5c576413a7890b0001f59a92,2020-08-10_16h12.16.981,lexical_decision_task_MP,2020.1.3,Linux armv8l,60,,0,0.39068651,-0.215256528,1,0,0,0.6154,button_right,0.6154,1,,,,,,4,WORD,"ID",33,trench,TRENCH,m,,,,,,0.39068651,-0.215256528,1,0,0,,0,105,105,3,1,
,,,,,,,,,,,,,,,,,,5c576413a7890b0001f59a92,2020-08-10_16h12.16.981,lexical_decision_task_MP,2020.1.3,Linux armv8l,60,,0,-0.407515926,-0.336669764,1,0,0,0.5856,button_left,0.5856,1,,,,,,271,NW,"ID",33,aubrid,AUBRID,z,,,,,,-0.407515926,-0.336669764,1,0,0,,0,106,106,270,1,
,,,,,,,,,,,,,,,,,,5c576413a7890b0001f59a92,2020-08-10_16h12.16.981,lexical_decision_task_MP,2020.1.3,Linux armv8l,60,,0,-0.340197627,-0.270553668,1,0,0,0.7348,button_left,0.7348,1,,,,,,387,NW,UN,33,cragin,GRONCE,z,,,,,,-0.340197627,-0.270553668,1,0,0,,0,107,107,386,1,
,,,,,,,,,,,,,,,,,,5c576413a7890b0001f59a92,2020-08-10_16h12.16.981,lexical_decision_task_MP,2020.1.3,Linux armv8l,60,,0,-0.302932186,-0.3667227,1,0,0,0.6696,button_left,0.6696,1,,,,,,428,NW,UN,50,chrums,TANDLY,z,,,,,,-0.302932186,-0.3667227,1,0,0,,0,108,108,427,1,
,,,,,,,,,,,,,,,,,,5c576413a7890b0001f59a92,2020-08-10_16h12.16.981,lexical_decision_task_MP,2020.1.3,Linux armv8l,60,,0,0.435164536,-0.30180857,1,0,0,0.6215,button_right,0.6215,1,,,,,,164,WORD,UN,33,invest,MARKET,m,,,,,,0.435164536,-0.30180857,1,0,0,,0,109,109,163,1,
,,,,,,,,,,,,,,,,,,5c576413a7890b0001f59a92,2020-08-10_16h12.16.981,lexical_decision_task_MP,2020.1.3,Linux armv8l,60,,0,-0.397899015,-0.30541502,1,0,0,0.5958,button_left,0.5958,1,,,,,,311,NW,"ID",50,sproly,SPROLY,z,,,,,,-0.397899015,-0.30541502,1,0,0,,0,110,110,310,1,
,,,,,,,,,,,,,,,,,,5c576413a7890b0001f59a92,2020-08-10_16h12.16.981,lexical_decision_task_MP,2020.1.3,Linux armv8l,60,,0,0.459206695,-0.337871967,1,0,0,0.816,button_right,0.816,1,,,,,,36,WORD,"ID",33,vanish,VANISH,m,,,,,,0.459206695,-0.337871967,1,0,0,,0,111,111,35,1,
,,,,,,,,,,,,,,,,,,5c576413a7890b0001f59a92,2020-08-10_16h12.16.981,lexical_decision_task_MP,2020.1.3,Linux armv8l,60,,0,0.399101139,-0.343882506,1,0,0,0.6473,button_right,0.6473,1,,,,,,112,WORD,"ID",50,breath,BREATH,m,,,,,,0.399101139,-0.343882506,1,0,0,,0,112,112,111,1,
,,,,,,,,,,,,,,,,,,5c576413a7890b0001f59a92,2020-08-10_16h12.16.981,lexical_decision_task_MP,2020.1.3,Linux armv8l,60,,0,-0.377463069,-0.35109517,1,0,0,0.6573,button_left,0.6573,1,,,,,,283,NW,"ID",33,veralf,VERALF,z,,,,,,-0.377463069,-0.35109517,1,0,0,,0,113,113,282,1,
,,,,,,,,,,,,,,,,,,5c576413a7890b0001f59a92,2020-08-10_16h12.16.981,lexical_decision_task_MP,2020.1.3,Linux armv8l,60,,0,-0.364239866,-0.323446481,1,0,0,0.7484,button_left,0.7484,1,,,,,,377,NW,UN,33,shrile,INJORE,z,,,,,,-0.364239866,-0.323446481,1,0,0,,0,114,114,376,1,
,,,,,,,,,,,,,,,,,,5c576413a7890b0001f59a92,2020-08-10_16h12.16.981,lexical_decision_task_MP,2020.1.3,Linux armv8l,60,,0,0.387080059,-0.339074011,1,0,0,0.6571,button_right,0.6571,1,,,,,,219,WORD,UN,50,voyage,BUCKET,m,,,,,,0.387080059,-0.339074011,1,0,0,,0,115,115,218,1,
,,,,,,,,,,,,,,,,,,5c576413a7890b0001f59a92,2020-08-10_16h12.16.981,lexical_decision_task_MP,2020.1.3,Linux armv8l,60,,0,-0.453196155,-0.342680383,1,0,0,0.5644,button_left,0.5644,1,,,,,,442,NW,UN,50,dorsex,ABOUNE,z,,,,,,-0.453196155,-0.342680383,1,0,0,,0,116,116,441,1,
,,,,,,,,,,,,,,,,,,5c576413a7890b0001f59a92,2020-08-10_16h12.16.981,lexical_decision_task_MP,2020.1.3,Linux armv8l,60,,0,-0.361835618,-0.330659303,1,0,0,0.6599,button_left,0.6599,1,,,,,,404,NW,UN,33,syntic,CLUIRM,z,,,,,,-0.361835618,-0.330659303,1,0,0,,0,117,117,403,1,
,,,,,,,,,,,,,,,,,,5c576413a7890b0001f59a92,2020-08-10_16h12.16.981,lexical_decision_task_MP,2020.1.3,Linux armv8l,60,,0,-0.424345422,-0.300606446,1,0,0,0.5174,button_left,0.5174,1,,,,,,412,NW,UN,33,equats,JILUER,z,,,,,,-0.424345422,-0.300606446,1,0,0,,0,118,118,411,1,
,,,,,,,,,,,,,,,,,,5c576413a7890b0001f59a92,2020-08-10_16h12.16.981,lexical_decision_task_MP,2020.1.3,Linux armv8l,60,,0,0.324570097,-0.29579803,1,0,0,0.6321,button_right,0.6321,1,,,,,,205,WORD,UN,50,tailor,LOUNGE,m,,,,,,0.324570097,-0.29579803,1,0,0,,0,119,119,204,1,
,,,,,,,,,,,,,,,,,,5c576413a7890b0001f59a92,2020-08-10_16h12.16.981,lexical_decision_task_MP,2020.1.3,Linux armv8l,60,,0,0.439973031,-0.379945824,1,0,0,0.8635,button_right,0.8635,1,,,,,,197,WORD,UN,50,wicked,STREAM,m,,,,,,-0.076935131,-0.373935284,1,0,0,,0,120,120,196,1,break_done_button
,,,,,,,,,,,,,,,,,,5c576413a7890b0001f59a92,2020-08-10_16h12.16.981,lexical_decision_task_MP,2020.1.3,Linux armv8l,60,,0,0.473632022,-0.346286754,1,0,0,0.5155,button_right,0.5155,1,,,,,,5,WORD,"ID",33,plunge,PLUNGE,m,,,,,,0.473632022,-0.346286754,1,0,0,,0,121,121,4,1,
,,,,,,,,,,,,,,,,,,5c576413a7890b0001f59a92,2020-08-10_16h12.16.981,lexical_decision_task_MP,2020.1.3,Linux armv8l,60,,0,-0.429153917,-0.318638144,1,0,0,0.5193,button_left,0.5193,1,,,,,,470,NW,UN,50,nobest,CRUDIO,z,,,,,,-0.429153917,-0.318638144,1,0,0,,0,122,122,469,1,
,,,,,,,,,,,,,,,,,,5c576413a7890b0001f59a92,2020-08-10_16h12.16.981,lexical_decision_task_MP,2020.1.3,Linux armv8l,60,,0,0.466419437,-0.343882506,1,0,0,0.4797,button_right,0.4797,1,,,,,,25,WORD,"ID",33,domain,DOMAIN,m,,,,,,0.466419437,-0.343882506,1,0,0,,0,123,123,24,1,
,,,,,,,,,,,,,,,,,,5c576413a7890b0001f59a92,2020-08-10_16h12.16.981,lexical_decision_task_MP,2020.1.3,Linux armv8l,60,,0,-0.47603619,-0.34748872,1,0,0,0.5156,button_left,0.5156,1,,,,,,406,NW,UN,33,suiver,NOUPLY,z,,,,,,-0.47603619,-0.34748872,1,0,0,,0,124,124,405,1,
,,,,,,,,,,,,,,,,,,5c576413a7890b0001f59a92,2020-08-10_16h12.16.981,lexical_decision_task_MP,2020.1.3,Linux armv8l,60,,0,0.466419437,-0.342680383,1,0,0,0.5196,button_right,0.5196,1,,,,,,24,WORD,"ID",33,praise,PRAISE,m,,,,,,0.466419437,-0.342680383,1,0,0,,0,125,125,23,1,
,,,,,,,,,,,,,,,,,,5c576413a7890b0001f59a92,2020-08-10_16h12.16.981,lexical_decision_task_MP,2020.1.3,Linux armv8l,60,,0,-0.47603619,-0.336669764,1,0,0,0.6316,button_left,0.6316,1,,,,,,451,NW,UN,50,surden,CAINKY,z,,,,,,-0.47603619,-0.336669764,1,0,0,,0,126,126,450,1,
,,,,,,,,,,,,,,,,,,5c576413a7890b0001f59a92,2020-08-10_16h12.16.981,lexical_decision_task_MP,2020.1.3,Linux armv8l,60,,0,0.461610942,-0.33546764,1,0,0,0.5821,button_right,0.5821,1,,,,,,66,WORD,"ID",50,gospel,GOSPEL,m,,,,,,0.461610942,-0.33546764,1,0,0,,0,127,127,65,1,
,,,,,,,,,,,,,,,,,,5c576413a7890b0001f59a92,2020-08-10_16h12.16.981,lexical_decision_task_MP,2020.1.3,Linux armv8l,60,,0,-0.472429977,-0.33546764,1,0,0,0.5301,button_left,0.5301,1,,,,,,469,NW,UN,50,crudio,PADIFS,z,,,,,,-0.472429977,-0.33546764,1,0,0,,0,128,128,468,1,
,,,,,,,,,,,,,,,,,,5c576413a7890b0001f59a92,2020-08-10_16h12.16.981,lexical_decision_task_MP,2020.1.3,Linux armv8l,60,,0,0.480844765,-0.298202277,1,0,0,0.4976,button_right,0.4976,1,,,,,,26,WORD,"ID",33,sprint,SPRINT,m,,,,,,0.480844765,-0.298202277,1,0,0,,0,129,129,25,1,
,,,,,,,,,,,,,,,,,,5c576413a7890b0001f59a92,2020-08-10_16h12.16.981,lexical_decision_task_MP,2020.1.3,Linux armv8l,60,,0,0.509695419,-0.304212817,1,0,0,0.5051,button_right,0.5051,1,,,,,,179,WORD,UN,33,silent,BASKET,m,,,,,,0.509695419,-0.304212817,1,0,0,,0,130,130,178,1,
,,,,,,,,,,,,,,,,,,5c576413a7890b0001f59a92,2020-08-10_16h12.16.981,lexical_decision_task_MP,2020.1.3,Linux armv8l,60,,0,-0.464015032,-0.30541502,1,0,0,0.5474,button_left,0.5474,1,,,,,,362,NW,UN,33,breali,TIREAU,z,,,,,,-0.464015032,-0.30541502,1,0,0,,0,131,131,361,1,
,,,,,,,,,,,,,,,,,,5c576413a7890b0001f59a92,2020-08-10_16h12.16.981,lexical_decision_task_MP,2020.1.3,Linux armv8l,60,,0,0.482046809,-0.322244437,1,0,0,0.5172,button_right,0.5172,1,,,,,,172,WORD,UN,33,shower,PATROL,m,,,,,,0.482046809,-0.322244437,1,0,0,,0,132,132,171,1,
,,,,,,,,,,,,,,,,,,5c576413a7890b0001f59a92,2020-08-10_16h12.16.981,lexical_decision_task_MP,2020.1.3,Linux armv8l,60,,0,-0.48204673,-0.329457021,1,0,0,0.6646,button_left,0.6646,1,,,,,,338,NW,"ID",50,wreash,WREASH,z,,,,,,-0.48204673,-0.329457021,1,0,0,,0,133,133,337,1,
,,,,,,,,,,,,,,,,,,5c576413a7890b0001f59a92,2020-08-10_16h12.16.981,lexical_decision_task_MP,2020.1.3,Linux armv8l,60,,0,0.500078429,-0.293393861,1,0,0,0.4631,button_right,0.4631,1,,,,,,111,WORD,"ID",50,induce,INDUCE,m,,,,,,0.500078429,-0.293393861,1,0,0,,0,134,134,110,1,
,,,,,,,,,,,,,,,,,,5c576413a7890b0001f59a92,2020-08-10_16h12.16.981,lexical_decision_task_MP,2020.1.3,Linux armv8l,60,,0,-0.514503835,-0.281372703,1,0,0,0.5322,button_left,0.5322,1,,,,,,417,NW,UN,33,suidle,EAROUD,z,,,,,,-0.514503835,-0.281372703,1,0,0,,0,135,135,416,1,
,,,,,,,,,,,,,,,,,,5c576413a7890b0001f59a92,2020-08-10_16h12.16.981,lexical_decision_task_MP,2020.1.3,Linux armv8l,60,,0,-0.473632022,-0.30180857,1,0,0,0.5811,button_left,0.5811,1,,,,,,254,NW,"ID",33,varosh,VAROSH,z,,,,,,-0.473632022,-0.30180857,1,0,0,,0,136,136,253,1,
,,,,,,,,,,,,,,,,,,5c576413a7890b0001f59a92,2020-08-10_16h12.16.981,lexical_decision_task_MP,2020.1.3,Linux armv8l,60,,0,0.513301869,-0.288585366,1,0,0,0.5364,button_right,0.5364,1,,,,,,154,WORD,UN,33,lizard,AUTHOR,m,,,,,,0.513301869,-0.288585366,1,0,0,,0,137,137,153,1,
,,,,,,,,,,,,,,,,,,5c576413a7890b0001f59a92,2020-08-10_16h12.16.981,lexical_decision_task_MP,2020.1.3,Linux armv8l,60,,0,0.531333489,-0.30180857,1,0,0,0.5507,button_right,0.5507,1,,,,,,104,WORD,"ID",50,studio,STUDIO,m,,,,,,0.531333489,-0.30180857,1,0,0,,0,138,138,103,1,
,,,,,,,,,,,,,,,,,,5c576413a7890b0001f59a92,2020-08-10_16h12.16.981,lexical_decision_task_MP,2020.1.3,Linux armv8l,60,,0,-0.472429977,-0.343882506,1,0,0,0.5999,button_left,0.5999,1,,,,,,296,NW,"ID",33,beinch,BEINCH,z,,,,,,-0.472429977,-0.343882506,1,0,0,,0,139,139,295,1,
,,,,,,,,,,,,,,,,,,5c576413a7890b0001f59a92,2020-08-10_16h12.16.981,lexical_decision_task_MP,2020.1.3,Linux armv8l,60,,0,0.509695419,-0.337871967,1,0,0,0.5111,button_right,0.5111,1,,,,,,155,WORD,UN,33,cradle,LIZARD,m,,,,,,0.509695419,-0.337871967,1,0,0,,0,140,140,154,1,
,,,,,,,,,,,,,,,,,,5c576413a7890b0001f59a92,2020-08-10_16h12.16.981,lexical_decision_task_MP,2020.1.3,Linux armv8l,60,,0,-0.470025651,-0.349893046,1,0,0,0.5329,button_left,0.5329,1,,,,,,463,NW,UN,50,bafent,KISPEL,z,,,,,,-0.470025651,-0.349893046,1,0,0,,0,141,141,462,1,
,,,,,,,,,,,,,,,,,,5c576413a7890b0001f59a92,2020-08-10_16h12.16.981,lexical_decision_task_MP,2020.1.3,Linux armv8l,60,,0,-0.48204673,-0.328255055,1,0,0,0.6988,button_left,0.6988,1,,,,,,292,NW,"ID",33,ablint,ABLINT,z,,,,,,-0.48204673,-0.328255055,1,0,0,,0,142,142,291,1,
,,,,,,,,,,,,,,,,,,5c576413a7890b0001f59a92,2020-08-10_16h12.16.981,lexical_decision_task_MP,2020.1.3,Linux armv8l,60,,0,0.557779895,-0.283776871,1,0,0,0.4991,button_right,0.4991,1,,,,,,44,WORD,"ID",33,danger,DANGER,m,,,,,,0.557779895,-0.283776871,1,0,0,,0,143,143,43,1,
,,,,,,,,,,,,,,,,,,5c576413a7890b0001f59a92,2020-08-10_16h12.16.981,lexical_decision_task_MP,2020.1.3,Linux armv8l,60,,0,0.54696086,-0.321042392,1,0,0,0.6676,button_right,0.6676,1,,,,,,208,WORD,UN,50,search,HOCKEY,m,,,,,,0.54696086,-0.321042392,1,0,0,,0,144,144,207,1,
,,,,,,,,,,,,,,,,,,5c576413a7890b0001f59a92,2020-08-10_16h12.16.981,lexical_decision_task_MP,2020.1.3,Linux armv8l,60,,0,-0.484451057,-0.34748872,1,0,0,0.715,button_left,0.715,1,,,,,,250,NW,"ID",33,milted,MILTED,z,,,,,,-0.484451057,-0.34748872,1,0,0,,0,145,145,249,1,
,,,,,,,,,,,,,,,,,,5c576413a7890b0001f59a92,2020-08-10_16h12.16.981,lexical_decision_task_MP,2020.1.3,Linux armv8l,60,,0,-0.471227774,-0.382350072,1,0,0,0.6676,button_left,0.6676,1,,,,,,373,NW,UN,33,injore,BIGENT,z,,,,,,-0.471227774,-0.382350072,1,0,0,,0,146,146,372,1,
,,,,,,,,,,,,,,,,,,5c576413a7890b0001f59a92,2020-08-10_16h12.16.981,lexical_decision_task_MP,2020.1.3,Linux armv8l,60,,0,0.520514454,-0.300606446,1,0,0,0.5151,button_right,0.5151,1,,,,,,100,WORD,"ID",50,carbon,CARBON,m,,,,,,0.520514454,-0.300606446,1,0,0,,0,147,147,99,1,
,,,,,,,,,,,,,,,,,,5c576413a7890b0001f59a92,2020-08-10_16h12.16.981,lexical_decision_task_MP,2020.1.3,Linux armv8l,60,,0,0.542152523,-0.297000075,1,0,0,0.5956,button_right,0.5956,1,,,,,,206,WORD,UN,50,wreath,TAILOR,m,,,,,,0.542152523,-0.297000075,1,0,0,,0,148,148,205,1,
,,,,,,,,,,,,,,,,,,5c576413a7890b0001f59a92,2020-08-10_16h12.16.981,lexical_decision_task_MP,2020.1.3,Linux armv8l,60,,0,-0.539748197,-0.340276135,1,0,0,0.5459,button_left,0.5459,1,,,,,,282,NW,"ID",33,porlex,PORLEX,z,,,,,,-0.539748197,-0.340276135,1,0,0,,0,149,149,281,1,
,,,,,,,,,,,,,,,,,,5c576413a7890b0001f59a92,2020-08-10_16h12.16.981,lexical_decision_task_MP,2020.1.3,Linux armv8l,60,,0,0.520514454,-0.348691001,1,0,0,0.5398,button_right,0.5398,1,,,,,,129,WORD,UN,33,stupid,MARVEL,m,,,,,,0.520514454,-0.348691001,1,0,0,,0,150,150,128,1,
,,,,,,,,,,,,,,,,,,5c576413a7890b0001f59a92,2020-08-10_16h12.16.981,lexical_decision_task_MP,2020.1.3,Linux armv8l,60,,0,0.569800975,-0.290989614,1,0,0,0.5898,button_right,0.5898,1,,,,,,161,WORD,UN,33,candle,PASTOR,m,,,,,,0.569800975,-0.290989614,1,0,0,,0,151,151,160,1,
,,,,,,,,,,,,,,,,,,5c576413a7890b0001f59a92,2020-08-10_16h12.16.981,lexical_decision_task_MP,2020.1.3,Linux armv8l,60,,0,-0.484451057,-0.373935284,1,0,0,0.5631,button_left,0.5631,1,,,,,,395,NW,UN,33,flengy,COLURY,z,,,,,,-0.484451057,-0.373935284,1,0,0,,0,152,152,394,1,
,,,,,,,,,,,,,,,,,,5c576413a7890b0001f59a92,2020-08-10_16h12.16.981,lexical_decision_task_MP,2020.1.3,Linux armv8l,60,,0,-0.508493295,-0.331861348,1,0,0,0.632,button_left,0.632,1,,,,,,408,NW,UN,33,flumni,HURNIA,z,,,,,,-0.508493295,-0.331861348,1,0,0,,0,153,153,407,1,
,,,,,,,,,,,,,,,,,,5c576413a7890b0001f59a92,2020-08-10_16h12.16.981,lexical_decision_task_MP,2020.1.3,Linux armv8l,60,,0,-0.485653181,-0.37273324,1,0,0,0.6397,button_left,0.6397,1,,,,,,269,NW,"ID",33,orchet,ORCHET,z,,,,,,-0.485653181,-0.37273324,1,0,0,,0,154,154,268,1,
,,,,,,,,,,,,,,,,,,5c576413a7890b0001f59a92,2020-08-10_16h12.16.981,lexical_decision_task_MP,2020.1.3,Linux armv8l,60,,0,-0.506089047,-0.34147818,1,0,0,0.5988,button_left,0.5988,1,,,,,,393,NW,UN,33,spaqux,GANOUS,z,,,,,,-0.506089047,-0.34147818,1,0,0,,0,155,155,392,1,
,,,,,,,,,,,,,,,,,,5c576413a7890b0001f59a92,2020-08-10_16h12.16.981,lexical_decision_task_MP,2020.1.3,Linux armv8l,60,,0,-0.536141825,-0.299404401,1,0,0,0.6184,button_left,0.6184,1,,,,,,322,NW,"ID",50,slanch,SLANCH,z,,,,,,-0.536141825,-0.299404401,1,0,0,,0,156,156,321,1,
,,,,,,,,,,,,,,,,,,5c576413a7890b0001f59a92,2020-08-10_16h12.16.981,lexical_decision_task_MP,2020.1.3,Linux armv8l,60,,0,-0.509695419,-0.323446481,1,0,0,0.5776,button_left,0.5776,1,,,,,,410,NW,UN,33,orchin,TUNORY,z,,,,,,-0.509695419,-0.323446481,1,0,0,,0,157,157,409,1,
,,,,,,,,,,,,,,,,,,5c576413a7890b0001f59a92,2020-08-10_16h12.16.981,lexical_decision_task_MP,2020.1.3,Linux armv8l,60,,0,-0.5036848,-0.330659303,1,0,0,0.6244,button_left,0.6244,1,,,,,,386,NW,UN,33,gronce,ANCUST,z,,,,,,-0.5036848,-0.330659303,1,0,0,,0,158,158,385,1,
,,,,,,,,,,,,,,,,,,5c576413a7890b0001f59a92,2020-08-10_16h12.16.981,lexical_decision_task_MP,2020.1.3,Linux armv8l,60,,0,0.562588548,-0.306617065,1,0,0,0.6322,button_right,0.6322,1,,,,,,176,WORD,UN,33,advent,STRIFE,m,,,,,,0.562588548,-0.306617065,1,0,0,,0,159,159,175,1,
,,,,,,,,,,,,,,,,,,5c576413a7890b0001f59a92,2020-08-10_16h12.16.981,lexical_decision_task_MP,2020.1.3,Linux armv8l,60,,0,-0.502482755,-0.327052932,1,0,0,0.5988,button_left,0.5988,1,,,,,,399,NW,UN,33,wearox,FOURET,z,,,,,,-0.502482755,-0.327052932,1,0,0,,0,160,160,398,1,
,,,,,,,,,,,,,,,,,,5c576413a7890b0001f59a92,2020-08-10_16h12.16.981,lexical_decision_task_MP,2020.1.3,Linux armv8l,60,,0,0.542152523,-0.329457021,1,0,0,0.531,button_right,0.531,1,,,,,,72,WORD,"ID",50,bright,BRIGHT,m,,,,,,0.542152523,-0.329457021,1,0,0,,0,161,161,71,1,
,,,,,,,,,,,,,,,,,,5c576413a7890b0001f59a92,2020-08-10_16h12.16.981,lexical_decision_task_MP,2020.1.3,Linux armv8l,60,,0,0.572205222,-0.290989614,1,0,0,0.6293,button_right,0.6293,1,,,,,,10,WORD,"ID",33,ethnic,ETHNIC,m,,,,,,0.572205222,-0.290989614,1,0,0,,0,162,162,9,1,
,,,,,,,,,,,,,,,,,,5c576413a7890b0001f59a92,2020-08-10_16h12.16.981,lexical_decision_task_MP,2020.1.3,Linux armv8l,60,,0,0.555375648,-0.323446481,1,0,0,0.5515,button_right,0.5515,1,,,,,,79,WORD,"ID",50,theory,THEORY,m,,,,,,0.555375648,-0.323446481,1,0,0,,0,163,163,78,1,
,,,,,,,,,,,,,,,,,,5c576413a7890b0001f59a92,2020-08-10_16h12.16.981,lexical_decision_task_MP,2020.1.3,Linux armv8l,60,,0,-0.461610942,-0.34748872,1,0,0,1.0196,button_left,1.0196,1,,,,,,346,NW,"ID",50,saudic,SAUDIC,z,,,,,,-0.461610942,-0.34748872,1,0,0,,0,164,164,345,1,
,,,,,,,,,,,,,,,,,,5c576413a7890b0001f59a92,2020-08-10_16h12.16.981,lexical_decision_task_MP,2020.1.3,Linux armv8l,60,,0,-0.507291171,-0.342680383,1,0,0,0.7483,button_left,0.7483,1,,,,,,257,NW,"ID",33,veniod,VENIOD,z,,,,,,-0.507291171,-0.342680383,1,0,0,,0,165,165,256,1,
,,,,,,,,,,,,,,,,,,5c576413a7890b0001f59a92,2020-08-10_16h12.16.981,lexical_decision_task_MP,2020.1.3,Linux armv8l,60,,0,-0.466419358,-0.343882506,1,0,0,0.7319,button_left,0.7319,1,,,,,,333,NW,"ID",50,catrie,CATRIE,z,,,,,,-0.466419358,-0.343882506,1,0,0,,0,166,166,332,1,
,,,,,,,,,,,,,,,,,,5c576413a7890b0001f59a92,2020-08-10_16h12.16.981,lexical_decision_task_MP,2020.1.3,Linux armv8l,60,,0,0.520514454,-0.330659303,1,0,0,1.0502,button_right,1.0502,1,,,,,,131,WORD,UN,33,strong,QUENCH,m,,,,,,0.520514454,-0.330659303,1,0,0,,0,167,167,130,1,
,,,,,,,,,,,,,,,,,,5c576413a7890b0001f59a92,2020-08-10_16h12.16.981,lexical_decision_task_MP,2020.1.3,Linux armv8l,60,,0,0.543354568,-0.306617065,1,0,0,0.5823,button_right,0.5823,1,,,,,,193,WORD,UN,50,plague,OBJECT,m,,,,,,0.543354568,-0.306617065,1,0,0,,0,168,168,192,1,
,,,,,,,,,,,,,,,,,,5c576413a7890b0001f59a92,2020-08-10_16h12.16.981,lexical_decision_task_MP,2020.1.3,Linux armv8l,60,,0,0.536141667,-0.330659303,1,0,0,0.6523,button_right,0.6523,1,,,,,,227,WORD,UN,50,master,SELDOM,m,,,,,,0.536141667,-0.330659303,1,0,0,,0,169,169,226,1,
,,,,,,,,,,,,,,,,,,5c576413a7890b0001f59a92,2020-08-10_16h12.16.981,lexical_decision_task_MP,2020.1.3,Linux armv8l,60,,0,-0.478440438,-0.364318373,1,0,0,0.9464,button_left,0.9464,1,,,,,,437,NW,UN,50,baitch,SNAPEL,z,,,,,,-0.478440438,-0.364318373,1,0,0,,0,170,170,436,1,
,,,,,,,,,,,,,,,,,,5c576413a7890b0001f59a92,2020-08-10_16h12.16.981,lexical_decision_task_MP,2020.1.3,Linux armv8l,60,,0,-0.518110127,-0.315031773,1,0,0,0.7631,button_left,0.7631,1,,,,,,281,NW,"ID",33,melaty,MELATY,z,,,,,,-0.518110127,-0.315031773,1,0,0,,0,171,171,280,1,
,,,,,,,,,,,,,,,,,,5c576413a7890b0001f59a92,2020-08-10_16h12.16.981,lexical_decision_task_MP,2020.1.3,Linux armv8l,60,,0,-0.455600323,-0.348691001,1,0,0,0.8203,button_left,0.8203,1,,,,,,476,NW,UN,50,photie,JOSTED,z,,,,,,-0.455600323,-0.348691001,1,0,0,,0,172,172,475,1,
,,,,,,,,,,,,,,,,,,5c576413a7890b0001f59a92,2020-08-10_16h12.16.981,lexical_decision_task_MP,2020.1.3,Linux armv8l,60,,0,-0.441174996,-0.34147818,1,0,0,0.7249,button_left,0.7249,1,,,,,,419,NW,UN,33,gushop,SLOUNT,z,,,,,,-0.441174996,-0.34147818,1,0,0,,0,173,173,418,1,
,,,,,,,,,,,,,,,,,,5c576413a7890b0001f59a92,2020-08-10_16h12.16.981,lexical_decision_task_MP,2020.1.3,Linux armv8l,60,,0,-0.44598357,-0.33546764,1,0,0,0.6656,button_left,0.6656,1,,,,,,246,NW,"ID",33,piaton,PIATON,z,,,,,,-0.44598357,-0.33546764,1,0,0,,0,174,174,245,1,
,,,,,,,,,,,,,,,,,,5c576413a7890b0001f59a92,2020-08-10_16h12.16.981,lexical_decision_task_MP,2020.1.3,Linux armv8l,60,,0,-0.430356041,-0.35109517,1,0,0,0.6692,button_left,0.6692,1,,,,,,358,NW,"ID",50,fleack,FLEACK,z,,,,,,-0.430356041,-0.35109517,1,0,0,,0,175,175,357,1,
,,,,,,,,,,,,,,,,,,5c576413a7890b0001f59a92,2020-08-10_16h12.16.981,lexical_decision_task_MP,2020.1.3,Linux armv8l,60,,0,-0.45199411,-0.329457021,1,0,0,0.6811,button_left,0.6811,1,,,,,,461,NW,UN,50,absult,JUSTRE,z,,,,,,-0.45199411,-0.329457021,1,0,0,,0,176,176,460,1,
,,,,,,,,,,,,,,,,,,5c576413a7890b0001f59a92,2020-08-10_16h12.16.981,lexical_decision_task_MP,2020.1.3,Linux armv8l,60,,0,0.524120588,-0.33546764,1,0,0,0.6643,button_right,0.6643,1,,,,,,201,WORD,UN,50,factor,ADMIRE,m,,,,,,0.524120588,-0.33546764,1,0,0,,0,177,177,200,1,
,,,,,,,,,,,,,,,,,,5c576413a7890b0001f59a92,2020-08-10_16h12.16.981,lexical_decision_task_MP,2020.1.3,Linux armv8l,60,,0,0.526524993,-0.324648684,1,0,0,0.6324,button_right,0.6324,1,,,,,,148,WORD,UN,33,invade,CUSTOM,m,,,,,,0.526524993,-0.324648684,1,0,0,,0,178,178,147,1,
,,,,,,,,,,,,,,,,,,5c576413a7890b0001f59a92,2020-08-10_16h12.16.981,lexical_decision_task_MP,2020.1.3,Linux armv8l,60,,0,-0.453196155,-0.324648684,1,0,0,0.6501,button_left,0.6501,1,,,,,,478,NW,UN,50,lobush,ACRISE,z,,,,,,-0.453196155,-0.324648684,1,0,0,,0,179,179,477,1,
,,,,,,,,,,,,,,,,,,5c576413a7890b0001f59a92,2020-08-10_16h12.16.981,lexical_decision_task_MP,2020.1.3,Linux armv8l,60,,0,0.551769355,-0.294595906,1,0,0,0.5812,button_right,0.5812,1,,,,,,8,WORD,"ID",33,abrupt,ABRUPT,m,,,,,,0.551769355,-0.294595906,1,0,0,,0,180,180,7,1,
,,,,,,,,,,,,,,,,,,5c576413a7890b0001f59a92,2020-08-10_16h12.16.981,lexical_decision_task_MP,2020.1.3,Linux armv8l,60,,0,0.5529714,-0.30180857,1,0,0,0.6472,button_right,0.6472,1,,,,,,23,WORD,"ID",33,wealth,WEALTH,m,,,,,,0.5529714,-0.30180857,1,0,0,,0,181,181,22,1,
,,,,,,,,,,,,,,,,,,5c576413a7890b0001f59a92,2020-08-10_16h12.16.981,lexical_decision_task_MP,2020.1.3,Linux armv8l,60,,0,-0.471227774,-0.299404401,1,0,0,0.7013,button_left,0.7013,1,,,,,,320,NW,"ID",50,jockal,JOCKAL,z,,,,,,-0.471227774,-0.299404401,1,0,0,,0,182,182,319,1,
,,,,,,,,,,,,,,,,,,5c576413a7890b0001f59a92,2020-08-10_16h12.16.981,lexical_decision_task_MP,2020.1.3,Linux armv8l,60,,0,-0.47603619,-0.299404401,1,0,0,0.6255,button_left,0.6255,1,,,,,,266,NW,"ID",33,varmit,VARMIT,z,,,,,,-0.47603619,-0.299404401,1,0,0,,0,183,183,265,1,
,,,,,,,,,,,,,,,,,,5c576413a7890b0001f59a92,2020-08-10_16h12.16.981,lexical_decision_task_MP,2020.1.3,Linux armv8l,60,,0,-0.435164457,-0.328255055,1,0,0,0.832,button_left,0.832,1,,,,,,294,NW,"ID",33,inhort,INHORT,z,,,,,,-0.435164457,-0.328255055,1,0,0,,0,184,184,293,1,
,,,,,,,,,,,,,,,,,,5c576413a7890b0001f59a92,2020-08-10_16h12.16.981,lexical_decision_task_MP,2020.1.3,Linux armv8l,60,,0,-0.465217235,-0.317435942,1,0,0,0.6463,button_left,0.6463,1,,,,,,431,NW,UN,50,lunker,CHRUMS,z,,,,,,-0.465217235,-0.317435942,1,0,0,,0,185,185,430,1,
,,,,,,,,,,,,,,,,,,5c576413a7890b0001f59a92,2020-08-10_16h12.16.981,lexical_decision_task_MP,2020.1.3,Linux armv8l,60,,0,-0.468823606,-0.339074011,1,0,0,0.6487,button_left,0.6487,1,,,,,,272,NW,"ID",33,damilt,DAMILT,z,,,,,,-0.468823606,-0.339074011,1,0,0,,0,186,186,271,1,
,,,,,,,,,,,,,,,,,,5c576413a7890b0001f59a92,2020-08-10_16h12.16.981,lexical_decision_task_MP,2020.1.3,Linux armv8l,60,,0,0.530131286,-0.333063472,1,0,0,0.6525,button_right,0.6525,1,,,,,,158,WORD,UN,33,detail,ISLAND,m,,,,,,0.530131286,-0.333063472,1,0,0,,0,187,187,157,1,
,,,,,,,,,,,,,,,,,,5c576413a7890b0001f59a92,2020-08-10_16h12.16.981,lexical_decision_task_MP,2020.1.3,Linux armv8l,60,,0,-0.461610942,-0.30180857,1,0,0,0.5842,button_left,0.5842,1,,,,,,328,NW,"ID",50,broake,BROAKE,z,,,,,,-0.461610942,-0.30180857,1,0,0,,0,188,188,327,1,
,,,,,,,,,,,,,,,,,,5c576413a7890b0001f59a92,2020-08-10_16h12.16.981,lexical_decision_task_MP,2020.1.3,Linux armv8l,60,,0,-0.459206695,-0.300606446,1,0,0,0.647,button_left,0.647,1,,,,,,321,NW,"ID",50,miator,MIATOR,z,,,,,,-0.459206695,-0.300606446,1,0,0,,0,189,189,320,1,
,,,,,,,,,,,,,,,,,,5c576413a7890b0001f59a92,2020-08-10_16h12.16.981,lexical_decision_task_MP,2020.1.3,Linux armv8l,60,,0,0.512099508,-0.324648684,1,0,0,0.765,button_right,0.765,1,,,,,,124,WORD,UN,33,nickel,BLOUSE,m,,,,,,0.512099508,-0.324648684,1,0,0,,0,190,190,123,1,
,,,,,,,,,,,,,,,,,,5c576413a7890b0001f59a92,2020-08-10_16h12.16.981,lexical_decision_task_MP,2020.1.3,Linux armv8l,60,,0,0.544556613,-0.284978995,1,0,0,0.6805,button_right,0.6805,1,,,,,,184,WORD,UN,50,bother,SLEAZY,m,,,,,,0.544556613,-0.284978995,1,0,0,,0,191,191,183,1,
,,,,,,,,,,,,,,,,,,5c576413a7890b0001f59a92,2020-08-10_16h12.16.981,lexical_decision_task_MP,2020.1.3,Linux armv8l,60,,0,0.516908161,-0.322244437,1,0,0,0.5643,button_right,0.5643,1,,,,,,103,WORD,"ID",50,bounce,BOUNCE,m,,,,,,0.516908161,-0.322244437,1,0,0,,0,192,192,102,1,
,,,,,,,,,,,,,,,,,,5c576413a7890b0001f59a92,2020-08-10_16h12.16.981,lexical_decision_task_MP,2020.1.3,Linux armv8l,60,,0,-0.45800465,-0.342680383,1,0,0,0.6782,button_left,0.6782,1,,,,,,457,NW,UN,50,barcet,WANIGH,z,,,,,,-0.45800465,-0.342680383,1,0,0,,0,193,193,456,1,
,,,,,,,,,,,,,,,,,,5c576413a7890b0001f59a92,2020-08-10_16h12.16.981,lexical_decision_task_MP,2020.1.3,Linux armv8l,60,,0,0.515705959,-0.290989614,1,0,0,0.5338,button_right,0.5338,1,,,,,,109,WORD,"ID",50,wonder,WONDER,m,,,,,,0.515705959,-0.290989614,1,0,0,,0,194,194,108,1,
,,,,,,,,,,,,,,,,,,5c576413a7890b0001f59a92,2020-08-10_16h12.16.981,lexical_decision_task_MP,2020.1.3,Linux armv8l,60,,0,-0.465217235,-0.340276135,1,0,0,0.5843,button_left,0.5843,1,,,,,,472,NW,UN,50,crible,CIGNEY,z,,,,,,-0.465217235,-0.340276135,1,0,0,,0,195,195,471,1,
,,,,,,,,,,,,,,,,,,5c576413a7890b0001f59a92,2020-08-10_16h12.16.981,lexical_decision_task_MP,2020.1.3,Linux armv8l,60,,0,0.532535533,-0.298202277,1,0,0,0.4856,button_right,0.4856,1,,,,,,209,WORD,UN,50,monkey,SEARCH,m,,,,,,0.532535533,-0.298202277,1,0,0,,0,196,196,208,1,
,,,,,,,,,,,,,,,,,,5c576413a7890b0001f59a92,2020-08-10_16h12.16.981,lexical_decision_task_MP,2020.1.3,Linux armv8l,60,,0,0.54936495,-0.281372703,1,0,0,0.635,button_right,0.635,1,,,,,,216,WORD,UN,50,liquor,BEHALF,m,,,,,,0.54936495,-0.281372703,1,0,0,,0,197,197,215,1,
,,,,,,,,,,,,,,,,,,5c576413a7890b0001f59a92,2020-08-10_16h12.16.981,lexical_decision_task_MP,2020.1.3,Linux armv8l,60,,0,-0.466419358,-0.323446481,1,0,0,0.6673,button_left,0.6673,1,,,,,,378,NW,UN,33,auting,SHRILE,z,,,,,,-0.466419358,-0.323446481,1,0,0,,0,198,198,377,1,
,,,,,,,,,,,,,,,,,,5c576413a7890b0001f59a92,2020-08-10_16h12.16.981,lexical_decision_task_MP,2020.1.3,Linux armv8l,60,,0,0.525323107,-0.289787411,1,0,0,0.4825,button_right,0.4825,1,,,,,,136,WORD,UN,33,finger,BLEACH,m,,,,,,0.525323107,-0.289787411,1,0,0,,0,199,199,135,1,
,,,,,,,,,,,,,,,,,,5c576413a7890b0001f59a92,2020-08-10_16h12.16.981,lexical_decision_task_MP,2020.1.3,Linux armv8l,60,,0,0.55657785,-0.287383322,1,0,0,0.566,button_right,0.566,1,,,,,,86,WORD,"ID",50,rodent,RODENT,m,,,,,,0.55657785,-0.287383322,1,0,0,,0,200,200,85,1,
,,,,,,,,,,,,,,,,,,5c576413a7890b0001f59a92,2020-08-10_16h12.16.981,lexical_decision_task_MP,2020.1.3,Linux armv8l,60,,0,-0.468823606,-0.317435942,1,0,0,0.6219,button_left,0.6219,1,,,,,,427,NW,UN,50,tandly,SCHIND,z,,,,,,-0.468823606,-0.317435942,1,0,0,,0,201,201,426,1,
,,,,,,,,,,,,,,,,,,5c576413a7890b0001f59a92,2020-08-10_16h12.16.981,lexical_decision_task_MP,2020.1.3,Linux armv8l,60,,0,-0.456802447,-0.328255055,1,0,0,0.7142,button_left,0.7142,0,,,,,,142,WORD,UN,33,orphan,SPRUCE,m,,,,,,-0.456802447,-0.328255055,1,0,0,,0,202,202,141,1,
,,,,,,,,,,,,,,,,,,5c576413a7890b0001f59a92,2020-08-10_16h12.16.981,lexical_decision_task_MP,2020.1.3,Linux armv8l,60,,0,-0.462812987,-0.319840268,1,0,0,0.8583,button_left,0.8583,1,,,,,,309,NW,"ID",50,amiloy,AMILOY,z,,,,,,-0.462812987,-0.319840268,1,0,0,,0,203,203,308,1,
,,,,,,,,,,,,,,,,,,5c576413a7890b0001f59a92,2020-08-10_16h12.16.981,lexical_decision_task_MP,2020.1.3,Linux armv8l,60,,0,0.496472136,-0.315031773,1,0,0,0.5651,button_right,0.5651,1,,,,,,233,WORD,UN,50,clumsy,NATURE,m,,,,,,0.496472136,-0.315031773,1,0,0,,0,204,204,232,1,
,,,,,,,,,,,,,,,,,,5c576413a7890b0001f59a92,2020-08-10_16h12.16.981,lexical_decision_task_MP,2020.1.3,Linux armv8l,60,,0,-0.460408819,-0.337871967,1,0,0,0.5982,button_left,0.5982,1,,,,,,287,NW,"ID",33,nymbel,NYMBEL,z,,,,,,-0.460408819,-0.337871967,1,0,0,,0,205,205,286,1,
,,,,,,,,,,,,,,,,,,5c576413a7890b0001f59a92,2020-08-10_16h12.16.981,lexical_decision_task_MP,2020.1.3,Linux armv8l,60,,0,0.500078429,-0.303010693,1,0,0,0.5486,button_right,0.5486,1,,,,,,96,WORD,"ID",50,ignore,IGNORE,m,,,,,,0.500078429,-0.303010693,1,0,0,,0,206,206,95,1,
,,,,,,,,,,,,,,,,,,5c576413a7890b0001f59a92,2020-08-10_16h12.16.981,lexical_decision_task_MP,2020.1.3,Linux armv8l,60,,0,-0.468823606,-0.304212817,1,0,0,0.6208,button_left,0.6208,1,,,,,,265,NW,"ID",33,distar,DISTAR,z,,,,,,-0.468823606,-0.304212817,1,0,0,,0,207,207,264,1,
,,,,,,,,,,,,,,,,,,5c576413a7890b0001f59a92,2020-08-10_16h12.16.981,lexical_decision_task_MP,2020.1.3,Linux armv8l,60,,0,-0.470025651,-0.339074011,1,0,0,0.6298,button_left,0.6298,1,,,,,,252,NW,"ID",33,stapod,STAPOD,z,,,,,,-0.470025651,-0.339074011,1,0,0,,0,208,208,251,1,
,,,,,,,,,,,,,,,,,,5c576413a7890b0001f59a92,2020-08-10_16h12.16.981,lexical_decision_task_MP,2020.1.3,Linux armv8l,60,,0,0.515705959,-0.317435942,1,0,0,0.5474,button_right,0.5474,1,,,,,,14,WORD,"ID",33,almost,ALMOST,m,,,,,,0.515705959,-0.317435942,1,0,0,,0,209,209,13,1,
,,,,,,,,,,,,,,,,,,5c576413a7890b0001f59a92,2020-08-10_16h12.16.981,lexical_decision_task_MP,2020.1.3,Linux armv8l,60,,0,0.566194683,-0.275362084,1,0,0,0.6498,button_right,0.6498,1,,,,,,58,WORD,"ID",33,foster,FOSTER,m,,,,,,0.566194683,-0.275362084,1,0,0,,0,210,210,57,1,
,,,,,,,,,,,,,,,,,,5c576413a7890b0001f59a92,2020-08-10_16h12.16.981,lexical_decision_task_MP,2020.1.3,Linux armv8l,60,,0,-0.467621482,-0.30180857,1,0,0,0.77,button_left,0.77,1,,,,,,435,NW,UN,50,frutan,IMPURB,z,,,,,,-0.467621482,-0.30180857,1,0,0,,0,211,211,434,1,
,,,,,,,,,,,,,,,,,,5c576413a7890b0001f59a92,2020-08-10_16h12.16.981,lexical_decision_task_MP,2020.1.3,Linux armv8l,60,,0,0.538546073,-0.284978995,1,0,0,0.5638,button_right,0.5638,1,,,,,,7,WORD,"ID",33,anchor,ANCHOR,m,,,,,,0.538546073,-0.284978995,1,0,0,,0,212,212,6,1,
,,,,,,,,,,,,,,,,,,5c576413a7890b0001f59a92,2020-08-10_16h12.16.981,lexical_decision_task_MP,2020.1.3,Linux armv8l,60,,0,0.548162905,-0.287383322,1,0,0,0.6088,button_right,0.6088,1,,,,,,18,WORD,"ID",33,humble,HUMBLE,m,,,,,,0.548162905,-0.287383322,1,0,0,,0,213,213,17,1,
,,,,,,,,,,,,,,,,,,5c576413a7890b0001f59a92,2020-08-10_16h12.16.981,lexical_decision_task_MP,2020.1.3,Linux armv8l,60,,0,-0.479642641,-0.315031773,1,0,0,0.5819,button_left,0.5819,1,,,,,,430,NW,UN,50,funtle,CAROEY,z,,,,,,-0.479642641,-0.315031773,1,0,0,,0,214,214,429,1,
,,,,,,,,,,,,,,,,,,5c576413a7890b0001f59a92,2020-08-10_16h12.16.981,lexical_decision_task_MP,2020.1.3,Linux armv8l,60,,0,0.520514454,-0.297000075,1,0,0,0.5145,button_right,0.5145,1,,,,,,6,WORD,"ID",33,bundle,BUNDLE,m,,,,,,0.520514454,-0.297000075,1,0,0,,0,215,215,5,1,
,,,,,,,,,,,,,,,,,,5c576413a7890b0001f59a92,2020-08-10_16h12.16.981,lexical_decision_task_MP,2020.1.3,Linux armv8l,60,,0,-0.477238393,-0.321042392,1,0,0,0.5985,button_left,0.5985,1,,,,,,464,NW,UN,50,whivex,CHAITE,z,,,,,,-0.477238393,-0.321042392,1,0,0,,0,216,216,463,1,
,,,,,,,,,,,,,,,,,,5c576413a7890b0001f59a92,2020-08-10_16h12.16.981,lexical_decision_task_MP,2020.1.3,Linux armv8l,60,,0,0.531333489,-0.290989614,1,0,0,0.481,button_right,0.481,1,,,,,,93,WORD,"ID",50,public,PUBLIC,m,,,,,,0.531333489,-0.290989614,1,0,0,,0,217,217,92,1,
,,,,,,,,,,,,,,,,,,5c576413a7890b0001f59a92,2020-08-10_16h12.16.981,lexical_decision_task_MP,2020.1.3,Linux armv8l,60,,0,-0.454398279,-0.322244437,1,0,0,0.7486,button_left,0.7486,1,,,,,,450,NW,UN,50,rastoe,PHRECT,z,,,,,,-0.454398279,-0.322244437,1,0,0,,0,218,218,449,1,
,,,,,,,,,,,,,,,,,,5c576413a7890b0001f59a92,2020-08-10_16h12.16.981,lexical_decision_task_MP,2020.1.3,Linux armv8l,60,,0,0.513301869,-0.330659303,1,0,0,0.5314,button_right,0.5314,1,,,,,,64,WORD,"ID",50,throne,THRONE,m,,,,,,0.513301869,-0.330659303,1,0,0,,0,219,219,63,1,
,,,,,,,,,,,,,,,,,,5c576413a7890b0001f59a92,2020-08-10_16h12.16.981,lexical_decision_task_MP,2020.1.3,Linux armv8l,60,,0,-0.459206695,-0.333063472,1,0,0,0.5863,button_left,0.5863,1,,,,,,317,NW,"ID",50,worbal,WORBAL,z,,,,,,-0.459206695,-0.333063472,1,0,0,,0,220,220,316,1,
,,,,,,,,,,,,,,,,,,5c576413a7890b0001f59a92,2020-08-10_16h12.16.981,lexical_decision_task_MP,2020.1.3,Linux armv8l,60,,0,-0.45199411,-0.336669764,1,0,0,0.9358,button_left,0.9358,1,,,,,,425,NW,UN,50,schind,FRUDGE,z,,,,,,-0.45199411,-0.336669764,1,0,0,,0,221,221,424,1,
,,,,,,,,,,,,,,,,,,5c576413a7890b0001f59a92,2020-08-10_16h12.16.981,lexical_decision_task_MP,2020.1.3,Linux armv8l,60,,0,-0.453196155,-0.30541502,1,0,0,0.6323,button_left,0.6323,1,,,,,,391,NW,UN,33,rouncy,THELDY,z,,,,,,-0.453196155,-0.30541502,1,0,0,,0,222,222,390,1,
,,,,,,,,,,,,,,,,,,5c576413a7890b0001f59a92,2020-08-10_16h12.16.981,lexical_decision_task_MP,2020.1.3,Linux armv8l,60,,0,-0.438770749,-0.33546764,1,0,0,0.6644,button_left,0.6644,1,,,,,,392,NW,UN,33,ganous,ROUNCY,z,,,,,,-0.438770749,-0.33546764,1,0,0,,0,223,223,391,1,
,,,,,,,,,,,,,,,,,,5c576413a7890b0001f59a92,2020-08-10_16h12.16.981,lexical_decision_task_MP,2020.1.3,Linux armv8l,60,,0,-0.465217235,-0.322244437,1,0,0,0.8316,button_left,0.8316,1,,,,,,440,NW,UN,50,cainky,SARIDE,z,,,,,,-0.465217235,-0.322244437,1,0,0,,0,224,224,439,1,
,,,,,,,,,,,,,,,,,,5c576413a7890b0001f59a92,2020-08-10_16h12.16.981,lexical_decision_task_MP,2020.1.3,Linux armv8l,60,,0,0.478440517,-0.336669764,1,0,0,0.6323,button_right,0.6323,1,,,,,,171,WORD,UN,33,patrol,DEPART,m,,,,,,0.478440517,-0.336669764,1,0,0,,0,225,225,170,1,
,,,,,,,,,,,,,,,,,,5c576413a7890b0001f59a92,2020-08-10_16h12.16.981,lexical_decision_task_MP,2020.1.3,Linux armv8l,60,,0,-0.433962412,-0.317435942,1,0,0,0.9815,button_left,0.9815,1,,,,,,314,NW,"ID",50,sprine,SPRINE,z,,,,,,-0.433962412,-0.317435942,1,0,0,,0,226,226,313,1,
,,,,,,,,,,,,,,,,,,5c576413a7890b0001f59a92,2020-08-10_16h12.16.981,lexical_decision_task_MP,2020.1.3,Linux armv8l,60,,0,-0.412324342,-0.328255055,1,0,0,1.6996,button_left,1.6996,1,,,,,,411,NW,UN,33,jiluer,ORCHIN,z,,,,,,-0.412324342,-0.328255055,1,0,0,,0,227,227,410,1,
,,,,,,,,,,,,,,,,,,5c576413a7890b0001f59a92,2020-08-10_16h12.16.981,lexical_decision_task_MP,2020.1.3,Linux armv8l,60,,0,0.498876226,-0.297000075,1,0,0,0.5327,button_right,0.5327,1,,,,,,49,WORD,"ID",33,survey,SURVEY,m,,,,,,0.498876226,-0.297000075,1,0,0,,0,228,228,48,1,
,,,,,,,,,,,,,,,,,,5c576413a7890b0001f59a92,2020-08-10_16h12.16.981,lexical_decision_task_MP,2020.1.3,Linux armv8l,60,,0,-0.403909555,-0.343882506,1,0,0,0.7659,button_left,0.7659,1,,,,,,293,NW,"ID",33,swance,SWANCE,z,,,,,,-0.403909555,-0.343882506,1,0,0,,0,229,229,292,1,
,,,,,,,,,,,,,,,,,,5c576413a7890b0001f59a92,2020-08-10_16h12.16.981,lexical_decision_task_MP,2020.1.3,Linux armv8l,60,,0,-0.462812987,-0.310223357,1,0,0,0.682,button_left,0.682,1,,,,,,260,NW,"ID",33,unject,UNJECT,z,,,,,,-0.462812987,-0.310223357,1,0,0,,0,230,230,259,1,
,,,,,,,,,,,,,,,,,,5c576413a7890b0001f59a92,2020-08-10_16h12.16.981,lexical_decision_task_MP,2020.1.3,Linux armv8l,60,,0,0.518110206,-0.272957915,1,0,0,0.5723,button_right,0.5723,1,,,,,,39,WORD,"ID",33,insect,INSECT,m,,,,,,0.518110206,-0.272957915,1,0,0,,0,231,231,38,1,
,,,,,,,,,,,,,,,,,,5c576413a7890b0001f59a92,2020-08-10_16h12.16.981,lexical_decision_task_MP,2020.1.3,Linux armv8l,60,,0,0.54696086,-0.29579803,1,0,0,0.6328,button_right,0.6328,1,,,,,,144,WORD,UN,33,parish,SPONGE,m,,,,,,0.54696086,-0.29579803,1,0,0,,0,232,232,143,1,
,,,,,,,,,,,,,,,,,,5c576413a7890b0001f59a92,2020-08-10_16h12.16.981,lexical_decision_task_MP,2020.1.3,Linux armv8l,60,,0,-0.468823606,-0.299404401,1,0,0,0.6312,button_left,0.6312,1,,,,,,460,NW,UN,50,justre,MINGAR,z,,,,,,-0.468823606,-0.299404401,1,0,0,,0,233,233,459,1,
,,,,,,,,,,,,,,,,,,5c576413a7890b0001f59a92,2020-08-10_16h12.16.981,lexical_decision_task_MP,2020.1.3,Linux armv8l,60,,0,0.516908161,-0.298202277,1,0,0,0.4993,button_right,0.4993,1,,,,,,69,WORD,"ID",50,plenty,PLENTY,m,,,,,,0.516908161,-0.298202277,1,0,0,,0,234,234,68,1,
,,,,,,,,,,,,,,,,,,5c576413a7890b0001f59a92,2020-08-10_16h12.16.981,lexical_decision_task_MP,2020.1.3,Linux armv8l,60,,0,-0.45800465,-0.294595906,1,0,0,0.5651,button_left,0.5651,1,,,,,,405,NW,UN,33,nouply,FLUMNI,z,,,,,,-0.45800465,-0.294595906,1,0,0,,0,235,235,404,1,
,,,,,,,,,,,,,,,,,,5c576413a7890b0001f59a92,2020-08-10_16h12.16.981,lexical_decision_task_MP,2020.1.3,Linux armv8l,60,,0,-0.450791907,-0.318638144,1,0,0,0.6317,button_left,0.6317,1,,,,,,274,NW,"ID",33,fumblo,FUMBLO,z,,,,,,-0.450791907,-0.318638144,1,0,0,,0,236,236,273,1,
,,,,,,,,,,,,,,,,,,5c576413a7890b0001f59a92,2020-08-10_16h12.16.981,lexical_decision_task_MP,2020.1.3,Linux armv8l,60,,0,0.530131286,-0.292191659,1,0,0,0.5516,button_right,0.5516,1,,,,,,28,WORD,"ID",33,comedy,COMEDY,m,,,,,,0.530131286,-0.292191659,1,0,0,,0,237,237,27,1,
,,,,,,,,,,,,,,,,,,5c576413a7890b0001f59a92,2020-08-10_16h12.16.981,lexical_decision_task_MP,2020.1.3,Linux armv8l,60,,0,0.550567311,-0.269351544,1,0,0,0.5664,button_right,0.5664,1,,,,,,42,WORD,"ID",33,chapel,CHAPEL,m,,,,,,0.550567311,-0.269351544,1,0,0,,0,238,238,41,1,
,,,,,,,,,,,,,,,,,,5c576413a7890b0001f59a92,2020-08-10_16h12.16.981,lexical_decision_task_MP,2020.1.3,Linux armv8l,60,,0,0.543354568,-0.28618104,1,0,0,0.5202,button_right,0.5202,1,,,,,,173,WORD,UN,33,turkey,SHOWER,m,,,,,,0.543354568,-0.28618104,1,0,0,,0,239,239,172,1,
,,,,,,,,,,,,,,,,,,5c576413a7890b0001f59a92,2020-08-10_16h12.16.981,lexical_decision_task_MP,2020.1.3,Linux armv8l,60,,0,-0.464015032,-0.313829728,1,0,0,0.6814,button_left,0.6814,1,,,,,,436,NW,UN,50,snapel,FRUTAN,z,,,,,,-0.464015032,-0.313829728,1,0,0,,0,240,240,435,1,
,,,,,,,,,,,,,,,,,,5c576413a7890b0001f59a92,2020-08-10_16h12.16.981,lexical_decision_task_MP,2020.1.3,Linux armv8l,60,,0,0.5529714,-0.28618104,1,0,0,0.6244,button_right,0.6244,1,,,,,,77,WORD,"ID",50,racket,RACKET,m,,,,,,-0.10458374,-0.40278586,1,0,0,,0,241,241,76,1,break_done_button
,,,,,,,,,,,,,,,,,,5c576413a7890b0001f59a92,2020-08-10_16h12.16.981,lexical_decision_task_MP,2020.1.3,Linux armv8l,60,,0,0.48565326,-0.34508463,1,0,0,0.4838,button_right,0.4838,1,,,,,,160,WORD,UN,33,dragon,VIOLET,m,,,,,,0.48565326,-0.34508463,1,0,0,,0,242,242,159,1,
,,,,,,,,,,,,,,,,,,5c576413a7890b0001f59a92,2020-08-10_16h12.16.981,lexical_decision_task_MP,2020.1.3,Linux armv8l,60,,0,-0.44598357,-0.321042392,1,0,0,0.582,button_left,0.582,0,,,,,,183,WORD,UN,50,sleazy,MILDEW,m,,,,,,-0.44598357,-0.321042392,1,0,0,,0,243,243,182,1,
,,,,,,,,,,,,,,,,,,5c576413a7890b0001f59a92,2020-08-10_16h12.16.981,lexical_decision_task_MP,2020.1.3,Linux armv8l,60,,0,-0.460408819,-0.34508463,1,0,0,0.6982,button_left,0.6982,1,,,,,,300,NW,"ID",33,yarion,YARION,z,,,,,,-0.460408819,-0.34508463,1,0,0,,0,244,244,299,1,
,,,,,,,,,,,,,,,,,,5c576413a7890b0001f59a92,2020-08-10_16h12.16.981,lexical_decision_task_MP,2020.1.3,Linux armv8l,60,,0,0.482046809,-0.316233897,1,0,0,0.4979,button_right,0.4979,1,,,,,,12,WORD,"ID",33,orange,ORANGE,m,,,,,,0.482046809,-0.316233897,1,0,0,,0,245,245,11,1,
,,,,,,,,,,,,,,,,,,5c576413a7890b0001f59a92,2020-08-10_16h12.16.981,lexical_decision_task_MP,2020.1.3,Linux armv8l,60,,0,0.472429977,-0.35109517,1,0,0,0.9154,button_right,0.9154,1,,,,,,114,WORD,"ID",50,placid,PLACID,m,,,,,,0.472429977,-0.35109517,1,0,0,,0,246,246,113,1,
,,,,,,,,,,,,,,,,,,5c576413a7890b0001f59a92,2020-08-10_16h12.16.981,lexical_decision_task_MP,2020.1.3,Linux armv8l,60,,0,-0.424345422,-0.354701541,1,0,0,0.6801,button_left,0.6801,1,,,,,,407,NW,UN,33,hurnia,SUIVER,z,,,,,,-0.424345422,-0.354701541,1,0,0,,0,247,247,406,1,
,,,,,,,,,,,,,,,,,,5c576413a7890b0001f59a92,2020-08-10_16h12.16.981,lexical_decision_task_MP,2020.1.3,Linux armv8l,60,,0,-0.444781368,-0.34748872,1,0,0,1.1957,button_left,1.1957,1,,,,,,415,NW,UN,33,pathel,HIGSTA,z,,,,,,-0.444781368,-0.34748872,1,0,0,,0,248,248,414,1,
,,,,,,,,,,,,,,,,,,5c576413a7890b0001f59a92,2020-08-10_16h12.16.981,lexical_decision_task_MP,2020.1.3,Linux armv8l,60,,0,0.50128079,-0.299404401,1,0,0,0.5484,button_right,0.5484,1,,,,,,162,WORD,UN,33,string,CANDLE,m,,,,,,0.50128079,-0.299404401,1,0,0,,0,249,249,161,1,
,,,,,,,,,,,,,,,,,,5c576413a7890b0001f59a92,2020-08-10_16h12.16.981,lexical_decision_task_MP,2020.1.3,Linux armv8l,60,,0,0.539748276,-0.297000075,1,0,0,0.5481,button_right,0.5481,1,,,,,,117,WORD,"ID",50,branch,BRANCH,m,,,,,,0.539748276,-0.297000075,1,0,0,,0,250,250,116,1,
,,,,,,,,,,,,,,,,,,5c576413a7890b0001f59a92,2020-08-10_16h12.16.981,lexical_decision_task_MP,2020.1.3,Linux armv8l,60,,0,-0.473632022,-0.33546764,1,0,0,0.566,button_left,0.566,1,,,,,,315,NW,"ID",50,laston,LASTON,z,,,,,,-0.473632022,-0.33546764,1,0,0,,0,251,251,314,1,
,,,,,,,,,,,,,,,,,,5c576413a7890b0001f59a92,2020-08-10_16h12.16.981,lexical_decision_task_MP,2020.1.3,Linux armv8l,60,,0,0.516908161,-0.29579803,1,0,0,0.5654,button_right,0.5654,1,,,,,,168,WORD,UN,33,genius,ANSWER,m,,,,,,0.516908161,-0.29579803,1,0,0,,0,252,252,167,1,
,,,,,,,,,,,,,,,,,,5c576413a7890b0001f59a92,2020-08-10_16h12.16.981,lexical_decision_task_MP,2020.1.3,Linux armv8l,60,,0,-0.474834146,-0.334265595,1,0,0,0.6486,button_left,0.6486,1,,,,,,396,NW,UN,33,camble,FLENGY,z,,,,,,-0.474834146,-0.334265595,1,0,0,,0,253,253,395,1,
,,,,,,,,,,,,,,,,,,5c576413a7890b0001f59a92,2020-08-10_16h12.16.981,lexical_decision_task_MP,2020.1.3,Linux armv8l,60,,0,-0.480844685,-0.327052932,1,0,0,0.584,button_left,0.584,1,,,,,,263,NW,"ID",33,dolica,DOLICA,z,,,,,,-0.480844685,-0.327052932,1,0,0,,0,254,254,262,1,
,,,,,,,,,,,,,,,,,,5c576413a7890b0001f59a92,2020-08-10_16h12.16.981,lexical_decision_task_MP,2020.1.3,Linux armv8l,60,,0,-0.47603619,-0.328255055,1,0,0,0.6787,button_left,0.6787,1,,,,,,416,NW,UN,33,earoud,PATHEL,z,,,,,,-0.47603619,-0.328255055,1,0,0,,0,255,255,415,1,
,,,,,,,,,,,,,,,,,,5c576413a7890b0001f59a92,2020-08-10_16h12.16.981,lexical_decision_task_MP,2020.1.3,Linux armv8l,60,,0,0.498876226,-0.321042392,1,0,0,0.5483,button_right,0.5483,1,,,,,,101,WORD,"ID",50,wrench,WRENCH,m,,,,,,0.498876226,-0.321042392,1,0,0,,0,256,256,100,1,
,,,,,,,,,,,,,,,,,,5c576413a7890b0001f59a92,2020-08-10_16h12.16.981,lexical_decision_task_MP,2020.1.3,Linux armv8l,60,,0,-0.495270013,-0.336669764,1,0,0,0.8981,button_left,0.8981,1,,,,,,366,NW,UN,33,slique,TOSHEL,z,,,,,,-0.495270013,-0.336669764,1,0,0,,0,257,257,365,1,
,,,,,,,,,,,,,,,,,,5c576413a7890b0001f59a92,2020-08-10_16h12.16.981,lexical_decision_task_MP,2020.1.3,Linux armv8l,60,,0,-0.479642641,-0.33546764,1,0,0,0.5946,button_left,0.5946,1,,,,,,312,NW,"ID",50,nerawl,NERAWL,z,,,,,,-0.479642641,-0.33546764,1,0,0,,0,258,258,311,1,
,,,,,,,,,,,,,,,,,,5c576413a7890b0001f59a92,2020-08-10_16h12.16.981,lexical_decision_task_MP,2020.1.3,Linux armv8l,60,,0,0.527727196,-0.298202277,1,0,0,0.7302,button_right,0.7302,1,,,,,,19,WORD,"ID",33,patron,PATRON,m,,,,,,0.527727196,-0.298202277,1,0,0,,0,259,259,18,1,
,,,,,,,,,,,,,,,,,,5c576413a7890b0001f59a92,2020-08-10_16h12.16.981,lexical_decision_task_MP,2020.1.3,Linux armv8l,60,,0,-0.484451057,-0.333063472,1,0,0,0.7648,button_left,0.7648,1,,,,,,402,NW,UN,33,bruats,SYNTIC,z,,,,,,-0.484451057,-0.333063472,1,0,0,,0,260,260,401,1,
,,,,,,,,,,,,,,,,,,5c576413a7890b0001f59a92,2020-08-10_16h12.16.981,lexical_decision_task_MP,2020.1.3,Linux armv8l,60,,0,-0.488057349,-0.331861348,1,0,0,0.5986,button_left,0.5986,1,,,,,,347,NW,"ID",50,kerift,KERIFT,z,,,,,,-0.488057349,-0.331861348,1,0,0,,0,261,261,346,1,
,,,,,,,,,,,,,,,,,,5c576413a7890b0001f59a92,2020-08-10_16h12.16.981,lexical_decision_task_MP,2020.1.3,Linux armv8l,60,,0,-0.473632022,-0.329457021,1,0,0,0.5801,button_left,0.5801,1,,,,,,267,NW,"ID",33,pasink,PASINK,z,,,,,,-0.473632022,-0.329457021,1,0,0,,0,262,262,266,1,
,,,,,,,,,,,,,,,,,,5c576413a7890b0001f59a92,2020-08-10_16h12.16.981,lexical_decision_task_MP,2020.1.3,Linux armv8l,60,,0,-0.483249012,-0.337871967,1,0,0,0.5993,button_left,0.5993,1,,,,,,420,NW,UN,33,pauche,GUSHOP,z,,,,,,-0.483249012,-0.337871967,1,0,0,,0,263,263,419,1,
,,,,,,,,,,,,,,,,,,5c576413a7890b0001f59a92,2020-08-10_16h12.16.981,lexical_decision_task_MP,2020.1.3,Linux armv8l,60,,0,-0.483249012,-0.328255055,1,0,0,0.5519,button_left,0.5519,1,,,,,,360,NW,"ID",50,desory,DESORY,z,,,,,,-0.483249012,-0.328255055,1,0,0,,0,264,264,359,1,
,,,,,,,,,,,,,,,,,,5c576413a7890b0001f59a92,2020-08-10_16h12.16.981,lexical_decision_task_MP,2020.1.3,Linux armv8l,60,,0,-0.496472136,-0.336669764,1,0,0,0.5741,button_left,0.5741,1,,,,,,256,NW,"ID",33,inlors,INLORS,z,,,,,,-0.496472136,-0.336669764,1,0,0,,0,265,265,255,1,
,,,,,,,,,,,,,,,,,,5c576413a7890b0001f59a92,2020-08-10_16h12.16.981,lexical_decision_task_MP,2020.1.3,Linux armv8l,60,,0,0.533737578,-0.29579803,1,0,0,0.4955,button_right,0.4955,1,,,,,,40,WORD,"ID",33,convey,CONVEY,m,,,,,,0.533737578,-0.29579803,1,0,0,,0,266,266,39,1,
,,,,,,,,,,,,,,,,,,5c576413a7890b0001f59a92,2020-08-10_16h12.16.981,lexical_decision_task_MP,2020.1.3,Linux armv8l,60,,0,-0.490461597,-0.340276135,1,0,0,0.518,button_left,0.518,1,,,,,,480,NW,UN,50,knisma,ROBULY,z,,,,,,-0.490461597,-0.340276135,1,0,0,,0,267,267,479,1,
,,,,,,,,,,,,,,,,,,5c576413a7890b0001f59a92,2020-08-10_16h12.16.981,lexical_decision_task_MP,2020.1.3,Linux armv8l,60,,0,0.537344186,-0.315031773,1,0,0,0.5829,button_right,0.5829,1,,,,,,213,WORD,UN,50,intake,SQUEAL,m,,,,,,0.537344186,-0.315031773,1,0,0,,0,268,268,212,1,
,,,,,,,,,,,,,,,,,,5c576413a7890b0001f59a92,2020-08-10_16h12.16.981,lexical_decision_task_MP,2020.1.3,Linux armv8l,60,,0,0.550567311,-0.293393861,1,0,0,0.5197,button_right,0.5197,1,,,,,,177,WORD,UN,33,inform,ADVENT,m,,,,,,0.550567311,-0.293393861,1,0,0,,0,269,269,176,1,
,,,,,,,,,,,,,,,,,,5c576413a7890b0001f59a92,2020-08-10_16h12.16.981,lexical_decision_task_MP,2020.1.3,Linux armv8l,60,,0,-0.490461597,-0.331861348,1,0,0,0.5489,button_left,0.5489,1,,,,,,259,NW,"ID",33,soudal,SOUDAL,z,,,,,,-0.490461597,-0.331861348,1,0,0,,0,270,270,258,1,
,,,,,,,,,,,,,,,,,,5c576413a7890b0001f59a92,2020-08-10_16h12.16.981,lexical_decision_task_MP,2020.1.3,Linux armv8l,60,,0,0.537344186,-0.297000075,1,0,0,0.4982,button_right,0.4982,1,,,,,,167,WORD,UN,33,answer,DESIGN,m,,,,,,0.537344186,-0.297000075,1,0,0,,0,271,271,166,1,
,,,,,,,,,,,,,,,,,,5c576413a7890b0001f59a92,2020-08-10_16h12.16.981,lexical_decision_task_MP,2020.1.3,Linux armv8l,60,,0,-0.495270013,-0.327052932,1,0,0,0.5504,button_left,0.5504,1,,,,,,253,NW,"ID",33,resait,RESAIT,z,,,,,,-0.495270013,-0.327052932,1,0,0,,0,272,272,252,1,
,,,,,,,,,,,,,,,,,,5c576413a7890b0001f59a92,2020-08-10_16h12.16.981,lexical_decision_task_MP,2020.1.3,Linux armv8l,60,,0,0.537344186,-0.290989614,1,0,0,0.4995,button_right,0.4995,1,,,,,,226,WORD,UN,50,flower,CASINO,m,,,,,,0.537344186,-0.290989614,1,0,0,,0,273,273,225,1,
,,,,,,,,,,,,,,,,,,5c576413a7890b0001f59a92,2020-08-10_16h12.16.981,lexical_decision_task_MP,2020.1.3,Linux armv8l,60,,0,0.537344186,-0.29579803,1,0,0,0.5618,button_right,0.5618,1,,,,,,113,WORD,"ID",50,chorus,CHORUS,m,,,,,,0.537344186,-0.29579803,1,0,0,,0,274,274,112,1,
,,,,,,,,,,,,,,,,,,5c576413a7890b0001f59a92,2020-08-10_16h12.16.981,lexical_decision_task_MP,2020.1.3,Linux armv8l,60,,0,0.544556613,-0.281372703,1,0,0,0.5653,button_right,0.5653,1,,,,,,239,WORD,UN,50,forest,LUMBER,m,,,,,,0.544556613,-0.281372703,1,0,0,,0,275,275,238,1,
,,,,,,,,,,,,,,,,,,5c576413a7890b0001f59a92,2020-08-10_16h12.16.981,lexical_decision_task_MP,2020.1.3,Linux armv8l,60,,0,0.551769355,-0.280170579,1,0,0,0.5642,button_right,0.5642,1,,,,,,166,WORD,UN,33,design,STARCH,m,,,,,,0.551769355,-0.280170579,1,0,0,,0,276,276,165,1,
,,,,,,,,,,,,,,,,,,5c576413a7890b0001f59a92,2020-08-10_16h12.16.981,lexical_decision_task_MP,2020.1.3,Linux armv8l,60,,0,-0.486855304,-0.328255055,1,0,0,0.7484,button_left,0.7484,1,,,,,,302,NW,"ID",50,miluer,MILUER,z,,,,,,-0.486855304,-0.328255055,1,0,0,,0,277,277,301,1,
,,,,,,,,,,,,,,,,,,5c576413a7890b0001f59a92,2020-08-10_16h12.16.981,lexical_decision_task_MP,2020.1.3,Linux armv8l,60,,0,-0.48204673,-0.34147818,1,0,0,0.6631,button_left,0.6631,1,,,,,,313,NW,"ID",50,paurse,PAURSE,z,,,,,,-0.48204673,-0.34147818,1,0,0,,0,278,278,312,1,
,,,,,,,,,,,,,,,,,,5c576413a7890b0001f59a92,2020-08-10_16h12.16.981,lexical_decision_task_MP,2020.1.3,Linux armv8l,60,,0,-0.465217235,-0.343882506,1,0,0,0.6184,button_left,0.6184,1,,,,,,424,NW,UN,50,urivel,PRAILE,z,,,,,,-0.465217235,-0.343882506,1,0,0,,0,279,279,423,1,
,,,,,,,,,,,,,,,,,,5c576413a7890b0001f59a92,2020-08-10_16h12.16.981,lexical_decision_task_MP,2020.1.3,Linux armv8l,60,,0,-0.477238393,-0.34508463,1,0,0,0.5653,button_left,0.5653,1,,,,,,318,NW,"ID",50,reagly,REAGLY,z,,,,,,-0.477238393,-0.34508463,1,0,0,,0,280,280,317,1,
,,,,,,,,,,,,,,,,,,5c576413a7890b0001f59a92,2020-08-10_16h12.16.981,lexical_decision_task_MP,2020.1.3,Linux armv8l,60,,0,0.515705959,-0.323446481,1,0,0,0.6191,button_right,0.6191,1,,,,,,3,WORD,"ID",33,knight,KNIGHT,m,,,,,,0.515705959,-0.323446481,1,0,0,,0,281,281,2,1,
,,,,,,,,,,,,,,,,,,5c576413a7890b0001f59a92,2020-08-10_16h12.16.981,lexical_decision_task_MP,2020.1.3,Linux armv8l,60,,0,0.540950321,-0.299404401,1,0,0,0.5855,button_right,0.5855,1,,,,,,132,WORD,UN,33,bleach,STRONG,m,,,,,,0.540950321,-0.299404401,1,0,0,,0,282,282,131,1,
,,,,,,,,,,,,,,,,,,5c576413a7890b0001f59a92,2020-08-10_16h12.16.981,lexical_decision_task_MP,2020.1.3,Linux armv8l,60,,0,0.539748276,-0.287383322,1,0,0,0.6155,button_right,0.6155,1,,,,,,211,WORD,UN,50,verify,INFECT,m,,,,,,0.539748276,-0.287383322,1,0,0,,0,283,283,210,1,
,,,,,,,,,,,,,,,,,,5c576413a7890b0001f59a92,2020-08-10_16h12.16.981,lexical_decision_task_MP,2020.1.3,Linux armv8l,60,,0,-0.494067968,-0.330659303,1,0,0,0.6987,button_left,0.6987,1,,,,,,306,NW,"ID",50,sounge,SOUNGE,z,,,,,,-0.494067968,-0.330659303,1,0,0,,0,284,284,305,1,
,,,,,,,,,,,,,,,,,,5c576413a7890b0001f59a92,2020-08-10_16h12.16.981,lexical_decision_task_MP,2020.1.3,Linux armv8l,60,,0,-0.494067968,-0.337871967,1,0,0,0.6917,button_left,0.6917,1,,,,,,319,NW,"ID",50,zomber,ZOMBER,z,,,,,,-0.494067968,-0.337871967,1,0,0,,0,285,285,318,1,
,,,,,,,,,,,,,,,,,,5c576413a7890b0001f59a92,2020-08-10_16h12.16.981,lexical_decision_task_MP,2020.1.3,Linux armv8l,60,,0,0.516908161,-0.323446481,1,0,0,0.5325,button_right,0.5325,1,,,,,,210,WORD,UN,50,infect,MONKEY,m,,,,,,0.516908161,-0.323446481,1,0,0,,0,286,286,209,1,
,,,,,,,,,,,,,,,,,,5c576413a7890b0001f59a92,2020-08-10_16h12.16.981,lexical_decision_task_MP,2020.1.3,Linux armv8l,60,,0,-0.486855304,-0.348691001,1,0,0,0.6822,button_left,0.6822,1,,,,,,452,NW,UN,50,bolvis,SURDEN,z,,,,,,-0.486855304,-0.348691001,1,0,0,,0,287,287,451,1,
,,,,,,,,,,,,,,,,,,5c576413a7890b0001f59a92,2020-08-10_16h12.16.981,lexical_decision_task_MP,2020.1.3,Linux armv8l,60,,0,-0.513301711,-0.334265595,1,0,0,0.585,button_left,0.585,1,,,,,,327,NW,"ID",50,plenac,PLENAC,z,,,,,,-0.513301711,-0.334265595,1,0,0,,0,288,288,326,1,
,,,,,,,,,,,,,,,,,,5c576413a7890b0001f59a92,2020-08-10_16h12.16.981,lexical_decision_task_MP,2020.1.3,Linux armv8l,60,,0,-0.508493295,-0.334265595,1,0,0,0.5969,button_left,0.5969,1,,,,,,441,NW,UN,50,aboune,RASTOE,z,,,,,,-0.508493295,-0.334265595,1,0,0,,0,289,289,440,1,
,,,,,,,,,,,,,,,,,,5c576413a7890b0001f59a92,2020-08-10_16h12.16.981,lexical_decision_task_MP,2020.1.3,Linux armv8l,60,,0,0.495270092,-0.339074011,1,0,0,0.603,button_right,0.603,1,,,,,,81,WORD,"ID",50,friend,FRIEND,m,,,,,,0.495270092,-0.339074011,1,0,0,,0,290,290,80,1,
,,,,,,,,,,,,,,,,,,5c576413a7890b0001f59a92,2020-08-10_16h12.16.981,lexical_decision_task_MP,2020.1.3,Linux armv8l,60,,0,-0.506089047,-0.325850808,1,0,0,0.6017,button_left,0.6017,1,,,,,,291,NW,"ID",33,pretch,PRETCH,z,,,,,,-0.506089047,-0.325850808,1,0,0,,0,291,291,290,1,
,,,,,,,,,,,,,,,,,,5c576413a7890b0001f59a92,2020-08-10_16h12.16.981,lexical_decision_task_MP,2020.1.3,Linux armv8l,60,,0,-0.51931233,-0.339074011,1,0,0,0.5805,button_left,0.5805,1,,,,,,421,NW,UN,50,alcoud,KNISMA,z,,,,,,-0.51931233,-0.339074011,1,0,0,,0,292,292,420,1,
,,,,,,,,,,,,,,,,,,5c576413a7890b0001f59a92,2020-08-10_16h12.16.981,lexical_decision_task_MP,2020.1.3,Linux armv8l,60,,0,-0.51931233,-0.348691001,1,0,0,0.7316,button_left,0.7316,1,,,,,,345,NW,"ID",50,absend,ABSEND,z,,,,,,-0.51931233,-0.348691001,1,0,0,,0,293,293,344,1,
,,,,,,,,,,,,,,,,,,5c576413a7890b0001f59a92,2020-08-10_16h12.16.981,lexical_decision_task_MP,2020.1.3,Linux armv8l,60,,0,-0.531333409,-0.334265595,1,0,0,0.5307,button_left,0.5307,1,,,,,,258,NW,"ID",33,poluth,POLUTH,z,,,,,,-0.531333409,-0.334265595,1,0,0,,0,294,294,257,1,
,,,,,,,,,,,,,,,,,,5c576413a7890b0001f59a92,2020-08-10_16h12.16.981,lexical_decision_task_MP,2020.1.3,Linux armv8l,60,,0,0.486855146,-0.342680383,1,0,0,0.5376,button_right,0.5376,1,,,,,,169,WORD,UN,33,pounce,GENIUS,m,,,,,,0.486855146,-0.342680383,1,0,0,,0,295,295,168,1,
,,,,,,,,,,,,,,,,,,5c576413a7890b0001f59a92,2020-08-10_16h12.16.981,lexical_decision_task_MP,2020.1.3,Linux armv8l,60,,0,0.515705959,-0.29579803,1,0,0,0.5634,button_right,0.5634,1,,,,,,191,WORD,UN,50,absent,STABLE,m,,,,,,0.515705959,-0.29579803,1,0,0,,0,296,296,190,1,
,,,,,,,,,,,,,,,,,,5c576413a7890b0001f59a92,2020-08-10_16h12.16.981,lexical_decision_task_MP,2020.1.3,Linux armv8l,60,,0,0.507291171,-0.323446481,1,0,0,0.5822,button_right,0.5822,1,,,,,,189,WORD,UN,50,backup,CENSOR,m,,,,,,0.507291171,-0.323446481,1,0,0,,0,297,297,188,1,
,,,,,,,,,,,,,,,,,,5c576413a7890b0001f59a92,2020-08-10_16h12.16.981,lexical_decision_task_MP,2020.1.3,Linux armv8l,60,,0,-0.515705959,-0.337871967,1,0,0,0.7147,button_left,0.7147,1,,,,,,349,NW,"ID",50,asylen,ASYLEN,z,,,,,,-0.515705959,-0.337871967,1,0,0,,0,298,298,348,1,
,,,,,,,,,,,,,,,,,,5c576413a7890b0001f59a92,2020-08-10_16h12.16.981,lexical_decision_task_MP,2020.1.3,Linux armv8l,60,,0,0.513301869,-0.312627605,1,0,0,0.4995,button_right,0.4995,1,,,,,,88,WORD,"ID",50,hunger,HUNGER,m,,,,,,0.513301869,-0.312627605,1,0,0,,0,299,299,87,1,
,,,,,,,,,,,,,,,,,,5c576413a7890b0001f59a92,2020-08-10_16h12.16.981,lexical_decision_task_MP,2020.1.3,Linux armv8l,60,,0,0.540950321,-0.28618104,1,0,0,0.5165,button_right,0.5165,1,,,,,,71,WORD,"ID",50,garden,GARDEN,m,,,,,,0.540950321,-0.28618104,1,0,0,,0,300,300,70,1,
,,,,,,,,,,,,,,,,,,5c576413a7890b0001f59a92,2020-08-10_16h12.16.981,lexical_decision_task_MP,2020.1.3,Linux armv8l,60,,0,-0.528929162,-0.325850808,1,0,0,0.5842,button_left,0.5842,1,,,,,,290,NW,"ID",33,splino,SPLINO,z,,,,,,-0.528929162,-0.325850808,1,0,0,,0,301,301,289,1,
,,,,,,,,,,,,,,,,,,5c576413a7890b0001f59a92,2020-08-10_16h12.16.981,lexical_decision_task_MP,2020.1.3,Linux armv8l,60,,0,-0.51931233,-0.331861348,1,0,0,0.6121,button_left,0.6121,1,,,,,,289,NW,"ID",33,starby,STARBY,z,,,,,,-0.51931233,-0.331861348,1,0,0,,0,302,302,288,1,
,,,,,,,,,,,,,,,,,,5c576413a7890b0001f59a92,2020-08-10_16h12.16.981,lexical_decision_task_MP,2020.1.3,Linux armv8l,60,,0,-0.492865844,-0.327052932,1,0,0,0.6708,button_left,0.6708,1,,,,,,409,NW,UN,33,tunory,ELOPIA,z,,,,,,-0.492865844,-0.327052932,1,0,0,,0,303,303,408,1,
,,,,,,,,,,,,,,,,,,5c576413a7890b0001f59a92,2020-08-10_16h12.16.981,lexical_decision_task_MP,2020.1.3,Linux armv8l,60,,0,-0.518110127,-0.33546764,1,0,0,0.5805,button_left,0.5805,1,,,,,,426,NW,UN,50,frudge,URIVEL,z,,,,,,-0.518110127,-0.33546764,1,0,0,,0,304,304,425,1,
,,,,,,,,,,,,,,,,,,5c576413a7890b0001f59a92,2020-08-10_16h12.16.981,lexical_decision_task_MP,2020.1.3,Linux armv8l,60,,0,0.509695419,-0.330659303,1,0,0,0.6167,button_right,0.6167,1,,,,,,202,WORD,UN,50,phrase,FACTOR,m,,,,,,0.509695419,-0.330659303,1,0,0,,0,305,305,201,1,
,,,,,,,,,,,,,,,,,,5c576413a7890b0001f59a92,2020-08-10_16h12.16.981,lexical_decision_task_MP,2020.1.3,Linux armv8l,60,,0,-0.537343949,-0.33546764,1,0,0,0.596,button_left,0.596,1,,,,,,455,NW,UN,50,broget,TONDLE,z,,,,,,-0.537343949,-0.33546764,1,0,0,,0,306,306,454,1,
,,,,,,,,,,,,,,,,,,5c576413a7890b0001f59a92,2020-08-10_16h12.16.981,lexical_decision_task_MP,2020.1.3,Linux armv8l,60,,0,0.531333489,-0.30180857,1,0,0,0.5595,button_right,0.5595,1,,,,,,198,WORD,UN,50,invoke,WICKED,m,,,,,,0.531333489,-0.30180857,1,0,0,,0,307,307,197,1,
,,,,,,,,,,,,,,,,,,5c576413a7890b0001f59a92,2020-08-10_16h12.16.981,lexical_decision_task_MP,2020.1.3,Linux armv8l,60,,0,-0.534939702,-0.336669764,1,0,0,0.5212,button_left,0.5212,1,,,,,,356,NW,"ID",50,othnis,OTHNIS,z,,,,,,-0.534939702,-0.336669764,1,0,0,,0,308,308,355,1,
,,,,,,,,,,,,,,,,,,5c576413a7890b0001f59a92,2020-08-10_16h12.16.981,lexical_decision_task_MP,2020.1.3,Linux armv8l,60,,0,-0.54696086,-0.33546764,1,0,0,0.5852,button_left,0.5852,1,,,,,,363,NW,UN,33,impote,BREALI,z,,,,,,-0.54696086,-0.33546764,1,0,0,,0,309,309,362,1,
,,,,,,,,,,,,,,,,,,5c576413a7890b0001f59a92,2020-08-10_16h12.16.981,lexical_decision_task_MP,2020.1.3,Linux armv8l,60,,0,-0.554173524,-0.325850808,1,0,0,0.5819,button_left,0.5819,1,,,,,,275,NW,"ID",33,sleirt,SLEIRT,z,,,,,,-0.554173524,-0.325850808,1,0,0,,0,310,310,274,1,
,,,,,,,,,,,,,,,,,,5c576413a7890b0001f59a92,2020-08-10_16h12.16.981,lexical_decision_task_MP,2020.1.3,Linux armv8l,60,,0,-0.544556613,-0.327052932,1,0,0,0.6163,button_left,0.6163,1,,,,,,332,NW,"ID",50,vangue,VANGUE,z,,,,,,-0.544556613,-0.327052932,1,0,0,,0,311,311,331,1,
,,,,,,,,,,,,,,,,,,5c576413a7890b0001f59a92,2020-08-10_16h12.16.981,lexical_decision_task_MP,2020.1.3,Linux armv8l,60,,0,-0.534939702,-0.331861348,1,0,0,0.5122,button_left,0.5122,1,,,,,,372,NW,UN,33,bigent,RAMILY,z,,,,,,-0.534939702,-0.331861348,1,0,0,,0,312,312,371,1,
,,,,,,,,,,,,,,,,,,5c576413a7890b0001f59a92,2020-08-10_16h12.16.981,lexical_decision_task_MP,2020.1.3,Linux armv8l,60,,0,0.544556613,-0.342680383,1,0,0,0.6375,button_right,0.6375,1,,,,,,236,WORD,UN,50,poster,PIRATE,m,,,,,,0.544556613,-0.342680383,1,0,0,,0,313,313,235,1,
,,,,,,,,,,,,,,,,,,5c576413a7890b0001f59a92,2020-08-10_16h12.16.981,lexical_decision_task_MP,2020.1.3,Linux armv8l,60,,0,0.595045337,-0.280170579,1,0,0,0.4972,button_right,0.4972,1,,,,,,105,WORD,"ID",50,number,NUMBER,m,,,,,,0.595045337,-0.280170579,1,0,0,,0,314,314,104,1,
,,,,,,,,,,,,,,,,,,5c576413a7890b0001f59a92,2020-08-10_16h12.16.981,lexical_decision_task_MP,2020.1.3,Linux armv8l,60,,0,0.583024257,-0.28618104,1,0,0,0.633,button_right,0.633,1,,,,,,123,WORD,UN,33,enough,STRIKE,m,,,,,,0.583024257,-0.28618104,1,0,0,,0,315,315,122,1,
,,,,,,,,,,,,,,,,,,5c576413a7890b0001f59a92,2020-08-10_16h12.16.981,lexical_decision_task_MP,2020.1.3,Linux armv8l,60,,0,-0.533737657,-0.342680383,1,0,0,0.5804,button_left,0.5804,1,,,,,,339,NW,"ID",50,fachow,FACHOW,z,,,,,,-0.533737657,-0.342680383,1,0,0,,0,316,316,338,1,
,,,,,,,,,,,,,,,,,,5c576413a7890b0001f59a92,2020-08-10_16h12.16.981,lexical_decision_task_MP,2020.1.3,Linux armv8l,60,,0,0.550567311,-0.325850808,1,0,0,0.5389,button_right,0.5389,1,,,,,,157,WORD,UN,33,island,DRAGON,m,,,,,,0.550567311,-0.325850808,1,0,0,,0,317,317,156,1,
,,,,,,,,,,,,,,,,,,5c576413a7890b0001f59a92,2020-08-10_16h12.16.981,lexical_decision_task_MP,2020.1.3,Linux armv8l,60,,0,0.569800975,-0.292191659,1,0,0,0.5329,button_right,0.5329,1,,,,,,229,WORD,UN,50,fringe,MOTHER,m,,,,,,0.569800975,-0.292191659,1,0,0,,0,318,318,228,1,
,,,,,,,,,,,,,,,,,,5c576413a7890b0001f59a92,2020-08-10_16h12.16.981,lexical_decision_task_MP,2020.1.3,Linux armv8l,60,,0,0.572205222,-0.29579803,1,0,0,0.5989,button_right,0.5989,1,,,,,,85,WORD,"ID",50,sprawl,SPRAWL,m,,,,,,0.572205222,-0.29579803,1,0,0,,0,319,319,84,1,
,,,,,,,,,,,,,,,,,,5c576413a7890b0001f59a92,2020-08-10_16h12.16.981,lexical_decision_task_MP,2020.1.3,Linux armv8l,60,,0,0.574609628,-0.289787411,1,0,0,0.516,button_right,0.516,1,,,,,,107,WORD,"ID",50,slogan,SLOGAN,m,,,,,,0.574609628,-0.289787411,1,0,0,,0,320,320,106,1,
,,,,,,,,,,,,,,,,,,5c576413a7890b0001f59a92,2020-08-10_16h12.16.981,lexical_decision_task_MP,2020.1.3,Linux armv8l,60,,0,-0.538546073,-0.33546764,1,0,0,0.6481,button_left,0.6481,1,,,,,,297,NW,"ID",33,fertic,FERTIC,z,,,,,,-0.538546073,-0.33546764,1,0,0,,0,321,321,296,1,
,,,,,,,,,,,,,,,,,,5c576413a7890b0001f59a92,2020-08-10_16h12.16.981,lexical_decision_task_MP,2020.1.3,Linux armv8l,60,,0,0.555375648,-0.299404401,1,0,0,0.5119,button_right,0.5119,1,,,,,,225,WORD,UN,50,kidney,VULGAR,m,,,,,,0.555375648,-0.299404401,1,0,0,,0,322,322,224,1,
,,,,,,,,,,,,,,,,,,5c576413a7890b0001f59a92,2020-08-10_16h12.16.981,lexical_decision_task_MP,2020.1.3,Linux armv8l,60,,0,0.587832594,-0.277766331,1,0,0,0.516,button_right,0.516,1,,,,,,41,WORD,"ID",33,spring,SPRING,m,,,,,,0.587832594,-0.277766331,1,0,0,,0,323,323,40,1,
,,,,,,,,,,,,,,,,,,5c576413a7890b0001f59a92,2020-08-10_16h12.16.981,lexical_decision_task_MP,2020.1.3,Linux armv8l,60,,0,0.561386029,-0.292191659,1,0,0,0.4544,button_right,0.4544,0,,,,,,285,NW,"ID",33,prudge,PRUDGE,z,,,,,,0.561386029,-0.292191659,1,0,0,,0,324,324,284,1,
,,,,,,,,,,,,,,,,,,5c576413a7890b0001f59a92,2020-08-10_16h12.16.981,lexical_decision_task_MP,2020.1.3,Linux armv8l,60,,0,-0.532535533,-0.329457021,1,0,0,0.8499,button_left,0.8499,1,,,,,,418,NW,UN,33,slount,SUIDLE,z,,,,,,-0.532535533,-0.329457021,1,0,0,,0,325,325,417,1,
,,,,,,,,,,,,,,,,,,5c576413a7890b0001f59a92,2020-08-10_16h12.16.981,lexical_decision_task_MP,2020.1.3,Linux armv8l,60,,0,-0.534939702,-0.336669764,1,0,0,0.5967,button_left,0.5967,1,,,,,,401,NW,UN,33,elopia,MUSTIL,z,,,,,,-0.534939702,-0.336669764,1,0,0,,0,326,326,400,1,
,,,,,,,,,,,,,,,,,,5c576413a7890b0001f59a92,2020-08-10_16h12.16.981,lexical_decision_task_MP,2020.1.3,Linux armv8l,60,,0,0.563790435,-0.29579803,1,0,0,0.7323,button_right,0.7323,1,,,,,,16,WORD,"ID",33,faucet,FAUCET,m,,,,,,0.563790435,-0.29579803,1,0,0,,0,327,327,15,1,
,,,,,,,,,,,,,,,,,,5c576413a7890b0001f59a92,2020-08-10_16h12.16.981,lexical_decision_task_MP,2020.1.3,Linux armv8l,60,,0,0.563790435,-0.300606446,1,0,0,0.7242,button_right,0.7242,1,,,,,,138,WORD,UN,33,staple,MELODY,m,,,,,,0.563790435,-0.300606446,1,0,0,,0,328,328,137,1,
,,,,,,,,,,,,,,,,,,5c576413a7890b0001f59a92,2020-08-10_16h12.16.981,lexical_decision_task_MP,2020.1.3,Linux armv8l,60,,0,0.571003178,-0.287383322,1,0,0,0.7657,button_right,0.7657,1,,,,,,235,WORD,UN,50,pirate,GRUMPY,m,,,,,,0.571003178,-0.287383322,1,0,0,,0,329,329,234,1,
,,,,,,,,,,,,,,,,,,5c576413a7890b0001f59a92,2020-08-10_16h12.16.981,lexical_decision_task_MP,2020.1.3,Linux armv8l,60,,0,0.55657785,-0.311425402,1,0,0,0.6749,button_right,0.6749,1,,,,,,70,WORD,"ID",50,square,SQUARE,m,,,,,,0.55657785,-0.311425402,1,0,0,,0,330,330,69,1,
,,,,,,,,,,,,,,,,,,5c576413a7890b0001f59a92,2020-08-10_16h12.16.981,lexical_decision_task_MP,2020.1.3,Linux armv8l,60,,0,0.605864372,-0.274160039,1,0,0,0.5187,button_right,0.5187,0,,,,,,261,NW,"ID",33,stunch,STUNCH,z,,,,,,0.605864372,-0.274160039,1,0,0,,0,331,331,260,1,
,,,,,,,,,,,,,,,,,,5c576413a7890b0001f59a92,2020-08-10_16h12.16.981,lexical_decision_task_MP,2020.1.3,Linux armv8l,60,,0,0.578215762,-0.292191659,1,0,0,0.6529,button_right,0.6529,1,,,,,,218,WORD,UN,50,bucket,SHRINK,m,,,,,,0.578215762,-0.292191659,1,0,0,,0,332,332,217,1,
,,,,,,,,,,,,,,,,,,5c576413a7890b0001f59a92,2020-08-10_16h12.16.981,lexical_decision_task_MP,2020.1.3,Linux armv8l,60,,0,0.578215762,-0.28618104,1,0,0,0.5558,button_right,0.5558,1,,,,,,65,WORD,"ID",50,symbol,SYMBOL,m,,,,,,0.578215762,-0.28618104,1,0,0,,0,333,333,64,1,
,,,,,,,,,,,,,,,,,,5c576413a7890b0001f59a92,2020-08-10_16h12.16.981,lexical_decision_task_MP,2020.1.3,Linux armv8l,60,,0,-0.5529714,-0.322244437,1,0,0,0.7701,button_left,0.7701,1,,,,,,471,NW,UN,50,cigney,NOBEST,z,,,,,,-0.5529714,-0.322244437,1,0,0,,0,334,334,470,1,
,,,,,,,,,,,,,,,,,,5c576413a7890b0001f59a92,2020-08-10_16h12.16.981,lexical_decision_task_MP,2020.1.3,Linux armv8l,60,,0,0.566194683,-0.29579803,1,0,0,0.5172,button_right,0.5172,1,,,,,,106,WORD,"ID",50,ransom,RANSOM,m,,,,,,0.566194683,-0.29579803,1,0,0,,0,335,335,105,1,
,,,,,,,,,,,,,,,,,,5c576413a7890b0001f59a92,2020-08-10_16h12.16.981,lexical_decision_task_MP,2020.1.3,Linux armv8l,60,,0,-0.537343949,-0.343882506,1,0,0,0.5595,button_left,0.5595,1,,,,,,443,NW,UN,50,jaunce,DORSEX,z,,,,,,-0.537343949,-0.343882506,1,0,0,,0,336,336,442,1,
,,,,,,,,,,,,,,,,,,5c576413a7890b0001f59a92,2020-08-10_16h12.16.981,lexical_decision_task_MP,2020.1.3,Linux armv8l,60,,0,-0.548162984,-0.336669764,1,0,0,0.6141,button_left,0.6141,1,,,,,,308,NW,"ID",50,psetch,PSETCH,z,,,,,,-0.548162984,-0.336669764,1,0,0,,0,337,337,307,1,
,,,,,,,,,,,,,,,,,,5c576413a7890b0001f59a92,2020-08-10_16h12.16.981,lexical_decision_task_MP,2020.1.3,Linux armv8l,60,,0,0.578215762,-0.316233897,1,0,0,0.5405,button_right,0.5405,1,,,,,,67,WORD,"ID",50,policy,POLICY,m,,,,,,0.578215762,-0.316233897,1,0,0,,0,338,338,66,1,
,,,,,,,,,,,,,,,,,,5c576413a7890b0001f59a92,2020-08-10_16h12.16.981,lexical_decision_task_MP,2020.1.3,Linux armv8l,60,,0,0.597449426,-0.303010693,1,0,0,0.6668,button_right,0.6668,1,,,,,,215,WORD,UN,50,behalf,PHOBIA,m,,,,,,0.597449426,-0.303010693,1,0,0,,0,339,339,214,1,
,,,,,,,,,,,,,,,,,,5c576413a7890b0001f59a92,2020-08-10_16h12.16.981,lexical_decision_task_MP,2020.1.3,Linux armv8l,60,,0,0.575811515,-0.298202277,1,0,0,0.549,button_right,0.549,1,,,,,,135,WORD,UN,33,chrome,IMPORT,m,,,,,,0.575811515,-0.298202277,1,0,0,,0,340,340,134,1,
,,,,,,,,,,,,,,,,,,5c576413a7890b0001f59a92,2020-08-10_16h12.16.981,lexical_decision_task_MP,2020.1.3,Linux armv8l,60,,0,0.581822212,-0.283776871,1,0,0,0.5168,button_right,0.5168,1,,,,,,228,WORD,UN,50,inject,MASTER,m,,,,,,0.581822212,-0.283776871,1,0,0,,0,341,341,227,1,
