counterbalancing_condition,instr_done_keyboard.keys,instr_done_touch.x,instr_done_touch.y,instr_done_touch.leftButton,instr_done_touch.midButton,instr_done_touch.rightButton,instr_done_touch.clicked_name,instruction_pages.thisRepN,instruction_pages.thisTrialN,instruction_pages.thisN,instruction_pages.thisIndex,instruction_pages.ran,pageN,phase,instruct_text,has_image,instruct_image,participant,date,expName,psychopyVersion,OS,frameRate,response.keys,response.corr,touch_resp.x,touch_resp.y,touch_resp.leftButton,touch_resp.midButton,touch_resp.rightButton,touch_resp.time,touch_resp.clicked_name,rt,corr,practice_trials.thisRepN,practice_trials.thisTrialN,practice_trials.thisN,practice_trials.thisIndex,practice_trials.ran,TrialID,StimulusType,Condition,PrimeDuration,Prime,Target,corrAns,response.rt,end_of_practice_trials_pages.thisRepN,end_of_practice_trials_pages.thisTrialN,end_of_practice_trials_pages.thisN,end_of_practice_trials_pages.thisIndex,end_of_practice_trials_pages.ran,break_done_touch.x,break_done_touch.y,break_done_touch.leftButton,break_done_touch.midButton,break_done_touch.rightButton,break_done_keyboard.keys,trials.thisRepN,trials.thisTrialN,trials.thisN,trials.thisIndex,trials.ran,break_done_touch.clicked_name
0,,0.022222236,-0.382407421,1,0,0,instr_done_button,0,0,0,0,1,1,instructions,"INSTRUCTIONS
At the start of each trial, look at the hash marks (######) in the center of the screen. After a moment, a string of letters will appear. Your task is to indicate if the letter string forms a word or not (i.e., if it is a nonword). For example, AUTHOR is a word while AUTHON is a nonword.

Press the space bar or touch the button below to continue.",0,,5ca8f085685e370018b704b2,2020-08-10_18h12.28.128,lexical_decision_task_MP,2020.1.3,Win32,60,,,,,,,,,,,,,,,,,,,,,,,,,,,,,,,,,,,,,,,,,
,,0.073299763,-0.401259521,1,0,0,instr_done_button,0,1,1,1,1,2,instructions,"If your device has a keyboard, press the 'Z' key for nonwords and the 'M' key for words.





Press the space bar or touch the button below to continue.",1,keyboard-example.gif,5ca8f085685e370018b704b2,2020-08-10_18h12.28.128,lexical_decision_task_MP,2020.1.3,Win32,60,,,,,,,,,,,,,,,,,,,,,,,,,,,,,,,,,,,,,,,,,
,,0.075314876,-0.398236789,1,0,0,instr_done_button,0,2,2,2,1,3,instructions,"If you are using a touchscreen only device, use the buttons on the screen. Do not use the mouse.





Press the space bar or touch the button below to continue.",1,touchscreen-example.gif,5ca8f085685e370018b704b2,2020-08-10_18h12.28.128,lexical_decision_task_MP,2020.1.3,Win32,60,,,,,,,,,,,,,,,,,,,,,,,,,,,,,,,,,,,,,,,,,
,,0.075314876,-0.398236789,1,0,0,instr_done_button,0,3,3,3,1,4,instructions,"It is very important that you respond as quickly and accurately as possible, as each letter string will only be on the screen for two seconds. If you do not respond within this time, the message 'Too slow!' will be displayed and the experiment will progress to the next letter string. The first 20 trials will be practice trials and you will receive feedback on your answers. 

Press the space bar or touch the button below to start the practice trials.",0,,5ca8f085685e370018b704b2,2020-08-10_18h12.28.128,lexical_decision_task_MP,2020.1.3,Win32,60,,,,,,,,,,,,,,,,,,,,,,,,,,,,,,,,,,,,,,,,,
,,,,,,,,,,,,,,,,,,5ca8f085685e370018b704b2,2020-08-10_18h12.28.128,lexical_decision_task_MP,2020.1.3,Win32,60,,0,,,,,,,,,-1,0,0,0,11,1,1012,NW,"ID",50,rashet,RASHET,z,,,,,,,,,,,,,,,,,,
,,,,,,,,,,,,,,,,,,5ca8f085685e370018b704b2,2020-08-10_18h12.28.128,lexical_decision_task_MP,2020.1.3,Win32,60,m,1,,,,,,,,0.790175,1,0,1,1,5,1,1006,WORD,UN,33,frenzy,OBTAIN,m,0.790175,,,,,,,,,,,,,,,,,
,,,,,,,,,,,,,,,,,,5ca8f085685e370018b704b2,2020-08-10_18h12.28.128,lexical_decision_task_MP,2020.1.3,Win32,60,m,1,,,,,,,,0.792845,1,0,2,2,0,1,1001,WORD,"ID",33,utopia,UTOPIA,m,0.792845,,,,,,,,,,,,,,,,,
,,,,,,,,,,,,,,,,,,5ca8f085685e370018b704b2,2020-08-10_18h12.28.128,lexical_decision_task_MP,2020.1.3,Win32,60,m,0,,,,,,,,0.70471,0,0,3,3,10,1,1011,NW,"ID",50,inlade,INLADE,z,0.70471,,,,,,,,,,,,,,,,,
,,,,,,,,,,,,,,,,,,5ca8f085685e370018b704b2,2020-08-10_18h12.28.128,lexical_decision_task_MP,2020.1.3,Win32,60,m,1,,,,,,,,0.5315,1,0,4,4,1,1,1002,WORD,"ID",33,adjust,ADJUST,m,0.5315,,,,,,,,,,,,,,,,,
,,,,,,,,,,,,,,,,,,5ca8f085685e370018b704b2,2020-08-10_18h12.28.128,lexical_decision_task_MP,2020.1.3,Win32,60,m,1,,,,,,,,0.414965,1,0,5,5,7,1,1008,WORD,UN,50,hurdle,VOLUME,m,0.414965,,,,,,,,,,,,,,,,,
,,,,,,,,,,,,,,,,,,5ca8f085685e370018b704b2,2020-08-10_18h12.28.128,lexical_decision_task_MP,2020.1.3,Win32,60,m,1,,,,,,,,0.784585,1,0,6,6,6,1,1007,WORD,UN,50,tropic,ZOMBIE,m,0.784585,,,,,,,,,,,,,,,,,
,,,,,,,,,,,,,,,,,,5ca8f085685e370018b704b2,2020-08-10_18h12.28.128,lexical_decision_task_MP,2020.1.3,Win32,60,z,1,,,,,,,,0.85248,1,0,7,7,9,1,1010,NW,"ID",33,fariny,FARINY,z,0.85248,,,,,,,,,,,,,,,,,
,,,,,,,,,,,,,,,,,,5ca8f085685e370018b704b2,2020-08-10_18h12.28.128,lexical_decision_task_MP,2020.1.3,Win32,60,m,0,,,,,,,,0.33643,0,0,8,8,13,1,1014,NW,UN,33,winfer,ROUPET,z,0.33643,,,,,,,,,,,,,,,,,
,,,,,,,,,,,,,,,,,,5ca8f085685e370018b704b2,2020-08-10_18h12.28.128,lexical_decision_task_MP,2020.1.3,Win32,60,m,0,,,,,,,,0.697015,0,0,9,9,14,1,1015,NW,UN,50,miaber,THRALE,z,0.697015,,,,,,,,,,,,,,,,,
,,,,,,,,,,,,,,,,,,5ca8f085685e370018b704b2,2020-08-10_18h12.28.128,lexical_decision_task_MP,2020.1.3,Win32,60,z,0,,,,,,,,0.3871,0,0,10,10,2,1,1003,WORD,"ID",50,almond,ALMOND,m,0.3871,,,,,,,,,,,,,,,,,
,,,,,,,,,,,,,,,,,,5ca8f085685e370018b704b2,2020-08-10_18h12.28.128,lexical_decision_task_MP,2020.1.3,Win32,60,z,1,,,,,,,,0.64594,1,0,11,11,8,1,1009,NW,"ID",33,aslert,ASLERT,z,0.64594,,,,,,,,,,,,,,,,,
,,,,,,,,,,,,,,,,,,5ca8f085685e370018b704b2,2020-08-10_18h12.28.128,lexical_decision_task_MP,2020.1.3,Win32,60,z,1,,,,,,,,0.679645,1,0,12,12,12,1,1013,NW,UN,33,adveil,SPRINY,z,0.679645,,,,,,,,,,,,,,,,,
,,,,,,,,,,,,,,,,,,5ca8f085685e370018b704b2,2020-08-10_18h12.28.128,lexical_decision_task_MP,2020.1.3,Win32,60,m,1,,,,,,,,0.567105,1,0,13,13,3,1,1004,WORD,"ID",50,matrix,MATRIX,m,0.567105,,,,,,,,,,,,,,,,,
,,,,,,,,,,,,,,,,,,5ca8f085685e370018b704b2,2020-08-10_18h12.28.128,lexical_decision_task_MP,2020.1.3,Win32,60,m,1,,,,,,,,0.528655,1,0,14,14,4,1,1005,WORD,UN,33,abound,SQUEAK,m,0.528655,,,,,,,,,,,,,,,,,
,,,,,,,,,,,,,,,,,,5ca8f085685e370018b704b2,2020-08-10_18h12.28.128,lexical_decision_task_MP,2020.1.3,Win32,60,z,1,,,,,,,,0.47984,1,0,15,15,15,1,1016,NW,UN,50,mushed,WHAISE,z,0.47984,,,,,,,,,,,,,,,,,
,,0.055163742,-0.350881686,1,0,0,instr_done_button,,,,,,1,end_of_practice,"You have completed the practice trials. During the experimental trials, you will not receive feedback, but it is very important that you respond as quickly and accurately as possible. 
Before you begin, please ensure that you are in a comfortable and quiet location and will not be disturbed for about 15 minutes, as we cannot use your data if you do not complete all the trials. 
There will be opportunities to take breaks at regular intervals during the experiment. When you are ready to start the experimental trials, please press space or touch the button below.",,,5ca8f085685e370018b704b2,2020-08-10_18h12.28.128,lexical_decision_task_MP,2020.1.3,Win32,60,,,,,,,,,,,,,,,,,,,,,,,,,0,0,0,0,1,,,,,,,,,,,,
,,,,,,,,,,,,,,,,,,5ca8f085685e370018b704b2,2020-08-10_18h12.28.128,lexical_decision_task_MP,2020.1.3,Win32,60,,0,,,,,,,,0.47984,-1,,,,,,476,NW,"ID",33,josted,JOSTED,z,,,,,,,0.066246927,-0.341813615,0,0,0,,0,0,0,295,1,
,,,,,,,,,,,,,,,,,,5ca8f085685e370018b704b2,2020-08-10_18h12.28.128,lexical_decision_task_MP,2020.1.3,Win32,60,z,0,,,,,,,,0.3568,0,,,,,,212,WORD,"ID",33,verify,VERIFY,m,0.3568,,,,,,0.066246927,-0.341813615,0,0,0,,0,1,1,31,1,
,,,,,,,,,,,,,,,,,,5ca8f085685e370018b704b2,2020-08-10_18h12.28.128,lexical_decision_task_MP,2020.1.3,Win32,60,z,1,,,,,,,,0.68009,1,,,,,,443,NW,"ID",33,dorsex,DORSEX,z,0.68009,,,,,,0.065239309,-0.341813615,0,0,0,,0,2,2,262,1,
,,,,,,,,,,,,,,,,,,5ca8f085685e370018b704b2,2020-08-10_18h12.28.128,lexical_decision_task_MP,2020.1.3,Win32,60,z,1,,,,,,,,1.21445,1,,,,,,450,NW,"ID",33,phrect,PHRECT,z,1.21445,,,,,,0.061209144,-0.349874068,0,0,0,,0,3,3,269,1,
,,,,,,,,,,,,,,,,,,5ca8f085685e370018b704b2,2020-08-10_18h12.28.128,lexical_decision_task_MP,2020.1.3,Win32,60,,0,,,,,,,,1.21445,-1,,,,,,85,WORD,UN,33,rodent,SPRAWL,m,,,,,,,0.061209144,-0.349874068,0,0,0,,0,4,4,144,1,
,,,,,,,,,,,,,,,,,,5ca8f085685e370018b704b2,2020-08-10_18h12.28.128,lexical_decision_task_MP,2020.1.3,Win32,60,z,1,,,,,,,,0.650045,1,,,,,,258,NW,"ID",50,poluth,POLUTH,z,0.650045,,,,,,0.061209144,-0.349874068,0,0,0,,0,5,5,317,1,
,,,,,,,,,,,,,,,,,,5ca8f085685e370018b704b2,2020-08-10_18h12.28.128,lexical_decision_task_MP,2020.1.3,Win32,60,z,1,,,,,,,,0.9134,1,,,,,,395,NW,UN,50,flengy,COLURY,z,0.9134,,,,,,0.061209144,-0.349874068,0,0,0,,0,6,6,454,1,
,,,,,,,,,,,,,,,,,,5ca8f085685e370018b704b2,2020-08-10_18h12.28.128,lexical_decision_task_MP,2020.1.3,Win32,60,z,1,,,,,,,,0.8501,1,,,,,,288,NW,"ID",50,yaceup,YACEUP,z,0.8501,,,,,,0.061209144,-0.349874068,0,0,0,,0,7,7,347,1,
,,,,,,,,,,,,,,,,,,5ca8f085685e370018b704b2,2020-08-10_18h12.28.128,lexical_decision_task_MP,2020.1.3,Win32,60,,0,,,,,,,,0.8501,-1,,,,,,37,WORD,"ID",50,insult,INSULT,m,,,,,,,0.061209144,-0.349874068,0,0,0,,0,8,8,96,1,
,,,,,,,,,,,,,,,,,,5ca8f085685e370018b704b2,2020-08-10_18h12.28.128,lexical_decision_task_MP,2020.1.3,Win32,60,z,1,0.061209144,-0.351889181,1,0,0,0.447665,,0.8366,1,,,,,,306,NW,UN,33,kirafe,SOUNGE,z,0.8366,,,,,,0.061209144,-0.351889181,0,0,0,,0,9,9,365,1,
,,,,,,,,,,,,,,,,,,5ca8f085685e370018b704b2,2020-08-10_18h12.28.128,lexical_decision_task_MP,2020.1.3,Win32,60,z,1,,,,,,,,1.000045,1,,,,,,479,NW,"ID",33,lobush,LOBUSH,z,1.000045,,,,,,0.061209144,-0.351889181,0,0,0,,0,10,10,298,1,
,,,,,,,,,,,,,,,,,,5ca8f085685e370018b704b2,2020-08-10_18h12.28.128,lexical_decision_task_MP,2020.1.3,Win32,60,z,1,,,,,,,,0.58332,1,,,,,,414,NW,UN,50,higsta,SERBOL,z,0.58332,,,,,,0.061209144,-0.351889181,0,0,0,,0,11,11,473,1,
,,,,,,,,,,,,,,,,,,5ca8f085685e370018b704b2,2020-08-10_18h12.28.128,lexical_decision_task_MP,2020.1.3,Win32,60,,0,,,,,,,,0.58332,-1,,,,,,74,WORD,UN,33,trophy,PLAQUE,m,,,,,,,0.061209144,-0.351889181,0,0,0,,0,12,12,133,1,
,,,,,,,,,,,,,,,,,,5ca8f085685e370018b704b2,2020-08-10_18h12.28.128,lexical_decision_task_MP,2020.1.3,Win32,60,z,1,,,,,,,,0.899135,1,,,,,,376,NW,UN,50,veigma,IGUARE,z,0.899135,,,,,,0.061209144,-0.351889181,0,0,0,,0,13,13,435,1,
,,,,,,,,,,,,,,,,,,5ca8f085685e370018b704b2,2020-08-10_18h12.28.128,lexical_decision_task_MP,2020.1.3,Win32,60,m,1,,,,,,,,0.68763,1,,,,,,18,WORD,"ID",50,humble,HUMBLE,m,0.68763,,,,,,0.061209144,-0.351889181,0,0,0,,0,14,14,77,1,
,,,,,,,,,,,,,,,,,,5ca8f085685e370018b704b2,2020-08-10_18h12.28.128,lexical_decision_task_MP,2020.1.3,Win32,60,z,1,,,,,,,,1.06865,1,,,,,,410,NW,UN,50,orchin,TUNORY,z,1.06865,,,,,,0.061209144,-0.351889181,0,0,0,,0,15,15,469,1,
,,,,,,,,,,,,,,,,,,5ca8f085685e370018b704b2,2020-08-10_18h12.28.128,lexical_decision_task_MP,2020.1.3,Win32,60,m,1,,,,,,,,0.502685,1,,,,,,234,WORD,"ID",33,clumsy,CLUMSY,m,0.502685,,,,,,0.061209144,-0.351889181,0,0,0,,0,16,16,53,1,
,,,,,,,,,,,,,,,,,,5ca8f085685e370018b704b2,2020-08-10_18h12.28.128,lexical_decision_task_MP,2020.1.3,Win32,60,m,0,0.061209144,-0.351889181,1,0,0,0.548195,,0.582905,0,,,,,,409,NW,UN,50,tunory,ELOPIA,z,0.582905,,,,,,0.061209144,-0.351889181,1,0,0,,0,17,17,468,1,
,,,,,,,,,,,,,,,,,,5ca8f085685e370018b704b2,2020-08-10_18h12.28.128,lexical_decision_task_MP,2020.1.3,Win32,60,z,1,,,,,,,,0.4869,1,,,,,,245,NW,"ID",50,anougs,ANOUGS,z,0.4869,,,,,,0.061209144,-0.351889181,0,0,0,,0,18,18,304,1,
,,,,,,,,,,,,,,,,,,5ca8f085685e370018b704b2,2020-08-10_18h12.28.128,lexical_decision_task_MP,2020.1.3,Win32,60,m,1,,,,,,,,0.659635,1,,,,,,89,WORD,UN,33,relish,PERMIT,m,0.659635,,,,,,0.061209144,-0.351889181,0,0,0,,0,19,19,148,1,
,,,,,,,,,,,,,,,,,,5ca8f085685e370018b704b2,2020-08-10_18h12.28.128,lexical_decision_task_MP,2020.1.3,Win32,60,z,1,,,,,,,,0.454805,1,,,,,,309,NW,UN,33,daniet,AMILOY,z,0.454805,,,,,,0.061209144,-0.351889181,0,0,0,,0,20,20,368,1,
,,,,,,,,,,,,,,,,,,5ca8f085685e370018b704b2,2020-08-10_18h12.28.128,lexical_decision_task_MP,2020.1.3,Win32,60,m,1,,,,,,,,0.40423,1,,,,,,100,WORD,UN,33,wrench,CARBON,m,0.40423,,,,,,0.061209144,-0.351889181,0,0,0,,0,21,21,159,1,
,,,,,,,,,,,,,,,,,,5ca8f085685e370018b704b2,2020-08-10_18h12.28.128,lexical_decision_task_MP,2020.1.3,Win32,60,m,1,,,,,,,,0.600945,1,,,,,,169,WORD,UN,50,pounce,GENIUS,m,0.600945,,,,,,0.061209144,-0.351889181,0,0,0,,0,22,22,228,1,
,,,,,,,,,,,,,,,,,,5ca8f085685e370018b704b2,2020-08-10_18h12.28.128,lexical_decision_task_MP,2020.1.3,Win32,60,m,1,,,,,,,,0.552095,1,,,,,,232,WORD,"ID",33,inject,INJECT,m,0.552095,,,,,,0.061209144,-0.351889181,0,0,0,,0,23,23,51,1,
,,,,,,,,,,,,,,,,,,5ca8f085685e370018b704b2,2020-08-10_18h12.28.128,lexical_decision_task_MP,2020.1.3,Win32,60,m,1,,,,,,,,0.548235,1,,,,,,135,WORD,UN,50,bleach,IMPORT,m,0.548235,,,,,,0.060201526,-0.352896738,0,0,0,,0,24,24,194,1,
,,,,,,,,,,,,,,,,,,5ca8f085685e370018b704b2,2020-08-10_18h12.28.128,lexical_decision_task_MP,2020.1.3,Win32,60,z,1,,,,,,,,0.681005,1,,,,,,262,NW,"ID",50,quilew,QUILEW,z,0.681005,,,,,,0.060201526,-0.352896738,0,0,0,,0,25,25,321,1,
,,,,,,,,,,,,,,,,,,5ca8f085685e370018b704b2,2020-08-10_18h12.28.128,lexical_decision_task_MP,2020.1.3,Win32,60,z,1,,,,,,,,0.65541,1,,,,,,300,NW,"ID",50,yarion,YARION,z,0.65541,,,,,,0.060201526,-0.352896738,0,0,0,,0,26,26,359,1,
,,,,,,,,,,,,,,,,,,5ca8f085685e370018b704b2,2020-08-10_18h12.28.128,lexical_decision_task_MP,2020.1.3,Win32,60,z,1,,,,,,,,0.581495,1,,,,,,386,NW,UN,50,gronce,ANCUST,z,0.581495,,,,,,0.060201526,-0.352896738,0,0,0,,0,27,27,445,1,
,,,,,,,,,,,,,,,,,,5ca8f085685e370018b704b2,2020-08-10_18h12.28.128,lexical_decision_task_MP,2020.1.3,Win32,60,z,1,,,,,,,,0.53605,1,,,,,,435,NW,"ID",33,impurb,IMPURB,z,0.53605,,,,,,0.060201526,-0.352896738,0,0,0,,0,28,28,254,1,
,,,,,,,,,,,,,,,,,,5ca8f085685e370018b704b2,2020-08-10_18h12.28.128,lexical_decision_task_MP,2020.1.3,Win32,60,z,1,,,,,,,,0.523205,1,,,,,,339,NW,UN,33,fiatch,FACHOW,z,0.523205,,,,,,0.060201526,-0.352896738,0,0,0,,0,29,29,398,1,
,,,,,,,,,,,,,,,,,,5ca8f085685e370018b704b2,2020-08-10_18h12.28.128,lexical_decision_task_MP,2020.1.3,Win32,60,m,1,,,,,,,,0.558275,1,,,,,,188,WORD,"ID",33,social,SOCIAL,m,0.558275,,,,,,0.060201526,-0.352896738,0,0,0,,0,30,30,7,1,
,,,,,,,,,,,,,,,,,,5ca8f085685e370018b704b2,2020-08-10_18h12.28.128,lexical_decision_task_MP,2020.1.3,Win32,60,z,1,,,,,,,,0.712745,1,,,,,,253,NW,"ID",50,resait,RESAIT,z,0.712745,,,,,,0.060201526,-0.352896738,0,0,0,,0,31,31,312,1,
,,,,,,,,,,,,,,,,,,5ca8f085685e370018b704b2,2020-08-10_18h12.28.128,lexical_decision_task_MP,2020.1.3,Win32,60,z,1,,,,,,,,0.59207,1,,,,,,388,NW,UN,50,witmer,CRAGIN,z,0.59207,,,,,,0.060201526,-0.352896738,0,0,0,,0,32,32,447,1,
,,,,,,,,,,,,,,,,,,5ca8f085685e370018b704b2,2020-08-10_18h12.28.128,lexical_decision_task_MP,2020.1.3,Win32,60,m,1,,,,,,,,0.52214,1,,,,,,50,WORD,"ID",50,snatch,SNATCH,m,0.52214,,,,,,0.060201526,-0.352896738,0,0,0,,0,33,33,109,1,
,,,,,,,,,,,,,,,,,,5ca8f085685e370018b704b2,2020-08-10_18h12.28.128,lexical_decision_task_MP,2020.1.3,Win32,60,z,0,,,,,,,,0.567145,0,,,,,,54,WORD,"ID",50,ramble,RAMBLE,m,0.567145,,,,,,0.060201526,-0.352896738,0,0,0,,0,34,34,113,1,
,,,,,,,,,,,,,,,,,,5ca8f085685e370018b704b2,2020-08-10_18h12.28.128,lexical_decision_task_MP,2020.1.3,Win32,60,m,0,,,,,,,,0.51683,0,,,,,,425,NW,"ID",33,frudge,FRUDGE,z,0.51683,,,,,,0.060201526,-0.352896738,0,0,0,,0,35,35,244,1,
,,,,,,,,,,,,,,,,,,5ca8f085685e370018b704b2,2020-08-10_18h12.28.128,lexical_decision_task_MP,2020.1.3,Win32,60,z,0,,,,,,,,0.0349,0,,,,,,81,WORD,UN,33,stigma,FRIEND,m,0.0349,,,,,,0.060201526,-0.352896738,0,0,0,,0,36,36,140,1,
,,,,,,,,,,,,,,,,,,5ca8f085685e370018b704b2,2020-08-10_18h12.28.128,lexical_decision_task_MP,2020.1.3,Win32,60,z,1,,,,,,,,0.652805,1,,,,,,404,NW,UN,50,flumni,CLUIRM,z,0.652805,,,,,,0.060201526,-0.352896738,0,0,0,,0,37,37,463,1,
,,,,,,,,,,,,,,,,,,5ca8f085685e370018b704b2,2020-08-10_18h12.28.128,lexical_decision_task_MP,2020.1.3,Win32,60,m,1,,,,,,,,0.46825,1,,,,,,199,WORD,"ID",33,invoke,INVOKE,m,0.46825,,,,,,0.060201526,-0.352896738,0,0,0,,0,38,38,18,1,
,,,,,,,,,,,,,,,,,,5ca8f085685e370018b704b2,2020-08-10_18h12.28.128,lexical_decision_task_MP,2020.1.3,Win32,60,m,1,,,,,,,,0.599935,1,,,,,,40,WORD,"ID",50,convey,CONVEY,m,0.599935,,,,,,0.060201526,-0.352896738,0,0,0,,0,39,39,99,1,
,,,,,,,,,,,,,,,,,,5ca8f085685e370018b704b2,2020-08-10_18h12.28.128,lexical_decision_task_MP,2020.1.3,Win32,60,z,1,,,,,,,,0.573875,1,,,,,,393,NW,UN,50,spaqux,GANOUS,z,0.573875,,,,,,0.060201526,-0.352896738,0,0,0,,0,40,40,452,1,
,,,,,,,,,,,,,,,,,,5ca8f085685e370018b704b2,2020-08-10_18h12.28.128,lexical_decision_task_MP,2020.1.3,Win32,60,z,1,,,,,,,,0.71512,1,,,,,,407,NW,UN,50,hurnia,SUIVER,z,0.71512,,,,,,0.060201526,-0.352896738,0,0,0,,0,41,41,466,1,
,,,,,,,,,,,,,,,,,,5ca8f085685e370018b704b2,2020-08-10_18h12.28.128,lexical_decision_task_MP,2020.1.3,Win32,60,z,1,,,,,,,,0.66633,1,,,,,,381,NW,UN,50,sarley,HUNIEK,z,0.66633,,,,,,0.060201526,-0.352896738,0,0,0,,0,42,42,440,1,
,,,,,,,,,,,,,,,,,,5ca8f085685e370018b704b2,2020-08-10_18h12.28.128,lexical_decision_task_MP,2020.1.3,Win32,60,z,1,,,,,,,,0.5733,1,,,,,,268,NW,"ID",50,packes,PACKES,z,0.5733,,,,,,0.060201526,-0.352896738,0,0,0,,0,43,43,327,1,
,,,,,,,,,,,,,,,,,,5ca8f085685e370018b704b2,2020-08-10_18h12.28.128,lexical_decision_task_MP,2020.1.3,Win32,60,z,0,,,,,,,,0.654715,0,,,,,,222,WORD,"ID",33,hinder,HINDER,m,0.654715,,,,,,0.060201526,-0.352896738,0,0,0,,0,44,44,41,1,
,,,,,,,,,,,,,,,,,,5ca8f085685e370018b704b2,2020-08-10_18h12.28.128,lexical_decision_task_MP,2020.1.3,Win32,60,z,1,,,,,,,,0.66943,1,,,,,,340,NW,UN,33,myrtie,FIATCH,z,0.66943,,,,,,0.060201526,-0.352896738,0,0,0,,0,45,45,399,1,
,,,,,,,,,,,,,,,,,,5ca8f085685e370018b704b2,2020-08-10_18h12.28.128,lexical_decision_task_MP,2020.1.3,Win32,60,m,0,,,,,,,,0.899605,0,,,,,,345,NW,UN,33,saudic,ABSEND,z,0.899605,,,,,,0.060201526,-0.352896738,0,0,0,,0,46,46,404,1,
,,,,,,,,,,,,,,,,,,5ca8f085685e370018b704b2,2020-08-10_18h12.28.128,lexical_decision_task_MP,2020.1.3,Win32,60,z,1,,,,,,,,0.54734,1,,,,,,417,NW,UN,50,suidle,EAROUD,z,0.54734,,,,,,0.060201526,-0.352896738,0,0,0,,0,47,47,476,1,
,,,,,,,,,,,,,,,,,,5ca8f085685e370018b704b2,2020-08-10_18h12.28.128,lexical_decision_task_MP,2020.1.3,Win32,60,z,1,,,,,,,,0.63839,1,,,,,,295,NW,"ID",50,gleath,GLEATH,z,0.63839,,,,,,0.060201526,-0.352896738,0,0,0,,0,48,48,354,1,
,,,,,,,,,,,,,,,,,,5ca8f085685e370018b704b2,2020-08-10_18h12.28.128,lexical_decision_task_MP,2020.1.3,Win32,60,m,1,,,,,,,,0.553475,1,,,,,,126,WORD,UN,50,castle,ENOUGH,m,0.553475,,,,,,0.060201526,-0.352896738,0,0,0,,0,49,49,185,1,
,,,,,,,,,,,,,,,,,,5ca8f085685e370018b704b2,2020-08-10_18h12.28.128,lexical_decision_task_MP,2020.1.3,Win32,60,m,1,,,,,,,,0.554115,1,,,,,,67,WORD,UN,33,fumble,POLICY,m,0.554115,,,,,,0.060201526,-0.352896738,0,0,0,,0,50,50,126,1,
,,,,,,,,,,,,,,,,,,5ca8f085685e370018b704b2,2020-08-10_18h12.28.128,lexical_decision_task_MP,2020.1.3,Win32,60,m,1,,,,,,,,0.493,1,,,,,,191,WORD,"ID",33,stable,STABLE,m,0.493,,,,,,0.060201526,-0.352896738,0,0,0,,0,51,51,10,1,
,,,,,,,,,,,,,,,,,,5ca8f085685e370018b704b2,2020-08-10_18h12.28.128,lexical_decision_task_MP,2020.1.3,Win32,60,m,1,,,,,,,,0.54902,1,,,,,,138,WORD,UN,50,debris,MELODY,m,0.54902,,,,,,0.060201526,-0.352896738,0,0,0,,0,52,52,197,1,
,,,,,,,,,,,,,,,,,,5ca8f085685e370018b704b2,2020-08-10_18h12.28.128,lexical_decision_task_MP,2020.1.3,Win32,60,m,0,,,,,,,,0.532195,0,,,,,,319,NW,UN,33,jockal,ZOMBER,z,0.532195,,,,,,0.060201526,-0.352896738,0,0,0,,0,53,53,378,1,
,,,,,,,,,,,,,,,,,,5ca8f085685e370018b704b2,2020-08-10_18h12.28.128,lexical_decision_task_MP,2020.1.3,Win32,60,z,1,,,,,,,,0.64949,1,,,,,,322,NW,UN,33,rosail,SLANCH,z,0.64949,,,,,,0.060201526,-0.352896738,0,0,0,,0,54,54,381,1,
,,,,,,,,,,,,,,,,,,5ca8f085685e370018b704b2,2020-08-10_18h12.28.128,lexical_decision_task_MP,2020.1.3,Win32,60,m,1,,,,,,,,0.698525,1,,,,,,45,WORD,"ID",50,clergy,CLERGY,m,0.698525,,,,,,0.060201526,-0.352896738,0,0,0,,0,55,55,104,1,
,,,,,,,,,,,,,,,,,,5ca8f085685e370018b704b2,2020-08-10_18h12.28.128,lexical_decision_task_MP,2020.1.3,Win32,60,z,0,,,,,,,,0.701295,0,,,,,,111,WORD,UN,33,breath,INDUCE,m,0.701295,,,,,,0.060201526,-0.352896738,0,0,0,,0,56,56,170,1,
,,,,,,,,,,,,,,,,,,5ca8f085685e370018b704b2,2020-08-10_18h12.28.128,lexical_decision_task_MP,2020.1.3,Win32,60,z,1,,,,,,,,0.62607,1,,,,,,463,NW,"ID",33,kispel,KISPEL,z,0.62607,,,,,,0.060201526,-0.352896738,0,0,0,,0,57,57,282,1,
,,,,,,,,,,,,,,,,,,5ca8f085685e370018b704b2,2020-08-10_18h12.28.128,lexical_decision_task_MP,2020.1.3,Win32,60,z,1,,,,,,,,0.700565,1,,,,,,285,NW,"ID",50,prudge,PRUDGE,z,0.700565,,,,,,0.060201526,-0.352896738,0,0,0,,0,58,58,344,1,
,,,,,,,,,,,,,,,,,,5ca8f085685e370018b704b2,2020-08-10_18h12.28.128,lexical_decision_task_MP,2020.1.3,Win32,60,z,1,,,,,,,,0.54068,1,,,,,,434,NW,"ID",33,pitrom,PITROM,z,0.54068,,,,,,0.060201526,-0.352896738,0,0,0,,0,59,59,253,1,
,,,,,,,,,,,,,,,,,,5ca8f085685e370018b704b2,2020-08-10_18h12.28.128,lexical_decision_task_MP,2020.1.3,Win32,60,z,1,,,,,,,,0.53997,1,,,,,,243,NW,"ID",50,musied,MUSIED,z,0.53997,,,,,,0.060201526,-0.352896738,0,0,0,,0,60,60,302,1,
,,,,,,,,,,,,,,,,,,5ca8f085685e370018b704b2,2020-08-10_18h12.28.128,lexical_decision_task_MP,2020.1.3,Win32,60,m,1,,,,,,,,0.66744,1,,,,,,62,WORD,UN,33,launch,REGION,m,0.66744,,,,,,0.060201526,-0.352896738,0,0,0,,0,61,61,121,1,
,,,,,,,,,,,,,,,,,,5ca8f085685e370018b704b2,2020-08-10_18h12.28.128,lexical_decision_task_MP,2020.1.3,Win32,60,m,1,,,,,,,,0.68155,1,,,,,,82,WORD,UN,33,result,STIGMA,m,0.68155,,,,,,0.060201526,-0.352896738,0,0,0,,0,62,62,141,1,
,,,,,,,,,,,,,,,,,,5ca8f085685e370018b704b2,2020-08-10_18h12.28.128,lexical_decision_task_MP,2020.1.3,Win32,60,m,1,,,,,,,,0.5378,1,,,,,,38,WORD,"ID",50,powder,POWDER,m,0.5378,,,,,,0.060201526,-0.352896738,0,0,0,,0,63,63,97,1,
,,,,,,,,,,,,,,,,,,5ca8f085685e370018b704b2,2020-08-10_18h12.28.128,lexical_decision_task_MP,2020.1.3,Win32,60,m,1,,,,,,,,0.4809,1,,,,,,34,WORD,"ID",50,jungle,JUNGLE,m,0.4809,,,,,,0.060201526,-0.352896738,0,0,0,,0,64,64,93,1,
,,,,,,,,,,,,,,,,,,5ca8f085685e370018b704b2,2020-08-10_18h12.28.128,lexical_decision_task_MP,2020.1.3,Win32,60,z,1,,,,,,,,0.66511,1,,,,,,281,NW,"ID",50,melaty,MELATY,z,0.66511,,,,,,0.060201526,-0.352896738,0,0,0,,0,65,65,340,1,
,,,,,,,,,,,,,,,,,,5ca8f085685e370018b704b2,2020-08-10_18h12.28.128,lexical_decision_task_MP,2020.1.3,Win32,60,m,1,,,,,,,,0.3979,1,,,,,,17,WORD,"ID",50,charge,CHARGE,m,0.3979,,,,,,0.060201526,-0.352896738,0,0,0,,0,66,66,76,1,
,,,,,,,,,,,,,,,,,,5ca8f085685e370018b704b2,2020-08-10_18h12.28.128,lexical_decision_task_MP,2020.1.3,Win32,60,z,1,,,,,,,,0.65184,1,,,,,,403,NW,UN,50,cluirm,BRUATS,z,0.65184,,,,,,0.060201526,-0.352896738,0,0,0,,0,67,67,462,1,
,,,,,,,,,,,,,,,,,,5ca8f085685e370018b704b2,2020-08-10_18h12.28.128,lexical_decision_task_MP,2020.1.3,Win32,60,m,1,,,,,,,,0.55026,1,,,,,,79,WORD,UN,33,family,THEORY,m,0.55026,,,,,,0.060201526,-0.352896738,0,0,0,,0,68,68,138,1,
,,,,,,,,,,,,,,,,,,5ca8f085685e370018b704b2,2020-08-10_18h12.28.128,lexical_decision_task_MP,2020.1.3,Win32,60,z,1,,,,,,,,0.62971,1,,,,,,385,NW,UN,50,ancust,VEIGMA,z,0.62971,,,,,,0.060201526,-0.352896738,0,0,0,,0,69,69,444,1,
,,,,,,,,,,,,,,,,,,5ca8f085685e370018b704b2,2020-08-10_18h12.28.128,lexical_decision_task_MP,2020.1.3,Win32,60,z,1,,,,,,,,0.582455,1,,,,,,453,NW,"ID",33,bolvis,BOLVIS,z,0.582455,,,,,,0.060201526,-0.352896738,0,0,0,,0,70,70,272,1,
,,,,,,,,,,,,,,,,,,5ca8f085685e370018b704b2,2020-08-10_18h12.28.128,lexical_decision_task_MP,2020.1.3,Win32,60,z,1,,,,,,,,0.75079,1,,,,,,355,NW,UN,33,othnis,ZINGLY,z,0.75079,,,,,,0.060201526,-0.352896738,0,0,0,,0,71,71,414,1,
,,,,,,,,,,,,,,,,,,5ca8f085685e370018b704b2,2020-08-10_18h12.28.128,lexical_decision_task_MP,2020.1.3,Win32,60,m,1,,,,,,,,0.667945,1,,,,,,119,WORD,UN,33,strain,SPIDER,m,0.667945,,,,,,0.060201526,-0.352896738,0,0,0,,0,72,72,178,1,
,,,,,,,,,,,,,,,,,,5ca8f085685e370018b704b2,2020-08-10_18h12.28.128,lexical_decision_task_MP,2020.1.3,Win32,60,m,1,,,,,,,,0.497255,1,,,,,,63,WORD,UN,33,throne,LAUNCH,m,0.497255,,,,,,0.060201526,-0.352896738,0,0,0,,0,73,73,122,1,
,,,,,,,,,,,,,,,,,,5ca8f085685e370018b704b2,2020-08-10_18h12.28.128,lexical_decision_task_MP,2020.1.3,Win32,60,m,1,,,,,,,,0.552995,1,,,,,,98,WORD,UN,33,fluent,BELONG,m,0.552995,,,,,,0.060201526,-0.352896738,0,0,0,,0,74,74,157,1,
,,,,,,,,,,,,,,,,,,5ca8f085685e370018b704b2,2020-08-10_18h12.28.128,lexical_decision_task_MP,2020.1.3,Win32,60,m,1,,,,,,,,0.435595,1,,,,,,28,WORD,"ID",50,comedy,COMEDY,m,0.435595,,,,,,0.060201526,-0.352896738,0,0,0,,0,75,75,87,1,
,,,,,,,,,,,,,,,,,,5ca8f085685e370018b704b2,2020-08-10_18h12.28.128,lexical_decision_task_MP,2020.1.3,Win32,60,m,1,,,,,,,,0.56591,1,,,,,,181,WORD,"ID",33,glance,GLANCE,m,0.56591,,,,,,0.060201526,-0.352896738,0,0,0,,0,76,76,0,1,
,,,,,,,,,,,,,,,,,,5ca8f085685e370018b704b2,2020-08-10_18h12.28.128,lexical_decision_task_MP,2020.1.3,Win32,60,m,1,,,,,,,,0.44901,1,,,,,,227,WORD,"ID",33,seldom,SELDOM,m,0.44901,,,,,,0.060201526,-0.352896738,0,0,0,,0,77,77,46,1,
,,,,,,,,,,,,,,,,,,5ca8f085685e370018b704b2,2020-08-10_18h12.28.128,lexical_decision_task_MP,2020.1.3,Win32,60,m,1,,,,,,,,0.50601,1,,,,,,228,WORD,"ID",33,master,MASTER,m,0.50601,,,,,,0.060201526,-0.352896738,0,0,0,,0,78,78,47,1,
,,,,,,,,,,,,,,,,,,5ca8f085685e370018b704b2,2020-08-10_18h12.28.128,lexical_decision_task_MP,2020.1.3,Win32,60,z,1,,,,,,,,0.64763,1,,,,,,307,NW,UN,33,psetch,KIRAFE,z,0.64763,,,,,,0.060201526,-0.352896738,0,0,0,,0,79,79,366,1,
,,,,,,,,,,,,,,,,,,5ca8f085685e370018b704b2,2020-08-10_18h12.28.128,lexical_decision_task_MP,2020.1.3,Win32,60,m,1,,,,,,,,0.38986,1,,,,,,109,WORD,UN,33,polite,WONDER,m,0.38986,,,,,,0.060201526,-0.352896738,0,0,0,,0,80,80,168,1,
,,,,,,,,,,,,,,,,,,5ca8f085685e370018b704b2,2020-08-10_18h12.28.128,lexical_decision_task_MP,2020.1.3,Win32,60,z,1,,,,,,,,0.515445,1,,,,,,382,NW,UN,50,aungre,SARLEY,z,0.515445,,,,,,0.060201526,-0.352896738,0,0,0,,0,81,81,441,1,
,,,,,,,,,,,,,,,,,,5ca8f085685e370018b704b2,2020-08-10_18h12.28.128,lexical_decision_task_MP,2020.1.3,Win32,60,z,1,,,,,,,,0.6426,1,,,,,,466,NW,"ID",33,hocite,HOCITE,z,0.6426,,,,,,0.060201526,-0.352896738,0,0,0,,0,82,82,285,1,
,,,,,,,,,,,,,,,,,,5ca8f085685e370018b704b2,2020-08-10_18h12.28.128,lexical_decision_task_MP,2020.1.3,Win32,60,m,1,,,,,,,,0.67018,1,,,,,,76,WORD,UN,33,racket,EXOTIC,m,0.67018,,,,,,0.060201526,-0.352896738,0,0,0,,0,83,83,135,1,
,,,,,,,,,,,,,,,,,,5ca8f085685e370018b704b2,2020-08-10_18h12.28.128,lexical_decision_task_MP,2020.1.3,Win32,60,z,1,,,,,,,,0.749065,1,,,,,,419,NW,UN,50,gushop,SLOUNT,z,0.749065,,,,,,0.060201526,-0.352896738,0,0,0,,0,84,84,478,1,
,,,,,,,,,,,,,,,,,,5ca8f085685e370018b704b2,2020-08-10_18h12.28.128,lexical_decision_task_MP,2020.1.3,Win32,60,m,1,,,,,,,,0.81711,1,,,,,,110,WORD,UN,33,induce,POLITE,m,0.81711,,,,,,0.060201526,-0.352896738,0,0,0,,0,85,85,169,1,
,,,,,,,,,,,,,,,,,,5ca8f085685e370018b704b2,2020-08-10_18h12.28.128,lexical_decision_task_MP,2020.1.3,Win32,60,m,1,,,,,,,,0.64032,1,,,,,,155,WORD,UN,50,cradle,LIZARD,m,0.64032,,,,,,0.060201526,-0.352896738,0,0,0,,0,86,86,214,1,
,,,,,,,,,,,,,,,,,,5ca8f085685e370018b704b2,2020-08-10_18h12.28.128,lexical_decision_task_MP,2020.1.3,Win32,60,m,1,,,,,,,,0.5246,1,,,,,,152,WORD,UN,50,behold,ROCKET,m,0.5246,,,,,,0.060201526,-0.352896738,0,0,0,,0,87,87,211,1,
,,,,,,,,,,,,,,,,,,5ca8f085685e370018b704b2,2020-08-10_18h12.28.128,lexical_decision_task_MP,2020.1.3,Win32,60,z,1,,,,,,,,0.74917,1,,,,,,248,NW,"ID",50,strole,STROLE,z,0.74917,,,,,,0.060201526,-0.352896738,0,0,0,,0,88,88,307,1,
,,,,,,,,,,,,,,,,,,5ca8f085685e370018b704b2,2020-08-10_18h12.28.128,lexical_decision_task_MP,2020.1.3,Win32,60,m,1,,,,,,,,0.505885,1,,,,,,107,WORD,UN,33,reckon,SLOGAN,m,0.505885,,,,,,0.060201526,-0.352896738,0,0,0,,0,89,89,166,1,
,,,,,,,,,,,,,,,,,,5ca8f085685e370018b704b2,2020-08-10_18h12.28.128,lexical_decision_task_MP,2020.1.3,Win32,60,z,1,,,,,,,,0.60731,1,,,,,,439,NW,"ID",33,limpor,LIMPOR,z,0.60731,,,,,,0.060201526,-0.352896738,0,0,0,,0,90,90,258,1,
,,,,,,,,,,,,,,,,,,5ca8f085685e370018b704b2,2020-08-10_18h12.28.128,lexical_decision_task_MP,2020.1.3,Win32,60,z,1,,,,,,,,0.74645,1,,,,,,328,NW,UN,33,yarike,BROAKE,z,0.74645,,,,,,0.060201526,-0.352896738,0,0,0,,0,91,91,387,1,
,,,,,,,,,,,,,,,,,,5ca8f085685e370018b704b2,2020-08-10_18h12.28.128,lexical_decision_task_MP,2020.1.3,Win32,60,m,1,,,,,,,,0.59439,1,,,,,,185,WORD,"ID",33,bother,BOTHER,m,0.59439,,,,,,0.060201526,-0.352896738,0,0,0,,0,92,92,4,1,
,,,,,,,,,,,,,,,,,,5ca8f085685e370018b704b2,2020-08-10_18h12.28.128,lexical_decision_task_MP,2020.1.3,Win32,60,m,1,,,,,,,,0.614735,1,,,,,,94,WORD,UN,33,thread,TRAVEL,m,0.614735,,,,,,0.060201526,-0.352896738,0,0,0,,0,93,93,153,1,
,,,,,,,,,,,,,,,,,,5ca8f085685e370018b704b2,2020-08-10_18h12.28.128,lexical_decision_task_MP,2020.1.3,Win32,60,z,1,,,,,,,,0.552265,1,,,,,,384,NW,UN,50,injore,GUESCO,z,0.552265,,,,,,0.060201526,-0.352896738,0,0,0,,0,94,94,443,1,
,,,,,,,,,,,,,,,,,,5ca8f085685e370018b704b2,2020-08-10_18h12.28.128,lexical_decision_task_MP,2020.1.3,Win32,60,m,1,,,,,,,,0.499205,1,,,,,,186,WORD,"ID",33,portal,PORTAL,m,0.499205,,,,,,0.060201526,-0.352896738,0,0,0,,0,95,95,5,1,
,,,,,,,,,,,,,,,,,,5ca8f085685e370018b704b2,2020-08-10_18h12.28.128,lexical_decision_task_MP,2020.1.3,Win32,60,z,1,,,,,,,,0.588595,1,,,,,,400,NW,UN,50,mustil,WEAROX,z,0.588595,,,,,,0.060201526,-0.352896738,0,0,0,,0,96,96,459,1,
,,,,,,,,,,,,,,,,,,5ca8f085685e370018b704b2,2020-08-10_18h12.28.128,lexical_decision_task_MP,2020.1.3,Win32,60,m,0,,,,,,,,0.48247,0,,,,,,352,NW,UN,33,clurey,TRINGE,z,0.48247,,,,,,0.060201526,-0.352896738,0,0,0,,0,97,97,411,1,
,,,,,,,,,,,,,,,,,,5ca8f085685e370018b704b2,2020-08-10_18h12.28.128,lexical_decision_task_MP,2020.1.3,Win32,60,z,1,,,,,,,,0.366935,1,,,,,,465,NW,"ID",33,whivex,WHIVEX,z,0.366935,,,,,,0.060201526,-0.352896738,0,0,0,,0,98,98,284,1,
,,,,,,,,,,,,,,,,,,5ca8f085685e370018b704b2,2020-08-10_18h12.28.128,lexical_decision_task_MP,2020.1.3,Win32,60,m,1,,,,,,,,0.58376,1,,,,,,8,WORD,"ID",50,abrupt,ABRUPT,m,0.58376,,,,,,0.060201526,-0.352896738,0,0,0,,0,99,99,67,1,
,,,,,,,,,,,,,,,,,,5ca8f085685e370018b704b2,2020-08-10_18h12.28.128,lexical_decision_task_MP,2020.1.3,Win32,60,m,1,,,,,,,,0.579665,1,,,,,,146,WORD,UN,50,garlic,COUPLE,m,0.579665,,,,,,0.060201526,-0.352896738,0,0,0,,0,100,100,205,1,
,,,,,,,,,,,,,,,,,,5ca8f085685e370018b704b2,2020-08-10_18h12.28.128,lexical_decision_task_MP,2020.1.3,Win32,60,m,0,,,,,,,,0.91842,0,,,,,,303,NW,UN,33,cludie,FIREAM,z,0.91842,,,,,,0.060201526,-0.352896738,0,0,0,,0,101,101,362,1,
,,,,,,,,,,,,,,,,,,5ca8f085685e370018b704b2,2020-08-10_18h12.28.128,lexical_decision_task_MP,2020.1.3,Win32,60,z,1,,,,,,,,0.5888,1,,,,,,426,NW,"ID",33,urivel,URIVEL,z,0.5888,,,,,,0.060201526,-0.352896738,0,0,0,,0,102,102,245,1,
,,,,,,,,,,,,,,,,,,5ca8f085685e370018b704b2,2020-08-10_18h12.28.128,lexical_decision_task_MP,2020.1.3,Win32,60,m,1,,,,,,,,0.43462,1,,,,,,182,WORD,"ID",33,winter,WINTER,m,0.43462,,,,,,0.060201526,-0.352896738,0,0,0,,0,103,103,1,1,
,,,,,,,,,,,,,,,,,,5ca8f085685e370018b704b2,2020-08-10_18h12.28.128,lexical_decision_task_MP,2020.1.3,Win32,60,m,1,,,,,,,,0.50121,1,,,,,,96,WORD,UN,33,client,IGNORE,m,0.50121,,,,,,0.060201526,-0.352896738,0,0,0,,0,104,104,155,1,
,,,,,,,,,,,,,,,,,,5ca8f085685e370018b704b2,2020-08-10_18h12.28.128,lexical_decision_task_MP,2020.1.3,Win32,60,m,1,,,,,,,,0.453145,1,,,,,,132,WORD,UN,50,orphan,STRONG,m,0.453145,,,,,,0.060201526,-0.352896738,0,0,0,,0,105,105,191,1,
,,,,,,,,,,,,,,,,,,5ca8f085685e370018b704b2,2020-08-10_18h12.28.128,lexical_decision_task_MP,2020.1.3,Win32,60,z,0,,,,,,,,0.57616,0,,,,,,145,WORD,UN,50,couple,PARISH,m,0.57616,,,,,,0.060201526,-0.352896738,0,0,0,,0,106,106,204,1,
,,,,,,,,,,,,,,,,,,5ca8f085685e370018b704b2,2020-08-10_18h12.28.128,lexical_decision_task_MP,2020.1.3,Win32,60,z,1,,,,,,,,0.623535,1,,,,,,383,NW,UN,50,guesco,AUNGRE,z,0.623535,,,,,,0.060201526,-0.352896738,0,0,0,,0,107,107,442,1,
,,,,,,,,,,,,,,,,,,5ca8f085685e370018b704b2,2020-08-10_18h12.28.128,lexical_decision_task_MP,2020.1.3,Win32,60,z,1,,,,,,,,0.607535,1,,,,,,334,NW,UN,33,desion,WATMEG,z,0.607535,,,,,,0.060201526,-0.352896738,0,0,0,,0,108,108,393,1,
,,,,,,,,,,,,,,,,,,5ca8f085685e370018b704b2,2020-08-10_18h12.28.128,lexical_decision_task_MP,2020.1.3,Win32,60,z,1,,,,,,,,0.618925,1,,,,,,348,NW,UN,33,asylen,DUMPLE,z,0.618925,,,,,,0.060201526,-0.352896738,0,0,0,,0,109,109,407,1,
,,,,,,,,,,,,,,,,,,5ca8f085685e370018b704b2,2020-08-10_18h12.28.128,lexical_decision_task_MP,2020.1.3,Win32,60,z,1,,,,,,,,0.53162,1,,,,,,371,NW,UN,50,ramily,GEILOY,z,0.53162,,,,,,0.060201526,-0.352896738,0,0,0,,0,110,110,430,1,
,,,,,,,,,,,,,,,,,,5ca8f085685e370018b704b2,2020-08-10_18h12.28.128,lexical_decision_task_MP,2020.1.3,Win32,60,z,1,,,,,,,,0.5388,1,,,,,,291,NW,"ID",50,pretch,PRETCH,z,0.5388,,,,,,0.060201526,-0.352896738,0,0,0,,0,111,111,350,1,
,,,,,,,,,,,,,,,,,,5ca8f085685e370018b704b2,2020-08-10_18h12.28.128,lexical_decision_task_MP,2020.1.3,Win32,60,m,1,,,,,,,,0.464775,1,,,,,,47,WORD,"ID",50,income,INCOME,m,0.464775,,,,,,0.060201526,-0.352896738,0,0,0,,0,112,112,106,1,
,,,,,,,,,,,,,,,,,,5ca8f085685e370018b704b2,2020-08-10_18h12.28.128,lexical_decision_task_MP,2020.1.3,Win32,60,m,1,,,,,,,,0.53304,1,,,,,,178,WORD,UN,50,basket,INFORM,m,0.53304,,,,,,0.060201526,-0.352896738,0,0,0,,0,113,113,237,1,
,,,,,,,,,,,,,,,,,,5ca8f085685e370018b704b2,2020-08-10_18h12.28.128,lexical_decision_task_MP,2020.1.3,Win32,60,m,1,,,,,,,,0.56737,1,,,,,,206,WORD,"ID",33,tailor,TAILOR,m,0.56737,,,,,,0.060201526,-0.352896738,0,0,0,,0,114,114,25,1,
,,,,,,,,,,,,,,,,,,5ca8f085685e370018b704b2,2020-08-10_18h12.28.128,lexical_decision_task_MP,2020.1.3,Win32,60,m,1,,,,,,,,0.471185,1,,,,,,154,WORD,UN,50,lizard,AUTHOR,m,0.471185,,,,,,0.060201526,-0.352896738,0,0,0,,0,115,115,213,1,
,,,,,,,,,,,,,,,,,,5ca8f085685e370018b704b2,2020-08-10_18h12.28.128,lexical_decision_task_MP,2020.1.3,Win32,60,m,1,,,,,,,,0.519275,1,,,,,,69,WORD,UN,33,square,PLENTY,m,0.519275,,,,,,0.060201526,-0.352896738,0,0,0,,0,116,116,128,1,
,,,,,,,,,,,,,,,,,,5ca8f085685e370018b704b2,2020-08-10_18h12.28.128,lexical_decision_task_MP,2020.1.3,Win32,60,z,1,,,,,,,,0.524295,1,,,,,,444,NW,"ID",33,jaunce,JAUNCE,z,0.524295,,,,,,0.060201526,-0.352896738,0,0,0,,0,117,117,263,1,
,,,,,,,,,,,,,,,,,,5ca8f085685e370018b704b2,2020-08-10_18h12.28.128,lexical_decision_task_MP,2020.1.3,Win32,60,m,1,,,,,,,,0.5215,1,,,,,,44,WORD,"ID",50,danger,DANGER,m,0.5215,,,,,,0.060201526,-0.352896738,0,0,0,,0,118,118,103,1,
,,,,,,,,,,,,,,,,,,5ca8f085685e370018b704b2,2020-08-10_18h12.28.128,lexical_decision_task_MP,2020.1.3,Win32,60,z,0,,,,,,,,0.57049,0,,,,,,134,WORD,UN,50,import,STAPLE,m,0.57049,,,,,,0.060201526,-0.352896738,0,0,0,,0,119,119,193,1,
,,,,,,,,,,,,,,,,,,5ca8f085685e370018b704b2,2020-08-10_18h12.28.128,lexical_decision_task_MP,2020.1.3,Win32,60,m,1,,,,,,,,0.48856,1,,,,,,42,WORD,"ID",50,chapel,CHAPEL,m,0.48856,,,,,,-0.083879081,-0.446599572,1,0,0,,0,120,120,101,1,break_done_button
,,,,,,,,,,,,,,,,,,5ca8f085685e370018b704b2,2020-08-10_18h12.28.128,lexical_decision_task_MP,2020.1.3,Win32,60,m,1,,,,,,,,0.722555,1,,,,,,59,WORD,"ID",50,splint,SPLINT,m,0.722555,,,,,,-0.068765731,-0.42241815,0,0,0,,0,121,121,118,1,
,,,,,,,,,,,,,,,,,,5ca8f085685e370018b704b2,2020-08-10_18h12.28.128,lexical_decision_task_MP,2020.1.3,Win32,60,m,1,-0.068765731,-0.42241815,1,0,0,0.38084,,0.733075,1,,,,,,187,WORD,"ID",33,course,COURSE,m,0.733075,,,,,,-0.068765731,-0.42241815,0,0,0,,0,122,122,6,1,
,,,,,,,,,,,,,,,,,,5ca8f085685e370018b704b2,2020-08-10_18h12.28.128,lexical_decision_task_MP,2020.1.3,Win32,60,m,1,,,,,,,,0.509155,1,,,,,,174,WORD,UN,50,fabric,TURKEY,m,0.509155,,,,,,-0.068765731,-0.42241815,0,0,0,,0,123,123,233,1,
,,,,,,,,,,,,,,,,,,5ca8f085685e370018b704b2,2020-08-10_18h12.28.128,lexical_decision_task_MP,2020.1.3,Win32,60,m,1,,,,,,,,0.50084,1,,,,,,95,WORD,UN,33,ignore,THREAD,m,0.50084,,,,,,-0.068765731,-0.42241815,0,0,0,,0,124,124,154,1,
,,,,,,,,,,,,,,,,,,5ca8f085685e370018b704b2,2020-08-10_18h12.28.128,lexical_decision_task_MP,2020.1.3,Win32,60,z,1,,,,,,,,1.76397,1,,,,,,380,NW,UN,50,huniek,CAVORY,z,1.76397,,,,,,-0.068765731,-0.42241815,0,0,0,,0,125,125,439,1,
,,,,,,,,,,,,,,,,,,5ca8f085685e370018b704b2,2020-08-10_18h12.28.128,lexical_decision_task_MP,2020.1.3,Win32,60,z,1,,,,,,,,0.58755,1,,,,,,252,NW,"ID",50,stapod,STAPOD,z,0.58755,,,,,,-0.068765731,-0.42241815,0,0,0,,0,126,126,311,1,
,,,,,,,,,,,,,,,,,,5ca8f085685e370018b704b2,2020-08-10_18h12.28.128,lexical_decision_task_MP,2020.1.3,Win32,60,m,1,,,,,,,,0.598965,1,,,,,,172,WORD,UN,50,shower,PATROL,m,0.598965,,,,,,-0.068765731,-0.42241815,0,0,0,,0,127,127,231,1,
,,,,,,,,,,,,,,,,,,5ca8f085685e370018b704b2,2020-08-10_18h12.28.128,lexical_decision_task_MP,2020.1.3,Win32,60,z,1,,,,,,,,0.60317,1,,,,,,387,NW,UN,50,cragin,GRONCE,z,0.60317,,,,,,-0.068765731,-0.42241815,0,0,0,,0,128,128,446,1,
,,,,,,,,,,,,,,,,,,5ca8f085685e370018b704b2,2020-08-10_18h12.28.128,lexical_decision_task_MP,2020.1.3,Win32,60,m,0,,,,,,,,0.562545,0,,,,,,454,NW,"ID",33,scouge,SCOUGE,z,0.562545,,,,,,-0.068765731,-0.42241815,0,0,0,,0,129,129,273,1,
,,,,,,,,,,,,,,,,,,5ca8f085685e370018b704b2,2020-08-10_18h12.28.128,lexical_decision_task_MP,2020.1.3,Win32,60,m,1,,,,,,,,0.5303,1,,,,,,21,WORD,"ID",50,simple,SIMPLE,m,0.5303,,,,,,-0.068765731,-0.42241815,0,0,0,,0,130,130,80,1,
,,,,,,,,,,,,,,,,,,5ca8f085685e370018b704b2,2020-08-10_18h12.28.128,lexical_decision_task_MP,2020.1.3,Win32,60,m,1,,,,,,,,0.497915,1,,,,,,75,WORD,UN,33,exotic,TROPHY,m,0.497915,,,,,,-0.068765731,-0.42241815,0,0,0,,0,131,131,134,1,
,,,,,,,,,,,,,,,,,,5ca8f085685e370018b704b2,2020-08-10_18h12.28.128,lexical_decision_task_MP,2020.1.3,Win32,60,m,1,,,,,,,,0.53404,1,,,,,,30,WORD,"ID",50,orient,ORIENT,m,0.53404,,,,,,-0.068765731,-0.42241815,0,0,0,,0,132,132,89,1,
,,,,,,,,,,,,,,,,,,5ca8f085685e370018b704b2,2020-08-10_18h12.28.128,lexical_decision_task_MP,2020.1.3,Win32,60,m,1,,,,,,,,0.46712,1,,,,,,150,WORD,UN,50,mystic,RANDOM,m,0.46712,,,,,,-0.068765731,-0.42241815,0,0,0,,0,133,133,209,1,
,,,,,,,,,,,,,,,,,,5ca8f085685e370018b704b2,2020-08-10_18h12.28.128,lexical_decision_task_MP,2020.1.3,Win32,60,m,1,,,,,,,,0.43219,1,,,,,,236,WORD,"ID",33,pirate,PIRATE,m,0.43219,,,,,,-0.068765731,-0.42241815,0,0,0,,0,134,134,55,1,
,,,,,,,,,,,,,,,,,,5ca8f085685e370018b704b2,2020-08-10_18h12.28.128,lexical_decision_task_MP,2020.1.3,Win32,60,z,0,,,,,,,,0.532735,0,,,,,,166,WORD,UN,50,design,STARCH,m,0.532735,,,,,,-0.068765731,-0.42241815,0,0,0,,0,135,135,225,1,
,,,,,,,,,,,,,,,,,,5ca8f085685e370018b704b2,2020-08-10_18h12.28.128,lexical_decision_task_MP,2020.1.3,Win32,60,z,1,,,,,,,,0.56737,1,,,,,,363,NW,UN,50,impote,BREALI,z,0.56737,,,,,,-0.068765731,-0.42241815,0,0,0,,0,136,136,422,1,
,,,,,,,,,,,,,,,,,,5ca8f085685e370018b704b2,2020-08-10_18h12.28.128,lexical_decision_task_MP,2020.1.3,Win32,60,z,1,,,,,,,,0.52001,1,,,,,,467,NW,"ID",33,gorbie,GORBIE,z,0.52001,,,,,,-0.068765731,-0.42241815,0,0,0,,0,137,137,286,1,
,,,,,,,,,,,,,,,,,,5ca8f085685e370018b704b2,2020-08-10_18h12.28.128,lexical_decision_task_MP,2020.1.3,Win32,60,m,1,,,,,,,,0.481035,1,,,,,,190,WORD,"ID",33,backup,BACKUP,m,0.481035,,,,,,-0.068765731,-0.42241815,0,0,0,,0,138,138,9,1,
,,,,,,,,,,,,,,,,,,5ca8f085685e370018b704b2,2020-08-10_18h12.28.128,lexical_decision_task_MP,2020.1.3,Win32,60,m,1,,,,,,,,0.533955,1,,,,,,73,WORD,UN,33,plaque,SOURCE,m,0.533955,,,,,,-0.068765731,-0.42241815,0,0,0,,0,139,139,132,1,
,,,,,,,,,,,,,,,,,,5ca8f085685e370018b704b2,2020-08-10_18h12.28.128,lexical_decision_task_MP,2020.1.3,Win32,60,z,1,,,,,,,,0.497475,1,,,,,,256,NW,"ID",50,inlors,INLORS,z,0.497475,,,,,,-0.068765731,-0.42241815,0,0,0,,0,140,140,315,1,
,,,,,,,,,,,,,,,,,,5ca8f085685e370018b704b2,2020-08-10_18h12.28.128,lexical_decision_task_MP,2020.1.3,Win32,60,m,1,,,,,,,,0.400375,1,,,,,,233,WORD,"ID",33,nature,NATURE,m,0.400375,,,,,,-0.068765731,-0.42241815,0,0,0,,0,141,141,52,1,
,,,,,,,,,,,,,,,,,,5ca8f085685e370018b704b2,2020-08-10_18h12.28.128,lexical_decision_task_MP,2020.1.3,Win32,60,z,1,,,,,,,,0.51969,1,,,,,,259,NW,"ID",50,soudal,SOUDAL,z,0.51969,,,,,,-0.068765731,-0.42241815,0,0,0,,0,142,142,318,1,
,,,,,,,,,,,,,,,,,,5ca8f085685e370018b704b2,2020-08-10_18h12.28.128,lexical_decision_task_MP,2020.1.3,Win32,60,m,1,,,,,,,,0.389,1,,,,,,53,WORD,"ID",50,police,POLICE,m,0.389,,,,,,-0.068765731,-0.42241815,0,0,0,,0,143,143,112,1,
,,,,,,,,,,,,,,,,,,5ca8f085685e370018b704b2,2020-08-10_18h12.28.128,lexical_decision_task_MP,2020.1.3,Win32,60,m,1,,,,,,,,0.50173,1,,,,,,88,WORD,UN,33,permit,HUNGER,m,0.50173,,,,,,-0.068765731,-0.42241815,0,0,0,,0,144,144,147,1,
,,,,,,,,,,,,,,,,,,5ca8f085685e370018b704b2,2020-08-10_18h12.28.128,lexical_decision_task_MP,2020.1.3,Win32,60,z,1,,,,,,,,0.674135,1,,,,,,294,NW,"ID",50,inhort,INHORT,z,0.674135,,,,,,-0.068765731,-0.42241815,0,0,0,,0,145,145,353,1,
,,,,,,,,,,,,,,,,,,5ca8f085685e370018b704b2,2020-08-10_18h12.28.128,lexical_decision_task_MP,2020.1.3,Win32,60,m,1,,,,,,,,0.432435,1,,,,,,194,WORD,"ID",33,absent,ABSENT,m,0.432435,,,,,,-0.068765731,-0.42241815,0,0,0,,0,146,146,13,1,
,,,,,,,,,,,,,,,,,,5ca8f085685e370018b704b2,2020-08-10_18h12.28.128,lexical_decision_task_MP,2020.1.3,Win32,60,z,1,,,,,,,,0.578615,1,,,,,,321,NW,UN,33,slanch,MIATOR,z,0.578615,,,,,,-0.068765731,-0.42241815,0,0,0,,0,147,147,380,1,
,,,,,,,,,,,,,,,,,,5ca8f085685e370018b704b2,2020-08-10_18h12.28.128,lexical_decision_task_MP,2020.1.3,Win32,60,m,1,,,,,,,,0.44466,1,,,,,,102,WORD,UN,33,bounce,DIRECT,m,0.44466,,,,,,-0.068765731,-0.42241815,0,0,0,,0,148,148,161,1,
,,,,,,,,,,,,,,,,,,5ca8f085685e370018b704b2,2020-08-10_18h12.28.128,lexical_decision_task_MP,2020.1.3,Win32,60,z,0,,,,,,,,0.50444,0,,,,,,25,WORD,"ID",50,domain,DOMAIN,m,0.50444,,,,,,-0.068765731,-0.42241815,0,0,0,,0,149,149,84,1,
,,,,,,,,,,,,,,,,,,5ca8f085685e370018b704b2,2020-08-10_18h12.28.128,lexical_decision_task_MP,2020.1.3,Win32,60,z,0,,,,,,,,0.60329,0,,,,,,213,WORD,"ID",33,squeal,SQUEAL,m,0.60329,,,,,,-0.068765731,-0.42241815,0,0,0,,0,150,150,32,1,
,,,,,,,,,,,,,,,,,,5ca8f085685e370018b704b2,2020-08-10_18h12.28.128,lexical_decision_task_MP,2020.1.3,Win32,60,m,1,,,,,,,,0.548095,1,,,,,,215,WORD,"ID",33,phobia,PHOBIA,m,0.548095,,,,,,-0.068765731,-0.42241815,0,0,0,,0,151,151,34,1,
,,,,,,,,,,,,,,,,,,5ca8f085685e370018b704b2,2020-08-10_18h12.28.128,lexical_decision_task_MP,2020.1.3,Win32,60,m,1,,,,,,,,0.647445,1,,,,,,128,WORD,UN,50,marvel,SENIOR,m,0.647445,,,,,,-0.068765731,-0.42241815,0,0,0,,0,152,152,187,1,
,,,,,,,,,,,,,,,,,,5ca8f085685e370018b704b2,2020-08-10_18h12.28.128,lexical_decision_task_MP,2020.1.3,Win32,60,z,1,,,,,,,,0.562875,1,,,,,,362,NW,UN,50,breali,TIREAU,z,0.562875,,,,,,-0.068765731,-0.42241815,0,0,0,,0,153,153,421,1,
,,,,,,,,,,,,,,,,,,5ca8f085685e370018b704b2,2020-08-10_18h12.28.128,lexical_decision_task_MP,2020.1.3,Win32,60,z,1,,,,,,,,0.58046,1,,,,,,327,NW,UN,33,broake,PLENAC,z,0.58046,,,,,,-0.068765731,-0.42241815,0,0,0,,0,154,154,386,1,
,,,,,,,,,,,,,,,,,,5ca8f085685e370018b704b2,2020-08-10_18h12.28.128,lexical_decision_task_MP,2020.1.3,Win32,60,m,1,,,,,,,,0.519685,1,,,,,,221,WORD,"ID",33,mascot,MASCOT,m,0.519685,,,,,,-0.068765731,-0.42241815,0,0,0,,0,155,155,40,1,
,,,,,,,,,,,,,,,,,,5ca8f085685e370018b704b2,2020-08-10_18h12.28.128,lexical_decision_task_MP,2020.1.3,Win32,60,z,1,,,,,,,,0.683795,1,,,,,,424,NW,"ID",33,praile,PRAILE,z,0.683795,,,,,,-0.068765731,-0.42241815,0,0,0,,0,156,156,243,1,
,,,,,,,,,,,,,,,,,,5ca8f085685e370018b704b2,2020-08-10_18h12.28.128,lexical_decision_task_MP,2020.1.3,Win32,60,z,1,,,,,,,,0.49056,1,,,,,,275,NW,"ID",50,sleirt,SLEIRT,z,0.49056,,,,,,-0.068765731,-0.42241815,0,0,0,,0,157,157,334,1,
,,,,,,,,,,,,,,,,,,5ca8f085685e370018b704b2,2020-08-10_18h12.28.128,lexical_decision_task_MP,2020.1.3,Win32,60,m,1,,,,,,,,0.65043,1,,,,,,171,WORD,UN,50,patrol,DEPART,m,0.65043,,,,,,-0.068765731,-0.42241815,0,0,0,,0,158,158,230,1,
,,,,,,,,,,,,,,,,,,5ca8f085685e370018b704b2,2020-08-10_18h12.28.128,lexical_decision_task_MP,2020.1.3,Win32,60,z,1,,,,,,,,0.541875,1,,,,,,406,NW,UN,50,suiver,NOUPLY,z,0.541875,,,,,,-0.068765731,-0.42241815,0,0,0,,0,159,159,465,1,
,,,,,,,,,,,,,,,,,,5ca8f085685e370018b704b2,2020-08-10_18h12.28.128,lexical_decision_task_MP,2020.1.3,Win32,60,m,1,,,,,,,,0.51532,1,,,,,,97,WORD,UN,33,belong,CLIENT,m,0.51532,,,,,,-0.068765731,-0.42241815,0,0,0,,0,160,160,156,1,
,,,,,,,,,,,,,,,,,,5ca8f085685e370018b704b2,2020-08-10_18h12.28.128,lexical_decision_task_MP,2020.1.3,Win32,60,z,1,,,,,,,,0.575125,1,,,,,,405,NW,UN,50,nouply,FLUMNI,z,0.575125,,,,,,-0.068765731,-0.42241815,0,0,0,,0,161,161,464,1,
,,,,,,,,,,,,,,,,,,5ca8f085685e370018b704b2,2020-08-10_18h12.28.128,lexical_decision_task_MP,2020.1.3,Win32,60,m,1,,,,,,,,0.40293,1,,,,,,208,WORD,"ID",33,hockey,HOCKEY,m,0.40293,,,,,,-0.068765731,-0.42241815,0,0,0,,0,162,162,27,1,
,,,,,,,,,,,,,,,,,,5ca8f085685e370018b704b2,2020-08-10_18h12.28.128,lexical_decision_task_MP,2020.1.3,Win32,60,m,1,,,,,,,,0.441135,1,,,,,,29,WORD,"ID",50,sketch,SKETCH,m,0.441135,,,,,,-0.068765731,-0.42241815,0,0,0,,0,163,163,88,1,
,,,,,,,,,,,,,,,,,,5ca8f085685e370018b704b2,2020-08-10_18h12.28.128,lexical_decision_task_MP,2020.1.3,Win32,60,m,1,,,,,,,,0.40192,1,,,,,,229,WORD,"ID",33,mother,MOTHER,m,0.40192,,,,,,-0.068765731,-0.42241815,0,0,0,,0,164,164,48,1,
,,,,,,,,,,,,,,,,,,5ca8f085685e370018b704b2,2020-08-10_18h12.28.128,lexical_decision_task_MP,2020.1.3,Win32,60,m,1,,,,,,,,0.457385,1,,,,,,136,WORD,UN,50,finger,BLEACH,m,0.457385,,,,,,-0.068765731,-0.42241815,0,0,0,,0,165,165,195,1,
,,,,,,,,,,,,,,,,,,5ca8f085685e370018b704b2,2020-08-10_18h12.28.128,lexical_decision_task_MP,2020.1.3,Win32,60,z,1,,,,,,,,0.520445,1,,,,,,365,NW,UN,50,toshel,GUAIRT,z,0.520445,,,,,,-0.068765731,-0.42241815,0,0,0,,0,166,166,424,1,
,,,,,,,,,,,,,,,,,,5ca8f085685e370018b704b2,2020-08-10_18h12.28.128,lexical_decision_task_MP,2020.1.3,Win32,60,z,1,,,,,,,,0.5848,1,,,,,,311,NW,UN,33,nerawl,SPROLY,z,0.5848,,,,,,-0.068765731,-0.42241815,0,0,0,,0,167,167,370,1,
,,,,,,,,,,,,,,,,,,5ca8f085685e370018b704b2,2020-08-10_18h12.28.128,lexical_decision_task_MP,2020.1.3,Win32,60,z,1,,,,,,,,0.503735,1,,,,,,361,NW,UN,50,tireau,PAUCHE,z,0.503735,,,,,,-0.068765731,-0.42241815,0,0,0,,0,168,168,420,1,
,,,,,,,,,,,,,,,,,,5ca8f085685e370018b704b2,2020-08-10_18h12.28.128,lexical_decision_task_MP,2020.1.3,Win32,60,m,1,,,,,,,,0.570085,1,,,,,,149,WORD,UN,50,random,INVADE,m,0.570085,,,,,,-0.068765731,-0.42241815,0,0,0,,0,169,169,208,1,
,,,,,,,,,,,,,,,,,,5ca8f085685e370018b704b2,2020-08-10_18h12.28.128,lexical_decision_task_MP,2020.1.3,Win32,60,m,1,,,,,,,,0.64908,1,,,,,,84,WORD,UN,33,strand,MORTAL,m,0.64908,,,,,,-0.068765731,-0.42241815,0,0,0,,0,170,170,143,1,
,,,,,,,,,,,,,,,,,,5ca8f085685e370018b704b2,2020-08-10_18h12.28.128,lexical_decision_task_MP,2020.1.3,Win32,60,z,0,,,,,,,,0.54955,0,,,,,,156,WORD,UN,50,depart,CRADLE,m,0.54955,,,,,,-0.068765731,-0.42241815,0,0,0,,0,171,171,215,1,
,,,,,,,,,,,,,,,,,,5ca8f085685e370018b704b2,2020-08-10_18h12.28.128,lexical_decision_task_MP,2020.1.3,Win32,60,m,1,,,,,,,,0.50324,1,,,,,,195,WORD,"ID",33,resign,RESIGN,m,0.50324,,,,,,-0.068765731,-0.42241815,0,0,0,,0,172,172,14,1,
,,,,,,,,,,,,,,,,,,5ca8f085685e370018b704b2,2020-08-10_18h12.28.128,lexical_decision_task_MP,2020.1.3,Win32,60,z,1,,,,,,,,0.574465,1,,,,,,411,NW,UN,50,jiluer,ORCHIN,z,0.574465,,,,,,-0.068765731,-0.42241815,0,0,0,,0,173,173,470,1,
,,,,,,,,,,,,,,,,,,5ca8f085685e370018b704b2,2020-08-10_18h12.28.128,lexical_decision_task_MP,2020.1.3,Win32,60,m,1,,,,,,,,0.509425,1,,,,,,23,WORD,"ID",50,wealth,WEALTH,m,0.509425,,,,,,-0.068765731,-0.42241815,0,0,0,,0,174,174,82,1,
,,,,,,,,,,,,,,,,,,5ca8f085685e370018b704b2,2020-08-10_18h12.28.128,lexical_decision_task_MP,2020.1.3,Win32,60,z,1,,,,,,,,0.655025,1,,,,,,397,NW,UN,50,blunde,CAMBLE,z,0.655025,,,,,,-0.068765731,-0.42241815,0,0,0,,0,175,175,456,1,
,,,,,,,,,,,,,,,,,,5ca8f085685e370018b704b2,2020-08-10_18h12.28.128,lexical_decision_task_MP,2020.1.3,Win32,60,m,1,,,,,,,,0.44213,1,,,,,,179,WORD,UN,50,silent,BASKET,m,0.44213,,,,,,-0.068765731,-0.42241815,0,0,0,,0,176,176,238,1,
,,,,,,,,,,,,,,,,,,5ca8f085685e370018b704b2,2020-08-10_18h12.28.128,lexical_decision_task_MP,2020.1.3,Win32,60,z,1,,,,,,,,0.66116,1,,,,,,284,NW,"ID",50,shaple,SHAPLE,z,0.66116,,,,,,-0.068765731,-0.42241815,0,0,0,,0,177,177,343,1,
,,,,,,,,,,,,,,,,,,5ca8f085685e370018b704b2,2020-08-10_18h12.28.128,lexical_decision_task_MP,2020.1.3,Win32,60,z,1,,,,,,,,0.64849,1,,,,,,462,NW,"ID",33,absult,ABSULT,z,0.64849,,,,,,-0.068765731,-0.42241815,0,0,0,,0,178,178,281,1,
,,,,,,,,,,,,,,,,,,5ca8f085685e370018b704b2,2020-08-10_18h12.28.128,lexical_decision_task_MP,2020.1.3,Win32,60,z,1,,,,,,,,0.623115,1,,,,,,292,NW,"ID",50,ablint,ABLINT,z,0.623115,,,,,,-0.068765731,-0.42241815,0,0,0,,0,179,179,351,1,
,,,,,,,,,,,,,,,,,,5ca8f085685e370018b704b2,2020-08-10_18h12.28.128,lexical_decision_task_MP,2020.1.3,Win32,60,z,0,,,,,,,,0.644195,0,,,,,,125,WORD,UN,50,enough,NICKEL,m,0.644195,,,,,,-0.068765731,-0.42241815,0,0,0,,0,180,180,184,1,
,,,,,,,,,,,,,,,,,,5ca8f085685e370018b704b2,2020-08-10_18h12.28.128,lexical_decision_task_MP,2020.1.3,Win32,60,m,1,,,,,,,,0.5424,1,,,,,,162,WORD,UN,50,string,CANDLE,m,0.5424,,,,,,-0.068765731,-0.42241815,0,0,0,,0,181,181,221,1,
,,,,,,,,,,,,,,,,,,5ca8f085685e370018b704b2,2020-08-10_18h12.28.128,lexical_decision_task_MP,2020.1.3,Win32,60,z,1,,,,,,,,0.567345,1,,,,,,421,NW,"ID",33,knisma,KNISMA,z,0.567345,,,,,,-0.068765731,-0.42241815,0,0,0,,0,182,182,240,1,
,,,,,,,,,,,,,,,,,,5ca8f085685e370018b704b2,2020-08-10_18h12.28.128,lexical_decision_task_MP,2020.1.3,Win32,60,z,1,,,,,,,,0.63295,1,,,,,,351,NW,UN,33,tringe,TIESCH,z,0.63295,,,,,,-0.068765731,-0.42241815,0,0,0,,0,183,183,410,1,
,,,,,,,,,,,,,,,,,,5ca8f085685e370018b704b2,2020-08-10_18h12.28.128,lexical_decision_task_MP,2020.1.3,Win32,60,z,0,,,,,,,,0.52949,0,,,,,,176,WORD,UN,50,advent,STRIFE,m,0.52949,,,,,,-0.068765731,-0.42241815,0,0,0,,0,184,184,235,1,
,,,,,,,,,,,,,,,,,,5ca8f085685e370018b704b2,2020-08-10_18h12.28.128,lexical_decision_task_MP,2020.1.3,Win32,60,z,1,,,,,,,,0.615155,1,,,,,,265,NW,"ID",50,distar,DISTAR,z,0.615155,,,,,,-0.068765731,-0.42241815,0,0,0,,0,185,185,324,1,
,,,,,,,,,,,,,,,,,,5ca8f085685e370018b704b2,2020-08-10_18h12.28.128,lexical_decision_task_MP,2020.1.3,Win32,60,m,1,,,,,,,,0.49617,1,,,,,,31,WORD,"ID",50,weapon,WEAPON,m,0.49617,,,,,,-0.068765731,-0.42241815,0,0,0,,0,186,186,90,1,
,,,,,,,,,,,,,,,,,,5ca8f085685e370018b704b2,2020-08-10_18h12.28.128,lexical_decision_task_MP,2020.1.3,Win32,60,m,1,,,,,,,,0.51731,1,,,,,,27,WORD,"ID",50,scream,SCREAM,m,0.51731,,,,,,-0.068765731,-0.42241815,0,0,0,,0,187,187,86,1,
,,,,,,,,,,,,,,,,,,5ca8f085685e370018b704b2,2020-08-10_18h12.28.128,lexical_decision_task_MP,2020.1.3,Win32,60,m,1,,,,,,,,0.57975,1,,,,,,235,WORD,"ID",33,grumpy,GRUMPY,m,0.57975,,,,,,-0.068765731,-0.42241815,0,0,0,,0,188,188,54,1,
,,,,,,,,,,,,,,,,,,5ca8f085685e370018b704b2,2020-08-10_18h12.28.128,lexical_decision_task_MP,2020.1.3,Win32,60,z,1,,,,,,,,0.56454,1,,,,,,278,NW,"ID",50,unighs,UNIGHS,z,0.56454,,,,,,-0.068765731,-0.42241815,0,0,0,,0,189,189,337,1,
,,,,,,,,,,,,,,,,,,5ca8f085685e370018b704b2,2020-08-10_18h12.28.128,lexical_decision_task_MP,2020.1.3,Win32,60,m,1,,,,,,,,0.602955,1,,,,,,90,WORD,UN,33,expand,RELISH,m,0.602955,,,,,,-0.068765731,-0.42241815,0,0,0,,0,190,190,149,1,
,,,,,,,,,,,,,,,,,,5ca8f085685e370018b704b2,2020-08-10_18h12.28.128,lexical_decision_task_MP,2020.1.3,Win32,60,z,1,,,,,,,,0.99223,1,,,,,,438,NW,"ID",33,baitch,BAITCH,z,0.99223,,,,,,-0.068765731,-0.42241815,0,0,0,,0,191,191,257,1,
,,,,,,,,,,,,,,,,,,5ca8f085685e370018b704b2,2020-08-10_18h12.28.128,lexical_decision_task_MP,2020.1.3,Win32,60,z,1,,,,,,,,0.951025,1,,,,,,368,NW,UN,50,wronch,HORNAL,z,0.951025,,,,,,-0.068765731,-0.42241815,0,0,0,,0,192,192,427,1,
,,,,,,,,,,,,,,,,,,5ca8f085685e370018b704b2,2020-08-10_18h12.28.128,lexical_decision_task_MP,2020.1.3,Win32,60,m,0,,,,,,,,0.417395,0,,,,,,396,NW,UN,50,camble,FLENGY,z,0.417395,,,,,,-0.068765731,-0.42241815,0,0,0,,0,193,193,455,1,
,,,,,,,,,,,,,,,,,,5ca8f085685e370018b704b2,2020-08-10_18h12.28.128,lexical_decision_task_MP,2020.1.3,Win32,60,z,1,,,,,,,,0.530625,1,,,,,,337,NW,UN,33,wreash,REJOLS,z,0.530625,,,,,,-0.068765731,-0.42241815,0,0,0,,0,194,194,396,1,
,,,,,,,,,,,,,,,,,,5ca8f085685e370018b704b2,2020-08-10_18h12.28.128,lexical_decision_task_MP,2020.1.3,Win32,60,m,1,,,,,,,,0.597225,1,,,,,,223,WORD,"ID",33,kidney,KIDNEY,m,0.597225,,,,,,-0.068765731,-0.42241815,0,0,0,,0,195,195,42,1,
,,,,,,,,,,,,,,,,,,5ca8f085685e370018b704b2,2020-08-10_18h12.28.128,lexical_decision_task_MP,2020.1.3,Win32,60,z,1,,,,,,,,0.599735,1,,,,,,274,NW,"ID",50,fumblo,FUMBLO,z,0.599735,,,,,,-0.068765731,-0.42241815,0,0,0,,0,196,196,333,1,
,,,,,,,,,,,,,,,,,,5ca8f085685e370018b704b2,2020-08-10_18h12.28.128,lexical_decision_task_MP,2020.1.3,Win32,60,z,1,,,,,,,,0.607535,1,,,,,,429,NW,"ID",33,funtle,FUNTLE,z,0.607535,,,,,,-0.068765731,-0.42241815,0,0,0,,0,197,197,248,1,
,,,,,,,,,,,,,,,,,,5ca8f085685e370018b704b2,2020-08-10_18h12.28.128,lexical_decision_task_MP,2020.1.3,Win32,60,m,1,,,,,,,,0.53057,1,,,,,,52,WORD,"ID",50,impose,IMPOSE,m,0.53057,,,,,,-0.068765731,-0.42241815,0,0,0,,0,198,198,111,1,
,,,,,,,,,,,,,,,,,,5ca8f085685e370018b704b2,2020-08-10_18h12.28.128,lexical_decision_task_MP,2020.1.3,Win32,60,m,1,,,,,,,,0.550975,1,,,,,,230,WORD,"ID",33,fringe,FRINGE,m,0.550975,,,,,,-0.068765731,-0.42241815,0,0,0,,0,199,199,49,1,
,,,,,,,,,,,,,,,,,,5ca8f085685e370018b704b2,2020-08-10_18h12.28.128,lexical_decision_task_MP,2020.1.3,Win32,60,m,1,,,,,,,,0.64888,1,,,,,,64,WORD,UN,33,symbol,THRONE,m,0.64888,,,,,,-0.068765731,-0.42241815,0,0,0,,0,200,200,123,1,
,,,,,,,,,,,,,,,,,,5ca8f085685e370018b704b2,2020-08-10_18h12.28.128,lexical_decision_task_MP,2020.1.3,Win32,60,z,1,,,,,,,,0.59954,1,,,,,,448,NW,"ID",33,sadent,SADENT,z,0.59954,,,,,,-0.068765731,-0.42241815,0,0,0,,0,201,201,267,1,
,,,,,,,,,,,,,,,,,,5ca8f085685e370018b704b2,2020-08-10_18h12.28.128,lexical_decision_task_MP,2020.1.3,Win32,60,m,1,,,,,,,,0.468435,1,,,,,,140,WORD,UN,50,chrome,PRINCE,m,0.468435,,,,,,-0.068765731,-0.42241815,0,0,0,,0,202,202,199,1,
,,,,,,,,,,,,,,,,,,5ca8f085685e370018b704b2,2020-08-10_18h12.28.128,lexical_decision_task_MP,2020.1.3,Win32,60,z,1,,,,,,,,0.702935,1,,,,,,313,NW,UN,33,sprine,PAURSE,z,0.702935,,,,,,-0.068765731,-0.42241815,0,0,0,,0,203,203,372,1,
,,,,,,,,,,,,,,,,,,5ca8f085685e370018b704b2,2020-08-10_18h12.28.128,lexical_decision_task_MP,2020.1.3,Win32,60,m,1,,,,,,,,0.57362,1,,,,,,209,WORD,"ID",33,search,SEARCH,m,0.57362,,,,,,-0.068765731,-0.42241815,0,0,0,,0,204,204,28,1,
,,,,,,,,,,,,,,,,,,5ca8f085685e370018b704b2,2020-08-10_18h12.28.128,lexical_decision_task_MP,2020.1.3,Win32,60,z,1,,,,,,,,0.65172,1,,,,,,473,NW,"ID",33,crible,CRIBLE,z,0.65172,,,,,,-0.068765731,-0.42241815,0,0,0,,0,205,205,292,1,
,,,,,,,,,,,,,,,,,,5ca8f085685e370018b704b2,2020-08-10_18h12.28.128,lexical_decision_task_MP,2020.1.3,Win32,60,m,1,,,,,,,,0.47279,1,,,,,,148,WORD,UN,50,invade,CUSTOM,m,0.47279,,,,,,-0.068765731,-0.42241815,0,0,0,,0,206,206,207,1,
,,,,,,,,,,,,,,,,,,5ca8f085685e370018b704b2,2020-08-10_18h12.28.128,lexical_decision_task_MP,2020.1.3,Win32,60,z,1,,,,,,,,0.579875,1,,,,,,432,NW,"ID",33,lunker,LUNKER,z,0.579875,,,,,,-0.068765731,-0.42241815,0,0,0,,0,207,207,251,1,
,,,,,,,,,,,,,,,,,,5ca8f085685e370018b704b2,2020-08-10_18h12.28.128,lexical_decision_task_MP,2020.1.3,Win32,60,z,1,,,,,,,,0.59893,1,,,,,,471,NW,"ID",33,nobest,NOBEST,z,0.59893,,,,,,-0.068765731,-0.42241815,0,0,0,,0,208,208,290,1,
,,,,,,,,,,,,,,,,,,5ca8f085685e370018b704b2,2020-08-10_18h12.28.128,lexical_decision_task_MP,2020.1.3,Win32,60,z,1,,,,,,,,0.601475,1,,,,,,332,NW,UN,33,catrie,VANGUE,z,0.601475,,,,,,-0.068765731,-0.42241815,0,0,0,,0,209,209,391,1,
,,,,,,,,,,,,,,,,,,5ca8f085685e370018b704b2,2020-08-10_18h12.28.128,lexical_decision_task_MP,2020.1.3,Win32,60,z,1,,,,,,,,0.569315,1,,,,,,344,NW,UN,33,absend,SCRILY,z,0.569315,,,,,,-0.068765731,-0.42241815,0,0,0,,0,210,210,403,1,
,,,,,,,,,,,,,,,,,,5ca8f085685e370018b704b2,2020-08-10_18h12.28.128,lexical_decision_task_MP,2020.1.3,Win32,60,m,1,,,,,,,,0.542875,1,,,,,,189,WORD,"ID",33,censor,CENSOR,m,0.542875,,,,,,-0.068765731,-0.42241815,0,0,0,,0,211,211,8,1,
,,,,,,,,,,,,,,,,,,5ca8f085685e370018b704b2,2020-08-10_18h12.28.128,lexical_decision_task_MP,2020.1.3,Win32,60,z,1,,,,,,,,0.547495,1,,,,,,312,NW,UN,33,paurse,NERAWL,z,0.547495,,,,,,-0.068765731,-0.42241815,0,0,0,,0,212,212,371,1,
,,,,,,,,,,,,,,,,,,5ca8f085685e370018b704b2,2020-08-10_18h12.28.128,lexical_decision_task_MP,2020.1.3,Win32,60,z,1,,,,,,,,0.57063,1,,,,,,428,NW,"ID",33,tandly,TANDLY,z,0.57063,,,,,,-0.068765731,-0.42241815,0,0,0,,0,213,213,247,1,
,,,,,,,,,,,,,,,,,,5ca8f085685e370018b704b2,2020-08-10_18h12.28.128,lexical_decision_task_MP,2020.1.3,Win32,60,z,1,,,,,,,,0.640425,1,,,,,,341,NW,UN,33,randow,MYRTIE,z,0.640425,,,,,,-0.068765731,-0.42241815,0,0,0,,0,214,214,400,1,
,,,,,,,,,,,,,,,,,,5ca8f085685e370018b704b2,2020-08-10_18h12.28.128,lexical_decision_task_MP,2020.1.3,Win32,60,m,1,,,,,,,,0.491335,1,,,,,,80,WORD,UN,33,friend,FAMILY,m,0.491335,,,,,,-0.068765731,-0.42241815,0,0,0,,0,215,215,139,1,
,,,,,,,,,,,,,,,,,,5ca8f085685e370018b704b2,2020-08-10_18h12.28.128,lexical_decision_task_MP,2020.1.3,Win32,60,m,1,,,,,,,,0.681265,1,,,,,,1,WORD,"ID",50,fright,FRIGHT,m,0.681265,,,,,,-0.068765731,-0.42241815,0,0,0,,0,216,216,60,1,
,,,,,,,,,,,,,,,,,,5ca8f085685e370018b704b2,2020-08-10_18h12.28.128,lexical_decision_task_MP,2020.1.3,Win32,60,m,1,,,,,,,,0.747535,1,,,,,,147,WORD,UN,50,custom,GARLIC,m,0.747535,,,,,,-0.068765731,-0.42241815,0,0,0,,0,217,217,206,1,
,,,,,,,,,,,,,,,,,,5ca8f085685e370018b704b2,2020-08-10_18h12.28.128,lexical_decision_task_MP,2020.1.3,Win32,60,m,0,,,,,,,,0.449295,0,,,,,,452,NW,"ID",33,surden,SURDEN,z,0.449295,,,,,,-0.068765731,-0.42241815,0,0,0,,0,218,218,271,1,
,,,,,,,,,,,,,,,,,,5ca8f085685e370018b704b2,2020-08-10_18h12.28.128,lexical_decision_task_MP,2020.1.3,Win32,60,m,1,,,,,,,,0.651455,1,,,,,,177,WORD,UN,50,inform,ADVENT,m,0.651455,,,,,,-0.068765731,-0.42241815,0,0,0,,0,219,219,236,1,
,,,,,,,,,,,,,,,,,,5ca8f085685e370018b704b2,2020-08-10_18h12.28.128,lexical_decision_task_MP,2020.1.3,Win32,60,z,1,,,,,,,,0.630965,1,,,,,,302,NW,UN,33,fiream,MILUER,z,0.630965,,,,,,-0.068765731,-0.42241815,0,0,0,,0,220,220,361,1,
,,,,,,,,,,,,,,,,,,5ca8f085685e370018b704b2,2020-08-10_18h12.28.128,lexical_decision_task_MP,2020.1.3,Win32,60,m,1,,,,,,,,0.466395,1,,,,,,71,WORD,UN,33,bright,GARDEN,m,0.466395,,,,,,-0.068765731,-0.42241815,0,0,0,,0,221,221,130,1,
,,,,,,,,,,,,,,,,,,5ca8f085685e370018b704b2,2020-08-10_18h12.28.128,lexical_decision_task_MP,2020.1.3,Win32,60,z,1,,,,,,,,0.587355,1,,,,,,474,NW,"ID",33,hablin,HABLIN,z,0.587355,,,,,,-0.068765731,-0.42241815,0,0,0,,0,222,222,293,1,
,,,,,,,,,,,,,,,,,,5ca8f085685e370018b704b2,2020-08-10_18h12.28.128,lexical_decision_task_MP,2020.1.3,Win32,60,z,1,,,,,,,,0.7496,1,,,,,,364,NW,UN,50,guairt,IMPOTE,z,0.7496,,,,,,-0.068765731,-0.42241815,0,0,0,,0,223,223,423,1,
,,,,,,,,,,,,,,,,,,5ca8f085685e370018b704b2,2020-08-10_18h12.28.128,lexical_decision_task_MP,2020.1.3,Win32,60,m,1,,,,,,,,0.43265,1,,,,,,51,WORD,"ID",50,hungry,HUNGRY,m,0.43265,,,,,,-0.068765731,-0.42241815,0,0,0,,0,224,224,110,1,
,,,,,,,,,,,,,,,,,,5ca8f085685e370018b704b2,2020-08-10_18h12.28.128,lexical_decision_task_MP,2020.1.3,Win32,60,z,1,,,,,,,,0.70698,1,,,,,,342,NW,UN,33,aimosy,RANDOW,z,0.70698,,,,,,-0.068765731,-0.42241815,0,0,0,,0,225,225,401,1,
,,,,,,,,,,,,,,,,,,5ca8f085685e370018b704b2,2020-08-10_18h12.28.128,lexical_decision_task_MP,2020.1.3,Win32,60,z,1,,,,,,,,0.68765,1,,,,,,325,NW,UN,33,iguade,THRUSE,z,0.68765,,,,,,-0.068765731,-0.42241815,0,0,0,,0,226,226,384,1,
,,,,,,,,,,,,,,,,,,5ca8f085685e370018b704b2,2020-08-10_18h12.28.128,lexical_decision_task_MP,2020.1.3,Win32,60,z,1,,,,,,,,0.649085,1,,,,,,436,NW,"ID",33,frutan,FRUTAN,z,0.649085,,,,,,-0.068765731,-0.42241815,0,0,0,,0,227,227,255,1,
,,,,,,,,,,,,,,,,,,5ca8f085685e370018b704b2,2020-08-10_18h12.28.128,lexical_decision_task_MP,2020.1.3,Win32,60,z,0,,,,,,,,0.60124,0,,,,,,139,WORD,UN,50,prince,DEBRIS,m,0.60124,,,,,,-0.068765731,-0.42241815,0,0,0,,0,228,228,198,1,
,,,,,,,,,,,,,,,,,,5ca8f085685e370018b704b2,2020-08-10_18h12.28.128,lexical_decision_task_MP,2020.1.3,Win32,60,m,1,,,,,,,,0.427995,1,,,,,,157,WORD,UN,50,island,DRAGON,m,0.427995,,,,,,-0.068765731,-0.42241815,0,0,0,,0,229,229,216,1,
,,,,,,,,,,,,,,,,,,5ca8f085685e370018b704b2,2020-08-10_18h12.28.128,lexical_decision_task_MP,2020.1.3,Win32,60,m,1,,,,,,,,0.48415,1,,,,,,9,WORD,"ID",50,hustle,HUSTLE,m,0.48415,,,,,,-0.068765731,-0.42241815,0,0,0,,0,230,230,68,1,
,,,,,,,,,,,,,,,,,,5ca8f085685e370018b704b2,2020-08-10_18h12.28.128,lexical_decision_task_MP,2020.1.3,Win32,60,z,1,,,,,,,,0.59487,1,,,,,,323,NW,UN,33,steikh,ROSAIL,z,0.59487,,,,,,-0.074811009,-0.424433263,0,0,0,,0,231,231,382,1,
,,,,,,,,,,,,,,,,,,5ca8f085685e370018b704b2,2020-08-10_18h12.28.128,lexical_decision_task_MP,2020.1.3,Win32,60,m,1,,,,,,,,0.520535,1,,,,,,201,WORD,"ID",33,admire,ADMIRE,m,0.520535,,,,,,-0.074811009,-0.424433263,0,0,0,,0,232,232,20,1,
,,,,,,,,,,,,,,,,,,5ca8f085685e370018b704b2,2020-08-10_18h12.28.128,lexical_decision_task_MP,2020.1.3,Win32,60,z,1,,,,,,,,0.584005,1,,,,,,271,NW,"ID",50,aubrid,AUBRID,z,0.584005,,,,,,-0.075818627,-0.424433263,0,0,0,,0,233,233,330,1,
,,,,,,,,,,,,,,,,,,5ca8f085685e370018b704b2,2020-08-10_18h12.28.128,lexical_decision_task_MP,2020.1.3,Win32,60,m,1,,,,,,,,0.449265,1,,,,,,15,WORD,"ID",50,amount,AMOUNT,m,0.449265,,,,,,-0.076826184,-0.426448438,0,0,0,,0,234,234,74,1,
,,,,,,,,,,,,,,,,,,5ca8f085685e370018b704b2,2020-08-10_18h12.28.128,lexical_decision_task_MP,2020.1.3,Win32,60,z,1,,,,,,,,0.56656,1,,,,,,280,NW,"ID",50,curbol,CURBOL,z,0.56656,,,,,,-0.076826184,-0.426448438,0,0,0,,0,235,235,339,1,
,,,,,,,,,,,,,,,,,,5ca8f085685e370018b704b2,2020-08-10_18h12.28.128,lexical_decision_task_MP,2020.1.3,Win32,60,m,0,,,,,,,,0.65152,0,,,,,,469,NW,"ID",33,padifs,PADIFS,z,0.65152,,,,,,-0.076826184,-0.426448438,0,0,0,,0,236,236,288,1,
,,,,,,,,,,,,,,,,,,5ca8f085685e370018b704b2,2020-08-10_18h12.28.128,lexical_decision_task_MP,2020.1.3,Win32,60,m,1,,,,,,,,0.432335,1,,,,,,165,WORD,UN,50,starch,INVEST,m,0.432335,,,,,,-0.076826184,-0.426448438,0,0,0,,0,237,237,224,1,
,,,,,,,,,,,,,,,,,,5ca8f085685e370018b704b2,2020-08-10_18h12.28.128,lexical_decision_task_MP,2020.1.3,Win32,60,z,1,,,,,,,,0.50911,1,,,,,,318,NW,UN,33,zomber,REAGLY,z,0.50911,,,,,,-0.074811009,-0.42544082,0,0,0,,0,238,238,377,1,
,,,,,,,,,,,,,,,,,,5ca8f085685e370018b704b2,2020-08-10_18h12.28.128,lexical_decision_task_MP,2020.1.3,Win32,60,m,1,,,,,,,,0.866585,1,,,,,,116,WORD,UN,33,branch,TUMBLE,m,0.866585,,,,,,-0.074811009,-0.42544082,0,0,0,,0,239,239,175,1,
,,,,,,,,,,,,,,,,,,5ca8f085685e370018b704b2,2020-08-10_18h12.28.128,lexical_decision_task_MP,2020.1.3,Win32,60,m,1,,,,,,,,0.491455,1,,,,,,127,WORD,UN,50,senior,CASTLE,m,0.491455,,,,,,-0.072795957,-0.42544082,0,0,0,,0,240,240,186,1,
,,,,,,,,,,,,,,,,,,5ca8f085685e370018b704b2,2020-08-10_18h12.28.128,lexical_decision_task_MP,2020.1.3,Win32,60,m,0,,,,,,,,0.454575,0,,,,,,330,NW,UN,33,gilfew,KENSOM,z,0.454575,,,,,,-0.055667494,-0.417380366,1,0,0,,0,241,241,389,1,break_done_button
,,,,,,,,,,,,,,,,,,5ca8f085685e370018b704b2,2020-08-10_18h12.28.128,lexical_decision_task_MP,2020.1.3,Win32,60,z,1,,,,,,,,1.263425,1,,,,,,298,NW,"ID",50,piergy,PIERGY,z,1.263425,,,,,,-0.059697659,-0.407304799,0,0,0,,0,242,242,357,1,
,,,,,,,,,,,,,,,,,,5ca8f085685e370018b704b2,2020-08-10_18h12.28.128,lexical_decision_task_MP,2020.1.3,Win32,60,m,1,,,,,,,,0.725295,1,,,,,,197,WORD,"ID",33,stream,STREAM,m,0.725295,,,,,,-0.059697659,-0.407304799,0,0,0,,0,243,243,16,1,
,,,,,,,,,,,,,,,,,,5ca8f085685e370018b704b2,2020-08-10_18h12.28.128,lexical_decision_task_MP,2020.1.3,Win32,60,m,1,,,,,,,,0.483525,1,,,,,,141,WORD,UN,50,spruce,ORPHAN,m,0.483525,,,,,,-0.059697659,-0.407304799,0,0,0,,0,244,244,200,1,
,,,,,,,,,,,,,,,,,,5ca8f085685e370018b704b2,2020-08-10_18h12.28.128,lexical_decision_task_MP,2020.1.3,Win32,60,m,1,,,,,,,,0.485875,1,,,,,,122,WORD,UN,50,strike,LINGER,m,0.485875,,,,,,-0.059697659,-0.407304799,0,0,0,,0,245,245,181,1,
,,,,,,,,,,,,,,,,,,5ca8f085685e370018b704b2,2020-08-10_18h12.28.128,lexical_decision_task_MP,2020.1.3,Win32,60,m,1,,,,,,,,0.435955,1,,,,,,210,WORD,"ID",33,monkey,MONKEY,m,0.435955,,,,,,-0.059697659,-0.407304799,0,0,0,,0,246,246,29,1,
,,,,,,,,,,,,,,,,,,5ca8f085685e370018b704b2,2020-08-10_18h12.28.128,lexical_decision_task_MP,2020.1.3,Win32,60,m,1,,,,,,,,0.49567,1,,,,,,219,WORD,"ID",33,bucket,BUCKET,m,0.49567,,,,,,-0.059697659,-0.407304799,0,0,0,,0,247,247,38,1,
,,,,,,,,,,,,,,,,,,5ca8f085685e370018b704b2,2020-08-10_18h12.28.128,lexical_decision_task_MP,2020.1.3,Win32,60,m,1,,,,,,,,0.47458,1,,,,,,68,WORD,UN,33,plenty,FUMBLE,m,0.47458,,,,,,-0.059697659,-0.407304799,0,0,0,,0,248,248,127,1,
,,,,,,,,,,,,,,,,,,5ca8f085685e370018b704b2,2020-08-10_18h12.28.128,lexical_decision_task_MP,2020.1.3,Win32,60,z,1,,,,,,,,0.769965,1,,,,,,367,NW,UN,50,hornal,SLIQUE,z,0.769965,,,,,,-0.059697659,-0.407304799,0,0,0,,0,249,249,426,1,
,,,,,,,,,,,,,,,,,,5ca8f085685e370018b704b2,2020-08-10_18h12.28.128,lexical_decision_task_MP,2020.1.3,Win32,60,z,1,,,,,,,,0.56034,1,,,,,,257,NW,"ID",50,veniod,VENIOD,z,0.56034,,,,,,-0.059697659,-0.407304799,0,0,0,,0,250,250,316,1,
,,,,,,,,,,,,,,,,,,5ca8f085685e370018b704b2,2020-08-10_18h12.28.128,lexical_decision_task_MP,2020.1.3,Win32,60,z,1,,,,,,,,0.544025,1,,,,,,251,NW,"ID",50,lupict,LUPICT,z,0.544025,,,,,,-0.059697659,-0.407304799,0,0,0,,0,251,251,310,1,
,,,,,,,,,,,,,,,,,,5ca8f085685e370018b704b2,2020-08-10_18h12.28.128,lexical_decision_task_MP,2020.1.3,Win32,60,m,1,,,,,,,,0.549665,1,,,,,,103,WORD,UN,33,studio,BOUNCE,m,0.549665,,,,,,-0.059697659,-0.407304799,0,0,0,,0,252,252,162,1,
,,,,,,,,,,,,,,,,,,5ca8f085685e370018b704b2,2020-08-10_18h12.28.128,lexical_decision_task_MP,2020.1.3,Win32,60,m,1,,,,,,,,0.67157,1,,,,,,101,WORD,UN,33,direct,WRENCH,m,0.67157,,,,,,-0.059697659,-0.407304799,0,0,0,,0,253,253,160,1,
,,,,,,,,,,,,,,,,,,5ca8f085685e370018b704b2,2020-08-10_18h12.28.128,lexical_decision_task_MP,2020.1.3,Win32,60,m,1,,,,,,,,0.446245,1,,,,,,57,WORD,"ID",50,change,CHANGE,m,0.446245,,,,,,-0.059697659,-0.407304799,0,0,0,,0,254,254,116,1,
,,,,,,,,,,,,,,,,,,5ca8f085685e370018b704b2,2020-08-10_18h12.28.128,lexical_decision_task_MP,2020.1.3,Win32,60,z,0,,,,,,,,0.482025,0,,,,,,16,WORD,"ID",50,faucet,FAUCET,m,0.482025,,,,,,-0.059697659,-0.407304799,0,0,0,,0,255,255,75,1,
,,,,,,,,,,,,,,,,,,5ca8f085685e370018b704b2,2020-08-10_18h12.28.128,lexical_decision_task_MP,2020.1.3,Win32,60,m,1,,,,,,,,0.503415,1,,,,,,55,WORD,"ID",50,stroke,STROKE,m,0.503415,,,,,,-0.059697659,-0.407304799,0,0,0,,0,256,256,114,1,
,,,,,,,,,,,,,,,,,,5ca8f085685e370018b704b2,2020-08-10_18h12.28.128,lexical_decision_task_MP,2020.1.3,Win32,60,m,1,,,,,,,,0.554965,1,,,,,,200,WORD,"ID",33,beacon,BEACON,m,0.554965,,,,,,-0.059697659,-0.407304799,0,0,0,,0,257,257,19,1,
,,,,,,,,,,,,,,,,,,5ca8f085685e370018b704b2,2020-08-10_18h12.28.128,lexical_decision_task_MP,2020.1.3,Win32,60,m,1,,,,,,,,0.422415,1,,,,,,22,WORD,"ID",50,jockey,JOCKEY,m,0.422415,,,,,,-0.059697659,-0.407304799,0,0,0,,0,258,258,81,1,
,,,,,,,,,,,,,,,,,,5ca8f085685e370018b704b2,2020-08-10_18h12.28.128,lexical_decision_task_MP,2020.1.3,Win32,60,m,1,,,,,,,,0.44975,1,,,,,,224,WORD,"ID",33,period,PERIOD,m,0.44975,,,,,,-0.059697659,-0.407304799,0,0,0,,0,259,259,43,1,
,,,,,,,,,,,,,,,,,,5ca8f085685e370018b704b2,2020-08-10_18h12.28.128,lexical_decision_task_MP,2020.1.3,Win32,60,z,1,,,,,,,,0.59083,1,,,,,,264,NW,"ID",50,vackel,VACKEL,z,0.59083,,,,,,-0.059697659,-0.407304799,0,0,0,,0,260,260,323,1,
,,,,,,,,,,,,,,,,,,5ca8f085685e370018b704b2,2020-08-10_18h12.28.128,lexical_decision_task_MP,2020.1.3,Win32,60,m,0,,,,,,,,0.51569,0,,,,,,260,NW,"ID",50,unject,UNJECT,z,0.51569,,,,,,-0.059697659,-0.407304799,0,0,0,,0,261,261,319,1,
,,,,,,,,,,,,,,,,,,5ca8f085685e370018b704b2,2020-08-10_18h12.28.128,lexical_decision_task_MP,2020.1.3,Win32,60,z,1,,,,,,,,0.684315,1,,,,,,468,NW,"ID",33,wictor,WICTOR,z,0.684315,,,,,,-0.059697659,-0.407304799,0,0,0,,0,262,262,287,1,
,,,,,,,,,,,,,,,,,,5ca8f085685e370018b704b2,2020-08-10_18h12.28.128,lexical_decision_task_MP,2020.1.3,Win32,60,m,1,,,,,,,,0.615335,1,,,,,,121,WORD,UN,50,linger,THRIVE,m,0.615335,,,,,,-0.059697659,-0.407304799,0,0,0,,0,263,263,180,1,
,,,,,,,,,,,,,,,,,,5ca8f085685e370018b704b2,2020-08-10_18h12.28.128,lexical_decision_task_MP,2020.1.3,Win32,60,m,1,,,,,,,,0.786295,1,,,,,,118,WORD,UN,33,spider,FLIGHT,m,0.786295,,,,,,-0.059697659,-0.407304799,0,0,0,,0,264,264,177,1,
,,,,,,,,,,,,,,,,,,5ca8f085685e370018b704b2,2020-08-10_18h12.28.128,lexical_decision_task_MP,2020.1.3,Win32,60,z,0,,,,,,,,0.63635,0,,,,,,183,WORD,"ID",33,mildew,MILDEW,m,0.63635,,,,,,-0.059697659,-0.407304799,0,0,0,,0,265,265,2,1,
,,,,,,,,,,,,,,,,,,5ca8f085685e370018b704b2,2020-08-10_18h12.28.128,lexical_decision_task_MP,2020.1.3,Win32,60,z,1,,,,,,,,0.617285,1,,,,,,440,NW,"ID",33,saride,SARIDE,z,0.617285,,,,,,-0.059697659,-0.407304799,0,0,0,,0,266,266,259,1,
,,,,,,,,,,,,,,,,,,5ca8f085685e370018b704b2,2020-08-10_18h12.28.128,lexical_decision_task_MP,2020.1.3,Win32,60,z,1,,,,,,,,0.834755,1,,,,,,423,NW,"ID",33,streld,STRELD,z,0.834755,,,,,,-0.059697659,-0.407304799,0,0,0,,0,267,267,242,1,
,,,,,,,,,,,,,,,,,,5ca8f085685e370018b704b2,2020-08-10_18h12.28.128,lexical_decision_task_MP,2020.1.3,Win32,60,z,1,,,,,,,,0.562545,1,,,,,,370,NW,UN,50,geiloy,SLEACT,z,0.562545,,,,,,-0.059697659,-0.407304799,0,0,0,,0,268,268,429,1,
,,,,,,,,,,,,,,,,,,5ca8f085685e370018b704b2,2020-08-10_18h12.28.128,lexical_decision_task_MP,2020.1.3,Win32,60,z,1,,,,,,,,0.62261,1,,,,,,422,NW,"ID",33,alcoud,ALCOUD,z,0.62261,,,,,,-0.059697659,-0.407304799,0,0,0,,0,269,269,241,1,
,,,,,,,,,,,,,,,,,,5ca8f085685e370018b704b2,2020-08-10_18h12.28.128,lexical_decision_task_MP,2020.1.3,Win32,60,z,1,,,,,,,,0.68764,1,,,,,,249,NW,"ID",50,batrol,BATROL,z,0.68764,,,,,,-0.059697659,-0.407304799,0,0,0,,0,270,270,308,1,
,,,,,,,,,,,,,,,,,,5ca8f085685e370018b704b2,2020-08-10_18h12.28.128,lexical_decision_task_MP,2020.1.3,Win32,60,m,1,,,,,,,,0.75349,1,,,,,,87,WORD,UN,33,sprawl,FILTER,m,0.75349,,,,,,-0.059697659,-0.407304799,0,0,0,,0,271,271,146,1,
,,,,,,,,,,,,,,,,,,5ca8f085685e370018b704b2,2020-08-10_18h12.28.128,lexical_decision_task_MP,2020.1.3,Win32,60,m,1,,,,,,,,0.583885,1,,,,,,184,WORD,"ID",33,sleazy,SLEAZY,m,0.583885,,,,,,-0.059697659,-0.407304799,0,0,0,,0,272,272,3,1,
,,,,,,,,,,,,,,,,,,5ca8f085685e370018b704b2,2020-08-10_18h12.28.128,lexical_decision_task_MP,2020.1.3,Win32,60,z,1,,,,,,,,0.568985,1,,,,,,399,NW,UN,50,wearox,FOURET,z,0.568985,,,,,,-0.059697659,-0.407304799,0,0,0,,0,273,273,458,1,
,,,,,,,,,,,,,,,,,,5ca8f085685e370018b704b2,2020-08-10_18h12.28.128,lexical_decision_task_MP,2020.1.3,Win32,60,m,1,,,,,,,,0.48418,1,,,,,,77,WORD,UN,33,column,RACKET,m,0.48418,,,,,,-0.059697659,-0.407304799,0,0,0,,0,274,274,136,1,
,,,,,,,,,,,,,,,,,,5ca8f085685e370018b704b2,2020-08-10_18h12.28.128,lexical_decision_task_MP,2020.1.3,Win32,60,z,1,,,,,,,,0.614655,1,,,,,,350,NW,UN,33,tiesch,NAGURS,z,0.614655,,,,,,-0.059697659,-0.407304799,0,0,0,,0,275,275,409,1,
,,,,,,,,,,,,,,,,,,5ca8f085685e370018b704b2,2020-08-10_18h12.28.128,lexical_decision_task_MP,2020.1.3,Win32,60,m,1,,,,,,,,0.50737,1,,,,,,32,WORD,"ID",50,buckle,BUCKLE,m,0.50737,,,,,,-0.059697659,-0.407304799,0,0,0,,0,276,276,91,1,
,,,,,,,,,,,,,,,,,,5ca8f085685e370018b704b2,2020-08-10_18h12.28.128,lexical_decision_task_MP,2020.1.3,Win32,60,m,1,,,,,,,,0.589095,1,,,,,,78,WORD,UN,33,theory,COLUMN,m,0.589095,,,,,,-0.059697659,-0.407304799,0,0,0,,0,277,277,137,1,
,,,,,,,,,,,,,,,,,,5ca8f085685e370018b704b2,2020-08-10_18h12.28.128,lexical_decision_task_MP,2020.1.3,Win32,60,m,1,,,,,,,,0.51529,1,,,,,,123,WORD,UN,50,blouse,STRIKE,m,0.51529,,,,,,-0.059697659,-0.407304799,0,0,0,,0,278,278,182,1,
,,,,,,,,,,,,,,,,,,5ca8f085685e370018b704b2,2020-08-10_18h12.28.128,lexical_decision_task_MP,2020.1.3,Win32,60,z,1,,,,,,,,0.682785,1,,,,,,389,NW,UN,50,hatrus,WITMER,z,0.682785,,,,,,-0.059697659,-0.407304799,0,0,0,,0,279,279,448,1,
,,,,,,,,,,,,,,,,,,5ca8f085685e370018b704b2,2020-08-10_18h12.28.128,lexical_decision_task_MP,2020.1.3,Win32,60,z,1,,,,,,,,0.76311,1,,,,,,408,NW,UN,50,elopia,HURNIA,z,0.76311,,,,,,-0.059697659,-0.407304799,0,0,0,,0,280,280,467,1,
,,,,,,,,,,,,,,,,,,5ca8f085685e370018b704b2,2020-08-10_18h12.28.128,lexical_decision_task_MP,2020.1.3,Win32,60,z,1,,,,,,,,0.53727,1,,,,,,415,NW,UN,50,pathel,HIGSTA,z,0.53727,,,,,,-0.059697659,-0.407304799,0,0,0,,0,281,281,474,1,
,,,,,,,,,,,,,,,,,,5ca8f085685e370018b704b2,2020-08-10_18h12.28.128,lexical_decision_task_MP,2020.1.3,Win32,60,m,1,,,,,,,,0.79887,1,,,,,,159,WORD,UN,50,violet,DETAIL,m,0.79887,,,,,,-0.059697659,-0.407304799,0,0,0,,0,282,282,218,1,
,,,,,,,,,,,,,,,,,,5ca8f085685e370018b704b2,2020-08-10_18h12.28.128,lexical_decision_task_MP,2020.1.3,Win32,60,z,1,,,,,,,,0.719735,1,,,,,,250,NW,"ID",50,milted,MILTED,z,0.719735,,,,,,-0.059697659,-0.407304799,0,0,0,,0,283,283,309,1,
,,,,,,,,,,,,,,,,,,5ca8f085685e370018b704b2,2020-08-10_18h12.28.128,lexical_decision_task_MP,2020.1.3,Win32,60,z,1,,,,,,,,0.61554,1,,,,,,391,NW,UN,50,rouncy,THELDY,z,0.61554,,,,,,-0.059697659,-0.407304799,0,0,0,,0,284,284,450,1,
,,,,,,,,,,,,,,,,,,5ca8f085685e370018b704b2,2020-08-10_18h12.28.128,lexical_decision_task_MP,2020.1.3,Win32,60,z,1,,,,,,,,0.66609,1,,,,,,441,NW,"ID",33,rastoe,RASTOE,z,0.66609,,,,,,-0.059697659,-0.407304799,0,0,0,,0,285,285,260,1,
,,,,,,,,,,,,,,,,,,5ca8f085685e370018b704b2,2020-08-10_18h12.28.128,lexical_decision_task_MP,2020.1.3,Win32,60,m,1,,,,,,,,0.52097,1,,,,,,168,WORD,UN,50,genius,ANSWER,m,0.52097,,,,,,-0.059697659,-0.407304799,0,0,0,,0,286,286,227,1,
,,,,,,,,,,,,,,,,,,5ca8f085685e370018b704b2,2020-08-10_18h12.28.128,lexical_decision_task_MP,2020.1.3,Win32,60,m,1,,,,,,,,0.585525,1,,,,,,144,WORD,UN,50,parish,SPONGE,m,0.585525,,,,,,-0.059697659,-0.407304799,0,0,0,,0,287,287,203,1,
,,,,,,,,,,,,,,,,,,5ca8f085685e370018b704b2,2020-08-10_18h12.28.128,lexical_decision_task_MP,2020.1.3,Win32,60,z,1,,,,,,,,0.651865,1,,,,,,472,NW,"ID",33,cigney,CIGNEY,z,0.651865,,,,,,-0.059697659,-0.407304799,0,0,0,,0,288,288,291,1,
,,,,,,,,,,,,,,,,,,5ca8f085685e370018b704b2,2020-08-10_18h12.28.128,lexical_decision_task_MP,2020.1.3,Win32,60,m,1,,,,,,,,0.41695,1,,,,,,72,WORD,UN,33,source,BRIGHT,m,0.41695,,,,,,-0.059697659,-0.407304799,0,0,0,,0,289,289,131,1,
,,,,,,,,,,,,,,,,,,5ca8f085685e370018b704b2,2020-08-10_18h12.28.128,lexical_decision_task_MP,2020.1.3,Win32,60,z,1,,,,,,,,0.581045,1,,,,,,277,NW,"ID",50,petain,PETAIN,z,0.581045,,,,,,-0.059697659,-0.407304799,0,0,0,,0,290,290,336,1,
,,,,,,,,,,,,,,,,,,5ca8f085685e370018b704b2,2020-08-10_18h12.28.128,lexical_decision_task_MP,2020.1.3,Win32,60,m,1,,,,,,,,0.45715,1,,,,,,240,WORD,"ID",33,forest,FOREST,m,0.45715,,,,,,-0.059697659,-0.407304799,0,0,0,,0,291,291,59,1,
,,,,,,,,,,,,,,,,,,5ca8f085685e370018b704b2,2020-08-10_18h12.28.128,lexical_decision_task_MP,2020.1.3,Win32,60,m,1,,,,,,,,0.588615,1,,,,,,180,WORD,UN,50,thrive,SILENT,m,0.588615,,,,,,-0.059697659,-0.407304799,0,0,0,,0,292,292,239,1,
,,,,,,,,,,,,,,,,,,5ca8f085685e370018b704b2,2020-08-10_18h12.28.128,lexical_decision_task_MP,2020.1.3,Win32,60,m,1,,,,,,,,0.60688,1,,,,,,33,WORD,"ID",50,butler,BUTLER,m,0.60688,,,,,,-0.059697659,-0.407304799,0,0,0,,0,293,293,92,1,
,,,,,,,,,,,,,,,,,,5ca8f085685e370018b704b2,2020-08-10_18h12.28.128,lexical_decision_task_MP,2020.1.3,Win32,60,m,1,,,,,,,,0.54937,1,,,,,,211,WORD,"ID",33,infect,INFECT,m,0.54937,,,,,,-0.059697659,-0.407304799,0,0,0,,0,294,294,30,1,
,,,,,,,,,,,,,,,,,,5ca8f085685e370018b704b2,2020-08-10_18h12.28.128,lexical_decision_task_MP,2020.1.3,Win32,60,m,1,,,,,,,,0.49797,1,,,,,,173,WORD,UN,50,turkey,SHOWER,m,0.49797,,,,,,-0.059697659,-0.407304799,0,0,0,,0,295,295,232,1,
,,,,,,,,,,,,,,,,,,5ca8f085685e370018b704b2,2020-08-10_18h12.28.128,lexical_decision_task_MP,2020.1.3,Win32,60,z,1,,,,,,,,0.584425,1,,,,,,293,NW,"ID",50,swance,SWANCE,z,0.584425,,,,,,-0.059697659,-0.407304799,0,0,0,,0,296,296,352,1,
,,,,,,,,,,,,,,,,,,5ca8f085685e370018b704b2,2020-08-10_18h12.28.128,lexical_decision_task_MP,2020.1.3,Win32,60,z,1,,,,,,,,0.622185,1,,,,,,353,NW,UN,33,virlex,CLUREY,z,0.622185,,,,,,-0.059697659,-0.407304799,0,0,0,,0,297,297,412,1,
,,,,,,,,,,,,,,,,,,5ca8f085685e370018b704b2,2020-08-10_18h12.28.128,lexical_decision_task_MP,2020.1.3,Win32,60,z,1,,,,,,,,0.627415,1,,,,,,286,NW,"ID",50,reldon,RELDON,z,0.627415,,,,,,-0.059697659,-0.407304799,0,0,0,,0,298,298,345,1,
,,,,,,,,,,,,,,,,,,5ca8f085685e370018b704b2,2020-08-10_18h12.28.128,lexical_decision_task_MP,2020.1.3,Win32,60,z,1,,,,,,,,0.60263,1,,,,,,457,NW,"ID",33,wanigh,WANIGH,z,0.60263,,,,,,-0.059697659,-0.407304799,0,0,0,,0,299,299,276,1,
,,,,,,,,,,,,,,,,,,5ca8f085685e370018b704b2,2020-08-10_18h12.28.128,lexical_decision_task_MP,2020.1.3,Win32,60,z,1,,,,,,,,0.583645,1,,,,,,412,NW,UN,50,equats,JILUER,z,0.583645,,,,,,-0.059697659,-0.407304799,0,0,0,,0,300,300,471,1,
,,,,,,,,,,,,,,,,,,5ca8f085685e370018b704b2,2020-08-10_18h12.28.128,lexical_decision_task_MP,2020.1.3,Win32,60,z,1,,,,,,,,0.55031,1,,,,,,333,NW,UN,33,watmeg,CATRIE,z,0.55031,,,,,,-0.059697659,-0.407304799,0,0,0,,0,301,301,392,1,
,,,,,,,,,,,,,,,,,,5ca8f085685e370018b704b2,2020-08-10_18h12.28.128,lexical_decision_task_MP,2020.1.3,Win32,60,z,1,,,,,,,,0.88608,1,,,,,,320,NW,UN,33,miator,JOCKAL,z,0.88608,,,,,,-0.059697659,-0.407304799,0,0,0,,0,302,302,379,1,
,,,,,,,,,,,,,,,,,,5ca8f085685e370018b704b2,2020-08-10_18h12.28.128,lexical_decision_task_MP,2020.1.3,Win32,60,z,1,,,,,,,,0.8226,1,,,,,,437,NW,"ID",33,snapel,SNAPEL,z,0.8226,,,,,,-0.059697659,-0.407304799,0,0,0,,0,303,303,256,1,
,,,,,,,,,,,,,,,,,,5ca8f085685e370018b704b2,2020-08-10_18h12.28.128,lexical_decision_task_MP,2020.1.3,Win32,60,m,1,,,,,,,,0.40379,1,,,,,,58,WORD,"ID",50,foster,FOSTER,m,0.40379,,,,,,-0.059697659,-0.407304799,0,0,0,,0,304,304,117,1,
,,,,,,,,,,,,,,,,,,5ca8f085685e370018b704b2,2020-08-10_18h12.28.128,lexical_decision_task_MP,2020.1.3,Win32,60,z,1,,,,,,,,0.599885,1,,,,,,283,NW,"ID",50,veralf,VERALF,z,0.599885,,,,,,-0.059697659,-0.407304799,0,0,0,,0,305,305,342,1,
,,,,,,,,,,,,,,,,,,5ca8f085685e370018b704b2,2020-08-10_18h12.28.128,lexical_decision_task_MP,2020.1.3,Win32,60,z,1,,,,,,,,0.69328,1,,,,,,416,NW,UN,50,earoud,PATHEL,z,0.69328,,,,,,-0.059697659,-0.407304799,0,0,0,,0,306,306,475,1,
,,,,,,,,,,,,,,,,,,5ca8f085685e370018b704b2,2020-08-10_18h12.28.128,lexical_decision_task_MP,2020.1.3,Win32,60,z,1,,,,,,,,0.8176,1,,,,,,269,NW,"ID",50,orchet,ORCHET,z,0.8176,,,,,,-0.059697659,-0.407304799,0,0,0,,0,307,307,328,1,
,,,,,,,,,,,,,,,,,,5ca8f085685e370018b704b2,2020-08-10_18h12.28.128,lexical_decision_task_MP,2020.1.3,Win32,60,m,1,,,,,,,,0.733665,1,,,,,,2,WORD,"ID",50,bridge,BRIDGE,m,0.733665,,,,,,-0.059697659,-0.407304799,0,0,0,,0,308,308,61,1,
,,,,,,,,,,,,,,,,,,5ca8f085685e370018b704b2,2020-08-10_18h12.28.128,lexical_decision_task_MP,2020.1.3,Win32,60,m,1,,,,,,,,0.540405,1,,,,,,14,WORD,"ID",50,almost,ALMOST,m,0.540405,,,,,,-0.059697659,-0.407304799,0,0,0,,0,309,309,73,1,
,,,,,,,,,,,,,,,,,,5ca8f085685e370018b704b2,2020-08-10_18h12.28.128,lexical_decision_task_MP,2020.1.3,Win32,60,m,1,,,,,,,,0.54672,1,,,,,,112,WORD,UN,33,chorus,BREATH,m,0.54672,,,,,,-0.059697659,-0.407304799,0,0,0,,0,310,310,171,1,
,,,,,,,,,,,,,,,,,,5ca8f085685e370018b704b2,2020-08-10_18h12.28.128,lexical_decision_task_MP,2020.1.3,Win32,60,z,1,,,,,,,,0.517175,1,,,,,,449,NW,"ID",33,brunge,BRUNGE,z,0.517175,,,,,,-0.059697659,-0.407304799,0,0,0,,0,311,311,268,1,
,,,,,,,,,,,,,,,,,,5ca8f085685e370018b704b2,2020-08-10_18h12.28.128,lexical_decision_task_MP,2020.1.3,Win32,60,z,1,,,,,,,,0.702055,1,,,,,,272,NW,"ID",50,damilt,DAMILT,z,0.702055,,,,,,-0.059697659,-0.407304799,0,0,0,,0,312,312,331,1,
,,,,,,,,,,,,,,,,,,5ca8f085685e370018b704b2,2020-08-10_18h12.28.128,lexical_decision_task_MP,2020.1.3,Win32,60,m,1,,,,,,,,0.57173,1,,,,,,43,WORD,"ID",50,tongue,TONGUE,m,0.57173,,,,,,-0.059697659,-0.407304799,0,0,0,,0,313,313,102,1,
,,,,,,,,,,,,,,,,,,5ca8f085685e370018b704b2,2020-08-10_18h12.28.128,lexical_decision_task_MP,2020.1.3,Win32,60,z,1,,,,,,,,0.722845,1,,,,,,338,NW,UN,33,fachow,WREASH,z,0.722845,,,,,,-0.059697659,-0.407304799,0,0,0,,0,314,314,397,1,
,,,,,,,,,,,,,,,,,,5ca8f085685e370018b704b2,2020-08-10_18h12.28.128,lexical_decision_task_MP,2020.1.3,Win32,60,z,1,,,,,,,,0.88166,1,,,,,,261,NW,"ID",50,stunch,STUNCH,z,0.88166,,,,,,-0.059697659,-0.407304799,0,0,0,,0,315,315,320,1,
,,,,,,,,,,,,,,,,,,5ca8f085685e370018b704b2,2020-08-10_18h12.28.128,lexical_decision_task_MP,2020.1.3,Win32,60,m,1,,,,,,,,0.956495,1,,,,,,46,WORD,"ID",50,single,SINGLE,m,0.956495,,,,,,-0.059697659,-0.407304799,0,0,0,,0,316,316,105,1,
,,,,,,,,,,,,,,,,,,5ca8f085685e370018b704b2,2020-08-10_18h12.28.128,lexical_decision_task_MP,2020.1.3,Win32,60,m,1,,,,,,,,0.57445,1,,,,,,13,WORD,"ID",50,strive,STRIVE,m,0.57445,,,,,,-0.059697659,-0.407304799,0,0,0,,0,317,317,72,1,
,,,,,,,,,,,,,,,,,,5ca8f085685e370018b704b2,2020-08-10_18h12.28.128,lexical_decision_task_MP,2020.1.3,Win32,60,z,1,,,,,,,,0.547445,1,,,,,,326,NW,UN,33,plenac,IGUADE,z,0.547445,,,,,,-0.059697659,-0.407304799,0,0,0,,0,318,318,385,1,
,,,,,,,,,,,,,,,,,,5ca8f085685e370018b704b2,2020-08-10_18h12.28.128,lexical_decision_task_MP,2020.1.3,Win32,60,m,1,,,,,,,,0.505045,1,,,,,,66,WORD,UN,33,policy,GOSPEL,m,0.505045,,,,,,-0.060705277,-0.412342583,0,0,0,,0,319,319,125,1,
,,,,,,,,,,,,,,,,,,5ca8f085685e370018b704b2,2020-08-10_18h12.28.128,lexical_decision_task_MP,2020.1.3,Win32,60,z,1,,,,,,,,0.581945,1,,,,,,392,NW,UN,50,ganous,ROUNCY,z,0.581945,,,,,,-0.058690164,-0.415365253,0,0,0,,0,320,320,451,1,
,,,,,,,,,,,,,,,,,,5ca8f085685e370018b704b2,2020-08-10_18h12.28.128,lexical_decision_task_MP,2020.1.3,Win32,60,z,1,,,,,,,,0.65012,1,,,,,,430,NW,"ID",33,caroey,CAROEY,z,0.65012,,,,,,-0.05667505,-0.416372871,0,0,0,,0,321,321,249,1,
,,,,,,,,,,,,,,,,,,5ca8f085685e370018b704b2,2020-08-10_18h12.28.128,lexical_decision_task_MP,2020.1.3,Win32,60,z,1,,,,,,,,0.803355,1,,,,,,475,NW,"ID",33,pebric,PEBRIC,z,0.803355,,,,,,-0.05667505,-0.416372871,0,0,0,,0,322,322,294,1,
,,,,,,,,,,,,,,,,,,5ca8f085685e370018b704b2,2020-08-10_18h12.28.128,lexical_decision_task_MP,2020.1.3,Win32,60,z,1,,,,,,,,0.531985,1,,,,,,263,NW,"ID",50,dolica,DOLICA,z,0.531985,,,,,,-0.05667505,-0.416372871,0,0,0,,0,323,323,322,1,
,,,,,,,,,,,,,,,,,,5ca8f085685e370018b704b2,2020-08-10_18h12.28.128,lexical_decision_task_MP,2020.1.3,Win32,60,z,1,,,,,,,,0.485935,1,,,,,,401,NW,UN,50,syntic,MUSTIL,z,0.485935,,,,,,-0.05667505,-0.416372871,0,0,0,,0,324,324,460,1,
,,,,,,,,,,,,,,,,,,5ca8f085685e370018b704b2,2020-08-10_18h12.28.128,lexical_decision_task_MP,2020.1.3,Win32,60,z,1,,,,,,,,0.5947,1,,,,,,379,NW,UN,50,cavory,AUTING,z,0.5947,,,,,,-0.05667505,-0.416372871,0,0,0,,0,325,325,438,1,
,,,,,,,,,,,,,,,,,,5ca8f085685e370018b704b2,2020-08-10_18h12.28.128,lexical_decision_task_MP,2020.1.3,Win32,60,z,1,,,,,,,,0.551175,1,,,,,,445,NW,"ID",33,minkel,MINKEL,z,0.551175,,,,,,-0.05667505,-0.416372871,0,0,0,,0,326,326,264,1,
,,,,,,,,,,,,,,,,,,5ca8f085685e370018b704b2,2020-08-10_18h12.28.128,lexical_decision_task_MP,2020.1.3,Win32,60,z,1,,,,,,,,0.57968,1,,,,,,358,NW,UN,33,fonver,FLEACK,z,0.57968,,,,,,-0.05667505,-0.416372871,0,0,0,,0,327,327,417,1,
,,,,,,,,,,,,,,,,,,5ca8f085685e370018b704b2,2020-08-10_18h12.28.128,lexical_decision_task_MP,2020.1.3,Win32,60,z,1,,,,,,,,0.521865,1,,,,,,305,NW,UN,33,sounge,FORGLE,z,0.521865,,,,,,-0.05667505,-0.417380366,0,0,0,,0,328,328,364,1,
,,,,,,,,,,,,,,,,,,5ca8f085685e370018b704b2,2020-08-10_18h12.28.128,lexical_decision_task_MP,2020.1.3,Win32,60,m,1,,,,,,,,0.60836,1,,,,,,226,WORD,"ID",33,casino,CASINO,m,0.60836,,,,,,-0.05667505,-0.417380366,0,0,0,,0,329,329,45,1,
,,,,,,,,,,,,,,,,,,5ca8f085685e370018b704b2,2020-08-10_18h12.28.128,lexical_decision_task_MP,2020.1.3,Win32,60,z,0,,,,,,,,0.5012,0,,,,,,225,WORD,"ID",33,vulgar,VULGAR,m,0.5012,,,,,,-0.05365238,-0.415365253,0,0,0,,0,330,330,44,1,
,,,,,,,,,,,,,,,,,,5ca8f085685e370018b704b2,2020-08-10_18h12.28.128,lexical_decision_task_MP,2020.1.3,Win32,60,z,1,,,,,,,,0.601395,1,,,,,,470,NW,"ID",33,crudio,CRUDIO,z,0.601395,,,,,,-0.05365238,-0.415365253,0,0,0,,0,331,331,289,1,
,,,,,,,,,,,,,,,,,,5ca8f085685e370018b704b2,2020-08-10_18h12.28.128,lexical_decision_task_MP,2020.1.3,Win32,60,m,1,,,,,,,,0.60071,1,,,,,,175,WORD,UN,50,strife,FABRIC,m,0.60071,,,,,,-0.05365238,-0.415365253,0,0,0,,0,332,332,234,1,
,,,,,,,,,,,,,,,,,,5ca8f085685e370018b704b2,2020-08-10_18h12.28.128,lexical_decision_task_MP,2020.1.3,Win32,60,m,1,,,,,,,,0.45208,1,,,,,,24,WORD,"ID",50,praise,PRAISE,m,0.45208,,,,,,-0.05365238,-0.415365253,0,0,0,,0,333,333,83,1,
,,,,,,,,,,,,,,,,,,5ca8f085685e370018b704b2,2020-08-10_18h12.28.128,lexical_decision_task_MP,2020.1.3,Win32,60,z,1,,,,,,,,0.587605,1,,,,,,349,NW,UN,33,nagurs,ASYLEN,z,0.587605,,,,,,-0.05365238,-0.415365253,0,0,0,,0,334,334,408,1,
,,,,,,,,,,,,,,,,,,5ca8f085685e370018b704b2,2020-08-10_18h12.28.128,lexical_decision_task_MP,2020.1.3,Win32,60,z,1,,,,,,,,0.53572,1,,,,,,442,NW,"ID",33,aboune,ABOUNE,z,0.53572,,,,,,-0.05365238,-0.415365253,0,0,0,,0,335,335,261,1,
,,,,,,,,,,,,,,,,,,5ca8f085685e370018b704b2,2020-08-10_18h12.28.128,lexical_decision_task_MP,2020.1.3,Win32,60,z,1,,,,,,,,0.55175,1,,,,,,324,NW,UN,33,thruse,STEIKH,z,0.55175,,,,,,-0.05365238,-0.415365253,0,0,0,,0,336,336,383,1,
,,,,,,,,,,,,,,,,,,5ca8f085685e370018b704b2,2020-08-10_18h12.28.128,lexical_decision_task_MP,2020.1.3,Win32,60,m,1,,,,,,,,0.6672,1,,,,,,36,WORD,"ID",50,vanish,VANISH,m,0.6672,,,,,,-0.05365238,-0.415365253,0,0,0,,0,337,337,95,1,
,,,,,,,,,,,,,,,,,,5ca8f085685e370018b704b2,2020-08-10_18h12.28.128,lexical_decision_task_MP,2020.1.3,Win32,60,m,1,,,,,,,,0.600805,1,,,,,,10,WORD,"ID",50,ethnic,ETHNIC,m,0.600805,,,,,,-0.05365238,-0.415365253,0,0,0,,0,338,338,69,1,
,,,,,,,,,,,,,,,,,,5ca8f085685e370018b704b2,2020-08-10_18h12.28.128,lexical_decision_task_MP,2020.1.3,Win32,60,z,1,,,,,,,,0.663865,1,,,,,,296,NW,"ID",50,beinch,BEINCH,z,0.663865,,,,,,-0.05365238,-0.415365253,0,0,0,,0,339,339,355,1,
,,,,,,,,,,,,,,,,,,5ca8f085685e370018b704b2,2020-08-10_18h12.28.128,lexical_decision_task_MP,2020.1.3,Win32,60,z,1,,,,,,,,0.706285,1,,,,,,329,NW,UN,33,kensom,YARIKE,z,0.706285,,,,,,-0.05365238,-0.415365253,0,0,0,,0,340,340,388,1,
,,,,,,,,,,,,,,,,,,5ca8f085685e370018b704b2,2020-08-10_18h12.28.128,lexical_decision_task_MP,2020.1.3,Win32,60,z,1,,,,,,,,0.554255,1,,,,,,255,NW,"ID",50,apight,APIGHT,z,0.554255,,,,,,-0.05365238,-0.415365253,0,0,0,,0,341,341,314,1,
,,,,,,,,,,,,,,,,,,5ca8f085685e370018b704b2,2020-08-10_18h12.28.128,lexical_decision_task_MP,2020.1.3,Win32,60,m,1,,,,,,,,0.51949,1,,,,,,3,WORD,"ID",50,knight,KNIGHT,m,0.51949,,,,,,-0.05365238,-0.415365253,0,0,0,,0,342,342,62,1,
,,,,,,,,,,,,,,,,,,5ca8f085685e370018b704b2,2020-08-10_18h12.28.128,lexical_decision_task_MP,2020.1.3,Win32,60,m,1,,,,,,,,0.56814,1,,,,,,91,WORD,UN,33,hunger,EXPAND,m,0.56814,,,,,,-0.05365238,-0.415365253,0,0,0,,0,343,343,150,1,
,,,,,,,,,,,,,,,,,,5ca8f085685e370018b704b2,2020-08-10_18h12.28.128,lexical_decision_task_MP,2020.1.3,Win32,60,z,0,,,,,,,,0.78242,0,,,,,,26,WORD,"ID",50,sprint,SPRINT,m,0.78242,,,,,,-0.05365238,-0.415365253,0,0,0,,0,344,344,85,1,
,,,,,,,,,,,,,,,,,,5ca8f085685e370018b704b2,2020-08-10_18h12.28.128,lexical_decision_task_MP,2020.1.3,Win32,60,z,1,,,,,,,,0.62209,1,,,,,,314,NW,UN,33,laston,SPRINE,z,0.62209,,,,,,-0.05365238,-0.415365253,0,0,0,,0,345,345,373,1,
,,,,,,,,,,,,,,,,,,5ca8f085685e370018b704b2,2020-08-10_18h12.28.128,lexical_decision_task_MP,2020.1.3,Win32,60,m,1,,,,,,,,0.53153,1,,,,,,93,WORD,UN,33,travel,PUBLIC,m,0.53153,,,,,,-0.05365238,-0.415365253,0,0,0,,0,346,346,152,1,
,,,,,,,,,,,,,,,,,,5ca8f085685e370018b704b2,2020-08-10_18h12.28.128,lexical_decision_task_MP,2020.1.3,Win32,60,z,1,,,,,,,,0.57459,1,,,,,,315,NW,UN,33,scregm,LASTON,z,0.57459,,,,,,-0.0415617,-0.379093212,0,0,0,,0,347,347,374,1,
,,,,,,,,,,,,,,,,,,5ca8f085685e370018b704b2,2020-08-10_18h12.28.128,lexical_decision_task_MP,2020.1.3,Win32,60,z,1,,,,,,,,0.53108,1,,,,,,273,NW,"ID",50,sortel,SORTEL,z,0.53108,,,,,,-0.0415617,-0.379093212,0,0,0,,0,348,348,332,1,
,,,,,,,,,,,,,,,,,,5ca8f085685e370018b704b2,2020-08-10_18h12.28.128,lexical_decision_task_MP,2020.1.3,Win32,60,m,1,,,,,,,,0.552975,1,,,,,,108,WORD,UN,33,wonder,RECKON,m,0.552975,,,,,,-0.0415617,-0.379093212,0,0,0,,0,349,349,167,1,
,,,,,,,,,,,,,,,,,,5ca8f085685e370018b704b2,2020-08-10_18h12.28.128,lexical_decision_task_MP,2020.1.3,Win32,60,z,1,,,,,,,,0.580095,1,,,,,,373,NW,UN,50,sliant,BIGENT,z,0.580095,,,,,,-0.0415617,-0.379093212,0,0,0,,0,350,350,432,1,
,,,,,,,,,,,,,,,,,,5ca8f085685e370018b704b2,2020-08-10_18h12.28.128,lexical_decision_task_MP,2020.1.3,Win32,60,z,1,,,,,,,,0.689205,1,,,,,,244,NW,"ID",50,eatric,EATRIC,z,0.689205,,,,,,-0.0415617,-0.379093212,0,0,0,,0,351,351,303,1,
,,,,,,,,,,,,,,,,,,5ca8f085685e370018b704b2,2020-08-10_18h12.28.128,lexical_decision_task_MP,2020.1.3,Win32,60,m,1,,,,,,,,0.55386,1,,,,,,113,WORD,UN,33,placid,CHORUS,m,0.55386,,,,,,-0.0415617,-0.379093212,0,0,0,,0,352,352,172,1,
,,,,,,,,,,,,,,,,,,5ca8f085685e370018b704b2,2020-08-10_18h12.28.128,lexical_decision_task_MP,2020.1.3,Win32,60,z,1,,,,,,,,0.556715,1,,,,,,459,NW,"ID",33,bafent,BAFENT,z,0.556715,,,,,,-0.0415617,-0.379093212,0,0,0,,0,353,353,278,1,
,,,,,,,,,,,,,,,,,,5ca8f085685e370018b704b2,2020-08-10_18h12.28.128,lexical_decision_task_MP,2020.1.3,Win32,60,z,1,,,,,,,,0.547345,1,,,,,,299,NW,"ID",50,sturch,STURCH,z,0.547345,,,,,,-0.0415617,-0.379093212,0,0,0,,0,354,354,358,1,
,,,,,,,,,,,,,,,,,,5ca8f085685e370018b704b2,2020-08-10_18h12.28.128,lexical_decision_task_MP,2020.1.3,Win32,60,z,1,,,,,,,,0.62209,1,,,,,,304,NW,UN,33,forgle,CLUDIE,z,0.62209,,,,,,-0.0415617,-0.379093212,0,0,0,,0,355,355,363,1,
,,,,,,,,,,,,,,,,,,5ca8f085685e370018b704b2,2020-08-10_18h12.28.128,lexical_decision_task_MP,2020.1.3,Win32,60,z,1,,,,,,,,0.615765,1,,,,,,343,NW,UN,33,scrily,AIMOSY,z,0.615765,,,,,,-0.0415617,-0.379093212,0,0,0,,0,356,356,402,1,
,,,,,,,,,,,,,,,,,,5ca8f085685e370018b704b2,2020-08-10_18h12.28.128,lexical_decision_task_MP,2020.1.3,Win32,60,m,1,,,,,,,,0.759395,1,,,,,,39,WORD,"ID",50,insect,INSECT,m,0.759395,,,,,,-0.0415617,-0.379093212,0,0,0,,0,357,357,98,1,
,,,,,,,,,,,,,,,,,,5ca8f085685e370018b704b2,2020-08-10_18h12.28.128,lexical_decision_task_MP,2020.1.3,Win32,60,z,1,,,,,,,,0.529205,1,,,,,,464,NW,"ID",33,chaite,CHAITE,z,0.529205,,,,,,-0.0415617,-0.379093212,0,0,0,,0,358,358,283,1,
,,,,,,,,,,,,,,,,,,5ca8f085685e370018b704b2,2020-08-10_18h12.28.128,lexical_decision_task_MP,2020.1.3,Win32,60,m,1,,,,,,,,0.58134,1,,,,,,83,WORD,UN,33,mortal,RESULT,m,0.58134,,,,,,-0.03853903,-0.383123439,0,0,0,,0,359,359,142,1,
,,,,,,,,,,,,,,,,,,5ca8f085685e370018b704b2,2020-08-10_18h12.28.128,lexical_decision_task_MP,2020.1.3,Win32,60,z,1,,,,,,,,0.50041,1,,,,,,477,NW,"ID",33,photie,PHOTIE,z,0.50041,,,,,,-0.036523916,-0.382115882,0,0,0,,0,360,360,296,1,
,,,,,,,,,,,,,,,,,,5ca8f085685e370018b704b2,2020-08-10_18h12.28.128,lexical_decision_task_MP,2020.1.3,Win32,60,z,1,,,,,,,,0.551805,1,,,,,,390,NW,UN,50,theldy,HATRUS,z,0.551805,,,,,,-0.037531473,-0.381108387,0,0,0,,0,361,361,449,1,
,,,,,,,,,,,,,,,,,,5ca8f085685e370018b704b2,2020-08-10_18h12.28.128,lexical_decision_task_MP,2020.1.3,Win32,60,z,1,,,,,,,,0.658395,1,,,,,,455,NW,"ID",33,tondle,TONDLE,z,0.658395,,,,,,-0.02342568,-0.381108387,1,0,0,,0,362,362,274,1,break_done_button
,,,,,,,,,,,,,,,,,,5ca8f085685e370018b704b2,2020-08-10_18h12.28.128,lexical_decision_task_MP,2020.1.3,Win32,60,z,1,,,,,,,,0.89645,1,,,,,,316,NW,UN,33,worbal,SCREGM,z,0.89645,,,,,,0.11360203,-0.312594471,0,0,0,,0,363,363,375,1,
,,,,,,,,,,,,,,,,,,5ca8f085685e370018b704b2,2020-08-10_18h12.28.128,lexical_decision_task_MP,2020.1.3,Win32,60,,0,,,,,,,,0.89645,-1,,,,,,239,WORD,"ID",33,lumber,LUMBER,m,,,,,,,0.11360203,-0.312594471,0,0,0,,0,364,364,58,1,
,,,,,,,,,,,,,,,,,,5ca8f085685e370018b704b2,2020-08-10_18h12.28.128,lexical_decision_task_MP,2020.1.3,Win32,60,z,1,,,,,,,,0.6829,1,,,,,,335,NW,UN,33,ghodus,DESION,z,0.6829,,,,,,0.11360203,-0.312594471,0,0,0,,0,365,365,394,1,
,,,,,,,,,,,,,,,,,,5ca8f085685e370018b704b2,2020-08-10_18h12.28.128,lexical_decision_task_MP,2020.1.3,Win32,60,z,1,,,,,,,,0.51364,1,,,,,,310,NW,UN,33,sproly,DANIET,z,0.51364,,,,,,0.11360203,-0.312594471,0,0,0,,0,366,366,369,1,
,,,,,,,,,,,,,,,,,,5ca8f085685e370018b704b2,2020-08-10_18h12.28.128,lexical_decision_task_MP,2020.1.3,Win32,60,z,1,,,,,,,,0.485175,1,,,,,,480,NW,"ID",33,robuly,ROBULY,z,0.485175,,,,,,0.11360203,-0.313602027,0,0,0,,0,367,367,299,1,
,,,,,,,,,,,,,,,,,,5ca8f085685e370018b704b2,2020-08-10_18h12.28.128,lexical_decision_task_MP,2020.1.3,Win32,60,m,1,,,,,,,,0.61616,1,,,,,,61,WORD,UN,33,region,PONDER,m,0.61616,,,,,,0.11360203,-0.313602027,0,0,0,,0,368,368,120,1,
,,,,,,,,,,,,,,,,,,5ca8f085685e370018b704b2,2020-08-10_18h12.28.128,lexical_decision_task_MP,2020.1.3,Win32,60,z,1,,,,,,,,0.433525,1,,,,,,297,NW,"ID",50,fertic,FERTIC,z,0.433525,,,,,,0.114609587,-0.316624697,0,0,0,,0,369,369,356,1,
,,,,,,,,,,,,,,,,,,5ca8f085685e370018b704b2,2020-08-10_18h12.28.128,lexical_decision_task_MP,2020.1.3,Win32,60,m,1,,,,,,,,0.624785,1,,,,,,220,WORD,"ID",33,voyage,VOYAGE,m,0.624785,,,,,,0.114609587,-0.317632254,0,0,0,,0,370,370,39,1,
,,,,,,,,,,,,,,,,,,5ca8f085685e370018b704b2,2020-08-10_18h12.28.128,lexical_decision_task_MP,2020.1.3,Win32,60,m,1,,,,,,,,0.5188,1,,,,,,106,WORD,UN,33,slogan,RANSOM,m,0.5188,,,,,,0.114609587,-0.317632254,0,0,0,,0,371,371,165,1,
,,,,,,,,,,,,,,,,,,5ca8f085685e370018b704b2,2020-08-10_18h12.28.128,lexical_decision_task_MP,2020.1.3,Win32,60,z,1,,,,,,,,0.84872,1,,,,,,402,NW,UN,50,bruats,SYNTIC,z,0.84872,,,,,,0.121662545,-0.324685151,0,0,0,,0,372,372,461,1,
,,,,,,,,,,,,,,,,,,5ca8f085685e370018b704b2,2020-08-10_18h12.28.128,lexical_decision_task_MP,2020.1.3,Win32,60,m,1,,,,,,,,0.90345,1,,,,,,216,WORD,"ID",33,behalf,BEHALF,m,0.90345,,,,,,0.121662545,-0.324685151,0,0,0,,0,373,373,35,1,
,,,,,,,,,,,,,,,,,,5ca8f085685e370018b704b2,2020-08-10_18h12.28.128,lexical_decision_task_MP,2020.1.3,Win32,60,z,1,,,,,,,,0.581575,1,,,,,,433,NW,"ID",33,drance,DRANCE,z,0.581575,,,,,,0.121662545,-0.324685151,0,0,0,,0,374,374,252,1,
,,,,,,,,,,,,,,,,,,5ca8f085685e370018b704b2,2020-08-10_18h12.28.128,lexical_decision_task_MP,2020.1.3,Win32,60,m,1,,,,,,,,0.59736,1,,,,,,115,WORD,UN,33,tumble,GUITAR,m,0.59736,,,,,,0.121662545,-0.324685151,0,0,0,,0,375,375,174,1,
,,,,,,,,,,,,,,,,,,5ca8f085685e370018b704b2,2020-08-10_18h12.28.128,lexical_decision_task_MP,2020.1.3,Win32,60,z,0,,,,,,,,0.569865,0,,,,,,142,WORD,UN,50,reason,SPRUCE,m,0.569865,,,,,,0.122670041,-0.325692769,0,0,0,,0,376,376,201,1,
,,,,,,,,,,,,,,,,,,5ca8f085685e370018b704b2,2020-08-10_18h12.28.128,lexical_decision_task_MP,2020.1.3,Win32,60,z,1,,,,,,,,0.582725,1,,,,,,427,NW,"ID",33,schind,SCHIND,z,0.582725,,,,,,0.123677597,-0.326700264,0,0,0,,0,377,377,246,1,
,,,,,,,,,,,,,,,,,,5ca8f085685e370018b704b2,2020-08-10_18h12.28.128,lexical_decision_task_MP,2020.1.3,Win32,60,m,1,,,,,,,,0.80123,1,,,,,,124,WORD,UN,50,nickel,BLOUSE,m,0.80123,,,,,,0.123677597,-0.330730552,0,0,0,,0,378,378,183,1,
,,,,,,,,,,,,,,,,,,5ca8f085685e370018b704b2,2020-08-10_18h12.28.128,lexical_decision_task_MP,2020.1.3,Win32,60,m,1,,,,,,,,0.751215,1,,,,,,131,WORD,UN,50,strong,QUENCH,m,0.751215,,,,,,0.124685154,-0.327707821,0,0,0,,0,379,379,190,1,
,,,,,,,,,,,,,,,,,,5ca8f085685e370018b704b2,2020-08-10_18h12.28.128,lexical_decision_task_MP,2020.1.3,Win32,60,z,1,,,,,,,,0.91675,1,,,,,,266,NW,"ID",50,varmit,VARMIT,z,0.91675,,,,,,0.124685154,-0.328715378,0,0,0,,0,380,380,325,1,
,,,,,,,,,,,,,,,,,,5ca8f085685e370018b704b2,2020-08-10_18h12.28.128,lexical_decision_task_MP,2020.1.3,Win32,60,z,1,,,,,,,,0.85291,1,,,,,,270,NW,"ID",50,wrimsy,WRIMSY,z,0.85291,,,,,,0.124685154,-0.328715378,0,0,0,,0,381,381,329,1,
,,,,,,,,,,,,,,,,,,5ca8f085685e370018b704b2,2020-08-10_18h12.28.128,lexical_decision_task_MP,2020.1.3,Win32,60,z,1,,,,,,,,0.992095,1,,,,,,290,NW,"ID",50,splino,SPLINO,z,0.992095,,,,,,0.124685154,-0.329722934,0,0,0,,0,382,382,349,1,
,,,,,,,,,,,,,,,,,,5ca8f085685e370018b704b2,2020-08-10_18h12.28.128,lexical_decision_task_MP,2020.1.3,Win32,60,z,1,,,,,,,,0.75273,1,,,,,,347,NW,UN,33,dumple,KERIFT,z,0.75273,,,,,,0.125692711,-0.330730552,0,0,0,,0,383,383,406,1,
,,,,,,,,,,,,,,,,,,5ca8f085685e370018b704b2,2020-08-10_18h12.28.128,lexical_decision_task_MP,2020.1.3,Win32,60,z,1,,,,,,,,0.639425,1,,,,,,372,NW,UN,50,bigent,RAMILY,z,0.639425,,,,,,0.125692711,-0.329722934,0,0,0,,0,384,384,431,1,
,,,,,,,,,,,,,,,,,,5ca8f085685e370018b704b2,2020-08-10_18h12.28.128,lexical_decision_task_MP,2020.1.3,Win32,60,z,1,,,,,,,,0.79922,1,,,,,,357,NW,UN,33,fleack,DERAIN,z,0.79922,,,,,,0.125692711,-0.331738048,0,0,0,,0,385,385,416,1,
,,,,,,,,,,,,,,,,,,5ca8f085685e370018b704b2,2020-08-10_18h12.28.128,lexical_decision_task_MP,2020.1.3,Win32,60,m,1,,,,,,,,0.52313,1,,,,,,158,WORD,UN,50,detail,ISLAND,m,0.52313,,,,,,0.125692711,-0.331738048,0,0,0,,0,386,386,217,1,
,,,,,,,,,,,,,,,,,,5ca8f085685e370018b704b2,2020-08-10_18h12.28.128,lexical_decision_task_MP,2020.1.3,Win32,60,m,1,,,,,,,,0.565535,1,,,,,,41,WORD,"ID",50,spring,SPRING,m,0.565535,,,,,,0.125692711,-0.333753161,0,0,0,,0,387,387,100,1,
,,,,,,,,,,,,,,,,,,5ca8f085685e370018b704b2,2020-08-10_18h12.28.128,lexical_decision_task_MP,2020.1.3,Win32,60,m,1,,,,,,,,0.486815,1,,,,,,60,WORD,"ID",50,pencil,PENCIL,m,0.486815,,,,,,0.125692711,-0.328715378,0,0,0,,0,388,388,119,1,
,,,,,,,,,,,,,,,,,,5ca8f085685e370018b704b2,2020-08-10_18h12.28.128,lexical_decision_task_MP,2020.1.3,Win32,60,m,1,,,,,,,,0.55536,1,,,,,,161,WORD,UN,50,candle,PASTOR,m,0.55536,,,,,,0.125692711,-0.328715378,0,0,0,,0,389,389,220,1,
,,,,,,,,,,,,,,,,,,5ca8f085685e370018b704b2,2020-08-10_18h12.28.128,lexical_decision_task_MP,2020.1.3,Win32,60,m,1,,,,,,,,0.487115,1,,,,,,207,WORD,"ID",33,wreath,WREATH,m,0.487115,,,,,,0.125692711,-0.328715378,0,0,0,,0,390,390,26,1,
,,,,,,,,,,,,,,,,,,5ca8f085685e370018b704b2,2020-08-10_18h12.28.128,lexical_decision_task_MP,2020.1.3,Win32,60,z,1,,,,,,,,0.700535,1,,,,,,279,NW,"ID",50,celond,CELOND,z,0.700535,,,,,,0.125692711,-0.328715378,0,0,0,,0,391,391,338,1,
,,,,,,,,,,,,,,,,,,5ca8f085685e370018b704b2,2020-08-10_18h12.28.128,lexical_decision_task_MP,2020.1.3,Win32,60,z,1,,,,,,,,0.68157,1,,,,,,458,NW,"ID",33,barcet,BARCET,z,0.68157,,,,,,0.125692711,-0.328715378,0,0,0,,0,392,392,277,1,
,,,,,,,,,,,,,,,,,,5ca8f085685e370018b704b2,2020-08-10_18h12.28.128,lexical_decision_task_MP,2020.1.3,Win32,60,m,1,,,,,,,,0.562125,1,,,,,,56,WORD,"ID",50,ambush,AMBUSH,m,0.562125,,,,,,0.125692711,-0.328715378,0,0,0,,0,393,393,115,1,
,,,,,,,,,,,,,,,,,,5ca8f085685e370018b704b2,2020-08-10_18h12.28.128,lexical_decision_task_MP,2020.1.3,Win32,60,z,1,,,,,,,,0.521185,1,,,,,,247,NW,"ID",50,blarge,BLARGE,z,0.521185,,,,,,0.125692711,-0.328715378,0,0,0,,0,394,394,306,1,
,,,,,,,,,,,,,,,,,,5ca8f085685e370018b704b2,2020-08-10_18h12.28.128,lexical_decision_task_MP,2020.1.3,Win32,60,z,1,,,,,,,,0.56629,1,,,,,,478,NW,"ID",33,acrise,ACRISE,z,0.56629,,,,,,0.125692711,-0.328715378,0,0,0,,0,395,395,297,1,
,,,,,,,,,,,,,,,,,,5ca8f085685e370018b704b2,2020-08-10_18h12.28.128,lexical_decision_task_MP,2020.1.3,Win32,60,z,1,,,,,,,,0.53165,1,,,,,,308,NW,UN,33,amiloy,PSETCH,z,0.53165,,,,,,0.126700267,-0.329722934,0,0,0,,0,396,396,367,1,
,,,,,,,,,,,,,,,,,,5ca8f085685e370018b704b2,2020-08-10_18h12.28.128,lexical_decision_task_MP,2020.1.3,Win32,60,m,1,,,,,,,,0.59121,1,,,,,,120,WORD,UN,33,ponder,STRAIN,m,0.59121,,,,,,0.126700267,-0.329722934,0,0,0,,0,397,397,179,1,
,,,,,,,,,,,,,,,,,,5ca8f085685e370018b704b2,2020-08-10_18h12.28.128,lexical_decision_task_MP,2020.1.3,Win32,60,z,1,,,,,,,,0.51751,1,,,,,,336,NW,UN,33,rejols,GHODUS,z,0.51751,,,,,,0.126700267,-0.329722934,0,0,0,,0,398,398,395,1,
,,,,,,,,,,,,,,,,,,5ca8f085685e370018b704b2,2020-08-10_18h12.28.128,lexical_decision_task_MP,2020.1.3,Win32,60,m,1,,,,,,,,0.66228,1,,,,,,160,WORD,UN,50,pastor,VIOLET,m,0.66228,,,,,,0.126700267,-0.329722934,0,0,0,,0,399,399,219,1,
,,,,,,,,,,,,,,,,,,5ca8f085685e370018b704b2,2020-08-10_18h12.28.128,lexical_decision_task_MP,2020.1.3,Win32,60,z,1,,,,,,,,0.57159,1,,,,,,267,NW,"ID",50,pasink,PASINK,z,0.57159,,,,,,0.126700267,-0.329722934,0,0,0,,0,400,400,326,1,
,,,,,,,,,,,,,,,,,,5ca8f085685e370018b704b2,2020-08-10_18h12.28.128,lexical_decision_task_MP,2020.1.3,Win32,60,m,1,,,,,,,,0.484195,1,,,,,,20,WORD,"ID",50,breast,BREAST,m,0.484195,,,,,,0.126700267,-0.329722934,0,0,0,,0,401,401,79,1,
,,,,,,,,,,,,,,,,,,5ca8f085685e370018b704b2,2020-08-10_18h12.28.128,lexical_decision_task_MP,2020.1.3,Win32,60,m,1,,,,,,,,0.615755,1,,,,,,153,WORD,UN,50,author,BEHOLD,m,0.615755,,,,,,0.126700267,-0.329722934,0,0,0,,0,402,402,212,1,
,,,,,,,,,,,,,,,,,,5ca8f085685e370018b704b2,2020-08-10_18h12.28.128,lexical_decision_task_MP,2020.1.3,Win32,60,z,1,,,,,,,,0.48427,1,,,,,,287,NW,"ID",50,nymbel,NYMBEL,z,0.48427,,,,,,0.126700267,-0.329722934,0,0,0,,0,403,403,346,1,
