counterbalancing_condition,instr_done_keyboard.keys,instr_done_touch.x,instr_done_touch.y,instr_done_touch.leftButton,instr_done_touch.midButton,instr_done_touch.rightButton,instr_done_touch.clicked_name,instruction_pages.thisRepN,instruction_pages.thisTrialN,instruction_pages.thisN,instruction_pages.thisIndex,instruction_pages.ran,pageN,phase,instruct_text,has_image,instruct_image,participant,date,expName,psychopyVersion,OS,frameRate,response.keys,response.corr,touch_resp.x,touch_resp.y,touch_resp.leftButton,touch_resp.midButton,touch_resp.rightButton,touch_resp.time,touch_resp.clicked_name,rt,corr,practice_trials.thisRepN,practice_trials.thisTrialN,practice_trials.thisN,practice_trials.thisIndex,practice_trials.ran,TrialID,StimulusType,Condition,PrimeDuration,Prime,Target,corrAns,end_of_practice_trials_pages.thisRepN,end_of_practice_trials_pages.thisTrialN,end_of_practice_trials_pages.thisN,end_of_practice_trials_pages.thisIndex,end_of_practice_trials_pages.ran,break_done_touch.x,break_done_touch.y,break_done_touch.leftButton,break_done_touch.midButton,break_done_touch.rightButton,break_done_keyboard.keys,trials.thisRepN,trials.thisTrialN,trials.thisN,trials.thisIndex,trials.ran,break_done_touch.clicked_name
0,,0.094142259,-0.374476987,1,0,0,instr_done_button,0,0,0,0,1,1,instructions,"INSTRUCTIONS
At the start of each trial, look at the hash marks (######) in the center of the screen. After a moment, a string of letters will appear. Your task is to indicate if the letter string forms a word or not (i.e., if it is a nonword). For example, AUTHOR is a word while AUTHON is a nonword.

Press the space bar or touch the button below to continue.",0,,5cc96a6b5a7979000176e0cc,2020-08-08_10h25.34.865,lexical_decision_task_MP,2020.1.3,iPhone,60,,,,,,,,,,,,,,,,,,,,,,,,,,,,,,,,,,,,,,,,
,,0.119246862,-0.384937238,1,0,0,instr_done_button,0,1,1,1,1,2,instructions,"If your device has a keyboard, press the 'Z' key for nonwords and the 'M' key for words.





Press the space bar or touch the button below to continue.",1,keyboard-example.gif,5cc96a6b5a7979000176e0cc,2020-08-08_10h25.34.865,lexical_decision_task_MP,2020.1.3,iPhone,60,,,,,,,,,,,,,,,,,,,,,,,,,,,,,,,,,,,,,,,,
,,0.094142259,-0.389121339,1,0,0,instr_done_button,0,2,2,2,1,3,instructions,"If you are using a touchscreen only device, use the buttons on the screen. Do not use the mouse.





Press the space bar or touch the button below to continue.",1,touchscreen-example.gif,5cc96a6b5a7979000176e0cc,2020-08-08_10h25.34.865,lexical_decision_task_MP,2020.1.3,iPhone,60,,,,,,,,,,,,,,,,,,,,,,,,,,,,,,,,,,,,,,,,
,,0.09832636,-0.361924686,1,0,0,instr_done_button,0,3,3,3,1,4,instructions,"It is very important that you respond as quickly and accurately as possible, as each letter string will only be on the screen for two seconds. If you do not respond within this time, the message 'Too slow!' will be displayed and the experiment will progress to the next letter string. The first 20 trials will be practice trials and you will receive feedback on your answers. 

Press the space bar or touch the button below to start the practice trials.",0,,5cc96a6b5a7979000176e0cc,2020-08-08_10h25.34.865,lexical_decision_task_MP,2020.1.3,iPhone,60,,,,,,,,,,,,,,,,,,,,,,,,,,,,,,,,,,,,,,,,
,,,,,,,,,,,,,,,,,,5cc96a6b5a7979000176e0cc,2020-08-08_10h25.34.865,lexical_decision_task_MP,2020.1.3,iPhone,60,,0,0.391213389,-0.240585774,1,0,0,1.549,button_right,1.549,1,0,0,0,6,1,1007,WORD,UN,50,tropic,ZOMBIE,m,,,,,,,,,,,,,,,,,
,,,,,,,,,,,,,,,,,,5cc96a6b5a7979000176e0cc,2020-08-08_10h25.34.865,lexical_decision_task_MP,2020.1.3,iPhone,60,,0,0.424686192,-0.280334728,1,0,0,0.971,button_right,0.971,1,0,1,1,7,1,1008,WORD,UN,50,hurdle,VOLUME,m,,,,,,,,,,,,,,,,,
,,,,,,,,,,,,,,,,,,5cc96a6b5a7979000176e0cc,2020-08-08_10h25.34.865,lexical_decision_task_MP,2020.1.3,iPhone,60,,0,-0.437238494,-0.248953975,1,0,0,1.353,button_left,1.353,1,0,2,2,10,1,1011,NW,"ID",50,inlade,INLADE,z,,,,,,,,,,,,,,,,,
,,,,,,,,,,,,,,,,,,5cc96a6b5a7979000176e0cc,2020-08-08_10h25.34.865,lexical_decision_task_MP,2020.1.3,iPhone,60,,0,0.380753138,-0.315899582,1,0,0,0.709,button_right,0.709,1,0,3,3,1,1,1002,WORD,"ID",33,adjust,ADJUST,m,,,,,,,,,,,,,,,,,
,,,,,,,,,,,,,,,,,,5cc96a6b5a7979000176e0cc,2020-08-08_10h25.34.865,lexical_decision_task_MP,2020.1.3,iPhone,60,,0,-0.424686192,-0.305439331,1,0,0,0.852,button_left,0.852,1,0,4,4,8,1,1009,NW,"ID",33,aslert,ASLERT,z,,,,,,,,,,,,,,,,,
,,,,,,,,,,,,,,,,,,5cc96a6b5a7979000176e0cc,2020-08-08_10h25.34.865,lexical_decision_task_MP,2020.1.3,iPhone,60,,0,-0.416317992,-0.349372385,1,0,0,0.686,button_left,0.686,1,0,5,5,13,1,1014,NW,UN,33,winfer,ROUPET,z,,,,,,,,,,,,,,,,,
,,,,,,,,,,,,,,,,,,5cc96a6b5a7979000176e0cc,2020-08-08_10h25.34.865,lexical_decision_task_MP,2020.1.3,iPhone,60,,0,0.368200837,-0.246861925,1,0,0,0.582,button_right,0.582,1,0,6,6,4,1,1005,WORD,UN,33,abound,SQUEAK,m,,,,,,,,,,,,,,,,,
,,,,,,,,,,,,,,,,,,5cc96a6b5a7979000176e0cc,2020-08-08_10h25.34.865,lexical_decision_task_MP,2020.1.3,iPhone,60,,0,-0.424686192,-0.292887029,1,0,0,0.731,button_left,0.731,1,0,7,7,9,1,1010,NW,"ID",33,fariny,FARINY,z,,,,,,,,,,,,,,,,,
,,,,,,,,,,,,,,,,,,5cc96a6b5a7979000176e0cc,2020-08-08_10h25.34.865,lexical_decision_task_MP,2020.1.3,iPhone,60,,0,0.472803347,-0.271966527,1,0,0,0.728,button_right,0.728,1,0,8,8,5,1,1006,WORD,UN,33,frenzy,OBTAIN,m,,,,,,,,,,,,,,,,,
,,,,,,,,,,,,,,,,,,5cc96a6b5a7979000176e0cc,2020-08-08_10h25.34.865,lexical_decision_task_MP,2020.1.3,iPhone,60,,0,0.479079498,-0.322175732,1,0,0,0.736,button_right,0.736,1,0,9,9,3,1,1004,WORD,"ID",50,matrix,MATRIX,m,,,,,,,,,,,,,,,,,
,,,,,,,,,,,,,,,,,,5cc96a6b5a7979000176e0cc,2020-08-08_10h25.34.865,lexical_decision_task_MP,2020.1.3,iPhone,60,,0,-0.424686192,-0.332635983,1,0,0,0.843,button_left,0.843,1,0,10,10,12,1,1013,NW,UN,33,adveil,SPRINY,z,,,,,,,,,,,,,,,,,
,,,,,,,,,,,,,,,,,,5cc96a6b5a7979000176e0cc,2020-08-08_10h25.34.865,lexical_decision_task_MP,2020.1.3,iPhone,60,,0,-0.424686192,-0.328451883,1,0,0,0.808,button_left,0.808,1,0,11,11,11,1,1012,NW,"ID",50,rashet,RASHET,z,,,,,,,,,,,,,,,,,
,,,,,,,,,,,,,,,,,,5cc96a6b5a7979000176e0cc,2020-08-08_10h25.34.865,lexical_decision_task_MP,2020.1.3,iPhone,60,,0,-0.428870293,-0.292887029,1,0,0,0.948,button_left,0.948,1,0,12,12,14,1,1015,NW,UN,50,miaber,THRALE,z,,,,,,,,,,,,,,,,,
,,,,,,,,,,,,,,,,,,5cc96a6b5a7979000176e0cc,2020-08-08_10h25.34.865,lexical_decision_task_MP,2020.1.3,iPhone,60,,0,-0.424686192,-0.257322176,1,0,0,0.788,button_left,0.788,1,0,13,13,15,1,1016,NW,UN,50,mushed,WHAISE,z,,,,,,,,,,,,,,,,,
,,,,,,,,,,,,,,,,,,5cc96a6b5a7979000176e0cc,2020-08-08_10h25.34.865,lexical_decision_task_MP,2020.1.3,iPhone,60,,0,0.479079498,-0.29916318,1,0,0,0.529,button_right,0.529,1,0,14,14,2,1,1003,WORD,"ID",50,almond,ALMOND,m,,,,,,,,,,,,,,,,,
,,,,,,,,,,,,,,,,,,5cc96a6b5a7979000176e0cc,2020-08-08_10h25.34.865,lexical_decision_task_MP,2020.1.3,iPhone,60,,0,0.474895397,-0.320083682,1,0,0,0.779,button_right,0.779,1,0,15,15,0,1,1001,WORD,"ID",33,utopia,UTOPIA,m,,,,,,,,,,,,,,,,,
,,-0.108786611,-0.391213389,1,0,0,instr_done_button,,,,,,1,end_of_practice,"You have completed the practice trials. During the experimental trials, you will not receive feedback, but it is very important that you respond as quickly and accurately as possible. 
Before you begin, please ensure that you are in a comfortable and quiet location and will not be disturbed for about 25 minutes, as we cannot use your data if you do not complete all the trials. 
There will be opportunities to take breaks at regular intervals during the experiment. When you are ready to start the experimental trials, please press space or touch the button below.",,,5cc96a6b5a7979000176e0cc,2020-08-08_10h25.34.865,lexical_decision_task_MP,2020.1.3,iPhone,60,,,,,,,,,,,,,,,,,,,,,,,,0,0,0,0,1,,,,,,,,,,,,
,,,,,,,,,,,,,,,,,,5cc96a6b5a7979000176e0cc,2020-08-08_10h25.34.865,lexical_decision_task_MP,2020.1.3,iPhone,60,,0,-0.39748954,-0.307531381,1,0,0,1.417,button_left,1.417,1,,,,,,348,NW,UN,33,asylen,DUMPLE,z,,,,,,-0.39748954,-0.307531381,1,0,0,,0,0,0,407,1,
,,,,,,,,,,,,,,,,,,5cc96a6b5a7979000176e0cc,2020-08-08_10h25.34.865,lexical_decision_task_MP,2020.1.3,iPhone,60,,0,-0.382845188,-0.322175732,1,0,0,1.266,button_left,1.266,1,,,,,,389,NW,UN,50,hatrus,WITMER,z,,,,,,-0.382845188,-0.322175732,1,0,0,,0,1,1,448,1,
,,,,,,,,,,,,,,,,,,5cc96a6b5a7979000176e0cc,2020-08-08_10h25.34.865,lexical_decision_task_MP,2020.1.3,iPhone,60,,0,0.437238494,-0.242677824,1,0,0,0.597,button_right,0.597,1,,,,,,41,WORD,"ID",50,spring,SPRING,m,,,,,,0.437238494,-0.242677824,1,0,0,,0,2,2,100,1,
,,,,,,,,,,,,,,,,,,5cc96a6b5a7979000176e0cc,2020-08-08_10h25.34.865,lexical_decision_task_MP,2020.1.3,iPhone,60,,0,-0.405857741,-0.328451883,1,0,0,1.018,button_left,1.018,1,,,,,,291,NW,"ID",50,pretch,PRETCH,z,,,,,,-0.405857741,-0.328451883,1,0,0,,0,3,3,350,1,
,,,,,,,,,,,,,,,,,,5cc96a6b5a7979000176e0cc,2020-08-08_10h25.34.865,lexical_decision_task_MP,2020.1.3,iPhone,60,,0,0.435146444,-0.29916318,1,0,0,0.699,button_right,0.699,1,,,,,,76,WORD,UN,33,racket,EXOTIC,m,,,,,,0.435146444,-0.29916318,1,0,0,,0,4,4,135,1,
,,,,,,,,,,,,,,,,,,5cc96a6b5a7979000176e0cc,2020-08-08_10h25.34.865,lexical_decision_task_MP,2020.1.3,iPhone,60,,0,-0.391213389,-0.263598326,1,0,0,0.752,button_left,0.752,1,,,,,,406,NW,UN,50,suiver,NOUPLY,z,,,,,,-0.391213389,-0.263598326,1,0,0,,0,5,5,465,1,
,,,,,,,,,,,,,,,,,,5cc96a6b5a7979000176e0cc,2020-08-08_10h25.34.865,lexical_decision_task_MP,2020.1.3,iPhone,60,,0,0.433054393,-0.288702929,1,0,0,0.73,button_right,0.73,1,,,,,,100,WORD,UN,33,wrench,CARBON,m,,,,,,0.433054393,-0.288702929,1,0,0,,0,6,6,159,1,
,,,,,,,,,,,,,,,,,,5cc96a6b5a7979000176e0cc,2020-08-08_10h25.34.865,lexical_decision_task_MP,2020.1.3,iPhone,60,,0,-0.428870293,-0.320083682,1,0,0,0.633,button_left,0.633,1,,,,,,432,NW,"ID",33,lunker,LUNKER,z,,,,,,-0.428870293,-0.320083682,1,0,0,,0,7,7,251,1,
,,,,,,,,,,,,,,,,,,5cc96a6b5a7979000176e0cc,2020-08-08_10h25.34.865,lexical_decision_task_MP,2020.1.3,iPhone,60,,0,-0.441422594,-0.234309623,1,0,0,0.678,button_left,0.678,1,,,,,,324,NW,UN,33,thruse,STEIKH,z,,,,,,-0.441422594,-0.234309623,1,0,0,,0,8,8,383,1,
,,,,,,,,,,,,,,,,,,5cc96a6b5a7979000176e0cc,2020-08-08_10h25.34.865,lexical_decision_task_MP,2020.1.3,iPhone,60,,0,0.468619247,-0.313807531,1,0,0,0.662,button_right,0.662,1,,,,,,231,WORD,"ID",33,export,EXPORT,m,,,,,,0.468619247,-0.313807531,1,0,0,,0,9,9,50,1,
,,,,,,,,,,,,,,,,,,5cc96a6b5a7979000176e0cc,2020-08-08_10h25.34.865,lexical_decision_task_MP,2020.1.3,iPhone,60,,0,0.506276151,-0.338912134,1,0,0,0.535,button_right,0.535,1,,,,,,119,WORD,UN,33,strain,SPIDER,m,,,,,,0.506276151,-0.338912134,1,0,0,,0,10,10,178,1,
,,,,,,,,,,,,,,,,,,5cc96a6b5a7979000176e0cc,2020-08-08_10h25.34.865,lexical_decision_task_MP,2020.1.3,iPhone,60,,0,0.487447699,-0.349372385,1,0,0,0.688,button_right,0.688,1,,,,,,121,WORD,UN,50,linger,THRIVE,m,,,,,,0.487447699,-0.349372385,1,0,0,,0,11,11,180,1,
,,,,,,,,,,,,,,,,,,5cc96a6b5a7979000176e0cc,2020-08-08_10h25.34.865,lexical_decision_task_MP,2020.1.3,iPhone,60,,0,-0.382845188,-0.315899582,1,0,0,0.766,button_left,0.766,1,,,,,,328,NW,UN,33,yarike,BROAKE,z,,,,,,-0.382845188,-0.315899582,1,0,0,,0,12,12,387,1,
,,,,,,,,,,,,,,,,,,5cc96a6b5a7979000176e0cc,2020-08-08_10h25.34.865,lexical_decision_task_MP,2020.1.3,iPhone,60,,0,-0.39748954,-0.317991632,1,0,0,0.804,button_left,0.804,1,,,,,,253,NW,"ID",50,resait,RESAIT,z,,,,,,-0.39748954,-0.317991632,1,0,0,,0,13,13,312,1,
,,,,,,,,,,,,,,,,,,5cc96a6b5a7979000176e0cc,2020-08-08_10h25.34.865,lexical_decision_task_MP,2020.1.3,iPhone,60,,0,0.4958159,-0.259414226,1,0,0,0.863,button_right,0.863,1,,,,,,213,WORD,"ID",33,squeal,SQUEAL,m,,,,,,0.4958159,-0.259414226,1,0,0,,0,14,14,32,1,
,,,,,,,,,,,,,,,,,,5cc96a6b5a7979000176e0cc,2020-08-08_10h25.34.865,lexical_decision_task_MP,2020.1.3,iPhone,60,,0,0.49790795,-0.29707113,1,0,0,0.723,button_right,0.723,1,,,,,,149,WORD,UN,50,random,INVADE,m,,,,,,0.49790795,-0.29707113,1,0,0,,0,15,15,208,1,
,,,,,,,,,,,,,,,,,,5cc96a6b5a7979000176e0cc,2020-08-08_10h25.34.865,lexical_decision_task_MP,2020.1.3,iPhone,60,,0,0.483263598,-0.290794979,1,0,0,0.621,button_right,0.621,1,,,,,,48,WORD,"ID",50,walnut,WALNUT,m,,,,,,0.483263598,-0.290794979,1,0,0,,0,16,16,107,1,
,,,,,,,,,,,,,,,,,,5cc96a6b5a7979000176e0cc,2020-08-08_10h25.34.865,lexical_decision_task_MP,2020.1.3,iPhone,60,,0,-0.393305439,-0.332635983,1,0,0,1.115,button_left,1.115,1,,,,,,355,NW,UN,33,othnis,ZINGLY,z,,,,,,-0.393305439,-0.332635983,1,0,0,,0,17,17,414,1,
,,,,,,,,,,,,,,,,,,5cc96a6b5a7979000176e0cc,2020-08-08_10h25.34.865,lexical_decision_task_MP,2020.1.3,iPhone,60,,0,-0.39539749,-0.326359833,1,0,0,0.824,button_left,0.824,1,,,,,,332,NW,UN,33,catrie,VANGUE,z,,,,,,-0.39539749,-0.326359833,1,0,0,,0,18,18,391,1,
,,,,,,,,,,,,,,,,,,5cc96a6b5a7979000176e0cc,2020-08-08_10h25.34.865,lexical_decision_task_MP,2020.1.3,iPhone,60,,0,-0.387029289,-0.336820084,1,0,0,0.638,button_left,0.638,1,,,,,,459,NW,"ID",33,bafent,BAFENT,z,,,,,,-0.387029289,-0.336820084,1,0,0,,0,19,19,278,1,
,,,,,,,,,,,,,,,,,,5cc96a6b5a7979000176e0cc,2020-08-08_10h25.34.865,lexical_decision_task_MP,2020.1.3,iPhone,60,,0,0.485355649,-0.307531381,1,0,0,0.75,button_right,0.75,1,,,,,,225,WORD,"ID",33,vulgar,VULGAR,m,,,,,,0.485355649,-0.307531381,1,0,0,,0,20,20,44,1,
,,,,,,,,,,,,,,,,,,5cc96a6b5a7979000176e0cc,2020-08-08_10h25.34.865,lexical_decision_task_MP,2020.1.3,iPhone,60,,0,-0.405857741,-0.30334728,1,0,0,1.04,button_left,1.04,1,,,,,,401,NW,UN,50,syntic,MUSTIL,z,,,,,,-0.405857741,-0.30334728,1,0,0,,0,21,21,460,1,
,,,,,,,,,,,,,,,,,,5cc96a6b5a7979000176e0cc,2020-08-08_10h25.34.865,lexical_decision_task_MP,2020.1.3,iPhone,60,,0,-0.447698745,-0.282426778,1,0,0,0.986,button_left,0.986,1,,,,,,374,NW,UN,50,yorque,SLIANT,z,,,,,,-0.447698745,-0.282426778,1,0,0,,0,22,22,433,1,
,,,,,,,,,,,,,,,,,,5cc96a6b5a7979000176e0cc,2020-08-08_10h25.34.865,lexical_decision_task_MP,2020.1.3,iPhone,60,,0,0.5041841,-0.221757322,1,0,0,0.659,button_right,0.659,1,,,,,,235,WORD,"ID",33,grumpy,GRUMPY,m,,,,,,0.5041841,-0.221757322,1,0,0,,0,23,23,54,1,
,,,,,,,,,,,,,,,,,,5cc96a6b5a7979000176e0cc,2020-08-08_10h25.34.865,lexical_decision_task_MP,2020.1.3,iPhone,60,,0,-0.384937238,-0.282426778,1,0,0,0.739,button_left,0.739,1,,,,,,399,NW,UN,50,wearox,FOURET,z,,,,,,-0.384937238,-0.282426778,1,0,0,,0,24,24,458,1,
,,,,,,,,,,,,,,,,,,5cc96a6b5a7979000176e0cc,2020-08-08_10h25.34.865,lexical_decision_task_MP,2020.1.3,iPhone,60,,0,0.50209205,-0.313807531,1,0,0,0.772,button_right,0.772,1,,,,,,145,WORD,UN,50,couple,PARISH,m,,,,,,0.50209205,-0.313807531,1,0,0,,0,25,25,204,1,
,,,,,,,,,,,,,,,,,,5cc96a6b5a7979000176e0cc,2020-08-08_10h25.34.865,lexical_decision_task_MP,2020.1.3,iPhone,60,,0,0.50209205,-0.246861925,1,0,0,0.735,button_right,0.735,1,,,,,,135,WORD,UN,50,bleach,IMPORT,m,,,,,,0.50209205,-0.246861925,1,0,0,,0,26,26,194,1,
,,,,,,,,,,,,,,,,,,5cc96a6b5a7979000176e0cc,2020-08-08_10h25.34.865,lexical_decision_task_MP,2020.1.3,iPhone,60,,0,0.49790795,-0.351464435,1,0,0,0.667,button_right,0.667,1,,,,,,42,WORD,"ID",50,chapel,CHAPEL,m,,,,,,0.49790795,-0.351464435,1,0,0,,0,27,27,101,1,
,,,,,,,,,,,,,,,,,,5cc96a6b5a7979000176e0cc,2020-08-08_10h25.34.865,lexical_decision_task_MP,2020.1.3,iPhone,60,,0,0.489539749,-0.326359833,1,0,0,0.12,button_right,0.12,0,,,,,,283,NW,"ID",50,veralf,VERALF,z,,,,,,0.489539749,-0.326359833,1,0,0,,0,28,28,342,1,
,,,,,,,,,,,,,,,,,,5cc96a6b5a7979000176e0cc,2020-08-08_10h25.34.865,lexical_decision_task_MP,2020.1.3,iPhone,60,,0,-0.426778243,-0.29707113,1,0,0,0.64,button_left,0.64,1,,,,,,282,NW,"ID",50,porlex,PORLEX,z,,,,,,-0.426778243,-0.29707113,1,0,0,,0,29,29,341,1,
,,,,,,,,,,,,,,,,,,5cc96a6b5a7979000176e0cc,2020-08-08_10h25.34.865,lexical_decision_task_MP,2020.1.3,iPhone,60,,0,0.460251046,-0.353556485,1,0,0,0.665,button_right,0.665,1,,,,,,181,WORD,"ID",33,glance,GLANCE,m,,,,,,0.460251046,-0.353556485,1,0,0,,0,30,30,0,1,
,,,,,,,,,,,,,,,,,,5cc96a6b5a7979000176e0cc,2020-08-08_10h25.34.865,lexical_decision_task_MP,2020.1.3,iPhone,60,,0,0.468619247,-0.334728033,1,0,0,0.79,button_right,0.79,1,,,,,,15,WORD,"ID",50,amount,AMOUNT,m,,,,,,0.468619247,-0.334728033,1,0,0,,0,31,31,74,1,
,,,,,,,,,,,,,,,,,,5cc96a6b5a7979000176e0cc,2020-08-08_10h25.34.865,lexical_decision_task_MP,2020.1.3,iPhone,60,,0,0.510460251,-0.322175732,1,0,0,0.619,button_right,0.619,1,,,,,,1,WORD,"ID",50,fright,FRIGHT,m,,,,,,0.510460251,-0.322175732,1,0,0,,0,32,32,60,1,
,,,,,,,,,,,,,,,,,,5cc96a6b5a7979000176e0cc,2020-08-08_10h25.34.865,lexical_decision_task_MP,2020.1.3,iPhone,60,,0,0.491631799,-0.284518828,1,0,0,0.58,button_right,0.58,1,,,,,,92,WORD,UN,33,public,STRAND,m,,,,,,0.491631799,-0.284518828,1,0,0,,0,33,33,151,1,
,,,,,,,,,,,,,,,,,,5cc96a6b5a7979000176e0cc,2020-08-08_10h25.34.865,lexical_decision_task_MP,2020.1.3,iPhone,60,,0,-0.384937238,-0.305439331,1,0,0,0.922,button_left,0.922,1,,,,,,453,NW,"ID",33,bolvis,BOLVIS,z,,,,,,-0.384937238,-0.305439331,1,0,0,,0,34,34,272,1,
,,,,,,,,,,,,,,,,,,5cc96a6b5a7979000176e0cc,2020-08-08_10h25.34.865,lexical_decision_task_MP,2020.1.3,iPhone,60,,0,0.485355649,-0.324267782,1,0,0,0.707,button_right,0.707,1,,,,,,117,WORD,UN,33,flight,BRANCH,m,,,,,,0.485355649,-0.324267782,1,0,0,,0,35,35,176,1,
,,,,,,,,,,,,,,,,,,5cc96a6b5a7979000176e0cc,2020-08-08_10h25.34.865,lexical_decision_task_MP,2020.1.3,iPhone,60,,0,-0.418410042,-0.257322176,1,0,0,0.892,button_left,0.892,1,,,,,,345,NW,UN,33,saudic,ABSEND,z,,,,,,-0.418410042,-0.257322176,1,0,0,,0,36,36,404,1,
,,,,,,,,,,,,,,,,,,5cc96a6b5a7979000176e0cc,2020-08-08_10h25.34.865,lexical_decision_task_MP,2020.1.3,iPhone,60,,0,0.481171548,-0.309623431,1,0,0,0.554,button_right,0.554,1,,,,,,118,WORD,UN,33,spider,FLIGHT,m,,,,,,0.481171548,-0.309623431,1,0,0,,0,37,37,177,1,
,,,,,,,,,,,,,,,,,,5cc96a6b5a7979000176e0cc,2020-08-08_10h25.34.865,lexical_decision_task_MP,2020.1.3,iPhone,60,,0,-0.39958159,-0.315899582,1,0,0,0.836,button_left,0.836,1,,,,,,450,NW,"ID",33,phrect,PHRECT,z,,,,,,-0.39958159,-0.315899582,1,0,0,,0,38,38,269,1,
,,,,,,,,,,,,,,,,,,5cc96a6b5a7979000176e0cc,2020-08-08_10h25.34.865,lexical_decision_task_MP,2020.1.3,iPhone,60,,0,-0.384937238,-0.334728033,1,0,0,0.726,button_left,0.726,1,,,,,,280,NW,"ID",50,curbol,CURBOL,z,,,,,,-0.384937238,-0.334728033,1,0,0,,0,39,39,339,1,
,,,,,,,,,,,,,,,,,,5cc96a6b5a7979000176e0cc,2020-08-08_10h25.34.865,lexical_decision_task_MP,2020.1.3,iPhone,60,,0,0.50209205,-0.282426778,1,0,0,0.537,button_right,0.537,1,,,,,,3,WORD,"ID",50,knight,KNIGHT,m,,,,,,0.50209205,-0.282426778,1,0,0,,0,40,40,62,1,
,,,,,,,,,,,,,,,,,,5cc96a6b5a7979000176e0cc,2020-08-08_10h25.34.865,lexical_decision_task_MP,2020.1.3,iPhone,60,,0,-0.418410042,-0.284518828,1,0,0,0.699,button_left,0.699,1,,,,,,377,NW,UN,50,shrile,INJORE,z,,,,,,-0.418410042,-0.284518828,1,0,0,,0,41,41,436,1,
,,,,,,,,,,,,,,,,,,5cc96a6b5a7979000176e0cc,2020-08-08_10h25.34.865,lexical_decision_task_MP,2020.1.3,iPhone,60,,0,0.487447699,-0.280334728,1,0,0,0.802,button_right,0.802,1,,,,,,226,WORD,"ID",33,casino,CASINO,m,,,,,,0.487447699,-0.280334728,1,0,0,,0,42,42,45,1,
,,,,,,,,,,,,,,,,,,5cc96a6b5a7979000176e0cc,2020-08-08_10h25.34.865,lexical_decision_task_MP,2020.1.3,iPhone,60,,0,0.485355649,-0.320083682,1,0,0,0.832,button_right,0.832,1,,,,,,128,WORD,UN,50,marvel,SENIOR,m,,,,,,0.485355649,-0.320083682,1,0,0,,0,43,43,187,1,
,,,,,,,,,,,,,,,,,,5cc96a6b5a7979000176e0cc,2020-08-08_10h25.34.865,lexical_decision_task_MP,2020.1.3,iPhone,60,,0,-0.418410042,-0.251046025,1,0,0,0.661,button_left,0.661,1,,,,,,456,NW,"ID",33,broget,BROGET,z,,,,,,-0.418410042,-0.251046025,1,0,0,,0,44,44,275,1,
,,,,,,,,,,,,,,,,,,5cc96a6b5a7979000176e0cc,2020-08-08_10h25.34.865,lexical_decision_task_MP,2020.1.3,iPhone,60,,0,-0.416317992,-0.311715481,1,0,0,0.596,button_left,0.596,1,,,,,,429,NW,"ID",33,funtle,FUNTLE,z,,,,,,-0.416317992,-0.311715481,1,0,0,,0,45,45,248,1,
,,,,,,,,,,,,,,,,,,5cc96a6b5a7979000176e0cc,2020-08-08_10h25.34.865,lexical_decision_task_MP,2020.1.3,iPhone,60,,0,-0.410041841,-0.286610879,1,0,0,0.679,button_left,0.679,1,,,,,,466,NW,"ID",33,hocite,HOCITE,z,,,,,,-0.410041841,-0.286610879,1,0,0,,0,46,46,285,1,
,,,,,,,,,,,,,,,,,,5cc96a6b5a7979000176e0cc,2020-08-08_10h25.34.865,lexical_decision_task_MP,2020.1.3,iPhone,60,,0,0.485355649,-0.282426778,1,0,0,0.704,button_right,0.704,1,,,,,,81,WORD,UN,33,stigma,FRIEND,m,,,,,,0.485355649,-0.282426778,1,0,0,,0,47,47,140,1,
,,,,,,,,,,,,,,,,,,5cc96a6b5a7979000176e0cc,2020-08-08_10h25.34.865,lexical_decision_task_MP,2020.1.3,iPhone,60,,0,-0.445606695,-0.261506276,1,0,0,0.805,button_left,0.805,1,,,,,,270,NW,"ID",50,wrimsy,WRIMSY,z,,,,,,-0.445606695,-0.261506276,1,0,0,,0,48,48,329,1,
,,,,,,,,,,,,,,,,,,5cc96a6b5a7979000176e0cc,2020-08-08_10h25.34.865,lexical_decision_task_MP,2020.1.3,iPhone,60,,0,-0.435146444,-0.207112971,1,0,0,0.809,button_left,0.809,1,,,,,,435,NW,"ID",33,impurb,IMPURB,z,,,,,,-0.435146444,-0.207112971,1,0,0,,0,49,49,254,1,
,,,,,,,,,,,,,,,,,,5cc96a6b5a7979000176e0cc,2020-08-08_10h25.34.865,lexical_decision_task_MP,2020.1.3,iPhone,60,,0,-0.389121339,-0.324267782,1,0,0,0.957,button_left,0.957,0,,,,,,211,WORD,"ID",33,infect,INFECT,m,,,,,,-0.389121339,-0.324267782,1,0,0,,0,50,50,30,1,
,,,,,,,,,,,,,,,,,,5cc96a6b5a7979000176e0cc,2020-08-08_10h25.34.865,lexical_decision_task_MP,2020.1.3,iPhone,60,,0,0.50209205,-0.30125523,1,0,0,0.757,button_right,0.757,1,,,,,,161,WORD,UN,50,candle,PASTOR,m,,,,,,0.50209205,-0.30125523,1,0,0,,0,51,51,220,1,
,,,,,,,,,,,,,,,,,,5cc96a6b5a7979000176e0cc,2020-08-08_10h25.34.865,lexical_decision_task_MP,2020.1.3,iPhone,60,,0,-0.418410042,-0.309623431,1,0,0,0.755,button_left,0.755,1,,,,,,299,NW,"ID",50,sturch,STURCH,z,,,,,,-0.418410042,-0.309623431,1,0,0,,0,52,52,358,1,
,,,,,,,,,,,,,,,,,,5cc96a6b5a7979000176e0cc,2020-08-08_10h25.34.865,lexical_decision_task_MP,2020.1.3,iPhone,60,,0,0.5,-0.251046025,1,0,0,0.811,button_right,0.811,1,,,,,,151,WORD,UN,50,rocket,MYSTIC,m,,,,,,0.5,-0.251046025,1,0,0,,0,53,53,210,1,
,,,,,,,,,,,,,,,,,,5cc96a6b5a7979000176e0cc,2020-08-08_10h25.34.865,lexical_decision_task_MP,2020.1.3,iPhone,60,,0,-0.405857741,-0.324267782,1,0,0,0.969,button_left,0.969,1,,,,,,477,NW,"ID",33,photie,PHOTIE,z,,,,,,-0.405857741,-0.324267782,1,0,0,,0,54,54,296,1,
,,,,,,,,,,,,,,,,,,5cc96a6b5a7979000176e0cc,2020-08-08_10h25.34.865,lexical_decision_task_MP,2020.1.3,iPhone,60,,0,-0.418410042,-0.309623431,1,0,0,1.133,button_left,1.133,1,,,,,,388,NW,UN,50,witmer,CRAGIN,z,,,,,,-0.418410042,-0.309623431,1,0,0,,0,55,55,447,1,
,,,,,,,,,,,,,,,,,,5cc96a6b5a7979000176e0cc,2020-08-08_10h25.34.865,lexical_decision_task_MP,2020.1.3,iPhone,60,,0,0.49790795,-0.257322176,1,0,0,0.732,button_right,0.732,1,,,,,,68,WORD,UN,33,plenty,FUMBLE,m,,,,,,0.49790795,-0.257322176,1,0,0,,0,56,56,127,1,
,,,,,,,,,,,,,,,,,,5cc96a6b5a7979000176e0cc,2020-08-08_10h25.34.865,lexical_decision_task_MP,2020.1.3,iPhone,60,,0,-0.412133891,-0.349372385,1,0,0,0.806,button_left,0.806,1,,,,,,455,NW,"ID",33,tondle,TONDLE,z,,,,,,-0.412133891,-0.349372385,1,0,0,,0,57,57,274,1,
,,,,,,,,,,,,,,,,,,5cc96a6b5a7979000176e0cc,2020-08-08_10h25.34.865,lexical_decision_task_MP,2020.1.3,iPhone,60,,0,-0.393305439,-0.309623431,1,0,0,0.773,button_left,0.773,0,,,,,,114,WORD,UN,33,guitar,PLACID,m,,,,,,-0.393305439,-0.309623431,1,0,0,,0,58,58,173,1,
,,,,,,,,,,,,,,,,,,5cc96a6b5a7979000176e0cc,2020-08-08_10h25.34.865,lexical_decision_task_MP,2020.1.3,iPhone,60,,0,0.485355649,-0.29916318,1,0,0,0.586,button_right,0.586,1,,,,,,197,WORD,"ID",33,stream,STREAM,m,,,,,,0.485355649,-0.29916318,1,0,0,,0,59,59,16,1,
,,,,,,,,,,,,,,,,,,5cc96a6b5a7979000176e0cc,2020-08-08_10h25.34.865,lexical_decision_task_MP,2020.1.3,iPhone,60,,0,-0.380753138,-0.336820084,1,0,0,0.712,button_left,0.712,1,,,,,,343,NW,UN,33,scrily,AIMOSY,z,,,,,,-0.380753138,-0.336820084,1,0,0,,0,60,60,402,1,
,,,,,,,,,,,,,,,,,,5cc96a6b5a7979000176e0cc,2020-08-08_10h25.34.865,lexical_decision_task_MP,2020.1.3,iPhone,60,,0,-0.40376569,-0.332635983,1,0,0,0.779,button_left,0.779,1,,,,,,441,NW,"ID",33,rastoe,RASTOE,z,,,,,,-0.40376569,-0.332635983,1,0,0,,0,61,61,260,1,
,,,,,,,,,,,,,,,,,,5cc96a6b5a7979000176e0cc,2020-08-08_10h25.34.865,lexical_decision_task_MP,2020.1.3,iPhone,60,,0,0.510460251,-0.274058577,1,0,0,0.941,button_right,0.941,0,,,,,,248,NW,"ID",50,strole,STROLE,z,,,,,,0.510460251,-0.274058577,1,0,0,,0,62,62,307,1,
,,,,,,,,,,,,,,,,,,5cc96a6b5a7979000176e0cc,2020-08-08_10h25.34.865,lexical_decision_task_MP,2020.1.3,iPhone,60,,0,-0.372384937,-0.30334728,1,0,0,0.674,button_left,0.674,1,,,,,,289,NW,"ID",50,starby,STARBY,z,,,,,,-0.372384937,-0.30334728,1,0,0,,0,63,63,348,1,
,,,,,,,,,,,,,,,,,,5cc96a6b5a7979000176e0cc,2020-08-08_10h25.34.865,lexical_decision_task_MP,2020.1.3,iPhone,60,,0,0.506276151,-0.320083682,1,0,0,0.69,button_right,0.69,1,,,,,,2,WORD,"ID",50,bridge,BRIDGE,m,,,,,,0.506276151,-0.320083682,1,0,0,,0,64,64,61,1,
,,,,,,,,,,,,,,,,,,5cc96a6b5a7979000176e0cc,2020-08-08_10h25.34.865,lexical_decision_task_MP,2020.1.3,iPhone,60,,0,-0.453974895,-0.173640167,1,0,0,0.925,button_left,0.925,1,,,,,,476,NW,"ID",33,josted,JOSTED,z,,,,,,-0.40376569,-0.290794979,1,0,0,,0,65,65,295,1,
,,,,,,,,,,,,,,,,,,5cc96a6b5a7979000176e0cc,2020-08-08_10h25.34.865,lexical_decision_task_MP,2020.1.3,iPhone,60,,0,-0.39958159,-0.278242678,1,0,0,0.653,button_left,0.653,1,,,,,,436,NW,"ID",33,frutan,FRUTAN,z,,,,,,-0.39958159,-0.278242678,1,0,0,,0,66,66,255,1,
,,,,,,,,,,,,,,,,,,5cc96a6b5a7979000176e0cc,2020-08-08_10h25.34.865,lexical_decision_task_MP,2020.1.3,iPhone,60,,0,0.508368201,-0.290794979,1,0,0,0.619,button_right,0.619,1,,,,,,34,WORD,"ID",50,jungle,JUNGLE,m,,,,,,0.508368201,-0.290794979,1,0,0,,0,67,67,93,1,
,,,,,,,,,,,,,,,,,,5cc96a6b5a7979000176e0cc,2020-08-08_10h25.34.865,lexical_decision_task_MP,2020.1.3,iPhone,60,,0,-0.422594142,-0.326359833,1,0,0,0.709,button_left,0.709,1,,,,,,272,NW,"ID",50,damilt,DAMILT,z,,,,,,-0.422594142,-0.326359833,1,0,0,,0,68,68,331,1,
,,,,,,,,,,,,,,,,,,5cc96a6b5a7979000176e0cc,2020-08-08_10h25.34.865,lexical_decision_task_MP,2020.1.3,iPhone,60,,0,0.485355649,-0.288702929,1,0,0,0.719,button_right,0.719,1,,,,,,91,WORD,UN,33,hunger,EXPAND,m,,,,,,0.485355649,-0.288702929,1,0,0,,0,69,69,150,1,
,,,,,,,,,,,,,,,,,,5cc96a6b5a7979000176e0cc,2020-08-08_10h25.34.865,lexical_decision_task_MP,2020.1.3,iPhone,60,,0,-0.40167364,-0.305439331,1,0,0,0.613,button_left,0.613,1,,,,,,276,NW,"ID",50,yarmon,YARMON,z,,,,,,-0.40167364,-0.305439331,1,0,0,,0,70,70,335,1,
,,,,,,,,,,,,,,,,,,5cc96a6b5a7979000176e0cc,2020-08-08_10h25.34.865,lexical_decision_task_MP,2020.1.3,iPhone,60,,0,0.483263598,-0.288702929,1,0,0,0.478,button_right,0.478,1,,,,,,202,WORD,"ID",33,factor,FACTOR,m,,,,,,0.483263598,-0.288702929,1,0,0,,0,71,71,21,1,
,,,,,,,,,,,,,,,,,,5cc96a6b5a7979000176e0cc,2020-08-08_10h25.34.865,lexical_decision_task_MP,2020.1.3,iPhone,60,,0,0.4958159,-0.326359833,1,0,0,0.544,button_right,0.544,1,,,,,,193,WORD,"ID",33,object,OBJECT,m,,,,,,0.4958159,-0.326359833,1,0,0,,0,72,72,12,1,
,,,,,,,,,,,,,,,,,,5cc96a6b5a7979000176e0cc,2020-08-08_10h25.34.865,lexical_decision_task_MP,2020.1.3,iPhone,60,,0,0.458158996,-0.234309623,1,0,0,1.287,button_right,1.287,1,,,,,,175,WORD,UN,50,strife,FABRIC,m,,,,,,0.458158996,-0.234309623,1,0,0,,0,73,73,234,1,
,,,,,,,,,,,,,,,,,,5cc96a6b5a7979000176e0cc,2020-08-08_10h25.34.865,lexical_decision_task_MP,2020.1.3,iPhone,60,,0,0.50209205,-0.30334728,1,0,0,0.808,button_right,0.808,1,,,,,,54,WORD,"ID",50,ramble,RAMBLE,m,,,,,,0.50209205,-0.30334728,1,0,0,,0,74,74,113,1,
,,,,,,,,,,,,,,,,,,5cc96a6b5a7979000176e0cc,2020-08-08_10h25.34.865,lexical_decision_task_MP,2020.1.3,iPhone,60,,0,-0.39539749,-0.263598326,1,0,0,0.703,button_left,0.703,0,,,,,,99,WORD,UN,33,carbon,FLUENT,m,,,,,,-0.39539749,-0.263598326,1,0,0,,0,75,75,158,1,
,,,,,,,,,,,,,,,,,,5cc96a6b5a7979000176e0cc,2020-08-08_10h25.34.865,lexical_decision_task_MP,2020.1.3,iPhone,60,,0,-0.384937238,-0.322175732,1,0,0,0.793,button_left,0.793,1,,,,,,381,NW,UN,50,sarley,HUNIEK,z,,,,,,-0.384937238,-0.322175732,1,0,0,,0,76,76,440,1,
,,,,,,,,,,,,,,,,,,5cc96a6b5a7979000176e0cc,2020-08-08_10h25.34.865,lexical_decision_task_MP,2020.1.3,iPhone,60,,0,0.4958159,-0.269874477,1,0,0,0.569,button_right,0.569,1,,,,,,232,WORD,"ID",33,inject,INJECT,m,,,,,,0.4958159,-0.269874477,1,0,0,,0,77,77,51,1,
,,,,,,,,,,,,,,,,,,5cc96a6b5a7979000176e0cc,2020-08-08_10h25.34.865,lexical_decision_task_MP,2020.1.3,iPhone,60,,0,0.510460251,-0.305439331,1,0,0,0.6,button_right,0.6,1,,,,,,201,WORD,"ID",33,admire,ADMIRE,m,,,,,,0.510460251,-0.305439331,1,0,0,,0,78,78,20,1,
,,,,,,,,,,,,,,,,,,5cc96a6b5a7979000176e0cc,2020-08-08_10h25.34.865,lexical_decision_task_MP,2020.1.3,iPhone,60,,0,0.481171548,-0.313807531,1,0,0,0.663,button_right,0.663,1,,,,,,64,WORD,UN,33,symbol,THRONE,m,,,,,,0.481171548,-0.313807531,1,0,0,,0,79,79,123,1,
,,,,,,,,,,,,,,,,,,5cc96a6b5a7979000176e0cc,2020-08-08_10h25.34.865,lexical_decision_task_MP,2020.1.3,iPhone,60,,0,-0.418410042,-0.263598326,1,0,0,0.699,button_left,0.699,0,,,,,,227,WORD,"ID",33,seldom,SELDOM,m,,,,,,-0.418410042,-0.263598326,1,0,0,,0,80,80,46,1,
,,,,,,,,,,,,,,,,,,5cc96a6b5a7979000176e0cc,2020-08-08_10h25.34.865,lexical_decision_task_MP,2020.1.3,iPhone,60,,0,0.49790795,-0.29916318,1,0,0,0.492,button_right,0.492,1,,,,,,188,WORD,"ID",33,social,SOCIAL,m,,,,,,0.49790795,-0.29916318,1,0,0,,0,81,81,7,1,
,,,,,,,,,,,,,,,,,,5cc96a6b5a7979000176e0cc,2020-08-08_10h25.34.865,lexical_decision_task_MP,2020.1.3,iPhone,60,,0,-0.430962343,-0.341004184,1,0,0,0.551,button_left,0.551,1,,,,,,321,NW,UN,33,slanch,MIATOR,z,,,,,,-0.430962343,-0.341004184,1,0,0,,0,82,82,380,1,
,,,,,,,,,,,,,,,,,,5cc96a6b5a7979000176e0cc,2020-08-08_10h25.34.865,lexical_decision_task_MP,2020.1.3,iPhone,60,,0,0.49790795,-0.324267782,1,0,0,0.638,button_right,0.638,1,,,,,,13,WORD,"ID",50,strive,STRIVE,m,,,,,,0.49790795,-0.324267782,1,0,0,,0,83,83,72,1,
,,,,,,,,,,,,,,,,,,5cc96a6b5a7979000176e0cc,2020-08-08_10h25.34.865,lexical_decision_task_MP,2020.1.3,iPhone,60,,0,-0.428870293,-0.311715481,1,0,0,0.769,button_left,0.769,1,,,,,,407,NW,UN,50,hurnia,SUIVER,z,,,,,,-0.428870293,-0.311715481,1,0,0,,0,84,84,466,1,
,,,,,,,,,,,,,,,,,,5cc96a6b5a7979000176e0cc,2020-08-08_10h25.34.865,lexical_decision_task_MP,2020.1.3,iPhone,60,,0,0.49790795,-0.309623431,1,0,0,0.687,button_right,0.687,1,,,,,,198,WORD,"ID",33,wicked,WICKED,m,,,,,,0.49790795,-0.309623431,1,0,0,,0,85,85,17,1,
,,,,,,,,,,,,,,,,,,5cc96a6b5a7979000176e0cc,2020-08-08_10h25.34.865,lexical_decision_task_MP,2020.1.3,iPhone,60,,0,0.516736402,-0.330543933,1,0,0,0.591,button_right,0.591,1,,,,,,20,WORD,"ID",50,breast,BREAST,m,,,,,,0.516736402,-0.330543933,1,0,0,,0,86,86,79,1,
,,,,,,,,,,,,,,,,,,5cc96a6b5a7979000176e0cc,2020-08-08_10h25.34.865,lexical_decision_task_MP,2020.1.3,iPhone,60,,0,-0.39539749,-0.311715481,1,0,0,0.644,button_left,0.644,1,,,,,,266,NW,"ID",50,varmit,VARMIT,z,,,,,,-0.39539749,-0.311715481,1,0,0,,0,87,87,325,1,
,,,,,,,,,,,,,,,,,,5cc96a6b5a7979000176e0cc,2020-08-08_10h25.34.865,lexical_decision_task_MP,2020.1.3,iPhone,60,,0,0.493723849,-0.328451883,1,0,0,1.048,button_right,1.048,1,,,,,,207,WORD,"ID",33,wreath,WREATH,m,,,,,,0.493723849,-0.328451883,1,0,0,,0,88,88,26,1,
,,,,,,,,,,,,,,,,,,5cc96a6b5a7979000176e0cc,2020-08-08_10h25.34.865,lexical_decision_task_MP,2020.1.3,iPhone,60,,0,-0.412133891,-0.330543933,1,0,0,0.806,button_left,0.806,1,,,,,,342,NW,UN,33,aimosy,RANDOW,z,,,,,,-0.412133891,-0.330543933,1,0,0,,0,89,89,401,1,
,,,,,,,,,,,,,,,,,,5cc96a6b5a7979000176e0cc,2020-08-08_10h25.34.865,lexical_decision_task_MP,2020.1.3,iPhone,60,,0,-0.410041841,-0.336820084,1,0,0,0.697,button_left,0.697,1,,,,,,428,NW,"ID",33,tandly,TANDLY,z,,,,,,-0.410041841,-0.336820084,1,0,0,,0,90,90,247,1,
,,,,,,,,,,,,,,,,,,5cc96a6b5a7979000176e0cc,2020-08-08_10h25.34.865,lexical_decision_task_MP,2020.1.3,iPhone,60,,0,-0.389121339,-0.355648536,1,0,0,0.667,button_left,0.667,1,,,,,,373,NW,UN,50,sliant,BIGENT,z,,,,,,-0.389121339,-0.355648536,1,0,0,,0,91,91,432,1,
,,,,,,,,,,,,,,,,,,5cc96a6b5a7979000176e0cc,2020-08-08_10h25.34.865,lexical_decision_task_MP,2020.1.3,iPhone,60,,0,-0.412133891,-0.326359833,1,0,0,0.851,button_left,0.851,0,,,,,,206,WORD,"ID",33,tailor,TAILOR,m,,,,,,-0.412133891,-0.326359833,1,0,0,,0,92,92,25,1,
,,,,,,,,,,,,,,,,,,5cc96a6b5a7979000176e0cc,2020-08-08_10h25.34.865,lexical_decision_task_MP,2020.1.3,iPhone,60,,0,-0.428870293,-0.305439331,1,0,0,0.672,button_left,0.672,1,,,,,,251,NW,"ID",50,lupict,LUPICT,z,,,,,,-0.428870293,-0.305439331,1,0,0,,0,93,93,310,1,
,,,,,,,,,,,,,,,,,,5cc96a6b5a7979000176e0cc,2020-08-08_10h25.34.865,lexical_decision_task_MP,2020.1.3,iPhone,60,,0,-0.412133891,-0.286610879,1,0,0,0.806,button_left,0.806,1,,,,,,284,NW,"ID",50,shaple,SHAPLE,z,,,,,,-0.412133891,-0.286610879,1,0,0,,0,94,94,343,1,
,,,,,,,,,,,,,,,,,,5cc96a6b5a7979000176e0cc,2020-08-08_10h25.34.865,lexical_decision_task_MP,2020.1.3,iPhone,60,,0,0.493723849,-0.269874477,1,0,0,0.587,button_right,0.587,1,,,,,,229,WORD,"ID",33,mother,MOTHER,m,,,,,,0.493723849,-0.269874477,1,0,0,,0,95,95,48,1,
,,,,,,,,,,,,,,,,,,5cc96a6b5a7979000176e0cc,2020-08-08_10h25.34.865,lexical_decision_task_MP,2020.1.3,iPhone,60,,0,0.491631799,-0.324267782,1,0,0,0.62,button_right,0.62,1,,,,,,136,WORD,UN,50,finger,BLEACH,m,,,,,,0.491631799,-0.324267782,1,0,0,,0,96,96,195,1,
,,,,,,,,,,,,,,,,,,5cc96a6b5a7979000176e0cc,2020-08-08_10h25.34.865,lexical_decision_task_MP,2020.1.3,iPhone,60,,0,-0.412133891,-0.320083682,1,0,0,0.541,button_left,0.541,1,,,,,,402,NW,UN,50,bruats,SYNTIC,z,,,,,,-0.412133891,-0.320083682,1,0,0,,0,97,97,461,1,
,,,,,,,,,,,,,,,,,,5cc96a6b5a7979000176e0cc,2020-08-08_10h25.34.865,lexical_decision_task_MP,2020.1.3,iPhone,60,,0,-0.428870293,-0.305439331,1,0,0,1.451,button_left,1.451,1,,,,,,314,NW,UN,33,laston,SPRINE,z,,,,,,-0.428870293,-0.305439331,1,0,0,,0,98,98,373,1,
,,,,,,,,,,,,,,,,,,5cc96a6b5a7979000176e0cc,2020-08-08_10h25.34.865,lexical_decision_task_MP,2020.1.3,iPhone,60,,0,0.50209205,-0.309623431,1,0,0,0.979,button_right,0.979,1,,,,,,36,WORD,"ID",50,vanish,VANISH,m,,,,,,0.50209205,-0.309623431,1,0,0,,0,99,99,95,1,
,,,,,,,,,,,,,,,,,,5cc96a6b5a7979000176e0cc,2020-08-08_10h25.34.865,lexical_decision_task_MP,2020.1.3,iPhone,60,,0,0.49790795,-0.330543933,1,0,0,0.504,button_right,0.504,1,,,,,,21,WORD,"ID",50,simple,SIMPLE,m,,,,,,0.49790795,-0.330543933,1,0,0,,0,100,100,80,1,
,,,,,,,,,,,,,,,,,,5cc96a6b5a7979000176e0cc,2020-08-08_10h25.34.865,lexical_decision_task_MP,2020.1.3,iPhone,60,,0,0.5,-0.276150628,1,0,0,0.662,button_right,0.662,1,,,,,,7,WORD,"ID",50,anchor,ANCHOR,m,,,,,,0.5,-0.276150628,1,0,0,,0,101,101,66,1,
,,,,,,,,,,,,,,,,,,5cc96a6b5a7979000176e0cc,2020-08-08_10h25.34.865,lexical_decision_task_MP,2020.1.3,iPhone,60,,0,0.512552301,-0.29707113,1,0,0,0.68,button_right,0.68,1,,,,,,153,WORD,UN,50,author,BEHOLD,m,,,,,,0.512552301,-0.29707113,1,0,0,,0,102,102,212,1,
,,,,,,,,,,,,,,,,,,5cc96a6b5a7979000176e0cc,2020-08-08_10h25.34.865,lexical_decision_task_MP,2020.1.3,iPhone,60,,0,-0.391213389,-0.334728033,1,0,0,0.973,button_left,0.973,0,,,,,,214,WORD,"ID",33,intake,INTAKE,m,,,,,,-0.391213389,-0.334728033,1,0,0,,0,103,103,33,1,
,,,,,,,,,,,,,,,,,,5cc96a6b5a7979000176e0cc,2020-08-08_10h25.34.865,lexical_decision_task_MP,2020.1.3,iPhone,60,,0,0.518828452,-0.286610879,1,0,0,0.62,button_right,0.62,1,,,,,,210,WORD,"ID",33,monkey,MONKEY,m,,,,,,0.518828452,-0.286610879,1,0,0,,0,104,104,29,1,
,,,,,,,,,,,,,,,,,,5cc96a6b5a7979000176e0cc,2020-08-08_10h25.34.865,lexical_decision_task_MP,2020.1.3,iPhone,60,,0,0.50209205,-0.322175732,1,0,0,0.674,button_right,0.674,1,,,,,,69,WORD,UN,33,square,PLENTY,m,,,,,,0.50209205,-0.322175732,1,0,0,,0,105,105,128,1,
,,,,,,,,,,,,,,,,,,5cc96a6b5a7979000176e0cc,2020-08-08_10h25.34.865,lexical_decision_task_MP,2020.1.3,iPhone,60,,0,-0.359832636,-0.345188285,1,0,0,1.023,button_left,1.023,1,,,,,,295,NW,"ID",50,gleath,GLEATH,z,,,,,,-0.359832636,-0.345188285,1,0,0,,0,106,106,354,1,
,,,,,,,,,,,,,,,,,,5cc96a6b5a7979000176e0cc,2020-08-08_10h25.34.865,lexical_decision_task_MP,2020.1.3,iPhone,60,,0,-0.376569038,-0.341004184,1,0,0,0.576,button_left,0.576,1,,,,,,329,NW,UN,33,kensom,YARIKE,z,,,,,,-0.376569038,-0.341004184,1,0,0,,0,107,107,388,1,
,,,,,,,,,,,,,,,,,,5cc96a6b5a7979000176e0cc,2020-08-08_10h25.34.865,lexical_decision_task_MP,2020.1.3,iPhone,60,,0,-0.424686192,-0.317991632,1,0,0,0.835,button_left,0.835,0,,,,,,40,WORD,"ID",50,convey,CONVEY,m,,,,,,-0.424686192,-0.317991632,1,0,0,,0,108,108,99,1,
,,,,,,,,,,,,,,,,,,5cc96a6b5a7979000176e0cc,2020-08-08_10h25.34.865,lexical_decision_task_MP,2020.1.3,iPhone,60,,0,0.510460251,-0.311715481,1,0,0,0.66,button_right,0.66,1,,,,,,186,WORD,"ID",33,portal,PORTAL,m,,,,,,0.510460251,-0.311715481,1,0,0,,0,109,109,5,1,
,,,,,,,,,,,,,,,,,,5cc96a6b5a7979000176e0cc,2020-08-08_10h25.34.865,lexical_decision_task_MP,2020.1.3,iPhone,60,,0,-0.405857741,-0.313807531,1,0,0,1.648,button_left,1.648,0,,,,,,163,WORD,UN,50,market,STRING,m,,,,,,-0.405857741,-0.313807531,1,0,0,,0,110,110,222,1,
,,,,,,,,,,,,,,,,,,5cc96a6b5a7979000176e0cc,2020-08-08_10h25.34.865,lexical_decision_task_MP,2020.1.3,iPhone,60,,0,-0.412133891,-0.322175732,1,0,0,0.694,button_left,0.694,1,,,,,,255,NW,"ID",50,apight,APIGHT,z,,,,,,-0.412133891,-0.322175732,1,0,0,,0,111,111,314,1,
,,,,,,,,,,,,,,,,,,5cc96a6b5a7979000176e0cc,2020-08-08_10h25.34.865,lexical_decision_task_MP,2020.1.3,iPhone,60,,0,-0.407949791,-0.307531381,1,0,0,0.57,button_left,0.57,1,,,,,,475,NW,"ID",33,pebric,PEBRIC,z,,,,,,-0.407949791,-0.307531381,1,0,0,,0,112,112,294,1,
,,,,,,,,,,,,,,,,,,5cc96a6b5a7979000176e0cc,2020-08-08_10h25.34.865,lexical_decision_task_MP,2020.1.3,iPhone,60,,0,0.449790795,-0.315899582,1,0,0,0.72,button_right,0.72,1,,,,,,87,WORD,UN,33,sprawl,FILTER,m,,,,,,0.449790795,-0.315899582,1,0,0,,0,113,113,146,1,
,,,,,,,,,,,,,,,,,,5cc96a6b5a7979000176e0cc,2020-08-08_10h25.34.865,lexical_decision_task_MP,2020.1.3,iPhone,60,,0,-0.39539749,-0.271966527,1,0,0,0.863,button_left,0.863,1,,,,,,338,NW,UN,33,fachow,WREASH,z,,,,,,-0.39539749,-0.271966527,1,0,0,,0,114,114,397,1,
,,,,,,,,,,,,,,,,,,5cc96a6b5a7979000176e0cc,2020-08-08_10h25.34.865,lexical_decision_task_MP,2020.1.3,iPhone,60,,0,0.468619247,-0.263598326,1,0,0,0.62,button_right,0.62,1,,,,,,98,WORD,UN,33,fluent,BELONG,m,,,,,,0.468619247,-0.263598326,1,0,0,,0,115,115,157,1,
,,,,,,,,,,,,,,,,,,5cc96a6b5a7979000176e0cc,2020-08-08_10h25.34.865,lexical_decision_task_MP,2020.1.3,iPhone,60,,0,-0.405857741,-0.305439331,1,0,0,0.638,button_left,0.638,1,,,,,,293,NW,"ID",50,swance,SWANCE,z,,,,,,-0.405857741,-0.305439331,1,0,0,,0,116,116,352,1,
,,,,,,,,,,,,,,,,,,5cc96a6b5a7979000176e0cc,2020-08-08_10h25.34.865,lexical_decision_task_MP,2020.1.3,iPhone,60,,0,-0.407949791,-0.330543933,1,0,0,0.666,button_left,0.666,1,,,,,,292,NW,"ID",50,ablint,ABLINT,z,,,,,,-0.407949791,-0.330543933,1,0,0,,0,117,117,351,1,
,,,,,,,,,,,,,,,,,,5cc96a6b5a7979000176e0cc,2020-08-08_10h25.34.865,lexical_decision_task_MP,2020.1.3,iPhone,60,,0,0.491631799,-0.278242678,1,0,0,1.259,button_right,1.259,0,,,,,,408,NW,UN,50,elopia,HURNIA,z,,,,,,0.491631799,-0.278242678,1,0,0,,0,118,118,467,1,
,,,,,,,,,,,,,,,,,,5cc96a6b5a7979000176e0cc,2020-08-08_10h25.34.865,lexical_decision_task_MP,2020.1.3,iPhone,60,,0,-0.449790795,-0.280334728,1,0,0,0.987,button_left,0.987,1,,,,,,274,NW,"ID",50,fumblo,FUMBLO,z,,,,,,-0.449790795,-0.280334728,1,0,0,,0,119,119,333,1,
,,,,,,,,,,,,,,,,,,5cc96a6b5a7979000176e0cc,2020-08-08_10h25.34.865,lexical_decision_task_MP,2020.1.3,iPhone,60,,0,0.458158996,-0.313807531,1,0,0,0.59,button_right,0.59,1,,,,,,132,WORD,UN,50,orphan,STRONG,m,,,,,,0.074489796,-0.395408163,1,0,0,,0,120,120,191,1,break_done_button
,,,,,,,,,,,,,,,,,,5cc96a6b5a7979000176e0cc,2020-08-08_10h25.34.865,lexical_decision_task_MP,2020.1.3,iPhone,60,,0,-0.42831216,-0.302177858,1,0,0,1.866,button_left,1.866,1,,,,,,425,NW,"ID",33,frudge,FRUDGE,z,,,,,,-0.42831216,-0.302177858,1,0,0,,0,121,121,244,1,
,,,,,,,,,,,,,,,,,,5cc96a6b5a7979000176e0cc,2020-08-08_10h25.34.865,lexical_decision_task_MP,2020.1.3,iPhone,60,,0,0.444646098,-0.254990926,1,0,0,0.639,button_right,0.639,1,,,,,,109,WORD,UN,33,polite,WONDER,m,,,,,,0.444646098,-0.254990926,1,0,0,,0,122,122,168,1,
,,,,,,,,,,,,,,,,,,5cc96a6b5a7979000176e0cc,2020-08-08_10h25.34.865,lexical_decision_task_MP,2020.1.3,iPhone,60,,0,-0.381125227,-0.329401089,1,0,0,0.603,button_left,0.603,1,,,,,,391,NW,UN,50,rouncy,THELDY,z,,,,,,-0.381125227,-0.329401089,1,0,0,,0,123,123,450,1,
,,,,,,,,,,,,,,,,,,5cc96a6b5a7979000176e0cc,2020-08-08_10h25.34.865,lexical_decision_task_MP,2020.1.3,iPhone,60,,0,-0.390199637,-0.247731397,1,0,0,0.581,button_left,0.581,1,,,,,,323,NW,UN,33,steikh,ROSAIL,z,,,,,,-0.390199637,-0.247731397,1,0,0,,0,124,124,382,1,
,,,,,,,,,,,,,,,,,,5cc96a6b5a7979000176e0cc,2020-08-08_10h25.34.865,lexical_decision_task_MP,2020.1.3,iPhone,60,,0,-0.397459165,-0.291288566,1,0,0,0.821,button_left,0.821,1,,,,,,398,NW,UN,50,fouret,BLUNDE,z,,,,,,-0.397459165,-0.291288566,1,0,0,,0,125,125,457,1,
,,,,,,,,,,,,,,,,,,5cc96a6b5a7979000176e0cc,2020-08-08_10h25.34.865,lexical_decision_task_MP,2020.1.3,iPhone,60,,0,-0.435571688,-0.323956443,1,0,0,0.719,button_left,0.719,0,,,,,,45,WORD,"ID",50,clergy,CLERGY,m,,,,,,-0.435571688,-0.323956443,1,0,0,,0,126,126,104,1,
,,,,,,,,,,,,,,,,,,5cc96a6b5a7979000176e0cc,2020-08-08_10h25.34.865,lexical_decision_task_MP,2020.1.3,iPhone,60,,0,0.453720508,-0.282214156,1,0,0,0.591,button_right,0.591,1,,,,,,238,WORD,"ID",33,flower,FLOWER,m,,,,,,0.453720508,-0.282214156,1,0,0,,0,127,127,57,1,
,,,,,,,,,,,,,,,,,,5cc96a6b5a7979000176e0cc,2020-08-08_10h25.34.865,lexical_decision_task_MP,2020.1.3,iPhone,60,,0,0.466424682,-0.262250454,1,0,0,0.731,button_right,0.731,1,,,,,,192,WORD,"ID",33,plague,PLAGUE,m,,,,,,0.466424682,-0.262250454,1,0,0,,0,128,128,11,1,
,,,,,,,,,,,,,,,,,,5cc96a6b5a7979000176e0cc,2020-08-08_10h25.34.865,lexical_decision_task_MP,2020.1.3,iPhone,60,,0,0.444646098,-0.302177858,1,0,0,0.918,button_right,0.918,1,,,,,,14,WORD,"ID",50,almost,ALMOST,m,,,,,,0.444646098,-0.302177858,1,0,0,,0,129,129,73,1,
,,,,,,,,,,,,,,,,,,5cc96a6b5a7979000176e0cc,2020-08-08_10h25.34.865,lexical_decision_task_MP,2020.1.3,iPhone,60,,0,-0.408348457,-0.302177858,1,0,0,0.653,button_left,0.653,1,,,,,,302,NW,UN,33,fiream,MILUER,z,,,,,,-0.408348457,-0.302177858,1,0,0,,0,130,130,361,1,
,,,,,,,,,,,,,,,,,,5cc96a6b5a7979000176e0cc,2020-08-08_10h25.34.865,lexical_decision_task_MP,2020.1.3,iPhone,60,,0,-0.373865699,-0.293103448,1,0,0,1.619,button_left,1.619,1,,,,,,423,NW,"ID",33,streld,STRELD,z,,,,,,-0.373865699,-0.293103448,1,0,0,,0,131,131,242,1,
,,,,,,,,,,,,,,,,,,5cc96a6b5a7979000176e0cc,2020-08-08_10h25.34.865,lexical_decision_task_MP,2020.1.3,iPhone,60,,0,-0.359346642,-0.323956443,1,0,0,0.619,button_left,0.619,1,,,,,,383,NW,UN,50,guesco,AUNGRE,z,,,,,,-0.359346642,-0.323956443,1,0,0,,0,132,132,442,1,
,,,,,,,,,,,,,,,,,,5cc96a6b5a7979000176e0cc,2020-08-08_10h25.34.865,lexical_decision_task_MP,2020.1.3,iPhone,60,,0,0.433756806,-0.298548094,1,0,0,0.752,button_right,0.752,1,,,,,,134,WORD,UN,50,import,STAPLE,m,,,,,,0.433756806,-0.298548094,1,0,0,,0,133,133,193,1,
,,,,,,,,,,,,,,,,,,5cc96a6b5a7979000176e0cc,2020-08-08_10h25.34.865,lexical_decision_task_MP,2020.1.3,iPhone,60,,0,0.439201452,-0.316696915,1,0,0,0.584,button_right,0.584,1,,,,,,212,WORD,"ID",33,verify,VERIFY,m,,,,,,0.439201452,-0.316696915,1,0,0,,0,134,134,31,1,
,,,,,,,,,,,,,,,,,,5cc96a6b5a7979000176e0cc,2020-08-08_10h25.34.865,lexical_decision_task_MP,2020.1.3,iPhone,60,,0,,,,,,,,0.584,-1,,,,,,141,WORD,UN,50,spruce,ORPHAN,m,,,,,,0.439201452,-0.316696915,0,0,0,,0,135,135,200,1,
,,,,,,,,,,,,,,,,,,5cc96a6b5a7979000176e0cc,2020-08-08_10h25.34.865,lexical_decision_task_MP,2020.1.3,iPhone,60,,0,,,,,,,,0.584,-1,,,,,,86,WORD,UN,33,filter,RODENT,m,,,,,,0.439201452,-0.316696915,0,0,0,,0,136,136,145,1,
,,,,,,,,,,,,,,,,,,5cc96a6b5a7979000176e0cc,2020-08-08_10h25.34.865,lexical_decision_task_MP,2020.1.3,iPhone,60,,0,,,,,,,,0.584,-1,,,,,,50,WORD,"ID",50,snatch,SNATCH,m,,,,,,0.439201452,-0.316696915,0,0,0,,0,137,137,109,1,
,,,,,,,,,,,,,,,,,,5cc96a6b5a7979000176e0cc,2020-08-08_10h25.34.865,lexical_decision_task_MP,2020.1.3,iPhone,60,,0,,,,,,,,0.584,-1,,,,,,171,WORD,UN,50,patrol,DEPART,m,,,,,,0.439201452,-0.316696915,0,0,0,,0,138,138,230,1,
,,,,,,,,,,,,,,,,,,5cc96a6b5a7979000176e0cc,2020-08-08_10h25.34.865,lexical_decision_task_MP,2020.1.3,iPhone,60,,0,,,,,,,,0.584,-1,,,,,,122,WORD,UN,50,strike,LINGER,m,,,,,,0.439201452,-0.316696915,0,0,0,,0,139,139,181,1,
,,,,,,,,,,,,,,,,,,5cc96a6b5a7979000176e0cc,2020-08-08_10h25.34.865,lexical_decision_task_MP,2020.1.3,iPhone,60,,0,,,,,,,,0.584,-1,,,,,,480,NW,"ID",33,robuly,ROBULY,z,,,,,,0.439201452,-0.316696915,0,0,0,,0,140,140,299,1,
,,,,,,,,,,,,,,,,,,5cc96a6b5a7979000176e0cc,2020-08-08_10h25.34.865,lexical_decision_task_MP,2020.1.3,iPhone,60,,0,0.460980036,-0.242286751,1,0,0,1.341,button_right,1.341,1,,,,,,115,WORD,UN,33,tumble,GUITAR,m,,,,,,0.460980036,-0.242286751,1,0,0,,0,141,141,174,1,
,,,,,,,,,,,,,,,,,,5cc96a6b5a7979000176e0cc,2020-08-08_10h25.34.865,lexical_decision_task_MP,2020.1.3,iPhone,60,,0,0.468239564,-0.242286751,1,0,0,0.718,button_right,0.718,1,,,,,,37,WORD,"ID",50,insult,INSULT,m,,,,,,0.468239564,-0.242286751,1,0,0,,0,142,142,96,1,
,,,,,,,,,,,,,,,,,,5cc96a6b5a7979000176e0cc,2020-08-08_10h25.34.865,lexical_decision_task_MP,2020.1.3,iPhone,60,,0,0.421052632,-0.293103448,1,0,0,1.21,button_right,1.21,1,,,,,,162,WORD,UN,50,string,CANDLE,m,,,,,,0.421052632,-0.293103448,1,0,0,,0,143,143,221,1,
,,,,,,,,,,,,,,,,,,5cc96a6b5a7979000176e0cc,2020-08-08_10h25.34.865,lexical_decision_task_MP,2020.1.3,iPhone,60,,0,-0.408348457,-0.244101633,1,0,0,1.157,button_left,1.157,0,,,,,,176,WORD,UN,50,advent,STRIFE,m,,,,,,-0.408348457,-0.244101633,1,0,0,,0,144,144,235,1,
,,,,,,,,,,,,,,,,,,5cc96a6b5a7979000176e0cc,2020-08-08_10h25.34.865,lexical_decision_task_MP,2020.1.3,iPhone,60,,0,-0.375680581,-0.342105263,1,0,0,0.913,button_left,0.913,1,,,,,,415,NW,UN,50,pathel,HIGSTA,z,,,,,,-0.375680581,-0.342105263,1,0,0,,0,145,145,474,1,
,,,,,,,,,,,,,,,,,,5cc96a6b5a7979000176e0cc,2020-08-08_10h25.34.865,lexical_decision_task_MP,2020.1.3,iPhone,60,,0,,,,,,,,0.913,-1,,,,,,311,NW,UN,33,nerawl,SPROLY,z,,,,,,-0.375680581,-0.342105263,0,0,0,,0,146,146,370,1,
,,,,,,,,,,,,,,,,,,5cc96a6b5a7979000176e0cc,2020-08-08_10h25.34.865,lexical_decision_task_MP,2020.1.3,iPhone,60,,0,,,,,,,,0.913,-1,,,,,,461,NW,"ID",33,justre,JUSTRE,z,,,,,,-0.375680581,-0.342105263,0,0,0,,0,147,147,280,1,
,,,,,,,,,,,,,,,,,,5cc96a6b5a7979000176e0cc,2020-08-08_10h25.34.865,lexical_decision_task_MP,2020.1.3,iPhone,60,,0,,,,,,,,0.913,-1,,,,,,111,WORD,UN,33,breath,INDUCE,m,,,,,,-0.375680581,-0.342105263,0,0,0,,0,148,148,170,1,
,,,,,,,,,,,,,,,,,,5cc96a6b5a7979000176e0cc,2020-08-08_10h25.34.865,lexical_decision_task_MP,2020.1.3,iPhone,60,,0,,,,,,,,0.913,-1,,,,,,469,NW,"ID",33,padifs,PADIFS,z,,,,,,-0.375680581,-0.342105263,0,0,0,,0,149,149,288,1,
,,,,,,,,,,,,,,,,,,5cc96a6b5a7979000176e0cc,2020-08-08_10h25.34.865,lexical_decision_task_MP,2020.1.3,iPhone,60,,0,,,,,,,,0.913,-1,,,,,,371,NW,UN,50,ramily,GEILOY,z,,,,,,-0.375680581,-0.342105263,0,0,0,,0,150,150,430,1,
,,,,,,,,,,,,,,,,,,5cc96a6b5a7979000176e0cc,2020-08-08_10h25.34.865,lexical_decision_task_MP,2020.1.3,iPhone,60,,0,,,,,,,,0.913,-1,,,,,,208,WORD,"ID",33,hockey,HOCKEY,m,,,,,,-0.375680581,-0.342105263,0,0,0,,0,151,151,27,1,
,,,,,,,,,,,,,,,,,,5cc96a6b5a7979000176e0cc,2020-08-08_10h25.34.865,lexical_decision_task_MP,2020.1.3,iPhone,60,,0,,,,,,,,0.913,-1,,,,,,164,WORD,UN,50,invest,MARKET,m,,,,,,-0.375680581,-0.342105263,0,0,0,,0,152,152,223,1,
,,,,,,,,,,,,,,,,,,5cc96a6b5a7979000176e0cc,2020-08-08_10h25.34.865,lexical_decision_task_MP,2020.1.3,iPhone,60,,0,-0.442831216,-0.289473684,1,0,0,0.915,button_left,0.915,1,,,,,,301,NW,UN,33,miluer,FAINCH,z,,,,,,-0.442831216,-0.289473684,1,0,0,,0,153,153,360,1,
,,,,,,,,,,,,,,,,,,5cc96a6b5a7979000176e0cc,2020-08-08_10h25.34.865,lexical_decision_task_MP,2020.1.3,iPhone,60,,0,,,,,,,,0.915,-1,,,,,,380,NW,UN,50,huniek,CAVORY,z,,,,,,-0.442831216,-0.289473684,0,0,0,,0,154,154,439,1,
,,,,,,,,,,,,,,,,,,5cc96a6b5a7979000176e0cc,2020-08-08_10h25.34.865,lexical_decision_task_MP,2020.1.3,iPhone,60,,0,,,,,,,,0.915,-1,,,,,,180,WORD,UN,50,thrive,SILENT,m,,,,,,-0.442831216,-0.289473684,0,0,0,,0,155,155,239,1,
,,,,,,,,,,,,,,,,,,5cc96a6b5a7979000176e0cc,2020-08-08_10h25.34.865,lexical_decision_task_MP,2020.1.3,iPhone,60,,0,0.430127042,-0.287658802,1,0,0,0.842,button_right,0.842,1,,,,,,124,WORD,UN,50,nickel,BLOUSE,m,,,,,,0.430127042,-0.287658802,1,0,0,,0,156,156,183,1,
,,,,,,,,,,,,,,,,,,5cc96a6b5a7979000176e0cc,2020-08-08_10h25.34.865,lexical_decision_task_MP,2020.1.3,iPhone,60,,0,-0.413793103,-0.351179673,1,0,0,0.726,button_left,0.726,1,,,,,,358,NW,UN,33,fonver,FLEACK,z,,,,,,-0.413793103,-0.351179673,1,0,0,,0,157,157,417,1,
,,,,,,,,,,,,,,,,,,5cc96a6b5a7979000176e0cc,2020-08-08_10h25.34.865,lexical_decision_task_MP,2020.1.3,iPhone,60,,0,-0.382940109,-0.30399274,1,0,0,0.62,button_left,0.62,1,,,,,,452,NW,"ID",33,surden,SURDEN,z,,,,,,-0.382940109,-0.30399274,1,0,0,,0,158,158,271,1,
,,,,,,,,,,,,,,,,,,5cc96a6b5a7979000176e0cc,2020-08-08_10h25.34.865,lexical_decision_task_MP,2020.1.3,iPhone,60,,0,0.431941924,-0.274954628,1,0,0,1.002,button_right,1.002,1,,,,,,120,WORD,UN,33,ponder,STRAIN,m,,,,,,0.431941924,-0.274954628,1,0,0,,0,159,159,179,1,
,,,,,,,,,,,,,,,,,,5cc96a6b5a7979000176e0cc,2020-08-08_10h25.34.865,lexical_decision_task_MP,2020.1.3,iPhone,60,,0,0.43738657,-0.242286751,1,0,0,1.071,button_right,1.071,1,,,,,,155,WORD,UN,50,cradle,LIZARD,m,,,,,,0.43738657,-0.242286751,1,0,0,,0,160,160,214,1,
,,,,,,,,,,,,,,,,,,5cc96a6b5a7979000176e0cc,2020-08-08_10h25.34.865,lexical_decision_task_MP,2020.1.3,iPhone,60,,0,-0.388384755,-0.282214156,1,0,0,0.691,button_left,0.691,1,,,,,,394,NW,UN,50,colury,SPAQUX,z,,,,,,-0.388384755,-0.282214156,1,0,0,,0,161,161,453,1,
,,,,,,,,,,,,,,,,,,5cc96a6b5a7979000176e0cc,2020-08-08_10h25.34.865,lexical_decision_task_MP,2020.1.3,iPhone,60,,0,-0.404718693,-0.313067151,1,0,0,0.698,button_left,0.698,1,,,,,,418,NW,UN,50,slount,SUIDLE,z,,,,,,-0.404718693,-0.313067151,1,0,0,,0,162,162,477,1,
,,,,,,,,,,,,,,,,,,5cc96a6b5a7979000176e0cc,2020-08-08_10h25.34.865,lexical_decision_task_MP,2020.1.3,iPhone,60,,0,0.459165154,-0.30399274,1,0,0,0.924,button_right,0.924,0,,,,,,420,NW,UN,50,pauche,GUSHOP,z,,,,,,0.459165154,-0.30399274,1,0,0,,0,163,163,479,1,
,,,,,,,,,,,,,,,,,,5cc96a6b5a7979000176e0cc,2020-08-08_10h25.34.865,lexical_decision_task_MP,2020.1.3,iPhone,60,,0,-0.386569873,-0.318511797,1,0,0,1.176,button_left,1.176,1,,,,,,297,NW,"ID",50,fertic,FERTIC,z,,,,,,-0.386569873,-0.318511797,1,0,0,,0,164,164,356,1,
,,,,,,,,,,,,,,,,,,5cc96a6b5a7979000176e0cc,2020-08-08_10h25.34.865,lexical_decision_task_MP,2020.1.3,iPhone,60,,0,-0.417422868,-0.316696915,1,0,0,1.325,button_left,1.325,1,,,,,,244,NW,"ID",50,eatric,EATRIC,z,,,,,,-0.417422868,-0.316696915,1,0,0,,0,165,165,303,1,
,,,,,,,,,,,,,,,,,,5cc96a6b5a7979000176e0cc,2020-08-08_10h25.34.865,lexical_decision_task_MP,2020.1.3,iPhone,60,,0,0.460980036,-0.296733212,1,0,0,0.806,button_right,0.806,1,,,,,,102,WORD,UN,33,bounce,DIRECT,m,,,,,,0.460980036,-0.296733212,1,0,0,,0,166,166,161,1,
,,,,,,,,,,,,,,,,,,5cc96a6b5a7979000176e0cc,2020-08-08_10h25.34.865,lexical_decision_task_MP,2020.1.3,iPhone,60,,0,,,,,,,,0.806,-1,,,,,,112,WORD,UN,33,chorus,BREATH,m,,,,,,0.460980036,-0.296733212,0,0,0,,0,167,167,171,1,
,,,,,,,,,,,,,,,,,,5cc96a6b5a7979000176e0cc,2020-08-08_10h25.34.865,lexical_decision_task_MP,2020.1.3,iPhone,60,,0,0.433756806,-0.289473684,1,0,0,0.652,button_right,0.652,1,,,,,,154,WORD,UN,50,lizard,AUTHOR,m,,,,,,0.433756806,-0.289473684,1,0,0,,0,168,168,213,1,
,,,,,,,,,,,,,,,,,,5cc96a6b5a7979000176e0cc,2020-08-08_10h25.34.865,lexical_decision_task_MP,2020.1.3,iPhone,60,,0,-0.417422868,-0.289473684,1,0,0,1.059,button_left,1.059,1,,,,,,443,NW,"ID",33,dorsex,DORSEX,z,,,,,,-0.417422868,-0.289473684,1,0,0,,0,169,169,262,1,
,,,,,,,,,,,,,,,,,,5cc96a6b5a7979000176e0cc,2020-08-08_10h25.34.865,lexical_decision_task_MP,2020.1.3,iPhone,60,,0,0.424682396,-0.318511797,1,0,0,0.472,button_right,0.472,1,,,,,,60,WORD,"ID",50,pencil,PENCIL,m,,,,,,0.424682396,-0.318511797,1,0,0,,0,170,170,119,1,
,,,,,,,,,,,,,,,,,,5cc96a6b5a7979000176e0cc,2020-08-08_10h25.34.865,lexical_decision_task_MP,2020.1.3,iPhone,60,,0,-0.413793103,-0.28584392,1,0,0,0.708,button_left,0.708,1,,,,,,403,NW,UN,50,cluirm,BRUATS,z,,,,,,-0.413793103,-0.28584392,1,0,0,,0,171,171,462,1,
,,,,,,,,,,,,,,,,,,5cc96a6b5a7979000176e0cc,2020-08-08_10h25.34.865,lexical_decision_task_MP,2020.1.3,iPhone,60,,0,0.453720508,-0.307622505,1,0,0,0.669,button_right,0.669,1,,,,,,191,WORD,"ID",33,stable,STABLE,m,,,,,,0.453720508,-0.307622505,1,0,0,,0,172,172,10,1,
,,,,,,,,,,,,,,,,,,5cc96a6b5a7979000176e0cc,2020-08-08_10h25.34.865,lexical_decision_task_MP,2020.1.3,iPhone,60,,0,-0.399274047,-0.327586207,1,0,0,1.402,button_left,1.402,1,,,,,,354,NW,UN,33,zingly,VIRLEX,z,,,,,,-0.399274047,-0.327586207,1,0,0,,0,173,173,413,1,
,,,,,,,,,,,,,,,,,,5cc96a6b5a7979000176e0cc,2020-08-08_10h25.34.865,lexical_decision_task_MP,2020.1.3,iPhone,60,,0,0.45553539,-0.254990926,1,0,0,0.79,button_right,0.79,1,,,,,,142,WORD,UN,50,reason,SPRUCE,m,,,,,,0.45553539,-0.254990926,1,0,0,,0,174,174,201,1,
,,,,,,,,,,,,,,,,,,5cc96a6b5a7979000176e0cc,2020-08-08_10h25.34.865,lexical_decision_task_MP,2020.1.3,iPhone,60,,0,-0.426497278,-0.323956443,1,0,0,0.654,button_left,0.654,1,,,,,,287,NW,"ID",50,nymbel,NYMBEL,z,,,,,,-0.426497278,-0.323956443,1,0,0,,0,175,175,346,1,
,,,,,,,,,,,,,,,,,,5cc96a6b5a7979000176e0cc,2020-08-08_10h25.34.865,lexical_decision_task_MP,2020.1.3,iPhone,60,,0,-0.381125227,-0.273139746,1,0,0,0.772,button_left,0.772,1,,,,,,307,NW,UN,33,psetch,KIRAFE,z,,,,,,-0.381125227,-0.273139746,1,0,0,,0,176,176,366,1,
,,,,,,,,,,,,,,,,,,5cc96a6b5a7979000176e0cc,2020-08-08_10h25.34.865,lexical_decision_task_MP,2020.1.3,iPhone,60,,0,0.451905626,-0.307622505,1,0,0,0.618,button_right,0.618,1,,,,,,148,WORD,UN,50,invade,CUSTOM,m,,,,,,0.451905626,-0.307622505,1,0,0,,0,177,177,207,1,
,,,,,,,,,,,,,,,,,,5cc96a6b5a7979000176e0cc,2020-08-08_10h25.34.865,lexical_decision_task_MP,2020.1.3,iPhone,60,,0,-0.413793103,-0.336660617,1,0,0,0.649,button_left,0.649,1,,,,,,387,NW,UN,50,cragin,GRONCE,z,,,,,,-0.413793103,-0.336660617,1,0,0,,0,178,178,446,1,
,,,,,,,,,,,,,,,,,,5cc96a6b5a7979000176e0cc,2020-08-08_10h25.34.865,lexical_decision_task_MP,2020.1.3,iPhone,60,,0,0.441016334,-0.29491833,1,0,0,0.525,button_right,0.525,1,,,,,,80,WORD,UN,33,friend,FAMILY,m,,,,,,0.441016334,-0.29491833,1,0,0,,0,179,179,139,1,
,,,,,,,,,,,,,,,,,,5cc96a6b5a7979000176e0cc,2020-08-08_10h25.34.865,lexical_decision_task_MP,2020.1.3,iPhone,60,,0,-0.395644283,-0.323956443,1,0,0,0.645,button_left,0.645,0,,,,,,6,WORD,"ID",50,bundle,BUNDLE,m,,,,,,-0.395644283,-0.323956443,1,0,0,,0,180,180,65,1,
,,,,,,,,,,,,,,,,,,5cc96a6b5a7979000176e0cc,2020-08-08_10h25.34.865,lexical_decision_task_MP,2020.1.3,iPhone,60,,0,0.471869328,-0.327586207,1,0,0,0.689,button_right,0.689,1,,,,,,130,WORD,UN,50,quench,STUPID,m,,,,,,0.471869328,-0.327586207,1,0,0,,0,181,181,189,1,
,,,,,,,,,,,,,,,,,,5cc96a6b5a7979000176e0cc,2020-08-08_10h25.34.865,lexical_decision_task_MP,2020.1.3,iPhone,60,,0,0.477313975,-0.322141561,1,0,0,0.586,button_right,0.586,1,,,,,,94,WORD,UN,33,thread,TRAVEL,m,,,,,,0.477313975,-0.322141561,1,0,0,,0,182,182,153,1,
,,,,,,,,,,,,,,,,,,5cc96a6b5a7979000176e0cc,2020-08-08_10h25.34.865,lexical_decision_task_MP,2020.1.3,iPhone,60,,0,0.479128857,-0.323956443,1,0,0,0.958,button_right,0.958,1,,,,,,169,WORD,UN,50,pounce,GENIUS,m,,,,,,0.479128857,-0.323956443,1,0,0,,0,183,183,228,1,
,,,,,,,,,,,,,,,,,,5cc96a6b5a7979000176e0cc,2020-08-08_10h25.34.865,lexical_decision_task_MP,2020.1.3,iPhone,60,,0,0.480943739,-0.320326679,1,0,0,0.634,button_right,0.634,1,,,,,,89,WORD,UN,33,relish,PERMIT,m,,,,,,0.480943739,-0.320326679,1,0,0,,0,184,184,148,1,
,,,,,,,,,,,,,,,,,,5cc96a6b5a7979000176e0cc,2020-08-08_10h25.34.865,lexical_decision_task_MP,2020.1.3,iPhone,60,,0,0.480943739,-0.320326679,1,0,0,0.601,button_right,0.601,1,,,,,,123,WORD,UN,50,blouse,STRIKE,m,,,,,,0.480943739,-0.320326679,1,0,0,,0,185,185,182,1,
,,,,,,,,,,,,,,,,,,5cc96a6b5a7979000176e0cc,2020-08-08_10h25.34.865,lexical_decision_task_MP,2020.1.3,iPhone,60,,0,0.497277677,-0.311252269,1,0,0,0.574,button_right,0.574,1,,,,,,215,WORD,"ID",33,phobia,PHOBIA,m,,,,,,0.497277677,-0.311252269,1,0,0,,0,186,186,34,1,
,,,,,,,,,,,,,,,,,,5cc96a6b5a7979000176e0cc,2020-08-08_10h25.34.865,lexical_decision_task_MP,2020.1.3,iPhone,60,,0,-0.388384755,-0.320326679,1,0,0,0.636,button_left,0.636,1,,,,,,465,NW,"ID",33,whivex,WHIVEX,z,,,,,,-0.388384755,-0.320326679,1,0,0,,0,187,187,284,1,
,,,,,,,,,,,,,,,,,,5cc96a6b5a7979000176e0cc,2020-08-08_10h25.34.865,lexical_decision_task_MP,2020.1.3,iPhone,60,,0,-0.377495463,-0.313067151,1,0,0,0.66,button_left,0.66,1,,,,,,393,NW,UN,50,spaqux,GANOUS,z,,,,,,-0.377495463,-0.313067151,1,0,0,,0,188,188,452,1,
,,,,,,,,,,,,,,,,,,5cc96a6b5a7979000176e0cc,2020-08-08_10h25.34.865,lexical_decision_task_MP,2020.1.3,iPhone,60,,0,0.471869328,-0.305807623,1,0,0,0.726,button_right,0.726,1,,,,,,220,WORD,"ID",33,voyage,VOYAGE,m,,,,,,0.471869328,-0.305807623,1,0,0,,0,189,189,39,1,
,,,,,,,,,,,,,,,,,,5cc96a6b5a7979000176e0cc,2020-08-08_10h25.34.865,lexical_decision_task_MP,2020.1.3,iPhone,60,,0,-0.370235935,-0.314882033,1,0,0,0.864,button_left,0.864,1,,,,,,367,NW,UN,50,hornal,SLIQUE,z,,,,,,-0.370235935,-0.314882033,1,0,0,,0,190,190,426,1,
,,,,,,,,,,,,,,,,,,5cc96a6b5a7979000176e0cc,2020-08-08_10h25.34.865,lexical_decision_task_MP,2020.1.3,iPhone,60,,0,0.490018149,-0.311252269,1,0,0,0.497,button_right,0.497,1,,,,,,12,WORD,"ID",50,orange,ORANGE,m,,,,,,0.490018149,-0.311252269,1,0,0,,0,191,191,71,1,
,,,,,,,,,,,,,,,,,,5cc96a6b5a7979000176e0cc,2020-08-08_10h25.34.865,lexical_decision_task_MP,2020.1.3,iPhone,60,,0,-0.382940109,-0.305807623,1,0,0,0.924,button_left,0.924,1,,,,,,417,NW,UN,50,suidle,EAROUD,z,,,,,,-0.382940109,-0.305807623,1,0,0,,0,192,192,476,1,
,,,,,,,,,,,,,,,,,,5cc96a6b5a7979000176e0cc,2020-08-08_10h25.34.865,lexical_decision_task_MP,2020.1.3,iPhone,60,,0,-0.384754991,-0.318511797,1,0,0,0.681,button_left,0.681,1,,,,,,434,NW,"ID",33,pitrom,PITROM,z,,,,,,-0.384754991,-0.318511797,1,0,0,,0,193,193,253,1,
,,,,,,,,,,,,,,,,,,5cc96a6b5a7979000176e0cc,2020-08-08_10h25.34.865,lexical_decision_task_MP,2020.1.3,iPhone,60,,0,-0.377495463,-0.316696915,1,0,0,0.621,button_left,0.621,1,,,,,,318,NW,UN,33,zomber,REAGLY,z,,,,,,-0.377495463,-0.316696915,1,0,0,,0,194,194,377,1,
,,,,,,,,,,,,,,,,,,5cc96a6b5a7979000176e0cc,2020-08-08_10h25.34.865,lexical_decision_task_MP,2020.1.3,iPhone,60,,0,0.471869328,-0.298548094,1,0,0,0.787,button_right,0.787,1,,,,,,77,WORD,UN,33,column,RACKET,m,,,,,,0.471869328,-0.298548094,1,0,0,,0,195,195,136,1,
,,,,,,,,,,,,,,,,,,5cc96a6b5a7979000176e0cc,2020-08-08_10h25.34.865,lexical_decision_task_MP,2020.1.3,iPhone,60,,0,-0.392014519,-0.333030853,1,0,0,0.687,button_left,0.687,1,,,,,,439,NW,"ID",33,limpor,LIMPOR,z,,,,,,-0.392014519,-0.333030853,1,0,0,,0,196,196,258,1,
,,,,,,,,,,,,,,,,,,5cc96a6b5a7979000176e0cc,2020-08-08_10h25.34.865,lexical_decision_task_MP,2020.1.3,iPhone,60,,0,-0.382940109,-0.327586207,1,0,0,0.664,button_left,0.664,1,,,,,,335,NW,UN,33,ghodus,DESION,z,,,,,,-0.382940109,-0.327586207,1,0,0,,0,197,197,394,1,
,,,,,,,,,,,,,,,,,,5cc96a6b5a7979000176e0cc,2020-08-08_10h25.34.865,lexical_decision_task_MP,2020.1.3,iPhone,60,,0,0.473684211,-0.320326679,1,0,0,0.637,button_right,0.637,1,,,,,,113,WORD,UN,33,placid,CHORUS,m,,,,,,0.473684211,-0.320326679,1,0,0,,0,198,198,172,1,
,,,,,,,,,,,,,,,,,,5cc96a6b5a7979000176e0cc,2020-08-08_10h25.34.865,lexical_decision_task_MP,2020.1.3,iPhone,60,,0,0.471869328,-0.313067151,1,0,0,1.506,button_right,1.506,0,,,,,,454,NW,"ID",33,scouge,SCOUGE,z,,,,,,0.471869328,-0.313067151,1,0,0,,0,199,199,273,1,
,,,,,,,,,,,,,,,,,,5cc96a6b5a7979000176e0cc,2020-08-08_10h25.34.865,lexical_decision_task_MP,2020.1.3,iPhone,60,,0,0.479128857,-0.313067151,1,0,0,0.653,button_right,0.653,1,,,,,,106,WORD,UN,33,slogan,RANSOM,m,,,,,,0.479128857,-0.313067151,1,0,0,,0,200,200,165,1,
,,,,,,,,,,,,,,,,,,5cc96a6b5a7979000176e0cc,2020-08-08_10h25.34.865,lexical_decision_task_MP,2020.1.3,iPhone,60,,0,-0.392014519,-0.327586207,1,0,0,0.634,button_left,0.634,1,,,,,,298,NW,"ID",50,piergy,PIERGY,z,,,,,,-0.392014519,-0.327586207,1,0,0,,0,201,201,357,1,
,,,,,,,,,,,,,,,,,,5cc96a6b5a7979000176e0cc,2020-08-08_10h25.34.865,lexical_decision_task_MP,2020.1.3,iPhone,60,,0,0.450090744,-0.296733212,1,0,0,0.747,button_right,0.747,1,,,,,,140,WORD,UN,50,chrome,PRINCE,m,,,,,,0.450090744,-0.296733212,1,0,0,,0,202,202,199,1,
,,,,,,,,,,,,,,,,,,5cc96a6b5a7979000176e0cc,2020-08-08_10h25.34.865,lexical_decision_task_MP,2020.1.3,iPhone,60,,0,0.4646098,-0.305807623,1,0,0,0.641,button_right,0.641,1,,,,,,65,WORD,UN,33,gospel,SYMBOL,m,,,,,,0.4646098,-0.305807623,1,0,0,,0,203,203,124,1,
,,,,,,,,,,,,,,,,,,5cc96a6b5a7979000176e0cc,2020-08-08_10h25.34.865,lexical_decision_task_MP,2020.1.3,iPhone,60,,0,0.497277677,-0.311252269,1,0,0,1.023,button_right,1.023,1,,,,,,85,WORD,UN,33,rodent,SPRAWL,m,,,,,,0.497277677,-0.311252269,1,0,0,,0,204,204,144,1,
,,,,,,,,,,,,,,,,,,5cc96a6b5a7979000176e0cc,2020-08-08_10h25.34.865,lexical_decision_task_MP,2020.1.3,iPhone,60,,0,0.491833031,-0.313067151,1,0,0,0.48,button_right,0.48,1,,,,,,93,WORD,UN,33,travel,PUBLIC,m,,,,,,0.491833031,-0.313067151,1,0,0,,0,205,205,152,1,
,,,,,,,,,,,,,,,,,,5cc96a6b5a7979000176e0cc,2020-08-08_10h25.34.865,lexical_decision_task_MP,2020.1.3,iPhone,60,,0,-0.386569873,-0.327586207,1,0,0,0.782,button_left,0.782,1,,,,,,312,NW,UN,33,paurse,NERAWL,z,,,,,,-0.386569873,-0.327586207,1,0,0,,0,206,206,371,1,
,,,,,,,,,,,,,,,,,,5cc96a6b5a7979000176e0cc,2020-08-08_10h25.34.865,lexical_decision_task_MP,2020.1.3,iPhone,60,,0,0.460980036,-0.322141561,1,0,0,0.674,button_right,0.674,1,,,,,,73,WORD,UN,33,plaque,SOURCE,m,,,,,,0.460980036,-0.322141561,1,0,0,,0,207,207,132,1,
,,,,,,,,,,,,,,,,,,5cc96a6b5a7979000176e0cc,2020-08-08_10h25.34.865,lexical_decision_task_MP,2020.1.3,iPhone,60,,0,0.497277677,-0.300362976,1,0,0,0.857,button_right,0.857,1,,,,,,66,WORD,UN,33,policy,GOSPEL,m,,,,,,0.497277677,-0.300362976,1,0,0,,0,208,208,125,1,
,,,,,,,,,,,,,,,,,,5cc96a6b5a7979000176e0cc,2020-08-08_10h25.34.865,lexical_decision_task_MP,2020.1.3,iPhone,60,,0,0.451905626,-0.305807623,1,0,0,0.617,button_right,0.617,1,,,,,,240,WORD,"ID",33,forest,FOREST,m,,,,,,0.451905626,-0.305807623,1,0,0,,0,209,209,59,1,
,,,,,,,,,,,,,,,,,,5cc96a6b5a7979000176e0cc,2020-08-08_10h25.34.865,lexical_decision_task_MP,2020.1.3,iPhone,60,,0,0.462794918,-0.316696915,1,0,0,0.977,button_right,0.977,1,,,,,,57,WORD,"ID",50,change,CHANGE,m,,,,,,0.462794918,-0.316696915,1,0,0,,0,210,210,116,1,
,,,,,,,,,,,,,,,,,,5cc96a6b5a7979000176e0cc,2020-08-08_10h25.34.865,lexical_decision_task_MP,2020.1.3,iPhone,60,,0,0.45553539,-0.334845735,1,0,0,1.023,button_right,1.023,1,,,,,,78,WORD,UN,33,theory,COLUMN,m,,,,,,0.45553539,-0.334845735,1,0,0,,0,211,211,137,1,
,,,,,,,,,,,,,,,,,,5cc96a6b5a7979000176e0cc,2020-08-08_10h25.34.865,lexical_decision_task_MP,2020.1.3,iPhone,60,,0,-0.402903811,-0.323956443,1,0,0,0.769,button_left,0.769,1,,,,,,346,NW,UN,33,kerift,SAUDIC,z,,,,,,-0.402903811,-0.323956443,1,0,0,,0,212,212,405,1,
,,,,,,,,,,,,,,,,,,5cc96a6b5a7979000176e0cc,2020-08-08_10h25.34.865,lexical_decision_task_MP,2020.1.3,iPhone,60,,0,0.491833031,-0.327586207,1,0,0,0.554,button_right,0.554,1,,,,,,173,WORD,UN,50,turkey,SHOWER,m,,,,,,0.491833031,-0.327586207,1,0,0,,0,213,213,232,1,
,,,,,,,,,,,,,,,,,,5cc96a6b5a7979000176e0cc,2020-08-08_10h25.34.865,lexical_decision_task_MP,2020.1.3,iPhone,60,,0,0.466424682,-0.320326679,1,0,0,1.148,button_right,1.148,0,,,,,,411,NW,UN,50,jiluer,ORCHIN,z,,,,,,0.466424682,-0.320326679,1,0,0,,0,214,214,470,1,
,,,,,,,,,,,,,,,,,,5cc96a6b5a7979000176e0cc,2020-08-08_10h25.34.865,lexical_decision_task_MP,2020.1.3,iPhone,60,,0,0.45553539,-0.313067151,1,0,0,0.512,button_right,0.512,1,,,,,,58,WORD,"ID",50,foster,FOSTER,m,,,,,,0.45553539,-0.313067151,1,0,0,,0,215,215,117,1,
,,,,,,,,,,,,,,,,,,5cc96a6b5a7979000176e0cc,2020-08-08_10h25.34.865,lexical_decision_task_MP,2020.1.3,iPhone,60,,0,0.480943739,-0.322141561,1,0,0,0.537,button_right,0.537,1,,,,,,205,WORD,"ID",33,lounge,LOUNGE,m,,,,,,0.480943739,-0.322141561,1,0,0,,0,216,216,24,1,
,,,,,,,,,,,,,,,,,,5cc96a6b5a7979000176e0cc,2020-08-08_10h25.34.865,lexical_decision_task_MP,2020.1.3,iPhone,60,,0,0.480943739,-0.323956443,1,0,0,0.521,button_right,0.521,1,,,,,,209,WORD,"ID",33,search,SEARCH,m,,,,,,0.480943739,-0.323956443,1,0,0,,0,217,217,28,1,
,,,,,,,,,,,,,,,,,,5cc96a6b5a7979000176e0cc,2020-08-08_10h25.34.865,lexical_decision_task_MP,2020.1.3,iPhone,60,,0,0.473684211,-0.323956443,1,0,0,0.689,button_right,0.689,1,,,,,,203,WORD,"ID",33,phrase,PHRASE,m,,,,,,0.473684211,-0.323956443,1,0,0,,0,218,218,22,1,
,,,,,,,,,,,,,,,,,,5cc96a6b5a7979000176e0cc,2020-08-08_10h25.34.865,lexical_decision_task_MP,2020.1.3,iPhone,60,,0,0.462794918,-0.351179673,1,0,0,0.64,button_right,0.64,1,,,,,,55,WORD,"ID",50,stroke,STROKE,m,,,,,,0.462794918,-0.351179673,1,0,0,,0,219,219,114,1,
,,,,,,,,,,,,,,,,,,5cc96a6b5a7979000176e0cc,2020-08-08_10h25.34.865,lexical_decision_task_MP,2020.1.3,iPhone,60,,0,-0.399274047,-0.313067151,1,0,0,0.686,button_left,0.686,1,,,,,,256,NW,"ID",50,inlors,INLORS,z,,,,,,-0.399274047,-0.313067151,1,0,0,,0,220,220,315,1,
,,,,,,,,,,,,,,,,,,5cc96a6b5a7979000176e0cc,2020-08-08_10h25.34.865,lexical_decision_task_MP,2020.1.3,iPhone,60,,0,-0.399274047,-0.327586207,1,0,0,1.269,button_left,1.269,0,,,,,,67,WORD,UN,33,fumble,POLICY,m,,,,,,-0.399274047,-0.327586207,1,0,0,,0,221,221,126,1,
,,,,,,,,,,,,,,,,,,5cc96a6b5a7979000176e0cc,2020-08-08_10h25.34.865,lexical_decision_task_MP,2020.1.3,iPhone,60,,0,-0.368421053,-0.322141561,1,0,0,0.953,button_left,0.953,1,,,,,,281,NW,"ID",50,melaty,MELATY,z,,,,,,-0.368421053,-0.322141561,1,0,0,,0,222,222,340,1,
,,,,,,,,,,,,,,,,,,5cc96a6b5a7979000176e0cc,2020-08-08_10h25.34.865,lexical_decision_task_MP,2020.1.3,iPhone,60,,0,-0.397459165,-0.316696915,1,0,0,0.635,button_left,0.635,1,,,,,,351,NW,UN,33,tringe,TIESCH,z,,,,,,-0.397459165,-0.316696915,1,0,0,,0,223,223,410,1,
,,,,,,,,,,,,,,,,,,5cc96a6b5a7979000176e0cc,2020-08-08_10h25.34.865,lexical_decision_task_MP,2020.1.3,iPhone,60,,0,0.480943739,-0.318511797,1,0,0,0.538,button_right,0.538,1,,,,,,18,WORD,"ID",50,humble,HUMBLE,m,,,,,,0.480943739,-0.318511797,1,0,0,,0,224,224,77,1,
,,,,,,,,,,,,,,,,,,5cc96a6b5a7979000176e0cc,2020-08-08_10h25.34.865,lexical_decision_task_MP,2020.1.3,iPhone,60,,0,-0.404718693,-0.313067151,1,0,0,0.584,button_left,0.584,1,,,,,,385,NW,UN,50,ancust,VEIGMA,z,,,,,,-0.404718693,-0.313067151,1,0,0,,0,225,225,444,1,
,,,,,,,,,,,,,,,,,,5cc96a6b5a7979000176e0cc,2020-08-08_10h25.34.865,lexical_decision_task_MP,2020.1.3,iPhone,60,,0,-0.390199637,-0.322141561,1,0,0,0.594,button_left,0.594,1,,,,,,339,NW,UN,33,fiatch,FACHOW,z,,,,,,-0.390199637,-0.322141561,1,0,0,,0,226,226,398,1,
,,,,,,,,,,,,,,,,,,5cc96a6b5a7979000176e0cc,2020-08-08_10h25.34.865,lexical_decision_task_MP,2020.1.3,iPhone,60,,0,0.471869328,-0.307622505,1,0,0,0.592,button_right,0.592,1,,,,,,53,WORD,"ID",50,police,POLICE,m,,,,,,0.471869328,-0.307622505,1,0,0,,0,227,227,112,1,
,,,,,,,,,,,,,,,,,,5cc96a6b5a7979000176e0cc,2020-08-08_10h25.34.865,lexical_decision_task_MP,2020.1.3,iPhone,60,,0,0.495462795,-0.313067151,1,0,0,0.63,button_right,0.63,1,,,,,,33,WORD,"ID",50,butler,BUTLER,m,,,,,,0.495462795,-0.313067151,1,0,0,,0,228,228,92,1,
,,,,,,,,,,,,,,,,,,5cc96a6b5a7979000176e0cc,2020-08-08_10h25.34.865,lexical_decision_task_MP,2020.1.3,iPhone,60,,0,-0.395644283,-0.320326679,1,0,0,0.962,button_left,0.962,1,,,,,,448,NW,"ID",33,sadent,SADENT,z,,,,,,-0.395644283,-0.320326679,1,0,0,,0,229,229,267,1,
,,,,,,,,,,,,,,,,,,5cc96a6b5a7979000176e0cc,2020-08-08_10h25.34.865,lexical_decision_task_MP,2020.1.3,iPhone,60,,0,-0.395644283,-0.318511797,1,0,0,0.498,button_left,0.498,1,,,,,,344,NW,UN,33,absend,SCRILY,z,,,,,,-0.395644283,-0.318511797,1,0,0,,0,230,230,403,1,
,,,,,,,,,,,,,,,,,,5cc96a6b5a7979000176e0cc,2020-08-08_10h25.34.865,lexical_decision_task_MP,2020.1.3,iPhone,60,,0,0.4646098,-0.305807623,1,0,0,0.588,button_right,0.588,1,,,,,,233,WORD,"ID",33,nature,NATURE,m,,,,,,0.4646098,-0.305807623,1,0,0,,0,231,231,52,1,
,,,,,,,,,,,,,,,,,,5cc96a6b5a7979000176e0cc,2020-08-08_10h25.34.865,lexical_decision_task_MP,2020.1.3,iPhone,60,,0,0.480943739,-0.320326679,1,0,0,0.648,button_right,0.648,1,,,,,,17,WORD,"ID",50,charge,CHARGE,m,,,,,,0.480943739,-0.320326679,1,0,0,,0,232,232,76,1,
,,,,,,,,,,,,,,,,,,5cc96a6b5a7979000176e0cc,2020-08-08_10h25.34.865,lexical_decision_task_MP,2020.1.3,iPhone,60,,0,0.466424682,-0.289473684,1,0,0,0.688,button_right,0.688,1,,,,,,182,WORD,"ID",33,winter,WINTER,m,,,,,,0.466424682,-0.289473684,1,0,0,,0,233,233,1,1,
,,,,,,,,,,,,,,,,,,5cc96a6b5a7979000176e0cc,2020-08-08_10h25.34.865,lexical_decision_task_MP,2020.1.3,iPhone,60,,0,-0.402903811,-0.313067151,1,0,0,0.574,button_left,0.574,1,,,,,,246,NW,"ID",50,piaton,PIATON,z,,,,,,-0.402903811,-0.313067151,1,0,0,,0,234,234,305,1,
,,,,,,,,,,,,,,,,,,5cc96a6b5a7979000176e0cc,2020-08-08_10h25.34.865,lexical_decision_task_MP,2020.1.3,iPhone,60,,0,-0.373865699,-0.305807623,1,0,0,0.698,button_left,0.698,1,,,,,,474,NW,"ID",33,hablin,HABLIN,z,,,,,,-0.373865699,-0.305807623,1,0,0,,0,235,235,293,1,
,,,,,,,,,,,,,,,,,,5cc96a6b5a7979000176e0cc,2020-08-08_10h25.34.865,lexical_decision_task_MP,2020.1.3,iPhone,60,,0,-0.402903811,-0.316696915,1,0,0,0.626,button_left,0.626,1,,,,,,375,NW,UN,50,iguare,YORQUE,z,,,,,,-0.402903811,-0.316696915,1,0,0,,0,236,236,434,1,
,,,,,,,,,,,,,,,,,,5cc96a6b5a7979000176e0cc,2020-08-08_10h25.34.865,lexical_decision_task_MP,2020.1.3,iPhone,60,,0,-0.395644283,-0.313067151,1,0,0,0.491,button_left,0.491,1,,,,,,430,NW,"ID",33,caroey,CAROEY,z,,,,,,-0.395644283,-0.313067151,1,0,0,,0,237,237,249,1,
,,,,,,,,,,,,,,,,,,5cc96a6b5a7979000176e0cc,2020-08-08_10h25.34.865,lexical_decision_task_MP,2020.1.3,iPhone,60,,0,0.44646098,-0.282214156,1,0,0,0.457,button_right,0.457,1,,,,,,59,WORD,"ID",50,splint,SPLINT,m,,,,,,0.44646098,-0.282214156,1,0,0,,0,238,238,118,1,
,,,,,,,,,,,,,,,,,,5cc96a6b5a7979000176e0cc,2020-08-08_10h25.34.865,lexical_decision_task_MP,2020.1.3,iPhone,60,,0,-0.384754991,-0.307622505,1,0,0,0.513,button_left,0.513,1,,,,,,341,NW,UN,33,randow,MYRTIE,z,,,,,,-0.384754991,-0.307622505,1,0,0,,0,239,239,400,1,
,,,,,,,,,,,,,,,,,,5cc96a6b5a7979000176e0cc,2020-08-08_10h25.34.865,lexical_decision_task_MP,2020.1.3,iPhone,60,,0,0.486388385,-0.307622505,1,0,0,0.654,button_right,0.654,1,,,,,,103,WORD,UN,33,studio,BOUNCE,m,,,,,,0.486388385,-0.307622505,1,0,0,,0,240,240,162,1,
,,,,,,,,,,,,,,,,,,5cc96a6b5a7979000176e0cc,2020-08-08_10h25.34.865,lexical_decision_task_MP,2020.1.3,iPhone,60,,0,-0.397459165,-0.287658802,1,0,0,0.805,button_left,0.805,1,,,,,,458,NW,"ID",33,barcet,BARCET,z,,,,,,0.062244898,-0.365816327,1,0,0,,0,241,241,277,1,break_done_button
,,,,,,,,,,,,,,,,,,5cc96a6b5a7979000176e0cc,2020-08-08_10h25.34.865,lexical_decision_task_MP,2020.1.3,iPhone,60,,0,0.406533575,-0.307622505,1,0,0,1.332,button_right,1.332,1,,,,,,177,WORD,UN,50,inform,ADVENT,m,,,,,,0.406533575,-0.307622505,1,0,0,,0,242,242,236,1,
,,,,,,,,,,,,,,,,,,5cc96a6b5a7979000176e0cc,2020-08-08_10h25.34.865,lexical_decision_task_MP,2020.1.3,iPhone,60,,0,0.408348457,-0.254990926,1,0,0,0.571,button_right,0.571,1,,,,,,88,WORD,UN,33,permit,HUNGER,m,,,,,,0.408348457,-0.254990926,1,0,0,,0,243,243,147,1,
,,,,,,,,,,,,,,,,,,5cc96a6b5a7979000176e0cc,2020-08-08_10h25.34.865,lexical_decision_task_MP,2020.1.3,iPhone,60,,0,-0.390199637,-0.313067151,1,0,0,0.616,button_left,0.616,1,,,,,,350,NW,UN,33,tiesch,NAGURS,z,,,,,,-0.390199637,-0.313067151,1,0,0,,0,244,244,409,1,
,,,,,,,,,,,,,,,,,,5cc96a6b5a7979000176e0cc,2020-08-08_10h25.34.865,lexical_decision_task_MP,2020.1.3,iPhone,60,,0,-0.392014519,-0.265880218,1,0,0,0.848,button_left,0.848,1,,,,,,395,NW,UN,50,flengy,COLURY,z,,,,,,-0.392014519,-0.265880218,1,0,0,,0,245,245,454,1,
,,,,,,,,,,,,,,,,,,5cc96a6b5a7979000176e0cc,2020-08-08_10h25.34.865,lexical_decision_task_MP,2020.1.3,iPhone,60,,0,-0.395644283,-0.293103448,1,0,0,0.487,button_left,0.487,1,,,,,,460,NW,"ID",33,mingar,MINGAR,z,,,,,,-0.395644283,-0.293103448,1,0,0,,0,246,246,279,1,
,,,,,,,,,,,,,,,,,,5cc96a6b5a7979000176e0cc,2020-08-08_10h25.34.865,lexical_decision_task_MP,2020.1.3,iPhone,60,,0,-0.397459165,-0.28584392,1,0,0,0.946,button_left,0.946,1,,,,,,472,NW,"ID",33,cigney,CIGNEY,z,,,,,,-0.397459165,-0.28584392,1,0,0,,0,247,247,291,1,
,,,,,,,,,,,,,,,,,,5cc96a6b5a7979000176e0cc,2020-08-08_10h25.34.865,lexical_decision_task_MP,2020.1.3,iPhone,60,,0,0.421052632,-0.231397459,1,0,0,0.487,button_right,0.487,1,,,,,,219,WORD,"ID",33,bucket,BUCKET,m,,,,,,0.421052632,-0.231397459,1,0,0,,0,248,248,38,1,
,,,,,,,,,,,,,,,,,,5cc96a6b5a7979000176e0cc,2020-08-08_10h25.34.865,lexical_decision_task_MP,2020.1.3,iPhone,60,,0,-0.397459165,-0.302177858,1,0,0,0.64,button_left,0.64,1,,,,,,326,NW,UN,33,plenac,IGUADE,z,,,,,,-0.397459165,-0.302177858,1,0,0,,0,249,249,385,1,
,,,,,,,,,,,,,,,,,,5cc96a6b5a7979000176e0cc,2020-08-08_10h25.34.865,lexical_decision_task_MP,2020.1.3,iPhone,60,,0,0.444646098,-0.287658802,1,0,0,0.619,button_right,0.619,0,,,,,,433,NW,"ID",33,drance,DRANCE,z,,,,,,0.444646098,-0.287658802,1,0,0,,0,250,250,252,1,
,,,,,,,,,,,,,,,,,,5cc96a6b5a7979000176e0cc,2020-08-08_10h25.34.865,lexical_decision_task_MP,2020.1.3,iPhone,60,,0,0.468239564,-0.313067151,1,0,0,0.67,button_right,0.67,1,,,,,,200,WORD,"ID",33,beacon,BEACON,m,,,,,,0.468239564,-0.313067151,1,0,0,,0,251,251,19,1,
,,,,,,,,,,,,,,,,,,5cc96a6b5a7979000176e0cc,2020-08-08_10h25.34.865,lexical_decision_task_MP,2020.1.3,iPhone,60,,0,-0.401088929,-0.309437387,1,0,0,0.619,button_left,0.619,1,,,,,,334,NW,UN,33,desion,WATMEG,z,,,,,,-0.401088929,-0.309437387,1,0,0,,0,252,252,393,1,
,,,,,,,,,,,,,,,,,,5cc96a6b5a7979000176e0cc,2020-08-08_10h25.34.865,lexical_decision_task_MP,2020.1.3,iPhone,60,,0,-0.382940109,-0.302177858,1,0,0,0.577,button_left,0.577,1,,,,,,327,NW,UN,33,broake,PLENAC,z,,,,,,-0.382940109,-0.302177858,1,0,0,,0,253,253,386,1,
,,,,,,,,,,,,,,,,,,5cc96a6b5a7979000176e0cc,2020-08-08_10h25.34.865,lexical_decision_task_MP,2020.1.3,iPhone,60,,0,-0.408348457,-0.302177858,1,0,0,0.692,button_left,0.692,1,,,,,,471,NW,"ID",33,nobest,NOBEST,z,,,,,,-0.408348457,-0.302177858,1,0,0,,0,254,254,290,1,
,,,,,,,,,,,,,,,,,,5cc96a6b5a7979000176e0cc,2020-08-08_10h25.34.865,lexical_decision_task_MP,2020.1.3,iPhone,60,,0,-0.406533575,-0.30399274,1,0,0,0.823,button_left,0.823,1,,,,,,263,NW,"ID",50,dolica,DOLICA,z,,,,,,-0.406533575,-0.30399274,1,0,0,,0,255,255,322,1,
,,,,,,,,,,,,,,,,,,5cc96a6b5a7979000176e0cc,2020-08-08_10h25.34.865,lexical_decision_task_MP,2020.1.3,iPhone,60,,0,0.477313975,-0.293103448,1,0,0,0.527,button_right,0.527,1,,,,,,147,WORD,UN,50,custom,GARLIC,m,,,,,,0.477313975,-0.293103448,1,0,0,,0,256,256,206,1,
,,,,,,,,,,,,,,,,,,5cc96a6b5a7979000176e0cc,2020-08-08_10h25.34.865,lexical_decision_task_MP,2020.1.3,iPhone,60,,0,0.480943739,-0.322141561,1,0,0,0.673,button_right,0.673,1,,,,,,172,WORD,UN,50,shower,PATROL,m,,,,,,0.480943739,-0.322141561,1,0,0,,0,257,257,231,1,
,,,,,,,,,,,,,,,,,,5cc96a6b5a7979000176e0cc,2020-08-08_10h25.34.865,lexical_decision_task_MP,2020.1.3,iPhone,60,,0,-0.377495463,-0.325771325,1,0,0,0.583,button_left,0.583,1,,,,,,440,NW,"ID",33,saride,SARIDE,z,,,,,,-0.377495463,-0.325771325,1,0,0,,0,258,258,259,1,
,,,,,,,,,,,,,,,,,,5cc96a6b5a7979000176e0cc,2020-08-08_10h25.34.865,lexical_decision_task_MP,2020.1.3,iPhone,60,,0,0.482758621,-0.284029038,1,0,0,0.465,button_right,0.465,0,,,,,,316,NW,UN,33,worbal,SCREGM,z,,,,,,0.482758621,-0.284029038,1,0,0,,0,259,259,375,1,
,,,,,,,,,,,,,,,,,,5cc96a6b5a7979000176e0cc,2020-08-08_10h25.34.865,lexical_decision_task_MP,2020.1.3,iPhone,60,,0,-0.392014519,-0.316696915,1,0,0,0.71,button_left,0.71,1,,,,,,421,NW,"ID",33,knisma,KNISMA,z,,,,,,-0.392014519,-0.316696915,1,0,0,,0,260,260,240,1,
,,,,,,,,,,,,,,,,,,5cc96a6b5a7979000176e0cc,2020-08-08_10h25.34.865,lexical_decision_task_MP,2020.1.3,iPhone,60,,0,0.477313975,-0.291288566,1,0,0,0.671,button_right,0.671,1,,,,,,43,WORD,"ID",50,tongue,TONGUE,m,,,,,,0.477313975,-0.291288566,1,0,0,,0,261,261,102,1,
,,,,,,,,,,,,,,,,,,5cc96a6b5a7979000176e0cc,2020-08-08_10h25.34.865,lexical_decision_task_MP,2020.1.3,iPhone,60,,0,-0.402903811,-0.29491833,1,0,0,0.567,button_left,0.567,1,,,,,,288,NW,"ID",50,yaceup,YACEUP,z,,,,,,-0.402903811,-0.29491833,1,0,0,,0,262,262,347,1,
,,,,,,,,,,,,,,,,,,5cc96a6b5a7979000176e0cc,2020-08-08_10h25.34.865,lexical_decision_task_MP,2020.1.3,iPhone,60,,0,-0.393829401,-0.309437387,1,0,0,0.534,button_left,0.534,1,,,,,,426,NW,"ID",33,urivel,URIVEL,z,,,,,,-0.393829401,-0.309437387,1,0,0,,0,263,263,245,1,
,,,,,,,,,,,,,,,,,,5cc96a6b5a7979000176e0cc,2020-08-08_10h25.34.865,lexical_decision_task_MP,2020.1.3,iPhone,60,,0,0.473684211,-0.282214156,1,0,0,0.708,button_right,0.708,1,,,,,,4,WORD,"ID",50,trench,TRENCH,m,,,,,,0.473684211,-0.282214156,1,0,0,,0,264,264,63,1,
,,,,,,,,,,,,,,,,,,5cc96a6b5a7979000176e0cc,2020-08-08_10h25.34.865,lexical_decision_task_MP,2020.1.3,iPhone,60,,0,-0.384754991,-0.307622505,1,0,0,0.6,button_left,0.6,1,,,,,,359,NW,UN,33,desory,FONVER,z,,,,,,-0.384754991,-0.307622505,1,0,0,,0,265,265,418,1,
,,,,,,,,,,,,,,,,,,5cc96a6b5a7979000176e0cc,2020-08-08_10h25.34.865,lexical_decision_task_MP,2020.1.3,iPhone,60,,0,0.466424682,-0.322141561,1,0,0,0.839,button_right,0.839,1,,,,,,187,WORD,"ID",33,course,COURSE,m,,,,,,0.466424682,-0.322141561,1,0,0,,0,266,266,6,1,
,,,,,,,,,,,,,,,,,,5cc96a6b5a7979000176e0cc,2020-08-08_10h25.34.865,lexical_decision_task_MP,2020.1.3,iPhone,60,,0,0.448275862,-0.298548094,1,0,0,0.573,button_right,0.573,1,,,,,,127,WORD,UN,50,senior,CASTLE,m,,,,,,0.448275862,-0.298548094,1,0,0,,0,267,267,186,1,
,,,,,,,,,,,,,,,,,,5cc96a6b5a7979000176e0cc,2020-08-08_10h25.34.865,lexical_decision_task_MP,2020.1.3,iPhone,60,,0,-0.401088929,-0.320326679,1,0,0,0.536,button_left,0.536,1,,,,,,447,NW,"ID",33,gircue,GIRCUE,z,,,,,,-0.401088929,-0.320326679,1,0,0,,0,268,268,266,1,
,,,,,,,,,,,,,,,,,,5cc96a6b5a7979000176e0cc,2020-08-08_10h25.34.865,lexical_decision_task_MP,2020.1.3,iPhone,60,,0,-0.408348457,-0.298548094,1,0,0,0.502,button_left,0.502,1,,,,,,271,NW,"ID",50,aubrid,AUBRID,z,,,,,,-0.408348457,-0.298548094,1,0,0,,0,269,269,330,1,
,,,,,,,,,,,,,,,,,,5cc96a6b5a7979000176e0cc,2020-08-08_10h25.34.865,lexical_decision_task_MP,2020.1.3,iPhone,60,,0,0.435571688,-0.307622505,1,0,0,0.564,button_right,0.564,1,,,,,,174,WORD,UN,50,fabric,TURKEY,m,,,,,,0.435571688,-0.307622505,1,0,0,,0,270,270,233,1,
,,,,,,,,,,,,,,,,,,5cc96a6b5a7979000176e0cc,2020-08-08_10h25.34.865,lexical_decision_task_MP,2020.1.3,iPhone,60,,0,-0.395644283,-0.307622505,1,0,0,0.632,button_left,0.632,1,,,,,,479,NW,"ID",33,lobush,LOBUSH,z,,,,,,-0.395644283,-0.307622505,1,0,0,,0,271,271,298,1,
,,,,,,,,,,,,,,,,,,5cc96a6b5a7979000176e0cc,2020-08-08_10h25.34.865,lexical_decision_task_MP,2020.1.3,iPhone,60,,0,-0.392014519,-0.311252269,1,0,0,0.488,button_left,0.488,1,,,,,,382,NW,UN,50,aungre,SARLEY,z,,,,,,-0.392014519,-0.311252269,1,0,0,,0,272,272,441,1,
,,,,,,,,,,,,,,,,,,5cc96a6b5a7979000176e0cc,2020-08-08_10h25.34.865,lexical_decision_task_MP,2020.1.3,iPhone,60,,0,0.451905626,-0.264065336,1,0,0,0.622,button_right,0.622,1,,,,,,30,WORD,"ID",50,orient,ORIENT,m,,,,,,0.451905626,-0.264065336,1,0,0,,0,273,273,89,1,
,,,,,,,,,,,,,,,,,,5cc96a6b5a7979000176e0cc,2020-08-08_10h25.34.865,lexical_decision_task_MP,2020.1.3,iPhone,60,,0,0.435571688,-0.322141561,1,0,0,0.579,button_right,0.579,1,,,,,,167,WORD,UN,50,answer,DESIGN,m,,,,,,0.435571688,-0.322141561,1,0,0,,0,274,274,226,1,
,,,,,,,,,,,,,,,,,,5cc96a6b5a7979000176e0cc,2020-08-08_10h25.34.865,lexical_decision_task_MP,2020.1.3,iPhone,60,,0,-0.386569873,-0.323956443,1,0,0,0.802,button_left,0.802,1,,,,,,265,NW,"ID",50,distar,DISTAR,z,,,,,,-0.386569873,-0.323956443,1,0,0,,0,275,275,324,1,
,,,,,,,,,,,,,,,,,,5cc96a6b5a7979000176e0cc,2020-08-08_10h25.34.865,lexical_decision_task_MP,2020.1.3,iPhone,60,,0,-0.388384755,-0.282214156,1,0,0,0.736,button_left,0.736,1,,,,,,390,NW,UN,50,theldy,HATRUS,z,,,,,,-0.388384755,-0.282214156,1,0,0,,0,276,276,449,1,
,,,,,,,,,,,,,,,,,,5cc96a6b5a7979000176e0cc,2020-08-08_10h25.34.865,lexical_decision_task_MP,2020.1.3,iPhone,60,,0,0.459165154,-0.307622505,1,0,0,0.704,button_right,0.704,1,,,,,,143,WORD,UN,50,sponge,REASON,m,,,,,,0.459165154,-0.307622505,1,0,0,,0,277,277,202,1,
,,,,,,,,,,,,,,,,,,5cc96a6b5a7979000176e0cc,2020-08-08_10h25.34.865,lexical_decision_task_MP,2020.1.3,iPhone,60,,0,-0.386569873,-0.2676951,1,0,0,0.525,button_left,0.525,1,,,,,,258,NW,"ID",50,poluth,POLUTH,z,,,,,,-0.386569873,-0.2676951,1,0,0,,0,278,278,317,1,
,,,,,,,,,,,,,,,,,,5cc96a6b5a7979000176e0cc,2020-08-08_10h25.34.865,lexical_decision_task_MP,2020.1.3,iPhone,60,,0,-0.397459165,-0.307622505,1,0,0,0.727,button_left,0.727,1,,,,,,336,NW,UN,33,rejols,GHODUS,z,,,,,,-0.397459165,-0.307622505,1,0,0,,0,279,279,395,1,
,,,,,,,,,,,,,,,,,,5cc96a6b5a7979000176e0cc,2020-08-08_10h25.34.865,lexical_decision_task_MP,2020.1.3,iPhone,60,,0,0.484573503,-0.320326679,1,0,0,0.505,button_right,0.505,1,,,,,,44,WORD,"ID",50,danger,DANGER,m,,,,,,0.484573503,-0.320326679,1,0,0,,0,280,280,103,1,
,,,,,,,,,,,,,,,,,,5cc96a6b5a7979000176e0cc,2020-08-08_10h25.34.865,lexical_decision_task_MP,2020.1.3,iPhone,60,,0,-0.401088929,-0.298548094,1,0,0,0.671,button_left,0.671,1,,,,,,290,NW,"ID",50,splino,SPLINO,z,,,,,,-0.401088929,-0.298548094,1,0,0,,0,281,281,349,1,
,,,,,,,,,,,,,,,,,,5cc96a6b5a7979000176e0cc,2020-08-08_10h25.34.865,lexical_decision_task_MP,2020.1.3,iPhone,60,,0,0.451905626,-0.309437387,1,0,0,0.534,button_right,0.534,1,,,,,,47,WORD,"ID",50,income,INCOME,m,,,,,,0.451905626,-0.309437387,1,0,0,,0,282,282,106,1,
,,,,,,,,,,,,,,,,,,5cc96a6b5a7979000176e0cc,2020-08-08_10h25.34.865,lexical_decision_task_MP,2020.1.3,iPhone,60,,0,0.466424682,-0.320326679,1,0,0,0.903,button_right,0.903,1,,,,,,108,WORD,UN,33,wonder,RECKON,m,,,,,,0.466424682,-0.320326679,1,0,0,,0,283,283,167,1,
,,,,,,,,,,,,,,,,,,5cc96a6b5a7979000176e0cc,2020-08-08_10h25.34.865,lexical_decision_task_MP,2020.1.3,iPhone,60,,0,-0.384754991,-0.318511797,1,0,0,0.633,button_left,0.633,1,,,,,,315,NW,UN,33,scregm,LASTON,z,,,,,,-0.384754991,-0.318511797,1,0,0,,0,284,284,374,1,
,,,,,,,,,,,,,,,,,,5cc96a6b5a7979000176e0cc,2020-08-08_10h25.34.865,lexical_decision_task_MP,2020.1.3,iPhone,60,,0,0.460980036,-0.320326679,1,0,0,0.483,button_right,0.483,1,,,,,,29,WORD,"ID",50,sketch,SKETCH,m,,,,,,0.460980036,-0.320326679,1,0,0,,0,285,285,88,1,
,,,,,,,,,,,,,,,,,,5cc96a6b5a7979000176e0cc,2020-08-08_10h25.34.865,lexical_decision_task_MP,2020.1.3,iPhone,60,,0,0.453720508,-0.307622505,1,0,0,0.658,button_right,0.658,0,,,,,,268,NW,"ID",50,packes,PACKES,z,,,,,,0.453720508,-0.307622505,1,0,0,,0,286,286,327,1,
,,,,,,,,,,,,,,,,,,5cc96a6b5a7979000176e0cc,2020-08-08_10h25.34.865,lexical_decision_task_MP,2020.1.3,iPhone,60,,0,-0.377495463,-0.29491833,1,0,0,0.698,button_left,0.698,1,,,,,,392,NW,UN,50,ganous,ROUNCY,z,,,,,,-0.377495463,-0.29491833,1,0,0,,0,287,287,451,1,
,,,,,,,,,,,,,,,,,,5cc96a6b5a7979000176e0cc,2020-08-08_10h25.34.865,lexical_decision_task_MP,2020.1.3,iPhone,60,,0,-0.382940109,-0.313067151,1,0,0,0.564,button_left,0.564,1,,,,,,370,NW,UN,50,geiloy,SLEACT,z,,,,,,-0.382940109,-0.313067151,1,0,0,,0,288,288,429,1,
,,,,,,,,,,,,,,,,,,5cc96a6b5a7979000176e0cc,2020-08-08_10h25.34.865,lexical_decision_task_MP,2020.1.3,iPhone,60,,0,-0.392014519,-0.313067151,1,0,0,0.809,button_left,0.809,0,,,,,,195,WORD,"ID",33,resign,RESIGN,m,,,,,,-0.392014519,-0.313067151,1,0,0,,0,289,289,14,1,
,,,,,,,,,,,,,,,,,,5cc96a6b5a7979000176e0cc,2020-08-08_10h25.34.865,lexical_decision_task_MP,2020.1.3,iPhone,60,,0,0.460980036,-0.298548094,1,0,0,0.582,button_right,0.582,1,,,,,,51,WORD,"ID",50,hungry,HUNGRY,m,,,,,,0.460980036,-0.298548094,1,0,0,,0,290,290,110,1,
,,,,,,,,,,,,,,,,,,5cc96a6b5a7979000176e0cc,2020-08-08_10h25.34.865,lexical_decision_task_MP,2020.1.3,iPhone,60,,0,0.471869328,-0.318511797,1,0,0,0.64,button_right,0.64,1,,,,,,137,WORD,UN,50,melody,FINGER,m,,,,,,0.471869328,-0.318511797,1,0,0,,0,291,291,196,1,
,,,,,,,,,,,,,,,,,,5cc96a6b5a7979000176e0cc,2020-08-08_10h25.34.865,lexical_decision_task_MP,2020.1.3,iPhone,60,,0,-0.397459165,-0.305807623,1,0,0,0.595,button_left,0.595,1,,,,,,247,NW,"ID",50,blarge,BLARGE,z,,,,,,-0.397459165,-0.305807623,1,0,0,,0,292,292,306,1,
,,,,,,,,,,,,,,,,,,5cc96a6b5a7979000176e0cc,2020-08-08_10h25.34.865,lexical_decision_task_MP,2020.1.3,iPhone,60,,0,-0.404718693,-0.309437387,1,0,0,0.492,button_left,0.492,1,,,,,,286,NW,"ID",50,reldon,RELDON,z,,,,,,-0.404718693,-0.309437387,1,0,0,,0,293,293,345,1,
,,,,,,,,,,,,,,,,,,5cc96a6b5a7979000176e0cc,2020-08-08_10h25.34.865,lexical_decision_task_MP,2020.1.3,iPhone,60,,0,-0.413793103,-0.287658802,1,0,0,0.818,button_left,0.818,1,,,,,,365,NW,UN,50,toshel,GUAIRT,z,,,,,,-0.413793103,-0.287658802,1,0,0,,0,294,294,424,1,
,,,,,,,,,,,,,,,,,,5cc96a6b5a7979000176e0cc,2020-08-08_10h25.34.865,lexical_decision_task_MP,2020.1.3,iPhone,60,,0,0.459165154,-0.313067151,1,0,0,0.567,button_right,0.567,1,,,,,,26,WORD,"ID",50,sprint,SPRINT,m,,,,,,0.459165154,-0.313067151,1,0,0,,0,295,295,85,1,
,,,,,,,,,,,,,,,,,,5cc96a6b5a7979000176e0cc,2020-08-08_10h25.34.865,lexical_decision_task_MP,2020.1.3,iPhone,60,,0,-0.392014519,-0.311252269,1,0,0,0.525,button_left,0.525,1,,,,,,267,NW,"ID",50,pasink,PASINK,z,,,,,,-0.392014519,-0.311252269,1,0,0,,0,296,296,326,1,
,,,,,,,,,,,,,,,,,,5cc96a6b5a7979000176e0cc,2020-08-08_10h25.34.865,lexical_decision_task_MP,2020.1.3,iPhone,60,,0,-0.402903811,-0.296733212,1,0,0,0.57,button_left,0.57,1,,,,,,285,NW,"ID",50,prudge,PRUDGE,z,,,,,,-0.402903811,-0.296733212,1,0,0,,0,297,297,344,1,
,,,,,,,,,,,,,,,,,,5cc96a6b5a7979000176e0cc,2020-08-08_10h25.34.865,lexical_decision_task_MP,2020.1.3,iPhone,60,,0,0.44646098,-0.307622505,1,0,0,0.715,button_right,0.715,1,,,,,,74,WORD,UN,33,trophy,PLAQUE,m,,,,,,0.44646098,-0.307622505,1,0,0,,0,298,298,133,1,
,,,,,,,,,,,,,,,,,,5cc96a6b5a7979000176e0cc,2020-08-08_10h25.34.865,lexical_decision_task_MP,2020.1.3,iPhone,60,,0,-0.392014519,-0.309437387,1,0,0,0.628,button_left,0.628,1,,,,,,362,NW,UN,50,breali,TIREAU,z,,,,,,-0.392014519,-0.309437387,1,0,0,,0,299,299,421,1,
,,,,,,,,,,,,,,,,,,5cc96a6b5a7979000176e0cc,2020-08-08_10h25.34.865,lexical_decision_task_MP,2020.1.3,iPhone,60,,0,-0.397459165,-0.313067151,1,0,0,0.435,button_left,0.435,1,,,,,,254,NW,"ID",50,varosh,VAROSH,z,,,,,,-0.397459165,-0.313067151,1,0,0,,0,300,300,313,1,
,,,,,,,,,,,,,,,,,,5cc96a6b5a7979000176e0cc,2020-08-08_10h25.34.865,lexical_decision_task_MP,2020.1.3,iPhone,60,,0,0.471869328,-0.236842105,1,0,0,0.617,button_right,0.617,1,,,,,,16,WORD,"ID",50,faucet,FAUCET,m,,,,,,0.471869328,-0.236842105,1,0,0,,0,301,301,75,1,
,,,,,,,,,,,,,,,,,,5cc96a6b5a7979000176e0cc,2020-08-08_10h25.34.865,lexical_decision_task_MP,2020.1.3,iPhone,60,,0,-0.406533575,-0.296733212,1,0,0,0.468,button_left,0.468,1,,,,,,337,NW,UN,33,wreash,REJOLS,z,,,,,,-0.406533575,-0.296733212,1,0,0,,0,302,302,396,1,
,,,,,,,,,,,,,,,,,,5cc96a6b5a7979000176e0cc,2020-08-08_10h25.34.865,lexical_decision_task_MP,2020.1.3,iPhone,60,,0,-0.402903811,-0.318511797,1,0,0,0.541,button_left,0.541,1,,,,,,241,NW,"ID",50,smenco,SMENCO,z,,,,,,-0.402903811,-0.318511797,1,0,0,,0,303,303,300,1,
,,,,,,,,,,,,,,,,,,5cc96a6b5a7979000176e0cc,2020-08-08_10h25.34.865,lexical_decision_task_MP,2020.1.3,iPhone,60,,0,0.462794918,-0.316696915,1,0,0,0.614,button_right,0.614,1,,,,,,216,WORD,"ID",33,behalf,BEHALF,m,,,,,,0.462794918,-0.316696915,1,0,0,,0,304,304,35,1,
,,,,,,,,,,,,,,,,,,5cc96a6b5a7979000176e0cc,2020-08-08_10h25.34.865,lexical_decision_task_MP,2020.1.3,iPhone,60,,0,0.460980036,-0.313067151,1,0,0,0.622,button_right,0.622,1,,,,,,236,WORD,"ID",33,pirate,PIRATE,m,,,,,,0.460980036,-0.313067151,1,0,0,,0,305,305,55,1,
,,,,,,,,,,,,,,,,,,5cc96a6b5a7979000176e0cc,2020-08-08_10h25.34.865,lexical_decision_task_MP,2020.1.3,iPhone,60,,0,-0.424682396,-0.29491833,1,0,0,0.534,button_left,0.534,1,,,,,,330,NW,UN,33,gilfew,KENSOM,z,,,,,,-0.424682396,-0.29491833,1,0,0,,0,306,306,389,1,
,,,,,,,,,,,,,,,,,,5cc96a6b5a7979000176e0cc,2020-08-08_10h25.34.865,lexical_decision_task_MP,2020.1.3,iPhone,60,,0,-0.408348457,-0.296733212,1,0,0,0.804,button_left,0.804,1,,,,,,360,NW,UN,33,fainch,DESORY,z,,,,,,-0.408348457,-0.296733212,1,0,0,,0,307,307,419,1,
,,,,,,,,,,,,,,,,,,5cc96a6b5a7979000176e0cc,2020-08-08_10h25.34.865,lexical_decision_task_MP,2020.1.3,iPhone,60,,0,0.44646098,-0.287658802,1,0,0,0.847,button_right,0.847,1,,,,,,129,WORD,UN,50,stupid,MARVEL,m,,,,,,0.44646098,-0.287658802,1,0,0,,0,308,308,188,1,
,,,,,,,,,,,,,,,,,,5cc96a6b5a7979000176e0cc,2020-08-08_10h25.34.865,lexical_decision_task_MP,2020.1.3,iPhone,60,,0,0.460980036,-0.302177858,1,0,0,0.537,button_right,0.537,1,,,,,,39,WORD,"ID",50,insect,INSECT,m,,,,,,0.460980036,-0.302177858,1,0,0,,0,309,309,98,1,
,,,,,,,,,,,,,,,,,,5cc96a6b5a7979000176e0cc,2020-08-08_10h25.34.865,lexical_decision_task_MP,2020.1.3,iPhone,60,,0,0.508166969,-0.307622505,1,0,0,0.622,button_right,0.622,1,,,,,,84,WORD,UN,33,strand,MORTAL,m,,,,,,0.508166969,-0.307622505,1,0,0,,0,310,310,143,1,
,,,,,,,,,,,,,,,,,,5cc96a6b5a7979000176e0cc,2020-08-08_10h25.34.865,lexical_decision_task_MP,2020.1.3,iPhone,60,,0,-0.404718693,-0.300362976,1,0,0,0.707,button_left,0.707,1,,,,,,294,NW,"ID",50,inhort,INHORT,z,,,,,,-0.404718693,-0.300362976,1,0,0,,0,311,311,353,1,
,,,,,,,,,,,,,,,,,,5cc96a6b5a7979000176e0cc,2020-08-08_10h25.34.865,lexical_decision_task_MP,2020.1.3,iPhone,60,,0,-0.433756806,-0.309437387,1,0,0,0.838,button_left,0.838,1,,,,,,304,NW,UN,33,forgle,CLUDIE,z,,,,,,-0.433756806,-0.309437387,1,0,0,,0,312,312,363,1,
,,,,,,,,,,,,,,,,,,5cc96a6b5a7979000176e0cc,2020-08-08_10h25.34.865,lexical_decision_task_MP,2020.1.3,iPhone,60,,0,-0.413793103,-0.320326679,1,0,0,0.667,button_left,0.667,0,,,,,,139,WORD,UN,50,prince,DEBRIS,m,,,,,,-0.413793103,-0.320326679,1,0,0,,0,313,313,198,1,
,,,,,,,,,,,,,,,,,,5cc96a6b5a7979000176e0cc,2020-08-08_10h25.34.865,lexical_decision_task_MP,2020.1.3,iPhone,60,,0,-0.381125227,-0.256805808,1,0,0,1.321,button_left,1.321,1,,,,,,372,NW,UN,50,bigent,RAMILY,z,,,,,,-0.381125227,-0.256805808,1,0,0,,0,314,314,431,1,
,,,,,,,,,,,,,,,,,,5cc96a6b5a7979000176e0cc,2020-08-08_10h25.34.865,lexical_decision_task_MP,2020.1.3,iPhone,60,,0,-0.406533575,-0.293103448,1,0,0,0.722,button_left,0.722,1,,,,,,397,NW,UN,50,blunde,CAMBLE,z,,,,,,-0.406533575,-0.293103448,1,0,0,,0,315,315,456,1,
,,,,,,,,,,,,,,,,,,5cc96a6b5a7979000176e0cc,2020-08-08_10h25.34.865,lexical_decision_task_MP,2020.1.3,iPhone,60,,0,-0.402903811,-0.296733212,1,0,0,0.654,button_left,0.654,1,,,,,,396,NW,UN,50,camble,FLENGY,z,,,,,,-0.402903811,-0.296733212,1,0,0,,0,316,316,455,1,
,,,,,,,,,,,,,,,,,,5cc96a6b5a7979000176e0cc,2020-08-08_10h25.34.865,lexical_decision_task_MP,2020.1.3,iPhone,60,,0,-0.410163339,-0.311252269,1,0,0,0.569,button_left,0.569,1,,,,,,353,NW,UN,33,virlex,CLUREY,z,,,,,,-0.410163339,-0.311252269,1,0,0,,0,317,317,412,1,
,,,,,,,,,,,,,,,,,,5cc96a6b5a7979000176e0cc,2020-08-08_10h25.34.865,lexical_decision_task_MP,2020.1.3,iPhone,60,,0,0.450090744,-0.251361162,1,0,0,0.579,button_right,0.579,0,,,,,,369,NW,UN,50,sleact,WRONCH,z,,,,,,0.450090744,-0.251361162,1,0,0,,0,318,318,428,1,
,,,,,,,,,,,,,,,,,,5cc96a6b5a7979000176e0cc,2020-08-08_10h25.34.865,lexical_decision_task_MP,2020.1.3,iPhone,60,,0,-0.415607985,-0.298548094,1,0,0,0.484,button_left,0.484,1,,,,,,400,NW,UN,50,mustil,WEAROX,z,,,,,,-0.415607985,-0.298548094,1,0,0,,0,319,319,459,1,
,,,,,,,,,,,,,,,,,,5cc96a6b5a7979000176e0cc,2020-08-08_10h25.34.865,lexical_decision_task_MP,2020.1.3,iPhone,60,,0,-0.404718693,-0.287658802,1,0,0,0.51,button_left,0.51,1,,,,,,275,NW,"ID",50,sleirt,SLEIRT,z,,,,,,-0.404718693,-0.287658802,1,0,0,,0,320,320,334,1,
,,,,,,,,,,,,,,,,,,5cc96a6b5a7979000176e0cc,2020-08-08_10h25.34.865,lexical_decision_task_MP,2020.1.3,iPhone,60,,0,0.459165154,-0.30399274,1,0,0,0.835,button_right,0.835,1,,,,,,144,WORD,UN,50,parish,SPONGE,m,,,,,,0.459165154,-0.30399274,1,0,0,,0,321,321,203,1,
,,,,,,,,,,,,,,,,,,5cc96a6b5a7979000176e0cc,2020-08-08_10h25.34.865,lexical_decision_task_MP,2020.1.3,iPhone,60,,0,0.450090744,-0.307622505,1,0,0,0.639,button_right,0.639,1,,,,,,217,WORD,"ID",33,liquor,LIQUOR,m,,,,,,0.450090744,-0.307622505,1,0,0,,0,322,322,36,1,
,,,,,,,,,,,,,,,,,,5cc96a6b5a7979000176e0cc,2020-08-08_10h25.34.865,lexical_decision_task_MP,2020.1.3,iPhone,60,,0,0.451905626,-0.327586207,1,0,0,0.553,button_right,0.553,1,,,,,,194,WORD,"ID",33,absent,ABSENT,m,,,,,,0.451905626,-0.327586207,1,0,0,,0,323,323,13,1,
,,,,,,,,,,,,,,,,,,5cc96a6b5a7979000176e0cc,2020-08-08_10h25.34.865,lexical_decision_task_MP,2020.1.3,iPhone,60,,0,-0.397459165,-0.273139746,1,0,0,0.586,button_left,0.586,1,,,,,,468,NW,"ID",33,wictor,WICTOR,z,,,,,,-0.397459165,-0.273139746,1,0,0,,0,324,324,287,1,
,,,,,,,,,,,,,,,,,,5cc96a6b5a7979000176e0cc,2020-08-08_10h25.34.865,lexical_decision_task_MP,2020.1.3,iPhone,60,,0,-0.408348457,-0.289473684,1,0,0,0.594,button_left,0.594,1,,,,,,431,NW,"ID",33,chrums,CHRUMS,z,,,,,,-0.408348457,-0.289473684,1,0,0,,0,325,325,250,1,
,,,,,,,,,,,,,,,,,,5cc96a6b5a7979000176e0cc,2020-08-08_10h25.34.865,lexical_decision_task_MP,2020.1.3,iPhone,60,,0,-0.42831216,-0.307622505,1,0,0,0.752,button_left,0.752,1,,,,,,243,NW,"ID",50,musied,MUSIED,z,,,,,,-0.42831216,-0.307622505,1,0,0,,0,326,326,302,1,
,,,,,,,,,,,,,,,,,,5cc96a6b5a7979000176e0cc,2020-08-08_10h25.34.865,lexical_decision_task_MP,2020.1.3,iPhone,60,,0,-0.41923775,-0.282214156,1,0,0,0.491,button_left,0.491,1,,,,,,378,NW,UN,50,auting,SHRILE,z,,,,,,-0.41923775,-0.282214156,1,0,0,,0,327,327,437,1,
,,,,,,,,,,,,,,,,,,5cc96a6b5a7979000176e0cc,2020-08-08_10h25.34.865,lexical_decision_task_MP,2020.1.3,iPhone,60,,0,0.44646098,-0.296733212,1,0,0,0.666,button_right,0.666,1,,,,,,228,WORD,"ID",33,master,MASTER,m,,,,,,0.44646098,-0.296733212,1,0,0,,0,328,328,47,1,
,,,,,,,,,,,,,,,,,,5cc96a6b5a7979000176e0cc,2020-08-08_10h25.34.865,lexical_decision_task_MP,2020.1.3,iPhone,60,,0,0.453720508,-0.307622505,1,0,0,0.472,button_right,0.472,1,,,,,,46,WORD,"ID",50,single,SINGLE,m,,,,,,0.453720508,-0.307622505,1,0,0,,0,329,329,105,1,
,,,,,,,,,,,,,,,,,,5cc96a6b5a7979000176e0cc,2020-08-08_10h25.34.865,lexical_decision_task_MP,2020.1.3,iPhone,60,,0,-0.417422868,-0.323956443,1,0,0,0.641,button_left,0.641,1,,,,,,449,NW,"ID",33,brunge,BRUNGE,z,,,,,,-0.417422868,-0.323956443,1,0,0,,0,330,330,268,1,
,,,,,,,,,,,,,,,,,,5cc96a6b5a7979000176e0cc,2020-08-08_10h25.34.865,lexical_decision_task_MP,2020.1.3,iPhone,60,,0,-0.415607985,-0.313067151,1,0,0,0.597,button_left,0.597,0,,,,,,62,WORD,UN,33,launch,REGION,m,,,,,,-0.415607985,-0.313067151,1,0,0,,0,331,331,121,1,
,,,,,,,,,,,,,,,,,,5cc96a6b5a7979000176e0cc,2020-08-08_10h25.34.865,lexical_decision_task_MP,2020.1.3,iPhone,60,,0,0.470054446,-0.318511797,1,0,0,0.607,button_right,0.607,1,,,,,,97,WORD,UN,33,belong,CLIENT,m,,,,,,0.470054446,-0.318511797,1,0,0,,0,332,332,156,1,
,,,,,,,,,,,,,,,,,,5cc96a6b5a7979000176e0cc,2020-08-08_10h25.34.865,lexical_decision_task_MP,2020.1.3,iPhone,60,,0,-0.426497278,-0.323956443,1,0,0,0.587,button_left,0.587,1,,,,,,340,NW,UN,33,myrtie,FIATCH,z,,,,,,-0.426497278,-0.323956443,1,0,0,,0,333,333,399,1,
,,,,,,,,,,,,,,,,,,5cc96a6b5a7979000176e0cc,2020-08-08_10h25.34.865,lexical_decision_task_MP,2020.1.3,iPhone,60,,0,-0.408348457,-0.293103448,1,0,0,1.078,button_left,1.078,1,,,,,,462,NW,"ID",33,absult,ABSULT,z,,,,,,-0.408348457,-0.293103448,1,0,0,,0,334,334,281,1,
,,,,,,,,,,,,,,,,,,5cc96a6b5a7979000176e0cc,2020-08-08_10h25.34.865,lexical_decision_task_MP,2020.1.3,iPhone,60,,0,-0.410163339,-0.311252269,1,0,0,0.617,button_left,0.617,1,,,,,,444,NW,"ID",33,jaunce,JAUNCE,z,,,,,,-0.410163339,-0.311252269,1,0,0,,0,335,335,263,1,
,,,,,,,,,,,,,,,,,,5cc96a6b5a7979000176e0cc,2020-08-08_10h25.34.865,lexical_decision_task_MP,2020.1.3,iPhone,60,,0,0.468239564,-0.27676951,1,0,0,0.788,button_right,0.788,1,,,,,,204,WORD,"ID",33,burden,BURDEN,m,,,,,,0.468239564,-0.27676951,1,0,0,,0,336,336,23,1,
,,,,,,,,,,,,,,,,,,5cc96a6b5a7979000176e0cc,2020-08-08_10h25.34.865,lexical_decision_task_MP,2020.1.3,iPhone,60,,0,-0.43738657,-0.296733212,1,0,0,1.006,button_left,1.006,1,,,,,,319,NW,UN,33,jockal,ZOMBER,z,,,,,,-0.43738657,-0.296733212,1,0,0,,0,337,337,378,1,
,,,,,,,,,,,,,,,,,,5cc96a6b5a7979000176e0cc,2020-08-08_10h25.34.865,lexical_decision_task_MP,2020.1.3,iPhone,60,,0,-0.408348457,-0.309437387,1,0,0,0.549,button_left,0.549,1,,,,,,463,NW,"ID",33,kispel,KISPEL,z,,,,,,-0.408348457,-0.309437387,1,0,0,,0,338,338,282,1,
,,,,,,,,,,,,,,,,,,5cc96a6b5a7979000176e0cc,2020-08-08_10h25.34.865,lexical_decision_task_MP,2020.1.3,iPhone,60,,0,-0.413793103,-0.260435572,1,0,0,0.502,button_left,0.502,0,,,,,,25,WORD,"ID",50,domain,DOMAIN,m,,,,,,-0.413793103,-0.260435572,1,0,0,,0,339,339,84,1,
,,,,,,,,,,,,,,,,,,5cc96a6b5a7979000176e0cc,2020-08-08_10h25.34.865,lexical_decision_task_MP,2020.1.3,iPhone,60,,0,-0.392014519,-0.302177858,1,0,0,0.651,button_left,0.651,1,,,,,,405,NW,UN,50,nouply,FLUMNI,z,,,,,,-0.392014519,-0.302177858,1,0,0,,0,340,340,464,1,
,,,,,,,,,,,,,,,,,,5cc96a6b5a7979000176e0cc,2020-08-08_10h25.34.865,lexical_decision_task_MP,2020.1.3,iPhone,60,,0,-0.413793103,-0.300362976,1,0,0,0.668,button_left,0.668,1,,,,,,249,NW,"ID",50,batrol,BATROL,z,,,,,,-0.413793103,-0.300362976,1,0,0,,0,341,341,308,1,
,,,,,,,,,,,,,,,,,,5cc96a6b5a7979000176e0cc,2020-08-08_10h25.34.865,lexical_decision_task_MP,2020.1.3,iPhone,60,,0,0.479128857,-0.320326679,1,0,0,0.539,button_right,0.539,1,,,,,,35,WORD,"ID",50,socket,SOCKET,m,,,,,,0.479128857,-0.320326679,1,0,0,,0,342,342,94,1,
,,,,,,,,,,,,,,,,,,5cc96a6b5a7979000176e0cc,2020-08-08_10h25.34.865,lexical_decision_task_MP,2020.1.3,iPhone,60,,0,0.459165154,-0.323956443,1,0,0,0.516,button_right,0.516,0,,,,,,261,NW,"ID",50,stunch,STUNCH,z,,,,,,0.459165154,-0.323956443,1,0,0,,0,343,343,320,1,
,,,,,,,,,,,,,,,,,,5cc96a6b5a7979000176e0cc,2020-08-08_10h25.34.865,lexical_decision_task_MP,2020.1.3,iPhone,60,,0,-0.413793103,-0.313067151,1,0,0,0.53,button_left,0.53,1,,,,,,296,NW,"ID",50,beinch,BEINCH,z,,,,,,-0.413793103,-0.313067151,1,0,0,,0,344,344,355,1,
,,,,,,,,,,,,,,,,,,5cc96a6b5a7979000176e0cc,2020-08-08_10h25.34.865,lexical_decision_task_MP,2020.1.3,iPhone,60,,0,-0.408348457,-0.302177858,1,0,0,0.528,button_left,0.528,1,,,,,,427,NW,"ID",33,schind,SCHIND,z,,,,,,-0.408348457,-0.302177858,1,0,0,,0,345,345,246,1,
,,,,,,,,,,,,,,,,,,5cc96a6b5a7979000176e0cc,2020-08-08_10h25.34.865,lexical_decision_task_MP,2020.1.3,iPhone,60,,0,0.466424682,-0.314882033,1,0,0,0.82,button_right,0.82,1,,,,,,5,WORD,"ID",50,plunge,PLUNGE,m,,,,,,0.466424682,-0.314882033,1,0,0,,0,346,346,64,1,
,,,,,,,,,,,,,,,,,,5cc96a6b5a7979000176e0cc,2020-08-08_10h25.34.865,lexical_decision_task_MP,2020.1.3,iPhone,60,,0,-0.413793103,-0.314882033,1,0,0,0.576,button_left,0.576,1,,,,,,264,NW,"ID",50,vackel,VACKEL,z,,,,,,-0.413793103,-0.314882033,1,0,0,,0,347,347,323,1,
,,,,,,,,,,,,,,,,,,5cc96a6b5a7979000176e0cc,2020-08-08_10h25.34.865,lexical_decision_task_MP,2020.1.3,iPhone,60,,0,0.497277677,-0.302177858,1,0,0,0.535,button_right,0.535,1,,,,,,190,WORD,"ID",33,backup,BACKUP,m,,,,,,0.497277677,-0.302177858,1,0,0,,0,348,348,9,1,
,,,,,,,,,,,,,,,,,,5cc96a6b5a7979000176e0cc,2020-08-08_10h25.34.865,lexical_decision_task_MP,2020.1.3,iPhone,60,,0,0.480943739,-0.309437387,1,0,0,0.816,button_right,0.816,1,,,,,,52,WORD,"ID",50,impose,IMPOSE,m,,,,,,0.480943739,-0.309437387,1,0,0,,0,349,349,111,1,
,,,,,,,,,,,,,,,,,,5cc96a6b5a7979000176e0cc,2020-08-08_10h25.34.865,lexical_decision_task_MP,2020.1.3,iPhone,60,,0,0.4646098,-0.300362976,1,0,0,0.525,button_right,0.525,1,,,,,,31,WORD,"ID",50,weapon,WEAPON,m,,,,,,0.4646098,-0.300362976,1,0,0,,0,350,350,90,1,
,,,,,,,,,,,,,,,,,,5cc96a6b5a7979000176e0cc,2020-08-08_10h25.34.865,lexical_decision_task_MP,2020.1.3,iPhone,60,,0,0.45553539,-0.289473684,1,0,0,0.776,button_right,0.776,1,,,,,,38,WORD,"ID",50,powder,POWDER,m,,,,,,0.45553539,-0.289473684,1,0,0,,0,351,351,97,1,
,,,,,,,,,,,,,,,,,,5cc96a6b5a7979000176e0cc,2020-08-08_10h25.34.865,lexical_decision_task_MP,2020.1.3,iPhone,60,,0,-0.406533575,-0.356624319,1,0,0,0.568,button_left,0.568,1,,,,,,376,NW,UN,50,veigma,IGUARE,z,,,,,,-0.406533575,-0.356624319,1,0,0,,0,352,352,435,1,
,,,,,,,,,,,,,,,,,,5cc96a6b5a7979000176e0cc,2020-08-08_10h25.34.865,lexical_decision_task_MP,2020.1.3,iPhone,60,,0,-0.413793103,-0.307622505,1,0,0,0.631,button_left,0.631,0,,,,,,90,WORD,UN,33,expand,RELISH,m,,,,,,-0.413793103,-0.307622505,1,0,0,,0,353,353,149,1,
,,,,,,,,,,,,,,,,,,5cc96a6b5a7979000176e0cc,2020-08-08_10h25.34.865,lexical_decision_task_MP,2020.1.3,iPhone,60,,0,-0.410163339,-0.318511797,1,0,0,0.544,button_left,0.544,1,,,,,,331,NW,UN,33,vangue,GILFEW,z,,,,,,-0.410163339,-0.318511797,1,0,0,,0,354,354,390,1,
,,,,,,,,,,,,,,,,,,5cc96a6b5a7979000176e0cc,2020-08-08_10h25.34.865,lexical_decision_task_MP,2020.1.3,iPhone,60,,0,-0.411978221,-0.318511797,1,0,0,0.804,button_left,0.804,0,,,,,,199,WORD,"ID",33,invoke,INVOKE,m,,,,,,-0.411978221,-0.318511797,1,0,0,,0,355,355,18,1,
