counterbalancing_condition,instr_done_keyboard.keys,instr_done_touch.x,instr_done_touch.y,instr_done_touch.leftButton,instr_done_touch.midButton,instr_done_touch.rightButton,instr_done_touch.clicked_name,instruction_pages.thisRepN,instruction_pages.thisTrialN,instruction_pages.thisN,instruction_pages.thisIndex,instruction_pages.ran,pageN,phase,instruct_text,has_image,instruct_image,participant,date,expName,psychopyVersion,OS,frameRate,response.keys,response.corr,response.rt,touch_resp.x,touch_resp.y,touch_resp.leftButton,touch_resp.midButton,touch_resp.rightButton,touch_resp.time,touch_resp.clicked_name,rt,corr,practice_trials.thisRepN,practice_trials.thisTrialN,practice_trials.thisN,practice_trials.thisIndex,practice_trials.ran,TrialID,StimulusType,Condition,PrimeDuration,Prime,Target,corrAns,end_of_practice_trials_pages.thisRepN,end_of_practice_trials_pages.thisTrialN,end_of_practice_trials_pages.thisN,end_of_practice_trials_pages.thisIndex,end_of_practice_trials_pages.ran,break_done_touch.x,break_done_touch.y,break_done_touch.leftButton,break_done_touch.midButton,break_done_touch.rightButton,break_done_keyboard.keys,trials.thisRepN,trials.thisTrialN,trials.thisN,trials.thisIndex,trials.ran,break_done_touch.clicked_name,break_done_keyboard.rt
0,,-0.088541667,-0.390625,1,0,0,instr_done_button,0,0,0,0,1,1,instructions,"INSTRUCTIONS
At the start of each trial, look at the hash marks (######) in the center of the screen. After a moment, a string of letters will appear. Your task is to indicate if the letter string forms a word or not (i.e., if it is a nonword). For example, AUTHOR is a word while AUTHON is a nonword.

Press the space bar or touch the button below to continue.",0,,5cdc899d48d5f100195fafff,2020-08-10_18h25.41.538,lexical_decision_task_MP,2020.1.3,Win32,60,,,,,,,,,,,,,,,,,,,,,,,,,,,,,,,,,,,,,,,,,,
,,0.014322917,-0.385416667,1,0,0,instr_done_button,0,1,1,1,1,2,instructions,"If your device has a keyboard, press the 'Z' key for nonwords and the 'M' key for words.





Press the space bar or touch the button below to continue.",1,keyboard-example.gif,5cdc899d48d5f100195fafff,2020-08-10_18h25.41.538,lexical_decision_task_MP,2020.1.3,Win32,60,,,,,,,,,,,,,,,,,,,,,,,,,,,,,,,,,,,,,,,,,,
,,0.044270833,-0.384114583,1,0,0,instr_done_button,0,2,2,2,1,3,instructions,"If you are using a touchscreen only device, use the buttons on the screen. Do not use the mouse.





Press the space bar or touch the button below to continue.",1,touchscreen-example.gif,5cdc899d48d5f100195fafff,2020-08-10_18h25.41.538,lexical_decision_task_MP,2020.1.3,Win32,60,,,,,,,,,,,,,,,,,,,,,,,,,,,,,,,,,,,,,,,,,,
,,-0.01953125,-0.380208333,1,0,0,instr_done_button,0,3,3,3,1,4,instructions,"It is very important that you respond as quickly and accurately as possible, as each letter string will only be on the screen for two seconds. If you do not respond within this time, the message 'Too slow!' will be displayed and the experiment will progress to the next letter string. The first 20 trials will be practice trials and you will receive feedback on your answers. 

Press the space bar or touch the button below to start the practice trials.",0,,5cdc899d48d5f100195fafff,2020-08-10_18h25.41.538,lexical_decision_task_MP,2020.1.3,Win32,60,,,,,,,,,,,,,,,,,,,,,,,,,,,,,,,,,,,,,,,,,,
,,,,,,,,,,,,,,,,,,5cdc899d48d5f100195fafff,2020-08-10_18h25.41.538,lexical_decision_task_MP,2020.1.3,Win32,60,z,1,0.769455,,,,,,,,0.769455,1,0,0,0,14,1,1015,NW,UN,50,miaber,THRALE,z,,,,,,,,,,,,,,,,,,
,,,,,,,,,,,,,,,,,,5cdc899d48d5f100195fafff,2020-08-10_18h25.41.538,lexical_decision_task_MP,2020.1.3,Win32,60,z,1,0.76911,,,,,,,,0.76911,1,0,1,1,9,1,1010,NW,"ID",33,fariny,FARINY,z,,,,,,,,,,,,,,,,,,
,,,,,,,,,,,,,,,,,,5cdc899d48d5f100195fafff,2020-08-10_18h25.41.538,lexical_decision_task_MP,2020.1.3,Win32,60,m,1,0.554415,,,,,,,,0.554415,1,0,2,2,1,1,1002,WORD,"ID",33,adjust,ADJUST,m,,,,,,,,,,,,,,,,,,
,,,,,,,,,,,,,,,,,,5cdc899d48d5f100195fafff,2020-08-10_18h25.41.538,lexical_decision_task_MP,2020.1.3,Win32,60,z,1,0.689405,,,,,,,,0.689405,1,0,3,3,15,1,1016,NW,UN,50,mushed,WHAISE,z,,,,,,,,,,,,,,,,,,
,,,,,,,,,,,,,,,,,,5cdc899d48d5f100195fafff,2020-08-10_18h25.41.538,lexical_decision_task_MP,2020.1.3,Win32,60,z,1,0.734215,,,,,,,,0.734215,1,0,4,4,12,1,1013,NW,UN,33,adveil,SPRINY,z,,,,,,,,,,,,,,,,,,
,,,,,,,,,,,,,,,,,,5cdc899d48d5f100195fafff,2020-08-10_18h25.41.538,lexical_decision_task_MP,2020.1.3,Win32,60,m,1,1.287745,,,,,,,,1.287745,1,0,5,5,6,1,1007,WORD,UN,50,tropic,ZOMBIE,m,,,,,,,,,,,,,,,,,,
,,,,,,,,,,,,,,,,,,5cdc899d48d5f100195fafff,2020-08-10_18h25.41.538,lexical_decision_task_MP,2020.1.3,Win32,60,m,1,0.9233,,,,,,,,0.9233,1,0,6,6,5,1,1006,WORD,UN,33,frenzy,OBTAIN,m,,,,,,,,,,,,,,,,,,
,,,,,,,,,,,,,,,,,,5cdc899d48d5f100195fafff,2020-08-10_18h25.41.538,lexical_decision_task_MP,2020.1.3,Win32,60,z,1,0.835675,,,,,,,,0.835675,1,0,7,7,11,1,1012,NW,"ID",50,rashet,RASHET,z,,,,,,,,,,,,,,,,,,
,,,,,,,,,,,,,,,,,,5cdc899d48d5f100195fafff,2020-08-10_18h25.41.538,lexical_decision_task_MP,2020.1.3,Win32,60,m,1,0.58859,,,,,,,,0.58859,1,0,8,8,4,1,1005,WORD,UN,33,abound,SQUEAK,m,,,,,,,,,,,,,,,,,,
,,,,,,,,,,,,,,,,,,5cdc899d48d5f100195fafff,2020-08-10_18h25.41.538,lexical_decision_task_MP,2020.1.3,Win32,60,z,1,0.58411,,,,,,,,0.58411,1,0,9,9,13,1,1014,NW,UN,33,winfer,ROUPET,z,,,,,,,,,,,,,,,,,,
,,,,,,,,,,,,,,,,,,5cdc899d48d5f100195fafff,2020-08-10_18h25.41.538,lexical_decision_task_MP,2020.1.3,Win32,60,z,1,0.614795,,,,,,,,0.614795,1,0,10,10,10,1,1011,NW,"ID",50,inlade,INLADE,z,,,,,,,,,,,,,,,,,,
,,,,,,,,,,,,,,,,,,5cdc899d48d5f100195fafff,2020-08-10_18h25.41.538,lexical_decision_task_MP,2020.1.3,Win32,60,m,1,0.61966,,,,,,,,0.61966,1,0,11,11,3,1,1004,WORD,"ID",50,matrix,MATRIX,m,,,,,,,,,,,,,,,,,,
,,,,,,,,,,,,,,,,,,5cdc899d48d5f100195fafff,2020-08-10_18h25.41.538,lexical_decision_task_MP,2020.1.3,Win32,60,m,1,0.564525,,,,,,,,0.564525,1,0,12,12,7,1,1008,WORD,UN,50,hurdle,VOLUME,m,,,,,,,,,,,,,,,,,,
,,,,,,,,,,,,,,,,,,5cdc899d48d5f100195fafff,2020-08-10_18h25.41.538,lexical_decision_task_MP,2020.1.3,Win32,60,m,1,0.58604,,,,,,,,0.58604,1,0,13,13,2,1,1003,WORD,"ID",50,almond,ALMOND,m,,,,,,,,,,,,,,,,,,
,,,,,,,,,,,,,,,,,,5cdc899d48d5f100195fafff,2020-08-10_18h25.41.538,lexical_decision_task_MP,2020.1.3,Win32,60,z,1,0.702705,,,,,,,,0.702705,1,0,14,14,8,1,1009,NW,"ID",33,aslert,ASLERT,z,,,,,,,,,,,,,,,,,,
,,,,,,,,,,,,,,,,,,5cdc899d48d5f100195fafff,2020-08-10_18h25.41.538,lexical_decision_task_MP,2020.1.3,Win32,60,m,1,0.72084,,,,,,,,0.72084,1,0,15,15,0,1,1001,WORD,"ID",33,utopia,UTOPIA,m,,,,,,,,,,,,,,,,,,
,,-0.032552083,-0.395833333,1,0,0,instr_done_button,,,,,,1,end_of_practice,"You have completed the practice trials. During the experimental trials, you will not receive feedback, but it is very important that you respond as quickly and accurately as possible. 
Before you begin, please ensure that you are in a comfortable and quiet location and will not be disturbed for about 15 minutes, as we cannot use your data if you do not complete all the trials. 
There will be opportunities to take breaks at regular intervals during the experiment. When you are ready to start the experimental trials, please press space or touch the button below.",,,5cdc899d48d5f100195fafff,2020-08-10_18h25.41.538,lexical_decision_task_MP,2020.1.3,Win32,60,,,,,,,,,,,,,,,,,,,,,,,,,0,0,0,0,1,,,,,,,,,,,,,
,,,,,,,,,,,,,,,,,,5cdc899d48d5f100195fafff,2020-08-10_18h25.41.538,lexical_decision_task_MP,2020.1.3,Win32,60,m,1,1.255145,,,,,,,,1.255145,1,,,,,,205,WORD,"ID",33,lounge,LOUNGE,m,,,,,,-0.022135417,-0.233072917,0,0,0,,0,0,0,24,1,,
,,,,,,,,,,,,,,,,,,5cdc899d48d5f100195fafff,2020-08-10_18h25.41.538,lexical_decision_task_MP,2020.1.3,Win32,60,m,1,0.472685,,,,,,,,0.472685,1,,,,,,50,WORD,"ID",50,snatch,SNATCH,m,,,,,,-0.022135417,-0.233072917,0,0,0,,0,1,1,109,1,,
,,,,,,,,,,,,,,,,,,5cdc899d48d5f100195fafff,2020-08-10_18h25.41.538,lexical_decision_task_MP,2020.1.3,Win32,60,m,1,0.448315,,,,,,,,0.448315,1,,,,,,103,WORD,UN,33,studio,BOUNCE,m,,,,,,-0.022135417,-0.233072917,0,0,0,,0,2,2,162,1,,
,,,,,,,,,,,,,,,,,,5cdc899d48d5f100195fafff,2020-08-10_18h25.41.538,lexical_decision_task_MP,2020.1.3,Win32,60,z,1,0.720885,,,,,,,,0.720885,1,,,,,,316,NW,UN,33,worbal,SCREGM,z,,,,,,-0.022135417,-0.233072917,0,0,0,,0,3,3,375,1,,
,,,,,,,,,,,,,,,,,,5cdc899d48d5f100195fafff,2020-08-10_18h25.41.538,lexical_decision_task_MP,2020.1.3,Win32,60,m,0,0.6519,,,,,,,,0.6519,0,,,,,,413,NW,UN,50,serbol,EQUATS,z,,,,,,-0.022135417,-0.233072917,0,0,0,,0,4,4,472,1,,
,,,,,,,,,,,,,,,,,,5cdc899d48d5f100195fafff,2020-08-10_18h25.41.538,lexical_decision_task_MP,2020.1.3,Win32,60,m,1,0.48622,,,,,,,,0.48622,1,,,,,,163,WORD,UN,50,market,STRING,m,,,,,,-0.022135417,-0.233072917,0,0,0,,0,5,5,222,1,,
,,,,,,,,,,,,,,,,,,5cdc899d48d5f100195fafff,2020-08-10_18h25.41.538,lexical_decision_task_MP,2020.1.3,Win32,60,z,1,0.57241,,,,,,,,0.57241,1,,,,,,474,NW,"ID",33,hablin,HABLIN,z,,,,,,-0.022135417,-0.233072917,0,0,0,,0,6,6,293,1,,
,,,,,,,,,,,,,,,,,,5cdc899d48d5f100195fafff,2020-08-10_18h25.41.538,lexical_decision_task_MP,2020.1.3,Win32,60,z,1,0.48841,,,,,,,,0.48841,1,,,,,,251,NW,"ID",50,lupict,LUPICT,z,,,,,,-0.022135417,-0.233072917,0,0,0,,0,7,7,310,1,,
,,,,,,,,,,,,,,,,,,5cdc899d48d5f100195fafff,2020-08-10_18h25.41.538,lexical_decision_task_MP,2020.1.3,Win32,60,z,1,0.48598,,,,,,,,0.48598,1,,,,,,326,NW,UN,33,plenac,IGUADE,z,,,,,,-0.022135417,-0.233072917,0,0,0,,0,8,8,385,1,,
,,,,,,,,,,,,,,,,,,5cdc899d48d5f100195fafff,2020-08-10_18h25.41.538,lexical_decision_task_MP,2020.1.3,Win32,60,m,1,0.453635,,,,,,,,0.453635,1,,,,,,201,WORD,"ID",33,admire,ADMIRE,m,,,,,,-0.022135417,-0.233072917,0,0,0,,0,9,9,20,1,,
,,,,,,,,,,,,,,,,,,5cdc899d48d5f100195fafff,2020-08-10_18h25.41.538,lexical_decision_task_MP,2020.1.3,Win32,60,z,1,0.669015,,,,,,,,0.669015,1,,,,,,389,NW,UN,50,hatrus,WITMER,z,,,,,,-0.022135417,-0.233072917,0,0,0,,0,10,10,448,1,,
,,,,,,,,,,,,,,,,,,5cdc899d48d5f100195fafff,2020-08-10_18h25.41.538,lexical_decision_task_MP,2020.1.3,Win32,60,m,1,0.474295,,,,,,,,0.474295,1,,,,,,172,WORD,UN,50,shower,PATROL,m,,,,,,-0.022135417,-0.233072917,0,0,0,,0,11,11,231,1,,
,,,,,,,,,,,,,,,,,,5cdc899d48d5f100195fafff,2020-08-10_18h25.41.538,lexical_decision_task_MP,2020.1.3,Win32,60,m,0,0.559095,,,,,,,,0.559095,0,,,,,,261,NW,"ID",50,stunch,STUNCH,z,,,,,,-0.022135417,-0.233072917,0,0,0,,0,12,12,320,1,,
,,,,,,,,,,,,,,,,,,5cdc899d48d5f100195fafff,2020-08-10_18h25.41.538,lexical_decision_task_MP,2020.1.3,Win32,60,m,1,0.487775,,,,,,,,0.487775,1,,,,,,104,WORD,UN,33,number,STUDIO,m,,,,,,-0.022135417,-0.233072917,0,0,0,,0,13,13,163,1,,
,,,,,,,,,,,,,,,,,,5cdc899d48d5f100195fafff,2020-08-10_18h25.41.538,lexical_decision_task_MP,2020.1.3,Win32,60,z,1,0.488205,,,,,,,,0.488205,1,,,,,,283,NW,"ID",50,veralf,VERALF,z,,,,,,-0.022135417,-0.233072917,0,0,0,,0,14,14,342,1,,
,,,,,,,,,,,,,,,,,,5cdc899d48d5f100195fafff,2020-08-10_18h25.41.538,lexical_decision_task_MP,2020.1.3,Win32,60,z,1,0.53674,,,,,,,,0.53674,1,,,,,,473,NW,"ID",33,crible,CRIBLE,z,,,,,,-0.022135417,-0.233072917,0,0,0,,0,15,15,292,1,,
,,,,,,,,,,,,,,,,,,5cdc899d48d5f100195fafff,2020-08-10_18h25.41.538,lexical_decision_task_MP,2020.1.3,Win32,60,z,1,0.49529,,,,,,,,0.49529,1,,,,,,266,NW,"ID",50,varmit,VARMIT,z,,,,,,-0.022135417,-0.233072917,0,0,0,,0,16,16,325,1,,
,,,,,,,,,,,,,,,,,,5cdc899d48d5f100195fafff,2020-08-10_18h25.41.538,lexical_decision_task_MP,2020.1.3,Win32,60,m,1,0.460605,,,,,,,,0.460605,1,,,,,,213,WORD,"ID",33,squeal,SQUEAL,m,,,,,,-0.022135417,-0.233072917,0,0,0,,0,17,17,32,1,,
,,,,,,,,,,,,,,,,,,5cdc899d48d5f100195fafff,2020-08-10_18h25.41.538,lexical_decision_task_MP,2020.1.3,Win32,60,z,1,0.63986,,,,,,,,0.63986,1,,,,,,328,NW,UN,33,yarike,BROAKE,z,,,,,,-0.022135417,-0.233072917,0,0,0,,0,18,18,387,1,,
,,,,,,,,,,,,,,,,,,5cdc899d48d5f100195fafff,2020-08-10_18h25.41.538,lexical_decision_task_MP,2020.1.3,Win32,60,z,1,0.52405,,,,,,,,0.52405,1,,,,,,472,NW,"ID",33,cigney,CIGNEY,z,,,,,,-0.022135417,-0.233072917,0,0,0,,0,19,19,291,1,,
,,,,,,,,,,,,,,,,,,5cdc899d48d5f100195fafff,2020-08-10_18h25.41.538,lexical_decision_task_MP,2020.1.3,Win32,60,z,1,0.50302,,,,,,,,0.50302,1,,,,,,315,NW,UN,33,scregm,LASTON,z,,,,,,-0.022135417,-0.233072917,0,0,0,,0,20,20,374,1,,
,,,,,,,,,,,,,,,,,,5cdc899d48d5f100195fafff,2020-08-10_18h25.41.538,lexical_decision_task_MP,2020.1.3,Win32,60,m,1,0.554975,,,,,,,,0.554975,1,,,,,,211,WORD,"ID",33,infect,INFECT,m,,,,,,-0.022135417,-0.233072917,0,0,0,,0,21,21,30,1,,
,,,,,,,,,,,,,,,,,,5cdc899d48d5f100195fafff,2020-08-10_18h25.41.538,lexical_decision_task_MP,2020.1.3,Win32,60,m,1,0.53586,,,,,,,,0.53586,1,,,,,,39,WORD,"ID",50,insect,INSECT,m,,,,,,-0.022135417,-0.233072917,0,0,0,,0,22,22,98,1,,
,,,,,,,,,,,,,,,,,,5cdc899d48d5f100195fafff,2020-08-10_18h25.41.538,lexical_decision_task_MP,2020.1.3,Win32,60,m,1,0.673715,,,,,,,,0.673715,1,,,,,,107,WORD,UN,33,reckon,SLOGAN,m,,,,,,-0.022135417,-0.233072917,0,0,0,,0,23,23,166,1,,
,,,,,,,,,,,,,,,,,,5cdc899d48d5f100195fafff,2020-08-10_18h25.41.538,lexical_decision_task_MP,2020.1.3,Win32,60,m,1,0.48658,,,,,,,,0.48658,1,,,,,,117,WORD,UN,33,flight,BRANCH,m,,,,,,-0.022135417,-0.233072917,0,0,0,,0,24,24,176,1,,
,,,,,,,,,,,,,,,,,,5cdc899d48d5f100195fafff,2020-08-10_18h25.41.538,lexical_decision_task_MP,2020.1.3,Win32,60,z,1,0.56972,,,,,,,,0.56972,1,,,,,,343,NW,UN,33,scrily,AIMOSY,z,,,,,,-0.022135417,-0.233072917,0,0,0,,0,25,25,402,1,,
,,,,,,,,,,,,,,,,,,5cdc899d48d5f100195fafff,2020-08-10_18h25.41.538,lexical_decision_task_MP,2020.1.3,Win32,60,m,1,0.437825,,,,,,,,0.437825,1,,,,,,238,WORD,"ID",33,flower,FLOWER,m,,,,,,-0.022135417,-0.233072917,0,0,0,,0,26,26,57,1,,
,,,,,,,,,,,,,,,,,,5cdc899d48d5f100195fafff,2020-08-10_18h25.41.538,lexical_decision_task_MP,2020.1.3,Win32,60,z,1,0.51904,,,,,,,,0.51904,1,,,,,,312,NW,UN,33,paurse,NERAWL,z,,,,,,-0.022135417,-0.233072917,0,0,0,,0,27,27,371,1,,
,,,,,,,,,,,,,,,,,,5cdc899d48d5f100195fafff,2020-08-10_18h25.41.538,lexical_decision_task_MP,2020.1.3,Win32,60,z,0,0.5642,,,,,,,,0.5642,0,,,,,,125,WORD,UN,50,enough,NICKEL,m,,,,,,-0.022135417,-0.233072917,0,0,0,,0,28,28,184,1,,
,,,,,,,,,,,,,,,,,,5cdc899d48d5f100195fafff,2020-08-10_18h25.41.538,lexical_decision_task_MP,2020.1.3,Win32,60,m,1,0.45401,,,,,,,,0.45401,1,,,,,,208,WORD,"ID",33,hockey,HOCKEY,m,,,,,,-0.022135417,-0.233072917,0,0,0,,0,29,29,27,1,,
,,,,,,,,,,,,,,,,,,5cdc899d48d5f100195fafff,2020-08-10_18h25.41.538,lexical_decision_task_MP,2020.1.3,Win32,60,m,1,0.486185,,,,,,,,0.486185,1,,,,,,73,WORD,UN,33,plaque,SOURCE,m,,,,,,-0.022135417,-0.233072917,0,0,0,,0,30,30,132,1,,
,,,,,,,,,,,,,,,,,,5cdc899d48d5f100195fafff,2020-08-10_18h25.41.538,lexical_decision_task_MP,2020.1.3,Win32,60,z,1,0.54593,,,,,,,,0.54593,1,,,,,,337,NW,UN,33,wreash,REJOLS,z,,,,,,-0.022135417,-0.233072917,0,0,0,,0,31,31,396,1,,
,,,,,,,,,,,,,,,,,,5cdc899d48d5f100195fafff,2020-08-10_18h25.41.538,lexical_decision_task_MP,2020.1.3,Win32,60,z,1,0.552125,,,,,,,,0.552125,1,,,,,,257,NW,"ID",50,veniod,VENIOD,z,,,,,,-0.022135417,-0.233072917,0,0,0,,0,32,32,316,1,,
,,,,,,,,,,,,,,,,,,5cdc899d48d5f100195fafff,2020-08-10_18h25.41.538,lexical_decision_task_MP,2020.1.3,Win32,60,z,1,0.77464,,,,,,,,0.77464,1,,,,,,374,NW,UN,50,yorque,SLIANT,z,,,,,,-0.022135417,-0.233072917,0,0,0,,0,33,33,433,1,,
,,,,,,,,,,,,,,,,,,5cdc899d48d5f100195fafff,2020-08-10_18h25.41.538,lexical_decision_task_MP,2020.1.3,Win32,60,m,1,0.551745,,,,,,,,0.551745,1,,,,,,239,WORD,"ID",33,lumber,LUMBER,m,,,,,,-0.022135417,-0.233072917,0,0,0,,0,34,34,58,1,,
,,,,,,,,,,,,,,,,,,5cdc899d48d5f100195fafff,2020-08-10_18h25.41.538,lexical_decision_task_MP,2020.1.3,Win32,60,m,1,0.56902,,,,,,,,0.56902,1,,,,,,43,WORD,"ID",50,tongue,TONGUE,m,,,,,,-0.022135417,-0.233072917,0,0,0,,0,35,35,102,1,,
,,,,,,,,,,,,,,,,,,5cdc899d48d5f100195fafff,2020-08-10_18h25.41.538,lexical_decision_task_MP,2020.1.3,Win32,60,z,1,0.68329,,,,,,,,0.68329,1,,,,,,433,NW,"ID",33,drance,DRANCE,z,,,,,,-0.022135417,-0.233072917,0,0,0,,0,36,36,252,1,,
,,,,,,,,,,,,,,,,,,5cdc899d48d5f100195fafff,2020-08-10_18h25.41.538,lexical_decision_task_MP,2020.1.3,Win32,60,m,1,0.53822,,,,,,,,0.53822,1,,,,,,162,WORD,UN,50,string,CANDLE,m,,,,,,-0.022135417,-0.233072917,0,0,0,,0,37,37,221,1,,
,,,,,,,,,,,,,,,,,,5cdc899d48d5f100195fafff,2020-08-10_18h25.41.538,lexical_decision_task_MP,2020.1.3,Win32,60,m,1,0.489295,,,,,,,,0.489295,1,,,,,,87,WORD,UN,33,sprawl,FILTER,m,,,,,,-0.022135417,-0.233072917,0,0,0,,0,38,38,146,1,,
,,,,,,,,,,,,,,,,,,5cdc899d48d5f100195fafff,2020-08-10_18h25.41.538,lexical_decision_task_MP,2020.1.3,Win32,60,m,1,0.50283,,,,,,,,0.50283,1,,,,,,152,WORD,UN,50,behold,ROCKET,m,,,,,,-0.022135417,-0.233072917,0,0,0,,0,39,39,211,1,,
,,,,,,,,,,,,,,,,,,5cdc899d48d5f100195fafff,2020-08-10_18h25.41.538,lexical_decision_task_MP,2020.1.3,Win32,60,m,1,0.63818,,,,,,,,0.63818,1,,,,,,11,WORD,"ID",50,cruise,CRUISE,m,,,,,,-0.022135417,-0.233072917,0,0,0,,0,40,40,70,1,,
,,,,,,,,,,,,,,,,,,5cdc899d48d5f100195fafff,2020-08-10_18h25.41.538,lexical_decision_task_MP,2020.1.3,Win32,60,m,1,0.6392,,,,,,,,0.6392,1,,,,,,166,WORD,UN,50,design,STARCH,m,,,,,,-0.022135417,-0.233072917,0,0,0,,0,41,41,225,1,,
,,,,,,,,,,,,,,,,,,5cdc899d48d5f100195fafff,2020-08-10_18h25.41.538,lexical_decision_task_MP,2020.1.3,Win32,60,z,1,0.671655,,,,,,,,0.671655,1,,,,,,429,NW,"ID",33,funtle,FUNTLE,z,,,,,,-0.022135417,-0.233072917,0,0,0,,0,42,42,248,1,,
,,,,,,,,,,,,,,,,,,5cdc899d48d5f100195fafff,2020-08-10_18h25.41.538,lexical_decision_task_MP,2020.1.3,Win32,60,m,0,0.63195,,,,,,,,0.63195,0,,,,,,329,NW,UN,33,kensom,YARIKE,z,,,,,,-0.022135417,-0.233072917,0,0,0,,0,43,43,388,1,,
,,,,,,,,,,,,,,,,,,5cdc899d48d5f100195fafff,2020-08-10_18h25.41.538,lexical_decision_task_MP,2020.1.3,Win32,60,z,1,0.58565,,,,,,,,0.58565,1,,,,,,367,NW,UN,50,hornal,SLIQUE,z,,,,,,-0.022135417,-0.233072917,0,0,0,,0,44,44,426,1,,
,,,,,,,,,,,,,,,,,,5cdc899d48d5f100195fafff,2020-08-10_18h25.41.538,lexical_decision_task_MP,2020.1.3,Win32,60,m,1,0.536515,,,,,,,,0.536515,1,,,,,,22,WORD,"ID",50,jockey,JOCKEY,m,,,,,,-0.022135417,-0.233072917,0,0,0,,0,45,45,81,1,,
,,,,,,,,,,,,,,,,,,5cdc899d48d5f100195fafff,2020-08-10_18h25.41.538,lexical_decision_task_MP,2020.1.3,Win32,60,z,1,0.706375,,,,,,,,0.706375,1,,,,,,470,NW,"ID",33,crudio,CRUDIO,z,,,,,,-0.022135417,-0.233072917,0,0,0,,0,46,46,289,1,,
,,,,,,,,,,,,,,,,,,5cdc899d48d5f100195fafff,2020-08-10_18h25.41.538,lexical_decision_task_MP,2020.1.3,Win32,60,m,1,0.504655,,,,,,,,0.504655,1,,,,,,157,WORD,UN,50,island,DRAGON,m,,,,,,-0.022135417,-0.233072917,0,0,0,,0,47,47,216,1,,
,,,,,,,,,,,,,,,,,,5cdc899d48d5f100195fafff,2020-08-10_18h25.41.538,lexical_decision_task_MP,2020.1.3,Win32,60,z,1,0.51852,,,,,,,,0.51852,1,,,,,,344,NW,UN,33,absend,SCRILY,z,,,,,,-0.022135417,-0.233072917,0,0,0,,0,48,48,403,1,,
,,,,,,,,,,,,,,,,,,5cdc899d48d5f100195fafff,2020-08-10_18h25.41.538,lexical_decision_task_MP,2020.1.3,Win32,60,z,1,0.559615,,,,,,,,0.559615,1,,,,,,419,NW,UN,50,gushop,SLOUNT,z,,,,,,-0.022135417,-0.233072917,0,0,0,,0,49,49,478,1,,
,,,,,,,,,,,,,,,,,,5cdc899d48d5f100195fafff,2020-08-10_18h25.41.538,lexical_decision_task_MP,2020.1.3,Win32,60,m,0,0.55044,,,,,,,,0.55044,0,,,,,,420,NW,UN,50,pauche,GUSHOP,z,,,,,,-0.022135417,-0.233072917,0,0,0,,0,50,50,479,1,,
,,,,,,,,,,,,,,,,,,5cdc899d48d5f100195fafff,2020-08-10_18h25.41.538,lexical_decision_task_MP,2020.1.3,Win32,60,z,1,0.503185,,,,,,,,0.503185,1,,,,,,285,NW,"ID",50,prudge,PRUDGE,z,,,,,,-0.022135417,-0.233072917,0,0,0,,0,51,51,344,1,,
,,,,,,,,,,,,,,,,,,5cdc899d48d5f100195fafff,2020-08-10_18h25.41.538,lexical_decision_task_MP,2020.1.3,Win32,60,z,1,0.78722,,,,,,,,0.78722,1,,,,,,369,NW,UN,50,sleact,WRONCH,z,,,,,,-0.022135417,-0.233072917,0,0,0,,0,52,52,428,1,,
,,,,,,,,,,,,,,,,,,5cdc899d48d5f100195fafff,2020-08-10_18h25.41.538,lexical_decision_task_MP,2020.1.3,Win32,60,m,1,0.65333,,,,,,,,0.65333,1,,,,,,72,WORD,UN,33,source,BRIGHT,m,,,,,,-0.022135417,-0.233072917,0,0,0,,0,53,53,131,1,,
,,,,,,,,,,,,,,,,,,5cdc899d48d5f100195fafff,2020-08-10_18h25.41.538,lexical_decision_task_MP,2020.1.3,Win32,60,z,1,0.5188,,,,,,,,0.5188,1,,,,,,246,NW,"ID",50,piaton,PIATON,z,,,,,,-0.022135417,-0.233072917,0,0,0,,0,54,54,305,1,,
,,,,,,,,,,,,,,,,,,5cdc899d48d5f100195fafff,2020-08-10_18h25.41.538,lexical_decision_task_MP,2020.1.3,Win32,60,z,1,0.504635,,,,,,,,0.504635,1,,,,,,463,NW,"ID",33,kispel,KISPEL,z,,,,,,-0.022135417,-0.233072917,0,0,0,,0,55,55,282,1,,
,,,,,,,,,,,,,,,,,,5cdc899d48d5f100195fafff,2020-08-10_18h25.41.538,lexical_decision_task_MP,2020.1.3,Win32,60,z,1,0.56079,,,,,,,,0.56079,1,,,,,,349,NW,UN,33,nagurs,ASYLEN,z,,,,,,-0.022135417,-0.233072917,0,0,0,,0,56,56,408,1,,
,,,,,,,,,,,,,,,,,,5cdc899d48d5f100195fafff,2020-08-10_18h25.41.538,lexical_decision_task_MP,2020.1.3,Win32,60,z,0,0.45427,,,,,,,,0.45427,0,,,,,,45,WORD,"ID",50,clergy,CLERGY,m,,,,,,-0.022135417,-0.233072917,0,0,0,,0,57,57,104,1,,
,,,,,,,,,,,,,,,,,,5cdc899d48d5f100195fafff,2020-08-10_18h25.41.538,lexical_decision_task_MP,2020.1.3,Win32,60,z,0,0.59629,,,,,,,,0.59629,0,,,,,,113,WORD,UN,33,placid,CHORUS,m,,,,,,-0.022135417,-0.233072917,0,0,0,,0,58,58,172,1,,
,,,,,,,,,,,,,,,,,,5cdc899d48d5f100195fafff,2020-08-10_18h25.41.538,lexical_decision_task_MP,2020.1.3,Win32,60,z,0,0.658955,,,,,,,,0.658955,0,,,,,,111,WORD,UN,33,breath,INDUCE,m,,,,,,-0.022135417,-0.233072917,0,0,0,,0,59,59,170,1,,
,,,,,,,,,,,,,,,,,,5cdc899d48d5f100195fafff,2020-08-10_18h25.41.538,lexical_decision_task_MP,2020.1.3,Win32,60,m,1,0.485025,,,,,,,,0.485025,1,,,,,,193,WORD,"ID",33,object,OBJECT,m,,,,,,-0.022135417,-0.233072917,0,0,0,,0,60,60,12,1,,
,,,,,,,,,,,,,,,,,,5cdc899d48d5f100195fafff,2020-08-10_18h25.41.538,lexical_decision_task_MP,2020.1.3,Win32,60,z,1,0.59916,,,,,,,,0.59916,1,,,,,,276,NW,"ID",50,yarmon,YARMON,z,,,,,,-0.022135417,-0.233072917,0,0,0,,0,61,61,335,1,,
,,,,,,,,,,,,,,,,,,5cdc899d48d5f100195fafff,2020-08-10_18h25.41.538,lexical_decision_task_MP,2020.1.3,Win32,60,z,1,0.700505,,,,,,,,0.700505,1,,,,,,411,NW,UN,50,jiluer,ORCHIN,z,,,,,,-0.022135417,-0.233072917,0,0,0,,0,62,62,470,1,,
,,,,,,,,,,,,,,,,,,5cdc899d48d5f100195fafff,2020-08-10_18h25.41.538,lexical_decision_task_MP,2020.1.3,Win32,60,z,1,0.50711,,,,,,,,0.50711,1,,,,,,330,NW,UN,33,gilfew,KENSOM,z,,,,,,-0.022135417,-0.233072917,0,0,0,,0,63,63,389,1,,
,,,,,,,,,,,,,,,,,,5cdc899d48d5f100195fafff,2020-08-10_18h25.41.538,lexical_decision_task_MP,2020.1.3,Win32,60,m,1,0.48444,,,,,,,,0.48444,1,,,,,,34,WORD,"ID",50,jungle,JUNGLE,m,,,,,,-0.022135417,-0.233072917,0,0,0,,0,64,64,93,1,,
,,,,,,,,,,,,,,,,,,5cdc899d48d5f100195fafff,2020-08-10_18h25.41.538,lexical_decision_task_MP,2020.1.3,Win32,60,m,1,0.52279,,,,,,,,0.52279,1,,,,,,102,WORD,UN,33,bounce,DIRECT,m,,,,,,-0.022135417,-0.233072917,0,0,0,,0,65,65,161,1,,
,,,,,,,,,,,,,,,,,,5cdc899d48d5f100195fafff,2020-08-10_18h25.41.538,lexical_decision_task_MP,2020.1.3,Win32,60,z,1,0.539245,,,,,,,,0.539245,1,,,,,,278,NW,"ID",50,unighs,UNIGHS,z,,,,,,-0.022135417,-0.233072917,0,0,0,,0,66,66,337,1,,
,,,,,,,,,,,,,,,,,,5cdc899d48d5f100195fafff,2020-08-10_18h25.41.538,lexical_decision_task_MP,2020.1.3,Win32,60,m,1,0.59164,,,,,,,,0.59164,1,,,,,,219,WORD,"ID",33,bucket,BUCKET,m,,,,,,-0.022135417,-0.233072917,0,0,0,,0,67,67,38,1,,
,,,,,,,,,,,,,,,,,,5cdc899d48d5f100195fafff,2020-08-10_18h25.41.538,lexical_decision_task_MP,2020.1.3,Win32,60,z,1,0.56742,,,,,,,,0.56742,1,,,,,,255,NW,"ID",50,apight,APIGHT,z,,,,,,-0.022135417,-0.233072917,0,0,0,,0,68,68,314,1,,
,,,,,,,,,,,,,,,,,,5cdc899d48d5f100195fafff,2020-08-10_18h25.41.538,lexical_decision_task_MP,2020.1.3,Win32,60,m,1,0.702015,,,,,,,,0.702015,1,,,,,,14,WORD,"ID",50,almost,ALMOST,m,,,,,,-0.022135417,-0.233072917,0,0,0,,0,69,69,73,1,,
,,,,,,,,,,,,,,,,,,5cdc899d48d5f100195fafff,2020-08-10_18h25.41.538,lexical_decision_task_MP,2020.1.3,Win32,60,z,1,0.437545,,,,,,,,0.437545,1,,,,,,416,NW,UN,50,earoud,PATHEL,z,,,,,,-0.022135417,-0.233072917,0,0,0,,0,70,70,475,1,,
,,,,,,,,,,,,,,,,,,5cdc899d48d5f100195fafff,2020-08-10_18h25.41.538,lexical_decision_task_MP,2020.1.3,Win32,60,z,1,0.496985,,,,,,,,0.496985,1,,,,,,377,NW,UN,50,shrile,INJORE,z,,,,,,-0.022135417,-0.233072917,0,0,0,,0,71,71,436,1,,
,,,,,,,,,,,,,,,,,,5cdc899d48d5f100195fafff,2020-08-10_18h25.41.538,lexical_decision_task_MP,2020.1.3,Win32,60,z,0,0.599115,,,,,,,,0.599115,0,,,,,,169,WORD,UN,50,pounce,GENIUS,m,,,,,,-0.022135417,-0.233072917,0,0,0,,0,72,72,228,1,,
,,,,,,,,,,,,,,,,,,5cdc899d48d5f100195fafff,2020-08-10_18h25.41.538,lexical_decision_task_MP,2020.1.3,Win32,60,m,1,0.515875,,,,,,,,0.515875,1,,,,,,140,WORD,UN,50,chrome,PRINCE,m,,,,,,-0.022135417,-0.233072917,0,0,0,,0,73,73,199,1,,
,,,,,,,,,,,,,,,,,,5cdc899d48d5f100195fafff,2020-08-10_18h25.41.538,lexical_decision_task_MP,2020.1.3,Win32,60,m,1,0.521385,,,,,,,,0.521385,1,,,,,,170,WORD,UN,50,dragon,POUNCE,m,,,,,,-0.022135417,-0.233072917,0,0,0,,0,74,74,229,1,,
,,,,,,,,,,,,,,,,,,5cdc899d48d5f100195fafff,2020-08-10_18h25.41.538,lexical_decision_task_MP,2020.1.3,Win32,60,m,1,0.61594,,,,,,,,0.61594,1,,,,,,129,WORD,UN,50,stupid,MARVEL,m,,,,,,-0.022135417,-0.233072917,0,0,0,,0,75,75,188,1,,
,,,,,,,,,,,,,,,,,,5cdc899d48d5f100195fafff,2020-08-10_18h25.41.538,lexical_decision_task_MP,2020.1.3,Win32,60,z,0,0.482775,,,,,,,,0.482775,0,,,,,,89,WORD,UN,33,relish,PERMIT,m,,,,,,-0.022135417,-0.233072917,0,0,0,,0,76,76,148,1,,
,,,,,,,,,,,,,,,,,,5cdc899d48d5f100195fafff,2020-08-10_18h25.41.538,lexical_decision_task_MP,2020.1.3,Win32,60,m,1,0.571465,,,,,,,,0.571465,1,,,,,,126,WORD,UN,50,castle,ENOUGH,m,,,,,,-0.022135417,-0.233072917,0,0,0,,0,77,77,185,1,,
,,,,,,,,,,,,,,,,,,5cdc899d48d5f100195fafff,2020-08-10_18h25.41.538,lexical_decision_task_MP,2020.1.3,Win32,60,z,1,0.619345,,,,,,,,0.619345,1,,,,,,294,NW,"ID",50,inhort,INHORT,z,,,,,,-0.022135417,-0.233072917,0,0,0,,0,78,78,353,1,,
,,,,,,,,,,,,,,,,,,5cdc899d48d5f100195fafff,2020-08-10_18h25.41.538,lexical_decision_task_MP,2020.1.3,Win32,60,z,1,0.57977,,,,,,,,0.57977,1,,,,,,339,NW,UN,33,fiatch,FACHOW,z,,,,,,-0.022135417,-0.233072917,0,0,0,,0,79,79,398,1,,
,,,,,,,,,,,,,,,,,,5cdc899d48d5f100195fafff,2020-08-10_18h25.41.538,lexical_decision_task_MP,2020.1.3,Win32,60,z,1,0.55745,,,,,,,,0.55745,1,,,,,,376,NW,UN,50,veigma,IGUARE,z,,,,,,-0.022135417,-0.233072917,0,0,0,,0,80,80,435,1,,
,,,,,,,,,,,,,,,,,,5cdc899d48d5f100195fafff,2020-08-10_18h25.41.538,lexical_decision_task_MP,2020.1.3,Win32,60,z,0,0.484895,,,,,,,,0.484895,0,,,,,,16,WORD,"ID",50,faucet,FAUCET,m,,,,,,-0.022135417,-0.233072917,0,0,0,,0,81,81,75,1,,
,,,,,,,,,,,,,,,,,,5cdc899d48d5f100195fafff,2020-08-10_18h25.41.538,lexical_decision_task_MP,2020.1.3,Win32,60,z,1,0.53852,,,,,,,,0.53852,1,,,,,,259,NW,"ID",50,soudal,SOUDAL,z,,,,,,-0.022135417,-0.233072917,0,0,0,,0,82,82,318,1,,
,,,,,,,,,,,,,,,,,,5cdc899d48d5f100195fafff,2020-08-10_18h25.41.538,lexical_decision_task_MP,2020.1.3,Win32,60,z,1,0.587115,,,,,,,,0.587115,1,,,,,,256,NW,"ID",50,inlors,INLORS,z,,,,,,-0.022135417,-0.233072917,0,0,0,,0,83,83,315,1,,
,,,,,,,,,,,,,,,,,,5cdc899d48d5f100195fafff,2020-08-10_18h25.41.538,lexical_decision_task_MP,2020.1.3,Win32,60,m,1,0.536215,,,,,,,,0.536215,1,,,,,,41,WORD,"ID",50,spring,SPRING,m,,,,,,-0.022135417,-0.233072917,0,0,0,,0,84,84,100,1,,
,,,,,,,,,,,,,,,,,,5cdc899d48d5f100195fafff,2020-08-10_18h25.41.538,lexical_decision_task_MP,2020.1.3,Win32,60,m,1,0.50206,,,,,,,,0.50206,1,,,,,,204,WORD,"ID",33,burden,BURDEN,m,,,,,,-0.022135417,-0.233072917,0,0,0,,0,85,85,23,1,,
,,,,,,,,,,,,,,,,,,5cdc899d48d5f100195fafff,2020-08-10_18h25.41.538,lexical_decision_task_MP,2020.1.3,Win32,60,z,1,0.70525,,,,,,,,0.70525,1,,,,,,480,NW,"ID",33,robuly,ROBULY,z,,,,,,-0.022135417,-0.233072917,0,0,0,,0,86,86,299,1,,
,,,,,,,,,,,,,,,,,,5cdc899d48d5f100195fafff,2020-08-10_18h25.41.538,lexical_decision_task_MP,2020.1.3,Win32,60,z,1,0.693585,,,,,,,,0.693585,1,,,,,,249,NW,"ID",50,batrol,BATROL,z,,,,,,-0.022135417,-0.233072917,0,0,0,,0,87,87,308,1,,
,,,,,,,,,,,,,,,,,,5cdc899d48d5f100195fafff,2020-08-10_18h25.41.538,lexical_decision_task_MP,2020.1.3,Win32,60,z,1,0.53556,,,,,,,,0.53556,1,,,,,,426,NW,"ID",33,urivel,URIVEL,z,,,,,,-0.022135417,-0.233072917,0,0,0,,0,88,88,245,1,,
,,,,,,,,,,,,,,,,,,5cdc899d48d5f100195fafff,2020-08-10_18h25.41.538,lexical_decision_task_MP,2020.1.3,Win32,60,z,1,0.52017,,,,,,,,0.52017,1,,,,,,476,NW,"ID",33,josted,JOSTED,z,,,,,,-0.022135417,-0.233072917,0,0,0,,0,89,89,295,1,,
,,,,,,,,,,,,,,,,,,5cdc899d48d5f100195fafff,2020-08-10_18h25.41.538,lexical_decision_task_MP,2020.1.3,Win32,60,m,1,0.53498,,,,,,,,0.53498,1,,,,,,147,WORD,UN,50,custom,GARLIC,m,,,,,,-0.022135417,-0.233072917,0,0,0,,0,90,90,206,1,,
,,,,,,,,,,,,,,,,,,5cdc899d48d5f100195fafff,2020-08-10_18h25.41.538,lexical_decision_task_MP,2020.1.3,Win32,60,m,1,0.55187,,,,,,,,0.55187,1,,,,,,154,WORD,UN,50,lizard,AUTHOR,m,,,,,,-0.022135417,-0.233072917,0,0,0,,0,91,91,213,1,,
,,,,,,,,,,,,,,,,,,5cdc899d48d5f100195fafff,2020-08-10_18h25.41.538,lexical_decision_task_MP,2020.1.3,Win32,60,z,1,0.488095,,,,,,,,0.488095,1,,,,,,347,NW,UN,33,dumple,KERIFT,z,,,,,,-0.022135417,-0.233072917,0,0,0,,0,92,92,406,1,,
,,,,,,,,,,,,,,,,,,5cdc899d48d5f100195fafff,2020-08-10_18h25.41.538,lexical_decision_task_MP,2020.1.3,Win32,60,z,1,0.9734,,,,,,,,0.9734,1,,,,,,322,NW,UN,33,rosail,SLANCH,z,,,,,,-0.022135417,-0.233072917,0,0,0,,0,93,93,381,1,,
,,,,,,,,,,,,,,,,,,5cdc899d48d5f100195fafff,2020-08-10_18h25.41.538,lexical_decision_task_MP,2020.1.3,Win32,60,m,1,0.766735,,,,,,,,0.766735,1,,,,,,216,WORD,"ID",33,behalf,BEHALF,m,,,,,,-0.022135417,-0.233072917,0,0,0,,0,94,94,35,1,,
,,,,,,,,,,,,,,,,,,5cdc899d48d5f100195fafff,2020-08-10_18h25.41.538,lexical_decision_task_MP,2020.1.3,Win32,60,m,1,0.808215,,,,,,,,0.808215,1,,,,,,227,WORD,"ID",33,seldom,SELDOM,m,,,,,,-0.022135417,-0.233072917,0,0,0,,0,95,95,46,1,,
,,,,,,,,,,,,,,,,,,5cdc899d48d5f100195fafff,2020-08-10_18h25.41.538,lexical_decision_task_MP,2020.1.3,Win32,60,z,1,0.65467,,,,,,,,0.65467,1,,,,,,324,NW,UN,33,thruse,STEIKH,z,,,,,,-0.022135417,-0.233072917,0,0,0,,0,96,96,383,1,,
,,,,,,,,,,,,,,,,,,5cdc899d48d5f100195fafff,2020-08-10_18h25.41.538,lexical_decision_task_MP,2020.1.3,Win32,60,z,1,0.60582,,,,,,,,0.60582,1,,,,,,399,NW,UN,50,wearox,FOURET,z,,,,,,-0.022135417,-0.233072917,0,0,0,,0,97,97,458,1,,
,,,,,,,,,,,,,,,,,,5cdc899d48d5f100195fafff,2020-08-10_18h25.41.538,lexical_decision_task_MP,2020.1.3,Win32,60,z,1,0.51446,,,,,,,,0.51446,1,,,,,,448,NW,"ID",33,sadent,SADENT,z,,,,,,-0.022135417,-0.233072917,0,0,0,,0,98,98,267,1,,
,,,,,,,,,,,,,,,,,,5cdc899d48d5f100195fafff,2020-08-10_18h25.41.538,lexical_decision_task_MP,2020.1.3,Win32,60,z,1,0.51787,,,,,,,,0.51787,1,,,,,,350,NW,UN,33,tiesch,NAGURS,z,,,,,,-0.022135417,-0.233072917,0,0,0,,0,99,99,409,1,,
,,,,,,,,,,,,,,,,,,5cdc899d48d5f100195fafff,2020-08-10_18h25.41.538,lexical_decision_task_MP,2020.1.3,Win32,60,m,1,0.70583,,,,,,,,0.70583,1,,,,,,134,WORD,UN,50,import,STAPLE,m,,,,,,-0.022135417,-0.233072917,0,0,0,,0,100,100,193,1,,
,,,,,,,,,,,,,,,,,,5cdc899d48d5f100195fafff,2020-08-10_18h25.41.538,lexical_decision_task_MP,2020.1.3,Win32,60,m,1,0.668005,,,,,,,,0.668005,1,,,,,,13,WORD,"ID",50,strive,STRIVE,m,,,,,,-0.022135417,-0.233072917,0,0,0,,0,101,101,72,1,,
,,,,,,,,,,,,,,,,,,5cdc899d48d5f100195fafff,2020-08-10_18h25.41.538,lexical_decision_task_MP,2020.1.3,Win32,60,m,1,0.73653,,,,,,,,0.73653,1,,,,,,156,WORD,UN,50,depart,CRADLE,m,,,,,,-0.022135417,-0.233072917,0,0,0,,0,102,102,215,1,,
,,,,,,,,,,,,,,,,,,5cdc899d48d5f100195fafff,2020-08-10_18h25.41.538,lexical_decision_task_MP,2020.1.3,Win32,60,m,1,0.73663,,,,,,,,0.73663,1,,,,,,223,WORD,"ID",33,kidney,KIDNEY,m,,,,,,-0.022135417,-0.233072917,0,0,0,,0,103,103,42,1,,
,,,,,,,,,,,,,,,,,,5cdc899d48d5f100195fafff,2020-08-10_18h25.41.538,lexical_decision_task_MP,2020.1.3,Win32,60,m,1,0.52277,,,,,,,,0.52277,1,,,,,,133,WORD,UN,50,staple,CHROME,m,,,,,,-0.022135417,-0.233072917,0,0,0,,0,104,104,192,1,,
,,,,,,,,,,,,,,,,,,5cdc899d48d5f100195fafff,2020-08-10_18h25.41.538,lexical_decision_task_MP,2020.1.3,Win32,60,m,1,0.534695,,,,,,,,0.534695,1,,,,,,123,WORD,UN,50,blouse,STRIKE,m,,,,,,-0.022135417,-0.233072917,0,0,0,,0,105,105,182,1,,
,,,,,,,,,,,,,,,,,,5cdc899d48d5f100195fafff,2020-08-10_18h25.41.538,lexical_decision_task_MP,2020.1.3,Win32,60,m,1,0.55395,,,,,,,,0.55395,1,,,,,,37,WORD,"ID",50,insult,INSULT,m,,,,,,-0.022135417,-0.233072917,0,0,0,,0,106,106,96,1,,
,,,,,,,,,,,,,,,,,,5cdc899d48d5f100195fafff,2020-08-10_18h25.41.538,lexical_decision_task_MP,2020.1.3,Win32,60,m,1,0.50293,,,,,,,,0.50293,1,,,,,,237,WORD,"ID",33,poster,POSTER,m,,,,,,-0.022135417,-0.233072917,0,0,0,,0,107,107,56,1,,
,,,,,,,,,,,,,,,,,,5cdc899d48d5f100195fafff,2020-08-10_18h25.41.538,lexical_decision_task_MP,2020.1.3,Win32,60,m,1,0.569585,,,,,,,,0.569585,1,,,,,,159,WORD,UN,50,violet,DETAIL,m,,,,,,-0.022135417,-0.233072917,0,0,0,,0,108,108,218,1,,
,,,,,,,,,,,,,,,,,,5cdc899d48d5f100195fafff,2020-08-10_18h25.41.538,lexical_decision_task_MP,2020.1.3,Win32,60,z,1,0.602045,,,,,,,,0.602045,1,,,,,,424,NW,"ID",33,praile,PRAILE,z,,,,,,-0.022135417,-0.233072917,0,0,0,,0,109,109,243,1,,
,,,,,,,,,,,,,,,,,,5cdc899d48d5f100195fafff,2020-08-10_18h25.41.538,lexical_decision_task_MP,2020.1.3,Win32,60,z,1,0.486465,,,,,,,,0.486465,1,,,,,,439,NW,"ID",33,limpor,LIMPOR,z,,,,,,-0.022135417,-0.233072917,0,0,0,,0,110,110,258,1,,
,,,,,,,,,,,,,,,,,,5cdc899d48d5f100195fafff,2020-08-10_18h25.41.538,lexical_decision_task_MP,2020.1.3,Win32,60,m,1,0.831025,,,,,,,,0.831025,1,,,,,,68,WORD,UN,33,plenty,FUMBLE,m,,,,,,-0.022135417,-0.233072917,0,0,0,,0,111,111,127,1,,
,,,,,,,,,,,,,,,,,,5cdc899d48d5f100195fafff,2020-08-10_18h25.41.538,lexical_decision_task_MP,2020.1.3,Win32,60,m,1,0.50383,,,,,,,,0.50383,1,,,,,,192,WORD,"ID",33,plague,PLAGUE,m,,,,,,-0.022135417,-0.233072917,0,0,0,,0,112,112,11,1,,
,,,,,,,,,,,,,,,,,,5cdc899d48d5f100195fafff,2020-08-10_18h25.41.538,lexical_decision_task_MP,2020.1.3,Win32,60,m,1,0.48961,,,,,,,,0.48961,1,,,,,,33,WORD,"ID",50,butler,BUTLER,m,,,,,,-0.022135417,-0.233072917,0,0,0,,0,113,113,92,1,,
,,,,,,,,,,,,,,,,,,5cdc899d48d5f100195fafff,2020-08-10_18h25.41.538,lexical_decision_task_MP,2020.1.3,Win32,60,m,1,0.551785,,,,,,,,0.551785,1,,,,,,46,WORD,"ID",50,single,SINGLE,m,,,,,,-0.022135417,-0.233072917,0,0,0,,0,114,114,105,1,,
,,,,,,,,,,,,,,,,,,5cdc899d48d5f100195fafff,2020-08-10_18h25.41.538,lexical_decision_task_MP,2020.1.3,Win32,60,m,1,0.504905,,,,,,,,0.504905,1,,,,,,124,WORD,UN,50,nickel,BLOUSE,m,,,,,,-0.022135417,-0.233072917,0,0,0,,0,115,115,183,1,,
,,,,,,,,,,,,,,,,,,5cdc899d48d5f100195fafff,2020-08-10_18h25.41.538,lexical_decision_task_MP,2020.1.3,Win32,60,z,1,0.637215,,,,,,,,0.637215,1,,,,,,444,NW,"ID",33,jaunce,JAUNCE,z,,,,,,-0.022135417,-0.233072917,0,0,0,,0,116,116,263,1,,
,,,,,,,,,,,,,,,,,,5cdc899d48d5f100195fafff,2020-08-10_18h25.41.538,lexical_decision_task_MP,2020.1.3,Win32,60,m,1,0.469065,,,,,,,,0.469065,1,,,,,,151,WORD,UN,50,rocket,MYSTIC,m,,,,,,-0.022135417,-0.233072917,0,0,0,,0,117,117,210,1,,
,,,,,,,,,,,,,,,,,,5cdc899d48d5f100195fafff,2020-08-10_18h25.41.538,lexical_decision_task_MP,2020.1.3,Win32,60,z,1,0.64353,,,,,,,,0.64353,1,,,,,,447,NW,"ID",33,gircue,GIRCUE,z,,,,,,-0.022135417,-0.233072917,0,0,0,,0,118,118,266,1,,
,,,,,,,,,,,,,,,,,,5cdc899d48d5f100195fafff,2020-08-10_18h25.41.538,lexical_decision_task_MP,2020.1.3,Win32,60,m,0,0.449395,,,,,,,,0.449395,0,,,,,,319,NW,UN,33,jockal,ZOMBER,z,,,,,,-0.022135417,-0.233072917,0,0,0,,0,119,119,378,1,,
,,,,,,,,,,,,,,,,,,5cdc899d48d5f100195fafff,2020-08-10_18h25.41.538,lexical_decision_task_MP,2020.1.3,Win32,60,m,1,0.552125,,,,,,,,0.552125,1,,,,,,188,WORD,"ID",33,social,SOCIAL,m,,,,,,-0.001302083,-0.393229167,1,0,0,,0,120,120,7,1,break_done_button,
,,,,,,,,,,,,,,,,,,5cdc899d48d5f100195fafff,2020-08-10_18h25.41.538,lexical_decision_task_MP,2020.1.3,Win32,60,m,1,1.597895,,,,,,,,1.597895,1,,,,,,175,WORD,UN,50,strife,FABRIC,m,,,,,,0.002604167,-0.389322917,0,0,0,,0,121,121,234,1,,
,,,,,,,,,,,,,,,,,,5cdc899d48d5f100195fafff,2020-08-10_18h25.41.538,lexical_decision_task_MP,2020.1.3,Win32,60,m,1,0.48614,,,,,,,,0.48614,1,,,,,,18,WORD,"ID",50,humble,HUMBLE,m,,,,,,0.002604167,-0.389322917,0,0,0,,0,122,122,77,1,,
,,,,,,,,,,,,,,,,,,5cdc899d48d5f100195fafff,2020-08-10_18h25.41.538,lexical_decision_task_MP,2020.1.3,Win32,60,z,1,0.693475,,,,,,,,0.693475,1,,,,,,383,NW,UN,50,guesco,AUNGRE,z,,,,,,0.002604167,-0.389322917,0,0,0,,0,123,123,442,1,,
,,,,,,,,,,,,,,,,,,5cdc899d48d5f100195fafff,2020-08-10_18h25.41.538,lexical_decision_task_MP,2020.1.3,Win32,60,z,1,0.552955,,,,,,,,0.552955,1,,,,,,407,NW,UN,50,hurnia,SUIVER,z,,,,,,0.002604167,-0.389322917,0,0,0,,0,124,124,466,1,,
,,,,,,,,,,,,,,,,,,5cdc899d48d5f100195fafff,2020-08-10_18h25.41.538,lexical_decision_task_MP,2020.1.3,Win32,60,m,1,0.566755,,,,,,,,0.566755,1,,,,,,158,WORD,UN,50,detail,ISLAND,m,,,,,,0.002604167,-0.389322917,0,0,0,,0,125,125,217,1,,
,,,,,,,,,,,,,,,,,,5cdc899d48d5f100195fafff,2020-08-10_18h25.41.538,lexical_decision_task_MP,2020.1.3,Win32,60,z,1,0.569515,,,,,,,,0.569515,1,,,,,,321,NW,UN,33,slanch,MIATOR,z,,,,,,0.002604167,-0.389322917,0,0,0,,0,126,126,380,1,,
,,,,,,,,,,,,,,,,,,5cdc899d48d5f100195fafff,2020-08-10_18h25.41.538,lexical_decision_task_MP,2020.1.3,Win32,60,m,1,0.6187,,,,,,,,0.6187,1,,,,,,51,WORD,"ID",50,hungry,HUNGRY,m,,,,,,0.002604167,-0.389322917,0,0,0,,0,127,127,110,1,,
,,,,,,,,,,,,,,,,,,5cdc899d48d5f100195fafff,2020-08-10_18h25.41.538,lexical_decision_task_MP,2020.1.3,Win32,60,z,1,0.52831,,,,,,,,0.52831,1,,,,,,382,NW,UN,50,aungre,SARLEY,z,,,,,,0.002604167,-0.389322917,0,0,0,,0,128,128,441,1,,
,,,,,,,,,,,,,,,,,,5cdc899d48d5f100195fafff,2020-08-10_18h25.41.538,lexical_decision_task_MP,2020.1.3,Win32,60,z,1,0.626975,,,,,,,,0.626975,1,,,,,,275,NW,"ID",50,sleirt,SLEIRT,z,,,,,,0.002604167,-0.389322917,0,0,0,,0,129,129,334,1,,
,,,,,,,,,,,,,,,,,,5cdc899d48d5f100195fafff,2020-08-10_18h25.41.538,lexical_decision_task_MP,2020.1.3,Win32,60,m,1,0.55612,,,,,,,,0.55612,1,,,,,,57,WORD,"ID",50,change,CHANGE,m,,,,,,0.002604167,-0.389322917,0,0,0,,0,130,130,116,1,,
,,,,,,,,,,,,,,,,,,5cdc899d48d5f100195fafff,2020-08-10_18h25.41.538,lexical_decision_task_MP,2020.1.3,Win32,60,z,1,0.545115,,,,,,,,0.545115,1,,,,,,456,NW,"ID",33,broget,BROGET,z,,,,,,0.002604167,-0.389322917,0,0,0,,0,131,131,275,1,,
,,,,,,,,,,,,,,,,,,5cdc899d48d5f100195fafff,2020-08-10_18h25.41.538,lexical_decision_task_MP,2020.1.3,Win32,60,m,1,0.472685,,,,,,,,0.472685,1,,,,,,28,WORD,"ID",50,comedy,COMEDY,m,,,,,,0.002604167,-0.389322917,0,0,0,,0,132,132,87,1,,
,,,,,,,,,,,,,,,,,,5cdc899d48d5f100195fafff,2020-08-10_18h25.41.538,lexical_decision_task_MP,2020.1.3,Win32,60,z,1,0.55894,,,,,,,,0.55894,1,,,,,,477,NW,"ID",33,photie,PHOTIE,z,,,,,,0.002604167,-0.389322917,0,0,0,,0,133,133,296,1,,
,,,,,,,,,,,,,,,,,,5cdc899d48d5f100195fafff,2020-08-10_18h25.41.538,lexical_decision_task_MP,2020.1.3,Win32,60,m,1,0.85486,,,,,,,,0.85486,1,,,,,,122,WORD,UN,50,strike,LINGER,m,,,,,,0.002604167,-0.389322917,0,0,0,,0,134,134,181,1,,
,,,,,,,,,,,,,,,,,,5cdc899d48d5f100195fafff,2020-08-10_18h25.41.538,lexical_decision_task_MP,2020.1.3,Win32,60,z,1,0.65067,,,,,,,,0.65067,1,,,,,,452,NW,"ID",33,surden,SURDEN,z,,,,,,0.002604167,-0.389322917,0,0,0,,0,135,135,271,1,,
,,,,,,,,,,,,,,,,,,5cdc899d48d5f100195fafff,2020-08-10_18h25.41.538,lexical_decision_task_MP,2020.1.3,Win32,60,m,0,0.969985,,,,,,,,0.969985,0,,,,,,260,NW,"ID",50,unject,UNJECT,z,,,,,,0.002604167,-0.389322917,0,0,0,,0,136,136,319,1,,
,,,,,,,,,,,,,,,,,,5cdc899d48d5f100195fafff,2020-08-10_18h25.41.538,lexical_decision_task_MP,2020.1.3,Win32,60,m,1,0.63178,,,,,,,,0.63178,1,,,,,,6,WORD,"ID",50,bundle,BUNDLE,m,,,,,,0.002604167,-0.389322917,0,0,0,,0,137,137,65,1,,
,,,,,,,,,,,,,,,,,,5cdc899d48d5f100195fafff,2020-08-10_18h25.41.538,lexical_decision_task_MP,2020.1.3,Win32,60,m,1,0.52196,,,,,,,,0.52196,1,,,,,,25,WORD,"ID",50,domain,DOMAIN,m,,,,,,0.002604167,-0.390625,0,0,0,,0,138,138,84,1,,
,,,,,,,,,,,,,,,,,,5cdc899d48d5f100195fafff,2020-08-10_18h25.41.538,lexical_decision_task_MP,2020.1.3,Win32,60,m,1,0.698725,,,,,,,,0.698725,1,,,,,,167,WORD,UN,50,answer,DESIGN,m,,,,,,0.002604167,-0.390625,0,0,0,,0,139,139,226,1,,
,,,,,,,,,,,,,,,,,,5cdc899d48d5f100195fafff,2020-08-10_18h25.41.538,lexical_decision_task_MP,2020.1.3,Win32,60,z,1,0.646825,,,,,,,,0.646825,1,,,,,,400,NW,UN,50,mustil,WEAROX,z,,,,,,0.002604167,-0.390625,0,0,0,,0,140,140,459,1,,
,,,,,,,,,,,,,,,,,,5cdc899d48d5f100195fafff,2020-08-10_18h25.41.538,lexical_decision_task_MP,2020.1.3,Win32,60,m,1,0.567955,,,,,,,,0.567955,1,,,,,,174,WORD,UN,50,fabric,TURKEY,m,,,,,,0.002604167,-0.390625,0,0,0,,0,141,141,233,1,,
,,,,,,,,,,,,,,,,,,5cdc899d48d5f100195fafff,2020-08-10_18h25.41.538,lexical_decision_task_MP,2020.1.3,Win32,60,m,1,0.889185,,,,,,,,0.889185,1,,,,,,131,WORD,UN,50,strong,QUENCH,m,,,,,,0.002604167,-0.390625,0,0,0,,0,142,142,190,1,,
,,,,,,,,,,,,,,,,,,5cdc899d48d5f100195fafff,2020-08-10_18h25.41.538,lexical_decision_task_MP,2020.1.3,Win32,60,z,1,0.573395,,,,,,,,0.573395,1,,,,,,293,NW,"ID",50,swance,SWANCE,z,,,,,,0.002604167,-0.390625,0,0,0,,0,143,143,352,1,,
,,,,,,,,,,,,,,,,,,5cdc899d48d5f100195fafff,2020-08-10_18h25.41.538,lexical_decision_task_MP,2020.1.3,Win32,60,m,1,0.698535,,,,,,,,0.698535,1,,,,,,79,WORD,UN,33,family,THEORY,m,,,,,,0.002604167,-0.390625,0,0,0,,0,144,144,138,1,,
,,,,,,,,,,,,,,,,,,5cdc899d48d5f100195fafff,2020-08-10_18h25.41.538,lexical_decision_task_MP,2020.1.3,Win32,60,m,1,0.580145,,,,,,,,0.580145,1,,,,,,198,WORD,"ID",33,wicked,WICKED,m,,,,,,0.002604167,-0.390625,0,0,0,,0,145,145,17,1,,
,,,,,,,,,,,,,,,,,,5cdc899d48d5f100195fafff,2020-08-10_18h25.41.538,lexical_decision_task_MP,2020.1.3,Win32,60,z,1,0.57199,,,,,,,,0.57199,1,,,,,,378,NW,UN,50,auting,SHRILE,z,,,,,,0.002604167,-0.390625,0,0,0,,0,146,146,437,1,,
,,,,,,,,,,,,,,,,,,5cdc899d48d5f100195fafff,2020-08-10_18h25.41.538,lexical_decision_task_MP,2020.1.3,Win32,60,z,1,0.598135,,,,,,,,0.598135,1,,,,,,438,NW,"ID",33,baitch,BAITCH,z,,,,,,0.002604167,-0.390625,0,0,0,,0,147,147,257,1,,
,,,,,,,,,,,,,,,,,,5cdc899d48d5f100195fafff,2020-08-10_18h25.41.538,lexical_decision_task_MP,2020.1.3,Win32,60,z,1,0.5553,,,,,,,,0.5553,1,,,,,,353,NW,UN,33,virlex,CLUREY,z,,,,,,0.002604167,-0.390625,0,0,0,,0,148,148,412,1,,
,,,,,,,,,,,,,,,,,,5cdc899d48d5f100195fafff,2020-08-10_18h25.41.538,lexical_decision_task_MP,2020.1.3,Win32,60,m,1,0.46519,,,,,,,,0.46519,1,,,,,,32,WORD,"ID",50,buckle,BUCKLE,m,,,,,,0.002604167,-0.390625,0,0,0,,0,149,149,91,1,,
,,,,,,,,,,,,,,,,,,5cdc899d48d5f100195fafff,2020-08-10_18h25.41.538,lexical_decision_task_MP,2020.1.3,Win32,60,m,1,0.63685,,,,,,,,0.63685,1,,,,,,21,WORD,"ID",50,simple,SIMPLE,m,,,,,,0.002604167,-0.390625,0,0,0,,0,150,150,80,1,,
,,,,,,,,,,,,,,,,,,5cdc899d48d5f100195fafff,2020-08-10_18h25.41.538,lexical_decision_task_MP,2020.1.3,Win32,60,m,1,0.518305,,,,,,,,0.518305,1,,,,,,189,WORD,"ID",33,censor,CENSOR,m,,,,,,0.002604167,-0.390625,0,0,0,,0,151,151,8,1,,
,,,,,,,,,,,,,,,,,,5cdc899d48d5f100195fafff,2020-08-10_18h25.41.538,lexical_decision_task_MP,2020.1.3,Win32,60,m,1,0.47719,,,,,,,,0.47719,1,,,,,,85,WORD,UN,33,rodent,SPRAWL,m,,,,,,0.002604167,-0.390625,0,0,0,,0,152,152,144,1,,
,,,,,,,,,,,,,,,,,,5cdc899d48d5f100195fafff,2020-08-10_18h25.41.538,lexical_decision_task_MP,2020.1.3,Win32,60,m,1,0.451315,,,,,,,,0.451315,1,,,,,,232,WORD,"ID",33,inject,INJECT,m,,,,,,0.002604167,-0.390625,0,0,0,,0,153,153,51,1,,
,,,,,,,,,,,,,,,,,,5cdc899d48d5f100195fafff,2020-08-10_18h25.41.538,lexical_decision_task_MP,2020.1.3,Win32,60,m,1,0.394955,,,,,,,,0.394955,1,,,,,,12,WORD,"ID",50,orange,ORANGE,m,,,,,,0.002604167,-0.390625,0,0,0,,0,154,154,71,1,,
,,,,,,,,,,,,,,,,,,5cdc899d48d5f100195fafff,2020-08-10_18h25.41.538,lexical_decision_task_MP,2020.1.3,Win32,60,z,1,0.836305,,,,,,,,0.836305,1,,,,,,288,NW,"ID",50,yaceup,YACEUP,z,,,,,,0.002604167,-0.390625,0,0,0,,0,155,155,347,1,,
,,,,,,,,,,,,,,,,,,5cdc899d48d5f100195fafff,2020-08-10_18h25.41.538,lexical_decision_task_MP,2020.1.3,Win32,60,m,1,0.66035,,,,,,,,0.66035,1,,,,,,148,WORD,UN,50,invade,CUSTOM,m,,,,,,0.002604167,-0.390625,0,0,0,,0,156,156,207,1,,
,,,,,,,,,,,,,,,,,,5cdc899d48d5f100195fafff,2020-08-10_18h25.41.538,lexical_decision_task_MP,2020.1.3,Win32,60,z,1,0.637075,,,,,,,,0.637075,1,,,,,,373,NW,UN,50,sliant,BIGENT,z,,,,,,0.002604167,-0.390625,0,0,0,,0,157,157,432,1,,
,,,,,,,,,,,,,,,,,,5cdc899d48d5f100195fafff,2020-08-10_18h25.41.538,lexical_decision_task_MP,2020.1.3,Win32,60,m,1,0.536595,,,,,,,,0.536595,1,,,,,,9,WORD,"ID",50,hustle,HUSTLE,m,,,,,,0.002604167,-0.390625,0,0,0,,0,158,158,68,1,,
,,,,,,,,,,,,,,,,,,5cdc899d48d5f100195fafff,2020-08-10_18h25.41.538,lexical_decision_task_MP,2020.1.3,Win32,60,z,1,0.7599,,,,,,,,0.7599,1,,,,,,455,NW,"ID",33,tondle,TONDLE,z,,,,,,0.002604167,-0.390625,0,0,0,,0,159,159,274,1,,
,,,,,,,,,,,,,,,,,,5cdc899d48d5f100195fafff,2020-08-10_18h25.41.538,lexical_decision_task_MP,2020.1.3,Win32,60,z,1,0.569635,,,,,,,,0.569635,1,,,,,,392,NW,UN,50,ganous,ROUNCY,z,,,,,,0.002604167,-0.390625,0,0,0,,0,160,160,451,1,,
,,,,,,,,,,,,,,,,,,5cdc899d48d5f100195fafff,2020-08-10_18h25.41.538,lexical_decision_task_MP,2020.1.3,Win32,60,z,1,0.421185,,,,,,,,0.421185,1,,,,,,270,NW,"ID",50,wrimsy,WRIMSY,z,,,,,,0.002604167,-0.390625,0,0,0,,0,161,161,329,1,,
,,,,,,,,,,,,,,,,,,5cdc899d48d5f100195fafff,2020-08-10_18h25.41.538,lexical_decision_task_MP,2020.1.3,Win32,60,z,1,0.48945,,,,,,,,0.48945,1,,,,,,414,NW,UN,50,higsta,SERBOL,z,,,,,,0.002604167,-0.390625,0,0,0,,0,162,162,473,1,,
,,,,,,,,,,,,,,,,,,5cdc899d48d5f100195fafff,2020-08-10_18h25.41.538,lexical_decision_task_MP,2020.1.3,Win32,60,z,1,0.724035,,,,,,,,0.724035,1,,,,,,381,NW,UN,50,sarley,HUNIEK,z,,,,,,0.002604167,-0.390625,0,0,0,,0,163,163,440,1,,
,,,,,,,,,,,,,,,,,,5cdc899d48d5f100195fafff,2020-08-10_18h25.41.538,lexical_decision_task_MP,2020.1.3,Win32,60,m,1,0.714585,,,,,,,,0.714585,1,,,,,,82,WORD,UN,33,result,STIGMA,m,,,,,,0.002604167,-0.390625,0,0,0,,0,164,164,141,1,,
,,,,,,,,,,,,,,,,,,5cdc899d48d5f100195fafff,2020-08-10_18h25.41.538,lexical_decision_task_MP,2020.1.3,Win32,60,z,1,0.487855,,,,,,,,0.487855,1,,,,,,254,NW,"ID",50,varosh,VAROSH,z,,,,,,0.002604167,-0.390625,0,0,0,,0,165,165,313,1,,
,,,,,,,,,,,,,,,,,,5cdc899d48d5f100195fafff,2020-08-10_18h25.41.538,lexical_decision_task_MP,2020.1.3,Win32,60,m,1,0.51816,,,,,,,,0.51816,1,,,,,,144,WORD,UN,50,parish,SPONGE,m,,,,,,0.002604167,-0.390625,0,0,0,,0,166,166,203,1,,
,,,,,,,,,,,,,,,,,,5cdc899d48d5f100195fafff,2020-08-10_18h25.41.538,lexical_decision_task_MP,2020.1.3,Win32,60,m,1,0.62672,,,,,,,,0.62672,1,,,,,,180,WORD,UN,50,thrive,SILENT,m,,,,,,0.002604167,-0.390625,0,0,0,,0,167,167,239,1,,
,,,,,,,,,,,,,,,,,,5cdc899d48d5f100195fafff,2020-08-10_18h25.41.538,lexical_decision_task_MP,2020.1.3,Win32,60,z,0,0.55478,,,,,,,,0.55478,0,,,,,,149,WORD,UN,50,random,INVADE,m,,,,,,0.002604167,-0.390625,0,0,0,,0,168,168,208,1,,
,,,,,,,,,,,,,,,,,,5cdc899d48d5f100195fafff,2020-08-10_18h25.41.538,lexical_decision_task_MP,2020.1.3,Win32,60,z,1,0.768835,,,,,,,,0.768835,1,,,,,,364,NW,UN,50,guairt,IMPOTE,z,,,,,,0.002604167,-0.390625,0,0,0,,0,169,169,423,1,,
,,,,,,,,,,,,,,,,,,5cdc899d48d5f100195fafff,2020-08-10_18h25.41.538,lexical_decision_task_MP,2020.1.3,Win32,60,z,1,0.59883,,,,,,,,0.59883,1,,,,,,386,NW,UN,50,gronce,ANCUST,z,,,,,,0.002604167,-0.390625,0,0,0,,0,170,170,445,1,,
,,,,,,,,,,,,,,,,,,5cdc899d48d5f100195fafff,2020-08-10_18h25.41.538,lexical_decision_task_MP,2020.1.3,Win32,60,z,1,0.672345,,,,,,,,0.672345,1,,,,,,361,NW,UN,50,tireau,PAUCHE,z,,,,,,0.002604167,-0.390625,0,0,0,,0,171,171,420,1,,
,,,,,,,,,,,,,,,,,,5cdc899d48d5f100195fafff,2020-08-10_18h25.41.538,lexical_decision_task_MP,2020.1.3,Win32,60,z,1,1.12059,,,,,,,,1.12059,1,,,,,,282,NW,"ID",50,porlex,PORLEX,z,,,,,,0.002604167,-0.390625,0,0,0,,0,172,172,341,1,,
,,,,,,,,,,,,,,,,,,5cdc899d48d5f100195fafff,2020-08-10_18h25.41.538,lexical_decision_task_MP,2020.1.3,Win32,60,z,1,0.63672,,,,,,,,0.63672,1,,,,,,342,NW,UN,33,aimosy,RANDOW,z,,,,,,0.002604167,-0.390625,0,0,0,,0,173,173,401,1,,
,,,,,,,,,,,,,,,,,,5cdc899d48d5f100195fafff,2020-08-10_18h25.41.538,lexical_decision_task_MP,2020.1.3,Win32,60,m,1,0.586875,,,,,,,,0.586875,1,,,,,,128,WORD,UN,50,marvel,SENIOR,m,,,,,,0.002604167,-0.390625,0,0,0,,0,174,174,187,1,,
,,,,,,,,,,,,,,,,,,5cdc899d48d5f100195fafff,2020-08-10_18h25.41.538,lexical_decision_task_MP,2020.1.3,Win32,60,m,1,0.488225,,,,,,,,0.488225,1,,,,,,69,WORD,UN,33,square,PLENTY,m,,,,,,0.002604167,-0.390625,0,0,0,,0,175,175,128,1,,
,,,,,,,,,,,,,,,,,,5cdc899d48d5f100195fafff,2020-08-10_18h25.41.538,lexical_decision_task_MP,2020.1.3,Win32,60,z,1,0.869375,,,,,,,,0.869375,1,,,,,,258,NW,"ID",50,poluth,POLUTH,z,,,,,,0.002604167,-0.390625,0,0,0,,0,176,176,317,1,,
,,,,,,,,,,,,,,,,,,5cdc899d48d5f100195fafff,2020-08-10_18h25.41.538,lexical_decision_task_MP,2020.1.3,Win32,60,z,1,0.558725,,,,,,,,0.558725,1,,,,,,368,NW,UN,50,wronch,HORNAL,z,,,,,,0.002604167,-0.390625,0,0,0,,0,177,177,427,1,,
,,,,,,,,,,,,,,,,,,5cdc899d48d5f100195fafff,2020-08-10_18h25.41.538,lexical_decision_task_MP,2020.1.3,Win32,60,z,1,0.50445,,,,,,,,0.50445,1,,,,,,385,NW,UN,50,ancust,VEIGMA,z,,,,,,0.002604167,-0.390625,0,0,0,,0,178,178,444,1,,
,,,,,,,,,,,,,,,,,,5cdc899d48d5f100195fafff,2020-08-10_18h25.41.538,lexical_decision_task_MP,2020.1.3,Win32,60,z,1,0.407905,,,,,,,,0.407905,1,,,,,,457,NW,"ID",33,wanigh,WANIGH,z,,,,,,0.002604167,-0.390625,0,0,0,,0,179,179,276,1,,
,,,,,,,,,,,,,,,,,,5cdc899d48d5f100195fafff,2020-08-10_18h25.41.538,lexical_decision_task_MP,2020.1.3,Win32,60,z,1,0.50983,,,,,,,,0.50983,1,,,,,,307,NW,UN,33,psetch,KIRAFE,z,,,,,,0.002604167,-0.390625,0,0,0,,0,180,180,366,1,,
,,,,,,,,,,,,,,,,,,5cdc899d48d5f100195fafff,2020-08-10_18h25.41.538,lexical_decision_task_MP,2020.1.3,Win32,60,z,1,0.772035,,,,,,,,0.772035,1,,,,,,348,NW,UN,33,asylen,DUMPLE,z,,,,,,0.002604167,-0.390625,0,0,0,,0,181,181,407,1,,
,,,,,,,,,,,,,,,,,,5cdc899d48d5f100195fafff,2020-08-10_18h25.41.538,lexical_decision_task_MP,2020.1.3,Win32,60,z,1,0.48362,,,,,,,,0.48362,1,,,,,,327,NW,UN,33,broake,PLENAC,z,,,,,,0.002604167,-0.390625,0,0,0,,0,182,182,386,1,,
,,,,,,,,,,,,,,,,,,5cdc899d48d5f100195fafff,2020-08-10_18h25.41.538,lexical_decision_task_MP,2020.1.3,Win32,60,m,1,0.549665,,,,,,,,0.549665,1,,,,,,187,WORD,"ID",33,course,COURSE,m,,,,,,0.002604167,-0.390625,0,0,0,,0,183,183,6,1,,
,,,,,,,,,,,,,,,,,,5cdc899d48d5f100195fafff,2020-08-10_18h25.41.538,lexical_decision_task_MP,2020.1.3,Win32,60,z,1,0.48933,,,,,,,,0.48933,1,,,,,,308,NW,UN,33,amiloy,PSETCH,z,,,,,,0.002604167,-0.390625,0,0,0,,0,184,184,367,1,,
,,,,,,,,,,,,,,,,,,5cdc899d48d5f100195fafff,2020-08-10_18h25.41.538,lexical_decision_task_MP,2020.1.3,Win32,60,m,1,0.59337,,,,,,,,0.59337,1,,,,,,95,WORD,UN,33,ignore,THREAD,m,,,,,,0.002604167,-0.390625,0,0,0,,0,185,185,154,1,,
,,,,,,,,,,,,,,,,,,5cdc899d48d5f100195fafff,2020-08-10_18h25.41.538,lexical_decision_task_MP,2020.1.3,Win32,60,m,1,0.45783,,,,,,,,0.45783,1,,,,,,229,WORD,"ID",33,mother,MOTHER,m,,,,,,0.002604167,-0.390625,0,0,0,,0,186,186,48,1,,
,,,,,,,,,,,,,,,,,,5cdc899d48d5f100195fafff,2020-08-10_18h25.41.538,lexical_decision_task_MP,2020.1.3,Win32,60,m,1,0.44067,,,,,,,,0.44067,1,,,,,,226,WORD,"ID",33,casino,CASINO,m,,,,,,0.002604167,-0.390625,0,0,0,,0,187,187,45,1,,
,,,,,,,,,,,,,,,,,,5cdc899d48d5f100195fafff,2020-08-10_18h25.41.538,lexical_decision_task_MP,2020.1.3,Win32,60,z,1,0.639685,,,,,,,,0.639685,1,,,,,,366,NW,UN,50,slique,TOSHEL,z,,,,,,0.002604167,-0.390625,0,0,0,,0,188,188,425,1,,
,,,,,,,,,,,,,,,,,,5cdc899d48d5f100195fafff,2020-08-10_18h25.41.538,lexical_decision_task_MP,2020.1.3,Win32,60,z,1,0.519765,,,,,,,,0.519765,1,,,,,,334,NW,UN,33,desion,WATMEG,z,,,,,,0.002604167,-0.390625,0,0,0,,0,189,189,393,1,,
,,,,,,,,,,,,,,,,,,5cdc899d48d5f100195fafff,2020-08-10_18h25.41.538,lexical_decision_task_MP,2020.1.3,Win32,60,z,0,0.55576,,,,,,,,0.55576,0,,,,,,52,WORD,"ID",50,impose,IMPOSE,m,,,,,,0.002604167,-0.390625,0,0,0,,0,190,190,111,1,,
,,,,,,,,,,,,,,,,,,5cdc899d48d5f100195fafff,2020-08-10_18h25.41.538,lexical_decision_task_MP,2020.1.3,Win32,60,m,0,0.568155,,,,,,,,0.568155,0,,,,,,380,NW,UN,50,huniek,CAVORY,z,,,,,,0.002604167,-0.390625,0,0,0,,0,191,191,439,1,,
,,,,,,,,,,,,,,,,,,5cdc899d48d5f100195fafff,2020-08-10_18h25.41.538,lexical_decision_task_MP,2020.1.3,Win32,60,z,1,0.592525,,,,,,,,0.592525,1,,,,,,333,NW,UN,33,watmeg,CATRIE,z,,,,,,0.002604167,-0.390625,0,0,0,,0,192,192,392,1,,
,,,,,,,,,,,,,,,,,,5cdc899d48d5f100195fafff,2020-08-10_18h25.41.538,lexical_decision_task_MP,2020.1.3,Win32,60,z,1,0.550795,,,,,,,,0.550795,1,,,,,,440,NW,"ID",33,saride,SARIDE,z,,,,,,0.002604167,-0.390625,0,0,0,,0,193,193,259,1,,
,,,,,,,,,,,,,,,,,,5cdc899d48d5f100195fafff,2020-08-10_18h25.41.538,lexical_decision_task_MP,2020.1.3,Win32,60,z,0,0.489635,,,,,,,,0.489635,0,,,,,,66,WORD,UN,33,policy,GOSPEL,m,,,,,,0.002604167,-0.390625,0,0,0,,0,194,194,125,1,,
,,,,,,,,,,,,,,,,,,5cdc899d48d5f100195fafff,2020-08-10_18h25.41.538,lexical_decision_task_MP,2020.1.3,Win32,60,z,1,0.49373,,,,,,,,0.49373,1,,,,,,404,NW,UN,50,flumni,CLUIRM,z,,,,,,0.002604167,-0.390625,0,0,0,,0,195,195,463,1,,
,,,,,,,,,,,,,,,,,,5cdc899d48d5f100195fafff,2020-08-10_18h25.41.538,lexical_decision_task_MP,2020.1.3,Win32,60,m,1,0.47105,,,,,,,,0.47105,1,,,,,,231,WORD,"ID",33,export,EXPORT,m,,,,,,0.002604167,-0.390625,0,0,0,,0,196,196,50,1,,
,,,,,,,,,,,,,,,,,,5cdc899d48d5f100195fafff,2020-08-10_18h25.41.538,lexical_decision_task_MP,2020.1.3,Win32,60,m,1,0.479835,,,,,,,,0.479835,1,,,,,,15,WORD,"ID",50,amount,AMOUNT,m,,,,,,0.002604167,-0.390625,0,0,0,,0,197,197,74,1,,
,,,,,,,,,,,,,,,,,,5cdc899d48d5f100195fafff,2020-08-10_18h25.41.538,lexical_decision_task_MP,2020.1.3,Win32,60,m,1,0.419345,,,,,,,,0.419345,1,,,,,,233,WORD,"ID",33,nature,NATURE,m,,,,,,0.002604167,-0.390625,0,0,0,,0,198,198,52,1,,
,,,,,,,,,,,,,,,,,,5cdc899d48d5f100195fafff,2020-08-10_18h25.41.538,lexical_decision_task_MP,2020.1.3,Win32,60,m,1,0.48887,,,,,,,,0.48887,1,,,,,,90,WORD,UN,33,expand,RELISH,m,,,,,,0.002604167,-0.390625,0,0,0,,0,199,199,149,1,,
,,,,,,,,,,,,,,,,,,5cdc899d48d5f100195fafff,2020-08-10_18h25.41.538,lexical_decision_task_MP,2020.1.3,Win32,60,m,1,0.491785,,,,,,,,0.491785,1,,,,,,77,WORD,UN,33,column,RACKET,m,,,,,,0.002604167,-0.390625,0,0,0,,0,200,200,136,1,,
,,,,,,,,,,,,,,,,,,5cdc899d48d5f100195fafff,2020-08-10_18h25.41.538,lexical_decision_task_MP,2020.1.3,Win32,60,m,1,0.67146,,,,,,,,0.67146,1,,,,,,202,WORD,"ID",33,factor,FACTOR,m,,,,,,0.002604167,-0.390625,0,0,0,,0,201,201,21,1,,
,,,,,,,,,,,,,,,,,,5cdc899d48d5f100195fafff,2020-08-10_18h25.41.538,lexical_decision_task_MP,2020.1.3,Win32,60,m,1,0.419,,,,,,,,0.419,1,,,,,,132,WORD,UN,50,orphan,STRONG,m,,,,,,0.002604167,-0.390625,0,0,0,,0,202,202,191,1,,
,,,,,,,,,,,,,,,,,,5cdc899d48d5f100195fafff,2020-08-10_18h25.41.538,lexical_decision_task_MP,2020.1.3,Win32,60,m,1,0.48412,,,,,,,,0.48412,1,,,,,,178,WORD,UN,50,basket,INFORM,m,,,,,,0.002604167,-0.390625,0,0,0,,0,203,203,237,1,,
,,,,,,,,,,,,,,,,,,5cdc899d48d5f100195fafff,2020-08-10_18h25.41.538,lexical_decision_task_MP,2020.1.3,Win32,60,z,1,0.61837,,,,,,,,0.61837,1,,,,,,287,NW,"ID",50,nymbel,NYMBEL,z,,,,,,0.002604167,-0.390625,0,0,0,,0,204,204,346,1,,
,,,,,,,,,,,,,,,,,,5cdc899d48d5f100195fafff,2020-08-10_18h25.41.538,lexical_decision_task_MP,2020.1.3,Win32,60,z,1,0.608505,,,,,,,,0.608505,1,,,,,,277,NW,"ID",50,petain,PETAIN,z,,,,,,0.002604167,-0.390625,0,0,0,,0,205,205,336,1,,
,,,,,,,,,,,,,,,,,,5cdc899d48d5f100195fafff,2020-08-10_18h25.41.538,lexical_decision_task_MP,2020.1.3,Win32,60,z,0,0.57347,,,,,,,,0.57347,0,,,,,,176,WORD,UN,50,advent,STRIFE,m,,,,,,0.002604167,-0.390625,0,0,0,,0,206,206,235,1,,
,,,,,,,,,,,,,,,,,,5cdc899d48d5f100195fafff,2020-08-10_18h25.41.538,lexical_decision_task_MP,2020.1.3,Win32,60,m,1,0.57327,,,,,,,,0.57327,1,,,,,,153,WORD,UN,50,author,BEHOLD,m,,,,,,0.002604167,-0.390625,0,0,0,,0,207,207,212,1,,
,,,,,,,,,,,,,,,,,,5cdc899d48d5f100195fafff,2020-08-10_18h25.41.538,lexical_decision_task_MP,2020.1.3,Win32,60,m,1,0.56966,,,,,,,,0.56966,1,,,,,,160,WORD,UN,50,pastor,VIOLET,m,,,,,,0.002604167,-0.390625,0,0,0,,0,208,208,219,1,,
,,,,,,,,,,,,,,,,,,5cdc899d48d5f100195fafff,2020-08-10_18h25.41.538,lexical_decision_task_MP,2020.1.3,Win32,60,z,1,0.696175,,,,,,,,0.696175,1,,,,,,292,NW,"ID",50,ablint,ABLINT,z,,,,,,0.002604167,-0.390625,0,0,0,,0,209,209,351,1,,
,,,,,,,,,,,,,,,,,,5cdc899d48d5f100195fafff,2020-08-10_18h25.41.538,lexical_decision_task_MP,2020.1.3,Win32,60,z,1,0.60411,,,,,,,,0.60411,1,,,,,,423,NW,"ID",33,streld,STRELD,z,,,,,,0.002604167,-0.390625,0,0,0,,0,210,210,242,1,,
,,,,,,,,,,,,,,,,,,5cdc899d48d5f100195fafff,2020-08-10_18h25.41.538,lexical_decision_task_MP,2020.1.3,Win32,60,m,1,0.46706,,,,,,,,0.46706,1,,,,,,228,WORD,"ID",33,master,MASTER,m,,,,,,0.002604167,-0.390625,0,0,0,,0,211,211,47,1,,
,,,,,,,,,,,,,,,,,,5cdc899d48d5f100195fafff,2020-08-10_18h25.41.538,lexical_decision_task_MP,2020.1.3,Win32,60,m,1,0.530405,,,,,,,,0.530405,1,,,,,,75,WORD,UN,33,exotic,TROPHY,m,,,,,,0.002604167,-0.390625,0,0,0,,0,212,212,134,1,,
,,,,,,,,,,,,,,,,,,5cdc899d48d5f100195fafff,2020-08-10_18h25.41.538,lexical_decision_task_MP,2020.1.3,Win32,60,z,1,0.597815,,,,,,,,0.597815,1,,,,,,250,NW,"ID",50,milted,MILTED,z,,,,,,0.002604167,-0.390625,0,0,0,,0,213,213,309,1,,
,,,,,,,,,,,,,,,,,,5cdc899d48d5f100195fafff,2020-08-10_18h25.41.538,lexical_decision_task_MP,2020.1.3,Win32,60,z,1,0.556275,,,,,,,,0.556275,1,,,,,,442,NW,"ID",33,aboune,ABOUNE,z,,,,,,0.002604167,-0.390625,0,0,0,,0,214,214,261,1,,
,,,,,,,,,,,,,,,,,,5cdc899d48d5f100195fafff,2020-08-10_18h25.41.538,lexical_decision_task_MP,2020.1.3,Win32,60,z,1,0.60405,,,,,,,,0.60405,1,,,,,,244,NW,"ID",50,eatric,EATRIC,z,,,,,,0.002604167,-0.390625,0,0,0,,0,215,215,303,1,,
,,,,,,,,,,,,,,,,,,5cdc899d48d5f100195fafff,2020-08-10_18h25.41.538,lexical_decision_task_MP,2020.1.3,Win32,60,m,1,0.499235,,,,,,,,0.499235,1,,,,,,130,WORD,UN,50,quench,STUPID,m,,,,,,0.002604167,-0.390625,0,0,0,,0,216,216,189,1,,
,,,,,,,,,,,,,,,,,,5cdc899d48d5f100195fafff,2020-08-10_18h25.41.538,lexical_decision_task_MP,2020.1.3,Win32,60,m,0,0.60912,,,,,,,,0.60912,0,,,,,,248,NW,"ID",50,strole,STROLE,z,,,,,,0.002604167,-0.390625,0,0,0,,0,217,217,307,1,,
,,,,,,,,,,,,,,,,,,5cdc899d48d5f100195fafff,2020-08-10_18h25.41.538,lexical_decision_task_MP,2020.1.3,Win32,60,z,1,0.43254,,,,,,,,0.43254,1,,,,,,402,NW,UN,50,bruats,SYNTIC,z,,,,,,0.002604167,-0.390625,0,0,0,,0,218,218,461,1,,
,,,,,,,,,,,,,,,,,,5cdc899d48d5f100195fafff,2020-08-10_18h25.41.538,lexical_decision_task_MP,2020.1.3,Win32,60,z,1,0.540925,,,,,,,,0.540925,1,,,,,,241,NW,"ID",50,smenco,SMENCO,z,,,,,,0.002604167,-0.390625,0,0,0,,0,219,219,300,1,,
,,,,,,,,,,,,,,,,,,5cdc899d48d5f100195fafff,2020-08-10_18h25.41.538,lexical_decision_task_MP,2020.1.3,Win32,60,z,1,0.53447,,,,,,,,0.53447,1,,,,,,435,NW,"ID",33,impurb,IMPURB,z,,,,,,0.002604167,-0.390625,0,0,0,,0,220,220,254,1,,
,,,,,,,,,,,,,,,,,,5cdc899d48d5f100195fafff,2020-08-10_18h25.41.538,lexical_decision_task_MP,2020.1.3,Win32,60,z,0,0.55973,,,,,,,,0.55973,0,,,,,,4,WORD,"ID",50,trench,TRENCH,m,,,,,,0.002604167,-0.390625,0,0,0,,0,221,221,63,1,,
,,,,,,,,,,,,,,,,,,5cdc899d48d5f100195fafff,2020-08-10_18h25.41.538,lexical_decision_task_MP,2020.1.3,Win32,60,m,1,0.465935,,,,,,,,0.465935,1,,,,,,109,WORD,UN,33,polite,WONDER,m,,,,,,0.002604167,-0.390625,0,0,0,,0,222,222,168,1,,
,,,,,,,,,,,,,,,,,,5cdc899d48d5f100195fafff,2020-08-10_18h25.41.538,lexical_decision_task_MP,2020.1.3,Win32,60,m,1,0.4708,,,,,,,,0.4708,1,,,,,,177,WORD,UN,50,inform,ADVENT,m,,,,,,0.002604167,-0.390625,0,0,0,,0,223,223,236,1,,
,,,,,,,,,,,,,,,,,,5cdc899d48d5f100195fafff,2020-08-10_18h25.41.538,lexical_decision_task_MP,2020.1.3,Win32,60,z,1,0.558235,,,,,,,,0.558235,1,,,,,,340,NW,UN,33,myrtie,FIATCH,z,,,,,,0.002604167,-0.390625,0,0,0,,0,224,224,399,1,,
,,,,,,,,,,,,,,,,,,5cdc899d48d5f100195fafff,2020-08-10_18h25.41.538,lexical_decision_task_MP,2020.1.3,Win32,60,z,1,0.535745,,,,,,,,0.535745,1,,,,,,314,NW,UN,33,laston,SPRINE,z,,,,,,0.002604167,-0.390625,0,0,0,,0,225,225,373,1,,
,,,,,,,,,,,,,,,,,,5cdc899d48d5f100195fafff,2020-08-10_18h25.41.538,lexical_decision_task_MP,2020.1.3,Win32,60,m,1,0.54349,,,,,,,,0.54349,1,,,,,,42,WORD,"ID",50,chapel,CHAPEL,m,,,,,,0.002604167,-0.390625,0,0,0,,0,226,226,101,1,,
,,,,,,,,,,,,,,,,,,5cdc899d48d5f100195fafff,2020-08-10_18h25.41.538,lexical_decision_task_MP,2020.1.3,Win32,60,m,1,0.66427,,,,,,,,0.66427,1,,,,,,99,WORD,UN,33,carbon,FLUENT,m,,,,,,0.002604167,-0.390625,0,0,0,,0,227,227,158,1,,
,,,,,,,,,,,,,,,,,,5cdc899d48d5f100195fafff,2020-08-10_18h25.41.538,lexical_decision_task_MP,2020.1.3,Win32,60,m,1,0.61098,,,,,,,,0.61098,1,,,,,,115,WORD,UN,33,tumble,GUITAR,m,,,,,,0.002604167,-0.390625,0,0,0,,0,228,228,174,1,,
,,,,,,,,,,,,,,,,,,5cdc899d48d5f100195fafff,2020-08-10_18h25.41.538,lexical_decision_task_MP,2020.1.3,Win32,60,z,1,0.6297,,,,,,,,0.6297,1,,,,,,398,NW,UN,50,fouret,BLUNDE,z,,,,,,0.002604167,-0.390625,0,0,0,,0,229,229,457,1,,
,,,,,,,,,,,,,,,,,,5cdc899d48d5f100195fafff,2020-08-10_18h25.41.538,lexical_decision_task_MP,2020.1.3,Win32,60,m,1,0.52098,,,,,,,,0.52098,1,,,,,,207,WORD,"ID",33,wreath,WREATH,m,,,,,,0.002604167,-0.390625,0,0,0,,0,230,230,26,1,,
,,,,,,,,,,,,,,,,,,5cdc899d48d5f100195fafff,2020-08-10_18h25.41.538,lexical_decision_task_MP,2020.1.3,Win32,60,m,1,0.473325,,,,,,,,0.473325,1,,,,,,105,WORD,UN,33,ransom,NUMBER,m,,,,,,0.002604167,-0.390625,0,0,0,,0,231,231,164,1,,
,,,,,,,,,,,,,,,,,,5cdc899d48d5f100195fafff,2020-08-10_18h25.41.538,lexical_decision_task_MP,2020.1.3,Win32,60,m,1,0.57157,,,,,,,,0.57157,1,,,,,,100,WORD,UN,33,wrench,CARBON,m,,,,,,0.002604167,-0.390625,0,0,0,,0,232,232,159,1,,
,,,,,,,,,,,,,,,,,,5cdc899d48d5f100195fafff,2020-08-10_18h25.41.538,lexical_decision_task_MP,2020.1.3,Win32,60,m,1,0.4216,,,,,,,,0.4216,1,,,,,,31,WORD,"ID",50,weapon,WEAPON,m,,,,,,0.002604167,-0.390625,0,0,0,,0,233,233,90,1,,
,,,,,,,,,,,,,,,,,,5cdc899d48d5f100195fafff,2020-08-10_18h25.41.538,lexical_decision_task_MP,2020.1.3,Win32,60,m,1,0.484865,,,,,,,,0.484865,1,,,,,,206,WORD,"ID",33,tailor,TAILOR,m,,,,,,0.002604167,-0.390625,0,0,0,,0,234,234,25,1,,
,,,,,,,,,,,,,,,,,,5cdc899d48d5f100195fafff,2020-08-10_18h25.41.538,lexical_decision_task_MP,2020.1.3,Win32,60,m,1,0.45507,,,,,,,,0.45507,1,,,,,,116,WORD,UN,33,branch,TUMBLE,m,,,,,,0.002604167,-0.390625,0,0,0,,0,235,235,175,1,,
,,,,,,,,,,,,,,,,,,5cdc899d48d5f100195fafff,2020-08-10_18h25.41.538,lexical_decision_task_MP,2020.1.3,Win32,60,m,1,0.437435,,,,,,,,0.437435,1,,,,,,94,WORD,UN,33,thread,TRAVEL,m,,,,,,0.002604167,-0.390625,0,0,0,,0,236,236,153,1,,
,,,,,,,,,,,,,,,,,,5cdc899d48d5f100195fafff,2020-08-10_18h25.41.538,lexical_decision_task_MP,2020.1.3,Win32,60,z,1,0.55325,,,,,,,,0.55325,1,,,,,,412,NW,UN,50,equats,JILUER,z,,,,,,0.002604167,-0.390625,0,0,0,,0,237,237,471,1,,
,,,,,,,,,,,,,,,,,,5cdc899d48d5f100195fafff,2020-08-10_18h25.41.538,lexical_decision_task_MP,2020.1.3,Win32,60,m,1,0.416985,,,,,,,,0.416985,1,,,,,,240,WORD,"ID",33,forest,FOREST,m,,,,,,0.002604167,-0.390625,0,0,0,,0,238,238,59,1,,
,,,,,,,,,,,,,,,,,,5cdc899d48d5f100195fafff,2020-08-10_18h25.41.538,lexical_decision_task_MP,2020.1.3,Win32,60,z,1,0.587985,,,,,,,,0.587985,1,,,,,,379,NW,UN,50,cavory,AUTING,z,,,,,,0.002604167,-0.390625,0,0,0,,0,239,239,438,1,,
,,,,,,,,,,,,,,,,,,5cdc899d48d5f100195fafff,2020-08-10_18h25.41.538,lexical_decision_task_MP,2020.1.3,Win32,60,z,1,0.53751,,,,,,,,0.53751,1,,,,,,299,NW,"ID",50,sturch,STURCH,z,,,,,,0.002604167,-0.390625,0,0,0,,0,240,240,358,1,,
,,,,,,,,,,,,,,,,,,5cdc899d48d5f100195fafff,2020-08-10_18h25.41.538,lexical_decision_task_MP,2020.1.3,Win32,60,m,1,0.459135,,,,,,,,0.459135,1,,,,,,56,WORD,"ID",50,ambush,AMBUSH,m,,,,,,-0.006510417,-0.408854167,0,0,0,space,0,241,241,115,1,,207.54422
,,,,,,,,,,,,,,,,,,5cdc899d48d5f100195fafff,2020-08-10_18h25.41.538,lexical_decision_task_MP,2020.1.3,Win32,60,z,1,0.53739,,,,,,,,0.53739,1,,,,,,427,NW,"ID",33,schind,SCHIND,z,,,,,,0.005208333,-0.415364583,0,0,0,,0,242,242,246,1,,
,,,,,,,,,,,,,,,,,,5cdc899d48d5f100195fafff,2020-08-10_18h25.41.538,lexical_decision_task_MP,2020.1.3,Win32,60,m,1,0.488265,,,,,,,,0.488265,1,,,,,,17,WORD,"ID",50,charge,CHARGE,m,,,,,,0.005208333,-0.415364583,0,0,0,,0,243,243,76,1,,
,,,,,,,,,,,,,,,,,,5cdc899d48d5f100195fafff,2020-08-10_18h25.41.538,lexical_decision_task_MP,2020.1.3,Win32,60,m,1,0.464325,,,,,,,,0.464325,1,,,,,,225,WORD,"ID",33,vulgar,VULGAR,m,,,,,,0.005208333,-0.415364583,0,0,0,,0,244,244,44,1,,
,,,,,,,,,,,,,,,,,,5cdc899d48d5f100195fafff,2020-08-10_18h25.41.538,lexical_decision_task_MP,2020.1.3,Win32,60,z,1,0.572265,,,,,,,,0.572265,1,,,,,,272,NW,"ID",50,damilt,DAMILT,z,,,,,,0.005208333,-0.415364583,0,0,0,,0,245,245,331,1,,
,,,,,,,,,,,,,,,,,,5cdc899d48d5f100195fafff,2020-08-10_18h25.41.538,lexical_decision_task_MP,2020.1.3,Win32,60,m,1,0.438145,,,,,,,,0.438145,1,,,,,,86,WORD,UN,33,filter,RODENT,m,,,,,,0.005208333,-0.415364583,0,0,0,,0,246,246,145,1,,
,,,,,,,,,,,,,,,,,,5cdc899d48d5f100195fafff,2020-08-10_18h25.41.538,lexical_decision_task_MP,2020.1.3,Win32,60,z,1,0.52999,,,,,,,,0.52999,1,,,,,,371,NW,UN,50,ramily,GEILOY,z,,,,,,0.005208333,-0.415364583,0,0,0,,0,247,247,430,1,,
,,,,,,,,,,,,,,,,,,5cdc899d48d5f100195fafff,2020-08-10_18h25.41.538,lexical_decision_task_MP,2020.1.3,Win32,60,z,1,0.569415,,,,,,,,0.569415,1,,,,,,372,NW,UN,50,bigent,RAMILY,z,,,,,,0.005208333,-0.415364583,0,0,0,,0,248,248,431,1,,
,,,,,,,,,,,,,,,,,,5cdc899d48d5f100195fafff,2020-08-10_18h25.41.538,lexical_decision_task_MP,2020.1.3,Win32,60,z,1,0.605395,,,,,,,,0.605395,1,,,,,,397,NW,UN,50,blunde,CAMBLE,z,,,,,,0.005208333,-0.415364583,0,0,0,,0,249,249,456,1,,
,,,,,,,,,,,,,,,,,,5cdc899d48d5f100195fafff,2020-08-10_18h25.41.538,lexical_decision_task_MP,2020.1.3,Win32,60,m,1,0.51065,,,,,,,,0.51065,1,,,,,,76,WORD,UN,33,racket,EXOTIC,m,,,,,,0.005208333,-0.415364583,0,0,0,,0,250,250,135,1,,
,,,,,,,,,,,,,,,,,,5cdc899d48d5f100195fafff,2020-08-10_18h25.41.538,lexical_decision_task_MP,2020.1.3,Win32,60,z,1,0.561925,,,,,,,,0.561925,1,,,,,,358,NW,UN,33,fonver,FLEACK,z,,,,,,0.005208333,-0.415364583,0,0,0,,0,251,251,417,1,,
,,,,,,,,,,,,,,,,,,5cdc899d48d5f100195fafff,2020-08-10_18h25.41.538,lexical_decision_task_MP,2020.1.3,Win32,60,m,1,0.67619,,,,,,,,0.67619,1,,,,,,155,WORD,UN,50,cradle,LIZARD,m,,,,,,0.005208333,-0.415364583,0,0,0,,0,252,252,214,1,,
,,,,,,,,,,,,,,,,,,5cdc899d48d5f100195fafff,2020-08-10_18h25.41.538,lexical_decision_task_MP,2020.1.3,Win32,60,z,1,0.63058,,,,,,,,0.63058,1,,,,,,418,NW,UN,50,slount,SUIDLE,z,,,,,,0.005208333,-0.415364583,0,0,0,,0,253,253,477,1,,
,,,,,,,,,,,,,,,,,,5cdc899d48d5f100195fafff,2020-08-10_18h25.41.538,lexical_decision_task_MP,2020.1.3,Win32,60,m,1,0.5161,,,,,,,,0.5161,1,,,,,,217,WORD,"ID",33,liquor,LIQUOR,m,,,,,,0.005208333,-0.415364583,0,0,0,,0,254,254,36,1,,
,,,,,,,,,,,,,,,,,,5cdc899d48d5f100195fafff,2020-08-10_18h25.41.538,lexical_decision_task_MP,2020.1.3,Win32,60,m,1,0.543055,,,,,,,,0.543055,1,,,,,,67,WORD,UN,33,fumble,POLICY,m,,,,,,0.005208333,-0.415364583,0,0,0,,0,255,255,126,1,,
,,,,,,,,,,,,,,,,,,5cdc899d48d5f100195fafff,2020-08-10_18h25.41.538,lexical_decision_task_MP,2020.1.3,Win32,60,m,1,0.54892,,,,,,,,0.54892,1,,,,,,186,WORD,"ID",33,portal,PORTAL,m,,,,,,0.005208333,-0.415364583,0,0,0,,0,256,256,5,1,,
,,,,,,,,,,,,,,,,,,5cdc899d48d5f100195fafff,2020-08-10_18h25.41.538,lexical_decision_task_MP,2020.1.3,Win32,60,z,1,0.49819,,,,,,,,0.49819,1,,,,,,437,NW,"ID",33,snapel,SNAPEL,z,,,,,,0.005208333,-0.415364583,0,0,0,,0,257,257,256,1,,
,,,,,,,,,,,,,,,,,,5cdc899d48d5f100195fafff,2020-08-10_18h25.41.538,lexical_decision_task_MP,2020.1.3,Win32,60,m,1,0.575875,,,,,,,,0.575875,1,,,,,,185,WORD,"ID",33,bother,BOTHER,m,,,,,,0.005208333,-0.415364583,0,0,0,,0,258,258,4,1,,
,,,,,,,,,,,,,,,,,,5cdc899d48d5f100195fafff,2020-08-10_18h25.41.538,lexical_decision_task_MP,2020.1.3,Win32,60,z,1,0.51614,,,,,,,,0.51614,1,,,,,,302,NW,UN,33,fiream,MILUER,z,,,,,,0.005208333,-0.415364583,0,0,0,,0,259,259,361,1,,
,,,,,,,,,,,,,,,,,,5cdc899d48d5f100195fafff,2020-08-10_18h25.41.538,lexical_decision_task_MP,2020.1.3,Win32,60,z,1,0.469355,,,,,,,,0.469355,1,,,,,,357,NW,UN,33,fleack,DERAIN,z,,,,,,0.005208333,-0.415364583,0,0,0,,0,260,260,416,1,,
,,,,,,,,,,,,,,,,,,5cdc899d48d5f100195fafff,2020-08-10_18h25.41.538,lexical_decision_task_MP,2020.1.3,Win32,60,z,1,0.574495,,,,,,,,0.574495,1,,,,,,335,NW,UN,33,ghodus,DESION,z,,,,,,0.005208333,-0.415364583,0,0,0,,0,261,261,394,1,,
,,,,,,,,,,,,,,,,,,5cdc899d48d5f100195fafff,2020-08-10_18h25.41.538,lexical_decision_task_MP,2020.1.3,Win32,60,z,1,0.57255,,,,,,,,0.57255,1,,,,,,467,NW,"ID",33,gorbie,GORBIE,z,,,,,,0.005208333,-0.415364583,0,0,0,,0,262,262,286,1,,
,,,,,,,,,,,,,,,,,,5cdc899d48d5f100195fafff,2020-08-10_18h25.41.538,lexical_decision_task_MP,2020.1.3,Win32,60,z,1,0.532705,,,,,,,,0.532705,1,,,,,,355,NW,UN,33,othnis,ZINGLY,z,,,,,,0.005208333,-0.415364583,0,0,0,,0,263,263,414,1,,
,,,,,,,,,,,,,,,,,,5cdc899d48d5f100195fafff,2020-08-10_18h25.41.538,lexical_decision_task_MP,2020.1.3,Win32,60,m,1,0.496705,,,,,,,,0.496705,1,,,,,,210,WORD,"ID",33,monkey,MONKEY,m,,,,,,0.005208333,-0.415364583,0,0,0,,0,264,264,29,1,,
,,,,,,,,,,,,,,,,,,5cdc899d48d5f100195fafff,2020-08-10_18h25.41.538,lexical_decision_task_MP,2020.1.3,Win32,60,z,1,0.59887,,,,,,,,0.59887,1,,,,,,325,NW,UN,33,iguade,THRUSE,z,,,,,,0.005208333,-0.415364583,0,0,0,,0,265,265,384,1,,
,,,,,,,,,,,,,,,,,,5cdc899d48d5f100195fafff,2020-08-10_18h25.41.538,lexical_decision_task_MP,2020.1.3,Win32,60,m,1,0.432825,,,,,,,,0.432825,1,,,,,,71,WORD,UN,33,bright,GARDEN,m,,,,,,0.005208333,-0.415364583,0,0,0,,0,266,266,130,1,,
,,,,,,,,,,,,,,,,,,5cdc899d48d5f100195fafff,2020-08-10_18h25.41.538,lexical_decision_task_MP,2020.1.3,Win32,60,z,1,0.5224,,,,,,,,0.5224,1,,,,,,406,NW,UN,50,suiver,NOUPLY,z,,,,,,0.005208333,-0.415364583,0,0,0,,0,267,267,465,1,,
,,,,,,,,,,,,,,,,,,5cdc899d48d5f100195fafff,2020-08-10_18h25.41.538,lexical_decision_task_MP,2020.1.3,Win32,60,z,1,0.42237,,,,,,,,0.42237,1,,,,,,290,NW,"ID",50,splino,SPLINO,z,,,,,,0.005208333,-0.415364583,0,0,0,,0,268,268,349,1,,
,,,,,,,,,,,,,,,,,,5cdc899d48d5f100195fafff,2020-08-10_18h25.41.538,lexical_decision_task_MP,2020.1.3,Win32,60,z,0,0.666745,,,,,,,,0.666745,0,,,,,,139,WORD,UN,50,prince,DEBRIS,m,,,,,,0.005208333,-0.415364583,0,0,0,,0,269,269,198,1,,
,,,,,,,,,,,,,,,,,,5cdc899d48d5f100195fafff,2020-08-10_18h25.41.538,lexical_decision_task_MP,2020.1.3,Win32,60,z,1,0.467365,,,,,,,,0.467365,1,,,,,,450,NW,"ID",33,phrect,PHRECT,z,,,,,,0.005208333,-0.415364583,0,0,0,,0,270,270,269,1,,
,,,,,,,,,,,,,,,,,,5cdc899d48d5f100195fafff,2020-08-10_18h25.41.538,lexical_decision_task_MP,2020.1.3,Win32,60,z,1,0.52438,,,,,,,,0.52438,1,,,,,,311,NW,UN,33,nerawl,SPROLY,z,,,,,,0.005208333,-0.415364583,0,0,0,,0,271,271,370,1,,
,,,,,,,,,,,,,,,,,,5cdc899d48d5f100195fafff,2020-08-10_18h25.41.538,lexical_decision_task_MP,2020.1.3,Win32,60,m,1,0.4862,,,,,,,,0.4862,1,,,,,,81,WORD,UN,33,stigma,FRIEND,m,,,,,,0.005208333,-0.415364583,0,0,0,,0,272,272,140,1,,
,,,,,,,,,,,,,,,,,,5cdc899d48d5f100195fafff,2020-08-10_18h25.41.538,lexical_decision_task_MP,2020.1.3,Win32,60,m,1,0.576555,,,,,,,,0.576555,1,,,,,,10,WORD,"ID",50,ethnic,ETHNIC,m,,,,,,0.005208333,-0.415364583,0,0,0,,0,273,273,69,1,,
,,,,,,,,,,,,,,,,,,5cdc899d48d5f100195fafff,2020-08-10_18h25.41.538,lexical_decision_task_MP,2020.1.3,Win32,60,m,1,0.517555,,,,,,,,0.517555,1,,,,,,49,WORD,"ID",50,survey,SURVEY,m,,,,,,0.005208333,-0.415364583,0,0,0,,0,274,274,108,1,,
,,,,,,,,,,,,,,,,,,5cdc899d48d5f100195fafff,2020-08-10_18h25.41.538,lexical_decision_task_MP,2020.1.3,Win32,60,m,1,0.44144,,,,,,,,0.44144,1,,,,,,196,WORD,"ID",33,credit,CREDIT,m,,,,,,0.005208333,-0.415364583,0,0,0,,0,275,275,15,1,,
,,,,,,,,,,,,,,,,,,5cdc899d48d5f100195fafff,2020-08-10_18h25.41.538,lexical_decision_task_MP,2020.1.3,Win32,60,z,1,0.45652,,,,,,,,0.45652,1,,,,,,298,NW,"ID",50,piergy,PIERGY,z,,,,,,0.005208333,-0.415364583,0,0,0,,0,276,276,357,1,,
,,,,,,,,,,,,,,,,,,5cdc899d48d5f100195fafff,2020-08-10_18h25.41.538,lexical_decision_task_MP,2020.1.3,Win32,60,m,1,0.7414,,,,,,,,0.7414,1,,,,,,224,WORD,"ID",33,period,PERIOD,m,,,,,,0.005208333,-0.415364583,0,0,0,,0,277,277,43,1,,
,,,,,,,,,,,,,,,,,,5cdc899d48d5f100195fafff,2020-08-10_18h25.41.538,lexical_decision_task_MP,2020.1.3,Win32,60,m,1,0.44246,,,,,,,,0.44246,1,,,,,,55,WORD,"ID",50,stroke,STROKE,m,,,,,,0.005208333,-0.415364583,0,0,0,,0,278,278,114,1,,
,,,,,,,,,,,,,,,,,,5cdc899d48d5f100195fafff,2020-08-10_18h25.41.538,lexical_decision_task_MP,2020.1.3,Win32,60,z,1,0.66237,,,,,,,,0.66237,1,,,,,,296,NW,"ID",50,beinch,BEINCH,z,,,,,,0.005208333,-0.415364583,0,0,0,,0,279,279,355,1,,
,,,,,,,,,,,,,,,,,,5cdc899d48d5f100195fafff,2020-08-10_18h25.41.538,lexical_decision_task_MP,2020.1.3,Win32,60,m,1,0.410875,,,,,,,,0.410875,1,,,,,,70,WORD,UN,33,garden,SQUARE,m,,,,,,0.005208333,-0.415364583,0,0,0,,0,280,280,129,1,,
,,,,,,,,,,,,,,,,,,5cdc899d48d5f100195fafff,2020-08-10_18h25.41.538,lexical_decision_task_MP,2020.1.3,Win32,60,m,1,0.4802,,,,,,,,0.4802,1,,,,,,168,WORD,UN,50,genius,ANSWER,m,,,,,,0.005208333,-0.415364583,0,0,0,,0,281,281,227,1,,
,,,,,,,,,,,,,,,,,,5cdc899d48d5f100195fafff,2020-08-10_18h25.41.538,lexical_decision_task_MP,2020.1.3,Win32,60,z,0,0.472605,,,,,,,,0.472605,0,,,,,,74,WORD,UN,33,trophy,PLAQUE,m,,,,,,0.005208333,-0.415364583,0,0,0,,0,282,282,133,1,,
,,,,,,,,,,,,,,,,,,5cdc899d48d5f100195fafff,2020-08-10_18h25.41.538,lexical_decision_task_MP,2020.1.3,Win32,60,m,1,0.50528,,,,,,,,0.50528,1,,,,,,98,WORD,UN,33,fluent,BELONG,m,,,,,,0.005208333,-0.415364583,0,0,0,,0,283,283,157,1,,
,,,,,,,,,,,,,,,,,,5cdc899d48d5f100195fafff,2020-08-10_18h25.41.538,lexical_decision_task_MP,2020.1.3,Win32,60,z,0,0.458615,,,,,,,,0.458615,0,,,,,,54,WORD,"ID",50,ramble,RAMBLE,m,,,,,,0.005208333,-0.415364583,0,0,0,,0,284,284,113,1,,
,,,,,,,,,,,,,,,,,,5cdc899d48d5f100195fafff,2020-08-10_18h25.41.538,lexical_decision_task_MP,2020.1.3,Win32,60,m,1,0.42486,,,,,,,,0.42486,1,,,,,,120,WORD,UN,33,ponder,STRAIN,m,,,,,,0.005208333,-0.415364583,0,0,0,,0,285,285,179,1,,
,,,,,,,,,,,,,,,,,,5cdc899d48d5f100195fafff,2020-08-10_18h25.41.538,lexical_decision_task_MP,2020.1.3,Win32,60,z,1,0.52017,,,,,,,,0.52017,1,,,,,,446,NW,"ID",33,runamo,RUNAMO,z,,,,,,0.005208333,-0.415364583,0,0,0,,0,286,286,265,1,,
,,,,,,,,,,,,,,,,,,5cdc899d48d5f100195fafff,2020-08-10_18h25.41.538,lexical_decision_task_MP,2020.1.3,Win32,60,z,1,0.47406,,,,,,,,0.47406,1,,,,,,464,NW,"ID",33,chaite,CHAITE,z,,,,,,0.005208333,-0.415364583,0,0,0,,0,287,287,283,1,,
,,,,,,,,,,,,,,,,,,5cdc899d48d5f100195fafff,2020-08-10_18h25.41.538,lexical_decision_task_MP,2020.1.3,Win32,60,z,0,0.52124,,,,,,,,0.52124,0,,,,,,230,WORD,"ID",33,fringe,FRINGE,m,,,,,,0.005208333,-0.415364583,0,0,0,,0,288,288,49,1,,
,,,,,,,,,,,,,,,,,,5cdc899d48d5f100195fafff,2020-08-10_18h25.41.538,lexical_decision_task_MP,2020.1.3,Win32,60,m,1,0.5082,,,,,,,,0.5082,1,,,,,,106,WORD,UN,33,slogan,RANSOM,m,,,,,,0.005208333,-0.415364583,0,0,0,,0,289,289,165,1,,
,,,,,,,,,,,,,,,,,,5cdc899d48d5f100195fafff,2020-08-10_18h25.41.538,lexical_decision_task_MP,2020.1.3,Win32,60,m,1,0.470555,,,,,,,,0.470555,1,,,,,,30,WORD,"ID",50,orient,ORIENT,m,,,,,,0.005208333,-0.415364583,0,0,0,,0,290,290,89,1,,
,,,,,,,,,,,,,,,,,,5cdc899d48d5f100195fafff,2020-08-10_18h25.41.538,lexical_decision_task_MP,2020.1.3,Win32,60,z,1,0.519965,,,,,,,,0.519965,1,,,,,,461,NW,"ID",33,justre,JUSTRE,z,,,,,,0.005208333,-0.415364583,0,0,0,,0,291,291,280,1,,
,,,,,,,,,,,,,,,,,,5cdc899d48d5f100195fafff,2020-08-10_18h25.41.538,lexical_decision_task_MP,2020.1.3,Win32,60,z,1,0.49895,,,,,,,,0.49895,1,,,,,,242,NW,"ID",50,unwert,UNWERT,z,,,,,,0.005208333,-0.415364583,0,0,0,,0,292,292,301,1,,
,,,,,,,,,,,,,,,,,,5cdc899d48d5f100195fafff,2020-08-10_18h25.41.538,lexical_decision_task_MP,2020.1.3,Win32,60,m,1,0.534805,,,,,,,,0.534805,1,,,,,,96,WORD,UN,33,client,IGNORE,m,,,,,,0.005208333,-0.415364583,0,0,0,,0,293,293,155,1,,
,,,,,,,,,,,,,,,,,,5cdc899d48d5f100195fafff,2020-08-10_18h25.41.538,lexical_decision_task_MP,2020.1.3,Win32,60,z,1,0.52124,,,,,,,,0.52124,1,,,,,,465,NW,"ID",33,whivex,WHIVEX,z,,,,,,0.005208333,-0.415364583,0,0,0,,0,294,294,284,1,,
,,,,,,,,,,,,,,,,,,5cdc899d48d5f100195fafff,2020-08-10_18h25.41.538,lexical_decision_task_MP,2020.1.3,Win32,60,m,1,0.484965,,,,,,,,0.484965,1,,,,,,143,WORD,UN,50,sponge,REASON,m,,,,,,0.005208333,-0.415364583,0,0,0,,0,295,295,202,1,,
,,,,,,,,,,,,,,,,,,5cdc899d48d5f100195fafff,2020-08-10_18h25.41.538,lexical_decision_task_MP,2020.1.3,Win32,60,z,1,0.560525,,,,,,,,0.560525,1,,,,,,336,NW,UN,33,rejols,GHODUS,z,,,,,,0.005208333,-0.415364583,0,0,0,,0,296,296,395,1,,
,,,,,,,,,,,,,,,,,,5cdc899d48d5f100195fafff,2020-08-10_18h25.41.538,lexical_decision_task_MP,2020.1.3,Win32,60,z,1,0.60256,,,,,,,,0.60256,1,,,,,,263,NW,"ID",50,dolica,DOLICA,z,,,,,,0.005208333,-0.415364583,0,0,0,,0,297,297,322,1,,
,,,,,,,,,,,,,,,,,,5cdc899d48d5f100195fafff,2020-08-10_18h25.41.538,lexical_decision_task_MP,2020.1.3,Win32,60,m,1,0.476895,,,,,,,,0.476895,1,,,,,,44,WORD,"ID",50,danger,DANGER,m,,,,,,0.005208333,-0.415364583,0,0,0,,0,298,298,103,1,,
,,,,,,,,,,,,,,,,,,5cdc899d48d5f100195fafff,2020-08-10_18h25.41.538,lexical_decision_task_MP,2020.1.3,Win32,60,z,1,0.53215,,,,,,,,0.53215,1,,,,,,313,NW,UN,33,sprine,PAURSE,z,,,,,,0.005208333,-0.415364583,0,0,0,,0,299,299,372,1,,
,,,,,,,,,,,,,,,,,,5cdc899d48d5f100195fafff,2020-08-10_18h25.41.538,lexical_decision_task_MP,2020.1.3,Win32,60,m,1,0.50087,,,,,,,,0.50087,1,,,,,,199,WORD,"ID",33,invoke,INVOKE,m,,,,,,0.005208333,-0.415364583,0,0,0,,0,300,300,18,1,,
,,,,,,,,,,,,,,,,,,5cdc899d48d5f100195fafff,2020-08-10_18h25.41.538,lexical_decision_task_MP,2020.1.3,Win32,60,z,1,0.4959,,,,,,,,0.4959,1,,,,,,345,NW,UN,33,saudic,ABSEND,z,,,,,,0.005208333,-0.415364583,0,0,0,,0,301,301,404,1,,
,,,,,,,,,,,,,,,,,,5cdc899d48d5f100195fafff,2020-08-10_18h25.41.538,lexical_decision_task_MP,2020.1.3,Win32,60,z,1,0.721795,,,,,,,,0.721795,1,,,,,,252,NW,"ID",50,stapod,STAPOD,z,,,,,,0.005208333,-0.415364583,0,0,0,,0,302,302,311,1,,
,,,,,,,,,,,,,,,,,,5cdc899d48d5f100195fafff,2020-08-10_18h25.41.538,lexical_decision_task_MP,2020.1.3,Win32,60,z,0,0.518715,,,,,,,,0.518715,0,,,,,,92,WORD,UN,33,public,STRAND,m,,,,,,0.006510417,-0.415364583,0,0,0,,0,303,303,151,1,,
,,,,,,,,,,,,,,,,,,5cdc899d48d5f100195fafff,2020-08-10_18h25.41.538,lexical_decision_task_MP,2020.1.3,Win32,60,m,1,0.638795,,,,,,,,0.638795,1,,,,,,181,WORD,"ID",33,glance,GLANCE,m,,,,,,0.006510417,-0.415364583,0,0,0,,0,304,304,0,1,,
,,,,,,,,,,,,,,,,,,5cdc899d48d5f100195fafff,2020-08-10_18h25.41.538,lexical_decision_task_MP,2020.1.3,Win32,60,m,1,0.441945,,,,,,,,0.441945,1,,,,,,171,WORD,UN,50,patrol,DEPART,m,,,,,,0.006510417,-0.415364583,0,0,0,,0,305,305,230,1,,
,,,,,,,,,,,,,,,,,,5cdc899d48d5f100195fafff,2020-08-10_18h25.41.538,lexical_decision_task_MP,2020.1.3,Win32,60,z,1,0.5391,,,,,,,,0.5391,1,,,,,,279,NW,"ID",50,celond,CELOND,z,,,,,,0.006510417,-0.415364583,0,0,0,,0,306,306,338,1,,
,,,,,,,,,,,,,,,,,,5cdc899d48d5f100195fafff,2020-08-10_18h25.41.538,lexical_decision_task_MP,2020.1.3,Win32,60,z,1,0.577155,,,,,,,,0.577155,1,,,,,,390,NW,UN,50,theldy,HATRUS,z,,,,,,0.006510417,-0.415364583,0,0,0,,0,307,307,449,1,,
,,,,,,,,,,,,,,,,,,5cdc899d48d5f100195fafff,2020-08-10_18h25.41.538,lexical_decision_task_MP,2020.1.3,Win32,60,m,1,0.565515,,,,,,,,0.565515,1,,,,,,236,WORD,"ID",33,pirate,PIRATE,m,,,,,,0.006510417,-0.415364583,0,0,0,,0,308,308,55,1,,
,,,,,,,,,,,,,,,,,,5cdc899d48d5f100195fafff,2020-08-10_18h25.41.538,lexical_decision_task_MP,2020.1.3,Win32,60,z,1,0.60145,,,,,,,,0.60145,1,,,,,,469,NW,"ID",33,padifs,PADIFS,z,,,,,,0.006510417,-0.415364583,0,0,0,,0,309,309,288,1,,
,,,,,,,,,,,,,,,,,,5cdc899d48d5f100195fafff,2020-08-10_18h25.41.538,lexical_decision_task_MP,2020.1.3,Win32,60,z,1,0.53058,,,,,,,,0.53058,1,,,,,,291,NW,"ID",50,pretch,PRETCH,z,,,,,,0.006510417,-0.415364583,0,0,0,,0,310,310,350,1,,
,,,,,,,,,,,,,,,,,,5cdc899d48d5f100195fafff,2020-08-10_18h25.41.538,lexical_decision_task_MP,2020.1.3,Win32,60,z,0,0.451145,,,,,,,,0.451145,0,,,,,,78,WORD,UN,33,theory,COLUMN,m,,,,,,0.006510417,-0.415364583,0,0,0,,0,311,311,137,1,,
,,,,,,,,,,,,,,,,,,5cdc899d48d5f100195fafff,2020-08-10_18h25.41.538,lexical_decision_task_MP,2020.1.3,Win32,60,z,1,0.47631,,,,,,,,0.47631,1,,,,,,267,NW,"ID",50,pasink,PASINK,z,,,,,,0.006510417,-0.415364583,0,0,0,,0,312,312,326,1,,
,,,,,,,,,,,,,,,,,,5cdc899d48d5f100195fafff,2020-08-10_18h25.41.538,lexical_decision_task_MP,2020.1.3,Win32,60,m,1,0.512595,,,,,,,,0.512595,1,,,,,,88,WORD,UN,33,permit,HUNGER,m,,,,,,0.006510417,-0.415364583,0,0,0,,0,313,313,147,1,,
,,,,,,,,,,,,,,,,,,5cdc899d48d5f100195fafff,2020-08-10_18h25.41.538,lexical_decision_task_MP,2020.1.3,Win32,60,m,1,0.5526,,,,,,,,0.5526,1,,,,,,80,WORD,UN,33,friend,FAMILY,m,,,,,,0.006510417,-0.415364583,0,0,0,,0,314,314,139,1,,
,,,,,,,,,,,,,,,,,,5cdc899d48d5f100195fafff,2020-08-10_18h25.41.538,lexical_decision_task_MP,2020.1.3,Win32,60,z,0,0.450705,,,,,,,,0.450705,0,,,,,,24,WORD,"ID",50,praise,PRAISE,m,,,,,,0.006510417,-0.415364583,0,0,0,,0,315,315,83,1,,
,,,,,,,,,,,,,,,,,,5cdc899d48d5f100195fafff,2020-08-10_18h25.41.538,lexical_decision_task_MP,2020.1.3,Win32,60,m,1,0.459665,,,,,,,,0.459665,1,,,,,,62,WORD,UN,33,launch,REGION,m,,,,,,0.006510417,-0.415364583,0,0,0,,0,316,316,121,1,,
,,,,,,,,,,,,,,,,,,5cdc899d48d5f100195fafff,2020-08-10_18h25.41.538,lexical_decision_task_MP,2020.1.3,Win32,60,m,0,0.499565,,,,,,,,0.499565,0,,,,,,303,NW,UN,33,cludie,FIREAM,z,,,,,,0.006510417,-0.415364583,0,0,0,,0,317,317,362,1,,
,,,,,,,,,,,,,,,,,,5cdc899d48d5f100195fafff,2020-08-10_18h25.41.538,lexical_decision_task_MP,2020.1.3,Win32,60,m,1,0.50103,,,,,,,,0.50103,1,,,,,,209,WORD,"ID",33,search,SEARCH,m,,,,,,0.006510417,-0.415364583,0,0,0,,0,318,318,28,1,,
,,,,,,,,,,,,,,,,,,5cdc899d48d5f100195fafff,2020-08-10_18h25.41.538,lexical_decision_task_MP,2020.1.3,Win32,60,m,1,0.556065,,,,,,,,0.556065,1,,,,,,84,WORD,UN,33,strand,MORTAL,m,,,,,,0.006510417,-0.415364583,0,0,0,,0,319,319,143,1,,
,,,,,,,,,,,,,,,,,,5cdc899d48d5f100195fafff,2020-08-10_18h25.41.538,lexical_decision_task_MP,2020.1.3,Win32,60,z,0,0.47091,,,,,,,,0.47091,0,,,,,,161,WORD,UN,50,candle,PASTOR,m,,,,,,0.006510417,-0.415364583,0,0,0,,0,320,320,220,1,,
,,,,,,,,,,,,,,,,,,5cdc899d48d5f100195fafff,2020-08-10_18h25.41.538,lexical_decision_task_MP,2020.1.3,Win32,60,m,1,0.50168,,,,,,,,0.50168,1,,,,,,53,WORD,"ID",50,police,POLICE,m,,,,,,0.006510417,-0.415364583,0,0,0,,0,321,321,112,1,,
,,,,,,,,,,,,,,,,,,5cdc899d48d5f100195fafff,2020-08-10_18h25.41.538,lexical_decision_task_MP,2020.1.3,Win32,60,m,1,0.40194,,,,,,,,0.40194,1,,,,,,137,WORD,UN,50,melody,FINGER,m,,,,,,0.006510417,-0.415364583,0,0,0,,0,322,322,196,1,,
,,,,,,,,,,,,,,,,,,5cdc899d48d5f100195fafff,2020-08-10_18h25.41.538,lexical_decision_task_MP,2020.1.3,Win32,60,z,1,0.66229,,,,,,,,0.66229,1,,,,,,479,NW,"ID",33,lobush,LOBUSH,z,,,,,,0.006510417,-0.415364583,0,0,0,,0,323,323,298,1,,
,,,,,,,,,,,,,,,,,,5cdc899d48d5f100195fafff,2020-08-10_18h25.41.538,lexical_decision_task_MP,2020.1.3,Win32,60,z,1,0.48125,,,,,,,,0.48125,1,,,,,,395,NW,UN,50,flengy,COLURY,z,,,,,,0.006510417,-0.415364583,0,0,0,,0,324,324,454,1,,
,,,,,,,,,,,,,,,,,,5cdc899d48d5f100195fafff,2020-08-10_18h25.41.538,lexical_decision_task_MP,2020.1.3,Win32,60,m,1,0.526315,,,,,,,,0.526315,1,,,,,,191,WORD,"ID",33,stable,STABLE,m,,,,,,0.006510417,-0.415364583,0,0,0,,0,325,325,10,1,,
,,,,,,,,,,,,,,,,,,5cdc899d48d5f100195fafff,2020-08-10_18h25.41.538,lexical_decision_task_MP,2020.1.3,Win32,60,m,1,0.38446,,,,,,,,0.38446,1,,,,,,195,WORD,"ID",33,resign,RESIGN,m,,,,,,0.006510417,-0.415364583,0,0,0,,0,326,326,14,1,,
,,,,,,,,,,,,,,,,,,5cdc899d48d5f100195fafff,2020-08-10_18h25.41.538,lexical_decision_task_MP,2020.1.3,Win32,60,z,1,0.529025,,,,,,,,0.529025,1,,,,,,262,NW,"ID",50,quilew,QUILEW,z,,,,,,0.006510417,-0.415364583,0,0,0,,0,327,327,321,1,,
,,,,,,,,,,,,,,,,,,5cdc899d48d5f100195fafff,2020-08-10_18h25.41.538,lexical_decision_task_MP,2020.1.3,Win32,60,m,1,0.42329,,,,,,,,0.42329,1,,,,,,2,WORD,"ID",50,bridge,BRIDGE,m,,,,,,0.006510417,-0.415364583,0,0,0,,0,328,328,61,1,,
,,,,,,,,,,,,,,,,,,5cdc899d48d5f100195fafff,2020-08-10_18h25.41.538,lexical_decision_task_MP,2020.1.3,Win32,60,m,1,0.54641,,,,,,,,0.54641,1,,,,,,48,WORD,"ID",50,walnut,WALNUT,m,,,,,,0.006510417,-0.415364583,0,0,0,,0,329,329,107,1,,
,,,,,,,,,,,,,,,,,,5cdc899d48d5f100195fafff,2020-08-10_18h25.41.538,lexical_decision_task_MP,2020.1.3,Win32,60,z,1,0.464,,,,,,,,0.464,1,,,,,,396,NW,UN,50,camble,FLENGY,z,,,,,,0.006510417,-0.415364583,0,0,0,,0,330,330,455,1,,
,,,,,,,,,,,,,,,,,,5cdc899d48d5f100195fafff,2020-08-10_18h25.41.538,lexical_decision_task_MP,2020.1.3,Win32,60,z,1,0.443725,,,,,,,,0.443725,1,,,,,,436,NW,"ID",33,frutan,FRUTAN,z,,,,,,0.006510417,-0.415364583,0,0,0,,0,331,331,255,1,,
,,,,,,,,,,,,,,,,,,5cdc899d48d5f100195fafff,2020-08-10_18h25.41.538,lexical_decision_task_MP,2020.1.3,Win32,60,m,1,0.458885,,,,,,,,0.458885,1,,,,,,165,WORD,UN,50,starch,INVEST,m,,,,,,0.006510417,-0.415364583,0,0,0,,0,332,332,224,1,,
,,,,,,,,,,,,,,,,,,5cdc899d48d5f100195fafff,2020-08-10_18h25.41.538,lexical_decision_task_MP,2020.1.3,Win32,60,z,1,0.502455,,,,,,,,0.502455,1,,,,,,360,NW,UN,33,fainch,DESORY,z,,,,,,0.006510417,-0.415364583,0,0,0,,0,333,333,419,1,,
,,,,,,,,,,,,,,,,,,5cdc899d48d5f100195fafff,2020-08-10_18h25.41.538,lexical_decision_task_MP,2020.1.3,Win32,60,m,1,0.45212,,,,,,,,0.45212,1,,,,,,145,WORD,UN,50,couple,PARISH,m,,,,,,0.006510417,-0.415364583,0,0,0,,0,334,334,204,1,,
,,,,,,,,,,,,,,,,,,5cdc899d48d5f100195fafff,2020-08-10_18h25.41.538,lexical_decision_task_MP,2020.1.3,Win32,60,z,1,0.599025,,,,,,,,0.599025,1,,,,,,352,NW,UN,33,clurey,TRINGE,z,,,,,,0.006510417,-0.415364583,0,0,0,,0,335,335,411,1,,
,,,,,,,,,,,,,,,,,,5cdc899d48d5f100195fafff,2020-08-10_18h25.41.538,lexical_decision_task_MP,2020.1.3,Win32,60,m,1,0.453205,,,,,,,,0.453205,1,,,,,,146,WORD,UN,50,garlic,COUPLE,m,,,,,,0.006510417,-0.415364583,0,0,0,,0,336,336,205,1,,
,,,,,,,,,,,,,,,,,,5cdc899d48d5f100195fafff,2020-08-10_18h25.41.538,lexical_decision_task_MP,2020.1.3,Win32,60,m,0,0.47127,,,,,,,,0.47127,0,,,,,,284,NW,"ID",50,shaple,SHAPLE,z,,,,,,0.006510417,-0.415364583,0,0,0,,0,337,337,343,1,,
,,,,,,,,,,,,,,,,,,5cdc899d48d5f100195fafff,2020-08-10_18h25.41.538,lexical_decision_task_MP,2020.1.3,Win32,60,z,0,0.45766,,,,,,,,0.45766,0,,,,,,8,WORD,"ID",50,abrupt,ABRUPT,m,,,,,,0.006510417,-0.415364583,0,0,0,,0,338,338,67,1,,
,,,,,,,,,,,,,,,,,,5cdc899d48d5f100195fafff,2020-08-10_18h25.41.538,lexical_decision_task_MP,2020.1.3,Win32,60,z,0,0.541075,,,,,,,,0.541075,0,,,,,,234,WORD,"ID",33,clumsy,CLUMSY,m,,,,,,0.006510417,-0.415364583,0,0,0,,0,339,339,53,1,,
,,,,,,,,,,,,,,,,,,5cdc899d48d5f100195fafff,2020-08-10_18h25.41.538,lexical_decision_task_MP,2020.1.3,Win32,60,m,0,0.42074,,,,,,,,0.42074,0,,,,,,306,NW,UN,33,kirafe,SOUNGE,z,,,,,,0.006510417,-0.415364583,0,0,0,,0,340,340,365,1,,
,,,,,,,,,,,,,,,,,,5cdc899d48d5f100195fafff,2020-08-10_18h25.41.538,lexical_decision_task_MP,2020.1.3,Win32,60,z,1,0.530905,,,,,,,,0.530905,1,,,,,,421,NW,"ID",33,knisma,KNISMA,z,,,,,,0.006510417,-0.415364583,0,0,0,,0,341,341,240,1,,
,,,,,,,,,,,,,,,,,,5cdc899d48d5f100195fafff,2020-08-10_18h25.41.538,lexical_decision_task_MP,2020.1.3,Win32,60,z,1,0.433145,,,,,,,,0.433145,1,,,,,,317,NW,UN,33,reagly,WORBAL,z,,,,,,0.006510417,-0.415364583,0,0,0,,0,342,342,376,1,,
,,,,,,,,,,,,,,,,,,5cdc899d48d5f100195fafff,2020-08-10_18h25.41.538,lexical_decision_task_MP,2020.1.3,Win32,60,m,1,0.4853,,,,,,,,0.4853,1,,,,,,138,WORD,UN,50,debris,MELODY,m,,,,,,0.006510417,-0.415364583,0,0,0,,0,343,343,197,1,,
,,,,,,,,,,,,,,,,,,5cdc899d48d5f100195fafff,2020-08-10_18h25.41.538,lexical_decision_task_MP,2020.1.3,Win32,60,z,1,0.54905,,,,,,,,0.54905,1,,,,,,318,NW,UN,33,zomber,REAGLY,z,,,,,,0.006510417,-0.415364583,0,0,0,,0,344,344,377,1,,
,,,,,,,,,,,,,,,,,,5cdc899d48d5f100195fafff,2020-08-10_18h25.41.538,lexical_decision_task_MP,2020.1.3,Win32,60,m,1,0.437955,,,,,,,,0.437955,1,,,,,,47,WORD,"ID",50,income,INCOME,m,,,,,,0.006510417,-0.415364583,0,0,0,,0,345,345,106,1,,
,,,,,,,,,,,,,,,,,,5cdc899d48d5f100195fafff,2020-08-10_18h25.41.538,lexical_decision_task_MP,2020.1.3,Win32,60,m,1,0.488385,,,,,,,,0.488385,1,,,,,,164,WORD,UN,50,invest,MARKET,m,,,,,,0.006510417,-0.415364583,0,0,0,,0,346,346,223,1,,
,,,,,,,,,,,,,,,,,,5cdc899d48d5f100195fafff,2020-08-10_18h25.41.538,lexical_decision_task_MP,2020.1.3,Win32,60,z,1,0.57206,,,,,,,,0.57206,1,,,,,,346,NW,UN,33,kerift,SAUDIC,z,,,,,,0.006510417,-0.415364583,0,0,0,,0,347,347,405,1,,
,,,,,,,,,,,,,,,,,,5cdc899d48d5f100195fafff,2020-08-10_18h25.41.538,lexical_decision_task_MP,2020.1.3,Win32,60,m,1,0.443255,,,,,,,,0.443255,1,,,,,,150,WORD,UN,50,mystic,RANDOM,m,,,,,,0.006510417,-0.415364583,0,0,0,,0,348,348,209,1,,
,,,,,,,,,,,,,,,,,,5cdc899d48d5f100195fafff,2020-08-10_18h25.41.538,lexical_decision_task_MP,2020.1.3,Win32,60,m,1,0.55159,,,,,,,,0.55159,1,,,,,,220,WORD,"ID",33,voyage,VOYAGE,m,,,,,,0.006510417,-0.415364583,0,0,0,,0,349,349,39,1,,
,,,,,,,,,,,,,,,,,,5cdc899d48d5f100195fafff,2020-08-10_18h25.41.538,lexical_decision_task_MP,2020.1.3,Win32,60,z,0,0.49194,,,,,,,,0.49194,0,,,,,,184,WORD,"ID",33,sleazy,SLEAZY,m,,,,,,0.006510417,-0.415364583,0,0,0,,0,350,350,3,1,,
,,,,,,,,,,,,,,,,,,5cdc899d48d5f100195fafff,2020-08-10_18h25.41.538,lexical_decision_task_MP,2020.1.3,Win32,60,m,1,0.48829,,,,,,,,0.48829,1,,,,,,218,WORD,"ID",33,shrink,SHRINK,m,,,,,,0.006510417,-0.415364583,0,0,0,,0,351,351,37,1,,
,,,,,,,,,,,,,,,,,,5cdc899d48d5f100195fafff,2020-08-10_18h25.41.538,lexical_decision_task_MP,2020.1.3,Win32,60,z,1,0.502455,,,,,,,,0.502455,1,,,,,,430,NW,"ID",33,caroey,CAROEY,z,,,,,,0.006510417,-0.415364583,0,0,0,,0,352,352,249,1,,
,,,,,,,,,,,,,,,,,,5cdc899d48d5f100195fafff,2020-08-10_18h25.41.538,lexical_decision_task_MP,2020.1.3,Win32,60,z,1,0.477285,,,,,,,,0.477285,1,,,,,,341,NW,UN,33,randow,MYRTIE,z,,,,,,0.006510417,-0.415364583,0,0,0,,0,353,353,400,1,,
,,,,,,,,,,,,,,,,,,5cdc899d48d5f100195fafff,2020-08-10_18h25.41.538,lexical_decision_task_MP,2020.1.3,Win32,60,m,0,0.50683,,,,,,,,0.50683,0,,,,,,422,NW,"ID",33,alcoud,ALCOUD,z,,,,,,0.006510417,-0.415364583,0,0,0,,0,354,354,241,1,,
,,,,,,,,,,,,,,,,,,5cdc899d48d5f100195fafff,2020-08-10_18h25.41.538,lexical_decision_task_MP,2020.1.3,Win32,60,m,1,0.50739,,,,,,,,0.50739,1,,,,,,58,WORD,"ID",50,foster,FOSTER,m,,,,,,0.006510417,-0.415364583,0,0,0,,0,355,355,117,1,,
,,,,,,,,,,,,,,,,,,5cdc899d48d5f100195fafff,2020-08-10_18h25.41.538,lexical_decision_task_MP,2020.1.3,Win32,60,z,1,0.5958,,,,,,,,0.5958,1,,,,,,269,NW,"ID",50,orchet,ORCHET,z,,,,,,0.006510417,-0.415364583,0,0,0,,0,356,356,328,1,,
,,,,,,,,,,,,,,,,,,5cdc899d48d5f100195fafff,2020-08-10_18h25.41.538,lexical_decision_task_MP,2020.1.3,Win32,60,m,1,0.60825,,,,,,,,0.60825,1,,,,,,97,WORD,UN,33,belong,CLIENT,m,,,,,,0.006510417,-0.415364583,0,0,0,,0,357,357,156,1,,
,,,,,,,,,,,,,,,,,,5cdc899d48d5f100195fafff,2020-08-10_18h25.41.538,lexical_decision_task_MP,2020.1.3,Win32,60,z,1,0.5013,,,,,,,,0.5013,1,,,,,,415,NW,UN,50,pathel,HIGSTA,z,,,,,,0.006510417,-0.415364583,0,0,0,,0,358,358,474,1,,
,,,,,,,,,,,,,,,,,,5cdc899d48d5f100195fafff,2020-08-10_18h25.41.538,lexical_decision_task_MP,2020.1.3,Win32,60,z,1,0.65213,,,,,,,,0.65213,1,,,,,,410,NW,UN,50,orchin,TUNORY,z,,,,,,0.006510417,-0.415364583,0,0,0,,0,359,359,469,1,,
,,,,,,,,,,,,,,,,,,5cdc899d48d5f100195fafff,2020-08-10_18h25.41.538,lexical_decision_task_MP,2020.1.3,Win32,60,m,1,0.33448,,,,,,,,0.33448,1,,,,,,26,WORD,"ID",50,sprint,SPRINT,m,,,,,,0.006510417,-0.415364583,0,0,0,,0,360,360,85,1,,
,,,,,,,,,,,,,,,,,,5cdc899d48d5f100195fafff,2020-08-10_18h25.41.538,lexical_decision_task_MP,2020.1.3,Win32,60,z,0,0.47885,,,,,,,,0.47885,0,,,,,,136,WORD,UN,50,finger,BLEACH,m,,,,,,0.006510417,-0.415364583,0,0,0,,0,361,361,195,1,,
,,,,,,,,,,,,,,,,,,5cdc899d48d5f100195fafff,2020-08-10_18h25.41.538,lexical_decision_task_MP,2020.1.3,Win32,60,z,1,0.4316,,,,,,,,0.4316,1,,,,,,280,NW,"ID",50,curbol,CURBOL,z,,,,,,0.006510417,-0.415364583,1,0,0,,0,362,362,339,1,break_done_button,
,,,,,,,,,,,,,,,,,,5cdc899d48d5f100195fafff,2020-08-10_18h25.41.538,lexical_decision_task_MP,2020.1.3,Win32,60,z,1,1.269995,,,,,,,,1.269995,1,,,,,,432,NW,"ID",33,lunker,LUNKER,z,,,,,,-0.875,0.5,0,0,0,,0,363,363,251,1,,
,,,,,,,,,,,,,,,,,,5cdc899d48d5f100195fafff,2020-08-10_18h25.41.538,lexical_decision_task_MP,2020.1.3,Win32,60,z,1,0.603935,,,,,,,,0.603935,1,,,,,,301,NW,UN,33,miluer,FAINCH,z,,,,,,-0.875,0.5,0,0,0,,0,364,364,360,1,,
,,,,,,,,,,,,,,,,,,5cdc899d48d5f100195fafff,2020-08-10_18h25.41.538,lexical_decision_task_MP,2020.1.3,Win32,60,m,1,0.58095,,,,,,,,0.58095,1,,,,,,114,WORD,UN,33,guitar,PLACID,m,,,,,,-0.875,0.5,0,0,0,,0,365,365,173,1,,
,,,,,,,,,,,,,,,,,,5cdc899d48d5f100195fafff,2020-08-10_18h25.41.538,lexical_decision_task_MP,2020.1.3,Win32,60,m,1,0.48691,,,,,,,,0.48691,1,,,,,,93,WORD,UN,33,travel,PUBLIC,m,,,,,,-0.875,0.5,0,0,0,,0,366,366,152,1,,
,,,,,,,,,,,,,,,,,,5cdc899d48d5f100195fafff,2020-08-10_18h25.41.538,lexical_decision_task_MP,2020.1.3,Win32,60,m,1,0.505165,,,,,,,,0.505165,1,,,,,,5,WORD,"ID",50,plunge,PLUNGE,m,,,,,,-0.875,0.5,0,0,0,,0,367,367,64,1,,
,,,,,,,,,,,,,,,,,,5cdc899d48d5f100195fafff,2020-08-10_18h25.41.538,lexical_decision_task_MP,2020.1.3,Win32,60,z,1,0.565655,,,,,,,,0.565655,1,,,,,,281,NW,"ID",50,melaty,MELATY,z,,,,,,-0.875,0.5,0,0,0,,0,368,368,340,1,,
,,,,,,,,,,,,,,,,,,5cdc899d48d5f100195fafff,2020-08-10_18h25.41.538,lexical_decision_task_MP,2020.1.3,Win32,60,m,1,0.541985,,,,,,,,0.541985,1,,,,,,127,WORD,UN,50,senior,CASTLE,m,,,,,,-0.875,0.5,0,0,0,,0,369,369,186,1,,
,,,,,,,,,,,,,,,,,,5cdc899d48d5f100195fafff,2020-08-10_18h25.41.538,lexical_decision_task_MP,2020.1.3,Win32,60,z,1,0.787865,,,,,,,,0.787865,1,,,,,,310,NW,UN,33,sproly,DANIET,z,,,,,,-0.875,0.5,0,0,0,,0,370,370,369,1,,
,,,,,,,,,,,,,,,,,,5cdc899d48d5f100195fafff,2020-08-10_18h25.41.538,lexical_decision_task_MP,2020.1.3,Win32,60,z,1,0.553875,,,,,,,,0.553875,1,,,,,,475,NW,"ID",33,pebric,PEBRIC,z,,,,,,-0.875,0.5,0,0,0,,0,371,371,294,1,,
,,,,,,,,,,,,,,,,,,5cdc899d48d5f100195fafff,2020-08-10_18h25.41.538,lexical_decision_task_MP,2020.1.3,Win32,60,z,1,0.49074,,,,,,,,0.49074,1,,,,,,273,NW,"ID",50,sortel,SORTEL,z,,,,,,-0.875,0.5,0,0,0,,0,372,372,332,1,,
,,,,,,,,,,,,,,,,,,5cdc899d48d5f100195fafff,2020-08-10_18h25.41.538,lexical_decision_task_MP,2020.1.3,Win32,60,z,1,0.818515,,,,,,,,0.818515,1,,,,,,462,NW,"ID",33,absult,ABSULT,z,,,,,,-0.875,0.5,0,0,0,,0,373,373,281,1,,
,,,,,,,,,,,,,,,,,,5cdc899d48d5f100195fafff,2020-08-10_18h25.41.538,lexical_decision_task_MP,2020.1.3,Win32,60,z,1,0.89818,,,,,,,,0.89818,1,,,,,,401,NW,UN,50,syntic,MUSTIL,z,,,,,,-0.876302083,0.5,0,0,0,,0,374,374,460,1,,
,,,,,,,,,,,,,,,,,,5cdc899d48d5f100195fafff,2020-08-10_18h25.41.538,lexical_decision_task_MP,2020.1.3,Win32,60,z,1,0.72642,,,,,,,,0.72642,1,,,,,,332,NW,UN,33,catrie,VANGUE,z,,,,,,-0.876302083,0.5,0,0,0,,0,375,375,391,1,,
,,,,,,,,,,,,,,,,,,5cdc899d48d5f100195fafff,2020-08-10_18h25.41.538,lexical_decision_task_MP,2020.1.3,Win32,60,m,1,1.25167,,,,,,,,1.25167,1,,,,,,29,WORD,"ID",50,sketch,SKETCH,m,,,,,,-0.875,0.494791667,0,0,0,,0,376,376,88,1,,
,,,,,,,,,,,,,,,,,,5cdc899d48d5f100195fafff,2020-08-10_18h25.41.538,lexical_decision_task_MP,2020.1.3,Win32,60,z,0,0.557555,,,,,,,,0.557555,0,,,,,,183,WORD,"ID",33,mildew,MILDEW,m,,,,,,-0.875,0.498697917,0,0,0,,0,377,377,2,1,,
,,,,,,,,,,,,,,,,,,5cdc899d48d5f100195fafff,2020-08-10_18h25.41.538,lexical_decision_task_MP,2020.1.3,Win32,60,z,1,1.114735,,,,,,,,1.114735,1,,,,,,268,NW,"ID",50,packes,PACKES,z,,,,,,-0.875,0.5,0,0,0,,0,378,378,327,1,,
,,,,,,,,,,,,,,,,,,5cdc899d48d5f100195fafff,2020-08-10_18h25.41.538,lexical_decision_task_MP,2020.1.3,Win32,60,m,0,1.00127,,,,,,,,1.00127,0,,,,,,425,NW,"ID",33,frudge,FRUDGE,z,,,,,,-0.875,0.5,0,0,0,,0,379,379,244,1,,
,,,,,,,,,,,,,,,,,,5cdc899d48d5f100195fafff,2020-08-10_18h25.41.538,lexical_decision_task_MP,2020.1.3,Win32,60,z,1,0.911395,,,,,,,,0.911395,1,,,,,,409,NW,UN,50,tunory,ELOPIA,z,,,,,,-0.875,0.5,0,0,0,,0,380,380,468,1,,
,,,,,,,,,,,,,,,,,,5cdc899d48d5f100195fafff,2020-08-10_18h25.41.538,lexical_decision_task_MP,2020.1.3,Win32,60,m,1,0.9355,,,,,,,,0.9355,1,,,,,,23,WORD,"ID",50,wealth,WEALTH,m,,,,,,-0.875,0.5,0,0,0,,0,381,381,82,1,,
,,,,,,,,,,,,,,,,,,5cdc899d48d5f100195fafff,2020-08-10_18h25.41.538,lexical_decision_task_MP,2020.1.3,Win32,60,z,1,1.175085,,,,,,,,1.175085,1,,,,,,304,NW,UN,33,forgle,CLUDIE,z,,,,,,-0.875,0.5,0,0,0,,0,382,382,363,1,,
,,,,,,,,,,,,,,,,,,5cdc899d48d5f100195fafff,2020-08-10_18h25.41.538,lexical_decision_task_MP,2020.1.3,Win32,60,z,1,0.620075,,,,,,,,0.620075,1,,,,,,363,NW,UN,50,impote,BREALI,z,,,,,,-0.875,0.5,0,0,0,,0,383,383,422,1,,
,,,,,,,,,,,,,,,,,,5cdc899d48d5f100195fafff,2020-08-10_18h25.41.538,lexical_decision_task_MP,2020.1.3,Win32,60,,0,,-0.875,0.5,1,0,0,1.57564,,0.620075,-1,,,,,,40,WORD,"ID",50,convey,CONVEY,m,,,,,,-0.875,0.5,0,0,0,,0,384,384,99,1,,
,,,,,,,,,,,,,,,,,,5cdc899d48d5f100195fafff,2020-08-10_18h25.41.538,lexical_decision_task_MP,2020.1.3,Win32,60,z,1,1.04118,,,,,,,,1.04118,1,,,,,,451,NW,"ID",33,cainky,CAINKY,z,,,,,,-0.875,0.46875,0,0,0,,0,385,385,270,1,,
,,,,,,,,,,,,,,,,,,5cdc899d48d5f100195fafff,2020-08-10_18h25.41.538,lexical_decision_task_MP,2020.1.3,Win32,60,z,1,0.557655,,,,,,,,0.557655,1,,,,,,394,NW,UN,50,colury,SPAQUX,z,,,,,,-0.875,0.46875,0,0,0,,0,386,386,453,1,,
,,,,,,,,,,,,,,,,,,5cdc899d48d5f100195fafff,2020-08-10_18h25.41.538,lexical_decision_task_MP,2020.1.3,Win32,60,m,1,0.56681,,,,,,,,0.56681,1,,,,,,182,WORD,"ID",33,winter,WINTER,m,,,,,,-0.875,0.46875,0,0,0,,0,387,387,1,1,,
,,,,,,,,,,,,,,,,,,5cdc899d48d5f100195fafff,2020-08-10_18h25.41.538,lexical_decision_task_MP,2020.1.3,Win32,60,m,1,0.519325,,,,,,,,0.519325,1,,,,,,203,WORD,"ID",33,phrase,PHRASE,m,,,,,,-0.875,0.46875,0,0,0,,0,388,388,22,1,,
,,,,,,,,,,,,,,,,,,5cdc899d48d5f100195fafff,2020-08-10_18h25.41.538,lexical_decision_task_MP,2020.1.3,Win32,60,m,1,0.60113,,,,,,,,0.60113,1,,,,,,61,WORD,UN,33,region,PONDER,m,,,,,,-0.875,0.46875,0,0,0,,0,389,389,120,1,,
,,,,,,,,,,,,,,,,,,5cdc899d48d5f100195fafff,2020-08-10_18h25.41.538,lexical_decision_task_MP,2020.1.3,Win32,60,m,0,0.58315,,,,,,,,0.58315,0,,,,,,354,NW,UN,33,zingly,VIRLEX,z,,,,,,-0.875,0.46875,0,0,0,,0,390,390,413,1,,
,,,,,,,,,,,,,,,,,,5cdc899d48d5f100195fafff,2020-08-10_18h25.41.538,lexical_decision_task_MP,2020.1.3,Win32,60,z,1,0.752725,,,,,,,,0.752725,1,,,,,,468,NW,"ID",33,wictor,WICTOR,z,,,,,,-0.875,0.46875,0,0,0,,0,391,391,287,1,,
,,,,,,,,,,,,,,,,,,5cdc899d48d5f100195fafff,2020-08-10_18h25.41.538,lexical_decision_task_MP,2020.1.3,Win32,60,z,1,1.172385,,,,,,,,1.172385,1,,,,,,247,NW,"ID",50,blarge,BLARGE,z,,,,,,-0.875,0.46875,0,0,0,,0,392,392,306,1,,
,,,,,,,,,,,,,,,,,,5cdc899d48d5f100195fafff,2020-08-10_18h25.41.538,lexical_decision_task_MP,2020.1.3,Win32,60,z,1,0.73783,,,,,,,,0.73783,1,,,,,,274,NW,"ID",50,fumblo,FUMBLO,z,,,,,,-0.875,0.46875,0,0,0,,0,393,393,333,1,,
,,,,,,,,,,,,,,,,,,5cdc899d48d5f100195fafff,2020-08-10_18h25.41.538,lexical_decision_task_MP,2020.1.3,Win32,60,z,1,1.5765,,,,,,,,1.5765,1,,,,,,460,NW,"ID",33,mingar,MINGAR,z,,,,,,-0.875,0.46875,0,0,0,,0,394,394,279,1,,
,,,,,,,,,,,,,,,,,,5cdc899d48d5f100195fafff,2020-08-10_18h25.41.538,lexical_decision_task_MP,2020.1.3,Win32,60,z,1,0.70484,,,,,,,,0.70484,1,,,,,,356,NW,UN,33,derain,OTHNIS,z,,,,,,-0.875,0.46875,0,0,0,,0,395,395,415,1,,
,,,,,,,,,,,,,,,,,,5cdc899d48d5f100195fafff,2020-08-10_18h25.41.538,lexical_decision_task_MP,2020.1.3,Win32,60,z,1,1.18232,,,,,,,,1.18232,1,,,,,,459,NW,"ID",33,bafent,BAFENT,z,,,,,,-0.875,0.46875,0,0,0,,0,396,396,278,1,,
,,,,,,,,,,,,,,,,,,5cdc899d48d5f100195fafff,2020-08-10_18h25.41.538,lexical_decision_task_MP,2020.1.3,Win32,60,m,1,0.66856,,,,,,,,0.66856,1,,,,,,173,WORD,UN,50,turkey,SHOWER,m,,,,,,-0.875,0.46875,0,0,0,,0,397,397,232,1,,
,,,,,,,,,,,,,,,,,,5cdc899d48d5f100195fafff,2020-08-10_18h25.41.538,lexical_decision_task_MP,2020.1.3,Win32,60,z,0,1.082055,,,,,,,,1.082055,0,,,,,,19,WORD,"ID",50,patron,PATRON,m,,,,,,-0.875,0.46875,0,0,0,,0,398,398,78,1,,
,,,,,,,,,,,,,,,,,,5cdc899d48d5f100195fafff,2020-08-10_18h25.41.538,lexical_decision_task_MP,2020.1.3,Win32,60,m,1,0.66295,,,,,,,,0.66295,1,,,,,,20,WORD,"ID",50,breast,BREAST,m,,,,,,-0.875,0.46875,0,0,0,,0,399,399,79,1,,
,,,,,,,,,,,,,,,,,,5cdc899d48d5f100195fafff,2020-08-10_18h25.41.538,lexical_decision_task_MP,2020.1.3,Win32,60,z,1,1.66941,,,,,,,,1.66941,1,,,,,,297,NW,"ID",50,fertic,FERTIC,z,,,,,,-0.875,0.46875,0,0,0,,0,400,400,356,1,,
,,,,,,,,,,,,,,,,,,5cdc899d48d5f100195fafff,2020-08-10_18h25.41.538,lexical_decision_task_MP,2020.1.3,Win32,60,z,1,0.629755,,,,,,,,0.629755,1,,,,,,434,NW,"ID",33,pitrom,PITROM,z,,,,,,-0.875,0.46875,0,0,0,,0,401,401,253,1,,
,,,,,,,,,,,,,,,,,,5cdc899d48d5f100195fafff,2020-08-10_18h25.41.538,lexical_decision_task_MP,2020.1.3,Win32,60,z,1,1.172525,,,,,,,,1.172525,1,,,,,,403,NW,UN,50,cluirm,BRUATS,z,,,,,,-0.875,0.46875,0,0,0,,0,402,402,462,1,,
,,,,,,,,,,,,,,,,,,5cdc899d48d5f100195fafff,2020-08-10_18h25.41.538,lexical_decision_task_MP,2020.1.3,Win32,60,z,1,1.02552,,,,,,,,1.02552,1,,,,,,478,NW,"ID",33,acrise,ACRISE,z,,,,,,-0.875,0.46875,0,0,0,,0,403,403,297,1,,
,,,,,,,,,,,,,,,,,,5cdc899d48d5f100195fafff,2020-08-10_18h25.41.538,lexical_decision_task_MP,2020.1.3,Win32,60,m,1,0.6379,,,,,,,,0.6379,1,,,,,,108,WORD,UN,33,wonder,RECKON,m,,,,,,-0.875,0.46875,0,0,0,,0,404,404,167,1,,
,,,,,,,,,,,,,,,,,,5cdc899d48d5f100195fafff,2020-08-10_18h25.41.538,lexical_decision_task_MP,2020.1.3,Win32,60,m,1,0.60033,,,,,,,,0.60033,1,,,,,,135,WORD,UN,50,bleach,IMPORT,m,,,,,,-0.875,0.46875,0,0,0,,0,405,405,194,1,,
