counterbalancing_condition,instr_done_keyboard.keys,instr_done_touch.x,instr_done_touch.y,instr_done_touch.leftButton,instr_done_touch.midButton,instr_done_touch.rightButton,instr_done_touch.clicked_name,instruction_pages.thisRepN,instruction_pages.thisTrialN,instruction_pages.thisN,instruction_pages.thisIndex,instruction_pages.ran,pageN,phase,instruct_text,has_image,instruct_image,participant,date,expName,psychopyVersion,OS,frameRate,response.keys,response.corr,touch_resp.x,touch_resp.y,touch_resp.leftButton,touch_resp.midButton,touch_resp.rightButton,touch_resp.time,touch_resp.clicked_name,rt,corr,practice_trials.thisRepN,practice_trials.thisTrialN,practice_trials.thisN,practice_trials.thisIndex,practice_trials.ran,TrialID,StimulusType,Condition,PrimeDuration,Prime,Target,corrAns,end_of_practice_trials_pages.thisRepN,end_of_practice_trials_pages.thisTrialN,end_of_practice_trials_pages.thisN,end_of_practice_trials_pages.thisIndex,end_of_practice_trials_pages.ran,break_done_touch.x,break_done_touch.y,break_done_touch.leftButton,break_done_touch.midButton,break_done_touch.rightButton,break_done_keyboard.keys,trials.thisRepN,trials.thisTrialN,trials.thisN,trials.thisIndex,trials.ran,break_done_touch.clicked_name
1,,0.081298828,-0.428841146,1,0,0,instr_done_button,0,0,0,0,1,1,instructions,"INSTRUCTIONS
At the start of each trial, look at the hash marks (######) in the center of the screen. After a moment, a string of letters will appear. Your task is to indicate if the letter string forms a word or not (i.e., if it is a nonword). For example, AUTHOR is a word while AUTHON is a nonword.

Press the space bar or touch the button below to continue.",0,,5cedb6b3dfb27200199626a0,2020-08-10_18h09.25.097,lexical_decision_task_MP,2020.1.3,Linux armv8l,60,,,,,,,,,,,,,,,,,,,,,,,,,,,,,,,,,,,,,,,,
,,0.043701172,-0.441861979,1,0,0,instr_done_button,0,1,1,1,1,2,instructions,"If your device has a keyboard, press the 'Z' key for nonwords and the 'M' key for words.





Press the space bar or touch the button below to continue.",1,keyboard-example.gif,5cedb6b3dfb27200199626a0,2020-08-10_18h09.25.097,lexical_decision_task_MP,2020.1.3,Linux armv8l,60,,,,,,,,,,,,,,,,,,,,,,,,,,,,,,,,,,,,,,,,
,,0.058105469,-0.444032118,1,0,0,instr_done_button,0,2,2,2,1,3,instructions,"If you are using a touchscreen only device, use the buttons on the screen. Do not use the mouse.





Press the space bar or touch the button below to continue.",1,touchscreen-example.gif,5cedb6b3dfb27200199626a0,2020-08-10_18h09.25.097,lexical_decision_task_MP,2020.1.3,Linux armv8l,60,,,,,,,,,,,,,,,,,,,,,,,,,,,,,,,,,,,,,,,,
,,0.046875,-0.433723958,1,0,0,instr_done_button,0,3,3,3,1,4,instructions,"It is very important that you respond as quickly and accurately as possible, as each letter string will only be on the screen for two seconds. If you do not respond within this time, the message 'Too slow!' will be displayed and the experiment will progress to the next letter string. The first 20 trials will be practice trials and you will receive feedback on your answers. 

Press the space bar or touch the button below to start the practice trials.",0,,5cedb6b3dfb27200199626a0,2020-08-10_18h09.25.097,lexical_decision_task_MP,2020.1.3,Linux armv8l,60,,,,,,,,,,,,,,,,,,,,,,,,,,,,,,,,,,,,,,,,
,,,,,,,,,,,,,,,,,,5cedb6b3dfb27200199626a0,2020-08-10_18h09.25.097,lexical_decision_task_MP,2020.1.3,Linux armv8l,60,,0,-0.340087891,-0.350716146,1,0,0,0.8765,button_left,0.8765,1,0,0,0,12,1,1013,NW,UN,33,adveil,SPRINY,z,,,,,,,,,,,,,,,,,
,,,,,,,,,,,,,,,,,,5cedb6b3dfb27200199626a0,2020-08-10_18h09.25.097,lexical_decision_task_MP,2020.1.3,Linux armv8l,60,,0,0.409667969,-0.35234375,1,0,0,0.7891,button_right,0.7891,1,0,1,1,5,1,1006,WORD,UN,33,frenzy,OBTAIN,m,,,,,,,,,,,,,,,,,
,,,,,,,,,,,,,,,,,,5cedb6b3dfb27200199626a0,2020-08-10_18h09.25.097,lexical_decision_task_MP,2020.1.3,Linux armv8l,60,,0,-0.319580078,-0.294835069,1,0,0,0.8064,button_left,0.8064,1,0,2,2,11,1,1012,NW,"ID",50,rashet,RASHET,z,,,,,,,,,,,,,,,,,
,,,,,,,,,,,,,,,,,,5cedb6b3dfb27200199626a0,2020-08-10_18h09.25.097,lexical_decision_task_MP,2020.1.3,Linux armv8l,60,,0,0.327636719,-0.341493056,1,0,0,0.7884,button_right,0.7884,1,0,3,3,1,1,1002,WORD,"ID",33,adjust,ADJUST,m,,,,,,,,,,,,,,,,,
,,,,,,,,,,,,,,,,,,5cedb6b3dfb27200199626a0,2020-08-10_18h09.25.097,lexical_decision_task_MP,2020.1.3,Linux armv8l,60,,0,-0.336181641,-0.35234375,1,0,0,0.7585,button_left,0.7585,1,0,4,4,8,1,1009,NW,"ID",33,aslert,ASLERT,z,,,,,,,,,,,,,,,,,
,,,,,,,,,,,,,,,,,,5cedb6b3dfb27200199626a0,2020-08-10_18h09.25.097,lexical_decision_task_MP,2020.1.3,Linux armv8l,60,,0,-0.33984375,-0.344748264,1,0,0,0.6593,button_left,0.6593,1,0,5,5,14,1,1015,NW,UN,50,miaber,THRALE,z,,,,,,,,,,,,,,,,,
,,,,,,,,,,,,,,,,,,5cedb6b3dfb27200199626a0,2020-08-10_18h09.25.097,lexical_decision_task_MP,2020.1.3,Linux armv8l,60,,0,-0.277587891,-0.27421875,1,0,0,0.7266,button_left,0.7266,1,0,6,6,15,1,1016,NW,UN,50,mushed,WHAISE,z,,,,,,,,,,,,,,,,,
,,,,,,,,,,,,,,,,,,5cedb6b3dfb27200199626a0,2020-08-10_18h09.25.097,lexical_decision_task_MP,2020.1.3,Linux armv8l,60,,0,-0.306884766,-0.292122396,1,0,0,0.7208,button_left,0.7208,1,0,7,7,9,1,1010,NW,"ID",33,fariny,FARINY,z,,,,,,,,,,,,,,,,,
,,,,,,,,,,,,,,,,,,5cedb6b3dfb27200199626a0,2020-08-10_18h09.25.097,lexical_decision_task_MP,2020.1.3,Linux armv8l,60,,0,0.327392578,-0.315451389,1,0,0,0.7246,button_right,0.7246,1,0,8,8,3,1,1004,WORD,"ID",50,matrix,MATRIX,m,,,,,,,,,,,,,,,,,
,,,,,,,,,,,,,,,,,,5cedb6b3dfb27200199626a0,2020-08-10_18h09.25.097,lexical_decision_task_MP,2020.1.3,Linux armv8l,60,,0,0.326660156,-0.285611979,1,0,0,0.6803,button_right,0.6803,1,0,9,9,7,1,1008,WORD,UN,50,hurdle,VOLUME,m,,,,,,,,,,,,,,,,,
,,,,,,,,,,,,,,,,,,5cedb6b3dfb27200199626a0,2020-08-10_18h09.25.097,lexical_decision_task_MP,2020.1.3,Linux armv8l,60,,0,0.336425781,-0.331184896,1,0,0,0.7369,button_right,0.7369,1,0,10,10,0,1,1001,WORD,"ID",33,utopia,UTOPIA,m,,,,,,,,,,,,,,,,,
,,,,,,,,,,,,,,,,,,5cedb6b3dfb27200199626a0,2020-08-10_18h09.25.097,lexical_decision_task_MP,2020.1.3,Linux armv8l,60,,0,0.325927734,-0.297547743,1,0,0,0.7887,button_right,0.7887,1,0,11,11,2,1,1003,WORD,"ID",50,almond,ALMOND,m,,,,,,,,,,,,,,,,,
,,,,,,,,,,,,,,,,,,5cedb6b3dfb27200199626a0,2020-08-10_18h09.25.097,lexical_decision_task_MP,2020.1.3,Linux armv8l,60,,0,-0.298583984,-0.329557292,1,0,0,0.7972,button_left,0.7972,1,0,12,12,13,1,1014,NW,UN,33,winfer,ROUPET,z,,,,,,,,,,,,,,,,,
,,,,,,,,,,,,,,,,,,5cedb6b3dfb27200199626a0,2020-08-10_18h09.25.097,lexical_decision_task_MP,2020.1.3,Linux armv8l,60,,0,0.360595703,-0.257400174,1,0,0,0.7242,button_right,0.7242,1,0,13,13,6,1,1007,WORD,UN,50,tropic,ZOMBIE,m,,,,,,,,,,,,,,,,,
,,,,,,,,,,,,,,,,,,5cedb6b3dfb27200199626a0,2020-08-10_18h09.25.097,lexical_decision_task_MP,2020.1.3,Linux armv8l,60,,0,0.313964844,-0.30297309,1,0,0,0.8045,button_right,0.8045,1,0,14,14,4,1,1005,WORD,UN,33,abound,SQUEAK,m,,,,,,,,,,,,,,,,,
,,,,,,,,,,,,,,,,,,5cedb6b3dfb27200199626a0,2020-08-10_18h09.25.097,lexical_decision_task_MP,2020.1.3,Linux armv8l,60,,0,-0.352294922,-0.326844618,1,0,0,0.6401,button_left,0.6401,1,0,15,15,10,1,1011,NW,"ID",50,inlade,INLADE,z,,,,,,,,,,,,,,,,,
,,0.042724609,-0.426671007,1,0,0,instr_done_button,,,,,,1,end_of_practice,"You have completed the practice trials. During the experimental trials, you will not receive feedback, but it is very important that you respond as quickly and accurately as possible. 
Before you begin, please ensure that you are in a comfortable and quiet location and will not be disturbed for about 15 minutes, as we cannot use your data if you do not complete all the trials. 
There will be opportunities to take breaks at regular intervals during the experiment. When you are ready to start the experimental trials, please press space or touch the button below.",,,5cedb6b3dfb27200199626a0,2020-08-10_18h09.25.097,lexical_decision_task_MP,2020.1.3,Linux armv8l,60,,,,,,,,,,,,,,,,,,,,,,,,0,0,0,0,1,,,,,,,,,,,,
,,,,,,,,,,,,,,,,,,5cedb6b3dfb27200199626a0,2020-08-10_18h09.25.097,lexical_decision_task_MP,2020.1.3,Linux armv8l,60,,0,-0.315917969,-0.333355035,1,0,0,0.7235,button_left,0.7235,1,,,,,,247,NW,"ID",33,blarge,BLARGE,z,,,,,,-0.315917969,-0.333355035,1,0,0,,0,0,0,246,1,
,,,,,,,,,,,,,,,,,,5cedb6b3dfb27200199626a0,2020-08-10_18h09.25.097,lexical_decision_task_MP,2020.1.3,Linux armv8l,60,,0,0.347167969,-0.339865451,1,0,0,0.8049,button_right,0.8049,1,,,,,,207,WORD,UN,50,hockey,WREATH,m,,,,,,0.347167969,-0.339865451,1,0,0,,0,1,1,206,1,
,,,,,,,,,,,,,,,,,,5cedb6b3dfb27200199626a0,2020-08-10_18h09.25.097,lexical_decision_task_MP,2020.1.3,Linux armv8l,60,,0,0.349365234,-0.333355035,1,0,0,0.8617,button_right,0.8617,1,,,,,,32,WORD,"ID",33,buckle,BUCKLE,m,,,,,,0.349365234,-0.333355035,1,0,0,,0,2,2,31,1,
,,,,,,,,,,,,,,,,,,5cedb6b3dfb27200199626a0,2020-08-10_18h09.25.097,lexical_decision_task_MP,2020.1.3,Linux armv8l,60,,0,0.329833984,-0.329557292,1,0,0,0.6736,button_right,0.6736,1,,,,,,15,WORD,"ID",33,amount,AMOUNT,m,,,,,,0.329833984,-0.329557292,1,0,0,,0,3,3,14,1,
,,,,,,,,,,,,,,,,,,5cedb6b3dfb27200199626a0,2020-08-10_18h09.25.097,lexical_decision_task_MP,2020.1.3,Linux armv8l,60,,0,0.319824219,-0.338780382,1,0,0,0.7462,button_right,0.7462,1,,,,,,56,WORD,"ID",33,ambush,AMBUSH,m,,,,,,0.319824219,-0.338780382,1,0,0,,0,4,4,55,1,
,,,,,,,,,,,,,,,,,,5cedb6b3dfb27200199626a0,2020-08-10_18h09.25.097,lexical_decision_task_MP,2020.1.3,Linux armv8l,60,,0,0.322998047,-0.310026042,1,0,0,0.7609,button_right,0.7609,1,,,,,,200,WORD,UN,50,admire,BEACON,m,,,,,,0.322998047,-0.310026042,1,0,0,,0,5,5,199,1,
,,,,,,,,,,,,,,,,,,5cedb6b3dfb27200199626a0,2020-08-10_18h09.25.097,lexical_decision_task_MP,2020.1.3,Linux armv8l,60,,0,-0.324951172,-0.350173611,1,0,0,0.6782,button_left,0.6782,1,,,,,,430,NW,UN,50,funtle,CAROEY,z,,,,,,-0.324951172,-0.350173611,1,0,0,,0,6,6,429,1,
,,,,,,,,,,,,,,,,,,5cedb6b3dfb27200199626a0,2020-08-10_18h09.25.097,lexical_decision_task_MP,2020.1.3,Linux armv8l,60,,0,-0.370361328,-0.358854167,1,0,0,0.6437,button_left,0.6437,1,,,,,,437,NW,UN,50,baitch,SNAPEL,z,,,,,,-0.370361328,-0.358854167,1,0,0,,0,7,7,436,1,
,,,,,,,,,,,,,,,,,,5cedb6b3dfb27200199626a0,2020-08-10_18h09.25.097,lexical_decision_task_MP,2020.1.3,Linux armv8l,60,,0,-0.385009766,-0.346375868,1,0,0,0.7004,button_left,0.7004,1,,,,,,392,NW,UN,33,ganous,ROUNCY,z,,,,,,-0.385009766,-0.346375868,1,0,0,,0,8,8,391,1,
,,,,,,,,,,,,,,,,,,5cedb6b3dfb27200199626a0,2020-08-10_18h09.25.097,lexical_decision_task_MP,2020.1.3,Linux armv8l,60,,0,-0.33203125,-0.307313368,1,0,0,0.6584,button_left,0.6584,1,,,,,,305,NW,"ID",50,forgle,FORGLE,z,,,,,,-0.33203125,-0.307313368,1,0,0,,0,9,9,304,1,
,,,,,,,,,,,,,,,,,,5cedb6b3dfb27200199626a0,2020-08-10_18h09.25.097,lexical_decision_task_MP,2020.1.3,Linux armv8l,60,,0,-0.337890625,-0.297005208,1,0,0,0.6169,button_left,0.6169,1,,,,,,377,NW,UN,33,shrile,INJORE,z,,,,,,-0.337890625,-0.297005208,1,0,0,,0,10,10,376,1,
,,,,,,,,,,,,,,,,,,5cedb6b3dfb27200199626a0,2020-08-10_18h09.25.097,lexical_decision_task_MP,2020.1.3,Linux armv8l,60,,0,0.346679688,-0.276388889,1,0,0,0.9253,button_right,0.9253,1,,,,,,103,WORD,"ID",50,bounce,BOUNCE,m,,,,,,0.346679688,-0.276388889,1,0,0,,0,11,11,102,1,
,,,,,,,,,,,,,,,,,,5cedb6b3dfb27200199626a0,2020-08-10_18h09.25.097,lexical_decision_task_MP,2020.1.3,Linux armv8l,60,,0,-0.329101563,-0.317078993,1,0,0,0.5796,button_left,0.5796,1,,,,,,354,NW,"ID",50,virlex,VIRLEX,z,,,,,,-0.329101563,-0.317078993,1,0,0,,0,12,12,353,1,
,,,,,,,,,,,,,,,,,,5cedb6b3dfb27200199626a0,2020-08-10_18h09.25.097,lexical_decision_task_MP,2020.1.3,Linux armv8l,60,,0,0.376464844,-0.282899306,1,0,0,0.696,button_right,0.696,1,,,,,,66,WORD,"ID",50,gospel,GOSPEL,m,,,,,,0.376464844,-0.282899306,1,0,0,,0,13,13,65,1,
,,,,,,,,,,,,,,,,,,5cedb6b3dfb27200199626a0,2020-08-10_18h09.25.097,lexical_decision_task_MP,2020.1.3,Linux armv8l,60,,0,-0.341552734,-0.23515625,1,0,0,0.6292,button_left,0.6292,1,,,,,,362,NW,UN,33,breali,TIREAU,z,,,,,,-0.341552734,-0.23515625,1,0,0,,0,14,14,361,1,
,,,,,,,,,,,,,,,,,,5cedb6b3dfb27200199626a0,2020-08-10_18h09.25.097,lexical_decision_task_MP,2020.1.3,Linux armv8l,60,,0,0.346679688,-0.267165799,1,0,0,0.624,button_right,0.624,1,,,,,,20,WORD,"ID",33,breast,BREAST,m,,,,,,0.346679688,-0.267165799,1,0,0,,0,15,15,19,1,
,,,,,,,,,,,,,,,,,,5cedb6b3dfb27200199626a0,2020-08-10_18h09.25.097,lexical_decision_task_MP,2020.1.3,Linux armv8l,60,,0,-0.351074219,-0.323046875,1,0,0,0.6127,button_left,0.6127,1,,,,,,479,NW,UN,50,josted,LOBUSH,z,,,,,,-0.351074219,-0.323046875,1,0,0,,0,16,16,478,1,
,,,,,,,,,,,,,,,,,,5cedb6b3dfb27200199626a0,2020-08-10_18h09.25.097,lexical_decision_task_MP,2020.1.3,Linux armv8l,60,,0,0.359375,-0.330099826,1,0,0,0.6461,button_right,0.6461,1,,,,,,151,WORD,UN,33,rocket,MYSTIC,m,,,,,,0.359375,-0.330099826,1,0,0,,0,17,17,150,1,
,,,,,,,,,,,,,,,,,,5cedb6b3dfb27200199626a0,2020-08-10_18h09.25.097,lexical_decision_task_MP,2020.1.3,Linux armv8l,60,,0,-0.330810547,-0.287782118,1,0,0,0.5797,button_left,0.5797,1,,,,,,408,NW,UN,33,flumni,HURNIA,z,,,,,,-0.330810547,-0.287782118,1,0,0,,0,18,18,407,1,
,,,,,,,,,,,,,,,,,,5cedb6b3dfb27200199626a0,2020-08-10_18h09.25.097,lexical_decision_task_MP,2020.1.3,Linux armv8l,60,,0,-0.338134766,-0.298090278,1,0,0,0.7486,button_left,0.7486,1,,,,,,361,NW,UN,33,tireau,PAUCHE,z,,,,,,-0.338134766,-0.298090278,1,0,0,,0,19,19,360,1,
,,,,,,,,,,,,,,,,,,5cedb6b3dfb27200199626a0,2020-08-10_18h09.25.097,lexical_decision_task_MP,2020.1.3,Linux armv8l,60,,0,0.327636719,-0.325759549,1,0,0,0.6436,button_right,0.6436,1,,,,,,164,WORD,UN,33,invest,MARKET,m,,,,,,0.327636719,-0.325759549,1,0,0,,0,20,20,163,1,
,,,,,,,,,,,,,,,,,,5cedb6b3dfb27200199626a0,2020-08-10_18h09.25.097,lexical_decision_task_MP,2020.1.3,Linux armv8l,60,,0,0.332275391,-0.327387153,1,0,0,0.7127,button_right,0.7127,1,,,,,,41,WORD,"ID",33,spring,SPRING,m,,,,,,0.332275391,-0.327387153,1,0,0,,0,21,21,40,1,
,,,,,,,,,,,,,,,,,,5cedb6b3dfb27200199626a0,2020-08-10_18h09.25.097,lexical_decision_task_MP,2020.1.3,Linux armv8l,60,,0,0.344238281,-0.28344184,1,0,0,0.6738,button_right,0.6738,1,,,,,,115,WORD,"ID",50,guitar,GUITAR,m,,,,,,0.344238281,-0.28344184,1,0,0,,0,22,22,114,1,
,,,,,,,,,,,,,,,,,,5cedb6b3dfb27200199626a0,2020-08-10_18h09.25.097,lexical_decision_task_MP,2020.1.3,Linux armv8l,60,,0,0.336181641,-0.353971354,1,0,0,0.7953,button_right,0.7953,1,,,,,,8,WORD,"ID",33,abrupt,ABRUPT,m,,,,,,0.336181641,-0.353971354,1,0,0,,0,23,23,7,1,
,,,,,,,,,,,,,,,,,,5cedb6b3dfb27200199626a0,2020-08-10_18h09.25.097,lexical_decision_task_MP,2020.1.3,Linux armv8l,60,,0,0.313476563,-0.306770833,1,0,0,0.8582,button_right,0.8582,1,,,,,,131,WORD,UN,33,strong,QUENCH,m,,,,,,0.313476563,-0.306770833,1,0,0,,0,24,24,130,1,
,,,,,,,,,,,,,,,,,,5cedb6b3dfb27200199626a0,2020-08-10_18h09.25.097,lexical_decision_task_MP,2020.1.3,Linux armv8l,60,,0,0.340087891,-0.305143229,1,0,0,0.7295,button_right,0.7295,1,,,,,,87,WORD,"ID",50,filter,FILTER,m,,,,,,0.340087891,-0.305143229,1,0,0,,0,25,25,86,1,
,,,,,,,,,,,,,,,,,,5cedb6b3dfb27200199626a0,2020-08-10_18h09.25.097,lexical_decision_task_MP,2020.1.3,Linux armv8l,60,,0,0.325195313,-0.261197917,1,0,0,0.5805,button_right,0.5805,1,,,,,,84,WORD,"ID",50,mortal,MORTAL,m,,,,,,0.325195313,-0.261197917,1,0,0,,0,26,26,83,1,
,,,,,,,,,,,,,,,,,,5cedb6b3dfb27200199626a0,2020-08-10_18h09.25.097,lexical_decision_task_MP,2020.1.3,Linux armv8l,60,,0,-0.338378906,-0.287782118,1,0,0,0.5973,button_left,0.5973,1,,,,,,375,NW,UN,33,iguare,YORQUE,z,,,,,,-0.338378906,-0.287782118,1,0,0,,0,27,27,374,1,
,,,,,,,,,,,,,,,,,,5cedb6b3dfb27200199626a0,2020-08-10_18h09.25.097,lexical_decision_task_MP,2020.1.3,Linux armv8l,60,,0,0.333740234,-0.325759549,1,0,0,0.648,button_right,0.648,1,,,,,,31,WORD,"ID",33,weapon,WEAPON,m,,,,,,0.333740234,-0.325759549,1,0,0,,0,28,28,30,1,
,,,,,,,,,,,,,,,,,,5cedb6b3dfb27200199626a0,2020-08-10_18h09.25.097,lexical_decision_task_MP,2020.1.3,Linux armv8l,60,,0,-0.344238281,-0.348546007,1,0,0,0.8459,button_left,0.8459,1,,,,,,352,NW,"ID",50,tringe,TRINGE,z,,,,,,-0.344238281,-0.348546007,1,0,0,,0,29,29,351,1,
,,,,,,,,,,,,,,,,,,5cedb6b3dfb27200199626a0,2020-08-10_18h09.25.097,lexical_decision_task_MP,2020.1.3,Linux armv8l,60,,0,0.382324219,-0.356141493,1,0,0,0.6305,button_right,0.6305,1,,,,,,126,WORD,UN,33,castle,ENOUGH,m,,,,,,0.382324219,-0.356141493,1,0,0,,0,30,30,125,1,
,,,,,,,,,,,,,,,,,,5cedb6b3dfb27200199626a0,2020-08-10_18h09.25.097,lexical_decision_task_MP,2020.1.3,Linux armv8l,60,,0,-0.296630859,-0.325217014,1,0,0,0.5596,button_left,0.5596,1,,,,,,475,NW,UN,50,robuly,PEBRIC,z,,,,,,-0.296630859,-0.325217014,1,0,0,,0,31,31,474,1,
,,,,,,,,,,,,,,,,,,5cedb6b3dfb27200199626a0,2020-08-10_18h09.25.097,lexical_decision_task_MP,2020.1.3,Linux armv8l,60,,0,0.331298828,-0.281271701,1,0,0,0.6247,button_right,0.6247,1,,,,,,85,WORD,"ID",50,sprawl,SPRAWL,m,,,,,,0.331298828,-0.281271701,1,0,0,,0,32,32,84,1,
,,,,,,,,,,,,,,,,,,5cedb6b3dfb27200199626a0,2020-08-10_18h09.25.097,lexical_decision_task_MP,2020.1.3,Linux armv8l,60,,0,0.359130859,-0.358311632,1,0,0,0.5455,button_right,0.5455,1,,,,,,7,WORD,"ID",33,anchor,ANCHOR,m,,,,,,0.359130859,-0.358311632,1,0,0,,0,33,33,6,1,
,,,,,,,,,,,,,,,,,,5cedb6b3dfb27200199626a0,2020-08-10_18h09.25.097,lexical_decision_task_MP,2020.1.3,Linux armv8l,60,,0,-0.371826172,-0.361024306,1,0,0,0.83,button_left,0.83,1,,,,,,265,NW,"ID",33,distar,DISTAR,z,,,,,,-0.371826172,-0.361024306,1,0,0,,0,34,34,264,1,
,,,,,,,,,,,,,,,,,,5cedb6b3dfb27200199626a0,2020-08-10_18h09.25.097,lexical_decision_task_MP,2020.1.3,Linux armv8l,60,,0,0.350097656,-0.291037326,1,0,0,0.7955,button_right,0.7955,1,,,,,,135,WORD,UN,33,chrome,IMPORT,m,,,,,,0.350097656,-0.291037326,1,0,0,,0,35,35,134,1,
,,,,,,,,,,,,,,,,,,5cedb6b3dfb27200199626a0,2020-08-10_18h09.25.097,lexical_decision_task_MP,2020.1.3,Linux armv8l,60,,0,-0.360351563,-0.357226563,1,0,0,0.6464,button_left,0.6464,1,,,,,,353,NW,"ID",50,clurey,CLUREY,z,,,,,,-0.360351563,-0.357226563,1,0,0,,0,36,36,352,1,
,,,,,,,,,,,,,,,,,,5cedb6b3dfb27200199626a0,2020-08-10_18h09.25.097,lexical_decision_task_MP,2020.1.3,Linux armv8l,60,,0,0.30859375,-0.306770833,1,0,0,0.6472,button_right,0.6472,1,,,,,,163,WORD,UN,33,market,STRING,m,,,,,,0.30859375,-0.306770833,1,0,0,,0,37,37,162,1,
,,,,,,,,,,,,,,,,,,5cedb6b3dfb27200199626a0,2020-08-10_18h09.25.097,lexical_decision_task_MP,2020.1.3,Linux armv8l,60,,0,-0.344970703,-0.320876736,1,0,0,0.5957,button_left,0.5957,1,,,,,,459,NW,UN,50,mingar,BAFENT,z,,,,,,-0.344970703,-0.320876736,1,0,0,,0,38,38,458,1,
,,,,,,,,,,,,,,,,,,5cedb6b3dfb27200199626a0,2020-08-10_18h09.25.097,lexical_decision_task_MP,2020.1.3,Linux armv8l,60,,0,-0.291748047,-0.296462674,1,0,0,0.5941,button_left,0.5941,1,,,,,,438,NW,UN,50,limpor,BAITCH,z,,,,,,-0.291748047,-0.296462674,1,0,0,,0,39,39,437,1,
,,,,,,,,,,,,,,,,,,5cedb6b3dfb27200199626a0,2020-08-10_18h09.25.097,lexical_decision_task_MP,2020.1.3,Linux armv8l,60,,0,-0.333984375,-0.312196181,1,0,0,0.6432,button_left,0.6432,1,,,,,,469,NW,UN,50,crudio,PADIFS,z,,,,,,-0.333984375,-0.312196181,1,0,0,,0,40,40,468,1,
,,,,,,,,,,,,,,,,,,5cedb6b3dfb27200199626a0,2020-08-10_18h09.25.097,lexical_decision_task_MP,2020.1.3,Linux armv8l,60,,0,-0.348632813,-0.303515625,1,0,0,0.5016,button_left,0.5016,1,,,,,,357,NW,"ID",50,derain,DERAIN,z,,,,,,-0.348632813,-0.303515625,1,0,0,,0,41,41,356,1,
,,,,,,,,,,,,,,,,,,5cedb6b3dfb27200199626a0,2020-08-10_18h09.25.097,lexical_decision_task_MP,2020.1.3,Linux armv8l,60,,0,0.324462891,-0.344205729,1,0,0,0.8293,button_right,0.8293,1,,,,,,60,WORD,"ID",33,pencil,PENCIL,m,,,,,,0.324462891,-0.344205729,1,0,0,,0,42,42,59,1,
,,,,,,,,,,,,,,,,,,5cedb6b3dfb27200199626a0,2020-08-10_18h09.25.097,lexical_decision_task_MP,2020.1.3,Linux armv8l,60,,0,0.329589844,-0.269878472,1,0,0,0.6095,button_right,0.6095,1,,,,,,96,WORD,"ID",50,ignore,IGNORE,m,,,,,,0.329589844,-0.269878472,1,0,0,,0,43,43,95,1,
,,,,,,,,,,,,,,,,,,5cedb6b3dfb27200199626a0,2020-08-10_18h09.25.097,lexical_decision_task_MP,2020.1.3,Linux armv8l,60,,0,-0.318847656,-0.280186632,1,0,0,0.6788,button_left,0.6788,1,,,,,,294,NW,"ID",33,inhort,INHORT,z,,,,,,-0.318847656,-0.280186632,1,0,0,,0,44,44,293,1,
,,,,,,,,,,,,,,,,,,5cedb6b3dfb27200199626a0,2020-08-10_18h09.25.097,lexical_decision_task_MP,2020.1.3,Linux armv8l,60,,0,-0.305175781,-0.302430556,1,0,0,0.659,button_left,0.659,1,,,,,,443,NW,UN,50,jaunce,DORSEX,z,,,,,,-0.305175781,-0.302430556,1,0,0,,0,45,45,442,1,
,,,,,,,,,,,,,,,,,,5cedb6b3dfb27200199626a0,2020-08-10_18h09.25.097,lexical_decision_task_MP,2020.1.3,Linux armv8l,60,,0,0.388183594,-0.292122396,1,0,0,1.1396,button_right,1.1396,1,,,,,,1,WORD,"ID",33,fright,FRIGHT,m,,,,,,0.388183594,-0.292122396,1,0,0,,0,46,46,0,1,
,,,,,,,,,,,,,,,,,,5cedb6b3dfb27200199626a0,2020-08-10_18h09.25.097,lexical_decision_task_MP,2020.1.3,Linux armv8l,60,,0,0.335693359,-0.308940972,1,0,0,0.8292,button_right,0.8292,1,,,,,,35,WORD,"ID",33,socket,SOCKET,m,,,,,,0.335693359,-0.308940972,1,0,0,,0,47,47,34,1,
,,,,,,,,,,,,,,,,,,5cedb6b3dfb27200199626a0,2020-08-10_18h09.25.097,lexical_decision_task_MP,2020.1.3,Linux armv8l,60,,0,-0.340087891,-0.266623264,1,0,0,0.6298,button_left,0.6298,1,,,,,,414,NW,UN,33,higsta,SERBOL,z,,,,,,-0.340087891,-0.266623264,1,0,0,,0,48,48,413,1,
,,,,,,,,,,,,,,,,,,5cedb6b3dfb27200199626a0,2020-08-10_18h09.25.097,lexical_decision_task_MP,2020.1.3,Linux armv8l,60,,0,-0.302246094,-0.248177083,1,0,0,0.762,button_left,0.762,1,,,,,,298,NW,"ID",33,piergy,PIERGY,z,,,,,,-0.302246094,-0.248177083,1,0,0,,0,49,49,297,1,
,,,,,,,,,,,,,,,,,,5cedb6b3dfb27200199626a0,2020-08-10_18h09.25.097,lexical_decision_task_MP,2020.1.3,Linux armv8l,60,,0,-0.331542969,-0.355056424,1,0,0,0.7352,button_left,0.7352,1,,,,,,250,NW,"ID",33,milted,MILTED,z,,,,,,-0.331542969,-0.355056424,1,0,0,,0,50,50,249,1,
,,,,,,,,,,,,,,,,,,5cedb6b3dfb27200199626a0,2020-08-10_18h09.25.097,lexical_decision_task_MP,2020.1.3,Linux armv8l,60,,0,0.356201172,-0.256315104,1,0,0,0.6957,button_right,0.6957,1,,,,,,33,WORD,"ID",33,butler,BUTLER,m,,,,,,0.356201172,-0.256315104,1,0,0,,0,51,51,32,1,
,,,,,,,,,,,,,,,,,,5cedb6b3dfb27200199626a0,2020-08-10_18h09.25.097,lexical_decision_task_MP,2020.1.3,Linux armv8l,60,,0,0.315917969,-0.30405816,1,0,0,0.8461,button_right,0.8461,1,,,,,,234,WORD,UN,50,lumber,CLUMSY,m,,,,,,0.315917969,-0.30405816,1,0,0,,0,52,52,233,1,
,,,,,,,,,,,,,,,,,,5cedb6b3dfb27200199626a0,2020-08-10_18h09.25.097,lexical_decision_task_MP,2020.1.3,Linux armv8l,60,,0,0.347900391,-0.330642361,1,0,0,0.6806,button_right,0.6806,1,,,,,,212,WORD,UN,50,squeal,VERIFY,m,,,,,,0.347900391,-0.330642361,1,0,0,,0,53,53,211,1,
,,,,,,,,,,,,,,,,,,5cedb6b3dfb27200199626a0,2020-08-10_18h09.25.097,lexical_decision_task_MP,2020.1.3,Linux armv8l,60,,0,-0.322753906,-0.299717882,1,0,0,0.7259,button_left,0.7259,1,,,,,,452,NW,UN,50,bolvis,SURDEN,z,,,,,,-0.322753906,-0.299717882,1,0,0,,0,54,54,451,1,
,,,,,,,,,,,,,,,,,,5cedb6b3dfb27200199626a0,2020-08-10_18h09.25.097,lexical_decision_task_MP,2020.1.3,Linux armv8l,60,,0,-0.363769531,-0.293207465,1,0,0,0.615,button_left,0.615,1,,,,,,287,NW,"ID",33,nymbel,NYMBEL,z,,,,,,-0.363769531,-0.293207465,1,0,0,,0,55,55,286,1,
,,,,,,,,,,,,,,,,,,5cedb6b3dfb27200199626a0,2020-08-10_18h09.25.097,lexical_decision_task_MP,2020.1.3,Linux armv8l,60,,0,-0.319824219,-0.294292535,1,0,0,0.7098,button_left,0.7098,1,,,,,,462,NW,UN,50,kispel,ABSULT,z,,,,,,-0.319824219,-0.294292535,1,0,0,,0,56,56,461,1,
,,,,,,,,,,,,,,,,,,5cedb6b3dfb27200199626a0,2020-08-10_18h09.25.097,lexical_decision_task_MP,2020.1.3,Linux armv8l,60,,0,-0.286376953,-0.277473958,1,0,0,0.6962,button_left,0.6962,1,,,,,,332,NW,"ID",50,vangue,VANGUE,z,,,,,,-0.286376953,-0.277473958,1,0,0,,0,57,57,331,1,
,,,,,,,,,,,,,,,,,,5cedb6b3dfb27200199626a0,2020-08-10_18h09.25.097,lexical_decision_task_MP,2020.1.3,Linux armv8l,60,,0,0.275146484,-0.295377604,1,0,0,0.6289,button_right,0.6289,1,,,,,,113,WORD,"ID",50,chorus,CHORUS,m,,,,,,0.275146484,-0.295377604,1,0,0,,0,58,58,112,1,
,,,,,,,,,,,,,,,,,,5cedb6b3dfb27200199626a0,2020-08-10_18h09.25.097,lexical_decision_task_MP,2020.1.3,Linux armv8l,60,,0,0.329833984,-0.305143229,1,0,0,0.579,button_right,0.579,1,,,,,,158,WORD,UN,33,detail,ISLAND,m,,,,,,0.329833984,-0.305143229,1,0,0,,0,59,59,157,1,
,,,,,,,,,,,,,,,,,,5cedb6b3dfb27200199626a0,2020-08-10_18h09.25.097,lexical_decision_task_MP,2020.1.3,Linux armv8l,60,,0,-0.395751953,-0.312196181,1,0,0,0.664,button_left,0.664,1,,,,,,267,NW,"ID",33,pasink,PASINK,z,,,,,,-0.395751953,-0.312196181,1,0,0,,0,60,60,266,1,
,,,,,,,,,,,,,,,,,,5cedb6b3dfb27200199626a0,2020-08-10_18h09.25.097,lexical_decision_task_MP,2020.1.3,Linux armv8l,60,,0,-0.379882813,-0.298632813,1,0,0,0.5793,button_left,0.5793,1,,,,,,274,NW,"ID",33,fumblo,FUMBLO,z,,,,,,-0.379882813,-0.298632813,1,0,0,,0,61,61,273,1,
,,,,,,,,,,,,,,,,,,5cedb6b3dfb27200199626a0,2020-08-10_18h09.25.097,lexical_decision_task_MP,2020.1.3,Linux armv8l,60,,0,0.278320313,-0.305143229,1,0,0,0.7525,button_right,0.7525,1,,,,,,226,WORD,UN,50,flower,CASINO,m,,,,,,0.278320313,-0.305143229,1,0,0,,0,62,62,225,1,
,,,,,,,,,,,,,,,,,,5cedb6b3dfb27200199626a0,2020-08-10_18h09.25.097,lexical_decision_task_MP,2020.1.3,Linux armv8l,60,,0,-0.370605469,-0.285611979,1,0,0,0.6433,button_left,0.6433,1,,,,,,296,NW,"ID",33,beinch,BEINCH,z,,,,,,-0.370605469,-0.285611979,1,0,0,,0,63,63,295,1,
,,,,,,,,,,,,,,,,,,5cedb6b3dfb27200199626a0,2020-08-10_18h09.25.097,lexical_decision_task_MP,2020.1.3,Linux armv8l,60,,0,0.344238281,-0.304600694,1,0,0,0.6756,button_right,0.6756,1,,,,,,237,WORD,UN,50,seldom,POSTER,m,,,,,,0.344238281,-0.304600694,1,0,0,,0,64,64,236,1,
,,,,,,,,,,,,,,,,,,5cedb6b3dfb27200199626a0,2020-08-10_18h09.25.097,lexical_decision_task_MP,2020.1.3,Linux armv8l,60,,0,0.338134766,-0.300260417,1,0,0,0.5759,button_right,0.5759,1,,,,,,229,WORD,UN,50,fringe,MOTHER,m,,,,,,0.338134766,-0.300260417,1,0,0,,0,65,65,228,1,
,,,,,,,,,,,,,,,,,,5cedb6b3dfb27200199626a0,2020-08-10_18h09.25.097,lexical_decision_task_MP,2020.1.3,Linux armv8l,60,,0,-0.335693359,-0.285069444,1,0,0,0.7138,button_left,0.7138,1,,,,,,431,NW,UN,50,lunker,CHRUMS,z,,,,,,-0.335693359,-0.285069444,1,0,0,,0,66,66,430,1,
,,,,,,,,,,,,,,,,,,5cedb6b3dfb27200199626a0,2020-08-10_18h09.25.097,lexical_decision_task_MP,2020.1.3,Linux armv8l,60,,0,0.319091797,-0.337152778,1,0,0,0.6213,button_right,0.6213,1,,,,,,124,WORD,UN,33,nickel,BLOUSE,m,,,,,,0.319091797,-0.337152778,1,0,0,,0,67,67,123,1,
,,,,,,,,,,,,,,,,,,5cedb6b3dfb27200199626a0,2020-08-10_18h09.25.097,lexical_decision_task_MP,2020.1.3,Linux armv8l,60,,0,0.342041016,-0.312738715,1,0,0,0.6106,button_right,0.6106,1,,,,,,173,WORD,UN,33,turkey,SHOWER,m,,,,,,0.342041016,-0.312738715,1,0,0,,0,68,68,172,1,
,,,,,,,,,,,,,,,,,,5cedb6b3dfb27200199626a0,2020-08-10_18h09.25.097,lexical_decision_task_MP,2020.1.3,Linux armv8l,60,,0,0.382080078,-0.315993924,1,0,0,0.7078,button_right,0.7078,1,,,,,,10,WORD,"ID",33,ethnic,ETHNIC,m,,,,,,0.382080078,-0.315993924,1,0,0,,0,69,69,9,1,
,,,,,,,,,,,,,,,,,,5cedb6b3dfb27200199626a0,2020-08-10_18h09.25.097,lexical_decision_task_MP,2020.1.3,Linux armv8l,60,,0,0.373046875,-0.321961806,1,0,0,0.6136,button_right,0.6136,1,,,,,,18,WORD,"ID",33,humble,HUMBLE,m,,,,,,0.373046875,-0.321961806,1,0,0,,0,70,70,17,1,
,,,,,,,,,,,,,,,,,,5cedb6b3dfb27200199626a0,2020-08-10_18h09.25.097,lexical_decision_task_MP,2020.1.3,Linux armv8l,60,,0,0.321777344,-0.292122396,1,0,0,0.6441,button_right,0.6441,1,,,,,,102,WORD,"ID",50,direct,DIRECT,m,,,,,,0.321777344,-0.292122396,1,0,0,,0,71,71,101,1,
,,,,,,,,,,,,,,,,,,5cedb6b3dfb27200199626a0,2020-08-10_18h09.25.097,lexical_decision_task_MP,2020.1.3,Linux armv8l,60,,0,-0.427734375,-0.330642361,1,0,0,0.5927,button_left,0.5927,1,,,,,,385,NW,UN,33,ancust,VEIGMA,z,,,,,,-0.427734375,-0.330642361,1,0,0,,0,72,72,384,1,
,,,,,,,,,,,,,,,,,,5cedb6b3dfb27200199626a0,2020-08-10_18h09.25.097,lexical_decision_task_MP,2020.1.3,Linux armv8l,60,,0,0.339599609,-0.315993924,1,0,0,0.807,button_right,0.807,0,,,,,,303,NW,"ID",50,fiream,FIREAM,z,,,,,,0.339599609,-0.315993924,1,0,0,,0,73,73,302,1,
,,,,,,,,,,,,,,,,,,5cedb6b3dfb27200199626a0,2020-08-10_18h09.25.097,lexical_decision_task_MP,2020.1.3,Linux armv8l,60,,0,-0.321777344,-0.333897569,1,0,0,0.7291,button_left,0.7291,1,,,,,,243,NW,"ID",33,musied,MUSIED,z,,,,,,-0.321777344,-0.333897569,1,0,0,,0,74,74,242,1,
,,,,,,,,,,,,,,,,,,5cedb6b3dfb27200199626a0,2020-08-10_18h09.25.097,lexical_decision_task_MP,2020.1.3,Linux armv8l,60,,0,-0.333984375,-0.282899306,1,0,0,0.563,button_left,0.563,1,,,,,,241,NW,"ID",33,smenco,SMENCO,z,,,,,,-0.333984375,-0.282899306,1,0,0,,0,75,75,240,1,
,,,,,,,,,,,,,,,,,,5cedb6b3dfb27200199626a0,2020-08-10_18h09.25.097,lexical_decision_task_MP,2020.1.3,Linux armv8l,60,,0,0.277832031,-0.312196181,1,0,0,0.6657,button_right,0.6657,1,,,,,,162,WORD,UN,33,string,CANDLE,m,,,,,,0.277832031,-0.312196181,1,0,0,,0,76,76,161,1,
,,,,,,,,,,,,,,,,,,5cedb6b3dfb27200199626a0,2020-08-10_18h09.25.097,lexical_decision_task_MP,2020.1.3,Linux armv8l,60,,0,0.297851563,-0.262282986,1,0,0,0.6293,button_right,0.6293,1,,,,,,132,WORD,UN,33,bleach,STRONG,m,,,,,,0.297851563,-0.262282986,1,0,0,,0,77,77,131,1,
,,,,,,,,,,,,,,,,,,5cedb6b3dfb27200199626a0,2020-08-10_18h09.25.097,lexical_decision_task_MP,2020.1.3,Linux armv8l,60,,0,-0.372802734,-0.300260417,1,0,0,0.5688,button_left,0.5688,1,,,,,,337,NW,"ID",50,rejols,REJOLS,z,,,,,,-0.372802734,-0.300260417,1,0,0,,0,78,78,336,1,
,,,,,,,,,,,,,,,,,,5cedb6b3dfb27200199626a0,2020-08-10_18h09.25.097,lexical_decision_task_MP,2020.1.3,Linux armv8l,60,,0,-0.364501953,-0.324131944,1,0,0,0.7457,button_left,0.7457,1,,,,,,295,NW,"ID",33,gleath,GLEATH,z,,,,,,-0.364501953,-0.324131944,1,0,0,,0,79,79,294,1,
,,,,,,,,,,,,,,,,,,5cedb6b3dfb27200199626a0,2020-08-10_18h09.25.097,lexical_decision_task_MP,2020.1.3,Linux armv8l,60,,0,-0.337402344,-0.314366319,1,0,0,0.5445,button_left,0.5445,1,,,,,,423,NW,UN,50,praile,STRELD,z,,,,,,-0.337402344,-0.314366319,1,0,0,,0,80,80,422,1,
,,,,,,,,,,,,,,,,,,5cedb6b3dfb27200199626a0,2020-08-10_18h09.25.097,lexical_decision_task_MP,2020.1.3,Linux armv8l,60,,0,0.347412109,-0.315451389,1,0,0,0.7294,button_right,0.7294,1,,,,,,91,WORD,"ID",50,expand,EXPAND,m,,,,,,0.347412109,-0.315451389,1,0,0,,0,81,81,90,1,
,,,,,,,,,,,,,,,,,,5cedb6b3dfb27200199626a0,2020-08-10_18h09.25.097,lexical_decision_task_MP,2020.1.3,Linux armv8l,60,,0,0.348632813,-0.246549479,1,0,0,0.56,button_right,0.56,1,,,,,,112,WORD,"ID",50,breath,BREATH,m,,,,,,0.348632813,-0.246549479,1,0,0,,0,82,82,111,1,
,,,,,,,,,,,,,,,,,,5cedb6b3dfb27200199626a0,2020-08-10_18h09.25.097,lexical_decision_task_MP,2020.1.3,Linux armv8l,60,,0,-0.366699219,-0.300260417,1,0,0,0.6423,button_left,0.6423,1,,,,,,442,NW,UN,50,dorsex,ABOUNE,z,,,,,,-0.366699219,-0.300260417,1,0,0,,0,83,83,441,1,
,,,,,,,,,,,,,,,,,,5cedb6b3dfb27200199626a0,2020-08-10_18h09.25.097,lexical_decision_task_MP,2020.1.3,Linux armv8l,60,,0,-0.416503906,-0.296462674,1,0,0,0.5959,button_left,0.5959,1,,,,,,346,NW,"ID",50,saudic,SAUDIC,z,,,,,,-0.416503906,-0.296462674,1,0,0,,0,84,84,345,1,
,,,,,,,,,,,,,,,,,,5cedb6b3dfb27200199626a0,2020-08-10_18h09.25.097,lexical_decision_task_MP,2020.1.3,Linux armv8l,60,,0,0.288574219,-0.321961806,1,0,0,0.6145,button_right,0.6145,1,,,,,,137,WORD,UN,33,melody,FINGER,m,,,,,,0.288574219,-0.321961806,1,0,0,,0,85,85,136,1,
,,,,,,,,,,,,,,,,,,5cedb6b3dfb27200199626a0,2020-08-10_18h09.25.097,lexical_decision_task_MP,2020.1.3,Linux armv8l,60,,0,-0.424316406,-0.303515625,1,0,0,0.6433,button_left,0.6433,1,,,,,,304,NW,"ID",50,cludie,CLUDIE,z,,,,,,-0.424316406,-0.303515625,1,0,0,,0,86,86,303,1,
,,,,,,,,,,,,,,,,,,5cedb6b3dfb27200199626a0,2020-08-10_18h09.25.097,lexical_decision_task_MP,2020.1.3,Linux armv8l,60,,0,-0.383300781,-0.310026042,1,0,0,0.5312,button_left,0.5312,1,,,,,,275,NW,"ID",33,sleirt,SLEIRT,z,,,,,,-0.383300781,-0.310026042,1,0,0,,0,87,87,274,1,
,,,,,,,,,,,,,,,,,,5cedb6b3dfb27200199626a0,2020-08-10_18h09.25.097,lexical_decision_task_MP,2020.1.3,Linux armv8l,60,,0,0.278076172,-0.308398438,1,0,0,0.7123,button_right,0.7123,1,,,,,,214,WORD,UN,50,phobia,INTAKE,m,,,,,,0.278076172,-0.308398438,1,0,0,,0,88,88,213,1,
,,,,,,,,,,,,,,,,,,5cedb6b3dfb27200199626a0,2020-08-10_18h09.25.097,lexical_decision_task_MP,2020.1.3,Linux armv8l,60,,0,0.313232422,-0.336610243,1,0,0,0.547,button_right,0.547,1,,,,,,44,WORD,"ID",33,danger,DANGER,m,,,,,,0.313232422,-0.336610243,1,0,0,,0,89,89,43,1,
,,,,,,,,,,,,,,,,,,5cedb6b3dfb27200199626a0,2020-08-10_18h09.25.097,lexical_decision_task_MP,2020.1.3,Linux armv8l,60,,0,-0.391601563,-0.332269965,1,0,0,0.6789,button_left,0.6789,1,,,,,,325,NW,"ID",50,thruse,THRUSE,z,,,,,,-0.391601563,-0.332269965,1,0,0,,0,90,90,324,1,
,,,,,,,,,,,,,,,,,,5cedb6b3dfb27200199626a0,2020-08-10_18h09.25.097,lexical_decision_task_MP,2020.1.3,Linux armv8l,60,,0,0.301757813,-0.311653646,1,0,0,0.6133,button_right,0.6133,1,,,,,,21,WORD,"ID",33,simple,SIMPLE,m,,,,,,0.301757813,-0.311653646,1,0,0,,0,91,91,20,1,
,,,,,,,,,,,,,,,,,,5cedb6b3dfb27200199626a0,2020-08-10_18h09.25.097,lexical_decision_task_MP,2020.1.3,Linux armv8l,60,,0,0.327880859,-0.338780382,1,0,0,0.514,button_right,0.514,1,,,,,,51,WORD,"ID",33,hungry,HUNGRY,m,,,,,,0.327880859,-0.338780382,1,0,0,,0,92,92,50,1,
,,,,,,,,,,,,,,,,,,5cedb6b3dfb27200199626a0,2020-08-10_18h09.25.097,lexical_decision_task_MP,2020.1.3,Linux armv8l,60,,0,0.274414063,-0.288867188,1,0,0,0.7955,button_right,0.7955,1,,,,,,189,WORD,UN,50,backup,CENSOR,m,,,,,,0.274414063,-0.288867188,1,0,0,,0,93,93,188,1,
,,,,,,,,,,,,,,,,,,5cedb6b3dfb27200199626a0,2020-08-10_18h09.25.097,lexical_decision_task_MP,2020.1.3,Linux armv8l,60,,0,-0.393554688,-0.346375868,1,0,0,0.6625,button_left,0.6625,1,,,,,,273,NW,"ID",33,sortel,SORTEL,z,,,,,,-0.393554688,-0.346375868,1,0,0,,0,94,94,272,1,
,,,,,,,,,,,,,,,,,,5cedb6b3dfb27200199626a0,2020-08-10_18h09.25.097,lexical_decision_task_MP,2020.1.3,Linux armv8l,60,,0,-0.338134766,-0.3328125,1,0,0,0.6787,button_left,0.6787,1,,,,,,342,NW,"ID",50,randow,RANDOW,z,,,,,,-0.338134766,-0.3328125,1,0,0,,0,95,95,341,1,
,,,,,,,,,,,,,,,,,,5cedb6b3dfb27200199626a0,2020-08-10_18h09.25.097,lexical_decision_task_MP,2020.1.3,Linux armv8l,60,,0,0.344726563,-0.30297309,1,0,0,0.8965,button_right,0.8965,1,,,,,,59,WORD,"ID",33,splint,SPLINT,m,,,,,,0.344726563,-0.30297309,1,0,0,,0,96,96,58,1,
,,,,,,,,,,,,,,,,,,5cedb6b3dfb27200199626a0,2020-08-10_18h09.25.097,lexical_decision_task_MP,2020.1.3,Linux armv8l,60,,0,0.326171875,-0.307313368,1,0,0,0.5774,button_right,0.5774,1,,,,,,202,WORD,UN,50,phrase,FACTOR,m,,,,,,0.326171875,-0.307313368,1,0,0,,0,97,97,201,1,
,,,,,,,,,,,,,,,,,,5cedb6b3dfb27200199626a0,2020-08-10_18h09.25.097,lexical_decision_task_MP,2020.1.3,Linux armv8l,60,,0,-0.400390625,-0.340407986,1,0,0,0.6128,button_left,0.6128,1,,,,,,248,NW,"ID",33,strole,STROLE,z,,,,,,-0.400390625,-0.340407986,1,0,0,,0,98,98,247,1,
,,,,,,,,,,,,,,,,,,5cedb6b3dfb27200199626a0,2020-08-10_18h09.25.097,lexical_decision_task_MP,2020.1.3,Linux armv8l,60,,0,0.329101563,-0.32250434,1,0,0,0.7788,button_right,0.7788,1,,,,,,30,WORD,"ID",33,orient,ORIENT,m,,,,,,0.329101563,-0.32250434,1,0,0,,0,99,99,29,1,
,,,,,,,,,,,,,,,,,,5cedb6b3dfb27200199626a0,2020-08-10_18h09.25.097,lexical_decision_task_MP,2020.1.3,Linux armv8l,60,,0,0.325683594,-0.279101563,1,0,0,0.5946,button_right,0.5946,1,,,,,,79,WORD,"ID",50,theory,THEORY,m,,,,,,0.325683594,-0.279101563,1,0,0,,0,100,100,78,1,
,,,,,,,,,,,,,,,,,,5cedb6b3dfb27200199626a0,2020-08-10_18h09.25.097,lexical_decision_task_MP,2020.1.3,Linux armv8l,60,,0,0.345703125,-0.359396701,1,0,0,0.513,button_right,0.513,1,,,,,,12,WORD,"ID",33,orange,ORANGE,m,,,,,,0.345703125,-0.359396701,1,0,0,,0,101,101,11,1,
,,,,,,,,,,,,,,,,,,5cedb6b3dfb27200199626a0,2020-08-10_18h09.25.097,lexical_decision_task_MP,2020.1.3,Linux armv8l,60,,0,-0.401123047,-0.318164063,1,0,0,0.7291,button_left,0.7291,1,,,,,,319,NW,"ID",50,zomber,ZOMBER,z,,,,,,-0.401123047,-0.318164063,1,0,0,,0,102,102,318,1,
,,,,,,,,,,,,,,,,,,5cedb6b3dfb27200199626a0,2020-08-10_18h09.25.097,lexical_decision_task_MP,2020.1.3,Linux armv8l,60,,0,-0.281738281,-0.251974826,1,0,0,0.7782,button_left,0.7782,1,,,,,,457,NW,UN,50,barcet,WANIGH,z,,,,,,-0.281738281,-0.251974826,1,0,0,,0,103,103,456,1,
,,,,,,,,,,,,,,,,,,5cedb6b3dfb27200199626a0,2020-08-10_18h09.25.097,lexical_decision_task_MP,2020.1.3,Linux armv8l,60,,0,0.290039063,-0.36156684,1,0,0,0.5976,button_right,0.5976,1,,,,,,55,WORD,"ID",33,stroke,STROKE,m,,,,,,0.290039063,-0.36156684,1,0,0,,0,104,104,54,1,
,,,,,,,,,,,,,,,,,,5cedb6b3dfb27200199626a0,2020-08-10_18h09.25.097,lexical_decision_task_MP,2020.1.3,Linux armv8l,60,,0,0.33984375,-0.306770833,1,0,0,0.5474,button_right,0.5474,1,,,,,,38,WORD,"ID",33,powder,POWDER,m,,,,,,0.33984375,-0.306770833,1,0,0,,0,105,105,37,1,
,,,,,,,,,,,,,,,,,,5cedb6b3dfb27200199626a0,2020-08-10_18h09.25.097,lexical_decision_task_MP,2020.1.3,Linux armv8l,60,,0,-0.363037109,-0.286697049,1,0,0,0.6439,button_left,0.6439,1,,,,,,429,NW,UN,50,caroey,FUNTLE,z,,,,,,-0.363037109,-0.286697049,1,0,0,,0,106,106,428,1,
,,,,,,,,,,,,,,,,,,5cedb6b3dfb27200199626a0,2020-08-10_18h09.25.097,lexical_decision_task_MP,2020.1.3,Linux armv8l,60,,0,-0.361328125,-0.281814236,1,0,0,0.5469,button_left,0.5469,1,,,,,,288,NW,"ID",33,yaceup,YACEUP,z,,,,,,-0.361328125,-0.281814236,1,0,0,,0,107,107,287,1,
,,,,,,,,,,,,,,,,,,5cedb6b3dfb27200199626a0,2020-08-10_18h09.25.097,lexical_decision_task_MP,2020.1.3,Linux armv8l,60,,0,0.290039063,-0.319791667,1,0,0,0.7621,button_right,0.7621,1,,,,,,223,WORD,UN,50,period,KIDNEY,m,,,,,,0.290039063,-0.319791667,1,0,0,,0,108,108,222,1,
,,,,,,,,,,,,,,,,,,5cedb6b3dfb27200199626a0,2020-08-10_18h09.25.097,lexical_decision_task_MP,2020.1.3,Linux armv8l,60,,0,0.355224609,-0.289952257,1,0,0,0.5116,button_right,0.5116,1,,,,,,116,WORD,"ID",50,tumble,TUMBLE,m,,,,,,0.355224609,-0.289952257,1,0,0,,0,109,109,115,1,
,,,,,,,,,,,,,,,,,,5cedb6b3dfb27200199626a0,2020-08-10_18h09.25.097,lexical_decision_task_MP,2020.1.3,Linux armv8l,60,,0,0.337890625,-0.328472222,1,0,0,0.7627,button_right,0.7627,1,,,,,,240,WORD,UN,50,glance,FOREST,m,,,,,,0.337890625,-0.328472222,1,0,0,,0,110,110,239,1,
,,,,,,,,,,,,,,,,,,5cedb6b3dfb27200199626a0,2020-08-10_18h09.25.097,lexical_decision_task_MP,2020.1.3,Linux armv8l,60,,0,-0.410888672,-0.302430556,1,0,0,0.6273,button_left,0.6273,1,,,,,,356,NW,"ID",50,othnis,OTHNIS,z,,,,,,-0.410888672,-0.302430556,1,0,0,,0,111,111,355,1,
,,,,,,,,,,,,,,,,,,5cedb6b3dfb27200199626a0,2020-08-10_18h09.25.097,lexical_decision_task_MP,2020.1.3,Linux armv8l,60,,0,-0.360107422,-0.320876736,1,0,0,0.6293,button_left,0.6293,1,,,,,,315,NW,"ID",50,laston,LASTON,z,,,,,,-0.360107422,-0.320876736,1,0,0,,0,112,112,314,1,
,,,,,,,,,,,,,,,,,,5cedb6b3dfb27200199626a0,2020-08-10_18h09.25.097,lexical_decision_task_MP,2020.1.3,Linux armv8l,60,,0,0.331298828,-0.334982639,1,0,0,0.6288,button_right,0.6288,1,,,,,,213,WORD,UN,50,intake,SQUEAL,m,,,,,,0.331298828,-0.334982639,1,0,0,,0,113,113,212,1,
,,,,,,,,,,,,,,,,,,5cedb6b3dfb27200199626a0,2020-08-10_18h09.25.097,lexical_decision_task_MP,2020.1.3,Linux armv8l,60,,0,0.389160156,-0.30405816,1,0,0,0.6441,button_right,0.6441,1,,,,,,183,WORD,UN,50,sleazy,MILDEW,m,,,,,,0.389160156,-0.30405816,1,0,0,,0,114,114,182,1,
,,,,,,,,,,,,,,,,,,5cedb6b3dfb27200199626a0,2020-08-10_18h09.25.097,lexical_decision_task_MP,2020.1.3,Linux armv8l,60,,0,-0.366210938,-0.295920139,1,0,0,0.6132,button_left,0.6132,1,,,,,,421,NW,UN,50,alcoud,KNISMA,z,,,,,,-0.366210938,-0.295920139,1,0,0,,0,115,115,420,1,
,,,,,,,,,,,,,,,,,,5cedb6b3dfb27200199626a0,2020-08-10_18h09.25.097,lexical_decision_task_MP,2020.1.3,Linux armv8l,60,,0,-0.318847656,-0.294292535,1,0,0,0.6477,button_left,0.6477,1,,,,,,432,NW,UN,50,drance,LUNKER,z,,,,,,-0.318847656,-0.294292535,1,0,0,,0,116,116,431,1,
,,,,,,,,,,,,,,,,,,5cedb6b3dfb27200199626a0,2020-08-10_18h09.25.097,lexical_decision_task_MP,2020.1.3,Linux armv8l,60,,0,-0.331787109,-0.30297309,1,0,0,0.5304,button_left,0.5304,1,,,,,,366,NW,UN,33,slique,TOSHEL,z,,,,,,-0.331787109,-0.30297309,1,0,0,,0,117,117,365,1,
,,,,,,,,,,,,,,,,,,5cedb6b3dfb27200199626a0,2020-08-10_18h09.25.097,lexical_decision_task_MP,2020.1.3,Linux armv8l,60,,0,0.294921875,-0.308398438,1,0,0,0.6967,button_right,0.6967,1,,,,,,146,WORD,UN,33,garlic,COUPLE,m,,,,,,0.294921875,-0.308398438,1,0,0,,0,118,118,145,1,
,,,,,,,,,,,,,,,,,,5cedb6b3dfb27200199626a0,2020-08-10_18h09.25.097,lexical_decision_task_MP,2020.1.3,Linux armv8l,60,,0,0.323486328,-0.268793403,1,0,0,0.611,button_right,0.611,1,,,,,,50,WORD,"ID",33,snatch,SNATCH,m,,,,,,0.323486328,-0.268793403,1,0,0,,0,119,119,49,1,
,,,,,,,,,,,,,,,,,,5cedb6b3dfb27200199626a0,2020-08-10_18h09.25.097,lexical_decision_task_MP,2020.1.3,Linux armv8l,60,,0,-0.387939453,-0.34203559,1,0,0,0.6791,button_left,0.6791,1,,,,,,281,NW,"ID",33,melaty,MELATY,z,,,,,,0.104492188,-0.391948785,1,0,0,,0,120,120,280,1,break_done_button
,,,,,,,,,,,,,,,,,,5cedb6b3dfb27200199626a0,2020-08-10_18h09.25.097,lexical_decision_task_MP,2020.1.3,Linux armv8l,60,,0,-0.238525391,-0.280186632,1,0,0,0.8239,button_left,0.8239,1,,,,,,279,NW,"ID",33,celond,CELOND,z,,,,,,-0.238525391,-0.280186632,1,0,0,,0,121,121,278,1,
,,,,,,,,,,,,,,,,,,5cedb6b3dfb27200199626a0,2020-08-10_18h09.25.097,lexical_decision_task_MP,2020.1.3,Linux armv8l,60,,0,-0.343017578,-0.315993924,1,0,0,0.6462,button_left,0.6462,1,,,,,,245,NW,"ID",33,anougs,ANOUGS,z,,,,,,-0.343017578,-0.315993924,1,0,0,,0,122,122,244,1,
,,,,,,,,,,,,,,,,,,5cedb6b3dfb27200199626a0,2020-08-10_18h09.25.097,lexical_decision_task_MP,2020.1.3,Linux armv8l,60,,0,-0.305664063,-0.292664931,1,0,0,0.4784,button_left,0.4784,1,,,,,,436,NW,UN,50,snapel,FRUTAN,z,,,,,,-0.305664063,-0.292664931,1,0,0,,0,123,123,435,1,
,,,,,,,,,,,,,,,,,,5cedb6b3dfb27200199626a0,2020-08-10_18h09.25.097,lexical_decision_task_MP,2020.1.3,Linux armv8l,60,,0,0.297363281,-0.332269965,1,0,0,0.8783,button_right,0.8783,1,,,,,,134,WORD,UN,33,import,STAPLE,m,,,,,,0.297363281,-0.332269965,1,0,0,,0,124,124,133,1,
,,,,,,,,,,,,,,,,,,5cedb6b3dfb27200199626a0,2020-08-10_18h09.25.097,lexical_decision_task_MP,2020.1.3,Linux armv8l,60,,0,0.364990234,-0.301345486,1,0,0,0.6265,button_right,0.6265,1,,,,,,108,WORD,"ID",50,reckon,RECKON,m,,,,,,0.364990234,-0.301345486,1,0,0,,0,125,125,107,1,
,,,,,,,,,,,,,,,,,,5cedb6b3dfb27200199626a0,2020-08-10_18h09.25.097,lexical_decision_task_MP,2020.1.3,Linux armv8l,60,,0,0.376953125,-0.314366319,1,0,0,0.5633,button_right,0.5633,1,,,,,,81,WORD,"ID",50,friend,FRIEND,m,,,,,,0.376953125,-0.314366319,1,0,0,,0,126,126,80,1,
,,,,,,,,,,,,,,,,,,5cedb6b3dfb27200199626a0,2020-08-10_18h09.25.097,lexical_decision_task_MP,2020.1.3,Linux armv8l,60,,0,0.336914063,-0.310568576,1,0,0,0.8423,button_right,0.8423,1,,,,,,16,WORD,"ID",33,faucet,FAUCET,m,,,,,,0.336914063,-0.310568576,1,0,0,,0,127,127,15,1,
,,,,,,,,,,,,,,,,,,5cedb6b3dfb27200199626a0,2020-08-10_18h09.25.097,lexical_decision_task_MP,2020.1.3,Linux armv8l,60,,0,-0.293701172,-0.282899306,1,0,0,0.6277,button_left,0.6277,1,,,,,,316,NW,"ID",50,scregm,SCREGM,z,,,,,,-0.293701172,-0.282899306,1,0,0,,0,128,128,315,1,
,,,,,,,,,,,,,,,,,,5cedb6b3dfb27200199626a0,2020-08-10_18h09.25.097,lexical_decision_task_MP,2020.1.3,Linux armv8l,60,,0,0.359863281,-0.28344184,1,0,0,0.5806,button_right,0.5806,1,,,,,,236,WORD,UN,50,poster,PIRATE,m,,,,,,0.359863281,-0.28344184,1,0,0,,0,129,129,235,1,
,,,,,,,,,,,,,,,,,,5cedb6b3dfb27200199626a0,2020-08-10_18h09.25.097,lexical_decision_task_MP,2020.1.3,Linux armv8l,60,,0,0.363525391,-0.30297309,1,0,0,0.6793,button_right,0.6793,1,,,,,,5,WORD,"ID",33,plunge,PLUNGE,m,,,,,,0.363525391,-0.30297309,1,0,0,,0,130,130,4,1,
,,,,,,,,,,,,,,,,,,5cedb6b3dfb27200199626a0,2020-08-10_18h09.25.097,lexical_decision_task_MP,2020.1.3,Linux armv8l,60,,0,0.325439453,-0.305143229,1,0,0,0.5485,button_right,0.5485,1,,,,,,187,WORD,UN,50,social,COURSE,m,,,,,,0.325439453,-0.305143229,1,0,0,,0,131,131,186,1,
,,,,,,,,,,,,,,,,,,5cedb6b3dfb27200199626a0,2020-08-10_18h09.25.097,lexical_decision_task_MP,2020.1.3,Linux armv8l,60,,0,-0.3515625,-0.346918403,1,0,0,0.85,button_left,0.85,1,,,,,,425,NW,UN,50,schind,FRUDGE,z,,,,,,-0.3515625,-0.346918403,1,0,0,,0,132,132,424,1,
,,,,,,,,,,,,,,,,,,5cedb6b3dfb27200199626a0,2020-08-10_18h09.25.097,lexical_decision_task_MP,2020.1.3,Linux armv8l,60,,0,-0.342285156,-0.26391059,1,0,0,0.5426,button_left,0.5426,1,,,,,,472,NW,UN,50,crible,CIGNEY,z,,,,,,-0.342285156,-0.26391059,1,0,0,,0,133,133,471,1,
,,,,,,,,,,,,,,,,,,5cedb6b3dfb27200199626a0,2020-08-10_18h09.25.097,lexical_decision_task_MP,2020.1.3,Linux armv8l,60,,0,-0.292724609,-0.291037326,1,0,0,0.4445,button_left,0.4445,1,,,,,,344,NW,"ID",50,scrily,SCRILY,z,,,,,,-0.292724609,-0.291037326,1,0,0,,0,134,134,343,1,
,,,,,,,,,,,,,,,,,,5cedb6b3dfb27200199626a0,2020-08-10_18h09.25.097,lexical_decision_task_MP,2020.1.3,Linux armv8l,60,,0,0.333007813,-0.274761285,1,0,0,0.5625,button_right,0.5625,1,,,,,,94,WORD,"ID",50,travel,TRAVEL,m,,,,,,0.333007813,-0.274761285,1,0,0,,0,135,135,93,1,
,,,,,,,,,,,,,,,,,,5cedb6b3dfb27200199626a0,2020-08-10_18h09.25.097,lexical_decision_task_MP,2020.1.3,Linux armv8l,60,,0,-0.353759766,-0.298090278,1,0,0,0.6271,button_left,0.6271,1,,,,,,301,NW,"ID",50,fainch,FAINCH,z,,,,,,-0.353759766,-0.298090278,1,0,0,,0,136,136,300,1,
,,,,,,,,,,,,,,,,,,5cedb6b3dfb27200199626a0,2020-08-10_18h09.25.097,lexical_decision_task_MP,2020.1.3,Linux armv8l,60,,0,-0.312744141,-0.269878472,1,0,0,0.5797,button_left,0.5797,1,,,,,,403,NW,UN,33,cluirm,BRUATS,z,,,,,,-0.312744141,-0.269878472,1,0,0,,0,137,137,402,1,
,,,,,,,,,,,,,,,,,,5cedb6b3dfb27200199626a0,2020-08-10_18h09.25.097,lexical_decision_task_MP,2020.1.3,Linux armv8l,60,,0,-0.302490234,-0.342578125,1,0,0,0.4954,button_left,0.4954,1,,,,,,333,NW,"ID",50,catrie,CATRIE,z,,,,,,-0.302490234,-0.342578125,1,0,0,,0,138,138,332,1,
,,,,,,,,,,,,,,,,,,5cedb6b3dfb27200199626a0,2020-08-10_18h09.25.097,lexical_decision_task_MP,2020.1.3,Linux armv8l,60,,0,-0.276123047,-0.360481771,1,0,0,0.5642,button_left,0.5642,1,,,,,,381,NW,UN,33,sarley,HUNIEK,z,,,,,,-0.276123047,-0.360481771,1,0,0,,0,139,139,380,1,
,,,,,,,,,,,,,,,,,,5cedb6b3dfb27200199626a0,2020-08-10_18h09.25.097,lexical_decision_task_MP,2020.1.3,Linux armv8l,60,,0,-0.296630859,-0.305143229,1,0,0,0.4963,button_left,0.4963,1,,,,,,411,NW,UN,33,jiluer,ORCHIN,z,,,,,,-0.296630859,-0.305143229,1,0,0,,0,140,140,410,1,
,,,,,,,,,,,,,,,,,,5cedb6b3dfb27200199626a0,2020-08-10_18h09.25.097,lexical_decision_task_MP,2020.1.3,Linux armv8l,60,,0,-0.322509766,-0.307313368,1,0,0,0.6317,button_left,0.6317,1,,,,,,455,NW,UN,50,broget,TONDLE,z,,,,,,-0.322509766,-0.307313368,1,0,0,,0,141,141,454,1,
,,,,,,,,,,,,,,,,,,5cedb6b3dfb27200199626a0,2020-08-10_18h09.25.097,lexical_decision_task_MP,2020.1.3,Linux armv8l,60,,0,-0.322998047,-0.269335938,1,0,0,0.4797,button_left,0.4797,0,,,,,,122,WORD,UN,33,strike,LINGER,m,,,,,,-0.322998047,-0.269335938,1,0,0,,0,142,142,121,1,
,,,,,,,,,,,,,,,,,,5cedb6b3dfb27200199626a0,2020-08-10_18h09.25.097,lexical_decision_task_MP,2020.1.3,Linux armv8l,60,,0,-0.315185547,-0.308398438,1,0,0,0.5462,button_left,0.5462,1,,,,,,378,NW,UN,33,auting,SHRILE,z,,,,,,-0.315185547,-0.308398438,1,0,0,,0,143,143,377,1,
,,,,,,,,,,,,,,,,,,5cedb6b3dfb27200199626a0,2020-08-10_18h09.25.097,lexical_decision_task_MP,2020.1.3,Linux armv8l,60,,0,0.312988281,-0.345290799,1,0,0,0.6956,button_right,0.6956,1,,,,,,194,WORD,UN,50,resign,ABSENT,m,,,,,,0.312988281,-0.345290799,1,0,0,,0,144,144,193,1,
,,,,,,,,,,,,,,,,,,5cedb6b3dfb27200199626a0,2020-08-10_18h09.25.097,lexical_decision_task_MP,2020.1.3,Linux armv8l,60,,0,-0.387451172,-0.315451389,1,0,0,0.5418,button_left,0.5418,1,,,,,,435,NW,UN,50,frutan,IMPURB,z,,,,,,-0.387451172,-0.315451389,1,0,0,,0,145,145,434,1,
,,,,,,,,,,,,,,,,,,5cedb6b3dfb27200199626a0,2020-08-10_18h09.25.097,lexical_decision_task_MP,2020.1.3,Linux armv8l,60,,0,0.357666016,-0.362109375,1,0,0,0.6135,button_right,0.6135,1,,,,,,235,WORD,UN,50,pirate,GRUMPY,m,,,,,,0.357666016,-0.362109375,1,0,0,,0,146,146,234,1,
,,,,,,,,,,,,,,,,,,5cedb6b3dfb27200199626a0,2020-08-10_18h09.25.097,lexical_decision_task_MP,2020.1.3,Linux armv8l,60,,0,0.360351563,-0.307855903,1,0,0,0.6143,button_right,0.6143,1,,,,,,128,WORD,UN,33,marvel,SENIOR,m,,,,,,0.360351563,-0.307855903,1,0,0,,0,147,147,127,1,
,,,,,,,,,,,,,,,,,,5cedb6b3dfb27200199626a0,2020-08-10_18h09.25.097,lexical_decision_task_MP,2020.1.3,Linux armv8l,60,,0,0.320556641,-0.324131944,1,0,0,0.5279,button_right,0.5279,1,,,,,,68,WORD,"ID",50,fumble,FUMBLE,m,,,,,,0.320556641,-0.324131944,1,0,0,,0,148,148,67,1,
,,,,,,,,,,,,,,,,,,5cedb6b3dfb27200199626a0,2020-08-10_18h09.25.097,lexical_decision_task_MP,2020.1.3,Linux armv8l,60,,0,-0.322753906,-0.302430556,1,0,0,0.6645,button_left,0.6645,1,,,,,,363,NW,UN,33,impote,BREALI,z,,,,,,-0.322753906,-0.302430556,1,0,0,,0,149,149,362,1,
,,,,,,,,,,,,,,,,,,5cedb6b3dfb27200199626a0,2020-08-10_18h09.25.097,lexical_decision_task_MP,2020.1.3,Linux armv8l,60,,0,-0.280029297,-0.311111111,1,0,0,0.7084,button_left,0.7084,1,,,,,,330,NW,"ID",50,kensom,KENSOM,z,,,,,,-0.280029297,-0.311111111,1,0,0,,0,150,150,329,1,
,,,,,,,,,,,,,,,,,,5cedb6b3dfb27200199626a0,2020-08-10_18h09.25.097,lexical_decision_task_MP,2020.1.3,Linux armv8l,60,,0,-0.353027344,-0.294835069,1,0,0,0.5317,button_left,0.5317,1,,,,,,256,NW,"ID",33,inlors,INLORS,z,,,,,,-0.353027344,-0.294835069,1,0,0,,0,151,151,255,1,
,,,,,,,,,,,,,,,,,,5cedb6b3dfb27200199626a0,2020-08-10_18h09.25.097,lexical_decision_task_MP,2020.1.3,Linux armv8l,60,,0,-0.315429688,-0.314366319,1,0,0,0.4947,button_left,0.4947,1,,,,,,300,NW,"ID",33,yarion,YARION,z,,,,,,-0.315429688,-0.314366319,1,0,0,,0,152,152,299,1,
,,,,,,,,,,,,,,,,,,5cedb6b3dfb27200199626a0,2020-08-10_18h09.25.097,lexical_decision_task_MP,2020.1.3,Linux armv8l,60,,0,0.306640625,-0.318706597,1,0,0,0.6274,button_right,0.6274,1,,,,,,100,WORD,"ID",50,carbon,CARBON,m,,,,,,0.306640625,-0.318706597,1,0,0,,0,153,153,99,1,
,,,,,,,,,,,,,,,,,,5cedb6b3dfb27200199626a0,2020-08-10_18h09.25.097,lexical_decision_task_MP,2020.1.3,Linux armv8l,60,,0,0.328857422,-0.358311632,1,0,0,0.5282,button_right,0.5282,1,,,,,,140,WORD,UN,33,reason,PRINCE,m,,,,,,0.328857422,-0.358311632,1,0,0,,0,154,154,139,1,
,,,,,,,,,,,,,,,,,,5cedb6b3dfb27200199626a0,2020-08-10_18h09.25.097,lexical_decision_task_MP,2020.1.3,Linux armv8l,60,,0,0.341796875,-0.300260417,1,0,0,0.5608,button_right,0.5608,1,,,,,,110,WORD,"ID",50,polite,POLITE,m,,,,,,0.341796875,-0.300260417,1,0,0,,0,155,155,109,1,
,,,,,,,,,,,,,,,,,,5cedb6b3dfb27200199626a0,2020-08-10_18h09.25.097,lexical_decision_task_MP,2020.1.3,Linux armv8l,60,,0,-0.377929688,-0.307313368,1,0,0,0.6923,button_left,0.6923,1,,,,,,416,NW,UN,33,earoud,PATHEL,z,,,,,,-0.377929688,-0.307313368,1,0,0,,0,156,156,415,1,
,,,,,,,,,,,,,,,,,,5cedb6b3dfb27200199626a0,2020-08-10_18h09.25.097,lexical_decision_task_MP,2020.1.3,Linux armv8l,60,,0,-0.325683594,-0.319249132,1,0,0,0.5962,button_left,0.5962,1,,,,,,390,NW,UN,33,theldy,HATRUS,z,,,,,,-0.325683594,-0.319249132,1,0,0,,0,157,157,389,1,
,,,,,,,,,,,,,,,,,,5cedb6b3dfb27200199626a0,2020-08-10_18h09.25.097,lexical_decision_task_MP,2020.1.3,Linux armv8l,60,,0,-0.350341797,-0.30405816,1,0,0,0.5216,button_left,0.5216,1,,,,,,329,NW,"ID",50,yarike,YARIKE,z,,,,,,-0.350341797,-0.30405816,1,0,0,,0,158,158,328,1,
,,,,,,,,,,,,,,,,,,5cedb6b3dfb27200199626a0,2020-08-10_18h09.25.097,lexical_decision_task_MP,2020.1.3,Linux armv8l,60,,0,-0.325439453,-0.31328125,1,0,0,0.5635,button_left,0.5635,1,,,,,,406,NW,UN,33,suiver,NOUPLY,z,,,,,,-0.325439453,-0.31328125,1,0,0,,0,159,159,405,1,
,,,,,,,,,,,,,,,,,,5cedb6b3dfb27200199626a0,2020-08-10_18h09.25.097,lexical_decision_task_MP,2020.1.3,Linux armv8l,60,,0,-0.340332031,-0.320334201,1,0,0,0.5742,button_left,0.5742,1,,,,,,327,NW,"ID",50,plenac,PLENAC,z,,,,,,-0.340332031,-0.320334201,1,0,0,,0,160,160,326,1,
,,,,,,,,,,,,,,,,,,5cedb6b3dfb27200199626a0,2020-08-10_18h09.25.097,lexical_decision_task_MP,2020.1.3,Linux armv8l,60,,0,-0.362304688,-0.319249132,1,0,0,0.7174,button_left,0.7174,1,,,,,,478,NW,UN,50,lobush,ACRISE,z,,,,,,-0.362304688,-0.319249132,1,0,0,,0,161,161,477,1,
,,,,,,,,,,,,,,,,,,5cedb6b3dfb27200199626a0,2020-08-10_18h09.25.097,lexical_decision_task_MP,2020.1.3,Linux armv8l,60,,0,0.377197266,-0.34312066,1,0,0,0.6455,button_right,0.6455,1,,,,,,74,WORD,"ID",50,plaque,PLAQUE,m,,,,,,0.377197266,-0.34312066,1,0,0,,0,162,162,73,1,
,,,,,,,,,,,,,,,,,,5cedb6b3dfb27200199626a0,2020-08-10_18h09.25.097,lexical_decision_task_MP,2020.1.3,Linux armv8l,60,,0,0.337158203,-0.317078993,1,0,0,0.5143,button_right,0.5143,1,,,,,,111,WORD,"ID",50,induce,INDUCE,m,,,,,,0.337158203,-0.317078993,1,0,0,,0,163,163,110,1,
,,,,,,,,,,,,,,,,,,5cedb6b3dfb27200199626a0,2020-08-10_18h09.25.097,lexical_decision_task_MP,2020.1.3,Linux armv8l,60,,0,-0.338623047,-0.324131944,1,0,0,0.8961,button_left,0.8961,1,,,,,,413,NW,UN,33,serbol,EQUATS,z,,,,,,-0.338623047,-0.324131944,1,0,0,,0,164,164,412,1,
,,,,,,,,,,,,,,,,,,5cedb6b3dfb27200199626a0,2020-08-10_18h09.25.097,lexical_decision_task_MP,2020.1.3,Linux armv8l,60,,0,-0.348632813,-0.288324653,1,0,0,0.4964,button_left,0.4964,1,,,,,,351,NW,"ID",50,tiesch,TIESCH,z,,,,,,-0.348632813,-0.288324653,1,0,0,,0,165,165,350,1,
,,,,,,,,,,,,,,,,,,5cedb6b3dfb27200199626a0,2020-08-10_18h09.25.097,lexical_decision_task_MP,2020.1.3,Linux armv8l,60,,0,-0.341064453,-0.365907118,1,0,0,0.5793,button_left,0.5793,1,,,,,,419,NW,UN,33,gushop,SLOUNT,z,,,,,,-0.341064453,-0.365907118,1,0,0,,0,166,166,418,1,
,,,,,,,,,,,,,,,,,,5cedb6b3dfb27200199626a0,2020-08-10_18h09.25.097,lexical_decision_task_MP,2020.1.3,Linux armv8l,60,,0,0.329589844,-0.358311632,1,0,0,0.6106,button_right,0.6106,1,,,,,,109,WORD,"ID",50,wonder,WONDER,m,,,,,,0.329589844,-0.358311632,1,0,0,,0,167,167,108,1,
,,,,,,,,,,,,,,,,,,5cedb6b3dfb27200199626a0,2020-08-10_18h09.25.097,lexical_decision_task_MP,2020.1.3,Linux armv8l,60,,0,0.3203125,-0.34312066,1,0,0,0.662,button_right,0.662,1,,,,,,219,WORD,UN,50,voyage,BUCKET,m,,,,,,0.3203125,-0.34312066,1,0,0,,0,168,168,218,1,
,,,,,,,,,,,,,,,,,,5cedb6b3dfb27200199626a0,2020-08-10_18h09.25.097,lexical_decision_task_MP,2020.1.3,Linux armv8l,60,,0,-0.401123047,-0.324674479,1,0,0,0.5926,button_left,0.5926,1,,,,,,471,NW,UN,50,cigney,NOBEST,z,,,,,,-0.401123047,-0.324674479,1,0,0,,0,169,169,470,1,
,,,,,,,,,,,,,,,,,,5cedb6b3dfb27200199626a0,2020-08-10_18h09.25.097,lexical_decision_task_MP,2020.1.3,Linux armv8l,60,,0,0.2890625,-0.347460938,1,0,0,0.5789,button_right,0.5789,1,,,,,,105,WORD,"ID",50,number,NUMBER,m,,,,,,0.2890625,-0.347460938,1,0,0,,0,170,170,104,1,
,,,,,,,,,,,,,,,,,,5cedb6b3dfb27200199626a0,2020-08-10_18h09.25.097,lexical_decision_task_MP,2020.1.3,Linux armv8l,60,,0,-0.359375,-0.273133681,1,0,0,0.6124,button_left,0.6124,1,,,,,,276,NW,"ID",33,yarmon,YARMON,z,,,,,,-0.359375,-0.273133681,1,0,0,,0,171,171,275,1,
,,,,,,,,,,,,,,,,,,5cedb6b3dfb27200199626a0,2020-08-10_18h09.25.097,lexical_decision_task_MP,2020.1.3,Linux armv8l,60,,0,-0.332763672,-0.271506076,1,0,0,0.5636,button_left,0.5636,1,,,,,,373,NW,UN,33,injore,BIGENT,z,,,,,,-0.332763672,-0.271506076,1,0,0,,0,172,172,372,1,
,,,,,,,,,,,,,,,,,,5cedb6b3dfb27200199626a0,2020-08-10_18h09.25.097,lexical_decision_task_MP,2020.1.3,Linux armv8l,60,,0,-0.3515625,-0.311111111,1,0,0,0.4915,button_left,0.4915,1,,,,,,334,NW,"ID",50,watmeg,WATMEG,z,,,,,,-0.3515625,-0.311111111,1,0,0,,0,173,173,333,1,
,,,,,,,,,,,,,,,,,,5cedb6b3dfb27200199626a0,2020-08-10_18h09.25.097,lexical_decision_task_MP,2020.1.3,Linux armv8l,60,,0,0.318847656,-0.290494792,1,0,0,0.7948,button_right,0.7948,1,,,,,,185,WORD,UN,50,portal,BOTHER,m,,,,,,0.318847656,-0.290494792,1,0,0,,0,174,174,184,1,
,,,,,,,,,,,,,,,,,,5cedb6b3dfb27200199626a0,2020-08-10_18h09.25.097,lexical_decision_task_MP,2020.1.3,Linux armv8l,60,,0,-0.383300781,-0.249804688,1,0,0,0.6111,button_left,0.6111,1,,,,,,402,NW,UN,33,bruats,SYNTIC,z,,,,,,-0.383300781,-0.249804688,1,0,0,,0,175,175,401,1,
,,,,,,,,,,,,,,,,,,5cedb6b3dfb27200199626a0,2020-08-10_18h09.25.097,lexical_decision_task_MP,2020.1.3,Linux armv8l,60,,0,-0.330566406,-0.298632813,1,0,0,0.514,button_left,0.514,1,,,,,,463,NW,UN,50,bafent,KISPEL,z,,,,,,-0.330566406,-0.298632813,1,0,0,,0,176,176,462,1,
,,,,,,,,,,,,,,,,,,5cedb6b3dfb27200199626a0,2020-08-10_18h09.25.097,lexical_decision_task_MP,2020.1.3,Linux armv8l,60,,0,0.280273438,-0.236783854,1,0,0,0.6041,button_right,0.6041,1,,,,,,76,WORD,"ID",50,exotic,EXOTIC,m,,,,,,0.280273438,-0.236783854,1,0,0,,0,177,177,75,1,
,,,,,,,,,,,,,,,,,,5cedb6b3dfb27200199626a0,2020-08-10_18h09.25.097,lexical_decision_task_MP,2020.1.3,Linux armv8l,60,,0,0.324951172,-0.304600694,1,0,0,0.4972,button_right,0.4972,1,,,,,,34,WORD,"ID",33,jungle,JUNGLE,m,,,,,,0.324951172,-0.304600694,1,0,0,,0,178,178,33,1,
,,,,,,,,,,,,,,,,,,5cedb6b3dfb27200199626a0,2020-08-10_18h09.25.097,lexical_decision_task_MP,2020.1.3,Linux armv8l,60,,0,-0.363769531,-0.313823785,1,0,0,0.6135,button_left,0.6135,1,,,,,,440,NW,UN,50,cainky,SARIDE,z,,,,,,-0.363769531,-0.313823785,1,0,0,,0,179,179,439,1,
,,,,,,,,,,,,,,,,,,5cedb6b3dfb27200199626a0,2020-08-10_18h09.25.097,lexical_decision_task_MP,2020.1.3,Linux armv8l,60,,0,-0.344970703,-0.329557292,1,0,0,0.447,button_left,0.447,1,,,,,,323,NW,"ID",50,rosail,ROSAIL,z,,,,,,-0.344970703,-0.329557292,1,0,0,,0,180,180,322,1,
,,,,,,,,,,,,,,,,,,5cedb6b3dfb27200199626a0,2020-08-10_18h09.25.097,lexical_decision_task_MP,2020.1.3,Linux armv8l,60,,0,-0.337158203,-0.314908854,1,0,0,0.596,button_left,0.596,1,,,,,,252,NW,"ID",33,stapod,STAPOD,z,,,,,,-0.337158203,-0.314908854,1,0,0,,0,181,181,251,1,
,,,,,,,,,,,,,,,,,,5cedb6b3dfb27200199626a0,2020-08-10_18h09.25.097,lexical_decision_task_MP,2020.1.3,Linux armv8l,60,,0,-0.314941406,-0.324674479,1,0,0,0.4985,button_left,0.4985,1,,,,,,282,NW,"ID",33,porlex,PORLEX,z,,,,,,-0.314941406,-0.324674479,1,0,0,,0,182,182,281,1,
,,,,,,,,,,,,,,,,,,5cedb6b3dfb27200199626a0,2020-08-10_18h09.25.097,lexical_decision_task_MP,2020.1.3,Linux armv8l,60,,0,0.291503906,-0.313823785,1,0,0,0.6293,button_right,0.6293,1,,,,,,88,WORD,"ID",50,hunger,HUNGER,m,,,,,,0.291503906,-0.313823785,1,0,0,,0,183,183,87,1,
,,,,,,,,,,,,,,,,,,5cedb6b3dfb27200199626a0,2020-08-10_18h09.25.097,lexical_decision_task_MP,2020.1.3,Linux armv8l,60,,0,-0.395019531,-0.281814236,1,0,0,0.5967,button_left,0.5967,1,,,,,,474,NW,UN,50,gorbie,HABLIN,z,,,,,,-0.395019531,-0.281814236,1,0,0,,0,184,184,473,1,
,,,,,,,,,,,,,,,,,,5cedb6b3dfb27200199626a0,2020-08-10_18h09.25.097,lexical_decision_task_MP,2020.1.3,Linux armv8l,60,,0,0.306640625,-0.287782118,1,0,0,0.6292,button_right,0.6292,1,,,,,,82,WORD,"ID",50,stigma,STIGMA,m,,,,,,0.306640625,-0.287782118,1,0,0,,0,185,185,81,1,
,,,,,,,,,,,,,,,,,,5cedb6b3dfb27200199626a0,2020-08-10_18h09.25.097,lexical_decision_task_MP,2020.1.3,Linux armv8l,60,,0,-0.329101563,-0.291579861,1,0,0,0.693,button_left,0.693,1,,,,,,269,NW,"ID",33,orchet,ORCHET,z,,,,,,-0.329101563,-0.291579861,1,0,0,,0,186,186,268,1,
,,,,,,,,,,,,,,,,,,5cedb6b3dfb27200199626a0,2020-08-10_18h09.25.097,lexical_decision_task_MP,2020.1.3,Linux armv8l,60,,0,0.334716797,-0.312738715,1,0,0,0.8774,button_right,0.8774,1,,,,,,184,WORD,UN,50,bother,SLEAZY,m,,,,,,0.334716797,-0.312738715,1,0,0,,0,187,187,183,1,
,,,,,,,,,,,,,,,,,,5cedb6b3dfb27200199626a0,2020-08-10_18h09.25.097,lexical_decision_task_MP,2020.1.3,Linux armv8l,60,,0,-0.327148438,-0.295377604,1,0,0,0.6601,button_left,0.6601,1,,,,,,355,NW,"ID",50,zingly,ZINGLY,z,,,,,,-0.327148438,-0.295377604,1,0,0,,0,188,188,354,1,
,,,,,,,,,,,,,,,,,,5cedb6b3dfb27200199626a0,2020-08-10_18h09.25.097,lexical_decision_task_MP,2020.1.3,Linux armv8l,60,,0,-0.322509766,-0.291037326,1,0,0,0.5962,button_left,0.5962,1,,,,,,477,NW,UN,50,acrise,PHOTIE,z,,,,,,-0.322509766,-0.291037326,1,0,0,,0,189,189,476,1,
,,,,,,,,,,,,,,,,,,5cedb6b3dfb27200199626a0,2020-08-10_18h09.25.097,lexical_decision_task_MP,2020.1.3,Linux armv8l,60,,0,0.304199219,-0.316536458,1,0,0,0.7974,button_right,0.7974,1,,,,,,75,WORD,"ID",50,trophy,TROPHY,m,,,,,,0.304199219,-0.316536458,1,0,0,,0,190,190,74,1,
,,,,,,,,,,,,,,,,,,5cedb6b3dfb27200199626a0,2020-08-10_18h09.25.097,lexical_decision_task_MP,2020.1.3,Linux armv8l,60,,0,-0.370117188,-0.311111111,1,0,0,0.5768,button_left,0.5768,1,,,,,,420,NW,UN,33,pauche,GUSHOP,z,,,,,,-0.370117188,-0.311111111,1,0,0,,0,191,191,419,1,
,,,,,,,,,,,,,,,,,,5cedb6b3dfb27200199626a0,2020-08-10_18h09.25.097,lexical_decision_task_MP,2020.1.3,Linux armv8l,60,,0,-0.341308594,-0.317078993,1,0,0,0.6289,button_left,0.6289,1,,,,,,412,NW,UN,33,equats,JILUER,z,,,,,,-0.341308594,-0.317078993,1,0,0,,0,192,192,411,1,
,,,,,,,,,,,,,,,,,,5cedb6b3dfb27200199626a0,2020-08-10_18h09.25.097,lexical_decision_task_MP,2020.1.3,Linux armv8l,60,,0,-0.34765625,-0.288324653,1,0,0,0.5292,button_left,0.5292,1,,,,,,312,NW,"ID",50,nerawl,NERAWL,z,,,,,,-0.34765625,-0.288324653,1,0,0,,0,193,193,311,1,
,,,,,,,,,,,,,,,,,,5cedb6b3dfb27200199626a0,2020-08-10_18h09.25.097,lexical_decision_task_MP,2020.1.3,Linux armv8l,60,,0,-0.347900391,-0.30297309,1,0,0,0.524,button_left,0.524,1,,,,,,348,NW,"ID",50,dumple,DUMPLE,z,,,,,,-0.347900391,-0.30297309,1,0,0,,0,194,194,347,1,
,,,,,,,,,,,,,,,,,,5cedb6b3dfb27200199626a0,2020-08-10_18h09.25.097,lexical_decision_task_MP,2020.1.3,Linux armv8l,60,,0,-0.235351563,-0.295377604,1,0,0,0.5564,button_left,0.5564,1,,,,,,260,NW,"ID",33,unject,UNJECT,z,,,,,,-0.235351563,-0.295377604,1,0,0,,0,195,195,259,1,
,,,,,,,,,,,,,,,,,,5cedb6b3dfb27200199626a0,2020-08-10_18h09.25.097,lexical_decision_task_MP,2020.1.3,Linux armv8l,60,,0,-0.334960938,-0.280729167,1,0,0,0.5613,button_left,0.5613,1,,,,,,434,NW,UN,50,impurb,PITROM,z,,,,,,-0.334960938,-0.280729167,1,0,0,,0,196,196,433,1,
,,,,,,,,,,,,,,,,,,5cedb6b3dfb27200199626a0,2020-08-10_18h09.25.097,lexical_decision_task_MP,2020.1.3,Linux armv8l,60,,0,0.367919922,-0.244921875,1,0,0,0.5752,button_right,0.5752,1,,,,,,11,WORD,"ID",33,cruise,CRUISE,m,,,,,,0.367919922,-0.244921875,1,0,0,,0,197,197,10,1,
,,,,,,,,,,,,,,,,,,5cedb6b3dfb27200199626a0,2020-08-10_18h09.25.097,lexical_decision_task_MP,2020.1.3,Linux armv8l,60,,0,0.37890625,-0.287239583,1,0,0,0.6458,button_right,0.6458,1,,,,,,198,WORD,UN,50,invoke,WICKED,m,,,,,,0.37890625,-0.287239583,1,0,0,,0,198,198,197,1,
,,,,,,,,,,,,,,,,,,5cedb6b3dfb27200199626a0,2020-08-10_18h09.25.097,lexical_decision_task_MP,2020.1.3,Linux armv8l,60,,0,-0.3515625,-0.318164063,1,0,0,0.7136,button_left,0.7136,1,,,,,,407,NW,UN,33,hurnia,SUIVER,z,,,,,,-0.3515625,-0.318164063,1,0,0,,0,199,199,406,1,
,,,,,,,,,,,,,,,,,,5cedb6b3dfb27200199626a0,2020-08-10_18h09.25.097,lexical_decision_task_MP,2020.1.3,Linux armv8l,60,,0,0.350830078,-0.317078993,1,0,0,0.6448,button_right,0.6448,1,,,,,,89,WORD,"ID",50,permit,PERMIT,m,,,,,,0.350830078,-0.317078993,1,0,0,,0,200,200,88,1,
,,,,,,,,,,,,,,,,,,5cedb6b3dfb27200199626a0,2020-08-10_18h09.25.097,lexical_decision_task_MP,2020.1.3,Linux armv8l,60,,0,-0.369384766,-0.253602431,1,0,0,0.5792,button_left,0.5792,1,,,,,,447,NW,UN,50,sadent,GIRCUE,z,,,,,,-0.369384766,-0.253602431,1,0,0,,0,201,201,446,1,
,,,,,,,,,,,,,,,,,,5cedb6b3dfb27200199626a0,2020-08-10_18h09.25.097,lexical_decision_task_MP,2020.1.3,Linux armv8l,60,,0,0.347412109,-0.339865451,1,0,0,0.6435,button_right,0.6435,1,,,,,,154,WORD,UN,33,lizard,AUTHOR,m,,,,,,0.347412109,-0.339865451,1,0,0,,0,202,202,153,1,
,,,,,,,,,,,,,,,,,,5cedb6b3dfb27200199626a0,2020-08-10_18h09.25.097,lexical_decision_task_MP,2020.1.3,Linux armv8l,60,,0,-0.265136719,-0.298632813,1,0,0,0.6243,button_left,0.6243,1,,,,,,318,NW,"ID",50,reagly,REAGLY,z,,,,,,-0.265136719,-0.298632813,1,0,0,,0,203,203,317,1,
,,,,,,,,,,,,,,,,,,5cedb6b3dfb27200199626a0,2020-08-10_18h09.25.097,lexical_decision_task_MP,2020.1.3,Linux armv8l,60,,0,0.355712891,-0.300802951,1,0,0,0.5461,button_right,0.5461,1,,,,,,70,WORD,"ID",50,square,SQUARE,m,,,,,,0.355712891,-0.300802951,1,0,0,,0,204,204,69,1,
,,,,,,,,,,,,,,,,,,5cedb6b3dfb27200199626a0,2020-08-10_18h09.25.097,lexical_decision_task_MP,2020.1.3,Linux armv8l,60,,0,0.352294922,-0.328472222,1,0,0,0.6908,button_right,0.6908,1,,,,,,86,WORD,"ID",50,rodent,RODENT,m,,,,,,0.352294922,-0.328472222,1,0,0,,0,205,205,85,1,
,,,,,,,,,,,,,,,,,,5cedb6b3dfb27200199626a0,2020-08-10_18h09.25.097,lexical_decision_task_MP,2020.1.3,Linux armv8l,60,,0,0.348388672,-0.325759549,1,0,0,0.5942,button_right,0.5942,1,,,,,,71,WORD,"ID",50,garden,GARDEN,m,,,,,,0.348388672,-0.325759549,1,0,0,,0,206,206,70,1,
,,,,,,,,,,,,,,,,,,5cedb6b3dfb27200199626a0,2020-08-10_18h09.25.097,lexical_decision_task_MP,2020.1.3,Linux armv8l,60,,0,-0.3359375,-0.256315104,1,0,0,0.6779,button_left,0.6779,1,,,,,,322,NW,"ID",50,slanch,SLANCH,z,,,,,,-0.3359375,-0.256315104,1,0,0,,0,207,207,321,1,
,,,,,,,,,,,,,,,,,,5cedb6b3dfb27200199626a0,2020-08-10_18h09.25.097,lexical_decision_task_MP,2020.1.3,Linux armv8l,60,,0,0.373779297,-0.355598958,1,0,0,0.7285,button_right,0.7285,1,,,,,,203,WORD,UN,50,burden,PHRASE,m,,,,,,0.373779297,-0.355598958,1,0,0,,0,208,208,202,1,
,,,,,,,,,,,,,,,,,,5cedb6b3dfb27200199626a0,2020-08-10_18h09.25.097,lexical_decision_task_MP,2020.1.3,Linux armv8l,60,,0,-0.322021484,-0.259027778,1,0,0,0.5939,button_left,0.5939,1,,,,,,448,NW,UN,50,brunge,SADENT,z,,,,,,-0.322021484,-0.259027778,1,0,0,,0,209,209,447,1,
,,,,,,,,,,,,,,,,,,5cedb6b3dfb27200199626a0,2020-08-10_18h09.25.097,lexical_decision_task_MP,2020.1.3,Linux armv8l,60,,0,0.375732422,-0.326302083,1,0,0,0.6796,button_right,0.6796,1,,,,,,157,WORD,UN,33,island,DRAGON,m,,,,,,0.375732422,-0.326302083,1,0,0,,0,210,210,156,1,
,,,,,,,,,,,,,,,,,,5cedb6b3dfb27200199626a0,2020-08-10_18h09.25.097,lexical_decision_task_MP,2020.1.3,Linux armv8l,60,,0,0.389404297,-0.35234375,1,0,0,0.7805,button_right,0.7805,1,,,,,,127,WORD,UN,33,senior,CASTLE,m,,,,,,0.389404297,-0.35234375,1,0,0,,0,211,211,126,1,
,,,,,,,,,,,,,,,,,,5cedb6b3dfb27200199626a0,2020-08-10_18h09.25.097,lexical_decision_task_MP,2020.1.3,Linux armv8l,60,,0,-0.298828125,-0.257400174,1,0,0,0.6931,button_left,0.6931,1,,,,,,449,NW,UN,50,phrect,BRUNGE,z,,,,,,-0.298828125,-0.257400174,1,0,0,,0,212,212,448,1,
,,,,,,,,,,,,,,,,,,5cedb6b3dfb27200199626a0,2020-08-10_18h09.25.097,lexical_decision_task_MP,2020.1.3,Linux armv8l,60,,0,-0.390625,-0.328472222,1,0,0,0.6459,button_left,0.6459,1,,,,,,280,NW,"ID",33,curbol,CURBOL,z,,,,,,-0.390625,-0.328472222,1,0,0,,0,213,213,279,1,
,,,,,,,,,,,,,,,,,,5cedb6b3dfb27200199626a0,2020-08-10_18h09.25.097,lexical_decision_task_MP,2020.1.3,Linux armv8l,60,,0,0.324951172,-0.306770833,1,0,0,0.6132,button_right,0.6132,1,,,,,,168,WORD,UN,33,genius,ANSWER,m,,,,,,0.324951172,-0.306770833,1,0,0,,0,214,214,167,1,
,,,,,,,,,,,,,,,,,,5cedb6b3dfb27200199626a0,2020-08-10_18h09.25.097,lexical_decision_task_MP,2020.1.3,Linux armv8l,60,,0,-0.327636719,-0.298632813,1,0,0,0.6663,button_left,0.6663,1,,,,,,268,NW,"ID",33,packes,PACKES,z,,,,,,-0.327636719,-0.298632813,1,0,0,,0,215,215,267,1,
,,,,,,,,,,,,,,,,,,5cedb6b3dfb27200199626a0,2020-08-10_18h09.25.097,lexical_decision_task_MP,2020.1.3,Linux armv8l,60,,0,0.350830078,-0.300802951,1,0,0,0.8758,button_right,0.8758,1,,,,,,222,WORD,UN,50,casino,HINDER,m,,,,,,0.350830078,-0.300802951,1,0,0,,0,216,216,221,1,
,,,,,,,,,,,,,,,,,,5cedb6b3dfb27200199626a0,2020-08-10_18h09.25.097,lexical_decision_task_MP,2020.1.3,Linux armv8l,60,,0,-0.348632813,-0.325759549,1,0,0,0.6786,button_left,0.6786,1,,,,,,379,NW,UN,33,cavory,AUTING,z,,,,,,-0.348632813,-0.325759549,1,0,0,,0,217,217,378,1,
,,,,,,,,,,,,,,,,,,5cedb6b3dfb27200199626a0,2020-08-10_18h09.25.097,lexical_decision_task_MP,2020.1.3,Linux armv8l,60,,0,-0.322998047,-0.333355035,1,0,0,0.6994,button_left,0.6994,1,,,,,,293,NW,"ID",33,swance,SWANCE,z,,,,,,-0.322998047,-0.333355035,1,0,0,,0,218,218,292,1,
,,,,,,,,,,,,,,,,,,5cedb6b3dfb27200199626a0,2020-08-10_18h09.25.097,lexical_decision_task_MP,2020.1.3,Linux armv8l,60,,0,-0.365722656,-0.324131944,1,0,0,0.613,button_left,0.613,1,,,,,,244,NW,"ID",33,eatric,EATRIC,z,,,,,,-0.365722656,-0.324131944,1,0,0,,0,219,219,243,1,
,,,,,,,,,,,,,,,,,,5cedb6b3dfb27200199626a0,2020-08-10_18h09.25.097,lexical_decision_task_MP,2020.1.3,Linux armv8l,60,,0,0.371582031,-0.356684028,1,0,0,0.5963,button_right,0.5963,1,,,,,,53,WORD,"ID",33,police,POLICE,m,,,,,,0.371582031,-0.356684028,1,0,0,,0,220,220,52,1,
,,,,,,,,,,,,,,,,,,5cedb6b3dfb27200199626a0,2020-08-10_18h09.25.097,lexical_decision_task_MP,2020.1.3,Linux armv8l,60,,0,-0.34375,-0.275303819,1,0,0,0.6461,button_left,0.6461,1,,,,,,444,NW,UN,50,minkel,JAUNCE,z,,,,,,-0.34375,-0.275303819,1,0,0,,0,221,221,443,1,
,,,,,,,,,,,,,,,,,,5cedb6b3dfb27200199626a0,2020-08-10_18h09.25.097,lexical_decision_task_MP,2020.1.3,Linux armv8l,60,,0,0.367919922,-0.318164063,1,0,0,0.6958,button_right,0.6958,1,,,,,,48,WORD,"ID",33,walnut,WALNUT,m,,,,,,0.367919922,-0.318164063,1,0,0,,0,222,222,47,1,
,,,,,,,,,,,,,,,,,,5cedb6b3dfb27200199626a0,2020-08-10_18h09.25.097,lexical_decision_task_MP,2020.1.3,Linux armv8l,60,,0,0.356445313,-0.256315104,1,0,0,0.6478,button_right,0.6478,1,,,,,,238,WORD,UN,50,grumpy,FLOWER,m,,,,,,0.356445313,-0.256315104,1,0,0,,0,223,223,237,1,
,,,,,,,,,,,,,,,,,,5cedb6b3dfb27200199626a0,2020-08-10_18h09.25.097,lexical_decision_task_MP,2020.1.3,Linux armv8l,60,,0,0.334472656,-0.249262153,1,0,0,0.7834,button_right,0.7834,1,,,,,,133,WORD,UN,33,debris,CHROME,m,,,,,,0.334472656,-0.249262153,1,0,0,,0,224,224,132,1,
,,,,,,,,,,,,,,,,,,5cedb6b3dfb27200199626a0,2020-08-10_18h09.25.097,lexical_decision_task_MP,2020.1.3,Linux armv8l,60,,0,-0.354736328,-0.294835069,1,0,0,0.6095,button_left,0.6095,1,,,,,,441,NW,UN,50,aboune,RASTOE,z,,,,,,-0.354736328,-0.294835069,1,0,0,,0,225,225,440,1,
,,,,,,,,,,,,,,,,,,5cedb6b3dfb27200199626a0,2020-08-10_18h09.25.097,lexical_decision_task_MP,2020.1.3,Linux armv8l,60,,0,0.352050781,-0.29375,1,0,0,0.7093,button_right,0.7093,1,,,,,,199,WORD,UN,50,beacon,INVOKE,m,,,,,,0.352050781,-0.29375,1,0,0,,0,226,226,198,1,
,,,,,,,,,,,,,,,,,,5cedb6b3dfb27200199626a0,2020-08-10_18h09.25.097,lexical_decision_task_MP,2020.1.3,Linux armv8l,60,,0,-0.33984375,-0.26499566,1,0,0,0.6777,button_left,0.6777,1,,,,,,427,NW,UN,50,tandly,SCHIND,z,,,,,,-0.33984375,-0.26499566,1,0,0,,0,227,227,426,1,
,,,,,,,,,,,,,,,,,,5cedb6b3dfb27200199626a0,2020-08-10_18h09.25.097,lexical_decision_task_MP,2020.1.3,Linux armv8l,60,,0,-0.322753906,-0.260112847,1,0,0,0.5462,button_left,0.5462,1,,,,,,277,NW,"ID",33,petain,PETAIN,z,,,,,,-0.322753906,-0.260112847,1,0,0,,0,228,228,276,1,
,,,,,,,,,,,,,,,,,,5cedb6b3dfb27200199626a0,2020-08-10_18h09.25.097,lexical_decision_task_MP,2020.1.3,Linux armv8l,60,,0,0.332519531,-0.315993924,1,0,0,0.6797,button_right,0.6797,1,,,,,,143,WORD,UN,33,sponge,REASON,m,,,,,,0.332519531,-0.315993924,1,0,0,,0,229,229,142,1,
,,,,,,,,,,,,,,,,,,5cedb6b3dfb27200199626a0,2020-08-10_18h09.25.097,lexical_decision_task_MP,2020.1.3,Linux armv8l,60,,0,0.32421875,-0.30297309,1,0,0,0.5758,button_right,0.5758,1,,,,,,209,WORD,UN,50,monkey,SEARCH,m,,,,,,0.32421875,-0.30297309,1,0,0,,0,230,230,208,1,
,,,,,,,,,,,,,,,,,,5cedb6b3dfb27200199626a0,2020-08-10_18h09.25.097,lexical_decision_task_MP,2020.1.3,Linux armv8l,60,,0,-0.389404297,-0.310026042,1,0,0,0.6451,button_left,0.6451,1,,,,,,401,NW,UN,33,elopia,MUSTIL,z,,,,,,-0.389404297,-0.310026042,1,0,0,,0,231,231,400,1,
,,,,,,,,,,,,,,,,,,5cedb6b3dfb27200199626a0,2020-08-10_18h09.25.097,lexical_decision_task_MP,2020.1.3,Linux armv8l,60,,0,-0.357177734,-0.293207465,1,0,0,0.5479,button_left,0.5479,1,,,,,,343,NW,"ID",50,aimosy,AIMOSY,z,,,,,,-0.357177734,-0.293207465,1,0,0,,0,232,232,342,1,
,,,,,,,,,,,,,,,,,,5cedb6b3dfb27200199626a0,2020-08-10_18h09.25.097,lexical_decision_task_MP,2020.1.3,Linux armv8l,60,,0,-0.345458984,-0.297005208,1,0,0,0.5487,button_left,0.5487,1,,,,,,397,NW,UN,33,blunde,CAMBLE,z,,,,,,-0.345458984,-0.297005208,1,0,0,,0,233,233,396,1,
,,,,,,,,,,,,,,,,,,5cedb6b3dfb27200199626a0,2020-08-10_18h09.25.097,lexical_decision_task_MP,2020.1.3,Linux armv8l,60,,0,0.352783203,-0.288324653,1,0,0,0.6439,button_right,0.6439,1,,,,,,190,WORD,UN,50,stable,BACKUP,m,,,,,,0.352783203,-0.288324653,1,0,0,,0,234,234,189,1,
,,,,,,,,,,,,,,,,,,5cedb6b3dfb27200199626a0,2020-08-10_18h09.25.097,lexical_decision_task_MP,2020.1.3,Linux armv8l,60,,0,0.357910156,-0.330642361,1,0,0,0.5606,button_right,0.5606,1,,,,,,64,WORD,"ID",50,throne,THRONE,m,,,,,,0.357910156,-0.330642361,1,0,0,,0,235,235,63,1,
,,,,,,,,,,,,,,,,,,5cedb6b3dfb27200199626a0,2020-08-10_18h09.25.097,lexical_decision_task_MP,2020.1.3,Linux armv8l,60,,0,0.37109375,-0.346918403,1,0,0,0.5629,button_right,0.5629,0,,,,,,433,NW,UN,50,pitrom,DRANCE,z,,,,,,0.37109375,-0.346918403,1,0,0,,0,236,236,432,1,
,,,,,,,,,,,,,,,,,,5cedb6b3dfb27200199626a0,2020-08-10_18h09.25.097,lexical_decision_task_MP,2020.1.3,Linux armv8l,60,,0,0.289306641,-0.314366319,1,0,0,0.728,button_right,0.728,1,,,,,,141,WORD,UN,33,spruce,ORPHAN,m,,,,,,0.289306641,-0.314366319,1,0,0,,0,237,237,140,1,
,,,,,,,,,,,,,,,,,,5cedb6b3dfb27200199626a0,2020-08-10_18h09.25.097,lexical_decision_task_MP,2020.1.3,Linux armv8l,60,,0,0.329345703,-0.324674479,1,0,0,0.8408,button_right,0.8408,1,,,,,,120,WORD,"ID",50,strain,STRAIN,m,,,,,,0.329345703,-0.324674479,1,0,0,,0,238,238,119,1,
,,,,,,,,,,,,,,,,,,5cedb6b3dfb27200199626a0,2020-08-10_18h09.25.097,lexical_decision_task_MP,2020.1.3,Linux armv8l,60,,0,-0.359863281,-0.290494792,1,0,0,0.6265,button_left,0.6265,1,,,,,,249,NW,"ID",33,batrol,BATROL,z,,,,,,-0.359863281,-0.290494792,1,0,0,,0,239,239,248,1,
,,,,,,,,,,,,,,,,,,5cedb6b3dfb27200199626a0,2020-08-10_18h09.25.097,lexical_decision_task_MP,2020.1.3,Linux armv8l,60,,0,0.292236328,-0.300802951,1,0,0,0.6801,button_right,0.6801,1,,,,,,188,WORD,UN,50,censor,SOCIAL,m,,,,,,0.292236328,-0.300802951,1,0,0,,0,240,240,187,1,
,,,,,,,,,,,,,,,,,,5cedb6b3dfb27200199626a0,2020-08-10_18h09.25.097,lexical_decision_task_MP,2020.1.3,Linux armv8l,60,,0,0.338378906,-0.317621528,1,0,0,0.7097,button_right,0.7097,1,,,,,,228,WORD,UN,50,inject,MASTER,m,,,,,,0.051269531,-0.350173611,1,0,0,,0,241,241,227,1,break_done_button
,,,,,,,,,,,,,,,,,,5cedb6b3dfb27200199626a0,2020-08-10_18h09.25.097,lexical_decision_task_MP,2020.1.3,Linux armv8l,60,,0,0.308837891,-0.330099826,1,0,0,0.6637,button_right,0.6637,1,,,,,,218,WORD,UN,50,bucket,SHRINK,m,,,,,,0.308837891,-0.330099826,1,0,0,,0,242,242,217,1,
,,,,,,,,,,,,,,,,,,5cedb6b3dfb27200199626a0,2020-08-10_18h09.25.097,lexical_decision_task_MP,2020.1.3,Linux armv8l,60,,0,-0.318359375,-0.356141493,1,0,0,0.5951,button_left,0.5951,1,,,,,,326,NW,"ID",50,iguade,IGUADE,z,,,,,,-0.318359375,-0.356141493,1,0,0,,0,243,243,325,1,
,,,,,,,,,,,,,,,,,,5cedb6b3dfb27200199626a0,2020-08-10_18h09.25.097,lexical_decision_task_MP,2020.1.3,Linux armv8l,60,,0,0.278320313,-0.370789931,1,0,0,0.63,button_right,0.63,0,,,,,,345,NW,"ID",50,absend,ABSEND,z,,,,,,0.278320313,-0.370789931,1,0,0,,0,244,244,344,1,
,,,,,,,,,,,,,,,,,,5cedb6b3dfb27200199626a0,2020-08-10_18h09.25.097,lexical_decision_task_MP,2020.1.3,Linux armv8l,60,,0,0.335449219,-0.357769097,1,0,0,0.6923,button_right,0.6923,1,,,,,,155,WORD,UN,33,cradle,LIZARD,m,,,,,,0.335449219,-0.357769097,1,0,0,,0,245,245,154,1,
,,,,,,,,,,,,,,,,,,5cedb6b3dfb27200199626a0,2020-08-10_18h09.25.097,lexical_decision_task_MP,2020.1.3,Linux armv8l,60,,0,-0.324462891,-0.267165799,1,0,0,0.6886,button_left,0.6886,1,,,,,,374,NW,UN,33,yorque,SLIANT,z,,,,,,-0.324462891,-0.267165799,1,0,0,,0,246,246,373,1,
,,,,,,,,,,,,,,,,,,5cedb6b3dfb27200199626a0,2020-08-10_18h09.25.097,lexical_decision_task_MP,2020.1.3,Linux armv8l,60,,0,-0.303222656,-0.300260417,1,0,0,0.5261,button_left,0.5261,1,,,,,,317,NW,"ID",50,worbal,WORBAL,z,,,,,,-0.303222656,-0.300260417,1,0,0,,0,247,247,316,1,
,,,,,,,,,,,,,,,,,,5cedb6b3dfb27200199626a0,2020-08-10_18h09.25.097,lexical_decision_task_MP,2020.1.3,Linux armv8l,60,,0,0.295898438,-0.310026042,1,0,0,0.6462,button_right,0.6462,1,,,,,,2,WORD,"ID",33,bridge,BRIDGE,m,,,,,,0.295898438,-0.310026042,1,0,0,,0,248,248,1,1,
,,,,,,,,,,,,,,,,,,5cedb6b3dfb27200199626a0,2020-08-10_18h09.25.097,lexical_decision_task_MP,2020.1.3,Linux armv8l,60,,0,-0.315673828,-0.351258681,1,0,0,0.5976,button_left,0.5976,1,,,,,,383,NW,UN,33,guesco,AUNGRE,z,,,,,,-0.315673828,-0.351258681,1,0,0,,0,249,249,382,1,
,,,,,,,,,,,,,,,,,,5cedb6b3dfb27200199626a0,2020-08-10_18h09.25.097,lexical_decision_task_MP,2020.1.3,Linux armv8l,60,,0,0.335693359,-0.338237847,1,0,0,0.6467,button_right,0.6467,1,,,,,,138,WORD,UN,33,staple,MELODY,m,,,,,,0.335693359,-0.338237847,1,0,0,,0,250,250,137,1,
,,,,,,,,,,,,,,,,,,5cedb6b3dfb27200199626a0,2020-08-10_18h09.25.097,lexical_decision_task_MP,2020.1.3,Linux armv8l,60,,0,-0.325195313,-0.337152778,1,0,0,0.5419,button_left,0.5419,1,,,,,,446,NW,UN,50,gircue,RUNAMO,z,,,,,,-0.325195313,-0.337152778,1,0,0,,0,251,251,445,1,
,,,,,,,,,,,,,,,,,,5cedb6b3dfb27200199626a0,2020-08-10_18h09.25.097,lexical_decision_task_MP,2020.1.3,Linux armv8l,60,,0,0.342773438,-0.325759549,1,0,0,0.7136,button_right,0.7136,1,,,,,,225,WORD,UN,50,kidney,VULGAR,m,,,,,,0.342773438,-0.325759549,1,0,0,,0,252,252,224,1,
,,,,,,,,,,,,,,,,,,5cedb6b3dfb27200199626a0,2020-08-10_18h09.25.097,lexical_decision_task_MP,2020.1.3,Linux armv8l,60,,0,0.367675781,-0.319249132,1,0,0,0.5627,button_right,0.5627,1,,,,,,93,WORD,"ID",50,public,PUBLIC,m,,,,,,0.367675781,-0.319249132,1,0,0,,0,253,253,92,1,
,,,,,,,,,,,,,,,,,,5cedb6b3dfb27200199626a0,2020-08-10_18h09.25.097,lexical_decision_task_MP,2020.1.3,Linux armv8l,60,,0,-0.330322266,-0.32250434,1,0,0,0.6124,button_left,0.6124,1,,,,,,371,NW,UN,33,ramily,GEILOY,z,,,,,,-0.330322266,-0.32250434,1,0,0,,0,254,254,370,1,
,,,,,,,,,,,,,,,,,,5cedb6b3dfb27200199626a0,2020-08-10_18h09.25.097,lexical_decision_task_MP,2020.1.3,Linux armv8l,60,,0,-0.329345703,-0.300802951,1,0,0,0.7292,button_left,0.7292,1,,,,,,364,NW,UN,33,guairt,IMPOTE,z,,,,,,-0.329345703,-0.300802951,1,0,0,,0,255,255,363,1,
,,,,,,,,,,,,,,,,,,5cedb6b3dfb27200199626a0,2020-08-10_18h09.25.097,lexical_decision_task_MP,2020.1.3,Linux armv8l,60,,0,0.344482422,-0.315451389,1,0,0,0.8616,button_right,0.8616,1,,,,,,129,WORD,UN,33,stupid,MARVEL,m,,,,,,0.344482422,-0.315451389,1,0,0,,0,256,256,128,1,
,,,,,,,,,,,,,,,,,,5cedb6b3dfb27200199626a0,2020-08-10_18h09.25.097,lexical_decision_task_MP,2020.1.3,Linux armv8l,60,,0,0.366943359,-0.310568576,1,0,0,0.6794,button_right,0.6794,1,,,,,,92,WORD,"ID",50,strand,STRAND,m,,,,,,0.366943359,-0.310568576,1,0,0,,0,257,257,91,1,
,,,,,,,,,,,,,,,,,,5cedb6b3dfb27200199626a0,2020-08-10_18h09.25.097,lexical_decision_task_MP,2020.1.3,Linux armv8l,60,,0,-0.320068359,-0.26499566,1,0,0,0.6461,button_left,0.6461,1,,,,,,338,NW,"ID",50,wreash,WREASH,z,,,,,,-0.320068359,-0.26499566,1,0,0,,0,258,258,337,1,
,,,,,,,,,,,,,,,,,,5cedb6b3dfb27200199626a0,2020-08-10_18h09.25.097,lexical_decision_task_MP,2020.1.3,Linux armv8l,60,,0,-0.337890625,-0.297005208,1,0,0,0.5651,button_left,0.5651,1,,,,,,262,NW,"ID",33,quilew,QUILEW,z,,,,,,-0.337890625,-0.297005208,1,0,0,,0,259,259,261,1,
,,,,,,,,,,,,,,,,,,5cedb6b3dfb27200199626a0,2020-08-10_18h09.25.097,lexical_decision_task_MP,2020.1.3,Linux armv8l,60,,0,0.30078125,-0.30297309,1,0,0,0.6462,button_right,0.6462,1,,,,,,149,WORD,UN,33,random,INVADE,m,,,,,,0.30078125,-0.30297309,1,0,0,,0,260,260,148,1,
,,,,,,,,,,,,,,,,,,5cedb6b3dfb27200199626a0,2020-08-10_18h09.25.097,lexical_decision_task_MP,2020.1.3,Linux armv8l,60,,0,0.291015625,-0.307855903,1,0,0,0.7462,button_right,0.7462,1,,,,,,220,WORD,UN,50,mascot,VOYAGE,m,,,,,,0.291015625,-0.307855903,1,0,0,,0,261,261,219,1,
,,,,,,,,,,,,,,,,,,5cedb6b3dfb27200199626a0,2020-08-10_18h09.25.097,lexical_decision_task_MP,2020.1.3,Linux armv8l,60,,0,0.331298828,-0.294292535,1,0,0,0.6586,button_right,0.6586,1,,,,,,208,WORD,UN,50,search,HOCKEY,m,,,,,,0.331298828,-0.294292535,1,0,0,,0,262,262,207,1,
,,,,,,,,,,,,,,,,,,5cedb6b3dfb27200199626a0,2020-08-10_18h09.25.097,lexical_decision_task_MP,2020.1.3,Linux armv8l,60,,0,-0.337890625,-0.331727431,1,0,0,0.646,button_left,0.646,1,,,,,,382,NW,UN,33,aungre,SARLEY,z,,,,,,-0.337890625,-0.331727431,1,0,0,,0,263,263,381,1,
,,,,,,,,,,,,,,,,,,5cedb6b3dfb27200199626a0,2020-08-10_18h09.25.097,lexical_decision_task_MP,2020.1.3,Linux armv8l,60,,0,0.334472656,-0.336610243,1,0,0,0.648,button_right,0.648,1,,,,,,233,WORD,UN,50,clumsy,NATURE,m,,,,,,0.334472656,-0.336610243,1,0,0,,0,264,264,232,1,
,,,,,,,,,,,,,,,,,,5cedb6b3dfb27200199626a0,2020-08-10_18h09.25.097,lexical_decision_task_MP,2020.1.3,Linux armv8l,60,,0,0.360595703,-0.34203559,1,0,0,0.5978,button_right,0.5978,1,,,,,,72,WORD,"ID",50,bright,BRIGHT,m,,,,,,0.360595703,-0.34203559,1,0,0,,0,265,265,71,1,
,,,,,,,,,,,,,,,,,,5cedb6b3dfb27200199626a0,2020-08-10_18h09.25.097,lexical_decision_task_MP,2020.1.3,Linux armv8l,60,,0,-0.358398438,-0.321961806,1,0,0,0.6254,button_left,0.6254,1,,,,,,428,NW,UN,50,chrums,TANDLY,z,,,,,,-0.358398438,-0.321961806,1,0,0,,0,266,266,427,1,
,,,,,,,,,,,,,,,,,,5cedb6b3dfb27200199626a0,2020-08-10_18h09.25.097,lexical_decision_task_MP,2020.1.3,Linux armv8l,60,,0,0.371826172,-0.333355035,1,0,0,0.5787,button_right,0.5787,1,,,,,,22,WORD,"ID",33,jockey,JOCKEY,m,,,,,,0.371826172,-0.333355035,1,0,0,,0,267,267,21,1,
,,,,,,,,,,,,,,,,,,5cedb6b3dfb27200199626a0,2020-08-10_18h09.25.097,lexical_decision_task_MP,2020.1.3,Linux armv8l,60,,0,0.350097656,-0.309483507,1,0,0,0.6207,button_right,0.6207,1,,,,,,13,WORD,"ID",33,strive,STRIVE,m,,,,,,0.350097656,-0.309483507,1,0,0,,0,268,268,12,1,
,,,,,,,,,,,,,,,,,,5cedb6b3dfb27200199626a0,2020-08-10_18h09.25.097,lexical_decision_task_MP,2020.1.3,Linux armv8l,60,,0,0.344970703,-0.311653646,1,0,0,0.6285,button_right,0.6285,1,,,,,,69,WORD,"ID",50,plenty,PLENTY,m,,,,,,0.344970703,-0.311653646,1,0,0,,0,269,269,68,1,
,,,,,,,,,,,,,,,,,,5cedb6b3dfb27200199626a0,2020-08-10_18h09.25.097,lexical_decision_task_MP,2020.1.3,Linux armv8l,60,,0,0.341064453,-0.271506076,1,0,0,0.6477,button_right,0.6477,1,,,,,,54,WORD,"ID",33,ramble,RAMBLE,m,,,,,,0.341064453,-0.271506076,1,0,0,,0,270,270,53,1,
,,,,,,,,,,,,,,,,,,5cedb6b3dfb27200199626a0,2020-08-10_18h09.25.097,lexical_decision_task_MP,2020.1.3,Linux armv8l,60,,0,0.343017578,-0.311653646,1,0,0,0.6948,button_right,0.6948,1,,,,,,148,WORD,UN,33,invade,CUSTOM,m,,,,,,0.343017578,-0.311653646,1,0,0,,0,271,271,147,1,
,,,,,,,,,,,,,,,,,,5cedb6b3dfb27200199626a0,2020-08-10_18h09.25.097,lexical_decision_task_MP,2020.1.3,Linux armv8l,60,,0,-0.363037109,-0.326302083,1,0,0,0.695,button_left,0.695,1,,,,,,306,NW,"ID",50,sounge,SOUNGE,z,,,,,,-0.363037109,-0.326302083,1,0,0,,0,272,272,305,1,
,,,,,,,,,,,,,,,,,,5cedb6b3dfb27200199626a0,2020-08-10_18h09.25.097,lexical_decision_task_MP,2020.1.3,Linux armv8l,60,,0,0.317871094,-0.355056424,1,0,0,0.6803,button_right,0.6803,1,,,,,,4,WORD,"ID",33,trench,TRENCH,m,,,,,,0.317871094,-0.355056424,1,0,0,,0,273,273,3,1,
,,,,,,,,,,,,,,,,,,5cedb6b3dfb27200199626a0,2020-08-10_18h09.25.097,lexical_decision_task_MP,2020.1.3,Linux armv8l,60,,0,0.298828125,-0.320876736,1,0,0,0.7136,button_right,0.7136,1,,,,,,90,WORD,"ID",50,relish,RELISH,m,,,,,,0.298828125,-0.320876736,1,0,0,,0,274,274,89,1,
,,,,,,,,,,,,,,,,,,5cedb6b3dfb27200199626a0,2020-08-10_18h09.25.097,lexical_decision_task_MP,2020.1.3,Linux armv8l,60,,0,-0.377929688,-0.297547743,1,0,0,0.6431,button_left,0.6431,1,,,,,,242,NW,"ID",33,unwert,UNWERT,z,,,,,,-0.377929688,-0.297547743,1,0,0,,0,275,275,241,1,
,,,,,,,,,,,,,,,,,,5cedb6b3dfb27200199626a0,2020-08-10_18h09.25.097,lexical_decision_task_MP,2020.1.3,Linux armv8l,60,,0,-0.301757813,-0.287239583,1,0,0,0.6299,button_left,0.6299,1,,,,,,387,NW,UN,33,cragin,GRONCE,z,,,,,,-0.301757813,-0.287239583,1,0,0,,0,276,276,386,1,
,,,,,,,,,,,,,,,,,,5cedb6b3dfb27200199626a0,2020-08-10_18h09.25.097,lexical_decision_task_MP,2020.1.3,Linux armv8l,60,,0,-0.354003906,-0.35234375,1,0,0,0.5465,button_left,0.5465,1,,,,,,468,NW,UN,50,padifs,WICTOR,z,,,,,,-0.354003906,-0.35234375,1,0,0,,0,277,277,467,1,
,,,,,,,,,,,,,,,,,,5cedb6b3dfb27200199626a0,2020-08-10_18h09.25.097,lexical_decision_task_MP,2020.1.3,Linux armv8l,60,,0,-0.307861328,-0.3328125,1,0,0,0.5967,button_left,0.5967,0,,,,,,160,WORD,UN,33,dragon,VIOLET,m,,,,,,-0.307861328,-0.3328125,1,0,0,,0,278,278,159,1,
,,,,,,,,,,,,,,,,,,5cedb6b3dfb27200199626a0,2020-08-10_18h09.25.097,lexical_decision_task_MP,2020.1.3,Linux armv8l,60,,0,-0.324462891,-0.330642361,1,0,0,0.4774,button_left,0.4774,1,,,,,,439,NW,UN,50,saride,LIMPOR,z,,,,,,-0.324462891,-0.330642361,1,0,0,,0,279,279,438,1,
,,,,,,,,,,,,,,,,,,5cedb6b3dfb27200199626a0,2020-08-10_18h09.25.097,lexical_decision_task_MP,2020.1.3,Linux armv8l,60,,0,0.293457031,-0.315993924,1,0,0,0.6628,button_right,0.6628,1,,,,,,123,WORD,UN,33,enough,STRIKE,m,,,,,,0.293457031,-0.315993924,1,0,0,,0,280,280,122,1,
,,,,,,,,,,,,,,,,,,5cedb6b3dfb27200199626a0,2020-08-10_18h09.25.097,lexical_decision_task_MP,2020.1.3,Linux armv8l,60,,0,0.321289063,-0.336067708,1,0,0,0.7123,button_right,0.7123,1,,,,,,170,WORD,UN,33,depart,POUNCE,m,,,,,,0.321289063,-0.336067708,1,0,0,,0,281,281,169,1,
,,,,,,,,,,,,,,,,,,5cedb6b3dfb27200199626a0,2020-08-10_18h09.25.097,lexical_decision_task_MP,2020.1.3,Linux armv8l,60,,0,-0.336669922,-0.317621528,1,0,0,0.6302,button_left,0.6302,1,,,,,,404,NW,UN,33,syntic,CLUIRM,z,,,,,,-0.336669922,-0.317621528,1,0,0,,0,282,282,403,1,
,,,,,,,,,,,,,,,,,,5cedb6b3dfb27200199626a0,2020-08-10_18h09.25.097,lexical_decision_task_MP,2020.1.3,Linux armv8l,60,,0,-0.319824219,-0.34312066,1,0,0,0.559,button_left,0.559,1,,,,,,324,NW,"ID",50,steikh,STEIKH,z,,,,,,-0.319824219,-0.34312066,1,0,0,,0,283,283,323,1,
,,,,,,,,,,,,,,,,,,5cedb6b3dfb27200199626a0,2020-08-10_18h09.25.097,lexical_decision_task_MP,2020.1.3,Linux armv8l,60,,0,-0.332519531,-0.373502604,1,0,0,0.5622,button_left,0.5622,1,,,,,,395,NW,UN,33,flengy,COLURY,z,,,,,,-0.332519531,-0.373502604,1,0,0,,0,284,284,394,1,
,,,,,,,,,,,,,,,,,,5cedb6b3dfb27200199626a0,2020-08-10_18h09.25.097,lexical_decision_task_MP,2020.1.3,Linux armv8l,60,,0,-0.312744141,-0.325759549,1,0,0,0.4634,button_left,0.4634,1,,,,,,264,NW,"ID",33,vackel,VACKEL,z,,,,,,-0.312744141,-0.325759549,1,0,0,,0,285,285,263,1,
,,,,,,,,,,,,,,,,,,5cedb6b3dfb27200199626a0,2020-08-10_18h09.25.097,lexical_decision_task_MP,2020.1.3,Linux armv8l,60,,0,-0.330810547,-0.278559028,1,0,0,0.4894,button_left,0.4894,1,,,,,,291,NW,"ID",33,pretch,PRETCH,z,,,,,,-0.330810547,-0.278559028,1,0,0,,0,286,286,290,1,
,,,,,,,,,,,,,,,,,,5cedb6b3dfb27200199626a0,2020-08-10_18h09.25.097,lexical_decision_task_MP,2020.1.3,Linux armv8l,60,,0,0.302001953,-0.278559028,1,0,0,0.5578,button_right,0.5578,1,,,,,,65,WORD,"ID",50,symbol,SYMBOL,m,,,,,,0.302001953,-0.278559028,1,0,0,,0,287,287,64,1,
,,,,,,,,,,,,,,,,,,5cedb6b3dfb27200199626a0,2020-08-10_18h09.25.097,lexical_decision_task_MP,2020.1.3,Linux armv8l,60,,0,0.311767578,-0.342578125,1,0,0,0.5301,button_right,0.5301,1,,,,,,23,WORD,"ID",33,wealth,WEALTH,m,,,,,,0.311767578,-0.342578125,1,0,0,,0,288,288,22,1,
,,,,,,,,,,,,,,,,,,5cedb6b3dfb27200199626a0,2020-08-10_18h09.25.097,lexical_decision_task_MP,2020.1.3,Linux armv8l,60,,0,-0.347412109,-0.318706597,1,0,0,0.7149,button_left,0.7149,1,,,,,,284,NW,"ID",33,shaple,SHAPLE,z,,,,,,-0.347412109,-0.318706597,1,0,0,,0,289,289,283,1,
,,,,,,,,,,,,,,,,,,5cedb6b3dfb27200199626a0,2020-08-10_18h09.25.097,lexical_decision_task_MP,2020.1.3,Linux armv8l,60,,0,-0.335205078,-0.346375868,1,0,0,0.5779,button_left,0.5779,1,,,,,,476,NW,UN,50,photie,JOSTED,z,,,,,,-0.335205078,-0.346375868,1,0,0,,0,290,290,475,1,
,,,,,,,,,,,,,,,,,,5cedb6b3dfb27200199626a0,2020-08-10_18h09.25.097,lexical_decision_task_MP,2020.1.3,Linux armv8l,60,,0,-0.311035156,-0.288867188,1,0,0,0.4962,button_left,0.4962,1,,,,,,350,NW,"ID",50,nagurs,NAGURS,z,,,,,,-0.311035156,-0.288867188,1,0,0,,0,291,291,349,1,
,,,,,,,,,,,,,,,,,,5cedb6b3dfb27200199626a0,2020-08-10_18h09.25.097,lexical_decision_task_MP,2020.1.3,Linux armv8l,60,,0,0.329589844,-0.279644097,1,0,0,0.6934,button_right,0.6934,1,,,,,,193,WORD,UN,50,plague,OBJECT,m,,,,,,0.329589844,-0.279644097,1,0,0,,0,292,292,192,1,
,,,,,,,,,,,,,,,,,,5cedb6b3dfb27200199626a0,2020-08-10_18h09.25.097,lexical_decision_task_MP,2020.1.3,Linux armv8l,60,,0,0.291259766,-0.299175347,1,0,0,0.5791,button_right,0.5791,1,,,,,,144,WORD,UN,33,parish,SPONGE,m,,,,,,0.291259766,-0.299175347,1,0,0,,0,293,293,143,1,
,,,,,,,,,,,,,,,,,,5cedb6b3dfb27200199626a0,2020-08-10_18h09.25.097,lexical_decision_task_MP,2020.1.3,Linux armv8l,60,,0,-0.352539063,-0.315451389,1,0,0,0.6627,button_left,0.6627,1,,,,,,289,NW,"ID",33,starby,STARBY,z,,,,,,-0.352539063,-0.315451389,1,0,0,,0,294,294,288,1,
,,,,,,,,,,,,,,,,,,5cedb6b3dfb27200199626a0,2020-08-10_18h09.25.097,lexical_decision_task_MP,2020.1.3,Linux armv8l,60,,0,0.325195313,-0.325217014,1,0,0,0.5304,button_right,0.5304,1,,,,,,136,WORD,UN,33,finger,BLEACH,m,,,,,,0.325195313,-0.325217014,1,0,0,,0,295,295,135,1,
,,,,,,,,,,,,,,,,,,5cedb6b3dfb27200199626a0,2020-08-10_18h09.25.097,lexical_decision_task_MP,2020.1.3,Linux armv8l,60,,0,0.347412109,-0.354513889,1,0,0,0.7792,button_right,0.7792,1,,,,,,40,WORD,"ID",33,convey,CONVEY,m,,,,,,0.347412109,-0.354513889,1,0,0,,0,296,296,39,1,
,,,,,,,,,,,,,,,,,,5cedb6b3dfb27200199626a0,2020-08-10_18h09.25.097,lexical_decision_task_MP,2020.1.3,Linux armv8l,60,,0,0.361083984,-0.390863715,1,0,0,0.7543,button_right,0.7543,1,,,,,,197,WORD,UN,50,wicked,STREAM,m,,,,,,0.361083984,-0.390863715,1,0,0,,0,297,297,196,1,
,,,,,,,,,,,,,,,,,,5cedb6b3dfb27200199626a0,2020-08-10_18h09.25.097,lexical_decision_task_MP,2020.1.3,Linux armv8l,60,,0,-0.333740234,-0.309483507,1,0,0,0.5613,button_left,0.5613,1,,,,,,336,NW,"ID",50,ghodus,GHODUS,z,,,,,,-0.333740234,-0.309483507,1,0,0,,0,298,298,335,1,
,,,,,,,,,,,,,,,,,,5cedb6b3dfb27200199626a0,2020-08-10_18h09.25.097,lexical_decision_task_MP,2020.1.3,Linux armv8l,60,,0,-0.284667969,-0.323046875,1,0,0,0.6419,button_left,0.6419,1,,,,,,456,NW,UN,50,wanigh,BROGET,z,,,,,,-0.284667969,-0.323046875,1,0,0,,0,299,299,455,1,
,,,,,,,,,,,,,,,,,,5cedb6b3dfb27200199626a0,2020-08-10_18h09.25.097,lexical_decision_task_MP,2020.1.3,Linux armv8l,60,,0,-0.3046875,-0.267165799,1,0,0,0.5804,button_left,0.5804,1,,,,,,254,NW,"ID",33,varosh,VAROSH,z,,,,,,-0.3046875,-0.267165799,1,0,0,,0,300,300,253,1,
,,,,,,,,,,,,,,,,,,5cedb6b3dfb27200199626a0,2020-08-10_18h09.25.097,lexical_decision_task_MP,2020.1.3,Linux armv8l,60,,0,0.316162109,-0.317621528,1,0,0,0.577,button_right,0.577,1,,,,,,73,WORD,"ID",50,source,SOURCE,m,,,,,,0.316162109,-0.317621528,1,0,0,,0,301,301,72,1,
,,,,,,,,,,,,,,,,,,5cedb6b3dfb27200199626a0,2020-08-10_18h09.25.097,lexical_decision_task_MP,2020.1.3,Linux armv8l,60,,0,0.300292969,-0.304600694,1,0,0,0.5601,button_right,0.5601,1,,,,,,77,WORD,"ID",50,racket,RACKET,m,,,,,,0.300292969,-0.304600694,1,0,0,,0,302,302,76,1,
,,,,,,,,,,,,,,,,,,5cedb6b3dfb27200199626a0,2020-08-10_18h09.25.097,lexical_decision_task_MP,2020.1.3,Linux armv8l,60,,0,0.299560547,-0.323046875,1,0,0,0.4958,button_right,0.4958,1,,,,,,145,WORD,UN,33,couple,PARISH,m,,,,,,0.299560547,-0.323046875,1,0,0,,0,303,303,144,1,
,,,,,,,,,,,,,,,,,,5cedb6b3dfb27200199626a0,2020-08-10_18h09.25.097,lexical_decision_task_MP,2020.1.3,Linux armv8l,60,,0,0.319824219,-0.306228299,1,0,0,0.7437,button_right,0.7437,1,,,,,,195,WORD,UN,50,credit,RESIGN,m,,,,,,0.319824219,-0.306228299,1,0,0,,0,304,304,194,1,
,,,,,,,,,,,,,,,,,,5cedb6b3dfb27200199626a0,2020-08-10_18h09.25.097,lexical_decision_task_MP,2020.1.3,Linux armv8l,60,,0,-0.303710938,-0.294835069,1,0,0,0.6791,button_left,0.6791,1,,,,,,389,NW,UN,33,hatrus,WITMER,z,,,,,,-0.303710938,-0.294835069,1,0,0,,0,305,305,388,1,
,,,,,,,,,,,,,,,,,,5cedb6b3dfb27200199626a0,2020-08-10_18h09.25.097,lexical_decision_task_MP,2020.1.3,Linux armv8l,60,,0,0.276367188,-0.312738715,1,0,0,0.6139,button_right,0.6139,1,,,,,,6,WORD,"ID",33,bundle,BUNDLE,m,,,,,,0.276367188,-0.312738715,1,0,0,,0,306,306,5,1,
,,,,,,,,,,,,,,,,,,5cedb6b3dfb27200199626a0,2020-08-10_18h09.25.097,lexical_decision_task_MP,2020.1.3,Linux armv8l,60,,0,-0.260498047,-0.278016493,1,0,0,0.6431,button_left,0.6431,1,,,,,,257,NW,"ID",33,veniod,VENIOD,z,,,,,,-0.260498047,-0.278016493,1,0,0,,0,307,307,256,1,
,,,,,,,,,,,,,,,,,,5cedb6b3dfb27200199626a0,2020-08-10_18h09.25.097,lexical_decision_task_MP,2020.1.3,Linux armv8l,60,,0,-0.300537109,-0.295377604,1,0,0,0.6291,button_left,0.6291,1,,,,,,384,NW,UN,33,veigma,GUESCO,z,,,,,,-0.300537109,-0.295377604,1,0,0,,0,308,308,383,1,
,,,,,,,,,,,,,,,,,,5cedb6b3dfb27200199626a0,2020-08-10_18h09.25.097,lexical_decision_task_MP,2020.1.3,Linux armv8l,60,,0,0.288085938,-0.327929688,1,0,0,0.6385,button_right,0.6385,1,,,,,,29,WORD,"ID",33,sketch,SKETCH,m,,,,,,0.288085938,-0.327929688,1,0,0,,0,309,309,28,1,
,,,,,,,,,,,,,,,,,,5cedb6b3dfb27200199626a0,2020-08-10_18h09.25.097,lexical_decision_task_MP,2020.1.3,Linux armv8l,60,,0,-0.336181641,-0.262825521,1,0,0,0.5971,button_left,0.5971,1,,,,,,424,NW,UN,50,urivel,PRAILE,z,,,,,,-0.336181641,-0.262825521,1,0,0,,0,310,310,423,1,
,,,,,,,,,,,,,,,,,,5cedb6b3dfb27200199626a0,2020-08-10_18h09.25.097,lexical_decision_task_MP,2020.1.3,Linux armv8l,60,,0,0.319580078,-0.333355035,1,0,0,0.5867,button_right,0.5867,1,,,,,,192,WORD,UN,50,object,PLAGUE,m,,,,,,0.319580078,-0.333355035,1,0,0,,0,311,311,191,1,
,,,,,,,,,,,,,,,,,,5cedb6b3dfb27200199626a0,2020-08-10_18h09.25.097,lexical_decision_task_MP,2020.1.3,Linux armv8l,60,,0,-0.283203125,-0.293207465,1,0,0,0.5461,button_left,0.5461,1,,,,,,271,NW,"ID",33,aubrid,AUBRID,z,,,,,,-0.283203125,-0.293207465,1,0,0,,0,312,312,270,1,
,,,,,,,,,,,,,,,,,,5cedb6b3dfb27200199626a0,2020-08-10_18h09.25.097,lexical_decision_task_MP,2020.1.3,Linux armv8l,60,,0,-0.298583984,-0.302430556,1,0,0,0.6767,button_left,0.6767,1,,,,,,380,NW,UN,33,huniek,CAVORY,z,,,,,,-0.298583984,-0.302430556,1,0,0,,0,313,313,379,1,
,,,,,,,,,,,,,,,,,,5cedb6b3dfb27200199626a0,2020-08-10_18h09.25.097,lexical_decision_task_MP,2020.1.3,Linux armv8l,60,,0,0.366455078,-0.346375868,1,0,0,0.6823,button_right,0.6823,1,,,,,,177,WORD,UN,33,inform,ADVENT,m,,,,,,0.366455078,-0.346375868,1,0,0,,0,314,314,176,1,
,,,,,,,,,,,,,,,,,,5cedb6b3dfb27200199626a0,2020-08-10_18h09.25.097,lexical_decision_task_MP,2020.1.3,Linux armv8l,60,,0,-0.306152344,-0.311111111,1,0,0,0.628,button_left,0.628,1,,,,,,473,NW,UN,50,hablin,CRIBLE,z,,,,,,-0.306152344,-0.311111111,1,0,0,,0,315,315,472,1,
,,,,,,,,,,,,,,,,,,5cedb6b3dfb27200199626a0,2020-08-10_18h09.25.097,lexical_decision_task_MP,2020.1.3,Linux armv8l,60,,0,0.359863281,-0.335525174,1,0,0,0.7767,button_right,0.7767,1,,,,,,62,WORD,"ID",50,region,REGION,m,,,,,,0.359863281,-0.335525174,1,0,0,,0,316,316,61,1,
,,,,,,,,,,,,,,,,,,5cedb6b3dfb27200199626a0,2020-08-10_18h09.25.097,lexical_decision_task_MP,2020.1.3,Linux armv8l,60,,0,-0.280029297,-0.331727431,1,0,0,0.6088,button_left,0.6088,1,,,,,,398,NW,UN,33,fouret,BLUNDE,z,,,,,,-0.280029297,-0.331727431,1,0,0,,0,317,317,397,1,
,,,,,,,,,,,,,,,,,,5cedb6b3dfb27200199626a0,2020-08-10_18h09.25.097,lexical_decision_task_MP,2020.1.3,Linux armv8l,60,,0,0.295410156,-0.326844618,1,0,0,0.7284,button_right,0.7284,1,,,,,,227,WORD,UN,50,master,SELDOM,m,,,,,,0.295410156,-0.326844618,1,0,0,,0,318,318,226,1,
,,,,,,,,,,,,,,,,,,5cedb6b3dfb27200199626a0,2020-08-10_18h09.25.097,lexical_decision_task_MP,2020.1.3,Linux armv8l,60,,0,-0.326171875,-0.292664931,1,0,0,0.5419,button_left,0.5419,1,,,,,,422,NW,UN,50,streld,ALCOUD,z,,,,,,-0.326171875,-0.292664931,1,0,0,,0,319,319,421,1,
,,,,,,,,,,,,,,,,,,5cedb6b3dfb27200199626a0,2020-08-10_18h09.25.097,lexical_decision_task_MP,2020.1.3,Linux armv8l,60,,0,0.338623047,-0.307855903,1,0,0,0.5687,button_right,0.5687,1,,,,,,117,WORD,"ID",50,branch,BRANCH,m,,,,,,0.338623047,-0.307855903,1,0,0,,0,320,320,116,1,
,,,,,,,,,,,,,,,,,,5cedb6b3dfb27200199626a0,2020-08-10_18h09.25.097,lexical_decision_task_MP,2020.1.3,Linux armv8l,60,,0,0.3515625,-0.308940972,1,0,0,0.5495,button_right,0.5495,1,,,,,,104,WORD,"ID",50,studio,STUDIO,m,,,,,,0.3515625,-0.308940972,1,0,0,,0,321,321,103,1,
,,,,,,,,,,,,,,,,,,5cedb6b3dfb27200199626a0,2020-08-10_18h09.25.097,lexical_decision_task_MP,2020.1.3,Linux armv8l,60,,0,-0.313964844,-0.276931424,1,0,0,0.6294,button_left,0.6294,1,,,,,,255,NW,"ID",33,apight,APIGHT,z,,,,,,-0.313964844,-0.276931424,1,0,0,,0,322,322,254,1,
,,,,,,,,,,,,,,,,,,5cedb6b3dfb27200199626a0,2020-08-10_18h09.25.097,lexical_decision_task_MP,2020.1.3,Linux armv8l,60,,0,0.314697266,-0.332269965,1,0,0,0.6806,button_right,0.6806,1,,,,,,211,WORD,UN,50,verify,INFECT,m,,,,,,0.314697266,-0.332269965,1,0,0,,0,323,323,210,1,
,,,,,,,,,,,,,,,,,,5cedb6b3dfb27200199626a0,2020-08-10_18h09.25.097,lexical_decision_task_MP,2020.1.3,Linux armv8l,60,,0,0.318847656,-0.317078993,1,0,0,0.6399,button_right,0.6399,1,,,,,,206,WORD,UN,50,wreath,TAILOR,m,,,,,,0.318847656,-0.317078993,1,0,0,,0,324,324,205,1,
,,,,,,,,,,,,,,,,,,5cedb6b3dfb27200199626a0,2020-08-10_18h09.25.097,lexical_decision_task_MP,2020.1.3,Linux armv8l,60,,0,0.317626953,-0.347460938,1,0,0,0.8421,button_right,0.8421,1,,,,,,125,WORD,UN,33,blouse,NICKEL,m,,,,,,0.317626953,-0.347460938,1,0,0,,0,325,325,124,1,
,,,,,,,,,,,,,,,,,,5cedb6b3dfb27200199626a0,2020-08-10_18h09.25.097,lexical_decision_task_MP,2020.1.3,Linux armv8l,60,,0,-0.323486328,-0.315451389,1,0,0,0.6938,button_left,0.6938,1,,,,,,466,NW,UN,50,pebric,HOCITE,z,,,,,,-0.323486328,-0.315451389,1,0,0,,0,326,326,465,1,
,,,,,,,,,,,,,,,,,,5cedb6b3dfb27200199626a0,2020-08-10_18h09.25.097,lexical_decision_task_MP,2020.1.3,Linux armv8l,60,,0,0.283935547,-0.352886285,1,0,0,0.5776,button_right,0.5776,1,,,,,,179,WORD,UN,33,silent,BASKET,m,,,,,,0.283935547,-0.352886285,1,0,0,,0,327,327,178,1,
,,,,,,,,,,,,,,,,,,5cedb6b3dfb27200199626a0,2020-08-10_18h09.25.097,lexical_decision_task_MP,2020.1.3,Linux armv8l,60,,0,-0.289794922,-0.301888021,1,0,0,0.6573,button_left,0.6573,1,,,,,,368,NW,UN,33,wronch,HORNAL,z,,,,,,-0.289794922,-0.301888021,1,0,0,,0,328,328,367,1,
,,,,,,,,,,,,,,,,,,5cedb6b3dfb27200199626a0,2020-08-10_18h09.25.097,lexical_decision_task_MP,2020.1.3,Linux armv8l,60,,0,-0.231689453,-0.282356771,1,0,0,0.8506,button_left,0.8506,1,,,,,,297,NW,"ID",33,fertic,FERTIC,z,,,,,,-0.231689453,-0.282356771,1,0,0,,0,329,329,296,1,
,,,,,,,,,,,,,,,,,,5cedb6b3dfb27200199626a0,2020-08-10_18h09.25.097,lexical_decision_task_MP,2020.1.3,Linux armv8l,60,,0,0.283203125,-0.365364583,1,0,0,0.8123,button_right,0.8123,1,,,,,,204,WORD,UN,50,lounge,BURDEN,m,,,,,,0.283203125,-0.365364583,1,0,0,,0,330,330,203,1,
,,,,,,,,,,,,,,,,,,5cedb6b3dfb27200199626a0,2020-08-10_18h09.25.097,lexical_decision_task_MP,2020.1.3,Linux armv8l,60,,0,-0.3125,-0.306770833,1,0,0,0.6473,button_left,0.6473,1,,,,,,283,NW,"ID",33,veralf,VERALF,z,,,,,,-0.3125,-0.306770833,1,0,0,,0,331,331,282,1,
,,,,,,,,,,,,,,,,,,5cedb6b3dfb27200199626a0,2020-08-10_18h09.25.097,lexical_decision_task_MP,2020.1.3,Linux armv8l,60,,0,-0.229003906,-0.275303819,1,0,0,0.8646,button_left,0.8646,1,,,,,,376,NW,UN,33,sliant,IGUARE,z,,,,,,-0.229003906,-0.275303819,1,0,0,,0,332,332,375,1,
,,,,,,,,,,,,,,,,,,5cedb6b3dfb27200199626a0,2020-08-10_18h09.25.097,lexical_decision_task_MP,2020.1.3,Linux armv8l,60,,0,0.338134766,-0.309483507,1,0,0,0.6087,button_right,0.6087,1,,,,,,24,WORD,"ID",33,praise,PRAISE,m,,,,,,0.338134766,-0.309483507,1,0,0,,0,333,333,23,1,
,,,,,,,,,,,,,,,,,,5cedb6b3dfb27200199626a0,2020-08-10_18h09.25.097,lexical_decision_task_MP,2020.1.3,Linux armv8l,60,,0,-0.319824219,-0.271506076,1,0,0,0.6289,button_left,0.6289,1,,,,,,393,NW,UN,33,spaqux,GANOUS,z,,,,,,-0.319824219,-0.271506076,1,0,0,,0,334,334,392,1,
,,,,,,,,,,,,,,,,,,5cedb6b3dfb27200199626a0,2020-08-10_18h09.25.097,lexical_decision_task_MP,2020.1.3,Linux armv8l,60,,0,-0.291259766,-0.295920139,1,0,0,0.5946,button_left,0.5946,1,,,,,,278,NW,"ID",33,unighs,UNIGHS,z,,,,,,-0.291259766,-0.295920139,1,0,0,,0,335,335,277,1,
,,,,,,,,,,,,,,,,,,5cedb6b3dfb27200199626a0,2020-08-10_18h09.25.097,lexical_decision_task_MP,2020.1.3,Linux armv8l,60,,0,0.288574219,-0.324674479,1,0,0,0.6267,button_right,0.6267,1,,,,,,230,WORD,UN,50,export,FRINGE,m,,,,,,0.288574219,-0.324674479,1,0,0,,0,336,336,229,1,
,,,,,,,,,,,,,,,,,,5cedb6b3dfb27200199626a0,2020-08-10_18h09.25.097,lexical_decision_task_MP,2020.1.3,Linux armv8l,60,,0,0.319580078,-0.28452691,1,0,0,0.5441,button_right,0.5441,1,,,,,,101,WORD,"ID",50,wrench,WRENCH,m,,,,,,0.319580078,-0.28452691,1,0,0,,0,337,337,100,1,
,,,,,,,,,,,,,,,,,,5cedb6b3dfb27200199626a0,2020-08-10_18h09.25.097,lexical_decision_task_MP,2020.1.3,Linux armv8l,60,,0,0.317626953,-0.325759549,1,0,0,0.5802,button_right,0.5802,1,,,,,,231,WORD,UN,50,mother,EXPORT,m,,,,,,0.317626953,-0.325759549,1,0,0,,0,338,338,230,1,
,,,,,,,,,,,,,,,,,,5cedb6b3dfb27200199626a0,2020-08-10_18h09.25.097,lexical_decision_task_MP,2020.1.3,Linux armv8l,60,,0,0.323242188,-0.261740451,1,0,0,0.5591,button_right,0.5591,1,,,,,,166,WORD,UN,33,design,STARCH,m,,,,,,0.323242188,-0.261740451,1,0,0,,0,339,339,165,1,
,,,,,,,,,,,,,,,,,,5cedb6b3dfb27200199626a0,2020-08-10_18h09.25.097,lexical_decision_task_MP,2020.1.3,Linux armv8l,60,,0,-0.297119141,-0.314908854,1,0,0,0.5771,button_left,0.5771,1,,,,,,349,NW,"ID",50,asylen,ASYLEN,z,,,,,,-0.297119141,-0.314908854,1,0,0,,0,340,340,348,1,
,,,,,,,,,,,,,,,,,,5cedb6b3dfb27200199626a0,2020-08-10_18h09.25.097,lexical_decision_task_MP,2020.1.3,Linux armv8l,60,,0,0.335449219,-0.329557292,1,0,0,0.664,button_right,0.664,1,,,,,,167,WORD,UN,33,answer,DESIGN,m,,,,,,0.335449219,-0.329557292,1,0,0,,0,341,341,166,1,
