counterbalancing_condition,instr_done_keyboard.keys,instr_done_keyboard.rt,instr_done_touch.x,instr_done_touch.y,instr_done_touch.leftButton,instr_done_touch.midButton,instr_done_touch.rightButton,instruction_pages.thisRepN,instruction_pages.thisTrialN,instruction_pages.thisN,instruction_pages.thisIndex,instruction_pages.ran,pageN,phase,instruct_text,has_image,instruct_image,participant,date,expName,psychopyVersion,OS,frameRate,response.keys,response.corr,touch_resp.x,touch_resp.y,touch_resp.leftButton,touch_resp.midButton,touch_resp.rightButton,touch_resp.time,touch_resp.clicked_name,rt,corr,practice_trials.thisRepN,practice_trials.thisTrialN,practice_trials.thisN,practice_trials.thisIndex,practice_trials.ran,TrialID,StimulusType,Condition,PrimeDuration,Prime,Target,corrAns,response.rt,end_of_practice_trials_pages.thisRepN,end_of_practice_trials_pages.thisTrialN,end_of_practice_trials_pages.thisN,end_of_practice_trials_pages.thisIndex,end_of_practice_trials_pages.ran,break_done_touch.x,break_done_touch.y,break_done_touch.leftButton,break_done_touch.midButton,break_done_touch.rightButton,break_done_keyboard.keys,trials.thisRepN,trials.thisTrialN,trials.thisN,trials.thisIndex,trials.ran,break_done_keyboard.rt
0,space,9.07754,0.140307617,-0.255439453,0,0,0,0,0,0,0,1,1,instructions,"INSTRUCTIONS
At the start of each trial, look at the hash marks (######) in the center of the screen. After a moment, a string of letters will appear. Your task is to indicate if the letter string forms a word or not (i.e., if it is a nonword). For example, AUTHOR is a word while AUTHON is a nonword.

Press the space bar or touch the button below to continue.",0,,5d1f680b4a21e00001818cf2,2020-08-10_17h46.02.656,lexical_decision_task_MP,2020.1.3,MacIntel,60,,,,,,,,,,,,,,,,,,,,,,,,,,,,,,,,,,,,,,,,,
,space,4.58455,0.140307617,-0.255439453,0,0,0,0,1,1,1,1,2,instructions,"If your device has a keyboard, press the 'Z' key for nonwords and the 'M' key for words.





Press the space bar or touch the button below to continue.",1,keyboard-example.gif,5d1f680b4a21e00001818cf2,2020-08-10_17h46.02.656,lexical_decision_task_MP,2020.1.3,MacIntel,60,,,,,,,,,,,,,,,,,,,,,,,,,,,,,,,,,,,,,,,,,
,space,2.280945,0.140307617,-0.255439453,0,0,0,0,2,2,2,1,3,instructions,"If you are using a touchscreen only device, use the buttons on the screen. Do not use the mouse.





Press the space bar or touch the button below to continue.",1,touchscreen-example.gif,5d1f680b4a21e00001818cf2,2020-08-10_17h46.02.656,lexical_decision_task_MP,2020.1.3,MacIntel,60,,,,,,,,,,,,,,,,,,,,,,,,,,,,,,,,,,,,,,,,,
,space,2.180095,0.140307617,-0.255439453,0,0,0,0,3,3,3,1,4,instructions,"It is very important that you respond as quickly and accurately as possible, as each letter string will only be on the screen for two seconds. If you do not respond within this time, the message 'Too slow!' will be displayed and the experiment will progress to the next letter string. The first 20 trials will be practice trials and you will receive feedback on your answers. 

Press the space bar or touch the button below to start the practice trials.",0,,5d1f680b4a21e00001818cf2,2020-08-10_17h46.02.656,lexical_decision_task_MP,2020.1.3,MacIntel,60,,,,,,,,,,,,,,,,,,,,,,,,,,,,,,,,,,,,,,,,,
,,,,,,,,,,,,,,,,,,5d1f680b4a21e00001818cf2,2020-08-10_17h46.02.656,lexical_decision_task_MP,2020.1.3,MacIntel,60,,0,,,,,,,,,-1,0,0,0,5,1,1006,WORD,UN,33,frenzy,OBTAIN,m,,,,,,,,,,,,,,,,,,
,,,,,,,,,,,,,,,,,,5d1f680b4a21e00001818cf2,2020-08-10_17h46.02.656,lexical_decision_task_MP,2020.1.3,MacIntel,60,m,1,,,,,,,,0.834895,1,0,1,1,3,1,1004,WORD,"ID",50,matrix,MATRIX,m,0.834895,,,,,,,,,,,,,,,,,
,,,,,,,,,,,,,,,,,,5d1f680b4a21e00001818cf2,2020-08-10_17h46.02.656,lexical_decision_task_MP,2020.1.3,MacIntel,60,m,1,,,,,,,,0.600815,1,0,2,2,6,1,1007,WORD,UN,50,tropic,ZOMBIE,m,0.600815,,,,,,,,,,,,,,,,,
,,,,,,,,,,,,,,,,,,5d1f680b4a21e00001818cf2,2020-08-10_17h46.02.656,lexical_decision_task_MP,2020.1.3,MacIntel,60,m,1,,,,,,,,0.53478,1,0,3,3,0,1,1001,WORD,"ID",33,utopia,UTOPIA,m,0.53478,,,,,,,,,,,,,,,,,
,,,,,,,,,,,,,,,,,,5d1f680b4a21e00001818cf2,2020-08-10_17h46.02.656,lexical_decision_task_MP,2020.1.3,MacIntel,60,z,1,,,,,,,,0.50544,1,0,4,4,9,1,1010,NW,"ID",33,fariny,FARINY,z,0.50544,,,,,,,,,,,,,,,,,
,,,,,,,,,,,,,,,,,,5d1f680b4a21e00001818cf2,2020-08-10_17h46.02.656,lexical_decision_task_MP,2020.1.3,MacIntel,60,m,1,,,,,,,,0.63113,1,0,5,5,2,1,1003,WORD,"ID",50,almond,ALMOND,m,0.63113,,,,,,,,,,,,,,,,,
,,,,,,,,,,,,,,,,,,5d1f680b4a21e00001818cf2,2020-08-10_17h46.02.656,lexical_decision_task_MP,2020.1.3,MacIntel,60,z,1,,,,,,,,0.735085,1,0,6,6,11,1,1012,NW,"ID",50,rashet,RASHET,z,0.735085,,,,,,,,,,,,,,,,,
,,,,,,,,,,,,,,,,,,5d1f680b4a21e00001818cf2,2020-08-10_17h46.02.656,lexical_decision_task_MP,2020.1.3,MacIntel,60,m,1,,,,,,,,0.68391,1,0,7,7,1,1,1002,WORD,"ID",33,adjust,ADJUST,m,0.68391,,,,,,,,,,,,,,,,,
,,,,,,,,,,,,,,,,,,5d1f680b4a21e00001818cf2,2020-08-10_17h46.02.656,lexical_decision_task_MP,2020.1.3,MacIntel,60,m,1,,,,,,,,0.504625,1,0,8,8,7,1,1008,WORD,UN,50,hurdle,VOLUME,m,0.504625,,,,,,,,,,,,,,,,,
,,,,,,,,,,,,,,,,,,5d1f680b4a21e00001818cf2,2020-08-10_17h46.02.656,lexical_decision_task_MP,2020.1.3,MacIntel,60,z,1,,,,,,,,0.582885,1,0,9,9,12,1,1013,NW,UN,33,adveil,SPRINY,z,0.582885,,,,,,,,,,,,,,,,,
,,,,,,,,,,,,,,,,,,5d1f680b4a21e00001818cf2,2020-08-10_17h46.02.656,lexical_decision_task_MP,2020.1.3,MacIntel,60,z,1,,,,,,,,0.59066,1,0,10,10,14,1,1015,NW,UN,50,miaber,THRALE,z,0.59066,,,,,,,,,,,,,,,,,
,,,,,,,,,,,,,,,,,,5d1f680b4a21e00001818cf2,2020-08-10_17h46.02.656,lexical_decision_task_MP,2020.1.3,MacIntel,60,z,1,,,,,,,,0.53286,1,0,11,11,13,1,1014,NW,UN,33,winfer,ROUPET,z,0.53286,,,,,,,,,,,,,,,,,
,,,,,,,,,,,,,,,,,,5d1f680b4a21e00001818cf2,2020-08-10_17h46.02.656,lexical_decision_task_MP,2020.1.3,MacIntel,60,m,1,,,,,,,,0.449865,1,0,12,12,4,1,1005,WORD,UN,33,abound,SQUEAK,m,0.449865,,,,,,,,,,,,,,,,,
,,,,,,,,,,,,,,,,,,5d1f680b4a21e00001818cf2,2020-08-10_17h46.02.656,lexical_decision_task_MP,2020.1.3,MacIntel,60,z,1,,,,,,,,0.6559,1,0,13,13,10,1,1011,NW,"ID",50,inlade,INLADE,z,0.6559,,,,,,,,,,,,,,,,,
,,,,,,,,,,,,,,,,,,5d1f680b4a21e00001818cf2,2020-08-10_17h46.02.656,lexical_decision_task_MP,2020.1.3,MacIntel,60,z,1,,,,,,,,0.55727,1,0,14,14,15,1,1016,NW,UN,50,mushed,WHAISE,z,0.55727,,,,,,,,,,,,,,,,,
,,,,,,,,,,,,,,,,,,5d1f680b4a21e00001818cf2,2020-08-10_17h46.02.656,lexical_decision_task_MP,2020.1.3,MacIntel,60,z,1,,,,,,,,0.700075,1,0,15,15,8,1,1009,NW,"ID",33,aslert,ASLERT,z,0.700075,,,,,,,,,,,,,,,,,
,space,9.444795,0.140307617,-0.255439453,0,0,0,,,,,,1,end_of_practice,"You have completed the practice trials. During the experimental trials, you will not receive feedback, but it is very important that you respond as quickly and accurately as possible. 
Before you begin, please ensure that you are in a comfortable and quiet location and will not be disturbed for about 15 minutes, as we cannot use your data if you do not complete all the trials. 
There will be opportunities to take breaks at regular intervals during the experiment. When you are ready to start the experimental trials, please press space or touch the button below.",,,5d1f680b4a21e00001818cf2,2020-08-10_17h46.02.656,lexical_decision_task_MP,2020.1.3,MacIntel,60,,,,,,,,,,,,,,,,,,,,,,,,,0,0,0,0,1,,,,,,,,,,,,
,,,,,,,,,,,,,,,,,,5d1f680b4a21e00001818cf2,2020-08-10_17h46.02.656,lexical_decision_task_MP,2020.1.3,MacIntel,60,z,1,,,,,,,,1.13398,1,,,,,,471,NW,"ID",33,nobest,NOBEST,z,1.13398,,,,,,0.140307617,-0.255439453,0,0,0,,0,0,0,290,1,
,,,,,,,,,,,,,,,,,,5d1f680b4a21e00001818cf2,2020-08-10_17h46.02.656,lexical_decision_task_MP,2020.1.3,MacIntel,60,m,1,,,,,,,,0.689605,1,,,,,,173,WORD,UN,50,turkey,SHOWER,m,0.689605,,,,,,0.140307617,-0.255439453,0,0,0,,0,1,1,232,1,
,,,,,,,,,,,,,,,,,,5d1f680b4a21e00001818cf2,2020-08-10_17h46.02.656,lexical_decision_task_MP,2020.1.3,MacIntel,60,m,1,,,,,,,,0.5381,1,,,,,,199,WORD,"ID",33,invoke,INVOKE,m,0.5381,,,,,,0.140307617,-0.255439453,0,0,0,,0,2,2,18,1,
,,,,,,,,,,,,,,,,,,5d1f680b4a21e00001818cf2,2020-08-10_17h46.02.656,lexical_decision_task_MP,2020.1.3,MacIntel,60,m,1,,,,,,,,0.44939,1,,,,,,213,WORD,"ID",33,squeal,SQUEAL,m,0.44939,,,,,,0.140307617,-0.255439453,0,0,0,,0,3,3,32,1,
,,,,,,,,,,,,,,,,,,5d1f680b4a21e00001818cf2,2020-08-10_17h46.02.656,lexical_decision_task_MP,2020.1.3,MacIntel,60,m,1,,,,,,,,0.56917,1,,,,,,155,WORD,UN,50,cradle,LIZARD,m,0.56917,,,,,,0.140307617,-0.255439453,0,0,0,,0,4,4,214,1,
,,,,,,,,,,,,,,,,,,5d1f680b4a21e00001818cf2,2020-08-10_17h46.02.656,lexical_decision_task_MP,2020.1.3,MacIntel,60,m,1,,,,,,,,0.50454,1,,,,,,24,WORD,"ID",50,praise,PRAISE,m,0.50454,,,,,,0.140307617,-0.255439453,0,0,0,,0,5,5,83,1,
,,,,,,,,,,,,,,,,,,5d1f680b4a21e00001818cf2,2020-08-10_17h46.02.656,lexical_decision_task_MP,2020.1.3,MacIntel,60,m,1,,,,,,,,0.584775,1,,,,,,33,WORD,"ID",50,butler,BUTLER,m,0.584775,,,,,,0.140307617,-0.255439453,0,0,0,,0,6,6,92,1,
,,,,,,,,,,,,,,,,,,5d1f680b4a21e00001818cf2,2020-08-10_17h46.02.656,lexical_decision_task_MP,2020.1.3,MacIntel,60,m,1,,,,,,,,0.470295,1,,,,,,221,WORD,"ID",33,mascot,MASCOT,m,0.470295,,,,,,0.140307617,-0.255439453,0,0,0,,0,7,7,40,1,
,,,,,,,,,,,,,,,,,,5d1f680b4a21e00001818cf2,2020-08-10_17h46.02.656,lexical_decision_task_MP,2020.1.3,MacIntel,60,z,1,,,,,,,,0.43044,1,,,,,,362,NW,UN,50,breali,TIREAU,z,0.43044,,,,,,0.140307617,-0.255439453,0,0,0,,0,8,8,421,1,
,,,,,,,,,,,,,,,,,,5d1f680b4a21e00001818cf2,2020-08-10_17h46.02.656,lexical_decision_task_MP,2020.1.3,MacIntel,60,z,1,,,,,,,,0.619015,1,,,,,,260,NW,"ID",50,unject,UNJECT,z,0.619015,,,,,,0.140307617,-0.255439453,0,0,0,,0,9,9,319,1,
,,,,,,,,,,,,,,,,,,5d1f680b4a21e00001818cf2,2020-08-10_17h46.02.656,lexical_decision_task_MP,2020.1.3,MacIntel,60,z,1,,,,,,,,0.5178,1,,,,,,364,NW,UN,50,guairt,IMPOTE,z,0.5178,,,,,,0.140307617,-0.255439453,0,0,0,,0,10,10,423,1,
,,,,,,,,,,,,,,,,,,5d1f680b4a21e00001818cf2,2020-08-10_17h46.02.656,lexical_decision_task_MP,2020.1.3,MacIntel,60,m,1,,,,,,,,0.521115,1,,,,,,162,WORD,UN,50,string,CANDLE,m,0.521115,,,,,,0.140307617,-0.255439453,0,0,0,,0,11,11,221,1,
,,,,,,,,,,,,,,,,,,5d1f680b4a21e00001818cf2,2020-08-10_17h46.02.656,lexical_decision_task_MP,2020.1.3,MacIntel,60,z,1,,,,,,,,0.50466,1,,,,,,388,NW,UN,50,witmer,CRAGIN,z,0.50466,,,,,,0.140307617,-0.255439453,0,0,0,,0,12,12,447,1,
,,,,,,,,,,,,,,,,,,5d1f680b4a21e00001818cf2,2020-08-10_17h46.02.656,lexical_decision_task_MP,2020.1.3,MacIntel,60,m,1,,,,,,,,0.5893,1,,,,,,171,WORD,UN,50,patrol,DEPART,m,0.5893,,,,,,0.140307617,-0.255439453,0,0,0,,0,13,13,230,1,
,,,,,,,,,,,,,,,,,,5d1f680b4a21e00001818cf2,2020-08-10_17h46.02.656,lexical_decision_task_MP,2020.1.3,MacIntel,60,z,1,,,,,,,,0.517005,1,,,,,,380,NW,UN,50,huniek,CAVORY,z,0.517005,,,,,,0.140307617,-0.255439453,0,0,0,,0,14,14,439,1,
,,,,,,,,,,,,,,,,,,5d1f680b4a21e00001818cf2,2020-08-10_17h46.02.656,lexical_decision_task_MP,2020.1.3,MacIntel,60,z,1,,,,,,,,0.521805,1,,,,,,407,NW,UN,50,hurnia,SUIVER,z,0.521805,,,,,,0.140307617,-0.255439453,0,0,0,,0,15,15,466,1,
,,,,,,,,,,,,,,,,,,5d1f680b4a21e00001818cf2,2020-08-10_17h46.02.656,lexical_decision_task_MP,2020.1.3,MacIntel,60,m,1,,,,,,,,0.6011,1,,,,,,86,WORD,UN,33,filter,RODENT,m,0.6011,,,,,,0.140307617,-0.255439453,0,0,0,,0,16,16,145,1,
,,,,,,,,,,,,,,,,,,5d1f680b4a21e00001818cf2,2020-08-10_17h46.02.656,lexical_decision_task_MP,2020.1.3,MacIntel,60,m,1,,,,,,,,0.47018,1,,,,,,147,WORD,UN,50,custom,GARLIC,m,0.47018,,,,,,0.140307617,-0.255439453,0,0,0,,0,17,17,206,1,
,,,,,,,,,,,,,,,,,,5d1f680b4a21e00001818cf2,2020-08-10_17h46.02.656,lexical_decision_task_MP,2020.1.3,MacIntel,60,m,1,,,,,,,,0.438185,1,,,,,,117,WORD,UN,33,flight,BRANCH,m,0.438185,,,,,,0.140307617,-0.255439453,0,0,0,,0,18,18,176,1,
,,,,,,,,,,,,,,,,,,5d1f680b4a21e00001818cf2,2020-08-10_17h46.02.656,lexical_decision_task_MP,2020.1.3,MacIntel,60,z,1,,,,,,,,0.53341,1,,,,,,446,NW,"ID",33,runamo,RUNAMO,z,0.53341,,,,,,0.140307617,-0.255439453,0,0,0,,0,19,19,265,1,
,,,,,,,,,,,,,,,,,,5d1f680b4a21e00001818cf2,2020-08-10_17h46.02.656,lexical_decision_task_MP,2020.1.3,MacIntel,60,m,1,,,,,,,,0.54991,1,,,,,,18,WORD,"ID",50,humble,HUMBLE,m,0.54991,,,,,,0.140307617,-0.255439453,0,0,0,,0,20,20,77,1,
,,,,,,,,,,,,,,,,,,5d1f680b4a21e00001818cf2,2020-08-10_17h46.02.656,lexical_decision_task_MP,2020.1.3,MacIntel,60,m,1,,,,,,,,0.44583,1,,,,,,44,WORD,"ID",50,danger,DANGER,m,0.44583,,,,,,0.140307617,-0.255439453,0,0,0,,0,21,21,103,1,
,,,,,,,,,,,,,,,,,,5d1f680b4a21e00001818cf2,2020-08-10_17h46.02.656,lexical_decision_task_MP,2020.1.3,MacIntel,60,z,0,,,,,,,,0.5358,0,,,,,,176,WORD,UN,50,advent,STRIFE,m,0.5358,,,,,,0.140307617,-0.255439453,0,0,0,,0,22,22,235,1,
,,,,,,,,,,,,,,,,,,5d1f680b4a21e00001818cf2,2020-08-10_17h46.02.656,lexical_decision_task_MP,2020.1.3,MacIntel,60,m,1,,,,,,,,0.553045,1,,,,,,164,WORD,UN,50,invest,MARKET,m,0.553045,,,,,,0.140307617,-0.255439453,0,0,0,,0,23,23,223,1,
,,,,,,,,,,,,,,,,,,5d1f680b4a21e00001818cf2,2020-08-10_17h46.02.656,lexical_decision_task_MP,2020.1.3,MacIntel,60,z,1,,,,,,,,0.56802,1,,,,,,334,NW,UN,33,desion,WATMEG,z,0.56802,,,,,,0.140307617,-0.255439453,0,0,0,,0,24,24,393,1,
,,,,,,,,,,,,,,,,,,5d1f680b4a21e00001818cf2,2020-08-10_17h46.02.656,lexical_decision_task_MP,2020.1.3,MacIntel,60,z,1,,,,,,,,0.548965,1,,,,,,351,NW,UN,33,tringe,TIESCH,z,0.548965,,,,,,0.140307617,-0.255439453,0,0,0,,0,25,25,410,1,
,,,,,,,,,,,,,,,,,,5d1f680b4a21e00001818cf2,2020-08-10_17h46.02.656,lexical_decision_task_MP,2020.1.3,MacIntel,60,m,0,,,,,,,,0.473685,0,,,,,,285,NW,"ID",50,prudge,PRUDGE,z,0.473685,,,,,,0.140307617,-0.255439453,0,0,0,,0,26,26,344,1,
,,,,,,,,,,,,,,,,,,5d1f680b4a21e00001818cf2,2020-08-10_17h46.02.656,lexical_decision_task_MP,2020.1.3,MacIntel,60,m,1,,,,,,,,0.51563,1,,,,,,138,WORD,UN,50,debris,MELODY,m,0.51563,,,,,,0.140307617,-0.255439453,0,0,0,,0,27,27,197,1,
,,,,,,,,,,,,,,,,,,5d1f680b4a21e00001818cf2,2020-08-10_17h46.02.656,lexical_decision_task_MP,2020.1.3,MacIntel,60,z,1,,,,,,,,1.018705,1,,,,,,413,NW,UN,50,serbol,EQUATS,z,1.018705,,,,,,0.140307617,-0.255439453,0,0,0,,0,28,28,472,1,
,,,,,,,,,,,,,,,,,,5d1f680b4a21e00001818cf2,2020-08-10_17h46.02.656,lexical_decision_task_MP,2020.1.3,MacIntel,60,z,1,,,,,,,,0.60037,1,,,,,,268,NW,"ID",50,packes,PACKES,z,0.60037,,,,,,0.140307617,-0.255439453,0,0,0,,0,29,29,327,1,
,,,,,,,,,,,,,,,,,,5d1f680b4a21e00001818cf2,2020-08-10_17h46.02.656,lexical_decision_task_MP,2020.1.3,MacIntel,60,z,1,,,,,,,,0.700365,1,,,,,,266,NW,"ID",50,varmit,VARMIT,z,0.700365,,,,,,0.140307617,-0.255439453,0,0,0,,0,30,30,325,1,
,,,,,,,,,,,,,,,,,,5d1f680b4a21e00001818cf2,2020-08-10_17h46.02.656,lexical_decision_task_MP,2020.1.3,MacIntel,60,z,1,,,,,,,,0.50932,1,,,,,,450,NW,"ID",33,phrect,PHRECT,z,0.50932,,,,,,0.140307617,-0.255439453,0,0,0,,0,31,31,269,1,
,,,,,,,,,,,,,,,,,,5d1f680b4a21e00001818cf2,2020-08-10_17h46.02.656,lexical_decision_task_MP,2020.1.3,MacIntel,60,z,1,,,,,,,,0.566865,1,,,,,,249,NW,"ID",50,batrol,BATROL,z,0.566865,,,,,,0.140307617,-0.255439453,0,0,0,,0,32,32,308,1,
,,,,,,,,,,,,,,,,,,5d1f680b4a21e00001818cf2,2020-08-10_17h46.02.656,lexical_decision_task_MP,2020.1.3,MacIntel,60,m,1,,,,,,,,0.57224,1,,,,,,66,WORD,UN,33,policy,GOSPEL,m,0.57224,,,,,,0.140307617,-0.255439453,0,0,0,,0,33,33,125,1,
,,,,,,,,,,,,,,,,,,5d1f680b4a21e00001818cf2,2020-08-10_17h46.02.656,lexical_decision_task_MP,2020.1.3,MacIntel,60,m,1,,,,,,,,0.48563,1,,,,,,70,WORD,UN,33,garden,SQUARE,m,0.48563,,,,,,0.140307617,-0.255439453,0,0,0,,0,34,34,129,1,
,,,,,,,,,,,,,,,,,,5d1f680b4a21e00001818cf2,2020-08-10_17h46.02.656,lexical_decision_task_MP,2020.1.3,MacIntel,60,m,1,,,,,,,,0.534,1,,,,,,181,WORD,"ID",33,glance,GLANCE,m,0.534,,,,,,0.140307617,-0.255439453,0,0,0,,0,35,35,0,1,
,,,,,,,,,,,,,,,,,,5d1f680b4a21e00001818cf2,2020-08-10_17h46.02.656,lexical_decision_task_MP,2020.1.3,MacIntel,60,z,1,,,,,,,,0.56252,1,,,,,,435,NW,"ID",33,impurb,IMPURB,z,0.56252,,,,,,0.140307617,-0.255439453,0,0,0,,0,36,36,254,1,
,,,,,,,,,,,,,,,,,,5d1f680b4a21e00001818cf2,2020-08-10_17h46.02.656,lexical_decision_task_MP,2020.1.3,MacIntel,60,z,1,,,,,,,,0.521115,1,,,,,,242,NW,"ID",50,unwert,UNWERT,z,0.521115,,,,,,0.140307617,-0.255439453,0,0,0,,0,37,37,301,1,
,,,,,,,,,,,,,,,,,,5d1f680b4a21e00001818cf2,2020-08-10_17h46.02.656,lexical_decision_task_MP,2020.1.3,MacIntel,60,z,1,,,,,,,,0.58234,1,,,,,,324,NW,UN,33,thruse,STEIKH,z,0.58234,,,,,,0.140307617,-0.255439453,0,0,0,,0,38,38,383,1,
,,,,,,,,,,,,,,,,,,5d1f680b4a21e00001818cf2,2020-08-10_17h46.02.656,lexical_decision_task_MP,2020.1.3,MacIntel,60,m,1,,,,,,,,0.53578,1,,,,,,61,WORD,UN,33,region,PONDER,m,0.53578,,,,,,0.140307617,-0.255439453,0,0,0,,0,39,39,120,1,
,,,,,,,,,,,,,,,,,,5d1f680b4a21e00001818cf2,2020-08-10_17h46.02.656,lexical_decision_task_MP,2020.1.3,MacIntel,60,m,1,,,,,,,,0.43143,1,,,,,,2,WORD,"ID",50,bridge,BRIDGE,m,0.43143,,,,,,0.140307617,-0.255439453,0,0,0,,0,40,40,61,1,
,,,,,,,,,,,,,,,,,,5d1f680b4a21e00001818cf2,2020-08-10_17h46.02.656,lexical_decision_task_MP,2020.1.3,MacIntel,60,z,1,,,,,,,,0.80147,1,,,,,,374,NW,UN,50,yorque,SLIANT,z,0.80147,,,,,,0.140307617,-0.255439453,0,0,0,,0,41,41,433,1,
,,,,,,,,,,,,,,,,,,5d1f680b4a21e00001818cf2,2020-08-10_17h46.02.656,lexical_decision_task_MP,2020.1.3,MacIntel,60,z,1,,,,,,,,0.499135,1,,,,,,297,NW,"ID",50,fertic,FERTIC,z,0.499135,,,,,,0.140307617,-0.255439453,0,0,0,,0,42,42,356,1,
,,,,,,,,,,,,,,,,,,5d1f680b4a21e00001818cf2,2020-08-10_17h46.02.656,lexical_decision_task_MP,2020.1.3,MacIntel,60,m,1,,,,,,,,0.483705,1,,,,,,197,WORD,"ID",33,stream,STREAM,m,0.483705,,,,,,0.140307617,-0.255439453,0,0,0,,0,43,43,16,1,
,,,,,,,,,,,,,,,,,,5d1f680b4a21e00001818cf2,2020-08-10_17h46.02.656,lexical_decision_task_MP,2020.1.3,MacIntel,60,m,1,,,,,,,,0.63356,1,,,,,,185,WORD,"ID",33,bother,BOTHER,m,0.63356,,,,,,0.140307617,-0.255439453,0,0,0,,0,44,44,4,1,
,,,,,,,,,,,,,,,,,,5d1f680b4a21e00001818cf2,2020-08-10_17h46.02.656,lexical_decision_task_MP,2020.1.3,MacIntel,60,z,1,,,,,,,,0.523895,1,,,,,,241,NW,"ID",50,smenco,SMENCO,z,0.523895,,,,,,0.140307617,-0.255439453,0,0,0,,0,45,45,300,1,
,,,,,,,,,,,,,,,,,,5d1f680b4a21e00001818cf2,2020-08-10_17h46.02.656,lexical_decision_task_MP,2020.1.3,MacIntel,60,m,1,,,,,,,,0.56515,1,,,,,,146,WORD,UN,50,garlic,COUPLE,m,0.56515,,,,,,0.140307617,-0.255439453,0,0,0,,0,46,46,205,1,
,,,,,,,,,,,,,,,,,,5d1f680b4a21e00001818cf2,2020-08-10_17h46.02.656,lexical_decision_task_MP,2020.1.3,MacIntel,60,z,1,,,,,,,,0.650455,1,,,,,,381,NW,UN,50,sarley,HUNIEK,z,0.650455,,,,,,0.140307617,-0.255439453,0,0,0,,0,47,47,440,1,
,,,,,,,,,,,,,,,,,,5d1f680b4a21e00001818cf2,2020-08-10_17h46.02.656,lexical_decision_task_MP,2020.1.3,MacIntel,60,z,1,,,,,,,,0.499455,1,,,,,,406,NW,UN,50,suiver,NOUPLY,z,0.499455,,,,,,0.140307617,-0.255439453,0,0,0,,0,48,48,465,1,
,,,,,,,,,,,,,,,,,,5d1f680b4a21e00001818cf2,2020-08-10_17h46.02.656,lexical_decision_task_MP,2020.1.3,MacIntel,60,z,1,,,,,,,,0.43655,1,,,,,,393,NW,UN,50,spaqux,GANOUS,z,0.43655,,,,,,0.140307617,-0.255439453,0,0,0,,0,49,49,452,1,
,,,,,,,,,,,,,,,,,,5d1f680b4a21e00001818cf2,2020-08-10_17h46.02.656,lexical_decision_task_MP,2020.1.3,MacIntel,60,z,1,,,,,,,,0.41542,1,,,,,,245,NW,"ID",50,anougs,ANOUGS,z,0.41542,,,,,,0.140307617,-0.255439453,0,0,0,,0,50,50,304,1,
,,,,,,,,,,,,,,,,,,5d1f680b4a21e00001818cf2,2020-08-10_17h46.02.656,lexical_decision_task_MP,2020.1.3,MacIntel,60,z,1,,,,,,,,0.401725,1,,,,,,276,NW,"ID",50,yarmon,YARMON,z,0.401725,,,,,,0.140307617,-0.255439453,0,0,0,,0,51,51,335,1,
,,,,,,,,,,,,,,,,,,5d1f680b4a21e00001818cf2,2020-08-10_17h46.02.656,lexical_decision_task_MP,2020.1.3,MacIntel,60,z,0,,,,,,,,0.43345,0,,,,,,206,WORD,"ID",33,tailor,TAILOR,m,0.43345,,,,,,0.140307617,-0.255439453,0,0,0,,0,52,52,25,1,
,,,,,,,,,,,,,,,,,,5d1f680b4a21e00001818cf2,2020-08-10_17h46.02.656,lexical_decision_task_MP,2020.1.3,MacIntel,60,m,1,,,,,,,,0.550635,1,,,,,,233,WORD,"ID",33,nature,NATURE,m,0.550635,,,,,,0.140307617,-0.255439453,0,0,0,,0,53,53,52,1,
,,,,,,,,,,,,,,,,,,5d1f680b4a21e00001818cf2,2020-08-10_17h46.02.656,lexical_decision_task_MP,2020.1.3,MacIntel,60,z,1,,,,,,,,0.54292,1,,,,,,269,NW,"ID",50,orchet,ORCHET,z,0.54292,,,,,,0.140307617,-0.255439453,0,0,0,,0,54,54,328,1,
,,,,,,,,,,,,,,,,,,5d1f680b4a21e00001818cf2,2020-08-10_17h46.02.656,lexical_decision_task_MP,2020.1.3,MacIntel,60,m,1,,,,,,,,0.48408,1,,,,,,102,WORD,UN,33,bounce,DIRECT,m,0.48408,,,,,,0.140307617,-0.255439453,0,0,0,,0,55,55,161,1,
,,,,,,,,,,,,,,,,,,5d1f680b4a21e00001818cf2,2020-08-10_17h46.02.656,lexical_decision_task_MP,2020.1.3,MacIntel,60,z,1,,,,,,,,0.53249,1,,,,,,287,NW,"ID",50,nymbel,NYMBEL,z,0.53249,,,,,,0.140307617,-0.255439453,0,0,0,,0,56,56,346,1,
,,,,,,,,,,,,,,,,,,5d1f680b4a21e00001818cf2,2020-08-10_17h46.02.656,lexical_decision_task_MP,2020.1.3,MacIntel,60,m,1,,,,,,,,0.501595,1,,,,,,158,WORD,UN,50,detail,ISLAND,m,0.501595,,,,,,0.140307617,-0.255439453,0,0,0,,0,57,57,217,1,
,,,,,,,,,,,,,,,,,,5d1f680b4a21e00001818cf2,2020-08-10_17h46.02.656,lexical_decision_task_MP,2020.1.3,MacIntel,60,z,1,,,,,,,,0.52021,1,,,,,,429,NW,"ID",33,funtle,FUNTLE,z,0.52021,,,,,,0.140307617,-0.255439453,0,0,0,,0,58,58,248,1,
,,,,,,,,,,,,,,,,,,5d1f680b4a21e00001818cf2,2020-08-10_17h46.02.656,lexical_decision_task_MP,2020.1.3,MacIntel,60,m,1,,,,,,,,0.59944,1,,,,,,96,WORD,UN,33,client,IGNORE,m,0.59944,,,,,,0.140307617,-0.255439453,0,0,0,,0,59,59,155,1,
,,,,,,,,,,,,,,,,,,5d1f680b4a21e00001818cf2,2020-08-10_17h46.02.656,lexical_decision_task_MP,2020.1.3,MacIntel,60,m,1,,,,,,,,0.430315,1,,,,,,228,WORD,"ID",33,master,MASTER,m,0.430315,,,,,,0.140307617,-0.255439453,0,0,0,,0,60,60,47,1,
,,,,,,,,,,,,,,,,,,5d1f680b4a21e00001818cf2,2020-08-10_17h46.02.656,lexical_decision_task_MP,2020.1.3,MacIntel,60,z,1,,,,,,,,0.65265,1,,,,,,352,NW,UN,33,clurey,TRINGE,z,0.65265,,,,,,0.140307617,-0.255439453,0,0,0,,0,61,61,411,1,
,,,,,,,,,,,,,,,,,,5d1f680b4a21e00001818cf2,2020-08-10_17h46.02.656,lexical_decision_task_MP,2020.1.3,MacIntel,60,z,1,,,,,,,,0.734095,1,,,,,,377,NW,UN,50,shrile,INJORE,z,0.734095,,,,,,0.140307617,-0.255439453,0,0,0,,0,62,62,436,1,
,,,,,,,,,,,,,,,,,,5d1f680b4a21e00001818cf2,2020-08-10_17h46.02.656,lexical_decision_task_MP,2020.1.3,MacIntel,60,m,1,,,,,,,,0.65289,1,,,,,,212,WORD,"ID",33,verify,VERIFY,m,0.65289,,,,,,0.140307617,-0.255439453,0,0,0,,0,63,63,31,1,
,,,,,,,,,,,,,,,,,,5d1f680b4a21e00001818cf2,2020-08-10_17h46.02.656,lexical_decision_task_MP,2020.1.3,MacIntel,60,z,1,,,,,,,,0.53983,1,,,,,,259,NW,"ID",50,soudal,SOUDAL,z,0.53983,,,,,,0.140307617,-0.255439453,0,0,0,,0,64,64,318,1,
,,,,,,,,,,,,,,,,,,5d1f680b4a21e00001818cf2,2020-08-10_17h46.02.656,lexical_decision_task_MP,2020.1.3,MacIntel,60,m,1,,,,,,,,0.48535,1,,,,,,80,WORD,UN,33,friend,FAMILY,m,0.48535,,,,,,0.140307617,-0.255439453,0,0,0,,0,65,65,139,1,
,,,,,,,,,,,,,,,,,,5d1f680b4a21e00001818cf2,2020-08-10_17h46.02.656,lexical_decision_task_MP,2020.1.3,MacIntel,60,z,1,,,,,,,,0.536865,1,,,,,,442,NW,"ID",33,aboune,ABOUNE,z,0.536865,,,,,,0.140307617,-0.255439453,0,0,0,,0,66,66,261,1,
,,,,,,,,,,,,,,,,,,5d1f680b4a21e00001818cf2,2020-08-10_17h46.02.656,lexical_decision_task_MP,2020.1.3,MacIntel,60,m,1,,,,,,,,0.454665,1,,,,,,31,WORD,"ID",50,weapon,WEAPON,m,0.454665,,,,,,0.140307617,-0.255439453,0,0,0,,0,67,67,90,1,
,,,,,,,,,,,,,,,,,,5d1f680b4a21e00001818cf2,2020-08-10_17h46.02.656,lexical_decision_task_MP,2020.1.3,MacIntel,60,z,1,,,,,,,,0.466075,1,,,,,,300,NW,"ID",50,yarion,YARION,z,0.466075,,,,,,0.140307617,-0.255439453,0,0,0,,0,68,68,359,1,
,,,,,,,,,,,,,,,,,,5d1f680b4a21e00001818cf2,2020-08-10_17h46.02.656,lexical_decision_task_MP,2020.1.3,MacIntel,60,z,1,,,,,,,,0.571925,1,,,,,,248,NW,"ID",50,strole,STROLE,z,0.571925,,,,,,0.140307617,-0.255439453,0,0,0,,0,69,69,307,1,
,,,,,,,,,,,,,,,,,,5d1f680b4a21e00001818cf2,2020-08-10_17h46.02.656,lexical_decision_task_MP,2020.1.3,MacIntel,60,m,1,,,,,,,,1.033985,1,,,,,,121,WORD,UN,50,linger,THRIVE,m,1.033985,,,,,,0.140307617,-0.255439453,0,0,0,,0,70,70,180,1,
,,,,,,,,,,,,,,,,,,5d1f680b4a21e00001818cf2,2020-08-10_17h46.02.656,lexical_decision_task_MP,2020.1.3,MacIntel,60,z,1,,,,,,,,0.51778,1,,,,,,387,NW,UN,50,cragin,GRONCE,z,0.51778,,,,,,0.140307617,-0.255439453,0,0,0,,0,71,71,446,1,
,,,,,,,,,,,,,,,,,,5d1f680b4a21e00001818cf2,2020-08-10_17h46.02.656,lexical_decision_task_MP,2020.1.3,MacIntel,60,z,1,,,,,,,,0.48115,1,,,,,,404,NW,UN,50,flumni,CLUIRM,z,0.48115,,,,,,0.140307617,-0.255439453,0,0,0,,0,72,72,463,1,
,,,,,,,,,,,,,,,,,,5d1f680b4a21e00001818cf2,2020-08-10_17h46.02.656,lexical_decision_task_MP,2020.1.3,MacIntel,60,z,1,,,,,,,,0.601025,1,,,,,,445,NW,"ID",33,minkel,MINKEL,z,0.601025,,,,,,0.140307617,-0.255439453,0,0,0,,0,73,73,264,1,
,,,,,,,,,,,,,,,,,,5d1f680b4a21e00001818cf2,2020-08-10_17h46.02.656,lexical_decision_task_MP,2020.1.3,MacIntel,60,m,1,,,,,,,,0.419935,1,,,,,,190,WORD,"ID",33,backup,BACKUP,m,0.419935,,,,,,0.140307617,-0.255439453,0,0,0,,0,74,74,9,1,
,,,,,,,,,,,,,,,,,,5d1f680b4a21e00001818cf2,2020-08-10_17h46.02.656,lexical_decision_task_MP,2020.1.3,MacIntel,60,z,1,,,,,,,,0.5336,1,,,,,,452,NW,"ID",33,surden,SURDEN,z,0.5336,,,,,,0.140307617,-0.255439453,0,0,0,,0,75,75,271,1,
,,,,,,,,,,,,,,,,,,5d1f680b4a21e00001818cf2,2020-08-10_17h46.02.656,lexical_decision_task_MP,2020.1.3,MacIntel,60,z,1,,,,,,,,0.42138,1,,,,,,459,NW,"ID",33,bafent,BAFENT,z,0.42138,,,,,,0.140307617,-0.255439453,0,0,0,,0,76,76,278,1,
,,,,,,,,,,,,,,,,,,5d1f680b4a21e00001818cf2,2020-08-10_17h46.02.656,lexical_decision_task_MP,2020.1.3,MacIntel,60,z,1,,,,,,,,0.433915,1,,,,,,246,NW,"ID",50,piaton,PIATON,z,0.433915,,,,,,0.140307617,-0.255439453,0,0,0,,0,77,77,305,1,
,,,,,,,,,,,,,,,,,,5d1f680b4a21e00001818cf2,2020-08-10_17h46.02.656,lexical_decision_task_MP,2020.1.3,MacIntel,60,z,1,,,,,,,,0.40305,1,,,,,,296,NW,"ID",50,beinch,BEINCH,z,0.40305,,,,,,0.140307617,-0.255439453,0,0,0,,0,78,78,355,1,
,,,,,,,,,,,,,,,,,,5d1f680b4a21e00001818cf2,2020-08-10_17h46.02.656,lexical_decision_task_MP,2020.1.3,MacIntel,60,z,1,,,,,,,,0.48476,1,,,,,,272,NW,"ID",50,damilt,DAMILT,z,0.48476,,,,,,0.140307617,-0.255439453,0,0,0,,0,79,79,331,1,
,,,,,,,,,,,,,,,,,,5d1f680b4a21e00001818cf2,2020-08-10_17h46.02.656,lexical_decision_task_MP,2020.1.3,MacIntel,60,m,1,,,,,,,,0.618115,1,,,,,,118,WORD,UN,33,spider,FLIGHT,m,0.618115,,,,,,0.140307617,-0.255439453,0,0,0,,0,80,80,177,1,
,,,,,,,,,,,,,,,,,,5d1f680b4a21e00001818cf2,2020-08-10_17h46.02.656,lexical_decision_task_MP,2020.1.3,MacIntel,60,z,1,,,,,,,,0.530795,1,,,,,,376,NW,UN,50,veigma,IGUARE,z,0.530795,,,,,,0.140307617,-0.255439453,0,0,0,,0,81,81,435,1,
,,,,,,,,,,,,,,,,,,5d1f680b4a21e00001818cf2,2020-08-10_17h46.02.656,lexical_decision_task_MP,2020.1.3,MacIntel,60,z,1,,,,,,,,0.49829,1,,,,,,265,NW,"ID",50,distar,DISTAR,z,0.49829,,,,,,0.140307617,-0.255439453,0,0,0,,0,82,82,324,1,
,,,,,,,,,,,,,,,,,,5d1f680b4a21e00001818cf2,2020-08-10_17h46.02.656,lexical_decision_task_MP,2020.1.3,MacIntel,60,z,1,,,,,,,,0.502845,1,,,,,,456,NW,"ID",33,broget,BROGET,z,0.502845,,,,,,0.140307617,-0.255439453,0,0,0,,0,83,83,275,1,
,,,,,,,,,,,,,,,,,,5d1f680b4a21e00001818cf2,2020-08-10_17h46.02.656,lexical_decision_task_MP,2020.1.3,MacIntel,60,z,1,,,,,,,,0.484105,1,,,,,,474,NW,"ID",33,hablin,HABLIN,z,0.484105,,,,,,0.140307617,-0.255439453,0,0,0,,0,84,84,293,1,
,,,,,,,,,,,,,,,,,,5d1f680b4a21e00001818cf2,2020-08-10_17h46.02.656,lexical_decision_task_MP,2020.1.3,MacIntel,60,m,1,,,,,,,,0.482775,1,,,,,,17,WORD,"ID",50,charge,CHARGE,m,0.482775,,,,,,0.140307617,-0.255439453,0,0,0,,0,85,85,76,1,
,,,,,,,,,,,,,,,,,,5d1f680b4a21e00001818cf2,2020-08-10_17h46.02.656,lexical_decision_task_MP,2020.1.3,MacIntel,60,m,1,,,,,,,,0.4694,1,,,,,,57,WORD,"ID",50,change,CHANGE,m,0.4694,,,,,,0.140307617,-0.255439453,0,0,0,,0,86,86,116,1,
,,,,,,,,,,,,,,,,,,5d1f680b4a21e00001818cf2,2020-08-10_17h46.02.656,lexical_decision_task_MP,2020.1.3,MacIntel,60,m,1,,,,,,,,0.60805,1,,,,,,114,WORD,UN,33,guitar,PLACID,m,0.60805,,,,,,0.140307617,-0.255439453,0,0,0,,0,87,87,173,1,
,,,,,,,,,,,,,,,,,,5d1f680b4a21e00001818cf2,2020-08-10_17h46.02.656,lexical_decision_task_MP,2020.1.3,MacIntel,60,m,1,,,,,,,,0.431135,1,,,,,,189,WORD,"ID",33,censor,CENSOR,m,0.431135,,,,,,0.140307617,-0.255439453,0,0,0,,0,88,88,8,1,
,,,,,,,,,,,,,,,,,,5d1f680b4a21e00001818cf2,2020-08-10_17h46.02.656,lexical_decision_task_MP,2020.1.3,MacIntel,60,m,1,,,,,,,,0.450005,1,,,,,,34,WORD,"ID",50,jungle,JUNGLE,m,0.450005,,,,,,0.140307617,-0.255439453,0,0,0,,0,89,89,93,1,
,,,,,,,,,,,,,,,,,,5d1f680b4a21e00001818cf2,2020-08-10_17h46.02.656,lexical_decision_task_MP,2020.1.3,MacIntel,60,z,1,,,,,,,,0.484805,1,,,,,,328,NW,UN,33,yarike,BROAKE,z,0.484805,,,,,,0.140307617,-0.255439453,0,0,0,,0,90,90,387,1,
,,,,,,,,,,,,,,,,,,5d1f680b4a21e00001818cf2,2020-08-10_17h46.02.656,lexical_decision_task_MP,2020.1.3,MacIntel,60,m,1,,,,,,,,0.46668,1,,,,,,48,WORD,"ID",50,walnut,WALNUT,m,0.46668,,,,,,0.140307617,-0.255439453,0,0,0,,0,91,91,107,1,
,,,,,,,,,,,,,,,,,,5d1f680b4a21e00001818cf2,2020-08-10_17h46.02.656,lexical_decision_task_MP,2020.1.3,MacIntel,60,m,1,,,,,,,,0.434415,1,,,,,,58,WORD,"ID",50,foster,FOSTER,m,0.434415,,,,,,0.140307617,-0.255439453,0,0,0,,0,92,92,117,1,
,,,,,,,,,,,,,,,,,,5d1f680b4a21e00001818cf2,2020-08-10_17h46.02.656,lexical_decision_task_MP,2020.1.3,MacIntel,60,z,1,,,,,,,,0.558165,1,,,,,,243,NW,"ID",50,musied,MUSIED,z,0.558165,,,,,,0.140307617,-0.255439453,0,0,0,,0,93,93,302,1,
,,,,,,,,,,,,,,,,,,5d1f680b4a21e00001818cf2,2020-08-10_17h46.02.656,lexical_decision_task_MP,2020.1.3,MacIntel,60,m,1,,,,,,,,0.48347,1,,,,,,98,WORD,UN,33,fluent,BELONG,m,0.48347,,,,,,0.140307617,-0.255439453,0,0,0,,0,94,94,157,1,
,,,,,,,,,,,,,,,,,,5d1f680b4a21e00001818cf2,2020-08-10_17h46.02.656,lexical_decision_task_MP,2020.1.3,MacIntel,60,m,0,,,,,,,,0.534905,0,,,,,,305,NW,UN,33,sounge,FORGLE,z,0.534905,,,,,,0.140307617,-0.255439453,0,0,0,,0,95,95,364,1,
,,,,,,,,,,,,,,,,,,5d1f680b4a21e00001818cf2,2020-08-10_17h46.02.656,lexical_decision_task_MP,2020.1.3,MacIntel,60,z,0,,,,,,,,0.5631,0,,,,,,183,WORD,"ID",33,mildew,MILDEW,m,0.5631,,,,,,0.140307617,-0.255439453,0,0,0,,0,96,96,2,1,
,,,,,,,,,,,,,,,,,,5d1f680b4a21e00001818cf2,2020-08-10_17h46.02.656,lexical_decision_task_MP,2020.1.3,MacIntel,60,z,1,,,,,,,,0.61547,1,,,,,,319,NW,UN,33,jockal,ZOMBER,z,0.61547,,,,,,0.140307617,-0.255439453,0,0,0,,0,97,97,378,1,
,,,,,,,,,,,,,,,,,,5d1f680b4a21e00001818cf2,2020-08-10_17h46.02.656,lexical_decision_task_MP,2020.1.3,MacIntel,60,z,1,,,,,,,,0.515475,1,,,,,,466,NW,"ID",33,hocite,HOCITE,z,0.515475,,,,,,0.140307617,-0.255439453,0,0,0,,0,98,98,285,1,
,,,,,,,,,,,,,,,,,,5d1f680b4a21e00001818cf2,2020-08-10_17h46.02.656,lexical_decision_task_MP,2020.1.3,MacIntel,60,m,1,,,,,,,,0.549225,1,,,,,,238,WORD,"ID",33,flower,FLOWER,m,0.549225,,,,,,0.140307617,-0.255439453,0,0,0,,0,99,99,57,1,
,,,,,,,,,,,,,,,,,,5d1f680b4a21e00001818cf2,2020-08-10_17h46.02.656,lexical_decision_task_MP,2020.1.3,MacIntel,60,z,1,,,,,,,,0.514325,1,,,,,,291,NW,"ID",50,pretch,PRETCH,z,0.514325,,,,,,0.140307617,-0.255439453,0,0,0,,0,100,100,350,1,
,,,,,,,,,,,,,,,,,,5d1f680b4a21e00001818cf2,2020-08-10_17h46.02.656,lexical_decision_task_MP,2020.1.3,MacIntel,60,z,1,,,,,,,,0.53991,1,,,,,,370,NW,UN,50,geiloy,SLEACT,z,0.53991,,,,,,0.140307617,-0.255439453,0,0,0,,0,101,101,429,1,
,,,,,,,,,,,,,,,,,,5d1f680b4a21e00001818cf2,2020-08-10_17h46.02.656,lexical_decision_task_MP,2020.1.3,MacIntel,60,m,1,,,,,,,,0.46413,1,,,,,,137,WORD,UN,50,melody,FINGER,m,0.46413,,,,,,0.140307617,-0.255439453,0,0,0,,0,102,102,196,1,
,,,,,,,,,,,,,,,,,,5d1f680b4a21e00001818cf2,2020-08-10_17h46.02.656,lexical_decision_task_MP,2020.1.3,MacIntel,60,m,1,,,,,,,,0.64799,1,,,,,,4,WORD,"ID",50,trench,TRENCH,m,0.64799,,,,,,0.140307617,-0.255439453,0,0,0,,0,103,103,63,1,
,,,,,,,,,,,,,,,,,,5d1f680b4a21e00001818cf2,2020-08-10_17h46.02.656,lexical_decision_task_MP,2020.1.3,MacIntel,60,z,1,,,,,,,,0.727295,1,,,,,,426,NW,"ID",33,urivel,URIVEL,z,0.727295,,,,,,0.140307617,-0.255439453,0,0,0,,0,104,104,245,1,
,,,,,,,,,,,,,,,,,,5d1f680b4a21e00001818cf2,2020-08-10_17h46.02.656,lexical_decision_task_MP,2020.1.3,MacIntel,60,m,1,,,,,,,,0.56461,1,,,,,,77,WORD,UN,33,column,RACKET,m,0.56461,,,,,,0.140307617,-0.255439453,0,0,0,,0,105,105,136,1,
,,,,,,,,,,,,,,,,,,5d1f680b4a21e00001818cf2,2020-08-10_17h46.02.656,lexical_decision_task_MP,2020.1.3,MacIntel,60,z,1,,,,,,,,0.537925,1,,,,,,304,NW,UN,33,forgle,CLUDIE,z,0.537925,,,,,,0.140307617,-0.255439453,0,0,0,,0,106,106,363,1,
,,,,,,,,,,,,,,,,,,5d1f680b4a21e00001818cf2,2020-08-10_17h46.02.656,lexical_decision_task_MP,2020.1.3,MacIntel,60,m,1,,,,,,,,0.50439,1,,,,,,125,WORD,UN,50,enough,NICKEL,m,0.50439,,,,,,0.140307617,-0.255439453,0,0,0,,0,107,107,184,1,
,,,,,,,,,,,,,,,,,,5d1f680b4a21e00001818cf2,2020-08-10_17h46.02.656,lexical_decision_task_MP,2020.1.3,MacIntel,60,z,1,,,,,,,,0.540615,1,,,,,,289,NW,"ID",50,starby,STARBY,z,0.540615,,,,,,0.140307617,-0.255439453,0,0,0,,0,108,108,348,1,
,,,,,,,,,,,,,,,,,,5d1f680b4a21e00001818cf2,2020-08-10_17h46.02.656,lexical_decision_task_MP,2020.1.3,MacIntel,60,z,1,,,,,,,,0.47358,1,,,,,,286,NW,"ID",50,reldon,RELDON,z,0.47358,,,,,,0.140307617,-0.255439453,0,0,0,,0,109,109,345,1,
,,,,,,,,,,,,,,,,,,5d1f680b4a21e00001818cf2,2020-08-10_17h46.02.656,lexical_decision_task_MP,2020.1.3,MacIntel,60,m,1,,,,,,,,0.497745,1,,,,,,126,WORD,UN,50,castle,ENOUGH,m,0.497745,,,,,,0.140307617,-0.255439453,0,0,0,,0,110,110,185,1,
,,,,,,,,,,,,,,,,,,5d1f680b4a21e00001818cf2,2020-08-10_17h46.02.656,lexical_decision_task_MP,2020.1.3,MacIntel,60,z,1,,,,,,,,0.46991,1,,,,,,326,NW,UN,33,plenac,IGUADE,z,0.46991,,,,,,0.140307617,-0.255439453,0,0,0,,0,111,111,385,1,
,,,,,,,,,,,,,,,,,,5d1f680b4a21e00001818cf2,2020-08-10_17h46.02.656,lexical_decision_task_MP,2020.1.3,MacIntel,60,m,1,,,,,,,,0.48608,1,,,,,,20,WORD,"ID",50,breast,BREAST,m,0.48608,,,,,,0.140307617,-0.255439453,0,0,0,,0,112,112,79,1,
,,,,,,,,,,,,,,,,,,5d1f680b4a21e00001818cf2,2020-08-10_17h46.02.656,lexical_decision_task_MP,2020.1.3,MacIntel,60,z,1,,,,,,,,0.52309,1,,,,,,331,NW,UN,33,vangue,GILFEW,z,0.52309,,,,,,0.140307617,-0.255439453,0,0,0,,0,113,113,390,1,
,,,,,,,,,,,,,,,,,,5d1f680b4a21e00001818cf2,2020-08-10_17h46.02.656,lexical_decision_task_MP,2020.1.3,MacIntel,60,m,1,,,,,,,,0.46624,1,,,,,,231,WORD,"ID",33,export,EXPORT,m,0.46624,,,,,,0.140307617,-0.255439453,0,0,0,,0,114,114,50,1,
,,,,,,,,,,,,,,,,,,5d1f680b4a21e00001818cf2,2020-08-10_17h46.02.656,lexical_decision_task_MP,2020.1.3,MacIntel,60,z,1,,,,,,,,0.46708,1,,,,,,277,NW,"ID",50,petain,PETAIN,z,0.46708,,,,,,0.140307617,-0.255439453,0,0,0,,0,115,115,336,1,
,,,,,,,,,,,,,,,,,,5d1f680b4a21e00001818cf2,2020-08-10_17h46.02.656,lexical_decision_task_MP,2020.1.3,MacIntel,60,m,1,,,,,,,,0.55439,1,,,,,,186,WORD,"ID",33,portal,PORTAL,m,0.55439,,,,,,0.140307617,-0.255439453,0,0,0,,0,116,116,5,1,
,,,,,,,,,,,,,,,,,,5d1f680b4a21e00001818cf2,2020-08-10_17h46.02.656,lexical_decision_task_MP,2020.1.3,MacIntel,60,z,1,,,,,,,,0.755615,1,,,,,,357,NW,UN,33,fleack,DERAIN,z,0.755615,,,,,,0.140307617,-0.255439453,0,0,0,,0,117,117,416,1,
,,,,,,,,,,,,,,,,,,5d1f680b4a21e00001818cf2,2020-08-10_17h46.02.656,lexical_decision_task_MP,2020.1.3,MacIntel,60,z,1,,,,,,,,0.531635,1,,,,,,257,NW,"ID",50,veniod,VENIOD,z,0.531635,,,,,,0.140307617,-0.255439453,0,0,0,,0,118,118,316,1,
,,,,,,,,,,,,,,,,,,5d1f680b4a21e00001818cf2,2020-08-10_17h46.02.656,lexical_decision_task_MP,2020.1.3,MacIntel,60,z,1,,,,,,,,0.558495,1,,,,,,453,NW,"ID",33,bolvis,BOLVIS,z,0.558495,,,,,,0.140307617,-0.255439453,0,0,0,,0,119,119,272,1,
,,,,,,,,,,,,,,,,,,5d1f680b4a21e00001818cf2,2020-08-10_17h46.02.656,lexical_decision_task_MP,2020.1.3,MacIntel,60,m,1,,,,,,,,0.735205,1,,,,,,161,WORD,UN,50,candle,PASTOR,m,0.735205,,,,,,0.140307617,-0.255439453,0,0,0,space,0,120,120,220,1,11.7859
,,,,,,,,,,,,,,,,,,5d1f680b4a21e00001818cf2,2020-08-10_17h46.02.656,lexical_decision_task_MP,2020.1.3,MacIntel,60,z,1,,,,,,,,0.572375,1,,,,,,256,NW,"ID",50,inlors,INLORS,z,0.572375,,,,,,0.140307617,-0.255439453,0,0,0,,0,121,121,315,1,
,,,,,,,,,,,,,,,,,,5d1f680b4a21e00001818cf2,2020-08-10_17h46.02.656,lexical_decision_task_MP,2020.1.3,MacIntel,60,m,1,,,,,,,,0.504425,1,,,,,,201,WORD,"ID",33,admire,ADMIRE,m,0.504425,,,,,,0.140307617,-0.255439453,0,0,0,,0,122,122,20,1,
,,,,,,,,,,,,,,,,,,5d1f680b4a21e00001818cf2,2020-08-10_17h46.02.656,lexical_decision_task_MP,2020.1.3,MacIntel,60,m,1,,,,,,,,0.465475,1,,,,,,178,WORD,UN,50,basket,INFORM,m,0.465475,,,,,,0.140307617,-0.255439453,0,0,0,,0,123,123,237,1,
,,,,,,,,,,,,,,,,,,5d1f680b4a21e00001818cf2,2020-08-10_17h46.02.656,lexical_decision_task_MP,2020.1.3,MacIntel,60,z,1,,,,,,,,0.48896,1,,,,,,255,NW,"ID",50,apight,APIGHT,z,0.48896,,,,,,0.140307617,-0.255439453,0,0,0,,0,124,124,314,1,
,,,,,,,,,,,,,,,,,,5d1f680b4a21e00001818cf2,2020-08-10_17h46.02.656,lexical_decision_task_MP,2020.1.3,MacIntel,60,m,1,,,,,,,,0.47186,1,,,,,,32,WORD,"ID",50,buckle,BUCKLE,m,0.47186,,,,,,0.140307617,-0.255439453,0,0,0,,0,125,125,91,1,
,,,,,,,,,,,,,,,,,,5d1f680b4a21e00001818cf2,2020-08-10_17h46.02.656,lexical_decision_task_MP,2020.1.3,MacIntel,60,z,1,,,,,,,,0.598305,1,,,,,,405,NW,UN,50,nouply,FLUMNI,z,0.598305,,,,,,0.140307617,-0.255439453,0,0,0,,0,126,126,464,1,
,,,,,,,,,,,,,,,,,,5d1f680b4a21e00001818cf2,2020-08-10_17h46.02.656,lexical_decision_task_MP,2020.1.3,MacIntel,60,z,1,,,,,,,,0.478995,1,,,,,,283,NW,"ID",50,veralf,VERALF,z,0.478995,,,,,,0.140307617,-0.255439453,0,0,0,,0,127,127,342,1,
,,,,,,,,,,,,,,,,,,5d1f680b4a21e00001818cf2,2020-08-10_17h46.02.656,lexical_decision_task_MP,2020.1.3,MacIntel,60,m,1,,,,,,,,0.56672,1,,,,,,115,WORD,UN,33,tumble,GUITAR,m,0.56672,,,,,,0.140307617,-0.255439453,0,0,0,,0,128,128,174,1,
,,,,,,,,,,,,,,,,,,5d1f680b4a21e00001818cf2,2020-08-10_17h46.02.656,lexical_decision_task_MP,2020.1.3,MacIntel,60,z,1,,,,,,,,0.49951,1,,,,,,465,NW,"ID",33,whivex,WHIVEX,z,0.49951,,,,,,0.140307617,-0.255439453,0,0,0,,0,129,129,284,1,
,,,,,,,,,,,,,,,,,,5d1f680b4a21e00001818cf2,2020-08-10_17h46.02.656,lexical_decision_task_MP,2020.1.3,MacIntel,60,m,1,,,,,,,,0.58425,1,,,,,,120,WORD,UN,33,ponder,STRAIN,m,0.58425,,,,,,0.140307617,-0.255439453,0,0,0,,0,130,130,179,1,
,,,,,,,,,,,,,,,,,,5d1f680b4a21e00001818cf2,2020-08-10_17h46.02.656,lexical_decision_task_MP,2020.1.3,MacIntel,60,z,1,,,,,,,,0.519325,1,,,,,,320,NW,UN,33,miator,JOCKAL,z,0.519325,,,,,,0.140307617,-0.255439453,0,0,0,,0,131,131,379,1,
,,,,,,,,,,,,,,,,,,5d1f680b4a21e00001818cf2,2020-08-10_17h46.02.656,lexical_decision_task_MP,2020.1.3,MacIntel,60,m,0,,,,,,,,0.64633,0,,,,,,411,NW,UN,50,jiluer,ORCHIN,z,0.64633,,,,,,0.140307617,-0.255439453,0,0,0,,0,132,132,470,1,
,,,,,,,,,,,,,,,,,,5d1f680b4a21e00001818cf2,2020-08-10_17h46.02.656,lexical_decision_task_MP,2020.1.3,MacIntel,60,z,1,,,,,,,,0.60076,1,,,,,,298,NW,"ID",50,piergy,PIERGY,z,0.60076,,,,,,0.140307617,-0.255439453,0,0,0,,0,133,133,357,1,
,,,,,,,,,,,,,,,,,,5d1f680b4a21e00001818cf2,2020-08-10_17h46.02.656,lexical_decision_task_MP,2020.1.3,MacIntel,60,z,1,,,,,,,,0.44024,1,,,,,,396,NW,UN,50,camble,FLENGY,z,0.44024,,,,,,0.140307617,-0.255439453,0,0,0,,0,134,134,455,1,
,,,,,,,,,,,,,,,,,,5d1f680b4a21e00001818cf2,2020-08-10_17h46.02.656,lexical_decision_task_MP,2020.1.3,MacIntel,60,z,1,,,,,,,,0.47035,1,,,,,,339,NW,UN,33,fiatch,FACHOW,z,0.47035,,,,,,0.140307617,-0.255439453,0,0,0,,0,135,135,398,1,
,,,,,,,,,,,,,,,,,,5d1f680b4a21e00001818cf2,2020-08-10_17h46.02.656,lexical_decision_task_MP,2020.1.3,MacIntel,60,m,1,,,,,,,,0.60513,1,,,,,,78,WORD,UN,33,theory,COLUMN,m,0.60513,,,,,,0.140307617,-0.255439453,0,0,0,,0,136,136,137,1,
,,,,,,,,,,,,,,,,,,5d1f680b4a21e00001818cf2,2020-08-10_17h46.02.656,lexical_decision_task_MP,2020.1.3,MacIntel,60,m,1,,,,,,,,0.565535,1,,,,,,144,WORD,UN,50,parish,SPONGE,m,0.565535,,,,,,0.140307617,-0.255439453,0,0,0,,0,137,137,203,1,
,,,,,,,,,,,,,,,,,,5d1f680b4a21e00001818cf2,2020-08-10_17h46.02.656,lexical_decision_task_MP,2020.1.3,MacIntel,60,m,1,,,,,,,,0.60692,1,,,,,,108,WORD,UN,33,wonder,RECKON,m,0.60692,,,,,,0.140307617,-0.255439453,0,0,0,,0,138,138,167,1,
,,,,,,,,,,,,,,,,,,5d1f680b4a21e00001818cf2,2020-08-10_17h46.02.656,lexical_decision_task_MP,2020.1.3,MacIntel,60,m,1,,,,,,,,0.5277,1,,,,,,134,WORD,UN,50,import,STAPLE,m,0.5277,,,,,,0.140307617,-0.255439453,0,0,0,,0,139,139,193,1,
,,,,,,,,,,,,,,,,,,5d1f680b4a21e00001818cf2,2020-08-10_17h46.02.656,lexical_decision_task_MP,2020.1.3,MacIntel,60,m,1,,,,,,,,0.44869,1,,,,,,216,WORD,"ID",33,behalf,BEHALF,m,0.44869,,,,,,0.140307617,-0.255439453,0,0,0,,0,140,140,35,1,
,,,,,,,,,,,,,,,,,,5d1f680b4a21e00001818cf2,2020-08-10_17h46.02.656,lexical_decision_task_MP,2020.1.3,MacIntel,60,z,1,,,,,,,,0.500695,1,,,,,,333,NW,UN,33,watmeg,CATRIE,z,0.500695,,,,,,0.140307617,-0.255439453,0,0,0,,0,141,141,392,1,
,,,,,,,,,,,,,,,,,,5d1f680b4a21e00001818cf2,2020-08-10_17h46.02.656,lexical_decision_task_MP,2020.1.3,MacIntel,60,m,1,,,,,,,,0.519105,1,,,,,,25,WORD,"ID",50,domain,DOMAIN,m,0.519105,,,,,,0.140307617,-0.255439453,0,0,0,,0,142,142,84,1,
,,,,,,,,,,,,,,,,,,5d1f680b4a21e00001818cf2,2020-08-10_17h46.02.656,lexical_decision_task_MP,2020.1.3,MacIntel,60,m,1,,,,,,,,0.514165,1,,,,,,235,WORD,"ID",33,grumpy,GRUMPY,m,0.514165,,,,,,0.140307617,-0.255439453,0,0,0,,0,143,143,54,1,
,,,,,,,,,,,,,,,,,,5d1f680b4a21e00001818cf2,2020-08-10_17h46.02.656,lexical_decision_task_MP,2020.1.3,MacIntel,60,m,1,,,,,,,,0.41524,1,,,,,,46,WORD,"ID",50,single,SINGLE,m,0.41524,,,,,,0.140307617,-0.255439453,0,0,0,,0,144,144,105,1,
,,,,,,,,,,,,,,,,,,5d1f680b4a21e00001818cf2,2020-08-10_17h46.02.656,lexical_decision_task_MP,2020.1.3,MacIntel,60,m,1,,,,,,,,0.42273,1,,,,,,143,WORD,UN,50,sponge,REASON,m,0.42273,,,,,,0.140307617,-0.255439453,0,0,0,,0,145,145,202,1,
,,,,,,,,,,,,,,,,,,5d1f680b4a21e00001818cf2,2020-08-10_17h46.02.656,lexical_decision_task_MP,2020.1.3,MacIntel,60,m,1,,,,,,,,0.448325,1,,,,,,79,WORD,UN,33,family,THEORY,m,0.448325,,,,,,0.140307617,-0.255439453,0,0,0,,0,146,146,138,1,
,,,,,,,,,,,,,,,,,,5d1f680b4a21e00001818cf2,2020-08-10_17h46.02.656,lexical_decision_task_MP,2020.1.3,MacIntel,60,m,1,,,,,,,,0.51873,1,,,,,,72,WORD,UN,33,source,BRIGHT,m,0.51873,,,,,,0.140307617,-0.255439453,0,0,0,,0,147,147,131,1,
,,,,,,,,,,,,,,,,,,5d1f680b4a21e00001818cf2,2020-08-10_17h46.02.656,lexical_decision_task_MP,2020.1.3,MacIntel,60,z,1,,,,,,,,0.85413,1,,,,,,284,NW,"ID",50,shaple,SHAPLE,z,0.85413,,,,,,0.140307617,-0.255439453,0,0,0,,0,148,148,343,1,
,,,,,,,,,,,,,,,,,,5d1f680b4a21e00001818cf2,2020-08-10_17h46.02.656,lexical_decision_task_MP,2020.1.3,MacIntel,60,z,1,,,,,,,,0.51693,1,,,,,,457,NW,"ID",33,wanigh,WANIGH,z,0.51693,,,,,,0.140307617,-0.255439453,0,0,0,,0,149,149,276,1,
,,,,,,,,,,,,,,,,,,5d1f680b4a21e00001818cf2,2020-08-10_17h46.02.656,lexical_decision_task_MP,2020.1.3,MacIntel,60,z,1,,,,,,,,0.53183,1,,,,,,342,NW,UN,33,aimosy,RANDOW,z,0.53183,,,,,,0.140307617,-0.255439453,0,0,0,,0,150,150,401,1,
,,,,,,,,,,,,,,,,,,5d1f680b4a21e00001818cf2,2020-08-10_17h46.02.656,lexical_decision_task_MP,2020.1.3,MacIntel,60,z,1,,,,,,,,0.77068,1,,,,,,343,NW,UN,33,scrily,AIMOSY,z,0.77068,,,,,,0.140307617,-0.255439453,0,0,0,,0,151,151,402,1,
,,,,,,,,,,,,,,,,,,5d1f680b4a21e00001818cf2,2020-08-10_17h46.02.656,lexical_decision_task_MP,2020.1.3,MacIntel,60,m,1,,,,,,,,0.48665,1,,,,,,218,WORD,"ID",33,shrink,SHRINK,m,0.48665,,,,,,0.140307617,-0.255439453,0,0,0,,0,152,152,37,1,
,,,,,,,,,,,,,,,,,,5d1f680b4a21e00001818cf2,2020-08-10_17h46.02.656,lexical_decision_task_MP,2020.1.3,MacIntel,60,m,1,,,,,,,,0.53375,1,,,,,,123,WORD,UN,50,blouse,STRIKE,m,0.53375,,,,,,0.140307617,-0.255439453,0,0,0,,0,153,153,182,1,
,,,,,,,,,,,,,,,,,,5d1f680b4a21e00001818cf2,2020-08-10_17h46.02.656,lexical_decision_task_MP,2020.1.3,MacIntel,60,z,1,,,,,,,,0.472285,1,,,,,,350,NW,UN,33,tiesch,NAGURS,z,0.472285,,,,,,0.140307617,-0.255439453,0,0,0,,0,154,154,409,1,
,,,,,,,,,,,,,,,,,,5d1f680b4a21e00001818cf2,2020-08-10_17h46.02.656,lexical_decision_task_MP,2020.1.3,MacIntel,60,z,1,,,,,,,,0.4816,1,,,,,,389,NW,UN,50,hatrus,WITMER,z,0.4816,,,,,,0.140307617,-0.255439453,0,0,0,,0,155,155,448,1,
,,,,,,,,,,,,,,,,,,5d1f680b4a21e00001818cf2,2020-08-10_17h46.02.656,lexical_decision_task_MP,2020.1.3,MacIntel,60,z,1,,,,,,,,0.538465,1,,,,,,449,NW,"ID",33,brunge,BRUNGE,z,0.538465,,,,,,0.140307617,-0.255439453,0,0,0,,0,156,156,268,1,
,,,,,,,,,,,,,,,,,,5d1f680b4a21e00001818cf2,2020-08-10_17h46.02.656,lexical_decision_task_MP,2020.1.3,MacIntel,60,z,1,,,,,,,,0.451995,1,,,,,,290,NW,"ID",50,splino,SPLINO,z,0.451995,,,,,,0.140307617,-0.255439453,0,0,0,,0,157,157,349,1,
,,,,,,,,,,,,,,,,,,5d1f680b4a21e00001818cf2,2020-08-10_17h46.02.656,lexical_decision_task_MP,2020.1.3,MacIntel,60,z,1,,,,,,,,0.49015,1,,,,,,444,NW,"ID",33,jaunce,JAUNCE,z,0.49015,,,,,,0.140307617,-0.255439453,0,0,0,,0,158,158,263,1,
,,,,,,,,,,,,,,,,,,5d1f680b4a21e00001818cf2,2020-08-10_17h46.02.656,lexical_decision_task_MP,2020.1.3,MacIntel,60,m,1,,,,,,,,0.469645,1,,,,,,145,WORD,UN,50,couple,PARISH,m,0.469645,,,,,,0.140307617,-0.255439453,0,0,0,,0,159,159,204,1,
,,,,,,,,,,,,,,,,,,5d1f680b4a21e00001818cf2,2020-08-10_17h46.02.656,lexical_decision_task_MP,2020.1.3,MacIntel,60,m,1,,,,,,,,0.386835,1,,,,,,109,WORD,UN,33,polite,WONDER,m,0.386835,,,,,,0.140307617,-0.255439453,0,0,0,,0,160,160,168,1,
,,,,,,,,,,,,,,,,,,5d1f680b4a21e00001818cf2,2020-08-10_17h46.02.656,lexical_decision_task_MP,2020.1.3,MacIntel,60,z,1,,,,,,,,0.55944,1,,,,,,398,NW,UN,50,fouret,BLUNDE,z,0.55944,,,,,,0.140307617,-0.255439453,0,0,0,,0,161,161,457,1,
,,,,,,,,,,,,,,,,,,5d1f680b4a21e00001818cf2,2020-08-10_17h46.02.656,lexical_decision_task_MP,2020.1.3,MacIntel,60,z,1,,,,,,,,0.55028,1,,,,,,400,NW,UN,50,mustil,WEAROX,z,0.55028,,,,,,0.140307617,-0.255439453,0,0,0,,0,162,162,459,1,
,,,,,,,,,,,,,,,,,,5d1f680b4a21e00001818cf2,2020-08-10_17h46.02.656,lexical_decision_task_MP,2020.1.3,MacIntel,60,z,1,,,,,,,,0.49794,1,,,,,,358,NW,UN,33,fonver,FLEACK,z,0.49794,,,,,,0.140307617,-0.255439453,0,0,0,,0,163,163,417,1,
,,,,,,,,,,,,,,,,,,5d1f680b4a21e00001818cf2,2020-08-10_17h46.02.656,lexical_decision_task_MP,2020.1.3,MacIntel,60,z,1,,,,,,,,0.39947,1,,,,,,433,NW,"ID",33,drance,DRANCE,z,0.39947,,,,,,0.140307617,-0.255439453,0,0,0,,0,164,164,252,1,
,,,,,,,,,,,,,,,,,,5d1f680b4a21e00001818cf2,2020-08-10_17h46.02.656,lexical_decision_task_MP,2020.1.3,MacIntel,60,m,1,,,,,,,,0.48128,1,,,,,,26,WORD,"ID",50,sprint,SPRINT,m,0.48128,,,,,,0.140307617,-0.255439453,0,0,0,,0,165,165,85,1,
,,,,,,,,,,,,,,,,,,5d1f680b4a21e00001818cf2,2020-08-10_17h46.02.656,lexical_decision_task_MP,2020.1.3,MacIntel,60,z,1,,,,,,,,0.74051,1,,,,,,244,NW,"ID",50,eatric,EATRIC,z,0.74051,,,,,,0.140307617,-0.255439453,0,0,0,,0,166,166,303,1,
,,,,,,,,,,,,,,,,,,5d1f680b4a21e00001818cf2,2020-08-10_17h46.02.656,lexical_decision_task_MP,2020.1.3,MacIntel,60,z,1,,,,,,,,0.603125,1,,,,,,310,NW,UN,33,sproly,DANIET,z,0.603125,,,,,,0.140307617,-0.255439453,0,0,0,,0,167,167,369,1,
,,,,,,,,,,,,,,,,,,5d1f680b4a21e00001818cf2,2020-08-10_17h46.02.656,lexical_decision_task_MP,2020.1.3,MacIntel,60,z,1,,,,,,,,0.499505,1,,,,,,299,NW,"ID",50,sturch,STURCH,z,0.499505,,,,,,0.140307617,-0.255439453,0,0,0,,0,168,168,358,1,
,,,,,,,,,,,,,,,,,,5d1f680b4a21e00001818cf2,2020-08-10_17h46.02.656,lexical_decision_task_MP,2020.1.3,MacIntel,60,z,1,,,,,,,,0.74016,1,,,,,,312,NW,UN,33,paurse,NERAWL,z,0.74016,,,,,,0.140307617,-0.255439453,0,0,0,,0,169,169,371,1,
,,,,,,,,,,,,,,,,,,5d1f680b4a21e00001818cf2,2020-08-10_17h46.02.656,lexical_decision_task_MP,2020.1.3,MacIntel,60,m,1,,,,,,,,0.515665,1,,,,,,93,WORD,UN,33,travel,PUBLIC,m,0.515665,,,,,,0.140307617,-0.255439453,0,0,0,,0,170,170,152,1,
,,,,,,,,,,,,,,,,,,5d1f680b4a21e00001818cf2,2020-08-10_17h46.02.656,lexical_decision_task_MP,2020.1.3,MacIntel,60,z,1,,,,,,,,0.47162,1,,,,,,369,NW,UN,50,sleact,WRONCH,z,0.47162,,,,,,0.140307617,-0.255439453,0,0,0,,0,171,171,428,1,
,,,,,,,,,,,,,,,,,,5d1f680b4a21e00001818cf2,2020-08-10_17h46.02.656,lexical_decision_task_MP,2020.1.3,MacIntel,60,z,1,,,,,,,,0.46783,1,,,,,,412,NW,UN,50,equats,JILUER,z,0.46783,,,,,,0.140307617,-0.255439453,0,0,0,,0,172,172,471,1,
,,,,,,,,,,,,,,,,,,5d1f680b4a21e00001818cf2,2020-08-10_17h46.02.656,lexical_decision_task_MP,2020.1.3,MacIntel,60,m,0,,,,,,,,0.43961,0,,,,,,425,NW,"ID",33,frudge,FRUDGE,z,0.43961,,,,,,0.140307617,-0.255439453,0,0,0,,0,173,173,244,1,
,,,,,,,,,,,,,,,,,,5d1f680b4a21e00001818cf2,2020-08-10_17h46.02.656,lexical_decision_task_MP,2020.1.3,MacIntel,60,z,1,,,,,,,,0.504405,1,,,,,,354,NW,UN,33,zingly,VIRLEX,z,0.504405,,,,,,0.140307617,-0.255439453,0,0,0,,0,174,174,413,1,
,,,,,,,,,,,,,,,,,,5d1f680b4a21e00001818cf2,2020-08-10_17h46.02.656,lexical_decision_task_MP,2020.1.3,MacIntel,60,m,1,,,,,,,,0.46592,1,,,,,,49,WORD,"ID",50,survey,SURVEY,m,0.46592,,,,,,0.140307617,-0.255439453,0,0,0,,0,175,175,108,1,
,,,,,,,,,,,,,,,,,,5d1f680b4a21e00001818cf2,2020-08-10_17h46.02.656,lexical_decision_task_MP,2020.1.3,MacIntel,60,z,1,,,,,,,,0.46762,1,,,,,,373,NW,UN,50,sliant,BIGENT,z,0.46762,,,,,,0.140307617,-0.255439453,0,0,0,,0,176,176,432,1,
,,,,,,,,,,,,,,,,,,5d1f680b4a21e00001818cf2,2020-08-10_17h46.02.656,lexical_decision_task_MP,2020.1.3,MacIntel,60,m,1,,,,,,,,0.70914,1,,,,,,110,WORD,UN,33,induce,POLITE,m,0.70914,,,,,,0.140307617,-0.255439453,0,0,0,,0,177,177,169,1,
,,,,,,,,,,,,,,,,,,5d1f680b4a21e00001818cf2,2020-08-10_17h46.02.656,lexical_decision_task_MP,2020.1.3,MacIntel,60,z,1,,,,,,,,0.449495,1,,,,,,280,NW,"ID",50,curbol,CURBOL,z,0.449495,,,,,,0.140307617,-0.255439453,0,0,0,,0,178,178,339,1,
,,,,,,,,,,,,,,,,,,5d1f680b4a21e00001818cf2,2020-08-10_17h46.02.656,lexical_decision_task_MP,2020.1.3,MacIntel,60,m,1,,,,,,,,0.651645,1,,,,,,90,WORD,UN,33,expand,RELISH,m,0.651645,,,,,,0.140307617,-0.255439453,0,0,0,,0,179,179,149,1,
,,,,,,,,,,,,,,,,,,5d1f680b4a21e00001818cf2,2020-08-10_17h46.02.656,lexical_decision_task_MP,2020.1.3,MacIntel,60,m,1,,,,,,,,0.464735,1,,,,,,40,WORD,"ID",50,convey,CONVEY,m,0.464735,,,,,,0.140307617,-0.255439453,0,0,0,,0,180,180,99,1,
,,,,,,,,,,,,,,,,,,5d1f680b4a21e00001818cf2,2020-08-10_17h46.02.656,lexical_decision_task_MP,2020.1.3,MacIntel,60,z,1,,,,,,,,0.546925,1,,,,,,440,NW,"ID",33,saride,SARIDE,z,0.546925,,,,,,0.140307617,-0.255439453,0,0,0,,0,181,181,259,1,
,,,,,,,,,,,,,,,,,,5d1f680b4a21e00001818cf2,2020-08-10_17h46.02.656,lexical_decision_task_MP,2020.1.3,MacIntel,60,z,1,,,,,,,,0.499285,1,,,,,,385,NW,UN,50,ancust,VEIGMA,z,0.499285,,,,,,0.140307617,-0.255439453,0,0,0,,0,182,182,444,1,
,,,,,,,,,,,,,,,,,,5d1f680b4a21e00001818cf2,2020-08-10_17h46.02.656,lexical_decision_task_MP,2020.1.3,MacIntel,60,z,1,,,,,,,,0.436425,1,,,,,,371,NW,UN,50,ramily,GEILOY,z,0.436425,,,,,,0.140307617,-0.255439453,0,0,0,,0,183,183,430,1,
,,,,,,,,,,,,,,,,,,5d1f680b4a21e00001818cf2,2020-08-10_17h46.02.656,lexical_decision_task_MP,2020.1.3,MacIntel,60,z,1,,,,,,,,0.59915,1,,,,,,417,NW,UN,50,suidle,EAROUD,z,0.59915,,,,,,0.140307617,-0.255439453,0,0,0,,0,184,184,476,1,
,,,,,,,,,,,,,,,,,,5d1f680b4a21e00001818cf2,2020-08-10_17h46.02.656,lexical_decision_task_MP,2020.1.3,MacIntel,60,z,1,,,,,,,,0.418845,1,,,,,,414,NW,UN,50,higsta,SERBOL,z,0.418845,,,,,,0.140307617,-0.255439453,0,0,0,,0,185,185,473,1,
,,,,,,,,,,,,,,,,,,5d1f680b4a21e00001818cf2,2020-08-10_17h46.02.656,lexical_decision_task_MP,2020.1.3,MacIntel,60,z,0,,,,,,,,0.44093,0,,,,,,160,WORD,UN,50,pastor,VIOLET,m,0.44093,,,,,,0.140307617,-0.255439453,0,0,0,,0,186,186,219,1,
,,,,,,,,,,,,,,,,,,5d1f680b4a21e00001818cf2,2020-08-10_17h46.02.656,lexical_decision_task_MP,2020.1.3,MacIntel,60,z,1,,,,,,,,0.524395,1,,,,,,346,NW,UN,33,kerift,SAUDIC,z,0.524395,,,,,,0.140307617,-0.255439453,0,0,0,,0,187,187,405,1,
,,,,,,,,,,,,,,,,,,5d1f680b4a21e00001818cf2,2020-08-10_17h46.02.656,lexical_decision_task_MP,2020.1.3,MacIntel,60,z,1,,,,,,,,0.7027,1,,,,,,309,NW,UN,33,daniet,AMILOY,z,0.7027,,,,,,0.140307617,-0.255439453,0,0,0,,0,188,188,368,1,
,,,,,,,,,,,,,,,,,,5d1f680b4a21e00001818cf2,2020-08-10_17h46.02.656,lexical_decision_task_MP,2020.1.3,MacIntel,60,z,1,,,,,,,,0.56383,1,,,,,,460,NW,"ID",33,mingar,MINGAR,z,0.56383,,,,,,0.140307617,-0.255439453,0,0,0,,0,189,189,279,1,
,,,,,,,,,,,,,,,,,,5d1f680b4a21e00001818cf2,2020-08-10_17h46.02.656,lexical_decision_task_MP,2020.1.3,MacIntel,60,z,1,,,,,,,,0.885385,1,,,,,,306,NW,UN,33,kirafe,SOUNGE,z,0.885385,,,,,,0.140307617,-0.255439453,0,0,0,,0,190,190,365,1,
,,,,,,,,,,,,,,,,,,5d1f680b4a21e00001818cf2,2020-08-10_17h46.02.656,lexical_decision_task_MP,2020.1.3,MacIntel,60,m,1,,,,,,,,0.98968,1,,,,,,142,WORD,UN,50,reason,SPRUCE,m,0.98968,,,,,,0.140307617,-0.255439453,0,0,0,,0,191,191,201,1,
,,,,,,,,,,,,,,,,,,5d1f680b4a21e00001818cf2,2020-08-10_17h46.02.656,lexical_decision_task_MP,2020.1.3,MacIntel,60,m,1,,,,,,,,0.45067,1,,,,,,62,WORD,UN,33,launch,REGION,m,0.45067,,,,,,0.140307617,-0.255439453,0,0,0,,0,192,192,121,1,
,,,,,,,,,,,,,,,,,,5d1f680b4a21e00001818cf2,2020-08-10_17h46.02.656,lexical_decision_task_MP,2020.1.3,MacIntel,60,m,1,,,,,,,,0.82148,1,,,,,,16,WORD,"ID",50,faucet,FAUCET,m,0.82148,,,,,,0.140307617,-0.255439453,0,0,0,,0,193,193,75,1,
,,,,,,,,,,,,,,,,,,5d1f680b4a21e00001818cf2,2020-08-10_17h46.02.656,lexical_decision_task_MP,2020.1.3,MacIntel,60,z,1,,,,,,,,0.616835,1,,,,,,295,NW,"ID",50,gleath,GLEATH,z,0.616835,,,,,,0.140307617,-0.255439453,0,0,0,,0,194,194,354,1,
,,,,,,,,,,,,,,,,,,5d1f680b4a21e00001818cf2,2020-08-10_17h46.02.656,lexical_decision_task_MP,2020.1.3,MacIntel,60,m,1,,,,,,,,0.487055,1,,,,,,45,WORD,"ID",50,clergy,CLERGY,m,0.487055,,,,,,0.140307617,-0.255439453,0,0,0,,0,195,195,104,1,
,,,,,,,,,,,,,,,,,,5d1f680b4a21e00001818cf2,2020-08-10_17h46.02.656,lexical_decision_task_MP,2020.1.3,MacIntel,60,m,1,,,,,,,,0.537345,1,,,,,,129,WORD,UN,50,stupid,MARVEL,m,0.537345,,,,,,0.140307617,-0.255439453,0,0,0,,0,196,196,188,1,
,,,,,,,,,,,,,,,,,,5d1f680b4a21e00001818cf2,2020-08-10_17h46.02.656,lexical_decision_task_MP,2020.1.3,MacIntel,60,m,1,,,,,,,,0.668545,1,,,,,,60,WORD,"ID",50,pencil,PENCIL,m,0.668545,,,,,,0.140307617,-0.255439453,0,0,0,,0,197,197,119,1,
,,,,,,,,,,,,,,,,,,5d1f680b4a21e00001818cf2,2020-08-10_17h46.02.656,lexical_decision_task_MP,2020.1.3,MacIntel,60,m,0,,,,,,,,1.06736,0,,,,,,303,NW,UN,33,cludie,FIREAM,z,1.06736,,,,,,0.140307617,-0.255439453,0,0,0,,0,198,198,362,1,
,,,,,,,,,,,,,,,,,,5d1f680b4a21e00001818cf2,2020-08-10_17h46.02.656,lexical_decision_task_MP,2020.1.3,MacIntel,60,z,1,,,,,,,,0.72252,1,,,,,,338,NW,UN,33,fachow,WREASH,z,0.72252,,,,,,0.140307617,-0.255439453,0,0,0,,0,199,199,397,1,
,,,,,,,,,,,,,,,,,,5d1f680b4a21e00001818cf2,2020-08-10_17h46.02.656,lexical_decision_task_MP,2020.1.3,MacIntel,60,z,0,,,,,,,,0.42273,0,,,,,,217,WORD,"ID",33,liquor,LIQUOR,m,0.42273,,,,,,0.140307617,-0.255439453,0,0,0,,0,200,200,36,1,
,,,,,,,,,,,,,,,,,,5d1f680b4a21e00001818cf2,2020-08-10_17h46.02.656,lexical_decision_task_MP,2020.1.3,MacIntel,60,z,1,,,,,,,,0.554245,1,,,,,,390,NW,UN,50,theldy,HATRUS,z,0.554245,,,,,,0.140307617,-0.255439453,0,0,0,,0,201,201,449,1,
,,,,,,,,,,,,,,,,,,5d1f680b4a21e00001818cf2,2020-08-10_17h46.02.656,lexical_decision_task_MP,2020.1.3,MacIntel,60,z,1,,,,,,,,0.500575,1,,,,,,424,NW,"ID",33,praile,PRAILE,z,0.500575,,,,,,0.140307617,-0.255439453,0,0,0,,0,202,202,243,1,
,,,,,,,,,,,,,,,,,,5d1f680b4a21e00001818cf2,2020-08-10_17h46.02.656,lexical_decision_task_MP,2020.1.3,MacIntel,60,m,1,,,,,,,,0.47496,1,,,,,,73,WORD,UN,33,plaque,SOURCE,m,0.47496,,,,,,0.140307617,-0.255439453,0,0,0,,0,203,203,132,1,
,,,,,,,,,,,,,,,,,,5d1f680b4a21e00001818cf2,2020-08-10_17h46.02.656,lexical_decision_task_MP,2020.1.3,MacIntel,60,z,1,,,,,,,,0.4988,1,,,,,,421,NW,"ID",33,knisma,KNISMA,z,0.4988,,,,,,0.140307617,-0.255439453,0,0,0,,0,204,204,240,1,
,,,,,,,,,,,,,,,,,,5d1f680b4a21e00001818cf2,2020-08-10_17h46.02.656,lexical_decision_task_MP,2020.1.3,MacIntel,60,z,1,,,,,,,,0.50172,1,,,,,,336,NW,UN,33,rejols,GHODUS,z,0.50172,,,,,,0.140307617,-0.255439453,0,0,0,,0,205,205,395,1,
,,,,,,,,,,,,,,,,,,5d1f680b4a21e00001818cf2,2020-08-10_17h46.02.656,lexical_decision_task_MP,2020.1.3,MacIntel,60,z,1,,,,,,,,0.61609,1,,,,,,247,NW,"ID",50,blarge,BLARGE,z,0.61609,,,,,,0.140307617,-0.255439453,0,0,0,,0,206,206,306,1,
,,,,,,,,,,,,,,,,,,5d1f680b4a21e00001818cf2,2020-08-10_17h46.02.656,lexical_decision_task_MP,2020.1.3,MacIntel,60,z,1,,,,,,,,0.423395,1,,,,,,431,NW,"ID",33,chrums,CHRUMS,z,0.423395,,,,,,0.140307617,-0.255439453,0,0,0,,0,207,207,250,1,
,,,,,,,,,,,,,,,,,,5d1f680b4a21e00001818cf2,2020-08-10_17h46.02.656,lexical_decision_task_MP,2020.1.3,MacIntel,60,z,1,,,,,,,,0.485705,1,,,,,,467,NW,"ID",33,gorbie,GORBIE,z,0.485705,,,,,,0.140307617,-0.255439453,0,0,0,,0,208,208,286,1,
,,,,,,,,,,,,,,,,,,5d1f680b4a21e00001818cf2,2020-08-10_17h46.02.656,lexical_decision_task_MP,2020.1.3,MacIntel,60,z,1,,,,,,,,0.72237,1,,,,,,409,NW,UN,50,tunory,ELOPIA,z,0.72237,,,,,,0.140307617,-0.255439453,0,0,0,,0,209,209,468,1,
,,,,,,,,,,,,,,,,,,5d1f680b4a21e00001818cf2,2020-08-10_17h46.02.656,lexical_decision_task_MP,2020.1.3,MacIntel,60,m,1,,,,,,,,0.58125,1,,,,,,106,WORD,UN,33,slogan,RANSOM,m,0.58125,,,,,,0.140307617,-0.255439453,0,0,0,,0,210,210,165,1,
,,,,,,,,,,,,,,,,,,5d1f680b4a21e00001818cf2,2020-08-10_17h46.02.656,lexical_decision_task_MP,2020.1.3,MacIntel,60,z,1,,,,,,,,0.56917,1,,,,,,473,NW,"ID",33,crible,CRIBLE,z,0.56917,,,,,,0.140307617,-0.255439453,0,0,0,,0,211,211,292,1,
,,,,,,,,,,,,,,,,,,5d1f680b4a21e00001818cf2,2020-08-10_17h46.02.656,lexical_decision_task_MP,2020.1.3,MacIntel,60,z,1,,,,,,,,0.466795,1,,,,,,394,NW,UN,50,colury,SPAQUX,z,0.466795,,,,,,0.140307617,-0.255439453,0,0,0,,0,212,212,453,1,
,,,,,,,,,,,,,,,,,,5d1f680b4a21e00001818cf2,2020-08-10_17h46.02.656,lexical_decision_task_MP,2020.1.3,MacIntel,60,m,1,,,,,,,,0.53705,1,,,,,,130,WORD,UN,50,quench,STUPID,m,0.53705,,,,,,0.140307617,-0.255439453,0,0,0,,0,213,213,189,1,
,,,,,,,,,,,,,,,,,,5d1f680b4a21e00001818cf2,2020-08-10_17h46.02.656,lexical_decision_task_MP,2020.1.3,MacIntel,60,m,1,,,,,,,,0.485,1,,,,,,13,WORD,"ID",50,strive,STRIVE,m,0.485,,,,,,0.140307617,-0.255439453,0,0,0,,0,214,214,72,1,
,,,,,,,,,,,,,,,,,,5d1f680b4a21e00001818cf2,2020-08-10_17h46.02.656,lexical_decision_task_MP,2020.1.3,MacIntel,60,m,1,,,,,,,,0.439195,1,,,,,,27,WORD,"ID",50,scream,SCREAM,m,0.439195,,,,,,0.140307617,-0.255439453,0,0,0,,0,215,215,86,1,
,,,,,,,,,,,,,,,,,,5d1f680b4a21e00001818cf2,2020-08-10_17h46.02.656,lexical_decision_task_MP,2020.1.3,MacIntel,60,z,1,,,,,,,,0.819715,1,,,,,,340,NW,UN,33,myrtie,FIATCH,z,0.819715,,,,,,0.140307617,-0.255439453,0,0,0,,0,216,216,399,1,
,,,,,,,,,,,,,,,,,,5d1f680b4a21e00001818cf2,2020-08-10_17h46.02.656,lexical_decision_task_MP,2020.1.3,MacIntel,60,z,1,,,,,,,,0.54116,1,,,,,,422,NW,"ID",33,alcoud,ALCOUD,z,0.54116,,,,,,0.140307617,-0.255439453,0,0,0,,0,217,217,241,1,
,,,,,,,,,,,,,,,,,,5d1f680b4a21e00001818cf2,2020-08-10_17h46.02.656,lexical_decision_task_MP,2020.1.3,MacIntel,60,z,1,,,,,,,,0.792475,1,,,,,,379,NW,UN,50,cavory,AUTING,z,0.792475,,,,,,0.140307617,-0.255439453,0,0,0,,0,218,218,438,1,
,,,,,,,,,,,,,,,,,,5d1f680b4a21e00001818cf2,2020-08-10_17h46.02.656,lexical_decision_task_MP,2020.1.3,MacIntel,60,z,1,,,,,,,,0.516855,1,,,,,,476,NW,"ID",33,josted,JOSTED,z,0.516855,,,,,,0.140307617,-0.255439453,0,0,0,,0,219,219,295,1,
,,,,,,,,,,,,,,,,,,5d1f680b4a21e00001818cf2,2020-08-10_17h46.02.656,lexical_decision_task_MP,2020.1.3,MacIntel,60,z,1,,,,,,,,0.39206,1,,,,,,263,NW,"ID",50,dolica,DOLICA,z,0.39206,,,,,,0.140307617,-0.255439453,0,0,0,,0,220,220,322,1,
,,,,,,,,,,,,,,,,,,5d1f680b4a21e00001818cf2,2020-08-10_17h46.02.656,lexical_decision_task_MP,2020.1.3,MacIntel,60,z,1,,,,,,,,0.41665,1,,,,,,273,NW,"ID",50,sortel,SORTEL,z,0.41665,,,,,,0.140307617,-0.255439453,0,0,0,,0,221,221,332,1,
,,,,,,,,,,,,,,,,,,5d1f680b4a21e00001818cf2,2020-08-10_17h46.02.656,lexical_decision_task_MP,2020.1.3,MacIntel,60,z,0,,,,,,,,0.43798,0,,,,,,107,WORD,UN,33,reckon,SLOGAN,m,0.43798,,,,,,0.140307617,-0.255439453,0,0,0,,0,222,222,166,1,
,,,,,,,,,,,,,,,,,,5d1f680b4a21e00001818cf2,2020-08-10_17h46.02.656,lexical_decision_task_MP,2020.1.3,MacIntel,60,z,1,,,,,,,,0.549005,1,,,,,,329,NW,UN,33,kensom,YARIKE,z,0.549005,,,,,,0.140307617,-0.255439453,0,0,0,,0,223,223,388,1,
,,,,,,,,,,,,,,,,,,5d1f680b4a21e00001818cf2,2020-08-10_17h46.02.656,lexical_decision_task_MP,2020.1.3,MacIntel,60,m,1,,,,,,,,0.786355,1,,,,,,152,WORD,UN,50,behold,ROCKET,m,0.786355,,,,,,0.140307617,-0.255439453,0,0,0,,0,224,224,211,1,
,,,,,,,,,,,,,,,,,,5d1f680b4a21e00001818cf2,2020-08-10_17h46.02.656,lexical_decision_task_MP,2020.1.3,MacIntel,60,z,1,,,,,,,,0.59885,1,,,,,,344,NW,UN,33,absend,SCRILY,z,0.59885,,,,,,0.140307617,-0.255439453,0,0,0,,0,225,225,403,1,
,,,,,,,,,,,,,,,,,,5d1f680b4a21e00001818cf2,2020-08-10_17h46.02.656,lexical_decision_task_MP,2020.1.3,MacIntel,60,z,1,,,,,,,,0.54119,1,,,,,,353,NW,UN,33,virlex,CLUREY,z,0.54119,,,,,,0.140307617,-0.255439453,0,0,0,,0,226,226,412,1,
,,,,,,,,,,,,,,,,,,5d1f680b4a21e00001818cf2,2020-08-10_17h46.02.656,lexical_decision_task_MP,2020.1.3,MacIntel,60,z,1,,,,,,,,0.689795,1,,,,,,418,NW,UN,50,slount,SUIDLE,z,0.689795,,,,,,0.140307617,-0.255439453,0,0,0,,0,227,227,477,1,
,,,,,,,,,,,,,,,,,,5d1f680b4a21e00001818cf2,2020-08-10_17h46.02.656,lexical_decision_task_MP,2020.1.3,MacIntel,60,m,1,,,,,,,,0.53872,1,,,,,,30,WORD,"ID",50,orient,ORIENT,m,0.53872,,,,,,0.140307617,-0.255439453,0,0,0,,0,228,228,89,1,
,,,,,,,,,,,,,,,,,,5d1f680b4a21e00001818cf2,2020-08-10_17h46.02.656,lexical_decision_task_MP,2020.1.3,MacIntel,60,m,1,,,,,,,,0.419235,1,,,,,,192,WORD,"ID",33,plague,PLAGUE,m,0.419235,,,,,,0.140307617,-0.255439453,0,0,0,,0,229,229,11,1,
,,,,,,,,,,,,,,,,,,5d1f680b4a21e00001818cf2,2020-08-10_17h46.02.656,lexical_decision_task_MP,2020.1.3,MacIntel,60,z,1,,,,,,,,0.58412,1,,,,,,264,NW,"ID",50,vackel,VACKEL,z,0.58412,,,,,,0.140307617,-0.255439453,0,0,0,,0,230,230,323,1,
,,,,,,,,,,,,,,,,,,5d1f680b4a21e00001818cf2,2020-08-10_17h46.02.656,lexical_decision_task_MP,2020.1.3,MacIntel,60,z,1,,,,,,,,0.840065,1,,,,,,403,NW,UN,50,cluirm,BRUATS,z,0.840065,,,,,,0.140307617,-0.255439453,0,0,0,,0,231,231,462,1,
,,,,,,,,,,,,,,,,,,5d1f680b4a21e00001818cf2,2020-08-10_17h46.02.656,lexical_decision_task_MP,2020.1.3,MacIntel,60,z,1,,,,,,,,0.9022,1,,,,,,327,NW,UN,33,broake,PLENAC,z,0.9022,,,,,,0.140307617,-0.255439453,0,0,0,,0,232,232,386,1,
,,,,,,,,,,,,,,,,,,5d1f680b4a21e00001818cf2,2020-08-10_17h46.02.656,lexical_decision_task_MP,2020.1.3,MacIntel,60,m,1,,,,,,,,0.45054,1,,,,,,179,WORD,UN,50,silent,BASKET,m,0.45054,,,,,,0.140307617,-0.255439453,0,0,0,,0,233,233,238,1,
,,,,,,,,,,,,,,,,,,5d1f680b4a21e00001818cf2,2020-08-10_17h46.02.656,lexical_decision_task_MP,2020.1.3,MacIntel,60,z,1,,,,,,,,0.83947,1,,,,,,430,NW,"ID",33,caroey,CAROEY,z,0.83947,,,,,,0.140307617,-0.255439453,0,0,0,,0,234,234,249,1,
,,,,,,,,,,,,,,,,,,5d1f680b4a21e00001818cf2,2020-08-10_17h46.02.656,lexical_decision_task_MP,2020.1.3,MacIntel,60,z,1,,,,,,,,0.485195,1,,,,,,281,NW,"ID",50,melaty,MELATY,z,0.485195,,,,,,0.140307617,-0.255439453,0,0,0,,0,235,235,340,1,
,,,,,,,,,,,,,,,,,,5d1f680b4a21e00001818cf2,2020-08-10_17h46.02.656,lexical_decision_task_MP,2020.1.3,MacIntel,60,z,1,,,,,,,,0.4408,1,,,,,,479,NW,"ID",33,lobush,LOBUSH,z,0.4408,,,,,,0.140307617,-0.255439453,0,0,0,,0,236,236,298,1,
,,,,,,,,,,,,,,,,,,5d1f680b4a21e00001818cf2,2020-08-10_17h46.02.656,lexical_decision_task_MP,2020.1.3,MacIntel,60,m,1,,,,,,,,0.53293,1,,,,,,133,WORD,UN,50,staple,CHROME,m,0.53293,,,,,,0.140307617,-0.255439453,0,0,0,,0,237,237,192,1,
,,,,,,,,,,,,,,,,,,5d1f680b4a21e00001818cf2,2020-08-10_17h46.02.656,lexical_decision_task_MP,2020.1.3,MacIntel,60,m,1,,,,,,,,0.50152,1,,,,,,89,WORD,UN,33,relish,PERMIT,m,0.50152,,,,,,0.140307617,-0.255439453,0,0,0,,0,238,238,148,1,
,,,,,,,,,,,,,,,,,,5d1f680b4a21e00001818cf2,2020-08-10_17h46.02.656,lexical_decision_task_MP,2020.1.3,MacIntel,60,z,1,,,,,,,,1.95188,1,,,,,,372,NW,UN,50,bigent,RAMILY,z,1.95188,,,,,,0.140307617,-0.255439453,0,0,0,,0,239,239,431,1,
,,,,,,,,,,,,,,,,,,5d1f680b4a21e00001818cf2,2020-08-10_17h46.02.656,lexical_decision_task_MP,2020.1.3,MacIntel,60,m,1,,,,,,,,0.5678,1,,,,,,124,WORD,UN,50,nickel,BLOUSE,m,0.5678,,,,,,0.140307617,-0.255439453,0,0,0,,0,240,240,183,1,
,,,,,,,,,,,,,,,,,,5d1f680b4a21e00001818cf2,2020-08-10_17h46.02.656,lexical_decision_task_MP,2020.1.3,MacIntel,60,m,1,,,,,,,,0.45295,1,,,,,,36,WORD,"ID",50,vanish,VANISH,m,0.45295,,,,,,0.140307617,-0.255439453,0,0,0,space,0,241,241,95,1,61.071615
,,,,,,,,,,,,,,,,,,5d1f680b4a21e00001818cf2,2020-08-10_17h46.02.656,lexical_decision_task_MP,2020.1.3,MacIntel,60,m,1,,,,,,,,0.906245,1,,,,,,203,WORD,"ID",33,phrase,PHRASE,m,0.906245,,,,,,0.140307617,-0.255439453,0,0,0,,0,242,242,22,1,
,,,,,,,,,,,,,,,,,,5d1f680b4a21e00001818cf2,2020-08-10_17h46.02.656,lexical_decision_task_MP,2020.1.3,MacIntel,60,z,1,,,,,,,,0.82896,1,,,,,,410,NW,UN,50,orchin,TUNORY,z,0.82896,,,,,,0.140307617,-0.255439453,0,0,0,,0,243,243,469,1,
,,,,,,,,,,,,,,,,,,5d1f680b4a21e00001818cf2,2020-08-10_17h46.02.656,lexical_decision_task_MP,2020.1.3,MacIntel,60,m,1,,,,,,,,0.554185,1,,,,,,141,WORD,UN,50,spruce,ORPHAN,m,0.554185,,,,,,0.140307617,-0.255439453,0,0,0,,0,244,244,200,1,
,,,,,,,,,,,,,,,,,,5d1f680b4a21e00001818cf2,2020-08-10_17h46.02.656,lexical_decision_task_MP,2020.1.3,MacIntel,60,m,1,,,,,,,,0.550605,1,,,,,,111,WORD,UN,33,breath,INDUCE,m,0.550605,,,,,,0.140307617,-0.255439453,0,0,0,,0,245,245,170,1,
,,,,,,,,,,,,,,,,,,5d1f680b4a21e00001818cf2,2020-08-10_17h46.02.656,lexical_decision_task_MP,2020.1.3,MacIntel,60,m,1,,,,,,,,0.58803,1,,,,,,207,WORD,"ID",33,wreath,WREATH,m,0.58803,,,,,,0.140307617,-0.255439453,0,0,0,,0,246,246,26,1,
,,,,,,,,,,,,,,,,,,5d1f680b4a21e00001818cf2,2020-08-10_17h46.02.656,lexical_decision_task_MP,2020.1.3,MacIntel,60,m,1,,,,,,,,0.36939,1,,,,,,12,WORD,"ID",50,orange,ORANGE,m,0.36939,,,,,,0.140307617,-0.255439453,0,0,0,,0,247,247,71,1,
,,,,,,,,,,,,,,,,,,5d1f680b4a21e00001818cf2,2020-08-10_17h46.02.656,lexical_decision_task_MP,2020.1.3,MacIntel,60,z,1,,,,,,,,0.466355,1,,,,,,308,NW,UN,33,amiloy,PSETCH,z,0.466355,,,,,,0.140307617,-0.255439453,0,0,0,,0,248,248,367,1,
,,,,,,,,,,,,,,,,,,5d1f680b4a21e00001818cf2,2020-08-10_17h46.02.656,lexical_decision_task_MP,2020.1.3,MacIntel,60,z,1,,,,,,,,0.52192,1,,,,,,293,NW,"ID",50,swance,SWANCE,z,0.52192,,,,,,0.140307617,-0.255439453,0,0,0,,0,249,249,352,1,
,,,,,,,,,,,,,,,,,,5d1f680b4a21e00001818cf2,2020-08-10_17h46.02.656,lexical_decision_task_MP,2020.1.3,MacIntel,60,z,1,,,,,,,,0.466865,1,,,,,,420,NW,UN,50,pauche,GUSHOP,z,0.466865,,,,,,0.140307617,-0.255439453,0,0,0,,0,250,250,479,1,
,,,,,,,,,,,,,,,,,,5d1f680b4a21e00001818cf2,2020-08-10_17h46.02.656,lexical_decision_task_MP,2020.1.3,MacIntel,60,z,0,,,,,,,,0.52,0,,,,,,64,WORD,UN,33,symbol,THRONE,m,0.52,,,,,,0.140307617,-0.255439453,0,0,0,,0,251,251,123,1,
,,,,,,,,,,,,,,,,,,5d1f680b4a21e00001818cf2,2020-08-10_17h46.02.656,lexical_decision_task_MP,2020.1.3,MacIntel,60,m,1,,,,,,,,0.585155,1,,,,,,105,WORD,UN,33,ransom,NUMBER,m,0.585155,,,,,,0.140307617,-0.255439453,0,0,0,,0,252,252,164,1,
,,,,,,,,,,,,,,,,,,5d1f680b4a21e00001818cf2,2020-08-10_17h46.02.656,lexical_decision_task_MP,2020.1.3,MacIntel,60,m,1,,,,,,,,0.434025,1,,,,,,210,WORD,"ID",33,monkey,MONKEY,m,0.434025,,,,,,0.140307617,-0.255439453,0,0,0,,0,253,253,29,1,
,,,,,,,,,,,,,,,,,,5d1f680b4a21e00001818cf2,2020-08-10_17h46.02.656,lexical_decision_task_MP,2020.1.3,MacIntel,60,m,1,,,,,,,,0.449425,1,,,,,,132,WORD,UN,50,orphan,STRONG,m,0.449425,,,,,,0.140307617,-0.255439453,0,0,0,,0,254,254,191,1,
,,,,,,,,,,,,,,,,,,5d1f680b4a21e00001818cf2,2020-08-10_17h46.02.656,lexical_decision_task_MP,2020.1.3,MacIntel,60,m,1,,,,,,,,0.650925,1,,,,,,139,WORD,UN,50,prince,DEBRIS,m,0.650925,,,,,,0.140307617,-0.255439453,0,0,0,,0,255,255,198,1,
,,,,,,,,,,,,,,,,,,5d1f680b4a21e00001818cf2,2020-08-10_17h46.02.656,lexical_decision_task_MP,2020.1.3,MacIntel,60,z,1,,,,,,,,0.58042,1,,,,,,321,NW,UN,33,slanch,MIATOR,z,0.58042,,,,,,0.140307617,-0.255439453,0,0,0,,0,256,256,380,1,
,,,,,,,,,,,,,,,,,,5d1f680b4a21e00001818cf2,2020-08-10_17h46.02.656,lexical_decision_task_MP,2020.1.3,MacIntel,60,z,1,,,,,,,,0.571925,1,,,,,,419,NW,UN,50,gushop,SLOUNT,z,0.571925,,,,,,0.140307617,-0.255439453,0,0,0,,0,257,257,478,1,
,,,,,,,,,,,,,,,,,,5d1f680b4a21e00001818cf2,2020-08-10_17h46.02.656,lexical_decision_task_MP,2020.1.3,MacIntel,60,m,1,,,,,,,,0.654465,1,,,,,,1,WORD,"ID",50,fright,FRIGHT,m,0.654465,,,,,,0.140307617,-0.255439453,0,0,0,,0,258,258,60,1,
,,,,,,,,,,,,,,,,,,5d1f680b4a21e00001818cf2,2020-08-10_17h46.02.656,lexical_decision_task_MP,2020.1.3,MacIntel,60,m,1,,,,,,,,0.502085,1,,,,,,88,WORD,UN,33,permit,HUNGER,m,0.502085,,,,,,0.140307617,-0.255439453,0,0,0,,0,259,259,147,1,
,,,,,,,,,,,,,,,,,,5d1f680b4a21e00001818cf2,2020-08-10_17h46.02.656,lexical_decision_task_MP,2020.1.3,MacIntel,60,m,1,,,,,,,,0.41656,1,,,,,,55,WORD,"ID",50,stroke,STROKE,m,0.41656,,,,,,0.140307617,-0.255439453,0,0,0,,0,260,260,114,1,
,,,,,,,,,,,,,,,,,,5d1f680b4a21e00001818cf2,2020-08-10_17h46.02.656,lexical_decision_task_MP,2020.1.3,MacIntel,60,z,1,,,,,,,,0.58088,1,,,,,,392,NW,UN,50,ganous,ROUNCY,z,0.58088,,,,,,0.140307617,-0.255439453,0,0,0,,0,261,261,451,1,
,,,,,,,,,,,,,,,,,,5d1f680b4a21e00001818cf2,2020-08-10_17h46.02.656,lexical_decision_task_MP,2020.1.3,MacIntel,60,m,1,,,,,,,,0.49963,1,,,,,,15,WORD,"ID",50,amount,AMOUNT,m,0.49963,,,,,,0.140307617,-0.255439453,0,0,0,,0,262,262,74,1,
,,,,,,,,,,,,,,,,,,5d1f680b4a21e00001818cf2,2020-08-10_17h46.02.656,lexical_decision_task_MP,2020.1.3,MacIntel,60,z,1,,,,,,,,0.491275,1,,,,,,428,NW,"ID",33,tandly,TANDLY,z,0.491275,,,,,,0.140307617,-0.255439453,0,0,0,,0,263,263,247,1,
,,,,,,,,,,,,,,,,,,5d1f680b4a21e00001818cf2,2020-08-10_17h46.02.656,lexical_decision_task_MP,2020.1.3,MacIntel,60,m,1,,,,,,,,0.466645,1,,,,,,19,WORD,"ID",50,patron,PATRON,m,0.466645,,,,,,0.140307617,-0.255439453,0,0,0,,0,264,264,78,1,
,,,,,,,,,,,,,,,,,,5d1f680b4a21e00001818cf2,2020-08-10_17h46.02.656,lexical_decision_task_MP,2020.1.3,MacIntel,60,m,1,,,,,,,,0.499385,1,,,,,,165,WORD,UN,50,starch,INVEST,m,0.499385,,,,,,0.140307617,-0.255439453,0,0,0,,0,265,265,224,1,
,,,,,,,,,,,,,,,,,,5d1f680b4a21e00001818cf2,2020-08-10_17h46.02.656,lexical_decision_task_MP,2020.1.3,MacIntel,60,m,1,,,,,,,,0.74937,1,,,,,,59,WORD,"ID",50,splint,SPLINT,m,0.74937,,,,,,0.140307617,-0.255439453,0,0,0,,0,266,266,118,1,
,,,,,,,,,,,,,,,,,,5d1f680b4a21e00001818cf2,2020-08-10_17h46.02.656,lexical_decision_task_MP,2020.1.3,MacIntel,60,z,1,,,,,,,,0.516525,1,,,,,,402,NW,UN,50,bruats,SYNTIC,z,0.516525,,,,,,0.140307617,-0.255439453,0,0,0,,0,267,267,461,1,
,,,,,,,,,,,,,,,,,,5d1f680b4a21e00001818cf2,2020-08-10_17h46.02.656,lexical_decision_task_MP,2020.1.3,MacIntel,60,m,1,,,,,,,,0.58302,1,,,,,,39,WORD,"ID",50,insect,INSECT,m,0.58302,,,,,,0.140307617,-0.255439453,0,0,0,,0,268,268,98,1,
,,,,,,,,,,,,,,,,,,5d1f680b4a21e00001818cf2,2020-08-10_17h46.02.656,lexical_decision_task_MP,2020.1.3,MacIntel,60,m,1,,,,,,,,0.534385,1,,,,,,9,WORD,"ID",50,hustle,HUSTLE,m,0.534385,,,,,,0.140307617,-0.255439453,0,0,0,,0,269,269,68,1,
,,,,,,,,,,,,,,,,,,5d1f680b4a21e00001818cf2,2020-08-10_17h46.02.656,lexical_decision_task_MP,2020.1.3,MacIntel,60,m,1,,,,,,,,0.54932,1,,,,,,92,WORD,UN,33,public,STRAND,m,0.54932,,,,,,0.140307617,-0.255439453,0,0,0,,0,270,270,151,1,
,,,,,,,,,,,,,,,,,,5d1f680b4a21e00001818cf2,2020-08-10_17h46.02.656,lexical_decision_task_MP,2020.1.3,MacIntel,60,z,1,,,,,,,,0.515445,1,,,,,,307,NW,UN,33,psetch,KIRAFE,z,0.515445,,,,,,0.140307617,-0.255439453,0,0,0,,0,271,271,366,1,
,,,,,,,,,,,,,,,,,,5d1f680b4a21e00001818cf2,2020-08-10_17h46.02.656,lexical_decision_task_MP,2020.1.3,MacIntel,60,m,1,,,,,,,,0.60021,1,,,,,,200,WORD,"ID",33,beacon,BEACON,m,0.60021,,,,,,0.140307617,-0.255439453,0,0,0,,0,272,272,19,1,
,,,,,,,,,,,,,,,,,,5d1f680b4a21e00001818cf2,2020-08-10_17h46.02.656,lexical_decision_task_MP,2020.1.3,MacIntel,60,z,1,,,,,,,,0.61878,1,,,,,,423,NW,"ID",33,streld,STRELD,z,0.61878,,,,,,0.140307617,-0.255439453,0,0,0,,0,273,273,242,1,
,,,,,,,,,,,,,,,,,,5d1f680b4a21e00001818cf2,2020-08-10_17h46.02.656,lexical_decision_task_MP,2020.1.3,MacIntel,60,z,1,,,,,,,,0.49809,1,,,,,,349,NW,UN,33,nagurs,ASYLEN,z,0.49809,,,,,,0.140307617,-0.255439453,0,0,0,,0,274,274,408,1,
,,,,,,,,,,,,,,,,,,5d1f680b4a21e00001818cf2,2020-08-10_17h46.02.656,lexical_decision_task_MP,2020.1.3,MacIntel,60,m,1,,,,,,,,0.43225,1,,,,,,224,WORD,"ID",33,period,PERIOD,m,0.43225,,,,,,0.140307617,-0.255439453,0,0,0,,0,275,275,43,1,
,,,,,,,,,,,,,,,,,,5d1f680b4a21e00001818cf2,2020-08-10_17h46.02.656,lexical_decision_task_MP,2020.1.3,MacIntel,60,m,1,,,,,,,,0.50441,1,,,,,,167,WORD,UN,50,answer,DESIGN,m,0.50441,,,,,,0.140307617,-0.255439453,0,0,0,,0,276,276,226,1,
,,,,,,,,,,,,,,,,,,5d1f680b4a21e00001818cf2,2020-08-10_17h46.02.656,lexical_decision_task_MP,2020.1.3,MacIntel,60,z,1,,,,,,,,0.523625,1,,,,,,468,NW,"ID",33,wictor,WICTOR,z,0.523625,,,,,,0.140307617,-0.255439453,0,0,0,,0,277,277,287,1,
,,,,,,,,,,,,,,,,,,5d1f680b4a21e00001818cf2,2020-08-10_17h46.02.656,lexical_decision_task_MP,2020.1.3,MacIntel,60,z,1,,,,,,,,0.51753,1,,,,,,475,NW,"ID",33,pebric,PEBRIC,z,0.51753,,,,,,0.140307617,-0.255439453,0,0,0,,0,278,278,294,1,
,,,,,,,,,,,,,,,,,,5d1f680b4a21e00001818cf2,2020-08-10_17h46.02.656,lexical_decision_task_MP,2020.1.3,MacIntel,60,m,1,,,,,,,,0.50397,1,,,,,,37,WORD,"ID",50,insult,INSULT,m,0.50397,,,,,,0.140307617,-0.255439453,0,0,0,,0,279,279,96,1,
,,,,,,,,,,,,,,,,,,5d1f680b4a21e00001818cf2,2020-08-10_17h46.02.656,lexical_decision_task_MP,2020.1.3,MacIntel,60,z,1,,,,,,,,0.4754,1,,,,,,282,NW,"ID",50,porlex,PORLEX,z,0.4754,,,,,,0.140307617,-0.255439453,0,0,0,,0,280,280,341,1,
,,,,,,,,,,,,,,,,,,5d1f680b4a21e00001818cf2,2020-08-10_17h46.02.656,lexical_decision_task_MP,2020.1.3,MacIntel,60,m,1,,,,,,,,0.433895,1,,,,,,54,WORD,"ID",50,ramble,RAMBLE,m,0.433895,,,,,,0.140307617,-0.255439453,0,0,0,,0,281,281,113,1,
,,,,,,,,,,,,,,,,,,5d1f680b4a21e00001818cf2,2020-08-10_17h46.02.656,lexical_decision_task_MP,2020.1.3,MacIntel,60,z,1,,,,,,,,0.521945,1,,,,,,441,NW,"ID",33,rastoe,RASTOE,z,0.521945,,,,,,0.140307617,-0.255439453,0,0,0,,0,282,282,260,1,
,,,,,,,,,,,,,,,,,,5d1f680b4a21e00001818cf2,2020-08-10_17h46.02.656,lexical_decision_task_MP,2020.1.3,MacIntel,60,z,1,,,,,,,,0.665795,1,,,,,,323,NW,UN,33,steikh,ROSAIL,z,0.665795,,,,,,0.140307617,-0.255439453,0,0,0,,0,283,283,382,1,
,,,,,,,,,,,,,,,,,,5d1f680b4a21e00001818cf2,2020-08-10_17h46.02.656,lexical_decision_task_MP,2020.1.3,MacIntel,60,m,1,,,,,,,,0.985745,1,,,,,,211,WORD,"ID",33,infect,INFECT,m,0.985745,,,,,,0.140307617,-0.255439453,0,0,0,,0,284,284,30,1,
,,,,,,,,,,,,,,,,,,5d1f680b4a21e00001818cf2,2020-08-10_17h46.02.656,lexical_decision_task_MP,2020.1.3,MacIntel,60,m,1,,,,,,,,0.491625,1,,,,,,135,WORD,UN,50,bleach,IMPORT,m,0.491625,,,,,,0.140307617,-0.255439453,0,0,0,,0,285,285,194,1,
,,,,,,,,,,,,,,,,,,5d1f680b4a21e00001818cf2,2020-08-10_17h46.02.656,lexical_decision_task_MP,2020.1.3,MacIntel,60,m,1,,,,,,,,0.461975,1,,,,,,3,WORD,"ID",50,knight,KNIGHT,m,0.461975,,,,,,0.140307617,-0.255439453,0,0,0,,0,286,286,62,1,
,,,,,,,,,,,,,,,,,,5d1f680b4a21e00001818cf2,2020-08-10_17h46.02.656,lexical_decision_task_MP,2020.1.3,MacIntel,60,m,1,,,,,,,,0.42578,1,,,,,,182,WORD,"ID",33,winter,WINTER,m,0.42578,,,,,,0.140307617,-0.255439453,0,0,0,,0,287,287,1,1,
,,,,,,,,,,,,,,,,,,5d1f680b4a21e00001818cf2,2020-08-10_17h46.02.656,lexical_decision_task_MP,2020.1.3,MacIntel,60,m,1,,,,,,,,0.51867,1,,,,,,84,WORD,UN,33,strand,MORTAL,m,0.51867,,,,,,0.140307617,-0.255439453,0,0,0,,0,288,288,143,1,
,,,,,,,,,,,,,,,,,,5d1f680b4a21e00001818cf2,2020-08-10_17h46.02.656,lexical_decision_task_MP,2020.1.3,MacIntel,60,m,1,,,,,,,,0.382755,1,,,,,,23,WORD,"ID",50,wealth,WEALTH,m,0.382755,,,,,,0.140307617,-0.255439453,0,0,0,,0,289,289,82,1,
,,,,,,,,,,,,,,,,,,5d1f680b4a21e00001818cf2,2020-08-10_17h46.02.656,lexical_decision_task_MP,2020.1.3,MacIntel,60,z,1,,,,,,,,0.467555,1,,,,,,288,NW,"ID",50,yaceup,YACEUP,z,0.467555,,,,,,0.140307617,-0.255439453,0,0,0,,0,290,290,347,1,
,,,,,,,,,,,,,,,,,,5d1f680b4a21e00001818cf2,2020-08-10_17h46.02.656,lexical_decision_task_MP,2020.1.3,MacIntel,60,m,1,,,,,,,,0.481495,1,,,,,,85,WORD,UN,33,rodent,SPRAWL,m,0.481495,,,,,,0.140307617,-0.255439453,0,0,0,,0,291,291,144,1,
,,,,,,,,,,,,,,,,,,5d1f680b4a21e00001818cf2,2020-08-10_17h46.02.656,lexical_decision_task_MP,2020.1.3,MacIntel,60,z,1,,,,,,,,0.498005,1,,,,,,434,NW,"ID",33,pitrom,PITROM,z,0.498005,,,,,,0.140307617,-0.255439453,0,0,0,,0,292,292,253,1,
,,,,,,,,,,,,,,,,,,5d1f680b4a21e00001818cf2,2020-08-10_17h46.02.656,lexical_decision_task_MP,2020.1.3,MacIntel,60,m,1,,,,,,,,0.72963,1,,,,,,156,WORD,UN,50,depart,CRADLE,m,0.72963,,,,,,0.140307617,-0.255439453,0,0,0,,0,293,293,215,1,
,,,,,,,,,,,,,,,,,,5d1f680b4a21e00001818cf2,2020-08-10_17h46.02.656,lexical_decision_task_MP,2020.1.3,MacIntel,60,z,1,,,,,,,,0.453335,1,,,,,,267,NW,"ID",50,pasink,PASINK,z,0.453335,,,,,,0.140307617,-0.255439453,0,0,0,,0,294,294,326,1,
,,,,,,,,,,,,,,,,,,5d1f680b4a21e00001818cf2,2020-08-10_17h46.02.656,lexical_decision_task_MP,2020.1.3,MacIntel,60,m,1,,,,,,,,0.44843,1,,,,,,91,WORD,UN,33,hunger,EXPAND,m,0.44843,,,,,,0.140307617,-0.255439453,0,0,0,,0,295,295,150,1,
,,,,,,,,,,,,,,,,,,5d1f680b4a21e00001818cf2,2020-08-10_17h46.02.656,lexical_decision_task_MP,2020.1.3,MacIntel,60,m,1,,,,,,,,0.416355,1,,,,,,209,WORD,"ID",33,search,SEARCH,m,0.416355,,,,,,0.140307617,-0.255439453,0,0,0,,0,296,296,28,1,
,,,,,,,,,,,,,,,,,,5d1f680b4a21e00001818cf2,2020-08-10_17h46.02.656,lexical_decision_task_MP,2020.1.3,MacIntel,60,m,1,,,,,,,,0.483725,1,,,,,,149,WORD,UN,50,random,INVADE,m,0.483725,,,,,,0.140307617,-0.255439453,0,0,0,,0,297,297,208,1,
,,,,,,,,,,,,,,,,,,5d1f680b4a21e00001818cf2,2020-08-10_17h46.02.656,lexical_decision_task_MP,2020.1.3,MacIntel,60,m,1,,,,,,,,0.466345,1,,,,,,100,WORD,UN,33,wrench,CARBON,m,0.466345,,,,,,0.140307617,-0.255439453,0,0,0,,0,298,298,159,1,
,,,,,,,,,,,,,,,,,,5d1f680b4a21e00001818cf2,2020-08-10_17h46.02.656,lexical_decision_task_MP,2020.1.3,MacIntel,60,z,1,,,,,,,,0.44949,1,,,,,,355,NW,UN,33,othnis,ZINGLY,z,0.44949,,,,,,0.140307617,-0.255439453,0,0,0,,0,299,299,414,1,
,,,,,,,,,,,,,,,,,,5d1f680b4a21e00001818cf2,2020-08-10_17h46.02.656,lexical_decision_task_MP,2020.1.3,MacIntel,60,m,1,,,,,,,,0.466125,1,,,,,,237,WORD,"ID",33,poster,POSTER,m,0.466125,,,,,,0.140307617,-0.255439453,0,0,0,,0,300,300,56,1,
,,,,,,,,,,,,,,,,,,5d1f680b4a21e00001818cf2,2020-08-10_17h46.02.656,lexical_decision_task_MP,2020.1.3,MacIntel,60,z,1,,,,,,,,0.517085,1,,,,,,391,NW,UN,50,rouncy,THELDY,z,0.517085,,,,,,0.140307617,-0.255439453,0,0,0,,0,301,301,450,1,
,,,,,,,,,,,,,,,,,,5d1f680b4a21e00001818cf2,2020-08-10_17h46.02.656,lexical_decision_task_MP,2020.1.3,MacIntel,60,m,1,,,,,,,,0.95167,1,,,,,,63,WORD,UN,33,throne,LAUNCH,m,0.95167,,,,,,0.140307617,-0.255439453,0,0,0,,0,302,302,122,1,
,,,,,,,,,,,,,,,,,,5d1f680b4a21e00001818cf2,2020-08-10_17h46.02.656,lexical_decision_task_MP,2020.1.3,MacIntel,60,z,1,,,,,,,,0.48109,1,,,,,,279,NW,"ID",50,celond,CELOND,z,0.48109,,,,,,0.140307617,-0.255439453,0,0,0,,0,303,303,338,1,
,,,,,,,,,,,,,,,,,,5d1f680b4a21e00001818cf2,2020-08-10_17h46.02.656,lexical_decision_task_MP,2020.1.3,MacIntel,60,z,0,,,,,,,,0.467815,0,,,,,,82,WORD,UN,33,result,STIGMA,m,0.467815,,,,,,0.140307617,-0.255439453,0,0,0,,0,304,304,141,1,
,,,,,,,,,,,,,,,,,,5d1f680b4a21e00001818cf2,2020-08-10_17h46.02.656,lexical_decision_task_MP,2020.1.3,MacIntel,60,m,1,,,,,,,,0.620335,1,,,,,,101,WORD,UN,33,direct,WRENCH,m,0.620335,,,,,,0.140307617,-0.255439453,0,0,0,,0,305,305,160,1,
,,,,,,,,,,,,,,,,,,5d1f680b4a21e00001818cf2,2020-08-10_17h46.02.656,lexical_decision_task_MP,2020.1.3,MacIntel,60,m,1,,,,,,,,0.430795,1,,,,,,163,WORD,UN,50,market,STRING,m,0.430795,,,,,,0.140307617,-0.255439453,0,0,0,,0,306,306,222,1,
,,,,,,,,,,,,,,,,,,5d1f680b4a21e00001818cf2,2020-08-10_17h46.02.656,lexical_decision_task_MP,2020.1.3,MacIntel,60,m,1,,,,,,,,0.470865,1,,,,,,225,WORD,"ID",33,vulgar,VULGAR,m,0.470865,,,,,,0.140307617,-0.255439453,0,0,0,,0,307,307,44,1,
,,,,,,,,,,,,,,,,,,5d1f680b4a21e00001818cf2,2020-08-10_17h46.02.656,lexical_decision_task_MP,2020.1.3,MacIntel,60,z,1,,,,,,,,0.612745,1,,,,,,438,NW,"ID",33,baitch,BAITCH,z,0.612745,,,,,,0.140307617,-0.255439453,0,0,0,,0,308,308,257,1,
,,,,,,,,,,,,,,,,,,5d1f680b4a21e00001818cf2,2020-08-10_17h46.02.656,lexical_decision_task_MP,2020.1.3,MacIntel,60,m,1,,,,,,,,0.601715,1,,,,,,222,WORD,"ID",33,hinder,HINDER,m,0.601715,,,,,,0.140307617,-0.255439453,0,0,0,,0,309,309,41,1,
,,,,,,,,,,,,,,,,,,5d1f680b4a21e00001818cf2,2020-08-10_17h46.02.656,lexical_decision_task_MP,2020.1.3,MacIntel,60,m,1,,,,,,,,0.51642,1,,,,,,204,WORD,"ID",33,burden,BURDEN,m,0.51642,,,,,,0.140307617,-0.255439453,0,0,0,,0,310,310,23,1,
,,,,,,,,,,,,,,,,,,5d1f680b4a21e00001818cf2,2020-08-10_17h46.02.656,lexical_decision_task_MP,2020.1.3,MacIntel,60,m,1,,,,,,,,0.518145,1,,,,,,166,WORD,UN,50,design,STARCH,m,0.518145,,,,,,0.140307617,-0.255439453,0,0,0,,0,311,311,225,1,
,,,,,,,,,,,,,,,,,,5d1f680b4a21e00001818cf2,2020-08-10_17h46.02.656,lexical_decision_task_MP,2020.1.3,MacIntel,60,z,1,,,,,,,,0.530925,1,,,,,,469,NW,"ID",33,padifs,PADIFS,z,0.530925,,,,,,0.140307617,-0.255439453,0,0,0,,0,312,312,288,1,
,,,,,,,,,,,,,,,,,,5d1f680b4a21e00001818cf2,2020-08-10_17h46.02.656,lexical_decision_task_MP,2020.1.3,MacIntel,60,z,1,,,,,,,,0.550925,1,,,,,,254,NW,"ID",50,varosh,VAROSH,z,0.550925,,,,,,0.140307617,-0.255439453,0,0,0,,0,313,313,313,1,
,,,,,,,,,,,,,,,,,,5d1f680b4a21e00001818cf2,2020-08-10_17h46.02.656,lexical_decision_task_MP,2020.1.3,MacIntel,60,z,1,,,,,,,,0.447685,1,,,,,,317,NW,UN,33,reagly,WORBAL,z,0.447685,,,,,,0.140307617,-0.255439453,0,0,0,,0,314,314,376,1,
,,,,,,,,,,,,,,,,,,5d1f680b4a21e00001818cf2,2020-08-10_17h46.02.656,lexical_decision_task_MP,2020.1.3,MacIntel,60,m,1,,,,,,,,0.63855,1,,,,,,184,WORD,"ID",33,sleazy,SLEAZY,m,0.63855,,,,,,0.140307617,-0.255439453,0,0,0,,0,315,315,3,1,
,,,,,,,,,,,,,,,,,,5d1f680b4a21e00001818cf2,2020-08-10_17h46.02.656,lexical_decision_task_MP,2020.1.3,MacIntel,60,m,1,,,,,,,,0.430305,1,,,,,,97,WORD,UN,33,belong,CLIENT,m,0.430305,,,,,,0.140307617,-0.255439453,0,0,0,,0,316,316,156,1,
,,,,,,,,,,,,,,,,,,5d1f680b4a21e00001818cf2,2020-08-10_17h46.02.656,lexical_decision_task_MP,2020.1.3,MacIntel,60,m,1,,,,,,,,0.48279,1,,,,,,187,WORD,"ID",33,course,COURSE,m,0.48279,,,,,,0.140307617,-0.255439453,0,0,0,,0,317,317,6,1,
,,,,,,,,,,,,,,,,,,5d1f680b4a21e00001818cf2,2020-08-10_17h46.02.656,lexical_decision_task_MP,2020.1.3,MacIntel,60,z,1,,,,,,,,0.609385,1,,,,,,278,NW,"ID",50,unighs,UNIGHS,z,0.609385,,,,,,0.140307617,-0.255439453,0,0,0,,0,318,318,337,1,
,,,,,,,,,,,,,,,,,,5d1f680b4a21e00001818cf2,2020-08-10_17h46.02.656,lexical_decision_task_MP,2020.1.3,MacIntel,60,m,0,,,,,,,,0.484985,0,,,,,,322,NW,UN,33,rosail,SLANCH,z,0.484985,,,,,,0.140307617,-0.255439453,0,0,0,,0,319,319,381,1,
,,,,,,,,,,,,,,,,,,5d1f680b4a21e00001818cf2,2020-08-10_17h46.02.656,lexical_decision_task_MP,2020.1.3,MacIntel,60,m,1,,,,,,,,1.440185,1,,,,,,168,WORD,UN,50,genius,ANSWER,m,1.440185,,,,,,0.140307617,-0.255439453,0,0,0,,0,320,320,227,1,
,,,,,,,,,,,,,,,,,,5d1f680b4a21e00001818cf2,2020-08-10_17h46.02.656,lexical_decision_task_MP,2020.1.3,MacIntel,60,z,1,,,,,,,,0.567375,1,,,,,,378,NW,UN,50,auting,SHRILE,z,0.567375,,,,,,0.140307617,-0.255439453,0,0,0,,0,321,321,437,1,
,,,,,,,,,,,,,,,,,,5d1f680b4a21e00001818cf2,2020-08-10_17h46.02.656,lexical_decision_task_MP,2020.1.3,MacIntel,60,m,1,,,,,,,,0.473615,1,,,,,,8,WORD,"ID",50,abrupt,ABRUPT,m,0.473615,,,,,,0.140307617,-0.255439453,0,0,0,,0,322,322,67,1,
,,,,,,,,,,,,,,,,,,5d1f680b4a21e00001818cf2,2020-08-10_17h46.02.656,lexical_decision_task_MP,2020.1.3,MacIntel,60,z,1,,,,,,,,0.456325,1,,,,,,472,NW,"ID",33,cigney,CIGNEY,z,0.456325,,,,,,0.140307617,-0.255439453,0,0,0,,0,323,323,291,1,
,,,,,,,,,,,,,,,,,,5d1f680b4a21e00001818cf2,2020-08-10_17h46.02.656,lexical_decision_task_MP,2020.1.3,MacIntel,60,z,1,,,,,,,,0.50323,1,,,,,,356,NW,UN,33,derain,OTHNIS,z,0.50323,,,,,,0.140307617,-0.255439453,0,0,0,,0,324,324,415,1,
,,,,,,,,,,,,,,,,,,5d1f680b4a21e00001818cf2,2020-08-10_17h46.02.656,lexical_decision_task_MP,2020.1.3,MacIntel,60,m,1,,,,,,,,0.60511,1,,,,,,47,WORD,"ID",50,income,INCOME,m,0.60511,,,,,,0.140307617,-0.255439453,0,0,0,,0,325,325,106,1,
,,,,,,,,,,,,,,,,,,5d1f680b4a21e00001818cf2,2020-08-10_17h46.02.656,lexical_decision_task_MP,2020.1.3,MacIntel,60,m,0,,,,,,,,0.433315,0,,,,,,345,NW,UN,33,saudic,ABSEND,z,0.433315,,,,,,0.140307617,-0.255439453,0,0,0,,0,326,326,404,1,
,,,,,,,,,,,,,,,,,,5d1f680b4a21e00001818cf2,2020-08-10_17h46.02.656,lexical_decision_task_MP,2020.1.3,MacIntel,60,m,1,,,,,,,,0.52247,1,,,,,,128,WORD,UN,50,marvel,SENIOR,m,0.52247,,,,,,0.140307617,-0.255439453,0,0,0,,0,327,327,187,1,
,,,,,,,,,,,,,,,,,,5d1f680b4a21e00001818cf2,2020-08-10_17h46.02.656,lexical_decision_task_MP,2020.1.3,MacIntel,60,m,1,,,,,,,,0.46698,1,,,,,,53,WORD,"ID",50,police,POLICE,m,0.46698,,,,,,0.140307617,-0.255439453,0,0,0,,0,328,328,112,1,
,,,,,,,,,,,,,,,,,,5d1f680b4a21e00001818cf2,2020-08-10_17h46.02.656,lexical_decision_task_MP,2020.1.3,MacIntel,60,m,1,,,,,,,,0.382785,1,,,,,,208,WORD,"ID",33,hockey,HOCKEY,m,0.382785,,,,,,0.140307617,-0.255439453,0,0,0,,0,329,329,27,1,
,,,,,,,,,,,,,,,,,,5d1f680b4a21e00001818cf2,2020-08-10_17h46.02.656,lexical_decision_task_MP,2020.1.3,MacIntel,60,m,1,,,,,,,,0.42122,1,,,,,,226,WORD,"ID",33,casino,CASINO,m,0.42122,,,,,,0.140307617,-0.255439453,0,0,0,,0,330,330,45,1,
,,,,,,,,,,,,,,,,,,5d1f680b4a21e00001818cf2,2020-08-10_17h46.02.656,lexical_decision_task_MP,2020.1.3,MacIntel,60,m,1,,,,,,,,0.35579,1,,,,,,193,WORD,"ID",33,object,OBJECT,m,0.35579,,,,,,0.140307617,-0.255439453,0,0,0,,0,331,331,12,1,
,,,,,,,,,,,,,,,,,,5d1f680b4a21e00001818cf2,2020-08-10_17h46.02.656,lexical_decision_task_MP,2020.1.3,MacIntel,60,m,1,,,,,,,,0.40188,1,,,,,,154,WORD,UN,50,lizard,AUTHOR,m,0.40188,,,,,,0.140307617,-0.255439453,0,0,0,,0,332,332,213,1,
,,,,,,,,,,,,,,,,,,5d1f680b4a21e00001818cf2,2020-08-10_17h46.02.656,lexical_decision_task_MP,2020.1.3,MacIntel,60,m,1,,,,,,,,0.300025,1,,,,,,180,WORD,UN,50,thrive,SILENT,m,0.300025,,,,,,0.140307617,-0.255439453,0,0,0,,0,333,333,239,1,
,,,,,,,,,,,,,,,,,,5d1f680b4a21e00001818cf2,2020-08-10_17h46.02.656,lexical_decision_task_MP,2020.1.3,MacIntel,60,m,1,,,,,,,,0.46333,1,,,,,,227,WORD,"ID",33,seldom,SELDOM,m,0.46333,,,,,,0.140307617,-0.255439453,0,0,0,,0,334,334,46,1,
,,,,,,,,,,,,,,,,,,5d1f680b4a21e00001818cf2,2020-08-10_17h46.02.656,lexical_decision_task_MP,2020.1.3,MacIntel,60,m,1,,,,,,,,0.366865,1,,,,,,214,WORD,"ID",33,intake,INTAKE,m,0.366865,,,,,,0.140307617,-0.255439453,0,0,0,,0,335,335,33,1,
,,,,,,,,,,,,,,,,,,5d1f680b4a21e00001818cf2,2020-08-10_17h46.02.656,lexical_decision_task_MP,2020.1.3,MacIntel,60,m,1,,,,,,,,0.45068,1,,,,,,195,WORD,"ID",33,resign,RESIGN,m,0.45068,,,,,,0.140307617,-0.255439453,0,0,0,,0,336,336,14,1,
,,,,,,,,,,,,,,,,,,5d1f680b4a21e00001818cf2,2020-08-10_17h46.02.656,lexical_decision_task_MP,2020.1.3,MacIntel,60,z,1,,,,,,,,0.5247,1,,,,,,301,NW,UN,33,miluer,FAINCH,z,0.5247,,,,,,0.140307617,-0.255439453,0,0,0,,0,337,337,360,1,
,,,,,,,,,,,,,,,,,,5d1f680b4a21e00001818cf2,2020-08-10_17h46.02.656,lexical_decision_task_MP,2020.1.3,MacIntel,60,z,1,,,,,,,,0.532885,1,,,,,,251,NW,"ID",50,lupict,LUPICT,z,0.532885,,,,,,0.140307617,-0.255439453,0,0,0,,0,338,338,310,1,
,,,,,,,,,,,,,,,,,,5d1f680b4a21e00001818cf2,2020-08-10_17h46.02.656,lexical_decision_task_MP,2020.1.3,MacIntel,60,m,1,,,,,,,,0.64117,1,,,,,,7,WORD,"ID",50,anchor,ANCHOR,m,0.64117,,,,,,0.140307617,-0.255439453,0,0,0,,0,339,339,66,1,
,,,,,,,,,,,,,,,,,,5d1f680b4a21e00001818cf2,2020-08-10_17h46.02.656,lexical_decision_task_MP,2020.1.3,MacIntel,60,m,1,,,,,,,,0.43483,1,,,,,,50,WORD,"ID",50,snatch,SNATCH,m,0.43483,,,,,,0.140307617,-0.255439453,0,0,0,,0,340,340,109,1,
,,,,,,,,,,,,,,,,,,5d1f680b4a21e00001818cf2,2020-08-10_17h46.02.656,lexical_decision_task_MP,2020.1.3,MacIntel,60,m,1,,,,,,,,0.4217,1,,,,,,21,WORD,"ID",50,simple,SIMPLE,m,0.4217,,,,,,0.140307617,-0.255439453,0,0,0,,0,341,341,80,1,
,,,,,,,,,,,,,,,,,,5d1f680b4a21e00001818cf2,2020-08-10_17h46.02.656,lexical_decision_task_MP,2020.1.3,MacIntel,60,z,1,,,,,,,,0.532515,1,,,,,,313,NW,UN,33,sprine,PAURSE,z,0.532515,,,,,,0.140307617,-0.255439453,0,0,0,,0,342,342,372,1,
,,,,,,,,,,,,,,,,,,5d1f680b4a21e00001818cf2,2020-08-10_17h46.02.656,lexical_decision_task_MP,2020.1.3,MacIntel,60,m,1,,,,,,,,0.799265,1,,,,,,76,WORD,UN,33,racket,EXOTIC,m,0.799265,,,,,,0.140307617,-0.255439453,0,0,0,,0,343,343,135,1,
,,,,,,,,,,,,,,,,,,5d1f680b4a21e00001818cf2,2020-08-10_17h46.02.656,lexical_decision_task_MP,2020.1.3,MacIntel,60,z,1,,,,,,,,0.50477,1,,,,,,275,NW,"ID",50,sleirt,SLEIRT,z,0.50477,,,,,,0.140307617,-0.255439453,0,0,0,,0,344,344,334,1,
,,,,,,,,,,,,,,,,,,5d1f680b4a21e00001818cf2,2020-08-10_17h46.02.656,lexical_decision_task_MP,2020.1.3,MacIntel,60,m,1,,,,,,,,0.498575,1,,,,,,188,WORD,"ID",33,social,SOCIAL,m,0.498575,,,,,,0.140307617,-0.255439453,0,0,0,,0,345,345,7,1,
,,,,,,,,,,,,,,,,,,5d1f680b4a21e00001818cf2,2020-08-10_17h46.02.656,lexical_decision_task_MP,2020.1.3,MacIntel,60,m,1,,,,,,,,0.41852,1,,,,,,148,WORD,UN,50,invade,CUSTOM,m,0.41852,,,,,,0.140307617,-0.255439453,0,0,0,,0,346,346,207,1,
,,,,,,,,,,,,,,,,,,5d1f680b4a21e00001818cf2,2020-08-10_17h46.02.656,lexical_decision_task_MP,2020.1.3,MacIntel,60,m,1,,,,,,,,0.488105,1,,,,,,5,WORD,"ID",50,plunge,PLUNGE,m,0.488105,,,,,,0.140307617,-0.255439453,0,0,0,,0,347,347,64,1,
,,,,,,,,,,,,,,,,,,5d1f680b4a21e00001818cf2,2020-08-10_17h46.02.656,lexical_decision_task_MP,2020.1.3,MacIntel,60,m,1,,,,,,,,0.436405,1,,,,,,67,WORD,UN,33,fumble,POLICY,m,0.436405,,,,,,0.140307617,-0.255439453,0,0,0,,0,348,348,126,1,
,,,,,,,,,,,,,,,,,,5d1f680b4a21e00001818cf2,2020-08-10_17h46.02.656,lexical_decision_task_MP,2020.1.3,MacIntel,60,z,1,,,,,,,,0.65057,1,,,,,,314,NW,UN,33,laston,SPRINE,z,0.65057,,,,,,0.140307617,-0.255439453,0,0,0,,0,349,349,373,1,
,,,,,,,,,,,,,,,,,,5d1f680b4a21e00001818cf2,2020-08-10_17h46.02.656,lexical_decision_task_MP,2020.1.3,MacIntel,60,m,1,,,,,,,,0.56441,1,,,,,,220,WORD,"ID",33,voyage,VOYAGE,m,0.56441,,,,,,0.140307617,-0.255439453,0,0,0,,0,350,350,39,1,
,,,,,,,,,,,,,,,,,,5d1f680b4a21e00001818cf2,2020-08-10_17h46.02.656,lexical_decision_task_MP,2020.1.3,MacIntel,60,z,1,,,,,,,,0.4537,1,,,,,,294,NW,"ID",50,inhort,INHORT,z,0.4537,,,,,,0.140307617,-0.255439453,0,0,0,,0,351,351,353,1,
,,,,,,,,,,,,,,,,,,5d1f680b4a21e00001818cf2,2020-08-10_17h46.02.656,lexical_decision_task_MP,2020.1.3,MacIntel,60,z,1,,,,,,,,0.50215,1,,,,,,347,NW,UN,33,dumple,KERIFT,z,0.50215,,,,,,0.140307617,-0.255439453,0,0,0,,0,352,352,406,1,
,,,,,,,,,,,,,,,,,,5d1f680b4a21e00001818cf2,2020-08-10_17h46.02.656,lexical_decision_task_MP,2020.1.3,MacIntel,60,z,1,,,,,,,,0.516,1,,,,,,368,NW,UN,50,wronch,HORNAL,z,0.516,,,,,,0.140307617,-0.255439453,0,0,0,,0,353,353,427,1,
,,,,,,,,,,,,,,,,,,5d1f680b4a21e00001818cf2,2020-08-10_17h46.02.656,lexical_decision_task_MP,2020.1.3,MacIntel,60,m,1,,,,,,,,0.47548,1,,,,,,202,WORD,"ID",33,factor,FACTOR,m,0.47548,,,,,,0.140307617,-0.255439453,0,0,0,,0,354,354,21,1,
,,,,,,,,,,,,,,,,,,5d1f680b4a21e00001818cf2,2020-08-10_17h46.02.656,lexical_decision_task_MP,2020.1.3,MacIntel,60,z,1,,,,,,,,0.522395,1,,,,,,258,NW,"ID",50,poluth,POLUTH,z,0.522395,,,,,,0.140307617,-0.255439453,0,0,0,,0,355,355,317,1,
,,,,,,,,,,,,,,,,,,5d1f680b4a21e00001818cf2,2020-08-10_17h46.02.656,lexical_decision_task_MP,2020.1.3,MacIntel,60,m,1,,,,,,,,0.45877,1,,,,,,56,WORD,"ID",50,ambush,AMBUSH,m,0.45877,,,,,,0.140307617,-0.255439453,0,0,0,,0,356,356,115,1,
,,,,,,,,,,,,,,,,,,5d1f680b4a21e00001818cf2,2020-08-10_17h46.02.656,lexical_decision_task_MP,2020.1.3,MacIntel,60,m,1,,,,,,,,0.38603,1,,,,,,41,WORD,"ID",50,spring,SPRING,m,0.38603,,,,,,0.140307617,-0.255439453,0,0,0,,0,357,357,100,1,
,,,,,,,,,,,,,,,,,,5d1f680b4a21e00001818cf2,2020-08-10_17h46.02.656,lexical_decision_task_MP,2020.1.3,MacIntel,60,z,1,,,,,,,,0.45063,1,,,,,,253,NW,"ID",50,resait,RESAIT,z,0.45063,,,,,,0.140307617,-0.255439453,0,0,0,,0,358,358,312,1,
,,,,,,,,,,,,,,,,,,5d1f680b4a21e00001818cf2,2020-08-10_17h46.02.656,lexical_decision_task_MP,2020.1.3,MacIntel,60,m,1,,,,,,,,0.48389,1,,,,,,103,WORD,UN,33,studio,BOUNCE,m,0.48389,,,,,,0.140307617,-0.255439453,0,0,0,,0,359,359,162,1,
,,,,,,,,,,,,,,,,,,5d1f680b4a21e00001818cf2,2020-08-10_17h46.02.656,lexical_decision_task_MP,2020.1.3,MacIntel,60,z,0,,,,,,,,0.4491,0,,,,,,175,WORD,UN,50,strife,FABRIC,m,0.4491,,,,,,0.140307617,-0.255439453,0,0,0,,0,360,360,234,1,
,,,,,,,,,,,,,,,,,,5d1f680b4a21e00001818cf2,2020-08-10_17h46.02.656,lexical_decision_task_MP,2020.1.3,MacIntel,60,m,1,,,,,,,,0.551255,1,,,,,,116,WORD,UN,33,branch,TUMBLE,m,0.551255,,,,,,0.140307617,-0.255439453,0,0,0,,0,361,361,175,1,
,,,,,,,,,,,,,,,,,,5d1f680b4a21e00001818cf2,2020-08-10_17h46.02.656,lexical_decision_task_MP,2020.1.3,MacIntel,60,z,1,,,,,,,,0.55453,1,,,,,,401,NW,UN,50,syntic,MUSTIL,z,0.55453,,,,,,0.140307617,-0.255439453,0,0,0,space,0,362,362,460,1,2.193945
,,,,,,,,,,,,,,,,,,5d1f680b4a21e00001818cf2,2020-08-10_17h46.02.656,lexical_decision_task_MP,2020.1.3,MacIntel,60,m,1,,,,,,,,0.72103,1,,,,,,194,WORD,"ID",33,absent,ABSENT,m,0.72103,,,,,,0.140307617,-0.255439453,0,0,0,,0,363,363,13,1,
,,,,,,,,,,,,,,,,,,5d1f680b4a21e00001818cf2,2020-08-10_17h46.02.656,lexical_decision_task_MP,2020.1.3,MacIntel,60,z,1,,,,,,,,0.550695,1,,,,,,455,NW,"ID",33,tondle,TONDLE,z,0.550695,,,,,,0.140307617,-0.255439453,0,0,0,,0,364,364,274,1,
,,,,,,,,,,,,,,,,,,5d1f680b4a21e00001818cf2,2020-08-10_17h46.02.656,lexical_decision_task_MP,2020.1.3,MacIntel,60,m,1,,,,,,,,0.789845,1,,,,,,177,WORD,UN,50,inform,ADVENT,m,0.789845,,,,,,0.140307617,-0.255439453,0,0,0,,0,365,365,236,1,
,,,,,,,,,,,,,,,,,,5d1f680b4a21e00001818cf2,2020-08-10_17h46.02.656,lexical_decision_task_MP,2020.1.3,MacIntel,60,m,1,,,,,,,,0.551605,1,,,,,,174,WORD,UN,50,fabric,TURKEY,m,0.551605,,,,,,0.140307617,-0.255439453,0,0,0,,0,366,366,233,1,
,,,,,,,,,,,,,,,,,,5d1f680b4a21e00001818cf2,2020-08-10_17h46.02.656,lexical_decision_task_MP,2020.1.3,MacIntel,60,m,1,,,,,,,,0.414625,1,,,,,,95,WORD,UN,33,ignore,THREAD,m,0.414625,,,,,,0.140307617,-0.255439453,0,0,0,,0,367,367,154,1,
,,,,,,,,,,,,,,,,,,5d1f680b4a21e00001818cf2,2020-08-10_17h46.02.656,lexical_decision_task_MP,2020.1.3,MacIntel,60,m,0,,,,,,,,0.363335,0,,,,,,454,NW,"ID",33,scouge,SCOUGE,z,0.363335,,,,,,0.140307617,-0.255439453,0,0,0,,0,368,368,273,1,
,,,,,,,,,,,,,,,,,,5d1f680b4a21e00001818cf2,2020-08-10_17h46.02.656,lexical_decision_task_MP,2020.1.3,MacIntel,60,m,1,,,,,,,,0.468445,1,,,,,,215,WORD,"ID",33,phobia,PHOBIA,m,0.468445,,,,,,0.140307617,-0.255439453,0,0,0,,0,369,369,34,1,
,,,,,,,,,,,,,,,,,,5d1f680b4a21e00001818cf2,2020-08-10_17h46.02.656,lexical_decision_task_MP,2020.1.3,MacIntel,60,m,1,,,,,,,,0.65313,1,,,,,,131,WORD,UN,50,strong,QUENCH,m,0.65313,,,,,,0.140307617,-0.255439453,0,0,0,,0,370,370,190,1,
,,,,,,,,,,,,,,,,,,5d1f680b4a21e00001818cf2,2020-08-10_17h46.02.656,lexical_decision_task_MP,2020.1.3,MacIntel,60,m,1,,,,,,,,0.64736,1,,,,,,198,WORD,"ID",33,wicked,WICKED,m,0.64736,,,,,,0.140307617,-0.255439453,0,0,0,,0,371,371,17,1,
,,,,,,,,,,,,,,,,,,5d1f680b4a21e00001818cf2,2020-08-10_17h46.02.656,lexical_decision_task_MP,2020.1.3,MacIntel,60,m,1,,,,,,,,0.484665,1,,,,,,81,WORD,UN,33,stigma,FRIEND,m,0.484665,,,,,,0.140307617,-0.255439453,0,0,0,,0,372,372,140,1,
,,,,,,,,,,,,,,,,,,5d1f680b4a21e00001818cf2,2020-08-10_17h46.02.656,lexical_decision_task_MP,2020.1.3,MacIntel,60,z,1,,,,,,,,0.60188,1,,,,,,341,NW,UN,33,randow,MYRTIE,z,0.60188,,,,,,0.140307617,-0.255439453,0,0,0,,0,373,373,400,1,
,,,,,,,,,,,,,,,,,,5d1f680b4a21e00001818cf2,2020-08-10_17h46.02.656,lexical_decision_task_MP,2020.1.3,MacIntel,60,z,1,,,,,,,,0.539475,1,,,,,,447,NW,"ID",33,gircue,GIRCUE,z,0.539475,,,,,,0.140307617,-0.255439453,0,0,0,,0,374,374,266,1,
,,,,,,,,,,,,,,,,,,5d1f680b4a21e00001818cf2,2020-08-10_17h46.02.656,lexical_decision_task_MP,2020.1.3,MacIntel,60,z,1,,,,,,,,0.46512,1,,,,,,271,NW,"ID",50,aubrid,AUBRID,z,0.46512,,,,,,0.140307617,-0.255439453,0,0,0,,0,375,375,330,1,
,,,,,,,,,,,,,,,,,,5d1f680b4a21e00001818cf2,2020-08-10_17h46.02.656,lexical_decision_task_MP,2020.1.3,MacIntel,60,m,1,,,,,,,,0.58819,1,,,,,,42,WORD,"ID",50,chapel,CHAPEL,m,0.58819,,,,,,0.140307617,-0.255439453,0,0,0,,0,376,376,101,1,
,,,,,,,,,,,,,,,,,,5d1f680b4a21e00001818cf2,2020-08-10_17h46.02.656,lexical_decision_task_MP,2020.1.3,MacIntel,60,m,1,,,,,,,,0.452355,1,,,,,,239,WORD,"ID",33,lumber,LUMBER,m,0.452355,,,,,,0.140307617,-0.255439453,0,0,0,,0,377,377,58,1,
,,,,,,,,,,,,,,,,,,5d1f680b4a21e00001818cf2,2020-08-10_17h46.02.656,lexical_decision_task_MP,2020.1.3,MacIntel,60,z,1,,,,,,,,0.64826,1,,,,,,383,NW,UN,50,guesco,AUNGRE,z,0.64826,,,,,,0.140307617,-0.255439453,0,0,0,,0,378,378,442,1,
,,,,,,,,,,,,,,,,,,5d1f680b4a21e00001818cf2,2020-08-10_17h46.02.656,lexical_decision_task_MP,2020.1.3,MacIntel,60,m,1,,,,,,,,0.85593,1,,,,,,74,WORD,UN,33,trophy,PLAQUE,m,0.85593,,,,,,0.140307617,-0.255439453,0,0,0,,0,379,379,133,1,
,,,,,,,,,,,,,,,,,,5d1f680b4a21e00001818cf2,2020-08-10_17h46.02.656,lexical_decision_task_MP,2020.1.3,MacIntel,60,z,1,,,,,,,,0.55876,1,,,,,,382,NW,UN,50,aungre,SARLEY,z,0.55876,,,,,,0.140307617,-0.255439453,0,0,0,,0,380,380,441,1,
,,,,,,,,,,,,,,,,,,5d1f680b4a21e00001818cf2,2020-08-10_17h46.02.656,lexical_decision_task_MP,2020.1.3,MacIntel,60,m,1,,,,,,,,0.537565,1,,,,,,157,WORD,UN,50,island,DRAGON,m,0.537565,,,,,,0.140307617,-0.255439453,0,0,0,,0,381,381,216,1,
,,,,,,,,,,,,,,,,,,5d1f680b4a21e00001818cf2,2020-08-10_17h46.02.656,lexical_decision_task_MP,2020.1.3,MacIntel,60,z,1,,,,,,,,0.523335,1,,,,,,359,NW,UN,33,desory,FONVER,z,0.523335,,,,,,0.140307617,-0.255439453,0,0,0,,0,382,382,418,1,
,,,,,,,,,,,,,,,,,,5d1f680b4a21e00001818cf2,2020-08-10_17h46.02.656,lexical_decision_task_MP,2020.1.3,MacIntel,60,z,1,,,,,,,,0.53162,1,,,,,,361,NW,UN,50,tireau,PAUCHE,z,0.53162,,,,,,0.140307617,-0.255439453,0,0,0,,0,383,383,420,1,
,,,,,,,,,,,,,,,,,,5d1f680b4a21e00001818cf2,2020-08-10_17h46.02.656,lexical_decision_task_MP,2020.1.3,MacIntel,60,z,1,,,,,,,,0.60278,1,,,,,,448,NW,"ID",33,sadent,SADENT,z,0.60278,,,,,,0.140307617,-0.255439453,0,0,0,,0,384,384,267,1,
,,,,,,,,,,,,,,,,,,5d1f680b4a21e00001818cf2,2020-08-10_17h46.02.656,lexical_decision_task_MP,2020.1.3,MacIntel,60,m,1,,,,,,,,0.47405,1,,,,,,38,WORD,"ID",50,powder,POWDER,m,0.47405,,,,,,0.140307617,-0.255439453,0,0,0,,0,385,385,97,1,
,,,,,,,,,,,,,,,,,,5d1f680b4a21e00001818cf2,2020-08-10_17h46.02.656,lexical_decision_task_MP,2020.1.3,MacIntel,60,m,1,,,,,,,,0.366905,1,,,,,,219,WORD,"ID",33,bucket,BUCKET,m,0.366905,,,,,,0.140307617,-0.255439453,0,0,0,,0,386,386,38,1,
,,,,,,,,,,,,,,,,,,5d1f680b4a21e00001818cf2,2020-08-10_17h46.02.656,lexical_decision_task_MP,2020.1.3,MacIntel,60,m,1,,,,,,,,0.384775,1,,,,,,236,WORD,"ID",33,pirate,PIRATE,m,0.384775,,,,,,0.140307617,-0.255439453,0,0,0,,0,387,387,55,1,
,,,,,,,,,,,,,,,,,,5d1f680b4a21e00001818cf2,2020-08-10_17h46.02.656,lexical_decision_task_MP,2020.1.3,MacIntel,60,z,1,,,,,,,,0.531975,1,,,,,,399,NW,UN,50,wearox,FOURET,z,0.531975,,,,,,0.140307617,-0.255439453,0,0,0,,0,388,388,458,1,
,,,,,,,,,,,,,,,,,,5d1f680b4a21e00001818cf2,2020-08-10_17h46.02.656,lexical_decision_task_MP,2020.1.3,MacIntel,60,z,1,,,,,,,,0.78451,1,,,,,,427,NW,"ID",33,schind,SCHIND,z,0.78451,,,,,,0.140307617,-0.255439453,0,0,0,,0,389,389,246,1,
,,,,,,,,,,,,,,,,,,5d1f680b4a21e00001818cf2,2020-08-10_17h46.02.656,lexical_decision_task_MP,2020.1.3,MacIntel,60,z,0,,,,,,,,0.481495,0,,,,,,99,WORD,UN,33,carbon,FLUENT,m,0.481495,,,,,,0.140307617,-0.255439453,0,0,0,,0,390,390,158,1,
,,,,,,,,,,,,,,,,,,5d1f680b4a21e00001818cf2,2020-08-10_17h46.02.656,lexical_decision_task_MP,2020.1.3,MacIntel,60,z,1,,,,,,,,0.54395,1,,,,,,463,NW,"ID",33,kispel,KISPEL,z,0.54395,,,,,,0.140307617,-0.255439453,0,0,0,,0,391,391,282,1,
,,,,,,,,,,,,,,,,,,5d1f680b4a21e00001818cf2,2020-08-10_17h46.02.656,lexical_decision_task_MP,2020.1.3,MacIntel,60,z,1,,,,,,,,0.60509,1,,,,,,432,NW,"ID",33,lunker,LUNKER,z,0.60509,,,,,,0.140307617,-0.255439453,0,0,0,,0,392,392,251,1,
,,,,,,,,,,,,,,,,,,5d1f680b4a21e00001818cf2,2020-08-10_17h46.02.656,lexical_decision_task_MP,2020.1.3,MacIntel,60,m,1,,,,,,,,0.53815,1,,,,,,230,WORD,"ID",33,fringe,FRINGE,m,0.53815,,,,,,0.140307617,-0.255439453,0,0,0,,0,393,393,49,1,
,,,,,,,,,,,,,,,,,,5d1f680b4a21e00001818cf2,2020-08-10_17h46.02.656,lexical_decision_task_MP,2020.1.3,MacIntel,60,z,1,,,,,,,,0.53364,1,,,,,,395,NW,UN,50,flengy,COLURY,z,0.53364,,,,,,0.140307617,-0.255439453,0,0,0,,0,394,394,454,1,
,,,,,,,,,,,,,,,,,,5d1f680b4a21e00001818cf2,2020-08-10_17h46.02.656,lexical_decision_task_MP,2020.1.3,MacIntel,60,z,1,,,,,,,,0.53322,1,,,,,,311,NW,UN,33,nerawl,SPROLY,z,0.53322,,,,,,0.140307617,-0.255439453,0,0,0,,0,395,395,370,1,
,,,,,,,,,,,,,,,,,,5d1f680b4a21e00001818cf2,2020-08-10_17h46.02.656,lexical_decision_task_MP,2020.1.3,MacIntel,60,m,1,,,,,,,,0.456175,1,,,,,,68,WORD,UN,33,plenty,FUMBLE,m,0.456175,,,,,,0.140307617,-0.255439453,0,0,0,,0,396,396,127,1,
,,,,,,,,,,,,,,,,,,5d1f680b4a21e00001818cf2,2020-08-10_17h46.02.656,lexical_decision_task_MP,2020.1.3,MacIntel,60,m,1,,,,,,,,0.517005,1,,,,,,51,WORD,"ID",50,hungry,HUNGRY,m,0.517005,,,,,,0.140307617,-0.255439453,0,0,0,,0,397,397,110,1,
,,,,,,,,,,,,,,,,,,5d1f680b4a21e00001818cf2,2020-08-10_17h46.02.656,lexical_decision_task_MP,2020.1.3,MacIntel,60,m,0,,,,,,,,0.51943,0,,,,,,332,NW,UN,33,catrie,VANGUE,z,0.51943,,,,,,0.140307617,-0.255439453,0,0,0,,0,398,398,391,1,
