counterbalancing_condition,instr_done_keyboard.keys,instr_done_touch.x,instr_done_touch.y,instr_done_touch.leftButton,instr_done_touch.midButton,instr_done_touch.rightButton,instr_done_touch.clicked_name,instruction_pages.thisRepN,instruction_pages.thisTrialN,instruction_pages.thisN,instruction_pages.thisIndex,instruction_pages.ran,pageN,phase,instruct_text,has_image,instruct_image,participant,date,expName,psychopyVersion,OS,frameRate,instr_done_keyboard.rt,response.keys,response.corr,response.rt,touch_resp.x,touch_resp.y,touch_resp.leftButton,touch_resp.midButton,touch_resp.rightButton,touch_resp.time,touch_resp.clicked_name,rt,corr,practice_trials.thisRepN,practice_trials.thisTrialN,practice_trials.thisN,practice_trials.thisIndex,practice_trials.ran,TrialID,StimulusType,Condition,PrimeDuration,Prime,Target,corrAns,end_of_practice_trials_pages.thisRepN,end_of_practice_trials_pages.thisTrialN,end_of_practice_trials_pages.thisN,end_of_practice_trials_pages.thisIndex,end_of_practice_trials_pages.ran,break_done_touch.x,break_done_touch.y,break_done_touch.leftButton,break_done_touch.midButton,break_done_touch.rightButton,break_done_keyboard.keys,trials.thisRepN,trials.thisTrialN,trials.thisN,trials.thisIndex,trials.ran,break_done_keyboard.rt,break_done_touch.clicked_name
0,,0.053333333,-0.417777778,1,0,0,instr_done_button,0,0,0,0,1,1,instructions,"INSTRUCTIONS
At the start of each trial, look at the hash marks (######) in the center of the screen. After a moment, a string of letters will appear. Your task is to indicate if the letter string forms a word or not (i.e., if it is a nonword). For example, AUTHOR is a word while AUTHON is a nonword.

Press the space bar or touch the button below to continue.",0,,5d2dbfc01460350001333a97,2020-08-10_16h32.15.687,lexical_decision_task_MP,2020.1.3,MacIntel,60,,,,,,,,,,,,,,,,,,,,,,,,,,,,,,,,,,,,,,,,,,,
,space,0.053333333,-0.417777778,0,0,0,,0,1,1,1,1,2,instructions,"If your device has a keyboard, press the 'Z' key for nonwords and the 'M' key for words.





Press the space bar or touch the button below to continue.",1,keyboard-example.gif,5d2dbfc01460350001333a97,2020-08-10_16h32.15.687,lexical_decision_task_MP,2020.1.3,MacIntel,60,8.34,,,,,,,,,,,,,,,,,,,,,,,,,,,,,,,,,,,,,,,,,,
,space,0.031111111,-0.29,0,0,0,,0,2,2,2,1,3,instructions,"If you are using a touchscreen only device, use the buttons on the screen. Do not use the mouse.





Press the space bar or touch the button below to continue.",1,touchscreen-example.gif,5d2dbfc01460350001333a97,2020-08-10_16h32.15.687,lexical_decision_task_MP,2020.1.3,MacIntel,60,9.996,,,,,,,,,,,,,,,,,,,,,,,,,,,,,,,,,,,,,,,,,,
,space,0.031111111,-0.29,0,0,0,,0,3,3,3,1,4,instructions,"It is very important that you respond as quickly and accurately as possible, as each letter string will only be on the screen for two seconds. If you do not respond within this time, the message 'Too slow!' will be displayed and the experiment will progress to the next letter string. The first 20 trials will be practice trials and you will receive feedback on your answers. 

Press the space bar or touch the button below to start the practice trials.",0,,5d2dbfc01460350001333a97,2020-08-10_16h32.15.687,lexical_decision_task_MP,2020.1.3,MacIntel,60,6.382,,,,,,,,,,,,,,,,,,,,,,,,,,,,,,,,,,,,,,,,,,
,,,,,,,,,,,,,,,,,,5d2dbfc01460350001333a97,2020-08-10_16h32.15.687,lexical_decision_task_MP,2020.1.3,MacIntel,60,,m,1,0.852,,,,,,,,0.852,1,0,0,0,1,1,1002,WORD,"ID",33,adjust,ADJUST,m,,,,,,,,,,,,,,,,,,
,,,,,,,,,,,,,,,,,,5d2dbfc01460350001333a97,2020-08-10_16h32.15.687,lexical_decision_task_MP,2020.1.3,MacIntel,60,,m,1,0.603,,,,,,,,0.603,1,0,1,1,3,1,1004,WORD,"ID",50,matrix,MATRIX,m,,,,,,,,,,,,,,,,,,
,,,,,,,,,,,,,,,,,,5d2dbfc01460350001333a97,2020-08-10_16h32.15.687,lexical_decision_task_MP,2020.1.3,MacIntel,60,,m,1,0.683,,,,,,,,0.683,1,0,2,2,0,1,1001,WORD,"ID",33,utopia,UTOPIA,m,,,,,,,,,,,,,,,,,,
,,,,,,,,,,,,,,,,,,5d2dbfc01460350001333a97,2020-08-10_16h32.15.687,lexical_decision_task_MP,2020.1.3,MacIntel,60,,z,1,0.837,,,,,,,,0.837,1,0,3,3,14,1,1015,NW,UN,50,miaber,THRALE,z,,,,,,,,,,,,,,,,,,
,,,,,,,,,,,,,,,,,,5d2dbfc01460350001333a97,2020-08-10_16h32.15.687,lexical_decision_task_MP,2020.1.3,MacIntel,60,,z,1,0.702,,,,,,,,0.702,1,0,4,4,13,1,1014,NW,UN,33,winfer,ROUPET,z,,,,,,,,,,,,,,,,,,
,,,,,,,,,,,,,,,,,,5d2dbfc01460350001333a97,2020-08-10_16h32.15.687,lexical_decision_task_MP,2020.1.3,MacIntel,60,,z,1,0.853,,,,,,,,0.853,1,0,5,5,9,1,1010,NW,"ID",33,fariny,FARINY,z,,,,,,,,,,,,,,,,,,
,,,,,,,,,,,,,,,,,,5d2dbfc01460350001333a97,2020-08-10_16h32.15.687,lexical_decision_task_MP,2020.1.3,MacIntel,60,,m,1,0.722,,,,,,,,0.722,1,0,6,6,7,1,1008,WORD,UN,50,hurdle,VOLUME,m,,,,,,,,,,,,,,,,,,
,,,,,,,,,,,,,,,,,,5d2dbfc01460350001333a97,2020-08-10_16h32.15.687,lexical_decision_task_MP,2020.1.3,MacIntel,60,,m,0,0.585,,,,,,,,0.585,0,0,7,7,12,1,1013,NW,UN,33,adveil,SPRINY,z,,,,,,,,,,,,,,,,,,
,,,,,,,,,,,,,,,,,,5d2dbfc01460350001333a97,2020-08-10_16h32.15.687,lexical_decision_task_MP,2020.1.3,MacIntel,60,,m,1,0.891,,,,,,,,0.891,1,0,8,8,2,1,1003,WORD,"ID",50,almond,ALMOND,m,,,,,,,,,,,,,,,,,,
,,,,,,,,,,,,,,,,,,5d2dbfc01460350001333a97,2020-08-10_16h32.15.687,lexical_decision_task_MP,2020.1.3,MacIntel,60,,m,1,0.504,,,,,,,,0.504,1,0,9,9,6,1,1007,WORD,UN,50,tropic,ZOMBIE,m,,,,,,,,,,,,,,,,,,
,,,,,,,,,,,,,,,,,,5d2dbfc01460350001333a97,2020-08-10_16h32.15.687,lexical_decision_task_MP,2020.1.3,MacIntel,60,,z,1,0.804,,,,,,,,0.804,1,0,10,10,8,1,1009,NW,"ID",33,aslert,ASLERT,z,,,,,,,,,,,,,,,,,,
,,,,,,,,,,,,,,,,,,5d2dbfc01460350001333a97,2020-08-10_16h32.15.687,lexical_decision_task_MP,2020.1.3,MacIntel,60,,z,1,0.687,,,,,,,,0.687,1,0,11,11,15,1,1016,NW,UN,50,mushed,WHAISE,z,,,,,,,,,,,,,,,,,,
,,,,,,,,,,,,,,,,,,5d2dbfc01460350001333a97,2020-08-10_16h32.15.687,lexical_decision_task_MP,2020.1.3,MacIntel,60,,m,1,0.557,,,,,,,,0.557,1,0,12,12,4,1,1005,WORD,UN,33,abound,SQUEAK,m,,,,,,,,,,,,,,,,,,
,,,,,,,,,,,,,,,,,,5d2dbfc01460350001333a97,2020-08-10_16h32.15.687,lexical_decision_task_MP,2020.1.3,MacIntel,60,,z,1,0.684,,,,,,,,0.684,1,0,13,13,11,1,1012,NW,"ID",50,rashet,RASHET,z,,,,,,,,,,,,,,,,,,
,,,,,,,,,,,,,,,,,,5d2dbfc01460350001333a97,2020-08-10_16h32.15.687,lexical_decision_task_MP,2020.1.3,MacIntel,60,,z,1,0.974,,,,,,,,0.974,1,0,14,14,10,1,1011,NW,"ID",50,inlade,INLADE,z,,,,,,,,,,,,,,,,,,
,,,,,,,,,,,,,,,,,,5d2dbfc01460350001333a97,2020-08-10_16h32.15.687,lexical_decision_task_MP,2020.1.3,MacIntel,60,,m,1,0.585,,,,,,,,0.585,1,0,15,15,5,1,1006,WORD,UN,33,frenzy,OBTAIN,m,,,,,,,,,,,,,,,,,,
,space,-0.004444444,-0.397777778,0,0,0,,,,,,,1,end_of_practice,"You have completed the practice trials. During the experimental trials, you will not receive feedback, but it is very important that you respond as quickly and accurately as possible. 
Before you begin, please ensure that you are in a comfortable and quiet location and will not be disturbed for about 15 minutes, as we cannot use your data if you do not complete all the trials. 
There will be opportunities to take breaks at regular intervals during the experiment. When you are ready to start the experimental trials, please press space or touch the button below.",,,5d2dbfc01460350001333a97,2020-08-10_16h32.15.687,lexical_decision_task_MP,2020.1.3,MacIntel,60,18.682,,,,,,,,,,,,,,,,,,,,,,,,,0,0,0,0,1,,,,,,,,,,,,,
,,,,,,,,,,,,,,,,,,5d2dbfc01460350001333a97,2020-08-10_16h32.15.687,lexical_decision_task_MP,2020.1.3,MacIntel,60,,m,1,0.674,,,,,,,,0.674,1,,,,,,16,WORD,"ID",50,faucet,FAUCET,m,,,,,,-0.004444444,-0.397777778,0,0,0,,0,0,0,75,1,,
,,,,,,,,,,,,,,,,,,5d2dbfc01460350001333a97,2020-08-10_16h32.15.687,lexical_decision_task_MP,2020.1.3,MacIntel,60,,m,1,0.666,,,,,,,,0.666,1,,,,,,120,WORD,UN,33,ponder,STRAIN,m,,,,,,-0.004444444,-0.397777778,0,0,0,,0,1,1,179,1,,
,,,,,,,,,,,,,,,,,,5d2dbfc01460350001333a97,2020-08-10_16h32.15.687,lexical_decision_task_MP,2020.1.3,MacIntel,60,,m,1,0.503,,,,,,,,0.503,1,,,,,,80,WORD,UN,33,friend,FAMILY,m,,,,,,-0.004444444,-0.397777778,0,0,0,,0,2,2,139,1,,
,,,,,,,,,,,,,,,,,,5d2dbfc01460350001333a97,2020-08-10_16h32.15.687,lexical_decision_task_MP,2020.1.3,MacIntel,60,,z,1,0.754,,,,,,,,0.754,1,,,,,,280,NW,"ID",50,curbol,CURBOL,z,,,,,,-0.004444444,-0.397777778,0,0,0,,0,3,3,339,1,,
,,,,,,,,,,,,,,,,,,5d2dbfc01460350001333a97,2020-08-10_16h32.15.687,lexical_decision_task_MP,2020.1.3,MacIntel,60,,z,0,1.354,,,,,,,,1.354,0,,,,,,240,WORD,"ID",33,forest,FOREST,m,,,,,,-0.004444444,-0.397777778,0,0,0,,0,4,4,59,1,,
,,,,,,,,,,,,,,,,,,5d2dbfc01460350001333a97,2020-08-10_16h32.15.687,lexical_decision_task_MP,2020.1.3,MacIntel,60,,z,1,0.872,,,,,,,,0.872,1,,,,,,397,NW,UN,50,blunde,CAMBLE,z,,,,,,-0.004444444,-0.397777778,0,0,0,,0,5,5,456,1,,
,,,,,,,,,,,,,,,,,,5d2dbfc01460350001333a97,2020-08-10_16h32.15.687,lexical_decision_task_MP,2020.1.3,MacIntel,60,,z,1,0.668,,,,,,,,0.668,1,,,,,,302,NW,UN,33,fiream,MILUER,z,,,,,,-0.004444444,-0.397777778,0,0,0,,0,6,6,361,1,,
,,,,,,,,,,,,,,,,,,5d2dbfc01460350001333a97,2020-08-10_16h32.15.687,lexical_decision_task_MP,2020.1.3,MacIntel,60,,m,1,0.521,,,,,,,,0.521,1,,,,,,199,WORD,"ID",33,invoke,INVOKE,m,,,,,,-0.004444444,-0.397777778,0,0,0,,0,7,7,18,1,,
,,,,,,,,,,,,,,,,,,5d2dbfc01460350001333a97,2020-08-10_16h32.15.687,lexical_decision_task_MP,2020.1.3,MacIntel,60,,z,1,0.668,,,,,,,,0.668,1,,,,,,370,NW,UN,50,geiloy,SLEACT,z,,,,,,-0.004444444,-0.397777778,0,0,0,,0,8,8,429,1,,
,,,,,,,,,,,,,,,,,,5d2dbfc01460350001333a97,2020-08-10_16h32.15.687,lexical_decision_task_MP,2020.1.3,MacIntel,60,,z,1,0.604,,,,,,,,0.604,1,,,,,,262,NW,"ID",50,quilew,QUILEW,z,,,,,,-0.004444444,-0.397777778,0,0,0,,0,9,9,321,1,,
,,,,,,,,,,,,,,,,,,5d2dbfc01460350001333a97,2020-08-10_16h32.15.687,lexical_decision_task_MP,2020.1.3,MacIntel,60,,z,1,0.555,,,,,,,,0.555,1,,,,,,367,NW,UN,50,hornal,SLIQUE,z,,,,,,-0.004444444,-0.397777778,0,0,0,,0,10,10,426,1,,
,,,,,,,,,,,,,,,,,,5d2dbfc01460350001333a97,2020-08-10_16h32.15.687,lexical_decision_task_MP,2020.1.3,MacIntel,60,,m,1,0.555,,,,,,,,0.555,1,,,,,,209,WORD,"ID",33,search,SEARCH,m,,,,,,-0.004444444,-0.397777778,0,0,0,,0,11,11,28,1,,
,,,,,,,,,,,,,,,,,,5d2dbfc01460350001333a97,2020-08-10_16h32.15.687,lexical_decision_task_MP,2020.1.3,MacIntel,60,,m,1,0.555,,,,,,,,0.555,1,,,,,,165,WORD,UN,50,starch,INVEST,m,,,,,,-0.004444444,-0.397777778,0,0,0,,0,12,12,224,1,,
,,,,,,,,,,,,,,,,,,5d2dbfc01460350001333a97,2020-08-10_16h32.15.687,lexical_decision_task_MP,2020.1.3,MacIntel,60,,m,1,0.603,,,,,,,,0.603,1,,,,,,141,WORD,UN,50,spruce,ORPHAN,m,,,,,,-0.004444444,-0.397777778,0,0,0,,0,13,13,200,1,,
,,,,,,,,,,,,,,,,,,5d2dbfc01460350001333a97,2020-08-10_16h32.15.687,lexical_decision_task_MP,2020.1.3,MacIntel,60,,m,1,0.574,,,,,,,,0.574,1,,,,,,15,WORD,"ID",50,amount,AMOUNT,m,,,,,,-0.004444444,-0.397777778,0,0,0,,0,14,14,74,1,,
,,,,,,,,,,,,,,,,,,5d2dbfc01460350001333a97,2020-08-10_16h32.15.687,lexical_decision_task_MP,2020.1.3,MacIntel,60,,m,1,0.69,,,,,,,,0.69,1,,,,,,113,WORD,UN,33,placid,CHORUS,m,,,,,,-0.004444444,-0.397777778,0,0,0,,0,15,15,172,1,,
,,,,,,,,,,,,,,,,,,5d2dbfc01460350001333a97,2020-08-10_16h32.15.687,lexical_decision_task_MP,2020.1.3,MacIntel,60,,m,1,0.841,,,,,,,,0.841,1,,,,,,2,WORD,"ID",50,bridge,BRIDGE,m,,,,,,-0.004444444,-0.397777778,0,0,0,,0,16,16,61,1,,
,,,,,,,,,,,,,,,,,,5d2dbfc01460350001333a97,2020-08-10_16h32.15.687,lexical_decision_task_MP,2020.1.3,MacIntel,60,,m,1,0.699,,,,,,,,0.699,1,,,,,,210,WORD,"ID",33,monkey,MONKEY,m,,,,,,-0.004444444,-0.397777778,0,0,0,,0,17,17,29,1,,
,,,,,,,,,,,,,,,,,,5d2dbfc01460350001333a97,2020-08-10_16h32.15.687,lexical_decision_task_MP,2020.1.3,MacIntel,60,,m,1,0.534,,,,,,,,0.534,1,,,,,,215,WORD,"ID",33,phobia,PHOBIA,m,,,,,,-0.004444444,-0.397777778,0,0,0,,0,18,18,34,1,,
,,,,,,,,,,,,,,,,,,5d2dbfc01460350001333a97,2020-08-10_16h32.15.687,lexical_decision_task_MP,2020.1.3,MacIntel,60,,z,1,0.604,,,,,,,,0.604,1,,,,,,356,NW,UN,33,derain,OTHNIS,z,,,,,,-0.004444444,-0.397777778,0,0,0,,0,19,19,415,1,,
,,,,,,,,,,,,,,,,,,5d2dbfc01460350001333a97,2020-08-10_16h32.15.687,lexical_decision_task_MP,2020.1.3,MacIntel,60,,m,1,0.57,,,,,,,,0.57,1,,,,,,41,WORD,"ID",50,spring,SPRING,m,,,,,,-0.004444444,-0.397777778,0,0,0,,0,20,20,100,1,,
,,,,,,,,,,,,,,,,,,5d2dbfc01460350001333a97,2020-08-10_16h32.15.687,lexical_decision_task_MP,2020.1.3,MacIntel,60,,m,1,0.601,,,,,,,,0.601,1,,,,,,149,WORD,UN,50,random,INVADE,m,,,,,,-0.004444444,-0.397777778,0,0,0,,0,21,21,208,1,,
,,,,,,,,,,,,,,,,,,5d2dbfc01460350001333a97,2020-08-10_16h32.15.687,lexical_decision_task_MP,2020.1.3,MacIntel,60,,m,1,0.574,,,,,,,,0.574,1,,,,,,65,WORD,UN,33,gospel,SYMBOL,m,,,,,,-0.004444444,-0.397777778,0,0,0,,0,22,22,124,1,,
,,,,,,,,,,,,,,,,,,5d2dbfc01460350001333a97,2020-08-10_16h32.15.687,lexical_decision_task_MP,2020.1.3,MacIntel,60,,m,0,0.438,,,,,,,,0.438,0,,,,,,461,NW,"ID",33,justre,JUSTRE,z,,,,,,-0.004444444,-0.397777778,0,0,0,,0,23,23,280,1,,
,,,,,,,,,,,,,,,,,,5d2dbfc01460350001333a97,2020-08-10_16h32.15.687,lexical_decision_task_MP,2020.1.3,MacIntel,60,,z,1,0.571,,,,,,,,0.571,1,,,,,,278,NW,"ID",50,unighs,UNIGHS,z,,,,,,-0.004444444,-0.397777778,0,0,0,,0,24,24,337,1,,
,,,,,,,,,,,,,,,,,,5d2dbfc01460350001333a97,2020-08-10_16h32.15.687,lexical_decision_task_MP,2020.1.3,MacIntel,60,,z,1,0.821,,,,,,,,0.821,1,,,,,,361,NW,UN,50,tireau,PAUCHE,z,,,,,,-0.004444444,-0.397777778,0,0,0,,0,25,25,420,1,,
,,,,,,,,,,,,,,,,,,5d2dbfc01460350001333a97,2020-08-10_16h32.15.687,lexical_decision_task_MP,2020.1.3,MacIntel,60,,m,1,1.138,,,,,,,,1.138,1,,,,,,62,WORD,UN,33,launch,REGION,m,,,,,,-0.004444444,-0.397777778,0,0,0,,0,26,26,121,1,,
,,,,,,,,,,,,,,,,,,5d2dbfc01460350001333a97,2020-08-10_16h32.15.687,lexical_decision_task_MP,2020.1.3,MacIntel,60,,z,1,0.469,,,,,,,,0.469,1,,,,,,296,NW,"ID",50,beinch,BEINCH,z,,,,,,-0.004444444,-0.397777778,0,0,0,,0,27,27,355,1,,
,,,,,,,,,,,,,,,,,,5d2dbfc01460350001333a97,2020-08-10_16h32.15.687,lexical_decision_task_MP,2020.1.3,MacIntel,60,,m,0,0.938,,,,,,,,0.938,0,,,,,,271,NW,"ID",50,aubrid,AUBRID,z,,,,,,-0.004444444,-0.397777778,0,0,0,,0,28,28,330,1,,
,,,,,,,,,,,,,,,,,,5d2dbfc01460350001333a97,2020-08-10_16h32.15.687,lexical_decision_task_MP,2020.1.3,MacIntel,60,,z,0,0.373,,,,,,,,0.373,0,,,,,,83,WORD,UN,33,mortal,RESULT,m,,,,,,-0.004444444,-0.397777778,0,0,0,,0,29,29,142,1,,
,,,,,,,,,,,,,,,,,,5d2dbfc01460350001333a97,2020-08-10_16h32.15.687,lexical_decision_task_MP,2020.1.3,MacIntel,60,,z,1,0.656,,,,,,,,0.656,1,,,,,,260,NW,"ID",50,unject,UNJECT,z,,,,,,-0.004444444,-0.397777778,0,0,0,,0,30,30,319,1,,
,,,,,,,,,,,,,,,,,,5d2dbfc01460350001333a97,2020-08-10_16h32.15.687,lexical_decision_task_MP,2020.1.3,MacIntel,60,,m,1,0.57,,,,,,,,0.57,1,,,,,,127,WORD,UN,50,senior,CASTLE,m,,,,,,-0.004444444,-0.397777778,0,0,0,,0,31,31,186,1,,
,,,,,,,,,,,,,,,,,,5d2dbfc01460350001333a97,2020-08-10_16h32.15.687,lexical_decision_task_MP,2020.1.3,MacIntel,60,,m,1,0.519,,,,,,,,0.519,1,,,,,,34,WORD,"ID",50,jungle,JUNGLE,m,,,,,,-0.004444444,-0.397777778,0,0,0,,0,32,32,93,1,,
,,,,,,,,,,,,,,,,,,5d2dbfc01460350001333a97,2020-08-10_16h32.15.687,lexical_decision_task_MP,2020.1.3,MacIntel,60,,m,1,0.522,,,,,,,,0.522,1,,,,,,81,WORD,UN,33,stigma,FRIEND,m,,,,,,-0.004444444,-0.397777778,0,0,0,,0,33,33,140,1,,
,,,,,,,,,,,,,,,,,,5d2dbfc01460350001333a97,2020-08-10_16h32.15.687,lexical_decision_task_MP,2020.1.3,MacIntel,60,,m,1,0.503,,,,,,,,0.503,1,,,,,,27,WORD,"ID",50,scream,SCREAM,m,,,,,,-0.004444444,-0.397777778,0,0,0,,0,34,34,86,1,,
,,,,,,,,,,,,,,,,,,5d2dbfc01460350001333a97,2020-08-10_16h32.15.687,lexical_decision_task_MP,2020.1.3,MacIntel,60,,z,1,0.506,,,,,,,,0.506,1,,,,,,365,NW,UN,50,toshel,GUAIRT,z,,,,,,-0.004444444,-0.397777778,0,0,0,,0,35,35,424,1,,
,,,,,,,,,,,,,,,,,,5d2dbfc01460350001333a97,2020-08-10_16h32.15.687,lexical_decision_task_MP,2020.1.3,MacIntel,60,,m,1,0.607,,,,,,,,0.607,1,,,,,,96,WORD,UN,33,client,IGNORE,m,,,,,,-0.004444444,-0.397777778,0,0,0,,0,36,36,155,1,,
,,,,,,,,,,,,,,,,,,5d2dbfc01460350001333a97,2020-08-10_16h32.15.687,lexical_decision_task_MP,2020.1.3,MacIntel,60,,m,1,0.521,,,,,,,,0.521,1,,,,,,76,WORD,UN,33,racket,EXOTIC,m,,,,,,-0.004444444,-0.397777778,0,0,0,,0,37,37,135,1,,
,,,,,,,,,,,,,,,,,,5d2dbfc01460350001333a97,2020-08-10_16h32.15.687,lexical_decision_task_MP,2020.1.3,MacIntel,60,,z,1,0.521,,,,,,,,0.521,1,,,,,,415,NW,UN,50,pathel,HIGSTA,z,,,,,,-0.004444444,-0.397777778,0,0,0,,0,38,38,474,1,,
,,,,,,,,,,,,,,,,,,5d2dbfc01460350001333a97,2020-08-10_16h32.15.687,lexical_decision_task_MP,2020.1.3,MacIntel,60,,m,1,0.455,,,,,,,,0.455,1,,,,,,24,WORD,"ID",50,praise,PRAISE,m,,,,,,-0.004444444,-0.397777778,0,0,0,,0,39,39,83,1,,
,,,,,,,,,,,,,,,,,,5d2dbfc01460350001333a97,2020-08-10_16h32.15.687,lexical_decision_task_MP,2020.1.3,MacIntel,60,,m,0,0.701,,,,,,,,0.701,0,,,,,,243,NW,"ID",50,musied,MUSIED,z,,,,,,-0.004444444,-0.397777778,0,0,0,,0,40,40,302,1,,
,,,,,,,,,,,,,,,,,,5d2dbfc01460350001333a97,2020-08-10_16h32.15.687,lexical_decision_task_MP,2020.1.3,MacIntel,60,,z,1,0.621,,,,,,,,0.621,1,,,,,,359,NW,UN,33,desory,FONVER,z,,,,,,-0.004444444,-0.397777778,0,0,0,,0,41,41,418,1,,
,,,,,,,,,,,,,,,,,,5d2dbfc01460350001333a97,2020-08-10_16h32.15.687,lexical_decision_task_MP,2020.1.3,MacIntel,60,,m,1,0.49,,,,,,,,0.49,1,,,,,,169,WORD,UN,50,pounce,GENIUS,m,,,,,,-0.004444444,-0.397777778,0,0,0,,0,42,42,228,1,,
,,,,,,,,,,,,,,,,,,5d2dbfc01460350001333a97,2020-08-10_16h32.15.687,lexical_decision_task_MP,2020.1.3,MacIntel,60,,m,1,0.654,,,,,,,,0.654,1,,,,,,111,WORD,UN,33,breath,INDUCE,m,,,,,,-0.004444444,-0.397777778,0,0,0,,0,43,43,170,1,,
,,,,,,,,,,,,,,,,,,5d2dbfc01460350001333a97,2020-08-10_16h32.15.687,lexical_decision_task_MP,2020.1.3,MacIntel,60,,z,0,0.653,,,,,,,,0.653,0,,,,,,69,WORD,UN,33,square,PLENTY,m,,,,,,-0.004444444,-0.397777778,0,0,0,,0,44,44,128,1,,
,,,,,,,,,,,,,,,,,,5d2dbfc01460350001333a97,2020-08-10_16h32.15.687,lexical_decision_task_MP,2020.1.3,MacIntel,60,,m,1,0.519,,,,,,,,0.519,1,,,,,,70,WORD,UN,33,garden,SQUARE,m,,,,,,-0.004444444,-0.397777778,0,0,0,,0,45,45,129,1,,
,,,,,,,,,,,,,,,,,,5d2dbfc01460350001333a97,2020-08-10_16h32.15.687,lexical_decision_task_MP,2020.1.3,MacIntel,60,,z,1,0.818,,,,,,,,0.818,1,,,,,,470,NW,"ID",33,crudio,CRUDIO,z,,,,,,-0.004444444,-0.397777778,0,0,0,,0,46,46,289,1,,
,,,,,,,,,,,,,,,,,,5d2dbfc01460350001333a97,2020-08-10_16h32.15.687,lexical_decision_task_MP,2020.1.3,MacIntel,60,,m,1,0.44,,,,,,,,0.44,1,,,,,,74,WORD,UN,33,trophy,PLAQUE,m,,,,,,-0.004444444,-0.397777778,0,0,0,,0,47,47,133,1,,
,,,,,,,,,,,,,,,,,,5d2dbfc01460350001333a97,2020-08-10_16h32.15.687,lexical_decision_task_MP,2020.1.3,MacIntel,60,,m,1,0.521,,,,,,,,0.521,1,,,,,,138,WORD,UN,50,debris,MELODY,m,,,,,,-0.004444444,-0.397777778,0,0,0,,0,48,48,197,1,,
,,,,,,,,,,,,,,,,,,5d2dbfc01460350001333a97,2020-08-10_16h32.15.687,lexical_decision_task_MP,2020.1.3,MacIntel,60,,z,1,0.568,,,,,,,,0.568,1,,,,,,463,NW,"ID",33,kispel,KISPEL,z,,,,,,-0.004444444,-0.397777778,0,0,0,,0,49,49,282,1,,
,,,,,,,,,,,,,,,,,,5d2dbfc01460350001333a97,2020-08-10_16h32.15.687,lexical_decision_task_MP,2020.1.3,MacIntel,60,,z,1,0.642,,,,,,,,0.642,1,,,,,,279,NW,"ID",50,celond,CELOND,z,,,,,,-0.004444444,-0.397777778,0,0,0,,0,50,50,338,1,,
,,,,,,,,,,,,,,,,,,5d2dbfc01460350001333a97,2020-08-10_16h32.15.687,lexical_decision_task_MP,2020.1.3,MacIntel,60,,z,1,0.536,,,,,,,,0.536,1,,,,,,383,NW,UN,50,guesco,AUNGRE,z,,,,,,-0.004444444,-0.397777778,0,0,0,,0,51,51,442,1,,
,,,,,,,,,,,,,,,,,,5d2dbfc01460350001333a97,2020-08-10_16h32.15.687,lexical_decision_task_MP,2020.1.3,MacIntel,60,,z,1,0.556,,,,,,,,0.556,1,,,,,,300,NW,"ID",50,yarion,YARION,z,,,,,,-0.004444444,-0.397777778,0,0,0,,0,52,52,359,1,,
,,,,,,,,,,,,,,,,,,5d2dbfc01460350001333a97,2020-08-10_16h32.15.687,lexical_decision_task_MP,2020.1.3,MacIntel,60,,z,1,0.688,,,,,,,,0.688,1,,,,,,401,NW,UN,50,syntic,MUSTIL,z,,,,,,-0.004444444,-0.397777778,0,0,0,,0,53,53,460,1,,
,,,,,,,,,,,,,,,,,,5d2dbfc01460350001333a97,2020-08-10_16h32.15.687,lexical_decision_task_MP,2020.1.3,MacIntel,60,,z,1,0.521,,,,,,,,0.521,1,,,,,,314,NW,UN,33,laston,SPRINE,z,,,,,,-0.004444444,-0.397777778,0,0,0,,0,54,54,373,1,,
,,,,,,,,,,,,,,,,,,5d2dbfc01460350001333a97,2020-08-10_16h32.15.687,lexical_decision_task_MP,2020.1.3,MacIntel,60,,m,1,0.736,,,,,,,,0.736,1,,,,,,192,WORD,"ID",33,plague,PLAGUE,m,,,,,,-0.004444444,-0.397777778,0,0,0,,0,55,55,11,1,,
,,,,,,,,,,,,,,,,,,5d2dbfc01460350001333a97,2020-08-10_16h32.15.687,lexical_decision_task_MP,2020.1.3,MacIntel,60,,z,1,0.717,,,,,,,,0.717,1,,,,,,289,NW,"ID",50,starby,STARBY,z,,,,,,-0.004444444,-0.397777778,0,0,0,,0,56,56,348,1,,
,,,,,,,,,,,,,,,,,,5d2dbfc01460350001333a97,2020-08-10_16h32.15.687,lexical_decision_task_MP,2020.1.3,MacIntel,60,,z,1,0.515,,,,,,,,0.515,1,,,,,,282,NW,"ID",50,porlex,PORLEX,z,,,,,,-0.004444444,-0.397777778,0,0,0,,0,57,57,341,1,,
,,,,,,,,,,,,,,,,,,5d2dbfc01460350001333a97,2020-08-10_16h32.15.687,lexical_decision_task_MP,2020.1.3,MacIntel,60,,m,1,0.571,,,,,,,,0.571,1,,,,,,49,WORD,"ID",50,survey,SURVEY,m,,,,,,-0.004444444,-0.397777778,0,0,0,,0,58,58,108,1,,
,,,,,,,,,,,,,,,,,,5d2dbfc01460350001333a97,2020-08-10_16h32.15.687,lexical_decision_task_MP,2020.1.3,MacIntel,60,,z,0,0.417,,,,,,,,0.417,0,,,,,,177,WORD,UN,50,inform,ADVENT,m,,,,,,-0.004444444,-0.397777778,0,0,0,,0,59,59,236,1,,
,,,,,,,,,,,,,,,,,,5d2dbfc01460350001333a97,2020-08-10_16h32.15.687,lexical_decision_task_MP,2020.1.3,MacIntel,60,,m,1,0.52,,,,,,,,0.52,1,,,,,,139,WORD,UN,50,prince,DEBRIS,m,,,,,,-0.004444444,-0.397777778,0,0,0,,0,60,60,198,1,,
,,,,,,,,,,,,,,,,,,5d2dbfc01460350001333a97,2020-08-10_16h32.15.687,lexical_decision_task_MP,2020.1.3,MacIntel,60,,m,1,0.488,,,,,,,,0.488,1,,,,,,226,WORD,"ID",33,casino,CASINO,m,,,,,,-0.004444444,-0.397777778,0,0,0,,0,61,61,45,1,,
,,,,,,,,,,,,,,,,,,5d2dbfc01460350001333a97,2020-08-10_16h32.15.687,lexical_decision_task_MP,2020.1.3,MacIntel,60,,z,1,0.636,,,,,,,,0.636,1,,,,,,378,NW,UN,50,auting,SHRILE,z,,,,,,-0.004444444,-0.397777778,0,0,0,,0,62,62,437,1,,
,,,,,,,,,,,,,,,,,,5d2dbfc01460350001333a97,2020-08-10_16h32.15.687,lexical_decision_task_MP,2020.1.3,MacIntel,60,,z,1,0.651,,,,,,,,0.651,1,,,,,,390,NW,UN,50,theldy,HATRUS,z,,,,,,-0.004444444,-0.397777778,0,0,0,,0,63,63,449,1,,
,,,,,,,,,,,,,,,,,,5d2dbfc01460350001333a97,2020-08-10_16h32.15.687,lexical_decision_task_MP,2020.1.3,MacIntel,60,,m,1,0.488,,,,,,,,0.488,1,,,,,,163,WORD,UN,50,market,STRING,m,,,,,,-0.004444444,-0.397777778,0,0,0,,0,64,64,222,1,,
,,,,,,,,,,,,,,,,,,5d2dbfc01460350001333a97,2020-08-10_16h32.15.687,lexical_decision_task_MP,2020.1.3,MacIntel,60,,m,1,0.568,,,,,,,,0.568,1,,,,,,82,WORD,UN,33,result,STIGMA,m,,,,,,-0.004444444,-0.397777778,0,0,0,,0,65,65,141,1,,
,,,,,,,,,,,,,,,,,,5d2dbfc01460350001333a97,2020-08-10_16h32.15.687,lexical_decision_task_MP,2020.1.3,MacIntel,60,,m,1,0.52,,,,,,,,0.52,1,,,,,,40,WORD,"ID",50,convey,CONVEY,m,,,,,,-0.004444444,-0.397777778,0,0,0,,0,66,66,99,1,,
,,,,,,,,,,,,,,,,,,5d2dbfc01460350001333a97,2020-08-10_16h32.15.687,lexical_decision_task_MP,2020.1.3,MacIntel,60,,z,1,0.589,,,,,,,,0.589,1,,,,,,423,NW,"ID",33,streld,STRELD,z,,,,,,-0.004444444,-0.397777778,0,0,0,,0,67,67,242,1,,
,,,,,,,,,,,,,,,,,,5d2dbfc01460350001333a97,2020-08-10_16h32.15.687,lexical_decision_task_MP,2020.1.3,MacIntel,60,,z,1,0.487,,,,,,,,0.487,1,,,,,,417,NW,UN,50,suidle,EAROUD,z,,,,,,-0.004444444,-0.397777778,0,0,0,,0,68,68,476,1,,
,,,,,,,,,,,,,,,,,,5d2dbfc01460350001333a97,2020-08-10_16h32.15.687,lexical_decision_task_MP,2020.1.3,MacIntel,60,,m,1,0.636,,,,,,,,0.636,1,,,,,,178,WORD,UN,50,basket,INFORM,m,,,,,,-0.004444444,-0.397777778,0,0,0,,0,69,69,237,1,,
,,,,,,,,,,,,,,,,,,5d2dbfc01460350001333a97,2020-08-10_16h32.15.687,lexical_decision_task_MP,2020.1.3,MacIntel,60,,m,1,0.837,,,,,,,,0.837,1,,,,,,134,WORD,UN,50,import,STAPLE,m,,,,,,-0.004444444,-0.397777778,0,0,0,,0,70,70,193,1,,
,,,,,,,,,,,,,,,,,,5d2dbfc01460350001333a97,2020-08-10_16h32.15.687,lexical_decision_task_MP,2020.1.3,MacIntel,60,,z,1,1.154,,,,,,,,1.154,1,,,,,,389,NW,UN,50,hatrus,WITMER,z,,,,,,-0.004444444,-0.397777778,0,0,0,,0,71,71,448,1,,
,,,,,,,,,,,,,,,,,,5d2dbfc01460350001333a97,2020-08-10_16h32.15.687,lexical_decision_task_MP,2020.1.3,MacIntel,60,,m,1,1.784,,,,,,,,1.784,1,,,,,,54,WORD,"ID",50,ramble,RAMBLE,m,,,,,,-0.004444444,-0.397777778,0,0,0,,0,72,72,113,1,,
,,,,,,,,,,,,,,,,,,5d2dbfc01460350001333a97,2020-08-10_16h32.15.687,lexical_decision_task_MP,2020.1.3,MacIntel,60,,m,1,0.721,,,,,,,,0.721,1,,,,,,88,WORD,UN,33,permit,HUNGER,m,,,,,,-0.004444444,-0.397777778,0,0,0,,0,73,73,147,1,,
,,,,,,,,,,,,,,,,,,5d2dbfc01460350001333a97,2020-08-10_16h32.15.687,lexical_decision_task_MP,2020.1.3,MacIntel,60,,m,1,0.752,,,,,,,,0.752,1,,,,,,46,WORD,"ID",50,single,SINGLE,m,,,,,,-0.004444444,-0.397777778,0,0,0,,0,74,74,105,1,,
,,,,,,,,,,,,,,,,,,5d2dbfc01460350001333a97,2020-08-10_16h32.15.687,lexical_decision_task_MP,2020.1.3,MacIntel,60,,m,1,1.137,,,,,,,,1.137,1,,,,,,59,WORD,"ID",50,splint,SPLINT,m,,,,,,-0.004444444,-0.397777778,0,0,0,,0,75,75,118,1,,
,,,,,,,,,,,,,,,,,,5d2dbfc01460350001333a97,2020-08-10_16h32.15.687,lexical_decision_task_MP,2020.1.3,MacIntel,60,,m,1,0.538,,,,,,,,0.538,1,,,,,,222,WORD,"ID",33,hinder,HINDER,m,,,,,,-0.004444444,-0.397777778,0,0,0,,0,76,76,41,1,,
,,,,,,,,,,,,,,,,,,5d2dbfc01460350001333a97,2020-08-10_16h32.15.687,lexical_decision_task_MP,2020.1.3,MacIntel,60,,m,1,1.069,,,,,,,,1.069,1,,,,,,116,WORD,UN,33,branch,TUMBLE,m,,,,,,-0.004444444,-0.397777778,0,0,0,,0,77,77,175,1,,
,,,,,,,,,,,,,,,,,,5d2dbfc01460350001333a97,2020-08-10_16h32.15.687,lexical_decision_task_MP,2020.1.3,MacIntel,60,,m,1,0.8,,,,,,,,0.8,1,,,,,,182,WORD,"ID",33,winter,WINTER,m,,,,,,-0.004444444,-0.397777778,0,0,0,,0,78,78,1,1,,
,,,,,,,,,,,,,,,,,,5d2dbfc01460350001333a97,2020-08-10_16h32.15.687,lexical_decision_task_MP,2020.1.3,MacIntel,60,,,0,,,,,,,,,0.8,-1,,,,,,384,NW,UN,50,injore,GUESCO,z,,,,,,-0.004444444,-0.397777778,0,0,0,,0,79,79,443,1,,
,,,,,,,,,,,,,,,,,,5d2dbfc01460350001333a97,2020-08-10_16h32.15.687,lexical_decision_task_MP,2020.1.3,MacIntel,60,,z,1,0.67,,,,,,,,0.67,1,,,,,,352,NW,UN,33,clurey,TRINGE,z,,,,,,-0.004444444,-0.397777778,0,0,0,,0,80,80,411,1,,
,,,,,,,,,,,,,,,,,,5d2dbfc01460350001333a97,2020-08-10_16h32.15.687,lexical_decision_task_MP,2020.1.3,MacIntel,60,,z,1,0.671,,,,,,,,0.671,1,,,,,,353,NW,UN,33,virlex,CLUREY,z,,,,,,-0.004444444,-0.397777778,0,0,0,,0,81,81,412,1,,
,,,,,,,,,,,,,,,,,,5d2dbfc01460350001333a97,2020-08-10_16h32.15.687,lexical_decision_task_MP,2020.1.3,MacIntel,60,,m,1,0.904,,,,,,,,0.904,1,,,,,,61,WORD,UN,33,region,PONDER,m,,,,,,-0.004444444,-0.397777778,0,0,0,,0,82,82,120,1,,
,,,,,,,,,,,,,,,,,,5d2dbfc01460350001333a97,2020-08-10_16h32.15.687,lexical_decision_task_MP,2020.1.3,MacIntel,60,,m,1,0.756,,,,,,,,0.756,1,,,,,,167,WORD,UN,50,answer,DESIGN,m,,,,,,-0.004444444,-0.397777778,0,0,0,,0,83,83,226,1,,
,,,,,,,,,,,,,,,,,,5d2dbfc01460350001333a97,2020-08-10_16h32.15.687,lexical_decision_task_MP,2020.1.3,MacIntel,60,,m,1,0.608,,,,,,,,0.608,1,,,,,,110,WORD,UN,33,induce,POLITE,m,,,,,,-0.004444444,-0.397777778,0,0,0,,0,84,84,169,1,,
,,,,,,,,,,,,,,,,,,5d2dbfc01460350001333a97,2020-08-10_16h32.15.687,lexical_decision_task_MP,2020.1.3,MacIntel,60,,m,1,0.534,,,,,,,,0.534,1,,,,,,202,WORD,"ID",33,factor,FACTOR,m,,,,,,-0.004444444,-0.397777778,0,0,0,,0,85,85,21,1,,
,,,,,,,,,,,,,,,,,,5d2dbfc01460350001333a97,2020-08-10_16h32.15.687,lexical_decision_task_MP,2020.1.3,MacIntel,60,,z,1,0.485,,,,,,,,0.485,1,,,,,,403,NW,UN,50,cluirm,BRUATS,z,,,,,,-0.004444444,-0.397777778,0,0,0,,0,86,86,462,1,,
,,,,,,,,,,,,,,,,,,5d2dbfc01460350001333a97,2020-08-10_16h32.15.687,lexical_decision_task_MP,2020.1.3,MacIntel,60,,z,1,0.588,,,,,,,,0.588,1,,,,,,283,NW,"ID",50,veralf,VERALF,z,,,,,,-0.004444444,-0.397777778,0,0,0,,0,87,87,342,1,,
,,,,,,,,,,,,,,,,,,5d2dbfc01460350001333a97,2020-08-10_16h32.15.687,lexical_decision_task_MP,2020.1.3,MacIntel,60,,m,1,0.456,,,,,,,,0.456,1,,,,,,204,WORD,"ID",33,burden,BURDEN,m,,,,,,-0.004444444,-0.397777778,0,0,0,,0,88,88,23,1,,
,,,,,,,,,,,,,,,,,,5d2dbfc01460350001333a97,2020-08-10_16h32.15.687,lexical_decision_task_MP,2020.1.3,MacIntel,60,,m,1,1.488,,,,,,,,1.488,1,,,,,,236,WORD,"ID",33,pirate,PIRATE,m,,,,,,-0.004444444,-0.397777778,0,0,0,,0,89,89,55,1,,
,,,,,,,,,,,,,,,,,,5d2dbfc01460350001333a97,2020-08-10_16h32.15.687,lexical_decision_task_MP,2020.1.3,MacIntel,60,,m,1,0.855,,,,,,,,0.855,1,,,,,,172,WORD,UN,50,shower,PATROL,m,,,,,,-0.004444444,-0.397777778,0,0,0,,0,90,90,231,1,,
,,,,,,,,,,,,,,,,,,5d2dbfc01460350001333a97,2020-08-10_16h32.15.687,lexical_decision_task_MP,2020.1.3,MacIntel,60,,m,0,0.305,,,,,,,,0.305,0,,,,,,409,NW,UN,50,tunory,ELOPIA,z,,,,,,-0.004444444,-0.397777778,0,0,0,,0,91,91,468,1,,
,,,,,,,,,,,,,,,,,,5d2dbfc01460350001333a97,2020-08-10_16h32.15.687,lexical_decision_task_MP,2020.1.3,MacIntel,60,,z,1,0.817,,,,,,,,0.817,1,,,,,,411,NW,UN,50,jiluer,ORCHIN,z,,,,,,-0.004444444,-0.397777778,0,0,0,,0,92,92,470,1,,
,,,,,,,,,,,,,,,,,,5d2dbfc01460350001333a97,2020-08-10_16h32.15.687,lexical_decision_task_MP,2020.1.3,MacIntel,60,,z,1,0.976,,,,,,,,0.976,1,,,,,,391,NW,UN,50,rouncy,THELDY,z,,,,,,-0.004444444,-0.397777778,0,0,0,,0,93,93,450,1,,
,,,,,,,,,,,,,,,,,,5d2dbfc01460350001333a97,2020-08-10_16h32.15.687,lexical_decision_task_MP,2020.1.3,MacIntel,60,,z,0,0.568,,,,,,,,0.568,0,,,,,,235,WORD,"ID",33,grumpy,GRUMPY,m,,,,,,-0.004444444,-0.397777778,0,0,0,,0,94,94,54,1,,
,,,,,,,,,,,,,,,,,,5d2dbfc01460350001333a97,2020-08-10_16h32.15.687,lexical_decision_task_MP,2020.1.3,MacIntel,60,,m,1,0.553,,,,,,,,0.553,1,,,,,,201,WORD,"ID",33,admire,ADMIRE,m,,,,,,-0.004444444,-0.397777778,0,0,0,,0,95,95,20,1,,
,,,,,,,,,,,,,,,,,,5d2dbfc01460350001333a97,2020-08-10_16h32.15.687,lexical_decision_task_MP,2020.1.3,MacIntel,60,,m,1,1.236,,,,,,,,1.236,1,,,,,,125,WORD,UN,50,enough,NICKEL,m,,,,,,-0.004444444,-0.397777778,0,0,0,,0,96,96,184,1,,
,,,,,,,,,,,,,,,,,,5d2dbfc01460350001333a97,2020-08-10_16h32.15.687,lexical_decision_task_MP,2020.1.3,MacIntel,60,,m,1,0.893,,,,,,,,0.893,1,,,,,,160,WORD,UN,50,pastor,VIOLET,m,,,,,,-0.004444444,-0.397777778,0,0,0,,0,97,97,219,1,,
,,,,,,,,,,,,,,,,,,5d2dbfc01460350001333a97,2020-08-10_16h32.15.687,lexical_decision_task_MP,2020.1.3,MacIntel,60,,z,1,0.856,,,,,,,,0.856,1,,,,,,457,NW,"ID",33,wanigh,WANIGH,z,,,,,,-0.004444444,-0.397777778,0,0,0,,0,98,98,276,1,,
,,,,,,,,,,,,,,,,,,5d2dbfc01460350001333a97,2020-08-10_16h32.15.687,lexical_decision_task_MP,2020.1.3,MacIntel,60,,z,1,0.69,,,,,,,,0.69,1,,,,,,472,NW,"ID",33,cigney,CIGNEY,z,,,,,,-0.004444444,-0.397777778,0,0,0,,0,99,99,291,1,,
,,,,,,,,,,,,,,,,,,5d2dbfc01460350001333a97,2020-08-10_16h32.15.687,lexical_decision_task_MP,2020.1.3,MacIntel,60,,z,0,1.152,,,,,,,,1.152,0,,,,,,22,WORD,"ID",50,jockey,JOCKEY,m,,,,,,-0.004444444,-0.397777778,0,0,0,,0,100,100,81,1,,
,,,,,,,,,,,,,,,,,,5d2dbfc01460350001333a97,2020-08-10_16h32.15.687,lexical_decision_task_MP,2020.1.3,MacIntel,60,,z,1,0.588,,,,,,,,0.588,1,,,,,,337,NW,UN,33,wreash,REJOLS,z,,,,,,-0.004444444,-0.397777778,0,0,0,,0,101,101,396,1,,
,,,,,,,,,,,,,,,,,,5d2dbfc01460350001333a97,2020-08-10_16h32.15.687,lexical_decision_task_MP,2020.1.3,MacIntel,60,,m,1,0.521,,,,,,,,0.521,1,,,,,,68,WORD,UN,33,plenty,FUMBLE,m,,,,,,-0.004444444,-0.397777778,0,0,0,,0,102,102,127,1,,
,,,,,,,,,,,,,,,,,,5d2dbfc01460350001333a97,2020-08-10_16h32.15.687,lexical_decision_task_MP,2020.1.3,MacIntel,60,,z,1,0.568,,,,,,,,0.568,1,,,,,,366,NW,UN,50,slique,TOSHEL,z,,,,,,-0.004444444,-0.397777778,0,0,0,,0,103,103,425,1,,
,,,,,,,,,,,,,,,,,,5d2dbfc01460350001333a97,2020-08-10_16h32.15.687,lexical_decision_task_MP,2020.1.3,MacIntel,60,,m,1,0.558,,,,,,,,0.558,1,,,,,,203,WORD,"ID",33,phrase,PHRASE,m,,,,,,-0.004444444,-0.397777778,0,0,0,,0,104,104,22,1,,
,,,,,,,,,,,,,,,,,,5d2dbfc01460350001333a97,2020-08-10_16h32.15.687,lexical_decision_task_MP,2020.1.3,MacIntel,60,,z,1,0.787,,,,,,,,0.787,1,,,,,,466,NW,"ID",33,hocite,HOCITE,z,,,,,,-0.004444444,-0.397777778,0,0,0,,0,105,105,285,1,,
,,,,,,,,,,,,,,,,,,5d2dbfc01460350001333a97,2020-08-10_16h32.15.687,lexical_decision_task_MP,2020.1.3,MacIntel,60,,z,1,1.539,,,,,,,,1.539,1,,,,,,350,NW,UN,33,tiesch,NAGURS,z,,,,,,-0.004444444,-0.397777778,0,0,0,,0,106,106,409,1,,
,,,,,,,,,,,,,,,,,,5d2dbfc01460350001333a97,2020-08-10_16h32.15.687,lexical_decision_task_MP,2020.1.3,MacIntel,60,,z,1,1.002,,,,,,,,1.002,1,,,,,,432,NW,"ID",33,lunker,LUNKER,z,,,,,,-0.004444444,-0.397777778,0,0,0,,0,107,107,251,1,,
,,,,,,,,,,,,,,,,,,5d2dbfc01460350001333a97,2020-08-10_16h32.15.687,lexical_decision_task_MP,2020.1.3,MacIntel,60,,z,1,1.724,,,,,,,,1.724,1,,,,,,431,NW,"ID",33,chrums,CHRUMS,z,,,,,,-0.004444444,-0.397777778,0,0,0,,0,108,108,250,1,,
,,,,,,,,,,,,,,,,,,5d2dbfc01460350001333a97,2020-08-10_16h32.15.687,lexical_decision_task_MP,2020.1.3,MacIntel,60,,m,1,0.717,,,,,,,,0.717,1,,,,,,190,WORD,"ID",33,backup,BACKUP,m,,,,,,-0.004444444,-0.397777778,0,0,0,,0,109,109,9,1,,
,,,,,,,,,,,,,,,,,,5d2dbfc01460350001333a97,2020-08-10_16h32.15.687,lexical_decision_task_MP,2020.1.3,MacIntel,60,,z,1,0.839,,,,,,,,0.839,1,,,,,,400,NW,UN,50,mustil,WEAROX,z,,,,,,-0.004444444,-0.397777778,0,0,0,,0,110,110,459,1,,
,,,,,,,,,,,,,,,,,,5d2dbfc01460350001333a97,2020-08-10_16h32.15.687,lexical_decision_task_MP,2020.1.3,MacIntel,60,,z,1,1.252,,,,,,,,1.252,1,,,,,,254,NW,"ID",50,varosh,VAROSH,z,,,,,,-0.004444444,-0.397777778,0,0,0,,0,111,111,313,1,,
,,,,,,,,,,,,,,,,,,5d2dbfc01460350001333a97,2020-08-10_16h32.15.687,lexical_decision_task_MP,2020.1.3,MacIntel,60,,z,1,0.736,,,,,,,,0.736,1,,,,,,444,NW,"ID",33,jaunce,JAUNCE,z,,,,,,-0.004444444,-0.397777778,0,0,0,,0,112,112,263,1,,
,,,,,,,,,,,,,,,,,,5d2dbfc01460350001333a97,2020-08-10_16h32.15.687,lexical_decision_task_MP,2020.1.3,MacIntel,60,,z,1,0.706,,,,,,,,0.706,1,,,,,,242,NW,"ID",50,unwert,UNWERT,z,,,,,,-0.004444444,-0.397777778,0,0,0,,0,113,113,301,1,,
,,,,,,,,,,,,,,,,,,5d2dbfc01460350001333a97,2020-08-10_16h32.15.687,lexical_decision_task_MP,2020.1.3,MacIntel,60,,z,1,0.64,,,,,,,,0.64,1,,,,,,250,NW,"ID",50,milted,MILTED,z,,,,,,-0.004444444,-0.397777778,0,0,0,,0,114,114,309,1,,
,,,,,,,,,,,,,,,,,,5d2dbfc01460350001333a97,2020-08-10_16h32.15.687,lexical_decision_task_MP,2020.1.3,MacIntel,60,,z,1,0.605,,,,,,,,0.605,1,,,,,,244,NW,"ID",50,eatric,EATRIC,z,,,,,,-0.004444444,-0.397777778,0,0,0,,0,115,115,303,1,,
,,,,,,,,,,,,,,,,,,5d2dbfc01460350001333a97,2020-08-10_16h32.15.687,lexical_decision_task_MP,2020.1.3,MacIntel,60,,z,1,0.507,,,,,,,,0.507,1,,,,,,308,NW,UN,33,amiloy,PSETCH,z,,,,,,-0.004444444,-0.397777778,0,0,0,,0,116,116,367,1,,
,,,,,,,,,,,,,,,,,,5d2dbfc01460350001333a97,2020-08-10_16h32.15.687,lexical_decision_task_MP,2020.1.3,MacIntel,60,,m,1,0.621,,,,,,,,0.621,1,,,,,,219,WORD,"ID",33,bucket,BUCKET,m,,,,,,-0.004444444,-0.397777778,0,0,0,,0,117,117,38,1,,
,,,,,,,,,,,,,,,,,,5d2dbfc01460350001333a97,2020-08-10_16h32.15.687,lexical_decision_task_MP,2020.1.3,MacIntel,60,,z,1,0.516,,,,,,,,0.516,1,,,,,,459,NW,"ID",33,bafent,BAFENT,z,,,,,,-0.004444444,-0.397777778,0,0,0,,0,118,118,278,1,,
,,,,,,,,,,,,,,,,,,5d2dbfc01460350001333a97,2020-08-10_16h32.15.687,lexical_decision_task_MP,2020.1.3,MacIntel,60,,m,1,0.687,,,,,,,,0.687,1,,,,,,84,WORD,UN,33,strand,MORTAL,m,,,,,,-0.004444444,-0.397777778,0,0,0,,0,119,119,143,1,,
,,,,,,,,,,,,,,,,,,5d2dbfc01460350001333a97,2020-08-10_16h32.15.687,lexical_decision_task_MP,2020.1.3,MacIntel,60,,m,1,0.418,,,,,,,,0.418,1,,,,,,14,WORD,"ID",50,almost,ALMOST,m,,,,,,-0.047777778,-0.414444444,0,0,0,space,0,120,120,73,1,3.501,
,,,,,,,,,,,,,,,,,,5d2dbfc01460350001333a97,2020-08-10_16h32.15.687,lexical_decision_task_MP,2020.1.3,MacIntel,60,,m,0,0.436,,,,,,,,0.436,0,,,,,,382,NW,UN,50,aungre,SARLEY,z,,,,,,-0.047777778,-0.414444444,0,0,0,,0,121,121,441,1,,
,,,,,,,,,,,,,,,,,,5d2dbfc01460350001333a97,2020-08-10_16h32.15.687,lexical_decision_task_MP,2020.1.3,MacIntel,60,,z,1,0.536,,,,,,,,0.536,1,,,,,,266,NW,"ID",50,varmit,VARMIT,z,,,,,,-0.047777778,-0.414444444,0,0,0,,0,122,122,325,1,,
,,,,,,,,,,,,,,,,,,5d2dbfc01460350001333a97,2020-08-10_16h32.15.687,lexical_decision_task_MP,2020.1.3,MacIntel,60,,z,1,0.522,,,,,,,,0.522,1,,,,,,251,NW,"ID",50,lupict,LUPICT,z,,,,,,-0.047777778,-0.414444444,0,0,0,,0,123,123,310,1,,
,,,,,,,,,,,,,,,,,,5d2dbfc01460350001333a97,2020-08-10_16h32.15.687,lexical_decision_task_MP,2020.1.3,MacIntel,60,,m,1,0.537,,,,,,,,0.537,1,,,,,,238,WORD,"ID",33,flower,FLOWER,m,,,,,,-0.047777778,-0.414444444,0,0,0,,0,124,124,57,1,,
,,,,,,,,,,,,,,,,,,5d2dbfc01460350001333a97,2020-08-10_16h32.15.687,lexical_decision_task_MP,2020.1.3,MacIntel,60,,z,1,0.669,,,,,,,,0.669,1,,,,,,460,NW,"ID",33,mingar,MINGAR,z,,,,,,-0.047777778,-0.414444444,0,0,0,,0,125,125,279,1,,
,,,,,,,,,,,,,,,,,,5d2dbfc01460350001333a97,2020-08-10_16h32.15.687,lexical_decision_task_MP,2020.1.3,MacIntel,60,,z,1,0.843,,,,,,,,0.843,1,,,,,,343,NW,UN,33,scrily,AIMOSY,z,,,,,,-0.047777778,-0.414444444,0,0,0,,0,126,126,402,1,,
,,,,,,,,,,,,,,,,,,5d2dbfc01460350001333a97,2020-08-10_16h32.15.687,lexical_decision_task_MP,2020.1.3,MacIntel,60,,m,1,0.486,,,,,,,,0.486,1,,,,,,117,WORD,UN,33,flight,BRANCH,m,,,,,,-0.047777778,-0.414444444,0,0,0,,0,127,127,176,1,,
,,,,,,,,,,,,,,,,,,5d2dbfc01460350001333a97,2020-08-10_16h32.15.687,lexical_decision_task_MP,2020.1.3,MacIntel,60,,m,1,0.442,,,,,,,,0.442,1,,,,,,90,WORD,UN,33,expand,RELISH,m,,,,,,-0.047777778,-0.414444444,0,0,0,,0,128,128,149,1,,
,,,,,,,,,,,,,,,,,,5d2dbfc01460350001333a97,2020-08-10_16h32.15.687,lexical_decision_task_MP,2020.1.3,MacIntel,60,,z,1,0.535,,,,,,,,0.535,1,,,,,,474,NW,"ID",33,hablin,HABLIN,z,,,,,,-0.047777778,-0.414444444,0,0,0,,0,129,129,293,1,,
,,,,,,,,,,,,,,,,,,5d2dbfc01460350001333a97,2020-08-10_16h32.15.687,lexical_decision_task_MP,2020.1.3,MacIntel,60,,m,1,0.516,,,,,,,,0.516,1,,,,,,123,WORD,UN,50,blouse,STRIKE,m,,,,,,-0.047777778,-0.414444444,0,0,0,,0,130,130,182,1,,
,,,,,,,,,,,,,,,,,,5d2dbfc01460350001333a97,2020-08-10_16h32.15.687,lexical_decision_task_MP,2020.1.3,MacIntel,60,,m,1,0.569,,,,,,,,0.569,1,,,,,,157,WORD,UN,50,island,DRAGON,m,,,,,,-0.047777778,-0.414444444,0,0,0,,0,131,131,216,1,,
,,,,,,,,,,,,,,,,,,5d2dbfc01460350001333a97,2020-08-10_16h32.15.687,lexical_decision_task_MP,2020.1.3,MacIntel,60,,z,0,0.667,,,,,,,,0.667,0,,,,,,114,WORD,UN,33,guitar,PLACID,m,,,,,,-0.047777778,-0.414444444,0,0,0,,0,132,132,173,1,,
,,,,,,,,,,,,,,,,,,5d2dbfc01460350001333a97,2020-08-10_16h32.15.687,lexical_decision_task_MP,2020.1.3,MacIntel,60,,z,1,1.271,,,,,,,,1.271,1,,,,,,442,NW,"ID",33,aboune,ABOUNE,z,,,,,,-0.047777778,-0.414444444,0,0,0,,0,133,133,261,1,,
,,,,,,,,,,,,,,,,,,5d2dbfc01460350001333a97,2020-08-10_16h32.15.687,lexical_decision_task_MP,2020.1.3,MacIntel,60,,z,1,0.534,,,,,,,,0.534,1,,,,,,272,NW,"ID",50,damilt,DAMILT,z,,,,,,-0.047777778,-0.414444444,0,0,0,,0,134,134,331,1,,
,,,,,,,,,,,,,,,,,,5d2dbfc01460350001333a97,2020-08-10_16h32.15.687,lexical_decision_task_MP,2020.1.3,MacIntel,60,,m,1,0.551,,,,,,,,0.551,1,,,,,,183,WORD,"ID",33,mildew,MILDEW,m,,,,,,-0.047777778,-0.414444444,0,0,0,,0,135,135,2,1,,
,,,,,,,,,,,,,,,,,,5d2dbfc01460350001333a97,2020-08-10_16h32.15.687,lexical_decision_task_MP,2020.1.3,MacIntel,60,,z,1,1.406,,,,,,,,1.406,1,,,,,,371,NW,UN,50,ramily,GEILOY,z,,,,,,-0.047777778,-0.414444444,0,0,0,,0,136,136,430,1,,
,,,,,,,,,,,,,,,,,,5d2dbfc01460350001333a97,2020-08-10_16h32.15.687,lexical_decision_task_MP,2020.1.3,MacIntel,60,,m,1,0.502,,,,,,,,0.502,1,,,,,,63,WORD,UN,33,throne,LAUNCH,m,,,,,,-0.047777778,-0.414444444,0,0,0,,0,137,137,122,1,,
,,,,,,,,,,,,,,,,,,5d2dbfc01460350001333a97,2020-08-10_16h32.15.687,lexical_decision_task_MP,2020.1.3,MacIntel,60,,z,1,1.474,,,,,,,,1.474,1,,,,,,261,NW,"ID",50,stunch,STUNCH,z,,,,,,-0.047777778,-0.414444444,0,0,0,,0,138,138,320,1,,
,,,,,,,,,,,,,,,,,,5d2dbfc01460350001333a97,2020-08-10_16h32.15.687,lexical_decision_task_MP,2020.1.3,MacIntel,60,,m,1,0.42,,,,,,,,0.42,1,,,,,,56,WORD,"ID",50,ambush,AMBUSH,m,,,,,,-0.047777778,-0.414444444,0,0,0,,0,139,139,115,1,,
,,,,,,,,,,,,,,,,,,5d2dbfc01460350001333a97,2020-08-10_16h32.15.687,lexical_decision_task_MP,2020.1.3,MacIntel,60,,m,1,0.64,,,,,,,,0.64,1,,,,,,35,WORD,"ID",50,socket,SOCKET,m,,,,,,-0.047777778,-0.414444444,0,0,0,,0,140,140,94,1,,
,,,,,,,,,,,,,,,,,,5d2dbfc01460350001333a97,2020-08-10_16h32.15.687,lexical_decision_task_MP,2020.1.3,MacIntel,60,,m,1,0.55,,,,,,,,0.55,1,,,,,,216,WORD,"ID",33,behalf,BEHALF,m,,,,,,-0.047777778,-0.414444444,0,0,0,,0,141,141,35,1,,
,,,,,,,,,,,,,,,,,,5d2dbfc01460350001333a97,2020-08-10_16h32.15.687,lexical_decision_task_MP,2020.1.3,MacIntel,60,,z,1,0.733,,,,,,,,0.733,1,,,,,,298,NW,"ID",50,piergy,PIERGY,z,,,,,,-0.047777778,-0.414444444,0,0,0,,0,142,142,357,1,,
,,,,,,,,,,,,,,,,,,5d2dbfc01460350001333a97,2020-08-10_16h32.15.687,lexical_decision_task_MP,2020.1.3,MacIntel,60,,z,1,0.656,,,,,,,,0.656,1,,,,,,248,NW,"ID",50,strole,STROLE,z,,,,,,-0.047777778,-0.414444444,0,0,0,,0,143,143,307,1,,
,,,,,,,,,,,,,,,,,,5d2dbfc01460350001333a97,2020-08-10_16h32.15.687,lexical_decision_task_MP,2020.1.3,MacIntel,60,,z,1,0.587,,,,,,,,0.587,1,,,,,,246,NW,"ID",50,piaton,PIATON,z,,,,,,-0.047777778,-0.414444444,0,0,0,,0,144,144,305,1,,
,,,,,,,,,,,,,,,,,,5d2dbfc01460350001333a97,2020-08-10_16h32.15.687,lexical_decision_task_MP,2020.1.3,MacIntel,60,,m,1,0.572,,,,,,,,0.572,1,,,,,,31,WORD,"ID",50,weapon,WEAPON,m,,,,,,-0.047777778,-0.414444444,0,0,0,,0,145,145,90,1,,
,,,,,,,,,,,,,,,,,,5d2dbfc01460350001333a97,2020-08-10_16h32.15.687,lexical_decision_task_MP,2020.1.3,MacIntel,60,,z,1,0.637,,,,,,,,0.637,1,,,,,,346,NW,UN,33,kerift,SAUDIC,z,,,,,,-0.047777778,-0.414444444,0,0,0,,0,146,146,405,1,,
,,,,,,,,,,,,,,,,,,5d2dbfc01460350001333a97,2020-08-10_16h32.15.687,lexical_decision_task_MP,2020.1.3,MacIntel,60,,z,1,0.766,,,,,,,,0.766,1,,,,,,372,NW,UN,50,bigent,RAMILY,z,,,,,,-0.047777778,-0.414444444,0,0,0,,0,147,147,431,1,,
,,,,,,,,,,,,,,,,,,5d2dbfc01460350001333a97,2020-08-10_16h32.15.687,lexical_decision_task_MP,2020.1.3,MacIntel,60,,m,1,0.456,,,,,,,,0.456,1,,,,,,109,WORD,UN,33,polite,WONDER,m,,,,,,-0.047777778,-0.414444444,0,0,0,,0,148,148,168,1,,
,,,,,,,,,,,,,,,,,,5d2dbfc01460350001333a97,2020-08-10_16h32.15.687,lexical_decision_task_MP,2020.1.3,MacIntel,60,,m,1,0.939,,,,,,,,0.939,1,,,,,,52,WORD,"ID",50,impose,IMPOSE,m,,,,,,-0.047777778,-0.414444444,0,0,0,,0,149,149,111,1,,
,,,,,,,,,,,,,,,,,,5d2dbfc01460350001333a97,2020-08-10_16h32.15.687,lexical_decision_task_MP,2020.1.3,MacIntel,60,,m,1,0.891,,,,,,,,0.891,1,,,,,,17,WORD,"ID",50,charge,CHARGE,m,,,,,,-0.047777778,-0.414444444,0,0,0,,0,150,150,76,1,,
,,,,,,,,,,,,,,,,,,5d2dbfc01460350001333a97,2020-08-10_16h32.15.687,lexical_decision_task_MP,2020.1.3,MacIntel,60,,m,1,0.423,,,,,,,,0.423,1,,,,,,146,WORD,UN,50,garlic,COUPLE,m,,,,,,-0.047777778,-0.414444444,0,0,0,,0,151,151,205,1,,
,,,,,,,,,,,,,,,,,,5d2dbfc01460350001333a97,2020-08-10_16h32.15.687,lexical_decision_task_MP,2020.1.3,MacIntel,60,,m,1,0.604,,,,,,,,0.604,1,,,,,,79,WORD,UN,33,family,THEORY,m,,,,,,-0.047777778,-0.414444444,0,0,0,,0,152,152,138,1,,
,,,,,,,,,,,,,,,,,,5d2dbfc01460350001333a97,2020-08-10_16h32.15.687,lexical_decision_task_MP,2020.1.3,MacIntel,60,,m,1,0.504,,,,,,,,0.504,1,,,,,,10,WORD,"ID",50,ethnic,ETHNIC,m,,,,,,-0.047777778,-0.414444444,0,0,0,,0,153,153,69,1,,
,,,,,,,,,,,,,,,,,,5d2dbfc01460350001333a97,2020-08-10_16h32.15.687,lexical_decision_task_MP,2020.1.3,MacIntel,60,,m,0,0.388,,,,,,,,0.388,0,,,,,,419,NW,UN,50,gushop,SLOUNT,z,,,,,,-0.047777778,-0.414444444,0,0,0,,0,154,154,478,1,,
,,,,,,,,,,,,,,,,,,5d2dbfc01460350001333a97,2020-08-10_16h32.15.687,lexical_decision_task_MP,2020.1.3,MacIntel,60,,z,1,0.62,,,,,,,,0.62,1,,,,,,449,NW,"ID",33,brunge,BRUNGE,z,,,,,,-0.047777778,-0.414444444,0,0,0,,0,155,155,268,1,,
,,,,,,,,,,,,,,,,,,5d2dbfc01460350001333a97,2020-08-10_16h32.15.687,lexical_decision_task_MP,2020.1.3,MacIntel,60,,z,1,0.517,,,,,,,,0.517,1,,,,,,269,NW,"ID",50,orchet,ORCHET,z,,,,,,-0.047777778,-0.414444444,0,0,0,,0,156,156,328,1,,
,,,,,,,,,,,,,,,,,,5d2dbfc01460350001333a97,2020-08-10_16h32.15.687,lexical_decision_task_MP,2020.1.3,MacIntel,60,,m,1,0.617,,,,,,,,0.617,1,,,,,,179,WORD,UN,50,silent,BASKET,m,,,,,,-0.047777778,-0.414444444,0,0,0,,0,157,157,238,1,,
,,,,,,,,,,,,,,,,,,5d2dbfc01460350001333a97,2020-08-10_16h32.15.687,lexical_decision_task_MP,2020.1.3,MacIntel,60,,z,1,0.688,,,,,,,,0.688,1,,,,,,309,NW,UN,33,daniet,AMILOY,z,,,,,,-0.047777778,-0.414444444,0,0,0,,0,158,158,368,1,,
,,,,,,,,,,,,,,,,,,5d2dbfc01460350001333a97,2020-08-10_16h32.15.687,lexical_decision_task_MP,2020.1.3,MacIntel,60,,z,1,0.64,,,,,,,,0.64,1,,,,,,255,NW,"ID",50,apight,APIGHT,z,,,,,,-0.047777778,-0.414444444,0,0,0,,0,159,159,314,1,,
,,,,,,,,,,,,,,,,,,5d2dbfc01460350001333a97,2020-08-10_16h32.15.687,lexical_decision_task_MP,2020.1.3,MacIntel,60,,z,1,0.601,,,,,,,,0.601,1,,,,,,434,NW,"ID",33,pitrom,PITROM,z,,,,,,-0.047777778,-0.414444444,0,0,0,,0,160,160,253,1,,
,,,,,,,,,,,,,,,,,,5d2dbfc01460350001333a97,2020-08-10_16h32.15.687,lexical_decision_task_MP,2020.1.3,MacIntel,60,,z,1,0.687,,,,,,,,0.687,1,,,,,,305,NW,UN,33,sounge,FORGLE,z,,,,,,-0.047777778,-0.414444444,0,0,0,,0,161,161,364,1,,
,,,,,,,,,,,,,,,,,,5d2dbfc01460350001333a97,2020-08-10_16h32.15.687,lexical_decision_task_MP,2020.1.3,MacIntel,60,,z,1,0.551,,,,,,,,0.551,1,,,,,,257,NW,"ID",50,veniod,VENIOD,z,,,,,,-0.047777778,-0.414444444,0,0,0,,0,162,162,316,1,,
,,,,,,,,,,,,,,,,,,5d2dbfc01460350001333a97,2020-08-10_16h32.15.687,lexical_decision_task_MP,2020.1.3,MacIntel,60,,z,1,0.454,,,,,,,,0.454,1,,,,,,394,NW,UN,50,colury,SPAQUX,z,,,,,,-0.047777778,-0.414444444,0,0,0,,0,163,163,453,1,,
,,,,,,,,,,,,,,,,,,5d2dbfc01460350001333a97,2020-08-10_16h32.15.687,lexical_decision_task_MP,2020.1.3,MacIntel,60,,m,1,0.87,,,,,,,,0.87,1,,,,,,118,WORD,UN,33,spider,FLIGHT,m,,,,,,-0.047777778,-0.414444444,0,0,0,,0,164,164,177,1,,
,,,,,,,,,,,,,,,,,,5d2dbfc01460350001333a97,2020-08-10_16h32.15.687,lexical_decision_task_MP,2020.1.3,MacIntel,60,,z,1,0.716,,,,,,,,0.716,1,,,,,,349,NW,UN,33,nagurs,ASYLEN,z,,,,,,-0.047777778,-0.414444444,0,0,0,,0,165,165,408,1,,
,,,,,,,,,,,,,,,,,,5d2dbfc01460350001333a97,2020-08-10_16h32.15.687,lexical_decision_task_MP,2020.1.3,MacIntel,60,,z,1,0.475,,,,,,,,0.475,1,,,,,,344,NW,UN,33,absend,SCRILY,z,,,,,,-0.047777778,-0.414444444,0,0,0,,0,166,166,403,1,,
,,,,,,,,,,,,,,,,,,5d2dbfc01460350001333a97,2020-08-10_16h32.15.687,lexical_decision_task_MP,2020.1.3,MacIntel,60,,z,1,0.573,,,,,,,,0.573,1,,,,,,267,NW,"ID",50,pasink,PASINK,z,,,,,,-0.047777778,-0.414444444,0,0,0,,0,167,167,326,1,,
,,,,,,,,,,,,,,,,,,5d2dbfc01460350001333a97,2020-08-10_16h32.15.687,lexical_decision_task_MP,2020.1.3,MacIntel,60,,m,1,0.622,,,,,,,,0.622,1,,,,,,100,WORD,UN,33,wrench,CARBON,m,,,,,,-0.047777778,-0.414444444,0,0,0,,0,168,168,159,1,,
,,,,,,,,,,,,,,,,,,5d2dbfc01460350001333a97,2020-08-10_16h32.15.687,lexical_decision_task_MP,2020.1.3,MacIntel,60,,m,1,1.624,,,,,,,,1.624,1,,,,,,47,WORD,"ID",50,income,INCOME,m,,,,,,-0.047777778,-0.414444444,0,0,0,,0,169,169,106,1,,
,,,,,,,,,,,,,,,,,,5d2dbfc01460350001333a97,2020-08-10_16h32.15.687,lexical_decision_task_MP,2020.1.3,MacIntel,60,,z,1,0.752,,,,,,,,0.752,1,,,,,,375,NW,UN,50,iguare,YORQUE,z,,,,,,-0.047777778,-0.414444444,0,0,0,,0,170,170,434,1,,
,,,,,,,,,,,,,,,,,,5d2dbfc01460350001333a97,2020-08-10_16h32.15.687,lexical_decision_task_MP,2020.1.3,MacIntel,60,,z,1,0.532,,,,,,,,0.532,1,,,,,,427,NW,"ID",33,schind,SCHIND,z,,,,,,-0.047777778,-0.414444444,0,0,0,,0,171,171,246,1,,
,,,,,,,,,,,,,,,,,,5d2dbfc01460350001333a97,2020-08-10_16h32.15.687,lexical_decision_task_MP,2020.1.3,MacIntel,60,,z,1,0.54,,,,,,,,0.54,1,,,,,,410,NW,UN,50,orchin,TUNORY,z,,,,,,-0.047777778,-0.414444444,0,0,0,,0,172,172,469,1,,
,,,,,,,,,,,,,,,,,,5d2dbfc01460350001333a97,2020-08-10_16h32.15.687,lexical_decision_task_MP,2020.1.3,MacIntel,60,,z,1,0.588,,,,,,,,0.588,1,,,,,,368,NW,UN,50,wronch,HORNAL,z,,,,,,-0.047777778,-0.414444444,0,0,0,,0,173,173,427,1,,
,,,,,,,,,,,,,,,,,,5d2dbfc01460350001333a97,2020-08-10_16h32.15.687,lexical_decision_task_MP,2020.1.3,MacIntel,60,,z,0,0.456,,,,,,,,0.456,0,,,,,,136,WORD,UN,50,finger,BLEACH,m,,,,,,-0.047777778,-0.414444444,0,0,0,,0,174,174,195,1,,
,,,,,,,,,,,,,,,,,,5d2dbfc01460350001333a97,2020-08-10_16h32.15.687,lexical_decision_task_MP,2020.1.3,MacIntel,60,,z,1,0.539,,,,,,,,0.539,1,,,,,,347,NW,UN,33,dumple,KERIFT,z,,,,,,-0.047777778,-0.414444444,0,0,0,,0,175,175,406,1,,
,,,,,,,,,,,,,,,,,,5d2dbfc01460350001333a97,2020-08-10_16h32.15.687,lexical_decision_task_MP,2020.1.3,MacIntel,60,,z,1,0.708,,,,,,,,0.708,1,,,,,,274,NW,"ID",50,fumblo,FUMBLO,z,,,,,,-0.047777778,-0.414444444,0,0,0,,0,176,176,333,1,,
,,,,,,,,,,,,,,,,,,5d2dbfc01460350001333a97,2020-08-10_16h32.15.687,lexical_decision_task_MP,2020.1.3,MacIntel,60,,,0,,,,,,,,,0.708,-1,,,,,,424,NW,"ID",33,praile,PRAILE,z,,,,,,-0.047777778,-0.414444444,0,0,0,,0,177,177,243,1,,
,,,,,,,,,,,,,,,,,,5d2dbfc01460350001333a97,2020-08-10_16h32.15.687,lexical_decision_task_MP,2020.1.3,MacIntel,60,,z,1,0.64,,,,,,,,0.64,1,,,,,,304,NW,UN,33,forgle,CLUDIE,z,,,,,,-0.047777778,-0.414444444,0,0,0,,0,178,178,363,1,,
,,,,,,,,,,,,,,,,,,5d2dbfc01460350001333a97,2020-08-10_16h32.15.687,lexical_decision_task_MP,2020.1.3,MacIntel,60,,m,1,0.572,,,,,,,,0.572,1,,,,,,143,WORD,UN,50,sponge,REASON,m,,,,,,-0.047777778,-0.414444444,0,0,0,,0,179,179,202,1,,
,,,,,,,,,,,,,,,,,,5d2dbfc01460350001333a97,2020-08-10_16h32.15.687,lexical_decision_task_MP,2020.1.3,MacIntel,60,,z,1,0.484,,,,,,,,0.484,1,,,,,,373,NW,UN,50,sliant,BIGENT,z,,,,,,-0.047777778,-0.414444444,0,0,0,,0,180,180,432,1,,
,,,,,,,,,,,,,,,,,,5d2dbfc01460350001333a97,2020-08-10_16h32.15.687,lexical_decision_task_MP,2020.1.3,MacIntel,60,,z,1,0.504,,,,,,,,0.504,1,,,,,,439,NW,"ID",33,limpor,LIMPOR,z,,,,,,-0.047777778,-0.414444444,0,0,0,,0,181,181,258,1,,
,,,,,,,,,,,,,,,,,,5d2dbfc01460350001333a97,2020-08-10_16h32.15.687,lexical_decision_task_MP,2020.1.3,MacIntel,60,,m,1,0.441,,,,,,,,0.441,1,,,,,,36,WORD,"ID",50,vanish,VANISH,m,,,,,,-0.047777778,-0.414444444,0,0,0,,0,182,182,95,1,,
,,,,,,,,,,,,,,,,,,5d2dbfc01460350001333a97,2020-08-10_16h32.15.687,lexical_decision_task_MP,2020.1.3,MacIntel,60,,z,1,0.457,,,,,,,,0.457,1,,,,,,330,NW,UN,33,gilfew,KENSOM,z,,,,,,-0.047777778,-0.414444444,0,0,0,,0,183,183,389,1,,
,,,,,,,,,,,,,,,,,,5d2dbfc01460350001333a97,2020-08-10_16h32.15.687,lexical_decision_task_MP,2020.1.3,MacIntel,60,,z,1,1.276,,,,,,,,1.276,1,,,,,,469,NW,"ID",33,padifs,PADIFS,z,,,,,,-0.047777778,-0.414444444,0,0,0,,0,184,184,288,1,,
,,,,,,,,,,,,,,,,,,5d2dbfc01460350001333a97,2020-08-10_16h32.15.687,lexical_decision_task_MP,2020.1.3,MacIntel,60,,m,1,0.87,,,,,,,,0.87,1,,,,,,97,WORD,UN,33,belong,CLIENT,m,,,,,,-0.047777778,-0.414444444,0,0,0,,0,185,185,156,1,,
,,,,,,,,,,,,,,,,,,5d2dbfc01460350001333a97,2020-08-10_16h32.15.687,lexical_decision_task_MP,2020.1.3,MacIntel,60,,m,1,0.704,,,,,,,,0.704,1,,,,,,77,WORD,UN,33,column,RACKET,m,,,,,,-0.047777778,-0.414444444,0,0,0,,0,186,186,136,1,,
,,,,,,,,,,,,,,,,,,5d2dbfc01460350001333a97,2020-08-10_16h32.15.687,lexical_decision_task_MP,2020.1.3,MacIntel,60,,z,1,0.506,,,,,,,,0.506,1,,,,,,456,NW,"ID",33,broget,BROGET,z,,,,,,-0.047777778,-0.414444444,0,0,0,,0,187,187,275,1,,
,,,,,,,,,,,,,,,,,,5d2dbfc01460350001333a97,2020-08-10_16h32.15.687,lexical_decision_task_MP,2020.1.3,MacIntel,60,,m,1,0.524,,,,,,,,0.524,1,,,,,,224,WORD,"ID",33,period,PERIOD,m,,,,,,-0.047777778,-0.414444444,0,0,0,,0,188,188,43,1,,
,,,,,,,,,,,,,,,,,,5d2dbfc01460350001333a97,2020-08-10_16h32.15.687,lexical_decision_task_MP,2020.1.3,MacIntel,60,,z,1,0.55,,,,,,,,0.55,1,,,,,,288,NW,"ID",50,yaceup,YACEUP,z,,,,,,-0.047777778,-0.414444444,0,0,0,,0,189,189,347,1,,
,,,,,,,,,,,,,,,,,,5d2dbfc01460350001333a97,2020-08-10_16h32.15.687,lexical_decision_task_MP,2020.1.3,MacIntel,60,,m,1,0.622,,,,,,,,0.622,1,,,,,,33,WORD,"ID",50,butler,BUTLER,m,,,,,,-0.047777778,-0.414444444,0,0,0,,0,190,190,92,1,,
,,,,,,,,,,,,,,,,,,5d2dbfc01460350001333a97,2020-08-10_16h32.15.687,lexical_decision_task_MP,2020.1.3,MacIntel,60,,z,1,0.569,,,,,,,,0.569,1,,,,,,455,NW,"ID",33,tondle,TONDLE,z,,,,,,-0.047777778,-0.414444444,0,0,0,,0,191,191,274,1,,
,,,,,,,,,,,,,,,,,,5d2dbfc01460350001333a97,2020-08-10_16h32.15.687,lexical_decision_task_MP,2020.1.3,MacIntel,60,,z,1,0.672,,,,,,,,0.672,1,,,,,,310,NW,UN,33,sproly,DANIET,z,,,,,,-0.047777778,-0.414444444,0,0,0,,0,192,192,369,1,,
,,,,,,,,,,,,,,,,,,5d2dbfc01460350001333a97,2020-08-10_16h32.15.687,lexical_decision_task_MP,2020.1.3,MacIntel,60,,z,1,0.438,,,,,,,,0.438,1,,,,,,333,NW,UN,33,watmeg,CATRIE,z,,,,,,-0.047777778,-0.414444444,0,0,0,,0,193,193,392,1,,
,,,,,,,,,,,,,,,,,,5d2dbfc01460350001333a97,2020-08-10_16h32.15.687,lexical_decision_task_MP,2020.1.3,MacIntel,60,,z,0,0.456,,,,,,,,0.456,0,,,,,,205,WORD,"ID",33,lounge,LOUNGE,m,,,,,,-0.047777778,-0.414444444,0,0,0,,0,194,194,24,1,,
,,,,,,,,,,,,,,,,,,5d2dbfc01460350001333a97,2020-08-10_16h32.15.687,lexical_decision_task_MP,2020.1.3,MacIntel,60,,m,1,0.438,,,,,,,,0.438,1,,,,,,26,WORD,"ID",50,sprint,SPRINT,m,,,,,,-0.047777778,-0.414444444,0,0,0,,0,195,195,85,1,,
,,,,,,,,,,,,,,,,,,5d2dbfc01460350001333a97,2020-08-10_16h32.15.687,lexical_decision_task_MP,2020.1.3,MacIntel,60,,m,1,0.439,,,,,,,,0.439,1,,,,,,137,WORD,UN,50,melody,FINGER,m,,,,,,-0.047777778,-0.414444444,0,0,0,,0,196,196,196,1,,
,,,,,,,,,,,,,,,,,,5d2dbfc01460350001333a97,2020-08-10_16h32.15.687,lexical_decision_task_MP,2020.1.3,MacIntel,60,,m,0,0.887,,,,,,,,0.887,0,,,,,,454,NW,"ID",33,scouge,SCOUGE,z,,,,,,-0.047777778,-0.414444444,0,0,0,,0,197,197,273,1,,
,,,,,,,,,,,,,,,,,,5d2dbfc01460350001333a97,2020-08-10_16h32.15.687,lexical_decision_task_MP,2020.1.3,MacIntel,60,,m,1,0.539,,,,,,,,0.539,1,,,,,,186,WORD,"ID",33,portal,PORTAL,m,,,,,,-0.047777778,-0.414444444,0,0,0,,0,198,198,5,1,,
,,,,,,,,,,,,,,,,,,5d2dbfc01460350001333a97,2020-08-10_16h32.15.687,lexical_decision_task_MP,2020.1.3,MacIntel,60,,z,1,0.708,,,,,,,,0.708,1,,,,,,284,NW,"ID",50,shaple,SHAPLE,z,,,,,,-0.047777778,-0.414444444,0,0,0,,0,199,199,343,1,,
,,,,,,,,,,,,,,,,,,5d2dbfc01460350001333a97,2020-08-10_16h32.15.687,lexical_decision_task_MP,2020.1.3,MacIntel,60,,m,1,0.672,,,,,,,,0.672,1,,,,,,162,WORD,UN,50,string,CANDLE,m,,,,,,-0.047777778,-0.414444444,0,0,0,,0,200,200,221,1,,
,,,,,,,,,,,,,,,,,,5d2dbfc01460350001333a97,2020-08-10_16h32.15.687,lexical_decision_task_MP,2020.1.3,MacIntel,60,,z,1,0.585,,,,,,,,0.585,1,,,,,,478,NW,"ID",33,acrise,ACRISE,z,,,,,,-0.047777778,-0.414444444,0,0,0,,0,201,201,297,1,,
,,,,,,,,,,,,,,,,,,5d2dbfc01460350001333a97,2020-08-10_16h32.15.687,lexical_decision_task_MP,2020.1.3,MacIntel,60,,z,1,0.505,,,,,,,,0.505,1,,,,,,362,NW,UN,50,breali,TIREAU,z,,,,,,-0.047777778,-0.414444444,0,0,0,,0,202,202,421,1,,
,,,,,,,,,,,,,,,,,,5d2dbfc01460350001333a97,2020-08-10_16h32.15.687,lexical_decision_task_MP,2020.1.3,MacIntel,60,,m,0,0.574,,,,,,,,0.574,0,,,,,,443,NW,"ID",33,dorsex,DORSEX,z,,,,,,-0.047777778,-0.414444444,0,0,0,,0,203,203,262,1,,
,,,,,,,,,,,,,,,,,,5d2dbfc01460350001333a97,2020-08-10_16h32.15.687,lexical_decision_task_MP,2020.1.3,MacIntel,60,,m,1,0.519,,,,,,,,0.519,1,,,,,,217,WORD,"ID",33,liquor,LIQUOR,m,,,,,,-0.047777778,-0.414444444,0,0,0,,0,204,204,36,1,,
,,,,,,,,,,,,,,,,,,5d2dbfc01460350001333a97,2020-08-10_16h32.15.687,lexical_decision_task_MP,2020.1.3,MacIntel,60,,z,1,0.52,,,,,,,,0.52,1,,,,,,376,NW,UN,50,veigma,IGUARE,z,,,,,,-0.047777778,-0.414444444,0,0,0,,0,205,205,435,1,,
,,,,,,,,,,,,,,,,,,5d2dbfc01460350001333a97,2020-08-10_16h32.15.687,lexical_decision_task_MP,2020.1.3,MacIntel,60,,m,1,0.569,,,,,,,,0.569,1,,,,,,150,WORD,UN,50,mystic,RANDOM,m,,,,,,-0.047777778,-0.414444444,0,0,0,,0,206,206,209,1,,
,,,,,,,,,,,,,,,,,,5d2dbfc01460350001333a97,2020-08-10_16h32.15.687,lexical_decision_task_MP,2020.1.3,MacIntel,60,,z,0,0.703,,,,,,,,0.703,0,,,,,,159,WORD,UN,50,violet,DETAIL,m,,,,,,-0.047777778,-0.414444444,0,0,0,,0,207,207,218,1,,
,,,,,,,,,,,,,,,,,,5d2dbfc01460350001333a97,2020-08-10_16h32.15.687,lexical_decision_task_MP,2020.1.3,MacIntel,60,,m,1,0.387,,,,,,,,0.387,1,,,,,,57,WORD,"ID",50,change,CHANGE,m,,,,,,-0.047777778,-0.414444444,0,0,0,,0,208,208,116,1,,
,,,,,,,,,,,,,,,,,,5d2dbfc01460350001333a97,2020-08-10_16h32.15.687,lexical_decision_task_MP,2020.1.3,MacIntel,60,,z,1,0.538,,,,,,,,0.538,1,,,,,,336,NW,UN,33,rejols,GHODUS,z,,,,,,-0.047777778,-0.414444444,0,0,0,,0,209,209,395,1,,
,,,,,,,,,,,,,,,,,,5d2dbfc01460350001333a97,2020-08-10_16h32.15.687,lexical_decision_task_MP,2020.1.3,MacIntel,60,,m,0,1.705,,,,,,,,1.705,0,,,,,,297,NW,"ID",50,fertic,FERTIC,z,,,,,,-0.047777778,-0.414444444,0,0,0,,0,210,210,356,1,,
,,,,,,,,,,,,,,,,,,5d2dbfc01460350001333a97,2020-08-10_16h32.15.687,lexical_decision_task_MP,2020.1.3,MacIntel,60,,m,0,0.535,,,,,,,,0.535,0,,,,,,303,NW,UN,33,cludie,FIREAM,z,,,,,,-0.047777778,-0.414444444,0,0,0,,0,211,211,362,1,,
,,,,,,,,,,,,,,,,,,5d2dbfc01460350001333a97,2020-08-10_16h32.15.687,lexical_decision_task_MP,2020.1.3,MacIntel,60,,m,1,0.387,,,,,,,,0.387,1,,,,,,94,WORD,UN,33,thread,TRAVEL,m,,,,,,-0.047777778,-0.414444444,0,0,0,,0,212,212,153,1,,
,,,,,,,,,,,,,,,,,,5d2dbfc01460350001333a97,2020-08-10_16h32.15.687,lexical_decision_task_MP,2020.1.3,MacIntel,60,,m,1,0.408,,,,,,,,0.408,1,,,,,,232,WORD,"ID",33,inject,INJECT,m,,,,,,-0.047777778,-0.414444444,0,0,0,,0,213,213,51,1,,
,,,,,,,,,,,,,,,,,,5d2dbfc01460350001333a97,2020-08-10_16h32.15.687,lexical_decision_task_MP,2020.1.3,MacIntel,60,,m,0,0.358,,,,,,,,0.358,0,,,,,,307,NW,UN,33,psetch,KIRAFE,z,,,,,,-0.047777778,-0.414444444,0,0,0,,0,214,214,366,1,,
,,,,,,,,,,,,,,,,,,5d2dbfc01460350001333a97,2020-08-10_16h32.15.687,lexical_decision_task_MP,2020.1.3,MacIntel,60,,m,1,0.405,,,,,,,,0.405,1,,,,,,43,WORD,"ID",50,tongue,TONGUE,m,,,,,,-0.047777778,-0.414444444,0,0,0,,0,215,215,102,1,,
,,,,,,,,,,,,,,,,,,5d2dbfc01460350001333a97,2020-08-10_16h32.15.687,lexical_decision_task_MP,2020.1.3,MacIntel,60,,z,1,0.473,,,,,,,,0.473,1,,,,,,398,NW,UN,50,fouret,BLUNDE,z,,,,,,-0.047777778,-0.414444444,0,0,0,,0,216,216,457,1,,
,,,,,,,,,,,,,,,,,,5d2dbfc01460350001333a97,2020-08-10_16h32.15.687,lexical_decision_task_MP,2020.1.3,MacIntel,60,,z,1,0.971,,,,,,,,0.971,1,,,,,,437,NW,"ID",33,snapel,SNAPEL,z,,,,,,-0.047777778,-0.414444444,0,0,0,,0,217,217,256,1,,
,,,,,,,,,,,,,,,,,,5d2dbfc01460350001333a97,2020-08-10_16h32.15.687,lexical_decision_task_MP,2020.1.3,MacIntel,60,,z,1,0.502,,,,,,,,0.502,1,,,,,,408,NW,UN,50,elopia,HURNIA,z,,,,,,-0.047777778,-0.414444444,0,0,0,,0,218,218,467,1,,
,,,,,,,,,,,,,,,,,,5d2dbfc01460350001333a97,2020-08-10_16h32.15.687,lexical_decision_task_MP,2020.1.3,MacIntel,60,,m,1,0.572,,,,,,,,0.572,1,,,,,,106,WORD,UN,33,slogan,RANSOM,m,,,,,,-0.047777778,-0.414444444,0,0,0,,0,219,219,165,1,,
,,,,,,,,,,,,,,,,,,5d2dbfc01460350001333a97,2020-08-10_16h32.15.687,lexical_decision_task_MP,2020.1.3,MacIntel,60,,m,1,0.573,,,,,,,,0.573,1,,,,,,4,WORD,"ID",50,trench,TRENCH,m,,,,,,-0.047777778,-0.414444444,0,0,0,,0,220,220,63,1,,
,,,,,,,,,,,,,,,,,,5d2dbfc01460350001333a97,2020-08-10_16h32.15.687,lexical_decision_task_MP,2020.1.3,MacIntel,60,,m,1,0.519,,,,,,,,0.519,1,,,,,,95,WORD,UN,33,ignore,THREAD,m,,,,,,-0.047777778,-0.414444444,0,0,0,,0,221,221,154,1,,
,,,,,,,,,,,,,,,,,,5d2dbfc01460350001333a97,2020-08-10_16h32.15.687,lexical_decision_task_MP,2020.1.3,MacIntel,60,,m,0,0.339,,,,,,,,0.339,0,,,,,,286,NW,"ID",50,reldon,RELDON,z,,,,,,-0.047777778,-0.414444444,0,0,0,,0,222,222,345,1,,
,,,,,,,,,,,,,,,,,,5d2dbfc01460350001333a97,2020-08-10_16h32.15.687,lexical_decision_task_MP,2020.1.3,MacIntel,60,,z,1,0.568,,,,,,,,0.568,1,,,,,,447,NW,"ID",33,gircue,GIRCUE,z,,,,,,-0.047777778,-0.414444444,0,0,0,,0,223,223,266,1,,
,,,,,,,,,,,,,,,,,,5d2dbfc01460350001333a97,2020-08-10_16h32.15.687,lexical_decision_task_MP,2020.1.3,MacIntel,60,,z,1,0.803,,,,,,,,0.803,1,,,,,,475,NW,"ID",33,pebric,PEBRIC,z,,,,,,-0.047777778,-0.414444444,0,0,0,,0,224,224,294,1,,
,,,,,,,,,,,,,,,,,,5d2dbfc01460350001333a97,2020-08-10_16h32.15.687,lexical_decision_task_MP,2020.1.3,MacIntel,60,,m,1,0.869,,,,,,,,0.869,1,,,,,,92,WORD,UN,33,public,STRAND,m,,,,,,-0.047777778,-0.414444444,0,0,0,,0,225,225,151,1,,
,,,,,,,,,,,,,,,,,,5d2dbfc01460350001333a97,2020-08-10_16h32.15.687,lexical_decision_task_MP,2020.1.3,MacIntel,60,,z,1,0.806,,,,,,,,0.806,1,,,,,,433,NW,"ID",33,drance,DRANCE,z,,,,,,-0.047777778,-0.414444444,0,0,0,,0,226,226,252,1,,
,,,,,,,,,,,,,,,,,,5d2dbfc01460350001333a97,2020-08-10_16h32.15.687,lexical_decision_task_MP,2020.1.3,MacIntel,60,,z,1,0.553,,,,,,,,0.553,1,,,,,,369,NW,UN,50,sleact,WRONCH,z,,,,,,-0.047777778,-0.414444444,0,0,0,,0,227,227,428,1,,
,,,,,,,,,,,,,,,,,,5d2dbfc01460350001333a97,2020-08-10_16h32.15.687,lexical_decision_task_MP,2020.1.3,MacIntel,60,,m,1,0.488,,,,,,,,0.488,1,,,,,,132,WORD,UN,50,orphan,STRONG,m,,,,,,-0.047777778,-0.414444444,0,0,0,,0,228,228,191,1,,
,,,,,,,,,,,,,,,,,,5d2dbfc01460350001333a97,2020-08-10_16h32.15.687,lexical_decision_task_MP,2020.1.3,MacIntel,60,,z,1,1.239,,,,,,,,1.239,1,,,,,,420,NW,UN,50,pauche,GUSHOP,z,,,,,,-0.047777778,-0.414444444,0,0,0,,0,229,229,479,1,,
,,,,,,,,,,,,,,,,,,5d2dbfc01460350001333a97,2020-08-10_16h32.15.687,lexical_decision_task_MP,2020.1.3,MacIntel,60,,m,1,0.624,,,,,,,,0.624,1,,,,,,198,WORD,"ID",33,wicked,WICKED,m,,,,,,-0.047777778,-0.414444444,0,0,0,,0,230,230,17,1,,
,,,,,,,,,,,,,,,,,,5d2dbfc01460350001333a97,2020-08-10_16h32.15.687,lexical_decision_task_MP,2020.1.3,MacIntel,60,,m,1,0.669,,,,,,,,0.669,1,,,,,,78,WORD,UN,33,theory,COLUMN,m,,,,,,-0.047777778,-0.414444444,0,0,0,,0,231,231,137,1,,
,,,,,,,,,,,,,,,,,,5d2dbfc01460350001333a97,2020-08-10_16h32.15.687,lexical_decision_task_MP,2020.1.3,MacIntel,60,,z,1,0.555,,,,,,,,0.555,1,,,,,,407,NW,UN,50,hurnia,SUIVER,z,,,,,,-0.047777778,-0.414444444,0,0,0,,0,232,232,466,1,,
,,,,,,,,,,,,,,,,,,5d2dbfc01460350001333a97,2020-08-10_16h32.15.687,lexical_decision_task_MP,2020.1.3,MacIntel,60,,z,1,1.204,,,,,,,,1.204,1,,,,,,331,NW,UN,33,vangue,GILFEW,z,,,,,,-0.047777778,-0.414444444,0,0,0,,0,233,233,390,1,,
,,,,,,,,,,,,,,,,,,5d2dbfc01460350001333a97,2020-08-10_16h32.15.687,lexical_decision_task_MP,2020.1.3,MacIntel,60,,z,1,0.724,,,,,,,,0.724,1,,,,,,405,NW,UN,50,nouply,FLUMNI,z,,,,,,-0.047777778,-0.414444444,0,0,0,,0,234,234,464,1,,
,,,,,,,,,,,,,,,,,,5d2dbfc01460350001333a97,2020-08-10_16h32.15.687,lexical_decision_task_MP,2020.1.3,MacIntel,60,,z,1,0.537,,,,,,,,0.537,1,,,,,,464,NW,"ID",33,chaite,CHAITE,z,,,,,,-0.047777778,-0.414444444,0,0,0,,0,235,235,283,1,,
,,,,,,,,,,,,,,,,,,5d2dbfc01460350001333a97,2020-08-10_16h32.15.687,lexical_decision_task_MP,2020.1.3,MacIntel,60,,z,1,0.652,,,,,,,,0.652,1,,,,,,287,NW,"ID",50,nymbel,NYMBEL,z,,,,,,-0.047777778,-0.414444444,0,0,0,,0,236,236,346,1,,
,,,,,,,,,,,,,,,,,,5d2dbfc01460350001333a97,2020-08-10_16h32.15.687,lexical_decision_task_MP,2020.1.3,MacIntel,60,,m,1,0.655,,,,,,,,0.655,1,,,,,,58,WORD,"ID",50,foster,FOSTER,m,,,,,,-0.047777778,-0.414444444,0,0,0,,0,237,237,117,1,,
,,,,,,,,,,,,,,,,,,5d2dbfc01460350001333a97,2020-08-10_16h32.15.687,lexical_decision_task_MP,2020.1.3,MacIntel,60,,z,0,0.583,,,,,,,,0.583,0,,,,,,207,WORD,"ID",33,wreath,WREATH,m,,,,,,-0.047777778,-0.414444444,0,0,0,,0,238,238,26,1,,
,,,,,,,,,,,,,,,,,,5d2dbfc01460350001333a97,2020-08-10_16h32.15.687,lexical_decision_task_MP,2020.1.3,MacIntel,60,,z,1,0.603,,,,,,,,0.603,1,,,,,,264,NW,"ID",50,vackel,VACKEL,z,,,,,,-0.047777778,-0.414444444,0,0,0,,0,239,239,323,1,,
,,,,,,,,,,,,,,,,,,5d2dbfc01460350001333a97,2020-08-10_16h32.15.687,lexical_decision_task_MP,2020.1.3,MacIntel,60,,m,1,0.836,,,,,,,,0.836,1,,,,,,37,WORD,"ID",50,insult,INSULT,m,,,,,,-0.047777778,-0.414444444,0,0,0,,0,240,240,96,1,,
,,,,,,,,,,,,,,,,,,5d2dbfc01460350001333a97,2020-08-10_16h32.15.687,lexical_decision_task_MP,2020.1.3,MacIntel,60,,m,1,0.634,,,,,,,,0.634,1,,,,,,98,WORD,UN,33,fluent,BELONG,m,,,,,,-0.047777778,-0.414444444,0,0,0,space,0,241,241,157,1,126.756,
,,,,,,,,,,,,,,,,,,5d2dbfc01460350001333a97,2020-08-10_16h32.15.687,lexical_decision_task_MP,2020.1.3,MacIntel,60,,z,1,0.722,,,,,,,,0.722,1,,,,,,338,NW,UN,33,fachow,WREASH,z,,,,,,-0.047777778,-0.414444444,0,0,0,,0,242,242,397,1,,
,,,,,,,,,,,,,,,,,,5d2dbfc01460350001333a97,2020-08-10_16h32.15.687,lexical_decision_task_MP,2020.1.3,MacIntel,60,,m,1,0.607,,,,,,,,0.607,1,,,,,,234,WORD,"ID",33,clumsy,CLUMSY,m,,,,,,-0.047777778,-0.414444444,0,0,0,,0,243,243,53,1,,
,,,,,,,,,,,,,,,,,,5d2dbfc01460350001333a97,2020-08-10_16h32.15.687,lexical_decision_task_MP,2020.1.3,MacIntel,60,,z,1,1.024,,,,,,,,1.024,1,,,,,,290,NW,"ID",50,splino,SPLINO,z,,,,,,-0.047777778,-0.414444444,0,0,0,,0,244,244,349,1,,
,,,,,,,,,,,,,,,,,,5d2dbfc01460350001333a97,2020-08-10_16h32.15.687,lexical_decision_task_MP,2020.1.3,MacIntel,60,,m,1,0.373,,,,,,,,0.373,1,,,,,,28,WORD,"ID",50,comedy,COMEDY,m,,,,,,-0.047777778,-0.414444444,0,0,0,,0,245,245,87,1,,
,,,,,,,,,,,,,,,,,,5d2dbfc01460350001333a97,2020-08-10_16h32.15.687,lexical_decision_task_MP,2020.1.3,MacIntel,60,,m,1,0.687,,,,,,,,0.687,1,,,,,,225,WORD,"ID",33,vulgar,VULGAR,m,,,,,,-0.047777778,-0.414444444,0,0,0,,0,246,246,44,1,,
,,,,,,,,,,,,,,,,,,5d2dbfc01460350001333a97,2020-08-10_16h32.15.687,lexical_decision_task_MP,2020.1.3,MacIntel,60,,m,1,0.506,,,,,,,,0.506,1,,,,,,30,WORD,"ID",50,orient,ORIENT,m,,,,,,-0.047777778,-0.414444444,0,0,0,,0,247,247,89,1,,
,,,,,,,,,,,,,,,,,,5d2dbfc01460350001333a97,2020-08-10_16h32.15.687,lexical_decision_task_MP,2020.1.3,MacIntel,60,,z,1,1.105,,,,,,,,1.105,1,,,,,,301,NW,UN,33,miluer,FAINCH,z,,,,,,-0.047777778,-0.414444444,0,0,0,,0,248,248,360,1,,
,,,,,,,,,,,,,,,,,,5d2dbfc01460350001333a97,2020-08-10_16h32.15.687,lexical_decision_task_MP,2020.1.3,MacIntel,60,,m,1,0.905,,,,,,,,0.905,1,,,,,,85,WORD,UN,33,rodent,SPRAWL,m,,,,,,-0.047777778,-0.414444444,0,0,0,,0,249,249,144,1,,
,,,,,,,,,,,,,,,,,,5d2dbfc01460350001333a97,2020-08-10_16h32.15.687,lexical_decision_task_MP,2020.1.3,MacIntel,60,,z,1,0.489,,,,,,,,0.489,1,,,,,,379,NW,UN,50,cavory,AUTING,z,,,,,,-0.047777778,-0.414444444,0,0,0,,0,250,250,438,1,,
,,,,,,,,,,,,,,,,,,5d2dbfc01460350001333a97,2020-08-10_16h32.15.687,lexical_decision_task_MP,2020.1.3,MacIntel,60,,m,0,0.604,,,,,,,,0.604,0,,,,,,468,NW,"ID",33,wictor,WICTOR,z,,,,,,-0.047777778,-0.414444444,0,0,0,,0,251,251,287,1,,
,,,,,,,,,,,,,,,,,,5d2dbfc01460350001333a97,2020-08-10_16h32.15.687,lexical_decision_task_MP,2020.1.3,MacIntel,60,,m,1,0.45,,,,,,,,0.45,1,,,,,,53,WORD,"ID",50,police,POLICE,m,,,,,,-0.047777778,-0.414444444,0,0,0,,0,252,252,112,1,,
,,,,,,,,,,,,,,,,,,5d2dbfc01460350001333a97,2020-08-10_16h32.15.687,lexical_decision_task_MP,2020.1.3,MacIntel,60,,m,1,0.574,,,,,,,,0.574,1,,,,,,175,WORD,UN,50,strife,FABRIC,m,,,,,,-0.047777778,-0.414444444,0,0,0,,0,253,253,234,1,,
,,,,,,,,,,,,,,,,,,5d2dbfc01460350001333a97,2020-08-10_16h32.15.687,lexical_decision_task_MP,2020.1.3,MacIntel,60,,z,1,0.891,,,,,,,,0.891,1,,,,,,345,NW,UN,33,saudic,ABSEND,z,,,,,,-0.047777778,-0.414444444,0,0,0,,0,254,254,404,1,,
,,,,,,,,,,,,,,,,,,5d2dbfc01460350001333a97,2020-08-10_16h32.15.687,lexical_decision_task_MP,2020.1.3,MacIntel,60,,z,1,0.753,,,,,,,,0.753,1,,,,,,377,NW,UN,50,shrile,INJORE,z,,,,,,-0.047777778,-0.414444444,0,0,0,,0,255,255,436,1,,
,,,,,,,,,,,,,,,,,,5d2dbfc01460350001333a97,2020-08-10_16h32.15.687,lexical_decision_task_MP,2020.1.3,MacIntel,60,,m,1,0.622,,,,,,,,0.622,1,,,,,,112,WORD,UN,33,chorus,BREATH,m,,,,,,-0.047777778,-0.414444444,0,0,0,,0,256,256,171,1,,
,,,,,,,,,,,,,,,,,,5d2dbfc01460350001333a97,2020-08-10_16h32.15.687,lexical_decision_task_MP,2020.1.3,MacIntel,60,,z,1,0.607,,,,,,,,0.607,1,,,,,,270,NW,"ID",50,wrimsy,WRIMSY,z,,,,,,-0.047777778,-0.414444444,0,0,0,,0,257,257,329,1,,
,,,,,,,,,,,,,,,,,,5d2dbfc01460350001333a97,2020-08-10_16h32.15.687,lexical_decision_task_MP,2020.1.3,MacIntel,60,,z,1,0.702,,,,,,,,0.702,1,,,,,,471,NW,"ID",33,nobest,NOBEST,z,,,,,,-0.047777778,-0.414444444,0,0,0,,0,258,258,290,1,,
,,,,,,,,,,,,,,,,,,5d2dbfc01460350001333a97,2020-08-10_16h32.15.687,lexical_decision_task_MP,2020.1.3,MacIntel,60,,m,1,0.591,,,,,,,,0.591,1,,,,,,48,WORD,"ID",50,walnut,WALNUT,m,,,,,,-0.047777778,-0.414444444,0,0,0,,0,259,259,107,1,,
,,,,,,,,,,,,,,,,,,5d2dbfc01460350001333a97,2020-08-10_16h32.15.687,lexical_decision_task_MP,2020.1.3,MacIntel,60,,m,1,0.405,,,,,,,,0.405,1,,,,,,20,WORD,"ID",50,breast,BREAST,m,,,,,,-0.047777778,-0.414444444,0,0,0,,0,260,260,79,1,,
,,,,,,,,,,,,,,,,,,5d2dbfc01460350001333a97,2020-08-10_16h32.15.687,lexical_decision_task_MP,2020.1.3,MacIntel,60,,z,1,0.523,,,,,,,,0.523,1,,,,,,440,NW,"ID",33,saride,SARIDE,z,,,,,,-0.047777778,-0.414444444,0,0,0,,0,261,261,259,1,,
,,,,,,,,,,,,,,,,,,5d2dbfc01460350001333a97,2020-08-10_16h32.15.687,lexical_decision_task_MP,2020.1.3,MacIntel,60,,z,1,0.541,,,,,,,,0.541,1,,,,,,412,NW,UN,50,equats,JILUER,z,,,,,,-0.047777778,-0.414444444,0,0,0,,0,262,262,471,1,,
,,,,,,,,,,,,,,,,,,5d2dbfc01460350001333a97,2020-08-10_16h32.15.687,lexical_decision_task_MP,2020.1.3,MacIntel,60,,m,1,0.519,,,,,,,,0.519,1,,,,,,221,WORD,"ID",33,mascot,MASCOT,m,,,,,,-0.047777778,-0.414444444,0,0,0,,0,263,263,40,1,,
,,,,,,,,,,,,,,,,,,5d2dbfc01460350001333a97,2020-08-10_16h32.15.687,lexical_decision_task_MP,2020.1.3,MacIntel,60,,z,1,0.656,,,,,,,,0.656,1,,,,,,363,NW,UN,50,impote,BREALI,z,,,,,,-0.047777778,-0.414444444,0,0,0,,0,264,264,422,1,,
,,,,,,,,,,,,,,,,,,5d2dbfc01460350001333a97,2020-08-10_16h32.15.687,lexical_decision_task_MP,2020.1.3,MacIntel,60,,z,1,0.689,,,,,,,,0.689,1,,,,,,406,NW,UN,50,suiver,NOUPLY,z,,,,,,-0.047777778,-0.414444444,0,0,0,,0,265,265,465,1,,
,,,,,,,,,,,,,,,,,,5d2dbfc01460350001333a97,2020-08-10_16h32.15.687,lexical_decision_task_MP,2020.1.3,MacIntel,60,,m,1,0.651,,,,,,,,0.651,1,,,,,,158,WORD,UN,50,detail,ISLAND,m,,,,,,-0.047777778,-0.414444444,0,0,0,,0,266,266,217,1,,
,,,,,,,,,,,,,,,,,,5d2dbfc01460350001333a97,2020-08-10_16h32.15.687,lexical_decision_task_MP,2020.1.3,MacIntel,60,,z,1,0.46,,,,,,,,0.46,1,,,,,,374,NW,UN,50,yorque,SLIANT,z,,,,,,-0.047777778,-0.414444444,0,0,0,,0,267,267,433,1,,
,,,,,,,,,,,,,,,,,,5d2dbfc01460350001333a97,2020-08-10_16h32.15.687,lexical_decision_task_MP,2020.1.3,MacIntel,60,,z,1,0.988,,,,,,,,0.988,1,,,,,,445,NW,"ID",33,minkel,MINKEL,z,,,,,,-0.047777778,-0.414444444,0,0,0,,0,268,268,264,1,,
,,,,,,,,,,,,,,,,,,5d2dbfc01460350001333a97,2020-08-10_16h32.15.687,lexical_decision_task_MP,2020.1.3,MacIntel,60,,m,1,0.655,,,,,,,,0.655,1,,,,,,86,WORD,UN,33,filter,RODENT,m,,,,,,-0.047777778,-0.414444444,0,0,0,,0,269,269,145,1,,
,,,,,,,,,,,,,,,,,,5d2dbfc01460350001333a97,2020-08-10_16h32.15.687,lexical_decision_task_MP,2020.1.3,MacIntel,60,,m,1,0.767,,,,,,,,0.767,1,,,,,,153,WORD,UN,50,author,BEHOLD,m,,,,,,-0.047777778,-0.414444444,0,0,0,,0,270,270,212,1,,
,,,,,,,,,,,,,,,,,,5d2dbfc01460350001333a97,2020-08-10_16h32.15.687,lexical_decision_task_MP,2020.1.3,MacIntel,60,,m,1,0.537,,,,,,,,0.537,1,,,,,,191,WORD,"ID",33,stable,STABLE,m,,,,,,-0.047777778,-0.414444444,0,0,0,,0,271,271,10,1,,
,,,,,,,,,,,,,,,,,,5d2dbfc01460350001333a97,2020-08-10_16h32.15.687,lexical_decision_task_MP,2020.1.3,MacIntel,60,,z,1,0.588,,,,,,,,0.588,1,,,,,,311,NW,UN,33,nerawl,SPROLY,z,,,,,,-0.047777778,-0.414444444,0,0,0,,0,272,272,370,1,,
,,,,,,,,,,,,,,,,,,5d2dbfc01460350001333a97,2020-08-10_16h32.15.687,lexical_decision_task_MP,2020.1.3,MacIntel,60,,z,1,0.609,,,,,,,,0.609,1,,,,,,428,NW,"ID",33,tandly,TANDLY,z,,,,,,-0.047777778,-0.414444444,0,0,0,,0,273,273,247,1,,
,,,,,,,,,,,,,,,,,,5d2dbfc01460350001333a97,2020-08-10_16h32.15.687,lexical_decision_task_MP,2020.1.3,MacIntel,60,,m,1,0.691,,,,,,,,0.691,1,,,,,,152,WORD,UN,50,behold,ROCKET,m,,,,,,-0.047777778,-0.414444444,0,0,0,,0,274,274,211,1,,
,,,,,,,,,,,,,,,,,,5d2dbfc01460350001333a97,2020-08-10_16h32.15.687,lexical_decision_task_MP,2020.1.3,MacIntel,60,,z,1,0.884,,,,,,,,0.884,1,,,,,,342,NW,UN,33,aimosy,RANDOW,z,,,,,,-0.047777778,-0.414444444,0,0,0,,0,275,275,401,1,,
,,,,,,,,,,,,,,,,,,5d2dbfc01460350001333a97,2020-08-10_16h32.15.687,lexical_decision_task_MP,2020.1.3,MacIntel,60,,m,1,0.699,,,,,,,,0.699,1,,,,,,9,WORD,"ID",50,hustle,HUSTLE,m,,,,,,-0.047777778,-0.414444444,0,0,0,,0,276,276,68,1,,
,,,,,,,,,,,,,,,,,,5d2dbfc01460350001333a97,2020-08-10_16h32.15.687,lexical_decision_task_MP,2020.1.3,MacIntel,60,,z,0,0.672,,,,,,,,0.672,0,,,,,,126,WORD,UN,50,castle,ENOUGH,m,,,,,,-0.047777778,-0.414444444,0,0,0,,0,277,277,185,1,,
,,,,,,,,,,,,,,,,,,5d2dbfc01460350001333a97,2020-08-10_16h32.15.687,lexical_decision_task_MP,2020.1.3,MacIntel,60,,m,1,0.571,,,,,,,,0.571,1,,,,,,107,WORD,UN,33,reckon,SLOGAN,m,,,,,,-0.047777778,-0.414444444,0,0,0,,0,278,278,166,1,,
,,,,,,,,,,,,,,,,,,5d2dbfc01460350001333a97,2020-08-10_16h32.15.687,lexical_decision_task_MP,2020.1.3,MacIntel,60,,m,1,0.487,,,,,,,,0.487,1,,,,,,142,WORD,UN,50,reason,SPRUCE,m,,,,,,-0.047777778,-0.414444444,0,0,0,,0,279,279,201,1,,
,,,,,,,,,,,,,,,,,,5d2dbfc01460350001333a97,2020-08-10_16h32.15.687,lexical_decision_task_MP,2020.1.3,MacIntel,60,,z,1,0.522,,,,,,,,0.522,1,,,,,,392,NW,UN,50,ganous,ROUNCY,z,,,,,,-0.047777778,-0.414444444,0,0,0,,0,280,280,451,1,,
,,,,,,,,,,,,,,,,,,5d2dbfc01460350001333a97,2020-08-10_16h32.15.687,lexical_decision_task_MP,2020.1.3,MacIntel,60,,z,1,0.604,,,,,,,,0.604,1,,,,,,479,NW,"ID",33,lobush,LOBUSH,z,,,,,,-0.047777778,-0.414444444,0,0,0,,0,281,281,298,1,,
,,,,,,,,,,,,,,,,,,5d2dbfc01460350001333a97,2020-08-10_16h32.15.687,lexical_decision_task_MP,2020.1.3,MacIntel,60,,m,1,0.553,,,,,,,,0.553,1,,,,,,55,WORD,"ID",50,stroke,STROKE,m,,,,,,-0.047777778,-0.414444444,0,0,0,,0,282,282,114,1,,
,,,,,,,,,,,,,,,,,,5d2dbfc01460350001333a97,2020-08-10_16h32.15.687,lexical_decision_task_MP,2020.1.3,MacIntel,60,,z,1,0.603,,,,,,,,0.603,1,,,,,,438,NW,"ID",33,baitch,BAITCH,z,,,,,,-0.047777778,-0.414444444,0,0,0,,0,283,283,257,1,,
,,,,,,,,,,,,,,,,,,5d2dbfc01460350001333a97,2020-08-10_16h32.15.687,lexical_decision_task_MP,2020.1.3,MacIntel,60,,m,1,0.569,,,,,,,,0.569,1,,,,,,105,WORD,UN,33,ransom,NUMBER,m,,,,,,-0.047777778,-0.414444444,0,0,0,,0,284,284,164,1,,
,,,,,,,,,,,,,,,,,,5d2dbfc01460350001333a97,2020-08-10_16h32.15.687,lexical_decision_task_MP,2020.1.3,MacIntel,60,,m,1,0.638,,,,,,,,0.638,1,,,,,,135,WORD,UN,50,bleach,IMPORT,m,,,,,,-0.047777778,-0.414444444,0,0,0,,0,285,285,194,1,,
,,,,,,,,,,,,,,,,,,5d2dbfc01460350001333a97,2020-08-10_16h32.15.687,lexical_decision_task_MP,2020.1.3,MacIntel,60,,m,1,0.523,,,,,,,,0.523,1,,,,,,154,WORD,UN,50,lizard,AUTHOR,m,,,,,,-0.047777778,-0.414444444,0,0,0,,0,286,286,213,1,,
,,,,,,,,,,,,,,,,,,5d2dbfc01460350001333a97,2020-08-10_16h32.15.687,lexical_decision_task_MP,2020.1.3,MacIntel,60,,m,1,0.41,,,,,,,,0.41,1,,,,,,29,WORD,"ID",50,sketch,SKETCH,m,,,,,,-0.047777778,-0.414444444,0,0,0,,0,287,287,88,1,,
,,,,,,,,,,,,,,,,,,5d2dbfc01460350001333a97,2020-08-10_16h32.15.687,lexical_decision_task_MP,2020.1.3,MacIntel,60,,m,1,0.755,,,,,,,,0.755,1,,,,,,115,WORD,UN,33,tumble,GUITAR,m,,,,,,-0.047777778,-0.414444444,0,0,0,,0,288,288,174,1,,
,,,,,,,,,,,,,,,,,,5d2dbfc01460350001333a97,2020-08-10_16h32.15.687,lexical_decision_task_MP,2020.1.3,MacIntel,60,,m,0,0.474,,,,,,,,0.474,0,,,,,,325,NW,UN,33,iguade,THRUSE,z,,,,,,-0.047777778,-0.414444444,0,0,0,,0,289,289,384,1,,
,,,,,,,,,,,,,,,,,,5d2dbfc01460350001333a97,2020-08-10_16h32.15.687,lexical_decision_task_MP,2020.1.3,MacIntel,60,,z,0,1.304,,,,,,,,1.304,0,,,,,,176,WORD,UN,50,advent,STRIFE,m,,,,,,-0.047777778,-0.414444444,0,0,0,,0,290,290,235,1,,
,,,,,,,,,,,,,,,,,,5d2dbfc01460350001333a97,2020-08-10_16h32.15.687,lexical_decision_task_MP,2020.1.3,MacIntel,60,,z,1,0.602,,,,,,,,0.602,1,,,,,,358,NW,UN,33,fonver,FLEACK,z,,,,,,-0.047777778,-0.414444444,0,0,0,,0,291,291,417,1,,
,,,,,,,,,,,,,,,,,,5d2dbfc01460350001333a97,2020-08-10_16h32.15.687,lexical_decision_task_MP,2020.1.3,MacIntel,60,,m,0,0.488,,,,,,,,0.488,0,,,,,,319,NW,UN,33,jockal,ZOMBER,z,,,,,,-0.047777778,-0.414444444,0,0,0,,0,292,292,378,1,,
,,,,,,,,,,,,,,,,,,5d2dbfc01460350001333a97,2020-08-10_16h32.15.687,lexical_decision_task_MP,2020.1.3,MacIntel,60,,z,1,0.619,,,,,,,,0.619,1,,,,,,335,NW,UN,33,ghodus,DESION,z,,,,,,-0.047777778,-0.414444444,0,0,0,,0,293,293,394,1,,
,,,,,,,,,,,,,,,,,,5d2dbfc01460350001333a97,2020-08-10_16h32.15.687,lexical_decision_task_MP,2020.1.3,MacIntel,60,,z,1,0.77,,,,,,,,0.77,1,,,,,,316,NW,UN,33,worbal,SCREGM,z,,,,,,-0.047777778,-0.414444444,0,0,0,,0,294,294,375,1,,
,,,,,,,,,,,,,,,,,,5d2dbfc01460350001333a97,2020-08-10_16h32.15.687,lexical_decision_task_MP,2020.1.3,MacIntel,60,,z,1,0.554,,,,,,,,0.554,1,,,,,,448,NW,"ID",33,sadent,SADENT,z,,,,,,-0.047777778,-0.414444444,0,0,0,,0,295,295,267,1,,
,,,,,,,,,,,,,,,,,,5d2dbfc01460350001333a97,2020-08-10_16h32.15.687,lexical_decision_task_MP,2020.1.3,MacIntel,60,,z,1,0.59,,,,,,,,0.59,1,,,,,,268,NW,"ID",50,packes,PACKES,z,,,,,,-0.047777778,-0.414444444,0,0,0,,0,296,296,327,1,,
,,,,,,,,,,,,,,,,,,5d2dbfc01460350001333a97,2020-08-10_16h32.15.687,lexical_decision_task_MP,2020.1.3,MacIntel,60,,z,1,0.471,,,,,,,,0.471,1,,,,,,292,NW,"ID",50,ablint,ABLINT,z,,,,,,-0.047777778,-0.414444444,0,0,0,,0,297,297,351,1,,
,,,,,,,,,,,,,,,,,,5d2dbfc01460350001333a97,2020-08-10_16h32.15.687,lexical_decision_task_MP,2020.1.3,MacIntel,60,,z,1,0.439,,,,,,,,0.439,1,,,,,,451,NW,"ID",33,cainky,CAINKY,z,,,,,,-0.047777778,-0.414444444,0,0,0,,0,298,298,270,1,,
,,,,,,,,,,,,,,,,,,5d2dbfc01460350001333a97,2020-08-10_16h32.15.687,lexical_decision_task_MP,2020.1.3,MacIntel,60,,z,1,0.486,,,,,,,,0.486,1,,,,,,386,NW,UN,50,gronce,ANCUST,z,,,,,,-0.047777778,-0.414444444,0,0,0,,0,299,299,445,1,,
,,,,,,,,,,,,,,,,,,5d2dbfc01460350001333a97,2020-08-10_16h32.15.687,lexical_decision_task_MP,2020.1.3,MacIntel,60,,z,1,0.907,,,,,,,,0.907,1,,,,,,253,NW,"ID",50,resait,RESAIT,z,,,,,,-0.047777778,-0.414444444,0,0,0,,0,300,300,312,1,,
,,,,,,,,,,,,,,,,,,5d2dbfc01460350001333a97,2020-08-10_16h32.15.687,lexical_decision_task_MP,2020.1.3,MacIntel,60,,m,1,0.8,,,,,,,,0.8,1,,,,,,124,WORD,UN,50,nickel,BLOUSE,m,,,,,,-0.047777778,-0.414444444,0,0,0,,0,301,301,183,1,,
,,,,,,,,,,,,,,,,,,5d2dbfc01460350001333a97,2020-08-10_16h32.15.687,lexical_decision_task_MP,2020.1.3,MacIntel,60,,z,1,0.458,,,,,,,,0.458,1,,,,,,318,NW,UN,33,zomber,REAGLY,z,,,,,,-0.047777778,-0.414444444,0,0,0,,0,302,302,377,1,,
,,,,,,,,,,,,,,,,,,5d2dbfc01460350001333a97,2020-08-10_16h32.15.687,lexical_decision_task_MP,2020.1.3,MacIntel,60,,m,1,0.451,,,,,,,,0.451,1,,,,,,44,WORD,"ID",50,danger,DANGER,m,,,,,,-0.047777778,-0.414444444,0,0,0,,0,303,303,103,1,,
,,,,,,,,,,,,,,,,,,5d2dbfc01460350001333a97,2020-08-10_16h32.15.687,lexical_decision_task_MP,2020.1.3,MacIntel,60,,m,1,0.372,,,,,,,,0.372,1,,,,,,21,WORD,"ID",50,simple,SIMPLE,m,,,,,,-0.047777778,-0.414444444,0,0,0,,0,304,304,80,1,,
,,,,,,,,,,,,,,,,,,5d2dbfc01460350001333a97,2020-08-10_16h32.15.687,lexical_decision_task_MP,2020.1.3,MacIntel,60,,z,1,0.542,,,,,,,,0.542,1,,,,,,441,NW,"ID",33,rastoe,RASTOE,z,,,,,,-0.047777778,-0.414444444,0,0,0,,0,305,305,260,1,,
,,,,,,,,,,,,,,,,,,5d2dbfc01460350001333a97,2020-08-10_16h32.15.687,lexical_decision_task_MP,2020.1.3,MacIntel,60,,z,1,0.639,,,,,,,,0.639,1,,,,,,414,NW,UN,50,higsta,SERBOL,z,,,,,,-0.047777778,-0.414444444,0,0,0,,0,306,306,473,1,,
,,,,,,,,,,,,,,,,,,5d2dbfc01460350001333a97,2020-08-10_16h32.15.687,lexical_decision_task_MP,2020.1.3,MacIntel,60,,z,1,0.6,,,,,,,,0.6,1,,,,,,339,NW,UN,33,fiatch,FACHOW,z,,,,,,-0.047777778,-0.414444444,0,0,0,,0,307,307,398,1,,
,,,,,,,,,,,,,,,,,,5d2dbfc01460350001333a97,2020-08-10_16h32.15.687,lexical_decision_task_MP,2020.1.3,MacIntel,60,,z,1,1.289,,,,,,,,1.289,1,,,,,,404,NW,UN,50,flumni,CLUIRM,z,,,,,,-0.047777778,-0.414444444,0,0,0,,0,308,308,463,1,,
,,,,,,,,,,,,,,,,,,5d2dbfc01460350001333a97,2020-08-10_16h32.15.687,lexical_decision_task_MP,2020.1.3,MacIntel,60,,z,1,1.151,,,,,,,,1.151,1,,,,,,326,NW,UN,33,plenac,IGUADE,z,,,,,,-0.047777778,-0.414444444,0,0,0,,0,309,309,385,1,,
,,,,,,,,,,,,,,,,,,5d2dbfc01460350001333a97,2020-08-10_16h32.15.687,lexical_decision_task_MP,2020.1.3,MacIntel,60,,m,1,0.542,,,,,,,,0.542,1,,,,,,147,WORD,UN,50,custom,GARLIC,m,,,,,,-0.047777778,-0.414444444,0,0,0,,0,310,310,206,1,,
,,,,,,,,,,,,,,,,,,5d2dbfc01460350001333a97,2020-08-10_16h32.15.687,lexical_decision_task_MP,2020.1.3,MacIntel,60,,z,1,0.47,,,,,,,,0.47,1,,,,,,395,NW,UN,50,flengy,COLURY,z,,,,,,-0.047777778,-0.414444444,0,0,0,,0,311,311,454,1,,
,,,,,,,,,,,,,,,,,,5d2dbfc01460350001333a97,2020-08-10_16h32.15.687,lexical_decision_task_MP,2020.1.3,MacIntel,60,,m,1,0.706,,,,,,,,0.706,1,,,,,,206,WORD,"ID",33,tailor,TAILOR,m,,,,,,-0.047777778,-0.414444444,0,0,0,,0,312,312,25,1,,
,,,,,,,,,,,,,,,,,,5d2dbfc01460350001333a97,2020-08-10_16h32.15.687,lexical_decision_task_MP,2020.1.3,MacIntel,60,,m,1,0.456,,,,,,,,0.456,1,,,,,,208,WORD,"ID",33,hockey,HOCKEY,m,,,,,,-0.047777778,-0.414444444,0,0,0,,0,313,313,27,1,,
,,,,,,,,,,,,,,,,,,5d2dbfc01460350001333a97,2020-08-10_16h32.15.687,lexical_decision_task_MP,2020.1.3,MacIntel,60,,z,1,0.553,,,,,,,,0.553,1,,,,,,399,NW,UN,50,wearox,FOURET,z,,,,,,-0.047777778,-0.414444444,0,0,0,,0,314,314,458,1,,
,,,,,,,,,,,,,,,,,,5d2dbfc01460350001333a97,2020-08-10_16h32.15.687,lexical_decision_task_MP,2020.1.3,MacIntel,60,,z,1,0.505,,,,,,,,0.505,1,,,,,,327,NW,UN,33,broake,PLENAC,z,,,,,,-0.047777778,-0.414444444,0,0,0,,0,315,315,386,1,,
,,,,,,,,,,,,,,,,,,5d2dbfc01460350001333a97,2020-08-10_16h32.15.687,lexical_decision_task_MP,2020.1.3,MacIntel,60,,z,1,0.537,,,,,,,,0.537,1,,,,,,426,NW,"ID",33,urivel,URIVEL,z,,,,,,-0.047777778,-0.414444444,0,0,0,,0,316,316,245,1,,
,,,,,,,,,,,,,,,,,,5d2dbfc01460350001333a97,2020-08-10_16h32.15.687,lexical_decision_task_MP,2020.1.3,MacIntel,60,,z,1,0.439,,,,,,,,0.439,1,,,,,,388,NW,UN,50,witmer,CRAGIN,z,,,,,,-0.047777778,-0.414444444,0,0,0,,0,317,317,447,1,,
,,,,,,,,,,,,,,,,,,5d2dbfc01460350001333a97,2020-08-10_16h32.15.687,lexical_decision_task_MP,2020.1.3,MacIntel,60,,m,1,0.855,,,,,,,,0.855,1,,,,,,66,WORD,UN,33,policy,GOSPEL,m,,,,,,-0.047777778,-0.414444444,0,0,0,,0,318,318,125,1,,
,,,,,,,,,,,,,,,,,,5d2dbfc01460350001333a97,2020-08-10_16h32.15.687,lexical_decision_task_MP,2020.1.3,MacIntel,60,,z,0,0.352,,,,,,,,0.352,0,,,,,,168,WORD,UN,50,genius,ANSWER,m,,,,,,-0.047777778,-0.414444444,0,0,0,,0,319,319,227,1,,
,,,,,,,,,,,,,,,,,,5d2dbfc01460350001333a97,2020-08-10_16h32.15.687,lexical_decision_task_MP,2020.1.3,MacIntel,60,,m,1,0.486,,,,,,,,0.486,1,,,,,,60,WORD,"ID",50,pencil,PENCIL,m,,,,,,-0.047777778,-0.414444444,0,0,0,,0,320,320,119,1,,
,,,,,,,,,,,,,,,,,,5d2dbfc01460350001333a97,2020-08-10_16h32.15.687,lexical_decision_task_MP,2020.1.3,MacIntel,60,,m,1,0.423,,,,,,,,0.423,1,,,,,,12,WORD,"ID",50,orange,ORANGE,m,,,,,,-0.047777778,-0.414444444,0,0,0,,0,321,321,71,1,,
,,,,,,,,,,,,,,,,,,5d2dbfc01460350001333a97,2020-08-10_16h32.15.687,lexical_decision_task_MP,2020.1.3,MacIntel,60,,z,1,0.501,,,,,,,,0.501,1,,,,,,315,NW,UN,33,scregm,LASTON,z,,,,,,-0.047777778,-0.414444444,0,0,0,,0,322,322,374,1,,
,,,,,,,,,,,,,,,,,,5d2dbfc01460350001333a97,2020-08-10_16h32.15.687,lexical_decision_task_MP,2020.1.3,MacIntel,60,,z,1,0.485,,,,,,,,0.485,1,,,,,,381,NW,UN,50,sarley,HUNIEK,z,,,,,,-0.047777778,-0.414444444,0,0,0,,0,323,323,440,1,,
,,,,,,,,,,,,,,,,,,5d2dbfc01460350001333a97,2020-08-10_16h32.15.687,lexical_decision_task_MP,2020.1.3,MacIntel,60,,z,1,0.442,,,,,,,,0.442,1,,,,,,247,NW,"ID",50,blarge,BLARGE,z,,,,,,-0.047777778,-0.414444444,0,0,0,,0,324,324,306,1,,
,,,,,,,,,,,,,,,,,,5d2dbfc01460350001333a97,2020-08-10_16h32.15.687,lexical_decision_task_MP,2020.1.3,MacIntel,60,,z,1,0.508,,,,,,,,0.508,1,,,,,,259,NW,"ID",50,soudal,SOUDAL,z,,,,,,-0.047777778,-0.414444444,0,0,0,,0,325,325,318,1,,
,,,,,,,,,,,,,,,,,,5d2dbfc01460350001333a97,2020-08-10_16h32.15.687,lexical_decision_task_MP,2020.1.3,MacIntel,60,,z,0,0.536,,,,,,,,0.536,0,,,,,,227,WORD,"ID",33,seldom,SELDOM,m,,,,,,-0.047777778,-0.414444444,0,0,0,,0,326,326,46,1,,
,,,,,,,,,,,,,,,,,,5d2dbfc01460350001333a97,2020-08-10_16h32.15.687,lexical_decision_task_MP,2020.1.3,MacIntel,60,,m,1,0.61,,,,,,,,0.61,1,,,,,,1,WORD,"ID",50,fright,FRIGHT,m,,,,,,-0.047777778,-0.414444444,0,0,0,,0,327,327,60,1,,
,,,,,,,,,,,,,,,,,,5d2dbfc01460350001333a97,2020-08-10_16h32.15.687,lexical_decision_task_MP,2020.1.3,MacIntel,60,,z,1,0.619,,,,,,,,0.619,1,,,,,,340,NW,UN,33,myrtie,FIATCH,z,,,,,,-0.047777778,-0.414444444,0,0,0,,0,328,328,399,1,,
,,,,,,,,,,,,,,,,,,5d2dbfc01460350001333a97,2020-08-10_16h32.15.687,lexical_decision_task_MP,2020.1.3,MacIntel,60,,m,1,0.439,,,,,,,,0.439,1,,,,,,121,WORD,UN,50,linger,THRIVE,m,,,,,,-0.047777778,-0.414444444,0,0,0,,0,329,329,180,1,,
,,,,,,,,,,,,,,,,,,5d2dbfc01460350001333a97,2020-08-10_16h32.15.687,lexical_decision_task_MP,2020.1.3,MacIntel,60,,z,0,0.506,,,,,,,,0.506,0,,,,,,128,WORD,UN,50,marvel,SENIOR,m,,,,,,-0.047777778,-0.414444444,0,0,0,,0,330,330,187,1,,
,,,,,,,,,,,,,,,,,,5d2dbfc01460350001333a97,2020-08-10_16h32.15.687,lexical_decision_task_MP,2020.1.3,MacIntel,60,,m,1,0.44,,,,,,,,0.44,1,,,,,,67,WORD,UN,33,fumble,POLICY,m,,,,,,-0.047777778,-0.414444444,0,0,0,,0,331,331,126,1,,
,,,,,,,,,,,,,,,,,,5d2dbfc01460350001333a97,2020-08-10_16h32.15.687,lexical_decision_task_MP,2020.1.3,MacIntel,60,,z,1,0.888,,,,,,,,0.888,1,,,,,,396,NW,UN,50,camble,FLENGY,z,,,,,,-0.047777778,-0.414444444,0,0,0,,0,332,332,455,1,,
,,,,,,,,,,,,,,,,,,5d2dbfc01460350001333a97,2020-08-10_16h32.15.687,lexical_decision_task_MP,2020.1.3,MacIntel,60,,m,1,0.504,,,,,,,,0.504,1,,,,,,104,WORD,UN,33,number,STUDIO,m,,,,,,-0.047777778,-0.414444444,0,0,0,,0,333,333,163,1,,
,,,,,,,,,,,,,,,,,,5d2dbfc01460350001333a97,2020-08-10_16h32.15.687,lexical_decision_task_MP,2020.1.3,MacIntel,60,,m,1,0.724,,,,,,,,0.724,1,,,,,,239,WORD,"ID",33,lumber,LUMBER,m,,,,,,-0.047777778,-0.414444444,0,0,0,,0,334,334,58,1,,
,,,,,,,,,,,,,,,,,,5d2dbfc01460350001333a97,2020-08-10_16h32.15.687,lexical_decision_task_MP,2020.1.3,MacIntel,60,,m,1,0.451,,,,,,,,0.451,1,,,,,,211,WORD,"ID",33,infect,INFECT,m,,,,,,-0.047777778,-0.414444444,0,0,0,,0,335,335,30,1,,
,,,,,,,,,,,,,,,,,,5d2dbfc01460350001333a97,2020-08-10_16h32.15.687,lexical_decision_task_MP,2020.1.3,MacIntel,60,,z,1,0.606,,,,,,,,0.606,1,,,,,,429,NW,"ID",33,funtle,FUNTLE,z,,,,,,-0.047777778,-0.414444444,0,0,0,,0,336,336,248,1,,
,,,,,,,,,,,,,,,,,,5d2dbfc01460350001333a97,2020-08-10_16h32.15.687,lexical_decision_task_MP,2020.1.3,MacIntel,60,,m,1,0.418,,,,,,,,0.418,1,,,,,,185,WORD,"ID",33,bother,BOTHER,m,,,,,,-0.047777778,-0.414444444,0,0,0,,0,337,337,4,1,,
,,,,,,,,,,,,,,,,,,5d2dbfc01460350001333a97,2020-08-10_16h32.15.687,lexical_decision_task_MP,2020.1.3,MacIntel,60,,m,1,0.473,,,,,,,,0.473,1,,,,,,6,WORD,"ID",50,bundle,BUNDLE,m,,,,,,-0.047777778,-0.414444444,0,0,0,,0,338,338,65,1,,
,,,,,,,,,,,,,,,,,,5d2dbfc01460350001333a97,2020-08-10_16h32.15.687,lexical_decision_task_MP,2020.1.3,MacIntel,60,,m,1,0.503,,,,,,,,0.503,1,,,,,,25,WORD,"ID",50,domain,DOMAIN,m,,,,,,-0.047777778,-0.414444444,0,0,0,,0,339,339,84,1,,
,,,,,,,,,,,,,,,,,,5d2dbfc01460350001333a97,2020-08-10_16h32.15.687,lexical_decision_task_MP,2020.1.3,MacIntel,60,,z,1,0.556,,,,,,,,0.556,1,,,,,,313,NW,UN,33,sprine,PAURSE,z,,,,,,-0.047777778,-0.414444444,0,0,0,,0,340,340,372,1,,
,,,,,,,,,,,,,,,,,,5d2dbfc01460350001333a97,2020-08-10_16h32.15.687,lexical_decision_task_MP,2020.1.3,MacIntel,60,,z,1,0.509,,,,,,,,0.509,1,,,,,,393,NW,UN,50,spaqux,GANOUS,z,,,,,,-0.047777778,-0.414444444,0,0,0,,0,341,341,452,1,,
,,,,,,,,,,,,,,,,,,5d2dbfc01460350001333a97,2020-08-10_16h32.15.687,lexical_decision_task_MP,2020.1.3,MacIntel,60,,m,1,0.452,,,,,,,,0.452,1,,,,,,188,WORD,"ID",33,social,SOCIAL,m,,,,,,-0.047777778,-0.414444444,0,0,0,,0,342,342,7,1,,
,,,,,,,,,,,,,,,,,,5d2dbfc01460350001333a97,2020-08-10_16h32.15.687,lexical_decision_task_MP,2020.1.3,MacIntel,60,,z,1,0.502,,,,,,,,0.502,1,,,,,,453,NW,"ID",33,bolvis,BOLVIS,z,,,,,,-0.047777778,-0.414444444,0,0,0,,0,343,343,272,1,,
,,,,,,,,,,,,,,,,,,5d2dbfc01460350001333a97,2020-08-10_16h32.15.687,lexical_decision_task_MP,2020.1.3,MacIntel,60,,z,1,0.723,,,,,,,,0.723,1,,,,,,476,NW,"ID",33,josted,JOSTED,z,,,,,,-0.047777778,-0.414444444,0,0,0,,0,344,344,295,1,,
,,,,,,,,,,,,,,,,,,5d2dbfc01460350001333a97,2020-08-10_16h32.15.687,lexical_decision_task_MP,2020.1.3,MacIntel,60,,m,1,0.739,,,,,,,,0.739,1,,,,,,19,WORD,"ID",50,patron,PATRON,m,,,,,,-0.047777778,-0.414444444,0,0,0,,0,345,345,78,1,,
,,,,,,,,,,,,,,,,,,5d2dbfc01460350001333a97,2020-08-10_16h32.15.687,lexical_decision_task_MP,2020.1.3,MacIntel,60,,z,1,0.572,,,,,,,,0.572,1,,,,,,329,NW,UN,33,kensom,YARIKE,z,,,,,,-0.047777778,-0.414444444,0,0,0,,0,346,346,388,1,,
,,,,,,,,,,,,,,,,,,5d2dbfc01460350001333a97,2020-08-10_16h32.15.687,lexical_decision_task_MP,2020.1.3,MacIntel,60,,m,1,0.59,,,,,,,,0.59,1,,,,,,122,WORD,UN,50,strike,LINGER,m,,,,,,-0.047777778,-0.414444444,0,0,0,,0,347,347,181,1,,
,,,,,,,,,,,,,,,,,,5d2dbfc01460350001333a97,2020-08-10_16h32.15.687,lexical_decision_task_MP,2020.1.3,MacIntel,60,,m,1,0.47,,,,,,,,0.47,1,,,,,,3,WORD,"ID",50,knight,KNIGHT,m,,,,,,-0.047777778,-0.414444444,0,0,0,,0,348,348,62,1,,
,,,,,,,,,,,,,,,,,,5d2dbfc01460350001333a97,2020-08-10_16h32.15.687,lexical_decision_task_MP,2020.1.3,MacIntel,60,,z,1,0.655,,,,,,,,0.655,1,,,,,,322,NW,UN,33,rosail,SLANCH,z,,,,,,-0.047777778,-0.414444444,0,0,0,,0,349,349,381,1,,
,,,,,,,,,,,,,,,,,,5d2dbfc01460350001333a97,2020-08-10_16h32.15.687,lexical_decision_task_MP,2020.1.3,MacIntel,60,,m,1,0.621,,,,,,,,0.621,1,,,,,,7,WORD,"ID",50,anchor,ANCHOR,m,,,,,,-0.047777778,-0.414444444,0,0,0,,0,350,350,66,1,,
,,,,,,,,,,,,,,,,,,5d2dbfc01460350001333a97,2020-08-10_16h32.15.687,lexical_decision_task_MP,2020.1.3,MacIntel,60,,m,1,0.566,,,,,,,,0.566,1,,,,,,214,WORD,"ID",33,intake,INTAKE,m,,,,,,-0.047777778,-0.414444444,0,0,0,,0,351,351,33,1,,
,,,,,,,,,,,,,,,,,,5d2dbfc01460350001333a97,2020-08-10_16h32.15.687,lexical_decision_task_MP,2020.1.3,MacIntel,60,,m,1,0.821,,,,,,,,0.821,1,,,,,,38,WORD,"ID",50,powder,POWDER,m,,,,,,-0.047777778,-0.414444444,0,0,0,,0,352,352,97,1,,
,,,,,,,,,,,,,,,,,,5d2dbfc01460350001333a97,2020-08-10_16h32.15.687,lexical_decision_task_MP,2020.1.3,MacIntel,60,,z,1,0.649,,,,,,,,0.649,1,,,,,,293,NW,"ID",50,swance,SWANCE,z,,,,,,-0.047777778,-0.414444444,0,0,0,,0,353,353,352,1,,
,,,,,,,,,,,,,,,,,,5d2dbfc01460350001333a97,2020-08-10_16h32.15.687,lexical_decision_task_MP,2020.1.3,MacIntel,60,,z,1,0.502,,,,,,,,0.502,1,,,,,,465,NW,"ID",33,whivex,WHIVEX,z,,,,,,-0.047777778,-0.414444444,0,0,0,,0,354,354,284,1,,
,,,,,,,,,,,,,,,,,,5d2dbfc01460350001333a97,2020-08-10_16h32.15.687,lexical_decision_task_MP,2020.1.3,MacIntel,60,,z,1,0.54,,,,,,,,0.54,1,,,,,,317,NW,UN,33,reagly,WORBAL,z,,,,,,-0.047777778,-0.414444444,0,0,0,,0,355,355,376,1,,
,,,,,,,,,,,,,,,,,,5d2dbfc01460350001333a97,2020-08-10_16h32.15.687,lexical_decision_task_MP,2020.1.3,MacIntel,60,,m,1,0.436,,,,,,,,0.436,1,,,,,,64,WORD,UN,33,symbol,THRONE,m,,,,,,-0.047777778,-0.414444444,0,0,0,,0,356,356,123,1,,
,,,,,,,,,,,,,,,,,,5d2dbfc01460350001333a97,2020-08-10_16h32.15.687,lexical_decision_task_MP,2020.1.3,MacIntel,60,,m,1,0.468,,,,,,,,0.468,1,,,,,,195,WORD,"ID",33,resign,RESIGN,m,,,,,,-0.047777778,-0.414444444,0,0,0,,0,357,357,14,1,,
,,,,,,,,,,,,,,,,,,5d2dbfc01460350001333a97,2020-08-10_16h32.15.687,lexical_decision_task_MP,2020.1.3,MacIntel,60,,z,1,0.702,,,,,,,,0.702,1,,,,,,473,NW,"ID",33,crible,CRIBLE,z,,,,,,-0.047777778,-0.414444444,0,0,0,,0,358,358,292,1,,
,,,,,,,,,,,,,,,,,,5d2dbfc01460350001333a97,2020-08-10_16h32.15.687,lexical_decision_task_MP,2020.1.3,MacIntel,60,,m,1,0.684,,,,,,,,0.684,1,,,,,,193,WORD,"ID",33,object,OBJECT,m,,,,,,-0.047777778,-0.414444444,0,0,0,,0,359,359,12,1,,
,,,,,,,,,,,,,,,,,,5d2dbfc01460350001333a97,2020-08-10_16h32.15.687,lexical_decision_task_MP,2020.1.3,MacIntel,60,,z,1,0.668,,,,,,,,0.668,1,,,,,,258,NW,"ID",50,poluth,POLUTH,z,,,,,,-0.047777778,-0.414444444,0,0,0,,0,360,360,317,1,,
,,,,,,,,,,,,,,,,,,5d2dbfc01460350001333a97,2020-08-10_16h32.15.687,lexical_decision_task_MP,2020.1.3,MacIntel,60,,m,1,0.419,,,,,,,,0.419,1,,,,,,51,WORD,"ID",50,hungry,HUNGRY,m,,,,,,-0.047777778,-0.414444444,0,0,0,,0,361,361,110,1,,
,,,,,,,,,,,,,,,,,,5d2dbfc01460350001333a97,2020-08-10_16h32.15.687,lexical_decision_task_MP,2020.1.3,MacIntel,60,,m,1,0.522,,,,,,,,0.522,1,,,,,,13,WORD,"ID",50,strive,STRIVE,m,,,,,,0.065555556,-0.4,1,0,0,,0,362,362,72,1,,break_done_button
,,,,,,,,,,,,,,,,,,5d2dbfc01460350001333a97,2020-08-10_16h32.15.687,lexical_decision_task_MP,2020.1.3,MacIntel,60,,m,1,0.856,,,,,,,,0.856,1,,,,,,71,WORD,UN,33,bright,GARDEN,m,,,,,,0.544444444,0.202222222,0,0,0,,0,363,363,130,1,,
,,,,,,,,,,,,,,,,,,5d2dbfc01460350001333a97,2020-08-10_16h32.15.687,lexical_decision_task_MP,2020.1.3,MacIntel,60,,m,1,0.522,,,,,,,,0.522,1,,,,,,119,WORD,UN,33,strain,SPIDER,m,,,,,,0.544444444,0.202222222,0,0,0,,0,364,364,178,1,,
,,,,,,,,,,,,,,,,,,5d2dbfc01460350001333a97,2020-08-10_16h32.15.687,lexical_decision_task_MP,2020.1.3,MacIntel,60,,z,1,0.69,,,,,,,,0.69,1,,,,,,477,NW,"ID",33,photie,PHOTIE,z,,,,,,0.544444444,0.202222222,0,0,0,,0,365,365,296,1,,
,,,,,,,,,,,,,,,,,,5d2dbfc01460350001333a97,2020-08-10_16h32.15.687,lexical_decision_task_MP,2020.1.3,MacIntel,60,,m,1,0.538,,,,,,,,0.538,1,,,,,,148,WORD,UN,50,invade,CUSTOM,m,,,,,,0.544444444,0.202222222,0,0,0,,0,366,366,207,1,,
,,,,,,,,,,,,,,,,,,5d2dbfc01460350001333a97,2020-08-10_16h32.15.687,lexical_decision_task_MP,2020.1.3,MacIntel,60,,z,0,0.519,,,,,,,,0.519,0,,,,,,45,WORD,"ID",50,clergy,CLERGY,m,,,,,,0.544444444,0.202222222,0,0,0,,0,367,367,104,1,,
,,,,,,,,,,,,,,,,,,5d2dbfc01460350001333a97,2020-08-10_16h32.15.687,lexical_decision_task_MP,2020.1.3,MacIntel,60,,m,1,0.791,,,,,,,,0.791,1,,,,,,184,WORD,"ID",33,sleazy,SLEAZY,m,,,,,,0.544444444,0.202222222,0,0,0,,0,368,368,3,1,,
,,,,,,,,,,,,,,,,,,5d2dbfc01460350001333a97,2020-08-10_16h32.15.687,lexical_decision_task_MP,2020.1.3,MacIntel,60,,z,1,0.968,,,,,,,,0.968,1,,,,,,294,NW,"ID",50,inhort,INHORT,z,,,,,,0.544444444,0.202222222,0,0,0,,0,369,369,353,1,,
,,,,,,,,,,,,,,,,,,5d2dbfc01460350001333a97,2020-08-10_16h32.15.687,lexical_decision_task_MP,2020.1.3,MacIntel,60,,m,0,0.638,,,,,,,,0.638,0,,,,,,402,NW,UN,50,bruats,SYNTIC,z,,,,,,0.544444444,0.202222222,0,0,0,,0,370,370,461,1,,
,,,,,,,,,,,,,,,,,,5d2dbfc01460350001333a97,2020-08-10_16h32.15.687,lexical_decision_task_MP,2020.1.3,MacIntel,60,,z,1,0.587,,,,,,,,0.587,1,,,,,,324,NW,UN,33,thruse,STEIKH,z,,,,,,0.544444444,0.202222222,0,0,0,,0,371,371,383,1,,
,,,,,,,,,,,,,,,,,,5d2dbfc01460350001333a97,2020-08-10_16h32.15.687,lexical_decision_task_MP,2020.1.3,MacIntel,60,,m,1,0.542,,,,,,,,0.542,1,,,,,,181,WORD,"ID",33,glance,GLANCE,m,,,,,,0.544444444,0.202222222,0,0,0,,0,372,372,0,1,,
,,,,,,,,,,,,,,,,,,5d2dbfc01460350001333a97,2020-08-10_16h32.15.687,lexical_decision_task_MP,2020.1.3,MacIntel,60,,m,1,0.656,,,,,,,,0.656,1,,,,,,144,WORD,UN,50,parish,SPONGE,m,,,,,,0.544444444,0.202222222,0,0,0,,0,373,373,203,1,,
,,,,,,,,,,,,,,,,,,5d2dbfc01460350001333a97,2020-08-10_16h32.15.687,lexical_decision_task_MP,2020.1.3,MacIntel,60,,m,1,1.301,,,,,,,,1.301,1,,,,,,39,WORD,"ID",50,insect,INSECT,m,,,,,,0.544444444,0.202222222,0,0,0,,0,374,374,98,1,,
,,,,,,,,,,,,,,,,,,5d2dbfc01460350001333a97,2020-08-10_16h32.15.687,lexical_decision_task_MP,2020.1.3,MacIntel,60,,z,1,0.599,,,,,,,,0.599,1,,,,,,480,NW,"ID",33,robuly,ROBULY,z,,,,,,0.544444444,0.202222222,0,0,0,,0,375,375,299,1,,
,,,,,,,,,,,,,,,,,,5d2dbfc01460350001333a97,2020-08-10_16h32.15.687,lexical_decision_task_MP,2020.1.3,MacIntel,60,,m,1,0.552,,,,,,,,0.552,1,,,,,,145,WORD,UN,50,couple,PARISH,m,,,,,,0.544444444,0.202222222,0,0,0,,0,376,376,204,1,,
,,,,,,,,,,,,,,,,,,5d2dbfc01460350001333a97,2020-08-10_16h32.15.687,lexical_decision_task_MP,2020.1.3,MacIntel,60,,z,1,0.986,,,,,,,,0.986,1,,,,,,275,NW,"ID",50,sleirt,SLEIRT,z,,,,,,0.544444444,0.202222222,0,0,0,,0,377,377,334,1,,
,,,,,,,,,,,,,,,,,,5d2dbfc01460350001333a97,2020-08-10_16h32.15.687,lexical_decision_task_MP,2020.1.3,MacIntel,60,,m,1,1.191,,,,,,,,1.191,1,,,,,,173,WORD,UN,50,turkey,SHOWER,m,,,,,,0.544444444,0.202222222,0,0,0,,0,378,378,232,1,,
,,,,,,,,,,,,,,,,,,5d2dbfc01460350001333a97,2020-08-10_16h32.15.687,lexical_decision_task_MP,2020.1.3,MacIntel,60,,z,1,0.817,,,,,,,,0.817,1,,,,,,321,NW,UN,33,slanch,MIATOR,z,,,,,,0.544444444,0.202222222,0,0,0,,0,379,379,380,1,,
,,,,,,,,,,,,,,,,,,5d2dbfc01460350001333a97,2020-08-10_16h32.15.687,lexical_decision_task_MP,2020.1.3,MacIntel,60,,m,1,0.507,,,,,,,,0.507,1,,,,,,228,WORD,"ID",33,master,MASTER,m,,,,,,0.544444444,0.202222222,0,0,0,,0,380,380,47,1,,
,,,,,,,,,,,,,,,,,,5d2dbfc01460350001333a97,2020-08-10_16h32.15.687,lexical_decision_task_MP,2020.1.3,MacIntel,60,,m,1,0.61,,,,,,,,0.61,1,,,,,,103,WORD,UN,33,studio,BOUNCE,m,,,,,,0.544444444,0.202222222,0,0,0,,0,381,381,162,1,,
,,,,,,,,,,,,,,,,,,5d2dbfc01460350001333a97,2020-08-10_16h32.15.687,lexical_decision_task_MP,2020.1.3,MacIntel,60,,z,1,0.655,,,,,,,,0.655,1,,,,,,263,NW,"ID",50,dolica,DOLICA,z,,,,,,0.544444444,0.202222222,0,0,0,,0,382,382,322,1,,
,,,,,,,,,,,,,,,,,,5d2dbfc01460350001333a97,2020-08-10_16h32.15.687,lexical_decision_task_MP,2020.1.3,MacIntel,60,,m,1,0.489,,,,,,,,0.489,1,,,,,,93,WORD,UN,33,travel,PUBLIC,m,,,,,,0.544444444,0.202222222,0,0,0,,0,383,383,152,1,,
,,,,,,,,,,,,,,,,,,5d2dbfc01460350001333a97,2020-08-10_16h32.15.687,lexical_decision_task_MP,2020.1.3,MacIntel,60,,m,1,0.505,,,,,,,,0.505,1,,,,,,230,WORD,"ID",33,fringe,FRINGE,m,,,,,,0.544444444,0.202222222,0,0,0,,0,384,384,49,1,,
,,,,,,,,,,,,,,,,,,5d2dbfc01460350001333a97,2020-08-10_16h32.15.687,lexical_decision_task_MP,2020.1.3,MacIntel,60,,m,1,0.476,,,,,,,,0.476,1,,,,,,200,WORD,"ID",33,beacon,BEACON,m,,,,,,0.544444444,0.202222222,0,0,0,,0,385,385,19,1,,
,,,,,,,,,,,,,,,,,,5d2dbfc01460350001333a97,2020-08-10_16h32.15.687,lexical_decision_task_MP,2020.1.3,MacIntel,60,,m,1,0.536,,,,,,,,0.536,1,,,,,,218,WORD,"ID",33,shrink,SHRINK,m,,,,,,0.544444444,0.202222222,0,0,0,,0,386,386,37,1,,
,,,,,,,,,,,,,,,,,,5d2dbfc01460350001333a97,2020-08-10_16h32.15.687,lexical_decision_task_MP,2020.1.3,MacIntel,60,,z,1,0.588,,,,,,,,0.588,1,,,,,,351,NW,UN,33,tringe,TIESCH,z,,,,,,0.544444444,0.202222222,0,0,0,,0,387,387,410,1,,
,,,,,,,,,,,,,,,,,,5d2dbfc01460350001333a97,2020-08-10_16h32.15.687,lexical_decision_task_MP,2020.1.3,MacIntel,60,,z,1,0.955,,,,,,,,0.955,1,,,,,,341,NW,UN,33,randow,MYRTIE,z,,,,,,0.544444444,0.202222222,0,0,0,,0,388,388,400,1,,
,,,,,,,,,,,,,,,,,,5d2dbfc01460350001333a97,2020-08-10_16h32.15.687,lexical_decision_task_MP,2020.1.3,MacIntel,60,,z,1,1.887,,,,,,,,1.887,1,,,,,,276,NW,"ID",50,yarmon,YARMON,z,,,,,,0.544444444,0.202222222,0,0,0,,0,389,389,335,1,,
,,,,,,,,,,,,,,,,,,5d2dbfc01460350001333a97,2020-08-10_16h32.15.687,lexical_decision_task_MP,2020.1.3,MacIntel,60,,z,1,1.136,,,,,,,,1.136,1,,,,,,380,NW,UN,50,huniek,CAVORY,z,,,,,,0.544444444,0.202222222,0,0,0,,0,390,390,439,1,,
,,,,,,,,,,,,,,,,,,5d2dbfc01460350001333a97,2020-08-10_16h32.15.687,lexical_decision_task_MP,2020.1.3,MacIntel,60,,z,1,1,,,,,,,,1,1,,,,,,328,NW,UN,33,yarike,BROAKE,z,,,,,,0.544444444,0.202222222,0,0,0,,0,391,391,387,1,,
,,,,,,,,,,,,,,,,,,5d2dbfc01460350001333a97,2020-08-10_16h32.15.687,lexical_decision_task_MP,2020.1.3,MacIntel,60,,z,0,0.366,,,,,,,,0.366,0,,,,,,87,WORD,UN,33,sprawl,FILTER,m,,,,,,0.544444444,0.202222222,0,0,0,,0,392,392,146,1,,
,,,,,,,,,,,,,,,,,,5d2dbfc01460350001333a97,2020-08-10_16h32.15.687,lexical_decision_task_MP,2020.1.3,MacIntel,60,,z,1,0.694,,,,,,,,0.694,1,,,,,,364,NW,UN,50,guairt,IMPOTE,z,,,,,,0.544444444,0.202222222,0,0,0,,0,393,393,423,1,,
,,,,,,,,,,,,,,,,,,5d2dbfc01460350001333a97,2020-08-10_16h32.15.687,lexical_decision_task_MP,2020.1.3,MacIntel,60,,m,0,0.77,,,,,,,,0.77,0,,,,,,357,NW,UN,33,fleack,DERAIN,z,,,,,,0.544444444,0.202222222,0,0,0,,0,394,394,416,1,,
,,,,,,,,,,,,,,,,,,5d2dbfc01460350001333a97,2020-08-10_16h32.15.687,lexical_decision_task_MP,2020.1.3,MacIntel,60,,m,1,0.904,,,,,,,,0.904,1,,,,,,102,WORD,UN,33,bounce,DIRECT,m,,,,,,0.544444444,0.202222222,0,0,0,,0,395,395,161,1,,
,,,,,,,,,,,,,,,,,,5d2dbfc01460350001333a97,2020-08-10_16h32.15.687,lexical_decision_task_MP,2020.1.3,MacIntel,60,,m,1,0.761,,,,,,,,0.761,1,,,,,,18,WORD,"ID",50,humble,HUMBLE,m,,,,,,0.544444444,0.202222222,0,0,0,,0,396,396,77,1,,
,,,,,,,,,,,,,,,,,,5d2dbfc01460350001333a97,2020-08-10_16h32.15.687,lexical_decision_task_MP,2020.1.3,MacIntel,60,,z,1,1.006,,,,,,,,1.006,1,,,,,,458,NW,"ID",33,barcet,BARCET,z,,,,,,0.544444444,0.202222222,0,0,0,,0,397,397,277,1,,
,,,,,,,,,,,,,,,,,,5d2dbfc01460350001333a97,2020-08-10_16h32.15.687,lexical_decision_task_MP,2020.1.3,MacIntel,60,,m,1,0.456,,,,,,,,0.456,1,,,,,,5,WORD,"ID",50,plunge,PLUNGE,m,,,,,,0.544444444,0.202222222,0,0,0,,0,398,398,64,1,,
,,,,,,,,,,,,,,,,,,5d2dbfc01460350001333a97,2020-08-10_16h32.15.687,lexical_decision_task_MP,2020.1.3,MacIntel,60,,z,1,0.584,,,,,,,,0.584,1,,,,,,421,NW,"ID",33,knisma,KNISMA,z,,,,,,0.544444444,0.202222222,0,0,0,,0,399,399,240,1,,
,,,,,,,,,,,,,,,,,,5d2dbfc01460350001333a97,2020-08-10_16h32.15.687,lexical_decision_task_MP,2020.1.3,MacIntel,60,,m,1,0.602,,,,,,,,0.602,1,,,,,,196,WORD,"ID",33,credit,CREDIT,m,,,,,,0.544444444,0.202222222,0,0,0,,0,400,400,15,1,,
,,,,,,,,,,,,,,,,,,5d2dbfc01460350001333a97,2020-08-10_16h32.15.687,lexical_decision_task_MP,2020.1.3,MacIntel,60,,m,1,0.816,,,,,,,,0.816,1,,,,,,212,WORD,"ID",33,verify,VERIFY,m,,,,,,0.544444444,0.202222222,0,0,0,,0,401,401,31,1,,
,,,,,,,,,,,,,,,,,,5d2dbfc01460350001333a97,2020-08-10_16h32.15.687,lexical_decision_task_MP,2020.1.3,MacIntel,60,,z,1,0.638,,,,,,,,0.638,1,,,,,,467,NW,"ID",33,gorbie,GORBIE,z,,,,,,0.544444444,0.202222222,0,0,0,,0,402,402,286,1,,
