counterbalancing_condition,instr_done_keyboard.keys,instr_done_keyboard.rt,instr_done_touch.x,instr_done_touch.y,instr_done_touch.leftButton,instr_done_touch.midButton,instr_done_touch.rightButton,instruction_pages.thisRepN,instruction_pages.thisTrialN,instruction_pages.thisN,instruction_pages.thisIndex,instruction_pages.ran,pageN,phase,instruct_text,has_image,instruct_image,participant,date,expName,psychopyVersion,OS,frameRate,response.keys,response.corr,touch_resp.x,touch_resp.y,touch_resp.leftButton,touch_resp.midButton,touch_resp.rightButton,touch_resp.time,touch_resp.clicked_name,rt,corr,practice_trials.thisRepN,practice_trials.thisTrialN,practice_trials.thisN,practice_trials.thisIndex,practice_trials.ran,TrialID,StimulusType,Condition,PrimeDuration,Prime,Target,corrAns,response.rt,end_of_practice_trials_pages.thisRepN,end_of_practice_trials_pages.thisTrialN,end_of_practice_trials_pages.thisN,end_of_practice_trials_pages.thisIndex,end_of_practice_trials_pages.ran,break_done_touch.x,break_done_touch.y,break_done_touch.leftButton,break_done_touch.midButton,break_done_touch.rightButton,break_done_keyboard.keys,trials.thisRepN,trials.thisTrialN,trials.thisN,trials.thisIndex,trials.ran,break_done_keyboard.rt
3,space,10.4584,0.107407407,-0.142592593,0,0,0,0,0,0,0,1,1,instructions,"INSTRUCTIONS
At the start of each trial, look at the hash marks (######) in the center of the screen. After a moment, a string of letters will appear. Your task is to indicate if the letter string forms a word or not (i.e., if it is a nonword). For example, AUTHOR is a word while AUTHON is a nonword.

Press the space bar or touch the button below to continue.",0,,5d30b98eb8f4a500193ce6c6,2020-08-10_13h44.54.539,lexical_decision_task_MP,2020.1.3,Win32,60,,,,,,,,,,,,,,,,,,,,,,,,,,,,,,,,,,,,,,,,,
,space,0.081915,0.107407407,-0.142592593,0,0,0,0,1,1,1,1,2,instructions,"If your device has a keyboard, press the 'Z' key for nonwords and the 'M' key for words.





Press the space bar or touch the button below to continue.",1,keyboard-example.gif,5d30b98eb8f4a500193ce6c6,2020-08-10_13h44.54.539,lexical_decision_task_MP,2020.1.3,Win32,60,,,,,,,,,,,,,,,,,,,,,,,,,,,,,,,,,,,,,,,,,
,space,6.34109,0.107407407,-0.142592593,0,0,0,0,2,2,2,1,3,instructions,"If you are using a touchscreen only device, use the buttons on the screen. Do not use the mouse.





Press the space bar or touch the button below to continue.",1,touchscreen-example.gif,5d30b98eb8f4a500193ce6c6,2020-08-10_13h44.54.539,lexical_decision_task_MP,2020.1.3,Win32,60,,,,,,,,,,,,,,,,,,,,,,,,,,,,,,,,,,,,,,,,,
,space,10.61788,0.107407407,-0.142592593,0,0,0,0,3,3,3,1,4,instructions,"It is very important that you respond as quickly and accurately as possible, as each letter string will only be on the screen for two seconds. If you do not respond within this time, the message 'Too slow!' will be displayed and the experiment will progress to the next letter string. The first 20 trials will be practice trials and you will receive feedback on your answers. 

Press the space bar or touch the button below to start the practice trials.",0,,5d30b98eb8f4a500193ce6c6,2020-08-10_13h44.54.539,lexical_decision_task_MP,2020.1.3,Win32,60,,,,,,,,,,,,,,,,,,,,,,,,,,,,,,,,,,,,,,,,,
,,,,,,,,,,,,,,,,,,5d30b98eb8f4a500193ce6c6,2020-08-10_13h44.54.539,lexical_decision_task_MP,2020.1.3,Win32,60,,0,,,,,,,,,-1,0,0,0,1,1,1002,WORD,"ID",33,adjust,ADJUST,m,,,,,,,,,,,,,,,,,,
,,,,,,,,,,,,,,,,,,5d30b98eb8f4a500193ce6c6,2020-08-10_13h44.54.539,lexical_decision_task_MP,2020.1.3,Win32,60,,0,,,,,,,,,-1,0,1,1,9,1,1010,NW,"ID",33,fariny,FARINY,z,,,,,,,,,,,,,,,,,,
,,,,,,,,,,,,,,,,,,5d30b98eb8f4a500193ce6c6,2020-08-10_13h44.54.539,lexical_decision_task_MP,2020.1.3,Win32,60,z,1,,,,,,,,1.50319,1,0,2,2,8,1,1009,NW,"ID",33,aslert,ASLERT,z,1.50319,,,,,,,,,,,,,,,,,
,,,,,,,,,,,,,,,,,,5d30b98eb8f4a500193ce6c6,2020-08-10_13h44.54.539,lexical_decision_task_MP,2020.1.3,Win32,60,z,1,,,,,,,,0.831695,1,0,3,3,15,1,1016,NW,UN,50,mushed,WHAISE,z,0.831695,,,,,,,,,,,,,,,,,
,,,,,,,,,,,,,,,,,,5d30b98eb8f4a500193ce6c6,2020-08-10_13h44.54.539,lexical_decision_task_MP,2020.1.3,Win32,60,m,1,,,,,,,,0.580265,1,0,4,4,2,1,1003,WORD,"ID",50,almond,ALMOND,m,0.580265,,,,,,,,,,,,,,,,,
,,,,,,,,,,,,,,,,,,5d30b98eb8f4a500193ce6c6,2020-08-10_13h44.54.539,lexical_decision_task_MP,2020.1.3,Win32,60,z,1,,,,,,,,0.976955,1,0,5,5,10,1,1011,NW,"ID",50,inlade,INLADE,z,0.976955,,,,,,,,,,,,,,,,,
,,,,,,,,,,,,,,,,,,5d30b98eb8f4a500193ce6c6,2020-08-10_13h44.54.539,lexical_decision_task_MP,2020.1.3,Win32,60,m,1,,,,,,,,0.583985,1,0,6,6,3,1,1004,WORD,"ID",50,matrix,MATRIX,m,0.583985,,,,,,,,,,,,,,,,,
,,,,,,,,,,,,,,,,,,5d30b98eb8f4a500193ce6c6,2020-08-10_13h44.54.539,lexical_decision_task_MP,2020.1.3,Win32,60,m,1,,,,,,,,0.54206,1,0,7,7,7,1,1008,WORD,UN,50,hurdle,VOLUME,m,0.54206,,,,,,,,,,,,,,,,,
,,,,,,,,,,,,,,,,,,5d30b98eb8f4a500193ce6c6,2020-08-10_13h44.54.539,lexical_decision_task_MP,2020.1.3,Win32,60,m,1,,,,,,,,0.67006,1,0,8,8,5,1,1006,WORD,UN,33,frenzy,OBTAIN,m,0.67006,,,,,,,,,,,,,,,,,
,,,,,,,,,,,,,,,,,,5d30b98eb8f4a500193ce6c6,2020-08-10_13h44.54.539,lexical_decision_task_MP,2020.1.3,Win32,60,m,1,,,,,,,,0.616135,1,0,9,9,6,1,1007,WORD,UN,50,tropic,ZOMBIE,m,0.616135,,,,,,,,,,,,,,,,,
,,,,,,,,,,,,,,,,,,5d30b98eb8f4a500193ce6c6,2020-08-10_13h44.54.539,lexical_decision_task_MP,2020.1.3,Win32,60,z,1,,,,,,,,0.685645,1,0,10,10,12,1,1013,NW,UN,33,adveil,SPRINY,z,0.685645,,,,,,,,,,,,,,,,,
,,,,,,,,,,,,,,,,,,5d30b98eb8f4a500193ce6c6,2020-08-10_13h44.54.539,lexical_decision_task_MP,2020.1.3,Win32,60,z,1,,,,,,,,0.631255,1,0,11,11,13,1,1014,NW,UN,33,winfer,ROUPET,z,0.631255,,,,,,,,,,,,,,,,,
,,,,,,,,,,,,,,,,,,5d30b98eb8f4a500193ce6c6,2020-08-10_13h44.54.539,lexical_decision_task_MP,2020.1.3,Win32,60,z,1,,,,,,,,0.53925,1,0,12,12,14,1,1015,NW,UN,50,miaber,THRALE,z,0.53925,,,,,,,,,,,,,,,,,
,,,,,,,,,,,,,,,,,,5d30b98eb8f4a500193ce6c6,2020-08-10_13h44.54.539,lexical_decision_task_MP,2020.1.3,Win32,60,m,1,,,,,,,,0.6428,1,0,13,13,4,1,1005,WORD,UN,33,abound,SQUEAK,m,0.6428,,,,,,,,,,,,,,,,,
,,,,,,,,,,,,,,,,,,5d30b98eb8f4a500193ce6c6,2020-08-10_13h44.54.539,lexical_decision_task_MP,2020.1.3,Win32,60,z,1,,,,,,,,0.838975,1,0,14,14,11,1,1012,NW,"ID",50,rashet,RASHET,z,0.838975,,,,,,,,,,,,,,,,,
,,,,,,,,,,,,,,,,,,5d30b98eb8f4a500193ce6c6,2020-08-10_13h44.54.539,lexical_decision_task_MP,2020.1.3,Win32,60,m,1,,,,,,,,0.618935,1,0,15,15,0,1,1001,WORD,"ID",33,utopia,UTOPIA,m,0.618935,,,,,,,,,,,,,,,,,
,space,10.076035,0.107407407,-0.142592593,0,0,0,,,,,,1,end_of_practice,"You have completed the practice trials. During the experimental trials, you will not receive feedback, but it is very important that you respond as quickly and accurately as possible. 
Before you begin, please ensure that you are in a comfortable and quiet location and will not be disturbed for about 15 minutes, as we cannot use your data if you do not complete all the trials. 
There will be opportunities to take breaks at regular intervals during the experiment. When you are ready to start the experimental trials, please press space or touch the button below.",,,5d30b98eb8f4a500193ce6c6,2020-08-10_13h44.54.539,lexical_decision_task_MP,2020.1.3,Win32,60,,,,,,,,,,,,,,,,,,,,,,,,,0,0,0,0,1,,,,,,,,,,,,
,,,,,,,,,,,,,,,,,,5d30b98eb8f4a500193ce6c6,2020-08-10_13h44.54.539,lexical_decision_task_MP,2020.1.3,Win32,60,m,1,,,,,,,,0.848115,1,,,,,,100,WORD,"ID",33,carbon,CARBON,m,0.848115,,,,,,0.107407407,-0.142592593,0,0,0,,0,0,0,39,1,
,,,,,,,,,,,,,,,,,,5d30b98eb8f4a500193ce6c6,2020-08-10_13h44.54.539,lexical_decision_task_MP,2020.1.3,Win32,60,z,1,,,,,,,,0.85634,1,,,,,,473,NW,UN,33,hablin,CRIBLE,z,0.85634,,,,,,0.107407407,-0.142592593,0,0,0,,0,1,1,412,1,
,,,,,,,,,,,,,,,,,,5d30b98eb8f4a500193ce6c6,2020-08-10_13h44.54.539,lexical_decision_task_MP,2020.1.3,Win32,60,m,1,,,,,,,,0.703445,1,,,,,,151,WORD,"ID",50,mystic,MYSTIC,m,0.703445,,,,,,0.107407407,-0.142592593,0,0,0,,0,2,2,90,1,
,,,,,,,,,,,,,,,,,,5d30b98eb8f4a500193ce6c6,2020-08-10_13h44.54.539,lexical_decision_task_MP,2020.1.3,Win32,60,m,1,,,,,,,,0.72425,1,,,,,,181,WORD,UN,33,winter,GLANCE,m,0.72425,,,,,,0.107407407,-0.142592593,0,0,0,,0,3,3,120,1,
,,,,,,,,,,,,,,,,,,5d30b98eb8f4a500193ce6c6,2020-08-10_13h44.54.539,lexical_decision_task_MP,2020.1.3,Win32,60,z,1,,,,,,,,0.585125,1,,,,,,458,NW,UN,33,hocite,BARCET,z,0.585125,,,,,,0.107407407,-0.142592593,0,0,0,,0,4,4,397,1,
,,,,,,,,,,,,,,,,,,5d30b98eb8f4a500193ce6c6,2020-08-10_13h44.54.539,lexical_decision_task_MP,2020.1.3,Win32,60,m,1,,,,,,,,0.506725,1,,,,,,12,WORD,UN,50,strive,ORANGE,m,0.506725,,,,,,0.107407407,-0.142592593,0,0,0,,0,5,5,191,1,
,,,,,,,,,,,,,,,,,,5d30b98eb8f4a500193ce6c6,2020-08-10_13h44.54.539,lexical_decision_task_MP,2020.1.3,Win32,60,z,1,,,,,,,,0.671035,1,,,,,,315,NW,"ID",33,laston,LASTON,z,0.671035,,,,,,0.107407407,-0.142592593,0,0,0,,0,6,6,254,1,
,,,,,,,,,,,,,,,,,,5d30b98eb8f4a500193ce6c6,2020-08-10_13h44.54.539,lexical_decision_task_MP,2020.1.3,Win32,60,z,1,,,,,,,,0.69532,1,,,,,,336,NW,"ID",33,ghodus,GHODUS,z,0.69532,,,,,,0.107407407,-0.142592593,0,0,0,,0,7,7,275,1,
,,,,,,,,,,,,,,,,,,5d30b98eb8f4a500193ce6c6,2020-08-10_13h44.54.539,lexical_decision_task_MP,2020.1.3,Win32,60,m,1,,,,,,,,0.748115,1,,,,,,122,WORD,"ID",50,linger,LINGER,m,0.748115,,,,,,0.107407407,-0.142592593,0,0,0,,0,8,8,61,1,
,,,,,,,,,,,,,,,,,,5d30b98eb8f4a500193ce6c6,2020-08-10_13h44.54.539,lexical_decision_task_MP,2020.1.3,Win32,60,m,1,,,,,,,,0.511855,1,,,,,,201,WORD,UN,33,factor,ADMIRE,m,0.511855,,,,,,0.107407407,-0.142592593,0,0,0,,0,9,9,140,1,
,,,,,,,,,,,,,,,,,,5d30b98eb8f4a500193ce6c6,2020-08-10_13h44.54.539,lexical_decision_task_MP,2020.1.3,Win32,60,m,1,,,,,,,,0.50002,1,,,,,,143,WORD,"ID",50,reason,REASON,m,0.50002,,,,,,0.107407407,-0.142592593,0,0,0,,0,10,10,82,1,
,,,,,,,,,,,,,,,,,,5d30b98eb8f4a500193ce6c6,2020-08-10_13h44.54.539,lexical_decision_task_MP,2020.1.3,Win32,60,m,1,,,,,,,,0.498175,1,,,,,,205,WORD,UN,33,tailor,LOUNGE,m,0.498175,,,,,,0.107407407,-0.142592593,0,0,0,,0,11,11,144,1,
,,,,,,,,,,,,,,,,,,5d30b98eb8f4a500193ce6c6,2020-08-10_13h44.54.539,lexical_decision_task_MP,2020.1.3,Win32,60,z,1,,,,,,,,0.51145,1,,,,,,337,NW,"ID",33,rejols,REJOLS,z,0.51145,,,,,,0.107407407,-0.142592593,0,0,0,,0,12,12,276,1,
,,,,,,,,,,,,,,,,,,5d30b98eb8f4a500193ce6c6,2020-08-10_13h44.54.539,lexical_decision_task_MP,2020.1.3,Win32,60,m,1,,,,,,,,0.50809,1,,,,,,38,WORD,UN,50,insect,POWDER,m,0.50809,,,,,,0.107407407,-0.142592593,0,0,0,,0,13,13,217,1,
,,,,,,,,,,,,,,,,,,5d30b98eb8f4a500193ce6c6,2020-08-10_13h44.54.539,lexical_decision_task_MP,2020.1.3,Win32,60,z,1,,,,,,,,0.6489,1,,,,,,270,NW,UN,50,aubrid,WRIMSY,z,0.6489,,,,,,0.107407407,-0.142592593,0,0,0,,0,14,14,449,1,
,,,,,,,,,,,,,,,,,,5d30b98eb8f4a500193ce6c6,2020-08-10_13h44.54.539,lexical_decision_task_MP,2020.1.3,Win32,60,z,1,,,,,,,,1.049215,1,,,,,,402,NW,"ID",50,syntic,SYNTIC,z,1.049215,,,,,,0.107407407,-0.142592593,0,0,0,,0,15,15,341,1,
,,,,,,,,,,,,,,,,,,5d30b98eb8f4a500193ce6c6,2020-08-10_13h44.54.539,lexical_decision_task_MP,2020.1.3,Win32,60,z,1,,,,,,,,0.68749,1,,,,,,457,NW,UN,33,barcet,WANIGH,z,0.68749,,,,,,0.107407407,-0.142592593,0,0,0,,0,16,16,396,1,
,,,,,,,,,,,,,,,,,,5d30b98eb8f4a500193ce6c6,2020-08-10_13h44.54.539,lexical_decision_task_MP,2020.1.3,Win32,60,z,1,,,,,,,,0.556995,1,,,,,,317,NW,"ID",33,worbal,WORBAL,z,0.556995,,,,,,0.107407407,-0.142592593,0,0,0,,0,17,17,256,1,
,,,,,,,,,,,,,,,,,,5d30b98eb8f4a500193ce6c6,2020-08-10_13h44.54.539,lexical_decision_task_MP,2020.1.3,Win32,60,z,0,,,,,,,,0.64834,0,,,,,,30,WORD,UN,50,weapon,ORIENT,m,0.64834,,,,,,0.107407407,-0.142592593,0,0,0,,0,18,18,209,1,
,,,,,,,,,,,,,,,,,,5d30b98eb8f4a500193ce6c6,2020-08-10_13h44.54.539,lexical_decision_task_MP,2020.1.3,Win32,60,z,1,,,,,,,,1.262715,1,,,,,,266,NW,UN,50,pasink,VARMIT,z,1.262715,,,,,,0.107407407,-0.142592593,0,0,0,,0,19,19,445,1,
,,,,,,,,,,,,,,,,,,5d30b98eb8f4a500193ce6c6,2020-08-10_13h44.54.539,lexical_decision_task_MP,2020.1.3,Win32,60,z,1,,,,,,,,0.589765,1,,,,,,256,NW,UN,50,veniod,INLORS,z,0.589765,,,,,,0.107407407,-0.142592593,0,0,0,,0,20,20,435,1,
,,,,,,,,,,,,,,,,,,5d30b98eb8f4a500193ce6c6,2020-08-10_13h44.54.539,lexical_decision_task_MP,2020.1.3,Win32,60,z,1,,,,,,,,0.63229,1,,,,,,407,NW,"ID",50,suiver,SUIVER,z,0.63229,,,,,,0.107407407,-0.142592593,0,0,0,,0,21,21,346,1,
,,,,,,,,,,,,,,,,,,5d30b98eb8f4a500193ce6c6,2020-08-10_13h44.54.539,lexical_decision_task_MP,2020.1.3,Win32,60,m,1,,,,,,,,0.60715,1,,,,,,206,WORD,UN,33,wreath,TAILOR,m,0.60715,,,,,,0.107407407,-0.142592593,0,0,0,,0,22,22,145,1,
,,,,,,,,,,,,,,,,,,5d30b98eb8f4a500193ce6c6,2020-08-10_13h44.54.539,lexical_decision_task_MP,2020.1.3,Win32,60,m,1,,,,,,,,0.68726,1,,,,,,189,WORD,UN,33,backup,CENSOR,m,0.68726,,,,,,0.107407407,-0.142592593,0,0,0,,0,23,23,128,1,
,,,,,,,,,,,,,,,,,,5d30b98eb8f4a500193ce6c6,2020-08-10_13h44.54.539,lexical_decision_task_MP,2020.1.3,Win32,60,z,1,,,,,,,,0.58995,1,,,,,,453,NW,UN,33,scouge,BOLVIS,z,0.58995,,,,,,0.107407407,-0.142592593,0,0,0,,0,24,24,392,1,
,,,,,,,,,,,,,,,,,,5d30b98eb8f4a500193ce6c6,2020-08-10_13h44.54.539,lexical_decision_task_MP,2020.1.3,Win32,60,z,1,,,,,,,,0.58387,1,,,,,,405,NW,"ID",50,flumni,FLUMNI,z,0.58387,,,,,,0.107407407,-0.142592593,0,0,0,,0,25,25,344,1,
,,,,,,,,,,,,,,,,,,5d30b98eb8f4a500193ce6c6,2020-08-10_13h44.54.539,lexical_decision_task_MP,2020.1.3,Win32,60,z,1,,,,,,,,0.72206,1,,,,,,431,NW,UN,33,lunker,CHRUMS,z,0.72206,,,,,,0.107407407,-0.142592593,0,0,0,,0,26,26,370,1,
,,,,,,,,,,,,,,,,,,5d30b98eb8f4a500193ce6c6,2020-08-10_13h44.54.539,lexical_decision_task_MP,2020.1.3,Win32,60,m,1,,,,,,,,0.837665,1,,,,,,178,WORD,"ID",50,inform,INFORM,m,0.837665,,,,,,0.107407407,-0.142592593,0,0,0,,0,27,27,117,1,
,,,,,,,,,,,,,,,,,,5d30b98eb8f4a500193ce6c6,2020-08-10_13h44.54.539,lexical_decision_task_MP,2020.1.3,Win32,60,m,1,,,,,,,,0.67893,1,,,,,,211,WORD,UN,33,verify,INFECT,m,0.67893,,,,,,0.107407407,-0.142592593,0,0,0,,0,28,28,150,1,
,,,,,,,,,,,,,,,,,,5d30b98eb8f4a500193ce6c6,2020-08-10_13h44.54.539,lexical_decision_task_MP,2020.1.3,Win32,60,m,1,,,,,,,,0.51641,1,,,,,,161,WORD,"ID",50,pastor,PASTOR,m,0.51641,,,,,,0.107407407,-0.142592593,0,0,0,,0,29,29,100,1,
,,,,,,,,,,,,,,,,,,5d30b98eb8f4a500193ce6c6,2020-08-10_13h44.54.539,lexical_decision_task_MP,2020.1.3,Win32,60,m,1,,,,,,,,0.64159,1,,,,,,99,WORD,"ID",33,fluent,FLUENT,m,0.64159,,,,,,0.107407407,-0.142592593,0,0,0,,0,30,30,38,1,
,,,,,,,,,,,,,,,,,,5d30b98eb8f4a500193ce6c6,2020-08-10_13h44.54.539,lexical_decision_task_MP,2020.1.3,Win32,60,m,1,,,,,,,,0.663915,1,,,,,,33,WORD,UN,50,jungle,BUTLER,m,0.663915,,,,,,0.107407407,-0.142592593,0,0,0,,0,31,31,212,1,
,,,,,,,,,,,,,,,,,,5d30b98eb8f4a500193ce6c6,2020-08-10_13h44.54.539,lexical_decision_task_MP,2020.1.3,Win32,60,m,1,,,,,,,,0.52735,1,,,,,,223,WORD,UN,33,period,KIDNEY,m,0.52735,,,,,,0.107407407,-0.142592593,0,0,0,,0,32,32,162,1,
,,,,,,,,,,,,,,,,,,5d30b98eb8f4a500193ce6c6,2020-08-10_13h44.54.539,lexical_decision_task_MP,2020.1.3,Win32,60,z,1,,,,,,,,0.563365,1,,,,,,276,NW,UN,50,petain,YARMON,z,0.563365,,,,,,0.107407407,-0.142592593,0,0,0,,0,33,33,455,1,
,,,,,,,,,,,,,,,,,,5d30b98eb8f4a500193ce6c6,2020-08-10_13h44.54.539,lexical_decision_task_MP,2020.1.3,Win32,60,z,1,,,,,,,,0.6302,1,,,,,,454,NW,UN,33,tondle,SCOUGE,z,0.6302,,,,,,0.107407407,-0.142592593,0,0,0,,0,34,34,393,1,
,,,,,,,,,,,,,,,,,,5d30b98eb8f4a500193ce6c6,2020-08-10_13h44.54.539,lexical_decision_task_MP,2020.1.3,Win32,60,m,1,,,,,,,,0.541195,1,,,,,,18,WORD,UN,50,patron,HUMBLE,m,0.541195,,,,,,0.107407407,-0.142592593,0,0,0,,0,35,35,197,1,
,,,,,,,,,,,,,,,,,,5d30b98eb8f4a500193ce6c6,2020-08-10_13h44.54.539,lexical_decision_task_MP,2020.1.3,Win32,60,z,1,,,,,,,,0.62615,1,,,,,,283,NW,UN,50,shaple,VERALF,z,0.62615,,,,,,0.107407407,-0.142592593,0,0,0,,0,36,36,462,1,
,,,,,,,,,,,,,,,,,,5d30b98eb8f4a500193ce6c6,2020-08-10_13h44.54.539,lexical_decision_task_MP,2020.1.3,Win32,60,m,1,,,,,,,,0.71378,1,,,,,,157,WORD,"ID",50,dragon,DRAGON,m,0.71378,,,,,,0.107407407,-0.142592593,0,0,0,,0,37,37,96,1,
,,,,,,,,,,,,,,,,,,5d30b98eb8f4a500193ce6c6,2020-08-10_13h44.54.539,lexical_decision_task_MP,2020.1.3,Win32,60,z,1,,,,,,,,0.583475,1,,,,,,426,NW,UN,33,schind,URIVEL,z,0.583475,,,,,,0.107407407,-0.142592593,0,0,0,,0,38,38,365,1,
,,,,,,,,,,,,,,,,,,5d30b98eb8f4a500193ce6c6,2020-08-10_13h44.54.539,lexical_decision_task_MP,2020.1.3,Win32,60,m,1,,,,,,,,0.5689,1,,,,,,187,WORD,UN,33,social,COURSE,m,0.5689,,,,,,0.107407407,-0.142592593,0,0,0,,0,39,39,126,1,
,,,,,,,,,,,,,,,,,,5d30b98eb8f4a500193ce6c6,2020-08-10_13h44.54.539,lexical_decision_task_MP,2020.1.3,Win32,60,z,0,,,,,,,,0.53997,0,,,,,,42,WORD,UN,50,tongue,CHAPEL,m,0.53997,,,,,,0.107407407,-0.142592593,0,0,0,,0,40,40,221,1,
,,,,,,,,,,,,,,,,,,5d30b98eb8f4a500193ce6c6,2020-08-10_13h44.54.539,lexical_decision_task_MP,2020.1.3,Win32,60,m,1,,,,,,,,0.808505,1,,,,,,66,WORD,"ID",33,gospel,GOSPEL,m,0.808505,,,,,,0.107407407,-0.142592593,0,0,0,,0,41,41,5,1,
,,,,,,,,,,,,,,,,,,5d30b98eb8f4a500193ce6c6,2020-08-10_13h44.54.539,lexical_decision_task_MP,2020.1.3,Win32,60,m,1,,,,,,,,0.7125,1,,,,,,35,WORD,UN,50,vanish,SOCKET,m,0.7125,,,,,,0.107407407,-0.142592593,0,0,0,,0,42,42,214,1,
,,,,,,,,,,,,,,,,,,5d30b98eb8f4a500193ce6c6,2020-08-10_13h44.54.539,lexical_decision_task_MP,2020.1.3,Win32,60,z,1,,,,,,,,0.60535,1,,,,,,385,NW,"ID",50,veigma,VEIGMA,z,0.60535,,,,,,0.107407407,-0.142592593,0,0,0,,0,43,43,324,1,
,,,,,,,,,,,,,,,,,,5d30b98eb8f4a500193ce6c6,2020-08-10_13h44.54.539,lexical_decision_task_MP,2020.1.3,Win32,60,m,1,,,,,,,,0.62249,1,,,,,,16,WORD,UN,50,charge,FAUCET,m,0.62249,,,,,,0.107407407,-0.142592593,0,0,0,,0,44,44,195,1,
,,,,,,,,,,,,,,,,,,5d30b98eb8f4a500193ce6c6,2020-08-10_13h44.54.539,lexical_decision_task_MP,2020.1.3,Win32,60,z,1,,,,,,,,0.695795,1,,,,,,265,NW,UN,50,varmit,DISTAR,z,0.695795,,,,,,0.107407407,-0.142592593,0,0,0,,0,45,45,444,1,
,,,,,,,,,,,,,,,,,,5d30b98eb8f4a500193ce6c6,2020-08-10_13h44.54.539,lexical_decision_task_MP,2020.1.3,Win32,60,m,1,,,,,,,,0.6291,1,,,,,,164,WORD,"ID",50,market,MARKET,m,0.6291,,,,,,0.107407407,-0.142592593,0,0,0,,0,46,46,103,1,
,,,,,,,,,,,,,,,,,,5d30b98eb8f4a500193ce6c6,2020-08-10_13h44.54.539,lexical_decision_task_MP,2020.1.3,Win32,60,m,1,,,,,,,,1.092575,1,,,,,,231,WORD,UN,33,inject,EXPORT,m,1.092575,,,,,,0.107407407,-0.142592593,0,0,0,,0,47,47,170,1,
,,,,,,,,,,,,,,,,,,5d30b98eb8f4a500193ce6c6,2020-08-10_13h44.54.539,lexical_decision_task_MP,2020.1.3,Win32,60,m,1,,,,,,,,0.51665,1,,,,,,221,WORD,UN,33,hinder,MASCOT,m,0.51665,,,,,,0.107407407,-0.142592593,0,0,0,,0,48,48,160,1,
,,,,,,,,,,,,,,,,,,5d30b98eb8f4a500193ce6c6,2020-08-10_13h44.54.539,lexical_decision_task_MP,2020.1.3,Win32,60,m,1,,,,,,,,0.47931,1,,,,,,155,WORD,"ID",50,lizard,LIZARD,m,0.47931,,,,,,0.107407407,-0.142592593,0,0,0,,0,49,49,94,1,
,,,,,,,,,,,,,,,,,,5d30b98eb8f4a500193ce6c6,2020-08-10_13h44.54.539,lexical_decision_task_MP,2020.1.3,Win32,60,m,1,,,,,,,,0.50884,1,,,,,,220,WORD,UN,33,mascot,VOYAGE,m,0.50884,,,,,,0.107407407,-0.142592593,0,0,0,,0,50,50,159,1,
,,,,,,,,,,,,,,,,,,5d30b98eb8f4a500193ce6c6,2020-08-10_13h44.54.539,lexical_decision_task_MP,2020.1.3,Win32,60,m,1,,,,,,,,0.570015,1,,,,,,13,WORD,UN,50,almost,STRIVE,m,0.570015,,,,,,0.107407407,-0.142592593,0,0,0,,0,51,51,192,1,
,,,,,,,,,,,,,,,,,,5d30b98eb8f4a500193ce6c6,2020-08-10_13h44.54.539,lexical_decision_task_MP,2020.1.3,Win32,60,z,1,,,,,,,,0.628765,1,,,,,,394,NW,"ID",50,spaqux,SPAQUX,z,0.628765,,,,,,0.107407407,-0.142592593,0,0,0,,0,52,52,333,1,
,,,,,,,,,,,,,,,,,,5d30b98eb8f4a500193ce6c6,2020-08-10_13h44.54.539,lexical_decision_task_MP,2020.1.3,Win32,60,z,1,,,,,,,,0.787565,1,,,,,,343,NW,"ID",33,aimosy,AIMOSY,z,0.787565,,,,,,0.107407407,-0.142592593,0,0,0,,0,53,53,282,1,
,,,,,,,,,,,,,,,,,,5d30b98eb8f4a500193ce6c6,2020-08-10_13h44.54.539,lexical_decision_task_MP,2020.1.3,Win32,60,m,1,,,,,,,,0.50446,1,,,,,,103,WORD,"ID",33,bounce,BOUNCE,m,0.50446,,,,,,0.107407407,-0.142592593,0,0,0,,0,54,54,42,1,
,,,,,,,,,,,,,,,,,,5d30b98eb8f4a500193ce6c6,2020-08-10_13h44.54.539,lexical_decision_task_MP,2020.1.3,Win32,60,m,0,,,,,,,,0.611615,0,,,,,,285,NW,UN,50,reldon,PRUDGE,z,0.611615,,,,,,0.107407407,-0.142592593,0,0,0,,0,55,55,464,1,
,,,,,,,,,,,,,,,,,,5d30b98eb8f4a500193ce6c6,2020-08-10_13h44.54.539,lexical_decision_task_MP,2020.1.3,Win32,60,z,1,,,,,,,,0.804855,1,,,,,,244,NW,UN,50,anougs,EATRIC,z,0.804855,,,,,,0.107407407,-0.142592593,0,0,0,,0,56,56,423,1,
,,,,,,,,,,,,,,,,,,5d30b98eb8f4a500193ce6c6,2020-08-10_13h44.54.539,lexical_decision_task_MP,2020.1.3,Win32,60,m,1,,,,,,,,0.50978,1,,,,,,121,WORD,"ID",50,thrive,THRIVE,m,0.50978,,,,,,0.107407407,-0.142592593,0,0,0,,0,57,57,60,1,
,,,,,,,,,,,,,,,,,,5d30b98eb8f4a500193ce6c6,2020-08-10_13h44.54.539,lexical_decision_task_MP,2020.1.3,Win32,60,z,0,,,,,,,,0.619165,0,,,,,,85,WORD,"ID",33,sprawl,SPRAWL,m,0.619165,,,,,,0.107407407,-0.142592593,0,0,0,,0,58,58,24,1,
,,,,,,,,,,,,,,,,,,5d30b98eb8f4a500193ce6c6,2020-08-10_13h44.54.539,lexical_decision_task_MP,2020.1.3,Win32,60,m,1,,,,,,,,0.652005,1,,,,,,199,WORD,UN,33,plague,INVOKE,m,0.652005,,,,,,0.107407407,-0.142592593,0,0,0,,0,59,59,138,1,
,,,,,,,,,,,,,,,,,,5d30b98eb8f4a500193ce6c6,2020-08-10_13h44.54.539,lexical_decision_task_MP,2020.1.3,Win32,60,m,1,,,,,,,,0.55647,1,,,,,,97,WORD,"ID",33,client,CLIENT,m,0.55647,,,,,,0.107407407,-0.142592593,0,0,0,,0,60,60,36,1,
,,,,,,,,,,,,,,,,,,5d30b98eb8f4a500193ce6c6,2020-08-10_13h44.54.539,lexical_decision_task_MP,2020.1.3,Win32,60,m,1,,,,,,,,0.550785,1,,,,,,141,WORD,"ID",50,orphan,ORPHAN,m,0.550785,,,,,,0.107407407,-0.142592593,0,0,0,,0,61,61,80,1,
,,,,,,,,,,,,,,,,,,5d30b98eb8f4a500193ce6c6,2020-08-10_13h44.54.539,lexical_decision_task_MP,2020.1.3,Win32,60,z,1,,,,,,,,0.62582,1,,,,,,288,NW,UN,50,starby,YACEUP,z,0.62582,,,,,,0.107407407,-0.142592593,0,0,0,,0,62,62,467,1,
,,,,,,,,,,,,,,,,,,5d30b98eb8f4a500193ce6c6,2020-08-10_13h44.54.539,lexical_decision_task_MP,2020.1.3,Win32,60,m,1,,,,,,,,0.5941,1,,,,,,166,WORD,"ID",50,starch,STARCH,m,0.5941,,,,,,0.107407407,-0.142592593,0,0,0,,0,63,63,105,1,
,,,,,,,,,,,,,,,,,,5d30b98eb8f4a500193ce6c6,2020-08-10_13h44.54.539,lexical_decision_task_MP,2020.1.3,Win32,60,m,1,,,,,,,,0.62647,1,,,,,,95,WORD,"ID",33,thread,THREAD,m,0.62647,,,,,,0.107407407,-0.142592593,0,0,0,,0,64,64,34,1,
,,,,,,,,,,,,,,,,,,5d30b98eb8f4a500193ce6c6,2020-08-10_13h44.54.539,lexical_decision_task_MP,2020.1.3,Win32,60,z,1,,,,,,,,0.62768,1,,,,,,428,NW,UN,33,funtle,TANDLY,z,0.62768,,,,,,0.107407407,-0.142592593,0,0,0,,0,65,65,367,1,
,,,,,,,,,,,,,,,,,,5d30b98eb8f4a500193ce6c6,2020-08-10_13h44.54.539,lexical_decision_task_MP,2020.1.3,Win32,60,z,1,,,,,,,,0.549225,1,,,,,,311,NW,"ID",33,sproly,SPROLY,z,0.549225,,,,,,0.107407407,-0.142592593,0,0,0,,0,66,66,250,1,
,,,,,,,,,,,,,,,,,,5d30b98eb8f4a500193ce6c6,2020-08-10_13h44.54.539,lexical_decision_task_MP,2020.1.3,Win32,60,z,1,,,,,,,,0.54421,1,,,,,,414,NW,"ID",50,serbol,SERBOL,z,0.54421,,,,,,0.107407407,-0.142592593,0,0,0,,0,67,67,353,1,
,,,,,,,,,,,,,,,,,,5d30b98eb8f4a500193ce6c6,2020-08-10_13h44.54.539,lexical_decision_task_MP,2020.1.3,Win32,60,z,0,,,,,,,,0.51538,0,,,,,,34,WORD,UN,50,socket,JUNGLE,m,0.51538,,,,,,0.107407407,-0.142592593,0,0,0,,0,68,68,213,1,
,,,,,,,,,,,,,,,,,,5d30b98eb8f4a500193ce6c6,2020-08-10_13h44.54.539,lexical_decision_task_MP,2020.1.3,Win32,60,z,1,,,,,,,,0.632155,1,,,,,,404,NW,"ID",50,cluirm,CLUIRM,z,0.632155,,,,,,0.107407407,-0.142592593,0,0,0,,0,69,69,343,1,
,,,,,,,,,,,,,,,,,,5d30b98eb8f4a500193ce6c6,2020-08-10_13h44.54.539,lexical_decision_task_MP,2020.1.3,Win32,60,m,1,,,,,,,,0.671275,1,,,,,,31,WORD,UN,50,buckle,WEAPON,m,0.671275,,,,,,0.107407407,-0.142592593,0,0,0,,0,70,70,210,1,
,,,,,,,,,,,,,,,,,,5d30b98eb8f4a500193ce6c6,2020-08-10_13h44.54.539,lexical_decision_task_MP,2020.1.3,Win32,60,z,1,,,,,,,,0.638675,1,,,,,,326,NW,"ID",33,iguade,IGUADE,z,0.638675,,,,,,0.107407407,-0.142592593,0,0,0,,0,71,71,265,1,
,,,,,,,,,,,,,,,,,,5d30b98eb8f4a500193ce6c6,2020-08-10_13h44.54.539,lexical_decision_task_MP,2020.1.3,Win32,60,m,1,,,,,,,,0.58958,1,,,,,,130,WORD,"ID",50,stupid,STUPID,m,0.58958,,,,,,0.107407407,-0.142592593,0,0,0,,0,72,72,69,1,
,,,,,,,,,,,,,,,,,,5d30b98eb8f4a500193ce6c6,2020-08-10_13h44.54.539,lexical_decision_task_MP,2020.1.3,Win32,60,m,1,,,,,,,,0.638335,1,,,,,,192,WORD,UN,33,object,PLAGUE,m,0.638335,,,,,,0.107407407,-0.142592593,0,0,0,,0,73,73,131,1,
,,,,,,,,,,,,,,,,,,5d30b98eb8f4a500193ce6c6,2020-08-10_13h44.54.539,lexical_decision_task_MP,2020.1.3,Win32,60,m,1,,,,,,,,0.5911,1,,,,,,228,WORD,UN,33,kidney,MASTER,m,0.5911,,,,,,0.107407407,-0.142592593,0,0,0,,0,74,74,167,1,
,,,,,,,,,,,,,,,,,,5d30b98eb8f4a500193ce6c6,2020-08-10_13h44.54.539,lexical_decision_task_MP,2020.1.3,Win32,60,z,1,,,,,,,,0.529645,1,,,,,,333,NW,"ID",33,catrie,CATRIE,z,0.529645,,,,,,0.107407407,-0.142592593,0,0,0,,0,75,75,272,1,
,,,,,,,,,,,,,,,,,,5d30b98eb8f4a500193ce6c6,2020-08-10_13h44.54.539,lexical_decision_task_MP,2020.1.3,Win32,60,m,1,,,,,,,,0.58246,1,,,,,,133,WORD,"ID",50,chrome,CHROME,m,0.58246,,,,,,0.107407407,-0.142592593,0,0,0,,0,76,76,72,1,
,,,,,,,,,,,,,,,,,,5d30b98eb8f4a500193ce6c6,2020-08-10_13h44.54.539,lexical_decision_task_MP,2020.1.3,Win32,60,z,1,,,,,,,,0.70307,1,,,,,,292,NW,UN,50,swance,ABLINT,z,0.70307,,,,,,0.107407407,-0.142592593,0,0,0,,0,77,77,471,1,
,,,,,,,,,,,,,,,,,,5d30b98eb8f4a500193ce6c6,2020-08-10_13h44.54.539,lexical_decision_task_MP,2020.1.3,Win32,60,m,1,,,,,,,,0.70885,1,,,,,,71,WORD,"ID",33,garden,GARDEN,m,0.70885,,,,,,0.107407407,-0.142592593,0,0,0,,0,78,78,10,1,
,,,,,,,,,,,,,,,,,,5d30b98eb8f4a500193ce6c6,2020-08-10_13h44.54.539,lexical_decision_task_MP,2020.1.3,Win32,60,z,1,,,,,,,,0.63455,1,,,,,,456,NW,UN,33,wanigh,BROGET,z,0.63455,,,,,,0.107407407,-0.142592593,0,0,0,,0,79,79,395,1,
,,,,,,,,,,,,,,,,,,5d30b98eb8f4a500193ce6c6,2020-08-10_13h44.54.539,lexical_decision_task_MP,2020.1.3,Win32,60,z,1,,,,,,,,0.657215,1,,,,,,464,NW,UN,33,whivex,CHAITE,z,0.657215,,,,,,0.107407407,-0.142592593,0,0,0,,0,80,80,403,1,
,,,,,,,,,,,,,,,,,,5d30b98eb8f4a500193ce6c6,2020-08-10_13h44.54.539,lexical_decision_task_MP,2020.1.3,Win32,60,m,1,,,,,,,,0.761305,1,,,,,,203,WORD,UN,33,burden,PHRASE,m,0.761305,,,,,,0.107407407,-0.142592593,0,0,0,,0,81,81,142,1,
,,,,,,,,,,,,,,,,,,5d30b98eb8f4a500193ce6c6,2020-08-10_13h44.54.539,lexical_decision_task_MP,2020.1.3,Win32,60,m,1,,,,,,,,0.62038,1,,,,,,40,WORD,UN,50,spring,CONVEY,m,0.62038,,,,,,0.107407407,-0.142592593,0,0,0,,0,82,82,219,1,
,,,,,,,,,,,,,,,,,,5d30b98eb8f4a500193ce6c6,2020-08-10_13h44.54.539,lexical_decision_task_MP,2020.1.3,Win32,60,z,1,,,,,,,,0.724125,1,,,,,,461,NW,UN,33,absult,JUSTRE,z,0.724125,,,,,,0.107407407,-0.142592593,0,0,0,,0,83,83,400,1,
,,,,,,,,,,,,,,,,,,5d30b98eb8f4a500193ce6c6,2020-08-10_13h44.54.539,lexical_decision_task_MP,2020.1.3,Win32,60,z,1,,,,,,,,0.68986,1,,,,,,321,NW,"ID",33,miator,MIATOR,z,0.68986,,,,,,0.107407407,-0.142592593,0,0,0,,0,84,84,260,1,
,,,,,,,,,,,,,,,,,,5d30b98eb8f4a500193ce6c6,2020-08-10_13h44.54.539,lexical_decision_task_MP,2020.1.3,Win32,60,z,1,,,,,,,,0.69514,1,,,,,,307,NW,"ID",33,kirafe,KIRAFE,z,0.69514,,,,,,0.107407407,-0.142592593,0,0,0,,0,85,85,246,1,
,,,,,,,,,,,,,,,,,,5d30b98eb8f4a500193ce6c6,2020-08-10_13h44.54.539,lexical_decision_task_MP,2020.1.3,Win32,60,m,1,,,,,,,,0.69423,1,,,,,,169,WORD,"ID",50,genius,GENIUS,m,0.69423,,,,,,0.107407407,-0.142592593,0,0,0,,0,86,86,108,1,
,,,,,,,,,,,,,,,,,,5d30b98eb8f4a500193ce6c6,2020-08-10_13h44.54.539,lexical_decision_task_MP,2020.1.3,Win32,60,m,1,,,,,,,,0.67429,1,,,,,,170,WORD,"ID",50,pounce,POUNCE,m,0.67429,,,,,,0.107407407,-0.142592593,0,0,0,,0,87,87,109,1,
,,,,,,,,,,,,,,,,,,5d30b98eb8f4a500193ce6c6,2020-08-10_13h44.54.539,lexical_decision_task_MP,2020.1.3,Win32,60,m,1,,,,,,,,0.576715,1,,,,,,75,WORD,"ID",33,trophy,TROPHY,m,0.576715,,,,,,0.107407407,-0.142592593,0,0,0,,0,88,88,14,1,
,,,,,,,,,,,,,,,,,,5d30b98eb8f4a500193ce6c6,2020-08-10_13h44.54.539,lexical_decision_task_MP,2020.1.3,Win32,60,m,1,,,,,,,,0.587955,1,,,,,,197,WORD,UN,33,wicked,STREAM,m,0.587955,,,,,,0.107407407,-0.142592593,0,0,0,,0,89,89,136,1,
,,,,,,,,,,,,,,,,,,5d30b98eb8f4a500193ce6c6,2020-08-10_13h44.54.539,lexical_decision_task_MP,2020.1.3,Win32,60,z,1,,,,,,,,0.822295,1,,,,,,437,NW,UN,33,baitch,SNAPEL,z,0.822295,,,,,,0.107407407,-0.142592593,0,0,0,,0,90,90,376,1,
,,,,,,,,,,,,,,,,,,5d30b98eb8f4a500193ce6c6,2020-08-10_13h44.54.539,lexical_decision_task_MP,2020.1.3,Win32,60,z,1,,,,,,,,0.58257,1,,,,,,327,NW,"ID",33,plenac,PLENAC,z,0.58257,,,,,,0.107407407,-0.142592593,0,0,0,,0,91,91,266,1,
,,,,,,,,,,,,,,,,,,5d30b98eb8f4a500193ce6c6,2020-08-10_13h44.54.539,lexical_decision_task_MP,2020.1.3,Win32,60,m,1,,,,,,,,0.64905,1,,,,,,217,WORD,UN,33,shrink,LIQUOR,m,0.64905,,,,,,0.107407407,-0.142592593,0,0,0,,0,92,92,156,1,
,,,,,,,,,,,,,,,,,,5d30b98eb8f4a500193ce6c6,2020-08-10_13h44.54.539,lexical_decision_task_MP,2020.1.3,Win32,60,z,1,,,,,,,,0.560035,1,,,,,,335,NW,"ID",33,desion,DESION,z,0.560035,,,,,,0.107407407,-0.142592593,0,0,0,,0,93,93,274,1,
,,,,,,,,,,,,,,,,,,5d30b98eb8f4a500193ce6c6,2020-08-10_13h44.54.539,lexical_decision_task_MP,2020.1.3,Win32,60,z,1,,,,,,,,0.58062,1,,,,,,459,NW,UN,33,mingar,BAFENT,z,0.58062,,,,,,0.107407407,-0.142592593,0,0,0,,0,94,94,398,1,
,,,,,,,,,,,,,,,,,,5d30b98eb8f4a500193ce6c6,2020-08-10_13h44.54.539,lexical_decision_task_MP,2020.1.3,Win32,60,z,1,,,,,,,,0.51872,1,,,,,,444,NW,UN,33,minkel,JAUNCE,z,0.51872,,,,,,0.107407407,-0.142592593,0,0,0,,0,95,95,383,1,
,,,,,,,,,,,,,,,,,,5d30b98eb8f4a500193ce6c6,2020-08-10_13h44.54.539,lexical_decision_task_MP,2020.1.3,Win32,60,m,0,,,,,,,,0.556305,0,,,,,,438,NW,UN,33,limpor,BAITCH,z,0.556305,,,,,,0.107407407,-0.142592593,0,0,0,,0,96,96,377,1,
,,,,,,,,,,,,,,,,,,5d30b98eb8f4a500193ce6c6,2020-08-10_13h44.54.539,lexical_decision_task_MP,2020.1.3,Win32,60,z,1,,,,,,,,0.870815,1,,,,,,368,NW,"ID",50,hornal,HORNAL,z,0.870815,,,,,,0.107407407,-0.142592593,0,0,0,,0,97,97,307,1,
,,,,,,,,,,,,,,,,,,5d30b98eb8f4a500193ce6c6,2020-08-10_13h44.54.539,lexical_decision_task_MP,2020.1.3,Win32,60,z,1,,,,,,,,0.700105,1,,,,,,382,NW,"ID",50,sarley,SARLEY,z,0.700105,,,,,,0.107407407,-0.142592593,0,0,0,,0,98,98,321,1,
,,,,,,,,,,,,,,,,,,5d30b98eb8f4a500193ce6c6,2020-08-10_13h44.54.539,lexical_decision_task_MP,2020.1.3,Win32,60,m,1,,,,,,,,0.649185,1,,,,,,102,WORD,"ID",33,direct,DIRECT,m,0.649185,,,,,,0.107407407,-0.142592593,0,0,0,,0,99,99,41,1,
,,,,,,,,,,,,,,,,,,5d30b98eb8f4a500193ce6c6,2020-08-10_13h44.54.539,lexical_decision_task_MP,2020.1.3,Win32,60,m,1,,,,,,,,0.529325,1,,,,,,65,WORD,"ID",33,symbol,SYMBOL,m,0.529325,,,,,,0.107407407,-0.142592593,0,0,0,,0,100,100,4,1,
,,,,,,,,,,,,,,,,,,5d30b98eb8f4a500193ce6c6,2020-08-10_13h44.54.539,lexical_decision_task_MP,2020.1.3,Win32,60,m,1,,,,,,,,0.58345,1,,,,,,150,WORD,"ID",50,random,RANDOM,m,0.58345,,,,,,0.107407407,-0.142592593,0,0,0,,0,101,101,89,1,
,,,,,,,,,,,,,,,,,,5d30b98eb8f4a500193ce6c6,2020-08-10_13h44.54.539,lexical_decision_task_MP,2020.1.3,Win32,60,m,1,,,,,,,,0.806695,1,,,,,,129,WORD,"ID",50,marvel,MARVEL,m,0.806695,,,,,,0.107407407,-0.142592593,0,0,0,,0,102,102,68,1,
,,,,,,,,,,,,,,,,,,5d30b98eb8f4a500193ce6c6,2020-08-10_13h44.54.539,lexical_decision_task_MP,2020.1.3,Win32,60,z,1,,,,,,,,0.799955,1,,,,,,243,NW,UN,50,eatric,MUSIED,z,0.799955,,,,,,0.107407407,-0.142592593,0,0,0,,0,103,103,422,1,
,,,,,,,,,,,,,,,,,,5d30b98eb8f4a500193ce6c6,2020-08-10_13h44.54.539,lexical_decision_task_MP,2020.1.3,Win32,60,m,1,,,,,,,,0.601685,1,,,,,,234,WORD,UN,33,poster,CLUMSY,m,0.601685,,,,,,0.107407407,-0.142592593,0,0,0,,0,104,104,173,1,
,,,,,,,,,,,,,,,,,,5d30b98eb8f4a500193ce6c6,2020-08-10_13h44.54.539,lexical_decision_task_MP,2020.1.3,Win32,60,z,1,,,,,,,,0.71244,1,,,,,,420,NW,"ID",50,gushop,GUSHOP,z,0.71244,,,,,,0.107407407,-0.142592593,0,0,0,,0,105,105,359,1,
,,,,,,,,,,,,,,,,,,5d30b98eb8f4a500193ce6c6,2020-08-10_13h44.54.539,lexical_decision_task_MP,2020.1.3,Win32,60,z,1,,,,,,,,0.646545,1,,,,,,401,NW,"ID",50,mustil,MUSTIL,z,0.646545,,,,,,0.107407407,-0.142592593,0,0,0,,0,106,106,340,1,
,,,,,,,,,,,,,,,,,,5d30b98eb8f4a500193ce6c6,2020-08-10_13h44.54.539,lexical_decision_task_MP,2020.1.3,Win32,60,z,1,,,,,,,,0.693405,1,,,,,,247,NW,UN,50,strole,BLARGE,z,0.693405,,,,,,0.107407407,-0.142592593,0,0,0,,0,107,107,426,1,
,,,,,,,,,,,,,,,,,,5d30b98eb8f4a500193ce6c6,2020-08-10_13h44.54.539,lexical_decision_task_MP,2020.1.3,Win32,60,m,1,,,,,,,,0.883755,1,,,,,,222,WORD,UN,33,export,HINDER,m,0.883755,,,,,,0.107407407,-0.142592593,0,0,0,,0,108,108,161,1,
,,,,,,,,,,,,,,,,,,5d30b98eb8f4a500193ce6c6,2020-08-10_13h44.54.539,lexical_decision_task_MP,2020.1.3,Win32,60,m,1,,,,,,,,0.667,1,,,,,,52,WORD,UN,50,police,IMPOSE,m,0.667,,,,,,0.107407407,-0.142592593,0,0,0,,0,109,109,231,1,
,,,,,,,,,,,,,,,,,,5d30b98eb8f4a500193ce6c6,2020-08-10_13h44.54.539,lexical_decision_task_MP,2020.1.3,Win32,60,m,1,,,,,,,,0.58365,1,,,,,,112,WORD,"ID",33,breath,BREATH,m,0.58365,,,,,,0.107407407,-0.142592593,0,0,0,,0,110,110,51,1,
,,,,,,,,,,,,,,,,,,5d30b98eb8f4a500193ce6c6,2020-08-10_13h44.54.539,lexical_decision_task_MP,2020.1.3,Win32,60,m,1,,,,,,,,0.569265,1,,,,,,148,WORD,"ID",50,custom,CUSTOM,m,0.569265,,,,,,0.107407407,-0.142592593,0,0,0,,0,111,111,87,1,
,,,,,,,,,,,,,,,,,,5d30b98eb8f4a500193ce6c6,2020-08-10_13h44.54.539,lexical_decision_task_MP,2020.1.3,Win32,60,z,1,,,,,,,,0.754975,1,,,,,,295,NW,UN,50,beinch,GLEATH,z,0.754975,,,,,,0.107407407,-0.142592593,0,0,0,,0,112,112,474,1,
,,,,,,,,,,,,,,,,,,5d30b98eb8f4a500193ce6c6,2020-08-10_13h44.54.539,lexical_decision_task_MP,2020.1.3,Win32,60,z,1,,,,,,,,0.559015,1,,,,,,286,NW,UN,50,nymbel,RELDON,z,0.559015,,,,,,0.107407407,-0.142592593,0,0,0,,0,113,113,465,1,
,,,,,,,,,,,,,,,,,,5d30b98eb8f4a500193ce6c6,2020-08-10_13h44.54.539,lexical_decision_task_MP,2020.1.3,Win32,60,m,1,,,,,,,,0.592435,1,,,,,,26,WORD,UN,50,butler,SPRINT,m,0.592435,,,,,,0.107407407,-0.142592593,0,0,0,,0,114,114,205,1,
,,,,,,,,,,,,,,,,,,5d30b98eb8f4a500193ce6c6,2020-08-10_13h44.54.539,lexical_decision_task_MP,2020.1.3,Win32,60,z,1,,,,,,,,0.61054,1,,,,,,374,NW,"ID",50,sliant,SLIANT,z,0.61054,,,,,,0.107407407,-0.142592593,0,0,0,,0,115,115,313,1,
,,,,,,,,,,,,,,,,,,5d30b98eb8f4a500193ce6c6,2020-08-10_13h44.54.539,lexical_decision_task_MP,2020.1.3,Win32,60,m,1,,,,,,,,0.515545,1,,,,,,62,WORD,"ID",33,region,REGION,m,0.515545,,,,,,0.107407407,-0.142592593,0,0,0,,0,116,116,1,1,
,,,,,,,,,,,,,,,,,,5d30b98eb8f4a500193ce6c6,2020-08-10_13h44.54.539,lexical_decision_task_MP,2020.1.3,Win32,60,z,1,,,,,,,,0.55223,1,,,,,,466,NW,UN,33,robuly,HOCITE,z,0.55223,,,,,,0.107407407,-0.142592593,0,0,0,,0,117,117,405,1,
,,,,,,,,,,,,,,,,,,5d30b98eb8f4a500193ce6c6,2020-08-10_13h44.54.539,lexical_decision_task_MP,2020.1.3,Win32,60,z,0,,,,,,,,0.65199,0,,,,,,127,WORD,"ID",50,castle,CASTLE,m,0.65199,,,,,,0.107407407,-0.142592593,0,0,0,,0,118,118,66,1,
,,,,,,,,,,,,,,,,,,5d30b98eb8f4a500193ce6c6,2020-08-10_13h44.54.539,lexical_decision_task_MP,2020.1.3,Win32,60,m,1,,,,,,,,1.435925,1,,,,,,64,WORD,"ID",33,throne,THRONE,m,1.435925,,,,,,0.107407407,-0.142592593,0,0,0,,0,119,119,3,1,
,,,,,,,,,,,,,,,,,,5d30b98eb8f4a500193ce6c6,2020-08-10_13h44.54.539,lexical_decision_task_MP,2020.1.3,Win32,60,m,1,,,,,,,,0.66767,1,,,,,,83,WORD,"ID",33,result,RESULT,m,0.66767,,,,,,0.107407407,-0.142592593,0,0,0,space,0,120,120,22,1,28.515785
,,,,,,,,,,,,,,,,,,5d30b98eb8f4a500193ce6c6,2020-08-10_13h44.54.539,lexical_decision_task_MP,2020.1.3,Win32,60,z,1,,,,,,,,0.662615,1,,,,,,340,NW,"ID",33,fiatch,FIATCH,z,0.662615,,,,,,0.107407407,-0.142592593,0,0,0,,0,121,121,279,1,
,,,,,,,,,,,,,,,,,,5d30b98eb8f4a500193ce6c6,2020-08-10_13h44.54.539,lexical_decision_task_MP,2020.1.3,Win32,60,m,1,,,,,,,,0.62234,1,,,,,,193,WORD,UN,33,mildew,OBJECT,m,0.62234,,,,,,0.107407407,-0.142592593,0,0,0,,0,122,122,132,1,
,,,,,,,,,,,,,,,,,,5d30b98eb8f4a500193ce6c6,2020-08-10_13h44.54.539,lexical_decision_task_MP,2020.1.3,Win32,60,z,1,,,,,,,,0.525715,1,,,,,,259,NW,UN,50,unject,SOUDAL,z,0.525715,,,,,,0.107407407,-0.142592593,0,0,0,,0,123,123,438,1,
,,,,,,,,,,,,,,,,,,5d30b98eb8f4a500193ce6c6,2020-08-10_13h44.54.539,lexical_decision_task_MP,2020.1.3,Win32,60,m,1,,,,,,,,0.618475,1,,,,,,107,WORD,"ID",33,slogan,SLOGAN,m,0.618475,,,,,,0.107407407,-0.142592593,0,0,0,,0,124,124,46,1,
,,,,,,,,,,,,,,,,,,5d30b98eb8f4a500193ce6c6,2020-08-10_13h44.54.539,lexical_decision_task_MP,2020.1.3,Win32,60,z,1,,,,,,,,0.505625,1,,,,,,412,NW,"ID",50,jiluer,JILUER,z,0.505625,,,,,,0.107407407,-0.142592593,0,0,0,,0,125,125,351,1,
,,,,,,,,,,,,,,,,,,5d30b98eb8f4a500193ce6c6,2020-08-10_13h44.54.539,lexical_decision_task_MP,2020.1.3,Win32,60,z,1,,,,,,,,0.46341,1,,,,,,242,NW,UN,50,musied,UNWERT,z,0.46341,,,,,,0.107407407,-0.142592593,0,0,0,,0,126,126,421,1,
,,,,,,,,,,,,,,,,,,5d30b98eb8f4a500193ce6c6,2020-08-10_13h44.54.539,lexical_decision_task_MP,2020.1.3,Win32,60,m,1,,,,,,,,0.43092,1,,,,,,173,WORD,"ID",50,shower,SHOWER,m,0.43092,,,,,,0.107407407,-0.142592593,0,0,0,,0,127,127,112,1,
,,,,,,,,,,,,,,,,,,5d30b98eb8f4a500193ce6c6,2020-08-10_13h44.54.539,lexical_decision_task_MP,2020.1.3,Win32,60,z,1,,,,,,,,0.60703,1,,,,,,403,NW,"ID",50,bruats,BRUATS,z,0.60703,,,,,,0.107407407,-0.142592593,0,0,0,,0,128,128,342,1,
,,,,,,,,,,,,,,,,,,5d30b98eb8f4a500193ce6c6,2020-08-10_13h44.54.539,lexical_decision_task_MP,2020.1.3,Win32,60,z,1,,,,,,,,0.4958,1,,,,,,271,NW,UN,50,damilt,AUBRID,z,0.4958,,,,,,0.107407407,-0.142592593,0,0,0,,0,129,129,450,1,
,,,,,,,,,,,,,,,,,,5d30b98eb8f4a500193ce6c6,2020-08-10_13h44.54.539,lexical_decision_task_MP,2020.1.3,Win32,60,m,1,,,,,,,,0.55667,1,,,,,,37,WORD,UN,50,powder,INSULT,m,0.55667,,,,,,0.107407407,-0.142592593,0,0,0,,0,130,130,216,1,
,,,,,,,,,,,,,,,,,,5d30b98eb8f4a500193ce6c6,2020-08-10_13h44.54.539,lexical_decision_task_MP,2020.1.3,Win32,60,z,1,,,,,,,,0.60044,1,,,,,,425,NW,UN,33,urivel,FRUDGE,z,0.60044,,,,,,0.107407407,-0.142592593,0,0,0,,0,131,131,364,1,
,,,,,,,,,,,,,,,,,,5d30b98eb8f4a500193ce6c6,2020-08-10_13h44.54.539,lexical_decision_task_MP,2020.1.3,Win32,60,z,1,,,,,,,,0.505415,1,,,,,,274,NW,UN,50,sleirt,FUMBLO,z,0.505415,,,,,,0.107407407,-0.142592593,0,0,0,,0,132,132,453,1,
,,,,,,,,,,,,,,,,,,5d30b98eb8f4a500193ce6c6,2020-08-10_13h44.54.539,lexical_decision_task_MP,2020.1.3,Win32,60,z,1,,,,,,,,0.540845,1,,,,,,299,NW,UN,50,yarion,STURCH,z,0.540845,,,,,,0.107407407,-0.142592593,0,0,0,,0,133,133,478,1,
,,,,,,,,,,,,,,,,,,5d30b98eb8f4a500193ce6c6,2020-08-10_13h44.54.539,lexical_decision_task_MP,2020.1.3,Win32,60,z,1,,,,,,,,0.515235,1,,,,,,430,NW,UN,33,chrums,CAROEY,z,0.515235,,,,,,0.107407407,-0.142592593,0,0,0,,0,134,134,369,1,
,,,,,,,,,,,,,,,,,,5d30b98eb8f4a500193ce6c6,2020-08-10_13h44.54.539,lexical_decision_task_MP,2020.1.3,Win32,60,m,1,,,,,,,,0.70158,1,,,,,,19,WORD,UN,50,breast,PATRON,m,0.70158,,,,,,0.107407407,-0.142592593,0,0,0,,0,135,135,198,1,
,,,,,,,,,,,,,,,,,,5d30b98eb8f4a500193ce6c6,2020-08-10_13h44.54.539,lexical_decision_task_MP,2020.1.3,Win32,60,m,1,,,,,,,,0.56191,1,,,,,,124,WORD,"ID",50,blouse,BLOUSE,m,0.56191,,,,,,0.107407407,-0.142592593,0,0,0,,0,136,136,63,1,
,,,,,,,,,,,,,,,,,,5d30b98eb8f4a500193ce6c6,2020-08-10_13h44.54.539,lexical_decision_task_MP,2020.1.3,Win32,60,m,1,,,,,,,,0.48486,1,,,,,,139,WORD,"ID",50,debris,DEBRIS,m,0.48486,,,,,,0.107407407,-0.142592593,0,0,0,,0,137,137,78,1,
,,,,,,,,,,,,,,,,,,5d30b98eb8f4a500193ce6c6,2020-08-10_13h44.54.539,lexical_decision_task_MP,2020.1.3,Win32,60,m,1,,,,,,,,0.562455,1,,,,,,47,WORD,UN,50,walnut,INCOME,m,0.562455,,,,,,0.107407407,-0.142592593,0,0,0,,0,138,138,226,1,
,,,,,,,,,,,,,,,,,,5d30b98eb8f4a500193ce6c6,2020-08-10_13h44.54.539,lexical_decision_task_MP,2020.1.3,Win32,60,m,1,,,,,,,,0.42223,1,,,,,,132,WORD,"ID",50,strong,STRONG,m,0.42223,,,,,,0.107407407,-0.142592593,0,0,0,,0,139,139,71,1,
,,,,,,,,,,,,,,,,,,5d30b98eb8f4a500193ce6c6,2020-08-10_13h44.54.539,lexical_decision_task_MP,2020.1.3,Win32,60,z,1,,,,,,,,0.686405,1,,,,,,358,NW,"ID",33,fleack,FLEACK,z,0.686405,,,,,,0.107407407,-0.142592593,0,0,0,,0,140,140,297,1,
,,,,,,,,,,,,,,,,,,5d30b98eb8f4a500193ce6c6,2020-08-10_13h44.54.539,lexical_decision_task_MP,2020.1.3,Win32,60,z,1,,,,,,,,0.554395,1,,,,,,253,NW,UN,50,varosh,RESAIT,z,0.554395,,,,,,0.107407407,-0.142592593,0,0,0,,0,141,141,432,1,
,,,,,,,,,,,,,,,,,,5d30b98eb8f4a500193ce6c6,2020-08-10_13h44.54.539,lexical_decision_task_MP,2020.1.3,Win32,60,m,1,,,,,,,,0.53528,1,,,,,,108,WORD,"ID",33,reckon,RECKON,m,0.53528,,,,,,0.107407407,-0.142592593,0,0,0,,0,142,142,47,1,
,,,,,,,,,,,,,,,,,,5d30b98eb8f4a500193ce6c6,2020-08-10_13h44.54.539,lexical_decision_task_MP,2020.1.3,Win32,60,m,1,,,,,,,,0.69924,1,,,,,,236,WORD,UN,33,grumpy,PIRATE,m,0.69924,,,,,,0.107407407,-0.142592593,0,0,0,,0,143,143,175,1,
,,,,,,,,,,,,,,,,,,5d30b98eb8f4a500193ce6c6,2020-08-10_13h44.54.539,lexical_decision_task_MP,2020.1.3,Win32,60,z,1,,,,,,,,0.67955,1,,,,,,257,NW,UN,50,poluth,VENIOD,z,0.67955,,,,,,0.107407407,-0.142592593,0,0,0,,0,144,144,436,1,
,,,,,,,,,,,,,,,,,,5d30b98eb8f4a500193ce6c6,2020-08-10_13h44.54.539,lexical_decision_task_MP,2020.1.3,Win32,60,z,1,,,,,,,,0.74202,1,,,,,,291,NW,UN,50,ablint,PRETCH,z,0.74202,,,,,,0.107407407,-0.142592593,0,0,0,,0,145,145,470,1,
,,,,,,,,,,,,,,,,,,5d30b98eb8f4a500193ce6c6,2020-08-10_13h44.54.539,lexical_decision_task_MP,2020.1.3,Win32,60,m,1,,,,,,,,0.634375,1,,,,,,7,WORD,UN,50,abrupt,ANCHOR,m,0.634375,,,,,,0.107407407,-0.142592593,0,0,0,,0,146,146,186,1,
,,,,,,,,,,,,,,,,,,5d30b98eb8f4a500193ce6c6,2020-08-10_13h44.54.539,lexical_decision_task_MP,2020.1.3,Win32,60,m,1,,,,,,,,0.722105,1,,,,,,77,WORD,"ID",33,racket,RACKET,m,0.722105,,,,,,0.107407407,-0.142592593,0,0,0,,0,147,147,16,1,
,,,,,,,,,,,,,,,,,,5d30b98eb8f4a500193ce6c6,2020-08-10_13h44.54.539,lexical_decision_task_MP,2020.1.3,Win32,60,m,1,,,,,,,,0.686875,1,,,,,,210,WORD,UN,33,infect,MONKEY,m,0.686875,,,,,,0.107407407,-0.142592593,0,0,0,,0,148,148,149,1,
,,,,,,,,,,,,,,,,,,5d30b98eb8f4a500193ce6c6,2020-08-10_13h44.54.539,lexical_decision_task_MP,2020.1.3,Win32,60,z,1,,,,,,,,0.652885,1,,,,,,347,NW,"ID",33,kerift,KERIFT,z,0.652885,,,,,,0.107407407,-0.142592593,0,0,0,,0,149,149,286,1,
,,,,,,,,,,,,,,,,,,5d30b98eb8f4a500193ce6c6,2020-08-10_13h44.54.539,lexical_decision_task_MP,2020.1.3,Win32,60,z,0,,,,,,,,0.67511,0,,,,,,9,WORD,UN,50,bridge,HUSTLE,m,0.67511,,,,,,0.107407407,-0.142592593,0,0,0,,0,150,150,188,1,
,,,,,,,,,,,,,,,,,,5d30b98eb8f4a500193ce6c6,2020-08-10_13h44.54.539,lexical_decision_task_MP,2020.1.3,Win32,60,m,1,,,,,,,,0.441935,1,,,,,,145,WORD,"ID",50,parish,PARISH,m,0.441935,,,,,,0.107407407,-0.142592593,0,0,0,,0,151,151,84,1,
,,,,,,,,,,,,,,,,,,5d30b98eb8f4a500193ce6c6,2020-08-10_13h44.54.539,lexical_decision_task_MP,2020.1.3,Win32,60,z,1,,,,,,,,0.63261,1,,,,,,383,NW,"ID",50,aungre,AUNGRE,z,0.63261,,,,,,0.107407407,-0.142592593,0,0,0,,0,152,152,322,1,
,,,,,,,,,,,,,,,,,,5d30b98eb8f4a500193ce6c6,2020-08-10_13h44.54.539,lexical_decision_task_MP,2020.1.3,Win32,60,z,1,,,,,,,,0.88209,1,,,,,,427,NW,UN,33,tandly,SCHIND,z,0.88209,,,,,,0.107407407,-0.142592593,0,0,0,,0,153,153,366,1,
,,,,,,,,,,,,,,,,,,5d30b98eb8f4a500193ce6c6,2020-08-10_13h44.54.539,lexical_decision_task_MP,2020.1.3,Win32,60,m,1,,,,,,,,0.550415,1,,,,,,140,WORD,"ID",50,prince,PRINCE,m,0.550415,,,,,,0.107407407,-0.142592593,0,0,0,,0,154,154,79,1,
,,,,,,,,,,,,,,,,,,5d30b98eb8f4a500193ce6c6,2020-08-10_13h44.54.539,lexical_decision_task_MP,2020.1.3,Win32,60,m,1,,,,,,,,0.56001,1,,,,,,167,WORD,"ID",50,design,DESIGN,m,0.56001,,,,,,0.107407407,-0.142592593,0,0,0,,0,155,155,106,1,
,,,,,,,,,,,,,,,,,,5d30b98eb8f4a500193ce6c6,2020-08-10_13h44.54.539,lexical_decision_task_MP,2020.1.3,Win32,60,z,1,,,,,,,,0.69231,1,,,,,,479,NW,UN,33,crible,LOBUSH,z,0.69231,,,,,,0.107407407,-0.142592593,0,0,0,,0,156,156,418,1,
,,,,,,,,,,,,,,,,,,5d30b98eb8f4a500193ce6c6,2020-08-10_13h44.54.539,lexical_decision_task_MP,2020.1.3,Win32,60,z,1,,,,,,,,0.49912,1,,,,,,472,NW,UN,33,gorbie,CIGNEY,z,0.49912,,,,,,0.107407407,-0.142592593,0,0,0,,0,157,157,411,1,
,,,,,,,,,,,,,,,,,,5d30b98eb8f4a500193ce6c6,2020-08-10_13h44.54.539,lexical_decision_task_MP,2020.1.3,Win32,60,z,0,,,,,,,,0.590905,0,,,,,,176,WORD,"ID",50,strife,STRIFE,m,0.590905,,,,,,0.107407407,-0.142592593,0,0,0,,0,158,158,115,1,
,,,,,,,,,,,,,,,,,,5d30b98eb8f4a500193ce6c6,2020-08-10_13h44.54.539,lexical_decision_task_MP,2020.1.3,Win32,60,m,1,,,,,,,,0.441545,1,,,,,,165,WORD,"ID",50,invest,INVEST,m,0.441545,,,,,,0.107407407,-0.142592593,0,0,0,,0,159,159,104,1,
,,,,,,,,,,,,,,,,,,5d30b98eb8f4a500193ce6c6,2020-08-10_13h44.54.539,lexical_decision_task_MP,2020.1.3,Win32,60,m,1,,,,,,,,0.39893,1,,,,,,149,WORD,"ID",50,invade,INVADE,m,0.39893,,,,,,0.107407407,-0.142592593,0,0,0,,0,160,160,88,1,
,,,,,,,,,,,,,,,,,,5d30b98eb8f4a500193ce6c6,2020-08-10_13h44.54.539,lexical_decision_task_MP,2020.1.3,Win32,60,z,1,,,,,,,,0.76838,1,,,,,,278,NW,UN,50,celond,UNIGHS,z,0.76838,,,,,,0.107407407,-0.142592593,0,0,0,,0,161,161,457,1,
,,,,,,,,,,,,,,,,,,5d30b98eb8f4a500193ce6c6,2020-08-10_13h44.54.539,lexical_decision_task_MP,2020.1.3,Win32,60,m,1,,,,,,,,0.763285,1,,,,,,227,WORD,UN,33,master,SELDOM,m,0.763285,,,,,,0.107407407,-0.142592593,0,0,0,,0,162,162,166,1,
,,,,,,,,,,,,,,,,,,5d30b98eb8f4a500193ce6c6,2020-08-10_13h44.54.539,lexical_decision_task_MP,2020.1.3,Win32,60,z,0,,,,,,,,0.679345,0,,,,,,212,WORD,UN,33,squeal,VERIFY,m,0.679345,,,,,,0.107407407,-0.142592593,0,0,0,,0,163,163,151,1,
,,,,,,,,,,,,,,,,,,5d30b98eb8f4a500193ce6c6,2020-08-10_13h44.54.539,lexical_decision_task_MP,2020.1.3,Win32,60,m,1,,,,,,,,0.54125,1,,,,,,110,WORD,"ID",33,polite,POLITE,m,0.54125,,,,,,0.107407407,-0.142592593,0,0,0,,0,164,164,49,1,
,,,,,,,,,,,,,,,,,,5d30b98eb8f4a500193ce6c6,2020-08-10_13h44.54.539,lexical_decision_task_MP,2020.1.3,Win32,60,z,1,,,,,,,,0.61049,1,,,,,,467,NW,UN,33,wictor,GORBIE,z,0.61049,,,,,,0.107407407,-0.142592593,0,0,0,,0,165,165,406,1,
,,,,,,,,,,,,,,,,,,5d30b98eb8f4a500193ce6c6,2020-08-10_13h44.54.539,lexical_decision_task_MP,2020.1.3,Win32,60,m,1,,,,,,,,0.46741,1,,,,,,84,WORD,"ID",33,mortal,MORTAL,m,0.46741,,,,,,0.107407407,-0.142592593,0,0,0,,0,166,166,23,1,
,,,,,,,,,,,,,,,,,,5d30b98eb8f4a500193ce6c6,2020-08-10_13h44.54.539,lexical_decision_task_MP,2020.1.3,Win32,60,m,1,,,,,,,,0.593535,1,,,,,,87,WORD,"ID",33,filter,FILTER,m,0.593535,,,,,,0.107407407,-0.142592593,0,0,0,,0,167,167,26,1,
,,,,,,,,,,,,,,,,,,5d30b98eb8f4a500193ce6c6,2020-08-10_13h44.54.539,lexical_decision_task_MP,2020.1.3,Win32,60,z,1,,,,,,,,0.53966,1,,,,,,251,NW,UN,50,stapod,LUPICT,z,0.53966,,,,,,0.107407407,-0.142592593,0,0,0,,0,168,168,430,1,
,,,,,,,,,,,,,,,,,,5d30b98eb8f4a500193ce6c6,2020-08-10_13h44.54.539,lexical_decision_task_MP,2020.1.3,Win32,60,m,1,,,,,,,,0.51892,1,,,,,,119,WORD,"ID",33,spider,SPIDER,m,0.51892,,,,,,0.107407407,-0.142592593,0,0,0,,0,169,169,58,1,
,,,,,,,,,,,,,,,,,,5d30b98eb8f4a500193ce6c6,2020-08-10_13h44.54.539,lexical_decision_task_MP,2020.1.3,Win32,60,z,1,,,,,,,,0.523565,1,,,,,,371,NW,"ID",50,geiloy,GEILOY,z,0.523565,,,,,,0.107407407,-0.142592593,0,0,0,,0,170,170,310,1,
,,,,,,,,,,,,,,,,,,5d30b98eb8f4a500193ce6c6,2020-08-10_13h44.54.539,lexical_decision_task_MP,2020.1.3,Win32,60,m,1,,,,,,,,0.69575,1,,,,,,58,WORD,UN,50,splint,FOSTER,m,0.69575,,,,,,0.107407407,-0.142592593,0,0,0,,0,171,171,237,1,
,,,,,,,,,,,,,,,,,,5d30b98eb8f4a500193ce6c6,2020-08-10_13h44.54.539,lexical_decision_task_MP,2020.1.3,Win32,60,m,1,,,,,,,,0.52522,1,,,,,,91,WORD,"ID",33,expand,EXPAND,m,0.52522,,,,,,0.107407407,-0.142592593,0,0,0,,0,172,172,30,1,
,,,,,,,,,,,,,,,,,,5d30b98eb8f4a500193ce6c6,2020-08-10_13h44.54.539,lexical_decision_task_MP,2020.1.3,Win32,60,z,1,,,,,,,,0.72989,1,,,,,,387,NW,"ID",50,gronce,GRONCE,z,0.72989,,,,,,0.107407407,-0.142592593,0,0,0,,0,173,173,326,1,
,,,,,,,,,,,,,,,,,,5d30b98eb8f4a500193ce6c6,2020-08-10_13h44.54.539,lexical_decision_task_MP,2020.1.3,Win32,60,m,1,,,,,,,,0.51928,1,,,,,,98,WORD,"ID",33,belong,BELONG,m,0.51928,,,,,,0.107407407,-0.142592593,0,0,0,,0,174,174,37,1,
,,,,,,,,,,,,,,,,,,5d30b98eb8f4a500193ce6c6,2020-08-10_13h44.54.539,lexical_decision_task_MP,2020.1.3,Win32,60,m,1,,,,,,,,0.54934,1,,,,,,213,WORD,UN,33,intake,SQUEAL,m,0.54934,,,,,,0.107407407,-0.142592593,0,0,0,,0,175,175,152,1,
,,,,,,,,,,,,,,,,,,5d30b98eb8f4a500193ce6c6,2020-08-10_13h44.54.539,lexical_decision_task_MP,2020.1.3,Win32,60,z,1,,,,,,,,0.69388,1,,,,,,397,NW,"ID",50,camble,CAMBLE,z,0.69388,,,,,,0.107407407,-0.142592593,0,0,0,,0,176,176,336,1,
,,,,,,,,,,,,,,,,,,5d30b98eb8f4a500193ce6c6,2020-08-10_13h44.54.539,lexical_decision_task_MP,2020.1.3,Win32,60,z,1,,,,,,,,0.49145,1,,,,,,465,NW,UN,33,bafent,WHIVEX,z,0.49145,,,,,,0.107407407,-0.142592593,0,0,0,,0,177,177,404,1,
,,,,,,,,,,,,,,,,,,5d30b98eb8f4a500193ce6c6,2020-08-10_13h44.54.539,lexical_decision_task_MP,2020.1.3,Win32,60,m,1,,,,,,,,0.61046,1,,,,,,208,WORD,UN,33,search,HOCKEY,m,0.61046,,,,,,0.107407407,-0.142592593,0,0,0,,0,178,178,147,1,
,,,,,,,,,,,,,,,,,,5d30b98eb8f4a500193ce6c6,2020-08-10_13h44.54.539,lexical_decision_task_MP,2020.1.3,Win32,60,z,1,,,,,,,,0.635705,1,,,,,,277,NW,UN,50,unighs,PETAIN,z,0.635705,,,,,,0.107407407,-0.142592593,0,0,0,,0,179,179,456,1,
,,,,,,,,,,,,,,,,,,5d30b98eb8f4a500193ce6c6,2020-08-10_13h44.54.539,lexical_decision_task_MP,2020.1.3,Win32,60,z,1,,,,,,,,0.602585,1,,,,,,415,NW,"ID",50,higsta,HIGSTA,z,0.602585,,,,,,0.107407407,-0.142592593,0,0,0,,0,180,180,354,1,
,,,,,,,,,,,,,,,,,,5d30b98eb8f4a500193ce6c6,2020-08-10_13h44.54.539,lexical_decision_task_MP,2020.1.3,Win32,60,m,1,,,,,,,,0.68315,1,,,,,,159,WORD,"ID",50,detail,DETAIL,m,0.68315,,,,,,0.107407407,-0.142592593,0,0,0,,0,181,181,98,1,
,,,,,,,,,,,,,,,,,,5d30b98eb8f4a500193ce6c6,2020-08-10_13h44.54.539,lexical_decision_task_MP,2020.1.3,Win32,60,z,1,,,,,,,,0.881545,1,,,,,,272,NW,UN,50,sortel,DAMILT,z,0.881545,,,,,,0.107407407,-0.142592593,0,0,0,,0,182,182,451,1,
,,,,,,,,,,,,,,,,,,5d30b98eb8f4a500193ce6c6,2020-08-10_13h44.54.539,lexical_decision_task_MP,2020.1.3,Win32,60,m,1,,,,,,,,0.534195,1,,,,,,44,WORD,UN,50,clergy,DANGER,m,0.534195,,,,,,0.107407407,-0.142592593,0,0,0,,0,183,183,223,1,
,,,,,,,,,,,,,,,,,,5d30b98eb8f4a500193ce6c6,2020-08-10_13h44.54.539,lexical_decision_task_MP,2020.1.3,Win32,60,m,1,,,,,,,,0.585585,1,,,,,,36,WORD,UN,50,insult,VANISH,m,0.585585,,,,,,0.107407407,-0.142592593,0,0,0,,0,184,184,215,1,
,,,,,,,,,,,,,,,,,,5d30b98eb8f4a500193ce6c6,2020-08-10_13h44.54.539,lexical_decision_task_MP,2020.1.3,Win32,60,z,0,,,,,,,,0.738295,0,,,,,,11,WORD,UN,50,amount,CRUISE,m,0.738295,,,,,,0.107407407,-0.142592593,0,0,0,,0,185,185,190,1,
,,,,,,,,,,,,,,,,,,5d30b98eb8f4a500193ce6c6,2020-08-10_13h44.54.539,lexical_decision_task_MP,2020.1.3,Win32,60,m,1,,,,,,,,0.72721,1,,,,,,109,WORD,"ID",33,wonder,WONDER,m,0.72721,,,,,,0.107407407,-0.142592593,0,0,0,,0,186,186,48,1,
,,,,,,,,,,,,,,,,,,5d30b98eb8f4a500193ce6c6,2020-08-10_13h44.54.539,lexical_decision_task_MP,2020.1.3,Win32,60,m,1,,,,,,,,0.93948,1,,,,,,96,WORD,"ID",33,ignore,IGNORE,m,0.93948,,,,,,0.107407407,-0.142592593,0,0,0,,0,187,187,35,1,
,,,,,,,,,,,,,,,,,,5d30b98eb8f4a500193ce6c6,2020-08-10_13h44.54.539,lexical_decision_task_MP,2020.1.3,Win32,60,z,1,,,,,,,,0.903845,1,,,,,,264,NW,UN,50,distar,VACKEL,z,0.903845,,,,,,0.107407407,-0.142592593,0,0,0,,0,188,188,443,1,
,,,,,,,,,,,,,,,,,,5d30b98eb8f4a500193ce6c6,2020-08-10_13h44.54.539,lexical_decision_task_MP,2020.1.3,Win32,60,m,1,,,,,,,,0.619795,1,,,,,,153,WORD,"ID",50,behold,BEHOLD,m,0.619795,,,,,,0.107407407,-0.142592593,0,0,0,,0,189,189,92,1,
,,,,,,,,,,,,,,,,,,5d30b98eb8f4a500193ce6c6,2020-08-10_13h44.54.539,lexical_decision_task_MP,2020.1.3,Win32,60,m,1,,,,,,,,0.540485,1,,,,,,174,WORD,"ID",50,turkey,TURKEY,m,0.540485,,,,,,0.107407407,-0.142592593,0,0,0,,0,190,190,113,1,
,,,,,,,,,,,,,,,,,,5d30b98eb8f4a500193ce6c6,2020-08-10_13h44.54.539,lexical_decision_task_MP,2020.1.3,Win32,60,m,1,,,,,,,,0.5913,1,,,,,,171,WORD,"ID",50,depart,DEPART,m,0.5913,,,,,,0.107407407,-0.142592593,0,0,0,,0,191,191,110,1,
,,,,,,,,,,,,,,,,,,5d30b98eb8f4a500193ce6c6,2020-08-10_13h44.54.539,lexical_decision_task_MP,2020.1.3,Win32,60,m,1,,,,,,,,0.54568,1,,,,,,194,WORD,UN,33,resign,ABSENT,m,0.54568,,,,,,0.107407407,-0.142592593,0,0,0,,0,192,192,133,1,
,,,,,,,,,,,,,,,,,,5d30b98eb8f4a500193ce6c6,2020-08-10_13h44.54.539,lexical_decision_task_MP,2020.1.3,Win32,60,z,1,,,,,,,,0.718185,1,,,,,,338,NW,"ID",33,wreash,WREASH,z,0.718185,,,,,,0.107407407,-0.142592593,0,0,0,,0,193,193,277,1,
,,,,,,,,,,,,,,,,,,5d30b98eb8f4a500193ce6c6,2020-08-10_13h44.54.539,lexical_decision_task_MP,2020.1.3,Win32,60,m,1,,,,,,,,0.641735,1,,,,,,5,WORD,UN,50,bundle,PLUNGE,m,0.641735,,,,,,0.107407407,-0.142592593,0,0,0,,0,194,194,184,1,
,,,,,,,,,,,,,,,,,,5d30b98eb8f4a500193ce6c6,2020-08-10_13h44.54.539,lexical_decision_task_MP,2020.1.3,Win32,60,m,1,,,,,,,,0.88288,1,,,,,,73,WORD,"ID",33,source,SOURCE,m,0.88288,,,,,,0.107407407,-0.142592593,0,0,0,,0,195,195,12,1,
,,,,,,,,,,,,,,,,,,5d30b98eb8f4a500193ce6c6,2020-08-10_13h44.54.539,lexical_decision_task_MP,2020.1.3,Win32,60,z,1,,,,,,,,0.824915,1,,,,,,441,NW,UN,33,aboune,RASTOE,z,0.824915,,,,,,0.107407407,-0.142592593,0,0,0,,0,196,196,380,1,
,,,,,,,,,,,,,,,,,,5d30b98eb8f4a500193ce6c6,2020-08-10_13h44.54.539,lexical_decision_task_MP,2020.1.3,Win32,60,m,0,,,,,,,,0.641075,0,,,,,,245,NW,UN,50,piaton,ANOUGS,z,0.641075,,,,,,0.107407407,-0.142592593,0,0,0,,0,197,197,424,1,
,,,,,,,,,,,,,,,,,,5d30b98eb8f4a500193ce6c6,2020-08-10_13h44.54.539,lexical_decision_task_MP,2020.1.3,Win32,60,z,1,,,,,,,,0.55248,1,,,,,,287,NW,UN,50,yaceup,NYMBEL,z,0.55248,,,,,,0.107407407,-0.142592593,0,0,0,,0,198,198,466,1,
,,,,,,,,,,,,,,,,,,5d30b98eb8f4a500193ce6c6,2020-08-10_13h44.54.539,lexical_decision_task_MP,2020.1.3,Win32,60,m,1,,,,,,,,0.58536,1,,,,,,111,WORD,"ID",33,induce,INDUCE,m,0.58536,,,,,,0.107407407,-0.142592593,0,0,0,,0,199,199,50,1,
,,,,,,,,,,,,,,,,,,5d30b98eb8f4a500193ce6c6,2020-08-10_13h44.54.539,lexical_decision_task_MP,2020.1.3,Win32,60,m,1,,,,,,,,0.67743,1,,,,,,114,WORD,"ID",33,placid,PLACID,m,0.67743,,,,,,0.107407407,-0.142592593,0,0,0,,0,200,200,53,1,
,,,,,,,,,,,,,,,,,,5d30b98eb8f4a500193ce6c6,2020-08-10_13h44.54.539,lexical_decision_task_MP,2020.1.3,Win32,60,m,0,,,,,,,,0.475145,0,,,,,,398,NW,"ID",50,blunde,BLUNDE,z,0.475145,,,,,,0.107407407,-0.142592593,0,0,0,,0,201,201,337,1,
,,,,,,,,,,,,,,,,,,5d30b98eb8f4a500193ce6c6,2020-08-10_13h44.54.539,lexical_decision_task_MP,2020.1.3,Win32,60,m,1,,,,,,,,0.673695,1,,,,,,118,WORD,"ID",33,flight,FLIGHT,m,0.673695,,,,,,0.107407407,-0.142592593,0,0,0,,0,202,202,57,1,
,,,,,,,,,,,,,,,,,,5d30b98eb8f4a500193ce6c6,2020-08-10_13h44.54.539,lexical_decision_task_MP,2020.1.3,Win32,60,z,1,,,,,,,,0.64132,1,,,,,,313,NW,"ID",33,paurse,PAURSE,z,0.64132,,,,,,0.107407407,-0.142592593,0,0,0,,0,203,203,252,1,
,,,,,,,,,,,,,,,,,,5d30b98eb8f4a500193ce6c6,2020-08-10_13h44.54.539,lexical_decision_task_MP,2020.1.3,Win32,60,m,1,,,,,,,,0.57679,1,,,,,,54,WORD,UN,50,stroke,RAMBLE,m,0.57679,,,,,,0.107407407,-0.142592593,0,0,0,,0,204,204,233,1,
,,,,,,,,,,,,,,,,,,5d30b98eb8f4a500193ce6c6,2020-08-10_13h44.54.539,lexical_decision_task_MP,2020.1.3,Win32,60,z,1,,,,,,,,0.60234,1,,,,,,279,NW,UN,50,curbol,CELOND,z,0.60234,,,,,,0.107407407,-0.142592593,0,0,0,,0,205,205,458,1,
,,,,,,,,,,,,,,,,,,5d30b98eb8f4a500193ce6c6,2020-08-10_13h44.54.539,lexical_decision_task_MP,2020.1.3,Win32,60,m,1,,,,,,,,0.596145,1,,,,,,204,WORD,UN,33,lounge,BURDEN,m,0.596145,,,,,,0.107407407,-0.142592593,0,0,0,,0,206,206,143,1,
,,,,,,,,,,,,,,,,,,5d30b98eb8f4a500193ce6c6,2020-08-10_13h44.54.539,lexical_decision_task_MP,2020.1.3,Win32,60,z,1,,,,,,,,0.599185,1,,,,,,478,NW,UN,33,pebric,ACRISE,z,0.599185,,,,,,0.107407407,-0.142592593,0,0,0,,0,207,207,417,1,
,,,,,,,,,,,,,,,,,,5d30b98eb8f4a500193ce6c6,2020-08-10_13h44.54.539,lexical_decision_task_MP,2020.1.3,Win32,60,z,1,,,,,,,,0.59121,1,,,,,,475,NW,UN,33,josted,PEBRIC,z,0.59121,,,,,,0.107407407,-0.142592593,0,0,0,,0,208,208,414,1,
,,,,,,,,,,,,,,,,,,5d30b98eb8f4a500193ce6c6,2020-08-10_13h44.54.539,lexical_decision_task_MP,2020.1.3,Win32,60,m,1,,,,,,,,0.5296,1,,,,,,93,WORD,"ID",33,public,PUBLIC,m,0.5296,,,,,,0.107407407,-0.142592593,0,0,0,,0,209,209,32,1,
,,,,,,,,,,,,,,,,,,5d30b98eb8f4a500193ce6c6,2020-08-10_13h44.54.539,lexical_decision_task_MP,2020.1.3,Win32,60,z,1,,,,,,,,0.56616,1,,,,,,339,NW,"ID",33,fachow,FACHOW,z,0.56616,,,,,,0.107407407,-0.142592593,0,0,0,,0,210,210,278,1,
,,,,,,,,,,,,,,,,,,5d30b98eb8f4a500193ce6c6,2020-08-10_13h44.54.539,lexical_decision_task_MP,2020.1.3,Win32,60,m,1,,,,,,,,0.47269,1,,,,,,135,WORD,"ID",50,import,IMPORT,m,0.47269,,,,,,0.107407407,-0.142592593,0,0,0,,0,211,211,74,1,
,,,,,,,,,,,,,,,,,,5d30b98eb8f4a500193ce6c6,2020-08-10_13h44.54.539,lexical_decision_task_MP,2020.1.3,Win32,60,m,1,,,,,,,,0.74298,1,,,,,,113,WORD,"ID",33,chorus,CHORUS,m,0.74298,,,,,,0.107407407,-0.142592593,0,0,0,,0,212,212,52,1,
,,,,,,,,,,,,,,,,,,5d30b98eb8f4a500193ce6c6,2020-08-10_13h44.54.539,lexical_decision_task_MP,2020.1.3,Win32,60,z,1,,,,,,,,0.722575,1,,,,,,298,NW,UN,50,sturch,PIERGY,z,0.722575,,,,,,0.107407407,-0.142592593,0,0,0,,0,213,213,477,1,
,,,,,,,,,,,,,,,,,,5d30b98eb8f4a500193ce6c6,2020-08-10_13h44.54.539,lexical_decision_task_MP,2020.1.3,Win32,60,m,1,,,,,,,,0.70203,1,,,,,,104,WORD,"ID",33,studio,STUDIO,m,0.70203,,,,,,0.107407407,-0.142592593,0,0,0,,0,214,214,43,1,
,,,,,,,,,,,,,,,,,,5d30b98eb8f4a500193ce6c6,2020-08-10_13h44.54.539,lexical_decision_task_MP,2020.1.3,Win32,60,m,1,,,,,,,,0.72496,1,,,,,,51,WORD,UN,50,impose,HUNGRY,m,0.72496,,,,,,0.107407407,-0.142592593,0,0,0,,0,215,215,230,1,
,,,,,,,,,,,,,,,,,,5d30b98eb8f4a500193ce6c6,2020-08-10_13h44.54.539,lexical_decision_task_MP,2020.1.3,Win32,60,m,1,,,,,,,,0.58485,1,,,,,,126,WORD,"ID",50,enough,ENOUGH,m,0.58485,,,,,,0.107407407,-0.142592593,0,0,0,,0,216,216,65,1,
,,,,,,,,,,,,,,,,,,5d30b98eb8f4a500193ce6c6,2020-08-10_13h44.54.539,lexical_decision_task_MP,2020.1.3,Win32,60,z,1,,,,,,,,0.89113,1,,,,,,463,NW,UN,33,chaite,KISPEL,z,0.89113,,,,,,0.107407407,-0.142592593,0,0,0,,0,217,217,402,1,
,,,,,,,,,,,,,,,,,,5d30b98eb8f4a500193ce6c6,2020-08-10_13h44.54.539,lexical_decision_task_MP,2020.1.3,Win32,60,m,1,,,,,,,,0.681515,1,,,,,,183,WORD,UN,33,sleazy,MILDEW,m,0.681515,,,,,,0.107407407,-0.142592593,0,0,0,,0,218,218,122,1,
,,,,,,,,,,,,,,,,,,5d30b98eb8f4a500193ce6c6,2020-08-10_13h44.54.539,lexical_decision_task_MP,2020.1.3,Win32,60,m,1,,,,,,,,0.725895,1,,,,,,21,WORD,UN,50,jockey,SIMPLE,m,0.725895,,,,,,0.107407407,-0.142592593,0,0,0,,0,219,219,200,1,
,,,,,,,,,,,,,,,,,,5d30b98eb8f4a500193ce6c6,2020-08-10_13h44.54.539,lexical_decision_task_MP,2020.1.3,Win32,60,z,1,,,,,,,,1.01137,1,,,,,,462,NW,UN,33,kispel,ABSULT,z,1.01137,,,,,,0.107407407,-0.142592593,0,0,0,,0,220,220,401,1,
,,,,,,,,,,,,,,,,,,5d30b98eb8f4a500193ce6c6,2020-08-10_13h44.54.539,lexical_decision_task_MP,2020.1.3,Win32,60,z,1,,,,,,,,0.94003,1,,,,,,363,NW,"ID",50,breali,BREALI,z,0.94003,,,,,,0.107407407,-0.142592593,0,0,0,,0,221,221,302,1,
,,,,,,,,,,,,,,,,,,5d30b98eb8f4a500193ce6c6,2020-08-10_13h44.54.539,lexical_decision_task_MP,2020.1.3,Win32,60,m,1,,,,,,,,0.574565,1,,,,,,3,WORD,UN,50,trench,KNIGHT,m,0.574565,,,,,,0.107407407,-0.142592593,0,0,0,,0,222,222,182,1,
,,,,,,,,,,,,,,,,,,5d30b98eb8f4a500193ce6c6,2020-08-10_13h44.54.539,lexical_decision_task_MP,2020.1.3,Win32,60,m,1,,,,,,,,1.209805,1,,,,,,6,WORD,UN,50,anchor,BUNDLE,m,1.209805,,,,,,0.107407407,-0.142592593,0,0,0,,0,223,223,185,1,
,,,,,,,,,,,,,,,,,,5d30b98eb8f4a500193ce6c6,2020-08-10_13h44.54.539,lexical_decision_task_MP,2020.1.3,Win32,60,m,1,,,,,,,,0.562485,1,,,,,,138,WORD,"ID",50,melody,MELODY,m,0.562485,,,,,,0.107407407,-0.142592593,0,0,0,,0,224,224,77,1,
,,,,,,,,,,,,,,,,,,5d30b98eb8f4a500193ce6c6,2020-08-10_13h44.54.539,lexical_decision_task_MP,2020.1.3,Win32,60,z,0,,,,,,,,0.644665,0,,,,,,142,WORD,"ID",50,spruce,SPRUCE,m,0.644665,,,,,,0.107407407,-0.142592593,0,0,0,,0,225,225,81,1,
,,,,,,,,,,,,,,,,,,5d30b98eb8f4a500193ce6c6,2020-08-10_13h44.54.539,lexical_decision_task_MP,2020.1.3,Win32,60,m,1,,,,,,,,0.50986,1,,,,,,237,WORD,UN,33,glance,POSTER,m,0.50986,,,,,,0.107407407,-0.142592593,0,0,0,,0,226,226,176,1,
,,,,,,,,,,,,,,,,,,5d30b98eb8f4a500193ce6c6,2020-08-10_13h44.54.539,lexical_decision_task_MP,2020.1.3,Win32,60,m,1,,,,,,,,0.71591,1,,,,,,101,WORD,"ID",33,wrench,WRENCH,m,0.71591,,,,,,0.107407407,-0.142592593,0,0,0,,0,227,227,40,1,
,,,,,,,,,,,,,,,,,,5d30b98eb8f4a500193ce6c6,2020-08-10_13h44.54.539,lexical_decision_task_MP,2020.1.3,Win32,60,z,1,,,,,,,,0.671,1,,,,,,393,NW,"ID",50,ganous,GANOUS,z,0.671,,,,,,0.107407407,-0.142592593,0,0,0,,0,228,228,332,1,
,,,,,,,,,,,,,,,,,,5d30b98eb8f4a500193ce6c6,2020-08-10_13h44.54.539,lexical_decision_task_MP,2020.1.3,Win32,60,m,1,,,,,,,,0.508965,1,,,,,,123,WORD,"ID",50,strike,STRIKE,m,0.508965,,,,,,0.107407407,-0.142592593,0,0,0,,0,229,229,62,1,
,,,,,,,,,,,,,,,,,,5d30b98eb8f4a500193ce6c6,2020-08-10_13h44.54.539,lexical_decision_task_MP,2020.1.3,Win32,60,m,1,,,,,,,,0.46701,1,,,,,,229,WORD,UN,33,fringe,MOTHER,m,0.46701,,,,,,0.107407407,-0.142592593,0,0,0,,0,230,230,168,1,
,,,,,,,,,,,,,,,,,,5d30b98eb8f4a500193ce6c6,2020-08-10_13h44.54.539,lexical_decision_task_MP,2020.1.3,Win32,60,m,1,,,,,,,,0.488865,1,,,,,,63,WORD,"ID",33,launch,LAUNCH,m,0.488865,,,,,,0.107407407,-0.142592593,0,0,0,,0,231,231,2,1,
,,,,,,,,,,,,,,,,,,5d30b98eb8f4a500193ce6c6,2020-08-10_13h44.54.539,lexical_decision_task_MP,2020.1.3,Win32,60,z,1,,,,,,,,0.56575,1,,,,,,381,NW,"ID",50,huniek,HUNIEK,z,0.56575,,,,,,0.107407407,-0.142592593,0,0,0,,0,232,232,320,1,
,,,,,,,,,,,,,,,,,,5d30b98eb8f4a500193ce6c6,2020-08-10_13h44.54.539,lexical_decision_task_MP,2020.1.3,Win32,60,m,1,,,,,,,,0.649325,1,,,,,,106,WORD,"ID",33,ransom,RANSOM,m,0.649325,,,,,,0.107407407,-0.142592593,0,0,0,,0,233,233,45,1,
,,,,,,,,,,,,,,,,,,5d30b98eb8f4a500193ce6c6,2020-08-10_13h44.54.539,lexical_decision_task_MP,2020.1.3,Win32,60,m,1,,,,,,,,0.439775,1,,,,,,144,WORD,"ID",50,sponge,SPONGE,m,0.439775,,,,,,0.107407407,-0.142592593,0,0,0,,0,234,234,83,1,
,,,,,,,,,,,,,,,,,,5d30b98eb8f4a500193ce6c6,2020-08-10_13h44.54.539,lexical_decision_task_MP,2020.1.3,Win32,60,z,1,,,,,,,,0.62444,1,,,,,,329,NW,"ID",33,yarike,YARIKE,z,0.62444,,,,,,0.107407407,-0.142592593,0,0,0,,0,235,235,268,1,
,,,,,,,,,,,,,,,,,,5d30b98eb8f4a500193ce6c6,2020-08-10_13h44.54.539,lexical_decision_task_MP,2020.1.3,Win32,60,m,1,,,,,,,,0.440645,1,,,,,,200,WORD,UN,33,admire,BEACON,m,0.440645,,,,,,0.107407407,-0.142592593,0,0,0,,0,236,236,139,1,
,,,,,,,,,,,,,,,,,,5d30b98eb8f4a500193ce6c6,2020-08-10_13h44.54.539,lexical_decision_task_MP,2020.1.3,Win32,60,m,1,,,,,,,,0.72034,1,,,,,,179,WORD,"ID",50,basket,BASKET,m,0.72034,,,,,,0.107407407,-0.142592593,0,0,0,,0,237,237,118,1,
,,,,,,,,,,,,,,,,,,5d30b98eb8f4a500193ce6c6,2020-08-10_13h44.54.539,lexical_decision_task_MP,2020.1.3,Win32,60,m,1,,,,,,,,0.492705,1,,,,,,20,WORD,UN,50,simple,BREAST,m,0.492705,,,,,,0.107407407,-0.142592593,0,0,0,,0,238,238,199,1,
,,,,,,,,,,,,,,,,,,5d30b98eb8f4a500193ce6c6,2020-08-10_13h44.54.539,lexical_decision_task_MP,2020.1.3,Win32,60,z,1,,,,,,,,0.73033,1,,,,,,429,NW,UN,33,caroey,FUNTLE,z,0.73033,,,,,,0.107407407,-0.142592593,0,0,0,,0,239,239,368,1,
,,,,,,,,,,,,,,,,,,5d30b98eb8f4a500193ce6c6,2020-08-10_13h44.54.539,lexical_decision_task_MP,2020.1.3,Win32,60,m,1,,,,,,,,0.57444,1,,,,,,128,WORD,"ID",50,senior,SENIOR,m,0.57444,,,,,,0.107407407,-0.142592593,0,0,0,,0,240,240,67,1,
,,,,,,,,,,,,,,,,,,5d30b98eb8f4a500193ce6c6,2020-08-10_13h44.54.539,lexical_decision_task_MP,2020.1.3,Win32,60,z,1,,,,,,,,0.576015,1,,,,,,388,NW,"ID",50,cragin,CRAGIN,z,0.576015,,,,,,0.107407407,-0.142592593,0,0,0,space,0,241,241,327,1,16.503365
,,,,,,,,,,,,,,,,,,5d30b98eb8f4a500193ce6c6,2020-08-10_13h44.54.539,lexical_decision_task_MP,2020.1.3,Win32,60,z,1,,,,,,,,0.99944,1,,,,,,308,NW,"ID",33,psetch,PSETCH,z,0.99944,,,,,,0.108333333,-0.142592593,0,0,0,,0,242,242,247,1,
,,,,,,,,,,,,,,,,,,5d30b98eb8f4a500193ce6c6,2020-08-10_13h44.54.539,lexical_decision_task_MP,2020.1.3,Win32,60,z,1,,,,,,,,0.61777,1,,,,,,386,NW,"ID",50,ancust,ANCUST,z,0.61777,,,,,,0.108333333,-0.142592593,0,0,0,,0,243,243,325,1,
,,,,,,,,,,,,,,,,,,5d30b98eb8f4a500193ce6c6,2020-08-10_13h44.54.539,lexical_decision_task_MP,2020.1.3,Win32,60,z,1,,,,,,,,0.576425,1,,,,,,260,NW,UN,50,stunch,UNJECT,z,0.576425,,,,,,0.108333333,-0.142592593,0,0,0,,0,244,244,439,1,
,,,,,,,,,,,,,,,,,,5d30b98eb8f4a500193ce6c6,2020-08-10_13h44.54.539,lexical_decision_task_MP,2020.1.3,Win32,60,z,1,,,,,,,,0.63527,1,,,,,,316,NW,"ID",33,scregm,SCREGM,z,0.63527,,,,,,0.108333333,-0.142592593,0,0,0,,0,245,245,255,1,
,,,,,,,,,,,,,,,,,,5d30b98eb8f4a500193ce6c6,2020-08-10_13h44.54.539,lexical_decision_task_MP,2020.1.3,Win32,60,z,0,,,,,,,,0.54871,0,,,,,,218,WORD,UN,33,bucket,SHRINK,m,0.54871,,,,,,0.108333333,-0.142592593,0,0,0,,0,246,246,157,1,
,,,,,,,,,,,,,,,,,,5d30b98eb8f4a500193ce6c6,2020-08-10_13h44.54.539,lexical_decision_task_MP,2020.1.3,Win32,60,m,1,,,,,,,,0.573445,1,,,,,,41,WORD,UN,50,chapel,SPRING,m,0.573445,,,,,,0.108333333,-0.142592593,0,0,0,,0,247,247,220,1,
,,,,,,,,,,,,,,,,,,5d30b98eb8f4a500193ce6c6,2020-08-10_13h44.54.539,lexical_decision_task_MP,2020.1.3,Win32,60,z,1,,,,,,,,0.535925,1,,,,,,373,NW,"ID",50,bigent,BIGENT,z,0.535925,,,,,,0.108333333,-0.142592593,0,0,0,,0,248,248,312,1,
,,,,,,,,,,,,,,,,,,5d30b98eb8f4a500193ce6c6,2020-08-10_13h44.54.539,lexical_decision_task_MP,2020.1.3,Win32,60,m,1,,,,,,,,0.48389,1,,,,,,158,WORD,"ID",50,island,ISLAND,m,0.48389,,,,,,0.108333333,-0.142592593,0,0,0,,0,249,249,97,1,
,,,,,,,,,,,,,,,,,,5d30b98eb8f4a500193ce6c6,2020-08-10_13h44.54.539,lexical_decision_task_MP,2020.1.3,Win32,60,m,1,,,,,,,,0.442385,1,,,,,,117,WORD,"ID",33,branch,BRANCH,m,0.442385,,,,,,0.108333333,-0.142592593,0,0,0,,0,250,250,56,1,
,,,,,,,,,,,,,,,,,,5d30b98eb8f4a500193ce6c6,2020-08-10_13h44.54.539,lexical_decision_task_MP,2020.1.3,Win32,60,z,1,,,,,,,,0.6108,1,,,,,,341,NW,"ID",33,myrtie,MYRTIE,z,0.6108,,,,,,0.108333333,-0.142592593,0,0,0,,0,251,251,280,1,
,,,,,,,,,,,,,,,,,,5d30b98eb8f4a500193ce6c6,2020-08-10_13h44.54.539,lexical_decision_task_MP,2020.1.3,Win32,60,z,1,,,,,,,,0.643045,1,,,,,,434,NW,UN,33,impurb,PITROM,z,0.643045,,,,,,0.108333333,-0.142592593,0,0,0,,0,252,252,373,1,
,,,,,,,,,,,,,,,,,,5d30b98eb8f4a500193ce6c6,2020-08-10_13h44.54.539,lexical_decision_task_MP,2020.1.3,Win32,60,m,1,,,,,,,,0.48289,1,,,,,,175,WORD,"ID",50,fabric,FABRIC,m,0.48289,,,,,,0.108333333,-0.142592593,0,0,0,,0,253,253,114,1,
,,,,,,,,,,,,,,,,,,5d30b98eb8f4a500193ce6c6,2020-08-10_13h44.54.539,lexical_decision_task_MP,2020.1.3,Win32,60,z,1,,,,,,,,0.552705,1,,,,,,332,NW,"ID",33,vangue,VANGUE,z,0.552705,,,,,,0.108333333,-0.142592593,0,0,0,,0,254,254,271,1,
,,,,,,,,,,,,,,,,,,5d30b98eb8f4a500193ce6c6,2020-08-10_13h44.54.539,lexical_decision_task_MP,2020.1.3,Win32,60,m,1,,,,,,,,0.611255,1,,,,,,25,WORD,UN,50,sprint,DOMAIN,m,0.611255,,,,,,0.108333333,-0.142592593,0,0,0,,0,255,255,204,1,
,,,,,,,,,,,,,,,,,,5d30b98eb8f4a500193ce6c6,2020-08-10_13h44.54.539,lexical_decision_task_MP,2020.1.3,Win32,60,z,1,,,,,,,,0.603875,1,,,,,,400,NW,"ID",50,wearox,WEAROX,z,0.603875,,,,,,0.108333333,-0.142592593,0,0,0,,0,256,256,339,1,
,,,,,,,,,,,,,,,,,,5d30b98eb8f4a500193ce6c6,2020-08-10_13h44.54.539,lexical_decision_task_MP,2020.1.3,Win32,60,m,1,,,,,,,,0.59654,1,,,,,,48,WORD,UN,50,survey,WALNUT,m,0.59654,,,,,,0.108333333,-0.142592593,0,0,0,,0,257,257,227,1,
,,,,,,,,,,,,,,,,,,5d30b98eb8f4a500193ce6c6,2020-08-10_13h44.54.539,lexical_decision_task_MP,2020.1.3,Win32,60,m,1,,,,,,,,0.520035,1,,,,,,80,WORD,"ID",33,family,FAMILY,m,0.520035,,,,,,0.108333333,-0.142592593,0,0,0,,0,258,258,19,1,
,,,,,,,,,,,,,,,,,,5d30b98eb8f4a500193ce6c6,2020-08-10_13h44.54.539,lexical_decision_task_MP,2020.1.3,Win32,60,z,1,,,,,,,,0.6204,1,,,,,,452,NW,UN,33,bolvis,SURDEN,z,0.6204,,,,,,0.108333333,-0.142592593,0,0,0,,0,259,259,391,1,
,,,,,,,,,,,,,,,,,,5d30b98eb8f4a500193ce6c6,2020-08-10_13h44.54.539,lexical_decision_task_MP,2020.1.3,Win32,60,m,1,,,,,,,,0.603585,1,,,,,,53,WORD,UN,50,ramble,POLICE,m,0.603585,,,,,,0.108333333,-0.142592593,0,0,0,,0,260,260,232,1,
,,,,,,,,,,,,,,,,,,5d30b98eb8f4a500193ce6c6,2020-08-10_13h44.54.539,lexical_decision_task_MP,2020.1.3,Win32,60,m,1,,,,,,,,1.069415,1,,,,,,125,WORD,"ID",50,nickel,NICKEL,m,1.069415,,,,,,0.108333333,-0.142592593,0,0,0,,0,261,261,64,1,
,,,,,,,,,,,,,,,,,,5d30b98eb8f4a500193ce6c6,2020-08-10_13h44.54.539,lexical_decision_task_MP,2020.1.3,Win32,60,z,1,,,,,,,,0.867875,1,,,,,,352,NW,"ID",33,tringe,TRINGE,z,0.867875,,,,,,0.108333333,-0.142592593,0,0,0,,0,262,262,291,1,
,,,,,,,,,,,,,,,,,,5d30b98eb8f4a500193ce6c6,2020-08-10_13h44.54.539,lexical_decision_task_MP,2020.1.3,Win32,60,m,1,,,,,,,,0.473435,1,,,,,,17,WORD,UN,50,humble,CHARGE,m,0.473435,,,,,,0.108333333,-0.142592593,0,0,0,,0,263,263,196,1,
,,,,,,,,,,,,,,,,,,5d30b98eb8f4a500193ce6c6,2020-08-10_13h44.54.539,lexical_decision_task_MP,2020.1.3,Win32,60,m,0,,,,,,,,0.456605,0,,,,,,305,NW,"ID",33,forgle,FORGLE,z,0.456605,,,,,,0.108333333,-0.142592593,0,0,0,,0,264,264,244,1,
,,,,,,,,,,,,,,,,,,5d30b98eb8f4a500193ce6c6,2020-08-10_13h44.54.539,lexical_decision_task_MP,2020.1.3,Win32,60,z,1,,,,,,,,0.584375,1,,,,,,460,NW,UN,33,justre,MINGAR,z,0.584375,,,,,,0.108333333,-0.142592593,0,0,0,,0,265,265,399,1,
,,,,,,,,,,,,,,,,,,5d30b98eb8f4a500193ce6c6,2020-08-10_13h44.54.539,lexical_decision_task_MP,2020.1.3,Win32,60,m,1,,,,,,,,0.562015,1,,,,,,172,WORD,"ID",50,patrol,PATROL,m,0.562015,,,,,,0.108333333,-0.142592593,0,0,0,,0,266,266,111,1,
,,,,,,,,,,,,,,,,,,5d30b98eb8f4a500193ce6c6,2020-08-10_13h44.54.539,lexical_decision_task_MP,2020.1.3,Win32,60,z,1,,,,,,,,0.629585,1,,,,,,330,NW,"ID",33,kensom,KENSOM,z,0.629585,,,,,,0.108333333,-0.142592593,0,0,0,,0,267,267,269,1,
,,,,,,,,,,,,,,,,,,5d30b98eb8f4a500193ce6c6,2020-08-10_13h44.54.539,lexical_decision_task_MP,2020.1.3,Win32,60,m,1,,,,,,,,0.701635,1,,,,,,60,WORD,UN,50,fright,PENCIL,m,0.701635,,,,,,0.108333333,-0.142592593,0,0,0,,0,268,268,239,1,
,,,,,,,,,,,,,,,,,,5d30b98eb8f4a500193ce6c6,2020-08-10_13h44.54.539,lexical_decision_task_MP,2020.1.3,Win32,60,m,1,,,,,,,,0.545245,1,,,,,,49,WORD,UN,50,snatch,SURVEY,m,0.545245,,,,,,0.108333333,-0.142592593,0,0,0,,0,269,269,228,1,
,,,,,,,,,,,,,,,,,,5d30b98eb8f4a500193ce6c6,2020-08-10_13h44.54.539,lexical_decision_task_MP,2020.1.3,Win32,60,m,1,,,,,,,,0.5581,1,,,,,,238,WORD,UN,33,behalf,FLOWER,m,0.5581,,,,,,0.108333333,-0.142592593,0,0,0,,0,270,270,177,1,
,,,,,,,,,,,,,,,,,,5d30b98eb8f4a500193ce6c6,2020-08-10_13h44.54.539,lexical_decision_task_MP,2020.1.3,Win32,60,m,1,,,,,,,,0.937425,1,,,,,,191,WORD,UN,33,beacon,STABLE,m,0.937425,,,,,,0.108333333,-0.142592593,0,0,0,,0,271,271,130,1,
,,,,,,,,,,,,,,,,,,5d30b98eb8f4a500193ce6c6,2020-08-10_13h44.54.539,lexical_decision_task_MP,2020.1.3,Win32,60,m,1,,,,,,,,0.805325,1,,,,,,188,WORD,UN,33,censor,SOCIAL,m,0.805325,,,,,,0.108333333,-0.142592593,0,0,0,,0,272,272,127,1,
,,,,,,,,,,,,,,,,,,5d30b98eb8f4a500193ce6c6,2020-08-10_13h44.54.539,lexical_decision_task_MP,2020.1.3,Win32,60,m,1,,,,,,,,0.750365,1,,,,,,61,WORD,"ID",33,ponder,PONDER,m,0.750365,,,,,,0.108333333,-0.142592593,0,0,0,,0,273,273,0,1,
,,,,,,,,,,,,,,,,,,5d30b98eb8f4a500193ce6c6,2020-08-10_13h44.54.539,lexical_decision_task_MP,2020.1.3,Win32,60,z,1,,,,,,,,0.60995,1,,,,,,419,NW,"ID",50,slount,SLOUNT,z,0.60995,,,,,,0.108333333,-0.142592593,0,0,0,,0,274,274,358,1,
,,,,,,,,,,,,,,,,,,5d30b98eb8f4a500193ce6c6,2020-08-10_13h44.54.539,lexical_decision_task_MP,2020.1.3,Win32,60,z,1,,,,,,,,0.675645,1,,,,,,359,NW,"ID",33,fonver,FONVER,z,0.675645,,,,,,0.108333333,-0.142592593,0,0,0,,0,275,275,298,1,
,,,,,,,,,,,,,,,,,,5d30b98eb8f4a500193ce6c6,2020-08-10_13h44.54.539,lexical_decision_task_MP,2020.1.3,Win32,60,m,1,,,,,,,,0.609865,1,,,,,,168,WORD,"ID",50,answer,ANSWER,m,0.609865,,,,,,0.108333333,-0.142592593,0,0,0,,0,276,276,107,1,
,,,,,,,,,,,,,,,,,,5d30b98eb8f4a500193ce6c6,2020-08-10_13h44.54.539,lexical_decision_task_MP,2020.1.3,Win32,60,m,1,,,,,,,,0.53052,1,,,,,,230,WORD,UN,33,mother,FRINGE,m,0.53052,,,,,,0.108333333,-0.142592593,0,0,0,,0,277,277,169,1,
,,,,,,,,,,,,,,,,,,5d30b98eb8f4a500193ce6c6,2020-08-10_13h44.54.539,lexical_decision_task_MP,2020.1.3,Win32,60,z,1,,,,,,,,0.678145,1,,,,,,273,NW,UN,50,fumblo,SORTEL,z,0.678145,,,,,,0.108333333,-0.142592593,0,0,0,,0,278,278,452,1,
,,,,,,,,,,,,,,,,,,5d30b98eb8f4a500193ce6c6,2020-08-10_13h44.54.539,lexical_decision_task_MP,2020.1.3,Win32,60,z,1,,,,,,,,0.565425,1,,,,,,450,NW,UN,33,cainky,PHRECT,z,0.565425,,,,,,0.108333333,-0.142592593,0,0,0,,0,279,279,389,1,
,,,,,,,,,,,,,,,,,,5d30b98eb8f4a500193ce6c6,2020-08-10_13h44.54.539,lexical_decision_task_MP,2020.1.3,Win32,60,z,1,,,,,,,,0.759105,1,,,,,,269,NW,UN,50,wrimsy,ORCHET,z,0.759105,,,,,,0.108333333,-0.142592593,0,0,0,,0,280,280,448,1,
,,,,,,,,,,,,,,,,,,5d30b98eb8f4a500193ce6c6,2020-08-10_13h44.54.539,lexical_decision_task_MP,2020.1.3,Win32,60,m,1,,,,,,,,0.55472,1,,,,,,235,WORD,UN,33,pirate,GRUMPY,m,0.55472,,,,,,0.108333333,-0.142592593,0,0,0,,0,281,281,174,1,
,,,,,,,,,,,,,,,,,,5d30b98eb8f4a500193ce6c6,2020-08-10_13h44.54.539,lexical_decision_task_MP,2020.1.3,Win32,60,m,1,,,,,,,,0.485785,1,,,,,,22,WORD,UN,50,wealth,JOCKEY,m,0.485785,,,,,,0.108333333,-0.142592593,0,0,0,,0,282,282,201,1,
,,,,,,,,,,,,,,,,,,5d30b98eb8f4a500193ce6c6,2020-08-10_13h44.54.539,lexical_decision_task_MP,2020.1.3,Win32,60,z,1,,,,,,,,0.698625,1,,,,,,440,NW,UN,33,rastoe,SARIDE,z,0.698625,,,,,,0.108333333,-0.142592593,0,0,0,,0,283,283,379,1,
,,,,,,,,,,,,,,,,,,5d30b98eb8f4a500193ce6c6,2020-08-10_13h44.54.539,lexical_decision_task_MP,2020.1.3,Win32,60,z,1,,,,,,,,0.761345,1,,,,,,342,NW,"ID",33,randow,RANDOW,z,0.761345,,,,,,0.108333333,-0.142592593,0,0,0,,0,284,284,281,1,
,,,,,,,,,,,,,,,,,,5d30b98eb8f4a500193ce6c6,2020-08-10_13h44.54.539,lexical_decision_task_MP,2020.1.3,Win32,60,m,1,,,,,,,,0.724825,1,,,,,,214,WORD,UN,33,phobia,INTAKE,m,0.724825,,,,,,0.108333333,-0.142592593,0,0,0,,0,285,285,153,1,
,,,,,,,,,,,,,,,,,,5d30b98eb8f4a500193ce6c6,2020-08-10_13h44.54.539,lexical_decision_task_MP,2020.1.3,Win32,60,z,1,,,,,,,,0.66561,1,,,,,,384,NW,"ID",50,guesco,GUESCO,z,0.66561,,,,,,0.108333333,-0.142592593,0,0,0,,0,286,286,323,1,
,,,,,,,,,,,,,,,,,,5d30b98eb8f4a500193ce6c6,2020-08-10_13h44.54.539,lexical_decision_task_MP,2020.1.3,Win32,60,z,1,,,,,,,,0.678435,1,,,,,,413,NW,"ID",50,equats,EQUATS,z,0.678435,,,,,,0.108333333,-0.142592593,0,0,0,,0,287,287,352,1,
,,,,,,,,,,,,,,,,,,5d30b98eb8f4a500193ce6c6,2020-08-10_13h44.54.539,lexical_decision_task_MP,2020.1.3,Win32,60,m,1,,,,,,,,0.62145,1,,,,,,198,WORD,UN,33,invoke,WICKED,m,0.62145,,,,,,0.108333333,-0.142592593,0,0,0,,0,288,288,137,1,
,,,,,,,,,,,,,,,,,,5d30b98eb8f4a500193ce6c6,2020-08-10_13h44.54.539,lexical_decision_task_MP,2020.1.3,Win32,60,z,1,,,,,,,,0.63764,1,,,,,,296,NW,UN,50,fertic,BEINCH,z,0.63764,,,,,,0.108333333,-0.142592593,0,0,0,,0,289,289,475,1,
,,,,,,,,,,,,,,,,,,5d30b98eb8f4a500193ce6c6,2020-08-10_13h44.54.539,lexical_decision_task_MP,2020.1.3,Win32,60,z,1,,,,,,,,0.62093,1,,,,,,301,NW,"ID",33,fainch,FAINCH,z,0.62093,,,,,,0.108333333,-0.142592593,0,0,0,,0,290,290,240,1,
,,,,,,,,,,,,,,,,,,5d30b98eb8f4a500193ce6c6,2020-08-10_13h44.54.539,lexical_decision_task_MP,2020.1.3,Win32,60,m,1,,,,,,,,0.59641,1,,,,,,15,WORD,UN,50,faucet,AMOUNT,m,0.59641,,,,,,0.108333333,-0.142592593,0,0,0,,0,291,291,194,1,
,,,,,,,,,,,,,,,,,,5d30b98eb8f4a500193ce6c6,2020-08-10_13h44.54.539,lexical_decision_task_MP,2020.1.3,Win32,60,m,0,,,,,,,,0.566755,0,,,,,,241,NW,UN,50,unwert,SMENCO,z,0.566755,,,,,,0.108333333,-0.142592593,0,0,0,,0,292,292,420,1,
,,,,,,,,,,,,,,,,,,5d30b98eb8f4a500193ce6c6,2020-08-10_13h44.54.539,lexical_decision_task_MP,2020.1.3,Win32,60,m,1,,,,,,,,0.58558,1,,,,,,76,WORD,"ID",33,exotic,EXOTIC,m,0.58558,,,,,,0.108333333,-0.142592593,0,0,0,,0,293,293,15,1,
,,,,,,,,,,,,,,,,,,5d30b98eb8f4a500193ce6c6,2020-08-10_13h44.54.539,lexical_decision_task_MP,2020.1.3,Win32,60,m,1,,,,,,,,0.458145,1,,,,,,55,WORD,UN,50,ambush,STROKE,m,0.458145,,,,,,0.108333333,-0.142592593,0,0,0,,0,294,294,234,1,
,,,,,,,,,,,,,,,,,,5d30b98eb8f4a500193ce6c6,2020-08-10_13h44.54.539,lexical_decision_task_MP,2020.1.3,Win32,60,m,1,,,,,,,,0.561905,1,,,,,,43,WORD,UN,50,foster,TONGUE,m,0.561905,,,,,,0.108333333,-0.142592593,0,0,0,,0,295,295,222,1,
,,,,,,,,,,,,,,,,,,5d30b98eb8f4a500193ce6c6,2020-08-10_13h44.54.539,lexical_decision_task_MP,2020.1.3,Win32,60,m,1,,,,,,,,0.947355,1,,,,,,4,WORD,UN,50,plunge,TRENCH,m,0.947355,,,,,,0.108333333,-0.142592593,0,0,0,,0,296,296,183,1,
,,,,,,,,,,,,,,,,,,5d30b98eb8f4a500193ce6c6,2020-08-10_13h44.54.539,lexical_decision_task_MP,2020.1.3,Win32,60,m,0,,,,,,,,0.470505,0,,,,,,293,NW,UN,50,inhort,SWANCE,z,0.470505,,,,,,0.108333333,-0.142592593,0,0,0,,0,297,297,472,1,
,,,,,,,,,,,,,,,,,,5d30b98eb8f4a500193ce6c6,2020-08-10_13h44.54.539,lexical_decision_task_MP,2020.1.3,Win32,60,m,1,,,,,,,,0.7659,1,,,,,,131,WORD,"ID",50,quench,QUENCH,m,0.7659,,,,,,0.108333333,-0.142592593,0,0,0,,0,298,298,70,1,
,,,,,,,,,,,,,,,,,,5d30b98eb8f4a500193ce6c6,2020-08-10_13h44.54.539,lexical_decision_task_MP,2020.1.3,Win32,60,z,1,,,,,,,,0.62373,1,,,,,,474,NW,UN,33,acrise,HABLIN,z,0.62373,,,,,,0.108333333,-0.142592593,0,0,0,,0,299,299,413,1,
,,,,,,,,,,,,,,,,,,5d30b98eb8f4a500193ce6c6,2020-08-10_13h44.54.539,lexical_decision_task_MP,2020.1.3,Win32,60,z,1,,,,,,,,0.68812,1,,,,,,255,NW,UN,50,inlors,APIGHT,z,0.68812,,,,,,0.108333333,-0.142592593,0,0,0,,0,300,300,434,1,
,,,,,,,,,,,,,,,,,,5d30b98eb8f4a500193ce6c6,2020-08-10_13h44.54.539,lexical_decision_task_MP,2020.1.3,Win32,60,z,1,,,,,,,,0.63109,1,,,,,,349,NW,"ID",33,asylen,ASYLEN,z,0.63109,,,,,,0.108333333,-0.142592593,0,0,0,,0,301,301,288,1,
,,,,,,,,,,,,,,,,,,5d30b98eb8f4a500193ce6c6,2020-08-10_13h44.54.539,lexical_decision_task_MP,2020.1.3,Win32,60,z,1,,,,,,,,0.599425,1,,,,,,417,NW,"ID",50,earoud,EAROUD,z,0.599425,,,,,,0.108333333,-0.142592593,0,0,0,,0,302,302,356,1,
,,,,,,,,,,,,,,,,,,5d30b98eb8f4a500193ce6c6,2020-08-10_13h44.54.539,lexical_decision_task_MP,2020.1.3,Win32,60,z,1,,,,,,,,1.023905,1,,,,,,314,NW,"ID",33,sprine,SPRINE,z,1.023905,,,,,,0.108333333,-0.142592593,0,0,0,,0,303,303,253,1,
,,,,,,,,,,,,,,,,,,5d30b98eb8f4a500193ce6c6,2020-08-10_13h44.54.539,lexical_decision_task_MP,2020.1.3,Win32,60,z,1,,,,,,,,0.712605,1,,,,,,433,NW,UN,33,pitrom,DRANCE,z,0.712605,,,,,,0.108333333,-0.142592593,0,0,0,,0,304,304,372,1,
,,,,,,,,,,,,,,,,,,5d30b98eb8f4a500193ce6c6,2020-08-10_13h44.54.539,lexical_decision_task_MP,2020.1.3,Win32,60,m,1,,,,,,,,0.725425,1,,,,,,94,WORD,"ID",33,travel,TRAVEL,m,0.725425,,,,,,0.108333333,-0.142592593,0,0,0,,0,305,305,33,1,
,,,,,,,,,,,,,,,,,,5d30b98eb8f4a500193ce6c6,2020-08-10_13h44.54.539,lexical_decision_task_MP,2020.1.3,Win32,60,z,1,,,,,,,,0.674095,1,,,,,,468,NW,UN,33,padifs,WICTOR,z,0.674095,,,,,,0.108333333,-0.142592593,0,0,0,,0,306,306,407,1,
,,,,,,,,,,,,,,,,,,5d30b98eb8f4a500193ce6c6,2020-08-10_13h44.54.539,lexical_decision_task_MP,2020.1.3,Win32,60,z,1,,,,,,,,0.65752,1,,,,,,432,NW,UN,33,drance,LUNKER,z,0.65752,,,,,,0.108333333,-0.142592593,0,0,0,,0,307,307,371,1,
,,,,,,,,,,,,,,,,,,5d30b98eb8f4a500193ce6c6,2020-08-10_13h44.54.539,lexical_decision_task_MP,2020.1.3,Win32,60,m,1,,,,,,,,0.74492,1,,,,,,215,WORD,UN,33,lumber,PHOBIA,m,0.74492,,,,,,0.108333333,-0.142592593,0,0,0,,0,308,308,154,1,
,,,,,,,,,,,,,,,,,,5d30b98eb8f4a500193ce6c6,2020-08-10_13h44.54.539,lexical_decision_task_MP,2020.1.3,Win32,60,z,1,,,,,,,,0.628125,1,,,,,,353,NW,"ID",33,clurey,CLUREY,z,0.628125,,,,,,0.108333333,-0.142592593,0,0,0,,0,309,309,292,1,
,,,,,,,,,,,,,,,,,,5d30b98eb8f4a500193ce6c6,2020-08-10_13h44.54.539,lexical_decision_task_MP,2020.1.3,Win32,60,m,1,,,,,,,,0.71526,1,,,,,,32,WORD,UN,50,scream,BUCKLE,m,0.71526,,,,,,0.108333333,-0.142592593,0,0,0,,0,310,310,211,1,
,,,,,,,,,,,,,,,,,,5d30b98eb8f4a500193ce6c6,2020-08-10_13h44.54.539,lexical_decision_task_MP,2020.1.3,Win32,60,z,1,,,,,,,,0.728915,1,,,,,,365,NW,"ID",50,guairt,GUAIRT,z,0.728915,,,,,,0.108333333,-0.142592593,0,0,0,,0,311,311,304,1,
,,,,,,,,,,,,,,,,,,5d30b98eb8f4a500193ce6c6,2020-08-10_13h44.54.539,lexical_decision_task_MP,2020.1.3,Win32,60,m,1,,,,,,,,0.917255,1,,,,,,45,WORD,UN,50,single,CLERGY,m,0.917255,,,,,,0.108333333,-0.142592593,0,0,0,,0,312,312,224,1,
,,,,,,,,,,,,,,,,,,5d30b98eb8f4a500193ce6c6,2020-08-10_13h44.54.539,lexical_decision_task_MP,2020.1.3,Win32,60,z,1,,,,,,,,0.72128,1,,,,,,409,NW,"ID",50,elopia,ELOPIA,z,0.72128,,,,,,0.108333333,-0.142592593,0,0,0,,0,313,313,348,1,
,,,,,,,,,,,,,,,,,,5d30b98eb8f4a500193ce6c6,2020-08-10_13h44.54.539,lexical_decision_task_MP,2020.1.3,Win32,60,m,1,,,,,,,,0.869165,1,,,,,,195,WORD,UN,33,credit,RESIGN,m,0.869165,,,,,,0.108333333,-0.142592593,0,0,0,,0,314,314,134,1,
,,,,,,,,,,,,,,,,,,5d30b98eb8f4a500193ce6c6,2020-08-10_13h44.54.539,lexical_decision_task_MP,2020.1.3,Win32,60,m,1,,,,,,,,0.61262,1,,,,,,190,WORD,UN,33,stable,BACKUP,m,0.61262,,,,,,0.108333333,-0.142592593,0,0,0,,0,315,315,129,1,
,,,,,,,,,,,,,,,,,,5d30b98eb8f4a500193ce6c6,2020-08-10_13h44.54.539,lexical_decision_task_MP,2020.1.3,Win32,60,m,1,,,,,,,,0.573865,1,,,,,,72,WORD,"ID",33,bright,BRIGHT,m,0.573865,,,,,,0.108333333,-0.142592593,0,0,0,,0,316,316,11,1,
,,,,,,,,,,,,,,,,,,5d30b98eb8f4a500193ce6c6,2020-08-10_13h44.54.539,lexical_decision_task_MP,2020.1.3,Win32,60,z,1,,,,,,,,0.584945,1,,,,,,350,NW,"ID",33,nagurs,NAGURS,z,0.584945,,,,,,0.108333333,-0.142592593,0,0,0,,0,317,317,289,1,
,,,,,,,,,,,,,,,,,,5d30b98eb8f4a500193ce6c6,2020-08-10_13h44.54.539,lexical_decision_task_MP,2020.1.3,Win32,60,m,1,,,,,,,,0.53775,1,,,,,,146,WORD,"ID",50,couple,COUPLE,m,0.53775,,,,,,0.108333333,-0.142592593,0,0,0,,0,318,318,85,1,
,,,,,,,,,,,,,,,,,,5d30b98eb8f4a500193ce6c6,2020-08-10_13h44.54.539,lexical_decision_task_MP,2020.1.3,Win32,60,m,1,,,,,,,,0.510085,1,,,,,,27,WORD,UN,50,comedy,SCREAM,m,0.510085,,,,,,0.108333333,-0.142592593,0,0,0,,0,319,319,206,1,
,,,,,,,,,,,,,,,,,,5d30b98eb8f4a500193ce6c6,2020-08-10_13h44.54.539,lexical_decision_task_MP,2020.1.3,Win32,60,z,1,,,,,,,,0.700825,1,,,,,,356,NW,"ID",33,othnis,OTHNIS,z,0.700825,,,,,,0.108333333,-0.142592593,0,0,0,,0,320,320,295,1,
,,,,,,,,,,,,,,,,,,5d30b98eb8f4a500193ce6c6,2020-08-10_13h44.54.539,lexical_decision_task_MP,2020.1.3,Win32,60,m,1,,,,,,,,0.480055,1,,,,,,163,WORD,"ID",50,string,STRING,m,0.480055,,,,,,0.108333333,-0.142592593,0,0,0,,0,321,321,102,1,
,,,,,,,,,,,,,,,,,,5d30b98eb8f4a500193ce6c6,2020-08-10_13h44.54.539,lexical_decision_task_MP,2020.1.3,Win32,60,z,1,,,,,,,,0.60634,1,,,,,,416,NW,"ID",50,pathel,PATHEL,z,0.60634,,,,,,0.108333333,-0.142592593,0,0,0,,0,322,322,355,1,
,,,,,,,,,,,,,,,,,,5d30b98eb8f4a500193ce6c6,2020-08-10_13h44.54.539,lexical_decision_task_MP,2020.1.3,Win32,60,z,1,,,,,,,,0.58311,1,,,,,,411,NW,"ID",50,orchin,ORCHIN,z,0.58311,,,,,,0.108333333,-0.142592593,0,0,0,,0,323,323,350,1,
,,,,,,,,,,,,,,,,,,5d30b98eb8f4a500193ce6c6,2020-08-10_13h44.54.539,lexical_decision_task_MP,2020.1.3,Win32,60,z,1,,,,,,,,0.665405,1,,,,,,364,NW,"ID",50,impote,IMPOTE,z,0.665405,,,,,,0.108333333,-0.142592593,0,0,0,,0,324,324,303,1,
,,,,,,,,,,,,,,,,,,5d30b98eb8f4a500193ce6c6,2020-08-10_13h44.54.539,lexical_decision_task_MP,2020.1.3,Win32,60,m,1,,,,,,,,0.487165,1,,,,,,89,WORD,"ID",33,permit,PERMIT,m,0.487165,,,,,,0.108333333,-0.142592593,0,0,0,,0,325,325,28,1,
,,,,,,,,,,,,,,,,,,5d30b98eb8f4a500193ce6c6,2020-08-10_13h44.54.539,lexical_decision_task_MP,2020.1.3,Win32,60,z,1,,,,,,,,0.532775,1,,,,,,346,NW,"ID",33,saudic,SAUDIC,z,0.532775,,,,,,0.108333333,-0.142592593,0,0,0,,0,326,326,285,1,
,,,,,,,,,,,,,,,,,,5d30b98eb8f4a500193ce6c6,2020-08-10_13h44.54.539,lexical_decision_task_MP,2020.1.3,Win32,60,z,1,,,,,,,,0.576585,1,,,,,,267,NW,UN,50,packes,PASINK,z,0.576585,,,,,,0.108333333,-0.142592593,0,0,0,,0,327,327,446,1,
,,,,,,,,,,,,,,,,,,5d30b98eb8f4a500193ce6c6,2020-08-10_13h44.54.539,lexical_decision_task_MP,2020.1.3,Win32,60,z,1,,,,,,,,0.55513,1,,,,,,282,NW,UN,50,veralf,PORLEX,z,0.55513,,,,,,0.108333333,-0.142592593,0,0,0,,0,328,328,461,1,
,,,,,,,,,,,,,,,,,,5d30b98eb8f4a500193ce6c6,2020-08-10_13h44.54.539,lexical_decision_task_MP,2020.1.3,Win32,60,m,1,,,,,,,,0.621695,1,,,,,,14,WORD,UN,50,orange,ALMOST,m,0.621695,,,,,,0.108333333,-0.142592593,0,0,0,,0,329,329,193,1,
,,,,,,,,,,,,,,,,,,5d30b98eb8f4a500193ce6c6,2020-08-10_13h44.54.539,lexical_decision_task_MP,2020.1.3,Win32,60,z,1,,,,,,,,0.533185,1,,,,,,375,NW,"ID",50,yorque,YORQUE,z,0.533185,,,,,,0.108333333,-0.142592593,0,0,0,,0,330,330,314,1,
,,,,,,,,,,,,,,,,,,5d30b98eb8f4a500193ce6c6,2020-08-10_13h44.54.539,lexical_decision_task_MP,2020.1.3,Win32,60,z,1,,,,,,,,0.70494,1,,,,,,377,NW,"ID",50,injore,INJORE,z,0.70494,,,,,,0.108333333,-0.142592593,0,0,0,,0,331,331,316,1,
,,,,,,,,,,,,,,,,,,5d30b98eb8f4a500193ce6c6,2020-08-10_13h44.54.539,lexical_decision_task_MP,2020.1.3,Win32,60,z,1,,,,,,,,0.52435,1,,,,,,408,NW,"ID",50,hurnia,HURNIA,z,0.52435,,,,,,0.108333333,-0.142592593,0,0,0,,0,332,332,347,1,
,,,,,,,,,,,,,,,,,,5d30b98eb8f4a500193ce6c6,2020-08-10_13h44.54.539,lexical_decision_task_MP,2020.1.3,Win32,60,z,1,,,,,,,,0.54617,1,,,,,,252,NW,UN,50,resait,STAPOD,z,0.54617,,,,,,0.108333333,-0.142592593,0,0,0,,0,333,333,431,1,
,,,,,,,,,,,,,,,,,,5d30b98eb8f4a500193ce6c6,2020-08-10_13h44.54.539,lexical_decision_task_MP,2020.1.3,Win32,60,z,1,,,,,,,,0.517725,1,,,,,,395,NW,"ID",50,colury,COLURY,z,0.517725,,,,,,0.108333333,-0.142592593,0,0,0,,0,334,334,334,1,
,,,,,,,,,,,,,,,,,,5d30b98eb8f4a500193ce6c6,2020-08-10_13h44.54.539,lexical_decision_task_MP,2020.1.3,Win32,60,m,1,,,,,,,,0.64979,1,,,,,,162,WORD,"ID",50,candle,CANDLE,m,0.64979,,,,,,0.108333333,-0.142592593,0,0,0,,0,335,335,101,1,
,,,,,,,,,,,,,,,,,,5d30b98eb8f4a500193ce6c6,2020-08-10_13h44.54.539,lexical_decision_task_MP,2020.1.3,Win32,60,m,1,,,,,,,,0.576425,1,,,,,,207,WORD,UN,33,hockey,WREATH,m,0.576425,,,,,,0.108333333,-0.142592593,0,0,0,,0,336,336,146,1,
,,,,,,,,,,,,,,,,,,5d30b98eb8f4a500193ce6c6,2020-08-10_13h44.54.539,lexical_decision_task_MP,2020.1.3,Win32,60,m,1,,,,,,,,0.578405,1,,,,,,154,WORD,"ID",50,author,AUTHOR,m,0.578405,,,,,,0.108333333,-0.142592593,0,0,0,,0,337,337,93,1,
,,,,,,,,,,,,,,,,,,5d30b98eb8f4a500193ce6c6,2020-08-10_13h44.54.539,lexical_decision_task_MP,2020.1.3,Win32,60,m,1,,,,,,,,0.59862,1,,,,,,86,WORD,"ID",33,rodent,RODENT,m,0.59862,,,,,,0.108333333,-0.142592593,0,0,0,,0,338,338,25,1,
,,,,,,,,,,,,,,,,,,5d30b98eb8f4a500193ce6c6,2020-08-10_13h44.54.539,lexical_decision_task_MP,2020.1.3,Win32,60,m,1,,,,,,,,0.49502,1,,,,,,226,WORD,UN,33,flower,CASINO,m,0.49502,,,,,,0.108333333,-0.142592593,0,0,0,,0,339,339,165,1,
,,,,,,,,,,,,,,,,,,5d30b98eb8f4a500193ce6c6,2020-08-10_13h44.54.539,lexical_decision_task_MP,2020.1.3,Win32,60,m,1,,,,,,,,0.412525,1,,,,,,23,WORD,UN,50,praise,WEALTH,m,0.412525,,,,,,0.108333333,-0.142592593,0,0,0,,0,340,340,202,1,
,,,,,,,,,,,,,,,,,,5d30b98eb8f4a500193ce6c6,2020-08-10_13h44.54.539,lexical_decision_task_MP,2020.1.3,Win32,60,m,1,,,,,,,,0.405385,1,,,,,,69,WORD,"ID",33,plenty,PLENTY,m,0.405385,,,,,,0.108333333,-0.142592593,0,0,0,,0,341,341,8,1,
,,,,,,,,,,,,,,,,,,5d30b98eb8f4a500193ce6c6,2020-08-10_13h44.54.539,lexical_decision_task_MP,2020.1.3,Win32,60,m,0,,,,,,,,0.518095,0,,,,,,396,NW,"ID",50,flengy,FLENGY,z,0.518095,,,,,,0.108333333,-0.142592593,0,0,0,,0,342,342,335,1,
,,,,,,,,,,,,,,,,,,5d30b98eb8f4a500193ce6c6,2020-08-10_13h44.54.539,lexical_decision_task_MP,2020.1.3,Win32,60,z,1,,,,,,,,0.698325,1,,,,,,367,NW,"ID",50,slique,SLIQUE,z,0.698325,,,,,,0.108333333,-0.142592593,0,0,0,,0,343,343,306,1,
,,,,,,,,,,,,,,,,,,5d30b98eb8f4a500193ce6c6,2020-08-10_13h44.54.539,lexical_decision_task_MP,2020.1.3,Win32,60,m,1,,,,,,,,0.679825,1,,,,,,185,WORD,UN,33,portal,BOTHER,m,0.679825,,,,,,0.108333333,-0.142592593,0,0,0,,0,344,344,124,1,
,,,,,,,,,,,,,,,,,,5d30b98eb8f4a500193ce6c6,2020-08-10_13h44.54.539,lexical_decision_task_MP,2020.1.3,Win32,60,z,1,,,,,,,,0.71878,1,,,,,,471,NW,UN,33,cigney,NOBEST,z,0.71878,,,,,,0.108333333,-0.142592593,0,0,0,,0,345,345,410,1,
,,,,,,,,,,,,,,,,,,5d30b98eb8f4a500193ce6c6,2020-08-10_13h44.54.539,lexical_decision_task_MP,2020.1.3,Win32,60,m,1,,,,,,,,0.667295,1,,,,,,219,WORD,UN,33,voyage,BUCKET,m,0.667295,,,,,,0.108333333,-0.142592593,0,0,0,,0,346,346,158,1,
,,,,,,,,,,,,,,,,,,5d30b98eb8f4a500193ce6c6,2020-08-10_13h44.54.539,lexical_decision_task_MP,2020.1.3,Win32,60,m,1,,,,,,,,0.722345,1,,,,,,196,WORD,UN,33,stream,CREDIT,m,0.722345,,,,,,0.108333333,-0.142592593,0,0,0,,0,347,347,135,1,
,,,,,,,,,,,,,,,,,,5d30b98eb8f4a500193ce6c6,2020-08-10_13h44.54.539,lexical_decision_task_MP,2020.1.3,Win32,60,m,1,,,,,,,,0.590765,1,,,,,,116,WORD,"ID",33,tumble,TUMBLE,m,0.590765,,,,,,0.108333333,-0.142592593,0,0,0,,0,348,348,55,1,
,,,,,,,,,,,,,,,,,,5d30b98eb8f4a500193ce6c6,2020-08-10_13h44.54.539,lexical_decision_task_MP,2020.1.3,Win32,60,z,1,,,,,,,,0.657525,1,,,,,,331,NW,"ID",33,gilfew,GILFEW,z,0.657525,,,,,,0.108333333,-0.142592593,0,0,0,,0,349,349,270,1,
,,,,,,,,,,,,,,,,,,5d30b98eb8f4a500193ce6c6,2020-08-10_13h44.54.539,lexical_decision_task_MP,2020.1.3,Win32,60,z,1,,,,,,,,0.61628,1,,,,,,376,NW,"ID",50,iguare,IGUARE,z,0.61628,,,,,,0.108333333,-0.142592593,0,0,0,,0,350,350,315,1,
,,,,,,,,,,,,,,,,,,5d30b98eb8f4a500193ce6c6,2020-08-10_13h44.54.539,lexical_decision_task_MP,2020.1.3,Win32,60,m,1,,,,,,,,0.615625,1,,,,,,186,WORD,UN,33,course,PORTAL,m,0.615625,,,,,,0.108333333,-0.142592593,0,0,0,,0,351,351,125,1,
,,,,,,,,,,,,,,,,,,5d30b98eb8f4a500193ce6c6,2020-08-10_13h44.54.539,lexical_decision_task_MP,2020.1.3,Win32,60,m,1,,,,,,,,0.56089,1,,,,,,39,WORD,UN,50,convey,INSECT,m,0.56089,,,,,,0.108333333,-0.142592593,0,0,0,,0,352,352,218,1,
,,,,,,,,,,,,,,,,,,5d30b98eb8f4a500193ce6c6,2020-08-10_13h44.54.539,lexical_decision_task_MP,2020.1.3,Win32,60,m,1,,,,,,,,0.572235,1,,,,,,78,WORD,"ID",33,column,COLUMN,m,0.572235,,,,,,0.108333333,-0.142592593,0,0,0,,0,353,353,17,1,
,,,,,,,,,,,,,,,,,,5d30b98eb8f4a500193ce6c6,2020-08-10_13h44.54.539,lexical_decision_task_MP,2020.1.3,Win32,60,m,1,,,,,,,,0.479225,1,,,,,,88,WORD,"ID",33,hunger,HUNGER,m,0.479225,,,,,,0.108333333,-0.142592593,0,0,0,,0,354,354,27,1,
,,,,,,,,,,,,,,,,,,5d30b98eb8f4a500193ce6c6,2020-08-10_13h44.54.539,lexical_decision_task_MP,2020.1.3,Win32,60,z,1,,,,,,,,0.94924,1,,,,,,306,NW,"ID",33,sounge,SOUNGE,z,0.94924,,,,,,0.108333333,-0.142592593,0,0,0,,0,355,355,245,1,
,,,,,,,,,,,,,,,,,,5d30b98eb8f4a500193ce6c6,2020-08-10_13h44.54.539,lexical_decision_task_MP,2020.1.3,Win32,60,m,1,,,,,,,,0.56168,1,,,,,,68,WORD,"ID",33,fumble,FUMBLE,m,0.56168,,,,,,0.108333333,-0.142592593,0,0,0,,0,356,356,7,1,
,,,,,,,,,,,,,,,,,,5d30b98eb8f4a500193ce6c6,2020-08-10_13h44.54.539,lexical_decision_task_MP,2020.1.3,Win32,60,z,1,,,,,,,,0.5822,1,,,,,,323,NW,"ID",33,rosail,ROSAIL,z,0.5822,,,,,,0.108333333,-0.142592593,0,0,0,,0,357,357,262,1,
,,,,,,,,,,,,,,,,,,5d30b98eb8f4a500193ce6c6,2020-08-10_13h44.54.539,lexical_decision_task_MP,2020.1.3,Win32,60,z,1,,,,,,,,0.59129,1,,,,,,470,NW,UN,33,nobest,CRUDIO,z,0.59129,,,,,,0.108333333,-0.142592593,0,0,0,,0,358,358,409,1,
,,,,,,,,,,,,,,,,,,5d30b98eb8f4a500193ce6c6,2020-08-10_13h44.54.539,lexical_decision_task_MP,2020.1.3,Win32,60,m,1,,,,,,,,0.616395,1,,,,,,8,WORD,UN,50,hustle,ABRUPT,m,0.616395,,,,,,0.108333333,-0.142592593,0,0,0,,0,359,359,187,1,
,,,,,,,,,,,,,,,,,,5d30b98eb8f4a500193ce6c6,2020-08-10_13h44.54.539,lexical_decision_task_MP,2020.1.3,Win32,60,z,1,,,,,,,,0.600715,1,,,,,,422,NW,UN,33,streld,ALCOUD,z,0.600715,,,,,,0.108333333,-0.142592593,0,0,0,,0,360,360,361,1,
,,,,,,,,,,,,,,,,,,5d30b98eb8f4a500193ce6c6,2020-08-10_13h44.54.539,lexical_decision_task_MP,2020.1.3,Win32,60,m,1,,,,,,,,0.482035,1,,,,,,160,WORD,"ID",50,violet,VIOLET,m,0.482035,,,,,,0.108333333,-0.142592593,0,0,0,,0,361,361,99,1,
,,,,,,,,,,,,,,,,,,5d30b98eb8f4a500193ce6c6,2020-08-10_13h44.54.539,lexical_decision_task_MP,2020.1.3,Win32,60,z,1,,,,,,,,0.56691,1,,,,,,366,NW,"ID",50,toshel,TOSHEL,z,0.56691,,,,,,0.108333333,-0.142592593,0,0,0,space,0,362,362,305,1,15.950015
,,,,,,,,,,,,,,,,,,5d30b98eb8f4a500193ce6c6,2020-08-10_13h44.54.539,lexical_decision_task_MP,2020.1.3,Win32,60,z,1,,,,,,,,0.65253,1,,,,,,369,NW,"ID",50,wronch,WRONCH,z,0.65253,,,,,,0.108333333,-0.142592593,0,0,0,,0,363,363,308,1,
,,,,,,,,,,,,,,,,,,5d30b98eb8f4a500193ce6c6,2020-08-10_13h44.54.539,lexical_decision_task_MP,2020.1.3,Win32,60,z,1,,,,,,,,0.49191,1,,,,,,443,NW,UN,33,jaunce,DORSEX,z,0.49191,,,,,,0.108333333,-0.142592593,0,0,0,,0,364,364,382,1,
,,,,,,,,,,,,,,,,,,5d30b98eb8f4a500193ce6c6,2020-08-10_13h44.54.539,lexical_decision_task_MP,2020.1.3,Win32,60,m,1,,,,,,,,0.616675,1,,,,,,202,WORD,UN,33,phrase,FACTOR,m,0.616675,,,,,,0.108333333,-0.142592593,0,0,0,,0,365,365,141,1,
,,,,,,,,,,,,,,,,,,5d30b98eb8f4a500193ce6c6,2020-08-10_13h44.54.539,lexical_decision_task_MP,2020.1.3,Win32,60,m,1,,,,,,,,0.48162,1,,,,,,70,WORD,"ID",33,square,SQUARE,m,0.48162,,,,,,0.108333333,-0.142592593,0,0,0,,0,366,366,9,1,
,,,,,,,,,,,,,,,,,,5d30b98eb8f4a500193ce6c6,2020-08-10_13h44.54.539,lexical_decision_task_MP,2020.1.3,Win32,60,z,1,,,,,,,,0.671705,1,,,,,,348,NW,"ID",33,dumple,DUMPLE,z,0.671705,,,,,,0.108333333,-0.142592593,0,0,0,,0,367,367,287,1,
,,,,,,,,,,,,,,,,,,5d30b98eb8f4a500193ce6c6,2020-08-10_13h44.54.539,lexical_decision_task_MP,2020.1.3,Win32,60,m,1,,,,,,,,0.51924,1,,,,,,67,WORD,"ID",33,policy,POLICY,m,0.51924,,,,,,0.108333333,-0.142592593,0,0,0,,0,368,368,6,1,
,,,,,,,,,,,,,,,,,,5d30b98eb8f4a500193ce6c6,2020-08-10_13h44.54.539,lexical_decision_task_MP,2020.1.3,Win32,60,z,1,,,,,,,,0.57113,1,,,,,,344,NW,"ID",33,scrily,SCRILY,z,0.57113,,,,,,0.108333333,-0.142592593,0,0,0,,0,369,369,283,1,
,,,,,,,,,,,,,,,,,,5d30b98eb8f4a500193ce6c6,2020-08-10_13h44.54.539,lexical_decision_task_MP,2020.1.3,Win32,60,m,1,,,,,,,,0.63054,1,,,,,,90,WORD,"ID",33,relish,RELISH,m,0.63054,,,,,,0.108333333,-0.142592593,0,0,0,,0,370,370,29,1,
,,,,,,,,,,,,,,,,,,5d30b98eb8f4a500193ce6c6,2020-08-10_13h44.54.539,lexical_decision_task_MP,2020.1.3,Win32,60,z,1,,,,,,,,0.51138,1,,,,,,360,NW,"ID",33,desory,DESORY,z,0.51138,,,,,,0.108333333,-0.142592593,0,0,0,,0,371,371,299,1,
,,,,,,,,,,,,,,,,,,5d30b98eb8f4a500193ce6c6,2020-08-10_13h44.54.539,lexical_decision_task_MP,2020.1.3,Win32,60,m,0,,,,,,,,0.523885,0,,,,,,284,NW,UN,50,prudge,SHAPLE,z,0.523885,,,,,,0.108333333,-0.142592593,0,0,0,,0,372,372,463,1,
,,,,,,,,,,,,,,,,,,5d30b98eb8f4a500193ce6c6,2020-08-10_13h44.54.539,lexical_decision_task_MP,2020.1.3,Win32,60,z,1,,,,,,,,0.62352,1,,,,,,410,NW,"ID",50,tunory,TUNORY,z,0.62352,,,,,,0.108333333,-0.142592593,0,0,0,,0,373,373,349,1,
,,,,,,,,,,,,,,,,,,5d30b98eb8f4a500193ce6c6,2020-08-10_13h44.54.539,lexical_decision_task_MP,2020.1.3,Win32,60,z,0,,,,,,,,0.41485,0,,,,,,29,WORD,UN,50,orient,SKETCH,m,0.41485,,,,,,0.108333333,-0.142592593,0,0,0,,0,374,374,208,1,
,,,,,,,,,,,,,,,,,,5d30b98eb8f4a500193ce6c6,2020-08-10_13h44.54.539,lexical_decision_task_MP,2020.1.3,Win32,60,z,1,,,,,,,,0.64953,1,,,,,,480,NW,UN,33,knisma,ROBULY,z,0.64953,,,,,,0.108333333,-0.142592593,0,0,0,,0,375,375,419,1,
,,,,,,,,,,,,,,,,,,5d30b98eb8f4a500193ce6c6,2020-08-10_13h44.54.539,lexical_decision_task_MP,2020.1.3,Win32,60,m,1,,,,,,,,0.83273,1,,,,,,209,WORD,UN,33,monkey,SEARCH,m,0.83273,,,,,,0.108333333,-0.142592593,0,0,0,,0,376,376,148,1,
,,,,,,,,,,,,,,,,,,5d30b98eb8f4a500193ce6c6,2020-08-10_13h44.54.539,lexical_decision_task_MP,2020.1.3,Win32,60,m,1,,,,,,,,0.591125,1,,,,,,147,WORD,"ID",50,garlic,GARLIC,m,0.591125,,,,,,0.108333333,-0.142592593,0,0,0,,0,377,377,86,1,
,,,,,,,,,,,,,,,,,,5d30b98eb8f4a500193ce6c6,2020-08-10_13h44.54.539,lexical_decision_task_MP,2020.1.3,Win32,60,z,1,,,,,,,,0.58555,1,,,,,,355,NW,"ID",33,zingly,ZINGLY,z,0.58555,,,,,,0.108333333,-0.142592593,0,0,0,,0,378,378,294,1,
,,,,,,,,,,,,,,,,,,5d30b98eb8f4a500193ce6c6,2020-08-10_13h44.54.539,lexical_decision_task_MP,2020.1.3,Win32,60,z,1,,,,,,,,0.80362,1,,,,,,423,NW,UN,33,praile,STRELD,z,0.80362,,,,,,0.108333333,-0.142592593,0,0,0,,0,379,379,362,1,
,,,,,,,,,,,,,,,,,,5d30b98eb8f4a500193ce6c6,2020-08-10_13h44.54.539,lexical_decision_task_MP,2020.1.3,Win32,60,z,1,,,,,,,,0.64549,1,,,,,,447,NW,UN,33,sadent,GIRCUE,z,0.64549,,,,,,0.108333333,-0.142592593,0,0,0,,0,380,380,386,1,
,,,,,,,,,,,,,,,,,,5d30b98eb8f4a500193ce6c6,2020-08-10_13h44.54.539,lexical_decision_task_MP,2020.1.3,Win32,60,z,1,,,,,,,,0.63634,1,,,,,,392,NW,"ID",50,rouncy,ROUNCY,z,0.63634,,,,,,0.108333333,-0.142592593,0,0,0,,0,381,381,331,1,
,,,,,,,,,,,,,,,,,,5d30b98eb8f4a500193ce6c6,2020-08-10_13h44.54.539,lexical_decision_task_MP,2020.1.3,Win32,60,m,1,,,,,,,,0.69204,1,,,,,,152,WORD,"ID",50,rocket,ROCKET,m,0.69204,,,,,,0.108333333,-0.142592593,0,0,0,,0,382,382,91,1,
,,,,,,,,,,,,,,,,,,5d30b98eb8f4a500193ce6c6,2020-08-10_13h44.54.539,lexical_decision_task_MP,2020.1.3,Win32,60,z,1,,,,,,,,0.512915,1,,,,,,391,NW,"ID",50,theldy,THELDY,z,0.512915,,,,,,0.108333333,-0.142592593,0,0,0,,0,383,383,330,1,
,,,,,,,,,,,,,,,,,,5d30b98eb8f4a500193ce6c6,2020-08-10_13h44.54.539,lexical_decision_task_MP,2020.1.3,Win32,60,z,1,,,,,,,,0.816055,1,,,,,,455,NW,UN,33,broget,TONDLE,z,0.816055,,,,,,0.108333333,-0.142592593,0,0,0,,0,384,384,394,1,
,,,,,,,,,,,,,,,,,,5d30b98eb8f4a500193ce6c6,2020-08-10_13h44.54.539,lexical_decision_task_MP,2020.1.3,Win32,60,z,1,,,,,,,,0.687205,1,,,,,,406,NW,"ID",50,nouply,NOUPLY,z,0.687205,,,,,,0.108333333,-0.142592593,0,0,0,,0,385,385,345,1,
,,,,,,,,,,,,,,,,,,5d30b98eb8f4a500193ce6c6,2020-08-10_13h44.54.539,lexical_decision_task_MP,2020.1.3,Win32,60,z,1,,,,,,,,0.506965,1,,,,,,254,NW,UN,50,apight,VAROSH,z,0.506965,,,,,,0.108333333,-0.142592593,0,0,0,,0,386,386,433,1,
,,,,,,,,,,,,,,,,,,5d30b98eb8f4a500193ce6c6,2020-08-10_13h44.54.539,lexical_decision_task_MP,2020.1.3,Win32,60,z,1,,,,,,,,0.586605,1,,,,,,435,NW,UN,33,frutan,IMPURB,z,0.586605,,,,,,0.108333333,-0.142592593,0,0,0,,0,387,387,374,1,
,,,,,,,,,,,,,,,,,,5d30b98eb8f4a500193ce6c6,2020-08-10_13h44.54.539,lexical_decision_task_MP,2020.1.3,Win32,60,z,1,,,,,,,,0.5244,1,,,,,,446,NW,UN,33,gircue,RUNAMO,z,0.5244,,,,,,0.108333333,-0.142592593,0,0,0,,0,388,388,385,1,
,,,,,,,,,,,,,,,,,,5d30b98eb8f4a500193ce6c6,2020-08-10_13h44.54.539,lexical_decision_task_MP,2020.1.3,Win32,60,z,1,,,,,,,,0.456515,1,,,,,,362,NW,"ID",50,tireau,TIREAU,z,0.456515,,,,,,0.108333333,-0.142592593,0,0,0,,0,389,389,301,1,
,,,,,,,,,,,,,,,,,,5d30b98eb8f4a500193ce6c6,2020-08-10_13h44.54.539,lexical_decision_task_MP,2020.1.3,Win32,60,z,0,,,,,,,,0.455045,0,,,,,,233,WORD,UN,33,clumsy,NATURE,m,0.455045,,,,,,0.108333333,-0.142592593,0,0,0,,0,390,390,172,1,
,,,,,,,,,,,,,,,,,,5d30b98eb8f4a500193ce6c6,2020-08-10_13h44.54.539,lexical_decision_task_MP,2020.1.3,Win32,60,m,1,,,,,,,,0.469305,1,,,,,,137,WORD,"ID",50,finger,FINGER,m,0.469305,,,,,,0.108333333,-0.142592593,0,0,0,,0,391,391,76,1,
,,,,,,,,,,,,,,,,,,5d30b98eb8f4a500193ce6c6,2020-08-10_13h44.54.539,lexical_decision_task_MP,2020.1.3,Win32,60,m,1,,,,,,,,0.588785,1,,,,,,74,WORD,"ID",33,plaque,PLAQUE,m,0.588785,,,,,,0.108333333,-0.142592593,0,0,0,,0,392,392,13,1,
,,,,,,,,,,,,,,,,,,5d30b98eb8f4a500193ce6c6,2020-08-10_13h44.54.539,lexical_decision_task_MP,2020.1.3,Win32,60,z,1,,,,,,,,0.67076,1,,,,,,325,NW,"ID",33,thruse,THRUSE,z,0.67076,,,,,,0.108333333,-0.142592593,0,0,0,,0,393,393,264,1,
,,,,,,,,,,,,,,,,,,5d30b98eb8f4a500193ce6c6,2020-08-10_13h44.54.539,lexical_decision_task_MP,2020.1.3,Win32,60,z,1,,,,,,,,0.74089,1,,,,,,297,NW,UN,50,piergy,FERTIC,z,0.74089,,,,,,0.108333333,-0.142592593,0,0,0,,0,394,394,476,1,
,,,,,,,,,,,,,,,,,,5d30b98eb8f4a500193ce6c6,2020-08-10_13h44.54.539,lexical_decision_task_MP,2020.1.3,Win32,60,z,1,,,,,,,,0.592635,1,,,,,,300,NW,UN,50,smenco,YARION,z,0.592635,,,,,,0.108333333,-0.142592593,0,0,0,,0,395,395,479,1,
,,,,,,,,,,,,,,,,,,5d30b98eb8f4a500193ce6c6,2020-08-10_13h44.54.539,lexical_decision_task_MP,2020.1.3,Win32,60,z,1,,,,,,,,0.578815,1,,,,,,324,NW,"ID",33,steikh,STEIKH,z,0.578815,,,,,,0.108333333,-0.142592593,0,0,0,,0,396,396,263,1,
,,,,,,,,,,,,,,,,,,5d30b98eb8f4a500193ce6c6,2020-08-10_13h44.54.539,lexical_decision_task_MP,2020.1.3,Win32,60,z,1,,,,,,,,0.583245,1,,,,,,294,NW,UN,50,gleath,INHORT,z,0.583245,,,,,,0.108333333,-0.142592593,0,0,0,,0,397,397,473,1,
,,,,,,,,,,,,,,,,,,5d30b98eb8f4a500193ce6c6,2020-08-10_13h44.54.539,lexical_decision_task_MP,2020.1.3,Win32,60,m,1,,,,,,,,0.63262,1,,,,,,182,WORD,UN,33,absent,WINTER,m,0.63262,,,,,,0.108333333,-0.142592593,0,0,0,,0,398,398,121,1,
,,,,,,,,,,,,,,,,,,5d30b98eb8f4a500193ce6c6,2020-08-10_13h44.54.539,lexical_decision_task_MP,2020.1.3,Win32,60,m,1,,,,,,,,0.566735,1,,,,,,216,WORD,UN,33,liquor,BEHALF,m,0.566735,,,,,,0.108333333,-0.142592593,0,0,0,,0,399,399,155,1,
,,,,,,,,,,,,,,,,,,5d30b98eb8f4a500193ce6c6,2020-08-10_13h44.54.539,lexical_decision_task_MP,2020.1.3,Win32,60,z,1,,,,,,,,0.68179,1,,,,,,439,NW,UN,33,saride,LIMPOR,z,0.68179,,,,,,0.108333333,-0.142592593,0,0,0,,0,400,400,378,1,
,,,,,,,,,,,,,,,,,,5d30b98eb8f4a500193ce6c6,2020-08-10_13h44.54.539,lexical_decision_task_MP,2020.1.3,Win32,60,m,1,,,,,,,,0.67139,1,,,,,,115,WORD,"ID",33,guitar,GUITAR,m,0.67139,,,,,,0.108333333,-0.142592593,0,0,0,,0,401,401,54,1,
,,,,,,,,,,,,,,,,,,5d30b98eb8f4a500193ce6c6,2020-08-10_13h44.54.539,lexical_decision_task_MP,2020.1.3,Win32,60,z,1,,,,,,,,0.71039,1,,,,,,449,NW,UN,33,phrect,BRUNGE,z,0.71039,,,,,,0.108333333,-0.142592593,0,0,0,,0,402,402,388,1,
,,,,,,,,,,,,,,,,,,5d30b98eb8f4a500193ce6c6,2020-08-10_13h44.54.539,lexical_decision_task_MP,2020.1.3,Win32,60,m,1,,,,,,,,0.52334,1,,,,,,1,WORD,UN,50,ethnic,FRIGHT,m,0.52334,,,,,,0.108333333,-0.142592593,0,0,0,,0,403,403,180,1,
,,,,,,,,,,,,,,,,,,5d30b98eb8f4a500193ce6c6,2020-08-10_13h44.54.539,lexical_decision_task_MP,2020.1.3,Win32,60,z,1,,,,,,,,0.65532,1,,,,,,248,NW,UN,50,batrol,STROLE,z,0.65532,,,,,,0.108333333,-0.142592593,0,0,0,,0,404,404,427,1,
