counterbalancing_condition,instr_done_keyboard.keys,instr_done_keyboard.rt,instr_done_touch.x,instr_done_touch.y,instr_done_touch.leftButton,instr_done_touch.midButton,instr_done_touch.rightButton,instruction_pages.thisRepN,instruction_pages.thisTrialN,instruction_pages.thisN,instruction_pages.thisIndex,instruction_pages.ran,pageN,phase,instruct_text,has_image,instruct_image,participant,date,expName,psychopyVersion,OS,frameRate,response.keys,response.corr,response.rt,touch_resp.x,touch_resp.y,touch_resp.leftButton,touch_resp.midButton,touch_resp.rightButton,touch_resp.time,touch_resp.clicked_name,rt,corr,practice_trials.thisRepN,practice_trials.thisTrialN,practice_trials.thisN,practice_trials.thisIndex,practice_trials.ran,TrialID,StimulusType,Condition,PrimeDuration,Prime,Target,corrAns,end_of_practice_trials_pages.thisRepN,end_of_practice_trials_pages.thisTrialN,end_of_practice_trials_pages.thisN,end_of_practice_trials_pages.thisIndex,end_of_practice_trials_pages.ran,break_done_touch.x,break_done_touch.y,break_done_touch.leftButton,break_done_touch.midButton,break_done_touch.rightButton,break_done_keyboard.keys,trials.thisRepN,trials.thisTrialN,trials.thisN,trials.thisIndex,trials.ran,break_done_keyboard.rt,break_done_touch.clicked_name
1,space,7.254245,0.107958984,-0.298310547,0,0,0,0,0,0,0,1,1,instructions,"INSTRUCTIONS
At the start of each trial, look at the hash marks (######) in the center of the screen. After a moment, a string of letters will appear. Your task is to indicate if the letter string forms a word or not (i.e., if it is a nonword). For example, AUTHOR is a word while AUTHON is a nonword.

Press the space bar or touch the button below to continue.",0,,5d544ce3be713b0001841f1e,2020-08-10_19h02.50.559,lexical_decision_task_MP,2020.1.3,MacIntel,60,,,,,,,,,,,,,,,,,,,,,,,,,,,,,,,,,,,,,,,,,,
,space,6.12111,0.107958984,-0.298310547,0,0,0,0,1,1,1,1,2,instructions,"If your device has a keyboard, press the 'Z' key for nonwords and the 'M' key for words.





Press the space bar or touch the button below to continue.",1,keyboard-example.gif,5d544ce3be713b0001841f1e,2020-08-10_19h02.50.559,lexical_decision_task_MP,2020.1.3,MacIntel,60,,,,,,,,,,,,,,,,,,,,,,,,,,,,,,,,,,,,,,,,,,
,space,2.944385,0.107958984,-0.298310547,0,0,0,0,2,2,2,1,3,instructions,"If you are using a touchscreen only device, use the buttons on the screen. Do not use the mouse.





Press the space bar or touch the button below to continue.",1,touchscreen-example.gif,5d544ce3be713b0001841f1e,2020-08-10_19h02.50.559,lexical_decision_task_MP,2020.1.3,MacIntel,60,,,,,,,,,,,,,,,,,,,,,,,,,,,,,,,,,,,,,,,,,,
,space,5.234025,0.107958984,-0.298310547,0,0,0,0,3,3,3,1,4,instructions,"It is very important that you respond as quickly and accurately as possible, as each letter string will only be on the screen for two seconds. If you do not respond within this time, the message 'Too slow!' will be displayed and the experiment will progress to the next letter string. The first 20 trials will be practice trials and you will receive feedback on your answers. 

Press the space bar or touch the button below to start the practice trials.",0,,5d544ce3be713b0001841f1e,2020-08-10_19h02.50.559,lexical_decision_task_MP,2020.1.3,MacIntel,60,,,,,,,,,,,,,,,,,,,,,,,,,,,,,,,,,,,,,,,,,,
,,,,,,,,,,,,,,,,,,5d544ce3be713b0001841f1e,2020-08-10_19h02.50.559,lexical_decision_task_MP,2020.1.3,MacIntel,60,z,1,1.3003,,,,,,,,1.3003,1,0,0,0,11,1,1012,NW,"ID",50,rashet,RASHET,z,,,,,,,,,,,,,,,,,,
,,,,,,,,,,,,,,,,,,5d544ce3be713b0001841f1e,2020-08-10_19h02.50.559,lexical_decision_task_MP,2020.1.3,MacIntel,60,m,1,0.671325,,,,,,,,0.671325,1,0,1,1,3,1,1004,WORD,"ID",50,matrix,MATRIX,m,,,,,,,,,,,,,,,,,,
,,,,,,,,,,,,,,,,,,5d544ce3be713b0001841f1e,2020-08-10_19h02.50.559,lexical_decision_task_MP,2020.1.3,MacIntel,60,m,1,0.447985,,,,,,,,0.447985,1,0,2,2,7,1,1008,WORD,UN,50,hurdle,VOLUME,m,,,,,,,,,,,,,,,,,,
,,,,,,,,,,,,,,,,,,5d544ce3be713b0001841f1e,2020-08-10_19h02.50.559,lexical_decision_task_MP,2020.1.3,MacIntel,60,m,1,0.51797,,,,,,,,0.51797,1,0,3,3,2,1,1003,WORD,"ID",50,almond,ALMOND,m,,,,,,,,,,,,,,,,,,
,,,,,,,,,,,,,,,,,,5d544ce3be713b0001841f1e,2020-08-10_19h02.50.559,lexical_decision_task_MP,2020.1.3,MacIntel,60,m,1,0.550095,,,,,,,,0.550095,1,0,4,4,5,1,1006,WORD,UN,33,frenzy,OBTAIN,m,,,,,,,,,,,,,,,,,,
,,,,,,,,,,,,,,,,,,5d544ce3be713b0001841f1e,2020-08-10_19h02.50.559,lexical_decision_task_MP,2020.1.3,MacIntel,60,m,1,0.516765,,,,,,,,0.516765,1,0,5,5,1,1,1002,WORD,"ID",33,adjust,ADJUST,m,,,,,,,,,,,,,,,,,,
,,,,,,,,,,,,,,,,,,5d544ce3be713b0001841f1e,2020-08-10_19h02.50.559,lexical_decision_task_MP,2020.1.3,MacIntel,60,z,1,0.56641,,,,,,,,0.56641,1,0,6,6,10,1,1011,NW,"ID",50,inlade,INLADE,z,,,,,,,,,,,,,,,,,,
,,,,,,,,,,,,,,,,,,5d544ce3be713b0001841f1e,2020-08-10_19h02.50.559,lexical_decision_task_MP,2020.1.3,MacIntel,60,m,1,0.653885,,,,,,,,0.653885,1,0,7,7,6,1,1007,WORD,UN,50,tropic,ZOMBIE,m,,,,,,,,,,,,,,,,,,
,,,,,,,,,,,,,,,,,,5d544ce3be713b0001841f1e,2020-08-10_19h02.50.559,lexical_decision_task_MP,2020.1.3,MacIntel,60,z,1,0.6219,,,,,,,,0.6219,1,0,8,8,9,1,1010,NW,"ID",33,fariny,FARINY,z,,,,,,,,,,,,,,,,,,
,,,,,,,,,,,,,,,,,,5d544ce3be713b0001841f1e,2020-08-10_19h02.50.559,lexical_decision_task_MP,2020.1.3,MacIntel,60,m,1,0.5528,,,,,,,,0.5528,1,0,9,9,4,1,1005,WORD,UN,33,abound,SQUEAK,m,,,,,,,,,,,,,,,,,,
,,,,,,,,,,,,,,,,,,5d544ce3be713b0001841f1e,2020-08-10_19h02.50.559,lexical_decision_task_MP,2020.1.3,MacIntel,60,z,1,0.641995,,,,,,,,0.641995,1,0,10,10,12,1,1013,NW,UN,33,adveil,SPRINY,z,,,,,,,,,,,,,,,,,,
,,,,,,,,,,,,,,,,,,5d544ce3be713b0001841f1e,2020-08-10_19h02.50.559,lexical_decision_task_MP,2020.1.3,MacIntel,60,z,1,0.720515,,,,,,,,0.720515,1,0,11,11,13,1,1014,NW,UN,33,winfer,ROUPET,z,,,,,,,,,,,,,,,,,,
,,,,,,,,,,,,,,,,,,5d544ce3be713b0001841f1e,2020-08-10_19h02.50.559,lexical_decision_task_MP,2020.1.3,MacIntel,60,z,1,0.55487,,,,,,,,0.55487,1,0,12,12,14,1,1015,NW,UN,50,miaber,THRALE,z,,,,,,,,,,,,,,,,,,
,,,,,,,,,,,,,,,,,,5d544ce3be713b0001841f1e,2020-08-10_19h02.50.559,lexical_decision_task_MP,2020.1.3,MacIntel,60,m,1,0.50532,,,,,,,,0.50532,1,0,13,13,0,1,1001,WORD,"ID",33,utopia,UTOPIA,m,,,,,,,,,,,,,,,,,,
,,,,,,,,,,,,,,,,,,5d544ce3be713b0001841f1e,2020-08-10_19h02.50.559,lexical_decision_task_MP,2020.1.3,MacIntel,60,z,1,0.588775,,,,,,,,0.588775,1,0,14,14,15,1,1016,NW,UN,50,mushed,WHAISE,z,,,,,,,,,,,,,,,,,,
,,,,,,,,,,,,,,,,,,5d544ce3be713b0001841f1e,2020-08-10_19h02.50.559,lexical_decision_task_MP,2020.1.3,MacIntel,60,z,1,0.760685,,,,,,,,0.760685,1,0,15,15,8,1,1009,NW,"ID",33,aslert,ASLERT,z,,,,,,,,,,,,,,,,,,
,space,7.092635,0.107958984,-0.298310547,0,0,0,,,,,,1,end_of_practice,"You have completed the practice trials. During the experimental trials, you will not receive feedback, but it is very important that you respond as quickly and accurately as possible. 
Before you begin, please ensure that you are in a comfortable and quiet location and will not be disturbed for about 15 minutes, as we cannot use your data if you do not complete all the trials. 
There will be opportunities to take breaks at regular intervals during the experiment. When you are ready to start the experimental trials, please press space or touch the button below.",,,5d544ce3be713b0001841f1e,2020-08-10_19h02.50.559,lexical_decision_task_MP,2020.1.3,MacIntel,60,,,,,,,,,,,,,,,,,,,,,,,,,0,0,0,0,1,,,,,,,,,,,,,
,,,,,,,,,,,,,,,,,,5d544ce3be713b0001841f1e,2020-08-10_19h02.50.559,lexical_decision_task_MP,2020.1.3,MacIntel,60,z,1,0.71665,,,,,,,,0.71665,1,,,,,,385,NW,UN,33,ancust,VEIGMA,z,,,,,,0.107958984,-0.298310547,0,0,0,,0,0,0,384,1,,
,,,,,,,,,,,,,,,,,,5d544ce3be713b0001841f1e,2020-08-10_19h02.50.559,lexical_decision_task_MP,2020.1.3,MacIntel,60,z,1,0.636195,,,,,,,,0.636195,1,,,,,,276,NW,"ID",33,yarmon,YARMON,z,,,,,,0.107958984,-0.298310547,0,0,0,,0,1,1,275,1,,
,,,,,,,,,,,,,,,,,,5d544ce3be713b0001841f1e,2020-08-10_19h02.50.559,lexical_decision_task_MP,2020.1.3,MacIntel,60,m,1,0.489795,,,,,,,,0.489795,1,,,,,,22,WORD,"ID",33,jockey,JOCKEY,m,,,,,,0.107958984,-0.298310547,0,0,0,,0,2,2,21,1,,
,,,,,,,,,,,,,,,,,,5d544ce3be713b0001841f1e,2020-08-10_19h02.50.559,lexical_decision_task_MP,2020.1.3,MacIntel,60,m,1,0.600615,,,,,,,,0.600615,1,,,,,,171,WORD,UN,33,patrol,DEPART,m,,,,,,0.107958984,-0.298310547,0,0,0,,0,3,3,170,1,,
,,,,,,,,,,,,,,,,,,5d544ce3be713b0001841f1e,2020-08-10_19h02.50.559,lexical_decision_task_MP,2020.1.3,MacIntel,60,m,1,0.58257,,,,,,,,0.58257,1,,,,,,237,WORD,UN,50,seldom,POSTER,m,,,,,,0.107958984,-0.298310547,0,0,0,,0,4,4,236,1,,
,,,,,,,,,,,,,,,,,,5d544ce3be713b0001841f1e,2020-08-10_19h02.50.559,lexical_decision_task_MP,2020.1.3,MacIntel,60,z,1,0.616945,,,,,,,,0.616945,1,,,,,,268,NW,"ID",33,packes,PACKES,z,,,,,,0.107958984,-0.298310547,0,0,0,,0,5,5,267,1,,
,,,,,,,,,,,,,,,,,,5d544ce3be713b0001841f1e,2020-08-10_19h02.50.559,lexical_decision_task_MP,2020.1.3,MacIntel,60,m,1,0.56679,,,,,,,,0.56679,1,,,,,,224,WORD,UN,50,vulgar,PERIOD,m,,,,,,0.107958984,-0.298310547,0,0,0,,0,6,6,223,1,,
,,,,,,,,,,,,,,,,,,5d544ce3be713b0001841f1e,2020-08-10_19h02.50.559,lexical_decision_task_MP,2020.1.3,MacIntel,60,m,1,0.502575,,,,,,,,0.502575,1,,,,,,25,WORD,"ID",33,domain,DOMAIN,m,,,,,,0.107958984,-0.298310547,0,0,0,,0,7,7,24,1,,
,,,,,,,,,,,,,,,,,,5d544ce3be713b0001841f1e,2020-08-10_19h02.50.559,lexical_decision_task_MP,2020.1.3,MacIntel,60,z,0,0.51105,,,,,,,,0.51105,0,,,,,,85,WORD,"ID",50,sprawl,SPRAWL,m,,,,,,0.107958984,-0.298310547,0,0,0,,0,8,8,84,1,,
,,,,,,,,,,,,,,,,,,5d544ce3be713b0001841f1e,2020-08-10_19h02.50.559,lexical_decision_task_MP,2020.1.3,MacIntel,60,m,1,0.552775,,,,,,,,0.552775,1,,,,,,216,WORD,UN,50,liquor,BEHALF,m,,,,,,0.107958984,-0.298310547,0,0,0,,0,9,9,215,1,,
,,,,,,,,,,,,,,,,,,5d544ce3be713b0001841f1e,2020-08-10_19h02.50.559,lexical_decision_task_MP,2020.1.3,MacIntel,60,m,0,0.533875,,,,,,,,0.533875,0,,,,,,409,NW,UN,33,tunory,ELOPIA,z,,,,,,0.107958984,-0.298310547,0,0,0,,0,10,10,408,1,,
,,,,,,,,,,,,,,,,,,5d544ce3be713b0001841f1e,2020-08-10_19h02.50.559,lexical_decision_task_MP,2020.1.3,MacIntel,60,m,0,0.545485,,,,,,,,0.545485,0,,,,,,350,NW,"ID",50,nagurs,NAGURS,z,,,,,,0.107958984,-0.298310547,0,0,0,,0,11,11,349,1,,
,,,,,,,,,,,,,,,,,,5d544ce3be713b0001841f1e,2020-08-10_19h02.50.559,lexical_decision_task_MP,2020.1.3,MacIntel,60,m,1,0.60833,,,,,,,,0.60833,1,,,,,,15,WORD,"ID",33,amount,AMOUNT,m,,,,,,0.107958984,-0.298310547,0,0,0,,0,12,12,14,1,,
,,,,,,,,,,,,,,,,,,5d544ce3be713b0001841f1e,2020-08-10_19h02.50.559,lexical_decision_task_MP,2020.1.3,MacIntel,60,m,1,0.831,,,,,,,,0.831,1,,,,,,104,WORD,"ID",50,studio,STUDIO,m,,,,,,0.107958984,-0.298310547,0,0,0,,0,13,13,103,1,,
,,,,,,,,,,,,,,,,,,5d544ce3be713b0001841f1e,2020-08-10_19h02.50.559,lexical_decision_task_MP,2020.1.3,MacIntel,60,z,1,0.73098,,,,,,,,0.73098,1,,,,,,303,NW,"ID",50,fiream,FIREAM,z,,,,,,0.107958984,-0.298310547,0,0,0,,0,14,14,302,1,,
,,,,,,,,,,,,,,,,,,5d544ce3be713b0001841f1e,2020-08-10_19h02.50.559,lexical_decision_task_MP,2020.1.3,MacIntel,60,m,1,0.56855,,,,,,,,0.56855,1,,,,,,173,WORD,UN,33,turkey,SHOWER,m,,,,,,0.107958984,-0.298310547,0,0,0,,0,15,15,172,1,,
,,,,,,,,,,,,,,,,,,5d544ce3be713b0001841f1e,2020-08-10_19h02.50.559,lexical_decision_task_MP,2020.1.3,MacIntel,60,z,1,0.632595,,,,,,,,0.632595,1,,,,,,253,NW,"ID",33,resait,RESAIT,z,,,,,,0.107958984,-0.298310547,0,0,0,,0,16,16,252,1,,
,,,,,,,,,,,,,,,,,,5d544ce3be713b0001841f1e,2020-08-10_19h02.50.559,lexical_decision_task_MP,2020.1.3,MacIntel,60,z,1,0.683905,,,,,,,,0.683905,1,,,,,,297,NW,"ID",33,fertic,FERTIC,z,,,,,,0.107958984,-0.298310547,0,0,0,,0,17,17,296,1,,
,,,,,,,,,,,,,,,,,,5d544ce3be713b0001841f1e,2020-08-10_19h02.50.559,lexical_decision_task_MP,2020.1.3,MacIntel,60,m,1,0.58361,,,,,,,,0.58361,1,,,,,,96,WORD,"ID",50,ignore,IGNORE,m,,,,,,0.107958984,-0.298310547,0,0,0,,0,18,18,95,1,,
,,,,,,,,,,,,,,,,,,5d544ce3be713b0001841f1e,2020-08-10_19h02.50.559,lexical_decision_task_MP,2020.1.3,MacIntel,60,z,1,0.65479,,,,,,,,0.65479,1,,,,,,358,NW,"ID",50,fleack,FLEACK,z,,,,,,0.107958984,-0.298310547,0,0,0,,0,19,19,357,1,,
,,,,,,,,,,,,,,,,,,5d544ce3be713b0001841f1e,2020-08-10_19h02.50.559,lexical_decision_task_MP,2020.1.3,MacIntel,60,z,1,0.602935,,,,,,,,0.602935,1,,,,,,242,NW,"ID",33,unwert,UNWERT,z,,,,,,0.107958984,-0.298310547,0,0,0,,0,20,20,241,1,,
,,,,,,,,,,,,,,,,,,5d544ce3be713b0001841f1e,2020-08-10_19h02.50.559,lexical_decision_task_MP,2020.1.3,MacIntel,60,z,1,0.58735,,,,,,,,0.58735,1,,,,,,327,NW,"ID",50,plenac,PLENAC,z,,,,,,0.107958984,-0.298310547,0,0,0,,0,21,21,326,1,,
,,,,,,,,,,,,,,,,,,5d544ce3be713b0001841f1e,2020-08-10_19h02.50.559,lexical_decision_task_MP,2020.1.3,MacIntel,60,z,1,0.60991,,,,,,,,0.60991,1,,,,,,344,NW,"ID",50,scrily,SCRILY,z,,,,,,0.107958984,-0.298310547,0,0,0,,0,22,22,343,1,,
,,,,,,,,,,,,,,,,,,5d544ce3be713b0001841f1e,2020-08-10_19h02.50.559,lexical_decision_task_MP,2020.1.3,MacIntel,60,z,1,0.66523,,,,,,,,0.66523,1,,,,,,364,NW,UN,33,guairt,IMPOTE,z,,,,,,0.107958984,-0.298310547,0,0,0,,0,23,23,363,1,,
,,,,,,,,,,,,,,,,,,5d544ce3be713b0001841f1e,2020-08-10_19h02.50.559,lexical_decision_task_MP,2020.1.3,MacIntel,60,z,1,0.628925,,,,,,,,0.628925,1,,,,,,244,NW,"ID",33,eatric,EATRIC,z,,,,,,0.107958984,-0.298310547,0,0,0,,0,24,24,243,1,,
,,,,,,,,,,,,,,,,,,5d544ce3be713b0001841f1e,2020-08-10_19h02.50.559,lexical_decision_task_MP,2020.1.3,MacIntel,60,z,1,0.60573,,,,,,,,0.60573,1,,,,,,477,NW,UN,50,acrise,PHOTIE,z,,,,,,0.107958984,-0.298310547,0,0,0,,0,25,25,476,1,,
,,,,,,,,,,,,,,,,,,5d544ce3be713b0001841f1e,2020-08-10_19h02.50.559,lexical_decision_task_MP,2020.1.3,MacIntel,60,z,1,0.592205,,,,,,,,0.592205,1,,,,,,424,NW,UN,50,urivel,PRAILE,z,,,,,,0.107958984,-0.298310547,0,0,0,,0,26,26,423,1,,
,,,,,,,,,,,,,,,,,,5d544ce3be713b0001841f1e,2020-08-10_19h02.50.559,lexical_decision_task_MP,2020.1.3,MacIntel,60,z,1,0.56138,,,,,,,,0.56138,1,,,,,,316,NW,"ID",50,scregm,SCREGM,z,,,,,,0.107958984,-0.298310547,0,0,0,,0,27,27,315,1,,
,,,,,,,,,,,,,,,,,,5d544ce3be713b0001841f1e,2020-08-10_19h02.50.559,lexical_decision_task_MP,2020.1.3,MacIntel,60,m,1,0.556225,,,,,,,,0.556225,1,,,,,,14,WORD,"ID",33,almost,ALMOST,m,,,,,,0.107958984,-0.298310547,0,0,0,,0,28,28,13,1,,
,,,,,,,,,,,,,,,,,,5d544ce3be713b0001841f1e,2020-08-10_19h02.50.559,lexical_decision_task_MP,2020.1.3,MacIntel,60,m,1,0.4986,,,,,,,,0.4986,1,,,,,,210,WORD,UN,50,infect,MONKEY,m,,,,,,0.107958984,-0.298310547,0,0,0,,0,29,29,209,1,,
,,,,,,,,,,,,,,,,,,5d544ce3be713b0001841f1e,2020-08-10_19h02.50.559,lexical_decision_task_MP,2020.1.3,MacIntel,60,z,1,0.65257,,,,,,,,0.65257,1,,,,,,332,NW,"ID",50,vangue,VANGUE,z,,,,,,0.107958984,-0.298310547,0,0,0,,0,30,30,331,1,,
,,,,,,,,,,,,,,,,,,5d544ce3be713b0001841f1e,2020-08-10_19h02.50.559,lexical_decision_task_MP,2020.1.3,MacIntel,60,m,1,0.603585,,,,,,,,0.603585,1,,,,,,222,WORD,UN,50,casino,HINDER,m,,,,,,0.107958984,-0.298310547,0,0,0,,0,31,31,221,1,,
,,,,,,,,,,,,,,,,,,5d544ce3be713b0001841f1e,2020-08-10_19h02.50.559,lexical_decision_task_MP,2020.1.3,MacIntel,60,z,1,0.81756,,,,,,,,0.81756,1,,,,,,425,NW,UN,50,schind,FRUDGE,z,,,,,,0.107958984,-0.298310547,0,0,0,,0,32,32,424,1,,
,,,,,,,,,,,,,,,,,,5d544ce3be713b0001841f1e,2020-08-10_19h02.50.559,lexical_decision_task_MP,2020.1.3,MacIntel,60,z,1,0.837795,,,,,,,,0.837795,1,,,,,,321,NW,"ID",50,miator,MIATOR,z,,,,,,0.107958984,-0.298310547,0,0,0,,0,33,33,320,1,,
,,,,,,,,,,,,,,,,,,5d544ce3be713b0001841f1e,2020-08-10_19h02.50.559,lexical_decision_task_MP,2020.1.3,MacIntel,60,m,1,0.853815,,,,,,,,0.853815,1,,,,,,213,WORD,UN,50,intake,SQUEAL,m,,,,,,0.107958984,-0.298310547,0,0,0,,0,34,34,212,1,,
,,,,,,,,,,,,,,,,,,5d544ce3be713b0001841f1e,2020-08-10_19h02.50.559,lexical_decision_task_MP,2020.1.3,MacIntel,60,z,1,0.72141,,,,,,,,0.72141,1,,,,,,463,NW,UN,50,bafent,KISPEL,z,,,,,,0.107958984,-0.298310547,0,0,0,,0,35,35,462,1,,
,,,,,,,,,,,,,,,,,,5d544ce3be713b0001841f1e,2020-08-10_19h02.50.559,lexical_decision_task_MP,2020.1.3,MacIntel,60,m,1,0.95319,,,,,,,,0.95319,1,,,,,,42,WORD,"ID",33,chapel,CHAPEL,m,,,,,,0.107958984,-0.298310547,0,0,0,,0,36,36,41,1,,
,,,,,,,,,,,,,,,,,,5d544ce3be713b0001841f1e,2020-08-10_19h02.50.559,lexical_decision_task_MP,2020.1.3,MacIntel,60,z,1,0.75078,,,,,,,,0.75078,1,,,,,,257,NW,"ID",33,veniod,VENIOD,z,,,,,,0.107958984,-0.298310547,0,0,0,,0,37,37,256,1,,
,,,,,,,,,,,,,,,,,,5d544ce3be713b0001841f1e,2020-08-10_19h02.50.559,lexical_decision_task_MP,2020.1.3,MacIntel,60,z,1,0.70255,,,,,,,,0.70255,1,,,,,,329,NW,"ID",50,yarike,YARIKE,z,,,,,,0.107958984,-0.298310547,0,0,0,,0,38,38,328,1,,
,,,,,,,,,,,,,,,,,,5d544ce3be713b0001841f1e,2020-08-10_19h02.50.559,lexical_decision_task_MP,2020.1.3,MacIntel,60,z,1,0.696715,,,,,,,,0.696715,1,,,,,,279,NW,"ID",33,celond,CELOND,z,,,,,,0.107958984,-0.298310547,0,0,0,,0,39,39,278,1,,
,,,,,,,,,,,,,,,,,,5d544ce3be713b0001841f1e,2020-08-10_19h02.50.559,lexical_decision_task_MP,2020.1.3,MacIntel,60,z,0,0.67418,,,,,,,,0.67418,0,,,,,,176,WORD,UN,33,advent,STRIFE,m,,,,,,0.107958984,-0.298310547,0,0,0,,0,40,40,175,1,,
,,,,,,,,,,,,,,,,,,5d544ce3be713b0001841f1e,2020-08-10_19h02.50.559,lexical_decision_task_MP,2020.1.3,MacIntel,60,z,1,0.92298,,,,,,,,0.92298,1,,,,,,320,NW,"ID",50,jockal,JOCKAL,z,,,,,,0.107958984,-0.298310547,0,0,0,,0,41,41,319,1,,
,,,,,,,,,,,,,,,,,,5d544ce3be713b0001841f1e,2020-08-10_19h02.50.559,lexical_decision_task_MP,2020.1.3,MacIntel,60,z,1,0.85812,,,,,,,,0.85812,1,,,,,,403,NW,UN,33,cluirm,BRUATS,z,,,,,,0.107958984,-0.298310547,0,0,0,,0,42,42,402,1,,
,,,,,,,,,,,,,,,,,,5d544ce3be713b0001841f1e,2020-08-10_19h02.50.559,lexical_decision_task_MP,2020.1.3,MacIntel,60,z,1,1.232015,,,,,,,,1.232015,1,,,,,,411,NW,UN,33,jiluer,ORCHIN,z,,,,,,0.107958984,-0.298310547,0,0,0,,0,43,43,410,1,,
,,,,,,,,,,,,,,,,,,5d544ce3be713b0001841f1e,2020-08-10_19h02.50.559,lexical_decision_task_MP,2020.1.3,MacIntel,60,m,1,0.737845,,,,,,,,0.737845,1,,,,,,200,WORD,UN,50,admire,BEACON,m,,,,,,0.107958984,-0.298310547,0,0,0,,0,44,44,199,1,,
,,,,,,,,,,,,,,,,,,5d544ce3be713b0001841f1e,2020-08-10_19h02.50.559,lexical_decision_task_MP,2020.1.3,MacIntel,60,z,1,0.878635,,,,,,,,0.878635,1,,,,,,447,NW,UN,50,sadent,GIRCUE,z,,,,,,0.107958984,-0.298310547,0,0,0,,0,45,45,446,1,,
,,,,,,,,,,,,,,,,,,5d544ce3be713b0001841f1e,2020-08-10_19h02.50.559,lexical_decision_task_MP,2020.1.3,MacIntel,60,z,1,0.7202,,,,,,,,0.7202,1,,,,,,343,NW,"ID",50,aimosy,AIMOSY,z,,,,,,0.107958984,-0.298310547,0,0,0,,0,46,46,342,1,,
,,,,,,,,,,,,,,,,,,5d544ce3be713b0001841f1e,2020-08-10_19h02.50.559,lexical_decision_task_MP,2020.1.3,MacIntel,60,z,1,0.89922,,,,,,,,0.89922,1,,,,,,376,NW,UN,33,sliant,IGUARE,z,,,,,,0.107958984,-0.298310547,0,0,0,,0,47,47,375,1,,
,,,,,,,,,,,,,,,,,,5d544ce3be713b0001841f1e,2020-08-10_19h02.50.559,lexical_decision_task_MP,2020.1.3,MacIntel,60,z,1,0.893395,,,,,,,,0.893395,1,,,,,,429,NW,UN,50,caroey,FUNTLE,z,,,,,,0.107958984,-0.298310547,0,0,0,,0,48,48,428,1,,
,,,,,,,,,,,,,,,,,,5d544ce3be713b0001841f1e,2020-08-10_19h02.50.559,lexical_decision_task_MP,2020.1.3,MacIntel,60,z,1,0.90125,,,,,,,,0.90125,1,,,,,,393,NW,UN,33,spaqux,GANOUS,z,,,,,,0.107958984,-0.298310547,0,0,0,,0,49,49,392,1,,
,,,,,,,,,,,,,,,,,,5d544ce3be713b0001841f1e,2020-08-10_19h02.50.559,lexical_decision_task_MP,2020.1.3,MacIntel,60,z,1,0.853015,,,,,,,,0.853015,1,,,,,,380,NW,UN,33,huniek,CAVORY,z,,,,,,0.107958984,-0.298310547,0,0,0,,0,50,50,379,1,,
,,,,,,,,,,,,,,,,,,5d544ce3be713b0001841f1e,2020-08-10_19h02.50.559,lexical_decision_task_MP,2020.1.3,MacIntel,60,m,1,0.827915,,,,,,,,0.827915,1,,,,,,196,WORD,UN,50,stream,CREDIT,m,,,,,,0.107958984,-0.298310547,0,0,0,,0,51,51,195,1,,
,,,,,,,,,,,,,,,,,,5d544ce3be713b0001841f1e,2020-08-10_19h02.50.559,lexical_decision_task_MP,2020.1.3,MacIntel,60,m,1,0.69664,,,,,,,,0.69664,1,,,,,,129,WORD,UN,33,stupid,MARVEL,m,,,,,,0.107958984,-0.298310547,0,0,0,,0,52,52,128,1,,
,,,,,,,,,,,,,,,,,,5d544ce3be713b0001841f1e,2020-08-10_19h02.50.559,lexical_decision_task_MP,2020.1.3,MacIntel,60,m,1,0.699205,,,,,,,,0.699205,1,,,,,,46,WORD,"ID",33,single,SINGLE,m,,,,,,0.107958984,-0.298310547,0,0,0,,0,53,53,45,1,,
,,,,,,,,,,,,,,,,,,5d544ce3be713b0001841f1e,2020-08-10_19h02.50.559,lexical_decision_task_MP,2020.1.3,MacIntel,60,m,1,1.39197,,,,,,,,1.39197,1,,,,,,139,WORD,UN,33,prince,DEBRIS,m,,,,,,0.107958984,-0.298310547,0,0,0,,0,54,54,138,1,,
,,,,,,,,,,,,,,,,,,5d544ce3be713b0001841f1e,2020-08-10_19h02.50.559,lexical_decision_task_MP,2020.1.3,MacIntel,60,m,1,0.70132,,,,,,,,0.70132,1,,,,,,114,WORD,"ID",50,placid,PLACID,m,,,,,,0.107958984,-0.298310547,0,0,0,,0,55,55,113,1,,
,,,,,,,,,,,,,,,,,,5d544ce3be713b0001841f1e,2020-08-10_19h02.50.559,lexical_decision_task_MP,2020.1.3,MacIntel,60,z,1,0.721685,,,,,,,,0.721685,1,,,,,,362,NW,UN,33,breali,TIREAU,z,,,,,,0.107958984,-0.298310547,0,0,0,,0,56,56,361,1,,
,,,,,,,,,,,,,,,,,,5d544ce3be713b0001841f1e,2020-08-10_19h02.50.559,lexical_decision_task_MP,2020.1.3,MacIntel,60,z,1,0.71454,,,,,,,,0.71454,1,,,,,,258,NW,"ID",33,poluth,POLUTH,z,,,,,,0.107958984,-0.298310547,0,0,0,,0,57,57,257,1,,
,,,,,,,,,,,,,,,,,,5d544ce3be713b0001841f1e,2020-08-10_19h02.50.559,lexical_decision_task_MP,2020.1.3,MacIntel,60,m,1,0.643845,,,,,,,,0.643845,1,,,,,,66,WORD,"ID",50,gospel,GOSPEL,m,,,,,,0.107958984,-0.298310547,0,0,0,,0,58,58,65,1,,
,,,,,,,,,,,,,,,,,,5d544ce3be713b0001841f1e,2020-08-10_19h02.50.559,lexical_decision_task_MP,2020.1.3,MacIntel,60,z,1,0.70346,,,,,,,,0.70346,1,,,,,,372,NW,UN,33,bigent,RAMILY,z,,,,,,0.107958984,-0.298310547,0,0,0,,0,59,59,371,1,,
,,,,,,,,,,,,,,,,,,5d544ce3be713b0001841f1e,2020-08-10_19h02.50.559,lexical_decision_task_MP,2020.1.3,MacIntel,60,z,1,0.73391,,,,,,,,0.73391,1,,,,,,370,NW,UN,33,geiloy,SLEACT,z,,,,,,0.107958984,-0.298310547,0,0,0,,0,60,60,369,1,,
,,,,,,,,,,,,,,,,,,5d544ce3be713b0001841f1e,2020-08-10_19h02.50.559,lexical_decision_task_MP,2020.1.3,MacIntel,60,z,1,0.73573,,,,,,,,0.73573,1,,,,,,305,NW,"ID",50,forgle,FORGLE,z,,,,,,0.107958984,-0.298310547,0,0,0,,0,61,61,304,1,,
,,,,,,,,,,,,,,,,,,5d544ce3be713b0001841f1e,2020-08-10_19h02.50.559,lexical_decision_task_MP,2020.1.3,MacIntel,60,m,1,0.68152,,,,,,,,0.68152,1,,,,,,180,WORD,UN,33,thrive,SILENT,m,,,,,,0.107958984,-0.298310547,0,0,0,,0,62,62,179,1,,
,,,,,,,,,,,,,,,,,,5d544ce3be713b0001841f1e,2020-08-10_19h02.50.559,lexical_decision_task_MP,2020.1.3,MacIntel,60,z,1,0.848955,,,,,,,,0.848955,1,,,,,,466,NW,UN,50,pebric,HOCITE,z,,,,,,0.107958984,-0.298310547,0,0,0,,0,63,63,465,1,,
,,,,,,,,,,,,,,,,,,5d544ce3be713b0001841f1e,2020-08-10_19h02.50.559,lexical_decision_task_MP,2020.1.3,MacIntel,60,m,1,0.94073,,,,,,,,0.94073,1,,,,,,33,WORD,"ID",33,butler,BUTLER,m,,,,,,0.107958984,-0.298310547,0,0,0,,0,64,64,32,1,,
,,,,,,,,,,,,,,,,,,5d544ce3be713b0001841f1e,2020-08-10_19h02.50.559,lexical_decision_task_MP,2020.1.3,MacIntel,60,m,1,0.665615,,,,,,,,0.665615,1,,,,,,161,WORD,UN,33,candle,PASTOR,m,,,,,,0.107958984,-0.298310547,0,0,0,,0,65,65,160,1,,
,,,,,,,,,,,,,,,,,,5d544ce3be713b0001841f1e,2020-08-10_19h02.50.559,lexical_decision_task_MP,2020.1.3,MacIntel,60,z,1,0.69592,,,,,,,,0.69592,1,,,,,,467,NW,UN,50,wictor,GORBIE,z,,,,,,0.107958984,-0.298310547,0,0,0,,0,66,66,466,1,,
,,,,,,,,,,,,,,,,,,5d544ce3be713b0001841f1e,2020-08-10_19h02.50.559,lexical_decision_task_MP,2020.1.3,MacIntel,60,m,1,1.00258,,,,,,,,1.00258,1,,,,,,211,WORD,UN,50,verify,INFECT,m,,,,,,0.107958984,-0.298310547,0,0,0,,0,67,67,210,1,,
,,,,,,,,,,,,,,,,,,5d544ce3be713b0001841f1e,2020-08-10_19h02.50.559,lexical_decision_task_MP,2020.1.3,MacIntel,60,z,1,0.61713,,,,,,,,0.61713,1,,,,,,311,NW,"ID",50,sproly,SPROLY,z,,,,,,0.107958984,-0.298310547,0,0,0,,0,68,68,310,1,,
,,,,,,,,,,,,,,,,,,5d544ce3be713b0001841f1e,2020-08-10_19h02.50.559,lexical_decision_task_MP,2020.1.3,MacIntel,60,m,1,0.599985,,,,,,,,0.599985,1,,,,,,57,WORD,"ID",33,change,CHANGE,m,,,,,,0.107958984,-0.298310547,0,0,0,,0,69,69,56,1,,
,,,,,,,,,,,,,,,,,,5d544ce3be713b0001841f1e,2020-08-10_19h02.50.559,lexical_decision_task_MP,2020.1.3,MacIntel,60,m,1,0.552985,,,,,,,,0.552985,1,,,,,,70,WORD,"ID",50,square,SQUARE,m,,,,,,0.107958984,-0.298310547,0,0,0,,0,70,70,69,1,,
,,,,,,,,,,,,,,,,,,5d544ce3be713b0001841f1e,2020-08-10_19h02.50.559,lexical_decision_task_MP,2020.1.3,MacIntel,60,m,1,0.631085,,,,,,,,0.631085,1,,,,,,183,WORD,UN,50,sleazy,MILDEW,m,,,,,,0.107958984,-0.298310547,0,0,0,,0,71,71,182,1,,
,,,,,,,,,,,,,,,,,,5d544ce3be713b0001841f1e,2020-08-10_19h02.50.559,lexical_decision_task_MP,2020.1.3,MacIntel,60,z,1,1.07819,,,,,,,,1.07819,1,,,,,,397,NW,UN,33,blunde,CAMBLE,z,,,,,,0.107958984,-0.298310547,0,0,0,,0,72,72,396,1,,
,,,,,,,,,,,,,,,,,,5d544ce3be713b0001841f1e,2020-08-10_19h02.50.559,lexical_decision_task_MP,2020.1.3,MacIntel,60,z,1,0.890815,,,,,,,,0.890815,1,,,,,,293,NW,"ID",33,swance,SWANCE,z,,,,,,0.107958984,-0.298310547,0,0,0,,0,73,73,292,1,,
,,,,,,,,,,,,,,,,,,5d544ce3be713b0001841f1e,2020-08-10_19h02.50.559,lexical_decision_task_MP,2020.1.3,MacIntel,60,m,1,0.660395,,,,,,,,0.660395,1,,,,,,93,WORD,"ID",50,public,PUBLIC,m,,,,,,0.107958984,-0.298310547,0,0,0,,0,74,74,92,1,,
,,,,,,,,,,,,,,,,,,5d544ce3be713b0001841f1e,2020-08-10_19h02.50.559,lexical_decision_task_MP,2020.1.3,MacIntel,60,z,1,0.889125,,,,,,,,0.889125,1,,,,,,284,NW,"ID",33,shaple,SHAPLE,z,,,,,,0.107958984,-0.298310547,0,0,0,,0,75,75,283,1,,
,,,,,,,,,,,,,,,,,,5d544ce3be713b0001841f1e,2020-08-10_19h02.50.559,lexical_decision_task_MP,2020.1.3,MacIntel,60,m,1,0.63776,,,,,,,,0.63776,1,,,,,,51,WORD,"ID",33,hungry,HUNGRY,m,,,,,,0.107958984,-0.298310547,0,0,0,,0,76,76,50,1,,
,,,,,,,,,,,,,,,,,,5d544ce3be713b0001841f1e,2020-08-10_19h02.50.559,lexical_decision_task_MP,2020.1.3,MacIntel,60,z,1,1.020135,,,,,,,,1.020135,1,,,,,,442,NW,UN,50,dorsex,ABOUNE,z,,,,,,0.107958984,-0.298310547,0,0,0,,0,77,77,441,1,,
,,,,,,,,,,,,,,,,,,5d544ce3be713b0001841f1e,2020-08-10_19h02.50.559,lexical_decision_task_MP,2020.1.3,MacIntel,60,m,1,0.887355,,,,,,,,0.887355,1,,,,,,136,WORD,UN,33,finger,BLEACH,m,,,,,,0.107958984,-0.298310547,0,0,0,,0,78,78,135,1,,
,,,,,,,,,,,,,,,,,,5d544ce3be713b0001841f1e,2020-08-10_19h02.50.559,lexical_decision_task_MP,2020.1.3,MacIntel,60,z,1,1.127745,,,,,,,,1.127745,1,,,,,,408,NW,UN,33,flumni,HURNIA,z,,,,,,0.107958984,-0.298310547,0,0,0,,0,79,79,407,1,,
,,,,,,,,,,,,,,,,,,5d544ce3be713b0001841f1e,2020-08-10_19h02.50.559,lexical_decision_task_MP,2020.1.3,MacIntel,60,m,1,0.5751,,,,,,,,0.5751,1,,,,,,112,WORD,"ID",50,breath,BREATH,m,,,,,,0.107958984,-0.298310547,0,0,0,,0,80,80,111,1,,
,,,,,,,,,,,,,,,,,,5d544ce3be713b0001841f1e,2020-08-10_19h02.50.559,lexical_decision_task_MP,2020.1.3,MacIntel,60,m,1,0.76826,,,,,,,,0.76826,1,,,,,,23,WORD,"ID",33,wealth,WEALTH,m,,,,,,0.107958984,-0.298310547,0,0,0,,0,81,81,22,1,,
,,,,,,,,,,,,,,,,,,5d544ce3be713b0001841f1e,2020-08-10_19h02.50.559,lexical_decision_task_MP,2020.1.3,MacIntel,60,z,1,0.73145,,,,,,,,0.73145,1,,,,,,400,NW,UN,33,mustil,WEAROX,z,,,,,,0.107958984,-0.298310547,0,0,0,,0,82,82,399,1,,
,,,,,,,,,,,,,,,,,,5d544ce3be713b0001841f1e,2020-08-10_19h02.50.559,lexical_decision_task_MP,2020.1.3,MacIntel,60,z,1,1.095685,,,,,,,,1.095685,1,,,,,,418,NW,UN,33,slount,SUIDLE,z,,,,,,0.107958984,-0.298310547,0,0,0,,0,83,83,417,1,,
,,,,,,,,,,,,,,,,,,5d544ce3be713b0001841f1e,2020-08-10_19h02.50.559,lexical_decision_task_MP,2020.1.3,MacIntel,60,z,1,1.15165,,,,,,,,1.15165,1,,,,,,315,NW,"ID",50,laston,LASTON,z,,,,,,0.107958984,-0.298310547,0,0,0,,0,84,84,314,1,,
,,,,,,,,,,,,,,,,,,5d544ce3be713b0001841f1e,2020-08-10_19h02.50.559,lexical_decision_task_MP,2020.1.3,MacIntel,60,m,1,0.63452,,,,,,,,0.63452,1,,,,,,75,WORD,"ID",50,trophy,TROPHY,m,,,,,,0.107958984,-0.298310547,0,0,0,,0,85,85,74,1,,
,,,,,,,,,,,,,,,,,,5d544ce3be713b0001841f1e,2020-08-10_19h02.50.559,lexical_decision_task_MP,2020.1.3,MacIntel,60,m,1,0.56737,,,,,,,,0.56737,1,,,,,,7,WORD,"ID",33,anchor,ANCHOR,m,,,,,,0.107958984,-0.298310547,0,0,0,,0,86,86,6,1,,
,,,,,,,,,,,,,,,,,,5d544ce3be713b0001841f1e,2020-08-10_19h02.50.559,lexical_decision_task_MP,2020.1.3,MacIntel,60,z,1,0.68413,,,,,,,,0.68413,1,,,,,,460,NW,UN,50,justre,MINGAR,z,,,,,,0.107958984,-0.298310547,0,0,0,,0,87,87,459,1,,
,,,,,,,,,,,,,,,,,,5d544ce3be713b0001841f1e,2020-08-10_19h02.50.559,lexical_decision_task_MP,2020.1.3,MacIntel,60,m,1,0.60017,,,,,,,,0.60017,1,,,,,,27,WORD,"ID",33,scream,SCREAM,m,,,,,,0.107958984,-0.298310547,0,0,0,,0,88,88,26,1,,
,,,,,,,,,,,,,,,,,,5d544ce3be713b0001841f1e,2020-08-10_19h02.50.559,lexical_decision_task_MP,2020.1.3,MacIntel,60,m,1,0.769425,,,,,,,,0.769425,1,,,,,,162,WORD,UN,33,string,CANDLE,m,,,,,,0.107958984,-0.298310547,0,0,0,,0,89,89,161,1,,
,,,,,,,,,,,,,,,,,,5d544ce3be713b0001841f1e,2020-08-10_19h02.50.559,lexical_decision_task_MP,2020.1.3,MacIntel,60,z,1,0.756785,,,,,,,,0.756785,1,,,,,,307,NW,"ID",50,kirafe,KIRAFE,z,,,,,,0.107958984,-0.298310547,0,0,0,,0,90,90,306,1,,
,,,,,,,,,,,,,,,,,,5d544ce3be713b0001841f1e,2020-08-10_19h02.50.559,lexical_decision_task_MP,2020.1.3,MacIntel,60,m,1,0.686155,,,,,,,,0.686155,1,,,,,,205,WORD,UN,50,tailor,LOUNGE,m,,,,,,0.107958984,-0.298310547,0,0,0,,0,91,91,204,1,,
,,,,,,,,,,,,,,,,,,5d544ce3be713b0001841f1e,2020-08-10_19h02.50.559,lexical_decision_task_MP,2020.1.3,MacIntel,60,z,1,0.68418,,,,,,,,0.68418,1,,,,,,470,NW,UN,50,nobest,CRUDIO,z,,,,,,0.107958984,-0.298310547,0,0,0,,0,92,92,469,1,,
,,,,,,,,,,,,,,,,,,5d544ce3be713b0001841f1e,2020-08-10_19h02.50.559,lexical_decision_task_MP,2020.1.3,MacIntel,60,m,1,0.744825,,,,,,,,0.744825,1,,,,,,182,WORD,UN,50,basket,WINTER,m,,,,,,0.107958984,-0.298310547,0,0,0,,0,93,93,181,1,,
,,,,,,,,,,,,,,,,,,5d544ce3be713b0001841f1e,2020-08-10_19h02.50.559,lexical_decision_task_MP,2020.1.3,MacIntel,60,z,1,0.79566,,,,,,,,0.79566,1,,,,,,402,NW,UN,33,bruats,SYNTIC,z,,,,,,0.107958984,-0.298310547,0,0,0,,0,94,94,401,1,,
,,,,,,,,,,,,,,,,,,5d544ce3be713b0001841f1e,2020-08-10_19h02.50.559,lexical_decision_task_MP,2020.1.3,MacIntel,60,m,1,0.62039,,,,,,,,0.62039,1,,,,,,174,WORD,UN,33,fabric,TURKEY,m,,,,,,0.107958984,-0.298310547,0,0,0,,0,95,95,173,1,,
,,,,,,,,,,,,,,,,,,5d544ce3be713b0001841f1e,2020-08-10_19h02.50.559,lexical_decision_task_MP,2020.1.3,MacIntel,60,m,1,0.619255,,,,,,,,0.619255,1,,,,,,191,WORD,UN,50,absent,STABLE,m,,,,,,0.107958984,-0.298310547,0,0,0,,0,96,96,190,1,,
,,,,,,,,,,,,,,,,,,5d544ce3be713b0001841f1e,2020-08-10_19h02.50.559,lexical_decision_task_MP,2020.1.3,MacIntel,60,m,1,0.511745,,,,,,,,0.511745,1,,,,,,240,WORD,UN,50,glance,FOREST,m,,,,,,0.107958984,-0.298310547,0,0,0,,0,97,97,239,1,,
,,,,,,,,,,,,,,,,,,5d544ce3be713b0001841f1e,2020-08-10_19h02.50.559,lexical_decision_task_MP,2020.1.3,MacIntel,60,m,1,0.53452,,,,,,,,0.53452,1,,,,,,26,WORD,"ID",33,sprint,SPRINT,m,,,,,,0.107958984,-0.298310547,0,0,0,,0,98,98,25,1,,
,,,,,,,,,,,,,,,,,,5d544ce3be713b0001841f1e,2020-08-10_19h02.50.559,lexical_decision_task_MP,2020.1.3,MacIntel,60,z,1,0.64376,,,,,,,,0.64376,1,,,,,,437,NW,UN,50,baitch,SNAPEL,z,,,,,,0.107958984,-0.298310547,0,0,0,,0,99,99,436,1,,
,,,,,,,,,,,,,,,,,,5d544ce3be713b0001841f1e,2020-08-10_19h02.50.559,lexical_decision_task_MP,2020.1.3,MacIntel,60,z,1,0.678,,,,,,,,0.678,1,,,,,,455,NW,UN,50,broget,TONDLE,z,,,,,,0.107958984,-0.298310547,0,0,0,,0,100,100,454,1,,
,,,,,,,,,,,,,,,,,,5d544ce3be713b0001841f1e,2020-08-10_19h02.50.559,lexical_decision_task_MP,2020.1.3,MacIntel,60,z,1,0.750965,,,,,,,,0.750965,1,,,,,,464,NW,UN,50,whivex,CHAITE,z,,,,,,0.107958984,-0.298310547,0,0,0,,0,101,101,463,1,,
,,,,,,,,,,,,,,,,,,5d544ce3be713b0001841f1e,2020-08-10_19h02.50.559,lexical_decision_task_MP,2020.1.3,MacIntel,60,m,1,0.677215,,,,,,,,0.677215,1,,,,,,92,WORD,"ID",50,strand,STRAND,m,,,,,,0.107958984,-0.298310547,0,0,0,,0,102,102,91,1,,
,,,,,,,,,,,,,,,,,,5d544ce3be713b0001841f1e,2020-08-10_19h02.50.559,lexical_decision_task_MP,2020.1.3,MacIntel,60,m,1,0.61658,,,,,,,,0.61658,1,,,,,,134,WORD,UN,33,import,STAPLE,m,,,,,,0.107958984,-0.298310547,0,0,0,,0,103,103,133,1,,
,,,,,,,,,,,,,,,,,,5d544ce3be713b0001841f1e,2020-08-10_19h02.50.559,lexical_decision_task_MP,2020.1.3,MacIntel,60,z,1,0.64151,,,,,,,,0.64151,1,,,,,,324,NW,"ID",50,steikh,STEIKH,z,,,,,,0.107958984,-0.298310547,0,0,0,,0,104,104,323,1,,
,,,,,,,,,,,,,,,,,,5d544ce3be713b0001841f1e,2020-08-10_19h02.50.559,lexical_decision_task_MP,2020.1.3,MacIntel,60,m,1,0.66825,,,,,,,,0.66825,1,,,,,,72,WORD,"ID",50,bright,BRIGHT,m,,,,,,0.107958984,-0.298310547,0,0,0,,0,105,105,71,1,,
,,,,,,,,,,,,,,,,,,5d544ce3be713b0001841f1e,2020-08-10_19h02.50.559,lexical_decision_task_MP,2020.1.3,MacIntel,60,m,1,0.55936,,,,,,,,0.55936,1,,,,,,17,WORD,"ID",33,charge,CHARGE,m,,,,,,0.107958984,-0.298310547,0,0,0,,0,106,106,16,1,,
,,,,,,,,,,,,,,,,,,5d544ce3be713b0001841f1e,2020-08-10_19h02.50.559,lexical_decision_task_MP,2020.1.3,MacIntel,60,m,1,0.587275,,,,,,,,0.587275,1,,,,,,108,WORD,"ID",50,reckon,RECKON,m,,,,,,0.107958984,-0.298310547,0,0,0,,0,107,107,107,1,,
,,,,,,,,,,,,,,,,,,5d544ce3be713b0001841f1e,2020-08-10_19h02.50.559,lexical_decision_task_MP,2020.1.3,MacIntel,60,z,1,0.669755,,,,,,,,0.669755,1,,,,,,441,NW,UN,50,aboune,RASTOE,z,,,,,,0.107958984,-0.298310547,0,0,0,,0,108,108,440,1,,
,,,,,,,,,,,,,,,,,,5d544ce3be713b0001841f1e,2020-08-10_19h02.50.559,lexical_decision_task_MP,2020.1.3,MacIntel,60,m,1,0.55317,,,,,,,,0.55317,1,,,,,,73,WORD,"ID",50,source,SOURCE,m,,,,,,0.107958984,-0.298310547,0,0,0,,0,109,109,72,1,,
,,,,,,,,,,,,,,,,,,5d544ce3be713b0001841f1e,2020-08-10_19h02.50.559,lexical_decision_task_MP,2020.1.3,MacIntel,60,z,1,0.949665,,,,,,,,0.949665,1,,,,,,473,NW,UN,50,hablin,CRIBLE,z,,,,,,0.107958984,-0.298310547,0,0,0,,0,110,110,472,1,,
,,,,,,,,,,,,,,,,,,5d544ce3be713b0001841f1e,2020-08-10_19h02.50.559,lexical_decision_task_MP,2020.1.3,MacIntel,60,z,1,0.93929,,,,,,,,0.93929,1,,,,,,420,NW,UN,33,pauche,GUSHOP,z,,,,,,0.107958984,-0.298310547,0,0,0,,0,111,111,419,1,,
,,,,,,,,,,,,,,,,,,5d544ce3be713b0001841f1e,2020-08-10_19h02.50.559,lexical_decision_task_MP,2020.1.3,MacIntel,60,m,1,0.66992,,,,,,,,0.66992,1,,,,,,228,WORD,UN,50,inject,MASTER,m,,,,,,0.107958984,-0.298310547,0,0,0,,0,112,112,227,1,,
,,,,,,,,,,,,,,,,,,5d544ce3be713b0001841f1e,2020-08-10_19h02.50.559,lexical_decision_task_MP,2020.1.3,MacIntel,60,m,1,0.86647,,,,,,,,0.86647,1,,,,,,193,WORD,UN,50,plague,OBJECT,m,,,,,,0.107958984,-0.298310547,0,0,0,,0,113,113,192,1,,
,,,,,,,,,,,,,,,,,,5d544ce3be713b0001841f1e,2020-08-10_19h02.50.559,lexical_decision_task_MP,2020.1.3,MacIntel,60,m,1,0.56044,,,,,,,,0.56044,1,,,,,,24,WORD,"ID",33,praise,PRAISE,m,,,,,,0.107958984,-0.298310547,0,0,0,,0,114,114,23,1,,
,,,,,,,,,,,,,,,,,,5d544ce3be713b0001841f1e,2020-08-10_19h02.50.559,lexical_decision_task_MP,2020.1.3,MacIntel,60,m,1,0.488185,,,,,,,,0.488185,1,,,,,,157,WORD,UN,33,island,DRAGON,m,,,,,,0.107958984,-0.298310547,0,0,0,,0,115,115,156,1,,
,,,,,,,,,,,,,,,,,,5d544ce3be713b0001841f1e,2020-08-10_19h02.50.559,lexical_decision_task_MP,2020.1.3,MacIntel,60,m,1,1.158695,,,,,,,,1.158695,1,,,,,,186,WORD,UN,50,course,PORTAL,m,,,,,,0.107958984,-0.298310547,0,0,0,,0,116,116,185,1,,
,,,,,,,,,,,,,,,,,,5d544ce3be713b0001841f1e,2020-08-10_19h02.50.559,lexical_decision_task_MP,2020.1.3,MacIntel,60,m,1,0.93607,,,,,,,,0.93607,1,,,,,,68,WORD,"ID",50,fumble,FUMBLE,m,,,,,,0.107958984,-0.298310547,0,0,0,,0,117,117,67,1,,
,,,,,,,,,,,,,,,,,,5d544ce3be713b0001841f1e,2020-08-10_19h02.50.559,lexical_decision_task_MP,2020.1.3,MacIntel,60,m,1,0.56714,,,,,,,,0.56714,1,,,,,,74,WORD,"ID",50,plaque,PLAQUE,m,,,,,,0.107958984,-0.298310547,0,0,0,,0,118,118,73,1,,
,,,,,,,,,,,,,,,,,,5d544ce3be713b0001841f1e,2020-08-10_19h02.50.559,lexical_decision_task_MP,2020.1.3,MacIntel,60,m,1,0.551165,,,,,,,,0.551165,1,,,,,,48,WORD,"ID",33,walnut,WALNUT,m,,,,,,0.107958984,-0.298310547,0,0,0,,0,119,119,47,1,,
,,,,,,,,,,,,,,,,,,5d544ce3be713b0001841f1e,2020-08-10_19h02.50.559,lexical_decision_task_MP,2020.1.3,MacIntel,60,m,1,0.54636,,,,,,,,0.54636,1,,,,,,226,WORD,UN,50,flower,CASINO,m,,,,,,0.015854492,-0.396728516,0,0,0,space,0,120,120,225,1,25.087545,
,,,,,,,,,,,,,,,,,,5d544ce3be713b0001841f1e,2020-08-10_19h02.50.559,lexical_decision_task_MP,2020.1.3,MacIntel,60,m,1,1.522115,,,,,,,,1.522115,1,,,,,,28,WORD,"ID",33,comedy,COMEDY,m,,,,,,0.024995117,-0.354887695,0,0,0,,0,121,121,27,1,,
,,,,,,,,,,,,,,,,,,5d544ce3be713b0001841f1e,2020-08-10_19h02.50.559,lexical_decision_task_MP,2020.1.3,MacIntel,60,z,1,0.721325,,,,,,,,0.721325,1,,,,,,339,NW,"ID",50,fachow,FACHOW,z,,,,,,0.024995117,-0.354887695,0,0,0,,0,122,122,338,1,,
,,,,,,,,,,,,,,,,,,5d544ce3be713b0001841f1e,2020-08-10_19h02.50.559,lexical_decision_task_MP,2020.1.3,MacIntel,60,z,1,0.824875,,,,,,,,0.824875,1,,,,,,261,NW,"ID",33,stunch,STUNCH,z,,,,,,0.024995117,-0.354887695,0,0,0,,0,123,123,260,1,,
,,,,,,,,,,,,,,,,,,5d544ce3be713b0001841f1e,2020-08-10_19h02.50.559,lexical_decision_task_MP,2020.1.3,MacIntel,60,m,1,0.53384,,,,,,,,0.53384,1,,,,,,53,WORD,"ID",33,police,POLICE,m,,,,,,0.024995117,-0.354887695,0,0,0,,0,124,124,52,1,,
,,,,,,,,,,,,,,,,,,5d544ce3be713b0001841f1e,2020-08-10_19h02.50.559,lexical_decision_task_MP,2020.1.3,MacIntel,60,m,1,0.601385,,,,,,,,0.601385,1,,,,,,102,WORD,"ID",50,direct,DIRECT,m,,,,,,0.024995117,-0.354887695,0,0,0,,0,125,125,101,1,,
,,,,,,,,,,,,,,,,,,5d544ce3be713b0001841f1e,2020-08-10_19h02.50.559,lexical_decision_task_MP,2020.1.3,MacIntel,60,z,1,0.68197,,,,,,,,0.68197,1,,,,,,280,NW,"ID",33,curbol,CURBOL,z,,,,,,0.024995117,-0.354887695,0,0,0,,0,126,126,279,1,,
,,,,,,,,,,,,,,,,,,5d544ce3be713b0001841f1e,2020-08-10_19h02.50.559,lexical_decision_task_MP,2020.1.3,MacIntel,60,m,1,0.589965,,,,,,,,0.589965,1,,,,,,164,WORD,UN,33,invest,MARKET,m,,,,,,0.024995117,-0.354887695,0,0,0,,0,127,127,163,1,,
,,,,,,,,,,,,,,,,,,5d544ce3be713b0001841f1e,2020-08-10_19h02.50.559,lexical_decision_task_MP,2020.1.3,MacIntel,60,z,1,0.761385,,,,,,,,0.761385,1,,,,,,390,NW,UN,33,theldy,HATRUS,z,,,,,,0.024995117,-0.354887695,0,0,0,,0,128,128,389,1,,
,,,,,,,,,,,,,,,,,,5d544ce3be713b0001841f1e,2020-08-10_19h02.50.559,lexical_decision_task_MP,2020.1.3,MacIntel,60,m,1,0.661765,,,,,,,,0.661765,1,,,,,,11,WORD,"ID",33,cruise,CRUISE,m,,,,,,0.024995117,-0.354887695,0,0,0,,0,129,129,10,1,,
,,,,,,,,,,,,,,,,,,5d544ce3be713b0001841f1e,2020-08-10_19h02.50.559,lexical_decision_task_MP,2020.1.3,MacIntel,60,z,1,0.63179,,,,,,,,0.63179,1,,,,,,360,NW,"ID",50,desory,DESORY,z,,,,,,0.024995117,-0.354887695,0,0,0,,0,130,130,359,1,,
,,,,,,,,,,,,,,,,,,5d544ce3be713b0001841f1e,2020-08-10_19h02.50.559,lexical_decision_task_MP,2020.1.3,MacIntel,60,m,1,0.551305,,,,,,,,0.551305,1,,,,,,115,WORD,"ID",50,guitar,GUITAR,m,,,,,,0.024995117,-0.354887695,0,0,0,,0,131,131,114,1,,
,,,,,,,,,,,,,,,,,,5d544ce3be713b0001841f1e,2020-08-10_19h02.50.559,lexical_decision_task_MP,2020.1.3,MacIntel,60,m,1,0.59856,,,,,,,,0.59856,1,,,,,,98,WORD,"ID",50,belong,BELONG,m,,,,,,0.024995117,-0.354887695,0,0,0,,0,132,132,97,1,,
,,,,,,,,,,,,,,,,,,5d544ce3be713b0001841f1e,2020-08-10_19h02.50.559,lexical_decision_task_MP,2020.1.3,MacIntel,60,m,1,0.8328,,,,,,,,0.8328,1,,,,,,21,WORD,"ID",33,simple,SIMPLE,m,,,,,,0.024995117,-0.354887695,0,0,0,,0,133,133,20,1,,
,,,,,,,,,,,,,,,,,,5d544ce3be713b0001841f1e,2020-08-10_19h02.50.559,lexical_decision_task_MP,2020.1.3,MacIntel,60,z,1,0.66593,,,,,,,,0.66593,1,,,,,,451,NW,UN,50,surden,CAINKY,z,,,,,,0.024995117,-0.354887695,0,0,0,,0,134,134,450,1,,
,,,,,,,,,,,,,,,,,,5d544ce3be713b0001841f1e,2020-08-10_19h02.50.559,lexical_decision_task_MP,2020.1.3,MacIntel,60,m,1,0.596165,,,,,,,,0.596165,1,,,,,,110,WORD,"ID",50,polite,POLITE,m,,,,,,0.024995117,-0.354887695,0,0,0,,0,135,135,109,1,,
,,,,,,,,,,,,,,,,,,5d544ce3be713b0001841f1e,2020-08-10_19h02.50.559,lexical_decision_task_MP,2020.1.3,MacIntel,60,z,1,0.63274,,,,,,,,0.63274,1,,,,,,415,NW,UN,33,pathel,HIGSTA,z,,,,,,0.024995117,-0.354887695,0,0,0,,0,136,136,414,1,,
,,,,,,,,,,,,,,,,,,5d544ce3be713b0001841f1e,2020-08-10_19h02.50.559,lexical_decision_task_MP,2020.1.3,MacIntel,60,m,1,0.5405,,,,,,,,0.5405,1,,,,,,97,WORD,"ID",50,client,CLIENT,m,,,,,,0.024995117,-0.354887695,0,0,0,,0,137,137,96,1,,
,,,,,,,,,,,,,,,,,,5d544ce3be713b0001841f1e,2020-08-10_19h02.50.559,lexical_decision_task_MP,2020.1.3,MacIntel,60,z,1,0.58448,,,,,,,,0.58448,1,,,,,,304,NW,"ID",50,cludie,CLUDIE,z,,,,,,0.024995117,-0.354887695,0,0,0,,0,138,138,303,1,,
,,,,,,,,,,,,,,,,,,5d544ce3be713b0001841f1e,2020-08-10_19h02.50.559,lexical_decision_task_MP,2020.1.3,MacIntel,60,z,1,0.730305,,,,,,,,0.730305,1,,,,,,459,NW,UN,50,mingar,BAFENT,z,,,,,,0.024995117,-0.354887695,0,0,0,,0,139,139,458,1,,
,,,,,,,,,,,,,,,,,,5d544ce3be713b0001841f1e,2020-08-10_19h02.50.559,lexical_decision_task_MP,2020.1.3,MacIntel,60,z,1,0.65576,,,,,,,,0.65576,1,,,,,,282,NW,"ID",33,porlex,PORLEX,z,,,,,,0.024995117,-0.354887695,0,0,0,,0,140,140,281,1,,
,,,,,,,,,,,,,,,,,,5d544ce3be713b0001841f1e,2020-08-10_19h02.50.559,lexical_decision_task_MP,2020.1.3,MacIntel,60,z,1,0.668395,,,,,,,,0.668395,1,,,,,,318,NW,"ID",50,reagly,REAGLY,z,,,,,,0.024995117,-0.354887695,0,0,0,,0,141,141,317,1,,
,,,,,,,,,,,,,,,,,,5d544ce3be713b0001841f1e,2020-08-10_19h02.50.559,lexical_decision_task_MP,2020.1.3,MacIntel,60,z,1,0.72927,,,,,,,,0.72927,1,,,,,,306,NW,"ID",50,sounge,SOUNGE,z,,,,,,0.024995117,-0.354887695,0,0,0,,0,142,142,305,1,,
,,,,,,,,,,,,,,,,,,5d544ce3be713b0001841f1e,2020-08-10_19h02.50.559,lexical_decision_task_MP,2020.1.3,MacIntel,60,m,1,0.760185,,,,,,,,0.760185,1,,,,,,185,WORD,UN,50,portal,BOTHER,m,,,,,,0.024995117,-0.354887695,0,0,0,,0,143,143,184,1,,
,,,,,,,,,,,,,,,,,,5d544ce3be713b0001841f1e,2020-08-10_19h02.50.559,lexical_decision_task_MP,2020.1.3,MacIntel,60,z,1,0.889775,,,,,,,,0.889775,1,,,,,,422,NW,UN,50,streld,ALCOUD,z,,,,,,0.024995117,-0.354887695,0,0,0,,0,144,144,421,1,,
,,,,,,,,,,,,,,,,,,5d544ce3be713b0001841f1e,2020-08-10_19h02.50.559,lexical_decision_task_MP,2020.1.3,MacIntel,60,m,1,0.56123,,,,,,,,0.56123,1,,,,,,147,WORD,UN,33,custom,GARLIC,m,,,,,,0.024995117,-0.354887695,0,0,0,,0,145,145,146,1,,
,,,,,,,,,,,,,,,,,,5d544ce3be713b0001841f1e,2020-08-10_19h02.50.559,lexical_decision_task_MP,2020.1.3,MacIntel,60,m,1,0.55732,,,,,,,,0.55732,1,,,,,,123,WORD,UN,33,enough,STRIKE,m,,,,,,0.024995117,-0.354887695,0,0,0,,0,146,146,122,1,,
,,,,,,,,,,,,,,,,,,5d544ce3be713b0001841f1e,2020-08-10_19h02.50.559,lexical_decision_task_MP,2020.1.3,MacIntel,60,m,1,0.409885,,,,,,,,0.409885,1,,,,,,80,WORD,"ID",50,family,FAMILY,m,,,,,,0.024995117,-0.354887695,0,0,0,,0,147,147,79,1,,
,,,,,,,,,,,,,,,,,,5d544ce3be713b0001841f1e,2020-08-10_19h02.50.559,lexical_decision_task_MP,2020.1.3,MacIntel,60,m,1,0.485835,,,,,,,,0.485835,1,,,,,,239,WORD,UN,50,forest,LUMBER,m,,,,,,0.024995117,-0.354887695,0,0,0,,0,148,148,238,1,,
,,,,,,,,,,,,,,,,,,5d544ce3be713b0001841f1e,2020-08-10_19h02.50.559,lexical_decision_task_MP,2020.1.3,MacIntel,60,m,1,0.486755,,,,,,,,0.486755,1,,,,,,138,WORD,UN,33,staple,MELODY,m,,,,,,0.024995117,-0.354887695,0,0,0,,0,149,149,137,1,,
,,,,,,,,,,,,,,,,,,5d544ce3be713b0001841f1e,2020-08-10_19h02.50.559,lexical_decision_task_MP,2020.1.3,MacIntel,60,m,1,0.56391,,,,,,,,0.56391,1,,,,,,10,WORD,"ID",33,ethnic,ETHNIC,m,,,,,,0.024995117,-0.354887695,0,0,0,,0,150,150,9,1,,
,,,,,,,,,,,,,,,,,,5d544ce3be713b0001841f1e,2020-08-10_19h02.50.559,lexical_decision_task_MP,2020.1.3,MacIntel,60,m,1,0.531035,,,,,,,,0.531035,1,,,,,,55,WORD,"ID",33,stroke,STROKE,m,,,,,,0.024995117,-0.354887695,0,0,0,,0,151,151,54,1,,
,,,,,,,,,,,,,,,,,,5d544ce3be713b0001841f1e,2020-08-10_19h02.50.559,lexical_decision_task_MP,2020.1.3,MacIntel,60,m,1,0.56822,,,,,,,,0.56822,1,,,,,,195,WORD,UN,50,credit,RESIGN,m,,,,,,0.024995117,-0.354887695,0,0,0,,0,152,152,194,1,,
,,,,,,,,,,,,,,,,,,5d544ce3be713b0001841f1e,2020-08-10_19h02.50.559,lexical_decision_task_MP,2020.1.3,MacIntel,60,z,1,0.62783,,,,,,,,0.62783,1,,,,,,434,NW,UN,50,impurb,PITROM,z,,,,,,0.024995117,-0.354887695,0,0,0,,0,153,153,433,1,,
,,,,,,,,,,,,,,,,,,5d544ce3be713b0001841f1e,2020-08-10_19h02.50.559,lexical_decision_task_MP,2020.1.3,MacIntel,60,z,1,0.519015,,,,,,,,0.519015,1,,,,,,410,NW,UN,33,orchin,TUNORY,z,,,,,,0.024995117,-0.354887695,0,0,0,,0,154,154,409,1,,
,,,,,,,,,,,,,,,,,,5d544ce3be713b0001841f1e,2020-08-10_19h02.50.559,lexical_decision_task_MP,2020.1.3,MacIntel,60,m,1,0.624425,,,,,,,,0.624425,1,,,,,,165,WORD,UN,33,starch,INVEST,m,,,,,,0.024995117,-0.354887695,0,0,0,,0,155,155,164,1,,
,,,,,,,,,,,,,,,,,,5d544ce3be713b0001841f1e,2020-08-10_19h02.50.559,lexical_decision_task_MP,2020.1.3,MacIntel,60,m,1,0.49284,,,,,,,,0.49284,1,,,,,,233,WORD,UN,50,clumsy,NATURE,m,,,,,,0.024995117,-0.354887695,0,0,0,,0,156,156,232,1,,
,,,,,,,,,,,,,,,,,,5d544ce3be713b0001841f1e,2020-08-10_19h02.50.559,lexical_decision_task_MP,2020.1.3,MacIntel,60,m,1,0.48328,,,,,,,,0.48328,1,,,,,,61,WORD,"ID",50,ponder,PONDER,m,,,,,,0.024995117,-0.354887695,0,0,0,,0,157,157,60,1,,
,,,,,,,,,,,,,,,,,,5d544ce3be713b0001841f1e,2020-08-10_19h02.50.559,lexical_decision_task_MP,2020.1.3,MacIntel,60,z,1,0.699415,,,,,,,,0.699415,1,,,,,,278,NW,"ID",33,unighs,UNIGHS,z,,,,,,0.024995117,-0.354887695,0,0,0,,0,158,158,277,1,,
,,,,,,,,,,,,,,,,,,5d544ce3be713b0001841f1e,2020-08-10_19h02.50.559,lexical_decision_task_MP,2020.1.3,MacIntel,60,m,1,0.59032,,,,,,,,0.59032,1,,,,,,135,WORD,UN,33,chrome,IMPORT,m,,,,,,0.024995117,-0.354887695,0,0,0,,0,159,159,134,1,,
,,,,,,,,,,,,,,,,,,5d544ce3be713b0001841f1e,2020-08-10_19h02.50.559,lexical_decision_task_MP,2020.1.3,MacIntel,60,m,1,0.59714,,,,,,,,0.59714,1,,,,,,232,WORD,UN,50,nature,INJECT,m,,,,,,0.024995117,-0.354887695,0,0,0,,0,160,160,231,1,,
,,,,,,,,,,,,,,,,,,5d544ce3be713b0001841f1e,2020-08-10_19h02.50.559,lexical_decision_task_MP,2020.1.3,MacIntel,60,m,1,0.892065,,,,,,,,0.892065,1,,,,,,127,WORD,UN,33,senior,CASTLE,m,,,,,,0.024995117,-0.354887695,0,0,0,,0,161,161,126,1,,
,,,,,,,,,,,,,,,,,,5d544ce3be713b0001841f1e,2020-08-10_19h02.50.559,lexical_decision_task_MP,2020.1.3,MacIntel,60,m,1,0.591595,,,,,,,,0.591595,1,,,,,,4,WORD,"ID",33,trench,TRENCH,m,,,,,,0.024995117,-0.354887695,0,0,0,,0,162,162,3,1,,
,,,,,,,,,,,,,,,,,,5d544ce3be713b0001841f1e,2020-08-10_19h02.50.559,lexical_decision_task_MP,2020.1.3,MacIntel,60,m,1,0.4811,,,,,,,,0.4811,1,,,,,,54,WORD,"ID",33,ramble,RAMBLE,m,,,,,,0.024995117,-0.354887695,0,0,0,,0,163,163,53,1,,
,,,,,,,,,,,,,,,,,,5d544ce3be713b0001841f1e,2020-08-10_19h02.50.559,lexical_decision_task_MP,2020.1.3,MacIntel,60,m,1,0.44502,,,,,,,,0.44502,1,,,,,,101,WORD,"ID",50,wrench,WRENCH,m,,,,,,0.024995117,-0.354887695,0,0,0,,0,164,164,100,1,,
,,,,,,,,,,,,,,,,,,5d544ce3be713b0001841f1e,2020-08-10_19h02.50.559,lexical_decision_task_MP,2020.1.3,MacIntel,60,z,1,0.662235,,,,,,,,0.662235,1,,,,,,326,NW,"ID",50,iguade,IGUADE,z,,,,,,0.024995117,-0.354887695,0,0,0,,0,165,165,325,1,,
,,,,,,,,,,,,,,,,,,5d544ce3be713b0001841f1e,2020-08-10_19h02.50.559,lexical_decision_task_MP,2020.1.3,MacIntel,60,m,1,0.544155,,,,,,,,0.544155,1,,,,,,99,WORD,"ID",50,fluent,FLUENT,m,,,,,,0.024995117,-0.354887695,0,0,0,,0,166,166,98,1,,
,,,,,,,,,,,,,,,,,,5d544ce3be713b0001841f1e,2020-08-10_19h02.50.559,lexical_decision_task_MP,2020.1.3,MacIntel,60,m,1,0.48355,,,,,,,,0.48355,1,,,,,,81,WORD,"ID",50,friend,FRIEND,m,,,,,,0.024995117,-0.354887695,0,0,0,,0,167,167,80,1,,
,,,,,,,,,,,,,,,,,,5d544ce3be713b0001841f1e,2020-08-10_19h02.50.559,lexical_decision_task_MP,2020.1.3,MacIntel,60,m,1,0.53665,,,,,,,,0.53665,1,,,,,,89,WORD,"ID",50,permit,PERMIT,m,,,,,,0.024995117,-0.354887695,0,0,0,,0,168,168,88,1,,
,,,,,,,,,,,,,,,,,,5d544ce3be713b0001841f1e,2020-08-10_19h02.50.559,lexical_decision_task_MP,2020.1.3,MacIntel,60,m,1,0.57105,,,,,,,,0.57105,1,,,,,,141,WORD,UN,33,spruce,ORPHAN,m,,,,,,0.024995117,-0.354887695,0,0,0,,0,169,169,140,1,,
,,,,,,,,,,,,,,,,,,5d544ce3be713b0001841f1e,2020-08-10_19h02.50.559,lexical_decision_task_MP,2020.1.3,MacIntel,60,m,1,0.483435,,,,,,,,0.483435,1,,,,,,32,WORD,"ID",33,buckle,BUCKLE,m,,,,,,0.024995117,-0.354887695,0,0,0,,0,170,170,31,1,,
,,,,,,,,,,,,,,,,,,5d544ce3be713b0001841f1e,2020-08-10_19h02.50.559,lexical_decision_task_MP,2020.1.3,MacIntel,60,m,1,0.52423,,,,,,,,0.52423,1,,,,,,3,WORD,"ID",33,knight,KNIGHT,m,,,,,,0.024995117,-0.354887695,0,0,0,,0,171,171,2,1,,
,,,,,,,,,,,,,,,,,,5d544ce3be713b0001841f1e,2020-08-10_19h02.50.559,lexical_decision_task_MP,2020.1.3,MacIntel,60,m,1,0.419865,,,,,,,,0.419865,1,,,,,,67,WORD,"ID",50,policy,POLICY,m,,,,,,0.024995117,-0.354887695,0,0,0,,0,172,172,66,1,,
,,,,,,,,,,,,,,,,,,5d544ce3be713b0001841f1e,2020-08-10_19h02.50.559,lexical_decision_task_MP,2020.1.3,MacIntel,60,z,1,0.62384,,,,,,,,0.62384,1,,,,,,399,NW,UN,33,wearox,FOURET,z,,,,,,0.024995117,-0.354887695,0,0,0,,0,173,173,398,1,,
,,,,,,,,,,,,,,,,,,5d544ce3be713b0001841f1e,2020-08-10_19h02.50.559,lexical_decision_task_MP,2020.1.3,MacIntel,60,m,1,0.61232,,,,,,,,0.61232,1,,,,,,153,WORD,UN,33,author,BEHOLD,m,,,,,,0.024995117,-0.354887695,0,0,0,,0,174,174,152,1,,
,,,,,,,,,,,,,,,,,,5d544ce3be713b0001841f1e,2020-08-10_19h02.50.559,lexical_decision_task_MP,2020.1.3,MacIntel,60,m,1,0.434145,,,,,,,,0.434145,1,,,,,,118,WORD,"ID",50,flight,FLIGHT,m,,,,,,0.024995117,-0.354887695,0,0,0,,0,175,175,117,1,,
,,,,,,,,,,,,,,,,,,5d544ce3be713b0001841f1e,2020-08-10_19h02.50.559,lexical_decision_task_MP,2020.1.3,MacIntel,60,m,1,0.504715,,,,,,,,0.504715,1,,,,,,37,WORD,"ID",33,insult,INSULT,m,,,,,,0.024995117,-0.354887695,0,0,0,,0,176,176,36,1,,
,,,,,,,,,,,,,,,,,,5d544ce3be713b0001841f1e,2020-08-10_19h02.50.559,lexical_decision_task_MP,2020.1.3,MacIntel,60,z,1,0.56648,,,,,,,,0.56648,1,,,,,,392,NW,UN,33,ganous,ROUNCY,z,,,,,,0.024995117,-0.354887695,0,0,0,,0,177,177,391,1,,
,,,,,,,,,,,,,,,,,,5d544ce3be713b0001841f1e,2020-08-10_19h02.50.559,lexical_decision_task_MP,2020.1.3,MacIntel,60,m,1,0.71481,,,,,,,,0.71481,1,,,,,,236,WORD,UN,50,poster,PIRATE,m,,,,,,0.024995117,-0.354887695,0,0,0,,0,178,178,235,1,,
,,,,,,,,,,,,,,,,,,5d544ce3be713b0001841f1e,2020-08-10_19h02.50.559,lexical_decision_task_MP,2020.1.3,MacIntel,60,z,1,0.61618,,,,,,,,0.61618,1,,,,,,259,NW,"ID",33,soudal,SOUDAL,z,,,,,,0.024995117,-0.354887695,0,0,0,,0,179,179,258,1,,
,,,,,,,,,,,,,,,,,,5d544ce3be713b0001841f1e,2020-08-10_19h02.50.559,lexical_decision_task_MP,2020.1.3,MacIntel,60,m,1,0.627995,,,,,,,,0.627995,1,,,,,,121,WORD,UN,33,linger,THRIVE,m,,,,,,0.024995117,-0.354887695,0,0,0,,0,180,180,120,1,,
,,,,,,,,,,,,,,,,,,5d544ce3be713b0001841f1e,2020-08-10_19h02.50.559,lexical_decision_task_MP,2020.1.3,MacIntel,60,m,1,0.51804,,,,,,,,0.51804,1,,,,,,107,WORD,"ID",50,slogan,SLOGAN,m,,,,,,0.024995117,-0.354887695,0,0,0,,0,181,181,106,1,,
,,,,,,,,,,,,,,,,,,5d544ce3be713b0001841f1e,2020-08-10_19h02.50.559,lexical_decision_task_MP,2020.1.3,MacIntel,60,m,1,0.45155,,,,,,,,0.45155,1,,,,,,137,WORD,UN,33,melody,FINGER,m,,,,,,0.024995117,-0.354887695,0,0,0,,0,182,182,136,1,,
,,,,,,,,,,,,,,,,,,5d544ce3be713b0001841f1e,2020-08-10_19h02.50.559,lexical_decision_task_MP,2020.1.3,MacIntel,60,z,1,0.767215,,,,,,,,0.767215,1,,,,,,378,NW,UN,33,auting,SHRILE,z,,,,,,0.024995117,-0.354887695,0,0,0,,0,183,183,377,1,,
,,,,,,,,,,,,,,,,,,5d544ce3be713b0001841f1e,2020-08-10_19h02.50.559,lexical_decision_task_MP,2020.1.3,MacIntel,60,m,1,0.632625,,,,,,,,0.632625,1,,,,,,2,WORD,"ID",33,bridge,BRIDGE,m,,,,,,0.024995117,-0.354887695,0,0,0,,0,184,184,1,1,,
,,,,,,,,,,,,,,,,,,5d544ce3be713b0001841f1e,2020-08-10_19h02.50.559,lexical_decision_task_MP,2020.1.3,MacIntel,60,z,1,0.75163,,,,,,,,0.75163,1,,,,,,377,NW,UN,33,shrile,INJORE,z,,,,,,0.024995117,-0.354887695,0,0,0,,0,185,185,376,1,,
,,,,,,,,,,,,,,,,,,5d544ce3be713b0001841f1e,2020-08-10_19h02.50.559,lexical_decision_task_MP,2020.1.3,MacIntel,60,m,1,0.73506,,,,,,,,0.73506,1,,,,,,152,WORD,UN,33,behold,ROCKET,m,,,,,,0.024995117,-0.354887695,0,0,0,,0,186,186,151,1,,
,,,,,,,,,,,,,,,,,,5d544ce3be713b0001841f1e,2020-08-10_19h02.50.559,lexical_decision_task_MP,2020.1.3,MacIntel,60,m,1,0.46144,,,,,,,,0.46144,1,,,,,,197,WORD,UN,50,wicked,STREAM,m,,,,,,0.024995117,-0.354887695,0,0,0,,0,187,187,196,1,,
,,,,,,,,,,,,,,,,,,5d544ce3be713b0001841f1e,2020-08-10_19h02.50.559,lexical_decision_task_MP,2020.1.3,MacIntel,60,m,1,0.500555,,,,,,,,0.500555,1,,,,,,215,WORD,UN,50,behalf,PHOBIA,m,,,,,,0.024995117,-0.354887695,0,0,0,,0,188,188,214,1,,
,,,,,,,,,,,,,,,,,,5d544ce3be713b0001841f1e,2020-08-10_19h02.50.559,lexical_decision_task_MP,2020.1.3,MacIntel,60,z,1,0.63332,,,,,,,,0.63332,1,,,,,,249,NW,"ID",33,batrol,BATROL,z,,,,,,0.024995117,-0.354887695,0,0,0,,0,189,189,248,1,,
,,,,,,,,,,,,,,,,,,5d544ce3be713b0001841f1e,2020-08-10_19h02.50.559,lexical_decision_task_MP,2020.1.3,MacIntel,60,z,1,0.666255,,,,,,,,0.666255,1,,,,,,406,NW,UN,33,suiver,NOUPLY,z,,,,,,0.024995117,-0.354887695,0,0,0,,0,190,190,405,1,,
,,,,,,,,,,,,,,,,,,5d544ce3be713b0001841f1e,2020-08-10_19h02.50.559,lexical_decision_task_MP,2020.1.3,MacIntel,60,m,1,0.66816,,,,,,,,0.66816,1,,,,,,86,WORD,"ID",50,rodent,RODENT,m,,,,,,0.024995117,-0.354887695,0,0,0,,0,191,191,85,1,,
,,,,,,,,,,,,,,,,,,5d544ce3be713b0001841f1e,2020-08-10_19h02.50.559,lexical_decision_task_MP,2020.1.3,MacIntel,60,z,1,0.96321,,,,,,,,0.96321,1,,,,,,433,NW,UN,50,pitrom,DRANCE,z,,,,,,0.024995117,-0.354887695,0,0,0,,0,192,192,432,1,,
,,,,,,,,,,,,,,,,,,5d544ce3be713b0001841f1e,2020-08-10_19h02.50.559,lexical_decision_task_MP,2020.1.3,MacIntel,60,m,1,0.534495,,,,,,,,0.534495,1,,,,,,5,WORD,"ID",33,plunge,PLUNGE,m,,,,,,0.024995117,-0.354887695,0,0,0,,0,193,193,4,1,,
,,,,,,,,,,,,,,,,,,5d544ce3be713b0001841f1e,2020-08-10_19h02.50.559,lexical_decision_task_MP,2020.1.3,MacIntel,60,z,1,0.70175,,,,,,,,0.70175,1,,,,,,310,NW,"ID",50,daniet,DANIET,z,,,,,,0.024995117,-0.354887695,0,0,0,,0,194,194,309,1,,
,,,,,,,,,,,,,,,,,,5d544ce3be713b0001841f1e,2020-08-10_19h02.50.559,lexical_decision_task_MP,2020.1.3,MacIntel,60,z,1,0.684075,,,,,,,,0.684075,1,,,,,,263,NW,"ID",33,dolica,DOLICA,z,,,,,,0.024995117,-0.354887695,0,0,0,,0,195,195,262,1,,
,,,,,,,,,,,,,,,,,,5d544ce3be713b0001841f1e,2020-08-10_19h02.50.559,lexical_decision_task_MP,2020.1.3,MacIntel,60,z,1,0.541315,,,,,,,,0.541315,1,,,,,,296,NW,"ID",33,beinch,BEINCH,z,,,,,,0.024995117,-0.354887695,0,0,0,,0,196,196,295,1,,
,,,,,,,,,,,,,,,,,,5d544ce3be713b0001841f1e,2020-08-10_19h02.50.559,lexical_decision_task_MP,2020.1.3,MacIntel,60,m,1,0.586355,,,,,,,,0.586355,1,,,,,,175,WORD,UN,33,strife,FABRIC,m,,,,,,0.024995117,-0.354887695,0,0,0,,0,197,197,174,1,,
,,,,,,,,,,,,,,,,,,5d544ce3be713b0001841f1e,2020-08-10_19h02.50.559,lexical_decision_task_MP,2020.1.3,MacIntel,60,m,1,0.57374,,,,,,,,0.57374,1,,,,,,76,WORD,"ID",50,exotic,EXOTIC,m,,,,,,0.024995117,-0.354887695,0,0,0,,0,198,198,75,1,,
,,,,,,,,,,,,,,,,,,5d544ce3be713b0001841f1e,2020-08-10_19h02.50.559,lexical_decision_task_MP,2020.1.3,MacIntel,60,m,1,0.818735,,,,,,,,0.818735,1,,,,,,16,WORD,"ID",33,faucet,FAUCET,m,,,,,,0.024995117,-0.354887695,0,0,0,,0,199,199,15,1,,
,,,,,,,,,,,,,,,,,,5d544ce3be713b0001841f1e,2020-08-10_19h02.50.559,lexical_decision_task_MP,2020.1.3,MacIntel,60,z,1,0.717365,,,,,,,,0.717365,1,,,,,,428,NW,UN,50,chrums,TANDLY,z,,,,,,0.024995117,-0.354887695,0,0,0,,0,200,200,427,1,,
,,,,,,,,,,,,,,,,,,5d544ce3be713b0001841f1e,2020-08-10_19h02.50.559,lexical_decision_task_MP,2020.1.3,MacIntel,60,m,1,0.55169,,,,,,,,0.55169,1,,,,,,95,WORD,"ID",50,thread,THREAD,m,,,,,,0.024995117,-0.354887695,0,0,0,,0,201,201,94,1,,
,,,,,,,,,,,,,,,,,,5d544ce3be713b0001841f1e,2020-08-10_19h02.50.559,lexical_decision_task_MP,2020.1.3,MacIntel,60,z,1,0.60211,,,,,,,,0.60211,1,,,,,,375,NW,UN,33,iguare,YORQUE,z,,,,,,0.024995117,-0.354887695,0,0,0,,0,202,202,374,1,,
,,,,,,,,,,,,,,,,,,5d544ce3be713b0001841f1e,2020-08-10_19h02.50.559,lexical_decision_task_MP,2020.1.3,MacIntel,60,m,1,0.733615,,,,,,,,0.733615,1,,,,,,148,WORD,UN,33,invade,CUSTOM,m,,,,,,0.024995117,-0.354887695,0,0,0,,0,203,203,147,1,,
,,,,,,,,,,,,,,,,,,5d544ce3be713b0001841f1e,2020-08-10_19h02.50.559,lexical_decision_task_MP,2020.1.3,MacIntel,60,m,1,1.403835,,,,,,,,1.403835,1,,,,,,184,WORD,UN,50,bother,SLEAZY,m,,,,,,0.024995117,-0.354887695,0,0,0,,0,204,204,183,1,,
,,,,,,,,,,,,,,,,,,5d544ce3be713b0001841f1e,2020-08-10_19h02.50.559,lexical_decision_task_MP,2020.1.3,MacIntel,60,m,1,0.549475,,,,,,,,0.549475,1,,,,,,62,WORD,"ID",50,region,REGION,m,,,,,,0.024995117,-0.354887695,0,0,0,,0,205,205,61,1,,
,,,,,,,,,,,,,,,,,,5d544ce3be713b0001841f1e,2020-08-10_19h02.50.559,lexical_decision_task_MP,2020.1.3,MacIntel,60,z,1,0.65101,,,,,,,,0.65101,1,,,,,,255,NW,"ID",33,apight,APIGHT,z,,,,,,0.024995117,-0.354887695,0,0,0,,0,206,206,254,1,,
,,,,,,,,,,,,,,,,,,5d544ce3be713b0001841f1e,2020-08-10_19h02.50.559,lexical_decision_task_MP,2020.1.3,MacIntel,60,m,1,0.59873,,,,,,,,0.59873,1,,,,,,36,WORD,"ID",33,vanish,VANISH,m,,,,,,0.024995117,-0.354887695,0,0,0,,0,207,207,35,1,,
,,,,,,,,,,,,,,,,,,5d544ce3be713b0001841f1e,2020-08-10_19h02.50.559,lexical_decision_task_MP,2020.1.3,MacIntel,60,m,0,0.9179,,,,,,,,0.9179,0,,,,,,277,NW,"ID",33,petain,PETAIN,z,,,,,,0.024995117,-0.354887695,0,0,0,,0,208,208,276,1,,
,,,,,,,,,,,,,,,,,,5d544ce3be713b0001841f1e,2020-08-10_19h02.50.559,lexical_decision_task_MP,2020.1.3,MacIntel,60,m,1,0.76103,,,,,,,,0.76103,1,,,,,,18,WORD,"ID",33,humble,HUMBLE,m,,,,,,0.024995117,-0.354887695,0,0,0,,0,209,209,17,1,,
,,,,,,,,,,,,,,,,,,5d544ce3be713b0001841f1e,2020-08-10_19h02.50.559,lexical_decision_task_MP,2020.1.3,MacIntel,60,m,1,0.58839,,,,,,,,0.58839,1,,,,,,145,WORD,UN,33,couple,PARISH,m,,,,,,0.024995117,-0.354887695,0,0,0,,0,210,210,144,1,,
,,,,,,,,,,,,,,,,,,5d544ce3be713b0001841f1e,2020-08-10_19h02.50.559,lexical_decision_task_MP,2020.1.3,MacIntel,60,m,1,0.754445,,,,,,,,0.754445,1,,,,,,29,WORD,"ID",33,sketch,SKETCH,m,,,,,,0.024995117,-0.354887695,0,0,0,,0,211,211,28,1,,
,,,,,,,,,,,,,,,,,,5d544ce3be713b0001841f1e,2020-08-10_19h02.50.559,lexical_decision_task_MP,2020.1.3,MacIntel,60,z,1,0.668315,,,,,,,,0.668315,1,,,,,,283,NW,"ID",33,veralf,VERALF,z,,,,,,0.024995117,-0.354887695,0,0,0,,0,212,212,282,1,,
,,,,,,,,,,,,,,,,,,5d544ce3be713b0001841f1e,2020-08-10_19h02.50.559,lexical_decision_task_MP,2020.1.3,MacIntel,60,z,1,0.899675,,,,,,,,0.899675,1,,,,,,291,NW,"ID",33,pretch,PRETCH,z,,,,,,0.024995117,-0.354887695,0,0,0,,0,213,213,290,1,,
,,,,,,,,,,,,,,,,,,5d544ce3be713b0001841f1e,2020-08-10_19h02.50.559,lexical_decision_task_MP,2020.1.3,MacIntel,60,z,1,0.79266,,,,,,,,0.79266,1,,,,,,313,NW,"ID",50,paurse,PAURSE,z,,,,,,0.024995117,-0.354887695,0,0,0,,0,214,214,312,1,,
,,,,,,,,,,,,,,,,,,5d544ce3be713b0001841f1e,2020-08-10_19h02.50.559,lexical_decision_task_MP,2020.1.3,MacIntel,60,m,1,0.547445,,,,,,,,0.547445,1,,,,,,229,WORD,UN,50,fringe,MOTHER,m,,,,,,0.024995117,-0.354887695,0,0,0,,0,215,215,228,1,,
,,,,,,,,,,,,,,,,,,5d544ce3be713b0001841f1e,2020-08-10_19h02.50.559,lexical_decision_task_MP,2020.1.3,MacIntel,60,z,1,0.634185,,,,,,,,0.634185,1,,,,,,369,NW,UN,33,sleact,WRONCH,z,,,,,,0.024995117,-0.354887695,0,0,0,,0,216,216,368,1,,
,,,,,,,,,,,,,,,,,,5d544ce3be713b0001841f1e,2020-08-10_19h02.50.559,lexical_decision_task_MP,2020.1.3,MacIntel,60,m,1,0.63293,,,,,,,,0.63293,1,,,,,,130,WORD,UN,33,quench,STUPID,m,,,,,,0.024995117,-0.354887695,0,0,0,,0,217,217,129,1,,
,,,,,,,,,,,,,,,,,,5d544ce3be713b0001841f1e,2020-08-10_19h02.50.559,lexical_decision_task_MP,2020.1.3,MacIntel,60,z,1,0.61825,,,,,,,,0.61825,1,,,,,,417,NW,UN,33,suidle,EAROUD,z,,,,,,0.024995117,-0.354887695,0,0,0,,0,218,218,416,1,,
,,,,,,,,,,,,,,,,,,5d544ce3be713b0001841f1e,2020-08-10_19h02.50.559,lexical_decision_task_MP,2020.1.3,MacIntel,60,z,1,0.7376,,,,,,,,0.7376,1,,,,,,314,NW,"ID",50,sprine,SPRINE,z,,,,,,0.024995117,-0.354887695,0,0,0,,0,219,219,313,1,,
,,,,,,,,,,,,,,,,,,5d544ce3be713b0001841f1e,2020-08-10_19h02.50.559,lexical_decision_task_MP,2020.1.3,MacIntel,60,z,1,0.80809,,,,,,,,0.80809,1,,,,,,476,NW,UN,50,photie,JOSTED,z,,,,,,0.024995117,-0.354887695,0,0,0,,0,220,220,475,1,,
,,,,,,,,,,,,,,,,,,5d544ce3be713b0001841f1e,2020-08-10_19h02.50.559,lexical_decision_task_MP,2020.1.3,MacIntel,60,z,1,0.608895,,,,,,,,0.608895,1,,,,,,438,NW,UN,50,limpor,BAITCH,z,,,,,,0.024995117,-0.354887695,0,0,0,,0,221,221,437,1,,
,,,,,,,,,,,,,,,,,,5d544ce3be713b0001841f1e,2020-08-10_19h02.50.559,lexical_decision_task_MP,2020.1.3,MacIntel,60,m,1,0.585475,,,,,,,,0.585475,1,,,,,,150,WORD,UN,33,mystic,RANDOM,m,,,,,,0.024995117,-0.354887695,0,0,0,,0,222,222,149,1,,
,,,,,,,,,,,,,,,,,,5d544ce3be713b0001841f1e,2020-08-10_19h02.50.559,lexical_decision_task_MP,2020.1.3,MacIntel,60,z,1,0.59037,,,,,,,,0.59037,1,,,,,,241,NW,"ID",33,smenco,SMENCO,z,,,,,,0.024995117,-0.354887695,0,0,0,,0,223,223,240,1,,
,,,,,,,,,,,,,,,,,,5d544ce3be713b0001841f1e,2020-08-10_19h02.50.559,lexical_decision_task_MP,2020.1.3,MacIntel,60,m,1,0.65971,,,,,,,,0.65971,1,,,,,,88,WORD,"ID",50,hunger,HUNGER,m,,,,,,0.024995117,-0.354887695,0,0,0,,0,224,224,87,1,,
,,,,,,,,,,,,,,,,,,5d544ce3be713b0001841f1e,2020-08-10_19h02.50.559,lexical_decision_task_MP,2020.1.3,MacIntel,60,z,1,0.551095,,,,,,,,0.551095,1,,,,,,267,NW,"ID",33,pasink,PASINK,z,,,,,,0.024995117,-0.354887695,0,0,0,,0,225,225,266,1,,
,,,,,,,,,,,,,,,,,,5d544ce3be713b0001841f1e,2020-08-10_19h02.50.559,lexical_decision_task_MP,2020.1.3,MacIntel,60,z,1,0.60401,,,,,,,,0.60401,1,,,,,,266,NW,"ID",33,varmit,VARMIT,z,,,,,,0.024995117,-0.354887695,0,0,0,,0,226,226,265,1,,
,,,,,,,,,,,,,,,,,,5d544ce3be713b0001841f1e,2020-08-10_19h02.50.559,lexical_decision_task_MP,2020.1.3,MacIntel,60,m,1,0.598625,,,,,,,,0.598625,1,,,,,,143,WORD,UN,33,sponge,REASON,m,,,,,,0.024995117,-0.354887695,0,0,0,,0,227,227,142,1,,
,,,,,,,,,,,,,,,,,,5d544ce3be713b0001841f1e,2020-08-10_19h02.50.559,lexical_decision_task_MP,2020.1.3,MacIntel,60,z,1,0.7694,,,,,,,,0.7694,1,,,,,,319,NW,"ID",50,zomber,ZOMBER,z,,,,,,0.024995117,-0.354887695,0,0,0,,0,228,228,318,1,,
,,,,,,,,,,,,,,,,,,5d544ce3be713b0001841f1e,2020-08-10_19h02.50.559,lexical_decision_task_MP,2020.1.3,MacIntel,60,z,1,0.655245,,,,,,,,0.655245,1,,,,,,275,NW,"ID",33,sleirt,SLEIRT,z,,,,,,0.024995117,-0.354887695,0,0,0,,0,229,229,274,1,,
,,,,,,,,,,,,,,,,,,5d544ce3be713b0001841f1e,2020-08-10_19h02.50.559,lexical_decision_task_MP,2020.1.3,MacIntel,60,m,1,0.620425,,,,,,,,0.620425,1,,,,,,83,WORD,"ID",50,result,RESULT,m,,,,,,0.024995117,-0.354887695,0,0,0,,0,230,230,82,1,,
,,,,,,,,,,,,,,,,,,5d544ce3be713b0001841f1e,2020-08-10_19h02.50.559,lexical_decision_task_MP,2020.1.3,MacIntel,60,z,1,0.568065,,,,,,,,0.568065,1,,,,,,353,NW,"ID",50,clurey,CLUREY,z,,,,,,0.024995117,-0.354887695,0,0,0,,0,231,231,352,1,,
,,,,,,,,,,,,,,,,,,5d544ce3be713b0001841f1e,2020-08-10_19h02.50.559,lexical_decision_task_MP,2020.1.3,MacIntel,60,z,1,0.51474,,,,,,,,0.51474,1,,,,,,371,NW,UN,33,ramily,GEILOY,z,,,,,,0.024995117,-0.354887695,0,0,0,,0,232,232,370,1,,
,,,,,,,,,,,,,,,,,,5d544ce3be713b0001841f1e,2020-08-10_19h02.50.559,lexical_decision_task_MP,2020.1.3,MacIntel,60,z,1,0.52834,,,,,,,,0.52834,1,,,,,,436,NW,UN,50,snapel,FRUTAN,z,,,,,,0.024995117,-0.354887695,0,0,0,,0,233,233,435,1,,
,,,,,,,,,,,,,,,,,,5d544ce3be713b0001841f1e,2020-08-10_19h02.50.559,lexical_decision_task_MP,2020.1.3,MacIntel,60,z,0,0.546505,,,,,,,,0.546505,0,,,,,,217,WORD,UN,50,shrink,LIQUOR,m,,,,,,0.024995117,-0.354887695,0,0,0,,0,234,234,216,1,,
,,,,,,,,,,,,,,,,,,5d544ce3be713b0001841f1e,2020-08-10_19h02.50.559,lexical_decision_task_MP,2020.1.3,MacIntel,60,m,1,0.574515,,,,,,,,0.574515,1,,,,,,39,WORD,"ID",33,insect,INSECT,m,,,,,,0.024995117,-0.354887695,0,0,0,,0,235,235,38,1,,
,,,,,,,,,,,,,,,,,,5d544ce3be713b0001841f1e,2020-08-10_19h02.50.559,lexical_decision_task_MP,2020.1.3,MacIntel,60,z,1,0.688315,,,,,,,,0.688315,1,,,,,,260,NW,"ID",33,unject,UNJECT,z,,,,,,0.024995117,-0.354887695,0,0,0,,0,236,236,259,1,,
,,,,,,,,,,,,,,,,,,5d544ce3be713b0001841f1e,2020-08-10_19h02.50.559,lexical_decision_task_MP,2020.1.3,MacIntel,60,z,1,0.64797,,,,,,,,0.64797,1,,,,,,474,NW,UN,50,gorbie,HABLIN,z,,,,,,0.024995117,-0.354887695,0,0,0,,0,237,237,473,1,,
,,,,,,,,,,,,,,,,,,5d544ce3be713b0001841f1e,2020-08-10_19h02.50.559,lexical_decision_task_MP,2020.1.3,MacIntel,60,z,1,0.667215,,,,,,,,0.667215,1,,,,,,388,NW,UN,33,witmer,CRAGIN,z,,,,,,0.024995117,-0.354887695,0,0,0,,0,238,238,387,1,,
,,,,,,,,,,,,,,,,,,5d544ce3be713b0001841f1e,2020-08-10_19h02.50.559,lexical_decision_task_MP,2020.1.3,MacIntel,60,m,1,0.561995,,,,,,,,0.561995,1,,,,,,12,WORD,"ID",33,orange,ORANGE,m,,,,,,0.024995117,-0.354887695,0,0,0,,0,239,239,11,1,,
,,,,,,,,,,,,,,,,,,5d544ce3be713b0001841f1e,2020-08-10_19h02.50.559,lexical_decision_task_MP,2020.1.3,MacIntel,60,z,1,0.553925,,,,,,,,0.553925,1,,,,,,337,NW,"ID",50,rejols,REJOLS,z,,,,,,0.024995117,-0.354887695,0,0,0,,0,240,240,336,1,,
,,,,,,,,,,,,,,,,,,5d544ce3be713b0001841f1e,2020-08-10_19h02.50.559,lexical_decision_task_MP,2020.1.3,MacIntel,60,m,1,0.707105,,,,,,,,0.707105,1,,,,,,77,WORD,"ID",50,racket,RACKET,m,,,,,,0.024995117,-0.354887695,0,0,0,space,0,241,241,76,1,64.256045,
,,,,,,,,,,,,,,,,,,5d544ce3be713b0001841f1e,2020-08-10_19h02.50.559,lexical_decision_task_MP,2020.1.3,MacIntel,60,z,1,0.597115,,,,,,,,0.597115,1,,,,,,323,NW,"ID",50,rosail,ROSAIL,z,,,,,,0.024995117,-0.354887695,0,0,0,,0,242,242,322,1,,
,,,,,,,,,,,,,,,,,,5d544ce3be713b0001841f1e,2020-08-10_19h02.50.559,lexical_decision_task_MP,2020.1.3,MacIntel,60,z,1,0.605685,,,,,,,,0.605685,1,,,,,,243,NW,"ID",33,musied,MUSIED,z,,,,,,0.024995117,-0.354887695,0,0,0,,0,243,243,242,1,,
,,,,,,,,,,,,,,,,,,5d544ce3be713b0001841f1e,2020-08-10_19h02.50.559,lexical_decision_task_MP,2020.1.3,MacIntel,60,z,1,0.694315,,,,,,,,0.694315,1,,,,,,431,NW,UN,50,lunker,CHRUMS,z,,,,,,0.024995117,-0.354887695,0,0,0,,0,244,244,430,1,,
,,,,,,,,,,,,,,,,,,5d544ce3be713b0001841f1e,2020-08-10_19h02.50.559,lexical_decision_task_MP,2020.1.3,MacIntel,60,m,1,0.556435,,,,,,,,0.556435,1,,,,,,49,WORD,"ID",33,survey,SURVEY,m,,,,,,0.024995117,-0.354887695,0,0,0,,0,245,245,48,1,,
,,,,,,,,,,,,,,,,,,5d544ce3be713b0001841f1e,2020-08-10_19h02.50.559,lexical_decision_task_MP,2020.1.3,MacIntel,60,z,1,0.657465,,,,,,,,0.657465,1,,,,,,247,NW,"ID",33,blarge,BLARGE,z,,,,,,0.024995117,-0.354887695,0,0,0,,0,246,246,246,1,,
,,,,,,,,,,,,,,,,,,5d544ce3be713b0001841f1e,2020-08-10_19h02.50.559,lexical_decision_task_MP,2020.1.3,MacIntel,60,z,1,0.534375,,,,,,,,0.534375,1,,,,,,301,NW,"ID",50,fainch,FAINCH,z,,,,,,0.024995117,-0.354887695,0,0,0,,0,247,247,300,1,,
,,,,,,,,,,,,,,,,,,5d544ce3be713b0001841f1e,2020-08-10_19h02.50.559,lexical_decision_task_MP,2020.1.3,MacIntel,60,z,1,0.664315,,,,,,,,0.664315,1,,,,,,407,NW,UN,33,hurnia,SUIVER,z,,,,,,0.024995117,-0.354887695,0,0,0,,0,248,248,406,1,,
,,,,,,,,,,,,,,,,,,5d544ce3be713b0001841f1e,2020-08-10_19h02.50.559,lexical_decision_task_MP,2020.1.3,MacIntel,60,m,1,0.5246,,,,,,,,0.5246,1,,,,,,65,WORD,"ID",50,symbol,SYMBOL,m,,,,,,0.024995117,-0.354887695,0,0,0,,0,249,249,64,1,,
,,,,,,,,,,,,,,,,,,5d544ce3be713b0001841f1e,2020-08-10_19h02.50.559,lexical_decision_task_MP,2020.1.3,MacIntel,60,z,1,0.58636,,,,,,,,0.58636,1,,,,,,423,NW,UN,50,praile,STRELD,z,,,,,,0.024995117,-0.354887695,0,0,0,,0,250,250,422,1,,
,,,,,,,,,,,,,,,,,,5d544ce3be713b0001841f1e,2020-08-10_19h02.50.559,lexical_decision_task_MP,2020.1.3,MacIntel,60,z,1,0.51312,,,,,,,,0.51312,1,,,,,,302,NW,"ID",50,miluer,MILUER,z,,,,,,0.024995117,-0.354887695,0,0,0,,0,251,251,301,1,,
,,,,,,,,,,,,,,,,,,5d544ce3be713b0001841f1e,2020-08-10_19h02.50.559,lexical_decision_task_MP,2020.1.3,MacIntel,60,m,0,0.66738,,,,,,,,0.66738,0,,,,,,341,NW,"ID",50,myrtie,MYRTIE,z,,,,,,0.024995117,-0.354887695,0,0,0,,0,252,252,340,1,,
,,,,,,,,,,,,,,,,,,5d544ce3be713b0001841f1e,2020-08-10_19h02.50.559,lexical_decision_task_MP,2020.1.3,MacIntel,60,m,1,0.613625,,,,,,,,0.613625,1,,,,,,209,WORD,UN,50,monkey,SEARCH,m,,,,,,0.024995117,-0.354887695,0,0,0,,0,253,253,208,1,,
,,,,,,,,,,,,,,,,,,5d544ce3be713b0001841f1e,2020-08-10_19h02.50.559,lexical_decision_task_MP,2020.1.3,MacIntel,60,z,1,0.524035,,,,,,,,0.524035,1,,,,,,254,NW,"ID",33,varosh,VAROSH,z,,,,,,0.024995117,-0.354887695,0,0,0,,0,254,254,253,1,,
,,,,,,,,,,,,,,,,,,5d544ce3be713b0001841f1e,2020-08-10_19h02.50.559,lexical_decision_task_MP,2020.1.3,MacIntel,60,m,1,0.58574,,,,,,,,0.58574,1,,,,,,223,WORD,UN,50,period,KIDNEY,m,,,,,,0.024995117,-0.354887695,0,0,0,,0,255,255,222,1,,
,,,,,,,,,,,,,,,,,,5d544ce3be713b0001841f1e,2020-08-10_19h02.50.559,lexical_decision_task_MP,2020.1.3,MacIntel,60,m,1,0.53366,,,,,,,,0.53366,1,,,,,,202,WORD,UN,50,phrase,FACTOR,m,,,,,,0.024995117,-0.354887695,0,0,0,,0,256,256,201,1,,
,,,,,,,,,,,,,,,,,,5d544ce3be713b0001841f1e,2020-08-10_19h02.50.559,lexical_decision_task_MP,2020.1.3,MacIntel,60,z,1,0.534845,,,,,,,,0.534845,1,,,,,,330,NW,"ID",50,kensom,KENSOM,z,,,,,,0.024995117,-0.354887695,0,0,0,,0,257,257,329,1,,
,,,,,,,,,,,,,,,,,,5d544ce3be713b0001841f1e,2020-08-10_19h02.50.559,lexical_decision_task_MP,2020.1.3,MacIntel,60,z,1,0.790005,,,,,,,,0.790005,1,,,,,,435,NW,UN,50,frutan,IMPURB,z,,,,,,0.024995117,-0.354887695,0,0,0,,0,258,258,434,1,,
,,,,,,,,,,,,,,,,,,5d544ce3be713b0001841f1e,2020-08-10_19h02.50.559,lexical_decision_task_MP,2020.1.3,MacIntel,60,m,1,0.722615,,,,,,,,0.722615,1,,,,,,111,WORD,"ID",50,induce,INDUCE,m,,,,,,0.024995117,-0.354887695,0,0,0,,0,259,259,110,1,,
,,,,,,,,,,,,,,,,,,5d544ce3be713b0001841f1e,2020-08-10_19h02.50.559,lexical_decision_task_MP,2020.1.3,MacIntel,60,m,1,0.554885,,,,,,,,0.554885,1,,,,,,172,WORD,UN,33,shower,PATROL,m,,,,,,0.024995117,-0.354887695,0,0,0,,0,260,260,171,1,,
,,,,,,,,,,,,,,,,,,5d544ce3be713b0001841f1e,2020-08-10_19h02.50.559,lexical_decision_task_MP,2020.1.3,MacIntel,60,z,1,0.586405,,,,,,,,0.586405,1,,,,,,381,NW,UN,33,sarley,HUNIEK,z,,,,,,0.024995117,-0.354887695,0,0,0,,0,261,261,380,1,,
,,,,,,,,,,,,,,,,,,5d544ce3be713b0001841f1e,2020-08-10_19h02.50.559,lexical_decision_task_MP,2020.1.3,MacIntel,60,m,1,0.5702,,,,,,,,0.5702,1,,,,,,159,WORD,UN,33,violet,DETAIL,m,,,,,,0.024995117,-0.354887695,0,0,0,,0,262,262,158,1,,
,,,,,,,,,,,,,,,,,,5d544ce3be713b0001841f1e,2020-08-10_19h02.50.559,lexical_decision_task_MP,2020.1.3,MacIntel,60,z,1,0.67324,,,,,,,,0.67324,1,,,,,,471,NW,UN,50,cigney,NOBEST,z,,,,,,0.024995117,-0.354887695,0,0,0,,0,263,263,470,1,,
,,,,,,,,,,,,,,,,,,5d544ce3be713b0001841f1e,2020-08-10_19h02.50.559,lexical_decision_task_MP,2020.1.3,MacIntel,60,m,1,0.58429,,,,,,,,0.58429,1,,,,,,1,WORD,"ID",33,fright,FRIGHT,m,,,,,,0.024995117,-0.354887695,0,0,0,,0,264,264,0,1,,
,,,,,,,,,,,,,,,,,,5d544ce3be713b0001841f1e,2020-08-10_19h02.50.559,lexical_decision_task_MP,2020.1.3,MacIntel,60,m,1,0.63738,,,,,,,,0.63738,1,,,,,,8,WORD,"ID",33,abrupt,ABRUPT,m,,,,,,0.024995117,-0.354887695,0,0,0,,0,265,265,7,1,,
,,,,,,,,,,,,,,,,,,5d544ce3be713b0001841f1e,2020-08-10_19h02.50.559,lexical_decision_task_MP,2020.1.3,MacIntel,60,z,1,0.61708,,,,,,,,0.61708,1,,,,,,389,NW,UN,33,hatrus,WITMER,z,,,,,,0.024995117,-0.354887695,0,0,0,,0,266,266,388,1,,
,,,,,,,,,,,,,,,,,,5d544ce3be713b0001841f1e,2020-08-10_19h02.50.559,lexical_decision_task_MP,2020.1.3,MacIntel,60,m,1,0.574755,,,,,,,,0.574755,1,,,,,,230,WORD,UN,50,export,FRINGE,m,,,,,,0.024995117,-0.354887695,0,0,0,,0,267,267,229,1,,
,,,,,,,,,,,,,,,,,,5d544ce3be713b0001841f1e,2020-08-10_19h02.50.559,lexical_decision_task_MP,2020.1.3,MacIntel,60,z,1,0.96217,,,,,,,,0.96217,1,,,,,,289,NW,"ID",33,starby,STARBY,z,,,,,,0.024995117,-0.354887695,0,0,0,,0,268,268,288,1,,
,,,,,,,,,,,,,,,,,,5d544ce3be713b0001841f1e,2020-08-10_19h02.50.559,lexical_decision_task_MP,2020.1.3,MacIntel,60,m,1,0.58289,,,,,,,,0.58289,1,,,,,,59,WORD,"ID",33,splint,SPLINT,m,,,,,,0.024995117,-0.354887695,0,0,0,,0,269,269,58,1,,
,,,,,,,,,,,,,,,,,,5d544ce3be713b0001841f1e,2020-08-10_19h02.50.559,lexical_decision_task_MP,2020.1.3,MacIntel,60,m,1,0.5263,,,,,,,,0.5263,1,,,,,,78,WORD,"ID",50,column,COLUMN,m,,,,,,0.024995117,-0.354887695,0,0,0,,0,270,270,77,1,,
,,,,,,,,,,,,,,,,,,5d544ce3be713b0001841f1e,2020-08-10_19h02.50.559,lexical_decision_task_MP,2020.1.3,MacIntel,60,z,1,0.651475,,,,,,,,0.651475,1,,,,,,367,NW,UN,33,hornal,SLIQUE,z,,,,,,0.024995117,-0.354887695,0,0,0,,0,271,271,366,1,,
,,,,,,,,,,,,,,,,,,5d544ce3be713b0001841f1e,2020-08-10_19h02.50.559,lexical_decision_task_MP,2020.1.3,MacIntel,60,z,1,0.56805,,,,,,,,0.56805,1,,,,,,356,NW,"ID",50,othnis,OTHNIS,z,,,,,,0.024995117,-0.354887695,0,0,0,,0,272,272,355,1,,
,,,,,,,,,,,,,,,,,,5d544ce3be713b0001841f1e,2020-08-10_19h02.50.559,lexical_decision_task_MP,2020.1.3,MacIntel,60,m,1,0.565,,,,,,,,0.565,1,,,,,,154,WORD,UN,33,lizard,AUTHOR,m,,,,,,0.024995117,-0.354887695,0,0,0,,0,273,273,153,1,,
,,,,,,,,,,,,,,,,,,5d544ce3be713b0001841f1e,2020-08-10_19h02.50.559,lexical_decision_task_MP,2020.1.3,MacIntel,60,z,1,0.84173,,,,,,,,0.84173,1,,,,,,348,NW,"ID",50,dumple,DUMPLE,z,,,,,,0.024995117,-0.354887695,0,0,0,,0,274,274,347,1,,
,,,,,,,,,,,,,,,,,,5d544ce3be713b0001841f1e,2020-08-10_19h02.50.559,lexical_decision_task_MP,2020.1.3,MacIntel,60,z,1,0.667785,,,,,,,,0.667785,1,,,,,,405,NW,UN,33,nouply,FLUMNI,z,,,,,,0.024995117,-0.354887695,0,0,0,,0,275,275,404,1,,
,,,,,,,,,,,,,,,,,,5d544ce3be713b0001841f1e,2020-08-10_19h02.50.559,lexical_decision_task_MP,2020.1.3,MacIntel,60,m,1,0.751815,,,,,,,,0.751815,1,,,,,,60,WORD,"ID",33,pencil,PENCIL,m,,,,,,0.024995117,-0.354887695,0,0,0,,0,276,276,59,1,,
,,,,,,,,,,,,,,,,,,5d544ce3be713b0001841f1e,2020-08-10_19h02.50.559,lexical_decision_task_MP,2020.1.3,MacIntel,60,z,1,0.7236,,,,,,,,0.7236,1,,,,,,270,NW,"ID",33,wrimsy,WRIMSY,z,,,,,,0.024995117,-0.354887695,0,0,0,,0,277,277,269,1,,
,,,,,,,,,,,,,,,,,,5d544ce3be713b0001841f1e,2020-08-10_19h02.50.559,lexical_decision_task_MP,2020.1.3,MacIntel,60,z,1,0.764115,,,,,,,,0.764115,1,,,,,,273,NW,"ID",33,sortel,SORTEL,z,,,,,,0.024995117,-0.354887695,0,0,0,,0,278,278,272,1,,
,,,,,,,,,,,,,,,,,,5d544ce3be713b0001841f1e,2020-08-10_19h02.50.559,lexical_decision_task_MP,2020.1.3,MacIntel,60,m,1,0.58514,,,,,,,,0.58514,1,,,,,,84,WORD,"ID",50,mortal,MORTAL,m,,,,,,0.024995117,-0.354887695,0,0,0,,0,279,279,83,1,,
,,,,,,,,,,,,,,,,,,5d544ce3be713b0001841f1e,2020-08-10_19h02.50.559,lexical_decision_task_MP,2020.1.3,MacIntel,60,m,1,0.602995,,,,,,,,0.602995,1,,,,,,13,WORD,"ID",33,strive,STRIVE,m,,,,,,0.024995117,-0.354887695,0,0,0,,0,280,280,12,1,,
,,,,,,,,,,,,,,,,,,5d544ce3be713b0001841f1e,2020-08-10_19h02.50.559,lexical_decision_task_MP,2020.1.3,MacIntel,60,z,1,0.62946,,,,,,,,0.62946,1,,,,,,338,NW,"ID",50,wreash,WREASH,z,,,,,,0.024995117,-0.354887695,0,0,0,,0,281,281,337,1,,
,,,,,,,,,,,,,,,,,,5d544ce3be713b0001841f1e,2020-08-10_19h02.50.559,lexical_decision_task_MP,2020.1.3,MacIntel,60,m,1,0.803045,,,,,,,,0.803045,1,,,,,,188,WORD,UN,50,censor,SOCIAL,m,,,,,,0.024995117,-0.354887695,0,0,0,,0,282,282,187,1,,
,,,,,,,,,,,,,,,,,,5d544ce3be713b0001841f1e,2020-08-10_19h02.50.559,lexical_decision_task_MP,2020.1.3,MacIntel,60,z,1,0.58784,,,,,,,,0.58784,1,,,,,,432,NW,UN,50,drance,LUNKER,z,,,,,,0.024995117,-0.354887695,0,0,0,,0,283,283,431,1,,
,,,,,,,,,,,,,,,,,,5d544ce3be713b0001841f1e,2020-08-10_19h02.50.559,lexical_decision_task_MP,2020.1.3,MacIntel,60,z,1,0.535465,,,,,,,,0.535465,1,,,,,,453,NW,UN,50,scouge,BOLVIS,z,,,,,,0.024995117,-0.354887695,0,0,0,,0,284,284,452,1,,
,,,,,,,,,,,,,,,,,,5d544ce3be713b0001841f1e,2020-08-10_19h02.50.559,lexical_decision_task_MP,2020.1.3,MacIntel,60,m,1,0.55526,,,,,,,,0.55526,1,,,,,,106,WORD,"ID",50,ransom,RANSOM,m,,,,,,0.024995117,-0.354887695,0,0,0,,0,285,285,105,1,,
,,,,,,,,,,,,,,,,,,5d544ce3be713b0001841f1e,2020-08-10_19h02.50.559,lexical_decision_task_MP,2020.1.3,MacIntel,60,z,1,0.49639,,,,,,,,0.49639,1,,,,,,251,NW,"ID",33,lupict,LUPICT,z,,,,,,0.024995117,-0.354887695,0,0,0,,0,286,286,250,1,,
,,,,,,,,,,,,,,,,,,5d544ce3be713b0001841f1e,2020-08-10_19h02.50.559,lexical_decision_task_MP,2020.1.3,MacIntel,60,z,1,0.592965,,,,,,,,0.592965,1,,,,,,382,NW,UN,33,aungre,SARLEY,z,,,,,,0.024995117,-0.354887695,0,0,0,,0,287,287,381,1,,
,,,,,,,,,,,,,,,,,,5d544ce3be713b0001841f1e,2020-08-10_19h02.50.559,lexical_decision_task_MP,2020.1.3,MacIntel,60,z,1,0.538275,,,,,,,,0.538275,1,,,,,,312,NW,"ID",50,nerawl,NERAWL,z,,,,,,0.024995117,-0.354887695,0,0,0,,0,288,288,311,1,,
,,,,,,,,,,,,,,,,,,5d544ce3be713b0001841f1e,2020-08-10_19h02.50.559,lexical_decision_task_MP,2020.1.3,MacIntel,60,z,1,0.66444,,,,,,,,0.66444,1,,,,,,450,NW,UN,50,rastoe,PHRECT,z,,,,,,0.024995117,-0.354887695,0,0,0,,0,289,289,449,1,,
,,,,,,,,,,,,,,,,,,5d544ce3be713b0001841f1e,2020-08-10_19h02.50.559,lexical_decision_task_MP,2020.1.3,MacIntel,60,z,1,0.880385,,,,,,,,0.880385,1,,,,,,285,NW,"ID",33,prudge,PRUDGE,z,,,,,,0.024995117,-0.354887695,0,0,0,,0,290,290,284,1,,
,,,,,,,,,,,,,,,,,,5d544ce3be713b0001841f1e,2020-08-10_19h02.50.559,lexical_decision_task_MP,2020.1.3,MacIntel,60,z,1,0.517985,,,,,,,,0.517985,1,,,,,,421,NW,UN,50,alcoud,KNISMA,z,,,,,,0.024995117,-0.354887695,0,0,0,,0,291,291,420,1,,
,,,,,,,,,,,,,,,,,,5d544ce3be713b0001841f1e,2020-08-10_19h02.50.559,lexical_decision_task_MP,2020.1.3,MacIntel,60,z,1,0.561015,,,,,,,,0.561015,1,,,,,,457,NW,UN,50,barcet,WANIGH,z,,,,,,0.024995117,-0.354887695,0,0,0,,0,292,292,456,1,,
,,,,,,,,,,,,,,,,,,5d544ce3be713b0001841f1e,2020-08-10_19h02.50.559,lexical_decision_task_MP,2020.1.3,MacIntel,60,z,1,0.671215,,,,,,,,0.671215,1,,,,,,271,NW,"ID",33,aubrid,AUBRID,z,,,,,,0.024995117,-0.354887695,0,0,0,,0,293,293,270,1,,
,,,,,,,,,,,,,,,,,,5d544ce3be713b0001841f1e,2020-08-10_19h02.50.559,lexical_decision_task_MP,2020.1.3,MacIntel,60,m,1,0.555675,,,,,,,,0.555675,1,,,,,,79,WORD,"ID",50,theory,THEORY,m,,,,,,0.024995117,-0.354887695,0,0,0,,0,294,294,78,1,,
,,,,,,,,,,,,,,,,,,5d544ce3be713b0001841f1e,2020-08-10_19h02.50.559,lexical_decision_task_MP,2020.1.3,MacIntel,60,z,1,0.751815,,,,,,,,0.751815,1,,,,,,295,NW,"ID",33,gleath,GLEATH,z,,,,,,0.024995117,-0.354887695,0,0,0,,0,295,295,294,1,,
,,,,,,,,,,,,,,,,,,5d544ce3be713b0001841f1e,2020-08-10_19h02.50.559,lexical_decision_task_MP,2020.1.3,MacIntel,60,z,1,0.593395,,,,,,,,0.593395,1,,,,,,325,NW,"ID",50,thruse,THRUSE,z,,,,,,0.024995117,-0.354887695,0,0,0,,0,296,296,324,1,,
,,,,,,,,,,,,,,,,,,5d544ce3be713b0001841f1e,2020-08-10_19h02.50.559,lexical_decision_task_MP,2020.1.3,MacIntel,60,z,1,0.66973,,,,,,,,0.66973,1,,,,,,419,NW,UN,33,gushop,SLOUNT,z,,,,,,0.024995117,-0.354887695,0,0,0,,0,297,297,418,1,,
,,,,,,,,,,,,,,,,,,5d544ce3be713b0001841f1e,2020-08-10_19h02.50.559,lexical_decision_task_MP,2020.1.3,MacIntel,60,z,1,0.487585,,,,,,,,0.487585,1,,,,,,444,NW,UN,50,minkel,JAUNCE,z,,,,,,0.024995117,-0.354887695,0,0,0,,0,298,298,443,1,,
,,,,,,,,,,,,,,,,,,5d544ce3be713b0001841f1e,2020-08-10_19h02.50.559,lexical_decision_task_MP,2020.1.3,MacIntel,60,z,1,0.44769,,,,,,,,0.44769,1,,,,,,334,NW,"ID",50,watmeg,WATMEG,z,,,,,,0.024995117,-0.354887695,0,0,0,,0,299,299,333,1,,
,,,,,,,,,,,,,,,,,,5d544ce3be713b0001841f1e,2020-08-10_19h02.50.559,lexical_decision_task_MP,2020.1.3,MacIntel,60,z,1,0.65255,,,,,,,,0.65255,1,,,,,,322,NW,"ID",50,slanch,SLANCH,z,,,,,,0.024995117,-0.354887695,0,0,0,,0,300,300,321,1,,
,,,,,,,,,,,,,,,,,,5d544ce3be713b0001841f1e,2020-08-10_19h02.50.559,lexical_decision_task_MP,2020.1.3,MacIntel,60,z,0,0.481445,,,,,,,,0.481445,0,,,,,,212,WORD,UN,50,squeal,VERIFY,m,,,,,,0.024995117,-0.354887695,0,0,0,,0,301,301,211,1,,
,,,,,,,,,,,,,,,,,,5d544ce3be713b0001841f1e,2020-08-10_19h02.50.559,lexical_decision_task_MP,2020.1.3,MacIntel,60,m,1,0.899565,,,,,,,,0.899565,1,,,,,,140,WORD,UN,33,reason,PRINCE,m,,,,,,0.024995117,-0.354887695,0,0,0,,0,302,302,139,1,,
,,,,,,,,,,,,,,,,,,5d544ce3be713b0001841f1e,2020-08-10_19h02.50.559,lexical_decision_task_MP,2020.1.3,MacIntel,60,m,1,1.05566,,,,,,,,1.05566,1,,,,,,91,WORD,"ID",50,expand,EXPAND,m,,,,,,0.024995117,-0.354887695,0,0,0,,0,303,303,90,1,,
,,,,,,,,,,,,,,,,,,5d544ce3be713b0001841f1e,2020-08-10_19h02.50.559,lexical_decision_task_MP,2020.1.3,MacIntel,60,z,1,0.72009,,,,,,,,0.72009,1,,,,,,468,NW,UN,50,padifs,WICTOR,z,,,,,,0.024995117,-0.354887695,0,0,0,,0,304,304,467,1,,
,,,,,,,,,,,,,,,,,,5d544ce3be713b0001841f1e,2020-08-10_19h02.50.559,lexical_decision_task_MP,2020.1.3,MacIntel,60,m,1,0.899085,,,,,,,,0.899085,1,,,,,,179,WORD,UN,33,silent,BASKET,m,,,,,,0.024995117,-0.354887695,0,0,0,,0,305,305,178,1,,
,,,,,,,,,,,,,,,,,,5d544ce3be713b0001841f1e,2020-08-10_19h02.50.559,lexical_decision_task_MP,2020.1.3,MacIntel,60,m,1,0.65186,,,,,,,,0.65186,1,,,,,,156,WORD,UN,33,pastor,CRADLE,m,,,,,,0.024995117,-0.354887695,0,0,0,,0,306,306,155,1,,
,,,,,,,,,,,,,,,,,,5d544ce3be713b0001841f1e,2020-08-10_19h02.50.559,lexical_decision_task_MP,2020.1.3,MacIntel,60,m,1,0.47245,,,,,,,,0.47245,1,,,,,,58,WORD,"ID",33,foster,FOSTER,m,,,,,,0.024995117,-0.354887695,0,0,0,,0,307,307,57,1,,
,,,,,,,,,,,,,,,,,,5d544ce3be713b0001841f1e,2020-08-10_19h02.50.559,lexical_decision_task_MP,2020.1.3,MacIntel,60,m,1,0.50651,,,,,,,,0.50651,1,,,,,,71,WORD,"ID",50,garden,GARDEN,m,,,,,,0.024995117,-0.354887695,0,0,0,,0,308,308,70,1,,
,,,,,,,,,,,,,,,,,,5d544ce3be713b0001841f1e,2020-08-10_19h02.50.559,lexical_decision_task_MP,2020.1.3,MacIntel,60,z,1,0.645265,,,,,,,,0.645265,1,,,,,,398,NW,UN,33,fouret,BLUNDE,z,,,,,,0.024995117,-0.354887695,0,0,0,,0,309,309,397,1,,
,,,,,,,,,,,,,,,,,,5d544ce3be713b0001841f1e,2020-08-10_19h02.50.559,lexical_decision_task_MP,2020.1.3,MacIntel,60,m,1,0.736305,,,,,,,,0.736305,1,,,,,,142,WORD,UN,33,orphan,SPRUCE,m,,,,,,0.024995117,-0.354887695,0,0,0,,0,310,310,141,1,,
,,,,,,,,,,,,,,,,,,5d544ce3be713b0001841f1e,2020-08-10_19h02.50.559,lexical_decision_task_MP,2020.1.3,MacIntel,60,m,1,0.585665,,,,,,,,0.585665,1,,,,,,160,WORD,UN,33,dragon,VIOLET,m,,,,,,0.024995117,-0.354887695,0,0,0,,0,311,311,159,1,,
,,,,,,,,,,,,,,,,,,5d544ce3be713b0001841f1e,2020-08-10_19h02.50.559,lexical_decision_task_MP,2020.1.3,MacIntel,60,m,1,0.51857,,,,,,,,0.51857,1,,,,,,189,WORD,UN,50,backup,CENSOR,m,,,,,,0.024995117,-0.354887695,0,0,0,,0,312,312,188,1,,
,,,,,,,,,,,,,,,,,,5d544ce3be713b0001841f1e,2020-08-10_19h02.50.559,lexical_decision_task_MP,2020.1.3,MacIntel,60,z,1,0.624395,,,,,,,,0.624395,1,,,,,,452,NW,UN,50,bolvis,SURDEN,z,,,,,,0.024995117,-0.354887695,0,0,0,,0,313,313,451,1,,
,,,,,,,,,,,,,,,,,,5d544ce3be713b0001841f1e,2020-08-10_19h02.50.559,lexical_decision_task_MP,2020.1.3,MacIntel,60,z,1,0.60125,,,,,,,,0.60125,1,,,,,,412,NW,UN,33,equats,JILUER,z,,,,,,0.024995117,-0.354887695,0,0,0,,0,314,314,411,1,,
,,,,,,,,,,,,,,,,,,5d544ce3be713b0001841f1e,2020-08-10_19h02.50.559,lexical_decision_task_MP,2020.1.3,MacIntel,60,z,1,0.833355,,,,,,,,0.833355,1,,,,,,286,NW,"ID",33,reldon,RELDON,z,,,,,,0.024995117,-0.354887695,0,0,0,,0,315,315,285,1,,
,,,,,,,,,,,,,,,,,,5d544ce3be713b0001841f1e,2020-08-10_19h02.50.559,lexical_decision_task_MP,2020.1.3,MacIntel,60,z,1,0.535155,,,,,,,,0.535155,1,,,,,,478,NW,UN,50,lobush,ACRISE,z,,,,,,0.024995117,-0.354887695,0,0,0,,0,316,316,477,1,,
,,,,,,,,,,,,,,,,,,5d544ce3be713b0001841f1e,2020-08-10_19h02.50.559,lexical_decision_task_MP,2020.1.3,MacIntel,60,m,1,0.68314,,,,,,,,0.68314,1,,,,,,30,WORD,"ID",33,orient,ORIENT,m,,,,,,0.024995117,-0.354887695,0,0,0,,0,317,317,29,1,,
,,,,,,,,,,,,,,,,,,5d544ce3be713b0001841f1e,2020-08-10_19h02.50.559,lexical_decision_task_MP,2020.1.3,MacIntel,60,m,1,0.51931,,,,,,,,0.51931,1,,,,,,198,WORD,UN,50,invoke,WICKED,m,,,,,,0.024995117,-0.354887695,0,0,0,,0,318,318,197,1,,
,,,,,,,,,,,,,,,,,,5d544ce3be713b0001841f1e,2020-08-10_19h02.50.559,lexical_decision_task_MP,2020.1.3,MacIntel,60,m,1,0.49703,,,,,,,,0.49703,1,,,,,,116,WORD,"ID",50,tumble,TUMBLE,m,,,,,,0.024995117,-0.354887695,0,0,0,,0,319,319,115,1,,
,,,,,,,,,,,,,,,,,,5d544ce3be713b0001841f1e,2020-08-10_19h02.50.559,lexical_decision_task_MP,2020.1.3,MacIntel,60,z,1,0.579035,,,,,,,,0.579035,1,,,,,,465,NW,UN,50,hocite,WHIVEX,z,,,,,,0.024995117,-0.354887695,0,0,0,,0,320,320,464,1,,
,,,,,,,,,,,,,,,,,,5d544ce3be713b0001841f1e,2020-08-10_19h02.50.559,lexical_decision_task_MP,2020.1.3,MacIntel,60,m,1,0.59536,,,,,,,,0.59536,1,,,,,,44,WORD,"ID",33,danger,DANGER,m,,,,,,0.024995117,-0.354887695,0,0,0,,0,321,321,43,1,,
,,,,,,,,,,,,,,,,,,5d544ce3be713b0001841f1e,2020-08-10_19h02.50.559,lexical_decision_task_MP,2020.1.3,MacIntel,60,m,1,0.552395,,,,,,,,0.552395,1,,,,,,20,WORD,"ID",33,breast,BREAST,m,,,,,,0.024995117,-0.354887695,0,0,0,,0,322,322,19,1,,
,,,,,,,,,,,,,,,,,,5d544ce3be713b0001841f1e,2020-08-10_19h02.50.559,lexical_decision_task_MP,2020.1.3,MacIntel,60,z,1,0.62291,,,,,,,,0.62291,1,,,,,,368,NW,UN,33,wronch,HORNAL,z,,,,,,0.024995117,-0.354887695,0,0,0,,0,323,323,367,1,,
,,,,,,,,,,,,,,,,,,5d544ce3be713b0001841f1e,2020-08-10_19h02.50.559,lexical_decision_task_MP,2020.1.3,MacIntel,60,m,1,0.94326,,,,,,,,0.94326,1,,,,,,131,WORD,UN,33,strong,QUENCH,m,,,,,,0.024995117,-0.354887695,0,0,0,,0,324,324,130,1,,
,,,,,,,,,,,,,,,,,,5d544ce3be713b0001841f1e,2020-08-10_19h02.50.559,lexical_decision_task_MP,2020.1.3,MacIntel,60,m,1,0.549905,,,,,,,,0.549905,1,,,,,,63,WORD,"ID",50,launch,LAUNCH,m,,,,,,0.024995117,-0.354887695,0,0,0,,0,325,325,62,1,,
,,,,,,,,,,,,,,,,,,5d544ce3be713b0001841f1e,2020-08-10_19h02.50.559,lexical_decision_task_MP,2020.1.3,MacIntel,60,z,1,0.54704,,,,,,,,0.54704,1,,,,,,336,NW,"ID",50,ghodus,GHODUS,z,,,,,,0.024995117,-0.354887695,0,0,0,,0,326,326,335,1,,
,,,,,,,,,,,,,,,,,,5d544ce3be713b0001841f1e,2020-08-10_19h02.50.559,lexical_decision_task_MP,2020.1.3,MacIntel,60,z,1,0.598245,,,,,,,,0.598245,1,,,,,,264,NW,"ID",33,vackel,VACKEL,z,,,,,,0.024995117,-0.354887695,0,0,0,,0,327,327,263,1,,
,,,,,,,,,,,,,,,,,,5d544ce3be713b0001841f1e,2020-08-10_19h02.50.559,lexical_decision_task_MP,2020.1.3,MacIntel,60,z,1,0.573985,,,,,,,,0.573985,1,,,,,,274,NW,"ID",33,fumblo,FUMBLO,z,,,,,,0.024995117,-0.354887695,0,0,0,,0,328,328,273,1,,
,,,,,,,,,,,,,,,,,,5d544ce3be713b0001841f1e,2020-08-10_19h02.50.559,lexical_decision_task_MP,2020.1.3,MacIntel,60,z,1,0.56226,,,,,,,,0.56226,1,,,,,,386,NW,UN,33,gronce,ANCUST,z,,,,,,0.024995117,-0.354887695,0,0,0,,0,329,329,385,1,,
,,,,,,,,,,,,,,,,,,5d544ce3be713b0001841f1e,2020-08-10_19h02.50.559,lexical_decision_task_MP,2020.1.3,MacIntel,60,m,1,0.6211,,,,,,,,0.6211,1,,,,,,9,WORD,"ID",33,hustle,HUSTLE,m,,,,,,0.024995117,-0.354887695,0,0,0,,0,330,330,8,1,,
,,,,,,,,,,,,,,,,,,5d544ce3be713b0001841f1e,2020-08-10_19h02.50.559,lexical_decision_task_MP,2020.1.3,MacIntel,60,m,1,0.56863,,,,,,,,0.56863,1,,,,,,218,WORD,UN,50,bucket,SHRINK,m,,,,,,0.024995117,-0.354887695,0,0,0,,0,331,331,217,1,,
,,,,,,,,,,,,,,,,,,5d544ce3be713b0001841f1e,2020-08-10_19h02.50.559,lexical_decision_task_MP,2020.1.3,MacIntel,60,m,1,0.577985,,,,,,,,0.577985,1,,,,,,167,WORD,UN,33,answer,DESIGN,m,,,,,,0.024995117,-0.354887695,0,0,0,,0,332,332,166,1,,
,,,,,,,,,,,,,,,,,,5d544ce3be713b0001841f1e,2020-08-10_19h02.50.559,lexical_decision_task_MP,2020.1.3,MacIntel,60,z,1,0.482635,,,,,,,,0.482635,1,,,,,,354,NW,"ID",50,virlex,VIRLEX,z,,,,,,0.024995117,-0.354887695,0,0,0,,0,333,333,353,1,,
,,,,,,,,,,,,,,,,,,5d544ce3be713b0001841f1e,2020-08-10_19h02.50.559,lexical_decision_task_MP,2020.1.3,MacIntel,60,m,1,0.61851,,,,,,,,0.61851,1,,,,,,177,WORD,UN,33,inform,ADVENT,m,,,,,,0.024995117,-0.354887695,0,0,0,,0,334,334,176,1,,
,,,,,,,,,,,,,,,,,,5d544ce3be713b0001841f1e,2020-08-10_19h02.50.559,lexical_decision_task_MP,2020.1.3,MacIntel,60,z,1,0.612255,,,,,,,,0.612255,1,,,,,,449,NW,UN,50,phrect,BRUNGE,z,,,,,,0.024995117,-0.354887695,0,0,0,,0,335,335,448,1,,
,,,,,,,,,,,,,,,,,,5d544ce3be713b0001841f1e,2020-08-10_19h02.50.559,lexical_decision_task_MP,2020.1.3,MacIntel,60,z,1,0.5697,,,,,,,,0.5697,1,,,,,,333,NW,"ID",50,catrie,CATRIE,z,,,,,,0.024995117,-0.354887695,0,0,0,,0,336,336,332,1,,
,,,,,,,,,,,,,,,,,,5d544ce3be713b0001841f1e,2020-08-10_19h02.50.559,lexical_decision_task_MP,2020.1.3,MacIntel,60,m,1,0.57135,,,,,,,,0.57135,1,,,,,,126,WORD,UN,33,castle,ENOUGH,m,,,,,,0.024995117,-0.354887695,0,0,0,,0,337,337,125,1,,
,,,,,,,,,,,,,,,,,,5d544ce3be713b0001841f1e,2020-08-10_19h02.50.559,lexical_decision_task_MP,2020.1.3,MacIntel,60,z,1,0.554835,,,,,,,,0.554835,1,,,,,,430,NW,UN,50,funtle,CAROEY,z,,,,,,0.024995117,-0.354887695,0,0,0,,0,338,338,429,1,,
,,,,,,,,,,,,,,,,,,5d544ce3be713b0001841f1e,2020-08-10_19h02.50.559,lexical_decision_task_MP,2020.1.3,MacIntel,60,m,1,0.58563,,,,,,,,0.58563,1,,,,,,34,WORD,"ID",33,jungle,JUNGLE,m,,,,,,0.024995117,-0.354887695,0,0,0,,0,339,339,33,1,,
,,,,,,,,,,,,,,,,,,5d544ce3be713b0001841f1e,2020-08-10_19h02.50.559,lexical_decision_task_MP,2020.1.3,MacIntel,60,z,1,0.554945,,,,,,,,0.554945,1,,,,,,351,NW,"ID",50,tiesch,TIESCH,z,,,,,,0.024995117,-0.354887695,0,0,0,,0,340,340,350,1,,
,,,,,,,,,,,,,,,,,,5d544ce3be713b0001841f1e,2020-08-10_19h02.50.559,lexical_decision_task_MP,2020.1.3,MacIntel,60,z,1,0.689005,,,,,,,,0.689005,1,,,,,,462,NW,UN,50,kispel,ABSULT,z,,,,,,0.024995117,-0.354887695,0,0,0,,0,341,341,461,1,,
,,,,,,,,,,,,,,,,,,5d544ce3be713b0001841f1e,2020-08-10_19h02.50.559,lexical_decision_task_MP,2020.1.3,MacIntel,60,m,1,0.785115,,,,,,,,0.785115,1,,,,,,214,WORD,UN,50,phobia,INTAKE,m,,,,,,0.024995117,-0.354887695,0,0,0,,0,342,342,213,1,,
,,,,,,,,,,,,,,,,,,5d544ce3be713b0001841f1e,2020-08-10_19h02.50.559,lexical_decision_task_MP,2020.1.3,MacIntel,60,z,1,0.847655,,,,,,,,0.847655,1,,,,,,345,NW,"ID",50,absend,ABSEND,z,,,,,,0.024995117,-0.354887695,0,0,0,,0,343,343,344,1,,
,,,,,,,,,,,,,,,,,,5d544ce3be713b0001841f1e,2020-08-10_19h02.50.559,lexical_decision_task_MP,2020.1.3,MacIntel,60,m,1,0.641275,,,,,,,,0.641275,1,,,,,,6,WORD,"ID",33,bundle,BUNDLE,m,,,,,,0.024995117,-0.354887695,0,0,0,,0,344,344,5,1,,
,,,,,,,,,,,,,,,,,,5d544ce3be713b0001841f1e,2020-08-10_19h02.50.559,lexical_decision_task_MP,2020.1.3,MacIntel,60,z,1,0.56876,,,,,,,,0.56876,1,,,,,,395,NW,UN,33,flengy,COLURY,z,,,,,,0.024995117,-0.354887695,0,0,0,,0,345,345,394,1,,
,,,,,,,,,,,,,,,,,,5d544ce3be713b0001841f1e,2020-08-10_19h02.50.559,lexical_decision_task_MP,2020.1.3,MacIntel,60,m,1,0.843485,,,,,,,,0.843485,1,,,,,,166,WORD,UN,33,design,STARCH,m,,,,,,0.024995117,-0.354887695,0,0,0,,0,346,346,165,1,,
,,,,,,,,,,,,,,,,,,5d544ce3be713b0001841f1e,2020-08-10_19h02.50.559,lexical_decision_task_MP,2020.1.3,MacIntel,60,z,1,0.713155,,,,,,,,0.713155,1,,,,,,427,NW,UN,50,tandly,SCHIND,z,,,,,,0.024995117,-0.354887695,0,0,0,,0,347,347,426,1,,
,,,,,,,,,,,,,,,,,,5d544ce3be713b0001841f1e,2020-08-10_19h02.50.559,lexical_decision_task_MP,2020.1.3,MacIntel,60,m,1,0.590085,,,,,,,,0.590085,1,,,,,,208,WORD,UN,50,search,HOCKEY,m,,,,,,0.024995117,-0.354887695,0,0,0,,0,348,348,207,1,,
,,,,,,,,,,,,,,,,,,5d544ce3be713b0001841f1e,2020-08-10_19h02.50.559,lexical_decision_task_MP,2020.1.3,MacIntel,60,m,1,0.58379,,,,,,,,0.58379,1,,,,,,31,WORD,"ID",33,weapon,WEAPON,m,,,,,,0.024995117,-0.354887695,0,0,0,,0,349,349,30,1,,
,,,,,,,,,,,,,,,,,,5d544ce3be713b0001841f1e,2020-08-10_19h02.50.559,lexical_decision_task_MP,2020.1.3,MacIntel,60,z,1,0.585875,,,,,,,,0.585875,1,,,,,,349,NW,"ID",50,asylen,ASYLEN,z,,,,,,0.024995117,-0.354887695,0,0,0,,0,350,350,348,1,,
,,,,,,,,,,,,,,,,,,5d544ce3be713b0001841f1e,2020-08-10_19h02.50.559,lexical_decision_task_MP,2020.1.3,MacIntel,60,z,1,0.827085,,,,,,,,0.827085,1,,,,,,269,NW,"ID",33,orchet,ORCHET,z,,,,,,0.024995117,-0.354887695,0,0,0,,0,351,351,268,1,,
,,,,,,,,,,,,,,,,,,5d544ce3be713b0001841f1e,2020-08-10_19h02.50.559,lexical_decision_task_MP,2020.1.3,MacIntel,60,z,1,0.66124,,,,,,,,0.66124,1,,,,,,256,NW,"ID",33,inlors,INLORS,z,,,,,,0.024995117,-0.354887695,0,0,0,,0,352,352,255,1,,
,,,,,,,,,,,,,,,,,,5d544ce3be713b0001841f1e,2020-08-10_19h02.50.559,lexical_decision_task_MP,2020.1.3,MacIntel,60,m,1,0.559,,,,,,,,0.559,1,,,,,,170,WORD,UN,33,depart,POUNCE,m,,,,,,0.024995117,-0.354887695,0,0,0,,0,353,353,169,1,,
,,,,,,,,,,,,,,,,,,5d544ce3be713b0001841f1e,2020-08-10_19h02.50.559,lexical_decision_task_MP,2020.1.3,MacIntel,60,z,1,0.66654,,,,,,,,0.66654,1,,,,,,272,NW,"ID",33,damilt,DAMILT,z,,,,,,0.024995117,-0.354887695,0,0,0,,0,354,354,271,1,,
,,,,,,,,,,,,,,,,,,5d544ce3be713b0001841f1e,2020-08-10_19h02.50.559,lexical_decision_task_MP,2020.1.3,MacIntel,60,m,1,0.654475,,,,,,,,0.654475,1,,,,,,207,WORD,UN,50,hockey,WREATH,m,,,,,,0.024995117,-0.354887695,0,0,0,,0,355,355,206,1,,
,,,,,,,,,,,,,,,,,,5d544ce3be713b0001841f1e,2020-08-10_19h02.50.559,lexical_decision_task_MP,2020.1.3,MacIntel,60,m,1,0.65481,,,,,,,,0.65481,1,,,,,,235,WORD,UN,50,pirate,GRUMPY,m,,,,,,0.024995117,-0.354887695,0,0,0,,0,356,356,234,1,,
,,,,,,,,,,,,,,,,,,5d544ce3be713b0001841f1e,2020-08-10_19h02.50.559,lexical_decision_task_MP,2020.1.3,MacIntel,60,z,1,0.61722,,,,,,,,0.61722,1,,,,,,413,NW,UN,33,serbol,EQUATS,z,,,,,,0.024995117,-0.354887695,0,0,0,,0,357,357,412,1,,
,,,,,,,,,,,,,,,,,,5d544ce3be713b0001841f1e,2020-08-10_19h02.50.559,lexical_decision_task_MP,2020.1.3,MacIntel,60,m,1,0.595495,,,,,,,,0.595495,1,,,,,,125,WORD,UN,33,blouse,NICKEL,m,,,,,,0.024995117,-0.354887695,0,0,0,,0,358,358,124,1,,
,,,,,,,,,,,,,,,,,,5d544ce3be713b0001841f1e,2020-08-10_19h02.50.559,lexical_decision_task_MP,2020.1.3,MacIntel,60,z,1,0.57808,,,,,,,,0.57808,1,,,,,,342,NW,"ID",50,randow,RANDOW,z,,,,,,0.024995117,-0.354887695,0,0,0,,0,359,359,341,1,,
,,,,,,,,,,,,,,,,,,5d544ce3be713b0001841f1e,2020-08-10_19h02.50.559,lexical_decision_task_MP,2020.1.3,MacIntel,60,z,1,0.608185,,,,,,,,0.608185,1,,,,,,379,NW,UN,33,cavory,AUTING,z,,,,,,0.024995117,-0.354887695,0,0,0,,0,360,360,378,1,,
,,,,,,,,,,,,,,,,,,5d544ce3be713b0001841f1e,2020-08-10_19h02.50.559,lexical_decision_task_MP,2020.1.3,MacIntel,60,m,1,0.648325,,,,,,,,0.648325,1,,,,,,231,WORD,UN,50,mother,EXPORT,m,,,,,,0.024995117,-0.354887695,0,0,0,,0,361,361,230,1,,
,,,,,,,,,,,,,,,,,,5d544ce3be713b0001841f1e,2020-08-10_19h02.50.559,lexical_decision_task_MP,2020.1.3,MacIntel,60,z,1,0.618785,,,,,,,,0.618785,1,,,,,,363,NW,UN,33,impote,BREALI,z,,,,,,0.000581055,-0.401591797,1,0,0,,0,362,362,362,1,,break_done_button
,,,,,,,,,,,,,,,,,,5d544ce3be713b0001841f1e,2020-08-10_19h02.50.559,lexical_decision_task_MP,2020.1.3,MacIntel,60,m,1,1.78322,,,,,,,,1.78322,1,,,,,,168,WORD,UN,33,genius,ANSWER,m,,,,,,0.000581055,-0.401591797,0,0,0,,0,363,363,167,1,,
,,,,,,,,,,,,,,,,,,5d544ce3be713b0001841f1e,2020-08-10_19h02.50.559,lexical_decision_task_MP,2020.1.3,MacIntel,60,z,1,1.050825,,,,,,,,1.050825,1,,,,,,445,NW,UN,50,runamo,MINKEL,z,,,,,,0.000581055,-0.401591797,0,0,0,,0,364,364,444,1,,
,,,,,,,,,,,,,,,,,,5d544ce3be713b0001841f1e,2020-08-10_19h02.50.559,lexical_decision_task_MP,2020.1.3,MacIntel,60,z,1,0.684625,,,,,,,,0.684625,1,,,,,,352,NW,"ID",50,tringe,TRINGE,z,,,,,,0.000581055,-0.401591797,0,0,0,,0,365,365,351,1,,
,,,,,,,,,,,,,,,,,,5d544ce3be713b0001841f1e,2020-08-10_19h02.50.559,lexical_decision_task_MP,2020.1.3,MacIntel,60,z,1,0.56724,,,,,,,,0.56724,1,,,,,,448,NW,UN,50,brunge,SADENT,z,,,,,,0.000581055,-0.401591797,0,0,0,,0,366,366,447,1,,
,,,,,,,,,,,,,,,,,,5d544ce3be713b0001841f1e,2020-08-10_19h02.50.559,lexical_decision_task_MP,2020.1.3,MacIntel,60,z,1,0.53309,,,,,,,,0.53309,1,,,,,,414,NW,UN,33,higsta,SERBOL,z,,,,,,0.000581055,-0.401591797,0,0,0,,0,367,367,413,1,,
,,,,,,,,,,,,,,,,,,5d544ce3be713b0001841f1e,2020-08-10_19h02.50.559,lexical_decision_task_MP,2020.1.3,MacIntel,60,z,1,0.617465,,,,,,,,0.617465,1,,,,,,396,NW,UN,33,camble,FLENGY,z,,,,,,0.000581055,-0.401591797,0,0,0,,0,368,368,395,1,,
,,,,,,,,,,,,,,,,,,5d544ce3be713b0001841f1e,2020-08-10_19h02.50.559,lexical_decision_task_MP,2020.1.3,MacIntel,60,z,1,0.52082,,,,,,,,0.52082,1,,,,,,401,NW,UN,33,elopia,MUSTIL,z,,,,,,0.000581055,-0.401591797,0,0,0,,0,369,369,400,1,,
,,,,,,,,,,,,,,,,,,5d544ce3be713b0001841f1e,2020-08-10_19h02.50.559,lexical_decision_task_MP,2020.1.3,MacIntel,60,z,1,0.43572,,,,,,,,0.43572,1,,,,,,347,NW,"ID",50,kerift,KERIFT,z,,,,,,0.000581055,-0.401591797,0,0,0,,0,370,370,346,1,,
,,,,,,,,,,,,,,,,,,5d544ce3be713b0001841f1e,2020-08-10_19h02.50.559,lexical_decision_task_MP,2020.1.3,MacIntel,60,m,1,0.580375,,,,,,,,0.580375,1,,,,,,133,WORD,UN,33,debris,CHROME,m,,,,,,0.000581055,-0.401591797,0,0,0,,0,371,371,132,1,,
,,,,,,,,,,,,,,,,,,5d544ce3be713b0001841f1e,2020-08-10_19h02.50.559,lexical_decision_task_MP,2020.1.3,MacIntel,60,z,1,0.554865,,,,,,,,0.554865,1,,,,,,391,NW,UN,33,rouncy,THELDY,z,,,,,,0.000581055,-0.401591797,0,0,0,,0,372,372,390,1,,
,,,,,,,,,,,,,,,,,,5d544ce3be713b0001841f1e,2020-08-10_19h02.50.559,lexical_decision_task_MP,2020.1.3,MacIntel,60,z,1,0.568225,,,,,,,,0.568225,1,,,,,,456,NW,UN,50,wanigh,BROGET,z,,,,,,0.000581055,-0.401591797,0,0,0,,0,373,373,455,1,,
,,,,,,,,,,,,,,,,,,5d544ce3be713b0001841f1e,2020-08-10_19h02.50.559,lexical_decision_task_MP,2020.1.3,MacIntel,60,m,1,0.58736,,,,,,,,0.58736,1,,,,,,87,WORD,"ID",50,filter,FILTER,m,,,,,,0.000581055,-0.401591797,0,0,0,,0,374,374,86,1,,
,,,,,,,,,,,,,,,,,,5d544ce3be713b0001841f1e,2020-08-10_19h02.50.559,lexical_decision_task_MP,2020.1.3,MacIntel,60,m,1,0.56639,,,,,,,,0.56639,1,,,,,,238,WORD,UN,50,grumpy,FLOWER,m,,,,,,0.000581055,-0.401591797,0,0,0,,0,375,375,237,1,,
,,,,,,,,,,,,,,,,,,5d544ce3be713b0001841f1e,2020-08-10_19h02.50.559,lexical_decision_task_MP,2020.1.3,MacIntel,60,m,1,0.63256,,,,,,,,0.63256,1,,,,,,90,WORD,"ID",50,relish,RELISH,m,,,,,,0.000581055,-0.401591797,0,0,0,,0,376,376,89,1,,
,,,,,,,,,,,,,,,,,,5d544ce3be713b0001841f1e,2020-08-10_19h02.50.559,lexical_decision_task_MP,2020.1.3,MacIntel,60,z,1,0.568975,,,,,,,,0.568975,1,,,,,,331,NW,"ID",50,gilfew,GILFEW,z,,,,,,0.000581055,-0.401591797,0,0,0,,0,377,377,330,1,,
,,,,,,,,,,,,,,,,,,5d544ce3be713b0001841f1e,2020-08-10_19h02.50.559,lexical_decision_task_MP,2020.1.3,MacIntel,60,m,1,0.55348,,,,,,,,0.55348,1,,,,,,206,WORD,UN,50,wreath,TAILOR,m,,,,,,0.000581055,-0.401591797,0,0,0,,0,378,378,205,1,,
,,,,,,,,,,,,,,,,,,5d544ce3be713b0001841f1e,2020-08-10_19h02.50.559,lexical_decision_task_MP,2020.1.3,MacIntel,60,z,1,0.521515,,,,,,,,0.521515,1,,,,,,287,NW,"ID",33,nymbel,NYMBEL,z,,,,,,0.000581055,-0.401591797,0,0,0,,0,379,379,286,1,,
,,,,,,,,,,,,,,,,,,5d544ce3be713b0001841f1e,2020-08-10_19h02.50.559,lexical_decision_task_MP,2020.1.3,MacIntel,60,m,1,0.579105,,,,,,,,0.579105,1,,,,,,178,WORD,UN,33,mildew,INFORM,m,,,,,,0.000581055,-0.401591797,0,0,0,,0,380,380,177,1,,
,,,,,,,,,,,,,,,,,,5d544ce3be713b0001841f1e,2020-08-10_19h02.50.559,lexical_decision_task_MP,2020.1.3,MacIntel,60,m,1,0.633335,,,,,,,,0.633335,1,,,,,,35,WORD,"ID",33,socket,SOCKET,m,,,,,,0.000581055,-0.401591797,0,0,0,,0,381,381,34,1,,
,,,,,,,,,,,,,,,,,,5d544ce3be713b0001841f1e,2020-08-10_19h02.50.559,lexical_decision_task_MP,2020.1.3,MacIntel,60,z,1,0.62319,,,,,,,,0.62319,1,,,,,,374,NW,UN,33,yorque,SLIANT,z,,,,,,0.000581055,-0.402167969,0,0,0,,0,382,382,373,1,,
,,,,,,,,,,,,,,,,,,5d544ce3be713b0001841f1e,2020-08-10_19h02.50.559,lexical_decision_task_MP,2020.1.3,MacIntel,60,m,1,0.682695,,,,,,,,0.682695,1,,,,,,204,WORD,UN,50,lounge,BURDEN,m,,,,,,0.000581055,-0.402167969,0,0,0,,0,383,383,203,1,,
,,,,,,,,,,,,,,,,,,5d544ce3be713b0001841f1e,2020-08-10_19h02.50.559,lexical_decision_task_MP,2020.1.3,MacIntel,60,z,1,0.56387,,,,,,,,0.56387,1,,,,,,394,NW,UN,33,colury,SPAQUX,z,,,,,,0.000581055,-0.402167969,0,0,0,,0,384,384,393,1,,
,,,,,,,,,,,,,,,,,,5d544ce3be713b0001841f1e,2020-08-10_19h02.50.559,lexical_decision_task_MP,2020.1.3,MacIntel,60,z,1,0.665945,,,,,,,,0.665945,1,,,,,,340,NW,"ID",50,fiatch,FIATCH,z,,,,,,0.000581055,-0.402167969,0,0,0,,0,385,385,339,1,,
,,,,,,,,,,,,,,,,,,5d544ce3be713b0001841f1e,2020-08-10_19h02.50.559,lexical_decision_task_MP,2020.1.3,MacIntel,60,z,1,1.251505,,,,,,,,1.251505,1,,,,,,265,NW,"ID",33,distar,DISTAR,z,,,,,,0.000581055,-0.402167969,0,0,0,,0,386,386,264,1,,
,,,,,,,,,,,,,,,,,,5d544ce3be713b0001841f1e,2020-08-10_19h02.50.559,lexical_decision_task_MP,2020.1.3,MacIntel,60,z,1,0.789785,,,,,,,,0.789785,1,,,,,,246,NW,"ID",33,piaton,PIATON,z,,,,,,0.000581055,-0.402167969,0,0,0,,0,387,387,245,1,,
,,,,,,,,,,,,,,,,,,5d544ce3be713b0001841f1e,2020-08-10_19h02.50.559,lexical_decision_task_MP,2020.1.3,MacIntel,60,z,1,0.553,,,,,,,,0.553,1,,,,,,446,NW,UN,50,gircue,RUNAMO,z,,,,,,0.000581055,-0.402167969,0,0,0,,0,388,388,445,1,,
,,,,,,,,,,,,,,,,,,5d544ce3be713b0001841f1e,2020-08-10_19h02.50.559,lexical_decision_task_MP,2020.1.3,MacIntel,60,m,1,0.585385,,,,,,,,0.585385,1,,,,,,19,WORD,"ID",33,patron,PATRON,m,,,,,,0.000581055,-0.402167969,0,0,0,,0,389,389,18,1,,
,,,,,,,,,,,,,,,,,,5d544ce3be713b0001841f1e,2020-08-10_19h02.50.559,lexical_decision_task_MP,2020.1.3,MacIntel,60,z,1,0.5928,,,,,,,,0.5928,1,,,,,,317,NW,"ID",50,worbal,WORBAL,z,,,,,,0.000581055,-0.402167969,0,0,0,,0,390,390,316,1,,
,,,,,,,,,,,,,,,,,,5d544ce3be713b0001841f1e,2020-08-10_19h02.50.559,lexical_decision_task_MP,2020.1.3,MacIntel,60,z,1,0.51265,,,,,,,,0.51265,1,,,,,,308,NW,"ID",50,psetch,PSETCH,z,,,,,,0.000581055,-0.402167969,0,0,0,,0,391,391,307,1,,
,,,,,,,,,,,,,,,,,,5d544ce3be713b0001841f1e,2020-08-10_19h02.50.559,lexical_decision_task_MP,2020.1.3,MacIntel,60,z,1,0.516835,,,,,,,,0.516835,1,,,,,,365,NW,UN,33,toshel,GUAIRT,z,,,,,,0.000581055,-0.402167969,0,0,0,,0,392,392,364,1,,
,,,,,,,,,,,,,,,,,,5d544ce3be713b0001841f1e,2020-08-10_19h02.50.559,lexical_decision_task_MP,2020.1.3,MacIntel,60,m,1,0.624055,,,,,,,,0.624055,1,,,,,,38,WORD,"ID",33,powder,POWDER,m,,,,,,0.000581055,-0.402167969,0,0,0,,0,393,393,37,1,,
,,,,,,,,,,,,,,,,,,5d544ce3be713b0001841f1e,2020-08-10_19h02.50.559,lexical_decision_task_MP,2020.1.3,MacIntel,60,m,1,0.551105,,,,,,,,0.551105,1,,,,,,144,WORD,UN,33,parish,SPONGE,m,,,,,,0.000581055,-0.402167969,0,0,0,,0,394,394,143,1,,
,,,,,,,,,,,,,,,,,,5d544ce3be713b0001841f1e,2020-08-10_19h02.50.559,lexical_decision_task_MP,2020.1.3,MacIntel,60,z,1,0.588405,,,,,,,,0.588405,1,,,,,,416,NW,UN,33,earoud,PATHEL,z,,,,,,0.000581055,-0.402167969,0,0,0,,0,395,395,415,1,,
,,,,,,,,,,,,,,,,,,5d544ce3be713b0001841f1e,2020-08-10_19h02.50.559,lexical_decision_task_MP,2020.1.3,MacIntel,60,m,1,0.68041,,,,,,,,0.68041,1,,,,,,220,WORD,UN,50,mascot,VOYAGE,m,,,,,,0.000581055,-0.402167969,0,0,0,,0,396,396,219,1,,
