counterbalancing_condition,instr_done_keyboard.keys,instr_done_touch.x,instr_done_touch.y,instr_done_touch.leftButton,instr_done_touch.midButton,instr_done_touch.rightButton,instr_done_touch.clicked_name,instruction_pages.thisRepN,instruction_pages.thisTrialN,instruction_pages.thisN,instruction_pages.thisIndex,instruction_pages.ran,pageN,phase,instruct_text,has_image,instruct_image,participant,date,expName,psychopyVersion,OS,frameRate,response.keys,response.corr,touch_resp.x,touch_resp.y,touch_resp.leftButton,touch_resp.midButton,touch_resp.rightButton,touch_resp.time,touch_resp.clicked_name,rt,corr,practice_trials.thisRepN,practice_trials.thisTrialN,practice_trials.thisN,practice_trials.thisIndex,practice_trials.ran,TrialID,StimulusType,Condition,PrimeDuration,Prime,Target,corrAns,end_of_practice_trials_pages.thisRepN,end_of_practice_trials_pages.thisTrialN,end_of_practice_trials_pages.thisN,end_of_practice_trials_pages.thisIndex,end_of_practice_trials_pages.ran,break_done_touch.x,break_done_touch.y,break_done_touch.leftButton,break_done_touch.midButton,break_done_touch.rightButton,break_done_keyboard.keys,trials.thisRepN,trials.thisTrialN,trials.thisN,trials.thisIndex,trials.ran,break_done_touch.clicked_name
2,,0.029376475,-0.416015625,1,0,0,instr_done_button,0,0,0,0,1,1,instructions,"INSTRUCTIONS
At the start of each trial, look at the hash marks (######) in the center of the screen. After a moment, a string of letters will appear. Your task is to indicate if the letter string forms a word or not (i.e., if it is a nonword). For example, AUTHOR is a word while AUTHON is a nonword.

Press the space bar or touch the button below to continue.",0,,5d78986d4531b9001508752d,2020-08-10_17h46.52.982,lexical_decision_task_MP,2020.1.3,Linux armv8l,60,,,,,,,,,,,,,,,,,,,,,,,,,,,,,,,,,,,,,,,,
,,0.033174218,-0.427490234,1,0,0,instr_done_button,0,1,1,1,1,2,instructions,"If your device has a keyboard, press the 'Z' key for nonwords and the 'M' key for words.





Press the space bar or touch the button below to continue.",1,keyboard-example.gif,5d78986d4531b9001508752d,2020-08-10_17h46.52.982,lexical_decision_task_MP,2020.1.3,Linux armv8l,60,,,,,,,,,,,,,,,,,,,,,,,,,,,,,,,,,,,,,,,,
,,0.016355642,-0.426025391,1,0,0,instr_done_button,0,2,2,2,1,3,instructions,"If you are using a touchscreen only device, use the buttons on the screen. Do not use the mouse.





Press the space bar or touch the button below to continue.",1,touchscreen-example.gif,5d78986d4531b9001508752d,2020-08-10_17h46.52.982,lexical_decision_task_MP,2020.1.3,Linux armv8l,60,,,,,,,,,,,,,,,,,,,,,,,,,,,,,,,,,,,,,,,,
,,0.040227169,-0.395996094,1,0,0,instr_done_button,0,3,3,3,1,4,instructions,"It is very important that you respond as quickly and accurately as possible, as each letter string will only be on the screen for two seconds. If you do not respond within this time, the message 'Too slow!' will be displayed and the experiment will progress to the next letter string. The first 20 trials will be practice trials and you will receive feedback on your answers. 

Press the space bar or touch the button below to start the practice trials.",0,,5d78986d4531b9001508752d,2020-08-10_17h46.52.982,lexical_decision_task_MP,2020.1.3,Linux armv8l,60,,,,,,,,,,,,,,,,,,,,,,,,,,,,,,,,,,,,,,,,
,,,,,,,,,,,,,,,,,,5d78986d4531b9001508752d,2020-08-10_17h46.52.982,lexical_decision_task_MP,2020.1.3,Linux armv8l,60,,0,0.739554511,-0.137939453,1,0,0,0.9846,button_right,0.9846,1,0,0,0,4,1,1005,WORD,UN,33,abound,SQUEAK,m,,,,,,,,,,,,,,,,,
,,,,,,,,,,,,,,,,,,5d78986d4531b9001508752d,2020-08-10_17h46.52.982,lexical_decision_task_MP,2020.1.3,Linux armv8l,60,,0,-0.440458594,-0.322753906,1,0,0,0.8355,button_left,0.8355,1,0,1,1,13,1,1014,NW,UN,33,winfer,ROUPET,z,,,,,,,,,,,,,,,,,
,,,,,,,,,,,,,,,,,,5d78986d4531b9001508752d,2020-08-10_17h46.52.982,lexical_decision_task_MP,2020.1.3,Linux armv8l,60,,0,-0.460532379,-0.325927734,1,0,0,0.7072,button_left,0.7072,1,0,2,2,11,1,1012,NW,"ID",50,rashet,RASHET,z,,,,,,,,,,,,,,,,,
,,,,,,,,,,,,,,,,,,5d78986d4531b9001508752d,2020-08-10_17h46.52.982,lexical_decision_task_MP,2020.1.3,Linux armv8l,60,,0,-0.452936893,-0.338623047,1,0,0,0.8416,button_left,0.8416,1,0,3,3,14,1,1015,NW,UN,50,miaber,THRALE,z,,,,,,,,,,,,,,,,,
,,,,,,,,,,,,,,,,,,5d78986d4531b9001508752d,2020-08-10_17h46.52.982,lexical_decision_task_MP,2020.1.3,Linux armv8l,60,,0,-0.481148699,-0.326904297,1,0,0,0.8305,button_left,0.8305,1,0,4,4,8,1,1009,NW,"ID",33,aslert,ASLERT,z,,,,,,,,,,,,,,,,,
,,,,,,,,,,,,,,,,,,5d78986d4531b9001508752d,2020-08-10_17h46.52.982,lexical_decision_task_MP,2020.1.3,Linux armv8l,60,,0,-0.471383074,-0.313476563,1,0,0,0.7926,button_left,0.7926,1,0,5,5,10,1,1011,NW,"ID",50,inlade,INLADE,z,,,,,,,,,,,,,,,,,
,,,,,,,,,,,,,,,,,,5d78986d4531b9001508752d,2020-08-10_17h46.52.982,lexical_decision_task_MP,2020.1.3,Linux armv8l,60,,0,0.44984097,-0.292724609,1,0,0,0.5226,button_right,0.5226,1,0,6,6,2,1,1003,WORD,"ID",50,almond,ALMOND,m,,,,,,,,,,,,,,,,,
,,,,,,,,,,,,,,,,,,5d78986d4531b9001508752d,2020-08-10_17h46.52.982,lexical_decision_task_MP,2020.1.3,Linux armv8l,60,,0,0.476967706,-0.295654297,1,0,0,0.6867,button_right,0.6867,1,0,7,7,0,1,1001,WORD,"ID",33,utopia,UTOPIA,m,,,,,,,,,,,,,,,,,
,,,,,,,,,,,,,,,,,,5d78986d4531b9001508752d,2020-08-10_17h46.52.982,lexical_decision_task_MP,2020.1.3,Linux armv8l,60,,0,-0.442628733,-0.316650391,1,0,0,1.2872,button_left,1.2872,1,0,8,8,12,1,1013,NW,UN,33,adveil,SPRINY,z,,,,,,,,,,,,,,,,,
,,,,,,,,,,,,,,,,,,5d78986d4531b9001508752d,2020-08-10_17h46.52.982,lexical_decision_task_MP,2020.1.3,Linux armv8l,60,,0,-0.482233768,-0.322753906,1,0,0,0.7527,button_left,0.7527,1,0,9,9,9,1,1010,NW,"ID",33,fariny,FARINY,z,,,,,,,,,,,,,,,,,
,,,,,,,,,,,,,,,,,,5d78986d4531b9001508752d,2020-08-10_17h46.52.982,lexical_decision_task_MP,2020.1.3,Linux armv8l,60,,0,0.491073608,-0.318847656,1,0,0,0.621,button_right,0.621,1,0,10,10,7,1,1008,WORD,UN,50,hurdle,VOLUME,m,,,,,,,,,,,,,,,,,
,,,,,,,,,,,,,,,,,,5d78986d4531b9001508752d,2020-08-10_17h46.52.982,lexical_decision_task_MP,2020.1.3,Linux armv8l,60,,0,-0.512073178,-0.306152344,1,0,0,0.7605,button_left,0.7605,1,0,11,11,15,1,1016,NW,UN,50,mushed,WHAISE,z,,,,,,,,,,,,,,,,,
,,,,,,,,,,,,,,,,,,5d78986d4531b9001508752d,2020-08-10_17h46.52.982,lexical_decision_task_MP,2020.1.3,Linux armv8l,60,,0,0.456893921,-0.290039063,1,0,0,0.7039,button_right,0.7039,1,0,12,12,5,1,1006,WORD,UN,33,frenzy,OBTAIN,m,,,,,,,,,,,,,,,,,
,,,,,,,,,,,,,,,,,,5d78986d4531b9001508752d,2020-08-10_17h46.52.982,lexical_decision_task_MP,2020.1.3,Linux armv8l,60,,0,0.479137845,-0.301025391,1,0,0,0.6435,button_right,0.6435,1,0,13,13,6,1,1007,WORD,UN,50,tropic,ZOMBIE,m,,,,,,,,,,,,,,,,,
,,,,,,,,,,,,,,,,,,5d78986d4531b9001508752d,2020-08-10_17h46.52.982,lexical_decision_task_MP,2020.1.3,Linux armv8l,60,,0,0.46828715,-0.315429688,1,0,0,0.5897,button_right,0.5897,1,0,14,14,3,1,1004,WORD,"ID",50,matrix,MATRIX,m,,,,,,,,,,,,,,,,,
,,,,,,,,,,,,,,,,,,5d78986d4531b9001508752d,2020-08-10_17h46.52.982,lexical_decision_task_MP,2020.1.3,Linux armv8l,60,,0,0.485105726,-0.317138672,1,0,0,0.5386,button_right,0.5386,1,0,15,15,1,1,1002,WORD,"ID",33,adjust,ADJUST,m,,,,,,,,,,,,,,,,,
,,0.046737586,-0.403076172,1,0,0,instr_done_button,,,,,,1,end_of_practice,"You have completed the practice trials. During the experimental trials, you will not receive feedback, but it is very important that you respond as quickly and accurately as possible. 
Before you begin, please ensure that you are in a comfortable and quiet location and will not be disturbed for about 15 minutes, as we cannot use your data if you do not complete all the trials. 
There will be opportunities to take breaks at regular intervals during the experiment. When you are ready to start the experimental trials, please press space or touch the button below.",,,5d78986d4531b9001508752d,2020-08-10_17h46.52.982,lexical_decision_task_MP,2020.1.3,Linux armv8l,60,,,,,,,,,,,,,,,,,,,,,,,,0,0,0,0,1,,,,,,,,,,,,
,,,,,,,,,,,,,,,,,,5d78986d4531b9001508752d,2020-08-10_17h46.52.982,lexical_decision_task_MP,2020.1.3,Linux armv8l,60,,0,-0.464330122,-0.292236328,1,0,0,0.9091,button_left,0.9091,1,,,,,,411,NW,"ID",50,orchin,ORCHIN,z,,,,,,-0.464330122,-0.292236328,1,0,0,,0,0,0,350,1,
,,,,,,,,,,,,,,,,,,5d78986d4531b9001508752d,2020-08-10_17h46.52.982,lexical_decision_task_MP,2020.1.3,Linux armv8l,60,,0,0.461234199,-0.272216797,1,0,0,0.5756,button_right,0.5756,1,,,,,,34,WORD,UN,50,socket,JUNGLE,m,,,,,,0.461234199,-0.272216797,1,0,0,,0,1,1,213,1,
,,,,,,,,,,,,,,,,,,5d78986d4531b9001508752d,2020-08-10_17h46.52.982,lexical_decision_task_MP,2020.1.3,Linux armv8l,60,,0,-0.465957726,-0.303222656,1,0,0,0.7794,button_left,0.7794,1,,,,,,460,NW,UN,33,justre,MINGAR,z,,,,,,-0.465957726,-0.303222656,1,0,0,,0,2,2,399,1,
,,,,,,,,,,,,,,,,,,5d78986d4531b9001508752d,2020-08-10_17h46.52.982,lexical_decision_task_MP,2020.1.3,Linux armv8l,60,,0,-0.484946442,-0.305664063,1,0,0,0.8279,button_left,0.8279,1,,,,,,352,NW,"ID",33,tringe,TRINGE,z,,,,,,-0.484946442,-0.305664063,1,0,0,,0,3,3,291,1,
,,,,,,,,,,,,,,,,,,5d78986d4531b9001508752d,2020-08-10_17h46.52.982,lexical_decision_task_MP,2020.1.3,Linux armv8l,60,,0,0.510062324,-0.281982422,1,0,0,0.5271,button_right,0.5271,1,,,,,,153,WORD,"ID",50,behold,BEHOLD,m,,,,,,0.510062324,-0.281982422,1,0,0,,0,4,4,92,1,
,,,,,,,,,,,,,,,,,,5d78986d4531b9001508752d,2020-08-10_17h46.52.982,lexical_decision_task_MP,2020.1.3,Linux armv8l,60,,0,-0.480063629,-0.333740234,1,0,0,0.6635,button_left,0.6635,1,,,,,,257,NW,UN,50,poluth,VENIOD,z,,,,,,-0.480063629,-0.333740234,1,0,0,,0,5,5,436,1,
,,,,,,,,,,,,,,,,,,5d78986d4531b9001508752d,2020-08-10_17h46.52.982,lexical_decision_task_MP,2020.1.3,Linux armv8l,60,,0,-0.488744185,-0.325195313,1,0,0,1.0955,button_left,1.0955,1,,,,,,335,NW,"ID",33,desion,DESION,z,,,,,,-0.488744185,-0.325195313,1,0,0,,0,6,6,274,1,
,,,,,,,,,,,,,,,,,,5d78986d4531b9001508752d,2020-08-10_17h46.52.982,lexical_decision_task_MP,2020.1.3,Linux armv8l,60,,0,0.507892185,-0.285888672,1,0,0,0.6134,button_right,0.6134,1,,,,,,9,WORD,UN,50,bridge,HUSTLE,m,,,,,,0.507892185,-0.285888672,1,0,0,,0,7,7,188,1,
,,,,,,,,,,,,,,,,,,5d78986d4531b9001508752d,2020-08-10_17h46.52.982,lexical_decision_task_MP,2020.1.3,Linux armv8l,60,,0,0.514945136,-0.284912109,1,0,0,0.6311,button_right,0.6311,1,,,,,,134,WORD,"ID",50,staple,STAPLE,m,,,,,,0.514945136,-0.284912109,1,0,0,,0,8,8,73,1,
,,,,,,,,,,,,,,,,,,5d78986d4531b9001508752d,2020-08-10_17h46.52.982,lexical_decision_task_MP,2020.1.3,Linux armv8l,60,,0,0.466117011,-0.278564453,1,0,0,0.625,button_right,0.625,1,,,,,,229,WORD,UN,33,fringe,MOTHER,m,,,,,,0.466117011,-0.278564453,1,0,0,,0,9,9,168,1,
,,,,,,,,,,,,,,,,,,5d78986d4531b9001508752d,2020-08-10_17h46.52.982,lexical_decision_task_MP,2020.1.3,Linux armv8l,60,,0,0.450383504,-0.285644531,1,0,0,0.6463,button_right,0.6463,1,,,,,,207,WORD,UN,33,hockey,WREATH,m,,,,,,0.450383504,-0.285644531,1,0,0,,0,10,10,146,1,
,,,,,,,,,,,,,,,,,,5d78986d4531b9001508752d,2020-08-10_17h46.52.982,lexical_decision_task_MP,2020.1.3,Linux armv8l,60,,0,-0.465415192,-0.310546875,1,0,0,0.6806,button_left,0.6806,1,,,,,,344,NW,"ID",33,scrily,SCRILY,z,,,,,,-0.465415192,-0.310546875,1,0,0,,0,11,11,283,1,
,,,,,,,,,,,,,,,,,,5d78986d4531b9001508752d,2020-08-10_17h46.52.982,lexical_decision_task_MP,2020.1.3,Linux armv8l,60,,0,-0.481148699,-0.325439453,1,0,0,0.5993,button_left,0.5993,1,,,,,,395,NW,"ID",50,colury,COLURY,z,,,,,,-0.481148699,-0.325439453,1,0,0,,0,12,12,334,1,
,,,,,,,,,,,,,,,,,,5d78986d4531b9001508752d,2020-08-10_17h46.52.982,lexical_decision_task_MP,2020.1.3,Linux armv8l,60,,0,-0.502850087,-0.325195313,1,0,0,0.6137,button_left,0.6137,1,,,,,,290,NW,UN,50,pretch,SPLINO,z,,,,,,-0.502850087,-0.325195313,1,0,0,,0,13,13,469,1,
,,,,,,,,,,,,,,,,,,5d78986d4531b9001508752d,2020-08-10_17h46.52.982,lexical_decision_task_MP,2020.1.3,Linux armv8l,60,,0,-0.488744185,-0.319091797,1,0,0,0.6959,button_left,0.6959,1,,,,,,449,NW,UN,33,phrect,BRUNGE,z,,,,,,-0.488744185,-0.319091797,1,0,0,,0,14,14,388,1,
,,,,,,,,,,,,,,,,,,5d78986d4531b9001508752d,2020-08-10_17h46.52.982,lexical_decision_task_MP,2020.1.3,Linux armv8l,60,,0,-0.471383074,-0.301757813,1,0,0,0.5474,button_left,0.5474,0,,,,,,89,WORD,"ID",33,permit,PERMIT,m,,,,,,-0.471383074,-0.301757813,1,0,0,,0,15,15,28,1,
,,,,,,,,,,,,,,,,,,5d78986d4531b9001508752d,2020-08-10_17h46.52.982,lexical_decision_task_MP,2020.1.3,Linux armv8l,60,,0,0.467202081,-0.284667969,1,0,0,0.878,button_right,0.878,1,,,,,,184,WORD,UN,33,bother,SLEAZY,m,,,,,,0.467202081,-0.284667969,1,0,0,,0,16,16,123,1,
,,,,,,,,,,,,,,,,,,5d78986d4531b9001508752d,2020-08-10_17h46.52.982,lexical_decision_task_MP,2020.1.3,Linux armv8l,60,,0,-0.503392622,-0.297119141,1,0,0,0.7149,button_left,0.7149,1,,,,,,315,NW,"ID",33,laston,LASTON,z,,,,,,-0.503392622,-0.297119141,1,0,0,,0,17,17,254,1,
,,,,,,,,,,,,,,,,,,5d78986d4531b9001508752d,2020-08-10_17h46.52.982,lexical_decision_task_MP,2020.1.3,Linux armv8l,60,,0,-0.481691233,-0.321289063,1,0,0,0.6816,button_left,0.6816,1,,,,,,429,NW,UN,33,caroey,FUNTLE,z,,,,,,-0.481691233,-0.321289063,1,0,0,,0,18,18,368,1,
,,,,,,,,,,,,,,,,,,5d78986d4531b9001508752d,2020-08-10_17h46.52.982,lexical_decision_task_MP,2020.1.3,Linux armv8l,60,,0,0.465574476,-0.290039063,1,0,0,0.6313,button_right,0.6313,1,,,,,,79,WORD,"ID",33,theory,THEORY,m,,,,,,0.465574476,-0.290039063,1,0,0,,0,19,19,18,1,
,,,,,,,,,,,,,,,,,,5d78986d4531b9001508752d,2020-08-10_17h46.52.982,lexical_decision_task_MP,2020.1.3,Linux armv8l,60,,0,-0.499594879,-0.302734375,1,0,0,0.6299,button_left,0.6299,1,,,,,,331,NW,"ID",33,gilfew,GILFEW,z,,,,,,-0.499594879,-0.302734375,1,0,0,,0,20,20,270,1,
,,,,,,,,,,,,,,,,,,5d78986d4531b9001508752d,2020-08-10_17h46.52.982,lexical_decision_task_MP,2020.1.3,Linux armv8l,60,,0,0.487275865,-0.302490234,1,0,0,0.6463,button_right,0.6463,1,,,,,,197,WORD,UN,33,wicked,STREAM,m,,,,,,0.487275865,-0.302490234,1,0,0,,0,21,21,136,1,
,,,,,,,,,,,,,,,,,,5d78986d4531b9001508752d,2020-08-10_17h46.52.982,lexical_decision_task_MP,2020.1.3,Linux armv8l,60,,0,0.485648261,-0.287109375,1,0,0,0.8132,button_right,0.8132,1,,,,,,157,WORD,"ID",50,dragon,DRAGON,m,,,,,,0.485648261,-0.287109375,1,0,0,,0,22,22,96,1,
,,,,,,,,,,,,,,,,,,5d78986d4531b9001508752d,2020-08-10_17h46.52.982,lexical_decision_task_MP,2020.1.3,Linux armv8l,60,,0,0.489446004,-0.303710938,1,0,0,0.7957,button_right,0.7957,1,,,,,,215,WORD,UN,33,lumber,PHOBIA,m,,,,,,0.489446004,-0.303710938,1,0,0,,0,23,23,154,1,
,,,,,,,,,,,,,,,,,,5d78986d4531b9001508752d,2020-08-10_17h46.52.982,lexical_decision_task_MP,2020.1.3,Linux armv8l,60,,0,0.494871351,-0.293701172,1,0,0,0.6293,button_right,0.6293,1,,,,,,46,WORD,UN,50,income,SINGLE,m,,,,,,0.494871351,-0.293701172,1,0,0,,0,24,24,225,1,
,,,,,,,,,,,,,,,,,,5d78986d4531b9001508752d,2020-08-10_17h46.52.982,lexical_decision_task_MP,2020.1.3,Linux armv8l,60,,0,-0.487116581,-0.319091797,1,0,0,0.6466,button_left,0.6466,1,,,,,,385,NW,"ID",50,veigma,VEIGMA,z,,,,,,-0.487116581,-0.319091797,1,0,0,,0,25,25,324,1,
,,,,,,,,,,,,,,,,,,5d78986d4531b9001508752d,2020-08-10_17h46.52.982,lexical_decision_task_MP,2020.1.3,Linux armv8l,60,,0,0.485648261,-0.292724609,1,0,0,0.5803,button_right,0.5803,1,,,,,,27,WORD,UN,50,comedy,SCREAM,m,,,,,,0.485648261,-0.292724609,1,0,0,,0,26,26,206,1,
,,,,,,,,,,,,,,,,,,5d78986d4531b9001508752d,2020-08-10_17h46.52.982,lexical_decision_task_MP,2020.1.3,Linux armv8l,60,,0,0.45797899,-0.285400391,1,0,0,0.7298,button_right,0.7298,1,,,,,,156,WORD,"ID",50,cradle,CRADLE,m,,,,,,0.45797899,-0.285400391,1,0,0,,0,27,27,95,1,
,,,,,,,,,,,,,,,,,,5d78986d4531b9001508752d,2020-08-10_17h46.52.982,lexical_decision_task_MP,2020.1.3,Linux armv8l,60,,0,0.473712497,-0.287109375,1,0,0,0.6132,button_right,0.6132,1,,,,,,192,WORD,UN,33,object,PLAGUE,m,,,,,,0.473712497,-0.287109375,1,0,0,,0,28,28,131,1,
,,,,,,,,,,,,,,,,,,5d78986d4531b9001508752d,2020-08-10_17h46.52.982,lexical_decision_task_MP,2020.1.3,Linux armv8l,60,,0,0.484563192,-0.299316406,1,0,0,0.514,button_right,0.514,1,,,,,,158,WORD,"ID",50,island,ISLAND,m,,,,,,0.484563192,-0.299316406,1,0,0,,0,29,29,97,1,
,,,,,,,,,,,,,,,,,,5d78986d4531b9001508752d,2020-08-10_17h46.52.982,lexical_decision_task_MP,2020.1.3,Linux armv8l,60,,0,0.476425171,-0.299804688,1,0,0,0.6047,button_right,0.6047,1,,,,,,14,WORD,UN,50,orange,ALMOST,m,,,,,,0.476425171,-0.299804688,1,0,0,,0,30,30,193,1,
,,,,,,,,,,,,,,,,,,5d78986d4531b9001508752d,2020-08-10_17h46.52.982,lexical_decision_task_MP,2020.1.3,Linux armv8l,60,,0,-0.499594879,-0.317138672,1,0,0,0.7135,button_left,0.7135,1,,,,,,466,NW,UN,33,robuly,HOCITE,z,,,,,,-0.499594879,-0.317138672,1,0,0,,0,31,31,405,1,
,,,,,,,,,,,,,,,,,,5d78986d4531b9001508752d,2020-08-10_17h46.52.982,lexical_decision_task_MP,2020.1.3,Linux armv8l,60,,0,-0.521838803,-0.313232422,1,0,0,0.5643,button_left,0.5643,1,,,,,,375,NW,"ID",50,yorque,YORQUE,z,,,,,,-0.521838803,-0.313232422,1,0,0,,0,32,32,314,1,
,,,,,,,,,,,,,,,,,,5d78986d4531b9001508752d,2020-08-10_17h46.52.982,lexical_decision_task_MP,2020.1.3,Linux armv8l,60,,0,-0.523466407,-0.320068359,1,0,0,0.5968,button_left,0.5968,1,,,,,,270,NW,UN,50,aubrid,WRIMSY,z,,,,,,-0.523466407,-0.320068359,1,0,0,,0,33,33,449,1,
,,,,,,,,,,,,,,,,,,5d78986d4531b9001508752d,2020-08-10_17h46.52.982,lexical_decision_task_MP,2020.1.3,Linux armv8l,60,,0,0.470457289,-0.293212891,1,0,0,0.613,button_right,0.613,1,,,,,,163,WORD,"ID",50,string,STRING,m,,,,,,0.470457289,-0.293212891,1,0,0,,0,34,34,102,1,
,,,,,,,,,,,,,,,,,,5d78986d4531b9001508752d,2020-08-10_17h46.52.982,lexical_decision_task_MP,2020.1.3,Linux armv8l,60,,0,-0.522923872,-0.310791016,1,0,0,0.6468,button_left,0.6468,1,,,,,,474,NW,UN,33,acrise,HABLIN,z,,,,,,-0.522923872,-0.310791016,1,0,0,,0,35,35,413,1,
,,,,,,,,,,,,,,,,,,5d78986d4531b9001508752d,2020-08-10_17h46.52.982,lexical_decision_task_MP,2020.1.3,Linux armv8l,60,,0,-0.506105296,-0.3125,1,0,0,0.5638,button_left,0.5638,1,,,,,,377,NW,"ID",50,injore,INJORE,z,,,,,,-0.506105296,-0.3125,1,0,0,,0,36,36,316,1,
,,,,,,,,,,,,,,,,,,5d78986d4531b9001508752d,2020-08-10_17h46.52.982,lexical_decision_task_MP,2020.1.3,Linux armv8l,60,,0,-0.508817969,-0.317138672,1,0,0,0.613,button_left,0.613,0,,,,,,16,WORD,UN,50,charge,FAUCET,m,,,,,,-0.508817969,-0.317138672,1,0,0,,0,37,37,195,1,
,,,,,,,,,,,,,,,,,,5d78986d4531b9001508752d,2020-08-10_17h46.52.982,lexical_decision_task_MP,2020.1.3,Linux armv8l,60,,0,0.480765449,-0.303710938,1,0,0,0.6456,button_right,0.6456,1,,,,,,75,WORD,"ID",33,trophy,TROPHY,m,,,,,,0.480765449,-0.303710938,1,0,0,,0,38,38,14,1,
,,,,,,,,,,,,,,,,,,5d78986d4531b9001508752d,2020-08-10_17h46.52.982,lexical_decision_task_MP,2020.1.3,Linux armv8l,60,,0,-0.473010678,-0.313720703,1,0,0,0.6814,button_left,0.6814,1,,,,,,431,NW,UN,33,lunker,CHRUMS,z,,,,,,-0.473010678,-0.313720703,1,0,0,,0,39,39,370,1,
,,,,,,,,,,,,,,,,,,5d78986d4531b9001508752d,2020-08-10_17h46.52.982,lexical_decision_task_MP,2020.1.3,Linux armv8l,60,,0,0.483478122,-0.299072266,1,0,0,0.6957,button_right,0.6957,1,,,,,,13,WORD,UN,50,almost,STRIVE,m,,,,,,0.483478122,-0.299072266,1,0,0,,0,40,40,192,1,
,,,,,,,,,,,,,,,,,,5d78986d4531b9001508752d,2020-08-10_17h46.52.982,lexical_decision_task_MP,2020.1.3,Linux armv8l,60,,0,-0.49742474,-0.29296875,1,0,0,0.6296,button_left,0.6296,1,,,,,,304,NW,"ID",33,cludie,CLUDIE,z,,,,,,-0.49742474,-0.29296875,1,0,0,,0,41,41,243,1,
,,,,,,,,,,,,,,,,,,5d78986d4531b9001508752d,2020-08-10_17h46.52.982,lexical_decision_task_MP,2020.1.3,Linux armv8l,60,,0,-0.474095747,-0.3359375,1,0,0,0.9307,button_left,0.9307,1,,,,,,401,NW,"ID",50,mustil,MUSTIL,z,,,,,,-0.474095747,-0.3359375,1,0,0,,0,42,42,340,1,
,,,,,,,,,,,,,,,,,,5d78986d4531b9001508752d,2020-08-10_17h46.52.982,lexical_decision_task_MP,2020.1.3,Linux armv8l,60,,0,0.462861803,-0.273681641,1,0,0,0.7141,button_right,0.7141,1,,,,,,114,WORD,"ID",33,placid,PLACID,m,,,,,,0.462861803,-0.273681641,1,0,0,,0,43,43,53,1,
,,,,,,,,,,,,,,,,,,5d78986d4531b9001508752d,2020-08-10_17h46.52.982,lexical_decision_task_MP,2020.1.3,Linux armv8l,60,,0,0.47859531,-0.30859375,1,0,0,0.5787,button_right,0.5787,1,,,,,,128,WORD,"ID",50,senior,SENIOR,m,,,,,,0.47859531,-0.30859375,1,0,0,,0,44,44,67,1,
,,,,,,,,,,,,,,,,,,5d78986d4531b9001508752d,2020-08-10_17h46.52.982,lexical_decision_task_MP,2020.1.3,Linux armv8l,60,,0,-0.492541928,-0.321289063,1,0,0,0.6799,button_left,0.6799,1,,,,,,323,NW,"ID",33,rosail,ROSAIL,z,,,,,,-0.492541928,-0.321289063,1,0,0,,0,45,45,262,1,
,,,,,,,,,,,,,,,,,,5d78986d4531b9001508752d,2020-08-10_17h46.52.982,lexical_decision_task_MP,2020.1.3,Linux armv8l,60,,0,-0.482233768,-0.31640625,1,0,0,0.7131,button_left,0.7131,1,,,,,,399,NW,"ID",50,fouret,FOURET,z,,,,,,-0.482233768,-0.31640625,1,0,0,,0,46,46,338,1,
,,,,,,,,,,,,,,,,,,5d78986d4531b9001508752d,2020-08-10_17h46.52.982,lexical_decision_task_MP,2020.1.3,Linux armv8l,60,,0,-0.480063629,-0.321289063,1,0,0,0.53,button_left,0.53,1,,,,,,448,NW,UN,33,brunge,SADENT,z,,,,,,-0.480063629,-0.321289063,1,0,0,,0,47,47,387,1,
,,,,,,,,,,,,,,,,,,5d78986d4531b9001508752d,2020-08-10_17h46.52.982,lexical_decision_task_MP,2020.1.3,Linux armv8l,60,,0,0.433022393,-0.301025391,1,0,0,0.8962,button_right,0.8962,1,,,,,,8,WORD,UN,50,hustle,ABRUPT,m,,,,,,0.433022393,-0.301025391,1,0,0,,0,48,48,187,1,
,,,,,,,,,,,,,,,,,,5d78986d4531b9001508752d,2020-08-10_17h46.52.982,lexical_decision_task_MP,2020.1.3,Linux armv8l,60,,0,0.473169963,-0.302978516,1,0,0,0.5135,button_right,0.5135,1,,,,,,173,WORD,"ID",50,shower,SHOWER,m,,,,,,0.473169963,-0.302978516,1,0,0,,0,49,49,112,1,
,,,,,,,,,,,,,,,,,,5d78986d4531b9001508752d,2020-08-10_17h46.52.982,lexical_decision_task_MP,2020.1.3,Linux armv8l,60,,0,-0.476265886,-0.315673828,1,0,0,0.6452,button_left,0.6452,1,,,,,,412,NW,"ID",50,jiluer,JILUER,z,,,,,,-0.476265886,-0.315673828,1,0,0,,0,50,50,351,1,
,,,,,,,,,,,,,,,,,,5d78986d4531b9001508752d,2020-08-10_17h46.52.982,lexical_decision_task_MP,2020.1.3,Linux armv8l,60,,0,-0.503392622,-0.310058594,1,0,0,0.8464,button_left,0.8464,1,,,,,,260,NW,UN,50,stunch,UNJECT,z,,,,,,-0.503392622,-0.310058594,1,0,0,,0,51,51,439,1,
,,,,,,,,,,,,,,,,,,5d78986d4531b9001508752d,2020-08-10_17h46.52.982,lexical_decision_task_MP,2020.1.3,Linux armv8l,60,,0,-0.471383074,-0.294677734,1,0,0,0.5923,button_left,0.5923,1,,,,,,310,NW,"ID",33,daniet,DANIET,z,,,,,,-0.471383074,-0.294677734,1,0,0,,0,52,52,249,1,
,,,,,,,,,,,,,,,,,,5d78986d4531b9001508752d,2020-08-10_17h46.52.982,lexical_decision_task_MP,2020.1.3,Linux armv8l,60,,0,-0.5077329,-0.276367188,1,0,0,0.531,button_left,0.531,1,,,,,,286,NW,UN,50,nymbel,RELDON,z,,,,,,-0.5077329,-0.276367188,1,0,0,,0,53,53,465,1,
,,,,,,,,,,,,,,,,,,5d78986d4531b9001508752d,2020-08-10_17h46.52.982,lexical_decision_task_MP,2020.1.3,Linux armv8l,60,,0,0.485648261,-0.297363281,1,0,0,0.7638,button_right,0.7638,1,,,,,,143,WORD,"ID",50,reason,REASON,m,,,,,,0.485648261,-0.297363281,1,0,0,,0,54,54,82,1,
,,,,,,,,,,,,,,,,,,5d78986d4531b9001508752d,2020-08-10_17h46.52.982,lexical_decision_task_MP,2020.1.3,Linux armv8l,60,,0,0.484020657,-0.317138672,1,0,0,0.6633,button_right,0.6633,1,,,,,,228,WORD,UN,33,kidney,MASTER,m,,,,,,0.484020657,-0.317138672,1,0,0,,0,55,55,167,1,
,,,,,,,,,,,,,,,,,,5d78986d4531b9001508752d,2020-08-10_17h46.52.982,lexical_decision_task_MP,2020.1.3,Linux armv8l,60,,0,0.479680379,-0.299560547,1,0,0,0.6133,button_right,0.6133,1,,,,,,87,WORD,"ID",33,filter,FILTER,m,,,,,,0.479680379,-0.299560547,1,0,0,,0,56,56,26,1,
,,,,,,,,,,,,,,,,,,5d78986d4531b9001508752d,2020-08-10_17h46.52.982,lexical_decision_task_MP,2020.1.3,Linux armv8l,60,,0,-0.483861372,-0.306884766,1,0,0,0.7968,button_left,0.7968,1,,,,,,390,NW,"ID",50,hatrus,HATRUS,z,,,,,,-0.483861372,-0.306884766,1,0,0,,0,57,57,329,1,
,,,,,,,,,,,,,,,,,,5d78986d4531b9001508752d,2020-08-10_17h46.52.982,lexical_decision_task_MP,2020.1.3,Linux armv8l,60,,0,0.479137845,-0.309570313,1,0,0,0.7146,button_right,0.7146,1,,,,,,181,WORD,UN,33,winter,GLANCE,m,,,,,,0.479137845,-0.309570313,1,0,0,,0,58,58,120,1,
,,,,,,,,,,,,,,,,,,5d78986d4531b9001508752d,2020-08-10_17h46.52.982,lexical_decision_task_MP,2020.1.3,Linux armv8l,60,,0,-0.474638282,-0.317138672,1,0,0,0.7298,button_left,0.7298,1,,,,,,299,NW,UN,50,yarion,STURCH,z,,,,,,-0.474638282,-0.317138672,1,0,0,,0,59,59,478,1,
,,,,,,,,,,,,,,,,,,5d78986d4531b9001508752d,2020-08-10_17h46.52.982,lexical_decision_task_MP,2020.1.3,Linux armv8l,60,,0,-0.487659115,-0.327148438,1,0,0,1.6927,button_left,1.6927,1,,,,,,328,NW,"ID",33,broake,BROAKE,z,,,,,,-0.487659115,-0.327148438,1,0,0,,0,60,60,267,1,
,,,,,,,,,,,,,,,,,,5d78986d4531b9001508752d,2020-08-10_17h46.52.982,lexical_decision_task_MP,2020.1.3,Linux armv8l,60,,0,0.443873088,-0.300537109,1,0,0,0.5972,button_right,0.5972,1,,,,,,150,WORD,"ID",50,random,RANDOM,m,,,,,,0.443873088,-0.300537109,1,0,0,,0,61,61,89,1,
,,,,,,,,,,,,,,,,,,5d78986d4531b9001508752d,2020-08-10_17h46.52.982,lexical_decision_task_MP,2020.1.3,Linux armv8l,60,,0,0.492158678,-0.307617188,1,0,0,0.6974,button_right,0.6974,1,,,,,,133,WORD,"ID",50,chrome,CHROME,m,,,,,,0.492158678,-0.307617188,1,0,0,,0,62,62,72,1,
,,,,,,,,,,,,,,,,,,5d78986d4531b9001508752d,2020-08-10_17h46.52.982,lexical_decision_task_MP,2020.1.3,Linux armv8l,60,,0,-0.492541928,-0.300537109,1,0,0,1.0123,button_left,1.0123,1,,,,,,305,NW,"ID",33,forgle,FORGLE,z,,,,,,-0.492541928,-0.300537109,1,0,0,,0,63,63,244,1,
,,,,,,,,,,,,,,,,,,5d78986d4531b9001508752d,2020-08-10_17h46.52.982,lexical_decision_task_MP,2020.1.3,Linux armv8l,60,,0,0.507892185,-0.317138672,1,0,0,0.7627,button_right,0.7627,0,,,,,,314,NW,"ID",33,sprine,SPRINE,z,,,,,,0.507892185,-0.317138672,1,0,0,,0,64,64,253,1,
,,,,,,,,,,,,,,,,,,5d78986d4531b9001508752d,2020-08-10_17h46.52.982,lexical_decision_task_MP,2020.1.3,Linux armv8l,60,,0,0.503551907,-0.312988281,1,0,0,0.6633,button_right,0.6633,1,,,,,,48,WORD,UN,50,survey,WALNUT,m,,,,,,0.503551907,-0.312988281,1,0,0,,0,65,65,227,1,
,,,,,,,,,,,,,,,,,,5d78986d4531b9001508752d,2020-08-10_17h46.52.982,lexical_decision_task_MP,2020.1.3,Linux armv8l,60,,0,-0.483861372,-0.301513672,1,0,0,1.7416,button_left,1.7416,1,,,,,,277,NW,UN,50,unighs,PETAIN,z,,,,,,-0.483861372,-0.301513672,1,0,0,,0,66,66,456,1,
,,,,,,,,,,,,,,,,,,5d78986d4531b9001508752d,2020-08-10_17h46.52.982,lexical_decision_task_MP,2020.1.3,Linux armv8l,60,,0,0.463946872,-0.287597656,1,0,0,0.4975,button_right,0.4975,1,,,,,,38,WORD,UN,50,insect,POWDER,m,,,,,,0.463946872,-0.287597656,1,0,0,,0,67,67,217,1,
,,,,,,,,,,,,,,,,,,5d78986d4531b9001508752d,2020-08-10_17h46.52.982,lexical_decision_task_MP,2020.1.3,Linux armv8l,60,,0,-0.464330122,-0.30078125,1,0,0,0.5973,button_left,0.5973,1,,,,,,379,NW,"ID",50,auting,AUTING,z,,,,,,-0.464330122,-0.30078125,1,0,0,,0,68,68,318,1,
,,,,,,,,,,,,,,,,,,5d78986d4531b9001508752d,2020-08-10_17h46.52.982,lexical_decision_task_MP,2020.1.3,Linux armv8l,60,,0,-0.47789349,-0.308837891,1,0,0,0.6624,button_left,0.6624,1,,,,,,386,NW,"ID",50,ancust,ANCUST,z,,,,,,-0.47789349,-0.308837891,1,0,0,,0,69,69,325,1,
,,,,,,,,,,,,,,,,,,5d78986d4531b9001508752d,2020-08-10_17h46.52.982,lexical_decision_task_MP,2020.1.3,Linux armv8l,60,,0,-0.482233768,-0.301513672,1,0,0,0.7296,button_left,0.7296,1,,,,,,457,NW,UN,33,barcet,WANIGH,z,,,,,,-0.482233768,-0.301513672,1,0,0,,0,70,70,396,1,
,,,,,,,,,,,,,,,,,,5d78986d4531b9001508752d,2020-08-10_17h46.52.982,lexical_decision_task_MP,2020.1.3,Linux armv8l,60,,0,-0.500679949,-0.290283203,1,0,0,0.6269,button_left,0.6269,1,,,,,,389,NW,"ID",50,witmer,WITMER,z,,,,,,-0.500679949,-0.290283203,1,0,0,,0,71,71,328,1,
,,,,,,,,,,,,,,,,,,5d78986d4531b9001508752d,2020-08-10_17h46.52.982,lexical_decision_task_MP,2020.1.3,Linux armv8l,60,,0,-0.48820165,-0.310302734,1,0,0,0.9629,button_left,0.9629,1,,,,,,480,NW,UN,33,knisma,ROBULY,z,,,,,,-0.48820165,-0.310302734,1,0,0,,0,72,72,419,1,
,,,,,,,,,,,,,,,,,,5d78986d4531b9001508752d,2020-08-10_17h46.52.982,lexical_decision_task_MP,2020.1.3,Linux armv8l,60,,0,-0.492541928,-0.303955078,1,0,0,0.63,button_left,0.63,0,,,,,,170,WORD,"ID",50,pounce,POUNCE,m,,,,,,-0.492541928,-0.303955078,1,0,0,,0,73,73,109,1,
,,,,,,,,,,,,,,,,,,5d78986d4531b9001508752d,2020-08-10_17h46.52.982,lexical_decision_task_MP,2020.1.3,Linux armv8l,60,,0,-0.495797136,-0.322509766,1,0,0,0.6644,button_left,0.6644,1,,,,,,452,NW,UN,33,bolvis,SURDEN,z,,,,,,-0.495797136,-0.322509766,1,0,0,,0,74,74,391,1,
,,,,,,,,,,,,,,,,,,5d78986d4531b9001508752d,2020-08-10_17h46.52.982,lexical_decision_task_MP,2020.1.3,Linux armv8l,60,,0,0.467744615,-0.282470703,1,0,0,0.5963,button_right,0.5963,1,,,,,,55,WORD,UN,50,ambush,STROKE,m,,,,,,0.467744615,-0.282470703,1,0,0,,0,75,75,234,1,
,,,,,,,,,,,,,,,,,,5d78986d4531b9001508752d,2020-08-10_17h46.52.982,lexical_decision_task_MP,2020.1.3,Linux armv8l,60,,0,0.465574476,-0.281982422,1,0,0,0.5972,button_right,0.5972,1,,,,,,121,WORD,"ID",50,thrive,THRIVE,m,,,,,,0.465574476,-0.281982422,1,0,0,,0,76,76,60,1,
,,,,,,,,,,,,,,,,,,5d78986d4531b9001508752d,2020-08-10_17h46.52.982,lexical_decision_task_MP,2020.1.3,Linux armv8l,60,,0,0.484020657,-0.286132813,1,0,0,0.53,button_right,0.53,1,,,,,,36,WORD,UN,50,insult,VANISH,m,,,,,,0.484020657,-0.286132813,1,0,0,,0,77,77,215,1,
,,,,,,,,,,,,,,,,,,5d78986d4531b9001508752d,2020-08-10_17h46.52.982,lexical_decision_task_MP,2020.1.3,Linux armv8l,60,,0,0.465031942,-0.278808594,1,0,0,0.5149,button_right,0.5149,1,,,,,,104,WORD,"ID",33,studio,STUDIO,m,,,,,,0.465031942,-0.278808594,1,0,0,,0,78,78,43,1,
,,,,,,,,,,,,,,,,,,5d78986d4531b9001508752d,2020-08-10_17h46.52.982,lexical_decision_task_MP,2020.1.3,Linux armv8l,60,,0,-0.502850087,-0.312988281,1,0,0,1.1634,button_left,1.1634,1,,,,,,434,NW,UN,33,impurb,PITROM,z,,,,,,-0.502850087,-0.312988281,1,0,0,,0,79,79,373,1,
,,,,,,,,,,,,,,,,,,5d78986d4531b9001508752d,2020-08-10_17h46.52.982,lexical_decision_task_MP,2020.1.3,Linux armv8l,60,,0,0.476967706,-0.276611328,1,0,0,0.7798,button_right,0.7798,1,,,,,,57,WORD,UN,50,danger,CHANGE,m,,,,,,0.476967706,-0.276611328,1,0,0,,0,80,80,236,1,
,,,,,,,,,,,,,,,,,,5d78986d4531b9001508752d,2020-08-10_17h46.52.982,lexical_decision_task_MP,2020.1.3,Linux armv8l,60,,0,-0.510445574,-0.288330078,1,0,0,0.7293,button_left,0.7293,1,,,,,,410,NW,"ID",50,tunory,TUNORY,z,,,,,,-0.510445574,-0.288330078,1,0,0,,0,81,81,349,1,
,,,,,,,,,,,,,,,,,,5d78986d4531b9001508752d,2020-08-10_17h46.52.982,lexical_decision_task_MP,2020.1.3,Linux armv8l,60,,0,0.460149129,-0.275878906,1,0,0,1.0129,button_right,1.0129,1,,,,,,145,WORD,"ID",50,parish,PARISH,m,,,,,,0.460149129,-0.275878906,1,0,0,,0,82,82,84,1,
,,,,,,,,,,,,,,,,,,5d78986d4531b9001508752d,2020-08-10_17h46.52.982,lexical_decision_task_MP,2020.1.3,Linux armv8l,60,,0,-0.500137414,-0.282714844,1,0,0,1.1778,button_left,1.1778,1,,,,,,278,NW,UN,50,celond,UNIGHS,z,,,,,,-0.500137414,-0.282714844,1,0,0,,0,83,83,457,1,
,,,,,,,,,,,,,,,,,,5d78986d4531b9001508752d,2020-08-10_17h46.52.982,lexical_decision_task_MP,2020.1.3,Linux armv8l,60,,0,-0.493084462,-0.297851563,1,0,0,0.646,button_left,0.646,1,,,,,,374,NW,"ID",50,sliant,SLIANT,z,,,,,,-0.493084462,-0.297851563,1,0,0,,0,84,84,313,1,
,,,,,,,,,,,,,,,,,,5d78986d4531b9001508752d,2020-08-10_17h46.52.982,lexical_decision_task_MP,2020.1.3,Linux armv8l,60,,0,0.46937222,-0.276367188,1,0,0,0.696,button_right,0.696,1,,,,,,142,WORD,"ID",50,spruce,SPRUCE,m,,,,,,0.46937222,-0.276367188,1,0,0,,0,85,85,81,1,
,,,,,,,,,,,,,,,,,,5d78986d4531b9001508752d,2020-08-10_17h46.52.982,lexical_decision_task_MP,2020.1.3,Linux armv8l,60,,0,0.486733331,-0.288330078,1,0,0,0.8619,button_right,0.8619,1,,,,,,41,WORD,UN,50,chapel,SPRING,m,,,,,,0.486733331,-0.288330078,1,0,0,,0,86,86,220,1,
,,,,,,,,,,,,,,,,,,5d78986d4531b9001508752d,2020-08-10_17h46.52.982,lexical_decision_task_MP,2020.1.3,Linux armv8l,60,,0,0.501924303,-0.286865234,1,0,0,0.6478,button_right,0.6478,1,,,,,,165,WORD,"ID",50,invest,INVEST,m,,,,,,0.501924303,-0.286865234,1,0,0,,0,87,87,104,1,
,,,,,,,,,,,,,,,,,,5d78986d4531b9001508752d,2020-08-10_17h46.52.982,lexical_decision_task_MP,2020.1.3,Linux armv8l,60,,0,-0.494169532,-0.275146484,1,0,0,0.9458,button_left,0.9458,1,,,,,,456,NW,UN,33,wanigh,BROGET,z,,,,,,-0.494169532,-0.275146484,1,0,0,,0,88,88,395,1,
,,,,,,,,,,,,,,,,,,5d78986d4531b9001508752d,2020-08-10_17h46.52.982,lexical_decision_task_MP,2020.1.3,Linux armv8l,60,,0,-0.495797136,-0.287841797,1,0,0,0.7304,button_left,0.7304,1,,,,,,419,NW,"ID",50,slount,SLOUNT,z,,,,,,-0.495797136,-0.287841797,1,0,0,,0,89,89,358,1,
,,,,,,,,,,,,,,,,,,5d78986d4531b9001508752d,2020-08-10_17h46.52.982,lexical_decision_task_MP,2020.1.3,Linux armv8l,60,,0,0.500839233,-0.293457031,1,0,0,0.9635,button_right,0.9635,1,,,,,,18,WORD,UN,50,patron,HUMBLE,m,,,,,,0.500839233,-0.293457031,1,0,0,,0,90,90,197,1,
,,,,,,,,,,,,,,,,,,5d78986d4531b9001508752d,2020-08-10_17h46.52.982,lexical_decision_task_MP,2020.1.3,Linux armv8l,60,,0,0.478052775,-0.288085938,1,0,0,1.4435,button_right,1.4435,1,,,,,,206,WORD,UN,33,wreath,TAILOR,m,,,,,,0.478052775,-0.288085938,1,0,0,,0,91,91,145,1,
,,,,,,,,,,,,,,,,,,5d78986d4531b9001508752d,2020-08-10_17h46.52.982,lexical_decision_task_MP,2020.1.3,Linux armv8l,60,,0,0.493786282,-0.295410156,1,0,0,0.6962,button_right,0.6962,1,,,,,,110,WORD,"ID",33,polite,POLITE,m,,,,,,0.493786282,-0.295410156,1,0,0,,0,92,92,49,1,
,,,,,,,,,,,,,,,,,,5d78986d4531b9001508752d,2020-08-10_17h46.52.982,lexical_decision_task_MP,2020.1.3,Linux armv8l,60,,0,-0.4686704,-0.301025391,1,0,0,0.8306,button_left,0.8306,1,,,,,,324,NW,"ID",33,steikh,STEIKH,z,,,,,,-0.4686704,-0.301025391,1,0,0,,0,93,93,263,1,
,,,,,,,,,,,,,,,,,,5d78986d4531b9001508752d,2020-08-10_17h46.52.982,lexical_decision_task_MP,2020.1.3,Linux armv8l,60,,0,-0.469755469,-0.296630859,1,0,0,0.9125,button_left,0.9125,1,,,,,,427,NW,UN,33,tandly,SCHIND,z,,,,,,-0.469755469,-0.296630859,1,0,0,,0,94,94,366,1,
,,,,,,,,,,,,,,,,,,5d78986d4531b9001508752d,2020-08-10_17h46.52.982,lexical_decision_task_MP,2020.1.3,Linux armv8l,60,,0,-0.487116581,-0.276367188,1,0,0,0.6963,button_left,0.6963,1,,,,,,320,NW,"ID",33,jockal,JOCKAL,z,,,,,,-0.487116581,-0.276367188,1,0,0,,0,95,95,259,1,
,,,,,,,,,,,,,,,,,,5d78986d4531b9001508752d,2020-08-10_17h46.52.982,lexical_decision_task_MP,2020.1.3,Linux armv8l,60,,0,0.469914754,-0.290039063,1,0,0,0.6463,button_right,0.6463,1,,,,,,63,WORD,"ID",33,launch,LAUNCH,m,,,,,,0.469914754,-0.290039063,1,0,0,,0,96,96,2,1,
,,,,,,,,,,,,,,,,,,5d78986d4531b9001508752d,2020-08-10_17h46.52.982,lexical_decision_task_MP,2020.1.3,Linux armv8l,60,,0,0.480765449,-0.288085938,1,0,0,0.6965,button_right,0.6965,1,,,,,,160,WORD,"ID",50,violet,VIOLET,m,,,,,,0.480765449,-0.288085938,1,0,0,,0,97,97,99,1,
,,,,,,,,,,,,,,,,,,5d78986d4531b9001508752d,2020-08-10_17h46.52.982,lexical_decision_task_MP,2020.1.3,Linux armv8l,60,,0,0.475882636,-0.258056641,1,0,0,0.6678,button_right,0.6678,1,,,,,,151,WORD,"ID",50,mystic,MYSTIC,m,,,,,,0.475882636,-0.258056641,1,0,0,,0,98,98,90,1,
,,,,,,,,,,,,,,,,,,5d78986d4531b9001508752d,2020-08-10_17h46.52.982,lexical_decision_task_MP,2020.1.3,Linux armv8l,60,,0,-0.490371789,-0.296875,1,0,0,1.1106,button_left,1.1106,1,,,,,,441,NW,UN,33,aboune,RASTOE,z,,,,,,-0.490371789,-0.296875,1,0,0,,0,99,99,380,1,
,,,,,,,,,,,,,,,,,,5d78986d4531b9001508752d,2020-08-10_17h46.52.982,lexical_decision_task_MP,2020.1.3,Linux armv8l,60,,0,0.475340101,-0.312988281,1,0,0,0.6293,button_right,0.6293,1,,,,,,99,WORD,"ID",33,fluent,FLUENT,m,,,,,,0.475340101,-0.312988281,1,0,0,,0,100,100,38,1,
,,,,,,,,,,,,,,,,,,5d78986d4531b9001508752d,2020-08-10_17h46.52.982,lexical_decision_task_MP,2020.1.3,Linux armv8l,60,,0,0.46828715,-0.291259766,1,0,0,0.7471,button_right,0.7471,1,,,,,,103,WORD,"ID",33,bounce,BOUNCE,m,,,,,,0.46828715,-0.291259766,1,0,0,,0,101,101,42,1,
,,,,,,,,,,,,,,,,,,5d78986d4531b9001508752d,2020-08-10_17h46.52.982,lexical_decision_task_MP,2020.1.3,Linux armv8l,60,,0,-0.463787587,-0.302001953,1,0,0,1.1126,button_left,1.1126,1,,,,,,254,NW,UN,50,apight,VAROSH,z,,,,,,-0.463787587,-0.302001953,1,0,0,,0,102,102,433,1,
,,,,,,,,,,,,,,,,,,5d78986d4531b9001508752d,2020-08-10_17h46.52.982,lexical_decision_task_MP,2020.1.3,Linux armv8l,60,,0,-0.470840539,-0.30859375,1,0,0,0.6633,button_left,0.6633,1,,,,,,383,NW,"ID",50,aungre,AUNGRE,z,,,,,,-0.470840539,-0.30859375,1,0,0,,0,103,103,322,1,
,,,,,,,,,,,,,,,,,,5d78986d4531b9001508752d,2020-08-10_17h46.52.982,lexical_decision_task_MP,2020.1.3,Linux armv8l,60,,0,-0.473010678,-0.294677734,1,0,0,0.7797,button_left,0.7797,1,,,,,,322,NW,"ID",33,slanch,SLANCH,z,,,,,,-0.473010678,-0.294677734,1,0,0,,0,104,104,261,1,
,,,,,,,,,,,,,,,,,,5d78986d4531b9001508752d,2020-08-10_17h46.52.982,lexical_decision_task_MP,2020.1.3,Linux armv8l,60,,0,-0.496339671,-0.292724609,1,0,0,0.6961,button_left,0.6961,1,,,,,,409,NW,"ID",50,elopia,ELOPIA,z,,,,,,-0.496339671,-0.292724609,1,0,0,,0,105,105,348,1,
,,,,,,,,,,,,,,,,,,5d78986d4531b9001508752d,2020-08-10_17h46.52.982,lexical_decision_task_MP,2020.1.3,Linux armv8l,60,,0,-0.492541928,-0.298828125,1,0,0,0.5646,button_left,0.5646,1,,,,,,364,NW,"ID",50,impote,IMPOTE,z,,,,,,-0.492541928,-0.298828125,1,0,0,,0,106,106,303,1,
,,,,,,,,,,,,,,,,,,5d78986d4531b9001508752d,2020-08-10_17h46.52.982,lexical_decision_task_MP,2020.1.3,Linux armv8l,60,,0,-0.481148699,-0.305908203,1,0,0,0.9633,button_left,0.9633,1,,,,,,338,NW,"ID",33,wreash,WREASH,z,,,,,,-0.481148699,-0.305908203,1,0,0,,0,107,107,277,1,
,,,,,,,,,,,,,,,,,,5d78986d4531b9001508752d,2020-08-10_17h46.52.982,lexical_decision_task_MP,2020.1.3,Linux armv8l,60,,0,-0.473010678,-0.2890625,1,0,0,0.5804,button_left,0.5804,1,,,,,,252,NW,UN,50,resait,STAPOD,z,,,,,,-0.473010678,-0.2890625,1,0,0,,0,108,108,431,1,
,,,,,,,,,,,,,,,,,,5d78986d4531b9001508752d,2020-08-10_17h46.52.982,lexical_decision_task_MP,2020.1.3,Linux armv8l,60,,0,-0.460532379,-0.306152344,1,0,0,1.3946,button_left,1.3946,1,,,,,,437,NW,UN,33,baitch,SNAPEL,z,,,,,,-0.460532379,-0.306152344,1,0,0,,0,109,109,376,1,
,,,,,,,,,,,,,,,,,,5d78986d4531b9001508752d,2020-08-10_17h46.52.982,lexical_decision_task_MP,2020.1.3,Linux armv8l,60,,0,-0.483861372,-0.307373047,1,0,0,0.5141,button_left,0.5141,1,,,,,,391,NW,"ID",50,theldy,THELDY,z,,,,,,-0.483861372,-0.307373047,1,0,0,,0,110,110,330,1,
,,,,,,,,,,,,,,,,,,5d78986d4531b9001508752d,2020-08-10_17h46.52.982,lexical_decision_task_MP,2020.1.3,Linux armv8l,60,,0,-0.473010678,-0.307617188,1,0,0,0.5147,button_left,0.5147,1,,,,,,318,NW,"ID",33,reagly,REAGLY,z,,,,,,-0.473010678,-0.307617188,1,0,0,,0,111,111,257,1,
,,,,,,,,,,,,,,,,,,5d78986d4531b9001508752d,2020-08-10_17h46.52.982,lexical_decision_task_MP,2020.1.3,Linux armv8l,60,,0,-0.480606164,-0.314208984,1,0,0,0.6306,button_left,0.6306,1,,,,,,467,NW,UN,33,wictor,GORBIE,z,,,,,,-0.480606164,-0.314208984,1,0,0,,0,112,112,406,1,
,,,,,,,,,,,,,,,,,,5d78986d4531b9001508752d,2020-08-10_17h46.52.982,lexical_decision_task_MP,2020.1.3,Linux armv8l,60,,0,-0.468127865,-0.3125,1,0,0,0.494,button_left,0.494,1,,,,,,280,NW,UN,50,melaty,CURBOL,z,,,,,,-0.468127865,-0.3125,1,0,0,,0,113,113,459,1,
,,,,,,,,,,,,,,,,,,5d78986d4531b9001508752d,2020-08-10_17h46.52.982,lexical_decision_task_MP,2020.1.3,Linux armv8l,60,,0,-0.476808421,-0.316162109,1,0,0,0.5646,button_left,0.5646,1,,,,,,479,NW,UN,33,crible,LOBUSH,z,,,,,,-0.476808421,-0.316162109,1,0,0,,0,114,114,418,1,
,,,,,,,,,,,,,,,,,,5d78986d4531b9001508752d,2020-08-10_17h46.52.982,lexical_decision_task_MP,2020.1.3,Linux armv8l,60,,0,-0.475723351,-0.319580078,1,0,0,1.0117,button_left,1.0117,1,,,,,,475,NW,UN,33,josted,PEBRIC,z,,,,,,-0.475723351,-0.319580078,1,0,0,,0,115,115,414,1,
,,,,,,,,,,,,,,,,,,5d78986d4531b9001508752d,2020-08-10_17h46.52.982,lexical_decision_task_MP,2020.1.3,Linux armv8l,60,,0,-0.468127865,-0.304443359,1,0,0,0.531,button_left,0.531,1,,,,,,317,NW,"ID",33,worbal,WORBAL,z,,,,,,-0.468127865,-0.304443359,1,0,0,,0,116,116,256,1,
,,,,,,,,,,,,,,,,,,5d78986d4531b9001508752d,2020-08-10_17h46.52.982,lexical_decision_task_MP,2020.1.3,Linux armv8l,60,,0,-0.478436025,-0.298828125,1,0,0,0.3984,button_left,0.3984,0,,,,,,238,WORD,UN,33,behalf,FLOWER,m,,,,,,-0.478436025,-0.298828125,1,0,0,,0,117,117,177,1,
,,,,,,,,,,,,,,,,,,5d78986d4531b9001508752d,2020-08-10_17h46.52.982,lexical_decision_task_MP,2020.1.3,Linux armv8l,60,,0,0.485105726,-0.30078125,1,0,0,0.5799,button_right,0.5799,1,,,,,,23,WORD,UN,50,praise,WEALTH,m,,,,,,0.485105726,-0.30078125,1,0,0,,0,118,118,202,1,
,,,,,,,,,,,,,,,,,,5d78986d4531b9001508752d,2020-08-10_17h46.52.982,lexical_decision_task_MP,2020.1.3,Linux armv8l,60,,0,0.516030206,-0.291992188,1,0,0,0.7475,button_right,0.7475,1,,,,,,161,WORD,"ID",50,pastor,PASTOR,m,,,,,,0.516030206,-0.291992188,1,0,0,,0,119,119,100,1,
,,,,,,,,,,,,,,,,,,5d78986d4531b9001508752d,2020-08-10_17h46.52.982,lexical_decision_task_MP,2020.1.3,Linux armv8l,60,,0,-0.499594879,-0.305419922,1,0,0,0.6806,button_left,0.6806,1,,,,,,358,NW,"ID",33,fleack,FLEACK,z,,,,,,0.100448524,-0.374511719,1,0,0,,0,120,120,297,1,break_done_button
,,,,,,,,,,,,,,,,,,5d78986d4531b9001508752d,2020-08-10_17h46.52.982,lexical_decision_task_MP,2020.1.3,Linux armv8l,60,,0,0.476967706,-0.266113281,1,0,0,0.5978,button_right,0.5978,1,,,,,,127,WORD,"ID",50,castle,CASTLE,m,,,,,,0.476967706,-0.266113281,1,0,0,,0,121,121,66,1,
,,,,,,,,,,,,,,,,,,5d78986d4531b9001508752d,2020-08-10_17h46.52.982,lexical_decision_task_MP,2020.1.3,Linux armv8l,60,,0,-0.491456858,-0.237304688,1,0,0,0.5636,button_left,0.5636,1,,,,,,416,NW,"ID",50,pathel,PATHEL,z,,,,,,-0.491456858,-0.237304688,1,0,0,,0,122,122,355,1,
,,,,,,,,,,,,,,,,,,5d78986d4531b9001508752d,2020-08-10_17h46.52.982,lexical_decision_task_MP,2020.1.3,Linux armv8l,60,,0,-0.452394358,-0.315185547,1,0,0,0.6938,button_left,0.6938,1,,,,,,387,NW,"ID",50,gronce,GRONCE,z,,,,,,-0.452394358,-0.315185547,1,0,0,,0,123,123,326,1,
,,,,,,,,,,,,,,,,,,5d78986d4531b9001508752d,2020-08-10_17h46.52.982,lexical_decision_task_MP,2020.1.3,Linux armv8l,60,,0,-0.438288456,-0.315673828,1,0,0,0.5325,button_left,0.5325,1,,,,,,250,NW,UN,50,lupict,MILTED,z,,,,,,-0.438288456,-0.315673828,1,0,0,,0,124,124,429,1,
,,,,,,,,,,,,,,,,,,5d78986d4531b9001508752d,2020-08-10_17h46.52.982,lexical_decision_task_MP,2020.1.3,Linux armv8l,60,,0,0.43844774,-0.286376953,1,0,0,0.6129,button_right,0.6129,1,,,,,,205,WORD,UN,33,tailor,LOUNGE,m,,,,,,0.43844774,-0.286376953,1,0,0,,0,125,125,144,1,
,,,,,,,,,,,,,,,,,,5d78986d4531b9001508752d,2020-08-10_17h46.52.982,lexical_decision_task_MP,2020.1.3,Linux armv8l,60,,0,-0.450766754,-0.324462891,1,0,0,0.5822,button_left,0.5822,1,,,,,,281,NW,UN,50,porlex,MELATY,z,,,,,,-0.450766754,-0.324462891,1,0,0,,0,126,126,460,1,
,,,,,,,,,,,,,,,,,,5d78986d4531b9001508752d,2020-08-10_17h46.52.982,lexical_decision_task_MP,2020.1.3,Linux armv8l,60,,0,0.482935588,-0.303710938,1,0,0,0.5467,button_right,0.5467,1,,,,,,137,WORD,"ID",50,finger,FINGER,m,,,,,,0.482935588,-0.303710938,1,0,0,,0,127,127,76,1,
,,,,,,,,,,,,,,,,,,5d78986d4531b9001508752d,2020-08-10_17h46.52.982,lexical_decision_task_MP,2020.1.3,Linux armv8l,60,,0,0.505179511,-0.287109375,1,0,0,0.7661,button_right,0.7661,1,,,,,,111,WORD,"ID",33,induce,INDUCE,m,,,,,,0.505179511,-0.287109375,1,0,0,,0,128,128,50,1,
,,,,,,,,,,,,,,,,,,5d78986d4531b9001508752d,2020-08-10_17h46.52.982,lexical_decision_task_MP,2020.1.3,Linux armv8l,60,,0,-0.448054081,-0.33203125,1,0,0,0.5957,button_left,0.5957,1,,,,,,321,NW,"ID",33,miator,MIATOR,z,,,,,,-0.448054081,-0.33203125,1,0,0,,0,129,129,260,1,
,,,,,,,,,,,,,,,,,,5d78986d4531b9001508752d,2020-08-10_17h46.52.982,lexical_decision_task_MP,2020.1.3,Linux armv8l,60,,0,0.505179511,-0.294433594,1,0,0,0.6142,button_right,0.6142,1,,,,,,240,WORD,UN,33,seldom,FOREST,m,,,,,,0.505179511,-0.294433594,1,0,0,,0,130,130,179,1,
,,,,,,,,,,,,,,,,,,5d78986d4531b9001508752d,2020-08-10_17h46.52.982,lexical_decision_task_MP,2020.1.3,Linux armv8l,60,,0,0.513317532,-0.293945313,1,0,0,0.5334,button_right,0.5334,1,,,,,,107,WORD,"ID",33,slogan,SLOGAN,m,,,,,,0.513317532,-0.293945313,1,0,0,,0,131,131,46,1,
,,,,,,,,,,,,,,,,,,5d78986d4531b9001508752d,2020-08-10_17h46.52.982,lexical_decision_task_MP,2020.1.3,Linux armv8l,60,,0,-0.466500261,-0.315185547,1,0,0,0.846,button_left,0.846,1,,,,,,341,NW,"ID",33,myrtie,MYRTIE,z,,,,,,-0.466500261,-0.315185547,1,0,0,,0,132,132,280,1,
,,,,,,,,,,,,,,,,,,5d78986d4531b9001508752d,2020-08-10_17h46.52.982,lexical_decision_task_MP,2020.1.3,Linux armv8l,60,,0,-0.509903039,-0.287109375,1,0,0,0.7347,button_left,0.7347,1,,,,,,454,NW,UN,33,tondle,SCOUGE,z,,,,,,-0.509903039,-0.287109375,1,0,0,,0,133,133,393,1,
,,,,,,,,,,,,,,,,,,5d78986d4531b9001508752d,2020-08-10_17h46.52.982,lexical_decision_task_MP,2020.1.3,Linux armv8l,60,,0,0.497584025,-0.290283203,1,0,0,0.5973,button_right,0.5973,1,,,,,,193,WORD,UN,33,mildew,OBJECT,m,,,,,,0.497584025,-0.290283203,1,0,0,,0,134,134,132,1,
,,,,,,,,,,,,,,,,,,5d78986d4531b9001508752d,2020-08-10_17h46.52.982,lexical_decision_task_MP,2020.1.3,Linux armv8l,60,,0,-0.482233768,-0.308837891,1,0,0,0.7799,button_left,0.7799,1,,,,,,424,NW,UN,33,frudge,PRAILE,z,,,,,,-0.482233768,-0.308837891,1,0,0,,0,135,135,363,1,
,,,,,,,,,,,,,,,,,,5d78986d4531b9001508752d,2020-08-10_17h46.52.982,lexical_decision_task_MP,2020.1.3,Linux armv8l,60,,0,-0.49742474,-0.315429688,1,0,0,0.6951,button_left,0.6951,0,,,,,,113,WORD,"ID",33,chorus,CHORUS,m,,,,,,-0.49742474,-0.315429688,1,0,0,,0,136,136,52,1,
,,,,,,,,,,,,,,,,,,5d78986d4531b9001508752d,2020-08-10_17h46.52.982,lexical_decision_task_MP,2020.1.3,Linux armv8l,60,,0,-0.502307553,-0.299804688,1,0,0,0.9165,button_left,0.9165,1,,,,,,468,NW,UN,33,padifs,WICTOR,z,,,,,,-0.502307553,-0.299804688,1,0,0,,0,137,137,407,1,
,,,,,,,,,,,,,,,,,,5d78986d4531b9001508752d,2020-08-10_17h46.52.982,lexical_decision_task_MP,2020.1.3,Linux armv8l,60,,0,-0.491456858,-0.3125,1,0,0,0.4803,button_left,0.4803,1,,,,,,470,NW,UN,33,nobest,CRUDIO,z,,,,,,-0.491456858,-0.3125,1,0,0,,0,138,138,409,1,
,,,,,,,,,,,,,,,,,,5d78986d4531b9001508752d,2020-08-10_17h46.52.982,lexical_decision_task_MP,2020.1.3,Linux armv8l,60,,0,-0.493626997,-0.308105469,1,0,0,0.5313,button_left,0.5313,1,,,,,,267,NW,UN,50,packes,PASINK,z,,,,,,-0.493626997,-0.308105469,1,0,0,,0,139,139,446,1,
,,,,,,,,,,,,,,,,,,5d78986d4531b9001508752d,2020-08-10_17h46.52.982,lexical_decision_task_MP,2020.1.3,Linux armv8l,60,,0,0.47859531,-0.281982422,1,0,0,0.7588,button_right,0.7588,1,,,,,,144,WORD,"ID",50,sponge,SPONGE,m,,,,,,0.47859531,-0.281982422,1,0,0,,0,140,140,83,1,
,,,,,,,,,,,,,,,,,,5d78986d4531b9001508752d,2020-08-10_17h46.52.982,lexical_decision_task_MP,2020.1.3,Linux armv8l,60,,0,-0.465957726,-0.310791016,1,0,0,0.6446,button_left,0.6446,1,,,,,,453,NW,UN,33,scouge,BOLVIS,z,,,,,,-0.465957726,-0.310791016,1,0,0,,0,141,141,392,1,
,,,,,,,,,,,,,,,,,,5d78986d4531b9001508752d,2020-08-10_17h46.52.982,lexical_decision_task_MP,2020.1.3,Linux armv8l,60,,0,-0.497967275,-0.288330078,1,0,0,0.6969,button_left,0.6969,0,,,,,,61,WORD,"ID",33,ponder,PONDER,m,,,,,,-0.497967275,-0.288330078,1,0,0,,0,142,142,0,1,
,,,,,,,,,,,,,,,,,,5d78986d4531b9001508752d,2020-08-10_17h46.52.982,lexical_decision_task_MP,2020.1.3,Linux armv8l,60,,0,0.479680379,-0.286865234,1,0,0,0.4976,button_right,0.4976,1,,,,,,88,WORD,"ID",33,hunger,HUNGER,m,,,,,,0.479680379,-0.286865234,1,0,0,,0,143,143,27,1,
,,,,,,,,,,,,,,,,,,5d78986d4531b9001508752d,2020-08-10_17h46.52.982,lexical_decision_task_MP,2020.1.3,Linux armv8l,60,,0,0.443873088,-0.273193359,1,0,0,0.6319,button_right,0.6319,1,,,,,,190,WORD,UN,33,stable,BACKUP,m,,,,,,0.443873088,-0.273193359,1,0,0,,0,144,144,129,1,
,,,,,,,,,,,,,,,,,,5d78986d4531b9001508752d,2020-08-10_17h46.52.982,lexical_decision_task_MP,2020.1.3,Linux armv8l,60,,0,-0.481148699,-0.302978516,1,0,0,0.6151,button_left,0.6151,1,,,,,,398,NW,"ID",50,blunde,BLUNDE,z,,,,,,-0.481148699,-0.302978516,1,0,0,,0,145,145,337,1,
,,,,,,,,,,,,,,,,,,5d78986d4531b9001508752d,2020-08-10_17h46.52.982,lexical_decision_task_MP,2020.1.3,Linux armv8l,60,,0,0.484020657,-0.294921875,1,0,0,0.9631,button_right,0.9631,1,,,,,,117,WORD,"ID",33,branch,BRANCH,m,,,,,,0.484020657,-0.294921875,1,0,0,,0,146,146,56,1,
,,,,,,,,,,,,,,,,,,5d78986d4531b9001508752d,2020-08-10_17h46.52.982,lexical_decision_task_MP,2020.1.3,Linux armv8l,60,,0,0.490531074,-0.309814453,1,0,0,0.6473,button_right,0.6473,1,,,,,,200,WORD,UN,33,admire,BEACON,m,,,,,,0.490531074,-0.309814453,1,0,0,,0,147,147,139,1,
,,,,,,,,,,,,,,,,,,5d78986d4531b9001508752d,2020-08-10_17h46.52.982,lexical_decision_task_MP,2020.1.3,Linux armv8l,60,,0,0.479137845,-0.287841797,1,0,0,0.6144,button_right,0.6144,1,,,,,,186,WORD,UN,33,course,PORTAL,m,,,,,,0.479137845,-0.287841797,1,0,0,,0,148,148,125,1,
,,,,,,,,,,,,,,,,,,5d78986d4531b9001508752d,2020-08-10_17h46.52.982,lexical_decision_task_MP,2020.1.3,Linux armv8l,60,,0,0.47859531,-0.293945313,1,0,0,0.663,button_right,0.663,1,,,,,,116,WORD,"ID",33,tumble,TUMBLE,m,,,,,,0.47859531,-0.293945313,1,0,0,,0,149,149,55,1,
,,,,,,,,,,,,,,,,,,5d78986d4531b9001508752d,2020-08-10_17h46.52.982,lexical_decision_task_MP,2020.1.3,Linux armv8l,60,,0,0.4878184,-0.296630859,1,0,0,0.8154,button_right,0.8154,1,,,,,,112,WORD,"ID",33,breath,BREATH,m,,,,,,0.4878184,-0.296630859,1,0,0,,0,150,150,51,1,
,,,,,,,,,,,,,,,,,,5d78986d4531b9001508752d,2020-08-10_17h46.52.982,lexical_decision_task_MP,2020.1.3,Linux armv8l,60,,0,0.485105726,-0.286376953,1,0,0,0.8296,button_right,0.8296,1,,,,,,78,WORD,"ID",33,column,COLUMN,m,,,,,,0.485105726,-0.286376953,1,0,0,,0,151,151,17,1,
,,,,,,,,,,,,,,,,,,5d78986d4531b9001508752d,2020-08-10_17h46.52.982,lexical_decision_task_MP,2020.1.3,Linux armv8l,60,,0,0.437905206,-0.267822266,1,0,0,0.5853,button_right,0.5853,1,,,,,,60,WORD,UN,50,fright,PENCIL,m,,,,,,0.437905206,-0.267822266,1,0,0,,0,152,152,239,1,
,,,,,,,,,,,,,,,,,,5d78986d4531b9001508752d,2020-08-10_17h46.52.982,lexical_decision_task_MP,2020.1.3,Linux armv8l,60,,0,-0.477350956,-0.312011719,1,0,0,0.5983,button_left,0.5983,1,,,,,,311,NW,"ID",33,sproly,SPROLY,z,,,,,,-0.477350956,-0.312011719,1,0,0,,0,153,153,250,1,
,,,,,,,,,,,,,,,,,,5d78986d4531b9001508752d,2020-08-10_17h46.52.982,lexical_decision_task_MP,2020.1.3,Linux armv8l,60,,0,-0.484403907,-0.305175781,1,0,0,0.5978,button_left,0.5978,1,,,,,,462,NW,UN,33,kispel,ABSULT,z,,,,,,-0.484403907,-0.305175781,1,0,0,,0,154,154,401,1,
,,,,,,,,,,,,,,,,,,5d78986d4531b9001508752d,2020-08-10_17h46.52.982,lexical_decision_task_MP,2020.1.3,Linux armv8l,60,,0,-0.492541928,-0.296875,1,0,0,0.5807,button_left,0.5807,1,,,,,,242,NW,UN,50,musied,UNWERT,z,,,,,,-0.492541928,-0.296875,1,0,0,,0,155,155,421,1,
,,,,,,,,,,,,,,,,,,5d78986d4531b9001508752d,2020-08-10_17h46.52.982,lexical_decision_task_MP,2020.1.3,Linux armv8l,60,,0,-0.496882206,-0.302978516,1,0,0,0.4815,button_left,0.4815,1,,,,,,445,NW,UN,33,runamo,MINKEL,z,,,,,,-0.496882206,-0.302978516,1,0,0,,0,156,156,384,1,
,,,,,,,,,,,,,,,,,,5d78986d4531b9001508752d,2020-08-10_17h46.52.982,lexical_decision_task_MP,2020.1.3,Linux armv8l,60,,0,0.459606595,-0.286865234,1,0,0,0.6632,button_right,0.6632,1,,,,,,135,WORD,"ID",50,import,IMPORT,m,,,,,,0.459606595,-0.286865234,1,0,0,,0,157,157,74,1,
,,,,,,,,,,,,,,,,,,5d78986d4531b9001508752d,2020-08-10_17h46.52.982,lexical_decision_task_MP,2020.1.3,Linux armv8l,60,,0,0.470999824,-0.285644531,1,0,0,0.4982,button_right,0.4982,1,,,,,,70,WORD,"ID",33,square,SQUARE,m,,,,,,0.470999824,-0.285644531,1,0,0,,0,158,158,9,1,
,,,,,,,,,,,,,,,,,,5d78986d4531b9001508752d,2020-08-10_17h46.52.982,lexical_decision_task_MP,2020.1.3,Linux armv8l,60,,0,0.45906406,-0.292236328,1,0,0,0.8798,button_right,0.8798,1,,,,,,109,WORD,"ID",33,wonder,WONDER,m,,,,,,0.45906406,-0.292236328,1,0,0,,0,159,159,48,1,
,,,,,,,,,,,,,,,,,,5d78986d4531b9001508752d,2020-08-10_17h46.52.982,lexical_decision_task_MP,2020.1.3,Linux armv8l,60,,0,0.473169963,-0.286865234,1,0,0,1.0122,button_right,1.0122,1,,,,,,208,WORD,UN,33,search,HOCKEY,m,,,,,,0.473169963,-0.286865234,1,0,0,,0,160,160,147,1,
,,,,,,,,,,,,,,,,,,5d78986d4531b9001508752d,2020-08-10_17h46.52.982,lexical_decision_task_MP,2020.1.3,Linux armv8l,60,,0,0.485105726,-0.297119141,1,0,0,0.5635,button_right,0.5635,1,,,,,,106,WORD,"ID",33,ransom,RANSOM,m,,,,,,0.485105726,-0.297119141,1,0,0,,0,161,161,45,1,
,,,,,,,,,,,,,,,,,,5d78986d4531b9001508752d,2020-08-10_17h46.52.982,lexical_decision_task_MP,2020.1.3,Linux armv8l,60,,0,0.482393053,-0.286376953,1,0,0,0.6123,button_right,0.6123,1,,,,,,147,WORD,"ID",50,garlic,GARLIC,m,,,,,,0.482393053,-0.286376953,1,0,0,,0,162,162,86,1,
,,,,,,,,,,,,,,,,,,5d78986d4531b9001508752d,2020-08-10_17h46.52.982,lexical_decision_task_MP,2020.1.3,Linux armv8l,60,,0,-0.489286719,-0.303710938,1,0,0,0.6966,button_left,0.6966,1,,,,,,247,NW,UN,50,strole,BLARGE,z,,,,,,-0.489286719,-0.303710938,1,0,0,,0,163,163,426,1,
,,,,,,,,,,,,,,,,,,5d78986d4531b9001508752d,2020-08-10_17h46.52.982,lexical_decision_task_MP,2020.1.3,Linux armv8l,60,,0,0.452011108,-0.296875,1,0,0,0.631,button_right,0.631,1,,,,,,201,WORD,UN,33,factor,ADMIRE,m,,,,,,0.452011108,-0.296875,1,0,0,,0,164,164,140,1,
,,,,,,,,,,,,,,,,,,5d78986d4531b9001508752d,2020-08-10_17h46.52.982,lexical_decision_task_MP,2020.1.3,Linux armv8l,60,,0,0.468829685,-0.28125,1,0,0,0.5974,button_right,0.5974,1,,,,,,149,WORD,"ID",50,invade,INVADE,m,,,,,,0.468829685,-0.28125,1,0,0,,0,165,165,88,1,
,,,,,,,,,,,,,,,,,,5d78986d4531b9001508752d,2020-08-10_17h46.52.982,lexical_decision_task_MP,2020.1.3,Linux armv8l,60,,0,0.481850518,-0.291259766,1,0,0,0.5466,button_right,0.5466,1,,,,,,203,WORD,UN,33,burden,PHRASE,m,,,,,,0.481850518,-0.291259766,1,0,0,,0,166,166,142,1,
,,,,,,,,,,,,,,,,,,5d78986d4531b9001508752d,2020-08-10_17h46.52.982,lexical_decision_task_MP,2020.1.3,Linux armv8l,60,,0,0.482393053,-0.291503906,1,0,0,0.7627,button_right,0.7627,1,,,,,,45,WORD,UN,50,single,CLERGY,m,,,,,,0.482393053,-0.291503906,1,0,0,,0,167,167,224,1,
,,,,,,,,,,,,,,,,,,5d78986d4531b9001508752d,2020-08-10_17h46.52.982,lexical_decision_task_MP,2020.1.3,Linux armv8l,60,,0,-0.474095747,-0.312988281,1,0,0,0.6468,button_left,0.6468,1,,,,,,430,NW,UN,33,chrums,CAROEY,z,,,,,,-0.474095747,-0.312988281,1,0,0,,0,168,168,369,1,
,,,,,,,,,,,,,,,,,,5d78986d4531b9001508752d,2020-08-10_17h46.52.982,lexical_decision_task_MP,2020.1.3,Linux armv8l,60,,0,0.465574476,-0.283691406,1,0,0,0.7795,button_right,0.7795,1,,,,,,195,WORD,UN,33,credit,RESIGN,m,,,,,,0.465574476,-0.283691406,1,0,0,,0,169,169,134,1,
,,,,,,,,,,,,,,,,,,5d78986d4531b9001508752d,2020-08-10_17h46.52.982,lexical_decision_task_MP,2020.1.3,Linux armv8l,60,,0,0.485648261,-0.286865234,1,0,0,1.3614,button_right,1.3614,1,,,,,,32,WORD,UN,50,scream,BUCKLE,m,,,,,,0.485648261,-0.286865234,1,0,0,,0,170,170,211,1,
,,,,,,,,,,,,,,,,,,5d78986d4531b9001508752d,2020-08-10_17h46.52.982,lexical_decision_task_MP,2020.1.3,Linux armv8l,60,,0,-0.507190365,-0.289794922,1,0,0,0.746,button_left,0.746,1,,,,,,477,NW,UN,33,lobush,PHOTIE,z,,,,,,-0.507190365,-0.289794922,1,0,0,,0,171,171,416,1,
,,,,,,,,,,,,,,,,,,5d78986d4531b9001508752d,2020-08-10_17h46.52.982,lexical_decision_task_MP,2020.1.3,Linux armv8l,60,,0,0.470999824,-0.288330078,1,0,0,0.6804,button_right,0.6804,1,,,,,,10,WORD,UN,50,cruise,ETHNIC,m,,,,,,0.470999824,-0.288330078,1,0,0,,0,172,172,189,1,
,,,,,,,,,,,,,,,,,,5d78986d4531b9001508752d,2020-08-10_17h46.52.982,lexical_decision_task_MP,2020.1.3,Linux armv8l,60,,0,0.492701213,-0.279785156,1,0,0,0.7809,button_right,0.7809,1,,,,,,39,WORD,UN,50,convey,INSECT,m,,,,,,0.492701213,-0.279785156,1,0,0,,0,173,173,218,1,
,,,,,,,,,,,,,,,,,,5d78986d4531b9001508752d,2020-08-10_17h46.52.982,lexical_decision_task_MP,2020.1.3,Linux armv8l,60,,0,0.493243747,-0.295410156,1,0,0,0.5978,button_right,0.5978,1,,,,,,220,WORD,UN,33,mascot,VOYAGE,m,,,,,,0.493243747,-0.295410156,1,0,0,,0,174,174,159,1,
,,,,,,,,,,,,,,,,,,5d78986d4531b9001508752d,2020-08-10_17h46.52.982,lexical_decision_task_MP,2020.1.3,Linux armv8l,60,,0,0.485648261,-0.290771484,1,0,0,0.5971,button_right,0.5971,1,,,,,,4,WORD,UN,50,plunge,TRENCH,m,,,,,,0.485648261,-0.290771484,1,0,0,,0,175,175,183,1,
,,,,,,,,,,,,,,,,,,5d78986d4531b9001508752d,2020-08-10_17h46.52.982,lexical_decision_task_MP,2020.1.3,Linux armv8l,60,,0,0.478052775,-0.290039063,1,0,0,0.479,button_right,0.479,1,,,,,,211,WORD,UN,33,verify,INFECT,m,,,,,,0.478052775,-0.290039063,1,0,0,,0,176,176,150,1,
,,,,,,,,,,,,,,,,,,5d78986d4531b9001508752d,2020-08-10_17h46.52.982,lexical_decision_task_MP,2020.1.3,Linux armv8l,60,,0,-0.494712067,-0.288330078,1,0,0,0.6309,button_left,0.6309,1,,,,,,394,NW,"ID",50,spaqux,SPAQUX,z,,,,,,-0.494712067,-0.288330078,1,0,0,,0,177,177,333,1,
,,,,,,,,,,,,,,,,,,5d78986d4531b9001508752d,2020-08-10_17h46.52.982,lexical_decision_task_MP,2020.1.3,Linux armv8l,60,,0,0.475882636,-0.287841797,1,0,0,0.5968,button_right,0.5968,1,,,,,,132,WORD,"ID",50,strong,STRONG,m,,,,,,0.475882636,-0.287841797,1,0,0,,0,178,178,71,1,
,,,,,,,,,,,,,,,,,,5d78986d4531b9001508752d,2020-08-10_17h46.52.982,lexical_decision_task_MP,2020.1.3,Linux armv8l,60,,0,0.4878184,-0.288574219,1,0,0,0.431,button_right,0.431,1,,,,,,178,WORD,"ID",50,inform,INFORM,m,,,,,,0.4878184,-0.288574219,1,0,0,,0,179,179,117,1,
,,,,,,,,,,,,,,,,,,5d78986d4531b9001508752d,2020-08-10_17h46.52.982,lexical_decision_task_MP,2020.1.3,Linux armv8l,60,,0,-0.489829254,-0.298583984,1,0,0,0.8636,button_left,0.8636,1,,,,,,400,NW,"ID",50,wearox,WEAROX,z,,,,,,-0.489829254,-0.298583984,1,0,0,,0,180,180,339,1,
,,,,,,,,,,,,,,,,,,5d78986d4531b9001508752d,2020-08-10_17h46.52.982,lexical_decision_task_MP,2020.1.3,Linux armv8l,60,,0,0.461234199,-0.262451172,1,0,0,0.5674,button_right,0.5674,1,,,,,,119,WORD,"ID",33,spider,SPIDER,m,,,,,,0.461234199,-0.262451172,1,0,0,,0,181,181,58,1,
,,,,,,,,,,,,,,,,,,5d78986d4531b9001508752d,2020-08-10_17h46.52.982,lexical_decision_task_MP,2020.1.3,Linux armv8l,60,,0,-0.459989844,-0.297363281,1,0,0,0.5979,button_left,0.5979,1,,,,,,349,NW,"ID",33,asylen,ASYLEN,z,,,,,,-0.459989844,-0.297363281,1,0,0,,0,182,182,288,1,
,,,,,,,,,,,,,,,,,,5d78986d4531b9001508752d,2020-08-10_17h46.52.982,lexical_decision_task_MP,2020.1.3,Linux armv8l,60,,0,0.497584025,-0.304931641,1,0,0,0.5472,button_right,0.5472,1,,,,,,40,WORD,UN,50,spring,CONVEY,m,,,,,,0.497584025,-0.304931641,1,0,0,,0,183,183,219,1,
,,,,,,,,,,,,,,,,,,5d78986d4531b9001508752d,2020-08-10_17h46.52.982,lexical_decision_task_MP,2020.1.3,Linux armv8l,60,,0,-0.491456858,-0.29296875,1,0,0,0.7306,button_left,0.7306,1,,,,,,332,NW,"ID",33,vangue,VANGUE,z,,,,,,-0.491456858,-0.29296875,1,0,0,,0,184,184,271,1,
,,,,,,,,,,,,,,,,,,5d78986d4531b9001508752d,2020-08-10_17h46.52.982,lexical_decision_task_MP,2020.1.3,Linux armv8l,60,,0,0.466659546,-0.291992188,1,0,0,0.4814,button_right,0.4814,1,,,,,,42,WORD,UN,50,tongue,CHAPEL,m,,,,,,0.466659546,-0.291992188,1,0,0,,0,185,185,221,1,
,,,,,,,,,,,,,,,,,,5d78986d4531b9001508752d,2020-08-10_17h46.52.982,lexical_decision_task_MP,2020.1.3,Linux armv8l,60,,0,0.494871351,-0.293457031,1,0,0,0.5469,button_right,0.5469,0,,,,,,433,NW,UN,33,pitrom,DRANCE,z,,,,,,0.494871351,-0.293457031,1,0,0,,0,186,186,372,1,
,,,,,,,,,,,,,,,,,,5d78986d4531b9001508752d,2020-08-10_17h46.52.982,lexical_decision_task_MP,2020.1.3,Linux armv8l,60,,0,-0.513158247,-0.305664063,1,0,0,0.6303,button_left,0.6303,1,,,,,,249,NW,UN,50,milted,BATROL,z,,,,,,-0.513158247,-0.305664063,1,0,0,,0,187,187,428,1,
,,,,,,,,,,,,,,,,,,5d78986d4531b9001508752d,2020-08-10_17h46.52.982,lexical_decision_task_MP,2020.1.3,Linux armv8l,60,,0,0.495956421,-0.292724609,1,0,0,0.696,button_right,0.696,1,,,,,,85,WORD,"ID",33,sprawl,SPRAWL,m,,,,,,0.495956421,-0.292724609,1,0,0,,0,188,188,24,1,
,,,,,,,,,,,,,,,,,,5d78986d4531b9001508752d,2020-08-10_17h46.52.982,lexical_decision_task_MP,2020.1.3,Linux armv8l,60,,0,0.509519789,-0.296875,1,0,0,0.4645,button_right,0.4645,1,,,,,,52,WORD,UN,50,police,IMPOSE,m,,,,,,0.509519789,-0.296875,1,0,0,,0,189,189,231,1,
,,,,,,,,,,,,,,,,,,5d78986d4531b9001508752d,2020-08-10_17h46.52.982,lexical_decision_task_MP,2020.1.3,Linux armv8l,60,,0,-0.535402171,-0.292480469,1,0,0,0.6803,button_left,0.6803,1,,,,,,337,NW,"ID",33,rejols,REJOLS,z,,,,,,-0.535402171,-0.292480469,1,0,0,,0,190,190,276,1,
,,,,,,,,,,,,,,,,,,5d78986d4531b9001508752d,2020-08-10_17h46.52.982,lexical_decision_task_MP,2020.1.3,Linux armv8l,60,,0,0.510604858,-0.293945313,1,0,0,0.5638,button_right,0.5638,1,,,,,,204,WORD,UN,33,lounge,BURDEN,m,,,,,,0.510604858,-0.293945313,1,0,0,,0,191,191,143,1,
,,,,,,,,,,,,,,,,,,5d78986d4531b9001508752d,2020-08-10_17h46.52.982,lexical_decision_task_MP,2020.1.3,Linux armv8l,60,,0,0.513317532,-0.293945313,1,0,0,0.5638,button_right,0.5638,1,,,,,,239,WORD,UN,33,forest,LUMBER,m,,,,,,0.513317532,-0.293945313,1,0,0,,0,192,192,178,1,
,,,,,,,,,,,,,,,,,,5d78986d4531b9001508752d,2020-08-10_17h46.52.982,lexical_decision_task_MP,2020.1.3,Linux armv8l,60,,0,-0.515870921,-0.320800781,1,0,0,0.8803,button_left,0.8803,1,,,,,,353,NW,"ID",33,clurey,CLUREY,z,,,,,,-0.515870921,-0.320800781,1,0,0,,0,193,193,292,1,
,,,,,,,,,,,,,,,,,,5d78986d4531b9001508752d,2020-08-10_17h46.52.982,lexical_decision_task_MP,2020.1.3,Linux armv8l,60,,0,0.492158678,-0.294433594,1,0,0,0.663,button_right,0.663,1,,,,,,25,WORD,UN,50,sprint,DOMAIN,m,,,,,,0.492158678,-0.294433594,1,0,0,,0,194,194,204,1,
,,,,,,,,,,,,,,,,,,5d78986d4531b9001508752d,2020-08-10_17h46.52.982,lexical_decision_task_MP,2020.1.3,Linux armv8l,60,,0,0.512232463,-0.292724609,1,0,0,0.4813,button_right,0.4813,1,,,,,,189,WORD,UN,33,backup,CENSOR,m,,,,,,0.512232463,-0.292724609,1,0,0,,0,195,195,128,1,
,,,,,,,,,,,,,,,,,,5d78986d4531b9001508752d,2020-08-10_17h46.52.982,lexical_decision_task_MP,2020.1.3,Linux armv8l,60,,0,0.525795831,-0.288574219,1,0,0,1.0721,button_right,1.0721,1,,,,,,199,WORD,UN,33,plague,INVOKE,m,,,,,,0.525795831,-0.288574219,1,0,0,,0,196,196,138,1,
,,,,,,,,,,,,,,,,,,5d78986d4531b9001508752d,2020-08-10_17h46.52.982,lexical_decision_task_MP,2020.1.3,Linux armv8l,60,,0,0.520370483,-0.287597656,1,0,0,0.5812,button_right,0.5812,1,,,,,,108,WORD,"ID",33,reckon,RECKON,m,,,,,,0.520370483,-0.287597656,1,0,0,,0,197,197,47,1,
,,,,,,,,,,,,,,,,,,5d78986d4531b9001508752d,2020-08-10_17h46.52.982,lexical_decision_task_MP,2020.1.3,Linux armv8l,60,,0,-0.525636546,-0.302001953,1,0,0,0.5969,button_left,0.5969,1,,,,,,405,NW,"ID",50,flumni,FLUMNI,z,,,,,,-0.525636546,-0.302001953,1,0,0,,0,198,198,344,1,
,,,,,,,,,,,,,,,,,,5d78986d4531b9001508752d,2020-08-10_17h46.52.982,lexical_decision_task_MP,2020.1.3,Linux armv8l,60,,0,-0.524008942,-0.307128906,1,0,0,0.9959,button_left,0.9959,1,,,,,,293,NW,UN,50,inhort,SWANCE,z,,,,,,-0.524008942,-0.307128906,1,0,0,,0,199,199,472,1,
,,,,,,,,,,,,,,,,,,5d78986d4531b9001508752d,2020-08-10_17h46.52.982,lexical_decision_task_MP,2020.1.3,Linux armv8l,60,,0,0.500839233,-0.281494141,1,0,0,0.5979,button_right,0.5979,1,,,,,,214,WORD,UN,33,phobia,INTAKE,m,,,,,,0.500839233,-0.281494141,1,0,0,,0,200,200,153,1,
,,,,,,,,,,,,,,,,,,5d78986d4531b9001508752d,2020-08-10_17h46.52.982,lexical_decision_task_MP,2020.1.3,Linux armv8l,60,,0,-0.514243317,-0.308105469,1,0,0,0.6458,button_left,0.6458,1,,,,,,396,NW,"ID",50,flengy,FLENGY,z,,,,,,-0.514243317,-0.308105469,1,0,0,,0,201,201,335,1,
,,,,,,,,,,,,,,,,,,5d78986d4531b9001508752d,2020-08-10_17h46.52.982,lexical_decision_task_MP,2020.1.3,Linux armv8l,60,,0,-0.502850087,-0.313720703,1,0,0,0.73,button_left,0.73,1,,,,,,297,NW,UN,50,piergy,FERTIC,z,,,,,,-0.502850087,-0.313720703,1,0,0,,0,202,202,476,1,
,,,,,,,,,,,,,,,,,,5d78986d4531b9001508752d,2020-08-10_17h46.52.982,lexical_decision_task_MP,2020.1.3,Linux armv8l,60,,0,0.509519789,-0.284423828,1,0,0,0.5495,button_right,0.5495,1,,,,,,64,WORD,"ID",33,throne,THRONE,m,,,,,,0.509519789,-0.284423828,1,0,0,,0,203,203,3,1,
,,,,,,,,,,,,,,,,,,5d78986d4531b9001508752d,2020-08-10_17h46.52.982,lexical_decision_task_MP,2020.1.3,Linux armv8l,60,,0,0.49704149,-0.277587891,1,0,0,0.4811,button_right,0.4811,1,,,,,,71,WORD,"ID",33,garden,GARDEN,m,,,,,,0.49704149,-0.277587891,1,0,0,,0,204,204,10,1,
,,,,,,,,,,,,,,,,,,5d78986d4531b9001508752d,2020-08-10_17h46.52.982,lexical_decision_task_MP,2020.1.3,Linux armv8l,60,,0,-0.509360504,-0.30859375,1,0,0,0.6479,button_left,0.6479,1,,,,,,447,NW,UN,33,sadent,GIRCUE,z,,,,,,-0.509360504,-0.30859375,1,0,0,,0,205,205,386,1,
,,,,,,,,,,,,,,,,,,5d78986d4531b9001508752d,2020-08-10_17h46.52.982,lexical_decision_task_MP,2020.1.3,Linux armv8l,60,,0,0.504094442,-0.281982422,1,0,0,0.9125,button_right,0.9125,1,,,,,,35,WORD,UN,50,vanish,SOCKET,m,,,,,,0.504094442,-0.281982422,1,0,0,,0,206,206,214,1,
,,,,,,,,,,,,,,,,,,5d78986d4531b9001508752d,2020-08-10_17h46.52.982,lexical_decision_task_MP,2020.1.3,Linux armv8l,60,,0,-0.505562761,-0.306152344,1,0,0,0.6296,button_left,0.6296,1,,,,,,420,NW,"ID",50,gushop,GUSHOP,z,,,,,,-0.505562761,-0.306152344,1,0,0,,0,207,207,359,1,
,,,,,,,,,,,,,,,,,,5d78986d4531b9001508752d,2020-08-10_17h46.52.982,lexical_decision_task_MP,2020.1.3,Linux armv8l,60,,0,0.506807115,-0.275878906,1,0,0,0.4973,button_right,0.4973,1,,,,,,123,WORD,"ID",50,strike,STRIKE,m,,,,,,0.506807115,-0.275878906,1,0,0,,0,208,208,62,1,
,,,,,,,,,,,,,,,,,,5d78986d4531b9001508752d,2020-08-10_17h46.52.982,lexical_decision_task_MP,2020.1.3,Linux armv8l,60,,0,-0.426895226,-0.269287109,1,0,0,0.6461,button_left,0.6461,1,,,,,,373,NW,"ID",50,bigent,BIGENT,z,,,,,,-0.426895226,-0.269287109,1,0,0,,0,209,209,312,1,
,,,,,,,,,,,,,,,,,,5d78986d4531b9001508752d,2020-08-10_17h46.52.982,lexical_decision_task_MP,2020.1.3,Linux armv8l,60,,0,0.478052775,-0.266113281,1,0,0,0.5149,button_right,0.5149,1,,,,,,47,WORD,UN,50,walnut,INCOME,m,,,,,,0.478052775,-0.266113281,1,0,0,,0,210,210,226,1,
,,,,,,,,,,,,,,,,,,5d78986d4531b9001508752d,2020-08-10_17h46.52.982,lexical_decision_task_MP,2020.1.3,Linux armv8l,60,,0,0.497584025,-0.292236328,1,0,0,0.5476,button_right,0.5476,1,,,,,,49,WORD,UN,50,snatch,SURVEY,m,,,,,,0.497584025,-0.292236328,1,0,0,,0,211,211,228,1,
,,,,,,,,,,,,,,,,,,5d78986d4531b9001508752d,2020-08-10_17h46.52.982,lexical_decision_task_MP,2020.1.3,Linux armv8l,60,,0,0.496498956,-0.28125,1,0,0,0.4644,button_right,0.4644,0,,,,,,268,NW,UN,50,orchet,PACKES,z,,,,,,0.496498956,-0.28125,1,0,0,,0,212,212,447,1,
,,,,,,,,,,,,,,,,,,5d78986d4531b9001508752d,2020-08-10_17h46.52.982,lexical_decision_task_MP,2020.1.3,Linux armv8l,60,,0,0.486190796,-0.267333984,1,0,0,0.6947,button_right,0.6947,1,,,,,,234,WORD,UN,33,poster,CLUMSY,m,,,,,,0.486190796,-0.267333984,1,0,0,,0,213,213,173,1,
,,,,,,,,,,,,,,,,,,5d78986d4531b9001508752d,2020-08-10_17h46.52.982,lexical_decision_task_MP,2020.1.3,Linux armv8l,60,,0,-0.474638282,-0.303222656,1,0,0,0.6471,button_left,0.6471,1,,,,,,316,NW,"ID",33,scregm,SCREGM,z,,,,,,-0.474638282,-0.303222656,1,0,0,,0,214,214,255,1,
,,,,,,,,,,,,,,,,,,5d78986d4531b9001508752d,2020-08-10_17h46.52.982,lexical_decision_task_MP,2020.1.3,Linux armv8l,60,,0,0.473712497,-0.266113281,1,0,0,0.6135,button_right,0.6135,1,,,,,,232,WORD,UN,33,nature,INJECT,m,,,,,,0.473712497,-0.266113281,1,0,0,,0,215,215,171,1,
,,,,,,,,,,,,,,,,,,5d78986d4531b9001508752d,2020-08-10_17h46.52.982,lexical_decision_task_MP,2020.1.3,Linux armv8l,60,,0,0.476967706,-0.251708984,1,0,0,0.7217,button_right,0.7217,1,,,,,,221,WORD,UN,33,hinder,MASCOT,m,,,,,,0.476967706,-0.251708984,1,0,0,,0,216,216,160,1,
,,,,,,,,,,,,,,,,,,5d78986d4531b9001508752d,2020-08-10_17h46.52.982,lexical_decision_task_MP,2020.1.3,Linux armv8l,60,,0,0.483478122,-0.274658203,1,0,0,0.4631,button_right,0.4631,1,,,,,,172,WORD,"ID",50,patrol,PATROL,m,,,,,,0.483478122,-0.274658203,1,0,0,,0,217,217,111,1,
,,,,,,,,,,,,,,,,,,5d78986d4531b9001508752d,2020-08-10_17h46.52.982,lexical_decision_task_MP,2020.1.3,Linux armv8l,60,,0,-0.495254601,-0.322753906,1,0,0,0.6796,button_left,0.6796,1,,,,,,463,NW,UN,33,chaite,KISPEL,z,,,,,,-0.495254601,-0.322753906,1,0,0,,0,218,218,402,1,
,,,,,,,,,,,,,,,,,,5d78986d4531b9001508752d,2020-08-10_17h46.52.982,lexical_decision_task_MP,2020.1.3,Linux armv8l,60,,0,-0.508817969,-0.315185547,1,0,0,0.8294,button_left,0.8294,1,,,,,,380,NW,"ID",50,cavory,CAVORY,z,,,,,,-0.508817969,-0.315185547,1,0,0,,0,219,219,319,1,
,,,,,,,,,,,,,,,,,,5d78986d4531b9001508752d,2020-08-10_17h46.52.982,lexical_decision_task_MP,2020.1.3,Linux armv8l,60,,0,-0.489286719,-0.3046875,1,0,0,0.6307,button_left,0.6307,1,,,,,,362,NW,"ID",50,tireau,TIREAU,z,,,,,,-0.489286719,-0.3046875,1,0,0,,0,220,220,301,1,
,,,,,,,,,,,,,,,,,,5d78986d4531b9001508752d,2020-08-10_17h46.52.982,lexical_decision_task_MP,2020.1.3,Linux armv8l,60,,0,0.500839233,-0.292724609,1,0,0,0.6144,button_right,0.6144,1,,,,,,179,WORD,"ID",50,basket,BASKET,m,,,,,,0.500839233,-0.292724609,1,0,0,,0,221,221,118,1,
,,,,,,,,,,,,,,,,,,5d78986d4531b9001508752d,2020-08-10_17h46.52.982,lexical_decision_task_MP,2020.1.3,Linux armv8l,60,,0,0.504636976,-0.278076172,1,0,0,0.5634,button_right,0.5634,1,,,,,,2,WORD,UN,50,knight,BRIDGE,m,,,,,,0.504636976,-0.278076172,1,0,0,,0,222,222,181,1,
,,,,,,,,,,,,,,,,,,5d78986d4531b9001508752d,2020-08-10_17h46.52.982,lexical_decision_task_MP,2020.1.3,Linux armv8l,60,,0,-0.489829254,-0.290527344,1,0,0,0.5963,button_left,0.5963,1,,,,,,378,NW,"ID",50,shrile,SHRILE,z,,,,,,-0.489829254,-0.290527344,1,0,0,,0,223,223,317,1,
,,,,,,,,,,,,,,,,,,5d78986d4531b9001508752d,2020-08-10_17h46.52.982,lexical_decision_task_MP,2020.1.3,Linux armv8l,60,,0,0.49704149,-0.28515625,1,0,0,0.513,button_right,0.513,0,,,,,,272,NW,UN,50,sortel,DAMILT,z,,,,,,0.49704149,-0.28515625,1,0,0,,0,224,224,451,1,
,,,,,,,,,,,,,,,,,,5d78986d4531b9001508752d,2020-08-10_17h46.52.982,lexical_decision_task_MP,2020.1.3,Linux armv8l,60,,0,0.519827949,-0.290039063,1,0,0,0.4794,button_right,0.4794,1,,,,,,101,WORD,"ID",33,wrench,WRENCH,m,,,,,,0.519827949,-0.290039063,1,0,0,,0,225,225,40,1,
,,,,,,,,,,,,,,,,,,5d78986d4531b9001508752d,2020-08-10_17h46.52.982,lexical_decision_task_MP,2020.1.3,Linux armv8l,60,,0,-0.493084462,-0.297607422,1,0,0,0.6309,button_left,0.6309,1,,,,,,426,NW,UN,33,schind,URIVEL,z,,,,,,-0.493084462,-0.297607422,1,0,0,,0,226,226,365,1,
,,,,,,,,,,,,,,,,,,5d78986d4531b9001508752d,2020-08-10_17h46.52.982,lexical_decision_task_MP,2020.1.3,Linux armv8l,60,,0,0.507892185,-0.279296875,1,0,0,0.4756,button_right,0.4756,1,,,,,,31,WORD,UN,50,buckle,WEAPON,m,,,,,,0.507892185,-0.279296875,1,0,0,,0,227,227,210,1,
,,,,,,,,,,,,,,,,,,5d78986d4531b9001508752d,2020-08-10_17h46.52.982,lexical_decision_task_MP,2020.1.3,Linux armv8l,60,,0,-0.504477692,-0.294189453,1,0,0,0.663,button_left,0.663,1,,,,,,258,NW,UN,50,soudal,POLUTH,z,,,,,,-0.504477692,-0.294189453,1,0,0,,0,228,228,437,1,
,,,,,,,,,,,,,,,,,,5d78986d4531b9001508752d,2020-08-10_17h46.52.982,lexical_decision_task_MP,2020.1.3,Linux armv8l,60,,0,0.493243747,-0.281982422,1,0,0,0.5977,button_right,0.5977,1,,,,,,102,WORD,"ID",33,direct,DIRECT,m,,,,,,0.493243747,-0.281982422,1,0,0,,0,229,229,41,1,
,,,,,,,,,,,,,,,,,,5d78986d4531b9001508752d,2020-08-10_17h46.52.982,lexical_decision_task_MP,2020.1.3,Linux armv8l,60,,0,0.491073608,-0.266113281,1,0,0,1.1281,button_right,1.1281,1,,,,,,66,WORD,"ID",33,gospel,GOSPEL,m,,,,,,0.491073608,-0.266113281,1,0,0,,0,230,230,5,1,
,,,,,,,,,,,,,,,,,,5d78986d4531b9001508752d,2020-08-10_17h46.52.982,lexical_decision_task_MP,2020.1.3,Linux armv8l,60,,0,-0.377524567,-0.337402344,1,0,0,1.179,button_left,1.179,1,,,,,,461,NW,UN,33,absult,JUSTRE,z,,,,,,-0.377524567,-0.337402344,1,0,0,,0,231,231,400,1,
,,,,,,,,,,,,,,,,,,5d78986d4531b9001508752d,2020-08-10_17h46.52.982,lexical_decision_task_MP,2020.1.3,Linux armv8l,60,,0,-0.486574046,-0.320556641,1,0,0,0.5675,button_left,0.5675,1,,,,,,296,NW,UN,50,fertic,BEINCH,z,,,,,,-0.486574046,-0.320556641,1,0,0,,0,232,232,475,1,
,,,,,,,,,,,,,,,,,,5d78986d4531b9001508752d,2020-08-10_17h46.52.982,lexical_decision_task_MP,2020.1.3,Linux armv8l,60,,0,0.500296699,-0.288818359,1,0,0,0.5636,button_right,0.5636,1,,,,,,72,WORD,"ID",33,bright,BRIGHT,m,,,,,,0.500296699,-0.288818359,1,0,0,,0,233,233,11,1,
,,,,,,,,,,,,,,,,,,5d78986d4531b9001508752d,2020-08-10_17h46.52.982,lexical_decision_task_MP,2020.1.3,Linux armv8l,60,,0,0.516030206,-0.281738281,1,0,0,0.6293,button_right,0.6293,1,,,,,,22,WORD,UN,50,wealth,JOCKEY,m,,,,,,0.516030206,-0.281738281,1,0,0,,0,234,234,201,1,
,,,,,,,,,,,,,,,,,,5d78986d4531b9001508752d,2020-08-10_17h46.52.982,lexical_decision_task_MP,2020.1.3,Linux armv8l,60,,0,-0.499052344,-0.3203125,1,0,0,0.664,button_left,0.664,1,,,,,,469,NW,UN,33,crudio,PADIFS,z,,,,,,-0.499052344,-0.3203125,1,0,0,,0,235,235,408,1,
,,,,,,,,,,,,,,,,,,5d78986d4531b9001508752d,2020-08-10_17h46.52.982,lexical_decision_task_MP,2020.1.3,Linux armv8l,60,,0,-0.511530643,-0.311279297,1,0,0,0.5138,button_left,0.5138,1,,,,,,244,NW,UN,50,anougs,EATRIC,z,,,,,,-0.511530643,-0.311279297,1,0,0,,0,236,236,423,1,
,,,,,,,,,,,,,,,,,,5d78986d4531b9001508752d,2020-08-10_17h46.52.982,lexical_decision_task_MP,2020.1.3,Linux armv8l,60,,0,-0.502850087,-0.320068359,1,0,0,0.4803,button_left,0.4803,1,,,,,,287,NW,UN,50,yaceup,NYMBEL,z,,,,,,-0.502850087,-0.320068359,1,0,0,,0,237,237,466,1,
,,,,,,,,,,,,,,,,,,5d78986d4531b9001508752d,2020-08-10_17h46.52.982,lexical_decision_task_MP,2020.1.3,Linux armv8l,60,,0,-0.505562761,-0.322021484,1,0,0,0.7651,button_left,0.7651,1,,,,,,397,NW,"ID",50,camble,CAMBLE,z,,,,,,-0.505562761,-0.322021484,1,0,0,,0,238,238,336,1,
,,,,,,,,,,,,,,,,,,5d78986d4531b9001508752d,2020-08-10_17h46.52.982,lexical_decision_task_MP,2020.1.3,Linux armv8l,60,,0,-0.49742474,-0.312744141,1,0,0,0.6124,button_left,0.6124,1,,,,,,369,NW,"ID",50,wronch,WRONCH,z,,,,,,-0.49742474,-0.312744141,1,0,0,,0,239,239,308,1,
,,,,,,,,,,,,,,,,,,5d78986d4531b9001508752d,2020-08-10_17h46.52.982,lexical_decision_task_MP,2020.1.3,Linux armv8l,60,,0,-0.530519358,-0.307617188,1,0,0,0.4676,button_left,0.4676,1,,,,,,403,NW,"ID",50,bruats,BRUATS,z,,,,,,-0.530519358,-0.307617188,1,0,0,,0,240,240,342,1,
,,,,,,,,,,,,,,,,,,5d78986d4531b9001508752d,2020-08-10_17h46.52.982,lexical_decision_task_MP,2020.1.3,Linux armv8l,60,,0,0.514402601,-0.286865234,1,0,0,0.6127,button_right,0.6127,1,,,,,,120,WORD,"ID",33,strain,STRAIN,m,,,,,,-0.080215539,-0.445800781,1,0,0,,0,241,241,59,1,break_done_button
,,,,,,,,,,,,,,,,,,5d78986d4531b9001508752d,2020-08-10_17h46.52.982,lexical_decision_task_MP,2020.1.3,Linux armv8l,60,,0,0.440075345,-0.314208984,1,0,0,0.6473,button_right,0.6473,1,,,,,,223,WORD,UN,33,period,KIDNEY,m,,,,,,0.440075345,-0.314208984,1,0,0,,0,242,242,162,1,
,,,,,,,,,,,,,,,,,,5d78986d4531b9001508752d,2020-08-10_17h46.52.982,lexical_decision_task_MP,2020.1.3,Linux armv8l,60,,0,0.408608331,-0.307617188,1,0,0,0.5135,button_right,0.5135,1,,,,,,235,WORD,UN,33,pirate,GRUMPY,m,,,,,,0.408608331,-0.307617188,1,0,0,,0,243,243,174,1,
,,,,,,,,,,,,,,,,,,5d78986d4531b9001508752d,2020-08-10_17h46.52.982,lexical_decision_task_MP,2020.1.3,Linux armv8l,60,,0,0.384194268,-0.321777344,1,0,0,0.514,button_right,0.514,1,,,,,,154,WORD,"ID",50,author,AUTHOR,m,,,,,,0.384194268,-0.321777344,1,0,0,,0,244,244,93,1,
,,,,,,,,,,,,,,,,,,5d78986d4531b9001508752d,2020-08-10_17h46.52.982,lexical_decision_task_MP,2020.1.3,Linux armv8l,60,,0,-0.434490712,-0.342529297,1,0,0,0.7127,button_left,0.7127,1,,,,,,438,NW,UN,33,limpor,BAITCH,z,,,,,,-0.434490712,-0.342529297,1,0,0,,0,245,245,377,1,
,,,,,,,,,,,,,,,,,,5d78986d4531b9001508752d,2020-08-10_17h46.52.982,lexical_decision_task_MP,2020.1.3,Linux armv8l,60,,0,-0.421469879,-0.319091797,1,0,0,0.5488,button_left,0.5488,1,,,,,,423,NW,UN,33,praile,STRELD,z,,,,,,-0.421469879,-0.319091797,1,0,0,,0,246,246,362,1,
,,,,,,,,,,,,,,,,,,5d78986d4531b9001508752d,2020-08-10_17h46.52.982,lexical_decision_task_MP,2020.1.3,Linux armv8l,60,,0,0.399927775,-0.282470703,1,0,0,0.6483,button_right,0.6483,1,,,,,,90,WORD,"ID",33,relish,RELISH,m,,,,,,0.399927775,-0.282470703,1,0,0,,0,247,247,29,1,
,,,,,,,,,,,,,,,,,,5d78986d4531b9001508752d,2020-08-10_17h46.52.982,lexical_decision_task_MP,2020.1.3,Linux armv8l,60,,0,0.396672567,-0.285644531,1,0,0,0.5141,button_right,0.5141,1,,,,,,126,WORD,"ID",50,enough,ENOUGH,m,,,,,,0.396672567,-0.285644531,1,0,0,,0,248,248,65,1,
,,,,,,,,,,,,,,,,,,5d78986d4531b9001508752d,2020-08-10_17h46.52.982,lexical_decision_task_MP,2020.1.3,Linux armv8l,60,,0,-0.411161719,-0.299560547,1,0,0,0.6812,button_left,0.6812,0,,,,,,176,WORD,"ID",50,strife,STRIFE,m,,,,,,-0.411161719,-0.299560547,1,0,0,,0,249,249,115,1,
,,,,,,,,,,,,,,,,,,5d78986d4531b9001508752d,2020-08-10_17h46.52.982,lexical_decision_task_MP,2020.1.3,Linux armv8l,60,,0,-0.416044532,-0.301757813,1,0,0,0.4804,button_left,0.4804,1,,,,,,361,NW,"ID",50,pauche,PAUCHE,z,,,,,,-0.416044532,-0.301757813,1,0,0,,0,250,250,300,1,
,,,,,,,,,,,,,,,,,,5d78986d4531b9001508752d,2020-08-10_17h46.52.982,lexical_decision_task_MP,2020.1.3,Linux armv8l,60,,0,-0.383492449,-0.295410156,1,0,0,0.6303,button_left,0.6303,1,,,,,,343,NW,"ID",33,aimosy,AIMOSY,z,,,,,,-0.383492449,-0.295410156,1,0,0,,0,251,251,282,1,
,,,,,,,,,,,,,,,,,,5d78986d4531b9001508752d,2020-08-10_17h46.52.982,lexical_decision_task_MP,2020.1.3,Linux armv8l,60,,0,-0.366673872,-0.254638672,1,0,0,0.6124,button_left,0.6124,1,,,,,,248,NW,UN,50,batrol,STROLE,z,,,,,,-0.366673872,-0.254638672,1,0,0,,0,252,252,427,1,
,,,,,,,,,,,,,,,,,,5d78986d4531b9001508752d,2020-08-10_17h46.52.982,lexical_decision_task_MP,2020.1.3,Linux armv8l,60,,0,0.43030972,-0.258056641,1,0,0,0.5812,button_right,0.5812,1,,,,,,100,WORD,"ID",33,carbon,CARBON,m,,,,,,0.43030972,-0.258056641,1,0,0,,0,253,253,39,1,
,,,,,,,,,,,,,,,,,,5d78986d4531b9001508752d,2020-08-10_17h46.52.982,lexical_decision_task_MP,2020.1.3,Linux armv8l,60,,0,0.42922465,-0.298339844,1,0,0,0.5319,button_right,0.5319,1,,,,,,43,WORD,UN,50,foster,TONGUE,m,,,,,,0.42922465,-0.298339844,1,0,0,,0,254,254,222,1,
,,,,,,,,,,,,,,,,,,5d78986d4531b9001508752d,2020-08-10_17h46.52.982,lexical_decision_task_MP,2020.1.3,Linux armv8l,60,,0,0.370088365,-0.316894531,1,0,0,0.6304,button_right,0.6304,1,,,,,,98,WORD,"ID",33,belong,BELONG,m,,,,,,0.370088365,-0.316894531,1,0,0,,0,255,255,37,1,
,,,,,,,,,,,,,,,,,,5d78986d4531b9001508752d,2020-08-10_17h46.52.982,lexical_decision_task_MP,2020.1.3,Linux armv8l,60,,0,0.459606595,-0.314697266,1,0,0,0.7957,button_right,0.7957,1,,,,,,84,WORD,"ID",33,mortal,MORTAL,m,,,,,,0.459606595,-0.314697266,1,0,0,,0,256,256,23,1,
,,,,,,,,,,,,,,,,,,5d78986d4531b9001508752d,2020-08-10_17h46.52.982,lexical_decision_task_MP,2020.1.3,Linux armv8l,60,,0,0.403182983,-0.281982422,1,0,0,0.6137,button_right,0.6137,1,,,,,,202,WORD,UN,33,phrase,FACTOR,m,,,,,,0.403182983,-0.281982422,1,0,0,,0,257,257,141,1,
,,,,,,,,,,,,,,,,,,5d78986d4531b9001508752d,2020-08-10_17h46.52.982,lexical_decision_task_MP,2020.1.3,Linux armv8l,60,,0,0.413491143,-0.273193359,1,0,0,0.4479,button_right,0.4479,1,,,,,,81,WORD,"ID",33,friend,FRIEND,m,,,,,,0.413491143,-0.273193359,1,0,0,,0,258,258,20,1,
,,,,,,,,,,,,,,,,,,5d78986d4531b9001508752d,2020-08-10_17h46.52.982,lexical_decision_task_MP,2020.1.3,Linux armv8l,60,,0,0.403725518,-0.280273438,1,0,0,0.4801,button_right,0.4801,1,,,,,,1,WORD,UN,50,ethnic,FRIGHT,m,,,,,,0.403725518,-0.280273438,1,0,0,,0,259,259,180,1,
,,,,,,,,,,,,,,,,,,5d78986d4531b9001508752d,2020-08-10_17h46.52.982,lexical_decision_task_MP,2020.1.3,Linux armv8l,60,,0,-0.387290192,-0.28125,1,0,0,0.6973,button_left,0.6973,1,,,,,,294,NW,UN,50,gleath,INHORT,z,,,,,,-0.387290192,-0.28125,1,0,0,,0,260,260,473,1,
,,,,,,,,,,,,,,,,,,5d78986d4531b9001508752d,2020-08-10_17h46.52.982,lexical_decision_task_MP,2020.1.3,Linux armv8l,60,,0,-0.409534115,-0.287109375,1,0,0,0.5635,button_left,0.5635,1,,,,,,264,NW,UN,50,distar,VACKEL,z,,,,,,-0.409534115,-0.287109375,1,0,0,,0,261,261,443,1,
,,,,,,,,,,,,,,,,,,5d78986d4531b9001508752d,2020-08-10_17h46.52.982,lexical_decision_task_MP,2020.1.3,Linux armv8l,60,,0,-0.422554949,-0.267578125,1,0,0,0.5466,button_left,0.5466,1,,,,,,302,NW,"ID",33,miluer,MILUER,z,,,,,,-0.422554949,-0.267578125,1,0,0,,0,262,262,241,1,
,,,,,,,,,,,,,,,,,,5d78986d4531b9001508752d,2020-08-10_17h46.52.982,lexical_decision_task_MP,2020.1.3,Linux armv8l,60,,0,-0.428522831,-0.262451172,1,0,0,0.5301,button_left,0.5301,1,,,,,,346,NW,"ID",33,saudic,SAUDIC,z,,,,,,-0.428522831,-0.262451172,1,0,0,,0,263,263,285,1,
,,,,,,,,,,,,,,,,,,5d78986d4531b9001508752d,2020-08-10_17h46.52.982,lexical_decision_task_MP,2020.1.3,Linux armv8l,60,,0,0.424884372,-0.286132813,1,0,0,0.5962,button_right,0.5962,1,,,,,,29,WORD,UN,50,orient,SKETCH,m,,,,,,0.424884372,-0.286132813,1,0,0,,0,264,264,208,1,
,,,,,,,,,,,,,,,,,,5d78986d4531b9001508752d,2020-08-10_17h46.52.982,lexical_decision_task_MP,2020.1.3,Linux armv8l,60,,0,0.43953281,-0.288085938,1,0,0,0.5649,button_right,0.5649,1,,,,,,92,WORD,"ID",33,strand,STRAND,m,,,,,,0.43953281,-0.288085938,1,0,0,,0,265,265,31,1,
,,,,,,,,,,,,,,,,,,5d78986d4531b9001508752d,2020-08-10_17h46.52.982,lexical_decision_task_MP,2020.1.3,Linux armv8l,60,,0,0.402097914,-0.278076172,1,0,0,0.6296,button_right,0.6296,1,,,,,,230,WORD,UN,33,mother,FRINGE,m,,,,,,0.402097914,-0.278076172,1,0,0,,0,266,266,169,1,
,,,,,,,,,,,,,,,,,,5d78986d4531b9001508752d,2020-08-10_17h46.52.982,lexical_decision_task_MP,2020.1.3,Linux armv8l,60,,0,0.405353122,-0.295898438,1,0,0,0.6961,button_right,0.6961,1,,,,,,222,WORD,UN,33,export,HINDER,m,,,,,,0.405353122,-0.295898438,1,0,0,,0,267,267,161,1,
,,,,,,,,,,,,,,,,,,5d78986d4531b9001508752d,2020-08-10_17h46.52.982,lexical_decision_task_MP,2020.1.3,Linux armv8l,60,,0,-0.441001129,-0.326904297,1,0,0,0.6811,button_left,0.6811,1,,,,,,313,NW,"ID",33,paurse,PAURSE,z,,,,,,-0.441001129,-0.326904297,1,0,0,,0,268,268,252,1,
,,,,,,,,,,,,,,,,,,5d78986d4531b9001508752d,2020-08-10_17h46.52.982,lexical_decision_task_MP,2020.1.3,Linux armv8l,60,,0,0.428139581,-0.291992188,1,0,0,0.5959,button_right,0.5959,1,,,,,,73,WORD,"ID",33,source,SOURCE,m,,,,,,0.428139581,-0.291992188,1,0,0,,0,269,269,12,1,
,,,,,,,,,,,,,,,,,,5d78986d4531b9001508752d,2020-08-10_17h46.52.982,lexical_decision_task_MP,2020.1.3,Linux armv8l,60,,0,-0.421469879,-0.317871094,1,0,0,0.6471,button_left,0.6471,1,,,,,,407,NW,"ID",50,suiver,SUIVER,z,,,,,,-0.421469879,-0.317871094,1,0,0,,0,270,270,346,1,
,,,,,,,,,,,,,,,,,,5d78986d4531b9001508752d,2020-08-10_17h46.52.982,lexical_decision_task_MP,2020.1.3,Linux armv8l,60,,0,-0.423640018,-0.297119141,1,0,0,0.5815,button_left,0.5815,1,,,,,,406,NW,"ID",50,nouply,NOUPLY,z,,,,,,-0.423640018,-0.297119141,1,0,0,,0,271,271,345,1,
,,,,,,,,,,,,,,,,,,5d78986d4531b9001508752d,2020-08-10_17h46.52.982,lexical_decision_task_MP,2020.1.3,Linux armv8l,60,,0,-0.426895226,-0.281005859,1,0,0,0.5807,button_left,0.5807,1,,,,,,312,NW,"ID",33,nerawl,NERAWL,z,,,,,,-0.426895226,-0.281005859,1,0,0,,0,272,272,251,1,
,,,,,,,,,,,,,,,,,,5d78986d4531b9001508752d,2020-08-10_17h46.52.982,lexical_decision_task_MP,2020.1.3,Linux armv8l,60,,0,-0.408449046,-0.263183594,1,0,0,0.5809,button_left,0.5809,0,,,,,,183,WORD,UN,33,sleazy,MILDEW,m,,,,,,-0.408449046,-0.263183594,1,0,0,,0,273,273,122,1,
,,,,,,,,,,,,,,,,,,5d78986d4531b9001508752d,2020-08-10_17h46.52.982,lexical_decision_task_MP,2020.1.3,Linux armv8l,60,,0,0.437362671,-0.314208984,1,0,0,0.7295,button_right,0.7295,1,,,,,,80,WORD,"ID",33,family,FAMILY,m,,,,,,0.437362671,-0.314208984,1,0,0,,0,274,274,19,1,
,,,,,,,,,,,,,,,,,,5d78986d4531b9001508752d,2020-08-10_17h46.52.982,lexical_decision_task_MP,2020.1.3,Linux armv8l,60,,0,0.42000156,-0.2890625,1,0,0,0.4972,button_right,0.4972,1,,,,,,182,WORD,UN,33,absent,WINTER,m,,,,,,0.42000156,-0.2890625,1,0,0,,0,275,275,121,1,
,,,,,,,,,,,,,,,,,,5d78986d4531b9001508752d,2020-08-10_17h46.52.982,lexical_decision_task_MP,2020.1.3,Linux armv8l,60,,0,-0.411161719,-0.314941406,1,0,0,0.613,button_left,0.613,1,,,,,,291,NW,UN,50,ablint,PRETCH,z,,,,,,-0.411161719,-0.314941406,1,0,0,,0,276,276,470,1,
,,,,,,,,,,,,,,,,,,5d78986d4531b9001508752d,2020-08-10_17h46.52.982,lexical_decision_task_MP,2020.1.3,Linux armv8l,60,,0,-0.400311025,-0.303710938,1,0,0,0.5469,button_left,0.5469,1,,,,,,350,NW,"ID",33,nagurs,NAGURS,z,,,,,,-0.400311025,-0.303710938,1,0,0,,0,277,277,289,1,
,,,,,,,,,,,,,,,,,,5d78986d4531b9001508752d,2020-08-10_17h46.52.982,lexical_decision_task_MP,2020.1.3,Linux armv8l,60,,0,0.415118747,-0.284912109,1,0,0,0.5477,button_right,0.5477,1,,,,,,218,WORD,UN,33,bucket,SHRINK,m,,,,,,0.415118747,-0.284912109,1,0,0,,0,278,278,157,1,
,,,,,,,,,,,,,,,,,,5d78986d4531b9001508752d,2020-08-10_17h46.52.982,lexical_decision_task_MP,2020.1.3,Linux armv8l,60,,0,0.417831421,-0.291748047,1,0,0,0.5963,button_right,0.5963,1,,,,,,11,WORD,UN,50,amount,CRUISE,m,,,,,,0.417831421,-0.291748047,1,0,0,,0,279,279,190,1,
,,,,,,,,,,,,,,,,,,5d78986d4531b9001508752d,2020-08-10_17h46.52.982,lexical_decision_task_MP,2020.1.3,Linux armv8l,60,,0,-0.417129601,-0.321044922,1,0,0,0.5938,button_left,0.5938,1,,,,,,263,NW,UN,50,vackel,DOLICA,z,,,,,,-0.417129601,-0.321044922,1,0,0,,0,280,280,442,1,
,,,,,,,,,,,,,,,,,,5d78986d4531b9001508752d,2020-08-10_17h46.52.982,lexical_decision_task_MP,2020.1.3,Linux armv8l,60,,0,0.406980726,-0.268798828,1,0,0,0.6961,button_right,0.6961,1,,,,,,224,WORD,UN,33,vulgar,PERIOD,m,,,,,,0.406980726,-0.268798828,1,0,0,,0,281,281,163,1,
,,,,,,,,,,,,,,,,,,5d78986d4531b9001508752d,2020-08-10_17h46.52.982,lexical_decision_task_MP,2020.1.3,Linux armv8l,60,,0,0.441702949,-0.275146484,1,0,0,0.5129,button_right,0.5129,1,,,,,,94,WORD,"ID",33,travel,TRAVEL,m,,,,,,0.441702949,-0.275146484,1,0,0,,0,282,282,33,1,
,,,,,,,,,,,,,,,,,,5d78986d4531b9001508752d,2020-08-10_17h46.52.982,lexical_decision_task_MP,2020.1.3,Linux armv8l,60,,0,0.433022393,-0.294677734,1,0,0,0.4478,button_right,0.4478,1,,,,,,162,WORD,"ID",50,candle,CANDLE,m,,,,,,0.433022393,-0.294677734,1,0,0,,0,283,283,101,1,
,,,,,,,,,,,,,,,,,,5d78986d4531b9001508752d,2020-08-10_17h46.52.982,lexical_decision_task_MP,2020.1.3,Linux armv8l,60,,0,-0.454021962,-0.313476563,1,0,0,0.5292,button_left,0.5292,1,,,,,,408,NW,"ID",50,hurnia,HURNIA,z,,,,,,-0.454021962,-0.313476563,1,0,0,,0,284,284,347,1,
,,,,,,,,,,,,,,,,,,5d78986d4531b9001508752d,2020-08-10_17h46.52.982,lexical_decision_task_MP,2020.1.3,Linux armv8l,60,,0,-0.462702518,-0.295166016,1,0,0,0.6632,button_left,0.6632,1,,,,,,471,NW,UN,33,cigney,NOBEST,z,,,,,,-0.462702518,-0.295166016,1,0,0,,0,285,285,410,1,
,,,,,,,,,,,,,,,,,,5d78986d4531b9001508752d,2020-08-10_17h46.52.982,lexical_decision_task_MP,2020.1.3,Linux armv8l,60,,0,-0.439373525,-0.291992188,1,0,0,0.4792,button_left,0.4792,1,,,,,,329,NW,"ID",33,yarike,YARIKE,z,,,,,,-0.439373525,-0.291992188,1,0,0,,0,286,286,268,1,
,,,,,,,,,,,,,,,,,,5d78986d4531b9001508752d,2020-08-10_17h46.52.982,lexical_decision_task_MP,2020.1.3,Linux armv8l,60,,0,0.412406074,-0.285644531,1,0,0,0.5305,button_right,0.5305,1,,,,,,152,WORD,"ID",50,rocket,ROCKET,m,,,,,,0.412406074,-0.285644531,1,0,0,,0,287,287,91,1,
,,,,,,,,,,,,,,,,,,5d78986d4531b9001508752d,2020-08-10_17h46.52.982,lexical_decision_task_MP,2020.1.3,Linux armv8l,60,,0,-0.429065365,-0.271240234,1,0,0,0.697,button_left,0.697,1,,,,,,417,NW,"ID",50,earoud,EAROUD,z,,,,,,-0.429065365,-0.271240234,1,0,0,,0,288,288,356,1,
,,,,,,,,,,,,,,,,,,5d78986d4531b9001508752d,2020-08-10_17h46.52.982,lexical_decision_task_MP,2020.1.3,Linux armv8l,60,,0,0.422171699,-0.300292969,1,0,0,0.4799,button_right,0.4799,1,,,,,,115,WORD,"ID",33,guitar,GUITAR,m,,,,,,0.422171699,-0.300292969,1,0,0,,0,289,289,54,1,
,,,,,,,,,,,,,,,,,,5d78986d4531b9001508752d,2020-08-10_17h46.52.982,lexical_decision_task_MP,2020.1.3,Linux armv8l,60,,0,0.431394789,-0.286132813,1,0,0,0.4828,button_right,0.4828,1,,,,,,216,WORD,UN,33,liquor,BEHALF,m,,,,,,0.431394789,-0.286132813,1,0,0,,0,290,290,155,1,
,,,,,,,,,,,,,,,,,,5d78986d4531b9001508752d,2020-08-10_17h46.52.982,lexical_decision_task_MP,2020.1.3,Linux armv8l,60,,0,0.437362671,-0.29296875,1,0,0,0.2802,button_right,0.2802,0,,,,,,261,NW,UN,50,quilew,STUNCH,z,,,,,,0.437362671,-0.29296875,1,0,0,,0,291,291,440,1,
,,,,,,,,,,,,,,,,,,5d78986d4531b9001508752d,2020-08-10_17h46.52.982,lexical_decision_task_MP,2020.1.3,Linux armv8l,60,,0,0.428139581,-0.287109375,1,0,0,0.397,button_right,0.397,1,,,,,,168,WORD,"ID",50,answer,ANSWER,m,,,,,,0.428139581,-0.287109375,1,0,0,,0,292,292,107,1,
,,,,,,,,,,,,,,,,,,5d78986d4531b9001508752d,2020-08-10_17h46.52.982,lexical_decision_task_MP,2020.1.3,Linux armv8l,60,,0,-0.415501997,-0.276855469,1,0,0,0.5653,button_left,0.5653,1,,,,,,241,NW,UN,50,unwert,SMENCO,z,,,,,,-0.415501997,-0.276855469,1,0,0,,0,293,293,420,1,
,,,,,,,,,,,,,,,,,,5d78986d4531b9001508752d,2020-08-10_17h46.52.982,lexical_decision_task_MP,2020.1.3,Linux armv8l,60,,0,0.424341838,-0.288085938,1,0,0,1.3408,button_right,1.3408,1,,,,,,139,WORD,"ID",50,debris,DEBRIS,m,,,,,,0.424341838,-0.288085938,1,0,0,,0,294,294,78,1,
,,,,,,,,,,,,,,,,,,5d78986d4531b9001508752d,2020-08-10_17h46.52.982,lexical_decision_task_MP,2020.1.3,Linux armv8l,60,,0,0.417288886,-0.281005859,1,0,0,0.8624,button_right,0.8624,1,,,,,,74,WORD,"ID",33,plaque,PLAQUE,m,,,,,,0.417288886,-0.281005859,1,0,0,,0,295,295,13,1,
,,,,,,,,,,,,,,,,,,5d78986d4531b9001508752d,2020-08-10_17h46.52.982,lexical_decision_task_MP,2020.1.3,Linux armv8l,60,,0,-0.404651303,-0.304443359,1,0,0,0.5634,button_left,0.5634,1,,,,,,308,NW,"ID",33,psetch,PSETCH,z,,,,,,-0.404651303,-0.304443359,1,0,0,,0,296,296,247,1,
,,,,,,,,,,,,,,,,,,5d78986d4531b9001508752d,2020-08-10_17h46.52.982,lexical_decision_task_MP,2020.1.3,Linux armv8l,60,,0,0.427597046,-0.291503906,1,0,0,0.4479,button_right,0.4479,1,,,,,,136,WORD,"ID",50,bleach,BLEACH,m,,,,,,0.427597046,-0.291503906,1,0,0,,0,297,297,75,1,
,,,,,,,,,,,,,,,,,,5d78986d4531b9001508752d,2020-08-10_17h46.52.982,lexical_decision_task_MP,2020.1.3,Linux armv8l,60,,0,0.422714233,-0.286621094,1,0,0,0.4237,button_right,0.4237,1,,,,,,167,WORD,"ID",50,design,DESIGN,m,,,,,,0.422714233,-0.286621094,1,0,0,,0,298,298,106,1,
,,,,,,,,,,,,,,,,,,5d78986d4531b9001508752d,2020-08-10_17h46.52.982,lexical_decision_task_MP,2020.1.3,Linux armv8l,60,,0,0.425969442,-0.282958984,1,0,0,0.5957,button_right,0.5957,1,,,,,,77,WORD,"ID",33,racket,RACKET,m,,,,,,0.425969442,-0.282958984,1,0,0,,0,299,299,16,1,
,,,,,,,,,,,,,,,,,,5d78986d4531b9001508752d,2020-08-10_17h46.52.982,lexical_decision_task_MP,2020.1.3,Linux armv8l,60,,0,0.418373956,-0.284667969,1,0,0,0.4478,button_right,0.4478,1,,,,,,3,WORD,UN,50,trench,KNIGHT,m,,,,,,0.418373956,-0.284667969,1,0,0,,0,300,300,182,1,
,,,,,,,,,,,,,,,,,,5d78986d4531b9001508752d,2020-08-10_17h46.52.982,lexical_decision_task_MP,2020.1.3,Linux armv8l,60,,0,0.418373956,-0.30078125,1,0,0,0.5469,button_right,0.5469,1,,,,,,217,WORD,UN,33,shrink,LIQUOR,m,,,,,,0.418373956,-0.30078125,1,0,0,,0,301,301,156,1,
,,,,,,,,,,,,,,,,,,5d78986d4531b9001508752d,2020-08-10_17h46.52.982,lexical_decision_task_MP,2020.1.3,Linux armv8l,60,,0,0.322345225,-0.341796875,1,0,0,0.4149,button_right,0.4149,1,,,,,,212,WORD,UN,33,squeal,VERIFY,m,,,,,,0.322345225,-0.341796875,1,0,0,,0,302,302,151,1,
,,,,,,,,,,,,,,,,,,5d78986d4531b9001508752d,2020-08-10_17h46.52.982,lexical_decision_task_MP,2020.1.3,Linux armv8l,60,,0,-0.37101415,-0.317382813,1,0,0,0.5638,button_left,0.5638,1,,,,,,440,NW,UN,33,rastoe,SARIDE,z,,,,,,-0.37101415,-0.317382813,1,0,0,,0,303,303,379,1,
,,,,,,,,,,,,,,,,,,5d78986d4531b9001508752d,2020-08-10_17h46.52.982,lexical_decision_task_MP,2020.1.3,Linux armv8l,60,,0,0.404810588,-0.308105469,1,0,0,0.547,button_right,0.547,1,,,,,,62,WORD,"ID",33,region,REGION,m,,,,,,0.404810588,-0.308105469,1,0,0,,0,304,304,1,1,
,,,,,,,,,,,,,,,,,,5d78986d4531b9001508752d,2020-08-10_17h46.52.982,lexical_decision_task_MP,2020.1.3,Linux armv8l,60,,0,-0.398683421,-0.314941406,1,0,0,0.65,button_left,0.65,1,,,,,,333,NW,"ID",33,catrie,CATRIE,z,,,,,,-0.398683421,-0.314941406,1,0,0,,0,305,305,272,1,
,,,,,,,,,,,,,,,,,,5d78986d4531b9001508752d,2020-08-10_17h46.52.982,lexical_decision_task_MP,2020.1.3,Linux armv8l,60,,0,0.417831421,-0.303222656,1,0,0,0.6467,button_right,0.6467,1,,,,,,225,WORD,UN,33,casino,VULGAR,m,,,,,,0.417831421,-0.303222656,1,0,0,,0,306,306,164,1,
,,,,,,,,,,,,,,,,,,5d78986d4531b9001508752d,2020-08-10_17h46.52.982,lexical_decision_task_MP,2020.1.3,Linux armv8l,60,,0,0.423799303,-0.301025391,1,0,0,0.5292,button_right,0.5292,1,,,,,,159,WORD,"ID",50,detail,DETAIL,m,,,,,,0.423799303,-0.301025391,1,0,0,,0,307,307,98,1,
,,,,,,,,,,,,,,,,,,5d78986d4531b9001508752d,2020-08-10_17h46.52.982,lexical_decision_task_MP,2020.1.3,Linux armv8l,60,,0,0.4096934,-0.299560547,1,0,0,1.5278,button_right,1.5278,1,,,,,,58,WORD,UN,50,splint,FOSTER,m,,,,,,0.4096934,-0.299560547,1,0,0,,0,308,308,237,1,
,,,,,,,,,,,,,,,,,,5d78986d4531b9001508752d,2020-08-10_17h46.52.982,lexical_decision_task_MP,2020.1.3,Linux armv8l,60,,0,-0.394885678,-0.327880859,1,0,0,0.6305,button_left,0.6305,1,,,,,,246,NW,UN,50,blarge,PIATON,z,,,,,,-0.394885678,-0.327880859,1,0,0,,0,309,309,425,1,
,,,,,,,,,,,,,,,,,,5d78986d4531b9001508752d,2020-08-10_17h46.52.982,lexical_decision_task_MP,2020.1.3,Linux armv8l,60,,0,0.403725518,-0.304199219,1,0,0,0.5107,button_right,0.5107,0,,,,,,455,NW,UN,33,broget,TONDLE,z,,,,,,0.403725518,-0.304199219,1,0,0,,0,310,310,394,1,
,,,,,,,,,,,,,,,,,,5d78986d4531b9001508752d,2020-08-10_17h46.52.982,lexical_decision_task_MP,2020.1.3,Linux armv8l,60,,0,0.408608331,-0.305175781,1,0,0,0.5296,button_right,0.5296,1,,,,,,233,WORD,UN,33,clumsy,NATURE,m,,,,,,0.408608331,-0.305175781,1,0,0,,0,311,311,172,1,
,,,,,,,,,,,,,,,,,,5d78986d4531b9001508752d,2020-08-10_17h46.52.982,lexical_decision_task_MP,2020.1.3,Linux armv8l,60,,0,-0.384577518,-0.3125,1,0,0,0.5383,button_left,0.5383,1,,,,,,354,NW,"ID",33,virlex,VIRLEX,z,,,,,,-0.384577518,-0.3125,1,0,0,,0,312,312,293,1,
,,,,,,,,,,,,,,,,,,5d78986d4531b9001508752d,2020-08-10_17h46.52.982,lexical_decision_task_MP,2020.1.3,Linux armv8l,60,,0,-0.396513282,-0.303466797,1,0,0,0.6314,button_left,0.6314,1,,,,,,243,NW,UN,50,eatric,MUSIED,z,,,,,,-0.396513282,-0.303466797,1,0,0,,0,313,313,422,1,
,,,,,,,,,,,,,,,,,,5d78986d4531b9001508752d,2020-08-10_17h46.52.982,lexical_decision_task_MP,2020.1.3,Linux armv8l,60,,0,-0.386747657,-0.288818359,1,0,0,0.7971,button_left,0.7971,1,,,,,,285,NW,UN,50,reldon,PRUDGE,z,,,,,,-0.386747657,-0.288818359,1,0,0,,0,314,314,464,1,
,,,,,,,,,,,,,,,,,,5d78986d4531b9001508752d,2020-08-10_17h46.52.982,lexical_decision_task_MP,2020.1.3,Linux armv8l,60,,0,-0.391630469,-0.284423828,1,0,0,0.6309,button_left,0.6309,1,,,,,,303,NW,"ID",33,fiream,FIREAM,z,,,,,,-0.391630469,-0.284423828,1,0,0,,0,315,315,242,1,
,,,,,,,,,,,,,,,,,,5d78986d4531b9001508752d,2020-08-10_17h46.52.982,lexical_decision_task_MP,2020.1.3,Linux armv8l,60,,0,-0.407906511,-0.271728516,1,0,0,0.4972,button_left,0.4972,1,,,,,,436,NW,UN,33,snapel,FRUTAN,z,,,,,,-0.407906511,-0.271728516,1,0,0,,0,316,316,375,1,
,,,,,,,,,,,,,,,,,,5d78986d4531b9001508752d,2020-08-10_17h46.52.982,lexical_decision_task_MP,2020.1.3,Linux armv8l,60,,0,-0.426895226,-0.289306641,1,0,0,0.4642,button_left,0.4642,1,,,,,,351,NW,"ID",33,tiesch,TIESCH,z,,,,,,-0.426895226,-0.289306641,1,0,0,,0,317,317,290,1,
,,,,,,,,,,,,,,,,,,5d78986d4531b9001508752d,2020-08-10_17h46.52.982,lexical_decision_task_MP,2020.1.3,Linux armv8l,60,,0,0.405353122,-0.303222656,1,0,0,0.5654,button_right,0.5654,1,,,,,,118,WORD,"ID",33,flight,FLIGHT,m,,,,,,0.405353122,-0.303222656,1,0,0,,0,318,318,57,1,
,,,,,,,,,,,,,,,,,,5d78986d4531b9001508752d,2020-08-10_17h46.52.982,lexical_decision_task_MP,2020.1.3,Linux armv8l,60,,0,0.404268053,-0.298095703,1,0,0,0.4809,button_right,0.4809,1,,,,,,191,WORD,UN,33,beacon,STABLE,m,,,,,,0.404268053,-0.298095703,1,0,0,,0,319,319,130,1,
,,,,,,,,,,,,,,,,,,5d78986d4531b9001508752d,2020-08-10_17h46.52.982,lexical_decision_task_MP,2020.1.3,Linux armv8l,60,,0,-0.404651303,-0.29296875,1,0,0,0.481,button_left,0.481,1,,,,,,253,NW,UN,50,varosh,RESAIT,z,,,,,,-0.404651303,-0.29296875,1,0,0,,0,320,320,432,1,
,,,,,,,,,,,,,,,,,,5d78986d4531b9001508752d,2020-08-10_17h46.52.982,lexical_decision_task_MP,2020.1.3,Linux armv8l,60,,0,0.412406074,-0.295166016,1,0,0,0.5149,button_right,0.5149,1,,,,,,180,WORD,"ID",50,silent,SILENT,m,,,,,,0.412406074,-0.295166016,1,0,0,,0,321,321,119,1,
,,,,,,,,,,,,,,,,,,5d78986d4531b9001508752d,2020-08-10_17h46.52.982,lexical_decision_task_MP,2020.1.3,Linux armv8l,60,,0,-0.411704254,-0.271728516,1,0,0,0.5313,button_left,0.5313,1,,,,,,359,NW,"ID",33,fonver,FONVER,z,,,,,,-0.411704254,-0.271728516,1,0,0,,0,322,322,298,1,
,,,,,,,,,,,,,,,,,,5d78986d4531b9001508752d,2020-08-10_17h46.52.982,lexical_decision_task_MP,2020.1.3,Linux armv8l,60,,0,0.411321004,-0.285888672,1,0,0,0.552,button_right,0.552,1,,,,,,76,WORD,"ID",33,exotic,EXOTIC,m,,,,,,0.411321004,-0.285888672,1,0,0,,0,323,323,15,1,
,,,,,,,,,,,,,,,,,,5d78986d4531b9001508752d,2020-08-10_17h46.52.982,lexical_decision_task_MP,2020.1.3,Linux armv8l,60,,0,-0.403566233,-0.283203125,1,0,0,0.7799,button_left,0.7799,1,,,,,,284,NW,UN,50,prudge,SHAPLE,z,,,,,,-0.403566233,-0.283203125,1,0,0,,0,324,324,463,1,
,,,,,,,,,,,,,,,,,,5d78986d4531b9001508752d,2020-08-10_17h46.52.982,lexical_decision_task_MP,2020.1.3,Linux armv8l,60,,0,-0.405736372,-0.278076172,1,0,0,0.5961,button_left,0.5961,1,,,,,,348,NW,"ID",33,dumple,DUMPLE,z,,,,,,-0.405736372,-0.278076172,1,0,0,,0,325,325,287,1,
,,,,,,,,,,,,,,,,,,5d78986d4531b9001508752d,2020-08-10_17h46.52.982,lexical_decision_task_MP,2020.1.3,Linux armv8l,60,,0,0.427054511,-0.260253906,1,0,0,0.4846,button_right,0.4846,1,,,,,,129,WORD,"ID",50,marvel,MARVEL,m,,,,,,0.427054511,-0.260253906,1,0,0,,0,326,326,68,1,
,,,,,,,,,,,,,,,,,,5d78986d4531b9001508752d,2020-08-10_17h46.52.982,lexical_decision_task_MP,2020.1.3,Linux armv8l,60,,0,0.421086629,-0.266601563,1,0,0,0.4632,button_right,0.4632,1,,,,,,236,WORD,UN,33,grumpy,PIRATE,m,,,,,,0.421086629,-0.266601563,1,0,0,,0,327,327,175,1,
,,,,,,,,,,,,,,,,,,5d78986d4531b9001508752d,2020-08-10_17h46.52.982,lexical_decision_task_MP,2020.1.3,Linux armv8l,60,,0,0.43844774,-0.255126953,1,0,0,0.5136,button_right,0.5136,1,,,,,,93,WORD,"ID",33,public,PUBLIC,m,,,,,,0.43844774,-0.255126953,1,0,0,,0,328,328,32,1,
,,,,,,,,,,,,,,,,,,5d78986d4531b9001508752d,2020-08-10_17h46.52.982,lexical_decision_task_MP,2020.1.3,Linux armv8l,60,,0,-0.481148699,-0.321777344,1,0,0,0.99,button_left,0.99,1,,,,,,266,NW,UN,50,pasink,VARMIT,z,,,,,,-0.481148699,-0.321777344,1,0,0,,0,329,329,445,1,
,,,,,,,,,,,,,,,,,,5d78986d4531b9001508752d,2020-08-10_17h46.52.982,lexical_decision_task_MP,2020.1.3,Linux armv8l,60,,0,-0.463245053,-0.311767578,1,0,0,0.5474,button_left,0.5474,1,,,,,,376,NW,"ID",50,iguare,IGUARE,z,,,,,,-0.463245053,-0.311767578,1,0,0,,0,330,330,315,1,
,,,,,,,,,,,,,,,,,,5d78986d4531b9001508752d,2020-08-10_17h46.52.982,lexical_decision_task_MP,2020.1.3,Linux armv8l,60,,0,-0.457819706,-0.314697266,1,0,0,0.5648,button_left,0.5648,1,,,,,,442,NW,UN,33,dorsex,ABOUNE,z,,,,,,-0.457819706,-0.314697266,1,0,0,,0,331,331,381,1,
,,,,,,,,,,,,,,,,,,5d78986d4531b9001508752d,2020-08-10_17h46.52.982,lexical_decision_task_MP,2020.1.3,Linux armv8l,60,,0,-0.445883942,-0.286132813,1,0,0,0.5774,button_left,0.5774,1,,,,,,367,NW,"ID",50,slique,SLIQUE,z,,,,,,-0.445883942,-0.286132813,1,0,0,,0,332,332,306,1,
,,,,,,,,,,,,,,,,,,5d78986d4531b9001508752d,2020-08-10_17h46.52.982,lexical_decision_task_MP,2020.1.3,Linux armv8l,60,,0,-0.450766754,-0.294189453,1,0,0,0.8641,button_left,0.8641,1,,,,,,340,NW,"ID",33,fiatch,FIATCH,z,,,,,,-0.450766754,-0.294189453,1,0,0,,0,333,333,279,1,
,,,,,,,,,,,,,,,,,,5d78986d4531b9001508752d,2020-08-10_17h46.52.982,lexical_decision_task_MP,2020.1.3,Linux armv8l,60,,0,0.421629164,-0.282958984,1,0,0,1.0107,button_right,1.0107,1,,,,,,54,WORD,UN,50,stroke,RAMBLE,m,,,,,,0.421629164,-0.282958984,1,0,0,,0,334,334,233,1,
,,,,,,,,,,,,,,,,,,5d78986d4531b9001508752d,2020-08-10_17h46.52.982,lexical_decision_task_MP,2020.1.3,Linux armv8l,60,,0,0.421086629,-0.281738281,1,0,0,0.4649,button_right,0.4649,0,,,,,,432,NW,UN,33,drance,LUNKER,z,,,,,,0.421086629,-0.281738281,1,0,0,,0,335,335,371,1,
,,,,,,,,,,,,,,,,,,5d78986d4531b9001508752d,2020-08-10_17h46.52.982,lexical_decision_task_MP,2020.1.3,Linux armv8l,60,,0,-0.423097483,-0.297607422,1,0,0,0.6131,button_left,0.6131,1,,,,,,288,NW,UN,50,starby,YACEUP,z,,,,,,-0.423097483,-0.297607422,1,0,0,,0,336,336,467,1,
,,,,,,,,,,,,,,,,,,5d78986d4531b9001508752d,2020-08-10_17h46.52.982,lexical_decision_task_MP,2020.1.3,Linux armv8l,60,,0,0.424341838,-0.286132813,1,0,0,0.6133,button_right,0.6133,1,,,,,,227,WORD,UN,33,master,SELDOM,m,,,,,,0.424341838,-0.286132813,1,0,0,,0,337,337,166,1,
,,,,,,,,,,,,,,,,,,5d78986d4531b9001508752d,2020-08-10_17h46.52.982,lexical_decision_task_MP,2020.1.3,Linux armv8l,60,,0,-0.437745921,-0.297119141,1,0,0,0.6302,button_left,0.6302,1,,,,,,306,NW,"ID",33,sounge,SOUNGE,z,,,,,,-0.437745921,-0.297119141,1,0,0,,0,338,338,245,1,
,,,,,,,,,,,,,,,,,,5d78986d4531b9001508752d,2020-08-10_17h46.52.982,lexical_decision_task_MP,2020.1.3,Linux armv8l,60,,0,0.411321004,-0.284912109,1,0,0,0.6124,button_right,0.6124,1,,,,,,19,WORD,UN,50,breast,PATRON,m,,,,,,0.411321004,-0.284912109,1,0,0,,0,339,339,198,1,
,,,,,,,,,,,,,,,,,,5d78986d4531b9001508752d,2020-08-10_17h46.52.982,lexical_decision_task_MP,2020.1.3,Linux armv8l,60,,0,-0.443713803,-0.307617188,1,0,0,0.6476,button_left,0.6476,1,,,,,,300,NW,UN,50,smenco,YARION,z,,,,,,-0.443713803,-0.307617188,1,0,0,,0,340,340,479,1,
,,,,,,,,,,,,,,,,,,5d78986d4531b9001508752d,2020-08-10_17h46.52.982,lexical_decision_task_MP,2020.1.3,Linux armv8l,60,,0,-0.475180817,-0.321289063,1,0,0,0.6811,button_left,0.6811,0,,,,,,68,WORD,"ID",33,fumble,FUMBLE,m,,,,,,-0.475180817,-0.321289063,1,0,0,,0,341,341,7,1,
