counterbalancing_condition,instr_done_keyboard.keys,instr_done_touch.x,instr_done_touch.y,instr_done_touch.leftButton,instr_done_touch.midButton,instr_done_touch.rightButton,instr_done_touch.clicked_name,instruction_pages.thisRepN,instruction_pages.thisTrialN,instruction_pages.thisN,instruction_pages.thisIndex,instruction_pages.ran,pageN,phase,instruct_text,has_image,instruct_image,participant,date,expName,psychopyVersion,OS,frameRate,instr_done_keyboard.rt,response.keys,response.corr,response.rt,touch_resp.x,touch_resp.y,touch_resp.leftButton,touch_resp.midButton,touch_resp.rightButton,touch_resp.time,touch_resp.clicked_name,rt,corr,practice_trials.thisRepN,practice_trials.thisTrialN,practice_trials.thisN,practice_trials.thisIndex,practice_trials.ran,TrialID,StimulusType,Condition,PrimeDuration,Prime,Target,corrAns,end_of_practice_trials_pages.thisRepN,end_of_practice_trials_pages.thisTrialN,end_of_practice_trials_pages.thisN,end_of_practice_trials_pages.thisIndex,end_of_practice_trials_pages.ran,break_done_touch.x,break_done_touch.y,break_done_touch.leftButton,break_done_touch.midButton,break_done_touch.rightButton,break_done_keyboard.keys,trials.thisRepN,trials.thisTrialN,trials.thisN,trials.thisIndex,trials.ran,break_done_keyboard.rt
2,,0.046469727,-0.410429687,1,0,0,instr_done_button,0,0,0,0,1,1,instructions,"INSTRUCTIONS
At the start of each trial, look at the hash marks (######) in the center of the screen. After a moment, a string of letters will appear. Your task is to indicate if the letter string forms a word or not (i.e., if it is a nonword). For example, AUTHOR is a word while AUTHON is a nonword.

Press the space bar or touch the button below to continue.",0,,5d7a098214f08f00164031a0,2020-08-10_16h24.05.732,lexical_decision_task_MP,2020.1.3,MacIntel,60,,,,,,,,,,,,,,,,,,,,,,,,,,,,,,,,,,,,,,,,,,
,space,-0.168789063,-0.092041016,0,0,0,,0,1,1,1,1,2,instructions,"If your device has a keyboard, press the 'Z' key for nonwords and the 'M' key for words.





Press the space bar or touch the button below to continue.",1,keyboard-example.gif,5d7a098214f08f00164031a0,2020-08-10_16h24.05.732,lexical_decision_task_MP,2020.1.3,MacIntel,60,13.2169,,,,,,,,,,,,,,,,,,,,,,,,,,,,,,,,,,,,,,,,,
,space,-0.168789063,-0.092041016,0,0,0,,0,2,2,2,1,3,instructions,"If you are using a touchscreen only device, use the buttons on the screen. Do not use the mouse.





Press the space bar or touch the button below to continue.",1,touchscreen-example.gif,5d7a098214f08f00164031a0,2020-08-10_16h24.05.732,lexical_decision_task_MP,2020.1.3,MacIntel,60,12.05957,,,,,,,,,,,,,,,,,,,,,,,,,,,,,,,,,,,,,,,,,
,space,-0.168789063,-0.092041016,0,0,0,,0,3,3,3,1,4,instructions,"It is very important that you respond as quickly and accurately as possible, as each letter string will only be on the screen for two seconds. If you do not respond within this time, the message 'Too slow!' will be displayed and the experiment will progress to the next letter string. The first 20 trials will be practice trials and you will receive feedback on your answers. 

Press the space bar or touch the button below to start the practice trials.",0,,5d7a098214f08f00164031a0,2020-08-10_16h24.05.732,lexical_decision_task_MP,2020.1.3,MacIntel,60,8.961285,,,,,,,,,,,,,,,,,,,,,,,,,,,,,,,,,,,,,,,,,
,,,,,,,,,,,,,,,,,,5d7a098214f08f00164031a0,2020-08-10_16h24.05.732,lexical_decision_task_MP,2020.1.3,MacIntel,60,,m,1,1.68583,,,,,,,,1.68583,1,0,0,0,7,1,1008,WORD,UN,50,hurdle,VOLUME,m,,,,,,,,,,,,,,,,,
,,,,,,,,,,,,,,,,,,5d7a098214f08f00164031a0,2020-08-10_16h24.05.732,lexical_decision_task_MP,2020.1.3,MacIntel,60,,m,0,1.116435,,,,,,,,1.116435,0,0,1,1,9,1,1010,NW,"ID",33,fariny,FARINY,z,,,,,,,,,,,,,,,,,
,,,,,,,,,,,,,,,,,,5d7a098214f08f00164031a0,2020-08-10_16h24.05.732,lexical_decision_task_MP,2020.1.3,MacIntel,60,,z,1,1.167565,,,,,,,,1.167565,1,0,2,2,8,1,1009,NW,"ID",33,aslert,ASLERT,z,,,,,,,,,,,,,,,,,
,,,,,,,,,,,,,,,,,,5d7a098214f08f00164031a0,2020-08-10_16h24.05.732,lexical_decision_task_MP,2020.1.3,MacIntel,60,,m,1,0.769145,,,,,,,,0.769145,1,0,3,3,3,1,1004,WORD,"ID",50,matrix,MATRIX,m,,,,,,,,,,,,,,,,,
,,,,,,,,,,,,,,,,,,5d7a098214f08f00164031a0,2020-08-10_16h24.05.732,lexical_decision_task_MP,2020.1.3,MacIntel,60,,m,1,0.80612,,,,,,,,0.80612,1,0,4,4,6,1,1007,WORD,UN,50,tropic,ZOMBIE,m,,,,,,,,,,,,,,,,,
,,,,,,,,,,,,,,,,,,5d7a098214f08f00164031a0,2020-08-10_16h24.05.732,lexical_decision_task_MP,2020.1.3,MacIntel,60,,m,1,0.704505,,,,,,,,0.704505,1,0,5,5,5,1,1006,WORD,UN,33,frenzy,OBTAIN,m,,,,,,,,,,,,,,,,,
,,,,,,,,,,,,,,,,,,5d7a098214f08f00164031a0,2020-08-10_16h24.05.732,lexical_decision_task_MP,2020.1.3,MacIntel,60,,m,1,0.6003,,,,,,,,0.6003,1,0,6,6,2,1,1003,WORD,"ID",50,almond,ALMOND,m,,,,,,,,,,,,,,,,,
,,,,,,,,,,,,,,,,,,5d7a098214f08f00164031a0,2020-08-10_16h24.05.732,lexical_decision_task_MP,2020.1.3,MacIntel,60,,m,1,0.682815,,,,,,,,0.682815,1,0,7,7,0,1,1001,WORD,"ID",33,utopia,UTOPIA,m,,,,,,,,,,,,,,,,,
,,,,,,,,,,,,,,,,,,5d7a098214f08f00164031a0,2020-08-10_16h24.05.732,lexical_decision_task_MP,2020.1.3,MacIntel,60,,m,1,0.6535,,,,,,,,0.6535,1,0,8,8,4,1,1005,WORD,UN,33,abound,SQUEAK,m,,,,,,,,,,,,,,,,,
,,,,,,,,,,,,,,,,,,5d7a098214f08f00164031a0,2020-08-10_16h24.05.732,lexical_decision_task_MP,2020.1.3,MacIntel,60,,z,1,0.816475,,,,,,,,0.816475,1,0,9,9,12,1,1013,NW,UN,33,adveil,SPRINY,z,,,,,,,,,,,,,,,,,
,,,,,,,,,,,,,,,,,,5d7a098214f08f00164031a0,2020-08-10_16h24.05.732,lexical_decision_task_MP,2020.1.3,MacIntel,60,,z,1,0.63362,,,,,,,,0.63362,1,0,10,10,10,1,1011,NW,"ID",50,inlade,INLADE,z,,,,,,,,,,,,,,,,,
,,,,,,,,,,,,,,,,,,5d7a098214f08f00164031a0,2020-08-10_16h24.05.732,lexical_decision_task_MP,2020.1.3,MacIntel,60,,z,1,0.633475,,,,,,,,0.633475,1,0,11,11,14,1,1015,NW,UN,50,miaber,THRALE,z,,,,,,,,,,,,,,,,,
,,,,,,,,,,,,,,,,,,5d7a098214f08f00164031a0,2020-08-10_16h24.05.732,lexical_decision_task_MP,2020.1.3,MacIntel,60,,z,1,0.69046,,,,,,,,0.69046,1,0,12,12,15,1,1016,NW,UN,50,mushed,WHAISE,z,,,,,,,,,,,,,,,,,
,,,,,,,,,,,,,,,,,,5d7a098214f08f00164031a0,2020-08-10_16h24.05.732,lexical_decision_task_MP,2020.1.3,MacIntel,60,,z,1,0.56815,,,,,,,,0.56815,1,0,13,13,13,1,1014,NW,UN,33,winfer,ROUPET,z,,,,,,,,,,,,,,,,,
,,,,,,,,,,,,,,,,,,5d7a098214f08f00164031a0,2020-08-10_16h24.05.732,lexical_decision_task_MP,2020.1.3,MacIntel,60,,z,1,0.504565,,,,,,,,0.504565,1,0,14,14,11,1,1012,NW,"ID",50,rashet,RASHET,z,,,,,,,,,,,,,,,,,
,,,,,,,,,,,,,,,,,,5d7a098214f08f00164031a0,2020-08-10_16h24.05.732,lexical_decision_task_MP,2020.1.3,MacIntel,60,,m,1,0.7336,,,,,,,,0.7336,1,0,15,15,1,1,1002,WORD,"ID",33,adjust,ADJUST,m,,,,,,,,,,,,,,,,,
,space,-0.168789063,-0.092041016,0,0,0,,,,,,,1,end_of_practice,"You have completed the practice trials. During the experimental trials, you will not receive feedback, but it is very important that you respond as quickly and accurately as possible. 
Before you begin, please ensure that you are in a comfortable and quiet location and will not be disturbed for about 15 minutes, as we cannot use your data if you do not complete all the trials. 
There will be opportunities to take breaks at regular intervals during the experiment. When you are ready to start the experimental trials, please press space or touch the button below.",,,5d7a098214f08f00164031a0,2020-08-10_16h24.05.732,lexical_decision_task_MP,2020.1.3,MacIntel,60,3.194625,,,,,,,,,,,,,,,,,,,,,,,,,0,0,0,0,1,,,,,,,,,,,,
,,,,,,,,,,,,,,,,,,5d7a098214f08f00164031a0,2020-08-10_16h24.05.732,lexical_decision_task_MP,2020.1.3,MacIntel,60,,z,1,0.73242,,,,,,,,0.73242,1,,,,,,297,NW,UN,50,piergy,FERTIC,z,,,,,,-0.168789063,-0.092041016,0,0,0,,0,0,0,476,1,
,,,,,,,,,,,,,,,,,,5d7a098214f08f00164031a0,2020-08-10_16h24.05.732,lexical_decision_task_MP,2020.1.3,MacIntel,60,,m,1,0.69999,,,,,,,,0.69999,1,,,,,,1,WORD,UN,50,ethnic,FRIGHT,m,,,,,,-0.168789063,-0.092041016,0,0,0,,0,1,1,180,1,
,,,,,,,,,,,,,,,,,,5d7a098214f08f00164031a0,2020-08-10_16h24.05.732,lexical_decision_task_MP,2020.1.3,MacIntel,60,,m,0,0.5732,,,,,,,,0.5732,0,,,,,,396,NW,"ID",50,flengy,FLENGY,z,,,,,,-0.168789063,-0.092041016,0,0,0,,0,2,2,335,1,
,,,,,,,,,,,,,,,,,,5d7a098214f08f00164031a0,2020-08-10_16h24.05.732,lexical_decision_task_MP,2020.1.3,MacIntel,60,,m,1,0.61701,,,,,,,,0.61701,1,,,,,,108,WORD,"ID",33,reckon,RECKON,m,,,,,,-0.168789063,-0.092041016,0,0,0,,0,3,3,47,1,
,,,,,,,,,,,,,,,,,,5d7a098214f08f00164031a0,2020-08-10_16h24.05.732,lexical_decision_task_MP,2020.1.3,MacIntel,60,,m,1,0.60056,,,,,,,,0.60056,1,,,,,,231,WORD,UN,33,inject,EXPORT,m,,,,,,-0.168789063,-0.092041016,0,0,0,,0,4,4,170,1,
,,,,,,,,,,,,,,,,,,5d7a098214f08f00164031a0,2020-08-10_16h24.05.732,lexical_decision_task_MP,2020.1.3,MacIntel,60,,z,1,0.55397,,,,,,,,0.55397,1,,,,,,394,NW,"ID",50,spaqux,SPAQUX,z,,,,,,-0.168789063,-0.092041016,0,0,0,,0,5,5,333,1,
,,,,,,,,,,,,,,,,,,5d7a098214f08f00164031a0,2020-08-10_16h24.05.732,lexical_decision_task_MP,2020.1.3,MacIntel,60,,z,1,0.55236,,,,,,,,0.55236,1,,,,,,267,NW,UN,50,packes,PASINK,z,,,,,,-0.168789063,-0.092041016,0,0,0,,0,6,6,446,1,
,,,,,,,,,,,,,,,,,,5d7a098214f08f00164031a0,2020-08-10_16h24.05.732,lexical_decision_task_MP,2020.1.3,MacIntel,60,,z,1,0.54965,,,,,,,,0.54965,1,,,,,,400,NW,"ID",50,wearox,WEAROX,z,,,,,,-0.168789063,-0.092041016,0,0,0,,0,7,7,339,1,
,,,,,,,,,,,,,,,,,,5d7a098214f08f00164031a0,2020-08-10_16h24.05.732,lexical_decision_task_MP,2020.1.3,MacIntel,60,,z,1,0.533395,,,,,,,,0.533395,1,,,,,,339,NW,"ID",33,fachow,FACHOW,z,,,,,,-0.168789063,-0.092041016,0,0,0,,0,8,8,278,1,
,,,,,,,,,,,,,,,,,,5d7a098214f08f00164031a0,2020-08-10_16h24.05.732,lexical_decision_task_MP,2020.1.3,MacIntel,60,,z,1,0.95454,,,,,,,,0.95454,1,,,,,,364,NW,"ID",50,impote,IMPOTE,z,,,,,,-0.168789063,-0.092041016,0,0,0,,0,9,9,303,1,
,,,,,,,,,,,,,,,,,,5d7a098214f08f00164031a0,2020-08-10_16h24.05.732,lexical_decision_task_MP,2020.1.3,MacIntel,60,,m,1,0.69671,,,,,,,,0.69671,1,,,,,,163,WORD,"ID",50,string,STRING,m,,,,,,-0.168789063,-0.092041016,0,0,0,,0,10,10,102,1,
,,,,,,,,,,,,,,,,,,5d7a098214f08f00164031a0,2020-08-10_16h24.05.732,lexical_decision_task_MP,2020.1.3,MacIntel,60,,m,1,0.566045,,,,,,,,0.566045,1,,,,,,118,WORD,"ID",33,flight,FLIGHT,m,,,,,,-0.168789063,-0.092041016,0,0,0,,0,11,11,57,1,
,,,,,,,,,,,,,,,,,,5d7a098214f08f00164031a0,2020-08-10_16h24.05.732,lexical_decision_task_MP,2020.1.3,MacIntel,60,,m,1,0.651145,,,,,,,,0.651145,1,,,,,,216,WORD,UN,33,liquor,BEHALF,m,,,,,,-0.168789063,-0.092041016,0,0,0,,0,12,12,155,1,
,,,,,,,,,,,,,,,,,,5d7a098214f08f00164031a0,2020-08-10_16h24.05.732,lexical_decision_task_MP,2020.1.3,MacIntel,60,,m,1,0.700095,,,,,,,,0.700095,1,,,,,,56,WORD,UN,50,change,AMBUSH,m,,,,,,-0.168789063,-0.092041016,0,0,0,,0,13,13,235,1,
,,,,,,,,,,,,,,,,,,5d7a098214f08f00164031a0,2020-08-10_16h24.05.732,lexical_decision_task_MP,2020.1.3,MacIntel,60,,m,1,0.550785,,,,,,,,0.550785,1,,,,,,212,WORD,UN,33,squeal,VERIFY,m,,,,,,-0.168789063,-0.092041016,0,0,0,,0,14,14,151,1,
,,,,,,,,,,,,,,,,,,5d7a098214f08f00164031a0,2020-08-10_16h24.05.732,lexical_decision_task_MP,2020.1.3,MacIntel,60,,z,0,0.60094,,,,,,,,0.60094,0,,,,,,58,WORD,UN,50,splint,FOSTER,m,,,,,,-0.168789063,-0.092041016,0,0,0,,0,15,15,237,1,
,,,,,,,,,,,,,,,,,,5d7a098214f08f00164031a0,2020-08-10_16h24.05.732,lexical_decision_task_MP,2020.1.3,MacIntel,60,,m,1,0.668145,,,,,,,,0.668145,1,,,,,,124,WORD,"ID",50,blouse,BLOUSE,m,,,,,,-0.168789063,-0.092041016,0,0,0,,0,16,16,63,1,
,,,,,,,,,,,,,,,,,,5d7a098214f08f00164031a0,2020-08-10_16h24.05.732,lexical_decision_task_MP,2020.1.3,MacIntel,60,,z,1,0.70023,,,,,,,,0.70023,1,,,,,,273,NW,UN,50,fumblo,SORTEL,z,,,,,,-0.168789063,-0.092041016,0,0,0,,0,17,17,452,1,
,,,,,,,,,,,,,,,,,,5d7a098214f08f00164031a0,2020-08-10_16h24.05.732,lexical_decision_task_MP,2020.1.3,MacIntel,60,,m,1,0.720235,,,,,,,,0.720235,1,,,,,,103,WORD,"ID",33,bounce,BOUNCE,m,,,,,,-0.168789063,-0.092041016,0,0,0,,0,18,18,42,1,
,,,,,,,,,,,,,,,,,,5d7a098214f08f00164031a0,2020-08-10_16h24.05.732,lexical_decision_task_MP,2020.1.3,MacIntel,60,,z,1,1.334,,,,,,,,1.334,1,,,,,,282,NW,UN,50,veralf,PORLEX,z,,,,,,-0.168789063,-0.092041016,0,0,0,,0,19,19,461,1,
,,,,,,,,,,,,,,,,,,5d7a098214f08f00164031a0,2020-08-10_16h24.05.732,lexical_decision_task_MP,2020.1.3,MacIntel,60,,m,1,0.851775,,,,,,,,0.851775,1,,,,,,25,WORD,UN,50,sprint,DOMAIN,m,,,,,,-0.168789063,-0.092041016,0,0,0,,0,20,20,204,1,
,,,,,,,,,,,,,,,,,,5d7a098214f08f00164031a0,2020-08-10_16h24.05.732,lexical_decision_task_MP,2020.1.3,MacIntel,60,,z,1,0.700315,,,,,,,,0.700315,1,,,,,,434,NW,UN,33,impurb,PITROM,z,,,,,,-0.168789063,-0.092041016,0,0,0,,0,21,21,373,1,
,,,,,,,,,,,,,,,,,,5d7a098214f08f00164031a0,2020-08-10_16h24.05.732,lexical_decision_task_MP,2020.1.3,MacIntel,60,,z,1,1.019425,,,,,,,,1.019425,1,,,,,,392,NW,"ID",50,rouncy,ROUNCY,z,,,,,,-0.168789063,-0.092041016,0,0,0,,0,22,22,331,1,
,,,,,,,,,,,,,,,,,,5d7a098214f08f00164031a0,2020-08-10_16h24.05.732,lexical_decision_task_MP,2020.1.3,MacIntel,60,,m,1,0.632855,,,,,,,,0.632855,1,,,,,,175,WORD,"ID",50,fabric,FABRIC,m,,,,,,-0.168789063,-0.092041016,0,0,0,,0,23,23,114,1,
,,,,,,,,,,,,,,,,,,5d7a098214f08f00164031a0,2020-08-10_16h24.05.732,lexical_decision_task_MP,2020.1.3,MacIntel,60,,m,1,0.58923,,,,,,,,0.58923,1,,,,,,12,WORD,UN,50,strive,ORANGE,m,,,,,,-0.168789063,-0.092041016,0,0,0,,0,24,24,191,1,
,,,,,,,,,,,,,,,,,,5d7a098214f08f00164031a0,2020-08-10_16h24.05.732,lexical_decision_task_MP,2020.1.3,MacIntel,60,,z,1,0.86723,,,,,,,,0.86723,1,,,,,,373,NW,"ID",50,bigent,BIGENT,z,,,,,,-0.168789063,-0.092041016,0,0,0,,0,25,25,312,1,
,,,,,,,,,,,,,,,,,,5d7a098214f08f00164031a0,2020-08-10_16h24.05.732,lexical_decision_task_MP,2020.1.3,MacIntel,60,,z,1,0.58544,,,,,,,,0.58544,1,,,,,,431,NW,UN,33,lunker,CHRUMS,z,,,,,,-0.168789063,-0.092041016,0,0,0,,0,26,26,370,1,
,,,,,,,,,,,,,,,,,,5d7a098214f08f00164031a0,2020-08-10_16h24.05.732,lexical_decision_task_MP,2020.1.3,MacIntel,60,,m,1,0.597935,,,,,,,,0.597935,1,,,,,,127,WORD,"ID",50,castle,CASTLE,m,,,,,,-0.168789063,-0.092041016,0,0,0,,0,27,27,66,1,
,,,,,,,,,,,,,,,,,,5d7a098214f08f00164031a0,2020-08-10_16h24.05.732,lexical_decision_task_MP,2020.1.3,MacIntel,60,,z,1,0.618645,,,,,,,,0.618645,1,,,,,,279,NW,UN,50,curbol,CELOND,z,,,,,,-0.168789063,-0.092041016,0,0,0,,0,28,28,458,1,
,,,,,,,,,,,,,,,,,,5d7a098214f08f00164031a0,2020-08-10_16h24.05.732,lexical_decision_task_MP,2020.1.3,MacIntel,60,,m,1,0.785315,,,,,,,,0.785315,1,,,,,,213,WORD,UN,33,intake,SQUEAL,m,,,,,,-0.168789063,-0.092041016,0,0,0,,0,29,29,152,1,
,,,,,,,,,,,,,,,,,,5d7a098214f08f00164031a0,2020-08-10_16h24.05.732,lexical_decision_task_MP,2020.1.3,MacIntel,60,,m,0,0.734445,,,,,,,,0.734445,0,,,,,,377,NW,"ID",50,injore,INJORE,z,,,,,,-0.168789063,-0.092041016,0,0,0,,0,30,30,316,1,
,,,,,,,,,,,,,,,,,,5d7a098214f08f00164031a0,2020-08-10_16h24.05.732,lexical_decision_task_MP,2020.1.3,MacIntel,60,,z,1,0.64783,,,,,,,,0.64783,1,,,,,,283,NW,UN,50,shaple,VERALF,z,,,,,,-0.168789063,-0.092041016,0,0,0,,0,31,31,462,1,
,,,,,,,,,,,,,,,,,,5d7a098214f08f00164031a0,2020-08-10_16h24.05.732,lexical_decision_task_MP,2020.1.3,MacIntel,60,,m,1,0.70212,,,,,,,,0.70212,1,,,,,,107,WORD,"ID",33,slogan,SLOGAN,m,,,,,,-0.168789063,-0.092041016,0,0,0,,0,32,32,46,1,
,,,,,,,,,,,,,,,,,,5d7a098214f08f00164031a0,2020-08-10_16h24.05.732,lexical_decision_task_MP,2020.1.3,MacIntel,60,,z,1,0.520395,,,,,,,,0.520395,1,,,,,,446,NW,UN,33,gircue,RUNAMO,z,,,,,,-0.168789063,-0.092041016,0,0,0,,0,33,33,385,1,
,,,,,,,,,,,,,,,,,,5d7a098214f08f00164031a0,2020-08-10_16h24.05.732,lexical_decision_task_MP,2020.1.3,MacIntel,60,,m,1,0.669255,,,,,,,,0.669255,1,,,,,,104,WORD,"ID",33,studio,STUDIO,m,,,,,,-0.168789063,-0.092041016,0,0,0,,0,34,34,43,1,
,,,,,,,,,,,,,,,,,,5d7a098214f08f00164031a0,2020-08-10_16h24.05.732,lexical_decision_task_MP,2020.1.3,MacIntel,60,,z,1,0.648695,,,,,,,,0.648695,1,,,,,,422,NW,UN,33,streld,ALCOUD,z,,,,,,-0.168789063,-0.092041016,0,0,0,,0,35,35,361,1,
,,,,,,,,,,,,,,,,,,5d7a098214f08f00164031a0,2020-08-10_16h24.05.732,lexical_decision_task_MP,2020.1.3,MacIntel,60,,z,1,0.75068,,,,,,,,0.75068,1,,,,,,391,NW,"ID",50,theldy,THELDY,z,,,,,,-0.168789063,-0.092041016,0,0,0,,0,36,36,330,1,
,,,,,,,,,,,,,,,,,,5d7a098214f08f00164031a0,2020-08-10_16h24.05.732,lexical_decision_task_MP,2020.1.3,MacIntel,60,,m,1,0.65014,,,,,,,,0.65014,1,,,,,,230,WORD,UN,33,mother,FRINGE,m,,,,,,-0.168789063,-0.092041016,0,0,0,,0,37,37,169,1,
,,,,,,,,,,,,,,,,,,5d7a098214f08f00164031a0,2020-08-10_16h24.05.732,lexical_decision_task_MP,2020.1.3,MacIntel,60,,m,1,0.58345,,,,,,,,0.58345,1,,,,,,147,WORD,"ID",50,garlic,GARLIC,m,,,,,,-0.168789063,-0.092041016,0,0,0,,0,38,38,86,1,
,,,,,,,,,,,,,,,,,,5d7a098214f08f00164031a0,2020-08-10_16h24.05.732,lexical_decision_task_MP,2020.1.3,MacIntel,60,,m,1,0.833585,,,,,,,,0.833585,1,,,,,,32,WORD,UN,50,scream,BUCKLE,m,,,,,,-0.168789063,-0.092041016,0,0,0,,0,39,39,211,1,
,,,,,,,,,,,,,,,,,,5d7a098214f08f00164031a0,2020-08-10_16h24.05.732,lexical_decision_task_MP,2020.1.3,MacIntel,60,,z,1,0.850205,,,,,,,,0.850205,1,,,,,,328,NW,"ID",33,broake,BROAKE,z,,,,,,-0.168789063,-0.092041016,0,0,0,,0,40,40,267,1,
,,,,,,,,,,,,,,,,,,5d7a098214f08f00164031a0,2020-08-10_16h24.05.732,lexical_decision_task_MP,2020.1.3,MacIntel,60,,m,1,0.65239,,,,,,,,0.65239,1,,,,,,126,WORD,"ID",50,enough,ENOUGH,m,,,,,,-0.168789063,-0.092041016,0,0,0,,0,41,41,65,1,
,,,,,,,,,,,,,,,,,,5d7a098214f08f00164031a0,2020-08-10_16h24.05.732,lexical_decision_task_MP,2020.1.3,MacIntel,60,,z,1,0.66745,,,,,,,,0.66745,1,,,,,,306,NW,"ID",33,sounge,SOUNGE,z,,,,,,-0.168789063,-0.092041016,0,0,0,,0,42,42,245,1,
,,,,,,,,,,,,,,,,,,5d7a098214f08f00164031a0,2020-08-10_16h24.05.732,lexical_decision_task_MP,2020.1.3,MacIntel,60,,m,1,0.86744,,,,,,,,0.86744,1,,,,,,106,WORD,"ID",33,ransom,RANSOM,m,,,,,,-0.168789063,-0.092041016,0,0,0,,0,43,43,45,1,
,,,,,,,,,,,,,,,,,,5d7a098214f08f00164031a0,2020-08-10_16h24.05.732,lexical_decision_task_MP,2020.1.3,MacIntel,60,,m,1,0.59279,,,,,,,,0.59279,1,,,,,,150,WORD,"ID",50,random,RANDOM,m,,,,,,-0.168789063,-0.092041016,0,0,0,,0,44,44,89,1,
,,,,,,,,,,,,,,,,,,5d7a098214f08f00164031a0,2020-08-10_16h24.05.732,lexical_decision_task_MP,2020.1.3,MacIntel,60,,z,1,0.88462,,,,,,,,0.88462,1,,,,,,344,NW,"ID",33,scrily,SCRILY,z,,,,,,-0.168789063,-0.092041016,0,0,0,,0,45,45,283,1,
,,,,,,,,,,,,,,,,,,5d7a098214f08f00164031a0,2020-08-10_16h24.05.732,lexical_decision_task_MP,2020.1.3,MacIntel,60,,z,1,0.633135,,,,,,,,0.633135,1,,,,,,241,NW,UN,50,unwert,SMENCO,z,,,,,,-0.168789063,-0.092041016,0,0,0,,0,46,46,420,1,
,,,,,,,,,,,,,,,,,,5d7a098214f08f00164031a0,2020-08-10_16h24.05.732,lexical_decision_task_MP,2020.1.3,MacIntel,60,,m,1,0.814665,,,,,,,,0.814665,1,,,,,,114,WORD,"ID",33,placid,PLACID,m,,,,,,-0.168789063,-0.092041016,0,0,0,,0,47,47,53,1,
,,,,,,,,,,,,,,,,,,5d7a098214f08f00164031a0,2020-08-10_16h24.05.732,lexical_decision_task_MP,2020.1.3,MacIntel,60,,z,1,0.633905,,,,,,,,0.633905,1,,,,,,447,NW,UN,33,sadent,GIRCUE,z,,,,,,-0.168789063,-0.092041016,0,0,0,,0,48,48,386,1,
,,,,,,,,,,,,,,,,,,5d7a098214f08f00164031a0,2020-08-10_16h24.05.732,lexical_decision_task_MP,2020.1.3,MacIntel,60,,z,1,0.935,,,,,,,,0.935,1,,,,,,242,NW,UN,50,musied,UNWERT,z,,,,,,-0.168789063,-0.092041016,0,0,0,,0,49,49,421,1,
,,,,,,,,,,,,,,,,,,5d7a098214f08f00164031a0,2020-08-10_16h24.05.732,lexical_decision_task_MP,2020.1.3,MacIntel,60,,m,1,1.248885,,,,,,,,1.248885,1,,,,,,16,WORD,UN,50,charge,FAUCET,m,,,,,,-0.168789063,-0.092041016,0,0,0,,0,50,50,195,1,
,,,,,,,,,,,,,,,,,,5d7a098214f08f00164031a0,2020-08-10_16h24.05.732,lexical_decision_task_MP,2020.1.3,MacIntel,60,,m,1,1.264985,,,,,,,,1.264985,1,,,,,,115,WORD,"ID",33,guitar,GUITAR,m,,,,,,-0.168789063,-0.092041016,0,0,0,,0,51,51,54,1,
,,,,,,,,,,,,,,,,,,5d7a098214f08f00164031a0,2020-08-10_16h24.05.732,lexical_decision_task_MP,2020.1.3,MacIntel,60,,m,1,0.88778,,,,,,,,0.88778,1,,,,,,200,WORD,UN,33,admire,BEACON,m,,,,,,-0.168789063,-0.092041016,0,0,0,,0,52,52,139,1,
,,,,,,,,,,,,,,,,,,5d7a098214f08f00164031a0,2020-08-10_16h24.05.732,lexical_decision_task_MP,2020.1.3,MacIntel,60,,z,1,0.63812,,,,,,,,0.63812,1,,,,,,367,NW,"ID",50,slique,SLIQUE,z,,,,,,-0.168789063,-0.092041016,0,0,0,,0,53,53,306,1,
,,,,,,,,,,,,,,,,,,5d7a098214f08f00164031a0,2020-08-10_16h24.05.732,lexical_decision_task_MP,2020.1.3,MacIntel,60,,z,1,0.55569,,,,,,,,0.55569,1,,,,,,477,NW,UN,33,lobush,PHOTIE,z,,,,,,-0.168789063,-0.092041016,0,0,0,,0,54,54,416,1,
,,,,,,,,,,,,,,,,,,5d7a098214f08f00164031a0,2020-08-10_16h24.05.732,lexical_decision_task_MP,2020.1.3,MacIntel,60,,z,0,0.56809,,,,,,,,0.56809,0,,,,,,29,WORD,UN,50,orient,SKETCH,m,,,,,,-0.168789063,-0.092041016,0,0,0,,0,55,55,208,1,
,,,,,,,,,,,,,,,,,,5d7a098214f08f00164031a0,2020-08-10_16h24.05.732,lexical_decision_task_MP,2020.1.3,MacIntel,60,,m,1,0.634805,,,,,,,,0.634805,1,,,,,,88,WORD,"ID",33,hunger,HUNGER,m,,,,,,-0.168789063,-0.092041016,0,0,0,,0,56,56,27,1,
,,,,,,,,,,,,,,,,,,5d7a098214f08f00164031a0,2020-08-10_16h24.05.732,lexical_decision_task_MP,2020.1.3,MacIntel,60,,z,1,1.41696,,,,,,,,1.41696,1,,,,,,453,NW,UN,33,scouge,BOLVIS,z,,,,,,-0.168789063,-0.092041016,0,0,0,,0,57,57,392,1,
,,,,,,,,,,,,,,,,,,5d7a098214f08f00164031a0,2020-08-10_16h24.05.732,lexical_decision_task_MP,2020.1.3,MacIntel,60,,m,1,0.632875,,,,,,,,0.632875,1,,,,,,26,WORD,UN,50,butler,SPRINT,m,,,,,,-0.168789063,-0.092041016,0,0,0,,0,58,58,205,1,
,,,,,,,,,,,,,,,,,,5d7a098214f08f00164031a0,2020-08-10_16h24.05.732,lexical_decision_task_MP,2020.1.3,MacIntel,60,,m,1,0.583645,,,,,,,,0.583645,1,,,,,,198,WORD,UN,33,invoke,WICKED,m,,,,,,-0.168789063,-0.092041016,0,0,0,,0,59,59,137,1,
,,,,,,,,,,,,,,,,,,5d7a098214f08f00164031a0,2020-08-10_16h24.05.732,lexical_decision_task_MP,2020.1.3,MacIntel,60,,m,1,0.616305,,,,,,,,0.616305,1,,,,,,64,WORD,"ID",33,throne,THRONE,m,,,,,,-0.168789063,-0.092041016,0,0,0,,0,60,60,3,1,
,,,,,,,,,,,,,,,,,,5d7a098214f08f00164031a0,2020-08-10_16h24.05.732,lexical_decision_task_MP,2020.1.3,MacIntel,60,,m,1,0.499985,,,,,,,,0.499985,1,,,,,,71,WORD,"ID",33,garden,GARDEN,m,,,,,,-0.168789063,-0.092041016,0,0,0,,0,61,61,10,1,
,,,,,,,,,,,,,,,,,,5d7a098214f08f00164031a0,2020-08-10_16h24.05.732,lexical_decision_task_MP,2020.1.3,MacIntel,60,,m,1,0.867245,,,,,,,,0.867245,1,,,,,,185,WORD,UN,33,portal,BOTHER,m,,,,,,-0.168789063,-0.092041016,0,0,0,,0,62,62,124,1,
,,,,,,,,,,,,,,,,,,5d7a098214f08f00164031a0,2020-08-10_16h24.05.732,lexical_decision_task_MP,2020.1.3,MacIntel,60,,z,1,0.839655,,,,,,,,0.839655,1,,,,,,342,NW,"ID",33,randow,RANDOW,z,,,,,,-0.168789063,-0.092041016,0,0,0,,0,63,63,281,1,
,,,,,,,,,,,,,,,,,,5d7a098214f08f00164031a0,2020-08-10_16h24.05.732,lexical_decision_task_MP,2020.1.3,MacIntel,60,,m,1,0.66789,,,,,,,,0.66789,1,,,,,,196,WORD,UN,33,stream,CREDIT,m,,,,,,-0.168789063,-0.092041016,0,0,0,,0,64,64,135,1,
,,,,,,,,,,,,,,,,,,5d7a098214f08f00164031a0,2020-08-10_16h24.05.732,lexical_decision_task_MP,2020.1.3,MacIntel,60,,m,1,0.617275,,,,,,,,0.617275,1,,,,,,160,WORD,"ID",50,violet,VIOLET,m,,,,,,-0.168789063,-0.092041016,0,0,0,,0,65,65,99,1,
,,,,,,,,,,,,,,,,,,5d7a098214f08f00164031a0,2020-08-10_16h24.05.732,lexical_decision_task_MP,2020.1.3,MacIntel,60,,m,1,0.59167,,,,,,,,0.59167,1,,,,,,31,WORD,UN,50,buckle,WEAPON,m,,,,,,-0.168789063,-0.092041016,0,0,0,,0,66,66,210,1,
,,,,,,,,,,,,,,,,,,5d7a098214f08f00164031a0,2020-08-10_16h24.05.732,lexical_decision_task_MP,2020.1.3,MacIntel,60,,z,1,0.69092,,,,,,,,0.69092,1,,,,,,437,NW,UN,33,baitch,SNAPEL,z,,,,,,-0.168789063,-0.092041016,0,0,0,,0,67,67,376,1,
,,,,,,,,,,,,,,,,,,5d7a098214f08f00164031a0,2020-08-10_16h24.05.732,lexical_decision_task_MP,2020.1.3,MacIntel,60,,z,1,0.63291,,,,,,,,0.63291,1,,,,,,300,NW,UN,50,smenco,YARION,z,,,,,,-0.168789063,-0.092041016,0,0,0,,0,68,68,479,1,
,,,,,,,,,,,,,,,,,,5d7a098214f08f00164031a0,2020-08-10_16h24.05.732,lexical_decision_task_MP,2020.1.3,MacIntel,60,,m,0,0.57182,,,,,,,,0.57182,0,,,,,,433,NW,UN,33,pitrom,DRANCE,z,,,,,,-0.168789063,-0.092041016,0,0,0,,0,69,69,372,1,
,,,,,,,,,,,,,,,,,,5d7a098214f08f00164031a0,2020-08-10_16h24.05.732,lexical_decision_task_MP,2020.1.3,MacIntel,60,,z,1,0.666495,,,,,,,,0.666495,1,,,,,,256,NW,UN,50,veniod,INLORS,z,,,,,,-0.168789063,-0.092041016,0,0,0,,0,70,70,435,1,
,,,,,,,,,,,,,,,,,,5d7a098214f08f00164031a0,2020-08-10_16h24.05.732,lexical_decision_task_MP,2020.1.3,MacIntel,60,,z,1,0.533495,,,,,,,,0.533495,1,,,,,,414,NW,"ID",50,serbol,SERBOL,z,,,,,,-0.168789063,-0.092041016,0,0,0,,0,71,71,353,1,
,,,,,,,,,,,,,,,,,,5d7a098214f08f00164031a0,2020-08-10_16h24.05.732,lexical_decision_task_MP,2020.1.3,MacIntel,60,,m,1,0.767855,,,,,,,,0.767855,1,,,,,,22,WORD,UN,50,wealth,JOCKEY,m,,,,,,-0.168789063,-0.092041016,0,0,0,,0,72,72,201,1,
,,,,,,,,,,,,,,,,,,5d7a098214f08f00164031a0,2020-08-10_16h24.05.732,lexical_decision_task_MP,2020.1.3,MacIntel,60,,z,1,0.80323,,,,,,,,0.80323,1,,,,,,363,NW,"ID",50,breali,BREALI,z,,,,,,-0.168789063,-0.092041016,0,0,0,,0,73,73,302,1,
,,,,,,,,,,,,,,,,,,5d7a098214f08f00164031a0,2020-08-10_16h24.05.732,lexical_decision_task_MP,2020.1.3,MacIntel,60,,m,1,0.550805,,,,,,,,0.550805,1,,,,,,210,WORD,UN,33,infect,MONKEY,m,,,,,,-0.168789063,-0.092041016,0,0,0,,0,74,74,149,1,
,,,,,,,,,,,,,,,,,,5d7a098214f08f00164031a0,2020-08-10_16h24.05.732,lexical_decision_task_MP,2020.1.3,MacIntel,60,,m,1,0.630815,,,,,,,,0.630815,1,,,,,,15,WORD,UN,50,faucet,AMOUNT,m,,,,,,-0.168789063,-0.092041016,0,0,0,,0,75,75,194,1,
,,,,,,,,,,,,,,,,,,5d7a098214f08f00164031a0,2020-08-10_16h24.05.732,lexical_decision_task_MP,2020.1.3,MacIntel,60,,m,1,0.63403,,,,,,,,0.63403,1,,,,,,236,WORD,UN,33,grumpy,PIRATE,m,,,,,,-0.168789063,-0.092041016,0,0,0,,0,76,76,175,1,
,,,,,,,,,,,,,,,,,,5d7a098214f08f00164031a0,2020-08-10_16h24.05.732,lexical_decision_task_MP,2020.1.3,MacIntel,60,,m,1,0.60625,,,,,,,,0.60625,1,,,,,,186,WORD,UN,33,course,PORTAL,m,,,,,,-0.168789063,-0.092041016,0,0,0,,0,77,77,125,1,
,,,,,,,,,,,,,,,,,,5d7a098214f08f00164031a0,2020-08-10_16h24.05.732,lexical_decision_task_MP,2020.1.3,MacIntel,60,,m,1,0.767035,,,,,,,,0.767035,1,,,,,,217,WORD,UN,33,shrink,LIQUOR,m,,,,,,-0.168789063,-0.092041016,0,0,0,,0,78,78,156,1,
,,,,,,,,,,,,,,,,,,5d7a098214f08f00164031a0,2020-08-10_16h24.05.732,lexical_decision_task_MP,2020.1.3,MacIntel,60,,m,1,0.583165,,,,,,,,0.583165,1,,,,,,162,WORD,"ID",50,candle,CANDLE,m,,,,,,-0.168789063,-0.092041016,0,0,0,,0,79,79,101,1,
,,,,,,,,,,,,,,,,,,5d7a098214f08f00164031a0,2020-08-10_16h24.05.732,lexical_decision_task_MP,2020.1.3,MacIntel,60,,m,1,0.583745,,,,,,,,0.583745,1,,,,,,135,WORD,"ID",50,import,IMPORT,m,,,,,,-0.168789063,-0.092041016,0,0,0,,0,80,80,74,1,
,,,,,,,,,,,,,,,,,,5d7a098214f08f00164031a0,2020-08-10_16h24.05.732,lexical_decision_task_MP,2020.1.3,MacIntel,60,,z,1,0.72288,,,,,,,,0.72288,1,,,,,,319,NW,"ID",33,zomber,ZOMBER,z,,,,,,-0.168789063,-0.092041016,0,0,0,,0,81,81,258,1,
,,,,,,,,,,,,,,,,,,5d7a098214f08f00164031a0,2020-08-10_16h24.05.732,lexical_decision_task_MP,2020.1.3,MacIntel,60,,m,1,1.166535,,,,,,,,1.166535,1,,,,,,59,WORD,UN,50,pencil,SPLINT,m,,,,,,-0.168789063,-0.092041016,0,0,0,,0,82,82,238,1,
,,,,,,,,,,,,,,,,,,5d7a098214f08f00164031a0,2020-08-10_16h24.05.732,lexical_decision_task_MP,2020.1.3,MacIntel,60,,z,1,0.588425,,,,,,,,0.588425,1,,,,,,308,NW,"ID",33,psetch,PSETCH,z,,,,,,-0.168789063,-0.092041016,0,0,0,,0,83,83,247,1,
,,,,,,,,,,,,,,,,,,5d7a098214f08f00164031a0,2020-08-10_16h24.05.732,lexical_decision_task_MP,2020.1.3,MacIntel,60,,z,1,0.517625,,,,,,,,0.517625,1,,,,,,293,NW,UN,50,inhort,SWANCE,z,,,,,,-0.168789063,-0.092041016,0,0,0,,0,84,84,472,1,
,,,,,,,,,,,,,,,,,,5d7a098214f08f00164031a0,2020-08-10_16h24.05.732,lexical_decision_task_MP,2020.1.3,MacIntel,60,,z,1,0.73917,,,,,,,,0.73917,1,,,,,,257,NW,UN,50,poluth,VENIOD,z,,,,,,-0.168789063,-0.092041016,0,0,0,,0,85,85,436,1,
,,,,,,,,,,,,,,,,,,5d7a098214f08f00164031a0,2020-08-10_16h24.05.732,lexical_decision_task_MP,2020.1.3,MacIntel,60,,z,1,0.60206,,,,,,,,0.60206,1,,,,,,352,NW,"ID",33,tringe,TRINGE,z,,,,,,-0.168789063,-0.092041016,0,0,0,,0,86,86,291,1,
,,,,,,,,,,,,,,,,,,5d7a098214f08f00164031a0,2020-08-10_16h24.05.732,lexical_decision_task_MP,2020.1.3,MacIntel,60,,z,1,0.819425,,,,,,,,0.819425,1,,,,,,455,NW,UN,33,broget,TONDLE,z,,,,,,-0.168789063,-0.092041016,0,0,0,,0,87,87,394,1,
,,,,,,,,,,,,,,,,,,5d7a098214f08f00164031a0,2020-08-10_16h24.05.732,lexical_decision_task_MP,2020.1.3,MacIntel,60,,z,1,0.66731,,,,,,,,0.66731,1,,,,,,263,NW,UN,50,vackel,DOLICA,z,,,,,,-0.168789063,-0.092041016,0,0,0,,0,88,88,442,1,
,,,,,,,,,,,,,,,,,,5d7a098214f08f00164031a0,2020-08-10_16h24.05.732,lexical_decision_task_MP,2020.1.3,MacIntel,60,,z,1,0.567645,,,,,,,,0.567645,1,,,,,,375,NW,"ID",50,yorque,YORQUE,z,,,,,,-0.168789063,-0.092041016,0,0,0,,0,89,89,314,1,
,,,,,,,,,,,,,,,,,,5d7a098214f08f00164031a0,2020-08-10_16h24.05.732,lexical_decision_task_MP,2020.1.3,MacIntel,60,,z,1,0.633675,,,,,,,,0.633675,1,,,,,,384,NW,"ID",50,guesco,GUESCO,z,,,,,,-0.168789063,-0.092041016,0,0,0,,0,90,90,323,1,
,,,,,,,,,,,,,,,,,,5d7a098214f08f00164031a0,2020-08-10_16h24.05.732,lexical_decision_task_MP,2020.1.3,MacIntel,60,,z,1,0.61795,,,,,,,,0.61795,1,,,,,,370,NW,"ID",50,sleact,SLEACT,z,,,,,,-0.168789063,-0.092041016,0,0,0,,0,91,91,309,1,
,,,,,,,,,,,,,,,,,,5d7a098214f08f00164031a0,2020-08-10_16h24.05.732,lexical_decision_task_MP,2020.1.3,MacIntel,60,,z,1,0.61667,,,,,,,,0.61667,1,,,,,,365,NW,"ID",50,guairt,GUAIRT,z,,,,,,-0.168789063,-0.092041016,0,0,0,,0,92,92,304,1,
,,,,,,,,,,,,,,,,,,5d7a098214f08f00164031a0,2020-08-10_16h24.05.732,lexical_decision_task_MP,2020.1.3,MacIntel,60,,z,1,0.701115,,,,,,,,0.701115,1,,,,,,378,NW,"ID",50,shrile,SHRILE,z,,,,,,-0.168789063,-0.092041016,0,0,0,,0,93,93,317,1,
,,,,,,,,,,,,,,,,,,5d7a098214f08f00164031a0,2020-08-10_16h24.05.732,lexical_decision_task_MP,2020.1.3,MacIntel,60,,m,1,0.684445,,,,,,,,0.684445,1,,,,,,161,WORD,"ID",50,pastor,PASTOR,m,,,,,,-0.168789063,-0.092041016,0,0,0,,0,94,94,100,1,
,,,,,,,,,,,,,,,,,,5d7a098214f08f00164031a0,2020-08-10_16h24.05.732,lexical_decision_task_MP,2020.1.3,MacIntel,60,,z,1,0.86681,,,,,,,,0.86681,1,,,,,,469,NW,UN,33,crudio,PADIFS,z,,,,,,-0.168789063,-0.092041016,0,0,0,,0,95,95,408,1,
,,,,,,,,,,,,,,,,,,5d7a098214f08f00164031a0,2020-08-10_16h24.05.732,lexical_decision_task_MP,2020.1.3,MacIntel,60,,z,1,0.90277,,,,,,,,0.90277,1,,,,,,409,NW,"ID",50,elopia,ELOPIA,z,,,,,,-0.168789063,-0.092041016,0,0,0,,0,96,96,348,1,
,,,,,,,,,,,,,,,,,,5d7a098214f08f00164031a0,2020-08-10_16h24.05.732,lexical_decision_task_MP,2020.1.3,MacIntel,60,,m,1,0.69961,,,,,,,,0.69961,1,,,,,,125,WORD,"ID",50,nickel,NICKEL,m,,,,,,-0.168789063,-0.092041016,0,0,0,,0,97,97,64,1,
,,,,,,,,,,,,,,,,,,5d7a098214f08f00164031a0,2020-08-10_16h24.05.732,lexical_decision_task_MP,2020.1.3,MacIntel,60,,m,1,0.83516,,,,,,,,0.83516,1,,,,,,93,WORD,"ID",33,public,PUBLIC,m,,,,,,-0.168789063,-0.092041016,0,0,0,,0,98,98,32,1,
,,,,,,,,,,,,,,,,,,5d7a098214f08f00164031a0,2020-08-10_16h24.05.732,lexical_decision_task_MP,2020.1.3,MacIntel,60,,z,1,0.62245,,,,,,,,0.62245,1,,,,,,385,NW,"ID",50,veigma,VEIGMA,z,,,,,,-0.168789063,-0.092041016,0,0,0,,0,99,99,324,1,
,,,,,,,,,,,,,,,,,,5d7a098214f08f00164031a0,2020-08-10_16h24.05.732,lexical_decision_task_MP,2020.1.3,MacIntel,60,,z,1,0.61634,,,,,,,,0.61634,1,,,,,,382,NW,"ID",50,sarley,SARLEY,z,,,,,,-0.168789063,-0.092041016,0,0,0,,0,100,100,321,1,
,,,,,,,,,,,,,,,,,,5d7a098214f08f00164031a0,2020-08-10_16h24.05.732,lexical_decision_task_MP,2020.1.3,MacIntel,60,,z,1,0.564535,,,,,,,,0.564535,1,,,,,,340,NW,"ID",33,fiatch,FIATCH,z,,,,,,-0.168789063,-0.092041016,0,0,0,,0,101,101,279,1,
,,,,,,,,,,,,,,,,,,5d7a098214f08f00164031a0,2020-08-10_16h24.05.732,lexical_decision_task_MP,2020.1.3,MacIntel,60,,m,1,0.55507,,,,,,,,0.55507,1,,,,,,83,WORD,"ID",33,result,RESULT,m,,,,,,-0.168789063,-0.092041016,0,0,0,,0,102,102,22,1,
,,,,,,,,,,,,,,,,,,5d7a098214f08f00164031a0,2020-08-10_16h24.05.732,lexical_decision_task_MP,2020.1.3,MacIntel,60,,z,1,0.987255,,,,,,,,0.987255,1,,,,,,250,NW,UN,50,lupict,MILTED,z,,,,,,-0.168789063,-0.092041016,0,0,0,,0,103,103,429,1,
,,,,,,,,,,,,,,,,,,5d7a098214f08f00164031a0,2020-08-10_16h24.05.732,lexical_decision_task_MP,2020.1.3,MacIntel,60,,z,1,0.549415,,,,,,,,0.549415,1,,,,,,393,NW,"ID",50,ganous,GANOUS,z,,,,,,-0.168789063,-0.092041016,0,0,0,,0,104,104,332,1,
,,,,,,,,,,,,,,,,,,5d7a098214f08f00164031a0,2020-08-10_16h24.05.732,lexical_decision_task_MP,2020.1.3,MacIntel,60,,z,1,0.52027,,,,,,,,0.52027,1,,,,,,417,NW,"ID",50,earoud,EAROUD,z,,,,,,-0.168789063,-0.092041016,0,0,0,,0,105,105,356,1,
,,,,,,,,,,,,,,,,,,5d7a098214f08f00164031a0,2020-08-10_16h24.05.732,lexical_decision_task_MP,2020.1.3,MacIntel,60,,m,1,0.73292,,,,,,,,0.73292,1,,,,,,62,WORD,"ID",33,region,REGION,m,,,,,,-0.168789063,-0.092041016,0,0,0,,0,106,106,1,1,
,,,,,,,,,,,,,,,,,,5d7a098214f08f00164031a0,2020-08-10_16h24.05.732,lexical_decision_task_MP,2020.1.3,MacIntel,60,,z,1,0.701775,,,,,,,,0.701775,1,,,,,,380,NW,"ID",50,cavory,CAVORY,z,,,,,,-0.168789063,-0.092041016,0,0,0,,0,107,107,319,1,
,,,,,,,,,,,,,,,,,,5d7a098214f08f00164031a0,2020-08-10_16h24.05.732,lexical_decision_task_MP,2020.1.3,MacIntel,60,,m,1,0.65533,,,,,,,,0.65533,1,,,,,,224,WORD,UN,33,vulgar,PERIOD,m,,,,,,-0.168789063,-0.092041016,0,0,0,,0,108,108,163,1,
,,,,,,,,,,,,,,,,,,5d7a098214f08f00164031a0,2020-08-10_16h24.05.732,lexical_decision_task_MP,2020.1.3,MacIntel,60,,m,1,0.573335,,,,,,,,0.573335,1,,,,,,55,WORD,UN,50,ambush,STROKE,m,,,,,,-0.168789063,-0.092041016,0,0,0,,0,109,109,234,1,
,,,,,,,,,,,,,,,,,,5d7a098214f08f00164031a0,2020-08-10_16h24.05.732,lexical_decision_task_MP,2020.1.3,MacIntel,60,,m,1,0.605775,,,,,,,,0.605775,1,,,,,,9,WORD,UN,50,bridge,HUSTLE,m,,,,,,-0.168789063,-0.092041016,0,0,0,,0,110,110,188,1,
,,,,,,,,,,,,,,,,,,5d7a098214f08f00164031a0,2020-08-10_16h24.05.732,lexical_decision_task_MP,2020.1.3,MacIntel,60,,m,1,0.535655,,,,,,,,0.535655,1,,,,,,14,WORD,UN,50,orange,ALMOST,m,,,,,,-0.168789063,-0.092041016,0,0,0,,0,111,111,193,1,
,,,,,,,,,,,,,,,,,,5d7a098214f08f00164031a0,2020-08-10_16h24.05.732,lexical_decision_task_MP,2020.1.3,MacIntel,60,,m,1,0.51787,,,,,,,,0.51787,1,,,,,,79,WORD,"ID",33,theory,THEORY,m,,,,,,-0.168789063,-0.092041016,0,0,0,,0,112,112,18,1,
,,,,,,,,,,,,,,,,,,5d7a098214f08f00164031a0,2020-08-10_16h24.05.732,lexical_decision_task_MP,2020.1.3,MacIntel,60,,m,1,0.54723,,,,,,,,0.54723,1,,,,,,95,WORD,"ID",33,thread,THREAD,m,,,,,,-0.168789063,-0.092041016,0,0,0,,0,113,113,34,1,
,,,,,,,,,,,,,,,,,,5d7a098214f08f00164031a0,2020-08-10_16h24.05.732,lexical_decision_task_MP,2020.1.3,MacIntel,60,,m,1,0.688235,,,,,,,,0.688235,1,,,,,,228,WORD,UN,33,kidney,MASTER,m,,,,,,-0.168789063,-0.092041016,0,0,0,,0,114,114,167,1,
,,,,,,,,,,,,,,,,,,5d7a098214f08f00164031a0,2020-08-10_16h24.05.732,lexical_decision_task_MP,2020.1.3,MacIntel,60,,z,1,0.61753,,,,,,,,0.61753,1,,,,,,310,NW,"ID",33,daniet,DANIET,z,,,,,,-0.168789063,-0.092041016,0,0,0,,0,115,115,249,1,
,,,,,,,,,,,,,,,,,,5d7a098214f08f00164031a0,2020-08-10_16h24.05.732,lexical_decision_task_MP,2020.1.3,MacIntel,60,,m,1,0.667475,,,,,,,,0.667475,1,,,,,,220,WORD,UN,33,mascot,VOYAGE,m,,,,,,-0.168789063,-0.092041016,0,0,0,,0,116,116,159,1,
,,,,,,,,,,,,,,,,,,5d7a098214f08f00164031a0,2020-08-10_16h24.05.732,lexical_decision_task_MP,2020.1.3,MacIntel,60,,m,1,0.60173,,,,,,,,0.60173,1,,,,,,47,WORD,UN,50,walnut,INCOME,m,,,,,,-0.168789063,-0.092041016,0,0,0,,0,117,117,226,1,
,,,,,,,,,,,,,,,,,,5d7a098214f08f00164031a0,2020-08-10_16h24.05.732,lexical_decision_task_MP,2020.1.3,MacIntel,60,,m,0,0.600125,,,,,,,,0.600125,0,,,,,,407,NW,"ID",50,suiver,SUIVER,z,,,,,,-0.168789063,-0.092041016,0,0,0,,0,118,118,346,1,
,,,,,,,,,,,,,,,,,,5d7a098214f08f00164031a0,2020-08-10_16h24.05.732,lexical_decision_task_MP,2020.1.3,MacIntel,60,,z,1,0.696435,,,,,,,,0.696435,1,,,,,,262,NW,UN,50,dolica,QUILEW,z,,,,,,-0.168789063,-0.092041016,0,0,0,,0,119,119,441,1,
,,,,,,,,,,,,,,,,,,5d7a098214f08f00164031a0,2020-08-10_16h24.05.732,lexical_decision_task_MP,2020.1.3,MacIntel,60,,m,1,0.65108,,,,,,,,0.65108,1,,,,,,189,WORD,UN,33,backup,CENSOR,m,,,,,,-0.168789063,-0.092041016,0,0,0,space,0,120,120,128,1,8.76049
,,,,,,,,,,,,,,,,,,5d7a098214f08f00164031a0,2020-08-10_16h24.05.732,lexical_decision_task_MP,2020.1.3,MacIntel,60,,z,0,0.536315,,,,,,,,0.536315,0,,,,,,61,WORD,"ID",33,ponder,PONDER,m,,,,,,-0.168789063,-0.092041016,0,0,0,,0,121,121,0,1,
,,,,,,,,,,,,,,,,,,5d7a098214f08f00164031a0,2020-08-10_16h24.05.732,lexical_decision_task_MP,2020.1.3,MacIntel,60,,m,1,0.568215,,,,,,,,0.568215,1,,,,,,33,WORD,UN,50,jungle,BUTLER,m,,,,,,-0.168789063,-0.092041016,0,0,0,,0,122,122,212,1,
,,,,,,,,,,,,,,,,,,5d7a098214f08f00164031a0,2020-08-10_16h24.05.732,lexical_decision_task_MP,2020.1.3,MacIntel,60,,z,1,0.631655,,,,,,,,0.631655,1,,,,,,346,NW,"ID",33,saudic,SAUDIC,z,,,,,,-0.168789063,-0.092041016,0,0,0,,0,123,123,285,1,
,,,,,,,,,,,,,,,,,,5d7a098214f08f00164031a0,2020-08-10_16h24.05.732,lexical_decision_task_MP,2020.1.3,MacIntel,60,,z,1,0.840795,,,,,,,,0.840795,1,,,,,,426,NW,UN,33,schind,URIVEL,z,,,,,,-0.168789063,-0.092041016,0,0,0,,0,124,124,365,1,
,,,,,,,,,,,,,,,,,,5d7a098214f08f00164031a0,2020-08-10_16h24.05.732,lexical_decision_task_MP,2020.1.3,MacIntel,60,,z,1,0.67067,,,,,,,,0.67067,1,,,,,,320,NW,"ID",33,jockal,JOCKAL,z,,,,,,-0.168789063,-0.092041016,0,0,0,,0,125,125,259,1,
,,,,,,,,,,,,,,,,,,5d7a098214f08f00164031a0,2020-08-10_16h24.05.732,lexical_decision_task_MP,2020.1.3,MacIntel,60,,z,0,0.532975,,,,,,,,0.532975,0,,,,,,225,WORD,UN,33,casino,VULGAR,m,,,,,,-0.168789063,-0.092041016,0,0,0,,0,126,126,164,1,
,,,,,,,,,,,,,,,,,,5d7a098214f08f00164031a0,2020-08-10_16h24.05.732,lexical_decision_task_MP,2020.1.3,MacIntel,60,,z,1,0.68569,,,,,,,,0.68569,1,,,,,,381,NW,"ID",50,huniek,HUNIEK,z,,,,,,-0.168789063,-0.092041016,0,0,0,,0,127,127,320,1,
,,,,,,,,,,,,,,,,,,5d7a098214f08f00164031a0,2020-08-10_16h24.05.732,lexical_decision_task_MP,2020.1.3,MacIntel,60,,z,1,0.88624,,,,,,,,0.88624,1,,,,,,376,NW,"ID",50,iguare,IGUARE,z,,,,,,-0.168789063,-0.092041016,0,0,0,,0,128,128,315,1,
,,,,,,,,,,,,,,,,,,5d7a098214f08f00164031a0,2020-08-10_16h24.05.732,lexical_decision_task_MP,2020.1.3,MacIntel,60,,m,1,0.733795,,,,,,,,0.733795,1,,,,,,42,WORD,UN,50,tongue,CHAPEL,m,,,,,,-0.168789063,-0.092041016,0,0,0,,0,129,129,221,1,
,,,,,,,,,,,,,,,,,,5d7a098214f08f00164031a0,2020-08-10_16h24.05.732,lexical_decision_task_MP,2020.1.3,MacIntel,60,,z,1,0.617975,,,,,,,,0.617975,1,,,,,,464,NW,UN,33,whivex,CHAITE,z,,,,,,-0.168789063,-0.092041016,0,0,0,,0,130,130,403,1,
,,,,,,,,,,,,,,,,,,5d7a098214f08f00164031a0,2020-08-10_16h24.05.732,lexical_decision_task_MP,2020.1.3,MacIntel,60,,z,1,0.706515,,,,,,,,0.706515,1,,,,,,281,NW,UN,50,porlex,MELATY,z,,,,,,-0.168789063,-0.092041016,0,0,0,,0,131,131,460,1,
,,,,,,,,,,,,,,,,,,5d7a098214f08f00164031a0,2020-08-10_16h24.05.732,lexical_decision_task_MP,2020.1.3,MacIntel,60,,m,1,0.538295,,,,,,,,0.538295,1,,,,,,193,WORD,UN,33,mildew,OBJECT,m,,,,,,-0.168789063,-0.092041016,0,0,0,,0,132,132,132,1,
,,,,,,,,,,,,,,,,,,5d7a098214f08f00164031a0,2020-08-10_16h24.05.732,lexical_decision_task_MP,2020.1.3,MacIntel,60,,z,1,0.59993,,,,,,,,0.59993,1,,,,,,350,NW,"ID",33,nagurs,NAGURS,z,,,,,,-0.168789063,-0.092041016,0,0,0,,0,133,133,289,1,
,,,,,,,,,,,,,,,,,,5d7a098214f08f00164031a0,2020-08-10_16h24.05.732,lexical_decision_task_MP,2020.1.3,MacIntel,60,,m,1,0.68491,,,,,,,,0.68491,1,,,,,,139,WORD,"ID",50,debris,DEBRIS,m,,,,,,-0.168789063,-0.092041016,0,0,0,,0,134,134,78,1,
,,,,,,,,,,,,,,,,,,5d7a098214f08f00164031a0,2020-08-10_16h24.05.732,lexical_decision_task_MP,2020.1.3,MacIntel,60,,m,1,0.6022,,,,,,,,0.6022,1,,,,,,96,WORD,"ID",33,ignore,IGNORE,m,,,,,,-0.168789063,-0.092041016,0,0,0,,0,135,135,35,1,
,,,,,,,,,,,,,,,,,,5d7a098214f08f00164031a0,2020-08-10_16h24.05.732,lexical_decision_task_MP,2020.1.3,MacIntel,60,,m,1,0.96863,,,,,,,,0.96863,1,,,,,,19,WORD,UN,50,breast,PATRON,m,,,,,,-0.168789063,-0.092041016,0,0,0,,0,136,136,198,1,
,,,,,,,,,,,,,,,,,,5d7a098214f08f00164031a0,2020-08-10_16h24.05.732,lexical_decision_task_MP,2020.1.3,MacIntel,60,,m,1,0.499825,,,,,,,,0.499825,1,,,,,,21,WORD,UN,50,jockey,SIMPLE,m,,,,,,-0.168789063,-0.092041016,0,0,0,,0,137,137,200,1,
,,,,,,,,,,,,,,,,,,5d7a098214f08f00164031a0,2020-08-10_16h24.05.732,lexical_decision_task_MP,2020.1.3,MacIntel,60,,m,0,0.5323,,,,,,,,0.5323,0,,,,,,284,NW,UN,50,prudge,SHAPLE,z,,,,,,-0.168789063,-0.092041016,0,0,0,,0,138,138,463,1,
,,,,,,,,,,,,,,,,,,5d7a098214f08f00164031a0,2020-08-10_16h24.05.732,lexical_decision_task_MP,2020.1.3,MacIntel,60,,m,1,0.988545,,,,,,,,0.988545,1,,,,,,92,WORD,"ID",33,strand,STRAND,m,,,,,,-0.168789063,-0.092041016,0,0,0,,0,139,139,31,1,
,,,,,,,,,,,,,,,,,,5d7a098214f08f00164031a0,2020-08-10_16h24.05.732,lexical_decision_task_MP,2020.1.3,MacIntel,60,,z,1,0.860255,,,,,,,,0.860255,1,,,,,,246,NW,UN,50,blarge,PIATON,z,,,,,,-0.168789063,-0.092041016,0,0,0,,0,140,140,425,1,
,,,,,,,,,,,,,,,,,,5d7a098214f08f00164031a0,2020-08-10_16h24.05.732,lexical_decision_task_MP,2020.1.3,MacIntel,60,,m,0,0.73377,,,,,,,,0.73377,0,,,,,,253,NW,UN,50,varosh,RESAIT,z,,,,,,-0.168789063,-0.092041016,0,0,0,,0,141,141,432,1,
,,,,,,,,,,,,,,,,,,5d7a098214f08f00164031a0,2020-08-10_16h24.05.732,lexical_decision_task_MP,2020.1.3,MacIntel,60,,m,1,0.66395,,,,,,,,0.66395,1,,,,,,169,WORD,"ID",50,genius,GENIUS,m,,,,,,-0.168789063,-0.092041016,0,0,0,,0,142,142,108,1,
,,,,,,,,,,,,,,,,,,5d7a098214f08f00164031a0,2020-08-10_16h24.05.732,lexical_decision_task_MP,2020.1.3,MacIntel,60,,m,1,0.5991,,,,,,,,0.5991,1,,,,,,27,WORD,UN,50,comedy,SCREAM,m,,,,,,-0.168789063,-0.092041016,0,0,0,,0,143,143,206,1,
,,,,,,,,,,,,,,,,,,5d7a098214f08f00164031a0,2020-08-10_16h24.05.732,lexical_decision_task_MP,2020.1.3,MacIntel,60,,z,1,0.651175,,,,,,,,0.651175,1,,,,,,379,NW,"ID",50,auting,AUTING,z,,,,,,-0.168789063,-0.092041016,0,0,0,,0,144,144,318,1,
,,,,,,,,,,,,,,,,,,5d7a098214f08f00164031a0,2020-08-10_16h24.05.732,lexical_decision_task_MP,2020.1.3,MacIntel,60,,m,1,0.58992,,,,,,,,0.58992,1,,,,,,17,WORD,UN,50,humble,CHARGE,m,,,,,,-0.168789063,-0.092041016,0,0,0,,0,145,145,196,1,
,,,,,,,,,,,,,,,,,,5d7a098214f08f00164031a0,2020-08-10_16h24.05.732,lexical_decision_task_MP,2020.1.3,MacIntel,60,,z,1,0.672175,,,,,,,,0.672175,1,,,,,,311,NW,"ID",33,sproly,SPROLY,z,,,,,,-0.168789063,-0.092041016,0,0,0,,0,146,146,250,1,
,,,,,,,,,,,,,,,,,,5d7a098214f08f00164031a0,2020-08-10_16h24.05.732,lexical_decision_task_MP,2020.1.3,MacIntel,60,,z,1,0.699565,,,,,,,,0.699565,1,,,,,,410,NW,"ID",50,tunory,TUNORY,z,,,,,,-0.168789063,-0.092041016,0,0,0,,0,147,147,349,1,
,,,,,,,,,,,,,,,,,,5d7a098214f08f00164031a0,2020-08-10_16h24.05.732,lexical_decision_task_MP,2020.1.3,MacIntel,60,,m,1,0.787235,,,,,,,,0.787235,1,,,,,,122,WORD,"ID",50,linger,LINGER,m,,,,,,-0.168789063,-0.092041016,0,0,0,,0,148,148,61,1,
,,,,,,,,,,,,,,,,,,5d7a098214f08f00164031a0,2020-08-10_16h24.05.732,lexical_decision_task_MP,2020.1.3,MacIntel,60,,z,1,0.701475,,,,,,,,0.701475,1,,,,,,326,NW,"ID",33,iguade,IGUADE,z,,,,,,-0.168789063,-0.092041016,0,0,0,,0,149,149,265,1,
,,,,,,,,,,,,,,,,,,5d7a098214f08f00164031a0,2020-08-10_16h24.05.732,lexical_decision_task_MP,2020.1.3,MacIntel,60,,z,1,0.518485,,,,,,,,0.518485,1,,,,,,463,NW,UN,33,chaite,KISPEL,z,,,,,,-0.168789063,-0.092041016,0,0,0,,0,150,150,402,1,
,,,,,,,,,,,,,,,,,,5d7a098214f08f00164031a0,2020-08-10_16h24.05.732,lexical_decision_task_MP,2020.1.3,MacIntel,60,,z,1,0.60055,,,,,,,,0.60055,1,,,,,,442,NW,UN,33,dorsex,ABOUNE,z,,,,,,-0.168789063,-0.092041016,0,0,0,,0,151,151,381,1,
,,,,,,,,,,,,,,,,,,5d7a098214f08f00164031a0,2020-08-10_16h24.05.732,lexical_decision_task_MP,2020.1.3,MacIntel,60,,z,1,0.55072,,,,,,,,0.55072,1,,,,,,450,NW,UN,33,cainky,PHRECT,z,,,,,,-0.168789063,-0.092041016,0,0,0,,0,152,152,389,1,
,,,,,,,,,,,,,,,,,,5d7a098214f08f00164031a0,2020-08-10_16h24.05.732,lexical_decision_task_MP,2020.1.3,MacIntel,60,,z,1,0.53916,,,,,,,,0.53916,1,,,,,,292,NW,UN,50,swance,ABLINT,z,,,,,,-0.168789063,-0.092041016,0,0,0,,0,153,153,471,1,
,,,,,,,,,,,,,,,,,,5d7a098214f08f00164031a0,2020-08-10_16h24.05.732,lexical_decision_task_MP,2020.1.3,MacIntel,60,,m,1,0.80044,,,,,,,,0.80044,1,,,,,,100,WORD,"ID",33,carbon,CARBON,m,,,,,,-0.168789063,-0.092041016,0,0,0,,0,154,154,39,1,
,,,,,,,,,,,,,,,,,,5d7a098214f08f00164031a0,2020-08-10_16h24.05.732,lexical_decision_task_MP,2020.1.3,MacIntel,60,,z,1,0.653355,,,,,,,,0.653355,1,,,,,,441,NW,UN,33,aboune,RASTOE,z,,,,,,-0.168789063,-0.092041016,0,0,0,,0,155,155,380,1,
,,,,,,,,,,,,,,,,,,5d7a098214f08f00164031a0,2020-08-10_16h24.05.732,lexical_decision_task_MP,2020.1.3,MacIntel,60,,z,1,0.634525,,,,,,,,0.634525,1,,,,,,369,NW,"ID",50,wronch,WRONCH,z,,,,,,-0.168789063,-0.092041016,0,0,0,,0,156,156,308,1,
,,,,,,,,,,,,,,,,,,5d7a098214f08f00164031a0,2020-08-10_16h24.05.732,lexical_decision_task_MP,2020.1.3,MacIntel,60,,m,1,0.70073,,,,,,,,0.70073,1,,,,,,131,WORD,"ID",50,quench,QUENCH,m,,,,,,-0.168789063,-0.092041016,0,0,0,,0,157,157,70,1,
,,,,,,,,,,,,,,,,,,5d7a098214f08f00164031a0,2020-08-10_16h24.05.732,lexical_decision_task_MP,2020.1.3,MacIntel,60,,m,1,0.566915,,,,,,,,0.566915,1,,,,,,179,WORD,"ID",50,basket,BASKET,m,,,,,,-0.168789063,-0.092041016,0,0,0,,0,158,158,118,1,
,,,,,,,,,,,,,,,,,,5d7a098214f08f00164031a0,2020-08-10_16h24.05.732,lexical_decision_task_MP,2020.1.3,MacIntel,60,,z,0,0.70384,,,,,,,,0.70384,0,,,,,,195,WORD,UN,33,credit,RESIGN,m,,,,,,-0.168789063,-0.092041016,0,0,0,,0,159,159,134,1,
,,,,,,,,,,,,,,,,,,5d7a098214f08f00164031a0,2020-08-10_16h24.05.732,lexical_decision_task_MP,2020.1.3,MacIntel,60,,m,1,0.61812,,,,,,,,0.61812,1,,,,,,74,WORD,"ID",33,plaque,PLAQUE,m,,,,,,-0.168789063,-0.092041016,0,0,0,,0,160,160,13,1,
,,,,,,,,,,,,,,,,,,5d7a098214f08f00164031a0,2020-08-10_16h24.05.732,lexical_decision_task_MP,2020.1.3,MacIntel,60,,z,1,0.63757,,,,,,,,0.63757,1,,,,,,307,NW,"ID",33,kirafe,KIRAFE,z,,,,,,-0.168789063,-0.092041016,0,0,0,,0,161,161,246,1,
,,,,,,,,,,,,,,,,,,5d7a098214f08f00164031a0,2020-08-10_16h24.05.732,lexical_decision_task_MP,2020.1.3,MacIntel,60,,z,1,0.5508,,,,,,,,0.5508,1,,,,,,288,NW,UN,50,starby,YACEUP,z,,,,,,-0.168789063,-0.092041016,0,0,0,,0,162,162,467,1,
,,,,,,,,,,,,,,,,,,5d7a098214f08f00164031a0,2020-08-10_16h24.05.732,lexical_decision_task_MP,2020.1.3,MacIntel,60,,z,1,0.56379,,,,,,,,0.56379,1,,,,,,322,NW,"ID",33,slanch,SLANCH,z,,,,,,-0.168789063,-0.092041016,0,0,0,,0,163,163,261,1,
,,,,,,,,,,,,,,,,,,5d7a098214f08f00164031a0,2020-08-10_16h24.05.732,lexical_decision_task_MP,2020.1.3,MacIntel,60,,z,1,0.498465,,,,,,,,0.498465,1,,,,,,280,NW,UN,50,melaty,CURBOL,z,,,,,,-0.168789063,-0.092041016,0,0,0,,0,164,164,459,1,
,,,,,,,,,,,,,,,,,,5d7a098214f08f00164031a0,2020-08-10_16h24.05.732,lexical_decision_task_MP,2020.1.3,MacIntel,60,,m,1,0.602985,,,,,,,,0.602985,1,,,,,,209,WORD,UN,33,monkey,SEARCH,m,,,,,,-0.168789063,-0.092041016,0,0,0,,0,165,165,148,1,
,,,,,,,,,,,,,,,,,,5d7a098214f08f00164031a0,2020-08-10_16h24.05.732,lexical_decision_task_MP,2020.1.3,MacIntel,60,,z,1,0.6039,,,,,,,,0.6039,1,,,,,,341,NW,"ID",33,myrtie,MYRTIE,z,,,,,,-0.168789063,-0.092041016,0,0,0,,0,166,166,280,1,
,,,,,,,,,,,,,,,,,,5d7a098214f08f00164031a0,2020-08-10_16h24.05.732,lexical_decision_task_MP,2020.1.3,MacIntel,60,,z,1,0.566365,,,,,,,,0.566365,1,,,,,,471,NW,UN,33,cigney,NOBEST,z,,,,,,-0.168789063,-0.092041016,0,0,0,,0,167,167,410,1,
,,,,,,,,,,,,,,,,,,5d7a098214f08f00164031a0,2020-08-10_16h24.05.732,lexical_decision_task_MP,2020.1.3,MacIntel,60,,m,1,0.652025,,,,,,,,0.652025,1,,,,,,117,WORD,"ID",33,branch,BRANCH,m,,,,,,-0.168789063,-0.092041016,0,0,0,,0,168,168,56,1,
,,,,,,,,,,,,,,,,,,5d7a098214f08f00164031a0,2020-08-10_16h24.05.732,lexical_decision_task_MP,2020.1.3,MacIntel,60,,z,1,0.60375,,,,,,,,0.60375,1,,,,,,462,NW,UN,33,kispel,ABSULT,z,,,,,,-0.168789063,-0.092041016,0,0,0,,0,169,169,401,1,
,,,,,,,,,,,,,,,,,,5d7a098214f08f00164031a0,2020-08-10_16h24.05.732,lexical_decision_task_MP,2020.1.3,MacIntel,60,,m,1,0.565295,,,,,,,,0.565295,1,,,,,,39,WORD,UN,50,convey,INSECT,m,,,,,,-0.168789063,-0.092041016,0,0,0,,0,170,170,218,1,
,,,,,,,,,,,,,,,,,,5d7a098214f08f00164031a0,2020-08-10_16h24.05.732,lexical_decision_task_MP,2020.1.3,MacIntel,60,,z,1,0.633515,,,,,,,,0.633515,1,,,,,,466,NW,UN,33,robuly,HOCITE,z,,,,,,-0.168789063,-0.092041016,0,0,0,,0,171,171,405,1,
,,,,,,,,,,,,,,,,,,5d7a098214f08f00164031a0,2020-08-10_16h24.05.732,lexical_decision_task_MP,2020.1.3,MacIntel,60,,z,1,0.70164,,,,,,,,0.70164,1,,,,,,415,NW,"ID",50,higsta,HIGSTA,z,,,,,,-0.168789063,-0.092041016,0,0,0,,0,172,172,354,1,
,,,,,,,,,,,,,,,,,,5d7a098214f08f00164031a0,2020-08-10_16h24.05.732,lexical_decision_task_MP,2020.1.3,MacIntel,60,,z,1,1.45466,,,,,,,,1.45466,1,,,,,,374,NW,"ID",50,sliant,SLIANT,z,,,,,,-0.168789063,-0.092041016,0,0,0,,0,173,173,313,1,
,,,,,,,,,,,,,,,,,,5d7a098214f08f00164031a0,2020-08-10_16h24.05.732,lexical_decision_task_MP,2020.1.3,MacIntel,60,,z,1,0.75503,,,,,,,,0.75503,1,,,,,,271,NW,UN,50,damilt,AUBRID,z,,,,,,-0.168789063,-0.092041016,0,0,0,,0,174,174,450,1,
,,,,,,,,,,,,,,,,,,5d7a098214f08f00164031a0,2020-08-10_16h24.05.732,lexical_decision_task_MP,2020.1.3,MacIntel,60,,m,1,0.56714,,,,,,,,0.56714,1,,,,,,50,WORD,UN,50,hungry,SNATCH,m,,,,,,-0.168789063,-0.092041016,0,0,0,,0,175,175,229,1,
,,,,,,,,,,,,,,,,,,5d7a098214f08f00164031a0,2020-08-10_16h24.05.732,lexical_decision_task_MP,2020.1.3,MacIntel,60,,m,1,0.58297,,,,,,,,0.58297,1,,,,,,113,WORD,"ID",33,chorus,CHORUS,m,,,,,,-0.168789063,-0.092041016,0,0,0,,0,176,176,52,1,
,,,,,,,,,,,,,,,,,,5d7a098214f08f00164031a0,2020-08-10_16h24.05.732,lexical_decision_task_MP,2020.1.3,MacIntel,60,,m,1,0.582385,,,,,,,,0.582385,1,,,,,,35,WORD,UN,50,vanish,SOCKET,m,,,,,,-0.168789063,-0.092041016,0,0,0,,0,177,177,214,1,
,,,,,,,,,,,,,,,,,,5d7a098214f08f00164031a0,2020-08-10_16h24.05.732,lexical_decision_task_MP,2020.1.3,MacIntel,60,,m,1,0.51786,,,,,,,,0.51786,1,,,,,,148,WORD,"ID",50,custom,CUSTOM,m,,,,,,-0.168789063,-0.092041016,0,0,0,,0,178,178,87,1,
,,,,,,,,,,,,,,,,,,5d7a098214f08f00164031a0,2020-08-10_16h24.05.732,lexical_decision_task_MP,2020.1.3,MacIntel,60,,z,1,0.764455,,,,,,,,0.764455,1,,,,,,294,NW,UN,50,gleath,INHORT,z,,,,,,-0.168789063,-0.092041016,0,0,0,,0,179,179,473,1,
,,,,,,,,,,,,,,,,,,5d7a098214f08f00164031a0,2020-08-10_16h24.05.732,lexical_decision_task_MP,2020.1.3,MacIntel,60,,z,1,0.68361,,,,,,,,0.68361,1,,,,,,389,NW,"ID",50,witmer,WITMER,z,,,,,,-0.168789063,-0.092041016,0,0,0,,0,180,180,328,1,
,,,,,,,,,,,,,,,,,,5d7a098214f08f00164031a0,2020-08-10_16h24.05.732,lexical_decision_task_MP,2020.1.3,MacIntel,60,,m,1,0.53553,,,,,,,,0.53553,1,,,,,,164,WORD,"ID",50,market,MARKET,m,,,,,,-0.168789063,-0.092041016,0,0,0,,0,181,181,103,1,
,,,,,,,,,,,,,,,,,,5d7a098214f08f00164031a0,2020-08-10_16h24.05.732,lexical_decision_task_MP,2020.1.3,MacIntel,60,,m,1,0.54876,,,,,,,,0.54876,1,,,,,,54,WORD,UN,50,stroke,RAMBLE,m,,,,,,-0.168789063,-0.092041016,0,0,0,,0,182,182,233,1,
,,,,,,,,,,,,,,,,,,5d7a098214f08f00164031a0,2020-08-10_16h24.05.732,lexical_decision_task_MP,2020.1.3,MacIntel,60,,z,1,0.73197,,,,,,,,0.73197,1,,,,,,423,NW,UN,33,praile,STRELD,z,,,,,,-0.168789063,-0.092041016,0,0,0,,0,183,183,362,1,
,,,,,,,,,,,,,,,,,,5d7a098214f08f00164031a0,2020-08-10_16h24.05.732,lexical_decision_task_MP,2020.1.3,MacIntel,60,,m,1,0.600625,,,,,,,,0.600625,1,,,,,,194,WORD,UN,33,resign,ABSENT,m,,,,,,-0.168789063,-0.092041016,0,0,0,,0,184,184,133,1,
,,,,,,,,,,,,,,,,,,5d7a098214f08f00164031a0,2020-08-10_16h24.05.732,lexical_decision_task_MP,2020.1.3,MacIntel,60,,m,1,0.63349,,,,,,,,0.63349,1,,,,,,181,WORD,UN,33,winter,GLANCE,m,,,,,,-0.168789063,-0.092041016,0,0,0,,0,185,185,120,1,
,,,,,,,,,,,,,,,,,,5d7a098214f08f00164031a0,2020-08-10_16h24.05.732,lexical_decision_task_MP,2020.1.3,MacIntel,60,,z,1,0.63413,,,,,,,,0.63413,1,,,,,,465,NW,UN,33,bafent,WHIVEX,z,,,,,,-0.168789063,-0.092041016,0,0,0,,0,186,186,404,1,
,,,,,,,,,,,,,,,,,,5d7a098214f08f00164031a0,2020-08-10_16h24.05.732,lexical_decision_task_MP,2020.1.3,MacIntel,60,,z,1,0.92079,,,,,,,,0.92079,1,,,,,,427,NW,UN,33,tandly,SCHIND,z,,,,,,-0.168789063,-0.092041016,0,0,0,,0,187,187,366,1,
,,,,,,,,,,,,,,,,,,5d7a098214f08f00164031a0,2020-08-10_16h24.05.732,lexical_decision_task_MP,2020.1.3,MacIntel,60,,z,1,0.69762,,,,,,,,0.69762,1,,,,,,302,NW,"ID",33,miluer,MILUER,z,,,,,,-0.168789063,-0.092041016,0,0,0,,0,188,188,241,1,
,,,,,,,,,,,,,,,,,,5d7a098214f08f00164031a0,2020-08-10_16h24.05.732,lexical_decision_task_MP,2020.1.3,MacIntel,60,,z,1,0.70141,,,,,,,,0.70141,1,,,,,,366,NW,"ID",50,toshel,TOSHEL,z,,,,,,-0.168789063,-0.092041016,0,0,0,,0,189,189,305,1,
,,,,,,,,,,,,,,,,,,5d7a098214f08f00164031a0,2020-08-10_16h24.05.732,lexical_decision_task_MP,2020.1.3,MacIntel,60,,m,1,0.600135,,,,,,,,0.600135,1,,,,,,192,WORD,UN,33,object,PLAGUE,m,,,,,,-0.168789063,-0.092041016,0,0,0,,0,190,190,131,1,
,,,,,,,,,,,,,,,,,,5d7a098214f08f00164031a0,2020-08-10_16h24.05.732,lexical_decision_task_MP,2020.1.3,MacIntel,60,,m,1,0.54991,,,,,,,,0.54991,1,,,,,,52,WORD,UN,50,police,IMPOSE,m,,,,,,-0.168789063,-0.092041016,0,0,0,,0,191,191,231,1,
,,,,,,,,,,,,,,,,,,5d7a098214f08f00164031a0,2020-08-10_16h24.05.732,lexical_decision_task_MP,2020.1.3,MacIntel,60,,m,1,0.59846,,,,,,,,0.59846,1,,,,,,23,WORD,UN,50,praise,WEALTH,m,,,,,,-0.168789063,-0.092041016,0,0,0,,0,192,192,202,1,
,,,,,,,,,,,,,,,,,,5d7a098214f08f00164031a0,2020-08-10_16h24.05.732,lexical_decision_task_MP,2020.1.3,MacIntel,60,,z,1,0.567955,,,,,,,,0.567955,1,,,,,,459,NW,UN,33,mingar,BAFENT,z,,,,,,-0.168789063,-0.092041016,0,0,0,,0,193,193,398,1,
,,,,,,,,,,,,,,,,,,5d7a098214f08f00164031a0,2020-08-10_16h24.05.732,lexical_decision_task_MP,2020.1.3,MacIntel,60,,z,1,0.570255,,,,,,,,0.570255,1,,,,,,429,NW,UN,33,caroey,FUNTLE,z,,,,,,-0.168789063,-0.092041016,0,0,0,,0,194,194,368,1,
,,,,,,,,,,,,,,,,,,5d7a098214f08f00164031a0,2020-08-10_16h24.05.732,lexical_decision_task_MP,2020.1.3,MacIntel,60,,z,1,0.53363,,,,,,,,0.53363,1,,,,,,383,NW,"ID",50,aungre,AUNGRE,z,,,,,,-0.168789063,-0.092041016,0,0,0,,0,195,195,322,1,
,,,,,,,,,,,,,,,,,,5d7a098214f08f00164031a0,2020-08-10_16h24.05.732,lexical_decision_task_MP,2020.1.3,MacIntel,60,,m,1,0.60037,,,,,,,,0.60037,1,,,,,,45,WORD,UN,50,single,CLERGY,m,,,,,,-0.168789063,-0.092041016,0,0,0,,0,196,196,224,1,
,,,,,,,,,,,,,,,,,,5d7a098214f08f00164031a0,2020-08-10_16h24.05.732,lexical_decision_task_MP,2020.1.3,MacIntel,60,,m,1,0.502995,,,,,,,,0.502995,1,,,,,,40,WORD,UN,50,spring,CONVEY,m,,,,,,-0.168789063,-0.092041016,0,0,0,,0,197,197,219,1,
,,,,,,,,,,,,,,,,,,5d7a098214f08f00164031a0,2020-08-10_16h24.05.732,lexical_decision_task_MP,2020.1.3,MacIntel,60,,m,1,0.50063,,,,,,,,0.50063,1,,,,,,138,WORD,"ID",50,melody,MELODY,m,,,,,,-0.168789063,-0.092041016,0,0,0,,0,198,198,77,1,
,,,,,,,,,,,,,,,,,,5d7a098214f08f00164031a0,2020-08-10_16h24.05.732,lexical_decision_task_MP,2020.1.3,MacIntel,60,,m,1,0.56976,,,,,,,,0.56976,1,,,,,,57,WORD,UN,50,danger,CHANGE,m,,,,,,-0.168789063,-0.092041016,0,0,0,,0,199,199,236,1,
,,,,,,,,,,,,,,,,,,5d7a098214f08f00164031a0,2020-08-10_16h24.05.732,lexical_decision_task_MP,2020.1.3,MacIntel,60,,m,1,0.799665,,,,,,,,0.799665,1,,,,,,151,WORD,"ID",50,mystic,MYSTIC,m,,,,,,-0.168789063,-0.092041016,0,0,0,,0,200,200,90,1,
,,,,,,,,,,,,,,,,,,5d7a098214f08f00164031a0,2020-08-10_16h24.05.732,lexical_decision_task_MP,2020.1.3,MacIntel,60,,z,1,0.91793,,,,,,,,0.91793,1,,,,,,243,NW,UN,50,eatric,MUSIED,z,,,,,,-0.168789063,-0.092041016,0,0,0,,0,201,201,422,1,
,,,,,,,,,,,,,,,,,,5d7a098214f08f00164031a0,2020-08-10_16h24.05.732,lexical_decision_task_MP,2020.1.3,MacIntel,60,,m,1,0.65051,,,,,,,,0.65051,1,,,,,,171,WORD,"ID",50,depart,DEPART,m,,,,,,-0.168789063,-0.092041016,0,0,0,,0,202,202,110,1,
,,,,,,,,,,,,,,,,,,5d7a098214f08f00164031a0,2020-08-10_16h24.05.732,lexical_decision_task_MP,2020.1.3,MacIntel,60,,m,1,0.54791,,,,,,,,0.54791,1,,,,,,28,WORD,UN,50,sketch,COMEDY,m,,,,,,-0.168789063,-0.092041016,0,0,0,,0,203,203,207,1,
,,,,,,,,,,,,,,,,,,5d7a098214f08f00164031a0,2020-08-10_16h24.05.732,lexical_decision_task_MP,2020.1.3,MacIntel,60,,z,1,1.351795,,,,,,,,1.351795,1,,,,,,315,NW,"ID",33,laston,LASTON,z,,,,,,-0.168789063,-0.092041016,0,0,0,,0,204,204,254,1,
,,,,,,,,,,,,,,,,,,5d7a098214f08f00164031a0,2020-08-10_16h24.05.732,lexical_decision_task_MP,2020.1.3,MacIntel,60,,z,1,0.91603,,,,,,,,0.91603,1,,,,,,399,NW,"ID",50,fouret,FOURET,z,,,,,,-0.168789063,-0.092041016,0,0,0,,0,205,205,338,1,
,,,,,,,,,,,,,,,,,,5d7a098214f08f00164031a0,2020-08-10_16h24.05.732,lexical_decision_task_MP,2020.1.3,MacIntel,60,,z,1,0.513815,,,,,,,,0.513815,1,,,,,,258,NW,UN,50,soudal,POLUTH,z,,,,,,-0.168789063,-0.092041016,0,0,0,,0,206,206,437,1,
,,,,,,,,,,,,,,,,,,5d7a098214f08f00164031a0,2020-08-10_16h24.05.732,lexical_decision_task_MP,2020.1.3,MacIntel,60,,z,1,0.5658,,,,,,,,0.5658,1,,,,,,289,NW,UN,50,splino,STARBY,z,,,,,,-0.168789063,-0.092041016,0,0,0,,0,207,207,468,1,
,,,,,,,,,,,,,,,,,,5d7a098214f08f00164031a0,2020-08-10_16h24.05.732,lexical_decision_task_MP,2020.1.3,MacIntel,60,,z,1,0.50129,,,,,,,,0.50129,1,,,,,,401,NW,"ID",50,mustil,MUSTIL,z,,,,,,-0.168789063,-0.092041016,0,0,0,,0,208,208,340,1,
,,,,,,,,,,,,,,,,,,5d7a098214f08f00164031a0,2020-08-10_16h24.05.732,lexical_decision_task_MP,2020.1.3,MacIntel,60,,z,1,0.583705,,,,,,,,0.583705,1,,,,,,323,NW,"ID",33,rosail,ROSAIL,z,,,,,,-0.168789063,-0.092041016,0,0,0,,0,209,209,262,1,
,,,,,,,,,,,,,,,,,,5d7a098214f08f00164031a0,2020-08-10_16h24.05.732,lexical_decision_task_MP,2020.1.3,MacIntel,60,,m,1,0.62336,,,,,,,,0.62336,1,,,,,,75,WORD,"ID",33,trophy,TROPHY,m,,,,,,-0.168789063,-0.092041016,0,0,0,,0,210,210,14,1,
,,,,,,,,,,,,,,,,,,5d7a098214f08f00164031a0,2020-08-10_16h24.05.732,lexical_decision_task_MP,2020.1.3,MacIntel,60,,z,1,0.51977,,,,,,,,0.51977,1,,,,,,474,NW,UN,33,acrise,HABLIN,z,,,,,,-0.168789063,-0.092041016,0,0,0,,0,211,211,413,1,
,,,,,,,,,,,,,,,,,,5d7a098214f08f00164031a0,2020-08-10_16h24.05.732,lexical_decision_task_MP,2020.1.3,MacIntel,60,,m,1,0.56851,,,,,,,,0.56851,1,,,,,,82,WORD,"ID",33,stigma,STIGMA,m,,,,,,-0.168789063,-0.092041016,0,0,0,,0,212,212,21,1,
,,,,,,,,,,,,,,,,,,5d7a098214f08f00164031a0,2020-08-10_16h24.05.732,lexical_decision_task_MP,2020.1.3,MacIntel,60,,m,1,0.55167,,,,,,,,0.55167,1,,,,,,87,WORD,"ID",33,filter,FILTER,m,,,,,,-0.168789063,-0.092041016,0,0,0,,0,213,213,26,1,
,,,,,,,,,,,,,,,,,,5d7a098214f08f00164031a0,2020-08-10_16h24.05.732,lexical_decision_task_MP,2020.1.3,MacIntel,60,,m,1,0.78342,,,,,,,,0.78342,1,,,,,,86,WORD,"ID",33,rodent,RODENT,m,,,,,,-0.168789063,-0.092041016,0,0,0,,0,214,214,25,1,
,,,,,,,,,,,,,,,,,,5d7a098214f08f00164031a0,2020-08-10_16h24.05.732,lexical_decision_task_MP,2020.1.3,MacIntel,60,,m,1,0.499565,,,,,,,,0.499565,1,,,,,,233,WORD,UN,33,clumsy,NATURE,m,,,,,,-0.168789063,-0.092041016,0,0,0,,0,215,215,172,1,
,,,,,,,,,,,,,,,,,,5d7a098214f08f00164031a0,2020-08-10_16h24.05.732,lexical_decision_task_MP,2020.1.3,MacIntel,60,,m,1,0.45411,,,,,,,,0.45411,1,,,,,,172,WORD,"ID",50,patrol,PATROL,m,,,,,,-0.168789063,-0.092041016,0,0,0,,0,216,216,111,1,
,,,,,,,,,,,,,,,,,,5d7a098214f08f00164031a0,2020-08-10_16h24.05.732,lexical_decision_task_MP,2020.1.3,MacIntel,60,,z,1,0.758165,,,,,,,,0.758165,1,,,,,,443,NW,UN,33,jaunce,DORSEX,z,,,,,,-0.168789063,-0.092041016,0,0,0,,0,217,217,382,1,
,,,,,,,,,,,,,,,,,,5d7a098214f08f00164031a0,2020-08-10_16h24.05.732,lexical_decision_task_MP,2020.1.3,MacIntel,60,,m,1,1.106405,,,,,,,,1.106405,1,,,,,,202,WORD,UN,33,phrase,FACTOR,m,,,,,,-0.168789063,-0.092041016,0,0,0,,0,218,218,141,1,
,,,,,,,,,,,,,,,,,,5d7a098214f08f00164031a0,2020-08-10_16h24.05.732,lexical_decision_task_MP,2020.1.3,MacIntel,60,,m,1,0.61878,,,,,,,,0.61878,1,,,,,,214,WORD,UN,33,phobia,INTAKE,m,,,,,,-0.168789063,-0.092041016,0,0,0,,0,219,219,153,1,
,,,,,,,,,,,,,,,,,,5d7a098214f08f00164031a0,2020-08-10_16h24.05.732,lexical_decision_task_MP,2020.1.3,MacIntel,60,,m,0,0.535045,,,,,,,,0.535045,0,,,,,,291,NW,UN,50,ablint,PRETCH,z,,,,,,-0.168789063,-0.092041016,0,0,0,,0,220,220,470,1,
,,,,,,,,,,,,,,,,,,5d7a098214f08f00164031a0,2020-08-10_16h24.05.732,lexical_decision_task_MP,2020.1.3,MacIntel,60,,m,0,0.45076,,,,,,,,0.45076,0,,,,,,248,NW,UN,50,batrol,STROLE,z,,,,,,-0.168789063,-0.092041016,0,0,0,,0,221,221,427,1,
,,,,,,,,,,,,,,,,,,5d7a098214f08f00164031a0,2020-08-10_16h24.05.732,lexical_decision_task_MP,2020.1.3,MacIntel,60,,m,0,0.45988,,,,,,,,0.45988,0,,,,,,314,NW,"ID",33,sprine,SPRINE,z,,,,,,-0.168789063,-0.092041016,0,0,0,,0,222,222,253,1,
,,,,,,,,,,,,,,,,,,5d7a098214f08f00164031a0,2020-08-10_16h24.05.732,lexical_decision_task_MP,2020.1.3,MacIntel,60,,z,1,0.459515,,,,,,,,0.459515,1,,,,,,412,NW,"ID",50,jiluer,JILUER,z,,,,,,-0.168789063,-0.092041016,0,0,0,,0,223,223,351,1,
,,,,,,,,,,,,,,,,,,5d7a098214f08f00164031a0,2020-08-10_16h24.05.732,lexical_decision_task_MP,2020.1.3,MacIntel,60,,z,1,0.53278,,,,,,,,0.53278,1,,,,,,368,NW,"ID",50,hornal,HORNAL,z,,,,,,-0.168789063,-0.092041016,0,0,0,,0,224,224,307,1,
,,,,,,,,,,,,,,,,,,5d7a098214f08f00164031a0,2020-08-10_16h24.05.732,lexical_decision_task_MP,2020.1.3,MacIntel,60,,z,1,0.533275,,,,,,,,0.533275,1,,,,,,321,NW,"ID",33,miator,MIATOR,z,,,,,,-0.168789063,-0.092041016,0,0,0,,0,225,225,260,1,
,,,,,,,,,,,,,,,,,,5d7a098214f08f00164031a0,2020-08-10_16h24.05.732,lexical_decision_task_MP,2020.1.3,MacIntel,60,,z,1,0.473155,,,,,,,,0.473155,1,,,,,,265,NW,UN,50,varmit,DISTAR,z,,,,,,-0.168789063,-0.092041016,0,0,0,,0,226,226,444,1,
,,,,,,,,,,,,,,,,,,5d7a098214f08f00164031a0,2020-08-10_16h24.05.732,lexical_decision_task_MP,2020.1.3,MacIntel,60,,z,1,0.420605,,,,,,,,0.420605,1,,,,,,329,NW,"ID",33,yarike,YARIKE,z,,,,,,-0.168789063,-0.092041016,0,0,0,,0,227,227,268,1,
,,,,,,,,,,,,,,,,,,5d7a098214f08f00164031a0,2020-08-10_16h24.05.732,lexical_decision_task_MP,2020.1.3,MacIntel,60,,m,1,0.57144,,,,,,,,0.57144,1,,,,,,166,WORD,"ID",50,starch,STARCH,m,,,,,,-0.168789063,-0.092041016,0,0,0,,0,228,228,105,1,
,,,,,,,,,,,,,,,,,,5d7a098214f08f00164031a0,2020-08-10_16h24.05.732,lexical_decision_task_MP,2020.1.3,MacIntel,60,,m,1,0.50123,,,,,,,,0.50123,1,,,,,,130,WORD,"ID",50,stupid,STUPID,m,,,,,,-0.168789063,-0.092041016,0,0,0,,0,229,229,69,1,
,,,,,,,,,,,,,,,,,,5d7a098214f08f00164031a0,2020-08-10_16h24.05.732,lexical_decision_task_MP,2020.1.3,MacIntel,60,,m,1,1.02638,,,,,,,,1.02638,1,,,,,,183,WORD,UN,33,sleazy,MILDEW,m,,,,,,-0.168789063,-0.092041016,0,0,0,,0,230,230,122,1,
,,,,,,,,,,,,,,,,,,5d7a098214f08f00164031a0,2020-08-10_16h24.05.732,lexical_decision_task_MP,2020.1.3,MacIntel,60,,m,1,0.451255,,,,,,,,0.451255,1,,,,,,229,WORD,UN,33,fringe,MOTHER,m,,,,,,-0.168789063,-0.092041016,0,0,0,,0,231,231,168,1,
,,,,,,,,,,,,,,,,,,5d7a098214f08f00164031a0,2020-08-10_16h24.05.732,lexical_decision_task_MP,2020.1.3,MacIntel,60,,m,1,0.634715,,,,,,,,0.634715,1,,,,,,191,WORD,UN,33,beacon,STABLE,m,,,,,,-0.168789063,-0.092041016,0,0,0,,0,232,232,130,1,
,,,,,,,,,,,,,,,,,,5d7a098214f08f00164031a0,2020-08-10_16h24.05.732,lexical_decision_task_MP,2020.1.3,MacIntel,60,,z,1,0.533625,,,,,,,,0.533625,1,,,,,,331,NW,"ID",33,gilfew,GILFEW,z,,,,,,-0.168789063,-0.092041016,0,0,0,,0,233,233,270,1,
,,,,,,,,,,,,,,,,,,5d7a098214f08f00164031a0,2020-08-10_16h24.05.732,lexical_decision_task_MP,2020.1.3,MacIntel,60,,z,1,0.500435,,,,,,,,0.500435,1,,,,,,268,NW,UN,50,orchet,PACKES,z,,,,,,-0.168789063,-0.092041016,0,0,0,,0,234,234,447,1,
,,,,,,,,,,,,,,,,,,5d7a098214f08f00164031a0,2020-08-10_16h24.05.732,lexical_decision_task_MP,2020.1.3,MacIntel,60,,z,1,0.50073,,,,,,,,0.50073,1,,,,,,278,NW,UN,50,celond,UNIGHS,z,,,,,,-0.168789063,-0.092041016,0,0,0,,0,235,235,457,1,
,,,,,,,,,,,,,,,,,,5d7a098214f08f00164031a0,2020-08-10_16h24.05.732,lexical_decision_task_MP,2020.1.3,MacIntel,60,,z,1,0.48063,,,,,,,,0.48063,1,,,,,,327,NW,"ID",33,plenac,PLENAC,z,,,,,,-0.168789063,-0.092041016,0,0,0,,0,236,236,266,1,
,,,,,,,,,,,,,,,,,,5d7a098214f08f00164031a0,2020-08-10_16h24.05.732,lexical_decision_task_MP,2020.1.3,MacIntel,60,,z,1,0.920165,,,,,,,,0.920165,1,,,,,,355,NW,"ID",33,zingly,ZINGLY,z,,,,,,-0.168789063,-0.092041016,0,0,0,,0,237,237,294,1,
,,,,,,,,,,,,,,,,,,5d7a098214f08f00164031a0,2020-08-10_16h24.05.732,lexical_decision_task_MP,2020.1.3,MacIntel,60,,z,1,0.657225,,,,,,,,0.657225,1,,,,,,438,NW,UN,33,limpor,BAITCH,z,,,,,,-0.168789063,-0.092041016,0,0,0,,0,238,238,377,1,
,,,,,,,,,,,,,,,,,,5d7a098214f08f00164031a0,2020-08-10_16h24.05.732,lexical_decision_task_MP,2020.1.3,MacIntel,60,,m,1,1.074545,,,,,,,,1.074545,1,,,,,,89,WORD,"ID",33,permit,PERMIT,m,,,,,,-0.168789063,-0.092041016,0,0,0,,0,239,239,28,1,
,,,,,,,,,,,,,,,,,,5d7a098214f08f00164031a0,2020-08-10_16h24.05.732,lexical_decision_task_MP,2020.1.3,MacIntel,60,,m,1,0.500595,,,,,,,,0.500595,1,,,,,,85,WORD,"ID",33,sprawl,SPRAWL,m,,,,,,-0.168789063,-0.092041016,0,0,0,,0,240,240,24,1,
,,,,,,,,,,,,,,,,,,5d7a098214f08f00164031a0,2020-08-10_16h24.05.732,lexical_decision_task_MP,2020.1.3,MacIntel,60,,z,1,0.716575,,,,,,,,0.716575,1,,,,,,247,NW,UN,50,strole,BLARGE,z,,,,,,-0.168789063,-0.092041016,0,0,0,space,0,241,241,426,1,4.053315
,,,,,,,,,,,,,,,,,,5d7a098214f08f00164031a0,2020-08-10_16h24.05.732,lexical_decision_task_MP,2020.1.3,MacIntel,60,,m,1,0.70014,,,,,,,,0.70014,1,,,,,,90,WORD,"ID",33,relish,RELISH,m,,,,,,-0.168789063,-0.092041016,0,0,0,,0,242,242,29,1,
,,,,,,,,,,,,,,,,,,5d7a098214f08f00164031a0,2020-08-10_16h24.05.732,lexical_decision_task_MP,2020.1.3,MacIntel,60,,m,1,0.517265,,,,,,,,0.517265,1,,,,,,136,WORD,"ID",50,bleach,BLEACH,m,,,,,,-0.168789063,-0.092041016,0,0,0,,0,243,243,75,1,
,,,,,,,,,,,,,,,,,,5d7a098214f08f00164031a0,2020-08-10_16h24.05.732,lexical_decision_task_MP,2020.1.3,MacIntel,60,,m,1,0.518535,,,,,,,,0.518535,1,,,,,,208,WORD,UN,33,search,HOCKEY,m,,,,,,-0.168789063,-0.092041016,0,0,0,,0,244,244,147,1,
,,,,,,,,,,,,,,,,,,5d7a098214f08f00164031a0,2020-08-10_16h24.05.732,lexical_decision_task_MP,2020.1.3,MacIntel,60,,m,0,0.53301,,,,,,,,0.53301,0,,,,,,398,NW,"ID",50,blunde,BLUNDE,z,,,,,,-0.168789063,-0.092041016,0,0,0,,0,245,245,337,1,
,,,,,,,,,,,,,,,,,,5d7a098214f08f00164031a0,2020-08-10_16h24.05.732,lexical_decision_task_MP,2020.1.3,MacIntel,60,,m,1,0.61687,,,,,,,,0.61687,1,,,,,,223,WORD,UN,33,period,KIDNEY,m,,,,,,-0.168789063,-0.092041016,0,0,0,,0,246,246,162,1,
,,,,,,,,,,,,,,,,,,5d7a098214f08f00164031a0,2020-08-10_16h24.05.732,lexical_decision_task_MP,2020.1.3,MacIntel,60,,z,1,0.83731,,,,,,,,0.83731,1,,,,,,252,NW,UN,50,resait,STAPOD,z,,,,,,-0.168789063,-0.092041016,0,0,0,,0,247,247,431,1,
,,,,,,,,,,,,,,,,,,5d7a098214f08f00164031a0,2020-08-10_16h24.05.732,lexical_decision_task_MP,2020.1.3,MacIntel,60,,m,1,0.600975,,,,,,,,0.600975,1,,,,,,24,WORD,UN,50,domain,PRAISE,m,,,,,,-0.168789063,-0.092041016,0,0,0,,0,248,248,203,1,
,,,,,,,,,,,,,,,,,,5d7a098214f08f00164031a0,2020-08-10_16h24.05.732,lexical_decision_task_MP,2020.1.3,MacIntel,60,,z,1,0.842095,,,,,,,,0.842095,1,,,,,,449,NW,UN,33,phrect,BRUNGE,z,,,,,,-0.168789063,-0.092041016,0,0,0,,0,249,249,388,1,
,,,,,,,,,,,,,,,,,,5d7a098214f08f00164031a0,2020-08-10_16h24.05.732,lexical_decision_task_MP,2020.1.3,MacIntel,60,,m,0,0.63377,,,,,,,,0.63377,0,,,,,,303,NW,"ID",33,fiream,FIREAM,z,,,,,,-0.168789063,-0.092041016,0,0,0,,0,250,250,242,1,
,,,,,,,,,,,,,,,,,,5d7a098214f08f00164031a0,2020-08-10_16h24.05.732,lexical_decision_task_MP,2020.1.3,MacIntel,60,,z,1,0.70108,,,,,,,,0.70108,1,,,,,,440,NW,UN,33,rastoe,SARIDE,z,,,,,,-0.168789063,-0.092041016,0,0,0,,0,251,251,379,1,
,,,,,,,,,,,,,,,,,,5d7a098214f08f00164031a0,2020-08-10_16h24.05.732,lexical_decision_task_MP,2020.1.3,MacIntel,60,,m,1,0.638105,,,,,,,,0.638105,1,,,,,,70,WORD,"ID",33,square,SQUARE,m,,,,,,-0.168789063,-0.092041016,0,0,0,,0,252,252,9,1,
,,,,,,,,,,,,,,,,,,5d7a098214f08f00164031a0,2020-08-10_16h24.05.732,lexical_decision_task_MP,2020.1.3,MacIntel,60,,m,1,0.513855,,,,,,,,0.513855,1,,,,,,158,WORD,"ID",50,island,ISLAND,m,,,,,,-0.168789063,-0.092041016,0,0,0,,0,253,253,97,1,
,,,,,,,,,,,,,,,,,,5d7a098214f08f00164031a0,2020-08-10_16h24.05.732,lexical_decision_task_MP,2020.1.3,MacIntel,60,,z,1,0.623105,,,,,,,,0.623105,1,,,,,,290,NW,UN,50,pretch,SPLINO,z,,,,,,-0.168789063,-0.092041016,0,0,0,,0,254,254,469,1,
,,,,,,,,,,,,,,,,,,5d7a098214f08f00164031a0,2020-08-10_16h24.05.732,lexical_decision_task_MP,2020.1.3,MacIntel,60,,m,1,0.75016,,,,,,,,0.75016,1,,,,,,227,WORD,UN,33,master,SELDOM,m,,,,,,-0.168789063,-0.092041016,0,0,0,,0,255,255,166,1,
,,,,,,,,,,,,,,,,,,5d7a098214f08f00164031a0,2020-08-10_16h24.05.732,lexical_decision_task_MP,2020.1.3,MacIntel,60,,m,0,0.620945,,,,,,,,0.620945,0,,,,,,456,NW,UN,33,wanigh,BROGET,z,,,,,,-0.168789063,-0.092041016,0,0,0,,0,256,256,395,1,
,,,,,,,,,,,,,,,,,,5d7a098214f08f00164031a0,2020-08-10_16h24.05.732,lexical_decision_task_MP,2020.1.3,MacIntel,60,,m,0,0.78693,,,,,,,,0.78693,0,,,,,,305,NW,"ID",33,forgle,FORGLE,z,,,,,,-0.168789063,-0.092041016,0,0,0,,0,257,257,244,1,
,,,,,,,,,,,,,,,,,,5d7a098214f08f00164031a0,2020-08-10_16h24.05.732,lexical_decision_task_MP,2020.1.3,MacIntel,60,,m,1,0.63518,,,,,,,,0.63518,1,,,,,,238,WORD,UN,33,behalf,FLOWER,m,,,,,,-0.168789063,-0.092041016,0,0,0,,0,258,258,177,1,
,,,,,,,,,,,,,,,,,,5d7a098214f08f00164031a0,2020-08-10_16h24.05.732,lexical_decision_task_MP,2020.1.3,MacIntel,60,,z,1,0.80281,,,,,,,,0.80281,1,,,,,,298,NW,UN,50,sturch,PIERGY,z,,,,,,-0.168789063,-0.092041016,0,0,0,,0,259,259,477,1,
,,,,,,,,,,,,,,,,,,5d7a098214f08f00164031a0,2020-08-10_16h24.05.732,lexical_decision_task_MP,2020.1.3,MacIntel,60,,z,1,0.48763,,,,,,,,0.48763,1,,,,,,395,NW,"ID",50,colury,COLURY,z,,,,,,-0.168789063,-0.092041016,0,0,0,,0,260,260,334,1,
,,,,,,,,,,,,,,,,,,5d7a098214f08f00164031a0,2020-08-10_16h24.05.732,lexical_decision_task_MP,2020.1.3,MacIntel,60,,m,1,0.783235,,,,,,,,0.783235,1,,,,,,199,WORD,UN,33,plague,INVOKE,m,,,,,,-0.168789063,-0.092041016,0,0,0,,0,261,261,138,1,
,,,,,,,,,,,,,,,,,,5d7a098214f08f00164031a0,2020-08-10_16h24.05.732,lexical_decision_task_MP,2020.1.3,MacIntel,60,,m,1,0.770075,,,,,,,,0.770075,1,,,,,,69,WORD,"ID",33,plenty,PLENTY,m,,,,,,-0.168789063,-0.092041016,0,0,0,,0,262,262,8,1,
,,,,,,,,,,,,,,,,,,5d7a098214f08f00164031a0,2020-08-10_16h24.05.732,lexical_decision_task_MP,2020.1.3,MacIntel,60,,z,1,0.650385,,,,,,,,0.650385,1,,,,,,335,NW,"ID",33,desion,DESION,z,,,,,,-0.168789063,-0.092041016,0,0,0,,0,263,263,274,1,
,,,,,,,,,,,,,,,,,,5d7a098214f08f00164031a0,2020-08-10_16h24.05.732,lexical_decision_task_MP,2020.1.3,MacIntel,60,,m,1,0.737025,,,,,,,,0.737025,1,,,,,,101,WORD,"ID",33,wrench,WRENCH,m,,,,,,-0.168789063,-0.092041016,0,0,0,,0,264,264,40,1,
,,,,,,,,,,,,,,,,,,5d7a098214f08f00164031a0,2020-08-10_16h24.05.732,lexical_decision_task_MP,2020.1.3,MacIntel,60,,m,1,0.669445,,,,,,,,0.669445,1,,,,,,67,WORD,"ID",33,policy,POLICY,m,,,,,,-0.168789063,-0.092041016,0,0,0,,0,265,265,6,1,
,,,,,,,,,,,,,,,,,,5d7a098214f08f00164031a0,2020-08-10_16h24.05.732,lexical_decision_task_MP,2020.1.3,MacIntel,60,,z,1,0.684925,,,,,,,,0.684925,1,,,,,,408,NW,"ID",50,hurnia,HURNIA,z,,,,,,-0.168789063,-0.092041016,0,0,0,,0,266,266,347,1,
,,,,,,,,,,,,,,,,,,5d7a098214f08f00164031a0,2020-08-10_16h24.05.732,lexical_decision_task_MP,2020.1.3,MacIntel,60,,z,1,0.49911,,,,,,,,0.49911,1,,,,,,285,NW,UN,50,reldon,PRUDGE,z,,,,,,-0.168789063,-0.092041016,0,0,0,,0,267,267,464,1,
,,,,,,,,,,,,,,,,,,5d7a098214f08f00164031a0,2020-08-10_16h24.05.732,lexical_decision_task_MP,2020.1.3,MacIntel,60,,z,1,0.500435,,,,,,,,0.500435,1,,,,,,276,NW,UN,50,petain,YARMON,z,,,,,,-0.168789063,-0.092041016,0,0,0,,0,268,268,455,1,
,,,,,,,,,,,,,,,,,,5d7a098214f08f00164031a0,2020-08-10_16h24.05.732,lexical_decision_task_MP,2020.1.3,MacIntel,60,,m,1,0.600895,,,,,,,,0.600895,1,,,,,,174,WORD,"ID",50,turkey,TURKEY,m,,,,,,-0.168789063,-0.092041016,0,0,0,,0,269,269,113,1,
,,,,,,,,,,,,,,,,,,5d7a098214f08f00164031a0,2020-08-10_16h24.05.732,lexical_decision_task_MP,2020.1.3,MacIntel,60,,m,1,0.636435,,,,,,,,0.636435,1,,,,,,65,WORD,"ID",33,symbol,SYMBOL,m,,,,,,-0.168789063,-0.092041016,0,0,0,,0,270,270,4,1,
,,,,,,,,,,,,,,,,,,5d7a098214f08f00164031a0,2020-08-10_16h24.05.732,lexical_decision_task_MP,2020.1.3,MacIntel,60,,m,1,0.668095,,,,,,,,0.668095,1,,,,,,37,WORD,UN,50,powder,INSULT,m,,,,,,-0.168789063,-0.092041016,0,0,0,,0,271,271,216,1,
,,,,,,,,,,,,,,,,,,5d7a098214f08f00164031a0,2020-08-10_16h24.05.732,lexical_decision_task_MP,2020.1.3,MacIntel,60,,m,1,0.517735,,,,,,,,0.517735,1,,,,,,149,WORD,"ID",50,invade,INVADE,m,,,,,,-0.168789063,-0.092041016,0,0,0,,0,272,272,88,1,
,,,,,,,,,,,,,,,,,,5d7a098214f08f00164031a0,2020-08-10_16h24.05.732,lexical_decision_task_MP,2020.1.3,MacIntel,60,,z,1,0.68342,,,,,,,,0.68342,1,,,,,,448,NW,UN,33,brunge,SADENT,z,,,,,,-0.168789063,-0.092041016,0,0,0,,0,273,273,387,1,
,,,,,,,,,,,,,,,,,,5d7a098214f08f00164031a0,2020-08-10_16h24.05.732,lexical_decision_task_MP,2020.1.3,MacIntel,60,,z,1,0.81622,,,,,,,,0.81622,1,,,,,,435,NW,UN,33,frutan,IMPURB,z,,,,,,-0.168789063,-0.092041016,0,0,0,,0,274,274,374,1,
,,,,,,,,,,,,,,,,,,5d7a098214f08f00164031a0,2020-08-10_16h24.05.732,lexical_decision_task_MP,2020.1.3,MacIntel,60,,z,0,0.523325,,,,,,,,0.523325,0,,,,,,184,WORD,UN,33,bother,SLEAZY,m,,,,,,-0.168789063,-0.092041016,0,0,0,,0,275,275,123,1,
,,,,,,,,,,,,,,,,,,5d7a098214f08f00164031a0,2020-08-10_16h24.05.732,lexical_decision_task_MP,2020.1.3,MacIntel,60,,z,1,0.783635,,,,,,,,0.783635,1,,,,,,475,NW,UN,33,josted,PEBRIC,z,,,,,,-0.168789063,-0.092041016,0,0,0,,0,276,276,414,1,
,,,,,,,,,,,,,,,,,,5d7a098214f08f00164031a0,2020-08-10_16h24.05.732,lexical_decision_task_MP,2020.1.3,MacIntel,60,,m,1,0.551135,,,,,,,,0.551135,1,,,,,,44,WORD,UN,50,clergy,DANGER,m,,,,,,-0.168789063,-0.092041016,0,0,0,,0,277,277,223,1,
,,,,,,,,,,,,,,,,,,5d7a098214f08f00164031a0,2020-08-10_16h24.05.732,lexical_decision_task_MP,2020.1.3,MacIntel,60,,z,1,0.60037,,,,,,,,0.60037,1,,,,,,312,NW,"ID",33,nerawl,NERAWL,z,,,,,,-0.168789063,-0.092041016,0,0,0,,0,278,278,251,1,
,,,,,,,,,,,,,,,,,,5d7a098214f08f00164031a0,2020-08-10_16h24.05.732,lexical_decision_task_MP,2020.1.3,MacIntel,60,,m,1,0.50092,,,,,,,,0.50092,1,,,,,,63,WORD,"ID",33,launch,LAUNCH,m,,,,,,-0.168789063,-0.092041016,0,0,0,,0,279,279,2,1,
,,,,,,,,,,,,,,,,,,5d7a098214f08f00164031a0,2020-08-10_16h24.05.732,lexical_decision_task_MP,2020.1.3,MacIntel,60,,m,1,0.54731,,,,,,,,0.54731,1,,,,,,142,WORD,"ID",50,spruce,SPRUCE,m,,,,,,-0.168789063,-0.092041016,0,0,0,,0,280,280,81,1,
,,,,,,,,,,,,,,,,,,5d7a098214f08f00164031a0,2020-08-10_16h24.05.732,lexical_decision_task_MP,2020.1.3,MacIntel,60,,z,1,0.52669,,,,,,,,0.52669,1,,,,,,430,NW,UN,33,chrums,CAROEY,z,,,,,,-0.168789063,-0.092041016,0,0,0,,0,281,281,369,1,
,,,,,,,,,,,,,,,,,,5d7a098214f08f00164031a0,2020-08-10_16h24.05.732,lexical_decision_task_MP,2020.1.3,MacIntel,60,,z,0,0.636105,,,,,,,,0.636105,0,,,,,,218,WORD,UN,33,bucket,SHRINK,m,,,,,,-0.168789063,-0.092041016,0,0,0,,0,282,282,157,1,
,,,,,,,,,,,,,,,,,,5d7a098214f08f00164031a0,2020-08-10_16h24.05.732,lexical_decision_task_MP,2020.1.3,MacIntel,60,,z,1,0.71763,,,,,,,,0.71763,1,,,,,,277,NW,UN,50,unighs,PETAIN,z,,,,,,-0.168789063,-0.092041016,0,0,0,,0,283,283,456,1,
,,,,,,,,,,,,,,,,,,5d7a098214f08f00164031a0,2020-08-10_16h24.05.732,lexical_decision_task_MP,2020.1.3,MacIntel,60,,z,1,0.902505,,,,,,,,0.902505,1,,,,,,245,NW,UN,50,piaton,ANOUGS,z,,,,,,-0.168789063,-0.092041016,0,0,0,,0,284,284,424,1,
,,,,,,,,,,,,,,,,,,5d7a098214f08f00164031a0,2020-08-10_16h24.05.732,lexical_decision_task_MP,2020.1.3,MacIntel,60,,m,1,0.80077,,,,,,,,0.80077,1,,,,,,221,WORD,UN,33,hinder,MASCOT,m,,,,,,-0.168789063,-0.092041016,0,0,0,,0,285,285,160,1,
,,,,,,,,,,,,,,,,,,5d7a098214f08f00164031a0,2020-08-10_16h24.05.732,lexical_decision_task_MP,2020.1.3,MacIntel,60,,m,1,0.535415,,,,,,,,0.535415,1,,,,,,190,WORD,UN,33,stable,BACKUP,m,,,,,,-0.168789063,-0.092041016,0,0,0,,0,286,286,129,1,
,,,,,,,,,,,,,,,,,,5d7a098214f08f00164031a0,2020-08-10_16h24.05.732,lexical_decision_task_MP,2020.1.3,MacIntel,60,,z,1,0.62068,,,,,,,,0.62068,1,,,,,,269,NW,UN,50,wrimsy,ORCHET,z,,,,,,-0.168789063,-0.092041016,0,0,0,,0,287,287,448,1,
,,,,,,,,,,,,,,,,,,5d7a098214f08f00164031a0,2020-08-10_16h24.05.732,lexical_decision_task_MP,2020.1.3,MacIntel,60,,z,1,0.664105,,,,,,,,0.664105,1,,,,,,249,NW,UN,50,milted,BATROL,z,,,,,,-0.168789063,-0.092041016,0,0,0,,0,288,288,428,1,
,,,,,,,,,,,,,,,,,,5d7a098214f08f00164031a0,2020-08-10_16h24.05.732,lexical_decision_task_MP,2020.1.3,MacIntel,60,,m,1,0.497225,,,,,,,,0.497225,1,,,,,,51,WORD,UN,50,impose,HUNGRY,m,,,,,,-0.168789063,-0.092041016,0,0,0,,0,289,289,230,1,
,,,,,,,,,,,,,,,,,,5d7a098214f08f00164031a0,2020-08-10_16h24.05.732,lexical_decision_task_MP,2020.1.3,MacIntel,60,,z,1,0.64008,,,,,,,,0.64008,1,,,,,,421,NW,UN,33,alcoud,KNISMA,z,,,,,,-0.168789063,-0.092041016,0,0,0,,0,290,290,360,1,
,,,,,,,,,,,,,,,,,,5d7a098214f08f00164031a0,2020-08-10_16h24.05.732,lexical_decision_task_MP,2020.1.3,MacIntel,60,,z,1,0.57193,,,,,,,,0.57193,1,,,,,,403,NW,"ID",50,bruats,BRUATS,z,,,,,,-0.168789063,-0.092041016,0,0,0,,0,291,291,342,1,
,,,,,,,,,,,,,,,,,,5d7a098214f08f00164031a0,2020-08-10_16h24.05.732,lexical_decision_task_MP,2020.1.3,MacIntel,60,,m,1,0.602305,,,,,,,,0.602305,1,,,,,,119,WORD,"ID",33,spider,SPIDER,m,,,,,,-0.168789063,-0.092041016,0,0,0,,0,292,292,58,1,
,,,,,,,,,,,,,,,,,,5d7a098214f08f00164031a0,2020-08-10_16h24.05.732,lexical_decision_task_MP,2020.1.3,MacIntel,60,,m,1,0.517525,,,,,,,,0.517525,1,,,,,,98,WORD,"ID",33,belong,BELONG,m,,,,,,-0.168789063,-0.092041016,0,0,0,,0,293,293,37,1,
,,,,,,,,,,,,,,,,,,5d7a098214f08f00164031a0,2020-08-10_16h24.05.732,lexical_decision_task_MP,2020.1.3,MacIntel,60,,m,1,0.468995,,,,,,,,0.468995,1,,,,,,156,WORD,"ID",50,cradle,CRADLE,m,,,,,,-0.168789063,-0.092041016,0,0,0,,0,294,294,95,1,
,,,,,,,,,,,,,,,,,,5d7a098214f08f00164031a0,2020-08-10_16h24.05.732,lexical_decision_task_MP,2020.1.3,MacIntel,60,,m,1,0.500585,,,,,,,,0.500585,1,,,,,,144,WORD,"ID",50,sponge,SPONGE,m,,,,,,-0.168789063,-0.092041016,0,0,0,,0,295,295,83,1,
,,,,,,,,,,,,,,,,,,5d7a098214f08f00164031a0,2020-08-10_16h24.05.732,lexical_decision_task_MP,2020.1.3,MacIntel,60,,m,1,0.483945,,,,,,,,0.483945,1,,,,,,165,WORD,"ID",50,invest,INVEST,m,,,,,,-0.168789063,-0.092041016,0,0,0,,0,296,296,104,1,
,,,,,,,,,,,,,,,,,,5d7a098214f08f00164031a0,2020-08-10_16h24.05.732,lexical_decision_task_MP,2020.1.3,MacIntel,60,,z,1,0.75473,,,,,,,,0.75473,1,,,,,,358,NW,"ID",33,fleack,FLEACK,z,,,,,,-0.168789063,-0.092041016,0,0,0,,0,297,297,297,1,
,,,,,,,,,,,,,,,,,,5d7a098214f08f00164031a0,2020-08-10_16h24.05.732,lexical_decision_task_MP,2020.1.3,MacIntel,60,,z,1,0.767125,,,,,,,,0.767125,1,,,,,,301,NW,"ID",33,fainch,FAINCH,z,,,,,,-0.168789063,-0.092041016,0,0,0,,0,298,298,240,1,
,,,,,,,,,,,,,,,,,,5d7a098214f08f00164031a0,2020-08-10_16h24.05.732,lexical_decision_task_MP,2020.1.3,MacIntel,60,,z,1,0.519895,,,,,,,,0.519895,1,,,,,,337,NW,"ID",33,rejols,REJOLS,z,,,,,,-0.168789063,-0.092041016,0,0,0,,0,299,299,276,1,
,,,,,,,,,,,,,,,,,,5d7a098214f08f00164031a0,2020-08-10_16h24.05.732,lexical_decision_task_MP,2020.1.3,MacIntel,60,,m,1,0.634685,,,,,,,,0.634685,1,,,,,,129,WORD,"ID",50,marvel,MARVEL,m,,,,,,-0.168789063,-0.092041016,0,0,0,,0,300,300,68,1,
,,,,,,,,,,,,,,,,,,5d7a098214f08f00164031a0,2020-08-10_16h24.05.732,lexical_decision_task_MP,2020.1.3,MacIntel,60,,m,1,0.481105,,,,,,,,0.481105,1,,,,,,81,WORD,"ID",33,friend,FRIEND,m,,,,,,-0.168789063,-0.092041016,0,0,0,,0,301,301,20,1,
,,,,,,,,,,,,,,,,,,5d7a098214f08f00164031a0,2020-08-10_16h24.05.732,lexical_decision_task_MP,2020.1.3,MacIntel,60,,z,1,0.474765,,,,,,,,0.474765,1,,,,,,468,NW,UN,33,padifs,WICTOR,z,,,,,,-0.168789063,-0.092041016,0,0,0,,0,302,302,407,1,
,,,,,,,,,,,,,,,,,,5d7a098214f08f00164031a0,2020-08-10_16h24.05.732,lexical_decision_task_MP,2020.1.3,MacIntel,60,,m,1,0.549335,,,,,,,,0.549335,1,,,,,,6,WORD,UN,50,anchor,BUNDLE,m,,,,,,-0.168789063,-0.092041016,0,0,0,,0,303,303,185,1,
,,,,,,,,,,,,,,,,,,5d7a098214f08f00164031a0,2020-08-10_16h24.05.732,lexical_decision_task_MP,2020.1.3,MacIntel,60,,m,1,0.585175,,,,,,,,0.585175,1,,,,,,84,WORD,"ID",33,mortal,MORTAL,m,,,,,,-0.168789063,-0.092041016,0,0,0,,0,304,304,23,1,
,,,,,,,,,,,,,,,,,,5d7a098214f08f00164031a0,2020-08-10_16h24.05.732,lexical_decision_task_MP,2020.1.3,MacIntel,60,,z,1,0.55071,,,,,,,,0.55071,1,,,,,,349,NW,"ID",33,asylen,ASYLEN,z,,,,,,-0.168789063,-0.092041016,0,0,0,,0,305,305,288,1,
,,,,,,,,,,,,,,,,,,5d7a098214f08f00164031a0,2020-08-10_16h24.05.732,lexical_decision_task_MP,2020.1.3,MacIntel,60,,m,1,0.703405,,,,,,,,0.703405,1,,,,,,203,WORD,UN,33,burden,PHRASE,m,,,,,,-0.168789063,-0.092041016,0,0,0,,0,306,306,142,1,
,,,,,,,,,,,,,,,,,,5d7a098214f08f00164031a0,2020-08-10_16h24.05.732,lexical_decision_task_MP,2020.1.3,MacIntel,60,,m,1,0.713825,,,,,,,,0.713825,1,,,,,,68,WORD,"ID",33,fumble,FUMBLE,m,,,,,,-0.168789063,-0.092041016,0,0,0,,0,307,307,7,1,
,,,,,,,,,,,,,,,,,,5d7a098214f08f00164031a0,2020-08-10_16h24.05.732,lexical_decision_task_MP,2020.1.3,MacIntel,60,,m,1,0.517285,,,,,,,,0.517285,1,,,,,,111,WORD,"ID",33,induce,INDUCE,m,,,,,,-0.168789063,-0.092041016,0,0,0,,0,308,308,50,1,
,,,,,,,,,,,,,,,,,,5d7a098214f08f00164031a0,2020-08-10_16h24.05.732,lexical_decision_task_MP,2020.1.3,MacIntel,60,,z,1,0.681335,,,,,,,,0.681335,1,,,,,,478,NW,UN,33,pebric,ACRISE,z,,,,,,-0.168789063,-0.092041016,0,0,0,,0,309,309,417,1,
,,,,,,,,,,,,,,,,,,5d7a098214f08f00164031a0,2020-08-10_16h24.05.732,lexical_decision_task_MP,2020.1.3,MacIntel,60,,z,1,0.506105,,,,,,,,0.506105,1,,,,,,420,NW,"ID",50,gushop,GUSHOP,z,,,,,,-0.168789063,-0.092041016,0,0,0,,0,310,310,359,1,
,,,,,,,,,,,,,,,,,,5d7a098214f08f00164031a0,2020-08-10_16h24.05.732,lexical_decision_task_MP,2020.1.3,MacIntel,60,,z,1,0.500755,,,,,,,,0.500755,1,,,,,,296,NW,UN,50,fertic,BEINCH,z,,,,,,-0.168789063,-0.092041016,0,0,0,,0,311,311,475,1,
,,,,,,,,,,,,,,,,,,5d7a098214f08f00164031a0,2020-08-10_16h24.05.732,lexical_decision_task_MP,2020.1.3,MacIntel,60,,z,0,0.54706,,,,,,,,0.54706,0,,,,,,177,WORD,"ID",50,advent,ADVENT,m,,,,,,-0.168789063,-0.092041016,0,0,0,,0,312,312,116,1,
,,,,,,,,,,,,,,,,,,5d7a098214f08f00164031a0,2020-08-10_16h24.05.732,lexical_decision_task_MP,2020.1.3,MacIntel,60,,m,1,0.61725,,,,,,,,0.61725,1,,,,,,157,WORD,"ID",50,dragon,DRAGON,m,,,,,,-0.168789063,-0.092041016,0,0,0,,0,313,313,96,1,
,,,,,,,,,,,,,,,,,,5d7a098214f08f00164031a0,2020-08-10_16h24.05.732,lexical_decision_task_MP,2020.1.3,MacIntel,60,,m,1,0.481285,,,,,,,,0.481285,1,,,,,,121,WORD,"ID",50,thrive,THRIVE,m,,,,,,-0.168789063,-0.092041016,0,0,0,,0,314,314,60,1,
,,,,,,,,,,,,,,,,,,5d7a098214f08f00164031a0,2020-08-10_16h24.05.732,lexical_decision_task_MP,2020.1.3,MacIntel,60,,m,1,0.823165,,,,,,,,0.823165,1,,,,,,145,WORD,"ID",50,parish,PARISH,m,,,,,,-0.168789063,-0.092041016,0,0,0,,0,315,315,84,1,
,,,,,,,,,,,,,,,,,,5d7a098214f08f00164031a0,2020-08-10_16h24.05.732,lexical_decision_task_MP,2020.1.3,MacIntel,60,,m,1,0.48564,,,,,,,,0.48564,1,,,,,,168,WORD,"ID",50,answer,ANSWER,m,,,,,,-0.168789063,-0.092041016,0,0,0,,0,316,316,107,1,
,,,,,,,,,,,,,,,,,,5d7a098214f08f00164031a0,2020-08-10_16h24.05.732,lexical_decision_task_MP,2020.1.3,MacIntel,60,,z,1,0.686325,,,,,,,,0.686325,1,,,,,,458,NW,UN,33,hocite,BARCET,z,,,,,,-0.168789063,-0.092041016,0,0,0,,0,317,317,397,1,
,,,,,,,,,,,,,,,,,,5d7a098214f08f00164031a0,2020-08-10_16h24.05.732,lexical_decision_task_MP,2020.1.3,MacIntel,60,,m,1,0.567535,,,,,,,,0.567535,1,,,,,,46,WORD,UN,50,income,SINGLE,m,,,,,,-0.168789063,-0.092041016,0,0,0,,0,318,318,225,1,
,,,,,,,,,,,,,,,,,,5d7a098214f08f00164031a0,2020-08-10_16h24.05.732,lexical_decision_task_MP,2020.1.3,MacIntel,60,,m,1,0.53347,,,,,,,,0.53347,1,,,,,,72,WORD,"ID",33,bright,BRIGHT,m,,,,,,-0.168789063,-0.092041016,0,0,0,,0,319,319,11,1,
,,,,,,,,,,,,,,,,,,5d7a098214f08f00164031a0,2020-08-10_16h24.05.732,lexical_decision_task_MP,2020.1.3,MacIntel,60,,m,1,0.847955,,,,,,,,0.847955,1,,,,,,11,WORD,UN,50,amount,CRUISE,m,,,,,,-0.168789063,-0.092041016,0,0,0,,0,320,320,190,1,
,,,,,,,,,,,,,,,,,,5d7a098214f08f00164031a0,2020-08-10_16h24.05.732,lexical_decision_task_MP,2020.1.3,MacIntel,60,,z,1,0.566045,,,,,,,,0.566045,1,,,,,,356,NW,"ID",33,othnis,OTHNIS,z,,,,,,-0.168789063,-0.092041016,0,0,0,,0,321,321,295,1,
,,,,,,,,,,,,,,,,,,5d7a098214f08f00164031a0,2020-08-10_16h24.05.732,lexical_decision_task_MP,2020.1.3,MacIntel,60,,m,1,0.48483,,,,,,,,0.48483,1,,,,,,180,WORD,"ID",50,silent,SILENT,m,,,,,,-0.168789063,-0.092041016,0,0,0,,0,322,322,119,1,
,,,,,,,,,,,,,,,,,,5d7a098214f08f00164031a0,2020-08-10_16h24.05.732,lexical_decision_task_MP,2020.1.3,MacIntel,60,,z,1,0.6364,,,,,,,,0.6364,1,,,,,,425,NW,UN,33,urivel,FRUDGE,z,,,,,,-0.168789063,-0.092041016,0,0,0,,0,323,323,364,1,
,,,,,,,,,,,,,,,,,,5d7a098214f08f00164031a0,2020-08-10_16h24.05.732,lexical_decision_task_MP,2020.1.3,MacIntel,60,,m,1,0.549255,,,,,,,,0.549255,1,,,,,,97,WORD,"ID",33,client,CLIENT,m,,,,,,-0.168789063,-0.092041016,0,0,0,,0,324,324,36,1,
,,,,,,,,,,,,,,,,,,5d7a098214f08f00164031a0,2020-08-10_16h24.05.732,lexical_decision_task_MP,2020.1.3,MacIntel,60,,z,0,0.53562,,,,,,,,0.53562,0,,,,,,112,WORD,"ID",33,breath,BREATH,m,,,,,,-0.168789063,-0.092041016,0,0,0,,0,325,325,51,1,
,,,,,,,,,,,,,,,,,,5d7a098214f08f00164031a0,2020-08-10_16h24.05.732,lexical_decision_task_MP,2020.1.3,MacIntel,60,,z,1,0.768835,,,,,,,,0.768835,1,,,,,,457,NW,UN,33,barcet,WANIGH,z,,,,,,-0.168789063,-0.092041016,0,0,0,,0,326,326,396,1,
,,,,,,,,,,,,,,,,,,5d7a098214f08f00164031a0,2020-08-10_16h24.05.732,lexical_decision_task_MP,2020.1.3,MacIntel,60,,m,1,0.57081,,,,,,,,0.57081,1,,,,,,201,WORD,UN,33,factor,ADMIRE,m,,,,,,-0.168789063,-0.092041016,0,0,0,,0,327,327,140,1,
,,,,,,,,,,,,,,,,,,5d7a098214f08f00164031a0,2020-08-10_16h24.05.732,lexical_decision_task_MP,2020.1.3,MacIntel,60,,z,1,0.66719,,,,,,,,0.66719,1,,,,,,324,NW,"ID",33,steikh,STEIKH,z,,,,,,-0.168789063,-0.092041016,0,0,0,,0,328,328,263,1,
,,,,,,,,,,,,,,,,,,5d7a098214f08f00164031a0,2020-08-10_16h24.05.732,lexical_decision_task_MP,2020.1.3,MacIntel,60,,z,1,0.683525,,,,,,,,0.683525,1,,,,,,359,NW,"ID",33,fonver,FONVER,z,,,,,,-0.168789063,-0.092041016,0,0,0,,0,329,329,298,1,
,,,,,,,,,,,,,,,,,,5d7a098214f08f00164031a0,2020-08-10_16h24.05.732,lexical_decision_task_MP,2020.1.3,MacIntel,60,,z,1,0.782245,,,,,,,,0.782245,1,,,,,,325,NW,"ID",33,thruse,THRUSE,z,,,,,,-0.168789063,-0.092041016,0,0,0,,0,330,330,264,1,
,,,,,,,,,,,,,,,,,,5d7a098214f08f00164031a0,2020-08-10_16h24.05.732,lexical_decision_task_MP,2020.1.3,MacIntel,60,,z,1,0.599125,,,,,,,,0.599125,1,,,,,,353,NW,"ID",33,clurey,CLUREY,z,,,,,,-0.168789063,-0.092041016,0,0,0,,0,331,331,292,1,
,,,,,,,,,,,,,,,,,,5d7a098214f08f00164031a0,2020-08-10_16h24.05.732,lexical_decision_task_MP,2020.1.3,MacIntel,60,,z,1,0.486995,,,,,,,,0.486995,1,,,,,,362,NW,"ID",50,tireau,TIREAU,z,,,,,,-0.168789063,-0.092041016,0,0,0,,0,332,332,301,1,
,,,,,,,,,,,,,,,,,,5d7a098214f08f00164031a0,2020-08-10_16h24.05.732,lexical_decision_task_MP,2020.1.3,MacIntel,60,,z,1,0.518665,,,,,,,,0.518665,1,,,,,,270,NW,UN,50,aubrid,WRIMSY,z,,,,,,-0.168789063,-0.092041016,0,0,0,,0,333,333,449,1,
,,,,,,,,,,,,,,,,,,5d7a098214f08f00164031a0,2020-08-10_16h24.05.732,lexical_decision_task_MP,2020.1.3,MacIntel,60,,m,1,0.622045,,,,,,,,0.622045,1,,,,,,240,WORD,UN,33,seldom,FOREST,m,,,,,,-0.168789063,-0.092041016,0,0,0,,0,334,334,179,1,
,,,,,,,,,,,,,,,,,,5d7a098214f08f00164031a0,2020-08-10_16h24.05.732,lexical_decision_task_MP,2020.1.3,MacIntel,60,,m,1,0.705315,,,,,,,,0.705315,1,,,,,,239,WORD,UN,33,forest,LUMBER,m,,,,,,-0.168789063,-0.092041016,0,0,0,,0,335,335,178,1,
,,,,,,,,,,,,,,,,,,5d7a098214f08f00164031a0,2020-08-10_16h24.05.732,lexical_decision_task_MP,2020.1.3,MacIntel,60,,m,1,0.617635,,,,,,,,0.617635,1,,,,,,207,WORD,UN,33,hockey,WREATH,m,,,,,,-0.168789063,-0.092041016,0,0,0,,0,336,336,146,1,
,,,,,,,,,,,,,,,,,,5d7a098214f08f00164031a0,2020-08-10_16h24.05.732,lexical_decision_task_MP,2020.1.3,MacIntel,60,,z,1,0.718945,,,,,,,,0.718945,1,,,,,,259,NW,UN,50,unject,SOUDAL,z,,,,,,-0.168789063,-0.092041016,0,0,0,,0,337,337,438,1,
,,,,,,,,,,,,,,,,,,5d7a098214f08f00164031a0,2020-08-10_16h24.05.732,lexical_decision_task_MP,2020.1.3,MacIntel,60,,m,1,0.669105,,,,,,,,0.669105,1,,,,,,60,WORD,UN,50,fright,PENCIL,m,,,,,,-0.168789063,-0.092041016,0,0,0,,0,338,338,239,1,
,,,,,,,,,,,,,,,,,,5d7a098214f08f00164031a0,2020-08-10_16h24.05.732,lexical_decision_task_MP,2020.1.3,MacIntel,60,,m,0,0.54819,,,,,,,,0.54819,0,,,,,,333,NW,"ID",33,catrie,CATRIE,z,,,,,,-0.168789063,-0.092041016,0,0,0,,0,339,339,272,1,
,,,,,,,,,,,,,,,,,,5d7a098214f08f00164031a0,2020-08-10_16h24.05.732,lexical_decision_task_MP,2020.1.3,MacIntel,60,,z,1,0.63217,,,,,,,,0.63217,1,,,,,,251,NW,UN,50,stapod,LUPICT,z,,,,,,-0.168789063,-0.092041016,0,0,0,,0,340,340,430,1,
,,,,,,,,,,,,,,,,,,5d7a098214f08f00164031a0,2020-08-10_16h24.05.732,lexical_decision_task_MP,2020.1.3,MacIntel,60,,m,1,0.7012,,,,,,,,0.7012,1,,,,,,10,WORD,UN,50,cruise,ETHNIC,m,,,,,,-0.168789063,-0.092041016,0,0,0,,0,341,341,189,1,
,,,,,,,,,,,,,,,,,,5d7a098214f08f00164031a0,2020-08-10_16h24.05.732,lexical_decision_task_MP,2020.1.3,MacIntel,60,,m,1,0.60054,,,,,,,,0.60054,1,,,,,,43,WORD,UN,50,foster,TONGUE,m,,,,,,-0.168789063,-0.092041016,0,0,0,,0,342,342,222,1,
,,,,,,,,,,,,,,,,,,5d7a098214f08f00164031a0,2020-08-10_16h24.05.732,lexical_decision_task_MP,2020.1.3,MacIntel,60,,m,1,0.81748,,,,,,,,0.81748,1,,,,,,205,WORD,UN,33,tailor,LOUNGE,m,,,,,,-0.168789063,-0.092041016,0,0,0,,0,343,343,144,1,
,,,,,,,,,,,,,,,,,,5d7a098214f08f00164031a0,2020-08-10_16h24.05.732,lexical_decision_task_MP,2020.1.3,MacIntel,60,,m,1,0.483735,,,,,,,,0.483735,1,,,,,,154,WORD,"ID",50,author,AUTHOR,m,,,,,,-0.168789063,-0.092041016,0,0,0,,0,344,344,93,1,
,,,,,,,,,,,,,,,,,,5d7a098214f08f00164031a0,2020-08-10_16h24.05.732,lexical_decision_task_MP,2020.1.3,MacIntel,60,,m,1,0.467935,,,,,,,,0.467935,1,,,,,,132,WORD,"ID",50,strong,STRONG,m,,,,,,-0.168789063,-0.092041016,0,0,0,,0,345,345,71,1,
,,,,,,,,,,,,,,,,,,5d7a098214f08f00164031a0,2020-08-10_16h24.05.732,lexical_decision_task_MP,2020.1.3,MacIntel,60,,m,1,0.51616,,,,,,,,0.51616,1,,,,,,20,WORD,UN,50,simple,BREAST,m,,,,,,-0.168789063,-0.092041016,0,0,0,,0,346,346,199,1,
,,,,,,,,,,,,,,,,,,5d7a098214f08f00164031a0,2020-08-10_16h24.05.732,lexical_decision_task_MP,2020.1.3,MacIntel,60,,z,1,0.667345,,,,,,,,0.667345,1,,,,,,467,NW,UN,33,wictor,GORBIE,z,,,,,,-0.168789063,-0.092041016,0,0,0,,0,347,347,406,1,
,,,,,,,,,,,,,,,,,,5d7a098214f08f00164031a0,2020-08-10_16h24.05.732,lexical_decision_task_MP,2020.1.3,MacIntel,60,,z,1,0.633175,,,,,,,,0.633175,1,,,,,,330,NW,"ID",33,kensom,KENSOM,z,,,,,,-0.168789063,-0.092041016,0,0,0,,0,348,348,269,1,
,,,,,,,,,,,,,,,,,,5d7a098214f08f00164031a0,2020-08-10_16h24.05.732,lexical_decision_task_MP,2020.1.3,MacIntel,60,,z,1,0.497095,,,,,,,,0.497095,1,,,,,,347,NW,"ID",33,kerift,KERIFT,z,,,,,,-0.168789063,-0.092041016,0,0,0,,0,349,349,286,1,
,,,,,,,,,,,,,,,,,,5d7a098214f08f00164031a0,2020-08-10_16h24.05.732,lexical_decision_task_MP,2020.1.3,MacIntel,60,,m,1,0.50406,,,,,,,,0.50406,1,,,,,,123,WORD,"ID",50,strike,STRIKE,m,,,,,,-0.168789063,-0.092041016,0,0,0,,0,350,350,62,1,
,,,,,,,,,,,,,,,,,,5d7a098214f08f00164031a0,2020-08-10_16h24.05.732,lexical_decision_task_MP,2020.1.3,MacIntel,60,,m,1,0.534305,,,,,,,,0.534305,1,,,,,,197,WORD,UN,33,wicked,STREAM,m,,,,,,-0.168789063,-0.092041016,0,0,0,,0,351,351,136,1,
,,,,,,,,,,,,,,,,,,5d7a098214f08f00164031a0,2020-08-10_16h24.05.732,lexical_decision_task_MP,2020.1.3,MacIntel,60,,z,1,0.600655,,,,,,,,0.600655,1,,,,,,351,NW,"ID",33,tiesch,TIESCH,z,,,,,,-0.168789063,-0.092041016,0,0,0,,0,352,352,290,1,
,,,,,,,,,,,,,,,,,,5d7a098214f08f00164031a0,2020-08-10_16h24.05.732,lexical_decision_task_MP,2020.1.3,MacIntel,60,,z,1,0.58346,,,,,,,,0.58346,1,,,,,,334,NW,"ID",33,watmeg,WATMEG,z,,,,,,-0.168789063,-0.092041016,0,0,0,,0,353,353,273,1,
,,,,,,,,,,,,,,,,,,5d7a098214f08f00164031a0,2020-08-10_16h24.05.732,lexical_decision_task_MP,2020.1.3,MacIntel,60,,m,1,0.552085,,,,,,,,0.552085,1,,,,,,204,WORD,UN,33,lounge,BURDEN,m,,,,,,-0.168789063,-0.092041016,0,0,0,,0,354,354,143,1,
,,,,,,,,,,,,,,,,,,5d7a098214f08f00164031a0,2020-08-10_16h24.05.732,lexical_decision_task_MP,2020.1.3,MacIntel,60,,m,1,0.51619,,,,,,,,0.51619,1,,,,,,116,WORD,"ID",33,tumble,TUMBLE,m,,,,,,-0.168789063,-0.092041016,0,0,0,,0,355,355,55,1,
,,,,,,,,,,,,,,,,,,5d7a098214f08f00164031a0,2020-08-10_16h24.05.732,lexical_decision_task_MP,2020.1.3,MacIntel,60,,m,1,0.549615,,,,,,,,0.549615,1,,,,,,13,WORD,UN,50,almost,STRIVE,m,,,,,,-0.168789063,-0.092041016,0,0,0,,0,356,356,192,1,
,,,,,,,,,,,,,,,,,,5d7a098214f08f00164031a0,2020-08-10_16h24.05.732,lexical_decision_task_MP,2020.1.3,MacIntel,60,,m,1,0.50146,,,,,,,,0.50146,1,,,,,,159,WORD,"ID",50,detail,DETAIL,m,,,,,,-0.168789063,-0.092041016,0,0,0,,0,357,357,98,1,
,,,,,,,,,,,,,,,,,,5d7a098214f08f00164031a0,2020-08-10_16h24.05.732,lexical_decision_task_MP,2020.1.3,MacIntel,60,,m,0,0.537075,,,,,,,,0.537075,0,,,,,,361,NW,"ID",50,pauche,PAUCHE,z,,,,,,-0.168789063,-0.092041016,0,0,0,,0,358,358,300,1,
,,,,,,,,,,,,,,,,,,5d7a098214f08f00164031a0,2020-08-10_16h24.05.732,lexical_decision_task_MP,2020.1.3,MacIntel,60,,z,1,0.61693,,,,,,,,0.61693,1,,,,,,304,NW,"ID",33,cludie,CLUDIE,z,,,,,,-0.168789063,-0.092041016,0,0,0,,0,359,359,243,1,
,,,,,,,,,,,,,,,,,,5d7a098214f08f00164031a0,2020-08-10_16h24.05.732,lexical_decision_task_MP,2020.1.3,MacIntel,60,,m,1,0.69649,,,,,,,,0.69649,1,,,,,,105,WORD,"ID",33,number,NUMBER,m,,,,,,-0.168789063,-0.092041016,0,0,0,,0,360,360,44,1,
,,,,,,,,,,,,,,,,,,5d7a098214f08f00164031a0,2020-08-10_16h24.05.732,lexical_decision_task_MP,2020.1.3,MacIntel,60,,z,1,0.53421,,,,,,,,0.53421,1,,,,,,472,NW,UN,33,gorbie,CIGNEY,z,,,,,,-0.168789063,-0.092041016,0,0,0,,0,361,361,411,1,
,,,,,,,,,,,,,,,,,,5d7a098214f08f00164031a0,2020-08-10_16h24.05.732,lexical_decision_task_MP,2020.1.3,MacIntel,60,,m,1,0.68715,,,,,,,,0.68715,1,,,,,,102,WORD,"ID",33,direct,DIRECT,m,,,,,,-0.168789063,-0.092041016,0,0,0,space,0,362,362,41,1,5.515395
,,,,,,,,,,,,,,,,,,5d7a098214f08f00164031a0,2020-08-10_16h24.05.732,lexical_decision_task_MP,2020.1.3,MacIntel,60,,z,1,0.550735,,,,,,,,0.550735,1,,,,,,444,NW,UN,33,minkel,JAUNCE,z,,,,,,-0.168789063,-0.092041016,0,0,0,,0,363,363,383,1,
,,,,,,,,,,,,,,,,,,5d7a098214f08f00164031a0,2020-08-10_16h24.05.732,lexical_decision_task_MP,2020.1.3,MacIntel,60,,m,1,0.58685,,,,,,,,0.58685,1,,,,,,215,WORD,UN,33,lumber,PHOBIA,m,,,,,,-0.168789063,-0.092041016,0,0,0,,0,364,364,154,1,
,,,,,,,,,,,,,,,,,,5d7a098214f08f00164031a0,2020-08-10_16h24.05.732,lexical_decision_task_MP,2020.1.3,MacIntel,60,,z,1,0.704475,,,,,,,,0.704475,1,,,,,,338,NW,"ID",33,wreash,WREASH,z,,,,,,-0.168789063,-0.092041016,0,0,0,,0,365,365,277,1,
,,,,,,,,,,,,,,,,,,5d7a098214f08f00164031a0,2020-08-10_16h24.05.732,lexical_decision_task_MP,2020.1.3,MacIntel,60,,m,1,0.81793,,,,,,,,0.81793,1,,,,,,99,WORD,"ID",33,fluent,FLUENT,m,,,,,,-0.168789063,-0.092041016,0,0,0,,0,366,366,38,1,
,,,,,,,,,,,,,,,,,,5d7a098214f08f00164031a0,2020-08-10_16h24.05.732,lexical_decision_task_MP,2020.1.3,MacIntel,60,,z,1,1.101485,,,,,,,,1.101485,1,,,,,,261,NW,UN,50,quilew,STUNCH,z,,,,,,-0.168789063,-0.092041016,0,0,0,,0,367,367,440,1,
,,,,,,,,,,,,,,,,,,5d7a098214f08f00164031a0,2020-08-10_16h24.05.732,lexical_decision_task_MP,2020.1.3,MacIntel,60,,z,1,0.88426,,,,,,,,0.88426,1,,,,,,418,NW,"ID",50,suidle,SUIDLE,z,,,,,,-0.168789063,-0.092041016,0,0,0,,0,368,368,357,1,
,,,,,,,,,,,,,,,,,,5d7a098214f08f00164031a0,2020-08-10_16h24.05.732,lexical_decision_task_MP,2020.1.3,MacIntel,60,,m,0,0.71676,,,,,,,,0.71676,0,,,,,,260,NW,UN,50,stunch,UNJECT,z,,,,,,-0.168789063,-0.092041016,0,0,0,,0,369,369,439,1,
,,,,,,,,,,,,,,,,,,5d7a098214f08f00164031a0,2020-08-10_16h24.05.732,lexical_decision_task_MP,2020.1.3,MacIntel,60,,m,1,0.73563,,,,,,,,0.73563,1,,,,,,4,WORD,UN,50,plunge,TRENCH,m,,,,,,-0.168789063,-0.092041016,0,0,0,,0,370,370,183,1,
,,,,,,,,,,,,,,,,,,5d7a098214f08f00164031a0,2020-08-10_16h24.05.732,lexical_decision_task_MP,2020.1.3,MacIntel,60,,m,1,0.58976,,,,,,,,0.58976,1,,,,,,137,WORD,"ID",50,finger,FINGER,m,,,,,,-0.168789063,-0.092041016,0,0,0,,0,371,371,76,1,
,,,,,,,,,,,,,,,,,,5d7a098214f08f00164031a0,2020-08-10_16h24.05.732,lexical_decision_task_MP,2020.1.3,MacIntel,60,,z,1,0.52959,,,,,,,,0.52959,1,,,,,,272,NW,UN,50,sortel,DAMILT,z,,,,,,-0.168789063,-0.092041016,0,0,0,,0,372,372,451,1,
,,,,,,,,,,,,,,,,,,5d7a098214f08f00164031a0,2020-08-10_16h24.05.732,lexical_decision_task_MP,2020.1.3,MacIntel,60,,m,1,0.767095,,,,,,,,0.767095,1,,,,,,226,WORD,UN,33,flower,CASINO,m,,,,,,-0.168789063,-0.092041016,0,0,0,,0,373,373,165,1,
,,,,,,,,,,,,,,,,,,5d7a098214f08f00164031a0,2020-08-10_16h24.05.732,lexical_decision_task_MP,2020.1.3,MacIntel,60,,z,1,0.52028,,,,,,,,0.52028,1,,,,,,406,NW,"ID",50,nouply,NOUPLY,z,,,,,,-0.168789063,-0.092041016,0,0,0,,0,374,374,345,1,
,,,,,,,,,,,,,,,,,,5d7a098214f08f00164031a0,2020-08-10_16h24.05.732,lexical_decision_task_MP,2020.1.3,MacIntel,60,,z,1,0.67189,,,,,,,,0.67189,1,,,,,,313,NW,"ID",33,paurse,PAURSE,z,,,,,,-0.168789063,-0.092041016,0,0,0,,0,375,375,252,1,
,,,,,,,,,,,,,,,,,,5d7a098214f08f00164031a0,2020-08-10_16h24.05.732,lexical_decision_task_MP,2020.1.3,MacIntel,60,,z,1,0.80314,,,,,,,,0.80314,1,,,,,,473,NW,UN,33,hablin,CRIBLE,z,,,,,,-0.168789063,-0.092041016,0,0,0,,0,376,376,412,1,
,,,,,,,,,,,,,,,,,,5d7a098214f08f00164031a0,2020-08-10_16h24.05.732,lexical_decision_task_MP,2020.1.3,MacIntel,60,,z,1,0.795845,,,,,,,,0.795845,1,,,,,,244,NW,UN,50,anougs,EATRIC,z,,,,,,-0.168789063,-0.092041016,0,0,0,,0,377,377,423,1,
,,,,,,,,,,,,,,,,,,5d7a098214f08f00164031a0,2020-08-10_16h24.05.732,lexical_decision_task_MP,2020.1.3,MacIntel,60,,z,1,0.683845,,,,,,,,0.683845,1,,,,,,332,NW,"ID",33,vangue,VANGUE,z,,,,,,-0.168789063,-0.092041016,0,0,0,,0,378,378,271,1,
,,,,,,,,,,,,,,,,,,5d7a098214f08f00164031a0,2020-08-10_16h24.05.732,lexical_decision_task_MP,2020.1.3,MacIntel,60,,m,1,0.726015,,,,,,,,0.726015,1,,,,,,120,WORD,"ID",33,strain,STRAIN,m,,,,,,-0.168789063,-0.092041016,0,0,0,,0,379,379,59,1,
,,,,,,,,,,,,,,,,,,5d7a098214f08f00164031a0,2020-08-10_16h24.05.732,lexical_decision_task_MP,2020.1.3,MacIntel,60,,m,0,0.534485,,,,,,,,0.534485,0,,,,,,345,NW,"ID",33,absend,ABSEND,z,,,,,,-0.168789063,-0.092041016,0,0,0,,0,380,380,284,1,
,,,,,,,,,,,,,,,,,,5d7a098214f08f00164031a0,2020-08-10_16h24.05.732,lexical_decision_task_MP,2020.1.3,MacIntel,60,,m,1,0.487155,,,,,,,,0.487155,1,,,,,,146,WORD,"ID",50,couple,COUPLE,m,,,,,,-0.168789063,-0.092041016,0,0,0,,0,381,381,85,1,
,,,,,,,,,,,,,,,,,,5d7a098214f08f00164031a0,2020-08-10_16h24.05.732,lexical_decision_task_MP,2020.1.3,MacIntel,60,,m,0,0.46457,,,,,,,,0.46457,0,,,,,,316,NW,"ID",33,scregm,SCREGM,z,,,,,,-0.168789063,-0.092041016,0,0,0,,0,382,382,255,1,
,,,,,,,,,,,,,,,,,,5d7a098214f08f00164031a0,2020-08-10_16h24.05.732,lexical_decision_task_MP,2020.1.3,MacIntel,60,,z,1,1.1505,,,,,,,,1.1505,1,,,,,,275,NW,UN,50,yarmon,SLEIRT,z,,,,,,-0.168789063,-0.092041016,0,0,0,,0,383,383,454,1,
,,,,,,,,,,,,,,,,,,5d7a098214f08f00164031a0,2020-08-10_16h24.05.732,lexical_decision_task_MP,2020.1.3,MacIntel,60,,m,1,0.632305,,,,,,,,0.632305,1,,,,,,152,WORD,"ID",50,rocket,ROCKET,m,,,,,,-0.168789063,-0.092041016,0,0,0,,0,384,384,91,1,
,,,,,,,,,,,,,,,,,,5d7a098214f08f00164031a0,2020-08-10_16h24.05.732,lexical_decision_task_MP,2020.1.3,MacIntel,60,,z,0,0.50069,,,,,,,,0.50069,0,,,,,,109,WORD,"ID",33,wonder,WONDER,m,,,,,,-0.168789063,-0.092041016,0,0,0,,0,385,385,48,1,
,,,,,,,,,,,,,,,,,,5d7a098214f08f00164031a0,2020-08-10_16h24.05.732,lexical_decision_task_MP,2020.1.3,MacIntel,60,,z,1,0.668045,,,,,,,,0.668045,1,,,,,,318,NW,"ID",33,reagly,REAGLY,z,,,,,,-0.168789063,-0.092041016,0,0,0,,0,386,386,257,1,
,,,,,,,,,,,,,,,,,,5d7a098214f08f00164031a0,2020-08-10_16h24.05.732,lexical_decision_task_MP,2020.1.3,MacIntel,60,,m,1,0.900835,,,,,,,,0.900835,1,,,,,,5,WORD,UN,50,bundle,PLUNGE,m,,,,,,-0.168789063,-0.092041016,0,0,0,,0,387,387,184,1,
,,,,,,,,,,,,,,,,,,5d7a098214f08f00164031a0,2020-08-10_16h24.05.732,lexical_decision_task_MP,2020.1.3,MacIntel,60,,z,1,0.649195,,,,,,,,0.649195,1,,,,,,354,NW,"ID",33,virlex,VIRLEX,z,,,,,,-0.168789063,-0.092041016,0,0,0,,0,388,388,293,1,
,,,,,,,,,,,,,,,,,,5d7a098214f08f00164031a0,2020-08-10_16h24.05.732,lexical_decision_task_MP,2020.1.3,MacIntel,60,,z,1,0.61935,,,,,,,,0.61935,1,,,,,,411,NW,"ID",50,orchin,ORCHIN,z,,,,,,-0.168789063,-0.092041016,0,0,0,,0,389,389,350,1,
,,,,,,,,,,,,,,,,,,5d7a098214f08f00164031a0,2020-08-10_16h24.05.732,lexical_decision_task_MP,2020.1.3,MacIntel,60,,z,1,0.585135,,,,,,,,0.585135,1,,,,,,416,NW,"ID",50,pathel,PATHEL,z,,,,,,-0.168789063,-0.092041016,0,0,0,,0,390,390,355,1,
,,,,,,,,,,,,,,,,,,5d7a098214f08f00164031a0,2020-08-10_16h24.05.732,lexical_decision_task_MP,2020.1.3,MacIntel,60,,m,1,0.51813,,,,,,,,0.51813,1,,,,,,170,WORD,"ID",50,pounce,POUNCE,m,,,,,,-0.168789063,-0.092041016,0,0,0,,0,391,391,109,1,
,,,,,,,,,,,,,,,,,,5d7a098214f08f00164031a0,2020-08-10_16h24.05.732,lexical_decision_task_MP,2020.1.3,MacIntel,60,,z,0,0.601925,,,,,,,,0.601925,0,,,,,,80,WORD,"ID",33,family,FAMILY,m,,,,,,-0.168789063,-0.092041016,0,0,0,,0,392,392,19,1,
,,,,,,,,,,,,,,,,,,5d7a098214f08f00164031a0,2020-08-10_16h24.05.732,lexical_decision_task_MP,2020.1.3,MacIntel,60,,m,1,0.76993,,,,,,,,0.76993,1,,,,,,232,WORD,UN,33,nature,INJECT,m,,,,,,-0.168789063,-0.092041016,0,0,0,,0,393,393,171,1,
,,,,,,,,,,,,,,,,,,5d7a098214f08f00164031a0,2020-08-10_16h24.05.732,lexical_decision_task_MP,2020.1.3,MacIntel,60,,z,1,0.737065,,,,,,,,0.737065,1,,,,,,439,NW,UN,33,saride,LIMPOR,z,,,,,,-0.168789063,-0.092041016,0,0,0,,0,394,394,378,1,
