counterbalancing_condition,instr_done_keyboard.keys,instr_done_keyboard.rt,instr_done_touch.x,instr_done_touch.y,instr_done_touch.leftButton,instr_done_touch.midButton,instr_done_touch.rightButton,instruction_pages.thisRepN,instruction_pages.thisTrialN,instruction_pages.thisN,instruction_pages.thisIndex,instruction_pages.ran,pageN,phase,instruct_text,has_image,instruct_image,participant,date,expName,psychopyVersion,OS,frameRate,response.keys,response.corr,response.rt,touch_resp.x,touch_resp.y,touch_resp.leftButton,touch_resp.midButton,touch_resp.rightButton,touch_resp.time,touch_resp.clicked_name,rt,corr,practice_trials.thisRepN,practice_trials.thisTrialN,practice_trials.thisN,practice_trials.thisIndex,practice_trials.ran,TrialID,StimulusType,Condition,PrimeDuration,Prime,Target,corrAns,end_of_practice_trials_pages.thisRepN,end_of_practice_trials_pages.thisTrialN,end_of_practice_trials_pages.thisN,end_of_practice_trials_pages.thisIndex,end_of_practice_trials_pages.ran,break_done_touch.x,break_done_touch.y,break_done_touch.leftButton,break_done_touch.midButton,break_done_touch.rightButton,break_done_keyboard.keys,trials.thisRepN,trials.thisTrialN,trials.thisN,trials.thisIndex,trials.ran,break_done_keyboard.rt
1,space,13.541635,0.269444444,-0.215740741,0,0,0,0,0,0,0,1,1,instructions,"INSTRUCTIONS
At the start of each trial, look at the hash marks (######) in the center of the screen. After a moment, a string of letters will appear. Your task is to indicate if the letter string forms a word or not (i.e., if it is a nonword). For example, AUTHOR is a word while AUTHON is a nonword.

Press the space bar or touch the button below to continue.",0,,5d86c09df681a1001a8dddc8,2020-08-10_10h48.12.110,lexical_decision_task_MP,2020.1.3,Win32,60,,,,,,,,,,,,,,,,,,,,,,,,,,,,,,,,,,,,,,,,,
,space,15.369145,0.269444444,-0.215740741,0,0,0,0,1,1,1,1,2,instructions,"If your device has a keyboard, press the 'Z' key for nonwords and the 'M' key for words.





Press the space bar or touch the button below to continue.",1,keyboard-example.gif,5d86c09df681a1001a8dddc8,2020-08-10_10h48.12.110,lexical_decision_task_MP,2020.1.3,Win32,60,,,,,,,,,,,,,,,,,,,,,,,,,,,,,,,,,,,,,,,,,
,space,4.68154,0.269444444,-0.215740741,0,0,0,0,2,2,2,1,3,instructions,"If you are using a touchscreen only device, use the buttons on the screen. Do not use the mouse.





Press the space bar or touch the button below to continue.",1,touchscreen-example.gif,5d86c09df681a1001a8dddc8,2020-08-10_10h48.12.110,lexical_decision_task_MP,2020.1.3,Win32,60,,,,,,,,,,,,,,,,,,,,,,,,,,,,,,,,,,,,,,,,,
,space,11.458935,0.269444444,-0.215740741,0,0,0,0,3,3,3,1,4,instructions,"It is very important that you respond as quickly and accurately as possible, as each letter string will only be on the screen for two seconds. If you do not respond within this time, the message 'Too slow!' will be displayed and the experiment will progress to the next letter string. The first 20 trials will be practice trials and you will receive feedback on your answers. 

Press the space bar or touch the button below to start the practice trials.",0,,5d86c09df681a1001a8dddc8,2020-08-10_10h48.12.110,lexical_decision_task_MP,2020.1.3,Win32,60,,,,,,,,,,,,,,,,,,,,,,,,,,,,,,,,,,,,,,,,,
,,,,,,,,,,,,,,,,,,5d86c09df681a1001a8dddc8,2020-08-10_10h48.12.110,lexical_decision_task_MP,2020.1.3,Win32,60,m,1,1.232445,,,,,,,,1.232445,1,0,0,0,1,1,1002,WORD,"ID",33,adjust,ADJUST,m,,,,,,,,,,,,,,,,,
,,,,,,,,,,,,,,,,,,5d86c09df681a1001a8dddc8,2020-08-10_10h48.12.110,lexical_decision_task_MP,2020.1.3,Win32,60,z,1,1.01808,,,,,,,,1.01808,1,0,1,1,12,1,1013,NW,UN,33,adveil,SPRINY,z,,,,,,,,,,,,,,,,,
,,,,,,,,,,,,,,,,,,5d86c09df681a1001a8dddc8,2020-08-10_10h48.12.110,lexical_decision_task_MP,2020.1.3,Win32,60,m,1,0.71725,,,,,,,,0.71725,1,0,2,2,2,1,1003,WORD,"ID",50,almond,ALMOND,m,,,,,,,,,,,,,,,,,
,,,,,,,,,,,,,,,,,,5d86c09df681a1001a8dddc8,2020-08-10_10h48.12.110,lexical_decision_task_MP,2020.1.3,Win32,60,m,1,0.68388,,,,,,,,0.68388,1,0,3,3,7,1,1008,WORD,UN,50,hurdle,VOLUME,m,,,,,,,,,,,,,,,,,
,,,,,,,,,,,,,,,,,,5d86c09df681a1001a8dddc8,2020-08-10_10h48.12.110,lexical_decision_task_MP,2020.1.3,Win32,60,m,1,0.667555,,,,,,,,0.667555,1,0,4,4,0,1,1001,WORD,"ID",33,utopia,UTOPIA,m,,,,,,,,,,,,,,,,,
,,,,,,,,,,,,,,,,,,5d86c09df681a1001a8dddc8,2020-08-10_10h48.12.110,lexical_decision_task_MP,2020.1.3,Win32,60,z,1,0.60479,,,,,,,,0.60479,1,0,5,5,9,1,1010,NW,"ID",33,fariny,FARINY,z,,,,,,,,,,,,,,,,,
,,,,,,,,,,,,,,,,,,5d86c09df681a1001a8dddc8,2020-08-10_10h48.12.110,lexical_decision_task_MP,2020.1.3,Win32,60,z,1,0.71879,,,,,,,,0.71879,1,0,6,6,14,1,1015,NW,UN,50,miaber,THRALE,z,,,,,,,,,,,,,,,,,
,,,,,,,,,,,,,,,,,,5d86c09df681a1001a8dddc8,2020-08-10_10h48.12.110,lexical_decision_task_MP,2020.1.3,Win32,60,m,1,0.733955,,,,,,,,0.733955,1,0,7,7,6,1,1007,WORD,UN,50,tropic,ZOMBIE,m,,,,,,,,,,,,,,,,,
,,,,,,,,,,,,,,,,,,5d86c09df681a1001a8dddc8,2020-08-10_10h48.12.110,lexical_decision_task_MP,2020.1.3,Win32,60,m,1,0.483315,,,,,,,,0.483315,1,0,8,8,5,1,1006,WORD,UN,33,frenzy,OBTAIN,m,,,,,,,,,,,,,,,,,
,,,,,,,,,,,,,,,,,,5d86c09df681a1001a8dddc8,2020-08-10_10h48.12.110,lexical_decision_task_MP,2020.1.3,Win32,60,z,1,0.555515,,,,,,,,0.555515,1,0,9,9,13,1,1014,NW,UN,33,winfer,ROUPET,z,,,,,,,,,,,,,,,,,
,,,,,,,,,,,,,,,,,,5d86c09df681a1001a8dddc8,2020-08-10_10h48.12.110,lexical_decision_task_MP,2020.1.3,Win32,60,z,1,0.700995,,,,,,,,0.700995,1,0,10,10,15,1,1016,NW,UN,50,mushed,WHAISE,z,,,,,,,,,,,,,,,,,
,,,,,,,,,,,,,,,,,,5d86c09df681a1001a8dddc8,2020-08-10_10h48.12.110,lexical_decision_task_MP,2020.1.3,Win32,60,m,0,0.617885,,,,,,,,0.617885,0,0,11,11,8,1,1009,NW,"ID",33,aslert,ASLERT,z,,,,,,,,,,,,,,,,,
,,,,,,,,,,,,,,,,,,5d86c09df681a1001a8dddc8,2020-08-10_10h48.12.110,lexical_decision_task_MP,2020.1.3,Win32,60,z,1,0.71797,,,,,,,,0.71797,1,0,12,12,10,1,1011,NW,"ID",50,inlade,INLADE,z,,,,,,,,,,,,,,,,,
,,,,,,,,,,,,,,,,,,5d86c09df681a1001a8dddc8,2020-08-10_10h48.12.110,lexical_decision_task_MP,2020.1.3,Win32,60,m,1,0.600185,,,,,,,,0.600185,1,0,13,13,4,1,1005,WORD,UN,33,abound,SQUEAK,m,,,,,,,,,,,,,,,,,
,,,,,,,,,,,,,,,,,,5d86c09df681a1001a8dddc8,2020-08-10_10h48.12.110,lexical_decision_task_MP,2020.1.3,Win32,60,m,1,0.55747,,,,,,,,0.55747,1,0,14,14,3,1,1004,WORD,"ID",50,matrix,MATRIX,m,,,,,,,,,,,,,,,,,
,,,,,,,,,,,,,,,,,,5d86c09df681a1001a8dddc8,2020-08-10_10h48.12.110,lexical_decision_task_MP,2020.1.3,Win32,60,z,1,0.66788,,,,,,,,0.66788,1,0,15,15,11,1,1012,NW,"ID",50,rashet,RASHET,z,,,,,,,,,,,,,,,,,
,space,14.30741,0.269444444,-0.215740741,0,0,0,,,,,,1,end_of_practice,"You have completed the practice trials. During the experimental trials, you will not receive feedback, but it is very important that you respond as quickly and accurately as possible. 
Before you begin, please ensure that you are in a comfortable and quiet location and will not be disturbed for about 15 minutes, as we cannot use your data if you do not complete all the trials. 
There will be opportunities to take breaks at regular intervals during the experiment. When you are ready to start the experimental trials, please press space or touch the button below.",,,5d86c09df681a1001a8dddc8,2020-08-10_10h48.12.110,lexical_decision_task_MP,2020.1.3,Win32,60,,,,,,,,,,,,,,,,,,,,,,,,,0,0,0,0,1,,,,,,,,,,,,
,,,,,,,,,,,,,,,,,,5d86c09df681a1001a8dddc8,2020-08-10_10h48.12.110,lexical_decision_task_MP,2020.1.3,Win32,60,z,1,0.68469,,,,,,,,0.68469,1,,,,,,250,NW,"ID",33,milted,MILTED,z,,,,,,0.269444444,-0.215740741,0,0,0,,0,0,0,249,1,
,,,,,,,,,,,,,,,,,,5d86c09df681a1001a8dddc8,2020-08-10_10h48.12.110,lexical_decision_task_MP,2020.1.3,Win32,60,z,1,0.74986,,,,,,,,0.74986,1,,,,,,326,NW,"ID",50,iguade,IGUADE,z,,,,,,0.269444444,-0.215740741,0,0,0,,0,1,1,325,1,
,,,,,,,,,,,,,,,,,,5d86c09df681a1001a8dddc8,2020-08-10_10h48.12.110,lexical_decision_task_MP,2020.1.3,Win32,60,z,1,0.718325,,,,,,,,0.718325,1,,,,,,372,NW,UN,33,bigent,RAMILY,z,,,,,,0.269444444,-0.215740741,0,0,0,,0,2,2,371,1,
,,,,,,,,,,,,,,,,,,5d86c09df681a1001a8dddc8,2020-08-10_10h48.12.110,lexical_decision_task_MP,2020.1.3,Win32,60,m,1,0.550405,,,,,,,,0.550405,1,,,,,,104,WORD,"ID",50,studio,STUDIO,m,,,,,,0.269444444,-0.215740741,0,0,0,,0,3,3,103,1,
,,,,,,,,,,,,,,,,,,5d86c09df681a1001a8dddc8,2020-08-10_10h48.12.110,lexical_decision_task_MP,2020.1.3,Win32,60,z,1,0.934555,,,,,,,,0.934555,1,,,,,,373,NW,UN,33,injore,BIGENT,z,,,,,,0.269444444,-0.215740741,0,0,0,,0,4,4,372,1,
,,,,,,,,,,,,,,,,,,5d86c09df681a1001a8dddc8,2020-08-10_10h48.12.110,lexical_decision_task_MP,2020.1.3,Win32,60,m,1,0.61791,,,,,,,,0.61791,1,,,,,,179,WORD,UN,33,silent,BASKET,m,,,,,,0.269444444,-0.215740741,0,0,0,,0,5,5,178,1,
,,,,,,,,,,,,,,,,,,5d86c09df681a1001a8dddc8,2020-08-10_10h48.12.110,lexical_decision_task_MP,2020.1.3,Win32,60,m,1,0.523715,,,,,,,,0.523715,1,,,,,,32,WORD,"ID",33,buckle,BUCKLE,m,,,,,,0.269444444,-0.215740741,0,0,0,,0,6,6,31,1,
,,,,,,,,,,,,,,,,,,5d86c09df681a1001a8dddc8,2020-08-10_10h48.12.110,lexical_decision_task_MP,2020.1.3,Win32,60,z,1,0.617485,,,,,,,,0.617485,1,,,,,,295,NW,"ID",33,gleath,GLEATH,z,,,,,,0.269444444,-0.215740741,0,0,0,,0,7,7,294,1,
,,,,,,,,,,,,,,,,,,5d86c09df681a1001a8dddc8,2020-08-10_10h48.12.110,lexical_decision_task_MP,2020.1.3,Win32,60,z,1,0.80567,,,,,,,,0.80567,1,,,,,,380,NW,UN,33,huniek,CAVORY,z,,,,,,0.269444444,-0.215740741,0,0,0,,0,8,8,379,1,
,,,,,,,,,,,,,,,,,,5d86c09df681a1001a8dddc8,2020-08-10_10h48.12.110,lexical_decision_task_MP,2020.1.3,Win32,60,z,1,0.6855,,,,,,,,0.6855,1,,,,,,313,NW,"ID",50,paurse,PAURSE,z,,,,,,0.269444444,-0.215740741,0,0,0,,0,9,9,312,1,
,,,,,,,,,,,,,,,,,,5d86c09df681a1001a8dddc8,2020-08-10_10h48.12.110,lexical_decision_task_MP,2020.1.3,Win32,60,m,1,0.5326,,,,,,,,0.5326,1,,,,,,30,WORD,"ID",33,orient,ORIENT,m,,,,,,0.269444444,-0.215740741,0,0,0,,0,10,10,29,1,
,,,,,,,,,,,,,,,,,,5d86c09df681a1001a8dddc8,2020-08-10_10h48.12.110,lexical_decision_task_MP,2020.1.3,Win32,60,m,1,0.55761,,,,,,,,0.55761,1,,,,,,40,WORD,"ID",33,convey,CONVEY,m,,,,,,0.269444444,-0.215740741,0,0,0,,0,11,11,39,1,
,,,,,,,,,,,,,,,,,,5d86c09df681a1001a8dddc8,2020-08-10_10h48.12.110,lexical_decision_task_MP,2020.1.3,Win32,60,z,1,0.65139,,,,,,,,0.65139,1,,,,,,477,NW,UN,50,acrise,PHOTIE,z,,,,,,0.269444444,-0.215740741,0,0,0,,0,12,12,476,1,
,,,,,,,,,,,,,,,,,,5d86c09df681a1001a8dddc8,2020-08-10_10h48.12.110,lexical_decision_task_MP,2020.1.3,Win32,60,m,1,0.66864,,,,,,,,0.66864,1,,,,,,50,WORD,"ID",33,snatch,SNATCH,m,,,,,,0.269444444,-0.215740741,0,0,0,,0,13,13,49,1,
,,,,,,,,,,,,,,,,,,5d86c09df681a1001a8dddc8,2020-08-10_10h48.12.110,lexical_decision_task_MP,2020.1.3,Win32,60,z,1,0.601085,,,,,,,,0.601085,1,,,,,,403,NW,UN,33,cluirm,BRUATS,z,,,,,,0.269444444,-0.215740741,0,0,0,,0,14,14,402,1,
,,,,,,,,,,,,,,,,,,5d86c09df681a1001a8dddc8,2020-08-10_10h48.12.110,lexical_decision_task_MP,2020.1.3,Win32,60,m,1,0.518385,,,,,,,,0.518385,1,,,,,,4,WORD,"ID",33,trench,TRENCH,m,,,,,,0.269444444,-0.215740741,0,0,0,,0,15,15,3,1,
,,,,,,,,,,,,,,,,,,5d86c09df681a1001a8dddc8,2020-08-10_10h48.12.110,lexical_decision_task_MP,2020.1.3,Win32,60,z,1,0.63421,,,,,,,,0.63421,1,,,,,,311,NW,"ID",50,sproly,SPROLY,z,,,,,,0.269444444,-0.215740741,0,0,0,,0,16,16,310,1,
,,,,,,,,,,,,,,,,,,5d86c09df681a1001a8dddc8,2020-08-10_10h48.12.110,lexical_decision_task_MP,2020.1.3,Win32,60,m,1,0.833965,,,,,,,,0.833965,1,,,,,,138,WORD,UN,33,staple,MELODY,m,,,,,,0.269444444,-0.215740741,0,0,0,,0,17,17,137,1,
,,,,,,,,,,,,,,,,,,5d86c09df681a1001a8dddc8,2020-08-10_10h48.12.110,lexical_decision_task_MP,2020.1.3,Win32,60,m,1,0.585575,,,,,,,,0.585575,1,,,,,,143,WORD,UN,33,sponge,REASON,m,,,,,,0.269444444,-0.215740741,0,0,0,,0,18,18,142,1,
,,,,,,,,,,,,,,,,,,5d86c09df681a1001a8dddc8,2020-08-10_10h48.12.110,lexical_decision_task_MP,2020.1.3,Win32,60,z,1,0.77205,,,,,,,,0.77205,1,,,,,,346,NW,"ID",50,saudic,SAUDIC,z,,,,,,0.269444444,-0.215740741,0,0,0,,0,19,19,345,1,
,,,,,,,,,,,,,,,,,,5d86c09df681a1001a8dddc8,2020-08-10_10h48.12.110,lexical_decision_task_MP,2020.1.3,Win32,60,m,1,0.46786,,,,,,,,0.46786,1,,,,,,90,WORD,"ID",50,relish,RELISH,m,,,,,,0.269444444,-0.215740741,0,0,0,,0,20,20,89,1,
,,,,,,,,,,,,,,,,,,5d86c09df681a1001a8dddc8,2020-08-10_10h48.12.110,lexical_decision_task_MP,2020.1.3,Win32,60,m,1,0.522175,,,,,,,,0.522175,1,,,,,,68,WORD,"ID",50,fumble,FUMBLE,m,,,,,,0.269444444,-0.215740741,0,0,0,,0,21,21,67,1,
,,,,,,,,,,,,,,,,,,5d86c09df681a1001a8dddc8,2020-08-10_10h48.12.110,lexical_decision_task_MP,2020.1.3,Win32,60,m,1,0.484215,,,,,,,,0.484215,1,,,,,,71,WORD,"ID",50,garden,GARDEN,m,,,,,,0.269444444,-0.215740741,0,0,0,,0,22,22,70,1,
,,,,,,,,,,,,,,,,,,5d86c09df681a1001a8dddc8,2020-08-10_10h48.12.110,lexical_decision_task_MP,2020.1.3,Win32,60,m,1,0.600035,,,,,,,,0.600035,1,,,,,,5,WORD,"ID",33,plunge,PLUNGE,m,,,,,,0.269444444,-0.215740741,0,0,0,,0,23,23,4,1,
,,,,,,,,,,,,,,,,,,5d86c09df681a1001a8dddc8,2020-08-10_10h48.12.110,lexical_decision_task_MP,2020.1.3,Win32,60,z,1,0.60175,,,,,,,,0.60175,1,,,,,,424,NW,UN,50,urivel,PRAILE,z,,,,,,0.269444444,-0.215740741,0,0,0,,0,24,24,423,1,
,,,,,,,,,,,,,,,,,,5d86c09df681a1001a8dddc8,2020-08-10_10h48.12.110,lexical_decision_task_MP,2020.1.3,Win32,60,m,1,0.5859,,,,,,,,0.5859,1,,,,,,233,WORD,UN,50,clumsy,NATURE,m,,,,,,0.269444444,-0.215740741,0,0,0,,0,25,25,232,1,
,,,,,,,,,,,,,,,,,,5d86c09df681a1001a8dddc8,2020-08-10_10h48.12.110,lexical_decision_task_MP,2020.1.3,Win32,60,z,1,0.56777,,,,,,,,0.56777,1,,,,,,280,NW,"ID",33,curbol,CURBOL,z,,,,,,0.269444444,-0.215740741,0,0,0,,0,26,26,279,1,
,,,,,,,,,,,,,,,,,,5d86c09df681a1001a8dddc8,2020-08-10_10h48.12.110,lexical_decision_task_MP,2020.1.3,Win32,60,z,1,0.751305,,,,,,,,0.751305,1,,,,,,423,NW,UN,50,praile,STRELD,z,,,,,,0.269444444,-0.215740741,0,0,0,,0,27,27,422,1,
,,,,,,,,,,,,,,,,,,5d86c09df681a1001a8dddc8,2020-08-10_10h48.12.110,lexical_decision_task_MP,2020.1.3,Win32,60,z,1,0.63327,,,,,,,,0.63327,1,,,,,,434,NW,UN,50,impurb,PITROM,z,,,,,,0.269444444,-0.215740741,0,0,0,,0,28,28,433,1,
,,,,,,,,,,,,,,,,,,5d86c09df681a1001a8dddc8,2020-08-10_10h48.12.110,lexical_decision_task_MP,2020.1.3,Win32,60,z,1,0.70374,,,,,,,,0.70374,1,,,,,,421,NW,UN,50,alcoud,KNISMA,z,,,,,,0.269444444,-0.215740741,0,0,0,,0,29,29,420,1,
,,,,,,,,,,,,,,,,,,5d86c09df681a1001a8dddc8,2020-08-10_10h48.12.110,lexical_decision_task_MP,2020.1.3,Win32,60,z,1,0.602585,,,,,,,,0.602585,1,,,,,,361,NW,UN,33,tireau,PAUCHE,z,,,,,,0.269444444,-0.215740741,0,0,0,,0,30,30,360,1,
,,,,,,,,,,,,,,,,,,5d86c09df681a1001a8dddc8,2020-08-10_10h48.12.110,lexical_decision_task_MP,2020.1.3,Win32,60,m,1,0.48359,,,,,,,,0.48359,1,,,,,,62,WORD,"ID",50,region,REGION,m,,,,,,0.269444444,-0.215740741,0,0,0,,0,31,31,61,1,
,,,,,,,,,,,,,,,,,,5d86c09df681a1001a8dddc8,2020-08-10_10h48.12.110,lexical_decision_task_MP,2020.1.3,Win32,60,m,1,0.70414,,,,,,,,0.70414,1,,,,,,139,WORD,UN,33,prince,DEBRIS,m,,,,,,0.269444444,-0.215740741,0,0,0,,0,32,32,138,1,
,,,,,,,,,,,,,,,,,,5d86c09df681a1001a8dddc8,2020-08-10_10h48.12.110,lexical_decision_task_MP,2020.1.3,Win32,60,m,1,0.58415,,,,,,,,0.58415,1,,,,,,238,WORD,UN,50,grumpy,FLOWER,m,,,,,,0.269444444,-0.215740741,0,0,0,,0,33,33,237,1,
,,,,,,,,,,,,,,,,,,5d86c09df681a1001a8dddc8,2020-08-10_10h48.12.110,lexical_decision_task_MP,2020.1.3,Win32,60,m,1,0.56811,,,,,,,,0.56811,1,,,,,,148,WORD,UN,33,invade,CUSTOM,m,,,,,,0.269444444,-0.215740741,0,0,0,,0,34,34,147,1,
,,,,,,,,,,,,,,,,,,5d86c09df681a1001a8dddc8,2020-08-10_10h48.12.110,lexical_decision_task_MP,2020.1.3,Win32,60,m,0,0.806645,,,,,,,,0.806645,0,,,,,,357,NW,"ID",50,derain,DERAIN,z,,,,,,0.269444444,-0.215740741,0,0,0,,0,35,35,356,1,
,,,,,,,,,,,,,,,,,,5d86c09df681a1001a8dddc8,2020-08-10_10h48.12.110,lexical_decision_task_MP,2020.1.3,Win32,60,m,1,0.568215,,,,,,,,0.568215,1,,,,,,131,WORD,UN,33,strong,QUENCH,m,,,,,,0.269444444,-0.215740741,0,0,0,,0,36,36,130,1,
,,,,,,,,,,,,,,,,,,5d86c09df681a1001a8dddc8,2020-08-10_10h48.12.110,lexical_decision_task_MP,2020.1.3,Win32,60,m,1,0.58489,,,,,,,,0.58489,1,,,,,,29,WORD,"ID",33,sketch,SKETCH,m,,,,,,0.269444444,-0.215740741,0,0,0,,0,37,37,28,1,
,,,,,,,,,,,,,,,,,,5d86c09df681a1001a8dddc8,2020-08-10_10h48.12.110,lexical_decision_task_MP,2020.1.3,Win32,60,m,1,0.615525,,,,,,,,0.615525,1,,,,,,82,WORD,"ID",50,stigma,STIGMA,m,,,,,,0.269444444,-0.215740741,0,0,0,,0,38,38,81,1,
,,,,,,,,,,,,,,,,,,5d86c09df681a1001a8dddc8,2020-08-10_10h48.12.110,lexical_decision_task_MP,2020.1.3,Win32,60,m,1,0.501555,,,,,,,,0.501555,1,,,,,,119,WORD,"ID",50,spider,SPIDER,m,,,,,,0.269444444,-0.215740741,0,0,0,,0,39,39,118,1,
,,,,,,,,,,,,,,,,,,5d86c09df681a1001a8dddc8,2020-08-10_10h48.12.110,lexical_decision_task_MP,2020.1.3,Win32,60,z,1,0.56867,,,,,,,,0.56867,1,,,,,,479,NW,UN,50,josted,LOBUSH,z,,,,,,0.269444444,-0.215740741,0,0,0,,0,40,40,478,1,
,,,,,,,,,,,,,,,,,,5d86c09df681a1001a8dddc8,2020-08-10_10h48.12.110,lexical_decision_task_MP,2020.1.3,Win32,60,m,1,0.61902,,,,,,,,0.61902,1,,,,,,121,WORD,UN,33,linger,THRIVE,m,,,,,,0.269444444,-0.215740741,0,0,0,,0,41,41,120,1,
,,,,,,,,,,,,,,,,,,5d86c09df681a1001a8dddc8,2020-08-10_10h48.12.110,lexical_decision_task_MP,2020.1.3,Win32,60,z,1,0.83891,,,,,,,,0.83891,1,,,,,,452,NW,UN,50,bolvis,SURDEN,z,,,,,,0.269444444,-0.215740741,0,0,0,,0,42,42,451,1,
,,,,,,,,,,,,,,,,,,5d86c09df681a1001a8dddc8,2020-08-10_10h48.12.110,lexical_decision_task_MP,2020.1.3,Win32,60,m,1,0.65602,,,,,,,,0.65602,1,,,,,,195,WORD,UN,50,credit,RESIGN,m,,,,,,0.269444444,-0.215740741,0,0,0,,0,43,43,194,1,
,,,,,,,,,,,,,,,,,,5d86c09df681a1001a8dddc8,2020-08-10_10h48.12.110,lexical_decision_task_MP,2020.1.3,Win32,60,m,1,0.718055,,,,,,,,0.718055,1,,,,,,198,WORD,UN,50,invoke,WICKED,m,,,,,,0.269444444,-0.215740741,0,0,0,,0,44,44,197,1,
,,,,,,,,,,,,,,,,,,5d86c09df681a1001a8dddc8,2020-08-10_10h48.12.110,lexical_decision_task_MP,2020.1.3,Win32,60,z,1,0.65684,,,,,,,,0.65684,1,,,,,,382,NW,UN,33,aungre,SARLEY,z,,,,,,0.269444444,-0.215740741,0,0,0,,0,45,45,381,1,
,,,,,,,,,,,,,,,,,,5d86c09df681a1001a8dddc8,2020-08-10_10h48.12.110,lexical_decision_task_MP,2020.1.3,Win32,60,z,1,0.666315,,,,,,,,0.666315,1,,,,,,366,NW,UN,33,slique,TOSHEL,z,,,,,,0.269444444,-0.215740741,0,0,0,,0,46,46,365,1,
,,,,,,,,,,,,,,,,,,5d86c09df681a1001a8dddc8,2020-08-10_10h48.12.110,lexical_decision_task_MP,2020.1.3,Win32,60,z,1,0.66731,,,,,,,,0.66731,1,,,,,,353,NW,"ID",50,clurey,CLUREY,z,,,,,,0.269444444,-0.215740741,0,0,0,,0,47,47,352,1,
,,,,,,,,,,,,,,,,,,5d86c09df681a1001a8dddc8,2020-08-10_10h48.12.110,lexical_decision_task_MP,2020.1.3,Win32,60,z,1,0.699765,,,,,,,,0.699765,1,,,,,,319,NW,"ID",50,zomber,ZOMBER,z,,,,,,0.269444444,-0.215740741,0,0,0,,0,48,48,318,1,
,,,,,,,,,,,,,,,,,,5d86c09df681a1001a8dddc8,2020-08-10_10h48.12.110,lexical_decision_task_MP,2020.1.3,Win32,60,z,1,0.668565,,,,,,,,0.668565,1,,,,,,318,NW,"ID",50,reagly,REAGLY,z,,,,,,0.269444444,-0.215740741,0,0,0,,0,49,49,317,1,
,,,,,,,,,,,,,,,,,,5d86c09df681a1001a8dddc8,2020-08-10_10h48.12.110,lexical_decision_task_MP,2020.1.3,Win32,60,m,1,0.600865,,,,,,,,0.600865,1,,,,,,135,WORD,UN,33,chrome,IMPORT,m,,,,,,0.269444444,-0.215740741,0,0,0,,0,50,50,134,1,
,,,,,,,,,,,,,,,,,,5d86c09df681a1001a8dddc8,2020-08-10_10h48.12.110,lexical_decision_task_MP,2020.1.3,Win32,60,m,1,0.53727,,,,,,,,0.53727,1,,,,,,17,WORD,"ID",33,charge,CHARGE,m,,,,,,0.269444444,-0.215740741,0,0,0,,0,51,51,16,1,
,,,,,,,,,,,,,,,,,,5d86c09df681a1001a8dddc8,2020-08-10_10h48.12.110,lexical_decision_task_MP,2020.1.3,Win32,60,z,1,0.63481,,,,,,,,0.63481,1,,,,,,253,NW,"ID",33,resait,RESAIT,z,,,,,,0.269444444,-0.215740741,0,0,0,,0,52,52,252,1,
,,,,,,,,,,,,,,,,,,5d86c09df681a1001a8dddc8,2020-08-10_10h48.12.110,lexical_decision_task_MP,2020.1.3,Win32,60,m,1,0.56524,,,,,,,,0.56524,1,,,,,,48,WORD,"ID",33,walnut,WALNUT,m,,,,,,0.269444444,-0.215740741,0,0,0,,0,53,53,47,1,
,,,,,,,,,,,,,,,,,,5d86c09df681a1001a8dddc8,2020-08-10_10h48.12.110,lexical_decision_task_MP,2020.1.3,Win32,60,z,1,0.940285,,,,,,,,0.940285,1,,,,,,425,NW,UN,50,schind,FRUDGE,z,,,,,,0.269444444,-0.215740741,0,0,0,,0,54,54,424,1,
,,,,,,,,,,,,,,,,,,5d86c09df681a1001a8dddc8,2020-08-10_10h48.12.110,lexical_decision_task_MP,2020.1.3,Win32,60,m,1,0.66884,,,,,,,,0.66884,1,,,,,,182,WORD,UN,50,basket,WINTER,m,,,,,,0.269444444,-0.215740741,0,0,0,,0,55,55,181,1,
,,,,,,,,,,,,,,,,,,5d86c09df681a1001a8dddc8,2020-08-10_10h48.12.110,lexical_decision_task_MP,2020.1.3,Win32,60,m,1,0.56848,,,,,,,,0.56848,1,,,,,,123,WORD,UN,33,enough,STRIKE,m,,,,,,0.269444444,-0.215740741,0,0,0,,0,56,56,122,1,
,,,,,,,,,,,,,,,,,,5d86c09df681a1001a8dddc8,2020-08-10_10h48.12.110,lexical_decision_task_MP,2020.1.3,Win32,60,z,0,0.55605,,,,,,,,0.55605,0,,,,,,184,WORD,UN,50,bother,SLEAZY,m,,,,,,0.269444444,-0.215740741,0,0,0,,0,57,57,183,1,
,,,,,,,,,,,,,,,,,,5d86c09df681a1001a8dddc8,2020-08-10_10h48.12.110,lexical_decision_task_MP,2020.1.3,Win32,60,m,1,0.6015,,,,,,,,0.6015,1,,,,,,211,WORD,UN,50,verify,INFECT,m,,,,,,0.269444444,-0.215740741,0,0,0,,0,58,58,210,1,
,,,,,,,,,,,,,,,,,,5d86c09df681a1001a8dddc8,2020-08-10_10h48.12.110,lexical_decision_task_MP,2020.1.3,Win32,60,z,1,0.70115,,,,,,,,0.70115,1,,,,,,401,NW,UN,33,elopia,MUSTIL,z,,,,,,0.269444444,-0.215740741,0,0,0,,0,59,59,400,1,
,,,,,,,,,,,,,,,,,,5d86c09df681a1001a8dddc8,2020-08-10_10h48.12.110,lexical_decision_task_MP,2020.1.3,Win32,60,m,1,0.634265,,,,,,,,0.634265,1,,,,,,2,WORD,"ID",33,bridge,BRIDGE,m,,,,,,0.269444444,-0.215740741,0,0,0,,0,60,60,1,1,
,,,,,,,,,,,,,,,,,,5d86c09df681a1001a8dddc8,2020-08-10_10h48.12.110,lexical_decision_task_MP,2020.1.3,Win32,60,z,1,0.64079,,,,,,,,0.64079,1,,,,,,395,NW,UN,33,flengy,COLURY,z,,,,,,0.269444444,-0.215740741,0,0,0,,0,61,61,394,1,
,,,,,,,,,,,,,,,,,,5d86c09df681a1001a8dddc8,2020-08-10_10h48.12.110,lexical_decision_task_MP,2020.1.3,Win32,60,m,1,0.56748,,,,,,,,0.56748,1,,,,,,88,WORD,"ID",50,hunger,HUNGER,m,,,,,,0.269444444,-0.215740741,0,0,0,,0,62,62,87,1,
,,,,,,,,,,,,,,,,,,5d86c09df681a1001a8dddc8,2020-08-10_10h48.12.110,lexical_decision_task_MP,2020.1.3,Win32,60,z,1,0.607965,,,,,,,,0.607965,1,,,,,,325,NW,"ID",50,thruse,THRUSE,z,,,,,,0.269444444,-0.215740741,0,0,0,,0,63,63,324,1,
,,,,,,,,,,,,,,,,,,5d86c09df681a1001a8dddc8,2020-08-10_10h48.12.110,lexical_decision_task_MP,2020.1.3,Win32,60,m,1,0.5182,,,,,,,,0.5182,1,,,,,,61,WORD,"ID",50,ponder,PONDER,m,,,,,,0.269444444,-0.215740741,0,0,0,,0,64,64,60,1,
,,,,,,,,,,,,,,,,,,5d86c09df681a1001a8dddc8,2020-08-10_10h48.12.110,lexical_decision_task_MP,2020.1.3,Win32,60,m,1,0.8082,,,,,,,,0.8082,1,,,,,,207,WORD,UN,50,hockey,WREATH,m,,,,,,0.269444444,-0.215740741,0,0,0,,0,65,65,206,1,
,,,,,,,,,,,,,,,,,,5d86c09df681a1001a8dddc8,2020-08-10_10h48.12.110,lexical_decision_task_MP,2020.1.3,Win32,60,m,1,0.906585,,,,,,,,0.906585,1,,,,,,142,WORD,UN,33,orphan,SPRUCE,m,,,,,,0.269444444,-0.215740741,0,0,0,,0,66,66,141,1,
,,,,,,,,,,,,,,,,,,5d86c09df681a1001a8dddc8,2020-08-10_10h48.12.110,lexical_decision_task_MP,2020.1.3,Win32,60,z,1,0.63776,,,,,,,,0.63776,1,,,,,,278,NW,"ID",33,unighs,UNIGHS,z,,,,,,0.269444444,-0.215740741,0,0,0,,0,67,67,277,1,
,,,,,,,,,,,,,,,,,,5d86c09df681a1001a8dddc8,2020-08-10_10h48.12.110,lexical_decision_task_MP,2020.1.3,Win32,60,z,1,0.75642,,,,,,,,0.75642,1,,,,,,288,NW,"ID",33,yaceup,YACEUP,z,,,,,,0.269444444,-0.215740741,0,0,0,,0,68,68,287,1,
,,,,,,,,,,,,,,,,,,5d86c09df681a1001a8dddc8,2020-08-10_10h48.12.110,lexical_decision_task_MP,2020.1.3,Win32,60,m,1,0.53476,,,,,,,,0.53476,1,,,,,,76,WORD,"ID",50,exotic,EXOTIC,m,,,,,,0.269444444,-0.215740741,0,0,0,,0,69,69,75,1,
,,,,,,,,,,,,,,,,,,5d86c09df681a1001a8dddc8,2020-08-10_10h48.12.110,lexical_decision_task_MP,2020.1.3,Win32,60,z,1,0.65182,,,,,,,,0.65182,1,,,,,,331,NW,"ID",50,gilfew,GILFEW,z,,,,,,0.269444444,-0.215740741,0,0,0,,0,70,70,330,1,
,,,,,,,,,,,,,,,,,,5d86c09df681a1001a8dddc8,2020-08-10_10h48.12.110,lexical_decision_task_MP,2020.1.3,Win32,60,z,1,0.653885,,,,,,,,0.653885,1,,,,,,363,NW,UN,33,impote,BREALI,z,,,,,,0.269444444,-0.215740741,0,0,0,,0,71,71,362,1,
,,,,,,,,,,,,,,,,,,5d86c09df681a1001a8dddc8,2020-08-10_10h48.12.110,lexical_decision_task_MP,2020.1.3,Win32,60,m,1,0.650655,,,,,,,,0.650655,1,,,,,,200,WORD,UN,50,admire,BEACON,m,,,,,,0.269444444,-0.215740741,0,0,0,,0,72,72,199,1,
,,,,,,,,,,,,,,,,,,5d86c09df681a1001a8dddc8,2020-08-10_10h48.12.110,lexical_decision_task_MP,2020.1.3,Win32,60,z,1,0.734585,,,,,,,,0.734585,1,,,,,,310,NW,"ID",50,daniet,DANIET,z,,,,,,0.269444444,-0.215740741,0,0,0,,0,73,73,309,1,
,,,,,,,,,,,,,,,,,,5d86c09df681a1001a8dddc8,2020-08-10_10h48.12.110,lexical_decision_task_MP,2020.1.3,Win32,60,m,1,0.57062,,,,,,,,0.57062,1,,,,,,230,WORD,UN,50,export,FRINGE,m,,,,,,0.269444444,-0.215740741,0,0,0,,0,74,74,229,1,
,,,,,,,,,,,,,,,,,,5d86c09df681a1001a8dddc8,2020-08-10_10h48.12.110,lexical_decision_task_MP,2020.1.3,Win32,60,m,1,0.59059,,,,,,,,0.59059,1,,,,,,54,WORD,"ID",33,ramble,RAMBLE,m,,,,,,0.269444444,-0.215740741,0,0,0,,0,75,75,53,1,
,,,,,,,,,,,,,,,,,,5d86c09df681a1001a8dddc8,2020-08-10_10h48.12.110,lexical_decision_task_MP,2020.1.3,Win32,60,z,1,0.606135,,,,,,,,0.606135,1,,,,,,362,NW,UN,33,breali,TIREAU,z,,,,,,0.269444444,-0.215740741,0,0,0,,0,76,76,361,1,
,,,,,,,,,,,,,,,,,,5d86c09df681a1001a8dddc8,2020-08-10_10h48.12.110,lexical_decision_task_MP,2020.1.3,Win32,60,m,1,0.650855,,,,,,,,0.650855,1,,,,,,129,WORD,UN,33,stupid,MARVEL,m,,,,,,0.269444444,-0.215740741,0,0,0,,0,77,77,128,1,
,,,,,,,,,,,,,,,,,,5d86c09df681a1001a8dddc8,2020-08-10_10h48.12.110,lexical_decision_task_MP,2020.1.3,Win32,60,m,1,0.61916,,,,,,,,0.61916,1,,,,,,128,WORD,UN,33,marvel,SENIOR,m,,,,,,0.269444444,-0.215740741,0,0,0,,0,78,78,127,1,
,,,,,,,,,,,,,,,,,,5d86c09df681a1001a8dddc8,2020-08-10_10h48.12.110,lexical_decision_task_MP,2020.1.3,Win32,60,z,1,0.538725,,,,,,,,0.538725,1,,,,,,249,NW,"ID",33,batrol,BATROL,z,,,,,,0.269444444,-0.215740741,0,0,0,,0,79,79,248,1,
,,,,,,,,,,,,,,,,,,5d86c09df681a1001a8dddc8,2020-08-10_10h48.12.110,lexical_decision_task_MP,2020.1.3,Win32,60,z,1,0.703045,,,,,,,,0.703045,1,,,,,,296,NW,"ID",33,beinch,BEINCH,z,,,,,,0.269444444,-0.215740741,0,0,0,,0,80,80,295,1,
,,,,,,,,,,,,,,,,,,5d86c09df681a1001a8dddc8,2020-08-10_10h48.12.110,lexical_decision_task_MP,2020.1.3,Win32,60,m,1,0.691635,,,,,,,,0.691635,1,,,,,,156,WORD,UN,33,pastor,CRADLE,m,,,,,,0.269444444,-0.215740741,0,0,0,,0,81,81,155,1,
,,,,,,,,,,,,,,,,,,5d86c09df681a1001a8dddc8,2020-08-10_10h48.12.110,lexical_decision_task_MP,2020.1.3,Win32,60,z,1,0.605895,,,,,,,,0.605895,1,,,,,,321,NW,"ID",50,miator,MIATOR,z,,,,,,0.269444444,-0.215740741,0,0,0,,0,82,82,320,1,
,,,,,,,,,,,,,,,,,,5d86c09df681a1001a8dddc8,2020-08-10_10h48.12.110,lexical_decision_task_MP,2020.1.3,Win32,60,z,1,0.75232,,,,,,,,0.75232,1,,,,,,454,NW,UN,50,tondle,SCOUGE,z,,,,,,0.269444444,-0.215740741,0,0,0,,0,83,83,453,1,
,,,,,,,,,,,,,,,,,,5d86c09df681a1001a8dddc8,2020-08-10_10h48.12.110,lexical_decision_task_MP,2020.1.3,Win32,60,m,1,0.46769,,,,,,,,0.46769,1,,,,,,31,WORD,"ID",33,weapon,WEAPON,m,,,,,,0.269444444,-0.215740741,0,0,0,,0,84,84,30,1,
,,,,,,,,,,,,,,,,,,5d86c09df681a1001a8dddc8,2020-08-10_10h48.12.110,lexical_decision_task_MP,2020.1.3,Win32,60,m,1,0.53383,,,,,,,,0.53383,1,,,,,,100,WORD,"ID",50,carbon,CARBON,m,,,,,,0.269444444,-0.215740741,0,0,0,,0,85,85,99,1,
,,,,,,,,,,,,,,,,,,5d86c09df681a1001a8dddc8,2020-08-10_10h48.12.110,lexical_decision_task_MP,2020.1.3,Win32,60,z,1,0.58443,,,,,,,,0.58443,1,,,,,,369,NW,UN,33,sleact,WRONCH,z,,,,,,0.269444444,-0.215740741,0,0,0,,0,86,86,368,1,
,,,,,,,,,,,,,,,,,,5d86c09df681a1001a8dddc8,2020-08-10_10h48.12.110,lexical_decision_task_MP,2020.1.3,Win32,60,z,1,0.90368,,,,,,,,0.90368,1,,,,,,392,NW,UN,33,ganous,ROUNCY,z,,,,,,0.269444444,-0.215740741,0,0,0,,0,87,87,391,1,
,,,,,,,,,,,,,,,,,,5d86c09df681a1001a8dddc8,2020-08-10_10h48.12.110,lexical_decision_task_MP,2020.1.3,Win32,60,m,1,0.537265,,,,,,,,0.537265,1,,,,,,173,WORD,UN,33,turkey,SHOWER,m,,,,,,0.269444444,-0.215740741,0,0,0,,0,88,88,172,1,
,,,,,,,,,,,,,,,,,,5d86c09df681a1001a8dddc8,2020-08-10_10h48.12.110,lexical_decision_task_MP,2020.1.3,Win32,60,z,1,0.606755,,,,,,,,0.606755,1,,,,,,449,NW,UN,50,phrect,BRUNGE,z,,,,,,0.269444444,-0.215740741,0,0,0,,0,89,89,448,1,
,,,,,,,,,,,,,,,,,,5d86c09df681a1001a8dddc8,2020-08-10_10h48.12.110,lexical_decision_task_MP,2020.1.3,Win32,60,m,1,0.53487,,,,,,,,0.53487,1,,,,,,115,WORD,"ID",50,guitar,GUITAR,m,,,,,,0.269444444,-0.215740741,0,0,0,,0,90,90,114,1,
,,,,,,,,,,,,,,,,,,5d86c09df681a1001a8dddc8,2020-08-10_10h48.12.110,lexical_decision_task_MP,2020.1.3,Win32,60,m,1,0.602075,,,,,,,,0.602075,1,,,,,,146,WORD,UN,33,garlic,COUPLE,m,,,,,,0.269444444,-0.215740741,0,0,0,,0,91,91,145,1,
,,,,,,,,,,,,,,,,,,5d86c09df681a1001a8dddc8,2020-08-10_10h48.12.110,lexical_decision_task_MP,2020.1.3,Win32,60,z,1,0.55115,,,,,,,,0.55115,1,,,,,,379,NW,UN,33,cavory,AUTING,z,,,,,,0.269444444,-0.215740741,0,0,0,,0,92,92,378,1,
,,,,,,,,,,,,,,,,,,5d86c09df681a1001a8dddc8,2020-08-10_10h48.12.110,lexical_decision_task_MP,2020.1.3,Win32,60,m,1,0.507895,,,,,,,,0.507895,1,,,,,,239,WORD,UN,50,forest,LUMBER,m,,,,,,0.269444444,-0.215740741,0,0,0,,0,93,93,238,1,
,,,,,,,,,,,,,,,,,,5d86c09df681a1001a8dddc8,2020-08-10_10h48.12.110,lexical_decision_task_MP,2020.1.3,Win32,60,z,1,0.58445,,,,,,,,0.58445,1,,,,,,298,NW,"ID",33,piergy,PIERGY,z,,,,,,0.269444444,-0.215740741,0,0,0,,0,94,94,297,1,
,,,,,,,,,,,,,,,,,,5d86c09df681a1001a8dddc8,2020-08-10_10h48.12.110,lexical_decision_task_MP,2020.1.3,Win32,60,z,1,0.57544,,,,,,,,0.57544,1,,,,,,343,NW,"ID",50,aimosy,AIMOSY,z,,,,,,0.269444444,-0.215740741,0,0,0,,0,95,95,342,1,
,,,,,,,,,,,,,,,,,,5d86c09df681a1001a8dddc8,2020-08-10_10h48.12.110,lexical_decision_task_MP,2020.1.3,Win32,60,z,1,0.551195,,,,,,,,0.551195,1,,,,,,276,NW,"ID",33,yarmon,YARMON,z,,,,,,0.269444444,-0.215740741,0,0,0,,0,96,96,275,1,
,,,,,,,,,,,,,,,,,,5d86c09df681a1001a8dddc8,2020-08-10_10h48.12.110,lexical_decision_task_MP,2020.1.3,Win32,60,m,1,0.57134,,,,,,,,0.57134,1,,,,,,8,WORD,"ID",33,abrupt,ABRUPT,m,,,,,,0.269444444,-0.215740741,0,0,0,,0,97,97,7,1,
,,,,,,,,,,,,,,,,,,5d86c09df681a1001a8dddc8,2020-08-10_10h48.12.110,lexical_decision_task_MP,2020.1.3,Win32,60,z,1,0.58423,,,,,,,,0.58423,1,,,,,,340,NW,"ID",50,fiatch,FIATCH,z,,,,,,0.269444444,-0.215740741,0,0,0,,0,98,98,339,1,
,,,,,,,,,,,,,,,,,,5d86c09df681a1001a8dddc8,2020-08-10_10h48.12.110,lexical_decision_task_MP,2020.1.3,Win32,60,z,1,0.605475,,,,,,,,0.605475,1,,,,,,415,NW,UN,33,pathel,HIGSTA,z,,,,,,0.269444444,-0.215740741,0,0,0,,0,99,99,414,1,
,,,,,,,,,,,,,,,,,,5d86c09df681a1001a8dddc8,2020-08-10_10h48.12.110,lexical_decision_task_MP,2020.1.3,Win32,60,z,1,0.683565,,,,,,,,0.683565,1,,,,,,316,NW,"ID",50,scregm,SCREGM,z,,,,,,0.269444444,-0.215740741,0,0,0,,0,100,100,315,1,
,,,,,,,,,,,,,,,,,,5d86c09df681a1001a8dddc8,2020-08-10_10h48.12.110,lexical_decision_task_MP,2020.1.3,Win32,60,m,1,0.599685,,,,,,,,0.599685,1,,,,,,220,WORD,UN,50,mascot,VOYAGE,m,,,,,,0.269444444,-0.215740741,0,0,0,,0,101,101,219,1,
,,,,,,,,,,,,,,,,,,5d86c09df681a1001a8dddc8,2020-08-10_10h48.12.110,lexical_decision_task_MP,2020.1.3,Win32,60,z,1,0.521325,,,,,,,,0.521325,1,,,,,,404,NW,UN,33,syntic,CLUIRM,z,,,,,,0.269444444,-0.215740741,0,0,0,,0,102,102,403,1,
,,,,,,,,,,,,,,,,,,5d86c09df681a1001a8dddc8,2020-08-10_10h48.12.110,lexical_decision_task_MP,2020.1.3,Win32,60,z,1,0.62094,,,,,,,,0.62094,1,,,,,,305,NW,"ID",50,forgle,FORGLE,z,,,,,,0.269444444,-0.215740741,0,0,0,,0,103,103,304,1,
,,,,,,,,,,,,,,,,,,5d86c09df681a1001a8dddc8,2020-08-10_10h48.12.110,lexical_decision_task_MP,2020.1.3,Win32,60,m,1,0.52386,,,,,,,,0.52386,1,,,,,,194,WORD,UN,50,resign,ABSENT,m,,,,,,0.269444444,-0.215740741,0,0,0,,0,104,104,193,1,
,,,,,,,,,,,,,,,,,,5d86c09df681a1001a8dddc8,2020-08-10_10h48.12.110,lexical_decision_task_MP,2020.1.3,Win32,60,z,1,0.583885,,,,,,,,0.583885,1,,,,,,306,NW,"ID",50,sounge,SOUNGE,z,,,,,,0.269444444,-0.215740741,0,0,0,,0,105,105,305,1,
,,,,,,,,,,,,,,,,,,5d86c09df681a1001a8dddc8,2020-08-10_10h48.12.110,lexical_decision_task_MP,2020.1.3,Win32,60,z,1,0.650635,,,,,,,,0.650635,1,,,,,,335,NW,"ID",50,desion,DESION,z,,,,,,0.269444444,-0.215740741,0,0,0,,0,106,106,334,1,
,,,,,,,,,,,,,,,,,,5d86c09df681a1001a8dddc8,2020-08-10_10h48.12.110,lexical_decision_task_MP,2020.1.3,Win32,60,m,1,0.51811,,,,,,,,0.51811,1,,,,,,175,WORD,UN,33,strife,FABRIC,m,,,,,,0.269444444,-0.215740741,0,0,0,,0,107,107,174,1,
,,,,,,,,,,,,,,,,,,5d86c09df681a1001a8dddc8,2020-08-10_10h48.12.110,lexical_decision_task_MP,2020.1.3,Win32,60,z,1,0.5357,,,,,,,,0.5357,1,,,,,,273,NW,"ID",33,sortel,SORTEL,z,,,,,,0.269444444,-0.215740741,0,0,0,,0,108,108,272,1,
,,,,,,,,,,,,,,,,,,5d86c09df681a1001a8dddc8,2020-08-10_10h48.12.110,lexical_decision_task_MP,2020.1.3,Win32,60,z,1,0.556645,,,,,,,,0.556645,1,,,,,,243,NW,"ID",33,musied,MUSIED,z,,,,,,0.269444444,-0.215740741,0,0,0,,0,109,109,242,1,
,,,,,,,,,,,,,,,,,,5d86c09df681a1001a8dddc8,2020-08-10_10h48.12.110,lexical_decision_task_MP,2020.1.3,Win32,60,m,1,0.534465,,,,,,,,0.534465,1,,,,,,120,WORD,"ID",50,strain,STRAIN,m,,,,,,0.269444444,-0.215740741,0,0,0,,0,110,110,119,1,
,,,,,,,,,,,,,,,,,,5d86c09df681a1001a8dddc8,2020-08-10_10h48.12.110,lexical_decision_task_MP,2020.1.3,Win32,60,m,1,0.517355,,,,,,,,0.517355,1,,,,,,46,WORD,"ID",33,single,SINGLE,m,,,,,,0.269444444,-0.215740741,0,0,0,,0,111,111,45,1,
,,,,,,,,,,,,,,,,,,5d86c09df681a1001a8dddc8,2020-08-10_10h48.12.110,lexical_decision_task_MP,2020.1.3,Win32,60,z,1,0.583525,,,,,,,,0.583525,1,,,,,,242,NW,"ID",33,unwert,UNWERT,z,,,,,,0.269444444,-0.215740741,0,0,0,,0,112,112,241,1,
,,,,,,,,,,,,,,,,,,5d86c09df681a1001a8dddc8,2020-08-10_10h48.12.110,lexical_decision_task_MP,2020.1.3,Win32,60,z,1,0.60186,,,,,,,,0.60186,1,,,,,,453,NW,UN,50,scouge,BOLVIS,z,,,,,,0.269444444,-0.215740741,0,0,0,,0,113,113,452,1,
,,,,,,,,,,,,,,,,,,5d86c09df681a1001a8dddc8,2020-08-10_10h48.12.110,lexical_decision_task_MP,2020.1.3,Win32,60,m,0,0.55513,,,,,,,,0.55513,0,,,,,,432,NW,UN,50,drance,LUNKER,z,,,,,,0.269444444,-0.215740741,0,0,0,,0,114,114,431,1,
,,,,,,,,,,,,,,,,,,5d86c09df681a1001a8dddc8,2020-08-10_10h48.12.110,lexical_decision_task_MP,2020.1.3,Win32,60,z,1,0.70069,,,,,,,,0.70069,1,,,,,,246,NW,"ID",33,piaton,PIATON,z,,,,,,0.269444444,-0.215740741,0,0,0,,0,115,115,245,1,
,,,,,,,,,,,,,,,,,,5d86c09df681a1001a8dddc8,2020-08-10_10h48.12.110,lexical_decision_task_MP,2020.1.3,Win32,60,z,1,0.90411,,,,,,,,0.90411,1,,,,,,315,NW,"ID",50,laston,LASTON,z,,,,,,0.269444444,-0.215740741,0,0,0,,0,116,116,314,1,
,,,,,,,,,,,,,,,,,,5d86c09df681a1001a8dddc8,2020-08-10_10h48.12.110,lexical_decision_task_MP,2020.1.3,Win32,60,m,1,0.585175,,,,,,,,0.585175,1,,,,,,44,WORD,"ID",33,danger,DANGER,m,,,,,,0.269444444,-0.215740741,0,0,0,,0,117,117,43,1,
,,,,,,,,,,,,,,,,,,5d86c09df681a1001a8dddc8,2020-08-10_10h48.12.110,lexical_decision_task_MP,2020.1.3,Win32,60,m,1,0.54011,,,,,,,,0.54011,1,,,,,,169,WORD,UN,33,pounce,GENIUS,m,,,,,,0.269444444,-0.215740741,0,0,0,,0,118,118,168,1,
,,,,,,,,,,,,,,,,,,5d86c09df681a1001a8dddc8,2020-08-10_10h48.12.110,lexical_decision_task_MP,2020.1.3,Win32,60,m,1,0.63879,,,,,,,,0.63879,1,,,,,,130,WORD,UN,33,quench,STUPID,m,,,,,,0.269444444,-0.215740741,0,0,0,,0,119,119,129,1,
,,,,,,,,,,,,,,,,,,5d86c09df681a1001a8dddc8,2020-08-10_10h48.12.110,lexical_decision_task_MP,2020.1.3,Win32,60,m,1,0.534825,,,,,,,,0.534825,1,,,,,,65,WORD,"ID",50,symbol,SYMBOL,m,,,,,,0.698148148,-0.071296296,0,0,0,space,0,120,120,64,1,19.82612
,,,,,,,,,,,,,,,,,,5d86c09df681a1001a8dddc8,2020-08-10_10h48.12.110,lexical_decision_task_MP,2020.1.3,Win32,60,m,1,0.70562,,,,,,,,0.70562,1,,,,,,205,WORD,UN,50,tailor,LOUNGE,m,,,,,,0.698148148,-0.071296296,0,0,0,,0,121,121,204,1,
,,,,,,,,,,,,,,,,,,5d86c09df681a1001a8dddc8,2020-08-10_10h48.12.110,lexical_decision_task_MP,2020.1.3,Win32,60,z,1,0.604785,,,,,,,,0.604785,1,,,,,,433,NW,UN,50,pitrom,DRANCE,z,,,,,,0.698148148,-0.071296296,0,0,0,,0,122,122,432,1,
,,,,,,,,,,,,,,,,,,5d86c09df681a1001a8dddc8,2020-08-10_10h48.12.110,lexical_decision_task_MP,2020.1.3,Win32,60,m,0,0.65208,,,,,,,,0.65208,0,,,,,,470,NW,UN,50,nobest,CRUDIO,z,,,,,,0.698148148,-0.071296296,0,0,0,,0,123,123,469,1,
,,,,,,,,,,,,,,,,,,5d86c09df681a1001a8dddc8,2020-08-10_10h48.12.110,lexical_decision_task_MP,2020.1.3,Win32,60,z,1,0.66762,,,,,,,,0.66762,1,,,,,,284,NW,"ID",33,shaple,SHAPLE,z,,,,,,0.698148148,-0.071296296,0,0,0,,0,124,124,283,1,
,,,,,,,,,,,,,,,,,,5d86c09df681a1001a8dddc8,2020-08-10_10h48.12.110,lexical_decision_task_MP,2020.1.3,Win32,60,z,1,0.568205,,,,,,,,0.568205,1,,,,,,279,NW,"ID",33,celond,CELOND,z,,,,,,0.698148148,-0.071296296,0,0,0,,0,125,125,278,1,
,,,,,,,,,,,,,,,,,,5d86c09df681a1001a8dddc8,2020-08-10_10h48.12.110,lexical_decision_task_MP,2020.1.3,Win32,60,m,1,0.673005,,,,,,,,0.673005,1,,,,,,108,WORD,"ID",50,reckon,RECKON,m,,,,,,0.698148148,-0.071296296,0,0,0,,0,126,126,107,1,
,,,,,,,,,,,,,,,,,,5d86c09df681a1001a8dddc8,2020-08-10_10h48.12.110,lexical_decision_task_MP,2020.1.3,Win32,60,m,1,0.541665,,,,,,,,0.541665,1,,,,,,187,WORD,UN,50,social,COURSE,m,,,,,,0.698148148,-0.071296296,0,0,0,,0,127,127,186,1,
,,,,,,,,,,,,,,,,,,5d86c09df681a1001a8dddc8,2020-08-10_10h48.12.110,lexical_decision_task_MP,2020.1.3,Win32,60,z,1,0.64063,,,,,,,,0.64063,1,,,,,,301,NW,"ID",50,fainch,FAINCH,z,,,,,,0.698148148,-0.071296296,0,0,0,,0,128,128,300,1,
,,,,,,,,,,,,,,,,,,5d86c09df681a1001a8dddc8,2020-08-10_10h48.12.110,lexical_decision_task_MP,2020.1.3,Win32,60,m,1,0.78581,,,,,,,,0.78581,1,,,,,,7,WORD,"ID",33,anchor,ANCHOR,m,,,,,,0.698148148,-0.071296296,0,0,0,,0,129,129,6,1,
,,,,,,,,,,,,,,,,,,5d86c09df681a1001a8dddc8,2020-08-10_10h48.12.110,lexical_decision_task_MP,2020.1.3,Win32,60,z,1,0.535565,,,,,,,,0.535565,1,,,,,,248,NW,"ID",33,strole,STROLE,z,,,,,,0.698148148,-0.071296296,0,0,0,,0,130,130,247,1,
,,,,,,,,,,,,,,,,,,5d86c09df681a1001a8dddc8,2020-08-10_10h48.12.110,lexical_decision_task_MP,2020.1.3,Win32,60,m,1,0.552935,,,,,,,,0.552935,1,,,,,,141,WORD,UN,33,spruce,ORPHAN,m,,,,,,0.698148148,-0.071296296,0,0,0,,0,131,131,140,1,
,,,,,,,,,,,,,,,,,,5d86c09df681a1001a8dddc8,2020-08-10_10h48.12.110,lexical_decision_task_MP,2020.1.3,Win32,60,m,1,0.618415,,,,,,,,0.618415,1,,,,,,78,WORD,"ID",50,column,COLUMN,m,,,,,,0.698148148,-0.071296296,0,0,0,,0,132,132,77,1,
,,,,,,,,,,,,,,,,,,5d86c09df681a1001a8dddc8,2020-08-10_10h48.12.110,lexical_decision_task_MP,2020.1.3,Win32,60,z,1,0.491,,,,,,,,0.491,1,,,,,,327,NW,"ID",50,plenac,PLENAC,z,,,,,,0.698148148,-0.071296296,0,0,0,,0,133,133,326,1,
,,,,,,,,,,,,,,,,,,5d86c09df681a1001a8dddc8,2020-08-10_10h48.12.110,lexical_decision_task_MP,2020.1.3,Win32,60,z,1,0.51865,,,,,,,,0.51865,1,,,,,,312,NW,"ID",50,nerawl,NERAWL,z,,,,,,0.698148148,-0.071296296,0,0,0,,0,134,134,311,1,
,,,,,,,,,,,,,,,,,,5d86c09df681a1001a8dddc8,2020-08-10_10h48.12.110,lexical_decision_task_MP,2020.1.3,Win32,60,m,1,0.603245,,,,,,,,0.603245,1,,,,,,127,WORD,UN,33,senior,CASTLE,m,,,,,,0.698148148,-0.071296296,0,0,0,,0,135,135,126,1,
,,,,,,,,,,,,,,,,,,5d86c09df681a1001a8dddc8,2020-08-10_10h48.12.110,lexical_decision_task_MP,2020.1.3,Win32,60,z,0,0.4914,,,,,,,,0.4914,0,,,,,,124,WORD,UN,33,nickel,BLOUSE,m,,,,,,0.698148148,-0.071296296,0,0,0,,0,136,136,123,1,
,,,,,,,,,,,,,,,,,,5d86c09df681a1001a8dddc8,2020-08-10_10h48.12.110,lexical_decision_task_MP,2020.1.3,Win32,60,z,1,0.717795,,,,,,,,0.717795,1,,,,,,442,NW,UN,50,dorsex,ABOUNE,z,,,,,,0.698148148,-0.071296296,0,0,0,,0,137,137,441,1,
,,,,,,,,,,,,,,,,,,5d86c09df681a1001a8dddc8,2020-08-10_10h48.12.110,lexical_decision_task_MP,2020.1.3,Win32,60,z,1,0.615765,,,,,,,,0.615765,1,,,,,,342,NW,"ID",50,randow,RANDOW,z,,,,,,0.698148148,-0.071296296,0,0,0,,0,138,138,341,1,
,,,,,,,,,,,,,,,,,,5d86c09df681a1001a8dddc8,2020-08-10_10h48.12.110,lexical_decision_task_MP,2020.1.3,Win32,60,m,1,0.52168,,,,,,,,0.52168,1,,,,,,55,WORD,"ID",33,stroke,STROKE,m,,,,,,0.698148148,-0.071296296,0,0,0,,0,139,139,54,1,
,,,,,,,,,,,,,,,,,,5d86c09df681a1001a8dddc8,2020-08-10_10h48.12.110,lexical_decision_task_MP,2020.1.3,Win32,60,m,1,0.573475,,,,,,,,0.573475,1,,,,,,11,WORD,"ID",33,cruise,CRUISE,m,,,,,,0.698148148,-0.071296296,0,0,0,,0,140,140,10,1,
,,,,,,,,,,,,,,,,,,5d86c09df681a1001a8dddc8,2020-08-10_10h48.12.110,lexical_decision_task_MP,2020.1.3,Win32,60,z,1,0.5031,,,,,,,,0.5031,1,,,,,,408,NW,UN,33,flumni,HURNIA,z,,,,,,0.698148148,-0.071296296,0,0,0,,0,141,141,407,1,
,,,,,,,,,,,,,,,,,,5d86c09df681a1001a8dddc8,2020-08-10_10h48.12.110,lexical_decision_task_MP,2020.1.3,Win32,60,m,1,0.586565,,,,,,,,0.586565,1,,,,,,188,WORD,UN,50,censor,SOCIAL,m,,,,,,0.698148148,-0.071296296,0,0,0,,0,142,142,187,1,
,,,,,,,,,,,,,,,,,,5d86c09df681a1001a8dddc8,2020-08-10_10h48.12.110,lexical_decision_task_MP,2020.1.3,Win32,60,z,1,0.534975,,,,,,,,0.534975,1,,,,,,360,NW,"ID",50,desory,DESORY,z,,,,,,0.698148148,-0.071296296,0,0,0,,0,143,143,359,1,
,,,,,,,,,,,,,,,,,,5d86c09df681a1001a8dddc8,2020-08-10_10h48.12.110,lexical_decision_task_MP,2020.1.3,Win32,60,z,0,0.63556,,,,,,,,0.63556,0,,,,,,213,WORD,UN,50,intake,SQUEAL,m,,,,,,0.698148148,-0.071296296,0,0,0,,0,144,144,212,1,
,,,,,,,,,,,,,,,,,,5d86c09df681a1001a8dddc8,2020-08-10_10h48.12.110,lexical_decision_task_MP,2020.1.3,Win32,60,z,1,0.6334,,,,,,,,0.6334,1,,,,,,427,NW,UN,50,tandly,SCHIND,z,,,,,,0.698148148,-0.071296296,0,0,0,,0,145,145,426,1,
,,,,,,,,,,,,,,,,,,5d86c09df681a1001a8dddc8,2020-08-10_10h48.12.110,lexical_decision_task_MP,2020.1.3,Win32,60,z,1,0.640985,,,,,,,,0.640985,1,,,,,,282,NW,"ID",33,porlex,PORLEX,z,,,,,,0.698148148,-0.071296296,0,0,0,,0,146,146,281,1,
,,,,,,,,,,,,,,,,,,5d86c09df681a1001a8dddc8,2020-08-10_10h48.12.110,lexical_decision_task_MP,2020.1.3,Win32,60,m,1,0.551615,,,,,,,,0.551615,1,,,,,,72,WORD,"ID",50,bright,BRIGHT,m,,,,,,0.698148148,-0.071296296,0,0,0,,0,147,147,71,1,
,,,,,,,,,,,,,,,,,,5d86c09df681a1001a8dddc8,2020-08-10_10h48.12.110,lexical_decision_task_MP,2020.1.3,Win32,60,z,1,0.53561,,,,,,,,0.53561,1,,,,,,267,NW,"ID",33,pasink,PASINK,z,,,,,,0.698148148,-0.071296296,0,0,0,,0,148,148,266,1,
,,,,,,,,,,,,,,,,,,5d86c09df681a1001a8dddc8,2020-08-10_10h48.12.110,lexical_decision_task_MP,2020.1.3,Win32,60,m,1,0.60017,,,,,,,,0.60017,1,,,,,,204,WORD,UN,50,lounge,BURDEN,m,,,,,,0.698148148,-0.071296296,0,0,0,,0,149,149,203,1,
,,,,,,,,,,,,,,,,,,5d86c09df681a1001a8dddc8,2020-08-10_10h48.12.110,lexical_decision_task_MP,2020.1.3,Win32,60,z,1,0.60475,,,,,,,,0.60475,1,,,,,,266,NW,"ID",33,varmit,VARMIT,z,,,,,,0.698148148,-0.071296296,0,0,0,,0,150,150,265,1,
,,,,,,,,,,,,,,,,,,5d86c09df681a1001a8dddc8,2020-08-10_10h48.12.110,lexical_decision_task_MP,2020.1.3,Win32,60,z,1,0.58714,,,,,,,,0.58714,1,,,,,,286,NW,"ID",33,reldon,RELDON,z,,,,,,0.698148148,-0.071296296,0,0,0,,0,151,151,285,1,
,,,,,,,,,,,,,,,,,,5d86c09df681a1001a8dddc8,2020-08-10_10h48.12.110,lexical_decision_task_MP,2020.1.3,Win32,60,m,1,0.740715,,,,,,,,0.740715,1,,,,,,16,WORD,"ID",33,faucet,FAUCET,m,,,,,,0.698148148,-0.071296296,0,0,0,,0,152,152,15,1,
,,,,,,,,,,,,,,,,,,5d86c09df681a1001a8dddc8,2020-08-10_10h48.12.110,lexical_decision_task_MP,2020.1.3,Win32,60,z,1,0.598975,,,,,,,,0.598975,1,,,,,,245,NW,"ID",33,anougs,ANOUGS,z,,,,,,0.698148148,-0.071296296,0,0,0,,0,153,153,244,1,
,,,,,,,,,,,,,,,,,,5d86c09df681a1001a8dddc8,2020-08-10_10h48.12.110,lexical_decision_task_MP,2020.1.3,Win32,60,m,1,0.62389,,,,,,,,0.62389,1,,,,,,206,WORD,UN,50,wreath,TAILOR,m,,,,,,0.698148148,-0.071296296,0,0,0,,0,154,154,205,1,
,,,,,,,,,,,,,,,,,,5d86c09df681a1001a8dddc8,2020-08-10_10h48.12.110,lexical_decision_task_MP,2020.1.3,Win32,60,m,1,0.58538,,,,,,,,0.58538,1,,,,,,116,WORD,"ID",50,tumble,TUMBLE,m,,,,,,0.698148148,-0.071296296,0,0,0,,0,155,155,115,1,
,,,,,,,,,,,,,,,,,,5d86c09df681a1001a8dddc8,2020-08-10_10h48.12.110,lexical_decision_task_MP,2020.1.3,Win32,60,m,1,0.701635,,,,,,,,0.701635,1,,,,,,92,WORD,"ID",50,strand,STRAND,m,,,,,,0.698148148,-0.071296296,0,0,0,,0,156,156,91,1,
,,,,,,,,,,,,,,,,,,5d86c09df681a1001a8dddc8,2020-08-10_10h48.12.110,lexical_decision_task_MP,2020.1.3,Win32,60,m,1,0.5508,,,,,,,,0.5508,1,,,,,,67,WORD,"ID",50,policy,POLICY,m,,,,,,0.698148148,-0.071296296,0,0,0,,0,157,157,66,1,
,,,,,,,,,,,,,,,,,,5d86c09df681a1001a8dddc8,2020-08-10_10h48.12.110,lexical_decision_task_MP,2020.1.3,Win32,60,z,1,0.56816,,,,,,,,0.56816,1,,,,,,365,NW,UN,33,toshel,GUAIRT,z,,,,,,0.698148148,-0.071296296,0,0,0,,0,158,158,364,1,
,,,,,,,,,,,,,,,,,,5d86c09df681a1001a8dddc8,2020-08-10_10h48.12.110,lexical_decision_task_MP,2020.1.3,Win32,60,z,1,0.634075,,,,,,,,0.634075,1,,,,,,386,NW,UN,33,gronce,ANCUST,z,,,,,,0.698148148,-0.071296296,0,0,0,,0,159,159,385,1,
,,,,,,,,,,,,,,,,,,5d86c09df681a1001a8dddc8,2020-08-10_10h48.12.110,lexical_decision_task_MP,2020.1.3,Win32,60,m,1,0.54132,,,,,,,,0.54132,1,,,,,,51,WORD,"ID",33,hungry,HUNGRY,m,,,,,,0.698148148,-0.071296296,0,0,0,,0,160,160,50,1,
,,,,,,,,,,,,,,,,,,5d86c09df681a1001a8dddc8,2020-08-10_10h48.12.110,lexical_decision_task_MP,2020.1.3,Win32,60,m,1,0.63292,,,,,,,,0.63292,1,,,,,,228,WORD,UN,50,inject,MASTER,m,,,,,,0.698148148,-0.071296296,0,0,0,,0,161,161,227,1,
,,,,,,,,,,,,,,,,,,5d86c09df681a1001a8dddc8,2020-08-10_10h48.12.110,lexical_decision_task_MP,2020.1.3,Win32,60,m,1,0.54197,,,,,,,,0.54197,1,,,,,,41,WORD,"ID",33,spring,SPRING,m,,,,,,0.698148148,-0.071296296,0,0,0,,0,162,162,40,1,
,,,,,,,,,,,,,,,,,,5d86c09df681a1001a8dddc8,2020-08-10_10h48.12.110,lexical_decision_task_MP,2020.1.3,Win32,60,z,1,0.60719,,,,,,,,0.60719,1,,,,,,441,NW,UN,50,aboune,RASTOE,z,,,,,,0.698148148,-0.071296296,0,0,0,,0,163,163,440,1,
,,,,,,,,,,,,,,,,,,5d86c09df681a1001a8dddc8,2020-08-10_10h48.12.110,lexical_decision_task_MP,2020.1.3,Win32,60,z,1,0.607755,,,,,,,,0.607755,1,,,,,,283,NW,"ID",33,veralf,VERALF,z,,,,,,0.698148148,-0.071296296,0,0,0,,0,164,164,282,1,
,,,,,,,,,,,,,,,,,,5d86c09df681a1001a8dddc8,2020-08-10_10h48.12.110,lexical_decision_task_MP,2020.1.3,Win32,60,m,1,0.59088,,,,,,,,0.59088,1,,,,,,52,WORD,"ID",33,impose,IMPOSE,m,,,,,,0.698148148,-0.071296296,0,0,0,,0,165,165,51,1,
,,,,,,,,,,,,,,,,,,5d86c09df681a1001a8dddc8,2020-08-10_10h48.12.110,lexical_decision_task_MP,2020.1.3,Win32,60,m,1,0.70318,,,,,,,,0.70318,1,,,,,,217,WORD,UN,50,shrink,LIQUOR,m,,,,,,0.698148148,-0.071296296,0,0,0,,0,166,166,216,1,
,,,,,,,,,,,,,,,,,,5d86c09df681a1001a8dddc8,2020-08-10_10h48.12.110,lexical_decision_task_MP,2020.1.3,Win32,60,z,1,0.788935,,,,,,,,0.788935,1,,,,,,294,NW,"ID",33,inhort,INHORT,z,,,,,,0.698148148,-0.071296296,0,0,0,,0,167,167,293,1,
,,,,,,,,,,,,,,,,,,5d86c09df681a1001a8dddc8,2020-08-10_10h48.12.110,lexical_decision_task_MP,2020.1.3,Win32,60,m,1,0.755225,,,,,,,,0.755225,1,,,,,,222,WORD,UN,50,casino,HINDER,m,,,,,,0.698148148,-0.071296296,0,0,0,,0,168,168,221,1,
,,,,,,,,,,,,,,,,,,5d86c09df681a1001a8dddc8,2020-08-10_10h48.12.110,lexical_decision_task_MP,2020.1.3,Win32,60,m,1,0.82196,,,,,,,,0.82196,1,,,,,,20,WORD,"ID",33,breast,BREAST,m,,,,,,0.698148148,-0.071296296,0,0,0,,0,169,169,19,1,
,,,,,,,,,,,,,,,,,,5d86c09df681a1001a8dddc8,2020-08-10_10h48.12.110,lexical_decision_task_MP,2020.1.3,Win32,60,m,1,0.63874,,,,,,,,0.63874,1,,,,,,140,WORD,UN,33,reason,PRINCE,m,,,,,,0.698148148,-0.071296296,0,0,0,,0,170,170,139,1,
,,,,,,,,,,,,,,,,,,5d86c09df681a1001a8dddc8,2020-08-10_10h48.12.110,lexical_decision_task_MP,2020.1.3,Win32,60,z,1,0.57256,,,,,,,,0.57256,1,,,,,,451,NW,UN,50,surden,CAINKY,z,,,,,,0.698148148,-0.071296296,0,0,0,,0,171,171,450,1,
,,,,,,,,,,,,,,,,,,5d86c09df681a1001a8dddc8,2020-08-10_10h48.12.110,lexical_decision_task_MP,2020.1.3,Win32,60,m,1,0.621645,,,,,,,,0.621645,1,,,,,,164,WORD,UN,33,invest,MARKET,m,,,,,,0.698148148,-0.071296296,0,0,0,,0,172,172,163,1,
,,,,,,,,,,,,,,,,,,5d86c09df681a1001a8dddc8,2020-08-10_10h48.12.110,lexical_decision_task_MP,2020.1.3,Win32,60,z,1,0.7076,,,,,,,,0.7076,1,,,,,,247,NW,"ID",33,blarge,BLARGE,z,,,,,,0.698148148,-0.071296296,0,0,0,,0,173,173,246,1,
,,,,,,,,,,,,,,,,,,5d86c09df681a1001a8dddc8,2020-08-10_10h48.12.110,lexical_decision_task_MP,2020.1.3,Win32,60,z,1,0.70199,,,,,,,,0.70199,1,,,,,,460,NW,UN,50,justre,MINGAR,z,,,,,,0.698148148,-0.071296296,0,0,0,,0,174,174,459,1,
,,,,,,,,,,,,,,,,,,5d86c09df681a1001a8dddc8,2020-08-10_10h48.12.110,lexical_decision_task_MP,2020.1.3,Win32,60,z,1,0.657135,,,,,,,,0.657135,1,,,,,,450,NW,UN,50,rastoe,PHRECT,z,,,,,,0.698148148,-0.071296296,0,0,0,,0,175,175,449,1,
,,,,,,,,,,,,,,,,,,5d86c09df681a1001a8dddc8,2020-08-10_10h48.12.110,lexical_decision_task_MP,2020.1.3,Win32,60,z,1,0.7524,,,,,,,,0.7524,1,,,,,,370,NW,UN,33,geiloy,SLEACT,z,,,,,,0.698148148,-0.071296296,0,0,0,,0,176,176,369,1,
,,,,,,,,,,,,,,,,,,5d86c09df681a1001a8dddc8,2020-08-10_10h48.12.110,lexical_decision_task_MP,2020.1.3,Win32,60,m,1,0.71586,,,,,,,,0.71586,1,,,,,,137,WORD,UN,33,melody,FINGER,m,,,,,,0.698148148,-0.071296296,0,0,0,,0,177,177,136,1,
,,,,,,,,,,,,,,,,,,5d86c09df681a1001a8dddc8,2020-08-10_10h48.12.110,lexical_decision_task_MP,2020.1.3,Win32,60,m,1,0.57485,,,,,,,,0.57485,1,,,,,,74,WORD,"ID",50,plaque,PLAQUE,m,,,,,,0.698148148,-0.071296296,0,0,0,,0,178,178,73,1,
,,,,,,,,,,,,,,,,,,5d86c09df681a1001a8dddc8,2020-08-10_10h48.12.110,lexical_decision_task_MP,2020.1.3,Win32,60,m,1,0.551425,,,,,,,,0.551425,1,,,,,,110,WORD,"ID",50,polite,POLITE,m,,,,,,0.698148148,-0.071296296,0,0,0,,0,179,179,109,1,
,,,,,,,,,,,,,,,,,,5d86c09df681a1001a8dddc8,2020-08-10_10h48.12.110,lexical_decision_task_MP,2020.1.3,Win32,60,z,1,0.81678,,,,,,,,0.81678,1,,,,,,307,NW,"ID",50,kirafe,KIRAFE,z,,,,,,0.698148148,-0.071296296,0,0,0,,0,180,180,306,1,
,,,,,,,,,,,,,,,,,,5d86c09df681a1001a8dddc8,2020-08-10_10h48.12.110,lexical_decision_task_MP,2020.1.3,Win32,60,m,1,0.488875,,,,,,,,0.488875,1,,,,,,153,WORD,UN,33,author,BEHOLD,m,,,,,,0.698148148,-0.071296296,0,0,0,,0,181,181,152,1,
,,,,,,,,,,,,,,,,,,5d86c09df681a1001a8dddc8,2020-08-10_10h48.12.110,lexical_decision_task_MP,2020.1.3,Win32,60,z,1,0.618565,,,,,,,,0.618565,1,,,,,,304,NW,"ID",50,cludie,CLUDIE,z,,,,,,0.698148148,-0.071296296,0,0,0,,0,182,182,303,1,
,,,,,,,,,,,,,,,,,,5d86c09df681a1001a8dddc8,2020-08-10_10h48.12.110,lexical_decision_task_MP,2020.1.3,Win32,60,m,1,0.567995,,,,,,,,0.567995,1,,,,,,174,WORD,UN,33,fabric,TURKEY,m,,,,,,0.698148148,-0.071296296,0,0,0,,0,183,183,173,1,
,,,,,,,,,,,,,,,,,,5d86c09df681a1001a8dddc8,2020-08-10_10h48.12.110,lexical_decision_task_MP,2020.1.3,Win32,60,m,1,0.572775,,,,,,,,0.572775,1,,,,,,106,WORD,"ID",50,ransom,RANSOM,m,,,,,,0.698148148,-0.071296296,0,0,0,,0,184,184,105,1,
,,,,,,,,,,,,,,,,,,5d86c09df681a1001a8dddc8,2020-08-10_10h48.12.110,lexical_decision_task_MP,2020.1.3,Win32,60,m,1,0.467275,,,,,,,,0.467275,1,,,,,,75,WORD,"ID",50,trophy,TROPHY,m,,,,,,0.698148148,-0.071296296,0,0,0,,0,185,185,74,1,
,,,,,,,,,,,,,,,,,,5d86c09df681a1001a8dddc8,2020-08-10_10h48.12.110,lexical_decision_task_MP,2020.1.3,Win32,60,m,1,0.53412,,,,,,,,0.53412,1,,,,,,21,WORD,"ID",33,simple,SIMPLE,m,,,,,,0.698148148,-0.071296296,0,0,0,,0,186,186,20,1,
,,,,,,,,,,,,,,,,,,5d86c09df681a1001a8dddc8,2020-08-10_10h48.12.110,lexical_decision_task_MP,2020.1.3,Win32,60,z,1,0.63541,,,,,,,,0.63541,1,,,,,,377,NW,UN,33,shrile,INJORE,z,,,,,,0.698148148,-0.071296296,0,0,0,,0,187,187,376,1,
,,,,,,,,,,,,,,,,,,5d86c09df681a1001a8dddc8,2020-08-10_10h48.12.110,lexical_decision_task_MP,2020.1.3,Win32,60,z,1,0.700795,,,,,,,,0.700795,1,,,,,,348,NW,"ID",50,dumple,DUMPLE,z,,,,,,0.698148148,-0.071296296,0,0,0,,0,188,188,347,1,
,,,,,,,,,,,,,,,,,,5d86c09df681a1001a8dddc8,2020-08-10_10h48.12.110,lexical_decision_task_MP,2020.1.3,Win32,60,z,1,0.56783,,,,,,,,0.56783,1,,,,,,292,NW,"ID",33,ablint,ABLINT,z,,,,,,0.698148148,-0.071296296,0,0,0,,0,189,189,291,1,
,,,,,,,,,,,,,,,,,,5d86c09df681a1001a8dddc8,2020-08-10_10h48.12.110,lexical_decision_task_MP,2020.1.3,Win32,60,m,1,0.77004,,,,,,,,0.77004,1,,,,,,79,WORD,"ID",50,theory,THEORY,m,,,,,,0.698148148,-0.071296296,0,0,0,,0,190,190,78,1,
,,,,,,,,,,,,,,,,,,5d86c09df681a1001a8dddc8,2020-08-10_10h48.12.110,lexical_decision_task_MP,2020.1.3,Win32,60,m,1,0.53872,,,,,,,,0.53872,1,,,,,,154,WORD,UN,33,lizard,AUTHOR,m,,,,,,0.698148148,-0.071296296,0,0,0,,0,191,191,153,1,
,,,,,,,,,,,,,,,,,,5d86c09df681a1001a8dddc8,2020-08-10_10h48.12.110,lexical_decision_task_MP,2020.1.3,Win32,60,z,1,0.56839,,,,,,,,0.56839,1,,,,,,457,NW,UN,50,barcet,WANIGH,z,,,,,,0.698148148,-0.071296296,0,0,0,,0,192,192,456,1,
,,,,,,,,,,,,,,,,,,5d86c09df681a1001a8dddc8,2020-08-10_10h48.12.110,lexical_decision_task_MP,2020.1.3,Win32,60,z,1,0.637985,,,,,,,,0.637985,1,,,,,,367,NW,UN,33,hornal,SLIQUE,z,,,,,,0.698148148,-0.071296296,0,0,0,,0,193,193,366,1,
,,,,,,,,,,,,,,,,,,5d86c09df681a1001a8dddc8,2020-08-10_10h48.12.110,lexical_decision_task_MP,2020.1.3,Win32,60,m,1,0.63888,,,,,,,,0.63888,1,,,,,,83,WORD,"ID",50,result,RESULT,m,,,,,,0.698148148,-0.071296296,0,0,0,,0,194,194,82,1,
,,,,,,,,,,,,,,,,,,5d86c09df681a1001a8dddc8,2020-08-10_10h48.12.110,lexical_decision_task_MP,2020.1.3,Win32,60,z,1,0.70088,,,,,,,,0.70088,1,,,,,,291,NW,"ID",33,pretch,PRETCH,z,,,,,,0.698148148,-0.071296296,0,0,0,,0,195,195,290,1,
,,,,,,,,,,,,,,,,,,5d86c09df681a1001a8dddc8,2020-08-10_10h48.12.110,lexical_decision_task_MP,2020.1.3,Win32,60,z,1,0.58496,,,,,,,,0.58496,1,,,,,,271,NW,"ID",33,aubrid,AUBRID,z,,,,,,0.698148148,-0.071296296,0,0,0,,0,196,196,270,1,
,,,,,,,,,,,,,,,,,,5d86c09df681a1001a8dddc8,2020-08-10_10h48.12.110,lexical_decision_task_MP,2020.1.3,Win32,60,m,1,0.502785,,,,,,,,0.502785,1,,,,,,229,WORD,UN,50,fringe,MOTHER,m,,,,,,0.698148148,-0.071296296,0,0,0,,0,197,197,228,1,
,,,,,,,,,,,,,,,,,,5d86c09df681a1001a8dddc8,2020-08-10_10h48.12.110,lexical_decision_task_MP,2020.1.3,Win32,60,z,1,0.572275,,,,,,,,0.572275,1,,,,,,256,NW,"ID",33,inlors,INLORS,z,,,,,,0.698148148,-0.071296296,0,0,0,,0,198,198,255,1,
,,,,,,,,,,,,,,,,,,5d86c09df681a1001a8dddc8,2020-08-10_10h48.12.110,lexical_decision_task_MP,2020.1.3,Win32,60,z,1,0.634225,,,,,,,,0.634225,1,,,,,,252,NW,"ID",33,stapod,STAPOD,z,,,,,,0.698148148,-0.071296296,0,0,0,,0,199,199,251,1,
,,,,,,,,,,,,,,,,,,5d86c09df681a1001a8dddc8,2020-08-10_10h48.12.110,lexical_decision_task_MP,2020.1.3,Win32,60,m,1,0.571605,,,,,,,,0.571605,1,,,,,,237,WORD,UN,50,seldom,POSTER,m,,,,,,0.698148148,-0.071296296,0,0,0,,0,200,200,236,1,
,,,,,,,,,,,,,,,,,,5d86c09df681a1001a8dddc8,2020-08-10_10h48.12.110,lexical_decision_task_MP,2020.1.3,Win32,60,m,0,0.500905,,,,,,,,0.500905,0,,,,,,303,NW,"ID",50,fiream,FIREAM,z,,,,,,0.698148148,-0.071296296,0,0,0,,0,201,201,302,1,
,,,,,,,,,,,,,,,,,,5d86c09df681a1001a8dddc8,2020-08-10_10h48.12.110,lexical_decision_task_MP,2020.1.3,Win32,60,z,1,0.799435,,,,,,,,0.799435,1,,,,,,289,NW,"ID",33,starby,STARBY,z,,,,,,0.698148148,-0.071296296,0,0,0,,0,202,202,288,1,
,,,,,,,,,,,,,,,,,,5d86c09df681a1001a8dddc8,2020-08-10_10h48.12.110,lexical_decision_task_MP,2020.1.3,Win32,60,z,1,0.57027,,,,,,,,0.57027,1,,,,,,263,NW,"ID",33,dolica,DOLICA,z,,,,,,0.698148148,-0.071296296,0,0,0,,0,203,203,262,1,
,,,,,,,,,,,,,,,,,,5d86c09df681a1001a8dddc8,2020-08-10_10h48.12.110,lexical_decision_task_MP,2020.1.3,Win32,60,m,1,0.518095,,,,,,,,0.518095,1,,,,,,33,WORD,"ID",33,butler,BUTLER,m,,,,,,0.698148148,-0.071296296,0,0,0,,0,204,204,32,1,
,,,,,,,,,,,,,,,,,,5d86c09df681a1001a8dddc8,2020-08-10_10h48.12.110,lexical_decision_task_MP,2020.1.3,Win32,60,z,1,0.502715,,,,,,,,0.502715,1,,,,,,351,NW,"ID",50,tiesch,TIESCH,z,,,,,,0.698148148,-0.071296296,0,0,0,,0,205,205,350,1,
,,,,,,,,,,,,,,,,,,5d86c09df681a1001a8dddc8,2020-08-10_10h48.12.110,lexical_decision_task_MP,2020.1.3,Win32,60,m,1,0.484075,,,,,,,,0.484075,1,,,,,,53,WORD,"ID",33,police,POLICE,m,,,,,,0.698148148,-0.071296296,0,0,0,,0,206,206,52,1,
,,,,,,,,,,,,,,,,,,5d86c09df681a1001a8dddc8,2020-08-10_10h48.12.110,lexical_decision_task_MP,2020.1.3,Win32,60,z,1,0.50169,,,,,,,,0.50169,1,,,,,,376,NW,UN,33,sliant,IGUARE,z,,,,,,0.698148148,-0.071296296,0,0,0,,0,207,207,375,1,
,,,,,,,,,,,,,,,,,,5d86c09df681a1001a8dddc8,2020-08-10_10h48.12.110,lexical_decision_task_MP,2020.1.3,Win32,60,z,0,0.520685,,,,,,,,0.520685,0,,,,,,159,WORD,UN,33,violet,DETAIL,m,,,,,,0.698148148,-0.071296296,0,0,0,,0,208,208,158,1,
,,,,,,,,,,,,,,,,,,5d86c09df681a1001a8dddc8,2020-08-10_10h48.12.110,lexical_decision_task_MP,2020.1.3,Win32,60,z,1,0.773385,,,,,,,,0.773385,1,,,,,,349,NW,"ID",50,asylen,ASYLEN,z,,,,,,0.698148148,-0.071296296,0,0,0,,0,209,209,348,1,
,,,,,,,,,,,,,,,,,,5d86c09df681a1001a8dddc8,2020-08-10_10h48.12.110,lexical_decision_task_MP,2020.1.3,Win32,60,m,1,0.549275,,,,,,,,0.549275,1,,,,,,112,WORD,"ID",50,breath,BREATH,m,,,,,,0.698148148,-0.071296296,0,0,0,,0,210,210,111,1,
,,,,,,,,,,,,,,,,,,5d86c09df681a1001a8dddc8,2020-08-10_10h48.12.110,lexical_decision_task_MP,2020.1.3,Win32,60,z,1,0.656865,,,,,,,,0.656865,1,,,,,,339,NW,"ID",50,fachow,FACHOW,z,,,,,,0.698148148,-0.071296296,0,0,0,,0,211,211,338,1,
,,,,,,,,,,,,,,,,,,5d86c09df681a1001a8dddc8,2020-08-10_10h48.12.110,lexical_decision_task_MP,2020.1.3,Win32,60,z,1,0.684845,,,,,,,,0.684845,1,,,,,,285,NW,"ID",33,prudge,PRUDGE,z,,,,,,0.698148148,-0.071296296,0,0,0,,0,212,212,284,1,
,,,,,,,,,,,,,,,,,,5d86c09df681a1001a8dddc8,2020-08-10_10h48.12.110,lexical_decision_task_MP,2020.1.3,Win32,60,m,1,0.751245,,,,,,,,0.751245,1,,,,,,160,WORD,UN,33,dragon,VIOLET,m,,,,,,0.698148148,-0.071296296,0,0,0,,0,213,213,159,1,
,,,,,,,,,,,,,,,,,,5d86c09df681a1001a8dddc8,2020-08-10_10h48.12.110,lexical_decision_task_MP,2020.1.3,Win32,60,m,1,0.620225,,,,,,,,0.620225,1,,,,,,240,WORD,UN,50,glance,FOREST,m,,,,,,0.698148148,-0.071296296,0,0,0,,0,214,214,239,1,
,,,,,,,,,,,,,,,,,,5d86c09df681a1001a8dddc8,2020-08-10_10h48.12.110,lexical_decision_task_MP,2020.1.3,Win32,60,z,0,0.706795,,,,,,,,0.706795,0,,,,,,111,WORD,"ID",50,induce,INDUCE,m,,,,,,0.698148148,-0.071296296,0,0,0,,0,215,215,110,1,
,,,,,,,,,,,,,,,,,,5d86c09df681a1001a8dddc8,2020-08-10_10h48.12.110,lexical_decision_task_MP,2020.1.3,Win32,60,z,1,0.805945,,,,,,,,0.805945,1,,,,,,397,NW,UN,33,blunde,CAMBLE,z,,,,,,0.698148148,-0.071296296,0,0,0,,0,216,216,396,1,
,,,,,,,,,,,,,,,,,,5d86c09df681a1001a8dddc8,2020-08-10_10h48.12.110,lexical_decision_task_MP,2020.1.3,Win32,60,m,1,0.5846,,,,,,,,0.5846,1,,,,,,226,WORD,UN,50,flower,CASINO,m,,,,,,0.698148148,-0.071296296,0,0,0,,0,217,217,225,1,
,,,,,,,,,,,,,,,,,,5d86c09df681a1001a8dddc8,2020-08-10_10h48.12.110,lexical_decision_task_MP,2020.1.3,Win32,60,z,1,0.733085,,,,,,,,0.733085,1,,,,,,459,NW,UN,50,mingar,BAFENT,z,,,,,,0.698148148,-0.071296296,0,0,0,,0,218,218,458,1,
,,,,,,,,,,,,,,,,,,5d86c09df681a1001a8dddc8,2020-08-10_10h48.12.110,lexical_decision_task_MP,2020.1.3,Win32,60,z,1,0.668405,,,,,,,,0.668405,1,,,,,,251,NW,"ID",33,lupict,LUPICT,z,,,,,,0.698148148,-0.071296296,0,0,0,,0,219,219,250,1,
,,,,,,,,,,,,,,,,,,5d86c09df681a1001a8dddc8,2020-08-10_10h48.12.110,lexical_decision_task_MP,2020.1.3,Win32,60,m,1,0.57396,,,,,,,,0.57396,1,,,,,,47,WORD,"ID",33,income,INCOME,m,,,,,,0.698148148,-0.071296296,0,0,0,,0,220,220,46,1,
,,,,,,,,,,,,,,,,,,5d86c09df681a1001a8dddc8,2020-08-10_10h48.12.110,lexical_decision_task_MP,2020.1.3,Win32,60,m,1,0.515445,,,,,,,,0.515445,1,,,,,,28,WORD,"ID",33,comedy,COMEDY,m,,,,,,0.698148148,-0.071296296,0,0,0,,0,221,221,27,1,
,,,,,,,,,,,,,,,,,,5d86c09df681a1001a8dddc8,2020-08-10_10h48.12.110,lexical_decision_task_MP,2020.1.3,Win32,60,m,1,0.61397,,,,,,,,0.61397,1,,,,,,199,WORD,UN,50,beacon,INVOKE,m,,,,,,0.698148148,-0.071296296,0,0,0,,0,222,222,198,1,
,,,,,,,,,,,,,,,,,,5d86c09df681a1001a8dddc8,2020-08-10_10h48.12.110,lexical_decision_task_MP,2020.1.3,Win32,60,z,1,0.62054,,,,,,,,0.62054,1,,,,,,383,NW,UN,33,guesco,AUNGRE,z,,,,,,0.698148148,-0.071296296,0,0,0,,0,223,223,382,1,
,,,,,,,,,,,,,,,,,,5d86c09df681a1001a8dddc8,2020-08-10_10h48.12.110,lexical_decision_task_MP,2020.1.3,Win32,60,m,1,0.71772,,,,,,,,0.71772,1,,,,,,208,WORD,UN,50,search,HOCKEY,m,,,,,,0.698148148,-0.071296296,0,0,0,,0,224,224,207,1,
,,,,,,,,,,,,,,,,,,5d86c09df681a1001a8dddc8,2020-08-10_10h48.12.110,lexical_decision_task_MP,2020.1.3,Win32,60,m,1,0.567915,,,,,,,,0.567915,1,,,,,,144,WORD,UN,33,parish,SPONGE,m,,,,,,0.698148148,-0.071296296,0,0,0,,0,225,225,143,1,
,,,,,,,,,,,,,,,,,,5d86c09df681a1001a8dddc8,2020-08-10_10h48.12.110,lexical_decision_task_MP,2020.1.3,Win32,60,m,1,0.62074,,,,,,,,0.62074,1,,,,,,45,WORD,"ID",33,clergy,CLERGY,m,,,,,,0.698148148,-0.071296296,0,0,0,,0,226,226,44,1,
,,,,,,,,,,,,,,,,,,5d86c09df681a1001a8dddc8,2020-08-10_10h48.12.110,lexical_decision_task_MP,2020.1.3,Win32,60,m,1,0.6345,,,,,,,,0.6345,1,,,,,,216,WORD,UN,50,liquor,BEHALF,m,,,,,,0.698148148,-0.071296296,0,0,0,,0,227,227,215,1,
,,,,,,,,,,,,,,,,,,5d86c09df681a1001a8dddc8,2020-08-10_10h48.12.110,lexical_decision_task_MP,2020.1.3,Win32,60,m,1,0.59816,,,,,,,,0.59816,1,,,,,,145,WORD,UN,33,couple,PARISH,m,,,,,,0.698148148,-0.071296296,0,0,0,,0,228,228,144,1,
,,,,,,,,,,,,,,,,,,5d86c09df681a1001a8dddc8,2020-08-10_10h48.12.110,lexical_decision_task_MP,2020.1.3,Win32,60,m,1,0.556,,,,,,,,0.556,1,,,,,,209,WORD,UN,50,monkey,SEARCH,m,,,,,,0.698148148,-0.071296296,0,0,0,,0,229,229,208,1,
,,,,,,,,,,,,,,,,,,5d86c09df681a1001a8dddc8,2020-08-10_10h48.12.110,lexical_decision_task_MP,2020.1.3,Win32,60,m,1,0.53409,,,,,,,,0.53409,1,,,,,,97,WORD,"ID",50,client,CLIENT,m,,,,,,0.698148148,-0.071296296,0,0,0,,0,230,230,96,1,
,,,,,,,,,,,,,,,,,,5d86c09df681a1001a8dddc8,2020-08-10_10h48.12.110,lexical_decision_task_MP,2020.1.3,Win32,60,m,1,0.634425,,,,,,,,0.634425,1,,,,,,126,WORD,UN,33,castle,ENOUGH,m,,,,,,0.698148148,-0.071296296,0,0,0,,0,231,231,125,1,
,,,,,,,,,,,,,,,,,,5d86c09df681a1001a8dddc8,2020-08-10_10h48.12.110,lexical_decision_task_MP,2020.1.3,Win32,60,m,1,0.71841,,,,,,,,0.71841,1,,,,,,56,WORD,"ID",33,ambush,AMBUSH,m,,,,,,0.698148148,-0.071296296,0,0,0,,0,232,232,55,1,
,,,,,,,,,,,,,,,,,,5d86c09df681a1001a8dddc8,2020-08-10_10h48.12.110,lexical_decision_task_MP,2020.1.3,Win32,60,m,1,0.47289,,,,,,,,0.47289,1,,,,,,96,WORD,"ID",50,ignore,IGNORE,m,,,,,,0.698148148,-0.071296296,0,0,0,,0,233,233,95,1,
,,,,,,,,,,,,,,,,,,5d86c09df681a1001a8dddc8,2020-08-10_10h48.12.110,lexical_decision_task_MP,2020.1.3,Win32,60,z,1,0.622195,,,,,,,,0.622195,1,,,,,,317,NW,"ID",50,worbal,WORBAL,z,,,,,,0.698148148,-0.071296296,0,0,0,,0,234,234,316,1,
,,,,,,,,,,,,,,,,,,5d86c09df681a1001a8dddc8,2020-08-10_10h48.12.110,lexical_decision_task_MP,2020.1.3,Win32,60,m,1,0.6852,,,,,,,,0.6852,1,,,,,,103,WORD,"ID",50,bounce,BOUNCE,m,,,,,,0.698148148,-0.071296296,0,0,0,,0,235,235,102,1,
,,,,,,,,,,,,,,,,,,5d86c09df681a1001a8dddc8,2020-08-10_10h48.12.110,lexical_decision_task_MP,2020.1.3,Win32,60,m,1,0.569045,,,,,,,,0.569045,1,,,,,,180,WORD,UN,33,thrive,SILENT,m,,,,,,0.698148148,-0.071296296,0,0,0,,0,236,236,179,1,
,,,,,,,,,,,,,,,,,,5d86c09df681a1001a8dddc8,2020-08-10_10h48.12.110,lexical_decision_task_MP,2020.1.3,Win32,60,m,1,0.554755,,,,,,,,0.554755,1,,,,,,152,WORD,UN,33,behold,ROCKET,m,,,,,,0.698148148,-0.071296296,0,0,0,,0,237,237,151,1,
,,,,,,,,,,,,,,,,,,5d86c09df681a1001a8dddc8,2020-08-10_10h48.12.110,lexical_decision_task_MP,2020.1.3,Win32,60,z,1,0.635825,,,,,,,,0.635825,1,,,,,,406,NW,UN,33,suiver,NOUPLY,z,,,,,,0.698148148,-0.071296296,0,0,0,,0,238,238,405,1,
,,,,,,,,,,,,,,,,,,5d86c09df681a1001a8dddc8,2020-08-10_10h48.12.110,lexical_decision_task_MP,2020.1.3,Win32,60,m,1,0.600515,,,,,,,,0.600515,1,,,,,,151,WORD,UN,33,rocket,MYSTIC,m,,,,,,0.698148148,-0.071296296,0,0,0,,0,239,239,150,1,
,,,,,,,,,,,,,,,,,,5d86c09df681a1001a8dddc8,2020-08-10_10h48.12.110,lexical_decision_task_MP,2020.1.3,Win32,60,m,1,0.499545,,,,,,,,0.499545,1,,,,,,147,WORD,UN,33,custom,GARLIC,m,,,,,,0.698148148,-0.071296296,0,0,0,,0,240,240,146,1,
,,,,,,,,,,,,,,,,,,5d86c09df681a1001a8dddc8,2020-08-10_10h48.12.110,lexical_decision_task_MP,2020.1.3,Win32,60,m,1,0.61744,,,,,,,,0.61744,1,,,,,,161,WORD,UN,33,candle,PASTOR,m,,,,,,0.027777778,-0.087962963,0,0,0,space,0,241,241,160,1,24.42686
,,,,,,,,,,,,,,,,,,5d86c09df681a1001a8dddc8,2020-08-10_10h48.12.110,lexical_decision_task_MP,2020.1.3,Win32,60,m,1,0.651455,,,,,,,,0.651455,1,,,,,,36,WORD,"ID",33,vanish,VANISH,m,,,,,,0.027777778,-0.087962963,0,0,0,,0,242,242,35,1,
,,,,,,,,,,,,,,,,,,5d86c09df681a1001a8dddc8,2020-08-10_10h48.12.110,lexical_decision_task_MP,2020.1.3,Win32,60,m,1,0.46802,,,,,,,,0.46802,1,,,,,,109,WORD,"ID",50,wonder,WONDER,m,,,,,,0.027777778,-0.087962963,0,0,0,,0,243,243,108,1,
,,,,,,,,,,,,,,,,,,5d86c09df681a1001a8dddc8,2020-08-10_10h48.12.110,lexical_decision_task_MP,2020.1.3,Win32,60,z,1,0.585745,,,,,,,,0.585745,1,,,,,,410,NW,UN,33,orchin,TUNORY,z,,,,,,0.027777778,-0.087962963,0,0,0,,0,244,244,409,1,
,,,,,,,,,,,,,,,,,,5d86c09df681a1001a8dddc8,2020-08-10_10h48.12.110,lexical_decision_task_MP,2020.1.3,Win32,60,z,1,0.66783,,,,,,,,0.66783,1,,,,,,419,NW,UN,33,gushop,SLOUNT,z,,,,,,0.027777778,-0.087962963,0,0,0,,0,245,245,418,1,
,,,,,,,,,,,,,,,,,,5d86c09df681a1001a8dddc8,2020-08-10_10h48.12.110,lexical_decision_task_MP,2020.1.3,Win32,60,z,1,0.575635,,,,,,,,0.575635,1,,,,,,466,NW,UN,50,pebric,HOCITE,z,,,,,,0.027777778,-0.087962963,0,0,0,,0,246,246,465,1,
,,,,,,,,,,,,,,,,,,5d86c09df681a1001a8dddc8,2020-08-10_10h48.12.110,lexical_decision_task_MP,2020.1.3,Win32,60,z,1,0.734175,,,,,,,,0.734175,1,,,,,,391,NW,UN,33,rouncy,THELDY,z,,,,,,0.027777778,-0.087962963,0,0,0,,0,247,247,390,1,
,,,,,,,,,,,,,,,,,,5d86c09df681a1001a8dddc8,2020-08-10_10h48.12.110,lexical_decision_task_MP,2020.1.3,Win32,60,z,1,0.6841,,,,,,,,0.6841,1,,,,,,265,NW,"ID",33,distar,DISTAR,z,,,,,,0.027777778,-0.087962963,0,0,0,,0,248,248,264,1,
,,,,,,,,,,,,,,,,,,5d86c09df681a1001a8dddc8,2020-08-10_10h48.12.110,lexical_decision_task_MP,2020.1.3,Win32,60,m,1,0.607245,,,,,,,,0.607245,1,,,,,,212,WORD,UN,50,squeal,VERIFY,m,,,,,,0.027777778,-0.087962963,0,0,0,,0,249,249,211,1,
,,,,,,,,,,,,,,,,,,5d86c09df681a1001a8dddc8,2020-08-10_10h48.12.110,lexical_decision_task_MP,2020.1.3,Win32,60,m,1,0.62031,,,,,,,,0.62031,1,,,,,,232,WORD,UN,50,nature,INJECT,m,,,,,,0.027777778,-0.087962963,0,0,0,,0,250,250,231,1,
,,,,,,,,,,,,,,,,,,5d86c09df681a1001a8dddc8,2020-08-10_10h48.12.110,lexical_decision_task_MP,2020.1.3,Win32,60,m,1,0.70146,,,,,,,,0.70146,1,,,,,,235,WORD,UN,50,pirate,GRUMPY,m,,,,,,0.027777778,-0.087962963,0,0,0,,0,251,251,234,1,
,,,,,,,,,,,,,,,,,,5d86c09df681a1001a8dddc8,2020-08-10_10h48.12.110,lexical_decision_task_MP,2020.1.3,Win32,60,m,1,0.5995,,,,,,,,0.5995,1,,,,,,236,WORD,UN,50,poster,PIRATE,m,,,,,,0.027777778,-0.087962963,0,0,0,,0,252,252,235,1,
,,,,,,,,,,,,,,,,,,5d86c09df681a1001a8dddc8,2020-08-10_10h48.12.110,lexical_decision_task_MP,2020.1.3,Win32,60,m,1,0.520705,,,,,,,,0.520705,1,,,,,,18,WORD,"ID",33,humble,HUMBLE,m,,,,,,0.027777778,-0.087962963,0,0,0,,0,253,253,17,1,
,,,,,,,,,,,,,,,,,,5d86c09df681a1001a8dddc8,2020-08-10_10h48.12.110,lexical_decision_task_MP,2020.1.3,Win32,60,z,1,0.5686,,,,,,,,0.5686,1,,,,,,384,NW,UN,33,veigma,GUESCO,z,,,,,,0.027777778,-0.087962963,0,0,0,,0,254,254,383,1,
,,,,,,,,,,,,,,,,,,5d86c09df681a1001a8dddc8,2020-08-10_10h48.12.110,lexical_decision_task_MP,2020.1.3,Win32,60,m,1,0.55772,,,,,,,,0.55772,1,,,,,,167,WORD,UN,33,answer,DESIGN,m,,,,,,0.027777778,-0.087962963,0,0,0,,0,255,255,166,1,
,,,,,,,,,,,,,,,,,,5d86c09df681a1001a8dddc8,2020-08-10_10h48.12.110,lexical_decision_task_MP,2020.1.3,Win32,60,z,1,0.65189,,,,,,,,0.65189,1,,,,,,390,NW,UN,33,theldy,HATRUS,z,,,,,,0.027777778,-0.087962963,0,0,0,,0,256,256,389,1,
,,,,,,,,,,,,,,,,,,5d86c09df681a1001a8dddc8,2020-08-10_10h48.12.110,lexical_decision_task_MP,2020.1.3,Win32,60,z,1,0.6717,,,,,,,,0.6717,1,,,,,,448,NW,UN,50,brunge,SADENT,z,,,,,,0.027777778,-0.087962963,0,0,0,,0,257,257,447,1,
,,,,,,,,,,,,,,,,,,5d86c09df681a1001a8dddc8,2020-08-10_10h48.12.110,lexical_decision_task_MP,2020.1.3,Win32,60,z,1,0.918015,,,,,,,,0.918015,1,,,,,,244,NW,"ID",33,eatric,EATRIC,z,,,,,,0.027777778,-0.087962963,0,0,0,,0,258,258,243,1,
,,,,,,,,,,,,,,,,,,5d86c09df681a1001a8dddc8,2020-08-10_10h48.12.110,lexical_decision_task_MP,2020.1.3,Win32,60,m,1,0.54209,,,,,,,,0.54209,1,,,,,,89,WORD,"ID",50,permit,PERMIT,m,,,,,,0.027777778,-0.087962963,0,0,0,,0,259,259,88,1,
,,,,,,,,,,,,,,,,,,5d86c09df681a1001a8dddc8,2020-08-10_10h48.12.110,lexical_decision_task_MP,2020.1.3,Win32,60,z,1,0.638935,,,,,,,,0.638935,1,,,,,,476,NW,UN,50,photie,JOSTED,z,,,,,,0.027777778,-0.087962963,0,0,0,,0,260,260,475,1,
,,,,,,,,,,,,,,,,,,5d86c09df681a1001a8dddc8,2020-08-10_10h48.12.110,lexical_decision_task_MP,2020.1.3,Win32,60,m,1,0.51877,,,,,,,,0.51877,1,,,,,,168,WORD,UN,33,genius,ANSWER,m,,,,,,0.027777778,-0.087962963,0,0,0,,0,261,261,167,1,
,,,,,,,,,,,,,,,,,,5d86c09df681a1001a8dddc8,2020-08-10_10h48.12.110,lexical_decision_task_MP,2020.1.3,Win32,60,z,1,0.78572,,,,,,,,0.78572,1,,,,,,398,NW,UN,33,fouret,BLUNDE,z,,,,,,0.027777778,-0.087962963,0,0,0,,0,262,262,397,1,
,,,,,,,,,,,,,,,,,,5d86c09df681a1001a8dddc8,2020-08-10_10h48.12.110,lexical_decision_task_MP,2020.1.3,Win32,60,z,1,0.617295,,,,,,,,0.617295,1,,,,,,300,NW,"ID",33,yarion,YARION,z,,,,,,0.027777778,-0.087962963,0,0,0,,0,263,263,299,1,
,,,,,,,,,,,,,,,,,,5d86c09df681a1001a8dddc8,2020-08-10_10h48.12.110,lexical_decision_task_MP,2020.1.3,Win32,60,m,1,0.587225,,,,,,,,0.587225,1,,,,,,117,WORD,"ID",50,branch,BRANCH,m,,,,,,0.027777778,-0.087962963,0,0,0,,0,264,264,116,1,
,,,,,,,,,,,,,,,,,,5d86c09df681a1001a8dddc8,2020-08-10_10h48.12.110,lexical_decision_task_MP,2020.1.3,Win32,60,m,1,0.55115,,,,,,,,0.55115,1,,,,,,102,WORD,"ID",50,direct,DIRECT,m,,,,,,0.027777778,-0.087962963,0,0,0,,0,265,265,101,1,
,,,,,,,,,,,,,,,,,,5d86c09df681a1001a8dddc8,2020-08-10_10h48.12.110,lexical_decision_task_MP,2020.1.3,Win32,60,m,1,0.66842,,,,,,,,0.66842,1,,,,,,87,WORD,"ID",50,filter,FILTER,m,,,,,,0.027777778,-0.087962963,0,0,0,,0,266,266,86,1,
,,,,,,,,,,,,,,,,,,5d86c09df681a1001a8dddc8,2020-08-10_10h48.12.110,lexical_decision_task_MP,2020.1.3,Win32,60,z,0,0.60081,,,,,,,,0.60081,0,,,,,,215,WORD,UN,50,behalf,PHOBIA,m,,,,,,0.027777778,-0.087962963,0,0,0,,0,267,267,214,1,
,,,,,,,,,,,,,,,,,,5d86c09df681a1001a8dddc8,2020-08-10_10h48.12.110,lexical_decision_task_MP,2020.1.3,Win32,60,m,1,0.551145,,,,,,,,0.551145,1,,,,,,81,WORD,"ID",50,friend,FRIEND,m,,,,,,0.027777778,-0.087962963,0,0,0,,0,268,268,80,1,
,,,,,,,,,,,,,,,,,,5d86c09df681a1001a8dddc8,2020-08-10_10h48.12.110,lexical_decision_task_MP,2020.1.3,Win32,60,m,1,0.52025,,,,,,,,0.52025,1,,,,,,219,WORD,UN,50,voyage,BUCKET,m,,,,,,0.027777778,-0.087962963,0,0,0,,0,269,269,218,1,
,,,,,,,,,,,,,,,,,,5d86c09df681a1001a8dddc8,2020-08-10_10h48.12.110,lexical_decision_task_MP,2020.1.3,Win32,60,z,1,0.683855,,,,,,,,0.683855,1,,,,,,254,NW,"ID",33,varosh,VAROSH,z,,,,,,0.027777778,-0.087962963,0,0,0,,0,270,270,253,1,
,,,,,,,,,,,,,,,,,,5d86c09df681a1001a8dddc8,2020-08-10_10h48.12.110,lexical_decision_task_MP,2020.1.3,Win32,60,m,1,0.63459,,,,,,,,0.63459,1,,,,,,178,WORD,UN,33,mildew,INFORM,m,,,,,,0.027777778,-0.087962963,0,0,0,,0,271,271,177,1,
,,,,,,,,,,,,,,,,,,5d86c09df681a1001a8dddc8,2020-08-10_10h48.12.110,lexical_decision_task_MP,2020.1.3,Win32,60,m,1,0.536285,,,,,,,,0.536285,1,,,,,,186,WORD,UN,50,course,PORTAL,m,,,,,,0.027777778,-0.087962963,0,0,0,,0,272,272,185,1,
,,,,,,,,,,,,,,,,,,5d86c09df681a1001a8dddc8,2020-08-10_10h48.12.110,lexical_decision_task_MP,2020.1.3,Win32,60,m,1,0.76773,,,,,,,,0.76773,1,,,,,,162,WORD,UN,33,string,CANDLE,m,,,,,,0.027777778,-0.087962963,0,0,0,,0,273,273,161,1,
,,,,,,,,,,,,,,,,,,5d86c09df681a1001a8dddc8,2020-08-10_10h48.12.110,lexical_decision_task_MP,2020.1.3,Win32,60,m,1,0.4684,,,,,,,,0.4684,1,,,,,,39,WORD,"ID",33,insect,INSECT,m,,,,,,0.027777778,-0.087962963,0,0,0,,0,274,274,38,1,
,,,,,,,,,,,,,,,,,,5d86c09df681a1001a8dddc8,2020-08-10_10h48.12.110,lexical_decision_task_MP,2020.1.3,Win32,60,z,1,0.841655,,,,,,,,0.841655,1,,,,,,281,NW,"ID",33,melaty,MELATY,z,,,,,,0.027777778,-0.087962963,0,0,0,,0,275,275,280,1,
,,,,,,,,,,,,,,,,,,5d86c09df681a1001a8dddc8,2020-08-10_10h48.12.110,lexical_decision_task_MP,2020.1.3,Win32,60,z,1,0.685055,,,,,,,,0.685055,1,,,,,,438,NW,UN,50,limpor,BAITCH,z,,,,,,0.027777778,-0.087962963,0,0,0,,0,276,276,437,1,
,,,,,,,,,,,,,,,,,,5d86c09df681a1001a8dddc8,2020-08-10_10h48.12.110,lexical_decision_task_MP,2020.1.3,Win32,60,z,1,0.788685,,,,,,,,0.788685,1,,,,,,261,NW,"ID",33,stunch,STUNCH,z,,,,,,0.027777778,-0.087962963,0,0,0,,0,277,277,260,1,
,,,,,,,,,,,,,,,,,,5d86c09df681a1001a8dddc8,2020-08-10_10h48.12.110,lexical_decision_task_MP,2020.1.3,Win32,60,z,1,0.61594,,,,,,,,0.61594,1,,,,,,455,NW,UN,50,broget,TONDLE,z,,,,,,0.027777778,-0.087962963,0,0,0,,0,278,278,454,1,
,,,,,,,,,,,,,,,,,,5d86c09df681a1001a8dddc8,2020-08-10_10h48.12.110,lexical_decision_task_MP,2020.1.3,Win32,60,m,1,0.900975,,,,,,,,0.900975,1,,,,,,1,WORD,"ID",33,fright,FRIGHT,m,,,,,,0.027777778,-0.087962963,0,0,0,,0,279,279,0,1,
,,,,,,,,,,,,,,,,,,5d86c09df681a1001a8dddc8,2020-08-10_10h48.12.110,lexical_decision_task_MP,2020.1.3,Win32,60,m,1,0.56613,,,,,,,,0.56613,1,,,,,,132,WORD,UN,33,bleach,STRONG,m,,,,,,0.027777778,-0.087962963,0,0,0,,0,280,280,131,1,
,,,,,,,,,,,,,,,,,,5d86c09df681a1001a8dddc8,2020-08-10_10h48.12.110,lexical_decision_task_MP,2020.1.3,Win32,60,z,1,0.70113,,,,,,,,0.70113,1,,,,,,430,NW,UN,50,funtle,CAROEY,z,,,,,,0.027777778,-0.087962963,0,0,0,,0,281,281,429,1,
,,,,,,,,,,,,,,,,,,5d86c09df681a1001a8dddc8,2020-08-10_10h48.12.110,lexical_decision_task_MP,2020.1.3,Win32,60,m,1,0.61891,,,,,,,,0.61891,1,,,,,,202,WORD,UN,50,phrase,FACTOR,m,,,,,,0.027777778,-0.087962963,0,0,0,,0,282,282,201,1,
,,,,,,,,,,,,,,,,,,5d86c09df681a1001a8dddc8,2020-08-10_10h48.12.110,lexical_decision_task_MP,2020.1.3,Win32,60,m,1,0.6335,,,,,,,,0.6335,1,,,,,,155,WORD,UN,33,cradle,LIZARD,m,,,,,,0.027777778,-0.087962963,0,0,0,,0,283,283,154,1,
,,,,,,,,,,,,,,,,,,5d86c09df681a1001a8dddc8,2020-08-10_10h48.12.110,lexical_decision_task_MP,2020.1.3,Win32,60,z,1,0.72212,,,,,,,,0.72212,1,,,,,,275,NW,"ID",33,sleirt,SLEIRT,z,,,,,,0.027777778,-0.087962963,0,0,0,,0,284,284,274,1,
,,,,,,,,,,,,,,,,,,5d86c09df681a1001a8dddc8,2020-08-10_10h48.12.110,lexical_decision_task_MP,2020.1.3,Win32,60,m,1,0.568255,,,,,,,,0.568255,1,,,,,,14,WORD,"ID",33,almost,ALMOST,m,,,,,,0.027777778,-0.087962963,0,0,0,,0,285,285,13,1,
,,,,,,,,,,,,,,,,,,5d86c09df681a1001a8dddc8,2020-08-10_10h48.12.110,lexical_decision_task_MP,2020.1.3,Win32,60,z,1,0.664195,,,,,,,,0.664195,1,,,,,,385,NW,UN,33,ancust,VEIGMA,z,,,,,,0.027777778,-0.087962963,0,0,0,,0,286,286,384,1,
,,,,,,,,,,,,,,,,,,5d86c09df681a1001a8dddc8,2020-08-10_10h48.12.110,lexical_decision_task_MP,2020.1.3,Win32,60,z,1,0.601435,,,,,,,,0.601435,1,,,,,,420,NW,UN,33,pauche,GUSHOP,z,,,,,,0.027777778,-0.087962963,0,0,0,,0,287,287,419,1,
,,,,,,,,,,,,,,,,,,5d86c09df681a1001a8dddc8,2020-08-10_10h48.12.110,lexical_decision_task_MP,2020.1.3,Win32,60,m,1,0.60246,,,,,,,,0.60246,1,,,,,,193,WORD,UN,50,plague,OBJECT,m,,,,,,0.027777778,-0.087962963,0,0,0,,0,288,288,192,1,
,,,,,,,,,,,,,,,,,,5d86c09df681a1001a8dddc8,2020-08-10_10h48.12.110,lexical_decision_task_MP,2020.1.3,Win32,60,z,1,0.635415,,,,,,,,0.635415,1,,,,,,405,NW,UN,33,nouply,FLUMNI,z,,,,,,0.027777778,-0.087962963,0,0,0,,0,289,289,404,1,
,,,,,,,,,,,,,,,,,,5d86c09df681a1001a8dddc8,2020-08-10_10h48.12.110,lexical_decision_task_MP,2020.1.3,Win32,60,z,1,0.71928,,,,,,,,0.71928,1,,,,,,469,NW,UN,50,crudio,PADIFS,z,,,,,,0.027777778,-0.087962963,0,0,0,,0,290,290,468,1,
,,,,,,,,,,,,,,,,,,5d86c09df681a1001a8dddc8,2020-08-10_10h48.12.110,lexical_decision_task_MP,2020.1.3,Win32,60,z,1,0.684075,,,,,,,,0.684075,1,,,,,,309,NW,"ID",50,amiloy,AMILOY,z,,,,,,0.027777778,-0.087962963,0,0,0,,0,291,291,308,1,
,,,,,,,,,,,,,,,,,,5d86c09df681a1001a8dddc8,2020-08-10_10h48.12.110,lexical_decision_task_MP,2020.1.3,Win32,60,z,1,0.58198,,,,,,,,0.58198,1,,,,,,437,NW,UN,50,baitch,SNAPEL,z,,,,,,0.027777778,-0.087962963,0,0,0,,0,292,292,436,1,
,,,,,,,,,,,,,,,,,,5d86c09df681a1001a8dddc8,2020-08-10_10h48.12.110,lexical_decision_task_MP,2020.1.3,Win32,60,z,1,0.68891,,,,,,,,0.68891,1,,,,,,447,NW,UN,50,sadent,GIRCUE,z,,,,,,0.027777778,-0.087962963,0,0,0,,0,293,293,446,1,
,,,,,,,,,,,,,,,,,,5d86c09df681a1001a8dddc8,2020-08-10_10h48.12.110,lexical_decision_task_MP,2020.1.3,Win32,60,z,1,0.57128,,,,,,,,0.57128,1,,,,,,359,NW,"ID",50,fonver,FONVER,z,,,,,,0.027777778,-0.087962963,0,0,0,,0,294,294,358,1,
,,,,,,,,,,,,,,,,,,5d86c09df681a1001a8dddc8,2020-08-10_10h48.12.110,lexical_decision_task_MP,2020.1.3,Win32,60,m,1,0.568145,,,,,,,,0.568145,1,,,,,,35,WORD,"ID",33,socket,SOCKET,m,,,,,,0.027777778,-0.087962963,0,0,0,,0,295,295,34,1,
,,,,,,,,,,,,,,,,,,5d86c09df681a1001a8dddc8,2020-08-10_10h48.12.110,lexical_decision_task_MP,2020.1.3,Win32,60,m,1,0.617855,,,,,,,,0.617855,1,,,,,,77,WORD,"ID",50,racket,RACKET,m,,,,,,0.027777778,-0.087962963,0,0,0,,0,296,296,76,1,
,,,,,,,,,,,,,,,,,,5d86c09df681a1001a8dddc8,2020-08-10_10h48.12.110,lexical_decision_task_MP,2020.1.3,Win32,60,m,1,0.56814,,,,,,,,0.56814,1,,,,,,125,WORD,UN,33,blouse,NICKEL,m,,,,,,0.027777778,-0.087962963,0,0,0,,0,297,297,124,1,
,,,,,,,,,,,,,,,,,,5d86c09df681a1001a8dddc8,2020-08-10_10h48.12.110,lexical_decision_task_MP,2020.1.3,Win32,60,z,1,0.6177,,,,,,,,0.6177,1,,,,,,272,NW,"ID",33,damilt,DAMILT,z,,,,,,0.027777778,-0.087962963,0,0,0,,0,298,298,271,1,
,,,,,,,,,,,,,,,,,,5d86c09df681a1001a8dddc8,2020-08-10_10h48.12.110,lexical_decision_task_MP,2020.1.3,Win32,60,z,1,0.584675,,,,,,,,0.584675,1,,,,,,355,NW,"ID",50,zingly,ZINGLY,z,,,,,,0.027777778,-0.087962963,0,0,0,,0,299,299,354,1,
,,,,,,,,,,,,,,,,,,5d86c09df681a1001a8dddc8,2020-08-10_10h48.12.110,lexical_decision_task_MP,2020.1.3,Win32,60,m,1,0.601055,,,,,,,,0.601055,1,,,,,,157,WORD,UN,33,island,DRAGON,m,,,,,,0.027777778,-0.087962963,0,0,0,,0,300,300,156,1,
,,,,,,,,,,,,,,,,,,5d86c09df681a1001a8dddc8,2020-08-10_10h48.12.110,lexical_decision_task_MP,2020.1.3,Win32,60,z,1,0.71977,,,,,,,,0.71977,1,,,,,,473,NW,UN,50,hablin,CRIBLE,z,,,,,,0.027777778,-0.087962963,0,0,0,,0,301,301,472,1,
,,,,,,,,,,,,,,,,,,5d86c09df681a1001a8dddc8,2020-08-10_10h48.12.110,lexical_decision_task_MP,2020.1.3,Win32,60,m,1,0.72236,,,,,,,,0.72236,1,,,,,,225,WORD,UN,50,kidney,VULGAR,m,,,,,,0.027777778,-0.087962963,0,0,0,,0,302,302,224,1,
,,,,,,,,,,,,,,,,,,5d86c09df681a1001a8dddc8,2020-08-10_10h48.12.110,lexical_decision_task_MP,2020.1.3,Win32,60,m,1,0.534175,,,,,,,,0.534175,1,,,,,,3,WORD,"ID",33,knight,KNIGHT,m,,,,,,0.027777778,-0.087962963,0,0,0,,0,303,303,2,1,
,,,,,,,,,,,,,,,,,,5d86c09df681a1001a8dddc8,2020-08-10_10h48.12.110,lexical_decision_task_MP,2020.1.3,Win32,60,m,1,0.63279,,,,,,,,0.63279,1,,,,,,114,WORD,"ID",50,placid,PLACID,m,,,,,,0.027777778,-0.087962963,0,0,0,,0,304,304,113,1,
,,,,,,,,,,,,,,,,,,5d86c09df681a1001a8dddc8,2020-08-10_10h48.12.110,lexical_decision_task_MP,2020.1.3,Win32,60,m,1,0.48489,,,,,,,,0.48489,1,,,,,,70,WORD,"ID",50,square,SQUARE,m,,,,,,0.027777778,-0.087962963,0,0,0,,0,305,305,69,1,
,,,,,,,,,,,,,,,,,,5d86c09df681a1001a8dddc8,2020-08-10_10h48.12.110,lexical_decision_task_MP,2020.1.3,Win32,60,z,1,0.60451,,,,,,,,0.60451,1,,,,,,241,NW,"ID",33,smenco,SMENCO,z,,,,,,0.027777778,-0.087962963,0,0,0,,0,306,306,240,1,
,,,,,,,,,,,,,,,,,,5d86c09df681a1001a8dddc8,2020-08-10_10h48.12.110,lexical_decision_task_MP,2020.1.3,Win32,60,m,1,0.587585,,,,,,,,0.587585,1,,,,,,69,WORD,"ID",50,plenty,PLENTY,m,,,,,,0.027777778,-0.087962963,0,0,0,,0,307,307,68,1,
,,,,,,,,,,,,,,,,,,5d86c09df681a1001a8dddc8,2020-08-10_10h48.12.110,lexical_decision_task_MP,2020.1.3,Win32,60,z,1,0.648445,,,,,,,,0.648445,1,,,,,,471,NW,UN,50,cigney,NOBEST,z,,,,,,0.027777778,-0.087962963,0,0,0,,0,308,308,470,1,
,,,,,,,,,,,,,,,,,,5d86c09df681a1001a8dddc8,2020-08-10_10h48.12.110,lexical_decision_task_MP,2020.1.3,Win32,60,m,1,0.651265,,,,,,,,0.651265,1,,,,,,10,WORD,"ID",33,ethnic,ETHNIC,m,,,,,,0.027777778,-0.087962963,0,0,0,,0,309,309,9,1,
,,,,,,,,,,,,,,,,,,5d86c09df681a1001a8dddc8,2020-08-10_10h48.12.110,lexical_decision_task_MP,2020.1.3,Win32,60,z,1,0.60851,,,,,,,,0.60851,1,,,,,,255,NW,"ID",33,apight,APIGHT,z,,,,,,0.027777778,-0.087962963,0,0,0,,0,310,310,254,1,
,,,,,,,,,,,,,,,,,,5d86c09df681a1001a8dddc8,2020-08-10_10h48.12.110,lexical_decision_task_MP,2020.1.3,Win32,60,m,1,0.48632,,,,,,,,0.48632,1,,,,,,158,WORD,UN,33,detail,ISLAND,m,,,,,,0.027777778,-0.087962963,0,0,0,,0,311,311,157,1,
,,,,,,,,,,,,,,,,,,5d86c09df681a1001a8dddc8,2020-08-10_10h48.12.110,lexical_decision_task_MP,2020.1.3,Win32,60,z,1,0.691805,,,,,,,,0.691805,1,,,,,,407,NW,UN,33,hurnia,SUIVER,z,,,,,,0.027777778,-0.087962963,0,0,0,,0,312,312,406,1,
,,,,,,,,,,,,,,,,,,5d86c09df681a1001a8dddc8,2020-08-10_10h48.12.110,lexical_decision_task_MP,2020.1.3,Win32,60,z,1,0.85714,,,,,,,,0.85714,1,,,,,,314,NW,"ID",50,sprine,SPRINE,z,,,,,,0.027777778,-0.087962963,0,0,0,,0,313,313,313,1,
,,,,,,,,,,,,,,,,,,5d86c09df681a1001a8dddc8,2020-08-10_10h48.12.110,lexical_decision_task_MP,2020.1.3,Win32,60,m,1,0.50185,,,,,,,,0.50185,1,,,,,,60,WORD,"ID",33,pencil,PENCIL,m,,,,,,0.027777778,-0.087962963,0,0,0,,0,314,314,59,1,
,,,,,,,,,,,,,,,,,,5d86c09df681a1001a8dddc8,2020-08-10_10h48.12.110,lexical_decision_task_MP,2020.1.3,Win32,60,z,1,0.634725,,,,,,,,0.634725,1,,,,,,299,NW,"ID",33,sturch,STURCH,z,,,,,,0.027777778,-0.087962963,0,0,0,,0,315,315,298,1,
,,,,,,,,,,,,,,,,,,5d86c09df681a1001a8dddc8,2020-08-10_10h48.12.110,lexical_decision_task_MP,2020.1.3,Win32,60,z,1,0.639875,,,,,,,,0.639875,1,,,,,,328,NW,"ID",50,broake,BROAKE,z,,,,,,0.027777778,-0.087962963,0,0,0,,0,316,316,327,1,
,,,,,,,,,,,,,,,,,,5d86c09df681a1001a8dddc8,2020-08-10_10h48.12.110,lexical_decision_task_MP,2020.1.3,Win32,60,z,1,0.65324,,,,,,,,0.65324,1,,,,,,344,NW,"ID",50,scrily,SCRILY,z,,,,,,0.027777778,-0.087962963,0,0,0,,0,317,317,343,1,
,,,,,,,,,,,,,,,,,,5d86c09df681a1001a8dddc8,2020-08-10_10h48.12.110,lexical_decision_task_MP,2020.1.3,Win32,60,z,1,0.64829,,,,,,,,0.64829,1,,,,,,474,NW,UN,50,gorbie,HABLIN,z,,,,,,0.027777778,-0.087962963,0,0,0,,0,318,318,473,1,
,,,,,,,,,,,,,,,,,,5d86c09df681a1001a8dddc8,2020-08-10_10h48.12.110,lexical_decision_task_MP,2020.1.3,Win32,60,m,1,0.55088,,,,,,,,0.55088,1,,,,,,95,WORD,"ID",50,thread,THREAD,m,,,,,,0.027777778,-0.087962963,0,0,0,,0,319,319,94,1,
,,,,,,,,,,,,,,,,,,5d86c09df681a1001a8dddc8,2020-08-10_10h48.12.110,lexical_decision_task_MP,2020.1.3,Win32,60,z,1,0.53581,,,,,,,,0.53581,1,,,,,,350,NW,"ID",50,nagurs,NAGURS,z,,,,,,0.027777778,-0.087962963,0,0,0,,0,320,320,349,1,
,,,,,,,,,,,,,,,,,,5d86c09df681a1001a8dddc8,2020-08-10_10h48.12.110,lexical_decision_task_MP,2020.1.3,Win32,60,z,1,0.58367,,,,,,,,0.58367,1,,,,,,264,NW,"ID",33,vackel,VACKEL,z,,,,,,0.027777778,-0.087962963,0,0,0,,0,321,321,263,1,
,,,,,,,,,,,,,,,,,,5d86c09df681a1001a8dddc8,2020-08-10_10h48.12.110,lexical_decision_task_MP,2020.1.3,Win32,60,m,1,0.54379,,,,,,,,0.54379,1,,,,,,107,WORD,"ID",50,slogan,SLOGAN,m,,,,,,0.027777778,-0.087962963,0,0,0,,0,322,322,106,1,
,,,,,,,,,,,,,,,,,,5d86c09df681a1001a8dddc8,2020-08-10_10h48.12.110,lexical_decision_task_MP,2020.1.3,Win32,60,m,1,0.5341,,,,,,,,0.5341,1,,,,,,49,WORD,"ID",33,survey,SURVEY,m,,,,,,0.027777778,-0.087962963,0,0,0,,0,323,323,48,1,
,,,,,,,,,,,,,,,,,,5d86c09df681a1001a8dddc8,2020-08-10_10h48.12.110,lexical_decision_task_MP,2020.1.3,Win32,60,z,1,0.572285,,,,,,,,0.572285,1,,,,,,334,NW,"ID",50,watmeg,WATMEG,z,,,,,,0.027777778,-0.087962963,0,0,0,,0,324,324,333,1,
,,,,,,,,,,,,,,,,,,5d86c09df681a1001a8dddc8,2020-08-10_10h48.12.110,lexical_decision_task_MP,2020.1.3,Win32,60,z,1,0.58793,,,,,,,,0.58793,1,,,,,,290,NW,"ID",33,splino,SPLINO,z,,,,,,0.027777778,-0.087962963,0,0,0,,0,325,325,289,1,
,,,,,,,,,,,,,,,,,,5d86c09df681a1001a8dddc8,2020-08-10_10h48.12.110,lexical_decision_task_MP,2020.1.3,Win32,60,z,1,0.51557,,,,,,,,0.51557,1,,,,,,446,NW,UN,50,gircue,RUNAMO,z,,,,,,0.027777778,-0.087962963,0,0,0,,0,326,326,445,1,
,,,,,,,,,,,,,,,,,,5d86c09df681a1001a8dddc8,2020-08-10_10h48.12.110,lexical_decision_task_MP,2020.1.3,Win32,60,m,1,0.534405,,,,,,,,0.534405,1,,,,,,57,WORD,"ID",33,change,CHANGE,m,,,,,,0.027777778,-0.087962963,0,0,0,,0,327,327,56,1,
,,,,,,,,,,,,,,,,,,5d86c09df681a1001a8dddc8,2020-08-10_10h48.12.110,lexical_decision_task_MP,2020.1.3,Win32,60,z,1,0.63485,,,,,,,,0.63485,1,,,,,,463,NW,UN,50,bafent,KISPEL,z,,,,,,0.027777778,-0.087962963,0,0,0,,0,328,328,462,1,
,,,,,,,,,,,,,,,,,,5d86c09df681a1001a8dddc8,2020-08-10_10h48.12.110,lexical_decision_task_MP,2020.1.3,Win32,60,z,1,0.65092,,,,,,,,0.65092,1,,,,,,461,NW,UN,50,absult,JUSTRE,z,,,,,,0.027777778,-0.087962963,0,0,0,,0,329,329,460,1,
,,,,,,,,,,,,,,,,,,5d86c09df681a1001a8dddc8,2020-08-10_10h48.12.110,lexical_decision_task_MP,2020.1.3,Win32,60,z,1,0.62407,,,,,,,,0.62407,1,,,,,,268,NW,"ID",33,packes,PACKES,z,,,,,,0.027777778,-0.087962963,0,0,0,,0,330,330,267,1,
,,,,,,,,,,,,,,,,,,5d86c09df681a1001a8dddc8,2020-08-10_10h48.12.110,lexical_decision_task_MP,2020.1.3,Win32,60,m,1,0.556445,,,,,,,,0.556445,1,,,,,,99,WORD,"ID",50,fluent,FLUENT,m,,,,,,0.027777778,-0.087962963,0,0,0,,0,331,331,98,1,
,,,,,,,,,,,,,,,,,,5d86c09df681a1001a8dddc8,2020-08-10_10h48.12.110,lexical_decision_task_MP,2020.1.3,Win32,60,z,1,0.55095,,,,,,,,0.55095,1,,,,,,431,NW,UN,50,lunker,CHRUMS,z,,,,,,0.027777778,-0.087962963,0,0,0,,0,332,332,430,1,
,,,,,,,,,,,,,,,,,,5d86c09df681a1001a8dddc8,2020-08-10_10h48.12.110,lexical_decision_task_MP,2020.1.3,Win32,60,m,1,0.56728,,,,,,,,0.56728,1,,,,,,134,WORD,UN,33,import,STAPLE,m,,,,,,0.027777778,-0.087962963,0,0,0,,0,333,333,133,1,
,,,,,,,,,,,,,,,,,,5d86c09df681a1001a8dddc8,2020-08-10_10h48.12.110,lexical_decision_task_MP,2020.1.3,Win32,60,m,1,0.66777,,,,,,,,0.66777,1,,,,,,224,WORD,UN,50,vulgar,PERIOD,m,,,,,,0.027777778,-0.087962963,0,0,0,,0,334,334,223,1,
,,,,,,,,,,,,,,,,,,5d86c09df681a1001a8dddc8,2020-08-10_10h48.12.110,lexical_decision_task_MP,2020.1.3,Win32,60,z,1,0.62337,,,,,,,,0.62337,1,,,,,,388,NW,UN,33,witmer,CRAGIN,z,,,,,,0.027777778,-0.087962963,0,0,0,,0,335,335,387,1,
,,,,,,,,,,,,,,,,,,5d86c09df681a1001a8dddc8,2020-08-10_10h48.12.110,lexical_decision_task_MP,2020.1.3,Win32,60,m,1,0.65476,,,,,,,,0.65476,1,,,,,,177,WORD,UN,33,inform,ADVENT,m,,,,,,0.027777778,-0.087962963,0,0,0,,0,336,336,176,1,
,,,,,,,,,,,,,,,,,,5d86c09df681a1001a8dddc8,2020-08-10_10h48.12.110,lexical_decision_task_MP,2020.1.3,Win32,60,m,1,0.650435,,,,,,,,0.650435,1,,,,,,13,WORD,"ID",33,strive,STRIVE,m,,,,,,0.027777778,-0.087962963,0,0,0,,0,337,337,12,1,
,,,,,,,,,,,,,,,,,,5d86c09df681a1001a8dddc8,2020-08-10_10h48.12.110,lexical_decision_task_MP,2020.1.3,Win32,60,z,1,0.689225,,,,,,,,0.689225,1,,,,,,417,NW,UN,33,suidle,EAROUD,z,,,,,,0.027777778,-0.087962963,0,0,0,,0,338,338,416,1,
,,,,,,,,,,,,,,,,,,5d86c09df681a1001a8dddc8,2020-08-10_10h48.12.110,lexical_decision_task_MP,2020.1.3,Win32,60,m,1,0.656015,,,,,,,,0.656015,1,,,,,,113,WORD,"ID",50,chorus,CHORUS,m,,,,,,0.027777778,-0.087962963,0,0,0,,0,339,339,112,1,
,,,,,,,,,,,,,,,,,,5d86c09df681a1001a8dddc8,2020-08-10_10h48.12.110,lexical_decision_task_MP,2020.1.3,Win32,60,z,1,0.701225,,,,,,,,0.701225,1,,,,,,418,NW,UN,33,slount,SUIDLE,z,,,,,,0.027777778,-0.087962963,0,0,0,,0,340,340,417,1,
,,,,,,,,,,,,,,,,,,5d86c09df681a1001a8dddc8,2020-08-10_10h48.12.110,lexical_decision_task_MP,2020.1.3,Win32,60,z,0,0.61723,,,,,,,,0.61723,0,,,,,,221,WORD,UN,50,hinder,MASCOT,m,,,,,,0.027777778,-0.087962963,0,0,0,,0,341,341,220,1,
,,,,,,,,,,,,,,,,,,5d86c09df681a1001a8dddc8,2020-08-10_10h48.12.110,lexical_decision_task_MP,2020.1.3,Win32,60,z,1,0.88369,,,,,,,,0.88369,1,,,,,,332,NW,"ID",50,vangue,VANGUE,z,,,,,,0.027777778,-0.087962963,0,0,0,,0,342,342,331,1,
,,,,,,,,,,,,,,,,,,5d86c09df681a1001a8dddc8,2020-08-10_10h48.12.110,lexical_decision_task_MP,2020.1.3,Win32,60,z,0,0.81217,,,,,,,,0.81217,0,,,,,,181,WORD,UN,50,winter,GLANCE,m,,,,,,0.027777778,-0.087962963,0,0,0,,0,343,343,180,1,
,,,,,,,,,,,,,,,,,,5d86c09df681a1001a8dddc8,2020-08-10_10h48.12.110,lexical_decision_task_MP,2020.1.3,Win32,60,m,1,0.61742,,,,,,,,0.61742,1,,,,,,171,WORD,UN,33,patrol,DEPART,m,,,,,,0.027777778,-0.087962963,0,0,0,,0,344,344,170,1,
,,,,,,,,,,,,,,,,,,5d86c09df681a1001a8dddc8,2020-08-10_10h48.12.110,lexical_decision_task_MP,2020.1.3,Win32,60,z,1,0.72296,,,,,,,,0.72296,1,,,,,,378,NW,UN,33,auting,SHRILE,z,,,,,,0.027777778,-0.087962963,0,0,0,,0,345,345,377,1,
,,,,,,,,,,,,,,,,,,5d86c09df681a1001a8dddc8,2020-08-10_10h48.12.110,lexical_decision_task_MP,2020.1.3,Win32,60,m,1,0.55436,,,,,,,,0.55436,1,,,,,,105,WORD,"ID",50,number,NUMBER,m,,,,,,0.027777778,-0.087962963,0,0,0,,0,346,346,104,1,
,,,,,,,,,,,,,,,,,,5d86c09df681a1001a8dddc8,2020-08-10_10h48.12.110,lexical_decision_task_MP,2020.1.3,Win32,60,m,1,0.622075,,,,,,,,0.622075,1,,,,,,64,WORD,"ID",50,throne,THRONE,m,,,,,,0.027777778,-0.087962963,0,0,0,,0,347,347,63,1,
,,,,,,,,,,,,,,,,,,5d86c09df681a1001a8dddc8,2020-08-10_10h48.12.110,lexical_decision_task_MP,2020.1.3,Win32,60,z,1,0.972905,,,,,,,,0.972905,1,,,,,,440,NW,UN,50,cainky,SARIDE,z,,,,,,0.027777778,-0.087962963,0,0,0,,0,348,348,439,1,
,,,,,,,,,,,,,,,,,,5d86c09df681a1001a8dddc8,2020-08-10_10h48.12.110,lexical_decision_task_MP,2020.1.3,Win32,60,z,1,0.88359,,,,,,,,0.88359,1,,,,,,356,NW,"ID",50,othnis,OTHNIS,z,,,,,,0.027777778,-0.087962963,0,0,0,,0,349,349,355,1,
,,,,,,,,,,,,,,,,,,5d86c09df681a1001a8dddc8,2020-08-10_10h48.12.110,lexical_decision_task_MP,2020.1.3,Win32,60,m,1,0.54994,,,,,,,,0.54994,1,,,,,,118,WORD,"ID",50,flight,FLIGHT,m,,,,,,0.027777778,-0.087962963,0,0,0,,0,350,350,117,1,
,,,,,,,,,,,,,,,,,,5d86c09df681a1001a8dddc8,2020-08-10_10h48.12.110,lexical_decision_task_MP,2020.1.3,Win32,60,z,1,0.767455,,,,,,,,0.767455,1,,,,,,445,NW,UN,50,runamo,MINKEL,z,,,,,,0.027777778,-0.087962963,0,0,0,,0,351,351,444,1,
,,,,,,,,,,,,,,,,,,5d86c09df681a1001a8dddc8,2020-08-10_10h48.12.110,lexical_decision_task_MP,2020.1.3,Win32,60,z,1,0.8491,,,,,,,,0.8491,1,,,,,,472,NW,UN,50,crible,CIGNEY,z,,,,,,0.027777778,-0.087962963,0,0,0,,0,352,352,471,1,
,,,,,,,,,,,,,,,,,,5d86c09df681a1001a8dddc8,2020-08-10_10h48.12.110,lexical_decision_task_MP,2020.1.3,Win32,60,z,1,0.667805,,,,,,,,0.667805,1,,,,,,426,NW,UN,50,frudge,URIVEL,z,,,,,,0.027777778,-0.087962963,0,0,0,,0,353,353,425,1,
,,,,,,,,,,,,,,,,,,5d86c09df681a1001a8dddc8,2020-08-10_10h48.12.110,lexical_decision_task_MP,2020.1.3,Win32,60,z,1,0.59106,,,,,,,,0.59106,1,,,,,,287,NW,"ID",33,nymbel,NYMBEL,z,,,,,,0.027777778,-0.087962963,0,0,0,,0,354,354,286,1,
,,,,,,,,,,,,,,,,,,5d86c09df681a1001a8dddc8,2020-08-10_10h48.12.110,lexical_decision_task_MP,2020.1.3,Win32,60,z,1,0.835115,,,,,,,,0.835115,1,,,,,,464,NW,UN,50,whivex,CHAITE,z,,,,,,0.027777778,-0.087962963,0,0,0,,0,355,355,463,1,
,,,,,,,,,,,,,,,,,,5d86c09df681a1001a8dddc8,2020-08-10_10h48.12.110,lexical_decision_task_MP,2020.1.3,Win32,60,m,1,0.618995,,,,,,,,0.618995,1,,,,,,149,WORD,UN,33,random,INVADE,m,,,,,,0.027777778,-0.087962963,0,0,0,,0,356,356,148,1,
,,,,,,,,,,,,,,,,,,5d86c09df681a1001a8dddc8,2020-08-10_10h48.12.110,lexical_decision_task_MP,2020.1.3,Win32,60,z,1,0.75588,,,,,,,,0.75588,1,,,,,,465,NW,UN,50,hocite,WHIVEX,z,,,,,,0.027777778,-0.087962963,0,0,0,,0,357,357,464,1,
,,,,,,,,,,,,,,,,,,5d86c09df681a1001a8dddc8,2020-08-10_10h48.12.110,lexical_decision_task_MP,2020.1.3,Win32,60,z,1,0.66746,,,,,,,,0.66746,1,,,,,,375,NW,UN,33,iguare,YORQUE,z,,,,,,0.027777778,-0.087962963,0,0,0,,0,358,358,374,1,
,,,,,,,,,,,,,,,,,,5d86c09df681a1001a8dddc8,2020-08-10_10h48.12.110,lexical_decision_task_MP,2020.1.3,Win32,60,z,1,0.751945,,,,,,,,0.751945,1,,,,,,257,NW,"ID",33,veniod,VENIOD,z,,,,,,0.027777778,-0.087962963,0,0,0,,0,359,359,256,1,
,,,,,,,,,,,,,,,,,,5d86c09df681a1001a8dddc8,2020-08-10_10h48.12.110,lexical_decision_task_MP,2020.1.3,Win32,60,m,1,1.051375,,,,,,,,1.051375,1,,,,,,166,WORD,UN,33,design,STARCH,m,,,,,,0.027777778,-0.087962963,0,0,0,,0,360,360,165,1,
,,,,,,,,,,,,,,,,,,5d86c09df681a1001a8dddc8,2020-08-10_10h48.12.110,lexical_decision_task_MP,2020.1.3,Win32,60,m,1,0.56851,,,,,,,,0.56851,1,,,,,,66,WORD,"ID",50,gospel,GOSPEL,m,,,,,,0.027777778,-0.087962963,0,0,0,,0,361,361,65,1,
,,,,,,,,,,,,,,,,,,5d86c09df681a1001a8dddc8,2020-08-10_10h48.12.110,lexical_decision_task_MP,2020.1.3,Win32,60,m,1,0.600845,,,,,,,,0.600845,1,,,,,,43,WORD,"ID",33,tongue,TONGUE,m,,,,,,-0.257407407,-0.14537037,0,0,0,space,0,362,362,42,1,78.00885
,,,,,,,,,,,,,,,,,,5d86c09df681a1001a8dddc8,2020-08-10_10h48.12.110,lexical_decision_task_MP,2020.1.3,Win32,60,m,1,0.68426,,,,,,,,0.68426,1,,,,,,22,WORD,"ID",33,jockey,JOCKEY,m,,,,,,-0.257407407,-0.14537037,0,0,0,,0,363,363,21,1,
,,,,,,,,,,,,,,,,,,5d86c09df681a1001a8dddc8,2020-08-10_10h48.12.110,lexical_decision_task_MP,2020.1.3,Win32,60,m,1,0.683625,,,,,,,,0.683625,1,,,,,,196,WORD,UN,50,stream,CREDIT,m,,,,,,-0.257407407,-0.14537037,0,0,0,,0,364,364,195,1,
,,,,,,,,,,,,,,,,,,5d86c09df681a1001a8dddc8,2020-08-10_10h48.12.110,lexical_decision_task_MP,2020.1.3,Win32,60,z,1,0.602665,,,,,,,,0.602665,1,,,,,,258,NW,"ID",33,poluth,POLUTH,z,,,,,,-0.257407407,-0.14537037,0,0,0,,0,365,365,257,1,
,,,,,,,,,,,,,,,,,,5d86c09df681a1001a8dddc8,2020-08-10_10h48.12.110,lexical_decision_task_MP,2020.1.3,Win32,60,m,1,0.601625,,,,,,,,0.601625,1,,,,,,165,WORD,UN,33,starch,INVEST,m,,,,,,-0.257407407,-0.14537037,0,0,0,,0,366,366,164,1,
,,,,,,,,,,,,,,,,,,5d86c09df681a1001a8dddc8,2020-08-10_10h48.12.110,lexical_decision_task_MP,2020.1.3,Win32,60,z,1,0.5198,,,,,,,,0.5198,1,,,,,,329,NW,"ID",50,yarike,YARIKE,z,,,,,,-0.257407407,-0.14537037,0,0,0,,0,367,367,328,1,
,,,,,,,,,,,,,,,,,,5d86c09df681a1001a8dddc8,2020-08-10_10h48.12.110,lexical_decision_task_MP,2020.1.3,Win32,60,z,1,0.722955,,,,,,,,0.722955,1,,,,,,458,NW,UN,50,chaite,BARCET,z,,,,,,-0.257407407,-0.14537037,0,0,0,,0,368,368,457,1,
,,,,,,,,,,,,,,,,,,5d86c09df681a1001a8dddc8,2020-08-10_10h48.12.110,lexical_decision_task_MP,2020.1.3,Win32,60,z,1,0.58885,,,,,,,,0.58885,1,,,,,,269,NW,"ID",33,orchet,ORCHET,z,,,,,,-0.257407407,-0.14537037,0,0,0,,0,369,369,268,1,
,,,,,,,,,,,,,,,,,,5d86c09df681a1001a8dddc8,2020-08-10_10h48.12.110,lexical_decision_task_MP,2020.1.3,Win32,60,z,1,0.85151,,,,,,,,0.85151,1,,,,,,320,NW,"ID",50,jockal,JOCKAL,z,,,,,,-0.257407407,-0.14537037,0,0,0,,0,370,370,319,1,
,,,,,,,,,,,,,,,,,,5d86c09df681a1001a8dddc8,2020-08-10_10h48.12.110,lexical_decision_task_MP,2020.1.3,Win32,60,z,1,0.718395,,,,,,,,0.718395,1,,,,,,323,NW,"ID",50,rosail,ROSAIL,z,,,,,,-0.257407407,-0.14537037,0,0,0,,0,371,371,322,1,
,,,,,,,,,,,,,,,,,,5d86c09df681a1001a8dddc8,2020-08-10_10h48.12.110,lexical_decision_task_MP,2020.1.3,Win32,60,z,1,0.820685,,,,,,,,0.820685,1,,,,,,478,NW,UN,50,lobush,ACRISE,z,,,,,,-0.257407407,-0.14537037,0,0,0,,0,372,372,477,1,
,,,,,,,,,,,,,,,,,,5d86c09df681a1001a8dddc8,2020-08-10_10h48.12.110,lexical_decision_task_MP,2020.1.3,Win32,60,m,1,0.51738,,,,,,,,0.51738,1,,,,,,38,WORD,"ID",33,powder,POWDER,m,,,,,,-0.257407407,-0.14537037,0,0,0,,0,373,373,37,1,
,,,,,,,,,,,,,,,,,,5d86c09df681a1001a8dddc8,2020-08-10_10h48.12.110,lexical_decision_task_MP,2020.1.3,Win32,60,z,1,0.71944,,,,,,,,0.71944,1,,,,,,354,NW,"ID",50,virlex,VIRLEX,z,,,,,,-0.257407407,-0.14537037,0,0,0,,0,374,374,353,1,
,,,,,,,,,,,,,,,,,,5d86c09df681a1001a8dddc8,2020-08-10_10h48.12.110,lexical_decision_task_MP,2020.1.3,Win32,60,z,1,0.56876,,,,,,,,0.56876,1,,,,,,443,NW,UN,50,jaunce,DORSEX,z,,,,,,-0.257407407,-0.14537037,0,0,0,,0,375,375,442,1,
,,,,,,,,,,,,,,,,,,5d86c09df681a1001a8dddc8,2020-08-10_10h48.12.110,lexical_decision_task_MP,2020.1.3,Win32,60,z,1,0.771975,,,,,,,,0.771975,1,,,,,,387,NW,UN,33,cragin,GRONCE,z,,,,,,-0.257407407,-0.14537037,0,0,0,,0,376,376,386,1,
,,,,,,,,,,,,,,,,,,5d86c09df681a1001a8dddc8,2020-08-10_10h48.12.110,lexical_decision_task_MP,2020.1.3,Win32,60,m,1,0.517605,,,,,,,,0.517605,1,,,,,,25,WORD,"ID",33,domain,DOMAIN,m,,,,,,-0.257407407,-0.14537037,0,0,0,,0,377,377,24,1,
,,,,,,,,,,,,,,,,,,5d86c09df681a1001a8dddc8,2020-08-10_10h48.12.110,lexical_decision_task_MP,2020.1.3,Win32,60,m,1,0.568475,,,,,,,,0.568475,1,,,,,,197,WORD,UN,50,wicked,STREAM,m,,,,,,-0.257407407,-0.14537037,0,0,0,,0,378,378,196,1,
,,,,,,,,,,,,,,,,,,5d86c09df681a1001a8dddc8,2020-08-10_10h48.12.110,lexical_decision_task_MP,2020.1.3,Win32,60,m,1,0.52316,,,,,,,,0.52316,1,,,,,,58,WORD,"ID",33,foster,FOSTER,m,,,,,,-0.257407407,-0.14537037,0,0,0,,0,379,379,57,1,
,,,,,,,,,,,,,,,,,,5d86c09df681a1001a8dddc8,2020-08-10_10h48.12.110,lexical_decision_task_MP,2020.1.3,Win32,60,z,1,1.30288,,,,,,,,1.30288,1,,,,,,341,NW,"ID",50,myrtie,MYRTIE,z,,,,,,-0.257407407,-0.14537037,0,0,0,,0,380,380,340,1,
,,,,,,,,,,,,,,,,,,5d86c09df681a1001a8dddc8,2020-08-10_10h48.12.110,lexical_decision_task_MP,2020.1.3,Win32,60,z,1,0.935435,,,,,,,,0.935435,1,,,,,,338,NW,"ID",50,wreash,WREASH,z,,,,,,-0.257407407,-0.14537037,0,0,0,,0,381,381,337,1,
,,,,,,,,,,,,,,,,,,5d86c09df681a1001a8dddc8,2020-08-10_10h48.12.110,lexical_decision_task_MP,2020.1.3,Win32,60,m,1,0.584245,,,,,,,,0.584245,1,,,,,,201,WORD,UN,50,factor,ADMIRE,m,,,,,,-0.257407407,-0.14537037,0,0,0,,0,382,382,200,1,
,,,,,,,,,,,,,,,,,,5d86c09df681a1001a8dddc8,2020-08-10_10h48.12.110,lexical_decision_task_MP,2020.1.3,Win32,60,m,1,0.60119,,,,,,,,0.60119,1,,,,,,172,WORD,UN,33,shower,PATROL,m,,,,,,-0.257407407,-0.14537037,0,0,0,,0,383,383,171,1,
,,,,,,,,,,,,,,,,,,5d86c09df681a1001a8dddc8,2020-08-10_10h48.12.110,lexical_decision_task_MP,2020.1.3,Win32,60,m,1,0.538485,,,,,,,,0.538485,1,,,,,,85,WORD,"ID",50,sprawl,SPRAWL,m,,,,,,-0.257407407,-0.14537037,0,0,0,,0,384,384,84,1,
,,,,,,,,,,,,,,,,,,5d86c09df681a1001a8dddc8,2020-08-10_10h48.12.110,lexical_decision_task_MP,2020.1.3,Win32,60,m,1,0.650765,,,,,,,,0.650765,1,,,,,,214,WORD,UN,50,phobia,INTAKE,m,,,,,,-0.257407407,-0.14537037,0,0,0,,0,385,385,213,1,
,,,,,,,,,,,,,,,,,,5d86c09df681a1001a8dddc8,2020-08-10_10h48.12.110,lexical_decision_task_MP,2020.1.3,Win32,60,m,1,0.653915,,,,,,,,0.653915,1,,,,,,42,WORD,"ID",33,chapel,CHAPEL,m,,,,,,-0.257407407,-0.14537037,0,0,0,,0,386,386,41,1,
,,,,,,,,,,,,,,,,,,5d86c09df681a1001a8dddc8,2020-08-10_10h48.12.110,lexical_decision_task_MP,2020.1.3,Win32,60,z,1,0.58552,,,,,,,,0.58552,1,,,,,,456,NW,UN,50,wanigh,BROGET,z,,,,,,-0.257407407,-0.14537037,0,0,0,,0,387,387,455,1,
,,,,,,,,,,,,,,,,,,5d86c09df681a1001a8dddc8,2020-08-10_10h48.12.110,lexical_decision_task_MP,2020.1.3,Win32,60,z,1,0.625825,,,,,,,,0.625825,1,,,,,,381,NW,UN,33,sarley,HUNIEK,z,,,,,,-0.257407407,-0.14537037,0,0,0,,0,388,388,380,1,
,,,,,,,,,,,,,,,,,,5d86c09df681a1001a8dddc8,2020-08-10_10h48.12.110,lexical_decision_task_MP,2020.1.3,Win32,60,z,1,0.68857,,,,,,,,0.68857,1,,,,,,293,NW,"ID",33,swance,SWANCE,z,,,,,,-0.257407407,-0.14537037,0,0,0,,0,389,389,292,1,
,,,,,,,,,,,,,,,,,,5d86c09df681a1001a8dddc8,2020-08-10_10h48.12.110,lexical_decision_task_MP,2020.1.3,Win32,60,z,1,0.73495,,,,,,,,0.73495,1,,,,,,322,NW,"ID",50,slanch,SLANCH,z,,,,,,-0.257407407,-0.14537037,0,0,0,,0,390,390,321,1,
,,,,,,,,,,,,,,,,,,5d86c09df681a1001a8dddc8,2020-08-10_10h48.12.110,lexical_decision_task_MP,2020.1.3,Win32,60,z,1,0.62413,,,,,,,,0.62413,1,,,,,,368,NW,UN,33,wronch,HORNAL,z,,,,,,-0.257407407,-0.14537037,0,0,0,,0,391,391,367,1,
,,,,,,,,,,,,,,,,,,5d86c09df681a1001a8dddc8,2020-08-10_10h48.12.110,lexical_decision_task_MP,2020.1.3,Win32,60,m,1,0.535095,,,,,,,,0.535095,1,,,,,,37,WORD,"ID",33,insult,INSULT,m,,,,,,-0.257407407,-0.14537037,0,0,0,,0,392,392,36,1,
,,,,,,,,,,,,,,,,,,5d86c09df681a1001a8dddc8,2020-08-10_10h48.12.110,lexical_decision_task_MP,2020.1.3,Win32,60,z,1,0.537655,,,,,,,,0.537655,1,,,,,,302,NW,"ID",50,miluer,MILUER,z,,,,,,-0.257407407,-0.14537037,0,0,0,,0,393,393,301,1,
,,,,,,,,,,,,,,,,,,5d86c09df681a1001a8dddc8,2020-08-10_10h48.12.110,lexical_decision_task_MP,2020.1.3,Win32,60,z,1,0.65279,,,,,,,,0.65279,1,,,,,,400,NW,UN,33,mustil,WEAROX,z,,,,,,-0.257407407,-0.14537037,0,0,0,,0,394,394,399,1,
,,,,,,,,,,,,,,,,,,5d86c09df681a1001a8dddc8,2020-08-10_10h48.12.110,lexical_decision_task_MP,2020.1.3,Win32,60,z,1,0.672145,,,,,,,,0.672145,1,,,,,,480,NW,UN,50,knisma,ROBULY,z,,,,,,-0.257407407,-0.14537037,0,0,0,,0,395,395,479,1,
,,,,,,,,,,,,,,,,,,5d86c09df681a1001a8dddc8,2020-08-10_10h48.12.110,lexical_decision_task_MP,2020.1.3,Win32,60,m,1,0.632225,,,,,,,,0.632225,1,,,,,,227,WORD,UN,50,master,SELDOM,m,,,,,,-0.257407407,-0.14537037,0,0,0,,0,396,396,226,1,
,,,,,,,,,,,,,,,,,,5d86c09df681a1001a8dddc8,2020-08-10_10h48.12.110,lexical_decision_task_MP,2020.1.3,Win32,60,z,1,0.86906,,,,,,,,0.86906,1,,,,,,364,NW,UN,33,guairt,IMPOTE,z,,,,,,-0.257407407,-0.14537037,0,0,0,,0,397,397,363,1,
,,,,,,,,,,,,,,,,,,5d86c09df681a1001a8dddc8,2020-08-10_10h48.12.110,lexical_decision_task_MP,2020.1.3,Win32,60,z,1,0.917865,,,,,,,,0.917865,1,,,,,,324,NW,"ID",50,steikh,STEIKH,z,,,,,,-0.257407407,-0.14537037,0,0,0,,0,398,398,323,1,
,,,,,,,,,,,,,,,,,,5d86c09df681a1001a8dddc8,2020-08-10_10h48.12.110,lexical_decision_task_MP,2020.1.3,Win32,60,z,1,0.756135,,,,,,,,0.756135,1,,,,,,347,NW,"ID",50,kerift,KERIFT,z,,,,,,-0.257407407,-0.14537037,0,0,0,,0,399,399,346,1,
,,,,,,,,,,,,,,,,,,5d86c09df681a1001a8dddc8,2020-08-10_10h48.12.110,lexical_decision_task_MP,2020.1.3,Win32,60,z,1,0.74172,,,,,,,,0.74172,1,,,,,,394,NW,UN,33,colury,SPAQUX,z,,,,,,-0.257407407,-0.14537037,0,0,0,,0,400,400,393,1,
,,,,,,,,,,,,,,,,,,5d86c09df681a1001a8dddc8,2020-08-10_10h48.12.110,lexical_decision_task_MP,2020.1.3,Win32,60,z,1,0.785035,,,,,,,,0.785035,1,,,,,,435,NW,UN,50,frutan,IMPURB,z,,,,,,-0.257407407,-0.14537037,0,0,0,,0,401,401,434,1,
,,,,,,,,,,,,,,,,,,5d86c09df681a1001a8dddc8,2020-08-10_10h48.12.110,lexical_decision_task_MP,2020.1.3,Win32,60,m,0,0.568985,,,,,,,,0.568985,0,,,,,,345,NW,"ID",50,absend,ABSEND,z,,,,,,-0.257407407,-0.14537037,0,0,0,,0,402,402,344,1,
,,,,,,,,,,,,,,,,,,5d86c09df681a1001a8dddc8,2020-08-10_10h48.12.110,lexical_decision_task_MP,2020.1.3,Win32,60,z,1,0.968215,,,,,,,,0.968215,1,,,,,,428,NW,UN,50,chrums,TANDLY,z,,,,,,-0.257407407,-0.14537037,0,0,0,,0,403,403,427,1,
,,,,,,,,,,,,,,,,,,5d86c09df681a1001a8dddc8,2020-08-10_10h48.12.110,lexical_decision_task_MP,2020.1.3,Win32,60,z,1,0.705385,,,,,,,,0.705385,1,,,,,,439,NW,UN,50,saride,LIMPOR,z,,,,,,-0.257407407,-0.14537037,0,0,0,,0,404,404,438,1,
