counterbalancing_condition,instr_done_keyboard.keys,instr_done_keyboard.rt,instr_done_touch.x,instr_done_touch.y,instr_done_touch.leftButton,instr_done_touch.midButton,instr_done_touch.rightButton,instruction_pages.thisRepN,instruction_pages.thisTrialN,instruction_pages.thisN,instruction_pages.thisIndex,instruction_pages.ran,pageN,phase,instruct_text,has_image,instruct_image,participant,date,expName,psychopyVersion,OS,frameRate,response.keys,response.corr,response.rt,touch_resp.x,touch_resp.y,touch_resp.leftButton,touch_resp.midButton,touch_resp.rightButton,touch_resp.time,touch_resp.clicked_name,rt,corr,practice_trials.thisRepN,practice_trials.thisTrialN,practice_trials.thisN,practice_trials.thisIndex,practice_trials.ran,TrialID,StimulusType,Condition,PrimeDuration,Prime,Target,corrAns,end_of_practice_trials_pages.thisRepN,end_of_practice_trials_pages.thisTrialN,end_of_practice_trials_pages.thisN,end_of_practice_trials_pages.thisIndex,end_of_practice_trials_pages.ran,break_done_touch.x,break_done_touch.y,break_done_touch.leftButton,break_done_touch.midButton,break_done_touch.rightButton,break_done_keyboard.keys,trials.thisRepN,trials.thisTrialN,trials.thisN,trials.thisIndex,trials.ran,break_done_keyboard.rt,break_done_touch.clicked_name
3,space,13.93739,0.673148171,0.487962962,0,0,0,0,0,0,0,1,1,instructions,"INSTRUCTIONS
At the start of each trial, look at the hash marks (######) in the center of the screen. After a moment, a string of letters will appear. Your task is to indicate if the letter string forms a word or not (i.e., if it is a nonword). For example, AUTHOR is a word while AUTHON is a nonword.

Press the space bar or touch the button below to continue.",0,,5d8da90433afc60017fae3d3,2020-08-10_18h20.41.126,lexical_decision_task_MP,2020.1.3,Win32,60,,,,,,,,,,,,,,,,,,,,,,,,,,,,,,,,,,,,,,,,,,
,space,18.12318,0.672222245,0.487037037,0,0,0,0,1,1,1,1,2,instructions,"If your device has a keyboard, press the 'Z' key for nonwords and the 'M' key for words.





Press the space bar or touch the button below to continue.",1,keyboard-example.gif,5d8da90433afc60017fae3d3,2020-08-10_18h20.41.126,lexical_decision_task_MP,2020.1.3,Win32,60,,,,,,,,,,,,,,,,,,,,,,,,,,,,,,,,,,,,,,,,,,
,space,5.54441,0.672222245,0.487037037,0,0,0,0,2,2,2,1,3,instructions,"If you are using a touchscreen only device, use the buttons on the screen. Do not use the mouse.





Press the space bar or touch the button below to continue.",1,touchscreen-example.gif,5d8da90433afc60017fae3d3,2020-08-10_18h20.41.126,lexical_decision_task_MP,2020.1.3,Win32,60,,,,,,,,,,,,,,,,,,,,,,,,,,,,,,,,,,,,,,,,,,
,space,7.22403,0.672222245,0.487037037,0,0,0,0,3,3,3,1,4,instructions,"It is very important that you respond as quickly and accurately as possible, as each letter string will only be on the screen for two seconds. If you do not respond within this time, the message 'Too slow!' will be displayed and the experiment will progress to the next letter string. The first 20 trials will be practice trials and you will receive feedback on your answers. 

Press the space bar or touch the button below to start the practice trials.",0,,5d8da90433afc60017fae3d3,2020-08-10_18h20.41.126,lexical_decision_task_MP,2020.1.3,Win32,60,,,,,,,,,,,,,,,,,,,,,,,,,,,,,,,,,,,,,,,,,,
,,,,,,,,,,,,,,,,,,5d8da90433afc60017fae3d3,2020-08-10_18h20.41.126,lexical_decision_task_MP,2020.1.3,Win32,60,m,1,1.041905,,,,,,,,1.041905,1,0,0,0,0,1,1001,WORD,"ID",33,utopia,UTOPIA,m,,,,,,,,,,,,,,,,,,
,,,,,,,,,,,,,,,,,,5d8da90433afc60017fae3d3,2020-08-10_18h20.41.126,lexical_decision_task_MP,2020.1.3,Win32,60,z,1,0.84608,,,,,,,,0.84608,1,0,1,1,10,1,1011,NW,"ID",50,inlade,INLADE,z,,,,,,,,,,,,,,,,,,
,,,,,,,,,,,,,,,,,,5d8da90433afc60017fae3d3,2020-08-10_18h20.41.126,lexical_decision_task_MP,2020.1.3,Win32,60,m,1,0.61337,,,,,,,,0.61337,1,0,2,2,5,1,1006,WORD,UN,33,frenzy,OBTAIN,m,,,,,,,,,,,,,,,,,,
,,,,,,,,,,,,,,,,,,5d8da90433afc60017fae3d3,2020-08-10_18h20.41.126,lexical_decision_task_MP,2020.1.3,Win32,60,z,1,0.937185,,,,,,,,0.937185,1,0,3,3,12,1,1013,NW,UN,33,adveil,SPRINY,z,,,,,,,,,,,,,,,,,,
,,,,,,,,,,,,,,,,,,5d8da90433afc60017fae3d3,2020-08-10_18h20.41.126,lexical_decision_task_MP,2020.1.3,Win32,60,z,1,0.67828,,,,,,,,0.67828,1,0,4,4,11,1,1012,NW,"ID",50,rashet,RASHET,z,,,,,,,,,,,,,,,,,,
,,,,,,,,,,,,,,,,,,5d8da90433afc60017fae3d3,2020-08-10_18h20.41.126,lexical_decision_task_MP,2020.1.3,Win32,60,m,1,0.598305,,,,,,,,0.598305,1,0,5,5,3,1,1004,WORD,"ID",50,matrix,MATRIX,m,,,,,,,,,,,,,,,,,,
,,,,,,,,,,,,,,,,,,5d8da90433afc60017fae3d3,2020-08-10_18h20.41.126,lexical_decision_task_MP,2020.1.3,Win32,60,z,1,0.778375,,,,,,,,0.778375,1,0,6,6,13,1,1014,NW,UN,33,winfer,ROUPET,z,,,,,,,,,,,,,,,,,,
,,,,,,,,,,,,,,,,,,5d8da90433afc60017fae3d3,2020-08-10_18h20.41.126,lexical_decision_task_MP,2020.1.3,Win32,60,m,1,0.59575,,,,,,,,0.59575,1,0,7,7,1,1,1002,WORD,"ID",33,adjust,ADJUST,m,,,,,,,,,,,,,,,,,,
,,,,,,,,,,,,,,,,,,5d8da90433afc60017fae3d3,2020-08-10_18h20.41.126,lexical_decision_task_MP,2020.1.3,Win32,60,m,1,0.68958,,,,,,,,0.68958,1,0,8,8,4,1,1005,WORD,UN,33,abound,SQUEAK,m,,,,,,,,,,,,,,,,,,
,,,,,,,,,,,,,,,,,,5d8da90433afc60017fae3d3,2020-08-10_18h20.41.126,lexical_decision_task_MP,2020.1.3,Win32,60,z,1,0.779115,,,,,,,,0.779115,1,0,9,9,8,1,1009,NW,"ID",33,aslert,ASLERT,z,,,,,,,,,,,,,,,,,,
,,,,,,,,,,,,,,,,,,5d8da90433afc60017fae3d3,2020-08-10_18h20.41.126,lexical_decision_task_MP,2020.1.3,Win32,60,m,1,0.600745,,,,,,,,0.600745,1,0,10,10,7,1,1008,WORD,UN,50,hurdle,VOLUME,m,,,,,,,,,,,,,,,,,,
,,,,,,,,,,,,,,,,,,5d8da90433afc60017fae3d3,2020-08-10_18h20.41.126,lexical_decision_task_MP,2020.1.3,Win32,60,z,1,0.645695,,,,,,,,0.645695,1,0,11,11,15,1,1016,NW,UN,50,mushed,WHAISE,z,,,,,,,,,,,,,,,,,,
,,,,,,,,,,,,,,,,,,5d8da90433afc60017fae3d3,2020-08-10_18h20.41.126,lexical_decision_task_MP,2020.1.3,Win32,60,m,1,0.71756,,,,,,,,0.71756,1,0,12,12,2,1,1003,WORD,"ID",50,almond,ALMOND,m,,,,,,,,,,,,,,,,,,
,,,,,,,,,,,,,,,,,,5d8da90433afc60017fae3d3,2020-08-10_18h20.41.126,lexical_decision_task_MP,2020.1.3,Win32,60,m,1,0.7785,,,,,,,,0.7785,1,0,13,13,6,1,1007,WORD,UN,50,tropic,ZOMBIE,m,,,,,,,,,,,,,,,,,,
,,,,,,,,,,,,,,,,,,5d8da90433afc60017fae3d3,2020-08-10_18h20.41.126,lexical_decision_task_MP,2020.1.3,Win32,60,m,0,0.761385,,,,,,,,0.761385,0,0,14,14,9,1,1010,NW,"ID",33,fariny,FARINY,z,,,,,,,,,,,,,,,,,,
,,,,,,,,,,,,,,,,,,5d8da90433afc60017fae3d3,2020-08-10_18h20.41.126,lexical_decision_task_MP,2020.1.3,Win32,60,z,1,0.8759,,,,,,,,0.8759,1,0,15,15,14,1,1015,NW,UN,50,miaber,THRALE,z,,,,,,,,,,,,,,,,,,
,space,13.412845,0.672222245,0.487037037,0,0,0,,,,,,1,end_of_practice,"You have completed the practice trials. During the experimental trials, you will not receive feedback, but it is very important that you respond as quickly and accurately as possible. 
Before you begin, please ensure that you are in a comfortable and quiet location and will not be disturbed for about 15 minutes, as we cannot use your data if you do not complete all the trials. 
There will be opportunities to take breaks at regular intervals during the experiment. When you are ready to start the experimental trials, please press space or touch the button below.",,,5d8da90433afc60017fae3d3,2020-08-10_18h20.41.126,lexical_decision_task_MP,2020.1.3,Win32,60,,,,,,,,,,,,,,,,,,,,,,,,,0,0,0,0,1,,,,,,,,,,,,,
,,,,,,,,,,,,,,,,,,5d8da90433afc60017fae3d3,2020-08-10_18h20.41.126,lexical_decision_task_MP,2020.1.3,Win32,60,m,1,0.901285,,,,,,,,0.901285,1,,,,,,213,WORD,UN,33,intake,SQUEAL,m,,,,,,0.672222245,0.487037037,0,0,0,,0,0,0,152,1,,
,,,,,,,,,,,,,,,,,,5d8da90433afc60017fae3d3,2020-08-10_18h20.41.126,lexical_decision_task_MP,2020.1.3,Win32,60,m,1,0.70742,,,,,,,,0.70742,1,,,,,,47,WORD,UN,50,walnut,INCOME,m,,,,,,0.672222245,0.487037037,0,0,0,,0,1,1,226,1,,
,,,,,,,,,,,,,,,,,,5d8da90433afc60017fae3d3,2020-08-10_18h20.41.126,lexical_decision_task_MP,2020.1.3,Win32,60,z,1,0.640725,,,,,,,,0.640725,1,,,,,,436,NW,UN,33,snapel,FRUTAN,z,,,,,,0.672222245,0.487037037,0,0,0,,0,2,2,375,1,,
,,,,,,,,,,,,,,,,,,5d8da90433afc60017fae3d3,2020-08-10_18h20.41.126,lexical_decision_task_MP,2020.1.3,Win32,60,m,1,0.47169,,,,,,,,0.47169,1,,,,,,228,WORD,UN,33,kidney,MASTER,m,,,,,,0.672222245,0.487037037,0,0,0,,0,3,3,167,1,,
,,,,,,,,,,,,,,,,,,5d8da90433afc60017fae3d3,2020-08-10_18h20.41.126,lexical_decision_task_MP,2020.1.3,Win32,60,m,1,0.456655,,,,,,,,0.456655,1,,,,,,158,WORD,"ID",50,island,ISLAND,m,,,,,,0.672222245,0.487037037,0,0,0,,0,4,4,97,1,,
,,,,,,,,,,,,,,,,,,5d8da90433afc60017fae3d3,2020-08-10_18h20.41.126,lexical_decision_task_MP,2020.1.3,Win32,60,z,1,0.629,,,,,,,,0.629,1,,,,,,409,NW,"ID",50,elopia,ELOPIA,z,,,,,,0.672222245,0.487037037,0,0,0,,0,5,5,348,1,,
,,,,,,,,,,,,,,,,,,5d8da90433afc60017fae3d3,2020-08-10_18h20.41.126,lexical_decision_task_MP,2020.1.3,Win32,60,z,1,0.69713,,,,,,,,0.69713,1,,,,,,443,NW,UN,33,jaunce,DORSEX,z,,,,,,0.672222245,0.487037037,0,0,0,,0,6,6,382,1,,
,,,,,,,,,,,,,,,,,,5d8da90433afc60017fae3d3,2020-08-10_18h20.41.126,lexical_decision_task_MP,2020.1.3,Win32,60,m,1,0.556585,,,,,,,,0.556585,1,,,,,,113,WORD,"ID",33,chorus,CHORUS,m,,,,,,0.672222245,0.487037037,0,0,0,,0,7,7,52,1,,
,,,,,,,,,,,,,,,,,,5d8da90433afc60017fae3d3,2020-08-10_18h20.41.126,lexical_decision_task_MP,2020.1.3,Win32,60,z,1,0.767685,,,,,,,,0.767685,1,,,,,,416,NW,"ID",50,pathel,PATHEL,z,,,,,,0.672222245,0.487037037,0,0,0,,0,8,8,355,1,,
,,,,,,,,,,,,,,,,,,5d8da90433afc60017fae3d3,2020-08-10_18h20.41.126,lexical_decision_task_MP,2020.1.3,Win32,60,m,1,0.60198,,,,,,,,0.60198,1,,,,,,7,WORD,UN,50,abrupt,ANCHOR,m,,,,,,0.672222245,0.487037037,0,0,0,,0,9,9,186,1,,
,,,,,,,,,,,,,,,,,,5d8da90433afc60017fae3d3,2020-08-10_18h20.41.126,lexical_decision_task_MP,2020.1.3,Win32,60,z,1,0.77494,,,,,,,,0.77494,1,,,,,,477,NW,UN,33,lobush,PHOTIE,z,,,,,,0.672222245,0.487037037,0,0,0,,0,10,10,416,1,,
,,,,,,,,,,,,,,,,,,5d8da90433afc60017fae3d3,2020-08-10_18h20.41.126,lexical_decision_task_MP,2020.1.3,Win32,60,z,1,0.713195,,,,,,,,0.713195,1,,,,,,262,NW,UN,50,dolica,QUILEW,z,,,,,,0.672222245,0.487037037,0,0,0,,0,11,11,441,1,,
,,,,,,,,,,,,,,,,,,5d8da90433afc60017fae3d3,2020-08-10_18h20.41.126,lexical_decision_task_MP,2020.1.3,Win32,60,z,1,0.732135,,,,,,,,0.732135,1,,,,,,277,NW,UN,50,unighs,PETAIN,z,,,,,,0.672222245,0.487037037,0,0,0,,0,12,12,456,1,,
,,,,,,,,,,,,,,,,,,5d8da90433afc60017fae3d3,2020-08-10_18h20.41.126,lexical_decision_task_MP,2020.1.3,Win32,60,m,1,0.654575,,,,,,,,0.654575,1,,,,,,36,WORD,UN,50,insult,VANISH,m,,,,,,0.672222245,0.487037037,0,0,0,,0,13,13,215,1,,
,,,,,,,,,,,,,,,,,,5d8da90433afc60017fae3d3,2020-08-10_18h20.41.126,lexical_decision_task_MP,2020.1.3,Win32,60,m,1,0.618155,,,,,,,,0.618155,1,,,,,,37,WORD,UN,50,powder,INSULT,m,,,,,,0.672222245,0.487037037,0,0,0,,0,14,14,216,1,,
,,,,,,,,,,,,,,,,,,5d8da90433afc60017fae3d3,2020-08-10_18h20.41.126,lexical_decision_task_MP,2020.1.3,Win32,60,z,1,0.59926,,,,,,,,0.59926,1,,,,,,461,NW,UN,33,absult,JUSTRE,z,,,,,,0.672222245,0.487037037,0,0,0,,0,15,15,400,1,,
,,,,,,,,,,,,,,,,,,5d8da90433afc60017fae3d3,2020-08-10_18h20.41.126,lexical_decision_task_MP,2020.1.3,Win32,60,m,1,0.61402,,,,,,,,0.61402,1,,,,,,189,WORD,UN,33,backup,CENSOR,m,,,,,,0.672222245,0.487037037,0,0,0,,0,16,16,128,1,,
,,,,,,,,,,,,,,,,,,5d8da90433afc60017fae3d3,2020-08-10_18h20.41.126,lexical_decision_task_MP,2020.1.3,Win32,60,z,1,0.561765,,,,,,,,0.561765,1,,,,,,414,NW,"ID",50,serbol,SERBOL,z,,,,,,0.672222245,0.487037037,0,0,0,,0,17,17,353,1,,
,,,,,,,,,,,,,,,,,,5d8da90433afc60017fae3d3,2020-08-10_18h20.41.126,lexical_decision_task_MP,2020.1.3,Win32,60,m,1,0.57851,,,,,,,,0.57851,1,,,,,,53,WORD,UN,50,ramble,POLICE,m,,,,,,0.672222245,0.487037037,0,0,0,,0,18,18,232,1,,
,,,,,,,,,,,,,,,,,,5d8da90433afc60017fae3d3,2020-08-10_18h20.41.126,lexical_decision_task_MP,2020.1.3,Win32,60,z,1,0.612305,,,,,,,,0.612305,1,,,,,,474,NW,UN,33,acrise,HABLIN,z,,,,,,0.672222245,0.487037037,0,0,0,,0,19,19,413,1,,
,,,,,,,,,,,,,,,,,,5d8da90433afc60017fae3d3,2020-08-10_18h20.41.126,lexical_decision_task_MP,2020.1.3,Win32,60,m,1,0.59885,,,,,,,,0.59885,1,,,,,,11,WORD,UN,50,amount,CRUISE,m,,,,,,0.672222245,0.487037037,0,0,0,,0,20,20,190,1,,
,,,,,,,,,,,,,,,,,,5d8da90433afc60017fae3d3,2020-08-10_18h20.41.126,lexical_decision_task_MP,2020.1.3,Win32,60,m,1,0.578355,,,,,,,,0.578355,1,,,,,,137,WORD,"ID",50,finger,FINGER,m,,,,,,0.672222245,0.487037037,0,0,0,,0,21,21,76,1,,
,,,,,,,,,,,,,,,,,,5d8da90433afc60017fae3d3,2020-08-10_18h20.41.126,lexical_decision_task_MP,2020.1.3,Win32,60,m,1,0.569125,,,,,,,,0.569125,1,,,,,,19,WORD,UN,50,breast,PATRON,m,,,,,,0.672222245,0.487037037,0,0,0,,0,22,22,198,1,,
,,,,,,,,,,,,,,,,,,5d8da90433afc60017fae3d3,2020-08-10_18h20.41.126,lexical_decision_task_MP,2020.1.3,Win32,60,m,1,0.562385,,,,,,,,0.562385,1,,,,,,124,WORD,"ID",50,blouse,BLOUSE,m,,,,,,0.672222245,0.487037037,0,0,0,,0,23,23,63,1,,
,,,,,,,,,,,,,,,,,,5d8da90433afc60017fae3d3,2020-08-10_18h20.41.126,lexical_decision_task_MP,2020.1.3,Win32,60,m,1,0.54547,,,,,,,,0.54547,1,,,,,,128,WORD,"ID",50,senior,SENIOR,m,,,,,,0.672222245,0.487037037,0,0,0,,0,24,24,67,1,,
,,,,,,,,,,,,,,,,,,5d8da90433afc60017fae3d3,2020-08-10_18h20.41.126,lexical_decision_task_MP,2020.1.3,Win32,60,m,1,0.508735,,,,,,,,0.508735,1,,,,,,14,WORD,UN,50,orange,ALMOST,m,,,,,,0.672222245,0.487037037,0,0,0,,0,25,25,193,1,,
,,,,,,,,,,,,,,,,,,5d8da90433afc60017fae3d3,2020-08-10_18h20.41.126,lexical_decision_task_MP,2020.1.3,Win32,60,m,1,0.578965,,,,,,,,0.578965,1,,,,,,60,WORD,UN,50,fright,PENCIL,m,,,,,,0.672222245,0.487037037,0,0,0,,0,26,26,239,1,,
,,,,,,,,,,,,,,,,,,5d8da90433afc60017fae3d3,2020-08-10_18h20.41.126,lexical_decision_task_MP,2020.1.3,Win32,60,m,1,0.45492,,,,,,,,0.45492,1,,,,,,71,WORD,"ID",33,garden,GARDEN,m,,,,,,0.672222245,0.487037037,0,0,0,,0,27,27,10,1,,
,,,,,,,,,,,,,,,,,,5d8da90433afc60017fae3d3,2020-08-10_18h20.41.126,lexical_decision_task_MP,2020.1.3,Win32,60,z,1,0.605265,,,,,,,,0.605265,1,,,,,,467,NW,UN,33,wictor,GORBIE,z,,,,,,0.672222245,0.487037037,0,0,0,,0,28,28,406,1,,
,,,,,,,,,,,,,,,,,,5d8da90433afc60017fae3d3,2020-08-10_18h20.41.126,lexical_decision_task_MP,2020.1.3,Win32,60,m,1,0.495905,,,,,,,,0.495905,1,,,,,,109,WORD,"ID",33,wonder,WONDER,m,,,,,,0.672222245,0.487037037,0,0,0,,0,29,29,48,1,,
,,,,,,,,,,,,,,,,,,5d8da90433afc60017fae3d3,2020-08-10_18h20.41.126,lexical_decision_task_MP,2020.1.3,Win32,60,z,1,0.595995,,,,,,,,0.595995,1,,,,,,401,NW,"ID",50,mustil,MUSTIL,z,,,,,,0.672222245,0.487037037,0,0,0,,0,30,30,340,1,,
,,,,,,,,,,,,,,,,,,5d8da90433afc60017fae3d3,2020-08-10_18h20.41.126,lexical_decision_task_MP,2020.1.3,Win32,60,m,1,0.471315,,,,,,,,0.471315,1,,,,,,78,WORD,"ID",33,column,COLUMN,m,,,,,,0.672222245,0.487037037,0,0,0,,0,31,31,17,1,,
,,,,,,,,,,,,,,,,,,5d8da90433afc60017fae3d3,2020-08-10_18h20.41.126,lexical_decision_task_MP,2020.1.3,Win32,60,m,1,0.662875,,,,,,,,0.662875,1,,,,,,93,WORD,"ID",33,public,PUBLIC,m,,,,,,0.672222245,0.487037037,0,0,0,,0,32,32,32,1,,
,,,,,,,,,,,,,,,,,,5d8da90433afc60017fae3d3,2020-08-10_18h20.41.126,lexical_decision_task_MP,2020.1.3,Win32,60,m,1,0.562485,,,,,,,,0.562485,1,,,,,,23,WORD,UN,50,praise,WEALTH,m,,,,,,0.672222245,0.487037037,0,0,0,,0,33,33,202,1,,
,,,,,,,,,,,,,,,,,,5d8da90433afc60017fae3d3,2020-08-10_18h20.41.126,lexical_decision_task_MP,2020.1.3,Win32,60,z,1,0.69015,,,,,,,,0.69015,1,,,,,,269,NW,UN,50,wrimsy,ORCHET,z,,,,,,0.672222245,0.487037037,0,0,0,,0,34,34,448,1,,
,,,,,,,,,,,,,,,,,,5d8da90433afc60017fae3d3,2020-08-10_18h20.41.126,lexical_decision_task_MP,2020.1.3,Win32,60,m,1,0.562445,,,,,,,,0.562445,1,,,,,,200,WORD,UN,33,admire,BEACON,m,,,,,,0.672222245,0.487037037,0,0,0,,0,35,35,139,1,,
,,,,,,,,,,,,,,,,,,5d8da90433afc60017fae3d3,2020-08-10_18h20.41.126,lexical_decision_task_MP,2020.1.3,Win32,60,m,1,0.535795,,,,,,,,0.535795,1,,,,,,73,WORD,"ID",33,source,SOURCE,m,,,,,,0.672222245,0.487037037,0,0,0,,0,36,36,12,1,,
,,,,,,,,,,,,,,,,,,5d8da90433afc60017fae3d3,2020-08-10_18h20.41.126,lexical_decision_task_MP,2020.1.3,Win32,60,m,1,0.672505,,,,,,,,0.672505,1,,,,,,50,WORD,UN,50,hungry,SNATCH,m,,,,,,0.672222245,0.487037037,0,0,0,,0,37,37,229,1,,
,,,,,,,,,,,,,,,,,,5d8da90433afc60017fae3d3,2020-08-10_18h20.41.126,lexical_decision_task_MP,2020.1.3,Win32,60,z,1,0.631165,,,,,,,,0.631165,1,,,,,,364,NW,"ID",50,impote,IMPOTE,z,,,,,,0.672222245,0.487037037,0,0,0,,0,38,38,303,1,,
,,,,,,,,,,,,,,,,,,5d8da90433afc60017fae3d3,2020-08-10_18h20.41.126,lexical_decision_task_MP,2020.1.3,Win32,60,m,1,0.46394,,,,,,,,0.46394,1,,,,,,112,WORD,"ID",33,breath,BREATH,m,,,,,,0.672222245,0.487037037,0,0,0,,0,39,39,51,1,,
,,,,,,,,,,,,,,,,,,5d8da90433afc60017fae3d3,2020-08-10_18h20.41.126,lexical_decision_task_MP,2020.1.3,Win32,60,m,1,0.64638,,,,,,,,0.64638,1,,,,,,114,WORD,"ID",33,placid,PLACID,m,,,,,,0.672222245,0.487037037,0,0,0,,0,40,40,53,1,,
,,,,,,,,,,,,,,,,,,5d8da90433afc60017fae3d3,2020-08-10_18h20.41.126,lexical_decision_task_MP,2020.1.3,Win32,60,z,1,0.548195,,,,,,,,0.548195,1,,,,,,405,NW,"ID",50,flumni,FLUMNI,z,,,,,,0.672222245,0.487037037,0,0,0,,0,41,41,344,1,,
,,,,,,,,,,,,,,,,,,5d8da90433afc60017fae3d3,2020-08-10_18h20.41.126,lexical_decision_task_MP,2020.1.3,Win32,60,z,1,0.69141,,,,,,,,0.69141,1,,,,,,331,NW,"ID",33,gilfew,GILFEW,z,,,,,,0.672222245,0.487037037,0,0,0,,0,42,42,270,1,,
,,,,,,,,,,,,,,,,,,5d8da90433afc60017fae3d3,2020-08-10_18h20.41.126,lexical_decision_task_MP,2020.1.3,Win32,60,z,1,0.60792,,,,,,,,0.60792,1,,,,,,304,NW,"ID",33,cludie,CLUDIE,z,,,,,,0.672222245,0.487037037,0,0,0,,0,43,43,243,1,,
,,,,,,,,,,,,,,,,,,5d8da90433afc60017fae3d3,2020-08-10_18h20.41.126,lexical_decision_task_MP,2020.1.3,Win32,60,m,1,0.604905,,,,,,,,0.604905,1,,,,,,227,WORD,UN,33,master,SELDOM,m,,,,,,0.672222245,0.487037037,0,0,0,,0,44,44,166,1,,
,,,,,,,,,,,,,,,,,,5d8da90433afc60017fae3d3,2020-08-10_18h20.41.126,lexical_decision_task_MP,2020.1.3,Win32,60,z,1,0.678565,,,,,,,,0.678565,1,,,,,,373,NW,"ID",50,bigent,BIGENT,z,,,,,,0.672222245,0.487037037,0,0,0,,0,45,45,312,1,,
,,,,,,,,,,,,,,,,,,5d8da90433afc60017fae3d3,2020-08-10_18h20.41.126,lexical_decision_task_MP,2020.1.3,Win32,60,m,1,0.56628,,,,,,,,0.56628,1,,,,,,187,WORD,UN,33,social,COURSE,m,,,,,,0.672222245,0.487037037,0,0,0,,0,46,46,126,1,,
,,,,,,,,,,,,,,,,,,5d8da90433afc60017fae3d3,2020-08-10_18h20.41.126,lexical_decision_task_MP,2020.1.3,Win32,60,m,1,0.53969,,,,,,,,0.53969,1,,,,,,41,WORD,UN,50,chapel,SPRING,m,,,,,,0.672222245,0.487037037,0,0,0,,0,47,47,220,1,,
,,,,,,,,,,,,,,,,,,5d8da90433afc60017fae3d3,2020-08-10_18h20.41.126,lexical_decision_task_MP,2020.1.3,Win32,60,m,1,0.55751,,,,,,,,0.55751,1,,,,,,90,WORD,"ID",33,relish,RELISH,m,,,,,,0.672222245,0.487037037,0,0,0,,0,48,48,29,1,,
,,,,,,,,,,,,,,,,,,5d8da90433afc60017fae3d3,2020-08-10_18h20.41.126,lexical_decision_task_MP,2020.1.3,Win32,60,m,1,0.52376,,,,,,,,0.52376,1,,,,,,159,WORD,"ID",50,detail,DETAIL,m,,,,,,0.672222245,0.487037037,0,0,0,,0,49,49,98,1,,
,,,,,,,,,,,,,,,,,,5d8da90433afc60017fae3d3,2020-08-10_18h20.41.126,lexical_decision_task_MP,2020.1.3,Win32,60,m,1,0.54622,,,,,,,,0.54622,1,,,,,,99,WORD,"ID",33,fluent,FLUENT,m,,,,,,0.672222245,0.487037037,0,0,0,,0,50,50,38,1,,
,,,,,,,,,,,,,,,,,,5d8da90433afc60017fae3d3,2020-08-10_18h20.41.126,lexical_decision_task_MP,2020.1.3,Win32,60,m,1,0.482935,,,,,,,,0.482935,1,,,,,,148,WORD,"ID",50,custom,CUSTOM,m,,,,,,0.672222245,0.487037037,0,0,0,,0,51,51,87,1,,
,,,,,,,,,,,,,,,,,,5d8da90433afc60017fae3d3,2020-08-10_18h20.41.126,lexical_decision_task_MP,2020.1.3,Win32,60,z,1,0.602985,,,,,,,,0.602985,1,,,,,,390,NW,"ID",50,hatrus,HATRUS,z,,,,,,0.672222245,0.487037037,0,0,0,,0,52,52,329,1,,
,,,,,,,,,,,,,,,,,,5d8da90433afc60017fae3d3,2020-08-10_18h20.41.126,lexical_decision_task_MP,2020.1.3,Win32,60,z,1,0.712205,,,,,,,,0.712205,1,,,,,,303,NW,"ID",33,fiream,FIREAM,z,,,,,,0.672222245,0.487037037,0,0,0,,0,53,53,242,1,,
,,,,,,,,,,,,,,,,,,5d8da90433afc60017fae3d3,2020-08-10_18h20.41.126,lexical_decision_task_MP,2020.1.3,Win32,60,z,1,0.84128,,,,,,,,0.84128,1,,,,,,281,NW,UN,50,porlex,MELATY,z,,,,,,0.672222245,0.487037037,0,0,0,,0,54,54,460,1,,
,,,,,,,,,,,,,,,,,,5d8da90433afc60017fae3d3,2020-08-10_18h20.41.126,lexical_decision_task_MP,2020.1.3,Win32,60,z,1,0.613145,,,,,,,,0.613145,1,,,,,,274,NW,UN,50,sleirt,FUMBLO,z,,,,,,0.672222245,0.487037037,0,0,0,,0,55,55,453,1,,
,,,,,,,,,,,,,,,,,,5d8da90433afc60017fae3d3,2020-08-10_18h20.41.126,lexical_decision_task_MP,2020.1.3,Win32,60,z,1,0.494855,,,,,,,,0.494855,1,,,,,,288,NW,UN,50,starby,YACEUP,z,,,,,,0.672222245,0.487037037,0,0,0,,0,56,56,467,1,,
,,,,,,,,,,,,,,,,,,5d8da90433afc60017fae3d3,2020-08-10_18h20.41.126,lexical_decision_task_MP,2020.1.3,Win32,60,m,1,0.5703,,,,,,,,0.5703,1,,,,,,95,WORD,"ID",33,thread,THREAD,m,,,,,,0.672222245,0.487037037,0,0,0,,0,57,57,34,1,,
,,,,,,,,,,,,,,,,,,5d8da90433afc60017fae3d3,2020-08-10_18h20.41.126,lexical_decision_task_MP,2020.1.3,Win32,60,z,1,0.57804,,,,,,,,0.57804,1,,,,,,282,NW,UN,50,veralf,PORLEX,z,,,,,,0.672222245,0.487037037,0,0,0,,0,58,58,461,1,,
,,,,,,,,,,,,,,,,,,5d8da90433afc60017fae3d3,2020-08-10_18h20.41.126,lexical_decision_task_MP,2020.1.3,Win32,60,z,1,0.54519,,,,,,,,0.54519,1,,,,,,463,NW,UN,33,chaite,KISPEL,z,,,,,,0.672222245,0.487037037,0,0,0,,0,59,59,402,1,,
,,,,,,,,,,,,,,,,,,5d8da90433afc60017fae3d3,2020-08-10_18h20.41.126,lexical_decision_task_MP,2020.1.3,Win32,60,m,1,0.599305,,,,,,,,0.599305,1,,,,,,15,WORD,UN,50,faucet,AMOUNT,m,,,,,,0.672222245,0.487037037,0,0,0,,0,60,60,194,1,,
,,,,,,,,,,,,,,,,,,5d8da90433afc60017fae3d3,2020-08-10_18h20.41.126,lexical_decision_task_MP,2020.1.3,Win32,60,z,1,0.69794,,,,,,,,0.69794,1,,,,,,441,NW,UN,33,aboune,RASTOE,z,,,,,,0.672222245,0.487037037,0,0,0,,0,61,61,380,1,,
,,,,,,,,,,,,,,,,,,5d8da90433afc60017fae3d3,2020-08-10_18h20.41.126,lexical_decision_task_MP,2020.1.3,Win32,60,m,1,0.56506,,,,,,,,0.56506,1,,,,,,204,WORD,UN,33,lounge,BURDEN,m,,,,,,0.672222245,0.487037037,0,0,0,,0,62,62,143,1,,
,,,,,,,,,,,,,,,,,,5d8da90433afc60017fae3d3,2020-08-10_18h20.41.126,lexical_decision_task_MP,2020.1.3,Win32,60,m,1,0.54579,,,,,,,,0.54579,1,,,,,,171,WORD,"ID",50,depart,DEPART,m,,,,,,0.672222245,0.487037037,0,0,0,,0,63,63,110,1,,
,,,,,,,,,,,,,,,,,,5d8da90433afc60017fae3d3,2020-08-10_18h20.41.126,lexical_decision_task_MP,2020.1.3,Win32,60,m,1,0.46629,,,,,,,,0.46629,1,,,,,,153,WORD,"ID",50,behold,BEHOLD,m,,,,,,0.672222245,0.487037037,0,0,0,,0,64,64,92,1,,
,,,,,,,,,,,,,,,,,,5d8da90433afc60017fae3d3,2020-08-10_18h20.41.126,lexical_decision_task_MP,2020.1.3,Win32,60,z,1,0.69886,,,,,,,,0.69886,1,,,,,,311,NW,"ID",33,sproly,SPROLY,z,,,,,,0.672222245,0.487037037,0,0,0,,0,65,65,250,1,,
,,,,,,,,,,,,,,,,,,5d8da90433afc60017fae3d3,2020-08-10_18h20.41.126,lexical_decision_task_MP,2020.1.3,Win32,60,m,1,0.59404,,,,,,,,0.59404,1,,,,,,91,WORD,"ID",33,expand,EXPAND,m,,,,,,0.672222245,0.487037037,0,0,0,,0,66,66,30,1,,
,,,,,,,,,,,,,,,,,,5d8da90433afc60017fae3d3,2020-08-10_18h20.41.126,lexical_decision_task_MP,2020.1.3,Win32,60,z,1,0.55538,,,,,,,,0.55538,1,,,,,,347,NW,"ID",33,kerift,KERIFT,z,,,,,,0.672222245,0.487037037,0,0,0,,0,67,67,286,1,,
,,,,,,,,,,,,,,,,,,5d8da90433afc60017fae3d3,2020-08-10_18h20.41.126,lexical_decision_task_MP,2020.1.3,Win32,60,m,1,0.64122,,,,,,,,0.64122,1,,,,,,206,WORD,UN,33,wreath,TAILOR,m,,,,,,0.672222245,0.487037037,0,0,0,,0,68,68,145,1,,
,,,,,,,,,,,,,,,,,,5d8da90433afc60017fae3d3,2020-08-10_18h20.41.126,lexical_decision_task_MP,2020.1.3,Win32,60,z,1,0.71225,,,,,,,,0.71225,1,,,,,,284,NW,UN,50,prudge,SHAPLE,z,,,,,,0.672222245,0.487037037,0,0,0,,0,69,69,463,1,,
,,,,,,,,,,,,,,,,,,5d8da90433afc60017fae3d3,2020-08-10_18h20.41.126,lexical_decision_task_MP,2020.1.3,Win32,60,z,1,0.54548,,,,,,,,0.54548,1,,,,,,408,NW,"ID",50,hurnia,HURNIA,z,,,,,,0.672222245,0.487037037,0,0,0,,0,70,70,347,1,,
,,,,,,,,,,,,,,,,,,5d8da90433afc60017fae3d3,2020-08-10_18h20.41.126,lexical_decision_task_MP,2020.1.3,Win32,60,m,1,0.5869,,,,,,,,0.5869,1,,,,,,83,WORD,"ID",33,result,RESULT,m,,,,,,0.672222245,0.487037037,0,0,0,,0,71,71,22,1,,
,,,,,,,,,,,,,,,,,,5d8da90433afc60017fae3d3,2020-08-10_18h20.41.126,lexical_decision_task_MP,2020.1.3,Win32,60,z,1,0.596555,,,,,,,,0.596555,1,,,,,,469,NW,UN,33,crudio,PADIFS,z,,,,,,0.672222245,0.487037037,0,0,0,,0,72,72,408,1,,
,,,,,,,,,,,,,,,,,,5d8da90433afc60017fae3d3,2020-08-10_18h20.41.126,lexical_decision_task_MP,2020.1.3,Win32,60,m,1,0.664175,,,,,,,,0.664175,1,,,,,,191,WORD,UN,33,beacon,STABLE,m,,,,,,0.672222245,0.487037037,0,0,0,,0,73,73,130,1,,
,,,,,,,,,,,,,,,,,,5d8da90433afc60017fae3d3,2020-08-10_18h20.41.126,lexical_decision_task_MP,2020.1.3,Win32,60,m,1,0.512695,,,,,,,,0.512695,1,,,,,,149,WORD,"ID",50,invade,INVADE,m,,,,,,0.672222245,0.487037037,0,0,0,,0,74,74,88,1,,
,,,,,,,,,,,,,,,,,,5d8da90433afc60017fae3d3,2020-08-10_18h20.41.126,lexical_decision_task_MP,2020.1.3,Win32,60,m,1,0.482715,,,,,,,,0.482715,1,,,,,,169,WORD,"ID",50,genius,GENIUS,m,,,,,,0.672222245,0.487037037,0,0,0,,0,75,75,108,1,,
,,,,,,,,,,,,,,,,,,5d8da90433afc60017fae3d3,2020-08-10_18h20.41.126,lexical_decision_task_MP,2020.1.3,Win32,60,m,1,0.51408,,,,,,,,0.51408,1,,,,,,190,WORD,UN,33,stable,BACKUP,m,,,,,,0.672222245,0.487037037,0,0,0,,0,76,76,129,1,,
,,,,,,,,,,,,,,,,,,5d8da90433afc60017fae3d3,2020-08-10_18h20.41.126,lexical_decision_task_MP,2020.1.3,Win32,60,m,1,0.53211,,,,,,,,0.53211,1,,,,,,194,WORD,UN,33,resign,ABSENT,m,,,,,,0.672222245,0.487037037,0,0,0,,0,77,77,133,1,,
,,,,,,,,,,,,,,,,,,5d8da90433afc60017fae3d3,2020-08-10_18h20.41.126,lexical_decision_task_MP,2020.1.3,Win32,60,m,1,0.50704,,,,,,,,0.50704,1,,,,,,63,WORD,"ID",33,launch,LAUNCH,m,,,,,,0.672222245,0.487037037,0,0,0,,0,78,78,2,1,,
,,,,,,,,,,,,,,,,,,5d8da90433afc60017fae3d3,2020-08-10_18h20.41.126,lexical_decision_task_MP,2020.1.3,Win32,60,z,1,0.599575,,,,,,,,0.599575,1,,,,,,251,NW,UN,50,stapod,LUPICT,z,,,,,,0.672222245,0.487037037,0,0,0,,0,79,79,430,1,,
,,,,,,,,,,,,,,,,,,5d8da90433afc60017fae3d3,2020-08-10_18h20.41.126,lexical_decision_task_MP,2020.1.3,Win32,60,m,1,0.578635,,,,,,,,0.578635,1,,,,,,234,WORD,UN,33,poster,CLUMSY,m,,,,,,0.672222245,0.487037037,0,0,0,,0,80,80,173,1,,
,,,,,,,,,,,,,,,,,,5d8da90433afc60017fae3d3,2020-08-10_18h20.41.126,lexical_decision_task_MP,2020.1.3,Win32,60,m,1,0.620445,,,,,,,,0.620445,1,,,,,,34,WORD,UN,50,socket,JUNGLE,m,,,,,,0.672222245,0.487037037,0,0,0,,0,81,81,213,1,,
,,,,,,,,,,,,,,,,,,5d8da90433afc60017fae3d3,2020-08-10_18h20.41.126,lexical_decision_task_MP,2020.1.3,Win32,60,z,1,0.69698,,,,,,,,0.69698,1,,,,,,289,NW,UN,50,splino,STARBY,z,,,,,,0.672222245,0.487037037,0,0,0,,0,82,82,468,1,,
,,,,,,,,,,,,,,,,,,5d8da90433afc60017fae3d3,2020-08-10_18h20.41.126,lexical_decision_task_MP,2020.1.3,Win32,60,z,1,0.799935,,,,,,,,0.799935,1,,,,,,309,NW,"ID",33,amiloy,AMILOY,z,,,,,,0.672222245,0.487037037,0,0,0,,0,83,83,248,1,,
,,,,,,,,,,,,,,,,,,5d8da90433afc60017fae3d3,2020-08-10_18h20.41.126,lexical_decision_task_MP,2020.1.3,Win32,60,m,1,0.612095,,,,,,,,0.612095,1,,,,,,81,WORD,"ID",33,friend,FRIEND,m,,,,,,0.672222245,0.487037037,0,0,0,,0,84,84,20,1,,
,,,,,,,,,,,,,,,,,,5d8da90433afc60017fae3d3,2020-08-10_18h20.41.126,lexical_decision_task_MP,2020.1.3,Win32,60,m,1,0.5325,,,,,,,,0.5325,1,,,,,,219,WORD,UN,33,voyage,BUCKET,m,,,,,,0.672222245,0.487037037,0,0,0,,0,85,85,158,1,,
,,,,,,,,,,,,,,,,,,5d8da90433afc60017fae3d3,2020-08-10_18h20.41.126,lexical_decision_task_MP,2020.1.3,Win32,60,z,1,0.579415,,,,,,,,0.579415,1,,,,,,273,NW,UN,50,fumblo,SORTEL,z,,,,,,0.672222245,0.487037037,0,0,0,,0,86,86,452,1,,
,,,,,,,,,,,,,,,,,,5d8da90433afc60017fae3d3,2020-08-10_18h20.41.126,lexical_decision_task_MP,2020.1.3,Win32,60,m,1,0.57189,,,,,,,,0.57189,1,,,,,,221,WORD,UN,33,hinder,MASCOT,m,,,,,,0.672222245,0.487037037,0,0,0,,0,87,87,160,1,,
,,,,,,,,,,,,,,,,,,5d8da90433afc60017fae3d3,2020-08-10_18h20.41.126,lexical_decision_task_MP,2020.1.3,Win32,60,m,1,0.495135,,,,,,,,0.495135,1,,,,,,104,WORD,"ID",33,studio,STUDIO,m,,,,,,0.672222245,0.487037037,0,0,0,,0,88,88,43,1,,
,,,,,,,,,,,,,,,,,,5d8da90433afc60017fae3d3,2020-08-10_18h20.41.126,lexical_decision_task_MP,2020.1.3,Win32,60,m,1,0.597715,,,,,,,,0.597715,1,,,,,,161,WORD,"ID",50,pastor,PASTOR,m,,,,,,0.672222245,0.487037037,0,0,0,,0,89,89,100,1,,
,,,,,,,,,,,,,,,,,,5d8da90433afc60017fae3d3,2020-08-10_18h20.41.126,lexical_decision_task_MP,2020.1.3,Win32,60,m,1,0.47861,,,,,,,,0.47861,1,,,,,,193,WORD,UN,33,mildew,OBJECT,m,,,,,,0.672222245,0.487037037,0,0,0,,0,90,90,132,1,,
,,,,,,,,,,,,,,,,,,5d8da90433afc60017fae3d3,2020-08-10_18h20.41.126,lexical_decision_task_MP,2020.1.3,Win32,60,m,1,0.51403,,,,,,,,0.51403,1,,,,,,233,WORD,UN,33,clumsy,NATURE,m,,,,,,0.672222245,0.487037037,0,0,0,,0,91,91,172,1,,
,,,,,,,,,,,,,,,,,,5d8da90433afc60017fae3d3,2020-08-10_18h20.41.126,lexical_decision_task_MP,2020.1.3,Win32,60,z,1,0.5448,,,,,,,,0.5448,1,,,,,,385,NW,"ID",50,veigma,VEIGMA,z,,,,,,0.672222245,0.487037037,0,0,0,,0,92,92,324,1,,
,,,,,,,,,,,,,,,,,,5d8da90433afc60017fae3d3,2020-08-10_18h20.41.126,lexical_decision_task_MP,2020.1.3,Win32,60,m,1,0.669535,,,,,,,,0.669535,1,,,,,,226,WORD,UN,33,flower,CASINO,m,,,,,,0.672222245,0.487037037,0,0,0,,0,93,93,165,1,,
,,,,,,,,,,,,,,,,,,5d8da90433afc60017fae3d3,2020-08-10_18h20.41.126,lexical_decision_task_MP,2020.1.3,Win32,60,m,1,0.52629,,,,,,,,0.52629,1,,,,,,216,WORD,UN,33,liquor,BEHALF,m,,,,,,0.672222245,0.487037037,0,0,0,,0,94,94,155,1,,
,,,,,,,,,,,,,,,,,,5d8da90433afc60017fae3d3,2020-08-10_18h20.41.126,lexical_decision_task_MP,2020.1.3,Win32,60,z,1,0.56984,,,,,,,,0.56984,1,,,,,,270,NW,UN,50,aubrid,WRIMSY,z,,,,,,0.672222245,0.487037037,0,0,0,,0,95,95,449,1,,
,,,,,,,,,,,,,,,,,,5d8da90433afc60017fae3d3,2020-08-10_18h20.41.126,lexical_decision_task_MP,2020.1.3,Win32,60,z,1,0.715325,,,,,,,,0.715325,1,,,,,,384,NW,"ID",50,guesco,GUESCO,z,,,,,,0.672222245,0.487037037,0,0,0,,0,96,96,323,1,,
,,,,,,,,,,,,,,,,,,5d8da90433afc60017fae3d3,2020-08-10_18h20.41.126,lexical_decision_task_MP,2020.1.3,Win32,60,z,1,0.71841,,,,,,,,0.71841,1,,,,,,404,NW,"ID",50,cluirm,CLUIRM,z,,,,,,0.672222245,0.487037037,0,0,0,,0,97,97,343,1,,
,,,,,,,,,,,,,,,,,,5d8da90433afc60017fae3d3,2020-08-10_18h20.41.126,lexical_decision_task_MP,2020.1.3,Win32,60,z,1,0.61401,,,,,,,,0.61401,1,,,,,,400,NW,"ID",50,wearox,WEAROX,z,,,,,,0.672222245,0.487037037,0,0,0,,0,98,98,339,1,,
,,,,,,,,,,,,,,,,,,5d8da90433afc60017fae3d3,2020-08-10_18h20.41.126,lexical_decision_task_MP,2020.1.3,Win32,60,z,1,0.51444,,,,,,,,0.51444,1,,,,,,346,NW,"ID",33,saudic,SAUDIC,z,,,,,,0.672222245,0.487037037,0,0,0,,0,99,99,285,1,,
,,,,,,,,,,,,,,,,,,5d8da90433afc60017fae3d3,2020-08-10_18h20.41.126,lexical_decision_task_MP,2020.1.3,Win32,60,z,1,0.532855,,,,,,,,0.532855,1,,,,,,406,NW,"ID",50,nouply,NOUPLY,z,,,,,,0.672222245,0.487037037,0,0,0,,0,100,100,345,1,,
,,,,,,,,,,,,,,,,,,5d8da90433afc60017fae3d3,2020-08-10_18h20.41.126,lexical_decision_task_MP,2020.1.3,Win32,60,m,1,0.550475,,,,,,,,0.550475,1,,,,,,179,WORD,"ID",50,basket,BASKET,m,,,,,,0.672222245,0.487037037,0,0,0,,0,101,101,118,1,,
,,,,,,,,,,,,,,,,,,5d8da90433afc60017fae3d3,2020-08-10_18h20.41.126,lexical_decision_task_MP,2020.1.3,Win32,60,z,1,0.71482,,,,,,,,0.71482,1,,,,,,254,NW,UN,50,apight,VAROSH,z,,,,,,0.672222245,0.487037037,0,0,0,,0,102,102,433,1,,
,,,,,,,,,,,,,,,,,,5d8da90433afc60017fae3d3,2020-08-10_18h20.41.126,lexical_decision_task_MP,2020.1.3,Win32,60,z,1,0.531025,,,,,,,,0.531025,1,,,,,,386,NW,"ID",50,ancust,ANCUST,z,,,,,,0.672222245,0.487037037,0,0,0,,0,103,103,325,1,,
,,,,,,,,,,,,,,,,,,5d8da90433afc60017fae3d3,2020-08-10_18h20.41.126,lexical_decision_task_MP,2020.1.3,Win32,60,m,1,0.588185,,,,,,,,0.588185,1,,,,,,30,WORD,UN,50,weapon,ORIENT,m,,,,,,0.672222245,0.487037037,0,0,0,,0,104,104,209,1,,
,,,,,,,,,,,,,,,,,,5d8da90433afc60017fae3d3,2020-08-10_18h20.41.126,lexical_decision_task_MP,2020.1.3,Win32,60,m,1,0.57905,,,,,,,,0.57905,1,,,,,,18,WORD,UN,50,patron,HUMBLE,m,,,,,,0.672222245,0.487037037,0,0,0,,0,105,105,197,1,,
,,,,,,,,,,,,,,,,,,5d8da90433afc60017fae3d3,2020-08-10_18h20.41.126,lexical_decision_task_MP,2020.1.3,Win32,60,m,1,0.495415,,,,,,,,0.495415,1,,,,,,239,WORD,UN,33,forest,LUMBER,m,,,,,,0.672222245,0.487037037,0,0,0,,0,106,106,178,1,,
,,,,,,,,,,,,,,,,,,5d8da90433afc60017fae3d3,2020-08-10_18h20.41.126,lexical_decision_task_MP,2020.1.3,Win32,60,z,1,0.8154,,,,,,,,0.8154,1,,,,,,360,NW,"ID",33,desory,DESORY,z,,,,,,0.672222245,0.487037037,0,0,0,,0,107,107,299,1,,
,,,,,,,,,,,,,,,,,,5d8da90433afc60017fae3d3,2020-08-10_18h20.41.126,lexical_decision_task_MP,2020.1.3,Win32,60,z,1,0.584615,,,,,,,,0.584615,1,,,,,,335,NW,"ID",33,desion,DESION,z,,,,,,0.672222245,0.487037037,0,0,0,,0,108,108,274,1,,
,,,,,,,,,,,,,,,,,,5d8da90433afc60017fae3d3,2020-08-10_18h20.41.126,lexical_decision_task_MP,2020.1.3,Win32,60,z,1,0.51807,,,,,,,,0.51807,1,,,,,,456,NW,UN,33,wanigh,BROGET,z,,,,,,0.672222245,0.487037037,0,0,0,,0,109,109,395,1,,
,,,,,,,,,,,,,,,,,,5d8da90433afc60017fae3d3,2020-08-10_18h20.41.126,lexical_decision_task_MP,2020.1.3,Win32,60,m,1,0.630245,,,,,,,,0.630245,1,,,,,,72,WORD,"ID",33,bright,BRIGHT,m,,,,,,0.672222245,0.487037037,0,0,0,,0,110,110,11,1,,
,,,,,,,,,,,,,,,,,,5d8da90433afc60017fae3d3,2020-08-10_18h20.41.126,lexical_decision_task_MP,2020.1.3,Win32,60,m,1,0.6778,,,,,,,,0.6778,1,,,,,,43,WORD,UN,50,foster,TONGUE,m,,,,,,0.672222245,0.487037037,0,0,0,,0,111,111,222,1,,
,,,,,,,,,,,,,,,,,,5d8da90433afc60017fae3d3,2020-08-10_18h20.41.126,lexical_decision_task_MP,2020.1.3,Win32,60,z,1,0.59939,,,,,,,,0.59939,1,,,,,,333,NW,"ID",33,catrie,CATRIE,z,,,,,,0.672222245,0.487037037,0,0,0,,0,112,112,272,1,,
,,,,,,,,,,,,,,,,,,5d8da90433afc60017fae3d3,2020-08-10_18h20.41.126,lexical_decision_task_MP,2020.1.3,Win32,60,m,1,0.556745,,,,,,,,0.556745,1,,,,,,209,WORD,UN,33,monkey,SEARCH,m,,,,,,0.672222245,0.487037037,0,0,0,,0,113,113,148,1,,
,,,,,,,,,,,,,,,,,,5d8da90433afc60017fae3d3,2020-08-10_18h20.41.126,lexical_decision_task_MP,2020.1.3,Win32,60,m,1,0.51286,,,,,,,,0.51286,1,,,,,,2,WORD,UN,50,knight,BRIDGE,m,,,,,,0.672222245,0.487037037,0,0,0,,0,114,114,181,1,,
,,,,,,,,,,,,,,,,,,5d8da90433afc60017fae3d3,2020-08-10_18h20.41.126,lexical_decision_task_MP,2020.1.3,Win32,60,m,1,0.61036,,,,,,,,0.61036,1,,,,,,35,WORD,UN,50,vanish,SOCKET,m,,,,,,0.672222245,0.487037037,0,0,0,,0,115,115,214,1,,
,,,,,,,,,,,,,,,,,,5d8da90433afc60017fae3d3,2020-08-10_18h20.41.126,lexical_decision_task_MP,2020.1.3,Win32,60,m,1,0.444985,,,,,,,,0.444985,1,,,,,,229,WORD,UN,33,fringe,MOTHER,m,,,,,,0.672222245,0.487037037,0,0,0,,0,116,116,168,1,,
,,,,,,,,,,,,,,,,,,5d8da90433afc60017fae3d3,2020-08-10_18h20.41.126,lexical_decision_task_MP,2020.1.3,Win32,60,z,1,0.567535,,,,,,,,0.567535,1,,,,,,472,NW,UN,33,gorbie,CIGNEY,z,,,,,,0.672222245,0.487037037,0,0,0,,0,117,117,411,1,,
,,,,,,,,,,,,,,,,,,5d8da90433afc60017fae3d3,2020-08-10_18h20.41.126,lexical_decision_task_MP,2020.1.3,Win32,60,m,0,0.578805,,,,,,,,0.578805,0,,,,,,429,NW,UN,33,caroey,FUNTLE,z,,,,,,0.672222245,0.487037037,0,0,0,,0,118,118,368,1,,
,,,,,,,,,,,,,,,,,,5d8da90433afc60017fae3d3,2020-08-10_18h20.41.126,lexical_decision_task_MP,2020.1.3,Win32,60,z,1,0.77917,,,,,,,,0.77917,1,,,,,,464,NW,UN,33,whivex,CHAITE,z,,,,,,0.672222245,0.487037037,0,0,0,,0,119,119,403,1,,
,,,,,,,,,,,,,,,,,,5d8da90433afc60017fae3d3,2020-08-10_18h20.41.126,lexical_decision_task_MP,2020.1.3,Win32,60,z,1,0.63685,,,,,,,,0.63685,1,,,,,,363,NW,"ID",50,breali,BREALI,z,,,,,,0.672222245,0.487037037,0,0,0,space,0,120,120,302,1,10.712895,
,,,,,,,,,,,,,,,,,,5d8da90433afc60017fae3d3,2020-08-10_18h20.41.126,lexical_decision_task_MP,2020.1.3,Win32,60,m,1,0.68298,,,,,,,,0.68298,1,,,,,,51,WORD,UN,50,impose,HUNGRY,m,,,,,,0.672222245,0.487037037,0,0,0,,0,121,121,230,1,,
,,,,,,,,,,,,,,,,,,5d8da90433afc60017fae3d3,2020-08-10_18h20.41.126,lexical_decision_task_MP,2020.1.3,Win32,60,z,0,0.629495,,,,,,,,0.629495,0,,,,,,176,WORD,"ID",50,strife,STRIFE,m,,,,,,0.672222245,0.487037037,0,0,0,,0,122,122,115,1,,
,,,,,,,,,,,,,,,,,,5d8da90433afc60017fae3d3,2020-08-10_18h20.41.126,lexical_decision_task_MP,2020.1.3,Win32,60,m,1,0.55488,,,,,,,,0.55488,1,,,,,,172,WORD,"ID",50,patrol,PATROL,m,,,,,,0.672222245,0.487037037,0,0,0,,0,123,123,111,1,,
,,,,,,,,,,,,,,,,,,5d8da90433afc60017fae3d3,2020-08-10_18h20.41.126,lexical_decision_task_MP,2020.1.3,Win32,60,z,1,0.65135,,,,,,,,0.65135,1,,,,,,452,NW,UN,33,bolvis,SURDEN,z,,,,,,0.672222245,0.487037037,0,0,0,,0,124,124,391,1,,
,,,,,,,,,,,,,,,,,,5d8da90433afc60017fae3d3,2020-08-10_18h20.41.126,lexical_decision_task_MP,2020.1.3,Win32,60,m,1,0.587045,,,,,,,,0.587045,1,,,,,,105,WORD,"ID",33,number,NUMBER,m,,,,,,0.672222245,0.487037037,0,0,0,,0,125,125,44,1,,
,,,,,,,,,,,,,,,,,,5d8da90433afc60017fae3d3,2020-08-10_18h20.41.126,lexical_decision_task_MP,2020.1.3,Win32,60,m,1,0.61276,,,,,,,,0.61276,1,,,,,,62,WORD,"ID",33,region,REGION,m,,,,,,0.672222245,0.487037037,0,0,0,,0,126,126,1,1,,
,,,,,,,,,,,,,,,,,,5d8da90433afc60017fae3d3,2020-08-10_18h20.41.126,lexical_decision_task_MP,2020.1.3,Win32,60,z,1,0.56561,,,,,,,,0.56561,1,,,,,,330,NW,"ID",33,kensom,KENSOM,z,,,,,,0.672222245,0.487037037,0,0,0,,0,127,127,269,1,,
,,,,,,,,,,,,,,,,,,5d8da90433afc60017fae3d3,2020-08-10_18h20.41.126,lexical_decision_task_MP,2020.1.3,Win32,60,m,1,0.50649,,,,,,,,0.50649,1,,,,,,210,WORD,UN,33,infect,MONKEY,m,,,,,,0.672222245,0.487037037,0,0,0,,0,128,128,149,1,,
,,,,,,,,,,,,,,,,,,5d8da90433afc60017fae3d3,2020-08-10_18h20.41.126,lexical_decision_task_MP,2020.1.3,Win32,60,z,1,0.8125,,,,,,,,0.8125,1,,,,,,422,NW,UN,33,streld,ALCOUD,z,,,,,,0.672222245,0.487037037,0,0,0,,0,129,129,361,1,,
,,,,,,,,,,,,,,,,,,5d8da90433afc60017fae3d3,2020-08-10_18h20.41.126,lexical_decision_task_MP,2020.1.3,Win32,60,m,1,0.53589,,,,,,,,0.53589,1,,,,,,65,WORD,"ID",33,symbol,SYMBOL,m,,,,,,0.672222245,0.487037037,0,0,0,,0,130,130,4,1,,
,,,,,,,,,,,,,,,,,,5d8da90433afc60017fae3d3,2020-08-10_18h20.41.126,lexical_decision_task_MP,2020.1.3,Win32,60,m,1,0.512925,,,,,,,,0.512925,1,,,,,,170,WORD,"ID",50,pounce,POUNCE,m,,,,,,0.672222245,0.487037037,0,0,0,,0,131,131,109,1,,
,,,,,,,,,,,,,,,,,,5d8da90433afc60017fae3d3,2020-08-10_18h20.41.126,lexical_decision_task_MP,2020.1.3,Win32,60,z,1,0.70479,,,,,,,,0.70479,1,,,,,,417,NW,"ID",50,earoud,EAROUD,z,,,,,,0.672222245,0.487037037,0,0,0,,0,132,132,356,1,,
,,,,,,,,,,,,,,,,,,5d8da90433afc60017fae3d3,2020-08-10_18h20.41.126,lexical_decision_task_MP,2020.1.3,Win32,60,z,1,0.63352,,,,,,,,0.63352,1,,,,,,315,NW,"ID",33,laston,LASTON,z,,,,,,0.672222245,0.487037037,0,0,0,,0,133,133,254,1,,
,,,,,,,,,,,,,,,,,,5d8da90433afc60017fae3d3,2020-08-10_18h20.41.126,lexical_decision_task_MP,2020.1.3,Win32,60,m,1,0.584025,,,,,,,,0.584025,1,,,,,,202,WORD,UN,33,phrase,FACTOR,m,,,,,,0.672222245,0.487037037,0,0,0,,0,134,134,141,1,,
,,,,,,,,,,,,,,,,,,5d8da90433afc60017fae3d3,2020-08-10_18h20.41.126,lexical_decision_task_MP,2020.1.3,Win32,60,m,1,0.517705,,,,,,,,0.517705,1,,,,,,135,WORD,"ID",50,import,IMPORT,m,,,,,,0.672222245,0.487037037,0,0,0,,0,135,135,74,1,,
,,,,,,,,,,,,,,,,,,5d8da90433afc60017fae3d3,2020-08-10_18h20.41.126,lexical_decision_task_MP,2020.1.3,Win32,60,z,1,0.539315,,,,,,,,0.539315,1,,,,,,376,NW,"ID",50,iguare,IGUARE,z,,,,,,0.672222245,0.487037037,0,0,0,,0,136,136,315,1,,
,,,,,,,,,,,,,,,,,,5d8da90433afc60017fae3d3,2020-08-10_18h20.41.126,lexical_decision_task_MP,2020.1.3,Win32,60,z,1,0.53101,,,,,,,,0.53101,1,,,,,,308,NW,"ID",33,psetch,PSETCH,z,,,,,,0.672222245,0.487037037,0,0,0,,0,137,137,247,1,,
,,,,,,,,,,,,,,,,,,5d8da90433afc60017fae3d3,2020-08-10_18h20.41.126,lexical_decision_task_MP,2020.1.3,Win32,60,m,0,0.51532,,,,,,,,0.51532,0,,,,,,326,NW,"ID",33,iguade,IGUADE,z,,,,,,0.672222245,0.487037037,0,0,0,,0,138,138,265,1,,
,,,,,,,,,,,,,,,,,,5d8da90433afc60017fae3d3,2020-08-10_18h20.41.126,lexical_decision_task_MP,2020.1.3,Win32,60,z,1,0.695765,,,,,,,,0.695765,1,,,,,,471,NW,UN,33,cigney,NOBEST,z,,,,,,0.672222245,0.487037037,0,0,0,,0,139,139,410,1,,
,,,,,,,,,,,,,,,,,,5d8da90433afc60017fae3d3,2020-08-10_18h20.41.126,lexical_decision_task_MP,2020.1.3,Win32,60,z,1,0.63128,,,,,,,,0.63128,1,,,,,,341,NW,"ID",33,myrtie,MYRTIE,z,,,,,,0.672222245,0.487037037,0,0,0,,0,140,140,280,1,,
,,,,,,,,,,,,,,,,,,5d8da90433afc60017fae3d3,2020-08-10_18h20.41.126,lexical_decision_task_MP,2020.1.3,Win32,60,z,1,0.834745,,,,,,,,0.834745,1,,,,,,460,NW,UN,33,justre,MINGAR,z,,,,,,0.672222245,0.487037037,0,0,0,,0,141,141,399,1,,
,,,,,,,,,,,,,,,,,,5d8da90433afc60017fae3d3,2020-08-10_18h20.41.126,lexical_decision_task_MP,2020.1.3,Win32,60,z,1,0.574025,,,,,,,,0.574025,1,,,,,,380,NW,"ID",50,cavory,CAVORY,z,,,,,,0.672222245,0.487037037,0,0,0,,0,142,142,319,1,,
,,,,,,,,,,,,,,,,,,5d8da90433afc60017fae3d3,2020-08-10_18h20.41.126,lexical_decision_task_MP,2020.1.3,Win32,60,z,1,0.49505,,,,,,,,0.49505,1,,,,,,350,NW,"ID",33,nagurs,NAGURS,z,,,,,,0.672222245,0.487037037,0,0,0,,0,143,143,289,1,,
,,,,,,,,,,,,,,,,,,5d8da90433afc60017fae3d3,2020-08-10_18h20.41.126,lexical_decision_task_MP,2020.1.3,Win32,60,m,1,0.54564,,,,,,,,0.54564,1,,,,,,122,WORD,"ID",50,linger,LINGER,m,,,,,,0.672222245,0.487037037,0,0,0,,0,144,144,61,1,,
,,,,,,,,,,,,,,,,,,5d8da90433afc60017fae3d3,2020-08-10_18h20.41.126,lexical_decision_task_MP,2020.1.3,Win32,60,z,1,0.63077,,,,,,,,0.63077,1,,,,,,267,NW,UN,50,packes,PASINK,z,,,,,,0.672222245,0.487037037,0,0,0,,0,145,145,446,1,,
,,,,,,,,,,,,,,,,,,5d8da90433afc60017fae3d3,2020-08-10_18h20.41.126,lexical_decision_task_MP,2020.1.3,Win32,60,m,1,0.645475,,,,,,,,0.645475,1,,,,,,98,WORD,"ID",33,belong,BELONG,m,,,,,,0.672222245,0.487037037,0,0,0,,0,146,146,37,1,,
,,,,,,,,,,,,,,,,,,5d8da90433afc60017fae3d3,2020-08-10_18h20.41.126,lexical_decision_task_MP,2020.1.3,Win32,60,z,1,0.504625,,,,,,,,0.504625,1,,,,,,420,NW,"ID",50,gushop,GUSHOP,z,,,,,,0.672222245,0.487037037,0,0,0,,0,147,147,359,1,,
,,,,,,,,,,,,,,,,,,5d8da90433afc60017fae3d3,2020-08-10_18h20.41.126,lexical_decision_task_MP,2020.1.3,Win32,60,m,1,0.58063,,,,,,,,0.58063,1,,,,,,27,WORD,UN,50,comedy,SCREAM,m,,,,,,0.672222245,0.487037037,0,0,0,,0,148,148,206,1,,
,,,,,,,,,,,,,,,,,,5d8da90433afc60017fae3d3,2020-08-10_18h20.41.126,lexical_decision_task_MP,2020.1.3,Win32,60,m,1,0.771205,,,,,,,,0.771205,1,,,,,,136,WORD,"ID",50,bleach,BLEACH,m,,,,,,0.672222245,0.487037037,0,0,0,,0,149,149,75,1,,
,,,,,,,,,,,,,,,,,,5d8da90433afc60017fae3d3,2020-08-10_18h20.41.126,lexical_decision_task_MP,2020.1.3,Win32,60,z,1,0.65148,,,,,,,,0.65148,1,,,,,,399,NW,"ID",50,fouret,FOURET,z,,,,,,0.672222245,0.487037037,0,0,0,,0,150,150,338,1,,
,,,,,,,,,,,,,,,,,,5d8da90433afc60017fae3d3,2020-08-10_18h20.41.126,lexical_decision_task_MP,2020.1.3,Win32,60,z,1,0.51755,,,,,,,,0.51755,1,,,,,,480,NW,UN,33,knisma,ROBULY,z,,,,,,0.672222245,0.487037037,0,0,0,,0,151,151,419,1,,
,,,,,,,,,,,,,,,,,,5d8da90433afc60017fae3d3,2020-08-10_18h20.41.126,lexical_decision_task_MP,2020.1.3,Win32,60,z,1,0.519035,,,,,,,,0.519035,1,,,,,,256,NW,UN,50,veniod,INLORS,z,,,,,,0.672222245,0.487037037,0,0,0,,0,152,152,435,1,,
,,,,,,,,,,,,,,,,,,5d8da90433afc60017fae3d3,2020-08-10_18h20.41.126,lexical_decision_task_MP,2020.1.3,Win32,60,z,1,0.75476,,,,,,,,0.75476,1,,,,,,260,NW,UN,50,stunch,UNJECT,z,,,,,,0.672222245,0.487037037,0,0,0,,0,153,153,439,1,,
,,,,,,,,,,,,,,,,,,5d8da90433afc60017fae3d3,2020-08-10_18h20.41.126,lexical_decision_task_MP,2020.1.3,Win32,60,z,1,0.47996,,,,,,,,0.47996,1,,,,,,257,NW,UN,50,poluth,VENIOD,z,,,,,,0.672222245,0.487037037,0,0,0,,0,154,154,436,1,,
,,,,,,,,,,,,,,,,,,5d8da90433afc60017fae3d3,2020-08-10_18h20.41.126,lexical_decision_task_MP,2020.1.3,Win32,60,z,1,0.4674,,,,,,,,0.4674,1,,,,,,275,NW,UN,50,yarmon,SLEIRT,z,,,,,,0.672222245,0.487037037,0,0,0,,0,155,155,454,1,,
,,,,,,,,,,,,,,,,,,5d8da90433afc60017fae3d3,2020-08-10_18h20.41.126,lexical_decision_task_MP,2020.1.3,Win32,60,z,1,0.46251,,,,,,,,0.46251,1,,,,,,307,NW,"ID",33,kirafe,KIRAFE,z,,,,,,0.672222245,0.487037037,0,0,0,,0,156,156,246,1,,
,,,,,,,,,,,,,,,,,,5d8da90433afc60017fae3d3,2020-08-10_18h20.41.126,lexical_decision_task_MP,2020.1.3,Win32,60,z,1,0.763435,,,,,,,,0.763435,1,,,,,,319,NW,"ID",33,zomber,ZOMBER,z,,,,,,0.672222245,0.487037037,0,0,0,,0,157,157,258,1,,
,,,,,,,,,,,,,,,,,,5d8da90433afc60017fae3d3,2020-08-10_18h20.41.126,lexical_decision_task_MP,2020.1.3,Win32,60,m,1,0.56374,,,,,,,,0.56374,1,,,,,,120,WORD,"ID",33,strain,STRAIN,m,,,,,,0.672222245,0.487037037,0,0,0,,0,158,158,59,1,,
,,,,,,,,,,,,,,,,,,5d8da90433afc60017fae3d3,2020-08-10_18h20.41.126,lexical_decision_task_MP,2020.1.3,Win32,60,m,1,0.56236,,,,,,,,0.56236,1,,,,,,56,WORD,UN,50,change,AMBUSH,m,,,,,,0.672222245,0.487037037,0,0,0,,0,159,159,235,1,,
,,,,,,,,,,,,,,,,,,5d8da90433afc60017fae3d3,2020-08-10_18h20.41.126,lexical_decision_task_MP,2020.1.3,Win32,60,z,1,0.520295,,,,,,,,0.520295,1,,,,,,415,NW,"ID",50,higsta,HIGSTA,z,,,,,,0.672222245,0.487037037,0,0,0,,0,160,160,354,1,,
,,,,,,,,,,,,,,,,,,5d8da90433afc60017fae3d3,2020-08-10_18h20.41.126,lexical_decision_task_MP,2020.1.3,Win32,60,m,1,0.688475,,,,,,,,0.688475,1,,,,,,64,WORD,"ID",33,throne,THRONE,m,,,,,,0.672222245,0.487037037,0,0,0,,0,161,161,3,1,,
,,,,,,,,,,,,,,,,,,5d8da90433afc60017fae3d3,2020-08-10_18h20.41.126,lexical_decision_task_MP,2020.1.3,Win32,60,z,1,0.883475,,,,,,,,0.883475,1,,,,,,357,NW,"ID",33,derain,DERAIN,z,,,,,,0.672222245,0.487037037,0,0,0,,0,162,162,296,1,,
,,,,,,,,,,,,,,,,,,5d8da90433afc60017fae3d3,2020-08-10_18h20.41.126,lexical_decision_task_MP,2020.1.3,Win32,60,m,1,0.508085,,,,,,,,0.508085,1,,,,,,173,WORD,"ID",50,shower,SHOWER,m,,,,,,0.672222245,0.487037037,0,0,0,,0,163,163,112,1,,
,,,,,,,,,,,,,,,,,,5d8da90433afc60017fae3d3,2020-08-10_18h20.41.126,lexical_decision_task_MP,2020.1.3,Win32,60,z,1,0.82213,,,,,,,,0.82213,1,,,,,,377,NW,"ID",50,injore,INJORE,z,,,,,,0.672222245,0.487037037,0,0,0,,0,164,164,316,1,,
,,,,,,,,,,,,,,,,,,5d8da90433afc60017fae3d3,2020-08-10_18h20.41.126,lexical_decision_task_MP,2020.1.3,Win32,60,m,1,0.590815,,,,,,,,0.590815,1,,,,,,162,WORD,"ID",50,candle,CANDLE,m,,,,,,0.672222245,0.487037037,0,0,0,,0,165,165,101,1,,
,,,,,,,,,,,,,,,,,,5d8da90433afc60017fae3d3,2020-08-10_18h20.41.126,lexical_decision_task_MP,2020.1.3,Win32,60,m,1,0.64462,,,,,,,,0.64462,1,,,,,,29,WORD,UN,50,orient,SKETCH,m,,,,,,0.672222245,0.487037037,0,0,0,,0,166,166,208,1,,
,,,,,,,,,,,,,,,,,,5d8da90433afc60017fae3d3,2020-08-10_18h20.41.126,lexical_decision_task_MP,2020.1.3,Win32,60,z,1,0.639605,,,,,,,,0.639605,1,,,,,,320,NW,"ID",33,jockal,JOCKAL,z,,,,,,0.672222245,0.487037037,0,0,0,,0,167,167,259,1,,
,,,,,,,,,,,,,,,,,,5d8da90433afc60017fae3d3,2020-08-10_18h20.41.126,lexical_decision_task_MP,2020.1.3,Win32,60,z,1,0.538385,,,,,,,,0.538385,1,,,,,,283,NW,UN,50,shaple,VERALF,z,,,,,,0.672222245,0.487037037,0,0,0,,0,168,168,462,1,,
,,,,,,,,,,,,,,,,,,5d8da90433afc60017fae3d3,2020-08-10_18h20.41.126,lexical_decision_task_MP,2020.1.3,Win32,60,z,1,0.508105,,,,,,,,0.508105,1,,,,,,276,NW,UN,50,petain,YARMON,z,,,,,,0.672222245,0.487037037,0,0,0,,0,169,169,455,1,,
,,,,,,,,,,,,,,,,,,5d8da90433afc60017fae3d3,2020-08-10_18h20.41.126,lexical_decision_task_MP,2020.1.3,Win32,60,z,1,0.51324,,,,,,,,0.51324,1,,,,,,301,NW,"ID",33,fainch,FAINCH,z,,,,,,0.672222245,0.487037037,0,0,0,,0,170,170,240,1,,
,,,,,,,,,,,,,,,,,,5d8da90433afc60017fae3d3,2020-08-10_18h20.41.126,lexical_decision_task_MP,2020.1.3,Win32,60,m,1,0.561785,,,,,,,,0.561785,1,,,,,,211,WORD,UN,33,verify,INFECT,m,,,,,,0.672222245,0.487037037,0,0,0,,0,171,171,150,1,,
,,,,,,,,,,,,,,,,,,5d8da90433afc60017fae3d3,2020-08-10_18h20.41.126,lexical_decision_task_MP,2020.1.3,Win32,60,m,1,0.65501,,,,,,,,0.65501,1,,,,,,57,WORD,UN,50,danger,CHANGE,m,,,,,,0.672222245,0.487037037,0,0,0,,0,172,172,236,1,,
,,,,,,,,,,,,,,,,,,5d8da90433afc60017fae3d3,2020-08-10_18h20.41.126,lexical_decision_task_MP,2020.1.3,Win32,60,z,1,0.49747,,,,,,,,0.49747,1,,,,,,367,NW,"ID",50,slique,SLIQUE,z,,,,,,0.672222245,0.487037037,0,0,0,,0,173,173,306,1,,
,,,,,,,,,,,,,,,,,,5d8da90433afc60017fae3d3,2020-08-10_18h20.41.126,lexical_decision_task_MP,2020.1.3,Win32,60,z,1,0.60085,,,,,,,,0.60085,1,,,,,,375,NW,"ID",50,yorque,YORQUE,z,,,,,,0.672222245,0.487037037,0,0,0,,0,174,174,314,1,,
,,,,,,,,,,,,,,,,,,5d8da90433afc60017fae3d3,2020-08-10_18h20.41.126,lexical_decision_task_MP,2020.1.3,Win32,60,z,0,0.43706,,,,,,,,0.43706,0,,,,,,10,WORD,UN,50,cruise,ETHNIC,m,,,,,,0.672222245,0.487037037,0,0,0,,0,175,175,189,1,,
,,,,,,,,,,,,,,,,,,5d8da90433afc60017fae3d3,2020-08-10_18h20.41.126,lexical_decision_task_MP,2020.1.3,Win32,60,m,1,0.610865,,,,,,,,0.610865,1,,,,,,12,WORD,UN,50,strive,ORANGE,m,,,,,,0.672222245,0.487037037,0,0,0,,0,176,176,191,1,,
,,,,,,,,,,,,,,,,,,5d8da90433afc60017fae3d3,2020-08-10_18h20.41.126,lexical_decision_task_MP,2020.1.3,Win32,60,m,1,0.53422,,,,,,,,0.53422,1,,,,,,185,WORD,UN,33,portal,BOTHER,m,,,,,,0.672222245,0.487037037,0,0,0,,0,177,177,124,1,,
,,,,,,,,,,,,,,,,,,5d8da90433afc60017fae3d3,2020-08-10_18h20.41.126,lexical_decision_task_MP,2020.1.3,Win32,60,z,1,0.6446,,,,,,,,0.6446,1,,,,,,337,NW,"ID",33,rejols,REJOLS,z,,,,,,0.672222245,0.487037037,0,0,0,,0,178,178,276,1,,
,,,,,,,,,,,,,,,,,,5d8da90433afc60017fae3d3,2020-08-10_18h20.41.126,lexical_decision_task_MP,2020.1.3,Win32,60,z,1,0.689475,,,,,,,,0.689475,1,,,,,,431,NW,UN,33,lunker,CHRUMS,z,,,,,,0.672222245,0.487037037,0,0,0,,0,179,179,370,1,,
,,,,,,,,,,,,,,,,,,5d8da90433afc60017fae3d3,2020-08-10_18h20.41.126,lexical_decision_task_MP,2020.1.3,Win32,60,m,1,0.538285,,,,,,,,0.538285,1,,,,,,147,WORD,"ID",50,garlic,GARLIC,m,,,,,,0.672222245,0.487037037,0,0,0,,0,180,180,86,1,,
,,,,,,,,,,,,,,,,,,5d8da90433afc60017fae3d3,2020-08-10_18h20.41.126,lexical_decision_task_MP,2020.1.3,Win32,60,z,1,0.670845,,,,,,,,0.670845,1,,,,,,437,NW,UN,33,baitch,SNAPEL,z,,,,,,0.672222245,0.487037037,0,0,0,,0,181,181,376,1,,
,,,,,,,,,,,,,,,,,,5d8da90433afc60017fae3d3,2020-08-10_18h20.41.126,lexical_decision_task_MP,2020.1.3,Win32,60,z,1,0.634655,,,,,,,,0.634655,1,,,,,,334,NW,"ID",33,watmeg,WATMEG,z,,,,,,0.672222245,0.487037037,0,0,0,,0,182,182,273,1,,
,,,,,,,,,,,,,,,,,,5d8da90433afc60017fae3d3,2020-08-10_18h20.41.126,lexical_decision_task_MP,2020.1.3,Win32,60,z,1,0.501245,,,,,,,,0.501245,1,,,,,,263,NW,UN,50,vackel,DOLICA,z,,,,,,0.672222245,0.487037037,0,0,0,,0,183,183,442,1,,
,,,,,,,,,,,,,,,,,,5d8da90433afc60017fae3d3,2020-08-10_18h20.41.126,lexical_decision_task_MP,2020.1.3,Win32,60,z,1,0.56526,,,,,,,,0.56526,1,,,,,,259,NW,UN,50,unject,SOUDAL,z,,,,,,0.672222245,0.487037037,0,0,0,,0,184,184,438,1,,
,,,,,,,,,,,,,,,,,,5d8da90433afc60017fae3d3,2020-08-10_18h20.41.126,lexical_decision_task_MP,2020.1.3,Win32,60,m,1,0.470745,,,,,,,,0.470745,1,,,,,,138,WORD,"ID",50,melody,MELODY,m,,,,,,0.672222245,0.487037037,0,0,0,,0,185,185,77,1,,
,,,,,,,,,,,,,,,,,,5d8da90433afc60017fae3d3,2020-08-10_18h20.41.126,lexical_decision_task_MP,2020.1.3,Win32,60,z,1,0.746755,,,,,,,,0.746755,1,,,,,,359,NW,"ID",33,fonver,FONVER,z,,,,,,0.672222245,0.487037037,0,0,0,,0,186,186,298,1,,
,,,,,,,,,,,,,,,,,,5d8da90433afc60017fae3d3,2020-08-10_18h20.41.126,lexical_decision_task_MP,2020.1.3,Win32,60,m,1,0.716825,,,,,,,,0.716825,1,,,,,,110,WORD,"ID",33,polite,POLITE,m,,,,,,0.672222245,0.487037037,0,0,0,,0,187,187,49,1,,
,,,,,,,,,,,,,,,,,,5d8da90433afc60017fae3d3,2020-08-10_18h20.41.126,lexical_decision_task_MP,2020.1.3,Win32,60,m,1,0.540485,,,,,,,,0.540485,1,,,,,,160,WORD,"ID",50,violet,VIOLET,m,,,,,,0.672222245,0.487037037,0,0,0,,0,188,188,99,1,,
,,,,,,,,,,,,,,,,,,5d8da90433afc60017fae3d3,2020-08-10_18h20.41.126,lexical_decision_task_MP,2020.1.3,Win32,60,m,1,0.464715,,,,,,,,0.464715,1,,,,,,177,WORD,"ID",50,advent,ADVENT,m,,,,,,0.672222245,0.487037037,0,0,0,,0,189,189,116,1,,
,,,,,,,,,,,,,,,,,,5d8da90433afc60017fae3d3,2020-08-10_18h20.41.126,lexical_decision_task_MP,2020.1.3,Win32,60,m,1,0.541815,,,,,,,,0.541815,1,,,,,,52,WORD,UN,50,police,IMPOSE,m,,,,,,0.672222245,0.487037037,0,0,0,,0,190,190,231,1,,
,,,,,,,,,,,,,,,,,,5d8da90433afc60017fae3d3,2020-08-10_18h20.41.126,lexical_decision_task_MP,2020.1.3,Win32,60,z,1,0.895305,,,,,,,,0.895305,1,,,,,,310,NW,"ID",33,daniet,DANIET,z,,,,,,0.672222245,0.487037037,0,0,0,,0,191,191,249,1,,
,,,,,,,,,,,,,,,,,,5d8da90433afc60017fae3d3,2020-08-10_18h20.41.126,lexical_decision_task_MP,2020.1.3,Win32,60,m,1,0.99929,,,,,,,,0.99929,1,,,,,,59,WORD,UN,50,pencil,SPLINT,m,,,,,,0.672222245,0.487037037,0,0,0,,0,192,192,238,1,,
,,,,,,,,,,,,,,,,,,5d8da90433afc60017fae3d3,2020-08-10_18h20.41.126,lexical_decision_task_MP,2020.1.3,Win32,60,m,1,0.571705,,,,,,,,0.571705,1,,,,,,20,WORD,UN,50,simple,BREAST,m,,,,,,0.672222245,0.487037037,0,0,0,,0,193,193,199,1,,
,,,,,,,,,,,,,,,,,,5d8da90433afc60017fae3d3,2020-08-10_18h20.41.126,lexical_decision_task_MP,2020.1.3,Win32,60,z,1,0.604195,,,,,,,,0.604195,1,,,,,,421,NW,UN,33,alcoud,KNISMA,z,,,,,,0.672222245,0.487037037,0,0,0,,0,194,194,360,1,,
,,,,,,,,,,,,,,,,,,5d8da90433afc60017fae3d3,2020-08-10_18h20.41.126,lexical_decision_task_MP,2020.1.3,Win32,60,z,1,0.912055,,,,,,,,0.912055,1,,,,,,462,NW,UN,33,kispel,ABSULT,z,,,,,,0.672222245,0.487037037,0,0,0,,0,195,195,401,1,,
,,,,,,,,,,,,,,,,,,5d8da90433afc60017fae3d3,2020-08-10_18h20.41.126,lexical_decision_task_MP,2020.1.3,Win32,60,m,1,0.624965,,,,,,,,0.624965,1,,,,,,188,WORD,UN,33,censor,SOCIAL,m,,,,,,0.672222245,0.487037037,0,0,0,,0,196,196,127,1,,
,,,,,,,,,,,,,,,,,,5d8da90433afc60017fae3d3,2020-08-10_18h20.41.126,lexical_decision_task_MP,2020.1.3,Win32,60,z,1,0.698575,,,,,,,,0.698575,1,,,,,,344,NW,"ID",33,scrily,SCRILY,z,,,,,,0.672222245,0.487037037,0,0,0,,0,197,197,283,1,,
,,,,,,,,,,,,,,,,,,5d8da90433afc60017fae3d3,2020-08-10_18h20.41.126,lexical_decision_task_MP,2020.1.3,Win32,60,m,1,0.587985,,,,,,,,0.587985,1,,,,,,69,WORD,"ID",33,plenty,PLENTY,m,,,,,,0.672222245,0.487037037,0,0,0,,0,198,198,8,1,,
,,,,,,,,,,,,,,,,,,5d8da90433afc60017fae3d3,2020-08-10_18h20.41.126,lexical_decision_task_MP,2020.1.3,Win32,60,m,1,0.548655,,,,,,,,0.548655,1,,,,,,94,WORD,"ID",33,travel,TRAVEL,m,,,,,,0.672222245,0.487037037,0,0,0,,0,199,199,33,1,,
,,,,,,,,,,,,,,,,,,5d8da90433afc60017fae3d3,2020-08-10_18h20.41.126,lexical_decision_task_MP,2020.1.3,Win32,60,m,1,0.557695,,,,,,,,0.557695,1,,,,,,178,WORD,"ID",50,inform,INFORM,m,,,,,,0.672222245,0.487037037,0,0,0,,0,200,200,117,1,,
,,,,,,,,,,,,,,,,,,5d8da90433afc60017fae3d3,2020-08-10_18h20.41.126,lexical_decision_task_MP,2020.1.3,Win32,60,m,1,0.49606,,,,,,,,0.49606,1,,,,,,157,WORD,"ID",50,dragon,DRAGON,m,,,,,,0.672222245,0.487037037,0,0,0,,0,201,201,96,1,,
,,,,,,,,,,,,,,,,,,5d8da90433afc60017fae3d3,2020-08-10_18h20.41.126,lexical_decision_task_MP,2020.1.3,Win32,60,m,1,0.61229,,,,,,,,0.61229,1,,,,,,38,WORD,UN,50,insect,POWDER,m,,,,,,0.672222245,0.487037037,0,0,0,,0,202,202,217,1,,
,,,,,,,,,,,,,,,,,,5d8da90433afc60017fae3d3,2020-08-10_18h20.41.126,lexical_decision_task_MP,2020.1.3,Win32,60,m,1,0.50945,,,,,,,,0.50945,1,,,,,,134,WORD,"ID",50,staple,STAPLE,m,,,,,,0.672222245,0.487037037,0,0,0,,0,203,203,73,1,,
,,,,,,,,,,,,,,,,,,5d8da90433afc60017fae3d3,2020-08-10_18h20.41.126,lexical_decision_task_MP,2020.1.3,Win32,60,m,1,0.49561,,,,,,,,0.49561,1,,,,,,240,WORD,UN,33,seldom,FOREST,m,,,,,,0.672222245,0.487037037,0,0,0,,0,204,204,179,1,,
,,,,,,,,,,,,,,,,,,5d8da90433afc60017fae3d3,2020-08-10_18h20.41.126,lexical_decision_task_MP,2020.1.3,Win32,60,z,1,0.77942,,,,,,,,0.77942,1,,,,,,356,NW,"ID",33,othnis,OTHNIS,z,,,,,,0.672222245,0.487037037,0,0,0,,0,205,205,295,1,,
,,,,,,,,,,,,,,,,,,5d8da90433afc60017fae3d3,2020-08-10_18h20.41.126,lexical_decision_task_MP,2020.1.3,Win32,60,z,1,0.824125,,,,,,,,0.824125,1,,,,,,272,NW,UN,50,sortel,DAMILT,z,,,,,,0.672222245,0.487037037,0,0,0,,0,206,206,451,1,,
,,,,,,,,,,,,,,,,,,5d8da90433afc60017fae3d3,2020-08-10_18h20.41.126,lexical_decision_task_MP,2020.1.3,Win32,60,m,1,0.74018,,,,,,,,0.74018,1,,,,,,4,WORD,UN,50,plunge,TRENCH,m,,,,,,0.672222245,0.487037037,0,0,0,,0,207,207,183,1,,
,,,,,,,,,,,,,,,,,,5d8da90433afc60017fae3d3,2020-08-10_18h20.41.126,lexical_decision_task_MP,2020.1.3,Win32,60,m,1,0.672085,,,,,,,,0.672085,1,,,,,,108,WORD,"ID",33,reckon,RECKON,m,,,,,,0.672222245,0.487037037,0,0,0,,0,208,208,47,1,,
,,,,,,,,,,,,,,,,,,5d8da90433afc60017fae3d3,2020-08-10_18h20.41.126,lexical_decision_task_MP,2020.1.3,Win32,60,z,1,0.589195,,,,,,,,0.589195,1,,,,,,465,NW,UN,33,bafent,WHIVEX,z,,,,,,0.672222245,0.487037037,0,0,0,,0,209,209,404,1,,
,,,,,,,,,,,,,,,,,,5d8da90433afc60017fae3d3,2020-08-10_18h20.41.126,lexical_decision_task_MP,2020.1.3,Win32,60,z,1,0.795645,,,,,,,,0.795645,1,,,,,,286,NW,UN,50,nymbel,RELDON,z,,,,,,0.672222245,0.487037037,0,0,0,,0,210,210,465,1,,
,,,,,,,,,,,,,,,,,,5d8da90433afc60017fae3d3,2020-08-10_18h20.41.126,lexical_decision_task_MP,2020.1.3,Win32,60,m,1,0.644365,,,,,,,,0.644365,1,,,,,,195,WORD,UN,33,credit,RESIGN,m,,,,,,0.672222245,0.487037037,0,0,0,,0,211,211,134,1,,
,,,,,,,,,,,,,,,,,,5d8da90433afc60017fae3d3,2020-08-10_18h20.41.126,lexical_decision_task_MP,2020.1.3,Win32,60,m,1,0.595785,,,,,,,,0.595785,1,,,,,,232,WORD,UN,33,nature,INJECT,m,,,,,,0.672222245,0.487037037,0,0,0,,0,212,212,171,1,,
,,,,,,,,,,,,,,,,,,5d8da90433afc60017fae3d3,2020-08-10_18h20.41.126,lexical_decision_task_MP,2020.1.3,Win32,60,m,1,0.472655,,,,,,,,0.472655,1,,,,,,174,WORD,"ID",50,turkey,TURKEY,m,,,,,,0.672222245,0.487037037,0,0,0,,0,213,213,113,1,,
,,,,,,,,,,,,,,,,,,5d8da90433afc60017fae3d3,2020-08-10_18h20.41.126,lexical_decision_task_MP,2020.1.3,Win32,60,z,1,0.71248,,,,,,,,0.71248,1,,,,,,318,NW,"ID",33,reagly,REAGLY,z,,,,,,0.672222245,0.487037037,0,0,0,,0,214,214,257,1,,
,,,,,,,,,,,,,,,,,,5d8da90433afc60017fae3d3,2020-08-10_18h20.41.126,lexical_decision_task_MP,2020.1.3,Win32,60,z,1,0.67368,,,,,,,,0.67368,1,,,,,,253,NW,UN,50,varosh,RESAIT,z,,,,,,0.672222245,0.487037037,0,0,0,,0,215,215,432,1,,
,,,,,,,,,,,,,,,,,,5d8da90433afc60017fae3d3,2020-08-10_18h20.41.126,lexical_decision_task_MP,2020.1.3,Win32,60,m,1,0.63493,,,,,,,,0.63493,1,,,,,,121,WORD,"ID",50,thrive,THRIVE,m,,,,,,0.672222245,0.487037037,0,0,0,,0,216,216,60,1,,
,,,,,,,,,,,,,,,,,,5d8da90433afc60017fae3d3,2020-08-10_18h20.41.126,lexical_decision_task_MP,2020.1.3,Win32,60,m,1,0.55075,,,,,,,,0.55075,1,,,,,,166,WORD,"ID",50,starch,STARCH,m,,,,,,0.672222245,0.487037037,0,0,0,,0,217,217,105,1,,
,,,,,,,,,,,,,,,,,,5d8da90433afc60017fae3d3,2020-08-10_18h20.41.126,lexical_decision_task_MP,2020.1.3,Win32,60,z,1,1.145525,,,,,,,,1.145525,1,,,,,,285,NW,UN,50,reldon,PRUDGE,z,,,,,,0.672222245,0.487037037,0,0,0,,0,218,218,464,1,,
,,,,,,,,,,,,,,,,,,5d8da90433afc60017fae3d3,2020-08-10_18h20.41.126,lexical_decision_task_MP,2020.1.3,Win32,60,m,1,0.678815,,,,,,,,0.678815,1,,,,,,45,WORD,UN,50,single,CLERGY,m,,,,,,0.672222245,0.487037037,0,0,0,,0,219,219,224,1,,
,,,,,,,,,,,,,,,,,,5d8da90433afc60017fae3d3,2020-08-10_18h20.41.126,lexical_decision_task_MP,2020.1.3,Win32,60,m,1,0.51416,,,,,,,,0.51416,1,,,,,,133,WORD,"ID",50,chrome,CHROME,m,,,,,,0.672222245,0.487037037,0,0,0,,0,220,220,72,1,,
,,,,,,,,,,,,,,,,,,5d8da90433afc60017fae3d3,2020-08-10_18h20.41.126,lexical_decision_task_MP,2020.1.3,Win32,60,m,1,0.539745,,,,,,,,0.539745,1,,,,,,225,WORD,UN,33,casino,VULGAR,m,,,,,,0.672222245,0.487037037,0,0,0,,0,221,221,164,1,,
,,,,,,,,,,,,,,,,,,5d8da90433afc60017fae3d3,2020-08-10_18h20.41.126,lexical_decision_task_MP,2020.1.3,Win32,60,z,1,0.603955,,,,,,,,0.603955,1,,,,,,258,NW,UN,50,soudal,POLUTH,z,,,,,,0.672222245,0.487037037,0,0,0,,0,222,222,437,1,,
,,,,,,,,,,,,,,,,,,5d8da90433afc60017fae3d3,2020-08-10_18h20.41.126,lexical_decision_task_MP,2020.1.3,Win32,60,z,1,0.739175,,,,,,,,0.739175,1,,,,,,418,NW,"ID",50,suidle,SUIDLE,z,,,,,,0.672222245,0.487037037,0,0,0,,0,223,223,357,1,,
,,,,,,,,,,,,,,,,,,5d8da90433afc60017fae3d3,2020-08-10_18h20.41.126,lexical_decision_task_MP,2020.1.3,Win32,60,m,1,0.65679,,,,,,,,0.65679,1,,,,,,84,WORD,"ID",33,mortal,MORTAL,m,,,,,,0.672222245,0.487037037,0,0,0,,0,224,224,23,1,,
,,,,,,,,,,,,,,,,,,5d8da90433afc60017fae3d3,2020-08-10_18h20.41.126,lexical_decision_task_MP,2020.1.3,Win32,60,z,1,0.715205,,,,,,,,0.715205,1,,,,,,297,NW,UN,50,piergy,FERTIC,z,,,,,,0.672222245,0.487037037,0,0,0,,0,225,225,476,1,,
,,,,,,,,,,,,,,,,,,5d8da90433afc60017fae3d3,2020-08-10_18h20.41.126,lexical_decision_task_MP,2020.1.3,Win32,60,m,1,0.6736,,,,,,,,0.6736,1,,,,,,96,WORD,"ID",33,ignore,IGNORE,m,,,,,,0.672222245,0.487037037,0,0,0,,0,226,226,35,1,,
,,,,,,,,,,,,,,,,,,5d8da90433afc60017fae3d3,2020-08-10_18h20.41.126,lexical_decision_task_MP,2020.1.3,Win32,60,z,1,0.652215,,,,,,,,0.652215,1,,,,,,397,NW,"ID",50,camble,CAMBLE,z,,,,,,0.672222245,0.487037037,0,0,0,,0,227,227,336,1,,
,,,,,,,,,,,,,,,,,,5d8da90433afc60017fae3d3,2020-08-10_18h20.41.126,lexical_decision_task_MP,2020.1.3,Win32,60,z,1,0.71451,,,,,,,,0.71451,1,,,,,,247,NW,UN,50,strole,BLARGE,z,,,,,,0.672222245,0.487037037,0,0,0,,0,228,228,426,1,,
,,,,,,,,,,,,,,,,,,5d8da90433afc60017fae3d3,2020-08-10_18h20.41.126,lexical_decision_task_MP,2020.1.3,Win32,60,z,1,0.558065,,,,,,,,0.558065,1,,,,,,383,NW,"ID",50,aungre,AUNGRE,z,,,,,,0.672222245,0.487037037,0,0,0,,0,229,229,322,1,,
,,,,,,,,,,,,,,,,,,5d8da90433afc60017fae3d3,2020-08-10_18h20.41.126,lexical_decision_task_MP,2020.1.3,Win32,60,m,1,0.686075,,,,,,,,0.686075,1,,,,,,97,WORD,"ID",33,client,CLIENT,m,,,,,,0.672222245,0.487037037,0,0,0,,0,230,230,36,1,,
,,,,,,,,,,,,,,,,,,5d8da90433afc60017fae3d3,2020-08-10_18h20.41.126,lexical_decision_task_MP,2020.1.3,Win32,60,z,1,0.603375,,,,,,,,0.603375,1,,,,,,339,NW,"ID",33,fachow,FACHOW,z,,,,,,0.672222245,0.487037037,0,0,0,,0,231,231,278,1,,
,,,,,,,,,,,,,,,,,,5d8da90433afc60017fae3d3,2020-08-10_18h20.41.126,lexical_decision_task_MP,2020.1.3,Win32,60,m,1,0.63132,,,,,,,,0.63132,1,,,,,,142,WORD,"ID",50,spruce,SPRUCE,m,,,,,,0.672222245,0.487037037,0,0,0,,0,232,232,81,1,,
,,,,,,,,,,,,,,,,,,5d8da90433afc60017fae3d3,2020-08-10_18h20.41.126,lexical_decision_task_MP,2020.1.3,Win32,60,z,1,0.67996,,,,,,,,0.67996,1,,,,,,425,NW,UN,33,urivel,FRUDGE,z,,,,,,0.672222245,0.487037037,0,0,0,,0,233,233,364,1,,
,,,,,,,,,,,,,,,,,,5d8da90433afc60017fae3d3,2020-08-10_18h20.41.126,lexical_decision_task_MP,2020.1.3,Win32,60,z,1,0.504985,,,,,,,,0.504985,1,,,,,,362,NW,"ID",50,tireau,TIREAU,z,,,,,,0.672222245,0.487037037,0,0,0,,0,234,234,301,1,,
,,,,,,,,,,,,,,,,,,5d8da90433afc60017fae3d3,2020-08-10_18h20.41.126,lexical_decision_task_MP,2020.1.3,Win32,60,z,1,0.540145,,,,,,,,0.540145,1,,,,,,387,NW,"ID",50,gronce,GRONCE,z,,,,,,0.672222245,0.487037037,0,0,0,,0,235,235,326,1,,
,,,,,,,,,,,,,,,,,,5d8da90433afc60017fae3d3,2020-08-10_18h20.41.126,lexical_decision_task_MP,2020.1.3,Win32,60,z,1,0.48473,,,,,,,,0.48473,1,,,,,,366,NW,"ID",50,toshel,TOSHEL,z,,,,,,0.672222245,0.487037037,0,0,0,,0,236,236,305,1,,
,,,,,,,,,,,,,,,,,,5d8da90433afc60017fae3d3,2020-08-10_18h20.41.126,lexical_decision_task_MP,2020.1.3,Win32,60,z,1,0.55081,,,,,,,,0.55081,1,,,,,,313,NW,"ID",33,paurse,PAURSE,z,,,,,,0.672222245,0.487037037,0,0,0,,0,237,237,252,1,,
,,,,,,,,,,,,,,,,,,5d8da90433afc60017fae3d3,2020-08-10_18h20.41.126,lexical_decision_task_MP,2020.1.3,Win32,60,m,1,0.645645,,,,,,,,0.645645,1,,,,,,222,WORD,UN,33,export,HINDER,m,,,,,,0.672222245,0.487037037,0,0,0,,0,238,238,161,1,,
,,,,,,,,,,,,,,,,,,5d8da90433afc60017fae3d3,2020-08-10_18h20.41.126,lexical_decision_task_MP,2020.1.3,Win32,60,m,1,0.82472,,,,,,,,0.82472,1,,,,,,77,WORD,"ID",33,racket,RACKET,m,,,,,,0.672222245,0.487037037,0,0,0,,0,239,239,16,1,,
,,,,,,,,,,,,,,,,,,5d8da90433afc60017fae3d3,2020-08-10_18h20.41.126,lexical_decision_task_MP,2020.1.3,Win32,60,m,1,0.56715,,,,,,,,0.56715,1,,,,,,55,WORD,UN,50,ambush,STROKE,m,,,,,,0.672222245,0.487037037,0,0,0,,0,240,240,234,1,,
,,,,,,,,,,,,,,,,,,5d8da90433afc60017fae3d3,2020-08-10_18h20.41.126,lexical_decision_task_MP,2020.1.3,Win32,60,m,1,0.633365,,,,,,,,0.633365,1,,,,,,116,WORD,"ID",33,tumble,TUMBLE,m,,,,,,-0.038888861,-0.393518519,1,0,0,,0,241,241,55,1,,break_done_button
,,,,,,,,,,,,,,,,,,5d8da90433afc60017fae3d3,2020-08-10_18h20.41.126,lexical_decision_task_MP,2020.1.3,Win32,60,m,1,1.8035,,,,,,,,1.8035,1,,,,,,87,WORD,"ID",33,filter,FILTER,m,,,,,,-0.038888861,-0.391666695,0,0,0,,0,242,242,26,1,,
,,,,,,,,,,,,,,,,,,5d8da90433afc60017fae3d3,2020-08-10_18h20.41.126,lexical_decision_task_MP,2020.1.3,Win32,60,m,1,0.815095,,,,,,,,0.815095,1,,,,,,144,WORD,"ID",50,sponge,SPONGE,m,,,,,,-0.038888861,-0.391666695,0,0,0,,0,243,243,83,1,,
,,,,,,,,,,,,,,,,,,5d8da90433afc60017fae3d3,2020-08-10_18h20.41.126,lexical_decision_task_MP,2020.1.3,Win32,60,z,1,0.813835,,,,,,,,0.813835,1,,,,,,299,NW,UN,50,yarion,STURCH,z,,,,,,-0.038888861,-0.391666695,0,0,0,,0,244,244,478,1,,
,,,,,,,,,,,,,,,,,,5d8da90433afc60017fae3d3,2020-08-10_18h20.41.126,lexical_decision_task_MP,2020.1.3,Win32,60,z,1,0.71393,,,,,,,,0.71393,1,,,,,,457,NW,UN,33,barcet,WANIGH,z,,,,,,-0.038888861,-0.391666695,0,0,0,,0,245,245,396,1,,
,,,,,,,,,,,,,,,,,,5d8da90433afc60017fae3d3,2020-08-10_18h20.41.126,lexical_decision_task_MP,2020.1.3,Win32,60,m,1,0.640355,,,,,,,,0.640355,1,,,,,,218,WORD,UN,33,bucket,SHRINK,m,,,,,,-0.038888861,-0.391666695,0,0,0,,0,246,246,157,1,,
,,,,,,,,,,,,,,,,,,5d8da90433afc60017fae3d3,2020-08-10_18h20.41.126,lexical_decision_task_MP,2020.1.3,Win32,60,m,1,0.79052,,,,,,,,0.79052,1,,,,,,22,WORD,UN,50,wealth,JOCKEY,m,,,,,,-0.038888861,-0.391666695,0,0,0,,0,247,247,201,1,,
,,,,,,,,,,,,,,,,,,5d8da90433afc60017fae3d3,2020-08-10_18h20.41.126,lexical_decision_task_MP,2020.1.3,Win32,60,z,1,0.62363,,,,,,,,0.62363,1,,,,,,448,NW,UN,33,brunge,SADENT,z,,,,,,-0.038888861,-0.391666695,0,0,0,,0,248,248,387,1,,
,,,,,,,,,,,,,,,,,,5d8da90433afc60017fae3d3,2020-08-10_18h20.41.126,lexical_decision_task_MP,2020.1.3,Win32,60,z,1,0.700185,,,,,,,,0.700185,1,,,,,,393,NW,"ID",50,ganous,GANOUS,z,,,,,,-0.038888861,-0.391666695,0,0,0,,0,249,249,332,1,,
,,,,,,,,,,,,,,,,,,5d8da90433afc60017fae3d3,2020-08-10_18h20.41.126,lexical_decision_task_MP,2020.1.3,Win32,60,z,1,0.527135,,,,,,,,0.527135,1,,,,,,412,NW,"ID",50,jiluer,JILUER,z,,,,,,-0.038888861,-0.391666695,0,0,0,,0,250,250,351,1,,
,,,,,,,,,,,,,,,,,,5d8da90433afc60017fae3d3,2020-08-10_18h20.41.126,lexical_decision_task_MP,2020.1.3,Win32,60,z,1,0.582315,,,,,,,,0.582315,1,,,,,,459,NW,UN,33,mingar,BAFENT,z,,,,,,-0.038888861,-0.391666695,0,0,0,,0,251,251,398,1,,
,,,,,,,,,,,,,,,,,,5d8da90433afc60017fae3d3,2020-08-10_18h20.41.126,lexical_decision_task_MP,2020.1.3,Win32,60,z,1,0.76475,,,,,,,,0.76475,1,,,,,,378,NW,"ID",50,shrile,SHRILE,z,,,,,,-0.038888861,-0.391666695,0,0,0,,0,252,252,317,1,,
,,,,,,,,,,,,,,,,,,5d8da90433afc60017fae3d3,2020-08-10_18h20.41.126,lexical_decision_task_MP,2020.1.3,Win32,60,m,1,0.65584,,,,,,,,0.65584,1,,,,,,89,WORD,"ID",33,permit,PERMIT,m,,,,,,-0.038888861,-0.391666695,0,0,0,,0,253,253,28,1,,
,,,,,,,,,,,,,,,,,,5d8da90433afc60017fae3d3,2020-08-10_18h20.41.126,lexical_decision_task_MP,2020.1.3,Win32,60,z,1,0.762015,,,,,,,,0.762015,1,,,,,,433,NW,UN,33,pitrom,DRANCE,z,,,,,,-0.038888861,-0.391666695,0,0,0,,0,254,254,372,1,,
,,,,,,,,,,,,,,,,,,5d8da90433afc60017fae3d3,2020-08-10_18h20.41.126,lexical_decision_task_MP,2020.1.3,Win32,60,m,1,0.562585,,,,,,,,0.562585,1,,,,,,107,WORD,"ID",33,slogan,SLOGAN,m,,,,,,-0.038888861,-0.391666695,0,0,0,,0,255,255,46,1,,
,,,,,,,,,,,,,,,,,,5d8da90433afc60017fae3d3,2020-08-10_18h20.41.126,lexical_decision_task_MP,2020.1.3,Win32,60,z,1,0.823595,,,,,,,,0.823595,1,,,,,,432,NW,UN,33,drance,LUNKER,z,,,,,,-0.038888861,-0.391666695,0,0,0,,0,256,256,371,1,,
,,,,,,,,,,,,,,,,,,5d8da90433afc60017fae3d3,2020-08-10_18h20.41.126,lexical_decision_task_MP,2020.1.3,Win32,60,m,1,0.528525,,,,,,,,0.528525,1,,,,,,80,WORD,"ID",33,family,FAMILY,m,,,,,,-0.038888861,-0.391666695,0,0,0,,0,257,257,19,1,,
,,,,,,,,,,,,,,,,,,5d8da90433afc60017fae3d3,2020-08-10_18h20.41.126,lexical_decision_task_MP,2020.1.3,Win32,60,z,1,0.607545,,,,,,,,0.607545,1,,,,,,478,NW,UN,33,pebric,ACRISE,z,,,,,,-0.038888861,-0.391666695,0,0,0,,0,258,258,417,1,,
,,,,,,,,,,,,,,,,,,5d8da90433afc60017fae3d3,2020-08-10_18h20.41.126,lexical_decision_task_MP,2020.1.3,Win32,60,m,1,0.949525,,,,,,,,0.949525,1,,,,,,79,WORD,"ID",33,theory,THEORY,m,,,,,,-0.038888861,-0.391666695,0,0,0,,0,259,259,18,1,,
,,,,,,,,,,,,,,,,,,5d8da90433afc60017fae3d3,2020-08-10_18h20.41.126,lexical_decision_task_MP,2020.1.3,Win32,60,z,1,0.62849,,,,,,,,0.62849,1,,,,,,264,NW,UN,50,distar,VACKEL,z,,,,,,-0.038888861,-0.391666695,0,0,0,,0,260,260,443,1,,
,,,,,,,,,,,,,,,,,,5d8da90433afc60017fae3d3,2020-08-10_18h20.41.126,lexical_decision_task_MP,2020.1.3,Win32,60,z,1,0.81206,,,,,,,,0.81206,1,,,,,,439,NW,UN,33,saride,LIMPOR,z,,,,,,-0.038888861,-0.391666695,0,0,0,,0,261,261,378,1,,
,,,,,,,,,,,,,,,,,,5d8da90433afc60017fae3d3,2020-08-10_18h20.41.126,lexical_decision_task_MP,2020.1.3,Win32,60,z,1,0.787885,,,,,,,,0.787885,1,,,,,,278,NW,UN,50,celond,UNIGHS,z,,,,,,-0.038888861,-0.391666695,0,0,0,,0,262,262,457,1,,
,,,,,,,,,,,,,,,,,,5d8da90433afc60017fae3d3,2020-08-10_18h20.41.126,lexical_decision_task_MP,2020.1.3,Win32,60,z,0,0.718005,,,,,,,,0.718005,0,,,,,,212,WORD,UN,33,squeal,VERIFY,m,,,,,,-0.038888861,-0.391666695,0,0,0,,0,263,263,151,1,,
,,,,,,,,,,,,,,,,,,5d8da90433afc60017fae3d3,2020-08-10_18h20.41.126,lexical_decision_task_MP,2020.1.3,Win32,60,m,1,0.513245,,,,,,,,0.513245,1,,,,,,39,WORD,UN,50,convey,INSECT,m,,,,,,-0.038888861,-0.391666695,0,0,0,,0,264,264,218,1,,
,,,,,,,,,,,,,,,,,,5d8da90433afc60017fae3d3,2020-08-10_18h20.41.126,lexical_decision_task_MP,2020.1.3,Win32,60,z,1,0.924875,,,,,,,,0.924875,1,,,,,,248,NW,UN,50,batrol,STROLE,z,,,,,,-0.038888861,-0.391666695,0,0,0,,0,265,265,427,1,,
,,,,,,,,,,,,,,,,,,5d8da90433afc60017fae3d3,2020-08-10_18h20.41.126,lexical_decision_task_MP,2020.1.3,Win32,60,z,1,0.77052,,,,,,,,0.77052,1,,,,,,427,NW,UN,33,tandly,SCHIND,z,,,,,,-0.038888861,-0.391666695,0,0,0,,0,266,266,366,1,,
,,,,,,,,,,,,,,,,,,5d8da90433afc60017fae3d3,2020-08-10_18h20.41.126,lexical_decision_task_MP,2020.1.3,Win32,60,z,1,0.886925,,,,,,,,0.886925,1,,,,,,426,NW,UN,33,schind,URIVEL,z,,,,,,-0.038888861,-0.391666695,0,0,0,,0,267,267,365,1,,
,,,,,,,,,,,,,,,,,,5d8da90433afc60017fae3d3,2020-08-10_18h20.41.126,lexical_decision_task_MP,2020.1.3,Win32,60,z,1,0.534905,,,,,,,,0.534905,1,,,,,,351,NW,"ID",33,tiesch,TIESCH,z,,,,,,-0.038888861,-0.391666695,0,0,0,,0,268,268,290,1,,
,,,,,,,,,,,,,,,,,,5d8da90433afc60017fae3d3,2020-08-10_18h20.41.126,lexical_decision_task_MP,2020.1.3,Win32,60,m,1,0.63604,,,,,,,,0.63604,1,,,,,,58,WORD,UN,50,splint,FOSTER,m,,,,,,-0.038888861,-0.391666695,0,0,0,,0,269,269,237,1,,
,,,,,,,,,,,,,,,,,,5d8da90433afc60017fae3d3,2020-08-10_18h20.41.126,lexical_decision_task_MP,2020.1.3,Win32,60,z,1,1.25576,,,,,,,,1.25576,1,,,,,,314,NW,"ID",33,sprine,SPRINE,z,,,,,,-0.038888861,-0.391666695,0,0,0,,0,270,270,253,1,,
,,,,,,,,,,,,,,,,,,5d8da90433afc60017fae3d3,2020-08-10_18h20.41.126,lexical_decision_task_MP,2020.1.3,Win32,60,m,1,0.59199,,,,,,,,0.59199,1,,,,,,102,WORD,"ID",33,direct,DIRECT,m,,,,,,-0.038888861,-0.391666695,0,0,0,,0,271,271,41,1,,
,,,,,,,,,,,,,,,,,,5d8da90433afc60017fae3d3,2020-08-10_18h20.41.126,lexical_decision_task_MP,2020.1.3,Win32,60,m,1,0.682945,,,,,,,,0.682945,1,,,,,,67,WORD,"ID",33,policy,POLICY,m,,,,,,-0.038888861,-0.391666695,0,0,0,,0,272,272,6,1,,
,,,,,,,,,,,,,,,,,,5d8da90433afc60017fae3d3,2020-08-10_18h20.41.126,lexical_decision_task_MP,2020.1.3,Win32,60,z,1,0.68571,,,,,,,,0.68571,1,,,,,,321,NW,"ID",33,miator,MIATOR,z,,,,,,-0.038888861,-0.391666695,0,0,0,,0,273,273,260,1,,
,,,,,,,,,,,,,,,,,,5d8da90433afc60017fae3d3,2020-08-10_18h20.41.126,lexical_decision_task_MP,2020.1.3,Win32,60,m,1,0.53041,,,,,,,,0.53041,1,,,,,,163,WORD,"ID",50,string,STRING,m,,,,,,-0.038888861,-0.391666695,0,0,0,,0,274,274,102,1,,
,,,,,,,,,,,,,,,,,,5d8da90433afc60017fae3d3,2020-08-10_18h20.41.126,lexical_decision_task_MP,2020.1.3,Win32,60,m,1,0.478585,,,,,,,,0.478585,1,,,,,,119,WORD,"ID",33,spider,SPIDER,m,,,,,,-0.038888861,-0.391666695,0,0,0,,0,275,275,58,1,,
,,,,,,,,,,,,,,,,,,5d8da90433afc60017fae3d3,2020-08-10_18h20.41.126,lexical_decision_task_MP,2020.1.3,Win32,60,z,1,0.678865,,,,,,,,0.678865,1,,,,,,243,NW,UN,50,eatric,MUSIED,z,,,,,,-0.038888861,-0.391666695,0,0,0,,0,276,276,422,1,,
,,,,,,,,,,,,,,,,,,5d8da90433afc60017fae3d3,2020-08-10_18h20.41.126,lexical_decision_task_MP,2020.1.3,Win32,60,z,1,0.66282,,,,,,,,0.66282,1,,,,,,287,NW,UN,50,yaceup,NYMBEL,z,,,,,,-0.038888861,-0.391666695,0,0,0,,0,277,277,466,1,,
,,,,,,,,,,,,,,,,,,5d8da90433afc60017fae3d3,2020-08-10_18h20.41.126,lexical_decision_task_MP,2020.1.3,Win32,60,m,1,0.813035,,,,,,,,0.813035,1,,,,,,86,WORD,"ID",33,rodent,RODENT,m,,,,,,-0.038888861,-0.391666695,0,0,0,,0,278,278,25,1,,
,,,,,,,,,,,,,,,,,,5d8da90433afc60017fae3d3,2020-08-10_18h20.41.126,lexical_decision_task_MP,2020.1.3,Win32,60,m,1,0.575325,,,,,,,,0.575325,1,,,,,,217,WORD,UN,33,shrink,LIQUOR,m,,,,,,-0.038888861,-0.391666695,0,0,0,,0,279,279,156,1,,
,,,,,,,,,,,,,,,,,,5d8da90433afc60017fae3d3,2020-08-10_18h20.41.126,lexical_decision_task_MP,2020.1.3,Win32,60,m,1,0.724905,,,,,,,,0.724905,1,,,,,,8,WORD,UN,50,hustle,ABRUPT,m,,,,,,-0.038888861,-0.391666695,0,0,0,,0,280,280,187,1,,
,,,,,,,,,,,,,,,,,,5d8da90433afc60017fae3d3,2020-08-10_18h20.41.126,lexical_decision_task_MP,2020.1.3,Win32,60,z,1,0.70669,,,,,,,,0.70669,1,,,,,,444,NW,UN,33,minkel,JAUNCE,z,,,,,,-0.038888861,-0.391666695,0,0,0,,0,281,281,383,1,,
,,,,,,,,,,,,,,,,,,5d8da90433afc60017fae3d3,2020-08-10_18h20.41.126,lexical_decision_task_MP,2020.1.3,Win32,60,z,1,0.86679,,,,,,,,0.86679,1,,,,,,450,NW,UN,33,cainky,PHRECT,z,,,,,,-0.038888861,-0.391666695,0,0,0,,0,282,282,389,1,,
,,,,,,,,,,,,,,,,,,5d8da90433afc60017fae3d3,2020-08-10_18h20.41.126,lexical_decision_task_MP,2020.1.3,Win32,60,z,1,0.59819,,,,,,,,0.59819,1,,,,,,368,NW,"ID",50,hornal,HORNAL,z,,,,,,-0.038888861,-0.391666695,0,0,0,,0,283,283,307,1,,
,,,,,,,,,,,,,,,,,,5d8da90433afc60017fae3d3,2020-08-10_18h20.41.126,lexical_decision_task_MP,2020.1.3,Win32,60,m,1,0.649595,,,,,,,,0.649595,1,,,,,,143,WORD,"ID",50,reason,REASON,m,,,,,,-0.038888861,-0.391666695,0,0,0,,0,284,284,82,1,,
,,,,,,,,,,,,,,,,,,5d8da90433afc60017fae3d3,2020-08-10_18h20.41.126,lexical_decision_task_MP,2020.1.3,Win32,60,m,1,0.546065,,,,,,,,0.546065,1,,,,,,231,WORD,UN,33,inject,EXPORT,m,,,,,,-0.038888861,-0.391666695,0,0,0,,0,285,285,170,1,,
,,,,,,,,,,,,,,,,,,5d8da90433afc60017fae3d3,2020-08-10_18h20.41.126,lexical_decision_task_MP,2020.1.3,Win32,60,m,1,0.467025,,,,,,,,0.467025,1,,,,,,167,WORD,"ID",50,design,DESIGN,m,,,,,,-0.038888861,-0.391666695,0,0,0,,0,286,286,106,1,,
,,,,,,,,,,,,,,,,,,5d8da90433afc60017fae3d3,2020-08-10_18h20.41.126,lexical_decision_task_MP,2020.1.3,Win32,60,m,1,0.778775,,,,,,,,0.778775,1,,,,,,5,WORD,UN,50,bundle,PLUNGE,m,,,,,,-0.038888861,-0.391666695,0,0,0,,0,287,287,184,1,,
,,,,,,,,,,,,,,,,,,5d8da90433afc60017fae3d3,2020-08-10_18h20.41.126,lexical_decision_task_MP,2020.1.3,Win32,60,m,1,0.444735,,,,,,,,0.444735,1,,,,,,168,WORD,"ID",50,answer,ANSWER,m,,,,,,-0.038888861,-0.391666695,0,0,0,,0,288,288,107,1,,
,,,,,,,,,,,,,,,,,,5d8da90433afc60017fae3d3,2020-08-10_18h20.41.126,lexical_decision_task_MP,2020.1.3,Win32,60,z,1,0.7012,,,,,,,,0.7012,1,,,,,,348,NW,"ID",33,dumple,DUMPLE,z,,,,,,-0.038888861,-0.391666695,0,0,0,,0,289,289,287,1,,
,,,,,,,,,,,,,,,,,,5d8da90433afc60017fae3d3,2020-08-10_18h20.41.126,lexical_decision_task_MP,2020.1.3,Win32,60,z,1,1.0473,,,,,,,,1.0473,1,,,,,,271,NW,UN,50,damilt,AUBRID,z,,,,,,-0.038888861,-0.391666695,0,0,0,,0,290,290,450,1,,
,,,,,,,,,,,,,,,,,,5d8da90433afc60017fae3d3,2020-08-10_18h20.41.126,lexical_decision_task_MP,2020.1.3,Win32,60,m,1,0.56241,,,,,,,,0.56241,1,,,,,,40,WORD,UN,50,spring,CONVEY,m,,,,,,-0.038888861,-0.391666695,0,0,0,,0,291,291,219,1,,
,,,,,,,,,,,,,,,,,,5d8da90433afc60017fae3d3,2020-08-10_18h20.41.126,lexical_decision_task_MP,2020.1.3,Win32,60,z,1,0.61491,,,,,,,,0.61491,1,,,,,,394,NW,"ID",50,spaqux,SPAQUX,z,,,,,,-0.038888861,-0.391666695,0,0,0,,0,292,292,333,1,,
,,,,,,,,,,,,,,,,,,5d8da90433afc60017fae3d3,2020-08-10_18h20.41.126,lexical_decision_task_MP,2020.1.3,Win32,60,m,1,0.578825,,,,,,,,0.578825,1,,,,,,13,WORD,UN,50,almost,STRIVE,m,,,,,,-0.038888861,-0.391666695,0,0,0,,0,293,293,192,1,,
,,,,,,,,,,,,,,,,,,5d8da90433afc60017fae3d3,2020-08-10_18h20.41.126,lexical_decision_task_MP,2020.1.3,Win32,60,m,1,0.50379,,,,,,,,0.50379,1,,,,,,76,WORD,"ID",33,exotic,EXOTIC,m,,,,,,-0.038888861,-0.391666695,0,0,0,,0,294,294,15,1,,
,,,,,,,,,,,,,,,,,,5d8da90433afc60017fae3d3,2020-08-10_18h20.41.126,lexical_decision_task_MP,2020.1.3,Win32,60,z,1,0.75238,,,,,,,,0.75238,1,,,,,,261,NW,UN,50,quilew,STUNCH,z,,,,,,-0.038888861,-0.391666695,0,0,0,,0,295,295,440,1,,
,,,,,,,,,,,,,,,,,,5d8da90433afc60017fae3d3,2020-08-10_18h20.41.126,lexical_decision_task_MP,2020.1.3,Win32,60,z,1,0.77935,,,,,,,,0.77935,1,,,,,,353,NW,"ID",33,clurey,CLUREY,z,,,,,,-0.038888861,-0.391666695,0,0,0,,0,296,296,292,1,,
,,,,,,,,,,,,,,,,,,5d8da90433afc60017fae3d3,2020-08-10_18h20.41.126,lexical_decision_task_MP,2020.1.3,Win32,60,z,1,0.62069,,,,,,,,0.62069,1,,,,,,324,NW,"ID",33,steikh,STEIKH,z,,,,,,-0.038888861,-0.391666695,0,0,0,,0,297,297,263,1,,
,,,,,,,,,,,,,,,,,,5d8da90433afc60017fae3d3,2020-08-10_18h20.41.126,lexical_decision_task_MP,2020.1.3,Win32,60,z,1,0.56748,,,,,,,,0.56748,1,,,,,,266,NW,UN,50,pasink,VARMIT,z,,,,,,-0.038888861,-0.391666695,0,0,0,,0,298,298,445,1,,
,,,,,,,,,,,,,,,,,,5d8da90433afc60017fae3d3,2020-08-10_18h20.41.126,lexical_decision_task_MP,2020.1.3,Win32,60,z,1,0.55858,,,,,,,,0.55858,1,,,,,,290,NW,UN,50,pretch,SPLINO,z,,,,,,-0.038888861,-0.391666695,0,0,0,,0,299,299,469,1,,
,,,,,,,,,,,,,,,,,,5d8da90433afc60017fae3d3,2020-08-10_18h20.41.126,lexical_decision_task_MP,2020.1.3,Win32,60,m,1,0.68314,,,,,,,,0.68314,1,,,,,,68,WORD,"ID",33,fumble,FUMBLE,m,,,,,,-0.038888861,-0.391666695,0,0,0,,0,300,300,7,1,,
,,,,,,,,,,,,,,,,,,5d8da90433afc60017fae3d3,2020-08-10_18h20.41.126,lexical_decision_task_MP,2020.1.3,Win32,60,z,1,0.77928,,,,,,,,0.77928,1,,,,,,407,NW,"ID",50,suiver,SUIVER,z,,,,,,-0.038888861,-0.391666695,0,0,0,,0,301,301,346,1,,
,,,,,,,,,,,,,,,,,,5d8da90433afc60017fae3d3,2020-08-10_18h20.41.126,lexical_decision_task_MP,2020.1.3,Win32,60,m,1,0.68743,,,,,,,,0.68743,1,,,,,,24,WORD,UN,50,domain,PRAISE,m,,,,,,-0.038888861,-0.391666695,0,0,0,,0,302,302,203,1,,
,,,,,,,,,,,,,,,,,,5d8da90433afc60017fae3d3,2020-08-10_18h20.41.126,lexical_decision_task_MP,2020.1.3,Win32,60,m,1,0.60545,,,,,,,,0.60545,1,,,,,,118,WORD,"ID",33,flight,FLIGHT,m,,,,,,-0.038888861,-0.391666695,0,0,0,,0,303,303,57,1,,
,,,,,,,,,,,,,,,,,,5d8da90433afc60017fae3d3,2020-08-10_18h20.41.126,lexical_decision_task_MP,2020.1.3,Win32,60,m,1,0.51521,,,,,,,,0.51521,1,,,,,,92,WORD,"ID",33,strand,STRAND,m,,,,,,-0.038888861,-0.391666695,0,0,0,,0,304,304,31,1,,
,,,,,,,,,,,,,,,,,,5d8da90433afc60017fae3d3,2020-08-10_18h20.41.126,lexical_decision_task_MP,2020.1.3,Win32,60,z,1,0.71541,,,,,,,,0.71541,1,,,,,,389,NW,"ID",50,witmer,WITMER,z,,,,,,-0.038888861,-0.391666695,0,0,0,,0,305,305,328,1,,
,,,,,,,,,,,,,,,,,,5d8da90433afc60017fae3d3,2020-08-10_18h20.41.126,lexical_decision_task_MP,2020.1.3,Win32,60,m,1,0.589005,,,,,,,,0.589005,1,,,,,,111,WORD,"ID",33,induce,INDUCE,m,,,,,,-0.038888861,-0.391666695,0,0,0,,0,306,306,50,1,,
,,,,,,,,,,,,,,,,,,5d8da90433afc60017fae3d3,2020-08-10_18h20.41.126,lexical_decision_task_MP,2020.1.3,Win32,60,m,1,0.536605,,,,,,,,0.536605,1,,,,,,199,WORD,UN,33,plague,INVOKE,m,,,,,,-0.038888861,-0.391666695,0,0,0,,0,307,307,138,1,,
,,,,,,,,,,,,,,,,,,5d8da90433afc60017fae3d3,2020-08-10_18h20.41.126,lexical_decision_task_MP,2020.1.3,Win32,60,m,1,0.48068,,,,,,,,0.48068,1,,,,,,127,WORD,"ID",50,castle,CASTLE,m,,,,,,-0.038888861,-0.391666695,0,0,0,,0,308,308,66,1,,
,,,,,,,,,,,,,,,,,,5d8da90433afc60017fae3d3,2020-08-10_18h20.41.126,lexical_decision_task_MP,2020.1.3,Win32,60,z,1,0.87877,,,,,,,,0.87877,1,,,,,,329,NW,"ID",33,yarike,YARIKE,z,,,,,,-0.038888861,-0.391666695,0,0,0,,0,309,309,268,1,,
,,,,,,,,,,,,,,,,,,5d8da90433afc60017fae3d3,2020-08-10_18h20.41.126,lexical_decision_task_MP,2020.1.3,Win32,60,z,1,0.529285,,,,,,,,0.529285,1,,,,,,244,NW,UN,50,anougs,EATRIC,z,,,,,,-0.038888861,-0.391666695,0,0,0,,0,310,310,423,1,,
,,,,,,,,,,,,,,,,,,5d8da90433afc60017fae3d3,2020-08-10_18h20.41.126,lexical_decision_task_MP,2020.1.3,Win32,60,m,1,0.833335,,,,,,,,0.833335,1,,,,,,235,WORD,UN,33,pirate,GRUMPY,m,,,,,,-0.038888861,-0.391666695,0,0,0,,0,311,311,174,1,,
,,,,,,,,,,,,,,,,,,5d8da90433afc60017fae3d3,2020-08-10_18h20.41.126,lexical_decision_task_MP,2020.1.3,Win32,60,z,1,1.314645,,,,,,,,1.314645,1,,,,,,296,NW,UN,50,fertic,BEINCH,z,,,,,,-0.038888861,-0.391666695,0,0,0,,0,312,312,475,1,,
,,,,,,,,,,,,,,,,,,5d8da90433afc60017fae3d3,2020-08-10_18h20.41.126,lexical_decision_task_MP,2020.1.3,Win32,60,z,1,0.75736,,,,,,,,0.75736,1,,,,,,325,NW,"ID",33,thruse,THRUSE,z,,,,,,-0.038888861,-0.391666695,0,0,0,,0,313,313,264,1,,
,,,,,,,,,,,,,,,,,,5d8da90433afc60017fae3d3,2020-08-10_18h20.41.126,lexical_decision_task_MP,2020.1.3,Win32,60,z,1,0.563015,,,,,,,,0.563015,1,,,,,,391,NW,"ID",50,theldy,THELDY,z,,,,,,-0.038888861,-0.391666695,0,0,0,,0,314,314,330,1,,
,,,,,,,,,,,,,,,,,,5d8da90433afc60017fae3d3,2020-08-10_18h20.41.126,lexical_decision_task_MP,2020.1.3,Win32,60,z,1,0.53908,,,,,,,,0.53908,1,,,,,,291,NW,UN,50,ablint,PRETCH,z,,,,,,-0.038888861,-0.391666695,0,0,0,,0,315,315,470,1,,
,,,,,,,,,,,,,,,,,,5d8da90433afc60017fae3d3,2020-08-10_18h20.41.126,lexical_decision_task_MP,2020.1.3,Win32,60,m,1,0.73539,,,,,,,,0.73539,1,,,,,,82,WORD,"ID",33,stigma,STIGMA,m,,,,,,-0.038888861,-0.391666695,0,0,0,,0,316,316,21,1,,
,,,,,,,,,,,,,,,,,,5d8da90433afc60017fae3d3,2020-08-10_18h20.41.126,lexical_decision_task_MP,2020.1.3,Win32,60,z,1,0.62894,,,,,,,,0.62894,1,,,,,,458,NW,UN,33,hocite,BARCET,z,,,,,,-0.038888861,-0.391666695,0,0,0,,0,317,317,397,1,,
,,,,,,,,,,,,,,,,,,5d8da90433afc60017fae3d3,2020-08-10_18h20.41.126,lexical_decision_task_MP,2020.1.3,Win32,60,z,1,0.707945,,,,,,,,0.707945,1,,,,,,249,NW,UN,50,milted,BATROL,z,,,,,,-0.038888861,-0.391666695,0,0,0,,0,318,318,428,1,,
,,,,,,,,,,,,,,,,,,5d8da90433afc60017fae3d3,2020-08-10_18h20.41.126,lexical_decision_task_MP,2020.1.3,Win32,60,m,1,0.69531,,,,,,,,0.69531,1,,,,,,198,WORD,UN,33,invoke,WICKED,m,,,,,,-0.038888861,-0.391666695,0,0,0,,0,319,319,137,1,,
,,,,,,,,,,,,,,,,,,5d8da90433afc60017fae3d3,2020-08-10_18h20.41.126,lexical_decision_task_MP,2020.1.3,Win32,60,z,1,0.828845,,,,,,,,0.828845,1,,,,,,252,NW,UN,50,resait,STAPOD,z,,,,,,-0.038888861,-0.391666695,0,0,0,,0,320,320,431,1,,
,,,,,,,,,,,,,,,,,,5d8da90433afc60017fae3d3,2020-08-10_18h20.41.126,lexical_decision_task_MP,2020.1.3,Win32,60,m,1,0.806975,,,,,,,,0.806975,1,,,,,,141,WORD,"ID",50,orphan,ORPHAN,m,,,,,,-0.038888861,-0.391666695,0,0,0,,0,321,321,80,1,,
,,,,,,,,,,,,,,,,,,5d8da90433afc60017fae3d3,2020-08-10_18h20.41.126,lexical_decision_task_MP,2020.1.3,Win32,60,m,1,1.178775,,,,,,,,1.178775,1,,,,,,145,WORD,"ID",50,parish,PARISH,m,,,,,,-0.038888861,-0.391666695,0,0,0,,0,322,322,84,1,,
,,,,,,,,,,,,,,,,,,5d8da90433afc60017fae3d3,2020-08-10_18h20.41.126,lexical_decision_task_MP,2020.1.3,Win32,60,m,1,0.558315,,,,,,,,0.558315,1,,,,,,214,WORD,UN,33,phobia,INTAKE,m,,,,,,-0.038888861,-0.391666695,0,0,0,,0,323,323,153,1,,
,,,,,,,,,,,,,,,,,,5d8da90433afc60017fae3d3,2020-08-10_18h20.41.126,lexical_decision_task_MP,2020.1.3,Win32,60,z,1,0.78359,,,,,,,,0.78359,1,,,,,,345,NW,"ID",33,absend,ABSEND,z,,,,,,-0.038888861,-0.391666695,0,0,0,,0,324,324,284,1,,
,,,,,,,,,,,,,,,,,,5d8da90433afc60017fae3d3,2020-08-10_18h20.41.126,lexical_decision_task_MP,2020.1.3,Win32,60,z,1,0.612235,,,,,,,,0.612235,1,,,,,,438,NW,UN,33,limpor,BAITCH,z,,,,,,-0.038888861,-0.391666695,0,0,0,,0,325,325,377,1,,
,,,,,,,,,,,,,,,,,,5d8da90433afc60017fae3d3,2020-08-10_18h20.41.126,lexical_decision_task_MP,2020.1.3,Win32,60,m,1,0.66999,,,,,,,,0.66999,1,,,,,,203,WORD,UN,33,burden,PHRASE,m,,,,,,-0.038888861,-0.391666695,0,0,0,,0,326,326,142,1,,
,,,,,,,,,,,,,,,,,,5d8da90433afc60017fae3d3,2020-08-10_18h20.41.126,lexical_decision_task_MP,2020.1.3,Win32,60,z,1,0.6458,,,,,,,,0.6458,1,,,,,,479,NW,UN,33,crible,LOBUSH,z,,,,,,-0.038888861,-0.391666695,0,0,0,,0,327,327,418,1,,
,,,,,,,,,,,,,,,,,,5d8da90433afc60017fae3d3,2020-08-10_18h20.41.126,lexical_decision_task_MP,2020.1.3,Win32,60,z,1,0.56601,,,,,,,,0.56601,1,,,,,,435,NW,UN,33,frutan,IMPURB,z,,,,,,-0.038888861,-0.391666695,0,0,0,,0,328,328,374,1,,
,,,,,,,,,,,,,,,,,,5d8da90433afc60017fae3d3,2020-08-10_18h20.41.126,lexical_decision_task_MP,2020.1.3,Win32,60,m,1,0.562735,,,,,,,,0.562735,1,,,,,,197,WORD,UN,33,wicked,STREAM,m,,,,,,-0.038888861,-0.391666695,0,0,0,,0,329,329,136,1,,
,,,,,,,,,,,,,,,,,,5d8da90433afc60017fae3d3,2020-08-10_18h20.41.126,lexical_decision_task_MP,2020.1.3,Win32,60,z,1,0.631325,,,,,,,,0.631325,1,,,,,,328,NW,"ID",33,broake,BROAKE,z,,,,,,-0.038888861,-0.391666695,0,0,0,,0,330,330,267,1,,
,,,,,,,,,,,,,,,,,,5d8da90433afc60017fae3d3,2020-08-10_18h20.41.126,lexical_decision_task_MP,2020.1.3,Win32,60,m,1,0.654615,,,,,,,,0.654615,1,,,,,,3,WORD,UN,50,trench,KNIGHT,m,,,,,,-0.038888861,-0.391666695,0,0,0,,0,331,331,182,1,,
,,,,,,,,,,,,,,,,,,5d8da90433afc60017fae3d3,2020-08-10_18h20.41.126,lexical_decision_task_MP,2020.1.3,Win32,60,z,1,0.56791,,,,,,,,0.56791,1,,,,,,365,NW,"ID",50,guairt,GUAIRT,z,,,,,,-0.038888861,-0.391666695,0,0,0,,0,332,332,304,1,,
,,,,,,,,,,,,,,,,,,5d8da90433afc60017fae3d3,2020-08-10_18h20.41.126,lexical_decision_task_MP,2020.1.3,Win32,60,z,1,0.674605,,,,,,,,0.674605,1,,,,,,395,NW,"ID",50,colury,COLURY,z,,,,,,-0.038888861,-0.391666695,0,0,0,,0,333,333,334,1,,
,,,,,,,,,,,,,,,,,,5d8da90433afc60017fae3d3,2020-08-10_18h20.41.126,lexical_decision_task_MP,2020.1.3,Win32,60,m,1,0.52218,,,,,,,,0.52218,1,,,,,,150,WORD,"ID",50,random,RANDOM,m,,,,,,-0.038888861,-0.391666695,0,0,0,,0,334,334,89,1,,
,,,,,,,,,,,,,,,,,,5d8da90433afc60017fae3d3,2020-08-10_18h20.41.126,lexical_decision_task_MP,2020.1.3,Win32,60,z,1,0.72382,,,,,,,,0.72382,1,,,,,,323,NW,"ID",33,rosail,ROSAIL,z,,,,,,-0.038888861,-0.391666695,0,0,0,,0,335,335,262,1,,
,,,,,,,,,,,,,,,,,,5d8da90433afc60017fae3d3,2020-08-10_18h20.41.126,lexical_decision_task_MP,2020.1.3,Win32,60,z,1,0.548525,,,,,,,,0.548525,1,,,,,,371,NW,"ID",50,geiloy,GEILOY,z,,,,,,-0.038888861,-0.391666695,0,0,0,,0,336,336,310,1,,
,,,,,,,,,,,,,,,,,,5d8da90433afc60017fae3d3,2020-08-10_18h20.41.126,lexical_decision_task_MP,2020.1.3,Win32,60,z,1,0.49719,,,,,,,,0.49719,1,,,,,,349,NW,"ID",33,asylen,ASYLEN,z,,,,,,-0.038888861,-0.391666695,0,0,0,,0,337,337,288,1,,
,,,,,,,,,,,,,,,,,,5d8da90433afc60017fae3d3,2020-08-10_18h20.41.126,lexical_decision_task_MP,2020.1.3,Win32,60,m,1,0.597975,,,,,,,,0.597975,1,,,,,,230,WORD,UN,33,mother,FRINGE,m,,,,,,-0.038888861,-0.391666695,0,0,0,,0,338,338,169,1,,
,,,,,,,,,,,,,,,,,,5d8da90433afc60017fae3d3,2020-08-10_18h20.41.126,lexical_decision_task_MP,2020.1.3,Win32,60,z,1,1.029195,,,,,,,,1.029195,1,,,,,,316,NW,"ID",33,scregm,SCREGM,z,,,,,,-0.038888861,-0.391666695,0,0,0,,0,339,339,255,1,,
,,,,,,,,,,,,,,,,,,5d8da90433afc60017fae3d3,2020-08-10_18h20.41.126,lexical_decision_task_MP,2020.1.3,Win32,60,m,1,0.63709,,,,,,,,0.63709,1,,,,,,183,WORD,UN,33,sleazy,MILDEW,m,,,,,,-0.038888861,-0.391666695,0,0,0,,0,340,340,122,1,,
,,,,,,,,,,,,,,,,,,5d8da90433afc60017fae3d3,2020-08-10_18h20.41.126,lexical_decision_task_MP,2020.1.3,Win32,60,m,1,0.760565,,,,,,,,0.760565,1,,,,,,139,WORD,"ID",50,debris,DEBRIS,m,,,,,,-0.038888861,-0.391666695,0,0,0,,0,341,341,78,1,,
,,,,,,,,,,,,,,,,,,5d8da90433afc60017fae3d3,2020-08-10_18h20.41.126,lexical_decision_task_MP,2020.1.3,Win32,60,z,1,0.72481,,,,,,,,0.72481,1,,,,,,332,NW,"ID",33,vangue,VANGUE,z,,,,,,-0.038888861,-0.391666695,0,0,0,,0,342,342,271,1,,
,,,,,,,,,,,,,,,,,,5d8da90433afc60017fae3d3,2020-08-10_18h20.41.126,lexical_decision_task_MP,2020.1.3,Win32,60,z,1,0.59504,,,,,,,,0.59504,1,,,,,,245,NW,UN,50,piaton,ANOUGS,z,,,,,,-0.038888861,-0.391666695,0,0,0,,0,343,343,424,1,,
,,,,,,,,,,,,,,,,,,5d8da90433afc60017fae3d3,2020-08-10_18h20.41.126,lexical_decision_task_MP,2020.1.3,Win32,60,m,1,0.578565,,,,,,,,0.578565,1,,,,,,100,WORD,"ID",33,carbon,CARBON,m,,,,,,-0.038888861,-0.391666695,0,0,0,,0,344,344,39,1,,
,,,,,,,,,,,,,,,,,,5d8da90433afc60017fae3d3,2020-08-10_18h20.41.126,lexical_decision_task_MP,2020.1.3,Win32,60,m,1,0.762785,,,,,,,,0.762785,1,,,,,,25,WORD,UN,50,sprint,DOMAIN,m,,,,,,-0.038888861,-0.391666695,0,0,0,,0,345,345,204,1,,
,,,,,,,,,,,,,,,,,,5d8da90433afc60017fae3d3,2020-08-10_18h20.41.126,lexical_decision_task_MP,2020.1.3,Win32,60,m,1,0.584715,,,,,,,,0.584715,1,,,,,,6,WORD,UN,50,anchor,BUNDLE,m,,,,,,-0.038888861,-0.391666695,0,0,0,,0,346,346,185,1,,
,,,,,,,,,,,,,,,,,,5d8da90433afc60017fae3d3,2020-08-10_18h20.41.126,lexical_decision_task_MP,2020.1.3,Win32,60,z,1,0.67867,,,,,,,,0.67867,1,,,,,,372,NW,"ID",50,ramily,RAMILY,z,,,,,,-0.038888861,-0.391666695,0,0,0,,0,347,347,311,1,,
,,,,,,,,,,,,,,,,,,5d8da90433afc60017fae3d3,2020-08-10_18h20.41.126,lexical_decision_task_MP,2020.1.3,Win32,60,m,1,0.52496,,,,,,,,0.52496,1,,,,,,237,WORD,UN,33,glance,POSTER,m,,,,,,-0.038888861,-0.391666695,0,0,0,,0,348,348,176,1,,
,,,,,,,,,,,,,,,,,,5d8da90433afc60017fae3d3,2020-08-10_18h20.41.126,lexical_decision_task_MP,2020.1.3,Win32,60,m,1,0.488415,,,,,,,,0.488415,1,,,,,,220,WORD,UN,33,mascot,VOYAGE,m,,,,,,-0.038888861,-0.391666695,0,0,0,,0,349,349,159,1,,
,,,,,,,,,,,,,,,,,,5d8da90433afc60017fae3d3,2020-08-10_18h20.41.126,lexical_decision_task_MP,2020.1.3,Win32,60,z,1,0.56261,,,,,,,,0.56261,1,,,,,,361,NW,"ID",50,pauche,PAUCHE,z,,,,,,-0.038888861,-0.391666695,0,0,0,,0,350,350,300,1,,
,,,,,,,,,,,,,,,,,,5d8da90433afc60017fae3d3,2020-08-10_18h20.41.126,lexical_decision_task_MP,2020.1.3,Win32,60,z,1,0.5929,,,,,,,,0.5929,1,,,,,,410,NW,"ID",50,tunory,TUNORY,z,,,,,,-0.038888861,-0.391666695,0,0,0,,0,351,351,349,1,,
,,,,,,,,,,,,,,,,,,5d8da90433afc60017fae3d3,2020-08-10_18h20.41.126,lexical_decision_task_MP,2020.1.3,Win32,60,z,1,0.544185,,,,,,,,0.544185,1,,,,,,473,NW,UN,33,hablin,CRIBLE,z,,,,,,-0.038888861,-0.391666695,0,0,0,,0,352,352,412,1,,
,,,,,,,,,,,,,,,,,,5d8da90433afc60017fae3d3,2020-08-10_18h20.41.126,lexical_decision_task_MP,2020.1.3,Win32,60,m,0,0.643465,,,,,,,,0.643465,0,,,,,,358,NW,"ID",33,fleack,FLEACK,z,,,,,,-0.038888861,-0.391666695,0,0,0,,0,353,353,297,1,,
,,,,,,,,,,,,,,,,,,5d8da90433afc60017fae3d3,2020-08-10_18h20.41.126,lexical_decision_task_MP,2020.1.3,Win32,60,m,1,0.68308,,,,,,,,0.68308,1,,,,,,205,WORD,UN,33,tailor,LOUNGE,m,,,,,,-0.038888861,-0.391666695,0,0,0,,0,354,354,144,1,,
,,,,,,,,,,,,,,,,,,5d8da90433afc60017fae3d3,2020-08-10_18h20.41.126,lexical_decision_task_MP,2020.1.3,Win32,60,m,1,0.70678,,,,,,,,0.70678,1,,,,,,181,WORD,UN,33,winter,GLANCE,m,,,,,,-0.038888861,-0.391666695,0,0,0,,0,355,355,120,1,,
,,,,,,,,,,,,,,,,,,5d8da90433afc60017fae3d3,2020-08-10_18h20.41.126,lexical_decision_task_MP,2020.1.3,Win32,60,z,1,0.58712,,,,,,,,0.58712,1,,,,,,434,NW,UN,33,impurb,PITROM,z,,,,,,-0.038888861,-0.391666695,0,0,0,,0,356,356,373,1,,
,,,,,,,,,,,,,,,,,,5d8da90433afc60017fae3d3,2020-08-10_18h20.41.126,lexical_decision_task_MP,2020.1.3,Win32,60,z,1,0.772755,,,,,,,,0.772755,1,,,,,,343,NW,"ID",33,aimosy,AIMOSY,z,,,,,,-0.038888861,-0.391666695,0,0,0,,0,357,357,282,1,,
,,,,,,,,,,,,,,,,,,5d8da90433afc60017fae3d3,2020-08-10_18h20.41.126,lexical_decision_task_MP,2020.1.3,Win32,60,z,1,0.641735,,,,,,,,0.641735,1,,,,,,250,NW,UN,50,lupict,MILTED,z,,,,,,-0.038888861,-0.391666695,0,0,0,,0,358,358,429,1,,
,,,,,,,,,,,,,,,,,,5d8da90433afc60017fae3d3,2020-08-10_18h20.41.126,lexical_decision_task_MP,2020.1.3,Win32,60,z,1,0.535465,,,,,,,,0.535465,1,,,,,,294,NW,UN,50,gleath,INHORT,z,,,,,,-0.038888861,-0.391666695,0,0,0,,0,359,359,473,1,,
,,,,,,,,,,,,,,,,,,5d8da90433afc60017fae3d3,2020-08-10_18h20.41.126,lexical_decision_task_MP,2020.1.3,Win32,60,z,1,0.505835,,,,,,,,0.505835,1,,,,,,453,NW,UN,33,scouge,BOLVIS,z,,,,,,-0.038888861,-0.391666695,0,0,0,,0,360,360,392,1,,
,,,,,,,,,,,,,,,,,,5d8da90433afc60017fae3d3,2020-08-10_18h20.41.126,lexical_decision_task_MP,2020.1.3,Win32,60,z,1,0.42705,,,,,,,,0.42705,1,,,,,,246,NW,UN,50,blarge,PIATON,z,,,,,,-0.038888861,-0.391666695,0,0,0,,0,361,361,425,1,,
,,,,,,,,,,,,,,,,,,5d8da90433afc60017fae3d3,2020-08-10_18h20.41.126,lexical_decision_task_MP,2020.1.3,Win32,60,z,1,0.5039,,,,,,,,0.5039,1,,,,,,446,NW,UN,33,gircue,RUNAMO,z,,,,,,0.653703727,0.379629628,0,0,0,space,0,362,362,385,1,20.29957,
,,,,,,,,,,,,,,,,,,5d8da90433afc60017fae3d3,2020-08-10_18h20.41.126,lexical_decision_task_MP,2020.1.3,Win32,60,z,1,0.722345,,,,,,,,0.722345,1,,,,,,374,NW,"ID",50,sliant,SLIANT,z,,,,,,0.653703727,0.379629628,0,0,0,,0,363,363,313,1,,
,,,,,,,,,,,,,,,,,,5d8da90433afc60017fae3d3,2020-08-10_18h20.41.126,lexical_decision_task_MP,2020.1.3,Win32,60,m,1,0.57991,,,,,,,,0.57991,1,,,,,,152,WORD,"ID",50,rocket,ROCKET,m,,,,,,0.653703727,0.379629628,0,0,0,,0,364,364,91,1,,
,,,,,,,,,,,,,,,,,,5d8da90433afc60017fae3d3,2020-08-10_18h20.41.126,lexical_decision_task_MP,2020.1.3,Win32,60,m,1,0.49621,,,,,,,,0.49621,1,,,,,,46,WORD,UN,50,income,SINGLE,m,,,,,,0.653703727,0.379629628,0,0,0,,0,365,365,225,1,,
,,,,,,,,,,,,,,,,,,5d8da90433afc60017fae3d3,2020-08-10_18h20.41.126,lexical_decision_task_MP,2020.1.3,Win32,60,m,1,0.516955,,,,,,,,0.516955,1,,,,,,207,WORD,UN,33,hockey,WREATH,m,,,,,,0.653703727,0.379629628,0,0,0,,0,366,366,146,1,,
,,,,,,,,,,,,,,,,,,5d8da90433afc60017fae3d3,2020-08-10_18h20.41.126,lexical_decision_task_MP,2020.1.3,Win32,60,z,1,0.67627,,,,,,,,0.67627,1,,,,,,381,NW,"ID",50,huniek,HUNIEK,z,,,,,,0.653703727,0.379629628,0,0,0,,0,367,367,320,1,,
,,,,,,,,,,,,,,,,,,5d8da90433afc60017fae3d3,2020-08-10_18h20.41.126,lexical_decision_task_MP,2020.1.3,Win32,60,z,1,0.52086,,,,,,,,0.52086,1,,,,,,295,NW,UN,50,beinch,GLEATH,z,,,,,,0.653703727,0.379629628,0,0,0,,0,368,368,474,1,,
,,,,,,,,,,,,,,,,,,5d8da90433afc60017fae3d3,2020-08-10_18h20.41.126,lexical_decision_task_MP,2020.1.3,Win32,60,z,1,0.73948,,,,,,,,0.73948,1,,,,,,402,NW,"ID",50,syntic,SYNTIC,z,,,,,,0.653703727,0.379629628,0,0,0,,0,369,369,341,1,,
,,,,,,,,,,,,,,,,,,5d8da90433afc60017fae3d3,2020-08-10_18h20.41.126,lexical_decision_task_MP,2020.1.3,Win32,60,m,1,0.60195,,,,,,,,0.60195,1,,,,,,196,WORD,UN,33,stream,CREDIT,m,,,,,,0.653703727,0.379629628,0,0,0,,0,370,370,135,1,,
,,,,,,,,,,,,,,,,,,5d8da90433afc60017fae3d3,2020-08-10_18h20.41.126,lexical_decision_task_MP,2020.1.3,Win32,60,m,1,0.54557,,,,,,,,0.54557,1,,,,,,54,WORD,UN,50,stroke,RAMBLE,m,,,,,,0.653703727,0.379629628,0,0,0,,0,371,371,233,1,,
,,,,,,,,,,,,,,,,,,5d8da90433afc60017fae3d3,2020-08-10_18h20.41.126,lexical_decision_task_MP,2020.1.3,Win32,60,m,1,0.48104,,,,,,,,0.48104,1,,,,,,131,WORD,"ID",50,quench,QUENCH,m,,,,,,0.653703727,0.379629628,0,0,0,,0,372,372,70,1,,
,,,,,,,,,,,,,,,,,,5d8da90433afc60017fae3d3,2020-08-10_18h20.41.126,lexical_decision_task_MP,2020.1.3,Win32,60,m,1,0.529185,,,,,,,,0.529185,1,,,,,,88,WORD,"ID",33,hunger,HUNGER,m,,,,,,0.653703727,0.379629628,0,0,0,,0,373,373,27,1,,
,,,,,,,,,,,,,,,,,,5d8da90433afc60017fae3d3,2020-08-10_18h20.41.126,lexical_decision_task_MP,2020.1.3,Win32,60,m,1,0.5385,,,,,,,,0.5385,1,,,,,,224,WORD,UN,33,vulgar,PERIOD,m,,,,,,0.653703727,0.379629628,0,0,0,,0,374,374,163,1,,
,,,,,,,,,,,,,,,,,,5d8da90433afc60017fae3d3,2020-08-10_18h20.41.126,lexical_decision_task_MP,2020.1.3,Win32,60,z,1,0.681305,,,,,,,,0.681305,1,,,,,,242,NW,UN,50,musied,UNWERT,z,,,,,,0.653703727,0.379629628,0,0,0,,0,375,375,421,1,,
,,,,,,,,,,,,,,,,,,5d8da90433afc60017fae3d3,2020-08-10_18h20.41.126,lexical_decision_task_MP,2020.1.3,Win32,60,m,1,0.535855,,,,,,,,0.535855,1,,,,,,44,WORD,UN,50,clergy,DANGER,m,,,,,,0.653703727,0.379629628,0,0,0,,0,376,376,223,1,,
,,,,,,,,,,,,,,,,,,5d8da90433afc60017fae3d3,2020-08-10_18h20.41.126,lexical_decision_task_MP,2020.1.3,Win32,60,z,1,0.615165,,,,,,,,0.615165,1,,,,,,419,NW,"ID",50,slount,SLOUNT,z,,,,,,0.653703727,0.379629628,0,0,0,,0,377,377,358,1,,
,,,,,,,,,,,,,,,,,,5d8da90433afc60017fae3d3,2020-08-10_18h20.41.126,lexical_decision_task_MP,2020.1.3,Win32,60,z,0,0.46928,,,,,,,,0.46928,0,,,,,,215,WORD,UN,33,lumber,PHOBIA,m,,,,,,0.653703727,0.379629628,0,0,0,,0,378,378,154,1,,
,,,,,,,,,,,,,,,,,,5d8da90433afc60017fae3d3,2020-08-10_18h20.41.126,lexical_decision_task_MP,2020.1.3,Win32,60,m,1,0.61758,,,,,,,,0.61758,1,,,,,,32,WORD,UN,50,scream,BUCKLE,m,,,,,,0.653703727,0.379629628,0,0,0,,0,379,379,211,1,,
,,,,,,,,,,,,,,,,,,5d8da90433afc60017fae3d3,2020-08-10_18h20.41.126,lexical_decision_task_MP,2020.1.3,Win32,60,m,1,0.68753,,,,,,,,0.68753,1,,,,,,49,WORD,UN,50,snatch,SURVEY,m,,,,,,0.653703727,0.379629628,0,0,0,,0,380,380,228,1,,
,,,,,,,,,,,,,,,,,,5d8da90433afc60017fae3d3,2020-08-10_18h20.41.126,lexical_decision_task_MP,2020.1.3,Win32,60,z,1,0.87019,,,,,,,,0.87019,1,,,,,,445,NW,UN,33,runamo,MINKEL,z,,,,,,0.653703727,0.379629628,0,0,0,,0,381,381,384,1,,
,,,,,,,,,,,,,,,,,,5d8da90433afc60017fae3d3,2020-08-10_18h20.41.126,lexical_decision_task_MP,2020.1.3,Win32,60,z,1,0.80121,,,,,,,,0.80121,1,,,,,,476,NW,UN,33,photie,JOSTED,z,,,,,,0.653703727,0.379629628,0,0,0,,0,382,382,415,1,,
,,,,,,,,,,,,,,,,,,5d8da90433afc60017fae3d3,2020-08-10_18h20.41.126,lexical_decision_task_MP,2020.1.3,Win32,60,m,1,0.603015,,,,,,,,0.603015,1,,,,,,154,WORD,"ID",50,author,AUTHOR,m,,,,,,0.653703727,0.379629628,0,0,0,,0,383,383,93,1,,
,,,,,,,,,,,,,,,,,,5d8da90433afc60017fae3d3,2020-08-10_18h20.41.126,lexical_decision_task_MP,2020.1.3,Win32,60,z,1,0.612485,,,,,,,,0.612485,1,,,,,,300,NW,UN,50,smenco,YARION,z,,,,,,0.653703727,0.379629628,0,0,0,,0,384,384,479,1,,
,,,,,,,,,,,,,,,,,,5d8da90433afc60017fae3d3,2020-08-10_18h20.41.126,lexical_decision_task_MP,2020.1.3,Win32,60,z,1,0.63894,,,,,,,,0.63894,1,,,,,,392,NW,"ID",50,rouncy,ROUNCY,z,,,,,,0.653703727,0.379629628,0,0,0,,0,385,385,331,1,,
,,,,,,,,,,,,,,,,,,5d8da90433afc60017fae3d3,2020-08-10_18h20.41.126,lexical_decision_task_MP,2020.1.3,Win32,60,z,1,0.53658,,,,,,,,0.53658,1,,,,,,475,NW,UN,33,josted,PEBRIC,z,,,,,,0.653703727,0.379629628,0,0,0,,0,386,386,414,1,,
,,,,,,,,,,,,,,,,,,5d8da90433afc60017fae3d3,2020-08-10_18h20.41.126,lexical_decision_task_MP,2020.1.3,Win32,60,z,1,0.91411,,,,,,,,0.91411,1,,,,,,293,NW,UN,50,inhort,SWANCE,z,,,,,,0.653703727,0.379629628,0,0,0,,0,387,387,472,1,,
,,,,,,,,,,,,,,,,,,5d8da90433afc60017fae3d3,2020-08-10_18h20.41.126,lexical_decision_task_MP,2020.1.3,Win32,60,m,1,0.622775,,,,,,,,0.622775,1,,,,,,175,WORD,"ID",50,fabric,FABRIC,m,,,,,,0.653703727,0.379629628,0,0,0,,0,388,388,114,1,,
,,,,,,,,,,,,,,,,,,5d8da90433afc60017fae3d3,2020-08-10_18h20.41.126,lexical_decision_task_MP,2020.1.3,Win32,60,m,1,0.534055,,,,,,,,0.534055,1,,,,,,129,WORD,"ID",50,marvel,MARVEL,m,,,,,,0.653703727,0.379629628,0,0,0,,0,389,389,68,1,,
,,,,,,,,,,,,,,,,,,5d8da90433afc60017fae3d3,2020-08-10_18h20.41.126,lexical_decision_task_MP,2020.1.3,Win32,60,m,1,0.646555,,,,,,,,0.646555,1,,,,,,236,WORD,UN,33,grumpy,PIRATE,m,,,,,,0.653703727,0.379629628,0,0,0,,0,390,390,175,1,,
,,,,,,,,,,,,,,,,,,5d8da90433afc60017fae3d3,2020-08-10_18h20.41.126,lexical_decision_task_MP,2020.1.3,Win32,60,m,1,0.569665,,,,,,,,0.569665,1,,,,,,117,WORD,"ID",33,branch,BRANCH,m,,,,,,0.653703727,0.379629628,0,0,0,,0,391,391,56,1,,
,,,,,,,,,,,,,,,,,,5d8da90433afc60017fae3d3,2020-08-10_18h20.41.126,lexical_decision_task_MP,2020.1.3,Win32,60,m,1,0.668485,,,,,,,,0.668485,1,,,,,,9,WORD,UN,50,bridge,HUSTLE,m,,,,,,0.653703727,0.379629628,0,0,0,,0,392,392,188,1,,
,,,,,,,,,,,,,,,,,,5d8da90433afc60017fae3d3,2020-08-10_18h20.41.126,lexical_decision_task_MP,2020.1.3,Win32,60,z,1,0.749845,,,,,,,,0.749845,1,,,,,,423,NW,UN,33,praile,STRELD,z,,,,,,0.653703727,0.379629628,0,0,0,,0,393,393,362,1,,
,,,,,,,,,,,,,,,,,,5d8da90433afc60017fae3d3,2020-08-10_18h20.41.126,lexical_decision_task_MP,2020.1.3,Win32,60,m,1,0.921955,,,,,,,,0.921955,1,,,,,,70,WORD,"ID",33,square,SQUARE,m,,,,,,0.653703727,0.379629628,0,0,0,,0,394,394,9,1,,
,,,,,,,,,,,,,,,,,,5d8da90433afc60017fae3d3,2020-08-10_18h20.41.126,lexical_decision_task_MP,2020.1.3,Win32,60,z,1,0.847075,,,,,,,,0.847075,1,,,,,,352,NW,"ID",33,tringe,TRINGE,z,,,,,,0.653703727,0.379629628,0,0,0,,0,395,395,291,1,,
,,,,,,,,,,,,,,,,,,5d8da90433afc60017fae3d3,2020-08-10_18h20.41.126,lexical_decision_task_MP,2020.1.3,Win32,60,z,1,0.55117,,,,,,,,0.55117,1,,,,,,302,NW,"ID",33,miluer,MILUER,z,,,,,,0.653703727,0.379629628,0,0,0,,0,396,396,241,1,,
,,,,,,,,,,,,,,,,,,5d8da90433afc60017fae3d3,2020-08-10_18h20.41.126,lexical_decision_task_MP,2020.1.3,Win32,60,m,1,0.651375,,,,,,,,0.651375,1,,,,,,74,WORD,"ID",33,plaque,PLAQUE,m,,,,,,0.653703727,0.379629628,0,0,0,,0,397,397,13,1,,
,,,,,,,,,,,,,,,,,,5d8da90433afc60017fae3d3,2020-08-10_18h20.41.126,lexical_decision_task_MP,2020.1.3,Win32,60,m,1,0.54591,,,,,,,,0.54591,1,,,,,,21,WORD,UN,50,jockey,SIMPLE,m,,,,,,0.653703727,0.379629628,0,0,0,,0,398,398,200,1,,
,,,,,,,,,,,,,,,,,,5d8da90433afc60017fae3d3,2020-08-10_18h20.41.126,lexical_decision_task_MP,2020.1.3,Win32,60,z,1,0.75352,,,,,,,,0.75352,1,,,,,,342,NW,"ID",33,randow,RANDOW,z,,,,,,0.653703727,0.379629628,0,0,0,,0,399,399,281,1,,
,,,,,,,,,,,,,,,,,,5d8da90433afc60017fae3d3,2020-08-10_18h20.41.126,lexical_decision_task_MP,2020.1.3,Win32,60,z,1,0.62972,,,,,,,,0.62972,1,,,,,,327,NW,"ID",33,plenac,PLENAC,z,,,,,,0.653703727,0.379629628,0,0,0,,0,400,400,266,1,,
,,,,,,,,,,,,,,,,,,5d8da90433afc60017fae3d3,2020-08-10_18h20.41.126,lexical_decision_task_MP,2020.1.3,Win32,60,m,1,0.55387,,,,,,,,0.55387,1,,,,,,140,WORD,"ID",50,prince,PRINCE,m,,,,,,0.653703727,0.379629628,0,0,0,,0,401,401,79,1,,
,,,,,,,,,,,,,,,,,,5d8da90433afc60017fae3d3,2020-08-10_18h20.41.126,lexical_decision_task_MP,2020.1.3,Win32,60,m,1,0.665645,,,,,,,,0.665645,1,,,,,,192,WORD,UN,33,object,PLAGUE,m,,,,,,0.653703727,0.379629628,0,0,0,,0,402,402,131,1,,
