counterbalancing_condition,instr_done_keyboard.keys,instr_done_keyboard.rt,instr_done_touch.x,instr_done_touch.y,instr_done_touch.leftButton,instr_done_touch.midButton,instr_done_touch.rightButton,instruction_pages.thisRepN,instruction_pages.thisTrialN,instruction_pages.thisN,instruction_pages.thisIndex,instruction_pages.ran,pageN,phase,instruct_text,has_image,instruct_image,participant,date,expName,psychopyVersion,OS,frameRate,response.keys,response.corr,touch_resp.x,touch_resp.y,touch_resp.leftButton,touch_resp.midButton,touch_resp.rightButton,touch_resp.time,touch_resp.clicked_name,rt,corr,practice_trials.thisRepN,practice_trials.thisTrialN,practice_trials.thisN,practice_trials.thisIndex,practice_trials.ran,TrialID,StimulusType,Condition,PrimeDuration,Prime,Target,corrAns,response.rt,end_of_practice_trials_pages.thisRepN,end_of_practice_trials_pages.thisTrialN,end_of_practice_trials_pages.thisN,end_of_practice_trials_pages.thisIndex,end_of_practice_trials_pages.ran,break_done_touch.x,break_done_touch.y,break_done_touch.leftButton,break_done_touch.midButton,break_done_touch.rightButton,break_done_keyboard.keys,trials.thisRepN,trials.thisTrialN,trials.thisN,trials.thisIndex,trials.ran,break_done_keyboard.rt
2,space,9.647955,0.130555571,-0.301851864,0,0,0,0,0,0,0,1,1,instructions,"INSTRUCTIONS
At the start of each trial, look at the hash marks (######) in the center of the screen. After a moment, a string of letters will appear. Your task is to indicate if the letter string forms a word or not (i.e., if it is a nonword). For example, AUTHOR is a word while AUTHON is a nonword.

Press the space bar or touch the button below to continue.",0,,5d9312aa39412f00187c5490,2020-08-10_16h25.49.897,lexical_decision_task_MP,2020.1.3,Win32,60,,,,,,,,,,,,,,,,,,,,,,,,,,,,,,,,,,,,,,,,,
,space,7.33488,0.130555571,-0.301851864,0,0,0,0,1,1,1,1,2,instructions,"If your device has a keyboard, press the 'Z' key for nonwords and the 'M' key for words.





Press the space bar or touch the button below to continue.",1,keyboard-example.gif,5d9312aa39412f00187c5490,2020-08-10_16h25.49.897,lexical_decision_task_MP,2020.1.3,Win32,60,,,,,,,,,,,,,,,,,,,,,,,,,,,,,,,,,,,,,,,,,
,space,3.71812,0.130555571,-0.301851864,0,0,0,0,2,2,2,1,3,instructions,"If you are using a touchscreen only device, use the buttons on the screen. Do not use the mouse.





Press the space bar or touch the button below to continue.",1,touchscreen-example.gif,5d9312aa39412f00187c5490,2020-08-10_16h25.49.897,lexical_decision_task_MP,2020.1.3,Win32,60,,,,,,,,,,,,,,,,,,,,,,,,,,,,,,,,,,,,,,,,,
,space,9.59184,0.130555571,-0.301851864,0,0,0,0,3,3,3,1,4,instructions,"It is very important that you respond as quickly and accurately as possible, as each letter string will only be on the screen for two seconds. If you do not respond within this time, the message 'Too slow!' will be displayed and the experiment will progress to the next letter string. The first 20 trials will be practice trials and you will receive feedback on your answers. 

Press the space bar or touch the button below to start the practice trials.",0,,5d9312aa39412f00187c5490,2020-08-10_16h25.49.897,lexical_decision_task_MP,2020.1.3,Win32,60,,,,,,,,,,,,,,,,,,,,,,,,,,,,,,,,,,,,,,,,,
,,,,,,,,,,,,,,,,,,5d9312aa39412f00187c5490,2020-08-10_16h25.49.897,lexical_decision_task_MP,2020.1.3,Win32,60,,0,,,,,,,,,-1,0,0,0,14,1,1015,NW,UN,50,miaber,THRALE,z,,,,,,,,,,,,,,,,,,
,,,,,,,,,,,,,,,,,,5d9312aa39412f00187c5490,2020-08-10_16h25.49.897,lexical_decision_task_MP,2020.1.3,Win32,60,m,1,,,,,,,,1.692335,1,0,1,1,4,1,1005,WORD,UN,33,abound,SQUEAK,m,1.692335,,,,,,,,,,,,,,,,,
,,,,,,,,,,,,,,,,,,5d9312aa39412f00187c5490,2020-08-10_16h25.49.897,lexical_decision_task_MP,2020.1.3,Win32,60,,0,0.130555571,-0.301851864,1,0,0,1.5887,,1.692335,-1,0,2,2,8,1,1009,NW,"ID",33,aslert,ASLERT,z,,,,,,,,,,,,,,,,,,
,,,,,,,,,,,,,,,,,,5d9312aa39412f00187c5490,2020-08-10_16h25.49.897,lexical_decision_task_MP,2020.1.3,Win32,60,m,1,,,,,,,,1.94409,1,0,3,3,6,1,1007,WORD,UN,50,tropic,ZOMBIE,m,1.94409,,,,,,,,,,,,,,,,,
,,,,,,,,,,,,,,,,,,5d9312aa39412f00187c5490,2020-08-10_16h25.49.897,lexical_decision_task_MP,2020.1.3,Win32,60,m,1,,,,,,,,0.795505,1,0,4,4,2,1,1003,WORD,"ID",50,almond,ALMOND,m,0.795505,,,,,,,,,,,,,,,,,
,,,,,,,,,,,,,,,,,,5d9312aa39412f00187c5490,2020-08-10_16h25.49.897,lexical_decision_task_MP,2020.1.3,Win32,60,z,1,,,,,,,,1.14126,1,0,5,5,9,1,1010,NW,"ID",33,fariny,FARINY,z,1.14126,,,,,,,,,,,,,,,,,
,,,,,,,,,,,,,,,,,,5d9312aa39412f00187c5490,2020-08-10_16h25.49.897,lexical_decision_task_MP,2020.1.3,Win32,60,m,1,,,,,,,,1.059915,1,0,6,6,7,1,1008,WORD,UN,50,hurdle,VOLUME,m,1.059915,,,,,,,,,,,,,,,,,
,,,,,,,,,,,,,,,,,,5d9312aa39412f00187c5490,2020-08-10_16h25.49.897,lexical_decision_task_MP,2020.1.3,Win32,60,m,1,,,,,,,,0.64481,1,0,7,7,3,1,1004,WORD,"ID",50,matrix,MATRIX,m,0.64481,,,,,,,,,,,,,,,,,
,,,,,,,,,,,,,,,,,,5d9312aa39412f00187c5490,2020-08-10_16h25.49.897,lexical_decision_task_MP,2020.1.3,Win32,60,z,1,,,,,,,,1.062565,1,0,8,8,10,1,1011,NW,"ID",50,inlade,INLADE,z,1.062565,,,,,,,,,,,,,,,,,
,,,,,,,,,,,,,,,,,,5d9312aa39412f00187c5490,2020-08-10_16h25.49.897,lexical_decision_task_MP,2020.1.3,Win32,60,z,1,,,,,,,,1.114965,1,0,9,9,12,1,1013,NW,UN,33,adveil,SPRINY,z,1.114965,,,,,,,,,,,,,,,,,
,,,,,,,,,,,,,,,,,,5d9312aa39412f00187c5490,2020-08-10_16h25.49.897,lexical_decision_task_MP,2020.1.3,Win32,60,m,0,,,,,,,,1.242935,0,0,10,10,15,1,1016,NW,UN,50,mushed,WHAISE,z,1.242935,,,,,,,,,,,,,,,,,
,,,,,,,,,,,,,,,,,,5d9312aa39412f00187c5490,2020-08-10_16h25.49.897,lexical_decision_task_MP,2020.1.3,Win32,60,z,1,,,,,,,,1.013145,1,0,11,11,13,1,1014,NW,UN,33,winfer,ROUPET,z,1.013145,,,,,,,,,,,,,,,,,
,,,,,,,,,,,,,,,,,,5d9312aa39412f00187c5490,2020-08-10_16h25.49.897,lexical_decision_task_MP,2020.1.3,Win32,60,m,1,,,,,,,,0.733125,1,0,12,12,0,1,1001,WORD,"ID",33,utopia,UTOPIA,m,0.733125,,,,,,,,,,,,,,,,,
,,,,,,,,,,,,,,,,,,5d9312aa39412f00187c5490,2020-08-10_16h25.49.897,lexical_decision_task_MP,2020.1.3,Win32,60,z,1,,,,,,,,0.984475,1,0,13,13,11,1,1012,NW,"ID",50,rashet,RASHET,z,0.984475,,,,,,,,,,,,,,,,,
,,,,,,,,,,,,,,,,,,5d9312aa39412f00187c5490,2020-08-10_16h25.49.897,lexical_decision_task_MP,2020.1.3,Win32,60,m,1,,,,,,,,0.64833,1,0,14,14,5,1,1006,WORD,UN,33,frenzy,OBTAIN,m,0.64833,,,,,,,,,,,,,,,,,
,,,,,,,,,,,,,,,,,,5d9312aa39412f00187c5490,2020-08-10_16h25.49.897,lexical_decision_task_MP,2020.1.3,Win32,60,m,1,,,,,,,,0.583595,1,0,15,15,1,1,1002,WORD,"ID",33,adjust,ADJUST,m,0.583595,,,,,,,,,,,,,,,,,
,space,5.60187,0.130555571,-0.301851864,0,0,0,,,,,,1,end_of_practice,"You have completed the practice trials. During the experimental trials, you will not receive feedback, but it is very important that you respond as quickly and accurately as possible. 
Before you begin, please ensure that you are in a comfortable and quiet location and will not be disturbed for about 15 minutes, as we cannot use your data if you do not complete all the trials. 
There will be opportunities to take breaks at regular intervals during the experiment. When you are ready to start the experimental trials, please press space or touch the button below.",,,5d9312aa39412f00187c5490,2020-08-10_16h25.49.897,lexical_decision_task_MP,2020.1.3,Win32,60,,,,,,,,,,,,,,,,,,,,,,,,,0,0,0,0,1,,,,,,,,,,,,
,,,,,,,,,,,,,,,,,,5d9312aa39412f00187c5490,2020-08-10_16h25.49.897,lexical_decision_task_MP,2020.1.3,Win32,60,z,1,,,,,,,,1.07816,1,,,,,,384,NW,"ID",50,guesco,GUESCO,z,1.07816,,,,,,0.130555571,-0.301851864,0,0,0,,0,0,0,323,1,
,,,,,,,,,,,,,,,,,,5d9312aa39412f00187c5490,2020-08-10_16h25.49.897,lexical_decision_task_MP,2020.1.3,Win32,60,m,1,,,,,,,,0.77848,1,,,,,,61,WORD,"ID",33,ponder,PONDER,m,0.77848,,,,,,0.130555571,-0.301851864,0,0,0,,0,1,1,0,1,
,,,,,,,,,,,,,,,,,,5d9312aa39412f00187c5490,2020-08-10_16h25.49.897,lexical_decision_task_MP,2020.1.3,Win32,60,z,1,,,,,,,,0.962625,1,,,,,,339,NW,"ID",33,fachow,FACHOW,z,0.962625,,,,,,0.130555571,-0.301851864,0,0,0,,0,2,2,278,1,
,,,,,,,,,,,,,,,,,,5d9312aa39412f00187c5490,2020-08-10_16h25.49.897,lexical_decision_task_MP,2020.1.3,Win32,60,z,1,,,,,,,,0.995305,1,,,,,,456,NW,UN,33,wanigh,BROGET,z,0.995305,,,,,,0.130555571,-0.301851864,0,0,0,,0,3,3,395,1,
,,,,,,,,,,,,,,,,,,5d9312aa39412f00187c5490,2020-08-10_16h25.49.897,lexical_decision_task_MP,2020.1.3,Win32,60,m,1,,,,,,,,0.692925,1,,,,,,92,WORD,"ID",33,strand,STRAND,m,0.692925,,,,,,0.130555571,-0.301851864,0,0,0,,0,4,4,31,1,
,,,,,,,,,,,,,,,,,,5d9312aa39412f00187c5490,2020-08-10_16h25.49.897,lexical_decision_task_MP,2020.1.3,Win32,60,z,1,,,,,,,,0.94657,1,,,,,,431,NW,UN,33,lunker,CHRUMS,z,0.94657,,,,,,0.130555571,-0.301851864,0,0,0,,0,5,5,370,1,
,,,,,,,,,,,,,,,,,,5d9312aa39412f00187c5490,2020-08-10_16h25.49.897,lexical_decision_task_MP,2020.1.3,Win32,60,z,1,,,,,,,,1.046255,1,,,,,,271,NW,UN,50,damilt,AUBRID,z,1.046255,,,,,,0.130555571,-0.301851864,0,0,0,,0,6,6,450,1,
,,,,,,,,,,,,,,,,,,5d9312aa39412f00187c5490,2020-08-10_16h25.49.897,lexical_decision_task_MP,2020.1.3,Win32,60,m,1,,,,,,,,0.715075,1,,,,,,113,WORD,"ID",33,chorus,CHORUS,m,0.715075,,,,,,0.130555571,-0.301851864,0,0,0,,0,7,7,52,1,
,,,,,,,,,,,,,,,,,,5d9312aa39412f00187c5490,2020-08-10_16h25.49.897,lexical_decision_task_MP,2020.1.3,Win32,60,z,1,,,,,,,,1.09581,1,,,,,,305,NW,"ID",33,forgle,FORGLE,z,1.09581,,,,,,0.130555571,-0.301851864,0,0,0,,0,8,8,244,1,
,,,,,,,,,,,,,,,,,,5d9312aa39412f00187c5490,2020-08-10_16h25.49.897,lexical_decision_task_MP,2020.1.3,Win32,60,m,1,,,,,,,,0.67907,1,,,,,,205,WORD,UN,33,tailor,LOUNGE,m,0.67907,,,,,,0.130555571,-0.301851864,0,0,0,,0,9,9,144,1,
,,,,,,,,,,,,,,,,,,5d9312aa39412f00187c5490,2020-08-10_16h25.49.897,lexical_decision_task_MP,2020.1.3,Win32,60,m,1,,,,,,,,0.53382,1,,,,,,83,WORD,"ID",33,result,RESULT,m,0.53382,,,,,,0.130555571,-0.301851864,0,0,0,,0,10,10,22,1,
,,,,,,,,,,,,,,,,,,5d9312aa39412f00187c5490,2020-08-10_16h25.49.897,lexical_decision_task_MP,2020.1.3,Win32,60,z,1,,,,,,,,1.004805,1,,,,,,398,NW,"ID",50,blunde,BLUNDE,z,1.004805,,,,,,0.130555571,-0.301851864,0,0,0,,0,11,11,337,1,
,,,,,,,,,,,,,,,,,,5d9312aa39412f00187c5490,2020-08-10_16h25.49.897,lexical_decision_task_MP,2020.1.3,Win32,60,z,1,,,,,,,,1.03329,1,,,,,,391,NW,"ID",50,theldy,THELDY,z,1.03329,,,,,,0.130555571,-0.301851864,0,0,0,,0,12,12,330,1,
,,,,,,,,,,,,,,,,,,5d9312aa39412f00187c5490,2020-08-10_16h25.49.897,lexical_decision_task_MP,2020.1.3,Win32,60,m,0,,,,,,,,0.829055,0,,,,,,425,NW,UN,33,urivel,FRUDGE,z,0.829055,,,,,,0.130555571,-0.301851864,0,0,0,,0,13,13,364,1,
,,,,,,,,,,,,,,,,,,5d9312aa39412f00187c5490,2020-08-10_16h25.49.897,lexical_decision_task_MP,2020.1.3,Win32,60,z,1,0.130555571,-0.301851864,1,0,0,0.86725,,1.10433,1,,,,,,416,NW,"ID",50,pathel,PATHEL,z,1.10433,,,,,,0.130555571,-0.301851864,0,0,0,,0,14,14,355,1,
,,,,,,,,,,,,,,,,,,5d9312aa39412f00187c5490,2020-08-10_16h25.49.897,lexical_decision_task_MP,2020.1.3,Win32,60,m,1,,,,,,,,0.683985,1,,,,,,178,WORD,"ID",50,inform,INFORM,m,0.683985,,,,,,0.130555571,-0.301851864,0,0,0,,0,15,15,117,1,
,,,,,,,,,,,,,,,,,,5d9312aa39412f00187c5490,2020-08-10_16h25.49.897,lexical_decision_task_MP,2020.1.3,Win32,60,m,1,,,,,,,,0.547075,1,,,,,,66,WORD,"ID",33,gospel,GOSPEL,m,0.547075,,,,,,0.130555571,-0.301851864,0,0,0,,0,16,16,5,1,
,,,,,,,,,,,,,,,,,,5d9312aa39412f00187c5490,2020-08-10_16h25.49.897,lexical_decision_task_MP,2020.1.3,Win32,60,z,1,,,,,,,,0.93265,1,,,,,,324,NW,"ID",33,steikh,STEIKH,z,0.93265,,,,,,0.130555571,-0.301851864,0,0,0,,0,17,17,263,1,
,,,,,,,,,,,,,,,,,,5d9312aa39412f00187c5490,2020-08-10_16h25.49.897,lexical_decision_task_MP,2020.1.3,Win32,60,m,1,,,,,,,,0.51421,1,,,,,,76,WORD,"ID",33,exotic,EXOTIC,m,0.51421,,,,,,0.130555571,-0.301851864,0,0,0,,0,18,18,15,1,
,,,,,,,,,,,,,,,,,,5d9312aa39412f00187c5490,2020-08-10_16h25.49.897,lexical_decision_task_MP,2020.1.3,Win32,60,z,1,,,,,,,,0.876215,1,,,,,,344,NW,"ID",33,scrily,SCRILY,z,0.876215,,,,,,0.130555571,-0.301851864,0,0,0,,0,19,19,283,1,
,,,,,,,,,,,,,,,,,,5d9312aa39412f00187c5490,2020-08-10_16h25.49.897,lexical_decision_task_MP,2020.1.3,Win32,60,m,1,,,,,,,,0.483325,1,,,,,,78,WORD,"ID",33,column,COLUMN,m,0.483325,,,,,,0.130555571,-0.301851864,0,0,0,,0,20,20,17,1,
,,,,,,,,,,,,,,,,,,5d9312aa39412f00187c5490,2020-08-10_16h25.49.897,lexical_decision_task_MP,2020.1.3,Win32,60,m,1,,,,,,,,0.435405,1,,,,,,171,WORD,"ID",50,depart,DEPART,m,0.435405,,,,,,0.130555571,-0.301851864,0,0,0,,0,21,21,110,1,
,,,,,,,,,,,,,,,,,,5d9312aa39412f00187c5490,2020-08-10_16h25.49.897,lexical_decision_task_MP,2020.1.3,Win32,60,m,1,,,,,,,,0.54803,1,,,,,,192,WORD,UN,33,object,PLAGUE,m,0.54803,,,,,,0.130555571,-0.301851864,0,0,0,,0,22,22,131,1,
,,,,,,,,,,,,,,,,,,5d9312aa39412f00187c5490,2020-08-10_16h25.49.897,lexical_decision_task_MP,2020.1.3,Win32,60,m,1,,,,,,,,0.53067,1,,,,,,138,WORD,"ID",50,melody,MELODY,m,0.53067,,,,,,0.130555571,-0.301851864,0,0,0,,0,23,23,77,1,
,,,,,,,,,,,,,,,,,,5d9312aa39412f00187c5490,2020-08-10_16h25.49.897,lexical_decision_task_MP,2020.1.3,Win32,60,m,1,,,,,,,,0.5113,1,,,,,,120,WORD,"ID",33,strain,STRAIN,m,0.5113,,,,,,0.130555571,-0.301851864,0,0,0,,0,24,24,59,1,
,,,,,,,,,,,,,,,,,,5d9312aa39412f00187c5490,2020-08-10_16h25.49.897,lexical_decision_task_MP,2020.1.3,Win32,60,z,1,,,,,,,,0.98015,1,,,,,,269,NW,UN,50,wrimsy,ORCHET,z,0.98015,,,,,,0.130555571,-0.301851864,0,0,0,,0,25,25,448,1,
,,,,,,,,,,,,,,,,,,5d9312aa39412f00187c5490,2020-08-10_16h25.49.897,lexical_decision_task_MP,2020.1.3,Win32,60,m,1,,,,,,,,0.498225,1,,,,,,146,WORD,"ID",50,couple,COUPLE,m,0.498225,,,,,,0.130555571,-0.301851864,0,0,0,,0,26,26,85,1,
,,,,,,,,,,,,,,,,,,5d9312aa39412f00187c5490,2020-08-10_16h25.49.897,lexical_decision_task_MP,2020.1.3,Win32,60,m,1,,,,,,,,0.482015,1,,,,,,110,WORD,"ID",33,polite,POLITE,m,0.482015,,,,,,0.130555571,-0.301851864,0,0,0,,0,27,27,49,1,
,,,,,,,,,,,,,,,,,,5d9312aa39412f00187c5490,2020-08-10_16h25.49.897,lexical_decision_task_MP,2020.1.3,Win32,60,z,1,,,,,,,,0.930745,1,,,,,,355,NW,"ID",33,zingly,ZINGLY,z,0.930745,,,,,,0.130555571,-0.301851864,0,0,0,,0,28,28,294,1,
,,,,,,,,,,,,,,,,,,5d9312aa39412f00187c5490,2020-08-10_16h25.49.897,lexical_decision_task_MP,2020.1.3,Win32,60,m,0,,,,,,,,0.501995,0,,,,,,319,NW,"ID",33,zomber,ZOMBER,z,0.501995,,,,,,0.130555571,-0.301851864,0,0,0,,0,29,29,258,1,
,,,,,,,,,,,,,,,,,,5d9312aa39412f00187c5490,2020-08-10_16h25.49.897,lexical_decision_task_MP,2020.1.3,Win32,60,z,1,,,,,,,,0.84474,1,,,,,,283,NW,UN,50,shaple,VERALF,z,0.84474,,,,,,0.130555571,-0.301851864,0,0,0,,0,30,30,462,1,
,,,,,,,,,,,,,,,,,,5d9312aa39412f00187c5490,2020-08-10_16h25.49.897,lexical_decision_task_MP,2020.1.3,Win32,60,m,1,,,,,,,,0.729555,1,,,,,,168,WORD,"ID",50,answer,ANSWER,m,0.729555,,,,,,0.130555571,-0.301851864,0,0,0,,0,31,31,107,1,
,,,,,,,,,,,,,,,,,,5d9312aa39412f00187c5490,2020-08-10_16h25.49.897,lexical_decision_task_MP,2020.1.3,Win32,60,m,1,,,,,,,,0.529725,1,,,,,,87,WORD,"ID",33,filter,FILTER,m,0.529725,,,,,,0.130555571,-0.301851864,0,0,0,,0,32,32,26,1,
,,,,,,,,,,,,,,,,,,5d9312aa39412f00187c5490,2020-08-10_16h25.49.897,lexical_decision_task_MP,2020.1.3,Win32,60,z,1,,,,,,,,0.836595,1,,,,,,412,NW,"ID",50,jiluer,JILUER,z,0.836595,,,,,,0.130555571,-0.301851864,0,0,0,,0,33,33,351,1,
,,,,,,,,,,,,,,,,,,5d9312aa39412f00187c5490,2020-08-10_16h25.49.897,lexical_decision_task_MP,2020.1.3,Win32,60,z,1,,,,,,,,1.001915,1,,,,,,423,NW,UN,33,praile,STRELD,z,1.001915,,,,,,0.130555571,-0.301851864,0,0,0,,0,34,34,362,1,
,,,,,,,,,,,,,,,,,,5d9312aa39412f00187c5490,2020-08-10_16h25.49.897,lexical_decision_task_MP,2020.1.3,Win32,60,z,1,,,,,,,,0.92666,1,,,,,,397,NW,"ID",50,camble,CAMBLE,z,0.92666,,,,,,0.130555571,-0.301851864,0,0,0,,0,35,35,336,1,
,,,,,,,,,,,,,,,,,,5d9312aa39412f00187c5490,2020-08-10_16h25.49.897,lexical_decision_task_MP,2020.1.3,Win32,60,z,1,,,,,,,,0.48058,1,,,,,,272,NW,UN,50,sortel,DAMILT,z,0.48058,,,,,,0.130555571,-0.301851864,0,0,0,,0,36,36,451,1,
,,,,,,,,,,,,,,,,,,5d9312aa39412f00187c5490,2020-08-10_16h25.49.897,lexical_decision_task_MP,2020.1.3,Win32,60,z,1,,,,,,,,0.50387,1,,,,,,439,NW,UN,33,saride,LIMPOR,z,0.50387,,,,,,0.130555571,-0.301851864,0,0,0,,0,37,37,378,1,
,,,,,,,,,,,,,,,,,,5d9312aa39412f00187c5490,2020-08-10_16h25.49.897,lexical_decision_task_MP,2020.1.3,Win32,60,m,1,,,,,,,,0.627415,1,,,,,,55,WORD,UN,50,ambush,STROKE,m,0.627415,,,,,,0.130555571,-0.301851864,0,0,0,,0,38,38,234,1,
,,,,,,,,,,,,,,,,,,5d9312aa39412f00187c5490,2020-08-10_16h25.49.897,lexical_decision_task_MP,2020.1.3,Win32,60,z,1,,,,,,,,1.48177,1,,,,,,477,NW,UN,33,lobush,PHOTIE,z,1.48177,,,,,,0.130555571,-0.301851864,0,0,0,,0,39,39,416,1,
,,,,,,,,,,,,,,,,,,5d9312aa39412f00187c5490,2020-08-10_16h25.49.897,lexical_decision_task_MP,2020.1.3,Win32,60,z,1,,,,,,,,1.017025,1,,,,,,289,NW,UN,50,splino,STARBY,z,1.017025,,,,,,0.130555571,-0.301851864,0,0,0,,0,40,40,468,1,
,,,,,,,,,,,,,,,,,,5d9312aa39412f00187c5490,2020-08-10_16h25.49.897,lexical_decision_task_MP,2020.1.3,Win32,60,m,1,,,,,,,,0.580265,1,,,,,,34,WORD,UN,50,socket,JUNGLE,m,0.580265,,,,,,0.130555571,-0.301851864,0,0,0,,0,41,41,213,1,
,,,,,,,,,,,,,,,,,,5d9312aa39412f00187c5490,2020-08-10_16h25.49.897,lexical_decision_task_MP,2020.1.3,Win32,60,m,1,,,,,,,,0.492995,1,,,,,,155,WORD,"ID",50,lizard,LIZARD,m,0.492995,,,,,,0.130555571,-0.301851864,0,0,0,,0,42,42,94,1,
,,,,,,,,,,,,,,,,,,5d9312aa39412f00187c5490,2020-08-10_16h25.49.897,lexical_decision_task_MP,2020.1.3,Win32,60,m,1,,,,,,,,0.4216,1,,,,,,175,WORD,"ID",50,fabric,FABRIC,m,0.4216,,,,,,0.130555571,-0.301851864,0,0,0,,0,43,43,114,1,
,,,,,,,,,,,,,,,,,,5d9312aa39412f00187c5490,2020-08-10_16h25.49.897,lexical_decision_task_MP,2020.1.3,Win32,60,z,1,,,,,,,,0.99476,1,,,,,,386,NW,"ID",50,ancust,ANCUST,z,0.99476,,,,,,0.130555571,-0.301851864,0,0,0,,0,44,44,325,1,
,,,,,,,,,,,,,,,,,,5d9312aa39412f00187c5490,2020-08-10_16h25.49.897,lexical_decision_task_MP,2020.1.3,Win32,60,m,1,,,,,,,,0.714205,1,,,,,,102,WORD,"ID",33,direct,DIRECT,m,0.714205,,,,,,0.130555571,-0.301851864,0,0,0,,0,45,45,41,1,
,,,,,,,,,,,,,,,,,,5d9312aa39412f00187c5490,2020-08-10_16h25.49.897,lexical_decision_task_MP,2020.1.3,Win32,60,z,1,,,,,,,,1.21033,1,,,,,,407,NW,"ID",50,suiver,SUIVER,z,1.21033,,,,,,0.130555571,-0.301851864,0,0,0,,0,46,46,346,1,
,,,,,,,,,,,,,,,,,,5d9312aa39412f00187c5490,2020-08-10_16h25.49.897,lexical_decision_task_MP,2020.1.3,Win32,60,m,1,,,,,,,,0.55048,1,,,,,,218,WORD,UN,33,bucket,SHRINK,m,0.55048,,,,,,0.130555571,-0.301851864,0,0,0,,0,47,47,157,1,
,,,,,,,,,,,,,,,,,,5d9312aa39412f00187c5490,2020-08-10_16h25.49.897,lexical_decision_task_MP,2020.1.3,Win32,60,m,1,,,,,,,,0.4529,1,,,,,,112,WORD,"ID",33,breath,BREATH,m,0.4529,,,,,,0.130555571,-0.301851864,0,0,0,,0,48,48,51,1,
,,,,,,,,,,,,,,,,,,5d9312aa39412f00187c5490,2020-08-10_16h25.49.897,lexical_decision_task_MP,2020.1.3,Win32,60,z,1,,,,,,,,0.945975,1,,,,,,256,NW,UN,50,veniod,INLORS,z,0.945975,,,,,,0.130555571,-0.301851864,0,0,0,,0,49,49,435,1,
,,,,,,,,,,,,,,,,,,5d9312aa39412f00187c5490,2020-08-10_16h25.49.897,lexical_decision_task_MP,2020.1.3,Win32,60,z,1,,,,,,,,1.106335,1,,,,,,461,NW,UN,33,absult,JUSTRE,z,1.106335,,,,,,0.130555571,-0.301851864,0,0,0,,0,50,50,400,1,
,,,,,,,,,,,,,,,,,,5d9312aa39412f00187c5490,2020-08-10_16h25.49.897,lexical_decision_task_MP,2020.1.3,Win32,60,z,1,,,,,,,,0.885195,1,,,,,,337,NW,"ID",33,rejols,REJOLS,z,0.885195,,,,,,0.130555571,-0.301851864,0,0,0,,0,51,51,276,1,
,,,,,,,,,,,,,,,,,,5d9312aa39412f00187c5490,2020-08-10_16h25.49.897,lexical_decision_task_MP,2020.1.3,Win32,60,z,1,,,,,,,,0.80361,1,,,,,,325,NW,"ID",33,thruse,THRUSE,z,0.80361,,,,,,0.130555571,-0.301851864,0,0,0,,0,52,52,264,1,
,,,,,,,,,,,,,,,,,,5d9312aa39412f00187c5490,2020-08-10_16h25.49.897,lexical_decision_task_MP,2020.1.3,Win32,60,z,0,,,,,,,,0.4656,0,,,,,,170,WORD,"ID",50,pounce,POUNCE,m,0.4656,,,,,,0.075000014,-0.335185254,0,0,0,,0,53,53,109,1,
,,,,,,,,,,,,,,,,,,5d9312aa39412f00187c5490,2020-08-10_16h25.49.897,lexical_decision_task_MP,2020.1.3,Win32,60,z,1,,,,,,,,0.9813,1,,,,,,332,NW,"ID",33,vangue,VANGUE,z,0.9813,,,,,,0.075000014,-0.335185254,0,0,0,,0,54,54,271,1,
,,,,,,,,,,,,,,,,,,5d9312aa39412f00187c5490,2020-08-10_16h25.49.897,lexical_decision_task_MP,2020.1.3,Win32,60,m,1,,,,,,,,0.664985,1,,,,,,116,WORD,"ID",33,tumble,TUMBLE,m,0.664985,,,,,,0.075000014,-0.335185254,0,0,0,,0,55,55,55,1,
,,,,,,,,,,,,,,,,,,5d9312aa39412f00187c5490,2020-08-10_16h25.49.897,lexical_decision_task_MP,2020.1.3,Win32,60,z,1,,,,,,,,1.009545,1,,,,,,360,NW,"ID",33,desory,DESORY,z,1.009545,,,,,,0.075000014,-0.335185254,0,0,0,,0,56,56,299,1,
,,,,,,,,,,,,,,,,,,5d9312aa39412f00187c5490,2020-08-10_16h25.49.897,lexical_decision_task_MP,2020.1.3,Win32,60,z,1,,,,,,,,0.929255,1,,,,,,394,NW,"ID",50,spaqux,SPAQUX,z,0.929255,,,,,,0.075000014,-0.335185254,0,0,0,,0,57,57,333,1,
,,,,,,,,,,,,,,,,,,5d9312aa39412f00187c5490,2020-08-10_16h25.49.897,lexical_decision_task_MP,2020.1.3,Win32,60,z,1,,,,,,,,0.83824,1,,,,,,258,NW,UN,50,soudal,POLUTH,z,0.83824,,,,,,0.075000014,-0.335185254,0,0,0,,0,58,58,437,1,
,,,,,,,,,,,,,,,,,,5d9312aa39412f00187c5490,2020-08-10_16h25.49.897,lexical_decision_task_MP,2020.1.3,Win32,60,z,1,,,,,,,,0.46132,1,,,,,,383,NW,"ID",50,aungre,AUNGRE,z,0.46132,,,,,,0.075000014,-0.335185254,0,0,0,,0,59,59,322,1,
,,,,,,,,,,,,,,,,,,5d9312aa39412f00187c5490,2020-08-10_16h25.49.897,lexical_decision_task_MP,2020.1.3,Win32,60,m,1,,,,,,,,0.846045,1,,,,,,150,WORD,"ID",50,random,RANDOM,m,0.846045,,,,,,0.075000014,-0.335185254,0,0,0,,0,60,60,89,1,
,,,,,,,,,,,,,,,,,,5d9312aa39412f00187c5490,2020-08-10_16h25.49.897,lexical_decision_task_MP,2020.1.3,Win32,60,z,1,,,,,,,,0.86831,1,,,,,,350,NW,"ID",33,nagurs,NAGURS,z,0.86831,,,,,,0.075000014,-0.335185254,0,0,0,,0,61,61,289,1,
,,,,,,,,,,,,,,,,,,5d9312aa39412f00187c5490,2020-08-10_16h25.49.897,lexical_decision_task_MP,2020.1.3,Win32,60,m,0,,,,,,,,0.778715,0,,,,,,314,NW,"ID",33,sprine,SPRINE,z,0.778715,,,,,,0.075000014,-0.335185254,0,0,0,,0,62,62,253,1,
,,,,,,,,,,,,,,,,,,5d9312aa39412f00187c5490,2020-08-10_16h25.49.897,lexical_decision_task_MP,2020.1.3,Win32,60,m,1,,,,,,,,0.897115,1,,,,,,219,WORD,UN,33,voyage,BUCKET,m,0.897115,,,,,,0.075000014,-0.335185254,0,0,0,,0,63,63,158,1,
,,,,,,,,,,,,,,,,,,5d9312aa39412f00187c5490,2020-08-10_16h25.49.897,lexical_decision_task_MP,2020.1.3,Win32,60,m,1,,,,,,,,0.782375,1,,,,,,84,WORD,"ID",33,mortal,MORTAL,m,0.782375,,,,,,0.075000014,-0.335185254,0,0,0,,0,64,64,23,1,
,,,,,,,,,,,,,,,,,,5d9312aa39412f00187c5490,2020-08-10_16h25.49.897,lexical_decision_task_MP,2020.1.3,Win32,60,z,1,,,,,,,,1.11354,1,,,,,,354,NW,"ID",33,virlex,VIRLEX,z,1.11354,,,,,,0.075000014,-0.335185254,0,0,0,,0,65,65,293,1,
,,,,,,,,,,,,,,,,,,5d9312aa39412f00187c5490,2020-08-10_16h25.49.897,lexical_decision_task_MP,2020.1.3,Win32,60,m,1,,,,,,,,0.913195,1,,,,,,132,WORD,"ID",50,strong,STRONG,m,0.913195,,,,,,0.075000014,-0.335185254,0,0,0,,0,66,66,71,1,
,,,,,,,,,,,,,,,,,,5d9312aa39412f00187c5490,2020-08-10_16h25.49.897,lexical_decision_task_MP,2020.1.3,Win32,60,m,1,,,,,,,,0.496325,1,,,,,,158,WORD,"ID",50,island,ISLAND,m,0.496325,,,,,,0.075000014,-0.335185254,0,0,0,,0,67,67,97,1,
,,,,,,,,,,,,,,,,,,5d9312aa39412f00187c5490,2020-08-10_16h25.49.897,lexical_decision_task_MP,2020.1.3,Win32,60,z,1,,,,,,,,0.92757,1,,,,,,447,NW,UN,33,sadent,GIRCUE,z,0.92757,,,,,,0.075000014,-0.335185254,0,0,0,,0,68,68,386,1,
,,,,,,,,,,,,,,,,,,5d9312aa39412f00187c5490,2020-08-10_16h25.49.897,lexical_decision_task_MP,2020.1.3,Win32,60,m,1,,,,,,,,0.929525,1,,,,,,149,WORD,"ID",50,invade,INVADE,m,0.929525,,,,,,0.075000014,-0.335185254,0,0,0,,0,69,69,88,1,
,,,,,,,,,,,,,,,,,,5d9312aa39412f00187c5490,2020-08-10_16h25.49.897,lexical_decision_task_MP,2020.1.3,Win32,60,m,1,,,,,,,,0.477955,1,,,,,,56,WORD,UN,50,change,AMBUSH,m,0.477955,,,,,,0.075000014,-0.335185254,0,0,0,,0,70,70,235,1,
,,,,,,,,,,,,,,,,,,5d9312aa39412f00187c5490,2020-08-10_16h25.49.897,lexical_decision_task_MP,2020.1.3,Win32,60,m,1,,,,,,,,0.399725,1,,,,,,97,WORD,"ID",33,client,CLIENT,m,0.399725,,,,,,0.075000014,-0.335185254,0,0,0,,0,71,71,36,1,
,,,,,,,,,,,,,,,,,,5d9312aa39412f00187c5490,2020-08-10_16h25.49.897,lexical_decision_task_MP,2020.1.3,Win32,60,m,1,,,,,,,,0.361005,1,,,,,,46,WORD,UN,50,income,SINGLE,m,0.361005,,,,,,0.075000014,-0.335185254,0,0,0,,0,72,72,225,1,
,,,,,,,,,,,,,,,,,,5d9312aa39412f00187c5490,2020-08-10_16h25.49.897,lexical_decision_task_MP,2020.1.3,Win32,60,m,0,,,,,,,,0.412335,0,,,,,,255,NW,UN,50,inlors,APIGHT,z,0.412335,,,,,,0.075000014,-0.335185254,0,0,0,,0,73,73,434,1,
,,,,,,,,,,,,,,,,,,5d9312aa39412f00187c5490,2020-08-10_16h25.49.897,lexical_decision_task_MP,2020.1.3,Win32,60,z,1,,,,,,,,0.91567,1,,,,,,464,NW,UN,33,whivex,CHAITE,z,0.91567,,,,,,0.075000014,-0.335185254,0,0,0,,0,74,74,403,1,
,,,,,,,,,,,,,,,,,,5d9312aa39412f00187c5490,2020-08-10_16h25.49.897,lexical_decision_task_MP,2020.1.3,Win32,60,m,1,,,,,,,,0.79612,1,,,,,,128,WORD,"ID",50,senior,SENIOR,m,0.79612,,,,,,0.075000014,-0.335185254,0,0,0,,0,75,75,67,1,
,,,,,,,,,,,,,,,,,,5d9312aa39412f00187c5490,2020-08-10_16h25.49.897,lexical_decision_task_MP,2020.1.3,Win32,60,m,1,,,,,,,,0.6009,1,,,,,,10,WORD,UN,50,cruise,ETHNIC,m,0.6009,,,,,,0.075000014,-0.335185254,0,0,0,,0,76,76,189,1,
,,,,,,,,,,,,,,,,,,5d9312aa39412f00187c5490,2020-08-10_16h25.49.897,lexical_decision_task_MP,2020.1.3,Win32,60,z,1,,,,,,,,1.054155,1,,,,,,475,NW,UN,33,josted,PEBRIC,z,1.054155,,,,,,0.075000014,-0.335185254,0,0,0,,0,77,77,414,1,
,,,,,,,,,,,,,,,,,,5d9312aa39412f00187c5490,2020-08-10_16h25.49.897,lexical_decision_task_MP,2020.1.3,Win32,60,z,1,,,,,,,,0.46358,1,,,,,,264,NW,UN,50,distar,VACKEL,z,0.46358,,,,,,0.075000014,-0.335185254,0,0,0,,0,78,78,443,1,
,,,,,,,,,,,,,,,,,,5d9312aa39412f00187c5490,2020-08-10_16h25.49.897,lexical_decision_task_MP,2020.1.3,Win32,60,z,1,,,,,,,,0.39727,1,,,,,,335,NW,"ID",33,desion,DESION,z,0.39727,,,,,,0.075000014,-0.335185254,0,0,0,,0,79,79,274,1,
,,,,,,,,,,,,,,,,,,5d9312aa39412f00187c5490,2020-08-10_16h25.49.897,lexical_decision_task_MP,2020.1.3,Win32,60,z,1,,,,,,,,0.781345,1,,,,,,437,NW,UN,33,baitch,SNAPEL,z,0.781345,,,,,,0.075000014,-0.335185254,0,0,0,,0,80,80,376,1,
,,,,,,,,,,,,,,,,,,5d9312aa39412f00187c5490,2020-08-10_16h25.49.897,lexical_decision_task_MP,2020.1.3,Win32,60,z,0,,,,,,,,0.281395,0,,,,,,1,WORD,UN,50,ethnic,FRIGHT,m,0.281395,,,,,,0.075000014,-0.335185254,0,0,0,,0,81,81,180,1,
,,,,,,,,,,,,,,,,,,5d9312aa39412f00187c5490,2020-08-10_16h25.49.897,lexical_decision_task_MP,2020.1.3,Win32,60,z,0,,,,,,,,0.285925,0,,,,,,147,WORD,"ID",50,garlic,GARLIC,m,0.285925,,,,,,0.075000014,-0.335185254,0,0,0,,0,82,82,86,1,
,,,,,,,,,,,,,,,,,,5d9312aa39412f00187c5490,2020-08-10_16h25.49.897,lexical_decision_task_MP,2020.1.3,Win32,60,m,1,,,,,,,,0.950365,1,,,,,,94,WORD,"ID",33,travel,TRAVEL,m,0.950365,,,,,,0.075000014,-0.335185254,0,0,0,,0,83,83,33,1,
,,,,,,,,,,,,,,,,,,5d9312aa39412f00187c5490,2020-08-10_16h25.49.897,lexical_decision_task_MP,2020.1.3,Win32,60,m,1,,,,,,,,0.43666,1,,,,,,3,WORD,UN,50,trench,KNIGHT,m,0.43666,,,,,,0.075000014,-0.335185254,0,0,0,,0,84,84,182,1,
,,,,,,,,,,,,,,,,,,5d9312aa39412f00187c5490,2020-08-10_16h25.49.897,lexical_decision_task_MP,2020.1.3,Win32,60,m,0,,,,,,,,0.41418,0,,,,,,422,NW,UN,33,streld,ALCOUD,z,0.41418,,,,,,0.075000014,-0.335185254,0,0,0,,0,85,85,361,1,
,,,,,,,,,,,,,,,,,,5d9312aa39412f00187c5490,2020-08-10_16h25.49.897,lexical_decision_task_MP,2020.1.3,Win32,60,z,1,,,,,,,,0.855335,1,,,,,,309,NW,"ID",33,amiloy,AMILOY,z,0.855335,,,,,,0.075000014,-0.335185254,0,0,0,,0,86,86,248,1,
,,,,,,,,,,,,,,,,,,5d9312aa39412f00187c5490,2020-08-10_16h25.49.897,lexical_decision_task_MP,2020.1.3,Win32,60,m,1,,,,,,,,0.96397,1,,,,,,237,WORD,UN,33,glance,POSTER,m,0.96397,,,,,,0.075000014,-0.335185254,0,0,0,,0,87,87,176,1,
,,,,,,,,,,,,,,,,,,5d9312aa39412f00187c5490,2020-08-10_16h25.49.897,lexical_decision_task_MP,2020.1.3,Win32,60,z,1,,,,,,,,1.0631,1,,,,,,427,NW,UN,33,tandly,SCHIND,z,1.0631,,,,,,0.075000014,-0.335185254,0,0,0,,0,88,88,366,1,
,,,,,,,,,,,,,,,,,,5d9312aa39412f00187c5490,2020-08-10_16h25.49.897,lexical_decision_task_MP,2020.1.3,Win32,60,z,0,,,,,,,,0.363625,0,,,,,,195,WORD,UN,33,credit,RESIGN,m,0.363625,,,,,,0.075000014,-0.335185254,0,0,0,,0,89,89,134,1,
,,,,,,,,,,,,,,,,,,5d9312aa39412f00187c5490,2020-08-10_16h25.49.897,lexical_decision_task_MP,2020.1.3,Win32,60,z,1,,,,,,,,1.218535,1,,,,,,244,NW,UN,50,anougs,EATRIC,z,1.218535,,,,,,0.075000014,-0.335185254,0,0,0,,0,90,90,423,1,
,,,,,,,,,,,,,,,,,,5d9312aa39412f00187c5490,2020-08-10_16h25.49.897,lexical_decision_task_MP,2020.1.3,Win32,60,m,1,,,,,,,,0.93679,1,,,,,,235,WORD,UN,33,pirate,GRUMPY,m,0.93679,,,,,,0.075000014,-0.335185254,0,0,0,,0,91,91,174,1,
,,,,,,,,,,,,,,,,,,5d9312aa39412f00187c5490,2020-08-10_16h25.49.897,lexical_decision_task_MP,2020.1.3,Win32,60,m,1,,,,,,,,0.409585,1,,,,,,152,WORD,"ID",50,rocket,ROCKET,m,0.409585,,,,,,0.075000014,-0.335185254,0,0,0,,0,92,92,91,1,
,,,,,,,,,,,,,,,,,,5d9312aa39412f00187c5490,2020-08-10_16h25.49.897,lexical_decision_task_MP,2020.1.3,Win32,60,z,1,,,,,,,,0.81972,1,,,,,,371,NW,"ID",50,geiloy,GEILOY,z,0.81972,,,,,,0.075000014,-0.335185254,0,0,0,,0,93,93,310,1,
,,,,,,,,,,,,,,,,,,5d9312aa39412f00187c5490,2020-08-10_16h25.49.897,lexical_decision_task_MP,2020.1.3,Win32,60,m,1,,,,,,,,0.83291,1,,,,,,190,WORD,UN,33,stable,BACKUP,m,0.83291,,,,,,0.075000014,-0.335185254,0,0,0,,0,94,94,129,1,
,,,,,,,,,,,,,,,,,,5d9312aa39412f00187c5490,2020-08-10_16h25.49.897,lexical_decision_task_MP,2020.1.3,Win32,60,z,1,,,,,,,,0.910735,1,,,,,,430,NW,UN,33,chrums,CAROEY,z,0.910735,,,,,,0.075000014,-0.335185254,0,0,0,,0,95,95,369,1,
,,,,,,,,,,,,,,,,,,5d9312aa39412f00187c5490,2020-08-10_16h25.49.897,lexical_decision_task_MP,2020.1.3,Win32,60,m,1,,,,,,,,0.797735,1,,,,,,118,WORD,"ID",33,flight,FLIGHT,m,0.797735,,,,,,0.075000014,-0.335185254,0,0,0,,0,96,96,57,1,
,,,,,,,,,,,,,,,,,,5d9312aa39412f00187c5490,2020-08-10_16h25.49.897,lexical_decision_task_MP,2020.1.3,Win32,60,z,1,,,,,,,,1.01895,1,,,,,,448,NW,UN,33,brunge,SADENT,z,1.01895,,,,,,0.075000014,-0.335185254,0,0,0,,0,97,97,387,1,
,,,,,,,,,,,,,,,,,,5d9312aa39412f00187c5490,2020-08-10_16h25.49.897,lexical_decision_task_MP,2020.1.3,Win32,60,m,1,,,,,,,,0.846265,1,,,,,,17,WORD,UN,50,humble,CHARGE,m,0.846265,,,,,,0.075000014,-0.335185254,0,0,0,,0,98,98,196,1,
,,,,,,,,,,,,,,,,,,5d9312aa39412f00187c5490,2020-08-10_16h25.49.897,lexical_decision_task_MP,2020.1.3,Win32,60,m,1,,,,,,,,0.713315,1,,,,,,86,WORD,"ID",33,rodent,RODENT,m,0.713315,,,,,,0.075000014,-0.335185254,0,0,0,,0,99,99,25,1,
,,,,,,,,,,,,,,,,,,5d9312aa39412f00187c5490,2020-08-10_16h25.49.897,lexical_decision_task_MP,2020.1.3,Win32,60,m,1,,,,,,,,0.596915,1,,,,,,202,WORD,UN,33,phrase,FACTOR,m,0.596915,,,,,,0.075000014,-0.335185254,0,0,0,,0,100,100,141,1,
,,,,,,,,,,,,,,,,,,5d9312aa39412f00187c5490,2020-08-10_16h25.49.897,lexical_decision_task_MP,2020.1.3,Win32,60,m,1,,,,,,,,0.405955,1,,,,,,123,WORD,"ID",50,strike,STRIKE,m,0.405955,,,,,,0.075000014,-0.335185254,0,0,0,,0,101,101,62,1,
,,,,,,,,,,,,,,,,,,5d9312aa39412f00187c5490,2020-08-10_16h25.49.897,lexical_decision_task_MP,2020.1.3,Win32,60,m,1,,,,,,,,0.415105,1,,,,,,25,WORD,UN,50,sprint,DOMAIN,m,0.415105,,,,,,0.075000014,-0.335185254,0,0,0,,0,102,102,204,1,
,,,,,,,,,,,,,,,,,,5d9312aa39412f00187c5490,2020-08-10_16h25.49.897,lexical_decision_task_MP,2020.1.3,Win32,60,m,1,,,,,,,,0.377025,1,,,,,,103,WORD,"ID",33,bounce,BOUNCE,m,0.377025,,,,,,0.075000014,-0.335185254,0,0,0,,0,103,103,42,1,
,,,,,,,,,,,,,,,,,,5d9312aa39412f00187c5490,2020-08-10_16h25.49.897,lexical_decision_task_MP,2020.1.3,Win32,60,m,0,,,,,,,,0.321815,0,,,,,,457,NW,UN,33,barcet,WANIGH,z,0.321815,,,,,,0.075000014,-0.335185254,0,0,0,,0,104,104,396,1,
,,,,,,,,,,,,,,,,,,5d9312aa39412f00187c5490,2020-08-10_16h25.49.897,lexical_decision_task_MP,2020.1.3,Win32,60,z,1,,,,,,,,0.95214,1,,,,,,304,NW,"ID",33,cludie,CLUDIE,z,0.95214,,,,,,0.075000014,-0.335185254,0,0,0,,0,105,105,243,1,
,,,,,,,,,,,,,,,,,,5d9312aa39412f00187c5490,2020-08-10_16h25.49.897,lexical_decision_task_MP,2020.1.3,Win32,60,m,1,,,,,,,,0.8629,1,,,,,,51,WORD,UN,50,impose,HUNGRY,m,0.8629,,,,,,0.075000014,-0.335185254,0,0,0,,0,106,106,230,1,
,,,,,,,,,,,,,,,,,,5d9312aa39412f00187c5490,2020-08-10_16h25.49.897,lexical_decision_task_MP,2020.1.3,Win32,60,m,1,,,,,,,,0.563015,1,,,,,,122,WORD,"ID",50,linger,LINGER,m,0.563015,,,,,,0.075000014,-0.335185254,0,0,0,,0,107,107,61,1,
,,,,,,,,,,,,,,,,,,5d9312aa39412f00187c5490,2020-08-10_16h25.49.897,lexical_decision_task_MP,2020.1.3,Win32,60,m,1,,,,,,,,0.418465,1,,,,,,23,WORD,UN,50,praise,WEALTH,m,0.418465,,,,,,0.075000014,-0.335185254,0,0,0,,0,108,108,202,1,
,,,,,,,,,,,,,,,,,,5d9312aa39412f00187c5490,2020-08-10_16h25.49.897,lexical_decision_task_MP,2020.1.3,Win32,60,m,0,,,,,,,,0.34726,0,,,,,,295,NW,UN,50,beinch,GLEATH,z,0.34726,,,,,,0.075000014,-0.335185254,0,0,0,,0,109,109,474,1,
,,,,,,,,,,,,,,,,,,5d9312aa39412f00187c5490,2020-08-10_16h25.49.897,lexical_decision_task_MP,2020.1.3,Win32,60,z,1,,,,,,,,0.89434,1,,,,,,449,NW,UN,33,phrect,BRUNGE,z,0.89434,,,,,,0.075000014,-0.335185254,0,0,0,,0,110,110,388,1,
,,,,,,,,,,,,,,,,,,5d9312aa39412f00187c5490,2020-08-10_16h25.49.897,lexical_decision_task_MP,2020.1.3,Win32,60,z,0,,,,,,,,0.39731,0,,,,,,33,WORD,UN,50,jungle,BUTLER,m,0.39731,,,,,,0.075000014,-0.335185254,0,0,0,,0,111,111,212,1,
,,,,,,,,,,,,,,,,,,5d9312aa39412f00187c5490,2020-08-10_16h25.49.897,lexical_decision_task_MP,2020.1.3,Win32,60,m,0,,,,,,,,0.511475,0,,,,,,409,NW,"ID",50,elopia,ELOPIA,z,0.511475,,,,,,0.075000014,-0.335185254,0,0,0,,0,112,112,348,1,
,,,,,,,,,,,,,,,,,,5d9312aa39412f00187c5490,2020-08-10_16h25.49.897,lexical_decision_task_MP,2020.1.3,Win32,60,z,1,,,,,,,,0.86168,1,,,,,,463,NW,UN,33,chaite,KISPEL,z,0.86168,,,,,,0.075000014,-0.335185254,0,0,0,,0,113,113,402,1,
,,,,,,,,,,,,,,,,,,5d9312aa39412f00187c5490,2020-08-10_16h25.49.897,lexical_decision_task_MP,2020.1.3,Win32,60,z,1,,,,,,,,0.46379,1,,,,,,353,NW,"ID",33,clurey,CLUREY,z,0.46379,,,,,,0.075000014,-0.335185254,0,0,0,,0,114,114,292,1,
,,,,,,,,,,,,,,,,,,5d9312aa39412f00187c5490,2020-08-10_16h25.49.897,lexical_decision_task_MP,2020.1.3,Win32,60,m,1,,,,,,,,0.946455,1,,,,,,215,WORD,UN,33,lumber,PHOBIA,m,0.946455,,,,,,0.075000014,-0.335185254,0,0,0,,0,115,115,154,1,
,,,,,,,,,,,,,,,,,,5d9312aa39412f00187c5490,2020-08-10_16h25.49.897,lexical_decision_task_MP,2020.1.3,Win32,60,m,1,,,,,,,,0.47059,1,,,,,,105,WORD,"ID",33,number,NUMBER,m,0.47059,,,,,,0.075000014,-0.335185254,0,0,0,,0,116,116,44,1,
,,,,,,,,,,,,,,,,,,5d9312aa39412f00187c5490,2020-08-10_16h25.49.897,lexical_decision_task_MP,2020.1.3,Win32,60,m,1,,,,,,,,0.69135,1,,,,,,90,WORD,"ID",33,relish,RELISH,m,0.69135,,,,,,0.075000014,-0.335185254,0,0,0,,0,117,117,29,1,
,,,,,,,,,,,,,,,,,,5d9312aa39412f00187c5490,2020-08-10_16h25.49.897,lexical_decision_task_MP,2020.1.3,Win32,60,m,1,,,,,,,,0.74472,1,,,,,,11,WORD,UN,50,amount,CRUISE,m,0.74472,,,,,,0.075000014,-0.335185254,0,0,0,,0,118,118,190,1,
,,,,,,,,,,,,,,,,,,5d9312aa39412f00187c5490,2020-08-10_16h25.49.897,lexical_decision_task_MP,2020.1.3,Win32,60,m,1,,,,,,,,0.40443,1,,,,,,91,WORD,"ID",33,expand,EXPAND,m,0.40443,,,,,,0.075000014,-0.335185254,0,0,0,,0,119,119,30,1,
,,,,,,,,,,,,,,,,,,5d9312aa39412f00187c5490,2020-08-10_16h25.49.897,lexical_decision_task_MP,2020.1.3,Win32,60,z,1,,,,,,,,1.01942,1,,,,,,307,NW,"ID",33,kirafe,KIRAFE,z,1.01942,,,,,,0.075000014,-0.335185254,0,0,0,space,0,120,120,246,1,54.457655
,,,,,,,,,,,,,,,,,,5d9312aa39412f00187c5490,2020-08-10_16h25.49.897,lexical_decision_task_MP,2020.1.3,Win32,60,,0,,,,,,,,1.01942,-1,,,,,,454,NW,UN,33,tondle,SCOUGE,z,,,,,,,0.075000014,-0.335185254,0,0,0,,0,121,121,393,1,
,,,,,,,,,,,,,,,,,,5d9312aa39412f00187c5490,2020-08-10_16h25.49.897,lexical_decision_task_MP,2020.1.3,Win32,60,m,1,,,,,,,,0.99677,1,,,,,,26,WORD,UN,50,butler,SPRINT,m,0.99677,,,,,,0.075000014,-0.335185254,0,0,0,,0,122,122,205,1,
,,,,,,,,,,,,,,,,,,5d9312aa39412f00187c5490,2020-08-10_16h25.49.897,lexical_decision_task_MP,2020.1.3,Win32,60,z,1,,,,,,,,0.952065,1,,,,,,285,NW,UN,50,reldon,PRUDGE,z,0.952065,,,,,,0.075000014,-0.335185254,0,0,0,,0,123,123,464,1,
,,,,,,,,,,,,,,,,,,5d9312aa39412f00187c5490,2020-08-10_16h25.49.897,lexical_decision_task_MP,2020.1.3,Win32,60,z,1,,,,,,,,1.27757,1,,,,,,474,NW,UN,33,acrise,HABLIN,z,1.27757,,,,,,0.075000014,-0.335185254,0,0,0,,0,124,124,413,1,
,,,,,,,,,,,,,,,,,,5d9312aa39412f00187c5490,2020-08-10_16h25.49.897,lexical_decision_task_MP,2020.1.3,Win32,60,z,1,,,,,,,,0.864155,1,,,,,,290,NW,UN,50,pretch,SPLINO,z,0.864155,,,,,,0.075000014,-0.335185254,0,0,0,,0,125,125,469,1,
,,,,,,,,,,,,,,,,,,5d9312aa39412f00187c5490,2020-08-10_16h25.49.897,lexical_decision_task_MP,2020.1.3,Win32,60,m,1,,,,,,,,0.813675,1,,,,,,165,WORD,"ID",50,invest,INVEST,m,0.813675,,,,,,0.075000014,-0.335185254,0,0,0,,0,126,126,104,1,
,,,,,,,,,,,,,,,,,,5d9312aa39412f00187c5490,2020-08-10_16h25.49.897,lexical_decision_task_MP,2020.1.3,Win32,60,m,1,,,,,,,,0.53322,1,,,,,,226,WORD,UN,33,flower,CASINO,m,0.53322,,,,,,0.075000014,-0.335185254,0,0,0,,0,127,127,165,1,
,,,,,,,,,,,,,,,,,,5d9312aa39412f00187c5490,2020-08-10_16h25.49.897,lexical_decision_task_MP,2020.1.3,Win32,60,z,1,,,,,,,,0.93069,1,,,,,,331,NW,"ID",33,gilfew,GILFEW,z,0.93069,,,,,,0.075000014,-0.335185254,0,0,0,,0,128,128,270,1,
,,,,,,,,,,,,,,,,,,5d9312aa39412f00187c5490,2020-08-10_16h25.49.897,lexical_decision_task_MP,2020.1.3,Win32,60,z,1,,,,,,,,1.015135,1,,,,,,297,NW,UN,50,piergy,FERTIC,z,1.015135,,,,,,0.075000014,-0.335185254,0,0,0,,0,129,129,476,1,
,,,,,,,,,,,,,,,,,,5d9312aa39412f00187c5490,2020-08-10_16h25.49.897,lexical_decision_task_MP,2020.1.3,Win32,60,z,1,,,,,,,,0.56005,1,,,,,,365,NW,"ID",50,guairt,GUAIRT,z,0.56005,,,,,,0.075000014,-0.335185254,0,0,0,,0,130,130,304,1,
,,,,,,,,,,,,,,,,,,5d9312aa39412f00187c5490,2020-08-10_16h25.49.897,lexical_decision_task_MP,2020.1.3,Win32,60,m,1,,,,,,,,0.91367,1,,,,,,126,WORD,"ID",50,enough,ENOUGH,m,0.91367,,,,,,0.075000014,-0.335185254,0,0,0,,0,131,131,65,1,
,,,,,,,,,,,,,,,,,,5d9312aa39412f00187c5490,2020-08-10_16h25.49.897,lexical_decision_task_MP,2020.1.3,Win32,60,m,1,,,,,,,,0.568655,1,,,,,,82,WORD,"ID",33,stigma,STIGMA,m,0.568655,,,,,,0.075000014,-0.335185254,0,0,0,,0,132,132,21,1,
,,,,,,,,,,,,,,,,,,5d9312aa39412f00187c5490,2020-08-10_16h25.49.897,lexical_decision_task_MP,2020.1.3,Win32,60,,0,,,,,,,,0.568655,-1,,,,,,441,NW,UN,33,aboune,RASTOE,z,,,,,,,0.075000014,-0.335185254,0,0,0,,0,133,133,380,1,
,,,,,,,,,,,,,,,,,,5d9312aa39412f00187c5490,2020-08-10_16h25.49.897,lexical_decision_task_MP,2020.1.3,Win32,60,,0,,,,,,,,0.568655,-1,,,,,,424,NW,UN,33,frudge,PRAILE,z,,,,,,,0.075000014,-0.335185254,0,0,0,,0,134,134,363,1,
,,,,,,,,,,,,,,,,,,5d9312aa39412f00187c5490,2020-08-10_16h25.49.897,lexical_decision_task_MP,2020.1.3,Win32,60,,0,,,,,,,,0.568655,-1,,,,,,231,WORD,UN,33,inject,EXPORT,m,,,,,,,0.075000014,-0.335185254,0,0,0,,0,135,135,170,1,
,,,,,,,,,,,,,,,,,,5d9312aa39412f00187c5490,2020-08-10_16h25.49.897,lexical_decision_task_MP,2020.1.3,Win32,60,z,1,,,,,,,,1.399395,1,,,,,,345,NW,"ID",33,absend,ABSEND,z,1.399395,,,,,,0.075000014,-0.335185254,0,0,0,,0,136,136,284,1,
,,,,,,,,,,,,,,,,,,5d9312aa39412f00187c5490,2020-08-10_16h25.49.897,lexical_decision_task_MP,2020.1.3,Win32,60,z,1,,,,,,,,0.861285,1,,,,,,446,NW,UN,33,gircue,RUNAMO,z,0.861285,,,,,,0.075000014,-0.335185254,0,0,0,,0,137,137,385,1,
,,,,,,,,,,,,,,,,,,5d9312aa39412f00187c5490,2020-08-10_16h25.49.897,lexical_decision_task_MP,2020.1.3,Win32,60,m,1,,,,,,,,1.10977,1,,,,,,70,WORD,"ID",33,square,SQUARE,m,1.10977,,,,,,0.075000014,-0.335185254,0,0,0,,0,138,138,9,1,
,,,,,,,,,,,,,,,,,,5d9312aa39412f00187c5490,2020-08-10_16h25.49.897,lexical_decision_task_MP,2020.1.3,Win32,60,m,1,,,,,,,,0.763615,1,,,,,,114,WORD,"ID",33,placid,PLACID,m,0.763615,,,,,,0.075000014,-0.335185254,0,0,0,,0,139,139,53,1,
,,,,,,,,,,,,,,,,,,5d9312aa39412f00187c5490,2020-08-10_16h25.49.897,lexical_decision_task_MP,2020.1.3,Win32,60,,0,,,,,,,,0.763615,-1,,,,,,245,NW,UN,50,piaton,ANOUGS,z,,,,,,,0.075000014,-0.335185254,0,0,0,,0,140,140,424,1,
,,,,,,,,,,,,,,,,,,5d9312aa39412f00187c5490,2020-08-10_16h25.49.897,lexical_decision_task_MP,2020.1.3,Win32,60,m,1,,,,,,,,0.54644,1,,,,,,136,WORD,"ID",50,bleach,BLEACH,m,0.54644,,,,,,0.075000014,-0.335185254,0,0,0,,0,141,141,75,1,
,,,,,,,,,,,,,,,,,,5d9312aa39412f00187c5490,2020-08-10_16h25.49.897,lexical_decision_task_MP,2020.1.3,Win32,60,z,1,,,,,,,,1.072235,1,,,,,,260,NW,UN,50,stunch,UNJECT,z,1.072235,,,,,,0.075000014,-0.335185254,0,0,0,,0,142,142,439,1,
,,,,,,,,,,,,,,,,,,5d9312aa39412f00187c5490,2020-08-10_16h25.49.897,lexical_decision_task_MP,2020.1.3,Win32,60,z,1,,,,,,,,1.229705,1,,,,,,247,NW,UN,50,strole,BLARGE,z,1.229705,,,,,,0.075000014,-0.335185254,0,0,0,,0,143,143,426,1,
,,,,,,,,,,,,,,,,,,5d9312aa39412f00187c5490,2020-08-10_16h25.49.897,lexical_decision_task_MP,2020.1.3,Win32,60,z,1,,,,,,,,0.56905,1,,,,,,373,NW,"ID",50,bigent,BIGENT,z,0.56905,,,,,,0.075000014,-0.335185254,0,0,0,,0,144,144,312,1,
,,,,,,,,,,,,,,,,,,5d9312aa39412f00187c5490,2020-08-10_16h25.49.897,lexical_decision_task_MP,2020.1.3,Win32,60,,0,,,,,,,,0.56905,-1,,,,,,382,NW,"ID",50,sarley,SARLEY,z,,,,,,,0.075000014,-0.335185254,0,0,0,,0,145,145,321,1,
,,,,,,,,,,,,,,,,,,5d9312aa39412f00187c5490,2020-08-10_16h25.49.897,lexical_decision_task_MP,2020.1.3,Win32,60,,0,,,,,,,,0.56905,-1,,,,,,378,NW,"ID",50,shrile,SHRILE,z,,,,,,,0.075000014,-0.335185254,0,0,0,,0,146,146,317,1,
,,,,,,,,,,,,,,,,,,5d9312aa39412f00187c5490,2020-08-10_16h25.49.897,lexical_decision_task_MP,2020.1.3,Win32,60,z,1,,,,,,,,0.65114,1,,,,,,434,NW,UN,33,impurb,PITROM,z,0.65114,,,,,,0.075000014,-0.335185254,0,0,0,,0,147,147,373,1,
,,,,,,,,,,,,,,,,,,5d9312aa39412f00187c5490,2020-08-10_16h25.49.897,lexical_decision_task_MP,2020.1.3,Win32,60,m,1,,,,,,,,0.95897,1,,,,,,145,WORD,"ID",50,parish,PARISH,m,0.95897,,,,,,0.075000014,-0.335185254,0,0,0,,0,148,148,84,1,
,,,,,,,,,,,,,,,,,,5d9312aa39412f00187c5490,2020-08-10_16h25.49.897,lexical_decision_task_MP,2020.1.3,Win32,60,z,1,,,,,,,,1.08142,1,,,,,,259,NW,UN,50,unject,SOUDAL,z,1.08142,,,,,,0.075000014,-0.335185254,0,0,0,,0,149,149,438,1,
,,,,,,,,,,,,,,,,,,5d9312aa39412f00187c5490,2020-08-10_16h25.49.897,lexical_decision_task_MP,2020.1.3,Win32,60,,0,,,,,,,,1.08142,-1,,,,,,40,WORD,UN,50,spring,CONVEY,m,,,,,,,0.075000014,-0.335185254,0,0,0,,0,150,150,219,1,
,,,,,,,,,,,,,,,,,,5d9312aa39412f00187c5490,2020-08-10_16h25.49.897,lexical_decision_task_MP,2020.1.3,Win32,60,z,1,,,,,,,,0.94963,1,,,,,,387,NW,"ID",50,gronce,GRONCE,z,0.94963,,,,,,0.075000014,-0.335185254,0,0,0,,0,151,151,326,1,
,,,,,,,,,,,,,,,,,,5d9312aa39412f00187c5490,2020-08-10_16h25.49.897,lexical_decision_task_MP,2020.1.3,Win32,60,m,1,,,,,,,,0.786245,1,,,,,,14,WORD,UN,50,orange,ALMOST,m,0.786245,,,,,,0.075000014,-0.335185254,0,0,0,,0,152,152,193,1,
,,,,,,,,,,,,,,,,,,5d9312aa39412f00187c5490,2020-08-10_16h25.49.897,lexical_decision_task_MP,2020.1.3,Win32,60,z,1,,,,,,,,1.366165,1,,,,,,472,NW,UN,33,gorbie,CIGNEY,z,1.366165,,,,,,0.075000014,-0.335185254,0,0,0,,0,153,153,411,1,
,,,,,,,,,,,,,,,,,,5d9312aa39412f00187c5490,2020-08-10_16h25.49.897,lexical_decision_task_MP,2020.1.3,Win32,60,z,1,,,,,,,,0.928485,1,,,,,,311,NW,"ID",33,sproly,SPROLY,z,0.928485,,,,,,0.075000014,-0.335185254,0,0,0,,0,154,154,250,1,
,,,,,,,,,,,,,,,,,,5d9312aa39412f00187c5490,2020-08-10_16h25.49.897,lexical_decision_task_MP,2020.1.3,Win32,60,z,1,,,,,,,,0.87709,1,,,,,,288,NW,UN,50,starby,YACEUP,z,0.87709,,,,,,0.075000014,-0.335185254,0,0,0,,0,155,155,467,1,
,,,,,,,,,,,,,,,,,,5d9312aa39412f00187c5490,2020-08-10_16h25.49.897,lexical_decision_task_MP,2020.1.3,Win32,60,,0,,,,,,,,0.87709,-1,,,,,,29,WORD,UN,50,orient,SKETCH,m,,,,,,,0.075000014,-0.335185254,0,0,0,,0,156,156,208,1,
,,,,,,,,,,,,,,,,,,5d9312aa39412f00187c5490,2020-08-10_16h25.49.897,lexical_decision_task_MP,2020.1.3,Win32,60,,0,,,,,,,,0.87709,-1,,,,,,253,NW,UN,50,varosh,RESAIT,z,,,,,,,0.075000014,-0.335185254,0,0,0,,0,157,157,432,1,
,,,,,,,,,,,,,,,,,,5d9312aa39412f00187c5490,2020-08-10_16h25.49.897,lexical_decision_task_MP,2020.1.3,Win32,60,z,1,,,,,,,,1.198595,1,,,,,,320,NW,"ID",33,jockal,JOCKAL,z,1.198595,,,,,,0.075000014,-0.335185254,0,0,0,,0,158,158,259,1,
,,,,,,,,,,,,,,,,,,5d9312aa39412f00187c5490,2020-08-10_16h25.49.897,lexical_decision_task_MP,2020.1.3,Win32,60,m,1,,,,,,,,0.97237,1,,,,,,227,WORD,UN,33,master,SELDOM,m,0.97237,,,,,,0.075000014,-0.335185254,0,0,0,,0,159,159,166,1,
,,,,,,,,,,,,,,,,,,5d9312aa39412f00187c5490,2020-08-10_16h25.49.897,lexical_decision_task_MP,2020.1.3,Win32,60,z,1,,,,,,,,0.86764,1,,,,,,465,NW,UN,33,bafent,WHIVEX,z,0.86764,,,,,,0.075000014,-0.335185254,0,0,0,,0,160,160,404,1,
,,,,,,,,,,,,,,,,,,5d9312aa39412f00187c5490,2020-08-10_16h25.49.897,lexical_decision_task_MP,2020.1.3,Win32,60,z,1,,,,,,,,0.77303,1,,,,,,364,NW,"ID",50,impote,IMPOTE,z,0.77303,,,,,,0.075000014,-0.335185254,0,0,0,,0,161,161,303,1,
,,,,,,,,,,,,,,,,,,5d9312aa39412f00187c5490,2020-08-10_16h25.49.897,lexical_decision_task_MP,2020.1.3,Win32,60,z,0,,,,,,,,0.920045,0,,,,,,156,WORD,"ID",50,cradle,CRADLE,m,0.920045,,,,,,0.075000014,-0.335185254,0,0,0,,0,162,162,95,1,
,,,,,,,,,,,,,,,,,,5d9312aa39412f00187c5490,2020-08-10_16h25.49.897,lexical_decision_task_MP,2020.1.3,Win32,60,,0,,,,,,,,0.920045,-1,,,,,,16,WORD,UN,50,charge,FAUCET,m,,,,,,,0.075000014,-0.335185254,0,0,0,,0,163,163,195,1,
,,,,,,,,,,,,,,,,,,5d9312aa39412f00187c5490,2020-08-10_16h25.49.897,lexical_decision_task_MP,2020.1.3,Win32,60,,0,,,,,,,,0.920045,-1,,,,,,415,NW,"ID",50,higsta,HIGSTA,z,,,,,,,0.075000014,-0.335185254,0,0,0,,0,164,164,354,1,
,,,,,,,,,,,,,,,,,,5d9312aa39412f00187c5490,2020-08-10_16h25.49.897,lexical_decision_task_MP,2020.1.3,Win32,60,,0,,,,,,,,0.920045,-1,,,,,,351,NW,"ID",33,tiesch,TIESCH,z,,,,,,,0.075000014,-0.335185254,0,0,0,,0,165,165,290,1,
,,,,,,,,,,,,,,,,,,5d9312aa39412f00187c5490,2020-08-10_16h25.49.897,lexical_decision_task_MP,2020.1.3,Win32,60,,0,,,,,,,,0.920045,-1,,,,,,395,NW,"ID",50,colury,COLURY,z,,,,,,,0.075000014,-0.335185254,0,0,0,,0,166,166,334,1,
,,,,,,,,,,,,,,,,,,5d9312aa39412f00187c5490,2020-08-10_16h25.49.897,lexical_decision_task_MP,2020.1.3,Win32,60,m,1,,,,,,,,0.81316,1,,,,,,143,WORD,"ID",50,reason,REASON,m,0.81316,,,,,,0.075000014,-0.335185254,0,0,0,,0,167,167,82,1,
,,,,,,,,,,,,,,,,,,5d9312aa39412f00187c5490,2020-08-10_16h25.49.897,lexical_decision_task_MP,2020.1.3,Win32,60,z,1,,,,,,,,1.03604,1,,,,,,376,NW,"ID",50,iguare,IGUARE,z,1.03604,,,,,,0.075000014,-0.335185254,0,0,0,,0,168,168,315,1,
,,,,,,,,,,,,,,,,,,5d9312aa39412f00187c5490,2020-08-10_16h25.49.897,lexical_decision_task_MP,2020.1.3,Win32,60,z,1,,,,,,,,1.45552,1,,,,,,352,NW,"ID",33,tringe,TRINGE,z,1.45552,,,,,,0.075000014,-0.335185254,0,0,0,,0,169,169,291,1,
,,,,,,,,,,,,,,,,,,5d9312aa39412f00187c5490,2020-08-10_16h25.49.897,lexical_decision_task_MP,2020.1.3,Win32,60,,0,,,,,,,,1.45552,-1,,,,,,42,WORD,UN,50,tongue,CHAPEL,m,,,,,,,0.075000014,-0.335185254,0,0,0,,0,170,170,221,1,
,,,,,,,,,,,,,,,,,,5d9312aa39412f00187c5490,2020-08-10_16h25.49.897,lexical_decision_task_MP,2020.1.3,Win32,60,,0,,,,,,,,1.45552,-1,,,,,,379,NW,"ID",50,auting,AUTING,z,,,,,,,0.075000014,-0.335185254,0,0,0,,0,171,171,318,1,
,,,,,,,,,,,,,,,,,,5d9312aa39412f00187c5490,2020-08-10_16h25.49.897,lexical_decision_task_MP,2020.1.3,Win32,60,,0,,,,,,,,1.45552,-1,,,,,,53,WORD,UN,50,ramble,POLICE,m,,,,,,,0.089814829,-0.412962977,0,0,0,,0,172,172,232,1,
,,,,,,,,,,,,,,,,,,5d9312aa39412f00187c5490,2020-08-10_16h25.49.897,lexical_decision_task_MP,2020.1.3,Win32,60,m,1,,,,,,,,0.57026,1,,,,,,30,WORD,UN,50,weapon,ORIENT,m,0.57026,,,,,,0.089814829,-0.412962977,0,0,0,,0,173,173,209,1,
,,,,,,,,,,,,,,,,,,5d9312aa39412f00187c5490,2020-08-10_16h25.49.897,lexical_decision_task_MP,2020.1.3,Win32,60,m,1,,,,,,,,0.38081,1,,,,,,88,WORD,"ID",33,hunger,HUNGER,m,0.38081,,,,,,0.089814829,-0.412962977,0,0,0,,0,174,174,27,1,
,,,,,,,,,,,,,,,,,,5d9312aa39412f00187c5490,2020-08-10_16h25.49.897,lexical_decision_task_MP,2020.1.3,Win32,60,z,1,,,,,,,,1.729565,1,,,,,,261,NW,UN,50,quilew,STUNCH,z,1.729565,,,,,,0.089814829,-0.412962977,0,0,0,,0,175,175,440,1,
,,,,,,,,,,,,,,,,,,5d9312aa39412f00187c5490,2020-08-10_16h25.49.897,lexical_decision_task_MP,2020.1.3,Win32,60,m,1,,,,,,,,0.607965,1,,,,,,137,WORD,"ID",50,finger,FINGER,m,0.607965,,,,,,0.089814829,-0.412962977,0,0,0,,0,176,176,76,1,
,,,,,,,,,,,,,,,,,,5d9312aa39412f00187c5490,2020-08-10_16h25.49.897,lexical_decision_task_MP,2020.1.3,Win32,60,m,1,,,,,,,,0.50095,1,,,,,,208,WORD,UN,33,search,HOCKEY,m,0.50095,,,,,,0.089814829,-0.412962977,0,0,0,,0,177,177,147,1,
,,,,,,,,,,,,,,,,,,5d9312aa39412f00187c5490,2020-08-10_16h25.49.897,lexical_decision_task_MP,2020.1.3,Win32,60,m,0,,,,,,,,0.51197,0,,,,,,438,NW,UN,33,limpor,BAITCH,z,0.51197,,,,,,0.089814829,-0.412962977,0,0,0,,0,178,178,377,1,
,,,,,,,,,,,,,,,,,,5d9312aa39412f00187c5490,2020-08-10_16h25.49.897,lexical_decision_task_MP,2020.1.3,Win32,60,z,1,,,,,,,,0.756175,1,,,,,,400,NW,"ID",50,wearox,WEAROX,z,0.756175,,,,,,0.089814829,-0.412962977,0,0,0,,0,179,179,339,1,
,,,,,,,,,,,,,,,,,,5d9312aa39412f00187c5490,2020-08-10_16h25.49.897,lexical_decision_task_MP,2020.1.3,Win32,60,m,1,,,,,,,,0.830905,1,,,,,,159,WORD,"ID",50,detail,DETAIL,m,0.830905,,,,,,0.089814829,-0.412962977,0,0,0,,0,180,180,98,1,
,,,,,,,,,,,,,,,,,,5d9312aa39412f00187c5490,2020-08-10_16h25.49.897,lexical_decision_task_MP,2020.1.3,Win32,60,z,1,,,,,,,,0.797115,1,,,,,,471,NW,UN,33,cigney,NOBEST,z,0.797115,,,,,,0.089814829,-0.412962977,0,0,0,,0,181,181,410,1,
,,,,,,,,,,,,,,,,,,5d9312aa39412f00187c5490,2020-08-10_16h25.49.897,lexical_decision_task_MP,2020.1.3,Win32,60,m,1,,,,,,,,0.72842,1,,,,,,27,WORD,UN,50,comedy,SCREAM,m,0.72842,,,,,,0.089814829,-0.412962977,0,0,0,,0,182,182,206,1,
,,,,,,,,,,,,,,,,,,5d9312aa39412f00187c5490,2020-08-10_16h25.49.897,lexical_decision_task_MP,2020.1.3,Win32,60,z,1,,,,,,,,1.700535,1,,,,,,327,NW,"ID",33,plenac,PLENAC,z,1.700535,,,,,,0.089814829,-0.412962977,0,0,0,,0,183,183,266,1,
,,,,,,,,,,,,,,,,,,5d9312aa39412f00187c5490,2020-08-10_16h25.49.897,lexical_decision_task_MP,2020.1.3,Win32,60,z,1,,,,,,,,0.86383,1,,,,,,322,NW,"ID",33,slanch,SLANCH,z,0.86383,,,,,,0.089814829,-0.412962977,0,0,0,,0,184,184,261,1,
,,,,,,,,,,,,,,,,,,5d9312aa39412f00187c5490,2020-08-10_16h25.49.897,lexical_decision_task_MP,2020.1.3,Win32,60,m,1,,,,,,,,0.52317,1,,,,,,31,WORD,UN,50,buckle,WEAPON,m,0.52317,,,,,,0.089814829,-0.412962977,0,0,0,,0,185,185,210,1,
,,,,,,,,,,,,,,,,,,5d9312aa39412f00187c5490,2020-08-10_16h25.49.897,lexical_decision_task_MP,2020.1.3,Win32,60,m,1,,,,,,,,0.42998,1,,,,,,15,WORD,UN,50,faucet,AMOUNT,m,0.42998,,,,,,0.089814829,-0.412962977,0,0,0,,0,186,186,194,1,
,,,,,,,,,,,,,,,,,,5d9312aa39412f00187c5490,2020-08-10_16h25.49.897,lexical_decision_task_MP,2020.1.3,Win32,60,z,1,,,,,,,,0.84492,1,,,,,,268,NW,UN,50,orchet,PACKES,z,0.84492,,,,,,0.089814829,-0.412962977,0,0,0,,0,187,187,447,1,
,,,,,,,,,,,,,,,,,,5d9312aa39412f00187c5490,2020-08-10_16h25.49.897,lexical_decision_task_MP,2020.1.3,Win32,60,m,1,,,,,,,,0.48473,1,,,,,,154,WORD,"ID",50,author,AUTHOR,m,0.48473,,,,,,0.089814829,-0.412962977,0,0,0,,0,188,188,93,1,
,,,,,,,,,,,,,,,,,,5d9312aa39412f00187c5490,2020-08-10_16h25.49.897,lexical_decision_task_MP,2020.1.3,Win32,60,z,1,,,,,,,,0.899265,1,,,,,,276,NW,UN,50,petain,YARMON,z,0.899265,,,,,,0.089814829,-0.412962977,0,0,0,,0,189,189,455,1,
,,,,,,,,,,,,,,,,,,5d9312aa39412f00187c5490,2020-08-10_16h25.49.897,lexical_decision_task_MP,2020.1.3,Win32,60,m,1,,,,,,,,0.580435,1,,,,,,49,WORD,UN,50,snatch,SURVEY,m,0.580435,,,,,,0.089814829,-0.412962977,0,0,0,,0,190,190,228,1,
,,,,,,,,,,,,,,,,,,5d9312aa39412f00187c5490,2020-08-10_16h25.49.897,lexical_decision_task_MP,2020.1.3,Win32,60,,0,,,,,,,,0.580435,-1,,,,,,131,WORD,"ID",50,quench,QUENCH,m,,,,,,,0.089814829,-0.412962977,0,0,0,,0,191,191,70,1,
,,,,,,,,,,,,,,,,,,5d9312aa39412f00187c5490,2020-08-10_16h25.49.897,lexical_decision_task_MP,2020.1.3,Win32,60,,0,,,,,,,,0.580435,-1,,,,,,421,NW,UN,33,alcoud,KNISMA,z,,,,,,,0.089814829,-0.412962977,0,0,0,,0,192,192,360,1,
,,,,,,,,,,,,,,,,,,5d9312aa39412f00187c5490,2020-08-10_16h25.49.897,lexical_decision_task_MP,2020.1.3,Win32,60,z,1,,,,,,,,0.9234,1,,,,,,392,NW,"ID",50,rouncy,ROUNCY,z,0.9234,,,,,,0.089814829,-0.412962977,0,0,0,,0,193,193,331,1,
,,,,,,,,,,,,,,,,,,5d9312aa39412f00187c5490,2020-08-10_16h25.49.897,lexical_decision_task_MP,2020.1.3,Win32,60,z,1,,,,,,,,0.84688,1,,,,,,363,NW,"ID",50,breali,BREALI,z,0.84688,,,,,,0.089814829,-0.412962977,0,0,0,,0,194,194,302,1,
,,,,,,,,,,,,,,,,,,5d9312aa39412f00187c5490,2020-08-10_16h25.49.897,lexical_decision_task_MP,2020.1.3,Win32,60,z,1,,,,,,,,0.880295,1,,,,,,372,NW,"ID",50,ramily,RAMILY,z,0.880295,,,,,,0.089814829,-0.412962977,0,0,0,,0,195,195,311,1,
,,,,,,,,,,,,,,,,,,5d9312aa39412f00187c5490,2020-08-10_16h25.49.897,lexical_decision_task_MP,2020.1.3,Win32,60,m,1,,,,,,,,1.309685,1,,,,,,183,WORD,UN,33,sleazy,MILDEW,m,1.309685,,,,,,0.089814829,-0.412962977,0,0,0,,0,196,196,122,1,
,,,,,,,,,,,,,,,,,,5d9312aa39412f00187c5490,2020-08-10_16h25.49.897,lexical_decision_task_MP,2020.1.3,Win32,60,m,1,,,,,,,,0.656325,1,,,,,,125,WORD,"ID",50,nickel,NICKEL,m,0.656325,,,,,,0.089814829,-0.412962977,0,0,0,,0,197,197,64,1,
,,,,,,,,,,,,,,,,,,5d9312aa39412f00187c5490,2020-08-10_16h25.49.897,lexical_decision_task_MP,2020.1.3,Win32,60,m,1,,,,,,,,0.496195,1,,,,,,188,WORD,UN,33,censor,SOCIAL,m,0.496195,,,,,,0.089814829,-0.412962977,0,0,0,,0,198,198,127,1,
,,,,,,,,,,,,,,,,,,5d9312aa39412f00187c5490,2020-08-10_16h25.49.897,lexical_decision_task_MP,2020.1.3,Win32,60,,0,,,,,,,,0.496195,-1,,,,,,470,NW,UN,33,nobest,CRUDIO,z,,,,,,,0.089814829,-0.412962977,0,0,0,,0,199,199,409,1,
,,,,,,,,,,,,,,,,,,5d9312aa39412f00187c5490,2020-08-10_16h25.49.897,lexical_decision_task_MP,2020.1.3,Win32,60,m,1,,,,,,,,0.93057,1,,,,,,60,WORD,UN,50,fright,PENCIL,m,0.93057,,,,,,0.089814829,-0.412962977,0,0,0,,0,200,200,239,1,
,,,,,,,,,,,,,,,,,,5d9312aa39412f00187c5490,2020-08-10_16h25.49.897,lexical_decision_task_MP,2020.1.3,Win32,60,m,1,,,,,,,,0.630075,1,,,,,,166,WORD,"ID",50,starch,STARCH,m,0.630075,,,,,,0.089814829,-0.412962977,0,0,0,,0,201,201,105,1,
,,,,,,,,,,,,,,,,,,5d9312aa39412f00187c5490,2020-08-10_16h25.49.897,lexical_decision_task_MP,2020.1.3,Win32,60,m,1,,,,,,,,1.063615,1,,,,,,130,WORD,"ID",50,stupid,STUPID,m,1.063615,,,,,,0.089814829,-0.412962977,0,0,0,,0,202,202,69,1,
,,,,,,,,,,,,,,,,,,5d9312aa39412f00187c5490,2020-08-10_16h25.49.897,lexical_decision_task_MP,2020.1.3,Win32,60,m,0,,,,,,,,0.862855,0,,,,,,270,NW,UN,50,aubrid,WRIMSY,z,0.862855,,,,,,0.089814829,-0.412962977,0,0,0,,0,203,203,449,1,
,,,,,,,,,,,,,,,,,,5d9312aa39412f00187c5490,2020-08-10_16h25.49.897,lexical_decision_task_MP,2020.1.3,Win32,60,z,1,,,,,,,,0.77424,1,,,,,,323,NW,"ID",33,rosail,ROSAIL,z,0.77424,,,,,,0.089814829,-0.412962977,0,0,0,,0,204,204,262,1,
,,,,,,,,,,,,,,,,,,5d9312aa39412f00187c5490,2020-08-10_16h25.49.897,lexical_decision_task_MP,2020.1.3,Win32,60,z,1,,,,,,,,0.97306,1,,,,,,396,NW,"ID",50,flengy,FLENGY,z,0.97306,,,,,,0.089814829,-0.412962977,0,0,0,,0,205,205,335,1,
,,,,,,,,,,,,,,,,,,5d9312aa39412f00187c5490,2020-08-10_16h25.49.897,lexical_decision_task_MP,2020.1.3,Win32,60,m,1,,,,,,,,0.74671,1,,,,,,221,WORD,UN,33,hinder,MASCOT,m,0.74671,,,,,,0.089814829,-0.412962977,0,0,0,,0,206,206,160,1,
,,,,,,,,,,,,,,,,,,5d9312aa39412f00187c5490,2020-08-10_16h25.49.897,lexical_decision_task_MP,2020.1.3,Win32,60,z,1,,,,,,,,0.883775,1,,,,,,252,NW,UN,50,resait,STAPOD,z,0.883775,,,,,,0.089814829,-0.412962977,0,0,0,,0,207,207,431,1,
,,,,,,,,,,,,,,,,,,5d9312aa39412f00187c5490,2020-08-10_16h25.49.897,lexical_decision_task_MP,2020.1.3,Win32,60,m,1,,,,,,,,0.918375,1,,,,,,214,WORD,UN,33,phobia,INTAKE,m,0.918375,,,,,,0.089814829,-0.412962977,0,0,0,,0,208,208,153,1,
,,,,,,,,,,,,,,,,,,5d9312aa39412f00187c5490,2020-08-10_16h25.49.897,lexical_decision_task_MP,2020.1.3,Win32,60,,0,,,,,,,,0.918375,-1,,,,,,292,NW,UN,50,swance,ABLINT,z,,,,,,,0.089814829,-0.412962977,0,0,0,,0,209,209,471,1,
,,,,,,,,,,,,,,,,,,5d9312aa39412f00187c5490,2020-08-10_16h25.49.897,lexical_decision_task_MP,2020.1.3,Win32,60,,0,,,,,,,,0.918375,-1,,,,,,459,NW,UN,33,mingar,BAFENT,z,,,,,,,0.089814829,-0.412962977,0,0,0,,0,210,210,398,1,
,,,,,,,,,,,,,,,,,,5d9312aa39412f00187c5490,2020-08-10_16h25.49.897,lexical_decision_task_MP,2020.1.3,Win32,60,,0,,,,,,,,0.918375,-1,,,,,,216,WORD,UN,33,liquor,BEHALF,m,,,,,,,0.089814829,-0.412962977,0,0,0,,0,211,211,155,1,
,,,,,,,,,,,,,,,,,,5d9312aa39412f00187c5490,2020-08-10_16h25.49.897,lexical_decision_task_MP,2020.1.3,Win32,60,,0,,,,,,,,0.918375,-1,,,,,,249,NW,UN,50,milted,BATROL,z,,,,,,,0.089814829,-0.412962977,0,0,0,,0,212,212,428,1,
,,,,,,,,,,,,,,,,,,5d9312aa39412f00187c5490,2020-08-10_16h25.49.897,lexical_decision_task_MP,2020.1.3,Win32,60,m,0,,,,,,,,0.44168,0,,,,,,338,NW,"ID",33,wreash,WREASH,z,0.44168,,,,,,0.089814829,-0.412962977,0,0,0,,0,213,213,277,1,
,,,,,,,,,,,,,,,,,,5d9312aa39412f00187c5490,2020-08-10_16h25.49.897,lexical_decision_task_MP,2020.1.3,Win32,60,z,0,,,,,,,,0.425785,0,,,,,,41,WORD,UN,50,chapel,SPRING,m,0.425785,,,,,,0.089814829,-0.412962977,0,0,0,,0,214,214,220,1,
,,,,,,,,,,,,,,,,,,5d9312aa39412f00187c5490,2020-08-10_16h25.49.897,lexical_decision_task_MP,2020.1.3,Win32,60,,0,,,,,,,,0.425785,-1,,,,,,207,WORD,UN,33,hockey,WREATH,m,,,,,,,0.089814829,-0.412962977,0,0,0,,0,215,215,146,1,
,,,,,,,,,,,,,,,,,,5d9312aa39412f00187c5490,2020-08-10_16h25.49.897,lexical_decision_task_MP,2020.1.3,Win32,60,,0,,,,,,,,0.425785,-1,,,,,,336,NW,"ID",33,ghodus,GHODUS,z,,,,,,,0.089814829,-0.412962977,0,0,0,,0,216,216,275,1,
,,,,,,,,,,,,,,,,,,5d9312aa39412f00187c5490,2020-08-10_16h25.49.897,lexical_decision_task_MP,2020.1.3,Win32,60,m,0,,,,,,,,0.283555,0,,,,,,411,NW,"ID",50,orchin,ORCHIN,z,0.283555,,,,,,0.089814829,-0.412962977,0,0,0,,0,217,217,350,1,
,,,,,,,,,,,,,,,,,,5d9312aa39412f00187c5490,2020-08-10_16h25.49.897,lexical_decision_task_MP,2020.1.3,Win32,60,m,1,,,,,,,,0.863105,1,,,,,,74,WORD,"ID",33,plaque,PLAQUE,m,0.863105,,,,,,0.089814829,-0.412962977,0,0,0,,0,218,218,13,1,
,,,,,,,,,,,,,,,,,,5d9312aa39412f00187c5490,2020-08-10_16h25.49.897,lexical_decision_task_MP,2020.1.3,Win32,60,m,1,,,,,,,,0.563055,1,,,,,,233,WORD,UN,33,clumsy,NATURE,m,0.563055,,,,,,0.089814829,-0.412962977,0,0,0,,0,219,219,172,1,
,,,,,,,,,,,,,,,,,,5d9312aa39412f00187c5490,2020-08-10_16h25.49.897,lexical_decision_task_MP,2020.1.3,Win32,60,,0,,,,,,,,0.563055,-1,,,,,,418,NW,"ID",50,suidle,SUIDLE,z,,,,,,,0.089814829,-0.412962977,0,0,0,,0,220,220,357,1,
,,,,,,,,,,,,,,,,,,5d9312aa39412f00187c5490,2020-08-10_16h25.49.897,lexical_decision_task_MP,2020.1.3,Win32,60,m,1,,,,,,,,1.74958,1,,,,,,169,WORD,"ID",50,genius,GENIUS,m,1.74958,,,,,,0.089814829,-0.412962977,0,0,0,,0,221,221,108,1,
,,,,,,,,,,,,,,,,,,5d9312aa39412f00187c5490,2020-08-10_16h25.49.897,lexical_decision_task_MP,2020.1.3,Win32,60,,0,,,,,,,,1.74958,-1,,,,,,99,WORD,"ID",33,fluent,FLUENT,m,,,,,,,0.089814829,-0.412962977,0,0,0,,0,222,222,38,1,
,,,,,,,,,,,,,,,,,,5d9312aa39412f00187c5490,2020-08-10_16h25.49.897,lexical_decision_task_MP,2020.1.3,Win32,60,,0,,,,,,,,1.74958,-1,,,,,,239,WORD,UN,33,forest,LUMBER,m,,,,,,,0.089814829,-0.412962977,0,0,0,,0,223,223,178,1,
,,,,,,,,,,,,,,,,,,5d9312aa39412f00187c5490,2020-08-10_16h25.49.897,lexical_decision_task_MP,2020.1.3,Win32,60,,0,,,,,,,,1.74958,-1,,,,,,39,WORD,UN,50,convey,INSECT,m,,,,,,,0.089814829,-0.412962977,0,0,0,,0,224,224,218,1,
,,,,,,,,,,,,,,,,,,5d9312aa39412f00187c5490,2020-08-10_16h25.49.897,lexical_decision_task_MP,2020.1.3,Win32,60,,0,,,,,,,,1.74958,-1,,,,,,406,NW,"ID",50,nouply,NOUPLY,z,,,,,,,0.089814829,-0.412962977,0,0,0,,0,225,225,345,1,
,,,,,,,,,,,,,,,,,,5d9312aa39412f00187c5490,2020-08-10_16h25.49.897,lexical_decision_task_MP,2020.1.3,Win32,60,m,0,,,,,,,,1.753745,0,,,,,,296,NW,UN,50,fertic,BEINCH,z,1.753745,,,,,,0.089814829,-0.412962977,0,0,0,,0,226,226,475,1,
,,,,,,,,,,,,,,,,,,5d9312aa39412f00187c5490,2020-08-10_16h25.49.897,lexical_decision_task_MP,2020.1.3,Win32,60,m,1,,,,,,,,0.28787,1,,,,,,117,WORD,"ID",33,branch,BRANCH,m,0.28787,,,,,,0.089814829,-0.412962977,0,0,0,,0,227,227,56,1,
,,,,,,,,,,,,,,,,,,5d9312aa39412f00187c5490,2020-08-10_16h25.49.897,lexical_decision_task_MP,2020.1.3,Win32,60,m,0,,,,,,,,0.77716,0,,,,,,349,NW,"ID",33,asylen,ASYLEN,z,0.77716,,,,,,0.089814829,-0.412962977,0,0,0,,0,228,228,288,1,
,,,,,,,,,,,,,,,,,,5d9312aa39412f00187c5490,2020-08-10_16h25.49.897,lexical_decision_task_MP,2020.1.3,Win32,60,,0,,,,,,,,0.77716,-1,,,,,,342,NW,"ID",33,randow,RANDOW,z,,,,,,,0.089814829,-0.412962977,0,0,0,,0,229,229,281,1,
,,,,,,,,,,,,,,,,,,5d9312aa39412f00187c5490,2020-08-10_16h25.49.897,lexical_decision_task_MP,2020.1.3,Win32,60,,0,,,,,,,,0.77716,-1,,,,,,380,NW,"ID",50,cavory,CAVORY,z,,,,,,,0.089814829,-0.412962977,0,0,0,,0,230,230,319,1,
,,,,,,,,,,,,,,,,,,5d9312aa39412f00187c5490,2020-08-10_16h25.49.897,lexical_decision_task_MP,2020.1.3,Win32,60,,0,,,,,,,,0.77716,-1,,,,,,186,WORD,UN,33,course,PORTAL,m,,,,,,,0.089814829,-0.412962977,0,0,0,,0,231,231,125,1,
,,,,,,,,,,,,,,,,,,5d9312aa39412f00187c5490,2020-08-10_16h25.49.897,lexical_decision_task_MP,2020.1.3,Win32,60,m,1,,,,,,,,1.41594,1,,,,,,109,WORD,"ID",33,wonder,WONDER,m,1.41594,,,,,,-0.009259246,-0.252777789,0,0,0,,0,232,232,48,1,
,,,,,,,,,,,,,,,,,,5d9312aa39412f00187c5490,2020-08-10_16h25.49.897,lexical_decision_task_MP,2020.1.3,Win32,60,m,1,,,,,,,,0.598625,1,,,,,,187,WORD,UN,33,social,COURSE,m,0.598625,,,,,,-0.009259246,-0.252777789,0,0,0,,0,233,233,126,1,
,,,,,,,,,,,,,,,,,,5d9312aa39412f00187c5490,2020-08-10_16h25.49.897,lexical_decision_task_MP,2020.1.3,Win32,60,m,1,,,,,,,,0.515155,1,,,,,,141,WORD,"ID",50,orphan,ORPHAN,m,0.515155,,,,,,-0.009259246,-0.252777789,0,0,0,,0,234,234,80,1,
,,,,,,,,,,,,,,,,,,5d9312aa39412f00187c5490,2020-08-10_16h25.49.897,lexical_decision_task_MP,2020.1.3,Win32,60,,0,,,,,,,,0.515155,-1,,,,,,38,WORD,UN,50,insect,POWDER,m,,,,,,,-0.009259246,-0.252777789,0,0,0,,0,235,235,217,1,
,,,,,,,,,,,,,,,,,,5d9312aa39412f00187c5490,2020-08-10_16h25.49.897,lexical_decision_task_MP,2020.1.3,Win32,60,m,1,,,,,,,,1.24164,1,,,,,,182,WORD,UN,33,absent,WINTER,m,1.24164,,,,,,-0.009259246,-0.252777789,0,0,0,,0,236,236,121,1,
,,,,,,,,,,,,,,,,,,5d9312aa39412f00187c5490,2020-08-10_16h25.49.897,lexical_decision_task_MP,2020.1.3,Win32,60,m,1,,,,,,,,1.69881,1,,,,,,95,WORD,"ID",33,thread,THREAD,m,1.69881,,,,,,-0.009259246,-0.252777789,0,0,0,,0,237,237,34,1,
,,,,,,,,,,,,,,,,,,5d9312aa39412f00187c5490,2020-08-10_16h25.49.897,lexical_decision_task_MP,2020.1.3,Win32,60,m,0,,,,,,,,1.543845,0,,,,,,413,NW,"ID",50,equats,EQUATS,z,1.543845,,,,,,-0.009259246,-0.252777789,0,0,0,,0,238,238,352,1,
,,,,,,,,,,,,,,,,,,5d9312aa39412f00187c5490,2020-08-10_16h25.49.897,lexical_decision_task_MP,2020.1.3,Win32,60,m,1,,,,,,,,1.763065,1,,,,,,59,WORD,UN,50,pencil,SPLINT,m,1.763065,,,,,,-0.009259246,-0.252777789,0,0,0,,0,239,239,238,1,
,,,,,,,,,,,,,,,,,,5d9312aa39412f00187c5490,2020-08-10_16h25.49.897,lexical_decision_task_MP,2020.1.3,Win32,60,m,0,,,,,,,,0.26609,0,,,,,,362,NW,"ID",50,tireau,TIREAU,z,0.26609,,,,,,-0.009259246,-0.252777789,0,0,0,,0,240,240,301,1,
,,,,,,,,,,,,,,,,,,5d9312aa39412f00187c5490,2020-08-10_16h25.49.897,lexical_decision_task_MP,2020.1.3,Win32,60,,0,,,,,,,,0.26609,-1,,,,,,251,NW,UN,50,stapod,LUPICT,z,,,,,,,-0.009259246,-0.252777789,0,0,0,space,0,241,241,430,1,103.23083
,,,,,,,,,,,,,,,,,,5d9312aa39412f00187c5490,2020-08-10_16h25.49.897,lexical_decision_task_MP,2020.1.3,Win32,60,m,1,,,,,,,,0.653825,1,,,,,,222,WORD,UN,33,export,HINDER,m,0.653825,,,,,,-0.009259246,-0.252777789,0,0,0,,0,242,242,161,1,
,,,,,,,,,,,,,,,,,,5d9312aa39412f00187c5490,2020-08-10_16h25.49.897,lexical_decision_task_MP,2020.1.3,Win32,60,m,1,,,,,,,,0.422225,1,,,,,,111,WORD,"ID",33,induce,INDUCE,m,0.422225,,,,,,-0.009259246,-0.252777789,0,0,0,,0,243,243,50,1,
,,,,,,,,,,,,,,,,,,5d9312aa39412f00187c5490,2020-08-10_16h25.49.897,lexical_decision_task_MP,2020.1.3,Win32,60,m,1,,,,,,,,0.434745,1,,,,,,157,WORD,"ID",50,dragon,DRAGON,m,0.434745,,,,,,-0.009259246,-0.252777789,0,0,0,,0,244,244,96,1,
,,,,,,,,,,,,,,,,,,5d9312aa39412f00187c5490,2020-08-10_16h25.49.897,lexical_decision_task_MP,2020.1.3,Win32,60,m,1,,,,,,,,0.397365,1,,,,,,68,WORD,"ID",33,fumble,FUMBLE,m,0.397365,,,,,,-0.009259246,-0.252777789,0,0,0,,0,245,245,7,1,
,,,,,,,,,,,,,,,,,,5d9312aa39412f00187c5490,2020-08-10_16h25.49.897,lexical_decision_task_MP,2020.1.3,Win32,60,z,1,,,,,,,,0.98113,1,,,,,,284,NW,UN,50,prudge,SHAPLE,z,0.98113,,,,,,-0.009259246,-0.252777789,0,0,0,,0,246,246,463,1,
,,,,,,,,,,,,,,,,,,5d9312aa39412f00187c5490,2020-08-10_16h25.49.897,lexical_decision_task_MP,2020.1.3,Win32,60,m,0,,,,,,,,0.61311,0,,,,,,426,NW,UN,33,schind,URIVEL,z,0.61311,,,,,,-0.009259246,-0.252777789,0,0,0,,0,247,247,365,1,
,,,,,,,,,,,,,,,,,,5d9312aa39412f00187c5490,2020-08-10_16h25.49.897,lexical_decision_task_MP,2020.1.3,Win32,60,m,0,,,,,,,,0.60254,0,,,,,,388,NW,"ID",50,cragin,CRAGIN,z,0.60254,,,,,,-0.009259246,-0.252777789,0,0,0,,0,248,248,327,1,
,,,,,,,,,,,,,,,,,,5d9312aa39412f00187c5490,2020-08-10_16h25.49.897,lexical_decision_task_MP,2020.1.3,Win32,60,m,1,,,,,,,,0.78077,1,,,,,,200,WORD,UN,33,admire,BEACON,m,0.78077,,,,,,-0.009259246,-0.252777789,0,0,0,,0,249,249,139,1,
,,,,,,,,,,,,,,,,,,5d9312aa39412f00187c5490,2020-08-10_16h25.49.897,lexical_decision_task_MP,2020.1.3,Win32,60,z,0,,,,,,,,1.28209,0,,,,,,75,WORD,"ID",33,trophy,TROPHY,m,1.28209,,,,,,-0.009259246,-0.252777789,0,0,0,,0,250,250,14,1,
,,,,,,,,,,,,,,,,,,5d9312aa39412f00187c5490,2020-08-10_16h25.49.897,lexical_decision_task_MP,2020.1.3,Win32,60,m,0,,,,,,,,1.56537,0,,,,,,274,NW,UN,50,sleirt,FUMBLO,z,1.56537,,,,,,-0.009259246,-0.252777789,0,0,0,,0,251,251,453,1,
,,,,,,,,,,,,,,,,,,5d9312aa39412f00187c5490,2020-08-10_16h25.49.897,lexical_decision_task_MP,2020.1.3,Win32,60,m,1,,,,,,,,0.546985,1,,,,,,162,WORD,"ID",50,candle,CANDLE,m,0.546985,,,,,,-0.009259246,-0.252777789,0,0,0,,0,252,252,101,1,
,,,,,,,,,,,,,,,,,,5d9312aa39412f00187c5490,2020-08-10_16h25.49.897,lexical_decision_task_MP,2020.1.3,Win32,60,z,1,,,,,,,,0.96442,1,,,,,,308,NW,"ID",33,psetch,PSETCH,z,0.96442,,,,,,-0.009259246,-0.252777789,0,0,0,,0,253,253,247,1,
,,,,,,,,,,,,,,,,,,5d9312aa39412f00187c5490,2020-08-10_16h25.49.897,lexical_decision_task_MP,2020.1.3,Win32,60,z,1,,,,,,,,0.93044,1,,,,,,403,NW,"ID",50,bruats,BRUATS,z,0.93044,,,,,,-0.009259246,-0.252777789,0,0,0,,0,254,254,342,1,
,,,,,,,,,,,,,,,,,,5d9312aa39412f00187c5490,2020-08-10_16h25.49.897,lexical_decision_task_MP,2020.1.3,Win32,60,z,1,,,,,,,,1.064715,1,,,,,,367,NW,"ID",50,slique,SLIQUE,z,1.064715,,,,,,-0.009259246,-0.252777789,0,0,0,,0,255,255,306,1,
,,,,,,,,,,,,,,,,,,5d9312aa39412f00187c5490,2020-08-10_16h25.49.897,lexical_decision_task_MP,2020.1.3,Win32,60,m,1,,,,,,,,1.54577,1,,,,,,106,WORD,"ID",33,ransom,RANSOM,m,1.54577,,,,,,-0.009259246,-0.252777789,0,0,0,,0,256,256,45,1,
,,,,,,,,,,,,,,,,,,5d9312aa39412f00187c5490,2020-08-10_16h25.49.897,lexical_decision_task_MP,2020.1.3,Win32,60,,0,,,,,,,,1.54577,-1,,,,,,72,WORD,"ID",33,bright,BRIGHT,m,,,,,,,-0.009259246,-0.252777789,0,0,0,,0,257,257,11,1,
,,,,,,,,,,,,,,,,,,5d9312aa39412f00187c5490,2020-08-10_16h25.49.897,lexical_decision_task_MP,2020.1.3,Win32,60,z,1,,,,,,,,1.126605,1,,,,,,300,NW,UN,50,smenco,YARION,z,1.126605,,,,,,-0.009259246,-0.252777789,0,0,0,,0,258,258,479,1,
,,,,,,,,,,,,,,,,,,5d9312aa39412f00187c5490,2020-08-10_16h25.49.897,lexical_decision_task_MP,2020.1.3,Win32,60,,0,,,,,,,,1.126605,-1,,,,,,466,NW,UN,33,robuly,HOCITE,z,,,,,,,-0.009259246,-0.252777789,0,0,0,,0,259,259,405,1,
,,,,,,,,,,,,,,,,,,5d9312aa39412f00187c5490,2020-08-10_16h25.49.897,lexical_decision_task_MP,2020.1.3,Win32,60,z,0,,,,,,,,0.92934,0,,,,,,204,WORD,UN,33,lounge,BURDEN,m,0.92934,,,,,,-0.009259246,-0.252777789,0,0,0,,0,260,260,143,1,
,,,,,,,,,,,,,,,,,,5d9312aa39412f00187c5490,2020-08-10_16h25.49.897,lexical_decision_task_MP,2020.1.3,Win32,60,z,1,,,,,,,,0.896955,1,,,,,,246,NW,UN,50,blarge,PIATON,z,0.896955,,,,,,-0.009259246,-0.252777789,0,0,0,,0,261,261,425,1,
,,,,,,,,,,,,,,,,,,5d9312aa39412f00187c5490,2020-08-10_16h25.49.897,lexical_decision_task_MP,2020.1.3,Win32,60,z,0,,,,,,,,0.934085,0,,,,,,85,WORD,"ID",33,sprawl,SPRAWL,m,0.934085,,,,,,-0.009259246,-0.252777789,0,0,0,,0,262,262,24,1,
,,,,,,,,,,,,,,,,,,5d9312aa39412f00187c5490,2020-08-10_16h25.49.897,lexical_decision_task_MP,2020.1.3,Win32,60,z,0,,,,,,,,1.014405,0,,,,,,135,WORD,"ID",50,import,IMPORT,m,1.014405,,,,,,-0.009259246,-0.252777789,0,0,0,,0,263,263,74,1,
,,,,,,,,,,,,,,,,,,5d9312aa39412f00187c5490,2020-08-10_16h25.49.897,lexical_decision_task_MP,2020.1.3,Win32,60,m,1,,,,,,,,1.448355,1,,,,,,238,WORD,UN,33,behalf,FLOWER,m,1.448355,,,,,,-0.009259246,-0.252777789,0,0,0,,0,264,264,177,1,
,,,,,,,,,,,,,,,,,,5d9312aa39412f00187c5490,2020-08-10_16h25.49.897,lexical_decision_task_MP,2020.1.3,Win32,60,m,1,,,,,,,,0.502225,1,,,,,,52,WORD,UN,50,police,IMPOSE,m,0.502225,,,,,,-0.009259246,-0.252777789,0,0,0,,0,265,265,231,1,
,,,,,,,,,,,,,,,,,,5d9312aa39412f00187c5490,2020-08-10_16h25.49.897,lexical_decision_task_MP,2020.1.3,Win32,60,m,1,,,,,,,,1.197655,1,,,,,,139,WORD,"ID",50,debris,DEBRIS,m,1.197655,,,,,,-0.009259246,-0.252777789,0,0,0,,0,266,266,78,1,
,,,,,,,,,,,,,,,,,,5d9312aa39412f00187c5490,2020-08-10_16h25.49.897,lexical_decision_task_MP,2020.1.3,Win32,60,m,1,,,,,,,,0.450405,1,,,,,,24,WORD,UN,50,domain,PRAISE,m,0.450405,,,,,,-0.009259246,-0.252777789,0,0,0,,0,267,267,203,1,
,,,,,,,,,,,,,,,,,,5d9312aa39412f00187c5490,2020-08-10_16h25.49.897,lexical_decision_task_MP,2020.1.3,Win32,60,z,1,,,,,,,,0.934425,1,,,,,,442,NW,UN,33,dorsex,ABOUNE,z,0.934425,,,,,,-0.009259246,-0.252777789,0,0,0,,0,268,268,381,1,
,,,,,,,,,,,,,,,,,,5d9312aa39412f00187c5490,2020-08-10_16h25.49.897,lexical_decision_task_MP,2020.1.3,Win32,60,z,1,,,,,,,,0.945345,1,,,,,,455,NW,UN,33,broget,TONDLE,z,0.945345,,,,,,-0.009259246,-0.252777789,0,0,0,,0,269,269,394,1,
,,,,,,,,,,,,,,,,,,5d9312aa39412f00187c5490,2020-08-10_16h25.49.897,lexical_decision_task_MP,2020.1.3,Win32,60,m,1,,,,,,,,0.499555,1,,,,,,35,WORD,UN,50,vanish,SOCKET,m,0.499555,,,,,,-0.009259246,-0.252777789,0,0,0,,0,270,270,214,1,
,,,,,,,,,,,,,,,,,,5d9312aa39412f00187c5490,2020-08-10_16h25.49.897,lexical_decision_task_MP,2020.1.3,Win32,60,m,1,,,,,,,,0.596935,1,,,,,,18,WORD,UN,50,patron,HUMBLE,m,0.596935,,,,,,-0.009259246,-0.252777789,0,0,0,,0,271,271,197,1,
,,,,,,,,,,,,,,,,,,5d9312aa39412f00187c5490,2020-08-10_16h25.49.897,lexical_decision_task_MP,2020.1.3,Win32,60,m,1,,,,,,,,0.38213,1,,,,,,164,WORD,"ID",50,market,MARKET,m,0.38213,,,,,,-0.009259246,-0.252777789,0,0,0,,0,272,272,103,1,
,,,,,,,,,,,,,,,,,,5d9312aa39412f00187c5490,2020-08-10_16h25.49.897,lexical_decision_task_MP,2020.1.3,Win32,60,m,0,,,,,,,,0.546635,0,,,,,,417,NW,"ID",50,earoud,EAROUD,z,0.546635,,,,,,-0.009259246,-0.252777789,0,0,0,,0,273,273,356,1,
,,,,,,,,,,,,,,,,,,5d9312aa39412f00187c5490,2020-08-10_16h25.49.897,lexical_decision_task_MP,2020.1.3,Win32,60,z,1,,,,,,,,0.95206,1,,,,,,312,NW,"ID",33,nerawl,NERAWL,z,0.95206,,,,,,-0.009259246,-0.252777789,0,0,0,,0,274,274,251,1,
,,,,,,,,,,,,,,,,,,5d9312aa39412f00187c5490,2020-08-10_16h25.49.897,lexical_decision_task_MP,2020.1.3,Win32,60,z,0,,,,,,,,0.929595,0,,,,,,45,WORD,UN,50,single,CLERGY,m,0.929595,,,,,,-0.009259246,-0.252777789,0,0,0,,0,275,275,224,1,
,,,,,,,,,,,,,,,,,,5d9312aa39412f00187c5490,2020-08-10_16h25.49.897,lexical_decision_task_MP,2020.1.3,Win32,60,m,1,,,,,,,,0.64915,1,,,,,,220,WORD,UN,33,mascot,VOYAGE,m,0.64915,,,,,,-0.009259246,-0.252777789,0,0,0,,0,276,276,159,1,
,,,,,,,,,,,,,,,,,,5d9312aa39412f00187c5490,2020-08-10_16h25.49.897,lexical_decision_task_MP,2020.1.3,Win32,60,z,1,,,,,,,,1.376845,1,,,,,,340,NW,"ID",33,fiatch,FIATCH,z,1.376845,,,,,,-0.009259246,-0.252777789,0,0,0,,0,277,277,279,1,
,,,,,,,,,,,,,,,,,,5d9312aa39412f00187c5490,2020-08-10_16h25.49.897,lexical_decision_task_MP,2020.1.3,Win32,60,z,1,,,,,,,,0.928745,1,,,,,,478,NW,UN,33,pebric,ACRISE,z,0.928745,,,,,,-0.009259246,-0.252777789,0,0,0,,0,278,278,417,1,
,,,,,,,,,,,,,,,,,,5d9312aa39412f00187c5490,2020-08-10_16h25.49.897,lexical_decision_task_MP,2020.1.3,Win32,60,,0,,,,,,,,0.928745,-1,,,,,,278,NW,UN,50,celond,UNIGHS,z,,,,,,,-0.009259246,-0.252777789,0,0,0,,0,279,279,457,1,
,,,,,,,,,,,,,,,,,,5d9312aa39412f00187c5490,2020-08-10_16h25.49.897,lexical_decision_task_MP,2020.1.3,Win32,60,,0,,,,,,,,0.928745,-1,,,,,,127,WORD,"ID",50,castle,CASTLE,m,,,,,,,-0.009259246,-0.252777789,0,0,0,,0,280,280,66,1,
,,,,,,,,,,,,,,,,,,5d9312aa39412f00187c5490,2020-08-10_16h25.49.897,lexical_decision_task_MP,2020.1.3,Win32,60,,0,0.206481498,-0.025000008,1,0,0,1.79326,,0.928745,-1,,,,,,64,WORD,"ID",33,throne,THRONE,m,,,,,,,0.206481498,-0.025000008,0,0,0,,0,281,281,3,1,
,,,,,,,,,,,,,,,,,,5d9312aa39412f00187c5490,2020-08-10_16h25.49.897,lexical_decision_task_MP,2020.1.3,Win32,60,z,1,,,,,,,,0.82925,1,,,,,,419,NW,"ID",50,slount,SLOUNT,z,0.82925,,,,,,0.206481498,-0.025000008,0,0,0,,0,282,282,358,1,
,,,,,,,,,,,,,,,,,,5d9312aa39412f00187c5490,2020-08-10_16h25.49.897,lexical_decision_task_MP,2020.1.3,Win32,60,z,1,,,,,,,,0.763265,1,,,,,,445,NW,UN,33,runamo,MINKEL,z,0.763265,,,,,,0.206481498,-0.025000008,0,0,0,,0,283,283,384,1,
,,,,,,,,,,,,,,,,,,5d9312aa39412f00187c5490,2020-08-10_16h25.49.897,lexical_decision_task_MP,2020.1.3,Win32,60,z,1,,,,,,,,0.963595,1,,,,,,402,NW,"ID",50,syntic,SYNTIC,z,0.963595,,,,,,0.206481498,-0.025000008,0,0,0,,0,284,284,341,1,
,,,,,,,,,,,,,,,,,,5d9312aa39412f00187c5490,2020-08-10_16h25.49.897,lexical_decision_task_MP,2020.1.3,Win32,60,m,1,,,,,,,,0.753815,1,,,,,,228,WORD,UN,33,kidney,MASTER,m,0.753815,,,,,,0.206481498,-0.025000008,0,0,0,,0,285,285,167,1,
,,,,,,,,,,,,,,,,,,5d9312aa39412f00187c5490,2020-08-10_16h25.49.897,lexical_decision_task_MP,2020.1.3,Win32,60,m,1,,,,,,,,0.92949,1,,,,,,8,WORD,UN,50,hustle,ABRUPT,m,0.92949,,,,,,0.206481498,-0.025000008,0,0,0,,0,286,286,187,1,
,,,,,,,,,,,,,,,,,,5d9312aa39412f00187c5490,2020-08-10_16h25.49.897,lexical_decision_task_MP,2020.1.3,Win32,60,z,1,,,,,,,,1.004095,1,,,,,,399,NW,"ID",50,fouret,FOURET,z,1.004095,,,,,,0.206481498,-0.025000008,0,0,0,,0,287,287,338,1,
,,,,,,,,,,,,,,,,,,5d9312aa39412f00187c5490,2020-08-10_16h25.49.897,lexical_decision_task_MP,2020.1.3,Win32,60,z,1,,,,,,,,0.797705,1,,,,,,267,NW,UN,50,packes,PASINK,z,0.797705,,,,,,0.206481498,-0.025000008,0,0,0,,0,288,288,446,1,
,,,,,,,,,,,,,,,,,,5d9312aa39412f00187c5490,2020-08-10_16h25.49.897,lexical_decision_task_MP,2020.1.3,Win32,60,z,1,,,,,,,,0.78037,1,,,,,,401,NW,"ID",50,mustil,MUSTIL,z,0.78037,,,,,,0.206481498,-0.025000008,0,0,0,,0,289,289,340,1,
,,,,,,,,,,,,,,,,,,5d9312aa39412f00187c5490,2020-08-10_16h25.49.897,lexical_decision_task_MP,2020.1.3,Win32,60,z,1,,,,,,,,0.805535,1,,,,,,257,NW,UN,50,poluth,VENIOD,z,0.805535,,,,,,0.206481498,-0.025000008,0,0,0,,0,290,290,436,1,
,,,,,,,,,,,,,,,,,,5d9312aa39412f00187c5490,2020-08-10_16h25.49.897,lexical_decision_task_MP,2020.1.3,Win32,60,z,1,,,,,,,,0.849545,1,,,,,,301,NW,"ID",33,fainch,FAINCH,z,0.849545,,,,,,0.206481498,-0.025000008,0,0,0,,0,291,291,240,1,
,,,,,,,,,,,,,,,,,,5d9312aa39412f00187c5490,2020-08-10_16h25.49.897,lexical_decision_task_MP,2020.1.3,Win32,60,m,0,,,,,,,,0.82966,0,,,,,,341,NW,"ID",33,myrtie,MYRTIE,z,0.82966,,,,,,0.206481498,-0.025000008,0,0,0,,0,292,292,280,1,
,,,,,,,,,,,,,,,,,,5d9312aa39412f00187c5490,2020-08-10_16h25.49.897,lexical_decision_task_MP,2020.1.3,Win32,60,m,1,,,,,,,,0.51426,1,,,,,,73,WORD,"ID",33,source,SOURCE,m,0.51426,,,,,,0.206481498,-0.025000008,0,0,0,,0,293,293,12,1,
,,,,,,,,,,,,,,,,,,5d9312aa39412f00187c5490,2020-08-10_16h25.49.897,lexical_decision_task_MP,2020.1.3,Win32,60,m,1,,,,,,,,0.58765,1,,,,,,191,WORD,UN,33,beacon,STABLE,m,0.58765,,,,,,0.206481498,-0.025000008,0,0,0,,0,294,294,130,1,
,,,,,,,,,,,,,,,,,,5d9312aa39412f00187c5490,2020-08-10_16h25.49.897,lexical_decision_task_MP,2020.1.3,Win32,60,z,1,,,,,,,,0.81528,1,,,,,,347,NW,"ID",33,kerift,KERIFT,z,0.81528,,,,,,0.206481498,-0.025000008,0,0,0,,0,295,295,286,1,
,,,,,,,,,,,,,,,,,,5d9312aa39412f00187c5490,2020-08-10_16h25.49.897,lexical_decision_task_MP,2020.1.3,Win32,60,m,1,,,,,,,,1.3828,1,,,,,,197,WORD,UN,33,wicked,STREAM,m,1.3828,,,,,,0.206481498,-0.025000008,0,0,0,,0,296,296,136,1,
,,,,,,,,,,,,,,,,,,5d9312aa39412f00187c5490,2020-08-10_16h25.49.897,lexical_decision_task_MP,2020.1.3,Win32,60,m,1,,,,,,,,0.48052,1,,,,,,2,WORD,UN,50,knight,BRIDGE,m,0.48052,,,,,,0.206481498,-0.025000008,0,0,0,,0,297,297,181,1,
,,,,,,,,,,,,,,,,,,5d9312aa39412f00187c5490,2020-08-10_16h25.49.897,lexical_decision_task_MP,2020.1.3,Win32,60,m,1,,,,,,,,0.366625,1,,,,,,174,WORD,"ID",50,turkey,TURKEY,m,0.366625,,,,,,0.206481498,-0.025000008,0,0,0,,0,298,298,113,1,
,,,,,,,,,,,,,,,,,,5d9312aa39412f00187c5490,2020-08-10_16h25.49.897,lexical_decision_task_MP,2020.1.3,Win32,60,m,0,,,,,,,,0.59837,0,,,,,,316,NW,"ID",33,scregm,SCREGM,z,0.59837,,,,,,0.206481498,-0.025000008,0,0,0,,0,299,299,255,1,
,,,,,,,,,,,,,,,,,,5d9312aa39412f00187c5490,2020-08-10_16h25.49.897,lexical_decision_task_MP,2020.1.3,Win32,60,m,1,,,,,,,,0.463915,1,,,,,,167,WORD,"ID",50,design,DESIGN,m,0.463915,,,,,,0.206481498,-0.025000008,0,0,0,,0,300,300,106,1,
,,,,,,,,,,,,,,,,,,5d9312aa39412f00187c5490,2020-08-10_16h25.49.897,lexical_decision_task_MP,2020.1.3,Win32,60,m,1,,,,,,,,0.76941,1,,,,,,189,WORD,UN,33,backup,CENSOR,m,0.76941,,,,,,0.206481498,-0.025000008,0,0,0,,0,301,301,128,1,
,,,,,,,,,,,,,,,,,,5d9312aa39412f00187c5490,2020-08-10_16h25.49.897,lexical_decision_task_MP,2020.1.3,Win32,60,z,1,,,,,,,,0.85409,1,,,,,,359,NW,"ID",33,fonver,FONVER,z,0.85409,,,,,,0.206481498,-0.025000008,0,0,0,,0,302,302,298,1,
,,,,,,,,,,,,,,,,,,5d9312aa39412f00187c5490,2020-08-10_16h25.49.897,lexical_decision_task_MP,2020.1.3,Win32,60,z,1,,,,,,,,0.697205,1,,,,,,410,NW,"ID",50,tunory,TUNORY,z,0.697205,,,,,,0.206481498,-0.025000008,0,0,0,,0,303,303,349,1,
,,,,,,,,,,,,,,,,,,5d9312aa39412f00187c5490,2020-08-10_16h25.49.897,lexical_decision_task_MP,2020.1.3,Win32,60,z,1,,,,,,,,1.193815,1,,,,,,361,NW,"ID",50,pauche,PAUCHE,z,1.193815,,,,,,0.206481498,-0.025000008,0,0,0,,0,304,304,300,1,
,,,,,,,,,,,,,,,,,,5d9312aa39412f00187c5490,2020-08-10_16h25.49.897,lexical_decision_task_MP,2020.1.3,Win32,60,z,1,,,,,,,,0.810965,1,,,,,,343,NW,"ID",33,aimosy,AIMOSY,z,0.810965,,,,,,0.206481498,-0.025000008,0,0,0,,0,305,305,282,1,
,,,,,,,,,,,,,,,,,,5d9312aa39412f00187c5490,2020-08-10_16h25.49.897,lexical_decision_task_MP,2020.1.3,Win32,60,m,1,,,,,,,,0.601545,1,,,,,,69,WORD,"ID",33,plenty,PLENTY,m,0.601545,,,,,,0.206481498,-0.025000008,0,0,0,,0,306,306,8,1,
,,,,,,,,,,,,,,,,,,5d9312aa39412f00187c5490,2020-08-10_16h25.49.897,lexical_decision_task_MP,2020.1.3,Win32,60,m,1,,,,,,,,0.43103,1,,,,,,93,WORD,"ID",33,public,PUBLIC,m,0.43103,,,,,,0.206481498,-0.025000008,0,0,0,,0,307,307,32,1,
,,,,,,,,,,,,,,,,,,5d9312aa39412f00187c5490,2020-08-10_16h25.49.897,lexical_decision_task_MP,2020.1.3,Win32,60,m,1,,,,,,,,0.56504,1,,,,,,229,WORD,UN,33,fringe,MOTHER,m,0.56504,,,,,,0.206481498,-0.025000008,0,0,0,,0,308,308,168,1,
,,,,,,,,,,,,,,,,,,5d9312aa39412f00187c5490,2020-08-10_16h25.49.897,lexical_decision_task_MP,2020.1.3,Win32,60,m,0,,,,,,,,0.472275,0,,,,,,273,NW,UN,50,fumblo,SORTEL,z,0.472275,,,,,,0.206481498,-0.025000008,0,0,0,,0,309,309,452,1,
,,,,,,,,,,,,,,,,,,5d9312aa39412f00187c5490,2020-08-10_16h25.49.897,lexical_decision_task_MP,2020.1.3,Win32,60,z,1,,,,,,,,0.76681,1,,,,,,241,NW,UN,50,unwert,SMENCO,z,0.76681,,,,,,0.206481498,-0.025000008,0,0,0,,0,310,310,420,1,
,,,,,,,,,,,,,,,,,,5d9312aa39412f00187c5490,2020-08-10_16h25.49.897,lexical_decision_task_MP,2020.1.3,Win32,60,z,1,,,,,,,,1.384555,1,,,,,,306,NW,"ID",33,sounge,SOUNGE,z,1.384555,,,,,,0.206481498,-0.025000008,0,0,0,,0,311,311,245,1,
,,,,,,,,,,,,,,,,,,5d9312aa39412f00187c5490,2020-08-10_16h25.49.897,lexical_decision_task_MP,2020.1.3,Win32,60,m,1,,,,,,,,0.432305,1,,,,,,12,WORD,UN,50,strive,ORANGE,m,0.432305,,,,,,0.206481498,-0.025000008,0,0,0,,0,312,312,191,1,
,,,,,,,,,,,,,,,,,,5d9312aa39412f00187c5490,2020-08-10_16h25.49.897,lexical_decision_task_MP,2020.1.3,Win32,60,m,1,,,,,,,,1.47935,1,,,,,,37,WORD,UN,50,powder,INSULT,m,1.47935,,,,,,0.206481498,-0.025000008,0,0,0,,0,313,313,216,1,
,,,,,,,,,,,,,,,,,,5d9312aa39412f00187c5490,2020-08-10_16h25.49.897,lexical_decision_task_MP,2020.1.3,Win32,60,m,1,,,,,,,,0.4132,1,,,,,,140,WORD,"ID",50,prince,PRINCE,m,0.4132,,,,,,0.206481498,-0.025000008,0,0,0,,0,314,314,79,1,
,,,,,,,,,,,,,,,,,,5d9312aa39412f00187c5490,2020-08-10_16h25.49.897,lexical_decision_task_MP,2020.1.3,Win32,60,m,1,,,,,,,,0.4484,1,,,,,,144,WORD,"ID",50,sponge,SPONGE,m,0.4484,,,,,,0.206481498,-0.025000008,0,0,0,,0,315,315,83,1,
,,,,,,,,,,,,,,,,,,5d9312aa39412f00187c5490,2020-08-10_16h25.49.897,lexical_decision_task_MP,2020.1.3,Win32,60,z,1,,,,,,,,0.806815,1,,,,,,390,NW,"ID",50,hatrus,HATRUS,z,0.806815,,,,,,0.206481498,-0.025000008,0,0,0,,0,316,316,329,1,
,,,,,,,,,,,,,,,,,,5d9312aa39412f00187c5490,2020-08-10_16h25.49.897,lexical_decision_task_MP,2020.1.3,Win32,60,z,1,,,,,,,,0.90392,1,,,,,,358,NW,"ID",33,fleack,FLEACK,z,0.90392,,,,,,0.206481498,-0.025000008,0,0,0,,0,317,317,297,1,
,,,,,,,,,,,,,,,,,,5d9312aa39412f00187c5490,2020-08-10_16h25.49.897,lexical_decision_task_MP,2020.1.3,Win32,60,m,0,,,,,,,,0.31286,0,,,,,,444,NW,UN,33,minkel,JAUNCE,z,0.31286,,,,,,0.206481498,-0.025000008,0,0,0,,0,318,318,383,1,
,,,,,,,,,,,,,,,,,,5d9312aa39412f00187c5490,2020-08-10_16h25.49.897,lexical_decision_task_MP,2020.1.3,Win32,60,m,1,,,,,,,,0.230465,1,,,,,,194,WORD,UN,33,resign,ABSENT,m,0.230465,,,,,,0.206481498,-0.025000008,0,0,0,,0,319,319,133,1,
,,,,,,,,,,,,,,,,,,5d9312aa39412f00187c5490,2020-08-10_16h25.49.897,lexical_decision_task_MP,2020.1.3,Win32,60,m,0,,,,,,,,0.298505,0,,,,,,277,NW,UN,50,unighs,PETAIN,z,0.298505,,,,,,0.206481498,-0.025000008,0,0,0,,0,320,320,456,1,
,,,,,,,,,,,,,,,,,,5d9312aa39412f00187c5490,2020-08-10_16h25.49.897,lexical_decision_task_MP,2020.1.3,Win32,60,,0,,,,,,,,0.298505,-1,,,,,,330,NW,"ID",33,kensom,KENSOM,z,,,,,,,0.206481498,-0.025000008,0,0,0,,0,321,321,269,1,
,,,,,,,,,,,,,,,,,,5d9312aa39412f00187c5490,2020-08-10_16h25.49.897,lexical_decision_task_MP,2020.1.3,Win32,60,m,1,,,,,,,,0.574545,1,,,,,,71,WORD,"ID",33,garden,GARDEN,m,0.574545,,,,,,0.206481498,-0.025000008,0,0,0,,0,322,322,10,1,
,,,,,,,,,,,,,,,,,,5d9312aa39412f00187c5490,2020-08-10_16h25.49.897,lexical_decision_task_MP,2020.1.3,Win32,60,m,1,,,,,,,,0.517295,1,,,,,,134,WORD,"ID",50,staple,STAPLE,m,0.517295,,,,,,0.206481498,-0.025000008,0,0,0,,0,323,323,73,1,
,,,,,,,,,,,,,,,,,,5d9312aa39412f00187c5490,2020-08-10_16h25.49.897,lexical_decision_task_MP,2020.1.3,Win32,60,,0,,,,,,,,0.517295,-1,,,,,,263,NW,UN,50,vackel,DOLICA,z,,,,,,,0.206481498,-0.025000008,0,0,0,,0,324,324,442,1,
,,,,,,,,,,,,,,,,,,5d9312aa39412f00187c5490,2020-08-10_16h25.49.897,lexical_decision_task_MP,2020.1.3,Win32,60,,0,,,,,,,,0.517295,-1,,,,,,81,WORD,"ID",33,friend,FRIEND,m,,,,,,,0.206481498,-0.025000008,0,0,0,,0,325,325,20,1,
,,,,,,,,,,,,,,,,,,5d9312aa39412f00187c5490,2020-08-10_16h25.49.897,lexical_decision_task_MP,2020.1.3,Win32,60,m,0,,,,,,,,0.3952,0,,,,,,377,NW,"ID",50,injore,INJORE,z,0.3952,,,,,,0.206481498,-0.025000008,0,0,0,,0,326,326,316,1,
,,,,,,,,,,,,,,,,,,5d9312aa39412f00187c5490,2020-08-10_16h25.49.897,lexical_decision_task_MP,2020.1.3,Win32,60,m,1,,,,,,,,0.85627,1,,,,,,50,WORD,UN,50,hungry,SNATCH,m,0.85627,,,,,,0.206481498,-0.025000008,0,0,0,,0,327,327,229,1,
,,,,,,,,,,,,,,,,,,5d9312aa39412f00187c5490,2020-08-10_16h25.49.897,lexical_decision_task_MP,2020.1.3,Win32,60,m,1,,,,,,,,0.479905,1,,,,,,77,WORD,"ID",33,racket,RACKET,m,0.479905,,,,,,0.206481498,-0.025000008,0,0,0,,0,328,328,16,1,
,,,,,,,,,,,,,,,,,,5d9312aa39412f00187c5490,2020-08-10_16h25.49.897,lexical_decision_task_MP,2020.1.3,Win32,60,m,1,,,,,,,,0.613555,1,,,,,,163,WORD,"ID",50,string,STRING,m,0.613555,,,,,,0.206481498,-0.025000008,0,0,0,,0,329,329,102,1,
,,,,,,,,,,,,,,,,,,5d9312aa39412f00187c5490,2020-08-10_16h25.49.897,lexical_decision_task_MP,2020.1.3,Win32,60,z,1,,,,,,,,0.881095,1,,,,,,428,NW,UN,33,funtle,TANDLY,z,0.881095,,,,,,0.206481498,-0.025000008,0,0,0,,0,330,330,367,1,
,,,,,,,,,,,,,,,,,,5d9312aa39412f00187c5490,2020-08-10_16h25.49.897,lexical_decision_task_MP,2020.1.3,Win32,60,,0,,,,,,,,0.881095,-1,,,,,,321,NW,"ID",33,miator,MIATOR,z,,,,,,,0.206481498,-0.025000008,0,0,0,,0,331,331,260,1,
,,,,,,,,,,,,,,,,,,5d9312aa39412f00187c5490,2020-08-10_16h25.49.897,lexical_decision_task_MP,2020.1.3,Win32,60,m,1,,,,,,,,0.596965,1,,,,,,54,WORD,UN,50,stroke,RAMBLE,m,0.596965,,,,,,0.206481498,-0.025000008,0,0,0,,0,332,332,233,1,
,,,,,,,,,,,,,,,,,,5d9312aa39412f00187c5490,2020-08-10_16h25.49.897,lexical_decision_task_MP,2020.1.3,Win32,60,z,1,,,,,,,,0.900585,1,,,,,,375,NW,"ID",50,yorque,YORQUE,z,0.900585,,,,,,0.206481498,-0.025000008,0,0,0,,0,333,333,314,1,
,,,,,,,,,,,,,,,,,,5d9312aa39412f00187c5490,2020-08-10_16h25.49.897,lexical_decision_task_MP,2020.1.3,Win32,60,,0,,,,,,,,0.900585,-1,,,,,,124,WORD,"ID",50,blouse,BLOUSE,m,,,,,,,0.206481498,-0.025000008,0,0,0,,0,334,334,63,1,
,,,,,,,,,,,,,,,,,,5d9312aa39412f00187c5490,2020-08-10_16h25.49.897,lexical_decision_task_MP,2020.1.3,Win32,60,z,1,,,,,,,,0.797125,1,,,,,,414,NW,"ID",50,serbol,SERBOL,z,0.797125,,,,,,0.206481498,-0.025000008,0,0,0,,0,335,335,353,1,
,,,,,,,,,,,,,,,,,,5d9312aa39412f00187c5490,2020-08-10_16h25.49.897,lexical_decision_task_MP,2020.1.3,Win32,60,m,1,,,,,,,,0.81276,1,,,,,,217,WORD,UN,33,shrink,LIQUOR,m,0.81276,,,,,,0.206481498,-0.025000008,0,0,0,,0,336,336,156,1,
,,,,,,,,,,,,,,,,,,5d9312aa39412f00187c5490,2020-08-10_16h25.49.897,lexical_decision_task_MP,2020.1.3,Win32,60,z,1,,,,,,,,1.42699,1,,,,,,266,NW,UN,50,pasink,VARMIT,z,1.42699,,,,,,0.206481498,-0.025000008,0,0,0,,0,337,337,445,1,
,,,,,,,,,,,,,,,,,,5d9312aa39412f00187c5490,2020-08-10_16h25.49.897,lexical_decision_task_MP,2020.1.3,Win32,60,,0,,,,,,,,1.42699,-1,,,,,,211,WORD,UN,33,verify,INFECT,m,,,,,,,0.206481498,-0.025000008,0,0,0,,0,338,338,150,1,
,,,,,,,,,,,,,,,,,,5d9312aa39412f00187c5490,2020-08-10_16h25.49.897,lexical_decision_task_MP,2020.1.3,Win32,60,m,1,,,,,,,,1.01394,1,,,,,,100,WORD,"ID",33,carbon,CARBON,m,1.01394,,,,,,0.206481498,-0.025000008,0,0,0,,0,339,339,39,1,
,,,,,,,,,,,,,,,,,,5d9312aa39412f00187c5490,2020-08-10_16h25.49.897,lexical_decision_task_MP,2020.1.3,Win32,60,z,1,,,,,,,,1.080735,1,,,,,,462,NW,UN,33,kispel,ABSULT,z,1.080735,,,,,,0.206481498,-0.025000008,0,0,0,,0,340,340,401,1,
,,,,,,,,,,,,,,,,,,5d9312aa39412f00187c5490,2020-08-10_16h25.49.897,lexical_decision_task_MP,2020.1.3,Win32,60,z,1,,,,,,,,1.81346,1,,,,,,473,NW,UN,33,hablin,CRIBLE,z,1.81346,,,,,,0.206481498,-0.025000008,0,0,0,,0,341,341,412,1,
,,,,,,,,,,,,,,,,,,5d9312aa39412f00187c5490,2020-08-10_16h25.49.897,lexical_decision_task_MP,2020.1.3,Win32,60,,0,,,,,,,,1.81346,-1,,,,,,293,NW,UN,50,inhort,SWANCE,z,,,,,,,0.206481498,-0.025000008,0,0,0,,0,342,342,472,1,
,,,,,,,,,,,,,,,,,,5d9312aa39412f00187c5490,2020-08-10_16h25.49.897,lexical_decision_task_MP,2020.1.3,Win32,60,,0,,,,,,,,1.81346,-1,,,,,,294,NW,UN,50,gleath,INHORT,z,,,,,,,0.206481498,-0.025000008,0,0,0,,0,343,343,473,1,
,,,,,,,,,,,,,,,,,,5d9312aa39412f00187c5490,2020-08-10_16h25.49.897,lexical_decision_task_MP,2020.1.3,Win32,60,m,1,,,,,,,,1.0125,1,,,,,,224,WORD,UN,33,vulgar,PERIOD,m,1.0125,,,,,,0.206481498,-0.025000008,0,0,0,,0,344,344,163,1,
,,,,,,,,,,,,,,,,,,5d9312aa39412f00187c5490,2020-08-10_16h25.49.897,lexical_decision_task_MP,2020.1.3,Win32,60,z,1,,,,,,,,0.831185,1,,,,,,265,NW,UN,50,varmit,DISTAR,z,0.831185,,,,,,0.206481498,-0.025000008,0,0,0,,0,345,345,444,1,
,,,,,,,,,,,,,,,,,,5d9312aa39412f00187c5490,2020-08-10_16h25.49.897,lexical_decision_task_MP,2020.1.3,Win32,60,,0,,,,,,,,0.831185,-1,,,,,,89,WORD,"ID",33,permit,PERMIT,m,,,,,,,0.206481498,-0.025000008,0,0,0,,0,346,346,28,1,
,,,,,,,,,,,,,,,,,,5d9312aa39412f00187c5490,2020-08-10_16h25.49.897,lexical_decision_task_MP,2020.1.3,Win32,60,,0,,,,,,,,0.831185,-1,,,,,,184,WORD,UN,33,bother,SLEAZY,m,,,,,,,0.206481498,-0.025000008,0,0,0,,0,347,347,123,1,
,,,,,,,,,,,,,,,,,,5d9312aa39412f00187c5490,2020-08-10_16h25.49.897,lexical_decision_task_MP,2020.1.3,Win32,60,z,1,,,,,,,,0.936565,1,,,,,,443,NW,UN,33,jaunce,DORSEX,z,0.936565,,,,,,0.206481498,-0.025000008,0,0,0,,0,348,348,382,1,
,,,,,,,,,,,,,,,,,,5d9312aa39412f00187c5490,2020-08-10_16h25.49.897,lexical_decision_task_MP,2020.1.3,Win32,60,,0,,,,,,,,0.936565,-1,,,,,,479,NW,UN,33,crible,LOBUSH,z,,,,,,,0.206481498,-0.025000008,0,0,0,,0,349,349,418,1,
,,,,,,,,,,,,,,,,,,5d9312aa39412f00187c5490,2020-08-10_16h25.49.897,lexical_decision_task_MP,2020.1.3,Win32,60,,0,,,,,,,,0.936565,-1,,,,,,436,NW,UN,33,snapel,FRUTAN,z,,,,,,,0.206481498,-0.025000008,0,0,0,,0,350,350,375,1,
,,,,,,,,,,,,,,,,,,5d9312aa39412f00187c5490,2020-08-10_16h25.49.897,lexical_decision_task_MP,2020.1.3,Win32,60,z,1,,,,,,,,0.84573,1,,,,,,346,NW,"ID",33,saudic,SAUDIC,z,0.84573,,,,,,0.206481498,-0.025000008,0,0,0,,0,351,351,285,1,
,,,,,,,,,,,,,,,,,,5d9312aa39412f00187c5490,2020-08-10_16h25.49.897,lexical_decision_task_MP,2020.1.3,Win32,60,,0,,,,,,,,0.84573,-1,,,,,,119,WORD,"ID",33,spider,SPIDER,m,,,,,,,0.206481498,-0.025000008,0,0,0,,0,352,352,58,1,
,,,,,,,,,,,,,,,,,,5d9312aa39412f00187c5490,2020-08-10_16h25.49.897,lexical_decision_task_MP,2020.1.3,Win32,60,,0,,,,,,,,0.84573,-1,,,,,,199,WORD,UN,33,plague,INVOKE,m,,,,,,,0.206481498,-0.025000008,0,0,0,,0,353,353,138,1,
,,,,,,,,,,,,,,,,,,5d9312aa39412f00187c5490,2020-08-10_16h25.49.897,lexical_decision_task_MP,2020.1.3,Win32,60,,0,,,,,,,,0.84573,-1,,,,,,13,WORD,UN,50,almost,STRIVE,m,,,,,,,0.206481498,-0.025000008,0,0,0,,0,354,354,192,1,
,,,,,,,,,,,,,,,,,,5d9312aa39412f00187c5490,2020-08-10_16h25.49.897,lexical_decision_task_MP,2020.1.3,Win32,60,z,0,,,,,,,,0.676425,0,,,,,,153,WORD,"ID",50,behold,BEHOLD,m,0.676425,,,,,,0.206481498,-0.025000008,0,0,0,,0,355,355,92,1,
,,,,,,,,,,,,,,,,,,5d9312aa39412f00187c5490,2020-08-10_16h25.49.897,lexical_decision_task_MP,2020.1.3,Win32,60,,0,,,,,,,,0.676425,-1,,,,,,262,NW,UN,50,dolica,QUILEW,z,,,,,,,0.206481498,-0.025000008,0,0,0,,0,356,356,441,1,
,,,,,,,,,,,,,,,,,,5d9312aa39412f00187c5490,2020-08-10_16h25.49.897,lexical_decision_task_MP,2020.1.3,Win32,60,,0,,,,,,,,0.676425,-1,,,,,,433,NW,UN,33,pitrom,DRANCE,z,,,,,,,0.206481498,-0.025000008,0,0,0,,0,357,357,372,1,
,,,,,,,,,,,,,,,,,,5d9312aa39412f00187c5490,2020-08-10_16h25.49.897,lexical_decision_task_MP,2020.1.3,Win32,60,,0,,,,,,,,0.676425,-1,,,,,,198,WORD,UN,33,invoke,WICKED,m,,,,,,,0.206481498,-0.025000008,0,0,0,,0,358,358,137,1,
,,,,,,,,,,,,,,,,,,5d9312aa39412f00187c5490,2020-08-10_16h25.49.897,lexical_decision_task_MP,2020.1.3,Win32,60,,0,,,,,,,,0.676425,-1,,,,,,225,WORD,UN,33,casino,VULGAR,m,,,,,,,0.206481498,-0.025000008,0,0,0,,0,359,359,164,1,
,,,,,,,,,,,,,,,,,,5d9312aa39412f00187c5490,2020-08-10_16h25.49.897,lexical_decision_task_MP,2020.1.3,Win32,60,,0,,,,,,,,0.676425,-1,,,,,,115,WORD,"ID",33,guitar,GUITAR,m,,,,,,,0.206481498,-0.025000008,0,0,0,,0,360,360,54,1,
,,,,,,,,,,,,,,,,,,5d9312aa39412f00187c5490,2020-08-10_16h25.49.897,lexical_decision_task_MP,2020.1.3,Win32,60,m,1,,,,,,,,0.929485,1,,,,,,21,WORD,UN,50,jockey,SIMPLE,m,0.929485,,,,,,0.206481498,-0.025000008,0,0,0,,0,361,361,200,1,
,,,,,,,,,,,,,,,,,,5d9312aa39412f00187c5490,2020-08-10_16h25.49.897,lexical_decision_task_MP,2020.1.3,Win32,60,z,1,,,,,,,,0.732355,1,,,,,,450,NW,UN,33,cainky,PHRECT,z,0.732355,,,,,,0.206481498,-0.025000008,0,0,0,space,0,362,362,389,1,91.081925
,,,,,,,,,,,,,,,,,,5d9312aa39412f00187c5490,2020-08-10_16h25.49.897,lexical_decision_task_MP,2020.1.3,Win32,60,m,1,,,,,,,,1.268355,1,,,,,,142,WORD,"ID",50,spruce,SPRUCE,m,1.268355,,,,,,0.206481498,-0.025000008,0,0,0,,0,363,363,81,1,
,,,,,,,,,,,,,,,,,,5d9312aa39412f00187c5490,2020-08-10_16h25.49.897,lexical_decision_task_MP,2020.1.3,Win32,60,z,1,,,,,,,,0.849435,1,,,,,,468,NW,UN,33,padifs,WICTOR,z,0.849435,,,,,,0.206481498,-0.025000008,0,0,0,,0,364,364,407,1,
,,,,,,,,,,,,,,,,,,5d9312aa39412f00187c5490,2020-08-10_16h25.49.897,lexical_decision_task_MP,2020.1.3,Win32,60,m,1,,,,,,,,0.505805,1,,,,,,47,WORD,UN,50,walnut,INCOME,m,0.505805,,,,,,0.206481498,-0.025000008,0,0,0,,0,365,365,226,1,
,,,,,,,,,,,,,,,,,,5d9312aa39412f00187c5490,2020-08-10_16h25.49.897,lexical_decision_task_MP,2020.1.3,Win32,60,z,1,,,,,,,,0.848145,1,,,,,,393,NW,"ID",50,ganous,GANOUS,z,0.848145,,,,,,0.206481498,-0.025000008,0,0,0,,0,366,366,332,1,
,,,,,,,,,,,,,,,,,,5d9312aa39412f00187c5490,2020-08-10_16h25.49.897,lexical_decision_task_MP,2020.1.3,Win32,60,,0,,,,,,,,0.848145,-1,,,,,,281,NW,UN,50,porlex,MELATY,z,,,,,,,0.206481498,-0.025000008,0,0,0,,0,367,367,460,1,
,,,,,,,,,,,,,,,,,,5d9312aa39412f00187c5490,2020-08-10_16h25.49.897,lexical_decision_task_MP,2020.1.3,Win32,60,m,1,,,,,,,,0.6639,1,,,,,,7,WORD,UN,50,abrupt,ANCHOR,m,0.6639,,,,,,0.206481498,-0.025000008,0,0,0,,0,368,368,186,1,
,,,,,,,,,,,,,,,,,,5d9312aa39412f00187c5490,2020-08-10_16h25.49.897,lexical_decision_task_MP,2020.1.3,Win32,60,m,1,,,,,,,,0.61363,1,,,,,,240,WORD,UN,33,seldom,FOREST,m,0.61363,,,,,,0.206481498,-0.025000008,0,0,0,,0,369,369,179,1,
,,,,,,,,,,,,,,,,,,5d9312aa39412f00187c5490,2020-08-10_16h25.49.897,lexical_decision_task_MP,2020.1.3,Win32,60,,0,,,,,,,,0.61363,-1,,,,,,96,WORD,"ID",33,ignore,IGNORE,m,,,,,,,0.206481498,-0.025000008,0,0,0,,0,370,370,35,1,
,,,,,,,,,,,,,,,,,,5d9312aa39412f00187c5490,2020-08-10_16h25.49.897,lexical_decision_task_MP,2020.1.3,Win32,60,,0,,,,,,,,0.61363,-1,,,,,,317,NW,"ID",33,worbal,WORBAL,z,,,,,,,0.206481498,-0.025000008,0,0,0,,0,371,371,256,1,
,,,,,,,,,,,,,,,,,,5d9312aa39412f00187c5490,2020-08-10_16h25.49.897,lexical_decision_task_MP,2020.1.3,Win32,60,m,1,,,,,,,,1.12395,1,,,,,,234,WORD,UN,33,poster,CLUMSY,m,1.12395,,,,,,0.206481498,-0.025000008,0,0,0,,0,372,372,173,1,
,,,,,,,,,,,,,,,,,,5d9312aa39412f00187c5490,2020-08-10_16h25.49.897,lexical_decision_task_MP,2020.1.3,Win32,60,z,1,,,,,,,,0.96897,1,,,,,,279,NW,UN,50,curbol,CELOND,z,0.96897,,,,,,0.206481498,-0.025000008,0,0,0,,0,373,373,458,1,
,,,,,,,,,,,,,,,,,,5d9312aa39412f00187c5490,2020-08-10_16h25.49.897,lexical_decision_task_MP,2020.1.3,Win32,60,,0,,,,,,,,0.96897,-1,,,,,,303,NW,"ID",33,fiream,FIREAM,z,,,,,,,0.206481498,-0.025000008,0,0,0,,0,374,374,242,1,
,,,,,,,,,,,,,,,,,,5d9312aa39412f00187c5490,2020-08-10_16h25.49.897,lexical_decision_task_MP,2020.1.3,Win32,60,,0,,,,,,,,0.96897,-1,,,,,,180,WORD,"ID",50,silent,SILENT,m,,,,,,,0.206481498,-0.025000008,0,0,0,,0,375,375,119,1,
,,,,,,,,,,,,,,,,,,5d9312aa39412f00187c5490,2020-08-10_16h25.49.897,lexical_decision_task_MP,2020.1.3,Win32,60,m,1,,,,,,,,0.76335,1,,,,,,185,WORD,UN,33,portal,BOTHER,m,0.76335,,,,,,0.206481498,-0.025000008,0,0,0,,0,376,376,124,1,
,,,,,,,,,,,,,,,,,,5d9312aa39412f00187c5490,2020-08-10_16h25.49.897,lexical_decision_task_MP,2020.1.3,Win32,60,,0,,,,,,,,0.76335,-1,,,,,,151,WORD,"ID",50,mystic,MYSTIC,m,,,,,,,0.206481498,-0.025000008,0,0,0,,0,377,377,90,1,
,,,,,,,,,,,,,,,,,,5d9312aa39412f00187c5490,2020-08-10_16h25.49.897,lexical_decision_task_MP,2020.1.3,Win32,60,m,1,,,,,,,,0.44623,1,,,,,,129,WORD,"ID",50,marvel,MARVEL,m,0.44623,,,,,,0.206481498,-0.025000008,0,0,0,,0,378,378,68,1,
,,,,,,,,,,,,,,,,,,5d9312aa39412f00187c5490,2020-08-10_16h25.49.897,lexical_decision_task_MP,2020.1.3,Win32,60,,0,,,,,,,,0.44623,-1,,,,,,348,NW,"ID",33,dumple,DUMPLE,z,,,,,,,0.206481498,-0.025000008,0,0,0,,0,379,379,287,1,
,,,,,,,,,,,,,,,,,,5d9312aa39412f00187c5490,2020-08-10_16h25.49.897,lexical_decision_task_MP,2020.1.3,Win32,60,,0,,,,,,,,0.44623,-1,,,,,,369,NW,"ID",50,wronch,WRONCH,z,,,,,,,0.206481498,-0.025000008,0,0,0,,0,380,380,308,1,
,,,,,,,,,,,,,,,,,,5d9312aa39412f00187c5490,2020-08-10_16h25.49.897,lexical_decision_task_MP,2020.1.3,Win32,60,,0,,,,,,,,0.44623,-1,,,,,,108,WORD,"ID",33,reckon,RECKON,m,,,,,,,0.206481498,-0.025000008,0,0,0,,0,381,381,47,1,
,,,,,,,,,,,,,,,,,,5d9312aa39412f00187c5490,2020-08-10_16h25.49.897,lexical_decision_task_MP,2020.1.3,Win32,60,m,1,,,,,,,,0.447695,1,,,,,,28,WORD,UN,50,sketch,COMEDY,m,0.447695,,,,,,0.206481498,-0.025000008,0,0,0,,0,382,382,207,1,
,,,,,,,,,,,,,,,,,,5d9312aa39412f00187c5490,2020-08-10_16h25.49.897,lexical_decision_task_MP,2020.1.3,Win32,60,,0,,,,,,,,0.447695,-1,,,,,,469,NW,UN,33,crudio,PADIFS,z,,,,,,,0.206481498,-0.025000008,0,0,0,,0,383,383,408,1,
,,,,,,,,,,,,,,,,,,5d9312aa39412f00187c5490,2020-08-10_16h25.49.897,lexical_decision_task_MP,2020.1.3,Win32,60,z,0,,,,,,,,1.182,0,,,,,,176,WORD,"ID",50,strife,STRIFE,m,1.182,,,,,,0.206481498,-0.025000008,0,0,0,,0,384,384,115,1,
,,,,,,,,,,,,,,,,,,5d9312aa39412f00187c5490,2020-08-10_16h25.49.897,lexical_decision_task_MP,2020.1.3,Win32,60,,0,,,,,,,,1.182,-1,,,,,,302,NW,"ID",33,miluer,MILUER,z,,,,,,,0.206481498,-0.025000008,0,0,0,,0,385,385,241,1,
,,,,,,,,,,,,,,,,,,5d9312aa39412f00187c5490,2020-08-10_16h25.49.897,lexical_decision_task_MP,2020.1.3,Win32,60,,0,,,,,,,,1.182,-1,,,,,,101,WORD,"ID",33,wrench,WRENCH,m,,,,,,,0.206481498,-0.025000008,0,0,0,,0,386,386,40,1,
,,,,,,,,,,,,,,,,,,5d9312aa39412f00187c5490,2020-08-10_16h25.49.897,lexical_decision_task_MP,2020.1.3,Win32,60,m,1,,,,,,,,0.4635,1,,,,,,172,WORD,"ID",50,patrol,PATROL,m,0.4635,,,,,,0.206481498,-0.025000008,0,0,0,,0,387,387,111,1,
,,,,,,,,,,,,,,,,,,5d9312aa39412f00187c5490,2020-08-10_16h25.49.897,lexical_decision_task_MP,2020.1.3,Win32,60,z,1,,,,,,,,0.91357,1,,,,,,374,NW,"ID",50,sliant,SLIANT,z,0.91357,,,,,,0.206481498,-0.025000008,0,0,0,,0,388,388,313,1,
,,,,,,,,,,,,,,,,,,5d9312aa39412f00187c5490,2020-08-10_16h25.49.897,lexical_decision_task_MP,2020.1.3,Win32,60,,0,,,,,,,,0.91357,-1,,,,,,4,WORD,UN,50,plunge,TRENCH,m,,,,,,,0.206481498,-0.025000008,0,0,0,,0,389,389,183,1,
,,,,,,,,,,,,,,,,,,5d9312aa39412f00187c5490,2020-08-10_16h25.49.897,lexical_decision_task_MP,2020.1.3,Win32,60,m,1,,,,,,,,0.697095,1,,,,,,57,WORD,UN,50,danger,CHANGE,m,0.697095,,,,,,0.206481498,-0.025000008,0,0,0,,0,390,390,236,1,
,,,,,,,,,,,,,,,,,,5d9312aa39412f00187c5490,2020-08-10_16h25.49.897,lexical_decision_task_MP,2020.1.3,Win32,60,m,1,,,,,,,,0.463285,1,,,,,,9,WORD,UN,50,bridge,HUSTLE,m,0.463285,,,,,,0.206481498,-0.025000008,0,0,0,,0,391,391,188,1,
,,,,,,,,,,,,,,,,,,5d9312aa39412f00187c5490,2020-08-10_16h25.49.897,lexical_decision_task_MP,2020.1.3,Win32,60,m,1,,,,,,,,0.430095,1,,,,,,177,WORD,"ID",50,advent,ADVENT,m,0.430095,,,,,,0.206481498,-0.025000008,0,0,0,,0,392,392,116,1,
,,,,,,,,,,,,,,,,,,5d9312aa39412f00187c5490,2020-08-10_16h25.49.897,lexical_decision_task_MP,2020.1.3,Win32,60,m,1,,,,,,,,0.29649,1,,,,,,148,WORD,"ID",50,custom,CUSTOM,m,0.29649,,,,,,0.206481498,-0.025000008,0,0,0,,0,393,393,87,1,
,,,,,,,,,,,,,,,,,,5d9312aa39412f00187c5490,2020-08-10_16h25.49.897,lexical_decision_task_MP,2020.1.3,Win32,60,z,1,,,,,,,,0.95765,1,,,,,,298,NW,UN,50,sturch,PIERGY,z,0.95765,,,,,,0.206481498,-0.025000008,0,0,0,,0,394,394,477,1,
,,,,,,,,,,,,,,,,,,5d9312aa39412f00187c5490,2020-08-10_16h25.49.897,lexical_decision_task_MP,2020.1.3,Win32,60,z,1,,,,,,,,1.097215,1,,,,,,467,NW,UN,33,wictor,GORBIE,z,1.097215,,,,,,0.206481498,-0.025000008,0,0,0,,0,395,395,406,1,
,,,,,,,,,,,,,,,,,,5d9312aa39412f00187c5490,2020-08-10_16h25.49.897,lexical_decision_task_MP,2020.1.3,Win32,60,m,1,,,,,,,,0.495635,1,,,,,,193,WORD,UN,33,mildew,OBJECT,m,0.495635,,,,,,0.206481498,-0.025000008,0,0,0,,0,396,396,132,1,
,,,,,,,,,,,,,,,,,,5d9312aa39412f00187c5490,2020-08-10_16h25.49.897,lexical_decision_task_MP,2020.1.3,Win32,60,m,1,,,,,,,,0.38937,1,,,,,,213,WORD,UN,33,intake,SQUEAL,m,0.38937,,,,,,0.206481498,-0.025000008,0,0,0,,0,397,397,152,1,
,,,,,,,,,,,,,,,,,,5d9312aa39412f00187c5490,2020-08-10_16h25.49.897,lexical_decision_task_MP,2020.1.3,Win32,60,m,1,,,,,,,,0.398525,1,,,,,,104,WORD,"ID",33,studio,STUDIO,m,0.398525,,,,,,0.206481498,-0.025000008,0,0,0,,0,398,398,43,1,
,,,,,,,,,,,,,,,,,,5d9312aa39412f00187c5490,2020-08-10_16h25.49.897,lexical_decision_task_MP,2020.1.3,Win32,60,m,1,,,,,,,,0.32975,1,,,,,,80,WORD,"ID",33,family,FAMILY,m,0.32975,,,,,,0.206481498,-0.025000008,0,0,0,,0,399,399,19,1,
,,,,,,,,,,,,,,,,,,5d9312aa39412f00187c5490,2020-08-10_16h25.49.897,lexical_decision_task_MP,2020.1.3,Win32,60,m,1,,,,,,,,0.38002,1,,,,,,43,WORD,UN,50,foster,TONGUE,m,0.38002,,,,,,0.206481498,-0.025000008,0,0,0,,0,400,400,222,1,
,,,,,,,,,,,,,,,,,,5d9312aa39412f00187c5490,2020-08-10_16h25.49.897,lexical_decision_task_MP,2020.1.3,Win32,60,m,0,,,,,,,,0.316955,0,,,,,,408,NW,"ID",50,hurnia,HURNIA,z,0.316955,,,,,,0.206481498,-0.025000008,0,0,0,,0,401,401,347,1,
,,,,,,,,,,,,,,,,,,5d9312aa39412f00187c5490,2020-08-10_16h25.49.897,lexical_decision_task_MP,2020.1.3,Win32,60,m,1,,,,,,,,0.531455,1,,,,,,223,WORD,UN,33,period,KIDNEY,m,0.531455,,,,,,0.206481498,-0.025000008,0,0,0,,0,402,402,162,1,
,,,,,,,,,,,,,,,,,,5d9312aa39412f00187c5490,2020-08-10_16h25.49.897,lexical_decision_task_MP,2020.1.3,Win32,60,m,0,,,,,,,,1.328035,0,,,,,,242,NW,UN,50,musied,UNWERT,z,1.328035,,,,,,0.206481498,-0.025000008,0,0,0,,0,403,403,421,1,
,,,,,,,,,,,,,,,,,,5d9312aa39412f00187c5490,2020-08-10_16h25.49.897,lexical_decision_task_MP,2020.1.3,Win32,60,m,1,,,,,,,,0.764555,1,,,,,,179,WORD,"ID",50,basket,BASKET,m,0.764555,,,,,,0.206481498,-0.025000008,0,0,0,,0,404,404,118,1,
,,,,,,,,,,,,,,,,,,5d9312aa39412f00187c5490,2020-08-10_16h25.49.897,lexical_decision_task_MP,2020.1.3,Win32,60,m,1,,,,,,,,1.031015,1,,,,,,236,WORD,UN,33,grumpy,PIRATE,m,1.031015,,,,,,0.206481498,-0.025000008,0,0,0,,0,405,405,175,1,
