counterbalancing_condition,instr_done_keyboard.keys,instr_done_touch.x,instr_done_touch.y,instr_done_touch.leftButton,instr_done_touch.midButton,instr_done_touch.rightButton,instr_done_touch.clicked_name,instruction_pages.thisRepN,instruction_pages.thisTrialN,instruction_pages.thisN,instruction_pages.thisIndex,instruction_pages.ran,pageN,phase,instruct_text,has_image,instruct_image,participant,date,expName,psychopyVersion,OS,frameRate,instr_done_keyboard.rt,response.keys,response.corr,response.rt,touch_resp.x,touch_resp.y,touch_resp.leftButton,touch_resp.midButton,touch_resp.rightButton,touch_resp.time,touch_resp.clicked_name,rt,corr,practice_trials.thisRepN,practice_trials.thisTrialN,practice_trials.thisN,practice_trials.thisIndex,practice_trials.ran,TrialID,StimulusType,Condition,PrimeDuration,Prime,Target,corrAns,end_of_practice_trials_pages.thisRepN,end_of_practice_trials_pages.thisTrialN,end_of_practice_trials_pages.thisN,end_of_practice_trials_pages.thisIndex,end_of_practice_trials_pages.ran,break_done_touch.x,break_done_touch.y,break_done_touch.leftButton,break_done_touch.midButton,break_done_touch.rightButton,break_done_keyboard.keys,trials.thisRepN,trials.thisTrialN,trials.thisN,trials.thisIndex,trials.ran,break_done_keyboard.rt
2,,0.079427083,-0.40234375,1,0,0,instr_done_button,0,0,0,0,1,1,instructions,"INSTRUCTIONS
At the start of each trial, look at the hash marks (######) in the center of the screen. After a moment, a string of letters will appear. Your task is to indicate if the letter string forms a word or not (i.e., if it is a nonword). For example, AUTHOR is a word while AUTHON is a nonword.

Press the space bar or touch the button below to continue.",0,,5da8768c2a921500145c6a0d,2020-08-10_19h29.20.579,lexical_decision_task_MP,2020.1.3,Win32,60,,,,,,,,,,,,,,,,,,,,,,,,,,,,,,,,,,,,,,,,,,
,,0.0859375,-0.3828125,1,0,0,instr_done_button,0,1,1,1,1,2,instructions,"If your device has a keyboard, press the 'Z' key for nonwords and the 'M' key for words.





Press the space bar or touch the button below to continue.",1,keyboard-example.gif,5da8768c2a921500145c6a0d,2020-08-10_19h29.20.579,lexical_decision_task_MP,2020.1.3,Win32,60,,,,,,,,,,,,,,,,,,,,,,,,,,,,,,,,,,,,,,,,,,
,space,0.0859375,-0.3828125,0,0,0,,0,2,2,2,1,3,instructions,"If you are using a touchscreen only device, use the buttons on the screen. Do not use the mouse.





Press the space bar or touch the button below to continue.",1,touchscreen-example.gif,5da8768c2a921500145c6a0d,2020-08-10_19h29.20.579,lexical_decision_task_MP,2020.1.3,Win32,60,10.774265,,,,,,,,,,,,,,,,,,,,,,,,,,,,,,,,,,,,,,,,,
,space,0.0859375,-0.3828125,0,0,0,,0,3,3,3,1,4,instructions,"It is very important that you respond as quickly and accurately as possible, as each letter string will only be on the screen for two seconds. If you do not respond within this time, the message 'Too slow!' will be displayed and the experiment will progress to the next letter string. The first 20 trials will be practice trials and you will receive feedback on your answers. 

Press the space bar or touch the button below to start the practice trials.",0,,5da8768c2a921500145c6a0d,2020-08-10_19h29.20.579,lexical_decision_task_MP,2020.1.3,Win32,60,5.19692,,,,,,,,,,,,,,,,,,,,,,,,,,,,,,,,,,,,,,,,,
,,,,,,,,,,,,,,,,,,5da8768c2a921500145c6a0d,2020-08-10_19h29.20.579,lexical_decision_task_MP,2020.1.3,Win32,60,,z,1,1.126955,,,,,,,,1.126955,1,0,0,0,14,1,1015,NW,UN,50,miaber,THRALE,z,,,,,,,,,,,,,,,,,
,,,,,,,,,,,,,,,,,,5da8768c2a921500145c6a0d,2020-08-10_19h29.20.579,lexical_decision_task_MP,2020.1.3,Win32,60,,z,1,1.042505,,,,,,,,1.042505,1,0,1,1,8,1,1009,NW,"ID",33,aslert,ASLERT,z,,,,,,,,,,,,,,,,,
,,,,,,,,,,,,,,,,,,5da8768c2a921500145c6a0d,2020-08-10_19h29.20.579,lexical_decision_task_MP,2020.1.3,Win32,60,,z,1,0.93755,,,,,,,,0.93755,1,0,2,2,11,1,1012,NW,"ID",50,rashet,RASHET,z,,,,,,,,,,,,,,,,,
,,,,,,,,,,,,,,,,,,5da8768c2a921500145c6a0d,2020-08-10_19h29.20.579,lexical_decision_task_MP,2020.1.3,Win32,60,,z,1,0.908325,,,,,,,,0.908325,1,0,3,3,15,1,1016,NW,UN,50,mushed,WHAISE,z,,,,,,,,,,,,,,,,,
,,,,,,,,,,,,,,,,,,5da8768c2a921500145c6a0d,2020-08-10_19h29.20.579,lexical_decision_task_MP,2020.1.3,Win32,60,,m,1,0.78839,,,,,,,,0.78839,1,0,4,4,0,1,1001,WORD,"ID",33,utopia,UTOPIA,m,,,,,,,,,,,,,,,,,
,,,,,,,,,,,,,,,,,,5da8768c2a921500145c6a0d,2020-08-10_19h29.20.579,lexical_decision_task_MP,2020.1.3,Win32,60,,m,1,0.752275,,,,,,,,0.752275,1,0,5,5,2,1,1003,WORD,"ID",50,almond,ALMOND,m,,,,,,,,,,,,,,,,,
,,,,,,,,,,,,,,,,,,5da8768c2a921500145c6a0d,2020-08-10_19h29.20.579,lexical_decision_task_MP,2020.1.3,Win32,60,,z,1,0.792475,,,,,,,,0.792475,1,0,6,6,12,1,1013,NW,UN,33,adveil,SPRINY,z,,,,,,,,,,,,,,,,,
,,,,,,,,,,,,,,,,,,5da8768c2a921500145c6a0d,2020-08-10_19h29.20.579,lexical_decision_task_MP,2020.1.3,Win32,60,,m,1,0.747025,,,,,,,,0.747025,1,0,7,7,6,1,1007,WORD,UN,50,tropic,ZOMBIE,m,,,,,,,,,,,,,,,,,
,,,,,,,,,,,,,,,,,,5da8768c2a921500145c6a0d,2020-08-10_19h29.20.579,lexical_decision_task_MP,2020.1.3,Win32,60,,m,1,0.78571,,,,,,,,0.78571,1,0,8,8,5,1,1006,WORD,UN,33,frenzy,OBTAIN,m,,,,,,,,,,,,,,,,,
,,,,,,,,,,,,,,,,,,5da8768c2a921500145c6a0d,2020-08-10_19h29.20.579,lexical_decision_task_MP,2020.1.3,Win32,60,,m,1,0.660865,,,,,,,,0.660865,1,0,9,9,1,1,1002,WORD,"ID",33,adjust,ADJUST,m,,,,,,,,,,,,,,,,,
,,,,,,,,,,,,,,,,,,5da8768c2a921500145c6a0d,2020-08-10_19h29.20.579,lexical_decision_task_MP,2020.1.3,Win32,60,,z,1,0.718855,,,,,,,,0.718855,1,0,10,10,10,1,1011,NW,"ID",50,inlade,INLADE,z,,,,,,,,,,,,,,,,,
,,,,,,,,,,,,,,,,,,5da8768c2a921500145c6a0d,2020-08-10_19h29.20.579,lexical_decision_task_MP,2020.1.3,Win32,60,,m,1,0.65717,,,,,,,,0.65717,1,0,11,11,4,1,1005,WORD,UN,33,abound,SQUEAK,m,,,,,,,,,,,,,,,,,
,,,,,,,,,,,,,,,,,,5da8768c2a921500145c6a0d,2020-08-10_19h29.20.579,lexical_decision_task_MP,2020.1.3,Win32,60,,z,1,0.663315,,,,,,,,0.663315,1,0,12,12,9,1,1010,NW,"ID",33,fariny,FARINY,z,,,,,,,,,,,,,,,,,
,,,,,,,,,,,,,,,,,,5da8768c2a921500145c6a0d,2020-08-10_19h29.20.579,lexical_decision_task_MP,2020.1.3,Win32,60,,m,1,0.69031,,,,,,,,0.69031,1,0,13,13,3,1,1004,WORD,"ID",50,matrix,MATRIX,m,,,,,,,,,,,,,,,,,
,,,,,,,,,,,,,,,,,,5da8768c2a921500145c6a0d,2020-08-10_19h29.20.579,lexical_decision_task_MP,2020.1.3,Win32,60,,z,1,0.795165,,,,,,,,0.795165,1,0,14,14,13,1,1014,NW,UN,33,winfer,ROUPET,z,,,,,,,,,,,,,,,,,
,,,,,,,,,,,,,,,,,,5da8768c2a921500145c6a0d,2020-08-10_19h29.20.579,lexical_decision_task_MP,2020.1.3,Win32,60,,m,1,0.670725,,,,,,,,0.670725,1,0,15,15,7,1,1008,WORD,UN,50,hurdle,VOLUME,m,,,,,,,,,,,,,,,,,
,space,0.0859375,-0.3828125,0,0,0,,,,,,,1,end_of_practice,"You have completed the practice trials. During the experimental trials, you will not receive feedback, but it is very important that you respond as quickly and accurately as possible. 
Before you begin, please ensure that you are in a comfortable and quiet location and will not be disturbed for about 15 minutes, as we cannot use your data if you do not complete all the trials. 
There will be opportunities to take breaks at regular intervals during the experiment. When you are ready to start the experimental trials, please press space or touch the button below.",,,5da8768c2a921500145c6a0d,2020-08-10_19h29.20.579,lexical_decision_task_MP,2020.1.3,Win32,60,8.983205,,,,,,,,,,,,,,,,,,,,,,,,,0,0,0,0,1,,,,,,,,,,,,
,,,,,,,,,,,,,,,,,,5da8768c2a921500145c6a0d,2020-08-10_19h29.20.579,lexical_decision_task_MP,2020.1.3,Win32,60,,z,1,0.74,,,,,,,,0.74,1,,,,,,241,NW,UN,50,unwert,SMENCO,z,,,,,,0.0859375,-0.3828125,0,0,0,,0,0,0,420,1,
,,,,,,,,,,,,,,,,,,5da8768c2a921500145c6a0d,2020-08-10_19h29.20.579,lexical_decision_task_MP,2020.1.3,Win32,60,,m,1,0.7142,,,,,,,,0.7142,1,,,,,,102,WORD,"ID",33,direct,DIRECT,m,,,,,,0.0859375,-0.3828125,0,0,0,,0,1,1,41,1,
,,,,,,,,,,,,,,,,,,5da8768c2a921500145c6a0d,2020-08-10_19h29.20.579,lexical_decision_task_MP,2020.1.3,Win32,60,,m,1,0.782635,,,,,,,,0.782635,1,,,,,,216,WORD,UN,33,liquor,BEHALF,m,,,,,,0.0859375,-0.3828125,0,0,0,,0,2,2,155,1,
,,,,,,,,,,,,,,,,,,5da8768c2a921500145c6a0d,2020-08-10_19h29.20.579,lexical_decision_task_MP,2020.1.3,Win32,60,,m,1,0.818,,,,,,,,0.818,1,,,,,,222,WORD,UN,33,export,HINDER,m,,,,,,0.0859375,-0.3828125,0,0,0,,0,3,3,161,1,
,,,,,,,,,,,,,,,,,,5da8768c2a921500145c6a0d,2020-08-10_19h29.20.579,lexical_decision_task_MP,2020.1.3,Win32,60,,m,1,1.038805,,,,,,,,1.038805,1,,,,,,82,WORD,"ID",33,stigma,STIGMA,m,,,,,,0.0859375,-0.3828125,0,0,0,,0,4,4,21,1,
,,,,,,,,,,,,,,,,,,5da8768c2a921500145c6a0d,2020-08-10_19h29.20.579,lexical_decision_task_MP,2020.1.3,Win32,60,,z,1,1.004795,,,,,,,,1.004795,1,,,,,,260,NW,UN,50,stunch,UNJECT,z,,,,,,0.0859375,-0.3828125,0,0,0,,0,5,5,439,1,
,,,,,,,,,,,,,,,,,,5da8768c2a921500145c6a0d,2020-08-10_19h29.20.579,lexical_decision_task_MP,2020.1.3,Win32,60,,m,0,1.184595,,,,,,,,1.184595,0,,,,,,374,NW,"ID",50,sliant,SLIANT,z,,,,,,0.0859375,-0.3828125,0,0,0,,0,6,6,313,1,
,,,,,,,,,,,,,,,,,,5da8768c2a921500145c6a0d,2020-08-10_19h29.20.579,lexical_decision_task_MP,2020.1.3,Win32,60,,z,1,1.001835,,,,,,,,1.001835,1,,,,,,347,NW,"ID",33,kerift,KERIFT,z,,,,,,0.0859375,-0.3828125,0,0,0,,0,7,7,286,1,
,,,,,,,,,,,,,,,,,,5da8768c2a921500145c6a0d,2020-08-10_19h29.20.579,lexical_decision_task_MP,2020.1.3,Win32,60,,m,1,0.801865,,,,,,,,0.801865,1,,,,,,7,WORD,UN,50,abrupt,ANCHOR,m,,,,,,0.0859375,-0.3828125,0,0,0,,0,8,8,186,1,
,,,,,,,,,,,,,,,,,,5da8768c2a921500145c6a0d,2020-08-10_19h29.20.579,lexical_decision_task_MP,2020.1.3,Win32,60,,m,0,1.277565,,,,,,,,1.277565,0,,,,,,327,NW,"ID",33,plenac,PLENAC,z,,,,,,0.0859375,-0.3828125,0,0,0,,0,9,9,266,1,
,,,,,,,,,,,,,,,,,,5da8768c2a921500145c6a0d,2020-08-10_19h29.20.579,lexical_decision_task_MP,2020.1.3,Win32,60,,z,1,0.911155,,,,,,,,0.911155,1,,,,,,445,NW,UN,33,runamo,MINKEL,z,,,,,,0.0859375,-0.3828125,0,0,0,,0,10,10,384,1,
,,,,,,,,,,,,,,,,,,5da8768c2a921500145c6a0d,2020-08-10_19h29.20.579,lexical_decision_task_MP,2020.1.3,Win32,60,,m,1,0.712,,,,,,,,0.712,1,,,,,,173,WORD,"ID",50,shower,SHOWER,m,,,,,,0.0859375,-0.3828125,0,0,0,,0,11,11,112,1,
,,,,,,,,,,,,,,,,,,5da8768c2a921500145c6a0d,2020-08-10_19h29.20.579,lexical_decision_task_MP,2020.1.3,Win32,60,,m,1,1.18551,,,,,,,,1.18551,1,,,,,,203,WORD,UN,33,burden,PHRASE,m,,,,,,0.0859375,-0.3828125,0,0,0,,0,12,12,142,1,
,,,,,,,,,,,,,,,,,,5da8768c2a921500145c6a0d,2020-08-10_19h29.20.579,lexical_decision_task_MP,2020.1.3,Win32,60,,m,0,1.527485,,,,,,,,1.527485,0,,,,,,303,NW,"ID",33,fiream,FIREAM,z,,,,,,0.0859375,-0.3828125,0,0,0,,0,13,13,242,1,
,,,,,,,,,,,,,,,,,,5da8768c2a921500145c6a0d,2020-08-10_19h29.20.579,lexical_decision_task_MP,2020.1.3,Win32,60,,m,1,0.86835,,,,,,,,0.86835,1,,,,,,191,WORD,UN,33,beacon,STABLE,m,,,,,,0.0859375,-0.3828125,0,0,0,,0,14,14,130,1,
,,,,,,,,,,,,,,,,,,5da8768c2a921500145c6a0d,2020-08-10_19h29.20.579,lexical_decision_task_MP,2020.1.3,Win32,60,,z,1,0.80925,,,,,,,,0.80925,1,,,,,,441,NW,UN,33,aboune,RASTOE,z,,,,,,0.0859375,-0.3828125,0,0,0,,0,15,15,380,1,
,,,,,,,,,,,,,,,,,,5da8768c2a921500145c6a0d,2020-08-10_19h29.20.579,lexical_decision_task_MP,2020.1.3,Win32,60,,m,1,0.85895,,,,,,,,0.85895,1,,,,,,48,WORD,UN,50,survey,WALNUT,m,,,,,,0.0859375,-0.3828125,0,0,0,,0,16,16,227,1,
,,,,,,,,,,,,,,,,,,5da8768c2a921500145c6a0d,2020-08-10_19h29.20.579,lexical_decision_task_MP,2020.1.3,Win32,60,,m,1,0.912545,,,,,,,,0.912545,1,,,,,,81,WORD,"ID",33,friend,FRIEND,m,,,,,,0.0859375,-0.3828125,0,0,0,,0,17,17,20,1,
,,,,,,,,,,,,,,,,,,5da8768c2a921500145c6a0d,2020-08-10_19h29.20.579,lexical_decision_task_MP,2020.1.3,Win32,60,,m,1,0.72946,,,,,,,,0.72946,1,,,,,,220,WORD,UN,33,mascot,VOYAGE,m,,,,,,0.0859375,-0.3828125,0,0,0,,0,18,18,159,1,
,,,,,,,,,,,,,,,,,,5da8768c2a921500145c6a0d,2020-08-10_19h29.20.579,lexical_decision_task_MP,2020.1.3,Win32,60,,m,1,0.84444,,,,,,,,0.84444,1,,,,,,5,WORD,UN,50,bundle,PLUNGE,m,,,,,,0.0859375,-0.3828125,0,0,0,,0,19,19,184,1,
,,,,,,,,,,,,,,,,,,5da8768c2a921500145c6a0d,2020-08-10_19h29.20.579,lexical_decision_task_MP,2020.1.3,Win32,60,,z,1,0.873345,,,,,,,,0.873345,1,,,,,,352,NW,"ID",33,tringe,TRINGE,z,,,,,,0.0859375,-0.3828125,0,0,0,,0,20,20,291,1,
,,,,,,,,,,,,,,,,,,5da8768c2a921500145c6a0d,2020-08-10_19h29.20.579,lexical_decision_task_MP,2020.1.3,Win32,60,,z,1,0.718905,,,,,,,,0.718905,1,,,,,,252,NW,UN,50,resait,STAPOD,z,,,,,,0.0859375,-0.3828125,0,0,0,,0,21,21,431,1,
,,,,,,,,,,,,,,,,,,5da8768c2a921500145c6a0d,2020-08-10_19h29.20.579,lexical_decision_task_MP,2020.1.3,Win32,60,,z,1,0.988765,,,,,,,,0.988765,1,,,,,,269,NW,UN,50,wrimsy,ORCHET,z,,,,,,0.0859375,-0.3828125,0,0,0,,0,22,22,448,1,
,,,,,,,,,,,,,,,,,,5da8768c2a921500145c6a0d,2020-08-10_19h29.20.579,lexical_decision_task_MP,2020.1.3,Win32,60,,z,1,1.48328,,,,,,,,1.48328,1,,,,,,304,NW,"ID",33,cludie,CLUDIE,z,,,,,,0.0859375,-0.3828125,0,0,0,,0,23,23,243,1,
,,,,,,,,,,,,,,,,,,5da8768c2a921500145c6a0d,2020-08-10_19h29.20.579,lexical_decision_task_MP,2020.1.3,Win32,60,,m,1,0.97619,,,,,,,,0.97619,1,,,,,,224,WORD,UN,33,vulgar,PERIOD,m,,,,,,0.0859375,-0.3828125,0,0,0,,0,24,24,163,1,
,,,,,,,,,,,,,,,,,,5da8768c2a921500145c6a0d,2020-08-10_19h29.20.579,lexical_decision_task_MP,2020.1.3,Win32,60,,m,1,0.934695,,,,,,,,0.934695,1,,,,,,221,WORD,UN,33,hinder,MASCOT,m,,,,,,0.0859375,-0.3828125,0,0,0,,0,25,25,160,1,
,,,,,,,,,,,,,,,,,,5da8768c2a921500145c6a0d,2020-08-10_19h29.20.579,lexical_decision_task_MP,2020.1.3,Win32,60,,z,1,0.864495,,,,,,,,0.864495,1,,,,,,415,NW,"ID",50,higsta,HIGSTA,z,,,,,,0.0859375,-0.3828125,0,0,0,,0,26,26,354,1,
,,,,,,,,,,,,,,,,,,5da8768c2a921500145c6a0d,2020-08-10_19h29.20.579,lexical_decision_task_MP,2020.1.3,Win32,60,,m,1,0.74524,,,,,,,,0.74524,1,,,,,,204,WORD,UN,33,lounge,BURDEN,m,,,,,,0.0859375,-0.3828125,0,0,0,,0,27,27,143,1,
,,,,,,,,,,,,,,,,,,5da8768c2a921500145c6a0d,2020-08-10_19h29.20.579,lexical_decision_task_MP,2020.1.3,Win32,60,,m,1,0.66313,,,,,,,,0.66313,1,,,,,,91,WORD,"ID",33,expand,EXPAND,m,,,,,,0.0859375,-0.3828125,0,0,0,,0,28,28,30,1,
,,,,,,,,,,,,,,,,,,5da8768c2a921500145c6a0d,2020-08-10_19h29.20.579,lexical_decision_task_MP,2020.1.3,Win32,60,,m,1,0.591225,,,,,,,,0.591225,1,,,,,,163,WORD,"ID",50,string,STRING,m,,,,,,0.0859375,-0.3828125,0,0,0,,0,29,29,102,1,
,,,,,,,,,,,,,,,,,,5da8768c2a921500145c6a0d,2020-08-10_19h29.20.579,lexical_decision_task_MP,2020.1.3,Win32,60,,z,1,0.723605,,,,,,,,0.723605,1,,,,,,474,NW,UN,33,acrise,HABLIN,z,,,,,,0.0859375,-0.3828125,0,0,0,,0,30,30,413,1,
,,,,,,,,,,,,,,,,,,5da8768c2a921500145c6a0d,2020-08-10_19h29.20.579,lexical_decision_task_MP,2020.1.3,Win32,60,,m,1,0.654285,,,,,,,,0.654285,1,,,,,,115,WORD,"ID",33,guitar,GUITAR,m,,,,,,0.0859375,-0.3828125,0,0,0,,0,31,31,54,1,
,,,,,,,,,,,,,,,,,,5da8768c2a921500145c6a0d,2020-08-10_19h29.20.579,lexical_decision_task_MP,2020.1.3,Win32,60,,z,1,0.893365,,,,,,,,0.893365,1,,,,,,297,NW,UN,50,piergy,FERTIC,z,,,,,,0.0859375,-0.3828125,0,0,0,,0,32,32,476,1,
,,,,,,,,,,,,,,,,,,5da8768c2a921500145c6a0d,2020-08-10_19h29.20.579,lexical_decision_task_MP,2020.1.3,Win32,60,,m,1,0.85681,,,,,,,,0.85681,1,,,,,,74,WORD,"ID",33,plaque,PLAQUE,m,,,,,,0.0859375,-0.3828125,0,0,0,,0,33,33,13,1,
,,,,,,,,,,,,,,,,,,5da8768c2a921500145c6a0d,2020-08-10_19h29.20.579,lexical_decision_task_MP,2020.1.3,Win32,60,,m,1,0.72341,,,,,,,,0.72341,1,,,,,,4,WORD,UN,50,plunge,TRENCH,m,,,,,,0.0859375,-0.3828125,0,0,0,,0,34,34,183,1,
,,,,,,,,,,,,,,,,,,5da8768c2a921500145c6a0d,2020-08-10_19h29.20.579,lexical_decision_task_MP,2020.1.3,Win32,60,,m,1,1.00485,,,,,,,,1.00485,1,,,,,,136,WORD,"ID",50,bleach,BLEACH,m,,,,,,0.0859375,-0.3828125,0,0,0,,0,35,35,75,1,
,,,,,,,,,,,,,,,,,,5da8768c2a921500145c6a0d,2020-08-10_19h29.20.579,lexical_decision_task_MP,2020.1.3,Win32,60,,z,1,0.84886,,,,,,,,0.84886,1,,,,,,442,NW,UN,33,dorsex,ABOUNE,z,,,,,,0.0859375,-0.3828125,0,0,0,,0,36,36,381,1,
,,,,,,,,,,,,,,,,,,5da8768c2a921500145c6a0d,2020-08-10_19h29.20.579,lexical_decision_task_MP,2020.1.3,Win32,60,,m,1,0.708705,,,,,,,,0.708705,1,,,,,,14,WORD,UN,50,orange,ALMOST,m,,,,,,0.0859375,-0.3828125,0,0,0,,0,37,37,193,1,
,,,,,,,,,,,,,,,,,,5da8768c2a921500145c6a0d,2020-08-10_19h29.20.579,lexical_decision_task_MP,2020.1.3,Win32,60,,m,1,0.71709,,,,,,,,0.71709,1,,,,,,109,WORD,"ID",33,wonder,WONDER,m,,,,,,0.0859375,-0.3828125,0,0,0,,0,38,38,48,1,
,,,,,,,,,,,,,,,,,,5da8768c2a921500145c6a0d,2020-08-10_19h29.20.579,lexical_decision_task_MP,2020.1.3,Win32,60,,m,1,0.787095,,,,,,,,0.787095,1,,,,,,226,WORD,UN,33,flower,CASINO,m,,,,,,0.0859375,-0.3828125,0,0,0,,0,39,39,165,1,
,,,,,,,,,,,,,,,,,,5da8768c2a921500145c6a0d,2020-08-10_19h29.20.579,lexical_decision_task_MP,2020.1.3,Win32,60,,m,1,0.749305,,,,,,,,0.749305,1,,,,,,11,WORD,UN,50,amount,CRUISE,m,,,,,,0.0859375,-0.3828125,0,0,0,,0,40,40,190,1,
,,,,,,,,,,,,,,,,,,5da8768c2a921500145c6a0d,2020-08-10_19h29.20.579,lexical_decision_task_MP,2020.1.3,Win32,60,,z,1,0.77848,,,,,,,,0.77848,1,,,,,,337,NW,"ID",33,rejols,REJOLS,z,,,,,,0.0859375,-0.3828125,0,0,0,,0,41,41,276,1,
,,,,,,,,,,,,,,,,,,5da8768c2a921500145c6a0d,2020-08-10_19h29.20.579,lexical_decision_task_MP,2020.1.3,Win32,60,,m,1,0.7302,,,,,,,,0.7302,1,,,,,,125,WORD,"ID",50,nickel,NICKEL,m,,,,,,0.0859375,-0.3828125,0,0,0,,0,42,42,64,1,
,,,,,,,,,,,,,,,,,,5da8768c2a921500145c6a0d,2020-08-10_19h29.20.579,lexical_decision_task_MP,2020.1.3,Win32,60,,z,1,0.78402,,,,,,,,0.78402,1,,,,,,373,NW,"ID",50,bigent,BIGENT,z,,,,,,0.0859375,-0.3828125,0,0,0,,0,43,43,312,1,
,,,,,,,,,,,,,,,,,,5da8768c2a921500145c6a0d,2020-08-10_19h29.20.579,lexical_decision_task_MP,2020.1.3,Win32,60,,z,0,0.78621,,,,,,,,0.78621,0,,,,,,114,WORD,"ID",33,placid,PLACID,m,,,,,,0.0859375,-0.3828125,0,0,0,,0,44,44,53,1,
,,,,,,,,,,,,,,,,,,5da8768c2a921500145c6a0d,2020-08-10_19h29.20.579,lexical_decision_task_MP,2020.1.3,Win32,60,,m,1,0.809365,,,,,,,,0.809365,1,,,,,,118,WORD,"ID",33,flight,FLIGHT,m,,,,,,0.0859375,-0.3828125,0,0,0,,0,45,45,57,1,
,,,,,,,,,,,,,,,,,,5da8768c2a921500145c6a0d,2020-08-10_19h29.20.579,lexical_decision_task_MP,2020.1.3,Win32,60,,m,1,0.870345,,,,,,,,0.870345,1,,,,,,49,WORD,UN,50,snatch,SURVEY,m,,,,,,0.0859375,-0.3828125,0,0,0,,0,46,46,228,1,
,,,,,,,,,,,,,,,,,,5da8768c2a921500145c6a0d,2020-08-10_19h29.20.579,lexical_decision_task_MP,2020.1.3,Win32,60,,z,1,0.73901,,,,,,,,0.73901,1,,,,,,249,NW,UN,50,milted,BATROL,z,,,,,,0.0859375,-0.3828125,0,0,0,,0,47,47,428,1,
,,,,,,,,,,,,,,,,,,5da8768c2a921500145c6a0d,2020-08-10_19h29.20.579,lexical_decision_task_MP,2020.1.3,Win32,60,,m,1,0.698565,,,,,,,,0.698565,1,,,,,,108,WORD,"ID",33,reckon,RECKON,m,,,,,,0.0859375,-0.3828125,0,0,0,,0,48,48,47,1,
,,,,,,,,,,,,,,,,,,5da8768c2a921500145c6a0d,2020-08-10_19h29.20.579,lexical_decision_task_MP,2020.1.3,Win32,60,,z,1,0.6577,,,,,,,,0.6577,1,,,,,,323,NW,"ID",33,rosail,ROSAIL,z,,,,,,0.0859375,-0.3828125,0,0,0,,0,49,49,262,1,
,,,,,,,,,,,,,,,,,,5da8768c2a921500145c6a0d,2020-08-10_19h29.20.579,lexical_decision_task_MP,2020.1.3,Win32,60,,z,1,0.805725,,,,,,,,0.805725,1,,,,,,467,NW,UN,33,wictor,GORBIE,z,,,,,,0.0859375,-0.3828125,0,0,0,,0,50,50,406,1,
,,,,,,,,,,,,,,,,,,5da8768c2a921500145c6a0d,2020-08-10_19h29.20.579,lexical_decision_task_MP,2020.1.3,Win32,60,,z,1,0.922555,,,,,,,,0.922555,1,,,,,,325,NW,"ID",33,thruse,THRUSE,z,,,,,,0.0859375,-0.3828125,0,0,0,,0,51,51,264,1,
,,,,,,,,,,,,,,,,,,5da8768c2a921500145c6a0d,2020-08-10_19h29.20.579,lexical_decision_task_MP,2020.1.3,Win32,60,,z,1,0.793015,,,,,,,,0.793015,1,,,,,,322,NW,"ID",33,slanch,SLANCH,z,,,,,,0.0859375,-0.3828125,0,0,0,,0,52,52,261,1,
,,,,,,,,,,,,,,,,,,5da8768c2a921500145c6a0d,2020-08-10_19h29.20.579,lexical_decision_task_MP,2020.1.3,Win32,60,,z,1,0.93713,,,,,,,,0.93713,1,,,,,,259,NW,UN,50,unject,SOUDAL,z,,,,,,0.0859375,-0.3828125,0,0,0,,0,53,53,438,1,
,,,,,,,,,,,,,,,,,,5da8768c2a921500145c6a0d,2020-08-10_19h29.20.579,lexical_decision_task_MP,2020.1.3,Win32,60,,m,1,0.855315,,,,,,,,0.855315,1,,,,,,57,WORD,UN,50,danger,CHANGE,m,,,,,,0.0859375,-0.3828125,0,0,0,,0,54,54,236,1,
,,,,,,,,,,,,,,,,,,5da8768c2a921500145c6a0d,2020-08-10_19h29.20.579,lexical_decision_task_MP,2020.1.3,Win32,60,,z,1,0.919645,,,,,,,,0.919645,1,,,,,,268,NW,UN,50,orchet,PACKES,z,,,,,,0.0859375,-0.3828125,0,0,0,,0,55,55,447,1,
,,,,,,,,,,,,,,,,,,5da8768c2a921500145c6a0d,2020-08-10_19h29.20.579,lexical_decision_task_MP,2020.1.3,Win32,60,,m,1,1.24568,,,,,,,,1.24568,1,,,,,,144,WORD,"ID",50,sponge,SPONGE,m,,,,,,0.0859375,-0.3828125,0,0,0,,0,56,56,83,1,
,,,,,,,,,,,,,,,,,,5da8768c2a921500145c6a0d,2020-08-10_19h29.20.579,lexical_decision_task_MP,2020.1.3,Win32,60,,z,1,0.94825,,,,,,,,0.94825,1,,,,,,342,NW,"ID",33,randow,RANDOW,z,,,,,,0.0859375,-0.3828125,0,0,0,,0,57,57,281,1,
,,,,,,,,,,,,,,,,,,5da8768c2a921500145c6a0d,2020-08-10_19h29.20.579,lexical_decision_task_MP,2020.1.3,Win32,60,,z,1,0.869315,,,,,,,,0.869315,1,,,,,,245,NW,UN,50,piaton,ANOUGS,z,,,,,,0.0859375,-0.3828125,0,0,0,,0,58,58,424,1,
,,,,,,,,,,,,,,,,,,5da8768c2a921500145c6a0d,2020-08-10_19h29.20.579,lexical_decision_task_MP,2020.1.3,Win32,60,,m,1,0.941305,,,,,,,,0.941305,1,,,,,,27,WORD,UN,50,comedy,SCREAM,m,,,,,,0.0859375,-0.3828125,0,0,0,,0,59,59,206,1,
,,,,,,,,,,,,,,,,,,5da8768c2a921500145c6a0d,2020-08-10_19h29.20.579,lexical_decision_task_MP,2020.1.3,Win32,60,,m,1,0.72981,,,,,,,,0.72981,1,,,,,,89,WORD,"ID",33,permit,PERMIT,m,,,,,,0.0859375,-0.3828125,0,0,0,,0,60,60,28,1,
,,,,,,,,,,,,,,,,,,5da8768c2a921500145c6a0d,2020-08-10_19h29.20.579,lexical_decision_task_MP,2020.1.3,Win32,60,,m,1,0.734535,,,,,,,,0.734535,1,,,,,,230,WORD,UN,33,mother,FRINGE,m,,,,,,0.0859375,-0.3828125,0,0,0,,0,61,61,169,1,
,,,,,,,,,,,,,,,,,,5da8768c2a921500145c6a0d,2020-08-10_19h29.20.579,lexical_decision_task_MP,2020.1.3,Win32,60,,z,1,0.78706,,,,,,,,0.78706,1,,,,,,395,NW,"ID",50,colury,COLURY,z,,,,,,0.0859375,-0.3828125,0,0,0,,0,62,62,334,1,
,,,,,,,,,,,,,,,,,,5da8768c2a921500145c6a0d,2020-08-10_19h29.20.579,lexical_decision_task_MP,2020.1.3,Win32,60,,m,1,1.019915,,,,,,,,1.019915,1,,,,,,194,WORD,UN,33,resign,ABSENT,m,,,,,,0.0859375,-0.3828125,0,0,0,,0,63,63,133,1,
,,,,,,,,,,,,,,,,,,5da8768c2a921500145c6a0d,2020-08-10_19h29.20.579,lexical_decision_task_MP,2020.1.3,Win32,60,,z,1,0.80529,,,,,,,,0.80529,1,,,,,,400,NW,"ID",50,wearox,WEAROX,z,,,,,,0.0859375,-0.3828125,0,0,0,,0,64,64,339,1,
,,,,,,,,,,,,,,,,,,5da8768c2a921500145c6a0d,2020-08-10_19h29.20.579,lexical_decision_task_MP,2020.1.3,Win32,60,,m,1,0.860275,,,,,,,,0.860275,1,,,,,,202,WORD,UN,33,phrase,FACTOR,m,,,,,,0.0859375,-0.3828125,0,0,0,,0,65,65,141,1,
,,,,,,,,,,,,,,,,,,5da8768c2a921500145c6a0d,2020-08-10_19h29.20.579,lexical_decision_task_MP,2020.1.3,Win32,60,,m,1,0.746765,,,,,,,,0.746765,1,,,,,,2,WORD,UN,50,knight,BRIDGE,m,,,,,,0.0859375,-0.3828125,0,0,0,,0,66,66,181,1,
,,,,,,,,,,,,,,,,,,5da8768c2a921500145c6a0d,2020-08-10_19h29.20.579,lexical_decision_task_MP,2020.1.3,Win32,60,,z,1,0.794315,,,,,,,,0.794315,1,,,,,,385,NW,"ID",50,veigma,VEIGMA,z,,,,,,0.0859375,-0.3828125,0,0,0,,0,67,67,324,1,
,,,,,,,,,,,,,,,,,,5da8768c2a921500145c6a0d,2020-08-10_19h29.20.579,lexical_decision_task_MP,2020.1.3,Win32,60,,z,1,0.922805,,,,,,,,0.922805,1,,,,,,343,NW,"ID",33,aimosy,AIMOSY,z,,,,,,0.0859375,-0.3828125,0,0,0,,0,68,68,282,1,
,,,,,,,,,,,,,,,,,,5da8768c2a921500145c6a0d,2020-08-10_19h29.20.579,lexical_decision_task_MP,2020.1.3,Win32,60,,m,1,0.863145,,,,,,,,0.863145,1,,,,,,71,WORD,"ID",33,garden,GARDEN,m,,,,,,0.0859375,-0.3828125,0,0,0,,0,69,69,10,1,
,,,,,,,,,,,,,,,,,,5da8768c2a921500145c6a0d,2020-08-10_19h29.20.579,lexical_decision_task_MP,2020.1.3,Win32,60,,m,1,0.99277,,,,,,,,0.99277,1,,,,,,47,WORD,UN,50,walnut,INCOME,m,,,,,,0.0859375,-0.3828125,0,0,0,,0,70,70,226,1,
,,,,,,,,,,,,,,,,,,5da8768c2a921500145c6a0d,2020-08-10_19h29.20.579,lexical_decision_task_MP,2020.1.3,Win32,60,,z,1,0.794,,,,,,,,0.794,1,,,,,,472,NW,UN,33,gorbie,CIGNEY,z,,,,,,0.0859375,-0.3828125,0,0,0,,0,71,71,411,1,
,,,,,,,,,,,,,,,,,,5da8768c2a921500145c6a0d,2020-08-10_19h29.20.579,lexical_decision_task_MP,2020.1.3,Win32,60,,z,1,0.91595,,,,,,,,0.91595,1,,,,,,275,NW,UN,50,yarmon,SLEIRT,z,,,,,,0.0859375,-0.3828125,0,0,0,,0,72,72,454,1,
,,,,,,,,,,,,,,,,,,5da8768c2a921500145c6a0d,2020-08-10_19h29.20.579,lexical_decision_task_MP,2020.1.3,Win32,60,,z,1,0.725495,,,,,,,,0.725495,1,,,,,,475,NW,UN,33,josted,PEBRIC,z,,,,,,0.0859375,-0.3828125,0,0,0,,0,73,73,414,1,
,,,,,,,,,,,,,,,,,,5da8768c2a921500145c6a0d,2020-08-10_19h29.20.579,lexical_decision_task_MP,2020.1.3,Win32,60,,z,1,1.118945,,,,,,,,1.118945,1,,,,,,364,NW,"ID",50,impote,IMPOTE,z,,,,,,0.0859375,-0.3828125,0,0,0,,0,74,74,303,1,
,,,,,,,,,,,,,,,,,,5da8768c2a921500145c6a0d,2020-08-10_19h29.20.579,lexical_decision_task_MP,2020.1.3,Win32,60,,z,1,0.80644,,,,,,,,0.80644,1,,,,,,377,NW,"ID",50,injore,INJORE,z,,,,,,0.0859375,-0.3828125,0,0,0,,0,75,75,316,1,
,,,,,,,,,,,,,,,,,,5da8768c2a921500145c6a0d,2020-08-10_19h29.20.579,lexical_decision_task_MP,2020.1.3,Win32,60,,z,1,0.676495,,,,,,,,0.676495,1,,,,,,311,NW,"ID",33,sproly,SPROLY,z,,,,,,0.0859375,-0.3828125,0,0,0,,0,76,76,250,1,
,,,,,,,,,,,,,,,,,,5da8768c2a921500145c6a0d,2020-08-10_19h29.20.579,lexical_decision_task_MP,2020.1.3,Win32,60,,z,1,0.656715,,,,,,,,0.656715,1,,,,,,315,NW,"ID",33,laston,LASTON,z,,,,,,0.0859375,-0.3828125,0,0,0,,0,77,77,254,1,
,,,,,,,,,,,,,,,,,,5da8768c2a921500145c6a0d,2020-08-10_19h29.20.579,lexical_decision_task_MP,2020.1.3,Win32,60,,z,1,0.685305,,,,,,,,0.685305,1,,,,,,350,NW,"ID",33,nagurs,NAGURS,z,,,,,,0.0859375,-0.3828125,0,0,0,,0,78,78,289,1,
,,,,,,,,,,,,,,,,,,5da8768c2a921500145c6a0d,2020-08-10_19h29.20.579,lexical_decision_task_MP,2020.1.3,Win32,60,,z,1,0.65622,,,,,,,,0.65622,1,,,,,,286,NW,UN,50,nymbel,RELDON,z,,,,,,0.0859375,-0.3828125,0,0,0,,0,79,79,465,1,
,,,,,,,,,,,,,,,,,,5da8768c2a921500145c6a0d,2020-08-10_19h29.20.579,lexical_decision_task_MP,2020.1.3,Win32,60,,z,1,0.598525,,,,,,,,0.598525,1,,,,,,414,NW,"ID",50,serbol,SERBOL,z,,,,,,0.0859375,-0.3828125,0,0,0,,0,80,80,353,1,
,,,,,,,,,,,,,,,,,,5da8768c2a921500145c6a0d,2020-08-10_19h29.20.579,lexical_decision_task_MP,2020.1.3,Win32,60,,m,1,0.878455,,,,,,,,0.878455,1,,,,,,20,WORD,UN,50,simple,BREAST,m,,,,,,0.0859375,-0.3828125,0,0,0,,0,81,81,199,1,
,,,,,,,,,,,,,,,,,,5da8768c2a921500145c6a0d,2020-08-10_19h29.20.579,lexical_decision_task_MP,2020.1.3,Win32,60,,m,1,0.65176,,,,,,,,0.65176,1,,,,,,159,WORD,"ID",50,detail,DETAIL,m,,,,,,0.0859375,-0.3828125,0,0,0,,0,82,82,98,1,
,,,,,,,,,,,,,,,,,,5da8768c2a921500145c6a0d,2020-08-10_19h29.20.579,lexical_decision_task_MP,2020.1.3,Win32,60,,z,1,0.72247,,,,,,,,0.72247,1,,,,,,299,NW,UN,50,yarion,STURCH,z,,,,,,0.0859375,-0.3828125,0,0,0,,0,83,83,478,1,
,,,,,,,,,,,,,,,,,,5da8768c2a921500145c6a0d,2020-08-10_19h29.20.579,lexical_decision_task_MP,2020.1.3,Win32,60,,m,1,0.582325,,,,,,,,0.582325,1,,,,,,167,WORD,"ID",50,design,DESIGN,m,,,,,,0.0859375,-0.3828125,0,0,0,,0,84,84,106,1,
,,,,,,,,,,,,,,,,,,5da8768c2a921500145c6a0d,2020-08-10_19h29.20.579,lexical_decision_task_MP,2020.1.3,Win32,60,,z,1,0.602695,,,,,,,,0.602695,1,,,,,,265,NW,UN,50,varmit,DISTAR,z,,,,,,0.0859375,-0.3828125,0,0,0,,0,85,85,444,1,
,,,,,,,,,,,,,,,,,,5da8768c2a921500145c6a0d,2020-08-10_19h29.20.579,lexical_decision_task_MP,2020.1.3,Win32,60,,z,1,0.96495,,,,,,,,0.96495,1,,,,,,420,NW,"ID",50,gushop,GUSHOP,z,,,,,,0.0859375,-0.3828125,0,0,0,,0,86,86,359,1,
,,,,,,,,,,,,,,,,,,5da8768c2a921500145c6a0d,2020-08-10_19h29.20.579,lexical_decision_task_MP,2020.1.3,Win32,60,,z,1,0.752405,,,,,,,,0.752405,1,,,,,,329,NW,"ID",33,yarike,YARIKE,z,,,,,,0.0859375,-0.3828125,0,0,0,,0,87,87,268,1,
,,,,,,,,,,,,,,,,,,5da8768c2a921500145c6a0d,2020-08-10_19h29.20.579,lexical_decision_task_MP,2020.1.3,Win32,60,,z,1,0.72994,,,,,,,,0.72994,1,,,,,,376,NW,"ID",50,iguare,IGUARE,z,,,,,,0.0859375,-0.3828125,0,0,0,,0,88,88,315,1,
,,,,,,,,,,,,,,,,,,5da8768c2a921500145c6a0d,2020-08-10_19h29.20.579,lexical_decision_task_MP,2020.1.3,Win32,60,,z,1,0.72058,,,,,,,,0.72058,1,,,,,,261,NW,UN,50,quilew,STUNCH,z,,,,,,0.0859375,-0.3828125,0,0,0,,0,89,89,440,1,
,,,,,,,,,,,,,,,,,,5da8768c2a921500145c6a0d,2020-08-10_19h29.20.579,lexical_decision_task_MP,2020.1.3,Win32,60,,m,1,0.681035,,,,,,,,0.681035,1,,,,,,23,WORD,UN,50,praise,WEALTH,m,,,,,,0.0859375,-0.3828125,0,0,0,,0,90,90,202,1,
,,,,,,,,,,,,,,,,,,5da8768c2a921500145c6a0d,2020-08-10_19h29.20.579,lexical_decision_task_MP,2020.1.3,Win32,60,,z,1,0.84774,,,,,,,,0.84774,1,,,,,,449,NW,UN,33,phrect,BRUNGE,z,,,,,,0.0859375,-0.3828125,0,0,0,,0,91,91,388,1,
,,,,,,,,,,,,,,,,,,5da8768c2a921500145c6a0d,2020-08-10_19h29.20.579,lexical_decision_task_MP,2020.1.3,Win32,60,,z,1,0.721035,,,,,,,,0.721035,1,,,,,,390,NW,"ID",50,hatrus,HATRUS,z,,,,,,0.0859375,-0.3828125,0,0,0,,0,92,92,329,1,
,,,,,,,,,,,,,,,,,,5da8768c2a921500145c6a0d,2020-08-10_19h29.20.579,lexical_decision_task_MP,2020.1.3,Win32,60,,z,1,0.670135,,,,,,,,0.670135,1,,,,,,310,NW,"ID",33,daniet,DANIET,z,,,,,,0.0859375,-0.3828125,0,0,0,,0,93,93,249,1,
,,,,,,,,,,,,,,,,,,5da8768c2a921500145c6a0d,2020-08-10_19h29.20.579,lexical_decision_task_MP,2020.1.3,Win32,60,,z,1,0.5925,,,,,,,,0.5925,1,,,,,,399,NW,"ID",50,fouret,FOURET,z,,,,,,0.0859375,-0.3828125,0,0,0,,0,94,94,338,1,
,,,,,,,,,,,,,,,,,,5da8768c2a921500145c6a0d,2020-08-10_19h29.20.579,lexical_decision_task_MP,2020.1.3,Win32,60,,z,1,0.74006,,,,,,,,0.74006,1,,,,,,428,NW,UN,33,funtle,TANDLY,z,,,,,,0.0859375,-0.3828125,0,0,0,,0,95,95,367,1,
,,,,,,,,,,,,,,,,,,5da8768c2a921500145c6a0d,2020-08-10_19h29.20.579,lexical_decision_task_MP,2020.1.3,Win32,60,,z,1,0.646315,,,,,,,,0.646315,1,,,,,,391,NW,"ID",50,theldy,THELDY,z,,,,,,0.0859375,-0.3828125,0,0,0,,0,96,96,330,1,
,,,,,,,,,,,,,,,,,,5da8768c2a921500145c6a0d,2020-08-10_19h29.20.579,lexical_decision_task_MP,2020.1.3,Win32,60,,m,1,0.86355,,,,,,,,0.86355,1,,,,,,147,WORD,"ID",50,garlic,GARLIC,m,,,,,,0.0859375,-0.3828125,0,0,0,,0,97,97,86,1,
,,,,,,,,,,,,,,,,,,5da8768c2a921500145c6a0d,2020-08-10_19h29.20.579,lexical_decision_task_MP,2020.1.3,Win32,60,,m,1,0.706745,,,,,,,,0.706745,1,,,,,,31,WORD,UN,50,buckle,WEAPON,m,,,,,,0.0859375,-0.3828125,0,0,0,,0,98,98,210,1,
,,,,,,,,,,,,,,,,,,5da8768c2a921500145c6a0d,2020-08-10_19h29.20.579,lexical_decision_task_MP,2020.1.3,Win32,60,,z,1,0.64244,,,,,,,,0.64244,1,,,,,,267,NW,UN,50,packes,PASINK,z,,,,,,0.0859375,-0.3828125,0,0,0,,0,99,99,446,1,
,,,,,,,,,,,,,,,,,,5da8768c2a921500145c6a0d,2020-08-10_19h29.20.579,lexical_decision_task_MP,2020.1.3,Win32,60,,z,0,1.05672,,,,,,,,1.05672,0,,,,,,186,WORD,UN,33,course,PORTAL,m,,,,,,0.0859375,-0.3828125,0,0,0,,0,100,100,125,1,
,,,,,,,,,,,,,,,,,,5da8768c2a921500145c6a0d,2020-08-10_19h29.20.579,lexical_decision_task_MP,2020.1.3,Win32,60,,m,1,0.66493,,,,,,,,0.66493,1,,,,,,155,WORD,"ID",50,lizard,LIZARD,m,,,,,,0.0859375,-0.3828125,0,0,0,,0,101,101,94,1,
,,,,,,,,,,,,,,,,,,5da8768c2a921500145c6a0d,2020-08-10_19h29.20.579,lexical_decision_task_MP,2020.1.3,Win32,60,,z,1,0.814545,,,,,,,,0.814545,1,,,,,,435,NW,UN,33,frutan,IMPURB,z,,,,,,0.0859375,-0.3828125,0,0,0,,0,102,102,374,1,
,,,,,,,,,,,,,,,,,,5da8768c2a921500145c6a0d,2020-08-10_19h29.20.579,lexical_decision_task_MP,2020.1.3,Win32,60,,z,1,0.793005,,,,,,,,0.793005,1,,,,,,411,NW,"ID",50,orchin,ORCHIN,z,,,,,,0.0859375,-0.3828125,0,0,0,,0,103,103,350,1,
,,,,,,,,,,,,,,,,,,5da8768c2a921500145c6a0d,2020-08-10_19h29.20.579,lexical_decision_task_MP,2020.1.3,Win32,60,,m,0,1.191935,,,,,,,,1.191935,0,,,,,,413,NW,"ID",50,equats,EQUATS,z,,,,,,0.0859375,-0.3828125,0,0,0,,0,104,104,352,1,
,,,,,,,,,,,,,,,,,,5da8768c2a921500145c6a0d,2020-08-10_19h29.20.579,lexical_decision_task_MP,2020.1.3,Win32,60,,m,1,0.65499,,,,,,,,0.65499,1,,,,,,98,WORD,"ID",33,belong,BELONG,m,,,,,,0.0859375,-0.3828125,0,0,0,,0,105,105,37,1,
,,,,,,,,,,,,,,,,,,5da8768c2a921500145c6a0d,2020-08-10_19h29.20.579,lexical_decision_task_MP,2020.1.3,Win32,60,,m,1,0.6617,,,,,,,,0.6617,1,,,,,,94,WORD,"ID",33,travel,TRAVEL,m,,,,,,0.0859375,-0.3828125,0,0,0,,0,106,106,33,1,
,,,,,,,,,,,,,,,,,,5da8768c2a921500145c6a0d,2020-08-10_19h29.20.579,lexical_decision_task_MP,2020.1.3,Win32,60,,z,1,0.746435,,,,,,,,0.746435,1,,,,,,477,NW,UN,33,lobush,PHOTIE,z,,,,,,0.0859375,-0.3828125,0,0,0,,0,107,107,416,1,
,,,,,,,,,,,,,,,,,,5da8768c2a921500145c6a0d,2020-08-10_19h29.20.579,lexical_decision_task_MP,2020.1.3,Win32,60,,z,1,0.65384,,,,,,,,0.65384,1,,,,,,393,NW,"ID",50,ganous,GANOUS,z,,,,,,0.0859375,-0.3828125,0,0,0,,0,108,108,332,1,
,,,,,,,,,,,,,,,,,,5da8768c2a921500145c6a0d,2020-08-10_19h29.20.579,lexical_decision_task_MP,2020.1.3,Win32,60,,z,1,0.654165,,,,,,,,0.654165,1,,,,,,270,NW,UN,50,aubrid,WRIMSY,z,,,,,,0.0859375,-0.3828125,0,0,0,,0,109,109,449,1,
,,,,,,,,,,,,,,,,,,5da8768c2a921500145c6a0d,2020-08-10_19h29.20.579,lexical_decision_task_MP,2020.1.3,Win32,60,,z,1,1.397225,,,,,,,,1.397225,1,,,,,,281,NW,UN,50,porlex,MELATY,z,,,,,,0.0859375,-0.3828125,0,0,0,,0,110,110,460,1,
,,,,,,,,,,,,,,,,,,5da8768c2a921500145c6a0d,2020-08-10_19h29.20.579,lexical_decision_task_MP,2020.1.3,Win32,60,,m,1,0.728315,,,,,,,,0.728315,1,,,,,,17,WORD,UN,50,humble,CHARGE,m,,,,,,0.0859375,-0.3828125,0,0,0,,0,111,111,196,1,
,,,,,,,,,,,,,,,,,,5da8768c2a921500145c6a0d,2020-08-10_19h29.20.579,lexical_decision_task_MP,2020.1.3,Win32,60,,z,1,0.813705,,,,,,,,0.813705,1,,,,,,362,NW,"ID",50,tireau,TIREAU,z,,,,,,0.0859375,-0.3828125,0,0,0,,0,112,112,301,1,
,,,,,,,,,,,,,,,,,,5da8768c2a921500145c6a0d,2020-08-10_19h29.20.579,lexical_decision_task_MP,2020.1.3,Win32,60,,m,1,0.79203,,,,,,,,0.79203,1,,,,,,116,WORD,"ID",33,tumble,TUMBLE,m,,,,,,0.0859375,-0.3828125,0,0,0,,0,113,113,55,1,
,,,,,,,,,,,,,,,,,,5da8768c2a921500145c6a0d,2020-08-10_19h29.20.579,lexical_decision_task_MP,2020.1.3,Win32,60,,m,1,1.27873,,,,,,,,1.27873,1,,,,,,239,WORD,UN,33,forest,LUMBER,m,,,,,,0.0859375,-0.3828125,0,0,0,,0,114,114,178,1,
,,,,,,,,,,,,,,,,,,5da8768c2a921500145c6a0d,2020-08-10_19h29.20.579,lexical_decision_task_MP,2020.1.3,Win32,60,,z,1,1.302335,,,,,,,,1.302335,1,,,,,,418,NW,"ID",50,suidle,SUIDLE,z,,,,,,0.0859375,-0.3828125,0,0,0,,0,115,115,357,1,
,,,,,,,,,,,,,,,,,,5da8768c2a921500145c6a0d,2020-08-10_19h29.20.579,lexical_decision_task_MP,2020.1.3,Win32,60,,m,1,1.0001,,,,,,,,1.0001,1,,,,,,24,WORD,UN,50,domain,PRAISE,m,,,,,,0.0859375,-0.3828125,0,0,0,,0,116,116,203,1,
,,,,,,,,,,,,,,,,,,5da8768c2a921500145c6a0d,2020-08-10_19h29.20.579,lexical_decision_task_MP,2020.1.3,Win32,60,,z,1,1.039965,,,,,,,,1.039965,1,,,,,,462,NW,UN,33,kispel,ABSULT,z,,,,,,0.0859375,-0.3828125,0,0,0,,0,117,117,401,1,
,,,,,,,,,,,,,,,,,,5da8768c2a921500145c6a0d,2020-08-10_19h29.20.579,lexical_decision_task_MP,2020.1.3,Win32,60,,z,1,0.76313,,,,,,,,0.76313,1,,,,,,309,NW,"ID",33,amiloy,AMILOY,z,,,,,,0.0859375,-0.3828125,0,0,0,,0,118,118,248,1,
,,,,,,,,,,,,,,,,,,5da8768c2a921500145c6a0d,2020-08-10_19h29.20.579,lexical_decision_task_MP,2020.1.3,Win32,60,,m,1,0.85722,,,,,,,,0.85722,1,,,,,,87,WORD,"ID",33,filter,FILTER,m,,,,,,0.0859375,-0.3828125,0,0,0,,0,119,119,26,1,
,,,,,,,,,,,,,,,,,,5da8768c2a921500145c6a0d,2020-08-10_19h29.20.579,lexical_decision_task_MP,2020.1.3,Win32,60,,z,1,0.93604,,,,,,,,0.93604,1,,,,,,278,NW,UN,50,celond,UNIGHS,z,,,,,,0.0859375,-0.3828125,0,0,0,space,0,120,120,457,1,8.853985
,,,,,,,,,,,,,,,,,,5da8768c2a921500145c6a0d,2020-08-10_19h29.20.579,lexical_decision_task_MP,2020.1.3,Win32,60,,z,1,0.74858,,,,,,,,0.74858,1,,,,,,371,NW,"ID",50,geiloy,GEILOY,z,,,,,,0.0859375,-0.3828125,0,0,0,,0,121,121,310,1,
,,,,,,,,,,,,,,,,,,5da8768c2a921500145c6a0d,2020-08-10_19h29.20.579,lexical_decision_task_MP,2020.1.3,Win32,60,,m,1,0.98358,,,,,,,,0.98358,1,,,,,,207,WORD,UN,33,hockey,WREATH,m,,,,,,0.0859375,-0.3828125,0,0,0,,0,122,122,146,1,
,,,,,,,,,,,,,,,,,,5da8768c2a921500145c6a0d,2020-08-10_19h29.20.579,lexical_decision_task_MP,2020.1.3,Win32,60,,m,1,0.659395,,,,,,,,0.659395,1,,,,,,103,WORD,"ID",33,bounce,BOUNCE,m,,,,,,0.0859375,-0.3828125,0,0,0,,0,123,123,42,1,
,,,,,,,,,,,,,,,,,,5da8768c2a921500145c6a0d,2020-08-10_19h29.20.579,lexical_decision_task_MP,2020.1.3,Win32,60,,z,0,0.802595,,,,,,,,0.802595,0,,,,,,151,WORD,"ID",50,mystic,MYSTIC,m,,,,,,0.0859375,-0.3828125,0,0,0,,0,124,124,90,1,
,,,,,,,,,,,,,,,,,,5da8768c2a921500145c6a0d,2020-08-10_19h29.20.579,lexical_decision_task_MP,2020.1.3,Win32,60,,z,1,0.79264,,,,,,,,0.79264,1,,,,,,359,NW,"ID",33,fonver,FONVER,z,,,,,,0.0859375,-0.3828125,0,0,0,,0,125,125,298,1,
,,,,,,,,,,,,,,,,,,5da8768c2a921500145c6a0d,2020-08-10_19h29.20.579,lexical_decision_task_MP,2020.1.3,Win32,60,,m,1,0.7267,,,,,,,,0.7267,1,,,,,,133,WORD,"ID",50,chrome,CHROME,m,,,,,,0.0859375,-0.3828125,0,0,0,,0,126,126,72,1,
,,,,,,,,,,,,,,,,,,5da8768c2a921500145c6a0d,2020-08-10_19h29.20.579,lexical_decision_task_MP,2020.1.3,Win32,60,,z,1,1.31535,,,,,,,,1.31535,1,,,,,,318,NW,"ID",33,reagly,REAGLY,z,,,,,,0.0859375,-0.3828125,0,0,0,,0,127,127,257,1,
,,,,,,,,,,,,,,,,,,5da8768c2a921500145c6a0d,2020-08-10_19h29.20.579,lexical_decision_task_MP,2020.1.3,Win32,60,,z,1,0.7316,,,,,,,,0.7316,1,,,,,,243,NW,UN,50,eatric,MUSIED,z,,,,,,0.0859375,-0.3828125,0,0,0,,0,128,128,422,1,
,,,,,,,,,,,,,,,,,,5da8768c2a921500145c6a0d,2020-08-10_19h29.20.579,lexical_decision_task_MP,2020.1.3,Win32,60,,z,1,0.72625,,,,,,,,0.72625,1,,,,,,378,NW,"ID",50,shrile,SHRILE,z,,,,,,0.0859375,-0.3828125,0,0,0,,0,129,129,317,1,
,,,,,,,,,,,,,,,,,,5da8768c2a921500145c6a0d,2020-08-10_19h29.20.579,lexical_decision_task_MP,2020.1.3,Win32,60,,z,1,0.777655,,,,,,,,0.777655,1,,,,,,423,NW,UN,33,praile,STRELD,z,,,,,,0.0859375,-0.3828125,0,0,0,,0,130,130,362,1,
,,,,,,,,,,,,,,,,,,5da8768c2a921500145c6a0d,2020-08-10_19h29.20.579,lexical_decision_task_MP,2020.1.3,Win32,60,,z,1,0.723075,,,,,,,,0.723075,1,,,,,,264,NW,UN,50,distar,VACKEL,z,,,,,,0.0859375,-0.3828125,0,0,0,,0,131,131,443,1,
,,,,,,,,,,,,,,,,,,5da8768c2a921500145c6a0d,2020-08-10_19h29.20.579,lexical_decision_task_MP,2020.1.3,Win32,60,,z,1,0.871655,,,,,,,,0.871655,1,,,,,,358,NW,"ID",33,fleack,FLEACK,z,,,,,,0.0859375,-0.3828125,0,0,0,,0,132,132,297,1,
,,,,,,,,,,,,,,,,,,5da8768c2a921500145c6a0d,2020-08-10_19h29.20.579,lexical_decision_task_MP,2020.1.3,Win32,60,,z,1,0.920465,,,,,,,,0.920465,1,,,,,,433,NW,UN,33,pitrom,DRANCE,z,,,,,,0.0859375,-0.3828125,0,0,0,,0,133,133,372,1,
,,,,,,,,,,,,,,,,,,5da8768c2a921500145c6a0d,2020-08-10_19h29.20.579,lexical_decision_task_MP,2020.1.3,Win32,60,,m,1,0.78405,,,,,,,,0.78405,1,,,,,,233,WORD,UN,33,clumsy,NATURE,m,,,,,,0.0859375,-0.3828125,0,0,0,,0,134,134,172,1,
,,,,,,,,,,,,,,,,,,5da8768c2a921500145c6a0d,2020-08-10_19h29.20.579,lexical_decision_task_MP,2020.1.3,Win32,60,,z,1,0.732905,,,,,,,,0.732905,1,,,,,,333,NW,"ID",33,catrie,CATRIE,z,,,,,,0.0859375,-0.3828125,0,0,0,,0,135,135,272,1,
,,,,,,,,,,,,,,,,,,5da8768c2a921500145c6a0d,2020-08-10_19h29.20.579,lexical_decision_task_MP,2020.1.3,Win32,60,,z,1,1.113115,,,,,,,,1.113115,1,,,,,,332,NW,"ID",33,vangue,VANGUE,z,,,,,,0.0859375,-0.3828125,0,0,0,,0,136,136,271,1,
,,,,,,,,,,,,,,,,,,5da8768c2a921500145c6a0d,2020-08-10_19h29.20.579,lexical_decision_task_MP,2020.1.3,Win32,60,,z,1,0.80815,,,,,,,,0.80815,1,,,,,,354,NW,"ID",33,virlex,VIRLEX,z,,,,,,0.0859375,-0.3828125,0,0,0,,0,137,137,293,1,
,,,,,,,,,,,,,,,,,,5da8768c2a921500145c6a0d,2020-08-10_19h29.20.579,lexical_decision_task_MP,2020.1.3,Win32,60,,z,1,0.7392,,,,,,,,0.7392,1,,,,,,416,NW,"ID",50,pathel,PATHEL,z,,,,,,0.0859375,-0.3828125,0,0,0,,0,138,138,355,1,
,,,,,,,,,,,,,,,,,,5da8768c2a921500145c6a0d,2020-08-10_19h29.20.579,lexical_decision_task_MP,2020.1.3,Win32,60,,m,1,0.974125,,,,,,,,0.974125,1,,,,,,183,WORD,UN,33,sleazy,MILDEW,m,,,,,,0.0859375,-0.3828125,0,0,0,,0,139,139,122,1,
,,,,,,,,,,,,,,,,,,5da8768c2a921500145c6a0d,2020-08-10_19h29.20.579,lexical_decision_task_MP,2020.1.3,Win32,60,,m,1,0.81082,,,,,,,,0.81082,1,,,,,,143,WORD,"ID",50,reason,REASON,m,,,,,,0.0859375,-0.3828125,0,0,0,,0,140,140,82,1,
,,,,,,,,,,,,,,,,,,5da8768c2a921500145c6a0d,2020-08-10_19h29.20.579,lexical_decision_task_MP,2020.1.3,Win32,60,,z,1,0.79234,,,,,,,,0.79234,1,,,,,,363,NW,"ID",50,breali,BREALI,z,,,,,,0.0859375,-0.3828125,0,0,0,,0,141,141,302,1,
,,,,,,,,,,,,,,,,,,5da8768c2a921500145c6a0d,2020-08-10_19h29.20.579,lexical_decision_task_MP,2020.1.3,Win32,60,,z,1,0.84521,,,,,,,,0.84521,1,,,,,,461,NW,UN,33,absult,JUSTRE,z,,,,,,0.0859375,-0.3828125,0,0,0,,0,142,142,400,1,
,,,,,,,,,,,,,,,,,,5da8768c2a921500145c6a0d,2020-08-10_19h29.20.579,lexical_decision_task_MP,2020.1.3,Win32,60,,z,1,0.91151,,,,,,,,0.91151,1,,,,,,251,NW,UN,50,stapod,LUPICT,z,,,,,,0.0859375,-0.3828125,0,0,0,,0,143,143,430,1,
,,,,,,,,,,,,,,,,,,5da8768c2a921500145c6a0d,2020-08-10_19h29.20.579,lexical_decision_task_MP,2020.1.3,Win32,60,,z,1,0.662605,,,,,,,,0.662605,1,,,,,,263,NW,UN,50,vackel,DOLICA,z,,,,,,0.0859375,-0.3828125,0,0,0,,0,144,144,442,1,
,,,,,,,,,,,,,,,,,,5da8768c2a921500145c6a0d,2020-08-10_19h29.20.579,lexical_decision_task_MP,2020.1.3,Win32,60,,m,1,0.67174,,,,,,,,0.67174,1,,,,,,129,WORD,"ID",50,marvel,MARVEL,m,,,,,,0.0859375,-0.3828125,0,0,0,,0,145,145,68,1,
,,,,,,,,,,,,,,,,,,5da8768c2a921500145c6a0d,2020-08-10_19h29.20.579,lexical_decision_task_MP,2020.1.3,Win32,60,,z,1,0.65067,,,,,,,,0.65067,1,,,,,,443,NW,UN,33,jaunce,DORSEX,z,,,,,,0.0859375,-0.3828125,0,0,0,,0,146,146,382,1,
,,,,,,,,,,,,,,,,,,5da8768c2a921500145c6a0d,2020-08-10_19h29.20.579,lexical_decision_task_MP,2020.1.3,Win32,60,,z,1,0.940995,,,,,,,,0.940995,1,,,,,,357,NW,"ID",33,derain,DERAIN,z,,,,,,0.0859375,-0.3828125,0,0,0,,0,147,147,296,1,
,,,,,,,,,,,,,,,,,,5da8768c2a921500145c6a0d,2020-08-10_19h29.20.579,lexical_decision_task_MP,2020.1.3,Win32,60,,z,1,0.796025,,,,,,,,0.796025,1,,,,,,392,NW,"ID",50,rouncy,ROUNCY,z,,,,,,0.0859375,-0.3828125,0,0,0,,0,148,148,331,1,
,,,,,,,,,,,,,,,,,,5da8768c2a921500145c6a0d,2020-08-10_19h29.20.579,lexical_decision_task_MP,2020.1.3,Win32,60,,z,1,0.65991,,,,,,,,0.65991,1,,,,,,279,NW,UN,50,curbol,CELOND,z,,,,,,0.0859375,-0.3828125,0,0,0,,0,149,149,458,1,
,,,,,,,,,,,,,,,,,,5da8768c2a921500145c6a0d,2020-08-10_19h29.20.579,lexical_decision_task_MP,2020.1.3,Win32,60,,z,1,0.710575,,,,,,,,0.710575,1,,,,,,349,NW,"ID",33,asylen,ASYLEN,z,,,,,,0.0859375,-0.3828125,0,0,0,,0,150,150,288,1,
,,,,,,,,,,,,,,,,,,5da8768c2a921500145c6a0d,2020-08-10_19h29.20.579,lexical_decision_task_MP,2020.1.3,Win32,60,,z,1,0.66584,,,,,,,,0.66584,1,,,,,,290,NW,UN,50,pretch,SPLINO,z,,,,,,0.0859375,-0.3828125,0,0,0,,0,151,151,469,1,
,,,,,,,,,,,,,,,,,,5da8768c2a921500145c6a0d,2020-08-10_19h29.20.579,lexical_decision_task_MP,2020.1.3,Win32,60,,m,1,1.041895,,,,,,,,1.041895,1,,,,,,166,WORD,"ID",50,starch,STARCH,m,,,,,,0.0859375,-0.3828125,0,0,0,,0,152,152,105,1,
,,,,,,,,,,,,,,,,,,5da8768c2a921500145c6a0d,2020-08-10_19h29.20.579,lexical_decision_task_MP,2020.1.3,Win32,60,,z,0,0.646785,,,,,,,,0.646785,0,,,,,,120,WORD,"ID",33,strain,STRAIN,m,,,,,,0.0859375,-0.3828125,0,0,0,,0,153,153,59,1,
,,,,,,,,,,,,,,,,,,5da8768c2a921500145c6a0d,2020-08-10_19h29.20.579,lexical_decision_task_MP,2020.1.3,Win32,60,,m,1,1.596875,,,,,,,,1.596875,1,,,,,,25,WORD,UN,50,sprint,DOMAIN,m,,,,,,0.0859375,-0.3828125,0,0,0,,0,154,154,204,1,
,,,,,,,,,,,,,,,,,,5da8768c2a921500145c6a0d,2020-08-10_19h29.20.579,lexical_decision_task_MP,2020.1.3,Win32,60,,m,1,0.543585,,,,,,,,0.543585,1,,,,,,69,WORD,"ID",33,plenty,PLENTY,m,,,,,,0.0859375,-0.3828125,0,0,0,,0,155,155,8,1,
,,,,,,,,,,,,,,,,,,5da8768c2a921500145c6a0d,2020-08-10_19h29.20.579,lexical_decision_task_MP,2020.1.3,Win32,60,,z,1,0.802935,,,,,,,,0.802935,1,,,,,,277,NW,UN,50,unighs,PETAIN,z,,,,,,0.0859375,-0.3828125,0,0,0,,0,156,156,456,1,
,,,,,,,,,,,,,,,,,,5da8768c2a921500145c6a0d,2020-08-10_19h29.20.579,lexical_decision_task_MP,2020.1.3,Win32,60,,m,1,0.674385,,,,,,,,0.674385,1,,,,,,15,WORD,UN,50,faucet,AMOUNT,m,,,,,,0.0859375,-0.3828125,0,0,0,,0,157,157,194,1,
,,,,,,,,,,,,,,,,,,5da8768c2a921500145c6a0d,2020-08-10_19h29.20.579,lexical_decision_task_MP,2020.1.3,Win32,60,,m,1,0.786895,,,,,,,,0.786895,1,,,,,,6,WORD,UN,50,anchor,BUNDLE,m,,,,,,0.0859375,-0.3828125,0,0,0,,0,158,158,185,1,
,,,,,,,,,,,,,,,,,,5da8768c2a921500145c6a0d,2020-08-10_19h29.20.579,lexical_decision_task_MP,2020.1.3,Win32,60,,z,1,0.71809,,,,,,,,0.71809,1,,,,,,450,NW,UN,33,cainky,PHRECT,z,,,,,,0.0859375,-0.3828125,0,0,0,,0,159,159,389,1,
,,,,,,,,,,,,,,,,,,5da8768c2a921500145c6a0d,2020-08-10_19h29.20.579,lexical_decision_task_MP,2020.1.3,Win32,60,,m,1,0.70936,,,,,,,,0.70936,1,,,,,,223,WORD,UN,33,period,KIDNEY,m,,,,,,0.0859375,-0.3828125,0,0,0,,0,160,160,162,1,
,,,,,,,,,,,,,,,,,,5da8768c2a921500145c6a0d,2020-08-10_19h29.20.579,lexical_decision_task_MP,2020.1.3,Win32,60,,z,1,0.649285,,,,,,,,0.649285,1,,,,,,366,NW,"ID",50,toshel,TOSHEL,z,,,,,,0.0859375,-0.3828125,0,0,0,,0,161,161,305,1,
,,,,,,,,,,,,,,,,,,5da8768c2a921500145c6a0d,2020-08-10_19h29.20.579,lexical_decision_task_MP,2020.1.3,Win32,60,,z,1,0.65129,,,,,,,,0.65129,1,,,,,,346,NW,"ID",33,saudic,SAUDIC,z,,,,,,0.0859375,-0.3828125,0,0,0,,0,162,162,285,1,
,,,,,,,,,,,,,,,,,,5da8768c2a921500145c6a0d,2020-08-10_19h29.20.579,lexical_decision_task_MP,2020.1.3,Win32,60,,z,0,0.650645,,,,,,,,0.650645,0,,,,,,83,WORD,"ID",33,result,RESULT,m,,,,,,0.0859375,-0.3828125,0,0,0,,0,163,163,22,1,
,,,,,,,,,,,,,,,,,,5da8768c2a921500145c6a0d,2020-08-10_19h29.20.579,lexical_decision_task_MP,2020.1.3,Win32,60,,m,1,0.845845,,,,,,,,0.845845,1,,,,,,36,WORD,UN,50,insult,VANISH,m,,,,,,0.0859375,-0.3828125,0,0,0,,0,164,164,215,1,
,,,,,,,,,,,,,,,,,,5da8768c2a921500145c6a0d,2020-08-10_19h29.20.579,lexical_decision_task_MP,2020.1.3,Win32,60,,z,1,0.73407,,,,,,,,0.73407,1,,,,,,276,NW,UN,50,petain,YARMON,z,,,,,,0.0859375,-0.3828125,0,0,0,,0,165,165,455,1,
,,,,,,,,,,,,,,,,,,5da8768c2a921500145c6a0d,2020-08-10_19h29.20.579,lexical_decision_task_MP,2020.1.3,Win32,60,,m,1,0.857295,,,,,,,,0.857295,1,,,,,,61,WORD,"ID",33,ponder,PONDER,m,,,,,,0.0859375,-0.3828125,0,0,0,,0,166,166,0,1,
,,,,,,,,,,,,,,,,,,5da8768c2a921500145c6a0d,2020-08-10_19h29.20.579,lexical_decision_task_MP,2020.1.3,Win32,60,,z,1,0.931845,,,,,,,,0.931845,1,,,,,,296,NW,UN,50,fertic,BEINCH,z,,,,,,0.0859375,-0.3828125,0,0,0,,0,167,167,475,1,
,,,,,,,,,,,,,,,,,,5da8768c2a921500145c6a0d,2020-08-10_19h29.20.579,lexical_decision_task_MP,2020.1.3,Win32,60,,m,1,1.13165,,,,,,,,1.13165,1,,,,,,212,WORD,UN,33,squeal,VERIFY,m,,,,,,0.0859375,-0.3828125,0,0,0,,0,168,168,151,1,
,,,,,,,,,,,,,,,,,,5da8768c2a921500145c6a0d,2020-08-10_19h29.20.579,lexical_decision_task_MP,2020.1.3,Win32,60,,m,1,0.65187,,,,,,,,0.65187,1,,,,,,56,WORD,UN,50,change,AMBUSH,m,,,,,,0.0859375,-0.3828125,0,0,0,,0,169,169,235,1,
,,,,,,,,,,,,,,,,,,5da8768c2a921500145c6a0d,2020-08-10_19h29.20.579,lexical_decision_task_MP,2020.1.3,Win32,60,,m,1,0.616365,,,,,,,,0.616365,1,,,,,,65,WORD,"ID",33,symbol,SYMBOL,m,,,,,,0.0859375,-0.3828125,0,0,0,,0,170,170,4,1,
,,,,,,,,,,,,,,,,,,5da8768c2a921500145c6a0d,2020-08-10_19h29.20.579,lexical_decision_task_MP,2020.1.3,Win32,60,,z,1,0.91879,,,,,,,,0.91879,1,,,,,,402,NW,"ID",50,syntic,SYNTIC,z,,,,,,0.0859375,-0.3828125,0,0,0,,0,171,171,341,1,
,,,,,,,,,,,,,,,,,,5da8768c2a921500145c6a0d,2020-08-10_19h29.20.579,lexical_decision_task_MP,2020.1.3,Win32,60,,m,1,0.845645,,,,,,,,0.845645,1,,,,,,96,WORD,"ID",33,ignore,IGNORE,m,,,,,,0.0859375,-0.3828125,0,0,0,,0,172,172,35,1,
,,,,,,,,,,,,,,,,,,5da8768c2a921500145c6a0d,2020-08-10_19h29.20.579,lexical_decision_task_MP,2020.1.3,Win32,60,,m,1,0.59636,,,,,,,,0.59636,1,,,,,,175,WORD,"ID",50,fabric,FABRIC,m,,,,,,0.0859375,-0.3828125,0,0,0,,0,173,173,114,1,
,,,,,,,,,,,,,,,,,,5da8768c2a921500145c6a0d,2020-08-10_19h29.20.579,lexical_decision_task_MP,2020.1.3,Win32,60,,m,1,0.718835,,,,,,,,0.718835,1,,,,,,201,WORD,UN,33,factor,ADMIRE,m,,,,,,0.0859375,-0.3828125,0,0,0,,0,174,174,140,1,
,,,,,,,,,,,,,,,,,,5da8768c2a921500145c6a0d,2020-08-10_19h29.20.579,lexical_decision_task_MP,2020.1.3,Win32,60,,m,1,0.66643,,,,,,,,0.66643,1,,,,,,73,WORD,"ID",33,source,SOURCE,m,,,,,,0.0859375,-0.3828125,0,0,0,,0,175,175,12,1,
,,,,,,,,,,,,,,,,,,5da8768c2a921500145c6a0d,2020-08-10_19h29.20.579,lexical_decision_task_MP,2020.1.3,Win32,60,,m,1,0.77361,,,,,,,,0.77361,1,,,,,,37,WORD,UN,50,powder,INSULT,m,,,,,,0.0859375,-0.3828125,0,0,0,,0,176,176,216,1,
,,,,,,,,,,,,,,,,,,5da8768c2a921500145c6a0d,2020-08-10_19h29.20.579,lexical_decision_task_MP,2020.1.3,Win32,60,,m,1,0.608995,,,,,,,,0.608995,1,,,,,,148,WORD,"ID",50,custom,CUSTOM,m,,,,,,0.0859375,-0.3828125,0,0,0,,0,177,177,87,1,
,,,,,,,,,,,,,,,,,,5da8768c2a921500145c6a0d,2020-08-10_19h29.20.579,lexical_decision_task_MP,2020.1.3,Win32,60,,m,1,0.7803,,,,,,,,0.7803,1,,,,,,218,WORD,UN,33,bucket,SHRINK,m,,,,,,0.0859375,-0.3828125,0,0,0,,0,178,178,157,1,
,,,,,,,,,,,,,,,,,,5da8768c2a921500145c6a0d,2020-08-10_19h29.20.579,lexical_decision_task_MP,2020.1.3,Win32,60,,m,1,0.65053,,,,,,,,0.65053,1,,,,,,188,WORD,UN,33,censor,SOCIAL,m,,,,,,0.0859375,-0.3828125,0,0,0,,0,179,179,127,1,
,,,,,,,,,,,,,,,,,,5da8768c2a921500145c6a0d,2020-08-10_19h29.20.579,lexical_decision_task_MP,2020.1.3,Win32,60,,m,1,0.59118,,,,,,,,0.59118,1,,,,,,162,WORD,"ID",50,candle,CANDLE,m,,,,,,0.0859375,-0.3828125,0,0,0,,0,180,180,101,1,
,,,,,,,,,,,,,,,,,,5da8768c2a921500145c6a0d,2020-08-10_19h29.20.579,lexical_decision_task_MP,2020.1.3,Win32,60,,z,1,0.854745,,,,,,,,0.854745,1,,,,,,282,NW,UN,50,veralf,PORLEX,z,,,,,,0.0859375,-0.3828125,0,0,0,,0,181,181,461,1,
,,,,,,,,,,,,,,,,,,5da8768c2a921500145c6a0d,2020-08-10_19h29.20.579,lexical_decision_task_MP,2020.1.3,Win32,60,,z,1,1.15971,,,,,,,,1.15971,1,,,,,,438,NW,UN,33,limpor,BAITCH,z,,,,,,0.0859375,-0.3828125,0,0,0,,0,182,182,377,1,
,,,,,,,,,,,,,,,,,,5da8768c2a921500145c6a0d,2020-08-10_19h29.20.579,lexical_decision_task_MP,2020.1.3,Win32,60,,m,1,0.7969,,,,,,,,0.7969,1,,,,,,8,WORD,UN,50,hustle,ABRUPT,m,,,,,,0.0859375,-0.3828125,0,0,0,,0,183,183,187,1,
,,,,,,,,,,,,,,,,,,5da8768c2a921500145c6a0d,2020-08-10_19h29.20.579,lexical_decision_task_MP,2020.1.3,Win32,60,,z,1,0.84997,,,,,,,,0.84997,1,,,,,,424,NW,UN,33,frudge,PRAILE,z,,,,,,0.0859375,-0.3828125,0,0,0,,0,184,184,363,1,
,,,,,,,,,,,,,,,,,,5da8768c2a921500145c6a0d,2020-08-10_19h29.20.579,lexical_decision_task_MP,2020.1.3,Win32,60,,m,1,0.744605,,,,,,,,0.744605,1,,,,,,153,WORD,"ID",50,behold,BEHOLD,m,,,,,,0.0859375,-0.3828125,0,0,0,,0,185,185,92,1,
,,,,,,,,,,,,,,,,,,5da8768c2a921500145c6a0d,2020-08-10_19h29.20.579,lexical_decision_task_MP,2020.1.3,Win32,60,,z,1,1.095965,,,,,,,,1.095965,1,,,,,,458,NW,UN,33,hocite,BARCET,z,,,,,,0.0859375,-0.3828125,0,0,0,,0,186,186,397,1,
,,,,,,,,,,,,,,,,,,5da8768c2a921500145c6a0d,2020-08-10_19h29.20.579,lexical_decision_task_MP,2020.1.3,Win32,60,,z,1,1.323525,,,,,,,,1.323525,1,,,,,,436,NW,UN,33,snapel,FRUTAN,z,,,,,,0.0859375,-0.3828125,0,0,0,,0,187,187,375,1,
,,,,,,,,,,,,,,,,,,5da8768c2a921500145c6a0d,2020-08-10_19h29.20.579,lexical_decision_task_MP,2020.1.3,Win32,60,,z,1,0.9213,,,,,,,,0.9213,1,,,,,,250,NW,UN,50,lupict,MILTED,z,,,,,,0.0859375,-0.3828125,0,0,0,,0,188,188,429,1,
,,,,,,,,,,,,,,,,,,5da8768c2a921500145c6a0d,2020-08-10_19h29.20.579,lexical_decision_task_MP,2020.1.3,Win32,60,,z,1,1.128385,,,,,,,,1.128385,1,,,,,,313,NW,"ID",33,paurse,PAURSE,z,,,,,,0.0859375,-0.3828125,0,0,0,,0,189,189,252,1,
,,,,,,,,,,,,,,,,,,5da8768c2a921500145c6a0d,2020-08-10_19h29.20.579,lexical_decision_task_MP,2020.1.3,Win32,60,,z,1,0.86604,,,,,,,,0.86604,1,,,,,,331,NW,"ID",33,gilfew,GILFEW,z,,,,,,0.0859375,-0.3828125,0,0,0,,0,190,190,270,1,
,,,,,,,,,,,,,,,,,,5da8768c2a921500145c6a0d,2020-08-10_19h29.20.579,lexical_decision_task_MP,2020.1.3,Win32,60,,m,1,0.64923,,,,,,,,0.64923,1,,,,,,158,WORD,"ID",50,island,ISLAND,m,,,,,,0.0859375,-0.3828125,0,0,0,,0,191,191,97,1,
,,,,,,,,,,,,,,,,,,5da8768c2a921500145c6a0d,2020-08-10_19h29.20.579,lexical_decision_task_MP,2020.1.3,Win32,60,,z,1,1.38452,,,,,,,,1.38452,1,,,,,,396,NW,"ID",50,flengy,FLENGY,z,,,,,,0.0859375,-0.3828125,0,0,0,,0,192,192,335,1,
,,,,,,,,,,,,,,,,,,5da8768c2a921500145c6a0d,2020-08-10_19h29.20.579,lexical_decision_task_MP,2020.1.3,Win32,60,,m,1,0.85161,,,,,,,,0.85161,1,,,,,,66,WORD,"ID",33,gospel,GOSPEL,m,,,,,,0.0859375,-0.3828125,0,0,0,,0,193,193,5,1,
,,,,,,,,,,,,,,,,,,5da8768c2a921500145c6a0d,2020-08-10_19h29.20.579,lexical_decision_task_MP,2020.1.3,Win32,60,,m,1,0.99785,,,,,,,,0.99785,1,,,,,,26,WORD,UN,50,butler,SPRINT,m,,,,,,0.0859375,-0.3828125,0,0,0,,0,194,194,205,1,
,,,,,,,,,,,,,,,,,,5da8768c2a921500145c6a0d,2020-08-10_19h29.20.579,lexical_decision_task_MP,2020.1.3,Win32,60,,z,1,0.844805,,,,,,,,0.844805,1,,,,,,383,NW,"ID",50,aungre,AUNGRE,z,,,,,,0.0859375,-0.3828125,0,0,0,,0,195,195,322,1,
,,,,,,,,,,,,,,,,,,5da8768c2a921500145c6a0d,2020-08-10_19h29.20.579,lexical_decision_task_MP,2020.1.3,Win32,60,,z,1,0.85295,,,,,,,,0.85295,1,,,,,,326,NW,"ID",33,iguade,IGUADE,z,,,,,,0.0859375,-0.3828125,0,0,0,,0,196,196,265,1,
,,,,,,,,,,,,,,,,,,5da8768c2a921500145c6a0d,2020-08-10_19h29.20.579,lexical_decision_task_MP,2020.1.3,Win32,60,,z,1,0.866665,,,,,,,,0.866665,1,,,,,,306,NW,"ID",33,sounge,SOUNGE,z,,,,,,0.0859375,-0.3828125,0,0,0,,0,197,197,245,1,
,,,,,,,,,,,,,,,,,,5da8768c2a921500145c6a0d,2020-08-10_19h29.20.579,lexical_decision_task_MP,2020.1.3,Win32,60,,m,1,0.725925,,,,,,,,0.725925,1,,,,,,161,WORD,"ID",50,pastor,PASTOR,m,,,,,,0.0859375,-0.3828125,0,0,0,,0,198,198,100,1,
,,,,,,,,,,,,,,,,,,5da8768c2a921500145c6a0d,2020-08-10_19h29.20.579,lexical_decision_task_MP,2020.1.3,Win32,60,,m,1,0.80259,,,,,,,,0.80259,1,,,,,,85,WORD,"ID",33,sprawl,SPRAWL,m,,,,,,0.0859375,-0.3828125,0,0,0,,0,199,199,24,1,
,,,,,,,,,,,,,,,,,,5da8768c2a921500145c6a0d,2020-08-10_19h29.20.579,lexical_decision_task_MP,2020.1.3,Win32,60,,m,1,0.664405,,,,,,,,0.664405,1,,,,,,32,WORD,UN,50,scream,BUCKLE,m,,,,,,0.0859375,-0.3828125,0,0,0,,0,200,200,211,1,
,,,,,,,,,,,,,,,,,,5da8768c2a921500145c6a0d,2020-08-10_19h29.20.579,lexical_decision_task_MP,2020.1.3,Win32,60,,m,1,0.74354,,,,,,,,0.74354,1,,,,,,142,WORD,"ID",50,spruce,SPRUCE,m,,,,,,0.0859375,-0.3828125,0,0,0,,0,201,201,81,1,
,,,,,,,,,,,,,,,,,,5da8768c2a921500145c6a0d,2020-08-10_19h29.20.579,lexical_decision_task_MP,2020.1.3,Win32,60,,z,1,0.72958,,,,,,,,0.72958,1,,,,,,338,NW,"ID",33,wreash,WREASH,z,,,,,,0.0859375,-0.3828125,0,0,0,,0,202,202,277,1,
,,,,,,,,,,,,,,,,,,5da8768c2a921500145c6a0d,2020-08-10_19h29.20.579,lexical_decision_task_MP,2020.1.3,Win32,60,,z,1,0.885285,,,,,,,,0.885285,1,,,,,,365,NW,"ID",50,guairt,GUAIRT,z,,,,,,0.0859375,-0.3828125,0,0,0,,0,203,203,304,1,
,,,,,,,,,,,,,,,,,,5da8768c2a921500145c6a0d,2020-08-10_19h29.20.579,lexical_decision_task_MP,2020.1.3,Win32,60,,z,1,0.99177,,,,,,,,0.99177,1,,,,,,457,NW,UN,33,barcet,WANIGH,z,,,,,,0.0859375,-0.3828125,0,0,0,,0,204,204,396,1,
,,,,,,,,,,,,,,,,,,5da8768c2a921500145c6a0d,2020-08-10_19h29.20.579,lexical_decision_task_MP,2020.1.3,Win32,60,,z,1,1.01529,,,,,,,,1.01529,1,,,,,,448,NW,UN,33,brunge,SADENT,z,,,,,,0.0859375,-0.3828125,0,0,0,,0,205,205,387,1,
,,,,,,,,,,,,,,,,,,5da8768c2a921500145c6a0d,2020-08-10_19h29.20.579,lexical_decision_task_MP,2020.1.3,Win32,60,,m,1,0.66741,,,,,,,,0.66741,1,,,,,,127,WORD,"ID",50,castle,CASTLE,m,,,,,,0.0859375,-0.3828125,0,0,0,,0,206,206,66,1,
,,,,,,,,,,,,,,,,,,5da8768c2a921500145c6a0d,2020-08-10_19h29.20.579,lexical_decision_task_MP,2020.1.3,Win32,60,,z,1,0.670925,,,,,,,,0.670925,1,,,,,,386,NW,"ID",50,ancust,ANCUST,z,,,,,,0.0859375,-0.3828125,0,0,0,,0,207,207,325,1,
,,,,,,,,,,,,,,,,,,5da8768c2a921500145c6a0d,2020-08-10_19h29.20.579,lexical_decision_task_MP,2020.1.3,Win32,60,,m,1,0.59112,,,,,,,,0.59112,1,,,,,,123,WORD,"ID",50,strike,STRIKE,m,,,,,,0.0859375,-0.3828125,0,0,0,,0,208,208,62,1,
,,,,,,,,,,,,,,,,,,5da8768c2a921500145c6a0d,2020-08-10_19h29.20.579,lexical_decision_task_MP,2020.1.3,Win32,60,,m,1,0.739505,,,,,,,,0.739505,1,,,,,,187,WORD,UN,33,social,COURSE,m,,,,,,0.0859375,-0.3828125,0,0,0,,0,209,209,126,1,
,,,,,,,,,,,,,,,,,,5da8768c2a921500145c6a0d,2020-08-10_19h29.20.579,lexical_decision_task_MP,2020.1.3,Win32,60,,m,1,0.92257,,,,,,,,0.92257,1,,,,,,225,WORD,UN,33,casino,VULGAR,m,,,,,,0.0859375,-0.3828125,0,0,0,,0,210,210,164,1,
,,,,,,,,,,,,,,,,,,5da8768c2a921500145c6a0d,2020-08-10_19h29.20.579,lexical_decision_task_MP,2020.1.3,Win32,60,,m,1,1.06735,,,,,,,,1.06735,1,,,,,,111,WORD,"ID",33,induce,INDUCE,m,,,,,,0.0859375,-0.3828125,0,0,0,,0,211,211,50,1,
,,,,,,,,,,,,,,,,,,5da8768c2a921500145c6a0d,2020-08-10_19h29.20.579,lexical_decision_task_MP,2020.1.3,Win32,60,,m,1,0.751905,,,,,,,,0.751905,1,,,,,,206,WORD,UN,33,wreath,TAILOR,m,,,,,,0.0859375,-0.3828125,0,0,0,,0,212,212,145,1,
,,,,,,,,,,,,,,,,,,5da8768c2a921500145c6a0d,2020-08-10_19h29.20.579,lexical_decision_task_MP,2020.1.3,Win32,60,,z,1,0.779195,,,,,,,,0.779195,1,,,,,,480,NW,UN,33,knisma,ROBULY,z,,,,,,0.0859375,-0.3828125,0,0,0,,0,213,213,419,1,
,,,,,,,,,,,,,,,,,,5da8768c2a921500145c6a0d,2020-08-10_19h29.20.579,lexical_decision_task_MP,2020.1.3,Win32,60,,m,1,0.628235,,,,,,,,0.628235,1,,,,,,126,WORD,"ID",50,enough,ENOUGH,m,,,,,,0.0859375,-0.3828125,0,0,0,,0,214,214,65,1,
,,,,,,,,,,,,,,,,,,5da8768c2a921500145c6a0d,2020-08-10_19h29.20.579,lexical_decision_task_MP,2020.1.3,Win32,60,,m,1,0.80804,,,,,,,,0.80804,1,,,,,,141,WORD,"ID",50,orphan,ORPHAN,m,,,,,,0.0859375,-0.3828125,0,0,0,,0,215,215,80,1,
,,,,,,,,,,,,,,,,,,5da8768c2a921500145c6a0d,2020-08-10_19h29.20.579,lexical_decision_task_MP,2020.1.3,Win32,60,,m,1,0.583875,,,,,,,,0.583875,1,,,,,,154,WORD,"ID",50,author,AUTHOR,m,,,,,,0.0859375,-0.3828125,0,0,0,,0,216,216,93,1,
,,,,,,,,,,,,,,,,,,5da8768c2a921500145c6a0d,2020-08-10_19h29.20.579,lexical_decision_task_MP,2020.1.3,Win32,60,,z,1,0.736515,,,,,,,,0.736515,1,,,,,,382,NW,"ID",50,sarley,SARLEY,z,,,,,,0.0859375,-0.3828125,0,0,0,,0,217,217,321,1,
,,,,,,,,,,,,,,,,,,5da8768c2a921500145c6a0d,2020-08-10_19h29.20.579,lexical_decision_task_MP,2020.1.3,Win32,60,,z,1,0.85474,,,,,,,,0.85474,1,,,,,,419,NW,"ID",50,slount,SLOUNT,z,,,,,,0.0859375,-0.3828125,0,0,0,,0,218,218,358,1,
,,,,,,,,,,,,,,,,,,5da8768c2a921500145c6a0d,2020-08-10_19h29.20.579,lexical_decision_task_MP,2020.1.3,Win32,60,,m,1,0.694455,,,,,,,,0.694455,1,,,,,,135,WORD,"ID",50,import,IMPORT,m,,,,,,0.0859375,-0.3828125,0,0,0,,0,219,219,74,1,
,,,,,,,,,,,,,,,,,,5da8768c2a921500145c6a0d,2020-08-10_19h29.20.579,lexical_decision_task_MP,2020.1.3,Win32,60,,z,1,0.79285,,,,,,,,0.79285,1,,,,,,320,NW,"ID",33,jockal,JOCKAL,z,,,,,,0.0859375,-0.3828125,0,0,0,,0,220,220,259,1,
,,,,,,,,,,,,,,,,,,5da8768c2a921500145c6a0d,2020-08-10_19h29.20.579,lexical_decision_task_MP,2020.1.3,Win32,60,,z,1,0.875025,,,,,,,,0.875025,1,,,,,,372,NW,"ID",50,ramily,RAMILY,z,,,,,,0.0859375,-0.3828125,0,0,0,,0,221,221,311,1,
,,,,,,,,,,,,,,,,,,5da8768c2a921500145c6a0d,2020-08-10_19h29.20.579,lexical_decision_task_MP,2020.1.3,Win32,60,,m,1,0.79317,,,,,,,,0.79317,1,,,,,,18,WORD,UN,50,patron,HUMBLE,m,,,,,,0.0859375,-0.3828125,0,0,0,,0,222,222,197,1,
,,,,,,,,,,,,,,,,,,5da8768c2a921500145c6a0d,2020-08-10_19h29.20.579,lexical_decision_task_MP,2020.1.3,Win32,60,,z,1,0.964235,,,,,,,,0.964235,1,,,,,,262,NW,UN,50,dolica,QUILEW,z,,,,,,0.0859375,-0.3828125,0,0,0,,0,223,223,441,1,
,,,,,,,,,,,,,,,,,,5da8768c2a921500145c6a0d,2020-08-10_19h29.20.579,lexical_decision_task_MP,2020.1.3,Win32,60,,z,1,0.81178,,,,,,,,0.81178,1,,,,,,381,NW,"ID",50,huniek,HUNIEK,z,,,,,,0.0859375,-0.3828125,0,0,0,,0,224,224,320,1,
,,,,,,,,,,,,,,,,,,5da8768c2a921500145c6a0d,2020-08-10_19h29.20.579,lexical_decision_task_MP,2020.1.3,Win32,60,,m,1,0.72847,,,,,,,,0.72847,1,,,,,,205,WORD,UN,33,tailor,LOUNGE,m,,,,,,0.0859375,-0.3828125,0,0,0,,0,225,225,144,1,
,,,,,,,,,,,,,,,,,,5da8768c2a921500145c6a0d,2020-08-10_19h29.20.579,lexical_decision_task_MP,2020.1.3,Win32,60,,z,1,0.711545,,,,,,,,0.711545,1,,,,,,404,NW,"ID",50,cluirm,CLUIRM,z,,,,,,0.0859375,-0.3828125,0,0,0,,0,226,226,343,1,
,,,,,,,,,,,,,,,,,,5da8768c2a921500145c6a0d,2020-08-10_19h29.20.579,lexical_decision_task_MP,2020.1.3,Win32,60,,m,1,0.654765,,,,,,,,0.654765,1,,,,,,50,WORD,UN,50,hungry,SNATCH,m,,,,,,0.0859375,-0.3828125,0,0,0,,0,227,227,229,1,
,,,,,,,,,,,,,,,,,,5da8768c2a921500145c6a0d,2020-08-10_19h29.20.579,lexical_decision_task_MP,2020.1.3,Win32,60,,m,1,0.84293,,,,,,,,0.84293,1,,,,,,232,WORD,UN,33,nature,INJECT,m,,,,,,0.0859375,-0.3828125,0,0,0,,0,228,228,171,1,
,,,,,,,,,,,,,,,,,,5da8768c2a921500145c6a0d,2020-08-10_19h29.20.579,lexical_decision_task_MP,2020.1.3,Win32,60,,m,1,0.90462,,,,,,,,0.90462,1,,,,,,184,WORD,UN,33,bother,SLEAZY,m,,,,,,0.0859375,-0.3828125,0,0,0,,0,229,229,123,1,
,,,,,,,,,,,,,,,,,,5da8768c2a921500145c6a0d,2020-08-10_19h29.20.579,lexical_decision_task_MP,2020.1.3,Win32,60,,z,1,0.930815,,,,,,,,0.930815,1,,,,,,291,NW,UN,50,ablint,PRETCH,z,,,,,,0.0859375,-0.3828125,0,0,0,,0,230,230,470,1,
,,,,,,,,,,,,,,,,,,5da8768c2a921500145c6a0d,2020-08-10_19h29.20.579,lexical_decision_task_MP,2020.1.3,Win32,60,,z,1,0.83873,,,,,,,,0.83873,1,,,,,,468,NW,UN,33,padifs,WICTOR,z,,,,,,0.0859375,-0.3828125,0,0,0,,0,231,231,407,1,
,,,,,,,,,,,,,,,,,,5da8768c2a921500145c6a0d,2020-08-10_19h29.20.579,lexical_decision_task_MP,2020.1.3,Win32,60,,z,1,1.42612,,,,,,,,1.42612,1,,,,,,293,NW,UN,50,inhort,SWANCE,z,,,,,,0.0859375,-0.3828125,0,0,0,,0,232,232,472,1,
,,,,,,,,,,,,,,,,,,5da8768c2a921500145c6a0d,2020-08-10_19h29.20.579,lexical_decision_task_MP,2020.1.3,Win32,60,,m,0,0.92863,,,,,,,,0.92863,0,,,,,,244,NW,UN,50,anougs,EATRIC,z,,,,,,0.0859375,-0.3828125,0,0,0,,0,233,233,423,1,
,,,,,,,,,,,,,,,,,,5da8768c2a921500145c6a0d,2020-08-10_19h29.20.579,lexical_decision_task_MP,2020.1.3,Win32,60,,z,1,0.91479,,,,,,,,0.91479,1,,,,,,473,NW,UN,33,hablin,CRIBLE,z,,,,,,0.0859375,-0.3828125,0,0,0,,0,234,234,412,1,
,,,,,,,,,,,,,,,,,,5da8768c2a921500145c6a0d,2020-08-10_19h29.20.579,lexical_decision_task_MP,2020.1.3,Win32,60,,m,1,0.74112,,,,,,,,0.74112,1,,,,,,75,WORD,"ID",33,trophy,TROPHY,m,,,,,,0.0859375,-0.3828125,0,0,0,,0,235,235,14,1,
,,,,,,,,,,,,,,,,,,5da8768c2a921500145c6a0d,2020-08-10_19h29.20.579,lexical_decision_task_MP,2020.1.3,Win32,60,,z,1,0.863025,,,,,,,,0.863025,1,,,,,,439,NW,UN,33,saride,LIMPOR,z,,,,,,0.0859375,-0.3828125,0,0,0,,0,236,236,378,1,
,,,,,,,,,,,,,,,,,,5da8768c2a921500145c6a0d,2020-08-10_19h29.20.579,lexical_decision_task_MP,2020.1.3,Win32,60,,m,1,0.60339,,,,,,,,0.60339,1,,,,,,234,WORD,UN,33,poster,CLUMSY,m,,,,,,0.0859375,-0.3828125,0,0,0,,0,237,237,173,1,
,,,,,,,,,,,,,,,,,,5da8768c2a921500145c6a0d,2020-08-10_19h29.20.579,lexical_decision_task_MP,2020.1.3,Win32,60,,m,1,0.580765,,,,,,,,0.580765,1,,,,,,55,WORD,UN,50,ambush,STROKE,m,,,,,,0.0859375,-0.3828125,0,0,0,,0,238,238,234,1,
,,,,,,,,,,,,,,,,,,5da8768c2a921500145c6a0d,2020-08-10_19h29.20.579,lexical_decision_task_MP,2020.1.3,Win32,60,,m,1,0.921465,,,,,,,,0.921465,1,,,,,,145,WORD,"ID",50,parish,PARISH,m,,,,,,0.0859375,-0.3828125,0,0,0,,0,239,239,84,1,
,,,,,,,,,,,,,,,,,,5da8768c2a921500145c6a0d,2020-08-10_19h29.20.579,lexical_decision_task_MP,2020.1.3,Win32,60,,m,1,0.6584,,,,,,,,0.6584,1,,,,,,238,WORD,UN,33,behalf,FLOWER,m,,,,,,0.0859375,-0.3828125,0,0,0,,0,240,240,177,1,
,,,,,,,,,,,,,,,,,,5da8768c2a921500145c6a0d,2020-08-10_19h29.20.579,lexical_decision_task_MP,2020.1.3,Win32,60,,m,1,0.58574,,,,,,,,0.58574,1,,,,,,121,WORD,"ID",50,thrive,THRIVE,m,,,,,,0.0859375,-0.3828125,0,0,0,space,0,241,241,60,1,2.892445
,,,,,,,,,,,,,,,,,,5da8768c2a921500145c6a0d,2020-08-10_19h29.20.579,lexical_decision_task_MP,2020.1.3,Win32,60,,z,1,0.66493,,,,,,,,0.66493,1,,,,,,403,NW,"ID",50,bruats,BRUATS,z,,,,,,0.0859375,-0.3828125,0,0,0,,0,242,242,342,1,
,,,,,,,,,,,,,,,,,,5da8768c2a921500145c6a0d,2020-08-10_19h29.20.579,lexical_decision_task_MP,2020.1.3,Win32,60,,z,1,0.70577,,,,,,,,0.70577,1,,,,,,394,NW,"ID",50,spaqux,SPAQUX,z,,,,,,0.0859375,-0.3828125,0,0,0,,0,243,243,333,1,
,,,,,,,,,,,,,,,,,,5da8768c2a921500145c6a0d,2020-08-10_19h29.20.579,lexical_decision_task_MP,2020.1.3,Win32,60,,z,1,0.8518,,,,,,,,0.8518,1,,,,,,426,NW,UN,33,schind,URIVEL,z,,,,,,0.0859375,-0.3828125,0,0,0,,0,244,244,365,1,
,,,,,,,,,,,,,,,,,,5da8768c2a921500145c6a0d,2020-08-10_19h29.20.579,lexical_decision_task_MP,2020.1.3,Win32,60,,z,1,0.590695,,,,,,,,0.590695,1,,,,,,379,NW,"ID",50,auting,AUTING,z,,,,,,0.0859375,-0.3828125,0,0,0,,0,245,245,318,1,
,,,,,,,,,,,,,,,,,,5da8768c2a921500145c6a0d,2020-08-10_19h29.20.579,lexical_decision_task_MP,2020.1.3,Win32,60,,z,1,0.655845,,,,,,,,0.655845,1,,,,,,301,NW,"ID",33,fainch,FAINCH,z,,,,,,0.0859375,-0.3828125,0,0,0,,0,246,246,240,1,
,,,,,,,,,,,,,,,,,,5da8768c2a921500145c6a0d,2020-08-10_19h29.20.579,lexical_decision_task_MP,2020.1.3,Win32,60,,m,1,0.679835,,,,,,,,0.679835,1,,,,,,64,WORD,"ID",33,throne,THRONE,m,,,,,,0.0859375,-0.3828125,0,0,0,,0,247,247,3,1,
,,,,,,,,,,,,,,,,,,5da8768c2a921500145c6a0d,2020-08-10_19h29.20.579,lexical_decision_task_MP,2020.1.3,Win32,60,,m,1,0.79907,,,,,,,,0.79907,1,,,,,,122,WORD,"ID",50,linger,LINGER,m,,,,,,0.0859375,-0.3828125,0,0,0,,0,248,248,61,1,
,,,,,,,,,,,,,,,,,,5da8768c2a921500145c6a0d,2020-08-10_19h29.20.579,lexical_decision_task_MP,2020.1.3,Win32,60,,m,1,0.71809,,,,,,,,0.71809,1,,,,,,134,WORD,"ID",50,staple,STAPLE,m,,,,,,0.0859375,-0.3828125,0,0,0,,0,249,249,73,1,
,,,,,,,,,,,,,,,,,,5da8768c2a921500145c6a0d,2020-08-10_19h29.20.579,lexical_decision_task_MP,2020.1.3,Win32,60,,z,1,0.81914,,,,,,,,0.81914,1,,,,,,319,NW,"ID",33,zomber,ZOMBER,z,,,,,,0.0859375,-0.3828125,0,0,0,,0,250,250,258,1,
,,,,,,,,,,,,,,,,,,5da8768c2a921500145c6a0d,2020-08-10_19h29.20.579,lexical_decision_task_MP,2020.1.3,Win32,60,,z,1,0.61764,,,,,,,,0.61764,1,,,,,,388,NW,"ID",50,cragin,CRAGIN,z,,,,,,0.0859375,-0.3828125,0,0,0,,0,251,251,327,1,
,,,,,,,,,,,,,,,,,,5da8768c2a921500145c6a0d,2020-08-10_19h29.20.579,lexical_decision_task_MP,2020.1.3,Win32,60,,z,1,1.17975,,,,,,,,1.17975,1,,,,,,471,NW,UN,33,cigney,NOBEST,z,,,,,,0.0859375,-0.3828125,0,0,0,,0,252,252,410,1,
,,,,,,,,,,,,,,,,,,5da8768c2a921500145c6a0d,2020-08-10_19h29.20.579,lexical_decision_task_MP,2020.1.3,Win32,60,,z,1,0.724005,,,,,,,,0.724005,1,,,,,,255,NW,UN,50,inlors,APIGHT,z,,,,,,0.0859375,-0.3828125,0,0,0,,0,253,253,434,1,
,,,,,,,,,,,,,,,,,,5da8768c2a921500145c6a0d,2020-08-10_19h29.20.579,lexical_decision_task_MP,2020.1.3,Win32,60,,m,1,0.65014,,,,,,,,0.65014,1,,,,,,165,WORD,"ID",50,invest,INVEST,m,,,,,,0.0859375,-0.3828125,0,0,0,,0,254,254,104,1,
,,,,,,,,,,,,,,,,,,5da8768c2a921500145c6a0d,2020-08-10_19h29.20.579,lexical_decision_task_MP,2020.1.3,Win32,60,,z,1,1.26702,,,,,,,,1.26702,1,,,,,,397,NW,"ID",50,camble,CAMBLE,z,,,,,,0.0859375,-0.3828125,0,0,0,,0,255,255,336,1,
,,,,,,,,,,,,,,,,,,5da8768c2a921500145c6a0d,2020-08-10_19h29.20.579,lexical_decision_task_MP,2020.1.3,Win32,60,,m,1,0.65178,,,,,,,,0.65178,1,,,,,,210,WORD,UN,33,infect,MONKEY,m,,,,,,0.0859375,-0.3828125,0,0,0,,0,256,256,149,1,
,,,,,,,,,,,,,,,,,,5da8768c2a921500145c6a0d,2020-08-10_19h29.20.579,lexical_decision_task_MP,2020.1.3,Win32,60,,z,1,0.72454,,,,,,,,0.72454,1,,,,,,289,NW,UN,50,splino,STARBY,z,,,,,,0.0859375,-0.3828125,0,0,0,,0,257,257,468,1,
,,,,,,,,,,,,,,,,,,5da8768c2a921500145c6a0d,2020-08-10_19h29.20.579,lexical_decision_task_MP,2020.1.3,Win32,60,,z,1,0.99814,,,,,,,,0.99814,1,,,,,,431,NW,UN,33,lunker,CHRUMS,z,,,,,,0.0859375,-0.3828125,0,0,0,,0,258,258,370,1,
,,,,,,,,,,,,,,,,,,5da8768c2a921500145c6a0d,2020-08-10_19h29.20.579,lexical_decision_task_MP,2020.1.3,Win32,60,,z,1,0.85633,,,,,,,,0.85633,1,,,,,,339,NW,"ID",33,fachow,FACHOW,z,,,,,,0.0859375,-0.3828125,0,0,0,,0,259,259,278,1,
,,,,,,,,,,,,,,,,,,5da8768c2a921500145c6a0d,2020-08-10_19h29.20.579,lexical_decision_task_MP,2020.1.3,Win32,60,,z,1,0.600575,,,,,,,,0.600575,1,,,,,,453,NW,UN,33,scouge,BOLVIS,z,,,,,,0.0859375,-0.3828125,0,0,0,,0,260,260,392,1,
,,,,,,,,,,,,,,,,,,5da8768c2a921500145c6a0d,2020-08-10_19h29.20.579,lexical_decision_task_MP,2020.1.3,Win32,60,,m,1,0.729025,,,,,,,,0.729025,1,,,,,,67,WORD,"ID",33,policy,POLICY,m,,,,,,0.0859375,-0.3828125,0,0,0,,0,261,261,6,1,
,,,,,,,,,,,,,,,,,,5da8768c2a921500145c6a0d,2020-08-10_19h29.20.579,lexical_decision_task_MP,2020.1.3,Win32,60,,m,1,0.789935,,,,,,,,0.789935,1,,,,,,101,WORD,"ID",33,wrench,WRENCH,m,,,,,,0.0859375,-0.3828125,0,0,0,,0,262,262,40,1,
,,,,,,,,,,,,,,,,,,5da8768c2a921500145c6a0d,2020-08-10_19h29.20.579,lexical_decision_task_MP,2020.1.3,Win32,60,,m,1,0.8498,,,,,,,,0.8498,1,,,,,,40,WORD,UN,50,spring,CONVEY,m,,,,,,0.0859375,-0.3828125,0,0,0,,0,263,263,219,1,
,,,,,,,,,,,,,,,,,,5da8768c2a921500145c6a0d,2020-08-10_19h29.20.579,lexical_decision_task_MP,2020.1.3,Win32,60,,m,1,0.648465,,,,,,,,0.648465,1,,,,,,193,WORD,UN,33,mildew,OBJECT,m,,,,,,0.0859375,-0.3828125,0,0,0,,0,264,264,132,1,
,,,,,,,,,,,,,,,,,,5da8768c2a921500145c6a0d,2020-08-10_19h29.20.579,lexical_decision_task_MP,2020.1.3,Win32,60,,z,1,0.6578,,,,,,,,0.6578,1,,,,,,479,NW,UN,33,crible,LOBUSH,z,,,,,,0.0859375,-0.3828125,0,0,0,,0,265,265,418,1,
,,,,,,,,,,,,,,,,,,5da8768c2a921500145c6a0d,2020-08-10_19h29.20.579,lexical_decision_task_MP,2020.1.3,Win32,60,,m,1,1.01147,,,,,,,,1.01147,1,,,,,,68,WORD,"ID",33,fumble,FUMBLE,m,,,,,,0.0859375,-0.3828125,0,0,0,,0,266,266,7,1,
,,,,,,,,,,,,,,,,,,5da8768c2a921500145c6a0d,2020-08-10_19h29.20.579,lexical_decision_task_MP,2020.1.3,Win32,60,,m,1,0.792355,,,,,,,,0.792355,1,,,,,,237,WORD,UN,33,glance,POSTER,m,,,,,,0.0859375,-0.3828125,0,0,0,,0,267,267,176,1,
,,,,,,,,,,,,,,,,,,5da8768c2a921500145c6a0d,2020-08-10_19h29.20.579,lexical_decision_task_MP,2020.1.3,Win32,60,,z,0,0.721515,,,,,,,,0.721515,0,,,,,,63,WORD,"ID",33,launch,LAUNCH,m,,,,,,0.0859375,-0.3828125,0,0,0,,0,268,268,2,1,
,,,,,,,,,,,,,,,,,,5da8768c2a921500145c6a0d,2020-08-10_19h29.20.579,lexical_decision_task_MP,2020.1.3,Win32,60,,z,1,0.790375,,,,,,,,0.790375,1,,,,,,340,NW,"ID",33,fiatch,FIATCH,z,,,,,,0.0859375,-0.3828125,0,0,0,,0,269,269,279,1,
,,,,,,,,,,,,,,,,,,5da8768c2a921500145c6a0d,2020-08-10_19h29.20.579,lexical_decision_task_MP,2020.1.3,Win32,60,,m,1,0.59984,,,,,,,,0.59984,1,,,,,,104,WORD,"ID",33,studio,STUDIO,m,,,,,,0.0859375,-0.3828125,0,0,0,,0,270,270,43,1,
,,,,,,,,,,,,,,,,,,5da8768c2a921500145c6a0d,2020-08-10_19h29.20.579,lexical_decision_task_MP,2020.1.3,Win32,60,,z,1,1.31154,,,,,,,,1.31154,1,,,,,,285,NW,UN,50,reldon,PRUDGE,z,,,,,,0.0859375,-0.3828125,0,0,0,,0,271,271,464,1,
,,,,,,,,,,,,,,,,,,5da8768c2a921500145c6a0d,2020-08-10_19h29.20.579,lexical_decision_task_MP,2020.1.3,Win32,60,,m,1,0.809225,,,,,,,,0.809225,1,,,,,,106,WORD,"ID",33,ransom,RANSOM,m,,,,,,0.0859375,-0.3828125,0,0,0,,0,272,272,45,1,
,,,,,,,,,,,,,,,,,,5da8768c2a921500145c6a0d,2020-08-10_19h29.20.579,lexical_decision_task_MP,2020.1.3,Win32,60,,m,1,0.65338,,,,,,,,0.65338,1,,,,,,54,WORD,UN,50,stroke,RAMBLE,m,,,,,,0.0859375,-0.3828125,0,0,0,,0,273,273,233,1,
,,,,,,,,,,,,,,,,,,5da8768c2a921500145c6a0d,2020-08-10_19h29.20.579,lexical_decision_task_MP,2020.1.3,Win32,60,,m,1,0.54581,,,,,,,,0.54581,1,,,,,,88,WORD,"ID",33,hunger,HUNGER,m,,,,,,0.0859375,-0.3828125,0,0,0,,0,274,274,27,1,
,,,,,,,,,,,,,,,,,,5da8768c2a921500145c6a0d,2020-08-10_19h29.20.579,lexical_decision_task_MP,2020.1.3,Win32,60,,m,1,0.62022,,,,,,,,0.62022,1,,,,,,44,WORD,UN,50,clergy,DANGER,m,,,,,,0.0859375,-0.3828125,0,0,0,,0,275,275,223,1,
,,,,,,,,,,,,,,,,,,5da8768c2a921500145c6a0d,2020-08-10_19h29.20.579,lexical_decision_task_MP,2020.1.3,Win32,60,,m,1,0.72152,,,,,,,,0.72152,1,,,,,,217,WORD,UN,33,shrink,LIQUOR,m,,,,,,0.0859375,-0.3828125,0,0,0,,0,276,276,156,1,
,,,,,,,,,,,,,,,,,,5da8768c2a921500145c6a0d,2020-08-10_19h29.20.579,lexical_decision_task_MP,2020.1.3,Win32,60,,z,1,0.73503,,,,,,,,0.73503,1,,,,,,298,NW,UN,50,sturch,PIERGY,z,,,,,,0.0859375,-0.3828125,0,0,0,,0,277,277,477,1,
,,,,,,,,,,,,,,,,,,5da8768c2a921500145c6a0d,2020-08-10_19h29.20.579,lexical_decision_task_MP,2020.1.3,Win32,60,,m,1,0.67632,,,,,,,,0.67632,1,,,,,,192,WORD,UN,33,object,PLAGUE,m,,,,,,0.0859375,-0.3828125,0,0,0,,0,278,278,131,1,
,,,,,,,,,,,,,,,,,,5da8768c2a921500145c6a0d,2020-08-10_19h29.20.579,lexical_decision_task_MP,2020.1.3,Win32,60,,z,1,0.79924,,,,,,,,0.79924,1,,,,,,464,NW,UN,33,whivex,CHAITE,z,,,,,,0.0859375,-0.3828125,0,0,0,,0,279,279,403,1,
,,,,,,,,,,,,,,,,,,5da8768c2a921500145c6a0d,2020-08-10_19h29.20.579,lexical_decision_task_MP,2020.1.3,Win32,60,,z,1,0.737155,,,,,,,,0.737155,1,,,,,,334,NW,"ID",33,watmeg,WATMEG,z,,,,,,0.0859375,-0.3828125,0,0,0,,0,280,280,273,1,
,,,,,,,,,,,,,,,,,,5da8768c2a921500145c6a0d,2020-08-10_19h29.20.579,lexical_decision_task_MP,2020.1.3,Win32,60,,m,1,0.601635,,,,,,,,0.601635,1,,,,,,100,WORD,"ID",33,carbon,CARBON,m,,,,,,0.0859375,-0.3828125,0,0,0,,0,281,281,39,1,
,,,,,,,,,,,,,,,,,,5da8768c2a921500145c6a0d,2020-08-10_19h29.20.579,lexical_decision_task_MP,2020.1.3,Win32,60,,z,1,0.66041,,,,,,,,0.66041,1,,,,,,410,NW,"ID",50,tunory,TUNORY,z,,,,,,0.0859375,-0.3828125,0,0,0,,0,282,282,349,1,
,,,,,,,,,,,,,,,,,,5da8768c2a921500145c6a0d,2020-08-10_19h29.20.579,lexical_decision_task_MP,2020.1.3,Win32,60,,m,1,0.71176,,,,,,,,0.71176,1,,,,,,150,WORD,"ID",50,random,RANDOM,m,,,,,,0.0859375,-0.3828125,0,0,0,,0,283,283,89,1,
,,,,,,,,,,,,,,,,,,5da8768c2a921500145c6a0d,2020-08-10_19h29.20.579,lexical_decision_task_MP,2020.1.3,Win32,60,,m,1,0.779925,,,,,,,,0.779925,1,,,,,,138,WORD,"ID",50,melody,MELODY,m,,,,,,0.0859375,-0.3828125,0,0,0,,0,284,284,77,1,
,,,,,,,,,,,,,,,,,,5da8768c2a921500145c6a0d,2020-08-10_19h29.20.579,lexical_decision_task_MP,2020.1.3,Win32,60,,z,1,1.042905,,,,,,,,1.042905,1,,,,,,284,NW,UN,50,prudge,SHAPLE,z,,,,,,0.0859375,-0.3828125,0,0,0,,0,285,285,463,1,
,,,,,,,,,,,,,,,,,,5da8768c2a921500145c6a0d,2020-08-10_19h29.20.579,lexical_decision_task_MP,2020.1.3,Win32,60,,m,0,1.581355,,,,,,,,1.581355,0,,,,,,248,NW,UN,50,batrol,STROLE,z,,,,,,0.0859375,-0.3828125,0,0,0,,0,286,286,427,1,
,,,,,,,,,,,,,,,,,,5da8768c2a921500145c6a0d,2020-08-10_19h29.20.579,lexical_decision_task_MP,2020.1.3,Win32,60,,m,1,0.601385,,,,,,,,0.601385,1,,,,,,80,WORD,"ID",33,family,FAMILY,m,,,,,,0.0859375,-0.3828125,0,0,0,,0,287,287,19,1,
,,,,,,,,,,,,,,,,,,5da8768c2a921500145c6a0d,2020-08-10_19h29.20.579,lexical_decision_task_MP,2020.1.3,Win32,60,,m,1,0.907225,,,,,,,,0.907225,1,,,,,,77,WORD,"ID",33,racket,RACKET,m,,,,,,0.0859375,-0.3828125,0,0,0,,0,288,288,16,1,
,,,,,,,,,,,,,,,,,,5da8768c2a921500145c6a0d,2020-08-10_19h29.20.579,lexical_decision_task_MP,2020.1.3,Win32,60,,m,1,0.59606,,,,,,,,0.59606,1,,,,,,132,WORD,"ID",50,strong,STRONG,m,,,,,,0.0859375,-0.3828125,0,0,0,,0,289,289,71,1,
,,,,,,,,,,,,,,,,,,5da8768c2a921500145c6a0d,2020-08-10_19h29.20.579,lexical_decision_task_MP,2020.1.3,Win32,60,,z,1,0.64706,,,,,,,,0.64706,1,,,,,,295,NW,UN,50,beinch,GLEATH,z,,,,,,0.0859375,-0.3828125,0,0,0,,0,290,290,474,1,
,,,,,,,,,,,,,,,,,,5da8768c2a921500145c6a0d,2020-08-10_19h29.20.579,lexical_decision_task_MP,2020.1.3,Win32,60,,m,1,0.6657,,,,,,,,0.6657,1,,,,,,137,WORD,"ID",50,finger,FINGER,m,,,,,,0.0859375,-0.3828125,0,0,0,,0,291,291,76,1,
,,,,,,,,,,,,,,,,,,5da8768c2a921500145c6a0d,2020-08-10_19h29.20.579,lexical_decision_task_MP,2020.1.3,Win32,60,,z,1,0.71961,,,,,,,,0.71961,1,,,,,,375,NW,"ID",50,yorque,YORQUE,z,,,,,,0.0859375,-0.3828125,0,0,0,,0,292,292,314,1,
,,,,,,,,,,,,,,,,,,5da8768c2a921500145c6a0d,2020-08-10_19h29.20.579,lexical_decision_task_MP,2020.1.3,Win32,60,,m,1,0.785365,,,,,,,,0.785365,1,,,,,,70,WORD,"ID",33,square,SQUARE,m,,,,,,0.0859375,-0.3828125,0,0,0,,0,293,293,9,1,
,,,,,,,,,,,,,,,,,,5da8768c2a921500145c6a0d,2020-08-10_19h29.20.579,lexical_decision_task_MP,2020.1.3,Win32,60,,z,1,0.72,,,,,,,,0.72,1,,,,,,478,NW,UN,33,pebric,ACRISE,z,,,,,,0.0859375,-0.3828125,0,0,0,,0,294,294,417,1,
,,,,,,,,,,,,,,,,,,5da8768c2a921500145c6a0d,2020-08-10_19h29.20.579,lexical_decision_task_MP,2020.1.3,Win32,60,,m,1,0.669805,,,,,,,,0.669805,1,,,,,,152,WORD,"ID",50,rocket,ROCKET,m,,,,,,0.0859375,-0.3828125,0,0,0,,0,295,295,91,1,
,,,,,,,,,,,,,,,,,,5da8768c2a921500145c6a0d,2020-08-10_19h29.20.579,lexical_decision_task_MP,2020.1.3,Win32,60,,m,1,0.812715,,,,,,,,0.812715,1,,,,,,215,WORD,UN,33,lumber,PHOBIA,m,,,,,,0.0859375,-0.3828125,0,0,0,,0,296,296,154,1,
,,,,,,,,,,,,,,,,,,5da8768c2a921500145c6a0d,2020-08-10_19h29.20.579,lexical_decision_task_MP,2020.1.3,Win32,60,,z,1,0.594025,,,,,,,,0.594025,1,,,,,,466,NW,UN,33,robuly,HOCITE,z,,,,,,0.0859375,-0.3828125,0,0,0,,0,297,297,405,1,
,,,,,,,,,,,,,,,,,,5da8768c2a921500145c6a0d,2020-08-10_19h29.20.579,lexical_decision_task_MP,2020.1.3,Win32,60,,z,1,0.831685,,,,,,,,0.831685,1,,,,,,314,NW,"ID",33,sprine,SPRINE,z,,,,,,0.0859375,-0.3828125,0,0,0,,0,298,298,253,1,
,,,,,,,,,,,,,,,,,,5da8768c2a921500145c6a0d,2020-08-10_19h29.20.579,lexical_decision_task_MP,2020.1.3,Win32,60,,z,1,0.59321,,,,,,,,0.59321,1,,,,,,447,NW,UN,33,sadent,GIRCUE,z,,,,,,0.0859375,-0.3828125,0,0,0,,0,299,299,386,1,
,,,,,,,,,,,,,,,,,,5da8768c2a921500145c6a0d,2020-08-10_19h29.20.579,lexical_decision_task_MP,2020.1.3,Win32,60,,z,1,0.710665,,,,,,,,0.710665,1,,,,,,242,NW,UN,50,musied,UNWERT,z,,,,,,0.0859375,-0.3828125,0,0,0,,0,300,300,421,1,
,,,,,,,,,,,,,,,,,,5da8768c2a921500145c6a0d,2020-08-10_19h29.20.579,lexical_decision_task_MP,2020.1.3,Win32,60,,m,1,0.67779,,,,,,,,0.67779,1,,,,,,79,WORD,"ID",33,theory,THEORY,m,,,,,,0.0859375,-0.3828125,0,0,0,,0,301,301,18,1,
,,,,,,,,,,,,,,,,,,5da8768c2a921500145c6a0d,2020-08-10_19h29.20.579,lexical_decision_task_MP,2020.1.3,Win32,60,,m,1,0.657875,,,,,,,,0.657875,1,,,,,,124,WORD,"ID",50,blouse,BLOUSE,m,,,,,,0.0859375,-0.3828125,0,0,0,,0,302,302,63,1,
,,,,,,,,,,,,,,,,,,5da8768c2a921500145c6a0d,2020-08-10_19h29.20.579,lexical_decision_task_MP,2020.1.3,Win32,60,,z,1,0.59387,,,,,,,,0.59387,1,,,,,,422,NW,UN,33,streld,ALCOUD,z,,,,,,0.0859375,-0.3828125,0,0,0,,0,303,303,361,1,
,,,,,,,,,,,,,,,,,,5da8768c2a921500145c6a0d,2020-08-10_19h29.20.579,lexical_decision_task_MP,2020.1.3,Win32,60,,z,1,0.809865,,,,,,,,0.809865,1,,,,,,389,NW,"ID",50,witmer,WITMER,z,,,,,,0.0859375,-0.3828125,0,0,0,,0,304,304,328,1,
,,,,,,,,,,,,,,,,,,5da8768c2a921500145c6a0d,2020-08-10_19h29.20.579,lexical_decision_task_MP,2020.1.3,Win32,60,,z,1,0.657835,,,,,,,,0.657835,1,,,,,,406,NW,"ID",50,nouply,NOUPLY,z,,,,,,0.0859375,-0.3828125,0,0,0,,0,305,305,345,1,
,,,,,,,,,,,,,,,,,,5da8768c2a921500145c6a0d,2020-08-10_19h29.20.579,lexical_decision_task_MP,2020.1.3,Win32,60,,z,1,0.71734,,,,,,,,0.71734,1,,,,,,476,NW,UN,33,photie,JOSTED,z,,,,,,0.0859375,-0.3828125,0,0,0,,0,306,306,415,1,
,,,,,,,,,,,,,,,,,,5da8768c2a921500145c6a0d,2020-08-10_19h29.20.579,lexical_decision_task_MP,2020.1.3,Win32,60,,z,1,0.744355,,,,,,,,0.744355,1,,,,,,328,NW,"ID",33,broake,BROAKE,z,,,,,,0.0859375,-0.3828125,0,0,0,,0,307,307,267,1,
,,,,,,,,,,,,,,,,,,5da8768c2a921500145c6a0d,2020-08-10_19h29.20.579,lexical_decision_task_MP,2020.1.3,Win32,60,,m,1,0.98953,,,,,,,,0.98953,1,,,,,,19,WORD,UN,50,breast,PATRON,m,,,,,,0.0859375,-0.3828125,0,0,0,,0,308,308,198,1,
,,,,,,,,,,,,,,,,,,5da8768c2a921500145c6a0d,2020-08-10_19h29.20.579,lexical_decision_task_MP,2020.1.3,Win32,60,,m,1,0.651545,,,,,,,,0.651545,1,,,,,,21,WORD,UN,50,jockey,SIMPLE,m,,,,,,0.0859375,-0.3828125,0,0,0,,0,309,309,200,1,
,,,,,,,,,,,,,,,,,,5da8768c2a921500145c6a0d,2020-08-10_19h29.20.579,lexical_decision_task_MP,2020.1.3,Win32,60,,m,1,0.578715,,,,,,,,0.578715,1,,,,,,235,WORD,UN,33,pirate,GRUMPY,m,,,,,,0.0859375,-0.3828125,0,0,0,,0,310,310,174,1,
,,,,,,,,,,,,,,,,,,5da8768c2a921500145c6a0d,2020-08-10_19h29.20.579,lexical_decision_task_MP,2020.1.3,Win32,60,,m,1,0.666675,,,,,,,,0.666675,1,,,,,,197,WORD,UN,33,wicked,STREAM,m,,,,,,0.0859375,-0.3828125,0,0,0,,0,311,311,136,1,
,,,,,,,,,,,,,,,,,,5da8768c2a921500145c6a0d,2020-08-10_19h29.20.579,lexical_decision_task_MP,2020.1.3,Win32,60,,m,1,1.180145,,,,,,,,1.180145,1,,,,,,107,WORD,"ID",33,slogan,SLOGAN,m,,,,,,0.0859375,-0.3828125,0,0,0,,0,312,312,46,1,
,,,,,,,,,,,,,,,,,,5da8768c2a921500145c6a0d,2020-08-10_19h29.20.579,lexical_decision_task_MP,2020.1.3,Win32,60,,m,1,0.808305,,,,,,,,0.808305,1,,,,,,9,WORD,UN,50,bridge,HUSTLE,m,,,,,,0.0859375,-0.3828125,0,0,0,,0,313,313,188,1,
,,,,,,,,,,,,,,,,,,5da8768c2a921500145c6a0d,2020-08-10_19h29.20.579,lexical_decision_task_MP,2020.1.3,Win32,60,,m,1,0.84085,,,,,,,,0.84085,1,,,,,,59,WORD,UN,50,pencil,SPLINT,m,,,,,,0.0859375,-0.3828125,0,0,0,,0,314,314,238,1,
,,,,,,,,,,,,,,,,,,5da8768c2a921500145c6a0d,2020-08-10_19h29.20.579,lexical_decision_task_MP,2020.1.3,Win32,60,,m,1,0.603255,,,,,,,,0.603255,1,,,,,,42,WORD,UN,50,tongue,CHAPEL,m,,,,,,0.0859375,-0.3828125,0,0,0,,0,315,315,221,1,
,,,,,,,,,,,,,,,,,,5da8768c2a921500145c6a0d,2020-08-10_19h29.20.579,lexical_decision_task_MP,2020.1.3,Win32,60,,z,1,0.58578,,,,,,,,0.58578,1,,,,,,446,NW,UN,33,gircue,RUNAMO,z,,,,,,0.0859375,-0.3828125,0,0,0,,0,316,316,385,1,
,,,,,,,,,,,,,,,,,,5da8768c2a921500145c6a0d,2020-08-10_19h29.20.579,lexical_decision_task_MP,2020.1.3,Win32,60,,m,1,0.648485,,,,,,,,0.648485,1,,,,,,229,WORD,UN,33,fringe,MOTHER,m,,,,,,0.0859375,-0.3828125,0,0,0,,0,317,317,168,1,
,,,,,,,,,,,,,,,,,,5da8768c2a921500145c6a0d,2020-08-10_19h29.20.579,lexical_decision_task_MP,2020.1.3,Win32,60,,z,1,0.73563,,,,,,,,0.73563,1,,,,,,369,NW,"ID",50,wronch,WRONCH,z,,,,,,0.0859375,-0.3828125,0,0,0,,0,318,318,308,1,
,,,,,,,,,,,,,,,,,,5da8768c2a921500145c6a0d,2020-08-10_19h29.20.579,lexical_decision_task_MP,2020.1.3,Win32,60,,z,1,0.84307,,,,,,,,0.84307,1,,,,,,417,NW,"ID",50,earoud,EAROUD,z,,,,,,0.0859375,-0.3828125,0,0,0,,0,319,319,356,1,
,,,,,,,,,,,,,,,,,,5da8768c2a921500145c6a0d,2020-08-10_19h29.20.579,lexical_decision_task_MP,2020.1.3,Win32,60,,m,1,0.651405,,,,,,,,0.651405,1,,,,,,72,WORD,"ID",33,bright,BRIGHT,m,,,,,,0.0859375,-0.3828125,0,0,0,,0,320,320,11,1,
,,,,,,,,,,,,,,,,,,5da8768c2a921500145c6a0d,2020-08-10_19h29.20.579,lexical_decision_task_MP,2020.1.3,Win32,60,,z,1,1.39611,,,,,,,,1.39611,1,,,,,,380,NW,"ID",50,cavory,CAVORY,z,,,,,,0.0859375,-0.3828125,0,0,0,,0,321,321,319,1,
,,,,,,,,,,,,,,,,,,5da8768c2a921500145c6a0d,2020-08-10_19h29.20.579,lexical_decision_task_MP,2020.1.3,Win32,60,,m,1,0.743385,,,,,,,,0.743385,1,,,,,,46,WORD,UN,50,income,SINGLE,m,,,,,,0.0859375,-0.3828125,0,0,0,,0,322,322,225,1,
,,,,,,,,,,,,,,,,,,5da8768c2a921500145c6a0d,2020-08-10_19h29.20.579,lexical_decision_task_MP,2020.1.3,Win32,60,,m,1,0.65324,,,,,,,,0.65324,1,,,,,,171,WORD,"ID",50,depart,DEPART,m,,,,,,0.0859375,-0.3828125,0,0,0,,0,323,323,110,1,
,,,,,,,,,,,,,,,,,,5da8768c2a921500145c6a0d,2020-08-10_19h29.20.579,lexical_decision_task_MP,2020.1.3,Win32,60,,z,1,1.198065,,,,,,,,1.198065,1,,,,,,367,NW,"ID",50,slique,SLIQUE,z,,,,,,0.0859375,-0.3828125,0,0,0,,0,324,324,306,1,
,,,,,,,,,,,,,,,,,,5da8768c2a921500145c6a0d,2020-08-10_19h29.20.579,lexical_decision_task_MP,2020.1.3,Win32,60,,m,1,0.90596,,,,,,,,0.90596,1,,,,,,84,WORD,"ID",33,mortal,MORTAL,m,,,,,,0.0859375,-0.3828125,0,0,0,,0,325,325,23,1,
,,,,,,,,,,,,,,,,,,5da8768c2a921500145c6a0d,2020-08-10_19h29.20.579,lexical_decision_task_MP,2020.1.3,Win32,60,,z,1,0.929915,,,,,,,,0.929915,1,,,,,,360,NW,"ID",33,desory,DESORY,z,,,,,,0.0859375,-0.3828125,0,0,0,,0,326,326,299,1,
,,,,,,,,,,,,,,,,,,5da8768c2a921500145c6a0d,2020-08-10_19h29.20.579,lexical_decision_task_MP,2020.1.3,Win32,60,,m,1,1.10849,,,,,,,,1.10849,1,,,,,,157,WORD,"ID",50,dragon,DRAGON,m,,,,,,0.0859375,-0.3828125,0,0,0,,0,327,327,96,1,
,,,,,,,,,,,,,,,,,,5da8768c2a921500145c6a0d,2020-08-10_19h29.20.579,lexical_decision_task_MP,2020.1.3,Win32,60,,m,1,0.83812,,,,,,,,0.83812,1,,,,,,219,WORD,UN,33,voyage,BUCKET,m,,,,,,0.0859375,-0.3828125,0,0,0,,0,328,328,158,1,
,,,,,,,,,,,,,,,,,,5da8768c2a921500145c6a0d,2020-08-10_19h29.20.579,lexical_decision_task_MP,2020.1.3,Win32,60,,z,1,0.71787,,,,,,,,0.71787,1,,,,,,254,NW,UN,50,apight,VAROSH,z,,,,,,0.0859375,-0.3828125,0,0,0,,0,329,329,433,1,
,,,,,,,,,,,,,,,,,,5da8768c2a921500145c6a0d,2020-08-10_19h29.20.579,lexical_decision_task_MP,2020.1.3,Win32,60,,m,1,0.730585,,,,,,,,0.730585,1,,,,,,228,WORD,UN,33,kidney,MASTER,m,,,,,,0.0859375,-0.3828125,0,0,0,,0,330,330,167,1,
,,,,,,,,,,,,,,,,,,5da8768c2a921500145c6a0d,2020-08-10_19h29.20.579,lexical_decision_task_MP,2020.1.3,Win32,60,,z,1,0.92354,,,,,,,,0.92354,1,,,,,,246,NW,UN,50,blarge,PIATON,z,,,,,,0.0859375,-0.3828125,0,0,0,,0,331,331,425,1,
,,,,,,,,,,,,,,,,,,5da8768c2a921500145c6a0d,2020-08-10_19h29.20.579,lexical_decision_task_MP,2020.1.3,Win32,60,,z,0,1.041675,,,,,,,,1.041675,0,,,,,,190,WORD,UN,33,stable,BACKUP,m,,,,,,0.0859375,-0.3828125,0,0,0,,0,332,332,129,1,
,,,,,,,,,,,,,,,,,,5da8768c2a921500145c6a0d,2020-08-10_19h29.20.579,lexical_decision_task_MP,2020.1.3,Win32,60,,m,1,0.730065,,,,,,,,0.730065,1,,,,,,140,WORD,"ID",50,prince,PRINCE,m,,,,,,0.0859375,-0.3828125,0,0,0,,0,333,333,79,1,
,,,,,,,,,,,,,,,,,,5da8768c2a921500145c6a0d,2020-08-10_19h29.20.579,lexical_decision_task_MP,2020.1.3,Win32,60,,z,1,0.65506,,,,,,,,0.65506,1,,,,,,452,NW,UN,33,bolvis,SURDEN,z,,,,,,0.0859375,-0.3828125,0,0,0,,0,334,334,391,1,
,,,,,,,,,,,,,,,,,,5da8768c2a921500145c6a0d,2020-08-10_19h29.20.579,lexical_decision_task_MP,2020.1.3,Win32,60,,m,1,0.71301,,,,,,,,0.71301,1,,,,,,130,WORD,"ID",50,stupid,STUPID,m,,,,,,0.0859375,-0.3828125,0,0,0,,0,335,335,69,1,
,,,,,,,,,,,,,,,,,,5da8768c2a921500145c6a0d,2020-08-10_19h29.20.579,lexical_decision_task_MP,2020.1.3,Win32,60,,m,1,0.975415,,,,,,,,0.975415,1,,,,,,131,WORD,"ID",50,quench,QUENCH,m,,,,,,0.0859375,-0.3828125,0,0,0,,0,336,336,70,1,
,,,,,,,,,,,,,,,,,,5da8768c2a921500145c6a0d,2020-08-10_19h29.20.579,lexical_decision_task_MP,2020.1.3,Win32,60,,m,1,0.65053,,,,,,,,0.65053,1,,,,,,51,WORD,UN,50,impose,HUNGRY,m,,,,,,0.0859375,-0.3828125,0,0,0,,0,337,337,230,1,
,,,,,,,,,,,,,,,,,,5da8768c2a921500145c6a0d,2020-08-10_19h29.20.579,lexical_decision_task_MP,2020.1.3,Win32,60,,m,1,1.120225,,,,,,,,1.120225,1,,,,,,99,WORD,"ID",33,fluent,FLUENT,m,,,,,,0.0859375,-0.3828125,0,0,0,,0,338,338,38,1,
,,,,,,,,,,,,,,,,,,5da8768c2a921500145c6a0d,2020-08-10_19h29.20.579,lexical_decision_task_MP,2020.1.3,Win32,60,,z,1,1.006275,,,,,,,,1.006275,1,,,,,,247,NW,UN,50,strole,BLARGE,z,,,,,,0.0859375,-0.3828125,0,0,0,,0,339,339,426,1,
,,,,,,,,,,,,,,,,,,5da8768c2a921500145c6a0d,2020-08-10_19h29.20.579,lexical_decision_task_MP,2020.1.3,Win32,60,,m,1,0.666705,,,,,,,,0.666705,1,,,,,,22,WORD,UN,50,wealth,JOCKEY,m,,,,,,0.0859375,-0.3828125,0,0,0,,0,340,340,201,1,
,,,,,,,,,,,,,,,,,,5da8768c2a921500145c6a0d,2020-08-10_19h29.20.579,lexical_decision_task_MP,2020.1.3,Win32,60,,z,0,0.770905,,,,,,,,0.770905,0,,,,,,16,WORD,UN,50,charge,FAUCET,m,,,,,,0.0859375,-0.3828125,0,0,0,,0,341,341,195,1,
,,,,,,,,,,,,,,,,,,5da8768c2a921500145c6a0d,2020-08-10_19h29.20.579,lexical_decision_task_MP,2020.1.3,Win32,60,,z,1,0.800995,,,,,,,,0.800995,1,,,,,,307,NW,"ID",33,kirafe,KIRAFE,z,,,,,,0.0859375,-0.3828125,0,0,0,,0,342,342,246,1,
,,,,,,,,,,,,,,,,,,5da8768c2a921500145c6a0d,2020-08-10_19h29.20.579,lexical_decision_task_MP,2020.1.3,Win32,60,,m,1,1.43356,,,,,,,,1.43356,1,,,,,,117,WORD,"ID",33,branch,BRANCH,m,,,,,,0.0859375,-0.3828125,0,0,0,,0,343,343,56,1,
,,,,,,,,,,,,,,,,,,5da8768c2a921500145c6a0d,2020-08-10_19h29.20.579,lexical_decision_task_MP,2020.1.3,Win32,60,,m,1,0.735425,,,,,,,,0.735425,1,,,,,,34,WORD,UN,50,socket,JUNGLE,m,,,,,,0.0859375,-0.3828125,0,0,0,,0,344,344,213,1,
,,,,,,,,,,,,,,,,,,5da8768c2a921500145c6a0d,2020-08-10_19h29.20.579,lexical_decision_task_MP,2020.1.3,Win32,60,,z,1,0.78075,,,,,,,,0.78075,1,,,,,,412,NW,"ID",50,jiluer,JILUER,z,,,,,,0.0859375,-0.3828125,0,0,0,,0,345,345,351,1,
,,,,,,,,,,,,,,,,,,5da8768c2a921500145c6a0d,2020-08-10_19h29.20.579,lexical_decision_task_MP,2020.1.3,Win32,60,,z,1,1.730965,,,,,,,,1.730965,1,,,,,,454,NW,UN,33,tondle,SCOUGE,z,,,,,,0.0859375,-0.3828125,0,0,0,,0,346,346,393,1,
,,,,,,,,,,,,,,,,,,5da8768c2a921500145c6a0d,2020-08-10_19h29.20.579,lexical_decision_task_MP,2020.1.3,Win32,60,,z,1,0.726705,,,,,,,,0.726705,1,,,,,,272,NW,UN,50,sortel,DAMILT,z,,,,,,0.0859375,-0.3828125,0,0,0,,0,347,347,451,1,
,,,,,,,,,,,,,,,,,,5da8768c2a921500145c6a0d,2020-08-10_19h29.20.579,lexical_decision_task_MP,2020.1.3,Win32,60,,z,1,0.67596,,,,,,,,0.67596,1,,,,,,271,NW,UN,50,damilt,AUBRID,z,,,,,,0.0859375,-0.3828125,0,0,0,,0,348,348,450,1,
,,,,,,,,,,,,,,,,,,5da8768c2a921500145c6a0d,2020-08-10_19h29.20.579,lexical_decision_task_MP,2020.1.3,Win32,60,,,0,,,,,,,,,0.67596,-1,,,,,,180,WORD,"ID",50,silent,SILENT,m,,,,,,0.0859375,-0.3828125,0,0,0,,0,349,349,119,1,
,,,,,,,,,,,,,,,,,,5da8768c2a921500145c6a0d,2020-08-10_19h29.20.579,lexical_decision_task_MP,2020.1.3,Win32,60,,z,1,0.713055,,,,,,,,0.713055,1,,,,,,341,NW,"ID",33,myrtie,MYRTIE,z,,,,,,0.0859375,-0.3828125,0,0,0,,0,350,350,280,1,
,,,,,,,,,,,,,,,,,,5da8768c2a921500145c6a0d,2020-08-10_19h29.20.579,lexical_decision_task_MP,2020.1.3,Win32,60,,m,1,1.52008,,,,,,,,1.52008,1,,,,,,10,WORD,UN,50,cruise,ETHNIC,m,,,,,,0.0859375,-0.3828125,0,0,0,,0,351,351,189,1,
,,,,,,,,,,,,,,,,,,5da8768c2a921500145c6a0d,2020-08-10_19h29.20.579,lexical_decision_task_MP,2020.1.3,Win32,60,,m,1,1.31374,,,,,,,,1.31374,1,,,,,,1,WORD,UN,50,ethnic,FRIGHT,m,,,,,,0.0859375,-0.3828125,0,0,0,,0,352,352,180,1,
,,,,,,,,,,,,,,,,,,5da8768c2a921500145c6a0d,2020-08-10_19h29.20.579,lexical_decision_task_MP,2020.1.3,Win32,60,,z,1,0.716575,,,,,,,,0.716575,1,,,,,,356,NW,"ID",33,othnis,OTHNIS,z,,,,,,0.0859375,-0.3828125,0,0,0,,0,353,353,295,1,
,,,,,,,,,,,,,,,,,,5da8768c2a921500145c6a0d,2020-08-10_19h29.20.579,lexical_decision_task_MP,2020.1.3,Win32,60,,m,1,0.902365,,,,,,,,0.902365,1,,,,,,97,WORD,"ID",33,client,CLIENT,m,,,,,,0.0859375,-0.3828125,0,0,0,,0,354,354,36,1,
,,,,,,,,,,,,,,,,,,5da8768c2a921500145c6a0d,2020-08-10_19h29.20.579,lexical_decision_task_MP,2020.1.3,Win32,60,,m,1,0.715835,,,,,,,,0.715835,1,,,,,,112,WORD,"ID",33,breath,BREATH,m,,,,,,0.0859375,-0.3828125,0,0,0,,0,355,355,51,1,
,,,,,,,,,,,,,,,,,,5da8768c2a921500145c6a0d,2020-08-10_19h29.20.579,lexical_decision_task_MP,2020.1.3,Win32,60,,z,1,0.927115,,,,,,,,0.927115,1,,,,,,407,NW,"ID",50,suiver,SUIVER,z,,,,,,0.0859375,-0.3828125,0,0,0,,0,356,356,346,1,
,,,,,,,,,,,,,,,,,,5da8768c2a921500145c6a0d,2020-08-10_19h29.20.579,lexical_decision_task_MP,2020.1.3,Win32,60,,z,1,0.90904,,,,,,,,0.90904,1,,,,,,370,NW,"ID",50,sleact,SLEACT,z,,,,,,0.0859375,-0.3828125,0,0,0,,0,357,357,309,1,
,,,,,,,,,,,,,,,,,,5da8768c2a921500145c6a0d,2020-08-10_19h29.20.579,lexical_decision_task_MP,2020.1.3,Win32,60,,m,1,0.87636,,,,,,,,0.87636,1,,,,,,29,WORD,UN,50,orient,SKETCH,m,,,,,,0.0859375,-0.3828125,0,0,0,,0,358,358,208,1,
,,,,,,,,,,,,,,,,,,5da8768c2a921500145c6a0d,2020-08-10_19h29.20.579,lexical_decision_task_MP,2020.1.3,Win32,60,,m,1,0.71969,,,,,,,,0.71969,1,,,,,,168,WORD,"ID",50,answer,ANSWER,m,,,,,,0.0859375,-0.3828125,0,0,0,,0,359,359,107,1,
,,,,,,,,,,,,,,,,,,5da8768c2a921500145c6a0d,2020-08-10_19h29.20.579,lexical_decision_task_MP,2020.1.3,Win32,60,,z,1,0.6613,,,,,,,,0.6613,1,,,,,,455,NW,UN,33,broget,TONDLE,z,,,,,,0.0859375,-0.3828125,0,0,0,,0,360,360,394,1,
,,,,,,,,,,,,,,,,,,5da8768c2a921500145c6a0d,2020-08-10_19h29.20.579,lexical_decision_task_MP,2020.1.3,Win32,60,,z,0,0.60903,,,,,,,,0.60903,0,,,,,,208,WORD,UN,33,search,HOCKEY,m,,,,,,0.0859375,-0.3828125,0,0,0,,0,361,361,147,1,
,,,,,,,,,,,,,,,,,,5da8768c2a921500145c6a0d,2020-08-10_19h29.20.579,lexical_decision_task_MP,2020.1.3,Win32,60,,z,1,0.74034,,,,,,,,0.74034,1,,,,,,459,NW,UN,33,mingar,BAFENT,z,,,,,,0.0859375,-0.3828125,0,0,0,space,0,362,362,398,1,5.090305
,,,,,,,,,,,,,,,,,,5da8768c2a921500145c6a0d,2020-08-10_19h29.20.579,lexical_decision_task_MP,2020.1.3,Win32,60,,m,1,0.95727,,,,,,,,0.95727,1,,,,,,176,WORD,"ID",50,strife,STRIFE,m,,,,,,0.0859375,-0.3828125,0,0,0,,0,363,363,115,1,
,,,,,,,,,,,,,,,,,,5da8768c2a921500145c6a0d,2020-08-10_19h29.20.579,lexical_decision_task_MP,2020.1.3,Win32,60,,m,1,1.155075,,,,,,,,1.155075,1,,,,,,240,WORD,UN,33,seldom,FOREST,m,,,,,,0.0859375,-0.3828125,0,0,0,,0,364,364,179,1,
,,,,,,,,,,,,,,,,,,5da8768c2a921500145c6a0d,2020-08-10_19h29.20.579,lexical_decision_task_MP,2020.1.3,Win32,60,,m,1,0.78668,,,,,,,,0.78668,1,,,,,,160,WORD,"ID",50,violet,VIOLET,m,,,,,,0.0859375,-0.3828125,0,0,0,,0,365,365,99,1,
,,,,,,,,,,,,,,,,,,5da8768c2a921500145c6a0d,2020-08-10_19h29.20.579,lexical_decision_task_MP,2020.1.3,Win32,60,,z,1,0.9129,,,,,,,,0.9129,1,,,,,,405,NW,"ID",50,flumni,FLUMNI,z,,,,,,0.0859375,-0.3828125,0,0,0,,0,366,366,344,1,
,,,,,,,,,,,,,,,,,,5da8768c2a921500145c6a0d,2020-08-10_19h29.20.579,lexical_decision_task_MP,2020.1.3,Win32,60,,z,1,0.85023,,,,,,,,0.85023,1,,,,,,344,NW,"ID",33,scrily,SCRILY,z,,,,,,0.0859375,-0.3828125,0,0,0,,0,367,367,283,1,
,,,,,,,,,,,,,,,,,,5da8768c2a921500145c6a0d,2020-08-10_19h29.20.579,lexical_decision_task_MP,2020.1.3,Win32,60,,z,1,0.726135,,,,,,,,0.726135,1,,,,,,287,NW,UN,50,yaceup,NYMBEL,z,,,,,,0.0859375,-0.3828125,0,0,0,,0,368,368,466,1,
,,,,,,,,,,,,,,,,,,5da8768c2a921500145c6a0d,2020-08-10_19h29.20.579,lexical_decision_task_MP,2020.1.3,Win32,60,,m,1,1.126745,,,,,,,,1.126745,1,,,,,,13,WORD,UN,50,almost,STRIVE,m,,,,,,0.0859375,-0.3828125,0,0,0,,0,369,369,192,1,
,,,,,,,,,,,,,,,,,,5da8768c2a921500145c6a0d,2020-08-10_19h29.20.579,lexical_decision_task_MP,2020.1.3,Win32,60,,z,1,0.920465,,,,,,,,0.920465,1,,,,,,351,NW,"ID",33,tiesch,TIESCH,z,,,,,,0.0859375,-0.3828125,0,0,0,,0,370,370,290,1,
,,,,,,,,,,,,,,,,,,5da8768c2a921500145c6a0d,2020-08-10_19h29.20.579,lexical_decision_task_MP,2020.1.3,Win32,60,,z,1,0.71915,,,,,,,,0.71915,1,,,,,,401,NW,"ID",50,mustil,MUSTIL,z,,,,,,0.0859375,-0.3828125,0,0,0,,0,371,371,340,1,
,,,,,,,,,,,,,,,,,,5da8768c2a921500145c6a0d,2020-08-10_19h29.20.579,lexical_decision_task_MP,2020.1.3,Win32,60,,z,1,0.903925,,,,,,,,0.903925,1,,,,,,345,NW,"ID",33,absend,ABSEND,z,,,,,,0.0859375,-0.3828125,0,0,0,,0,372,372,284,1,
,,,,,,,,,,,,,,,,,,5da8768c2a921500145c6a0d,2020-08-10_19h29.20.579,lexical_decision_task_MP,2020.1.3,Win32,60,,m,1,0.77848,,,,,,,,0.77848,1,,,,,,181,WORD,UN,33,winter,GLANCE,m,,,,,,0.0859375,-0.3828125,0,0,0,,0,373,373,120,1,
,,,,,,,,,,,,,,,,,,5da8768c2a921500145c6a0d,2020-08-10_19h29.20.579,lexical_decision_task_MP,2020.1.3,Win32,60,,m,1,1.09718,,,,,,,,1.09718,1,,,,,,195,WORD,UN,33,credit,RESIGN,m,,,,,,0.0859375,-0.3828125,0,0,0,,0,374,374,134,1,
,,,,,,,,,,,,,,,,,,5da8768c2a921500145c6a0d,2020-08-10_19h29.20.579,lexical_decision_task_MP,2020.1.3,Win32,60,,m,1,1.58091,,,,,,,,1.58091,1,,,,,,185,WORD,UN,33,portal,BOTHER,m,,,,,,0.0859375,-0.3828125,0,0,0,,0,375,375,124,1,
,,,,,,,,,,,,,,,,,,5da8768c2a921500145c6a0d,2020-08-10_19h29.20.579,lexical_decision_task_MP,2020.1.3,Win32,60,,z,1,0.716855,,,,,,,,0.716855,1,,,,,,312,NW,"ID",33,nerawl,NERAWL,z,,,,,,0.0859375,-0.3828125,0,0,0,,0,376,376,251,1,
,,,,,,,,,,,,,,,,,,5da8768c2a921500145c6a0d,2020-08-10_19h29.20.579,lexical_decision_task_MP,2020.1.3,Win32,60,,z,1,1.320175,,,,,,,,1.320175,1,,,,,,470,NW,UN,33,nobest,CRUDIO,z,,,,,,0.0859375,-0.3828125,0,0,0,,0,377,377,409,1,
,,,,,,,,,,,,,,,,,,5da8768c2a921500145c6a0d,2020-08-10_19h29.20.579,lexical_decision_task_MP,2020.1.3,Win32,60,,z,1,1.19741,,,,,,,,1.19741,1,,,,,,330,NW,"ID",33,kensom,KENSOM,z,,,,,,0.0859375,-0.3828125,0,0,0,,0,378,378,269,1,
,,,,,,,,,,,,,,,,,,5da8768c2a921500145c6a0d,2020-08-10_19h29.20.579,lexical_decision_task_MP,2020.1.3,Win32,60,,z,1,1.052065,,,,,,,,1.052065,1,,,,,,451,NW,UN,33,surden,CAINKY,z,,,,,,0.0859375,-0.3828125,0,0,0,,0,379,379,390,1,
,,,,,,,,,,,,,,,,,,5da8768c2a921500145c6a0d,2020-08-10_19h29.20.579,lexical_decision_task_MP,2020.1.3,Win32,60,,z,1,0.735905,,,,,,,,0.735905,1,,,,,,308,NW,"ID",33,psetch,PSETCH,z,,,,,,0.0859375,-0.3828125,0,0,0,,0,380,380,247,1,
,,,,,,,,,,,,,,,,,,5da8768c2a921500145c6a0d,2020-08-10_19h29.20.579,lexical_decision_task_MP,2020.1.3,Win32,60,,m,1,0.711565,,,,,,,,0.711565,1,,,,,,110,WORD,"ID",33,polite,POLITE,m,,,,,,0.0859375,-0.3828125,0,0,0,,0,381,381,49,1,
,,,,,,,,,,,,,,,,,,5da8768c2a921500145c6a0d,2020-08-10_19h29.20.579,lexical_decision_task_MP,2020.1.3,Win32,60,,m,0,1.612675,,,,,,,,1.612675,0,,,,,,348,NW,"ID",33,dumple,DUMPLE,z,,,,,,0.0859375,-0.3828125,0,0,0,,0,382,382,287,1,
,,,,,,,,,,,,,,,,,,5da8768c2a921500145c6a0d,2020-08-10_19h29.20.579,lexical_decision_task_MP,2020.1.3,Win32,60,,z,1,0.710805,,,,,,,,0.710805,1,,,,,,288,NW,UN,50,starby,YACEUP,z,,,,,,0.0859375,-0.3828125,0,0,0,,0,383,383,467,1,
,,,,,,,,,,,,,,,,,,5da8768c2a921500145c6a0d,2020-08-10_19h29.20.579,lexical_decision_task_MP,2020.1.3,Win32,60,,m,1,0.972735,,,,,,,,0.972735,1,,,,,,78,WORD,"ID",33,column,COLUMN,m,,,,,,0.0859375,-0.3828125,0,0,0,,0,384,384,17,1,
,,,,,,,,,,,,,,,,,,5da8768c2a921500145c6a0d,2020-08-10_19h29.20.579,lexical_decision_task_MP,2020.1.3,Win32,60,,z,1,0.71403,,,,,,,,0.71403,1,,,,,,283,NW,UN,50,shaple,VERALF,z,,,,,,0.0859375,-0.3828125,0,0,0,,0,385,385,462,1,
,,,,,,,,,,,,,,,,,,5da8768c2a921500145c6a0d,2020-08-10_19h29.20.579,lexical_decision_task_MP,2020.1.3,Win32,60,,z,1,1.604105,,,,,,,,1.604105,1,,,,,,437,NW,UN,33,baitch,SNAPEL,z,,,,,,0.0859375,-0.3828125,0,0,0,,0,386,386,376,1,
,,,,,,,,,,,,,,,,,,5da8768c2a921500145c6a0d,2020-08-10_19h29.20.579,lexical_decision_task_MP,2020.1.3,Win32,60,,m,1,0.719685,,,,,,,,0.719685,1,,,,,,170,WORD,"ID",50,pounce,POUNCE,m,,,,,,0.0859375,-0.3828125,0,0,0,,0,387,387,109,1,
,,,,,,,,,,,,,,,,,,5da8768c2a921500145c6a0d,2020-08-10_19h29.20.579,lexical_decision_task_MP,2020.1.3,Win32,60,,m,1,0.71989,,,,,,,,0.71989,1,,,,,,60,WORD,UN,50,fright,PENCIL,m,,,,,,0.0859375,-0.3828125,0,0,0,,0,388,388,239,1,
,,,,,,,,,,,,,,,,,,5da8768c2a921500145c6a0d,2020-08-10_19h29.20.579,lexical_decision_task_MP,2020.1.3,Win32,60,,m,1,1.30803,,,,,,,,1.30803,1,,,,,,30,WORD,UN,50,weapon,ORIENT,m,,,,,,0.0859375,-0.3828125,0,0,0,,0,389,389,209,1,
,,,,,,,,,,,,,,,,,,5da8768c2a921500145c6a0d,2020-08-10_19h29.20.579,lexical_decision_task_MP,2020.1.3,Win32,60,,z,1,0.77567,,,,,,,,0.77567,1,,,,,,469,NW,UN,33,crudio,PADIFS,z,,,,,,0.0859375,-0.3828125,0,0,0,,0,390,390,408,1,
,,,,,,,,,,,,,,,,,,5da8768c2a921500145c6a0d,2020-08-10_19h29.20.579,lexical_decision_task_MP,2020.1.3,Win32,60,,,0,,,,,,,,,0.77567,-1,,,,,,456,NW,UN,33,wanigh,BROGET,z,,,,,,0.0859375,-0.3828125,0,0,0,,0,391,391,395,1,
,,,,,,,,,,,,,,,,,,5da8768c2a921500145c6a0d,2020-08-10_19h29.20.579,lexical_decision_task_MP,2020.1.3,Win32,60,,m,1,0.68788,,,,,,,,0.68788,1,,,,,,209,WORD,UN,33,monkey,SEARCH,m,,,,,,0.0859375,-0.3828125,0,0,0,,0,392,392,148,1,
,,,,,,,,,,,,,,,,,,5da8768c2a921500145c6a0d,2020-08-10_19h29.20.579,lexical_decision_task_MP,2020.1.3,Win32,60,,z,1,1.03128,,,,,,,,1.03128,1,,,,,,324,NW,"ID",33,steikh,STEIKH,z,,,,,,0.0859375,-0.3828125,0,0,0,,0,393,393,263,1,
,,,,,,,,,,,,,,,,,,5da8768c2a921500145c6a0d,2020-08-10_19h29.20.579,lexical_decision_task_MP,2020.1.3,Win32,60,,z,1,0.96121,,,,,,,,0.96121,1,,,,,,336,NW,"ID",33,ghodus,GHODUS,z,,,,,,0.0859375,-0.3828125,0,0,0,,0,394,394,275,1,
,,,,,,,,,,,,,,,,,,5da8768c2a921500145c6a0d,2020-08-10_19h29.20.579,lexical_decision_task_MP,2020.1.3,Win32,60,,m,1,0.644915,,,,,,,,0.644915,1,,,,,,156,WORD,"ID",50,cradle,CRADLE,m,,,,,,0.0859375,-0.3828125,0,0,0,,0,395,395,95,1,
,,,,,,,,,,,,,,,,,,5da8768c2a921500145c6a0d,2020-08-10_19h29.20.579,lexical_decision_task_MP,2020.1.3,Win32,60,,z,1,0.843985,,,,,,,,0.843985,1,,,,,,266,NW,UN,50,pasink,VARMIT,z,,,,,,0.0859375,-0.3828125,0,0,0,,0,396,396,445,1,
,,,,,,,,,,,,,,,,,,5da8768c2a921500145c6a0d,2020-08-10_19h29.20.579,lexical_decision_task_MP,2020.1.3,Win32,60,,m,0,0.809835,,,,,,,,0.809835,0,,,,,,316,NW,"ID",33,scregm,SCREGM,z,,,,,,0.0859375,-0.3828125,0,0,0,,0,397,397,255,1,
,,,,,,,,,,,,,,,,,,5da8768c2a921500145c6a0d,2020-08-10_19h29.20.579,lexical_decision_task_MP,2020.1.3,Win32,60,,m,1,1.168195,,,,,,,,1.168195,1,,,,,,45,WORD,UN,50,single,CLERGY,m,,,,,,0.0859375,-0.3828125,0,0,0,,0,398,398,224,1,
,,,,,,,,,,,,,,,,,,5da8768c2a921500145c6a0d,2020-08-10_19h29.20.579,lexical_decision_task_MP,2020.1.3,Win32,60,,m,1,0.682905,,,,,,,,0.682905,1,,,,,,164,WORD,"ID",50,market,MARKET,m,,,,,,0.0859375,-0.3828125,0,0,0,,0,399,399,103,1,
,,,,,,,,,,,,,,,,,,5da8768c2a921500145c6a0d,2020-08-10_19h29.20.579,lexical_decision_task_MP,2020.1.3,Win32,60,,m,1,0.81834,,,,,,,,0.81834,1,,,,,,179,WORD,"ID",50,basket,BASKET,m,,,,,,0.0859375,-0.3828125,0,0,0,,0,400,400,118,1,
,,,,,,,,,,,,,,,,,,5da8768c2a921500145c6a0d,2020-08-10_19h29.20.579,lexical_decision_task_MP,2020.1.3,Win32,60,,z,1,1.50619,,,,,,,,1.50619,1,,,,,,409,NW,"ID",50,elopia,ELOPIA,z,,,,,,0.0859375,-0.3828125,0,0,0,,0,401,401,348,1,
,,,,,,,,,,,,,,,,,,5da8768c2a921500145c6a0d,2020-08-10_19h29.20.579,lexical_decision_task_MP,2020.1.3,Win32,60,,z,1,0.73884,,,,,,,,0.73884,1,,,,,,444,NW,UN,33,minkel,JAUNCE,z,,,,,,0.0859375,-0.3828125,0,0,0,,0,402,402,383,1,
,,,,,,,,,,,,,,,,,,5da8768c2a921500145c6a0d,2020-08-10_19h29.20.579,lexical_decision_task_MP,2020.1.3,Win32,60,,z,1,0.91578,,,,,,,,0.91578,1,,,,,,273,NW,UN,50,fumblo,SORTEL,z,,,,,,0.0859375,-0.3828125,0,0,0,,0,403,403,452,1,
,,,,,,,,,,,,,,,,,,5da8768c2a921500145c6a0d,2020-08-10_19h29.20.579,lexical_decision_task_MP,2020.1.3,Win32,60,,z,1,1.044665,,,,,,,,1.044665,1,,,,,,429,NW,UN,33,caroey,FUNTLE,z,,,,,,0.0859375,-0.3828125,0,0,0,,0,404,404,368,1,
,,,,,,,,,,,,,,,,,,5da8768c2a921500145c6a0d,2020-08-10_19h29.20.579,lexical_decision_task_MP,2020.1.3,Win32,60,,z,1,0.727205,,,,,,,,0.727205,1,,,,,,463,NW,UN,33,chaite,KISPEL,z,,,,,,0.0859375,-0.3828125,0,0,0,,0,405,405,402,1,
,,,,,,,,,,,,,,,,,,5da8768c2a921500145c6a0d,2020-08-10_19h29.20.579,lexical_decision_task_MP,2020.1.3,Win32,60,,m,1,1.12475,,,,,,,,1.12475,1,,,,,,177,WORD,"ID",50,advent,ADVENT,m,,,,,,0.0859375,-0.3828125,0,0,0,,0,406,406,116,1,
,,,,,,,,,,,,,,,,,,5da8768c2a921500145c6a0d,2020-08-10_19h29.20.579,lexical_decision_task_MP,2020.1.3,Win32,60,,m,1,0.784535,,,,,,,,0.784535,1,,,,,,43,WORD,UN,50,foster,TONGUE,m,,,,,,0.0859375,-0.3828125,0,0,0,,0,407,407,222,1,
,,,,,,,,,,,,,,,,,,5da8768c2a921500145c6a0d,2020-08-10_19h29.20.579,lexical_decision_task_MP,2020.1.3,Win32,60,,z,1,1.26157,,,,,,,,1.26157,1,,,,,,465,NW,UN,33,bafent,WHIVEX,z,,,,,,0.0859375,-0.3828125,0,0,0,,0,408,408,404,1,
,,,,,,,,,,,,,,,,,,5da8768c2a921500145c6a0d,2020-08-10_19h29.20.579,lexical_decision_task_MP,2020.1.3,Win32,60,,z,1,1.53639,,,,,,,,1.53639,1,,,,,,355,NW,"ID",33,zingly,ZINGLY,z,,,,,,0.0859375,-0.3828125,0,0,0,,0,409,409,294,1,
