counterbalancing_condition,instr_done_keyboard.keys,instr_done_touch.x,instr_done_touch.y,instr_done_touch.leftButton,instr_done_touch.midButton,instr_done_touch.rightButton,instr_done_touch.clicked_name,instruction_pages.thisRepN,instruction_pages.thisTrialN,instruction_pages.thisN,instruction_pages.thisIndex,instruction_pages.ran,pageN,phase,instruct_text,has_image,instruct_image,participant,date,expName,psychopyVersion,OS,frameRate,response.keys,response.corr,touch_resp.x,touch_resp.y,touch_resp.leftButton,touch_resp.midButton,touch_resp.rightButton,touch_resp.time,touch_resp.clicked_name,rt,corr,practice_trials.thisRepN,practice_trials.thisTrialN,practice_trials.thisN,practice_trials.thisIndex,practice_trials.ran,TrialID,StimulusType,Condition,PrimeDuration,Prime,Target,corrAns,end_of_practice_trials_pages.thisRepN,end_of_practice_trials_pages.thisTrialN,end_of_practice_trials_pages.thisN,end_of_practice_trials_pages.thisIndex,end_of_practice_trials_pages.ran,break_done_touch.x,break_done_touch.y,break_done_touch.leftButton,break_done_touch.midButton,break_done_touch.rightButton,break_done_keyboard.keys,trials.thisRepN,trials.thisTrialN,trials.thisN,trials.thisIndex,trials.ran,break_done_touch.clicked_name
3,,0.146275937,-0.399873234,1,0,0,instr_done_button,0,0,0,0,1,1,instructions,"INSTRUCTIONS
At the start of each trial, look at the hash marks (######) in the center of the screen. After a moment, a string of letters will appear. Your task is to indicate if the letter string forms a word or not (i.e., if it is a nonword). For example, AUTHOR is a word while AUTHON is a nonword.

Press the space bar or touch the button below to continue.",0,,5db1de78d823e2000a85520b,2020-08-10_16h24.51.358,lexical_decision_task_MP,2020.1.3,Linux armv8l,60,,,,,,,,,,,,,,,,,,,,,,,,,,,,,,,,,,,,,,,,
,,0.11385027,-0.402311381,1,0,0,instr_done_button,0,1,1,1,1,2,instructions,"If your device has a keyboard, press the 'Z' key for nonwords and the 'M' key for words.





Press the space bar or touch the button below to continue.",1,keyboard-example.gif,5db1de78d823e2000a85520b,2020-08-10_16h24.51.358,lexical_decision_task_MP,2020.1.3,Linux armv8l,60,,,,,,,,,,,,,,,,,,,,,,,,,,,,,,,,,,,,,,,,
,,-0.016367199,-0.43132382,1,0,0,instr_done_button,0,2,2,2,1,3,instructions,"If you are using a touchscreen only device, use the buttons on the screen. Do not use the mouse.





Press the space bar or touch the button below to continue.",1,touchscreen-example.gif,5db1de78d823e2000a85520b,2020-08-10_16h24.51.358,lexical_decision_task_MP,2020.1.3,Linux armv8l,60,,,,,,,,,,,,,,,,,,,,,,,,,,,,,,,,,,,,,,,,
,,-0.029749231,-0.425472445,1,0,0,instr_done_button,0,3,3,3,1,4,instructions,"It is very important that you respond as quickly and accurately as possible, as each letter string will only be on the screen for two seconds. If you do not respond within this time, the message 'Too slow!' will be displayed and the experiment will progress to the next letter string. The first 20 trials will be practice trials and you will receive feedback on your answers. 

Press the space bar or touch the button below to start the practice trials.",0,,5db1de78d823e2000a85520b,2020-08-10_16h24.51.358,lexical_decision_task_MP,2020.1.3,Linux armv8l,60,,,,,,,,,,,,,,,,,,,,,,,,,,,,,,,,,,,,,,,,
,,,,,,,,,,,,,,,,,,5db1de78d823e2000a85520b,2020-08-10_16h24.51.358,lexical_decision_task_MP,2020.1.3,Linux armv8l,60,,0,0.265684628,-0.278703634,1,0,0,1.1692,button_right,1.1692,1,0,0,0,1,1,1002,WORD,"ID",33,adjust,ADJUST,m,,,,,,,,,,,,,,,,,
,,,,,,,,,,,,,,,,,,5db1de78d823e2000a85520b,2020-08-10_16h24.51.358,lexical_decision_task_MP,2020.1.3,Linux armv8l,60,,0,-0.396210754,-0.381832012,1,0,0,0.8661,button_left,0.8661,0,0,1,1,0,1,1001,WORD,"ID",33,utopia,UTOPIA,m,,,,,,,,,,,,,,,,,
,,,,,,,,,,,,,,,,,,5db1de78d823e2000a85520b,2020-08-10_16h24.51.358,lexical_decision_task_MP,2020.1.3,Linux armv8l,60,,0,0.272375755,-0.292600465,1,0,0,0.6218,button_right,0.6218,1,0,2,2,7,1,1008,WORD,UN,50,hurdle,VOLUME,m,,,,,,,,,,,,,,,,,
,,,,,,,,,,,,,,,,,,5db1de78d823e2000a85520b,2020-08-10_16h24.51.358,lexical_decision_task_MP,2020.1.3,Linux armv8l,60,,0,-0.344741451,-0.355013801,1,0,0,1.0035,button_left,1.0035,1,0,3,3,12,1,1013,NW,UN,33,adveil,SPRINY,z,,,,,,,,,,,,,,,,,
,,,,,,,,,,,,,,,,,,5db1de78d823e2000a85520b,2020-08-10_16h24.51.358,lexical_decision_task_MP,2020.1.3,Linux armv8l,60,,0,0.275978607,-0.330877286,1,0,0,0.9019,button_right,0.9019,1,0,4,4,4,1,1005,WORD,UN,33,abound,SQUEAK,m,,,,,,,,,,,,,,,,,
,,,,,,,,,,,,,,,,,,5db1de78d823e2000a85520b,2020-08-10_16h24.51.358,lexical_decision_task_MP,2020.1.3,Linux armv8l,60,,0,-0.398269468,-0.359158414,1,0,0,0.9053,button_left,0.9053,1,0,5,5,14,1,1015,NW,UN,50,miaber,THRALE,z,,,,,,,,,,,,,,,,,
,,,,,,,,,,,,,,,,,,5db1de78d823e2000a85520b,2020-08-10_16h24.51.358,lexical_decision_task_MP,2020.1.3,Linux armv8l,60,,0,0.287816538,-0.267732565,1,0,0,0.854,button_right,0.854,1,0,6,6,6,1,1007,WORD,UN,50,tropic,ZOMBIE,m,,,,,,,,,,,,,,,,,
,,,,,,,,,,,,,,,,,,5db1de78d823e2000a85520b,2020-08-10_16h24.51.358,lexical_decision_task_MP,2020.1.3,Linux armv8l,60,,0,-0.313345159,-0.344042584,1,0,0,0.8472,button_left,0.8472,1,0,7,7,15,1,1016,NW,UN,50,mushed,WHAISE,z,,,,,,,,,,,,,,,,,
,,,,,,,,,,,,,,,,,,5db1de78d823e2000a85520b,2020-08-10_16h24.51.358,lexical_decision_task_MP,2020.1.3,Linux armv8l,60,,0,-0.373564266,-0.365253486,1,0,0,1.2037,button_left,1.2037,1,0,8,8,9,1,1010,NW,"ID",33,fariny,FARINY,z,,,,,,,,,,,,,,,,,
,,,,,,,,,,,,,,,,,,5db1de78d823e2000a85520b,2020-08-10_16h24.51.358,lexical_decision_task_MP,2020.1.3,Linux armv8l,60,,0,0.286272364,-0.288455704,1,0,0,0.7377,button_right,0.7377,1,0,9,9,5,1,1006,WORD,UN,33,frenzy,OBTAIN,m,,,,,,,,,,,,,,,,,
,,,,,,,,,,,,,,,,,,5db1de78d823e2000a85520b,2020-08-10_16h24.51.358,lexical_decision_task_MP,2020.1.3,Linux armv8l,60,,0,-0.358123409,-0.357939415,1,0,0,0.8362,button_left,0.8362,1,0,10,10,13,1,1014,NW,UN,33,winfer,ROUPET,z,,,,,,,,,,,,,,,,,
,,,,,,,,,,,,,,,,,,5db1de78d823e2000a85520b,2020-08-10_16h24.51.358,lexical_decision_task_MP,2020.1.3,Linux armv8l,60,,0,0.249214543,-0.316980677,1,0,0,0.5866,button_right,0.5866,1,0,11,11,2,1,1003,WORD,"ID",50,almond,ALMOND,m,,,,,,,,,,,,,,,,,
,,,,,,,,,,,,,,,,,,5db1de78d823e2000a85520b,2020-08-10_16h24.51.358,lexical_decision_task_MP,2020.1.3,Linux armv8l,60,,0,-0.313345159,-0.333559203,1,0,0,0.7151,button_left,0.7151,1,0,12,12,10,1,1011,NW,"ID",50,inlade,INLADE,z,,,,,,,,,,,,,,,,,
,,,,,,,,,,,,,,,,,,5db1de78d823e2000a85520b,2020-08-10_16h24.51.358,lexical_decision_task_MP,2020.1.3,Linux armv8l,60,,0,-0.350403017,-0.382319626,1,0,0,0.8494,button_left,0.8494,1,0,13,13,8,1,1009,NW,"ID",33,aslert,ASLERT,z,,,,,,,,,,,,,,,,,
,,,,,,,,,,,,,,,,,,5db1de78d823e2000a85520b,2020-08-10_16h24.51.358,lexical_decision_task_MP,2020.1.3,Linux armv8l,60,,0,0.282669512,-0.31332353,1,0,0,0.6705,button_right,0.6705,1,0,14,14,3,1,1004,WORD,"ID",50,matrix,MATRIX,m,,,,,,,,,,,,,,,,,
,,,,,,,,,,,,,,,,,,5db1de78d823e2000a85520b,2020-08-10_16h24.51.358,lexical_decision_task_MP,2020.1.3,Linux armv8l,60,,0,0.276493184,-0.34111697,1,0,0,0.7629,button_right,0.7629,0,0,15,15,11,1,1012,NW,"ID",50,rashet,RASHET,z,,,,,,,,,,,,,,,,,
,,-0.044160639,-0.405236994,1,0,0,instr_done_button,,,,,,1,end_of_practice,"You have completed the practice trials. During the experimental trials, you will not receive feedback, but it is very important that you respond as quickly and accurately as possible. 
Before you begin, please ensure that you are in a comfortable and quiet location and will not be disturbed for about 15 minutes, as we cannot use your data if you do not complete all the trials. 
There will be opportunities to take breaks at regular intervals during the experiment. When you are ready to start the experimental trials, please press space or touch the button below.",,,5db1de78d823e2000a85520b,2020-08-10_16h24.51.358,lexical_decision_task_MP,2020.1.3,Linux armv8l,60,,,,,,,,,,,,,,,,,,,,,,,,0,0,0,0,1,,,,,,,,,,,,
,,,,,,,,,,,,,,,,,,5db1de78d823e2000a85520b,2020-08-10_16h24.51.358,lexical_decision_task_MP,2020.1.3,Linux armv8l,60,,0,-0.4116515,-0.382319626,1,0,0,0.9322,button_left,0.9322,1,,,,,,242,NW,UN,50,musied,UNWERT,z,,,,,,-0.4116515,-0.382319626,1,0,0,,0,0,0,421,1,
,,,,,,,,,,,,,,,,,,5db1de78d823e2000a85520b,2020-08-10_16h24.51.358,lexical_decision_task_MP,2020.1.3,Linux armv8l,60,,0,0.260537823,-0.266025951,1,0,0,0.6343,button_right,0.6343,1,,,,,,229,WORD,UN,33,fringe,MOTHER,m,,,,,,0.260537823,-0.266025951,1,0,0,,0,1,1,168,1,
,,,,,,,,,,,,,,,,,,5db1de78d823e2000a85520b,2020-08-10_16h24.51.358,lexical_decision_task_MP,2020.1.3,Linux armv8l,60,,0,0.315095179,-0.320393905,1,0,0,0.519,button_right,0.519,1,,,,,,226,WORD,UN,33,flower,CASINO,m,,,,,,0.315095179,-0.320393905,1,0,0,,0,2,2,165,1,
,,,,,,,,,,,,,,,,,,5db1de78d823e2000a85520b,2020-08-10_16h24.51.358,lexical_decision_task_MP,2020.1.3,Linux armv8l,60,,0,-0.358638097,-0.336484742,1,0,0,0.7487,button_left,0.7487,1,,,,,,399,NW,"ID",50,fouret,FOURET,z,,,,,,-0.358638097,-0.336484742,1,0,0,,0,3,3,338,1,
,,,,,,,,,,,,,,,,,,5db1de78d823e2000a85520b,2020-08-10_16h24.51.358,lexical_decision_task_MP,2020.1.3,Linux armv8l,60,,0,0.287816538,-0.304546764,1,0,0,0.6557,button_right,0.6557,1,,,,,,52,WORD,UN,50,police,IMPOSE,m,,,,,,0.287816538,-0.304546764,1,0,0,,0,4,4,231,1,
,,,,,,,,,,,,,,,,,,5db1de78d823e2000a85520b,2020-08-10_16h24.51.358,lexical_decision_task_MP,2020.1.3,Linux armv8l,60,,0,0.310977677,-0.311129301,1,0,0,0.5864,button_right,0.5864,1,,,,,,35,WORD,UN,50,vanish,SOCKET,m,,,,,,0.310977677,-0.311129301,1,0,0,,0,5,5,214,1,
,,,,,,,,,,,,,,,,,,5db1de78d823e2000a85520b,2020-08-10_16h24.51.358,lexical_decision_task_MP,2020.1.3,Linux armv8l,60,,0,0.308918925,-0.322344215,1,0,0,0.5681,button_right,0.5681,1,,,,,,62,WORD,"ID",33,region,REGION,m,,,,,,0.308918925,-0.322344215,1,0,0,,0,6,6,1,1,
,,,,,,,,,,,,,,,,,,5db1de78d823e2000a85520b,2020-08-10_16h24.51.358,lexical_decision_task_MP,2020.1.3,Linux armv8l,60,,0,0.281125411,-0.242864738,1,0,0,0.7647,button_right,0.7647,1,,,,,,7,WORD,UN,50,abrupt,ANCHOR,m,,,,,,0.281125411,-0.242864738,1,0,0,,0,7,7,186,1,
,,,,,,,,,,,,,,,,,,5db1de78d823e2000a85520b,2020-08-10_16h24.51.358,lexical_decision_task_MP,2020.1.3,Linux armv8l,60,,0,0.296051618,-0.316736758,1,0,0,0.658,button_right,0.658,0,,,,,,402,NW,"ID",50,syntic,SYNTIC,z,,,,,,0.296051618,-0.316736758,1,0,0,,0,8,8,341,1,
,,,,,,,,,,,,,,,,,,5db1de78d823e2000a85520b,2020-08-10_16h24.51.358,lexical_decision_task_MP,2020.1.3,Linux armv8l,60,,0,0.310977677,-0.358914496,1,0,0,0.6586,button_right,0.6586,1,,,,,,44,WORD,UN,50,clergy,DANGER,m,,,,,,0.310977677,-0.358914496,1,0,0,,0,9,9,223,1,
,,,,,,,,,,,,,,,,,,5db1de78d823e2000a85520b,2020-08-10_16h24.51.358,lexical_decision_task_MP,2020.1.3,Linux armv8l,60,,0,-0.381799346,-0.337216127,1,0,0,0.7425,button_left,0.7425,1,,,,,,317,NW,"ID",33,worbal,WORBAL,z,,,,,,-0.381799346,-0.337216127,1,0,0,,0,10,10,256,1,
,,,,,,,,,,,,,,,,,,5db1de78d823e2000a85520b,2020-08-10_16h24.51.358,lexical_decision_task_MP,2020.1.3,Linux armv8l,60,,0,-0.261361131,-0.28674909,1,0,0,0.5993,button_left,0.5993,1,,,,,,441,NW,UN,33,aboune,RASTOE,z,,,,,,-0.261361131,-0.28674909,1,0,0,,0,11,11,380,1,
,,,,,,,,,,,,,,,,,,5db1de78d823e2000a85520b,2020-08-10_16h24.51.358,lexical_decision_task_MP,2020.1.3,Linux armv8l,60,,0,-0.428636421,-0.332340203,1,0,0,0.7406,button_left,0.7406,1,,,,,,450,NW,UN,33,cainky,PHRECT,z,,,,,,-0.428636421,-0.332340203,1,0,0,,0,12,12,389,1,
,,,,,,,,,,,,,,,,,,5db1de78d823e2000a85520b,2020-08-10_16h24.51.358,lexical_decision_task_MP,2020.1.3,Linux armv8l,60,,0,0.325389084,-0.292844161,1,0,0,0.5877,button_right,0.5877,1,,,,,,60,WORD,UN,50,fright,PENCIL,m,,,,,,0.325389084,-0.292844161,1,0,0,,0,13,13,239,1,
,,,,,,,,,,,,,,,,,,5db1de78d823e2000a85520b,2020-08-10_16h24.51.358,lexical_decision_task_MP,2020.1.3,Linux armv8l,60,,0,0.323845132,-0.320149986,1,0,0,0.5616,button_right,0.5616,1,,,,,,100,WORD,"ID",33,carbon,CARBON,m,,,,,,0.323845132,-0.320149986,1,0,0,,0,14,14,39,1,
,,,,,,,,,,,,,,,,,,5db1de78d823e2000a85520b,2020-08-10_16h24.51.358,lexical_decision_task_MP,2020.1.3,Linux armv8l,60,,0,0.323845132,-0.296501308,1,0,0,1.1351,button_right,1.1351,1,,,,,,239,WORD,UN,33,forest,LUMBER,m,,,,,,0.323845132,-0.296501308,1,0,0,,0,15,15,178,1,
,,,,,,,,,,,,,,,,,,5db1de78d823e2000a85520b,2020-08-10_16h24.51.358,lexical_decision_task_MP,2020.1.3,Linux armv8l,60,,0,-0.396210754,-0.374030252,1,0,0,0.9176,button_left,0.9176,1,,,,,,476,NW,UN,33,photie,JOSTED,z,,,,,,-0.396210754,-0.374030252,1,0,0,,0,16,16,415,1,
,,,,,,,,,,,,,,,,,,5db1de78d823e2000a85520b,2020-08-10_16h24.51.358,lexical_decision_task_MP,2020.1.3,Linux armv8l,60,,0,-0.280404767,-0.277240938,1,0,0,1.4269,button_left,1.4269,0,,,,,,240,WORD,UN,33,seldom,FOREST,m,,,,,,-0.280404767,-0.277240938,1,0,0,,0,17,17,179,1,
,,,,,,,,,,,,,,,,,,5db1de78d823e2000a85520b,2020-08-10_16h24.51.358,lexical_decision_task_MP,2020.1.3,Linux armv8l,60,,0,0.333109439,-0.27382771,1,0,0,0.7379,button_right,0.7379,1,,,,,,175,WORD,"ID",50,fabric,FABRIC,m,,,,,,0.333109439,-0.27382771,1,0,0,,0,18,18,114,1,
,,,,,,,,,,,,,,,,,,5db1de78d823e2000a85520b,2020-08-10_16h24.51.358,lexical_decision_task_MP,2020.1.3,Linux armv8l,60,,0,0.32127173,-0.297476389,1,0,0,1.369,button_right,1.369,0,,,,,,285,NW,UN,50,reldon,PRUDGE,z,,,,,,0.32127173,-0.297476389,1,0,0,,0,19,19,464,1,
,,,,,,,,,,,,,,,,,,5db1de78d823e2000a85520b,2020-08-10_16h24.51.358,lexical_decision_task_MP,2020.1.3,Linux armv8l,60,,0,0.279581459,-0.277240938,1,0,0,0.6561,button_right,0.6561,1,,,,,,76,WORD,"ID",33,exotic,EXOTIC,m,,,,,,0.279581459,-0.277240938,1,0,0,,0,20,20,15,1,
,,,,,,,,,,,,,,,,,,5db1de78d823e2000a85520b,2020-08-10_16h24.51.358,lexical_decision_task_MP,2020.1.3,Linux armv8l,60,,0,0.272890332,-0.272364792,1,0,0,0.5374,button_right,0.5374,1,,,,,,65,WORD,"ID",33,symbol,SYMBOL,m,,,,,,0.272890332,-0.272364792,1,0,0,,0,21,21,4,1,
,,,,,,,,,,,,,,,,,,5db1de78d823e2000a85520b,2020-08-10_16h24.51.358,lexical_decision_task_MP,2020.1.3,Linux armv8l,60,,0,-0.477017523,-0.3230756,1,0,0,0.7698,button_left,0.7698,1,,,,,,343,NW,"ID",33,aimosy,AIMOSY,z,,,,,,-0.477017523,-0.3230756,1,0,0,,0,22,22,282,1,
,,,,,,,,,,,,,,,,,,5db1de78d823e2000a85520b,2020-08-10_16h24.51.358,lexical_decision_task_MP,2020.1.3,Linux armv8l,60,,0,-0.256214105,-0.362815338,1,0,0,0.9736,button_left,0.9736,1,,,,,,304,NW,"ID",33,cludie,CLUDIE,z,,,,,,-0.256214105,-0.362815338,1,0,0,,0,23,23,243,1,
,,,,,,,,,,,,,,,,,,5db1de78d823e2000a85520b,2020-08-10_16h24.51.358,lexical_decision_task_MP,2020.1.3,Linux armv8l,60,,0,-0.393122553,-0.291381466,1,0,0,0.9807,button_left,0.9807,1,,,,,,283,NW,UN,50,shaple,VERALF,z,,,,,,-0.393122553,-0.291381466,1,0,0,,0,24,24,462,1,
,,,,,,,,,,,,,,,,,,5db1de78d823e2000a85520b,2020-08-10_16h24.51.358,lexical_decision_task_MP,2020.1.3,Linux armv8l,60,,0,-0.343712001,-0.338435127,1,0,0,0.6986,button_left,0.6986,0,,,,,,33,WORD,UN,50,jungle,BUTLER,m,,,,,,-0.343712001,-0.338435127,1,0,0,,0,25,25,212,1,
,,,,,,,,,,,,,,,,,,5db1de78d823e2000a85520b,2020-08-10_16h24.51.358,lexical_decision_task_MP,2020.1.3,Linux armv8l,60,,0,-0.355035245,-0.336484742,1,0,0,0.6355,button_left,0.6355,1,,,,,,252,NW,UN,50,resait,STAPOD,z,,,,,,-0.355035245,-0.336484742,1,0,0,,0,26,26,431,1,
,,,,,,,,,,,,,,,,,,5db1de78d823e2000a85520b,2020-08-10_16h24.51.358,lexical_decision_task_MP,2020.1.3,Linux armv8l,60,,0,0.316639428,-0.296745004,1,0,0,0.8869,button_right,0.8869,0,,,,,,444,NW,UN,33,minkel,JAUNCE,z,,,,,,0.316639428,-0.296745004,1,0,0,,0,27,27,383,1,
,,,,,,,,,,,,,,,,,,5db1de78d823e2000a85520b,2020-08-10_16h24.51.358,lexical_decision_task_MP,2020.1.3,Linux armv8l,60,,0,-0.383343373,-0.287236704,1,0,0,0.8386,button_left,0.8386,1,,,,,,331,NW,"ID",33,gilfew,GILFEW,z,,,,,,-0.383343373,-0.287236704,1,0,0,,0,28,28,270,1,
,,,,,,,,,,,,,,,,,,5db1de78d823e2000a85520b,2020-08-10_16h24.51.358,lexical_decision_task_MP,2020.1.3,Linux armv8l,60,,0,-0.223273861,-0.296501308,1,0,0,1.1511,button_left,1.1511,1,,,,,,479,NW,UN,33,crible,LOBUSH,z,,,,,,-0.223273861,-0.296501308,1,0,0,,0,29,29,418,1,
,,,,,,,,,,,,,,,,,,5db1de78d823e2000a85520b,2020-08-10_16h24.51.358,lexical_decision_task_MP,2020.1.3,Linux armv8l,60,,0,0.200318716,-0.310397917,1,0,0,0.771,button_right,0.771,1,,,,,,3,WORD,UN,50,trench,KNIGHT,m,,,,,,0.200318716,-0.310397917,1,0,0,,0,30,30,182,1,
,,,,,,,,,,,,,,,,,,5db1de78d823e2000a85520b,2020-08-10_16h24.51.358,lexical_decision_task_MP,2020.1.3,Linux armv8l,60,,0,0.301713221,-0.317711988,1,0,0,0.7542,button_right,0.7542,0,,,,,,325,NW,"ID",33,thruse,THRUSE,z,,,,,,0.301713221,-0.317711988,1,0,0,,0,31,31,264,1,
,,,,,,,,,,,,,,,,,,5db1de78d823e2000a85520b,2020-08-10_16h24.51.358,lexical_decision_task_MP,2020.1.3,Linux armv8l,60,,0,0.208553796,-0.308691303,1,0,0,0.7302,button_right,0.7302,1,,,,,,136,WORD,"ID",50,bleach,BLEACH,m,,,,,,0.208553796,-0.308691303,1,0,0,,0,32,32,75,1,
,,,,,,,,,,,,,,,,,,5db1de78d823e2000a85520b,2020-08-10_16h24.51.358,lexical_decision_task_MP,2020.1.3,Linux armv8l,60,,0,0.267743527,-0.317224373,1,0,0,0.7822,button_right,0.7822,1,,,,,,186,WORD,UN,33,course,PORTAL,m,,,,,,0.267743527,-0.317224373,1,0,0,,0,33,33,125,1,
,,,,,,,,,,,,,,,,,,5db1de78d823e2000a85520b,2020-08-10_16h24.51.358,lexical_decision_task_MP,2020.1.3,Linux armv8l,60,,0,-0.44768002,-0.340385659,1,0,0,0.7721,button_left,0.7721,1,,,,,,387,NW,"ID",50,gronce,GRONCE,z,,,,,,-0.44768002,-0.340385659,1,0,0,,0,34,34,326,1,
,,,,,,,,,,,,,,,,,,5db1de78d823e2000a85520b,2020-08-10_16h24.51.358,lexical_decision_task_MP,2020.1.3,Linux armv8l,60,,0,0.339800492,-0.345505501,1,0,0,0.886,button_right,0.886,1,,,,,,210,WORD,UN,33,infect,MONKEY,m,,,,,,0.339800492,-0.345505501,1,0,0,,0,35,35,149,1,
,,,,,,,,,,,,,,,,,,5db1de78d823e2000a85520b,2020-08-10_16h24.51.358,lexical_decision_task_MP,2020.1.3,Linux armv8l,60,,0,0.340829794,-0.327951672,1,0,0,0.599,button_right,0.599,1,,,,,,158,WORD,"ID",50,island,ISLAND,m,,,,,,0.340829794,-0.327951672,1,0,0,,0,36,36,97,1,
,,,,,,,,,,,,,,,,,,5db1de78d823e2000a85520b,2020-08-10_16h24.51.358,lexical_decision_task_MP,2020.1.3,Linux armv8l,60,,0,-0.399298918,-0.335265817,1,0,0,0.7189,button_left,0.7189,1,,,,,,272,NW,UN,50,sortel,DAMILT,z,,,,,,-0.399298918,-0.335265817,1,0,0,,0,37,37,451,1,
,,,,,,,,,,,,,,,,,,5db1de78d823e2000a85520b,2020-08-10_16h24.51.358,lexical_decision_task_MP,2020.1.3,Linux armv8l,60,,0,-0.330330043,-0.355988882,1,0,0,0.6618,button_left,0.6618,1,,,,,,384,NW,"ID",50,guesco,GUESCO,z,,,,,,-0.330330043,-0.355988882,1,0,0,,0,38,38,323,1,
,,,,,,,,,,,,,,,,,,5db1de78d823e2000a85520b,2020-08-10_16h24.51.358,lexical_decision_task_MP,2020.1.3,Linux armv8l,60,,0,0.386123065,-0.335021899,1,0,0,1.0479,button_right,1.0479,1,,,,,,185,WORD,UN,33,portal,BOTHER,m,,,,,,0.386123065,-0.335021899,1,0,0,,0,39,39,124,1,
,,,,,,,,,,,,,,,,,,5db1de78d823e2000a85520b,2020-08-10_16h24.51.358,lexical_decision_task_MP,2020.1.3,Linux armv8l,60,,0,-0.390549076,-0.341360888,1,0,0,0.7707,button_left,0.7707,1,,,,,,356,NW,"ID",33,othnis,OTHNIS,z,,,,,,-0.390549076,-0.341360888,1,0,0,,0,40,40,295,1,
,,,,,,,,,,,,,,,,,,5db1de78d823e2000a85520b,2020-08-10_16h24.51.358,lexical_decision_task_MP,2020.1.3,Linux armv8l,60,,0,0.320756783,-0.329902056,1,0,0,0.7517,button_right,0.7517,1,,,,,,34,WORD,UN,50,socket,JUNGLE,m,,,,,,0.320756783,-0.329902056,1,0,0,,0,41,41,213,1,
,,,,,,,,,,,,,,,,,,5db1de78d823e2000a85520b,2020-08-10_16h24.51.358,lexical_decision_task_MP,2020.1.3,Linux armv8l,60,,0,0.355241201,-0.316980677,1,0,0,0.6004,button_right,0.6004,1,,,,,,146,WORD,"ID",50,couple,COUPLE,m,,,,,,0.355241201,-0.316980677,1,0,0,,0,42,42,85,1,
,,,,,,,,,,,,,,,,,,5db1de78d823e2000a85520b,2020-08-10_16h24.51.358,lexical_decision_task_MP,2020.1.3,Linux armv8l,60,,0,0.293992867,-0.297720307,1,0,0,0.6829,button_right,0.6829,1,,,,,,108,WORD,"ID",33,reckon,RECKON,m,,,,,,0.293992867,-0.297720307,1,0,0,,0,43,43,47,1,
,,,,,,,,,,,,,,,,,,5db1de78d823e2000a85520b,2020-08-10_16h24.51.358,lexical_decision_task_MP,2020.1.3,Linux armv8l,60,,0,-0.424518881,-0.319174757,1,0,0,0.8488,button_left,0.8488,1,,,,,,472,NW,UN,33,gorbie,CIGNEY,z,,,,,,-0.424518881,-0.319174757,1,0,0,,0,44,44,411,1,
,,,,,,,,,,,,,,,,,,5db1de78d823e2000a85520b,2020-08-10_16h24.51.358,lexical_decision_task_MP,2020.1.3,Linux armv8l,60,,0,-0.360696885,-0.340873274,1,0,0,0.789,button_left,0.789,1,,,,,,410,NW,"ID",50,tunory,TUNORY,z,,,,,,-0.360696885,-0.340873274,1,0,0,,0,45,45,349,1,
,,,,,,,,,,,,,,,,,,5db1de78d823e2000a85520b,2020-08-10_16h24.51.358,lexical_decision_task_MP,2020.1.3,Linux armv8l,60,,0,0.365535106,-0.332827818,1,0,0,0.6537,button_right,0.6537,1,,,,,,11,WORD,UN,50,amount,CRUISE,m,,,,,,0.365535106,-0.332827818,1,0,0,,0,46,46,190,1,
,,,,,,,,,,,,,,,,,,5db1de78d823e2000a85520b,2020-08-10_16h24.51.358,lexical_decision_task_MP,2020.1.3,Linux armv8l,60,,0,0.33619764,-0.316005373,1,0,0,0.5838,button_right,0.5838,1,,,,,,161,WORD,"ID",50,pastor,PASTOR,m,,,,,,0.33619764,-0.316005373,1,0,0,,0,47,47,100,1,
,,,,,,,,,,,,,,,,,,5db1de78d823e2000a85520b,2020-08-10_16h24.51.358,lexical_decision_task_MP,2020.1.3,Linux armv8l,60,,0,-0.319006762,-0.344286502,1,0,0,0.6522,button_left,0.6522,1,,,,,,395,NW,"ID",50,colury,COLURY,z,,,,,,-0.319006762,-0.344286502,1,0,0,,0,48,48,334,1,
,,,,,,,,,,,,,,,,,,5db1de78d823e2000a85520b,2020-08-10_16h24.51.358,lexical_decision_task_MP,2020.1.3,Linux armv8l,60,,0,-0.384372822,-0.343554969,1,0,0,0.6055,button_left,0.6055,1,,,,,,375,NW,"ID",50,yorque,YORQUE,z,,,,,,-0.384372822,-0.343554969,1,0,0,,0,49,49,314,1,
,,,,,,,,,,,,,,,,,,5db1de78d823e2000a85520b,2020-08-10_16h24.51.358,lexical_decision_task_MP,2020.1.3,Linux armv8l,60,,0,0.40979878,-0.316493062,1,0,0,0.8139,button_right,0.8139,0,,,,,,478,NW,UN,33,pebric,ACRISE,z,,,,,,0.40979878,-0.316493062,1,0,0,,0,50,50,417,1,
,,,,,,,,,,,,,,,,,,5db1de78d823e2000a85520b,2020-08-10_16h24.51.358,lexical_decision_task_MP,2020.1.3,Linux armv8l,60,,0,0.347006196,-0.282848395,1,0,0,0.5171,button_right,0.5171,0,,,,,,378,NW,"ID",50,shrile,SHRILE,z,,,,,,0.347006196,-0.282848395,1,0,0,,0,51,51,317,1,
,,,,,,,,,,,,,,,,,,5db1de78d823e2000a85520b,2020-08-10_16h24.51.358,lexical_decision_task_MP,2020.1.3,Linux armv8l,60,,0,0.350609048,-0.291625162,1,0,0,0.5508,button_right,0.5508,1,,,,,,224,WORD,UN,33,vulgar,PERIOD,m,,,,,,0.350609048,-0.291625162,1,0,0,,0,52,52,163,1,
,,,,,,,,,,,,,,,,,,5db1de78d823e2000a85520b,2020-08-10_16h24.51.358,lexical_decision_task_MP,2020.1.3,Linux armv8l,60,,0,0.312006978,-0.284067395,1,0,0,0.6806,button_right,0.6806,0,,,,,,417,NW,"ID",50,earoud,EAROUD,z,,,,,,0.312006978,-0.284067395,1,0,0,,0,53,53,356,1,
,,,,,,,,,,,,,,,,,,5db1de78d823e2000a85520b,2020-08-10_16h24.51.358,lexical_decision_task_MP,2020.1.3,Linux armv8l,60,,0,0.214730124,-0.296257389,1,0,0,0.7459,button_right,0.7459,1,,,,,,193,WORD,UN,33,mildew,OBJECT,m,,,,,,0.214730124,-0.296257389,1,0,0,,0,54,54,132,1,
,,,,,,,,,,,,,,,,,,5db1de78d823e2000a85520b,2020-08-10_16h24.51.358,lexical_decision_task_MP,2020.1.3,Linux armv8l,60,,0,-0.343712001,-0.308447606,1,0,0,0.7299,button_left,0.7299,1,,,,,,261,NW,UN,50,quilew,STUNCH,z,,,,,,-0.343712001,-0.308447606,1,0,0,,0,55,55,440,1,
,,,,,,,,,,,,,,,,,,5db1de78d823e2000a85520b,2020-08-10_16h24.51.358,lexical_decision_task_MP,2020.1.3,Linux armv8l,60,,0,0.35163835,-0.325513747,1,0,0,0.7369,button_right,0.7369,1,,,,,,131,WORD,"ID",50,quench,QUENCH,m,,,,,,0.35163835,-0.325513747,1,0,0,,0,56,56,70,1,
,,,,,,,,,,,,,,,,,,5db1de78d823e2000a85520b,2020-08-10_16h24.51.358,lexical_decision_task_MP,2020.1.3,Linux armv8l,60,,0,0.37119671,-0.312104531,1,0,0,0.9148,button_right,0.9148,1,,,,,,5,WORD,UN,50,bundle,PLUNGE,m,,,,,,0.37119671,-0.312104531,1,0,0,,0,57,57,184,1,
,,,,,,,,,,,,,,,,,,5db1de78d823e2000a85520b,2020-08-10_16h24.51.358,lexical_decision_task_MP,2020.1.3,Linux armv8l,60,,0,0.363476503,-0.319418602,1,0,0,0.5242,button_right,0.5242,1,,,,,,47,WORD,UN,50,walnut,INCOME,m,,,,,,0.363476503,-0.319418602,1,0,0,,0,58,58,226,1,
,,,,,,,,,,,,,,,,,,5db1de78d823e2000a85520b,2020-08-10_16h24.51.358,lexical_decision_task_MP,2020.1.3,Linux armv8l,60,,0,0.390240419,-0.314786448,1,0,0,0.799,button_right,0.799,1,,,,,,72,WORD,"ID",33,bright,BRIGHT,m,,,,,,0.390240419,-0.314786448,1,0,0,,0,59,59,11,1,
,,,,,,,,,,,,,,,,,,5db1de78d823e2000a85520b,2020-08-10_16h24.51.358,lexical_decision_task_MP,2020.1.3,Linux armv8l,60,,0,0.376858313,-0.310397917,1,0,0,0.4633,button_right,0.4633,1,,,,,,12,WORD,UN,50,strive,ORANGE,m,,,,,,0.376858313,-0.310397917,1,0,0,,0,60,60,191,1,
,,,,,,,,,,,,,,,,,,5db1de78d823e2000a85520b,2020-08-10_16h24.51.358,lexical_decision_task_MP,2020.1.3,Linux armv8l,60,,0,0.378917361,-0.31137322,1,0,0,0.5289,button_right,0.5289,1,,,,,,43,WORD,UN,50,foster,TONGUE,m,,,,,,0.378917361,-0.31137322,1,0,0,,0,61,61,222,1,
,,,,,,,,,,,,,,,,,,5db1de78d823e2000a85520b,2020-08-10_16h24.51.358,lexical_decision_task_MP,2020.1.3,Linux armv8l,60,,0,0.402593076,-0.31454253,1,0,0,0.4514,button_right,0.4514,1,,,,,,141,WORD,"ID",50,orphan,ORPHAN,m,,,,,,0.402593076,-0.31454253,1,0,0,,0,62,62,80,1,
,,,,,,,,,,,,,,,,,,5db1de78d823e2000a85520b,2020-08-10_16h24.51.358,lexical_decision_task_MP,2020.1.3,Linux armv8l,60,,0,-0.448709469,-0.394022006,1,0,0,0.9257,button_left,0.9257,1,,,,,,253,NW,UN,50,varosh,RESAIT,z,,,,,,-0.448709469,-0.394022006,1,0,0,,0,63,63,432,1,
,,,,,,,,,,,,,,,,,,5db1de78d823e2000a85520b,2020-08-10_16h24.51.358,lexical_decision_task_MP,2020.1.3,Linux armv8l,60,,0,0.296566343,-0.29308808,1,0,0,1.2203,button_right,1.2203,1,,,,,,95,WORD,"ID",33,thread,THREAD,m,,,,,,0.296566343,-0.29308808,1,0,0,,0,64,64,34,1,
,,,,,,,,,,,,,,,,,,5db1de78d823e2000a85520b,2020-08-10_16h24.51.358,lexical_decision_task_MP,2020.1.3,Linux armv8l,60,,0,0.417004483,-0.361596339,1,0,0,1.505,button_right,1.505,1,,,,,,32,WORD,UN,50,scream,BUCKLE,m,,,,,,0.417004483,-0.361596339,1,0,0,,0,65,65,211,1,
,,,,,,,,,,,,,,,,,,5db1de78d823e2000a85520b,2020-08-10_16h24.51.358,lexical_decision_task_MP,2020.1.3,Linux armv8l,60,,0,0.342888841,-0.356964111,1,0,0,0.587,button_right,0.587,1,,,,,,199,WORD,UN,33,plague,INVOKE,m,,,,,,0.342888841,-0.356964111,1,0,0,,0,66,66,138,1,
,,,,,,,,,,,,,,,,,,5db1de78d823e2000a85520b,2020-08-10_16h24.51.358,lexical_decision_task_MP,2020.1.3,Linux armv8l,60,,0,0.35163835,-0.36598487,1,0,0,0.4689,button_right,0.4689,0,,,,,,296,NW,UN,50,fertic,BEINCH,z,,,,,,0.35163835,-0.36598487,1,0,0,,0,67,67,475,1,
,,,,,,,,,,,,,,,,,,5db1de78d823e2000a85520b,2020-08-10_16h24.51.358,lexical_decision_task_MP,2020.1.3,Linux armv8l,60,,0,-0.325183054,-0.380613012,1,0,0,0.9547,button_left,0.9547,1,,,,,,274,NW,UN,50,sleirt,FUMBLO,z,,,,,,-0.325183054,-0.380613012,1,0,0,,0,68,68,453,1,
,,,,,,,,,,,,,,,,,,5db1de78d823e2000a85520b,2020-08-10_16h24.51.358,lexical_decision_task_MP,2020.1.3,Linux armv8l,60,,0,0.367079355,-0.353550883,1,0,0,0.5706,button_right,0.5706,1,,,,,,149,WORD,"ID",50,invade,INVADE,m,,,,,,0.367079355,-0.353550883,1,0,0,,0,69,69,88,1,
,,,,,,,,,,,,,,,,,,5db1de78d823e2000a85520b,2020-08-10_16h24.51.358,lexical_decision_task_MP,2020.1.3,Linux armv8l,60,,0,-0.437900914,-0.372079942,1,0,0,1.0528,button_left,1.0528,1,,,,,,293,NW,UN,50,inhort,SWANCE,z,,,,,,-0.437900914,-0.372079942,1,0,0,,0,70,70,472,1,
,,,,,,,,,,,,,,,,,,5db1de78d823e2000a85520b,2020-08-10_16h24.51.358,lexical_decision_task_MP,2020.1.3,Linux armv8l,60,,0,0.342888841,-0.33794766,1,0,0,0.8393,button_right,0.8393,1,,,,,,200,WORD,UN,33,admire,BEACON,m,,,,,,0.342888841,-0.33794766,1,0,0,,0,71,71,139,1,
,,,,,,,,,,,,,,,,,,5db1de78d823e2000a85520b,2020-08-10_16h24.51.358,lexical_decision_task_MP,2020.1.3,Linux armv8l,60,,0,0.340829794,-0.341848355,1,0,0,0.5686,button_right,0.5686,1,,,,,,154,WORD,"ID",50,author,AUTHOR,m,,,,,,0.340829794,-0.341848355,1,0,0,,0,72,72,93,1,
,,,,,,,,,,,,,,,,,,5db1de78d823e2000a85520b,2020-08-10_16h24.51.358,lexical_decision_task_MP,2020.1.3,Linux armv8l,60,,0,0.342373894,-0.336484742,1,0,0,0.5519,button_right,0.5519,1,,,,,,174,WORD,"ID",50,turkey,TURKEY,m,,,,,,0.342373894,-0.336484742,1,0,0,,0,73,73,113,1,
,,,,,,,,,,,,,,,,,,5db1de78d823e2000a85520b,2020-08-10_16h24.51.358,lexical_decision_task_MP,2020.1.3,Linux armv8l,60,,0,-0.394151928,-0.366716181,1,0,0,0.7869,button_left,0.7869,1,,,,,,359,NW,"ID",33,fonver,FONVER,z,,,,,,-0.394151928,-0.366716181,1,0,0,,0,74,74,298,1,
,,,,,,,,,,,,,,,,,,5db1de78d823e2000a85520b,2020-08-10_16h24.51.358,lexical_decision_task_MP,2020.1.3,Linux armv8l,60,,0,0.332080286,-0.329658286,1,0,0,0.8721,button_right,0.8721,1,,,,,,90,WORD,"ID",33,relish,RELISH,m,,,,,,0.332080286,-0.329658286,1,0,0,,0,75,75,29,1,
,,,,,,,,,,,,,,,,,,5db1de78d823e2000a85520b,2020-08-10_16h24.51.358,lexical_decision_task_MP,2020.1.3,Linux armv8l,60,,0,-0.329300593,-0.361108724,1,0,0,1.1052,button_left,1.1052,1,,,,,,452,NW,UN,33,bolvis,SURDEN,z,,,,,,-0.329300593,-0.361108724,1,0,0,,0,76,76,391,1,
,,,,,,,,,,,,,,,,,,5db1de78d823e2000a85520b,2020-08-10_16h24.51.358,lexical_decision_task_MP,2020.1.3,Linux armv8l,60,,0,-0.323639027,-0.31454253,1,0,0,0.9175,button_left,0.9175,1,,,,,,330,NW,"ID",33,kensom,KENSOM,z,,,,,,-0.323639027,-0.31454253,1,0,0,,0,77,77,269,1,
,,,,,,,,,,,,,,,,,,5db1de78d823e2000a85520b,2020-08-10_16h24.51.358,lexical_decision_task_MP,2020.1.3,Linux armv8l,60,,0,-0.322609614,-0.372811327,1,0,0,1.2173,button_left,1.2173,0,,,,,,212,WORD,UN,33,squeal,VERIFY,m,,,,,,-0.322609614,-0.372811327,1,0,0,,0,78,78,151,1,
,,,,,,,,,,,,,,,,,,5db1de78d823e2000a85520b,2020-08-10_16h24.51.358,lexical_decision_task_MP,2020.1.3,Linux armv8l,60,,0,0.334653688,-0.343554969,1,0,0,0.9876,button_right,0.9876,0,,,,,,413,NW,"ID",50,equats,EQUATS,z,,,,,,0.334653688,-0.343554969,1,0,0,,0,79,79,352,1,
,,,,,,,,,,,,,,,,,,5db1de78d823e2000a85520b,2020-08-10_16h24.51.358,lexical_decision_task_MP,2020.1.3,Linux armv8l,60,,0,0.333109439,-0.343554969,1,0,0,0.5997,button_right,0.5997,1,,,,,,235,WORD,UN,33,pirate,GRUMPY,m,,,,,,0.333109439,-0.343554969,1,0,0,,0,80,80,174,1,
,,,,,,,,,,,,,,,,,,5db1de78d823e2000a85520b,2020-08-10_16h24.51.358,lexical_decision_task_MP,2020.1.3,Linux armv8l,60,,0,0.355756,-0.315274063,1,0,0,0.5157,button_right,0.5157,1,,,,,,28,WORD,UN,50,sketch,COMEDY,m,,,,,,0.355756,-0.315274063,1,0,0,,0,81,81,207,1,
,,,,,,,,,,,,,,,,,,5db1de78d823e2000a85520b,2020-08-10_16h24.51.358,lexical_decision_task_MP,2020.1.3,Linux armv8l,60,,0,-0.349888329,-0.306009459,1,0,0,0.8533,button_left,0.8533,1,,,,,,406,NW,"ID",50,nouply,NOUPLY,z,,,,,,-0.349888329,-0.306009459,1,0,0,,0,82,82,345,1,
,,,,,,,,,,,,,,,,,,5db1de78d823e2000a85520b,2020-08-10_16h24.51.358,lexical_decision_task_MP,2020.1.3,Linux armv8l,60,,0,0.343403344,-0.3242946,1,0,0,0.8652,button_right,0.8652,1,,,,,,128,WORD,"ID",50,senior,SENIOR,m,,,,,,0.343403344,-0.3242946,1,0,0,,0,83,83,67,1,
,,,,,,,,,,,,,,,,,,5db1de78d823e2000a85520b,2020-08-10_16h24.51.358,lexical_decision_task_MP,2020.1.3,Linux armv8l,60,,0,-0.338565123,-0.345505501,1,0,0,0.9481,button_left,0.9481,1,,,,,,442,NW,UN,33,dorsex,ABOUNE,z,,,,,,-0.338565123,-0.345505501,1,0,0,,0,84,84,381,1,
,,,,,,,,,,,,,,,,,,5db1de78d823e2000a85520b,2020-08-10_16h24.51.358,lexical_decision_task_MP,2020.1.3,Linux armv8l,60,,0,0.356270799,-0.323319518,1,0,0,0.9313,button_right,0.9313,1,,,,,,172,WORD,"ID",50,patrol,PATROL,m,,,,,,0.356270799,-0.323319518,1,0,0,,0,85,85,111,1,
,,,,,,,,,,,,,,,,,,5db1de78d823e2000a85520b,2020-08-10_16h24.51.358,lexical_decision_task_MP,2020.1.3,Linux armv8l,60,,0,-0.341653287,-0.337703742,1,0,0,0.9865,button_left,0.9865,1,,,,,,322,NW,"ID",33,slanch,SLANCH,z,,,,,,-0.341653287,-0.337703742,1,0,0,,0,86,86,261,1,
,,,,,,,,,,,,,,,,,,5db1de78d823e2000a85520b,2020-08-10_16h24.51.358,lexical_decision_task_MP,2020.1.3,Linux armv8l,60,,0,0.301713221,-0.266513565,1,0,0,0.8368,button_right,0.8368,1,,,,,,143,WORD,"ID",50,reason,REASON,m,,,,,,0.301713221,-0.266513565,1,0,0,,0,87,87,82,1,
,,,,,,,,,,,,,,,,,,5db1de78d823e2000a85520b,2020-08-10_16h24.51.358,lexical_decision_task_MP,2020.1.3,Linux armv8l,60,,0,-0.348344303,-0.373055023,1,0,0,0.8026,button_left,0.8026,1,,,,,,408,NW,"ID",50,hurnia,HURNIA,z,,,,,,-0.348344303,-0.373055023,1,0,0,,0,88,88,347,1,
,,,,,,,,,,,,,,,,,,5db1de78d823e2000a85520b,2020-08-10_16h24.51.358,lexical_decision_task_MP,2020.1.3,Linux armv8l,60,,0,0.295536819,-0.347212116,1,0,0,0.8408,button_right,0.8408,1,,,,,,213,WORD,UN,33,intake,SQUEAL,m,,,,,,0.295536819,-0.347212116,1,0,0,,0,89,89,152,1,
,,,,,,,,,,,,,,,,,,5db1de78d823e2000a85520b,2020-08-10_16h24.51.358,lexical_decision_task_MP,2020.1.3,Linux armv8l,60,,0,0.282669512,-0.285042476,1,0,0,0.6879,button_right,0.6879,1,,,,,,156,WORD,"ID",50,cradle,CRADLE,m,,,,,,0.282669512,-0.285042476,1,0,0,,0,90,90,95,1,
,,,,,,,,,,,,,,,,,,5db1de78d823e2000a85520b,2020-08-10_16h24.51.358,lexical_decision_task_MP,2020.1.3,Linux armv8l,60,,0,0.39693162,-0.31454253,1,0,0,0.7059,button_right,0.7059,1,,,,,,164,WORD,"ID",50,market,MARKET,m,,,,,,0.39693162,-0.31454253,1,0,0,,0,91,91,103,1,
,,,,,,,,,,,,,,,,,,5db1de78d823e2000a85520b,2020-08-10_16h24.51.358,lexical_decision_task_MP,2020.1.3,Linux armv8l,60,,0,-0.390034389,-0.359646029,1,0,0,0.748,button_left,0.748,1,,,,,,297,NW,UN,50,piergy,FERTIC,z,,,,,,-0.390034389,-0.359646029,1,0,0,,0,92,92,476,1,
,,,,,,,,,,,,,,,,,,5db1de78d823e2000a85520b,2020-08-10_16h24.51.358,lexical_decision_task_MP,2020.1.3,Linux armv8l,60,,0,0.350609048,-0.31990629,1,0,0,0.9376,button_right,0.9376,1,,,,,,8,WORD,UN,50,hustle,ABRUPT,m,,,,,,0.350609048,-0.31990629,1,0,0,,0,93,93,187,1,
,,,,,,,,,,,,,,,,,,5db1de78d823e2000a85520b,2020-08-10_16h24.51.358,lexical_decision_task_MP,2020.1.3,Linux armv8l,60,,0,0.395902171,-0.314298759,1,0,0,1.3734,button_right,1.3734,0,,,,,,277,NW,UN,50,unighs,PETAIN,z,,,,,,0.395902171,-0.314298759,1,0,0,,0,94,94,456,1,
,,,,,,,,,,,,,,,,,,5db1de78d823e2000a85520b,2020-08-10_16h24.51.358,lexical_decision_task_MP,2020.1.3,Linux armv8l,60,,0,-0.371505441,-0.332827818,1,0,0,0.9154,button_left,0.9154,1,,,,,,299,NW,UN,50,yarion,STURCH,z,,,,,,-0.371505441,-0.332827818,1,0,0,,0,95,95,478,1,
,,,,,,,,,,,,,,,,,,5db1de78d823e2000a85520b,2020-08-10_16h24.51.358,lexical_decision_task_MP,2020.1.3,Linux armv8l,60,,0,0.389210969,-0.318930987,1,0,0,0.6687,button_right,0.6687,1,,,,,,9,WORD,UN,50,bridge,HUSTLE,m,,,,,,0.389210969,-0.318930987,1,0,0,,0,96,96,188,1,
,,,,,,,,,,,,,,,,,,5db1de78d823e2000a85520b,2020-08-10_16h24.51.358,lexical_decision_task_MP,2020.1.3,Linux armv8l,60,,0,-0.36687325,-0.345017813,1,0,0,0.8343,button_left,0.8343,1,,,,,,458,NW,UN,33,hocite,BARCET,z,,,,,,-0.36687325,-0.345017813,1,0,0,,0,97,97,397,1,
,,,,,,,,,,,,,,,,,,5db1de78d823e2000a85520b,2020-08-10_16h24.51.358,lexical_decision_task_MP,2020.1.3,Linux armv8l,60,,0,0.297595719,-0.324050829,1,0,0,0.9167,button_right,0.9167,1,,,,,,68,WORD,"ID",33,fumble,FUMBLE,m,,,,,,0.297595719,-0.324050829,1,0,0,,0,98,98,7,1,
,,,,,,,,,,,,,,,,,,5db1de78d823e2000a85520b,2020-08-10_16h24.51.358,lexical_decision_task_MP,2020.1.3,Linux armv8l,60,,0,0.41494588,-0.310397917,1,0,0,0.9837,button_right,0.9837,1,,,,,,219,WORD,UN,33,voyage,BUCKET,m,,,,,,0.41494588,-0.310397917,1,0,0,,0,99,99,158,1,
,,,,,,,,,,,,,,,,,,5db1de78d823e2000a85520b,2020-08-10_16h24.51.358,lexical_decision_task_MP,2020.1.3,Linux armv8l,60,,0,-0.345770827,-0.307228459,1,0,0,0.8445,button_left,0.8445,1,,,,,,268,NW,UN,50,orchet,PACKES,z,,,,,,-0.345770827,-0.307228459,1,0,0,,0,100,100,447,1,
,,,,,,,,,,,,,,,,,,5db1de78d823e2000a85520b,2020-08-10_16h24.51.358,lexical_decision_task_MP,2020.1.3,Linux armv8l,60,,0,0.386123065,-0.313567449,1,0,0,0.7162,button_right,0.7162,1,,,,,,38,WORD,UN,50,insect,POWDER,m,,,,,,0.386123065,-0.313567449,1,0,0,,0,101,101,217,1,
,,,,,,,,,,,,,,,,,,5db1de78d823e2000a85520b,2020-08-10_16h24.51.358,lexical_decision_task_MP,2020.1.3,Linux armv8l,60,,0,0.319727481,-0.30162115,1,0,0,1.1203,button_right,1.1203,1,,,,,,114,WORD,"ID",33,placid,PLACID,m,,,,,,0.319727481,-0.30162115,1,0,0,,0,102,102,53,1,
,,,,,,,,,,,,,,,,,,5db1de78d823e2000a85520b,2020-08-10_16h24.51.358,lexical_decision_task_MP,2020.1.3,Linux armv8l,60,,0,-0.372020129,-0.36062111,1,0,0,1.255,button_left,1.255,1,,,,,,430,NW,UN,33,chrums,CAROEY,z,,,,,,-0.372020129,-0.36062111,1,0,0,,0,103,103,369,1,
,,,,,,,,,,,,,,,,,,5db1de78d823e2000a85520b,2020-08-10_16h24.51.358,lexical_decision_task_MP,2020.1.3,Linux armv8l,60,,0,-0.351947155,-0.344042584,1,0,0,0.6998,button_left,0.6998,1,,,,,,257,NW,UN,50,poluth,VENIOD,z,,,,,,-0.351947155,-0.344042584,1,0,0,,0,104,104,436,1,
,,,,,,,,,,,,,,,,,,5db1de78d823e2000a85520b,2020-08-10_16h24.51.358,lexical_decision_task_MP,2020.1.3,Linux armv8l,60,,0,0.278552083,-0.287724319,1,0,0,0.7072,button_right,0.7072,1,,,,,,211,WORD,UN,33,verify,INFECT,m,,,,,,0.278552083,-0.287724319,1,0,0,,0,105,105,150,1,
,,,,,,,,,,,,,,,,,,5db1de78d823e2000a85520b,2020-08-10_16h24.51.358,lexical_decision_task_MP,2020.1.3,Linux armv8l,60,,0,0.332080286,-0.282604477,1,0,0,0.6563,button_right,0.6563,1,,,,,,81,WORD,"ID",33,friend,FRIEND,m,,,,,,0.332080286,-0.282604477,1,0,0,,0,106,106,20,1,
,,,,,,,,,,,,,,,,,,5db1de78d823e2000a85520b,2020-08-10_16h24.51.358,lexical_decision_task_MP,2020.1.3,Linux armv8l,60,,0,-0.401357632,-0.356476497,1,0,0,0.7021,button_left,0.7021,1,,,,,,255,NW,UN,50,inlors,APIGHT,z,,,,,,-0.401357632,-0.356476497,1,0,0,,0,107,107,434,1,
,,,,,,,,,,,,,,,,,,5db1de78d823e2000a85520b,2020-08-10_16h24.51.358,lexical_decision_task_MP,2020.1.3,Linux armv8l,60,,0,0.347006196,-0.282116862,1,0,0,0.7637,button_right,0.7637,1,,,,,,166,WORD,"ID",50,starch,STARCH,m,,,,,,0.347006196,-0.282116862,1,0,0,,0,108,108,105,1,
,,,,,,,,,,,,,,,,,,5db1de78d823e2000a85520b,2020-08-10_16h24.51.358,lexical_decision_task_MP,2020.1.3,Linux armv8l,60,,0,0.328477434,-0.260174798,1,0,0,0.8085,button_right,0.8085,0,,,,,,432,NW,UN,33,drance,LUNKER,z,,,,,,0.328477434,-0.260174798,1,0,0,,0,109,109,371,1,
,,,,,,,,,,,,,,,,,,5db1de78d823e2000a85520b,2020-08-10_16h24.51.358,lexical_decision_task_MP,2020.1.3,Linux armv8l,60,,0,-0.378711145,-0.355745186,1,0,0,0.7661,button_left,0.7661,1,,,,,,468,NW,UN,33,padifs,WICTOR,z,,,,,,-0.378711145,-0.355745186,1,0,0,,0,110,110,407,1,
,,,,,,,,,,,,,,,,,,5db1de78d823e2000a85520b,2020-08-10_16h24.51.358,lexical_decision_task_MP,2020.1.3,Linux armv8l,60,,0,-0.378196494,-0.312104531,1,0,0,0.7998,button_left,0.7998,1,,,,,,474,NW,UN,33,acrise,HABLIN,z,,,,,,-0.378196494,-0.312104531,1,0,0,,0,111,111,413,1,
,,,,,,,,,,,,,,,,,,5db1de78d823e2000a85520b,2020-08-10_16h24.51.358,lexical_decision_task_MP,2020.1.3,Linux armv8l,60,,0,-0.350403017,-0.329902056,1,0,0,0.7963,button_left,0.7963,1,,,,,,429,NW,UN,33,caroey,FUNTLE,z,,,,,,-0.350403017,-0.329902056,1,0,0,,0,112,112,368,1,
,,,,,,,,,,,,,,,,,,5db1de78d823e2000a85520b,2020-08-10_16h24.51.358,lexical_decision_task_MP,2020.1.3,Linux armv8l,60,,0,0.376858313,-0.298695388,1,0,0,0.6849,button_right,0.6849,1,,,,,,6,WORD,UN,50,anchor,BUNDLE,m,,,,,,0.376858313,-0.298695388,1,0,0,,0,113,113,185,1,
,,,,,,,,,,,,,,,,,,5db1de78d823e2000a85520b,2020-08-10_16h24.51.358,lexical_decision_task_MP,2020.1.3,Linux armv8l,60,,0,-0.361726261,-0.34891873,1,0,0,1.3705,button_left,1.3705,1,,,,,,328,NW,"ID",33,broake,BROAKE,z,,,,,,-0.361726261,-0.34891873,1,0,0,,0,114,114,267,1,
,,,,,,,,,,,,,,,,,,5db1de78d823e2000a85520b,2020-08-10_16h24.51.358,lexical_decision_task_MP,2020.1.3,Linux armv8l,60,,0,-0.373049505,-0.319174757,1,0,0,1.0378,button_left,1.0378,1,,,,,,281,NW,UN,50,porlex,MELATY,z,,,,,,-0.373049505,-0.319174757,1,0,0,,0,115,115,460,1,
,,,,,,,,,,,,,,,,,,5db1de78d823e2000a85520b,2020-08-10_16h24.51.358,lexical_decision_task_MP,2020.1.3,Linux armv8l,60,,0,-0.335476922,-0.345993116,1,0,0,0.908,button_left,0.908,1,,,,,,437,NW,UN,33,baitch,SNAPEL,z,,,,,,-0.335476922,-0.345993116,1,0,0,,0,116,116,376,1,
,,,,,,,,,,,,,,,,,,5db1de78d823e2000a85520b,2020-08-10_16h24.51.358,lexical_decision_task_MP,2020.1.3,Linux armv8l,60,,0,-0.358638097,-0.330145975,1,0,0,0.8167,button_left,0.8167,1,,,,,,443,NW,UN,33,jaunce,DORSEX,z,,,,,,-0.358638097,-0.330145975,1,0,0,,0,117,117,382,1,
,,,,,,,,,,,,,,,,,,5db1de78d823e2000a85520b,2020-08-10_16h24.51.358,lexical_decision_task_MP,2020.1.3,Linux armv8l,60,,0,-0.371505441,-0.352088039,1,0,0,1.0571,button_left,1.0571,1,,,,,,421,NW,UN,33,alcoud,KNISMA,z,,,,,,-0.371505441,-0.352088039,1,0,0,,0,118,118,360,1,
,,,,,,,,,,,,,,,,,,5db1de78d823e2000a85520b,2020-08-10_16h24.51.358,lexical_decision_task_MP,2020.1.3,Linux armv8l,60,,0,0.368108805,-0.325757443,1,0,0,0.8044,button_right,0.8044,1,,,,,,16,WORD,UN,50,charge,FAUCET,m,,,,,,0.368108805,-0.325757443,1,0,0,,0,119,119,195,1,
,,,,,,,,,,,,,,,,,,5db1de78d823e2000a85520b,2020-08-10_16h24.51.358,lexical_decision_task_MP,2020.1.3,Linux armv8l,60,,0,0.344947445,-0.322100519,1,0,0,0.5837,button_right,0.5837,1,,,,,,84,WORD,"ID",33,mortal,MORTAL,m,,,,,,0.072159999,-0.404749306,1,0,0,,0,120,120,23,1,break_done_button
,,,,,,,,,,,,,,,,,,5db1de78d823e2000a85520b,2020-08-10_16h24.51.358,lexical_decision_task_MP,2020.1.3,Linux armv8l,60,,0,0.388181668,-0.3325839,1,0,0,0.8886,button_right,0.8886,0,,,,,,284,NW,UN,50,prudge,SHAPLE,z,,,,,,0.388181668,-0.3325839,1,0,0,,0,121,121,463,1,
,,,,,,,,,,,,,,,,,,5db1de78d823e2000a85520b,2020-08-10_16h24.51.358,lexical_decision_task_MP,2020.1.3,Linux armv8l,60,,0,-0.291728047,-0.357207882,1,0,0,0.7221,button_left,0.7221,1,,,,,,418,NW,"ID",50,suidle,SUIDLE,z,,,,,,-0.291728047,-0.357207882,1,0,0,,0,122,122,357,1,
,,,,,,,,,,,,,,,,,,5db1de78d823e2000a85520b,2020-08-10_16h24.51.358,lexical_decision_task_MP,2020.1.3,Linux armv8l,60,,0,-0.326212429,-0.391584082,1,0,0,1.4734,button_left,1.4734,1,,,,,,250,NW,UN,50,lupict,MILTED,z,,,,,,-0.326212429,-0.391584082,1,0,0,,0,123,123,429,1,
,,,,,,,,,,,,,,,,,,5db1de78d823e2000a85520b,2020-08-10_16h24.51.358,lexical_decision_task_MP,2020.1.3,Linux armv8l,60,,0,-0.249523126,-0.324050829,1,0,0,0.7224,button_left,0.7224,1,,,,,,300,NW,UN,50,smenco,YARION,z,,,,,,-0.249523126,-0.324050829,1,0,0,,0,124,124,479,1,
,,,,,,,,,,,,,,,,,,5db1de78d823e2000a85520b,2020-08-10_16h24.51.358,lexical_decision_task_MP,2020.1.3,Linux armv8l,60,,0,-0.300477852,-0.334290514,1,0,0,0.8863,button_left,0.8863,1,,,,,,435,NW,UN,33,frutan,IMPURB,z,,,,,,-0.300477852,-0.334290514,1,0,0,,0,125,125,374,1,
,,,,,,,,,,,,,,,,,,5db1de78d823e2000a85520b,2020-08-10_16h24.51.358,lexical_decision_task_MP,2020.1.3,Linux armv8l,60,,0,-0.292757349,-0.317955758,1,0,0,0.8523,button_left,0.8523,1,,,,,,324,NW,"ID",33,steikh,STEIKH,z,,,,,,-0.292757349,-0.317955758,1,0,0,,0,126,126,263,1,
,,,,,,,,,,,,,,,,,,5db1de78d823e2000a85520b,2020-08-10_16h24.51.358,lexical_decision_task_MP,2020.1.3,Linux armv8l,60,,0,0.33516819,-0.349893959,1,0,0,0.6219,button_right,0.6219,0,,,,,,376,NW,"ID",50,iguare,IGUARE,z,,,,,,0.33516819,-0.349893959,1,0,0,,0,127,127,315,1,
,,,,,,,,,,,,,,,,,,5db1de78d823e2000a85520b,2020-08-10_16h24.51.358,lexical_decision_task_MP,2020.1.3,Linux armv8l,60,,0,0.332594788,-0.316493062,1,0,0,0.5237,button_right,0.5237,1,,,,,,233,WORD,UN,33,clumsy,NATURE,m,,,,,,0.332594788,-0.316493062,1,0,0,,0,128,128,172,1,
,,,,,,,,,,,,,,,,,,5db1de78d823e2000a85520b,2020-08-10_16h24.51.358,lexical_decision_task_MP,2020.1.3,Linux armv8l,60,,0,0.361932255,-0.353307187,1,0,0,0.5172,button_right,0.5172,1,,,,,,129,WORD,"ID",50,marvel,MARVEL,m,,,,,,0.361932255,-0.353307187,1,0,0,,0,129,129,68,1,
,,,,,,,,,,,,,,,,,,5db1de78d823e2000a85520b,2020-08-10_16h24.51.358,lexical_decision_task_MP,2020.1.3,Linux armv8l,60,,0,0.348035498,-0.342335969,1,0,0,0.5017,button_right,0.5017,1,,,,,,137,WORD,"ID",50,finger,FINGER,m,,,,,,0.348035498,-0.342335969,1,0,0,,0,130,130,76,1,
,,,,,,,,,,,,,,,,,,5db1de78d823e2000a85520b,2020-08-10_16h24.51.358,lexical_decision_task_MP,2020.1.3,Linux armv8l,60,,0,0.314580528,-0.337460046,1,0,0,0.5628,button_right,0.5628,1,,,,,,14,WORD,UN,50,orange,ALMOST,m,,,,,,0.314580528,-0.337460046,1,0,0,,0,131,131,193,1,
,,,,,,,,,,,,,,,,,,5db1de78d823e2000a85520b,2020-08-10_16h24.51.358,lexical_decision_task_MP,2020.1.3,Linux armv8l,60,,0,-0.287610471,-0.353063269,1,0,0,1.1417,button_left,1.1417,1,,,,,,338,NW,"ID",33,wreash,WREASH,z,,,,,,-0.287610471,-0.353063269,1,0,0,,0,132,132,277,1,
,,,,,,,,,,,,,,,,,,5db1de78d823e2000a85520b,2020-08-10_16h24.51.358,lexical_decision_task_MP,2020.1.3,Linux armv8l,60,,0,0.377373112,-0.315030144,1,0,0,0.7314,button_right,0.7314,1,,,,,,130,WORD,"ID",50,stupid,STUPID,m,,,,,,0.377373112,-0.315030144,1,0,0,,0,133,133,69,1,
,,,,,,,,,,,,,,,,,,5db1de78d823e2000a85520b,2020-08-10_16h24.51.358,lexical_decision_task_MP,2020.1.3,Linux armv8l,60,,0,-0.336506297,-0.395728621,1,0,0,0.8382,button_left,0.8382,1,,,,,,315,NW,"ID",33,laston,LASTON,z,,,,,,-0.336506297,-0.395728621,1,0,0,,0,134,134,254,1,
,,,,,,,,,,,,,,,,,,5db1de78d823e2000a85520b,2020-08-10_16h24.51.358,lexical_decision_task_MP,2020.1.3,Linux armv8l,60,,0,0.37119671,-0.29503839,1,0,0,0.7384,button_right,0.7384,1,,,,,,96,WORD,"ID",33,ignore,IGNORE,m,,,,,,0.37119671,-0.29503839,1,0,0,,0,135,135,35,1,
,,,,,,,,,,,,,,,,,,5db1de78d823e2000a85520b,2020-08-10_16h24.51.358,lexical_decision_task_MP,2020.1.3,Linux armv8l,60,,0,-0.295845476,-0.389633549,1,0,0,0.618,button_left,0.618,1,,,,,,360,NW,"ID",33,desory,DESORY,z,,,,,,-0.295845476,-0.389633549,1,0,0,,0,136,136,299,1,
,,,,,,,,,,,,,,,,,,5db1de78d823e2000a85520b,2020-08-10_16h24.51.358,lexical_decision_task_MP,2020.1.3,Linux armv8l,60,,0,0.367079355,-0.306740992,1,0,0,0.6876,button_right,0.6876,1,,,,,,89,WORD,"ID",33,permit,PERMIT,m,,,,,,0.367079355,-0.306740992,1,0,0,,0,137,137,28,1,
,,,,,,,,,,,,,,,,,,5db1de78d823e2000a85520b,2020-08-10_16h24.51.358,lexical_decision_task_MP,2020.1.3,Linux armv8l,60,,0,-0.347314853,-0.342335969,1,0,0,0.7296,button_left,0.7296,1,,,,,,366,NW,"ID",50,toshel,TOSHEL,z,,,,,,-0.347314853,-0.342335969,1,0,0,,0,138,138,305,1,
,,,,,,,,,,,,,,,,,,5db1de78d823e2000a85520b,2020-08-10_16h24.51.358,lexical_decision_task_MP,2020.1.3,Linux armv8l,60,,0,0.256420247,-0.347943426,1,0,0,0.6626,button_right,0.6626,1,,,,,,39,WORD,UN,50,convey,INSECT,m,,,,,,0.256420247,-0.347943426,1,0,0,,0,139,139,218,1,
,,,,,,,,,,,,,,,,,,5db1de78d823e2000a85520b,2020-08-10_16h24.51.358,lexical_decision_task_MP,2020.1.3,Linux armv8l,60,,0,-0.294301524,-0.338191356,1,0,0,0.6907,button_left,0.6907,1,,,,,,412,NW,"ID",50,jiluer,JILUER,z,,,,,,-0.294301524,-0.338191356,1,0,0,,0,140,140,351,1,
,,,,,,,,,,,,,,,,,,5db1de78d823e2000a85520b,2020-08-10_16h24.51.358,lexical_decision_task_MP,2020.1.3,Linux armv8l,60,,0,-0.253640777,-0.341604585,1,0,0,1.2554,button_left,1.2554,1,,,,,,355,NW,"ID",33,zingly,ZINGLY,z,,,,,,-0.253640777,-0.341604585,1,0,0,,0,141,141,294,1,
,,,,,,,,,,,,,,,,,,5db1de78d823e2000a85520b,2020-08-10_16h24.51.358,lexical_decision_task_MP,2020.1.3,Linux armv8l,60,,0,0.385093615,-0.288211934,1,0,0,0.8029,button_right,0.8029,1,,,,,,202,WORD,UN,33,phrase,FACTOR,m,,,,,,0.385093615,-0.288211934,1,0,0,,0,142,142,141,1,
,,,,,,,,,,,,,,,,,,5db1de78d823e2000a85520b,2020-08-10_16h24.51.358,lexical_decision_task_MP,2020.1.3,Linux armv8l,60,,0,0.407225229,-0.338435127,1,0,0,1.2219,button_right,1.2219,1,,,,,,64,WORD,"ID",33,throne,THRONE,m,,,,,,0.407225229,-0.338435127,1,0,0,,0,143,143,3,1,
,,,,,,,,,,,,,,,,,,5db1de78d823e2000a85520b,2020-08-10_16h24.51.358,lexical_decision_task_MP,2020.1.3,Linux armv8l,60,,0,0.220906452,-0.294063161,1,0,0,0.5553,button_right,0.5553,1,,,,,,194,WORD,UN,33,resign,ABSENT,m,,,,,,0.220906452,-0.294063161,1,0,0,,0,144,144,133,1,
,,,,,,,,,,,,,,,,,,5db1de78d823e2000a85520b,2020-08-10_16h24.51.358,lexical_decision_task_MP,2020.1.3,Linux armv8l,60,,0,0.293992867,-0.294550775,1,0,0,0.75,button_right,0.75,1,,,,,,50,WORD,UN,50,hungry,SNATCH,m,,,,,,0.293992867,-0.294550775,1,0,0,,0,145,145,229,1,
,,,,,,,,,,,,,,,,,,5db1de78d823e2000a85520b,2020-08-10_16h24.51.358,lexical_decision_task_MP,2020.1.3,Linux armv8l,60,,0,-0.313345159,-0.36891041,1,0,0,0.8063,button_left,0.8063,1,,,,,,263,NW,UN,50,vackel,DOLICA,z,,,,,,-0.313345159,-0.36891041,1,0,0,,0,146,146,442,1,
,,,,,,,,,,,,,,,,,,5db1de78d823e2000a85520b,2020-08-10_16h24.51.358,lexical_decision_task_MP,2020.1.3,Linux armv8l,60,,0,-0.365329113,-0.339410356,1,0,0,0.7703,button_left,0.7703,1,,,,,,336,NW,"ID",33,ghodus,GHODUS,z,,,,,,-0.365329113,-0.339410356,1,0,0,,0,147,147,275,1,
,,,,,,,,,,,,,,,,,,5db1de78d823e2000a85520b,2020-08-10_16h24.51.358,lexical_decision_task_MP,2020.1.3,Linux armv8l,60,,0,0.307889475,-0.34111697,1,0,0,0.6348,button_right,0.6348,1,,,,,,51,WORD,UN,50,impose,HUNGRY,m,,,,,,0.307889475,-0.34111697,1,0,0,,0,148,148,230,1,
,,,,,,,,,,,,,,,,,,5db1de78d823e2000a85520b,2020-08-10_16h24.51.358,lexical_decision_task_MP,2020.1.3,Linux armv8l,60,,0,0.291933967,-0.321612904,1,0,0,0.5593,button_right,0.5593,1,,,,,,148,WORD,"ID",50,custom,CUSTOM,m,,,,,,0.291933967,-0.321612904,1,0,0,,0,149,149,87,1,
,,,,,,,,,,,,,,,,,,5db1de78d823e2000a85520b,2020-08-10_16h24.51.358,lexical_decision_task_MP,2020.1.3,Linux armv8l,60,,0,-0.354005869,-0.370129409,1,0,0,0.7409,button_left,0.7409,1,,,,,,347,NW,"ID",33,kerift,KERIFT,z,,,,,,-0.354005869,-0.370129409,1,0,0,,0,150,150,286,1,
,,,,,,,,,,,,,,,,,,5db1de78d823e2000a85520b,2020-08-10_16h24.51.358,lexical_decision_task_MP,2020.1.3,Linux armv8l,60,,0,-0.291213323,-0.380125398,1,0,0,0.6683,button_left,0.6683,1,,,,,,273,NW,UN,50,fumblo,SORTEL,z,,,,,,-0.291213323,-0.380125398,1,0,0,,0,151,151,452,1,
,,,,,,,,,,,,,,,,,,5db1de78d823e2000a85520b,2020-08-10_16h24.51.358,lexical_decision_task_MP,2020.1.3,Linux armv8l,60,,0,-0.303565905,-0.367447566,1,0,0,0.7217,button_left,0.7217,1,,,,,,245,NW,UN,50,piaton,ANOUGS,z,,,,,,-0.303565905,-0.367447566,1,0,0,,0,152,152,424,1,
,,,,,,,,,,,,,,,,,,5db1de78d823e2000a85520b,2020-08-10_16h24.51.358,lexical_decision_task_MP,2020.1.3,Linux armv8l,60,,0,0.357814752,-0.334046818,1,0,0,0.6831,button_right,0.6831,1,,,,,,36,WORD,UN,50,insult,VANISH,m,,,,,,0.357814752,-0.334046818,1,0,0,,0,153,153,215,1,
,,,,,,,,,,,,,,,,,,5db1de78d823e2000a85520b,2020-08-10_16h24.51.358,lexical_decision_task_MP,2020.1.3,Linux armv8l,60,,0,0.353697397,-0.337460046,1,0,0,1.2019,button_right,1.2019,1,,,,,,25,WORD,UN,50,sprint,DOMAIN,m,,,,,,0.353697397,-0.337460046,1,0,0,,0,154,154,204,1,
,,,,,,,,,,,,,,,,,,5db1de78d823e2000a85520b,2020-08-10_16h24.51.358,lexical_decision_task_MP,2020.1.3,Linux armv8l,60,,0,0.345462244,-0.312348301,1,0,0,0.5374,button_right,0.5374,1,,,,,,18,WORD,UN,50,patron,HUMBLE,m,,,,,,0.345462244,-0.312348301,1,0,0,,0,155,155,197,1,
,,,,,,,,,,,,,,,,,,5db1de78d823e2000a85520b,2020-08-10_16h24.51.358,lexical_decision_task_MP,2020.1.3,Linux armv8l,60,,0,-0.295845476,-0.333559203,1,0,0,0.7542,button_left,0.7542,1,,,,,,465,NW,UN,33,bafent,WHIVEX,z,,,,,,-0.295845476,-0.333559203,1,0,0,,0,156,156,404,1,
,,,,,,,,,,,,,,,,,,5db1de78d823e2000a85520b,2020-08-10_16h24.51.358,lexical_decision_task_MP,2020.1.3,Linux armv8l,60,,0,-0.335476922,-0.303815231,1,0,0,1.1683,button_left,1.1683,1,,,,,,397,NW,"ID",50,camble,CAMBLE,z,,,,,,-0.335476922,-0.303815231,1,0,0,,0,157,157,336,1,
,,,,,,,,,,,,,,,,,,5db1de78d823e2000a85520b,2020-08-10_16h24.51.358,lexical_decision_task_MP,2020.1.3,Linux armv8l,60,,0,0.453547802,-0.355257497,1,0,0,1.0351,button_right,1.0351,1,,,,,,227,WORD,UN,33,master,SELDOM,m,,,,,,0.453547802,-0.355257497,1,0,0,,0,158,158,166,1,
,,,,,,,,,,,,,,,,,,5db1de78d823e2000a85520b,2020-08-10_16h24.51.358,lexical_decision_task_MP,2020.1.3,Linux armv8l,60,,0,0.420092536,-0.342579888,1,0,0,0.5873,button_right,0.5873,0,,,,,,248,NW,UN,50,batrol,STROLE,z,,,,,,0.420092536,-0.342579888,1,0,0,,0,159,159,427,1,
,,,,,,,,,,,,,,,,,,5db1de78d823e2000a85520b,2020-08-10_16h24.51.358,lexical_decision_task_MP,2020.1.3,Linux armv8l,60,,0,0.386123065,-0.340629355,1,0,0,0.7641,button_right,0.7641,1,,,,,,1,WORD,UN,50,ethnic,FRIGHT,m,,,,,,0.386123065,-0.340629355,1,0,0,,0,160,160,180,1,
,,,,,,,,,,,,,,,,,,5db1de78d823e2000a85520b,2020-08-10_16h24.51.358,lexical_decision_task_MP,2020.1.3,Linux armv8l,60,,0,-0.351947155,-0.379881479,1,0,0,0.8204,button_left,0.8204,1,,,,,,457,NW,UN,33,barcet,WANIGH,z,,,,,,-0.351947155,-0.379881479,1,0,0,,0,161,161,396,1,
,,,,,,,,,,,,,,,,,,5db1de78d823e2000a85520b,2020-08-10_16h24.51.358,lexical_decision_task_MP,2020.1.3,Linux armv8l,60,,0,-0.338565123,-0.347943426,1,0,0,0.8727,button_left,0.8727,1,,,,,,319,NW,"ID",33,zomber,ZOMBER,z,,,,,,-0.338565123,-0.347943426,1,0,0,,0,162,162,258,1,
,,,,,,,,,,,,,,,,,,5db1de78d823e2000a85520b,2020-08-10_16h24.51.358,lexical_decision_task_MP,2020.1.3,Linux armv8l,60,,0,-0.285551645,-0.327464057,1,0,0,0.8529,button_left,0.8529,0,,,,,,183,WORD,UN,33,sleazy,MILDEW,m,,,,,,-0.285551645,-0.327464057,1,0,0,,0,163,163,122,1,
,,,,,,,,,,,,,,,,,,5db1de78d823e2000a85520b,2020-08-10_16h24.51.358,lexical_decision_task_MP,2020.1.3,Linux armv8l,60,,0,0.335683137,-0.345993116,1,0,0,1.0431,button_right,1.0431,0,,,,,,473,NW,UN,33,hablin,CRIBLE,z,,,,,,0.335683137,-0.345993116,1,0,0,,0,164,164,412,1,
,,,,,,,,,,,,,,,,,,5db1de78d823e2000a85520b,2020-08-10_16h24.51.358,lexical_decision_task_MP,2020.1.3,Linux armv8l,60,,0,0.3542119,-0.340629355,1,0,0,0.5564,button_right,0.5564,1,,,,,,21,WORD,UN,50,jockey,SIMPLE,m,,,,,,0.3542119,-0.340629355,1,0,0,,0,165,165,200,1,
,,,,,,,,,,,,,,,,,,5db1de78d823e2000a85520b,2020-08-10_16h24.51.358,lexical_decision_task_MP,2020.1.3,Linux armv8l,60,,0,0.323845132,-0.302108617,1,0,0,0.7725,button_right,0.7725,1,,,,,,220,WORD,UN,33,mascot,VOYAGE,m,,,,,,0.323845132,-0.302108617,1,0,0,,0,166,166,159,1,
,,,,,,,,,,,,,,,,,,5db1de78d823e2000a85520b,2020-08-10_16h24.51.358,lexical_decision_task_MP,2020.1.3,Linux armv8l,60,,0,0.397446123,-0.328683057,1,0,0,0.8039,button_right,0.8039,0,,,,,,312,NW,"ID",33,nerawl,NERAWL,z,,,,,,0.397446123,-0.328683057,1,0,0,,0,167,167,251,1,
,,,,,,,,,,,,,,,,,,5db1de78d823e2000a85520b,2020-08-10_16h24.51.358,lexical_decision_task_MP,2020.1.3,Linux armv8l,60,,0,0.42729824,-0.321856601,1,0,0,0.5367,button_right,0.5367,1,,,,,,119,WORD,"ID",33,spider,SPIDER,m,,,,,,0.42729824,-0.321856601,1,0,0,,0,168,168,58,1,
,,,,,,,,,,,,,,,,,,5db1de78d823e2000a85520b,2020-08-10_16h24.51.358,lexical_decision_task_MP,2020.1.3,Linux armv8l,60,,0,-0.312830434,-0.328439361,1,0,0,0.8952,button_left,0.8952,1,,,,,,471,NW,UN,33,cigney,NOBEST,z,,,,,,-0.312830434,-0.328439361,1,0,0,,0,169,169,410,1,
,,,,,,,,,,,,,,,,,,5db1de78d823e2000a85520b,2020-08-10_16h24.51.358,lexical_decision_task_MP,2020.1.3,Linux armv8l,60,,0,-0.27731664,-0.33794766,1,0,0,0.5844,button_left,0.5844,0,,,,,,45,WORD,UN,50,single,CLERGY,m,,,,,,-0.27731664,-0.33794766,1,0,0,,0,170,170,224,1,
,,,,,,,,,,,,,,,,,,5db1de78d823e2000a85520b,2020-08-10_16h24.51.358,lexical_decision_task_MP,2020.1.3,Linux armv8l,60,,0,-0.292757349,-0.363302953,1,0,0,0.8857,button_left,0.8857,1,,,,,,414,NW,"ID",50,serbol,SERBOL,z,,,,,,-0.292757349,-0.363302953,1,0,0,,0,171,171,353,1,
,,,,,,,,,,,,,,,,,,5db1de78d823e2000a85520b,2020-08-10_16h24.51.358,lexical_decision_task_MP,2020.1.3,Linux armv8l,60,,0,0.344432646,-0.320149986,1,0,0,1.0377,button_right,1.0377,1,,,,,,86,WORD,"ID",33,rodent,RODENT,m,,,,,,0.344432646,-0.320149986,1,0,0,,0,172,172,25,1,
,,,,,,,,,,,,,,,,,,5db1de78d823e2000a85520b,2020-08-10_16h24.51.358,lexical_decision_task_MP,2020.1.3,Linux armv8l,60,,0,0.33825654,-0.333559203,1,0,0,0.4711,button_right,0.4711,0,,,,,,396,NW,"ID",50,flengy,FLENGY,z,,,,,,0.33825654,-0.333559203,1,0,0,,0,173,173,335,1,
,,,,,,,,,,,,,,,,,,5db1de78d823e2000a85520b,2020-08-10_16h24.51.358,lexical_decision_task_MP,2020.1.3,Linux armv8l,60,,0,-0.279890116,-0.329170671,1,0,0,1.2089,button_left,1.2089,1,,,,,,271,NW,UN,50,damilt,AUBRID,z,,,,,,-0.279890116,-0.329170671,1,0,0,,0,174,174,450,1,
,,,,,,,,,,,,,,,,,,5db1de78d823e2000a85520b,2020-08-10_16h24.51.358,lexical_decision_task_MP,2020.1.3,Linux armv8l,60,,0,0.347006196,-0.312104531,1,0,0,0.6741,button_right,0.6741,1,,,,,,59,WORD,UN,50,pencil,SPLINT,m,,,,,,0.347006196,-0.312104531,1,0,0,,0,175,175,238,1,
,,,,,,,,,,,,,,,,,,5db1de78d823e2000a85520b,2020-08-10_16h24.51.358,lexical_decision_task_MP,2020.1.3,Linux armv8l,60,,0,0.344432646,-0.319174757,1,0,0,0.5318,button_right,0.5318,1,,,,,,188,WORD,UN,33,censor,SOCIAL,m,,,,,,0.344432646,-0.319174757,1,0,0,,0,176,176,127,1,
,,,,,,,,,,,,,,,,,,5db1de78d823e2000a85520b,2020-08-10_16h24.51.358,lexical_decision_task_MP,2020.1.3,Linux armv8l,60,,0,0.384064017,-0.303083846,1,0,0,0.4632,button_right,0.4632,1,,,,,,208,WORD,UN,33,search,HOCKEY,m,,,,,,0.384064017,-0.303083846,1,0,0,,0,177,177,147,1,
,,,,,,,,,,,,,,,,,,5db1de78d823e2000a85520b,2020-08-10_16h24.51.358,lexical_decision_task_MP,2020.1.3,Linux armv8l,60,,0,-0.336506297,-0.361352643,1,0,0,0.8094,button_left,0.8094,1,,,,,,381,NW,"ID",50,huniek,HUNIEK,z,,,,,,-0.336506297,-0.361352643,1,0,0,,0,178,178,320,1,
,,,,,,,,,,,,,,,,,,5db1de78d823e2000a85520b,2020-08-10_16h24.51.358,lexical_decision_task_MP,2020.1.3,Linux armv8l,60,,0,0.351123699,-0.307959992,1,0,0,0.738,button_right,0.738,1,,,,,,13,WORD,UN,50,almost,STRIVE,m,,,,,,0.351123699,-0.307959992,1,0,0,,0,179,179,192,1,
,,,,,,,,,,,,,,,,,,5db1de78d823e2000a85520b,2020-08-10_16h24.51.358,lexical_decision_task_MP,2020.1.3,Linux armv8l,60,,0,0.385608118,-0.31454253,1,0,0,0.6015,button_right,0.6015,1,,,,,,147,WORD,"ID",50,garlic,GARLIC,m,,,,,,0.385608118,-0.31454253,1,0,0,,0,180,180,86,1,
,,,,,,,,,,,,,,,,,,5db1de78d823e2000a85520b,2020-08-10_16h24.51.358,lexical_decision_task_MP,2020.1.3,Linux armv8l,60,,0,-0.356064695,-0.358670725,1,0,0,0.9571,button_left,0.9571,1,,,,,,265,NW,UN,50,varmit,DISTAR,z,,,,,,-0.356064695,-0.358670725,1,0,0,,0,181,181,444,1,
,,,,,,,,,,,,,,,,,,5db1de78d823e2000a85520b,2020-08-10_16h24.51.358,lexical_decision_task_MP,2020.1.3,Linux armv8l,60,,0,0.367079355,-0.288211934,1,0,0,0.5955,button_right,0.5955,1,,,,,,101,WORD,"ID",33,wrench,WRENCH,m,,,,,,0.367079355,-0.288211934,1,0,0,,0,182,182,40,1,
,,,,,,,,,,,,,,,,,,5db1de78d823e2000a85520b,2020-08-10_16h24.51.358,lexical_decision_task_MP,2020.1.3,Linux armv8l,60,,0,-0.338050435,-0.306984688,1,0,0,0.836,button_left,0.836,1,,,,,,308,NW,"ID",33,psetch,PSETCH,z,,,,,,-0.338050435,-0.306984688,1,0,0,,0,183,183,247,1,
,,,,,,,,,,,,,,,,,,5db1de78d823e2000a85520b,2020-08-10_16h24.51.358,lexical_decision_task_MP,2020.1.3,Linux armv8l,60,,0,0.369137958,-0.276021939,1,0,0,0.6114,button_right,0.6114,1,,,,,,204,WORD,UN,33,lounge,BURDEN,m,,,,,,0.369137958,-0.276021939,1,0,0,,0,184,184,143,1,
,,,,,,,,,,,,,,,,,,5db1de78d823e2000a85520b,2020-08-10_16h24.51.358,lexical_decision_task_MP,2020.1.3,Linux armv8l,60,,0,-0.248493824,-0.296988774,1,0,0,1.023,button_left,1.023,1,,,,,,404,NW,"ID",50,cluirm,CLUIRM,z,,,,,,-0.248493824,-0.296988774,1,0,0,,0,185,185,343,1,
,,,,,,,,,,,,,,,,,,5db1de78d823e2000a85520b,2020-08-10_16h24.51.358,lexical_decision_task_MP,2020.1.3,Linux armv8l,60,,0,-0.349373679,-0.300645847,1,0,0,0.7715,button_left,0.7715,1,,,,,,264,NW,UN,50,distar,VACKEL,z,,,,,,-0.349373679,-0.300645847,1,0,0,,0,186,186,443,1,
,,,,,,,,,,,,,,,,,,5db1de78d823e2000a85520b,2020-08-10_16h24.51.358,lexical_decision_task_MP,2020.1.3,Linux armv8l,60,,0,-0.337535747,-0.300158232,1,0,0,0.9034,button_left,0.9034,1,,,,,,311,NW,"ID",33,sproly,SPROLY,z,,,,,,-0.337535747,-0.300158232,1,0,0,,0,187,187,250,1,
,,,,,,,,,,,,,,,,,,5db1de78d823e2000a85520b,2020-08-10_16h24.51.358,lexical_decision_task_MP,2020.1.3,Linux armv8l,60,,0,-0.334447583,-0.330877286,1,0,0,0.8453,button_left,0.8453,1,,,,,,339,NW,"ID",33,fachow,FACHOW,z,,,,,,-0.334447583,-0.330877286,1,0,0,,0,188,188,278,1,
,,,,,,,,,,,,,,,,,,5db1de78d823e2000a85520b,2020-08-10_16h24.51.358,lexical_decision_task_MP,2020.1.3,Linux armv8l,60,,0,0.330021238,-0.305521845,1,0,0,0.5194,button_right,0.5194,1,,,,,,46,WORD,UN,50,income,SINGLE,m,,,,,,0.330021238,-0.305521845,1,0,0,,0,189,189,225,1,
,,,,,,,,,,,,,,,,,,5db1de78d823e2000a85520b,2020-08-10_16h24.51.358,lexical_decision_task_MP,2020.1.3,Linux armv8l,60,,0,0.419063235,-0.299914536,1,0,0,0.4859,button_right,0.4859,1,,,,,,187,WORD,UN,33,social,COURSE,m,,,,,,0.419063235,-0.299914536,1,0,0,,0,190,190,126,1,
,,,,,,,,,,,,,,,,,,5db1de78d823e2000a85520b,2020-08-10_16h24.51.358,lexical_decision_task_MP,2020.1.3,Linux armv8l,60,,0,0.410313578,-0.315761529,1,0,0,0.455,button_right,0.455,1,,,,,,162,WORD,"ID",50,candle,CANDLE,m,,,,,,0.410313578,-0.315761529,1,0,0,,0,191,191,101,1,
,,,,,,,,,,,,,,,,,,5db1de78d823e2000a85520b,2020-08-10_16h24.51.358,lexical_decision_task_MP,2020.1.3,Linux armv8l,60,,0,0.441709648,-0.298451618,1,0,0,0.444,button_right,0.444,1,,,,,,153,WORD,"ID",50,behold,BEHOLD,m,,,,,,0.441709648,-0.298451618,1,0,0,,0,192,192,92,1,
,,,,,,,,,,,,,,,,,,5db1de78d823e2000a85520b,2020-08-10_16h24.51.358,lexical_decision_task_MP,2020.1.3,Linux armv8l,60,,0,0.432445193,-0.31137322,1,0,0,0.3829,button_right,0.3829,1,,,,,,209,WORD,UN,33,monkey,SEARCH,m,,,,,,0.432445193,-0.31137322,1,0,0,,0,193,193,148,1,
,,,,,,,,,,,,,,,,,,5db1de78d823e2000a85520b,2020-08-10_16h24.51.358,lexical_decision_task_MP,2020.1.3,Linux armv8l,60,,0,0.459723908,-0.31015422,1,0,0,0.4042,button_right,0.4042,1,,,,,,67,WORD,"ID",33,policy,POLICY,m,,,,,,0.459723908,-0.31015422,1,0,0,,0,194,194,6,1,
,,,,,,,,,,,,,,,,,,5db1de78d823e2000a85520b,2020-08-10_16h24.51.358,lexical_decision_task_MP,2020.1.3,Linux armv8l,60,,0,0.340829794,-0.30162115,1,0,0,0.7557,button_right,0.7557,0,,,,,,357,NW,"ID",33,derain,DERAIN,z,,,,,,0.340829794,-0.30162115,1,0,0,,0,195,195,296,1,
,,,,,,,,,,,,,,,,,,5db1de78d823e2000a85520b,2020-08-10_16h24.51.358,lexical_decision_task_MP,2020.1.3,Linux armv8l,60,,0,-0.373049505,-0.340385659,1,0,0,0.7683,button_left,0.7683,1,,,,,,394,NW,"ID",50,spaqux,SPAQUX,z,,,,,,-0.373049505,-0.340385659,1,0,0,,0,196,196,333,1,
,,,,,,,,,,,,,,,,,,5db1de78d823e2000a85520b,2020-08-10_16h24.51.358,lexical_decision_task_MP,2020.1.3,Linux armv8l,60,,0,0.369137958,-0.302596231,1,0,0,0.6574,button_right,0.6574,1,,,,,,83,WORD,"ID",33,result,RESULT,m,,,,,,0.369137958,-0.302596231,1,0,0,,0,197,197,22,1,
,,,,,,,,,,,,,,,,,,5db1de78d823e2000a85520b,2020-08-10_16h24.51.358,lexical_decision_task_MP,2020.1.3,Linux armv8l,60,,0,-0.353491181,-0.349406344,1,0,0,0.9512,button_left,0.9512,1,,,,,,434,NW,UN,33,impurb,PITROM,z,,,,,,-0.353491181,-0.349406344,1,0,0,,0,198,198,373,1,
,,,,,,,,,,,,,,,,,,5db1de78d823e2000a85520b,2020-08-10_16h24.51.358,lexical_decision_task_MP,2020.1.3,Linux armv8l,60,,0,0.359873651,-0.325757443,1,0,0,0.5767,button_right,0.5767,0,,,,,,352,NW,"ID",33,tringe,TRINGE,z,,,,,,0.359873651,-0.325757443,1,0,0,,0,199,199,291,1,
,,,,,,,,,,,,,,,,,,5db1de78d823e2000a85520b,2020-08-10_16h24.51.358,lexical_decision_task_MP,2020.1.3,Linux armv8l,60,,0,0.341344593,-0.300645847,1,0,0,0.6531,button_right,0.6531,1,,,,,,150,WORD,"ID",50,random,RANDOM,m,,,,,,0.341344593,-0.300645847,1,0,0,,0,200,200,89,1,
,,,,,,,,,,,,,,,,,,5db1de78d823e2000a85520b,2020-08-10_16h24.51.358,lexical_decision_task_MP,2020.1.3,Linux armv8l,60,,0,0.398990224,-0.3242946,1,0,0,0.4715,button_right,0.4715,1,,,,,,124,WORD,"ID",50,blouse,BLOUSE,m,,,,,,0.398990224,-0.3242946,1,0,0,,0,201,201,63,1,
,,,,,,,,,,,,,,,,,,5db1de78d823e2000a85520b,2020-08-10_16h24.51.358,lexical_decision_task_MP,2020.1.3,Linux armv8l,60,,0,0.426268939,-0.302352461,1,0,0,0.5184,button_right,0.5184,0,,,,,,358,NW,"ID",33,fleack,FLEACK,z,,,,,,0.426268939,-0.302352461,1,0,0,,0,202,202,297,1,
,,,,,,,,,,,,,,,,,,5db1de78d823e2000a85520b,2020-08-10_16h24.51.358,lexical_decision_task_MP,2020.1.3,Linux armv8l,60,,0,-0.30562473,-0.336728513,1,0,0,0.9049,button_left,0.9049,1,,,,,,251,NW,UN,50,stapod,LUPICT,z,,,,,,-0.30562473,-0.336728513,1,0,0,,0,203,203,430,1,
,,,,,,,,,,,,,,,,,,5db1de78d823e2000a85520b,2020-08-10_16h24.51.358,lexical_decision_task_MP,2020.1.3,Linux armv8l,60,,0,0.369137958,-0.318443372,1,0,0,0.6468,button_right,0.6468,1,,,,,,103,WORD,"ID",33,bounce,BOUNCE,m,,,,,,0.369137958,-0.318443372,1,0,0,,0,204,204,42,1,
,,,,,,,,,,,,,,,,,,5db1de78d823e2000a85520b,2020-08-10_16h24.51.358,lexical_decision_task_MP,2020.1.3,Linux armv8l,60,,0,0.433989293,-0.288455704,1,0,0,0.5561,button_right,0.5561,1,,,,,,85,WORD,"ID",33,sprawl,SPRAWL,m,,,,,,0.433989293,-0.288455704,1,0,0,,0,205,205,24,1,
,,,,,,,,,,,,,,,,,,5db1de78d823e2000a85520b,2020-08-10_16h24.51.358,lexical_decision_task_MP,2020.1.3,Linux armv8l,60,,0,0.395387372,-0.310885531,1,0,0,0.5332,button_right,0.5332,1,,,,,,170,WORD,"ID",50,pounce,POUNCE,m,,,,,,0.395387372,-0.310885531,1,0,0,,0,206,206,109,1,
,,,,,,,,,,,,,,,,,,5db1de78d823e2000a85520b,2020-08-10_16h24.51.358,lexical_decision_task_MP,2020.1.3,Linux armv8l,60,,0,0.421636637,-0.293575546,1,0,0,0.6573,button_right,0.6573,1,,,,,,120,WORD,"ID",33,strain,STRAIN,m,,,,,,0.421636637,-0.293575546,1,0,0,,0,207,207,59,1,
,,,,,,,,,,,,,,,,,,5db1de78d823e2000a85520b,2020-08-10_16h24.51.358,lexical_decision_task_MP,2020.1.3,Linux armv8l,60,,0,-0.378196494,-0.370129409,1,0,0,0.7488,button_left,0.7488,1,,,,,,320,NW,"ID",33,jockal,JOCKAL,z,,,,,,-0.378196494,-0.370129409,1,0,0,,0,208,208,259,1,
,,,,,,,,,,,,,,,,,,5db1de78d823e2000a85520b,2020-08-10_16h24.51.358,lexical_decision_task_MP,2020.1.3,Linux armv8l,60,,0,-0.356064695,-0.355013801,1,0,0,0.8342,button_left,0.8342,0,,,,,,191,WORD,UN,33,beacon,STABLE,m,,,,,,-0.356064695,-0.355013801,1,0,0,,0,209,209,130,1,
,,,,,,,,,,,,,,,,,,5db1de78d823e2000a85520b,2020-08-10_16h24.51.358,lexical_decision_task_MP,2020.1.3,Linux armv8l,60,,0,-0.278345941,-0.312104531,1,0,0,0.7715,button_left,0.7715,1,,,,,,400,NW,"ID",50,wearox,WEAROX,z,,,,,,-0.278345941,-0.312104531,1,0,0,,0,210,210,339,1,
,,,,,,,,,,,,,,,,,,5db1de78d823e2000a85520b,2020-08-10_16h24.51.358,lexical_decision_task_MP,2020.1.3,Linux armv8l,60,,0,0.386123065,-0.323807133,1,0,0,0.4895,button_right,0.4895,1,,,,,,88,WORD,"ID",33,hunger,HUNGER,m,,,,,,0.386123065,-0.323807133,1,0,0,,0,211,211,27,1,
,,,,,,,,,,,,,,,,,,5db1de78d823e2000a85520b,2020-08-10_16h24.51.358,lexical_decision_task_MP,2020.1.3,Linux armv8l,60,,0,0.412886833,-0.29503839,1,0,0,0.5012,button_right,0.5012,1,,,,,,179,WORD,"ID",50,basket,BASKET,m,,,,,,0.412886833,-0.29503839,1,0,0,,0,212,212,118,1,
,,,,,,,,,,,,,,,,,,5db1de78d823e2000a85520b,2020-08-10_16h24.51.358,lexical_decision_task_MP,2020.1.3,Linux armv8l,60,,0,0.405681129,-0.311129301,1,0,0,0.5449,button_right,0.5449,1,,,,,,56,WORD,UN,50,change,AMBUSH,m,,,,,,0.405681129,-0.311129301,1,0,0,,0,213,213,235,1,
,,,,,,,,,,,,,,,,,,5db1de78d823e2000a85520b,2020-08-10_16h24.51.358,lexical_decision_task_MP,2020.1.3,Linux armv8l,60,,0,0.356785302,-0.309422687,1,0,0,0.8942,button_right,0.8942,1,,,,,,30,WORD,UN,50,weapon,ORIENT,m,,,,,,0.356785302,-0.309422687,1,0,0,,0,214,214,209,1,
,,,,,,,,,,,,,,,,,,5db1de78d823e2000a85520b,2020-08-10_16h24.51.358,lexical_decision_task_MP,2020.1.3,Linux armv8l,60,,0,0.390240419,-0.320393905,1,0,0,0.5373,button_right,0.5373,0,,,,,,448,NW,UN,33,brunge,SADENT,z,,,,,,0.390240419,-0.320393905,1,0,0,,0,215,215,387,1,
,,,,,,,,,,,,,,,,,,5db1de78d823e2000a85520b,2020-08-10_16h24.51.358,lexical_decision_task_MP,2020.1.3,Linux armv8l,60,,0,0.398475425,-0.319418602,1,0,0,0.483,button_right,0.483,0,,,,,,292,NW,UN,50,swance,ABLINT,z,,,,,,0.398475425,-0.319418602,1,0,0,,0,216,216,471,1,
,,,,,,,,,,,,,,,,,,5db1de78d823e2000a85520b,2020-08-10_16h24.51.358,lexical_decision_task_MP,2020.1.3,Linux armv8l,60,,0,0.407225229,-0.303327764,1,0,0,0.5815,button_right,0.5815,0,,,,,,334,NW,"ID",33,watmeg,WATMEG,z,,,,,,0.407225229,-0.303327764,1,0,0,,0,217,217,273,1,
,,,,,,,,,,,,,,,,,,5db1de78d823e2000a85520b,2020-08-10_16h24.51.358,lexical_decision_task_MP,2020.1.3,Linux armv8l,60,,0,-0.320550863,-0.344530198,1,0,0,0.9181,button_left,0.9181,1,,,,,,260,NW,UN,50,stunch,UNJECT,z,,,,,,-0.320550863,-0.344530198,1,0,0,,0,218,218,439,1,
,,,,,,,,,,,,,,,,,,5db1de78d823e2000a85520b,2020-08-10_16h24.51.358,lexical_decision_task_MP,2020.1.3,Linux armv8l,60,,0,0.413401631,-0.31990629,1,0,0,0.9879,button_right,0.9879,1,,,,,,48,WORD,UN,50,survey,WALNUT,m,,,,,,0.413401631,-0.31990629,1,0,0,,0,219,219,227,1,
,,,,,,,,,,,,,,,,,,5db1de78d823e2000a85520b,2020-08-10_16h24.51.358,lexical_decision_task_MP,2020.1.3,Linux armv8l,60,,0,0.476708866,-0.333071514,1,0,0,0.5208,button_right,0.5208,1,,,,,,167,WORD,"ID",50,design,DESIGN,m,,,,,,0.476708866,-0.333071514,1,0,0,,0,220,220,106,1,
,,,,,,,,,,,,,,,,,,5db1de78d823e2000a85520b,2020-08-10_16h24.51.358,lexical_decision_task_MP,2020.1.3,Linux armv8l,60,,0,0.417519282,-0.312835916,1,0,0,0.4493,button_right,0.4493,1,,,,,,106,WORD,"ID",33,ransom,RANSOM,m,,,,,,0.417519282,-0.312835916,1,0,0,,0,221,221,45,1,
,,,,,,,,,,,,,,,,,,5db1de78d823e2000a85520b,2020-08-10_16h24.51.358,lexical_decision_task_MP,2020.1.3,Linux armv8l,60,,0,-0.354520557,-0.344530198,1,0,0,0.7553,button_left,0.7553,1,,,,,,369,NW,"ID",50,wronch,WRONCH,z,,,,,,-0.354520557,-0.344530198,1,0,0,,0,222,222,308,1,
,,,,,,,,,,,,,,,,,,5db1de78d823e2000a85520b,2020-08-10_16h24.51.358,lexical_decision_task_MP,2020.1.3,Linux armv8l,60,,0,0.339800492,-0.333559203,1,0,0,0.6545,button_right,0.6545,1,,,,,,198,WORD,UN,33,invoke,WICKED,m,,,,,,0.339800492,-0.333559203,1,0,0,,0,223,223,137,1,
,,,,,,,,,,,,,,,,,,5db1de78d823e2000a85520b,2020-08-10_16h24.51.358,lexical_decision_task_MP,2020.1.3,Linux armv8l,60,,0,0.407225229,-0.337703742,1,0,0,1.2456,button_right,1.2456,1,,,,,,71,WORD,"ID",33,garden,GARDEN,m,,,,,,0.407225229,-0.337703742,1,0,0,,0,224,224,10,1,
,,,,,,,,,,,,,,,,,,5db1de78d823e2000a85520b,2020-08-10_16h24.51.358,lexical_decision_task_MP,2020.1.3,Linux armv8l,60,,0,0.379946514,-0.3313649,1,0,0,0.6529,button_right,0.6529,1,,,,,,181,WORD,UN,33,winter,GLANCE,m,,,,,,0.379946514,-0.3313649,1,0,0,,0,225,225,120,1,
,,,,,,,,,,,,,,,,,,5db1de78d823e2000a85520b,2020-08-10_16h24.51.358,lexical_decision_task_MP,2020.1.3,Linux armv8l,60,,0,0.400019525,-0.340873274,1,0,0,0.6354,button_right,0.6354,1,,,,,,15,WORD,UN,50,faucet,AMOUNT,m,,,,,,0.400019525,-0.340873274,1,0,0,,0,226,226,194,1,
,,,,,,,,,,,,,,,,,,5db1de78d823e2000a85520b,2020-08-10_16h24.51.358,lexical_decision_task_MP,2020.1.3,Linux armv8l,60,,0,0.433474643,-0.329902056,1,0,0,0.7868,button_right,0.7868,1,,,,,,98,WORD,"ID",33,belong,BELONG,m,,,,,,0.433474643,-0.329902056,1,0,0,,0,227,227,37,1,
,,,,,,,,,,,,,,,,,,5db1de78d823e2000a85520b,2020-08-10_16h24.51.358,lexical_decision_task_MP,2020.1.3,Linux armv8l,60,,0,-0.365329113,-0.380125398,1,0,0,0.7207,button_left,0.7207,1,,,,,,329,NW,"ID",33,yarike,YARIKE,z,,,,,,-0.365329113,-0.380125398,1,0,0,,0,228,228,268,1,
,,,,,,,,,,,,,,,,,,5db1de78d823e2000a85520b,2020-08-10_16h24.51.358,lexical_decision_task_MP,2020.1.3,Linux armv8l,60,,0,0.355756,-0.326732747,1,0,0,0.6626,button_right,0.6626,1,,,,,,31,WORD,UN,50,buckle,WEAPON,m,,,,,,0.355756,-0.326732747,1,0,0,,0,229,229,210,1,
,,,,,,,,,,,,,,,,,,5db1de78d823e2000a85520b,2020-08-10_16h24.51.358,lexical_decision_task_MP,2020.1.3,Linux armv8l,60,,0,-0.356579382,-0.287236704,1,0,0,1.3054,button_left,1.3054,1,,,,,,348,NW,"ID",33,dumple,DUMPLE,z,,,,,,-0.356579382,-0.287236704,1,0,0,,0,230,230,287,1,
,,,,,,,,,,,,,,,,,,5db1de78d823e2000a85520b,2020-08-10_16h24.51.358,lexical_decision_task_MP,2020.1.3,Linux armv8l,60,,0,-0.324668366,-0.341604585,1,0,0,0.9885,button_left,0.9885,1,,,,,,385,NW,"ID",50,veigma,VEIGMA,z,,,,,,-0.324668366,-0.341604585,1,0,0,,0,231,231,324,1,
,,,,,,,,,,,,,,,,,,5db1de78d823e2000a85520b,2020-08-10_16h24.51.358,lexical_decision_task_MP,2020.1.3,Linux armv8l,60,,0,-0.306139455,-0.342092273,1,0,0,0.6841,button_left,0.6841,1,,,,,,446,NW,UN,33,gircue,RUNAMO,z,,,,,,-0.306139455,-0.342092273,1,0,0,,0,232,232,385,1,
,,,,,,,,,,,,,,,,,,5db1de78d823e2000a85520b,2020-08-10_16h24.51.358,lexical_decision_task_MP,2020.1.3,Linux armv8l,60,,0,0.337226942,-0.325757443,1,0,0,1.0725,button_right,1.0725,1,,,,,,92,WORD,"ID",33,strand,STRAND,m,,,,,,0.337226942,-0.325757443,1,0,0,,0,233,233,31,1,
,,,,,,,,,,,,,,,,,,5db1de78d823e2000a85520b,2020-08-10_16h24.51.358,lexical_decision_task_MP,2020.1.3,Linux armv8l,60,,0,0.406710727,-0.343311199,1,0,0,1.0078,button_right,1.0078,1,,,,,,160,WORD,"ID",50,violet,VIOLET,m,,,,,,0.406710727,-0.343311199,1,0,0,,0,234,234,99,1,
,,,,,,,,,,,,,,,,,,5db1de78d823e2000a85520b,2020-08-10_16h24.51.358,lexical_decision_task_MP,2020.1.3,Linux armv8l,60,,0,0.385608118,-0.294063161,1,0,0,0.6683,button_right,0.6683,1,,,,,,77,WORD,"ID",33,racket,RACKET,m,,,,,,0.385608118,-0.294063161,1,0,0,,0,235,235,16,1,
,,,,,,,,,,,,,,,,,,5db1de78d823e2000a85520b,2020-08-10_16h24.51.358,lexical_decision_task_MP,2020.1.3,Linux armv8l,60,,0,-0.418342516,-0.319174757,1,0,0,0.8166,button_left,0.8166,0,,,,,,142,WORD,"ID",50,spruce,SPRUCE,m,,,,,,-0.418342516,-0.319174757,1,0,0,,0,236,236,81,1,
,,,,,,,,,,,,,,,,,,5db1de78d823e2000a85520b,2020-08-10_16h24.51.358,lexical_decision_task_MP,2020.1.3,Linux armv8l,60,,0,-0.354520557,-0.29308808,1,0,0,0.8569,button_left,0.8569,1,,,,,,280,NW,UN,50,melaty,CURBOL,z,,,,,,-0.354520557,-0.29308808,1,0,0,,0,237,237,459,1,
,,,,,,,,,,,,,,,,,,5db1de78d823e2000a85520b,2020-08-10_16h24.51.358,lexical_decision_task_MP,2020.1.3,Linux armv8l,60,,0,-0.273199063,-0.31015422,1,0,0,1.0787,button_left,1.0787,1,,,,,,364,NW,"ID",50,impote,IMPOTE,z,,,,,,-0.273199063,-0.31015422,1,0,0,,0,238,238,303,1,
,,,,,,,,,,,,,,,,,,5db1de78d823e2000a85520b,2020-08-10_16h24.51.358,lexical_decision_task_MP,2020.1.3,Linux armv8l,60,,0,-0.275772539,-0.254811037,1,0,0,1.0665,button_left,1.0665,1,,,,,,282,NW,UN,50,veralf,PORLEX,z,,,,,,-0.275772539,-0.254811037,1,0,0,,0,239,239,461,1,
,,,,,,,,,,,,,,,,,,5db1de78d823e2000a85520b,2020-08-10_16h24.51.358,lexical_decision_task_MP,2020.1.3,Linux armv8l,60,,0,-0.302536603,-0.296745004,1,0,0,0.9393,button_left,0.9393,1,,,,,,390,NW,"ID",50,hatrus,HATRUS,z,,,,,,-0.302536603,-0.296745004,1,0,0,,0,240,240,329,1,
,,,,,,,,,,,,,,,,,,5db1de78d823e2000a85520b,2020-08-10_16h24.51.358,lexical_decision_task_MP,2020.1.3,Linux armv8l,60,,0,-0.269596211,-0.325513747,1,0,0,0.9636,button_left,0.9636,1,,,,,,466,NW,UN,33,robuly,HOCITE,z,,,,,,0.05826339,-0.378174865,1,0,0,,0,241,241,405,1,break_done_button
,,,,,,,,,,,,,,,,,,5db1de78d823e2000a85520b,2020-08-10_16h24.51.358,lexical_decision_task_MP,2020.1.3,Linux armv8l,60,,0,0.336712291,-0.333802899,1,0,0,1.0725,button_right,1.0725,0,,,,,,259,NW,UN,50,unject,SOUDAL,z,,,,,,0.336712291,-0.333802899,1,0,0,,0,242,242,438,1,
,,,,,,,,,,,,,,,,,,5db1de78d823e2000a85520b,2020-08-10_16h24.51.358,lexical_decision_task_MP,2020.1.3,Linux armv8l,60,,0,0.328477434,-0.319662372,1,0,0,0.5328,button_right,0.5328,1,,,,,,37,WORD,UN,50,powder,INSULT,m,,,,,,0.328477434,-0.319662372,1,0,0,,0,243,243,216,1,
,,,,,,,,,,,,,,,,,,5db1de78d823e2000a85520b,2020-08-10_16h24.51.358,lexical_decision_task_MP,2020.1.3,Linux armv8l,60,,0,0.322300883,-0.340873274,1,0,0,0.6869,button_right,0.6869,0,,,,,,290,NW,UN,50,pretch,SPLINO,z,,,,,,0.322300883,-0.340873274,1,0,0,,0,244,244,469,1,
,,,,,,,,,,,,,,,,,,5db1de78d823e2000a85520b,2020-08-10_16h24.51.358,lexical_decision_task_MP,2020.1.3,Linux armv8l,60,,0,0.386637567,-0.347943426,1,0,0,0.5072,button_right,0.5072,1,,,,,,140,WORD,"ID",50,prince,PRINCE,m,,,,,,0.386637567,-0.347943426,1,0,0,,0,245,245,79,1,
,,,,,,,,,,,,,,,,,,5db1de78d823e2000a85520b,2020-08-10_16h24.51.358,lexical_decision_task_MP,2020.1.3,Linux armv8l,60,,0,-0.357094033,-0.365497182,1,0,0,1.1461,button_left,1.1461,1,,,,,,433,NW,UN,33,pitrom,DRANCE,z,,,,,,-0.357094033,-0.365497182,1,0,0,,0,246,246,372,1,
,,,,,,,,,,,,,,,,,,5db1de78d823e2000a85520b,2020-08-10_16h24.51.358,lexical_decision_task_MP,2020.1.3,Linux armv8l,60,,0,0.312006978,-0.305278074,1,0,0,0.5915,button_right,0.5915,1,,,,,,57,WORD,UN,50,danger,CHANGE,m,,,,,,0.312006978,-0.305278074,1,0,0,,0,247,247,236,1,
,,,,,,,,,,,,,,,,,,5db1de78d823e2000a85520b,2020-08-10_16h24.51.358,lexical_decision_task_MP,2020.1.3,Linux armv8l,60,,0,0.330021238,-0.307472303,1,0,0,0.6862,button_right,0.6862,1,,,,,,236,WORD,UN,33,grumpy,PIRATE,m,,,,,,0.330021238,-0.307472303,1,0,0,,0,248,248,175,1,
,,,,,,,,,,,,,,,,,,5db1de78d823e2000a85520b,2020-08-10_16h24.51.358,lexical_decision_task_MP,2020.1.3,Linux armv8l,60,,0,0.358844053,-0.307716073,1,0,0,0.4674,button_right,0.4674,1,,,,,,93,WORD,"ID",33,public,PUBLIC,m,,,,,,0.358844053,-0.307716073,1,0,0,,0,249,249,32,1,
,,,,,,,,,,,,,,,,,,5db1de78d823e2000a85520b,2020-08-10_16h24.51.358,lexical_decision_task_MP,2020.1.3,Linux armv8l,60,,0,0.37222616,-0.299670618,1,0,0,0.5215,button_right,0.5215,1,,,,,,163,WORD,"ID",50,string,STRING,m,,,,,,0.37222616,-0.299670618,1,0,0,,0,250,250,102,1,
,,,,,,,,,,,,,,,,,,5db1de78d823e2000a85520b,2020-08-10_16h24.51.358,lexical_decision_task_MP,2020.1.3,Linux armv8l,60,,0,0.371711657,-0.315517759,1,0,0,0.9039,button_right,0.9039,0,,,,,,460,NW,UN,33,justre,MINGAR,z,,,,,,0.371711657,-0.315517759,1,0,0,,0,251,251,399,1,
,,,,,,,,,,,,,,,,,,5db1de78d823e2000a85520b,2020-08-10_16h24.51.358,lexical_decision_task_MP,2020.1.3,Linux armv8l,60,,0,0.300169121,-0.293575546,1,0,0,0.6539,button_right,0.6539,1,,,,,,216,WORD,UN,33,liquor,BEHALF,m,,,,,,0.300169121,-0.293575546,1,0,0,,0,252,252,155,1,
,,,,,,,,,,,,,,,,,,5db1de78d823e2000a85520b,2020-08-10_16h24.51.358,lexical_decision_task_MP,2020.1.3,Linux armv8l,60,,0,-0.386946224,-0.339410356,1,0,0,0.6521,button_left,0.6521,1,,,,,,382,NW,"ID",50,sarley,SARLEY,z,,,,,,-0.386946224,-0.339410356,1,0,0,,0,253,253,321,1,
,,,,,,,,,,,,,,,,,,5db1de78d823e2000a85520b,2020-08-10_16h24.51.358,lexical_decision_task_MP,2020.1.3,Linux armv8l,60,,0,0.369652609,-0.306740992,1,0,0,1.2687,button_right,1.2687,1,,,,,,79,WORD,"ID",33,theory,THEORY,m,,,,,,0.369652609,-0.306740992,1,0,0,,0,254,254,18,1,
,,,,,,,,,,,,,,,,,,5db1de78d823e2000a85520b,2020-08-10_16h24.51.358,lexical_decision_task_MP,2020.1.3,Linux armv8l,60,,0,-0.349373679,-0.356476497,1,0,0,1.1399,button_left,1.1399,1,,,,,,278,NW,UN,50,celond,UNIGHS,z,,,,,,-0.349373679,-0.356476497,1,0,0,,0,255,255,457,1,
,,,,,,,,,,,,,,,,,,5db1de78d823e2000a85520b,2020-08-10_16h24.51.358,lexical_decision_task_MP,2020.1.3,Linux armv8l,60,,0,0.365020456,-0.3230756,1,0,0,0.8289,button_right,0.8289,1,,,,,,61,WORD,"ID",33,ponder,PONDER,m,,,,,,0.365020456,-0.3230756,1,0,0,,0,256,256,0,1,
,,,,,,,,,,,,,,,,,,5db1de78d823e2000a85520b,2020-08-10_16h24.51.358,lexical_decision_task_MP,2020.1.3,Linux armv8l,60,,0,-0.334962271,-0.319418602,1,0,0,0.9785,button_left,0.9785,1,,,,,,469,NW,UN,33,crudio,PADIFS,z,,,,,,-0.334962271,-0.319418602,1,0,0,,0,257,257,408,1,
,,,,,,,,,,,,,,,,,,5db1de78d823e2000a85520b,2020-08-10_16h24.51.358,lexical_decision_task_MP,2020.1.3,Linux armv8l,60,,0,0.328991936,-0.324538444,1,0,0,0.7365,button_right,0.7365,1,,,,,,132,WORD,"ID",50,strong,STRONG,m,,,,,,0.328991936,-0.324538444,1,0,0,,0,258,258,71,1,
,,,,,,,,,,,,,,,,,,5db1de78d823e2000a85520b,2020-08-10_16h24.51.358,lexical_decision_task_MP,2020.1.3,Linux armv8l,60,,0,-0.331359419,-0.339897971,1,0,0,0.8952,button_left,0.8952,1,,,,,,461,NW,UN,33,absult,JUSTRE,z,,,,,,-0.331359419,-0.339897971,1,0,0,,0,259,259,400,1,
,,,,,,,,,,,,,,,,,,5db1de78d823e2000a85520b,2020-08-10_16h24.51.358,lexical_decision_task_MP,2020.1.3,Linux armv8l,60,,0,-0.314374461,-0.365009567,1,0,0,0.9483,button_left,0.9483,1,,,,,,377,NW,"ID",50,injore,INJORE,z,,,,,,-0.314374461,-0.365009567,1,0,0,,0,260,260,316,1,
,,,,,,,,,,,,,,,,,,5db1de78d823e2000a85520b,2020-08-10_16h24.51.358,lexical_decision_task_MP,2020.1.3,Linux armv8l,60,,0,-0.316948011,-0.367447566,1,0,0,0.1178,button_left,0.1178,0,,,,,,19,WORD,UN,50,breast,PATRON,m,,,,,,-0.316948011,-0.367447566,1,0,0,,0,261,261,198,1,
,,,,,,,,,,,,,,,,,,5db1de78d823e2000a85520b,2020-08-10_16h24.51.358,lexical_decision_task_MP,2020.1.3,Linux armv8l,60,,0,0.323330333,-0.330145975,1,0,0,0.3903,button_right,0.3903,1,,,,,,232,WORD,UN,33,nature,INJECT,m,,,,,,0.323330333,-0.330145975,1,0,0,,0,262,262,171,1,
,,,,,,,,,,,,,,,,,,5db1de78d823e2000a85520b,2020-08-10_16h24.51.358,lexical_decision_task_MP,2020.1.3,Linux armv8l,60,,0,0.348035498,-0.323319518,1,0,0,0.4133,button_right,0.4133,0,,,,,,353,NW,"ID",33,clurey,CLUREY,z,,,,,,0.348035498,-0.323319518,1,0,0,,0,263,263,292,1,
,,,,,,,,,,,,,,,,,,5db1de78d823e2000a85520b,2020-08-10_16h24.51.358,lexical_decision_task_MP,2020.1.3,Linux armv8l,60,,0,0.359873651,-0.312592145,1,0,0,0.7536,button_right,0.7536,0,,,,,,455,NW,UN,33,broget,TONDLE,z,,,,,,0.359873651,-0.312592145,1,0,0,,0,264,264,394,1,
,,,,,,,,,,,,,,,,,,5db1de78d823e2000a85520b,2020-08-10_16h24.51.358,lexical_decision_task_MP,2020.1.3,Linux armv8l,60,,0,0.412372182,-0.303083846,1,0,0,0.9979,button_right,0.9979,0,,,,,,411,NW,"ID",50,orchin,ORCHIN,z,,,,,,0.412372182,-0.303083846,1,0,0,,0,265,265,350,1,
,,,,,,,,,,,,,,,,,,5db1de78d823e2000a85520b,2020-08-10_16h24.51.358,lexical_decision_task_MP,2020.1.3,Linux armv8l,60,,0,0.394872573,-0.334046818,1,0,0,0.4861,button_right,0.4861,1,,,,,,110,WORD,"ID",33,polite,POLITE,m,,,,,,0.394872573,-0.334046818,1,0,0,,0,266,266,49,1,
,,,,,,,,,,,,,,,,,,5db1de78d823e2000a85520b,2020-08-10_16h24.51.358,lexical_decision_task_MP,2020.1.3,Linux armv8l,60,,0,0.370167408,-0.325757443,1,0,0,0.5231,button_right,0.5231,0,,,,,,270,NW,UN,50,aubrid,WRIMSY,z,,,,,,0.370167408,-0.325757443,1,0,0,,0,267,267,449,1,
,,,,,,,,,,,,,,,,,,5db1de78d823e2000a85520b,2020-08-10_16h24.51.358,lexical_decision_task_MP,2020.1.3,Linux armv8l,60,,0,0.408254679,-0.308203688,1,0,0,0.5522,button_right,0.5522,1,,,,,,190,WORD,UN,33,stable,BACKUP,m,,,,,,0.408254679,-0.308203688,1,0,0,,0,268,268,129,1,
,,,,,,,,,,,,,,,,,,5db1de78d823e2000a85520b,2020-08-10_16h24.51.358,lexical_decision_task_MP,2020.1.3,Linux armv8l,60,,0,0.385093615,-0.309422687,1,0,0,0.6282,button_right,0.6282,1,,,,,,180,WORD,"ID",50,silent,SILENT,m,,,,,,0.385093615,-0.309422687,1,0,0,,0,269,269,119,1,
,,,,,,,,,,,,,,,,,,5db1de78d823e2000a85520b,2020-08-10_16h24.51.358,lexical_decision_task_MP,2020.1.3,Linux armv8l,60,,0,0.345462244,-0.321856601,1,0,0,0.7668,button_right,0.7668,1,,,,,,41,WORD,UN,50,chapel,SPRING,m,,,,,,0.345462244,-0.321856601,1,0,0,,0,270,270,220,1,
,,,,,,,,,,,,,,,,,,5db1de78d823e2000a85520b,2020-08-10_16h24.51.358,lexical_decision_task_MP,2020.1.3,Linux armv8l,60,,0,0.359873651,-0.314298759,1,0,0,0.636,button_right,0.636,0,,,,,,422,NW,UN,33,streld,ALCOUD,z,,,,,,0.359873651,-0.314298759,1,0,0,,0,271,271,361,1,
,,,,,,,,,,,,,,,,,,5db1de78d823e2000a85520b,2020-08-10_16h24.51.358,lexical_decision_task_MP,2020.1.3,Linux armv8l,60,,0,0.275978607,-0.328439361,1,0,0,0.7694,button_right,0.7694,1,,,,,,113,WORD,"ID",33,chorus,CHORUS,m,,,,,,0.275978607,-0.328439361,1,0,0,,0,272,272,52,1,
,,,,,,,,,,,,,,,,,,5db1de78d823e2000a85520b,2020-08-10_16h24.51.358,lexical_decision_task_MP,2020.1.3,Linux armv8l,60,,0,-0.314374461,-0.324538444,1,0,0,0.7376,button_left,0.7376,1,,,,,,370,NW,"ID",50,sleact,SLEACT,z,,,,,,-0.314374461,-0.324538444,1,0,0,,0,273,273,309,1,
,,,,,,,,,,,,,,,,,,5db1de78d823e2000a85520b,2020-08-10_16h24.51.358,lexical_decision_task_MP,2020.1.3,Linux armv8l,60,,0,-0.332903445,-0.337216127,1,0,0,0.8446,button_left,0.8446,1,,,,,,401,NW,"ID",50,mustil,MUSTIL,z,,,,,,-0.332903445,-0.337216127,1,0,0,,0,274,274,340,1,
,,,,,,,,,,,,,,,,,,5db1de78d823e2000a85520b,2020-08-10_16h24.51.358,lexical_decision_task_MP,2020.1.3,Linux armv8l,60,,0,-0.319521487,-0.357695496,1,0,0,0.8431,button_left,0.8431,1,,,,,,326,NW,"ID",33,iguade,IGUADE,z,,,,,,-0.319521487,-0.357695496,1,0,0,,0,275,275,265,1,
,,,,,,,,,,,,,,,,,,5db1de78d823e2000a85520b,2020-08-10_16h24.51.358,lexical_decision_task_MP,2020.1.3,Linux armv8l,60,,0,-0.287610471,-0.349162426,1,0,0,1.4337,button_left,1.4337,1,,,,,,424,NW,UN,33,frudge,PRAILE,z,,,,,,-0.287610471,-0.349162426,1,0,0,,0,276,276,363,1,
,,,,,,,,,,,,,,,,,,5db1de78d823e2000a85520b,2020-08-10_16h24.51.358,lexical_decision_task_MP,2020.1.3,Linux armv8l,60,,0,0.283698888,-0.316980677,1,0,0,0.6699,button_right,0.6699,1,,,,,,152,WORD,"ID",50,rocket,ROCKET,m,,,,,,0.283698888,-0.316980677,1,0,0,,0,277,277,91,1,
,,,,,,,,,,,,,,,,,,5db1de78d823e2000a85520b,2020-08-10_16h24.51.358,lexical_decision_task_MP,2020.1.3,Linux armv8l,60,,0,0.344947445,-0.307716073,1,0,0,0.562,button_right,0.562,1,,,,,,217,WORD,UN,33,shrink,LIQUOR,m,,,,,,0.344947445,-0.307716073,1,0,0,,0,278,278,156,1,
,,,,,,,,,,,,,,,,,,5db1de78d823e2000a85520b,2020-08-10_16h24.51.358,lexical_decision_task_MP,2020.1.3,Linux armv8l,60,,0,0.299139671,-0.307472303,1,0,0,1.756,button_right,1.756,0,,,,,,436,NW,UN,33,snapel,FRUTAN,z,,,,,,0.299139671,-0.307472303,1,0,0,,0,279,279,375,1,
,,,,,,,,,,,,,,,,,,5db1de78d823e2000a85520b,2020-08-10_16h24.51.358,lexical_decision_task_MP,2020.1.3,Linux armv8l,60,,0,0.296566343,-0.308691303,1,0,0,0.5517,button_right,0.5517,1,,,,,,116,WORD,"ID",33,tumble,TUMBLE,m,,,,,,0.296566343,-0.308691303,1,0,0,,0,280,280,55,1,
,,,,,,,,,,,,,,,,,,5db1de78d823e2000a85520b,2020-08-10_16h24.51.358,lexical_decision_task_MP,2020.1.3,Linux armv8l,60,,0,0.298110295,-0.31137322,1,0,0,0.5484,button_right,0.5484,1,,,,,,144,WORD,"ID",50,sponge,SPONGE,m,,,,,,0.298110295,-0.31137322,1,0,0,,0,281,281,83,1,
,,,,,,,,,,,,,,,,,,5db1de78d823e2000a85520b,2020-08-10_16h24.51.358,lexical_decision_task_MP,2020.1.3,Linux armv8l,60,,0,-0.332903445,-0.354526186,1,0,0,0.7452,button_left,0.7452,1,,,,,,391,NW,"ID",50,theldy,THELDY,z,,,,,,-0.332903445,-0.354526186,1,0,0,,0,282,282,330,1,
,,,,,,,,,,,,,,,,,,5db1de78d823e2000a85520b,2020-08-10_16h24.51.358,lexical_decision_task_MP,2020.1.3,Linux armv8l,60,,0,0.300683772,-0.290406162,1,0,0,0.5133,button_right,0.5133,1,,,,,,177,WORD,"ID",50,advent,ADVENT,m,,,,,,0.300683772,-0.290406162,1,0,0,,0,283,283,116,1,
,,,,,,,,,,,,,,,,,,5db1de78d823e2000a85520b,2020-08-10_16h24.51.358,lexical_decision_task_MP,2020.1.3,Linux armv8l,60,,0,0.33619764,-0.309178917,1,0,0,0.4555,button_right,0.4555,1,,,,,,230,WORD,UN,33,mother,FRINGE,m,,,,,,0.33619764,-0.309178917,1,0,0,,0,284,284,169,1,
,,,,,,,,,,,,,,,,,,5db1de78d823e2000a85520b,2020-08-10_16h24.51.358,lexical_decision_task_MP,2020.1.3,Linux armv8l,60,,0,0.345462244,-0.298207922,1,0,0,0.4464,button_right,0.4464,0,,,,,,367,NW,"ID",50,slique,SLIQUE,z,,,,,,0.345462244,-0.298207922,1,0,0,,0,285,285,306,1,
,,,,,,,,,,,,,,,,,,5db1de78d823e2000a85520b,2020-08-10_16h24.51.358,lexical_decision_task_MP,2020.1.3,Linux armv8l,60,,0,-0.391063764,-0.417670907,1,0,0,0.7701,button_left,0.7701,1,,,,,,269,NW,UN,50,wrimsy,ORCHET,z,,,,,,-0.334962271,-0.340385659,1,0,0,,0,286,286,448,1,
,,,,,,,,,,,,,,,,,,5db1de78d823e2000a85520b,2020-08-10_16h24.51.358,lexical_decision_task_MP,2020.1.3,Linux armv8l,60,,0,-0.277831216,-0.327220361,1,0,0,0.9446,button_left,0.9446,1,,,,,,276,NW,UN,50,petain,YARMON,z,,,,,,-0.277831216,-0.327220361,1,0,0,,0,287,287,455,1,
,,,,,,,,,,,,,,,,,,5db1de78d823e2000a85520b,2020-08-10_16h24.51.358,lexical_decision_task_MP,2020.1.3,Linux armv8l,60,,0,-0.285551645,-0.321125216,1,0,0,0.7312,button_left,0.7312,1,,,,,,241,NW,UN,50,unwert,SMENCO,z,,,,,,-0.285551645,-0.321125216,1,0,0,,0,288,288,420,1,
,,,,,,,,,,,,,,,,,,5db1de78d823e2000a85520b,2020-08-10_16h24.51.358,lexical_decision_task_MP,2020.1.3,Linux armv8l,60,,0,-0.292757349,-0.333559203,1,0,0,0.428,button_left,0.428,0,,,,,,192,WORD,UN,33,object,PLAGUE,m,,,,,,-0.292757349,-0.333559203,1,0,0,,0,289,289,131,1,
,,,,,,,,,,,,,,,,,,5db1de78d823e2000a85520b,2020-08-10_16h24.51.358,lexical_decision_task_MP,2020.1.3,Linux armv8l,60,,0,-0.332388758,-0.319418602,1,0,0,0.8655,button_left,0.8655,1,,,,,,333,NW,"ID",33,catrie,CATRIE,z,,,,,,-0.332388758,-0.319418602,1,0,0,,0,290,290,272,1,
,,,,,,,,,,,,,,,,,,5db1de78d823e2000a85520b,2020-08-10_16h24.51.358,lexical_decision_task_MP,2020.1.3,Linux armv8l,60,,0,0.328991936,-0.306740992,1,0,0,0.5694,button_right,0.5694,1,,,,,,26,WORD,UN,50,butler,SPRINT,m,,,,,,0.328991936,-0.306740992,1,0,0,,0,291,291,205,1,
,,,,,,,,,,,,,,,,,,5db1de78d823e2000a85520b,2020-08-10_16h24.51.358,lexical_decision_task_MP,2020.1.3,Linux armv8l,60,,0,-0.317977313,-0.351356654,1,0,0,0.7235,button_left,0.7235,1,,,,,,477,NW,UN,33,lobush,PHOTIE,z,,,,,,-0.317977313,-0.351356654,1,0,0,,0,292,292,416,1,
,,,,,,,,,,,,,,,,,,5db1de78d823e2000a85520b,2020-08-10_16h24.51.358,lexical_decision_task_MP,2020.1.3,Linux armv8l,60,,0,-0.323124339,-0.341848355,1,0,0,0.7852,button_left,0.7852,1,,,,,,431,NW,UN,33,lunker,CHRUMS,z,,,,,,-0.323124339,-0.341848355,1,0,0,,0,293,293,370,1,
,,,,,,,,,,,,,,,,,,5db1de78d823e2000a85520b,2020-08-10_16h24.51.358,lexical_decision_task_MP,2020.1.3,Linux armv8l,60,,0,-0.319521487,-0.345261583,1,0,0,0.6678,button_left,0.6678,1,,,,,,309,NW,"ID",33,amiloy,AMILOY,z,,,,,,-0.319521487,-0.345261583,1,0,0,,0,294,294,248,1,
,,,,,,,,,,,,,,,,,,5db1de78d823e2000a85520b,2020-08-10_16h24.51.358,lexical_decision_task_MP,2020.1.3,Linux armv8l,60,,0,0.267743527,-0.299670618,1,0,0,0.5319,button_right,0.5319,1,,,,,,27,WORD,UN,50,comedy,SCREAM,m,,,,,,0.267743527,-0.299670618,1,0,0,,0,295,295,206,1,
,,,,,,,,,,,,,,,,,,5db1de78d823e2000a85520b,2020-08-10_16h24.51.358,lexical_decision_task_MP,2020.1.3,Linux armv8l,60,,0,0.287301739,-0.29381939,1,0,0,0.5721,button_right,0.5721,1,,,,,,173,WORD,"ID",50,shower,SHOWER,m,,,,,,0.287301739,-0.29381939,1,0,0,,0,296,296,112,1,
,,,,,,,,,,,,,,,,,,5db1de78d823e2000a85520b,2020-08-10_16h24.51.358,lexical_decision_task_MP,2020.1.3,Linux armv8l,60,,0,0.250243844,-0.281141781,1,0,0,1.0085,button_right,1.0085,1,,,,,,107,WORD,"ID",33,slogan,SLOGAN,m,,,,,,0.250243844,-0.281141781,1,0,0,,0,297,297,46,1,
,,,,,,,,,,,,,,,,,,5db1de78d823e2000a85520b,2020-08-10_16h24.51.358,lexical_decision_task_MP,2020.1.3,Linux armv8l,60,,0,0.354726551,-0.332340203,1,0,0,0.8045,button_right,0.8045,1,,,,,,23,WORD,UN,50,praise,WEALTH,m,,,,,,0.354726551,-0.332340203,1,0,0,,0,298,298,202,1,
,,,,,,,,,,,,,,,,,,5db1de78d823e2000a85520b,2020-08-10_16h24.51.358,lexical_decision_task_MP,2020.1.3,Linux armv8l,60,,0,0.33825654,-0.327464057,1,0,0,0.5184,button_right,0.5184,0,,,,,,335,NW,"ID",33,desion,DESION,z,,,,,,0.33825654,-0.327464057,1,0,0,,0,299,299,274,1,
,,,,,,,,,,,,,,,,,,5db1de78d823e2000a85520b,2020-08-10_16h24.51.358,lexical_decision_task_MP,2020.1.3,Linux armv8l,60,,0,0.31818338,-0.31990629,1,0,0,0.5358,button_right,0.5358,1,,,,,,121,WORD,"ID",50,thrive,THRIVE,m,,,,,,0.31818338,-0.31990629,1,0,0,,0,300,300,60,1,
,,,,,,,,,,,,,,,,,,5db1de78d823e2000a85520b,2020-08-10_16h24.51.358,lexical_decision_task_MP,2020.1.3,Linux armv8l,60,,0,0.267228802,-0.303083846,1,0,0,0.5704,button_right,0.5704,0,,,,,,449,NW,UN,33,phrect,BRUNGE,z,,,,,,0.267228802,-0.303083846,1,0,0,,0,301,301,388,1,
,,,,,,,,,,,,,,,,,,5db1de78d823e2000a85520b,2020-08-10_16h24.51.358,lexical_decision_task_MP,2020.1.3,Linux armv8l,60,,0,0.304286623,-0.301377232,1,0,0,0.6547,button_right,0.6547,0,,,,,,342,NW,"ID",33,randow,RANDOW,z,,,,,,0.304286623,-0.301377232,1,0,0,,0,302,302,281,1,
,,,,,,,,,,,,,,,,,,5db1de78d823e2000a85520b,2020-08-10_16h24.51.358,lexical_decision_task_MP,2020.1.3,Linux armv8l,60,,0,-0.342167975,-0.359646029,1,0,0,0.9599,button_left,0.9599,1,,,,,,267,NW,UN,50,packes,PASINK,z,,,,,,-0.342167975,-0.359646029,1,0,0,,0,303,303,446,1,
,,,,,,,,,,,,,,,,,,5db1de78d823e2000a85520b,2020-08-10_16h24.51.358,lexical_decision_task_MP,2020.1.3,Linux armv8l,60,,0,-0.320550863,-0.363790568,1,0,0,0.7423,button_left,0.7423,1,,,,,,423,NW,UN,33,praile,STRELD,z,,,,,,-0.320550863,-0.363790568,1,0,0,,0,304,304,362,1,
,,,,,,,,,,,,,,,,,,5db1de78d823e2000a85520b,2020-08-10_16h24.51.358,lexical_decision_task_MP,2020.1.3,Linux armv8l,60,,0,0.335683137,-0.282116862,1,0,0,0.7027,button_right,0.7027,1,,,,,,221,WORD,UN,33,hinder,MASCOT,m,,,,,,0.335683137,-0.282116862,1,0,0,,0,305,305,160,1,
,,,,,,,,,,,,,,,,,,5db1de78d823e2000a85520b,2020-08-10_16h24.51.358,lexical_decision_task_MP,2020.1.3,Linux armv8l,60,,0,0.335683137,-0.294550775,1,0,0,0.4934,button_right,0.4934,1,,,,,,49,WORD,UN,50,snatch,SURVEY,m,,,,,,0.335683137,-0.294550775,1,0,0,,0,306,306,228,1,
,,,,,,,,,,,,,,,,,,5db1de78d823e2000a85520b,2020-08-10_16h24.51.358,lexical_decision_task_MP,2020.1.3,Linux armv8l,60,,0,0.325903735,-0.331121204,1,0,0,0.3744,button_right,0.3744,1,,,,,,165,WORD,"ID",50,invest,INVEST,m,,,,,,0.325903735,-0.331121204,1,0,0,,0,307,307,104,1,
,,,,,,,,,,,,,,,,,,5db1de78d823e2000a85520b,2020-08-10_16h24.51.358,lexical_decision_task_MP,2020.1.3,Linux armv8l,60,,0,0.263111152,-0.31454253,1,0,0,0.4945,button_right,0.4945,1,,,,,,168,WORD,"ID",50,answer,ANSWER,m,,,,,,0.263111152,-0.31454253,1,0,0,,0,308,308,107,1,
,,,,,,,,,,,,,,,,,,5db1de78d823e2000a85520b,2020-08-10_16h24.51.358,lexical_decision_task_MP,2020.1.3,Linux armv8l,60,,0,0.343917995,-0.318930987,1,0,0,0.4115,button_right,0.4115,1,,,,,,218,WORD,UN,33,bucket,SHRINK,m,,,,,,0.343917995,-0.318930987,1,0,0,,0,309,309,157,1,
,,,,,,,,,,,,,,,,,,5db1de78d823e2000a85520b,2020-08-10_16h24.51.358,lexical_decision_task_MP,2020.1.3,Linux armv8l,60,,0,0.362961704,-0.287968237,1,0,0,0.6519,button_right,0.6519,1,,,,,,104,WORD,"ID",33,studio,STUDIO,m,,,,,,0.362961704,-0.287968237,1,0,0,,0,310,310,43,1,
,,,,,,,,,,,,,,,,,,5db1de78d823e2000a85520b,2020-08-10_16h24.51.358,lexical_decision_task_MP,2020.1.3,Linux armv8l,60,,0,-0.358123409,-0.360133643,1,0,0,0.707,button_left,0.707,1,,,,,,374,NW,"ID",50,sliant,SLIANT,z,,,,,,-0.358123409,-0.360133643,1,0,0,,0,311,311,313,1,
,,,,,,,,,,,,,,,,,,5db1de78d823e2000a85520b,2020-08-10_16h24.51.358,lexical_decision_task_MP,2020.1.3,Linux armv8l,60,,0,0.310463174,-0.327464057,1,0,0,0.3968,button_right,0.3968,1,,,,,,203,WORD,UN,33,burden,PHRASE,m,,,,,,0.310463174,-0.327464057,1,0,0,,0,312,312,142,1,
,,,,,,,,,,,,,,,,,,5db1de78d823e2000a85520b,2020-08-10_16h24.51.358,lexical_decision_task_MP,2020.1.3,Linux armv8l,60,,0,0.312006978,-0.307959992,1,0,0,0.7726,button_right,0.7726,1,,,,,,10,WORD,UN,50,cruise,ETHNIC,m,,,,,,0.312006978,-0.307959992,1,0,0,,0,313,313,189,1,
,,,,,,,,,,,,,,,,,,5db1de78d823e2000a85520b,2020-08-10_16h24.51.358,lexical_decision_task_MP,2020.1.3,Linux armv8l,60,,0,0.293992867,-0.292600465,1,0,0,0.6355,button_right,0.6355,1,,,,,,133,WORD,"ID",50,chrome,CHROME,m,,,,,,0.293992867,-0.292600465,1,0,0,,0,314,314,72,1,
,,,,,,,,,,,,,,,,,,5db1de78d823e2000a85520b,2020-08-10_16h24.51.358,lexical_decision_task_MP,2020.1.3,Linux armv8l,60,,0,0.307374825,-0.306740992,1,0,0,0.7689,button_right,0.7689,1,,,,,,134,WORD,"ID",50,staple,STAPLE,m,,,,,,0.307374825,-0.306740992,1,0,0,,0,315,315,73,1,
,,,,,,,,,,,,,,,,,,5db1de78d823e2000a85520b,2020-08-10_16h24.51.358,lexical_decision_task_MP,2020.1.3,Linux armv8l,60,,0,0.312006978,-0.299914536,1,0,0,0.5892,button_right,0.5892,0,,,,,,365,NW,"ID",50,guairt,GUAIRT,z,,,,,,0.312006978,-0.299914536,1,0,0,,0,316,316,304,1,
,,,,,,,,,,,,,,,,,,5db1de78d823e2000a85520b,2020-08-10_16h24.51.358,lexical_decision_task_MP,2020.1.3,Linux armv8l,60,,0,0.312521777,-0.294307079,1,0,0,0.5024,button_right,0.5024,1,,,,,,29,WORD,UN,50,orient,SKETCH,m,,,,,,0.312521777,-0.294307079,1,0,0,,0,317,317,208,1,
,,,,,,,,,,,,,,,,,,5db1de78d823e2000a85520b,2020-08-10_16h24.51.358,lexical_decision_task_MP,2020.1.3,Linux armv8l,60,,0,0.332080286,-0.291137547,1,0,0,0.5347,button_right,0.5347,1,,,,,,231,WORD,UN,33,inject,EXPORT,m,,,,,,0.332080286,-0.291137547,1,0,0,,0,318,318,170,1,
,,,,,,,,,,,,,,,,,,5db1de78d823e2000a85520b,2020-08-10_16h24.51.358,lexical_decision_task_MP,2020.1.3,Linux armv8l,60,,0,0.287816538,-0.298451618,1,0,0,0.7516,button_right,0.7516,1,,,,,,238,WORD,UN,33,behalf,FLOWER,m,,,,,,0.287816538,-0.298451618,1,0,0,,0,319,319,177,1,
,,,,,,,,,,,,,,,,,,5db1de78d823e2000a85520b,2020-08-10_16h24.51.358,lexical_decision_task_MP,2020.1.3,Linux armv8l,60,,0,0.304286623,-0.29528216,1,0,0,0.4016,button_right,0.4016,1,,,,,,112,WORD,"ID",33,breath,BREATH,m,,,,,,0.304286623,-0.29528216,1,0,0,,0,320,320,51,1,
,,,,,,,,,,,,,,,,,,5db1de78d823e2000a85520b,2020-08-10_16h24.51.358,lexical_decision_task_MP,2020.1.3,Linux armv8l,60,,0,0.286787163,-0.298939233,1,0,0,0.4985,button_right,0.4985,1,,,,,,66,WORD,"ID",33,gospel,GOSPEL,m,,,,,,0.286787163,-0.298939233,1,0,0,,0,321,321,5,1,
,,,,,,,,,,,,,,,,,,5db1de78d823e2000a85520b,2020-08-10_16h24.51.358,lexical_decision_task_MP,2020.1.3,Linux armv8l,60,,0,0.322300883,-0.30162115,1,0,0,0.545,button_right,0.545,0,,,,,,392,NW,"ID",50,rouncy,ROUNCY,z,,,,,,0.322300883,-0.30162115,1,0,0,,0,322,322,331,1,
,,,,,,,,,,,,,,,,,,5db1de78d823e2000a85520b,2020-08-10_16h24.51.358,lexical_decision_task_MP,2020.1.3,Linux armv8l,60,,0,-0.311286408,-0.346968197,1,0,0,0.7076,button_left,0.7076,1,,,,,,470,NW,UN,33,nobest,CRUDIO,z,,,,,,-0.311286408,-0.346968197,1,0,0,,0,323,323,409,1,
,,,,,,,,,,,,,,,,,,5db1de78d823e2000a85520b,2020-08-10_16h24.51.358,lexical_decision_task_MP,2020.1.3,Linux armv8l,60,,0,0.367593858,-0.292600465,1,0,0,0.6681,button_right,0.6681,1,,,,,,22,WORD,UN,50,wealth,JOCKEY,m,,,,,,0.367593858,-0.292600465,1,0,0,,0,324,324,201,1,
,,,,,,,,,,,,,,,,,,5db1de78d823e2000a85520b,2020-08-10_16h24.51.358,lexical_decision_task_MP,2020.1.3,Linux armv8l,60,,0,-0.313859736,-0.355257497,1,0,0,0.8006,button_left,0.8006,1,,,,,,428,NW,UN,33,funtle,TANDLY,z,,,,,,-0.313859736,-0.355257497,1,0,0,,0,325,325,367,1,
,,,,,,,,,,,,,,,,,,5db1de78d823e2000a85520b,2020-08-10_16h24.51.358,lexical_decision_task_MP,2020.1.3,Linux armv8l,60,,0,-0.36687325,-0.33916666,1,0,0,0.7831,button_left,0.7831,1,,,,,,244,NW,UN,50,anougs,EATRIC,z,,,,,,-0.36687325,-0.33916666,1,0,0,,0,326,326,423,1,
,,,,,,,,,,,,,,,,,,5db1de78d823e2000a85520b,2020-08-10_16h24.51.358,lexical_decision_task_MP,2020.1.3,Linux armv8l,60,,0,0.301198422,-0.245790352,1,0,0,0.7343,button_right,0.7343,0,,,,,,453,NW,UN,33,scouge,BOLVIS,z,,,,,,0.301198422,-0.245790352,1,0,0,,0,327,327,392,1,
,,,,,,,,,,,,,,,,,,5db1de78d823e2000a85520b,2020-08-10_16h24.51.358,lexical_decision_task_MP,2020.1.3,Linux armv8l,60,,0,0.32127173,-0.289674852,1,0,0,0.6006,button_right,0.6006,1,,,,,,24,WORD,UN,50,domain,PRAISE,m,,,,,,0.32127173,-0.289674852,1,0,0,,0,328,328,203,1,
,,,,,,,,,,,,,,,,,,5db1de78d823e2000a85520b,2020-08-10_16h24.51.358,lexical_decision_task_MP,2020.1.3,Linux armv8l,60,,0,0.269802279,-0.275534324,1,0,0,0.4996,button_right,0.4996,1,,,,,,54,WORD,UN,50,stroke,RAMBLE,m,,,,,,0.269802279,-0.275534324,1,0,0,,0,329,329,233,1,
,,,,,,,,,,,,,,,,,,5db1de78d823e2000a85520b,2020-08-10_16h24.51.358,lexical_decision_task_MP,2020.1.3,Linux armv8l,60,,0,-0.302021878,-0.341604585,1,0,0,0.823,button_left,0.823,1,,,,,,386,NW,"ID",50,ancust,ANCUST,z,,,,,,-0.302021878,-0.341604585,1,0,0,,0,330,330,325,1,
,,,,,,,,,,,,,,,,,,5db1de78d823e2000a85520b,2020-08-10_16h24.51.358,lexical_decision_task_MP,2020.1.3,Linux armv8l,60,,0,-0.290698672,-0.308935073,1,0,0,0.8033,button_left,0.8033,1,,,,,,368,NW,"ID",50,hornal,HORNAL,z,,,,,,-0.290698672,-0.308935073,1,0,0,,0,331,331,307,1,
,,,,,,,,,,,,,,,,,,5db1de78d823e2000a85520b,2020-08-10_16h24.51.358,lexical_decision_task_MP,2020.1.3,Linux armv8l,60,,0,-0.319521487,-0.362571642,1,0,0,0.8858,button_left,0.8858,1,,,,,,354,NW,"ID",33,virlex,VIRLEX,z,,,,,,-0.319521487,-0.362571642,1,0,0,,0,332,332,293,1,
,,,,,,,,,,,,,,,,,,5db1de78d823e2000a85520b,2020-08-10_16h24.51.358,lexical_decision_task_MP,2020.1.3,Linux armv8l,60,,0,-0.281434068,-0.327464057,1,0,0,0.6876,button_left,0.6876,1,,,,,,275,NW,UN,50,yarmon,SLEIRT,z,,,,,,-0.281434068,-0.327464057,1,0,0,,0,333,333,454,1,
,,,,,,,,,,,,,,,,,,5db1de78d823e2000a85520b,2020-08-10_16h24.51.358,lexical_decision_task_MP,2020.1.3,Linux armv8l,60,,0,-0.25930238,-0.323319518,1,0,0,0.1493,button_left,0.1493,0,,,,,,75,WORD,"ID",33,trophy,TROPHY,m,,,,,,-0.25930238,-0.323319518,1,0,0,,0,334,334,14,1,
,,,,,,,,,,,,,,,,,,5db1de78d823e2000a85520b,2020-08-10_16h24.51.358,lexical_decision_task_MP,2020.1.3,Linux armv8l,60,,0,,,,,,,,0.1493,-1,,,,,,327,NW,"ID",33,plenac,PLENAC,z,,,,,,0.185901753,0.119636313,0,0,0,,0,335,335,266,1,
,,,,,,,,,,,,,,,,,,5db1de78d823e2000a85520b,2020-08-10_16h24.51.358,lexical_decision_task_MP,2020.1.3,Linux armv8l,60,,0,0.410828081,-0.243108657,1,0,0,0.5855,button_right,0.5855,1,,,,,,196,WORD,UN,33,stream,CREDIT,m,,,,,,0.410828081,-0.243108657,1,0,0,,0,336,336,135,1,
,,,,,,,,,,,,,,,,,,5db1de78d823e2000a85520b,2020-08-10_16h24.51.358,lexical_decision_task_MP,2020.1.3,Linux armv8l,60,,0,0.352667947,-0.323319518,1,0,0,0.4311,button_right,0.4311,1,,,,,,125,WORD,"ID",50,nickel,NICKEL,m,,,,,,0.352667947,-0.323319518,1,0,0,,0,337,337,64,1,
,,,,,,,,,,,,,,,,,,5db1de78d823e2000a85520b,2020-08-10_16h24.51.358,lexical_decision_task_MP,2020.1.3,Linux armv8l,60,,0,0.307374825,-0.309178917,1,0,0,1.0273,button_right,1.0273,0,,,,,,346,NW,"ID",33,saudic,SAUDIC,z,,,,,,0.307374825,-0.309178917,1,0,0,,0,338,338,285,1,
,,,,,,,,,,,,,,,,,,5db1de78d823e2000a85520b,2020-08-10_16h24.51.358,lexical_decision_task_MP,2020.1.3,Linux armv8l,60,,0,0.266199427,-0.358670725,1,0,0,0.6888,button_right,0.6888,0,,,,,,243,NW,UN,50,eatric,MUSIED,z,,,,,,0.266199427,-0.358670725,1,0,0,,0,339,339,422,1,
,,,,,,,,,,,,,,,,,,5db1de78d823e2000a85520b,2020-08-10_16h24.51.358,lexical_decision_task_MP,2020.1.3,Linux armv8l,60,,0,0.260023099,-0.343067503,1,0,0,0.4817,button_right,0.4817,0,,,,,,383,NW,"ID",50,aungre,AUNGRE,z,,,,,,0.260023099,-0.343067503,1,0,0,,0,340,340,322,1,
,,,,,,,,,,,,,,,,,,5db1de78d823e2000a85520b,2020-08-10_16h24.51.358,lexical_decision_task_MP,2020.1.3,Linux armv8l,60,,0,0.264655252,-0.298695388,1,0,0,0.7354,button_right,0.7354,1,,,,,,20,WORD,UN,50,simple,BREAST,m,,,,,,0.264655252,-0.298695388,1,0,0,,0,341,341,199,1,
