counterbalancing_condition,instr_done_keyboard.keys,instr_done_touch.x,instr_done_touch.y,instr_done_touch.leftButton,instr_done_touch.midButton,instr_done_touch.rightButton,instr_done_touch.clicked_name,instruction_pages.thisRepN,instruction_pages.thisTrialN,instruction_pages.thisN,instruction_pages.thisIndex,instruction_pages.ran,pageN,phase,instruct_text,has_image,instruct_image,participant,date,expName,psychopyVersion,OS,frameRate,response.keys,response.corr,touch_resp.x,touch_resp.y,touch_resp.leftButton,touch_resp.midButton,touch_resp.rightButton,touch_resp.time,touch_resp.clicked_name,rt,corr,practice_trials.thisRepN,practice_trials.thisTrialN,practice_trials.thisN,practice_trials.thisIndex,practice_trials.ran,TrialID,StimulusType,Condition,PrimeDuration,Prime,Target,corrAns,end_of_practice_trials_pages.thisRepN,end_of_practice_trials_pages.thisTrialN,end_of_practice_trials_pages.thisN,end_of_practice_trials_pages.thisIndex,end_of_practice_trials_pages.ran,break_done_touch.x,break_done_touch.y,break_done_touch.leftButton,break_done_touch.midButton,break_done_touch.rightButton,break_done_keyboard.keys,trials.thisRepN,trials.thisTrialN,trials.thisN,trials.thisIndex,trials.ran,break_done_touch.clicked_name
0,,0.03625429,-0.425472445,1,0,0,instr_done_button,0,0,0,0,1,1,instructions,"INSTRUCTIONS
At the start of each trial, look at the hash marks (######) in the center of the screen. After a moment, a string of letters will appear. Your task is to indicate if the letter string forms a word or not (i.e., if it is a nonword). For example, AUTHOR is a word while AUTHON is a nonword.

Press the space bar or touch the button below to continue.",0,,5db6b2e41218ef000b26851d,2020-08-10_15h25.54.217,lexical_decision_task_MP,2020.1.3,Linux armv8l,60,,,,,,,,,,,,,,,,,,,,,,,,,,,,,,,,,,,,,,,,
,,0.121693361,-0.392803007,1,0,0,instr_done_button,0,1,1,1,1,2,instructions,"If your device has a keyboard, press the 'Z' key for nonwords and the 'M' key for words.





Press the space bar or touch the button below to continue.",1,keyboard-example.gif,5db6b2e41218ef000b26851d,2020-08-10_15h25.54.217,lexical_decision_task_MP,2020.1.3,Linux armv8l,60,,,,,,,,,,,,,,,,,,,,,,,,,,,,,,,,,,,,,,,,
,,0.045518745,-0.384757551,1,0,0,instr_done_button,0,2,2,2,1,3,instructions,"If you are using a touchscreen only device, use the buttons on the screen. Do not use the mouse.





Press the space bar or touch the button below to continue.",1,touchscreen-example.gif,5db6b2e41218ef000b26851d,2020-08-10_15h25.54.217,lexical_decision_task_MP,2020.1.3,Linux armv8l,60,,,,,,,,,,,,,,,,,,,,,,,,,,,,,,,,,,,,,,,,
,,0.107281953,-0.394022081,1,0,0,instr_done_button,0,3,3,3,1,4,instructions,"It is very important that you respond as quickly and accurately as possible, as each letter string will only be on the screen for two seconds. If you do not respond within this time, the message 'Too slow!' will be displayed and the experiment will progress to the next letter string. The first 20 trials will be practice trials and you will receive feedback on your answers. 

Press the space bar or touch the button below to start the practice trials.",0,,5db6b2e41218ef000b26851d,2020-08-10_15h25.54.217,lexical_decision_task_MP,2020.1.3,Linux armv8l,60,,,,,,,,,,,,,,,,,,,,,,,,,,,,,,,,,,,,,,,,
,,,,,,,,,,,,,,,,,,5db6b2e41218ef000b26851d,2020-08-10_15h25.54.217,lexical_decision_task_MP,2020.1.3,Linux armv8l,60,,0,-0.341530513,0.001181075,1,0,0,1.036,,,-1,0,0,0,15,1,1016,NW,UN,50,mushed,WHAISE,z,,,,,,,,,,,,,,,,,
,,,,,,,,,,,,,,,,,,5db6b2e41218ef000b26851d,2020-08-10_15h25.54.217,lexical_decision_task_MP,2020.1.3,Linux armv8l,60,,0,-0.05741986,-0.111699262,1,0,0,1.1697,,,-1,0,1,1,8,1,1009,NW,"ID",33,aslert,ASLERT,z,,,,,,,,,,,,,,,,,
,,,,,,,,,,,,,,,,,,5db6b2e41218ef000b26851d,2020-08-10_15h25.54.217,lexical_decision_task_MP,2020.1.3,Linux armv8l,60,,0,0.394480733,-0.308447458,1,0,0,1.0524,button_right,1.0524,1,0,2,2,7,1,1008,WORD,UN,50,hurdle,VOLUME,m,,,,,,,,,,,,,,,,,
,,,,,,,,,,,,,,,,,,5db6b2e41218ef000b26851d,2020-08-10_15h25.54.217,lexical_decision_task_MP,2020.1.3,Linux armv8l,60,,0,-0.415131615,-0.28528632,1,0,0,1.0669,button_left,1.0669,1,0,3,3,10,1,1011,NW,"ID",50,inlade,INLADE,z,,,,,,,,,,,,,,,,,
,,,,,,,,,,,,,,,,,,5db6b2e41218ef000b26851d,2020-08-10_15h25.54.217,lexical_decision_task_MP,2020.1.3,Linux armv8l,60,,0,-0.425940171,-0.286261475,1,0,0,1.0845,button_left,1.0845,1,0,4,4,12,1,1013,NW,UN,33,adveil,SPRINY,z,,,,,,,,,,,,,,,,,
,,,,,,,,,,,,,,,,,,5db6b2e41218ef000b26851d,2020-08-10_15h25.54.217,lexical_decision_task_MP,2020.1.3,Linux armv8l,60,,0,-0.425940171,-0.266757335,1,0,0,0.8847,button_left,0.8847,1,0,5,5,14,1,1015,NW,UN,50,miaber,THRALE,z,,,,,,,,,,,,,,,,,
,,,,,,,,,,,,,,,,,,5db6b2e41218ef000b26851d,2020-08-10_15h25.54.217,lexical_decision_task_MP,2020.1.3,Linux armv8l,60,,0,0.398083585,-0.289918622,1,0,0,0.7843,button_right,0.7843,1,0,6,6,6,1,1007,WORD,UN,50,tropic,ZOMBIE,m,,,,,,,,,,,,,,,,,
,,,,,,,,,,,,,,,,,,5db6b2e41218ef000b26851d,2020-08-10_15h25.54.217,lexical_decision_task_MP,2020.1.3,Linux armv8l,60,,0,-0.393514504,-0.274315177,1,0,0,0.8006,button_left,0.8006,1,0,7,7,13,1,1014,NW,UN,33,winfer,ROUPET,z,,,,,,,,,,,,,,,,,
,,,,,,,,,,,,,,,,,,5db6b2e41218ef000b26851d,2020-08-10_15h25.54.217,lexical_decision_task_MP,2020.1.3,Linux armv8l,60,,0,0.402715739,-0.26724495,1,0,0,0.8487,button_right,0.8487,1,0,8,8,1,1,1002,WORD,"ID",33,adjust,ADJUST,m,,,,,,,,,,,,,,,,,
,,,,,,,,,,,,,,,,,,5db6b2e41218ef000b26851d,2020-08-10_15h25.54.217,lexical_decision_task_MP,2020.1.3,Linux armv8l,60,,0,0.398083585,-0.251641579,1,0,0,0.8839,button_right,0.8839,1,0,9,9,0,1,1001,WORD,"ID",33,utopia,UTOPIA,m,,,,,,,,,,,,,,,,,
,,,,,,,,,,,,,,,,,,5db6b2e41218ef000b26851d,2020-08-10_15h25.54.217,lexical_decision_task_MP,2020.1.3,Linux armv8l,60,,0,0.429994602,-0.272364792,1,0,0,0.683,button_right,0.683,1,0,10,10,2,1,1003,WORD,"ID",50,almond,ALMOND,m,,,,,,,,,,,,,,,,,
,,,,,,,,,,,,,,,,,,5db6b2e41218ef000b26851d,2020-08-10_15h25.54.217,lexical_decision_task_MP,2020.1.3,Linux armv8l,60,,0,-0.358515397,-0.249691195,1,0,0,1.1294,button_left,1.1294,1,0,11,11,11,1,1012,NW,"ID",50,rashet,RASHET,z,,,,,,,,,,,,,,,,,
,,,,,,,,,,,,,,,,,,5db6b2e41218ef000b26851d,2020-08-10_15h25.54.217,lexical_decision_task_MP,2020.1.3,Linux armv8l,60,,0,-0.413587515,-0.218240831,1,0,0,0.8546,button_left,0.8546,1,0,12,12,9,1,1010,NW,"ID",33,fariny,FARINY,z,,,,,,,,,,,,,,,,,
,,,,,,,,,,,,,,,,,,5db6b2e41218ef000b26851d,2020-08-10_15h25.54.217,lexical_decision_task_MP,2020.1.3,Linux armv8l,60,,0,0.403745188,-0.30186492,1,0,0,1.0357,button_right,1.0357,1,0,13,13,5,1,1006,WORD,UN,33,frenzy,OBTAIN,m,,,,,,,,,,,,,,,,,
,,,,,,,,,,,,,,,,,,5db6b2e41218ef000b26851d,2020-08-10_15h25.54.217,lexical_decision_task_MP,2020.1.3,Linux armv8l,60,,0,0.441832459,-0.33087736,1,0,0,1.002,button_right,1.002,1,0,14,14,3,1,1004,WORD,"ID",50,matrix,MATRIX,m,,,,,,,,,,,,,,,,,
,,,,,,,,,,,,,,,,,,5db6b2e41218ef000b26851d,2020-08-10_15h25.54.217,lexical_decision_task_MP,2020.1.3,Linux armv8l,60,,0,0.428965152,-0.243108509,1,0,0,0.7046,button_right,0.7046,1,0,15,15,4,1,1005,WORD,UN,33,abound,SQUEAK,m,,,,,,,,,,,,,,,,,
,,0.060959529,-0.380125249,1,0,0,instr_done_button,,,,,,1,end_of_practice,"You have completed the practice trials. During the experimental trials, you will not receive feedback, but it is very important that you respond as quickly and accurately as possible. 
Before you begin, please ensure that you are in a comfortable and quiet location and will not be disturbed for about 15 minutes, as we cannot use your data if you do not complete all the trials. 
There will be opportunities to take breaks at regular intervals during the experiment. When you are ready to start the experimental trials, please press space or touch the button below.",,,5db6b2e41218ef000b26851d,2020-08-10_15h25.54.217,lexical_decision_task_MP,2020.1.3,Linux armv8l,60,,,,,,,,,,,,,,,,,,,,,,,,0,0,0,0,1,,,,,,,,,,,,
,,,,,,,,,,,,,,,,,,5db6b2e41218ef000b26851d,2020-08-10_15h25.54.217,lexical_decision_task_MP,2020.1.3,Linux armv8l,60,,0,0.405289289,-0.29381939,1,0,0,0.9534,button_right,0.9534,1,,,,,,9,WORD,"ID",50,hustle,HUSTLE,m,,,,,,0.405289289,-0.29381939,1,0,0,,0,0,0,68,1,
,,,,,,,,,,,,,,,,,,5db6b2e41218ef000b26851d,2020-08-10_15h25.54.217,lexical_decision_task_MP,2020.1.3,Linux armv8l,60,,0,0.462420269,-0.303815231,1,0,0,0.6983,button_right,0.6983,0,,,,,,298,NW,"ID",50,piergy,PIERGY,z,,,,,,0.462420269,-0.303815231,1,0,0,,0,1,1,357,1,
,,,,,,,,,,,,,,,,,,5db6b2e41218ef000b26851d,2020-08-10_15h25.54.217,lexical_decision_task_MP,2020.1.3,Linux armv8l,60,,0,0.425876951,-0.263587878,1,0,0,0.7369,button_right,0.7369,0,,,,,,312,NW,UN,33,paurse,NERAWL,z,,,,,,0.425876951,-0.263587878,1,0,0,,0,2,2,371,1,
,,,,,,,,,,,,,,,,,,5db6b2e41218ef000b26851d,2020-08-10_15h25.54.217,lexical_decision_task_MP,2020.1.3,Linux armv8l,60,,0,0.389333781,-0.330633441,1,0,0,0.735,button_right,0.735,1,,,,,,152,WORD,UN,50,behold,ROCKET,m,,,,,,0.389333781,-0.330633441,1,0,0,,0,3,3,211,1,
,,,,,,,,,,,,,,,,,,5db6b2e41218ef000b26851d,2020-08-10_15h25.54.217,lexical_decision_task_MP,2020.1.3,Linux armv8l,60,,0,,,,,,,,0.735,-1,,,,,,398,NW,UN,50,fouret,BLUNDE,z,,,,,,-0.367779852,-0.282604477,0,0,0,,0,4,4,457,1,
,,,,,,,,,,,,,,,,,,5db6b2e41218ef000b26851d,2020-08-10_15h25.54.217,lexical_decision_task_MP,2020.1.3,Linux armv8l,60,,0,0.436685507,-0.302840001,1,0,0,0.8505,button_right,0.8505,1,,,,,,101,WORD,UN,33,direct,WRENCH,m,,,,,,0.436685507,-0.302840001,1,0,0,,0,5,5,160,1,
,,,,,,,,,,,,,,,,,,5db6b2e41218ef000b26851d,2020-08-10_15h25.54.217,lexical_decision_task_MP,2020.1.3,Linux armv8l,60,,0,-0.420793219,-0.289674703,1,0,0,0.8165,button_left,0.8165,1,,,,,,436,NW,"ID",33,frutan,FRUTAN,z,,,,,,-0.420793219,-0.289674703,1,0,0,,0,6,6,255,1,
,,,,,,,,,,,,,,,,,,5db6b2e41218ef000b26851d,2020-08-10_15h25.54.217,lexical_decision_task_MP,2020.1.3,Linux armv8l,60,,0,0.455729216,-0.295038464,1,0,0,0.8854,button_right,0.8854,0,,,,,,422,NW,"ID",33,alcoud,ALCOUD,z,,,,,,0.455729216,-0.295038464,1,0,0,,0,7,7,241,1,
,,,,,,,,,,,,,,,,,,5db6b2e41218ef000b26851d,2020-08-10_15h25.54.217,lexical_decision_task_MP,2020.1.3,Linux armv8l,60,,0,0.432053353,-0.290893703,1,0,0,0.7328,button_right,0.7328,1,,,,,,148,WORD,UN,50,invade,CUSTOM,m,,,,,,0.432053353,-0.290893703,1,0,0,,0,8,8,207,1,
,,,,,,,,,,,,,,,,,,5db6b2e41218ef000b26851d,2020-08-10_15h25.54.217,lexical_decision_task_MP,2020.1.3,Linux armv8l,60,,0,0.457787967,-0.303083846,1,0,0,0.7191,button_right,0.7191,1,,,,,,240,WORD,"ID",33,forest,FOREST,m,,,,,,0.457787967,-0.303083846,1,0,0,,0,9,9,59,1,
,,,,,,,,,,,,,,,,,,5db6b2e41218ef000b26851d,2020-08-10_15h25.54.217,lexical_decision_task_MP,2020.1.3,Linux armv8l,60,,0,-0.433660563,-0.260174649,1,0,0,0.6525,button_left,0.6525,1,,,,,,327,NW,UN,33,broake,PLENAC,z,,,,,,-0.433660563,-0.260174649,1,0,0,,0,10,10,386,1,
,,,,,,,,,,,,,,,,,,5db6b2e41218ef000b26851d,2020-08-10_15h25.54.217,lexical_decision_task_MP,2020.1.3,Linux armv8l,60,,0,0.474258127,-0.310885531,1,0,0,0.7036,button_right,0.7036,1,,,,,,50,WORD,"ID",50,snatch,SNATCH,m,,,,,,0.474258127,-0.310885531,1,0,0,,0,11,11,109,1,
,,,,,,,,,,,,,,,,,,5db6b2e41218ef000b26851d,2020-08-10_15h25.54.217,lexical_decision_task_MP,2020.1.3,Linux armv8l,60,,0,-0.405352435,-0.274315177,1,0,0,0.6852,button_left,0.6852,1,,,,,,299,NW,"ID",50,sturch,STURCH,z,,,,,,-0.405352435,-0.274315177,1,0,0,,0,12,12,358,1,
,,,,,,,,,,,,,,,,,,5db6b2e41218ef000b26851d,2020-08-10_15h25.54.217,lexical_decision_task_MP,2020.1.3,Linux armv8l,60,,0,0.434626755,-0.299426773,1,0,0,0.6693,button_right,0.6693,1,,,,,,194,WORD,"ID",33,absent,ABSENT,m,,,,,,0.434626755,-0.299426773,1,0,0,,0,13,13,13,1,
,,,,,,,,,,,,,,,,,,5db6b2e41218ef000b26851d,2020-08-10_15h25.54.217,lexical_decision_task_MP,2020.1.3,Linux armv8l,60,,0,-0.442925018,-0.256030036,1,0,0,0.7361,button_left,0.7361,1,,,,,,368,NW,UN,50,wronch,HORNAL,z,,,,,,-0.442925018,-0.256030036,1,0,0,,0,14,14,427,1,
,,,,,,,,,,,,,,,,,,5db6b2e41218ef000b26851d,2020-08-10_15h25.54.217,lexical_decision_task_MP,2020.1.3,Linux armv8l,60,,0,-0.423366695,-0.249447424,1,0,0,0.5464,button_left,0.5464,1,,,,,,277,NW,"ID",50,petain,PETAIN,z,,,,,,-0.423366695,-0.249447424,1,0,0,,0,15,15,336,1,
,,,,,,,,,,,,,,,,,,5db6b2e41218ef000b26851d,2020-08-10_15h25.54.217,lexical_decision_task_MP,2020.1.3,Linux armv8l,60,,0,-0.408440599,-0.277972323,1,0,0,0.8203,button_left,0.8203,1,,,,,,390,NW,UN,50,theldy,HATRUS,z,,,,,,-0.408440599,-0.277972323,1,0,0,,0,16,16,449,1,
,,,,,,,,,,,,,,,,,,5db6b2e41218ef000b26851d,2020-08-10_15h25.54.217,lexical_decision_task_MP,2020.1.3,Linux armv8l,60,,0,-0.474835998,-0.237257282,1,0,0,1.0229,button_left,1.0229,1,,,,,,432,NW,"ID",33,lunker,LUNKER,z,,,,,,-0.474835998,-0.237257282,1,0,0,,0,17,17,251,1,
,,,,,,,,,,,,,,,,,,5db6b2e41218ef000b26851d,2020-08-10_15h25.54.217,lexical_decision_task_MP,2020.1.3,Linux armv8l,60,,0,-0.449101346,-0.262612797,1,0,0,1.1371,button_left,1.1371,1,,,,,,330,NW,UN,33,gilfew,KENSOM,z,,,,,,-0.449101346,-0.262612797,1,0,0,,0,18,18,389,1,
,,,,,,,,,,,,,,,,,,5db6b2e41218ef000b26851d,2020-08-10_15h25.54.217,lexical_decision_task_MP,2020.1.3,Linux armv8l,60,,0,-0.401749583,-0.283823476,1,0,0,1.1835,button_left,1.1835,1,,,,,,385,NW,UN,50,ancust,VEIGMA,z,,,,,,-0.401749583,-0.283823476,1,0,0,,0,19,19,444,1,
,,,,,,,,,,,,,,,,,,5db6b2e41218ef000b26851d,2020-08-10_15h25.54.217,lexical_decision_task_MP,2020.1.3,Linux armv8l,60,,0,0.413009644,-0.302108617,1,0,0,0.818,button_right,0.818,1,,,,,,222,WORD,"ID",33,hinder,HINDER,m,,,,,,0.413009644,-0.302108617,1,0,0,,0,20,20,41,1,
,,,,,,,,,,,,,,,,,,5db6b2e41218ef000b26851d,2020-08-10_15h25.54.217,lexical_decision_task_MP,2020.1.3,Linux armv8l,60,,0,0.46036137,-0.264806951,1,0,0,0.6547,button_right,0.6547,1,,,,,,99,WORD,UN,33,carbon,FLUENT,m,,,,,,0.46036137,-0.264806951,1,0,0,,0,21,21,158,1,
,,,,,,,,,,,,,,,,,,5db6b2e41218ef000b26851d,2020-08-10_15h25.54.217,lexical_decision_task_MP,2020.1.3,Linux armv8l,60,,0,-0.422337319,-0.289918622,1,0,0,1.4546,button_left,1.4546,1,,,,,,254,NW,"ID",50,varosh,VAROSH,z,,,,,,-0.422337319,-0.289918622,1,0,0,,0,22,22,313,1,
,,,,,,,,,,,,,,,,,,5db6b2e41218ef000b26851d,2020-08-10_15h25.54.217,lexical_decision_task_MP,2020.1.3,Linux armv8l,60,,0,-0.40020552,-0.273583792,1,0,0,0.7695,button_left,0.7695,1,,,,,,467,NW,"ID",33,gorbie,GORBIE,z,,,,,,-0.40020552,-0.273583792,1,0,0,,0,23,23,286,1,
,,,,,,,,,,,,,,,,,,5db6b2e41218ef000b26851d,2020-08-10_15h25.54.217,lexical_decision_task_MP,2020.1.3,Linux armv8l,60,,0,-0.395058567,-0.264806951,1,0,0,1.0899,button_left,1.0899,1,,,,,,265,NW,"ID",50,distar,DISTAR,z,,,,,,-0.395058567,-0.264806951,1,0,0,,0,24,24,324,1,
,,,,,,,,,,,,,,,,,,5db6b2e41218ef000b26851d,2020-08-10_15h25.54.217,lexical_decision_task_MP,2020.1.3,Linux armv8l,60,,0,0.435141406,-0.282604477,1,0,0,0.6544,button_right,0.6544,1,,,,,,44,WORD,"ID",50,danger,DANGER,m,,,,,,0.435141406,-0.282604477,1,0,0,,0,25,25,103,1,
,,,,,,,,,,,,,,,,,,5db6b2e41218ef000b26851d,2020-08-10_15h25.54.217,lexical_decision_task_MP,2020.1.3,Linux armv8l,60,,0,0.467052423,-0.295038464,1,0,0,0.6325,button_right,0.6325,1,,,,,,158,WORD,UN,50,detail,ISLAND,m,,,,,,0.467052423,-0.295038464,1,0,0,,0,26,26,217,1,
,,,,,,,,,,,,,,,,,,5db6b2e41218ef000b26851d,2020-08-10_15h25.54.217,lexical_decision_task_MP,2020.1.3,Linux armv8l,60,,0,0.452641015,-0.266026025,1,0,0,0.851,button_right,0.851,1,,,,,,85,WORD,UN,33,rodent,SPRAWL,m,,,,,,0.452641015,-0.266026025,1,0,0,,0,27,27,144,1,
,,,,,,,,,,,,,,,,,,5db6b2e41218ef000b26851d,2020-08-10_15h25.54.217,lexical_decision_task_MP,2020.1.3,Linux armv8l,60,,0,-0.392485091,-0.25773665,1,0,0,0.8637,button_left,0.8637,1,,,,,,360,NW,UN,33,fainch,DESORY,z,,,,,,-0.392485091,-0.25773665,1,0,0,,0,28,28,419,1,
,,,,,,,,,,,,,,,,,,5db6b2e41218ef000b26851d,2020-08-10_15h25.54.217,lexical_decision_task_MP,2020.1.3,Linux armv8l,60,,0,-0.383735323,-0.247984581,1,0,0,0.7337,button_left,0.7337,1,,,,,,267,NW,"ID",50,pasink,PASINK,z,,,,,,-0.383735323,-0.247984581,1,0,0,,0,29,29,326,1,
,,,,,,,,,,,,,,,,,,5db6b2e41218ef000b26851d,2020-08-10_15h25.54.217,lexical_decision_task_MP,2020.1.3,Linux armv8l,60,,0,-0.414616927,-0.242864738,1,0,0,0.7012,button_left,0.7012,1,,,,,,328,NW,UN,33,yarike,BROAKE,z,,,,,,-0.414616927,-0.242864738,1,0,0,,0,30,30,387,1,
,,,,,,,,,,,,,,,,,,5db6b2e41218ef000b26851d,2020-08-10_15h25.54.217,lexical_decision_task_MP,2020.1.3,Linux armv8l,60,,0,0.492272386,-0.287724319,1,0,0,0.7516,button_right,0.7516,1,,,,,,110,WORD,UN,33,induce,POLITE,m,,,,,,0.492272386,-0.287724319,1,0,0,,0,31,31,169,1,
,,,,,,,,,,,,,,,,,,5db6b2e41218ef000b26851d,2020-08-10_15h25.54.217,lexical_decision_task_MP,2020.1.3,Linux armv8l,60,,0,-0.414102202,-0.264075492,1,0,0,0.6848,button_left,0.6848,1,,,,,,475,NW,"ID",33,pebric,PEBRIC,z,,,,,,-0.414102202,-0.264075492,1,0,0,,0,32,32,294,1,
,,,,,,,,,,,,,,,,,,5db6b2e41218ef000b26851d,2020-08-10_15h25.54.217,lexical_decision_task_MP,2020.1.3,Linux armv8l,60,,0,0.496389889,-0.296745078,1,0,0,0.5831,button_right,0.5831,1,,,,,,144,WORD,UN,50,parish,SPONGE,m,,,,,,0.496389889,-0.296745078,1,0,0,,0,33,33,203,1,
,,,,,,,,,,,,,,,,,,5db6b2e41218ef000b26851d,2020-08-10_15h25.54.217,lexical_decision_task_MP,2020.1.3,Linux armv8l,60,,0,-0.398146731,-0.25871188,1,0,0,0.6845,button_left,0.6845,1,,,,,,365,NW,UN,50,toshel,GUAIRT,z,,,,,,-0.398146731,-0.25871188,1,0,0,,0,34,34,424,1,
,,,,,,,,,,,,,,,,,,5db6b2e41218ef000b26851d,2020-08-10_15h25.54.217,lexical_decision_task_MP,2020.1.3,Linux armv8l,60,,0,0.456758518,-0.279191249,1,0,0,0.5853,button_right,0.5853,1,,,,,,73,WORD,UN,33,plaque,SOURCE,m,,,,,,0.456758518,-0.279191249,1,0,0,,0,35,35,132,1,
,,,,,,,,,,,,,,,,,,5db6b2e41218ef000b26851d,2020-08-10_15h25.54.217,lexical_decision_task_MP,2020.1.3,Linux armv8l,60,,0,0.470140624,-0.286017705,1,0,0,0.6343,button_right,0.6343,1,,,,,,206,WORD,"ID",33,tailor,TAILOR,m,,,,,,0.470140624,-0.286017705,1,0,0,,0,36,36,25,1,
,,,,,,,,,,,,,,,,,,5db6b2e41218ef000b26851d,2020-08-10_15h25.54.217,lexical_decision_task_MP,2020.1.3,Linux armv8l,60,,0,-0.431601774,-0.254323422,1,0,0,0.6346,button_left,0.6346,1,,,,,,474,NW,"ID",33,hablin,HABLIN,z,,,,,,-0.431601774,-0.254323422,1,0,0,,0,37,37,293,1,
,,,,,,,,,,,,,,,,,,5db6b2e41218ef000b26851d,2020-08-10_15h25.54.217,lexical_decision_task_MP,2020.1.3,Linux armv8l,60,,0,-0.441895642,-0.264319411,1,0,0,0.6686,button_left,0.6686,1,,,,,,350,NW,UN,33,tiesch,NAGURS,z,,,,,,-0.441895642,-0.264319411,1,0,0,,0,38,38,409,1,
,,,,,,,,,,,,,,,,,,5db6b2e41218ef000b26851d,2020-08-10_15h25.54.217,lexical_decision_task_MP,2020.1.3,Linux armv8l,60,,0,0.48094918,-0.3147863,1,0,0,0.7038,button_right,0.7038,1,,,,,,170,WORD,UN,50,dragon,POUNCE,m,,,,,,0.48094918,-0.3147863,1,0,0,,0,39,39,229,1,
,,,,,,,,,,,,,,,,,,5db6b2e41218ef000b26851d,2020-08-10_15h25.54.217,lexical_decision_task_MP,2020.1.3,Linux armv8l,60,,0,-0.385279387,-0.288699548,1,0,0,0.5521,button_left,0.5521,0,,,,,,232,WORD,"ID",33,inject,INJECT,m,,,,,,-0.385279387,-0.288699548,1,0,0,,0,40,40,51,1,
,,,,,,,,,,,,,,,,,,5db6b2e41218ef000b26851d,2020-08-10_15h25.54.217,lexical_decision_task_MP,2020.1.3,Linux armv8l,60,,0,-0.434689938,-0.290406162,1,0,0,0.8508,button_left,0.8508,0,,,,,,59,WORD,"ID",50,splint,SPLINT,m,,,,,,-0.434689938,-0.290406162,1,0,0,,0,41,41,118,1,
,,,,,,,,,,,,,,,,,,5db6b2e41218ef000b26851d,2020-08-10_15h25.54.217,lexical_decision_task_MP,2020.1.3,Linux armv8l,60,,0,-0.442925018,-0.275534176,1,0,0,0.7196,button_left,0.7196,1,,,,,,431,NW,"ID",33,chrums,CHRUMS,z,,,,,,-0.442925018,-0.275534176,1,0,0,,0,42,42,250,1,
,,,,,,,,,,,,,,,,,,5db6b2e41218ef000b26851d,2020-08-10_15h25.54.217,lexical_decision_task_MP,2020.1.3,Linux armv8l,60,,0,-0.434175251,-0.290406162,1,0,0,0.6709,button_left,0.6709,1,,,,,,464,NW,"ID",33,chaite,CHAITE,z,,,,,,-0.434175251,-0.290406162,1,0,0,,0,43,43,283,1,
,,,,,,,,,,,,,,,,,,5db6b2e41218ef000b26851d,2020-08-10_15h25.54.217,lexical_decision_task_MP,2020.1.3,Linux armv8l,60,,0,-0.392999816,-0.276021791,1,0,0,1.2701,button_left,1.2701,1,,,,,,318,NW,UN,33,zomber,REAGLY,z,,,,,,-0.392999816,-0.276021791,1,0,0,,0,44,44,377,1,
,,,,,,,,,,,,,,,,,,5db6b2e41218ef000b26851d,2020-08-10_15h25.54.217,lexical_decision_task_MP,2020.1.3,Linux armv8l,60,,0,0.454699766,-0.27724079,1,0,0,0.5343,button_right,0.5343,1,,,,,,106,WORD,UN,33,slogan,RANSOM,m,,,,,,0.454699766,-0.27724079,1,0,0,,0,45,45,165,1,
,,,,,,,,,,,,,,,,,,5db6b2e41218ef000b26851d,2020-08-10_15h25.54.217,lexical_decision_task_MP,2020.1.3,Linux armv8l,60,,0,0.481978481,-0.297232619,1,0,0,0.5382,button_right,0.5382,1,,,,,,203,WORD,"ID",33,phrase,PHRASE,m,,,,,,0.481978481,-0.297232619,1,0,0,,0,46,46,22,1,
,,,,,,,,,,,,,,,,,,5db6b2e41218ef000b26851d,2020-08-10_15h25.54.217,lexical_decision_task_MP,2020.1.3,Linux armv8l,60,,0,0.44492066,-0.269439253,1,0,0,0.5364,button_right,0.5364,1,,,,,,36,WORD,"ID",50,vanish,VANISH,m,,,,,,0.44492066,-0.269439253,1,0,0,,0,47,47,95,1,
,,,,,,,,,,,,,,,,,,5db6b2e41218ef000b26851d,2020-08-10_15h25.54.217,lexical_decision_task_MP,2020.1.3,Linux armv8l,60,,0,-0.485129866,-0.275046636,1,0,0,0.6249,button_left,0.6249,1,,,,,,333,NW,UN,33,watmeg,CATRIE,z,,,,,,-0.485129866,-0.275046636,1,0,0,,0,48,48,392,1,
,,,,,,,,,,,,,,,,,,5db6b2e41218ef000b26851d,2020-08-10_15h25.54.217,lexical_decision_task_MP,2020.1.3,Linux armv8l,60,,0,-0.431601774,-0.280166478,1,0,0,0.6499,button_left,0.6499,1,,,,,,402,NW,UN,50,bruats,SYNTIC,z,,,,,,-0.431601774,-0.280166478,1,0,0,,0,49,49,461,1,
,,,,,,,,,,,,,,,,,,5db6b2e41218ef000b26851d,2020-08-10_15h25.54.217,lexical_decision_task_MP,2020.1.3,Linux armv8l,60,,0,0.463964222,-0.278947404,1,0,0,0.4839,button_right,0.4839,1,,,,,,235,WORD,"ID",33,grumpy,GRUMPY,m,,,,,,0.463964222,-0.278947404,1,0,0,,0,50,50,54,1,
,,,,,,,,,,,,,,,,,,5db6b2e41218ef000b26851d,2020-08-10_15h25.54.217,lexical_decision_task_MP,2020.1.3,Linux armv8l,60,,0,-0.449101346,-0.277972323,1,0,0,0.6346,button_left,0.6346,1,,,,,,471,NW,"ID",33,nobest,NOBEST,z,,,,,,-0.449101346,-0.277972323,1,0,0,,0,51,51,290,1,
,,,,,,,,,,,,,,,,,,5db6b2e41218ef000b26851d,2020-08-10_15h25.54.217,lexical_decision_task_MP,2020.1.3,Linux armv8l,60,,0,0.458817417,-0.283092165,1,0,0,0.4877,button_right,0.4877,1,,,,,,161,WORD,UN,50,candle,PASTOR,m,,,,,,0.458817417,-0.283092165,1,0,0,,0,52,52,220,1,
,,,,,,,,,,,,,,,,,,5db6b2e41218ef000b26851d,2020-08-10_15h25.54.217,lexical_decision_task_MP,2020.1.3,Linux armv8l,60,,0,0.477346328,-0.281385551,1,0,0,0.4496,button_right,0.4496,1,,,,,,178,WORD,UN,50,basket,INFORM,m,,,,,,0.477346328,-0.281385551,1,0,0,,0,53,53,237,1,
,,,,,,,,,,,,,,,,,,5db6b2e41218ef000b26851d,2020-08-10_15h25.54.217,lexical_decision_task_MP,2020.1.3,Linux armv8l,60,,0,0.475287576,-0.275046636,1,0,0,0.381,button_right,0.381,1,,,,,,4,WORD,"ID",50,trench,TRENCH,m,,,,,,0.475287576,-0.275046636,1,0,0,,0,54,54,63,1,
,,,,,,,,,,,,,,,,,,5db6b2e41218ef000b26851d,2020-08-10_15h25.54.217,lexical_decision_task_MP,2020.1.3,Linux armv8l,60,,0,0.456758518,-0.26846395,1,0,0,0.4673,button_right,0.4673,1,,,,,,231,WORD,"ID",33,export,EXPORT,m,,,,,,0.456758518,-0.26846395,1,0,0,,0,55,55,50,1,
,,,,,,,,,,,,,,,,,,5db6b2e41218ef000b26851d,2020-08-10_15h25.54.217,lexical_decision_task_MP,2020.1.3,Linux armv8l,60,,0,0.400656987,-0.283335862,1,0,0,0.6833,button_right,0.6833,1,,,,,,83,WORD,UN,33,mortal,RESULT,m,,,,,,0.400656987,-0.283335862,1,0,0,,0,56,56,142,1,
,,,,,,,,,,,,,,,,,,5db6b2e41218ef000b26851d,2020-08-10_15h25.54.217,lexical_decision_task_MP,2020.1.3,Linux armv8l,60,,0,0.44234711,-0.288699548,1,0,0,0.5187,button_right,0.5187,0,,,,,,403,NW,UN,50,cluirm,BRUATS,z,,,,,,0.44234711,-0.288699548,1,0,0,,0,57,57,462,1,
,,,,,,,,,,,,,,,,,,5db6b2e41218ef000b26851d,2020-08-10_15h25.54.217,lexical_decision_task_MP,2020.1.3,Linux armv8l,60,,0,0.451096914,-0.305278148,1,0,0,0.9794,button_right,0.9794,1,,,,,,87,WORD,UN,33,sprawl,FILTER,m,,,,,,0.451096914,-0.305278148,1,0,0,,0,58,58,146,1,
,,,,,,,,,,,,,,,,,,5db6b2e41218ef000b26851d,2020-08-10_15h25.54.217,lexical_decision_task_MP,2020.1.3,Linux armv8l,60,,0,0.446979412,-0.287480475,1,0,0,0.9358,button_right,0.9358,1,,,,,,19,WORD,"ID",50,patron,PATRON,m,,,,,,0.446979412,-0.287480475,1,0,0,,0,59,59,78,1,
,,,,,,,,,,,,,,,,,,5db6b2e41218ef000b26851d,2020-08-10_15h25.54.217,lexical_decision_task_MP,2020.1.3,Linux armv8l,60,,0,-0.420278531,-0.279678937,1,0,0,0.5005,button_left,0.5005,1,,,,,,270,NW,"ID",50,wrimsy,WRIMSY,z,,,,,,-0.420278531,-0.279678937,1,0,0,,0,60,60,329,1,
,,,,,,,,,,,,,,,,,,5db6b2e41218ef000b26851d,2020-08-10_15h25.54.217,lexical_decision_task_MP,2020.1.3,Linux armv8l,60,,0,-0.42851361,-0.274071406,1,0,0,0.6527,button_left,0.6527,1,,,,,,381,NW,UN,50,sarley,HUNIEK,z,,,,,,-0.42851361,-0.274071406,1,0,0,,0,61,61,440,1,
,,,,,,,,,,,,,,,,,,5db6b2e41218ef000b26851d,2020-08-10_15h25.54.217,lexical_decision_task_MP,2020.1.3,Linux armv8l,60,,0,0.484552032,-0.30479046,1,0,0,0.987,button_right,0.987,1,,,,,,150,WORD,UN,50,mystic,RANDOM,m,,,,,,0.484552032,-0.30479046,1,0,0,,0,62,62,209,1,
,,,,,,,,,,,,,,,,,,5db6b2e41218ef000b26851d,2020-08-10_15h25.54.217,lexical_decision_task_MP,2020.1.3,Linux armv8l,60,,0,-0.436748727,-0.278216019,1,0,0,0.7295,button_left,0.7295,1,,,,,,377,NW,UN,50,shrile,INJORE,z,,,,,,-0.436748727,-0.278216019,1,0,0,,0,63,63,436,1,
,,,,,,,,,,,,,,,,,,5db6b2e41218ef000b26851d,2020-08-10_15h25.54.217,lexical_decision_task_MP,2020.1.3,Linux armv8l,60,,0,-0.435719314,-0.272120948,1,0,0,1.604,button_left,1.604,1,,,,,,269,NW,"ID",50,orchet,ORCHET,z,,,,,,-0.435719314,-0.272120948,1,0,0,,0,64,64,328,1,
,,,,,,,,,,,,,,,,,,5db6b2e41218ef000b26851d,2020-08-10_15h25.54.217,lexical_decision_task_MP,2020.1.3,Linux armv8l,60,,0,0.433597454,-0.292112776,1,0,0,0.4666,button_right,0.4666,1,,,,,,12,WORD,"ID",50,orange,ORANGE,m,,,,,,0.433597454,-0.292112776,1,0,0,,0,65,65,71,1,
,,,,,,,,,,,,,,,,,,5db6b2e41218ef000b26851d,2020-08-10_15h25.54.217,lexical_decision_task_MP,2020.1.3,Linux armv8l,60,,0,0.46293492,-0.266026025,1,0,0,0.4686,button_right,0.4686,0,,,,,,248,NW,"ID",50,strole,STROLE,z,,,,,,0.46293492,-0.266026025,1,0,0,,0,66,66,307,1,
,,,,,,,,,,,,,,,,,,5db6b2e41218ef000b26851d,2020-08-10_15h25.54.217,lexical_decision_task_MP,2020.1.3,Linux armv8l,60,,0,0.483007931,-0.294794546,1,0,0,0.5555,button_right,0.5555,0,,,,,,407,NW,UN,50,hurnia,SUIVER,z,,,,,,0.483007931,-0.294794546,1,0,0,,0,67,67,466,1,
,,,,,,,,,,,,,,,,,,5db6b2e41218ef000b26851d,2020-08-10_15h25.54.217,lexical_decision_task_MP,2020.1.3,Linux armv8l,60,,0,0.413524294,-0.29381939,1,0,0,0.6848,button_right,0.6848,0,,,,,,278,NW,"ID",50,unighs,UNIGHS,z,,,,,,0.413524294,-0.29381939,1,0,0,,0,68,68,337,1,
,,,,,,,,,,,,,,,,,,5db6b2e41218ef000b26851d,2020-08-10_15h25.54.217,lexical_decision_task_MP,2020.1.3,Linux armv8l,60,,0,-0.411014075,-0.277728405,1,0,0,0.7355,button_left,0.7355,1,,,,,,386,NW,UN,50,gronce,ANCUST,z,,,,,,-0.411014075,-0.277728405,1,0,0,,0,69,69,445,1,
,,,,,,,,,,,,,,,,,,5db6b2e41218ef000b26851d,2020-08-10_15h25.54.217,lexical_decision_task_MP,2020.1.3,Linux armv8l,60,,0,-0.425940171,-0.271633407,1,0,0,0.6017,button_left,0.6017,1,,,,,,447,NW,"ID",33,gircue,GIRCUE,z,,,,,,-0.425940171,-0.271633407,1,0,0,,0,70,70,266,1,
,,,,,,,,,,,,,,,,,,5db6b2e41218ef000b26851d,2020-08-10_15h25.54.217,lexical_decision_task_MP,2020.1.3,Linux armv8l,60,,0,0.388304331,-0.277972323,1,0,0,0.7037,button_right,0.7037,1,,,,,,57,WORD,"ID",50,change,CHANGE,m,,,,,,0.388304331,-0.277972323,1,0,0,,0,71,71,116,1,
,,,,,,,,,,,,,,,,,,5db6b2e41218ef000b26851d,2020-08-10_15h25.54.217,lexical_decision_task_MP,2020.1.3,Linux armv8l,60,,0,0.411980342,-0.289918622,1,0,0,0.5197,button_right,0.5197,1,,,,,,140,WORD,UN,50,chrome,PRINCE,m,,,,,,0.411980342,-0.289918622,1,0,0,,0,72,72,199,1,
,,,,,,,,,,,,,,,,,,5db6b2e41218ef000b26851d,2020-08-10_15h25.54.217,lexical_decision_task_MP,2020.1.3,Linux armv8l,60,,0,-0.456821738,-0.24920358,1,0,0,0.6028,button_left,0.6028,0,,,,,,227,WORD,"ID",33,seldom,SELDOM,m,,,,,,-0.456821738,-0.24920358,1,0,0,,0,73,73,46,1,
,,,,,,,,,,,,,,,,,,5db6b2e41218ef000b26851d,2020-08-10_15h25.54.217,lexical_decision_task_MP,2020.1.3,Linux armv8l,60,,0,-0.429028335,-0.251885423,1,0,0,0.7346,button_left,0.7346,1,,,,,,438,NW,"ID",33,baitch,BAITCH,z,,,,,,-0.429028335,-0.251885423,1,0,0,,0,74,74,257,1,
,,,,,,,,,,,,,,,,,,5db6b2e41218ef000b26851d,2020-08-10_15h25.54.217,lexical_decision_task_MP,2020.1.3,Linux armv8l,60,,0,-0.431087087,-0.283335862,1,0,0,0.6686,button_left,0.6686,1,,,,,,245,NW,"ID",50,anougs,ANOUGS,z,,,,,,-0.431087087,-0.283335862,1,0,0,,0,75,75,304,1,
,,,,,,,,,,,,,,,,,,5db6b2e41218ef000b26851d,2020-08-10_15h25.54.217,lexical_decision_task_MP,2020.1.3,Linux armv8l,60,,0,0.423818199,-0.27675325,1,0,0,0.5007,button_right,0.5007,1,,,,,,60,WORD,"ID",50,pencil,PENCIL,m,,,,,,0.423818199,-0.27675325,1,0,0,,0,76,76,119,1,
,,,,,,,,,,,,,,,,,,5db6b2e41218ef000b26851d,2020-08-10_15h25.54.217,lexical_decision_task_MP,2020.1.3,Linux armv8l,60,,0,0.442861909,-0.286017705,1,0,0,0.5358,button_right,0.5358,1,,,,,,134,WORD,UN,50,import,STAPLE,m,,,,,,0.442861909,-0.286017705,1,0,0,,0,77,77,193,1,
,,,,,,,,,,,,,,,,,,5db6b2e41218ef000b26851d,2020-08-10_15h25.54.217,lexical_decision_task_MP,2020.1.3,Linux armv8l,60,,0,0.445949962,-0.287968089,1,0,0,0.5571,button_right,0.5571,1,,,,,,35,WORD,"ID",50,socket,SOCKET,m,,,,,,0.445949962,-0.287968089,1,0,0,,0,78,78,94,1,
,,,,,,,,,,,,,,,,,,5db6b2e41218ef000b26851d,2020-08-10_15h25.54.217,lexical_decision_task_MP,2020.1.3,Linux armv8l,60,,0,0.440803157,-0.294794546,1,0,0,0.4681,button_right,0.4681,1,,,,,,145,WORD,UN,50,couple,PARISH,m,,,,,,0.440803157,-0.294794546,1,0,0,,0,79,79,204,1,
,,,,,,,,,,,,,,,,,,5db6b2e41218ef000b26851d,2020-08-10_15h25.54.217,lexical_decision_task_MP,2020.1.3,Linux armv8l,60,,0,0.427935702,-0.289674703,1,0,0,0.4503,button_right,0.4503,0,,,,,,296,NW,"ID",50,beinch,BEINCH,z,,,,,,0.427935702,-0.289674703,1,0,0,,0,80,80,355,1,
,,,,,,,,,,,,,,,,,,5db6b2e41218ef000b26851d,2020-08-10_15h25.54.217,lexical_decision_task_MP,2020.1.3,Linux armv8l,60,,0,0.440288359,-0.295038464,1,0,0,0.6517,button_right,0.6517,1,,,,,,5,WORD,"ID",50,plunge,PLUNGE,m,,,,,,0.440288359,-0.295038464,1,0,0,,0,81,81,64,1,
,,,,,,,,,,,,,,,,,,5db6b2e41218ef000b26851d,2020-08-10_15h25.54.217,lexical_decision_task_MP,2020.1.3,Linux armv8l,60,,0,-0.423881383,-0.287480475,1,0,0,0.6514,button_left,0.6514,1,,,,,,480,NW,"ID",33,robuly,ROBULY,z,,,,,,-0.423881383,-0.287480475,1,0,0,,0,82,82,299,1,
,,,,,,,,,,,,,,,,,,5db6b2e41218ef000b26851d,2020-08-10_15h25.54.217,lexical_decision_task_MP,2020.1.3,Linux armv8l,60,,0,-0.441380954,-0.280654018,1,0,0,0.734,button_left,0.734,1,,,,,,375,NW,UN,50,iguare,YORQUE,z,,,,,,-0.441380954,-0.280654018,1,0,0,,0,83,83,434,1,
,,,,,,,,,,,,,,,,,,5db6b2e41218ef000b26851d,2020-08-10_15h25.54.217,lexical_decision_task_MP,2020.1.3,Linux armv8l,60,,0,-0.452704198,-0.269926793,1,0,0,0.6997,button_left,0.6997,1,,,,,,317,NW,UN,33,reagly,WORBAL,z,,,,,,-0.452704198,-0.269926793,1,0,0,,0,84,84,376,1,
,,,,,,,,,,,,,,,,,,5db6b2e41218ef000b26851d,2020-08-10_15h25.54.217,lexical_decision_task_MP,2020.1.3,Linux armv8l,60,,0,-0.400720207,-0.279678937,1,0,0,0.8883,button_left,0.8883,1,,,,,,357,NW,UN,33,fleack,DERAIN,z,,,,,,-0.400720207,-0.279678937,1,0,0,,0,85,85,416,1,
,,,,,,,,,,,,,,,,,,5db6b2e41218ef000b26851d,2020-08-10_15h25.54.217,lexical_decision_task_MP,2020.1.3,Linux armv8l,60,,0,0.455729216,-0.281629248,1,0,0,0.5047,button_right,0.5047,1,,,,,,237,WORD,"ID",33,poster,POSTER,m,,,,,,0.455729216,-0.281629248,1,0,0,,0,86,86,56,1,
,,,,,,,,,,,,,,,,,,5db6b2e41218ef000b26851d,2020-08-10_15h25.54.217,lexical_decision_task_MP,2020.1.3,Linux armv8l,60,,0,0.476316878,-0.271633407,1,0,0,0.5668,button_right,0.5668,1,,,,,,89,WORD,UN,33,relish,PERMIT,m,,,,,,0.476316878,-0.271633407,1,0,0,,0,87,87,148,1,
,,,,,,,,,,,,,,,,,,5db6b2e41218ef000b26851d,2020-08-10_15h25.54.217,lexical_decision_task_MP,2020.1.3,Linux armv8l,60,,0,0.445435311,-0.262612797,1,0,0,0.5759,button_right,0.5759,0,,,,,,473,NW,"ID",33,crible,CRIBLE,z,,,,,,0.445435311,-0.262612797,1,0,0,,0,88,88,292,1,
,,,,,,,,,,,,,,,,,,5db6b2e41218ef000b26851d,2020-08-10_15h25.54.217,lexical_decision_task_MP,2020.1.3,Linux armv8l,60,,0,0.436685507,-0.259199568,1,0,0,0.5011,button_right,0.5011,1,,,,,,219,WORD,"ID",33,bucket,BUCKET,m,,,,,,0.436685507,-0.259199568,1,0,0,,0,89,89,38,1,
,,,,,,,,,,,,,,,,,,5db6b2e41218ef000b26851d,2020-08-10_15h25.54.217,lexical_decision_task_MP,2020.1.3,Linux armv8l,60,,0,-0.397632043,-0.288699548,1,0,0,1.2002,button_left,1.2002,1,,,,,,319,NW,UN,33,jockal,ZOMBER,z,,,,,,-0.397632043,-0.288699548,1,0,0,,0,90,90,378,1,
,,,,,,,,,,,,,,,,,,5db6b2e41218ef000b26851d,2020-08-10_15h25.54.217,lexical_decision_task_MP,2020.1.3,Linux armv8l,60,,0,-0.435204626,-0.247984581,1,0,0,0.786,button_left,0.786,1,,,,,,417,NW,UN,50,suidle,EAROUD,z,,,,,,-0.435204626,-0.247984581,1,0,0,,0,91,91,476,1,
,,,,,,,,,,,,,,,,,,5db6b2e41218ef000b26851d,2020-08-10_15h25.54.217,lexical_decision_task_MP,2020.1.3,Linux armv8l,60,,0,0.434626755,-0.287480475,1,0,0,0.6002,button_right,0.6002,1,,,,,,33,WORD,"ID",50,butler,BUTLER,m,,,,,,0.434626755,-0.287480475,1,0,0,,0,92,92,92,1,
,,,,,,,,,,,,,,,,,,5db6b2e41218ef000b26851d,2020-08-10_15h25.54.217,lexical_decision_task_MP,2020.1.3,Linux armv8l,60,,0,0.454185115,-0.275046636,1,0,0,0.7009,button_right,0.7009,1,,,,,,65,WORD,UN,33,gospel,SYMBOL,m,,,,,,0.454185115,-0.275046636,1,0,0,,0,93,93,124,1,
,,,,,,,,,,,,,,,,,,5db6b2e41218ef000b26851d,2020-08-10_15h25.54.217,lexical_decision_task_MP,2020.1.3,Linux armv8l,60,,0,-0.432631187,-0.269195334,1,0,0,0.937,button_left,0.937,1,,,,,,315,NW,UN,33,scregm,LASTON,z,,,,,,-0.432631187,-0.269195334,1,0,0,,0,94,94,374,1,
,,,,,,,,,,,,,,,,,,5db6b2e41218ef000b26851d,2020-08-10_15h25.54.217,lexical_decision_task_MP,2020.1.3,Linux armv8l,60,,0,-0.403293647,-0.25871188,1,0,0,0.8851,button_left,0.8851,1,,,,,,449,NW,"ID",33,brunge,BRUNGE,z,,,,,,-0.403293647,-0.25871188,1,0,0,,0,95,95,268,1,
,,,,,,,,,,,,,,,,,,5db6b2e41218ef000b26851d,2020-08-10_15h25.54.217,lexical_decision_task_MP,2020.1.3,Linux armv8l,60,,0,-0.417705054,-0.269926793,1,0,0,0.7067,button_left,0.7067,1,,,,,,337,NW,UN,33,wreash,REJOLS,z,,,,,,-0.417705054,-0.269926793,1,0,0,,0,96,96,396,1,
,,,,,,,,,,,,,,,,,,5db6b2e41218ef000b26851d,2020-08-10_15h25.54.217,lexical_decision_task_MP,2020.1.3,Linux armv8l,60,,0,0.469111174,-0.278947404,1,0,0,0.501,button_right,0.501,1,,,,,,166,WORD,UN,50,design,STARCH,m,,,,,,0.469111174,-0.278947404,1,0,0,,0,97,97,225,1,
,,,,,,,,,,,,,,,,,,5db6b2e41218ef000b26851d,2020-08-10_15h25.54.217,lexical_decision_task_MP,2020.1.3,Linux armv8l,60,,0,0.446464761,-0.287236704,1,0,0,0.687,button_right,0.687,1,,,,,,214,WORD,"ID",33,intake,INTAKE,m,,,,,,0.446464761,-0.287236704,1,0,0,,0,98,98,33,1,
,,,,,,,,,,,,,,,,,,5db6b2e41218ef000b26851d,2020-08-10_15h25.54.217,lexical_decision_task_MP,2020.1.3,Linux armv8l,60,,0,0.463449571,-0.264563107,1,0,0,0.6176,button_right,0.6176,1,,,,,,82,WORD,UN,33,result,STIGMA,m,,,,,,0.463449571,-0.264563107,1,0,0,,0,99,99,141,1,
,,,,,,,,,,,,,,,,,,5db6b2e41218ef000b26851d,2020-08-10_15h25.54.217,lexical_decision_task_MP,2020.1.3,Linux armv8l,60,,0,0.469625973,-0.27577802,1,0,0,0.4726,button_right,0.4726,0,,,,,,389,NW,UN,50,hatrus,WITMER,z,,,,,,0.469625973,-0.27577802,1,0,0,,0,100,100,448,1,
,,,,,,,,,,,,,,,,,,5db6b2e41218ef000b26851d,2020-08-10_15h25.54.217,lexical_decision_task_MP,2020.1.3,Linux armv8l,60,,0,0.448523512,-0.294306931,1,0,0,0.4856,button_right,0.4856,1,,,,,,17,WORD,"ID",50,charge,CHARGE,m,,,,,,0.448523512,-0.294306931,1,0,0,,0,101,101,76,1,
,,,,,,,,,,,,,,,,,,5db6b2e41218ef000b26851d,2020-08-10_15h25.54.217,lexical_decision_task_MP,2020.1.3,Linux armv8l,60,,0,-0.399176107,-0.268220179,1,0,0,0.8259,button_left,0.8259,0,,,,,,61,WORD,UN,33,region,PONDER,m,,,,,,-0.399176107,-0.268220179,1,0,0,,0,102,102,120,1,
,,,,,,,,,,,,,,,,,,5db6b2e41218ef000b26851d,2020-08-10_15h25.54.217,lexical_decision_task_MP,2020.1.3,Linux armv8l,60,,0,-0.423366695,-0.272852481,1,0,0,0.7893,button_left,0.7893,1,,,,,,252,NW,"ID",50,stapod,STAPOD,z,,,,,,-0.423366695,-0.272852481,1,0,0,,0,103,103,311,1,
,,,,,,,,,,,,,,,,,,5db6b2e41218ef000b26851d,2020-08-10_15h25.54.217,lexical_decision_task_MP,2020.1.3,Linux armv8l,60,,0,0.447494062,-0.281141633,1,0,0,1.809,button_right,1.809,1,,,,,,234,WORD,"ID",33,clumsy,CLUMSY,m,,,,,,0.447494062,-0.281141633,1,0,0,,0,104,104,53,1,
,,,,,,,,,,,,,,,,,,5db6b2e41218ef000b26851d,2020-08-10_15h25.54.217,lexical_decision_task_MP,2020.1.3,Linux armv8l,60,,0,-0.437778103,-0.28674909,1,0,0,0.6844,button_left,0.6844,1,,,,,,302,NW,UN,33,fiream,MILUER,z,,,,,,-0.437778103,-0.28674909,1,0,0,,0,105,105,361,1,
,,,,,,,,,,,,,,,,,,5db6b2e41218ef000b26851d,2020-08-10_15h25.54.217,lexical_decision_task_MP,2020.1.3,Linux armv8l,60,,0,-0.426454859,-0.306497074,1,0,0,0.7376,button_left,0.7376,1,,,,,,358,NW,UN,33,fonver,FLEACK,z,,,,,,-0.426454859,-0.306497074,1,0,0,,0,106,106,417,1,
,,,,,,,,,,,,,,,,,,5db6b2e41218ef000b26851d,2020-08-10_15h25.54.217,lexical_decision_task_MP,2020.1.3,Linux armv8l,60,,0,0.425876951,-0.300645847,1,0,0,0.5843,button_right,0.5843,1,,,,,,128,WORD,UN,50,marvel,SENIOR,m,,,,,,0.425876951,-0.300645847,1,0,0,,0,107,107,187,1,
,,,,,,,,,,,,,,,,,,5db6b2e41218ef000b26851d,2020-08-10_15h25.54.217,lexical_decision_task_MP,2020.1.3,Linux armv8l,60,,0,-0.419763843,-0.275046636,1,0,0,0.8656,button_left,0.8656,1,,,,,,367,NW,UN,50,hornal,SLIQUE,z,,,,,,-0.419763843,-0.275046636,1,0,0,,0,108,108,426,1,
,,,,,,,,,,,,,,,,,,5db6b2e41218ef000b26851d,2020-08-10_15h25.54.217,lexical_decision_task_MP,2020.1.3,Linux armv8l,60,,0,0.46036137,-0.294063161,1,0,0,0.718,button_right,0.718,1,,,,,,236,WORD,"ID",33,pirate,PIRATE,m,,,,,,0.46036137,-0.294063161,1,0,0,,0,109,109,55,1,
,,,,,,,,,,,,,,,,,,5db6b2e41218ef000b26851d,2020-08-10_15h25.54.217,lexical_decision_task_MP,2020.1.3,Linux armv8l,60,,0,0.408892141,-0.319906142,1,0,0,0.6326,button_right,0.6326,1,,,,,,119,WORD,UN,33,strain,SPIDER,m,,,,,,0.408892141,-0.319906142,1,0,0,,0,110,110,178,1,
,,,,,,,,,,,,,,,,,,5db6b2e41218ef000b26851d,2020-08-10_15h25.54.217,lexical_decision_task_MP,2020.1.3,Linux armv8l,60,,0,-0.437778103,-0.252129194,1,0,0,1.5724,button_left,1.5724,1,,,,,,339,NW,UN,33,fiatch,FACHOW,z,,,,,,-0.437778103,-0.252129194,1,0,0,,0,111,111,398,1,
,,,,,,,,,,,,,,,,,,5db6b2e41218ef000b26851d,2020-08-10_15h25.54.217,lexical_decision_task_MP,2020.1.3,Linux armv8l,60,,0,-0.409469975,-0.308203688,1,0,0,0.8003,button_left,0.8003,1,,,,,,380,NW,UN,50,huniek,CAVORY,z,,,,,,-0.409469975,-0.308203688,1,0,0,,0,112,112,439,1,
,,,,,,,,,,,,,,,,,,5db6b2e41218ef000b26851d,2020-08-10_15h25.54.217,lexical_decision_task_MP,2020.1.3,Linux armv8l,60,,0,-0.439836891,-0.287968089,1,0,0,0.8023,button_left,0.8023,1,,,,,,396,NW,UN,50,camble,FLENGY,z,,,,,,-0.439836891,-0.287968089,1,0,0,,0,113,113,455,1,
,,,,,,,,,,,,,,,,,,5db6b2e41218ef000b26851d,2020-08-10_15h25.54.217,lexical_decision_task_MP,2020.1.3,Linux armv8l,60,,0,0.478890428,-0.283823476,1,0,0,0.5187,button_right,0.5187,1,,,,,,28,WORD,"ID",50,comedy,COMEDY,m,,,,,,0.478890428,-0.283823476,1,0,0,,0,114,114,87,1,
,,,,,,,,,,,,,,,,,,5db6b2e41218ef000b26851d,2020-08-10_15h25.54.217,lexical_decision_task_MP,2020.1.3,Linux armv8l,60,,0,-0.424910758,-0.277728405,1,0,0,0.8541,button_left,0.8541,1,,,,,,434,NW,"ID",33,pitrom,PITROM,z,,,,,,-0.424910758,-0.277728405,1,0,0,,0,115,115,253,1,
,,,,,,,,,,,,,,,,,,5db6b2e41218ef000b26851d,2020-08-10_15h25.54.217,lexical_decision_task_MP,2020.1.3,Linux armv8l,60,,0,0.454699766,-0.268951564,1,0,0,0.5333,button_right,0.5333,1,,,,,,179,WORD,UN,50,silent,BASKET,m,,,,,,0.454699766,-0.268951564,1,0,0,,0,116,116,238,1,
,,,,,,,,,,,,,,,,,,5db6b2e41218ef000b26851d,2020-08-10_15h25.54.217,lexical_decision_task_MP,2020.1.3,Linux armv8l,60,,0,0.416612495,-0.291625236,1,0,0,0.6032,button_right,0.6032,1,,,,,,146,WORD,UN,50,garlic,COUPLE,m,,,,,,0.416612495,-0.291625236,1,0,0,,0,117,117,205,1,
,,,,,,,,,,,,,,,,,,5db6b2e41218ef000b26851d,2020-08-10_15h25.54.217,lexical_decision_task_MP,2020.1.3,Linux armv8l,60,,0,-0.403293647,-0.300645847,1,0,0,0.7355,button_left,0.7355,1,,,,,,282,NW,"ID",50,porlex,PORLEX,z,,,,,,-0.403293647,-0.300645847,1,0,0,,0,118,118,341,1,
,,,,,,,,,,,,,,,,,,5db6b2e41218ef000b26851d,2020-08-10_15h25.54.217,lexical_decision_task_MP,2020.1.3,Linux armv8l,60,,0,-0.448071971,-0.272364792,1,0,0,0.6339,button_left,0.6339,1,,,,,,326,NW,UN,33,plenac,IGUADE,z,,,,,,-0.448071971,-0.272364792,1,0,0,,0,119,119,385,1,
,,,,,,,,,,,,,,,,,,5db6b2e41218ef000b26851d,2020-08-10_15h25.54.217,lexical_decision_task_MP,2020.1.3,Linux armv8l,60,,0,-0.42851361,-0.270901949,1,0,0,0.7843,button_left,0.7843,1,,,,,,387,NW,UN,50,cragin,GRONCE,z,,,,,,0.107281953,-0.362327724,1,0,0,,0,120,120,446,1,break_done_button
,,,,,,,,,,,,,,,,,,5db6b2e41218ef000b26851d,2020-08-10_15h25.54.217,lexical_decision_task_MP,2020.1.3,Linux armv8l,60,,0,0.431023903,-0.270901949,1,0,0,0.7529,button_right,0.7529,1,,,,,,153,WORD,UN,50,author,BEHOLD,m,,,,,,0.431023903,-0.270901949,1,0,0,,0,121,121,212,1,
,,,,,,,,,,,,,,,,,,5db6b2e41218ef000b26851d,2020-08-10_15h25.54.217,lexical_decision_task_MP,2020.1.3,Linux armv8l,60,,0,0.440803157,-0.28674909,1,0,0,0.687,button_right,0.687,1,,,,,,142,WORD,UN,50,reason,SPRUCE,m,,,,,,0.440803157,-0.28674909,1,0,0,,0,122,122,201,1,
,,,,,,,,,,,,,,,,,,5db6b2e41218ef000b26851d,2020-08-10_15h25.54.217,lexical_decision_task_MP,2020.1.3,Linux armv8l,60,,0,0.449038163,-0.281385551,1,0,0,0.5843,button_right,0.5843,1,,,,,,196,WORD,"ID",33,credit,CREDIT,m,,,,,,0.449038163,-0.281385551,1,0,0,,0,123,123,15,1,
,,,,,,,,,,,,,,,,,,5db6b2e41218ef000b26851d,2020-08-10_15h25.54.217,lexical_decision_task_MP,2020.1.3,Linux armv8l,60,,0,0.427935702,-0.266026025,1,0,0,0.5512,button_right,0.5512,0,,,,,,300,NW,"ID",50,yarion,YARION,z,,,,,,0.427935702,-0.266026025,1,0,0,,0,124,124,359,1,
,,,,,,,,,,,,,,,,,,5db6b2e41218ef000b26851d,2020-08-10_15h25.54.217,lexical_decision_task_MP,2020.1.3,Linux armv8l,60,,0,-0.398661419,-0.29528216,1,0,0,0.6345,button_left,0.6345,1,,,,,,351,NW,UN,33,tringe,TIESCH,z,,,,,,-0.398661419,-0.29528216,1,0,0,,0,125,125,410,1,
,,,,,,,,,,,,,,,,,,5db6b2e41218ef000b26851d,2020-08-10_15h25.54.217,lexical_decision_task_MP,2020.1.3,Linux armv8l,60,,0,0.434112104,-0.304059075,1,0,0,1.0029,button_right,1.0029,1,,,,,,183,WORD,"ID",33,mildew,MILDEW,m,,,,,,0.434112104,-0.304059075,1,0,0,,0,126,126,2,1,
,,,,,,,,,,,,,,,,,,5db6b2e41218ef000b26851d,2020-08-10_15h25.54.217,lexical_decision_task_MP,2020.1.3,Linux armv8l,60,,0,-0.412043451,-0.29528216,1,0,0,0.6846,button_left,0.6846,1,,,,,,414,NW,UN,50,higsta,SERBOL,z,,,,,,-0.412043451,-0.29528216,1,0,0,,0,127,127,473,1,
,,,,,,,,,,,,,,,,,,5db6b2e41218ef000b26851d,2020-08-10_15h25.54.217,lexical_decision_task_MP,2020.1.3,Linux armv8l,60,,0,-0.429543023,-0.270901949,1,0,0,0.636,button_left,0.636,1,,,,,,264,NW,"ID",50,vackel,VACKEL,z,,,,,,-0.429543023,-0.270901949,1,0,0,,0,128,128,323,1,
,,,,,,,,,,,,,,,,,,5db6b2e41218ef000b26851d,2020-08-10_15h25.54.217,lexical_decision_task_MP,2020.1.3,Linux armv8l,60,,0,0.42639175,-0.295526005,1,0,0,0.6699,button_right,0.6699,1,,,,,,186,WORD,"ID",33,portal,PORTAL,m,,,,,,0.42639175,-0.295526005,1,0,0,,0,129,129,5,1,
,,,,,,,,,,,,,,,,,,5db6b2e41218ef000b26851d,2020-08-10_15h25.54.217,lexical_decision_task_MP,2020.1.3,Linux armv8l,60,,0,0.465508322,-0.301621002,1,0,0,0.504,button_right,0.504,1,,,,,,209,WORD,"ID",33,search,SEARCH,m,,,,,,0.465508322,-0.301621002,1,0,0,,0,130,130,28,1,
,,,,,,,,,,,,,,,,,,5db6b2e41218ef000b26851d,2020-08-10_15h25.54.217,lexical_decision_task_MP,2020.1.3,Linux armv8l,60,,0,-0.426969547,-0.287480475,1,0,0,0.5851,button_left,0.5851,1,,,,,,448,NW,"ID",33,sadent,SADENT,z,,,,,,-0.426969547,-0.287480475,1,0,0,,0,131,131,267,1,
,,,,,,,,,,,,,,,,,,5db6b2e41218ef000b26851d,2020-08-10_15h25.54.217,lexical_decision_task_MP,2020.1.3,Linux armv8l,60,,0,-0.453733574,-0.286017705,1,0,0,0.7368,button_left,0.7368,1,,,,,,452,NW,"ID",33,surden,SURDEN,z,,,,,,-0.453733574,-0.286017705,1,0,0,,0,132,132,271,1,
,,,,,,,,,,,,,,,,,,5db6b2e41218ef000b26851d,2020-08-10_15h25.54.217,lexical_decision_task_MP,2020.1.3,Linux armv8l,60,,0,0.388304331,-0.28553009,1,0,0,0.652,button_right,0.652,1,,,,,,138,WORD,UN,50,debris,MELODY,m,,,,,,0.388304331,-0.28553009,1,0,0,,0,133,133,197,1,
,,,,,,,,,,,,,,,,,,5db6b2e41218ef000b26851d,2020-08-10_15h25.54.217,lexical_decision_task_MP,2020.1.3,Linux armv8l,60,,0,-0.409469975,-0.25871188,1,0,0,0.6037,button_left,0.6037,1,,,,,,242,NW,"ID",50,unwert,UNWERT,z,,,,,,-0.409469975,-0.25871188,1,0,0,,0,134,134,301,1,
,,,,,,,,,,,,,,,,,,5db6b2e41218ef000b26851d,2020-08-10_15h25.54.217,lexical_decision_task_MP,2020.1.3,Linux armv8l,60,,0,0.44389121,-0.302840001,1,0,0,0.4842,button_right,0.4842,1,,,,,,173,WORD,UN,50,turkey,SHOWER,m,,,,,,0.44389121,-0.302840001,1,0,0,,0,135,135,232,1,
,,,,,,,,,,,,,,,,,,5db6b2e41218ef000b26851d,2020-08-10_15h25.54.217,lexical_decision_task_MP,2020.1.3,Linux armv8l,60,,0,-0.431087087,-0.281141633,1,0,0,0.9809,button_left,0.9809,1,,,,,,364,NW,UN,50,guairt,IMPOTE,z,,,,,,-0.431087087,-0.281141633,1,0,0,,0,136,136,423,1,
,,,,,,,,,,,,,,,,,,5db6b2e41218ef000b26851d,2020-08-10_15h25.54.217,lexical_decision_task_MP,2020.1.3,Linux armv8l,60,,0,-0.444469119,-0.271389563,1,0,0,0.6723,button_left,0.6723,1,,,,,,442,NW,"ID",33,aboune,ABOUNE,z,,,,,,-0.444469119,-0.271389563,1,0,0,,0,137,137,261,1,
,,,,,,,,,,,,,,,,,,5db6b2e41218ef000b26851d,2020-08-10_15h25.54.217,lexical_decision_task_MP,2020.1.3,Linux armv8l,60,,0,-0.435719314,-0.263831722,1,0,0,0.6342,button_left,0.6342,1,,,,,,378,NW,UN,50,auting,SHRILE,z,,,,,,-0.435719314,-0.263831722,1,0,0,,0,138,138,437,1,
,,,,,,,,,,,,,,,,,,5db6b2e41218ef000b26851d,2020-08-10_15h25.54.217,lexical_decision_task_MP,2020.1.3,Linux armv8l,60,,0,0.44389121,-0.282604477,1,0,0,0.5183,button_right,0.5183,1,,,,,,24,WORD,"ID",50,praise,PRAISE,m,,,,,,0.44389121,-0.282604477,1,0,0,,0,139,139,83,1,
,,,,,,,,,,,,,,,,,,5db6b2e41218ef000b26851d,2020-08-10_15h25.54.217,lexical_decision_task_MP,2020.1.3,Linux armv8l,60,,0,0.433597454,-0.295769775,1,0,0,0.6836,button_right,0.6836,1,,,,,,115,WORD,UN,33,tumble,GUITAR,m,,,,,,0.433597454,-0.295769775,1,0,0,,0,140,140,174,1,
,,,,,,,,,,,,,,,,,,5db6b2e41218ef000b26851d,2020-08-10_15h25.54.217,lexical_decision_task_MP,2020.1.3,Linux armv8l,60,,0,0.372348971,-0.291137547,1,0,0,1.0371,button_right,1.0371,1,,,,,,211,WORD,"ID",33,infect,INFECT,m,,,,,,0.372348971,-0.291137547,1,0,0,,0,141,141,30,1,
,,,,,,,,,,,,,,,,,,5db6b2e41218ef000b26851d,2020-08-10_15h25.54.217,lexical_decision_task_MP,2020.1.3,Linux armv8l,60,,0,0.457787967,-0.295769775,1,0,0,0.4029,button_right,0.4029,1,,,,,,225,WORD,"ID",33,vulgar,VULGAR,m,,,,,,0.457787967,-0.295769775,1,0,0,,0,142,142,44,1,
,,,,,,,,,,,,,,,,,,5db6b2e41218ef000b26851d,2020-08-10_15h25.54.217,lexical_decision_task_MP,2020.1.3,Linux armv8l,60,,0,0.449552814,-0.29650116,1,0,0,0.5369,button_right,0.5369,1,,,,,,190,WORD,"ID",33,backup,BACKUP,m,,,,,,0.449552814,-0.29650116,1,0,0,,0,143,143,9,1,
,,,,,,,,,,,,,,,,,,5db6b2e41218ef000b26851d,2020-08-10_15h25.54.217,lexical_decision_task_MP,2020.1.3,Linux armv8l,60,,0,-0.407411223,-0.30503423,1,0,0,0.7224,button_left,0.7224,1,,,,,,273,NW,"ID",50,sortel,SORTEL,z,,,,,,-0.407411223,-0.30503423,1,0,0,,0,144,144,332,1,
,,,,,,,,,,,,,,,,,,5db6b2e41218ef000b26851d,2020-08-10_15h25.54.217,lexical_decision_task_MP,2020.1.3,Linux armv8l,60,,0,0.44492066,-0.283335862,1,0,0,0.4674,button_right,0.4674,1,,,,,,124,WORD,UN,50,nickel,BLOUSE,m,,,,,,0.44492066,-0.283335862,1,0,0,,0,145,145,183,1,
,,,,,,,,,,,,,,,,,,5db6b2e41218ef000b26851d,2020-08-10_15h25.54.217,lexical_decision_task_MP,2020.1.3,Linux armv8l,60,,0,0.44389121,-0.266269721,1,0,0,0.5686,button_right,0.5686,1,,,,,,94,WORD,UN,33,thread,TRAVEL,m,,,,,,0.44389121,-0.266269721,1,0,0,,0,146,146,153,1,
,,,,,,,,,,,,,,,,,,5db6b2e41218ef000b26851d,2020-08-10_15h25.54.217,lexical_decision_task_MP,2020.1.3,Linux armv8l,60,,0,-0.46196869,-0.287724319,1,0,0,0.6523,button_left,0.6523,1,,,,,,382,NW,UN,50,aungre,SARLEY,z,,,,,,-0.46196869,-0.287724319,1,0,0,,0,147,147,441,1,
,,,,,,,,,,,,,,,,,,5db6b2e41218ef000b26851d,2020-08-10_15h25.54.217,lexical_decision_task_MP,2020.1.3,Linux armv8l,60,,0,0.428965152,-0.278947404,1,0,0,0.6677,button_right,0.6677,1,,,,,,80,WORD,UN,33,friend,FAMILY,m,,,,,,0.428965152,-0.278947404,1,0,0,,0,148,148,139,1,
,,,,,,,,,,,,,,,,,,5db6b2e41218ef000b26851d,2020-08-10_15h25.54.217,lexical_decision_task_MP,2020.1.3,Linux armv8l,60,,0,0.438229607,-0.27724079,1,0,0,0.5004,button_right,0.5004,1,,,,,,88,WORD,UN,33,permit,HUNGER,m,,,,,,0.438229607,-0.27724079,1,0,0,,0,149,149,147,1,
,,,,,,,,,,,,,,,,,,5db6b2e41218ef000b26851d,2020-08-10_15h25.54.217,lexical_decision_task_MP,2020.1.3,Linux armv8l,60,,0,0.484552032,-0.317468143,1,0,0,0.923,button_right,0.923,0,,,,,,352,NW,UN,33,clurey,TRINGE,z,,,,,,0.484552032,-0.317468143,1,0,0,,0,150,150,411,1,
,,,,,,,,,,,,,,,,,,5db6b2e41218ef000b26851d,2020-08-10_15h25.54.217,lexical_decision_task_MP,2020.1.3,Linux armv8l,60,,0,0.457787967,-0.290162318,1,0,0,0.4341,button_right,0.4341,1,,,,,,74,WORD,UN,33,trophy,PLAQUE,m,,,,,,0.457787967,-0.290162318,1,0,0,,0,151,151,133,1,
,,,,,,,,,,,,,,,,,,5db6b2e41218ef000b26851d,2020-08-10_15h25.54.217,lexical_decision_task_MP,2020.1.3,Linux armv8l,60,,0,0.438744258,-0.278459864,1,0,0,0.6197,button_right,0.6197,1,,,,,,175,WORD,UN,50,strife,FABRIC,m,,,,,,0.438744258,-0.278459864,1,0,0,,0,152,152,234,1,
,,,,,,,,,,,,,,,,,,5db6b2e41218ef000b26851d,2020-08-10_15h25.54.217,lexical_decision_task_MP,2020.1.3,Linux armv8l,60,,0,0.460876169,-0.269439253,1,0,0,0.5181,button_right,0.5181,1,,,,,,160,WORD,UN,50,pastor,VIOLET,m,,,,,,0.460876169,-0.269439253,1,0,0,,0,153,153,219,1,
,,,,,,,,,,,,,,,,,,5db6b2e41218ef000b26851d,2020-08-10_15h25.54.217,lexical_decision_task_MP,2020.1.3,Linux armv8l,60,,0,-0.452704198,-0.289674703,1,0,0,0.7188,button_left,0.7188,1,,,,,,466,NW,"ID",33,hocite,HOCITE,z,,,,,,-0.452704198,-0.289674703,1,0,0,,0,154,154,285,1,
,,,,,,,,,,,,,,,,,,5db6b2e41218ef000b26851d,2020-08-10_15h25.54.217,lexical_decision_task_MP,2020.1.3,Linux armv8l,60,,0,0.488154884,-0.29381939,1,0,0,0.4518,button_right,0.4518,0,,,,,,284,NW,"ID",50,shaple,SHAPLE,z,,,,,,0.488154884,-0.29381939,1,0,0,,0,155,155,343,1,
,,,,,,,,,,,,,,,,,,5db6b2e41218ef000b26851d,2020-08-10_15h25.54.217,lexical_decision_task_MP,2020.1.3,Linux armv8l,60,,0,0.47991973,-0.287236704,1,0,0,0.5337,button_right,0.5337,1,,,,,,198,WORD,"ID",33,wicked,WICKED,m,,,,,,0.47991973,-0.287236704,1,0,0,,0,156,156,17,1,
,,,,,,,,,,,,,,,,,,5db6b2e41218ef000b26851d,2020-08-10_15h25.54.217,lexical_decision_task_MP,2020.1.3,Linux armv8l,60,,0,-0.429028335,-0.288455704,1,0,0,0.6345,button_left,0.6345,1,,,,,,459,NW,"ID",33,bafent,BAFENT,z,,,,,,-0.429028335,-0.288455704,1,0,0,,0,157,157,278,1,
,,,,,,,,,,,,,,,,,,5db6b2e41218ef000b26851d,2020-08-10_15h25.54.217,lexical_decision_task_MP,2020.1.3,Linux armv8l,60,,0,0.396539484,-0.290162318,1,0,0,0.5014,button_right,0.5014,1,,,,,,239,WORD,"ID",33,lumber,LUMBER,m,,,,,,0.396539484,-0.290162318,1,0,0,,0,158,158,58,1,
,,,,,,,,,,,,,,,,,,5db6b2e41218ef000b26851d,2020-08-10_15h25.54.217,lexical_decision_task_MP,2020.1.3,Linux armv8l,60,,0,0.44389121,-0.270658178,1,0,0,0.5537,button_right,0.5537,1,,,,,,97,WORD,UN,33,belong,CLIENT,m,,,,,,0.44389121,-0.270658178,1,0,0,,0,159,159,156,1,
,,,,,,,,,,,,,,,,,,5db6b2e41218ef000b26851d,2020-08-10_15h25.54.217,lexical_decision_task_MP,2020.1.3,Linux armv8l,60,,0,-0.42851361,-0.276265709,1,0,0,0.6356,button_left,0.6356,0,,,,,,199,WORD,"ID",33,invoke,INVOKE,m,,,,,,-0.42851361,-0.276265709,1,0,0,,0,160,160,18,1,
,,,,,,,,,,,,,,,,,,5db6b2e41218ef000b26851d,2020-08-10_15h25.54.217,lexical_decision_task_MP,2020.1.3,Linux armv8l,60,,0,0.440803157,-0.269195334,1,0,0,0.483,button_right,0.483,0,,,,,,345,NW,UN,33,saudic,ABSEND,z,,,,,,0.440803157,-0.269195334,1,0,0,,0,161,161,404,1,
,,,,,,,,,,,,,,,,,,5db6b2e41218ef000b26851d,2020-08-10_15h25.54.217,lexical_decision_task_MP,2020.1.3,Linux armv8l,60,,0,0.454699766,-0.269926793,1,0,0,0.6711,button_right,0.6711,0,,,,,,373,NW,UN,50,sliant,BIGENT,z,,,,,,0.454699766,-0.269926793,1,0,0,,0,162,162,432,1,
,,,,,,,,,,,,,,,,,,5db6b2e41218ef000b26851d,2020-08-10_15h25.54.217,lexical_decision_task_MP,2020.1.3,Linux armv8l,60,,0,0.411465543,-0.290649933,1,0,0,0.654,button_right,0.654,1,,,,,,27,WORD,"ID",50,scream,SCREAM,m,,,,,,0.411465543,-0.290649933,1,0,0,,0,163,163,86,1,
,,,,,,,,,,,,,,,,,,5db6b2e41218ef000b26851d,2020-08-10_15h25.54.217,lexical_decision_task_MP,2020.1.3,Linux armv8l,60,,0,-0.446013182,-0.282116862,1,0,0,0.7346,button_left,0.7346,1,,,,,,286,NW,"ID",50,reldon,RELDON,z,,,,,,-0.446013182,-0.282116862,1,0,0,,0,164,164,345,1,
,,,,,,,,,,,,,,,,,,5db6b2e41218ef000b26851d,2020-08-10_15h25.54.217,lexical_decision_task_MP,2020.1.3,Linux armv8l,60,,0,-0.458880526,-0.26724495,1,0,0,0.5674,button_left,0.5674,0,,,,,,139,WORD,UN,50,prince,DEBRIS,m,,,,,,-0.458880526,-0.26724495,1,0,0,,0,165,165,198,1,
,,,,,,,,,,,,,,,,,,5db6b2e41218ef000b26851d,2020-08-10_15h25.54.217,lexical_decision_task_MP,2020.1.3,Linux armv8l,60,,0,0.468596523,-0.292112776,1,0,0,0.6492,button_right,0.6492,1,,,,,,133,WORD,UN,50,staple,CHROME,m,,,,,,0.468596523,-0.292112776,1,0,0,,0,166,166,192,1,
,,,,,,,,,,,,,,,,,,5db6b2e41218ef000b26851d,2020-08-10_15h25.54.217,lexical_decision_task_MP,2020.1.3,Linux armv8l,60,,0,-0.46454213,-0.261637493,1,0,0,0.7349,button_left,0.7349,1,,,,,,409,NW,UN,50,tunory,ELOPIA,z,,,,,,-0.46454213,-0.261637493,1,0,0,,0,167,167,468,1,
,,,,,,,,,,,,,,,,,,5db6b2e41218ef000b26851d,2020-08-10_15h25.54.217,lexical_decision_task_MP,2020.1.3,Linux armv8l,60,,0,-0.448071971,-0.262125108,1,0,0,0.7877,button_left,0.7877,1,,,,,,470,NW,"ID",33,crudio,CRUDIO,z,,,,,,-0.448071971,-0.262125108,1,0,0,,0,168,168,289,1,
,,,,,,,,,,,,,,,,,,5db6b2e41218ef000b26851d,2020-08-10_15h25.54.217,lexical_decision_task_MP,2020.1.3,Linux armv8l,60,,0,0.391392532,-0.272364792,1,0,0,0.7293,button_right,0.7293,1,,,,,,163,WORD,UN,50,market,STRING,m,,,,,,0.391392532,-0.272364792,1,0,0,,0,169,169,222,1,
,,,,,,,,,,,,,,,,,,5db6b2e41218ef000b26851d,2020-08-10_15h25.54.217,lexical_decision_task_MP,2020.1.3,Linux armv8l,60,,0,0.458302618,-0.299670618,1,0,0,0.4876,button_right,0.4876,1,,,,,,43,WORD,"ID",50,tongue,TONGUE,m,,,,,,0.458302618,-0.299670618,1,0,0,,0,170,170,102,1,
,,,,,,,,,,,,,,,,,,5db6b2e41218ef000b26851d,2020-08-10_15h25.54.217,lexical_decision_task_MP,2020.1.3,Linux armv8l,60,,0,0.459332068,-0.270658178,1,0,0,0.4159,button_right,0.4159,1,,,,,,228,WORD,"ID",33,master,MASTER,m,,,,,,0.459332068,-0.270658178,1,0,0,,0,171,171,47,1,
,,,,,,,,,,,,,,,,,,5db6b2e41218ef000b26851d,2020-08-10_15h25.54.217,lexical_decision_task_MP,2020.1.3,Linux armv8l,60,,0,0.430509252,-0.282604477,1,0,0,0.5678,button_right,0.5678,1,,,,,,116,WORD,UN,33,branch,TUMBLE,m,,,,,,0.430509252,-0.282604477,1,0,0,,0,172,172,175,1,
,,,,,,,,,,,,,,,,,,5db6b2e41218ef000b26851d,2020-08-10_15h25.54.217,lexical_decision_task_MP,2020.1.3,Linux armv8l,60,,0,0.463964222,-0.284067247,1,0,0,0.4173,button_right,0.4173,0,,,,,,356,NW,UN,33,derain,OTHNIS,z,,,,,,0.463964222,-0.284067247,1,0,0,,0,173,173,415,1,
,,,,,,,,,,,,,,,,,,5db6b2e41218ef000b26851d,2020-08-10_15h25.54.217,lexical_decision_task_MP,2020.1.3,Linux armv8l,60,,0,-0.422852007,-0.278459864,1,0,0,1.0716,button_left,1.0716,1,,,,,,411,NW,UN,50,jiluer,ORCHIN,z,,,,,,-0.422852007,-0.278459864,1,0,0,,0,174,174,470,1,
,,,,,,,,,,,,,,,,,,5db6b2e41218ef000b26851d,2020-08-10_15h25.54.217,lexical_decision_task_MP,2020.1.3,Linux armv8l,60,,0,-0.47432131,-0.254811037,1,0,0,0.719,button_left,0.719,1,,,,,,457,NW,"ID",33,wanigh,WANIGH,z,,,,,,-0.47432131,-0.254811037,1,0,0,,0,175,175,276,1,
,,,,,,,,,,,,,,,,,,5db6b2e41218ef000b26851d,2020-08-10_15h25.54.217,lexical_decision_task_MP,2020.1.3,Linux armv8l,60,,0,0.493301836,-0.296013545,1,0,0,0.551,button_right,0.551,1,,,,,,48,WORD,"ID",50,walnut,WALNUT,m,,,,,,0.493301836,-0.296013545,1,0,0,,0,176,176,107,1,
,,,,,,,,,,,,,,,,,,5db6b2e41218ef000b26851d,2020-08-10_15h25.54.217,lexical_decision_task_MP,2020.1.3,Linux armv8l,60,,0,0.483007931,-0.27577802,1,0,0,0.5524,button_right,0.5524,1,,,,,,7,WORD,"ID",50,anchor,ANCHOR,m,,,,,,0.483007931,-0.27577802,1,0,0,,0,177,177,66,1,
,,,,,,,,,,,,,,,,,,5db6b2e41218ef000b26851d,2020-08-10_15h25.54.217,lexical_decision_task_MP,2020.1.3,Linux armv8l,60,,0,0.484552032,-0.283335862,1,0,0,0.4698,button_right,0.4698,1,,,,,,125,WORD,UN,50,enough,NICKEL,m,,,,,,0.484552032,-0.283335862,1,0,0,,0,178,178,184,1,
,,,,,,,,,,,,,,,,,,5db6b2e41218ef000b26851d,2020-08-10_15h25.54.217,lexical_decision_task_MP,2020.1.3,Linux armv8l,60,,0,-0.442925018,-0.262612797,1,0,0,0.7354,button_left,0.7354,1,,,,,,271,NW,"ID",50,aubrid,AUBRID,z,,,,,,-0.442925018,-0.262612797,1,0,0,,0,179,179,330,1,
,,,,,,,,,,,,,,,,,,5db6b2e41218ef000b26851d,2020-08-10_15h25.54.217,lexical_decision_task_MP,2020.1.3,Linux armv8l,60,,0,0.490213635,-0.294063161,1,0,0,0.5776,button_right,0.5776,1,,,,,,217,WORD,"ID",33,liquor,LIQUOR,m,,,,,,0.490213635,-0.294063161,1,0,0,,0,180,180,36,1,
,,,,,,,,,,,,,,,,,,5db6b2e41218ef000b26851d,2020-08-10_15h25.54.217,lexical_decision_task_MP,2020.1.3,Linux armv8l,60,,0,0.477346328,-0.267732639,1,0,0,0.4509,button_right,0.4509,1,,,,,,233,WORD,"ID",33,nature,NATURE,m,,,,,,0.477346328,-0.267732639,1,0,0,,0,181,181,52,1,
,,,,,,,,,,,,,,,,,,5db6b2e41218ef000b26851d,2020-08-10_15h25.54.217,lexical_decision_task_MP,2020.1.3,Linux armv8l,60,,0,-0.454248299,-0.261393723,1,0,0,0.6866,button_left,0.6866,1,,,,,,292,NW,"ID",50,ablint,ABLINT,z,,,,,,-0.454248299,-0.261393723,1,0,0,,0,182,182,351,1,
,,,,,,,,,,,,,,,,,,5db6b2e41218ef000b26851d,2020-08-10_15h25.54.217,lexical_decision_task_MP,2020.1.3,Linux armv8l,60,,0,-0.44652787,-0.255542422,1,0,0,0.7017,button_left,0.7017,1,,,,,,460,NW,"ID",33,mingar,MINGAR,z,,,,,,-0.44652787,-0.255542422,1,0,0,,0,183,183,279,1,
,,,,,,,,,,,,,,,,,,5db6b2e41218ef000b26851d,2020-08-10_15h25.54.217,lexical_decision_task_MP,2020.1.3,Linux armv8l,60,,0,-0.426454859,-0.279435019,1,0,0,0.6334,button_left,0.6334,1,,,,,,344,NW,UN,33,absend,SCRILY,z,,,,,,-0.426454859,-0.279435019,1,0,0,,0,184,184,403,1,
,,,,,,,,,,,,,,,,,,5db6b2e41218ef000b26851d,2020-08-10_15h25.54.217,lexical_decision_task_MP,2020.1.3,Linux armv8l,60,,0,0.483007931,-0.287968089,1,0,0,0.5693,button_right,0.5693,1,,,,,,37,WORD,"ID",50,insult,INSULT,m,,,,,,0.483007931,-0.287968089,1,0,0,,0,185,185,96,1,
,,,,,,,,,,,,,,,,,,5db6b2e41218ef000b26851d,2020-08-10_15h25.54.217,lexical_decision_task_MP,2020.1.3,Linux armv8l,60,,0,0.451096914,-0.26870772,1,0,0,0.5349,button_right,0.5349,1,,,,,,202,WORD,"ID",33,factor,FACTOR,m,,,,,,0.451096914,-0.26870772,1,0,0,,0,186,186,21,1,
,,,,,,,,,,,,,,,,,,5db6b2e41218ef000b26851d,2020-08-10_15h25.54.217,lexical_decision_task_MP,2020.1.3,Linux armv8l,60,,0,-0.499026586,-0.263344107,1,0,0,0.5999,button_left,0.5999,1,,,,,,441,NW,"ID",33,rastoe,RASTOE,z,,,,,,-0.499026586,-0.263344107,1,0,0,,0,187,187,260,1,
,,,,,,,,,,,,,,,,,,5db6b2e41218ef000b26851d,2020-08-10_15h25.54.217,lexical_decision_task_MP,2020.1.3,Linux armv8l,60,,0,0.457787967,-0.278703634,1,0,0,0.685,button_right,0.685,0,,,,,,413,NW,UN,50,serbol,EQUATS,z,,,,,,0.457787967,-0.278703634,1,0,0,,0,188,188,472,1,
,,,,,,,,,,,,,,,,,,5db6b2e41218ef000b26851d,2020-08-10_15h25.54.217,lexical_decision_task_MP,2020.1.3,Linux armv8l,60,,0,0.48094918,-0.284554861,1,0,0,0.4999,button_right,0.4999,1,,,,,,72,WORD,UN,33,source,BRIGHT,m,,,,,,0.48094918,-0.284554861,1,0,0,,0,189,189,131,1,
,,,,,,,,,,,,,,,,,,5db6b2e41218ef000b26851d,2020-08-10_15h25.54.217,lexical_decision_task_MP,2020.1.3,Linux armv8l,60,,0,-0.442925018,-0.275290406,1,0,0,0.6863,button_left,0.6863,1,,,,,,324,NW,UN,33,thruse,STEIKH,z,,,,,,-0.442925018,-0.275290406,1,0,0,,0,190,190,383,1,
,,,,,,,,,,,,,,,,,,5db6b2e41218ef000b26851d,2020-08-10_15h25.54.217,lexical_decision_task_MP,2020.1.3,Linux armv8l,60,,0,-0.431601774,-0.236525897,1,0,0,0.5919,button_left,0.5919,1,,,,,,478,NW,"ID",33,acrise,ACRISE,z,,,,,,-0.431601774,-0.236525897,1,0,0,,0,191,191,297,1,
,,,,,,,,,,,,,,,,,,5db6b2e41218ef000b26851d,2020-08-10_15h25.54.217,lexical_decision_task_MP,2020.1.3,Linux armv8l,60,,0,0.469625973,-0.26748872,1,0,0,0.4859,button_right,0.4859,0,,,,,,433,NW,"ID",33,drance,DRANCE,z,,,,,,0.469625973,-0.26748872,1,0,0,,0,192,192,252,1,
,,,,,,,,,,,,,,,,,,5db6b2e41218ef000b26851d,2020-08-10_15h25.54.217,lexical_decision_task_MP,2020.1.3,Linux armv8l,60,,0,-0.454762987,-0.251641579,1,0,0,0.7014,button_left,0.7014,1,,,,,,405,NW,UN,50,nouply,FLUMNI,z,,,,,,-0.454762987,-0.251641579,1,0,0,,0,193,193,464,1,
,,,,,,,,,,,,,,,,,,5db6b2e41218ef000b26851d,2020-08-10_15h25.54.217,lexical_decision_task_MP,2020.1.3,Linux armv8l,60,,0,0.448008861,-0.264563107,1,0,0,0.5335,button_right,0.5335,0,,,,,,285,NW,"ID",50,prudge,PRUDGE,z,,,,,,0.448008861,-0.264563107,1,0,0,,0,194,194,344,1,
,,,,,,,,,,,,,,,,,,5db6b2e41218ef000b26851d,2020-08-10_15h25.54.217,lexical_decision_task_MP,2020.1.3,Linux armv8l,60,,0,-0.434175251,-0.263344107,1,0,0,1.1372,button_left,1.1372,1,,,,,,395,NW,UN,50,flengy,COLURY,z,,,,,,-0.434175251,-0.263344107,1,0,0,,0,195,195,454,1,
,,,,,,,,,,,,,,,,,,5db6b2e41218ef000b26851d,2020-08-10_15h25.54.217,lexical_decision_task_MP,2020.1.3,Linux armv8l,60,,0,0.398083585,-0.252129194,1,0,0,0.6645,button_right,0.6645,1,,,,,,220,WORD,"ID",33,voyage,VOYAGE,m,,,,,,0.398083585,-0.252129194,1,0,0,,0,196,196,39,1,
,,,,,,,,,,,,,,,,,,5db6b2e41218ef000b26851d,2020-08-10_15h25.54.217,lexical_decision_task_MP,2020.1.3,Linux armv8l,60,,0,-0.409469975,-0.259443265,1,0,0,0.6386,button_left,0.6386,1,,,,,,249,NW,"ID",50,batrol,BATROL,z,,,,,,-0.409469975,-0.259443265,1,0,0,,0,197,197,308,1,
,,,,,,,,,,,,,,,,,,5db6b2e41218ef000b26851d,2020-08-10_15h25.54.217,lexical_decision_task_MP,2020.1.3,Linux armv8l,60,,0,0.476316878,-0.297720159,1,0,0,0.6007,button_right,0.6007,1,,,,,,207,WORD,"ID",33,wreath,WREATH,m,,,,,,0.476316878,-0.297720159,1,0,0,,0,198,198,26,1,
,,,,,,,,,,,,,,,,,,5db6b2e41218ef000b26851d,2020-08-10_15h25.54.217,lexical_decision_task_MP,2020.1.3,Linux armv8l,60,,0,0.449038163,-0.260174649,1,0,0,0.6017,button_right,0.6017,1,,,,,,62,WORD,UN,33,launch,REGION,m,,,,,,0.449038163,-0.260174649,1,0,0,,0,199,199,121,1,
,,,,,,,,,,,,,,,,,,5db6b2e41218ef000b26851d,2020-08-10_15h25.54.217,lexical_decision_task_MP,2020.1.3,Linux armv8l,60,,0,0.438229607,-0.28528632,1,0,0,0.6022,button_right,0.6022,1,,,,,,162,WORD,UN,50,string,CANDLE,m,,,,,,0.438229607,-0.28528632,1,0,0,,0,200,200,221,1,
,,,,,,,,,,,,,,,,,,5db6b2e41218ef000b26851d,2020-08-10_15h25.54.217,lexical_decision_task_MP,2020.1.3,Linux armv8l,60,,0,0.448008861,-0.289187089,1,0,0,0.6527,button_right,0.6527,1,,,,,,105,WORD,UN,33,ransom,NUMBER,m,,,,,,0.448008861,-0.289187089,1,0,0,,0,201,201,164,1,
,,,,,,,,,,,,,,,,,,5db6b2e41218ef000b26851d,2020-08-10_15h25.54.217,lexical_decision_task_MP,2020.1.3,Linux armv8l,60,,0,0.448008861,-0.275290406,1,0,0,0.5013,button_right,0.5013,1,,,,,,71,WORD,UN,33,bright,GARDEN,m,,,,,,0.448008861,-0.275290406,1,0,0,,0,202,202,130,1,
,,,,,,,,,,,,,,,,,,5db6b2e41218ef000b26851d,2020-08-10_15h25.54.217,lexical_decision_task_MP,2020.1.3,Linux armv8l,60,,0,-0.423366695,-0.279922633,1,0,0,0.6689,button_left,0.6689,1,,,,,,366,NW,UN,50,slique,TOSHEL,z,,,,,,-0.423366695,-0.279922633,1,0,0,,0,203,203,425,1,
,,,,,,,,,,,,,,,,,,5db6b2e41218ef000b26851d,2020-08-10_15h25.54.217,lexical_decision_task_MP,2020.1.3,Linux armv8l,60,,0,0.473743476,-0.286505394,1,0,0,0.4836,button_right,0.4836,1,,,,,,201,WORD,"ID",33,admire,ADMIRE,m,,,,,,0.473743476,-0.286505394,1,0,0,,0,204,204,20,1,
,,,,,,,,,,,,,,,,,,5db6b2e41218ef000b26851d,2020-08-10_15h25.54.217,lexical_decision_task_MP,2020.1.3,Linux armv8l,60,,0,-0.416160991,-0.292356547,1,0,0,0.6521,button_left,0.6521,1,,,,,,451,NW,"ID",33,cainky,CAINKY,z,,,,,,-0.416160991,-0.292356547,1,0,0,,0,205,205,270,1,
,,,,,,,,,,,,,,,,,,5db6b2e41218ef000b26851d,2020-08-10_15h25.54.217,lexical_decision_task_MP,2020.1.3,Linux armv8l,60,,0,-0.358515397,-0.289918622,1,0,0,0.6188,button_left,0.6188,1,,,,,,416,NW,UN,50,earoud,PATHEL,z,,,,,,-0.358515397,-0.289918622,1,0,0,,0,206,206,475,1,
,,,,,,,,,,,,,,,,,,5db6b2e41218ef000b26851d,2020-08-10_15h25.54.217,lexical_decision_task_MP,2020.1.3,Linux armv8l,60,,0,0.42433285,-0.276021791,1,0,0,0.5513,button_right,0.5513,1,,,,,,187,WORD,"ID",33,course,COURSE,m,,,,,,0.42433285,-0.276021791,1,0,0,,0,207,207,6,1,
,,,,,,,,,,,,,,,,,,5db6b2e41218ef000b26851d,2020-08-10_15h25.54.217,lexical_decision_task_MP,2020.1.3,Linux armv8l,60,,0,-0.427998922,-0.298939233,1,0,0,0.6849,button_left,0.6849,1,,,,,,295,NW,"ID",50,gleath,GLEATH,z,,,,,,-0.427998922,-0.298939233,1,0,0,,0,208,208,354,1,
,,,,,,,,,,,,,,,,,,5db6b2e41218ef000b26851d,2020-08-10_15h25.54.217,lexical_decision_task_MP,2020.1.3,Linux armv8l,60,,0,0.434112104,-0.264075492,1,0,0,0.5187,button_right,0.5187,1,,,,,,18,WORD,"ID",50,humble,HUMBLE,m,,,,,,0.434112104,-0.264075492,1,0,0,,0,209,209,77,1,
,,,,,,,,,,,,,,,,,,5db6b2e41218ef000b26851d,2020-08-10_15h25.54.217,lexical_decision_task_MP,2020.1.3,Linux armv8l,60,,0,0.431538554,-0.263831722,1,0,0,0.5684,button_right,0.5684,1,,,,,,117,WORD,UN,33,flight,BRANCH,m,,,,,,0.431538554,-0.263831722,1,0,0,,0,210,210,176,1,
,,,,,,,,,,,,,,,,,,5db6b2e41218ef000b26851d,2020-08-10_15h25.54.217,lexical_decision_task_MP,2020.1.3,Linux armv8l,60,,0,0.442861909,-0.272364792,1,0,0,0.6152,button_right,0.6152,1,,,,,,177,WORD,UN,50,inform,ADVENT,m,,,,,,0.442861909,-0.272364792,1,0,0,,0,211,211,236,1,
,,,,,,,,,,,,,,,,,,5db6b2e41218ef000b26851d,2020-08-10_15h25.54.217,lexical_decision_task_MP,2020.1.3,Linux armv8l,60,,0,-0.446013182,-0.306740844,1,0,0,0.6026,button_left,0.6026,1,,,,,,287,NW,"ID",50,nymbel,NYMBEL,z,,,,,,-0.446013182,-0.306740844,1,0,0,,0,212,212,346,1,
,,,,,,,,,,,,,,,,,,5db6b2e41218ef000b26851d,2020-08-10_15h25.54.217,lexical_decision_task_MP,2020.1.3,Linux armv8l,60,,0,-0.473291934,-0.290649933,1,0,0,0.6521,button_left,0.6521,1,,,,,,280,NW,"ID",50,curbol,CURBOL,z,,,,,,-0.473291934,-0.290649933,1,0,0,,0,213,213,339,1,
,,,,,,,,,,,,,,,,,,5db6b2e41218ef000b26851d,2020-08-10_15h25.54.217,lexical_decision_task_MP,2020.1.3,Linux armv8l,60,,0,-0.426454859,-0.285042476,1,0,0,0.7184,button_left,0.7184,1,,,,,,437,NW,"ID",33,snapel,SNAPEL,z,,,,,,-0.426454859,-0.285042476,1,0,0,,0,214,214,256,1,
,,,,,,,,,,,,,,,,,,5db6b2e41218ef000b26851d,2020-08-10_15h25.54.217,lexical_decision_task_MP,2020.1.3,Linux armv8l,60,,0,-0.451674822,-0.275534176,1,0,0,0.585,button_left,0.585,1,,,,,,347,NW,UN,33,dumple,KERIFT,z,,,,,,-0.451674822,-0.275534176,1,0,0,,0,215,215,406,1,
,,,,,,,,,,,,,,,,,,5db6b2e41218ef000b26851d,2020-08-10_15h25.54.217,lexical_decision_task_MP,2020.1.3,Linux armv8l,60,,0,0.462420269,-0.273583792,1,0,0,0.5357,button_right,0.5357,0,,,,,,304,NW,UN,33,forgle,CLUDIE,z,,,,,,0.462420269,-0.273583792,1,0,0,,0,216,216,363,1,
,,,,,,,,,,,,,,,,,,5db6b2e41218ef000b26851d,2020-08-10_15h25.54.217,lexical_decision_task_MP,2020.1.3,Linux armv8l,60,,0,0.405289289,-0.294306931,1,0,0,0.6874,button_right,0.6874,1,,,,,,147,WORD,UN,50,custom,GARLIC,m,,,,,,0.405289289,-0.294306931,1,0,0,,0,217,217,206,1,
,,,,,,,,,,,,,,,,,,5db6b2e41218ef000b26851d,2020-08-10_15h25.54.217,lexical_decision_task_MP,2020.1.3,Linux armv8l,60,,0,-0.433660563,-0.256517651,1,0,0,0.7019,button_left,0.7019,1,,,,,,472,NW,"ID",33,cigney,CIGNEY,z,,,,,,-0.433660563,-0.256517651,1,0,0,,0,218,218,291,1,
,,,,,,,,,,,,,,,,,,5db6b2e41218ef000b26851d,2020-08-10_15h25.54.217,lexical_decision_task_MP,2020.1.3,Linux armv8l,60,,0,-0.432631187,-0.277972323,1,0,0,0.6179,button_left,0.6179,1,,,,,,412,NW,UN,50,equats,JILUER,z,,,,,,-0.432631187,-0.277972323,1,0,0,,0,219,219,471,1,
,,,,,,,,,,,,,,,,,,5db6b2e41218ef000b26851d,2020-08-10_15h25.54.217,lexical_decision_task_MP,2020.1.3,Linux armv8l,60,,0,-0.440866267,-0.270658178,1,0,0,0.6001,button_left,0.6001,1,,,,,,246,NW,"ID",50,piaton,PIATON,z,,,,,,-0.440866267,-0.270658178,1,0,0,,0,220,220,305,1,
,,,,,,,,,,,,,,,,,,5db6b2e41218ef000b26851d,2020-08-10_15h25.54.217,lexical_decision_task_MP,2020.1.3,Linux armv8l,60,,0,-0.434689938,-0.297476389,1,0,0,0.552,button_left,0.552,1,,,,,,310,NW,UN,33,sproly,DANIET,z,,,,,,-0.434689938,-0.297476389,1,0,0,,0,221,221,369,1,
,,,,,,,,,,,,,,,,,,5db6b2e41218ef000b26851d,2020-08-10_15h25.54.217,lexical_decision_task_MP,2020.1.3,Linux armv8l,60,,0,-0.46608623,-0.274315177,1,0,0,0.5523,button_left,0.5523,1,,,,,,359,NW,UN,33,desory,FONVER,z,,,,,,-0.46608623,-0.274315177,1,0,0,,0,222,222,418,1,
,,,,,,,,,,,,,,,,,,5db6b2e41218ef000b26851d,2020-08-10_15h25.54.217,lexical_decision_task_MP,2020.1.3,Linux armv8l,60,,0,0.466537772,-0.291381317,1,0,0,0.6694,button_right,0.6694,0,,,,,,348,NW,UN,33,asylen,DUMPLE,z,,,,,,0.466537772,-0.291381317,1,0,0,,0,223,223,407,1,
,,,,,,,,,,,,,,,,,,5db6b2e41218ef000b26851d,2020-08-10_15h25.54.217,lexical_decision_task_MP,2020.1.3,Linux armv8l,60,,0,0.451611713,-0.263344107,1,0,0,0.6686,button_right,0.6686,1,,,,,,131,WORD,UN,50,strong,QUENCH,m,,,,,,0.451611713,-0.263344107,1,0,0,,0,224,224,190,1,
,,,,,,,,,,,,,,,,,,5db6b2e41218ef000b26851d,2020-08-10_15h25.54.217,lexical_decision_task_MP,2020.1.3,Linux armv8l,60,,0,0.468081872,-0.266513565,1,0,0,0.6705,button_right,0.6705,1,,,,,,107,WORD,UN,33,reckon,SLOGAN,m,,,,,,0.468081872,-0.266513565,1,0,0,,0,225,225,166,1,
,,,,,,,,,,,,,,,,,,5db6b2e41218ef000b26851d,2020-08-10_15h25.54.217,lexical_decision_task_MP,2020.1.3,Linux armv8l,60,,0,-0.504688226,-0.270414334,1,0,0,0.7183,button_left,0.7183,1,,,,,,361,NW,UN,50,tireau,PAUCHE,z,,,,,,-0.504688226,-0.270414334,1,0,0,,0,226,226,420,1,
,,,,,,,,,,,,,,,,,,5db6b2e41218ef000b26851d,2020-08-10_15h25.54.217,lexical_decision_task_MP,2020.1.3,Linux armv8l,60,,0,0.483007931,-0.286261475,1,0,0,0.6182,button_right,0.6182,1,,,,,,21,WORD,"ID",50,simple,SIMPLE,m,,,,,,0.483007931,-0.286261475,1,0,0,,0,227,227,80,1,
,,,,,,,,,,,,,,,,,,5db6b2e41218ef000b26851d,2020-08-10_15h25.54.217,lexical_decision_task_MP,2020.1.3,Linux armv8l,60,,0,0.495360587,-0.27699702,1,0,0,0.8853,button_right,0.8853,1,,,,,,112,WORD,UN,33,chorus,BREATH,m,,,,,,0.495360587,-0.27699702,1,0,0,,0,228,228,171,1,
,,,,,,,,,,,,,,,,,,5db6b2e41218ef000b26851d,2020-08-10_15h25.54.217,lexical_decision_task_MP,2020.1.3,Linux armv8l,60,,0,-0.468659706,-0.292356547,1,0,0,0.8512,button_left,0.8512,1,,,,,,363,NW,UN,50,impote,BREALI,z,,,,,,-0.468659706,-0.292356547,1,0,0,,0,229,229,422,1,
,,,,,,,,,,,,,,,,,,5db6b2e41218ef000b26851d,2020-08-10_15h25.54.217,lexical_decision_task_MP,2020.1.3,Linux armv8l,60,,0,-0.489247405,-0.296988774,1,0,0,0.8025,button_left,0.8025,1,,,,,,257,NW,"ID",50,veniod,VENIOD,z,,,,,,-0.489247405,-0.296988774,1,0,0,,0,230,230,316,1,
,,,,,,,,,,,,,,,,,,5db6b2e41218ef000b26851d,2020-08-10_15h25.54.217,lexical_decision_task_MP,2020.1.3,Linux armv8l,60,,0,0.489184185,-0.292356547,1,0,0,0.7355,button_right,0.7355,1,,,,,,56,WORD,"ID",50,ambush,AMBUSH,m,,,,,,0.489184185,-0.292356547,1,0,0,,0,231,231,115,1,
,,,,,,,,,,,,,,,,,,5db6b2e41218ef000b26851d,2020-08-10_15h25.54.217,lexical_decision_task_MP,2020.1.3,Linux armv8l,60,,0,0.450582264,-0.285042476,1,0,0,0.6667,button_right,0.6667,1,,,,,,118,WORD,UN,33,spider,FLIGHT,m,,,,,,0.450582264,-0.285042476,1,0,0,,0,232,232,177,1,
,,,,,,,,,,,,,,,,,,5db6b2e41218ef000b26851d,2020-08-10_15h25.54.217,lexical_decision_task_MP,2020.1.3,Linux armv8l,60,,0,0.452641015,-0.281141633,1,0,0,0.5521,button_right,0.5521,1,,,,,,63,WORD,UN,33,throne,LAUNCH,m,,,,,,0.452641015,-0.281141633,1,0,0,,0,233,233,122,1,
,,,,,,,,,,,,,,,,,,5db6b2e41218ef000b26851d,2020-08-10_15h25.54.217,lexical_decision_task_MP,2020.1.3,Linux armv8l,60,,0,-0.449101346,-0.288943318,1,0,0,0.7347,button_left,0.7347,1,,,,,,450,NW,"ID",33,phrect,PHRECT,z,,,,,,-0.449101346,-0.288943318,1,0,0,,0,234,234,269,1,
,,,,,,,,,,,,,,,,,,5db6b2e41218ef000b26851d,2020-08-10_15h25.54.217,lexical_decision_task_MP,2020.1.3,Linux armv8l,60,,0,0.456758518,-0.256761421,1,0,0,0.5014,button_right,0.5014,1,,,,,,34,WORD,"ID",50,jungle,JUNGLE,m,,,,,,0.456758518,-0.256761421,1,0,0,,0,235,235,93,1,
,,,,,,,,,,,,,,,,,,5db6b2e41218ef000b26851d,2020-08-10_15h25.54.217,lexical_decision_task_MP,2020.1.3,Linux armv8l,60,,0,0.434112104,-0.290893703,1,0,0,0.7173,button_right,0.7173,1,,,,,,86,WORD,UN,33,filter,RODENT,m,,,,,,0.434112104,-0.290893703,1,0,0,,0,236,236,145,1,
,,,,,,,,,,,,,,,,,,5db6b2e41218ef000b26851d,2020-08-10_15h25.54.217,lexical_decision_task_MP,2020.1.3,Linux armv8l,60,,0,-0.413587515,-0.301621002,1,0,0,0.7192,button_left,0.7192,1,,,,,,423,NW,"ID",33,streld,STRELD,z,,,,,,-0.413587515,-0.301621002,1,0,0,,0,237,237,242,1,
,,,,,,,,,,,,,,,,,,5db6b2e41218ef000b26851d,2020-08-10_15h25.54.217,lexical_decision_task_MP,2020.1.3,Linux armv8l,60,,0,-0.458365839,-0.254811037,1,0,0,0.7018,button_left,0.7018,1,,,,,,479,NW,"ID",33,lobush,LOBUSH,z,,,,,,-0.458365839,-0.254811037,1,0,0,,0,238,238,298,1,
,,,,,,,,,,,,,,,,,,5db6b2e41218ef000b26851d,2020-08-10_15h25.54.217,lexical_decision_task_MP,2020.1.3,Linux armv8l,60,,0,-0.471233146,-0.275534176,1,0,0,0.6516,button_left,0.6516,1,,,,,,406,NW,UN,50,suiver,NOUPLY,z,,,,,,-0.471233146,-0.275534176,1,0,0,,0,239,239,465,1,
,,,,,,,,,,,,,,,,,,5db6b2e41218ef000b26851d,2020-08-10_15h25.54.217,lexical_decision_task_MP,2020.1.3,Linux armv8l,60,,0,-0.453733574,-0.295526005,1,0,0,0.7156,button_left,0.7156,1,,,,,,289,NW,"ID",50,starby,STARBY,z,,,,,,-0.453733574,-0.295526005,1,0,0,,0,240,240,348,1,
,,,,,,,,,,,,,,,,,,5db6b2e41218ef000b26851d,2020-08-10_15h25.54.217,lexical_decision_task_MP,2020.1.3,Linux armv8l,60,,0,0.470140624,-0.280897863,1,0,0,0.602,button_right,0.602,1,,,,,,229,WORD,"ID",33,mother,MOTHER,m,,,,,,0.088752969,-0.427179059,1,0,0,,0,241,241,48,1,break_done_button
,,,,,,,,,,,,,,,,,,5db6b2e41218ef000b26851d,2020-08-10_15h25.54.217,lexical_decision_task_MP,2020.1.3,Linux armv8l,60,,0,0.458302618,-0.278459864,1,0,0,0.6691,button_right,0.6691,1,,,,,,180,WORD,UN,50,thrive,SILENT,m,,,,,,0.458302618,-0.278459864,1,0,0,,0,242,242,239,1,
,,,,,,,,,,,,,,,,,,5db6b2e41218ef000b26851d,2020-08-10_15h25.54.217,lexical_decision_task_MP,2020.1.3,Linux armv8l,60,,0,-0.471747834,-0.257492954,1,0,0,0.6016,button_left,0.6016,1,,,,,,288,NW,"ID",50,yaceup,YACEUP,z,,,,,,-0.471747834,-0.257492954,1,0,0,,0,243,243,347,1,
,,,,,,,,,,,,,,,,,,5db6b2e41218ef000b26851d,2020-08-10_15h25.54.217,lexical_decision_task_MP,2020.1.3,Linux armv8l,60,,0,0.459846719,-0.282604477,1,0,0,0.4999,button_right,0.4999,1,,,,,,188,WORD,"ID",33,social,SOCIAL,m,,,,,,0.459846719,-0.282604477,1,0,0,,0,244,244,7,1,
,,,,,,,,,,,,,,,,,,5db6b2e41218ef000b26851d,2020-08-10_15h25.54.217,lexical_decision_task_MP,2020.1.3,Linux armv8l,60,,0,0.453155666,-0.285042476,1,0,0,0.7361,button_right,0.7361,1,,,,,,122,WORD,UN,50,strike,LINGER,m,,,,,,0.453155666,-0.285042476,1,0,0,,0,245,245,181,1,
,,,,,,,,,,,,,,,,,,5db6b2e41218ef000b26851d,2020-08-10_15h25.54.217,lexical_decision_task_MP,2020.1.3,Linux armv8l,60,,0,-0.497482522,-0.277972323,1,0,0,0.6032,button_left,0.6032,1,,,,,,443,NW,"ID",33,dorsex,DORSEX,z,,,,,,-0.497482522,-0.277972323,1,0,0,,0,246,246,262,1,
,,,,,,,,,,,,,,,,,,5db6b2e41218ef000b26851d,2020-08-10_15h25.54.217,lexical_decision_task_MP,2020.1.3,Linux armv8l,60,,0,0.457273317,-0.301133387,1,0,0,0.6212,button_right,0.6212,1,,,,,,52,WORD,"ID",50,impose,IMPOSE,m,,,,,,0.457273317,-0.301133387,1,0,0,,0,247,247,111,1,
,,,,,,,,,,,,,,,,,,5db6b2e41218ef000b26851d,2020-08-10_15h25.54.217,lexical_decision_task_MP,2020.1.3,Linux armv8l,60,,0,-0.537113893,-0.264806951,1,0,0,0.8846,button_left,0.8846,1,,,,,,372,NW,UN,50,bigent,RAMILY,z,,,,,,-0.537113893,-0.264806951,1,0,0,,0,248,248,431,1,
,,,,,,,,,,,,,,,,,,5db6b2e41218ef000b26851d,2020-08-10_15h25.54.217,lexical_decision_task_MP,2020.1.3,Linux armv8l,60,,0,0.464993671,-0.276265709,1,0,0,0.5511,button_right,0.5511,1,,,,,,69,WORD,UN,33,square,PLENTY,m,,,,,,0.464993671,-0.276265709,1,0,0,,0,249,249,128,1,
,,,,,,,,,,,,,,,,,,5db6b2e41218ef000b26851d,2020-08-10_15h25.54.217,lexical_decision_task_MP,2020.1.3,Linux armv8l,60,,0,0.455214565,-0.266026025,1,0,0,0.8031,button_right,0.8031,1,,,,,,81,WORD,UN,33,stigma,FRIEND,m,,,,,,0.455214565,-0.266026025,1,0,0,,0,250,250,140,1,
,,,,,,,,,,,,,,,,,,5db6b2e41218ef000b26851d,2020-08-10_15h25.54.217,lexical_decision_task_MP,2020.1.3,Linux armv8l,60,,0,0.452126364,-0.284311091,1,0,0,0.5665,button_right,0.5665,1,,,,,,172,WORD,UN,50,shower,PATROL,m,,,,,,0.452126364,-0.284311091,1,0,0,,0,251,251,231,1,
,,,,,,,,,,,,,,,,,,5db6b2e41218ef000b26851d,2020-08-10_15h25.54.217,lexical_decision_task_MP,2020.1.3,Linux armv8l,60,,0,0.440803157,-0.308447458,1,0,0,0.6339,button_right,0.6339,1,,,,,,120,WORD,UN,33,ponder,STRAIN,m,,,,,,0.440803157,-0.308447458,1,0,0,,0,252,252,179,1,
,,,,,,,,,,,,,,,,,,5db6b2e41218ef000b26851d,2020-08-10_15h25.54.217,lexical_decision_task_MP,2020.1.3,Linux armv8l,60,,0,0.396539484,-0.283579706,1,0,0,0.6008,button_right,0.6008,1,,,,,,208,WORD,"ID",33,hockey,HOCKEY,m,,,,,,0.396539484,-0.283579706,1,0,0,,0,253,253,27,1,
,,,,,,,,,,,,,,,,,,5db6b2e41218ef000b26851d,2020-08-10_15h25.54.217,lexical_decision_task_MP,2020.1.3,Linux armv8l,60,,0,-0.414102202,-0.270901949,1,0,0,0.785,button_left,0.785,1,,,,,,251,NW,"ID",50,lupict,LUPICT,z,,,,,,-0.414102202,-0.270901949,1,0,0,,0,254,254,310,1,
,,,,,,,,,,,,,,,,,,5db6b2e41218ef000b26851d,2020-08-10_15h25.54.217,lexical_decision_task_MP,2020.1.3,Linux armv8l,60,,0,-0.440866267,-0.284554861,1,0,0,0.6859,button_left,0.6859,1,,,,,,281,NW,"ID",50,melaty,MELATY,z,,,,,,-0.440866267,-0.284554861,1,0,0,,0,255,255,340,1,
,,,,,,,,,,,,,,,,,,5db6b2e41218ef000b26851d,2020-08-10_15h25.54.217,lexical_decision_task_MP,2020.1.3,Linux armv8l,60,,0,0.417641945,-0.261881264,1,0,0,0.699,button_right,0.699,1,,,,,,141,WORD,UN,50,spruce,ORPHAN,m,,,,,,0.417641945,-0.261881264,1,0,0,,0,256,256,200,1,
,,,,,,,,,,,,,,,,,,5db6b2e41218ef000b26851d,2020-08-10_15h25.54.217,lexical_decision_task_MP,2020.1.3,Linux armv8l,60,,0,-0.44241033,-0.296988774,1,0,0,0.6414,button_left,0.6414,1,,,,,,427,NW,"ID",33,schind,SCHIND,z,,,,,,-0.44241033,-0.296988774,1,0,0,,0,257,257,246,1,
,,,,,,,,,,,,,,,,,,5db6b2e41218ef000b26851d,2020-08-10_15h25.54.217,lexical_decision_task_MP,2020.1.3,Linux armv8l,60,,0,-0.476894786,-0.27577802,1,0,0,0.585,button_left,0.585,1,,,,,,255,NW,"ID",50,apight,APIGHT,z,,,,,,-0.476894786,-0.27577802,1,0,0,,0,258,258,314,1,
,,,,,,,,,,,,,,,,,,5db6b2e41218ef000b26851d,2020-08-10_15h25.54.217,lexical_decision_task_MP,2020.1.3,Linux armv8l,60,,0,-0.47998295,-0.289674703,1,0,0,0.5543,button_left,0.5543,1,,,,,,241,NW,"ID",50,smenco,SMENCO,z,,,,,,-0.47998295,-0.289674703,1,0,0,,0,259,259,300,1,
,,,,,,,,,,,,,,,,,,5db6b2e41218ef000b26851d,2020-08-10_15h25.54.217,lexical_decision_task_MP,2020.1.3,Linux armv8l,60,,0,0.486610783,-0.306740844,1,0,0,0.7344,button_right,0.7344,1,,,,,,104,WORD,UN,33,number,STUDIO,m,,,,,,0.486610783,-0.306740844,1,0,0,,0,260,260,163,1,
,,,,,,,,,,,,,,,,,,5db6b2e41218ef000b26851d,2020-08-10_15h25.54.217,lexical_decision_task_MP,2020.1.3,Linux armv8l,60,,0,-0.514467369,-0.283579706,1,0,0,0.5861,button_left,0.5861,1,,,,,,336,NW,UN,33,rejols,GHODUS,z,,,,,,-0.514467369,-0.283579706,1,0,0,,0,261,261,395,1,
,,,,,,,,,,,,,,,,,,5db6b2e41218ef000b26851d,2020-08-10_15h25.54.217,lexical_decision_task_MP,2020.1.3,Linux armv8l,60,,0,0.518007001,-0.275534176,1,0,0,0.7848,button_right,0.7848,0,,,,,,303,NW,UN,33,cludie,FIREAM,z,,,,,,0.518007001,-0.275534176,1,0,0,,0,262,262,362,1,
,,,,,,,,,,,,,,,,,,5db6b2e41218ef000b26851d,2020-08-10_15h25.54.217,lexical_decision_task_MP,2020.1.3,Linux armv8l,60,,0,0.513374847,-0.282604477,1,0,0,0.5338,button_right,0.5338,1,,,,,,156,WORD,UN,50,depart,CRADLE,m,,,,,,0.513374847,-0.282604477,1,0,0,,0,263,263,215,1,
,,,,,,,,,,,,,,,,,,5db6b2e41218ef000b26851d,2020-08-10_15h25.54.217,lexical_decision_task_MP,2020.1.3,Linux armv8l,60,,0,-0.495423734,-0.269682949,1,0,0,0.7175,button_left,0.7175,1,,,,,,408,NW,UN,50,elopia,HURNIA,z,,,,,,-0.495423734,-0.269682949,1,0,0,,0,264,264,467,1,
,,,,,,,,,,,,,,,,,,5db6b2e41218ef000b26851d,2020-08-10_15h25.54.217,lexical_decision_task_MP,2020.1.3,Linux armv8l,60,,0,0.473743476,-0.287724319,1,0,0,0.5837,button_right,0.5837,1,,,,,,64,WORD,UN,33,symbol,THRONE,m,,,,,,0.473743476,-0.287724319,1,0,0,,0,265,265,123,1,
,,,,,,,,,,,,,,,,,,5db6b2e41218ef000b26851d,2020-08-10_15h25.54.217,lexical_decision_task_MP,2020.1.3,Linux armv8l,60,,0,0.46293492,-0.289430933,1,0,0,0.7682,button_right,0.7682,1,,,,,,68,WORD,UN,33,plenty,FUMBLE,m,,,,,,0.46293492,-0.289430933,1,0,0,,0,266,266,127,1,
,,,,,,,,,,,,,,,,,,5db6b2e41218ef000b26851d,2020-08-10_15h25.54.217,lexical_decision_task_MP,2020.1.3,Linux armv8l,60,,0,-0.488732718,-0.297720159,1,0,0,0.7696,button_left,0.7696,1,,,,,,461,NW,"ID",33,justre,JUSTRE,z,,,,,,-0.488732718,-0.297720159,1,0,0,,0,267,267,280,1,
,,,,,,,,,,,,,,,,,,5db6b2e41218ef000b26851d,2020-08-10_15h25.54.217,lexical_decision_task_MP,2020.1.3,Linux armv8l,60,,0,-0.47843885,-0.289918622,1,0,0,0.7517,button_left,0.7517,1,,,,,,329,NW,UN,33,kensom,YARIKE,z,,,,,,-0.47843885,-0.289918622,1,0,0,,0,268,268,388,1,
,,,,,,,,,,,,,,,,,,5db6b2e41218ef000b26851d,2020-08-10_15h25.54.217,lexical_decision_task_MP,2020.1.3,Linux armv8l,60,,0,-0.449616034,-0.297232619,1,0,0,0.6816,button_left,0.6816,1,,,,,,435,NW,"ID",33,impurb,IMPURB,z,,,,,,-0.449616034,-0.297232619,1,0,0,,0,269,269,254,1,
,,,,,,,,,,,,,,,,,,5db6b2e41218ef000b26851d,2020-08-10_15h25.54.217,lexical_decision_task_MP,2020.1.3,Linux armv8l,60,,0,0.490213635,-0.271633407,1,0,0,0.7026,button_right,0.7026,1,,,,,,30,WORD,"ID",50,orient,ORIENT,m,,,,,,0.490213635,-0.271633407,1,0,0,,0,270,270,89,1,
,,,,,,,,,,,,,,,,,,5db6b2e41218ef000b26851d,2020-08-10_15h25.54.217,lexical_decision_task_MP,2020.1.3,Linux armv8l,60,,0,-0.492850257,-0.27724079,1,0,0,0.652,button_left,0.652,1,,,,,,383,NW,UN,50,guesco,AUNGRE,z,,,,,,-0.492850257,-0.27724079,1,0,0,,0,271,271,442,1,
,,,,,,,,,,,,,,,,,,5db6b2e41218ef000b26851d,2020-08-10_15h25.54.217,lexical_decision_task_MP,2020.1.3,Linux armv8l,60,,0,-0.483071114,-0.298695388,1,0,0,0.7188,button_left,0.7188,1,,,,,,374,NW,UN,50,yorque,SLIANT,z,,,,,,-0.483071114,-0.298695388,1,0,0,,0,272,272,433,1,
,,,,,,,,,,,,,,,,,,5db6b2e41218ef000b26851d,2020-08-10_15h25.54.217,lexical_decision_task_MP,2020.1.3,Linux armv8l,60,,0,0.436170856,-0.248715965,1,0,0,0.6018,button_right,0.6018,1,,,,,,230,WORD,"ID",33,fringe,FRINGE,m,,,,,,0.436170856,-0.248715965,1,0,0,,0,273,273,49,1,
,,,,,,,,,,,,,,,,,,5db6b2e41218ef000b26851d,2020-08-10_15h25.54.217,lexical_decision_task_MP,2020.1.3,Linux armv8l,60,,0,0.398083585,-0.278947404,1,0,0,0.5356,button_right,0.5356,1,,,,,,53,WORD,"ID",50,police,POLICE,m,,,,,,0.398083585,-0.278947404,1,0,0,,0,274,274,112,1,
,,,,,,,,,,,,,,,,,,5db6b2e41218ef000b26851d,2020-08-10_15h25.54.217,lexical_decision_task_MP,2020.1.3,Linux armv8l,60,,0,-0.460939278,-0.283092165,1,0,0,0.6835,button_left,0.6835,1,,,,,,294,NW,"ID",50,inhort,INHORT,z,,,,,,-0.460939278,-0.283092165,1,0,0,,0,275,275,353,1,
,,,,,,,,,,,,,,,,,,5db6b2e41218ef000b26851d,2020-08-10_15h25.54.217,lexical_decision_task_MP,2020.1.3,Linux armv8l,60,,0,-0.468144982,-0.25773665,1,0,0,0.6353,button_left,0.6353,1,,,,,,263,NW,"ID",50,dolica,DOLICA,z,,,,,,-0.468144982,-0.25773665,1,0,0,,0,276,276,322,1,
,,,,,,,,,,,,,,,,,,5db6b2e41218ef000b26851d,2020-08-10_15h25.54.217,lexical_decision_task_MP,2020.1.3,Linux armv8l,60,,0,0.452126364,-0.286261475,1,0,0,0.5175,button_right,0.5175,1,,,,,,41,WORD,"ID",50,spring,SPRING,m,,,,,,0.452126364,-0.286261475,1,0,0,,0,277,277,100,1,
,,,,,,,,,,,,,,,,,,5db6b2e41218ef000b26851d,2020-08-10_15h25.54.217,lexical_decision_task_MP,2020.1.3,Linux armv8l,60,,0,0.458817417,-0.292356547,1,0,0,0.588,button_right,0.588,1,,,,,,216,WORD,"ID",33,behalf,BEHALF,m,,,,,,0.458817417,-0.292356547,1,0,0,,0,278,278,35,1,
,,,,,,,,,,,,,,,,,,5db6b2e41218ef000b26851d,2020-08-10_15h25.54.217,lexical_decision_task_MP,2020.1.3,Linux armv8l,60,,0,,,,,,,,0.588,-1,,,,,,338,NW,UN,33,fachow,WREASH,z,,,,,,0.40631859,-0.308447458,0,0,0,,0,279,279,397,1,
,,,,,,,,,,,,,,,,,,5db6b2e41218ef000b26851d,2020-08-10_15h25.54.217,lexical_decision_task_MP,2020.1.3,Linux armv8l,60,,0,0.414039093,-0.26870772,1,0,0,0.6146,button_right,0.6146,1,,,,,,55,WORD,"ID",50,stroke,STROKE,m,,,,,,0.414039093,-0.26870772,1,0,0,,0,280,280,114,1,
,,,,,,,,,,,,,,,,,,5db6b2e41218ef000b26851d,2020-08-10_15h25.54.217,lexical_decision_task_MP,2020.1.3,Linux armv8l,60,,0,0.44492066,-0.303815231,1,0,0,0.8263,button_right,0.8263,1,,,,,,16,WORD,"ID",50,faucet,FAUCET,m,,,,,,0.44492066,-0.303815231,1,0,0,,0,281,281,75,1,
,,,,,,,,,,,,,,,,,,5db6b2e41218ef000b26851d,2020-08-10_15h25.54.217,lexical_decision_task_MP,2020.1.3,Linux armv8l,60,,0,-0.371382704,-0.312348301,1,0,0,1.723,button_left,1.723,1,,,,,,393,NW,UN,50,spaqux,GANOUS,z,,,,,,-0.371382704,-0.312348301,1,0,0,,0,282,282,452,1,
,,,,,,,,,,,,,,,,,,5db6b2e41218ef000b26851d,2020-08-10_15h25.54.217,lexical_decision_task_MP,2020.1.3,Linux armv8l,60,,0,0.394995384,-0.280410248,1,0,0,0.5351,button_right,0.5351,1,,,,,,218,WORD,"ID",33,shrink,SHRINK,m,,,,,,0.394995384,-0.280410248,1,0,0,,0,283,283,37,1,
,,,,,,,,,,,,,,,,,,5db6b2e41218ef000b26851d,2020-08-10_15h25.54.217,lexical_decision_task_MP,2020.1.3,Linux armv8l,60,,0,0.429994602,-0.282848247,1,0,0,0.569,button_right,0.569,1,,,,,,113,WORD,UN,33,placid,CHORUS,m,,,,,,0.429994602,-0.282848247,1,0,0,,0,284,284,172,1,
,,,,,,,,,,,,,,,,,,5db6b2e41218ef000b26851d,2020-08-10_15h25.54.217,lexical_decision_task_MP,2020.1.3,Linux armv8l,60,,0,0.433082655,-0.281141633,1,0,0,0.4682,button_right,0.4682,1,,,,,,224,WORD,"ID",33,period,PERIOD,m,,,,,,0.433082655,-0.281141633,1,0,0,,0,285,285,43,1,
,,,,,,,,,,,,,,,,,,5db6b2e41218ef000b26851d,2020-08-10_15h25.54.217,lexical_decision_task_MP,2020.1.3,Linux armv8l,60,,0,-0.504688226,-0.275290406,1,0,0,0.6506,button_left,0.6506,1,,,,,,424,NW,"ID",33,praile,PRAILE,z,,,,,,-0.504688226,-0.275290406,1,0,0,,0,286,286,243,1,
,,,,,,,,,,,,,,,,,,5db6b2e41218ef000b26851d,2020-08-10_15h25.54.217,lexical_decision_task_MP,2020.1.3,Linux armv8l,60,,0,0.461390819,-0.289430933,1,0,0,0.5845,button_right,0.5845,0,,,,,,276,NW,"ID",50,yarmon,YARMON,z,,,,,,0.461390819,-0.289430933,1,0,0,,0,287,287,335,1,
,,,,,,,,,,,,,,,,,,5db6b2e41218ef000b26851d,2020-08-10_15h25.54.217,lexical_decision_task_MP,2020.1.3,Linux armv8l,60,,0,0.46190547,-0.289674703,1,0,0,0.6337,button_right,0.6337,1,,,,,,10,WORD,"ID",50,ethnic,ETHNIC,m,,,,,,0.46190547,-0.289674703,1,0,0,,0,288,288,69,1,
,,,,,,,,,,,,,,,,,,5db6b2e41218ef000b26851d,2020-08-10_15h25.54.217,lexical_decision_task_MP,2020.1.3,Linux armv8l,60,,0,-0.447042595,-0.269926793,1,0,0,0.7681,button_left,0.7681,1,,,,,,243,NW,"ID",50,musied,MUSIED,z,,,,,,-0.447042595,-0.269926793,1,0,0,,0,289,289,302,1,
,,,,,,,,,,,,,,,,,,5db6b2e41218ef000b26851d,2020-08-10_15h25.54.217,lexical_decision_task_MP,2020.1.3,Linux armv8l,60,,0,-0.441895642,-0.273583792,1,0,0,0.6169,button_left,0.6169,1,,,,,,279,NW,"ID",50,celond,CELOND,z,,,,,,-0.441895642,-0.273583792,1,0,0,,0,290,290,338,1,
,,,,,,,,,,,,,,,,,,5db6b2e41218ef000b26851d,2020-08-10_15h25.54.217,lexical_decision_task_MP,2020.1.3,Linux armv8l,60,,0,0.46447902,-0.293087932,1,0,0,0.5166,button_right,0.5166,1,,,,,,136,WORD,UN,50,finger,BLEACH,m,,,,,,0.46447902,-0.293087932,1,0,0,,0,291,291,195,1,
,,,,,,,,,,,,,,,,,,5db6b2e41218ef000b26851d,2020-08-10_15h25.54.217,lexical_decision_task_MP,2020.1.3,Linux armv8l,60,,0,0.466023121,-0.316249144,1,0,0,0.5527,button_right,0.5527,1,,,,,,130,WORD,UN,50,quench,STUPID,m,,,,,,0.466023121,-0.316249144,1,0,0,,0,292,292,189,1,
,,,,,,,,,,,,,,,,,,5db6b2e41218ef000b26851d,2020-08-10_15h25.54.217,lexical_decision_task_MP,2020.1.3,Linux armv8l,60,,0,-0.451674822,-0.249447424,1,0,0,0.5844,button_left,0.5844,1,,,,,,309,NW,UN,33,daniet,AMILOY,z,,,,,,-0.451674822,-0.249447424,1,0,0,,0,293,293,368,1,
,,,,,,,,,,,,,,,,,,5db6b2e41218ef000b26851d,2020-08-10_15h25.54.217,lexical_decision_task_MP,2020.1.3,Linux armv8l,60,,0,0.502566291,-0.280166478,1,0,0,0.5328,button_right,0.5328,1,,,,,,126,WORD,UN,50,castle,ENOUGH,m,,,,,,0.502566291,-0.280166478,1,0,0,,0,294,294,185,1,
,,,,,,,,,,,,,,,,,,5db6b2e41218ef000b26851d,2020-08-10_15h25.54.217,lexical_decision_task_MP,2020.1.3,Linux armv8l,60,,0,-0.435204626,-0.297232619,1,0,0,0.7365,button_left,0.7365,1,,,,,,469,NW,"ID",33,padifs,PADIFS,z,,,,,,-0.435204626,-0.297232619,1,0,0,,0,295,295,288,1,
,,,,,,,,,,,,,,,,,,5db6b2e41218ef000b26851d,2020-08-10_15h25.54.217,lexical_decision_task_MP,2020.1.3,Linux armv8l,60,,0,0.451096914,-0.277728405,1,0,0,0.5518,button_right,0.5518,1,,,,,,58,WORD,"ID",50,foster,FOSTER,m,,,,,,0.451096914,-0.277728405,1,0,0,,0,296,296,117,1,
,,,,,,,,,,,,,,,,,,5db6b2e41218ef000b26851d,2020-08-10_15h25.54.217,lexical_decision_task_MP,2020.1.3,Linux armv8l,60,,0,0.459846719,-0.273827562,1,0,0,0.5544,button_right,0.5544,1,,,,,,96,WORD,UN,33,client,IGNORE,m,,,,,,0.459846719,-0.273827562,1,0,0,,0,297,297,155,1,
,,,,,,,,,,,,,,,,,,5db6b2e41218ef000b26851d,2020-08-10_15h25.54.217,lexical_decision_task_MP,2020.1.3,Linux armv8l,60,,0,0.48249328,-0.306497074,1,0,0,0.5338,button_right,0.5338,1,,,,,,212,WORD,"ID",33,verify,VERIFY,m,,,,,,0.48249328,-0.306497074,1,0,0,,0,298,298,31,1,
,,,,,,,,,,,,,,,,,,5db6b2e41218ef000b26851d,2020-08-10_15h25.54.217,lexical_decision_task_MP,2020.1.3,Linux armv8l,60,,0,0.472199375,-0.267976335,1,0,0,0.603,button_right,0.603,1,,,,,,226,WORD,"ID",33,casino,CASINO,m,,,,,,0.472199375,-0.267976335,1,0,0,,0,299,299,45,1,
,,,,,,,,,,,,,,,,,,5db6b2e41218ef000b26851d,2020-08-10_15h25.54.217,lexical_decision_task_MP,2020.1.3,Linux armv8l,60,,0,-0.453733574,-0.261881264,1,0,0,0.6177,button_left,0.6177,1,,,,,,334,NW,UN,33,desion,WATMEG,z,,,,,,-0.453733574,-0.261881264,1,0,0,,0,300,300,393,1,
,,,,,,,,,,,,,,,,,,5db6b2e41218ef000b26851d,2020-08-10_15h25.54.217,lexical_decision_task_MP,2020.1.3,Linux armv8l,60,,0,0.479405079,-0.292844161,1,0,0,0.4848,button_right,0.4848,0,,,,,,275,NW,"ID",50,sleirt,SLEIRT,z,,,,,,0.479405079,-0.292844161,1,0,0,,0,301,301,334,1,
,,,,,,,,,,,,,,,,,,5db6b2e41218ef000b26851d,2020-08-10_15h25.54.217,lexical_decision_task_MP,2020.1.3,Linux armv8l,60,,0,-0.45218951,-0.268220179,1,0,0,0.7186,button_left,0.7186,1,,,,,,293,NW,"ID",50,swance,SWANCE,z,,,,,,-0.45218951,-0.268220179,1,0,0,,0,302,302,352,1,
,,,,,,,,,,,,,,,,,,5db6b2e41218ef000b26851d,2020-08-10_15h25.54.217,lexical_decision_task_MP,2020.1.3,Linux armv8l,60,,0,-0.437778103,-0.284311091,1,0,0,0.8078,button_left,0.8078,1,,,,,,244,NW,"ID",50,eatric,EATRIC,z,,,,,,-0.437778103,-0.284311091,1,0,0,,0,303,303,303,1,
,,,,,,,,,,,,,,,,,,5db6b2e41218ef000b26851d,2020-08-10_15h25.54.217,lexical_decision_task_MP,2020.1.3,Linux armv8l,60,,0,0.46036137,-0.283579706,1,0,0,0.7208,button_right,0.7208,1,,,,,,127,WORD,UN,50,senior,CASTLE,m,,,,,,0.46036137,-0.283579706,1,0,0,,0,304,304,186,1,
,,,,,,,,,,,,,,,,,,5db6b2e41218ef000b26851d,2020-08-10_15h25.54.217,lexical_decision_task_MP,2020.1.3,Linux armv8l,60,,0,0.435656205,-0.263587878,1,0,0,0.7206,button_right,0.7206,1,,,,,,154,WORD,UN,50,lizard,AUTHOR,m,,,,,,0.435656205,-0.263587878,1,0,0,,0,305,305,213,1,
,,,,,,,,,,,,,,,,,,5db6b2e41218ef000b26851d,2020-08-10_15h25.54.217,lexical_decision_task_MP,2020.1.3,Linux armv8l,60,,0,0.453155666,-0.273096177,1,0,0,0.6158,button_right,0.6158,0,,,,,,313,NW,UN,33,sprine,PAURSE,z,,,,,,0.453155666,-0.273096177,1,0,0,,0,306,306,372,1,
,,,,,,,,,,,,,,,,,,5db6b2e41218ef000b26851d,2020-08-10_15h25.54.217,lexical_decision_task_MP,2020.1.3,Linux armv8l,60,,0,-0.439322166,-0.287724319,1,0,0,0.8357,button_left,0.8357,1,,,,,,429,NW,"ID",33,funtle,FUNTLE,z,,,,,,-0.439322166,-0.287724319,1,0,0,,0,307,307,248,1,
,,,,,,,,,,,,,,,,,,5db6b2e41218ef000b26851d,2020-08-10_15h25.54.217,lexical_decision_task_MP,2020.1.3,Linux armv8l,60,,0,0.431023903,-0.258468035,1,0,0,0.885,button_right,0.885,1,,,,,,189,WORD,"ID",33,censor,CENSOR,m,,,,,,0.431023903,-0.258468035,1,0,0,,0,308,308,8,1,
,,,,,,,,,,,,,,,,,,5db6b2e41218ef000b26851d,2020-08-10_15h25.54.217,lexical_decision_task_MP,2020.1.3,Linux armv8l,60,,0,-0.355941921,-0.252616808,1,0,0,0.6851,button_left,0.6851,1,,,,,,316,NW,UN,33,worbal,SCREGM,z,,,,,,-0.355941921,-0.252616808,1,0,0,,0,309,309,375,1,
,,,,,,,,,,,,,,,,,,5db6b2e41218ef000b26851d,2020-08-10_15h25.54.217,lexical_decision_task_MP,2020.1.3,Linux armv8l,60,,0,-0.388882239,-0.259199568,1,0,0,0.5965,button_left,0.5965,1,,,,,,399,NW,UN,50,wearox,FOURET,z,,,,,,-0.388882239,-0.259199568,1,0,0,,0,310,310,458,1,
,,,,,,,,,,,,,,,,,,5db6b2e41218ef000b26851d,2020-08-10_15h25.54.217,lexical_decision_task_MP,2020.1.3,Linux armv8l,60,,0,0.485581333,-0.299914388,1,0,0,0.5677,button_right,0.5677,1,,,,,,109,WORD,UN,33,polite,WONDER,m,,,,,,0.485581333,-0.299914388,1,0,0,,0,311,311,168,1,
,,,,,,,,,,,,,,,,,,5db6b2e41218ef000b26851d,2020-08-10_15h25.54.217,lexical_decision_task_MP,2020.1.3,Linux armv8l,60,,0,-0.435204626,-0.237013585,1,0,0,0.8031,button_left,0.8031,1,,,,,,425,NW,"ID",33,frudge,FRUDGE,z,,,,,,-0.435204626,-0.237013585,1,0,0,,0,312,312,244,1,
,,,,,,,,,,,,,,,,,,5db6b2e41218ef000b26851d,2020-08-10_15h25.54.217,lexical_decision_task_MP,2020.1.3,Linux armv8l,60,,0,0.46447902,-0.279922633,1,0,0,0.7852,button_right,0.7852,1,,,,,,176,WORD,UN,50,advent,STRIFE,m,,,,,,0.46447902,-0.279922633,1,0,0,,0,313,313,235,1,
,,,,,,,,,,,,,,,,,,5db6b2e41218ef000b26851d,2020-08-10_15h25.54.217,lexical_decision_task_MP,2020.1.3,Linux armv8l,60,,0,0.469625973,-0.293087932,1,0,0,0.484,button_right,0.484,1,,,,,,3,WORD,"ID",50,knight,KNIGHT,m,,,,,,0.469625973,-0.293087932,1,0,0,,0,314,314,62,1,
,,,,,,,,,,,,,,,,,,5db6b2e41218ef000b26851d,2020-08-10_15h25.54.217,lexical_decision_task_MP,2020.1.3,Linux armv8l,60,,0,0.460876169,-0.284554861,1,0,0,0.5494,button_right,0.5494,1,,,,,,151,WORD,UN,50,rocket,MYSTIC,m,,,,,,0.460876169,-0.284554861,1,0,0,,0,315,315,210,1,
,,,,,,,,,,,,,,,,,,5db6b2e41218ef000b26851d,2020-08-10_15h25.54.217,lexical_decision_task_MP,2020.1.3,Linux armv8l,60,,0,0.431023903,-0.242620968,1,0,0,0.5028,button_right,0.5028,1,,,,,,210,WORD,"ID",33,monkey,MONKEY,m,,,,,,0.431023903,-0.242620968,1,0,0,,0,316,316,29,1,
,,,,,,,,,,,,,,,,,,5db6b2e41218ef000b26851d,2020-08-10_15h25.54.217,lexical_decision_task_MP,2020.1.3,Linux armv8l,60,,0,-0.434175251,-0.28479878,1,0,0,0.6544,button_left,0.6544,1,,,,,,268,NW,"ID",50,packes,PACKES,z,,,,,,-0.434175251,-0.28479878,1,0,0,,0,317,317,327,1,
,,,,,,,,,,,,,,,,,,5db6b2e41218ef000b26851d,2020-08-10_15h25.54.217,lexical_decision_task_MP,2020.1.3,Linux armv8l,60,,0,-0.433145875,-0.28553009,1,0,0,0.687,button_left,0.687,1,,,,,,476,NW,"ID",33,josted,JOSTED,z,,,,,,-0.433145875,-0.28553009,1,0,0,,0,318,318,295,1,
,,,,,,,,,,,,,,,,,,5db6b2e41218ef000b26851d,2020-08-10_15h25.54.217,lexical_decision_task_MP,2020.1.3,Linux armv8l,60,,0,0.490213635,-0.285773861,1,0,0,0.5185,button_right,0.5185,1,,,,,,31,WORD,"ID",50,weapon,WEAPON,m,,,,,,0.490213635,-0.285773861,1,0,0,,0,319,319,90,1,
,,,,,,,,,,,,,,,,,,5db6b2e41218ef000b26851d,2020-08-10_15h25.54.217,lexical_decision_task_MP,2020.1.3,Linux armv8l,60,,0,0.477346328,-0.25895565,1,0,0,0.6521,button_right,0.6521,1,,,,,,102,WORD,UN,33,bounce,DIRECT,m,,,,,,0.477346328,-0.25895565,1,0,0,,0,320,320,161,1,
,,,,,,,,,,,,,,,,,,5db6b2e41218ef000b26851d,2020-08-10_15h25.54.217,lexical_decision_task_MP,2020.1.3,Linux armv8l,60,,0,-0.465571542,-0.295526005,1,0,0,0.5864,button_left,0.5864,1,,,,,,456,NW,"ID",33,broget,BROGET,z,,,,,,-0.465571542,-0.295526005,1,0,0,,0,321,321,275,1,
,,,,,,,,,,,,,,,,,,5db6b2e41218ef000b26851d,2020-08-10_15h25.54.217,lexical_decision_task_MP,2020.1.3,Linux armv8l,60,,0,-0.446013182,-0.284311091,1,0,0,0.7684,button_left,0.7684,1,,,,,,321,NW,UN,33,slanch,MIATOR,z,,,,,,-0.446013182,-0.284311091,1,0,0,,0,322,322,380,1,
,,,,,,,,,,,,,,,,,,5db6b2e41218ef000b26851d,2020-08-10_15h25.54.217,lexical_decision_task_MP,2020.1.3,Linux armv8l,60,,0,-0.476894786,-0.25871188,1,0,0,0.6699,button_left,0.6699,1,,,,,,446,NW,"ID",33,runamo,RUNAMO,z,,,,,,-0.476894786,-0.25871188,1,0,0,,0,323,323,265,1,
,,,,,,,,,,,,,,,,,,5db6b2e41218ef000b26851d,2020-08-10_15h25.54.217,lexical_decision_task_MP,2020.1.3,Linux armv8l,60,,0,-0.446013182,-0.259443265,1,0,0,0.7858,button_left,0.7858,1,,,,,,477,NW,"ID",33,photie,PHOTIE,z,,,,,,-0.446013182,-0.259443265,1,0,0,,0,324,324,296,1,
,,,,,,,,,,,,,,,,,,5db6b2e41218ef000b26851d,2020-08-10_15h25.54.217,lexical_decision_task_MP,2020.1.3,Linux armv8l,60,,0,-0.421822631,-0.281873092,1,0,0,0.7688,button_left,0.7688,1,,,,,,355,NW,UN,33,othnis,ZINGLY,z,,,,,,-0.421822631,-0.281873092,1,0,0,,0,325,325,414,1,
,,,,,,,,,,,,,,,,,,5db6b2e41218ef000b26851d,2020-08-10_15h25.54.217,lexical_decision_task_MP,2020.1.3,Linux armv8l,60,,0,0.471684724,-0.264319411,1,0,0,0.6512,button_right,0.6512,1,,,,,,135,WORD,UN,50,bleach,IMPORT,m,,,,,,0.471684724,-0.264319411,1,0,0,,0,326,326,194,1,
,,,,,,,,,,,,,,,,,,5db6b2e41218ef000b26851d,2020-08-10_15h25.54.217,lexical_decision_task_MP,2020.1.3,Linux armv8l,60,,0,0.452641015,-0.285042476,1,0,0,0.6682,button_right,0.6682,1,,,,,,167,WORD,UN,50,answer,DESIGN,m,,,,,,0.452641015,-0.285042476,1,0,0,,0,327,327,226,1,
,,,,,,,,,,,,,,,,,,5db6b2e41218ef000b26851d,2020-08-10_15h25.54.217,lexical_decision_task_MP,2020.1.3,Linux armv8l,60,,0,0.439773708,-0.291868932,1,0,0,0.7169,button_right,0.7169,1,,,,,,159,WORD,UN,50,violet,DETAIL,m,,,,,,0.439773708,-0.291868932,1,0,0,,0,328,328,218,1,
,,,,,,,,,,,,,,,,,,5db6b2e41218ef000b26851d,2020-08-10_15h25.54.217,lexical_decision_task_MP,2020.1.3,Linux armv8l,60,,0,0.458817417,-0.286992934,1,0,0,0.5033,button_right,0.5033,1,,,,,,192,WORD,"ID",33,plague,PLAGUE,m,,,,,,0.458817417,-0.286992934,1,0,0,,0,329,329,11,1,
,,,,,,,,,,,,,,,,,,5db6b2e41218ef000b26851d,2020-08-10_15h25.54.217,lexical_decision_task_MP,2020.1.3,Linux armv8l,60,,0,-0.436234039,-0.289674703,1,0,0,0.9712,button_left,0.9712,1,,,,,,445,NW,"ID",33,minkel,MINKEL,z,,,,,,-0.436234039,-0.289674703,1,0,0,,0,330,330,264,1,
,,,,,,,,,,,,,,,,,,5db6b2e41218ef000b26851d,2020-08-10_15h25.54.217,lexical_decision_task_MP,2020.1.3,Linux armv8l,60,,0,0.450582264,-0.29650116,1,0,0,0.7192,button_right,0.7192,1,,,,,,2,WORD,"ID",50,bridge,BRIDGE,m,,,,,,0.450582264,-0.29650116,1,0,0,,0,331,331,61,1,
,,,,,,,,,,,,,,,,,,5db6b2e41218ef000b26851d,2020-08-10_15h25.54.217,lexical_decision_task_MP,2020.1.3,Linux armv8l,60,,0,0.424847649,-0.286505394,1,0,0,0.6677,button_right,0.6677,1,,,,,,51,WORD,"ID",50,hungry,HUNGRY,m,,,,,,0.424847649,-0.286505394,1,0,0,,0,332,332,110,1,
,,,,,,,,,,,,,,,,,,5db6b2e41218ef000b26851d,2020-08-10_15h25.54.217,lexical_decision_task_MP,2020.1.3,Linux armv8l,60,,0,0.437200306,-0.295038464,1,0,0,0.6006,button_right,0.6006,1,,,,,,165,WORD,UN,50,starch,INVEST,m,,,,,,0.437200306,-0.295038464,1,0,0,,0,333,333,224,1,
,,,,,,,,,,,,,,,,,,5db6b2e41218ef000b26851d,2020-08-10_15h25.54.217,lexical_decision_task_MP,2020.1.3,Linux armv8l,60,,0,0.445435311,-0.279435019,1,0,0,0.5001,button_right,0.5001,1,,,,,,38,WORD,"ID",50,powder,POWDER,m,,,,,,0.445435311,-0.279435019,1,0,0,,0,334,334,97,1,
,,,,,,,,,,,,,,,,,,5db6b2e41218ef000b26851d,2020-08-10_15h25.54.217,lexical_decision_task_MP,2020.1.3,Linux armv8l,60,,0,0.417641945,-0.278216019,1,0,0,0.4687,button_right,0.4687,1,,,,,,47,WORD,"ID",50,income,INCOME,m,,,,,,0.417641945,-0.278216019,1,0,0,,0,335,335,106,1,
,,,,,,,,,,,,,,,,,,5db6b2e41218ef000b26851d,2020-08-10_15h25.54.217,lexical_decision_task_MP,2020.1.3,Linux armv8l,60,,0,0.434112104,-0.302108617,1,0,0,0.4823,button_right,0.4823,0,,,,,,320,NW,UN,33,miator,JOCKAL,z,,,,,,0.434112104,-0.302108617,1,0,0,,0,336,336,379,1,
,,,,,,,,,,,,,,,,,,5db6b2e41218ef000b26851d,2020-08-10_15h25.54.217,lexical_decision_task_MP,2020.1.3,Linux armv8l,60,,0,0.436685507,-0.283335862,1,0,0,0.6659,button_right,0.6659,1,,,,,,84,WORD,UN,33,strand,MORTAL,m,,,,,,0.436685507,-0.283335862,1,0,0,,0,337,337,143,1,
,,,,,,,,,,,,,,,,,,5db6b2e41218ef000b26851d,2020-08-10_15h25.54.217,lexical_decision_task_MP,2020.1.3,Linux armv8l,60,,0,0.450067613,-0.280654018,1,0,0,1.0185,button_right,1.0185,0,,,,,,341,NW,UN,33,randow,MYRTIE,z,,,,,,0.450067613,-0.280654018,1,0,0,,0,338,338,400,1,
,,,,,,,,,,,,,,,,,,5db6b2e41218ef000b26851d,2020-08-10_15h25.54.217,lexical_decision_task_MP,2020.1.3,Linux armv8l,60,,0,-0.407925911,-0.270170564,1,0,0,0.9869,button_left,0.9869,1,,,,,,349,NW,UN,33,nagurs,ASYLEN,z,,,,,,-0.407925911,-0.270170564,1,0,0,,0,339,339,408,1,
,,,,,,,,,,,,,,,,,,5db6b2e41218ef000b26851d,2020-08-10_15h25.54.217,lexical_decision_task_MP,2020.1.3,Linux armv8l,60,,0,-0.44652787,-0.322100371,1,0,0,0.7017,button_left,0.7017,1,,,,,,421,NW,"ID",33,knisma,KNISMA,z,,,,,,-0.44652787,-0.322100371,1,0,0,,0,340,340,240,1,
,,,,,,,,,,,,,,,,,,5db6b2e41218ef000b26851d,2020-08-10_15h25.54.217,lexical_decision_task_MP,2020.1.3,Linux armv8l,60,,0,-0.437263415,-0.270901949,1,0,0,0.8516,button_left,0.8516,1,,,,,,342,NW,UN,33,aimosy,RANDOW,z,,,,,,-0.437263415,-0.270901949,1,0,0,,0,341,341,401,1,
,,,,,,,,,,,,,,,,,,5db6b2e41218ef000b26851d,2020-08-10_15h25.54.217,lexical_decision_task_MP,2020.1.3,Linux armv8l,60,,0,-0.440866267,-0.257492954,1,0,0,0.6494,button_left,0.6494,1,,,,,,428,NW,"ID",33,tandly,TANDLY,z,,,,,,-0.440866267,-0.257492954,1,0,0,,0,342,342,247,1,
