counterbalancing_condition,instr_done_keyboard.keys,instr_done_keyboard.rt,instr_done_touch.x,instr_done_touch.y,instr_done_touch.leftButton,instr_done_touch.midButton,instr_done_touch.rightButton,instruction_pages.thisRepN,instruction_pages.thisTrialN,instruction_pages.thisN,instruction_pages.thisIndex,instruction_pages.ran,pageN,phase,instruct_text,has_image,instruct_image,participant,date,expName,psychopyVersion,OS,frameRate,response.keys,response.corr,touch_resp.x,touch_resp.y,touch_resp.leftButton,touch_resp.midButton,touch_resp.rightButton,touch_resp.time,touch_resp.clicked_name,rt,corr,practice_trials.thisRepN,practice_trials.thisTrialN,practice_trials.thisN,practice_trials.thisIndex,practice_trials.ran,TrialID,StimulusType,Condition,PrimeDuration,Prime,Target,corrAns,response.rt,end_of_practice_trials_pages.thisRepN,end_of_practice_trials_pages.thisTrialN,end_of_practice_trials_pages.thisN,end_of_practice_trials_pages.thisIndex,end_of_practice_trials_pages.ran,break_done_touch.x,break_done_touch.y,break_done_touch.leftButton,break_done_touch.midButton,break_done_touch.rightButton,break_done_keyboard.keys,trials.thisRepN,trials.thisTrialN,trials.thisN,trials.thisIndex,trials.ran,break_done_keyboard.rt
2,space,12.006,0.476388889,-0.127777778,0,0,0,0,0,0,0,1,1,instructions,"INSTRUCTIONS
At the start of each trial, look at the hash marks (######) in the center of the screen. After a moment, a string of letters will appear. Your task is to indicate if the letter string forms a word or not (i.e., if it is a nonword). For example, AUTHOR is a word while AUTHON is a nonword.

Press the space bar or touch the button below to continue.",0,,5dcf0e94fce60605794da411,2020-08-10_13h09.28.793,lexical_decision_task_MP,2020.1.3,Win32,60,,,,,,,,,,,,,,,,,,,,,,,,,,,,,,,,,,,,,,,,,
,space,12.194,0.480555556,-0.127777778,0,0,0,0,1,1,1,1,2,instructions,"If your device has a keyboard, press the 'Z' key for nonwords and the 'M' key for words.





Press the space bar or touch the button below to continue.",1,keyboard-example.gif,5dcf0e94fce60605794da411,2020-08-10_13h09.28.793,lexical_decision_task_MP,2020.1.3,Win32,60,,,,,,,,,,,,,,,,,,,,,,,,,,,,,,,,,,,,,,,,,
,space,5.486,0.480555556,-0.127777778,0,0,0,0,2,2,2,1,3,instructions,"If you are using a touchscreen only device, use the buttons on the screen. Do not use the mouse.





Press the space bar or touch the button below to continue.",1,touchscreen-example.gif,5dcf0e94fce60605794da411,2020-08-10_13h09.28.793,lexical_decision_task_MP,2020.1.3,Win32,60,,,,,,,,,,,,,,,,,,,,,,,,,,,,,,,,,,,,,,,,,
,space,6.861,0.480555556,-0.127777778,0,0,0,0,3,3,3,1,4,instructions,"It is very important that you respond as quickly and accurately as possible, as each letter string will only be on the screen for two seconds. If you do not respond within this time, the message 'Too slow!' will be displayed and the experiment will progress to the next letter string. The first 20 trials will be practice trials and you will receive feedback on your answers. 

Press the space bar or touch the button below to start the practice trials.",0,,5dcf0e94fce60605794da411,2020-08-10_13h09.28.793,lexical_decision_task_MP,2020.1.3,Win32,60,,,,,,,,,,,,,,,,,,,,,,,,,,,,,,,,,,,,,,,,,
,,,,,,,,,,,,,,,,,,5dcf0e94fce60605794da411,2020-08-10_13h09.28.793,lexical_decision_task_MP,2020.1.3,Win32,60,,0,,,,,,,,,-1,0,0,0,14,1,1015,NW,UN,50,miaber,THRALE,z,,,,,,,,,,,,,,,,,,
,,,,,,,,,,,,,,,,,,5dcf0e94fce60605794da411,2020-08-10_13h09.28.793,lexical_decision_task_MP,2020.1.3,Win32,60,,0,,,,,,,,,-1,0,1,1,7,1,1008,WORD,UN,50,hurdle,VOLUME,m,,,,,,,,,,,,,,,,,,
,,,,,,,,,,,,,,,,,,5dcf0e94fce60605794da411,2020-08-10_13h09.28.793,lexical_decision_task_MP,2020.1.3,Win32,60,m,1,,,,,,,,1.279,1,0,2,2,1,1,1002,WORD,"ID",33,adjust,ADJUST,m,1.279,,,,,,,,,,,,,,,,,
,,,,,,,,,,,,,,,,,,5dcf0e94fce60605794da411,2020-08-10_13h09.28.793,lexical_decision_task_MP,2020.1.3,Win32,60,z,1,,,,,,,,1.09,1,0,3,3,8,1,1009,NW,"ID",33,aslert,ASLERT,z,1.09,,,,,,,,,,,,,,,,,
,,,,,,,,,,,,,,,,,,5dcf0e94fce60605794da411,2020-08-10_13h09.28.793,lexical_decision_task_MP,2020.1.3,Win32,60,m,0,,,,,,,,0.941,0,0,4,4,12,1,1013,NW,UN,33,adveil,SPRINY,z,0.941,,,,,,,,,,,,,,,,,
,,,,,,,,,,,,,,,,,,5dcf0e94fce60605794da411,2020-08-10_13h09.28.793,lexical_decision_task_MP,2020.1.3,Win32,60,,0,,,,,,,,0.941,-1,0,5,5,6,1,1007,WORD,UN,50,tropic,ZOMBIE,m,,,,,,,,,,,,,,,,,,
,,,,,,,,,,,,,,,,,,5dcf0e94fce60605794da411,2020-08-10_13h09.28.793,lexical_decision_task_MP,2020.1.3,Win32,60,m,1,,,,,,,,1.048,1,0,6,6,2,1,1003,WORD,"ID",50,almond,ALMOND,m,1.048,,,,,,,,,,,,,,,,,
,,,,,,,,,,,,,,,,,,5dcf0e94fce60605794da411,2020-08-10_13h09.28.793,lexical_decision_task_MP,2020.1.3,Win32,60,m,1,,,,,,,,0.851,1,0,7,7,3,1,1004,WORD,"ID",50,matrix,MATRIX,m,0.851,,,,,,,,,,,,,,,,,
,,,,,,,,,,,,,,,,,,5dcf0e94fce60605794da411,2020-08-10_13h09.28.793,lexical_decision_task_MP,2020.1.3,Win32,60,z,1,,,,,,,,1.018,1,0,8,8,13,1,1014,NW,UN,33,winfer,ROUPET,z,1.018,,,,,,,,,,,,,,,,,
,,,,,,,,,,,,,,,,,,5dcf0e94fce60605794da411,2020-08-10_13h09.28.793,lexical_decision_task_MP,2020.1.3,Win32,60,z,1,,,,,,,,0.892,1,0,9,9,15,1,1016,NW,UN,50,mushed,WHAISE,z,0.892,,,,,,,,,,,,,,,,,
,,,,,,,,,,,,,,,,,,5dcf0e94fce60605794da411,2020-08-10_13h09.28.793,lexical_decision_task_MP,2020.1.3,Win32,60,z,0,,,,,,,,1.017,0,0,10,10,5,1,1006,WORD,UN,33,frenzy,OBTAIN,m,1.017,,,,,,,,,,,,,,,,,
,,,,,,,,,,,,,,,,,,5dcf0e94fce60605794da411,2020-08-10_13h09.28.793,lexical_decision_task_MP,2020.1.3,Win32,60,z,1,,,,,,,,0.926,1,0,11,11,9,1,1010,NW,"ID",33,fariny,FARINY,z,0.926,,,,,,,,,,,,,,,,,
,,,,,,,,,,,,,,,,,,5dcf0e94fce60605794da411,2020-08-10_13h09.28.793,lexical_decision_task_MP,2020.1.3,Win32,60,m,0,,,,,,,,1.142,0,0,12,12,11,1,1012,NW,"ID",50,rashet,RASHET,z,1.142,,,,,,,,,,,,,,,,,
,,,,,,,,,,,,,,,,,,5dcf0e94fce60605794da411,2020-08-10_13h09.28.793,lexical_decision_task_MP,2020.1.3,Win32,60,z,1,,,,,,,,1.535,1,0,13,13,10,1,1011,NW,"ID",50,inlade,INLADE,z,1.535,,,,,,,,,,,,,,,,,
,,,,,,,,,,,,,,,,,,5dcf0e94fce60605794da411,2020-08-10_13h09.28.793,lexical_decision_task_MP,2020.1.3,Win32,60,m,1,,,,,,,,1.154,1,0,14,14,0,1,1001,WORD,"ID",33,utopia,UTOPIA,m,1.154,,,,,,,,,,,,,,,,,
,,,,,,,,,,,,,,,,,,5dcf0e94fce60605794da411,2020-08-10_13h09.28.793,lexical_decision_task_MP,2020.1.3,Win32,60,m,1,,,,,,,,1.062,1,0,15,15,4,1,1005,WORD,UN,33,abound,SQUEAK,m,1.062,,,,,,,,,,,,,,,,,
,space,6.373,0.480555556,-0.127777778,0,0,0,,,,,,1,end_of_practice,"You have completed the practice trials. During the experimental trials, you will not receive feedback, but it is very important that you respond as quickly and accurately as possible. 
Before you begin, please ensure that you are in a comfortable and quiet location and will not be disturbed for about 15 minutes, as we cannot use your data if you do not complete all the trials. 
There will be opportunities to take breaks at regular intervals during the experiment. When you are ready to start the experimental trials, please press space or touch the button below.",,,5dcf0e94fce60605794da411,2020-08-10_13h09.28.793,lexical_decision_task_MP,2020.1.3,Win32,60,,,,,,,,,,,,,,,,,,,,,,,,,0,0,0,0,1,,,,,,,,,,,,
,,,,,,,,,,,,,,,,,,5dcf0e94fce60605794da411,2020-08-10_13h09.28.793,lexical_decision_task_MP,2020.1.3,Win32,60,z,1,,,,,,,,1.524,1,,,,,,372,NW,"ID",50,ramily,RAMILY,z,1.524,,,,,,0.480555556,-0.127777778,0,0,0,,0,0,0,311,1,
,,,,,,,,,,,,,,,,,,5dcf0e94fce60605794da411,2020-08-10_13h09.28.793,lexical_decision_task_MP,2020.1.3,Win32,60,m,1,,,,,,,,0.885,1,,,,,,19,WORD,UN,50,breast,PATRON,m,0.885,,,,,,0.480555556,-0.127777778,0,0,0,,0,1,1,198,1,
,,,,,,,,,,,,,,,,,,5dcf0e94fce60605794da411,2020-08-10_13h09.28.793,lexical_decision_task_MP,2020.1.3,Win32,60,z,1,,,,,,,,1.218,1,,,,,,431,NW,UN,33,lunker,CHRUMS,z,1.218,,,,,,0.480555556,-0.127777778,0,0,0,,0,2,2,370,1,
,,,,,,,,,,,,,,,,,,5dcf0e94fce60605794da411,2020-08-10_13h09.28.793,lexical_decision_task_MP,2020.1.3,Win32,60,z,1,,,,,,,,0.934,1,,,,,,257,NW,UN,50,poluth,VENIOD,z,0.934,,,,,,0.480555556,-0.127777778,0,0,0,,0,3,3,436,1,
,,,,,,,,,,,,,,,,,,5dcf0e94fce60605794da411,2020-08-10_13h09.28.793,lexical_decision_task_MP,2020.1.3,Win32,60,m,1,,,,,,,,0.901,1,,,,,,177,WORD,"ID",50,advent,ADVENT,m,0.901,,,,,,0.480555556,-0.127777778,0,0,0,,0,4,4,116,1,
,,,,,,,,,,,,,,,,,,5dcf0e94fce60605794da411,2020-08-10_13h09.28.793,lexical_decision_task_MP,2020.1.3,Win32,60,m,1,,,,,,,,0.783,1,,,,,,67,WORD,"ID",33,policy,POLICY,m,0.783,,,,,,0.480555556,-0.127777778,0,0,0,,0,5,5,6,1,
,,,,,,,,,,,,,,,,,,5dcf0e94fce60605794da411,2020-08-10_13h09.28.793,lexical_decision_task_MP,2020.1.3,Win32,60,z,1,,,,,,,,0.987,1,,,,,,443,NW,UN,33,jaunce,DORSEX,z,0.987,,,,,,0.480555556,-0.127777778,0,0,0,,0,6,6,382,1,
,,,,,,,,,,,,,,,,,,5dcf0e94fce60605794da411,2020-08-10_13h09.28.793,lexical_decision_task_MP,2020.1.3,Win32,60,m,1,,,,,,,,1.029,1,,,,,,9,WORD,UN,50,bridge,HUSTLE,m,1.029,,,,,,0.480555556,-0.127777778,0,0,0,,0,7,7,188,1,
,,,,,,,,,,,,,,,,,,5dcf0e94fce60605794da411,2020-08-10_13h09.28.793,lexical_decision_task_MP,2020.1.3,Win32,60,z,1,,,,,,,,0.852,1,,,,,,442,NW,UN,33,dorsex,ABOUNE,z,0.852,,,,,,0.480555556,-0.127777778,0,0,0,,0,8,8,381,1,
,,,,,,,,,,,,,,,,,,5dcf0e94fce60605794da411,2020-08-10_13h09.28.793,lexical_decision_task_MP,2020.1.3,Win32,60,m,1,,,,,,,,0.924,1,,,,,,228,WORD,UN,33,kidney,MASTER,m,0.924,,,,,,0.480555556,-0.127777778,0,0,0,,0,9,9,167,1,
,,,,,,,,,,,,,,,,,,5dcf0e94fce60605794da411,2020-08-10_13h09.28.793,lexical_decision_task_MP,2020.1.3,Win32,60,z,1,,,,,,,,0.82,1,,,,,,362,NW,"ID",50,tireau,TIREAU,z,0.82,,,,,,0.480555556,-0.127777778,0,0,0,,0,10,10,301,1,
,,,,,,,,,,,,,,,,,,5dcf0e94fce60605794da411,2020-08-10_13h09.28.793,lexical_decision_task_MP,2020.1.3,Win32,60,z,1,,,,,,,,0.747,1,,,,,,352,NW,"ID",33,tringe,TRINGE,z,0.747,,,,,,0.480555556,-0.127777778,0,0,0,,0,11,11,291,1,
,,,,,,,,,,,,,,,,,,5dcf0e94fce60605794da411,2020-08-10_13h09.28.793,lexical_decision_task_MP,2020.1.3,Win32,60,z,1,,,,,,,,0.769,1,,,,,,351,NW,"ID",33,tiesch,TIESCH,z,0.769,,,,,,0.480555556,-0.127777778,0,0,0,,0,12,12,290,1,
,,,,,,,,,,,,,,,,,,5dcf0e94fce60605794da411,2020-08-10_13h09.28.793,lexical_decision_task_MP,2020.1.3,Win32,60,m,1,,,,,,,,0.792,1,,,,,,142,WORD,"ID",50,spruce,SPRUCE,m,0.792,,,,,,0.480555556,-0.127777778,0,0,0,,0,13,13,81,1,
,,,,,,,,,,,,,,,,,,5dcf0e94fce60605794da411,2020-08-10_13h09.28.793,lexical_decision_task_MP,2020.1.3,Win32,60,z,1,,,,,,,,0.818,1,,,,,,451,NW,UN,33,surden,CAINKY,z,0.818,,,,,,0.480555556,-0.127777778,0,0,0,,0,14,14,390,1,
,,,,,,,,,,,,,,,,,,5dcf0e94fce60605794da411,2020-08-10_13h09.28.793,lexical_decision_task_MP,2020.1.3,Win32,60,m,1,,,,,,,,0.812,1,,,,,,27,WORD,UN,50,comedy,SCREAM,m,0.812,,,,,,0.480555556,-0.127777778,0,0,0,,0,15,15,206,1,
,,,,,,,,,,,,,,,,,,5dcf0e94fce60605794da411,2020-08-10_13h09.28.793,lexical_decision_task_MP,2020.1.3,Win32,60,z,1,,,,,,,,0.776,1,,,,,,378,NW,"ID",50,shrile,SHRILE,z,0.776,,,,,,0.480555556,-0.127777778,0,0,0,,0,16,16,317,1,
,,,,,,,,,,,,,,,,,,5dcf0e94fce60605794da411,2020-08-10_13h09.28.793,lexical_decision_task_MP,2020.1.3,Win32,60,m,1,,,,,,,,0.869,1,,,,,,152,WORD,"ID",50,rocket,ROCKET,m,0.869,,,,,,0.480555556,-0.127777778,0,0,0,,0,17,17,91,1,
,,,,,,,,,,,,,,,,,,5dcf0e94fce60605794da411,2020-08-10_13h09.28.793,lexical_decision_task_MP,2020.1.3,Win32,60,z,1,,,,,,,,0.868,1,,,,,,308,NW,"ID",33,psetch,PSETCH,z,0.868,,,,,,0.480555556,-0.127777778,0,0,0,,0,18,18,247,1,
,,,,,,,,,,,,,,,,,,5dcf0e94fce60605794da411,2020-08-10_13h09.28.793,lexical_decision_task_MP,2020.1.3,Win32,60,m,1,,,,,,,,0.869,1,,,,,,65,WORD,"ID",33,symbol,SYMBOL,m,0.869,,,,,,0.480555556,-0.127777778,0,0,0,,0,19,19,4,1,
,,,,,,,,,,,,,,,,,,5dcf0e94fce60605794da411,2020-08-10_13h09.28.793,lexical_decision_task_MP,2020.1.3,Win32,60,m,1,,,,,,,,1.003,1,,,,,,82,WORD,"ID",33,stigma,STIGMA,m,1.003,,,,,,0.480555556,-0.127777778,0,0,0,,0,20,20,21,1,
,,,,,,,,,,,,,,,,,,5dcf0e94fce60605794da411,2020-08-10_13h09.28.793,lexical_decision_task_MP,2020.1.3,Win32,60,z,1,,,,,,,,0.748,1,,,,,,294,NW,UN,50,gleath,INHORT,z,0.748,,,,,,0.480555556,-0.127777778,0,0,0,,0,21,21,473,1,
,,,,,,,,,,,,,,,,,,5dcf0e94fce60605794da411,2020-08-10_13h09.28.793,lexical_decision_task_MP,2020.1.3,Win32,60,z,1,,,,,,,,0.885,1,,,,,,448,NW,UN,33,brunge,SADENT,z,0.885,,,,,,0.480555556,-0.127777778,0,0,0,,0,22,22,387,1,
,,,,,,,,,,,,,,,,,,5dcf0e94fce60605794da411,2020-08-10_13h09.28.793,lexical_decision_task_MP,2020.1.3,Win32,60,m,0,,,,,,,,0.777,0,,,,,,319,NW,"ID",33,zomber,ZOMBER,z,0.777,,,,,,0.480555556,-0.127777778,0,0,0,,0,23,23,258,1,
,,,,,,,,,,,,,,,,,,5dcf0e94fce60605794da411,2020-08-10_13h09.28.793,lexical_decision_task_MP,2020.1.3,Win32,60,m,1,,,,,,,,1.35,1,,,,,,237,WORD,UN,33,glance,POSTER,m,1.35,,,,,,0.480555556,-0.127777778,0,0,0,,0,24,24,176,1,
,,,,,,,,,,,,,,,,,,5dcf0e94fce60605794da411,2020-08-10_13h09.28.793,lexical_decision_task_MP,2020.1.3,Win32,60,m,1,,,,,,,,0.958,1,,,,,,84,WORD,"ID",33,mortal,MORTAL,m,0.958,,,,,,0.480555556,-0.127777778,0,0,0,,0,25,25,23,1,
,,,,,,,,,,,,,,,,,,5dcf0e94fce60605794da411,2020-08-10_13h09.28.793,lexical_decision_task_MP,2020.1.3,Win32,60,z,1,,,,,,,,0.752,1,,,,,,379,NW,"ID",50,auting,AUTING,z,0.752,,,,,,0.480555556,-0.127777778,0,0,0,,0,26,26,318,1,
,,,,,,,,,,,,,,,,,,5dcf0e94fce60605794da411,2020-08-10_13h09.28.793,lexical_decision_task_MP,2020.1.3,Win32,60,z,1,,,,,,,,0.787,1,,,,,,295,NW,UN,50,beinch,GLEATH,z,0.787,,,,,,0.480555556,-0.127777778,0,0,0,,0,27,27,474,1,
,,,,,,,,,,,,,,,,,,5dcf0e94fce60605794da411,2020-08-10_13h09.28.793,lexical_decision_task_MP,2020.1.3,Win32,60,z,1,,,,,,,,0.792,1,,,,,,282,NW,UN,50,veralf,PORLEX,z,0.792,,,,,,0.480555556,-0.127777778,0,0,0,,0,28,28,461,1,
,,,,,,,,,,,,,,,,,,5dcf0e94fce60605794da411,2020-08-10_13h09.28.793,lexical_decision_task_MP,2020.1.3,Win32,60,z,0,,,,,,,,0.825,0,,,,,,66,WORD,"ID",33,gospel,GOSPEL,m,0.825,,,,,,0.480555556,-0.127777778,0,0,0,,0,29,29,5,1,
,,,,,,,,,,,,,,,,,,5dcf0e94fce60605794da411,2020-08-10_13h09.28.793,lexical_decision_task_MP,2020.1.3,Win32,60,z,1,,,,,,,,0.74,1,,,,,,247,NW,UN,50,strole,BLARGE,z,0.74,,,,,,0.480555556,-0.127777778,0,0,0,,0,30,30,426,1,
,,,,,,,,,,,,,,,,,,5dcf0e94fce60605794da411,2020-08-10_13h09.28.793,lexical_decision_task_MP,2020.1.3,Win32,60,m,1,,,,,,,,0.764,1,,,,,,105,WORD,"ID",33,number,NUMBER,m,0.764,,,,,,0.480555556,-0.127777778,0,0,0,,0,31,31,44,1,
,,,,,,,,,,,,,,,,,,5dcf0e94fce60605794da411,2020-08-10_13h09.28.793,lexical_decision_task_MP,2020.1.3,Win32,60,z,1,,,,,,,,0.759,1,,,,,,380,NW,"ID",50,cavory,CAVORY,z,0.759,,,,,,0.480555556,-0.127777778,0,0,0,,0,32,32,319,1,
,,,,,,,,,,,,,,,,,,5dcf0e94fce60605794da411,2020-08-10_13h09.28.793,lexical_decision_task_MP,2020.1.3,Win32,60,m,1,,,,,,,,0.789,1,,,,,,140,WORD,"ID",50,prince,PRINCE,m,0.789,,,,,,0.480555556,-0.127777778,0,0,0,,0,33,33,79,1,
,,,,,,,,,,,,,,,,,,5dcf0e94fce60605794da411,2020-08-10_13h09.28.793,lexical_decision_task_MP,2020.1.3,Win32,60,m,1,,,,,,,,0.961,1,,,,,,240,WORD,UN,33,seldom,FOREST,m,0.961,,,,,,0.480555556,-0.127777778,0,0,0,,0,34,34,179,1,
,,,,,,,,,,,,,,,,,,5dcf0e94fce60605794da411,2020-08-10_13h09.28.793,lexical_decision_task_MP,2020.1.3,Win32,60,m,1,,,,,,,,0.749,1,,,,,,56,WORD,UN,50,change,AMBUSH,m,0.749,,,,,,0.480555556,-0.127777778,0,0,0,,0,35,35,235,1,
,,,,,,,,,,,,,,,,,,5dcf0e94fce60605794da411,2020-08-10_13h09.28.793,lexical_decision_task_MP,2020.1.3,Win32,60,z,1,,,,,,,,0.805,1,,,,,,452,NW,UN,33,bolvis,SURDEN,z,0.805,,,,,,0.480555556,-0.127777778,0,0,0,,0,36,36,391,1,
,,,,,,,,,,,,,,,,,,5dcf0e94fce60605794da411,2020-08-10_13h09.28.793,lexical_decision_task_MP,2020.1.3,Win32,60,m,0,,,,,,,,0.819,0,,,,,,409,NW,"ID",50,elopia,ELOPIA,z,0.819,,,,,,0.480555556,-0.127777778,0,0,0,,0,37,37,348,1,
,,,,,,,,,,,,,,,,,,5dcf0e94fce60605794da411,2020-08-10_13h09.28.793,lexical_decision_task_MP,2020.1.3,Win32,60,z,1,,,,,,,,1.32,1,,,,,,293,NW,UN,50,inhort,SWANCE,z,1.32,,,,,,0.480555556,-0.127777778,0,0,0,,0,38,38,472,1,
,,,,,,,,,,,,,,,,,,5dcf0e94fce60605794da411,2020-08-10_13h09.28.793,lexical_decision_task_MP,2020.1.3,Win32,60,m,1,,,,,,,,0.784,1,,,,,,78,WORD,"ID",33,column,COLUMN,m,0.784,,,,,,0.480555556,-0.127777778,0,0,0,,0,39,39,17,1,
,,,,,,,,,,,,,,,,,,5dcf0e94fce60605794da411,2020-08-10_13h09.28.793,lexical_decision_task_MP,2020.1.3,Win32,60,z,1,,,,,,,,0.812,1,,,,,,349,NW,"ID",33,asylen,ASYLEN,z,0.812,,,,,,0.480555556,-0.127777778,0,0,0,,0,40,40,288,1,
,,,,,,,,,,,,,,,,,,5dcf0e94fce60605794da411,2020-08-10_13h09.28.793,lexical_decision_task_MP,2020.1.3,Win32,60,z,1,,,,,,,,0.852,1,,,,,,366,NW,"ID",50,toshel,TOSHEL,z,0.852,,,,,,0.480555556,-0.127777778,0,0,0,,0,41,41,305,1,
,,,,,,,,,,,,,,,,,,5dcf0e94fce60605794da411,2020-08-10_13h09.28.793,lexical_decision_task_MP,2020.1.3,Win32,60,z,1,,,,,,,,0.885,1,,,,,,274,NW,UN,50,sleirt,FUMBLO,z,0.885,,,,,,0.480555556,-0.127777778,0,0,0,,0,42,42,453,1,
,,,,,,,,,,,,,,,,,,5dcf0e94fce60605794da411,2020-08-10_13h09.28.793,lexical_decision_task_MP,2020.1.3,Win32,60,z,1,,,,,,,,0.768,1,,,,,,286,NW,UN,50,nymbel,RELDON,z,0.768,,,,,,0.480555556,-0.127777778,0,0,0,,0,43,43,465,1,
,,,,,,,,,,,,,,,,,,5dcf0e94fce60605794da411,2020-08-10_13h09.28.793,lexical_decision_task_MP,2020.1.3,Win32,60,z,1,,,,,,,,0.742,1,,,,,,302,NW,"ID",33,miluer,MILUER,z,0.742,,,,,,0.480555556,-0.127777778,0,0,0,,0,44,44,241,1,
,,,,,,,,,,,,,,,,,,5dcf0e94fce60605794da411,2020-08-10_13h09.28.793,lexical_decision_task_MP,2020.1.3,Win32,60,z,1,,,,,,,,0.722,1,,,,,,383,NW,"ID",50,aungre,AUNGRE,z,0.722,,,,,,0.480555556,-0.127777778,0,0,0,,0,45,45,322,1,
,,,,,,,,,,,,,,,,,,5dcf0e94fce60605794da411,2020-08-10_13h09.28.793,lexical_decision_task_MP,2020.1.3,Win32,60,m,1,,,,,,,,0.914,1,,,,,,17,WORD,UN,50,humble,CHARGE,m,0.914,,,,,,0.480555556,-0.127777778,0,0,0,,0,46,46,196,1,
,,,,,,,,,,,,,,,,,,5dcf0e94fce60605794da411,2020-08-10_13h09.28.793,lexical_decision_task_MP,2020.1.3,Win32,60,z,1,,,,,,,,0.702,1,,,,,,480,NW,UN,33,knisma,ROBULY,z,0.702,,,,,,0.480555556,-0.127777778,0,0,0,,0,47,47,419,1,
,,,,,,,,,,,,,,,,,,5dcf0e94fce60605794da411,2020-08-10_13h09.28.793,lexical_decision_task_MP,2020.1.3,Win32,60,m,1,,,,,,,,0.79,1,,,,,,135,WORD,"ID",50,import,IMPORT,m,0.79,,,,,,0.480555556,-0.127777778,0,0,0,,0,48,48,74,1,
,,,,,,,,,,,,,,,,,,5dcf0e94fce60605794da411,2020-08-10_13h09.28.793,lexical_decision_task_MP,2020.1.3,Win32,60,z,1,,,,,,,,0.702,1,,,,,,354,NW,"ID",33,virlex,VIRLEX,z,0.702,,,,,,0.480555556,-0.127777778,0,0,0,,0,49,49,293,1,
,,,,,,,,,,,,,,,,,,5dcf0e94fce60605794da411,2020-08-10_13h09.28.793,lexical_decision_task_MP,2020.1.3,Win32,60,z,1,,,,,,,,0.848,1,,,,,,350,NW,"ID",33,nagurs,NAGURS,z,0.848,,,,,,0.480555556,-0.127777778,0,0,0,,0,50,50,289,1,
,,,,,,,,,,,,,,,,,,5dcf0e94fce60605794da411,2020-08-10_13h09.28.793,lexical_decision_task_MP,2020.1.3,Win32,60,z,1,,,,,,,,0.753,1,,,,,,330,NW,"ID",33,kensom,KENSOM,z,0.753,,,,,,0.480555556,-0.127777778,0,0,0,,0,51,51,269,1,
,,,,,,,,,,,,,,,,,,5dcf0e94fce60605794da411,2020-08-10_13h09.28.793,lexical_decision_task_MP,2020.1.3,Win32,60,z,1,,,,,,,,0.728,1,,,,,,256,NW,UN,50,veniod,INLORS,z,0.728,,,,,,0.480555556,-0.127777778,0,0,0,,0,52,52,435,1,
,,,,,,,,,,,,,,,,,,5dcf0e94fce60605794da411,2020-08-10_13h09.28.793,lexical_decision_task_MP,2020.1.3,Win32,60,z,1,,,,,,,,0.746,1,,,,,,248,NW,UN,50,batrol,STROLE,z,0.746,,,,,,0.480555556,-0.127777778,0,0,0,,0,53,53,427,1,
,,,,,,,,,,,,,,,,,,5dcf0e94fce60605794da411,2020-08-10_13h09.28.793,lexical_decision_task_MP,2020.1.3,Win32,60,m,1,,,,,,,,0.675,1,,,,,,53,WORD,UN,50,ramble,POLICE,m,0.675,,,,,,0.480555556,-0.127777778,0,0,0,,0,54,54,232,1,
,,,,,,,,,,,,,,,,,,5dcf0e94fce60605794da411,2020-08-10_13h09.28.793,lexical_decision_task_MP,2020.1.3,Win32,60,z,1,,,,,,,,0.735,1,,,,,,468,NW,UN,33,padifs,WICTOR,z,0.735,,,,,,0.480555556,-0.127777778,0,0,0,,0,55,55,407,1,
,,,,,,,,,,,,,,,,,,5dcf0e94fce60605794da411,2020-08-10_13h09.28.793,lexical_decision_task_MP,2020.1.3,Win32,60,m,1,,,,,,,,0.681,1,,,,,,127,WORD,"ID",50,castle,CASTLE,m,0.681,,,,,,0.480555556,-0.127777778,0,0,0,,0,56,56,66,1,
,,,,,,,,,,,,,,,,,,5dcf0e94fce60605794da411,2020-08-10_13h09.28.793,lexical_decision_task_MP,2020.1.3,Win32,60,m,1,,,,,,,,0.793,1,,,,,,23,WORD,UN,50,praise,WEALTH,m,0.793,,,,,,0.480555556,-0.127777778,0,0,0,,0,57,57,202,1,
,,,,,,,,,,,,,,,,,,5dcf0e94fce60605794da411,2020-08-10_13h09.28.793,lexical_decision_task_MP,2020.1.3,Win32,60,m,1,,,,,,,,0.739,1,,,,,,41,WORD,UN,50,chapel,SPRING,m,0.739,,,,,,0.480555556,-0.127777778,0,0,0,,0,58,58,220,1,
,,,,,,,,,,,,,,,,,,5dcf0e94fce60605794da411,2020-08-10_13h09.28.793,lexical_decision_task_MP,2020.1.3,Win32,60,m,1,,,,,,,,0.67,1,,,,,,173,WORD,"ID",50,shower,SHOWER,m,0.67,,,,,,0.480555556,-0.127777778,0,0,0,,0,59,59,112,1,
,,,,,,,,,,,,,,,,,,5dcf0e94fce60605794da411,2020-08-10_13h09.28.793,lexical_decision_task_MP,2020.1.3,Win32,60,z,0,,,,,,,,0.684,0,,,,,,215,WORD,UN,33,lumber,PHOBIA,m,0.684,,,,,,0.480555556,-0.127777778,0,0,0,,0,60,60,154,1,
,,,,,,,,,,,,,,,,,,5dcf0e94fce60605794da411,2020-08-10_13h09.28.793,lexical_decision_task_MP,2020.1.3,Win32,60,m,1,,,,,,,,0.912,1,,,,,,69,WORD,"ID",33,plenty,PLENTY,m,0.912,,,,,,0.480555556,-0.127777778,0,0,0,,0,61,61,8,1,
,,,,,,,,,,,,,,,,,,5dcf0e94fce60605794da411,2020-08-10_13h09.28.793,lexical_decision_task_MP,2020.1.3,Win32,60,m,1,,,,,,,,0.785,1,,,,,,198,WORD,UN,33,invoke,WICKED,m,0.785,,,,,,0.480555556,-0.127777778,0,0,0,,0,62,62,137,1,
,,,,,,,,,,,,,,,,,,5dcf0e94fce60605794da411,2020-08-10_13h09.28.793,lexical_decision_task_MP,2020.1.3,Win32,60,z,1,,,,,,,,0.734,1,,,,,,475,NW,UN,33,josted,PEBRIC,z,0.734,,,,,,0.480555556,-0.127777778,0,0,0,,0,63,63,414,1,
,,,,,,,,,,,,,,,,,,5dcf0e94fce60605794da411,2020-08-10_13h09.28.793,lexical_decision_task_MP,2020.1.3,Win32,60,m,1,,,,,,,,0.909,1,,,,,,191,WORD,UN,33,beacon,STABLE,m,0.909,,,,,,0.480555556,-0.127777778,0,0,0,,0,64,64,130,1,
,,,,,,,,,,,,,,,,,,5dcf0e94fce60605794da411,2020-08-10_13h09.28.793,lexical_decision_task_MP,2020.1.3,Win32,60,z,1,,,,,,,,0.789,1,,,,,,458,NW,UN,33,hocite,BARCET,z,0.789,,,,,,0.480555556,-0.127777778,0,0,0,,0,65,65,397,1,
,,,,,,,,,,,,,,,,,,5dcf0e94fce60605794da411,2020-08-10_13h09.28.793,lexical_decision_task_MP,2020.1.3,Win32,60,m,1,,,,,,,,0.822,1,,,,,,225,WORD,UN,33,casino,VULGAR,m,0.822,,,,,,0.480555556,-0.127777778,0,0,0,,0,66,66,164,1,
,,,,,,,,,,,,,,,,,,5dcf0e94fce60605794da411,2020-08-10_13h09.28.793,lexical_decision_task_MP,2020.1.3,Win32,60,m,1,,,,,,,,0.708,1,,,,,,61,WORD,"ID",33,ponder,PONDER,m,0.708,,,,,,0.480555556,-0.127777778,0,0,0,,0,67,67,0,1,
,,,,,,,,,,,,,,,,,,5dcf0e94fce60605794da411,2020-08-10_13h09.28.793,lexical_decision_task_MP,2020.1.3,Win32,60,z,1,,,,,,,,0.862,1,,,,,,460,NW,UN,33,justre,MINGAR,z,0.862,,,,,,0.480555556,-0.127777778,0,0,0,,0,68,68,399,1,
,,,,,,,,,,,,,,,,,,5dcf0e94fce60605794da411,2020-08-10_13h09.28.793,lexical_decision_task_MP,2020.1.3,Win32,60,m,1,,,,,,,,0.85,1,,,,,,50,WORD,UN,50,hungry,SNATCH,m,0.85,,,,,,0.480555556,-0.127777778,0,0,0,,0,69,69,229,1,
,,,,,,,,,,,,,,,,,,5dcf0e94fce60605794da411,2020-08-10_13h09.28.793,lexical_decision_task_MP,2020.1.3,Win32,60,m,1,,,,,,,,0.84,1,,,,,,221,WORD,UN,33,hinder,MASCOT,m,0.84,,,,,,0.480555556,-0.127777778,0,0,0,,0,70,70,160,1,
,,,,,,,,,,,,,,,,,,5dcf0e94fce60605794da411,2020-08-10_13h09.28.793,lexical_decision_task_MP,2020.1.3,Win32,60,m,1,,,,,,,,0.685,1,,,,,,72,WORD,"ID",33,bright,BRIGHT,m,0.685,,,,,,0.480555556,-0.127777778,0,0,0,,0,71,71,11,1,
,,,,,,,,,,,,,,,,,,5dcf0e94fce60605794da411,2020-08-10_13h09.28.793,lexical_decision_task_MP,2020.1.3,Win32,60,m,1,,,,,,,,0.863,1,,,,,,37,WORD,UN,50,powder,INSULT,m,0.863,,,,,,0.480555556,-0.127777778,0,0,0,,0,72,72,216,1,
,,,,,,,,,,,,,,,,,,5dcf0e94fce60605794da411,2020-08-10_13h09.28.793,lexical_decision_task_MP,2020.1.3,Win32,60,z,1,,,,,,,,0.879,1,,,,,,440,NW,UN,33,rastoe,SARIDE,z,0.879,,,,,,0.480555556,-0.127777778,0,0,0,,0,73,73,379,1,
,,,,,,,,,,,,,,,,,,5dcf0e94fce60605794da411,2020-08-10_13h09.28.793,lexical_decision_task_MP,2020.1.3,Win32,60,z,1,,,,,,,,0.795,1,,,,,,461,NW,UN,33,absult,JUSTRE,z,0.795,,,,,,0.480555556,-0.127777778,0,0,0,,0,74,74,400,1,
,,,,,,,,,,,,,,,,,,5dcf0e94fce60605794da411,2020-08-10_13h09.28.793,lexical_decision_task_MP,2020.1.3,Win32,60,m,1,,,,,,,,0.82,1,,,,,,129,WORD,"ID",50,marvel,MARVEL,m,0.82,,,,,,0.480555556,-0.127777778,0,0,0,,0,75,75,68,1,
,,,,,,,,,,,,,,,,,,5dcf0e94fce60605794da411,2020-08-10_13h09.28.793,lexical_decision_task_MP,2020.1.3,Win32,60,m,1,,,,,,,,0.783,1,,,,,,202,WORD,UN,33,phrase,FACTOR,m,0.783,,,,,,0.480555556,-0.127777778,0,0,0,,0,76,76,141,1,
,,,,,,,,,,,,,,,,,,5dcf0e94fce60605794da411,2020-08-10_13h09.28.793,lexical_decision_task_MP,2020.1.3,Win32,60,m,1,,,,,,,,0.692,1,,,,,,44,WORD,UN,50,clergy,DANGER,m,0.692,,,,,,0.480555556,-0.127777778,0,0,0,,0,77,77,223,1,
,,,,,,,,,,,,,,,,,,5dcf0e94fce60605794da411,2020-08-10_13h09.28.793,lexical_decision_task_MP,2020.1.3,Win32,60,z,1,,,,,,,,0.756,1,,,,,,436,NW,UN,33,snapel,FRUTAN,z,0.756,,,,,,0.480555556,-0.127777778,0,0,0,,0,78,78,375,1,
,,,,,,,,,,,,,,,,,,5dcf0e94fce60605794da411,2020-08-10_13h09.28.793,lexical_decision_task_MP,2020.1.3,Win32,60,m,1,,,,,,,,0.743,1,,,,,,111,WORD,"ID",33,induce,INDUCE,m,0.743,,,,,,0.480555556,-0.127777778,0,0,0,,0,79,79,50,1,
,,,,,,,,,,,,,,,,,,5dcf0e94fce60605794da411,2020-08-10_13h09.28.793,lexical_decision_task_MP,2020.1.3,Win32,60,m,1,,,,,,,,0.715,1,,,,,,101,WORD,"ID",33,wrench,WRENCH,m,0.715,,,,,,0.480555556,-0.127777778,0,0,0,,0,80,80,40,1,
,,,,,,,,,,,,,,,,,,5dcf0e94fce60605794da411,2020-08-10_13h09.28.793,lexical_decision_task_MP,2020.1.3,Win32,60,m,1,,,,,,,,0.667,1,,,,,,166,WORD,"ID",50,starch,STARCH,m,0.667,,,,,,0.480555556,-0.127777778,0,0,0,,0,81,81,105,1,
,,,,,,,,,,,,,,,,,,5dcf0e94fce60605794da411,2020-08-10_13h09.28.793,lexical_decision_task_MP,2020.1.3,Win32,60,m,1,,,,,,,,0.723,1,,,,,,31,WORD,UN,50,buckle,WEAPON,m,0.723,,,,,,0.480555556,-0.127777778,0,0,0,,0,82,82,210,1,
,,,,,,,,,,,,,,,,,,5dcf0e94fce60605794da411,2020-08-10_13h09.28.793,lexical_decision_task_MP,2020.1.3,Win32,60,z,1,,,,,,,,0.834,1,,,,,,429,NW,UN,33,caroey,FUNTLE,z,0.834,,,,,,0.480555556,-0.127777778,0,0,0,,0,83,83,368,1,
,,,,,,,,,,,,,,,,,,5dcf0e94fce60605794da411,2020-08-10_13h09.28.793,lexical_decision_task_MP,2020.1.3,Win32,60,z,1,,,,,,,,0.997,1,,,,,,464,NW,UN,33,whivex,CHAITE,z,0.997,,,,,,0.480555556,-0.127777778,0,0,0,,0,84,84,403,1,
,,,,,,,,,,,,,,,,,,5dcf0e94fce60605794da411,2020-08-10_13h09.28.793,lexical_decision_task_MP,2020.1.3,Win32,60,z,1,,,,,,,,1.434,1,,,,,,471,NW,UN,33,cigney,NOBEST,z,1.434,,,,,,0.480555556,-0.127777778,0,0,0,,0,85,85,410,1,
,,,,,,,,,,,,,,,,,,5dcf0e94fce60605794da411,2020-08-10_13h09.28.793,lexical_decision_task_MP,2020.1.3,Win32,60,z,1,,,,,,,,0.737,1,,,,,,242,NW,UN,50,musied,UNWERT,z,0.737,,,,,,0.480555556,-0.127777778,0,0,0,,0,86,86,421,1,
,,,,,,,,,,,,,,,,,,5dcf0e94fce60605794da411,2020-08-10_13h09.28.793,lexical_decision_task_MP,2020.1.3,Win32,60,m,1,,,,,,,,0.723,1,,,,,,227,WORD,UN,33,master,SELDOM,m,0.723,,,,,,0.480555556,-0.127777778,0,0,0,,0,87,87,166,1,
,,,,,,,,,,,,,,,,,,5dcf0e94fce60605794da411,2020-08-10_13h09.28.793,lexical_decision_task_MP,2020.1.3,Win32,60,m,1,,,,,,,,0.624,1,,,,,,88,WORD,"ID",33,hunger,HUNGER,m,0.624,,,,,,0.480555556,-0.127777778,0,0,0,,0,88,88,27,1,
,,,,,,,,,,,,,,,,,,5dcf0e94fce60605794da411,2020-08-10_13h09.28.793,lexical_decision_task_MP,2020.1.3,Win32,60,m,1,,,,,,,,0.7,1,,,,,,217,WORD,UN,33,shrink,LIQUOR,m,0.7,,,,,,0.480555556,-0.127777778,0,0,0,,0,89,89,156,1,
,,,,,,,,,,,,,,,,,,5dcf0e94fce60605794da411,2020-08-10_13h09.28.793,lexical_decision_task_MP,2020.1.3,Win32,60,m,1,,,,,,,,0.743,1,,,,,,59,WORD,UN,50,pencil,SPLINT,m,0.743,,,,,,0.480555556,-0.127777778,0,0,0,,0,90,90,238,1,
,,,,,,,,,,,,,,,,,,5dcf0e94fce60605794da411,2020-08-10_13h09.28.793,lexical_decision_task_MP,2020.1.3,Win32,60,m,1,,,,,,,,0.666,1,,,,,,180,WORD,"ID",50,silent,SILENT,m,0.666,,,,,,0.480555556,-0.127777778,0,0,0,,0,91,91,119,1,
,,,,,,,,,,,,,,,,,,5dcf0e94fce60605794da411,2020-08-10_13h09.28.793,lexical_decision_task_MP,2020.1.3,Win32,60,z,1,,,,,,,,0.797,1,,,,,,473,NW,UN,33,hablin,CRIBLE,z,0.797,,,,,,0.480555556,-0.127777778,0,0,0,,0,92,92,412,1,
,,,,,,,,,,,,,,,,,,5dcf0e94fce60605794da411,2020-08-10_13h09.28.793,lexical_decision_task_MP,2020.1.3,Win32,60,z,1,,,,,,,,0.835,1,,,,,,262,NW,UN,50,dolica,QUILEW,z,0.835,,,,,,0.480555556,-0.127777778,0,0,0,,0,93,93,441,1,
,,,,,,,,,,,,,,,,,,5dcf0e94fce60605794da411,2020-08-10_13h09.28.793,lexical_decision_task_MP,2020.1.3,Win32,60,m,1,,,,,,,,0.782,1,,,,,,220,WORD,UN,33,mascot,VOYAGE,m,0.782,,,,,,0.480555556,-0.127777778,0,0,0,,0,94,94,159,1,
,,,,,,,,,,,,,,,,,,5dcf0e94fce60605794da411,2020-08-10_13h09.28.793,lexical_decision_task_MP,2020.1.3,Win32,60,z,1,,,,,,,,0.762,1,,,,,,367,NW,"ID",50,slique,SLIQUE,z,0.762,,,,,,0.480555556,-0.127777778,0,0,0,,0,95,95,306,1,
,,,,,,,,,,,,,,,,,,5dcf0e94fce60605794da411,2020-08-10_13h09.28.793,lexical_decision_task_MP,2020.1.3,Win32,60,m,1,,,,,,,,0.744,1,,,,,,149,WORD,"ID",50,invade,INVADE,m,0.744,,,,,,0.480555556,-0.127777778,0,0,0,,0,96,96,88,1,
,,,,,,,,,,,,,,,,,,5dcf0e94fce60605794da411,2020-08-10_13h09.28.793,lexical_decision_task_MP,2020.1.3,Win32,60,m,1,,,,,,,,0.756,1,,,,,,188,WORD,UN,33,censor,SOCIAL,m,0.756,,,,,,0.480555556,-0.127777778,0,0,0,,0,97,97,127,1,
,,,,,,,,,,,,,,,,,,5dcf0e94fce60605794da411,2020-08-10_13h09.28.793,lexical_decision_task_MP,2020.1.3,Win32,60,z,1,,,,,,,,0.715,1,,,,,,470,NW,UN,33,nobest,CRUDIO,z,0.715,,,,,,0.480555556,-0.127777778,0,0,0,,0,98,98,409,1,
,,,,,,,,,,,,,,,,,,5dcf0e94fce60605794da411,2020-08-10_13h09.28.793,lexical_decision_task_MP,2020.1.3,Win32,60,m,1,,,,,,,,0.77,1,,,,,,3,WORD,UN,50,trench,KNIGHT,m,0.77,,,,,,0.480555556,-0.127777778,0,0,0,,0,99,99,182,1,
,,,,,,,,,,,,,,,,,,5dcf0e94fce60605794da411,2020-08-10_13h09.28.793,lexical_decision_task_MP,2020.1.3,Win32,60,m,1,,,,,,,,0.732,1,,,,,,71,WORD,"ID",33,garden,GARDEN,m,0.732,,,,,,0.480555556,-0.127777778,0,0,0,,0,100,100,10,1,
,,,,,,,,,,,,,,,,,,5dcf0e94fce60605794da411,2020-08-10_13h09.28.793,lexical_decision_task_MP,2020.1.3,Win32,60,m,1,,,,,,,,0.697,1,,,,,,7,WORD,UN,50,abrupt,ANCHOR,m,0.697,,,,,,0.480555556,-0.127777778,0,0,0,,0,101,101,186,1,
,,,,,,,,,,,,,,,,,,5dcf0e94fce60605794da411,2020-08-10_13h09.28.793,lexical_decision_task_MP,2020.1.3,Win32,60,z,1,,,,,,,,0.697,1,,,,,,273,NW,UN,50,fumblo,SORTEL,z,0.697,,,,,,0.480555556,-0.127777778,0,0,0,,0,102,102,452,1,
,,,,,,,,,,,,,,,,,,5dcf0e94fce60605794da411,2020-08-10_13h09.28.793,lexical_decision_task_MP,2020.1.3,Win32,60,m,0,,,,,,,,0.748,0,,,,,,287,NW,UN,50,yaceup,NYMBEL,z,0.748,,,,,,0.480555556,-0.127777778,0,0,0,,0,103,103,466,1,
,,,,,,,,,,,,,,,,,,5dcf0e94fce60605794da411,2020-08-10_13h09.28.793,lexical_decision_task_MP,2020.1.3,Win32,60,m,1,,,,,,,,0.887,1,,,,,,38,WORD,UN,50,insect,POWDER,m,0.887,,,,,,0.480555556,-0.127777778,0,0,0,,0,104,104,217,1,
,,,,,,,,,,,,,,,,,,5dcf0e94fce60605794da411,2020-08-10_13h09.28.793,lexical_decision_task_MP,2020.1.3,Win32,60,m,1,,,,,,,,0.738,1,,,,,,5,WORD,UN,50,bundle,PLUNGE,m,0.738,,,,,,0.480555556,-0.127777778,0,0,0,,0,105,105,184,1,
,,,,,,,,,,,,,,,,,,5dcf0e94fce60605794da411,2020-08-10_13h09.28.793,lexical_decision_task_MP,2020.1.3,Win32,60,m,1,,,,,,,,0.909,1,,,,,,199,WORD,UN,33,plague,INVOKE,m,0.909,,,,,,0.480555556,-0.127777778,0,0,0,,0,106,106,138,1,
,,,,,,,,,,,,,,,,,,5dcf0e94fce60605794da411,2020-08-10_13h09.28.793,lexical_decision_task_MP,2020.1.3,Win32,60,z,1,,,,,,,,0.869,1,,,,,,358,NW,"ID",33,fleack,FLEACK,z,0.869,,,,,,0.480555556,-0.127777778,0,0,0,,0,107,107,297,1,
,,,,,,,,,,,,,,,,,,5dcf0e94fce60605794da411,2020-08-10_13h09.28.793,lexical_decision_task_MP,2020.1.3,Win32,60,m,1,,,,,,,,0.698,1,,,,,,49,WORD,UN,50,snatch,SURVEY,m,0.698,,,,,,0.480555556,-0.127777778,0,0,0,,0,108,108,228,1,
,,,,,,,,,,,,,,,,,,5dcf0e94fce60605794da411,2020-08-10_13h09.28.793,lexical_decision_task_MP,2020.1.3,Win32,60,z,1,,,,,,,,0.752,1,,,,,,410,NW,"ID",50,tunory,TUNORY,z,0.752,,,,,,0.480555556,-0.127777778,0,0,0,,0,109,109,349,1,
,,,,,,,,,,,,,,,,,,5dcf0e94fce60605794da411,2020-08-10_13h09.28.793,lexical_decision_task_MP,2020.1.3,Win32,60,m,1,,,,,,,,0.719,1,,,,,,204,WORD,UN,33,lounge,BURDEN,m,0.719,,,,,,0.480555556,-0.127777778,0,0,0,,0,110,110,143,1,
,,,,,,,,,,,,,,,,,,5dcf0e94fce60605794da411,2020-08-10_13h09.28.793,lexical_decision_task_MP,2020.1.3,Win32,60,m,0,,,,,,,,0.785,0,,,,,,266,NW,UN,50,pasink,VARMIT,z,0.785,,,,,,0.480555556,-0.127777778,0,0,0,,0,111,111,445,1,
,,,,,,,,,,,,,,,,,,5dcf0e94fce60605794da411,2020-08-10_13h09.28.793,lexical_decision_task_MP,2020.1.3,Win32,60,z,1,,,,,,,,0.93,1,,,,,,357,NW,"ID",33,derain,DERAIN,z,0.93,,,,,,0.480555556,-0.127777778,0,0,0,,0,112,112,296,1,
,,,,,,,,,,,,,,,,,,5dcf0e94fce60605794da411,2020-08-10_13h09.28.793,lexical_decision_task_MP,2020.1.3,Win32,60,m,1,,,,,,,,0.796,1,,,,,,35,WORD,UN,50,vanish,SOCKET,m,0.796,,,,,,0.480555556,-0.127777778,0,0,0,,0,113,113,214,1,
,,,,,,,,,,,,,,,,,,5dcf0e94fce60605794da411,2020-08-10_13h09.28.793,lexical_decision_task_MP,2020.1.3,Win32,60,z,1,,,,,,,,0.705,1,,,,,,337,NW,"ID",33,rejols,REJOLS,z,0.705,,,,,,0.480555556,-0.127777778,0,0,0,,0,114,114,276,1,
,,,,,,,,,,,,,,,,,,5dcf0e94fce60605794da411,2020-08-10_13h09.28.793,lexical_decision_task_MP,2020.1.3,Win32,60,m,1,,,,,,,,0.688,1,,,,,,197,WORD,UN,33,wicked,STREAM,m,0.688,,,,,,0.480555556,-0.127777778,0,0,0,,0,115,115,136,1,
,,,,,,,,,,,,,,,,,,5dcf0e94fce60605794da411,2020-08-10_13h09.28.793,lexical_decision_task_MP,2020.1.3,Win32,60,z,1,,,,,,,,0.887,1,,,,,,476,NW,UN,33,photie,JOSTED,z,0.887,,,,,,0.480555556,-0.127777778,0,0,0,,0,116,116,415,1,
,,,,,,,,,,,,,,,,,,5dcf0e94fce60605794da411,2020-08-10_13h09.28.793,lexical_decision_task_MP,2020.1.3,Win32,60,m,0,,,,,,,,0.75,0,,,,,,329,NW,"ID",33,yarike,YARIKE,z,0.75,,,,,,0.480555556,-0.127777778,0,0,0,,0,117,117,268,1,
,,,,,,,,,,,,,,,,,,5dcf0e94fce60605794da411,2020-08-10_13h09.28.793,lexical_decision_task_MP,2020.1.3,Win32,60,z,1,,,,,,,,0.935,1,,,,,,388,NW,"ID",50,cragin,CRAGIN,z,0.935,,,,,,0.480555556,-0.127777778,0,0,0,,0,118,118,327,1,
,,,,,,,,,,,,,,,,,,5dcf0e94fce60605794da411,2020-08-10_13h09.28.793,lexical_decision_task_MP,2020.1.3,Win32,60,m,1,,,,,,,,0.77,1,,,,,,226,WORD,UN,33,flower,CASINO,m,0.77,,,,,,0.480555556,-0.127777778,0,0,0,,0,119,119,165,1,
,,,,,,,,,,,,,,,,,,5dcf0e94fce60605794da411,2020-08-10_13h09.28.793,lexical_decision_task_MP,2020.1.3,Win32,60,m,1,,,,,,,,1.009,1,,,,,,157,WORD,"ID",50,dragon,DRAGON,m,1.009,,,,,,0.480555556,-0.127777778,0,0,0,space,0,120,120,96,1,4.917
,,,,,,,,,,,,,,,,,,5dcf0e94fce60605794da411,2020-08-10_13h09.28.793,lexical_decision_task_MP,2020.1.3,Win32,60,m,1,,,,,,,,0.755,1,,,,,,117,WORD,"ID",33,branch,BRANCH,m,0.755,,,,,,0.480555556,-0.127777778,0,0,0,,0,121,121,56,1,
,,,,,,,,,,,,,,,,,,5dcf0e94fce60605794da411,2020-08-10_13h09.28.793,lexical_decision_task_MP,2020.1.3,Win32,60,z,1,,,,,,,,0.717,1,,,,,,407,NW,"ID",50,suiver,SUIVER,z,0.717,,,,,,0.480555556,-0.127777778,0,0,0,,0,122,122,346,1,
,,,,,,,,,,,,,,,,,,5dcf0e94fce60605794da411,2020-08-10_13h09.28.793,lexical_decision_task_MP,2020.1.3,Win32,60,z,1,,,,,,,,0.713,1,,,,,,340,NW,"ID",33,fiatch,FIATCH,z,0.713,,,,,,0.480555556,-0.127777778,0,0,0,,0,123,123,279,1,
,,,,,,,,,,,,,,,,,,5dcf0e94fce60605794da411,2020-08-10_13h09.28.793,lexical_decision_task_MP,2020.1.3,Win32,60,m,1,,,,,,,,1.04,1,,,,,,2,WORD,UN,50,knight,BRIDGE,m,1.04,,,,,,0.480555556,-0.127777778,0,0,0,,0,124,124,181,1,
,,,,,,,,,,,,,,,,,,5dcf0e94fce60605794da411,2020-08-10_13h09.28.793,lexical_decision_task_MP,2020.1.3,Win32,60,m,1,,,,,,,,0.756,1,,,,,,236,WORD,UN,33,grumpy,PIRATE,m,0.756,,,,,,0.480555556,-0.127777778,0,0,0,,0,125,125,175,1,
,,,,,,,,,,,,,,,,,,5dcf0e94fce60605794da411,2020-08-10_13h09.28.793,lexical_decision_task_MP,2020.1.3,Win32,60,z,1,,,,,,,,0.776,1,,,,,,457,NW,UN,33,barcet,WANIGH,z,0.776,,,,,,0.480555556,-0.127777778,0,0,0,,0,126,126,396,1,
,,,,,,,,,,,,,,,,,,5dcf0e94fce60605794da411,2020-08-10_13h09.28.793,lexical_decision_task_MP,2020.1.3,Win32,60,z,1,,,,,,,,0.947,1,,,,,,381,NW,"ID",50,huniek,HUNIEK,z,0.947,,,,,,0.480555556,-0.127777778,0,0,0,,0,127,127,320,1,
,,,,,,,,,,,,,,,,,,5dcf0e94fce60605794da411,2020-08-10_13h09.28.793,lexical_decision_task_MP,2020.1.3,Win32,60,z,1,,,,,,,,0.772,1,,,,,,296,NW,UN,50,fertic,BEINCH,z,0.772,,,,,,0.480555556,-0.127777778,0,0,0,,0,128,128,475,1,
,,,,,,,,,,,,,,,,,,5dcf0e94fce60605794da411,2020-08-10_13h09.28.793,lexical_decision_task_MP,2020.1.3,Win32,60,z,1,,,,,,,,0.719,1,,,,,,469,NW,UN,33,crudio,PADIFS,z,0.719,,,,,,0.480555556,-0.127777778,0,0,0,,0,129,129,408,1,
,,,,,,,,,,,,,,,,,,5dcf0e94fce60605794da411,2020-08-10_13h09.28.793,lexical_decision_task_MP,2020.1.3,Win32,60,m,1,,,,,,,,0.638,1,,,,,,85,WORD,"ID",33,sprawl,SPRAWL,m,0.638,,,,,,0.480555556,-0.127777778,0,0,0,,0,130,130,24,1,
,,,,,,,,,,,,,,,,,,5dcf0e94fce60605794da411,2020-08-10_13h09.28.793,lexical_decision_task_MP,2020.1.3,Win32,60,z,1,,,,,,,,0.999,1,,,,,,260,NW,UN,50,stunch,UNJECT,z,0.999,,,,,,0.480555556,-0.127777778,0,0,0,,0,131,131,439,1,
,,,,,,,,,,,,,,,,,,5dcf0e94fce60605794da411,2020-08-10_13h09.28.793,lexical_decision_task_MP,2020.1.3,Win32,60,m,1,,,,,,,,0.768,1,,,,,,21,WORD,UN,50,jockey,SIMPLE,m,0.768,,,,,,0.480555556,-0.127777778,0,0,0,,0,132,132,200,1,
,,,,,,,,,,,,,,,,,,5dcf0e94fce60605794da411,2020-08-10_13h09.28.793,lexical_decision_task_MP,2020.1.3,Win32,60,z,1,,,,,,,,0.665,1,,,,,,414,NW,"ID",50,serbol,SERBOL,z,0.665,,,,,,0.480555556,-0.127777778,0,0,0,,0,133,133,353,1,
,,,,,,,,,,,,,,,,,,5dcf0e94fce60605794da411,2020-08-10_13h09.28.793,lexical_decision_task_MP,2020.1.3,Win32,60,z,1,,,,,,,,0.842,1,,,,,,376,NW,"ID",50,iguare,IGUARE,z,0.842,,,,,,0.480555556,-0.127777778,0,0,0,,0,134,134,315,1,
,,,,,,,,,,,,,,,,,,5dcf0e94fce60605794da411,2020-08-10_13h09.28.793,lexical_decision_task_MP,2020.1.3,Win32,60,m,1,,,,,,,,0.648,1,,,,,,93,WORD,"ID",33,public,PUBLIC,m,0.648,,,,,,0.480555556,-0.127777778,0,0,0,,0,135,135,32,1,
,,,,,,,,,,,,,,,,,,5dcf0e94fce60605794da411,2020-08-10_13h09.28.793,lexical_decision_task_MP,2020.1.3,Win32,60,m,1,,,,,,,,0.751,1,,,,,,97,WORD,"ID",33,client,CLIENT,m,0.751,,,,,,0.480555556,-0.127777778,0,0,0,,0,136,136,36,1,
,,,,,,,,,,,,,,,,,,5dcf0e94fce60605794da411,2020-08-10_13h09.28.793,lexical_decision_task_MP,2020.1.3,Win32,60,m,1,,,,,,,,0.68,1,,,,,,158,WORD,"ID",50,island,ISLAND,m,0.68,,,,,,0.480555556,-0.127777778,0,0,0,,0,137,137,97,1,
,,,,,,,,,,,,,,,,,,5dcf0e94fce60605794da411,2020-08-10_13h09.28.793,lexical_decision_task_MP,2020.1.3,Win32,60,m,1,,,,,,,,0.659,1,,,,,,200,WORD,UN,33,admire,BEACON,m,0.659,,,,,,0.480555556,-0.127777778,0,0,0,,0,138,138,139,1,
,,,,,,,,,,,,,,,,,,5dcf0e94fce60605794da411,2020-08-10_13h09.28.793,lexical_decision_task_MP,2020.1.3,Win32,60,m,1,,,,,,,,0.742,1,,,,,,171,WORD,"ID",50,depart,DEPART,m,0.742,,,,,,0.480555556,-0.127777778,0,0,0,,0,139,139,110,1,
,,,,,,,,,,,,,,,,,,5dcf0e94fce60605794da411,2020-08-10_13h09.28.793,lexical_decision_task_MP,2020.1.3,Win32,60,m,1,,,,,,,,0.709,1,,,,,,154,WORD,"ID",50,author,AUTHOR,m,0.709,,,,,,0.480555556,-0.127777778,0,0,0,,0,140,140,93,1,
,,,,,,,,,,,,,,,,,,5dcf0e94fce60605794da411,2020-08-10_13h09.28.793,lexical_decision_task_MP,2020.1.3,Win32,60,z,1,,,,,,,,0.813,1,,,,,,422,NW,UN,33,streld,ALCOUD,z,0.813,,,,,,0.480555556,-0.127777778,0,0,0,,0,141,141,361,1,
,,,,,,,,,,,,,,,,,,5dcf0e94fce60605794da411,2020-08-10_13h09.28.793,lexical_decision_task_MP,2020.1.3,Win32,60,z,1,,,,,,,,0.929,1,,,,,,277,NW,UN,50,unighs,PETAIN,z,0.929,,,,,,0.480555556,-0.127777778,0,0,0,,0,142,142,456,1,
,,,,,,,,,,,,,,,,,,5dcf0e94fce60605794da411,2020-08-10_13h09.28.793,lexical_decision_task_MP,2020.1.3,Win32,60,m,1,,,,,,,,0.723,1,,,,,,68,WORD,"ID",33,fumble,FUMBLE,m,0.723,,,,,,0.480555556,-0.127777778,0,0,0,,0,143,143,7,1,
,,,,,,,,,,,,,,,,,,5dcf0e94fce60605794da411,2020-08-10_13h09.28.793,lexical_decision_task_MP,2020.1.3,Win32,60,z,1,,,,,,,,0.605,1,,,,,,428,NW,UN,33,funtle,TANDLY,z,0.605,,,,,,0.480555556,-0.127777778,0,0,0,,0,144,144,367,1,
,,,,,,,,,,,,,,,,,,5dcf0e94fce60605794da411,2020-08-10_13h09.28.793,lexical_decision_task_MP,2020.1.3,Win32,60,m,1,,,,,,,,0.61,1,,,,,,128,WORD,"ID",50,senior,SENIOR,m,0.61,,,,,,0.480555556,-0.127777778,0,0,0,,0,145,145,67,1,
,,,,,,,,,,,,,,,,,,5dcf0e94fce60605794da411,2020-08-10_13h09.28.793,lexical_decision_task_MP,2020.1.3,Win32,60,z,1,,,,,,,,0.713,1,,,,,,479,NW,UN,33,crible,LOBUSH,z,0.713,,,,,,0.480555556,-0.127777778,0,0,0,,0,146,146,418,1,
,,,,,,,,,,,,,,,,,,5dcf0e94fce60605794da411,2020-08-10_13h09.28.793,lexical_decision_task_MP,2020.1.3,Win32,60,z,1,,,,,,,,0.699,1,,,,,,278,NW,UN,50,celond,UNIGHS,z,0.699,,,,,,0.480555556,-0.127777778,0,0,0,,0,147,147,457,1,
,,,,,,,,,,,,,,,,,,5dcf0e94fce60605794da411,2020-08-10_13h09.28.793,lexical_decision_task_MP,2020.1.3,Win32,60,m,1,,,,,,,,0.66,1,,,,,,121,WORD,"ID",50,thrive,THRIVE,m,0.66,,,,,,0.480555556,-0.127777778,0,0,0,,0,148,148,60,1,
,,,,,,,,,,,,,,,,,,5dcf0e94fce60605794da411,2020-08-10_13h09.28.793,lexical_decision_task_MP,2020.1.3,Win32,60,z,1,,,,,,,,0.666,1,,,,,,314,NW,"ID",33,sprine,SPRINE,z,0.666,,,,,,0.480555556,-0.127777778,0,0,0,,0,149,149,253,1,
,,,,,,,,,,,,,,,,,,5dcf0e94fce60605794da411,2020-08-10_13h09.28.793,lexical_decision_task_MP,2020.1.3,Win32,60,m,1,,,,,,,,0.662,1,,,,,,150,WORD,"ID",50,random,RANDOM,m,0.662,,,,,,0.480555556,-0.127777778,0,0,0,,0,150,150,89,1,
,,,,,,,,,,,,,,,,,,5dcf0e94fce60605794da411,2020-08-10_13h09.28.793,lexical_decision_task_MP,2020.1.3,Win32,60,z,1,,,,,,,,0.703,1,,,,,,395,NW,"ID",50,colury,COLURY,z,0.703,,,,,,0.480555556,-0.127777778,0,0,0,,0,151,151,334,1,
,,,,,,,,,,,,,,,,,,5dcf0e94fce60605794da411,2020-08-10_13h09.28.793,lexical_decision_task_MP,2020.1.3,Win32,60,m,0,,,,,,,,0.718,0,,,,,,370,NW,"ID",50,sleact,SLEACT,z,0.718,,,,,,0.480555556,-0.127777778,0,0,0,,0,152,152,309,1,
,,,,,,,,,,,,,,,,,,5dcf0e94fce60605794da411,2020-08-10_13h09.28.793,lexical_decision_task_MP,2020.1.3,Win32,60,z,1,,,,,,,,0.781,1,,,,,,312,NW,"ID",33,nerawl,NERAWL,z,0.781,,,,,,0.480555556,-0.127777778,0,0,0,,0,153,153,251,1,
,,,,,,,,,,,,,,,,,,5dcf0e94fce60605794da411,2020-08-10_13h09.28.793,lexical_decision_task_MP,2020.1.3,Win32,60,m,1,,,,,,,,0.692,1,,,,,,86,WORD,"ID",33,rodent,RODENT,m,0.692,,,,,,0.480555556,-0.127777778,0,0,0,,0,154,154,25,1,
,,,,,,,,,,,,,,,,,,5dcf0e94fce60605794da411,2020-08-10_13h09.28.793,lexical_decision_task_MP,2020.1.3,Win32,60,m,1,,,,,,,,0.699,1,,,,,,230,WORD,UN,33,mother,FRINGE,m,0.699,,,,,,0.480555556,-0.127777778,0,0,0,,0,155,155,169,1,
,,,,,,,,,,,,,,,,,,5dcf0e94fce60605794da411,2020-08-10_13h09.28.793,lexical_decision_task_MP,2020.1.3,Win32,60,m,1,,,,,,,,0.638,1,,,,,,138,WORD,"ID",50,melody,MELODY,m,0.638,,,,,,0.480555556,-0.127777778,0,0,0,,0,156,156,77,1,
,,,,,,,,,,,,,,,,,,5dcf0e94fce60605794da411,2020-08-10_13h09.28.793,lexical_decision_task_MP,2020.1.3,Win32,60,m,1,,,,,,,,0.902,1,,,,,,234,WORD,UN,33,poster,CLUMSY,m,0.902,,,,,,0.480555556,-0.127777778,0,0,0,,0,157,157,173,1,
,,,,,,,,,,,,,,,,,,5dcf0e94fce60605794da411,2020-08-10_13h09.28.793,lexical_decision_task_MP,2020.1.3,Win32,60,z,0,,,,,,,,0.759,0,,,,,,145,WORD,"ID",50,parish,PARISH,m,0.759,,,,,,0.480555556,-0.127777778,0,0,0,,0,158,158,84,1,
,,,,,,,,,,,,,,,,,,5dcf0e94fce60605794da411,2020-08-10_13h09.28.793,lexical_decision_task_MP,2020.1.3,Win32,60,z,1,,,,,,,,0.846,1,,,,,,426,NW,UN,33,schind,URIVEL,z,0.846,,,,,,0.480555556,-0.127777778,0,0,0,,0,159,159,365,1,
,,,,,,,,,,,,,,,,,,5dcf0e94fce60605794da411,2020-08-10_13h09.28.793,lexical_decision_task_MP,2020.1.3,Win32,60,z,1,,,,,,,,0.924,1,,,,,,249,NW,UN,50,milted,BATROL,z,0.924,,,,,,0.480555556,-0.127777778,0,0,0,,0,160,160,428,1,
,,,,,,,,,,,,,,,,,,5dcf0e94fce60605794da411,2020-08-10_13h09.28.793,lexical_decision_task_MP,2020.1.3,Win32,60,z,1,,,,,,,,0.764,1,,,,,,447,NW,UN,33,sadent,GIRCUE,z,0.764,,,,,,0.480555556,-0.127777778,0,0,0,,0,161,161,386,1,
,,,,,,,,,,,,,,,,,,5dcf0e94fce60605794da411,2020-08-10_13h09.28.793,lexical_decision_task_MP,2020.1.3,Win32,60,z,1,,,,,,,,0.786,1,,,,,,432,NW,UN,33,drance,LUNKER,z,0.786,,,,,,0.480555556,-0.127777778,0,0,0,,0,162,162,371,1,
,,,,,,,,,,,,,,,,,,5dcf0e94fce60605794da411,2020-08-10_13h09.28.793,lexical_decision_task_MP,2020.1.3,Win32,60,m,1,,,,,,,,0.568,1,,,,,,147,WORD,"ID",50,garlic,GARLIC,m,0.568,,,,,,0.480555556,-0.127777778,0,0,0,,0,163,163,86,1,
,,,,,,,,,,,,,,,,,,5dcf0e94fce60605794da411,2020-08-10_13h09.28.793,lexical_decision_task_MP,2020.1.3,Win32,60,m,1,,,,,,,,0.731,1,,,,,,206,WORD,UN,33,wreath,TAILOR,m,0.731,,,,,,0.480555556,-0.127777778,0,0,0,,0,164,164,145,1,
,,,,,,,,,,,,,,,,,,5dcf0e94fce60605794da411,2020-08-10_13h09.28.793,lexical_decision_task_MP,2020.1.3,Win32,60,z,1,,,,,,,,0.835,1,,,,,,307,NW,"ID",33,kirafe,KIRAFE,z,0.835,,,,,,0.480555556,-0.127777778,0,0,0,,0,165,165,246,1,
,,,,,,,,,,,,,,,,,,5dcf0e94fce60605794da411,2020-08-10_13h09.28.793,lexical_decision_task_MP,2020.1.3,Win32,60,z,1,,,,,,,,0.846,1,,,,,,416,NW,"ID",50,pathel,PATHEL,z,0.846,,,,,,0.480555556,-0.127777778,0,0,0,,0,166,166,355,1,
,,,,,,,,,,,,,,,,,,5dcf0e94fce60605794da411,2020-08-10_13h09.28.793,lexical_decision_task_MP,2020.1.3,Win32,60,m,1,,,,,,,,0.75,1,,,,,,90,WORD,"ID",33,relish,RELISH,m,0.75,,,,,,0.480555556,-0.127777778,0,0,0,,0,167,167,29,1,
,,,,,,,,,,,,,,,,,,5dcf0e94fce60605794da411,2020-08-10_13h09.28.793,lexical_decision_task_MP,2020.1.3,Win32,60,m,1,,,,,,,,0.74,1,,,,,,11,WORD,UN,50,amount,CRUISE,m,0.74,,,,,,0.480555556,-0.127777778,0,0,0,,0,168,168,190,1,
,,,,,,,,,,,,,,,,,,5dcf0e94fce60605794da411,2020-08-10_13h09.28.793,lexical_decision_task_MP,2020.1.3,Win32,60,z,1,,,,,,,,0.717,1,,,,,,397,NW,"ID",50,camble,CAMBLE,z,0.717,,,,,,0.480555556,-0.127777778,0,0,0,,0,169,169,336,1,
,,,,,,,,,,,,,,,,,,5dcf0e94fce60605794da411,2020-08-10_13h09.28.793,lexical_decision_task_MP,2020.1.3,Win32,60,m,1,,,,,,,,0.652,1,,,,,,218,WORD,UN,33,bucket,SHRINK,m,0.652,,,,,,0.480555556,-0.127777778,0,0,0,,0,170,170,157,1,
,,,,,,,,,,,,,,,,,,5dcf0e94fce60605794da411,2020-08-10_13h09.28.793,lexical_decision_task_MP,2020.1.3,Win32,60,m,1,,,,,,,,0.712,1,,,,,,235,WORD,UN,33,pirate,GRUMPY,m,0.712,,,,,,0.480555556,-0.127777778,0,0,0,,0,171,171,174,1,
,,,,,,,,,,,,,,,,,,5dcf0e94fce60605794da411,2020-08-10_13h09.28.793,lexical_decision_task_MP,2020.1.3,Win32,60,z,0,,,,,,,,0.937,0,,,,,,207,WORD,UN,33,hockey,WREATH,m,0.937,,,,,,0.480555556,-0.127777778,0,0,0,,0,172,172,146,1,
,,,,,,,,,,,,,,,,,,5dcf0e94fce60605794da411,2020-08-10_13h09.28.793,lexical_decision_task_MP,2020.1.3,Win32,60,m,1,,,,,,,,0.769,1,,,,,,208,WORD,UN,33,search,HOCKEY,m,0.769,,,,,,0.480555556,-0.127777778,0,0,0,,0,173,173,147,1,
,,,,,,,,,,,,,,,,,,5dcf0e94fce60605794da411,2020-08-10_13h09.28.793,lexical_decision_task_MP,2020.1.3,Win32,60,z,1,,,,,,,,0.915,1,,,,,,297,NW,UN,50,piergy,FERTIC,z,0.915,,,,,,0.480555556,-0.127777778,0,0,0,,0,174,174,476,1,
,,,,,,,,,,,,,,,,,,5dcf0e94fce60605794da411,2020-08-10_13h09.28.793,lexical_decision_task_MP,2020.1.3,Win32,60,m,1,,,,,,,,1.159,1,,,,,,213,WORD,UN,33,intake,SQUEAL,m,1.159,,,,,,0.480555556,-0.127777778,0,0,0,,0,175,175,152,1,
,,,,,,,,,,,,,,,,,,5dcf0e94fce60605794da411,2020-08-10_13h09.28.793,lexical_decision_task_MP,2020.1.3,Win32,60,m,1,,,,,,,,0.904,1,,,,,,185,WORD,UN,33,portal,BOTHER,m,0.904,,,,,,0.480555556,-0.127777778,0,0,0,,0,176,176,124,1,
,,,,,,,,,,,,,,,,,,5dcf0e94fce60605794da411,2020-08-10_13h09.28.793,lexical_decision_task_MP,2020.1.3,Win32,60,m,1,,,,,,,,0.872,1,,,,,,74,WORD,"ID",33,plaque,PLAQUE,m,0.872,,,,,,0.480555556,-0.127777778,0,0,0,,0,177,177,13,1,
,,,,,,,,,,,,,,,,,,5dcf0e94fce60605794da411,2020-08-10_13h09.28.793,lexical_decision_task_MP,2020.1.3,Win32,60,z,1,,,,,,,,0.862,1,,,,,,268,NW,UN,50,orchet,PACKES,z,0.862,,,,,,0.480555556,-0.127777778,0,0,0,,0,178,178,447,1,
,,,,,,,,,,,,,,,,,,5dcf0e94fce60605794da411,2020-08-10_13h09.28.793,lexical_decision_task_MP,2020.1.3,Win32,60,m,1,,,,,,,,0.761,1,,,,,,109,WORD,"ID",33,wonder,WONDER,m,0.761,,,,,,0.480555556,-0.127777778,0,0,0,,0,179,179,48,1,
,,,,,,,,,,,,,,,,,,5dcf0e94fce60605794da411,2020-08-10_13h09.28.793,lexical_decision_task_MP,2020.1.3,Win32,60,m,1,,,,,,,,0.836,1,,,,,,16,WORD,UN,50,charge,FAUCET,m,0.836,,,,,,0.480555556,-0.127777778,0,0,0,,0,180,180,195,1,
,,,,,,,,,,,,,,,,,,5dcf0e94fce60605794da411,2020-08-10_13h09.28.793,lexical_decision_task_MP,2020.1.3,Win32,60,z,1,,,,,,,,0.735,1,,,,,,389,NW,"ID",50,witmer,WITMER,z,0.735,,,,,,0.480555556,-0.127777778,0,0,0,,0,181,181,328,1,
,,,,,,,,,,,,,,,,,,5dcf0e94fce60605794da411,2020-08-10_13h09.28.793,lexical_decision_task_MP,2020.1.3,Win32,60,m,1,,,,,,,,0.72,1,,,,,,99,WORD,"ID",33,fluent,FLUENT,m,0.72,,,,,,0.480555556,-0.127777778,0,0,0,,0,182,182,38,1,
,,,,,,,,,,,,,,,,,,5dcf0e94fce60605794da411,2020-08-10_13h09.28.793,lexical_decision_task_MP,2020.1.3,Win32,60,m,1,,,,,,,,0.703,1,,,,,,159,WORD,"ID",50,detail,DETAIL,m,0.703,,,,,,0.480555556,-0.127777778,0,0,0,,0,183,183,98,1,
,,,,,,,,,,,,,,,,,,5dcf0e94fce60605794da411,2020-08-10_13h09.28.793,lexical_decision_task_MP,2020.1.3,Win32,60,z,1,,,,,,,,0.734,1,,,,,,391,NW,"ID",50,theldy,THELDY,z,0.734,,,,,,0.480555556,-0.127777778,0,0,0,,0,184,184,330,1,
,,,,,,,,,,,,,,,,,,5dcf0e94fce60605794da411,2020-08-10_13h09.28.793,lexical_decision_task_MP,2020.1.3,Win32,60,m,1,,,,,,,,0.745,1,,,,,,162,WORD,"ID",50,candle,CANDLE,m,0.745,,,,,,0.480555556,-0.127777778,0,0,0,,0,185,185,101,1,
,,,,,,,,,,,,,,,,,,5dcf0e94fce60605794da411,2020-08-10_13h09.28.793,lexical_decision_task_MP,2020.1.3,Win32,60,z,1,,,,,,,,0.816,1,,,,,,427,NW,UN,33,tandly,SCHIND,z,0.816,,,,,,0.480555556,-0.127777778,0,0,0,,0,186,186,366,1,
,,,,,,,,,,,,,,,,,,5dcf0e94fce60605794da411,2020-08-10_13h09.28.793,lexical_decision_task_MP,2020.1.3,Win32,60,m,0,,,,,,,,0.752,0,,,,,,279,NW,UN,50,curbol,CELOND,z,0.752,,,,,,0.480555556,-0.127777778,0,0,0,,0,187,187,458,1,
,,,,,,,,,,,,,,,,,,5dcf0e94fce60605794da411,2020-08-10_13h09.28.793,lexical_decision_task_MP,2020.1.3,Win32,60,z,1,,,,,,,,0.838,1,,,,,,453,NW,UN,33,scouge,BOLVIS,z,0.838,,,,,,0.480555556,-0.127777778,0,0,0,,0,188,188,392,1,
,,,,,,,,,,,,,,,,,,5dcf0e94fce60605794da411,2020-08-10_13h09.28.793,lexical_decision_task_MP,2020.1.3,Win32,60,z,1,,,,,,,,0.863,1,,,,,,318,NW,"ID",33,reagly,REAGLY,z,0.863,,,,,,0.480555556,-0.127777778,0,0,0,,0,189,189,257,1,
,,,,,,,,,,,,,,,,,,5dcf0e94fce60605794da411,2020-08-10_13h09.28.793,lexical_decision_task_MP,2020.1.3,Win32,60,z,1,,,,,,,,1.02,1,,,,,,261,NW,UN,50,quilew,STUNCH,z,1.02,,,,,,0.480555556,-0.127777778,0,0,0,,0,190,190,440,1,
,,,,,,,,,,,,,,,,,,5dcf0e94fce60605794da411,2020-08-10_13h09.28.793,lexical_decision_task_MP,2020.1.3,Win32,60,z,1,,,,,,,,0.717,1,,,,,,283,NW,UN,50,shaple,VERALF,z,0.717,,,,,,0.480555556,-0.127777778,0,0,0,,0,191,191,462,1,
,,,,,,,,,,,,,,,,,,5dcf0e94fce60605794da411,2020-08-10_13h09.28.793,lexical_decision_task_MP,2020.1.3,Win32,60,m,1,,,,,,,,0.662,1,,,,,,161,WORD,"ID",50,pastor,PASTOR,m,0.662,,,,,,0.480555556,-0.127777778,0,0,0,,0,192,192,100,1,
,,,,,,,,,,,,,,,,,,5dcf0e94fce60605794da411,2020-08-10_13h09.28.793,lexical_decision_task_MP,2020.1.3,Win32,60,m,1,,,,,,,,0.663,1,,,,,,51,WORD,UN,50,impose,HUNGRY,m,0.663,,,,,,0.480555556,-0.127777778,0,0,0,,0,193,193,230,1,
,,,,,,,,,,,,,,,,,,5dcf0e94fce60605794da411,2020-08-10_13h09.28.793,lexical_decision_task_MP,2020.1.3,Win32,60,m,1,,,,,,,,0.677,1,,,,,,28,WORD,UN,50,sketch,COMEDY,m,0.677,,,,,,0.480555556,-0.127777778,0,0,0,,0,194,194,207,1,
,,,,,,,,,,,,,,,,,,5dcf0e94fce60605794da411,2020-08-10_13h09.28.793,lexical_decision_task_MP,2020.1.3,Win32,60,m,1,,,,,,,,0.619,1,,,,,,170,WORD,"ID",50,pounce,POUNCE,m,0.619,,,,,,0.480555556,-0.127777778,0,0,0,,0,195,195,109,1,
,,,,,,,,,,,,,,,,,,5dcf0e94fce60605794da411,2020-08-10_13h09.28.793,lexical_decision_task_MP,2020.1.3,Win32,60,m,1,,,,,,,,0.81,1,,,,,,114,WORD,"ID",33,placid,PLACID,m,0.81,,,,,,0.480555556,-0.127777778,0,0,0,,0,196,196,53,1,
,,,,,,,,,,,,,,,,,,5dcf0e94fce60605794da411,2020-08-10_13h09.28.793,lexical_decision_task_MP,2020.1.3,Win32,60,m,1,,,,,,,,0.68,1,,,,,,29,WORD,UN,50,orient,SKETCH,m,0.68,,,,,,0.480555556,-0.127777778,0,0,0,,0,197,197,208,1,
,,,,,,,,,,,,,,,,,,5dcf0e94fce60605794da411,2020-08-10_13h09.28.793,lexical_decision_task_MP,2020.1.3,Win32,60,m,1,,,,,,,,0.718,1,,,,,,113,WORD,"ID",33,chorus,CHORUS,m,0.718,,,,,,0.480555556,-0.127777778,0,0,0,,0,198,198,52,1,
,,,,,,,,,,,,,,,,,,5dcf0e94fce60605794da411,2020-08-10_13h09.28.793,lexical_decision_task_MP,2020.1.3,Win32,60,z,1,,,,,,,,0.744,1,,,,,,241,NW,UN,50,unwert,SMENCO,z,0.744,,,,,,0.480555556,-0.127777778,0,0,0,,0,199,199,420,1,
,,,,,,,,,,,,,,,,,,5dcf0e94fce60605794da411,2020-08-10_13h09.28.793,lexical_decision_task_MP,2020.1.3,Win32,60,m,1,,,,,,,,0.686,1,,,,,,106,WORD,"ID",33,ransom,RANSOM,m,0.686,,,,,,0.480555556,-0.127777778,0,0,0,,0,200,200,45,1,
,,,,,,,,,,,,,,,,,,5dcf0e94fce60605794da411,2020-08-10_13h09.28.793,lexical_decision_task_MP,2020.1.3,Win32,60,z,1,,,,,,,,0.725,1,,,,,,430,NW,UN,33,chrums,CAROEY,z,0.725,,,,,,0.480555556,-0.127777778,0,0,0,,0,201,201,369,1,
,,,,,,,,,,,,,,,,,,5dcf0e94fce60605794da411,2020-08-10_13h09.28.793,lexical_decision_task_MP,2020.1.3,Win32,60,m,1,,,,,,,,0.799,1,,,,,,189,WORD,UN,33,backup,CENSOR,m,0.799,,,,,,0.480555556,-0.127777778,0,0,0,,0,202,202,128,1,
,,,,,,,,,,,,,,,,,,5dcf0e94fce60605794da411,2020-08-10_13h09.28.793,lexical_decision_task_MP,2020.1.3,Win32,60,z,1,,,,,,,,0.817,1,,,,,,435,NW,UN,33,frutan,IMPURB,z,0.817,,,,,,0.480555556,-0.127777778,0,0,0,,0,203,203,374,1,
,,,,,,,,,,,,,,,,,,5dcf0e94fce60605794da411,2020-08-10_13h09.28.793,lexical_decision_task_MP,2020.1.3,Win32,60,m,1,,,,,,,,0.804,1,,,,,,176,WORD,"ID",50,strife,STRIFE,m,0.804,,,,,,0.480555556,-0.127777778,0,0,0,,0,204,204,115,1,
,,,,,,,,,,,,,,,,,,5dcf0e94fce60605794da411,2020-08-10_13h09.28.793,lexical_decision_task_MP,2020.1.3,Win32,60,z,1,,,,,,,,1.036,1,,,,,,423,NW,UN,33,praile,STRELD,z,1.036,,,,,,0.480555556,-0.127777778,0,0,0,,0,205,205,362,1,
,,,,,,,,,,,,,,,,,,5dcf0e94fce60605794da411,2020-08-10_13h09.28.793,lexical_decision_task_MP,2020.1.3,Win32,60,m,1,,,,,,,,0.656,1,,,,,,119,WORD,"ID",33,spider,SPIDER,m,0.656,,,,,,0.480555556,-0.127777778,0,0,0,,0,206,206,58,1,
,,,,,,,,,,,,,,,,,,5dcf0e94fce60605794da411,2020-08-10_13h09.28.793,lexical_decision_task_MP,2020.1.3,Win32,60,z,1,,,,,,,,0.619,1,,,,,,371,NW,"ID",50,geiloy,GEILOY,z,0.619,,,,,,0.480555556,-0.127777778,0,0,0,,0,207,207,310,1,
,,,,,,,,,,,,,,,,,,5dcf0e94fce60605794da411,2020-08-10_13h09.28.793,lexical_decision_task_MP,2020.1.3,Win32,60,z,1,,,,,,,,0.636,1,,,,,,250,NW,UN,50,lupict,MILTED,z,0.636,,,,,,0.480555556,-0.127777778,0,0,0,,0,208,208,429,1,
,,,,,,,,,,,,,,,,,,5dcf0e94fce60605794da411,2020-08-10_13h09.28.793,lexical_decision_task_MP,2020.1.3,Win32,60,m,1,,,,,,,,0.885,1,,,,,,39,WORD,UN,50,convey,INSECT,m,0.885,,,,,,0.480555556,-0.127777778,0,0,0,,0,209,209,218,1,
,,,,,,,,,,,,,,,,,,5dcf0e94fce60605794da411,2020-08-10_13h09.28.793,lexical_decision_task_MP,2020.1.3,Win32,60,z,1,,,,,,,,0.787,1,,,,,,333,NW,"ID",33,catrie,CATRIE,z,0.787,,,,,,0.480555556,-0.127777778,0,0,0,,0,210,210,272,1,
,,,,,,,,,,,,,,,,,,5dcf0e94fce60605794da411,2020-08-10_13h09.28.793,lexical_decision_task_MP,2020.1.3,Win32,60,z,1,,,,,,,,0.783,1,,,,,,405,NW,"ID",50,flumni,FLUMNI,z,0.783,,,,,,0.480555556,-0.127777778,0,0,0,,0,211,211,344,1,
,,,,,,,,,,,,,,,,,,5dcf0e94fce60605794da411,2020-08-10_13h09.28.793,lexical_decision_task_MP,2020.1.3,Win32,60,z,1,,,,,,,,0.722,1,,,,,,334,NW,"ID",33,watmeg,WATMEG,z,0.722,,,,,,0.480555556,-0.127777778,0,0,0,,0,212,212,273,1,
,,,,,,,,,,,,,,,,,,5dcf0e94fce60605794da411,2020-08-10_13h09.28.793,lexical_decision_task_MP,2020.1.3,Win32,60,m,1,,,,,,,,0.639,1,,,,,,232,WORD,UN,33,nature,INJECT,m,0.639,,,,,,0.480555556,-0.127777778,0,0,0,,0,213,213,171,1,
,,,,,,,,,,,,,,,,,,5dcf0e94fce60605794da411,2020-08-10_13h09.28.793,lexical_decision_task_MP,2020.1.3,Win32,60,z,1,,,,,,,,0.745,1,,,,,,433,NW,UN,33,pitrom,DRANCE,z,0.745,,,,,,0.480555556,-0.127777778,0,0,0,,0,214,214,372,1,
,,,,,,,,,,,,,,,,,,5dcf0e94fce60605794da411,2020-08-10_13h09.28.793,lexical_decision_task_MP,2020.1.3,Win32,60,z,1,,,,,,,,0.769,1,,,,,,365,NW,"ID",50,guairt,GUAIRT,z,0.769,,,,,,0.480555556,-0.127777778,0,0,0,,0,215,215,304,1,
,,,,,,,,,,,,,,,,,,5dcf0e94fce60605794da411,2020-08-10_13h09.28.793,lexical_decision_task_MP,2020.1.3,Win32,60,m,1,,,,,,,,0.787,1,,,,,,194,WORD,UN,33,resign,ABSENT,m,0.787,,,,,,0.480555556,-0.127777778,0,0,0,,0,216,216,133,1,
,,,,,,,,,,,,,,,,,,5dcf0e94fce60605794da411,2020-08-10_13h09.28.793,lexical_decision_task_MP,2020.1.3,Win32,60,m,1,,,,,,,,0.821,1,,,,,,76,WORD,"ID",33,exotic,EXOTIC,m,0.821,,,,,,0.480555556,-0.127777778,0,0,0,,0,217,217,15,1,
,,,,,,,,,,,,,,,,,,5dcf0e94fce60605794da411,2020-08-10_13h09.28.793,lexical_decision_task_MP,2020.1.3,Win32,60,z,1,,,,,,,,0.676,1,,,,,,301,NW,"ID",33,fainch,FAINCH,z,0.676,,,,,,0.480555556,-0.127777778,0,0,0,,0,218,218,240,1,
,,,,,,,,,,,,,,,,,,5dcf0e94fce60605794da411,2020-08-10_13h09.28.793,lexical_decision_task_MP,2020.1.3,Win32,60,m,1,,,,,,,,0.852,1,,,,,,126,WORD,"ID",50,enough,ENOUGH,m,0.852,,,,,,0.480555556,-0.127777778,0,0,0,,0,219,219,65,1,
,,,,,,,,,,,,,,,,,,5dcf0e94fce60605794da411,2020-08-10_13h09.28.793,lexical_decision_task_MP,2020.1.3,Win32,60,z,1,,,,,,,,0.661,1,,,,,,343,NW,"ID",33,aimosy,AIMOSY,z,0.661,,,,,,0.480555556,-0.127777778,0,0,0,,0,220,220,282,1,
,,,,,,,,,,,,,,,,,,5dcf0e94fce60605794da411,2020-08-10_13h09.28.793,lexical_decision_task_MP,2020.1.3,Win32,60,m,1,,,,,,,,0.621,1,,,,,,214,WORD,UN,33,phobia,INTAKE,m,0.621,,,,,,0.480555556,-0.127777778,0,0,0,,0,221,221,153,1,
,,,,,,,,,,,,,,,,,,5dcf0e94fce60605794da411,2020-08-10_13h09.28.793,lexical_decision_task_MP,2020.1.3,Win32,60,m,1,,,,,,,,0.769,1,,,,,,60,WORD,UN,50,fright,PENCIL,m,0.769,,,,,,0.480555556,-0.127777778,0,0,0,,0,222,222,239,1,
,,,,,,,,,,,,,,,,,,5dcf0e94fce60605794da411,2020-08-10_13h09.28.793,lexical_decision_task_MP,2020.1.3,Win32,60,z,1,,,,,,,,0.734,1,,,,,,255,NW,UN,50,inlors,APIGHT,z,0.734,,,,,,0.480555556,-0.127777778,0,0,0,,0,223,223,434,1,
,,,,,,,,,,,,,,,,,,5dcf0e94fce60605794da411,2020-08-10_13h09.28.793,lexical_decision_task_MP,2020.1.3,Win32,60,m,1,,,,,,,,0.712,1,,,,,,178,WORD,"ID",50,inform,INFORM,m,0.712,,,,,,0.480555556,-0.127777778,0,0,0,,0,224,224,117,1,
,,,,,,,,,,,,,,,,,,5dcf0e94fce60605794da411,2020-08-10_13h09.28.793,lexical_decision_task_MP,2020.1.3,Win32,60,m,1,,,,,,,,0.671,1,,,,,,103,WORD,"ID",33,bounce,BOUNCE,m,0.671,,,,,,0.480555556,-0.127777778,0,0,0,,0,225,225,42,1,
,,,,,,,,,,,,,,,,,,5dcf0e94fce60605794da411,2020-08-10_13h09.28.793,lexical_decision_task_MP,2020.1.3,Win32,60,z,1,,,,,,,,0.95,1,,,,,,285,NW,UN,50,reldon,PRUDGE,z,0.95,,,,,,0.480555556,-0.127777778,0,0,0,,0,226,226,464,1,
,,,,,,,,,,,,,,,,,,5dcf0e94fce60605794da411,2020-08-10_13h09.28.793,lexical_decision_task_MP,2020.1.3,Win32,60,m,0,,,,,,,,0.731,0,,,,,,402,NW,"ID",50,syntic,SYNTIC,z,0.731,,,,,,0.480555556,-0.127777778,0,0,0,,0,227,227,341,1,
,,,,,,,,,,,,,,,,,,5dcf0e94fce60605794da411,2020-08-10_13h09.28.793,lexical_decision_task_MP,2020.1.3,Win32,60,m,1,,,,,,,,0.783,1,,,,,,33,WORD,UN,50,jungle,BUTLER,m,0.783,,,,,,0.480555556,-0.127777778,0,0,0,,0,228,228,212,1,
,,,,,,,,,,,,,,,,,,5dcf0e94fce60605794da411,2020-08-10_13h09.28.793,lexical_decision_task_MP,2020.1.3,Win32,60,m,1,,,,,,,,0.679,1,,,,,,80,WORD,"ID",33,family,FAMILY,m,0.679,,,,,,0.480555556,-0.127777778,0,0,0,,0,229,229,19,1,
,,,,,,,,,,,,,,,,,,5dcf0e94fce60605794da411,2020-08-10_13h09.28.793,lexical_decision_task_MP,2020.1.3,Win32,60,z,1,,,,,,,,0.92,1,,,,,,299,NW,UN,50,yarion,STURCH,z,0.92,,,,,,0.480555556,-0.127777778,0,0,0,,0,230,230,478,1,
,,,,,,,,,,,,,,,,,,5dcf0e94fce60605794da411,2020-08-10_13h09.28.793,lexical_decision_task_MP,2020.1.3,Win32,60,m,1,,,,,,,,0.714,1,,,,,,115,WORD,"ID",33,guitar,GUITAR,m,0.714,,,,,,0.480555556,-0.127777778,0,0,0,,0,231,231,54,1,
,,,,,,,,,,,,,,,,,,5dcf0e94fce60605794da411,2020-08-10_13h09.28.793,lexical_decision_task_MP,2020.1.3,Win32,60,z,1,,,,,,,,0.806,1,,,,,,336,NW,"ID",33,ghodus,GHODUS,z,0.806,,,,,,0.480555556,-0.127777778,0,0,0,,0,232,232,275,1,
,,,,,,,,,,,,,,,,,,5dcf0e94fce60605794da411,2020-08-10_13h09.28.793,lexical_decision_task_MP,2020.1.3,Win32,60,m,0,,,,,,,,0.726,0,,,,,,369,NW,"ID",50,wronch,WRONCH,z,0.726,,,,,,0.480555556,-0.127777778,0,0,0,,0,233,233,308,1,
,,,,,,,,,,,,,,,,,,5dcf0e94fce60605794da411,2020-08-10_13h09.28.793,lexical_decision_task_MP,2020.1.3,Win32,60,m,1,,,,,,,,0.865,1,,,,,,209,WORD,UN,33,monkey,SEARCH,m,0.865,,,,,,0.480555556,-0.127777778,0,0,0,,0,234,234,148,1,
,,,,,,,,,,,,,,,,,,5dcf0e94fce60605794da411,2020-08-10_13h09.28.793,lexical_decision_task_MP,2020.1.3,Win32,60,m,1,,,,,,,,0.799,1,,,,,,46,WORD,UN,50,income,SINGLE,m,0.799,,,,,,0.480555556,-0.127777778,0,0,0,,0,235,235,225,1,
,,,,,,,,,,,,,,,,,,5dcf0e94fce60605794da411,2020-08-10_13h09.28.793,lexical_decision_task_MP,2020.1.3,Win32,60,z,1,,,,,,,,1.005,1,,,,,,332,NW,"ID",33,vangue,VANGUE,z,1.005,,,,,,0.480555556,-0.127777778,0,0,0,,0,236,236,271,1,
,,,,,,,,,,,,,,,,,,5dcf0e94fce60605794da411,2020-08-10_13h09.28.793,lexical_decision_task_MP,2020.1.3,Win32,60,m,1,,,,,,,,0.792,1,,,,,,224,WORD,UN,33,vulgar,PERIOD,m,0.792,,,,,,0.480555556,-0.127777778,0,0,0,,0,237,237,163,1,
,,,,,,,,,,,,,,,,,,5dcf0e94fce60605794da411,2020-08-10_13h09.28.793,lexical_decision_task_MP,2020.1.3,Win32,60,m,1,,,,,,,,0.741,1,,,,,,118,WORD,"ID",33,flight,FLIGHT,m,0.741,,,,,,0.480555556,-0.127777778,0,0,0,,0,238,238,57,1,
,,,,,,,,,,,,,,,,,,5dcf0e94fce60605794da411,2020-08-10_13h09.28.793,lexical_decision_task_MP,2020.1.3,Win32,60,z,1,,,,,,,,0.685,1,,,,,,361,NW,"ID",50,pauche,PAUCHE,z,0.685,,,,,,0.480555556,-0.127777778,0,0,0,,0,239,239,300,1,
,,,,,,,,,,,,,,,,,,5dcf0e94fce60605794da411,2020-08-10_13h09.28.793,lexical_decision_task_MP,2020.1.3,Win32,60,z,1,,,,,,,,0.994,1,,,,,,328,NW,"ID",33,broake,BROAKE,z,0.994,,,,,,0.480555556,-0.127777778,0,0,0,,0,240,240,267,1,
,,,,,,,,,,,,,,,,,,5dcf0e94fce60605794da411,2020-08-10_13h09.28.793,lexical_decision_task_MP,2020.1.3,Win32,60,z,1,,,,,,,,0.746,1,,,,,,300,NW,UN,50,smenco,YARION,z,0.746,,,,,,0.480555556,-0.127777778,0,0,0,space,0,241,241,479,1,4.127
,,,,,,,,,,,,,,,,,,5dcf0e94fce60605794da411,2020-08-10_13h09.28.793,lexical_decision_task_MP,2020.1.3,Win32,60,z,1,,,,,,,,0.826,1,,,,,,404,NW,"ID",50,cluirm,CLUIRM,z,0.826,,,,,,0.480555556,-0.127777778,0,0,0,,0,242,242,343,1,
,,,,,,,,,,,,,,,,,,5dcf0e94fce60605794da411,2020-08-10_13h09.28.793,lexical_decision_task_MP,2020.1.3,Win32,60,m,1,,,,,,,,0.802,1,,,,,,192,WORD,UN,33,object,PLAGUE,m,0.802,,,,,,0.480555556,-0.127777778,0,0,0,,0,243,243,131,1,
,,,,,,,,,,,,,,,,,,5dcf0e94fce60605794da411,2020-08-10_13h09.28.793,lexical_decision_task_MP,2020.1.3,Win32,60,z,1,,,,,,,,0.775,1,,,,,,419,NW,"ID",50,slount,SLOUNT,z,0.775,,,,,,0.480555556,-0.127777778,0,0,0,,0,244,244,358,1,
,,,,,,,,,,,,,,,,,,5dcf0e94fce60605794da411,2020-08-10_13h09.28.793,lexical_decision_task_MP,2020.1.3,Win32,60,m,1,,,,,,,,0.864,1,,,,,,94,WORD,"ID",33,travel,TRAVEL,m,0.864,,,,,,0.480555556,-0.127777778,0,0,0,,0,245,245,33,1,
,,,,,,,,,,,,,,,,,,5dcf0e94fce60605794da411,2020-08-10_13h09.28.793,lexical_decision_task_MP,2020.1.3,Win32,60,m,1,,,,,,,,0.736,1,,,,,,75,WORD,"ID",33,trophy,TROPHY,m,0.736,,,,,,0.480555556,-0.127777778,0,0,0,,0,246,246,14,1,
,,,,,,,,,,,,,,,,,,5dcf0e94fce60605794da411,2020-08-10_13h09.28.793,lexical_decision_task_MP,2020.1.3,Win32,60,z,1,,,,,,,,0.751,1,,,,,,424,NW,UN,33,frudge,PRAILE,z,0.751,,,,,,0.480555556,-0.127777778,0,0,0,,0,247,247,363,1,
,,,,,,,,,,,,,,,,,,5dcf0e94fce60605794da411,2020-08-10_13h09.28.793,lexical_decision_task_MP,2020.1.3,Win32,60,m,1,,,,,,,,0.645,1,,,,,,96,WORD,"ID",33,ignore,IGNORE,m,0.645,,,,,,0.480555556,-0.127777778,0,0,0,,0,248,248,35,1,
,,,,,,,,,,,,,,,,,,5dcf0e94fce60605794da411,2020-08-10_13h09.28.793,lexical_decision_task_MP,2020.1.3,Win32,60,m,1,,,,,,,,0.617,1,,,,,,165,WORD,"ID",50,invest,INVEST,m,0.617,,,,,,0.480555556,-0.127777778,0,0,0,,0,249,249,104,1,
,,,,,,,,,,,,,,,,,,5dcf0e94fce60605794da411,2020-08-10_13h09.28.793,lexical_decision_task_MP,2020.1.3,Win32,60,z,0,,,,,,,,0.754,0,,,,,,92,WORD,"ID",33,strand,STRAND,m,0.754,,,,,,0.480555556,-0.127777778,0,0,0,,0,250,250,31,1,
,,,,,,,,,,,,,,,,,,5dcf0e94fce60605794da411,2020-08-10_13h09.28.793,lexical_decision_task_MP,2020.1.3,Win32,60,m,1,,,,,,,,0.864,1,,,,,,179,WORD,"ID",50,basket,BASKET,m,0.864,,,,,,0.480555556,-0.127777778,0,0,0,,0,251,251,118,1,
,,,,,,,,,,,,,,,,,,5dcf0e94fce60605794da411,2020-08-10_13h09.28.793,lexical_decision_task_MP,2020.1.3,Win32,60,z,1,,,,,,,,0.703,1,,,,,,271,NW,UN,50,damilt,AUBRID,z,0.703,,,,,,0.480555556,-0.127777778,0,0,0,,0,252,252,450,1,
,,,,,,,,,,,,,,,,,,5dcf0e94fce60605794da411,2020-08-10_13h09.28.793,lexical_decision_task_MP,2020.1.3,Win32,60,z,1,,,,,,,,0.88,1,,,,,,408,NW,"ID",50,hurnia,HURNIA,z,0.88,,,,,,0.480555556,-0.127777778,0,0,0,,0,253,253,347,1,
,,,,,,,,,,,,,,,,,,5dcf0e94fce60605794da411,2020-08-10_13h09.28.793,lexical_decision_task_MP,2020.1.3,Win32,60,m,1,,,,,,,,0.898,1,,,,,,222,WORD,UN,33,export,HINDER,m,0.898,,,,,,0.480555556,-0.127777778,0,0,0,,0,254,254,161,1,
,,,,,,,,,,,,,,,,,,5dcf0e94fce60605794da411,2020-08-10_13h09.28.793,lexical_decision_task_MP,2020.1.3,Win32,60,z,1,,,,,,,,0.729,1,,,,,,439,NW,UN,33,saride,LIMPOR,z,0.729,,,,,,0.480555556,-0.127777778,0,0,0,,0,255,255,378,1,
,,,,,,,,,,,,,,,,,,5dcf0e94fce60605794da411,2020-08-10_13h09.28.793,lexical_decision_task_MP,2020.1.3,Win32,60,m,1,,,,,,,,0.721,1,,,,,,125,WORD,"ID",50,nickel,NICKEL,m,0.721,,,,,,0.480555556,-0.127777778,0,0,0,,0,256,256,64,1,
,,,,,,,,,,,,,,,,,,5dcf0e94fce60605794da411,2020-08-10_13h09.28.793,lexical_decision_task_MP,2020.1.3,Win32,60,m,1,,,,,,,,0.638,1,,,,,,210,WORD,UN,33,infect,MONKEY,m,0.638,,,,,,0.480555556,-0.127777778,0,0,0,,0,257,257,149,1,
,,,,,,,,,,,,,,,,,,5dcf0e94fce60605794da411,2020-08-10_13h09.28.793,lexical_decision_task_MP,2020.1.3,Win32,60,m,1,,,,,,,,0.695,1,,,,,,175,WORD,"ID",50,fabric,FABRIC,m,0.695,,,,,,0.480555556,-0.127777778,0,0,0,,0,258,258,114,1,
,,,,,,,,,,,,,,,,,,5dcf0e94fce60605794da411,2020-08-10_13h09.28.793,lexical_decision_task_MP,2020.1.3,Win32,60,z,1,,,,,,,,0.728,1,,,,,,252,NW,UN,50,resait,STAPOD,z,0.728,,,,,,0.480555556,-0.127777778,0,0,0,,0,259,259,431,1,
,,,,,,,,,,,,,,,,,,5dcf0e94fce60605794da411,2020-08-10_13h09.28.793,lexical_decision_task_MP,2020.1.3,Win32,60,z,1,,,,,,,,0.675,1,,,,,,281,NW,UN,50,porlex,MELATY,z,0.675,,,,,,0.480555556,-0.127777778,0,0,0,,0,260,260,460,1,
,,,,,,,,,,,,,,,,,,5dcf0e94fce60605794da411,2020-08-10_13h09.28.793,lexical_decision_task_MP,2020.1.3,Win32,60,m,0,,,,,,,,0.67,0,,,,,,411,NW,"ID",50,orchin,ORCHIN,z,0.67,,,,,,0.480555556,-0.127777778,0,0,0,,0,261,261,350,1,
,,,,,,,,,,,,,,,,,,5dcf0e94fce60605794da411,2020-08-10_13h09.28.793,lexical_decision_task_MP,2020.1.3,Win32,60,z,1,,,,,,,,0.821,1,,,,,,322,NW,"ID",33,slanch,SLANCH,z,0.821,,,,,,0.480555556,-0.127777778,0,0,0,,0,262,262,261,1,
,,,,,,,,,,,,,,,,,,5dcf0e94fce60605794da411,2020-08-10_13h09.28.793,lexical_decision_task_MP,2020.1.3,Win32,60,z,1,,,,,,,,0.785,1,,,,,,474,NW,UN,33,acrise,HABLIN,z,0.785,,,,,,0.480555556,-0.127777778,0,0,0,,0,263,263,413,1,
,,,,,,,,,,,,,,,,,,5dcf0e94fce60605794da411,2020-08-10_13h09.28.793,lexical_decision_task_MP,2020.1.3,Win32,60,m,1,,,,,,,,0.685,1,,,,,,15,WORD,UN,50,faucet,AMOUNT,m,0.685,,,,,,0.480555556,-0.127777778,0,0,0,,0,264,264,194,1,
,,,,,,,,,,,,,,,,,,5dcf0e94fce60605794da411,2020-08-10_13h09.28.793,lexical_decision_task_MP,2020.1.3,Win32,60,z,1,,,,,,,,0.777,1,,,,,,317,NW,"ID",33,worbal,WORBAL,z,0.777,,,,,,0.480555556,-0.127777778,0,0,0,,0,265,265,256,1,
,,,,,,,,,,,,,,,,,,5dcf0e94fce60605794da411,2020-08-10_13h09.28.793,lexical_decision_task_MP,2020.1.3,Win32,60,m,1,,,,,,,,0.918,1,,,,,,216,WORD,UN,33,liquor,BEHALF,m,0.918,,,,,,0.480555556,-0.127777778,0,0,0,,0,266,266,155,1,
,,,,,,,,,,,,,,,,,,5dcf0e94fce60605794da411,2020-08-10_13h09.28.793,lexical_decision_task_MP,2020.1.3,Win32,60,z,1,,,,,,,,0.875,1,,,,,,420,NW,"ID",50,gushop,GUSHOP,z,0.875,,,,,,0.480555556,-0.127777778,0,0,0,,0,267,267,359,1,
,,,,,,,,,,,,,,,,,,5dcf0e94fce60605794da411,2020-08-10_13h09.28.793,lexical_decision_task_MP,2020.1.3,Win32,60,z,1,,,,,,,,0.676,1,,,,,,344,NW,"ID",33,scrily,SCRILY,z,0.676,,,,,,0.480555556,-0.127777778,0,0,0,,0,268,268,283,1,
,,,,,,,,,,,,,,,,,,5dcf0e94fce60605794da411,2020-08-10_13h09.28.793,lexical_decision_task_MP,2020.1.3,Win32,60,z,1,,,,,,,,0.631,1,,,,,,394,NW,"ID",50,spaqux,SPAQUX,z,0.631,,,,,,0.480555556,-0.127777778,0,0,0,,0,269,269,333,1,
,,,,,,,,,,,,,,,,,,5dcf0e94fce60605794da411,2020-08-10_13h09.28.793,lexical_decision_task_MP,2020.1.3,Win32,60,m,1,,,,,,,,0.782,1,,,,,,77,WORD,"ID",33,racket,RACKET,m,0.782,,,,,,0.480555556,-0.127777778,0,0,0,,0,270,270,16,1,
,,,,,,,,,,,,,,,,,,5dcf0e94fce60605794da411,2020-08-10_13h09.28.793,lexical_decision_task_MP,2020.1.3,Win32,60,z,1,,,,,,,,0.725,1,,,,,,246,NW,UN,50,blarge,PIATON,z,0.725,,,,,,0.480555556,-0.127777778,0,0,0,,0,271,271,425,1,
,,,,,,,,,,,,,,,,,,5dcf0e94fce60605794da411,2020-08-10_13h09.28.793,lexical_decision_task_MP,2020.1.3,Win32,60,z,1,,,,,,,,0.799,1,,,,,,454,NW,UN,33,tondle,SCOUGE,z,0.799,,,,,,0.480555556,-0.127777778,0,0,0,,0,272,272,393,1,
,,,,,,,,,,,,,,,,,,5dcf0e94fce60605794da411,2020-08-10_13h09.28.793,lexical_decision_task_MP,2020.1.3,Win32,60,m,1,,,,,,,,0.856,1,,,,,,87,WORD,"ID",33,filter,FILTER,m,0.856,,,,,,0.480555556,-0.127777778,0,0,0,,0,273,273,26,1,
,,,,,,,,,,,,,,,,,,5dcf0e94fce60605794da411,2020-08-10_13h09.28.793,lexical_decision_task_MP,2020.1.3,Win32,60,m,0,,,,,,,,0.89,0,,,,,,341,NW,"ID",33,myrtie,MYRTIE,z,0.89,,,,,,0.480555556,-0.127777778,0,0,0,,0,274,274,280,1,
,,,,,,,,,,,,,,,,,,5dcf0e94fce60605794da411,2020-08-10_13h09.28.793,lexical_decision_task_MP,2020.1.3,Win32,60,z,1,,,,,,,,0.822,1,,,,,,298,NW,UN,50,sturch,PIERGY,z,0.822,,,,,,0.480555556,-0.127777778,0,0,0,,0,275,275,477,1,
,,,,,,,,,,,,,,,,,,5dcf0e94fce60605794da411,2020-08-10_13h09.28.793,lexical_decision_task_MP,2020.1.3,Win32,60,z,0,,,,,,,,0.988,0,,,,,,139,WORD,"ID",50,debris,DEBRIS,m,0.988,,,,,,0.480555556,-0.127777778,0,0,0,,0,276,276,78,1,
,,,,,,,,,,,,,,,,,,5dcf0e94fce60605794da411,2020-08-10_13h09.28.793,lexical_decision_task_MP,2020.1.3,Win32,60,z,1,,,,,,,,0.921,1,,,,,,392,NW,"ID",50,rouncy,ROUNCY,z,0.921,,,,,,0.480555556,-0.127777778,0,0,0,,0,277,277,331,1,
,,,,,,,,,,,,,,,,,,5dcf0e94fce60605794da411,2020-08-10_13h09.28.793,lexical_decision_task_MP,2020.1.3,Win32,60,m,1,,,,,,,,0.766,1,,,,,,160,WORD,"ID",50,violet,VIOLET,m,0.766,,,,,,0.480555556,-0.127777778,0,0,0,,0,278,278,99,1,
,,,,,,,,,,,,,,,,,,5dcf0e94fce60605794da411,2020-08-10_13h09.28.793,lexical_decision_task_MP,2020.1.3,Win32,60,z,1,,,,,,,,0.724,1,,,,,,434,NW,UN,33,impurb,PITROM,z,0.724,,,,,,0.480555556,-0.127777778,0,0,0,,0,279,279,373,1,
,,,,,,,,,,,,,,,,,,5dcf0e94fce60605794da411,2020-08-10_13h09.28.793,lexical_decision_task_MP,2020.1.3,Win32,60,m,1,,,,,,,,0.668,1,,,,,,36,WORD,UN,50,insult,VANISH,m,0.668,,,,,,0.480555556,-0.127777778,0,0,0,,0,280,280,215,1,
,,,,,,,,,,,,,,,,,,5dcf0e94fce60605794da411,2020-08-10_13h09.28.793,lexical_decision_task_MP,2020.1.3,Win32,60,z,1,,,,,,,,0.725,1,,,,,,324,NW,"ID",33,steikh,STEIKH,z,0.725,,,,,,0.480555556,-0.127777778,0,0,0,,0,281,281,263,1,
,,,,,,,,,,,,,,,,,,5dcf0e94fce60605794da411,2020-08-10_13h09.28.793,lexical_decision_task_MP,2020.1.3,Win32,60,m,1,,,,,,,,0.703,1,,,,,,73,WORD,"ID",33,source,SOURCE,m,0.703,,,,,,0.480555556,-0.127777778,0,0,0,,0,282,282,12,1,
,,,,,,,,,,,,,,,,,,5dcf0e94fce60605794da411,2020-08-10_13h09.28.793,lexical_decision_task_MP,2020.1.3,Win32,60,z,1,,,,,,,,0.738,1,,,,,,321,NW,"ID",33,miator,MIATOR,z,0.738,,,,,,0.480555556,-0.127777778,0,0,0,,0,283,283,260,1,
,,,,,,,,,,,,,,,,,,5dcf0e94fce60605794da411,2020-08-10_13h09.28.793,lexical_decision_task_MP,2020.1.3,Win32,60,z,1,,,,,,,,0.775,1,,,,,,393,NW,"ID",50,ganous,GANOUS,z,0.775,,,,,,0.480555556,-0.127777778,0,0,0,,0,284,284,332,1,
,,,,,,,,,,,,,,,,,,5dcf0e94fce60605794da411,2020-08-10_13h09.28.793,lexical_decision_task_MP,2020.1.3,Win32,60,m,1,,,,,,,,0.715,1,,,,,,30,WORD,UN,50,weapon,ORIENT,m,0.715,,,,,,0.480555556,-0.127777778,0,0,0,,0,285,285,209,1,
,,,,,,,,,,,,,,,,,,5dcf0e94fce60605794da411,2020-08-10_13h09.28.793,lexical_decision_task_MP,2020.1.3,Win32,60,m,1,,,,,,,,0.769,1,,,,,,184,WORD,UN,33,bother,SLEAZY,m,0.769,,,,,,0.480555556,-0.127777778,0,0,0,,0,286,286,123,1,
,,,,,,,,,,,,,,,,,,5dcf0e94fce60605794da411,2020-08-10_13h09.28.793,lexical_decision_task_MP,2020.1.3,Win32,60,m,1,,,,,,,,0.781,1,,,,,,203,WORD,UN,33,burden,PHRASE,m,0.781,,,,,,0.480555556,-0.127777778,0,0,0,,0,287,287,142,1,
,,,,,,,,,,,,,,,,,,5dcf0e94fce60605794da411,2020-08-10_13h09.28.793,lexical_decision_task_MP,2020.1.3,Win32,60,z,1,,,,,,,,0.751,1,,,,,,270,NW,UN,50,aubrid,WRIMSY,z,0.751,,,,,,0.480555556,-0.127777778,0,0,0,,0,288,288,449,1,
,,,,,,,,,,,,,,,,,,5dcf0e94fce60605794da411,2020-08-10_13h09.28.793,lexical_decision_task_MP,2020.1.3,Win32,60,m,1,,,,,,,,0.72,1,,,,,,107,WORD,"ID",33,slogan,SLOGAN,m,0.72,,,,,,0.480555556,-0.127777778,0,0,0,,0,289,289,46,1,
,,,,,,,,,,,,,,,,,,5dcf0e94fce60605794da411,2020-08-10_13h09.28.793,lexical_decision_task_MP,2020.1.3,Win32,60,z,1,,,,,,,,0.722,1,,,,,,258,NW,UN,50,soudal,POLUTH,z,0.722,,,,,,0.480555556,-0.127777778,0,0,0,,0,290,290,437,1,
,,,,,,,,,,,,,,,,,,5dcf0e94fce60605794da411,2020-08-10_13h09.28.793,lexical_decision_task_MP,2020.1.3,Win32,60,m,1,,,,,,,,0.771,1,,,,,,13,WORD,UN,50,almost,STRIVE,m,0.771,,,,,,0.480555556,-0.127777778,0,0,0,,0,291,291,192,1,
,,,,,,,,,,,,,,,,,,5dcf0e94fce60605794da411,2020-08-10_13h09.28.793,lexical_decision_task_MP,2020.1.3,Win32,60,m,1,,,,,,,,0.782,1,,,,,,32,WORD,UN,50,scream,BUCKLE,m,0.782,,,,,,0.480555556,-0.127777778,0,0,0,,0,292,292,211,1,
,,,,,,,,,,,,,,,,,,5dcf0e94fce60605794da411,2020-08-10_13h09.28.793,lexical_decision_task_MP,2020.1.3,Win32,60,m,1,,,,,,,,0.657,1,,,,,,148,WORD,"ID",50,custom,CUSTOM,m,0.657,,,,,,0.480555556,-0.127777778,0,0,0,,0,293,293,87,1,
,,,,,,,,,,,,,,,,,,5dcf0e94fce60605794da411,2020-08-10_13h09.28.793,lexical_decision_task_MP,2020.1.3,Win32,60,z,1,,,,,,,,0.782,1,,,,,,463,NW,UN,33,chaite,KISPEL,z,0.782,,,,,,0.480555556,-0.127777778,0,0,0,,0,294,294,402,1,
,,,,,,,,,,,,,,,,,,5dcf0e94fce60605794da411,2020-08-10_13h09.28.793,lexical_decision_task_MP,2020.1.3,Win32,60,z,1,,,,,,,,0.679,1,,,,,,478,NW,UN,33,pebric,ACRISE,z,0.679,,,,,,0.480555556,-0.127777778,0,0,0,,0,295,295,417,1,
,,,,,,,,,,,,,,,,,,5dcf0e94fce60605794da411,2020-08-10_13h09.28.793,lexical_decision_task_MP,2020.1.3,Win32,60,z,1,,,,,,,,0.671,1,,,,,,251,NW,UN,50,stapod,LUPICT,z,0.671,,,,,,0.480555556,-0.127777778,0,0,0,,0,296,296,430,1,
,,,,,,,,,,,,,,,,,,5dcf0e94fce60605794da411,2020-08-10_13h09.28.793,lexical_decision_task_MP,2020.1.3,Win32,60,z,1,,,,,,,,0.633,1,,,,,,396,NW,"ID",50,flengy,FLENGY,z,0.633,,,,,,0.480555556,-0.127777778,0,0,0,,0,297,297,335,1,
,,,,,,,,,,,,,,,,,,5dcf0e94fce60605794da411,2020-08-10_13h09.28.793,lexical_decision_task_MP,2020.1.3,Win32,60,z,1,,,,,,,,0.638,1,,,,,,346,NW,"ID",33,saudic,SAUDIC,z,0.638,,,,,,0.480555556,-0.127777778,0,0,0,,0,298,298,285,1,
,,,,,,,,,,,,,,,,,,5dcf0e94fce60605794da411,2020-08-10_13h09.28.793,lexical_decision_task_MP,2020.1.3,Win32,60,m,1,,,,,,,,0.758,1,,,,,,42,WORD,UN,50,tongue,CHAPEL,m,0.758,,,,,,0.480555556,-0.127777778,0,0,0,,0,299,299,221,1,
,,,,,,,,,,,,,,,,,,5dcf0e94fce60605794da411,2020-08-10_13h09.28.793,lexical_decision_task_MP,2020.1.3,Win32,60,m,1,,,,,,,,0.749,1,,,,,,45,WORD,UN,50,single,CLERGY,m,0.749,,,,,,0.480555556,-0.127777778,0,0,0,,0,300,300,224,1,
,,,,,,,,,,,,,,,,,,5dcf0e94fce60605794da411,2020-08-10_13h09.28.793,lexical_decision_task_MP,2020.1.3,Win32,60,z,1,,,,,,,,0.7,1,,,,,,290,NW,UN,50,pretch,SPLINO,z,0.7,,,,,,0.480555556,-0.127777778,0,0,0,,0,301,301,469,1,
,,,,,,,,,,,,,,,,,,5dcf0e94fce60605794da411,2020-08-10_13h09.28.793,lexical_decision_task_MP,2020.1.3,Win32,60,z,1,,,,,,,,0.864,1,,,,,,339,NW,"ID",33,fachow,FACHOW,z,0.864,,,,,,0.480555556,-0.127777778,0,0,0,,0,302,302,278,1,
,,,,,,,,,,,,,,,,,,5dcf0e94fce60605794da411,2020-08-10_13h09.28.793,lexical_decision_task_MP,2020.1.3,Win32,60,m,1,,,,,,,,0.906,1,,,,,,25,WORD,UN,50,sprint,DOMAIN,m,0.906,,,,,,0.480555556,-0.127777778,0,0,0,,0,303,303,204,1,
,,,,,,,,,,,,,,,,,,5dcf0e94fce60605794da411,2020-08-10_13h09.28.793,lexical_decision_task_MP,2020.1.3,Win32,60,m,0,,,,,,,,0.724,0,,,,,,253,NW,UN,50,varosh,RESAIT,z,0.724,,,,,,0.480555556,-0.127777778,0,0,0,,0,304,304,432,1,
,,,,,,,,,,,,,,,,,,5dcf0e94fce60605794da411,2020-08-10_13h09.28.793,lexical_decision_task_MP,2020.1.3,Win32,60,m,1,,,,,,,,0.913,1,,,,,,83,WORD,"ID",33,result,RESULT,m,0.913,,,,,,0.480555556,-0.127777778,0,0,0,,0,305,305,22,1,
,,,,,,,,,,,,,,,,,,5dcf0e94fce60605794da411,2020-08-10_13h09.28.793,lexical_decision_task_MP,2020.1.3,Win32,60,z,1,,,,,,,,0.765,1,,,,,,272,NW,UN,50,sortel,DAMILT,z,0.765,,,,,,0.480555556,-0.127777778,0,0,0,,0,306,306,451,1,
,,,,,,,,,,,,,,,,,,5dcf0e94fce60605794da411,2020-08-10_13h09.28.793,lexical_decision_task_MP,2020.1.3,Win32,60,m,1,,,,,,,,0.674,1,,,,,,141,WORD,"ID",50,orphan,ORPHAN,m,0.674,,,,,,0.480555556,-0.127777778,0,0,0,,0,307,307,80,1,
,,,,,,,,,,,,,,,,,,5dcf0e94fce60605794da411,2020-08-10_13h09.28.793,lexical_decision_task_MP,2020.1.3,Win32,60,z,1,,,,,,,,0.831,1,,,,,,359,NW,"ID",33,fonver,FONVER,z,0.831,,,,,,0.480555556,-0.127777778,0,0,0,,0,308,308,298,1,
,,,,,,,,,,,,,,,,,,5dcf0e94fce60605794da411,2020-08-10_13h09.28.793,lexical_decision_task_MP,2020.1.3,Win32,60,m,1,,,,,,,,0.788,1,,,,,,130,WORD,"ID",50,stupid,STUPID,m,0.788,,,,,,0.480555556,-0.127777778,0,0,0,,0,309,309,69,1,
,,,,,,,,,,,,,,,,,,5dcf0e94fce60605794da411,2020-08-10_13h09.28.793,lexical_decision_task_MP,2020.1.3,Win32,60,m,1,,,,,,,,1.099,1,,,,,,164,WORD,"ID",50,market,MARKET,m,1.099,,,,,,0.480555556,-0.127777778,0,0,0,,0,310,310,103,1,
,,,,,,,,,,,,,,,,,,5dcf0e94fce60605794da411,2020-08-10_13h09.28.793,lexical_decision_task_MP,2020.1.3,Win32,60,m,1,,,,,,,,0.854,1,,,,,,54,WORD,UN,50,stroke,RAMBLE,m,0.854,,,,,,0.480555556,-0.127777778,0,0,0,,0,311,311,233,1,
,,,,,,,,,,,,,,,,,,5dcf0e94fce60605794da411,2020-08-10_13h09.28.793,lexical_decision_task_MP,2020.1.3,Win32,60,m,1,,,,,,,,0.743,1,,,,,,12,WORD,UN,50,strive,ORANGE,m,0.743,,,,,,0.480555556,-0.127777778,0,0,0,,0,312,312,191,1,
,,,,,,,,,,,,,,,,,,5dcf0e94fce60605794da411,2020-08-10_13h09.28.793,lexical_decision_task_MP,2020.1.3,Win32,60,z,1,,,,,,,,0.856,1,,,,,,338,NW,"ID",33,wreash,WREASH,z,0.856,,,,,,0.480555556,-0.127777778,0,0,0,,0,313,313,277,1,
,,,,,,,,,,,,,,,,,,5dcf0e94fce60605794da411,2020-08-10_13h09.28.793,lexical_decision_task_MP,2020.1.3,Win32,60,z,1,,,,,,,,1.146,1,,,,,,254,NW,UN,50,apight,VAROSH,z,1.146,,,,,,0.480555556,-0.127777778,0,0,0,,0,314,314,433,1,
,,,,,,,,,,,,,,,,,,5dcf0e94fce60605794da411,2020-08-10_13h09.28.793,lexical_decision_task_MP,2020.1.3,Win32,60,m,1,,,,,,,,0.785,1,,,,,,20,WORD,UN,50,simple,BREAST,m,0.785,,,,,,0.480555556,-0.127777778,0,0,0,,0,315,315,199,1,
,,,,,,,,,,,,,,,,,,5dcf0e94fce60605794da411,2020-08-10_13h09.28.793,lexical_decision_task_MP,2020.1.3,Win32,60,m,1,,,,,,,,1.037,1,,,,,,233,WORD,UN,33,clumsy,NATURE,m,1.037,,,,,,0.480555556,-0.127777778,0,0,0,,0,316,316,172,1,
,,,,,,,,,,,,,,,,,,5dcf0e94fce60605794da411,2020-08-10_13h09.28.793,lexical_decision_task_MP,2020.1.3,Win32,60,m,1,,,,,,,,0.695,1,,,,,,123,WORD,"ID",50,strike,STRIKE,m,0.695,,,,,,0.480555556,-0.127777778,0,0,0,,0,317,317,62,1,
,,,,,,,,,,,,,,,,,,5dcf0e94fce60605794da411,2020-08-10_13h09.28.793,lexical_decision_task_MP,2020.1.3,Win32,60,m,1,,,,,,,,0.613,1,,,,,,104,WORD,"ID",33,studio,STUDIO,m,0.613,,,,,,0.480555556,-0.127777778,0,0,0,,0,318,318,43,1,
,,,,,,,,,,,,,,,,,,5dcf0e94fce60605794da411,2020-08-10_13h09.28.793,lexical_decision_task_MP,2020.1.3,Win32,60,z,1,,,,,,,,0.755,1,,,,,,399,NW,"ID",50,fouret,FOURET,z,0.755,,,,,,0.480555556,-0.127777778,0,0,0,,0,319,319,338,1,
,,,,,,,,,,,,,,,,,,5dcf0e94fce60605794da411,2020-08-10_13h09.28.793,lexical_decision_task_MP,2020.1.3,Win32,60,m,1,,,,,,,,0.644,1,,,,,,151,WORD,"ID",50,mystic,MYSTIC,m,0.644,,,,,,0.480555556,-0.127777778,0,0,0,,0,320,320,90,1,
,,,,,,,,,,,,,,,,,,5dcf0e94fce60605794da411,2020-08-10_13h09.28.793,lexical_decision_task_MP,2020.1.3,Win32,60,m,1,,,,,,,,0.669,1,,,,,,63,WORD,"ID",33,launch,LAUNCH,m,0.669,,,,,,0.480555556,-0.127777778,0,0,0,,0,321,321,2,1,
,,,,,,,,,,,,,,,,,,5dcf0e94fce60605794da411,2020-08-10_13h09.28.793,lexical_decision_task_MP,2020.1.3,Win32,60,m,1,,,,,,,,0.965,1,,,,,,186,WORD,UN,33,course,PORTAL,m,0.965,,,,,,0.480555556,-0.127777778,0,0,0,,0,322,322,125,1,
,,,,,,,,,,,,,,,,,,5dcf0e94fce60605794da411,2020-08-10_13h09.28.793,lexical_decision_task_MP,2020.1.3,Win32,60,z,1,,,,,,,,0.918,1,,,,,,374,NW,"ID",50,sliant,SLIANT,z,0.918,,,,,,0.480555556,-0.127777778,0,0,0,,0,323,323,313,1,
,,,,,,,,,,,,,,,,,,5dcf0e94fce60605794da411,2020-08-10_13h09.28.793,lexical_decision_task_MP,2020.1.3,Win32,60,m,0,,,,,,,,0.726,0,,,,,,311,NW,"ID",33,sproly,SPROLY,z,0.726,,,,,,0.480555556,-0.127777778,0,0,0,,0,324,324,250,1,
,,,,,,,,,,,,,,,,,,5dcf0e94fce60605794da411,2020-08-10_13h09.28.793,lexical_decision_task_MP,2020.1.3,Win32,60,m,1,,,,,,,,0.787,1,,,,,,4,WORD,UN,50,plunge,TRENCH,m,0.787,,,,,,0.480555556,-0.127777778,0,0,0,,0,325,325,183,1,
,,,,,,,,,,,,,,,,,,5dcf0e94fce60605794da411,2020-08-10_13h09.28.793,lexical_decision_task_MP,2020.1.3,Win32,60,z,1,,,,,,,,0.991,1,,,,,,259,NW,UN,50,unject,SOUDAL,z,0.991,,,,,,0.480555556,-0.127777778,0,0,0,,0,326,326,438,1,
,,,,,,,,,,,,,,,,,,5dcf0e94fce60605794da411,2020-08-10_13h09.28.793,lexical_decision_task_MP,2020.1.3,Win32,60,z,1,,,,,,,,0.922,1,,,,,,264,NW,UN,50,distar,VACKEL,z,0.922,,,,,,0.480555556,-0.127777778,0,0,0,,0,327,327,443,1,
,,,,,,,,,,,,,,,,,,5dcf0e94fce60605794da411,2020-08-10_13h09.28.793,lexical_decision_task_MP,2020.1.3,Win32,60,m,1,,,,,,,,0.844,1,,,,,,212,WORD,UN,33,squeal,VERIFY,m,0.844,,,,,,0.480555556,-0.127777778,0,0,0,,0,328,328,151,1,
,,,,,,,,,,,,,,,,,,5dcf0e94fce60605794da411,2020-08-10_13h09.28.793,lexical_decision_task_MP,2020.1.3,Win32,60,m,1,,,,,,,,0.747,1,,,,,,134,WORD,"ID",50,staple,STAPLE,m,0.747,,,,,,0.480555556,-0.127777778,0,0,0,,0,329,329,73,1,
,,,,,,,,,,,,,,,,,,5dcf0e94fce60605794da411,2020-08-10_13h09.28.793,lexical_decision_task_MP,2020.1.3,Win32,60,z,1,,,,,,,,0.856,1,,,,,,377,NW,"ID",50,injore,INJORE,z,0.856,,,,,,0.480555556,-0.127777778,0,0,0,,0,330,330,316,1,
,,,,,,,,,,,,,,,,,,5dcf0e94fce60605794da411,2020-08-10_13h09.28.793,lexical_decision_task_MP,2020.1.3,Win32,60,z,1,,,,,,,,0.748,1,,,,,,245,NW,UN,50,piaton,ANOUGS,z,0.748,,,,,,0.480555556,-0.127777778,0,0,0,,0,331,331,424,1,
,,,,,,,,,,,,,,,,,,5dcf0e94fce60605794da411,2020-08-10_13h09.28.793,lexical_decision_task_MP,2020.1.3,Win32,60,m,1,,,,,,,,0.763,1,,,,,,18,WORD,UN,50,patron,HUMBLE,m,0.763,,,,,,0.480555556,-0.127777778,0,0,0,,0,332,332,197,1,
,,,,,,,,,,,,,,,,,,5dcf0e94fce60605794da411,2020-08-10_13h09.28.793,lexical_decision_task_MP,2020.1.3,Win32,60,z,1,,,,,,,,0.851,1,,,,,,437,NW,UN,33,baitch,SNAPEL,z,0.851,,,,,,0.480555556,-0.127777778,0,0,0,,0,333,333,376,1,
,,,,,,,,,,,,,,,,,,5dcf0e94fce60605794da411,2020-08-10_13h09.28.793,lexical_decision_task_MP,2020.1.3,Win32,60,m,1,,,,,,,,0.77,1,,,,,,229,WORD,UN,33,fringe,MOTHER,m,0.77,,,,,,0.480555556,-0.127777778,0,0,0,,0,334,334,168,1,
,,,,,,,,,,,,,,,,,,5dcf0e94fce60605794da411,2020-08-10_13h09.28.793,lexical_decision_task_MP,2020.1.3,Win32,60,m,1,,,,,,,,0.832,1,,,,,,196,WORD,UN,33,stream,CREDIT,m,0.832,,,,,,0.480555556,-0.127777778,0,0,0,,0,335,335,135,1,
,,,,,,,,,,,,,,,,,,5dcf0e94fce60605794da411,2020-08-10_13h09.28.793,lexical_decision_task_MP,2020.1.3,Win32,60,z,1,,,,,,,,0.838,1,,,,,,449,NW,UN,33,phrect,BRUNGE,z,0.838,,,,,,0.480555556,-0.127777778,0,0,0,,0,336,336,388,1,
,,,,,,,,,,,,,,,,,,5dcf0e94fce60605794da411,2020-08-10_13h09.28.793,lexical_decision_task_MP,2020.1.3,Win32,60,m,1,,,,,,,,0.665,1,,,,,,146,WORD,"ID",50,couple,COUPLE,m,0.665,,,,,,0.480555556,-0.127777778,0,0,0,,0,337,337,85,1,
,,,,,,,,,,,,,,,,,,5dcf0e94fce60605794da411,2020-08-10_13h09.28.793,lexical_decision_task_MP,2020.1.3,Win32,60,m,1,,,,,,,,0.731,1,,,,,,124,WORD,"ID",50,blouse,BLOUSE,m,0.731,,,,,,0.480555556,-0.127777778,0,0,0,,0,338,338,63,1,
,,,,,,,,,,,,,,,,,,5dcf0e94fce60605794da411,2020-08-10_13h09.28.793,lexical_decision_task_MP,2020.1.3,Win32,60,m,1,,,,,,,,0.675,1,,,,,,110,WORD,"ID",33,polite,POLITE,m,0.675,,,,,,0.480555556,-0.127777778,0,0,0,,0,339,339,49,1,
,,,,,,,,,,,,,,,,,,5dcf0e94fce60605794da411,2020-08-10_13h09.28.793,lexical_decision_task_MP,2020.1.3,Win32,60,m,1,,,,,,,,0.716,1,,,,,,174,WORD,"ID",50,turkey,TURKEY,m,0.716,,,,,,0.480555556,-0.127777778,0,0,0,,0,340,340,113,1,
,,,,,,,,,,,,,,,,,,5dcf0e94fce60605794da411,2020-08-10_13h09.28.793,lexical_decision_task_MP,2020.1.3,Win32,60,z,1,,,,,,,,0.994,1,,,,,,269,NW,UN,50,wrimsy,ORCHET,z,0.994,,,,,,0.480555556,-0.127777778,0,0,0,,0,341,341,448,1,
,,,,,,,,,,,,,,,,,,5dcf0e94fce60605794da411,2020-08-10_13h09.28.793,lexical_decision_task_MP,2020.1.3,Win32,60,z,1,,,,,,,,0.819,1,,,,,,356,NW,"ID",33,othnis,OTHNIS,z,0.819,,,,,,0.480555556,-0.127777778,0,0,0,,0,342,342,295,1,
,,,,,,,,,,,,,,,,,,5dcf0e94fce60605794da411,2020-08-10_13h09.28.793,lexical_decision_task_MP,2020.1.3,Win32,60,m,1,,,,,,,,0.822,1,,,,,,181,WORD,UN,33,winter,GLANCE,m,0.822,,,,,,0.480555556,-0.127777778,0,0,0,,0,343,343,120,1,
,,,,,,,,,,,,,,,,,,5dcf0e94fce60605794da411,2020-08-10_13h09.28.793,lexical_decision_task_MP,2020.1.3,Win32,60,z,1,,,,,,,,0.807,1,,,,,,444,NW,UN,33,minkel,JAUNCE,z,0.807,,,,,,0.480555556,-0.127777778,0,0,0,,0,344,344,383,1,
,,,,,,,,,,,,,,,,,,5dcf0e94fce60605794da411,2020-08-10_13h09.28.793,lexical_decision_task_MP,2020.1.3,Win32,60,z,1,,,,,,,,0.981,1,,,,,,398,NW,"ID",50,blunde,BLUNDE,z,0.981,,,,,,0.480555556,-0.127777778,0,0,0,,0,345,345,337,1,
,,,,,,,,,,,,,,,,,,5dcf0e94fce60605794da411,2020-08-10_13h09.28.793,lexical_decision_task_MP,2020.1.3,Win32,60,z,1,,,,,,,,0.818,1,,,,,,310,NW,"ID",33,daniet,DANIET,z,0.818,,,,,,0.480555556,-0.127777778,0,0,0,,0,346,346,249,1,
,,,,,,,,,,,,,,,,,,5dcf0e94fce60605794da411,2020-08-10_13h09.28.793,lexical_decision_task_MP,2020.1.3,Win32,60,m,1,,,,,,,,0.769,1,,,,,,79,WORD,"ID",33,theory,THEORY,m,0.769,,,,,,0.480555556,-0.127777778,0,0,0,,0,347,347,18,1,
,,,,,,,,,,,,,,,,,,5dcf0e94fce60605794da411,2020-08-10_13h09.28.793,lexical_decision_task_MP,2020.1.3,Win32,60,z,1,,,,,,,,0.835,1,,,,,,455,NW,UN,33,broget,TONDLE,z,0.835,,,,,,0.480555556,-0.127777778,0,0,0,,0,348,348,394,1,
,,,,,,,,,,,,,,,,,,5dcf0e94fce60605794da411,2020-08-10_13h09.28.793,lexical_decision_task_MP,2020.1.3,Win32,60,z,1,,,,,,,,0.817,1,,,,,,456,NW,UN,33,wanigh,BROGET,z,0.817,,,,,,0.480555556,-0.127777778,0,0,0,,0,349,349,395,1,
,,,,,,,,,,,,,,,,,,5dcf0e94fce60605794da411,2020-08-10_13h09.28.793,lexical_decision_task_MP,2020.1.3,Win32,60,m,1,,,,,,,,0.938,1,,,,,,8,WORD,UN,50,hustle,ABRUPT,m,0.938,,,,,,0.480555556,-0.127777778,0,0,0,,0,350,350,187,1,
,,,,,,,,,,,,,,,,,,5dcf0e94fce60605794da411,2020-08-10_13h09.28.793,lexical_decision_task_MP,2020.1.3,Win32,60,m,1,,,,,,,,0.677,1,,,,,,182,WORD,UN,33,absent,WINTER,m,0.677,,,,,,0.480555556,-0.127777778,0,0,0,,0,351,351,121,1,
,,,,,,,,,,,,,,,,,,5dcf0e94fce60605794da411,2020-08-10_13h09.28.793,lexical_decision_task_MP,2020.1.3,Win32,60,z,1,,,,,,,,0.751,1,,,,,,331,NW,"ID",33,gilfew,GILFEW,z,0.751,,,,,,0.480555556,-0.127777778,0,0,0,,0,352,352,270,1,
,,,,,,,,,,,,,,,,,,5dcf0e94fce60605794da411,2020-08-10_13h09.28.793,lexical_decision_task_MP,2020.1.3,Win32,60,z,1,,,,,,,,0.857,1,,,,,,353,NW,"ID",33,clurey,CLUREY,z,0.857,,,,,,0.480555556,-0.127777778,0,0,0,,0,353,353,292,1,
,,,,,,,,,,,,,,,,,,5dcf0e94fce60605794da411,2020-08-10_13h09.28.793,lexical_decision_task_MP,2020.1.3,Win32,60,m,1,,,,,,,,0.7,1,,,,,,155,WORD,"ID",50,lizard,LIZARD,m,0.7,,,,,,0.480555556,-0.127777778,0,0,0,,0,354,354,94,1,
,,,,,,,,,,,,,,,,,,5dcf0e94fce60605794da411,2020-08-10_13h09.28.793,lexical_decision_task_MP,2020.1.3,Win32,60,m,1,,,,,,,,0.802,1,,,,,,116,WORD,"ID",33,tumble,TUMBLE,m,0.802,,,,,,0.480555556,-0.127777778,0,0,0,,0,355,355,55,1,
,,,,,,,,,,,,,,,,,,5dcf0e94fce60605794da411,2020-08-10_13h09.28.793,lexical_decision_task_MP,2020.1.3,Win32,60,z,1,,,,,,,,0.637,1,,,,,,466,NW,UN,33,robuly,HOCITE,z,0.637,,,,,,0.480555556,-0.127777778,0,0,0,,0,356,356,405,1,
,,,,,,,,,,,,,,,,,,5dcf0e94fce60605794da411,2020-08-10_13h09.28.793,lexical_decision_task_MP,2020.1.3,Win32,60,m,0,,,,,,,,0.849,0,,,,,,303,NW,"ID",33,fiream,FIREAM,z,0.849,,,,,,0.480555556,-0.127777778,0,0,0,,0,357,357,242,1,
,,,,,,,,,,,,,,,,,,5dcf0e94fce60605794da411,2020-08-10_13h09.28.793,lexical_decision_task_MP,2020.1.3,Win32,60,m,0,,,,,,,,0.703,0,,,,,,406,NW,"ID",50,nouply,NOUPLY,z,0.703,,,,,,0.480555556,-0.127777778,0,0,0,,0,358,358,345,1,
,,,,,,,,,,,,,,,,,,5dcf0e94fce60605794da411,2020-08-10_13h09.28.793,lexical_decision_task_MP,2020.1.3,Win32,60,z,1,,,,,,,,0.852,1,,,,,,347,NW,"ID",33,kerift,KERIFT,z,0.852,,,,,,0.480555556,-0.127777778,0,0,0,,0,359,359,286,1,
,,,,,,,,,,,,,,,,,,5dcf0e94fce60605794da411,2020-08-10_13h09.28.793,lexical_decision_task_MP,2020.1.3,Win32,60,m,1,,,,,,,,1.242,1,,,,,,238,WORD,UN,33,behalf,FLOWER,m,1.242,,,,,,0.480555556,-0.127777778,0,0,0,,0,360,360,177,1,
,,,,,,,,,,,,,,,,,,5dcf0e94fce60605794da411,2020-08-10_13h09.28.793,lexical_decision_task_MP,2020.1.3,Win32,60,z,1,,,,,,,,0.979,1,,,,,,243,NW,UN,50,eatric,MUSIED,z,0.979,,,,,,0.480555556,-0.127777778,0,0,0,,0,361,361,422,1,
,,,,,,,,,,,,,,,,,,5dcf0e94fce60605794da411,2020-08-10_13h09.28.793,lexical_decision_task_MP,2020.1.3,Win32,60,z,1,,,,,,,,0.769,1,,,,,,385,NW,"ID",50,veigma,VEIGMA,z,0.769,,,,,,0.480555556,-0.127777778,0,0,0,space,0,362,362,324,1,2.234
,,,,,,,,,,,,,,,,,,5dcf0e94fce60605794da411,2020-08-10_13h09.28.793,lexical_decision_task_MP,2020.1.3,Win32,60,m,1,,,,,,,,1.887,1,,,,,,195,WORD,UN,33,credit,RESIGN,m,1.887,,,,,,0.480555556,-0.127777778,0,0,0,,0,363,363,134,1,
,,,,,,,,,,,,,,,,,,5dcf0e94fce60605794da411,2020-08-10_13h09.28.793,lexical_decision_task_MP,2020.1.3,Win32,60,m,1,,,,,,,,0.667,1,,,,,,153,WORD,"ID",50,behold,BEHOLD,m,0.667,,,,,,0.480555556,-0.127777778,0,0,0,,0,364,364,92,1,
,,,,,,,,,,,,,,,,,,5dcf0e94fce60605794da411,2020-08-10_13h09.28.793,lexical_decision_task_MP,2020.1.3,Win32,60,m,1,,,,,,,,0.736,1,,,,,,6,WORD,UN,50,anchor,BUNDLE,m,0.736,,,,,,0.480555556,-0.127777778,0,0,0,,0,365,365,185,1,
,,,,,,,,,,,,,,,,,,5dcf0e94fce60605794da411,2020-08-10_13h09.28.793,lexical_decision_task_MP,2020.1.3,Win32,60,z,1,,,,,,,,0.827,1,,,,,,363,NW,"ID",50,breali,BREALI,z,0.827,,,,,,0.480555556,-0.127777778,0,0,0,,0,366,366,302,1,
,,,,,,,,,,,,,,,,,,5dcf0e94fce60605794da411,2020-08-10_13h09.28.793,lexical_decision_task_MP,2020.1.3,Win32,60,z,1,,,,,,,,0.718,1,,,,,,368,NW,"ID",50,hornal,HORNAL,z,0.718,,,,,,0.480555556,-0.127777778,0,0,0,,0,367,367,307,1,
,,,,,,,,,,,,,,,,,,5dcf0e94fce60605794da411,2020-08-10_13h09.28.793,lexical_decision_task_MP,2020.1.3,Win32,60,z,1,,,,,,,,0.694,1,,,,,,263,NW,UN,50,vackel,DOLICA,z,0.694,,,,,,0.480555556,-0.127777778,0,0,0,,0,368,368,442,1,
,,,,,,,,,,,,,,,,,,5dcf0e94fce60605794da411,2020-08-10_13h09.28.793,lexical_decision_task_MP,2020.1.3,Win32,60,z,1,,,,,,,,0.67,1,,,,,,306,NW,"ID",33,sounge,SOUNGE,z,0.67,,,,,,0.480555556,-0.127777778,0,0,0,,0,369,369,245,1,
,,,,,,,,,,,,,,,,,,5dcf0e94fce60605794da411,2020-08-10_13h09.28.793,lexical_decision_task_MP,2020.1.3,Win32,60,z,1,,,,,,,,0.689,1,,,,,,459,NW,UN,33,mingar,BAFENT,z,0.689,,,,,,0.480555556,-0.127777778,0,0,0,,0,370,370,398,1,
,,,,,,,,,,,,,,,,,,5dcf0e94fce60605794da411,2020-08-10_13h09.28.793,lexical_decision_task_MP,2020.1.3,Win32,60,z,1,,,,,,,,0.721,1,,,,,,313,NW,"ID",33,paurse,PAURSE,z,0.721,,,,,,0.480555556,-0.127777778,0,0,0,,0,371,371,252,1,
,,,,,,,,,,,,,,,,,,5dcf0e94fce60605794da411,2020-08-10_13h09.28.793,lexical_decision_task_MP,2020.1.3,Win32,60,m,1,,,,,,,,0.665,1,,,,,,231,WORD,UN,33,inject,EXPORT,m,0.665,,,,,,0.480555556,-0.127777778,0,0,0,,0,372,372,170,1,
,,,,,,,,,,,,,,,,,,5dcf0e94fce60605794da411,2020-08-10_13h09.28.793,lexical_decision_task_MP,2020.1.3,Win32,60,m,1,,,,,,,,0.679,1,,,,,,122,WORD,"ID",50,linger,LINGER,m,0.679,,,,,,0.480555556,-0.127777778,0,0,0,,0,373,373,61,1,
,,,,,,,,,,,,,,,,,,5dcf0e94fce60605794da411,2020-08-10_13h09.28.793,lexical_decision_task_MP,2020.1.3,Win32,60,m,1,,,,,,,,0.68,1,,,,,,26,WORD,UN,50,butler,SPRINT,m,0.68,,,,,,0.480555556,-0.127777778,0,0,0,,0,374,374,205,1,
,,,,,,,,,,,,,,,,,,5dcf0e94fce60605794da411,2020-08-10_13h09.28.793,lexical_decision_task_MP,2020.1.3,Win32,60,z,1,,,,,,,,0.736,1,,,,,,280,NW,UN,50,melaty,CURBOL,z,0.736,,,,,,0.480555556,-0.127777778,0,0,0,,0,375,375,459,1,
,,,,,,,,,,,,,,,,,,5dcf0e94fce60605794da411,2020-08-10_13h09.28.793,lexical_decision_task_MP,2020.1.3,Win32,60,z,1,,,,,,,,0.658,1,,,,,,400,NW,"ID",50,wearox,WEAROX,z,0.658,,,,,,0.480555556,-0.127777778,0,0,0,,0,376,376,339,1,
,,,,,,,,,,,,,,,,,,5dcf0e94fce60605794da411,2020-08-10_13h09.28.793,lexical_decision_task_MP,2020.1.3,Win32,60,m,1,,,,,,,,0.737,1,,,,,,14,WORD,UN,50,orange,ALMOST,m,0.737,,,,,,0.480555556,-0.127777778,0,0,0,,0,377,377,193,1,
,,,,,,,,,,,,,,,,,,5dcf0e94fce60605794da411,2020-08-10_13h09.28.793,lexical_decision_task_MP,2020.1.3,Win32,60,m,1,,,,,,,,0.701,1,,,,,,64,WORD,"ID",33,throne,THRONE,m,0.701,,,,,,0.480555556,-0.127777778,0,0,0,,0,378,378,3,1,
,,,,,,,,,,,,,,,,,,5dcf0e94fce60605794da411,2020-08-10_13h09.28.793,lexical_decision_task_MP,2020.1.3,Win32,60,z,1,,,,,,,,0.72,1,,,,,,315,NW,"ID",33,laston,LASTON,z,0.72,,,,,,0.480555556,-0.127777778,0,0,0,,0,379,379,254,1,
,,,,,,,,,,,,,,,,,,5dcf0e94fce60605794da411,2020-08-10_13h09.28.793,lexical_decision_task_MP,2020.1.3,Win32,60,m,1,,,,,,,,0.864,1,,,,,,81,WORD,"ID",33,friend,FRIEND,m,0.864,,,,,,0.480555556,-0.127777778,0,0,0,,0,380,380,20,1,
,,,,,,,,,,,,,,,,,,5dcf0e94fce60605794da411,2020-08-10_13h09.28.793,lexical_decision_task_MP,2020.1.3,Win32,60,z,1,,,,,,,,0.827,1,,,,,,382,NW,"ID",50,sarley,SARLEY,z,0.827,,,,,,0.480555556,-0.127777778,0,0,0,,0,381,381,321,1,
,,,,,,,,,,,,,,,,,,5dcf0e94fce60605794da411,2020-08-10_13h09.28.793,lexical_decision_task_MP,2020.1.3,Win32,60,z,1,,,,,,,,0.818,1,,,,,,244,NW,UN,50,anougs,EATRIC,z,0.818,,,,,,0.480555556,-0.127777778,0,0,0,,0,382,382,423,1,
,,,,,,,,,,,,,,,,,,5dcf0e94fce60605794da411,2020-08-10_13h09.28.793,lexical_decision_task_MP,2020.1.3,Win32,60,z,1,,,,,,,,0.692,1,,,,,,417,NW,"ID",50,earoud,EAROUD,z,0.692,,,,,,0.480555556,-0.127777778,0,0,0,,0,383,383,356,1,
,,,,,,,,,,,,,,,,,,5dcf0e94fce60605794da411,2020-08-10_13h09.28.793,lexical_decision_task_MP,2020.1.3,Win32,60,m,1,,,,,,,,0.737,1,,,,,,190,WORD,UN,33,stable,BACKUP,m,0.737,,,,,,0.480555556,-0.127777778,0,0,0,,0,384,384,129,1,
,,,,,,,,,,,,,,,,,,5dcf0e94fce60605794da411,2020-08-10_13h09.28.793,lexical_decision_task_MP,2020.1.3,Win32,60,z,1,,,,,,,,0.861,1,,,,,,305,NW,"ID",33,forgle,FORGLE,z,0.861,,,,,,0.480555556,-0.127777778,0,0,0,,0,385,385,244,1,
,,,,,,,,,,,,,,,,,,5dcf0e94fce60605794da411,2020-08-10_13h09.28.793,lexical_decision_task_MP,2020.1.3,Win32,60,z,1,,,,,,,,0.961,1,,,,,,345,NW,"ID",33,absend,ABSEND,z,0.961,,,,,,0.480555556,-0.127777778,0,0,0,,0,386,386,284,1,
,,,,,,,,,,,,,,,,,,5dcf0e94fce60605794da411,2020-08-10_13h09.28.793,lexical_decision_task_MP,2020.1.3,Win32,60,m,1,,,,,,,,0.902,1,,,,,,112,WORD,"ID",33,breath,BREATH,m,0.902,,,,,,0.480555556,-0.127777778,0,0,0,,0,387,387,51,1,
,,,,,,,,,,,,,,,,,,5dcf0e94fce60605794da411,2020-08-10_13h09.28.793,lexical_decision_task_MP,2020.1.3,Win32,60,m,1,,,,,,,,0.718,1,,,,,,22,WORD,UN,50,wealth,JOCKEY,m,0.718,,,,,,0.480555556,-0.127777778,0,0,0,,0,388,388,201,1,
,,,,,,,,,,,,,,,,,,5dcf0e94fce60605794da411,2020-08-10_13h09.28.793,lexical_decision_task_MP,2020.1.3,Win32,60,m,1,,,,,,,,0.657,1,,,,,,143,WORD,"ID",50,reason,REASON,m,0.657,,,,,,0.480555556,-0.127777778,0,0,0,,0,389,389,82,1,
,,,,,,,,,,,,,,,,,,5dcf0e94fce60605794da411,2020-08-10_13h09.28.793,lexical_decision_task_MP,2020.1.3,Win32,60,z,1,,,,,,,,0.804,1,,,,,,284,NW,UN,50,prudge,SHAPLE,z,0.804,,,,,,0.480555556,-0.127777778,0,0,0,,0,390,390,463,1,
,,,,,,,,,,,,,,,,,,5dcf0e94fce60605794da411,2020-08-10_13h09.28.793,lexical_decision_task_MP,2020.1.3,Win32,60,z,1,,,,,,,,0.983,1,,,,,,418,NW,"ID",50,suidle,SUIDLE,z,0.983,,,,,,0.480555556,-0.127777778,0,0,0,,0,391,391,357,1,
,,,,,,,,,,,,,,,,,,5dcf0e94fce60605794da411,2020-08-10_13h09.28.793,lexical_decision_task_MP,2020.1.3,Win32,60,m,1,,,,,,,,0.664,1,,,,,,167,WORD,"ID",50,design,DESIGN,m,0.664,,,,,,0.480555556,-0.127777778,0,0,0,,0,392,392,106,1,
,,,,,,,,,,,,,,,,,,5dcf0e94fce60605794da411,2020-08-10_13h09.28.793,lexical_decision_task_MP,2020.1.3,Win32,60,m,1,,,,,,,,0.725,1,,,,,,55,WORD,UN,50,ambush,STROKE,m,0.725,,,,,,0.480555556,-0.127777778,0,0,0,,0,393,393,234,1,
,,,,,,,,,,,,,,,,,,5dcf0e94fce60605794da411,2020-08-10_13h09.28.793,lexical_decision_task_MP,2020.1.3,Win32,60,m,1,,,,,,,,0.791,1,,,,,,219,WORD,UN,33,voyage,BUCKET,m,0.791,,,,,,0.480555556,-0.127777778,0,0,0,,0,394,394,158,1,
,,,,,,,,,,,,,,,,,,5dcf0e94fce60605794da411,2020-08-10_13h09.28.793,lexical_decision_task_MP,2020.1.3,Win32,60,z,1,,,,,,,,0.875,1,,,,,,438,NW,UN,33,limpor,BAITCH,z,0.875,,,,,,0.480555556,-0.127777778,0,0,0,,0,395,395,377,1,
,,,,,,,,,,,,,,,,,,5dcf0e94fce60605794da411,2020-08-10_13h09.28.793,lexical_decision_task_MP,2020.1.3,Win32,60,m,1,,,,,,,,0.717,1,,,,,,133,WORD,"ID",50,chrome,CHROME,m,0.717,,,,,,0.480555556,-0.127777778,0,0,0,,0,396,396,72,1,
,,,,,,,,,,,,,,,,,,5dcf0e94fce60605794da411,2020-08-10_13h09.28.793,lexical_decision_task_MP,2020.1.3,Win32,60,z,1,,,,,,,,0.875,1,,,,,,425,NW,UN,33,urivel,FRUDGE,z,0.875,,,,,,0.480555556,-0.127777778,0,0,0,,0,397,397,364,1,
,,,,,,,,,,,,,,,,,,5dcf0e94fce60605794da411,2020-08-10_13h09.28.793,lexical_decision_task_MP,2020.1.3,Win32,60,z,1,,,,,,,,0.817,1,,,,,,289,NW,UN,50,splino,STARBY,z,0.817,,,,,,0.480555556,-0.127777778,0,0,0,,0,398,398,468,1,
,,,,,,,,,,,,,,,,,,5dcf0e94fce60605794da411,2020-08-10_13h09.28.793,lexical_decision_task_MP,2020.1.3,Win32,60,z,1,,,,,,,,0.904,1,,,,,,462,NW,UN,33,kispel,ABSULT,z,0.904,,,,,,0.480555556,-0.127777778,0,0,0,,0,399,399,401,1,
,,,,,,,,,,,,,,,,,,5dcf0e94fce60605794da411,2020-08-10_13h09.28.793,lexical_decision_task_MP,2020.1.3,Win32,60,z,1,,,,,,,,0.702,1,,,,,,265,NW,UN,50,varmit,DISTAR,z,0.702,,,,,,0.480555556,-0.127777778,0,0,0,,0,400,400,444,1,
,,,,,,,,,,,,,,,,,,5dcf0e94fce60605794da411,2020-08-10_13h09.28.793,lexical_decision_task_MP,2020.1.3,Win32,60,z,1,,,,,,,,0.724,1,,,,,,309,NW,"ID",33,amiloy,AMILOY,z,0.724,,,,,,0.480555556,-0.127777778,0,0,0,,0,401,401,248,1,
,,,,,,,,,,,,,,,,,,5dcf0e94fce60605794da411,2020-08-10_13h09.28.793,lexical_decision_task_MP,2020.1.3,Win32,60,m,1,,,,,,,,0.708,1,,,,,,91,WORD,"ID",33,expand,EXPAND,m,0.708,,,,,,0.480555556,-0.127777778,0,0,0,,0,402,402,30,1,
,,,,,,,,,,,,,,,,,,5dcf0e94fce60605794da411,2020-08-10_13h09.28.793,lexical_decision_task_MP,2020.1.3,Win32,60,m,1,,,,,,,,0.687,1,,,,,,57,WORD,UN,50,danger,CHANGE,m,0.687,,,,,,0.480555556,-0.127777778,0,0,0,,0,403,403,236,1,
,,,,,,,,,,,,,,,,,,5dcf0e94fce60605794da411,2020-08-10_13h09.28.793,lexical_decision_task_MP,2020.1.3,Win32,60,m,1,,,,,,,,0.731,1,,,,,,172,WORD,"ID",50,patrol,PATROL,m,0.731,,,,,,0.480555556,-0.127777778,0,0,0,,0,404,404,111,1,
,,,,,,,,,,,,,,,,,,5dcf0e94fce60605794da411,2020-08-10_13h09.28.793,lexical_decision_task_MP,2020.1.3,Win32,60,z,1,,,,,,,,0.684,1,,,,,,384,NW,"ID",50,guesco,GUESCO,z,0.684,,,,,,0.480555556,-0.127777778,0,0,0,,0,405,405,323,1,
,,,,,,,,,,,,,,,,,,5dcf0e94fce60605794da411,2020-08-10_13h09.28.793,lexical_decision_task_MP,2020.1.3,Win32,60,m,1,,,,,,,,0.818,1,,,,,,169,WORD,"ID",50,genius,GENIUS,m,0.818,,,,,,0.480555556,-0.127777778,0,0,0,,0,406,406,108,1,
,,,,,,,,,,,,,,,,,,5dcf0e94fce60605794da411,2020-08-10_13h09.28.793,lexical_decision_task_MP,2020.1.3,Win32,60,m,1,,,,,,,,0.702,1,,,,,,1,WORD,UN,50,ethnic,FRIGHT,m,0.702,,,,,,0.480555556,-0.127777778,0,0,0,,0,407,407,180,1,
,,,,,,,,,,,,,,,,,,5dcf0e94fce60605794da411,2020-08-10_13h09.28.793,lexical_decision_task_MP,2020.1.3,Win32,60,z,1,,,,,,,,0.708,1,,,,,,327,NW,"ID",33,plenac,PLENAC,z,0.708,,,,,,0.480555556,-0.127777778,0,0,0,,0,408,408,266,1,
,,,,,,,,,,,,,,,,,,5dcf0e94fce60605794da411,2020-08-10_13h09.28.793,lexical_decision_task_MP,2020.1.3,Win32,60,z,1,,,,,,,,0.764,1,,,,,,304,NW,"ID",33,cludie,CLUDIE,z,0.764,,,,,,0.480555556,-0.127777778,0,0,0,,0,409,409,243,1,
,,,,,,,,,,,,,,,,,,5dcf0e94fce60605794da411,2020-08-10_13h09.28.793,lexical_decision_task_MP,2020.1.3,Win32,60,m,1,,,,,,,,0.771,1,,,,,,98,WORD,"ID",33,belong,BELONG,m,0.771,,,,,,0.480555556,-0.127777778,0,0,0,,0,410,410,37,1,
,,,,,,,,,,,,,,,,,,5dcf0e94fce60605794da411,2020-08-10_13h09.28.793,lexical_decision_task_MP,2020.1.3,Win32,60,m,1,,,,,,,,0.721,1,,,,,,239,WORD,UN,33,forest,LUMBER,m,0.721,,,,,,0.480555556,-0.127777778,0,0,0,,0,411,411,178,1,
,,,,,,,,,,,,,,,,,,5dcf0e94fce60605794da411,2020-08-10_13h09.28.793,lexical_decision_task_MP,2020.1.3,Win32,60,m,1,,,,,,,,0.698,1,,,,,,211,WORD,UN,33,verify,INFECT,m,0.698,,,,,,0.480555556,-0.127777778,0,0,0,,0,412,412,150,1,
,,,,,,,,,,,,,,,,,,5dcf0e94fce60605794da411,2020-08-10_13h09.28.793,lexical_decision_task_MP,2020.1.3,Win32,60,m,1,,,,,,,,0.786,1,,,,,,131,WORD,"ID",50,quench,QUENCH,m,0.786,,,,,,0.480555556,-0.127777778,0,0,0,,0,413,413,70,1,
