counterbalancing_condition,instr_done_keyboard.keys,instr_done_touch.x,instr_done_touch.y,instr_done_touch.leftButton,instr_done_touch.midButton,instr_done_touch.rightButton,instr_done_touch.clicked_name,instruction_pages.thisRepN,instruction_pages.thisTrialN,instruction_pages.thisN,instruction_pages.thisIndex,instruction_pages.ran,pageN,phase,instruct_text,has_image,instruct_image,participant,date,expName,psychopyVersion,OS,frameRate,instr_done_keyboard.rt,response.keys,response.corr,response.rt,touch_resp.x,touch_resp.y,touch_resp.leftButton,touch_resp.midButton,touch_resp.rightButton,touch_resp.time,touch_resp.clicked_name,rt,corr,practice_trials.thisRepN,practice_trials.thisTrialN,practice_trials.thisN,practice_trials.thisIndex,practice_trials.ran,TrialID,StimulusType,Condition,PrimeDuration,Prime,Target,corrAns,end_of_practice_trials_pages.thisRepN,end_of_practice_trials_pages.thisTrialN,end_of_practice_trials_pages.thisN,end_of_practice_trials_pages.thisIndex,end_of_practice_trials_pages.ran,break_done_touch.x,break_done_touch.y,break_done_touch.leftButton,break_done_touch.midButton,break_done_touch.rightButton,break_done_keyboard.keys,trials.thisRepN,trials.thisTrialN,trials.thisN,trials.thisIndex,trials.ran,break_done_touch.clicked_name
3,,-0.030555556,-0.409259259,1,0,0,instr_done_button,0,0,0,0,1,1,instructions,"INSTRUCTIONS
At the start of each trial, look at the hash marks (######) in the center of the screen. After a moment, a string of letters will appear. Your task is to indicate if the letter string forms a word or not (i.e., if it is a nonword). For example, AUTHOR is a word while AUTHON is a nonword.

Press the space bar or touch the button below to continue.",0,,5dd03b1749f607128e66ca09,2020-08-10_10h17.46.444,lexical_decision_task_MP,2020.1.3,Win32,60,,,,,,,,,,,,,,,,,,,,,,,,,,,,,,,,,,,,,,,,,,
,,-0.021296296,-0.424074074,1,0,0,instr_done_button,0,1,1,1,1,2,instructions,"If your device has a keyboard, press the 'Z' key for nonwords and the 'M' key for words.





Press the space bar or touch the button below to continue.",1,keyboard-example.gif,5dd03b1749f607128e66ca09,2020-08-10_10h17.46.444,lexical_decision_task_MP,2020.1.3,Win32,60,,,,,,,,,,,,,,,,,,,,,,,,,,,,,,,,,,,,,,,,,,
,space,0.065740741,-0.4,0,0,0,,0,2,2,2,1,3,instructions,"If you are using a touchscreen only device, use the buttons on the screen. Do not use the mouse.





Press the space bar or touch the button below to continue.",1,touchscreen-example.gif,5dd03b1749f607128e66ca09,2020-08-10_10h17.46.444,lexical_decision_task_MP,2020.1.3,Win32,60,6.98821,,,,,,,,,,,,,,,,,,,,,,,,,,,,,,,,,,,,,,,,,
,,-0.000925926,-0.375925926,1,0,0,instr_done_button,0,3,3,3,1,4,instructions,"It is very important that you respond as quickly and accurately as possible, as each letter string will only be on the screen for two seconds. If you do not respond within this time, the message 'Too slow!' will be displayed and the experiment will progress to the next letter string. The first 20 trials will be practice trials and you will receive feedback on your answers. 

Press the space bar or touch the button below to start the practice trials.",0,,5dd03b1749f607128e66ca09,2020-08-10_10h17.46.444,lexical_decision_task_MP,2020.1.3,Win32,60,,,,,,,,,,,,,,,,,,,,,,,,,,,,,,,,,,,,,,,,,,
,,,,,,,,,,,,,,,,,,5dd03b1749f607128e66ca09,2020-08-10_10h17.46.444,lexical_decision_task_MP,2020.1.3,Win32,60,,z,1,1.43119,,,,,,,,1.43119,1,0,0,0,11,1,1012,NW,"ID",50,rashet,RASHET,z,,,,,,,,,,,,,,,,,
,,,,,,,,,,,,,,,,,,5dd03b1749f607128e66ca09,2020-08-10_10h17.46.444,lexical_decision_task_MP,2020.1.3,Win32,60,,z,1,0.81844,,,,,,,,0.81844,1,0,1,1,14,1,1015,NW,UN,50,miaber,THRALE,z,,,,,,,,,,,,,,,,,
,,,,,,,,,,,,,,,,,,5dd03b1749f607128e66ca09,2020-08-10_10h17.46.444,lexical_decision_task_MP,2020.1.3,Win32,60,,m,1,0.64499,,,,,,,,0.64499,1,0,2,2,4,1,1005,WORD,UN,33,abound,SQUEAK,m,,,,,,,,,,,,,,,,,
,,,,,,,,,,,,,,,,,,5dd03b1749f607128e66ca09,2020-08-10_10h17.46.444,lexical_decision_task_MP,2020.1.3,Win32,60,,z,1,0.70053,,,,,,,,0.70053,1,0,3,3,15,1,1016,NW,UN,50,mushed,WHAISE,z,,,,,,,,,,,,,,,,,
,,,,,,,,,,,,,,,,,,5dd03b1749f607128e66ca09,2020-08-10_10h17.46.444,lexical_decision_task_MP,2020.1.3,Win32,60,,z,1,0.92796,,,,,,,,0.92796,1,0,4,4,8,1,1009,NW,"ID",33,aslert,ASLERT,z,,,,,,,,,,,,,,,,,
,,,,,,,,,,,,,,,,,,5dd03b1749f607128e66ca09,2020-08-10_10h17.46.444,lexical_decision_task_MP,2020.1.3,Win32,60,,m,1,0.589495,,,,,,,,0.589495,1,0,5,5,2,1,1003,WORD,"ID",50,almond,ALMOND,m,,,,,,,,,,,,,,,,,
,,,,,,,,,,,,,,,,,,5dd03b1749f607128e66ca09,2020-08-10_10h17.46.444,lexical_decision_task_MP,2020.1.3,Win32,60,,z,1,0.841225,,,,,,,,0.841225,1,0,6,6,13,1,1014,NW,UN,33,winfer,ROUPET,z,,,,,,,,,,,,,,,,,
,,,,,,,,,,,,,,,,,,5dd03b1749f607128e66ca09,2020-08-10_10h17.46.444,lexical_decision_task_MP,2020.1.3,Win32,60,,z,1,0.84625,,,,,,,,0.84625,1,0,7,7,12,1,1013,NW,UN,33,adveil,SPRINY,z,,,,,,,,,,,,,,,,,
,,,,,,,,,,,,,,,,,,5dd03b1749f607128e66ca09,2020-08-10_10h17.46.444,lexical_decision_task_MP,2020.1.3,Win32,60,,m,1,0.828535,,,,,,,,0.828535,1,0,8,8,0,1,1001,WORD,"ID",33,utopia,UTOPIA,m,,,,,,,,,,,,,,,,,
,,,,,,,,,,,,,,,,,,5dd03b1749f607128e66ca09,2020-08-10_10h17.46.444,lexical_decision_task_MP,2020.1.3,Win32,60,,m,1,0.631435,,,,,,,,0.631435,1,0,9,9,3,1,1004,WORD,"ID",50,matrix,MATRIX,m,,,,,,,,,,,,,,,,,
,,,,,,,,,,,,,,,,,,5dd03b1749f607128e66ca09,2020-08-10_10h17.46.444,lexical_decision_task_MP,2020.1.3,Win32,60,,m,1,0.707265,,,,,,,,0.707265,1,0,10,10,1,1,1002,WORD,"ID",33,adjust,ADJUST,m,,,,,,,,,,,,,,,,,
,,,,,,,,,,,,,,,,,,5dd03b1749f607128e66ca09,2020-08-10_10h17.46.444,lexical_decision_task_MP,2020.1.3,Win32,60,,m,1,0.47492,,,,,,,,0.47492,1,0,11,11,7,1,1008,WORD,UN,50,hurdle,VOLUME,m,,,,,,,,,,,,,,,,,
,,,,,,,,,,,,,,,,,,5dd03b1749f607128e66ca09,2020-08-10_10h17.46.444,lexical_decision_task_MP,2020.1.3,Win32,60,,z,1,1.14666,,,,,,,,1.14666,1,0,12,12,10,1,1011,NW,"ID",50,inlade,INLADE,z,,,,,,,,,,,,,,,,,
,,,,,,,,,,,,,,,,,,5dd03b1749f607128e66ca09,2020-08-10_10h17.46.444,lexical_decision_task_MP,2020.1.3,Win32,60,,m,1,0.955815,,,,,,,,0.955815,1,0,13,13,6,1,1007,WORD,UN,50,tropic,ZOMBIE,m,,,,,,,,,,,,,,,,,
,,,,,,,,,,,,,,,,,,5dd03b1749f607128e66ca09,2020-08-10_10h17.46.444,lexical_decision_task_MP,2020.1.3,Win32,60,,m,1,0.6894,,,,,,,,0.6894,1,0,14,14,5,1,1006,WORD,UN,33,frenzy,OBTAIN,m,,,,,,,,,,,,,,,,,
,,,,,,,,,,,,,,,,,,5dd03b1749f607128e66ca09,2020-08-10_10h17.46.444,lexical_decision_task_MP,2020.1.3,Win32,60,,z,1,0.800255,,,,,,,,0.800255,1,0,15,15,9,1,1010,NW,"ID",33,fariny,FARINY,z,,,,,,,,,,,,,,,,,
,,-0.05462963,-0.387037037,1,0,0,instr_done_button,,,,,,1,end_of_practice,"You have completed the practice trials. During the experimental trials, you will not receive feedback, but it is very important that you respond as quickly and accurately as possible. 
Before you begin, please ensure that you are in a comfortable and quiet location and will not be disturbed for about 15 minutes, as we cannot use your data if you do not complete all the trials. 
There will be opportunities to take breaks at regular intervals during the experiment. When you are ready to start the experimental trials, please press space or touch the button below.",,,5dd03b1749f607128e66ca09,2020-08-10_10h17.46.444,lexical_decision_task_MP,2020.1.3,Win32,60,,,,,,,,,,,,,,,,,,,,,,,,,,0,0,0,0,1,,,,,,,,,,,,
,,,,,,,,,,,,,,,,,,5dd03b1749f607128e66ca09,2020-08-10_10h17.46.444,lexical_decision_task_MP,2020.1.3,Win32,60,,m,1,1.13369,,,,,,,,1.13369,1,,,,,,177,WORD,"ID",50,advent,ADVENT,m,,,,,,-0.043518519,-0.366666667,0,0,0,,0,0,0,116,1,
,,,,,,,,,,,,,,,,,,5dd03b1749f607128e66ca09,2020-08-10_10h17.46.444,lexical_decision_task_MP,2020.1.3,Win32,60,,z,1,0.96567,,,,,,,,0.96567,1,,,,,,460,NW,UN,33,justre,MINGAR,z,,,,,,-0.042592593,-0.366666667,0,0,0,,0,1,1,399,1,
,,,,,,,,,,,,,,,,,,5dd03b1749f607128e66ca09,2020-08-10_10h17.46.444,lexical_decision_task_MP,2020.1.3,Win32,60,,z,1,0.859535,,,,,,,,0.859535,1,,,,,,352,NW,"ID",33,tringe,TRINGE,z,,,,,,-0.042592593,-0.366666667,0,0,0,,0,2,2,291,1,
,,,,,,,,,,,,,,,,,,5dd03b1749f607128e66ca09,2020-08-10_10h17.46.444,lexical_decision_task_MP,2020.1.3,Win32,60,,m,1,0.64797,,,,,,,,0.64797,1,,,,,,162,WORD,"ID",50,candle,CANDLE,m,,,,,,-0.042592593,-0.366666667,0,0,0,,0,3,3,101,1,
,,,,,,,,,,,,,,,,,,5dd03b1749f607128e66ca09,2020-08-10_10h17.46.444,lexical_decision_task_MP,2020.1.3,Win32,60,,m,1,0.51924,,,,,,,,0.51924,1,,,,,,163,WORD,"ID",50,string,STRING,m,,,,,,-0.042592593,-0.366666667,0,0,0,,0,4,4,102,1,
,,,,,,,,,,,,,,,,,,5dd03b1749f607128e66ca09,2020-08-10_10h17.46.444,lexical_decision_task_MP,2020.1.3,Win32,60,,z,1,0.588405,,,,,,,,0.588405,1,,,,,,350,NW,"ID",33,nagurs,NAGURS,z,,,,,,-0.042592593,-0.366666667,0,0,0,,0,5,5,289,1,
,,,,,,,,,,,,,,,,,,5dd03b1749f607128e66ca09,2020-08-10_10h17.46.444,lexical_decision_task_MP,2020.1.3,Win32,60,,z,1,1.044115,,,,,,,,1.044115,1,,,,,,260,NW,UN,50,stunch,UNJECT,z,,,,,,-0.042592593,-0.366666667,0,0,0,,0,6,6,439,1,
,,,,,,,,,,,,,,,,,,5dd03b1749f607128e66ca09,2020-08-10_10h17.46.444,lexical_decision_task_MP,2020.1.3,Win32,60,,m,1,0.66779,,,,,,,,0.66779,1,,,,,,13,WORD,UN,50,almost,STRIVE,m,,,,,,-0.041666667,-0.366666667,0,0,0,,0,7,7,192,1,
,,,,,,,,,,,,,,,,,,5dd03b1749f607128e66ca09,2020-08-10_10h17.46.444,lexical_decision_task_MP,2020.1.3,Win32,60,,m,1,0.46425,,,,,,,,0.46425,1,,,,,,144,WORD,"ID",50,sponge,SPONGE,m,,,,,,-0.040740741,-0.366666667,0,0,0,,0,8,8,83,1,
,,,,,,,,,,,,,,,,,,5dd03b1749f607128e66ca09,2020-08-10_10h17.46.444,lexical_decision_task_MP,2020.1.3,Win32,60,,z,1,0.680805,,,,,,,,0.680805,1,,,,,,242,NW,UN,50,musied,UNWERT,z,,,,,,-0.039814815,-0.366666667,0,0,0,,0,9,9,421,1,
,,,,,,,,,,,,,,,,,,5dd03b1749f607128e66ca09,2020-08-10_10h17.46.444,lexical_decision_task_MP,2020.1.3,Win32,60,,z,1,0.674195,,,,,,,,0.674195,1,,,,,,265,NW,UN,50,varmit,DISTAR,z,,,,,,-0.039814815,-0.366666667,0,0,0,,0,10,10,444,1,
,,,,,,,,,,,,,,,,,,5dd03b1749f607128e66ca09,2020-08-10_10h17.46.444,lexical_decision_task_MP,2020.1.3,Win32,60,,m,1,1.25212,,,,,,,,1.25212,1,,,,,,107,WORD,"ID",33,slogan,SLOGAN,m,,,,,,-0.038888889,-0.366666667,0,0,0,,0,11,11,46,1,
,,,,,,,,,,,,,,,,,,5dd03b1749f607128e66ca09,2020-08-10_10h17.46.444,lexical_decision_task_MP,2020.1.3,Win32,60,,z,1,0.700505,,,,,,,,0.700505,1,,,,,,455,NW,UN,33,broget,TONDLE,z,,,,,,-0.038888889,-0.366666667,0,0,0,,0,12,12,394,1,
,,,,,,,,,,,,,,,,,,5dd03b1749f607128e66ca09,2020-08-10_10h17.46.444,lexical_decision_task_MP,2020.1.3,Win32,60,,z,1,0.62522,,,,,,,,0.62522,1,,,,,,292,NW,UN,50,swance,ABLINT,z,,,,,,-0.037037037,-0.365740741,0,0,0,,0,13,13,471,1,
,,,,,,,,,,,,,,,,,,5dd03b1749f607128e66ca09,2020-08-10_10h17.46.444,lexical_decision_task_MP,2020.1.3,Win32,60,,z,1,1.067625,,,,,,,,1.067625,1,,,,,,281,NW,UN,50,porlex,MELATY,z,,,,,,-0.037037037,-0.365740741,0,0,0,,0,14,14,460,1,
,,,,,,,,,,,,,,,,,,5dd03b1749f607128e66ca09,2020-08-10_10h17.46.444,lexical_decision_task_MP,2020.1.3,Win32,60,,m,1,0.5878,,,,,,,,0.5878,1,,,,,,67,WORD,"ID",33,policy,POLICY,m,,,,,,-0.037037037,-0.365740741,0,0,0,,0,15,15,6,1,
,,,,,,,,,,,,,,,,,,5dd03b1749f607128e66ca09,2020-08-10_10h17.46.444,lexical_decision_task_MP,2020.1.3,Win32,60,,z,1,0.66861,,,,,,,,0.66861,1,,,,,,272,NW,UN,50,sortel,DAMILT,z,,,,,,-0.037037037,-0.365740741,0,0,0,,0,16,16,451,1,
,,,,,,,,,,,,,,,,,,5dd03b1749f607128e66ca09,2020-08-10_10h17.46.444,lexical_decision_task_MP,2020.1.3,Win32,60,,z,1,0.94879,,,,,,,,0.94879,1,,,,,,413,NW,"ID",50,equats,EQUATS,z,,,,,,-0.035185185,-0.365740741,0,0,0,,0,17,17,352,1,
,,,,,,,,,,,,,,,,,,5dd03b1749f607128e66ca09,2020-08-10_10h17.46.444,lexical_decision_task_MP,2020.1.3,Win32,60,,m,1,0.70084,,,,,,,,0.70084,1,,,,,,134,WORD,"ID",50,staple,STAPLE,m,,,,,,-0.035185185,-0.365740741,0,0,0,,0,18,18,73,1,
,,,,,,,,,,,,,,,,,,5dd03b1749f607128e66ca09,2020-08-10_10h17.46.444,lexical_decision_task_MP,2020.1.3,Win32,60,,z,1,0.65311,,,,,,,,0.65311,1,,,,,,355,NW,"ID",33,zingly,ZINGLY,z,,,,,,-0.035185185,-0.365740741,0,0,0,,0,19,19,294,1,
,,,,,,,,,,,,,,,,,,5dd03b1749f607128e66ca09,2020-08-10_10h17.46.444,lexical_decision_task_MP,2020.1.3,Win32,60,,m,1,0.60161,,,,,,,,0.60161,1,,,,,,84,WORD,"ID",33,mortal,MORTAL,m,,,,,,-0.031481481,-0.365740741,0,0,0,,0,20,20,23,1,
,,,,,,,,,,,,,,,,,,5dd03b1749f607128e66ca09,2020-08-10_10h17.46.444,lexical_decision_task_MP,2020.1.3,Win32,60,,m,1,0.820445,,,,,,,,0.820445,1,,,,,,225,WORD,UN,33,casino,VULGAR,m,,,,,,-0.031481481,-0.365740741,0,0,0,,0,21,21,164,1,
,,,,,,,,,,,,,,,,,,5dd03b1749f607128e66ca09,2020-08-10_10h17.46.444,lexical_decision_task_MP,2020.1.3,Win32,60,,z,1,0.58905,,,,,,,,0.58905,1,,,,,,414,NW,"ID",50,serbol,SERBOL,z,,,,,,-0.031481481,-0.365740741,0,0,0,,0,22,22,353,1,
,,,,,,,,,,,,,,,,,,5dd03b1749f607128e66ca09,2020-08-10_10h17.46.444,lexical_decision_task_MP,2020.1.3,Win32,60,,m,1,0.60812,,,,,,,,0.60812,1,,,,,,209,WORD,UN,33,monkey,SEARCH,m,,,,,,-0.031481481,-0.365740741,0,0,0,,0,23,23,148,1,
,,,,,,,,,,,,,,,,,,5dd03b1749f607128e66ca09,2020-08-10_10h17.46.444,lexical_decision_task_MP,2020.1.3,Win32,60,,m,1,0.385315,,,,,,,,0.385315,1,,,,,,79,WORD,"ID",33,theory,THEORY,m,,,,,,-0.031481481,-0.365740741,0,0,0,,0,24,24,18,1,
,,,,,,,,,,,,,,,,,,5dd03b1749f607128e66ca09,2020-08-10_10h17.46.444,lexical_decision_task_MP,2020.1.3,Win32,60,,m,1,0.56859,,,,,,,,0.56859,1,,,,,,83,WORD,"ID",33,result,RESULT,m,,,,,,-0.031481481,-0.365740741,0,0,0,,0,25,25,22,1,
,,,,,,,,,,,,,,,,,,5dd03b1749f607128e66ca09,2020-08-10_10h17.46.444,lexical_decision_task_MP,2020.1.3,Win32,60,,m,1,0.602205,,,,,,,,0.602205,1,,,,,,51,WORD,UN,50,impose,HUNGRY,m,,,,,,-0.031481481,-0.365740741,0,0,0,,0,26,26,230,1,
,,,,,,,,,,,,,,,,,,5dd03b1749f607128e66ca09,2020-08-10_10h17.46.444,lexical_decision_task_MP,2020.1.3,Win32,60,,m,1,0.62793,,,,,,,,0.62793,1,,,,,,1,WORD,UN,50,ethnic,FRIGHT,m,,,,,,-0.031481481,-0.365740741,0,0,0,,0,27,27,180,1,
,,,,,,,,,,,,,,,,,,5dd03b1749f607128e66ca09,2020-08-10_10h17.46.444,lexical_decision_task_MP,2020.1.3,Win32,60,,m,1,0.64415,,,,,,,,0.64415,1,,,,,,45,WORD,UN,50,single,CLERGY,m,,,,,,-0.031481481,-0.365740741,0,0,0,,0,28,28,224,1,
,,,,,,,,,,,,,,,,,,5dd03b1749f607128e66ca09,2020-08-10_10h17.46.444,lexical_decision_task_MP,2020.1.3,Win32,60,,z,1,1.79579,,,,,,,,1.79579,1,,,,,,266,NW,UN,50,pasink,VARMIT,z,,,,,,-0.031481481,-0.365740741,0,0,0,,0,29,29,445,1,
,,,,,,,,,,,,,,,,,,5dd03b1749f607128e66ca09,2020-08-10_10h17.46.444,lexical_decision_task_MP,2020.1.3,Win32,60,,m,1,0.58178,,,,,,,,0.58178,1,,,,,,179,WORD,"ID",50,basket,BASKET,m,,,,,,-0.031481481,-0.365740741,0,0,0,,0,30,30,118,1,
,,,,,,,,,,,,,,,,,,5dd03b1749f607128e66ca09,2020-08-10_10h17.46.444,lexical_decision_task_MP,2020.1.3,Win32,60,,z,0,0.695055,,,,,,,,0.695055,0,,,,,,4,WORD,UN,50,plunge,TRENCH,m,,,,,,-0.031481481,-0.365740741,0,0,0,,0,31,31,183,1,
,,,,,,,,,,,,,,,,,,5dd03b1749f607128e66ca09,2020-08-10_10h17.46.444,lexical_decision_task_MP,2020.1.3,Win32,60,,m,1,0.51723,,,,,,,,0.51723,1,,,,,,76,WORD,"ID",33,exotic,EXOTIC,m,,,,,,-0.02962963,-0.365740741,0,0,0,,0,32,32,15,1,
,,,,,,,,,,,,,,,,,,5dd03b1749f607128e66ca09,2020-08-10_10h17.46.444,lexical_decision_task_MP,2020.1.3,Win32,60,,m,0,1.161705,,,,,,,,1.161705,0,,,,,,345,NW,"ID",33,absend,ABSEND,z,,,,,,-0.025,-0.365740741,0,0,0,,0,33,33,284,1,
,,,,,,,,,,,,,,,,,,5dd03b1749f607128e66ca09,2020-08-10_10h17.46.444,lexical_decision_task_MP,2020.1.3,Win32,60,,m,1,0.420695,,,,,,,,0.420695,1,,,,,,63,WORD,"ID",33,launch,LAUNCH,m,,,,,,-0.024074074,-0.365740741,0,0,0,,0,34,34,2,1,
,,,,,,,,,,,,,,,,,,5dd03b1749f607128e66ca09,2020-08-10_10h17.46.444,lexical_decision_task_MP,2020.1.3,Win32,60,,z,1,0.766605,,,,,,,,0.766605,1,,,,,,262,NW,UN,50,dolica,QUILEW,z,,,,,,0.000925926,-0.390740741,0,0,0,,0,35,35,441,1,
,,,,,,,,,,,,,,,,,,5dd03b1749f607128e66ca09,2020-08-10_10h17.46.444,lexical_decision_task_MP,2020.1.3,Win32,60,,m,1,1.034765,,,,,,,,1.034765,1,,,,,,59,WORD,UN,50,pencil,SPLINT,m,,,,,,0.000925926,-0.390740741,0,0,0,,0,36,36,238,1,
,,,,,,,,,,,,,,,,,,5dd03b1749f607128e66ca09,2020-08-10_10h17.46.444,lexical_decision_task_MP,2020.1.3,Win32,60,,z,1,0.58408,,,,,,,,0.58408,1,,,,,,466,NW,UN,33,robuly,HOCITE,z,,,,,,0.000925926,-0.390740741,0,0,0,,0,37,37,405,1,
,,,,,,,,,,,,,,,,,,5dd03b1749f607128e66ca09,2020-08-10_10h17.46.444,lexical_decision_task_MP,2020.1.3,Win32,60,,m,1,1.455505,,,,,,,,1.455505,1,,,,,,189,WORD,UN,33,backup,CENSOR,m,,,,,,0.000925926,-0.390740741,0,0,0,,0,38,38,128,1,
,,,,,,,,,,,,,,,,,,5dd03b1749f607128e66ca09,2020-08-10_10h17.46.444,lexical_decision_task_MP,2020.1.3,Win32,60,,m,1,0.54434,,,,,,,,0.54434,1,,,,,,39,WORD,UN,50,convey,INSECT,m,,,,,,0.000925926,-0.390740741,0,0,0,,0,39,39,218,1,
,,,,,,,,,,,,,,,,,,5dd03b1749f607128e66ca09,2020-08-10_10h17.46.444,lexical_decision_task_MP,2020.1.3,Win32,60,,z,1,0.856065,,,,,,,,0.856065,1,,,,,,401,NW,"ID",50,mustil,MUSTIL,z,,,,,,0.000925926,-0.390740741,0,0,0,,0,40,40,340,1,
,,,,,,,,,,,,,,,,,,5dd03b1749f607128e66ca09,2020-08-10_10h17.46.444,lexical_decision_task_MP,2020.1.3,Win32,60,,z,1,0.689935,,,,,,,,0.689935,1,,,,,,346,NW,"ID",33,saudic,SAUDIC,z,,,,,,0.000925926,-0.390740741,0,0,0,,0,41,41,285,1,
,,,,,,,,,,,,,,,,,,5dd03b1749f607128e66ca09,2020-08-10_10h17.46.444,lexical_decision_task_MP,2020.1.3,Win32,60,,m,1,0.56659,,,,,,,,0.56659,1,,,,,,14,WORD,UN,50,orange,ALMOST,m,,,,,,0.000925926,-0.390740741,0,0,0,,0,42,42,193,1,
,,,,,,,,,,,,,,,,,,5dd03b1749f607128e66ca09,2020-08-10_10h17.46.444,lexical_decision_task_MP,2020.1.3,Win32,60,,z,1,0.63521,,,,,,,,0.63521,1,,,,,,300,NW,UN,50,smenco,YARION,z,,,,,,0.000925926,-0.390740741,0,0,0,,0,43,43,479,1,
,,,,,,,,,,,,,,,,,,5dd03b1749f607128e66ca09,2020-08-10_10h17.46.444,lexical_decision_task_MP,2020.1.3,Win32,60,,z,1,0.625105,,,,,,,,0.625105,1,,,,,,301,NW,"ID",33,fainch,FAINCH,z,,,,,,0.000925926,-0.390740741,0,0,0,,0,44,44,240,1,
,,,,,,,,,,,,,,,,,,5dd03b1749f607128e66ca09,2020-08-10_10h17.46.444,lexical_decision_task_MP,2020.1.3,Win32,60,,z,1,0.77769,,,,,,,,0.77769,1,,,,,,454,NW,UN,33,tondle,SCOUGE,z,,,,,,0.000925926,-0.390740741,0,0,0,,0,45,45,393,1,
,,,,,,,,,,,,,,,,,,5dd03b1749f607128e66ca09,2020-08-10_10h17.46.444,lexical_decision_task_MP,2020.1.3,Win32,60,,m,1,0.588925,,,,,,,,0.588925,1,,,,,,70,WORD,"ID",33,square,SQUARE,m,,,,,,0.000925926,-0.390740741,0,0,0,,0,46,46,9,1,
,,,,,,,,,,,,,,,,,,5dd03b1749f607128e66ca09,2020-08-10_10h17.46.444,lexical_decision_task_MP,2020.1.3,Win32,60,,z,1,0.68554,,,,,,,,0.68554,1,,,,,,391,NW,"ID",50,theldy,THELDY,z,,,,,,0.000925926,-0.390740741,0,0,0,,0,47,47,330,1,
,,,,,,,,,,,,,,,,,,5dd03b1749f607128e66ca09,2020-08-10_10h17.46.444,lexical_decision_task_MP,2020.1.3,Win32,60,,z,1,1.01743,,,,,,,,1.01743,1,,,,,,389,NW,"ID",50,witmer,WITMER,z,,,,,,0.000925926,-0.390740741,0,0,0,,0,48,48,328,1,
,,,,,,,,,,,,,,,,,,5dd03b1749f607128e66ca09,2020-08-10_10h17.46.444,lexical_decision_task_MP,2020.1.3,Win32,60,,z,1,0.51625,,,,,,,,0.51625,1,,,,,,323,NW,"ID",33,rosail,ROSAIL,z,,,,,,0.000925926,-0.390740741,0,0,0,,0,49,49,262,1,
,,,,,,,,,,,,,,,,,,5dd03b1749f607128e66ca09,2020-08-10_10h17.46.444,lexical_decision_task_MP,2020.1.3,Win32,60,,m,1,0.616265,,,,,,,,0.616265,1,,,,,,223,WORD,UN,33,period,KIDNEY,m,,,,,,0.000925926,-0.390740741,0,0,0,,0,50,50,162,1,
,,,,,,,,,,,,,,,,,,5dd03b1749f607128e66ca09,2020-08-10_10h17.46.444,lexical_decision_task_MP,2020.1.3,Win32,60,,z,1,0.726775,,,,,,,,0.726775,1,,,,,,423,NW,UN,33,praile,STRELD,z,,,,,,0.000925926,-0.390740741,0,0,0,,0,51,51,362,1,
,,,,,,,,,,,,,,,,,,5dd03b1749f607128e66ca09,2020-08-10_10h17.46.444,lexical_decision_task_MP,2020.1.3,Win32,60,,z,1,0.656765,,,,,,,,0.656765,1,,,,,,383,NW,"ID",50,aungre,AUNGRE,z,,,,,,0.000925926,-0.390740741,0,0,0,,0,52,52,322,1,
,,,,,,,,,,,,,,,,,,5dd03b1749f607128e66ca09,2020-08-10_10h17.46.444,lexical_decision_task_MP,2020.1.3,Win32,60,,z,1,0.647715,,,,,,,,0.647715,1,,,,,,442,NW,UN,33,dorsex,ABOUNE,z,,,,,,0.000925926,-0.390740741,0,0,0,,0,53,53,381,1,
,,,,,,,,,,,,,,,,,,5dd03b1749f607128e66ca09,2020-08-10_10h17.46.444,lexical_decision_task_MP,2020.1.3,Win32,60,,m,1,0.607755,,,,,,,,0.607755,1,,,,,,121,WORD,"ID",50,thrive,THRIVE,m,,,,,,0.000925926,-0.390740741,0,0,0,,0,54,54,60,1,
,,,,,,,,,,,,,,,,,,5dd03b1749f607128e66ca09,2020-08-10_10h17.46.444,lexical_decision_task_MP,2020.1.3,Win32,60,,m,1,0.350715,,,,,,,,0.350715,1,,,,,,117,WORD,"ID",33,branch,BRANCH,m,,,,,,0.000925926,-0.390740741,0,0,0,,0,55,55,56,1,
,,,,,,,,,,,,,,,,,,5dd03b1749f607128e66ca09,2020-08-10_10h17.46.444,lexical_decision_task_MP,2020.1.3,Win32,60,,m,0,0.366855,,,,,,,,0.366855,0,,,,,,268,NW,UN,50,orchet,PACKES,z,,,,,,0.000925926,-0.390740741,0,0,0,,0,56,56,447,1,
,,,,,,,,,,,,,,,,,,5dd03b1749f607128e66ca09,2020-08-10_10h17.46.444,lexical_decision_task_MP,2020.1.3,Win32,60,,z,1,0.757855,,,,,,,,0.757855,1,,,,,,378,NW,"ID",50,shrile,SHRILE,z,,,,,,0.000925926,-0.390740741,0,0,0,,0,57,57,317,1,
,,,,,,,,,,,,,,,,,,5dd03b1749f607128e66ca09,2020-08-10_10h17.46.444,lexical_decision_task_MP,2020.1.3,Win32,60,,m,1,0.673505,,,,,,,,0.673505,1,,,,,,169,WORD,"ID",50,genius,GENIUS,m,,,,,,0.000925926,-0.390740741,0,0,0,,0,58,58,108,1,
,,,,,,,,,,,,,,,,,,5dd03b1749f607128e66ca09,2020-08-10_10h17.46.444,lexical_decision_task_MP,2020.1.3,Win32,60,,z,1,0.648855,,,,,,,,0.648855,1,,,,,,255,NW,UN,50,inlors,APIGHT,z,,,,,,0.000925926,-0.390740741,0,0,0,,0,59,59,434,1,
,,,,,,,,,,,,,,,,,,5dd03b1749f607128e66ca09,2020-08-10_10h17.46.444,lexical_decision_task_MP,2020.1.3,Win32,60,,m,1,0.918095,,,,,,,,0.918095,1,,,,,,78,WORD,"ID",33,column,COLUMN,m,,,,,,0.000925926,-0.390740741,0,0,0,,0,60,60,17,1,
,,,,,,,,,,,,,,,,,,5dd03b1749f607128e66ca09,2020-08-10_10h17.46.444,lexical_decision_task_MP,2020.1.3,Win32,60,,z,1,0.70819,,,,,,,,0.70819,1,,,,,,403,NW,"ID",50,bruats,BRUATS,z,,,,,,0.000925926,-0.390740741,0,0,0,,0,61,61,342,1,
,,,,,,,,,,,,,,,,,,5dd03b1749f607128e66ca09,2020-08-10_10h17.46.444,lexical_decision_task_MP,2020.1.3,Win32,60,,m,1,0.870465,,,,,,,,0.870465,1,,,,,,213,WORD,UN,33,intake,SQUEAL,m,,,,,,0.000925926,-0.390740741,0,0,0,,0,62,62,152,1,
,,,,,,,,,,,,,,,,,,5dd03b1749f607128e66ca09,2020-08-10_10h17.46.444,lexical_decision_task_MP,2020.1.3,Win32,60,,z,1,0.52581,,,,,,,,0.52581,1,,,,,,386,NW,"ID",50,ancust,ANCUST,z,,,,,,0.000925926,-0.390740741,0,0,0,,0,63,63,325,1,
,,,,,,,,,,,,,,,,,,5dd03b1749f607128e66ca09,2020-08-10_10h17.46.444,lexical_decision_task_MP,2020.1.3,Win32,60,,m,1,0.659255,,,,,,,,0.659255,1,,,,,,239,WORD,UN,33,forest,LUMBER,m,,,,,,0.000925926,-0.390740741,0,0,0,,0,64,64,178,1,
,,,,,,,,,,,,,,,,,,5dd03b1749f607128e66ca09,2020-08-10_10h17.46.444,lexical_decision_task_MP,2020.1.3,Win32,60,,m,1,0.538215,,,,,,,,0.538215,1,,,,,,198,WORD,UN,33,invoke,WICKED,m,,,,,,0.000925926,-0.390740741,0,0,0,,0,65,65,137,1,
,,,,,,,,,,,,,,,,,,5dd03b1749f607128e66ca09,2020-08-10_10h17.46.444,lexical_decision_task_MP,2020.1.3,Win32,60,,z,1,0.632305,,,,,,,,0.632305,1,,,,,,393,NW,"ID",50,ganous,GANOUS,z,,,,,,0.000925926,-0.390740741,0,0,0,,0,66,66,332,1,
,,,,,,,,,,,,,,,,,,5dd03b1749f607128e66ca09,2020-08-10_10h17.46.444,lexical_decision_task_MP,2020.1.3,Win32,60,,m,1,0.92473,,,,,,,,0.92473,1,,,,,,113,WORD,"ID",33,chorus,CHORUS,m,,,,,,0.000925926,-0.390740741,0,0,0,,0,67,67,52,1,
,,,,,,,,,,,,,,,,,,5dd03b1749f607128e66ca09,2020-08-10_10h17.46.444,lexical_decision_task_MP,2020.1.3,Win32,60,,z,1,0.7537,,,,,,,,0.7537,1,,,,,,446,NW,UN,33,gircue,RUNAMO,z,,,,,,0.000925926,-0.390740741,0,0,0,,0,68,68,385,1,
,,,,,,,,,,,,,,,,,,5dd03b1749f607128e66ca09,2020-08-10_10h17.46.444,lexical_decision_task_MP,2020.1.3,Win32,60,,m,1,0.55021,,,,,,,,0.55021,1,,,,,,168,WORD,"ID",50,answer,ANSWER,m,,,,,,0.000925926,-0.390740741,0,0,0,,0,69,69,107,1,
,,,,,,,,,,,,,,,,,,5dd03b1749f607128e66ca09,2020-08-10_10h17.46.444,lexical_decision_task_MP,2020.1.3,Win32,60,,z,1,0.551495,,,,,,,,0.551495,1,,,,,,324,NW,"ID",33,steikh,STEIKH,z,,,,,,0.000925926,-0.390740741,0,0,0,,0,70,70,263,1,
,,,,,,,,,,,,,,,,,,5dd03b1749f607128e66ca09,2020-08-10_10h17.46.444,lexical_decision_task_MP,2020.1.3,Win32,60,,m,1,0.499225,,,,,,,,0.499225,1,,,,,,21,WORD,UN,50,jockey,SIMPLE,m,,,,,,0.000925926,-0.390740741,0,0,0,,0,71,71,200,1,
,,,,,,,,,,,,,,,,,,5dd03b1749f607128e66ca09,2020-08-10_10h17.46.444,lexical_decision_task_MP,2020.1.3,Win32,60,,m,1,0.4388,,,,,,,,0.4388,1,,,,,,133,WORD,"ID",50,chrome,CHROME,m,,,,,,0.000925926,-0.390740741,0,0,0,,0,72,72,72,1,
,,,,,,,,,,,,,,,,,,5dd03b1749f607128e66ca09,2020-08-10_10h17.46.444,lexical_decision_task_MP,2020.1.3,Win32,60,,z,1,0.57496,,,,,,,,0.57496,1,,,,,,339,NW,"ID",33,fachow,FACHOW,z,,,,,,0.000925926,-0.390740741,0,0,0,,0,73,73,278,1,
,,,,,,,,,,,,,,,,,,5dd03b1749f607128e66ca09,2020-08-10_10h17.46.444,lexical_decision_task_MP,2020.1.3,Win32,60,,z,1,0.928885,,,,,,,,0.928885,1,,,,,,244,NW,UN,50,anougs,EATRIC,z,,,,,,0.000925926,-0.390740741,0,0,0,,0,74,74,423,1,
,,,,,,,,,,,,,,,,,,5dd03b1749f607128e66ca09,2020-08-10_10h17.46.444,lexical_decision_task_MP,2020.1.3,Win32,60,,m,1,0.54053,,,,,,,,0.54053,1,,,,,,158,WORD,"ID",50,island,ISLAND,m,,,,,,0.000925926,-0.390740741,0,0,0,,0,75,75,97,1,
,,,,,,,,,,,,,,,,,,5dd03b1749f607128e66ca09,2020-08-10_10h17.46.444,lexical_decision_task_MP,2020.1.3,Win32,60,,m,1,0.511495,,,,,,,,0.511495,1,,,,,,15,WORD,UN,50,faucet,AMOUNT,m,,,,,,0.000925926,-0.390740741,0,0,0,,0,76,76,194,1,
,,,,,,,,,,,,,,,,,,5dd03b1749f607128e66ca09,2020-08-10_10h17.46.444,lexical_decision_task_MP,2020.1.3,Win32,60,,m,1,0.56617,,,,,,,,0.56617,1,,,,,,73,WORD,"ID",33,source,SOURCE,m,,,,,,0.000925926,-0.390740741,0,0,0,,0,77,77,12,1,
,,,,,,,,,,,,,,,,,,5dd03b1749f607128e66ca09,2020-08-10_10h17.46.444,lexical_decision_task_MP,2020.1.3,Win32,60,,m,1,0.406835,,,,,,,,0.406835,1,,,,,,202,WORD,UN,33,phrase,FACTOR,m,,,,,,0.000925926,-0.390740741,0,0,0,,0,78,78,141,1,
,,,,,,,,,,,,,,,,,,5dd03b1749f607128e66ca09,2020-08-10_10h17.46.444,lexical_decision_task_MP,2020.1.3,Win32,60,,m,1,0.45608,,,,,,,,0.45608,1,,,,,,145,WORD,"ID",50,parish,PARISH,m,,,,,,0.000925926,-0.390740741,0,0,0,,0,79,79,84,1,
,,,,,,,,,,,,,,,,,,5dd03b1749f607128e66ca09,2020-08-10_10h17.46.444,lexical_decision_task_MP,2020.1.3,Win32,60,,m,0,0.48366,,,,,,,,0.48366,0,,,,,,342,NW,"ID",33,randow,RANDOW,z,,,,,,0.000925926,-0.390740741,0,0,0,,0,80,80,281,1,
,,,,,,,,,,,,,,,,,,5dd03b1749f607128e66ca09,2020-08-10_10h17.46.444,lexical_decision_task_MP,2020.1.3,Win32,60,,m,1,0.629005,,,,,,,,0.629005,1,,,,,,143,WORD,"ID",50,reason,REASON,m,,,,,,0.000925926,-0.390740741,0,0,0,,0,81,81,82,1,
,,,,,,,,,,,,,,,,,,5dd03b1749f607128e66ca09,2020-08-10_10h17.46.444,lexical_decision_task_MP,2020.1.3,Win32,60,,z,1,0.5895,,,,,,,,0.5895,1,,,,,,320,NW,"ID",33,jockal,JOCKAL,z,,,,,,0.000925926,-0.390740741,0,0,0,,0,82,82,259,1,
,,,,,,,,,,,,,,,,,,5dd03b1749f607128e66ca09,2020-08-10_10h17.46.444,lexical_decision_task_MP,2020.1.3,Win32,60,,m,1,0.623395,,,,,,,,0.623395,1,,,,,,98,WORD,"ID",33,belong,BELONG,m,,,,,,0.000925926,-0.390740741,0,0,0,,0,83,83,37,1,
,,,,,,,,,,,,,,,,,,5dd03b1749f607128e66ca09,2020-08-10_10h17.46.444,lexical_decision_task_MP,2020.1.3,Win32,60,,z,1,0.631645,,,,,,,,0.631645,1,,,,,,458,NW,UN,33,hocite,BARCET,z,,,,,,0.000925926,-0.390740741,0,0,0,,0,84,84,397,1,
,,,,,,,,,,,,,,,,,,5dd03b1749f607128e66ca09,2020-08-10_10h17.46.444,lexical_decision_task_MP,2020.1.3,Win32,60,,z,1,0.900735,,,,,,,,0.900735,1,,,,,,305,NW,"ID",33,forgle,FORGLE,z,,,,,,0.000925926,-0.390740741,0,0,0,,0,85,85,244,1,
,,,,,,,,,,,,,,,,,,5dd03b1749f607128e66ca09,2020-08-10_10h17.46.444,lexical_decision_task_MP,2020.1.3,Win32,60,,m,1,0.606225,,,,,,,,0.606225,1,,,,,,50,WORD,UN,50,hungry,SNATCH,m,,,,,,0.000925926,-0.390740741,0,0,0,,0,86,86,229,1,
,,,,,,,,,,,,,,,,,,5dd03b1749f607128e66ca09,2020-08-10_10h17.46.444,lexical_decision_task_MP,2020.1.3,Win32,60,,m,1,0.542545,,,,,,,,0.542545,1,,,,,,139,WORD,"ID",50,debris,DEBRIS,m,,,,,,0.000925926,-0.390740741,0,0,0,,0,87,87,78,1,
,,,,,,,,,,,,,,,,,,5dd03b1749f607128e66ca09,2020-08-10_10h17.46.444,lexical_decision_task_MP,2020.1.3,Win32,60,,m,0,0.42599,,,,,,,,0.42599,0,,,,,,271,NW,UN,50,damilt,AUBRID,z,,,,,,0.000925926,-0.390740741,0,0,0,,0,88,88,450,1,
,,,,,,,,,,,,,,,,,,5dd03b1749f607128e66ca09,2020-08-10_10h17.46.444,lexical_decision_task_MP,2020.1.3,Win32,60,,m,1,0.542525,,,,,,,,0.542525,1,,,,,,68,WORD,"ID",33,fumble,FUMBLE,m,,,,,,0.000925926,-0.390740741,0,0,0,,0,89,89,7,1,
,,,,,,,,,,,,,,,,,,5dd03b1749f607128e66ca09,2020-08-10_10h17.46.444,lexical_decision_task_MP,2020.1.3,Win32,60,,z,1,0.591545,,,,,,,,0.591545,1,,,,,,434,NW,UN,33,impurb,PITROM,z,,,,,,0.000925926,-0.390740741,0,0,0,,0,90,90,373,1,
,,,,,,,,,,,,,,,,,,5dd03b1749f607128e66ca09,2020-08-10_10h17.46.444,lexical_decision_task_MP,2020.1.3,Win32,60,,z,1,0.649115,,,,,,,,0.649115,1,,,,,,444,NW,UN,33,minkel,JAUNCE,z,,,,,,0.000925926,-0.390740741,0,0,0,,0,91,91,383,1,
,,,,,,,,,,,,,,,,,,5dd03b1749f607128e66ca09,2020-08-10_10h17.46.444,lexical_decision_task_MP,2020.1.3,Win32,60,,m,1,0.88555,,,,,,,,0.88555,1,,,,,,32,WORD,UN,50,scream,BUCKLE,m,,,,,,0.000925926,-0.390740741,0,0,0,,0,92,92,211,1,
,,,,,,,,,,,,,,,,,,5dd03b1749f607128e66ca09,2020-08-10_10h17.46.444,lexical_decision_task_MP,2020.1.3,Win32,60,,m,1,1.057465,,,,,,,,1.057465,1,,,,,,192,WORD,UN,33,object,PLAGUE,m,,,,,,0.000925926,-0.390740741,0,0,0,,0,93,93,131,1,
,,,,,,,,,,,,,,,,,,5dd03b1749f607128e66ca09,2020-08-10_10h17.46.444,lexical_decision_task_MP,2020.1.3,Win32,60,,z,1,0.932965,,,,,,,,0.932965,1,,,,,,415,NW,"ID",50,higsta,HIGSTA,z,,,,,,0.000925926,-0.390740741,0,0,0,,0,94,94,354,1,
,,,,,,,,,,,,,,,,,,5dd03b1749f607128e66ca09,2020-08-10_10h17.46.444,lexical_decision_task_MP,2020.1.3,Win32,60,,z,1,0.71006,,,,,,,,0.71006,1,,,,,,249,NW,UN,50,milted,BATROL,z,,,,,,0.000925926,-0.390740741,0,0,0,,0,95,95,428,1,
,,,,,,,,,,,,,,,,,,5dd03b1749f607128e66ca09,2020-08-10_10h17.46.444,lexical_decision_task_MP,2020.1.3,Win32,60,,m,1,0.79416,,,,,,,,0.79416,1,,,,,,236,WORD,UN,33,grumpy,PIRATE,m,,,,,,0.000925926,-0.390740741,0,0,0,,0,96,96,175,1,
,,,,,,,,,,,,,,,,,,5dd03b1749f607128e66ca09,2020-08-10_10h17.46.444,lexical_decision_task_MP,2020.1.3,Win32,60,,m,1,0.612795,,,,,,,,0.612795,1,,,,,,142,WORD,"ID",50,spruce,SPRUCE,m,,,,,,0.000925926,-0.390740741,0,0,0,,0,97,97,81,1,
,,,,,,,,,,,,,,,,,,5dd03b1749f607128e66ca09,2020-08-10_10h17.46.444,lexical_decision_task_MP,2020.1.3,Win32,60,,m,0,0.39679,,,,,,,,0.39679,0,,,,,,326,NW,"ID",33,iguade,IGUADE,z,,,,,,0.000925926,-0.390740741,0,0,0,,0,98,98,265,1,
,,,,,,,,,,,,,,,,,,5dd03b1749f607128e66ca09,2020-08-10_10h17.46.444,lexical_decision_task_MP,2020.1.3,Win32,60,,z,1,0.540965,,,,,,,,0.540965,1,,,,,,375,NW,"ID",50,yorque,YORQUE,z,,,,,,0.000925926,-0.390740741,0,0,0,,0,99,99,314,1,
,,,,,,,,,,,,,,,,,,5dd03b1749f607128e66ca09,2020-08-10_10h17.46.444,lexical_decision_task_MP,2020.1.3,Win32,60,,z,1,0.838925,,,,,,,,0.838925,1,,,,,,445,NW,UN,33,runamo,MINKEL,z,,,,,,0.000925926,-0.390740741,0,0,0,,0,100,100,384,1,
,,,,,,,,,,,,,,,,,,5dd03b1749f607128e66ca09,2020-08-10_10h17.46.444,lexical_decision_task_MP,2020.1.3,Win32,60,,m,1,0.78335,,,,,,,,0.78335,1,,,,,,16,WORD,UN,50,charge,FAUCET,m,,,,,,0.000925926,-0.390740741,0,0,0,,0,101,101,195,1,
,,,,,,,,,,,,,,,,,,5dd03b1749f607128e66ca09,2020-08-10_10h17.46.444,lexical_decision_task_MP,2020.1.3,Win32,60,,z,1,0.738195,,,,,,,,0.738195,1,,,,,,296,NW,UN,50,fertic,BEINCH,z,,,,,,0.000925926,-0.390740741,0,0,0,,0,102,102,475,1,
,,,,,,,,,,,,,,,,,,5dd03b1749f607128e66ca09,2020-08-10_10h17.46.444,lexical_decision_task_MP,2020.1.3,Win32,60,,z,1,0.72244,,,,,,,,0.72244,1,,,,,,376,NW,"ID",50,iguare,IGUARE,z,,,,,,0.000925926,-0.390740741,0,0,0,,0,103,103,315,1,
,,,,,,,,,,,,,,,,,,5dd03b1749f607128e66ca09,2020-08-10_10h17.46.444,lexical_decision_task_MP,2020.1.3,Win32,60,,z,1,0.6896,,,,,,,,0.6896,1,,,,,,353,NW,"ID",33,clurey,CLUREY,z,,,,,,0.000925926,-0.390740741,0,0,0,,0,104,104,292,1,
,,,,,,,,,,,,,,,,,,5dd03b1749f607128e66ca09,2020-08-10_10h17.46.444,lexical_decision_task_MP,2020.1.3,Win32,60,,z,1,0.583845,,,,,,,,0.583845,1,,,,,,322,NW,"ID",33,slanch,SLANCH,z,,,,,,0.000925926,-0.390740741,0,0,0,,0,105,105,261,1,
,,,,,,,,,,,,,,,,,,5dd03b1749f607128e66ca09,2020-08-10_10h17.46.444,lexical_decision_task_MP,2020.1.3,Win32,60,,m,1,0.75348,,,,,,,,0.75348,1,,,,,,227,WORD,UN,33,master,SELDOM,m,,,,,,0.000925926,-0.390740741,0,0,0,,0,106,106,166,1,
,,,,,,,,,,,,,,,,,,5dd03b1749f607128e66ca09,2020-08-10_10h17.46.444,lexical_decision_task_MP,2020.1.3,Win32,60,,z,1,0.884415,,,,,,,,0.884415,1,,,,,,409,NW,"ID",50,elopia,ELOPIA,z,,,,,,0.000925926,-0.390740741,0,0,0,,0,107,107,348,1,
,,,,,,,,,,,,,,,,,,5dd03b1749f607128e66ca09,2020-08-10_10h17.46.444,lexical_decision_task_MP,2020.1.3,Win32,60,,z,1,0.651445,,,,,,,,0.651445,1,,,,,,424,NW,UN,33,frudge,PRAILE,z,,,,,,0.000925926,-0.390740741,0,0,0,,0,108,108,363,1,
,,,,,,,,,,,,,,,,,,5dd03b1749f607128e66ca09,2020-08-10_10h17.46.444,lexical_decision_task_MP,2020.1.3,Win32,60,,z,0,0.425985,,,,,,,,0.425985,0,,,,,,74,WORD,"ID",33,plaque,PLAQUE,m,,,,,,0.000925926,-0.390740741,0,0,0,,0,109,109,13,1,
,,,,,,,,,,,,,,,,,,5dd03b1749f607128e66ca09,2020-08-10_10h17.46.444,lexical_decision_task_MP,2020.1.3,Win32,60,,z,1,0.55366,,,,,,,,0.55366,1,,,,,,254,NW,UN,50,apight,VAROSH,z,,,,,,0.000925926,-0.390740741,0,0,0,,0,110,110,433,1,
,,,,,,,,,,,,,,,,,,5dd03b1749f607128e66ca09,2020-08-10_10h17.46.444,lexical_decision_task_MP,2020.1.3,Win32,60,,z,1,1.30102,,,,,,,,1.30102,1,,,,,,310,NW,"ID",33,daniet,DANIET,z,,,,,,0.000925926,-0.390740741,0,0,0,,0,111,111,249,1,
,,,,,,,,,,,,,,,,,,5dd03b1749f607128e66ca09,2020-08-10_10h17.46.444,lexical_decision_task_MP,2020.1.3,Win32,60,,z,1,0.66724,,,,,,,,0.66724,1,,,,,,467,NW,UN,33,wictor,GORBIE,z,,,,,,0.000925926,-0.390740741,0,0,0,,0,112,112,406,1,
,,,,,,,,,,,,,,,,,,5dd03b1749f607128e66ca09,2020-08-10_10h17.46.444,lexical_decision_task_MP,2020.1.3,Win32,60,,z,1,0.47191,,,,,,,,0.47191,1,,,,,,362,NW,"ID",50,tireau,TIREAU,z,,,,,,0.001851852,-0.390740741,0,0,0,,0,113,113,301,1,
,,,,,,,,,,,,,,,,,,5dd03b1749f607128e66ca09,2020-08-10_10h17.46.444,lexical_decision_task_MP,2020.1.3,Win32,60,,z,1,0.494735,,,,,,,,0.494735,1,,,,,,447,NW,UN,33,sadent,GIRCUE,z,,,,,,0.001851852,-0.390740741,0,0,0,,0,114,114,386,1,
,,,,,,,,,,,,,,,,,,5dd03b1749f607128e66ca09,2020-08-10_10h17.46.444,lexical_decision_task_MP,2020.1.3,Win32,60,,m,1,0.491825,,,,,,,,0.491825,1,,,,,,44,WORD,UN,50,clergy,DANGER,m,,,,,,0.001851852,-0.390740741,0,0,0,,0,115,115,223,1,
,,,,,,,,,,,,,,,,,,5dd03b1749f607128e66ca09,2020-08-10_10h17.46.444,lexical_decision_task_MP,2020.1.3,Win32,60,,m,1,0.51732,,,,,,,,0.51732,1,,,,,,181,WORD,UN,33,winter,GLANCE,m,,,,,,0.001851852,-0.390740741,0,0,0,,0,116,116,120,1,
,,,,,,,,,,,,,,,,,,5dd03b1749f607128e66ca09,2020-08-10_10h17.46.444,lexical_decision_task_MP,2020.1.3,Win32,60,,m,1,0.47959,,,,,,,,0.47959,1,,,,,,195,WORD,UN,33,credit,RESIGN,m,,,,,,0.001851852,-0.390740741,0,0,0,,0,117,117,134,1,
,,,,,,,,,,,,,,,,,,5dd03b1749f607128e66ca09,2020-08-10_10h17.46.444,lexical_decision_task_MP,2020.1.3,Win32,60,,z,1,0.62893,,,,,,,,0.62893,1,,,,,,333,NW,"ID",33,catrie,CATRIE,z,,,,,,0.001851852,-0.390740741,0,0,0,,0,118,118,272,1,
,,,,,,,,,,,,,,,,,,5dd03b1749f607128e66ca09,2020-08-10_10h17.46.444,lexical_decision_task_MP,2020.1.3,Win32,60,,m,1,0.517535,,,,,,,,0.517535,1,,,,,,140,WORD,"ID",50,prince,PRINCE,m,,,,,,0.001851852,-0.390740741,0,0,0,,0,119,119,79,1,
,,,,,,,,,,,,,,,,,,5dd03b1749f607128e66ca09,2020-08-10_10h17.46.444,lexical_decision_task_MP,2020.1.3,Win32,60,,m,1,0.55409,,,,,,,,0.55409,1,,,,,,237,WORD,UN,33,glance,POSTER,m,,,,,,0.016666667,-0.393518519,1,0,0,,0,120,120,176,1,break_done_button
,,,,,,,,,,,,,,,,,,5dd03b1749f607128e66ca09,2020-08-10_10h17.46.444,lexical_decision_task_MP,2020.1.3,Win32,60,,z,1,0.7843,,,,,,,,0.7843,1,,,,,,340,NW,"ID",33,fiatch,FIATCH,z,,,,,,0.062962963,-0.325925926,0,0,0,,0,121,121,279,1,
,,,,,,,,,,,,,,,,,,5dd03b1749f607128e66ca09,2020-08-10_10h17.46.444,lexical_decision_task_MP,2020.1.3,Win32,60,,m,1,0.58343,,,,,,,,0.58343,1,,,,,,125,WORD,"ID",50,nickel,NICKEL,m,,,,,,0.062962963,-0.325925926,0,0,0,,0,122,122,64,1,
,,,,,,,,,,,,,,,,,,5dd03b1749f607128e66ca09,2020-08-10_10h17.46.444,lexical_decision_task_MP,2020.1.3,Win32,60,,z,1,0.662435,,,,,,,,0.662435,1,,,,,,344,NW,"ID",33,scrily,SCRILY,z,,,,,,0.062962963,-0.325925926,0,0,0,,0,123,123,283,1,
,,,,,,,,,,,,,,,,,,5dd03b1749f607128e66ca09,2020-08-10_10h17.46.444,lexical_decision_task_MP,2020.1.3,Win32,60,,m,1,0.58376,,,,,,,,0.58376,1,,,,,,231,WORD,UN,33,inject,EXPORT,m,,,,,,0.062962963,-0.325925926,0,0,0,,0,124,124,170,1,
,,,,,,,,,,,,,,,,,,5dd03b1749f607128e66ca09,2020-08-10_10h17.46.444,lexical_decision_task_MP,2020.1.3,Win32,60,,z,1,0.54455,,,,,,,,0.54455,1,,,,,,263,NW,UN,50,vackel,DOLICA,z,,,,,,0.062962963,-0.325925926,0,0,0,,0,125,125,442,1,
,,,,,,,,,,,,,,,,,,5dd03b1749f607128e66ca09,2020-08-10_10h17.46.444,lexical_decision_task_MP,2020.1.3,Win32,60,,z,1,0.88332,,,,,,,,0.88332,1,,,,,,294,NW,UN,50,gleath,INHORT,z,,,,,,0.062962963,-0.325925926,0,0,0,,0,126,126,473,1,
,,,,,,,,,,,,,,,,,,5dd03b1749f607128e66ca09,2020-08-10_10h17.46.444,lexical_decision_task_MP,2020.1.3,Win32,60,,z,1,0.899715,,,,,,,,0.899715,1,,,,,,461,NW,UN,33,absult,JUSTRE,z,,,,,,0.062962963,-0.325925926,0,0,0,,0,127,127,400,1,
,,,,,,,,,,,,,,,,,,5dd03b1749f607128e66ca09,2020-08-10_10h17.46.444,lexical_decision_task_MP,2020.1.3,Win32,60,,z,1,0.64396,,,,,,,,0.64396,1,,,,,,435,NW,UN,33,frutan,IMPURB,z,,,,,,0.062962963,-0.325925926,0,0,0,,0,128,128,374,1,
,,,,,,,,,,,,,,,,,,5dd03b1749f607128e66ca09,2020-08-10_10h17.46.444,lexical_decision_task_MP,2020.1.3,Win32,60,,z,1,0.52575,,,,,,,,0.52575,1,,,,,,357,NW,"ID",33,derain,DERAIN,z,,,,,,0.062962963,-0.325925926,0,0,0,,0,129,129,296,1,
,,,,,,,,,,,,,,,,,,5dd03b1749f607128e66ca09,2020-08-10_10h17.46.444,lexical_decision_task_MP,2020.1.3,Win32,60,,z,1,0.585965,,,,,,,,0.585965,1,,,,,,451,NW,UN,33,surden,CAINKY,z,,,,,,0.062962963,-0.325925926,0,0,0,,0,130,130,390,1,
,,,,,,,,,,,,,,,,,,5dd03b1749f607128e66ca09,2020-08-10_10h17.46.444,lexical_decision_task_MP,2020.1.3,Win32,60,,z,1,0.51492,,,,,,,,0.51492,1,,,,,,308,NW,"ID",33,psetch,PSETCH,z,,,,,,0.062962963,-0.325925926,0,0,0,,0,131,131,247,1,
,,,,,,,,,,,,,,,,,,5dd03b1749f607128e66ca09,2020-08-10_10h17.46.444,lexical_decision_task_MP,2020.1.3,Win32,60,,m,1,0.600315,,,,,,,,0.600315,1,,,,,,85,WORD,"ID",33,sprawl,SPRAWL,m,,,,,,0.062962963,-0.325925926,0,0,0,,0,132,132,24,1,
,,,,,,,,,,,,,,,,,,5dd03b1749f607128e66ca09,2020-08-10_10h17.46.444,lexical_decision_task_MP,2020.1.3,Win32,60,,m,0,0.369935,,,,,,,,0.369935,0,,,,,,468,NW,UN,33,padifs,WICTOR,z,,,,,,0.062962963,-0.325925926,0,0,0,,0,133,133,407,1,
,,,,,,,,,,,,,,,,,,5dd03b1749f607128e66ca09,2020-08-10_10h17.46.444,lexical_decision_task_MP,2020.1.3,Win32,60,,z,1,0.69384,,,,,,,,0.69384,1,,,,,,264,NW,UN,50,distar,VACKEL,z,,,,,,0.062962963,-0.325925926,0,0,0,,0,134,134,443,1,
,,,,,,,,,,,,,,,,,,5dd03b1749f607128e66ca09,2020-08-10_10h17.46.444,lexical_decision_task_MP,2020.1.3,Win32,60,,m,1,0.609595,,,,,,,,0.609595,1,,,,,,66,WORD,"ID",33,gospel,GOSPEL,m,,,,,,0.062962963,-0.325925926,0,0,0,,0,135,135,5,1,
,,,,,,,,,,,,,,,,,,5dd03b1749f607128e66ca09,2020-08-10_10h17.46.444,lexical_decision_task_MP,2020.1.3,Win32,60,,z,1,0.71843,,,,,,,,0.71843,1,,,,,,274,NW,UN,50,sleirt,FUMBLO,z,,,,,,0.062962963,-0.325925926,0,0,0,,0,136,136,453,1,
,,,,,,,,,,,,,,,,,,5dd03b1749f607128e66ca09,2020-08-10_10h17.46.444,lexical_decision_task_MP,2020.1.3,Win32,60,,m,1,0.607655,,,,,,,,0.607655,1,,,,,,80,WORD,"ID",33,family,FAMILY,m,,,,,,0.062962963,-0.325925926,0,0,0,,0,137,137,19,1,
,,,,,,,,,,,,,,,,,,5dd03b1749f607128e66ca09,2020-08-10_10h17.46.444,lexical_decision_task_MP,2020.1.3,Win32,60,,z,1,0.634265,,,,,,,,0.634265,1,,,,,,361,NW,"ID",50,pauche,PAUCHE,z,,,,,,0.062962963,-0.325925926,0,0,0,,0,138,138,300,1,
,,,,,,,,,,,,,,,,,,5dd03b1749f607128e66ca09,2020-08-10_10h17.46.444,lexical_decision_task_MP,2020.1.3,Win32,60,,z,1,0.471985,,,,,,,,0.471985,1,,,,,,282,NW,UN,50,veralf,PORLEX,z,,,,,,0.062962963,-0.325925926,0,0,0,,0,139,139,461,1,
,,,,,,,,,,,,,,,,,,5dd03b1749f607128e66ca09,2020-08-10_10h17.46.444,lexical_decision_task_MP,2020.1.3,Win32,60,,z,1,0.546855,,,,,,,,0.546855,1,,,,,,394,NW,"ID",50,spaqux,SPAQUX,z,,,,,,0.062962963,-0.325925926,0,0,0,,0,140,140,333,1,
,,,,,,,,,,,,,,,,,,5dd03b1749f607128e66ca09,2020-08-10_10h17.46.444,lexical_decision_task_MP,2020.1.3,Win32,60,,z,0,0.34303,,,,,,,,0.34303,0,,,,,,7,WORD,UN,50,abrupt,ANCHOR,m,,,,,,0.062962963,-0.325925926,0,0,0,,0,141,141,186,1,
,,,,,,,,,,,,,,,,,,5dd03b1749f607128e66ca09,2020-08-10_10h17.46.444,lexical_decision_task_MP,2020.1.3,Win32,60,,m,1,0.45714,,,,,,,,0.45714,1,,,,,,129,WORD,"ID",50,marvel,MARVEL,m,,,,,,0.062962963,-0.325925926,0,0,0,,0,142,142,68,1,
,,,,,,,,,,,,,,,,,,5dd03b1749f607128e66ca09,2020-08-10_10h17.46.444,lexical_decision_task_MP,2020.1.3,Win32,60,,m,1,0.4514,,,,,,,,0.4514,1,,,,,,36,WORD,UN,50,insult,VANISH,m,,,,,,0.062962963,-0.325925926,0,0,0,,0,143,143,215,1,
,,,,,,,,,,,,,,,,,,5dd03b1749f607128e66ca09,2020-08-10_10h17.46.444,lexical_decision_task_MP,2020.1.3,Win32,60,,m,1,0.464005,,,,,,,,0.464005,1,,,,,,197,WORD,UN,33,wicked,STREAM,m,,,,,,0.062962963,-0.325925926,0,0,0,,0,144,144,136,1,
,,,,,,,,,,,,,,,,,,5dd03b1749f607128e66ca09,2020-08-10_10h17.46.444,lexical_decision_task_MP,2020.1.3,Win32,60,,m,1,0.418355,,,,,,,,0.418355,1,,,,,,58,WORD,UN,50,splint,FOSTER,m,,,,,,0.062962963,-0.325925926,0,0,0,,0,145,145,237,1,
,,,,,,,,,,,,,,,,,,5dd03b1749f607128e66ca09,2020-08-10_10h17.46.444,lexical_decision_task_MP,2020.1.3,Win32,60,,z,1,0.60751,,,,,,,,0.60751,1,,,,,,270,NW,UN,50,aubrid,WRIMSY,z,,,,,,0.062962963,-0.325925926,0,0,0,,0,146,146,449,1,
,,,,,,,,,,,,,,,,,,5dd03b1749f607128e66ca09,2020-08-10_10h17.46.444,lexical_decision_task_MP,2020.1.3,Win32,60,,z,1,0.669225,,,,,,,,0.669225,1,,,,,,338,NW,"ID",33,wreash,WREASH,z,,,,,,0.062962963,-0.325925926,0,0,0,,0,147,147,277,1,
,,,,,,,,,,,,,,,,,,5dd03b1749f607128e66ca09,2020-08-10_10h17.46.444,lexical_decision_task_MP,2020.1.3,Win32,60,,m,1,0.596055,,,,,,,,0.596055,1,,,,,,208,WORD,UN,33,search,HOCKEY,m,,,,,,0.062962963,-0.325925926,0,0,0,,0,148,148,147,1,
,,,,,,,,,,,,,,,,,,5dd03b1749f607128e66ca09,2020-08-10_10h17.46.444,lexical_decision_task_MP,2020.1.3,Win32,60,,m,1,0.606635,,,,,,,,0.606635,1,,,,,,19,WORD,UN,50,breast,PATRON,m,,,,,,0.062962963,-0.325925926,0,0,0,,0,149,149,198,1,
,,,,,,,,,,,,,,,,,,5dd03b1749f607128e66ca09,2020-08-10_10h17.46.444,lexical_decision_task_MP,2020.1.3,Win32,60,,m,1,0.510955,,,,,,,,0.510955,1,,,,,,47,WORD,UN,50,walnut,INCOME,m,,,,,,0.062962963,-0.325925926,0,0,0,,0,150,150,226,1,
,,,,,,,,,,,,,,,,,,5dd03b1749f607128e66ca09,2020-08-10_10h17.46.444,lexical_decision_task_MP,2020.1.3,Win32,60,,m,0,0.476895,,,,,,,,0.476895,0,,,,,,328,NW,"ID",33,broake,BROAKE,z,,,,,,0.062962963,-0.325925926,0,0,0,,0,151,151,267,1,
,,,,,,,,,,,,,,,,,,5dd03b1749f607128e66ca09,2020-08-10_10h17.46.444,lexical_decision_task_MP,2020.1.3,Win32,60,,m,1,0.550555,,,,,,,,0.550555,1,,,,,,132,WORD,"ID",50,strong,STRONG,m,,,,,,0.062962963,-0.325925926,0,0,0,,0,152,152,71,1,
,,,,,,,,,,,,,,,,,,5dd03b1749f607128e66ca09,2020-08-10_10h17.46.444,lexical_decision_task_MP,2020.1.3,Win32,60,,z,1,0.54061,,,,,,,,0.54061,1,,,,,,453,NW,UN,33,scouge,BOLVIS,z,,,,,,0.062962963,-0.325925926,0,0,0,,0,153,153,392,1,
,,,,,,,,,,,,,,,,,,5dd03b1749f607128e66ca09,2020-08-10_10h17.46.444,lexical_decision_task_MP,2020.1.3,Win32,60,,m,1,0.550705,,,,,,,,0.550705,1,,,,,,112,WORD,"ID",33,breath,BREATH,m,,,,,,0.062962963,-0.325925926,0,0,0,,0,154,154,51,1,
,,,,,,,,,,,,,,,,,,5dd03b1749f607128e66ca09,2020-08-10_10h17.46.444,lexical_decision_task_MP,2020.1.3,Win32,60,,z,1,0.612015,,,,,,,,0.612015,1,,,,,,377,NW,"ID",50,injore,INJORE,z,,,,,,0.062962963,-0.325925926,0,0,0,,0,155,155,316,1,
,,,,,,,,,,,,,,,,,,5dd03b1749f607128e66ca09,2020-08-10_10h17.46.444,lexical_decision_task_MP,2020.1.3,Win32,60,,z,1,0.60008,,,,,,,,0.60008,1,,,,,,313,NW,"ID",33,paurse,PAURSE,z,,,,,,0.062962963,-0.325925926,0,0,0,,0,156,156,252,1,
,,,,,,,,,,,,,,,,,,5dd03b1749f607128e66ca09,2020-08-10_10h17.46.444,lexical_decision_task_MP,2020.1.3,Win32,60,,m,1,0.632125,,,,,,,,0.632125,1,,,,,,146,WORD,"ID",50,couple,COUPLE,m,,,,,,0.062962963,-0.325925926,0,0,0,,0,157,157,85,1,
,,,,,,,,,,,,,,,,,,5dd03b1749f607128e66ca09,2020-08-10_10h17.46.444,lexical_decision_task_MP,2020.1.3,Win32,60,,z,1,0.548665,,,,,,,,0.548665,1,,,,,,258,NW,UN,50,soudal,POLUTH,z,,,,,,0.062962963,-0.325925926,0,0,0,,0,158,158,437,1,
,,,,,,,,,,,,,,,,,,5dd03b1749f607128e66ca09,2020-08-10_10h17.46.444,lexical_decision_task_MP,2020.1.3,Win32,60,,z,1,0.50302,,,,,,,,0.50302,1,,,,,,295,NW,UN,50,beinch,GLEATH,z,,,,,,0.062962963,-0.325925926,0,0,0,,0,159,159,474,1,
,,,,,,,,,,,,,,,,,,5dd03b1749f607128e66ca09,2020-08-10_10h17.46.444,lexical_decision_task_MP,2020.1.3,Win32,60,,m,1,0.667545,,,,,,,,0.667545,1,,,,,,102,WORD,"ID",33,direct,DIRECT,m,,,,,,0.062962963,-0.325925926,0,0,0,,0,160,160,41,1,
,,,,,,,,,,,,,,,,,,5dd03b1749f607128e66ca09,2020-08-10_10h17.46.444,lexical_decision_task_MP,2020.1.3,Win32,60,,z,1,0.66493,,,,,,,,0.66493,1,,,,,,349,NW,"ID",33,asylen,ASYLEN,z,,,,,,0.062962963,-0.325925926,0,0,0,,0,161,161,288,1,
,,,,,,,,,,,,,,,,,,5dd03b1749f607128e66ca09,2020-08-10_10h17.46.444,lexical_decision_task_MP,2020.1.3,Win32,60,,m,1,0.666525,,,,,,,,0.666525,1,,,,,,95,WORD,"ID",33,thread,THREAD,m,,,,,,0.062962963,-0.325925926,0,0,0,,0,162,162,34,1,
,,,,,,,,,,,,,,,,,,5dd03b1749f607128e66ca09,2020-08-10_10h17.46.444,lexical_decision_task_MP,2020.1.3,Win32,60,,m,1,0.66599,,,,,,,,0.66599,1,,,,,,207,WORD,UN,33,hockey,WREATH,m,,,,,,0.062962963,-0.325925926,0,0,0,,0,163,163,146,1,
,,,,,,,,,,,,,,,,,,5dd03b1749f607128e66ca09,2020-08-10_10h17.46.444,lexical_decision_task_MP,2020.1.3,Win32,60,,m,1,0.36683,,,,,,,,0.36683,1,,,,,,151,WORD,"ID",50,mystic,MYSTIC,m,,,,,,0.062962963,-0.325925926,0,0,0,,0,164,164,90,1,
,,,,,,,,,,,,,,,,,,5dd03b1749f607128e66ca09,2020-08-10_10h17.46.444,lexical_decision_task_MP,2020.1.3,Win32,60,,m,1,0.431945,,,,,,,,0.431945,1,,,,,,165,WORD,"ID",50,invest,INVEST,m,,,,,,0.062962963,-0.325925926,0,0,0,,0,165,165,104,1,
,,,,,,,,,,,,,,,,,,5dd03b1749f607128e66ca09,2020-08-10_10h17.46.444,lexical_decision_task_MP,2020.1.3,Win32,60,,z,1,0.48867,,,,,,,,0.48867,1,,,,,,470,NW,UN,33,nobest,CRUDIO,z,,,,,,0.062962963,-0.325925926,0,0,0,,0,166,166,409,1,
,,,,,,,,,,,,,,,,,,5dd03b1749f607128e66ca09,2020-08-10_10h17.46.444,lexical_decision_task_MP,2020.1.3,Win32,60,,m,1,0.668375,,,,,,,,0.668375,1,,,,,,61,WORD,"ID",33,ponder,PONDER,m,,,,,,0.062962963,-0.325925926,0,0,0,,0,167,167,0,1,
,,,,,,,,,,,,,,,,,,5dd03b1749f607128e66ca09,2020-08-10_10h17.46.444,lexical_decision_task_MP,2020.1.3,Win32,60,,m,1,0.582185,,,,,,,,0.582185,1,,,,,,5,WORD,UN,50,bundle,PLUNGE,m,,,,,,0.062962963,-0.325925926,0,0,0,,0,168,168,184,1,
,,,,,,,,,,,,,,,,,,5dd03b1749f607128e66ca09,2020-08-10_10h17.46.444,lexical_decision_task_MP,2020.1.3,Win32,60,,z,1,0.60664,,,,,,,,0.60664,1,,,,,,243,NW,UN,50,eatric,MUSIED,z,,,,,,0.062962963,-0.325925926,0,0,0,,0,169,169,422,1,
,,,,,,,,,,,,,,,,,,5dd03b1749f607128e66ca09,2020-08-10_10h17.46.444,lexical_decision_task_MP,2020.1.3,Win32,60,,m,1,0.668715,,,,,,,,0.668715,1,,,,,,219,WORD,UN,33,voyage,BUCKET,m,,,,,,0.062962963,-0.325925926,0,0,0,,0,170,170,158,1,
,,,,,,,,,,,,,,,,,,5dd03b1749f607128e66ca09,2020-08-10_10h17.46.444,lexical_decision_task_MP,2020.1.3,Win32,60,,m,0,0.726195,,,,,,,,0.726195,0,,,,,,405,NW,"ID",50,flumni,FLUMNI,z,,,,,,0.062962963,-0.325925926,0,0,0,,0,171,171,344,1,
,,,,,,,,,,,,,,,,,,5dd03b1749f607128e66ca09,2020-08-10_10h17.46.444,lexical_decision_task_MP,2020.1.3,Win32,60,,m,1,0.475075,,,,,,,,0.475075,1,,,,,,188,WORD,UN,33,censor,SOCIAL,m,,,,,,0.062962963,-0.325925926,0,0,0,,0,172,172,127,1,
,,,,,,,,,,,,,,,,,,5dd03b1749f607128e66ca09,2020-08-10_10h17.46.444,lexical_decision_task_MP,2020.1.3,Win32,60,,m,1,0.46361,,,,,,,,0.46361,1,,,,,,137,WORD,"ID",50,finger,FINGER,m,,,,,,0.062962963,-0.325925926,0,0,0,,0,173,173,76,1,
,,,,,,,,,,,,,,,,,,5dd03b1749f607128e66ca09,2020-08-10_10h17.46.444,lexical_decision_task_MP,2020.1.3,Win32,60,,m,1,0.380275,,,,,,,,0.380275,1,,,,,,166,WORD,"ID",50,starch,STARCH,m,,,,,,0.062962963,-0.325925926,0,0,0,,0,174,174,105,1,
,,,,,,,,,,,,,,,,,,5dd03b1749f607128e66ca09,2020-08-10_10h17.46.444,lexical_decision_task_MP,2020.1.3,Win32,60,,z,1,0.52609,,,,,,,,0.52609,1,,,,,,380,NW,"ID",50,cavory,CAVORY,z,,,,,,0.062962963,-0.325925926,0,0,0,,0,175,175,319,1,
,,,,,,,,,,,,,,,,,,5dd03b1749f607128e66ca09,2020-08-10_10h17.46.444,lexical_decision_task_MP,2020.1.3,Win32,60,,z,1,0.627435,,,,,,,,0.627435,1,,,,,,464,NW,UN,33,whivex,CHAITE,z,,,,,,0.062962963,-0.325925926,0,0,0,,0,176,176,403,1,
,,,,,,,,,,,,,,,,,,5dd03b1749f607128e66ca09,2020-08-10_10h17.46.444,lexical_decision_task_MP,2020.1.3,Win32,60,,z,1,0.74599,,,,,,,,0.74599,1,,,,,,417,NW,"ID",50,earoud,EAROUD,z,,,,,,0.062962963,-0.325925926,0,0,0,,0,177,177,356,1,
,,,,,,,,,,,,,,,,,,5dd03b1749f607128e66ca09,2020-08-10_10h17.46.444,lexical_decision_task_MP,2020.1.3,Win32,60,,m,1,0.686245,,,,,,,,0.686245,1,,,,,,23,WORD,UN,50,praise,WEALTH,m,,,,,,0.062962963,-0.325925926,0,0,0,,0,178,178,202,1,
,,,,,,,,,,,,,,,,,,5dd03b1749f607128e66ca09,2020-08-10_10h17.46.444,lexical_decision_task_MP,2020.1.3,Win32,60,,z,1,0.67347,,,,,,,,0.67347,1,,,,,,269,NW,UN,50,wrimsy,ORCHET,z,,,,,,0.062962963,-0.325925926,0,0,0,,0,179,179,448,1,
,,,,,,,,,,,,,,,,,,5dd03b1749f607128e66ca09,2020-08-10_10h17.46.444,lexical_decision_task_MP,2020.1.3,Win32,60,,m,1,0.615655,,,,,,,,0.615655,1,,,,,,49,WORD,UN,50,snatch,SURVEY,m,,,,,,0.062962963,-0.325925926,0,0,0,,0,180,180,228,1,
,,,,,,,,,,,,,,,,,,5dd03b1749f607128e66ca09,2020-08-10_10h17.46.444,lexical_decision_task_MP,2020.1.3,Win32,60,,z,1,1.12144,,,,,,,,1.12144,1,,,,,,314,NW,"ID",33,sprine,SPRINE,z,,,,,,0.062962963,-0.325925926,0,0,0,,0,181,181,253,1,
,,,,,,,,,,,,,,,,,,5dd03b1749f607128e66ca09,2020-08-10_10h17.46.444,lexical_decision_task_MP,2020.1.3,Win32,60,,m,1,0.63478,,,,,,,,0.63478,1,,,,,,42,WORD,UN,50,tongue,CHAPEL,m,,,,,,0.062962963,-0.325925926,0,0,0,,0,182,182,221,1,
,,,,,,,,,,,,,,,,,,5dd03b1749f607128e66ca09,2020-08-10_10h17.46.444,lexical_decision_task_MP,2020.1.3,Win32,60,,z,1,0.574115,,,,,,,,0.574115,1,,,,,,359,NW,"ID",33,fonver,FONVER,z,,,,,,0.062962963,-0.325925926,0,0,0,,0,183,183,298,1,
,,,,,,,,,,,,,,,,,,5dd03b1749f607128e66ca09,2020-08-10_10h17.46.444,lexical_decision_task_MP,2020.1.3,Win32,60,,z,1,0.809485,,,,,,,,0.809485,1,,,,,,476,NW,UN,33,photie,JOSTED,z,,,,,,0.062962963,-0.325925926,0,0,0,,0,184,184,415,1,
,,,,,,,,,,,,,,,,,,5dd03b1749f607128e66ca09,2020-08-10_10h17.46.444,lexical_decision_task_MP,2020.1.3,Win32,60,,z,1,0.80081,,,,,,,,0.80081,1,,,,,,245,NW,UN,50,piaton,ANOUGS,z,,,,,,0.062962963,-0.325925926,0,0,0,,0,185,185,424,1,
,,,,,,,,,,,,,,,,,,5dd03b1749f607128e66ca09,2020-08-10_10h17.46.444,lexical_decision_task_MP,2020.1.3,Win32,60,,m,1,0.56895,,,,,,,,0.56895,1,,,,,,210,WORD,UN,33,infect,MONKEY,m,,,,,,0.062962963,-0.325925926,0,0,0,,0,186,186,149,1,
,,,,,,,,,,,,,,,,,,5dd03b1749f607128e66ca09,2020-08-10_10h17.46.444,lexical_decision_task_MP,2020.1.3,Win32,60,,z,1,0.6177,,,,,,,,0.6177,1,,,,,,248,NW,UN,50,batrol,STROLE,z,,,,,,0.062962963,-0.325925926,0,0,0,,0,187,187,427,1,
,,,,,,,,,,,,,,,,,,5dd03b1749f607128e66ca09,2020-08-10_10h17.46.444,lexical_decision_task_MP,2020.1.3,Win32,60,,z,1,1.044705,,,,,,,,1.044705,1,,,,,,261,NW,UN,50,quilew,STUNCH,z,,,,,,0.062962963,-0.325925926,0,0,0,,0,188,188,440,1,
,,,,,,,,,,,,,,,,,,5dd03b1749f607128e66ca09,2020-08-10_10h17.46.444,lexical_decision_task_MP,2020.1.3,Win32,60,,m,1,0.57052,,,,,,,,0.57052,1,,,,,,104,WORD,"ID",33,studio,STUDIO,m,,,,,,0.062962963,-0.325925926,0,0,0,,0,189,189,43,1,
,,,,,,,,,,,,,,,,,,5dd03b1749f607128e66ca09,2020-08-10_10h17.46.444,lexical_decision_task_MP,2020.1.3,Win32,60,,z,1,0.59941,,,,,,,,0.59941,1,,,,,,422,NW,UN,33,streld,ALCOUD,z,,,,,,0.062962963,-0.325925926,0,0,0,,0,190,190,361,1,
,,,,,,,,,,,,,,,,,,5dd03b1749f607128e66ca09,2020-08-10_10h17.46.444,lexical_decision_task_MP,2020.1.3,Win32,60,,z,1,0.574665,,,,,,,,0.574665,1,,,,,,337,NW,"ID",33,rejols,REJOLS,z,,,,,,0.062962963,-0.325925926,0,0,0,,0,191,191,276,1,
,,,,,,,,,,,,,,,,,,5dd03b1749f607128e66ca09,2020-08-10_10h17.46.444,lexical_decision_task_MP,2020.1.3,Win32,60,,m,1,0.63107,,,,,,,,0.63107,1,,,,,,97,WORD,"ID",33,client,CLIENT,m,,,,,,0.062962963,-0.325925926,0,0,0,,0,192,192,36,1,
,,,,,,,,,,,,,,,,,,5dd03b1749f607128e66ca09,2020-08-10_10h17.46.444,lexical_decision_task_MP,2020.1.3,Win32,60,,m,1,0.801425,,,,,,,,0.801425,1,,,,,,60,WORD,UN,50,fright,PENCIL,m,,,,,,0.062962963,-0.325925926,0,0,0,,0,193,193,239,1,
,,,,,,,,,,,,,,,,,,5dd03b1749f607128e66ca09,2020-08-10_10h17.46.444,lexical_decision_task_MP,2020.1.3,Win32,60,,z,1,0.5208,,,,,,,,0.5208,1,,,,,,412,NW,"ID",50,jiluer,JILUER,z,,,,,,0.062962963,-0.325925926,0,0,0,,0,194,194,351,1,
,,,,,,,,,,,,,,,,,,5dd03b1749f607128e66ca09,2020-08-10_10h17.46.444,lexical_decision_task_MP,2020.1.3,Win32,60,,z,1,0.678175,,,,,,,,0.678175,1,,,,,,366,NW,"ID",50,toshel,TOSHEL,z,,,,,,0.062962963,-0.325925926,0,0,0,,0,195,195,305,1,
,,,,,,,,,,,,,,,,,,5dd03b1749f607128e66ca09,2020-08-10_10h17.46.444,lexical_decision_task_MP,2020.1.3,Win32,60,,z,1,0.55274,,,,,,,,0.55274,1,,,,,,410,NW,"ID",50,tunory,TUNORY,z,,,,,,0.062962963,-0.325925926,0,0,0,,0,196,196,349,1,
,,,,,,,,,,,,,,,,,,5dd03b1749f607128e66ca09,2020-08-10_10h17.46.444,lexical_decision_task_MP,2020.1.3,Win32,60,,z,1,0.882735,,,,,,,,0.882735,1,,,,,,425,NW,UN,33,urivel,FRUDGE,z,,,,,,0.062962963,-0.325925926,0,0,0,,0,197,197,364,1,
,,,,,,,,,,,,,,,,,,5dd03b1749f607128e66ca09,2020-08-10_10h17.46.444,lexical_decision_task_MP,2020.1.3,Win32,60,,m,1,0.539055,,,,,,,,0.539055,1,,,,,,128,WORD,"ID",50,senior,SENIOR,m,,,,,,0.062962963,-0.325925926,0,0,0,,0,198,198,67,1,
,,,,,,,,,,,,,,,,,,5dd03b1749f607128e66ca09,2020-08-10_10h17.46.444,lexical_decision_task_MP,2020.1.3,Win32,60,,z,1,0.606655,,,,,,,,0.606655,1,,,,,,450,NW,UN,33,cainky,PHRECT,z,,,,,,0.062962963,-0.325925926,0,0,0,,0,199,199,389,1,
,,,,,,,,,,,,,,,,,,5dd03b1749f607128e66ca09,2020-08-10_10h17.46.444,lexical_decision_task_MP,2020.1.3,Win32,60,,z,1,0.631075,,,,,,,,0.631075,1,,,,,,432,NW,UN,33,drance,LUNKER,z,,,,,,0.062962963,-0.325925926,0,0,0,,0,200,200,371,1,
,,,,,,,,,,,,,,,,,,5dd03b1749f607128e66ca09,2020-08-10_10h17.46.444,lexical_decision_task_MP,2020.1.3,Win32,60,,z,1,0.65618,,,,,,,,0.65618,1,,,,,,343,NW,"ID",33,aimosy,AIMOSY,z,,,,,,0.062962963,-0.325925926,0,0,0,,0,201,201,282,1,
,,,,,,,,,,,,,,,,,,5dd03b1749f607128e66ca09,2020-08-10_10h17.46.444,lexical_decision_task_MP,2020.1.3,Win32,60,,m,1,0.68209,,,,,,,,0.68209,1,,,,,,34,WORD,UN,50,socket,JUNGLE,m,,,,,,0.062962963,-0.325925926,0,0,0,,0,202,202,213,1,
,,,,,,,,,,,,,,,,,,5dd03b1749f607128e66ca09,2020-08-10_10h17.46.444,lexical_decision_task_MP,2020.1.3,Win32,60,,z,1,0.63561,,,,,,,,0.63561,1,,,,,,473,NW,UN,33,hablin,CRIBLE,z,,,,,,0.062962963,-0.325925926,0,0,0,,0,203,203,412,1,
,,,,,,,,,,,,,,,,,,5dd03b1749f607128e66ca09,2020-08-10_10h17.46.444,lexical_decision_task_MP,2020.1.3,Win32,60,,z,1,0.54978,,,,,,,,0.54978,1,,,,,,278,NW,UN,50,celond,UNIGHS,z,,,,,,0.062962963,-0.325925926,0,0,0,,0,204,204,457,1,
,,,,,,,,,,,,,,,,,,5dd03b1749f607128e66ca09,2020-08-10_10h17.46.444,lexical_decision_task_MP,2020.1.3,Win32,60,,z,0,0.664125,,,,,,,,0.664125,0,,,,,,2,WORD,UN,50,knight,BRIDGE,m,,,,,,0.062962963,-0.325925926,0,0,0,,0,205,205,181,1,
,,,,,,,,,,,,,,,,,,5dd03b1749f607128e66ca09,2020-08-10_10h17.46.444,lexical_decision_task_MP,2020.1.3,Win32,60,,m,1,0.220915,,,,,,,,0.220915,1,,,,,,173,WORD,"ID",50,shower,SHOWER,m,,,,,,0.062962963,-0.325925926,0,0,0,,0,206,206,112,1,
,,,,,,,,,,,,,,,,,,5dd03b1749f607128e66ca09,2020-08-10_10h17.46.444,lexical_decision_task_MP,2020.1.3,Win32,60,,m,0,0.07857,,,,,,,,0.07857,0,,,,,,433,NW,UN,33,pitrom,DRANCE,z,,,,,,0.062962963,-0.325925926,0,0,0,,0,207,207,372,1,
,,,,,,,,,,,,,,,,,,5dd03b1749f607128e66ca09,2020-08-10_10h17.46.444,lexical_decision_task_MP,2020.1.3,Win32,60,,z,0,0.58992,,,,,,,,0.58992,0,,,,,,69,WORD,"ID",33,plenty,PLENTY,m,,,,,,0.060185185,-0.325925926,0,0,0,,0,208,208,8,1,
,,,,,,,,,,,,,,,,,,5dd03b1749f607128e66ca09,2020-08-10_10h17.46.444,lexical_decision_task_MP,2020.1.3,Win32,60,,z,1,0.666,,,,,,,,0.666,1,,,,,,429,NW,UN,33,caroey,FUNTLE,z,,,,,,0.053703704,-0.326851852,0,0,0,,0,209,209,368,1,
,,,,,,,,,,,,,,,,,,5dd03b1749f607128e66ca09,2020-08-10_10h17.46.444,lexical_decision_task_MP,2020.1.3,Win32,60,,m,1,0.59822,,,,,,,,0.59822,1,,,,,,55,WORD,UN,50,ambush,STROKE,m,,,,,,0.065740741,-0.303703704,0,0,0,,0,210,210,234,1,
,,,,,,,,,,,,,,,,,,5dd03b1749f607128e66ca09,2020-08-10_10h17.46.444,lexical_decision_task_MP,2020.1.3,Win32,60,,m,0,0.34191,,,,,,,,0.34191,0,,,,,,312,NW,"ID",33,nerawl,NERAWL,z,,,,,,0.065740741,-0.303703704,0,0,0,,0,211,211,251,1,
,,,,,,,,,,,,,,,,,,5dd03b1749f607128e66ca09,2020-08-10_10h17.46.444,lexical_decision_task_MP,2020.1.3,Win32,60,,z,1,0.70206,,,,,,,,0.70206,1,,,,,,462,NW,UN,33,kispel,ABSULT,z,,,,,,0.065740741,-0.303703704,0,0,0,,0,212,212,401,1,
,,,,,,,,,,,,,,,,,,5dd03b1749f607128e66ca09,2020-08-10_10h17.46.444,lexical_decision_task_MP,2020.1.3,Win32,60,,z,0,0.400525,,,,,,,,0.400525,0,,,,,,99,WORD,"ID",33,fluent,FLUENT,m,,,,,,0.065740741,-0.303703704,0,0,0,,0,213,213,38,1,
,,,,,,,,,,,,,,,,,,5dd03b1749f607128e66ca09,2020-08-10_10h17.46.444,lexical_decision_task_MP,2020.1.3,Win32,60,,m,1,0.670325,,,,,,,,0.670325,1,,,,,,40,WORD,UN,50,spring,CONVEY,m,,,,,,0.068518519,-0.303703704,0,0,0,,0,214,214,219,1,
,,,,,,,,,,,,,,,,,,5dd03b1749f607128e66ca09,2020-08-10_10h17.46.444,lexical_decision_task_MP,2020.1.3,Win32,60,,z,1,0.63461,,,,,,,,0.63461,1,,,,,,452,NW,UN,33,bolvis,SURDEN,z,,,,,,0.068518519,-0.303703704,0,0,0,,0,215,215,391,1,
,,,,,,,,,,,,,,,,,,5dd03b1749f607128e66ca09,2020-08-10_10h17.46.444,lexical_decision_task_MP,2020.1.3,Win32,60,,z,1,0.533885,,,,,,,,0.533885,1,,,,,,287,NW,UN,50,yaceup,NYMBEL,z,,,,,,0.068518519,-0.303703704,0,0,0,,0,216,216,466,1,
,,,,,,,,,,,,,,,,,,5dd03b1749f607128e66ca09,2020-08-10_10h17.46.444,lexical_decision_task_MP,2020.1.3,Win32,60,,m,1,0.63248,,,,,,,,0.63248,1,,,,,,149,WORD,"ID",50,invade,INVADE,m,,,,,,0.068518519,-0.303703704,0,0,0,,0,217,217,88,1,
,,,,,,,,,,,,,,,,,,5dd03b1749f607128e66ca09,2020-08-10_10h17.46.444,lexical_decision_task_MP,2020.1.3,Win32,60,,m,1,0.574715,,,,,,,,0.574715,1,,,,,,224,WORD,UN,33,vulgar,PERIOD,m,,,,,,0.068518519,-0.303703704,0,0,0,,0,218,218,163,1,
,,,,,,,,,,,,,,,,,,5dd03b1749f607128e66ca09,2020-08-10_10h17.46.444,lexical_decision_task_MP,2020.1.3,Win32,60,,m,1,0.54966,,,,,,,,0.54966,1,,,,,,25,WORD,UN,50,sprint,DOMAIN,m,,,,,,0.068518519,-0.303703704,0,0,0,,0,219,219,204,1,
,,,,,,,,,,,,,,,,,,5dd03b1749f607128e66ca09,2020-08-10_10h17.46.444,lexical_decision_task_MP,2020.1.3,Win32,60,,z,1,0.575285,,,,,,,,0.575285,1,,,,,,437,NW,UN,33,baitch,SNAPEL,z,,,,,,0.068518519,-0.303703704,0,0,0,,0,220,220,376,1,
,,,,,,,,,,,,,,,,,,5dd03b1749f607128e66ca09,2020-08-10_10h17.46.444,lexical_decision_task_MP,2020.1.3,Win32,60,,z,1,0.529945,,,,,,,,0.529945,1,,,,,,479,NW,UN,33,crible,LOBUSH,z,,,,,,0.068518519,-0.300925926,0,0,0,,0,221,221,418,1,
,,,,,,,,,,,,,,,,,,5dd03b1749f607128e66ca09,2020-08-10_10h17.46.444,lexical_decision_task_MP,2020.1.3,Win32,60,,m,1,0.76747,,,,,,,,0.76747,1,,,,,,234,WORD,UN,33,poster,CLUMSY,m,,,,,,0.068518519,-0.300925926,0,0,0,,0,222,222,173,1,
,,,,,,,,,,,,,,,,,,5dd03b1749f607128e66ca09,2020-08-10_10h17.46.444,lexical_decision_task_MP,2020.1.3,Win32,60,,z,0,0.44959,,,,,,,,0.44959,0,,,,,,56,WORD,UN,50,change,AMBUSH,m,,,,,,0.068518519,-0.300925926,0,0,0,,0,223,223,235,1,
,,,,,,,,,,,,,,,,,,5dd03b1749f607128e66ca09,2020-08-10_10h17.46.444,lexical_decision_task_MP,2020.1.3,Win32,60,,z,1,0.66252,,,,,,,,0.66252,1,,,,,,325,NW,"ID",33,thruse,THRUSE,z,,,,,,0.068518519,-0.300925926,0,0,0,,0,224,224,264,1,
,,,,,,,,,,,,,,,,,,5dd03b1749f607128e66ca09,2020-08-10_10h17.46.444,lexical_decision_task_MP,2020.1.3,Win32,60,,m,1,0.72531,,,,,,,,0.72531,1,,,,,,33,WORD,UN,50,jungle,BUTLER,m,,,,,,0.068518519,-0.300925926,0,0,0,,0,225,225,212,1,
,,,,,,,,,,,,,,,,,,5dd03b1749f607128e66ca09,2020-08-10_10h17.46.444,lexical_decision_task_MP,2020.1.3,Win32,60,,m,1,0.370265,,,,,,,,0.370265,1,,,,,,109,WORD,"ID",33,wonder,WONDER,m,,,,,,0.068518519,-0.300925926,0,0,0,,0,226,226,48,1,
,,,,,,,,,,,,,,,,,,5dd03b1749f607128e66ca09,2020-08-10_10h17.46.444,lexical_decision_task_MP,2020.1.3,Win32,60,,m,1,0.37002,,,,,,,,0.37002,1,,,,,,101,WORD,"ID",33,wrench,WRENCH,m,,,,,,0.068518519,-0.300925926,0,0,0,,0,227,227,40,1,
,,,,,,,,,,,,,,,,,,5dd03b1749f607128e66ca09,2020-08-10_10h17.46.444,lexical_decision_task_MP,2020.1.3,Win32,60,,m,1,0.411105,,,,,,,,0.411105,1,,,,,,157,WORD,"ID",50,dragon,DRAGON,m,,,,,,0.068518519,-0.300925926,0,0,0,,0,228,228,96,1,
,,,,,,,,,,,,,,,,,,5dd03b1749f607128e66ca09,2020-08-10_10h17.46.444,lexical_decision_task_MP,2020.1.3,Win32,60,,m,1,0.36626,,,,,,,,0.36626,1,,,,,,130,WORD,"ID",50,stupid,STUPID,m,,,,,,0.068518519,-0.300925926,0,0,0,,0,229,229,69,1,
,,,,,,,,,,,,,,,,,,5dd03b1749f607128e66ca09,2020-08-10_10h17.46.444,lexical_decision_task_MP,2020.1.3,Win32,60,,m,1,0.40862,,,,,,,,0.40862,1,,,,,,8,WORD,UN,50,hustle,ABRUPT,m,,,,,,0.068518519,-0.300925926,0,0,0,,0,230,230,187,1,
,,,,,,,,,,,,,,,,,,5dd03b1749f607128e66ca09,2020-08-10_10h17.46.444,lexical_decision_task_MP,2020.1.3,Win32,60,,m,0,0.38517,,,,,,,,0.38517,0,,,,,,436,NW,UN,33,snapel,FRUTAN,z,,,,,,0.068518519,-0.300925926,0,0,0,,0,231,231,375,1,
,,,,,,,,,,,,,,,,,,5dd03b1749f607128e66ca09,2020-08-10_10h17.46.444,lexical_decision_task_MP,2020.1.3,Win32,60,,m,1,0.550295,,,,,,,,0.550295,1,,,,,,89,WORD,"ID",33,permit,PERMIT,m,,,,,,0.068518519,-0.300925926,0,0,0,,0,232,232,28,1,
,,,,,,,,,,,,,,,,,,5dd03b1749f607128e66ca09,2020-08-10_10h17.46.444,lexical_decision_task_MP,2020.1.3,Win32,60,,z,0,0.616105,,,,,,,,0.616105,0,,,,,,123,WORD,"ID",50,strike,STRIKE,m,,,,,,0.068518519,-0.300925926,0,0,0,,0,233,233,62,1,
,,,,,,,,,,,,,,,,,,5dd03b1749f607128e66ca09,2020-08-10_10h17.46.444,lexical_decision_task_MP,2020.1.3,Win32,60,,m,1,0.67081,,,,,,,,0.67081,1,,,,,,214,WORD,UN,33,phobia,INTAKE,m,,,,,,0.068518519,-0.300925926,0,0,0,,0,234,234,153,1,
,,,,,,,,,,,,,,,,,,5dd03b1749f607128e66ca09,2020-08-10_10h17.46.444,lexical_decision_task_MP,2020.1.3,Win32,60,,z,1,0.570725,,,,,,,,0.570725,1,,,,,,259,NW,UN,50,unject,SOUDAL,z,,,,,,0.068518519,-0.300925926,0,0,0,,0,235,235,438,1,
,,,,,,,,,,,,,,,,,,5dd03b1749f607128e66ca09,2020-08-10_10h17.46.444,lexical_decision_task_MP,2020.1.3,Win32,60,,z,1,1.118755,,,,,,,,1.118755,1,,,,,,443,NW,UN,33,jaunce,DORSEX,z,,,,,,0.068518519,-0.300925926,0,0,0,,0,236,236,382,1,
,,,,,,,,,,,,,,,,,,5dd03b1749f607128e66ca09,2020-08-10_10h17.46.444,lexical_decision_task_MP,2020.1.3,Win32,60,,z,1,0.56715,,,,,,,,0.56715,1,,,,,,298,NW,UN,50,sturch,PIERGY,z,,,,,,0.068518519,-0.300925926,0,0,0,,0,237,237,477,1,
,,,,,,,,,,,,,,,,,,5dd03b1749f607128e66ca09,2020-08-10_10h17.46.444,lexical_decision_task_MP,2020.1.3,Win32,60,,z,0,0.3827,,,,,,,,0.3827,0,,,,,,119,WORD,"ID",33,spider,SPIDER,m,,,,,,0.068518519,-0.300925926,0,0,0,,0,238,238,58,1,
,,,,,,,,,,,,,,,,,,5dd03b1749f607128e66ca09,2020-08-10_10h17.46.444,lexical_decision_task_MP,2020.1.3,Win32,60,,z,1,0.65107,,,,,,,,0.65107,1,,,,,,465,NW,UN,33,bafent,WHIVEX,z,,,,,,0.068518519,-0.300925926,0,0,0,,0,239,239,404,1,
,,,,,,,,,,,,,,,,,,5dd03b1749f607128e66ca09,2020-08-10_10h17.46.444,lexical_decision_task_MP,2020.1.3,Win32,60,,z,1,0.601095,,,,,,,,0.601095,1,,,,,,469,NW,UN,33,crudio,PADIFS,z,,,,,,0.068518519,-0.300925926,0,0,0,,0,240,240,408,1,
,,,,,,,,,,,,,,,,,,5dd03b1749f607128e66ca09,2020-08-10_10h17.46.444,lexical_decision_task_MP,2020.1.3,Win32,60,,z,1,0.57637,,,,,,,,0.57637,1,,,,,,309,NW,"ID",33,amiloy,AMILOY,z,,,,,,-0.005555556,-0.39537037,1,0,0,,0,241,241,248,1,break_done_button
,,,,,,,,,,,,,,,,,,5dd03b1749f607128e66ca09,2020-08-10_10h17.46.444,lexical_decision_task_MP,2020.1.3,Win32,60,,z,1,0.670785,,,,,,,,0.670785,1,,,,,,428,NW,UN,33,funtle,TANDLY,z,,,,,,-0.017592593,-0.300925926,0,0,0,,0,242,242,367,1,
,,,,,,,,,,,,,,,,,,5dd03b1749f607128e66ca09,2020-08-10_10h17.46.444,lexical_decision_task_MP,2020.1.3,Win32,60,,z,1,0.651205,,,,,,,,0.651205,1,,,,,,330,NW,"ID",33,kensom,KENSOM,z,,,,,,-0.017592593,-0.300925926,0,0,0,,0,243,243,269,1,
,,,,,,,,,,,,,,,,,,5dd03b1749f607128e66ca09,2020-08-10_10h17.46.444,lexical_decision_task_MP,2020.1.3,Win32,60,,z,1,0.600225,,,,,,,,0.600225,1,,,,,,348,NW,"ID",33,dumple,DUMPLE,z,,,,,,-0.017592593,-0.300925926,0,0,0,,0,244,244,287,1,
,,,,,,,,,,,,,,,,,,5dd03b1749f607128e66ca09,2020-08-10_10h17.46.444,lexical_decision_task_MP,2020.1.3,Win32,60,,m,1,0.59993,,,,,,,,0.59993,1,,,,,,172,WORD,"ID",50,patrol,PATROL,m,,,,,,-0.017592593,-0.300925926,0,0,0,,0,245,245,111,1,
,,,,,,,,,,,,,,,,,,5dd03b1749f607128e66ca09,2020-08-10_10h17.46.444,lexical_decision_task_MP,2020.1.3,Win32,60,,z,1,0.653655,,,,,,,,0.653655,1,,,,,,373,NW,"ID",50,bigent,BIGENT,z,,,,,,-0.017592593,-0.300925926,0,0,0,,0,246,246,312,1,
,,,,,,,,,,,,,,,,,,5dd03b1749f607128e66ca09,2020-08-10_10h17.46.444,lexical_decision_task_MP,2020.1.3,Win32,60,,z,0,0.43294,,,,,,,,0.43294,0,,,,,,114,WORD,"ID",33,placid,PLACID,m,,,,,,-0.017592593,-0.300925926,0,0,0,,0,247,247,53,1,
,,,,,,,,,,,,,,,,,,5dd03b1749f607128e66ca09,2020-08-10_10h17.46.444,lexical_decision_task_MP,2020.1.3,Win32,60,,m,1,0.60159,,,,,,,,0.60159,1,,,,,,106,WORD,"ID",33,ransom,RANSOM,m,,,,,,-0.017592593,-0.300925926,0,0,0,,0,248,248,45,1,
,,,,,,,,,,,,,,,,,,5dd03b1749f607128e66ca09,2020-08-10_10h17.46.444,lexical_decision_task_MP,2020.1.3,Win32,60,,z,1,0.51748,,,,,,,,0.51748,1,,,,,,279,NW,UN,50,curbol,CELOND,z,,,,,,-0.017592593,-0.300925926,0,0,0,,0,249,249,458,1,
,,,,,,,,,,,,,,,,,,5dd03b1749f607128e66ca09,2020-08-10_10h17.46.444,lexical_decision_task_MP,2020.1.3,Win32,60,,m,1,0.68369,,,,,,,,0.68369,1,,,,,,10,WORD,UN,50,cruise,ETHNIC,m,,,,,,-0.017592593,-0.300925926,0,0,0,,0,250,250,189,1,
,,,,,,,,,,,,,,,,,,5dd03b1749f607128e66ca09,2020-08-10_10h17.46.444,lexical_decision_task_MP,2020.1.3,Win32,60,,m,0,0.51971,,,,,,,,0.51971,0,,,,,,303,NW,"ID",33,fiream,FIREAM,z,,,,,,-0.017592593,-0.300925926,0,0,0,,0,251,251,242,1,
,,,,,,,,,,,,,,,,,,5dd03b1749f607128e66ca09,2020-08-10_10h17.46.444,lexical_decision_task_MP,2020.1.3,Win32,60,,m,1,0.444385,,,,,,,,0.444385,1,,,,,,155,WORD,"ID",50,lizard,LIZARD,m,,,,,,-0.017592593,-0.300925926,0,0,0,,0,252,252,94,1,
,,,,,,,,,,,,,,,,,,5dd03b1749f607128e66ca09,2020-08-10_10h17.46.444,lexical_decision_task_MP,2020.1.3,Win32,60,,z,1,1.313685,,,,,,,,1.313685,1,,,,,,329,NW,"ID",33,yarike,YARIKE,z,,,,,,-0.017592593,-0.300925926,0,0,0,,0,253,253,268,1,
,,,,,,,,,,,,,,,,,,5dd03b1749f607128e66ca09,2020-08-10_10h17.46.444,lexical_decision_task_MP,2020.1.3,Win32,60,,z,1,0.50401,,,,,,,,0.50401,1,,,,,,365,NW,"ID",50,guairt,GUAIRT,z,,,,,,-0.017592593,-0.300925926,0,0,0,,0,254,254,304,1,
,,,,,,,,,,,,,,,,,,5dd03b1749f607128e66ca09,2020-08-10_10h17.46.444,lexical_decision_task_MP,2020.1.3,Win32,60,,m,1,0.75797,,,,,,,,0.75797,1,,,,,,220,WORD,UN,33,mascot,VOYAGE,m,,,,,,-0.017592593,-0.300925926,0,0,0,,0,255,255,159,1,
,,,,,,,,,,,,,,,,,,5dd03b1749f607128e66ca09,2020-08-10_10h17.46.444,lexical_decision_task_MP,2020.1.3,Win32,60,,z,1,0.719245,,,,,,,,0.719245,1,,,,,,284,NW,UN,50,prudge,SHAPLE,z,,,,,,-0.017592593,-0.300925926,0,0,0,,0,256,256,463,1,
,,,,,,,,,,,,,,,,,,5dd03b1749f607128e66ca09,2020-08-10_10h17.46.444,lexical_decision_task_MP,2020.1.3,Win32,60,,m,1,0.57974,,,,,,,,0.57974,1,,,,,,9,WORD,UN,50,bridge,HUSTLE,m,,,,,,-0.017592593,-0.300925926,0,0,0,,0,257,257,188,1,
,,,,,,,,,,,,,,,,,,5dd03b1749f607128e66ca09,2020-08-10_10h17.46.444,lexical_decision_task_MP,2020.1.3,Win32,60,,m,1,0.509585,,,,,,,,0.509585,1,,,,,,204,WORD,UN,33,lounge,BURDEN,m,,,,,,-0.017592593,-0.300925926,0,0,0,,0,258,258,143,1,
,,,,,,,,,,,,,,,,,,5dd03b1749f607128e66ca09,2020-08-10_10h17.46.444,lexical_decision_task_MP,2020.1.3,Win32,60,,z,1,0.72169,,,,,,,,0.72169,1,,,,,,247,NW,UN,50,strole,BLARGE,z,,,,,,-0.017592593,-0.300925926,0,0,0,,0,259,259,426,1,
,,,,,,,,,,,,,,,,,,5dd03b1749f607128e66ca09,2020-08-10_10h17.46.444,lexical_decision_task_MP,2020.1.3,Win32,60,,z,1,0.79079,,,,,,,,0.79079,1,,,,,,368,NW,"ID",50,hornal,HORNAL,z,,,,,,-0.017592593,-0.300925926,0,0,0,,0,260,260,307,1,
,,,,,,,,,,,,,,,,,,5dd03b1749f607128e66ca09,2020-08-10_10h17.46.444,lexical_decision_task_MP,2020.1.3,Win32,60,,m,1,0.632195,,,,,,,,0.632195,1,,,,,,190,WORD,UN,33,stable,BACKUP,m,,,,,,-0.017592593,-0.300925926,0,0,0,,0,261,261,129,1,
,,,,,,,,,,,,,,,,,,5dd03b1749f607128e66ca09,2020-08-10_10h17.46.444,lexical_decision_task_MP,2020.1.3,Win32,60,,z,1,0.56756,,,,,,,,0.56756,1,,,,,,463,NW,UN,33,chaite,KISPEL,z,,,,,,-0.017592593,-0.300925926,0,0,0,,0,262,262,402,1,
,,,,,,,,,,,,,,,,,,5dd03b1749f607128e66ca09,2020-08-10_10h17.46.444,lexical_decision_task_MP,2020.1.3,Win32,60,,z,1,0.54837,,,,,,,,0.54837,1,,,,,,404,NW,"ID",50,cluirm,CLUIRM,z,,,,,,-0.017592593,-0.300925926,0,0,0,,0,263,263,343,1,
,,,,,,,,,,,,,,,,,,5dd03b1749f607128e66ca09,2020-08-10_10h17.46.444,lexical_decision_task_MP,2020.1.3,Win32,60,,z,0,0.3979,,,,,,,,0.3979,0,,,,,,87,WORD,"ID",33,filter,FILTER,m,,,,,,-0.017592593,-0.300925926,0,0,0,,0,264,264,26,1,
,,,,,,,,,,,,,,,,,,5dd03b1749f607128e66ca09,2020-08-10_10h17.46.444,lexical_decision_task_MP,2020.1.3,Win32,60,,z,1,0.669985,,,,,,,,0.669985,1,,,,,,288,NW,UN,50,starby,YACEUP,z,,,,,,-0.017592593,-0.300925926,0,0,0,,0,265,265,467,1,
,,,,,,,,,,,,,,,,,,5dd03b1749f607128e66ca09,2020-08-10_10h17.46.444,lexical_decision_task_MP,2020.1.3,Win32,60,,m,1,0.50019,,,,,,,,0.50019,1,,,,,,93,WORD,"ID",33,public,PUBLIC,m,,,,,,-0.017592593,-0.300925926,0,0,0,,0,266,266,32,1,
,,,,,,,,,,,,,,,,,,5dd03b1749f607128e66ca09,2020-08-10_10h17.46.444,lexical_decision_task_MP,2020.1.3,Win32,60,,z,1,0.61678,,,,,,,,0.61678,1,,,,,,315,NW,"ID",33,laston,LASTON,z,,,,,,-0.017592593,-0.300925926,0,0,0,,0,267,267,254,1,
,,,,,,,,,,,,,,,,,,5dd03b1749f607128e66ca09,2020-08-10_10h17.46.444,lexical_decision_task_MP,2020.1.3,Win32,60,,z,1,0.475805,,,,,,,,0.475805,1,,,,,,421,NW,UN,33,alcoud,KNISMA,z,,,,,,-0.017592593,-0.300925926,0,0,0,,0,268,268,360,1,
,,,,,,,,,,,,,,,,,,5dd03b1749f607128e66ca09,2020-08-10_10h17.46.444,lexical_decision_task_MP,2020.1.3,Win32,60,,z,1,0.56948,,,,,,,,0.56948,1,,,,,,275,NW,UN,50,yarmon,SLEIRT,z,,,,,,-0.017592593,-0.300925926,0,0,0,,0,269,269,454,1,
,,,,,,,,,,,,,,,,,,5dd03b1749f607128e66ca09,2020-08-10_10h17.46.444,lexical_decision_task_MP,2020.1.3,Win32,60,,m,1,0.5561,,,,,,,,0.5561,1,,,,,,18,WORD,UN,50,patron,HUMBLE,m,,,,,,-0.017592593,-0.300925926,0,0,0,,0,270,270,197,1,
,,,,,,,,,,,,,,,,,,5dd03b1749f607128e66ca09,2020-08-10_10h17.46.444,lexical_decision_task_MP,2020.1.3,Win32,60,,m,0,0.478235,,,,,,,,0.478235,0,,,,,,411,NW,"ID",50,orchin,ORCHIN,z,,,,,,-0.017592593,-0.300925926,0,0,0,,0,271,271,350,1,
,,,,,,,,,,,,,,,,,,5dd03b1749f607128e66ca09,2020-08-10_10h17.46.444,lexical_decision_task_MP,2020.1.3,Win32,60,,m,1,0.62048,,,,,,,,0.62048,1,,,,,,22,WORD,UN,50,wealth,JOCKEY,m,,,,,,-0.017592593,-0.300925926,0,0,0,,0,272,272,201,1,
,,,,,,,,,,,,,,,,,,5dd03b1749f607128e66ca09,2020-08-10_10h17.46.444,lexical_decision_task_MP,2020.1.3,Win32,60,,m,1,0.32141,,,,,,,,0.32141,1,,,,,,72,WORD,"ID",33,bright,BRIGHT,m,,,,,,-0.017592593,-0.300925926,0,0,0,,0,273,273,11,1,
,,,,,,,,,,,,,,,,,,5dd03b1749f607128e66ca09,2020-08-10_10h17.46.444,lexical_decision_task_MP,2020.1.3,Win32,60,,z,1,0.536425,,,,,,,,0.536425,1,,,,,,273,NW,UN,50,fumblo,SORTEL,z,,,,,,-0.017592593,-0.300925926,0,0,0,,0,274,274,452,1,
,,,,,,,,,,,,,,,,,,5dd03b1749f607128e66ca09,2020-08-10_10h17.46.444,lexical_decision_task_MP,2020.1.3,Win32,60,,z,1,0.57061,,,,,,,,0.57061,1,,,,,,371,NW,"ID",50,geiloy,GEILOY,z,,,,,,-0.017592593,-0.300925926,0,0,0,,0,275,275,310,1,
,,,,,,,,,,,,,,,,,,5dd03b1749f607128e66ca09,2020-08-10_10h17.46.444,lexical_decision_task_MP,2020.1.3,Win32,60,,m,1,0.541385,,,,,,,,0.541385,1,,,,,,150,WORD,"ID",50,random,RANDOM,m,,,,,,-0.017592593,-0.300925926,0,0,0,,0,276,276,89,1,
,,,,,,,,,,,,,,,,,,5dd03b1749f607128e66ca09,2020-08-10_10h17.46.444,lexical_decision_task_MP,2020.1.3,Win32,60,,z,1,0.600455,,,,,,,,0.600455,1,,,,,,250,NW,UN,50,lupict,MILTED,z,,,,,,-0.017592593,-0.300925926,0,0,0,,0,277,277,429,1,
,,,,,,,,,,,,,,,,,,5dd03b1749f607128e66ca09,2020-08-10_10h17.46.444,lexical_decision_task_MP,2020.1.3,Win32,60,,z,1,0.593015,,,,,,,,0.593015,1,,,,,,363,NW,"ID",50,breali,BREALI,z,,,,,,-0.017592593,-0.300925926,0,0,0,,0,278,278,302,1,
,,,,,,,,,,,,,,,,,,5dd03b1749f607128e66ca09,2020-08-10_10h17.46.444,lexical_decision_task_MP,2020.1.3,Win32,60,,z,1,0.504855,,,,,,,,0.504855,1,,,,,,335,NW,"ID",33,desion,DESION,z,,,,,,-0.017592593,-0.300925926,0,0,0,,0,279,279,274,1,
,,,,,,,,,,,,,,,,,,5dd03b1749f607128e66ca09,2020-08-10_10h17.46.444,lexical_decision_task_MP,2020.1.3,Win32,60,,z,1,0.499545,,,,,,,,0.499545,1,,,,,,471,NW,UN,33,cigney,NOBEST,z,,,,,,-0.017592593,-0.300925926,0,0,0,,0,280,280,410,1,
,,,,,,,,,,,,,,,,,,5dd03b1749f607128e66ca09,2020-08-10_10h17.46.444,lexical_decision_task_MP,2020.1.3,Win32,60,,m,1,0.58268,,,,,,,,0.58268,1,,,,,,141,WORD,"ID",50,orphan,ORPHAN,m,,,,,,-0.017592593,-0.300925926,0,0,0,,0,281,281,80,1,
,,,,,,,,,,,,,,,,,,5dd03b1749f607128e66ca09,2020-08-10_10h17.46.444,lexical_decision_task_MP,2020.1.3,Win32,60,,m,1,0.58339,,,,,,,,0.58339,1,,,,,,64,WORD,"ID",33,throne,THRONE,m,,,,,,-0.017592593,-0.300925926,0,0,0,,0,282,282,3,1,
,,,,,,,,,,,,,,,,,,5dd03b1749f607128e66ca09,2020-08-10_10h17.46.444,lexical_decision_task_MP,2020.1.3,Win32,60,,m,1,0.53403,,,,,,,,0.53403,1,,,,,,108,WORD,"ID",33,reckon,RECKON,m,,,,,,-0.017592593,-0.300925926,0,0,0,,0,283,283,47,1,
,,,,,,,,,,,,,,,,,,5dd03b1749f607128e66ca09,2020-08-10_10h17.46.444,lexical_decision_task_MP,2020.1.3,Win32,60,,m,1,0.46987,,,,,,,,0.46987,1,,,,,,111,WORD,"ID",33,induce,INDUCE,m,,,,,,-0.017592593,-0.300925926,0,0,0,,0,284,284,50,1,
,,,,,,,,,,,,,,,,,,5dd03b1749f607128e66ca09,2020-08-10_10h17.46.444,lexical_decision_task_MP,2020.1.3,Win32,60,,z,1,0.533245,,,,,,,,0.533245,1,,,,,,256,NW,UN,50,veniod,INLORS,z,,,,,,-0.017592593,-0.300925926,0,0,0,,0,285,285,435,1,
,,,,,,,,,,,,,,,,,,5dd03b1749f607128e66ca09,2020-08-10_10h17.46.444,lexical_decision_task_MP,2020.1.3,Win32,60,,m,1,0.67624,,,,,,,,0.67624,1,,,,,,161,WORD,"ID",50,pastor,PASTOR,m,,,,,,-0.017592593,-0.300925926,0,0,0,,0,286,286,100,1,
,,,,,,,,,,,,,,,,,,5dd03b1749f607128e66ca09,2020-08-10_10h17.46.444,lexical_decision_task_MP,2020.1.3,Win32,60,,m,1,0.556615,,,,,,,,0.556615,1,,,,,,232,WORD,UN,33,nature,INJECT,m,,,,,,-0.017592593,-0.300925926,0,0,0,,0,287,287,171,1,
,,,,,,,,,,,,,,,,,,5dd03b1749f607128e66ca09,2020-08-10_10h17.46.444,lexical_decision_task_MP,2020.1.3,Win32,60,,z,1,0.68968,,,,,,,,0.68968,1,,,,,,358,NW,"ID",33,fleack,FLEACK,z,,,,,,-0.017592593,-0.300925926,0,0,0,,0,288,288,297,1,
,,,,,,,,,,,,,,,,,,5dd03b1749f607128e66ca09,2020-08-10_10h17.46.444,lexical_decision_task_MP,2020.1.3,Win32,60,,m,1,0.61961,,,,,,,,0.61961,1,,,,,,28,WORD,UN,50,sketch,COMEDY,m,,,,,,-0.017592593,-0.300925926,0,0,0,,0,289,289,207,1,
,,,,,,,,,,,,,,,,,,5dd03b1749f607128e66ca09,2020-08-10_10h17.46.444,lexical_decision_task_MP,2020.1.3,Win32,60,,z,1,0.590415,,,,,,,,0.590415,1,,,,,,384,NW,"ID",50,guesco,GUESCO,z,,,,,,-0.017592593,-0.300925926,0,0,0,,0,290,290,323,1,
,,,,,,,,,,,,,,,,,,5dd03b1749f607128e66ca09,2020-08-10_10h17.46.444,lexical_decision_task_MP,2020.1.3,Win32,60,,m,1,0.540995,,,,,,,,0.540995,1,,,,,,120,WORD,"ID",33,strain,STRAIN,m,,,,,,-0.017592593,-0.300925926,0,0,0,,0,291,291,59,1,
,,,,,,,,,,,,,,,,,,5dd03b1749f607128e66ca09,2020-08-10_10h17.46.444,lexical_decision_task_MP,2020.1.3,Win32,60,,m,1,0.474565,,,,,,,,0.474565,1,,,,,,92,WORD,"ID",33,strand,STRAND,m,,,,,,-0.017592593,-0.300925926,0,0,0,,0,292,292,31,1,
,,,,,,,,,,,,,,,,,,5dd03b1749f607128e66ca09,2020-08-10_10h17.46.444,lexical_decision_task_MP,2020.1.3,Win32,60,,m,0,0.40629,,,,,,,,0.40629,0,,,,,,369,NW,"ID",50,wronch,WRONCH,z,,,,,,-0.017592593,-0.300925926,0,0,0,,0,293,293,308,1,
,,,,,,,,,,,,,,,,,,5dd03b1749f607128e66ca09,2020-08-10_10h17.46.444,lexical_decision_task_MP,2020.1.3,Win32,60,,m,1,0.514955,,,,,,,,0.514955,1,,,,,,82,WORD,"ID",33,stigma,STIGMA,m,,,,,,-0.017592593,-0.300925926,0,0,0,,0,294,294,21,1,
,,,,,,,,,,,,,,,,,,5dd03b1749f607128e66ca09,2020-08-10_10h17.46.444,lexical_decision_task_MP,2020.1.3,Win32,60,,m,1,0.38883,,,,,,,,0.38883,1,,,,,,127,WORD,"ID",50,castle,CASTLE,m,,,,,,-0.017592593,-0.300925926,0,0,0,,0,295,295,66,1,
,,,,,,,,,,,,,,,,,,5dd03b1749f607128e66ca09,2020-08-10_10h17.46.444,lexical_decision_task_MP,2020.1.3,Win32,60,,m,1,0.47199,,,,,,,,0.47199,1,,,,,,118,WORD,"ID",33,flight,FLIGHT,m,,,,,,-0.017592593,-0.300925926,0,0,0,,0,296,296,57,1,
,,,,,,,,,,,,,,,,,,5dd03b1749f607128e66ca09,2020-08-10_10h17.46.444,lexical_decision_task_MP,2020.1.3,Win32,60,,z,1,0.467035,,,,,,,,0.467035,1,,,,,,241,NW,UN,50,unwert,SMENCO,z,,,,,,-0.017592593,-0.300925926,0,0,0,,0,297,297,420,1,
,,,,,,,,,,,,,,,,,,5dd03b1749f607128e66ca09,2020-08-10_10h17.46.444,lexical_decision_task_MP,2020.1.3,Win32,60,,z,0,0.390215,,,,,,,,0.390215,0,,,,,,148,WORD,"ID",50,custom,CUSTOM,m,,,,,,-0.017592593,-0.300925926,0,0,0,,0,298,298,87,1,
,,,,,,,,,,,,,,,,,,5dd03b1749f607128e66ca09,2020-08-10_10h17.46.444,lexical_decision_task_MP,2020.1.3,Win32,60,,m,1,0.58052,,,,,,,,0.58052,1,,,,,,222,WORD,UN,33,export,HINDER,m,,,,,,-0.017592593,-0.300925926,0,0,0,,0,299,299,161,1,
,,,,,,,,,,,,,,,,,,5dd03b1749f607128e66ca09,2020-08-10_10h17.46.444,lexical_decision_task_MP,2020.1.3,Win32,60,,m,1,0.32017,,,,,,,,0.32017,1,,,,,,17,WORD,UN,50,humble,CHARGE,m,,,,,,-0.017592593,-0.300925926,0,0,0,,0,300,300,196,1,
,,,,,,,,,,,,,,,,,,5dd03b1749f607128e66ca09,2020-08-10_10h17.46.444,lexical_decision_task_MP,2020.1.3,Win32,60,,z,1,0.564205,,,,,,,,0.564205,1,,,,,,477,NW,UN,33,lobush,PHOTIE,z,,,,,,-0.017592593,-0.300925926,0,0,0,,0,301,301,416,1,
,,,,,,,,,,,,,,,,,,5dd03b1749f607128e66ca09,2020-08-10_10h17.46.444,lexical_decision_task_MP,2020.1.3,Win32,60,,m,1,0.43404,,,,,,,,0.43404,1,,,,,,100,WORD,"ID",33,carbon,CARBON,m,,,,,,-0.017592593,-0.300925926,0,0,0,,0,302,302,39,1,
,,,,,,,,,,,,,,,,,,5dd03b1749f607128e66ca09,2020-08-10_10h17.46.444,lexical_decision_task_MP,2020.1.3,Win32,60,,m,1,0.494865,,,,,,,,0.494865,1,,,,,,38,WORD,UN,50,insect,POWDER,m,,,,,,-0.017592593,-0.300925926,0,0,0,,0,303,303,217,1,
,,,,,,,,,,,,,,,,,,5dd03b1749f607128e66ca09,2020-08-10_10h17.46.444,lexical_decision_task_MP,2020.1.3,Win32,60,,z,1,0.52383,,,,,,,,0.52383,1,,,,,,276,NW,UN,50,petain,YARMON,z,,,,,,-0.017592593,-0.300925926,0,0,0,,0,304,304,455,1,
,,,,,,,,,,,,,,,,,,5dd03b1749f607128e66ca09,2020-08-10_10h17.46.444,lexical_decision_task_MP,2020.1.3,Win32,60,,z,1,0.657865,,,,,,,,0.657865,1,,,,,,457,NW,UN,33,barcet,WANIGH,z,,,,,,-0.017592593,-0.300925926,0,0,0,,0,305,305,396,1,
,,,,,,,,,,,,,,,,,,5dd03b1749f607128e66ca09,2020-08-10_10h17.46.444,lexical_decision_task_MP,2020.1.3,Win32,60,,z,1,1.19087,,,,,,,,1.19087,1,,,,,,397,NW,"ID",50,camble,CAMBLE,z,,,,,,-0.017592593,-0.300925926,0,0,0,,0,306,306,336,1,
,,,,,,,,,,,,,,,,,,5dd03b1749f607128e66ca09,2020-08-10_10h17.46.444,lexical_decision_task_MP,2020.1.3,Win32,60,,m,0,0.790895,,,,,,,,0.790895,0,,,,,,402,NW,"ID",50,syntic,SYNTIC,z,,,,,,-0.017592593,-0.300925926,0,0,0,,0,307,307,341,1,
,,,,,,,,,,,,,,,,,,5dd03b1749f607128e66ca09,2020-08-10_10h17.46.444,lexical_decision_task_MP,2020.1.3,Win32,60,,z,1,0.626475,,,,,,,,0.626475,1,,,,,,456,NW,UN,33,wanigh,BROGET,z,,,,,,-0.017592593,-0.300925926,0,0,0,,0,308,308,395,1,
,,,,,,,,,,,,,,,,,,5dd03b1749f607128e66ca09,2020-08-10_10h17.46.444,lexical_decision_task_MP,2020.1.3,Win32,60,,z,0,0.403125,,,,,,,,0.403125,0,,,,,,228,WORD,UN,33,kidney,MASTER,m,,,,,,-0.017592593,-0.300925926,0,0,0,,0,309,309,167,1,
,,,,,,,,,,,,,,,,,,5dd03b1749f607128e66ca09,2020-08-10_10h17.46.444,lexical_decision_task_MP,2020.1.3,Win32,60,,,0,,,,,,,,,0.403125,-1,,,,,,3,WORD,UN,50,trench,KNIGHT,m,,,,,,-0.017592593,-0.300925926,0,0,0,,0,310,310,182,1,
,,,,,,,,,,,,,,,,,,5dd03b1749f607128e66ca09,2020-08-10_10h17.46.444,lexical_decision_task_MP,2020.1.3,Win32,60,,m,0,1.77821,,,,,,,,1.77821,0,,,,,,299,NW,UN,50,yarion,STURCH,z,,,,,,-0.017592593,-0.300925926,0,0,0,,0,311,311,478,1,
,,,,,,,,,,,,,,,,,,5dd03b1749f607128e66ca09,2020-08-10_10h17.46.444,lexical_decision_task_MP,2020.1.3,Win32,60,,z,1,0.410485,,,,,,,,0.410485,1,,,,,,280,NW,UN,50,melaty,CURBOL,z,,,,,,-0.017592593,-0.300925926,0,0,0,,0,312,312,459,1,
,,,,,,,,,,,,,,,,,,5dd03b1749f607128e66ca09,2020-08-10_10h17.46.444,lexical_decision_task_MP,2020.1.3,Win32,60,,z,0,0.332845,,,,,,,,0.332845,0,,,,,,156,WORD,"ID",50,cradle,CRADLE,m,,,,,,-0.017592593,-0.300925926,0,0,0,,0,313,313,95,1,
,,,,,,,,,,,,,,,,,,5dd03b1749f607128e66ca09,2020-08-10_10h17.46.444,lexical_decision_task_MP,2020.1.3,Win32,60,,m,1,0.4059,,,,,,,,0.4059,1,,,,,,194,WORD,UN,33,resign,ABSENT,m,,,,,,-0.017592593,-0.300925926,0,0,0,,0,314,314,133,1,
,,,,,,,,,,,,,,,,,,5dd03b1749f607128e66ca09,2020-08-10_10h17.46.444,lexical_decision_task_MP,2020.1.3,Win32,60,,m,1,0.28842,,,,,,,,0.28842,1,,,,,,176,WORD,"ID",50,strife,STRIFE,m,,,,,,-0.017592593,-0.300925926,0,0,0,,0,315,315,115,1,
,,,,,,,,,,,,,,,,,,5dd03b1749f607128e66ca09,2020-08-10_10h17.46.444,lexical_decision_task_MP,2020.1.3,Win32,60,,z,1,0.566365,,,,,,,,0.566365,1,,,,,,331,NW,"ID",33,gilfew,GILFEW,z,,,,,,-0.017592593,-0.300925926,0,0,0,,0,316,316,270,1,
,,,,,,,,,,,,,,,,,,5dd03b1749f607128e66ca09,2020-08-10_10h17.46.444,lexical_decision_task_MP,2020.1.3,Win32,60,,z,1,0.52876,,,,,,,,0.52876,1,,,,,,246,NW,UN,50,blarge,PIATON,z,,,,,,-0.017592593,-0.300925926,0,0,0,,0,317,317,425,1,
,,,,,,,,,,,,,,,,,,5dd03b1749f607128e66ca09,2020-08-10_10h17.46.444,lexical_decision_task_MP,2020.1.3,Win32,60,,m,0,0.300985,,,,,,,,0.300985,0,,,,,,317,NW,"ID",33,worbal,WORBAL,z,,,,,,-0.017592593,-0.300925926,0,0,0,,0,318,318,256,1,
,,,,,,,,,,,,,,,,,,5dd03b1749f607128e66ca09,2020-08-10_10h17.46.444,lexical_decision_task_MP,2020.1.3,Win32,60,,m,0,0.529215,,,,,,,,0.529215,0,,,,,,285,NW,UN,50,reldon,PRUDGE,z,,,,,,-0.017592593,-0.300925926,0,0,0,,0,319,319,464,1,
,,,,,,,,,,,,,,,,,,5dd03b1749f607128e66ca09,2020-08-10_10h17.46.444,lexical_decision_task_MP,2020.1.3,Win32,60,,m,1,0.51019,,,,,,,,0.51019,1,,,,,,211,WORD,UN,33,verify,INFECT,m,,,,,,-0.017592593,-0.300925926,0,0,0,,0,320,320,150,1,
,,,,,,,,,,,,,,,,,,5dd03b1749f607128e66ca09,2020-08-10_10h17.46.444,lexical_decision_task_MP,2020.1.3,Win32,60,,m,1,0.506635,,,,,,,,0.506635,1,,,,,,171,WORD,"ID",50,depart,DEPART,m,,,,,,-0.017592593,-0.300925926,0,0,0,,0,321,321,110,1,
,,,,,,,,,,,,,,,,,,5dd03b1749f607128e66ca09,2020-08-10_10h17.46.444,lexical_decision_task_MP,2020.1.3,Win32,60,,m,1,0.43007,,,,,,,,0.43007,1,,,,,,77,WORD,"ID",33,racket,RACKET,m,,,,,,-0.017592593,-0.300925926,0,0,0,,0,322,322,16,1,
,,,,,,,,,,,,,,,,,,5dd03b1749f607128e66ca09,2020-08-10_10h17.46.444,lexical_decision_task_MP,2020.1.3,Win32,60,,m,1,0.60015,,,,,,,,0.60015,1,,,,,,11,WORD,UN,50,amount,CRUISE,m,,,,,,-0.017592593,-0.300925926,0,0,0,,0,323,323,190,1,
,,,,,,,,,,,,,,,,,,5dd03b1749f607128e66ca09,2020-08-10_10h17.46.444,lexical_decision_task_MP,2020.1.3,Win32,60,,m,0,0.37686,,,,,,,,0.37686,0,,,,,,332,NW,"ID",33,vangue,VANGUE,z,,,,,,-0.017592593,-0.300925926,0,0,0,,0,324,324,271,1,
,,,,,,,,,,,,,,,,,,5dd03b1749f607128e66ca09,2020-08-10_10h17.46.444,lexical_decision_task_MP,2020.1.3,Win32,60,,m,1,0.43558,,,,,,,,0.43558,1,,,,,,182,WORD,UN,33,absent,WINTER,m,,,,,,-0.017592593,-0.300925926,0,0,0,,0,325,325,121,1,
,,,,,,,,,,,,,,,,,,5dd03b1749f607128e66ca09,2020-08-10_10h17.46.444,lexical_decision_task_MP,2020.1.3,Win32,60,,z,0,0.5565,,,,,,,,0.5565,0,,,,,,191,WORD,UN,33,beacon,STABLE,m,,,,,,-0.017592593,-0.300925926,0,0,0,,0,326,326,130,1,
,,,,,,,,,,,,,,,,,,5dd03b1749f607128e66ca09,2020-08-10_10h17.46.444,lexical_decision_task_MP,2020.1.3,Win32,60,,z,1,1.23586,,,,,,,,1.23586,1,,,,,,387,NW,"ID",50,gronce,GRONCE,z,,,,,,-0.017592593,-0.300925926,0,0,0,,0,327,327,326,1,
,,,,,,,,,,,,,,,,,,5dd03b1749f607128e66ca09,2020-08-10_10h17.46.444,lexical_decision_task_MP,2020.1.3,Win32,60,,m,1,0.63615,,,,,,,,0.63615,1,,,,,,6,WORD,UN,50,anchor,BUNDLE,m,,,,,,-0.017592593,-0.300925926,0,0,0,,0,328,328,185,1,
,,,,,,,,,,,,,,,,,,5dd03b1749f607128e66ca09,2020-08-10_10h17.46.444,lexical_decision_task_MP,2020.1.3,Win32,60,,m,1,0.492925,,,,,,,,0.492925,1,,,,,,217,WORD,UN,33,shrink,LIQUOR,m,,,,,,-0.017592593,-0.300925926,0,0,0,,0,329,329,156,1,
,,,,,,,,,,,,,,,,,,5dd03b1749f607128e66ca09,2020-08-10_10h17.46.444,lexical_decision_task_MP,2020.1.3,Win32,60,,m,1,0.37124,,,,,,,,0.37124,1,,,,,,235,WORD,UN,33,pirate,GRUMPY,m,,,,,,-0.017592593,-0.300925926,0,0,0,,0,330,330,174,1,
,,,,,,,,,,,,,,,,,,5dd03b1749f607128e66ca09,2020-08-10_10h17.46.444,lexical_decision_task_MP,2020.1.3,Win32,60,,m,1,0.372525,,,,,,,,0.372525,1,,,,,,126,WORD,"ID",50,enough,ENOUGH,m,,,,,,-0.017592593,-0.300925926,0,0,0,,0,331,331,65,1,
,,,,,,,,,,,,,,,,,,5dd03b1749f607128e66ca09,2020-08-10_10h17.46.444,lexical_decision_task_MP,2020.1.3,Win32,60,,m,1,0.37624,,,,,,,,0.37624,1,,,,,,205,WORD,UN,33,tailor,LOUNGE,m,,,,,,-0.017592593,-0.300925926,0,0,0,,0,332,332,144,1,
,,,,,,,,,,,,,,,,,,5dd03b1749f607128e66ca09,2020-08-10_10h17.46.444,lexical_decision_task_MP,2020.1.3,Win32,60,,m,1,0.46407,,,,,,,,0.46407,1,,,,,,135,WORD,"ID",50,import,IMPORT,m,,,,,,-0.017592593,-0.300925926,0,0,0,,0,333,333,74,1,
,,,,,,,,,,,,,,,,,,5dd03b1749f607128e66ca09,2020-08-10_10h17.46.444,lexical_decision_task_MP,2020.1.3,Win32,60,,z,1,0.6393,,,,,,,,0.6393,1,,,,,,407,NW,"ID",50,suiver,SUIVER,z,,,,,,-0.017592593,-0.300925926,0,0,0,,0,334,334,346,1,
,,,,,,,,,,,,,,,,,,5dd03b1749f607128e66ca09,2020-08-10_10h17.46.444,lexical_decision_task_MP,2020.1.3,Win32,60,,m,0,0.35859,,,,,,,,0.35859,0,,,,,,302,NW,"ID",33,miluer,MILUER,z,,,,,,-0.017592593,-0.300925926,0,0,0,,0,335,335,241,1,
,,,,,,,,,,,,,,,,,,5dd03b1749f607128e66ca09,2020-08-10_10h17.46.444,lexical_decision_task_MP,2020.1.3,Win32,60,,m,1,0.53559,,,,,,,,0.53559,1,,,,,,167,WORD,"ID",50,design,DESIGN,m,,,,,,-0.017592593,-0.300925926,0,0,0,,0,336,336,106,1,
,,,,,,,,,,,,,,,,,,5dd03b1749f607128e66ca09,2020-08-10_10h17.46.444,lexical_decision_task_MP,2020.1.3,Win32,60,,z,1,0.4916,,,,,,,,0.4916,1,,,,,,367,NW,"ID",50,slique,SLIQUE,z,,,,,,-0.017592593,-0.300925926,0,0,0,,0,337,337,306,1,
,,,,,,,,,,,,,,,,,,5dd03b1749f607128e66ca09,2020-08-10_10h17.46.444,lexical_decision_task_MP,2020.1.3,Win32,60,,z,1,0.609875,,,,,,,,0.609875,1,,,,,,388,NW,"ID",50,cragin,CRAGIN,z,,,,,,-0.017592593,-0.300925926,0,0,0,,0,338,338,327,1,
,,,,,,,,,,,,,,,,,,5dd03b1749f607128e66ca09,2020-08-10_10h17.46.444,lexical_decision_task_MP,2020.1.3,Win32,60,,m,1,0.554885,,,,,,,,0.554885,1,,,,,,159,WORD,"ID",50,detail,DETAIL,m,,,,,,-0.017592593,-0.300925926,0,0,0,,0,339,339,98,1,
,,,,,,,,,,,,,,,,,,5dd03b1749f607128e66ca09,2020-08-10_10h17.46.444,lexical_decision_task_MP,2020.1.3,Win32,60,,m,0,0.3023,,,,,,,,0.3023,0,,,,,,441,NW,UN,33,aboune,RASTOE,z,,,,,,-0.017592593,-0.300925926,0,0,0,,0,340,340,380,1,
,,,,,,,,,,,,,,,,,,5dd03b1749f607128e66ca09,2020-08-10_10h17.46.444,lexical_decision_task_MP,2020.1.3,Win32,60,,m,1,0.435025,,,,,,,,0.435025,1,,,,,,170,WORD,"ID",50,pounce,POUNCE,m,,,,,,-0.017592593,-0.300925926,0,0,0,,0,341,341,109,1,
,,,,,,,,,,,,,,,,,,5dd03b1749f607128e66ca09,2020-08-10_10h17.46.444,lexical_decision_task_MP,2020.1.3,Win32,60,,m,1,0.434455,,,,,,,,0.434455,1,,,,,,164,WORD,"ID",50,market,MARKET,m,,,,,,-0.017592593,-0.300925926,0,0,0,,0,342,342,103,1,
,,,,,,,,,,,,,,,,,,5dd03b1749f607128e66ca09,2020-08-10_10h17.46.444,lexical_decision_task_MP,2020.1.3,Win32,60,,m,1,0.522775,,,,,,,,0.522775,1,,,,,,238,WORD,UN,33,behalf,FLOWER,m,,,,,,-0.017592593,-0.300925926,0,0,0,,0,343,343,177,1,
,,,,,,,,,,,,,,,,,,5dd03b1749f607128e66ca09,2020-08-10_10h17.46.444,lexical_decision_task_MP,2020.1.3,Win32,60,,z,1,0.606135,,,,,,,,0.606135,1,,,,,,297,NW,UN,50,piergy,FERTIC,z,,,,,,-0.017592593,-0.300925926,0,0,0,,0,344,344,476,1,
,,,,,,,,,,,,,,,,,,5dd03b1749f607128e66ca09,2020-08-10_10h17.46.444,lexical_decision_task_MP,2020.1.3,Win32,60,,z,1,0.392295,,,,,,,,0.392295,1,,,,,,304,NW,"ID",33,cludie,CLUDIE,z,,,,,,-0.017592593,-0.300925926,0,0,0,,0,345,345,243,1,
,,,,,,,,,,,,,,,,,,5dd03b1749f607128e66ca09,2020-08-10_10h17.46.444,lexical_decision_task_MP,2020.1.3,Win32,60,,z,0,0.393175,,,,,,,,0.393175,0,,,,,,230,WORD,UN,33,mother,FRINGE,m,,,,,,-0.017592593,-0.300925926,0,0,0,,0,346,346,169,1,
,,,,,,,,,,,,,,,,,,5dd03b1749f607128e66ca09,2020-08-10_10h17.46.444,lexical_decision_task_MP,2020.1.3,Win32,60,,m,1,0.55422,,,,,,,,0.55422,1,,,,,,174,WORD,"ID",50,turkey,TURKEY,m,,,,,,-0.017592593,-0.300925926,0,0,0,,0,347,347,113,1,
,,,,,,,,,,,,,,,,,,5dd03b1749f607128e66ca09,2020-08-10_10h17.46.444,lexical_decision_task_MP,2020.1.3,Win32,60,,m,1,0.47701,,,,,,,,0.47701,1,,,,,,57,WORD,UN,50,danger,CHANGE,m,,,,,,-0.017592593,-0.300925926,0,0,0,,0,348,348,236,1,
,,,,,,,,,,,,,,,,,,5dd03b1749f607128e66ca09,2020-08-10_10h17.46.444,lexical_decision_task_MP,2020.1.3,Win32,60,,m,1,0.33209,,,,,,,,0.33209,1,,,,,,152,WORD,"ID",50,rocket,ROCKET,m,,,,,,-0.017592593,-0.300925926,0,0,0,,0,349,349,91,1,
,,,,,,,,,,,,,,,,,,5dd03b1749f607128e66ca09,2020-08-10_10h17.46.444,lexical_decision_task_MP,2020.1.3,Win32,60,,m,1,0.649415,,,,,,,,0.649415,1,,,,,,196,WORD,UN,33,stream,CREDIT,m,,,,,,-0.017592593,-0.300925926,0,0,0,,0,350,350,135,1,
,,,,,,,,,,,,,,,,,,5dd03b1749f607128e66ca09,2020-08-10_10h17.46.444,lexical_decision_task_MP,2020.1.3,Win32,60,,m,1,0.293845,,,,,,,,0.293845,1,,,,,,12,WORD,UN,50,strive,ORANGE,m,,,,,,-0.017592593,-0.300925926,0,0,0,,0,351,351,191,1,
,,,,,,,,,,,,,,,,,,5dd03b1749f607128e66ca09,2020-08-10_10h17.46.444,lexical_decision_task_MP,2020.1.3,Win32,60,,z,1,0.534265,,,,,,,,0.534265,1,,,,,,379,NW,"ID",50,auting,AUTING,z,,,,,,-0.017592593,-0.300925926,0,0,0,,0,352,352,318,1,
,,,,,,,,,,,,,,,,,,5dd03b1749f607128e66ca09,2020-08-10_10h17.46.444,lexical_decision_task_MP,2020.1.3,Win32,60,,m,1,0.383455,,,,,,,,0.383455,1,,,,,,186,WORD,UN,33,course,PORTAL,m,,,,,,-0.017592593,-0.300925926,0,0,0,,0,353,353,125,1,
,,,,,,,,,,,,,,,,,,5dd03b1749f607128e66ca09,2020-08-10_10h17.46.444,lexical_decision_task_MP,2020.1.3,Win32,60,,m,0,0.56064,,,,,,,,0.56064,0,,,,,,398,NW,"ID",50,blunde,BLUNDE,z,,,,,,-0.017592593,-0.300925926,0,0,0,,0,354,354,337,1,
,,,,,,,,,,,,,,,,,,5dd03b1749f607128e66ca09,2020-08-10_10h17.46.444,lexical_decision_task_MP,2020.1.3,Win32,60,,m,1,0.57177,,,,,,,,0.57177,1,,,,,,110,WORD,"ID",33,polite,POLITE,m,,,,,,-0.017592593,-0.300925926,0,0,0,,0,355,355,49,1,
,,,,,,,,,,,,,,,,,,5dd03b1749f607128e66ca09,2020-08-10_10h17.46.444,lexical_decision_task_MP,2020.1.3,Win32,60,,m,0,0.310295,,,,,,,,0.310295,0,,,,,,399,NW,"ID",50,fouret,FOURET,z,,,,,,-0.017592593,-0.300925926,0,0,0,,0,356,356,338,1,
,,,,,,,,,,,,,,,,,,5dd03b1749f607128e66ca09,2020-08-10_10h17.46.444,lexical_decision_task_MP,2020.1.3,Win32,60,,z,1,0.59475,,,,,,,,0.59475,1,,,,,,440,NW,UN,33,rastoe,SARIDE,z,,,,,,-0.017592593,-0.300925926,0,0,0,,0,357,357,379,1,
,,,,,,,,,,,,,,,,,,5dd03b1749f607128e66ca09,2020-08-10_10h17.46.444,lexical_decision_task_MP,2020.1.3,Win32,60,,z,1,0.675975,,,,,,,,0.675975,1,,,,,,416,NW,"ID",50,pathel,PATHEL,z,,,,,,-0.017592593,-0.300925926,0,0,0,,0,358,358,355,1,
,,,,,,,,,,,,,,,,,,5dd03b1749f607128e66ca09,2020-08-10_10h17.46.444,lexical_decision_task_MP,2020.1.3,Win32,60,,z,0,0.48009,,,,,,,,0.48009,0,,,,,,201,WORD,UN,33,factor,ADMIRE,m,,,,,,-0.017592593,-0.300925926,0,0,0,,0,359,359,140,1,
,,,,,,,,,,,,,,,,,,5dd03b1749f607128e66ca09,2020-08-10_10h17.46.444,lexical_decision_task_MP,2020.1.3,Win32,60,,m,0,0.468495,,,,,,,,0.468495,0,,,,,,283,NW,UN,50,shaple,VERALF,z,,,,,,-0.017592593,-0.300925926,0,0,0,,0,360,360,462,1,
,,,,,,,,,,,,,,,,,,5dd03b1749f607128e66ca09,2020-08-10_10h17.46.444,lexical_decision_task_MP,2020.1.3,Win32,60,,m,1,0.44318,,,,,,,,0.44318,1,,,,,,124,WORD,"ID",50,blouse,BLOUSE,m,,,,,,-0.017592593,-0.300925926,0,0,0,,0,361,361,63,1,
,,,,,,,,,,,,,,,,,,5dd03b1749f607128e66ca09,2020-08-10_10h17.46.444,lexical_decision_task_MP,2020.1.3,Win32,60,,m,0,0.418995,,,,,,,,0.418995,0,,,,,,354,NW,"ID",33,virlex,VIRLEX,z,,,,,,0.041666667,-0.398148148,1,0,0,,0,362,362,293,1,break_done_button
,,,,,,,,,,,,,,,,,,5dd03b1749f607128e66ca09,2020-08-10_10h17.46.444,lexical_decision_task_MP,2020.1.3,Win32,60,,m,0,0.0323,,,,,,,,0.0323,0,,,,,,316,NW,"ID",33,scregm,SCREGM,z,,,,,,0.047222222,-0.408333333,0,0,0,,0,363,363,255,1,
,,,,,,,,,,,,,,,,,,5dd03b1749f607128e66ca09,2020-08-10_10h17.46.444,lexical_decision_task_MP,2020.1.3,Win32,60,,m,1,0.89443,,,,,,,,0.89443,1,,,,,,147,WORD,"ID",50,garlic,GARLIC,m,,,,,,0.047222222,-0.408333333,0,0,0,,0,364,364,86,1,
,,,,,,,,,,,,,,,,,,5dd03b1749f607128e66ca09,2020-08-10_10h17.46.444,lexical_decision_task_MP,2020.1.3,Win32,60,,z,1,0.6759,,,,,,,,0.6759,1,,,,,,291,NW,UN,50,ablint,PRETCH,z,,,,,,0.047222222,-0.408333333,0,0,0,,0,365,365,470,1,
,,,,,,,,,,,,,,,,,,5dd03b1749f607128e66ca09,2020-08-10_10h17.46.444,lexical_decision_task_MP,2020.1.3,Win32,60,,z,1,1.30547,,,,,,,,1.30547,1,,,,,,253,NW,UN,50,varosh,RESAIT,z,,,,,,0.047222222,-0.408333333,0,0,0,,0,366,366,432,1,
,,,,,,,,,,,,,,,,,,5dd03b1749f607128e66ca09,2020-08-10_10h17.46.444,lexical_decision_task_MP,2020.1.3,Win32,60,,z,1,0.74292,,,,,,,,0.74292,1,,,,,,474,NW,UN,33,acrise,HABLIN,z,,,,,,0.047222222,-0.408333333,0,0,0,,0,367,367,413,1,
,,,,,,,,,,,,,,,,,,5dd03b1749f607128e66ca09,2020-08-10_10h17.46.444,lexical_decision_task_MP,2020.1.3,Win32,60,,m,1,0.602915,,,,,,,,0.602915,1,,,,,,233,WORD,UN,33,clumsy,NATURE,m,,,,,,0.047222222,-0.408333333,0,0,0,,0,368,368,172,1,
,,,,,,,,,,,,,,,,,,5dd03b1749f607128e66ca09,2020-08-10_10h17.46.444,lexical_decision_task_MP,2020.1.3,Win32,60,,z,0,0.475495,,,,,,,,0.475495,0,,,,,,65,WORD,"ID",33,symbol,SYMBOL,m,,,,,,0.047222222,-0.408333333,0,0,0,,0,369,369,4,1,
,,,,,,,,,,,,,,,,,,5dd03b1749f607128e66ca09,2020-08-10_10h17.46.444,lexical_decision_task_MP,2020.1.3,Win32,60,,m,1,0.60866,,,,,,,,0.60866,1,,,,,,187,WORD,UN,33,social,COURSE,m,,,,,,0.047222222,-0.408333333,0,0,0,,0,370,370,126,1,
,,,,,,,,,,,,,,,,,,5dd03b1749f607128e66ca09,2020-08-10_10h17.46.444,lexical_decision_task_MP,2020.1.3,Win32,60,,z,1,0.555615,,,,,,,,0.555615,1,,,,,,267,NW,UN,50,packes,PASINK,z,,,,,,0.047222222,-0.408333333,0,0,0,,0,371,371,446,1,
,,,,,,,,,,,,,,,,,,5dd03b1749f607128e66ca09,2020-08-10_10h17.46.444,lexical_decision_task_MP,2020.1.3,Win32,60,,z,1,0.486175,,,,,,,,0.486175,1,,,,,,252,NW,UN,50,resait,STAPOD,z,,,,,,0.047222222,-0.408333333,0,0,0,,0,372,372,431,1,
,,,,,,,,,,,,,,,,,,5dd03b1749f607128e66ca09,2020-08-10_10h17.46.444,lexical_decision_task_MP,2020.1.3,Win32,60,,m,1,0.58733,,,,,,,,0.58733,1,,,,,,24,WORD,UN,50,domain,PRAISE,m,,,,,,0.047222222,-0.408333333,0,0,0,,0,373,373,203,1,
,,,,,,,,,,,,,,,,,,5dd03b1749f607128e66ca09,2020-08-10_10h17.46.444,lexical_decision_task_MP,2020.1.3,Win32,60,,m,1,0.52329,,,,,,,,0.52329,1,,,,,,52,WORD,UN,50,police,IMPOSE,m,,,,,,0.047222222,-0.408333333,0,0,0,,0,374,374,231,1,
,,,,,,,,,,,,,,,,,,5dd03b1749f607128e66ca09,2020-08-10_10h17.46.444,lexical_decision_task_MP,2020.1.3,Win32,60,,z,1,0.432545,,,,,,,,0.432545,1,,,,,,395,NW,"ID",50,colury,COLURY,z,,,,,,0.047222222,-0.408333333,0,0,0,,0,375,375,334,1,
,,,,,,,,,,,,,,,,,,5dd03b1749f607128e66ca09,2020-08-10_10h17.46.444,lexical_decision_task_MP,2020.1.3,Win32,60,,z,0,0.569065,,,,,,,,0.569065,0,,,,,,43,WORD,UN,50,foster,TONGUE,m,,,,,,0.047222222,-0.408333333,0,0,0,,0,376,376,222,1,
,,,,,,,,,,,,,,,,,,5dd03b1749f607128e66ca09,2020-08-10_10h17.46.444,lexical_decision_task_MP,2020.1.3,Win32,60,,m,1,0.516615,,,,,,,,0.516615,1,,,,,,206,WORD,UN,33,wreath,TAILOR,m,,,,,,0.047222222,-0.408333333,0,0,0,,0,377,377,145,1,
,,,,,,,,,,,,,,,,,,5dd03b1749f607128e66ca09,2020-08-10_10h17.46.444,lexical_decision_task_MP,2020.1.3,Win32,60,,z,1,0.475515,,,,,,,,0.475515,1,,,,,,382,NW,"ID",50,sarley,SARLEY,z,,,,,,0.047222222,-0.408333333,0,0,0,,0,378,378,321,1,
,,,,,,,,,,,,,,,,,,5dd03b1749f607128e66ca09,2020-08-10_10h17.46.444,lexical_decision_task_MP,2020.1.3,Win32,60,,z,1,0.692385,,,,,,,,0.692385,1,,,,,,449,NW,UN,33,phrect,BRUNGE,z,,,,,,0.047222222,-0.408333333,0,0,0,,0,379,379,388,1,
,,,,,,,,,,,,,,,,,,5dd03b1749f607128e66ca09,2020-08-10_10h17.46.444,lexical_decision_task_MP,2020.1.3,Win32,60,,z,0,0.46621,,,,,,,,0.46621,0,,,,,,203,WORD,UN,33,burden,PHRASE,m,,,,,,0.047222222,-0.408333333,0,0,0,,0,380,380,142,1,
,,,,,,,,,,,,,,,,,,5dd03b1749f607128e66ca09,2020-08-10_10h17.46.444,lexical_decision_task_MP,2020.1.3,Win32,60,,z,0,0.544605,,,,,,,,0.544605,0,,,,,,138,WORD,"ID",50,melody,MELODY,m,,,,,,0.047222222,-0.408333333,0,0,0,,0,381,381,77,1,
,,,,,,,,,,,,,,,,,,5dd03b1749f607128e66ca09,2020-08-10_10h17.46.444,lexical_decision_task_MP,2020.1.3,Win32,60,,z,1,0.548915,,,,,,,,0.548915,1,,,,,,251,NW,UN,50,stapod,LUPICT,z,,,,,,0.047222222,-0.408333333,0,0,0,,0,382,382,430,1,
,,,,,,,,,,,,,,,,,,5dd03b1749f607128e66ca09,2020-08-10_10h17.46.444,lexical_decision_task_MP,2020.1.3,Win32,60,,m,1,0.518745,,,,,,,,0.518745,1,,,,,,116,WORD,"ID",33,tumble,TUMBLE,m,,,,,,0.047222222,-0.408333333,0,0,0,,0,383,383,55,1,
,,,,,,,,,,,,,,,,,,5dd03b1749f607128e66ca09,2020-08-10_10h17.46.444,lexical_decision_task_MP,2020.1.3,Win32,60,,m,1,0.32349,,,,,,,,0.32349,1,,,,,,185,WORD,UN,33,portal,BOTHER,m,,,,,,0.047222222,-0.408333333,0,0,0,,0,384,384,124,1,
,,,,,,,,,,,,,,,,,,5dd03b1749f607128e66ca09,2020-08-10_10h17.46.444,lexical_decision_task_MP,2020.1.3,Win32,60,,m,0,0.344695,,,,,,,,0.344695,0,,,,,,478,NW,UN,33,pebric,ACRISE,z,,,,,,0.047222222,-0.408333333,0,0,0,,0,385,385,417,1,
,,,,,,,,,,,,,,,,,,5dd03b1749f607128e66ca09,2020-08-10_10h17.46.444,lexical_decision_task_MP,2020.1.3,Win32,60,,m,1,0.533465,,,,,,,,0.533465,1,,,,,,46,WORD,UN,50,income,SINGLE,m,,,,,,0.047222222,-0.408333333,0,0,0,,0,386,386,225,1,
,,,,,,,,,,,,,,,,,,5dd03b1749f607128e66ca09,2020-08-10_10h17.46.444,lexical_decision_task_MP,2020.1.3,Win32,60,,m,1,0.560465,,,,,,,,0.560465,1,,,,,,199,WORD,UN,33,plague,INVOKE,m,,,,,,0.047222222,-0.408333333,0,0,0,,0,387,387,138,1,
,,,,,,,,,,,,,,,,,,5dd03b1749f607128e66ca09,2020-08-10_10h17.46.444,lexical_decision_task_MP,2020.1.3,Win32,60,,m,1,0.458785,,,,,,,,0.458785,1,,,,,,30,WORD,UN,50,weapon,ORIENT,m,,,,,,0.047222222,-0.408333333,0,0,0,,0,388,388,209,1,
,,,,,,,,,,,,,,,,,,5dd03b1749f607128e66ca09,2020-08-10_10h17.46.444,lexical_decision_task_MP,2020.1.3,Win32,60,,m,1,0.32887,,,,,,,,0.32887,1,,,,,,180,WORD,"ID",50,silent,SILENT,m,,,,,,0.047222222,-0.408333333,0,0,0,,0,389,389,119,1,
,,,,,,,,,,,,,,,,,,5dd03b1749f607128e66ca09,2020-08-10_10h17.46.444,lexical_decision_task_MP,2020.1.3,Win32,60,,m,0,0.33909,,,,,,,,0.33909,0,,,,,,392,NW,"ID",50,rouncy,ROUNCY,z,,,,,,0.047222222,-0.408333333,0,0,0,,0,390,390,331,1,
,,,,,,,,,,,,,,,,,,5dd03b1749f607128e66ca09,2020-08-10_10h17.46.444,lexical_decision_task_MP,2020.1.3,Win32,60,,m,1,0.50446,,,,,,,,0.50446,1,,,,,,48,WORD,UN,50,survey,WALNUT,m,,,,,,0.047222222,-0.408333333,0,0,0,,0,391,391,227,1,
,,,,,,,,,,,,,,,,,,5dd03b1749f607128e66ca09,2020-08-10_10h17.46.444,lexical_decision_task_MP,2020.1.3,Win32,60,,z,1,0.86838,,,,,,,,0.86838,1,,,,,,438,NW,UN,33,limpor,BAITCH,z,,,,,,0.047222222,-0.408333333,0,0,0,,0,392,392,377,1,
,,,,,,,,,,,,,,,,,,5dd03b1749f607128e66ca09,2020-08-10_10h17.46.444,lexical_decision_task_MP,2020.1.3,Win32,60,,z,1,0.483745,,,,,,,,0.483745,1,,,,,,400,NW,"ID",50,wearox,WEAROX,z,,,,,,0.047222222,-0.408333333,0,0,0,,0,393,393,339,1,
,,,,,,,,,,,,,,,,,,5dd03b1749f607128e66ca09,2020-08-10_10h17.46.444,lexical_decision_task_MP,2020.1.3,Win32,60,,z,1,0.439975,,,,,,,,0.439975,1,,,,,,475,NW,UN,33,josted,PEBRIC,z,,,,,,0.047222222,-0.408333333,0,0,0,,0,394,394,414,1,
,,,,,,,,,,,,,,,,,,5dd03b1749f607128e66ca09,2020-08-10_10h17.46.444,lexical_decision_task_MP,2020.1.3,Win32,60,,z,1,0.729075,,,,,,,,0.729075,1,,,,,,420,NW,"ID",50,gushop,GUSHOP,z,,,,,,0.047222222,-0.408333333,0,0,0,,0,395,395,359,1,
,,,,,,,,,,,,,,,,,,5dd03b1749f607128e66ca09,2020-08-10_10h17.46.444,lexical_decision_task_MP,2020.1.3,Win32,60,,m,1,0.800165,,,,,,,,0.800165,1,,,,,,200,WORD,UN,33,admire,BEACON,m,,,,,,0.047222222,-0.408333333,0,0,0,,0,396,396,139,1,
,,,,,,,,,,,,,,,,,,5dd03b1749f607128e66ca09,2020-08-10_10h17.46.444,lexical_decision_task_MP,2020.1.3,Win32,60,,m,1,0.567175,,,,,,,,0.567175,1,,,,,,218,WORD,UN,33,bucket,SHRINK,m,,,,,,0.047222222,-0.408333333,0,0,0,,0,397,397,157,1,
,,,,,,,,,,,,,,,,,,5dd03b1749f607128e66ca09,2020-08-10_10h17.46.444,lexical_decision_task_MP,2020.1.3,Win32,60,,z,1,0.63273,,,,,,,,0.63273,1,,,,,,341,NW,"ID",33,myrtie,MYRTIE,z,,,,,,0.047222222,-0.408333333,0,0,0,,0,398,398,280,1,
,,,,,,,,,,,,,,,,,,5dd03b1749f607128e66ca09,2020-08-10_10h17.46.444,lexical_decision_task_MP,2020.1.3,Win32,60,,z,1,0.65306,,,,,,,,0.65306,1,,,,,,390,NW,"ID",50,hatrus,HATRUS,z,,,,,,0.047222222,-0.408333333,0,0,0,,0,399,399,329,1,
,,,,,,,,,,,,,,,,,,5dd03b1749f607128e66ca09,2020-08-10_10h17.46.444,lexical_decision_task_MP,2020.1.3,Win32,60,,z,1,0.43715,,,,,,,,0.43715,1,,,,,,381,NW,"ID",50,huniek,HUNIEK,z,,,,,,0.047222222,-0.408333333,0,0,0,,0,400,400,320,1,
,,,,,,,,,,,,,,,,,,5dd03b1749f607128e66ca09,2020-08-10_10h17.46.444,lexical_decision_task_MP,2020.1.3,Win32,60,,m,1,0.73404,,,,,,,,0.73404,1,,,,,,96,WORD,"ID",33,ignore,IGNORE,m,,,,,,0.047222222,-0.408333333,0,0,0,,0,401,401,35,1,
