counterbalancing_condition,instr_done_keyboard.keys,instr_done_keyboard.rt,instr_done_touch.x,instr_done_touch.y,instr_done_touch.leftButton,instr_done_touch.midButton,instr_done_touch.rightButton,instruction_pages.thisRepN,instruction_pages.thisTrialN,instruction_pages.thisN,instruction_pages.thisIndex,instruction_pages.ran,pageN,phase,instruct_text,has_image,instruct_image,participant,date,expName,psychopyVersion,OS,frameRate,response.keys,response.corr,response.rt,touch_resp.x,touch_resp.y,touch_resp.leftButton,touch_resp.midButton,touch_resp.rightButton,touch_resp.time,touch_resp.clicked_name,rt,corr,practice_trials.thisRepN,practice_trials.thisTrialN,practice_trials.thisN,practice_trials.thisIndex,practice_trials.ran,TrialID,StimulusType,Condition,PrimeDuration,Prime,Target,corrAns,end_of_practice_trials_pages.thisRepN,end_of_practice_trials_pages.thisTrialN,end_of_practice_trials_pages.thisN,end_of_practice_trials_pages.thisIndex,end_of_practice_trials_pages.ran,break_done_touch.x,break_done_touch.y,break_done_touch.leftButton,break_done_touch.midButton,break_done_touch.rightButton,break_done_keyboard.keys,trials.thisRepN,trials.thisTrialN,trials.thisN,trials.thisIndex,trials.ran,break_done_keyboard.rt
2,space,20.793,0.047777778,-0.371111111,0,0,0,0,0,0,0,1,1,instructions,"INSTRUCTIONS
At the start of each trial, look at the hash marks (######) in the center of the screen. After a moment, a string of letters will appear. Your task is to indicate if the letter string forms a word or not (i.e., if it is a nonword). For example, AUTHOR is a word while AUTHON is a nonword.

Press the space bar or touch the button below to continue.",0,,5dd11ee349f6071aef4519bb,2020-08-10_16h26.27.559,lexical_decision_task_MP,2020.1.3,Win32,60,,,,,,,,,,,,,,,,,,,,,,,,,,,,,,,,,,,,,,,,,
,space,14.059,0.047777778,-0.371111111,0,0,0,0,1,1,1,1,2,instructions,"If your device has a keyboard, press the 'Z' key for nonwords and the 'M' key for words.





Press the space bar or touch the button below to continue.",1,keyboard-example.gif,5dd11ee349f6071aef4519bb,2020-08-10_16h26.27.559,lexical_decision_task_MP,2020.1.3,Win32,60,,,,,,,,,,,,,,,,,,,,,,,,,,,,,,,,,,,,,,,,,
,space,5.247,0.047777778,-0.371111111,0,0,0,0,2,2,2,1,3,instructions,"If you are using a touchscreen only device, use the buttons on the screen. Do not use the mouse.





Press the space bar or touch the button below to continue.",1,touchscreen-example.gif,5dd11ee349f6071aef4519bb,2020-08-10_16h26.27.559,lexical_decision_task_MP,2020.1.3,Win32,60,,,,,,,,,,,,,,,,,,,,,,,,,,,,,,,,,,,,,,,,,
,space,12.522,0.047777778,-0.371111111,0,0,0,0,3,3,3,1,4,instructions,"It is very important that you respond as quickly and accurately as possible, as each letter string will only be on the screen for two seconds. If you do not respond within this time, the message 'Too slow!' will be displayed and the experiment will progress to the next letter string. The first 20 trials will be practice trials and you will receive feedback on your answers. 

Press the space bar or touch the button below to start the practice trials.",0,,5dd11ee349f6071aef4519bb,2020-08-10_16h26.27.559,lexical_decision_task_MP,2020.1.3,Win32,60,,,,,,,,,,,,,,,,,,,,,,,,,,,,,,,,,,,,,,,,,
,,,,,,,,,,,,,,,,,,5dd11ee349f6071aef4519bb,2020-08-10_16h26.27.559,lexical_decision_task_MP,2020.1.3,Win32,60,m,1,1.67,,,,,,,,1.67,1,0,0,0,4,1,1005,WORD,UN,33,abound,SQUEAK,m,,,,,,,,,,,,,,,,,
,,,,,,,,,,,,,,,,,,5dd11ee349f6071aef4519bb,2020-08-10_16h26.27.559,lexical_decision_task_MP,2020.1.3,Win32,60,m,0,1.749,,,,,,,,1.749,0,0,1,1,10,1,1011,NW,"ID",50,inlade,INLADE,z,,,,,,,,,,,,,,,,,
,,,,,,,,,,,,,,,,,,5dd11ee349f6071aef4519bb,2020-08-10_16h26.27.559,lexical_decision_task_MP,2020.1.3,Win32,60,z,1,1.65,,,,,,,,1.65,1,0,2,2,8,1,1009,NW,"ID",33,aslert,ASLERT,z,,,,,,,,,,,,,,,,,
,,,,,,,,,,,,,,,,,,5dd11ee349f6071aef4519bb,2020-08-10_16h26.27.559,lexical_decision_task_MP,2020.1.3,Win32,60,,0,,,,,,,,,1.65,-1,0,3,3,0,1,1001,WORD,"ID",33,utopia,UTOPIA,m,,,,,,,,,,,,,,,,,
,,,,,,,,,,,,,,,,,,5dd11ee349f6071aef4519bb,2020-08-10_16h26.27.559,lexical_decision_task_MP,2020.1.3,Win32,60,m,1,1.115,,,,,,,,1.115,1,0,4,4,6,1,1007,WORD,UN,50,tropic,ZOMBIE,m,,,,,,,,,,,,,,,,,
,,,,,,,,,,,,,,,,,,5dd11ee349f6071aef4519bb,2020-08-10_16h26.27.559,lexical_decision_task_MP,2020.1.3,Win32,60,m,1,0.713,,,,,,,,0.713,1,0,5,5,7,1,1008,WORD,UN,50,hurdle,VOLUME,m,,,,,,,,,,,,,,,,,
,,,,,,,,,,,,,,,,,,5dd11ee349f6071aef4519bb,2020-08-10_16h26.27.559,lexical_decision_task_MP,2020.1.3,Win32,60,m,1,0.936,,,,,,,,0.936,1,0,6,6,2,1,1003,WORD,"ID",50,almond,ALMOND,m,,,,,,,,,,,,,,,,,
,,,,,,,,,,,,,,,,,,5dd11ee349f6071aef4519bb,2020-08-10_16h26.27.559,lexical_decision_task_MP,2020.1.3,Win32,60,z,1,0.983,,,,,,,,0.983,1,0,7,7,11,1,1012,NW,"ID",50,rashet,RASHET,z,,,,,,,,,,,,,,,,,
,,,,,,,,,,,,,,,,,,5dd11ee349f6071aef4519bb,2020-08-10_16h26.27.559,lexical_decision_task_MP,2020.1.3,Win32,60,z,1,0.959,,,,,,,,0.959,1,0,8,8,9,1,1010,NW,"ID",33,fariny,FARINY,z,,,,,,,,,,,,,,,,,
,,,,,,,,,,,,,,,,,,5dd11ee349f6071aef4519bb,2020-08-10_16h26.27.559,lexical_decision_task_MP,2020.1.3,Win32,60,m,1,0.655,,,,,,,,0.655,1,0,9,9,5,1,1006,WORD,UN,33,frenzy,OBTAIN,m,,,,,,,,,,,,,,,,,
,,,,,,,,,,,,,,,,,,5dd11ee349f6071aef4519bb,2020-08-10_16h26.27.559,lexical_decision_task_MP,2020.1.3,Win32,60,z,1,1.066,,,,,,,,1.066,1,0,10,10,12,1,1013,NW,UN,33,adveil,SPRINY,z,,,,,,,,,,,,,,,,,
,,,,,,,,,,,,,,,,,,5dd11ee349f6071aef4519bb,2020-08-10_16h26.27.559,lexical_decision_task_MP,2020.1.3,Win32,60,m,1,0.684,,,,,,,,0.684,1,0,11,11,1,1,1002,WORD,"ID",33,adjust,ADJUST,m,,,,,,,,,,,,,,,,,
,,,,,,,,,,,,,,,,,,5dd11ee349f6071aef4519bb,2020-08-10_16h26.27.559,lexical_decision_task_MP,2020.1.3,Win32,60,z,1,0.916,,,,,,,,0.916,1,0,12,12,14,1,1015,NW,UN,50,miaber,THRALE,z,,,,,,,,,,,,,,,,,
,,,,,,,,,,,,,,,,,,5dd11ee349f6071aef4519bb,2020-08-10_16h26.27.559,lexical_decision_task_MP,2020.1.3,Win32,60,m,1,0.8,,,,,,,,0.8,1,0,13,13,3,1,1004,WORD,"ID",50,matrix,MATRIX,m,,,,,,,,,,,,,,,,,
,,,,,,,,,,,,,,,,,,5dd11ee349f6071aef4519bb,2020-08-10_16h26.27.559,lexical_decision_task_MP,2020.1.3,Win32,60,z,1,0.826,,,,,,,,0.826,1,0,14,14,15,1,1016,NW,UN,50,mushed,WHAISE,z,,,,,,,,,,,,,,,,,
,,,,,,,,,,,,,,,,,,5dd11ee349f6071aef4519bb,2020-08-10_16h26.27.559,lexical_decision_task_MP,2020.1.3,Win32,60,z,1,0.87,,,,,,,,0.87,1,0,15,15,13,1,1014,NW,UN,33,winfer,ROUPET,z,,,,,,,,,,,,,,,,,
,space,10.351,0.047777778,-0.371111111,0,0,0,,,,,,1,end_of_practice,"You have completed the practice trials. During the experimental trials, you will not receive feedback, but it is very important that you respond as quickly and accurately as possible. 
Before you begin, please ensure that you are in a comfortable and quiet location and will not be disturbed for about 15 minutes, as we cannot use your data if you do not complete all the trials. 
There will be opportunities to take breaks at regular intervals during the experiment. When you are ready to start the experimental trials, please press space or touch the button below.",,,5dd11ee349f6071aef4519bb,2020-08-10_16h26.27.559,lexical_decision_task_MP,2020.1.3,Win32,60,,,,,,,,,,,,,,,,,,,,,,,,,0,0,0,0,1,,,,,,,,,,,,
,,,,,,,,,,,,,,,,,,5dd11ee349f6071aef4519bb,2020-08-10_16h26.27.559,lexical_decision_task_MP,2020.1.3,Win32,60,m,1,0.775,,,,,,,,0.775,1,,,,,,110,WORD,"ID",33,polite,POLITE,m,,,,,,0.047777778,-0.371111111,0,0,0,,0,0,0,49,1,
,,,,,,,,,,,,,,,,,,5dd11ee349f6071aef4519bb,2020-08-10_16h26.27.559,lexical_decision_task_MP,2020.1.3,Win32,60,z,1,0.756,,,,,,,,0.756,1,,,,,,385,NW,"ID",50,veigma,VEIGMA,z,,,,,,0.047777778,-0.371111111,0,0,0,,0,1,1,324,1,
,,,,,,,,,,,,,,,,,,5dd11ee349f6071aef4519bb,2020-08-10_16h26.27.559,lexical_decision_task_MP,2020.1.3,Win32,60,m,1,0.564,,,,,,,,0.564,1,,,,,,153,WORD,"ID",50,behold,BEHOLD,m,,,,,,0.047777778,-0.371111111,0,0,0,,0,2,2,92,1,
,,,,,,,,,,,,,,,,,,5dd11ee349f6071aef4519bb,2020-08-10_16h26.27.559,lexical_decision_task_MP,2020.1.3,Win32,60,m,1,0.636,,,,,,,,0.636,1,,,,,,29,WORD,UN,50,orient,SKETCH,m,,,,,,0.047777778,-0.371111111,0,0,0,,0,3,3,208,1,
,,,,,,,,,,,,,,,,,,5dd11ee349f6071aef4519bb,2020-08-10_16h26.27.559,lexical_decision_task_MP,2020.1.3,Win32,60,z,1,0.669,,,,,,,,0.669,1,,,,,,464,NW,UN,33,whivex,CHAITE,z,,,,,,0.047777778,-0.371111111,0,0,0,,0,4,4,403,1,
,,,,,,,,,,,,,,,,,,5dd11ee349f6071aef4519bb,2020-08-10_16h26.27.559,lexical_decision_task_MP,2020.1.3,Win32,60,m,1,0.636,,,,,,,,0.636,1,,,,,,101,WORD,"ID",33,wrench,WRENCH,m,,,,,,0.047777778,-0.371111111,0,0,0,,0,5,5,40,1,
,,,,,,,,,,,,,,,,,,5dd11ee349f6071aef4519bb,2020-08-10_16h26.27.559,lexical_decision_task_MP,2020.1.3,Win32,60,m,1,0.66,,,,,,,,0.66,1,,,,,,172,WORD,"ID",50,patrol,PATROL,m,,,,,,0.047777778,-0.371111111,0,0,0,,0,6,6,111,1,
,,,,,,,,,,,,,,,,,,5dd11ee349f6071aef4519bb,2020-08-10_16h26.27.559,lexical_decision_task_MP,2020.1.3,Win32,60,z,1,0.688,,,,,,,,0.688,1,,,,,,276,NW,UN,50,petain,YARMON,z,,,,,,0.047777778,-0.371111111,0,0,0,,0,7,7,455,1,
,,,,,,,,,,,,,,,,,,5dd11ee349f6071aef4519bb,2020-08-10_16h26.27.559,lexical_decision_task_MP,2020.1.3,Win32,60,m,1,0.637,,,,,,,,0.637,1,,,,,,179,WORD,"ID",50,basket,BASKET,m,,,,,,0.047777778,-0.371111111,0,0,0,,0,8,8,118,1,
,,,,,,,,,,,,,,,,,,5dd11ee349f6071aef4519bb,2020-08-10_16h26.27.559,lexical_decision_task_MP,2020.1.3,Win32,60,z,1,0.657,,,,,,,,0.657,1,,,,,,379,NW,"ID",50,auting,AUTING,z,,,,,,0.047777778,-0.371111111,0,0,0,,0,9,9,318,1,
,,,,,,,,,,,,,,,,,,5dd11ee349f6071aef4519bb,2020-08-10_16h26.27.559,lexical_decision_task_MP,2020.1.3,Win32,60,z,1,0.939,,,,,,,,0.939,1,,,,,,348,NW,"ID",33,dumple,DUMPLE,z,,,,,,0.047777778,-0.371111111,0,0,0,,0,10,10,287,1,
,,,,,,,,,,,,,,,,,,5dd11ee349f6071aef4519bb,2020-08-10_16h26.27.559,lexical_decision_task_MP,2020.1.3,Win32,60,z,1,0.868,,,,,,,,0.868,1,,,,,,268,NW,UN,50,orchet,PACKES,z,,,,,,0.047777778,-0.371111111,0,0,0,,0,11,11,447,1,
,,,,,,,,,,,,,,,,,,5dd11ee349f6071aef4519bb,2020-08-10_16h26.27.559,lexical_decision_task_MP,2020.1.3,Win32,60,m,1,0.647,,,,,,,,0.647,1,,,,,,53,WORD,UN,50,ramble,POLICE,m,,,,,,0.047777778,-0.371111111,0,0,0,,0,12,12,232,1,
,,,,,,,,,,,,,,,,,,5dd11ee349f6071aef4519bb,2020-08-10_16h26.27.559,lexical_decision_task_MP,2020.1.3,Win32,60,m,1,0.664,,,,,,,,0.664,1,,,,,,240,WORD,UN,33,seldom,FOREST,m,,,,,,0.047777778,-0.371111111,0,0,0,,0,13,13,179,1,
,,,,,,,,,,,,,,,,,,5dd11ee349f6071aef4519bb,2020-08-10_16h26.27.559,lexical_decision_task_MP,2020.1.3,Win32,60,m,1,0.784,,,,,,,,0.784,1,,,,,,190,WORD,UN,33,stable,BACKUP,m,,,,,,0.047777778,-0.371111111,0,0,0,,0,14,14,129,1,
,,,,,,,,,,,,,,,,,,5dd11ee349f6071aef4519bb,2020-08-10_16h26.27.559,lexical_decision_task_MP,2020.1.3,Win32,60,z,1,0.78,,,,,,,,0.78,1,,,,,,338,NW,"ID",33,wreash,WREASH,z,,,,,,0.047777778,-0.371111111,0,0,0,,0,15,15,277,1,
,,,,,,,,,,,,,,,,,,5dd11ee349f6071aef4519bb,2020-08-10_16h26.27.559,lexical_decision_task_MP,2020.1.3,Win32,60,m,0,0.793,,,,,,,,0.793,0,,,,,,427,NW,UN,33,tandly,SCHIND,z,,,,,,0.047777778,-0.371111111,0,0,0,,0,16,16,366,1,
,,,,,,,,,,,,,,,,,,5dd11ee349f6071aef4519bb,2020-08-10_16h26.27.559,lexical_decision_task_MP,2020.1.3,Win32,60,z,1,0.875,,,,,,,,0.875,1,,,,,,325,NW,"ID",33,thruse,THRUSE,z,,,,,,0.047777778,-0.371111111,0,0,0,,0,17,17,264,1,
,,,,,,,,,,,,,,,,,,5dd11ee349f6071aef4519bb,2020-08-10_16h26.27.559,lexical_decision_task_MP,2020.1.3,Win32,60,z,1,0.853,,,,,,,,0.853,1,,,,,,370,NW,"ID",50,sleact,SLEACT,z,,,,,,0.047777778,-0.371111111,0,0,0,,0,18,18,309,1,
,,,,,,,,,,,,,,,,,,5dd11ee349f6071aef4519bb,2020-08-10_16h26.27.559,lexical_decision_task_MP,2020.1.3,Win32,60,z,1,0.809,,,,,,,,0.809,1,,,,,,260,NW,UN,50,stunch,UNJECT,z,,,,,,0.047777778,-0.371111111,0,0,0,,0,19,19,439,1,
,,,,,,,,,,,,,,,,,,5dd11ee349f6071aef4519bb,2020-08-10_16h26.27.559,lexical_decision_task_MP,2020.1.3,Win32,60,m,1,0.645,,,,,,,,0.645,1,,,,,,144,WORD,"ID",50,sponge,SPONGE,m,,,,,,0.047777778,-0.371111111,0,0,0,,0,20,20,83,1,
,,,,,,,,,,,,,,,,,,5dd11ee349f6071aef4519bb,2020-08-10_16h26.27.559,lexical_decision_task_MP,2020.1.3,Win32,60,z,1,0.677,,,,,,,,0.677,1,,,,,,475,NW,UN,33,josted,PEBRIC,z,,,,,,0.047777778,-0.371111111,0,0,0,,0,21,21,414,1,
,,,,,,,,,,,,,,,,,,5dd11ee349f6071aef4519bb,2020-08-10_16h26.27.559,lexical_decision_task_MP,2020.1.3,Win32,60,m,1,0.898,,,,,,,,0.898,1,,,,,,132,WORD,"ID",50,strong,STRONG,m,,,,,,0.047777778,-0.371111111,0,0,0,,0,22,22,71,1,
,,,,,,,,,,,,,,,,,,5dd11ee349f6071aef4519bb,2020-08-10_16h26.27.559,lexical_decision_task_MP,2020.1.3,Win32,60,m,1,0.934,,,,,,,,0.934,1,,,,,,13,WORD,UN,50,almost,STRIVE,m,,,,,,0.047777778,-0.371111111,0,0,0,,0,23,23,192,1,
,,,,,,,,,,,,,,,,,,5dd11ee349f6071aef4519bb,2020-08-10_16h26.27.559,lexical_decision_task_MP,2020.1.3,Win32,60,m,1,0.858,,,,,,,,0.858,1,,,,,,113,WORD,"ID",33,chorus,CHORUS,m,,,,,,0.047777778,-0.371111111,0,0,0,,0,24,24,52,1,
,,,,,,,,,,,,,,,,,,5dd11ee349f6071aef4519bb,2020-08-10_16h26.27.559,lexical_decision_task_MP,2020.1.3,Win32,60,z,1,0.659,,,,,,,,0.659,1,,,,,,321,NW,"ID",33,miator,MIATOR,z,,,,,,0.047777778,-0.371111111,0,0,0,,0,25,25,260,1,
,,,,,,,,,,,,,,,,,,5dd11ee349f6071aef4519bb,2020-08-10_16h26.27.559,lexical_decision_task_MP,2020.1.3,Win32,60,z,1,0.798,,,,,,,,0.798,1,,,,,,470,NW,UN,33,nobest,CRUDIO,z,,,,,,0.047777778,-0.371111111,0,0,0,,0,26,26,409,1,
,,,,,,,,,,,,,,,,,,5dd11ee349f6071aef4519bb,2020-08-10_16h26.27.559,lexical_decision_task_MP,2020.1.3,Win32,60,z,1,0.726,,,,,,,,0.726,1,,,,,,311,NW,"ID",33,sproly,SPROLY,z,,,,,,0.047777778,-0.371111111,0,0,0,,0,27,27,250,1,
,,,,,,,,,,,,,,,,,,5dd11ee349f6071aef4519bb,2020-08-10_16h26.27.559,lexical_decision_task_MP,2020.1.3,Win32,60,m,1,0.752,,,,,,,,0.752,1,,,,,,226,WORD,UN,33,flower,CASINO,m,,,,,,0.047777778,-0.371111111,0,0,0,,0,28,28,165,1,
,,,,,,,,,,,,,,,,,,5dd11ee349f6071aef4519bb,2020-08-10_16h26.27.559,lexical_decision_task_MP,2020.1.3,Win32,60,m,1,0.682,,,,,,,,0.682,1,,,,,,214,WORD,UN,33,phobia,INTAKE,m,,,,,,0.047777778,-0.371111111,0,0,0,,0,29,29,153,1,
,,,,,,,,,,,,,,,,,,5dd11ee349f6071aef4519bb,2020-08-10_16h26.27.559,lexical_decision_task_MP,2020.1.3,Win32,60,m,1,0.716,,,,,,,,0.716,1,,,,,,54,WORD,UN,50,stroke,RAMBLE,m,,,,,,0.047777778,-0.371111111,0,0,0,,0,30,30,233,1,
,,,,,,,,,,,,,,,,,,5dd11ee349f6071aef4519bb,2020-08-10_16h26.27.559,lexical_decision_task_MP,2020.1.3,Win32,60,m,0,0.704,,,,,,,,0.704,0,,,,,,316,NW,"ID",33,scregm,SCREGM,z,,,,,,0.047777778,-0.371111111,0,0,0,,0,31,31,255,1,
,,,,,,,,,,,,,,,,,,5dd11ee349f6071aef4519bb,2020-08-10_16h26.27.559,lexical_decision_task_MP,2020.1.3,Win32,60,m,1,1.141,,,,,,,,1.141,1,,,,,,222,WORD,UN,33,export,HINDER,m,,,,,,0.047777778,-0.371111111,0,0,0,,0,32,32,161,1,
,,,,,,,,,,,,,,,,,,5dd11ee349f6071aef4519bb,2020-08-10_16h26.27.559,lexical_decision_task_MP,2020.1.3,Win32,60,m,1,0.906,,,,,,,,0.906,1,,,,,,149,WORD,"ID",50,invade,INVADE,m,,,,,,0.047777778,-0.371111111,0,0,0,,0,33,33,88,1,
,,,,,,,,,,,,,,,,,,5dd11ee349f6071aef4519bb,2020-08-10_16h26.27.559,lexical_decision_task_MP,2020.1.3,Win32,60,z,1,0.818,,,,,,,,0.818,1,,,,,,306,NW,"ID",33,sounge,SOUNGE,z,,,,,,0.047777778,-0.371111111,0,0,0,,0,34,34,245,1,
,,,,,,,,,,,,,,,,,,5dd11ee349f6071aef4519bb,2020-08-10_16h26.27.559,lexical_decision_task_MP,2020.1.3,Win32,60,z,0,0.837,,,,,,,,0.837,0,,,,,,138,WORD,"ID",50,melody,MELODY,m,,,,,,0.047777778,-0.371111111,0,0,0,,0,35,35,77,1,
,,,,,,,,,,,,,,,,,,5dd11ee349f6071aef4519bb,2020-08-10_16h26.27.559,lexical_decision_task_MP,2020.1.3,Win32,60,m,1,0.884,,,,,,,,0.884,1,,,,,,27,WORD,UN,50,comedy,SCREAM,m,,,,,,0.047777778,-0.371111111,0,0,0,,0,36,36,206,1,
,,,,,,,,,,,,,,,,,,5dd11ee349f6071aef4519bb,2020-08-10_16h26.27.559,lexical_decision_task_MP,2020.1.3,Win32,60,z,1,0.88,,,,,,,,0.88,1,,,,,,469,NW,UN,33,crudio,PADIFS,z,,,,,,0.047777778,-0.371111111,0,0,0,,0,37,37,408,1,
,,,,,,,,,,,,,,,,,,5dd11ee349f6071aef4519bb,2020-08-10_16h26.27.559,lexical_decision_task_MP,2020.1.3,Win32,60,m,1,0.9,,,,,,,,0.9,1,,,,,,10,WORD,UN,50,cruise,ETHNIC,m,,,,,,0.047777778,-0.371111111,0,0,0,,0,38,38,189,1,
,,,,,,,,,,,,,,,,,,5dd11ee349f6071aef4519bb,2020-08-10_16h26.27.559,lexical_decision_task_MP,2020.1.3,Win32,60,z,1,0.708,,,,,,,,0.708,1,,,,,,463,NW,UN,33,chaite,KISPEL,z,,,,,,0.047777778,-0.371111111,0,0,0,,0,39,39,402,1,
,,,,,,,,,,,,,,,,,,5dd11ee349f6071aef4519bb,2020-08-10_16h26.27.559,lexical_decision_task_MP,2020.1.3,Win32,60,m,1,0.67,,,,,,,,0.67,1,,,,,,158,WORD,"ID",50,island,ISLAND,m,,,,,,0.047777778,-0.371111111,0,0,0,,0,40,40,97,1,
,,,,,,,,,,,,,,,,,,5dd11ee349f6071aef4519bb,2020-08-10_16h26.27.559,lexical_decision_task_MP,2020.1.3,Win32,60,z,1,0.768,,,,,,,,0.768,1,,,,,,408,NW,"ID",50,hurnia,HURNIA,z,,,,,,0.047777778,-0.371111111,0,0,0,,0,41,41,347,1,
,,,,,,,,,,,,,,,,,,5dd11ee349f6071aef4519bb,2020-08-10_16h26.27.559,lexical_decision_task_MP,2020.1.3,Win32,60,m,1,0.814,,,,,,,,0.814,1,,,,,,181,WORD,UN,33,winter,GLANCE,m,,,,,,0.047777778,-0.371111111,0,0,0,,0,42,42,120,1,
,,,,,,,,,,,,,,,,,,5dd11ee349f6071aef4519bb,2020-08-10_16h26.27.559,lexical_decision_task_MP,2020.1.3,Win32,60,m,1,0.809,,,,,,,,0.809,1,,,,,,118,WORD,"ID",33,flight,FLIGHT,m,,,,,,0.047777778,-0.371111111,0,0,0,,0,43,43,57,1,
,,,,,,,,,,,,,,,,,,5dd11ee349f6071aef4519bb,2020-08-10_16h26.27.559,lexical_decision_task_MP,2020.1.3,Win32,60,m,1,0.834,,,,,,,,0.834,1,,,,,,109,WORD,"ID",33,wonder,WONDER,m,,,,,,0.047777778,-0.371111111,0,0,0,,0,44,44,48,1,
,,,,,,,,,,,,,,,,,,5dd11ee349f6071aef4519bb,2020-08-10_16h26.27.559,lexical_decision_task_MP,2020.1.3,Win32,60,z,1,0.738,,,,,,,,0.738,1,,,,,,307,NW,"ID",33,kirafe,KIRAFE,z,,,,,,0.047777778,-0.371111111,0,0,0,,0,45,45,246,1,
,,,,,,,,,,,,,,,,,,5dd11ee349f6071aef4519bb,2020-08-10_16h26.27.559,lexical_decision_task_MP,2020.1.3,Win32,60,z,1,0.719,,,,,,,,0.719,1,,,,,,287,NW,UN,50,yaceup,NYMBEL,z,,,,,,0.047777778,-0.371111111,0,0,0,,0,46,46,466,1,
,,,,,,,,,,,,,,,,,,5dd11ee349f6071aef4519bb,2020-08-10_16h26.27.559,lexical_decision_task_MP,2020.1.3,Win32,60,z,1,1.093,,,,,,,,1.093,1,,,,,,380,NW,"ID",50,cavory,CAVORY,z,,,,,,0.047777778,-0.371111111,0,0,0,,0,47,47,319,1,
,,,,,,,,,,,,,,,,,,5dd11ee349f6071aef4519bb,2020-08-10_16h26.27.559,lexical_decision_task_MP,2020.1.3,Win32,60,z,1,0.938,,,,,,,,0.938,1,,,,,,409,NW,"ID",50,elopia,ELOPIA,z,,,,,,0.047777778,-0.371111111,0,0,0,,0,48,48,348,1,
,,,,,,,,,,,,,,,,,,5dd11ee349f6071aef4519bb,2020-08-10_16h26.27.559,lexical_decision_task_MP,2020.1.3,Win32,60,z,1,0.963,,,,,,,,0.963,1,,,,,,343,NW,"ID",33,aimosy,AIMOSY,z,,,,,,0.047777778,-0.371111111,0,0,0,,0,49,49,282,1,
,,,,,,,,,,,,,,,,,,5dd11ee349f6071aef4519bb,2020-08-10_16h26.27.559,lexical_decision_task_MP,2020.1.3,Win32,60,z,1,1.345,,,,,,,,1.345,1,,,,,,453,NW,UN,33,scouge,BOLVIS,z,,,,,,0.047777778,-0.371111111,0,0,0,,0,50,50,392,1,
,,,,,,,,,,,,,,,,,,5dd11ee349f6071aef4519bb,2020-08-10_16h26.27.559,lexical_decision_task_MP,2020.1.3,Win32,60,m,1,0.653,,,,,,,,0.653,1,,,,,,17,WORD,UN,50,humble,CHARGE,m,,,,,,0.047777778,-0.371111111,0,0,0,,0,51,51,196,1,
,,,,,,,,,,,,,,,,,,5dd11ee349f6071aef4519bb,2020-08-10_16h26.27.559,lexical_decision_task_MP,2020.1.3,Win32,60,m,1,0.757,,,,,,,,0.757,1,,,,,,32,WORD,UN,50,scream,BUCKLE,m,,,,,,0.047777778,-0.371111111,0,0,0,,0,52,52,211,1,
,,,,,,,,,,,,,,,,,,5dd11ee349f6071aef4519bb,2020-08-10_16h26.27.559,lexical_decision_task_MP,2020.1.3,Win32,60,m,1,0.766,,,,,,,,0.766,1,,,,,,123,WORD,"ID",50,strike,STRIKE,m,,,,,,0.047777778,-0.371111111,0,0,0,,0,53,53,62,1,
,,,,,,,,,,,,,,,,,,5dd11ee349f6071aef4519bb,2020-08-10_16h26.27.559,lexical_decision_task_MP,2020.1.3,Win32,60,z,1,0.898,,,,,,,,0.898,1,,,,,,374,NW,"ID",50,sliant,SLIANT,z,,,,,,0.047777778,-0.371111111,0,0,0,,0,54,54,313,1,
,,,,,,,,,,,,,,,,,,5dd11ee349f6071aef4519bb,2020-08-10_16h26.27.559,lexical_decision_task_MP,2020.1.3,Win32,60,m,1,0.653,,,,,,,,0.653,1,,,,,,107,WORD,"ID",33,slogan,SLOGAN,m,,,,,,0.047777778,-0.371111111,0,0,0,,0,55,55,46,1,
,,,,,,,,,,,,,,,,,,5dd11ee349f6071aef4519bb,2020-08-10_16h26.27.559,lexical_decision_task_MP,2020.1.3,Win32,60,z,1,0.762,,,,,,,,0.762,1,,,,,,391,NW,"ID",50,theldy,THELDY,z,,,,,,0.047777778,-0.371111111,0,0,0,,0,56,56,330,1,
,,,,,,,,,,,,,,,,,,5dd11ee349f6071aef4519bb,2020-08-10_16h26.27.559,lexical_decision_task_MP,2020.1.3,Win32,60,m,1,0.734,,,,,,,,0.734,1,,,,,,130,WORD,"ID",50,stupid,STUPID,m,,,,,,0.047777778,-0.371111111,0,0,0,,0,57,57,69,1,
,,,,,,,,,,,,,,,,,,5dd11ee349f6071aef4519bb,2020-08-10_16h26.27.559,lexical_decision_task_MP,2020.1.3,Win32,60,z,1,0.693,,,,,,,,0.693,1,,,,,,272,NW,UN,50,sortel,DAMILT,z,,,,,,0.047777778,-0.371111111,0,0,0,,0,58,58,451,1,
,,,,,,,,,,,,,,,,,,5dd11ee349f6071aef4519bb,2020-08-10_16h26.27.559,lexical_decision_task_MP,2020.1.3,Win32,60,m,1,0.717,,,,,,,,0.717,1,,,,,,174,WORD,"ID",50,turkey,TURKEY,m,,,,,,0.047777778,-0.371111111,0,0,0,,0,59,59,113,1,
,,,,,,,,,,,,,,,,,,5dd11ee349f6071aef4519bb,2020-08-10_16h26.27.559,lexical_decision_task_MP,2020.1.3,Win32,60,m,1,0.718,,,,,,,,0.718,1,,,,,,69,WORD,"ID",33,plenty,PLENTY,m,,,,,,0.047777778,-0.371111111,0,0,0,,0,60,60,8,1,
,,,,,,,,,,,,,,,,,,5dd11ee349f6071aef4519bb,2020-08-10_16h26.27.559,lexical_decision_task_MP,2020.1.3,Win32,60,z,1,0.725,,,,,,,,0.725,1,,,,,,400,NW,"ID",50,wearox,WEAROX,z,,,,,,0.047777778,-0.371111111,0,0,0,,0,61,61,339,1,
,,,,,,,,,,,,,,,,,,5dd11ee349f6071aef4519bb,2020-08-10_16h26.27.559,lexical_decision_task_MP,2020.1.3,Win32,60,m,1,0.745,,,,,,,,0.745,1,,,,,,219,WORD,UN,33,voyage,BUCKET,m,,,,,,0.047777778,-0.371111111,0,0,0,,0,62,62,158,1,
,,,,,,,,,,,,,,,,,,5dd11ee349f6071aef4519bb,2020-08-10_16h26.27.559,lexical_decision_task_MP,2020.1.3,Win32,60,m,1,0.72,,,,,,,,0.72,1,,,,,,133,WORD,"ID",50,chrome,CHROME,m,,,,,,0.047777778,-0.371111111,0,0,0,,0,63,63,72,1,
,,,,,,,,,,,,,,,,,,5dd11ee349f6071aef4519bb,2020-08-10_16h26.27.559,lexical_decision_task_MP,2020.1.3,Win32,60,m,1,0.763,,,,,,,,0.763,1,,,,,,220,WORD,UN,33,mascot,VOYAGE,m,,,,,,0.047777778,-0.371111111,0,0,0,,0,64,64,159,1,
,,,,,,,,,,,,,,,,,,5dd11ee349f6071aef4519bb,2020-08-10_16h26.27.559,lexical_decision_task_MP,2020.1.3,Win32,60,m,1,0.752,,,,,,,,0.752,1,,,,,,94,WORD,"ID",33,travel,TRAVEL,m,,,,,,0.047777778,-0.371111111,0,0,0,,0,65,65,33,1,
,,,,,,,,,,,,,,,,,,5dd11ee349f6071aef4519bb,2020-08-10_16h26.27.559,lexical_decision_task_MP,2020.1.3,Win32,60,m,1,0.73,,,,,,,,0.73,1,,,,,,230,WORD,UN,33,mother,FRINGE,m,,,,,,0.047777778,-0.371111111,0,0,0,,0,66,66,169,1,
,,,,,,,,,,,,,,,,,,5dd11ee349f6071aef4519bb,2020-08-10_16h26.27.559,lexical_decision_task_MP,2020.1.3,Win32,60,m,1,0.693,,,,,,,,0.693,1,,,,,,14,WORD,UN,50,orange,ALMOST,m,,,,,,0.047777778,-0.371111111,0,0,0,,0,67,67,193,1,
,,,,,,,,,,,,,,,,,,5dd11ee349f6071aef4519bb,2020-08-10_16h26.27.559,lexical_decision_task_MP,2020.1.3,Win32,60,z,1,0.674,,,,,,,,0.674,1,,,,,,335,NW,"ID",33,desion,DESION,z,,,,,,0.047777778,-0.371111111,0,0,0,,0,68,68,274,1,
,,,,,,,,,,,,,,,,,,5dd11ee349f6071aef4519bb,2020-08-10_16h26.27.559,lexical_decision_task_MP,2020.1.3,Win32,60,z,1,0.728,,,,,,,,0.728,1,,,,,,264,NW,UN,50,distar,VACKEL,z,,,,,,0.047777778,-0.371111111,0,0,0,,0,69,69,443,1,
,,,,,,,,,,,,,,,,,,5dd11ee349f6071aef4519bb,2020-08-10_16h26.27.559,lexical_decision_task_MP,2020.1.3,Win32,60,m,1,0.792,,,,,,,,0.792,1,,,,,,228,WORD,UN,33,kidney,MASTER,m,,,,,,0.047777778,-0.371111111,0,0,0,,0,70,70,167,1,
,,,,,,,,,,,,,,,,,,5dd11ee349f6071aef4519bb,2020-08-10_16h26.27.559,lexical_decision_task_MP,2020.1.3,Win32,60,z,1,0.675,,,,,,,,0.675,1,,,,,,340,NW,"ID",33,fiatch,FIATCH,z,,,,,,0.047777778,-0.371111111,0,0,0,,0,71,71,279,1,
,,,,,,,,,,,,,,,,,,5dd11ee349f6071aef4519bb,2020-08-10_16h26.27.559,lexical_decision_task_MP,2020.1.3,Win32,60,z,1,0.801,,,,,,,,0.801,1,,,,,,440,NW,UN,33,rastoe,SARIDE,z,,,,,,0.047777778,-0.371111111,0,0,0,,0,72,72,379,1,
,,,,,,,,,,,,,,,,,,5dd11ee349f6071aef4519bb,2020-08-10_16h26.27.559,lexical_decision_task_MP,2020.1.3,Win32,60,m,1,0.712,,,,,,,,0.712,1,,,,,,64,WORD,"ID",33,throne,THRONE,m,,,,,,0.047777778,-0.371111111,0,0,0,,0,73,73,3,1,
,,,,,,,,,,,,,,,,,,5dd11ee349f6071aef4519bb,2020-08-10_16h26.27.559,lexical_decision_task_MP,2020.1.3,Win32,60,m,1,0.693,,,,,,,,0.693,1,,,,,,55,WORD,UN,50,ambush,STROKE,m,,,,,,0.047777778,-0.371111111,0,0,0,,0,74,74,234,1,
,,,,,,,,,,,,,,,,,,5dd11ee349f6071aef4519bb,2020-08-10_16h26.27.559,lexical_decision_task_MP,2020.1.3,Win32,60,z,1,0.713,,,,,,,,0.713,1,,,,,,359,NW,"ID",33,fonver,FONVER,z,,,,,,0.047777778,-0.371111111,0,0,0,,0,75,75,298,1,
,,,,,,,,,,,,,,,,,,5dd11ee349f6071aef4519bb,2020-08-10_16h26.27.559,lexical_decision_task_MP,2020.1.3,Win32,60,z,1,0.801,,,,,,,,0.801,1,,,,,,346,NW,"ID",33,saudic,SAUDIC,z,,,,,,0.047777778,-0.371111111,0,0,0,,0,76,76,285,1,
,,,,,,,,,,,,,,,,,,5dd11ee349f6071aef4519bb,2020-08-10_16h26.27.559,lexical_decision_task_MP,2020.1.3,Win32,60,z,1,0.751,,,,,,,,0.751,1,,,,,,349,NW,"ID",33,asylen,ASYLEN,z,,,,,,0.047777778,-0.371111111,0,0,0,,0,77,77,288,1,
,,,,,,,,,,,,,,,,,,5dd11ee349f6071aef4519bb,2020-08-10_16h26.27.559,lexical_decision_task_MP,2020.1.3,Win32,60,m,1,0.783,,,,,,,,0.783,1,,,,,,164,WORD,"ID",50,market,MARKET,m,,,,,,0.047777778,-0.371111111,0,0,0,,0,78,78,103,1,
,,,,,,,,,,,,,,,,,,5dd11ee349f6071aef4519bb,2020-08-10_16h26.27.559,lexical_decision_task_MP,2020.1.3,Win32,60,z,1,0.738,,,,,,,,0.738,1,,,,,,282,NW,UN,50,veralf,PORLEX,z,,,,,,0.047777778,-0.371111111,0,0,0,,0,79,79,461,1,
,,,,,,,,,,,,,,,,,,5dd11ee349f6071aef4519bb,2020-08-10_16h26.27.559,lexical_decision_task_MP,2020.1.3,Win32,60,m,1,0.834,,,,,,,,0.834,1,,,,,,225,WORD,UN,33,casino,VULGAR,m,,,,,,0.047777778,-0.371111111,0,0,0,,0,80,80,164,1,
,,,,,,,,,,,,,,,,,,5dd11ee349f6071aef4519bb,2020-08-10_16h26.27.559,lexical_decision_task_MP,2020.1.3,Win32,60,m,1,0.682,,,,,,,,0.682,1,,,,,,48,WORD,UN,50,survey,WALNUT,m,,,,,,0.047777778,-0.371111111,0,0,0,,0,81,81,227,1,
,,,,,,,,,,,,,,,,,,5dd11ee349f6071aef4519bb,2020-08-10_16h26.27.559,lexical_decision_task_MP,2020.1.3,Win32,60,z,1,0.708,,,,,,,,0.708,1,,,,,,302,NW,"ID",33,miluer,MILUER,z,,,,,,0.047777778,-0.371111111,0,0,0,,0,82,82,241,1,
,,,,,,,,,,,,,,,,,,5dd11ee349f6071aef4519bb,2020-08-10_16h26.27.559,lexical_decision_task_MP,2020.1.3,Win32,60,m,1,0.639,,,,,,,,0.639,1,,,,,,83,WORD,"ID",33,result,RESULT,m,,,,,,0.047777778,-0.371111111,0,0,0,,0,83,83,22,1,
,,,,,,,,,,,,,,,,,,5dd11ee349f6071aef4519bb,2020-08-10_16h26.27.559,lexical_decision_task_MP,2020.1.3,Win32,60,m,1,0.81,,,,,,,,0.81,1,,,,,,90,WORD,"ID",33,relish,RELISH,m,,,,,,0.047777778,-0.371111111,0,0,0,,0,84,84,29,1,
,,,,,,,,,,,,,,,,,,5dd11ee349f6071aef4519bb,2020-08-10_16h26.27.559,lexical_decision_task_MP,2020.1.3,Win32,60,m,1,0.679,,,,,,,,0.679,1,,,,,,68,WORD,"ID",33,fumble,FUMBLE,m,,,,,,0.047777778,-0.371111111,0,0,0,,0,85,85,7,1,
,,,,,,,,,,,,,,,,,,5dd11ee349f6071aef4519bb,2020-08-10_16h26.27.559,lexical_decision_task_MP,2020.1.3,Win32,60,z,1,0.58,,,,,,,,0.58,1,,,,,,256,NW,UN,50,veniod,INLORS,z,,,,,,0.047777778,-0.371111111,0,0,0,,0,86,86,435,1,
,,,,,,,,,,,,,,,,,,5dd11ee349f6071aef4519bb,2020-08-10_16h26.27.559,lexical_decision_task_MP,2020.1.3,Win32,60,m,1,0.623,,,,,,,,0.623,1,,,,,,170,WORD,"ID",50,pounce,POUNCE,m,,,,,,0.047777778,-0.371111111,0,0,0,,0,87,87,109,1,
,,,,,,,,,,,,,,,,,,5dd11ee349f6071aef4519bb,2020-08-10_16h26.27.559,lexical_decision_task_MP,2020.1.3,Win32,60,z,1,0.626,,,,,,,,0.626,1,,,,,,382,NW,"ID",50,sarley,SARLEY,z,,,,,,0.047777778,-0.371111111,0,0,0,,0,88,88,321,1,
,,,,,,,,,,,,,,,,,,5dd11ee349f6071aef4519bb,2020-08-10_16h26.27.559,lexical_decision_task_MP,2020.1.3,Win32,60,m,1,0.617,,,,,,,,0.617,1,,,,,,196,WORD,UN,33,stream,CREDIT,m,,,,,,0.047777778,-0.371111111,0,0,0,,0,89,89,135,1,
,,,,,,,,,,,,,,,,,,5dd11ee349f6071aef4519bb,2020-08-10_16h26.27.559,lexical_decision_task_MP,2020.1.3,Win32,60,m,1,1.071,,,,,,,,1.071,1,,,,,,237,WORD,UN,33,glance,POSTER,m,,,,,,0.047777778,-0.371111111,0,0,0,,0,90,90,176,1,
,,,,,,,,,,,,,,,,,,5dd11ee349f6071aef4519bb,2020-08-10_16h26.27.559,lexical_decision_task_MP,2020.1.3,Win32,60,z,1,1.262,,,,,,,,1.262,1,,,,,,433,NW,UN,33,pitrom,DRANCE,z,,,,,,0.047777778,-0.371111111,0,0,0,,0,91,91,372,1,
,,,,,,,,,,,,,,,,,,5dd11ee349f6071aef4519bb,2020-08-10_16h26.27.559,lexical_decision_task_MP,2020.1.3,Win32,60,z,1,0.858,,,,,,,,0.858,1,,,,,,368,NW,"ID",50,hornal,HORNAL,z,,,,,,0.047777778,-0.371111111,0,0,0,,0,92,92,307,1,
,,,,,,,,,,,,,,,,,,5dd11ee349f6071aef4519bb,2020-08-10_16h26.27.559,lexical_decision_task_MP,2020.1.3,Win32,60,m,1,0.713,,,,,,,,0.713,1,,,,,,65,WORD,"ID",33,symbol,SYMBOL,m,,,,,,0.047777778,-0.371111111,0,0,0,,0,93,93,4,1,
,,,,,,,,,,,,,,,,,,5dd11ee349f6071aef4519bb,2020-08-10_16h26.27.559,lexical_decision_task_MP,2020.1.3,Win32,60,z,1,0.783,,,,,,,,0.783,1,,,,,,373,NW,"ID",50,bigent,BIGENT,z,,,,,,0.047777778,-0.371111111,0,0,0,,0,94,94,312,1,
,,,,,,,,,,,,,,,,,,5dd11ee349f6071aef4519bb,2020-08-10_16h26.27.559,lexical_decision_task_MP,2020.1.3,Win32,60,m,1,0.676,,,,,,,,0.676,1,,,,,,178,WORD,"ID",50,inform,INFORM,m,,,,,,0.047777778,-0.371111111,0,0,0,,0,95,95,117,1,
,,,,,,,,,,,,,,,,,,5dd11ee349f6071aef4519bb,2020-08-10_16h26.27.559,lexical_decision_task_MP,2020.1.3,Win32,60,m,1,0.754,,,,,,,,0.754,1,,,,,,117,WORD,"ID",33,branch,BRANCH,m,,,,,,0.047777778,-0.371111111,0,0,0,,0,96,96,56,1,
,,,,,,,,,,,,,,,,,,5dd11ee349f6071aef4519bb,2020-08-10_16h26.27.559,lexical_decision_task_MP,2020.1.3,Win32,60,m,1,1.009,,,,,,,,1.009,1,,,,,,75,WORD,"ID",33,trophy,TROPHY,m,,,,,,0.047777778,-0.371111111,0,0,0,,0,97,97,14,1,
,,,,,,,,,,,,,,,,,,5dd11ee349f6071aef4519bb,2020-08-10_16h26.27.559,lexical_decision_task_MP,2020.1.3,Win32,60,z,1,0.697,,,,,,,,0.697,1,,,,,,377,NW,"ID",50,injore,INJORE,z,,,,,,0.047777778,-0.371111111,0,0,0,,0,98,98,316,1,
,,,,,,,,,,,,,,,,,,5dd11ee349f6071aef4519bb,2020-08-10_16h26.27.559,lexical_decision_task_MP,2020.1.3,Win32,60,z,1,0.696,,,,,,,,0.696,1,,,,,,352,NW,"ID",33,tringe,TRINGE,z,,,,,,0.047777778,-0.371111111,0,0,0,,0,99,99,291,1,
,,,,,,,,,,,,,,,,,,5dd11ee349f6071aef4519bb,2020-08-10_16h26.27.559,lexical_decision_task_MP,2020.1.3,Win32,60,m,1,1.171,,,,,,,,1.171,1,,,,,,184,WORD,UN,33,bother,SLEAZY,m,,,,,,0.047777778,-0.371111111,0,0,0,,0,100,100,123,1,
,,,,,,,,,,,,,,,,,,5dd11ee349f6071aef4519bb,2020-08-10_16h26.27.559,lexical_decision_task_MP,2020.1.3,Win32,60,z,1,0.736,,,,,,,,0.736,1,,,,,,414,NW,"ID",50,serbol,SERBOL,z,,,,,,0.047777778,-0.371111111,0,0,0,,0,101,101,353,1,
,,,,,,,,,,,,,,,,,,5dd11ee349f6071aef4519bb,2020-08-10_16h26.27.559,lexical_decision_task_MP,2020.1.3,Win32,60,z,1,1.069,,,,,,,,1.069,1,,,,,,477,NW,UN,33,lobush,PHOTIE,z,,,,,,0.047777778,-0.371111111,0,0,0,,0,102,102,416,1,
,,,,,,,,,,,,,,,,,,5dd11ee349f6071aef4519bb,2020-08-10_16h26.27.559,lexical_decision_task_MP,2020.1.3,Win32,60,z,1,0.885,,,,,,,,0.885,1,,,,,,244,NW,UN,50,anougs,EATRIC,z,,,,,,0.047777778,-0.371111111,0,0,0,,0,103,103,423,1,
,,,,,,,,,,,,,,,,,,5dd11ee349f6071aef4519bb,2020-08-10_16h26.27.559,lexical_decision_task_MP,2020.1.3,Win32,60,m,1,0.654,,,,,,,,0.654,1,,,,,,84,WORD,"ID",33,mortal,MORTAL,m,,,,,,0.047777778,-0.371111111,0,0,0,,0,104,104,23,1,
,,,,,,,,,,,,,,,,,,5dd11ee349f6071aef4519bb,2020-08-10_16h26.27.559,lexical_decision_task_MP,2020.1.3,Win32,60,z,1,1.005,,,,,,,,1.005,1,,,,,,278,NW,UN,50,celond,UNIGHS,z,,,,,,0.047777778,-0.371111111,0,0,0,,0,105,105,457,1,
,,,,,,,,,,,,,,,,,,5dd11ee349f6071aef4519bb,2020-08-10_16h26.27.559,lexical_decision_task_MP,2020.1.3,Win32,60,m,1,0.867,,,,,,,,0.867,1,,,,,,120,WORD,"ID",33,strain,STRAIN,m,,,,,,0.047777778,-0.371111111,0,0,0,,0,106,106,59,1,
,,,,,,,,,,,,,,,,,,5dd11ee349f6071aef4519bb,2020-08-10_16h26.27.559,lexical_decision_task_MP,2020.1.3,Win32,60,z,1,1.072,,,,,,,,1.072,1,,,,,,434,NW,UN,33,impurb,PITROM,z,,,,,,0.047777778,-0.371111111,0,0,0,,0,107,107,373,1,
,,,,,,,,,,,,,,,,,,5dd11ee349f6071aef4519bb,2020-08-10_16h26.27.559,lexical_decision_task_MP,2020.1.3,Win32,60,z,1,0.897,,,,,,,,0.897,1,,,,,,438,NW,UN,33,limpor,BAITCH,z,,,,,,0.047777778,-0.371111111,0,0,0,,0,108,108,377,1,
,,,,,,,,,,,,,,,,,,5dd11ee349f6071aef4519bb,2020-08-10_16h26.27.559,lexical_decision_task_MP,2020.1.3,Win32,60,m,1,0.649,,,,,,,,0.649,1,,,,,,127,WORD,"ID",50,castle,CASTLE,m,,,,,,0.047777778,-0.371111111,0,0,0,,0,109,109,66,1,
,,,,,,,,,,,,,,,,,,5dd11ee349f6071aef4519bb,2020-08-10_16h26.27.559,lexical_decision_task_MP,2020.1.3,Win32,60,z,1,0.942,,,,,,,,0.942,1,,,,,,331,NW,"ID",33,gilfew,GILFEW,z,,,,,,0.047777778,-0.371111111,0,0,0,,0,110,110,270,1,
,,,,,,,,,,,,,,,,,,5dd11ee349f6071aef4519bb,2020-08-10_16h26.27.559,lexical_decision_task_MP,2020.1.3,Win32,60,z,1,1.176,,,,,,,,1.176,1,,,,,,462,NW,UN,33,kispel,ABSULT,z,,,,,,0.047777778,-0.371111111,0,0,0,,0,111,111,401,1,
,,,,,,,,,,,,,,,,,,5dd11ee349f6071aef4519bb,2020-08-10_16h26.27.559,lexical_decision_task_MP,2020.1.3,Win32,60,m,1,0.715,,,,,,,,0.715,1,,,,,,95,WORD,"ID",33,thread,THREAD,m,,,,,,0.047777778,-0.371111111,0,0,0,,0,112,112,34,1,
,,,,,,,,,,,,,,,,,,5dd11ee349f6071aef4519bb,2020-08-10_16h26.27.559,lexical_decision_task_MP,2020.1.3,Win32,60,z,1,0.842,,,,,,,,0.842,1,,,,,,333,NW,"ID",33,catrie,CATRIE,z,,,,,,0.047777778,-0.371111111,0,0,0,,0,113,113,272,1,
,,,,,,,,,,,,,,,,,,5dd11ee349f6071aef4519bb,2020-08-10_16h26.27.559,lexical_decision_task_MP,2020.1.3,Win32,60,m,1,0.637,,,,,,,,0.637,1,,,,,,39,WORD,UN,50,convey,INSECT,m,,,,,,0.047777778,-0.371111111,0,0,0,,0,114,114,218,1,
,,,,,,,,,,,,,,,,,,5dd11ee349f6071aef4519bb,2020-08-10_16h26.27.559,lexical_decision_task_MP,2020.1.3,Win32,60,z,1,0.766,,,,,,,,0.766,1,,,,,,381,NW,"ID",50,huniek,HUNIEK,z,,,,,,0.047777778,-0.371111111,0,0,0,,0,115,115,320,1,
,,,,,,,,,,,,,,,,,,5dd11ee349f6071aef4519bb,2020-08-10_16h26.27.559,lexical_decision_task_MP,2020.1.3,Win32,60,m,1,0.619,,,,,,,,0.619,1,,,,,,112,WORD,"ID",33,breath,BREATH,m,,,,,,0.047777778,-0.371111111,0,0,0,,0,116,116,51,1,
,,,,,,,,,,,,,,,,,,5dd11ee349f6071aef4519bb,2020-08-10_16h26.27.559,lexical_decision_task_MP,2020.1.3,Win32,60,z,1,0.79,,,,,,,,0.79,1,,,,,,411,NW,"ID",50,orchin,ORCHIN,z,,,,,,0.047777778,-0.371111111,0,0,0,,0,117,117,350,1,
,,,,,,,,,,,,,,,,,,5dd11ee349f6071aef4519bb,2020-08-10_16h26.27.559,lexical_decision_task_MP,2020.1.3,Win32,60,m,1,0.672,,,,,,,,0.672,1,,,,,,6,WORD,UN,50,anchor,BUNDLE,m,,,,,,0.047777778,-0.371111111,0,0,0,,0,118,118,185,1,
,,,,,,,,,,,,,,,,,,5dd11ee349f6071aef4519bb,2020-08-10_16h26.27.559,lexical_decision_task_MP,2020.1.3,Win32,60,z,1,0.819,,,,,,,,0.819,1,,,,,,467,NW,UN,33,wictor,GORBIE,z,,,,,,0.047777778,-0.371111111,0,0,0,,0,119,119,406,1,
,,,,,,,,,,,,,,,,,,5dd11ee349f6071aef4519bb,2020-08-10_16h26.27.559,lexical_decision_task_MP,2020.1.3,Win32,60,z,1,0.667,,,,,,,,0.667,1,,,,,,362,NW,"ID",50,tireau,TIREAU,z,,,,,,0.047777778,-0.371111111,0,0,0,space,0,120,120,301,1,7.467
,,,,,,,,,,,,,,,,,,5dd11ee349f6071aef4519bb,2020-08-10_16h26.27.559,lexical_decision_task_MP,2020.1.3,Win32,60,m,1,1.007,,,,,,,,1.007,1,,,,,,221,WORD,UN,33,hinder,MASCOT,m,,,,,,0.047777778,-0.371111111,0,0,0,,0,121,121,160,1,
,,,,,,,,,,,,,,,,,,5dd11ee349f6071aef4519bb,2020-08-10_16h26.27.559,lexical_decision_task_MP,2020.1.3,Win32,60,m,1,0.65,,,,,,,,0.65,1,,,,,,183,WORD,UN,33,sleazy,MILDEW,m,,,,,,0.047777778,-0.371111111,0,0,0,,0,122,122,122,1,
,,,,,,,,,,,,,,,,,,5dd11ee349f6071aef4519bb,2020-08-10_16h26.27.559,lexical_decision_task_MP,2020.1.3,Win32,60,m,1,0.598,,,,,,,,0.598,1,,,,,,198,WORD,UN,33,invoke,WICKED,m,,,,,,0.047777778,-0.371111111,0,0,0,,0,123,123,137,1,
,,,,,,,,,,,,,,,,,,5dd11ee349f6071aef4519bb,2020-08-10_16h26.27.559,lexical_decision_task_MP,2020.1.3,Win32,60,z,1,0.867,,,,,,,,0.867,1,,,,,,447,NW,UN,33,sadent,GIRCUE,z,,,,,,0.047777778,-0.371111111,0,0,0,,0,124,124,386,1,
,,,,,,,,,,,,,,,,,,5dd11ee349f6071aef4519bb,2020-08-10_16h26.27.559,lexical_decision_task_MP,2020.1.3,Win32,60,m,1,0.678,,,,,,,,0.678,1,,,,,,37,WORD,UN,50,powder,INSULT,m,,,,,,0.047777778,-0.371111111,0,0,0,,0,125,125,216,1,
,,,,,,,,,,,,,,,,,,5dd11ee349f6071aef4519bb,2020-08-10_16h26.27.559,lexical_decision_task_MP,2020.1.3,Win32,60,z,1,0.837,,,,,,,,0.837,1,,,,,,261,NW,UN,50,quilew,STUNCH,z,,,,,,0.047777778,-0.371111111,0,0,0,,0,126,126,440,1,
,,,,,,,,,,,,,,,,,,5dd11ee349f6071aef4519bb,2020-08-10_16h26.27.559,lexical_decision_task_MP,2020.1.3,Win32,60,z,1,0.832,,,,,,,,0.832,1,,,,,,288,NW,UN,50,starby,YACEUP,z,,,,,,0.047777778,-0.371111111,0,0,0,,0,127,127,467,1,
,,,,,,,,,,,,,,,,,,5dd11ee349f6071aef4519bb,2020-08-10_16h26.27.559,lexical_decision_task_MP,2020.1.3,Win32,60,m,1,0.571,,,,,,,,0.571,1,,,,,,167,WORD,"ID",50,design,DESIGN,m,,,,,,0.047777778,-0.371111111,0,0,0,,0,128,128,106,1,
,,,,,,,,,,,,,,,,,,5dd11ee349f6071aef4519bb,2020-08-10_16h26.27.559,lexical_decision_task_MP,2020.1.3,Win32,60,z,1,0.631,,,,,,,,0.631,1,,,,,,451,NW,UN,33,surden,CAINKY,z,,,,,,0.047777778,-0.371111111,0,0,0,,0,129,129,390,1,
,,,,,,,,,,,,,,,,,,5dd11ee349f6071aef4519bb,2020-08-10_16h26.27.559,lexical_decision_task_MP,2020.1.3,Win32,60,m,1,0.6,,,,,,,,0.6,1,,,,,,229,WORD,UN,33,fringe,MOTHER,m,,,,,,0.047777778,-0.371111111,0,0,0,,0,130,130,168,1,
,,,,,,,,,,,,,,,,,,5dd11ee349f6071aef4519bb,2020-08-10_16h26.27.559,lexical_decision_task_MP,2020.1.3,Win32,60,z,1,0.734,,,,,,,,0.734,1,,,,,,275,NW,UN,50,yarmon,SLEIRT,z,,,,,,0.047777778,-0.371111111,0,0,0,,0,131,131,454,1,
,,,,,,,,,,,,,,,,,,5dd11ee349f6071aef4519bb,2020-08-10_16h26.27.559,lexical_decision_task_MP,2020.1.3,Win32,60,z,1,0.749,,,,,,,,0.749,1,,,,,,479,NW,UN,33,crible,LOBUSH,z,,,,,,0.047777778,-0.371111111,0,0,0,,0,132,132,418,1,
,,,,,,,,,,,,,,,,,,5dd11ee349f6071aef4519bb,2020-08-10_16h26.27.559,lexical_decision_task_MP,2020.1.3,Win32,60,m,1,0.671,,,,,,,,0.671,1,,,,,,19,WORD,UN,50,breast,PATRON,m,,,,,,0.047777778,-0.371111111,0,0,0,,0,133,133,198,1,
,,,,,,,,,,,,,,,,,,5dd11ee349f6071aef4519bb,2020-08-10_16h26.27.559,lexical_decision_task_MP,2020.1.3,Win32,60,m,1,0.751,,,,,,,,0.751,1,,,,,,145,WORD,"ID",50,parish,PARISH,m,,,,,,0.047777778,-0.371111111,0,0,0,,0,134,134,84,1,
,,,,,,,,,,,,,,,,,,5dd11ee349f6071aef4519bb,2020-08-10_16h26.27.559,lexical_decision_task_MP,2020.1.3,Win32,60,m,1,0.609,,,,,,,,0.609,1,,,,,,146,WORD,"ID",50,couple,COUPLE,m,,,,,,0.047777778,-0.371111111,0,0,0,,0,135,135,85,1,
,,,,,,,,,,,,,,,,,,5dd11ee349f6071aef4519bb,2020-08-10_16h26.27.559,lexical_decision_task_MP,2020.1.3,Win32,60,m,1,0.71,,,,,,,,0.71,1,,,,,,24,WORD,UN,50,domain,PRAISE,m,,,,,,0.047777778,-0.371111111,0,0,0,,0,136,136,203,1,
,,,,,,,,,,,,,,,,,,5dd11ee349f6071aef4519bb,2020-08-10_16h26.27.559,lexical_decision_task_MP,2020.1.3,Win32,60,z,1,0.601,,,,,,,,0.601,1,,,,,,279,NW,UN,50,curbol,CELOND,z,,,,,,0.047777778,-0.371111111,0,0,0,,0,137,137,458,1,
,,,,,,,,,,,,,,,,,,5dd11ee349f6071aef4519bb,2020-08-10_16h26.27.559,lexical_decision_task_MP,2020.1.3,Win32,60,m,1,0.699,,,,,,,,0.699,1,,,,,,224,WORD,UN,33,vulgar,PERIOD,m,,,,,,0.047777778,-0.371111111,0,0,0,,0,138,138,163,1,
,,,,,,,,,,,,,,,,,,5dd11ee349f6071aef4519bb,2020-08-10_16h26.27.559,lexical_decision_task_MP,2020.1.3,Win32,60,z,1,1.072,,,,,,,,1.072,1,,,,,,473,NW,UN,33,hablin,CRIBLE,z,,,,,,0.047777778,-0.371111111,0,0,0,,0,139,139,412,1,
,,,,,,,,,,,,,,,,,,5dd11ee349f6071aef4519bb,2020-08-10_16h26.27.559,lexical_decision_task_MP,2020.1.3,Win32,60,m,1,0.777,,,,,,,,0.777,1,,,,,,44,WORD,UN,50,clergy,DANGER,m,,,,,,0.047777778,-0.371111111,0,0,0,,0,140,140,223,1,
,,,,,,,,,,,,,,,,,,5dd11ee349f6071aef4519bb,2020-08-10_16h26.27.559,lexical_decision_task_MP,2020.1.3,Win32,60,z,1,0.746,,,,,,,,0.746,1,,,,,,295,NW,UN,50,beinch,GLEATH,z,,,,,,0.047777778,-0.371111111,0,0,0,,0,141,141,474,1,
,,,,,,,,,,,,,,,,,,5dd11ee349f6071aef4519bb,2020-08-10_16h26.27.559,lexical_decision_task_MP,2020.1.3,Win32,60,m,1,0.585,,,,,,,,0.585,1,,,,,,93,WORD,"ID",33,public,PUBLIC,m,,,,,,0.047777778,-0.371111111,0,0,0,,0,142,142,32,1,
,,,,,,,,,,,,,,,,,,5dd11ee349f6071aef4519bb,2020-08-10_16h26.27.559,lexical_decision_task_MP,2020.1.3,Win32,60,z,1,0.722,,,,,,,,0.722,1,,,,,,356,NW,"ID",33,othnis,OTHNIS,z,,,,,,0.047777778,-0.371111111,0,0,0,,0,143,143,295,1,
,,,,,,,,,,,,,,,,,,5dd11ee349f6071aef4519bb,2020-08-10_16h26.27.559,lexical_decision_task_MP,2020.1.3,Win32,60,z,1,0.886,,,,,,,,0.886,1,,,,,,401,NW,"ID",50,mustil,MUSTIL,z,,,,,,0.047777778,-0.371111111,0,0,0,,0,144,144,340,1,
,,,,,,,,,,,,,,,,,,5dd11ee349f6071aef4519bb,2020-08-10_16h26.27.559,lexical_decision_task_MP,2020.1.3,Win32,60,m,1,0.769,,,,,,,,0.769,1,,,,,,9,WORD,UN,50,bridge,HUSTLE,m,,,,,,0.047777778,-0.371111111,0,0,0,,0,145,145,188,1,
,,,,,,,,,,,,,,,,,,5dd11ee349f6071aef4519bb,2020-08-10_16h26.27.559,lexical_decision_task_MP,2020.1.3,Win32,60,m,1,0.579,,,,,,,,0.579,1,,,,,,31,WORD,UN,50,buckle,WEAPON,m,,,,,,0.047777778,-0.371111111,0,0,0,,0,146,146,210,1,
,,,,,,,,,,,,,,,,,,5dd11ee349f6071aef4519bb,2020-08-10_16h26.27.559,lexical_decision_task_MP,2020.1.3,Win32,60,m,1,0.661,,,,,,,,0.661,1,,,,,,128,WORD,"ID",50,senior,SENIOR,m,,,,,,0.047777778,-0.371111111,0,0,0,,0,147,147,67,1,
,,,,,,,,,,,,,,,,,,5dd11ee349f6071aef4519bb,2020-08-10_16h26.27.559,lexical_decision_task_MP,2020.1.3,Win32,60,m,1,1.057,,,,,,,,1.057,1,,,,,,88,WORD,"ID",33,hunger,HUNGER,m,,,,,,0.047777778,-0.371111111,0,0,0,,0,148,148,27,1,
,,,,,,,,,,,,,,,,,,5dd11ee349f6071aef4519bb,2020-08-10_16h26.27.559,lexical_decision_task_MP,2020.1.3,Win32,60,m,1,0.864,,,,,,,,0.864,1,,,,,,71,WORD,"ID",33,garden,GARDEN,m,,,,,,0.047777778,-0.371111111,0,0,0,,0,149,149,10,1,
,,,,,,,,,,,,,,,,,,5dd11ee349f6071aef4519bb,2020-08-10_16h26.27.559,lexical_decision_task_MP,2020.1.3,Win32,60,z,1,1.029,,,,,,,,1.029,1,,,,,,471,NW,UN,33,cigney,NOBEST,z,,,,,,0.047777778,-0.371111111,0,0,0,,0,150,150,410,1,
,,,,,,,,,,,,,,,,,,5dd11ee349f6071aef4519bb,2020-08-10_16h26.27.559,lexical_decision_task_MP,2020.1.3,Win32,60,m,0,0.945,,,,,,,,0.945,0,,,,,,341,NW,"ID",33,myrtie,MYRTIE,z,,,,,,0.047777778,-0.371111111,0,0,0,,0,151,151,280,1,
,,,,,,,,,,,,,,,,,,5dd11ee349f6071aef4519bb,2020-08-10_16h26.27.559,lexical_decision_task_MP,2020.1.3,Win32,60,z,1,1.721,,,,,,,,1.721,1,,,,,,250,NW,UN,50,lupict,MILTED,z,,,,,,0.047777778,-0.371111111,0,0,0,,0,152,152,429,1,
,,,,,,,,,,,,,,,,,,5dd11ee349f6071aef4519bb,2020-08-10_16h26.27.559,lexical_decision_task_MP,2020.1.3,Win32,60,m,1,0.947,,,,,,,,0.947,1,,,,,,1,WORD,UN,50,ethnic,FRIGHT,m,,,,,,0.047777778,-0.371111111,0,0,0,,0,153,153,180,1,
,,,,,,,,,,,,,,,,,,5dd11ee349f6071aef4519bb,2020-08-10_16h26.27.559,lexical_decision_task_MP,2020.1.3,Win32,60,m,1,0.617,,,,,,,,0.617,1,,,,,,188,WORD,UN,33,censor,SOCIAL,m,,,,,,0.047777778,-0.371111111,0,0,0,,0,154,154,127,1,
,,,,,,,,,,,,,,,,,,5dd11ee349f6071aef4519bb,2020-08-10_16h26.27.559,lexical_decision_task_MP,2020.1.3,Win32,60,m,1,0.683,,,,,,,,0.683,1,,,,,,51,WORD,UN,50,impose,HUNGRY,m,,,,,,0.047777778,-0.371111111,0,0,0,,0,155,155,230,1,
,,,,,,,,,,,,,,,,,,5dd11ee349f6071aef4519bb,2020-08-10_16h26.27.559,lexical_decision_task_MP,2020.1.3,Win32,60,m,1,0.783,,,,,,,,0.783,1,,,,,,102,WORD,"ID",33,direct,DIRECT,m,,,,,,0.047777778,-0.371111111,0,0,0,,0,156,156,41,1,
,,,,,,,,,,,,,,,,,,5dd11ee349f6071aef4519bb,2020-08-10_16h26.27.559,lexical_decision_task_MP,2020.1.3,Win32,60,z,1,0.773,,,,,,,,0.773,1,,,,,,441,NW,UN,33,aboune,RASTOE,z,,,,,,0.047777778,-0.371111111,0,0,0,,0,157,157,380,1,
,,,,,,,,,,,,,,,,,,5dd11ee349f6071aef4519bb,2020-08-10_16h26.27.559,lexical_decision_task_MP,2020.1.3,Win32,60,z,1,0.738,,,,,,,,0.738,1,,,,,,435,NW,UN,33,frutan,IMPURB,z,,,,,,0.047777778,-0.371111111,0,0,0,,0,158,158,374,1,
,,,,,,,,,,,,,,,,,,5dd11ee349f6071aef4519bb,2020-08-10_16h26.27.559,lexical_decision_task_MP,2020.1.3,Win32,60,m,1,0.704,,,,,,,,0.704,1,,,,,,59,WORD,UN,50,pencil,SPLINT,m,,,,,,0.047777778,-0.371111111,0,0,0,,0,159,159,238,1,
,,,,,,,,,,,,,,,,,,5dd11ee349f6071aef4519bb,2020-08-10_16h26.27.559,lexical_decision_task_MP,2020.1.3,Win32,60,z,1,0.803,,,,,,,,0.803,1,,,,,,299,NW,UN,50,yarion,STURCH,z,,,,,,0.047777778,-0.371111111,0,0,0,,0,160,160,478,1,
,,,,,,,,,,,,,,,,,,5dd11ee349f6071aef4519bb,2020-08-10_16h26.27.559,lexical_decision_task_MP,2020.1.3,Win32,60,m,1,0.739,,,,,,,,0.739,1,,,,,,129,WORD,"ID",50,marvel,MARVEL,m,,,,,,0.047777778,-0.371111111,0,0,0,,0,161,161,68,1,
,,,,,,,,,,,,,,,,,,5dd11ee349f6071aef4519bb,2020-08-10_16h26.27.559,lexical_decision_task_MP,2020.1.3,Win32,60,m,1,0.694,,,,,,,,0.694,1,,,,,,4,WORD,UN,50,plunge,TRENCH,m,,,,,,0.047777778,-0.371111111,0,0,0,,0,162,162,183,1,
,,,,,,,,,,,,,,,,,,5dd11ee349f6071aef4519bb,2020-08-10_16h26.27.559,lexical_decision_task_MP,2020.1.3,Win32,60,z,1,0.979,,,,,,,,0.979,1,,,,,,344,NW,"ID",33,scrily,SCRILY,z,,,,,,0.047777778,-0.371111111,0,0,0,,0,163,163,283,1,
,,,,,,,,,,,,,,,,,,5dd11ee349f6071aef4519bb,2020-08-10_16h26.27.559,lexical_decision_task_MP,2020.1.3,Win32,60,m,1,0.751,,,,,,,,0.751,1,,,,,,189,WORD,UN,33,backup,CENSOR,m,,,,,,0.047777778,-0.371111111,0,0,0,,0,164,164,128,1,
,,,,,,,,,,,,,,,,,,5dd11ee349f6071aef4519bb,2020-08-10_16h26.27.559,lexical_decision_task_MP,2020.1.3,Win32,60,m,1,1.101,,,,,,,,1.101,1,,,,,,180,WORD,"ID",50,silent,SILENT,m,,,,,,0.047777778,-0.371111111,0,0,0,,0,165,165,119,1,
,,,,,,,,,,,,,,,,,,5dd11ee349f6071aef4519bb,2020-08-10_16h26.27.559,lexical_decision_task_MP,2020.1.3,Win32,60,m,1,0.847,,,,,,,,0.847,1,,,,,,235,WORD,UN,33,pirate,GRUMPY,m,,,,,,0.047777778,-0.371111111,0,0,0,,0,166,166,174,1,
,,,,,,,,,,,,,,,,,,5dd11ee349f6071aef4519bb,2020-08-10_16h26.27.559,lexical_decision_task_MP,2020.1.3,Win32,60,z,1,0.824,,,,,,,,0.824,1,,,,,,461,NW,UN,33,absult,JUSTRE,z,,,,,,0.047777778,-0.371111111,0,0,0,,0,167,167,400,1,
,,,,,,,,,,,,,,,,,,5dd11ee349f6071aef4519bb,2020-08-10_16h26.27.559,lexical_decision_task_MP,2020.1.3,Win32,60,m,1,0.649,,,,,,,,0.649,1,,,,,,60,WORD,UN,50,fright,PENCIL,m,,,,,,0.047777778,-0.371111111,0,0,0,,0,168,168,239,1,
,,,,,,,,,,,,,,,,,,5dd11ee349f6071aef4519bb,2020-08-10_16h26.27.559,lexical_decision_task_MP,2020.1.3,Win32,60,m,1,0.794,,,,,,,,0.794,1,,,,,,201,WORD,UN,33,factor,ADMIRE,m,,,,,,0.047777778,-0.371111111,0,0,0,,0,169,169,140,1,
,,,,,,,,,,,,,,,,,,5dd11ee349f6071aef4519bb,2020-08-10_16h26.27.559,lexical_decision_task_MP,2020.1.3,Win32,60,m,1,0.69,,,,,,,,0.69,1,,,,,,72,WORD,"ID",33,bright,BRIGHT,m,,,,,,0.047777778,-0.371111111,0,0,0,,0,170,170,11,1,
,,,,,,,,,,,,,,,,,,5dd11ee349f6071aef4519bb,2020-08-10_16h26.27.559,lexical_decision_task_MP,2020.1.3,Win32,60,m,1,0.935,,,,,,,,0.935,1,,,,,,233,WORD,UN,33,clumsy,NATURE,m,,,,,,0.047777778,-0.371111111,0,0,0,,0,171,171,172,1,
,,,,,,,,,,,,,,,,,,5dd11ee349f6071aef4519bb,2020-08-10_16h26.27.559,lexical_decision_task_MP,2020.1.3,Win32,60,m,1,0.784,,,,,,,,0.784,1,,,,,,151,WORD,"ID",50,mystic,MYSTIC,m,,,,,,0.047777778,-0.371111111,0,0,0,,0,172,172,90,1,
,,,,,,,,,,,,,,,,,,5dd11ee349f6071aef4519bb,2020-08-10_16h26.27.559,lexical_decision_task_MP,2020.1.3,Win32,60,z,1,0.612,,,,,,,,0.612,1,,,,,,254,NW,UN,50,apight,VAROSH,z,,,,,,0.047777778,-0.371111111,0,0,0,,0,173,173,433,1,
,,,,,,,,,,,,,,,,,,5dd11ee349f6071aef4519bb,2020-08-10_16h26.27.559,lexical_decision_task_MP,2020.1.3,Win32,60,z,0,0.707,,,,,,,,0.707,0,,,,,,16,WORD,UN,50,charge,FAUCET,m,,,,,,0.047777778,-0.371111111,0,0,0,,0,174,174,195,1,
,,,,,,,,,,,,,,,,,,5dd11ee349f6071aef4519bb,2020-08-10_16h26.27.559,lexical_decision_task_MP,2020.1.3,Win32,60,z,1,0.952,,,,,,,,0.952,1,,,,,,417,NW,"ID",50,earoud,EAROUD,z,,,,,,0.047777778,-0.371111111,0,0,0,,0,175,175,356,1,
,,,,,,,,,,,,,,,,,,5dd11ee349f6071aef4519bb,2020-08-10_16h26.27.559,lexical_decision_task_MP,2020.1.3,Win32,60,m,1,1.081,,,,,,,,1.081,1,,,,,,87,WORD,"ID",33,filter,FILTER,m,,,,,,0.047777778,-0.371111111,0,0,0,,0,176,176,26,1,
,,,,,,,,,,,,,,,,,,5dd11ee349f6071aef4519bb,2020-08-10_16h26.27.559,lexical_decision_task_MP,2020.1.3,Win32,60,m,1,0.623,,,,,,,,0.623,1,,,,,,23,WORD,UN,50,praise,WEALTH,m,,,,,,0.047777778,-0.371111111,0,0,0,,0,177,177,202,1,
,,,,,,,,,,,,,,,,,,5dd11ee349f6071aef4519bb,2020-08-10_16h26.27.559,lexical_decision_task_MP,2020.1.3,Win32,60,z,1,1.322,,,,,,,,1.322,1,,,,,,442,NW,UN,33,dorsex,ABOUNE,z,,,,,,0.047777778,-0.371111111,0,0,0,,0,178,178,381,1,
,,,,,,,,,,,,,,,,,,5dd11ee349f6071aef4519bb,2020-08-10_16h26.27.559,lexical_decision_task_MP,2020.1.3,Win32,60,m,1,0.776,,,,,,,,0.776,1,,,,,,227,WORD,UN,33,master,SELDOM,m,,,,,,0.047777778,-0.371111111,0,0,0,,0,179,179,166,1,
,,,,,,,,,,,,,,,,,,5dd11ee349f6071aef4519bb,2020-08-10_16h26.27.559,lexical_decision_task_MP,2020.1.3,Win32,60,m,1,0.761,,,,,,,,0.761,1,,,,,,46,WORD,UN,50,income,SINGLE,m,,,,,,0.047777778,-0.371111111,0,0,0,,0,180,180,225,1,
,,,,,,,,,,,,,,,,,,5dd11ee349f6071aef4519bb,2020-08-10_16h26.27.559,lexical_decision_task_MP,2020.1.3,Win32,60,z,1,0.822,,,,,,,,0.822,1,,,,,,457,NW,UN,33,barcet,WANIGH,z,,,,,,0.047777778,-0.371111111,0,0,0,,0,181,181,396,1,
,,,,,,,,,,,,,,,,,,5dd11ee349f6071aef4519bb,2020-08-10_16h26.27.559,lexical_decision_task_MP,2020.1.3,Win32,60,z,1,0.748,,,,,,,,0.748,1,,,,,,394,NW,"ID",50,spaqux,SPAQUX,z,,,,,,0.047777778,-0.371111111,0,0,0,,0,182,182,333,1,
,,,,,,,,,,,,,,,,,,5dd11ee349f6071aef4519bb,2020-08-10_16h26.27.559,lexical_decision_task_MP,2020.1.3,Win32,60,z,1,0.949,,,,,,,,0.949,1,,,,,,456,NW,UN,33,wanigh,BROGET,z,,,,,,0.047777778,-0.371111111,0,0,0,,0,183,183,395,1,
,,,,,,,,,,,,,,,,,,5dd11ee349f6071aef4519bb,2020-08-10_16h26.27.559,lexical_decision_task_MP,2020.1.3,Win32,60,m,1,0.711,,,,,,,,0.711,1,,,,,,215,WORD,UN,33,lumber,PHOBIA,m,,,,,,0.047777778,-0.371111111,0,0,0,,0,184,184,154,1,
,,,,,,,,,,,,,,,,,,5dd11ee349f6071aef4519bb,2020-08-10_16h26.27.559,lexical_decision_task_MP,2020.1.3,Win32,60,m,1,0.673,,,,,,,,0.673,1,,,,,,136,WORD,"ID",50,bleach,BLEACH,m,,,,,,0.047777778,-0.371111111,0,0,0,,0,185,185,75,1,
,,,,,,,,,,,,,,,,,,5dd11ee349f6071aef4519bb,2020-08-10_16h26.27.559,lexical_decision_task_MP,2020.1.3,Win32,60,z,1,1.043,,,,,,,,1.043,1,,,,,,458,NW,UN,33,hocite,BARCET,z,,,,,,0.047777778,-0.371111111,0,0,0,,0,186,186,397,1,
,,,,,,,,,,,,,,,,,,5dd11ee349f6071aef4519bb,2020-08-10_16h26.27.559,lexical_decision_task_MP,2020.1.3,Win32,60,m,1,0.869,,,,,,,,0.869,1,,,,,,206,WORD,UN,33,wreath,TAILOR,m,,,,,,0.047777778,-0.371111111,0,0,0,,0,187,187,145,1,
,,,,,,,,,,,,,,,,,,5dd11ee349f6071aef4519bb,2020-08-10_16h26.27.559,lexical_decision_task_MP,2020.1.3,Win32,60,z,1,0.932,,,,,,,,0.932,1,,,,,,449,NW,UN,33,phrect,BRUNGE,z,,,,,,0.047777778,-0.371111111,0,0,0,,0,188,188,388,1,
,,,,,,,,,,,,,,,,,,5dd11ee349f6071aef4519bb,2020-08-10_16h26.27.559,lexical_decision_task_MP,2020.1.3,Win32,60,z,1,0.703,,,,,,,,0.703,1,,,,,,376,NW,"ID",50,iguare,IGUARE,z,,,,,,0.047777778,-0.371111111,0,0,0,,0,189,189,315,1,
,,,,,,,,,,,,,,,,,,5dd11ee349f6071aef4519bb,2020-08-10_16h26.27.559,lexical_decision_task_MP,2020.1.3,Win32,60,z,1,0.763,,,,,,,,0.763,1,,,,,,309,NW,"ID",33,amiloy,AMILOY,z,,,,,,0.047777778,-0.371111111,0,0,0,,0,190,190,248,1,
,,,,,,,,,,,,,,,,,,5dd11ee349f6071aef4519bb,2020-08-10_16h26.27.559,lexical_decision_task_MP,2020.1.3,Win32,60,z,1,0.703,,,,,,,,0.703,1,,,,,,241,NW,UN,50,unwert,SMENCO,z,,,,,,0.047777778,-0.371111111,0,0,0,,0,191,191,420,1,
,,,,,,,,,,,,,,,,,,5dd11ee349f6071aef4519bb,2020-08-10_16h26.27.559,lexical_decision_task_MP,2020.1.3,Win32,60,m,1,0.617,,,,,,,,0.617,1,,,,,,63,WORD,"ID",33,launch,LAUNCH,m,,,,,,0.047777778,-0.371111111,0,0,0,,0,192,192,2,1,
,,,,,,,,,,,,,,,,,,5dd11ee349f6071aef4519bb,2020-08-10_16h26.27.559,lexical_decision_task_MP,2020.1.3,Win32,60,m,1,0.721,,,,,,,,0.721,1,,,,,,205,WORD,UN,33,tailor,LOUNGE,m,,,,,,0.047777778,-0.371111111,0,0,0,,0,193,193,144,1,
,,,,,,,,,,,,,,,,,,5dd11ee349f6071aef4519bb,2020-08-10_16h26.27.559,lexical_decision_task_MP,2020.1.3,Win32,60,m,1,0.646,,,,,,,,0.646,1,,,,,,41,WORD,UN,50,chapel,SPRING,m,,,,,,0.047777778,-0.371111111,0,0,0,,0,194,194,220,1,
,,,,,,,,,,,,,,,,,,5dd11ee349f6071aef4519bb,2020-08-10_16h26.27.559,lexical_decision_task_MP,2020.1.3,Win32,60,z,1,0.732,,,,,,,,0.732,1,,,,,,334,NW,"ID",33,watmeg,WATMEG,z,,,,,,0.047777778,-0.371111111,0,0,0,,0,195,195,273,1,
,,,,,,,,,,,,,,,,,,5dd11ee349f6071aef4519bb,2020-08-10_16h26.27.559,lexical_decision_task_MP,2020.1.3,Win32,60,m,1,0.696,,,,,,,,0.696,1,,,,,,239,WORD,UN,33,forest,LUMBER,m,,,,,,0.047777778,-0.371111111,0,0,0,,0,196,196,178,1,
,,,,,,,,,,,,,,,,,,5dd11ee349f6071aef4519bb,2020-08-10_16h26.27.559,lexical_decision_task_MP,2020.1.3,Win32,60,z,1,0.854,,,,,,,,0.854,1,,,,,,350,NW,"ID",33,nagurs,NAGURS,z,,,,,,0.047777778,-0.371111111,0,0,0,,0,197,197,289,1,
,,,,,,,,,,,,,,,,,,5dd11ee349f6071aef4519bb,2020-08-10_16h26.27.559,lexical_decision_task_MP,2020.1.3,Win32,60,m,1,0.77,,,,,,,,0.77,1,,,,,,50,WORD,UN,50,hungry,SNATCH,m,,,,,,0.047777778,-0.371111111,0,0,0,,0,198,198,229,1,
,,,,,,,,,,,,,,,,,,5dd11ee349f6071aef4519bb,2020-08-10_16h26.27.559,lexical_decision_task_MP,2020.1.3,Win32,60,z,1,0.762,,,,,,,,0.762,1,,,,,,324,NW,"ID",33,steikh,STEIKH,z,,,,,,0.047777778,-0.371111111,0,0,0,,0,199,199,263,1,
,,,,,,,,,,,,,,,,,,5dd11ee349f6071aef4519bb,2020-08-10_16h26.27.559,lexical_decision_task_MP,2020.1.3,Win32,60,z,1,0.697,,,,,,,,0.697,1,,,,,,402,NW,"ID",50,syntic,SYNTIC,z,,,,,,0.047777778,-0.371111111,0,0,0,,0,200,200,341,1,
,,,,,,,,,,,,,,,,,,5dd11ee349f6071aef4519bb,2020-08-10_16h26.27.559,lexical_decision_task_MP,2020.1.3,Win32,60,z,1,0.911,,,,,,,,0.911,1,,,,,,369,NW,"ID",50,wronch,WRONCH,z,,,,,,0.047777778,-0.371111111,0,0,0,,0,201,201,308,1,
,,,,,,,,,,,,,,,,,,5dd11ee349f6071aef4519bb,2020-08-10_16h26.27.559,lexical_decision_task_MP,2020.1.3,Win32,60,z,1,0.831,,,,,,,,0.831,1,,,,,,314,NW,"ID",33,sprine,SPRINE,z,,,,,,0.047777778,-0.371111111,0,0,0,,0,202,202,253,1,
,,,,,,,,,,,,,,,,,,5dd11ee349f6071aef4519bb,2020-08-10_16h26.27.559,lexical_decision_task_MP,2020.1.3,Win32,60,z,1,0.761,,,,,,,,0.761,1,,,,,,342,NW,"ID",33,randow,RANDOW,z,,,,,,0.047777778,-0.371111111,0,0,0,,0,203,203,281,1,
,,,,,,,,,,,,,,,,,,5dd11ee349f6071aef4519bb,2020-08-10_16h26.27.559,lexical_decision_task_MP,2020.1.3,Win32,60,z,1,0.874,,,,,,,,0.874,1,,,,,,323,NW,"ID",33,rosail,ROSAIL,z,,,,,,0.047777778,-0.371111111,0,0,0,,0,204,204,262,1,
,,,,,,,,,,,,,,,,,,5dd11ee349f6071aef4519bb,2020-08-10_16h26.27.559,lexical_decision_task_MP,2020.1.3,Win32,60,z,1,0.971,,,,,,,,0.971,1,,,,,,383,NW,"ID",50,aungre,AUNGRE,z,,,,,,0.047777778,-0.371111111,0,0,0,,0,205,205,322,1,
,,,,,,,,,,,,,,,,,,5dd11ee349f6071aef4519bb,2020-08-10_16h26.27.559,lexical_decision_task_MP,2020.1.3,Win32,60,z,1,0.806,,,,,,,,0.806,1,,,,,,267,NW,UN,50,packes,PASINK,z,,,,,,0.047777778,-0.371111111,0,0,0,,0,206,206,446,1,
,,,,,,,,,,,,,,,,,,5dd11ee349f6071aef4519bb,2020-08-10_16h26.27.559,lexical_decision_task_MP,2020.1.3,Win32,60,z,1,0.653,,,,,,,,0.653,1,,,,,,472,NW,UN,33,gorbie,CIGNEY,z,,,,,,0.047777778,-0.371111111,0,0,0,,0,207,207,411,1,
,,,,,,,,,,,,,,,,,,5dd11ee349f6071aef4519bb,2020-08-10_16h26.27.559,lexical_decision_task_MP,2020.1.3,Win32,60,z,1,0.701,,,,,,,,0.701,1,,,,,,248,NW,UN,50,batrol,STROLE,z,,,,,,0.047777778,-0.371111111,0,0,0,,0,208,208,427,1,
,,,,,,,,,,,,,,,,,,5dd11ee349f6071aef4519bb,2020-08-10_16h26.27.559,lexical_decision_task_MP,2020.1.3,Win32,60,z,1,1.238,,,,,,,,1.238,1,,,,,,296,NW,UN,50,fertic,BEINCH,z,,,,,,0.047777778,-0.371111111,0,0,0,,0,209,209,475,1,
,,,,,,,,,,,,,,,,,,5dd11ee349f6071aef4519bb,2020-08-10_16h26.27.559,lexical_decision_task_MP,2020.1.3,Win32,60,,0,,,,,,,,,1.238,-1,,,,,,8,WORD,UN,50,hustle,ABRUPT,m,,,,,,0.047777778,-0.371111111,0,0,0,,0,210,210,187,1,
,,,,,,,,,,,,,,,,,,5dd11ee349f6071aef4519bb,2020-08-10_16h26.27.559,lexical_decision_task_MP,2020.1.3,Win32,60,z,1,0.69,,,,,,,,0.69,1,,,,,,436,NW,UN,33,snapel,FRUTAN,z,,,,,,0.047777778,-0.371111111,0,0,0,,0,211,211,375,1,
,,,,,,,,,,,,,,,,,,5dd11ee349f6071aef4519bb,2020-08-10_16h26.27.559,lexical_decision_task_MP,2020.1.3,Win32,60,z,1,0.668,,,,,,,,0.668,1,,,,,,289,NW,UN,50,splino,STARBY,z,,,,,,0.047777778,-0.371111111,0,0,0,,0,212,212,468,1,
,,,,,,,,,,,,,,,,,,5dd11ee349f6071aef4519bb,2020-08-10_16h26.27.559,lexical_decision_task_MP,2020.1.3,Win32,60,m,1,0.606,,,,,,,,0.606,1,,,,,,159,WORD,"ID",50,detail,DETAIL,m,,,,,,0.047777778,-0.371111111,0,0,0,,0,213,213,98,1,
,,,,,,,,,,,,,,,,,,5dd11ee349f6071aef4519bb,2020-08-10_16h26.27.559,lexical_decision_task_MP,2020.1.3,Win32,60,z,1,0.863,,,,,,,,0.863,1,,,,,,286,NW,UN,50,nymbel,RELDON,z,,,,,,0.047777778,-0.371111111,0,0,0,,0,214,214,465,1,
,,,,,,,,,,,,,,,,,,5dd11ee349f6071aef4519bb,2020-08-10_16h26.27.559,lexical_decision_task_MP,2020.1.3,Win32,60,z,1,0.792,,,,,,,,0.792,1,,,,,,426,NW,UN,33,schind,URIVEL,z,,,,,,0.047777778,-0.371111111,0,0,0,,0,215,215,365,1,
,,,,,,,,,,,,,,,,,,5dd11ee349f6071aef4519bb,2020-08-10_16h26.27.559,lexical_decision_task_MP,2020.1.3,Win32,60,m,1,0.586,,,,,,,,0.586,1,,,,,,28,WORD,UN,50,sketch,COMEDY,m,,,,,,0.047777778,-0.371111111,0,0,0,,0,216,216,207,1,
,,,,,,,,,,,,,,,,,,5dd11ee349f6071aef4519bb,2020-08-10_16h26.27.559,lexical_decision_task_MP,2020.1.3,Win32,60,z,1,0.633,,,,,,,,0.633,1,,,,,,301,NW,"ID",33,fainch,FAINCH,z,,,,,,0.047777778,-0.371111111,0,0,0,,0,217,217,240,1,
,,,,,,,,,,,,,,,,,,5dd11ee349f6071aef4519bb,2020-08-10_16h26.27.559,lexical_decision_task_MP,2020.1.3,Win32,60,m,1,0.579,,,,,,,,0.579,1,,,,,,152,WORD,"ID",50,rocket,ROCKET,m,,,,,,0.047777778,-0.371111111,0,0,0,,0,218,218,91,1,
,,,,,,,,,,,,,,,,,,5dd11ee349f6071aef4519bb,2020-08-10_16h26.27.559,lexical_decision_task_MP,2020.1.3,Win32,60,z,1,0.62,,,,,,,,0.62,1,,,,,,257,NW,UN,50,poluth,VENIOD,z,,,,,,0.047777778,-0.371111111,0,0,0,,0,219,219,436,1,
,,,,,,,,,,,,,,,,,,5dd11ee349f6071aef4519bb,2020-08-10_16h26.27.559,lexical_decision_task_MP,2020.1.3,Win32,60,m,1,0.616,,,,,,,,0.616,1,,,,,,147,WORD,"ID",50,garlic,GARLIC,m,,,,,,0.047777778,-0.371111111,0,0,0,,0,220,220,86,1,
,,,,,,,,,,,,,,,,,,5dd11ee349f6071aef4519bb,2020-08-10_16h26.27.559,lexical_decision_task_MP,2020.1.3,Win32,60,z,1,0.754,,,,,,,,0.754,1,,,,,,423,NW,UN,33,praile,STRELD,z,,,,,,0.047777778,-0.371111111,0,0,0,,0,221,221,362,1,
,,,,,,,,,,,,,,,,,,5dd11ee349f6071aef4519bb,2020-08-10_16h26.27.559,lexical_decision_task_MP,2020.1.3,Win32,60,z,1,0.671,,,,,,,,0.671,1,,,,,,291,NW,UN,50,ablint,PRETCH,z,,,,,,0.047777778,-0.371111111,0,0,0,,0,222,222,470,1,
,,,,,,,,,,,,,,,,,,5dd11ee349f6071aef4519bb,2020-08-10_16h26.27.559,lexical_decision_task_MP,2020.1.3,Win32,60,m,1,0.74,,,,,,,,0.74,1,,,,,,163,WORD,"ID",50,string,STRING,m,,,,,,0.047777778,-0.371111111,0,0,0,,0,223,223,102,1,
,,,,,,,,,,,,,,,,,,5dd11ee349f6071aef4519bb,2020-08-10_16h26.27.559,lexical_decision_task_MP,2020.1.3,Win32,60,z,1,0.977,,,,,,,,0.977,1,,,,,,319,NW,"ID",33,zomber,ZOMBER,z,,,,,,0.047777778,-0.371111111,0,0,0,,0,224,224,258,1,
,,,,,,,,,,,,,,,,,,5dd11ee349f6071aef4519bb,2020-08-10_16h26.27.559,lexical_decision_task_MP,2020.1.3,Win32,60,m,1,0.701,,,,,,,,0.701,1,,,,,,197,WORD,UN,33,wicked,STREAM,m,,,,,,0.047777778,-0.371111111,0,0,0,,0,225,225,136,1,
,,,,,,,,,,,,,,,,,,5dd11ee349f6071aef4519bb,2020-08-10_16h26.27.559,lexical_decision_task_MP,2020.1.3,Win32,60,z,1,0.68,,,,,,,,0.68,1,,,,,,358,NW,"ID",33,fleack,FLEACK,z,,,,,,0.047777778,-0.371111111,0,0,0,,0,226,226,297,1,
,,,,,,,,,,,,,,,,,,5dd11ee349f6071aef4519bb,2020-08-10_16h26.27.559,lexical_decision_task_MP,2020.1.3,Win32,60,z,1,0.733,,,,,,,,0.733,1,,,,,,255,NW,UN,50,inlors,APIGHT,z,,,,,,0.047777778,-0.371111111,0,0,0,,0,227,227,434,1,
,,,,,,,,,,,,,,,,,,5dd11ee349f6071aef4519bb,2020-08-10_16h26.27.559,lexical_decision_task_MP,2020.1.3,Win32,60,z,1,0.688,,,,,,,,0.688,1,,,,,,308,NW,"ID",33,psetch,PSETCH,z,,,,,,0.047777778,-0.371111111,0,0,0,,0,228,228,247,1,
,,,,,,,,,,,,,,,,,,5dd11ee349f6071aef4519bb,2020-08-10_16h26.27.559,lexical_decision_task_MP,2020.1.3,Win32,60,m,1,0.904,,,,,,,,0.904,1,,,,,,199,WORD,UN,33,plague,INVOKE,m,,,,,,0.047777778,-0.371111111,0,0,0,,0,229,229,138,1,
,,,,,,,,,,,,,,,,,,5dd11ee349f6071aef4519bb,2020-08-10_16h26.27.559,lexical_decision_task_MP,2020.1.3,Win32,60,z,1,0.767,,,,,,,,0.767,1,,,,,,466,NW,UN,33,robuly,HOCITE,z,,,,,,0.047777778,-0.371111111,0,0,0,,0,230,230,405,1,
,,,,,,,,,,,,,,,,,,5dd11ee349f6071aef4519bb,2020-08-10_16h26.27.559,lexical_decision_task_MP,2020.1.3,Win32,60,z,1,0.649,,,,,,,,0.649,1,,,,,,406,NW,"ID",50,nouply,NOUPLY,z,,,,,,0.047777778,-0.371111111,0,0,0,,0,231,231,345,1,
,,,,,,,,,,,,,,,,,,5dd11ee349f6071aef4519bb,2020-08-10_16h26.27.559,lexical_decision_task_MP,2020.1.3,Win32,60,m,1,0.686,,,,,,,,0.686,1,,,,,,155,WORD,"ID",50,lizard,LIZARD,m,,,,,,0.047777778,-0.371111111,0,0,0,,0,232,232,94,1,
,,,,,,,,,,,,,,,,,,5dd11ee349f6071aef4519bb,2020-08-10_16h26.27.559,lexical_decision_task_MP,2020.1.3,Win32,60,z,1,0.709,,,,,,,,0.709,1,,,,,,412,NW,"ID",50,jiluer,JILUER,z,,,,,,0.047777778,-0.371111111,0,0,0,,0,233,233,351,1,
,,,,,,,,,,,,,,,,,,5dd11ee349f6071aef4519bb,2020-08-10_16h26.27.559,lexical_decision_task_MP,2020.1.3,Win32,60,m,1,0.898,,,,,,,,0.898,1,,,,,,5,WORD,UN,50,bundle,PLUNGE,m,,,,,,0.047777778,-0.371111111,0,0,0,,0,234,234,184,1,
,,,,,,,,,,,,,,,,,,5dd11ee349f6071aef4519bb,2020-08-10_16h26.27.559,lexical_decision_task_MP,2020.1.3,Win32,60,z,0,0.712,,,,,,,,0.712,0,,,,,,111,WORD,"ID",33,induce,INDUCE,m,,,,,,0.047777778,-0.371111111,0,0,0,,0,235,235,50,1,
,,,,,,,,,,,,,,,,,,5dd11ee349f6071aef4519bb,2020-08-10_16h26.27.559,lexical_decision_task_MP,2020.1.3,Win32,60,z,1,0.868,,,,,,,,0.868,1,,,,,,396,NW,"ID",50,flengy,FLENGY,z,,,,,,0.047777778,-0.371111111,0,0,0,,0,236,236,335,1,
,,,,,,,,,,,,,,,,,,5dd11ee349f6071aef4519bb,2020-08-10_16h26.27.559,lexical_decision_task_MP,2020.1.3,Win32,60,z,1,1.064,,,,,,,,1.064,1,,,,,,305,NW,"ID",33,forgle,FORGLE,z,,,,,,0.047777778,-0.371111111,0,0,0,,0,237,237,244,1,
,,,,,,,,,,,,,,,,,,5dd11ee349f6071aef4519bb,2020-08-10_16h26.27.559,lexical_decision_task_MP,2020.1.3,Win32,60,z,1,0.604,,,,,,,,0.604,1,,,,,,478,NW,UN,33,pebric,ACRISE,z,,,,,,0.047777778,-0.371111111,0,0,0,,0,238,238,417,1,
,,,,,,,,,,,,,,,,,,5dd11ee349f6071aef4519bb,2020-08-10_16h26.27.559,lexical_decision_task_MP,2020.1.3,Win32,60,m,1,0.669,,,,,,,,0.669,1,,,,,,11,WORD,UN,50,amount,CRUISE,m,,,,,,0.047777778,-0.371111111,0,0,0,,0,239,239,190,1,
,,,,,,,,,,,,,,,,,,5dd11ee349f6071aef4519bb,2020-08-10_16h26.27.559,lexical_decision_task_MP,2020.1.3,Win32,60,z,1,0.681,,,,,,,,0.681,1,,,,,,416,NW,"ID",50,pathel,PATHEL,z,,,,,,0.047777778,-0.371111111,0,0,0,,0,240,240,355,1,
,,,,,,,,,,,,,,,,,,5dd11ee349f6071aef4519bb,2020-08-10_16h26.27.559,lexical_decision_task_MP,2020.1.3,Win32,60,m,1,0.749,,,,,,,,0.749,1,,,,,,126,WORD,"ID",50,enough,ENOUGH,m,,,,,,0.047777778,-0.371111111,0,0,0,space,0,241,241,65,1,4.562
,,,,,,,,,,,,,,,,,,5dd11ee349f6071aef4519bb,2020-08-10_16h26.27.559,lexical_decision_task_MP,2020.1.3,Win32,60,m,1,0.733,,,,,,,,0.733,1,,,,,,223,WORD,UN,33,period,KIDNEY,m,,,,,,0.047777778,-0.371111111,0,0,0,,0,242,242,162,1,
,,,,,,,,,,,,,,,,,,5dd11ee349f6071aef4519bb,2020-08-10_16h26.27.559,lexical_decision_task_MP,2020.1.3,Win32,60,m,1,0.599,,,,,,,,0.599,1,,,,,,134,WORD,"ID",50,staple,STAPLE,m,,,,,,0.047777778,-0.371111111,0,0,0,,0,243,243,73,1,
,,,,,,,,,,,,,,,,,,5dd11ee349f6071aef4519bb,2020-08-10_16h26.27.559,lexical_decision_task_MP,2020.1.3,Win32,60,m,1,0.622,,,,,,,,0.622,1,,,,,,231,WORD,UN,33,inject,EXPORT,m,,,,,,0.047777778,-0.371111111,0,0,0,,0,244,244,170,1,
,,,,,,,,,,,,,,,,,,5dd11ee349f6071aef4519bb,2020-08-10_16h26.27.559,lexical_decision_task_MP,2020.1.3,Win32,60,m,1,0.57,,,,,,,,0.57,1,,,,,,43,WORD,UN,50,foster,TONGUE,m,,,,,,0.047777778,-0.371111111,0,0,0,,0,245,245,222,1,
,,,,,,,,,,,,,,,,,,5dd11ee349f6071aef4519bb,2020-08-10_16h26.27.559,lexical_decision_task_MP,2020.1.3,Win32,60,z,1,0.67,,,,,,,,0.67,1,,,,,,265,NW,UN,50,varmit,DISTAR,z,,,,,,0.047777778,-0.371111111,0,0,0,,0,246,246,444,1,
,,,,,,,,,,,,,,,,,,5dd11ee349f6071aef4519bb,2020-08-10_16h26.27.559,lexical_decision_task_MP,2020.1.3,Win32,60,z,1,0.885,,,,,,,,0.885,1,,,,,,332,NW,"ID",33,vangue,VANGUE,z,,,,,,0.047777778,-0.371111111,0,0,0,,0,247,247,271,1,
,,,,,,,,,,,,,,,,,,5dd11ee349f6071aef4519bb,2020-08-10_16h26.27.559,lexical_decision_task_MP,2020.1.3,Win32,60,z,0,0.883,,,,,,,,0.883,0,,,,,,212,WORD,UN,33,squeal,VERIFY,m,,,,,,0.047777778,-0.371111111,0,0,0,,0,248,248,151,1,
,,,,,,,,,,,,,,,,,,5dd11ee349f6071aef4519bb,2020-08-10_16h26.27.559,lexical_decision_task_MP,2020.1.3,Win32,60,z,1,0.791,,,,,,,,0.791,1,,,,,,251,NW,UN,50,stapod,LUPICT,z,,,,,,0.047777778,-0.371111111,0,0,0,,0,249,249,430,1,
,,,,,,,,,,,,,,,,,,5dd11ee349f6071aef4519bb,2020-08-10_16h26.27.559,lexical_decision_task_MP,2020.1.3,Win32,60,z,1,0.862,,,,,,,,0.862,1,,,,,,263,NW,UN,50,vackel,DOLICA,z,,,,,,0.047777778,-0.371111111,0,0,0,,0,250,250,442,1,
,,,,,,,,,,,,,,,,,,5dd11ee349f6071aef4519bb,2020-08-10_16h26.27.559,lexical_decision_task_MP,2020.1.3,Win32,60,m,0,0.769,,,,,,,,0.769,0,,,,,,345,NW,"ID",33,absend,ABSEND,z,,,,,,0.047777778,-0.371111111,0,0,0,,0,251,251,284,1,
,,,,,,,,,,,,,,,,,,5dd11ee349f6071aef4519bb,2020-08-10_16h26.27.559,lexical_decision_task_MP,2020.1.3,Win32,60,z,1,1.215,,,,,,,,1.215,1,,,,,,398,NW,"ID",50,blunde,BLUNDE,z,,,,,,0.047777778,-0.371111111,0,0,0,,0,252,252,337,1,
,,,,,,,,,,,,,,,,,,5dd11ee349f6071aef4519bb,2020-08-10_16h26.27.559,lexical_decision_task_MP,2020.1.3,Win32,60,z,1,0.688,,,,,,,,0.688,1,,,,,,292,NW,UN,50,swance,ABLINT,z,,,,,,0.047777778,-0.371111111,0,0,0,,0,253,253,471,1,
,,,,,,,,,,,,,,,,,,5dd11ee349f6071aef4519bb,2020-08-10_16h26.27.559,lexical_decision_task_MP,2020.1.3,Win32,60,z,1,0.714,,,,,,,,0.714,1,,,,,,361,NW,"ID",50,pauche,PAUCHE,z,,,,,,0.047777778,-0.371111111,0,0,0,,0,254,254,300,1,
,,,,,,,,,,,,,,,,,,5dd11ee349f6071aef4519bb,2020-08-10_16h26.27.559,lexical_decision_task_MP,2020.1.3,Win32,60,z,1,0.7,,,,,,,,0.7,1,,,,,,283,NW,UN,50,shaple,VERALF,z,,,,,,0.047777778,-0.371111111,0,0,0,,0,255,255,462,1,
,,,,,,,,,,,,,,,,,,5dd11ee349f6071aef4519bb,2020-08-10_16h26.27.559,lexical_decision_task_MP,2020.1.3,Win32,60,z,1,0.79,,,,,,,,0.79,1,,,,,,320,NW,"ID",33,jockal,JOCKAL,z,,,,,,0.047777778,-0.371111111,0,0,0,,0,256,256,259,1,
,,,,,,,,,,,,,,,,,,5dd11ee349f6071aef4519bb,2020-08-10_16h26.27.559,lexical_decision_task_MP,2020.1.3,Win32,60,z,1,1.214,,,,,,,,1.214,1,,,,,,454,NW,UN,33,tondle,SCOUGE,z,,,,,,0.047777778,-0.371111111,0,0,0,,0,257,257,393,1,
,,,,,,,,,,,,,,,,,,5dd11ee349f6071aef4519bb,2020-08-10_16h26.27.559,lexical_decision_task_MP,2020.1.3,Win32,60,z,1,0.641,,,,,,,,0.641,1,,,,,,270,NW,UN,50,aubrid,WRIMSY,z,,,,,,0.047777778,-0.371111111,0,0,0,,0,258,258,449,1,
,,,,,,,,,,,,,,,,,,5dd11ee349f6071aef4519bb,2020-08-10_16h26.27.559,lexical_decision_task_MP,2020.1.3,Win32,60,z,1,0.623,,,,,,,,0.623,1,,,,,,371,NW,"ID",50,geiloy,GEILOY,z,,,,,,0.047777778,-0.371111111,0,0,0,,0,259,259,310,1,
,,,,,,,,,,,,,,,,,,5dd11ee349f6071aef4519bb,2020-08-10_16h26.27.559,lexical_decision_task_MP,2020.1.3,Win32,60,m,1,0.885,,,,,,,,0.885,1,,,,,,114,WORD,"ID",33,placid,PLACID,m,,,,,,0.047777778,-0.371111111,0,0,0,,0,260,260,53,1,
,,,,,,,,,,,,,,,,,,5dd11ee349f6071aef4519bb,2020-08-10_16h26.27.559,lexical_decision_task_MP,2020.1.3,Win32,60,z,1,1.068,,,,,,,,1.068,1,,,,,,364,NW,"ID",50,impote,IMPOTE,z,,,,,,0.047777778,-0.371111111,0,0,0,,0,261,261,303,1,
,,,,,,,,,,,,,,,,,,5dd11ee349f6071aef4519bb,2020-08-10_16h26.27.559,lexical_decision_task_MP,2020.1.3,Win32,60,z,1,1.186,,,,,,,,1.186,1,,,,,,425,NW,UN,33,urivel,FRUDGE,z,,,,,,0.047777778,-0.371111111,0,0,0,,0,262,262,364,1,
,,,,,,,,,,,,,,,,,,5dd11ee349f6071aef4519bb,2020-08-10_16h26.27.559,lexical_decision_task_MP,2020.1.3,Win32,60,z,1,1.113,,,,,,,,1.113,1,,,,,,242,NW,UN,50,musied,UNWERT,z,,,,,,0.047777778,-0.371111111,0,0,0,,0,263,263,421,1,
,,,,,,,,,,,,,,,,,,5dd11ee349f6071aef4519bb,2020-08-10_16h26.27.559,lexical_decision_task_MP,2020.1.3,Win32,60,m,0,1.222,,,,,,,,1.222,0,,,,,,413,NW,"ID",50,equats,EQUATS,z,,,,,,0.047777778,-0.371111111,0,0,0,,0,264,264,352,1,
,,,,,,,,,,,,,,,,,,5dd11ee349f6071aef4519bb,2020-08-10_16h26.27.559,lexical_decision_task_MP,2020.1.3,Win32,60,z,1,0.697,,,,,,,,0.697,1,,,,,,269,NW,UN,50,wrimsy,ORCHET,z,,,,,,0.047777778,-0.371111111,0,0,0,,0,265,265,448,1,
,,,,,,,,,,,,,,,,,,5dd11ee349f6071aef4519bb,2020-08-10_16h26.27.559,lexical_decision_task_MP,2020.1.3,Win32,60,m,1,0.838,,,,,,,,0.838,1,,,,,,66,WORD,"ID",33,gospel,GOSPEL,m,,,,,,0.047777778,-0.371111111,0,0,0,,0,266,266,5,1,
,,,,,,,,,,,,,,,,,,5dd11ee349f6071aef4519bb,2020-08-10_16h26.27.559,lexical_decision_task_MP,2020.1.3,Win32,60,m,1,0.763,,,,,,,,0.763,1,,,,,,125,WORD,"ID",50,nickel,NICKEL,m,,,,,,0.047777778,-0.371111111,0,0,0,,0,267,267,64,1,
,,,,,,,,,,,,,,,,,,5dd11ee349f6071aef4519bb,2020-08-10_16h26.27.559,lexical_decision_task_MP,2020.1.3,Win32,60,m,1,0.789,,,,,,,,0.789,1,,,,,,2,WORD,UN,50,knight,BRIDGE,m,,,,,,0.047777778,-0.371111111,0,0,0,,0,268,268,181,1,
,,,,,,,,,,,,,,,,,,5dd11ee349f6071aef4519bb,2020-08-10_16h26.27.559,lexical_decision_task_MP,2020.1.3,Win32,60,z,1,0.789,,,,,,,,0.789,1,,,,,,336,NW,"ID",33,ghodus,GHODUS,z,,,,,,0.047777778,-0.371111111,0,0,0,,0,269,269,275,1,
,,,,,,,,,,,,,,,,,,5dd11ee349f6071aef4519bb,2020-08-10_16h26.27.559,lexical_decision_task_MP,2020.1.3,Win32,60,z,1,0.792,,,,,,,,0.792,1,,,,,,347,NW,"ID",33,kerift,KERIFT,z,,,,,,0.047777778,-0.371111111,0,0,0,,0,270,270,286,1,
,,,,,,,,,,,,,,,,,,5dd11ee349f6071aef4519bb,2020-08-10_16h26.27.559,lexical_decision_task_MP,2020.1.3,Win32,60,m,1,0.95,,,,,,,,0.95,1,,,,,,162,WORD,"ID",50,candle,CANDLE,m,,,,,,0.047777778,-0.371111111,0,0,0,,0,271,271,101,1,
,,,,,,,,,,,,,,,,,,5dd11ee349f6071aef4519bb,2020-08-10_16h26.27.559,lexical_decision_task_MP,2020.1.3,Win32,60,z,1,1.287,,,,,,,,1.287,1,,,,,,437,NW,UN,33,baitch,SNAPEL,z,,,,,,0.047777778,-0.371111111,0,0,0,,0,272,272,376,1,
,,,,,,,,,,,,,,,,,,5dd11ee349f6071aef4519bb,2020-08-10_16h26.27.559,lexical_decision_task_MP,2020.1.3,Win32,60,m,0,1.526,,,,,,,,1.526,0,,,,,,303,NW,"ID",33,fiream,FIREAM,z,,,,,,0.047777778,-0.371111111,0,0,0,,0,273,273,242,1,
,,,,,,,,,,,,,,,,,,5dd11ee349f6071aef4519bb,2020-08-10_16h26.27.559,lexical_decision_task_MP,2020.1.3,Win32,60,m,1,0.995,,,,,,,,0.995,1,,,,,,176,WORD,"ID",50,strife,STRIFE,m,,,,,,0.047777778,-0.371111111,0,0,0,,0,274,274,115,1,
,,,,,,,,,,,,,,,,,,5dd11ee349f6071aef4519bb,2020-08-10_16h26.27.559,lexical_decision_task_MP,2020.1.3,Win32,60,m,1,0.817,,,,,,,,0.817,1,,,,,,211,WORD,UN,33,verify,INFECT,m,,,,,,0.047777778,-0.371111111,0,0,0,,0,275,275,150,1,
,,,,,,,,,,,,,,,,,,5dd11ee349f6071aef4519bb,2020-08-10_16h26.27.559,lexical_decision_task_MP,2020.1.3,Win32,60,m,1,1.52,,,,,,,,1.52,1,,,,,,106,WORD,"ID",33,ransom,RANSOM,m,,,,,,0.047777778,-0.371111111,0,0,0,,0,276,276,45,1,
,,,,,,,,,,,,,,,,,,5dd11ee349f6071aef4519bb,2020-08-10_16h26.27.559,lexical_decision_task_MP,2020.1.3,Win32,60,m,1,1.325,,,,,,,,1.325,1,,,,,,45,WORD,UN,50,single,CLERGY,m,,,,,,0.047777778,-0.371111111,0,0,0,,0,277,277,224,1,
,,,,,,,,,,,,,,,,,,5dd11ee349f6071aef4519bb,2020-08-10_16h26.27.559,lexical_decision_task_MP,2020.1.3,Win32,60,z,1,1.604,,,,,,,,1.604,1,,,,,,363,NW,"ID",50,breali,BREALI,z,,,,,,0.047777778,-0.371111111,0,0,0,,0,278,278,302,1,
,,,,,,,,,,,,,,,,,,5dd11ee349f6071aef4519bb,2020-08-10_16h26.27.559,lexical_decision_task_MP,2020.1.3,Win32,60,z,1,1.201,,,,,,,,1.201,1,,,,,,446,NW,UN,33,gircue,RUNAMO,z,,,,,,0.047777778,-0.371111111,0,0,0,,0,279,279,385,1,
,,,,,,,,,,,,,,,,,,5dd11ee349f6071aef4519bb,2020-08-10_16h26.27.559,lexical_decision_task_MP,2020.1.3,Win32,60,m,1,0.76,,,,,,,,0.76,1,,,,,,193,WORD,UN,33,mildew,OBJECT,m,,,,,,0.047777778,-0.371111111,0,0,0,,0,280,280,132,1,
,,,,,,,,,,,,,,,,,,5dd11ee349f6071aef4519bb,2020-08-10_16h26.27.559,lexical_decision_task_MP,2020.1.3,Win32,60,m,1,0.713,,,,,,,,0.713,1,,,,,,173,WORD,"ID",50,shower,SHOWER,m,,,,,,0.047777778,-0.371111111,0,0,0,,0,281,281,112,1,
,,,,,,,,,,,,,,,,,,5dd11ee349f6071aef4519bb,2020-08-10_16h26.27.559,lexical_decision_task_MP,2020.1.3,Win32,60,z,1,1.281,,,,,,,,1.281,1,,,,,,392,NW,"ID",50,rouncy,ROUNCY,z,,,,,,0.047777778,-0.371111111,0,0,0,,0,282,282,331,1,
,,,,,,,,,,,,,,,,,,5dd11ee349f6071aef4519bb,2020-08-10_16h26.27.559,lexical_decision_task_MP,2020.1.3,Win32,60,m,1,0.98,,,,,,,,0.98,1,,,,,,161,WORD,"ID",50,pastor,PASTOR,m,,,,,,0.047777778,-0.371111111,0,0,0,,0,283,283,100,1,
,,,,,,,,,,,,,,,,,,5dd11ee349f6071aef4519bb,2020-08-10_16h26.27.559,lexical_decision_task_MP,2020.1.3,Win32,60,z,1,0.739,,,,,,,,0.739,1,,,,,,390,NW,"ID",50,hatrus,HATRUS,z,,,,,,0.047777778,-0.371111111,0,0,0,,0,284,284,329,1,
,,,,,,,,,,,,,,,,,,5dd11ee349f6071aef4519bb,2020-08-10_16h26.27.559,lexical_decision_task_MP,2020.1.3,Win32,60,z,1,0.838,,,,,,,,0.838,1,,,,,,407,NW,"ID",50,suiver,SUIVER,z,,,,,,0.047777778,-0.371111111,0,0,0,,0,285,285,346,1,
,,,,,,,,,,,,,,,,,,5dd11ee349f6071aef4519bb,2020-08-10_16h26.27.559,lexical_decision_task_MP,2020.1.3,Win32,60,z,1,0.625,,,,,,,,0.625,1,,,,,,393,NW,"ID",50,ganous,GANOUS,z,,,,,,0.047777778,-0.371111111,0,0,0,,0,286,286,332,1,
,,,,,,,,,,,,,,,,,,5dd11ee349f6071aef4519bb,2020-08-10_16h26.27.559,lexical_decision_task_MP,2020.1.3,Win32,60,z,1,0.594,,,,,,,,0.594,1,,,,,,274,NW,UN,50,sleirt,FUMBLO,z,,,,,,0.047777778,-0.371111111,0,0,0,,0,287,287,453,1,
,,,,,,,,,,,,,,,,,,5dd11ee349f6071aef4519bb,2020-08-10_16h26.27.559,lexical_decision_task_MP,2020.1.3,Win32,60,m,1,0.656,,,,,,,,0.656,1,,,,,,79,WORD,"ID",33,theory,THEORY,m,,,,,,0.047777778,-0.371111111,0,0,0,,0,288,288,18,1,
,,,,,,,,,,,,,,,,,,5dd11ee349f6071aef4519bb,2020-08-10_16h26.27.559,lexical_decision_task_MP,2020.1.3,Win32,60,z,1,0.651,,,,,,,,0.651,1,,,,,,273,NW,UN,50,fumblo,SORTEL,z,,,,,,0.047777778,-0.371111111,0,0,0,,0,289,289,452,1,
,,,,,,,,,,,,,,,,,,5dd11ee349f6071aef4519bb,2020-08-10_16h26.27.559,lexical_decision_task_MP,2020.1.3,Win32,60,m,1,0.851,,,,,,,,0.851,1,,,,,,208,WORD,UN,33,search,HOCKEY,m,,,,,,0.047777778,-0.371111111,0,0,0,,0,290,290,147,1,
,,,,,,,,,,,,,,,,,,5dd11ee349f6071aef4519bb,2020-08-10_16h26.27.559,lexical_decision_task_MP,2020.1.3,Win32,60,m,1,1.361,,,,,,,,1.361,1,,,,,,67,WORD,"ID",33,policy,POLICY,m,,,,,,0.047777778,-0.371111111,0,0,0,,0,291,291,6,1,
,,,,,,,,,,,,,,,,,,5dd11ee349f6071aef4519bb,2020-08-10_16h26.27.559,lexical_decision_task_MP,2020.1.3,Win32,60,m,1,0.766,,,,,,,,0.766,1,,,,,,80,WORD,"ID",33,family,FAMILY,m,,,,,,0.047777778,-0.371111111,0,0,0,,0,292,292,19,1,
,,,,,,,,,,,,,,,,,,5dd11ee349f6071aef4519bb,2020-08-10_16h26.27.559,lexical_decision_task_MP,2020.1.3,Win32,60,z,1,0.703,,,,,,,,0.703,1,,,,,,405,NW,"ID",50,flumni,FLUMNI,z,,,,,,0.047777778,-0.371111111,0,0,0,,0,293,293,344,1,
,,,,,,,,,,,,,,,,,,5dd11ee349f6071aef4519bb,2020-08-10_16h26.27.559,lexical_decision_task_MP,2020.1.3,Win32,60,z,1,0.594,,,,,,,,0.594,1,,,,,,277,NW,UN,50,unighs,PETAIN,z,,,,,,0.047777778,-0.371111111,0,0,0,,0,294,294,456,1,
,,,,,,,,,,,,,,,,,,5dd11ee349f6071aef4519bb,2020-08-10_16h26.27.559,lexical_decision_task_MP,2020.1.3,Win32,60,m,1,0.64,,,,,,,,0.64,1,,,,,,135,WORD,"ID",50,import,IMPORT,m,,,,,,0.047777778,-0.371111111,0,0,0,,0,295,295,74,1,
,,,,,,,,,,,,,,,,,,5dd11ee349f6071aef4519bb,2020-08-10_16h26.27.559,lexical_decision_task_MP,2020.1.3,Win32,60,m,1,0.625,,,,,,,,0.625,1,,,,,,22,WORD,UN,50,wealth,JOCKEY,m,,,,,,0.047777778,-0.371111111,0,0,0,,0,296,296,201,1,
,,,,,,,,,,,,,,,,,,5dd11ee349f6071aef4519bb,2020-08-10_16h26.27.559,lexical_decision_task_MP,2020.1.3,Win32,60,m,1,0.613,,,,,,,,0.613,1,,,,,,57,WORD,UN,50,danger,CHANGE,m,,,,,,0.047777778,-0.371111111,0,0,0,,0,297,297,236,1,
,,,,,,,,,,,,,,,,,,5dd11ee349f6071aef4519bb,2020-08-10_16h26.27.559,lexical_decision_task_MP,2020.1.3,Win32,60,z,1,0.814,,,,,,,,0.814,1,,,,,,252,NW,UN,50,resait,STAPOD,z,,,,,,0.047777778,-0.371111111,0,0,0,,0,298,298,431,1,
,,,,,,,,,,,,,,,,,,5dd11ee349f6071aef4519bb,2020-08-10_16h26.27.559,lexical_decision_task_MP,2020.1.3,Win32,60,m,1,0.749,,,,,,,,0.749,1,,,,,,77,WORD,"ID",33,racket,RACKET,m,,,,,,0.047777778,-0.371111111,0,0,0,,0,299,299,16,1,
,,,,,,,,,,,,,,,,,,5dd11ee349f6071aef4519bb,2020-08-10_16h26.27.559,lexical_decision_task_MP,2020.1.3,Win32,60,m,1,0.615,,,,,,,,0.615,1,,,,,,168,WORD,"ID",50,answer,ANSWER,m,,,,,,0.047777778,-0.371111111,0,0,0,,0,300,300,107,1,
,,,,,,,,,,,,,,,,,,5dd11ee349f6071aef4519bb,2020-08-10_16h26.27.559,lexical_decision_task_MP,2020.1.3,Win32,60,z,1,0.639,,,,,,,,0.639,1,,,,,,258,NW,UN,50,soudal,POLUTH,z,,,,,,0.047777778,-0.371111111,0,0,0,,0,301,301,437,1,
,,,,,,,,,,,,,,,,,,5dd11ee349f6071aef4519bb,2020-08-10_16h26.27.559,lexical_decision_task_MP,2020.1.3,Win32,60,m,1,0.742,,,,,,,,0.742,1,,,,,,36,WORD,UN,50,insult,VANISH,m,,,,,,0.047777778,-0.371111111,0,0,0,,0,302,302,215,1,
,,,,,,,,,,,,,,,,,,5dd11ee349f6071aef4519bb,2020-08-10_16h26.27.559,lexical_decision_task_MP,2020.1.3,Win32,60,m,1,0.681,,,,,,,,0.681,1,,,,,,216,WORD,UN,33,liquor,BEHALF,m,,,,,,0.047777778,-0.371111111,0,0,0,,0,303,303,155,1,
,,,,,,,,,,,,,,,,,,5dd11ee349f6071aef4519bb,2020-08-10_16h26.27.559,lexical_decision_task_MP,2020.1.3,Win32,60,m,1,0.672,,,,,,,,0.672,1,,,,,,202,WORD,UN,33,phrase,FACTOR,m,,,,,,0.047777778,-0.371111111,0,0,0,,0,304,304,141,1,
,,,,,,,,,,,,,,,,,,5dd11ee349f6071aef4519bb,2020-08-10_16h26.27.559,lexical_decision_task_MP,2020.1.3,Win32,60,m,1,0.669,,,,,,,,0.669,1,,,,,,15,WORD,UN,50,faucet,AMOUNT,m,,,,,,0.047777778,-0.371111111,0,0,0,,0,305,305,194,1,
,,,,,,,,,,,,,,,,,,5dd11ee349f6071aef4519bb,2020-08-10_16h26.27.559,lexical_decision_task_MP,2020.1.3,Win32,60,m,1,0.725,,,,,,,,0.725,1,,,,,,85,WORD,"ID",33,sprawl,SPRAWL,m,,,,,,0.047777778,-0.371111111,0,0,0,,0,306,306,24,1,
,,,,,,,,,,,,,,,,,,5dd11ee349f6071aef4519bb,2020-08-10_16h26.27.559,lexical_decision_task_MP,2020.1.3,Win32,60,m,1,0.693,,,,,,,,0.693,1,,,,,,187,WORD,UN,33,social,COURSE,m,,,,,,0.047777778,-0.371111111,0,0,0,,0,307,307,126,1,
,,,,,,,,,,,,,,,,,,5dd11ee349f6071aef4519bb,2020-08-10_16h26.27.559,lexical_decision_task_MP,2020.1.3,Win32,60,m,1,0.613,,,,,,,,0.613,1,,,,,,121,WORD,"ID",50,thrive,THRIVE,m,,,,,,0.047777778,-0.371111111,0,0,0,,0,308,308,60,1,
,,,,,,,,,,,,,,,,,,5dd11ee349f6071aef4519bb,2020-08-10_16h26.27.559,lexical_decision_task_MP,2020.1.3,Win32,60,z,1,0.748,,,,,,,,0.748,1,,,,,,465,NW,UN,33,bafent,WHIVEX,z,,,,,,0.047777778,-0.371111111,0,0,0,,0,309,309,404,1,
,,,,,,,,,,,,,,,,,,5dd11ee349f6071aef4519bb,2020-08-10_16h26.27.559,lexical_decision_task_MP,2020.1.3,Win32,60,z,1,0.846,,,,,,,,0.846,1,,,,,,247,NW,UN,50,strole,BLARGE,z,,,,,,0.047777778,-0.371111111,0,0,0,,0,310,310,426,1,
,,,,,,,,,,,,,,,,,,5dd11ee349f6071aef4519bb,2020-08-10_16h26.27.559,lexical_decision_task_MP,2020.1.3,Win32,60,z,1,0.718,,,,,,,,0.718,1,,,,,,480,NW,UN,33,knisma,ROBULY,z,,,,,,0.047777778,-0.371111111,0,0,0,,0,311,311,419,1,
,,,,,,,,,,,,,,,,,,5dd11ee349f6071aef4519bb,2020-08-10_16h26.27.559,lexical_decision_task_MP,2020.1.3,Win32,60,z,1,0.633,,,,,,,,0.633,1,,,,,,360,NW,"ID",33,desory,DESORY,z,,,,,,0.047777778,-0.371111111,0,0,0,,0,312,312,299,1,
,,,,,,,,,,,,,,,,,,5dd11ee349f6071aef4519bb,2020-08-10_16h26.27.559,lexical_decision_task_MP,2020.1.3,Win32,60,z,1,0.701,,,,,,,,0.701,1,,,,,,353,NW,"ID",33,clurey,CLUREY,z,,,,,,0.047777778,-0.371111111,0,0,0,,0,313,313,292,1,
,,,,,,,,,,,,,,,,,,5dd11ee349f6071aef4519bb,2020-08-10_16h26.27.559,lexical_decision_task_MP,2020.1.3,Win32,60,m,1,0.95,,,,,,,,0.95,1,,,,,,200,WORD,UN,33,admire,BEACON,m,,,,,,0.047777778,-0.371111111,0,0,0,,0,314,314,139,1,
,,,,,,,,,,,,,,,,,,5dd11ee349f6071aef4519bb,2020-08-10_16h26.27.559,lexical_decision_task_MP,2020.1.3,Win32,60,z,1,0.881,,,,,,,,0.881,1,,,,,,367,NW,"ID",50,slique,SLIQUE,z,,,,,,0.047777778,-0.371111111,0,0,0,,0,315,315,306,1,
,,,,,,,,,,,,,,,,,,5dd11ee349f6071aef4519bb,2020-08-10_16h26.27.559,lexical_decision_task_MP,2020.1.3,Win32,60,m,1,0.876,,,,,,,,0.876,1,,,,,,18,WORD,UN,50,patron,HUMBLE,m,,,,,,0.047777778,-0.371111111,0,0,0,,0,316,316,197,1,
,,,,,,,,,,,,,,,,,,5dd11ee349f6071aef4519bb,2020-08-10_16h26.27.559,lexical_decision_task_MP,2020.1.3,Win32,60,m,1,0.722,,,,,,,,0.722,1,,,,,,12,WORD,UN,50,strive,ORANGE,m,,,,,,0.047777778,-0.371111111,0,0,0,,0,317,317,191,1,
,,,,,,,,,,,,,,,,,,5dd11ee349f6071aef4519bb,2020-08-10_16h26.27.559,lexical_decision_task_MP,2020.1.3,Win32,60,z,1,0.705,,,,,,,,0.705,1,,,,,,445,NW,UN,33,runamo,MINKEL,z,,,,,,0.047777778,-0.371111111,0,0,0,,0,318,318,384,1,
,,,,,,,,,,,,,,,,,,5dd11ee349f6071aef4519bb,2020-08-10_16h26.27.559,lexical_decision_task_MP,2020.1.3,Win32,60,m,1,0.673,,,,,,,,0.673,1,,,,,,38,WORD,UN,50,insect,POWDER,m,,,,,,0.047777778,-0.371111111,0,0,0,,0,319,319,217,1,
,,,,,,,,,,,,,,,,,,5dd11ee349f6071aef4519bb,2020-08-10_16h26.27.559,lexical_decision_task_MP,2020.1.3,Win32,60,z,1,1.492,,,,,,,,1.492,1,,,,,,357,NW,"ID",33,derain,DERAIN,z,,,,,,0.047777778,-0.371111111,0,0,0,,0,320,320,296,1,
,,,,,,,,,,,,,,,,,,5dd11ee349f6071aef4519bb,2020-08-10_16h26.27.559,lexical_decision_task_MP,2020.1.3,Win32,60,z,1,0.969,,,,,,,,0.969,1,,,,,,329,NW,"ID",33,yarike,YARIKE,z,,,,,,0.047777778,-0.371111111,0,0,0,,0,321,321,268,1,
,,,,,,,,,,,,,,,,,,5dd11ee349f6071aef4519bb,2020-08-10_16h26.27.559,lexical_decision_task_MP,2020.1.3,Win32,60,z,1,1.217,,,,,,,,1.217,1,,,,,,384,NW,"ID",50,guesco,GUESCO,z,,,,,,0.047777778,-0.371111111,0,0,0,,0,322,322,323,1,
,,,,,,,,,,,,,,,,,,5dd11ee349f6071aef4519bb,2020-08-10_16h26.27.559,lexical_decision_task_MP,2020.1.3,Win32,60,z,1,0.74,,,,,,,,0.74,1,,,,,,266,NW,UN,50,pasink,VARMIT,z,,,,,,0.047777778,-0.371111111,0,0,0,,0,323,323,445,1,
,,,,,,,,,,,,,,,,,,5dd11ee349f6071aef4519bb,2020-08-10_16h26.27.559,lexical_decision_task_MP,2020.1.3,Win32,60,z,1,0.597,,,,,,,,0.597,1,,,,,,354,NW,"ID",33,virlex,VIRLEX,z,,,,,,0.047777778,-0.371111111,0,0,0,,0,324,324,293,1,
,,,,,,,,,,,,,,,,,,5dd11ee349f6071aef4519bb,2020-08-10_16h26.27.559,lexical_decision_task_MP,2020.1.3,Win32,60,m,1,0.733,,,,,,,,0.733,1,,,,,,209,WORD,UN,33,monkey,SEARCH,m,,,,,,0.047777778,-0.371111111,0,0,0,,0,325,325,148,1,
,,,,,,,,,,,,,,,,,,5dd11ee349f6071aef4519bb,2020-08-10_16h26.27.559,lexical_decision_task_MP,2020.1.3,Win32,60,z,1,0.747,,,,,,,,0.747,1,,,,,,246,NW,UN,50,blarge,PIATON,z,,,,,,0.047777778,-0.371111111,0,0,0,,0,326,326,425,1,
,,,,,,,,,,,,,,,,,,5dd11ee349f6071aef4519bb,2020-08-10_16h26.27.559,lexical_decision_task_MP,2020.1.3,Win32,60,z,1,0.637,,,,,,,,0.637,1,,,,,,312,NW,"ID",33,nerawl,NERAWL,z,,,,,,0.047777778,-0.371111111,0,0,0,,0,327,327,251,1,
,,,,,,,,,,,,,,,,,,5dd11ee349f6071aef4519bb,2020-08-10_16h26.27.559,lexical_decision_task_MP,2020.1.3,Win32,60,m,1,0.738,,,,,,,,0.738,1,,,,,,154,WORD,"ID",50,author,AUTHOR,m,,,,,,0.047777778,-0.371111111,0,0,0,,0,328,328,93,1,
,,,,,,,,,,,,,,,,,,5dd11ee349f6071aef4519bb,2020-08-10_16h26.27.559,lexical_decision_task_MP,2020.1.3,Win32,60,z,1,0.936,,,,,,,,0.936,1,,,,,,259,NW,UN,50,unject,SOUDAL,z,,,,,,0.047777778,-0.371111111,0,0,0,,0,329,329,438,1,
,,,,,,,,,,,,,,,,,,5dd11ee349f6071aef4519bb,2020-08-10_16h26.27.559,lexical_decision_task_MP,2020.1.3,Win32,60,z,1,0.771,,,,,,,,0.771,1,,,,,,245,NW,UN,50,piaton,ANOUGS,z,,,,,,0.047777778,-0.371111111,0,0,0,,0,330,330,424,1,
,,,,,,,,,,,,,,,,,,5dd11ee349f6071aef4519bb,2020-08-10_16h26.27.559,lexical_decision_task_MP,2020.1.3,Win32,60,z,1,0.679,,,,,,,,0.679,1,,,,,,315,NW,"ID",33,laston,LASTON,z,,,,,,0.047777778,-0.371111111,0,0,0,,0,331,331,254,1,
,,,,,,,,,,,,,,,,,,5dd11ee349f6071aef4519bb,2020-08-10_16h26.27.559,lexical_decision_task_MP,2020.1.3,Win32,60,m,1,0.743,,,,,,,,0.743,1,,,,,,98,WORD,"ID",33,belong,BELONG,m,,,,,,0.047777778,-0.371111111,0,0,0,,0,332,332,37,1,
,,,,,,,,,,,,,,,,,,5dd11ee349f6071aef4519bb,2020-08-10_16h26.27.559,lexical_decision_task_MP,2020.1.3,Win32,60,z,1,1.222,,,,,,,,1.222,1,,,,,,418,NW,"ID",50,suidle,SUIDLE,z,,,,,,0.047777778,-0.371111111,0,0,0,,0,333,333,357,1,
,,,,,,,,,,,,,,,,,,5dd11ee349f6071aef4519bb,2020-08-10_16h26.27.559,lexical_decision_task_MP,2020.1.3,Win32,60,m,1,0.883,,,,,,,,0.883,1,,,,,,86,WORD,"ID",33,rodent,RODENT,m,,,,,,0.047777778,-0.371111111,0,0,0,,0,334,334,25,1,
,,,,,,,,,,,,,,,,,,5dd11ee349f6071aef4519bb,2020-08-10_16h26.27.559,lexical_decision_task_MP,2020.1.3,Win32,60,z,1,0.698,,,,,,,,0.698,1,,,,,,419,NW,"ID",50,slount,SLOUNT,z,,,,,,0.047777778,-0.371111111,0,0,0,,0,335,335,358,1,
,,,,,,,,,,,,,,,,,,5dd11ee349f6071aef4519bb,2020-08-10_16h26.27.559,lexical_decision_task_MP,2020.1.3,Win32,60,z,1,0.73,,,,,,,,0.73,1,,,,,,293,NW,UN,50,inhort,SWANCE,z,,,,,,0.047777778,-0.371111111,0,0,0,,0,336,336,472,1,
,,,,,,,,,,,,,,,,,,5dd11ee349f6071aef4519bb,2020-08-10_16h26.27.559,lexical_decision_task_MP,2020.1.3,Win32,60,z,1,0.853,,,,,,,,0.853,1,,,,,,452,NW,UN,33,bolvis,SURDEN,z,,,,,,0.047777778,-0.371111111,0,0,0,,0,337,337,391,1,
,,,,,,,,,,,,,,,,,,5dd11ee349f6071aef4519bb,2020-08-10_16h26.27.559,lexical_decision_task_MP,2020.1.3,Win32,60,z,1,1.122,,,,,,,,1.122,1,,,,,,328,NW,"ID",33,broake,BROAKE,z,,,,,,0.047777778,-0.371111111,0,0,0,,0,338,338,267,1,
,,,,,,,,,,,,,,,,,,5dd11ee349f6071aef4519bb,2020-08-10_16h26.27.559,lexical_decision_task_MP,2020.1.3,Win32,60,m,1,0.912,,,,,,,,0.912,1,,,,,,7,WORD,UN,50,abrupt,ANCHOR,m,,,,,,0.047777778,-0.371111111,0,0,0,,0,339,339,186,1,
,,,,,,,,,,,,,,,,,,5dd11ee349f6071aef4519bb,2020-08-10_16h26.27.559,lexical_decision_task_MP,2020.1.3,Win32,60,m,1,0.893,,,,,,,,0.893,1,,,,,,25,WORD,UN,50,sprint,DOMAIN,m,,,,,,0.047777778,-0.371111111,0,0,0,,0,340,340,204,1,
,,,,,,,,,,,,,,,,,,5dd11ee349f6071aef4519bb,2020-08-10_16h26.27.559,lexical_decision_task_MP,2020.1.3,Win32,60,m,1,0.732,,,,,,,,0.732,1,,,,,,185,WORD,UN,33,portal,BOTHER,m,,,,,,0.047777778,-0.371111111,0,0,0,,0,341,341,124,1,
,,,,,,,,,,,,,,,,,,5dd11ee349f6071aef4519bb,2020-08-10_16h26.27.559,lexical_decision_task_MP,2020.1.3,Win32,60,m,1,0.752,,,,,,,,0.752,1,,,,,,116,WORD,"ID",33,tumble,TUMBLE,m,,,,,,0.047777778,-0.371111111,0,0,0,,0,342,342,55,1,
,,,,,,,,,,,,,,,,,,5dd11ee349f6071aef4519bb,2020-08-10_16h26.27.559,lexical_decision_task_MP,2020.1.3,Win32,60,z,1,0.757,,,,,,,,0.757,1,,,,,,429,NW,UN,33,caroey,FUNTLE,z,,,,,,0.047777778,-0.371111111,0,0,0,,0,343,343,368,1,
,,,,,,,,,,,,,,,,,,5dd11ee349f6071aef4519bb,2020-08-10_16h26.27.559,lexical_decision_task_MP,2020.1.3,Win32,60,z,1,0.775,,,,,,,,0.775,1,,,,,,403,NW,"ID",50,bruats,BRUATS,z,,,,,,0.047777778,-0.371111111,0,0,0,,0,344,344,342,1,
,,,,,,,,,,,,,,,,,,5dd11ee349f6071aef4519bb,2020-08-10_16h26.27.559,lexical_decision_task_MP,2020.1.3,Win32,60,m,1,1.166,,,,,,,,1.166,1,,,,,,140,WORD,"ID",50,prince,PRINCE,m,,,,,,0.047777778,-0.371111111,0,0,0,,0,345,345,79,1,
,,,,,,,,,,,,,,,,,,5dd11ee349f6071aef4519bb,2020-08-10_16h26.27.559,lexical_decision_task_MP,2020.1.3,Win32,60,z,1,0.969,,,,,,,,0.969,1,,,,,,322,NW,"ID",33,slanch,SLANCH,z,,,,,,0.047777778,-0.371111111,0,0,0,,0,346,346,261,1,
,,,,,,,,,,,,,,,,,,5dd11ee349f6071aef4519bb,2020-08-10_16h26.27.559,lexical_decision_task_MP,2020.1.3,Win32,60,z,1,0.772,,,,,,,,0.772,1,,,,,,387,NW,"ID",50,gronce,GRONCE,z,,,,,,0.047777778,-0.371111111,0,0,0,,0,347,347,326,1,
,,,,,,,,,,,,,,,,,,5dd11ee349f6071aef4519bb,2020-08-10_16h26.27.559,lexical_decision_task_MP,2020.1.3,Win32,60,z,1,0.937,,,,,,,,0.937,1,,,,,,285,NW,UN,50,reldon,PRUDGE,z,,,,,,0.047777778,-0.371111111,0,0,0,,0,348,348,464,1,
,,,,,,,,,,,,,,,,,,5dd11ee349f6071aef4519bb,2020-08-10_16h26.27.559,lexical_decision_task_MP,2020.1.3,Win32,60,z,1,0.837,,,,,,,,0.837,1,,,,,,300,NW,UN,50,smenco,YARION,z,,,,,,0.047777778,-0.371111111,0,0,0,,0,349,349,479,1,
,,,,,,,,,,,,,,,,,,5dd11ee349f6071aef4519bb,2020-08-10_16h26.27.559,lexical_decision_task_MP,2020.1.3,Win32,60,z,1,0.733,,,,,,,,0.733,1,,,,,,372,NW,"ID",50,ramily,RAMILY,z,,,,,,0.047777778,-0.371111111,0,0,0,,0,350,350,311,1,
,,,,,,,,,,,,,,,,,,5dd11ee349f6071aef4519bb,2020-08-10_16h26.27.559,lexical_decision_task_MP,2020.1.3,Win32,60,m,1,0.781,,,,,,,,0.781,1,,,,,,143,WORD,"ID",50,reason,REASON,m,,,,,,0.047777778,-0.371111111,0,0,0,,0,351,351,82,1,
,,,,,,,,,,,,,,,,,,5dd11ee349f6071aef4519bb,2020-08-10_16h26.27.559,lexical_decision_task_MP,2020.1.3,Win32,60,m,1,1.02,,,,,,,,1.02,1,,,,,,89,WORD,"ID",33,permit,PERMIT,m,,,,,,0.047777778,-0.371111111,0,0,0,,0,352,352,28,1,
,,,,,,,,,,,,,,,,,,5dd11ee349f6071aef4519bb,2020-08-10_16h26.27.559,lexical_decision_task_MP,2020.1.3,Win32,60,z,1,1.06,,,,,,,,1.06,1,,,,,,428,NW,UN,33,funtle,TANDLY,z,,,,,,0.047777778,-0.371111111,0,0,0,,0,353,353,367,1,
,,,,,,,,,,,,,,,,,,5dd11ee349f6071aef4519bb,2020-08-10_16h26.27.559,lexical_decision_task_MP,2020.1.3,Win32,60,m,1,0.727,,,,,,,,0.727,1,,,,,,192,WORD,UN,33,object,PLAGUE,m,,,,,,0.047777778,-0.371111111,0,0,0,,0,354,354,131,1,
,,,,,,,,,,,,,,,,,,5dd11ee349f6071aef4519bb,2020-08-10_16h26.27.559,lexical_decision_task_MP,2020.1.3,Win32,60,m,1,0.902,,,,,,,,0.902,1,,,,,,103,WORD,"ID",33,bounce,BOUNCE,m,,,,,,0.047777778,-0.371111111,0,0,0,,0,355,355,42,1,
,,,,,,,,,,,,,,,,,,5dd11ee349f6071aef4519bb,2020-08-10_16h26.27.559,lexical_decision_task_MP,2020.1.3,Win32,60,z,1,0.857,,,,,,,,0.857,1,,,,,,339,NW,"ID",33,fachow,FACHOW,z,,,,,,0.047777778,-0.371111111,0,0,0,,0,356,356,278,1,
,,,,,,,,,,,,,,,,,,5dd11ee349f6071aef4519bb,2020-08-10_16h26.27.559,lexical_decision_task_MP,2020.1.3,Win32,60,m,1,0.797,,,,,,,,0.797,1,,,,,,171,WORD,"ID",50,depart,DEPART,m,,,,,,0.047777778,-0.371111111,0,0,0,,0,357,357,110,1,
,,,,,,,,,,,,,,,,,,5dd11ee349f6071aef4519bb,2020-08-10_16h26.27.559,lexical_decision_task_MP,2020.1.3,Win32,60,z,1,1.071,,,,,,,,1.071,1,,,,,,253,NW,UN,50,varosh,RESAIT,z,,,,,,0.047777778,-0.371111111,0,0,0,,0,358,358,432,1,
,,,,,,,,,,,,,,,,,,5dd11ee349f6071aef4519bb,2020-08-10_16h26.27.559,lexical_decision_task_MP,2020.1.3,Win32,60,z,1,0.875,,,,,,,,0.875,1,,,,,,271,NW,UN,50,damilt,AUBRID,z,,,,,,0.047777778,-0.371111111,0,0,0,,0,359,359,450,1,
,,,,,,,,,,,,,,,,,,5dd11ee349f6071aef4519bb,2020-08-10_16h26.27.559,lexical_decision_task_MP,2020.1.3,Win32,60,z,1,0.911,,,,,,,,0.911,1,,,,,,375,NW,"ID",50,yorque,YORQUE,z,,,,,,0.047777778,-0.371111111,0,0,0,,0,360,360,314,1,
,,,,,,,,,,,,,,,,,,5dd11ee349f6071aef4519bb,2020-08-10_16h26.27.559,lexical_decision_task_MP,2020.1.3,Win32,60,m,1,0.897,,,,,,,,0.897,1,,,,,,142,WORD,"ID",50,spruce,SPRUCE,m,,,,,,0.047777778,-0.371111111,0,0,0,,0,361,361,81,1,
,,,,,,,,,,,,,,,,,,5dd11ee349f6071aef4519bb,2020-08-10_16h26.27.559,lexical_decision_task_MP,2020.1.3,Win32,60,z,1,0.791,,,,,,,,0.791,1,,,,,,397,NW,"ID",50,camble,CAMBLE,z,,,,,,0.047777778,-0.371111111,0,0,0,space,0,362,362,336,1,26.408
,,,,,,,,,,,,,,,,,,5dd11ee349f6071aef4519bb,2020-08-10_16h26.27.559,lexical_decision_task_MP,2020.1.3,Win32,60,z,1,0.749,,,,,,,,0.749,1,,,,,,443,NW,UN,33,jaunce,DORSEX,z,,,,,,0.047777778,-0.371111111,0,0,0,,0,363,363,382,1,
,,,,,,,,,,,,,,,,,,5dd11ee349f6071aef4519bb,2020-08-10_16h26.27.559,lexical_decision_task_MP,2020.1.3,Win32,60,m,1,0.555,,,,,,,,0.555,1,,,,,,177,WORD,"ID",50,advent,ADVENT,m,,,,,,0.047777778,-0.371111111,0,0,0,,0,364,364,116,1,
,,,,,,,,,,,,,,,,,,5dd11ee349f6071aef4519bb,2020-08-10_16h26.27.559,lexical_decision_task_MP,2020.1.3,Win32,60,z,1,0.614,,,,,,,,0.614,1,,,,,,439,NW,UN,33,saride,LIMPOR,z,,,,,,0.047777778,-0.371111111,0,0,0,,0,365,365,378,1,
,,,,,,,,,,,,,,,,,,5dd11ee349f6071aef4519bb,2020-08-10_16h26.27.559,lexical_decision_task_MP,2020.1.3,Win32,60,z,1,0.654,,,,,,,,0.654,1,,,,,,318,NW,"ID",33,reagly,REAGLY,z,,,,,,0.047777778,-0.371111111,0,0,0,,0,366,366,257,1,
,,,,,,,,,,,,,,,,,,5dd11ee349f6071aef4519bb,2020-08-10_16h26.27.559,lexical_decision_task_MP,2020.1.3,Win32,60,m,1,0.682,,,,,,,,0.682,1,,,,,,56,WORD,UN,50,change,AMBUSH,m,,,,,,0.047777778,-0.371111111,0,0,0,,0,367,367,235,1,
,,,,,,,,,,,,,,,,,,5dd11ee349f6071aef4519bb,2020-08-10_16h26.27.559,lexical_decision_task_MP,2020.1.3,Win32,60,z,1,1.457,,,,,,,,1.457,1,,,,,,284,NW,UN,50,prudge,SHAPLE,z,,,,,,0.047777778,-0.371111111,0,0,0,,0,368,368,463,1,
,,,,,,,,,,,,,,,,,,5dd11ee349f6071aef4519bb,2020-08-10_16h26.27.559,lexical_decision_task_MP,2020.1.3,Win32,60,m,1,0.729,,,,,,,,0.729,1,,,,,,49,WORD,UN,50,snatch,SURVEY,m,,,,,,0.047777778,-0.371111111,0,0,0,,0,369,369,228,1,
,,,,,,,,,,,,,,,,,,5dd11ee349f6071aef4519bb,2020-08-10_16h26.27.559,lexical_decision_task_MP,2020.1.3,Win32,60,z,1,0.778,,,,,,,,0.778,1,,,,,,468,NW,UN,33,padifs,WICTOR,z,,,,,,0.047777778,-0.371111111,0,0,0,,0,370,370,407,1,
,,,,,,,,,,,,,,,,,,5dd11ee349f6071aef4519bb,2020-08-10_16h26.27.559,lexical_decision_task_MP,2020.1.3,Win32,60,m,1,0.652,,,,,,,,0.652,1,,,,,,82,WORD,"ID",33,stigma,STIGMA,m,,,,,,0.047777778,-0.371111111,0,0,0,,0,371,371,21,1,
,,,,,,,,,,,,,,,,,,5dd11ee349f6071aef4519bb,2020-08-10_16h26.27.559,lexical_decision_task_MP,2020.1.3,Win32,60,m,1,0.774,,,,,,,,0.774,1,,,,,,234,WORD,UN,33,poster,CLUMSY,m,,,,,,0.047777778,-0.371111111,0,0,0,,0,372,372,173,1,
,,,,,,,,,,,,,,,,,,5dd11ee349f6071aef4519bb,2020-08-10_16h26.27.559,lexical_decision_task_MP,2020.1.3,Win32,60,m,1,0.728,,,,,,,,0.728,1,,,,,,150,WORD,"ID",50,random,RANDOM,m,,,,,,0.047777778,-0.371111111,0,0,0,,0,373,373,89,1,
,,,,,,,,,,,,,,,,,,5dd11ee349f6071aef4519bb,2020-08-10_16h26.27.559,lexical_decision_task_MP,2020.1.3,Win32,60,z,1,0.669,,,,,,,,0.669,1,,,,,,326,NW,"ID",33,iguade,IGUADE,z,,,,,,0.047777778,-0.371111111,0,0,0,,0,374,374,265,1,
,,,,,,,,,,,,,,,,,,5dd11ee349f6071aef4519bb,2020-08-10_16h26.27.559,lexical_decision_task_MP,2020.1.3,Win32,60,m,1,0.814,,,,,,,,0.814,1,,,,,,156,WORD,"ID",50,cradle,CRADLE,m,,,,,,0.047777778,-0.371111111,0,0,0,,0,375,375,95,1,
,,,,,,,,,,,,,,,,,,5dd11ee349f6071aef4519bb,2020-08-10_16h26.27.559,lexical_decision_task_MP,2020.1.3,Win32,60,m,1,0.68,,,,,,,,0.68,1,,,,,,166,WORD,"ID",50,starch,STARCH,m,,,,,,0.047777778,-0.371111111,0,0,0,,0,376,376,105,1,
,,,,,,,,,,,,,,,,,,5dd11ee349f6071aef4519bb,2020-08-10_16h26.27.559,lexical_decision_task_MP,2020.1.3,Win32,60,m,1,0.745,,,,,,,,0.745,1,,,,,,34,WORD,UN,50,socket,JUNGLE,m,,,,,,0.047777778,-0.371111111,0,0,0,,0,377,377,213,1,
,,,,,,,,,,,,,,,,,,5dd11ee349f6071aef4519bb,2020-08-10_16h26.27.559,lexical_decision_task_MP,2020.1.3,Win32,60,m,1,0.629,,,,,,,,0.629,1,,,,,,119,WORD,"ID",33,spider,SPIDER,m,,,,,,0.047777778,-0.371111111,0,0,0,,0,378,378,58,1,
,,,,,,,,,,,,,,,,,,5dd11ee349f6071aef4519bb,2020-08-10_16h26.27.559,lexical_decision_task_MP,2020.1.3,Win32,60,m,1,0.599,,,,,,,,0.599,1,,,,,,115,WORD,"ID",33,guitar,GUITAR,m,,,,,,0.047777778,-0.371111111,0,0,0,,0,379,379,54,1,
,,,,,,,,,,,,,,,,,,5dd11ee349f6071aef4519bb,2020-08-10_16h26.27.559,lexical_decision_task_MP,2020.1.3,Win32,60,m,1,0.602,,,,,,,,0.602,1,,,,,,232,WORD,UN,33,nature,INJECT,m,,,,,,0.047777778,-0.371111111,0,0,0,,0,380,380,171,1,
,,,,,,,,,,,,,,,,,,5dd11ee349f6071aef4519bb,2020-08-10_16h26.27.559,lexical_decision_task_MP,2020.1.3,Win32,60,m,1,0.853,,,,,,,,0.853,1,,,,,,40,WORD,UN,50,spring,CONVEY,m,,,,,,0.047777778,-0.371111111,0,0,0,,0,381,381,219,1,
,,,,,,,,,,,,,,,,,,5dd11ee349f6071aef4519bb,2020-08-10_16h26.27.559,lexical_decision_task_MP,2020.1.3,Win32,60,m,1,0.755,,,,,,,,0.755,1,,,,,,81,WORD,"ID",33,friend,FRIEND,m,,,,,,0.047777778,-0.371111111,0,0,0,,0,382,382,20,1,
,,,,,,,,,,,,,,,,,,5dd11ee349f6071aef4519bb,2020-08-10_16h26.27.559,lexical_decision_task_MP,2020.1.3,Win32,60,z,1,0.775,,,,,,,,0.775,1,,,,,,424,NW,UN,33,frudge,PRAILE,z,,,,,,0.047777778,-0.371111111,0,0,0,,0,383,383,363,1,
,,,,,,,,,,,,,,,,,,5dd11ee349f6071aef4519bb,2020-08-10_16h26.27.559,lexical_decision_task_MP,2020.1.3,Win32,60,m,1,1.064,,,,,,,,1.064,1,,,,,,195,WORD,UN,33,credit,RESIGN,m,,,,,,0.047777778,-0.371111111,0,0,0,,0,384,384,134,1,
,,,,,,,,,,,,,,,,,,5dd11ee349f6071aef4519bb,2020-08-10_16h26.27.559,lexical_decision_task_MP,2020.1.3,Win32,60,z,1,0.736,,,,,,,,0.736,1,,,,,,410,NW,"ID",50,tunory,TUNORY,z,,,,,,0.047777778,-0.371111111,0,0,0,,0,385,385,349,1,
,,,,,,,,,,,,,,,,,,5dd11ee349f6071aef4519bb,2020-08-10_16h26.27.559,lexical_decision_task_MP,2020.1.3,Win32,60,m,1,0.614,,,,,,,,0.614,1,,,,,,165,WORD,"ID",50,invest,INVEST,m,,,,,,0.047777778,-0.371111111,0,0,0,,0,386,386,104,1,
,,,,,,,,,,,,,,,,,,5dd11ee349f6071aef4519bb,2020-08-10_16h26.27.559,lexical_decision_task_MP,2020.1.3,Win32,60,m,1,0.733,,,,,,,,0.733,1,,,,,,3,WORD,UN,50,trench,KNIGHT,m,,,,,,0.047777778,-0.371111111,0,0,0,,0,387,387,182,1,
,,,,,,,,,,,,,,,,,,5dd11ee349f6071aef4519bb,2020-08-10_16h26.27.559,lexical_decision_task_MP,2020.1.3,Win32,60,z,1,0.751,,,,,,,,0.751,1,,,,,,450,NW,UN,33,cainky,PHRECT,z,,,,,,0.047777778,-0.371111111,0,0,0,,0,388,388,389,1,
,,,,,,,,,,,,,,,,,,5dd11ee349f6071aef4519bb,2020-08-10_16h26.27.559,lexical_decision_task_MP,2020.1.3,Win32,60,z,1,0.657,,,,,,,,0.657,1,,,,,,355,NW,"ID",33,zingly,ZINGLY,z,,,,,,0.047777778,-0.371111111,0,0,0,,0,389,389,294,1,
,,,,,,,,,,,,,,,,,,5dd11ee349f6071aef4519bb,2020-08-10_16h26.27.559,lexical_decision_task_MP,2020.1.3,Win32,60,z,1,0.902,,,,,,,,0.902,1,,,,,,444,NW,UN,33,minkel,JAUNCE,z,,,,,,0.047777778,-0.371111111,0,0,0,,0,390,390,383,1,
,,,,,,,,,,,,,,,,,,5dd11ee349f6071aef4519bb,2020-08-10_16h26.27.559,lexical_decision_task_MP,2020.1.3,Win32,60,z,1,0.926,,,,,,,,0.926,1,,,,,,388,NW,"ID",50,cragin,CRAGIN,z,,,,,,0.047777778,-0.371111111,0,0,0,,0,391,391,327,1,
,,,,,,,,,,,,,,,,,,5dd11ee349f6071aef4519bb,2020-08-10_16h26.27.559,lexical_decision_task_MP,2020.1.3,Win32,60,m,1,0.711,,,,,,,,0.711,1,,,,,,105,WORD,"ID",33,number,NUMBER,m,,,,,,0.047777778,-0.371111111,0,0,0,,0,392,392,44,1,
,,,,,,,,,,,,,,,,,,5dd11ee349f6071aef4519bb,2020-08-10_16h26.27.559,lexical_decision_task_MP,2020.1.3,Win32,60,m,1,0.969,,,,,,,,0.969,1,,,,,,204,WORD,UN,33,lounge,BURDEN,m,,,,,,0.047777778,-0.371111111,0,0,0,,0,393,393,143,1,
,,,,,,,,,,,,,,,,,,5dd11ee349f6071aef4519bb,2020-08-10_16h26.27.559,lexical_decision_task_MP,2020.1.3,Win32,60,z,1,0.719,,,,,,,,0.719,1,,,,,,317,NW,"ID",33,worbal,WORBAL,z,,,,,,0.047777778,-0.371111111,0,0,0,,0,394,394,256,1,
,,,,,,,,,,,,,,,,,,5dd11ee349f6071aef4519bb,2020-08-10_16h26.27.559,lexical_decision_task_MP,2020.1.3,Win32,60,z,1,0.766,,,,,,,,0.766,1,,,,,,476,NW,UN,33,photie,JOSTED,z,,,,,,0.047777778,-0.371111111,0,0,0,,0,395,395,415,1,
,,,,,,,,,,,,,,,,,,5dd11ee349f6071aef4519bb,2020-08-10_16h26.27.559,lexical_decision_task_MP,2020.1.3,Win32,60,m,1,0.835,,,,,,,,0.835,1,,,,,,74,WORD,"ID",33,plaque,PLAQUE,m,,,,,,0.047777778,-0.371111111,0,0,0,,0,396,396,13,1,
,,,,,,,,,,,,,,,,,,5dd11ee349f6071aef4519bb,2020-08-10_16h26.27.559,lexical_decision_task_MP,2020.1.3,Win32,60,m,1,0.707,,,,,,,,0.707,1,,,,,,207,WORD,UN,33,hockey,WREATH,m,,,,,,0.047777778,-0.371111111,0,0,0,,0,397,397,146,1,
,,,,,,,,,,,,,,,,,,5dd11ee349f6071aef4519bb,2020-08-10_16h26.27.559,lexical_decision_task_MP,2020.1.3,Win32,60,z,1,0.686,,,,,,,,0.686,1,,,,,,330,NW,"ID",33,kensom,KENSOM,z,,,,,,0.047777778,-0.371111111,0,0,0,,0,398,398,269,1,
,,,,,,,,,,,,,,,,,,5dd11ee349f6071aef4519bb,2020-08-10_16h26.27.559,lexical_decision_task_MP,2020.1.3,Win32,60,m,1,0.604,,,,,,,,0.604,1,,,,,,182,WORD,UN,33,absent,WINTER,m,,,,,,0.047777778,-0.371111111,0,0,0,,0,399,399,121,1,
,,,,,,,,,,,,,,,,,,5dd11ee349f6071aef4519bb,2020-08-10_16h26.27.559,lexical_decision_task_MP,2020.1.3,Win32,60,m,1,0.706,,,,,,,,0.706,1,,,,,,70,WORD,"ID",33,square,SQUARE,m,,,,,,0.047777778,-0.371111111,0,0,0,,0,400,400,9,1,
,,,,,,,,,,,,,,,,,,5dd11ee349f6071aef4519bb,2020-08-10_16h26.27.559,lexical_decision_task_MP,2020.1.3,Win32,60,z,1,0.799,,,,,,,,0.799,1,,,,,,430,NW,UN,33,chrums,CAROEY,z,,,,,,0.047777778,-0.371111111,0,0,0,,0,401,401,369,1,
,,,,,,,,,,,,,,,,,,5dd11ee349f6071aef4519bb,2020-08-10_16h26.27.559,lexical_decision_task_MP,2020.1.3,Win32,60,z,0,0.764,,,,,,,,0.764,0,,,,,,141,WORD,"ID",50,orphan,ORPHAN,m,,,,,,0.047777778,-0.371111111,0,0,0,,0,402,402,80,1,
,,,,,,,,,,,,,,,,,,5dd11ee349f6071aef4519bb,2020-08-10_16h26.27.559,lexical_decision_task_MP,2020.1.3,Win32,60,z,1,0.668,,,,,,,,0.668,1,,,,,,421,NW,UN,33,alcoud,KNISMA,z,,,,,,0.047777778,-0.371111111,0,0,0,,0,403,403,360,1,
,,,,,,,,,,,,,,,,,,5dd11ee349f6071aef4519bb,2020-08-10_16h26.27.559,lexical_decision_task_MP,2020.1.3,Win32,60,m,1,0.889,,,,,,,,0.889,1,,,,,,76,WORD,"ID",33,exotic,EXOTIC,m,,,,,,0.047777778,-0.371111111,0,0,0,,0,404,404,15,1,
,,,,,,,,,,,,,,,,,,5dd11ee349f6071aef4519bb,2020-08-10_16h26.27.559,lexical_decision_task_MP,2020.1.3,Win32,60,z,1,0.877,,,,,,,,0.877,1,,,,,,399,NW,"ID",50,fouret,FOURET,z,,,,,,0.047777778,-0.371111111,0,0,0,,0,405,405,338,1,
,,,,,,,,,,,,,,,,,,5dd11ee349f6071aef4519bb,2020-08-10_16h26.27.559,lexical_decision_task_MP,2020.1.3,Win32,60,z,1,0.786,,,,,,,,0.786,1,,,,,,366,NW,"ID",50,toshel,TOSHEL,z,,,,,,0.047777778,-0.371111111,0,0,0,,0,406,406,305,1,
,,,,,,,,,,,,,,,,,,5dd11ee349f6071aef4519bb,2020-08-10_16h26.27.559,lexical_decision_task_MP,2020.1.3,Win32,60,z,1,0.855,,,,,,,,0.855,1,,,,,,327,NW,"ID",33,plenac,PLENAC,z,,,,,,0.047777778,-0.371111111,0,0,0,,0,407,407,266,1,
,,,,,,,,,,,,,,,,,,5dd11ee349f6071aef4519bb,2020-08-10_16h26.27.559,lexical_decision_task_MP,2020.1.3,Win32,60,m,1,0.904,,,,,,,,0.904,1,,,,,,236,WORD,UN,33,grumpy,PIRATE,m,,,,,,0.047777778,-0.371111111,0,0,0,,0,408,408,175,1,
,,,,,,,,,,,,,,,,,,5dd11ee349f6071aef4519bb,2020-08-10_16h26.27.559,lexical_decision_task_MP,2020.1.3,Win32,60,m,1,0.785,,,,,,,,0.785,1,,,,,,21,WORD,UN,50,jockey,SIMPLE,m,,,,,,0.047777778,-0.371111111,0,0,0,,0,409,409,200,1,
,,,,,,,,,,,,,,,,,,5dd11ee349f6071aef4519bb,2020-08-10_16h26.27.559,lexical_decision_task_MP,2020.1.3,Win32,60,z,1,1.169,,,,,,,,1.169,1,,,,,,422,NW,UN,33,streld,ALCOUD,z,,,,,,0.047777778,-0.371111111,0,0,0,,0,410,410,361,1,
,,,,,,,,,,,,,,,,,,5dd11ee349f6071aef4519bb,2020-08-10_16h26.27.559,lexical_decision_task_MP,2020.1.3,Win32,60,z,0,0.884,,,,,,,,0.884,0,,,,,,30,WORD,UN,50,weapon,ORIENT,m,,,,,,0.047777778,-0.371111111,0,0,0,,0,411,411,209,1,
,,,,,,,,,,,,,,,,,,5dd11ee349f6071aef4519bb,2020-08-10_16h26.27.559,lexical_decision_task_MP,2020.1.3,Win32,60,z,1,0.867,,,,,,,,0.867,1,,,,,,455,NW,UN,33,broget,TONDLE,z,,,,,,0.047777778,-0.371111111,0,0,0,,0,412,412,394,1,
,,,,,,,,,,,,,,,,,,5dd11ee349f6071aef4519bb,2020-08-10_16h26.27.559,lexical_decision_task_MP,2020.1.3,Win32,60,m,1,0.863,,,,,,,,0.863,1,,,,,,26,WORD,UN,50,butler,SPRINT,m,,,,,,0.047777778,-0.371111111,0,0,0,,0,413,413,205,1,
