counterbalancing_condition,instr_done_keyboard.keys,instr_done_keyboard.rt,instr_done_touch.x,instr_done_touch.y,instr_done_touch.leftButton,instr_done_touch.midButton,instr_done_touch.rightButton,instruction_pages.thisRepN,instruction_pages.thisTrialN,instruction_pages.thisN,instruction_pages.thisIndex,instruction_pages.ran,pageN,phase,instruct_text,has_image,instruct_image,participant,date,expName,psychopyVersion,OS,frameRate,instr_done_touch.clicked_name,response.keys,response.corr,response.rt,touch_resp.x,touch_resp.y,touch_resp.leftButton,touch_resp.midButton,touch_resp.rightButton,touch_resp.time,touch_resp.clicked_name,rt,corr,practice_trials.thisRepN,practice_trials.thisTrialN,practice_trials.thisN,practice_trials.thisIndex,practice_trials.ran,TrialID,StimulusType,Condition,PrimeDuration,Prime,Target,corrAns,end_of_practice_trials_pages.thisRepN,end_of_practice_trials_pages.thisTrialN,end_of_practice_trials_pages.thisN,end_of_practice_trials_pages.thisIndex,end_of_practice_trials_pages.ran,break_done_touch.x,break_done_touch.y,break_done_touch.leftButton,break_done_touch.midButton,break_done_touch.rightButton,break_done_keyboard.keys,trials.thisRepN,trials.thisTrialN,trials.thisN,trials.thisIndex,trials.ran,break_done_touch.clicked_name
2,space,10.054315,0.038806424,-0.414557292,0,0,0,0,0,0,0,1,1,instructions,"INSTRUCTIONS
At the start of each trial, look at the hash marks (######) in the center of the screen. After a moment, a string of letters will appear. Your task is to indicate if the letter string forms a word or not (i.e., if it is a nonword). For example, AUTHOR is a word while AUTHON is a nonword.

Press the space bar or touch the button below to continue.",0,,5e18ca0eba65e719f09679ba,2020-08-10_17h49.23.029,lexical_decision_task_MP,2020.1.3,MacIntel,60,,,,,,,,,,,,,,,,,,,,,,,,,,,,,,,,,,,,,,,,,,
,,,0.038806424,-0.414470486,1,0,0,0,1,1,1,1,2,instructions,"If your device has a keyboard, press the 'Z' key for nonwords and the 'M' key for words.





Press the space bar or touch the button below to continue.",1,keyboard-example.gif,5e18ca0eba65e719f09679ba,2020-08-10_17h49.23.029,lexical_decision_task_MP,2020.1.3,MacIntel,60,instr_done_button,,,,,,,,,,,,,,,,,,,,,,,,,,,,,,,,,,,,,,,,,
,,,0.038806424,-0.414470486,1,0,0,0,2,2,2,1,3,instructions,"If you are using a touchscreen only device, use the buttons on the screen. Do not use the mouse.





Press the space bar or touch the button below to continue.",1,touchscreen-example.gif,5e18ca0eba65e719f09679ba,2020-08-10_17h49.23.029,lexical_decision_task_MP,2020.1.3,MacIntel,60,instr_done_button,,,,,,,,,,,,,,,,,,,,,,,,,,,,,,,,,,,,,,,,,
,,,0.038806424,-0.414470486,1,0,0,0,3,3,3,1,4,instructions,"It is very important that you respond as quickly and accurately as possible, as each letter string will only be on the screen for two seconds. If you do not respond within this time, the message 'Too slow!' will be displayed and the experiment will progress to the next letter string. The first 20 trials will be practice trials and you will receive feedback on your answers. 

Press the space bar or touch the button below to start the practice trials.",0,,5e18ca0eba65e719f09679ba,2020-08-10_17h49.23.029,lexical_decision_task_MP,2020.1.3,MacIntel,60,instr_done_button,,,,,,,,,,,,,,,,,,,,,,,,,,,,,,,,,,,,,,,,,
,,,,,,,,,,,,,,,,,,5e18ca0eba65e719f09679ba,2020-08-10_17h49.23.029,lexical_decision_task_MP,2020.1.3,MacIntel,60,,m,1,1.85768,,,,,,,,1.85768,1,0,0,0,5,1,1006,WORD,UN,33,frenzy,OBTAIN,m,,,,,,,,,,,,,,,,,
,,,,,,,,,,,,,,,,,,5e18ca0eba65e719f09679ba,2020-08-10_17h49.23.029,lexical_decision_task_MP,2020.1.3,MacIntel,60,,z,1,1.499145,,,,,,,,1.499145,1,0,1,1,9,1,1010,NW,"ID",33,fariny,FARINY,z,,,,,,,,,,,,,,,,,
,,,,,,,,,,,,,,,,,,5e18ca0eba65e719f09679ba,2020-08-10_17h49.23.029,lexical_decision_task_MP,2020.1.3,MacIntel,60,,m,0,1.16428,,,,,,,,1.16428,0,0,2,2,11,1,1012,NW,"ID",50,rashet,RASHET,z,,,,,,,,,,,,,,,,,
,,,,,,,,,,,,,,,,,,5e18ca0eba65e719f09679ba,2020-08-10_17h49.23.029,lexical_decision_task_MP,2020.1.3,MacIntel,60,,m,1,0.73205,,,,,,,,0.73205,1,0,3,3,0,1,1001,WORD,"ID",33,utopia,UTOPIA,m,,,,,,,,,,,,,,,,,
,,,,,,,,,,,,,,,,,,5e18ca0eba65e719f09679ba,2020-08-10_17h49.23.029,lexical_decision_task_MP,2020.1.3,MacIntel,60,,z,1,1.353995,,,,,,,,1.353995,1,0,4,4,13,1,1014,NW,UN,33,winfer,ROUPET,z,,,,,,,,,,,,,,,,,
,,,,,,,,,,,,,,,,,,5e18ca0eba65e719f09679ba,2020-08-10_17h49.23.029,lexical_decision_task_MP,2020.1.3,MacIntel,60,,m,1,0.62296,,,,,,,,0.62296,1,0,5,5,2,1,1003,WORD,"ID",50,almond,ALMOND,m,,,,,,,,,,,,,,,,,
,,,,,,,,,,,,,,,,,,5e18ca0eba65e719f09679ba,2020-08-10_17h49.23.029,lexical_decision_task_MP,2020.1.3,MacIntel,60,,m,1,0.70082,,,,,,,,0.70082,1,0,6,6,1,1,1002,WORD,"ID",33,adjust,ADJUST,m,,,,,,,,,,,,,,,,,
,,,,,,,,,,,,,,,,,,5e18ca0eba65e719f09679ba,2020-08-10_17h49.23.029,lexical_decision_task_MP,2020.1.3,MacIntel,60,,m,1,0.664995,,,,,,,,0.664995,1,0,7,7,7,1,1008,WORD,UN,50,hurdle,VOLUME,m,,,,,,,,,,,,,,,,,
,,,,,,,,,,,,,,,,,,5e18ca0eba65e719f09679ba,2020-08-10_17h49.23.029,lexical_decision_task_MP,2020.1.3,MacIntel,60,,z,1,0.95124,,,,,,,,0.95124,1,0,8,8,15,1,1016,NW,UN,50,mushed,WHAISE,z,,,,,,,,,,,,,,,,,
,,,,,,,,,,,,,,,,,,5e18ca0eba65e719f09679ba,2020-08-10_17h49.23.029,lexical_decision_task_MP,2020.1.3,MacIntel,60,,m,1,0.65046,,,,,,,,0.65046,1,0,9,9,3,1,1004,WORD,"ID",50,matrix,MATRIX,m,,,,,,,,,,,,,,,,,
,,,,,,,,,,,,,,,,,,5e18ca0eba65e719f09679ba,2020-08-10_17h49.23.029,lexical_decision_task_MP,2020.1.3,MacIntel,60,,m,1,0.58413,,,,,,,,0.58413,1,0,10,10,6,1,1007,WORD,UN,50,tropic,ZOMBIE,m,,,,,,,,,,,,,,,,,
,,,,,,,,,,,,,,,,,,5e18ca0eba65e719f09679ba,2020-08-10_17h49.23.029,lexical_decision_task_MP,2020.1.3,MacIntel,60,,z,1,0.81786,,,,,,,,0.81786,1,0,11,11,8,1,1009,NW,"ID",33,aslert,ASLERT,z,,,,,,,,,,,,,,,,,
,,,,,,,,,,,,,,,,,,5e18ca0eba65e719f09679ba,2020-08-10_17h49.23.029,lexical_decision_task_MP,2020.1.3,MacIntel,60,,m,1,0.797755,,,,,,,,0.797755,1,0,12,12,4,1,1005,WORD,UN,33,abound,SQUEAK,m,,,,,,,,,,,,,,,,,
,,,,,,,,,,,,,,,,,,5e18ca0eba65e719f09679ba,2020-08-10_17h49.23.029,lexical_decision_task_MP,2020.1.3,MacIntel,60,,z,1,1.820145,,,,,,,,1.820145,1,0,13,13,10,1,1011,NW,"ID",50,inlade,INLADE,z,,,,,,,,,,,,,,,,,
,,,,,,,,,,,,,,,,,,5e18ca0eba65e719f09679ba,2020-08-10_17h49.23.029,lexical_decision_task_MP,2020.1.3,MacIntel,60,,z,1,0.9186,,,,,,,,0.9186,1,0,14,14,14,1,1015,NW,UN,50,miaber,THRALE,z,,,,,,,,,,,,,,,,,
,,,,,,,,,,,,,,,,,,5e18ca0eba65e719f09679ba,2020-08-10_17h49.23.029,lexical_decision_task_MP,2020.1.3,MacIntel,60,,z,1,0.85135,,,,,,,,0.85135,1,0,15,15,12,1,1013,NW,UN,33,adveil,SPRINY,z,,,,,,,,,,,,,,,,,
,,,-0.025008681,-0.428463542,1,0,0,,,,,,1,end_of_practice,"You have completed the practice trials. During the experimental trials, you will not receive feedback, but it is very important that you respond as quickly and accurately as possible. 
Before you begin, please ensure that you are in a comfortable and quiet location and will not be disturbed for about 15 minutes, as we cannot use your data if you do not complete all the trials. 
There will be opportunities to take breaks at regular intervals during the experiment. When you are ready to start the experimental trials, please press space or touch the button below.",,,5e18ca0eba65e719f09679ba,2020-08-10_17h49.23.029,lexical_decision_task_MP,2020.1.3,MacIntel,60,instr_done_button,,,,,,,,,,,,,,,,,,,,,,,,,0,0,0,0,1,,,,,,,,,,,,
,,,,,,,,,,,,,,,,,,5e18ca0eba65e719f09679ba,2020-08-10_17h49.23.029,lexical_decision_task_MP,2020.1.3,MacIntel,60,,m,1,1.55203,,,,,,,,1.55203,1,,,,,,231,WORD,UN,33,inject,EXPORT,m,,,,,,-0.025086806,-0.428546007,0,0,0,,0,0,0,170,1,
,,,,,,,,,,,,,,,,,,5e18ca0eba65e719f09679ba,2020-08-10_17h49.23.029,lexical_decision_task_MP,2020.1.3,MacIntel,60,,z,1,0.87838,,,,,,,,0.87838,1,,,,,,477,NW,UN,33,lobush,PHOTIE,z,,,,,,-0.025086806,-0.428546007,0,0,0,,0,1,1,416,1,
,,,,,,,,,,,,,,,,,,5e18ca0eba65e719f09679ba,2020-08-10_17h49.23.029,lexical_decision_task_MP,2020.1.3,MacIntel,60,,z,1,0.83364,,,,,,,,0.83364,1,,,,,,366,NW,"ID",50,toshel,TOSHEL,z,,,,,,-0.025086806,-0.428546007,0,0,0,,0,2,2,305,1,
,,,,,,,,,,,,,,,,,,5e18ca0eba65e719f09679ba,2020-08-10_17h49.23.029,lexical_decision_task_MP,2020.1.3,MacIntel,60,,m,1,0.716935,,,,,,,,0.716935,1,,,,,,139,WORD,"ID",50,debris,DEBRIS,m,,,,,,-0.025086806,-0.428546007,0,0,0,,0,3,3,78,1,
,,,,,,,,,,,,,,,,,,5e18ca0eba65e719f09679ba,2020-08-10_17h49.23.029,lexical_decision_task_MP,2020.1.3,MacIntel,60,,z,1,0.883695,,,,,,,,0.883695,1,,,,,,306,NW,"ID",33,sounge,SOUNGE,z,,,,,,-0.025086806,-0.428546007,0,0,0,,0,4,4,245,1,
,,,,,,,,,,,,,,,,,,5e18ca0eba65e719f09679ba,2020-08-10_17h49.23.029,lexical_decision_task_MP,2020.1.3,MacIntel,60,,m,1,0.700725,,,,,,,,0.700725,1,,,,,,195,WORD,UN,33,credit,RESIGN,m,,,,,,-0.025086806,-0.428546007,0,0,0,,0,5,5,134,1,
,,,,,,,,,,,,,,,,,,5e18ca0eba65e719f09679ba,2020-08-10_17h49.23.029,lexical_decision_task_MP,2020.1.3,MacIntel,60,,m,1,0.821755,,,,,,,,0.821755,1,,,,,,67,WORD,"ID",33,policy,POLICY,m,,,,,,-0.025086806,-0.428546007,0,0,0,,0,6,6,6,1,
,,,,,,,,,,,,,,,,,,5e18ca0eba65e719f09679ba,2020-08-10_17h49.23.029,lexical_decision_task_MP,2020.1.3,MacIntel,60,,m,1,0.6627,,,,,,,,0.6627,1,,,,,,37,WORD,UN,50,powder,INSULT,m,,,,,,-0.025086806,-0.428546007,0,0,0,,0,7,7,216,1,
,,,,,,,,,,,,,,,,,,5e18ca0eba65e719f09679ba,2020-08-10_17h49.23.029,lexical_decision_task_MP,2020.1.3,MacIntel,60,,m,1,0.701645,,,,,,,,0.701645,1,,,,,,208,WORD,UN,33,search,HOCKEY,m,,,,,,-0.025086806,-0.428546007,0,0,0,,0,8,8,147,1,
,,,,,,,,,,,,,,,,,,5e18ca0eba65e719f09679ba,2020-08-10_17h49.23.029,lexical_decision_task_MP,2020.1.3,MacIntel,60,,m,1,0.60275,,,,,,,,0.60275,1,,,,,,57,WORD,UN,50,danger,CHANGE,m,,,,,,-0.025086806,-0.428546007,0,0,0,,0,9,9,236,1,
,,,,,,,,,,,,,,,,,,5e18ca0eba65e719f09679ba,2020-08-10_17h49.23.029,lexical_decision_task_MP,2020.1.3,MacIntel,60,,z,1,0.951015,,,,,,,,0.951015,1,,,,,,464,NW,UN,33,whivex,CHAITE,z,,,,,,-0.025086806,-0.428546007,0,0,0,,0,10,10,403,1,
,,,,,,,,,,,,,,,,,,5e18ca0eba65e719f09679ba,2020-08-10_17h49.23.029,lexical_decision_task_MP,2020.1.3,MacIntel,60,,m,1,1.600365,,,,,,,,1.600365,1,,,,,,71,WORD,"ID",33,garden,GARDEN,m,,,,,,-0.025086806,-0.428546007,0,0,0,,0,11,11,10,1,
,,,,,,,,,,,,,,,,,,5e18ca0eba65e719f09679ba,2020-08-10_17h49.23.029,lexical_decision_task_MP,2020.1.3,MacIntel,60,,m,1,0.78371,,,,,,,,0.78371,1,,,,,,183,WORD,UN,33,sleazy,MILDEW,m,,,,,,-0.025086806,-0.428546007,0,0,0,,0,12,12,122,1,
,,,,,,,,,,,,,,,,,,5e18ca0eba65e719f09679ba,2020-08-10_17h49.23.029,lexical_decision_task_MP,2020.1.3,MacIntel,60,,z,1,0.784595,,,,,,,,0.784595,1,,,,,,403,NW,"ID",50,bruats,BRUATS,z,,,,,,-0.025086806,-0.428546007,0,0,0,,0,13,13,342,1,
,,,,,,,,,,,,,,,,,,5e18ca0eba65e719f09679ba,2020-08-10_17h49.23.029,lexical_decision_task_MP,2020.1.3,MacIntel,60,,z,1,1.368955,,,,,,,,1.368955,1,,,,,,274,NW,UN,50,sleirt,FUMBLO,z,,,,,,-0.025086806,-0.428546007,0,0,0,,0,14,14,453,1,
,,,,,,,,,,,,,,,,,,5e18ca0eba65e719f09679ba,2020-08-10_17h49.23.029,lexical_decision_task_MP,2020.1.3,MacIntel,60,,z,1,1.284025,,,,,,,,1.284025,1,,,,,,470,NW,UN,33,nobest,CRUDIO,z,,,,,,-0.025086806,-0.428546007,0,0,0,,0,15,15,409,1,
,,,,,,,,,,,,,,,,,,5e18ca0eba65e719f09679ba,2020-08-10_17h49.23.029,lexical_decision_task_MP,2020.1.3,MacIntel,60,,m,1,0.617545,,,,,,,,0.617545,1,,,,,,132,WORD,"ID",50,strong,STRONG,m,,,,,,-0.025086806,-0.428546007,0,0,0,,0,16,16,71,1,
,,,,,,,,,,,,,,,,,,5e18ca0eba65e719f09679ba,2020-08-10_17h49.23.029,lexical_decision_task_MP,2020.1.3,MacIntel,60,,m,1,0.864445,,,,,,,,0.864445,1,,,,,,16,WORD,UN,50,charge,FAUCET,m,,,,,,-0.025086806,-0.428546007,0,0,0,,0,17,17,195,1,
,,,,,,,,,,,,,,,,,,5e18ca0eba65e719f09679ba,2020-08-10_17h49.23.029,lexical_decision_task_MP,2020.1.3,MacIntel,60,,m,1,0.76892,,,,,,,,0.76892,1,,,,,,122,WORD,"ID",50,linger,LINGER,m,,,,,,-0.025086806,-0.428546007,0,0,0,,0,18,18,61,1,
,,,,,,,,,,,,,,,,,,5e18ca0eba65e719f09679ba,2020-08-10_17h49.23.029,lexical_decision_task_MP,2020.1.3,MacIntel,60,,m,0,1.00344,,,,,,,,1.00344,0,,,,,,424,NW,UN,33,frudge,PRAILE,z,,,,,,-0.025086806,-0.428546007,0,0,0,,0,19,19,363,1,
,,,,,,,,,,,,,,,,,,5e18ca0eba65e719f09679ba,2020-08-10_17h49.23.029,lexical_decision_task_MP,2020.1.3,MacIntel,60,,m,1,0.584185,,,,,,,,0.584185,1,,,,,,64,WORD,"ID",33,throne,THRONE,m,,,,,,-0.025086806,-0.428546007,0,0,0,,0,20,20,3,1,
,,,,,,,,,,,,,,,,,,5e18ca0eba65e719f09679ba,2020-08-10_17h49.23.029,lexical_decision_task_MP,2020.1.3,MacIntel,60,,z,1,0.68425,,,,,,,,0.68425,1,,,,,,298,NW,UN,50,sturch,PIERGY,z,,,,,,-0.025086806,-0.428546007,0,0,0,,0,21,21,477,1,
,,,,,,,,,,,,,,,,,,5e18ca0eba65e719f09679ba,2020-08-10_17h49.23.029,lexical_decision_task_MP,2020.1.3,MacIntel,60,,z,1,0.767875,,,,,,,,0.767875,1,,,,,,299,NW,UN,50,yarion,STURCH,z,,,,,,-0.025086806,-0.428546007,0,0,0,,0,22,22,478,1,
,,,,,,,,,,,,,,,,,,5e18ca0eba65e719f09679ba,2020-08-10_17h49.23.029,lexical_decision_task_MP,2020.1.3,MacIntel,60,,z,1,0.58125,,,,,,,,0.58125,1,,,,,,256,NW,UN,50,veniod,INLORS,z,,,,,,-0.025086806,-0.428546007,0,0,0,,0,23,23,435,1,
,,,,,,,,,,,,,,,,,,5e18ca0eba65e719f09679ba,2020-08-10_17h49.23.029,lexical_decision_task_MP,2020.1.3,MacIntel,60,,z,1,0.71753,,,,,,,,0.71753,1,,,,,,320,NW,"ID",33,jockal,JOCKAL,z,,,,,,-0.025086806,-0.428546007,0,0,0,,0,24,24,259,1,
,,,,,,,,,,,,,,,,,,5e18ca0eba65e719f09679ba,2020-08-10_17h49.23.029,lexical_decision_task_MP,2020.1.3,MacIntel,60,,z,1,0.552865,,,,,,,,0.552865,1,,,,,,359,NW,"ID",33,fonver,FONVER,z,,,,,,-0.025086806,-0.428546007,0,0,0,,0,25,25,298,1,
,,,,,,,,,,,,,,,,,,5e18ca0eba65e719f09679ba,2020-08-10_17h49.23.029,lexical_decision_task_MP,2020.1.3,MacIntel,60,,z,1,0.602615,,,,,,,,0.602615,1,,,,,,328,NW,"ID",33,broake,BROAKE,z,,,,,,-0.025086806,-0.428546007,0,0,0,,0,26,26,267,1,
,,,,,,,,,,,,,,,,,,5e18ca0eba65e719f09679ba,2020-08-10_17h49.23.029,lexical_decision_task_MP,2020.1.3,MacIntel,60,,z,1,0.51739,,,,,,,,0.51739,1,,,,,,351,NW,"ID",33,tiesch,TIESCH,z,,,,,,-0.025086806,-0.428546007,0,0,0,,0,27,27,290,1,
,,,,,,,,,,,,,,,,,,5e18ca0eba65e719f09679ba,2020-08-10_17h49.23.029,lexical_decision_task_MP,2020.1.3,MacIntel,60,,m,1,0.584515,,,,,,,,0.584515,1,,,,,,209,WORD,UN,33,monkey,SEARCH,m,,,,,,-0.025086806,-0.428546007,0,0,0,,0,28,28,148,1,
,,,,,,,,,,,,,,,,,,5e18ca0eba65e719f09679ba,2020-08-10_17h49.23.029,lexical_decision_task_MP,2020.1.3,MacIntel,60,,m,1,0.584705,,,,,,,,0.584705,1,,,,,,5,WORD,UN,50,bundle,PLUNGE,m,,,,,,-0.025086806,-0.428546007,0,0,0,,0,29,29,184,1,
,,,,,,,,,,,,,,,,,,5e18ca0eba65e719f09679ba,2020-08-10_17h49.23.029,lexical_decision_task_MP,2020.1.3,MacIntel,60,,z,1,0.750505,,,,,,,,0.750505,1,,,,,,445,NW,UN,33,runamo,MINKEL,z,,,,,,-0.025086806,-0.428546007,0,0,0,,0,30,30,384,1,
,,,,,,,,,,,,,,,,,,5e18ca0eba65e719f09679ba,2020-08-10_17h49.23.029,lexical_decision_task_MP,2020.1.3,MacIntel,60,,m,1,0.570555,,,,,,,,0.570555,1,,,,,,202,WORD,UN,33,phrase,FACTOR,m,,,,,,-0.025086806,-0.428546007,0,0,0,,0,31,31,141,1,
,,,,,,,,,,,,,,,,,,5e18ca0eba65e719f09679ba,2020-08-10_17h49.23.029,lexical_decision_task_MP,2020.1.3,MacIntel,60,,z,1,0.764215,,,,,,,,0.764215,1,,,,,,338,NW,"ID",33,wreash,WREASH,z,,,,,,-0.025086806,-0.428546007,0,0,0,,0,32,32,277,1,
,,,,,,,,,,,,,,,,,,5e18ca0eba65e719f09679ba,2020-08-10_17h49.23.029,lexical_decision_task_MP,2020.1.3,MacIntel,60,,z,1,0.59821,,,,,,,,0.59821,1,,,,,,436,NW,UN,33,snapel,FRUTAN,z,,,,,,-0.025086806,-0.428546007,0,0,0,,0,33,33,375,1,
,,,,,,,,,,,,,,,,,,5e18ca0eba65e719f09679ba,2020-08-10_17h49.23.029,lexical_decision_task_MP,2020.1.3,MacIntel,60,,z,1,0.817595,,,,,,,,0.817595,1,,,,,,284,NW,UN,50,prudge,SHAPLE,z,,,,,,-0.025086806,-0.428546007,0,0,0,,0,34,34,463,1,
,,,,,,,,,,,,,,,,,,5e18ca0eba65e719f09679ba,2020-08-10_17h49.23.029,lexical_decision_task_MP,2020.1.3,MacIntel,60,,z,1,0.617765,,,,,,,,0.617765,1,,,,,,398,NW,"ID",50,blunde,BLUNDE,z,,,,,,-0.025086806,-0.428546007,0,0,0,,0,35,35,337,1,
,,,,,,,,,,,,,,,,,,5e18ca0eba65e719f09679ba,2020-08-10_17h49.23.029,lexical_decision_task_MP,2020.1.3,MacIntel,60,,m,1,0.734245,,,,,,,,0.734245,1,,,,,,232,WORD,UN,33,nature,INJECT,m,,,,,,-0.025086806,-0.428546007,0,0,0,,0,36,36,171,1,
,,,,,,,,,,,,,,,,,,5e18ca0eba65e719f09679ba,2020-08-10_17h49.23.029,lexical_decision_task_MP,2020.1.3,MacIntel,60,,z,1,0.714775,,,,,,,,0.714775,1,,,,,,324,NW,"ID",33,steikh,STEIKH,z,,,,,,-0.025086806,-0.428546007,0,0,0,,0,37,37,263,1,
,,,,,,,,,,,,,,,,,,5e18ca0eba65e719f09679ba,2020-08-10_17h49.23.029,lexical_decision_task_MP,2020.1.3,MacIntel,60,,z,1,0.76466,,,,,,,,0.76466,1,,,,,,243,NW,UN,50,eatric,MUSIED,z,,,,,,-0.025086806,-0.428546007,0,0,0,,0,38,38,422,1,
,,,,,,,,,,,,,,,,,,5e18ca0eba65e719f09679ba,2020-08-10_17h49.23.029,lexical_decision_task_MP,2020.1.3,MacIntel,60,,m,0,1.300455,,,,,,,,1.300455,0,,,,,,318,NW,"ID",33,reagly,REAGLY,z,,,,,,-0.025086806,-0.428546007,0,0,0,,0,39,39,257,1,
,,,,,,,,,,,,,,,,,,5e18ca0eba65e719f09679ba,2020-08-10_17h49.23.029,lexical_decision_task_MP,2020.1.3,MacIntel,60,,z,1,0.51797,,,,,,,,0.51797,1,,,,,,278,NW,UN,50,celond,UNIGHS,z,,,,,,-0.025086806,-0.428546007,0,0,0,,0,40,40,457,1,
,,,,,,,,,,,,,,,,,,5e18ca0eba65e719f09679ba,2020-08-10_17h49.23.029,lexical_decision_task_MP,2020.1.3,MacIntel,60,,m,1,0.517595,,,,,,,,0.517595,1,,,,,,172,WORD,"ID",50,patrol,PATROL,m,,,,,,-0.025086806,-0.428546007,0,0,0,,0,41,41,111,1,
,,,,,,,,,,,,,,,,,,5e18ca0eba65e719f09679ba,2020-08-10_17h49.23.029,lexical_decision_task_MP,2020.1.3,MacIntel,60,,m,1,0.51904,,,,,,,,0.51904,1,,,,,,24,WORD,UN,50,domain,PRAISE,m,,,,,,-0.025086806,-0.428546007,0,0,0,,0,42,42,203,1,
,,,,,,,,,,,,,,,,,,5e18ca0eba65e719f09679ba,2020-08-10_17h49.23.029,lexical_decision_task_MP,2020.1.3,MacIntel,60,,m,1,0.63443,,,,,,,,0.63443,1,,,,,,102,WORD,"ID",33,direct,DIRECT,m,,,,,,-0.025086806,-0.428546007,0,0,0,,0,43,43,41,1,
,,,,,,,,,,,,,,,,,,5e18ca0eba65e719f09679ba,2020-08-10_17h49.23.029,lexical_decision_task_MP,2020.1.3,MacIntel,60,,z,1,0.66969,,,,,,,,0.66969,1,,,,,,395,NW,"ID",50,colury,COLURY,z,,,,,,-0.025086806,-0.428546007,0,0,0,,0,44,44,334,1,
,,,,,,,,,,,,,,,,,,5e18ca0eba65e719f09679ba,2020-08-10_17h49.23.029,lexical_decision_task_MP,2020.1.3,MacIntel,60,,z,1,0.549685,,,,,,,,0.549685,1,,,,,,321,NW,"ID",33,miator,MIATOR,z,,,,,,-0.025086806,-0.428546007,0,0,0,,0,45,45,260,1,
,,,,,,,,,,,,,,,,,,5e18ca0eba65e719f09679ba,2020-08-10_17h49.23.029,lexical_decision_task_MP,2020.1.3,MacIntel,60,,m,1,0.568375,,,,,,,,0.568375,1,,,,,,123,WORD,"ID",50,strike,STRIKE,m,,,,,,-0.025086806,-0.428546007,0,0,0,,0,46,46,62,1,
,,,,,,,,,,,,,,,,,,5e18ca0eba65e719f09679ba,2020-08-10_17h49.23.029,lexical_decision_task_MP,2020.1.3,MacIntel,60,,z,1,0.60064,,,,,,,,0.60064,1,,,,,,463,NW,UN,33,chaite,KISPEL,z,,,,,,-0.025086806,-0.428546007,0,0,0,,0,47,47,402,1,
,,,,,,,,,,,,,,,,,,5e18ca0eba65e719f09679ba,2020-08-10_17h49.23.029,lexical_decision_task_MP,2020.1.3,MacIntel,60,,m,1,0.635755,,,,,,,,0.635755,1,,,,,,125,WORD,"ID",50,nickel,NICKEL,m,,,,,,-0.025086806,-0.428546007,0,0,0,,0,48,48,64,1,
,,,,,,,,,,,,,,,,,,5e18ca0eba65e719f09679ba,2020-08-10_17h49.23.029,lexical_decision_task_MP,2020.1.3,MacIntel,60,,m,1,0.505185,,,,,,,,0.505185,1,,,,,,84,WORD,"ID",33,mortal,MORTAL,m,,,,,,-0.025086806,-0.428546007,0,0,0,,0,49,49,23,1,
,,,,,,,,,,,,,,,,,,5e18ca0eba65e719f09679ba,2020-08-10_17h49.23.029,lexical_decision_task_MP,2020.1.3,MacIntel,60,,m,1,0.55131,,,,,,,,0.55131,1,,,,,,225,WORD,UN,33,casino,VULGAR,m,,,,,,-0.025086806,-0.428546007,0,0,0,,0,50,50,164,1,
,,,,,,,,,,,,,,,,,,5e18ca0eba65e719f09679ba,2020-08-10_17h49.23.029,lexical_decision_task_MP,2020.1.3,MacIntel,60,,z,1,0.549865,,,,,,,,0.549865,1,,,,,,242,NW,UN,50,musied,UNWERT,z,,,,,,-0.025086806,-0.428546007,0,0,0,,0,51,51,421,1,
,,,,,,,,,,,,,,,,,,5e18ca0eba65e719f09679ba,2020-08-10_17h49.23.029,lexical_decision_task_MP,2020.1.3,MacIntel,60,,m,1,0.63747,,,,,,,,0.63747,1,,,,,,33,WORD,UN,50,jungle,BUTLER,m,,,,,,-0.025086806,-0.428546007,0,0,0,,0,52,52,212,1,
,,,,,,,,,,,,,,,,,,5e18ca0eba65e719f09679ba,2020-08-10_17h49.23.029,lexical_decision_task_MP,2020.1.3,MacIntel,60,,z,1,0.58667,,,,,,,,0.58667,1,,,,,,326,NW,"ID",33,iguade,IGUADE,z,,,,,,-0.025086806,-0.428546007,0,0,0,,0,53,53,265,1,
,,,,,,,,,,,,,,,,,,5e18ca0eba65e719f09679ba,2020-08-10_17h49.23.029,lexical_decision_task_MP,2020.1.3,MacIntel,60,,m,1,0.550915,,,,,,,,0.550915,1,,,,,,31,WORD,UN,50,buckle,WEAPON,m,,,,,,-0.025086806,-0.428546007,0,0,0,,0,54,54,210,1,
,,,,,,,,,,,,,,,,,,5e18ca0eba65e719f09679ba,2020-08-10_17h49.23.029,lexical_decision_task_MP,2020.1.3,MacIntel,60,,z,1,0.553085,,,,,,,,0.553085,1,,,,,,476,NW,UN,33,photie,JOSTED,z,,,,,,-0.025086806,-0.428546007,0,0,0,,0,55,55,415,1,
,,,,,,,,,,,,,,,,,,5e18ca0eba65e719f09679ba,2020-08-10_17h49.23.029,lexical_decision_task_MP,2020.1.3,MacIntel,60,,m,1,0.8021,,,,,,,,0.8021,1,,,,,,19,WORD,UN,50,breast,PATRON,m,,,,,,-0.025086806,-0.428546007,0,0,0,,0,56,56,198,1,
,,,,,,,,,,,,,,,,,,5e18ca0eba65e719f09679ba,2020-08-10_17h49.23.029,lexical_decision_task_MP,2020.1.3,MacIntel,60,,m,1,0.56937,,,,,,,,0.56937,1,,,,,,77,WORD,"ID",33,racket,RACKET,m,,,,,,-0.025086806,-0.428546007,0,0,0,,0,57,57,16,1,
,,,,,,,,,,,,,,,,,,5e18ca0eba65e719f09679ba,2020-08-10_17h49.23.029,lexical_decision_task_MP,2020.1.3,MacIntel,60,,m,1,0.75178,,,,,,,,0.75178,1,,,,,,56,WORD,UN,50,change,AMBUSH,m,,,,,,-0.025086806,-0.428546007,0,0,0,,0,58,58,235,1,
,,,,,,,,,,,,,,,,,,5e18ca0eba65e719f09679ba,2020-08-10_17h49.23.029,lexical_decision_task_MP,2020.1.3,MacIntel,60,,z,1,0.584475,,,,,,,,0.584475,1,,,,,,329,NW,"ID",33,yarike,YARIKE,z,,,,,,-0.025086806,-0.428546007,0,0,0,,0,59,59,268,1,
,,,,,,,,,,,,,,,,,,5e18ca0eba65e719f09679ba,2020-08-10_17h49.23.029,lexical_decision_task_MP,2020.1.3,MacIntel,60,,z,1,0.53741,,,,,,,,0.53741,1,,,,,,447,NW,UN,33,sadent,GIRCUE,z,,,,,,-0.025086806,-0.428546007,0,0,0,,0,60,60,386,1,
,,,,,,,,,,,,,,,,,,5e18ca0eba65e719f09679ba,2020-08-10_17h49.23.029,lexical_decision_task_MP,2020.1.3,MacIntel,60,,z,1,0.551015,,,,,,,,0.551015,1,,,,,,258,NW,UN,50,soudal,POLUTH,z,,,,,,-0.025086806,-0.428546007,0,0,0,,0,61,61,437,1,
,,,,,,,,,,,,,,,,,,5e18ca0eba65e719f09679ba,2020-08-10_17h49.23.029,lexical_decision_task_MP,2020.1.3,MacIntel,60,,m,1,0.58463,,,,,,,,0.58463,1,,,,,,135,WORD,"ID",50,import,IMPORT,m,,,,,,-0.025086806,-0.428546007,0,0,0,,0,62,62,74,1,
,,,,,,,,,,,,,,,,,,5e18ca0eba65e719f09679ba,2020-08-10_17h49.23.029,lexical_decision_task_MP,2020.1.3,MacIntel,60,,z,1,0.798495,,,,,,,,0.798495,1,,,,,,286,NW,UN,50,nymbel,RELDON,z,,,,,,-0.025086806,-0.428546007,0,0,0,,0,63,63,465,1,
,,,,,,,,,,,,,,,,,,5e18ca0eba65e719f09679ba,2020-08-10_17h49.23.029,lexical_decision_task_MP,2020.1.3,MacIntel,60,,m,1,0.568095,,,,,,,,0.568095,1,,,,,,73,WORD,"ID",33,source,SOURCE,m,,,,,,-0.025086806,-0.428546007,0,0,0,,0,64,64,12,1,
,,,,,,,,,,,,,,,,,,5e18ca0eba65e719f09679ba,2020-08-10_17h49.23.029,lexical_decision_task_MP,2020.1.3,MacIntel,60,,z,1,0.53842,,,,,,,,0.53842,1,,,,,,311,NW,"ID",33,sproly,SPROLY,z,,,,,,-0.025086806,-0.428546007,0,0,0,,0,65,65,250,1,
,,,,,,,,,,,,,,,,,,5e18ca0eba65e719f09679ba,2020-08-10_17h49.23.029,lexical_decision_task_MP,2020.1.3,MacIntel,60,,z,1,0.704095,,,,,,,,0.704095,1,,,,,,417,NW,"ID",50,earoud,EAROUD,z,,,,,,-0.025086806,-0.428546007,0,0,0,,0,66,66,356,1,
,,,,,,,,,,,,,,,,,,5e18ca0eba65e719f09679ba,2020-08-10_17h49.23.029,lexical_decision_task_MP,2020.1.3,MacIntel,60,,m,1,0.61193,,,,,,,,0.61193,1,,,,,,181,WORD,UN,33,winter,GLANCE,m,,,,,,-0.025086806,-0.428546007,0,0,0,,0,67,67,120,1,
,,,,,,,,,,,,,,,,,,5e18ca0eba65e719f09679ba,2020-08-10_17h49.23.029,lexical_decision_task_MP,2020.1.3,MacIntel,60,,m,1,0.649695,,,,,,,,0.649695,1,,,,,,207,WORD,UN,33,hockey,WREATH,m,,,,,,-0.025086806,-0.428546007,0,0,0,,0,68,68,146,1,
,,,,,,,,,,,,,,,,,,5e18ca0eba65e719f09679ba,2020-08-10_17h49.23.029,lexical_decision_task_MP,2020.1.3,MacIntel,60,,m,1,0.49962,,,,,,,,0.49962,1,,,,,,70,WORD,"ID",33,square,SQUARE,m,,,,,,-0.025086806,-0.428546007,0,0,0,,0,69,69,9,1,
,,,,,,,,,,,,,,,,,,5e18ca0eba65e719f09679ba,2020-08-10_17h49.23.029,lexical_decision_task_MP,2020.1.3,MacIntel,60,,z,1,0.567625,,,,,,,,0.567625,1,,,,,,369,NW,"ID",50,wronch,WRONCH,z,,,,,,-0.025086806,-0.428546007,0,0,0,,0,70,70,308,1,
,,,,,,,,,,,,,,,,,,5e18ca0eba65e719f09679ba,2020-08-10_17h49.23.029,lexical_decision_task_MP,2020.1.3,MacIntel,60,,m,1,0.600965,,,,,,,,0.600965,1,,,,,,213,WORD,UN,33,intake,SQUEAL,m,,,,,,-0.025086806,-0.428546007,0,0,0,,0,71,71,152,1,
,,,,,,,,,,,,,,,,,,5e18ca0eba65e719f09679ba,2020-08-10_17h49.23.029,lexical_decision_task_MP,2020.1.3,MacIntel,60,,m,1,0.501645,,,,,,,,0.501645,1,,,,,,119,WORD,"ID",33,spider,SPIDER,m,,,,,,-0.025086806,-0.428546007,0,0,0,,0,72,72,58,1,
,,,,,,,,,,,,,,,,,,5e18ca0eba65e719f09679ba,2020-08-10_17h49.23.029,lexical_decision_task_MP,2020.1.3,MacIntel,60,,m,1,0.469445,,,,,,,,0.469445,1,,,,,,138,WORD,"ID",50,melody,MELODY,m,,,,,,-0.025086806,-0.428546007,0,0,0,,0,73,73,77,1,
,,,,,,,,,,,,,,,,,,5e18ca0eba65e719f09679ba,2020-08-10_17h49.23.029,lexical_decision_task_MP,2020.1.3,MacIntel,60,,z,1,0.5663,,,,,,,,0.5663,1,,,,,,281,NW,UN,50,porlex,MELATY,z,,,,,,-0.025086806,-0.428546007,0,0,0,,0,74,74,460,1,
,,,,,,,,,,,,,,,,,,5e18ca0eba65e719f09679ba,2020-08-10_17h49.23.029,lexical_decision_task_MP,2020.1.3,MacIntel,60,,m,1,0.566675,,,,,,,,0.566675,1,,,,,,13,WORD,UN,50,almost,STRIVE,m,,,,,,-0.025086806,-0.428546007,0,0,0,,0,75,75,192,1,
,,,,,,,,,,,,,,,,,,5e18ca0eba65e719f09679ba,2020-08-10_17h49.23.029,lexical_decision_task_MP,2020.1.3,MacIntel,60,,z,1,0.585875,,,,,,,,0.585875,1,,,,,,379,NW,"ID",50,auting,AUTING,z,,,,,,-0.025086806,-0.428546007,0,0,0,,0,76,76,318,1,
,,,,,,,,,,,,,,,,,,5e18ca0eba65e719f09679ba,2020-08-10_17h49.23.029,lexical_decision_task_MP,2020.1.3,MacIntel,60,,z,1,0.66761,,,,,,,,0.66761,1,,,,,,442,NW,UN,33,dorsex,ABOUNE,z,,,,,,-0.025086806,-0.428546007,0,0,0,,0,77,77,381,1,
,,,,,,,,,,,,,,,,,,5e18ca0eba65e719f09679ba,2020-08-10_17h49.23.029,lexical_decision_task_MP,2020.1.3,MacIntel,60,,z,1,0.58684,,,,,,,,0.58684,1,,,,,,416,NW,"ID",50,pathel,PATHEL,z,,,,,,-0.025086806,-0.428546007,0,0,0,,0,78,78,355,1,
,,,,,,,,,,,,,,,,,,5e18ca0eba65e719f09679ba,2020-08-10_17h49.23.029,lexical_decision_task_MP,2020.1.3,MacIntel,60,,z,1,0.906205,,,,,,,,0.906205,1,,,,,,402,NW,"ID",50,syntic,SYNTIC,z,,,,,,-0.025086806,-0.428546007,0,0,0,,0,79,79,341,1,
,,,,,,,,,,,,,,,,,,5e18ca0eba65e719f09679ba,2020-08-10_17h49.23.029,lexical_decision_task_MP,2020.1.3,MacIntel,60,,m,1,0.50212,,,,,,,,0.50212,1,,,,,,34,WORD,UN,50,socket,JUNGLE,m,,,,,,-0.025086806,-0.428546007,0,0,0,,0,80,80,213,1,
,,,,,,,,,,,,,,,,,,5e18ca0eba65e719f09679ba,2020-08-10_17h49.23.029,lexical_decision_task_MP,2020.1.3,MacIntel,60,,z,1,0.601805,,,,,,,,0.601805,1,,,,,,383,NW,"ID",50,aungre,AUNGRE,z,,,,,,-0.025086806,-0.428546007,0,0,0,,0,81,81,322,1,
,,,,,,,,,,,,,,,,,,5e18ca0eba65e719f09679ba,2020-08-10_17h49.23.029,lexical_decision_task_MP,2020.1.3,MacIntel,60,,z,1,0.6684,,,,,,,,0.6684,1,,,,,,272,NW,UN,50,sortel,DAMILT,z,,,,,,-0.025086806,-0.428546007,0,0,0,,0,82,82,451,1,
,,,,,,,,,,,,,,,,,,5e18ca0eba65e719f09679ba,2020-08-10_17h49.23.029,lexical_decision_task_MP,2020.1.3,MacIntel,60,,z,1,0.60132,,,,,,,,0.60132,1,,,,,,469,NW,UN,33,crudio,PADIFS,z,,,,,,-0.025086806,-0.428546007,0,0,0,,0,83,83,408,1,
,,,,,,,,,,,,,,,,,,5e18ca0eba65e719f09679ba,2020-08-10_17h49.23.029,lexical_decision_task_MP,2020.1.3,MacIntel,60,,z,1,0.532185,,,,,,,,0.532185,1,,,,,,466,NW,UN,33,robuly,HOCITE,z,,,,,,-0.025086806,-0.428546007,0,0,0,,0,84,84,405,1,
,,,,,,,,,,,,,,,,,,5e18ca0eba65e719f09679ba,2020-08-10_17h49.23.029,lexical_decision_task_MP,2020.1.3,MacIntel,60,,m,1,0.70057,,,,,,,,0.70057,1,,,,,,30,WORD,UN,50,weapon,ORIENT,m,,,,,,-0.025086806,-0.428546007,0,0,0,,0,85,85,209,1,
,,,,,,,,,,,,,,,,,,5e18ca0eba65e719f09679ba,2020-08-10_17h49.23.029,lexical_decision_task_MP,2020.1.3,MacIntel,60,,m,1,0.60085,,,,,,,,0.60085,1,,,,,,100,WORD,"ID",33,carbon,CARBON,m,,,,,,-0.025086806,-0.428546007,0,0,0,,0,86,86,39,1,
,,,,,,,,,,,,,,,,,,5e18ca0eba65e719f09679ba,2020-08-10_17h49.23.029,lexical_decision_task_MP,2020.1.3,MacIntel,60,,m,1,0.567785,,,,,,,,0.567785,1,,,,,,44,WORD,UN,50,clergy,DANGER,m,,,,,,-0.025086806,-0.428546007,0,0,0,,0,87,87,223,1,
,,,,,,,,,,,,,,,,,,5e18ca0eba65e719f09679ba,2020-08-10_17h49.23.029,lexical_decision_task_MP,2020.1.3,MacIntel,60,,m,1,0.584285,,,,,,,,0.584285,1,,,,,,240,WORD,UN,33,seldom,FOREST,m,,,,,,-0.025086806,-0.428546007,0,0,0,,0,88,88,179,1,
,,,,,,,,,,,,,,,,,,5e18ca0eba65e719f09679ba,2020-08-10_17h49.23.029,lexical_decision_task_MP,2020.1.3,MacIntel,60,,m,1,0.467755,,,,,,,,0.467755,1,,,,,,110,WORD,"ID",33,polite,POLITE,m,,,,,,-0.025086806,-0.428546007,0,0,0,,0,89,89,49,1,
,,,,,,,,,,,,,,,,,,5e18ca0eba65e719f09679ba,2020-08-10_17h49.23.029,lexical_decision_task_MP,2020.1.3,MacIntel,60,,z,1,0.701275,,,,,,,,0.701275,1,,,,,,384,NW,"ID",50,guesco,GUESCO,z,,,,,,-0.025086806,-0.428546007,0,0,0,,0,90,90,323,1,
,,,,,,,,,,,,,,,,,,5e18ca0eba65e719f09679ba,2020-08-10_17h49.23.029,lexical_decision_task_MP,2020.1.3,MacIntel,60,,m,1,0.53441,,,,,,,,0.53441,1,,,,,,113,WORD,"ID",33,chorus,CHORUS,m,,,,,,-0.025086806,-0.428546007,0,0,0,,0,91,91,52,1,
,,,,,,,,,,,,,,,,,,5e18ca0eba65e719f09679ba,2020-08-10_17h49.23.029,lexical_decision_task_MP,2020.1.3,MacIntel,60,,z,1,0.518025,,,,,,,,0.518025,1,,,,,,263,NW,UN,50,vackel,DOLICA,z,,,,,,-0.025086806,-0.428546007,0,0,0,,0,92,92,442,1,
,,,,,,,,,,,,,,,,,,5e18ca0eba65e719f09679ba,2020-08-10_17h49.23.029,lexical_decision_task_MP,2020.1.3,MacIntel,60,,z,0,0.53409,,,,,,,,0.53409,0,,,,,,224,WORD,UN,33,vulgar,PERIOD,m,,,,,,-0.025086806,-0.428546007,0,0,0,,0,93,93,163,1,
,,,,,,,,,,,,,,,,,,5e18ca0eba65e719f09679ba,2020-08-10_17h49.23.029,lexical_decision_task_MP,2020.1.3,MacIntel,60,,z,0,0.536395,,,,,,,,0.536395,0,,,,,,74,WORD,"ID",33,plaque,PLAQUE,m,,,,,,-0.025086806,-0.428546007,0,0,0,,0,94,94,13,1,
,,,,,,,,,,,,,,,,,,5e18ca0eba65e719f09679ba,2020-08-10_17h49.23.029,lexical_decision_task_MP,2020.1.3,MacIntel,60,,m,1,1.08414,,,,,,,,1.08414,1,,,,,,221,WORD,UN,33,hinder,MASCOT,m,,,,,,-0.025086806,-0.428546007,0,0,0,,0,95,95,160,1,
,,,,,,,,,,,,,,,,,,5e18ca0eba65e719f09679ba,2020-08-10_17h49.23.029,lexical_decision_task_MP,2020.1.3,MacIntel,60,,m,1,0.535255,,,,,,,,0.535255,1,,,,,,201,WORD,UN,33,factor,ADMIRE,m,,,,,,-0.025086806,-0.428546007,0,0,0,,0,96,96,140,1,
,,,,,,,,,,,,,,,,,,5e18ca0eba65e719f09679ba,2020-08-10_17h49.23.029,lexical_decision_task_MP,2020.1.3,MacIntel,60,,z,1,0.600905,,,,,,,,0.600905,1,,,,,,309,NW,"ID",33,amiloy,AMILOY,z,,,,,,-0.025086806,-0.428546007,0,0,0,,0,97,97,248,1,
,,,,,,,,,,,,,,,,,,5e18ca0eba65e719f09679ba,2020-08-10_17h49.23.029,lexical_decision_task_MP,2020.1.3,MacIntel,60,,m,1,0.63424,,,,,,,,0.63424,1,,,,,,163,WORD,"ID",50,string,STRING,m,,,,,,-0.025086806,-0.428546007,0,0,0,,0,98,98,102,1,
,,,,,,,,,,,,,,,,,,5e18ca0eba65e719f09679ba,2020-08-10_17h49.23.029,lexical_decision_task_MP,2020.1.3,MacIntel,60,,m,1,0.538265,,,,,,,,0.538265,1,,,,,,211,WORD,UN,33,verify,INFECT,m,,,,,,-0.025086806,-0.428546007,0,0,0,,0,99,99,150,1,
,,,,,,,,,,,,,,,,,,5e18ca0eba65e719f09679ba,2020-08-10_17h49.23.029,lexical_decision_task_MP,2020.1.3,MacIntel,60,,z,1,0.55073,,,,,,,,0.55073,1,,,,,,340,NW,"ID",33,fiatch,FIATCH,z,,,,,,-0.025086806,-0.428546007,0,0,0,,0,100,100,279,1,
,,,,,,,,,,,,,,,,,,5e18ca0eba65e719f09679ba,2020-08-10_17h49.23.029,lexical_decision_task_MP,2020.1.3,MacIntel,60,,m,1,0.58404,,,,,,,,0.58404,1,,,,,,177,WORD,"ID",50,advent,ADVENT,m,,,,,,-0.025086806,-0.428546007,0,0,0,,0,101,101,116,1,
,,,,,,,,,,,,,,,,,,5e18ca0eba65e719f09679ba,2020-08-10_17h49.23.029,lexical_decision_task_MP,2020.1.3,MacIntel,60,,m,1,0.700685,,,,,,,,0.700685,1,,,,,,43,WORD,UN,50,foster,TONGUE,m,,,,,,-0.025086806,-0.428546007,0,0,0,,0,102,102,222,1,
,,,,,,,,,,,,,,,,,,5e18ca0eba65e719f09679ba,2020-08-10_17h49.23.029,lexical_decision_task_MP,2020.1.3,MacIntel,60,,z,1,0.583385,,,,,,,,0.583385,1,,,,,,279,NW,UN,50,curbol,CELOND,z,,,,,,-0.025086806,-0.428546007,0,0,0,,0,103,103,458,1,
,,,,,,,,,,,,,,,,,,5e18ca0eba65e719f09679ba,2020-08-10_17h49.23.029,lexical_decision_task_MP,2020.1.3,MacIntel,60,,m,1,0.46955,,,,,,,,0.46955,1,,,,,,46,WORD,UN,50,income,SINGLE,m,,,,,,-0.025086806,-0.428546007,0,0,0,,0,104,104,225,1,
,,,,,,,,,,,,,,,,,,5e18ca0eba65e719f09679ba,2020-08-10_17h49.23.029,lexical_decision_task_MP,2020.1.3,MacIntel,60,,z,1,0.685545,,,,,,,,0.685545,1,,,,,,270,NW,UN,50,aubrid,WRIMSY,z,,,,,,-0.025086806,-0.428546007,0,0,0,,0,105,105,449,1,
,,,,,,,,,,,,,,,,,,5e18ca0eba65e719f09679ba,2020-08-10_17h49.23.029,lexical_decision_task_MP,2020.1.3,MacIntel,60,,m,1,0.502985,,,,,,,,0.502985,1,,,,,,169,WORD,"ID",50,genius,GENIUS,m,,,,,,-0.025086806,-0.428546007,0,0,0,,0,106,106,108,1,
,,,,,,,,,,,,,,,,,,5e18ca0eba65e719f09679ba,2020-08-10_17h49.23.029,lexical_decision_task_MP,2020.1.3,MacIntel,60,,z,1,0.551065,,,,,,,,0.551065,1,,,,,,457,NW,UN,33,barcet,WANIGH,z,,,,,,-0.025086806,-0.428546007,0,0,0,,0,107,107,396,1,
,,,,,,,,,,,,,,,,,,5e18ca0eba65e719f09679ba,2020-08-10_17h49.23.029,lexical_decision_task_MP,2020.1.3,MacIntel,60,,z,1,0.519495,,,,,,,,0.519495,1,,,,,,401,NW,"ID",50,mustil,MUSTIL,z,,,,,,-0.025086806,-0.428546007,0,0,0,,0,108,108,340,1,
,,,,,,,,,,,,,,,,,,5e18ca0eba65e719f09679ba,2020-08-10_17h49.23.029,lexical_decision_task_MP,2020.1.3,MacIntel,60,,z,1,0.634285,,,,,,,,0.634285,1,,,,,,360,NW,"ID",33,desory,DESORY,z,,,,,,-0.025086806,-0.428546007,0,0,0,,0,109,109,299,1,
,,,,,,,,,,,,,,,,,,5e18ca0eba65e719f09679ba,2020-08-10_17h49.23.029,lexical_decision_task_MP,2020.1.3,MacIntel,60,,m,1,0.51207,,,,,,,,0.51207,1,,,,,,218,WORD,UN,33,bucket,SHRINK,m,,,,,,-0.025086806,-0.428546007,0,0,0,,0,110,110,157,1,
,,,,,,,,,,,,,,,,,,5e18ca0eba65e719f09679ba,2020-08-10_17h49.23.029,lexical_decision_task_MP,2020.1.3,MacIntel,60,,m,1,0.58277,,,,,,,,0.58277,1,,,,,,23,WORD,UN,50,praise,WEALTH,m,,,,,,-0.025086806,-0.428546007,0,0,0,,0,111,111,202,1,
,,,,,,,,,,,,,,,,,,5e18ca0eba65e719f09679ba,2020-08-10_17h49.23.029,lexical_decision_task_MP,2020.1.3,MacIntel,60,,m,1,0.58475,,,,,,,,0.58475,1,,,,,,226,WORD,UN,33,flower,CASINO,m,,,,,,-0.025086806,-0.428546007,0,0,0,,0,112,112,165,1,
,,,,,,,,,,,,,,,,,,5e18ca0eba65e719f09679ba,2020-08-10_17h49.23.029,lexical_decision_task_MP,2020.1.3,MacIntel,60,,m,1,0.58361,,,,,,,,0.58361,1,,,,,,50,WORD,UN,50,hungry,SNATCH,m,,,,,,-0.025086806,-0.428546007,0,0,0,,0,113,113,229,1,
,,,,,,,,,,,,,,,,,,5e18ca0eba65e719f09679ba,2020-08-10_17h49.23.029,lexical_decision_task_MP,2020.1.3,MacIntel,60,,m,1,0.53721,,,,,,,,0.53721,1,,,,,,14,WORD,UN,50,orange,ALMOST,m,,,,,,-0.025086806,-0.428546007,0,0,0,,0,114,114,193,1,
,,,,,,,,,,,,,,,,,,5e18ca0eba65e719f09679ba,2020-08-10_17h49.23.029,lexical_decision_task_MP,2020.1.3,MacIntel,60,,m,1,0.75059,,,,,,,,0.75059,1,,,,,,28,WORD,UN,50,sketch,COMEDY,m,,,,,,-0.025086806,-0.428546007,0,0,0,,0,115,115,207,1,
,,,,,,,,,,,,,,,,,,5e18ca0eba65e719f09679ba,2020-08-10_17h49.23.029,lexical_decision_task_MP,2020.1.3,MacIntel,60,,,0,,,,,,,,,0.75059,-1,,,,,,357,NW,"ID",33,derain,DERAIN,z,,,,,,-0.025086806,-0.428546007,0,0,0,,0,116,116,296,1,
,,,,,,,,,,,,,,,,,,5e18ca0eba65e719f09679ba,2020-08-10_17h49.23.029,lexical_decision_task_MP,2020.1.3,MacIntel,60,,z,1,0.768585,,,,,,,,0.768585,1,,,,,,364,NW,"ID",50,impote,IMPOTE,z,,,,,,-0.025086806,-0.428546007,0,0,0,,0,117,117,303,1,
,,,,,,,,,,,,,,,,,,5e18ca0eba65e719f09679ba,2020-08-10_17h49.23.029,lexical_decision_task_MP,2020.1.3,MacIntel,60,,m,0,0.58407,,,,,,,,0.58407,0,,,,,,248,NW,UN,50,batrol,STROLE,z,,,,,,-0.025086806,-0.428546007,0,0,0,,0,118,118,427,1,
,,,,,,,,,,,,,,,,,,5e18ca0eba65e719f09679ba,2020-08-10_17h49.23.029,lexical_decision_task_MP,2020.1.3,MacIntel,60,,m,1,1.200695,,,,,,,,1.200695,1,,,,,,40,WORD,UN,50,spring,CONVEY,m,,,,,,-0.025086806,-0.428546007,0,0,0,,0,119,119,219,1,
,,,,,,,,,,,,,,,,,,5e18ca0eba65e719f09679ba,2020-08-10_17h49.23.029,lexical_decision_task_MP,2020.1.3,MacIntel,60,,m,1,0.48809,,,,,,,,0.48809,1,,,,,,196,WORD,UN,33,stream,CREDIT,m,,,,,,0.030625,-0.40265191,1,0,0,,0,120,120,135,1,break_done_button
,,,,,,,,,,,,,,,,,,5e18ca0eba65e719f09679ba,2020-08-10_17h49.23.029,lexical_decision_task_MP,2020.1.3,MacIntel,60,,m,1,1.268405,,,,,,,,1.268405,1,,,,,,129,WORD,"ID",50,marvel,MARVEL,m,,,,,,0.030373264,-0.40265191,0,0,0,,0,121,121,68,1,
,,,,,,,,,,,,,,,,,,5e18ca0eba65e719f09679ba,2020-08-10_17h49.23.029,lexical_decision_task_MP,2020.1.3,MacIntel,60,,z,1,0.719925,,,,,,,,0.719925,1,,,,,,418,NW,"ID",50,suidle,SUIDLE,z,,,,,,0.030373264,-0.40265191,0,0,0,,0,122,122,357,1,
,,,,,,,,,,,,,,,,,,5e18ca0eba65e719f09679ba,2020-08-10_17h49.23.029,lexical_decision_task_MP,2020.1.3,MacIntel,60,,z,1,0.58488,,,,,,,,0.58488,1,,,,,,422,NW,UN,33,streld,ALCOUD,z,,,,,,0.030373264,-0.40265191,0,0,0,,0,123,123,361,1,
,,,,,,,,,,,,,,,,,,5e18ca0eba65e719f09679ba,2020-08-10_17h49.23.029,lexical_decision_task_MP,2020.1.3,MacIntel,60,,m,1,0.516945,,,,,,,,0.516945,1,,,,,,11,WORD,UN,50,amount,CRUISE,m,,,,,,0.030373264,-0.40265191,0,0,0,,0,124,124,190,1,
,,,,,,,,,,,,,,,,,,5e18ca0eba65e719f09679ba,2020-08-10_17h49.23.029,lexical_decision_task_MP,2020.1.3,MacIntel,60,,m,1,0.56659,,,,,,,,0.56659,1,,,,,,192,WORD,UN,33,object,PLAGUE,m,,,,,,0.030373264,-0.40265191,0,0,0,,0,125,125,131,1,
,,,,,,,,,,,,,,,,,,5e18ca0eba65e719f09679ba,2020-08-10_17h49.23.029,lexical_decision_task_MP,2020.1.3,MacIntel,60,,m,1,0.51846,,,,,,,,0.51846,1,,,,,,214,WORD,UN,33,phobia,INTAKE,m,,,,,,0.030373264,-0.40265191,0,0,0,,0,126,126,153,1,
,,,,,,,,,,,,,,,,,,5e18ca0eba65e719f09679ba,2020-08-10_17h49.23.029,lexical_decision_task_MP,2020.1.3,MacIntel,60,,m,1,0.53403,,,,,,,,0.53403,1,,,,,,36,WORD,UN,50,insult,VANISH,m,,,,,,0.030373264,-0.40265191,0,0,0,,0,127,127,215,1,
,,,,,,,,,,,,,,,,,,5e18ca0eba65e719f09679ba,2020-08-10_17h49.23.029,lexical_decision_task_MP,2020.1.3,MacIntel,60,,m,1,0.51786,,,,,,,,0.51786,1,,,,,,54,WORD,UN,50,stroke,RAMBLE,m,,,,,,0.030373264,-0.40265191,0,0,0,,0,128,128,233,1,
,,,,,,,,,,,,,,,,,,5e18ca0eba65e719f09679ba,2020-08-10_17h49.23.029,lexical_decision_task_MP,2020.1.3,MacIntel,60,,m,1,0.60225,,,,,,,,0.60225,1,,,,,,184,WORD,UN,33,bother,SLEAZY,m,,,,,,0.030373264,-0.40265191,0,0,0,,0,129,129,123,1,
,,,,,,,,,,,,,,,,,,5e18ca0eba65e719f09679ba,2020-08-10_17h49.23.029,lexical_decision_task_MP,2020.1.3,MacIntel,60,,z,1,0.58799,,,,,,,,0.58799,1,,,,,,393,NW,"ID",50,ganous,GANOUS,z,,,,,,0.030373264,-0.40265191,0,0,0,,0,130,130,332,1,
,,,,,,,,,,,,,,,,,,5e18ca0eba65e719f09679ba,2020-08-10_17h49.23.029,lexical_decision_task_MP,2020.1.3,MacIntel,60,,z,1,0.93392,,,,,,,,0.93392,1,,,,,,462,NW,UN,33,kispel,ABSULT,z,,,,,,0.030373264,-0.40265191,0,0,0,,0,131,131,401,1,
,,,,,,,,,,,,,,,,,,5e18ca0eba65e719f09679ba,2020-08-10_17h49.23.029,lexical_decision_task_MP,2020.1.3,MacIntel,60,,z,1,0.5025,,,,,,,,0.5025,1,,,,,,431,NW,UN,33,lunker,CHRUMS,z,,,,,,0.030373264,-0.40265191,0,0,0,,0,132,132,370,1,
,,,,,,,,,,,,,,,,,,5e18ca0eba65e719f09679ba,2020-08-10_17h49.23.029,lexical_decision_task_MP,2020.1.3,MacIntel,60,,m,1,0.5508,,,,,,,,0.5508,1,,,,,,126,WORD,"ID",50,enough,ENOUGH,m,,,,,,0.030373264,-0.40265191,0,0,0,,0,133,133,65,1,
,,,,,,,,,,,,,,,,,,5e18ca0eba65e719f09679ba,2020-08-10_17h49.23.029,lexical_decision_task_MP,2020.1.3,MacIntel,60,,m,1,0.46885,,,,,,,,0.46885,1,,,,,,179,WORD,"ID",50,basket,BASKET,m,,,,,,0.030373264,-0.40265191,0,0,0,,0,134,134,118,1,
,,,,,,,,,,,,,,,,,,5e18ca0eba65e719f09679ba,2020-08-10_17h49.23.029,lexical_decision_task_MP,2020.1.3,MacIntel,60,,z,1,0.56986,,,,,,,,0.56986,1,,,,,,292,NW,UN,50,swance,ABLINT,z,,,,,,0.030373264,-0.40265191,0,0,0,,0,135,135,471,1,
,,,,,,,,,,,,,,,,,,5e18ca0eba65e719f09679ba,2020-08-10_17h49.23.029,lexical_decision_task_MP,2020.1.3,MacIntel,60,,z,1,0.60084,,,,,,,,0.60084,1,,,,,,266,NW,UN,50,pasink,VARMIT,z,,,,,,0.030373264,-0.40265191,0,0,0,,0,136,136,445,1,
,,,,,,,,,,,,,,,,,,5e18ca0eba65e719f09679ba,2020-08-10_17h49.23.029,lexical_decision_task_MP,2020.1.3,MacIntel,60,,z,1,0.50053,,,,,,,,0.50053,1,,,,,,367,NW,"ID",50,slique,SLIQUE,z,,,,,,0.030373264,-0.40265191,0,0,0,,0,137,137,306,1,
,,,,,,,,,,,,,,,,,,5e18ca0eba65e719f09679ba,2020-08-10_17h49.23.029,lexical_decision_task_MP,2020.1.3,MacIntel,60,,m,1,0.567935,,,,,,,,0.567935,1,,,,,,26,WORD,UN,50,butler,SPRINT,m,,,,,,0.030373264,-0.40265191,0,0,0,,0,138,138,205,1,
,,,,,,,,,,,,,,,,,,5e18ca0eba65e719f09679ba,2020-08-10_17h49.23.029,lexical_decision_task_MP,2020.1.3,MacIntel,60,,m,1,0.505105,,,,,,,,0.505105,1,,,,,,105,WORD,"ID",33,number,NUMBER,m,,,,,,0.030373264,-0.40265191,0,0,0,,0,139,139,44,1,
,,,,,,,,,,,,,,,,,,5e18ca0eba65e719f09679ba,2020-08-10_17h49.23.029,lexical_decision_task_MP,2020.1.3,MacIntel,60,,z,1,0.66829,,,,,,,,0.66829,1,,,,,,428,NW,UN,33,funtle,TANDLY,z,,,,,,0.030373264,-0.40265191,0,0,0,,0,140,140,367,1,
,,,,,,,,,,,,,,,,,,5e18ca0eba65e719f09679ba,2020-08-10_17h49.23.029,lexical_decision_task_MP,2020.1.3,MacIntel,60,,z,1,0.685725,,,,,,,,0.685725,1,,,,,,381,NW,"ID",50,huniek,HUNIEK,z,,,,,,0.030373264,-0.40265191,0,0,0,,0,141,141,320,1,
,,,,,,,,,,,,,,,,,,5e18ca0eba65e719f09679ba,2020-08-10_17h49.23.029,lexical_decision_task_MP,2020.1.3,MacIntel,60,,m,1,0.546375,,,,,,,,0.546375,1,,,,,,157,WORD,"ID",50,dragon,DRAGON,m,,,,,,0.030373264,-0.40265191,0,0,0,,0,142,142,96,1,
,,,,,,,,,,,,,,,,,,5e18ca0eba65e719f09679ba,2020-08-10_17h49.23.029,lexical_decision_task_MP,2020.1.3,MacIntel,60,,z,1,0.551525,,,,,,,,0.551525,1,,,,,,472,NW,UN,33,gorbie,CIGNEY,z,,,,,,0.030373264,-0.40265191,0,0,0,,0,143,143,411,1,
,,,,,,,,,,,,,,,,,,5e18ca0eba65e719f09679ba,2020-08-10_17h49.23.029,lexical_decision_task_MP,2020.1.3,MacIntel,60,,z,1,0.5702,,,,,,,,0.5702,1,,,,,,460,NW,UN,33,justre,MINGAR,z,,,,,,0.030373264,-0.40265191,0,0,0,,0,144,144,399,1,
,,,,,,,,,,,,,,,,,,5e18ca0eba65e719f09679ba,2020-08-10_17h49.23.029,lexical_decision_task_MP,2020.1.3,MacIntel,60,,z,1,0.500365,,,,,,,,0.500365,1,,,,,,399,NW,"ID",50,fouret,FOURET,z,,,,,,0.030373264,-0.40265191,0,0,0,,0,145,145,338,1,
,,,,,,,,,,,,,,,,,,5e18ca0eba65e719f09679ba,2020-08-10_17h49.23.029,lexical_decision_task_MP,2020.1.3,MacIntel,60,,z,1,0.73429,,,,,,,,0.73429,1,,,,,,352,NW,"ID",33,tringe,TRINGE,z,,,,,,0.030373264,-0.40265191,0,0,0,,0,146,146,291,1,
,,,,,,,,,,,,,,,,,,5e18ca0eba65e719f09679ba,2020-08-10_17h49.23.029,lexical_decision_task_MP,2020.1.3,MacIntel,60,,z,1,0.517735,,,,,,,,0.517735,1,,,,,,467,NW,UN,33,wictor,GORBIE,z,,,,,,0.030373264,-0.40265191,0,0,0,,0,147,147,406,1,
,,,,,,,,,,,,,,,,,,5e18ca0eba65e719f09679ba,2020-08-10_17h49.23.029,lexical_decision_task_MP,2020.1.3,MacIntel,60,,z,1,0.50384,,,,,,,,0.50384,1,,,,,,468,NW,UN,33,padifs,WICTOR,z,,,,,,0.030373264,-0.40265191,0,0,0,,0,148,148,407,1,
,,,,,,,,,,,,,,,,,,5e18ca0eba65e719f09679ba,2020-08-10_17h49.23.029,lexical_decision_task_MP,2020.1.3,MacIntel,60,,m,1,0.467505,,,,,,,,0.467505,1,,,,,,168,WORD,"ID",50,answer,ANSWER,m,,,,,,0.030373264,-0.40265191,0,0,0,,0,149,149,107,1,
,,,,,,,,,,,,,,,,,,5e18ca0eba65e719f09679ba,2020-08-10_17h49.23.029,lexical_decision_task_MP,2020.1.3,MacIntel,60,,m,1,0.48376,,,,,,,,0.48376,1,,,,,,197,WORD,UN,33,wicked,STREAM,m,,,,,,0.030373264,-0.40265191,0,0,0,,0,150,150,136,1,
,,,,,,,,,,,,,,,,,,5e18ca0eba65e719f09679ba,2020-08-10_17h49.23.029,lexical_decision_task_MP,2020.1.3,MacIntel,60,,z,1,0.501295,,,,,,,,0.501295,1,,,,,,374,NW,"ID",50,sliant,SLIANT,z,,,,,,0.030373264,-0.40265191,0,0,0,,0,151,151,313,1,
,,,,,,,,,,,,,,,,,,5e18ca0eba65e719f09679ba,2020-08-10_17h49.23.029,lexical_decision_task_MP,2020.1.3,MacIntel,60,,z,1,0.534795,,,,,,,,0.534795,1,,,,,,313,NW,"ID",33,paurse,PAURSE,z,,,,,,0.030373264,-0.40265191,0,0,0,,0,152,152,252,1,
,,,,,,,,,,,,,,,,,,5e18ca0eba65e719f09679ba,2020-08-10_17h49.23.029,lexical_decision_task_MP,2020.1.3,MacIntel,60,,z,1,0.433685,,,,,,,,0.433685,1,,,,,,389,NW,"ID",50,witmer,WITMER,z,,,,,,0.030373264,-0.40265191,0,0,0,,0,153,153,328,1,
,,,,,,,,,,,,,,,,,,5e18ca0eba65e719f09679ba,2020-08-10_17h49.23.029,lexical_decision_task_MP,2020.1.3,MacIntel,60,,z,1,0.45125,,,,,,,,0.45125,1,,,,,,267,NW,UN,50,packes,PASINK,z,,,,,,0.030373264,-0.40265191,0,0,0,,0,154,154,446,1,
,,,,,,,,,,,,,,,,,,5e18ca0eba65e719f09679ba,2020-08-10_17h49.23.029,lexical_decision_task_MP,2020.1.3,MacIntel,60,,z,1,0.51767,,,,,,,,0.51767,1,,,,,,354,NW,"ID",33,virlex,VIRLEX,z,,,,,,0.030373264,-0.40265191,0,0,0,,0,155,155,293,1,
,,,,,,,,,,,,,,,,,,5e18ca0eba65e719f09679ba,2020-08-10_17h49.23.029,lexical_decision_task_MP,2020.1.3,MacIntel,60,,m,1,0.6509,,,,,,,,0.6509,1,,,,,,156,WORD,"ID",50,cradle,CRADLE,m,,,,,,0.030373264,-0.40265191,0,0,0,,0,156,156,95,1,
,,,,,,,,,,,,,,,,,,5e18ca0eba65e719f09679ba,2020-08-10_17h49.23.029,lexical_decision_task_MP,2020.1.3,MacIntel,60,,z,1,0.501105,,,,,,,,0.501105,1,,,,,,251,NW,UN,50,stapod,LUPICT,z,,,,,,0.030373264,-0.40265191,0,0,0,,0,157,157,430,1,
,,,,,,,,,,,,,,,,,,5e18ca0eba65e719f09679ba,2020-08-10_17h49.23.029,lexical_decision_task_MP,2020.1.3,MacIntel,60,,m,1,0.5521,,,,,,,,0.5521,1,,,,,,76,WORD,"ID",33,exotic,EXOTIC,m,,,,,,0.030373264,-0.40265191,0,0,0,,0,158,158,15,1,
,,,,,,,,,,,,,,,,,,5e18ca0eba65e719f09679ba,2020-08-10_17h49.23.029,lexical_decision_task_MP,2020.1.3,MacIntel,60,,z,0,0.56943,,,,,,,,0.56943,0,,,,,,47,WORD,UN,50,walnut,INCOME,m,,,,,,0.030373264,-0.40265191,0,0,0,,0,159,159,226,1,
,,,,,,,,,,,,,,,,,,5e18ca0eba65e719f09679ba,2020-08-10_17h49.23.029,lexical_decision_task_MP,2020.1.3,MacIntel,60,,m,1,0.833265,,,,,,,,0.833265,1,,,,,,127,WORD,"ID",50,castle,CASTLE,m,,,,,,0.030373264,-0.40265191,0,0,0,,0,160,160,66,1,
,,,,,,,,,,,,,,,,,,5e18ca0eba65e719f09679ba,2020-08-10_17h49.23.029,lexical_decision_task_MP,2020.1.3,MacIntel,60,,m,1,0.6316,,,,,,,,0.6316,1,,,,,,85,WORD,"ID",33,sprawl,SPRAWL,m,,,,,,0.030373264,-0.40265191,0,0,0,,0,161,161,24,1,
,,,,,,,,,,,,,,,,,,5e18ca0eba65e719f09679ba,2020-08-10_17h49.23.029,lexical_decision_task_MP,2020.1.3,MacIntel,60,,m,1,0.666785,,,,,,,,0.666785,1,,,,,,212,WORD,UN,33,squeal,VERIFY,m,,,,,,0.030373264,-0.40265191,0,0,0,,0,162,162,151,1,
,,,,,,,,,,,,,,,,,,5e18ca0eba65e719f09679ba,2020-08-10_17h49.23.029,lexical_decision_task_MP,2020.1.3,MacIntel,60,,m,1,0.483465,,,,,,,,0.483465,1,,,,,,21,WORD,UN,50,jockey,SIMPLE,m,,,,,,0.030373264,-0.40265191,0,0,0,,0,163,163,200,1,
,,,,,,,,,,,,,,,,,,5e18ca0eba65e719f09679ba,2020-08-10_17h49.23.029,lexical_decision_task_MP,2020.1.3,MacIntel,60,,m,1,0.60132,,,,,,,,0.60132,1,,,,,,104,WORD,"ID",33,studio,STUDIO,m,,,,,,0.030373264,-0.40265191,0,0,0,,0,164,164,43,1,
,,,,,,,,,,,,,,,,,,5e18ca0eba65e719f09679ba,2020-08-10_17h49.23.029,lexical_decision_task_MP,2020.1.3,MacIntel,60,,m,1,0.7149,,,,,,,,0.7149,1,,,,,,59,WORD,UN,50,pencil,SPLINT,m,,,,,,0.030373264,-0.40265191,0,0,0,,0,165,165,238,1,
,,,,,,,,,,,,,,,,,,5e18ca0eba65e719f09679ba,2020-08-10_17h49.23.029,lexical_decision_task_MP,2020.1.3,MacIntel,60,,z,1,0.65169,,,,,,,,0.65169,1,,,,,,449,NW,UN,33,phrect,BRUNGE,z,,,,,,0.030373264,-0.40265191,0,0,0,,0,166,166,388,1,
,,,,,,,,,,,,,,,,,,5e18ca0eba65e719f09679ba,2020-08-10_17h49.23.029,lexical_decision_task_MP,2020.1.3,MacIntel,60,,z,1,0.517455,,,,,,,,0.517455,1,,,,,,262,NW,UN,50,dolica,QUILEW,z,,,,,,0.030373264,-0.40265191,0,0,0,,0,167,167,441,1,
,,,,,,,,,,,,,,,,,,5e18ca0eba65e719f09679ba,2020-08-10_17h49.23.029,lexical_decision_task_MP,2020.1.3,MacIntel,60,,z,1,0.633615,,,,,,,,0.633615,1,,,,,,480,NW,UN,33,knisma,ROBULY,z,,,,,,0.030373264,-0.40265191,0,0,0,,0,168,168,419,1,
,,,,,,,,,,,,,,,,,,5e18ca0eba65e719f09679ba,2020-08-10_17h49.23.029,lexical_decision_task_MP,2020.1.3,MacIntel,60,,z,1,0.61988,,,,,,,,0.61988,1,,,,,,255,NW,UN,50,inlors,APIGHT,z,,,,,,0.030373264,-0.40265191,0,0,0,,0,169,169,434,1,
,,,,,,,,,,,,,,,,,,5e18ca0eba65e719f09679ba,2020-08-10_17h49.23.029,lexical_decision_task_MP,2020.1.3,MacIntel,60,,m,1,0.61705,,,,,,,,0.61705,1,,,,,,4,WORD,UN,50,plunge,TRENCH,m,,,,,,0.030373264,-0.40265191,0,0,0,,0,170,170,183,1,
,,,,,,,,,,,,,,,,,,5e18ca0eba65e719f09679ba,2020-08-10_17h49.23.029,lexical_decision_task_MP,2020.1.3,MacIntel,60,,z,1,0.65119,,,,,,,,0.65119,1,,,,,,425,NW,UN,33,urivel,FRUDGE,z,,,,,,0.030373264,-0.40265191,0,0,0,,0,171,171,364,1,
,,,,,,,,,,,,,,,,,,5e18ca0eba65e719f09679ba,2020-08-10_17h49.23.029,lexical_decision_task_MP,2020.1.3,MacIntel,60,,m,1,0.60077,,,,,,,,0.60077,1,,,,,,61,WORD,"ID",33,ponder,PONDER,m,,,,,,0.030373264,-0.40265191,0,0,0,,0,172,172,0,1,
,,,,,,,,,,,,,,,,,,5e18ca0eba65e719f09679ba,2020-08-10_17h49.23.029,lexical_decision_task_MP,2020.1.3,MacIntel,60,,z,1,0.520865,,,,,,,,0.520865,1,,,,,,390,NW,"ID",50,hatrus,HATRUS,z,,,,,,0.030373264,-0.40265191,0,0,0,,0,173,173,329,1,
,,,,,,,,,,,,,,,,,,5e18ca0eba65e719f09679ba,2020-08-10_17h49.23.029,lexical_decision_task_MP,2020.1.3,MacIntel,60,,m,1,0.58119,,,,,,,,0.58119,1,,,,,,188,WORD,UN,33,censor,SOCIAL,m,,,,,,0.030373264,-0.40265191,0,0,0,,0,174,174,127,1,
,,,,,,,,,,,,,,,,,,5e18ca0eba65e719f09679ba,2020-08-10_17h49.23.029,lexical_decision_task_MP,2020.1.3,MacIntel,60,,m,1,0.53467,,,,,,,,0.53467,1,,,,,,223,WORD,UN,33,period,KIDNEY,m,,,,,,0.030373264,-0.40265191,0,0,0,,0,175,175,162,1,
,,,,,,,,,,,,,,,,,,5e18ca0eba65e719f09679ba,2020-08-10_17h49.23.029,lexical_decision_task_MP,2020.1.3,MacIntel,60,,z,1,0.56139,,,,,,,,0.56139,1,,,,,,465,NW,UN,33,bafent,WHIVEX,z,,,,,,0.030373264,-0.40265191,0,0,0,,0,176,176,404,1,
,,,,,,,,,,,,,,,,,,5e18ca0eba65e719f09679ba,2020-08-10_17h49.23.029,lexical_decision_task_MP,2020.1.3,MacIntel,60,,z,1,0.65111,,,,,,,,0.65111,1,,,,,,400,NW,"ID",50,wearox,WEAROX,z,,,,,,0.030373264,-0.40265191,0,0,0,,0,177,177,339,1,
,,,,,,,,,,,,,,,,,,5e18ca0eba65e719f09679ba,2020-08-10_17h49.23.029,lexical_decision_task_MP,2020.1.3,MacIntel,60,,z,1,1.01809,,,,,,,,1.01809,1,,,,,,455,NW,UN,33,broget,TONDLE,z,,,,,,0.030373264,-0.40265191,0,0,0,,0,178,178,394,1,
,,,,,,,,,,,,,,,,,,5e18ca0eba65e719f09679ba,2020-08-10_17h49.23.029,lexical_decision_task_MP,2020.1.3,MacIntel,60,,m,1,1.201715,,,,,,,,1.201715,1,,,,,,233,WORD,UN,33,clumsy,NATURE,m,,,,,,0.030373264,-0.40265191,0,0,0,,0,179,179,172,1,
,,,,,,,,,,,,,,,,,,5e18ca0eba65e719f09679ba,2020-08-10_17h49.23.029,lexical_decision_task_MP,2020.1.3,MacIntel,60,,z,1,0.5379,,,,,,,,0.5379,1,,,,,,315,NW,"ID",33,laston,LASTON,z,,,,,,0.030373264,-0.40265191,0,0,0,,0,180,180,254,1,
,,,,,,,,,,,,,,,,,,5e18ca0eba65e719f09679ba,2020-08-10_17h49.23.029,lexical_decision_task_MP,2020.1.3,MacIntel,60,,m,1,0.501085,,,,,,,,0.501085,1,,,,,,12,WORD,UN,50,strive,ORANGE,m,,,,,,0.030373264,-0.40265191,0,0,0,,0,181,181,191,1,
,,,,,,,,,,,,,,,,,,5e18ca0eba65e719f09679ba,2020-08-10_17h49.23.029,lexical_decision_task_MP,2020.1.3,MacIntel,60,,m,1,0.5846,,,,,,,,0.5846,1,,,,,,94,WORD,"ID",33,travel,TRAVEL,m,,,,,,0.030373264,-0.40265191,0,0,0,,0,182,182,33,1,
,,,,,,,,,,,,,,,,,,5e18ca0eba65e719f09679ba,2020-08-10_17h49.23.029,lexical_decision_task_MP,2020.1.3,MacIntel,60,,z,1,1.319205,,,,,,,,1.319205,1,,,,,,433,NW,UN,33,pitrom,DRANCE,z,,,,,,0.030373264,-0.40265191,0,0,0,,0,183,183,372,1,
,,,,,,,,,,,,,,,,,,5e18ca0eba65e719f09679ba,2020-08-10_17h49.23.029,lexical_decision_task_MP,2020.1.3,MacIntel,60,,z,1,0.634155,,,,,,,,0.634155,1,,,,,,296,NW,UN,50,fertic,BEINCH,z,,,,,,0.030373264,-0.40265191,0,0,0,,0,184,184,475,1,
,,,,,,,,,,,,,,,,,,5e18ca0eba65e719f09679ba,2020-08-10_17h49.23.029,lexical_decision_task_MP,2020.1.3,MacIntel,60,,m,1,0.51769,,,,,,,,0.51769,1,,,,,,65,WORD,"ID",33,symbol,SYMBOL,m,,,,,,0.030373264,-0.40265191,0,0,0,,0,185,185,4,1,
,,,,,,,,,,,,,,,,,,5e18ca0eba65e719f09679ba,2020-08-10_17h49.23.029,lexical_decision_task_MP,2020.1.3,MacIntel,60,,z,1,0.734915,,,,,,,,0.734915,1,,,,,,423,NW,UN,33,praile,STRELD,z,,,,,,0.030373264,-0.40265191,0,0,0,,0,186,186,362,1,
,,,,,,,,,,,,,,,,,,5e18ca0eba65e719f09679ba,2020-08-10_17h49.23.029,lexical_decision_task_MP,2020.1.3,MacIntel,60,,m,1,0.717765,,,,,,,,0.717765,1,,,,,,106,WORD,"ID",33,ransom,RANSOM,m,,,,,,0.030373264,-0.40265191,0,0,0,,0,187,187,45,1,
,,,,,,,,,,,,,,,,,,5e18ca0eba65e719f09679ba,2020-08-10_17h49.23.029,lexical_decision_task_MP,2020.1.3,MacIntel,60,,m,1,0.750905,,,,,,,,0.750905,1,,,,,,217,WORD,UN,33,shrink,LIQUOR,m,,,,,,0.030373264,-0.40265191,0,0,0,,0,188,188,156,1,
,,,,,,,,,,,,,,,,,,5e18ca0eba65e719f09679ba,2020-08-10_17h49.23.029,lexical_decision_task_MP,2020.1.3,MacIntel,60,,z,1,0.70109,,,,,,,,0.70109,1,,,,,,252,NW,UN,50,resait,STAPOD,z,,,,,,0.030373264,-0.40265191,0,0,0,,0,189,189,431,1,
,,,,,,,,,,,,,,,,,,5e18ca0eba65e719f09679ba,2020-08-10_17h49.23.029,lexical_decision_task_MP,2020.1.3,MacIntel,60,,z,0,0.717865,,,,,,,,0.717865,0,,,,,,238,WORD,UN,33,behalf,FLOWER,m,,,,,,0.030373264,-0.40265191,0,0,0,,0,190,190,177,1,
,,,,,,,,,,,,,,,,,,5e18ca0eba65e719f09679ba,2020-08-10_17h49.23.029,lexical_decision_task_MP,2020.1.3,MacIntel,60,,m,1,0.66801,,,,,,,,0.66801,1,,,,,,194,WORD,UN,33,resign,ABSENT,m,,,,,,0.030373264,-0.40265191,0,0,0,,0,191,191,133,1,
,,,,,,,,,,,,,,,,,,5e18ca0eba65e719f09679ba,2020-08-10_17h49.23.029,lexical_decision_task_MP,2020.1.3,MacIntel,60,,z,1,0.601295,,,,,,,,0.601295,1,,,,,,346,NW,"ID",33,saudic,SAUDIC,z,,,,,,0.030373264,-0.40265191,0,0,0,,0,192,192,285,1,
,,,,,,,,,,,,,,,,,,5e18ca0eba65e719f09679ba,2020-08-10_17h49.23.029,lexical_decision_task_MP,2020.1.3,MacIntel,60,,m,1,0.567475,,,,,,,,0.567475,1,,,,,,18,WORD,UN,50,patron,HUMBLE,m,,,,,,0.030373264,-0.40265191,0,0,0,,0,193,193,197,1,
,,,,,,,,,,,,,,,,,,5e18ca0eba65e719f09679ba,2020-08-10_17h49.23.029,lexical_decision_task_MP,2020.1.3,MacIntel,60,,z,1,0.600415,,,,,,,,0.600415,1,,,,,,475,NW,UN,33,josted,PEBRIC,z,,,,,,0.030373264,-0.40265191,0,0,0,,0,194,194,414,1,
,,,,,,,,,,,,,,,,,,5e18ca0eba65e719f09679ba,2020-08-10_17h49.23.029,lexical_decision_task_MP,2020.1.3,MacIntel,60,,z,1,0.550825,,,,,,,,0.550825,1,,,,,,414,NW,"ID",50,serbol,SERBOL,z,,,,,,0.030373264,-0.40265191,0,0,0,,0,195,195,353,1,
,,,,,,,,,,,,,,,,,,5e18ca0eba65e719f09679ba,2020-08-10_17h49.23.029,lexical_decision_task_MP,2020.1.3,MacIntel,60,,m,1,0.73528,,,,,,,,0.73528,1,,,,,,2,WORD,UN,50,knight,BRIDGE,m,,,,,,0.030373264,-0.40265191,0,0,0,,0,196,196,181,1,
,,,,,,,,,,,,,,,,,,5e18ca0eba65e719f09679ba,2020-08-10_17h49.23.029,lexical_decision_task_MP,2020.1.3,MacIntel,60,,m,1,0.51779,,,,,,,,0.51779,1,,,,,,78,WORD,"ID",33,column,COLUMN,m,,,,,,0.030373264,-0.40265191,0,0,0,,0,197,197,17,1,
,,,,,,,,,,,,,,,,,,5e18ca0eba65e719f09679ba,2020-08-10_17h49.23.029,lexical_decision_task_MP,2020.1.3,MacIntel,60,,z,1,0.55085,,,,,,,,0.55085,1,,,,,,407,NW,"ID",50,suiver,SUIVER,z,,,,,,0.030373264,-0.40265191,0,0,0,,0,198,198,346,1,
,,,,,,,,,,,,,,,,,,5e18ca0eba65e719f09679ba,2020-08-10_17h49.23.029,lexical_decision_task_MP,2020.1.3,MacIntel,60,,z,1,0.63604,,,,,,,,0.63604,1,,,,,,427,NW,UN,33,tandly,SCHIND,z,,,,,,0.030373264,-0.40265191,0,0,0,,0,199,199,366,1,
,,,,,,,,,,,,,,,,,,5e18ca0eba65e719f09679ba,2020-08-10_17h49.23.029,lexical_decision_task_MP,2020.1.3,MacIntel,60,,z,1,0.633495,,,,,,,,0.633495,1,,,,,,334,NW,"ID",33,watmeg,WATMEG,z,,,,,,0.030373264,-0.40265191,0,0,0,,0,200,200,273,1,
,,,,,,,,,,,,,,,,,,5e18ca0eba65e719f09679ba,2020-08-10_17h49.23.029,lexical_decision_task_MP,2020.1.3,MacIntel,60,,m,1,0.603565,,,,,,,,0.603565,1,,,,,,158,WORD,"ID",50,island,ISLAND,m,,,,,,0.030373264,-0.40265191,0,0,0,,0,201,201,97,1,
,,,,,,,,,,,,,,,,,,5e18ca0eba65e719f09679ba,2020-08-10_17h49.23.029,lexical_decision_task_MP,2020.1.3,MacIntel,60,,z,1,0.565155,,,,,,,,0.565155,1,,,,,,448,NW,UN,33,brunge,SADENT,z,,,,,,0.030373264,-0.40265191,0,0,0,,0,202,202,387,1,
,,,,,,,,,,,,,,,,,,5e18ca0eba65e719f09679ba,2020-08-10_17h49.23.029,lexical_decision_task_MP,2020.1.3,MacIntel,60,,m,1,0.622495,,,,,,,,0.622495,1,,,,,,62,WORD,"ID",33,region,REGION,m,,,,,,0.030373264,-0.40265191,0,0,0,,0,203,203,1,1,
,,,,,,,,,,,,,,,,,,5e18ca0eba65e719f09679ba,2020-08-10_17h49.23.029,lexical_decision_task_MP,2020.1.3,MacIntel,60,,z,1,0.569585,,,,,,,,0.569585,1,,,,,,337,NW,"ID",33,rejols,REJOLS,z,,,,,,0.030373264,-0.40265191,0,0,0,,0,204,204,276,1,
,,,,,,,,,,,,,,,,,,5e18ca0eba65e719f09679ba,2020-08-10_17h49.23.029,lexical_decision_task_MP,2020.1.3,MacIntel,60,,m,1,0.567735,,,,,,,,0.567735,1,,,,,,206,WORD,UN,33,wreath,TAILOR,m,,,,,,0.030373264,-0.40265191,0,0,0,,0,205,205,145,1,
,,,,,,,,,,,,,,,,,,5e18ca0eba65e719f09679ba,2020-08-10_17h49.23.029,lexical_decision_task_MP,2020.1.3,MacIntel,60,,m,1,0.50111,,,,,,,,0.50111,1,,,,,,124,WORD,"ID",50,blouse,BLOUSE,m,,,,,,0.030373264,-0.40265191,0,0,0,,0,206,206,63,1,
,,,,,,,,,,,,,,,,,,5e18ca0eba65e719f09679ba,2020-08-10_17h49.23.029,lexical_decision_task_MP,2020.1.3,MacIntel,60,,z,1,0.585875,,,,,,,,0.585875,1,,,,,,473,NW,UN,33,hablin,CRIBLE,z,,,,,,0.030373264,-0.40265191,0,0,0,,0,207,207,412,1,
,,,,,,,,,,,,,,,,,,5e18ca0eba65e719f09679ba,2020-08-10_17h49.23.029,lexical_decision_task_MP,2020.1.3,MacIntel,60,,m,1,0.73448,,,,,,,,0.73448,1,,,,,,230,WORD,UN,33,mother,FRINGE,m,,,,,,0.030373264,-0.40265191,0,0,0,,0,208,208,169,1,
,,,,,,,,,,,,,,,,,,5e18ca0eba65e719f09679ba,2020-08-10_17h49.23.029,lexical_decision_task_MP,2020.1.3,MacIntel,60,,z,1,0.5174,,,,,,,,0.5174,1,,,,,,336,NW,"ID",33,ghodus,GHODUS,z,,,,,,0.030373264,-0.40265191,0,0,0,,0,209,209,275,1,
,,,,,,,,,,,,,,,,,,5e18ca0eba65e719f09679ba,2020-08-10_17h49.23.029,lexical_decision_task_MP,2020.1.3,MacIntel,60,,z,1,0.517165,,,,,,,,0.517165,1,,,,,,245,NW,UN,50,piaton,ANOUGS,z,,,,,,0.030373264,-0.40265191,0,0,0,,0,210,210,424,1,
,,,,,,,,,,,,,,,,,,5e18ca0eba65e719f09679ba,2020-08-10_17h49.23.029,lexical_decision_task_MP,2020.1.3,MacIntel,60,,m,1,0.517605,,,,,,,,0.517605,1,,,,,,182,WORD,UN,33,absent,WINTER,m,,,,,,0.030373264,-0.40265191,0,0,0,,0,211,211,121,1,
,,,,,,,,,,,,,,,,,,5e18ca0eba65e719f09679ba,2020-08-10_17h49.23.029,lexical_decision_task_MP,2020.1.3,MacIntel,60,,z,1,0.538775,,,,,,,,0.538775,1,,,,,,370,NW,"ID",50,sleact,SLEACT,z,,,,,,0.030373264,-0.40265191,0,0,0,,0,212,212,309,1,
,,,,,,,,,,,,,,,,,,5e18ca0eba65e719f09679ba,2020-08-10_17h49.23.029,lexical_decision_task_MP,2020.1.3,MacIntel,60,,z,1,0.586385,,,,,,,,0.586385,1,,,,,,253,NW,UN,50,varosh,RESAIT,z,,,,,,0.030373264,-0.40265191,0,0,0,,0,213,213,432,1,
,,,,,,,,,,,,,,,,,,5e18ca0eba65e719f09679ba,2020-08-10_17h49.23.029,lexical_decision_task_MP,2020.1.3,MacIntel,60,,m,1,0.585445,,,,,,,,0.585445,1,,,,,,235,WORD,UN,33,pirate,GRUMPY,m,,,,,,0.030373264,-0.40265191,0,0,0,,0,214,214,174,1,
,,,,,,,,,,,,,,,,,,5e18ca0eba65e719f09679ba,2020-08-10_17h49.23.029,lexical_decision_task_MP,2020.1.3,MacIntel,60,,m,1,0.617485,,,,,,,,0.617485,1,,,,,,237,WORD,UN,33,glance,POSTER,m,,,,,,0.030373264,-0.40265191,0,0,0,,0,215,215,176,1,
,,,,,,,,,,,,,,,,,,5e18ca0eba65e719f09679ba,2020-08-10_17h49.23.029,lexical_decision_task_MP,2020.1.3,MacIntel,60,,m,1,0.900835,,,,,,,,0.900835,1,,,,,,176,WORD,"ID",50,strife,STRIFE,m,,,,,,0.030373264,-0.40265191,0,0,0,,0,216,216,115,1,
,,,,,,,,,,,,,,,,,,5e18ca0eba65e719f09679ba,2020-08-10_17h49.23.029,lexical_decision_task_MP,2020.1.3,MacIntel,60,,m,1,0.435095,,,,,,,,0.435095,1,,,,,,229,WORD,UN,33,fringe,MOTHER,m,,,,,,0.030373264,-0.40265191,0,0,0,,0,217,217,168,1,
,,,,,,,,,,,,,,,,,,5e18ca0eba65e719f09679ba,2020-08-10_17h49.23.029,lexical_decision_task_MP,2020.1.3,MacIntel,60,,z,1,0.67065,,,,,,,,0.67065,1,,,,,,461,NW,UN,33,absult,JUSTRE,z,,,,,,0.030373264,-0.40265191,0,0,0,,0,218,218,400,1,
,,,,,,,,,,,,,,,,,,5e18ca0eba65e719f09679ba,2020-08-10_17h49.23.029,lexical_decision_task_MP,2020.1.3,MacIntel,60,,m,1,0.54941,,,,,,,,0.54941,1,,,,,,49,WORD,UN,50,snatch,SURVEY,m,,,,,,0.030373264,-0.40265191,0,0,0,,0,219,219,228,1,
,,,,,,,,,,,,,,,,,,5e18ca0eba65e719f09679ba,2020-08-10_17h49.23.029,lexical_decision_task_MP,2020.1.3,MacIntel,60,,m,1,0.501475,,,,,,,,0.501475,1,,,,,,147,WORD,"ID",50,garlic,GARLIC,m,,,,,,0.030373264,-0.40265191,0,0,0,,0,220,220,86,1,
,,,,,,,,,,,,,,,,,,5e18ca0eba65e719f09679ba,2020-08-10_17h49.23.029,lexical_decision_task_MP,2020.1.3,MacIntel,60,,z,0,0.70324,,,,,,,,0.70324,0,,,,,,200,WORD,UN,33,admire,BEACON,m,,,,,,0.030373264,-0.40265191,0,0,0,,0,221,221,139,1,
,,,,,,,,,,,,,,,,,,5e18ca0eba65e719f09679ba,2020-08-10_17h49.23.029,lexical_decision_task_MP,2020.1.3,MacIntel,60,,z,1,1.234545,,,,,,,,1.234545,1,,,,,,325,NW,"ID",33,thruse,THRUSE,z,,,,,,0.030373264,-0.40265191,0,0,0,,0,222,222,264,1,
,,,,,,,,,,,,,,,,,,5e18ca0eba65e719f09679ba,2020-08-10_17h49.23.029,lexical_decision_task_MP,2020.1.3,MacIntel,60,,z,1,1.16772,,,,,,,,1.16772,1,,,,,,408,NW,"ID",50,hurnia,HURNIA,z,,,,,,0.030373264,-0.40265191,0,0,0,,0,223,223,347,1,
,,,,,,,,,,,,,,,,,,5e18ca0eba65e719f09679ba,2020-08-10_17h49.23.029,lexical_decision_task_MP,2020.1.3,MacIntel,60,,z,1,0.769625,,,,,,,,0.769625,1,,,,,,387,NW,"ID",50,gronce,GRONCE,z,,,,,,0.030373264,-0.40265191,0,0,0,,0,224,224,326,1,
,,,,,,,,,,,,,,,,,,5e18ca0eba65e719f09679ba,2020-08-10_17h49.23.029,lexical_decision_task_MP,2020.1.3,MacIntel,60,,m,1,0.48699,,,,,,,,0.48699,1,,,,,,130,WORD,"ID",50,stupid,STUPID,m,,,,,,0.030373264,-0.40265191,0,0,0,,0,225,225,69,1,
,,,,,,,,,,,,,,,,,,5e18ca0eba65e719f09679ba,2020-08-10_17h49.23.029,lexical_decision_task_MP,2020.1.3,MacIntel,60,,m,1,0.468715,,,,,,,,0.468715,1,,,,,,180,WORD,"ID",50,silent,SILENT,m,,,,,,0.030373264,-0.40265191,0,0,0,,0,226,226,119,1,
,,,,,,,,,,,,,,,,,,5e18ca0eba65e719f09679ba,2020-08-10_17h49.23.029,lexical_decision_task_MP,2020.1.3,MacIntel,60,,z,1,0.73452,,,,,,,,0.73452,1,,,,,,437,NW,UN,33,baitch,SNAPEL,z,,,,,,0.030373264,-0.40265191,0,0,0,,0,227,227,376,1,
,,,,,,,,,,,,,,,,,,5e18ca0eba65e719f09679ba,2020-08-10_17h49.23.029,lexical_decision_task_MP,2020.1.3,MacIntel,60,,m,1,0.532855,,,,,,,,0.532855,1,,,,,,90,WORD,"ID",33,relish,RELISH,m,,,,,,0.030373264,-0.40265191,0,0,0,,0,228,228,29,1,
,,,,,,,,,,,,,,,,,,5e18ca0eba65e719f09679ba,2020-08-10_17h49.23.029,lexical_decision_task_MP,2020.1.3,MacIntel,60,,z,1,0.53438,,,,,,,,0.53438,1,,,,,,406,NW,"ID",50,nouply,NOUPLY,z,,,,,,0.030373264,-0.40265191,0,0,0,,0,229,229,345,1,
,,,,,,,,,,,,,,,,,,5e18ca0eba65e719f09679ba,2020-08-10_17h49.23.029,lexical_decision_task_MP,2020.1.3,MacIntel,60,,z,1,0.5555,,,,,,,,0.5555,1,,,,,,446,NW,UN,33,gircue,RUNAMO,z,,,,,,0.030373264,-0.40265191,0,0,0,,0,230,230,385,1,
,,,,,,,,,,,,,,,,,,5e18ca0eba65e719f09679ba,2020-08-10_17h49.23.029,lexical_decision_task_MP,2020.1.3,MacIntel,60,,m,1,0.617985,,,,,,,,0.617985,1,,,,,,166,WORD,"ID",50,starch,STARCH,m,,,,,,0.030373264,-0.40265191,0,0,0,,0,231,231,105,1,
,,,,,,,,,,,,,,,,,,5e18ca0eba65e719f09679ba,2020-08-10_17h49.23.029,lexical_decision_task_MP,2020.1.3,MacIntel,60,,m,1,0.81757,,,,,,,,0.81757,1,,,,,,222,WORD,UN,33,export,HINDER,m,,,,,,0.030373264,-0.40265191,0,0,0,,0,232,232,161,1,
,,,,,,,,,,,,,,,,,,5e18ca0eba65e719f09679ba,2020-08-10_17h49.23.029,lexical_decision_task_MP,2020.1.3,MacIntel,60,,z,1,0.71769,,,,,,,,0.71769,1,,,,,,271,NW,UN,50,damilt,AUBRID,z,,,,,,0.030373264,-0.40265191,0,0,0,,0,233,233,450,1,
,,,,,,,,,,,,,,,,,,5e18ca0eba65e719f09679ba,2020-08-10_17h49.23.029,lexical_decision_task_MP,2020.1.3,MacIntel,60,,z,1,0.71744,,,,,,,,0.71744,1,,,,,,441,NW,UN,33,aboune,RASTOE,z,,,,,,0.030373264,-0.40265191,0,0,0,,0,234,234,380,1,
,,,,,,,,,,,,,,,,,,5e18ca0eba65e719f09679ba,2020-08-10_17h49.23.029,lexical_decision_task_MP,2020.1.3,MacIntel,60,,z,1,0.663605,,,,,,,,0.663605,1,,,,,,459,NW,UN,33,mingar,BAFENT,z,,,,,,0.030373264,-0.40265191,0,0,0,,0,235,235,398,1,
,,,,,,,,,,,,,,,,,,5e18ca0eba65e719f09679ba,2020-08-10_17h49.23.029,lexical_decision_task_MP,2020.1.3,MacIntel,60,,z,1,0.56733,,,,,,,,0.56733,1,,,,,,388,NW,"ID",50,cragin,CRAGIN,z,,,,,,0.030373264,-0.40265191,0,0,0,,0,236,236,327,1,
,,,,,,,,,,,,,,,,,,5e18ca0eba65e719f09679ba,2020-08-10_17h49.23.029,lexical_decision_task_MP,2020.1.3,MacIntel,60,,z,1,0.60107,,,,,,,,0.60107,1,,,,,,319,NW,"ID",33,zomber,ZOMBER,z,,,,,,0.030373264,-0.40265191,0,0,0,,0,237,237,258,1,
,,,,,,,,,,,,,,,,,,5e18ca0eba65e719f09679ba,2020-08-10_17h49.23.029,lexical_decision_task_MP,2020.1.3,MacIntel,60,,m,1,0.567225,,,,,,,,0.567225,1,,,,,,111,WORD,"ID",33,induce,INDUCE,m,,,,,,0.030373264,-0.40265191,0,0,0,,0,238,238,50,1,
,,,,,,,,,,,,,,,,,,5e18ca0eba65e719f09679ba,2020-08-10_17h49.23.029,lexical_decision_task_MP,2020.1.3,MacIntel,60,,z,1,0.434475,,,,,,,,0.434475,1,,,,,,421,NW,UN,33,alcoud,KNISMA,z,,,,,,0.030373264,-0.40265191,0,0,0,,0,239,239,360,1,
,,,,,,,,,,,,,,,,,,5e18ca0eba65e719f09679ba,2020-08-10_17h49.23.029,lexical_decision_task_MP,2020.1.3,MacIntel,60,,m,1,0.665375,,,,,,,,0.665375,1,,,,,,174,WORD,"ID",50,turkey,TURKEY,m,,,,,,0.030373264,-0.40265191,0,0,0,,0,240,240,113,1,
,,,,,,,,,,,,,,,,,,5e18ca0eba65e719f09679ba,2020-08-10_17h49.23.029,lexical_decision_task_MP,2020.1.3,MacIntel,60,,z,1,0.53446,,,,,,,,0.53446,1,,,,,,382,NW,"ID",50,sarley,SARLEY,z,,,,,,0.028919271,-0.401514757,1,0,0,,0,241,241,321,1,break_done_button
,,,,,,,,,,,,,,,,,,5e18ca0eba65e719f09679ba,2020-08-10_17h49.23.029,lexical_decision_task_MP,2020.1.3,MacIntel,60,,z,1,0.86545,,,,,,,,0.86545,1,,,,,,348,NW,"ID",33,dumple,DUMPLE,z,,,,,,0.028415799,-0.401592882,0,0,0,,0,242,242,287,1,
,,,,,,,,,,,,,,,,,,5e18ca0eba65e719f09679ba,2020-08-10_17h49.23.029,lexical_decision_task_MP,2020.1.3,MacIntel,60,,z,1,0.51424,,,,,,,,0.51424,1,,,,,,478,NW,UN,33,pebric,ACRISE,z,,,,,,0.028415799,-0.401592882,0,0,0,,0,243,243,417,1,
,,,,,,,,,,,,,,,,,,5e18ca0eba65e719f09679ba,2020-08-10_17h49.23.029,lexical_decision_task_MP,2020.1.3,MacIntel,60,,z,1,0.48425,,,,,,,,0.48425,1,,,,,,323,NW,"ID",33,rosail,ROSAIL,z,,,,,,0.028415799,-0.401592882,0,0,0,,0,244,244,262,1,
,,,,,,,,,,,,,,,,,,5e18ca0eba65e719f09679ba,2020-08-10_17h49.23.029,lexical_decision_task_MP,2020.1.3,MacIntel,60,,m,1,0.568295,,,,,,,,0.568295,1,,,,,,89,WORD,"ID",33,permit,PERMIT,m,,,,,,0.028415799,-0.401592882,0,0,0,,0,245,245,28,1,
,,,,,,,,,,,,,,,,,,5e18ca0eba65e719f09679ba,2020-08-10_17h49.23.029,lexical_decision_task_MP,2020.1.3,MacIntel,60,,z,1,0.533815,,,,,,,,0.533815,1,,,,,,353,NW,"ID",33,clurey,CLUREY,z,,,,,,0.028415799,-0.401592882,0,0,0,,0,246,246,292,1,
,,,,,,,,,,,,,,,,,,5e18ca0eba65e719f09679ba,2020-08-10_17h49.23.029,lexical_decision_task_MP,2020.1.3,MacIntel,60,,m,1,0.56781,,,,,,,,0.56781,1,,,,,,170,WORD,"ID",50,pounce,POUNCE,m,,,,,,0.028415799,-0.401592882,0,0,0,,0,247,247,109,1,
,,,,,,,,,,,,,,,,,,5e18ca0eba65e719f09679ba,2020-08-10_17h49.23.029,lexical_decision_task_MP,2020.1.3,MacIntel,60,,m,1,0.517615,,,,,,,,0.517615,1,,,,,,48,WORD,UN,50,survey,WALNUT,m,,,,,,0.028415799,-0.401592882,0,0,0,,0,248,248,227,1,
,,,,,,,,,,,,,,,,,,5e18ca0eba65e719f09679ba,2020-08-10_17h49.23.029,lexical_decision_task_MP,2020.1.3,MacIntel,60,,m,1,0.484355,,,,,,,,0.484355,1,,,,,,55,WORD,UN,50,ambush,STROKE,m,,,,,,0.028415799,-0.401592882,0,0,0,,0,249,249,234,1,
,,,,,,,,,,,,,,,,,,5e18ca0eba65e719f09679ba,2020-08-10_17h49.23.029,lexical_decision_task_MP,2020.1.3,MacIntel,60,,z,1,0.583705,,,,,,,,0.583705,1,,,,,,265,NW,UN,50,varmit,DISTAR,z,,,,,,0.028415799,-0.401592882,0,0,0,,0,250,250,444,1,
,,,,,,,,,,,,,,,,,,5e18ca0eba65e719f09679ba,2020-08-10_17h49.23.029,lexical_decision_task_MP,2020.1.3,MacIntel,60,,z,1,0.415645,,,,,,,,0.415645,1,,,,,,362,NW,"ID",50,tireau,TIREAU,z,,,,,,0.028415799,-0.401592882,0,0,0,,0,251,251,301,1,
,,,,,,,,,,,,,,,,,,5e18ca0eba65e719f09679ba,2020-08-10_17h49.23.029,lexical_decision_task_MP,2020.1.3,MacIntel,60,,z,1,0.484835,,,,,,,,0.484835,1,,,,,,280,NW,UN,50,melaty,CURBOL,z,,,,,,0.028415799,-0.401592882,0,0,0,,0,252,252,459,1,
,,,,,,,,,,,,,,,,,,5e18ca0eba65e719f09679ba,2020-08-10_17h49.23.029,lexical_decision_task_MP,2020.1.3,MacIntel,60,,m,1,0.51491,,,,,,,,0.51491,1,,,,,,205,WORD,UN,33,tailor,LOUNGE,m,,,,,,0.028415799,-0.401592882,0,0,0,,0,253,253,144,1,
,,,,,,,,,,,,,,,,,,5e18ca0eba65e719f09679ba,2020-08-10_17h49.23.029,lexical_decision_task_MP,2020.1.3,MacIntel,60,,z,1,0.665935,,,,,,,,0.665935,1,,,,,,420,NW,"ID",50,gushop,GUSHOP,z,,,,,,0.028415799,-0.401592882,0,0,0,,0,254,254,359,1,
,,,,,,,,,,,,,,,,,,5e18ca0eba65e719f09679ba,2020-08-10_17h49.23.029,lexical_decision_task_MP,2020.1.3,MacIntel,60,,m,1,0.563935,,,,,,,,0.563935,1,,,,,,116,WORD,"ID",33,tumble,TUMBLE,m,,,,,,0.028415799,-0.401592882,0,0,0,,0,255,255,55,1,
,,,,,,,,,,,,,,,,,,5e18ca0eba65e719f09679ba,2020-08-10_17h49.23.029,lexical_decision_task_MP,2020.1.3,MacIntel,60,,m,1,0.533745,,,,,,,,0.533745,1,,,,,,17,WORD,UN,50,humble,CHARGE,m,,,,,,0.028415799,-0.401592882,0,0,0,,0,256,256,196,1,
,,,,,,,,,,,,,,,,,,5e18ca0eba65e719f09679ba,2020-08-10_17h49.23.029,lexical_decision_task_MP,2020.1.3,MacIntel,60,,m,1,0.651105,,,,,,,,0.651105,1,,,,,,189,WORD,UN,33,backup,CENSOR,m,,,,,,0.028415799,-0.401592882,0,0,0,,0,257,257,128,1,
,,,,,,,,,,,,,,,,,,5e18ca0eba65e719f09679ba,2020-08-10_17h49.23.029,lexical_decision_task_MP,2020.1.3,MacIntel,60,,m,1,0.67245,,,,,,,,0.67245,1,,,,,,107,WORD,"ID",33,slogan,SLOGAN,m,,,,,,0.028415799,-0.401592882,0,0,0,,0,258,258,46,1,
,,,,,,,,,,,,,,,,,,5e18ca0eba65e719f09679ba,2020-08-10_17h49.23.029,lexical_decision_task_MP,2020.1.3,MacIntel,60,,z,1,0.51987,,,,,,,,0.51987,1,,,,,,330,NW,"ID",33,kensom,KENSOM,z,,,,,,0.028415799,-0.401592882,0,0,0,,0,259,259,269,1,
,,,,,,,,,,,,,,,,,,5e18ca0eba65e719f09679ba,2020-08-10_17h49.23.029,lexical_decision_task_MP,2020.1.3,MacIntel,60,,m,1,0.61756,,,,,,,,0.61756,1,,,,,,68,WORD,"ID",33,fumble,FUMBLE,m,,,,,,0.028415799,-0.401592882,0,0,0,,0,260,260,7,1,
,,,,,,,,,,,,,,,,,,5e18ca0eba65e719f09679ba,2020-08-10_17h49.23.029,lexical_decision_task_MP,2020.1.3,MacIntel,60,,m,1,0.635565,,,,,,,,0.635565,1,,,,,,92,WORD,"ID",33,strand,STRAND,m,,,,,,0.028415799,-0.401592882,0,0,0,,0,261,261,31,1,
,,,,,,,,,,,,,,,,,,5e18ca0eba65e719f09679ba,2020-08-10_17h49.23.029,lexical_decision_task_MP,2020.1.3,MacIntel,60,,m,1,0.585875,,,,,,,,0.585875,1,,,,,,97,WORD,"ID",33,client,CLIENT,m,,,,,,0.028415799,-0.401592882,0,0,0,,0,262,262,36,1,
,,,,,,,,,,,,,,,,,,5e18ca0eba65e719f09679ba,2020-08-10_17h49.23.029,lexical_decision_task_MP,2020.1.3,MacIntel,60,,m,1,0.5661,,,,,,,,0.5661,1,,,,,,25,WORD,UN,50,sprint,DOMAIN,m,,,,,,0.028415799,-0.401592882,0,0,0,,0,263,263,204,1,
,,,,,,,,,,,,,,,,,,5e18ca0eba65e719f09679ba,2020-08-10_17h49.23.029,lexical_decision_task_MP,2020.1.3,MacIntel,60,,m,1,0.578765,,,,,,,,0.578765,1,,,,,,120,WORD,"ID",33,strain,STRAIN,m,,,,,,0.028415799,-0.401592882,0,0,0,,0,264,264,59,1,
,,,,,,,,,,,,,,,,,,5e18ca0eba65e719f09679ba,2020-08-10_17h49.23.029,lexical_decision_task_MP,2020.1.3,MacIntel,60,,z,1,0.578805,,,,,,,,0.578805,1,,,,,,410,NW,"ID",50,tunory,TUNORY,z,,,,,,0.028415799,-0.401592882,0,0,0,,0,265,265,349,1,
,,,,,,,,,,,,,,,,,,5e18ca0eba65e719f09679ba,2020-08-10_17h49.23.029,lexical_decision_task_MP,2020.1.3,MacIntel,60,,m,1,1.136965,,,,,,,,1.136965,1,,,,,,203,WORD,UN,33,burden,PHRASE,m,,,,,,0.028415799,-0.401592882,0,0,0,,0,266,266,142,1,
,,,,,,,,,,,,,,,,,,5e18ca0eba65e719f09679ba,2020-08-10_17h49.23.029,lexical_decision_task_MP,2020.1.3,MacIntel,60,,m,1,0.55076,,,,,,,,0.55076,1,,,,,,190,WORD,UN,33,stable,BACKUP,m,,,,,,0.028415799,-0.401592882,0,0,0,,0,267,267,129,1,
,,,,,,,,,,,,,,,,,,5e18ca0eba65e719f09679ba,2020-08-10_17h49.23.029,lexical_decision_task_MP,2020.1.3,MacIntel,60,,m,1,0.50135,,,,,,,,0.50135,1,,,,,,101,WORD,"ID",33,wrench,WRENCH,m,,,,,,0.028415799,-0.401592882,0,0,0,,0,268,268,40,1,
,,,,,,,,,,,,,,,,,,5e18ca0eba65e719f09679ba,2020-08-10_17h49.23.029,lexical_decision_task_MP,2020.1.3,MacIntel,60,,m,1,0.5003,,,,,,,,0.5003,1,,,,,,109,WORD,"ID",33,wonder,WONDER,m,,,,,,0.028415799,-0.401592882,0,0,0,,0,269,269,48,1,
,,,,,,,,,,,,,,,,,,5e18ca0eba65e719f09679ba,2020-08-10_17h49.23.029,lexical_decision_task_MP,2020.1.3,MacIntel,60,,m,1,0.50511,,,,,,,,0.50511,1,,,,,,81,WORD,"ID",33,friend,FRIEND,m,,,,,,0.028415799,-0.401592882,0,0,0,,0,270,270,20,1,
,,,,,,,,,,,,,,,,,,5e18ca0eba65e719f09679ba,2020-08-10_17h49.23.029,lexical_decision_task_MP,2020.1.3,MacIntel,60,,z,1,0.517975,,,,,,,,0.517975,1,,,,,,308,NW,"ID",33,psetch,PSETCH,z,,,,,,0.028415799,-0.401592882,0,0,0,,0,271,271,247,1,
,,,,,,,,,,,,,,,,,,5e18ca0eba65e719f09679ba,2020-08-10_17h49.23.029,lexical_decision_task_MP,2020.1.3,MacIntel,60,,z,1,0.501215,,,,,,,,0.501215,1,,,,,,287,NW,UN,50,yaceup,NYMBEL,z,,,,,,0.028415799,-0.401592882,0,0,0,,0,272,272,466,1,
,,,,,,,,,,,,,,,,,,5e18ca0eba65e719f09679ba,2020-08-10_17h49.23.029,lexical_decision_task_MP,2020.1.3,MacIntel,60,,z,1,0.58431,,,,,,,,0.58431,1,,,,,,305,NW,"ID",33,forgle,FORGLE,z,,,,,,0.028415799,-0.401592882,0,0,0,,0,273,273,244,1,
,,,,,,,,,,,,,,,,,,5e18ca0eba65e719f09679ba,2020-08-10_17h49.23.029,lexical_decision_task_MP,2020.1.3,MacIntel,60,,m,1,0.61217,,,,,,,,0.61217,1,,,,,,7,WORD,UN,50,abrupt,ANCHOR,m,,,,,,0.028415799,-0.401592882,0,0,0,,0,274,274,186,1,
,,,,,,,,,,,,,,,,,,5e18ca0eba65e719f09679ba,2020-08-10_17h49.23.029,lexical_decision_task_MP,2020.1.3,MacIntel,60,,z,1,0.71765,,,,,,,,0.71765,1,,,,,,426,NW,UN,33,schind,URIVEL,z,,,,,,0.028415799,-0.401592882,0,0,0,,0,275,275,365,1,
,,,,,,,,,,,,,,,,,,5e18ca0eba65e719f09679ba,2020-08-10_17h49.23.029,lexical_decision_task_MP,2020.1.3,MacIntel,60,,m,1,0.620005,,,,,,,,0.620005,1,,,,,,45,WORD,UN,50,single,CLERGY,m,,,,,,0.028415799,-0.401592882,0,0,0,,0,276,276,224,1,
,,,,,,,,,,,,,,,,,,5e18ca0eba65e719f09679ba,2020-08-10_17h49.23.029,lexical_decision_task_MP,2020.1.3,MacIntel,60,,z,1,0.53712,,,,,,,,0.53712,1,,,,,,438,NW,UN,33,limpor,BAITCH,z,,,,,,0.028415799,-0.401592882,0,0,0,,0,277,277,377,1,
,,,,,,,,,,,,,,,,,,5e18ca0eba65e719f09679ba,2020-08-10_17h49.23.029,lexical_decision_task_MP,2020.1.3,MacIntel,60,,z,1,0.56886,,,,,,,,0.56886,1,,,,,,404,NW,"ID",50,cluirm,CLUIRM,z,,,,,,0.028415799,-0.401592882,0,0,0,,0,278,278,343,1,
,,,,,,,,,,,,,,,,,,5e18ca0eba65e719f09679ba,2020-08-10_17h49.23.029,lexical_decision_task_MP,2020.1.3,MacIntel,60,,z,1,0.56783,,,,,,,,0.56783,1,,,,,,458,NW,UN,33,hocite,BARCET,z,,,,,,0.028415799,-0.401592882,0,0,0,,0,279,279,397,1,
,,,,,,,,,,,,,,,,,,5e18ca0eba65e719f09679ba,2020-08-10_17h49.23.029,lexical_decision_task_MP,2020.1.3,MacIntel,60,,z,1,0.45084,,,,,,,,0.45084,1,,,,,,412,NW,"ID",50,jiluer,JILUER,z,,,,,,0.028415799,-0.401592882,0,0,0,,0,280,280,351,1,
,,,,,,,,,,,,,,,,,,5e18ca0eba65e719f09679ba,2020-08-10_17h49.23.029,lexical_decision_task_MP,2020.1.3,MacIntel,60,,m,1,0.517705,,,,,,,,0.517705,1,,,,,,191,WORD,UN,33,beacon,STABLE,m,,,,,,0.028415799,-0.401592882,0,0,0,,0,281,281,130,1,
,,,,,,,,,,,,,,,,,,5e18ca0eba65e719f09679ba,2020-08-10_17h49.23.029,lexical_decision_task_MP,2020.1.3,MacIntel,60,,z,1,0.634295,,,,,,,,0.634295,1,,,,,,249,NW,UN,50,milted,BATROL,z,,,,,,0.028415799,-0.401592882,0,0,0,,0,282,282,428,1,
,,,,,,,,,,,,,,,,,,5e18ca0eba65e719f09679ba,2020-08-10_17h49.23.029,lexical_decision_task_MP,2020.1.3,MacIntel,60,,m,0,0.96781,,,,,,,,0.96781,0,,,,,,345,NW,"ID",33,absend,ABSEND,z,,,,,,0.028415799,-0.401592882,0,0,0,,0,283,283,284,1,
,,,,,,,,,,,,,,,,,,5e18ca0eba65e719f09679ba,2020-08-10_17h49.23.029,lexical_decision_task_MP,2020.1.3,MacIntel,60,,z,1,0.534385,,,,,,,,0.534385,1,,,,,,409,NW,"ID",50,elopia,ELOPIA,z,,,,,,0.028415799,-0.401592882,0,0,0,,0,284,284,348,1,
,,,,,,,,,,,,,,,,,,5e18ca0eba65e719f09679ba,2020-08-10_17h49.23.029,lexical_decision_task_MP,2020.1.3,MacIntel,60,,z,1,0.500975,,,,,,,,0.500975,1,,,,,,283,NW,UN,50,shaple,VERALF,z,,,,,,0.028415799,-0.401592882,0,0,0,,0,285,285,462,1,
,,,,,,,,,,,,,,,,,,5e18ca0eba65e719f09679ba,2020-08-10_17h49.23.029,lexical_decision_task_MP,2020.1.3,MacIntel,60,,z,1,0.467135,,,,,,,,0.467135,1,,,,,,347,NW,"ID",33,kerift,KERIFT,z,,,,,,0.028415799,-0.401592882,0,0,0,,0,286,286,286,1,
,,,,,,,,,,,,,,,,,,5e18ca0eba65e719f09679ba,2020-08-10_17h49.23.029,lexical_decision_task_MP,2020.1.3,MacIntel,60,,z,1,0.61702,,,,,,,,0.61702,1,,,,,,378,NW,"ID",50,shrile,SHRILE,z,,,,,,0.028415799,-0.401592882,0,0,0,,0,287,287,317,1,
,,,,,,,,,,,,,,,,,,5e18ca0eba65e719f09679ba,2020-08-10_17h49.23.029,lexical_decision_task_MP,2020.1.3,MacIntel,60,,z,0,0.41744,,,,,,,,0.41744,0,,,,,,69,WORD,"ID",33,plenty,PLENTY,m,,,,,,0.028415799,-0.401592882,0,0,0,,0,288,288,8,1,
,,,,,,,,,,,,,,,,,,5e18ca0eba65e719f09679ba,2020-08-10_17h49.23.029,lexical_decision_task_MP,2020.1.3,MacIntel,60,,m,1,0.420285,,,,,,,,0.420285,1,,,,,,173,WORD,"ID",50,shower,SHOWER,m,,,,,,0.028415799,-0.401592882,0,0,0,,0,289,289,112,1,
,,,,,,,,,,,,,,,,,,5e18ca0eba65e719f09679ba,2020-08-10_17h49.23.029,lexical_decision_task_MP,2020.1.3,MacIntel,60,,m,1,0.43481,,,,,,,,0.43481,1,,,,,,141,WORD,"ID",50,orphan,ORPHAN,m,,,,,,0.028415799,-0.401592882,0,0,0,,0,290,290,80,1,
,,,,,,,,,,,,,,,,,,5e18ca0eba65e719f09679ba,2020-08-10_17h49.23.029,lexical_decision_task_MP,2020.1.3,MacIntel,60,,m,1,0.552095,,,,,,,,0.552095,1,,,,,,41,WORD,UN,50,chapel,SPRING,m,,,,,,0.028415799,-0.401592882,0,0,0,,0,291,291,220,1,
,,,,,,,,,,,,,,,,,,5e18ca0eba65e719f09679ba,2020-08-10_17h49.23.029,lexical_decision_task_MP,2020.1.3,MacIntel,60,,m,1,0.451305,,,,,,,,0.451305,1,,,,,,151,WORD,"ID",50,mystic,MYSTIC,m,,,,,,0.028415799,-0.401592882,0,0,0,,0,292,292,90,1,
,,,,,,,,,,,,,,,,,,5e18ca0eba65e719f09679ba,2020-08-10_17h49.23.029,lexical_decision_task_MP,2020.1.3,MacIntel,60,,m,1,0.51776,,,,,,,,0.51776,1,,,,,,148,WORD,"ID",50,custom,CUSTOM,m,,,,,,0.028415799,-0.401592882,0,0,0,,0,293,293,87,1,
,,,,,,,,,,,,,,,,,,5e18ca0eba65e719f09679ba,2020-08-10_17h49.23.029,lexical_decision_task_MP,2020.1.3,MacIntel,60,,m,1,0.489845,,,,,,,,0.489845,1,,,,,,215,WORD,UN,33,lumber,PHOBIA,m,,,,,,0.028415799,-0.401592882,0,0,0,,0,294,294,154,1,
,,,,,,,,,,,,,,,,,,5e18ca0eba65e719f09679ba,2020-08-10_17h49.23.029,lexical_decision_task_MP,2020.1.3,MacIntel,60,,z,1,0.571465,,,,,,,,0.571465,1,,,,,,386,NW,"ID",50,ancust,ANCUST,z,,,,,,0.028415799,-0.401592882,0,0,0,,0,295,295,325,1,
,,,,,,,,,,,,,,,,,,5e18ca0eba65e719f09679ba,2020-08-10_17h49.23.029,lexical_decision_task_MP,2020.1.3,MacIntel,60,,z,1,0.61106,,,,,,,,0.61106,1,,,,,,439,NW,UN,33,saride,LIMPOR,z,,,,,,0.028415799,-0.401592882,0,0,0,,0,296,296,378,1,
,,,,,,,,,,,,,,,,,,5e18ca0eba65e719f09679ba,2020-08-10_17h49.23.029,lexical_decision_task_MP,2020.1.3,MacIntel,60,,z,1,0.56939,,,,,,,,0.56939,1,,,,,,443,NW,UN,33,jaunce,DORSEX,z,,,,,,0.028415799,-0.401592882,0,0,0,,0,297,297,382,1,
,,,,,,,,,,,,,,,,,,5e18ca0eba65e719f09679ba,2020-08-10_17h49.23.029,lexical_decision_task_MP,2020.1.3,MacIntel,60,,z,1,0.566835,,,,,,,,0.566835,1,,,,,,322,NW,"ID",33,slanch,SLANCH,z,,,,,,0.028415799,-0.401592882,0,0,0,,0,298,298,261,1,
,,,,,,,,,,,,,,,,,,5e18ca0eba65e719f09679ba,2020-08-10_17h49.23.029,lexical_decision_task_MP,2020.1.3,MacIntel,60,,z,1,0.50491,,,,,,,,0.50491,1,,,,,,303,NW,"ID",33,fiream,FIREAM,z,,,,,,0.028415799,-0.401592882,0,0,0,,0,299,299,242,1,
,,,,,,,,,,,,,,,,,,5e18ca0eba65e719f09679ba,2020-08-10_17h49.23.029,lexical_decision_task_MP,2020.1.3,MacIntel,60,,z,0,0.529665,,,,,,,,0.529665,0,,,,,,10,WORD,UN,50,cruise,ETHNIC,m,,,,,,0.028415799,-0.401592882,0,0,0,,0,300,300,189,1,
,,,,,,,,,,,,,,,,,,5e18ca0eba65e719f09679ba,2020-08-10_17h49.23.029,lexical_decision_task_MP,2020.1.3,MacIntel,60,,m,1,0.419115,,,,,,,,0.419115,1,,,,,,103,WORD,"ID",33,bounce,BOUNCE,m,,,,,,0.028415799,-0.401592882,0,0,0,,0,301,301,42,1,
,,,,,,,,,,,,,,,,,,5e18ca0eba65e719f09679ba,2020-08-10_17h49.23.029,lexical_decision_task_MP,2020.1.3,MacIntel,60,,z,1,0.52058,,,,,,,,0.52058,1,,,,,,289,NW,UN,50,splino,STARBY,z,,,,,,0.028415799,-0.401592882,0,0,0,,0,302,302,468,1,
,,,,,,,,,,,,,,,,,,5e18ca0eba65e719f09679ba,2020-08-10_17h49.23.029,lexical_decision_task_MP,2020.1.3,MacIntel,60,,z,1,0.50133,,,,,,,,0.50133,1,,,,,,290,NW,UN,50,pretch,SPLINO,z,,,,,,0.028415799,-0.401592882,0,0,0,,0,303,303,469,1,
,,,,,,,,,,,,,,,,,,5e18ca0eba65e719f09679ba,2020-08-10_17h49.23.029,lexical_decision_task_MP,2020.1.3,MacIntel,60,,m,1,0.616435,,,,,,,,0.616435,1,,,,,,98,WORD,"ID",33,belong,BELONG,m,,,,,,0.028415799,-0.401592882,0,0,0,,0,304,304,37,1,
,,,,,,,,,,,,,,,,,,5e18ca0eba65e719f09679ba,2020-08-10_17h49.23.029,lexical_decision_task_MP,2020.1.3,MacIntel,60,,z,1,0.58375,,,,,,,,0.58375,1,,,,,,335,NW,"ID",33,desion,DESION,z,,,,,,0.028415799,-0.401592882,0,0,0,,0,305,305,274,1,
,,,,,,,,,,,,,,,,,,5e18ca0eba65e719f09679ba,2020-08-10_17h49.23.029,lexical_decision_task_MP,2020.1.3,MacIntel,60,,m,1,0.54059,,,,,,,,0.54059,1,,,,,,175,WORD,"ID",50,fabric,FABRIC,m,,,,,,0.028415799,-0.401592882,0,0,0,,0,306,306,114,1,
,,,,,,,,,,,,,,,,,,5e18ca0eba65e719f09679ba,2020-08-10_17h49.23.029,lexical_decision_task_MP,2020.1.3,MacIntel,60,,m,0,1.000765,,,,,,,,1.000765,0,,,,,,444,NW,UN,33,minkel,JAUNCE,z,,,,,,0.028415799,-0.401592882,0,0,0,,0,307,307,383,1,
,,,,,,,,,,,,,,,,,,5e18ca0eba65e719f09679ba,2020-08-10_17h49.23.029,lexical_decision_task_MP,2020.1.3,MacIntel,60,,m,1,0.56717,,,,,,,,0.56717,1,,,,,,60,WORD,UN,50,fright,PENCIL,m,,,,,,0.028415799,-0.401592882,0,0,0,,0,308,308,239,1,
,,,,,,,,,,,,,,,,,,5e18ca0eba65e719f09679ba,2020-08-10_17h49.23.029,lexical_decision_task_MP,2020.1.3,MacIntel,60,,m,1,0.420695,,,,,,,,0.420695,1,,,,,,38,WORD,UN,50,insect,POWDER,m,,,,,,0.028415799,-0.401592882,0,0,0,,0,309,309,217,1,
,,,,,,,,,,,,,,,,,,5e18ca0eba65e719f09679ba,2020-08-10_17h49.23.029,lexical_decision_task_MP,2020.1.3,MacIntel,60,,z,1,1.20073,,,,,,,,1.20073,1,,,,,,293,NW,UN,50,inhort,SWANCE,z,,,,,,0.028415799,-0.401592882,0,0,0,,0,310,310,472,1,
,,,,,,,,,,,,,,,,,,5e18ca0eba65e719f09679ba,2020-08-10_17h49.23.029,lexical_decision_task_MP,2020.1.3,MacIntel,60,,m,1,0.535715,,,,,,,,0.535715,1,,,,,,79,WORD,"ID",33,theory,THEORY,m,,,,,,0.028415799,-0.401592882,0,0,0,,0,311,311,18,1,
,,,,,,,,,,,,,,,,,,5e18ca0eba65e719f09679ba,2020-08-10_17h49.23.029,lexical_decision_task_MP,2020.1.3,MacIntel,60,,z,1,0.65102,,,,,,,,0.65102,1,,,,,,342,NW,"ID",33,randow,RANDOW,z,,,,,,0.028415799,-0.401592882,0,0,0,,0,312,312,281,1,
,,,,,,,,,,,,,,,,,,5e18ca0eba65e719f09679ba,2020-08-10_17h49.23.029,lexical_decision_task_MP,2020.1.3,MacIntel,60,,z,1,0.835455,,,,,,,,0.835455,1,,,,,,285,NW,UN,50,reldon,PRUDGE,z,,,,,,0.028415799,-0.401592882,0,0,0,,0,313,313,464,1,
,,,,,,,,,,,,,,,,,,5e18ca0eba65e719f09679ba,2020-08-10_17h49.23.029,lexical_decision_task_MP,2020.1.3,MacIntel,60,,z,1,0.582075,,,,,,,,0.582075,1,,,,,,316,NW,"ID",33,scregm,SCREGM,z,,,,,,0.028415799,-0.401592882,0,0,0,,0,314,314,255,1,
,,,,,,,,,,,,,,,,,,5e18ca0eba65e719f09679ba,2020-08-10_17h49.23.029,lexical_decision_task_MP,2020.1.3,MacIntel,60,,m,1,0.501165,,,,,,,,0.501165,1,,,,,,112,WORD,"ID",33,breath,BREATH,m,,,,,,0.028415799,-0.401592882,0,0,0,,0,315,315,51,1,
,,,,,,,,,,,,,,,,,,5e18ca0eba65e719f09679ba,2020-08-10_17h49.23.029,lexical_decision_task_MP,2020.1.3,MacIntel,60,,z,1,0.60093,,,,,,,,0.60093,1,,,,,,291,NW,UN,50,ablint,PRETCH,z,,,,,,0.028415799,-0.401592882,0,0,0,,0,316,316,470,1,
,,,,,,,,,,,,,,,,,,5e18ca0eba65e719f09679ba,2020-08-10_17h49.23.029,lexical_decision_task_MP,2020.1.3,MacIntel,60,,m,1,0.50177,,,,,,,,0.50177,1,,,,,,53,WORD,UN,50,ramble,POLICE,m,,,,,,0.028415799,-0.401592882,0,0,0,,0,317,317,232,1,
,,,,,,,,,,,,,,,,,,5e18ca0eba65e719f09679ba,2020-08-10_17h49.23.029,lexical_decision_task_MP,2020.1.3,MacIntel,60,,z,1,0.517415,,,,,,,,0.517415,1,,,,,,371,NW,"ID",50,geiloy,GEILOY,z,,,,,,0.028415799,-0.401592882,0,0,0,,0,318,318,310,1,
,,,,,,,,,,,,,,,,,,5e18ca0eba65e719f09679ba,2020-08-10_17h49.23.029,lexical_decision_task_MP,2020.1.3,MacIntel,60,,z,1,0.500865,,,,,,,,0.500865,1,,,,,,375,NW,"ID",50,yorque,YORQUE,z,,,,,,0.028415799,-0.401592882,0,0,0,,0,319,319,314,1,
,,,,,,,,,,,,,,,,,,5e18ca0eba65e719f09679ba,2020-08-10_17h49.23.029,lexical_decision_task_MP,2020.1.3,MacIntel,60,,z,1,0.451175,,,,,,,,0.451175,1,,,,,,392,NW,"ID",50,rouncy,ROUNCY,z,,,,,,0.028415799,-0.401592882,0,0,0,,0,320,320,331,1,
,,,,,,,,,,,,,,,,,,5e18ca0eba65e719f09679ba,2020-08-10_17h49.23.029,lexical_decision_task_MP,2020.1.3,MacIntel,60,,z,1,0.433895,,,,,,,,0.433895,1,,,,,,294,NW,UN,50,gleath,INHORT,z,,,,,,0.028415799,-0.401592882,0,0,0,,0,321,321,473,1,
,,,,,,,,,,,,,,,,,,5e18ca0eba65e719f09679ba,2020-08-10_17h49.23.029,lexical_decision_task_MP,2020.1.3,MacIntel,60,,z,1,0.436755,,,,,,,,0.436755,1,,,,,,451,NW,UN,33,surden,CAINKY,z,,,,,,0.028415799,-0.401592882,0,0,0,,0,322,322,390,1,
,,,,,,,,,,,,,,,,,,5e18ca0eba65e719f09679ba,2020-08-10_17h49.23.029,lexical_decision_task_MP,2020.1.3,MacIntel,60,,m,1,0.6519,,,,,,,,0.6519,1,,,,,,220,WORD,UN,33,mascot,VOYAGE,m,,,,,,0.028415799,-0.401592882,0,0,0,,0,323,323,159,1,
,,,,,,,,,,,,,,,,,,5e18ca0eba65e719f09679ba,2020-08-10_17h49.23.029,lexical_decision_task_MP,2020.1.3,MacIntel,60,,z,1,0.684515,,,,,,,,0.684515,1,,,,,,391,NW,"ID",50,theldy,THELDY,z,,,,,,0.028415799,-0.401592882,0,0,0,,0,324,324,330,1,
,,,,,,,,,,,,,,,,,,5e18ca0eba65e719f09679ba,2020-08-10_17h49.23.029,lexical_decision_task_MP,2020.1.3,MacIntel,60,,m,1,0.603575,,,,,,,,0.603575,1,,,,,,58,WORD,UN,50,splint,FOSTER,m,,,,,,0.028415799,-0.401592882,0,0,0,,0,325,325,237,1,
,,,,,,,,,,,,,,,,,,5e18ca0eba65e719f09679ba,2020-08-10_17h49.23.029,lexical_decision_task_MP,2020.1.3,MacIntel,60,,z,1,0.684455,,,,,,,,0.684455,1,,,,,,380,NW,"ID",50,cavory,CAVORY,z,,,,,,0.028415799,-0.401592882,0,0,0,,0,326,326,319,1,
,,,,,,,,,,,,,,,,,,5e18ca0eba65e719f09679ba,2020-08-10_17h49.23.029,lexical_decision_task_MP,2020.1.3,MacIntel,60,,z,1,0.67157,,,,,,,,0.67157,1,,,,,,454,NW,UN,33,tondle,SCOUGE,z,,,,,,0.028415799,-0.401592882,0,0,0,,0,327,327,393,1,
,,,,,,,,,,,,,,,,,,5e18ca0eba65e719f09679ba,2020-08-10_17h49.23.029,lexical_decision_task_MP,2020.1.3,MacIntel,60,,m,1,0.588385,,,,,,,,0.588385,1,,,,,,39,WORD,UN,50,convey,INSECT,m,,,,,,0.028415799,-0.401592882,0,0,0,,0,328,328,218,1,
,,,,,,,,,,,,,,,,,,5e18ca0eba65e719f09679ba,2020-08-10_17h49.23.029,lexical_decision_task_MP,2020.1.3,MacIntel,60,,m,1,0.504785,,,,,,,,0.504785,1,,,,,,15,WORD,UN,50,faucet,AMOUNT,m,,,,,,0.028415799,-0.401592882,0,0,0,,0,329,329,194,1,
,,,,,,,,,,,,,,,,,,5e18ca0eba65e719f09679ba,2020-08-10_17h49.23.029,lexical_decision_task_MP,2020.1.3,MacIntel,60,,z,1,0.4844,,,,,,,,0.4844,1,,,,,,356,NW,"ID",33,othnis,OTHNIS,z,,,,,,0.028415799,-0.401592882,0,0,0,,0,330,330,295,1,
,,,,,,,,,,,,,,,,,,5e18ca0eba65e719f09679ba,2020-08-10_17h49.23.029,lexical_decision_task_MP,2020.1.3,MacIntel,60,,z,1,0.735415,,,,,,,,0.735415,1,,,,,,358,NW,"ID",33,fleack,FLEACK,z,,,,,,0.028415799,-0.401592882,0,0,0,,0,331,331,297,1,
,,,,,,,,,,,,,,,,,,5e18ca0eba65e719f09679ba,2020-08-10_17h49.23.029,lexical_decision_task_MP,2020.1.3,MacIntel,60,,m,1,0.50451,,,,,,,,0.50451,1,,,,,,186,WORD,UN,33,course,PORTAL,m,,,,,,0.028415799,-0.401592882,0,0,0,,0,332,332,125,1,
,,,,,,,,,,,,,,,,,,5e18ca0eba65e719f09679ba,2020-08-10_17h49.23.029,lexical_decision_task_MP,2020.1.3,MacIntel,60,,z,1,0.49721,,,,,,,,0.49721,1,,,,,,327,NW,"ID",33,plenac,PLENAC,z,,,,,,0.028415799,-0.401592882,0,0,0,,0,333,333,266,1,
,,,,,,,,,,,,,,,,,,5e18ca0eba65e719f09679ba,2020-08-10_17h49.23.029,lexical_decision_task_MP,2020.1.3,MacIntel,60,,z,1,0.451775,,,,,,,,0.451775,1,,,,,,394,NW,"ID",50,spaqux,SPAQUX,z,,,,,,0.028415799,-0.401592882,0,0,0,,0,334,334,333,1,
,,,,,,,,,,,,,,,,,,5e18ca0eba65e719f09679ba,2020-08-10_17h49.23.029,lexical_decision_task_MP,2020.1.3,MacIntel,60,,z,1,0.63456,,,,,,,,0.63456,1,,,,,,397,NW,"ID",50,camble,CAMBLE,z,,,,,,0.028415799,-0.401592882,0,0,0,,0,335,335,336,1,
,,,,,,,,,,,,,,,,,,5e18ca0eba65e719f09679ba,2020-08-10_17h49.23.029,lexical_decision_task_MP,2020.1.3,MacIntel,60,,z,1,0.50101,,,,,,,,0.50101,1,,,,,,415,NW,"ID",50,higsta,HIGSTA,z,,,,,,0.028415799,-0.401592882,0,0,0,,0,336,336,354,1,
,,,,,,,,,,,,,,,,,,5e18ca0eba65e719f09679ba,2020-08-10_17h49.23.029,lexical_decision_task_MP,2020.1.3,MacIntel,60,,m,1,0.614985,,,,,,,,0.614985,1,,,,,,66,WORD,"ID",33,gospel,GOSPEL,m,,,,,,0.028415799,-0.401592882,0,0,0,,0,337,337,5,1,
,,,,,,,,,,,,,,,,,,5e18ca0eba65e719f09679ba,2020-08-10_17h49.23.029,lexical_decision_task_MP,2020.1.3,MacIntel,60,,z,1,0.452665,,,,,,,,0.452665,1,,,,,,405,NW,"ID",50,flumni,FLUMNI,z,,,,,,0.028415799,-0.401592882,0,0,0,,0,338,338,344,1,
,,,,,,,,,,,,,,,,,,5e18ca0eba65e719f09679ba,2020-08-10_17h49.23.029,lexical_decision_task_MP,2020.1.3,MacIntel,60,,m,1,0.58731,,,,,,,,0.58731,1,,,,,,199,WORD,UN,33,plague,INVOKE,m,,,,,,0.028415799,-0.401592882,0,0,0,,0,339,339,138,1,
,,,,,,,,,,,,,,,,,,5e18ca0eba65e719f09679ba,2020-08-10_17h49.23.029,lexical_decision_task_MP,2020.1.3,MacIntel,60,,z,1,0.56819,,,,,,,,0.56819,1,,,,,,372,NW,"ID",50,ramily,RAMILY,z,,,,,,0.028415799,-0.401592882,0,0,0,,0,340,340,311,1,
,,,,,,,,,,,,,,,,,,5e18ca0eba65e719f09679ba,2020-08-10_17h49.23.029,lexical_decision_task_MP,2020.1.3,MacIntel,60,,z,1,0.500195,,,,,,,,0.500195,1,,,,,,257,NW,UN,50,poluth,VENIOD,z,,,,,,0.028415799,-0.401592882,0,0,0,,0,341,341,436,1,
,,,,,,,,,,,,,,,,,,5e18ca0eba65e719f09679ba,2020-08-10_17h49.23.029,lexical_decision_task_MP,2020.1.3,MacIntel,60,,z,1,0.56661,,,,,,,,0.56661,1,,,,,,419,NW,"ID",50,slount,SLOUNT,z,,,,,,0.028415799,-0.401592882,0,0,0,,0,342,342,358,1,
,,,,,,,,,,,,,,,,,,5e18ca0eba65e719f09679ba,2020-08-10_17h49.23.029,lexical_decision_task_MP,2020.1.3,MacIntel,60,,m,1,0.51437,,,,,,,,0.51437,1,,,,,,167,WORD,"ID",50,design,DESIGN,m,,,,,,0.028415799,-0.401592882,0,0,0,,0,343,343,106,1,
,,,,,,,,,,,,,,,,,,5e18ca0eba65e719f09679ba,2020-08-10_17h49.23.029,lexical_decision_task_MP,2020.1.3,MacIntel,60,,m,1,0.6686,,,,,,,,0.6686,1,,,,,,75,WORD,"ID",33,trophy,TROPHY,m,,,,,,0.028415799,-0.401592882,0,0,0,,0,344,344,14,1,
,,,,,,,,,,,,,,,,,,5e18ca0eba65e719f09679ba,2020-08-10_17h49.23.029,lexical_decision_task_MP,2020.1.3,MacIntel,60,,z,1,0.537205,,,,,,,,0.537205,1,,,,,,339,NW,"ID",33,fachow,FACHOW,z,,,,,,0.028415799,-0.401592882,0,0,0,,0,345,345,278,1,
,,,,,,,,,,,,,,,,,,5e18ca0eba65e719f09679ba,2020-08-10_17h49.23.029,lexical_decision_task_MP,2020.1.3,MacIntel,60,,m,1,0.750465,,,,,,,,0.750465,1,,,,,,131,WORD,"ID",50,quench,QUENCH,m,,,,,,0.028415799,-0.401592882,0,0,0,,0,346,346,70,1,
,,,,,,,,,,,,,,,,,,5e18ca0eba65e719f09679ba,2020-08-10_17h49.23.029,lexical_decision_task_MP,2020.1.3,MacIntel,60,,m,1,0.65088,,,,,,,,0.65088,1,,,,,,185,WORD,UN,33,portal,BOTHER,m,,,,,,0.028415799,-0.401592882,0,0,0,,0,347,347,124,1,
,,,,,,,,,,,,,,,,,,5e18ca0eba65e719f09679ba,2020-08-10_17h49.23.029,lexical_decision_task_MP,2020.1.3,MacIntel,60,,z,1,0.66928,,,,,,,,0.66928,1,,,,,,261,NW,UN,50,quilew,STUNCH,z,,,,,,0.028415799,-0.401592882,0,0,0,,0,348,348,440,1,
,,,,,,,,,,,,,,,,,,5e18ca0eba65e719f09679ba,2020-08-10_17h49.23.029,lexical_decision_task_MP,2020.1.3,MacIntel,60,,m,1,0.584475,,,,,,,,0.584475,1,,,,,,93,WORD,"ID",33,public,PUBLIC,m,,,,,,0.028415799,-0.401592882,0,0,0,,0,349,349,32,1,
,,,,,,,,,,,,,,,,,,5e18ca0eba65e719f09679ba,2020-08-10_17h49.23.029,lexical_decision_task_MP,2020.1.3,MacIntel,60,,z,1,0.68376,,,,,,,,0.68376,1,,,,,,247,NW,UN,50,strole,BLARGE,z,,,,,,0.028415799,-0.401592882,0,0,0,,0,350,350,426,1,
,,,,,,,,,,,,,,,,,,5e18ca0eba65e719f09679ba,2020-08-10_17h49.23.029,lexical_decision_task_MP,2020.1.3,MacIntel,60,,m,1,0.53448,,,,,,,,0.53448,1,,,,,,236,WORD,UN,33,grumpy,PIRATE,m,,,,,,0.028415799,-0.401592882,0,0,0,,0,351,351,175,1,
,,,,,,,,,,,,,,,,,,5e18ca0eba65e719f09679ba,2020-08-10_17h49.23.029,lexical_decision_task_MP,2020.1.3,MacIntel,60,,z,1,0.51712,,,,,,,,0.51712,1,,,,,,333,NW,"ID",33,catrie,CATRIE,z,,,,,,0.028415799,-0.401592882,0,0,0,,0,352,352,272,1,
,,,,,,,,,,,,,,,,,,5e18ca0eba65e719f09679ba,2020-08-10_17h49.23.029,lexical_decision_task_MP,2020.1.3,MacIntel,60,,m,1,0.58511,,,,,,,,0.58511,1,,,,,,193,WORD,UN,33,mildew,OBJECT,m,,,,,,0.028415799,-0.401592882,0,0,0,,0,353,353,132,1,
,,,,,,,,,,,,,,,,,,5e18ca0eba65e719f09679ba,2020-08-10_17h49.23.029,lexical_decision_task_MP,2020.1.3,MacIntel,60,,z,1,0.51904,,,,,,,,0.51904,1,,,,,,365,NW,"ID",50,guairt,GUAIRT,z,,,,,,0.028415799,-0.401592882,0,0,0,,0,354,354,304,1,
,,,,,,,,,,,,,,,,,,5e18ca0eba65e719f09679ba,2020-08-10_17h49.23.029,lexical_decision_task_MP,2020.1.3,MacIntel,60,,z,1,1.21735,,,,,,,,1.21735,1,,,,,,341,NW,"ID",33,myrtie,MYRTIE,z,,,,,,0.028415799,-0.401592882,0,0,0,,0,355,355,280,1,
,,,,,,,,,,,,,,,,,,5e18ca0eba65e719f09679ba,2020-08-10_17h49.23.029,lexical_decision_task_MP,2020.1.3,MacIntel,60,,m,1,0.518015,,,,,,,,0.518015,1,,,,,,51,WORD,UN,50,impose,HUNGRY,m,,,,,,0.028415799,-0.401592882,0,0,0,,0,356,356,230,1,
,,,,,,,,,,,,,,,,,,5e18ca0eba65e719f09679ba,2020-08-10_17h49.23.029,lexical_decision_task_MP,2020.1.3,MacIntel,60,,z,1,0.51672,,,,,,,,0.51672,1,,,,,,288,NW,UN,50,starby,YACEUP,z,,,,,,0.028415799,-0.401592882,0,0,0,,0,357,357,467,1,
,,,,,,,,,,,,,,,,,,5e18ca0eba65e719f09679ba,2020-08-10_17h49.23.029,lexical_decision_task_MP,2020.1.3,MacIntel,60,,z,1,0.434835,,,,,,,,0.434835,1,,,,,,254,NW,UN,50,apight,VAROSH,z,,,,,,0.028415799,-0.401592882,0,0,0,,0,358,358,433,1,
,,,,,,,,,,,,,,,,,,5e18ca0eba65e719f09679ba,2020-08-10_17h49.23.029,lexical_decision_task_MP,2020.1.3,MacIntel,60,,z,1,0.60067,,,,,,,,0.60067,1,,,,,,332,NW,"ID",33,vangue,VANGUE,z,,,,,,0.028415799,-0.401592882,0,0,0,,0,359,359,271,1,
,,,,,,,,,,,,,,,,,,5e18ca0eba65e719f09679ba,2020-08-10_17h49.23.029,lexical_decision_task_MP,2020.1.3,MacIntel,60,,z,1,0.583095,,,,,,,,0.583095,1,,,,,,435,NW,UN,33,frutan,IMPURB,z,,,,,,0.028415799,-0.401592882,0,0,0,,0,360,360,374,1,
,,,,,,,,,,,,,,,,,,5e18ca0eba65e719f09679ba,2020-08-10_17h49.23.029,lexical_decision_task_MP,2020.1.3,MacIntel,60,,m,1,0.7171,,,,,,,,0.7171,1,,,,,,114,WORD,"ID",33,placid,PLACID,m,,,,,,0.028415799,-0.401592882,0,0,0,,0,361,361,53,1,
,,,,,,,,,,,,,,,,,,5e18ca0eba65e719f09679ba,2020-08-10_17h49.23.029,lexical_decision_task_MP,2020.1.3,MacIntel,60,,m,1,0.56767,,,,,,,,0.56767,1,,,,,,3,WORD,UN,50,trench,KNIGHT,m,,,,,,0.004179688,-0.400568576,1,0,0,,0,362,362,182,1,break_done_button
,,,,,,,,,,,,,,,,,,5e18ca0eba65e719f09679ba,2020-08-10_17h49.23.029,lexical_decision_task_MP,2020.1.3,MacIntel,60,,m,1,1.001445,,,,,,,,1.001445,1,,,,,,117,WORD,"ID",33,branch,BRANCH,m,,,,,,0.004027778,-0.400551215,0,0,0,,0,363,363,56,1,
,,,,,,,,,,,,,,,,,,5e18ca0eba65e719f09679ba,2020-08-10_17h49.23.029,lexical_decision_task_MP,2020.1.3,MacIntel,60,,z,1,1.034375,,,,,,,,1.034375,1,,,,,,307,NW,"ID",33,kirafe,KIRAFE,z,,,,,,0.004027778,-0.400551215,0,0,0,,0,364,364,246,1,
,,,,,,,,,,,,,,,,,,5e18ca0eba65e719f09679ba,2020-08-10_17h49.23.029,lexical_decision_task_MP,2020.1.3,MacIntel,60,,z,1,0.78399,,,,,,,,0.78399,1,,,,,,268,NW,UN,50,orchet,PACKES,z,,,,,,0.004027778,-0.400551215,0,0,0,,0,365,365,447,1,
,,,,,,,,,,,,,,,,,,5e18ca0eba65e719f09679ba,2020-08-10_17h49.23.029,lexical_decision_task_MP,2020.1.3,MacIntel,60,,m,1,0.551635,,,,,,,,0.551635,1,,,,,,140,WORD,"ID",50,prince,PRINCE,m,,,,,,0.004027778,-0.400551215,0,0,0,,0,366,366,79,1,
,,,,,,,,,,,,,,,,,,5e18ca0eba65e719f09679ba,2020-08-10_17h49.23.029,lexical_decision_task_MP,2020.1.3,MacIntel,60,,m,1,0.684965,,,,,,,,0.684965,1,,,,,,86,WORD,"ID",33,rodent,RODENT,m,,,,,,0.004027778,-0.400551215,0,0,0,,0,367,367,25,1,
,,,,,,,,,,,,,,,,,,5e18ca0eba65e719f09679ba,2020-08-10_17h49.23.029,lexical_decision_task_MP,2020.1.3,MacIntel,60,,m,1,0.567235,,,,,,,,0.567235,1,,,,,,29,WORD,UN,50,orient,SKETCH,m,,,,,,0.004027778,-0.400551215,0,0,0,,0,368,368,208,1,
,,,,,,,,,,,,,,,,,,5e18ca0eba65e719f09679ba,2020-08-10_17h49.23.029,lexical_decision_task_MP,2020.1.3,MacIntel,60,,m,1,0.535975,,,,,,,,0.535975,1,,,,,,227,WORD,UN,33,master,SELDOM,m,,,,,,0.004027778,-0.400551215,0,0,0,,0,369,369,166,1,
,,,,,,,,,,,,,,,,,,5e18ca0eba65e719f09679ba,2020-08-10_17h49.23.029,lexical_decision_task_MP,2020.1.3,MacIntel,60,,z,1,0.53682,,,,,,,,0.53682,1,,,,,,344,NW,"ID",33,scrily,SCRILY,z,,,,,,0.004027778,-0.400551215,0,0,0,,0,370,370,283,1,
,,,,,,,,,,,,,,,,,,5e18ca0eba65e719f09679ba,2020-08-10_17h49.23.029,lexical_decision_task_MP,2020.1.3,MacIntel,60,,z,1,0.469445,,,,,,,,0.469445,1,,,,,,302,NW,"ID",33,miluer,MILUER,z,,,,,,0.004027778,-0.400551215,0,0,0,,0,371,371,241,1,
,,,,,,,,,,,,,,,,,,5e18ca0eba65e719f09679ba,2020-08-10_17h49.23.029,lexical_decision_task_MP,2020.1.3,MacIntel,60,,m,1,0.503505,,,,,,,,0.503505,1,,,,,,160,WORD,"ID",50,violet,VIOLET,m,,,,,,0.004027778,-0.400551215,0,0,0,,0,372,372,99,1,
,,,,,,,,,,,,,,,,,,5e18ca0eba65e719f09679ba,2020-08-10_17h49.23.029,lexical_decision_task_MP,2020.1.3,MacIntel,60,,m,1,0.65152,,,,,,,,0.65152,1,,,,,,219,WORD,UN,33,voyage,BUCKET,m,,,,,,0.004027778,-0.400551215,0,0,0,,0,373,373,158,1,
,,,,,,,,,,,,,,,,,,5e18ca0eba65e719f09679ba,2020-08-10_17h49.23.029,lexical_decision_task_MP,2020.1.3,MacIntel,60,,m,1,0.53446,,,,,,,,0.53446,1,,,,,,187,WORD,UN,33,social,COURSE,m,,,,,,0.004027778,-0.400551215,0,0,0,,0,374,374,126,1,
,,,,,,,,,,,,,,,,,,5e18ca0eba65e719f09679ba,2020-08-10_17h49.23.029,lexical_decision_task_MP,2020.1.3,MacIntel,60,,m,1,0.452115,,,,,,,,0.452115,1,,,,,,153,WORD,"ID",50,behold,BEHOLD,m,,,,,,0.004027778,-0.400551215,0,0,0,,0,375,375,92,1,
,,,,,,,,,,,,,,,,,,5e18ca0eba65e719f09679ba,2020-08-10_17h49.23.029,lexical_decision_task_MP,2020.1.3,MacIntel,60,,z,1,0.50132,,,,,,,,0.50132,1,,,,,,429,NW,UN,33,caroey,FUNTLE,z,,,,,,0.004027778,-0.400551215,0,0,0,,0,376,376,368,1,
,,,,,,,,,,,,,,,,,,5e18ca0eba65e719f09679ba,2020-08-10_17h49.23.029,lexical_decision_task_MP,2020.1.3,MacIntel,60,,m,1,0.58432,,,,,,,,0.58432,1,,,,,,165,WORD,"ID",50,invest,INVEST,m,,,,,,0.004027778,-0.400551215,0,0,0,,0,377,377,104,1,
,,,,,,,,,,,,,,,,,,5e18ca0eba65e719f09679ba,2020-08-10_17h49.23.029,lexical_decision_task_MP,2020.1.3,MacIntel,60,,m,1,0.486955,,,,,,,,0.486955,1,,,,,,115,WORD,"ID",33,guitar,GUITAR,m,,,,,,0.004027778,-0.400551215,0,0,0,,0,378,378,54,1,
,,,,,,,,,,,,,,,,,,5e18ca0eba65e719f09679ba,2020-08-10_17h49.23.029,lexical_decision_task_MP,2020.1.3,MacIntel,60,,m,1,0.6394,,,,,,,,0.6394,1,,,,,,35,WORD,UN,50,vanish,SOCKET,m,,,,,,0.004027778,-0.400551215,0,0,0,,0,379,379,214,1,
,,,,,,,,,,,,,,,,,,5e18ca0eba65e719f09679ba,2020-08-10_17h49.23.029,lexical_decision_task_MP,2020.1.3,MacIntel,60,,m,1,0.48437,,,,,,,,0.48437,1,,,,,,150,WORD,"ID",50,random,RANDOM,m,,,,,,0.004027778,-0.400551215,0,0,0,,0,380,380,89,1,
,,,,,,,,,,,,,,,,,,5e18ca0eba65e719f09679ba,2020-08-10_17h49.23.029,lexical_decision_task_MP,2020.1.3,MacIntel,60,,z,1,0.50124,,,,,,,,0.50124,1,,,,,,246,NW,UN,50,blarge,PIATON,z,,,,,,0.004027778,-0.400551215,0,0,0,,0,381,381,425,1,
,,,,,,,,,,,,,,,,,,5e18ca0eba65e719f09679ba,2020-08-10_17h49.23.029,lexical_decision_task_MP,2020.1.3,MacIntel,60,,m,1,0.504865,,,,,,,,0.504865,1,,,,,,87,WORD,"ID",33,filter,FILTER,m,,,,,,0.004027778,-0.400551215,0,0,0,,0,382,382,26,1,
,,,,,,,,,,,,,,,,,,5e18ca0eba65e719f09679ba,2020-08-10_17h49.23.029,lexical_decision_task_MP,2020.1.3,MacIntel,60,,m,1,0.5193,,,,,,,,0.5193,1,,,,,,99,WORD,"ID",33,fluent,FLUENT,m,,,,,,0.004027778,-0.400551215,0,0,0,,0,383,383,38,1,
,,,,,,,,,,,,,,,,,,5e18ca0eba65e719f09679ba,2020-08-10_17h49.23.029,lexical_decision_task_MP,2020.1.3,MacIntel,60,,m,1,0.454975,,,,,,,,0.454975,1,,,,,,154,WORD,"ID",50,author,AUTHOR,m,,,,,,0.004027778,-0.400551215,0,0,0,,0,384,384,93,1,
,,,,,,,,,,,,,,,,,,5e18ca0eba65e719f09679ba,2020-08-10_17h49.23.029,lexical_decision_task_MP,2020.1.3,MacIntel,60,,m,1,0.50007,,,,,,,,0.50007,1,,,,,,155,WORD,"ID",50,lizard,LIZARD,m,,,,,,0.004027778,-0.400551215,0,0,0,,0,385,385,94,1,
,,,,,,,,,,,,,,,,,,5e18ca0eba65e719f09679ba,2020-08-10_17h49.23.029,lexical_decision_task_MP,2020.1.3,MacIntel,60,,m,1,0.45166,,,,,,,,0.45166,1,,,,,,134,WORD,"ID",50,staple,STAPLE,m,,,,,,0.004027778,-0.400551215,0,0,0,,0,386,386,73,1,
,,,,,,,,,,,,,,,,,,5e18ca0eba65e719f09679ba,2020-08-10_17h49.23.029,lexical_decision_task_MP,2020.1.3,MacIntel,60,,z,1,0.90176,,,,,,,,0.90176,1,,,,,,269,NW,UN,50,wrimsy,ORCHET,z,,,,,,0.004027778,-0.400551215,0,0,0,,0,387,387,448,1,
,,,,,,,,,,,,,,,,,,5e18ca0eba65e719f09679ba,2020-08-10_17h49.23.029,lexical_decision_task_MP,2020.1.3,MacIntel,60,,z,1,0.53585,,,,,,,,0.53585,1,,,,,,373,NW,"ID",50,bigent,BIGENT,z,,,,,,0.004027778,-0.400551215,0,0,0,,0,388,388,312,1,
,,,,,,,,,,,,,,,,,,5e18ca0eba65e719f09679ba,2020-08-10_17h49.23.029,lexical_decision_task_MP,2020.1.3,MacIntel,60,,z,1,0.552055,,,,,,,,0.552055,1,,,,,,411,NW,"ID",50,orchin,ORCHIN,z,,,,,,0.004027778,-0.400551215,0,0,0,,0,389,389,350,1,
,,,,,,,,,,,,,,,,,,5e18ca0eba65e719f09679ba,2020-08-10_17h49.23.029,lexical_decision_task_MP,2020.1.3,MacIntel,60,,z,1,0.53549,,,,,,,,0.53549,1,,,,,,432,NW,UN,33,drance,LUNKER,z,,,,,,0.004027778,-0.400551215,0,0,0,,0,390,390,371,1,
,,,,,,,,,,,,,,,,,,5e18ca0eba65e719f09679ba,2020-08-10_17h49.23.029,lexical_decision_task_MP,2020.1.3,MacIntel,60,,m,1,0.58439,,,,,,,,0.58439,1,,,,,,145,WORD,"ID",50,parish,PARISH,m,,,,,,0.004027778,-0.400551215,0,0,0,,0,391,391,84,1,
,,,,,,,,,,,,,,,,,,5e18ca0eba65e719f09679ba,2020-08-10_17h49.23.029,lexical_decision_task_MP,2020.1.3,MacIntel,60,,m,1,0.517575,,,,,,,,0.517575,1,,,,,,96,WORD,"ID",33,ignore,IGNORE,m,,,,,,0.004027778,-0.400551215,0,0,0,,0,392,392,35,1,
,,,,,,,,,,,,,,,,,,5e18ca0eba65e719f09679ba,2020-08-10_17h49.23.029,lexical_decision_task_MP,2020.1.3,MacIntel,60,,m,1,0.567675,,,,,,,,0.567675,1,,,,,,22,WORD,UN,50,wealth,JOCKEY,m,,,,,,0.004027778,-0.400551215,0,0,0,,0,393,393,201,1,
,,,,,,,,,,,,,,,,,,5e18ca0eba65e719f09679ba,2020-08-10_17h49.23.029,lexical_decision_task_MP,2020.1.3,MacIntel,60,,z,1,0.57084,,,,,,,,0.57084,1,,,,,,434,NW,UN,33,impurb,PITROM,z,,,,,,0.004027778,-0.400551215,0,0,0,,0,394,394,373,1,
,,,,,,,,,,,,,,,,,,5e18ca0eba65e719f09679ba,2020-08-10_17h49.23.029,lexical_decision_task_MP,2020.1.3,MacIntel,60,,m,1,0.39874,,,,,,,,0.39874,1,,,,,,144,WORD,"ID",50,sponge,SPONGE,m,,,,,,0.004027778,-0.400551215,0,0,0,,0,395,395,83,1,
,,,,,,,,,,,,,,,,,,5e18ca0eba65e719f09679ba,2020-08-10_17h49.23.029,lexical_decision_task_MP,2020.1.3,MacIntel,60,,m,1,0.48441,,,,,,,,0.48441,1,,,,,,137,WORD,"ID",50,finger,FINGER,m,,,,,,0.004027778,-0.400551215,0,0,0,,0,396,396,76,1,
