counterbalancing_condition,instr_done_keyboard.keys,instr_done_keyboard.rt,instr_done_touch.x,instr_done_touch.y,instr_done_touch.leftButton,instr_done_touch.midButton,instr_done_touch.rightButton,instruction_pages.thisRepN,instruction_pages.thisTrialN,instruction_pages.thisN,instruction_pages.thisIndex,instruction_pages.ran,pageN,phase,instruct_text,has_image,instruct_image,participant,date,expName,psychopyVersion,OS,frameRate,response.keys,response.corr,response.rt,touch_resp.x,touch_resp.y,touch_resp.leftButton,touch_resp.midButton,touch_resp.rightButton,touch_resp.time,touch_resp.clicked_name,rt,corr,practice_trials.thisRepN,practice_trials.thisTrialN,practice_trials.thisN,practice_trials.thisIndex,practice_trials.ran,TrialID,StimulusType,Condition,PrimeDuration,Prime,Target,corrAns,end_of_practice_trials_pages.thisRepN,end_of_practice_trials_pages.thisTrialN,end_of_practice_trials_pages.thisN,end_of_practice_trials_pages.thisIndex,end_of_practice_trials_pages.ran,break_done_touch.x,break_done_touch.y,break_done_touch.leftButton,break_done_touch.midButton,break_done_touch.rightButton,break_done_keyboard.keys,trials.thisRepN,trials.thisTrialN,trials.thisN,trials.thisIndex,trials.ran,break_done_keyboard.rt
3,space,7.392235,0.042592606,-0.398148162,0,0,0,0,0,0,0,1,1,instructions,"INSTRUCTIONS
At the start of each trial, look at the hash marks (######) in the center of the screen. After a moment, a string of letters will appear. Your task is to indicate if the letter string forms a word or not (i.e., if it is a nonword). For example, AUTHOR is a word while AUTHON is a nonword.

Press the space bar or touch the button below to continue.",0,,5e19b97a8a76fb239d3e33d6,2020-08-10_16h48.32.091,lexical_decision_task_MP,2020.1.3,Win32,60,,,,,,,,,,,,,,,,,,,,,,,,,,,,,,,,,,,,,,,,,
,space,8.146765,0.042592606,-0.398148162,0,0,0,0,1,1,1,1,2,instructions,"If your device has a keyboard, press the 'Z' key for nonwords and the 'M' key for words.





Press the space bar or touch the button below to continue.",1,keyboard-example.gif,5e19b97a8a76fb239d3e33d6,2020-08-10_16h48.32.091,lexical_decision_task_MP,2020.1.3,Win32,60,,,,,,,,,,,,,,,,,,,,,,,,,,,,,,,,,,,,,,,,,
,space,3.376945,0.042592606,-0.398148162,0,0,0,0,2,2,2,1,3,instructions,"If you are using a touchscreen only device, use the buttons on the screen. Do not use the mouse.





Press the space bar or touch the button below to continue.",1,touchscreen-example.gif,5e19b97a8a76fb239d3e33d6,2020-08-10_16h48.32.091,lexical_decision_task_MP,2020.1.3,Win32,60,,,,,,,,,,,,,,,,,,,,,,,,,,,,,,,,,,,,,,,,,
,space,3.55072,0.042592606,-0.398148162,0,0,0,0,3,3,3,1,4,instructions,"It is very important that you respond as quickly and accurately as possible, as each letter string will only be on the screen for two seconds. If you do not respond within this time, the message 'Too slow!' will be displayed and the experiment will progress to the next letter string. The first 20 trials will be practice trials and you will receive feedback on your answers. 

Press the space bar or touch the button below to start the practice trials.",0,,5e19b97a8a76fb239d3e33d6,2020-08-10_16h48.32.091,lexical_decision_task_MP,2020.1.3,Win32,60,,,,,,,,,,,,,,,,,,,,,,,,,,,,,,,,,,,,,,,,,
,,,,,,,,,,,,,,,,,,5e19b97a8a76fb239d3e33d6,2020-08-10_16h48.32.091,lexical_decision_task_MP,2020.1.3,Win32,60,z,1,1.37397,,,,,,,,1.37397,1,0,0,0,10,1,1011,NW,"ID",50,inlade,INLADE,z,,,,,,,,,,,,,,,,,
,,,,,,,,,,,,,,,,,,5e19b97a8a76fb239d3e33d6,2020-08-10_16h48.32.091,lexical_decision_task_MP,2020.1.3,Win32,60,z,1,1.193585,,,,,,,,1.193585,1,0,1,1,11,1,1012,NW,"ID",50,rashet,RASHET,z,,,,,,,,,,,,,,,,,
,,,,,,,,,,,,,,,,,,5e19b97a8a76fb239d3e33d6,2020-08-10_16h48.32.091,lexical_decision_task_MP,2020.1.3,Win32,60,m,0,0.99713,,,,,,,,0.99713,0,0,2,2,12,1,1013,NW,UN,33,adveil,SPRINY,z,,,,,,,,,,,,,,,,,
,,,,,,,,,,,,,,,,,,5e19b97a8a76fb239d3e33d6,2020-08-10_16h48.32.091,lexical_decision_task_MP,2020.1.3,Win32,60,m,1,0.612185,,,,,,,,0.612185,1,0,3,3,6,1,1007,WORD,UN,50,tropic,ZOMBIE,m,,,,,,,,,,,,,,,,,
,,,,,,,,,,,,,,,,,,5e19b97a8a76fb239d3e33d6,2020-08-10_16h48.32.091,lexical_decision_task_MP,2020.1.3,Win32,60,m,1,0.666595,,,,,,,,0.666595,1,0,4,4,7,1,1008,WORD,UN,50,hurdle,VOLUME,m,,,,,,,,,,,,,,,,,
,,,,,,,,,,,,,,,,,,5e19b97a8a76fb239d3e33d6,2020-08-10_16h48.32.091,lexical_decision_task_MP,2020.1.3,Win32,60,m,1,0.704665,,,,,,,,0.704665,1,0,5,5,2,1,1003,WORD,"ID",50,almond,ALMOND,m,,,,,,,,,,,,,,,,,
,,,,,,,,,,,,,,,,,,5e19b97a8a76fb239d3e33d6,2020-08-10_16h48.32.091,lexical_decision_task_MP,2020.1.3,Win32,60,m,1,0.492555,,,,,,,,0.492555,1,0,6,6,1,1,1002,WORD,"ID",33,adjust,ADJUST,m,,,,,,,,,,,,,,,,,
,,,,,,,,,,,,,,,,,,5e19b97a8a76fb239d3e33d6,2020-08-10_16h48.32.091,lexical_decision_task_MP,2020.1.3,Win32,60,z,1,0.696505,,,,,,,,0.696505,1,0,7,7,15,1,1016,NW,UN,50,mushed,WHAISE,z,,,,,,,,,,,,,,,,,
,,,,,,,,,,,,,,,,,,5e19b97a8a76fb239d3e33d6,2020-08-10_16h48.32.091,lexical_decision_task_MP,2020.1.3,Win32,60,m,0,0.963415,,,,,,,,0.963415,0,0,8,8,8,1,1009,NW,"ID",33,aslert,ASLERT,z,,,,,,,,,,,,,,,,,
,,,,,,,,,,,,,,,,,,5e19b97a8a76fb239d3e33d6,2020-08-10_16h48.32.091,lexical_decision_task_MP,2020.1.3,Win32,60,z,1,0.84786,,,,,,,,0.84786,1,0,9,9,14,1,1015,NW,UN,50,miaber,THRALE,z,,,,,,,,,,,,,,,,,
,,,,,,,,,,,,,,,,,,5e19b97a8a76fb239d3e33d6,2020-08-10_16h48.32.091,lexical_decision_task_MP,2020.1.3,Win32,60,z,1,0.72194,,,,,,,,0.72194,1,0,10,10,9,1,1010,NW,"ID",33,fariny,FARINY,z,,,,,,,,,,,,,,,,,
,,,,,,,,,,,,,,,,,,5e19b97a8a76fb239d3e33d6,2020-08-10_16h48.32.091,lexical_decision_task_MP,2020.1.3,Win32,60,m,1,0.673965,,,,,,,,0.673965,1,0,11,11,0,1,1001,WORD,"ID",33,utopia,UTOPIA,m,,,,,,,,,,,,,,,,,
,,,,,,,,,,,,,,,,,,5e19b97a8a76fb239d3e33d6,2020-08-10_16h48.32.091,lexical_decision_task_MP,2020.1.3,Win32,60,z,1,0.92453,,,,,,,,0.92453,1,0,12,12,13,1,1014,NW,UN,33,winfer,ROUPET,z,,,,,,,,,,,,,,,,,
,,,,,,,,,,,,,,,,,,5e19b97a8a76fb239d3e33d6,2020-08-10_16h48.32.091,lexical_decision_task_MP,2020.1.3,Win32,60,m,1,0.67848,,,,,,,,0.67848,1,0,13,13,5,1,1006,WORD,UN,33,frenzy,OBTAIN,m,,,,,,,,,,,,,,,,,
,,,,,,,,,,,,,,,,,,5e19b97a8a76fb239d3e33d6,2020-08-10_16h48.32.091,lexical_decision_task_MP,2020.1.3,Win32,60,m,1,0.713985,,,,,,,,0.713985,1,0,14,14,3,1,1004,WORD,"ID",50,matrix,MATRIX,m,,,,,,,,,,,,,,,,,
,,,,,,,,,,,,,,,,,,5e19b97a8a76fb239d3e33d6,2020-08-10_16h48.32.091,lexical_decision_task_MP,2020.1.3,Win32,60,z,0,0.68126,,,,,,,,0.68126,0,0,15,15,4,1,1005,WORD,UN,33,abound,SQUEAK,m,,,,,,,,,,,,,,,,,
,space,4.88354,0.042592606,-0.398148162,0,0,0,,,,,,1,end_of_practice,"You have completed the practice trials. During the experimental trials, you will not receive feedback, but it is very important that you respond as quickly and accurately as possible. 
Before you begin, please ensure that you are in a comfortable and quiet location and will not be disturbed for about 15 minutes, as we cannot use your data if you do not complete all the trials. 
There will be opportunities to take breaks at regular intervals during the experiment. When you are ready to start the experimental trials, please press space or touch the button below.",,,5e19b97a8a76fb239d3e33d6,2020-08-10_16h48.32.091,lexical_decision_task_MP,2020.1.3,Win32,60,,,,,,,,,,,,,,,,,,,,,,,,,0,0,0,0,1,,,,,,,,,,,,
,,,,,,,,,,,,,,,,,,5e19b97a8a76fb239d3e33d6,2020-08-10_16h48.32.091,lexical_decision_task_MP,2020.1.3,Win32,60,z,1,1.15831,,,,,,,,1.15831,1,,,,,,376,NW,"ID",50,iguare,IGUARE,z,,,,,,0.042592606,-0.398148162,0,0,0,,0,0,0,315,1,
,,,,,,,,,,,,,,,,,,5e19b97a8a76fb239d3e33d6,2020-08-10_16h48.32.091,lexical_decision_task_MP,2020.1.3,Win32,60,m,0,0.73359,,,,,,,,0.73359,0,,,,,,411,NW,"ID",50,orchin,ORCHIN,z,,,,,,0.042592606,-0.398148162,0,0,0,,0,1,1,350,1,
,,,,,,,,,,,,,,,,,,5e19b97a8a76fb239d3e33d6,2020-08-10_16h48.32.091,lexical_decision_task_MP,2020.1.3,Win32,60,m,1,0.62877,,,,,,,,0.62877,1,,,,,,92,WORD,"ID",33,strand,STRAND,m,,,,,,0.042592606,-0.398148162,0,0,0,,0,2,2,31,1,
,,,,,,,,,,,,,,,,,,5e19b97a8a76fb239d3e33d6,2020-08-10_16h48.32.091,lexical_decision_task_MP,2020.1.3,Win32,60,m,1,0.568745,,,,,,,,0.568745,1,,,,,,122,WORD,"ID",50,linger,LINGER,m,,,,,,0.042592606,-0.398148162,0,0,0,,0,3,3,61,1,
,,,,,,,,,,,,,,,,,,5e19b97a8a76fb239d3e33d6,2020-08-10_16h48.32.091,lexical_decision_task_MP,2020.1.3,Win32,60,m,1,0.514015,,,,,,,,0.514015,1,,,,,,103,WORD,"ID",33,bounce,BOUNCE,m,,,,,,0.042592606,-0.398148162,0,0,0,,0,4,4,42,1,
,,,,,,,,,,,,,,,,,,5e19b97a8a76fb239d3e33d6,2020-08-10_16h48.32.091,lexical_decision_task_MP,2020.1.3,Win32,60,z,1,0.723185,,,,,,,,0.723185,1,,,,,,330,NW,"ID",33,kensom,KENSOM,z,,,,,,0.042592606,-0.398148162,0,0,0,,0,5,5,269,1,
,,,,,,,,,,,,,,,,,,5e19b97a8a76fb239d3e33d6,2020-08-10_16h48.32.091,lexical_decision_task_MP,2020.1.3,Win32,60,z,0,1.15916,,,,,,,,1.15916,0,,,,,,8,WORD,UN,50,hustle,ABRUPT,m,,,,,,0.042592606,-0.398148162,0,0,0,,0,6,6,187,1,
,,,,,,,,,,,,,,,,,,5e19b97a8a76fb239d3e33d6,2020-08-10_16h48.32.091,lexical_decision_task_MP,2020.1.3,Win32,60,m,1,0.658665,,,,,,,,0.658665,1,,,,,,235,WORD,UN,33,pirate,GRUMPY,m,,,,,,0.042592606,-0.398148162,0,0,0,,0,7,7,174,1,
,,,,,,,,,,,,,,,,,,5e19b97a8a76fb239d3e33d6,2020-08-10_16h48.32.091,lexical_decision_task_MP,2020.1.3,Win32,60,z,1,0.85264,,,,,,,,0.85264,1,,,,,,241,NW,UN,50,unwert,SMENCO,z,,,,,,0.042592606,-0.398148162,0,0,0,,0,8,8,420,1,
,,,,,,,,,,,,,,,,,,5e19b97a8a76fb239d3e33d6,2020-08-10_16h48.32.091,lexical_decision_task_MP,2020.1.3,Win32,60,m,1,0.74832,,,,,,,,0.74832,1,,,,,,169,WORD,"ID",50,genius,GENIUS,m,,,,,,0.042592606,-0.398148162,0,0,0,,0,9,9,108,1,
,,,,,,,,,,,,,,,,,,5e19b97a8a76fb239d3e33d6,2020-08-10_16h48.32.091,lexical_decision_task_MP,2020.1.3,Win32,60,z,1,0.74286,,,,,,,,0.74286,1,,,,,,383,NW,"ID",50,aungre,AUNGRE,z,,,,,,0.042592606,-0.398148162,0,0,0,,0,10,10,322,1,
,,,,,,,,,,,,,,,,,,5e19b97a8a76fb239d3e33d6,2020-08-10_16h48.32.091,lexical_decision_task_MP,2020.1.3,Win32,60,m,1,0.64209,,,,,,,,0.64209,1,,,,,,237,WORD,UN,33,glance,POSTER,m,,,,,,0.042592606,-0.398148162,0,0,0,,0,11,11,176,1,
,,,,,,,,,,,,,,,,,,5e19b97a8a76fb239d3e33d6,2020-08-10_16h48.32.091,lexical_decision_task_MP,2020.1.3,Win32,60,z,1,0.73566,,,,,,,,0.73566,1,,,,,,388,NW,"ID",50,cragin,CRAGIN,z,,,,,,0.042592606,-0.398148162,0,0,0,,0,12,12,327,1,
,,,,,,,,,,,,,,,,,,5e19b97a8a76fb239d3e33d6,2020-08-10_16h48.32.091,lexical_decision_task_MP,2020.1.3,Win32,60,z,1,0.738275,,,,,,,,0.738275,1,,,,,,369,NW,"ID",50,wronch,WRONCH,z,,,,,,0.042592606,-0.398148162,0,0,0,,0,13,13,308,1,
,,,,,,,,,,,,,,,,,,5e19b97a8a76fb239d3e33d6,2020-08-10_16h48.32.091,lexical_decision_task_MP,2020.1.3,Win32,60,m,1,0.61646,,,,,,,,0.61646,1,,,,,,215,WORD,UN,33,lumber,PHOBIA,m,,,,,,0.042592606,-0.398148162,0,0,0,,0,14,14,154,1,
,,,,,,,,,,,,,,,,,,5e19b97a8a76fb239d3e33d6,2020-08-10_16h48.32.091,lexical_decision_task_MP,2020.1.3,Win32,60,m,1,0.75031,,,,,,,,0.75031,1,,,,,,193,WORD,UN,33,mildew,OBJECT,m,,,,,,0.042592606,-0.398148162,0,0,0,,0,15,15,132,1,
,,,,,,,,,,,,,,,,,,5e19b97a8a76fb239d3e33d6,2020-08-10_16h48.32.091,lexical_decision_task_MP,2020.1.3,Win32,60,m,1,0.58838,,,,,,,,0.58838,1,,,,,,76,WORD,"ID",33,exotic,EXOTIC,m,,,,,,0.042592606,-0.398148162,0,0,0,,0,16,16,15,1,
,,,,,,,,,,,,,,,,,,5e19b97a8a76fb239d3e33d6,2020-08-10_16h48.32.091,lexical_decision_task_MP,2020.1.3,Win32,60,z,1,0.812485,,,,,,,,0.812485,1,,,,,,347,NW,"ID",33,kerift,KERIFT,z,,,,,,0.042592606,-0.398148162,0,0,0,,0,17,17,286,1,
,,,,,,,,,,,,,,,,,,5e19b97a8a76fb239d3e33d6,2020-08-10_16h48.32.091,lexical_decision_task_MP,2020.1.3,Win32,60,m,1,0.483815,,,,,,,,0.483815,1,,,,,,73,WORD,"ID",33,source,SOURCE,m,,,,,,0.042592606,-0.398148162,0,0,0,,0,18,18,12,1,
,,,,,,,,,,,,,,,,,,5e19b97a8a76fb239d3e33d6,2020-08-10_16h48.32.091,lexical_decision_task_MP,2020.1.3,Win32,60,m,1,0.61005,,,,,,,,0.61005,1,,,,,,132,WORD,"ID",50,strong,STRONG,m,,,,,,0.042592606,-0.398148162,0,0,0,,0,19,19,71,1,
,,,,,,,,,,,,,,,,,,5e19b97a8a76fb239d3e33d6,2020-08-10_16h48.32.091,lexical_decision_task_MP,2020.1.3,Win32,60,m,1,0.539935,,,,,,,,0.539935,1,,,,,,211,WORD,UN,33,verify,INFECT,m,,,,,,0.042592606,-0.398148162,0,0,0,,0,20,20,150,1,
,,,,,,,,,,,,,,,,,,5e19b97a8a76fb239d3e33d6,2020-08-10_16h48.32.091,lexical_decision_task_MP,2020.1.3,Win32,60,m,1,0.59338,,,,,,,,0.59338,1,,,,,,70,WORD,"ID",33,square,SQUARE,m,,,,,,0.042592606,-0.398148162,0,0,0,,0,21,21,9,1,
,,,,,,,,,,,,,,,,,,5e19b97a8a76fb239d3e33d6,2020-08-10_16h48.32.091,lexical_decision_task_MP,2020.1.3,Win32,60,m,1,0.69623,,,,,,,,0.69623,1,,,,,,32,WORD,UN,50,scream,BUCKLE,m,,,,,,0.042592606,-0.398148162,0,0,0,,0,22,22,211,1,
,,,,,,,,,,,,,,,,,,5e19b97a8a76fb239d3e33d6,2020-08-10_16h48.32.091,lexical_decision_task_MP,2020.1.3,Win32,60,z,1,0.68767,,,,,,,,0.68767,1,,,,,,268,NW,UN,50,orchet,PACKES,z,,,,,,0.042592606,-0.398148162,0,0,0,,0,23,23,447,1,
,,,,,,,,,,,,,,,,,,5e19b97a8a76fb239d3e33d6,2020-08-10_16h48.32.091,lexical_decision_task_MP,2020.1.3,Win32,60,m,1,0.463945,,,,,,,,0.463945,1,,,,,,170,WORD,"ID",50,pounce,POUNCE,m,,,,,,0.042592606,-0.398148162,0,0,0,,0,24,24,109,1,
,,,,,,,,,,,,,,,,,,5e19b97a8a76fb239d3e33d6,2020-08-10_16h48.32.091,lexical_decision_task_MP,2020.1.3,Win32,60,z,1,0.677595,,,,,,,,0.677595,1,,,,,,428,NW,UN,33,funtle,TANDLY,z,,,,,,0.042592606,-0.398148162,0,0,0,,0,25,25,367,1,
,,,,,,,,,,,,,,,,,,5e19b97a8a76fb239d3e33d6,2020-08-10_16h48.32.091,lexical_decision_task_MP,2020.1.3,Win32,60,m,1,0.791705,,,,,,,,0.791705,1,,,,,,156,WORD,"ID",50,cradle,CRADLE,m,,,,,,0.042592606,-0.398148162,0,0,0,,0,26,26,95,1,
,,,,,,,,,,,,,,,,,,5e19b97a8a76fb239d3e33d6,2020-08-10_16h48.32.091,lexical_decision_task_MP,2020.1.3,Win32,60,m,1,1.255085,,,,,,,,1.255085,1,,,,,,214,WORD,UN,33,phobia,INTAKE,m,,,,,,0.042592606,-0.398148162,0,0,0,,0,27,27,153,1,
,,,,,,,,,,,,,,,,,,5e19b97a8a76fb239d3e33d6,2020-08-10_16h48.32.091,lexical_decision_task_MP,2020.1.3,Win32,60,z,1,0.605705,,,,,,,,0.605705,1,,,,,,423,NW,UN,33,praile,STRELD,z,,,,,,0.042592606,-0.398148162,0,0,0,,0,28,28,362,1,
,,,,,,,,,,,,,,,,,,5e19b97a8a76fb239d3e33d6,2020-08-10_16h48.32.091,lexical_decision_task_MP,2020.1.3,Win32,60,z,1,0.885275,,,,,,,,0.885275,1,,,,,,458,NW,UN,33,hocite,BARCET,z,,,,,,0.042592606,-0.398148162,0,0,0,,0,29,29,397,1,
,,,,,,,,,,,,,,,,,,5e19b97a8a76fb239d3e33d6,2020-08-10_16h48.32.091,lexical_decision_task_MP,2020.1.3,Win32,60,m,1,0.688325,,,,,,,,0.688325,1,,,,,,192,WORD,UN,33,object,PLAGUE,m,,,,,,0.042592606,-0.398148162,0,0,0,,0,30,30,131,1,
,,,,,,,,,,,,,,,,,,5e19b97a8a76fb239d3e33d6,2020-08-10_16h48.32.091,lexical_decision_task_MP,2020.1.3,Win32,60,z,1,0.68881,,,,,,,,0.68881,1,,,,,,272,NW,UN,50,sortel,DAMILT,z,,,,,,0.042592606,-0.398148162,0,0,0,,0,31,31,451,1,
,,,,,,,,,,,,,,,,,,5e19b97a8a76fb239d3e33d6,2020-08-10_16h48.32.091,lexical_decision_task_MP,2020.1.3,Win32,60,m,0,0.769995,,,,,,,,0.769995,0,,,,,,325,NW,"ID",33,thruse,THRUSE,z,,,,,,0.042592606,-0.398148162,0,0,0,,0,32,32,264,1,
,,,,,,,,,,,,,,,,,,5e19b97a8a76fb239d3e33d6,2020-08-10_16h48.32.091,lexical_decision_task_MP,2020.1.3,Win32,60,z,1,1.146955,,,,,,,,1.146955,1,,,,,,273,NW,UN,50,fumblo,SORTEL,z,,,,,,0.042592606,-0.398148162,0,0,0,,0,33,33,452,1,
,,,,,,,,,,,,,,,,,,5e19b97a8a76fb239d3e33d6,2020-08-10_16h48.32.091,lexical_decision_task_MP,2020.1.3,Win32,60,m,1,0.757055,,,,,,,,0.757055,1,,,,,,34,WORD,UN,50,socket,JUNGLE,m,,,,,,0.042592606,-0.398148162,0,0,0,,0,34,34,213,1,
,,,,,,,,,,,,,,,,,,5e19b97a8a76fb239d3e33d6,2020-08-10_16h48.32.091,lexical_decision_task_MP,2020.1.3,Win32,60,m,1,0.53752,,,,,,,,0.53752,1,,,,,,159,WORD,"ID",50,detail,DETAIL,m,,,,,,0.042592606,-0.398148162,0,0,0,,0,35,35,98,1,
,,,,,,,,,,,,,,,,,,5e19b97a8a76fb239d3e33d6,2020-08-10_16h48.32.091,lexical_decision_task_MP,2020.1.3,Win32,60,m,1,0.64247,,,,,,,,0.64247,1,,,,,,85,WORD,"ID",33,sprawl,SPRAWL,m,,,,,,0.042592606,-0.398148162,0,0,0,,0,36,36,24,1,
,,,,,,,,,,,,,,,,,,5e19b97a8a76fb239d3e33d6,2020-08-10_16h48.32.091,lexical_decision_task_MP,2020.1.3,Win32,60,z,1,0.724155,,,,,,,,0.724155,1,,,,,,460,NW,UN,33,justre,MINGAR,z,,,,,,0.042592606,-0.398148162,0,0,0,,0,37,37,399,1,
,,,,,,,,,,,,,,,,,,5e19b97a8a76fb239d3e33d6,2020-08-10_16h48.32.091,lexical_decision_task_MP,2020.1.3,Win32,60,m,1,0.572175,,,,,,,,0.572175,1,,,,,,164,WORD,"ID",50,market,MARKET,m,,,,,,0.042592606,-0.398148162,0,0,0,,0,38,38,103,1,
,,,,,,,,,,,,,,,,,,5e19b97a8a76fb239d3e33d6,2020-08-10_16h48.32.091,lexical_decision_task_MP,2020.1.3,Win32,60,m,0,0.62607,,,,,,,,0.62607,0,,,,,,413,NW,"ID",50,equats,EQUATS,z,,,,,,0.042592606,-0.398148162,0,0,0,,0,39,39,352,1,
,,,,,,,,,,,,,,,,,,5e19b97a8a76fb239d3e33d6,2020-08-10_16h48.32.091,lexical_decision_task_MP,2020.1.3,Win32,60,z,0,0.621355,,,,,,,,0.621355,0,,,,,,51,WORD,UN,50,impose,HUNGRY,m,,,,,,0.042592606,-0.398148162,0,0,0,,0,40,40,230,1,
,,,,,,,,,,,,,,,,,,5e19b97a8a76fb239d3e33d6,2020-08-10_16h48.32.091,lexical_decision_task_MP,2020.1.3,Win32,60,z,1,0.683485,,,,,,,,0.683485,1,,,,,,375,NW,"ID",50,yorque,YORQUE,z,,,,,,0.042592606,-0.398148162,0,0,0,,0,41,41,314,1,
,,,,,,,,,,,,,,,,,,5e19b97a8a76fb239d3e33d6,2020-08-10_16h48.32.091,lexical_decision_task_MP,2020.1.3,Win32,60,z,1,1.08319,,,,,,,,1.08319,1,,,,,,402,NW,"ID",50,syntic,SYNTIC,z,,,,,,0.042592606,-0.398148162,0,0,0,,0,42,42,341,1,
,,,,,,,,,,,,,,,,,,5e19b97a8a76fb239d3e33d6,2020-08-10_16h48.32.091,lexical_decision_task_MP,2020.1.3,Win32,60,m,1,0.65356,,,,,,,,0.65356,1,,,,,,137,WORD,"ID",50,finger,FINGER,m,,,,,,0.042592606,-0.398148162,0,0,0,,0,43,43,76,1,
,,,,,,,,,,,,,,,,,,5e19b97a8a76fb239d3e33d6,2020-08-10_16h48.32.091,lexical_decision_task_MP,2020.1.3,Win32,60,z,1,0.701025,,,,,,,,0.701025,1,,,,,,334,NW,"ID",33,watmeg,WATMEG,z,,,,,,0.042592606,-0.398148162,0,0,0,,0,44,44,273,1,
,,,,,,,,,,,,,,,,,,5e19b97a8a76fb239d3e33d6,2020-08-10_16h48.32.091,lexical_decision_task_MP,2020.1.3,Win32,60,m,1,0.66664,,,,,,,,0.66664,1,,,,,,225,WORD,UN,33,casino,VULGAR,m,,,,,,0.042592606,-0.398148162,0,0,0,,0,45,45,164,1,
,,,,,,,,,,,,,,,,,,5e19b97a8a76fb239d3e33d6,2020-08-10_16h48.32.091,lexical_decision_task_MP,2020.1.3,Win32,60,m,1,0.74033,,,,,,,,0.74033,1,,,,,,12,WORD,UN,50,strive,ORANGE,m,,,,,,0.042592606,-0.398148162,0,0,0,,0,46,46,191,1,
,,,,,,,,,,,,,,,,,,5e19b97a8a76fb239d3e33d6,2020-08-10_16h48.32.091,lexical_decision_task_MP,2020.1.3,Win32,60,m,1,0.61939,,,,,,,,0.61939,1,,,,,,89,WORD,"ID",33,permit,PERMIT,m,,,,,,0.042592606,-0.398148162,0,0,0,,0,47,47,28,1,
,,,,,,,,,,,,,,,,,,5e19b97a8a76fb239d3e33d6,2020-08-10_16h48.32.091,lexical_decision_task_MP,2020.1.3,Win32,60,m,1,0.83842,,,,,,,,0.83842,1,,,,,,142,WORD,"ID",50,spruce,SPRUCE,m,,,,,,0.042592606,-0.398148162,0,0,0,,0,48,48,81,1,
,,,,,,,,,,,,,,,,,,5e19b97a8a76fb239d3e33d6,2020-08-10_16h48.32.091,lexical_decision_task_MP,2020.1.3,Win32,60,m,1,0.552495,,,,,,,,0.552495,1,,,,,,7,WORD,UN,50,abrupt,ANCHOR,m,,,,,,0.042592606,-0.398148162,0,0,0,,0,49,49,186,1,
,,,,,,,,,,,,,,,,,,5e19b97a8a76fb239d3e33d6,2020-08-10_16h48.32.091,lexical_decision_task_MP,2020.1.3,Win32,60,z,1,0.77,,,,,,,,0.77,1,,,,,,360,NW,"ID",33,desory,DESORY,z,,,,,,0.042592606,-0.398148162,0,0,0,,0,50,50,299,1,
,,,,,,,,,,,,,,,,,,5e19b97a8a76fb239d3e33d6,2020-08-10_16h48.32.091,lexical_decision_task_MP,2020.1.3,Win32,60,m,0,0.588865,,,,,,,,0.588865,0,,,,,,472,NW,UN,33,gorbie,CIGNEY,z,,,,,,0.042592606,-0.398148162,0,0,0,,0,51,51,411,1,
,,,,,,,,,,,,,,,,,,5e19b97a8a76fb239d3e33d6,2020-08-10_16h48.32.091,lexical_decision_task_MP,2020.1.3,Win32,60,z,1,0.6314,,,,,,,,0.6314,1,,,,,,401,NW,"ID",50,mustil,MUSTIL,z,,,,,,0.042592606,-0.398148162,0,0,0,,0,52,52,340,1,
,,,,,,,,,,,,,,,,,,5e19b97a8a76fb239d3e33d6,2020-08-10_16h48.32.091,lexical_decision_task_MP,2020.1.3,Win32,60,z,1,0.551755,,,,,,,,0.551755,1,,,,,,451,NW,UN,33,surden,CAINKY,z,,,,,,0.042592606,-0.398148162,0,0,0,,0,53,53,390,1,
,,,,,,,,,,,,,,,,,,5e19b97a8a76fb239d3e33d6,2020-08-10_16h48.32.091,lexical_decision_task_MP,2020.1.3,Win32,60,z,1,0.8263,,,,,,,,0.8263,1,,,,,,345,NW,"ID",33,absend,ABSEND,z,,,,,,0.042592606,-0.398148162,0,0,0,,0,54,54,284,1,
,,,,,,,,,,,,,,,,,,5e19b97a8a76fb239d3e33d6,2020-08-10_16h48.32.091,lexical_decision_task_MP,2020.1.3,Win32,60,m,1,0.65337,,,,,,,,0.65337,1,,,,,,198,WORD,UN,33,invoke,WICKED,m,,,,,,0.042592606,-0.398148162,0,0,0,,0,55,55,137,1,
,,,,,,,,,,,,,,,,,,5e19b97a8a76fb239d3e33d6,2020-08-10_16h48.32.091,lexical_decision_task_MP,2020.1.3,Win32,60,m,1,0.663145,,,,,,,,0.663145,1,,,,,,153,WORD,"ID",50,behold,BEHOLD,m,,,,,,0.042592606,-0.398148162,0,0,0,,0,56,56,92,1,
,,,,,,,,,,,,,,,,,,5e19b97a8a76fb239d3e33d6,2020-08-10_16h48.32.091,lexical_decision_task_MP,2020.1.3,Win32,60,m,1,1.41736,,,,,,,,1.41736,1,,,,,,177,WORD,"ID",50,advent,ADVENT,m,,,,,,0.042592606,-0.398148162,0,0,0,,0,57,57,116,1,
,,,,,,,,,,,,,,,,,,5e19b97a8a76fb239d3e33d6,2020-08-10_16h48.32.091,lexical_decision_task_MP,2020.1.3,Win32,60,z,1,0.67324,,,,,,,,0.67324,1,,,,,,257,NW,UN,50,poluth,VENIOD,z,,,,,,0.042592606,-0.398148162,0,0,0,,0,58,58,436,1,
,,,,,,,,,,,,,,,,,,5e19b97a8a76fb239d3e33d6,2020-08-10_16h48.32.091,lexical_decision_task_MP,2020.1.3,Win32,60,m,1,0.646285,,,,,,,,0.646285,1,,,,,,180,WORD,"ID",50,silent,SILENT,m,,,,,,0.042592606,-0.398148162,0,0,0,,0,59,59,119,1,
,,,,,,,,,,,,,,,,,,5e19b97a8a76fb239d3e33d6,2020-08-10_16h48.32.091,lexical_decision_task_MP,2020.1.3,Win32,60,z,1,0.68467,,,,,,,,0.68467,1,,,,,,414,NW,"ID",50,serbol,SERBOL,z,,,,,,0.042592606,-0.398148162,0,0,0,,0,60,60,353,1,
,,,,,,,,,,,,,,,,,,5e19b97a8a76fb239d3e33d6,2020-08-10_16h48.32.091,lexical_decision_task_MP,2020.1.3,Win32,60,z,1,0.80071,,,,,,,,0.80071,1,,,,,,293,NW,UN,50,inhort,SWANCE,z,,,,,,0.042592606,-0.398148162,0,0,0,,0,61,61,472,1,
,,,,,,,,,,,,,,,,,,5e19b97a8a76fb239d3e33d6,2020-08-10_16h48.32.091,lexical_decision_task_MP,2020.1.3,Win32,60,z,1,0.522395,,,,,,,,0.522395,1,,,,,,476,NW,UN,33,photie,JOSTED,z,,,,,,0.042592606,-0.398148162,0,0,0,,0,62,62,415,1,
,,,,,,,,,,,,,,,,,,5e19b97a8a76fb239d3e33d6,2020-08-10_16h48.32.091,lexical_decision_task_MP,2020.1.3,Win32,60,z,1,0.582855,,,,,,,,0.582855,1,,,,,,469,NW,UN,33,crudio,PADIFS,z,,,,,,0.042592606,-0.398148162,0,0,0,,0,63,63,408,1,
,,,,,,,,,,,,,,,,,,5e19b97a8a76fb239d3e33d6,2020-08-10_16h48.32.091,lexical_decision_task_MP,2020.1.3,Win32,60,z,1,0.729815,,,,,,,,0.729815,1,,,,,,356,NW,"ID",33,othnis,OTHNIS,z,,,,,,0.042592606,-0.398148162,0,0,0,,0,64,64,295,1,
,,,,,,,,,,,,,,,,,,5e19b97a8a76fb239d3e33d6,2020-08-10_16h48.32.091,lexical_decision_task_MP,2020.1.3,Win32,60,z,1,0.557065,,,,,,,,0.557065,1,,,,,,447,NW,UN,33,sadent,GIRCUE,z,,,,,,0.042592606,-0.398148162,0,0,0,,0,65,65,386,1,
,,,,,,,,,,,,,,,,,,5e19b97a8a76fb239d3e33d6,2020-08-10_16h48.32.091,lexical_decision_task_MP,2020.1.3,Win32,60,m,1,0.658955,,,,,,,,0.658955,1,,,,,,25,WORD,UN,50,sprint,DOMAIN,m,,,,,,0.042592606,-0.398148162,0,0,0,,0,66,66,204,1,
,,,,,,,,,,,,,,,,,,5e19b97a8a76fb239d3e33d6,2020-08-10_16h48.32.091,lexical_decision_task_MP,2020.1.3,Win32,60,m,1,1.500075,,,,,,,,1.500075,1,,,,,,182,WORD,UN,33,absent,WINTER,m,,,,,,0.042592606,-0.398148162,0,0,0,,0,67,67,121,1,
,,,,,,,,,,,,,,,,,,5e19b97a8a76fb239d3e33d6,2020-08-10_16h48.32.091,lexical_decision_task_MP,2020.1.3,Win32,60,m,1,1.633745,,,,,,,,1.633745,1,,,,,,124,WORD,"ID",50,blouse,BLOUSE,m,,,,,,0.042592606,-0.398148162,0,0,0,,0,68,68,63,1,
,,,,,,,,,,,,,,,,,,5e19b97a8a76fb239d3e33d6,2020-08-10_16h48.32.091,lexical_decision_task_MP,2020.1.3,Win32,60,m,1,0.6506,,,,,,,,0.6506,1,,,,,,55,WORD,UN,50,ambush,STROKE,m,,,,,,0.042592606,-0.398148162,0,0,0,,0,69,69,234,1,
,,,,,,,,,,,,,,,,,,5e19b97a8a76fb239d3e33d6,2020-08-10_16h48.32.091,lexical_decision_task_MP,2020.1.3,Win32,60,m,1,1.421895,,,,,,,,1.421895,1,,,,,,178,WORD,"ID",50,inform,INFORM,m,,,,,,0.042592606,-0.398148162,0,0,0,,0,70,70,117,1,
,,,,,,,,,,,,,,,,,,5e19b97a8a76fb239d3e33d6,2020-08-10_16h48.32.091,lexical_decision_task_MP,2020.1.3,Win32,60,m,1,0.63997,,,,,,,,0.63997,1,,,,,,121,WORD,"ID",50,thrive,THRIVE,m,,,,,,0.042592606,-0.398148162,0,0,0,,0,71,71,60,1,
,,,,,,,,,,,,,,,,,,5e19b97a8a76fb239d3e33d6,2020-08-10_16h48.32.091,lexical_decision_task_MP,2020.1.3,Win32,60,m,1,0.601515,,,,,,,,0.601515,1,,,,,,99,WORD,"ID",33,fluent,FLUENT,m,,,,,,0.042592606,-0.398148162,0,0,0,,0,72,72,38,1,
,,,,,,,,,,,,,,,,,,5e19b97a8a76fb239d3e33d6,2020-08-10_16h48.32.091,lexical_decision_task_MP,2020.1.3,Win32,60,m,0,0.38136,,,,,,,,0.38136,0,,,,,,473,NW,UN,33,hablin,CRIBLE,z,,,,,,0.042592606,-0.398148162,0,0,0,,0,73,73,412,1,
,,,,,,,,,,,,,,,,,,5e19b97a8a76fb239d3e33d6,2020-08-10_16h48.32.091,lexical_decision_task_MP,2020.1.3,Win32,60,z,1,1.17989,,,,,,,,1.17989,1,,,,,,467,NW,UN,33,wictor,GORBIE,z,,,,,,0.032407421,-0.399074087,0,0,0,,0,74,74,406,1,
,,,,,,,,,,,,,,,,,,5e19b97a8a76fb239d3e33d6,2020-08-10_16h48.32.091,lexical_decision_task_MP,2020.1.3,Win32,60,m,1,0.89367,,,,,,,,0.89367,1,,,,,,27,WORD,UN,50,comedy,SCREAM,m,,,,,,0.032407421,-0.399074087,0,0,0,,0,75,75,206,1,
,,,,,,,,,,,,,,,,,,5e19b97a8a76fb239d3e33d6,2020-08-10_16h48.32.091,lexical_decision_task_MP,2020.1.3,Win32,60,z,1,0.96678,,,,,,,,0.96678,1,,,,,,312,NW,"ID",33,nerawl,NERAWL,z,,,,,,0.032407421,-0.399074087,0,0,0,,0,76,76,251,1,
,,,,,,,,,,,,,,,,,,5e19b97a8a76fb239d3e33d6,2020-08-10_16h48.32.091,lexical_decision_task_MP,2020.1.3,Win32,60,m,1,0.889365,,,,,,,,0.889365,1,,,,,,236,WORD,UN,33,grumpy,PIRATE,m,,,,,,0.032407421,-0.399074087,0,0,0,,0,77,77,175,1,
,,,,,,,,,,,,,,,,,,5e19b97a8a76fb239d3e33d6,2020-08-10_16h48.32.091,lexical_decision_task_MP,2020.1.3,Win32,60,z,1,1.80569,,,,,,,,1.80569,1,,,,,,316,NW,"ID",33,scregm,SCREGM,z,,,,,,0.032407421,-0.399074087,0,0,0,,0,78,78,255,1,
,,,,,,,,,,,,,,,,,,5e19b97a8a76fb239d3e33d6,2020-08-10_16h48.32.091,lexical_decision_task_MP,2020.1.3,Win32,60,z,0,0.797925,,,,,,,,0.797925,0,,,,,,240,WORD,UN,33,seldom,FOREST,m,,,,,,0.032407421,-0.399074087,0,0,0,,0,79,79,179,1,
,,,,,,,,,,,,,,,,,,5e19b97a8a76fb239d3e33d6,2020-08-10_16h48.32.091,lexical_decision_task_MP,2020.1.3,Win32,60,m,1,1.301685,,,,,,,,1.301685,1,,,,,,199,WORD,UN,33,plague,INVOKE,m,,,,,,0.032407421,-0.399074087,0,0,0,,0,80,80,138,1,
,,,,,,,,,,,,,,,,,,5e19b97a8a76fb239d3e33d6,2020-08-10_16h48.32.091,lexical_decision_task_MP,2020.1.3,Win32,60,z,1,1.1823,,,,,,,,1.1823,1,,,,,,407,NW,"ID",50,suiver,SUIVER,z,,,,,,0.032407421,-0.399074087,0,0,0,,0,81,81,346,1,
,,,,,,,,,,,,,,,,,,5e19b97a8a76fb239d3e33d6,2020-08-10_16h48.32.091,lexical_decision_task_MP,2020.1.3,Win32,60,m,1,0.9836,,,,,,,,0.9836,1,,,,,,173,WORD,"ID",50,shower,SHOWER,m,,,,,,0.032407421,-0.399074087,0,0,0,,0,82,82,112,1,
,,,,,,,,,,,,,,,,,,5e19b97a8a76fb239d3e33d6,2020-08-10_16h48.32.091,lexical_decision_task_MP,2020.1.3,Win32,60,z,0,0.758185,,,,,,,,0.758185,0,,,,,,22,WORD,UN,50,wealth,JOCKEY,m,,,,,,0.032407421,-0.399074087,0,0,0,,0,83,83,201,1,
,,,,,,,,,,,,,,,,,,5e19b97a8a76fb239d3e33d6,2020-08-10_16h48.32.091,lexical_decision_task_MP,2020.1.3,Win32,60,m,1,0.74356,,,,,,,,0.74356,1,,,,,,165,WORD,"ID",50,invest,INVEST,m,,,,,,0.032407421,-0.399074087,0,0,0,,0,84,84,104,1,
,,,,,,,,,,,,,,,,,,5e19b97a8a76fb239d3e33d6,2020-08-10_16h48.32.091,lexical_decision_task_MP,2020.1.3,Win32,60,m,1,1.11416,,,,,,,,1.11416,1,,,,,,130,WORD,"ID",50,stupid,STUPID,m,,,,,,0.032407421,-0.399074087,0,0,0,,0,85,85,69,1,
,,,,,,,,,,,,,,,,,,5e19b97a8a76fb239d3e33d6,2020-08-10_16h48.32.091,lexical_decision_task_MP,2020.1.3,Win32,60,m,0,0.695185,,,,,,,,0.695185,0,,,,,,303,NW,"ID",33,fiream,FIREAM,z,,,,,,0.032407421,-0.399074087,0,0,0,,0,86,86,242,1,
,,,,,,,,,,,,,,,,,,5e19b97a8a76fb239d3e33d6,2020-08-10_16h48.32.091,lexical_decision_task_MP,2020.1.3,Win32,60,m,1,0.74321,,,,,,,,0.74321,1,,,,,,93,WORD,"ID",33,public,PUBLIC,m,,,,,,0.032407421,-0.399074087,0,0,0,,0,87,87,32,1,
,,,,,,,,,,,,,,,,,,5e19b97a8a76fb239d3e33d6,2020-08-10_16h48.32.091,lexical_decision_task_MP,2020.1.3,Win32,60,z,1,1.75502,,,,,,,,1.75502,1,,,,,,450,NW,UN,33,cainky,PHRECT,z,,,,,,0.032407421,-0.399074087,0,0,0,,0,88,88,389,1,
,,,,,,,,,,,,,,,,,,5e19b97a8a76fb239d3e33d6,2020-08-10_16h48.32.091,lexical_decision_task_MP,2020.1.3,Win32,60,z,1,0.93561,,,,,,,,0.93561,1,,,,,,335,NW,"ID",33,desion,DESION,z,,,,,,0.032407421,-0.399074087,0,0,0,,0,89,89,274,1,
,,,,,,,,,,,,,,,,,,5e19b97a8a76fb239d3e33d6,2020-08-10_16h48.32.091,lexical_decision_task_MP,2020.1.3,Win32,60,z,1,1.4032,,,,,,,,1.4032,1,,,,,,403,NW,"ID",50,bruats,BRUATS,z,,,,,,0.032407421,-0.399074087,0,0,0,,0,90,90,342,1,
,,,,,,,,,,,,,,,,,,5e19b97a8a76fb239d3e33d6,2020-08-10_16h48.32.091,lexical_decision_task_MP,2020.1.3,Win32,60,m,1,0.64278,,,,,,,,0.64278,1,,,,,,129,WORD,"ID",50,marvel,MARVEL,m,,,,,,0.032407421,-0.399074087,0,0,0,,0,91,91,68,1,
,,,,,,,,,,,,,,,,,,5e19b97a8a76fb239d3e33d6,2020-08-10_16h48.32.091,lexical_decision_task_MP,2020.1.3,Win32,60,m,1,0.52619,,,,,,,,0.52619,1,,,,,,17,WORD,UN,50,humble,CHARGE,m,,,,,,0.032407421,-0.399074087,0,0,0,,0,92,92,196,1,
,,,,,,,,,,,,,,,,,,5e19b97a8a76fb239d3e33d6,2020-08-10_16h48.32.091,lexical_decision_task_MP,2020.1.3,Win32,60,z,1,0.862535,,,,,,,,0.862535,1,,,,,,431,NW,UN,33,lunker,CHRUMS,z,,,,,,0.032407421,-0.399074087,0,0,0,,0,93,93,370,1,
,,,,,,,,,,,,,,,,,,5e19b97a8a76fb239d3e33d6,2020-08-10_16h48.32.091,lexical_decision_task_MP,2020.1.3,Win32,60,z,1,1.134395,,,,,,,,1.134395,1,,,,,,416,NW,"ID",50,pathel,PATHEL,z,,,,,,0.032407421,-0.399074087,0,0,0,,0,94,94,355,1,
,,,,,,,,,,,,,,,,,,5e19b97a8a76fb239d3e33d6,2020-08-10_16h48.32.091,lexical_decision_task_MP,2020.1.3,Win32,60,m,1,1.513125,,,,,,,,1.513125,1,,,,,,221,WORD,UN,33,hinder,MASCOT,m,,,,,,0.032407421,-0.399074087,0,0,0,,0,95,95,160,1,
,,,,,,,,,,,,,,,,,,5e19b97a8a76fb239d3e33d6,2020-08-10_16h48.32.091,lexical_decision_task_MP,2020.1.3,Win32,60,m,1,0.68299,,,,,,,,0.68299,1,,,,,,119,WORD,"ID",33,spider,SPIDER,m,,,,,,0.032407421,-0.399074087,0,0,0,,0,96,96,58,1,
,,,,,,,,,,,,,,,,,,5e19b97a8a76fb239d3e33d6,2020-08-10_16h48.32.091,lexical_decision_task_MP,2020.1.3,Win32,60,,0,,,,,,,,,0.68299,-1,,,,,,322,NW,"ID",33,slanch,SLANCH,z,,,,,,0.032407421,-0.399074087,0,0,0,,0,97,97,261,1,
,,,,,,,,,,,,,,,,,,5e19b97a8a76fb239d3e33d6,2020-08-10_16h48.32.091,lexical_decision_task_MP,2020.1.3,Win32,60,,0,,,,,,,,,0.68299,-1,,,,,,232,WORD,UN,33,nature,INJECT,m,,,,,,0.032407421,-0.399074087,0,0,0,,0,98,98,171,1,
,,,,,,,,,,,,,,,,,,5e19b97a8a76fb239d3e33d6,2020-08-10_16h48.32.091,lexical_decision_task_MP,2020.1.3,Win32,60,,0,,,,,,,,,0.68299,-1,,,,,,349,NW,"ID",33,asylen,ASYLEN,z,,,,,,0.032407421,-0.399074087,0,0,0,,0,99,99,288,1,
,,,,,,,,,,,,,,,,,,5e19b97a8a76fb239d3e33d6,2020-08-10_16h48.32.091,lexical_decision_task_MP,2020.1.3,Win32,60,,0,,,,,,,,,0.68299,-1,,,,,,249,NW,UN,50,milted,BATROL,z,,,,,,0.032407421,-0.399074087,0,0,0,,0,100,100,428,1,
,,,,,,,,,,,,,,,,,,5e19b97a8a76fb239d3e33d6,2020-08-10_16h48.32.091,lexical_decision_task_MP,2020.1.3,Win32,60,,0,,,,,,,,,0.68299,-1,,,,,,105,WORD,"ID",33,number,NUMBER,m,,,,,,0.032407421,-0.399074087,0,0,0,,0,101,101,44,1,
,,,,,,,,,,,,,,,,,,5e19b97a8a76fb239d3e33d6,2020-08-10_16h48.32.091,lexical_decision_task_MP,2020.1.3,Win32,60,,0,,,,,,,,,0.68299,-1,,,,,,361,NW,"ID",50,pauche,PAUCHE,z,,,,,,0.032407421,-0.399074087,0,0,0,,0,102,102,300,1,
,,,,,,,,,,,,,,,,,,5e19b97a8a76fb239d3e33d6,2020-08-10_16h48.32.091,lexical_decision_task_MP,2020.1.3,Win32,60,,0,,,,,,,,,0.68299,-1,,,,,,412,NW,"ID",50,jiluer,JILUER,z,,,,,,0.032407421,-0.399074087,0,0,0,,0,103,103,351,1,
,,,,,,,,,,,,,,,,,,5e19b97a8a76fb239d3e33d6,2020-08-10_16h48.32.091,lexical_decision_task_MP,2020.1.3,Win32,60,,0,,,,,,,,,0.68299,-1,,,,,,91,WORD,"ID",33,expand,EXPAND,m,,,,,,0.032407421,-0.399074087,0,0,0,,0,104,104,30,1,
,,,,,,,,,,,,,,,,,,5e19b97a8a76fb239d3e33d6,2020-08-10_16h48.32.091,lexical_decision_task_MP,2020.1.3,Win32,60,,0,,,,,,,,,0.68299,-1,,,,,,16,WORD,UN,50,charge,FAUCET,m,,,,,,0.032407421,-0.399074087,0,0,0,,0,105,105,195,1,
,,,,,,,,,,,,,,,,,,5e19b97a8a76fb239d3e33d6,2020-08-10_16h48.32.091,lexical_decision_task_MP,2020.1.3,Win32,60,,0,,,,,,,,,0.68299,-1,,,,,,112,WORD,"ID",33,breath,BREATH,m,,,,,,0.032407421,-0.399074087,0,0,0,,0,106,106,51,1,
,,,,,,,,,,,,,,,,,,5e19b97a8a76fb239d3e33d6,2020-08-10_16h48.32.091,lexical_decision_task_MP,2020.1.3,Win32,60,,0,,,,,,,,,0.68299,-1,,,,,,57,WORD,UN,50,danger,CHANGE,m,,,,,,0.032407421,-0.399074087,0,0,0,,0,107,107,236,1,
,,,,,,,,,,,,,,,,,,5e19b97a8a76fb239d3e33d6,2020-08-10_16h48.32.091,lexical_decision_task_MP,2020.1.3,Win32,60,,0,,,,,,,,,0.68299,-1,,,,,,28,WORD,UN,50,sketch,COMEDY,m,,,,,,0.032407421,-0.399074087,0,0,0,,0,108,108,207,1,
,,,,,,,,,,,,,,,,,,5e19b97a8a76fb239d3e33d6,2020-08-10_16h48.32.091,lexical_decision_task_MP,2020.1.3,Win32,60,,0,,0.419444464,0.269444441,1,0,0,1.22131,,0.68299,-1,,,,,,115,WORD,"ID",33,guitar,GUITAR,m,,,,,,0.419444464,0.269444441,0,0,0,,0,109,109,54,1,
,,,,,,,,,,,,,,,,,,5e19b97a8a76fb239d3e33d6,2020-08-10_16h48.32.091,lexical_decision_task_MP,2020.1.3,Win32,60,z,1,0.41035,,,,,,,,0.41035,1,,,,,,443,NW,UN,33,jaunce,DORSEX,z,,,,,,0.419444464,0.269444441,0,0,0,,0,110,110,382,1,
,,,,,,,,,,,,,,,,,,5e19b97a8a76fb239d3e33d6,2020-08-10_16h48.32.091,lexical_decision_task_MP,2020.1.3,Win32,60,m,1,0.829515,,,,,,,,0.829515,1,,,,,,176,WORD,"ID",50,strife,STRIFE,m,,,,,,0.419444464,0.269444441,0,0,0,,0,111,111,115,1,
,,,,,,,,,,,,,,,,,,5e19b97a8a76fb239d3e33d6,2020-08-10_16h48.32.091,lexical_decision_task_MP,2020.1.3,Win32,60,m,1,0.94687,,,,,,,,0.94687,1,,,,,,123,WORD,"ID",50,strike,STRIKE,m,,,,,,0.419444464,0.269444441,0,0,0,,0,112,112,62,1,
,,,,,,,,,,,,,,,,,,5e19b97a8a76fb239d3e33d6,2020-08-10_16h48.32.091,lexical_decision_task_MP,2020.1.3,Win32,60,m,1,0.744355,,,,,,,,0.744355,1,,,,,,139,WORD,"ID",50,debris,DEBRIS,m,,,,,,0.419444464,0.269444441,0,0,0,,0,113,113,78,1,
,,,,,,,,,,,,,,,,,,5e19b97a8a76fb239d3e33d6,2020-08-10_16h48.32.091,lexical_decision_task_MP,2020.1.3,Win32,60,z,1,1.243485,,,,,,,,1.243485,1,,,,,,449,NW,UN,33,phrect,BRUNGE,z,,,,,,0.419444464,0.269444441,0,0,0,,0,114,114,388,1,
,,,,,,,,,,,,,,,,,,5e19b97a8a76fb239d3e33d6,2020-08-10_16h48.32.091,lexical_decision_task_MP,2020.1.3,Win32,60,z,1,0.8075,,,,,,,,0.8075,1,,,,,,289,NW,UN,50,splino,STARBY,z,,,,,,0.419444464,0.269444441,0,0,0,,0,115,115,468,1,
,,,,,,,,,,,,,,,,,,5e19b97a8a76fb239d3e33d6,2020-08-10_16h48.32.091,lexical_decision_task_MP,2020.1.3,Win32,60,m,1,0.934325,,,,,,,,0.934325,1,,,,,,36,WORD,UN,50,insult,VANISH,m,,,,,,0.419444464,0.269444441,0,0,0,,0,116,116,215,1,
,,,,,,,,,,,,,,,,,,5e19b97a8a76fb239d3e33d6,2020-08-10_16h48.32.091,lexical_decision_task_MP,2020.1.3,Win32,60,z,1,0.69306,,,,,,,,0.69306,1,,,,,,313,NW,"ID",33,paurse,PAURSE,z,,,,,,0.419444464,0.269444441,0,0,0,,0,117,117,252,1,
,,,,,,,,,,,,,,,,,,5e19b97a8a76fb239d3e33d6,2020-08-10_16h48.32.091,lexical_decision_task_MP,2020.1.3,Win32,60,z,1,0.86733,,,,,,,,0.86733,1,,,,,,315,NW,"ID",33,laston,LASTON,z,,,,,,0.419444464,0.269444441,0,0,0,,0,118,118,254,1,
,,,,,,,,,,,,,,,,,,5e19b97a8a76fb239d3e33d6,2020-08-10_16h48.32.091,lexical_decision_task_MP,2020.1.3,Win32,60,m,1,0.765275,,,,,,,,0.765275,1,,,,,,19,WORD,UN,50,breast,PATRON,m,,,,,,0.419444464,0.269444441,0,0,0,,0,119,119,198,1,
,,,,,,,,,,,,,,,,,,5e19b97a8a76fb239d3e33d6,2020-08-10_16h48.32.091,lexical_decision_task_MP,2020.1.3,Win32,60,z,1,0.920625,,,,,,,,0.920625,1,,,,,,419,NW,"ID",50,slount,SLOUNT,z,,,,,,0.419444464,0.269444441,0,0,0,space,0,120,120,358,1,89.40216
,,,,,,,,,,,,,,,,,,5e19b97a8a76fb239d3e33d6,2020-08-10_16h48.32.091,lexical_decision_task_MP,2020.1.3,Win32,60,m,1,1.683925,,,,,,,,1.683925,1,,,,,,104,WORD,"ID",33,studio,STUDIO,m,,,,,,0.419444464,0.269444441,0,0,0,,0,121,121,43,1,
,,,,,,,,,,,,,,,,,,5e19b97a8a76fb239d3e33d6,2020-08-10_16h48.32.091,lexical_decision_task_MP,2020.1.3,Win32,60,m,1,0.998445,,,,,,,,0.998445,1,,,,,,183,WORD,UN,33,sleazy,MILDEW,m,,,,,,0.419444464,0.269444441,0,0,0,,0,122,122,122,1,
,,,,,,,,,,,,,,,,,,5e19b97a8a76fb239d3e33d6,2020-08-10_16h48.32.091,lexical_decision_task_MP,2020.1.3,Win32,60,m,1,0.463905,,,,,,,,0.463905,1,,,,,,154,WORD,"ID",50,author,AUTHOR,m,,,,,,0.419444464,0.269444441,0,0,0,,0,123,123,93,1,
,,,,,,,,,,,,,,,,,,5e19b97a8a76fb239d3e33d6,2020-08-10_16h48.32.091,lexical_decision_task_MP,2020.1.3,Win32,60,m,1,0.43605,,,,,,,,0.43605,1,,,,,,13,WORD,UN,50,almost,STRIVE,m,,,,,,0.419444464,0.269444441,0,0,0,,0,124,124,192,1,
,,,,,,,,,,,,,,,,,,5e19b97a8a76fb239d3e33d6,2020-08-10_16h48.32.091,lexical_decision_task_MP,2020.1.3,Win32,60,m,1,0.42965,,,,,,,,0.42965,1,,,,,,75,WORD,"ID",33,trophy,TROPHY,m,,,,,,0.419444464,0.269444441,0,0,0,,0,125,125,14,1,
,,,,,,,,,,,,,,,,,,5e19b97a8a76fb239d3e33d6,2020-08-10_16h48.32.091,lexical_decision_task_MP,2020.1.3,Win32,60,m,1,0.314705,,,,,,,,0.314705,1,,,,,,167,WORD,"ID",50,design,DESIGN,m,,,,,,0.419444464,0.269444441,0,0,0,,0,126,126,106,1,
,,,,,,,,,,,,,,,,,,5e19b97a8a76fb239d3e33d6,2020-08-10_16h48.32.091,lexical_decision_task_MP,2020.1.3,Win32,60,m,0,0.47412,,,,,,,,0.47412,0,,,,,,262,NW,UN,50,dolica,QUILEW,z,,,,,,0.419444464,0.269444441,0,0,0,,0,127,127,441,1,
,,,,,,,,,,,,,,,,,,5e19b97a8a76fb239d3e33d6,2020-08-10_16h48.32.091,lexical_decision_task_MP,2020.1.3,Win32,60,z,1,0.58923,,,,,,,,0.58923,1,,,,,,456,NW,UN,33,wanigh,BROGET,z,,,,,,0.419444464,0.269444441,0,0,0,,0,128,128,395,1,
,,,,,,,,,,,,,,,,,,5e19b97a8a76fb239d3e33d6,2020-08-10_16h48.32.091,lexical_decision_task_MP,2020.1.3,Win32,60,z,1,0.567515,,,,,,,,0.567515,1,,,,,,302,NW,"ID",33,miluer,MILUER,z,,,,,,0.419444464,0.269444441,0,0,0,,0,129,129,241,1,
,,,,,,,,,,,,,,,,,,5e19b97a8a76fb239d3e33d6,2020-08-10_16h48.32.091,lexical_decision_task_MP,2020.1.3,Win32,60,m,1,0.664685,,,,,,,,0.664685,1,,,,,,222,WORD,UN,33,export,HINDER,m,,,,,,0.419444464,0.269444441,0,0,0,,0,130,130,161,1,
,,,,,,,,,,,,,,,,,,5e19b97a8a76fb239d3e33d6,2020-08-10_16h48.32.091,lexical_decision_task_MP,2020.1.3,Win32,60,m,1,0.73301,,,,,,,,0.73301,1,,,,,,150,WORD,"ID",50,random,RANDOM,m,,,,,,0.419444464,0.269444441,0,0,0,,0,131,131,89,1,
,,,,,,,,,,,,,,,,,,5e19b97a8a76fb239d3e33d6,2020-08-10_16h48.32.091,lexical_decision_task_MP,2020.1.3,Win32,60,z,1,0.640365,,,,,,,,0.640365,1,,,,,,429,NW,UN,33,caroey,FUNTLE,z,,,,,,0.419444464,0.269444441,0,0,0,,0,132,132,368,1,
,,,,,,,,,,,,,,,,,,5e19b97a8a76fb239d3e33d6,2020-08-10_16h48.32.091,lexical_decision_task_MP,2020.1.3,Win32,60,z,1,0.6285,,,,,,,,0.6285,1,,,,,,426,NW,UN,33,schind,URIVEL,z,,,,,,0.419444464,0.269444441,0,0,0,,0,133,133,365,1,
,,,,,,,,,,,,,,,,,,5e19b97a8a76fb239d3e33d6,2020-08-10_16h48.32.091,lexical_decision_task_MP,2020.1.3,Win32,60,z,1,0.737535,,,,,,,,0.737535,1,,,,,,252,NW,UN,50,resait,STAPOD,z,,,,,,0.419444464,0.269444441,0,0,0,,0,134,134,431,1,
,,,,,,,,,,,,,,,,,,5e19b97a8a76fb239d3e33d6,2020-08-10_16h48.32.091,lexical_decision_task_MP,2020.1.3,Win32,60,m,1,0.54245,,,,,,,,0.54245,1,,,,,,71,WORD,"ID",33,garden,GARDEN,m,,,,,,0.419444464,0.269444441,0,0,0,,0,135,135,10,1,
,,,,,,,,,,,,,,,,,,5e19b97a8a76fb239d3e33d6,2020-08-10_16h48.32.091,lexical_decision_task_MP,2020.1.3,Win32,60,z,1,0.73676,,,,,,,,0.73676,1,,,,,,353,NW,"ID",33,clurey,CLUREY,z,,,,,,0.419444464,0.269444441,0,0,0,,0,136,136,292,1,
,,,,,,,,,,,,,,,,,,5e19b97a8a76fb239d3e33d6,2020-08-10_16h48.32.091,lexical_decision_task_MP,2020.1.3,Win32,60,z,1,0.550895,,,,,,,,0.550895,1,,,,,,452,NW,UN,33,bolvis,SURDEN,z,,,,,,0.419444464,0.269444441,0,0,0,,0,137,137,391,1,
,,,,,,,,,,,,,,,,,,5e19b97a8a76fb239d3e33d6,2020-08-10_16h48.32.091,lexical_decision_task_MP,2020.1.3,Win32,60,z,1,0.696575,,,,,,,,0.696575,1,,,,,,340,NW,"ID",33,fiatch,FIATCH,z,,,,,,0.419444464,0.269444441,0,0,0,,0,138,138,279,1,
,,,,,,,,,,,,,,,,,,5e19b97a8a76fb239d3e33d6,2020-08-10_16h48.32.091,lexical_decision_task_MP,2020.1.3,Win32,60,z,1,0.709905,,,,,,,,0.709905,1,,,,,,398,NW,"ID",50,blunde,BLUNDE,z,,,,,,0.419444464,0.269444441,0,0,0,,0,139,139,337,1,
,,,,,,,,,,,,,,,,,,5e19b97a8a76fb239d3e33d6,2020-08-10_16h48.32.091,lexical_decision_task_MP,2020.1.3,Win32,60,z,1,0.465305,,,,,,,,0.465305,1,,,,,,301,NW,"ID",33,fainch,FAINCH,z,,,,,,0.419444464,0.269444441,0,0,0,,0,140,140,240,1,
,,,,,,,,,,,,,,,,,,5e19b97a8a76fb239d3e33d6,2020-08-10_16h48.32.091,lexical_decision_task_MP,2020.1.3,Win32,60,z,1,0.42773,,,,,,,,0.42773,1,,,,,,425,NW,UN,33,urivel,FRUDGE,z,,,,,,0.419444464,0.269444441,0,0,0,,0,141,141,364,1,
,,,,,,,,,,,,,,,,,,5e19b97a8a76fb239d3e33d6,2020-08-10_16h48.32.091,lexical_decision_task_MP,2020.1.3,Win32,60,m,1,0.52147,,,,,,,,0.52147,1,,,,,,138,WORD,"ID",50,melody,MELODY,m,,,,,,0.419444464,0.269444441,0,0,0,,0,142,142,77,1,
,,,,,,,,,,,,,,,,,,5e19b97a8a76fb239d3e33d6,2020-08-10_16h48.32.091,lexical_decision_task_MP,2020.1.3,Win32,60,m,1,0.637165,,,,,,,,0.637165,1,,,,,,190,WORD,UN,33,stable,BACKUP,m,,,,,,0.419444464,0.269444441,0,0,0,,0,143,143,129,1,
,,,,,,,,,,,,,,,,,,5e19b97a8a76fb239d3e33d6,2020-08-10_16h48.32.091,lexical_decision_task_MP,2020.1.3,Win32,60,m,1,0.56087,,,,,,,,0.56087,1,,,,,,95,WORD,"ID",33,thread,THREAD,m,,,,,,0.419444464,0.269444441,0,0,0,,0,144,144,34,1,
,,,,,,,,,,,,,,,,,,5e19b97a8a76fb239d3e33d6,2020-08-10_16h48.32.091,lexical_decision_task_MP,2020.1.3,Win32,60,m,1,0.7058,,,,,,,,0.7058,1,,,,,,189,WORD,UN,33,backup,CENSOR,m,,,,,,0.419444464,0.269444441,0,0,0,,0,145,145,128,1,
,,,,,,,,,,,,,,,,,,5e19b97a8a76fb239d3e33d6,2020-08-10_16h48.32.091,lexical_decision_task_MP,2020.1.3,Win32,60,m,0,0.536405,,,,,,,,0.536405,0,,,,,,296,NW,UN,50,fertic,BEINCH,z,,,,,,0.419444464,0.269444441,0,0,0,,0,146,146,475,1,
,,,,,,,,,,,,,,,,,,5e19b97a8a76fb239d3e33d6,2020-08-10_16h48.32.091,lexical_decision_task_MP,2020.1.3,Win32,60,z,0,0.264805,,,,,,,,0.264805,0,,,,,,128,WORD,"ID",50,senior,SENIOR,m,,,,,,0.419444464,0.269444441,0,0,0,,0,147,147,67,1,
,,,,,,,,,,,,,,,,,,5e19b97a8a76fb239d3e33d6,2020-08-10_16h48.32.091,lexical_decision_task_MP,2020.1.3,Win32,60,m,1,0.898315,,,,,,,,0.898315,1,,,,,,166,WORD,"ID",50,starch,STARCH,m,,,,,,0.419444464,0.269444441,0,0,0,,0,148,148,105,1,
,,,,,,,,,,,,,,,,,,5e19b97a8a76fb239d3e33d6,2020-08-10_16h48.32.091,lexical_decision_task_MP,2020.1.3,Win32,60,z,1,0.632655,,,,,,,,0.632655,1,,,,,,446,NW,UN,33,gircue,RUNAMO,z,,,,,,0.419444464,0.269444441,0,0,0,,0,149,149,385,1,
,,,,,,,,,,,,,,,,,,5e19b97a8a76fb239d3e33d6,2020-08-10_16h48.32.091,lexical_decision_task_MP,2020.1.3,Win32,60,m,1,0.76856,,,,,,,,0.76856,1,,,,,,230,WORD,UN,33,mother,FRINGE,m,,,,,,0.419444464,0.269444441,0,0,0,,0,150,150,169,1,
,,,,,,,,,,,,,,,,,,5e19b97a8a76fb239d3e33d6,2020-08-10_16h48.32.091,lexical_decision_task_MP,2020.1.3,Win32,60,z,1,0.86167,,,,,,,,0.86167,1,,,,,,475,NW,UN,33,josted,PEBRIC,z,,,,,,0.419444464,0.269444441,0,0,0,,0,151,151,414,1,
,,,,,,,,,,,,,,,,,,5e19b97a8a76fb239d3e33d6,2020-08-10_16h48.32.091,lexical_decision_task_MP,2020.1.3,Win32,60,m,1,0.613315,,,,,,,,0.613315,1,,,,,,133,WORD,"ID",50,chrome,CHROME,m,,,,,,0.419444464,0.269444441,0,0,0,,0,152,152,72,1,
,,,,,,,,,,,,,,,,,,5e19b97a8a76fb239d3e33d6,2020-08-10_16h48.32.091,lexical_decision_task_MP,2020.1.3,Win32,60,z,1,0.62239,,,,,,,,0.62239,1,,,,,,327,NW,"ID",33,plenac,PLENAC,z,,,,,,0.419444464,0.269444441,0,0,0,,0,153,153,266,1,
,,,,,,,,,,,,,,,,,,5e19b97a8a76fb239d3e33d6,2020-08-10_16h48.32.091,lexical_decision_task_MP,2020.1.3,Win32,60,m,1,0.68501,,,,,,,,0.68501,1,,,,,,200,WORD,UN,33,admire,BEACON,m,,,,,,0.419444464,0.269444441,0,0,0,,0,154,154,139,1,
,,,,,,,,,,,,,,,,,,5e19b97a8a76fb239d3e33d6,2020-08-10_16h48.32.091,lexical_decision_task_MP,2020.1.3,Win32,60,z,1,0.705795,,,,,,,,0.705795,1,,,,,,358,NW,"ID",33,fleack,FLEACK,z,,,,,,0.419444464,0.269444441,0,0,0,,0,155,155,297,1,
,,,,,,,,,,,,,,,,,,5e19b97a8a76fb239d3e33d6,2020-08-10_16h48.32.091,lexical_decision_task_MP,2020.1.3,Win32,60,m,1,0.62847,,,,,,,,0.62847,1,,,,,,38,WORD,UN,50,insect,POWDER,m,,,,,,0.419444464,0.269444441,0,0,0,,0,156,156,217,1,
,,,,,,,,,,,,,,,,,,5e19b97a8a76fb239d3e33d6,2020-08-10_16h48.32.091,lexical_decision_task_MP,2020.1.3,Win32,60,z,1,0.884905,,,,,,,,0.884905,1,,,,,,319,NW,"ID",33,zomber,ZOMBER,z,,,,,,0.419444464,0.269444441,0,0,0,,0,157,157,258,1,
,,,,,,,,,,,,,,,,,,5e19b97a8a76fb239d3e33d6,2020-08-10_16h48.32.091,lexical_decision_task_MP,2020.1.3,Win32,60,z,1,0.75125,,,,,,,,0.75125,1,,,,,,332,NW,"ID",33,vangue,VANGUE,z,,,,,,0.419444464,0.269444441,0,0,0,,0,158,158,271,1,
,,,,,,,,,,,,,,,,,,5e19b97a8a76fb239d3e33d6,2020-08-10_16h48.32.091,lexical_decision_task_MP,2020.1.3,Win32,60,z,1,0.45209,,,,,,,,0.45209,1,,,,,,338,NW,"ID",33,wreash,WREASH,z,,,,,,0.419444464,0.269444441,0,0,0,,0,159,159,277,1,
,,,,,,,,,,,,,,,,,,5e19b97a8a76fb239d3e33d6,2020-08-10_16h48.32.091,lexical_decision_task_MP,2020.1.3,Win32,60,z,0,0.456825,,,,,,,,0.456825,0,,,,,,68,WORD,"ID",33,fumble,FUMBLE,m,,,,,,0.419444464,0.269444441,0,0,0,,0,160,160,7,1,
,,,,,,,,,,,,,,,,,,5e19b97a8a76fb239d3e33d6,2020-08-10_16h48.32.091,lexical_decision_task_MP,2020.1.3,Win32,60,m,1,0.39459,,,,,,,,0.39459,1,,,,,,20,WORD,UN,50,simple,BREAST,m,,,,,,0.419444464,0.269444441,0,0,0,,0,161,161,199,1,
,,,,,,,,,,,,,,,,,,5e19b97a8a76fb239d3e33d6,2020-08-10_16h48.32.091,lexical_decision_task_MP,2020.1.3,Win32,60,m,1,0.633755,,,,,,,,0.633755,1,,,,,,125,WORD,"ID",50,nickel,NICKEL,m,,,,,,0.419444464,0.269444441,0,0,0,,0,162,162,64,1,
,,,,,,,,,,,,,,,,,,5e19b97a8a76fb239d3e33d6,2020-08-10_16h48.32.091,lexical_decision_task_MP,2020.1.3,Win32,60,z,1,0.94989,,,,,,,,0.94989,1,,,,,,378,NW,"ID",50,shrile,SHRILE,z,,,,,,0.419444464,0.269444441,0,0,0,,0,163,163,317,1,
,,,,,,,,,,,,,,,,,,5e19b97a8a76fb239d3e33d6,2020-08-10_16h48.32.091,lexical_decision_task_MP,2020.1.3,Win32,60,z,1,0.82723,,,,,,,,0.82723,1,,,,,,382,NW,"ID",50,sarley,SARLEY,z,,,,,,0.419444464,0.269444441,0,0,0,,0,164,164,321,1,
,,,,,,,,,,,,,,,,,,5e19b97a8a76fb239d3e33d6,2020-08-10_16h48.32.091,lexical_decision_task_MP,2020.1.3,Win32,60,m,1,0.60091,,,,,,,,0.60091,1,,,,,,18,WORD,UN,50,patron,HUMBLE,m,,,,,,0.419444464,0.269444441,0,0,0,,0,165,165,197,1,
,,,,,,,,,,,,,,,,,,5e19b97a8a76fb239d3e33d6,2020-08-10_16h48.32.091,lexical_decision_task_MP,2020.1.3,Win32,60,z,1,0.74489,,,,,,,,0.74489,1,,,,,,461,NW,UN,33,absult,JUSTRE,z,,,,,,0.419444464,0.269444441,0,0,0,,0,166,166,400,1,
,,,,,,,,,,,,,,,,,,5e19b97a8a76fb239d3e33d6,2020-08-10_16h48.32.091,lexical_decision_task_MP,2020.1.3,Win32,60,m,1,0.54169,,,,,,,,0.54169,1,,,,,,40,WORD,UN,50,spring,CONVEY,m,,,,,,0.419444464,0.269444441,0,0,0,,0,167,167,219,1,
,,,,,,,,,,,,,,,,,,5e19b97a8a76fb239d3e33d6,2020-08-10_16h48.32.091,lexical_decision_task_MP,2020.1.3,Win32,60,m,1,0.64911,,,,,,,,0.64911,1,,,,,,29,WORD,UN,50,orient,SKETCH,m,,,,,,0.419444464,0.269444441,0,0,0,,0,168,168,208,1,
,,,,,,,,,,,,,,,,,,5e19b97a8a76fb239d3e33d6,2020-08-10_16h48.32.091,lexical_decision_task_MP,2020.1.3,Win32,60,m,1,0.544435,,,,,,,,0.544435,1,,,,,,56,WORD,UN,50,change,AMBUSH,m,,,,,,0.419444464,0.269444441,0,0,0,,0,169,169,235,1,
,,,,,,,,,,,,,,,,,,5e19b97a8a76fb239d3e33d6,2020-08-10_16h48.32.091,lexical_decision_task_MP,2020.1.3,Win32,60,z,1,0.546645,,,,,,,,0.546645,1,,,,,,372,NW,"ID",50,ramily,RAMILY,z,,,,,,0.419444464,0.269444441,0,0,0,,0,170,170,311,1,
,,,,,,,,,,,,,,,,,,5e19b97a8a76fb239d3e33d6,2020-08-10_16h48.32.091,lexical_decision_task_MP,2020.1.3,Win32,60,z,0,0.6511,,,,,,,,0.6511,0,,,,,,217,WORD,UN,33,shrink,LIQUOR,m,,,,,,0.419444464,0.269444441,0,0,0,,0,171,171,156,1,
,,,,,,,,,,,,,,,,,,5e19b97a8a76fb239d3e33d6,2020-08-10_16h48.32.091,lexical_decision_task_MP,2020.1.3,Win32,60,z,1,0.7575,,,,,,,,0.7575,1,,,,,,479,NW,UN,33,crible,LOBUSH,z,,,,,,0.419444464,0.269444441,0,0,0,,0,172,172,418,1,
,,,,,,,,,,,,,,,,,,5e19b97a8a76fb239d3e33d6,2020-08-10_16h48.32.091,lexical_decision_task_MP,2020.1.3,Win32,60,z,1,0.61002,,,,,,,,0.61002,1,,,,,,362,NW,"ID",50,tireau,TIREAU,z,,,,,,0.419444464,0.269444441,0,0,0,,0,173,173,301,1,
,,,,,,,,,,,,,,,,,,5e19b97a8a76fb239d3e33d6,2020-08-10_16h48.32.091,lexical_decision_task_MP,2020.1.3,Win32,60,m,1,0.729035,,,,,,,,0.729035,1,,,,,,234,WORD,UN,33,poster,CLUMSY,m,,,,,,0.419444464,0.269444441,0,0,0,,0,174,174,173,1,
,,,,,,,,,,,,,,,,,,5e19b97a8a76fb239d3e33d6,2020-08-10_16h48.32.091,lexical_decision_task_MP,2020.1.3,Win32,60,z,1,0.667845,,,,,,,,0.667845,1,,,,,,420,NW,"ID",50,gushop,GUSHOP,z,,,,,,0.419444464,0.269444441,0,0,0,,0,175,175,359,1,
,,,,,,,,,,,,,,,,,,5e19b97a8a76fb239d3e33d6,2020-08-10_16h48.32.091,lexical_decision_task_MP,2020.1.3,Win32,60,m,0,0.668665,,,,,,,,0.668665,0,,,,,,377,NW,"ID",50,injore,INJORE,z,,,,,,0.419444464,0.269444441,0,0,0,,0,176,176,316,1,
,,,,,,,,,,,,,,,,,,5e19b97a8a76fb239d3e33d6,2020-08-10_16h48.32.091,lexical_decision_task_MP,2020.1.3,Win32,60,z,0,0.58104,,,,,,,,0.58104,0,,,,,,151,WORD,"ID",50,mystic,MYSTIC,m,,,,,,0.419444464,0.269444441,0,0,0,,0,177,177,90,1,
,,,,,,,,,,,,,,,,,,5e19b97a8a76fb239d3e33d6,2020-08-10_16h48.32.091,lexical_decision_task_MP,2020.1.3,Win32,60,z,1,0.77359,,,,,,,,0.77359,1,,,,,,305,NW,"ID",33,forgle,FORGLE,z,,,,,,0.419444464,0.269444441,0,0,0,,0,178,178,244,1,
,,,,,,,,,,,,,,,,,,5e19b97a8a76fb239d3e33d6,2020-08-10_16h48.32.091,lexical_decision_task_MP,2020.1.3,Win32,60,z,1,0.65322,,,,,,,,0.65322,1,,,,,,258,NW,UN,50,soudal,POLUTH,z,,,,,,0.419444464,0.269444441,0,0,0,,0,179,179,437,1,
,,,,,,,,,,,,,,,,,,5e19b97a8a76fb239d3e33d6,2020-08-10_16h48.32.091,lexical_decision_task_MP,2020.1.3,Win32,60,m,1,0.598325,,,,,,,,0.598325,1,,,,,,96,WORD,"ID",33,ignore,IGNORE,m,,,,,,0.419444464,0.269444441,0,0,0,,0,180,180,35,1,
,,,,,,,,,,,,,,,,,,5e19b97a8a76fb239d3e33d6,2020-08-10_16h48.32.091,lexical_decision_task_MP,2020.1.3,Win32,60,m,1,0.490755,,,,,,,,0.490755,1,,,,,,144,WORD,"ID",50,sponge,SPONGE,m,,,,,,0.419444464,0.269444441,0,0,0,,0,181,181,83,1,
,,,,,,,,,,,,,,,,,,5e19b97a8a76fb239d3e33d6,2020-08-10_16h48.32.091,lexical_decision_task_MP,2020.1.3,Win32,60,m,1,0.661395,,,,,,,,0.661395,1,,,,,,100,WORD,"ID",33,carbon,CARBON,m,,,,,,0.419444464,0.269444441,0,0,0,,0,182,182,39,1,
,,,,,,,,,,,,,,,,,,5e19b97a8a76fb239d3e33d6,2020-08-10_16h48.32.091,lexical_decision_task_MP,2020.1.3,Win32,60,m,1,0.512635,,,,,,,,0.512635,1,,,,,,80,WORD,"ID",33,family,FAMILY,m,,,,,,0.419444464,0.269444441,0,0,0,,0,183,183,19,1,
,,,,,,,,,,,,,,,,,,5e19b97a8a76fb239d3e33d6,2020-08-10_16h48.32.091,lexical_decision_task_MP,2020.1.3,Win32,60,m,1,0.615415,,,,,,,,0.615415,1,,,,,,50,WORD,UN,50,hungry,SNATCH,m,,,,,,0.419444464,0.269444441,0,0,0,,0,184,184,229,1,
,,,,,,,,,,,,,,,,,,5e19b97a8a76fb239d3e33d6,2020-08-10_16h48.32.091,lexical_decision_task_MP,2020.1.3,Win32,60,m,1,0.437155,,,,,,,,0.437155,1,,,,,,161,WORD,"ID",50,pastor,PASTOR,m,,,,,,0.419444464,0.269444441,0,0,0,,0,185,185,100,1,
,,,,,,,,,,,,,,,,,,5e19b97a8a76fb239d3e33d6,2020-08-10_16h48.32.091,lexical_decision_task_MP,2020.1.3,Win32,60,m,1,0.705525,,,,,,,,0.705525,1,,,,,,101,WORD,"ID",33,wrench,WRENCH,m,,,,,,0.419444464,0.269444441,0,0,0,,0,186,186,40,1,
,,,,,,,,,,,,,,,,,,5e19b97a8a76fb239d3e33d6,2020-08-10_16h48.32.091,lexical_decision_task_MP,2020.1.3,Win32,60,m,1,0.457765,,,,,,,,0.457765,1,,,,,,83,WORD,"ID",33,result,RESULT,m,,,,,,0.419444464,0.269444441,0,0,0,,0,187,187,22,1,
,,,,,,,,,,,,,,,,,,5e19b97a8a76fb239d3e33d6,2020-08-10_16h48.32.091,lexical_decision_task_MP,2020.1.3,Win32,60,z,1,0.59248,,,,,,,,0.59248,1,,,,,,255,NW,UN,50,inlors,APIGHT,z,,,,,,0.419444464,0.269444441,0,0,0,,0,188,188,434,1,
,,,,,,,,,,,,,,,,,,5e19b97a8a76fb239d3e33d6,2020-08-10_16h48.32.091,lexical_decision_task_MP,2020.1.3,Win32,60,z,1,0.61459,,,,,,,,0.61459,1,,,,,,242,NW,UN,50,musied,UNWERT,z,,,,,,0.419444464,0.269444441,0,0,0,,0,189,189,421,1,
,,,,,,,,,,,,,,,,,,5e19b97a8a76fb239d3e33d6,2020-08-10_16h48.32.091,lexical_decision_task_MP,2020.1.3,Win32,60,z,1,0.498515,,,,,,,,0.498515,1,,,,,,432,NW,UN,33,drance,LUNKER,z,,,,,,0.419444464,0.269444441,0,0,0,,0,190,190,371,1,
,,,,,,,,,,,,,,,,,,5e19b97a8a76fb239d3e33d6,2020-08-10_16h48.32.091,lexical_decision_task_MP,2020.1.3,Win32,60,z,1,0.49912,,,,,,,,0.49912,1,,,,,,277,NW,UN,50,unighs,PETAIN,z,,,,,,0.419444464,0.269444441,0,0,0,,0,191,191,456,1,
,,,,,,,,,,,,,,,,,,5e19b97a8a76fb239d3e33d6,2020-08-10_16h48.32.091,lexical_decision_task_MP,2020.1.3,Win32,60,z,1,0.539165,,,,,,,,0.539165,1,,,,,,336,NW,"ID",33,ghodus,GHODUS,z,,,,,,0.419444464,0.269444441,0,0,0,,0,192,192,275,1,
,,,,,,,,,,,,,,,,,,5e19b97a8a76fb239d3e33d6,2020-08-10_16h48.32.091,lexical_decision_task_MP,2020.1.3,Win32,60,z,1,0.510185,,,,,,,,0.510185,1,,,,,,264,NW,UN,50,distar,VACKEL,z,,,,,,0.419444464,0.269444441,0,0,0,,0,193,193,443,1,
,,,,,,,,,,,,,,,,,,5e19b97a8a76fb239d3e33d6,2020-08-10_16h48.32.091,lexical_decision_task_MP,2020.1.3,Win32,60,m,1,0.71021,,,,,,,,0.71021,1,,,,,,227,WORD,UN,33,master,SELDOM,m,,,,,,0.419444464,0.269444441,0,0,0,,0,194,194,166,1,
,,,,,,,,,,,,,,,,,,5e19b97a8a76fb239d3e33d6,2020-08-10_16h48.32.091,lexical_decision_task_MP,2020.1.3,Win32,60,m,1,0.543805,,,,,,,,0.543805,1,,,,,,37,WORD,UN,50,powder,INSULT,m,,,,,,0.419444464,0.269444441,0,0,0,,0,195,195,216,1,
,,,,,,,,,,,,,,,,,,5e19b97a8a76fb239d3e33d6,2020-08-10_16h48.32.091,lexical_decision_task_MP,2020.1.3,Win32,60,m,1,0.95107,,,,,,,,0.95107,1,,,,,,223,WORD,UN,33,period,KIDNEY,m,,,,,,0.419444464,0.269444441,0,0,0,,0,196,196,162,1,
,,,,,,,,,,,,,,,,,,5e19b97a8a76fb239d3e33d6,2020-08-10_16h48.32.091,lexical_decision_task_MP,2020.1.3,Win32,60,m,1,0.646635,,,,,,,,0.646635,1,,,,,,157,WORD,"ID",50,dragon,DRAGON,m,,,,,,0.419444464,0.269444441,0,0,0,,0,197,197,96,1,
,,,,,,,,,,,,,,,,,,5e19b97a8a76fb239d3e33d6,2020-08-10_16h48.32.091,lexical_decision_task_MP,2020.1.3,Win32,60,m,1,0.762875,,,,,,,,0.762875,1,,,,,,74,WORD,"ID",33,plaque,PLAQUE,m,,,,,,0.419444464,0.269444441,0,0,0,,0,198,198,13,1,
,,,,,,,,,,,,,,,,,,5e19b97a8a76fb239d3e33d6,2020-08-10_16h48.32.091,lexical_decision_task_MP,2020.1.3,Win32,60,m,1,0.60844,,,,,,,,0.60844,1,,,,,,229,WORD,UN,33,fringe,MOTHER,m,,,,,,0.419444464,0.269444441,0,0,0,,0,199,199,168,1,
,,,,,,,,,,,,,,,,,,5e19b97a8a76fb239d3e33d6,2020-08-10_16h48.32.091,lexical_decision_task_MP,2020.1.3,Win32,60,m,1,0.55245,,,,,,,,0.55245,1,,,,,,107,WORD,"ID",33,slogan,SLOGAN,m,,,,,,0.419444464,0.269444441,0,0,0,,0,200,200,46,1,
,,,,,,,,,,,,,,,,,,5e19b97a8a76fb239d3e33d6,2020-08-10_16h48.32.091,lexical_decision_task_MP,2020.1.3,Win32,60,z,1,0.66343,,,,,,,,0.66343,1,,,,,,434,NW,UN,33,impurb,PITROM,z,,,,,,0.419444464,0.269444441,0,0,0,,0,201,201,373,1,
,,,,,,,,,,,,,,,,,,5e19b97a8a76fb239d3e33d6,2020-08-10_16h48.32.091,lexical_decision_task_MP,2020.1.3,Win32,60,m,1,0.827615,,,,,,,,0.827615,1,,,,,,219,WORD,UN,33,voyage,BUCKET,m,,,,,,0.419444464,0.269444441,0,0,0,,0,202,202,158,1,
,,,,,,,,,,,,,,,,,,5e19b97a8a76fb239d3e33d6,2020-08-10_16h48.32.091,lexical_decision_task_MP,2020.1.3,Win32,60,m,1,0.55425,,,,,,,,0.55425,1,,,,,,24,WORD,UN,50,domain,PRAISE,m,,,,,,0.419444464,0.269444441,0,0,0,,0,203,203,203,1,
,,,,,,,,,,,,,,,,,,5e19b97a8a76fb239d3e33d6,2020-08-10_16h48.32.091,lexical_decision_task_MP,2020.1.3,Win32,60,z,1,0.60929,,,,,,,,0.60929,1,,,,,,276,NW,UN,50,petain,YARMON,z,,,,,,0.419444464,0.269444441,0,0,0,,0,204,204,455,1,
,,,,,,,,,,,,,,,,,,5e19b97a8a76fb239d3e33d6,2020-08-10_16h48.32.091,lexical_decision_task_MP,2020.1.3,Win32,60,z,1,0.5629,,,,,,,,0.5629,1,,,,,,437,NW,UN,33,baitch,SNAPEL,z,,,,,,0.419444464,0.269444441,0,0,0,,0,205,205,376,1,
,,,,,,,,,,,,,,,,,,5e19b97a8a76fb239d3e33d6,2020-08-10_16h48.32.091,lexical_decision_task_MP,2020.1.3,Win32,60,m,1,0.64831,,,,,,,,0.64831,1,,,,,,143,WORD,"ID",50,reason,REASON,m,,,,,,0.419444464,0.269444441,0,0,0,,0,206,206,82,1,
,,,,,,,,,,,,,,,,,,5e19b97a8a76fb239d3e33d6,2020-08-10_16h48.32.091,lexical_decision_task_MP,2020.1.3,Win32,60,m,1,0.598855,,,,,,,,0.598855,1,,,,,,64,WORD,"ID",33,throne,THRONE,m,,,,,,0.419444464,0.269444441,0,0,0,,0,207,207,3,1,
,,,,,,,,,,,,,,,,,,5e19b97a8a76fb239d3e33d6,2020-08-10_16h48.32.091,lexical_decision_task_MP,2020.1.3,Win32,60,z,1,0.62213,,,,,,,,0.62213,1,,,,,,308,NW,"ID",33,psetch,PSETCH,z,,,,,,0.419444464,0.269444441,0,0,0,,0,208,208,247,1,
,,,,,,,,,,,,,,,,,,5e19b97a8a76fb239d3e33d6,2020-08-10_16h48.32.091,lexical_decision_task_MP,2020.1.3,Win32,60,m,0,0.63405,,,,,,,,0.63405,0,,,,,,418,NW,"ID",50,suidle,SUIDLE,z,,,,,,0.419444464,0.269444441,0,0,0,,0,209,209,357,1,
,,,,,,,,,,,,,,,,,,5e19b97a8a76fb239d3e33d6,2020-08-10_16h48.32.091,lexical_decision_task_MP,2020.1.3,Win32,60,z,1,0.46966,,,,,,,,0.46966,1,,,,,,294,NW,UN,50,gleath,INHORT,z,,,,,,0.419444464,0.269444441,0,0,0,,0,210,210,473,1,
,,,,,,,,,,,,,,,,,,5e19b97a8a76fb239d3e33d6,2020-08-10_16h48.32.091,lexical_decision_task_MP,2020.1.3,Win32,60,z,1,0.40583,,,,,,,,0.40583,1,,,,,,470,NW,UN,33,nobest,CRUDIO,z,,,,,,0.419444464,0.269444441,0,0,0,,0,211,211,409,1,
,,,,,,,,,,,,,,,,,,5e19b97a8a76fb239d3e33d6,2020-08-10_16h48.32.091,lexical_decision_task_MP,2020.1.3,Win32,60,z,1,0.446795,,,,,,,,0.446795,1,,,,,,439,NW,UN,33,saride,LIMPOR,z,,,,,,0.419444464,0.269444441,0,0,0,,0,212,212,378,1,
,,,,,,,,,,,,,,,,,,5e19b97a8a76fb239d3e33d6,2020-08-10_16h48.32.091,lexical_decision_task_MP,2020.1.3,Win32,60,z,1,0.50693,,,,,,,,0.50693,1,,,,,,314,NW,"ID",33,sprine,SPRINE,z,,,,,,0.419444464,0.269444441,0,0,0,,0,213,213,253,1,
,,,,,,,,,,,,,,,,,,5e19b97a8a76fb239d3e33d6,2020-08-10_16h48.32.091,lexical_decision_task_MP,2020.1.3,Win32,60,m,1,0.54852,,,,,,,,0.54852,1,,,,,,155,WORD,"ID",50,lizard,LIZARD,m,,,,,,0.419444464,0.269444441,0,0,0,,0,214,214,94,1,
,,,,,,,,,,,,,,,,,,5e19b97a8a76fb239d3e33d6,2020-08-10_16h48.32.091,lexical_decision_task_MP,2020.1.3,Win32,60,z,1,1.00542,,,,,,,,1.00542,1,,,,,,285,NW,UN,50,reldon,PRUDGE,z,,,,,,0.419444464,0.269444441,0,0,0,,0,215,215,464,1,
,,,,,,,,,,,,,,,,,,5e19b97a8a76fb239d3e33d6,2020-08-10_16h48.32.091,lexical_decision_task_MP,2020.1.3,Win32,60,m,1,0.517765,,,,,,,,0.517765,1,,,,,,47,WORD,UN,50,walnut,INCOME,m,,,,,,0.419444464,0.269444441,0,0,0,,0,216,216,226,1,
,,,,,,,,,,,,,,,,,,5e19b97a8a76fb239d3e33d6,2020-08-10_16h48.32.091,lexical_decision_task_MP,2020.1.3,Win32,60,m,1,0.59048,,,,,,,,0.59048,1,,,,,,187,WORD,UN,33,social,COURSE,m,,,,,,0.419444464,0.269444441,0,0,0,,0,217,217,126,1,
,,,,,,,,,,,,,,,,,,5e19b97a8a76fb239d3e33d6,2020-08-10_16h48.32.091,lexical_decision_task_MP,2020.1.3,Win32,60,m,1,0.71141,,,,,,,,0.71141,1,,,,,,168,WORD,"ID",50,answer,ANSWER,m,,,,,,0.419444464,0.269444441,0,0,0,,0,218,218,107,1,
,,,,,,,,,,,,,,,,,,5e19b97a8a76fb239d3e33d6,2020-08-10_16h48.32.091,lexical_decision_task_MP,2020.1.3,Win32,60,z,1,0.61702,,,,,,,,0.61702,1,,,,,,471,NW,UN,33,cigney,NOBEST,z,,,,,,0.419444464,0.269444441,0,0,0,,0,219,219,410,1,
,,,,,,,,,,,,,,,,,,5e19b97a8a76fb239d3e33d6,2020-08-10_16h48.32.091,lexical_decision_task_MP,2020.1.3,Win32,60,z,1,0.631905,,,,,,,,0.631905,1,,,,,,395,NW,"ID",50,colury,COLURY,z,,,,,,0.419444464,0.269444441,0,0,0,,0,220,220,334,1,
,,,,,,,,,,,,,,,,,,5e19b97a8a76fb239d3e33d6,2020-08-10_16h48.32.091,lexical_decision_task_MP,2020.1.3,Win32,60,z,1,0.4176,,,,,,,,0.4176,1,,,,,,244,NW,UN,50,anougs,EATRIC,z,,,,,,0.419444464,0.269444441,0,0,0,,0,221,221,423,1,
,,,,,,,,,,,,,,,,,,5e19b97a8a76fb239d3e33d6,2020-08-10_16h48.32.091,lexical_decision_task_MP,2020.1.3,Win32,60,z,0,0.525975,,,,,,,,0.525975,0,,,,,,82,WORD,"ID",33,stigma,STIGMA,m,,,,,,0.419444464,0.269444441,0,0,0,,0,222,222,21,1,
,,,,,,,,,,,,,,,,,,5e19b97a8a76fb239d3e33d6,2020-08-10_16h48.32.091,lexical_decision_task_MP,2020.1.3,Win32,60,m,1,0.482325,,,,,,,,0.482325,1,,,,,,41,WORD,UN,50,chapel,SPRING,m,,,,,,0.419444464,0.269444441,0,0,0,,0,223,223,220,1,
,,,,,,,,,,,,,,,,,,5e19b97a8a76fb239d3e33d6,2020-08-10_16h48.32.091,lexical_decision_task_MP,2020.1.3,Win32,60,z,1,0.638735,,,,,,,,0.638735,1,,,,,,299,NW,UN,50,yarion,STURCH,z,,,,,,0.419444464,0.269444441,0,0,0,,0,224,224,478,1,
,,,,,,,,,,,,,,,,,,5e19b97a8a76fb239d3e33d6,2020-08-10_16h48.32.091,lexical_decision_task_MP,2020.1.3,Win32,60,m,1,0.7456,,,,,,,,0.7456,1,,,,,,48,WORD,UN,50,survey,WALNUT,m,,,,,,0.419444464,0.269444441,0,0,0,,0,225,225,227,1,
,,,,,,,,,,,,,,,,,,5e19b97a8a76fb239d3e33d6,2020-08-10_16h48.32.091,lexical_decision_task_MP,2020.1.3,Win32,60,z,1,0.6069,,,,,,,,0.6069,1,,,,,,269,NW,UN,50,wrimsy,ORCHET,z,,,,,,0.419444464,0.269444441,0,0,0,,0,226,226,448,1,
,,,,,,,,,,,,,,,,,,5e19b97a8a76fb239d3e33d6,2020-08-10_16h48.32.091,lexical_decision_task_MP,2020.1.3,Win32,60,m,1,1.17588,,,,,,,,1.17588,1,,,,,,201,WORD,UN,33,factor,ADMIRE,m,,,,,,0.419444464,0.269444441,0,0,0,,0,227,227,140,1,
,,,,,,,,,,,,,,,,,,5e19b97a8a76fb239d3e33d6,2020-08-10_16h48.32.091,lexical_decision_task_MP,2020.1.3,Win32,60,m,1,0.502715,,,,,,,,0.502715,1,,,,,,65,WORD,"ID",33,symbol,SYMBOL,m,,,,,,0.419444464,0.269444441,0,0,0,,0,228,228,4,1,
,,,,,,,,,,,,,,,,,,5e19b97a8a76fb239d3e33d6,2020-08-10_16h48.32.091,lexical_decision_task_MP,2020.1.3,Win32,60,z,1,0.646585,,,,,,,,0.646585,1,,,,,,357,NW,"ID",33,derain,DERAIN,z,,,,,,0.419444464,0.269444441,0,0,0,,0,229,229,296,1,
,,,,,,,,,,,,,,,,,,5e19b97a8a76fb239d3e33d6,2020-08-10_16h48.32.091,lexical_decision_task_MP,2020.1.3,Win32,60,z,1,0.728515,,,,,,,,0.728515,1,,,,,,385,NW,"ID",50,veigma,VEIGMA,z,,,,,,0.419444464,0.269444441,0,0,0,,0,230,230,324,1,
,,,,,,,,,,,,,,,,,,5e19b97a8a76fb239d3e33d6,2020-08-10_16h48.32.091,lexical_decision_task_MP,2020.1.3,Win32,60,m,1,0.59134,,,,,,,,0.59134,1,,,,,,206,WORD,UN,33,wreath,TAILOR,m,,,,,,0.419444464,0.269444441,0,0,0,,0,231,231,145,1,
,,,,,,,,,,,,,,,,,,5e19b97a8a76fb239d3e33d6,2020-08-10_16h48.32.091,lexical_decision_task_MP,2020.1.3,Win32,60,m,1,0.50608,,,,,,,,0.50608,1,,,,,,39,WORD,UN,50,convey,INSECT,m,,,,,,0.419444464,0.269444441,0,0,0,,0,232,232,218,1,
,,,,,,,,,,,,,,,,,,5e19b97a8a76fb239d3e33d6,2020-08-10_16h48.32.091,lexical_decision_task_MP,2020.1.3,Win32,60,z,1,0.626555,,,,,,,,0.626555,1,,,,,,267,NW,UN,50,packes,PASINK,z,,,,,,0.419444464,0.269444441,0,0,0,,0,233,233,446,1,
,,,,,,,,,,,,,,,,,,5e19b97a8a76fb239d3e33d6,2020-08-10_16h48.32.091,lexical_decision_task_MP,2020.1.3,Win32,60,m,1,0.652945,,,,,,,,0.652945,1,,,,,,233,WORD,UN,33,clumsy,NATURE,m,,,,,,0.419444464,0.269444441,0,0,0,,0,234,234,172,1,
,,,,,,,,,,,,,,,,,,5e19b97a8a76fb239d3e33d6,2020-08-10_16h48.32.091,lexical_decision_task_MP,2020.1.3,Win32,60,z,1,0.545895,,,,,,,,0.545895,1,,,,,,290,NW,UN,50,pretch,SPLINO,z,,,,,,0.419444464,0.269444441,0,0,0,,0,235,235,469,1,
,,,,,,,,,,,,,,,,,,5e19b97a8a76fb239d3e33d6,2020-08-10_16h48.32.091,lexical_decision_task_MP,2020.1.3,Win32,60,z,1,0.616905,,,,,,,,0.616905,1,,,,,,379,NW,"ID",50,auting,AUTING,z,,,,,,0.419444464,0.269444441,0,0,0,,0,236,236,318,1,
,,,,,,,,,,,,,,,,,,5e19b97a8a76fb239d3e33d6,2020-08-10_16h48.32.091,lexical_decision_task_MP,2020.1.3,Win32,60,m,1,0.55222,,,,,,,,0.55222,1,,,,,,66,WORD,"ID",33,gospel,GOSPEL,m,,,,,,0.419444464,0.269444441,0,0,0,,0,237,237,5,1,
,,,,,,,,,,,,,,,,,,5e19b97a8a76fb239d3e33d6,2020-08-10_16h48.32.091,lexical_decision_task_MP,2020.1.3,Win32,60,m,0,0.555235,,,,,,,,0.555235,0,,,,,,287,NW,UN,50,yaceup,NYMBEL,z,,,,,,0.419444464,0.269444441,0,0,0,,0,238,238,466,1,
,,,,,,,,,,,,,,,,,,5e19b97a8a76fb239d3e33d6,2020-08-10_16h48.32.091,lexical_decision_task_MP,2020.1.3,Win32,60,m,1,0.546835,,,,,,,,0.546835,1,,,,,,147,WORD,"ID",50,garlic,GARLIC,m,,,,,,0.419444464,0.269444441,0,0,0,,0,239,239,86,1,
,,,,,,,,,,,,,,,,,,5e19b97a8a76fb239d3e33d6,2020-08-10_16h48.32.091,lexical_decision_task_MP,2020.1.3,Win32,60,m,1,0.545075,,,,,,,,0.545075,1,,,,,,63,WORD,"ID",33,launch,LAUNCH,m,,,,,,0.419444464,0.269444441,0,0,0,,0,240,240,2,1,
,,,,,,,,,,,,,,,,,,5e19b97a8a76fb239d3e33d6,2020-08-10_16h48.32.091,lexical_decision_task_MP,2020.1.3,Win32,60,z,1,0.57619,,,,,,,,0.57619,1,,,,,,245,NW,UN,50,piaton,ANOUGS,z,,,,,,0.419444464,0.269444441,0,0,0,space,0,241,241,424,1,9.447075
,,,,,,,,,,,,,,,,,,5e19b97a8a76fb239d3e33d6,2020-08-10_16h48.32.091,lexical_decision_task_MP,2020.1.3,Win32,60,,0,,,,,,,,,0.57619,-1,,,,,,251,NW,UN,50,stapod,LUPICT,z,,,,,,0.323148279,0.034259252,0,0,0,,0,242,242,430,1,
,,,,,,,,,,,,,,,,,,5e19b97a8a76fb239d3e33d6,2020-08-10_16h48.32.091,lexical_decision_task_MP,2020.1.3,Win32,60,z,0,0.006145,,,,,,,,0.006145,0,,,,,,94,WORD,"ID",33,travel,TRAVEL,m,,,,,,0.323148279,0.034259252,0,0,0,,0,243,243,33,1,
,,,,,,,,,,,,,,,,,,5e19b97a8a76fb239d3e33d6,2020-08-10_16h48.32.091,lexical_decision_task_MP,2020.1.3,Win32,60,z,1,0.724535,,,,,,,,0.724535,1,,,,,,311,NW,"ID",33,sproly,SPROLY,z,,,,,,0.323148279,0.034259252,0,0,0,,0,244,244,250,1,
,,,,,,,,,,,,,,,,,,5e19b97a8a76fb239d3e33d6,2020-08-10_16h48.32.091,lexical_decision_task_MP,2020.1.3,Win32,60,m,1,0.72292,,,,,,,,0.72292,1,,,,,,106,WORD,"ID",33,ransom,RANSOM,m,,,,,,0.323148279,0.034259252,0,0,0,,0,245,245,45,1,
,,,,,,,,,,,,,,,,,,5e19b97a8a76fb239d3e33d6,2020-08-10_16h48.32.091,lexical_decision_task_MP,2020.1.3,Win32,60,z,1,0.652235,,,,,,,,0.652235,1,,,,,,399,NW,"ID",50,fouret,FOURET,z,,,,,,0.323148279,0.034259252,0,0,0,,0,246,246,338,1,
,,,,,,,,,,,,,,,,,,5e19b97a8a76fb239d3e33d6,2020-08-10_16h48.32.091,lexical_decision_task_MP,2020.1.3,Win32,60,m,1,0.70246,,,,,,,,0.70246,1,,,,,,9,WORD,UN,50,bridge,HUSTLE,m,,,,,,0.323148279,0.034259252,0,0,0,,0,247,247,188,1,
,,,,,,,,,,,,,,,,,,5e19b97a8a76fb239d3e33d6,2020-08-10_16h48.32.091,lexical_decision_task_MP,2020.1.3,Win32,60,m,0,0.493725,,,,,,,,0.493725,0,,,,,,380,NW,"ID",50,cavory,CAVORY,z,,,,,,0.323148279,0.034259252,0,0,0,,0,248,248,319,1,
,,,,,,,,,,,,,,,,,,5e19b97a8a76fb239d3e33d6,2020-08-10_16h48.32.091,lexical_decision_task_MP,2020.1.3,Win32,60,z,0,0.314175,,,,,,,,0.314175,0,,,,,,194,WORD,UN,33,resign,ABSENT,m,,,,,,0.323148279,0.034259252,0,0,0,,0,249,249,133,1,
,,,,,,,,,,,,,,,,,,5e19b97a8a76fb239d3e33d6,2020-08-10_16h48.32.091,lexical_decision_task_MP,2020.1.3,Win32,60,m,1,0.56927,,,,,,,,0.56927,1,,,,,,62,WORD,"ID",33,region,REGION,m,,,,,,0.323148279,0.034259252,0,0,0,,0,250,250,1,1,
,,,,,,,,,,,,,,,,,,5e19b97a8a76fb239d3e33d6,2020-08-10_16h48.32.091,lexical_decision_task_MP,2020.1.3,Win32,60,z,1,0.742335,,,,,,,,0.742335,1,,,,,,440,NW,UN,33,rastoe,SARIDE,z,,,,,,0.323148279,0.034259252,0,0,0,,0,251,251,379,1,
,,,,,,,,,,,,,,,,,,5e19b97a8a76fb239d3e33d6,2020-08-10_16h48.32.091,lexical_decision_task_MP,2020.1.3,Win32,60,m,1,0.453025,,,,,,,,0.453025,1,,,,,,15,WORD,UN,50,faucet,AMOUNT,m,,,,,,0.323148279,0.034259252,0,0,0,,0,252,252,194,1,
,,,,,,,,,,,,,,,,,,5e19b97a8a76fb239d3e33d6,2020-08-10_16h48.32.091,lexical_decision_task_MP,2020.1.3,Win32,60,z,1,0.903205,,,,,,,,0.903205,1,,,,,,310,NW,"ID",33,daniet,DANIET,z,,,,,,0.323148279,0.034259252,0,0,0,,0,253,253,249,1,
,,,,,,,,,,,,,,,,,,5e19b97a8a76fb239d3e33d6,2020-08-10_16h48.32.091,lexical_decision_task_MP,2020.1.3,Win32,60,z,1,0.904635,,,,,,,,0.904635,1,,,,,,393,NW,"ID",50,ganous,GANOUS,z,,,,,,0.323148279,0.034259252,0,0,0,,0,254,254,332,1,
,,,,,,,,,,,,,,,,,,5e19b97a8a76fb239d3e33d6,2020-08-10_16h48.32.091,lexical_decision_task_MP,2020.1.3,Win32,60,m,1,0.534255,,,,,,,,0.534255,1,,,,,,224,WORD,UN,33,vulgar,PERIOD,m,,,,,,0.323148279,0.034259252,0,0,0,,0,255,255,163,1,
,,,,,,,,,,,,,,,,,,5e19b97a8a76fb239d3e33d6,2020-08-10_16h48.32.091,lexical_decision_task_MP,2020.1.3,Win32,60,m,0,0.67215,,,,,,,,0.67215,0,,,,,,278,NW,UN,50,celond,UNIGHS,z,,,,,,0.323148279,0.034259252,0,0,0,,0,256,256,457,1,
,,,,,,,,,,,,,,,,,,5e19b97a8a76fb239d3e33d6,2020-08-10_16h48.32.091,lexical_decision_task_MP,2020.1.3,Win32,60,z,0,0.53439,,,,,,,,0.53439,0,,,,,,72,WORD,"ID",33,bright,BRIGHT,m,,,,,,0.323148279,0.034259252,0,0,0,,0,257,257,11,1,
,,,,,,,,,,,,,,,,,,5e19b97a8a76fb239d3e33d6,2020-08-10_16h48.32.091,lexical_decision_task_MP,2020.1.3,Win32,60,m,1,0.464755,,,,,,,,0.464755,1,,,,,,45,WORD,UN,50,single,CLERGY,m,,,,,,0.323148279,0.034259252,0,0,0,,0,258,258,224,1,
,,,,,,,,,,,,,,,,,,5e19b97a8a76fb239d3e33d6,2020-08-10_16h48.32.091,lexical_decision_task_MP,2020.1.3,Win32,60,m,1,0.45464,,,,,,,,0.45464,1,,,,,,174,WORD,"ID",50,turkey,TURKEY,m,,,,,,0.323148279,0.034259252,0,0,0,,0,259,259,113,1,
,,,,,,,,,,,,,,,,,,5e19b97a8a76fb239d3e33d6,2020-08-10_16h48.32.091,lexical_decision_task_MP,2020.1.3,Win32,60,z,1,0.631335,,,,,,,,0.631335,1,,,,,,292,NW,UN,50,swance,ABLINT,z,,,,,,0.323148279,0.034259252,0,0,0,,0,260,260,471,1,
,,,,,,,,,,,,,,,,,,5e19b97a8a76fb239d3e33d6,2020-08-10_16h48.32.091,lexical_decision_task_MP,2020.1.3,Win32,60,z,1,0.69861,,,,,,,,0.69861,1,,,,,,343,NW,"ID",33,aimosy,AIMOSY,z,,,,,,0.323148279,0.034259252,0,0,0,,0,261,261,282,1,
,,,,,,,,,,,,,,,,,,5e19b97a8a76fb239d3e33d6,2020-08-10_16h48.32.091,lexical_decision_task_MP,2020.1.3,Win32,60,z,1,0.64801,,,,,,,,0.64801,1,,,,,,457,NW,UN,33,barcet,WANIGH,z,,,,,,0.323148279,0.034259252,0,0,0,,0,262,262,396,1,
,,,,,,,,,,,,,,,,,,5e19b97a8a76fb239d3e33d6,2020-08-10_16h48.32.091,lexical_decision_task_MP,2020.1.3,Win32,60,m,1,0.52593,,,,,,,,0.52593,1,,,,,,134,WORD,"ID",50,staple,STAPLE,m,,,,,,0.323148279,0.034259252,0,0,0,,0,263,263,73,1,
,,,,,,,,,,,,,,,,,,5e19b97a8a76fb239d3e33d6,2020-08-10_16h48.32.091,lexical_decision_task_MP,2020.1.3,Win32,60,z,1,0.593385,,,,,,,,0.593385,1,,,,,,271,NW,UN,50,damilt,AUBRID,z,,,,,,0.323148279,0.034259252,0,0,0,,0,264,264,450,1,
,,,,,,,,,,,,,,,,,,5e19b97a8a76fb239d3e33d6,2020-08-10_16h48.32.091,lexical_decision_task_MP,2020.1.3,Win32,60,z,1,0.594555,,,,,,,,0.594555,1,,,,,,243,NW,UN,50,eatric,MUSIED,z,,,,,,0.323148279,0.034259252,0,0,0,,0,265,265,422,1,
,,,,,,,,,,,,,,,,,,5e19b97a8a76fb239d3e33d6,2020-08-10_16h48.32.091,lexical_decision_task_MP,2020.1.3,Win32,60,m,1,0.660595,,,,,,,,0.660595,1,,,,,,49,WORD,UN,50,snatch,SURVEY,m,,,,,,0.323148279,0.034259252,0,0,0,,0,266,266,228,1,
,,,,,,,,,,,,,,,,,,5e19b97a8a76fb239d3e33d6,2020-08-10_16h48.32.091,lexical_decision_task_MP,2020.1.3,Win32,60,z,1,0.592905,,,,,,,,0.592905,1,,,,,,341,NW,"ID",33,myrtie,MYRTIE,z,,,,,,0.323148279,0.034259252,0,0,0,,0,267,267,280,1,
,,,,,,,,,,,,,,,,,,5e19b97a8a76fb239d3e33d6,2020-08-10_16h48.32.091,lexical_decision_task_MP,2020.1.3,Win32,60,m,1,0.457635,,,,,,,,0.457635,1,,,,,,171,WORD,"ID",50,depart,DEPART,m,,,,,,0.323148279,0.034259252,0,0,0,,0,268,268,110,1,
,,,,,,,,,,,,,,,,,,5e19b97a8a76fb239d3e33d6,2020-08-10_16h48.32.091,lexical_decision_task_MP,2020.1.3,Win32,60,m,1,0.475775,,,,,,,,0.475775,1,,,,,,136,WORD,"ID",50,bleach,BLEACH,m,,,,,,0.323148279,0.034259252,0,0,0,,0,269,269,75,1,
,,,,,,,,,,,,,,,,,,5e19b97a8a76fb239d3e33d6,2020-08-10_16h48.32.091,lexical_decision_task_MP,2020.1.3,Win32,60,z,1,0.81684,,,,,,,,0.81684,1,,,,,,298,NW,UN,50,sturch,PIERGY,z,,,,,,0.323148279,0.034259252,0,0,0,,0,270,270,477,1,
,,,,,,,,,,,,,,,,,,5e19b97a8a76fb239d3e33d6,2020-08-10_16h48.32.091,lexical_decision_task_MP,2020.1.3,Win32,60,m,1,0.659645,,,,,,,,0.659645,1,,,,,,226,WORD,UN,33,flower,CASINO,m,,,,,,0.323148279,0.034259252,0,0,0,,0,271,271,165,1,
,,,,,,,,,,,,,,,,,,5e19b97a8a76fb239d3e33d6,2020-08-10_16h48.32.091,lexical_decision_task_MP,2020.1.3,Win32,60,m,1,0.582935,,,,,,,,0.582935,1,,,,,,179,WORD,"ID",50,basket,BASKET,m,,,,,,0.323148279,0.034259252,0,0,0,,0,272,272,118,1,
,,,,,,,,,,,,,,,,,,5e19b97a8a76fb239d3e33d6,2020-08-10_16h48.32.091,lexical_decision_task_MP,2020.1.3,Win32,60,m,1,0.42337,,,,,,,,0.42337,1,,,,,,158,WORD,"ID",50,island,ISLAND,m,,,,,,0.323148279,0.034259252,0,0,0,,0,273,273,97,1,
,,,,,,,,,,,,,,,,,,5e19b97a8a76fb239d3e33d6,2020-08-10_16h48.32.091,lexical_decision_task_MP,2020.1.3,Win32,60,z,1,0.683875,,,,,,,,0.683875,1,,,,,,445,NW,UN,33,runamo,MINKEL,z,,,,,,0.323148279,0.034259252,0,0,0,,0,274,274,384,1,
,,,,,,,,,,,,,,,,,,5e19b97a8a76fb239d3e33d6,2020-08-10_16h48.32.091,lexical_decision_task_MP,2020.1.3,Win32,60,m,1,0.80646,,,,,,,,0.80646,1,,,,,,135,WORD,"ID",50,import,IMPORT,m,,,,,,0.323148279,0.034259252,0,0,0,,0,275,275,74,1,
,,,,,,,,,,,,,,,,,,5e19b97a8a76fb239d3e33d6,2020-08-10_16h48.32.091,lexical_decision_task_MP,2020.1.3,Win32,60,m,1,0.646855,,,,,,,,0.646855,1,,,,,,77,WORD,"ID",33,racket,RACKET,m,,,,,,0.323148279,0.034259252,0,0,0,,0,276,276,16,1,
,,,,,,,,,,,,,,,,,,5e19b97a8a76fb239d3e33d6,2020-08-10_16h48.32.091,lexical_decision_task_MP,2020.1.3,Win32,60,z,1,0.672215,,,,,,,,0.672215,1,,,,,,454,NW,UN,33,tondle,SCOUGE,z,,,,,,0.323148279,0.034259252,0,0,0,,0,277,277,393,1,
,,,,,,,,,,,,,,,,,,5e19b97a8a76fb239d3e33d6,2020-08-10_16h48.32.091,lexical_decision_task_MP,2020.1.3,Win32,60,m,1,0.697805,,,,,,,,0.697805,1,,,,,,118,WORD,"ID",33,flight,FLIGHT,m,,,,,,0.323148279,0.034259252,0,0,0,,0,278,278,57,1,
,,,,,,,,,,,,,,,,,,5e19b97a8a76fb239d3e33d6,2020-08-10_16h48.32.091,lexical_decision_task_MP,2020.1.3,Win32,60,m,1,0.430595,,,,,,,,0.430595,1,,,,,,81,WORD,"ID",33,friend,FRIEND,m,,,,,,0.323148279,0.034259252,0,0,0,,0,279,279,20,1,
,,,,,,,,,,,,,,,,,,5e19b97a8a76fb239d3e33d6,2020-08-10_16h48.32.091,lexical_decision_task_MP,2020.1.3,Win32,60,z,1,0.587855,,,,,,,,0.587855,1,,,,,,415,NW,"ID",50,higsta,HIGSTA,z,,,,,,0.323148279,0.034259252,0,0,0,,0,280,280,354,1,
,,,,,,,,,,,,,,,,,,5e19b97a8a76fb239d3e33d6,2020-08-10_16h48.32.091,lexical_decision_task_MP,2020.1.3,Win32,60,m,1,0.86954,,,,,,,,0.86954,1,,,,,,204,WORD,UN,33,lounge,BURDEN,m,,,,,,0.323148279,0.034259252,0,0,0,,0,281,281,143,1,
,,,,,,,,,,,,,,,,,,5e19b97a8a76fb239d3e33d6,2020-08-10_16h48.32.091,lexical_decision_task_MP,2020.1.3,Win32,60,z,1,0.67692,,,,,,,,0.67692,1,,,,,,246,NW,UN,50,blarge,PIATON,z,,,,,,0.323148279,0.034259252,0,0,0,,0,282,282,425,1,
,,,,,,,,,,,,,,,,,,5e19b97a8a76fb239d3e33d6,2020-08-10_16h48.32.091,lexical_decision_task_MP,2020.1.3,Win32,60,m,0,0.45961,,,,,,,,0.45961,0,,,,,,427,NW,UN,33,tandly,SCHIND,z,,,,,,0.323148279,0.034259252,0,0,0,,0,283,283,366,1,
,,,,,,,,,,,,,,,,,,5e19b97a8a76fb239d3e33d6,2020-08-10_16h48.32.091,lexical_decision_task_MP,2020.1.3,Win32,60,z,1,0.54481,,,,,,,,0.54481,1,,,,,,359,NW,"ID",33,fonver,FONVER,z,,,,,,0.323148279,0.034259252,0,0,0,,0,284,284,298,1,
,,,,,,,,,,,,,,,,,,5e19b97a8a76fb239d3e33d6,2020-08-10_16h48.32.091,lexical_decision_task_MP,2020.1.3,Win32,60,z,1,0.42467,,,,,,,,0.42467,1,,,,,,406,NW,"ID",50,nouply,NOUPLY,z,,,,,,0.323148279,0.034259252,0,0,0,,0,285,285,345,1,
,,,,,,,,,,,,,,,,,,5e19b97a8a76fb239d3e33d6,2020-08-10_16h48.32.091,lexical_decision_task_MP,2020.1.3,Win32,60,m,1,0.75401,,,,,,,,0.75401,1,,,,,,209,WORD,UN,33,monkey,SEARCH,m,,,,,,0.323148279,0.034259252,0,0,0,,0,286,286,148,1,
,,,,,,,,,,,,,,,,,,5e19b97a8a76fb239d3e33d6,2020-08-10_16h48.32.091,lexical_decision_task_MP,2020.1.3,Win32,60,z,1,0.581465,,,,,,,,0.581465,1,,,,,,270,NW,UN,50,aubrid,WRIMSY,z,,,,,,0.323148279,0.034259252,0,0,0,,0,287,287,449,1,
,,,,,,,,,,,,,,,,,,5e19b97a8a76fb239d3e33d6,2020-08-10_16h48.32.091,lexical_decision_task_MP,2020.1.3,Win32,60,m,1,0.488405,,,,,,,,0.488405,1,,,,,,111,WORD,"ID",33,induce,INDUCE,m,,,,,,0.323148279,0.034259252,0,0,0,,0,288,288,50,1,
,,,,,,,,,,,,,,,,,,5e19b97a8a76fb239d3e33d6,2020-08-10_16h48.32.091,lexical_decision_task_MP,2020.1.3,Win32,60,m,1,0.64652,,,,,,,,0.64652,1,,,,,,90,WORD,"ID",33,relish,RELISH,m,,,,,,0.323148279,0.034259252,0,0,0,,0,289,289,29,1,
,,,,,,,,,,,,,,,,,,5e19b97a8a76fb239d3e33d6,2020-08-10_16h48.32.091,lexical_decision_task_MP,2020.1.3,Win32,60,m,1,0.497185,,,,,,,,0.497185,1,,,,,,188,WORD,UN,33,censor,SOCIAL,m,,,,,,0.323148279,0.034259252,0,0,0,,0,290,290,127,1,
,,,,,,,,,,,,,,,,,,5e19b97a8a76fb239d3e33d6,2020-08-10_16h48.32.091,lexical_decision_task_MP,2020.1.3,Win32,60,m,1,0.3808,,,,,,,,0.3808,1,,,,,,110,WORD,"ID",33,polite,POLITE,m,,,,,,0.323148279,0.034259252,0,0,0,,0,291,291,49,1,
,,,,,,,,,,,,,,,,,,5e19b97a8a76fb239d3e33d6,2020-08-10_16h48.32.091,lexical_decision_task_MP,2020.1.3,Win32,60,m,0,0.44323,,,,,,,,0.44323,0,,,,,,328,NW,"ID",33,broake,BROAKE,z,,,,,,0.323148279,0.034259252,0,0,0,,0,292,292,267,1,
,,,,,,,,,,,,,,,,,,5e19b97a8a76fb239d3e33d6,2020-08-10_16h48.32.091,lexical_decision_task_MP,2020.1.3,Win32,60,z,0,0.49424,,,,,,,,0.49424,0,,,,,,185,WORD,UN,33,portal,BOTHER,m,,,,,,0.323148279,0.034259252,0,0,0,,0,293,293,124,1,
,,,,,,,,,,,,,,,,,,5e19b97a8a76fb239d3e33d6,2020-08-10_16h48.32.091,lexical_decision_task_MP,2020.1.3,Win32,60,m,1,0.43607,,,,,,,,0.43607,1,,,,,,195,WORD,UN,33,credit,RESIGN,m,,,,,,0.323148279,0.034259252,0,0,0,,0,294,294,134,1,
,,,,,,,,,,,,,,,,,,5e19b97a8a76fb239d3e33d6,2020-08-10_16h48.32.091,lexical_decision_task_MP,2020.1.3,Win32,60,z,1,0.72313,,,,,,,,0.72313,1,,,,,,389,NW,"ID",50,witmer,WITMER,z,,,,,,0.323148279,0.034259252,0,0,0,,0,295,295,328,1,
,,,,,,,,,,,,,,,,,,5e19b97a8a76fb239d3e33d6,2020-08-10_16h48.32.091,lexical_decision_task_MP,2020.1.3,Win32,60,z,1,0.77024,,,,,,,,0.77024,1,,,,,,324,NW,"ID",33,steikh,STEIKH,z,,,,,,0.323148279,0.034259252,0,0,0,,0,296,296,263,1,
,,,,,,,,,,,,,,,,,,5e19b97a8a76fb239d3e33d6,2020-08-10_16h48.32.091,lexical_decision_task_MP,2020.1.3,Win32,60,z,1,0.808755,,,,,,,,0.808755,1,,,,,,247,NW,UN,50,strole,BLARGE,z,,,,,,0.323148279,0.034259252,0,0,0,,0,297,297,426,1,
,,,,,,,,,,,,,,,,,,5e19b97a8a76fb239d3e33d6,2020-08-10_16h48.32.091,lexical_decision_task_MP,2020.1.3,Win32,60,z,1,0.62907,,,,,,,,0.62907,1,,,,,,323,NW,"ID",33,rosail,ROSAIL,z,,,,,,0.323148279,0.034259252,0,0,0,,0,298,298,262,1,
,,,,,,,,,,,,,,,,,,5e19b97a8a76fb239d3e33d6,2020-08-10_16h48.32.091,lexical_decision_task_MP,2020.1.3,Win32,60,z,1,0.546305,,,,,,,,0.546305,1,,,,,,384,NW,"ID",50,guesco,GUESCO,z,,,,,,0.323148279,0.034259252,0,0,0,,0,299,299,323,1,
,,,,,,,,,,,,,,,,,,5e19b97a8a76fb239d3e33d6,2020-08-10_16h48.32.091,lexical_decision_task_MP,2020.1.3,Win32,60,z,1,0.537,,,,,,,,0.537,1,,,,,,455,NW,UN,33,broget,TONDLE,z,,,,,,0.323148279,0.034259252,0,0,0,,0,300,300,394,1,
,,,,,,,,,,,,,,,,,,5e19b97a8a76fb239d3e33d6,2020-08-10_16h48.32.091,lexical_decision_task_MP,2020.1.3,Win32,60,z,0,0.398855,,,,,,,,0.398855,0,,,,,,181,WORD,UN,33,winter,GLANCE,m,,,,,,0.323148279,0.034259252,0,0,0,,0,301,301,120,1,
,,,,,,,,,,,,,,,,,,5e19b97a8a76fb239d3e33d6,2020-08-10_16h48.32.091,lexical_decision_task_MP,2020.1.3,Win32,60,m,0,0.562455,,,,,,,,0.562455,0,,,,,,417,NW,"ID",50,earoud,EAROUD,z,,,,,,0.323148279,0.034259252,0,0,0,,0,302,302,356,1,
,,,,,,,,,,,,,,,,,,5e19b97a8a76fb239d3e33d6,2020-08-10_16h48.32.091,lexical_decision_task_MP,2020.1.3,Win32,60,m,1,0.61775,,,,,,,,0.61775,1,,,,,,196,WORD,UN,33,stream,CREDIT,m,,,,,,0.323148279,0.034259252,0,0,0,,0,303,303,135,1,
,,,,,,,,,,,,,,,,,,5e19b97a8a76fb239d3e33d6,2020-08-10_16h48.32.091,lexical_decision_task_MP,2020.1.3,Win32,60,m,1,0.514735,,,,,,,,0.514735,1,,,,,,2,WORD,UN,50,knight,BRIDGE,m,,,,,,0.323148279,0.034259252,0,0,0,,0,304,304,181,1,
,,,,,,,,,,,,,,,,,,5e19b97a8a76fb239d3e33d6,2020-08-10_16h48.32.091,lexical_decision_task_MP,2020.1.3,Win32,60,m,1,0.44795,,,,,,,,0.44795,1,,,,,,43,WORD,UN,50,foster,TONGUE,m,,,,,,0.323148279,0.034259252,0,0,0,,0,305,305,222,1,
,,,,,,,,,,,,,,,,,,5e19b97a8a76fb239d3e33d6,2020-08-10_16h48.32.091,lexical_decision_task_MP,2020.1.3,Win32,60,,0,,,,,,,,,0.44795,-1,,,,,,352,NW,"ID",33,tringe,TRINGE,z,,,,,,0.323148279,0.034259252,0,0,0,,0,306,306,291,1,
,,,,,,,,,,,,,,,,,,5e19b97a8a76fb239d3e33d6,2020-08-10_16h48.32.091,lexical_decision_task_MP,2020.1.3,Win32,60,m,1,0.58977,,,,,,,,0.58977,1,,,,,,238,WORD,UN,33,behalf,FLOWER,m,,,,,,0.323148279,0.034259252,0,0,0,,0,307,307,177,1,
,,,,,,,,,,,,,,,,,,5e19b97a8a76fb239d3e33d6,2020-08-10_16h48.32.091,lexical_decision_task_MP,2020.1.3,Win32,60,m,1,0.56423,,,,,,,,0.56423,1,,,,,,23,WORD,UN,50,praise,WEALTH,m,,,,,,0.323148279,0.034259252,0,0,0,,0,308,308,202,1,
,,,,,,,,,,,,,,,,,,5e19b97a8a76fb239d3e33d6,2020-08-10_16h48.32.091,lexical_decision_task_MP,2020.1.3,Win32,60,z,1,0.649395,,,,,,,,0.649395,1,,,,,,366,NW,"ID",50,toshel,TOSHEL,z,,,,,,0.323148279,0.034259252,0,0,0,,0,309,309,305,1,
,,,,,,,,,,,,,,,,,,5e19b97a8a76fb239d3e33d6,2020-08-10_16h48.32.091,lexical_decision_task_MP,2020.1.3,Win32,60,z,1,0.663,,,,,,,,0.663,1,,,,,,365,NW,"ID",50,guairt,GUAIRT,z,,,,,,0.323148279,0.034259252,0,0,0,,0,310,310,304,1,
,,,,,,,,,,,,,,,,,,5e19b97a8a76fb239d3e33d6,2020-08-10_16h48.32.091,lexical_decision_task_MP,2020.1.3,Win32,60,z,1,0.699915,,,,,,,,0.699915,1,,,,,,404,NW,"ID",50,cluirm,CLUIRM,z,,,,,,0.323148279,0.034259252,0,0,0,,0,311,311,343,1,
,,,,,,,,,,,,,,,,,,5e19b97a8a76fb239d3e33d6,2020-08-10_16h48.32.091,lexical_decision_task_MP,2020.1.3,Win32,60,m,1,0.646275,,,,,,,,0.646275,1,,,,,,31,WORD,UN,50,buckle,WEAPON,m,,,,,,0.323148279,0.034259252,0,0,0,,0,312,312,210,1,
,,,,,,,,,,,,,,,,,,5e19b97a8a76fb239d3e33d6,2020-08-10_16h48.32.091,lexical_decision_task_MP,2020.1.3,Win32,60,z,1,0.588815,,,,,,,,0.588815,1,,,,,,386,NW,"ID",50,ancust,ANCUST,z,,,,,,0.323148279,0.034259252,0,0,0,,0,313,313,325,1,
,,,,,,,,,,,,,,,,,,5e19b97a8a76fb239d3e33d6,2020-08-10_16h48.32.091,lexical_decision_task_MP,2020.1.3,Win32,60,z,1,0.647725,,,,,,,,0.647725,1,,,,,,317,NW,"ID",33,worbal,WORBAL,z,,,,,,0.323148279,0.034259252,0,0,0,,0,314,314,256,1,
,,,,,,,,,,,,,,,,,,5e19b97a8a76fb239d3e33d6,2020-08-10_16h48.32.091,lexical_decision_task_MP,2020.1.3,Win32,60,z,1,0.58923,,,,,,,,0.58923,1,,,,,,363,NW,"ID",50,breali,BREALI,z,,,,,,0.323148279,0.034259252,0,0,0,,0,315,315,302,1,
,,,,,,,,,,,,,,,,,,5e19b97a8a76fb239d3e33d6,2020-08-10_16h48.32.091,lexical_decision_task_MP,2020.1.3,Win32,60,m,1,0.720925,,,,,,,,0.720925,1,,,,,,212,WORD,UN,33,squeal,VERIFY,m,,,,,,0.323148279,0.034259252,0,0,0,,0,316,316,151,1,
,,,,,,,,,,,,,,,,,,5e19b97a8a76fb239d3e33d6,2020-08-10_16h48.32.091,lexical_decision_task_MP,2020.1.3,Win32,60,m,1,0.39842,,,,,,,,0.39842,1,,,,,,160,WORD,"ID",50,violet,VIOLET,m,,,,,,0.323148279,0.034259252,0,0,0,,0,317,317,99,1,
,,,,,,,,,,,,,,,,,,5e19b97a8a76fb239d3e33d6,2020-08-10_16h48.32.091,lexical_decision_task_MP,2020.1.3,Win32,60,m,1,0.485165,,,,,,,,0.485165,1,,,,,,60,WORD,UN,50,fright,PENCIL,m,,,,,,0.323148279,0.034259252,0,0,0,,0,318,318,239,1,
,,,,,,,,,,,,,,,,,,5e19b97a8a76fb239d3e33d6,2020-08-10_16h48.32.091,lexical_decision_task_MP,2020.1.3,Win32,60,z,1,0.479205,,,,,,,,0.479205,1,,,,,,331,NW,"ID",33,gilfew,GILFEW,z,,,,,,0.323148279,0.034259252,0,0,0,,0,319,319,270,1,
,,,,,,,,,,,,,,,,,,5e19b97a8a76fb239d3e33d6,2020-08-10_16h48.32.091,lexical_decision_task_MP,2020.1.3,Win32,60,z,0,0.849045,,,,,,,,0.849045,0,,,,,,186,WORD,UN,33,course,PORTAL,m,,,,,,0.323148279,0.034259252,0,0,0,,0,320,320,125,1,
,,,,,,,,,,,,,,,,,,5e19b97a8a76fb239d3e33d6,2020-08-10_16h48.32.091,lexical_decision_task_MP,2020.1.3,Win32,60,z,1,0.630345,,,,,,,,0.630345,1,,,,,,464,NW,UN,33,whivex,CHAITE,z,,,,,,0.323148279,0.034259252,0,0,0,,0,321,321,403,1,
,,,,,,,,,,,,,,,,,,5e19b97a8a76fb239d3e33d6,2020-08-10_16h48.32.091,lexical_decision_task_MP,2020.1.3,Win32,60,z,1,0.597065,,,,,,,,0.597065,1,,,,,,364,NW,"ID",50,impote,IMPOTE,z,,,,,,0.323148279,0.034259252,0,0,0,,0,322,322,303,1,
,,,,,,,,,,,,,,,,,,5e19b97a8a76fb239d3e33d6,2020-08-10_16h48.32.091,lexical_decision_task_MP,2020.1.3,Win32,60,m,1,0.628445,,,,,,,,0.628445,1,,,,,,11,WORD,UN,50,amount,CRUISE,m,,,,,,0.323148279,0.034259252,0,0,0,,0,323,323,190,1,
,,,,,,,,,,,,,,,,,,5e19b97a8a76fb239d3e33d6,2020-08-10_16h48.32.091,lexical_decision_task_MP,2020.1.3,Win32,60,m,1,0.448185,,,,,,,,0.448185,1,,,,,,21,WORD,UN,50,jockey,SIMPLE,m,,,,,,0.323148279,0.034259252,0,0,0,,0,324,324,200,1,
,,,,,,,,,,,,,,,,,,5e19b97a8a76fb239d3e33d6,2020-08-10_16h48.32.091,lexical_decision_task_MP,2020.1.3,Win32,60,z,1,0.79634,,,,,,,,0.79634,1,,,,,,441,NW,UN,33,aboune,RASTOE,z,,,,,,0.323148279,0.034259252,0,0,0,,0,325,325,380,1,
,,,,,,,,,,,,,,,,,,5e19b97a8a76fb239d3e33d6,2020-08-10_16h48.32.091,lexical_decision_task_MP,2020.1.3,Win32,60,m,0,0.70928,,,,,,,,0.70928,0,,,,,,409,NW,"ID",50,elopia,ELOPIA,z,,,,,,0.323148279,0.034259252,0,0,0,,0,326,326,348,1,
,,,,,,,,,,,,,,,,,,5e19b97a8a76fb239d3e33d6,2020-08-10_16h48.32.091,lexical_decision_task_MP,2020.1.3,Win32,60,z,1,0.703025,,,,,,,,0.703025,1,,,,,,435,NW,UN,33,frutan,IMPURB,z,,,,,,0.323148279,0.034259252,0,0,0,,0,327,327,374,1,
,,,,,,,,,,,,,,,,,,5e19b97a8a76fb239d3e33d6,2020-08-10_16h48.32.091,lexical_decision_task_MP,2020.1.3,Win32,60,m,1,0.783155,,,,,,,,0.783155,1,,,,,,231,WORD,UN,33,inject,EXPORT,m,,,,,,0.323148279,0.034259252,0,0,0,,0,328,328,170,1,
,,,,,,,,,,,,,,,,,,5e19b97a8a76fb239d3e33d6,2020-08-10_16h48.32.091,lexical_decision_task_MP,2020.1.3,Win32,60,z,1,0.811525,,,,,,,,0.811525,1,,,,,,291,NW,UN,50,ablint,PRETCH,z,,,,,,0.323148279,0.034259252,0,0,0,,0,329,329,470,1,
,,,,,,,,,,,,,,,,,,5e19b97a8a76fb239d3e33d6,2020-08-10_16h48.32.091,lexical_decision_task_MP,2020.1.3,Win32,60,m,1,0.7877,,,,,,,,0.7877,1,,,,,,58,WORD,UN,50,splint,FOSTER,m,,,,,,0.323148279,0.034259252,0,0,0,,0,330,330,237,1,
,,,,,,,,,,,,,,,,,,5e19b97a8a76fb239d3e33d6,2020-08-10_16h48.32.091,lexical_decision_task_MP,2020.1.3,Win32,60,m,1,0.79002,,,,,,,,0.79002,1,,,,,,172,WORD,"ID",50,patrol,PATROL,m,,,,,,0.323148279,0.034259252,0,0,0,,0,331,331,111,1,
,,,,,,,,,,,,,,,,,,5e19b97a8a76fb239d3e33d6,2020-08-10_16h48.32.091,lexical_decision_task_MP,2020.1.3,Win32,60,z,1,0.59251,,,,,,,,0.59251,1,,,,,,259,NW,UN,50,unject,SOUDAL,z,,,,,,0.323148279,0.034259252,0,0,0,,0,332,332,438,1,
,,,,,,,,,,,,,,,,,,5e19b97a8a76fb239d3e33d6,2020-08-10_16h48.32.091,lexical_decision_task_MP,2020.1.3,Win32,60,m,1,1.10284,,,,,,,,1.10284,1,,,,,,5,WORD,UN,50,bundle,PLUNGE,m,,,,,,0.323148279,0.034259252,0,0,0,,0,333,333,184,1,
,,,,,,,,,,,,,,,,,,5e19b97a8a76fb239d3e33d6,2020-08-10_16h48.32.091,lexical_decision_task_MP,2020.1.3,Win32,60,z,1,0.772105,,,,,,,,0.772105,1,,,,,,320,NW,"ID",33,jockal,JOCKAL,z,,,,,,0.323148279,0.034259252,0,0,0,,0,334,334,259,1,
,,,,,,,,,,,,,,,,,,5e19b97a8a76fb239d3e33d6,2020-08-10_16h48.32.091,lexical_decision_task_MP,2020.1.3,Win32,60,z,1,0.57982,,,,,,,,0.57982,1,,,,,,295,NW,UN,50,beinch,GLEATH,z,,,,,,0.323148279,0.034259252,0,0,0,,0,335,335,474,1,
,,,,,,,,,,,,,,,,,,5e19b97a8a76fb239d3e33d6,2020-08-10_16h48.32.091,lexical_decision_task_MP,2020.1.3,Win32,60,z,1,0.506835,,,,,,,,0.506835,1,,,,,,387,NW,"ID",50,gronce,GRONCE,z,,,,,,0.323148279,0.034259252,0,0,0,,0,336,336,326,1,
,,,,,,,,,,,,,,,,,,5e19b97a8a76fb239d3e33d6,2020-08-10_16h48.32.091,lexical_decision_task_MP,2020.1.3,Win32,60,z,0,0.56337,,,,,,,,0.56337,0,,,,,,84,WORD,"ID",33,mortal,MORTAL,m,,,,,,0.323148279,0.034259252,0,0,0,,0,337,337,23,1,
,,,,,,,,,,,,,,,,,,5e19b97a8a76fb239d3e33d6,2020-08-10_16h48.32.091,lexical_decision_task_MP,2020.1.3,Win32,60,z,1,0.399495,,,,,,,,0.399495,1,,,,,,370,NW,"ID",50,sleact,SLEACT,z,,,,,,0.323148279,0.034259252,0,0,0,,0,338,338,309,1,
,,,,,,,,,,,,,,,,,,5e19b97a8a76fb239d3e33d6,2020-08-10_16h48.32.091,lexical_decision_task_MP,2020.1.3,Win32,60,z,1,0.39061,,,,,,,,0.39061,1,,,,,,329,NW,"ID",33,yarike,YARIKE,z,,,,,,0.323148279,0.034259252,0,0,0,,0,339,339,268,1,
,,,,,,,,,,,,,,,,,,5e19b97a8a76fb239d3e33d6,2020-08-10_16h48.32.091,lexical_decision_task_MP,2020.1.3,Win32,60,z,1,0.328585,,,,,,,,0.328585,1,,,,,,318,NW,"ID",33,reagly,REAGLY,z,,,,,,0.323148279,0.034259252,0,0,0,,0,340,340,257,1,
,,,,,,,,,,,,,,,,,,5e19b97a8a76fb239d3e33d6,2020-08-10_16h48.32.091,lexical_decision_task_MP,2020.1.3,Win32,60,z,0,0.328125,,,,,,,,0.328125,0,,,,,,52,WORD,UN,50,police,IMPOSE,m,,,,,,0.323148279,0.034259252,0,0,0,,0,341,341,231,1,
,,,,,,,,,,,,,,,,,,5e19b97a8a76fb239d3e33d6,2020-08-10_16h48.32.091,lexical_decision_task_MP,2020.1.3,Win32,60,z,1,0.270135,,,,,,,,0.270135,1,,,,,,346,NW,"ID",33,saudic,SAUDIC,z,,,,,,0.323148279,0.034259252,0,0,0,,0,342,342,285,1,
,,,,,,,,,,,,,,,,,,5e19b97a8a76fb239d3e33d6,2020-08-10_16h48.32.091,lexical_decision_task_MP,2020.1.3,Win32,60,m,1,0.48957,,,,,,,,0.48957,1,,,,,,148,WORD,"ID",50,custom,CUSTOM,m,,,,,,0.323148279,0.034259252,0,0,0,,0,343,343,87,1,
,,,,,,,,,,,,,,,,,,5e19b97a8a76fb239d3e33d6,2020-08-10_16h48.32.091,lexical_decision_task_MP,2020.1.3,Win32,60,z,0,0.72892,,,,,,,,0.72892,0,,,,,,33,WORD,UN,50,jungle,BUTLER,m,,,,,,0.323148279,0.034259252,0,0,0,,0,344,344,212,1,
,,,,,,,,,,,,,,,,,,5e19b97a8a76fb239d3e33d6,2020-08-10_16h48.32.091,lexical_decision_task_MP,2020.1.3,Win32,60,z,1,0.580985,,,,,,,,0.580985,1,,,,,,279,NW,UN,50,curbol,CELOND,z,,,,,,0.323148279,0.034259252,0,0,0,,0,345,345,458,1,
,,,,,,,,,,,,,,,,,,5e19b97a8a76fb239d3e33d6,2020-08-10_16h48.32.091,lexical_decision_task_MP,2020.1.3,Win32,60,z,0,0.40912,,,,,,,,0.40912,0,,,,,,116,WORD,"ID",33,tumble,TUMBLE,m,,,,,,0.323148279,0.034259252,0,0,0,,0,346,346,55,1,
,,,,,,,,,,,,,,,,,,5e19b97a8a76fb239d3e33d6,2020-08-10_16h48.32.091,lexical_decision_task_MP,2020.1.3,Win32,60,m,0,0.42541,,,,,,,,0.42541,0,,,,,,250,NW,UN,50,lupict,MILTED,z,,,,,,0.323148279,0.034259252,0,0,0,,0,347,347,429,1,
,,,,,,,,,,,,,,,,,,5e19b97a8a76fb239d3e33d6,2020-08-10_16h48.32.091,lexical_decision_task_MP,2020.1.3,Win32,60,z,1,0.304705,,,,,,,,0.304705,1,,,,,,306,NW,"ID",33,sounge,SOUNGE,z,,,,,,0.323148279,0.034259252,0,0,0,,0,348,348,245,1,
,,,,,,,,,,,,,,,,,,5e19b97a8a76fb239d3e33d6,2020-08-10_16h48.32.091,lexical_decision_task_MP,2020.1.3,Win32,60,z,1,0.76515,,,,,,,,0.76515,1,,,,,,248,NW,UN,50,batrol,STROLE,z,,,,,,0.323148279,0.034259252,0,0,0,,0,349,349,427,1,
,,,,,,,,,,,,,,,,,,5e19b97a8a76fb239d3e33d6,2020-08-10_16h48.32.091,lexical_decision_task_MP,2020.1.3,Win32,60,m,1,0.76572,,,,,,,,0.76572,1,,,,,,197,WORD,UN,33,wicked,STREAM,m,,,,,,0.323148279,0.034259252,0,0,0,,0,350,350,136,1,
,,,,,,,,,,,,,,,,,,5e19b97a8a76fb239d3e33d6,2020-08-10_16h48.32.091,lexical_decision_task_MP,2020.1.3,Win32,60,z,1,0.6246,,,,,,,,0.6246,1,,,,,,405,NW,"ID",50,flumni,FLUMNI,z,,,,,,0.323148279,0.034259252,0,0,0,,0,351,351,344,1,
,,,,,,,,,,,,,,,,,,5e19b97a8a76fb239d3e33d6,2020-08-10_16h48.32.091,lexical_decision_task_MP,2020.1.3,Win32,60,m,1,0.557305,,,,,,,,0.557305,1,,,,,,69,WORD,"ID",33,plenty,PLENTY,m,,,,,,0.323148279,0.034259252,0,0,0,,0,352,352,8,1,
,,,,,,,,,,,,,,,,,,5e19b97a8a76fb239d3e33d6,2020-08-10_16h48.32.091,lexical_decision_task_MP,2020.1.3,Win32,60,m,1,0.60295,,,,,,,,0.60295,1,,,,,,97,WORD,"ID",33,client,CLIENT,m,,,,,,0.323148279,0.034259252,0,0,0,,0,353,353,36,1,
,,,,,,,,,,,,,,,,,,5e19b97a8a76fb239d3e33d6,2020-08-10_16h48.32.091,lexical_decision_task_MP,2020.1.3,Win32,60,z,1,0.54239,,,,,,,,0.54239,1,,,,,,392,NW,"ID",50,rouncy,ROUNCY,z,,,,,,0.323148279,0.034259252,0,0,0,,0,354,354,331,1,
,,,,,,,,,,,,,,,,,,5e19b97a8a76fb239d3e33d6,2020-08-10_16h48.32.091,lexical_decision_task_MP,2020.1.3,Win32,60,z,1,0.482105,,,,,,,,0.482105,1,,,,,,408,NW,"ID",50,hurnia,HURNIA,z,,,,,,0.323148279,0.034259252,0,0,0,,0,355,355,347,1,
,,,,,,,,,,,,,,,,,,5e19b97a8a76fb239d3e33d6,2020-08-10_16h48.32.091,lexical_decision_task_MP,2020.1.3,Win32,60,m,1,0.54506,,,,,,,,0.54506,1,,,,,,126,WORD,"ID",50,enough,ENOUGH,m,,,,,,0.323148279,0.034259252,0,0,0,,0,356,356,65,1,
,,,,,,,,,,,,,,,,,,5e19b97a8a76fb239d3e33d6,2020-08-10_16h48.32.091,lexical_decision_task_MP,2020.1.3,Win32,60,m,1,0.457145,,,,,,,,0.457145,1,,,,,,14,WORD,UN,50,orange,ALMOST,m,,,,,,0.323148279,0.034259252,0,0,0,,0,357,357,193,1,
,,,,,,,,,,,,,,,,,,5e19b97a8a76fb239d3e33d6,2020-08-10_16h48.32.091,lexical_decision_task_MP,2020.1.3,Win32,60,m,1,0.778405,,,,,,,,0.778405,1,,,,,,228,WORD,UN,33,kidney,MASTER,m,,,,,,0.323148279,0.034259252,0,0,0,,0,358,358,167,1,
,,,,,,,,,,,,,,,,,,5e19b97a8a76fb239d3e33d6,2020-08-10_16h48.32.091,lexical_decision_task_MP,2020.1.3,Win32,60,m,0,0.381805,,,,,,,,0.381805,0,,,,,,430,NW,UN,33,chrums,CAROEY,z,,,,,,0.323148279,0.034259252,0,0,0,,0,359,359,369,1,
,,,,,,,,,,,,,,,,,,5e19b97a8a76fb239d3e33d6,2020-08-10_16h48.32.091,lexical_decision_task_MP,2020.1.3,Win32,60,z,0,0.31871,,,,,,,,0.31871,0,,,,,,210,WORD,UN,33,infect,MONKEY,m,,,,,,0.323148279,0.034259252,0,0,0,,0,360,360,149,1,
,,,,,,,,,,,,,,,,,,5e19b97a8a76fb239d3e33d6,2020-08-10_16h48.32.091,lexical_decision_task_MP,2020.1.3,Win32,60,z,1,0.458595,,,,,,,,0.458595,1,,,,,,478,NW,UN,33,pebric,ACRISE,z,,,,,,0.323148279,0.034259252,0,0,0,,0,361,361,417,1,
,,,,,,,,,,,,,,,,,,5e19b97a8a76fb239d3e33d6,2020-08-10_16h48.32.091,lexical_decision_task_MP,2020.1.3,Win32,60,z,0,0.389265,,,,,,,,0.389265,0,,,,,,120,WORD,"ID",33,strain,STRAIN,m,,,,,,0.067592607,-0.384259272,0,0,0,space,0,362,362,59,1,2.4942
,,,,,,,,,,,,,,,,,,5e19b97a8a76fb239d3e33d6,2020-08-10_16h48.32.091,lexical_decision_task_MP,2020.1.3,Win32,60,m,1,1.36283,,,,,,,,1.36283,1,,,,,,208,WORD,UN,33,search,HOCKEY,m,,,,,,0.067592607,-0.384259272,0,0,0,,0,363,363,147,1,
,,,,,,,,,,,,,,,,,,5e19b97a8a76fb239d3e33d6,2020-08-10_16h48.32.091,lexical_decision_task_MP,2020.1.3,Win32,60,z,1,0.621745,,,,,,,,0.621745,1,,,,,,280,NW,UN,50,melaty,CURBOL,z,,,,,,0.067592607,-0.384259272,0,0,0,,0,364,364,459,1,
,,,,,,,,,,,,,,,,,,5e19b97a8a76fb239d3e33d6,2020-08-10_16h48.32.091,lexical_decision_task_MP,2020.1.3,Win32,60,m,1,0.52004,,,,,,,,0.52004,1,,,,,,191,WORD,UN,33,beacon,STABLE,m,,,,,,0.067592607,-0.384259272,0,0,0,,0,365,365,130,1,
,,,,,,,,,,,,,,,,,,5e19b97a8a76fb239d3e33d6,2020-08-10_16h48.32.091,lexical_decision_task_MP,2020.1.3,Win32,60,m,0,0.49315,,,,,,,,0.49315,0,,,,,,436,NW,UN,33,snapel,FRUTAN,z,,,,,,0.067592607,-0.384259272,0,0,0,,0,366,366,375,1,
,,,,,,,,,,,,,,,,,,5e19b97a8a76fb239d3e33d6,2020-08-10_16h48.32.091,lexical_decision_task_MP,2020.1.3,Win32,60,z,1,0.376665,,,,,,,,0.376665,1,,,,,,381,NW,"ID",50,huniek,HUNIEK,z,,,,,,0.067592607,-0.384259272,0,0,0,,0,367,367,320,1,
,,,,,,,,,,,,,,,,,,5e19b97a8a76fb239d3e33d6,2020-08-10_16h48.32.091,lexical_decision_task_MP,2020.1.3,Win32,60,z,0,0.328185,,,,,,,,0.328185,0,,,,,,87,WORD,"ID",33,filter,FILTER,m,,,,,,0.067592607,-0.384259272,0,0,0,,0,368,368,26,1,
,,,,,,,,,,,,,,,,,,5e19b97a8a76fb239d3e33d6,2020-08-10_16h48.32.091,lexical_decision_task_MP,2020.1.3,Win32,60,m,1,0.666735,,,,,,,,0.666735,1,,,,,,59,WORD,UN,50,pencil,SPLINT,m,,,,,,0.067592607,-0.384259272,0,0,0,,0,369,369,238,1,
,,,,,,,,,,,,,,,,,,5e19b97a8a76fb239d3e33d6,2020-08-10_16h48.32.091,lexical_decision_task_MP,2020.1.3,Win32,60,m,1,0.57862,,,,,,,,0.57862,1,,,,,,239,WORD,UN,33,forest,LUMBER,m,,,,,,0.067592607,-0.384259272,0,0,0,,0,370,370,178,1,
,,,,,,,,,,,,,,,,,,5e19b97a8a76fb239d3e33d6,2020-08-10_16h48.32.091,lexical_decision_task_MP,2020.1.3,Win32,60,m,1,0.536415,,,,,,,,0.536415,1,,,,,,61,WORD,"ID",33,ponder,PONDER,m,,,,,,0.067592607,-0.384259272,0,0,0,,0,371,371,0,1,
,,,,,,,,,,,,,,,,,,5e19b97a8a76fb239d3e33d6,2020-08-10_16h48.32.091,lexical_decision_task_MP,2020.1.3,Win32,60,m,1,0.44783,,,,,,,,0.44783,1,,,,,,88,WORD,"ID",33,hunger,HUNGER,m,,,,,,0.067592607,-0.384259272,0,0,0,,0,372,372,27,1,
,,,,,,,,,,,,,,,,,,5e19b97a8a76fb239d3e33d6,2020-08-10_16h48.32.091,lexical_decision_task_MP,2020.1.3,Win32,60,z,1,0.72846,,,,,,,,0.72846,1,,,,,,263,NW,UN,50,vackel,DOLICA,z,,,,,,0.067592607,-0.384259272,0,0,0,,0,373,373,442,1,
,,,,,,,,,,,,,,,,,,5e19b97a8a76fb239d3e33d6,2020-08-10_16h48.32.091,lexical_decision_task_MP,2020.1.3,Win32,60,z,1,0.341345,,,,,,,,0.341345,1,,,,,,465,NW,UN,33,bafent,WHIVEX,z,,,,,,0.067592607,-0.384259272,0,0,0,,0,374,374,404,1,
,,,,,,,,,,,,,,,,,,5e19b97a8a76fb239d3e33d6,2020-08-10_16h48.32.091,lexical_decision_task_MP,2020.1.3,Win32,60,z,1,0.36815,,,,,,,,0.36815,1,,,,,,350,NW,"ID",33,nagurs,NAGURS,z,,,,,,0.067592607,-0.384259272,0,0,0,,0,375,375,289,1,
,,,,,,,,,,,,,,,,,,5e19b97a8a76fb239d3e33d6,2020-08-10_16h48.32.091,lexical_decision_task_MP,2020.1.3,Win32,60,z,1,0.432375,,,,,,,,0.432375,1,,,,,,275,NW,UN,50,yarmon,SLEIRT,z,,,,,,0.067592607,-0.384259272,0,0,0,,0,376,376,454,1,
,,,,,,,,,,,,,,,,,,5e19b97a8a76fb239d3e33d6,2020-08-10_16h48.32.091,lexical_decision_task_MP,2020.1.3,Win32,60,z,1,0.410865,,,,,,,,0.410865,1,,,,,,337,NW,"ID",33,rejols,REJOLS,z,,,,,,0.067592607,-0.384259272,0,0,0,,0,377,377,276,1,
,,,,,,,,,,,,,,,,,,5e19b97a8a76fb239d3e33d6,2020-08-10_16h48.32.091,lexical_decision_task_MP,2020.1.3,Win32,60,m,1,0.569925,,,,,,,,0.569925,1,,,,,,140,WORD,"ID",50,prince,PRINCE,m,,,,,,0.067592607,-0.384259272,0,0,0,,0,378,378,79,1,
,,,,,,,,,,,,,,,,,,5e19b97a8a76fb239d3e33d6,2020-08-10_16h48.32.091,lexical_decision_task_MP,2020.1.3,Win32,60,m,1,0.373545,,,,,,,,0.373545,1,,,,,,44,WORD,UN,50,clergy,DANGER,m,,,,,,0.067592607,-0.384259272,0,0,0,,0,379,379,223,1,
,,,,,,,,,,,,,,,,,,5e19b97a8a76fb239d3e33d6,2020-08-10_16h48.32.091,lexical_decision_task_MP,2020.1.3,Win32,60,m,0,0.378395,,,,,,,,0.378395,0,,,,,,344,NW,"ID",33,scrily,SCRILY,z,,,,,,0.067592607,-0.384259272,0,0,0,,0,380,380,283,1,
,,,,,,,,,,,,,,,,,,5e19b97a8a76fb239d3e33d6,2020-08-10_16h48.32.091,lexical_decision_task_MP,2020.1.3,Win32,60,z,0,0.37086,,,,,,,,0.37086,0,,,,,,213,WORD,UN,33,intake,SQUEAL,m,,,,,,0.067592607,-0.384259272,0,0,0,,0,381,381,152,1,
,,,,,,,,,,,,,,,,,,5e19b97a8a76fb239d3e33d6,2020-08-10_16h48.32.091,lexical_decision_task_MP,2020.1.3,Win32,60,z,1,0.37975,,,,,,,,0.37975,1,,,,,,297,NW,UN,50,piergy,FERTIC,z,,,,,,0.067592607,-0.384259272,0,0,0,,0,382,382,476,1,
,,,,,,,,,,,,,,,,,,5e19b97a8a76fb239d3e33d6,2020-08-10_16h48.32.091,lexical_decision_task_MP,2020.1.3,Win32,60,z,0,0.51504,,,,,,,,0.51504,0,,,,,,131,WORD,"ID",50,quench,QUENCH,m,,,,,,0.067592607,-0.384259272,0,0,0,,0,383,383,70,1,
,,,,,,,,,,,,,,,,,,5e19b97a8a76fb239d3e33d6,2020-08-10_16h48.32.091,lexical_decision_task_MP,2020.1.3,Win32,60,z,1,0.85101,,,,,,,,0.85101,1,,,,,,397,NW,"ID",50,camble,CAMBLE,z,,,,,,0.067592607,-0.384259272,0,0,0,,0,384,384,336,1,
,,,,,,,,,,,,,,,,,,5e19b97a8a76fb239d3e33d6,2020-08-10_16h48.32.091,lexical_decision_task_MP,2020.1.3,Win32,60,z,1,0.62068,,,,,,,,0.62068,1,,,,,,400,NW,"ID",50,wearox,WEAROX,z,,,,,,0.067592607,-0.384259272,0,0,0,,0,385,385,339,1,
,,,,,,,,,,,,,,,,,,5e19b97a8a76fb239d3e33d6,2020-08-10_16h48.32.091,lexical_decision_task_MP,2020.1.3,Win32,60,z,0,0.590575,,,,,,,,0.590575,0,,,,,,207,WORD,UN,33,hockey,WREATH,m,,,,,,0.067592607,-0.384259272,0,0,0,,0,386,386,146,1,
,,,,,,,,,,,,,,,,,,5e19b97a8a76fb239d3e33d6,2020-08-10_16h48.32.091,lexical_decision_task_MP,2020.1.3,Win32,60,m,1,0.406795,,,,,,,,0.406795,1,,,,,,67,WORD,"ID",33,policy,POLICY,m,,,,,,0.067592607,-0.384259272,0,0,0,,0,387,387,6,1,
,,,,,,,,,,,,,,,,,,5e19b97a8a76fb239d3e33d6,2020-08-10_16h48.32.091,lexical_decision_task_MP,2020.1.3,Win32,60,m,1,0.5058,,,,,,,,0.5058,1,,,,,,114,WORD,"ID",33,placid,PLACID,m,,,,,,0.067592607,-0.384259272,0,0,0,,0,388,388,53,1,
,,,,,,,,,,,,,,,,,,5e19b97a8a76fb239d3e33d6,2020-08-10_16h48.32.091,lexical_decision_task_MP,2020.1.3,Win32,60,m,1,0.387745,,,,,,,,0.387745,1,,,,,,42,WORD,UN,50,tongue,CHAPEL,m,,,,,,0.067592607,-0.384259272,0,0,0,,0,389,389,221,1,
,,,,,,,,,,,,,,,,,,5e19b97a8a76fb239d3e33d6,2020-08-10_16h48.32.091,lexical_decision_task_MP,2020.1.3,Win32,60,z,1,0.72524,,,,,,,,0.72524,1,,,,,,448,NW,UN,33,brunge,SADENT,z,,,,,,0.067592607,-0.384259272,0,0,0,,0,390,390,387,1,
,,,,,,,,,,,,,,,,,,5e19b97a8a76fb239d3e33d6,2020-08-10_16h48.32.091,lexical_decision_task_MP,2020.1.3,Win32,60,z,1,0.62356,,,,,,,,0.62356,1,,,,,,281,NW,UN,50,porlex,MELATY,z,,,,,,0.067592607,-0.384259272,0,0,0,,0,391,391,460,1,
,,,,,,,,,,,,,,,,,,5e19b97a8a76fb239d3e33d6,2020-08-10_16h48.32.091,lexical_decision_task_MP,2020.1.3,Win32,60,z,1,0.52024,,,,,,,,0.52024,1,,,,,,348,NW,"ID",33,dumple,DUMPLE,z,,,,,,0.067592607,-0.384259272,0,0,0,,0,392,392,287,1,
,,,,,,,,,,,,,,,,,,5e19b97a8a76fb239d3e33d6,2020-08-10_16h48.32.091,lexical_decision_task_MP,2020.1.3,Win32,60,z,1,0.48485,,,,,,,,0.48485,1,,,,,,394,NW,"ID",50,spaqux,SPAQUX,z,,,,,,0.067592607,-0.384259272,0,0,0,,0,393,393,333,1,
,,,,,,,,,,,,,,,,,,5e19b97a8a76fb239d3e33d6,2020-08-10_16h48.32.091,lexical_decision_task_MP,2020.1.3,Win32,60,m,1,0.566175,,,,,,,,0.566175,1,,,,,,202,WORD,UN,33,phrase,FACTOR,m,,,,,,0.067592607,-0.384259272,0,0,0,,0,394,394,141,1,
,,,,,,,,,,,,,,,,,,5e19b97a8a76fb239d3e33d6,2020-08-10_16h48.32.091,lexical_decision_task_MP,2020.1.3,Win32,60,z,1,0.637455,,,,,,,,0.637455,1,,,,,,256,NW,UN,50,veniod,INLORS,z,,,,,,0.067592607,-0.384259272,0,0,0,,0,395,395,435,1,
,,,,,,,,,,,,,,,,,,5e19b97a8a76fb239d3e33d6,2020-08-10_16h48.32.091,lexical_decision_task_MP,2020.1.3,Win32,60,z,1,0.701205,,,,,,,,0.701205,1,,,,,,480,NW,UN,33,knisma,ROBULY,z,,,,,,0.067592607,-0.384259272,0,0,0,,0,396,396,419,1,
,,,,,,,,,,,,,,,,,,5e19b97a8a76fb239d3e33d6,2020-08-10_16h48.32.091,lexical_decision_task_MP,2020.1.3,Win32,60,z,1,0.85332,,,,,,,,0.85332,1,,,,,,265,NW,UN,50,varmit,DISTAR,z,,,,,,0.067592607,-0.384259272,0,0,0,,0,397,397,444,1,
,,,,,,,,,,,,,,,,,,5e19b97a8a76fb239d3e33d6,2020-08-10_16h48.32.091,lexical_decision_task_MP,2020.1.3,Win32,60,z,1,0.572,,,,,,,,0.572,1,,,,,,474,NW,UN,33,acrise,HABLIN,z,,,,,,0.067592607,-0.384259272,0,0,0,,0,398,398,413,1,
,,,,,,,,,,,,,,,,,,5e19b97a8a76fb239d3e33d6,2020-08-10_16h48.32.091,lexical_decision_task_MP,2020.1.3,Win32,60,z,1,0.42241,,,,,,,,0.42241,1,,,,,,260,NW,UN,50,stunch,UNJECT,z,,,,,,0.067592607,-0.384259272,0,0,0,,0,399,399,439,1,
,,,,,,,,,,,,,,,,,,5e19b97a8a76fb239d3e33d6,2020-08-10_16h48.32.091,lexical_decision_task_MP,2020.1.3,Win32,60,z,0,0.358225,,,,,,,,0.358225,0,,,,,,53,WORD,UN,50,ramble,POLICE,m,,,,,,0.067592607,-0.384259272,0,0,0,,0,400,400,232,1,
,,,,,,,,,,,,,,,,,,5e19b97a8a76fb239d3e33d6,2020-08-10_16h48.32.091,lexical_decision_task_MP,2020.1.3,Win32,60,m,1,0.28986,,,,,,,,0.28986,1,,,,,,113,WORD,"ID",33,chorus,CHORUS,m,,,,,,0.067592607,-0.384259272,0,0,0,,0,401,401,52,1,
,,,,,,,,,,,,,,,,,,5e19b97a8a76fb239d3e33d6,2020-08-10_16h48.32.091,lexical_decision_task_MP,2020.1.3,Win32,60,m,1,0.378725,,,,,,,,0.378725,1,,,,,,3,WORD,UN,50,trench,KNIGHT,m,,,,,,0.067592607,-0.384259272,0,0,0,,0,402,402,182,1,
,,,,,,,,,,,,,,,,,,5e19b97a8a76fb239d3e33d6,2020-08-10_16h48.32.091,lexical_decision_task_MP,2020.1.3,Win32,60,z,1,0.450525,,,,,,,,0.450525,1,,,,,,355,NW,"ID",33,zingly,ZINGLY,z,,,,,,0.067592607,-0.384259272,0,0,0,,0,403,403,294,1,
,,,,,,,,,,,,,,,,,,5e19b97a8a76fb239d3e33d6,2020-08-10_16h48.32.091,lexical_decision_task_MP,2020.1.3,Win32,60,m,1,0.62003,,,,,,,,0.62003,1,,,,,,78,WORD,"ID",33,column,COLUMN,m,,,,,,0.067592607,-0.384259272,0,0,0,,0,404,404,17,1,
,,,,,,,,,,,,,,,,,,5e19b97a8a76fb239d3e33d6,2020-08-10_16h48.32.091,lexical_decision_task_MP,2020.1.3,Win32,60,z,1,0.550295,,,,,,,,0.550295,1,,,,,,354,NW,"ID",33,virlex,VIRLEX,z,,,,,,0.067592607,-0.384259272,0,0,0,,0,405,405,293,1,
