counterbalancing_condition,instr_done_keyboard.keys,instr_done_touch.x,instr_done_touch.y,instr_done_touch.leftButton,instr_done_touch.midButton,instr_done_touch.rightButton,instr_done_touch.clicked_name,instruction_pages.thisRepN,instruction_pages.thisTrialN,instruction_pages.thisN,instruction_pages.thisIndex,instruction_pages.ran,pageN,phase,instruct_text,has_image,instruct_image,participant,date,expName,psychopyVersion,OS,frameRate,response.keys,response.corr,touch_resp.x,touch_resp.y,touch_resp.leftButton,touch_resp.midButton,touch_resp.rightButton,touch_resp.time,touch_resp.clicked_name,rt,corr,practice_trials.thisRepN,practice_trials.thisTrialN,practice_trials.thisN,practice_trials.thisIndex,practice_trials.ran,TrialID,StimulusType,Condition,PrimeDuration,Prime,Target,corrAns,end_of_practice_trials_pages.thisRepN,end_of_practice_trials_pages.thisTrialN,end_of_practice_trials_pages.thisN,end_of_practice_trials_pages.thisIndex,end_of_practice_trials_pages.ran,break_done_touch.x,break_done_touch.y,break_done_touch.leftButton,break_done_touch.midButton,break_done_touch.rightButton,break_done_keyboard.keys,trials.thisRepN,trials.thisTrialN,trials.thisN,trials.thisIndex,trials.ran,break_done_touch.clicked_name
3,,0.060332882,-0.400023081,1,0,0,instr_done_button,0,0,0,0,1,1,instructions,"INSTRUCTIONS
At the start of each trial, look at the hash marks (######) in the center of the screen. After a moment, a string of letters will appear. Your task is to indicate if the letter string forms a word or not (i.e., if it is a nonword). For example, AUTHOR is a word while AUTHON is a nonword.

Press the space bar or touch the button below to continue.",0,,5e2322100e12225cf287f0a4,2020-08-10_17h47.02.919,lexical_decision_task_MP,2020.1.3,Linux armv8l,60,,,,,,,,,,,,,,,,,,,,,,,,,,,,,,,,,,,,,,,,
,,0.091770691,-0.388002859,1,0,0,instr_done_button,0,1,1,1,1,2,instructions,"If your device has a keyboard, press the 'Z' key for nonwords and the 'M' key for words.





Press the space bar or touch the button below to continue.",1,keyboard-example.gif,5e2322100e12225cf287f0a4,2020-08-10_17h47.02.919,lexical_decision_task_MP,2020.1.3,Linux armv8l,60,,,,,,,,,,,,,,,,,,,,,,,,,,,,,,,,,,,,,,,,
,,0.089921414,-0.386153582,1,0,0,instr_done_button,0,2,2,2,1,3,instructions,"If you are using a touchscreen only device, use the buttons on the screen. Do not use the mouse.





Press the space bar or touch the button below to continue.",1,touchscreen-example.gif,5e2322100e12225cf287f0a4,2020-08-10_17h47.02.919,lexical_decision_task_MP,2020.1.3,Linux armv8l,60,,,,,,,,,,,,,,,,,,,,,,,,,,,,,,,,,,,,,,,,
,,0.094544642,-0.386153582,1,0,0,instr_done_button,0,3,3,3,1,4,instructions,"It is very important that you respond as quickly and accurately as possible, as each letter string will only be on the screen for two seconds. If you do not respond within this time, the message 'Too slow!' will be displayed and the experiment will progress to the next letter string. The first 20 trials will be practice trials and you will receive feedback on your answers. 

Press the space bar or touch the button below to start the practice trials.",0,,5e2322100e12225cf287f0a4,2020-08-10_17h47.02.919,lexical_decision_task_MP,2020.1.3,Linux armv8l,60,,,,,,,,,,,,,,,,,,,,,,,,,,,,,,,,,,,,,,,,
,,,,,,,,,,,,,,,,,,5e2322100e12225cf287f0a4,2020-08-10_17h47.02.919,lexical_decision_task_MP,2020.1.3,Linux armv8l,60,,0,0.380258949,-0.319579337,1,0,0,1.8668,button_right,1.8668,1,0,0,0,3,1,1004,WORD,"ID",50,matrix,MATRIX,m,,,,,,,,,,,,,,,,,
,,,,,,,,,,,,,,,,,,5e2322100e12225cf287f0a4,2020-08-10_17h47.02.919,lexical_decision_task_MP,2020.1.3,Linux armv8l,60,,0,-0.280859919,-0.253929805,1,0,0,1.1495,button_left,1.1495,1,0,1,1,14,1,1015,NW,UN,50,miaber,THRALE,z,,,,,,,,,,,,,,,,,
,,,,,,,,,,,,,,,,,,5e2322100e12225cf287f0a4,2020-08-10_17h47.02.919,lexical_decision_task_MP,2020.1.3,Linux armv8l,60,,0,-0.248497454,-0.277970397,1,0,0,1.3729,button_left,1.3729,1,0,2,2,11,1,1012,NW,"ID",50,rashet,RASHET,z,,,,,,,,,,,,,,,,,
,,,,,,,,,,,,,,,,,,5e2322100e12225cf287f0a4,2020-08-10_17h47.02.919,lexical_decision_task_MP,2020.1.3,Linux armv8l,60,,0,0.407998168,-0.273347281,1,0,0,1.209,button_right,1.209,0,0,3,3,12,1,1013,NW,UN,33,adveil,SPRINY,z,,,,,,,,,,,,,,,,,
,,,,,,,,,,,,,,,,,,5e2322100e12225cf287f0a4,2020-08-10_17h47.02.919,lexical_decision_task_MP,2020.1.3,Linux armv8l,60,,0,0.396902436,-0.266874739,1,0,0,1.5256,button_right,1.5256,1,0,4,4,2,1,1003,WORD,"ID",50,almond,ALMOND,m,,,,,,,,,,,,,,,,,
,,,,,,,,,,,,,,,,,,5e2322100e12225cf287f0a4,2020-08-10_17h47.02.919,lexical_decision_task_MP,2020.1.3,Linux armv8l,60,,0,0.432963473,-0.271498004,1,0,0,0.8695,button_right,0.8695,1,0,5,5,1,1,1002,WORD,"ID",33,adjust,ADJUST,m,,,,,,,,,,,,,,,,,
,,,,,,,,,,,,,,,,,,5e2322100e12225cf287f0a4,2020-08-10_17h47.02.919,lexical_decision_task_MP,2020.1.3,Linux armv8l,60,,0,-0.245723521,-0.250231252,1,0,0,1.0969,button_left,1.0969,1,0,6,6,8,1,1009,NW,"ID",33,aslert,ASLERT,z,,,,,,,,,,,,,,,,,
,,,,,,,,,,,,,,,,,,5e2322100e12225cf287f0a4,2020-08-10_17h47.02.919,lexical_decision_task_MP,2020.1.3,Linux armv8l,60,,0,-0.277161348,-0.302935702,1,0,0,1.1151,button_left,1.1151,1,0,7,7,10,1,1011,NW,"ID",50,inlade,INLADE,z,,,,,,,,,,,,,,,,,
,,,,,,,,,,,,,,,,,,5e2322100e12225cf287f0a4,2020-08-10_17h47.02.919,lexical_decision_task_MP,2020.1.3,Linux armv8l,60,,0,0.403375052,-0.305709691,1,0,0,0.96,button_right,0.96,1,0,8,8,4,1,1005,WORD,UN,33,abound,SQUEAK,m,,,,,,,,,,,,,,,,,
,,,,,,,,,,,,,,,,,,5e2322100e12225cf287f0a4,2020-08-10_17h47.02.919,lexical_decision_task_MP,2020.1.3,Linux armv8l,60,,0,-0.269764206,-0.272422568,1,0,0,1.0101,button_left,1.0101,1,0,9,9,13,1,1014,NW,UN,33,winfer,ROUPET,z,,,,,,,,,,,,,,,,,
,,,,,,,,,,,,,,,,,,5e2322100e12225cf287f0a4,2020-08-10_17h47.02.919,lexical_decision_task_MP,2020.1.3,Linux armv8l,60,,0,0.384882214,-0.298312585,1,0,0,1.0807,button_right,1.0807,1,0,10,10,0,1,1001,WORD,"ID",33,utopia,UTOPIA,m,,,,,,,,,,,,,,,,,
,,,,,,,,,,,,,,,,,,5e2322100e12225cf287f0a4,2020-08-10_17h47.02.919,lexical_decision_task_MP,2020.1.3,Linux armv8l,60,,0,-0.267914929,-0.272422568,1,0,0,1.0718,button_left,1.0718,1,0,11,11,9,1,1010,NW,"ID",33,fariny,FARINY,z,,,,,,,,,,,,,,,,,
,,,,,,,,,,,,,,,,,,5e2322100e12225cf287f0a4,2020-08-10_17h47.02.919,lexical_decision_task_MP,2020.1.3,Linux armv8l,60,,0,0.411696721,-0.28166895,1,0,0,0.8191,button_right,0.8191,1,0,12,12,5,1,1006,WORD,UN,33,frenzy,OBTAIN,m,,,,,,,,,,,,,,,,,
,,,,,,,,,,,,,,,,,,5e2322100e12225cf287f0a4,2020-08-10_17h47.02.919,lexical_decision_task_MP,2020.1.3,Linux armv8l,60,,0,-0.261442444,-0.277970397,1,0,0,0.9582,button_left,0.9582,1,0,13,13,15,1,1016,NW,UN,50,mushed,WHAISE,z,,,,,,,,,,,,,,,,,
,,,,,,,,,,,,,,,,,,5e2322100e12225cf287f0a4,2020-08-10_17h47.02.919,lexical_decision_task_MP,2020.1.3,Linux armv8l,60,,0,0.39505316,-0.272422568,1,0,0,1.1998,button_right,1.1998,1,0,14,14,6,1,1007,WORD,UN,50,tropic,ZOMBIE,m,,,,,,,,,,,,,,,,,
,,,,,,,,,,,,,,,,,,5e2322100e12225cf287f0a4,2020-08-10_17h47.02.919,lexical_decision_task_MP,2020.1.3,Linux armv8l,60,,0,0.409847445,-0.29091548,1,0,0,0.7882,button_right,0.7882,1,0,15,15,7,1,1008,WORD,UN,50,hurdle,VOLUME,m,,,,,,,,,,,,,,,,,
,,0.100092471,-0.394475252,1,0,0,instr_done_button,,,,,,1,end_of_practice,"You have completed the practice trials. During the experimental trials, you will not receive feedback, but it is very important that you respond as quickly and accurately as possible. 
Before you begin, please ensure that you are in a comfortable and quiet location and will not be disturbed for about 15 minutes, as we cannot use your data if you do not complete all the trials. 
There will be opportunities to take breaks at regular intervals during the experiment. When you are ready to start the experimental trials, please press space or touch the button below.",,,5e2322100e12225cf287f0a4,2020-08-10_17h47.02.919,lexical_decision_task_MP,2020.1.3,Linux armv8l,60,,,,,,,,,,,,,,,,,,,,,,,,0,0,0,0,1,,,,,,,,,,,,
,,,,,,,,,,,,,,,,,,5e2322100e12225cf287f0a4,2020-08-10_17h47.02.919,lexical_decision_task_MP,2020.1.3,Linux armv8l,60,,0,-0.241100311,-0.270573292,1,0,0,0.9694,button_left,0.9694,1,,,,,,386,NW,"ID",50,ancust,ANCUST,z,,,,,,-0.241100311,-0.270573292,1,0,0,,0,0,0,325,1,
,,,,,,,,,,,,,,,,,,5e2322100e12225cf287f0a4,2020-08-10_17h47.02.919,lexical_decision_task_MP,2020.1.3,Linux armv8l,60,,0,0.432963473,-0.295538597,1,0,0,0.7358,button_right,0.7358,1,,,,,,228,WORD,UN,33,kidney,MASTER,m,,,,,,0.432963473,-0.295538597,1,0,0,,0,1,1,167,1,
,,,,,,,,,,,,,,,,,,5e2322100e12225cf287f0a4,2020-08-10_17h47.02.919,lexical_decision_task_MP,2020.1.3,Linux armv8l,60,,0,-0.237401759,-0.302011138,1,0,0,0.8505,button_left,0.8505,1,,,,,,373,NW,"ID",50,bigent,BIGENT,z,,,,,,-0.237401759,-0.302011138,1,0,0,,0,2,2,312,1,
,,,,,,,,,,,,,,,,,,5e2322100e12225cf287f0a4,2020-08-10_17h47.02.919,lexical_decision_task_MP,2020.1.3,Linux armv8l,60,,0,0.348821103,-0.336222825,1,0,0,0.9212,button_right,0.9212,1,,,,,,125,WORD,"ID",50,nickel,NICKEL,m,,,,,,0.348821103,-0.336222825,1,0,0,,0,3,3,64,1,
,,,,,,,,,,,,,,,,,,5e2322100e12225cf287f0a4,2020-08-10_17h47.02.919,lexical_decision_task_MP,2020.1.3,Linux armv8l,60,,0,0.380258949,-0.315880933,1,0,0,1.0813,button_right,1.0813,1,,,,,,221,WORD,UN,33,hinder,MASCOT,m,,,,,,0.380258949,-0.315880933,1,0,0,,0,4,4,160,1,
,,,,,,,,,,,,,,,,,,5e2322100e12225cf287f0a4,2020-08-10_17h47.02.919,lexical_decision_task_MP,2020.1.3,Linux armv8l,60,,0,0.428340282,-0.321428614,1,0,0,0.7208,button_right,0.7208,1,,,,,,180,WORD,"ID",50,silent,SILENT,m,,,,,,0.428340282,-0.321428614,1,0,0,,0,5,5,119,1,
,,,,,,,,,,,,,,,,,,5e2322100e12225cf287f0a4,2020-08-10_17h47.02.919,lexical_decision_task_MP,2020.1.3,Linux armv8l,60,,0,-0.251271387,-0.273347281,1,0,0,0.8689,button_left,0.8689,1,,,,,,250,NW,UN,50,lupict,MILTED,z,,,,,,-0.251271387,-0.273347281,1,0,0,,0,6,6,429,1,
,,,,,,,,,,,,,,,,,,5e2322100e12225cf287f0a4,2020-08-10_17h47.02.919,lexical_decision_task_MP,2020.1.3,Linux armv8l,60,,0,0.405224254,-0.318654625,1,0,0,0.7996,button_right,0.7996,1,,,,,,198,WORD,UN,33,invoke,WICKED,m,,,,,,0.405224254,-0.318654625,1,0,0,,0,7,7,137,1,
,,,,,,,,,,,,,,,,,,5e2322100e12225cf287f0a4,2020-08-10_17h47.02.919,lexical_decision_task_MP,2020.1.3,Linux armv8l,60,,0,-0.281784558,-0.289990768,1,0,0,0.8546,button_left,0.8546,1,,,,,,298,NW,UN,50,sturch,PIERGY,z,,,,,,-0.281784558,-0.289990768,1,0,0,,0,8,8,477,1,
,,,,,,,,,,,,,,,,,,5e2322100e12225cf287f0a4,2020-08-10_17h47.02.919,lexical_decision_task_MP,2020.1.3,Linux armv8l,60,,0,-0.254969939,-0.31125752,1,0,0,0.9143,button_left,0.9143,1,,,,,,297,NW,UN,50,piergy,FERTIC,z,,,,,,-0.254969939,-0.31125752,1,0,0,,0,9,9,476,1,
,,,,,,,,,,,,,,,,,,5e2322100e12225cf287f0a4,2020-08-10_17h47.02.919,lexical_decision_task_MP,2020.1.3,Linux armv8l,60,,0,0.382108225,-0.302935702,1,0,0,0.8488,button_right,0.8488,1,,,,,,6,WORD,UN,50,anchor,BUNDLE,m,,,,,,0.382108225,-0.302935702,1,0,0,,0,10,10,185,1,
,,,,,,,,,,,,,,,,,,5e2322100e12225cf287f0a4,2020-08-10_17h47.02.919,lexical_decision_task_MP,2020.1.3,Linux armv8l,60,,0,0.422792527,-0.29091548,1,0,0,0.7167,button_right,0.7167,1,,,,,,177,WORD,"ID",50,advent,ADVENT,m,,,,,,0.422792527,-0.29091548,1,0,0,,0,11,11,116,1,
,,,,,,,,,,,,,,,,,,5e2322100e12225cf287f0a4,2020-08-10_17h47.02.919,lexical_decision_task_MP,2020.1.3,Linux armv8l,60,,0,0.432038835,-0.300161862,1,0,0,0.868,button_right,0.868,1,,,,,,5,WORD,UN,50,bundle,PLUNGE,m,,,,,,0.432038835,-0.300161862,1,0,0,,0,12,12,184,1,
,,,,,,,,,,,,,,,,,,5e2322100e12225cf287f0a4,2020-08-10_17h47.02.919,lexical_decision_task_MP,2020.1.3,Linux armv8l,60,,0,-0.288257043,-0.273347281,1,0,0,0.8853,button_left,0.8853,1,,,,,,382,NW,"ID",50,sarley,SARLEY,z,,,,,,-0.288257043,-0.273347281,1,0,0,,0,13,13,321,1,
,,,,,,,,,,,,,,,,,,5e2322100e12225cf287f0a4,2020-08-10_17h47.02.919,lexical_decision_task_MP,2020.1.3,Linux armv8l,60,,0,0.409847445,-0.302011138,1,0,0,0.7328,button_right,0.7328,1,,,,,,149,WORD,"ID",50,invade,INVADE,m,,,,,,0.409847445,-0.302011138,1,0,0,,0,14,14,88,1,
,,,,,,,,,,,,,,,,,,5e2322100e12225cf287f0a4,2020-08-10_17h47.02.919,lexical_decision_task_MP,2020.1.3,Linux armv8l,60,,0,-0.289181682,-0.302011138,1,0,0,0.9346,button_left,0.9346,1,,,,,,352,NW,"ID",33,tringe,TRINGE,z,,,,,,-0.289181682,-0.302011138,1,0,0,,0,15,15,291,1,
,,,,,,,,,,,,,,,,,,5e2322100e12225cf287f0a4,2020-08-10_17h47.02.919,lexical_decision_task_MP,2020.1.3,Linux armv8l,60,,0,-0.295654186,-0.288141491,1,0,0,0.9513,button_left,0.9513,1,,,,,,332,NW,"ID",33,vangue,VANGUE,z,,,,,,-0.295654186,-0.288141491,1,0,0,,0,16,16,271,1,
,,,,,,,,,,,,,,,,,,5e2322100e12225cf287f0a4,2020-08-10_17h47.02.919,lexical_decision_task_MP,2020.1.3,Linux armv8l,60,,0,-0.271613501,-0.300161862,1,0,0,0.8677,button_left,0.8677,1,,,,,,471,NW,UN,33,cigney,NOBEST,z,,,,,,-0.271613501,-0.300161862,1,0,0,,0,17,17,410,1,
,,,,,,,,,,,,,,,,,,5e2322100e12225cf287f0a4,2020-08-10_17h47.02.919,lexical_decision_task_MP,2020.1.3,Linux armv8l,60,,0,0.442210003,-0.310332956,1,0,0,0.6739,button_right,0.6739,1,,,,,,108,WORD,"ID",33,reckon,RECKON,m,,,,,,0.442210003,-0.310332956,1,0,0,,0,18,18,47,1,
,,,,,,,,,,,,,,,,,,5e2322100e12225cf287f0a4,2020-08-10_17h47.02.919,lexical_decision_task_MP,2020.1.3,Linux armv8l,60,,0,0.433888111,-0.283518226,1,0,0,0.7327,button_right,0.7327,1,,,,,,142,WORD,"ID",50,spruce,SPRUCE,m,,,,,,0.433888111,-0.283518226,1,0,0,,0,19,19,81,1,
,,,,,,,,,,,,,,,,,,5e2322100e12225cf287f0a4,2020-08-10_17h47.02.919,lexical_decision_task_MP,2020.1.3,Linux armv8l,60,,0,0.418169262,-0.297387873,1,0,0,0.8841,button_right,0.8841,1,,,,,,183,WORD,UN,33,sleazy,MILDEW,m,,,,,,0.418169262,-0.297387873,1,0,0,,0,20,20,122,1,
,,,,,,,,,,,,,,,,,,5e2322100e12225cf287f0a4,2020-08-10_17h47.02.919,lexical_decision_task_MP,2020.1.3,Linux armv8l,60,,0,0.442210003,-0.303860414,1,0,0,0.7687,button_right,0.7687,1,,,,,,236,WORD,UN,33,grumpy,PIRATE,m,,,,,,0.442210003,-0.303860414,1,0,0,,0,21,21,175,1,
,,,,,,,,,,,,,,,,,,5e2322100e12225cf287f0a4,2020-08-10_17h47.02.919,lexical_decision_task_MP,2020.1.3,Linux armv8l,60,,0,0.457928852,-0.31125752,1,0,0,0.7348,button_right,0.7348,1,,,,,,69,WORD,"ID",33,plenty,PLENTY,m,,,,,,0.457928852,-0.31125752,1,0,0,,0,22,22,8,1,
,,,,,,,,,,,,,,,,,,5e2322100e12225cf287f0a4,2020-08-10_17h47.02.919,lexical_decision_task_MP,2020.1.3,Linux armv8l,60,,0,0.447757758,-0.302935702,1,0,0,0.8301,button_right,0.8301,1,,,,,,235,WORD,UN,33,pirate,GRUMPY,m,,,,,,0.447757758,-0.302935702,1,0,0,,0,23,23,174,1,
,,,,,,,,,,,,,,,,,,5e2322100e12225cf287f0a4,2020-08-10_17h47.02.919,lexical_decision_task_MP,2020.1.3,Linux armv8l,60,,0,-0.297503462,-0.260402198,1,0,0,0.8409,button_left,0.8409,1,,,,,,288,NW,UN,50,starby,YACEUP,z,,,,,,-0.297503462,-0.260402198,1,0,0,,0,24,24,467,1,
,,,,,,,,,,,,,,,,,,5e2322100e12225cf287f0a4,2020-08-10_17h47.02.919,lexical_decision_task_MP,2020.1.3,Linux armv8l,60,,0,0.418169262,-0.295538597,1,0,0,0.8172,button_right,0.8172,1,,,,,,155,WORD,"ID",50,lizard,LIZARD,m,,,,,,0.418169262,-0.295538597,1,0,0,,0,25,25,94,1,
,,,,,,,,,,,,,,,,,,5e2322100e12225cf287f0a4,2020-08-10_17h47.02.919,lexical_decision_task_MP,2020.1.3,Linux armv8l,60,,0,0.426491006,-0.298312585,1,0,0,0.7623,button_right,0.7623,1,,,,,,8,WORD,UN,50,hustle,ABRUPT,m,,,,,,0.426491006,-0.298312585,1,0,0,,0,26,26,187,1,
,,,,,,,,,,,,,,,,,,5e2322100e12225cf287f0a4,2020-08-10_17h47.02.919,lexical_decision_task_MP,2020.1.3,Linux armv8l,60,,0,-0.27623671,-0.277970397,1,0,0,0.9338,button_left,0.9338,1,,,,,,396,NW,"ID",50,flengy,FLENGY,z,,,,,,-0.27623671,-0.277970397,1,0,0,,0,27,27,335,1,
,,,,,,,,,,,,,,,,,,5e2322100e12225cf287f0a4,2020-08-10_17h47.02.919,lexical_decision_task_MP,2020.1.3,Linux armv8l,60,,0,0.410772083,-0.302935702,1,0,0,0.7767,button_right,0.7767,1,,,,,,114,WORD,"ID",33,placid,PLACID,m,,,,,,0.410772083,-0.302935702,1,0,0,,0,28,28,53,1,
,,,,,,,,,,,,,,,,,,5e2322100e12225cf287f0a4,2020-08-10_17h47.02.919,lexical_decision_task_MP,2020.1.3,Linux armv8l,60,,0,-0.280859919,-0.287216779,1,0,0,0.8991,button_left,0.8991,1,,,,,,470,NW,UN,33,nobest,CRUDIO,z,,,,,,-0.280859919,-0.287216779,1,0,0,,0,29,29,409,1,
,,,,,,,,,,,,,,,,,,5e2322100e12225cf287f0a4,2020-08-10_17h47.02.919,lexical_decision_task_MP,2020.1.3,Linux armv8l,60,,0,0.351595018,-0.277970397,1,0,0,0.8688,button_right,0.8688,1,,,,,,36,WORD,UN,50,insult,VANISH,m,,,,,,0.351595018,-0.277970397,1,0,0,,0,30,30,215,1,
,,,,,,,,,,,,,,,,,,5e2322100e12225cf287f0a4,2020-08-10_17h47.02.919,lexical_decision_task_MP,2020.1.3,Linux armv8l,60,,0,0.432038835,-0.305709691,1,0,0,0.7016,button_right,0.7016,1,,,,,,152,WORD,"ID",50,rocket,ROCKET,m,,,,,,0.432038835,-0.305709691,1,0,0,,0,31,31,91,1,
,,,,,,,,,,,,,,,,,,5e2322100e12225cf287f0a4,2020-08-10_17h47.02.919,lexical_decision_task_MP,2020.1.3,Linux armv8l,60,,0,0.421867815,-0.319579337,1,0,0,0.7481,button_right,0.7481,1,,,,,,176,WORD,"ID",50,strife,STRIFE,m,,,,,,0.421867815,-0.319579337,1,0,0,,0,32,32,115,1,
,,,,,,,,,,,,,,,,,,5e2322100e12225cf287f0a4,2020-08-10_17h47.02.919,lexical_decision_task_MP,2020.1.3,Linux armv8l,60,,0,0.447757758,-0.302935702,1,0,0,0.7502,button_right,0.7502,1,,,,,,204,WORD,UN,33,lounge,BURDEN,m,,,,,,0.447757758,-0.302935702,1,0,0,,0,33,33,143,1,
,,,,,,,,,,,,,,,,,,5e2322100e12225cf287f0a4,2020-08-10_17h47.02.919,lexical_decision_task_MP,2020.1.3,Linux armv8l,60,,0,-0.292880253,-0.277970397,1,0,0,0.7312,button_left,0.7312,1,,,,,,245,NW,UN,50,piaton,ANOUGS,z,,,,,,-0.292880253,-0.277970397,1,0,0,,0,34,34,424,1,
,,,,,,,,,,,,,,,,,,5e2322100e12225cf287f0a4,2020-08-10_17h47.02.919,lexical_decision_task_MP,2020.1.3,Linux armv8l,60,,0,0.40707353,-0.301086426,1,0,0,0.7486,button_right,0.7486,1,,,,,,62,WORD,"ID",33,region,REGION,m,,,,,,0.40707353,-0.301086426,1,0,0,,0,35,35,1,1,
,,,,,,,,,,,,,,,,,,5e2322100e12225cf287f0a4,2020-08-10_17h47.02.919,lexical_decision_task_MP,2020.1.3,Linux armv8l,60,,0,-0.300277395,-0.299237149,1,0,0,0.823,button_left,0.823,1,,,,,,350,NW,"ID",33,nagurs,NAGURS,z,,,,,,-0.300277395,-0.299237149,1,0,0,,0,36,36,289,1,
,,,,,,,,,,,,,,,,,,5e2322100e12225cf287f0a4,2020-08-10_17h47.02.919,lexical_decision_task_MP,2020.1.3,Linux armv8l,60,,0,0.379334311,-0.313106796,1,0,0,0.7953,button_right,0.7953,1,,,,,,141,WORD,"ID",50,orphan,ORPHAN,m,,,,,,0.379334311,-0.313106796,1,0,0,,0,37,37,80,1,
,,,,,,,,,,,,,,,,,,5e2322100e12225cf287f0a4,2020-08-10_17h47.02.919,lexical_decision_task_MP,2020.1.3,Linux armv8l,60,,0,0.397827074,-0.315880933,1,0,0,0.7462,button_right,0.7462,1,,,,,,40,WORD,UN,50,spring,CONVEY,m,,,,,,0.397827074,-0.315880933,1,0,0,,0,38,38,219,1,
,,,,,,,,,,,,,,,,,,5e2322100e12225cf287f0a4,2020-08-10_17h47.02.919,lexical_decision_task_MP,2020.1.3,Linux armv8l,60,,0,-0.2984281,-0.28166895,1,0,0,0.9052,button_left,0.9052,1,,,,,,328,NW,"ID",33,broake,BROAKE,z,,,,,,-0.2984281,-0.28166895,1,0,0,,0,39,39,267,1,
,,,,,,,,,,,,,,,,,,5e2322100e12225cf287f0a4,2020-08-10_17h47.02.919,lexical_decision_task_MP,2020.1.3,Linux armv8l,60,,0,0.383032864,-0.29368932,1,0,0,0.7684,button_right,0.7684,1,,,,,,56,WORD,UN,50,change,AMBUSH,m,,,,,,0.383032864,-0.29368932,1,0,0,,0,40,40,235,1,
,,,,,,,,,,,,,,,,,,5e2322100e12225cf287f0a4,2020-08-10_17h47.02.919,lexical_decision_task_MP,2020.1.3,Linux armv8l,60,,0,-0.283633815,-0.288141491,1,0,0,0.8527,button_left,0.8527,1,,,,,,452,NW,UN,33,bolvis,SURDEN,z,,,,,,-0.283633815,-0.288141491,1,0,0,,0,41,41,391,1,
,,,,,,,,,,,,,,,,,,5e2322100e12225cf287f0a4,2020-08-10_17h47.02.919,lexical_decision_task_MP,2020.1.3,Linux armv8l,60,,0,0.418169262,-0.303860414,1,0,0,0.7162,button_right,0.7162,1,,,,,,38,WORD,UN,50,insect,POWDER,m,,,,,,0.418169262,-0.303860414,1,0,0,,0,42,42,217,1,
,,,,,,,,,,,,,,,,,,5e2322100e12225cf287f0a4,2020-08-10_17h47.02.919,lexical_decision_task_MP,2020.1.3,Linux armv8l,60,,0,0.432038835,-0.299237149,1,0,0,0.6808,button_right,0.6808,1,,,,,,107,WORD,"ID",33,slogan,SLOGAN,m,,,,,,0.432038835,-0.299237149,1,0,0,,0,43,43,46,1,
,,,,,,,,,,,,,,,,,,5e2322100e12225cf287f0a4,2020-08-10_17h47.02.919,lexical_decision_task_MP,2020.1.3,Linux armv8l,60,,0,-0.302126672,-0.306634403,1,0,0,0.8688,button_left,0.8688,1,,,,,,441,NW,UN,33,aboune,RASTOE,z,,,,,,-0.302126672,-0.306634403,1,0,0,,0,44,44,380,1,
,,,,,,,,,,,,,,,,,,5e2322100e12225cf287f0a4,2020-08-10_17h47.02.919,lexical_decision_task_MP,2020.1.3,Linux armv8l,60,,0,0.382108225,-0.29368932,1,0,0,1.354,button_right,1.354,1,,,,,,68,WORD,"ID",33,fumble,FUMBLE,m,,,,,,0.382108225,-0.29368932,1,0,0,,0,45,45,7,1,
,,,,,,,,,,,,,,,,,,5e2322100e12225cf287f0a4,2020-08-10_17h47.02.919,lexical_decision_task_MP,2020.1.3,Linux armv8l,60,,0,-0.281784558,-0.288141491,1,0,0,0.8661,button_left,0.8661,1,,,,,,477,NW,UN,33,lobush,PHOTIE,z,,,,,,-0.281784558,-0.288141491,1,0,0,,0,46,46,416,1,
,,,,,,,,,,,,,,,,,,5e2322100e12225cf287f0a4,2020-08-10_17h47.02.919,lexical_decision_task_MP,2020.1.3,Linux armv8l,60,,0,0.396902436,-0.299237149,1,0,0,0.6659,button_right,0.6659,1,,,,,,128,WORD,"ID",50,senior,SENIOR,m,,,,,,0.396902436,-0.299237149,1,0,0,,0,47,47,67,1,
,,,,,,,,,,,,,,,,,,5e2322100e12225cf287f0a4,2020-08-10_17h47.02.919,lexical_decision_task_MP,2020.1.3,Linux armv8l,60,,0,-0.249422092,-0.28166895,1,0,0,0.9207,button_left,0.9207,1,,,,,,422,NW,UN,33,streld,ALCOUD,z,,,,,,-0.249422092,-0.28166895,1,0,0,,0,48,48,361,1,
,,,,,,,,,,,,,,,,,,5e2322100e12225cf287f0a4,2020-08-10_17h47.02.919,lexical_decision_task_MP,2020.1.3,Linux armv8l,60,,0,-0.265140996,-0.305709691,1,0,0,0.8168,button_left,0.8168,1,,,,,,330,NW,"ID",33,kensom,KENSOM,z,,,,,,-0.265140996,-0.305709691,1,0,0,,0,49,49,269,1,
,,,,,,,,,,,,,,,,,,5e2322100e12225cf287f0a4,2020-08-10_17h47.02.919,lexical_decision_task_MP,2020.1.3,Linux armv8l,60,,0,-0.229079978,-0.287216779,1,0,0,0.84,button_left,0.84,1,,,,,,306,NW,"ID",33,sounge,SOUNGE,z,,,,,,-0.229079978,-0.287216779,1,0,0,,0,50,50,245,1,
,,,,,,,,,,,,,,,,,,5e2322100e12225cf287f0a4,2020-08-10_17h47.02.919,lexical_decision_task_MP,2020.1.3,Linux armv8l,60,,0,0.412621359,-0.320503902,1,0,0,0.6943,button_right,0.6943,1,,,,,,237,WORD,UN,33,glance,POSTER,m,,,,,,0.412621359,-0.320503902,1,0,0,,0,51,51,176,1,
,,,,,,,,,,,,,,,,,,5e2322100e12225cf287f0a4,2020-08-10_17h47.02.919,lexical_decision_task_MP,2020.1.3,Linux armv8l,60,,0,0.437586738,-0.31125752,1,0,0,0.7232,button_right,0.7232,1,,,,,,12,WORD,UN,50,strive,ORANGE,m,,,,,,0.437586738,-0.31125752,1,0,0,,0,52,52,191,1,
,,,,,,,,,,,,,,,,,,5e2322100e12225cf287f0a4,2020-08-10_17h47.02.919,lexical_decision_task_MP,2020.1.3,Linux armv8l,60,,0,-0.2984281,-0.265025463,1,0,0,0.8741,button_left,0.8741,1,,,,,,256,NW,UN,50,veniod,INLORS,z,,,,,,-0.2984281,-0.265025463,1,0,0,,0,53,53,435,1,
,,,,,,,,,,,,,,,,,,5e2322100e12225cf287f0a4,2020-08-10_17h47.02.919,lexical_decision_task_MP,2020.1.3,Linux armv8l,60,,0,0.3645401,-0.272422568,1,0,0,0.6992,button_right,0.6992,1,,,,,,160,WORD,"ID",50,violet,VIOLET,m,,,,,,0.3645401,-0.272422568,1,0,0,,0,54,54,99,1,
,,,,,,,,,,,,,,,,,,5e2322100e12225cf287f0a4,2020-08-10_17h47.02.919,lexical_decision_task_MP,2020.1.3,Linux armv8l,60,,0,0.400601063,-0.286292215,1,0,0,0.7318,button_right,0.7318,1,,,,,,169,WORD,"ID",50,genius,GENIUS,m,,,,,,0.400601063,-0.286292215,1,0,0,,0,55,55,108,1,
,,,,,,,,,,,,,,,,,,5e2322100e12225cf287f0a4,2020-08-10_17h47.02.919,lexical_decision_task_MP,2020.1.3,Linux armv8l,60,,0,0.409847445,-0.309408243,1,0,0,0.75,button_right,0.75,1,,,,,,199,WORD,UN,33,plague,INVOKE,m,,,,,,0.409847445,-0.309408243,1,0,0,,0,56,56,138,1,
,,,,,,,,,,,,,,,,,,5e2322100e12225cf287f0a4,2020-08-10_17h47.02.919,lexical_decision_task_MP,2020.1.3,Linux armv8l,60,,0,0.42926492,-0.322353178,1,0,0,0.6324,button_right,0.6324,1,,,,,,137,WORD,"ID",50,finger,FINGER,m,,,,,,0.42926492,-0.322353178,1,0,0,,0,57,57,76,1,
,,,,,,,,,,,,,,,,,,5e2322100e12225cf287f0a4,2020-08-10_17h47.02.919,lexical_decision_task_MP,2020.1.3,Linux armv8l,60,,0,-0.249422092,-0.245607987,1,0,0,0.8028,button_left,0.8028,1,,,,,,327,NW,"ID",33,plenac,PLENAC,z,,,,,,-0.249422092,-0.245607987,1,0,0,,0,58,58,266,1,
,,,,,,,,,,,,,,,,,,5e2322100e12225cf287f0a4,2020-08-10_17h47.02.919,lexical_decision_task_MP,2020.1.3,Linux armv8l,60,,0,0.423717165,-0.345469354,1,0,0,0.702,button_right,0.702,1,,,,,,133,WORD,"ID",50,chrome,CHROME,m,,,,,,0.423717165,-0.345469354,1,0,0,,0,59,59,72,1,
,,,,,,,,,,,,,,,,,,5e2322100e12225cf287f0a4,2020-08-10_17h47.02.919,lexical_decision_task_MP,2020.1.3,Linux armv8l,60,,0,-0.291955615,-0.318654625,1,0,0,0.8688,button_left,0.8688,1,,,,,,249,NW,UN,50,milted,BATROL,z,,,,,,-0.291955615,-0.318654625,1,0,0,,0,60,60,428,1,
,,,,,,,,,,,,,,,,,,5e2322100e12225cf287f0a4,2020-08-10_17h47.02.919,lexical_decision_task_MP,2020.1.3,Linux armv8l,60,,0,-0.266990291,-0.289990768,1,0,0,0.8882,button_left,0.8882,1,,,,,,476,NW,UN,33,photie,JOSTED,z,,,,,,-0.266990291,-0.289990768,1,0,0,,0,61,61,415,1,
,,,,,,,,,,,,,,,,,,5e2322100e12225cf287f0a4,2020-08-10_17h47.02.919,lexical_decision_task_MP,2020.1.3,Linux armv8l,60,,0,-0.246648177,-0.288141491,1,0,0,0.8852,button_left,0.8852,1,,,,,,271,NW,UN,50,damilt,AUBRID,z,,,,,,-0.246648177,-0.288141491,1,0,0,,0,62,62,450,1,
,,,,,,,,,,,,,,,,,,5e2322100e12225cf287f0a4,2020-08-10_17h47.02.919,lexical_decision_task_MP,2020.1.3,Linux armv8l,60,,0,-0.252196025,-0.285367503,1,0,0,1.0327,button_left,1.0327,1,,,,,,268,NW,UN,50,orchet,PACKES,z,,,,,,-0.252196025,-0.285367503,1,0,0,,0,63,63,447,1,
,,,,,,,,,,,,,,,,,,5e2322100e12225cf287f0a4,2020-08-10_17h47.02.919,lexical_decision_task_MP,2020.1.3,Linux armv8l,60,,0,0.412621359,-0.297387873,1,0,0,0.6334,button_right,0.6334,1,,,,,,71,WORD,"ID",33,garden,GARDEN,m,,,,,,0.412621359,-0.297387873,1,0,0,,0,64,64,10,1,
,,,,,,,,,,,,,,,,,,5e2322100e12225cf287f0a4,2020-08-10_17h47.02.919,lexical_decision_task_MP,2020.1.3,Linux armv8l,60,,0,0.37748496,-0.289990768,1,0,0,0.7952,button_right,0.7952,1,,,,,,189,WORD,UN,33,backup,CENSOR,m,,,,,,0.37748496,-0.289990768,1,0,0,,0,65,65,128,1,
,,,,,,,,,,,,,,,,,,5e2322100e12225cf287f0a4,2020-08-10_17h47.02.919,lexical_decision_task_MP,2020.1.3,Linux armv8l,60,,0,-0.297503462,-0.29368932,1,0,0,0.8669,button_left,0.8669,1,,,,,,430,NW,UN,33,chrums,CAROEY,z,,,,,,-0.297503462,-0.29368932,1,0,0,,0,66,66,369,1,
,,,,,,,,,,,,,,,,,,5e2322100e12225cf287f0a4,2020-08-10_17h47.02.919,lexical_decision_task_MP,2020.1.3,Linux armv8l,60,,0,-0.279010606,-0.314956072,1,0,0,1.0392,button_left,1.0392,1,,,,,,307,NW,"ID",33,kirafe,KIRAFE,z,,,,,,-0.279010606,-0.314956072,1,0,0,,0,67,67,246,1,
,,,,,,,,,,,,,,,,,,5e2322100e12225cf287f0a4,2020-08-10_17h47.02.919,lexical_decision_task_MP,2020.1.3,Linux armv8l,60,,0,-0.273462777,-0.284442939,1,0,0,0.9646,button_left,0.9646,1,,,,,,402,NW,"ID",50,syntic,SYNTIC,z,,,,,,-0.273462777,-0.284442939,1,0,0,,0,68,68,341,1,
,,,,,,,,,,,,,,,,,,5e2322100e12225cf287f0a4,2020-08-10_17h47.02.919,lexical_decision_task_MP,2020.1.3,Linux armv8l,60,,0,0.385806778,-0.307558967,1,0,0,0.6471,button_right,0.6471,1,,,,,,88,WORD,"ID",33,hunger,HUNGER,m,,,,,,0.385806778,-0.307558967,1,0,0,,0,69,69,27,1,
,,,,,,,,,,,,,,,,,,5e2322100e12225cf287f0a4,2020-08-10_17h47.02.919,lexical_decision_task_MP,2020.1.3,Linux armv8l,60,,0,0.391354607,-0.313106796,1,0,0,0.7492,button_right,0.7492,1,,,,,,111,WORD,"ID",33,induce,INDUCE,m,,,,,,0.391354607,-0.313106796,1,0,0,,0,70,70,50,1,
,,,,,,,,,,,,,,,,,,5e2322100e12225cf287f0a4,2020-08-10_17h47.02.919,lexical_decision_task_MP,2020.1.3,Linux armv8l,60,,0,0.406148892,-0.309408243,1,0,0,0.6602,button_right,0.6602,1,,,,,,129,WORD,"ID",50,marvel,MARVEL,m,,,,,,0.406148892,-0.309408243,1,0,0,,0,71,71,68,1,
,,,,,,,,,,,,,,,,,,5e2322100e12225cf287f0a4,2020-08-10_17h47.02.919,lexical_decision_task_MP,2020.1.3,Linux armv8l,60,,0,0.397827074,-0.29368932,1,0,0,0.9119,button_right,0.9119,1,,,,,,59,WORD,UN,50,pencil,SPLINT,m,,,,,,0.397827074,-0.29368932,1,0,0,,0,72,72,238,1,
,,,,,,,,,,,,,,,,,,5e2322100e12225cf287f0a4,2020-08-10_17h47.02.919,lexical_decision_task_MP,2020.1.3,Linux armv8l,60,,0,-0.347434118,-0.269648728,1,0,0,0.8729,button_left,0.8729,1,,,,,,315,NW,"ID",33,laston,LASTON,z,,,,,,-0.347434118,-0.269648728,1,0,0,,0,73,73,254,1,
,,,,,,,,,,,,,,,,,,5e2322100e12225cf287f0a4,2020-08-10_17h47.02.919,lexical_decision_task_MP,2020.1.3,Linux armv8l,60,,0,-0.317845576,-0.309408243,1,0,0,0.8515,button_left,0.8515,1,,,,,,393,NW,"ID",50,ganous,GANOUS,z,,,,,,-0.317845576,-0.309408243,1,0,0,,0,74,74,332,1,
,,,,,,,,,,,,,,,,,,5e2322100e12225cf287f0a4,2020-08-10_17h47.02.919,lexical_decision_task_MP,2020.1.3,Linux armv8l,60,,0,0.395977798,-0.304784978,1,0,0,0.7621,button_right,0.7621,1,,,,,,79,WORD,"ID",33,theory,THEORY,m,,,,,,0.395977798,-0.304784978,1,0,0,,0,75,75,18,1,
,,,,,,,,,,,,,,,,,,5e2322100e12225cf287f0a4,2020-08-10_17h47.02.919,lexical_decision_task_MP,2020.1.3,Linux armv8l,60,,0,0.381183587,-0.314956072,1,0,0,0.7188,button_right,0.7188,1,,,,,,146,WORD,"ID",50,couple,COUPLE,m,,,,,,0.381183587,-0.314956072,1,0,0,,0,76,76,85,1,
,,,,,,,,,,,,,,,,,,5e2322100e12225cf287f0a4,2020-08-10_17h47.02.919,lexical_decision_task_MP,2020.1.3,Linux armv8l,60,,0,0.407998168,-0.312182232,1,0,0,0.6554,button_right,0.6554,1,,,,,,97,WORD,"ID",33,client,CLIENT,m,,,,,,0.407998168,-0.312182232,1,0,0,,0,77,77,36,1,
,,,,,,,,,,,,,,,,,,5e2322100e12225cf287f0a4,2020-08-10_17h47.02.919,lexical_decision_task_MP,2020.1.3,Linux armv8l,60,,0,-0.242949606,-0.269648728,1,0,0,0.9021,button_left,0.9021,1,,,,,,397,NW,"ID",50,camble,CAMBLE,z,,,,,,-0.242949606,-0.269648728,1,0,0,,0,78,78,336,1,
,,,,,,,,,,,,,,,,,,5e2322100e12225cf287f0a4,2020-08-10_17h47.02.919,lexical_decision_task_MP,2020.1.3,Linux armv8l,60,,0,0.412621359,-0.305709691,1,0,0,0.7197,button_right,0.7197,1,,,,,,60,WORD,UN,50,fright,PENCIL,m,,,,,,0.412621359,-0.305709691,1,0,0,,0,79,79,239,1,
,,,,,,,,,,,,,,,,,,5e2322100e12225cf287f0a4,2020-08-10_17h47.02.919,lexical_decision_task_MP,2020.1.3,Linux armv8l,60,,0,-0.287332405,-0.320503902,1,0,0,0.9514,button_left,0.9514,1,,,,,,385,NW,"ID",50,veigma,VEIGMA,z,,,,,,-0.287332405,-0.320503902,1,0,0,,0,80,80,324,1,
,,,,,,,,,,,,,,,,,,5e2322100e12225cf287f0a4,2020-08-10_17h47.02.919,lexical_decision_task_MP,2020.1.3,Linux armv8l,60,,0,0.385806778,-0.301086426,1,0,0,0.7666,button_right,0.7666,1,,,,,,102,WORD,"ID",33,direct,DIRECT,m,,,,,,0.385806778,-0.301086426,1,0,0,,0,81,81,41,1,
,,,,,,,,,,,,,,,,,,5e2322100e12225cf287f0a4,2020-08-10_17h47.02.919,lexical_decision_task_MP,2020.1.3,Linux armv8l,60,,0,-0.278085986,-0.279819674,1,0,0,0.8333,button_left,0.8333,1,,,,,,401,NW,"ID",50,mustil,MUSTIL,z,,,,,,-0.278085986,-0.279819674,1,0,0,,0,82,82,340,1,
,,,,,,,,,,,,,,,,,,5e2322100e12225cf287f0a4,2020-08-10_17h47.02.919,lexical_decision_task_MP,2020.1.3,Linux armv8l,60,,0,-0.309523814,-0.304784978,1,0,0,0.8658,button_left,0.8658,1,,,,,,241,NW,UN,50,unwert,SMENCO,z,,,,,,-0.309523814,-0.304784978,1,0,0,,0,83,83,420,1,
,,,,,,,,,,,,,,,,,,5e2322100e12225cf287f0a4,2020-08-10_17h47.02.919,lexical_decision_task_MP,2020.1.3,Linux armv8l,60,,0,0.376560322,-0.289066204,1,0,0,0.7714,button_right,0.7714,1,,,,,,106,WORD,"ID",33,ransom,RANSOM,m,,,,,,0.376560322,-0.289066204,1,0,0,,0,84,84,45,1,
,,,,,,,,,,,,,,,,,,5e2322100e12225cf287f0a4,2020-08-10_17h47.02.919,lexical_decision_task_MP,2020.1.3,Linux armv8l,60,,0,0.402450339,-0.309408243,1,0,0,0.7012,button_right,0.7012,1,,,,,,77,WORD,"ID",33,racket,RACKET,m,,,,,,0.402450339,-0.309408243,1,0,0,,0,85,85,16,1,
,,,,,,,,,,,,,,,,,,5e2322100e12225cf287f0a4,2020-08-10_17h47.02.919,lexical_decision_task_MP,2020.1.3,Linux armv8l,60,,0,-0.292880253,-0.277970397,1,0,0,0.8008,button_left,0.8008,1,,,,,,354,NW,"ID",33,virlex,VIRLEX,z,,,,,,-0.292880253,-0.277970397,1,0,0,,0,86,86,293,1,
,,,,,,,,,,,,,,,,,,5e2322100e12225cf287f0a4,2020-08-10_17h47.02.919,lexical_decision_task_MP,2020.1.3,Linux armv8l,60,,0,-0.303051291,-0.301086426,1,0,0,1.0523,button_left,1.0523,1,,,,,,387,NW,"ID",50,gronce,GRONCE,z,,,,,,-0.303051291,-0.301086426,1,0,0,,0,87,87,326,1,
,,,,,,,,,,,,,,,,,,5e2322100e12225cf287f0a4,2020-08-10_17h47.02.919,lexical_decision_task_MP,2020.1.3,Linux armv8l,60,,0,-0.291030976,-0.289990768,1,0,0,0.8872,button_left,0.8872,1,,,,,,462,NW,UN,33,kispel,ABSULT,z,,,,,,-0.291030976,-0.289990768,1,0,0,,0,88,88,401,1,
,,,,,,,,,,,,,,,,,,5e2322100e12225cf287f0a4,2020-08-10_17h47.02.919,lexical_decision_task_MP,2020.1.3,Linux armv8l,60,,0,-0.323393424,-0.31125752,1,0,0,0.8175,button_left,0.8175,1,,,,,,380,NW,"ID",50,cavory,CAVORY,z,,,,,,-0.323393424,-0.31125752,1,0,0,,0,89,89,319,1,
,,,,,,,,,,,,,,,,,,5e2322100e12225cf287f0a4,2020-08-10_17h47.02.919,lexical_decision_task_MP,2020.1.3,Linux armv8l,60,,0,-0.308599157,-0.277970397,1,0,0,0.834,button_left,0.834,1,,,,,,274,NW,UN,50,sleirt,FUMBLO,z,,,,,,-0.308599157,-0.277970397,1,0,0,,0,90,90,453,1,
,,,,,,,,,,,,,,,,,,5e2322100e12225cf287f0a4,2020-08-10_17h47.02.919,lexical_decision_task_MP,2020.1.3,Linux armv8l,60,,0,-0.309523814,-0.302935702,1,0,0,0.9761,button_left,0.9761,1,,,,,,398,NW,"ID",50,blunde,BLUNDE,z,,,,,,-0.309523814,-0.302935702,1,0,0,,0,91,91,337,1,
,,,,,,,,,,,,,,,,,,5e2322100e12225cf287f0a4,2020-08-10_17h47.02.919,lexical_decision_task_MP,2020.1.3,Linux armv8l,60,,0,-0.289181682,-0.287216779,1,0,0,0.8916,button_left,0.8916,1,,,,,,446,NW,UN,33,gircue,RUNAMO,z,,,,,,-0.289181682,-0.287216779,1,0,0,,0,92,92,385,1,
,,,,,,,,,,,,,,,,,,5e2322100e12225cf287f0a4,2020-08-10_17h47.02.919,lexical_decision_task_MP,2020.1.3,Linux armv8l,60,,0,-0.302126672,-0.29368932,1,0,0,0.7881,button_left,0.7881,1,,,,,,421,NW,UN,33,alcoud,KNISMA,z,,,,,,-0.302126672,-0.29368932,1,0,0,,0,93,93,360,1,
,,,,,,,,,,,,,,,,,,5e2322100e12225cf287f0a4,2020-08-10_17h47.02.919,lexical_decision_task_MP,2020.1.3,Linux armv8l,60,,0,0.371012493,-0.304784978,1,0,0,0.6839,button_right,0.6839,1,,,,,,219,WORD,UN,33,voyage,BUCKET,m,,,,,,0.371012493,-0.304784978,1,0,0,,0,94,94,158,1,
,,,,,,,,,,,,,,,,,,5e2322100e12225cf287f0a4,2020-08-10_17h47.02.919,lexical_decision_task_MP,2020.1.3,Linux armv8l,60,,0,-0.332639842,-0.283518226,1,0,0,0.8841,button_left,0.8841,1,,,,,,465,NW,UN,33,bafent,WHIVEX,z,,,,,,-0.332639842,-0.283518226,1,0,0,,0,95,95,404,1,
,,,,,,,,,,,,,,,,,,5e2322100e12225cf287f0a4,2020-08-10_17h47.02.919,lexical_decision_task_MP,2020.1.3,Linux armv8l,60,,0,-0.321544147,-0.296463309,1,0,0,0.7667,button_left,0.7667,1,,,,,,394,NW,"ID",50,spaqux,SPAQUX,z,,,,,,-0.321544147,-0.296463309,1,0,0,,0,96,96,333,1,
,,,,,,,,,,,,,,,,,,5e2322100e12225cf287f0a4,2020-08-10_17h47.02.919,lexical_decision_task_MP,2020.1.3,Linux armv8l,60,,0,-0.292880253,-0.295538597,1,0,0,0.7543,button_left,0.7543,1,,,,,,251,NW,UN,50,stapod,LUPICT,z,,,,,,-0.292880253,-0.295538597,1,0,0,,0,97,97,430,1,
,,,,,,,,,,,,,,,,,,5e2322100e12225cf287f0a4,2020-08-10_17h47.02.919,lexical_decision_task_MP,2020.1.3,Linux armv8l,60,,0,0.39505316,-0.297387873,1,0,0,0.6828,button_right,0.6828,1,,,,,,80,WORD,"ID",33,family,FAMILY,m,,,,,,0.39505316,-0.297387873,1,0,0,,0,98,98,19,1,
,,,,,,,,,,,,,,,,,,5e2322100e12225cf287f0a4,2020-08-10_17h47.02.919,lexical_decision_task_MP,2020.1.3,Linux armv8l,60,,0,0.407998168,-0.296463309,1,0,0,0.7011,button_right,0.7011,1,,,,,,48,WORD,UN,50,survey,WALNUT,m,,,,,,0.407998168,-0.296463309,1,0,0,,0,99,99,227,1,
,,,,,,,,,,,,,,,,,,5e2322100e12225cf287f0a4,2020-08-10_17h47.02.919,lexical_decision_task_MP,2020.1.3,Linux armv8l,60,,0,-0.279010606,-0.255779081,1,0,0,0.942,button_left,0.942,1,,,,,,313,NW,"ID",33,paurse,PAURSE,z,,,,,,-0.279010606,-0.255779081,1,0,0,,0,100,100,252,1,
,,,,,,,,,,,,,,,,,,5e2322100e12225cf287f0a4,2020-08-10_17h47.02.919,lexical_decision_task_MP,2020.1.3,Linux armv8l,60,,0,0.383032864,-0.302011138,1,0,0,0.6928,button_right,0.6928,1,,,,,,240,WORD,UN,33,seldom,FOREST,m,,,,,,0.383032864,-0.302011138,1,0,0,,0,101,101,179,1,
,,,,,,,,,,,,,,,,,,5e2322100e12225cf287f0a4,2020-08-10_17h47.02.919,lexical_decision_task_MP,2020.1.3,Linux armv8l,60,,0,-0.301202033,-0.279819674,1,0,0,0.8043,button_left,0.8043,1,,,,,,404,NW,"ID",50,cluirm,CLUIRM,z,,,,,,-0.301202033,-0.279819674,1,0,0,,0,102,102,343,1,
,,,,,,,,,,,,,,,,,,5e2322100e12225cf287f0a4,2020-08-10_17h47.02.919,lexical_decision_task_MP,2020.1.3,Linux armv8l,60,,0,-0.332639842,-0.312182232,1,0,0,0.834,button_left,0.834,1,,,,,,374,NW,"ID",50,sliant,SLIANT,z,,,,,,-0.332639842,-0.312182232,1,0,0,,0,103,103,313,1,
,,,,,,,,,,,,,,,,,,5e2322100e12225cf287f0a4,2020-08-10_17h47.02.919,lexical_decision_task_MP,2020.1.3,Linux armv8l,60,,0,0.40707353,-0.306634403,1,0,0,0.7466,button_right,0.7466,1,,,,,,188,WORD,UN,33,censor,SOCIAL,m,,,,,,0.40707353,-0.306634403,1,0,0,,0,104,104,127,1,
,,,,,,,,,,,,,,,,,,5e2322100e12225cf287f0a4,2020-08-10_17h47.02.919,lexical_decision_task_MP,2020.1.3,Linux armv8l,60,,0,-0.315071661,-0.315880933,1,0,0,0.7349,button_left,0.7349,1,,,,,,389,NW,"ID",50,witmer,WITMER,z,,,,,,-0.315071661,-0.315880933,1,0,0,,0,105,105,328,1,
,,,,,,,,,,,,,,,,,,5e2322100e12225cf287f0a4,2020-08-10_17h47.02.919,lexical_decision_task_MP,2020.1.3,Linux armv8l,60,,0,-0.295654186,-0.314031508,1,0,0,0.767,button_left,0.767,1,,,,,,399,NW,"ID",50,fouret,FOURET,z,,,,,,-0.295654186,-0.314031508,1,0,0,,0,106,106,338,1,
,,,,,,,,,,,,,,,,,,5e2322100e12225cf287f0a4,2020-08-10_17h47.02.919,lexical_decision_task_MP,2020.1.3,Linux armv8l,60,,0,-0.307674519,-0.299237149,1,0,0,0.7679,button_left,0.7679,1,,,,,,448,NW,UN,33,brunge,SADENT,z,,,,,,-0.307674519,-0.299237149,1,0,0,,0,107,107,387,1,
,,,,,,,,,,,,,,,,,,5e2322100e12225cf287f0a4,2020-08-10_17h47.02.919,lexical_decision_task_MP,2020.1.3,Linux armv8l,60,,0,-0.26329172,-0.306634403,1,0,0,0.8176,button_left,0.8176,1,,,,,,438,NW,UN,33,limpor,BAITCH,z,,,,,,-0.26329172,-0.306634403,1,0,0,,0,108,108,377,1,
,,,,,,,,,,,,,,,,,,5e2322100e12225cf287f0a4,2020-08-10_17h47.02.919,lexical_decision_task_MP,2020.1.3,Linux armv8l,60,,0,-0.219833559,-0.288141491,1,0,0,0.7999,button_left,0.7999,1,,,,,,403,NW,"ID",50,bruats,BRUATS,z,,,,,,-0.219833559,-0.288141491,1,0,0,,0,109,109,342,1,
,,,,,,,,,,,,,,,,,,5e2322100e12225cf287f0a4,2020-08-10_17h47.02.919,lexical_decision_task_MP,2020.1.3,Linux armv8l,60,,0,0.36269075,-0.259477634,1,0,0,0.7035,button_right,0.7035,1,,,,,,103,WORD,"ID",33,bounce,BOUNCE,m,,,,,,0.36269075,-0.259477634,1,0,0,,0,110,110,42,1,
,,,,,,,,,,,,,,,,,,5e2322100e12225cf287f0a4,2020-08-10_17h47.02.919,lexical_decision_task_MP,2020.1.3,Linux armv8l,60,,0,-0.232778549,-0.252080528,1,0,0,0.7333,button_left,0.7333,1,,,,,,427,NW,UN,33,tandly,SCHIND,z,,,,,,-0.232778549,-0.252080528,1,0,0,,0,111,111,366,1,
,,,,,,,,,,,,,,,,,,5e2322100e12225cf287f0a4,2020-08-10_17h47.02.919,lexical_decision_task_MP,2020.1.3,Linux armv8l,60,,0,-0.2984281,-0.301086426,1,0,0,0.9188,button_left,0.9188,1,,,,,,468,NW,UN,33,padifs,WICTOR,z,,,,,,-0.2984281,-0.301086426,1,0,0,,0,112,112,407,1,
,,,,,,,,,,,,,,,,,,5e2322100e12225cf287f0a4,2020-08-10_17h47.02.919,lexical_decision_task_MP,2020.1.3,Linux armv8l,60,,0,0.344197912,-0.286292215,1,0,0,0.6838,button_right,0.6838,1,,,,,,47,WORD,UN,50,walnut,INCOME,m,,,,,,0.344197912,-0.286292215,1,0,0,,0,113,113,226,1,
,,,,,,,,,,,,,,,,,,5e2322100e12225cf287f0a4,2020-08-10_17h47.02.919,lexical_decision_task_MP,2020.1.3,Linux armv8l,60,,0,-0.295654186,-0.316805349,1,0,0,0.854,button_left,0.854,1,,,,,,348,NW,"ID",33,dumple,DUMPLE,z,,,,,,-0.295654186,-0.316805349,1,0,0,,0,114,114,287,1,
,,,,,,,,,,,,,,,,,,5e2322100e12225cf287f0a4,2020-08-10_17h47.02.919,lexical_decision_task_MP,2020.1.3,Linux armv8l,60,,0,0.409847445,-0.296463309,1,0,0,0.8666,button_right,0.8666,1,,,,,,4,WORD,UN,50,plunge,TRENCH,m,,,,,,0.409847445,-0.296463309,1,0,0,,0,115,115,183,1,
,,,,,,,,,,,,,,,,,,5e2322100e12225cf287f0a4,2020-08-10_17h47.02.919,lexical_decision_task_MP,2020.1.3,Linux armv8l,60,,0,0.395977798,-0.301086426,1,0,0,0.7321,button_right,0.7321,1,,,,,,197,WORD,UN,33,wicked,STREAM,m,,,,,,0.395977798,-0.301086426,1,0,0,,0,116,116,136,1,
,,,,,,,,,,,,,,,,,,5e2322100e12225cf287f0a4,2020-08-10_17h47.02.919,lexical_decision_task_MP,2020.1.3,Linux armv8l,60,,0,0.379334311,-0.296463309,1,0,0,0.7595,button_right,0.7595,1,,,,,,113,WORD,"ID",33,chorus,CHORUS,m,,,,,,0.379334311,-0.296463309,1,0,0,,0,117,117,52,1,
,,,,,,,,,,,,,,,,,,5e2322100e12225cf287f0a4,2020-08-10_17h47.02.919,lexical_decision_task_MP,2020.1.3,Linux armv8l,60,,0,0.387656054,-0.31125752,1,0,0,0.737,button_right,0.737,1,,,,,,121,WORD,"ID",50,thrive,THRIVE,m,,,,,,0.387656054,-0.31125752,1,0,0,,0,118,118,60,1,
,,,,,,,,,,,,,,,,,,5e2322100e12225cf287f0a4,2020-08-10_17h47.02.919,lexical_decision_task_MP,2020.1.3,Linux armv8l,60,,0,-0.271613501,-0.289066204,1,0,0,0.8033,button_left,0.8033,1,,,,,,333,NW,"ID",33,catrie,CATRIE,z,,,,,,-0.271613501,-0.289066204,1,0,0,,0,119,119,272,1,
,,,,,,,,,,,,,,,,,,5e2322100e12225cf287f0a4,2020-08-10_17h47.02.919,lexical_decision_task_MP,2020.1.3,Linux armv8l,60,,0,-0.271613501,-0.307558967,1,0,0,0.7748,button_left,0.7748,1,,,,,,424,NW,UN,33,frudge,PRAILE,z,,,,,,0.096393919,-0.367660671,1,0,0,,0,120,120,363,1,break_done_button
,,,,,,,,,,,,,,,,,,5e2322100e12225cf287f0a4,2020-08-10_17h47.02.919,lexical_decision_task_MP,2020.1.3,Linux armv8l,60,,0,0.370087855,-0.309408243,1,0,0,0.8363,button_right,0.8363,1,,,,,,35,WORD,UN,50,vanish,SOCKET,m,,,,,,0.370087855,-0.309408243,1,0,0,,0,121,121,214,1,
,,,,,,,,,,,,,,,,,,5e2322100e12225cf287f0a4,2020-08-10_17h47.02.919,lexical_decision_task_MP,2020.1.3,Linux armv8l,60,,0,-0.327091995,-0.324202454,1,0,0,0.8467,button_left,0.8467,1,,,,,,458,NW,UN,33,hocite,BARCET,z,,,,,,-0.327091995,-0.324202454,1,0,0,,0,122,122,397,1,
,,,,,,,,,,,,,,,,,,5e2322100e12225cf287f0a4,2020-08-10_17h47.02.919,lexical_decision_task_MP,2020.1.3,Linux armv8l,60,,0,0.353444294,-0.265950027,1,0,0,0.7201,button_right,0.7201,1,,,,,,30,WORD,UN,50,weapon,ORIENT,m,,,,,,0.353444294,-0.265950027,1,0,0,,0,123,123,209,1,
,,,,,,,,,,,,,,,,,,5e2322100e12225cf287f0a4,2020-08-10_17h47.02.919,lexical_decision_task_MP,2020.1.3,Linux armv8l,60,,0,-0.355755889,-0.310332956,1,0,0,0.8774,button_left,0.8774,1,,,,,,469,NW,UN,33,crudio,PADIFS,z,,,,,,-0.355755889,-0.310332956,1,0,0,,0,124,124,408,1,
,,,,,,,,,,,,,,,,,,5e2322100e12225cf287f0a4,2020-08-10_17h47.02.919,lexical_decision_task_MP,2020.1.3,Linux armv8l,60,,0,-0.265140996,-0.297387873,1,0,0,1.403,button_left,1.403,1,,,,,,345,NW,"ID",33,absend,ABSEND,z,,,,,,-0.265140996,-0.297387873,1,0,0,,0,125,125,284,1,
,,,,,,,,,,,,,,,,,,5e2322100e12225cf287f0a4,2020-08-10_17h47.02.919,lexical_decision_task_MP,2020.1.3,Linux armv8l,60,,0,0.309061513,-0.29091548,1,0,0,0.7384,button_right,0.7384,1,,,,,,157,WORD,"ID",50,dragon,DRAGON,m,,,,,,0.309061513,-0.29091548,1,0,0,,0,126,126,96,1,
,,,,,,,,,,,,,,,,,,5e2322100e12225cf287f0a4,2020-08-10_17h47.02.919,lexical_decision_task_MP,2020.1.3,Linux armv8l,60,,0,0.358067485,-0.27889511,1,0,0,0.6517,button_right,0.6517,1,,,,,,11,WORD,UN,50,amount,CRUISE,m,,,,,,0.358067485,-0.27889511,1,0,0,,0,127,127,190,1,
,,,,,,,,,,,,,,,,,,5e2322100e12225cf287f0a4,2020-08-10_17h47.02.919,lexical_decision_task_MP,2020.1.3,Linux armv8l,60,,0,-0.3159963,-0.321428614,1,0,0,0.9869,button_left,0.9869,1,,,,,,425,NW,UN,33,urivel,FRUDGE,z,,,,,,-0.3159963,-0.321428614,1,0,0,,0,128,128,364,1,
,,,,,,,,,,,,,,,,,,5e2322100e12225cf287f0a4,2020-08-10_17h47.02.919,lexical_decision_task_MP,2020.1.3,Linux armv8l,60,,0,-0.318770214,-0.316805349,1,0,0,0.8836,button_left,0.8836,1,,,,,,293,NW,UN,50,inhort,SWANCE,z,,,,,,-0.318770214,-0.316805349,1,0,0,,0,129,129,472,1,
,,,,,,,,,,,,,,,,,,5e2322100e12225cf287f0a4,2020-08-10_17h47.02.919,lexical_decision_task_MP,2020.1.3,Linux armv8l,60,,0,-0.26329172,-0.299237149,1,0,0,0.9593,button_left,0.9593,1,,,,,,342,NW,"ID",33,randow,RANDOW,z,,,,,,-0.26329172,-0.299237149,1,0,0,,0,130,130,281,1,
,,,,,,,,,,,,,,,,,,5e2322100e12225cf287f0a4,2020-08-10_17h47.02.919,lexical_decision_task_MP,2020.1.3,Linux armv8l,60,,0,-0.286407767,-0.300161862,1,0,0,0.7823,button_left,0.7823,1,,,,,,289,NW,UN,50,splino,STARBY,z,,,,,,-0.286407767,-0.300161862,1,0,0,,0,131,131,468,1,
,,,,,,,,,,,,,,,,,,5e2322100e12225cf287f0a4,2020-08-10_17h47.02.919,lexical_decision_task_MP,2020.1.3,Linux armv8l,60,,0,0.346047263,-0.244683275,1,0,0,0.7686,button_right,0.7686,1,,,,,,239,WORD,UN,33,forest,LUMBER,m,,,,,,0.346047263,-0.244683275,1,0,0,,0,132,132,178,1,
,,,,,,,,,,,,,,,,,,5e2322100e12225cf287f0a4,2020-08-10_17h47.02.919,lexical_decision_task_MP,2020.1.3,Linux armv8l,60,,0,0.340499285,-0.266874739,1,0,0,0.7193,button_right,0.7193,1,,,,,,20,WORD,UN,50,simple,BREAST,m,,,,,,0.340499285,-0.266874739,1,0,0,,0,133,133,199,1,
,,,,,,,,,,,,,,,,,,5e2322100e12225cf287f0a4,2020-08-10_17h47.02.919,lexical_decision_task_MP,2020.1.3,Linux armv8l,60,,0,0.352519656,-0.277045833,1,0,0,0.736,button_right,0.736,1,,,,,,132,WORD,"ID",50,strong,STRONG,m,,,,,,0.352519656,-0.277045833,1,0,0,,0,134,134,71,1,
,,,,,,,,,,,,,,,,,,5e2322100e12225cf287f0a4,2020-08-10_17h47.02.919,lexical_decision_task_MP,2020.1.3,Linux armv8l,60,,0,-0.275312053,-0.286292215,1,0,0,0.8533,button_left,0.8533,1,,,,,,418,NW,"ID",50,suidle,SUIDLE,z,,,,,,-0.275312053,-0.286292215,1,0,0,,0,135,135,357,1,
,,,,,,,,,,,,,,,,,,5e2322100e12225cf287f0a4,2020-08-10_17h47.02.919,lexical_decision_task_MP,2020.1.3,Linux armv8l,60,,0,0.34512255,-0.297387873,1,0,0,0.8187,button_right,0.8187,1,,,,,,81,WORD,"ID",33,friend,FRIEND,m,,,,,,0.34512255,-0.297387873,1,0,0,,0,136,136,20,1,
,,,,,,,,,,,,,,,,,,5e2322100e12225cf287f0a4,2020-08-10_17h47.02.919,lexical_decision_task_MP,2020.1.3,Linux armv8l,60,,0,-0.319694871,-0.303860414,1,0,0,0.8045,button_left,0.8045,1,,,,,,300,NW,UN,50,smenco,YARION,z,,,,,,-0.319694871,-0.303860414,1,0,0,,0,137,137,479,1,
,,,,,,,,,,,,,,,,,,5e2322100e12225cf287f0a4,2020-08-10_17h47.02.919,lexical_decision_task_MP,2020.1.3,Linux armv8l,60,,0,-0.312297728,-0.314956072,1,0,0,0.7334,button_left,0.7334,1,,,,,,273,NW,UN,50,fumblo,SORTEL,z,,,,,,-0.312297728,-0.314956072,1,0,0,,0,138,138,452,1,
,,,,,,,,,,,,,,,,,,5e2322100e12225cf287f0a4,2020-08-10_17h47.02.919,lexical_decision_task_MP,2020.1.3,Linux armv8l,60,,0,-0.26329172,-0.282593662,1,0,0,0.8694,button_left,0.8694,1,,,,,,301,NW,"ID",33,fainch,FAINCH,z,,,,,,-0.26329172,-0.282593662,1,0,0,,0,139,139,240,1,
,,,,,,,,,,,,,,,,,,5e2322100e12225cf287f0a4,2020-08-10_17h47.02.919,lexical_decision_task_MP,2020.1.3,Linux armv8l,60,,0,-0.293804891,-0.31125752,1,0,0,0.8021,button_left,0.8021,1,,,,,,253,NW,UN,50,varosh,RESAIT,z,,,,,,-0.293804891,-0.31125752,1,0,0,,0,140,140,432,1,
,,,,,,,,,,,,,,,,,,5e2322100e12225cf287f0a4,2020-08-10_17h47.02.919,lexical_decision_task_MP,2020.1.3,Linux armv8l,60,,0,0.367313941,-0.265025463,1,0,0,0.7353,button_right,0.7353,1,,,,,,91,WORD,"ID",33,expand,EXPAND,m,,,,,,0.367313941,-0.265025463,1,0,0,,0,141,141,30,1,
,,,,,,,,,,,,,,,,,,5e2322100e12225cf287f0a4,2020-08-10_17h47.02.919,lexical_decision_task_MP,2020.1.3,Linux armv8l,60,,0,-0.303051291,-0.288141491,1,0,0,0.8575,button_left,0.8575,1,,,,,,416,NW,"ID",50,pathel,PATHEL,z,,,,,,-0.303051291,-0.288141491,1,0,0,,0,142,142,355,1,
,,,,,,,,,,,,,,,,,,5e2322100e12225cf287f0a4,2020-08-10_17h47.02.919,lexical_decision_task_MP,2020.1.3,Linux armv8l,60,,0,-0.307674519,-0.316805349,1,0,0,0.8511,button_left,0.8511,1,,,,,,284,NW,UN,50,prudge,SHAPLE,z,,,,,,-0.307674519,-0.316805349,1,0,0,,0,143,143,463,1,
,,,,,,,,,,,,,,,,,,5e2322100e12225cf287f0a4,2020-08-10_17h47.02.919,lexical_decision_task_MP,2020.1.3,Linux armv8l,60,,0,-0.302126672,-0.319579337,1,0,0,0.7825,button_left,0.7825,1,,,,,,451,NW,UN,33,surden,CAINKY,z,,,,,,-0.302126672,-0.319579337,1,0,0,,0,144,144,390,1,
,,,,,,,,,,,,,,,,,,5e2322100e12225cf287f0a4,2020-08-10_17h47.02.919,lexical_decision_task_MP,2020.1.3,Linux armv8l,60,,0,-0.338187708,-0.332524272,1,0,0,0.7906,button_left,0.7906,1,,,,,,263,NW,UN,50,vackel,DOLICA,z,,,,,,-0.338187708,-0.332524272,1,0,0,,0,145,145,442,1,
,,,,,,,,,,,,,,,,,,5e2322100e12225cf287f0a4,2020-08-10_17h47.02.919,lexical_decision_task_MP,2020.1.3,Linux armv8l,60,,0,-0.295654186,-0.302935702,1,0,0,0.8026,button_left,0.8026,1,,,,,,351,NW,"ID",33,tiesch,TIESCH,z,,,,,,-0.295654186,-0.302935702,1,0,0,,0,146,146,290,1,
,,,,,,,,,,,,,,,,,,5e2322100e12225cf287f0a4,2020-08-10_17h47.02.919,lexical_decision_task_MP,2020.1.3,Linux armv8l,60,,0,-0.26421634,-0.299237149,1,0,0,0.8411,button_left,0.8411,1,,,,,,437,NW,UN,33,baitch,SNAPEL,z,,,,,,-0.26421634,-0.299237149,1,0,0,,0,147,147,376,1,
,,,,,,,,,,,,,,,,,,5e2322100e12225cf287f0a4,2020-08-10_17h47.02.919,lexical_decision_task_MP,2020.1.3,Linux armv8l,60,,0,-0.2984281,-0.302935702,1,0,0,0.8323,button_left,0.8323,1,,,,,,475,NW,UN,33,josted,PEBRIC,z,,,,,,-0.2984281,-0.302935702,1,0,0,,0,148,148,414,1,
,,,,,,,,,,,,,,,,,,5e2322100e12225cf287f0a4,2020-08-10_17h47.02.919,lexical_decision_task_MP,2020.1.3,Linux armv8l,60,,0,0.336800733,-0.258552922,1,0,0,0.7102,button_right,0.7102,1,,,,,,209,WORD,UN,33,monkey,SEARCH,m,,,,,,0.336800733,-0.258552922,1,0,0,,0,149,149,148,1,
,,,,,,,,,,,,,,,,,,5e2322100e12225cf287f0a4,2020-08-10_17h47.02.919,lexical_decision_task_MP,2020.1.3,Linux armv8l,60,,0,-0.285483129,-0.29368932,1,0,0,0.7719,button_left,0.7719,1,,,,,,459,NW,UN,33,mingar,BAFENT,z,,,,,,-0.285483129,-0.29368932,1,0,0,,0,150,150,398,1,
,,,,,,,,,,,,,,,,,,5e2322100e12225cf287f0a4,2020-08-10_17h47.02.919,lexical_decision_task_MP,2020.1.3,Linux armv8l,60,,0,-0.259593149,-0.292764756,1,0,0,0.6997,button_left,0.6997,1,,,,,,275,NW,UN,50,yarmon,SLEIRT,z,,,,,,-0.259593149,-0.292764756,1,0,0,,0,151,151,454,1,
,,,,,,,,,,,,,,,,,,5e2322100e12225cf287f0a4,2020-08-10_17h47.02.919,lexical_decision_task_MP,2020.1.3,Linux armv8l,60,,0,-0.27623671,-0.314031508,1,0,0,0.7196,button_left,0.7196,1,,,,,,383,NW,"ID",50,aungre,AUNGRE,z,,,,,,-0.27623671,-0.314031508,1,0,0,,0,152,152,322,1,
,,,,,,,,,,,,,,,,,,5e2322100e12225cf287f0a4,2020-08-10_17h47.02.919,lexical_decision_task_MP,2020.1.3,Linux armv8l,60,,0,-0.248497454,-0.289990768,1,0,0,0.784,button_left,0.784,1,,,,,,329,NW,"ID",33,yarike,YARIKE,z,,,,,,-0.248497454,-0.289990768,1,0,0,,0,153,153,268,1,
,,,,,,,,,,,,,,,,,,5e2322100e12225cf287f0a4,2020-08-10_17h47.02.919,lexical_decision_task_MP,2020.1.3,Linux armv8l,60,,0,0.357142847,-0.275196557,1,0,0,0.7657,button_right,0.7657,1,,,,,,166,WORD,"ID",50,starch,STARCH,m,,,,,,0.357142847,-0.275196557,1,0,0,,0,154,154,105,1,
,,,,,,,,,,,,,,,,,,5e2322100e12225cf287f0a4,2020-08-10_17h47.02.919,lexical_decision_task_MP,2020.1.3,Linux armv8l,60,,0,-0.260517787,-0.296463309,1,0,0,0.8403,button_left,0.8403,1,,,,,,283,NW,UN,50,shaple,VERALF,z,,,,,,-0.260517787,-0.296463309,1,0,0,,0,155,155,462,1,
,,,,,,,,,,,,,,,,,,5e2322100e12225cf287f0a4,2020-08-10_17h47.02.919,lexical_decision_task_MP,2020.1.3,Linux armv8l,60,,0,-0.277161348,-0.316805349,1,0,0,0.8305,button_left,0.8305,1,,,,,,311,NW,"ID",33,sproly,SPROLY,z,,,,,,-0.277161348,-0.316805349,1,0,0,,0,156,156,250,1,
,,,,,,,,,,,,,,,,,,5e2322100e12225cf287f0a4,2020-08-10_17h47.02.919,lexical_decision_task_MP,2020.1.3,Linux armv8l,60,,0,-0.299352738,-0.350092471,1,0,0,0.9176,button_left,0.9176,1,,,,,,355,NW,"ID",33,zingly,ZINGLY,z,,,,,,-0.299352738,-0.350092471,1,0,0,,0,157,157,294,1,
,,,,,,,,,,,,,,,,,,5e2322100e12225cf287f0a4,2020-08-10_17h47.02.919,lexical_decision_task_MP,2020.1.3,Linux armv8l,60,,0,0.32108181,-0.267799303,1,0,0,0.6496,button_right,0.6496,1,,,,,,110,WORD,"ID",33,polite,POLITE,m,,,,,,0.32108181,-0.267799303,1,0,0,,0,158,158,49,1,
,,,,,,,,,,,,,,,,,,5e2322100e12225cf287f0a4,2020-08-10_17h47.02.919,lexical_decision_task_MP,2020.1.3,Linux armv8l,60,,0,-0.303051291,-0.31125752,1,0,0,0.8008,button_left,0.8008,1,,,,,,243,NW,UN,50,eatric,MUSIED,z,,,,,,-0.303051291,-0.31125752,1,0,0,,0,159,159,422,1,
,,,,,,,,,,,,,,,,,,5e2322100e12225cf287f0a4,2020-08-10_17h47.02.919,lexical_decision_task_MP,2020.1.3,Linux armv8l,60,,0,0.341423998,-0.285367503,1,0,0,0.7681,button_right,0.7681,1,,,,,,136,WORD,"ID",50,bleach,BLEACH,m,,,,,,0.341423998,-0.285367503,1,0,0,,0,160,160,75,1,
,,,,,,,,,,,,,,,,,,5e2322100e12225cf287f0a4,2020-08-10_17h47.02.919,lexical_decision_task_MP,2020.1.3,Linux armv8l,60,,0,-0.304900605,-0.316805349,1,0,0,0.8149,button_left,0.8149,1,,,,,,388,NW,"ID",50,cragin,CRAGIN,z,,,,,,-0.304900605,-0.316805349,1,0,0,,0,161,161,327,1,
,,,,,,,,,,,,,,,,,,5e2322100e12225cf287f0a4,2020-08-10_17h47.02.919,lexical_decision_task_MP,2020.1.3,Linux armv8l,60,,0,0.309986152,-0.277970397,1,0,0,0.8009,button_right,0.8009,1,,,,,,72,WORD,"ID",33,bright,BRIGHT,m,,,,,,0.309986152,-0.277970397,1,0,0,,0,162,162,11,1,
,,,,,,,,,,,,,,,,,,5e2322100e12225cf287f0a4,2020-08-10_17h47.02.919,lexical_decision_task_MP,2020.1.3,Linux armv8l,60,,0,-0.273462777,-0.319579337,1,0,0,0.7524,button_left,0.7524,1,,,,,,246,NW,UN,50,blarge,PIATON,z,,,,,,-0.273462777,-0.319579337,1,0,0,,0,163,163,425,1,
,,,,,,,,,,,,,,,,,,5e2322100e12225cf287f0a4,2020-08-10_17h47.02.919,lexical_decision_task_MP,2020.1.3,Linux armv8l,60,,0,0.295191867,-0.279819674,1,0,0,0.8336,button_right,0.8336,1,,,,,,98,WORD,"ID",33,belong,BELONG,m,,,,,,0.295191867,-0.279819674,1,0,0,,0,164,164,37,1,
,,,,,,,,,,,,,,,,,,5e2322100e12225cf287f0a4,2020-08-10_17h47.02.919,lexical_decision_task_MP,2020.1.3,Linux armv8l,60,,0,-0.256819234,-0.277045833,1,0,0,0.7343,button_left,0.7343,1,,,,,,308,NW,"ID",33,psetch,PSETCH,z,,,,,,-0.256819234,-0.277045833,1,0,0,,0,165,165,247,1,
,,,,,,,,,,,,,,,,,,5e2322100e12225cf287f0a4,2020-08-10_17h47.02.919,lexical_decision_task_MP,2020.1.3,Linux armv8l,60,,0,0.346971827,-0.270573292,1,0,0,0.73,button_right,0.73,1,,,,,,85,WORD,"ID",33,sprawl,SPRAWL,m,,,,,,0.346971827,-0.270573292,1,0,0,,0,166,166,24,1,
,,,,,,,,,,,,,,,,,,5e2322100e12225cf287f0a4,2020-08-10_17h47.02.919,lexical_decision_task_MP,2020.1.3,Linux armv8l,60,,0,0.34512255,-0.277045833,1,0,0,0.6205,button_right,0.6205,1,,,,,,164,WORD,"ID",50,market,MARKET,m,,,,,,0.34512255,-0.277045833,1,0,0,,0,167,167,103,1,
,,,,,,,,,,,,,,,,,,5e2322100e12225cf287f0a4,2020-08-10_17h47.02.919,lexical_decision_task_MP,2020.1.3,Linux armv8l,60,,0,0.352519656,-0.289990768,1,0,0,0.6838,button_right,0.6838,1,,,,,,78,WORD,"ID",33,column,COLUMN,m,,,,,,0.352519656,-0.289990768,1,0,0,,0,168,168,17,1,
,,,,,,,,,,,,,,,,,,5e2322100e12225cf287f0a4,2020-08-10_17h47.02.919,lexical_decision_task_MP,2020.1.3,Linux armv8l,60,,0,0.361766112,-0.297387873,1,0,0,0.682,button_right,0.682,1,,,,,,26,WORD,UN,50,butler,SPRINT,m,,,,,,0.361766112,-0.297387873,1,0,0,,0,169,169,205,1,
,,,,,,,,,,,,,,,,,,5e2322100e12225cf287f0a4,2020-08-10_17h47.02.919,lexical_decision_task_MP,2020.1.3,Linux armv8l,60,,0,0.371012493,-0.301086426,1,0,0,0.7099,button_right,0.7099,1,,,,,,206,WORD,UN,33,wreath,TAILOR,m,,,,,,0.371012493,-0.301086426,1,0,0,,0,170,170,145,1,
,,,,,,,,,,,,,,,,,,5e2322100e12225cf287f0a4,2020-08-10_17h47.02.919,lexical_decision_task_MP,2020.1.3,Linux armv8l,60,,0,0.36269075,-0.307558967,1,0,0,0.6821,button_right,0.6821,1,,,,,,53,WORD,UN,50,ramble,POLICE,m,,,,,,0.36269075,-0.307558967,1,0,0,,0,171,171,232,1,
,,,,,,,,,,,,,,,,,,5e2322100e12225cf287f0a4,2020-08-10_17h47.02.919,lexical_decision_task_MP,2020.1.3,Linux armv8l,60,,0,-0.273462777,-0.29368932,1,0,0,0.8186,button_left,0.8186,1,,,,,,339,NW,"ID",33,fachow,FACHOW,z,,,,,,-0.273462777,-0.29368932,1,0,0,,0,172,172,278,1,
,,,,,,,,,,,,,,,,,,5e2322100e12225cf287f0a4,2020-08-10_17h47.02.919,lexical_decision_task_MP,2020.1.3,Linux armv8l,60,,0,0.332177542,-0.279819674,1,0,0,0.7009,button_right,0.7009,1,,,,,,179,WORD,"ID",50,basket,BASKET,m,,,,,,0.332177542,-0.279819674,1,0,0,,0,173,173,118,1,
,,,,,,,,,,,,,,,,,,5e2322100e12225cf287f0a4,2020-08-10_17h47.02.919,lexical_decision_task_MP,2020.1.3,Linux armv8l,60,,0,-0.333564499,-0.324202454,1,0,0,0.8182,button_left,0.8182,1,,,,,,428,NW,UN,33,funtle,TANDLY,z,,,,,,-0.333564499,-0.324202454,1,0,0,,0,174,174,367,1,
,,,,,,,,,,,,,,,,,,5e2322100e12225cf287f0a4,2020-08-10_17h47.02.919,lexical_decision_task_MP,2020.1.3,Linux armv8l,60,,0,0.346047263,-0.306634403,1,0,0,0.8868,button_right,0.8868,1,,,,,,208,WORD,UN,33,search,HOCKEY,m,,,,,,0.346047263,-0.306634403,1,0,0,,0,175,175,147,1,
,,,,,,,,,,,,,,,,,,5e2322100e12225cf287f0a4,2020-08-10_17h47.02.919,lexical_decision_task_MP,2020.1.3,Linux armv8l,60,,0,-0.26421634,-0.301086426,1,0,0,0.8531,button_left,0.8531,1,,,,,,429,NW,UN,33,caroey,FUNTLE,z,,,,,,-0.26421634,-0.301086426,1,0,0,,0,176,176,368,1,
,,,,,,,,,,,,,,,,,,5e2322100e12225cf287f0a4,2020-08-10_17h47.02.919,lexical_decision_task_MP,2020.1.3,Linux armv8l,60,,0,0.393203883,-0.295538597,1,0,0,0.8529,button_right,0.8529,1,,,,,,217,WORD,UN,33,shrink,LIQUOR,m,,,,,,0.393203883,-0.295538597,1,0,0,,0,177,177,156,1,
,,,,,,,,,,,,,,,,,,5e2322100e12225cf287f0a4,2020-08-10_17h47.02.919,lexical_decision_task_MP,2020.1.3,Linux armv8l,60,,0,0.373786408,-0.32327789,1,0,0,0.6827,button_right,0.6827,1,,,,,,182,WORD,UN,33,absent,WINTER,m,,,,,,0.373786408,-0.32327789,1,0,0,,0,178,178,121,1,
,,,,,,,,,,,,,,,,,,5e2322100e12225cf287f0a4,2020-08-10_17h47.02.919,lexical_decision_task_MP,2020.1.3,Linux armv8l,60,,0,0.366389302,-0.289066204,1,0,0,0.7312,button_right,0.7312,1,,,,,,89,WORD,"ID",33,permit,PERMIT,m,,,,,,0.366389302,-0.289066204,1,0,0,,0,179,179,28,1,
,,,,,,,,,,,,,,,,,,5e2322100e12225cf287f0a4,2020-08-10_17h47.02.919,lexical_decision_task_MP,2020.1.3,Linux armv8l,60,,0,-0.285483129,-0.287216779,1,0,0,0.8536,button_left,0.8536,1,,,,,,479,NW,UN,33,crible,LOBUSH,z,,,,,,-0.285483129,-0.287216779,1,0,0,,0,180,180,418,1,
,,,,,,,,,,,,,,,,,,5e2322100e12225cf287f0a4,2020-08-10_17h47.02.919,lexical_decision_task_MP,2020.1.3,Linux armv8l,60,,0,-0.242024968,-0.319579337,1,0,0,0.8873,button_left,0.8873,1,,,,,,364,NW,"ID",50,impote,IMPOTE,z,,,,,,-0.242024968,-0.319579337,1,0,0,,0,181,181,303,1,
,,,,,,,,,,,,,,,,,,5e2322100e12225cf287f0a4,2020-08-10_17h47.02.919,lexical_decision_task_MP,2020.1.3,Linux armv8l,60,,0,0.341423998,-0.28166895,1,0,0,1.2027,button_right,1.2027,1,,,,,,201,WORD,UN,33,factor,ADMIRE,m,,,,,,0.341423998,-0.28166895,1,0,0,,0,182,182,140,1,
,,,,,,,,,,,,,,,,,,5e2322100e12225cf287f0a4,2020-08-10_17h47.02.919,lexical_decision_task_MP,2020.1.3,Linux armv8l,60,,0,0.363615388,-0.287216779,1,0,0,0.7158,button_right,0.7158,1,,,,,,227,WORD,UN,33,master,SELDOM,m,,,,,,0.363615388,-0.287216779,1,0,0,,0,183,183,166,1,
,,,,,,,,,,,,,,,,,,5e2322100e12225cf287f0a4,2020-08-10_17h47.02.919,lexical_decision_task_MP,2020.1.3,Linux armv8l,60,,0,0.361766112,-0.292764756,1,0,0,0.6788,button_right,0.6788,1,,,,,,187,WORD,UN,33,social,COURSE,m,,,,,,0.361766112,-0.292764756,1,0,0,,0,184,184,126,1,
,,,,,,,,,,,,,,,,,,5e2322100e12225cf287f0a4,2020-08-10_17h47.02.919,lexical_decision_task_MP,2020.1.3,Linux armv8l,60,,0,-0.246648177,-0.302011138,1,0,0,0.8189,button_left,0.8189,1,,,,,,419,NW,"ID",50,slount,SLOUNT,z,,,,,,-0.246648177,-0.302011138,1,0,0,,0,185,185,358,1,
,,,,,,,,,,,,,,,,,,5e2322100e12225cf287f0a4,2020-08-10_17h47.02.919,lexical_decision_task_MP,2020.1.3,Linux armv8l,60,,0,-0.232778549,-0.316805349,1,0,0,0.7176,button_left,0.7176,1,,,,,,367,NW,"ID",50,slique,SLIQUE,z,,,,,,-0.232778549,-0.316805349,1,0,0,,0,186,186,306,1,
,,,,,,,,,,,,,,,,,,5e2322100e12225cf287f0a4,2020-08-10_17h47.02.919,lexical_decision_task_MP,2020.1.3,Linux armv8l,60,,0,-0.248497454,-0.314031508,1,0,0,0.8098,button_left,0.8098,1,,,,,,365,NW,"ID",50,guairt,GUAIRT,z,,,,,,-0.248497454,-0.314031508,1,0,0,,0,187,187,304,1,
,,,,,,,,,,,,,,,,,,5e2322100e12225cf287f0a4,2020-08-10_17h47.02.919,lexical_decision_task_MP,2020.1.3,Linux armv8l,60,,0,0.351595018,-0.273347281,1,0,0,0.7913,button_right,0.7913,1,,,,,,193,WORD,UN,33,mildew,OBJECT,m,,,,,,0.351595018,-0.273347281,1,0,0,,0,188,188,132,1,
,,,,,,,,,,,,,,,,,,5e2322100e12225cf287f0a4,2020-08-10_17h47.02.919,lexical_decision_task_MP,2020.1.3,Linux armv8l,60,,0,0.354368932,-0.289066204,1,0,0,0.7364,button_right,0.7364,1,,,,,,139,WORD,"ID",50,debris,DEBRIS,m,,,,,,0.354368932,-0.289066204,1,0,0,,0,189,189,78,1,
,,,,,,,,,,,,,,,,,,5e2322100e12225cf287f0a4,2020-08-10_17h47.02.919,lexical_decision_task_MP,2020.1.3,Linux armv8l,60,,0,-0.261442444,-0.298312585,1,0,0,0.8676,button_left,0.8676,1,,,,,,286,NW,UN,50,nymbel,RELDON,z,,,,,,-0.261442444,-0.298312585,1,0,0,,0,190,190,465,1,
,,,,,,,,,,,,,,,,,,5e2322100e12225cf287f0a4,2020-08-10_17h47.02.919,lexical_decision_task_MP,2020.1.3,Linux armv8l,60,,0,0.350670379,-0.279819674,1,0,0,0.7194,button_right,0.7194,1,,,,,,33,WORD,UN,50,jungle,BUTLER,m,,,,,,0.350670379,-0.279819674,1,0,0,,0,191,191,212,1,
,,,,,,,,,,,,,,,,,,5e2322100e12225cf287f0a4,2020-08-10_17h47.02.919,lexical_decision_task_MP,2020.1.3,Linux armv8l,60,,0,-0.278085986,-0.31125752,1,0,0,0.7859,button_left,0.7859,1,,,,,,400,NW,"ID",50,wearox,WEAROX,z,,,,,,-0.278085986,-0.31125752,1,0,0,,0,192,192,339,1,
,,,,,,,,,,,,,,,,,,5e2322100e12225cf287f0a4,2020-08-10_17h47.02.919,lexical_decision_task_MP,2020.1.3,Linux armv8l,60,,0,-0.270688862,-0.303860414,1,0,0,0.8484,button_left,0.8484,1,,,,,,464,NW,UN,33,whivex,CHAITE,z,,,,,,-0.270688862,-0.303860414,1,0,0,,0,193,193,403,1,
,,,,,,,,,,,,,,,,,,5e2322100e12225cf287f0a4,2020-08-10_17h47.02.919,lexical_decision_task_MP,2020.1.3,Linux armv8l,60,,0,-0.260517787,-0.306634403,1,0,0,0.7583,button_left,0.7583,1,,,,,,294,NW,UN,50,gleath,INHORT,z,,,,,,-0.260517787,-0.306634403,1,0,0,,0,194,194,473,1,
,,,,,,,,,,,,,,,,,,5e2322100e12225cf287f0a4,2020-08-10_17h47.02.919,lexical_decision_task_MP,2020.1.3,Linux armv8l,60,,0,0.328478989,-0.289990768,1,0,0,0.9147,button_right,0.9147,1,,,,,,82,WORD,"ID",33,stigma,STIGMA,m,,,,,,0.328478989,-0.289990768,1,0,0,,0,195,195,21,1,
,,,,,,,,,,,,,,,,,,5e2322100e12225cf287f0a4,2020-08-10_17h47.02.919,lexical_decision_task_MP,2020.1.3,Linux armv8l,60,,0,-0.272538139,-0.320503902,1,0,0,0.934,button_left,0.934,1,,,,,,445,NW,UN,33,runamo,MINKEL,z,,,,,,-0.272538139,-0.320503902,1,0,0,,0,196,196,384,1,
,,,,,,,,,,,,,,,,,,5e2322100e12225cf287f0a4,2020-08-10_17h47.02.919,lexical_decision_task_MP,2020.1.3,Linux armv8l,60,,0,-0.224456769,-0.287216779,1,0,0,0.9812,button_left,0.9812,1,,,,,,277,NW,UN,50,unighs,PETAIN,z,,,,,,-0.224456769,-0.287216779,1,0,0,,0,197,197,456,1,
,,,,,,,,,,,,,,,,,,5e2322100e12225cf287f0a4,2020-08-10_17h47.02.919,lexical_decision_task_MP,2020.1.3,Linux armv8l,60,,0,-0.222607492,-0.312182232,1,0,0,0.7627,button_left,0.7627,1,,,,,,423,NW,UN,33,praile,STRELD,z,,,,,,-0.222607492,-0.312182232,1,0,0,,0,198,198,362,1,
,,,,,,,,,,,,,,,,,,5e2322100e12225cf287f0a4,2020-08-10_17h47.02.919,lexical_decision_task_MP,2020.1.3,Linux armv8l,60,,0,0.329403627,-0.285367503,1,0,0,0.8016,button_right,0.8016,1,,,,,,54,WORD,UN,50,stroke,RAMBLE,m,,,,,,0.329403627,-0.285367503,1,0,0,,0,199,199,233,1,
,,,,,,,,,,,,,,,,,,5e2322100e12225cf287f0a4,2020-08-10_17h47.02.919,lexical_decision_task_MP,2020.1.3,Linux armv8l,60,,0,-0.258668511,-0.315880933,1,0,0,0.8352,button_left,0.8352,1,,,,,,334,NW,"ID",33,watmeg,WATMEG,z,,,,,,-0.258668511,-0.315880933,1,0,0,,0,200,200,273,1,
,,,,,,,,,,,,,,,,,,5e2322100e12225cf287f0a4,2020-08-10_17h47.02.919,lexical_decision_task_MP,2020.1.3,Linux armv8l,60,,0,0.346971827,-0.301086426,1,0,0,0.6888,button_right,0.6888,1,,,,,,185,WORD,UN,33,portal,BOTHER,m,,,,,,0.346971827,-0.301086426,1,0,0,,0,201,201,124,1,
,,,,,,,,,,,,,,,,,,5e2322100e12225cf287f0a4,2020-08-10_17h47.02.919,lexical_decision_task_MP,2020.1.3,Linux armv8l,60,,0,-0.229079978,-0.304784978,1,0,0,0.8373,button_left,0.8373,1,,,,,,454,NW,UN,33,tondle,SCOUGE,z,,,,,,-0.229079978,-0.304784978,1,0,0,,0,202,202,393,1,
,,,,,,,,,,,,,,,,,,5e2322100e12225cf287f0a4,2020-08-10_17h47.02.919,lexical_decision_task_MP,2020.1.3,Linux armv8l,60,,0,-0.252196025,-0.338072101,1,0,0,0.8316,button_left,0.8316,1,,,,,,439,NW,UN,33,saride,LIMPOR,z,,,,,,-0.252196025,-0.338072101,1,0,0,,0,203,203,378,1,
,,,,,,,,,,,,,,,,,,5e2322100e12225cf287f0a4,2020-08-10_17h47.02.919,lexical_decision_task_MP,2020.1.3,Linux armv8l,60,,0,0.334026818,-0.284442939,1,0,0,0.7031,button_right,0.7031,1,,,,,,154,WORD,"ID",50,author,AUTHOR,m,,,,,,0.334026818,-0.284442939,1,0,0,,0,204,204,93,1,
,,,,,,,,,,,,,,,,,,5e2322100e12225cf287f0a4,2020-08-10_17h47.02.919,lexical_decision_task_MP,2020.1.3,Linux armv8l,60,,0,0.327554351,-0.302011138,1,0,0,0.6333,button_right,0.6333,1,,,,,,223,WORD,UN,33,period,KIDNEY,m,,,,,,0.327554351,-0.302011138,1,0,0,,0,205,205,162,1,
,,,,,,,,,,,,,,,,,,5e2322100e12225cf287f0a4,2020-08-10_17h47.02.919,lexical_decision_task_MP,2020.1.3,Linux armv8l,60,,0,-0.259593149,-0.319579337,1,0,0,0.7559,button_left,0.7559,1,,,,,,463,NW,UN,33,chaite,KISPEL,z,,,,,,-0.259593149,-0.319579337,1,0,0,,0,206,206,402,1,
,,,,,,,,,,,,,,,,,,5e2322100e12225cf287f0a4,2020-08-10_17h47.02.919,lexical_decision_task_MP,2020.1.3,Linux armv8l,60,,0,0.338650009,-0.284442939,1,0,0,0.8193,button_right,0.8193,1,,,,,,215,WORD,UN,33,lumber,PHOBIA,m,,,,,,0.338650009,-0.284442939,1,0,0,,0,207,207,154,1,
,,,,,,,,,,,,,,,,,,5e2322100e12225cf287f0a4,2020-08-10_17h47.02.919,lexical_decision_task_MP,2020.1.3,Linux armv8l,60,,0,0.348821103,-0.301086426,1,0,0,0.6617,button_right,0.6617,1,,,,,,172,WORD,"ID",50,patrol,PATROL,m,,,,,,0.348821103,-0.301086426,1,0,0,,0,208,208,111,1,
,,,,,,,,,,,,,,,,,,5e2322100e12225cf287f0a4,2020-08-10_17h47.02.919,lexical_decision_task_MP,2020.1.3,Linux armv8l,60,,0,0.344197912,-0.298312585,1,0,0,0.6663,button_right,0.6663,1,,,,,,14,WORD,UN,50,orange,ALMOST,m,,,,,,0.344197912,-0.298312585,1,0,0,,0,209,209,193,1,
,,,,,,,,,,,,,,,,,,5e2322100e12225cf287f0a4,2020-08-10_17h47.02.919,lexical_decision_task_MP,2020.1.3,Linux armv8l,60,,0,0.338650009,-0.309408243,1,0,0,0.7342,button_right,0.7342,1,,,,,,76,WORD,"ID",33,exotic,EXOTIC,m,,,,,,0.338650009,-0.309408243,1,0,0,,0,210,210,15,1,
,,,,,,,,,,,,,,,,,,5e2322100e12225cf287f0a4,2020-08-10_17h47.02.919,lexical_decision_task_MP,2020.1.3,Linux armv8l,60,,0,0.346047263,-0.314956072,1,0,0,0.6843,button_right,0.6843,1,,,,,,196,WORD,UN,33,stream,CREDIT,m,,,,,,0.346047263,-0.314956072,1,0,0,,0,211,211,135,1,
,,,,,,,,,,,,,,,,,,5e2322100e12225cf287f0a4,2020-08-10_17h47.02.919,lexical_decision_task_MP,2020.1.3,Linux armv8l,60,,0,0.346971827,-0.321428614,1,0,0,0.6874,button_right,0.6874,1,,,,,,41,WORD,UN,50,chapel,SPRING,m,,,,,,0.346971827,-0.321428614,1,0,0,,0,212,212,220,1,
,,,,,,,,,,,,,,,,,,5e2322100e12225cf287f0a4,2020-08-10_17h47.02.919,lexical_decision_task_MP,2020.1.3,Linux armv8l,60,,0,-0.212436417,-0.313106796,1,0,0,1.0626,button_left,1.0626,1,,,,,,269,NW,UN,50,wrimsy,ORCHET,z,,,,,,-0.212436417,-0.313106796,1,0,0,,0,213,213,448,1,
,,,,,,,,,,,,,,,,,,5e2322100e12225cf287f0a4,2020-08-10_17h47.02.919,lexical_decision_task_MP,2020.1.3,Linux armv8l,60,,0,-0.244798882,-0.324202454,1,0,0,0.72,button_left,0.72,1,,,,,,407,NW,"ID",50,suiver,SUIVER,z,,,,,,-0.244798882,-0.324202454,1,0,0,,0,214,214,346,1,
,,,,,,,,,,,,,,,,,,5e2322100e12225cf287f0a4,2020-08-10_17h47.02.919,lexical_decision_task_MP,2020.1.3,Linux armv8l,60,,0,0.3645401,-0.328825719,1,0,0,0.7846,button_right,0.7846,1,,,,,,194,WORD,UN,33,resign,ABSENT,m,,,,,,0.3645401,-0.328825719,1,0,0,,0,215,215,133,1,
,,,,,,,,,,,,,,,,,,5e2322100e12225cf287f0a4,2020-08-10_17h47.02.919,lexical_decision_task_MP,2020.1.3,Linux armv8l,60,,0,-0.253120663,-0.319579337,1,0,0,0.7712,button_left,0.7712,1,,,,,,361,NW,"ID",50,pauche,PAUCHE,z,,,,,,-0.253120663,-0.319579337,1,0,0,,0,216,216,300,1,
,,,,,,,,,,,,,,,,,,5e2322100e12225cf287f0a4,2020-08-10_17h47.02.919,lexical_decision_task_MP,2020.1.3,Linux armv8l,60,,0,0.349745741,-0.284442939,1,0,0,0.7542,button_right,0.7542,1,,,,,,96,WORD,"ID",33,ignore,IGNORE,m,,,,,,0.349745741,-0.284442939,1,0,0,,0,217,217,35,1,
,,,,,,,,,,,,,,,,,,5e2322100e12225cf287f0a4,2020-08-10_17h47.02.919,lexical_decision_task_MP,2020.1.3,Linux armv8l,60,,0,-0.270688862,-0.319579337,1,0,0,0.7566,button_left,0.7566,1,,,,,,267,NW,UN,50,packes,PASINK,z,,,,,,-0.270688862,-0.319579337,1,0,0,,0,218,218,446,1,
,,,,,,,,,,,,,,,,,,5e2322100e12225cf287f0a4,2020-08-10_17h47.02.919,lexical_decision_task_MP,2020.1.3,Linux armv8l,60,,0,-0.248497454,-0.322353178,1,0,0,0.9334,button_left,0.9334,1,,,,,,314,NW,"ID",33,sprine,SPRINE,z,,,,,,-0.248497454,-0.322353178,1,0,0,,0,219,219,253,1,
,,,,,,,,,,,,,,,,,,5e2322100e12225cf287f0a4,2020-08-10_17h47.02.919,lexical_decision_task_MP,2020.1.3,Linux armv8l,60,,0,0.324780436,-0.302011138,1,0,0,0.8,button_right,0.8,1,,,,,,120,WORD,"ID",33,strain,STRAIN,m,,,,,,0.324780436,-0.302011138,1,0,0,,0,220,220,59,1,
,,,,,,,,,,,,,,,,,,5e2322100e12225cf287f0a4,2020-08-10_17h47.02.919,lexical_decision_task_MP,2020.1.3,Linux armv8l,60,,0,-0.235552464,-0.31125752,1,0,0,0.9904,button_left,0.9904,1,,,,,,325,NW,"ID",33,thruse,THRUSE,z,,,,,,-0.235552464,-0.31125752,1,0,0,,0,221,221,264,1,
,,,,,,,,,,,,,,,,,,5e2322100e12225cf287f0a4,2020-08-10_17h47.02.919,lexical_decision_task_MP,2020.1.3,Linux armv8l,60,,0,0.306287599,-0.28166895,1,0,0,0.852,button_right,0.852,1,,,,,,186,WORD,UN,33,course,PORTAL,m,,,,,,0.306287599,-0.28166895,1,0,0,,0,222,222,125,1,
,,,,,,,,,,,,,,,,,,5e2322100e12225cf287f0a4,2020-08-10_17h47.02.919,lexical_decision_task_MP,2020.1.3,Linux armv8l,60,,0,-0.281784558,-0.304784978,1,0,0,0.8342,button_left,0.8342,1,,,,,,392,NW,"ID",50,rouncy,ROUNCY,z,,,,,,-0.281784558,-0.304784978,1,0,0,,0,223,223,331,1,
,,,,,,,,,,,,,,,,,,5e2322100e12225cf287f0a4,2020-08-10_17h47.02.919,lexical_decision_task_MP,2020.1.3,Linux armv8l,60,,0,0.335876094,-0.285367503,1,0,0,0.8677,button_right,0.8677,1,,,,,,225,WORD,UN,33,casino,VULGAR,m,,,,,,0.335876094,-0.285367503,1,0,0,,0,224,224,164,1,
,,,,,,,,,,,,,,,,,,5e2322100e12225cf287f0a4,2020-08-10_17h47.02.919,lexical_decision_task_MP,2020.1.3,Linux armv8l,60,,0,0.352519656,-0.309408243,1,0,0,0.6318,button_right,0.6318,1,,,,,,130,WORD,"ID",50,stupid,STUPID,m,,,,,,0.352519656,-0.309408243,1,0,0,,0,225,225,69,1,
,,,,,,,,,,,,,,,,,,5e2322100e12225cf287f0a4,2020-08-10_17h47.02.919,lexical_decision_task_MP,2020.1.3,Linux armv8l,60,,0,0.35529357,-0.31125752,1,0,0,0.6652,button_right,0.6652,1,,,,,,173,WORD,"ID",50,shower,SHOWER,m,,,,,,0.35529357,-0.31125752,1,0,0,,0,226,226,112,1,
,,,,,,,,,,,,,,,,,,5e2322100e12225cf287f0a4,2020-08-10_17h47.02.919,lexical_decision_task_MP,2020.1.3,Linux armv8l,60,,0,-0.227230702,-0.31125752,1,0,0,0.8465,button_left,0.8465,1,,,,,,259,NW,UN,50,unject,SOUDAL,z,,,,,,-0.227230702,-0.31125752,1,0,0,,0,227,227,438,1,
,,,,,,,,,,,,,,,,,,5e2322100e12225cf287f0a4,2020-08-10_17h47.02.919,lexical_decision_task_MP,2020.1.3,Linux armv8l,60,,0,-0.229079978,-0.314031508,1,0,0,1.0358,button_left,1.0358,1,,,,,,318,NW,"ID",33,reagly,REAGLY,z,,,,,,-0.229079978,-0.314031508,1,0,0,,0,228,228,257,1,
,,,,,,,,,,,,,,,,,,5e2322100e12225cf287f0a4,2020-08-10_17h47.02.919,lexical_decision_task_MP,2020.1.3,Linux armv8l,60,,0,-0.248497454,-0.326976443,1,0,0,0.8346,button_left,0.8346,1,,,,,,410,NW,"ID",50,tunory,TUNORY,z,,,,,,-0.248497454,-0.326976443,1,0,0,,0,229,229,349,1,
,,,,,,,,,,,,,,,,,,5e2322100e12225cf287f0a4,2020-08-10_17h47.02.919,lexical_decision_task_MP,2020.1.3,Linux armv8l,60,,0,0.354368932,-0.297387873,1,0,0,0.752,button_right,0.752,1,,,,,,218,WORD,UN,33,bucket,SHRINK,m,,,,,,0.354368932,-0.297387873,1,0,0,,0,230,230,157,1,
,,,,,,,,,,,,,,,,,,5e2322100e12225cf287f0a4,2020-08-10_17h47.02.919,lexical_decision_task_MP,2020.1.3,Linux armv8l,60,,0,0.339574647,-0.298312585,1,0,0,0.7558,button_right,0.7558,1,,,,,,13,WORD,UN,50,almost,STRIVE,m,,,,,,0.339574647,-0.298312585,1,0,0,,0,231,231,192,1,
,,,,,,,,,,,,,,,,,,5e2322100e12225cf287f0a4,2020-08-10_17h47.02.919,lexical_decision_task_MP,2020.1.3,Linux armv8l,60,,0,-0.229079978,-0.302935702,1,0,0,0.7911,button_left,0.7911,1,,,,,,353,NW,"ID",33,clurey,CLUREY,z,,,,,,-0.229079978,-0.302935702,1,0,0,,0,232,232,292,1,
,,,,,,,,,,,,,,,,,,5e2322100e12225cf287f0a4,2020-08-10_17h47.02.919,lexical_decision_task_MP,2020.1.3,Linux armv8l,60,,0,0.392279245,-0.300161862,1,0,0,0.8722,button_right,0.8722,1,,,,,,25,WORD,UN,50,sprint,DOMAIN,m,,,,,,0.392279245,-0.300161862,1,0,0,,0,233,233,204,1,
,,,,,,,,,,,,,,,,,,5e2322100e12225cf287f0a4,2020-08-10_17h47.02.919,lexical_decision_task_MP,2020.1.3,Linux armv8l,60,,0,-0.270688862,-0.304784978,1,0,0,0.815,button_left,0.815,1,,,,,,420,NW,"ID",50,gushop,GUSHOP,z,,,,,,-0.270688862,-0.304784978,1,0,0,,0,234,234,359,1,
,,,,,,,,,,,,,,,,,,5e2322100e12225cf287f0a4,2020-08-10_17h47.02.919,lexical_decision_task_MP,2020.1.3,Linux armv8l,60,,0,0.340499285,-0.287216779,1,0,0,0.7162,button_right,0.7162,1,,,,,,74,WORD,"ID",33,plaque,PLAQUE,m,,,,,,0.340499285,-0.287216779,1,0,0,,0,235,235,13,1,
,,,,,,,,,,,,,,,,,,5e2322100e12225cf287f0a4,2020-08-10_17h47.02.919,lexical_decision_task_MP,2020.1.3,Linux armv8l,60,,0,0.352519656,-0.27889511,1,0,0,0.7663,button_right,0.7663,1,,,,,,171,WORD,"ID",50,depart,DEPART,m,,,,,,0.352519656,-0.27889511,1,0,0,,0,236,236,110,1,
,,,,,,,,,,,,,,,,,,5e2322100e12225cf287f0a4,2020-08-10_17h47.02.919,lexical_decision_task_MP,2020.1.3,Linux armv8l,60,,0,-0.269764206,-0.314956072,1,0,0,0.7658,button_left,0.7658,1,,,,,,366,NW,"ID",50,toshel,TOSHEL,z,,,,,,-0.269764206,-0.314956072,1,0,0,,0,237,237,305,1,
,,,,,,,,,,,,,,,,,,5e2322100e12225cf287f0a4,2020-08-10_17h47.02.919,lexical_decision_task_MP,2020.1.3,Linux armv8l,60,,0,0.327554351,-0.302011138,1,0,0,0.9357,button_right,0.9357,1,,,,,,10,WORD,UN,50,cruise,ETHNIC,m,,,,,,0.327554351,-0.302011138,1,0,0,,0,238,238,189,1,
,,,,,,,,,,,,,,,,,,5e2322100e12225cf287f0a4,2020-08-10_17h47.02.919,lexical_decision_task_MP,2020.1.3,Linux armv8l,60,,0,0.360841473,-0.28166895,1,0,0,0.6667,button_right,0.6667,1,,,,,,44,WORD,UN,50,clergy,DANGER,m,,,,,,0.360841473,-0.28166895,1,0,0,,0,239,239,223,1,
,,,,,,,,,,,,,,,,,,5e2322100e12225cf287f0a4,2020-08-10_17h47.02.919,lexical_decision_task_MP,2020.1.3,Linux armv8l,60,,0,-0.221682836,-0.295538597,1,0,0,0.8005,button_left,0.8005,1,,,,,,291,NW,UN,50,ablint,PRETCH,z,,,,,,-0.221682836,-0.295538597,1,0,0,,0,240,240,470,1,
,,,,,,,,,,,,,,,,,,5e2322100e12225cf287f0a4,2020-08-10_17h47.02.919,lexical_decision_task_MP,2020.1.3,Linux armv8l,60,,0,0.342348636,-0.266874739,1,0,0,0.7503,button_right,0.7503,1,,,,,,95,WORD,"ID",33,thread,THREAD,m,,,,,,0.113037443,-0.379681041,1,0,0,,0,241,241,34,1,break_done_button
,,,,,,,,,,,,,,,,,,5e2322100e12225cf287f0a4,2020-08-10_17h47.02.919,lexical_decision_task_MP,2020.1.3,Linux armv8l,60,,0,0.396902436,-0.305709691,1,0,0,0.7338,button_right,0.7338,1,,,,,,148,WORD,"ID",50,custom,CUSTOM,m,,,,,,0.396902436,-0.305709691,1,0,0,,0,242,242,87,1,
,,,,,,,,,,,,,,,,,,5e2322100e12225cf287f0a4,2020-08-10_17h47.02.919,lexical_decision_task_MP,2020.1.3,Linux armv8l,60,,0,-0.233703187,-0.303860414,1,0,0,0.8177,button_left,0.8177,1,,,,,,280,NW,UN,50,melaty,CURBOL,z,,,,,,-0.233703187,-0.303860414,1,0,0,,0,243,243,459,1,
,,,,,,,,,,,,,,,,,,5e2322100e12225cf287f0a4,2020-08-10_17h47.02.919,lexical_decision_task_MP,2020.1.3,Linux armv8l,60,,0,-0.218908921,-0.339921377,1,0,0,0.9343,button_left,0.9343,1,,,,,,391,NW,"ID",50,theldy,THELDY,z,,,,,,-0.218908921,-0.339921377,1,0,0,,0,244,244,330,1,
,,,,,,,,,,,,,,,,,,5e2322100e12225cf287f0a4,2020-08-10_17h47.02.919,lexical_decision_task_MP,2020.1.3,Linux armv8l,60,,0,-0.257743872,-0.32327789,1,0,0,0.7501,button_left,0.7501,1,,,,,,304,NW,"ID",33,cludie,CLUDIE,z,,,,,,-0.257743872,-0.32327789,1,0,0,,0,245,245,243,1,
,,,,,,,,,,,,,,,,,,5e2322100e12225cf287f0a4,2020-08-10_17h47.02.919,lexical_decision_task_MP,2020.1.3,Linux armv8l,60,,0,0.341423998,-0.324202454,1,0,0,0.7339,button_right,0.7339,1,,,,,,66,WORD,"ID",33,gospel,GOSPEL,m,,,,,,0.341423998,-0.324202454,1,0,0,,0,246,246,5,1,
,,,,,,,,,,,,,,,,,,5e2322100e12225cf287f0a4,2020-08-10_17h47.02.919,lexical_decision_task_MP,2020.1.3,Linux armv8l,60,,0,0.347896465,-0.315880933,1,0,0,0.6698,button_right,0.6698,1,,,,,,200,WORD,UN,33,admire,BEACON,m,,,,,,0.347896465,-0.315880933,1,0,0,,0,247,247,139,1,
,,,,,,,,,,,,,,,,,,5e2322100e12225cf287f0a4,2020-08-10_17h47.02.919,lexical_decision_task_MP,2020.1.3,Linux armv8l,60,,0,0.346047263,-0.324202454,1,0,0,0.6516,button_right,0.6516,1,,,,,,140,WORD,"ID",50,prince,PRINCE,m,,,,,,0.346047263,-0.324202454,1,0,0,,0,248,248,79,1,
,,,,,,,,,,,,,,,,,,5e2322100e12225cf287f0a4,2020-08-10_17h47.02.919,lexical_decision_task_MP,2020.1.3,Linux armv8l,60,,0,-0.255894578,-0.310332956,1,0,0,0.791,button_left,0.791,1,,,,,,440,NW,UN,33,rastoe,SARIDE,z,,,,,,-0.255894578,-0.310332956,1,0,0,,0,249,249,379,1,
,,,,,,,,,,,,,,,,,,5e2322100e12225cf287f0a4,2020-08-10_17h47.02.919,lexical_decision_task_MP,2020.1.3,Linux armv8l,60,,0,-0.254969939,-0.320503902,1,0,0,0.8525,button_left,0.8525,1,,,,,,376,NW,"ID",50,iguare,IGUARE,z,,,,,,-0.254969939,-0.320503902,1,0,0,,0,250,250,315,1,
,,,,,,,,,,,,,,,,,,5e2322100e12225cf287f0a4,2020-08-10_17h47.02.919,lexical_decision_task_MP,2020.1.3,Linux armv8l,60,,0,0.344197912,-0.31125752,1,0,0,0.8676,button_right,0.8676,1,,,,,,73,WORD,"ID",33,source,SOURCE,m,,,,,,0.344197912,-0.31125752,1,0,0,,0,251,251,12,1,
,,,,,,,,,,,,,,,,,,5e2322100e12225cf287f0a4,2020-08-10_17h47.02.919,lexical_decision_task_MP,2020.1.3,Linux armv8l,60,,0,-0.239251035,-0.314031508,1,0,0,0.851,button_left,0.851,1,,,,,,478,NW,UN,33,pebric,ACRISE,z,,,,,,-0.239251035,-0.314031508,1,0,0,,0,252,252,417,1,
,,,,,,,,,,,,,,,,,,5e2322100e12225cf287f0a4,2020-08-10_17h47.02.919,lexical_decision_task_MP,2020.1.3,Linux armv8l,60,,0,0.353444294,-0.302935702,1,0,0,0.7022,button_right,0.7022,1,,,,,,118,WORD,"ID",33,flight,FLIGHT,m,,,,,,0.353444294,-0.302935702,1,0,0,,0,253,253,57,1,
,,,,,,,,,,,,,,,,,,5e2322100e12225cf287f0a4,2020-08-10_17h47.02.919,lexical_decision_task_MP,2020.1.3,Linux armv8l,60,,0,0.371012493,-0.298312585,1,0,0,0.6667,button_right,0.6667,1,,,,,,94,WORD,"ID",33,travel,TRAVEL,m,,,,,,0.371012493,-0.298312585,1,0,0,,0,254,254,33,1,
,,,,,,,,,,,,,,,,,,5e2322100e12225cf287f0a4,2020-08-10_17h47.02.919,lexical_decision_task_MP,2020.1.3,Linux armv8l,60,,0,0.371937131,-0.304784978,1,0,0,0.7026,button_right,0.7026,1,,,,,,67,WORD,"ID",33,policy,POLICY,m,,,,,,0.371937131,-0.304784978,1,0,0,,0,255,255,6,1,
,,,,,,,,,,,,,,,,,,5e2322100e12225cf287f0a4,2020-08-10_17h47.02.919,lexical_decision_task_MP,2020.1.3,Linux armv8l,60,,0,0.375635684,-0.310332956,1,0,0,0.6679,button_right,0.6679,1,,,,,,127,WORD,"ID",50,castle,CASTLE,m,,,,,,0.375635684,-0.310332956,1,0,0,,0,256,256,66,1,
,,,,,,,,,,,,,,,,,,5e2322100e12225cf287f0a4,2020-08-10_17h47.02.919,lexical_decision_task_MP,2020.1.3,Linux armv8l,60,,0,0.376560322,-0.315880933,1,0,0,0.7164,button_right,0.7164,1,,,,,,21,WORD,UN,50,jockey,SIMPLE,m,,,,,,0.376560322,-0.315880933,1,0,0,,0,257,257,200,1,
,,,,,,,,,,,,,,,,,,5e2322100e12225cf287f0a4,2020-08-10_17h47.02.919,lexical_decision_task_MP,2020.1.3,Linux armv8l,60,,0,0.375635684,-0.307558967,1,0,0,0.7037,button_right,0.7037,1,,,,,,224,WORD,UN,33,vulgar,PERIOD,m,,,,,,0.375635684,-0.307558967,1,0,0,,0,258,258,163,1,
,,,,,,,,,,,,,,,,,,5e2322100e12225cf287f0a4,2020-08-10_17h47.02.919,lexical_decision_task_MP,2020.1.3,Linux armv8l,60,,0,0.387656054,-0.309408243,1,0,0,0.6822,button_right,0.6822,1,,,,,,63,WORD,"ID",33,launch,LAUNCH,m,,,,,,0.387656054,-0.309408243,1,0,0,,0,259,259,2,1,
,,,,,,,,,,,,,,,,,,5e2322100e12225cf287f0a4,2020-08-10_17h47.02.919,lexical_decision_task_MP,2020.1.3,Linux armv8l,60,,0,0.394128522,-0.313106796,1,0,0,0.7147,button_right,0.7147,1,,,,,,58,WORD,UN,50,splint,FOSTER,m,,,,,,0.394128522,-0.313106796,1,0,0,,0,260,260,237,1,
,,,,,,,,,,,,,,,,,,5e2322100e12225cf287f0a4,2020-08-10_17h47.02.919,lexical_decision_task_MP,2020.1.3,Linux armv8l,60,,0,-0.237401759,-0.272422568,1,0,0,0.8092,button_left,0.8092,1,,,,,,415,NW,"ID",50,higsta,HIGSTA,z,,,,,,-0.237401759,-0.272422568,1,0,0,,0,261,261,354,1,
,,,,,,,,,,,,,,,,,,5e2322100e12225cf287f0a4,2020-08-10_17h47.02.919,lexical_decision_task_MP,2020.1.3,Linux armv8l,60,,0,0.40429969,-0.288141491,1,0,0,0.8141,button_right,0.8141,1,,,,,,112,WORD,"ID",33,breath,BREATH,m,,,,,,0.40429969,-0.288141491,1,0,0,,0,262,262,51,1,
,,,,,,,,,,,,,,,,,,5e2322100e12225cf287f0a4,2020-08-10_17h47.02.919,lexical_decision_task_MP,2020.1.3,Linux armv8l,60,,0,0.368238579,-0.294614033,1,0,0,0.8021,button_right,0.8021,1,,,,,,222,WORD,UN,33,export,HINDER,m,,,,,,0.368238579,-0.294614033,1,0,0,,0,263,263,161,1,
,,,,,,,,,,,,,,,,,,5e2322100e12225cf287f0a4,2020-08-10_17h47.02.919,lexical_decision_task_MP,2020.1.3,Linux armv8l,60,,0,-0.222607492,-0.277970397,1,0,0,0.8405,button_left,0.8405,1,,,,,,384,NW,"ID",50,guesco,GUESCO,z,,,,,,-0.222607492,-0.277970397,1,0,0,,0,264,264,323,1,
,,,,,,,,,,,,,,,,,,5e2322100e12225cf287f0a4,2020-08-10_17h47.02.919,lexical_decision_task_MP,2020.1.3,Linux armv8l,60,,0,0.346971827,-0.300161862,1,0,0,0.7327,button_right,0.7327,1,,,,,,145,WORD,"ID",50,parish,PARISH,m,,,,,,0.346971827,-0.300161862,1,0,0,,0,265,265,84,1,
,,,,,,,,,,,,,,,,,,5e2322100e12225cf287f0a4,2020-08-10_17h47.02.919,lexical_decision_task_MP,2020.1.3,Linux armv8l,60,,0,-0.235552464,-0.319579337,1,0,0,0.8013,button_left,0.8013,1,,,,,,455,NW,UN,33,broget,TONDLE,z,,,,,,-0.235552464,-0.319579337,1,0,0,,0,266,266,394,1,
,,,,,,,,,,,,,,,,,,5e2322100e12225cf287f0a4,2020-08-10_17h47.02.919,lexical_decision_task_MP,2020.1.3,Linux armv8l,60,,0,0.340499285,-0.298312585,1,0,0,0.818,button_right,0.818,1,,,,,,181,WORD,UN,33,winter,GLANCE,m,,,,,,0.340499285,-0.298312585,1,0,0,,0,267,267,120,1,
,,,,,,,,,,,,,,,,,,5e2322100e12225cf287f0a4,2020-08-10_17h47.02.919,lexical_decision_task_MP,2020.1.3,Linux armv8l,60,,0,0.349745741,-0.287216779,1,0,0,0.6863,button_right,0.6863,1,,,,,,87,WORD,"ID",33,filter,FILTER,m,,,,,,0.349745741,-0.287216779,1,0,0,,0,268,268,26,1,
,,,,,,,,,,,,,,,,,,5e2322100e12225cf287f0a4,2020-08-10_17h47.02.919,lexical_decision_task_MP,2020.1.3,Linux armv8l,60,,0,0.342348636,-0.306634403,1,0,0,0.7,button_right,0.7,1,,,,,,190,WORD,UN,33,stable,BACKUP,m,,,,,,0.342348636,-0.306634403,1,0,0,,0,269,269,129,1,
,,,,,,,,,,,,,,,,,,5e2322100e12225cf287f0a4,2020-08-10_17h47.02.919,lexical_decision_task_MP,2020.1.3,Linux armv8l,60,,0,-0.254045301,-0.295538597,1,0,0,0.7553,button_left,0.7553,1,,,,,,371,NW,"ID",50,geiloy,GEILOY,z,,,,,,-0.254045301,-0.295538597,1,0,0,,0,270,270,310,1,
,,,,,,,,,,,,,,,,,,5e2322100e12225cf287f0a4,2020-08-10_17h47.02.919,lexical_decision_task_MP,2020.1.3,Linux armv8l,60,,0,0.349745741,-0.28166895,1,0,0,0.916,button_right,0.916,1,,,,,,99,WORD,"ID",33,fluent,FLUENT,m,,,,,,0.349745741,-0.28166895,1,0,0,,0,271,271,38,1,
,,,,,,,,,,,,,,,,,,5e2322100e12225cf287f0a4,2020-08-10_17h47.02.919,lexical_decision_task_MP,2020.1.3,Linux armv8l,60,,0,0.37748496,-0.302935702,1,0,0,0.657,button_right,0.657,1,,,,,,205,WORD,UN,33,tailor,LOUNGE,m,,,,,,0.37748496,-0.302935702,1,0,0,,0,272,272,144,1,
,,,,,,,,,,,,,,,,,,5e2322100e12225cf287f0a4,2020-08-10_17h47.02.919,lexical_decision_task_MP,2020.1.3,Linux armv8l,60,,0,0.353444294,-0.316805349,1,0,0,0.6835,button_right,0.6835,1,,,,,,220,WORD,UN,33,mascot,VOYAGE,m,,,,,,0.353444294,-0.316805349,1,0,0,,0,273,273,159,1,
,,,,,,,,,,,,,,,,,,5e2322100e12225cf287f0a4,2020-08-10_17h47.02.919,lexical_decision_task_MP,2020.1.3,Linux armv8l,60,,0,0.347896465,-0.319579337,1,0,0,0.636,button_right,0.636,1,,,,,,165,WORD,"ID",50,invest,INVEST,m,,,,,,0.347896465,-0.319579337,1,0,0,,0,274,274,104,1,
,,,,,,,,,,,,,,,,,,5e2322100e12225cf287f0a4,2020-08-10_17h47.02.919,lexical_decision_task_MP,2020.1.3,Linux armv8l,60,,0,0.361766112,-0.315880933,1,0,0,0.6653,button_right,0.6653,1,,,,,,92,WORD,"ID",33,strand,STRAND,m,,,,,,0.361766112,-0.315880933,1,0,0,,0,275,275,31,1,
,,,,,,,,,,,,,,,,,,5e2322100e12225cf287f0a4,2020-08-10_17h47.02.919,lexical_decision_task_MP,2020.1.3,Linux armv8l,60,,0,-0.271613501,-0.296463309,1,0,0,0.9466,button_left,0.9466,1,,,,,,299,NW,UN,50,yarion,STURCH,z,,,,,,-0.271613501,-0.296463309,1,0,0,,0,276,276,478,1,
,,,,,,,,,,,,,,,,,,5e2322100e12225cf287f0a4,2020-08-10_17h47.02.919,lexical_decision_task_MP,2020.1.3,Linux armv8l,60,,0,0.349745741,-0.308483679,1,0,0,0.7883,button_right,0.7883,1,,,,,,195,WORD,UN,33,credit,RESIGN,m,,,,,,0.349745741,-0.308483679,1,0,0,,0,277,277,134,1,
,,,,,,,,,,,,,,,,,,5e2322100e12225cf287f0a4,2020-08-10_17h47.02.919,lexical_decision_task_MP,2020.1.3,Linux armv8l,60,,0,0.344197912,-0.295538597,1,0,0,0.7829,button_right,0.7829,1,,,,,,230,WORD,UN,33,mother,FRINGE,m,,,,,,0.344197912,-0.295538597,1,0,0,,0,278,278,169,1,
,,,,,,,,,,,,,,,,,,5e2322100e12225cf287f0a4,2020-08-10_17h47.02.919,lexical_decision_task_MP,2020.1.3,Linux armv8l,60,,0,-0.26329172,-0.297387873,1,0,0,0.9003,button_left,0.9003,1,,,,,,377,NW,"ID",50,injore,INJORE,z,,,,,,-0.26329172,-0.297387873,1,0,0,,0,279,279,316,1,
,,,,,,,,,,,,,,,,,,5e2322100e12225cf287f0a4,2020-08-10_17h47.02.919,lexical_decision_task_MP,2020.1.3,Linux armv8l,60,,0,-0.269764206,-0.299237149,1,0,0,0.839,button_left,0.839,1,,,,,,480,NW,UN,33,knisma,ROBULY,z,,,,,,-0.269764206,-0.299237149,1,0,0,,0,280,280,419,1,
,,,,,,,,,,,,,,,,,,5e2322100e12225cf287f0a4,2020-08-10_17h47.02.919,lexical_decision_task_MP,2020.1.3,Linux armv8l,60,,0,0.353444294,-0.282593662,1,0,0,0.6809,button_right,0.6809,1,,,,,,158,WORD,"ID",50,island,ISLAND,m,,,,,,0.353444294,-0.282593662,1,0,0,,0,281,281,97,1,
,,,,,,,,,,,,,,,,,,5e2322100e12225cf287f0a4,2020-08-10_17h47.02.919,lexical_decision_task_MP,2020.1.3,Linux armv8l,60,,0,-0.260517787,-0.302935702,1,0,0,0.8525,button_left,0.8525,1,,,,,,242,NW,UN,50,musied,UNWERT,z,,,,,,-0.260517787,-0.302935702,1,0,0,,0,282,282,421,1,
,,,,,,,,,,,,,,,,,,5e2322100e12225cf287f0a4,2020-08-10_17h47.02.919,lexical_decision_task_MP,2020.1.3,Linux armv8l,60,,0,-0.254969939,-0.316805349,1,0,0,0.8211,button_left,0.8211,1,,,,,,326,NW,"ID",33,iguade,IGUADE,z,,,,,,-0.254969939,-0.316805349,1,0,0,,0,283,283,265,1,
,,,,,,,,,,,,,,,,,,5e2322100e12225cf287f0a4,2020-08-10_17h47.02.919,lexical_decision_task_MP,2020.1.3,Linux armv8l,60,,0,0.32108181,-0.303860414,1,0,0,0.6677,button_right,0.6677,1,,,,,,31,WORD,UN,50,buckle,WEAPON,m,,,,,,0.32108181,-0.303860414,1,0,0,,0,284,284,210,1,
,,,,,,,,,,,,,,,,,,5e2322100e12225cf287f0a4,2020-08-10_17h47.02.919,lexical_decision_task_MP,2020.1.3,Linux armv8l,60,,0,-0.283633815,-0.297387873,1,0,0,0.8171,button_left,0.8171,1,,,,,,281,NW,UN,50,porlex,MELATY,z,,,,,,-0.283633815,-0.297387873,1,0,0,,0,285,285,460,1,
,,,,,,,,,,,,,,,,,,5e2322100e12225cf287f0a4,2020-08-10_17h47.02.919,lexical_decision_task_MP,2020.1.3,Linux armv8l,60,,0,-0.239251035,-0.305709691,1,0,0,0.936,button_left,0.936,1,,,,,,432,NW,UN,33,drance,LUNKER,z,,,,,,-0.239251035,-0.305709691,1,0,0,,0,286,286,371,1,
,,,,,,,,,,,,,,,,,,5e2322100e12225cf287f0a4,2020-08-10_17h47.02.919,lexical_decision_task_MP,2020.1.3,Linux armv8l,60,,0,-0.237401759,-0.309408243,1,0,0,0.7975,button_left,0.7975,1,,,,,,340,NW,"ID",33,fiatch,FIATCH,z,,,,,,-0.237401759,-0.309408243,1,0,0,,0,287,287,279,1,
,,,,,,,,,,,,,,,,,,5e2322100e12225cf287f0a4,2020-08-10_17h47.02.919,lexical_decision_task_MP,2020.1.3,Linux armv8l,60,,0,-0.212436417,-0.286292215,1,0,0,0.8057,button_left,0.8057,1,,,,,,359,NW,"ID",33,fonver,FONVER,z,,,,,,-0.212436417,-0.286292215,1,0,0,,0,288,288,298,1,
,,,,,,,,,,,,,,,,,,5e2322100e12225cf287f0a4,2020-08-10_17h47.02.919,lexical_decision_task_MP,2020.1.3,Linux armv8l,60,,0,0.318307895,-0.302011138,1,0,0,0.7005,button_right,0.7005,1,,,,,,233,WORD,UN,33,clumsy,NATURE,m,,,,,,0.318307895,-0.302011138,1,0,0,,0,289,289,172,1,
,,,,,,,,,,,,,,,,,,5e2322100e12225cf287f0a4,2020-08-10_17h47.02.919,lexical_decision_task_MP,2020.1.3,Linux armv8l,60,,0,-0.252196025,-0.302011138,1,0,0,0.8088,button_left,0.8088,1,,,,,,405,NW,"ID",50,flumni,FLUMNI,z,,,,,,-0.252196025,-0.302011138,1,0,0,,0,290,290,344,1,
,,,,,,,,,,,,,,,,,,5e2322100e12225cf287f0a4,2020-08-10_17h47.02.919,lexical_decision_task_MP,2020.1.3,Linux armv8l,60,,0,0.312760066,-0.29368932,1,0,0,0.9535,button_right,0.9535,1,,,,,,101,WORD,"ID",33,wrench,WRENCH,m,,,,,,0.312760066,-0.29368932,1,0,0,,0,291,291,40,1,
,,,,,,,,,,,,,,,,,,5e2322100e12225cf287f0a4,2020-08-10_17h47.02.919,lexical_decision_task_MP,2020.1.3,Linux armv8l,60,,0,-0.289181682,-0.313106796,1,0,0,0.9005,button_left,0.9005,1,,,,,,316,NW,"ID",33,scregm,SCREGM,z,,,,,,-0.289181682,-0.313106796,1,0,0,,0,292,292,255,1,
,,,,,,,,,,,,,,,,,,5e2322100e12225cf287f0a4,2020-08-10_17h47.02.919,lexical_decision_task_MP,2020.1.3,Linux armv8l,60,,0,0.349745741,-0.297387873,1,0,0,0.7189,button_right,0.7189,1,,,,,,135,WORD,"ID",50,import,IMPORT,m,,,,,,0.349745741,-0.297387873,1,0,0,,0,293,293,74,1,
,,,,,,,,,,,,,,,,,,5e2322100e12225cf287f0a4,2020-08-10_17h47.02.919,lexical_decision_task_MP,2020.1.3,Linux armv8l,60,,0,0.352519656,-0.306634403,1,0,0,0.6874,button_right,0.6874,1,,,,,,156,WORD,"ID",50,cradle,CRADLE,m,,,,,,0.352519656,-0.306634403,1,0,0,,0,294,294,95,1,
,,,,,,,,,,,,,,,,,,5e2322100e12225cf287f0a4,2020-08-10_17h47.02.919,lexical_decision_task_MP,2020.1.3,Linux armv8l,60,,0,-0.256819234,-0.299237149,1,0,0,0.8387,button_left,0.8387,1,,,,,,309,NW,"ID",33,amiloy,AMILOY,z,,,,,,-0.256819234,-0.299237149,1,0,0,,0,295,295,248,1,
,,,,,,,,,,,,,,,,,,5e2322100e12225cf287f0a4,2020-08-10_17h47.02.919,lexical_decision_task_MP,2020.1.3,Linux armv8l,60,,0,-0.208737864,-0.316805349,1,0,0,0.8501,button_left,0.8501,1,,,,,,450,NW,UN,33,cainky,PHRECT,z,,,,,,-0.208737864,-0.316805349,1,0,0,,0,296,296,389,1,
,,,,,,,,,,,,,,,,,,5e2322100e12225cf287f0a4,2020-08-10_17h47.02.919,lexical_decision_task_MP,2020.1.3,Linux armv8l,60,,0,0.322006522,-0.313106796,1,0,0,0.6941,button_right,0.6941,1,,,,,,109,WORD,"ID",33,wonder,WONDER,m,,,,,,0.322006522,-0.313106796,1,0,0,,0,297,297,48,1,
,,,,,,,,,,,,,,,,,,5e2322100e12225cf287f0a4,2020-08-10_17h47.02.919,lexical_decision_task_MP,2020.1.3,Linux armv8l,60,,0,-0.253120663,-0.313106796,1,0,0,0.8492,button_left,0.8492,1,,,,,,338,NW,"ID",33,wreash,WREASH,z,,,,,,-0.253120663,-0.313106796,1,0,0,,0,298,298,277,1,
,,,,,,,,,,,,,,,,,,5e2322100e12225cf287f0a4,2020-08-10_17h47.02.919,lexical_decision_task_MP,2020.1.3,Linux armv8l,60,,0,0.317383257,-0.291840044,1,0,0,0.6823,button_right,0.6823,1,,,,,,147,WORD,"ID",50,garlic,GARLIC,m,,,,,,0.317383257,-0.291840044,1,0,0,,0,299,299,86,1,
,,,,,,,,,,,,,,,,,,5e2322100e12225cf287f0a4,2020-08-10_17h47.02.919,lexical_decision_task_MP,2020.1.3,Linux armv8l,60,,0,-0.238326397,-0.289066204,1,0,0,0.9353,button_left,0.9353,1,,,,,,449,NW,UN,33,phrect,BRUNGE,z,,,,,,-0.238326397,-0.289066204,1,0,0,,0,300,300,388,1,
,,,,,,,,,,,,,,,,,,5e2322100e12225cf287f0a4,2020-08-10_17h47.02.919,lexical_decision_task_MP,2020.1.3,Linux armv8l,60,,0,0.316458619,-0.289990768,1,0,0,0.7965,button_right,0.7965,1,,,,,,52,WORD,UN,50,police,IMPOSE,m,,,,,,0.316458619,-0.289990768,1,0,0,,0,301,301,231,1,
,,,,,,,,,,,,,,,,,,5e2322100e12225cf287f0a4,2020-08-10_17h47.02.919,lexical_decision_task_MP,2020.1.3,Linux armv8l,60,,0,-0.26329172,-0.302935702,1,0,0,0.7684,button_left,0.7684,1,,,,,,244,NW,UN,50,anougs,EATRIC,z,,,,,,-0.26329172,-0.302935702,1,0,0,,0,302,302,423,1,
,,,,,,,,,,,,,,,,,,5e2322100e12225cf287f0a4,2020-08-10_17h47.02.919,lexical_decision_task_MP,2020.1.3,Linux armv8l,60,,0,-0.234627826,-0.330674995,1,0,0,0.9027,button_left,0.9027,1,,,,,,255,NW,UN,50,inlors,APIGHT,z,,,,,,-0.234627826,-0.330674995,1,0,0,,0,303,303,434,1,
,,,,,,,,,,,,,,,,,,5e2322100e12225cf287f0a4,2020-08-10_17h47.02.919,lexical_decision_task_MP,2020.1.3,Linux armv8l,60,,0,-0.260517787,-0.313106796,1,0,0,1.1869,button_left,1.1869,1,,,,,,341,NW,"ID",33,myrtie,MYRTIE,z,,,,,,-0.260517787,-0.313106796,1,0,0,,0,304,304,280,1,
,,,,,,,,,,,,,,,,,,5e2322100e12225cf287f0a4,2020-08-10_17h47.02.919,lexical_decision_task_MP,2020.1.3,Linux armv8l,60,,0,-0.222607492,-0.310332956,1,0,0,0.9173,button_left,0.9173,1,,,,,,261,NW,UN,50,quilew,STUNCH,z,,,,,,-0.222607492,-0.310332956,1,0,0,,0,305,305,440,1,
,,,,,,,,,,,,,,,,,,5e2322100e12225cf287f0a4,2020-08-10_17h47.02.919,lexical_decision_task_MP,2020.1.3,Linux armv8l,60,,0,0.318307895,-0.306634403,1,0,0,0.7185,button_right,0.7185,1,,,,,,207,WORD,UN,33,hockey,WREATH,m,,,,,,0.318307895,-0.306634403,1,0,0,,0,306,306,146,1,
,,,,,,,,,,,,,,,,,,5e2322100e12225cf287f0a4,2020-08-10_17h47.02.919,lexical_decision_task_MP,2020.1.3,Linux armv8l,60,,0,-0.243874244,-0.309408243,1,0,0,0.7839,button_left,0.7839,1,,,,,,444,NW,UN,33,minkel,JAUNCE,z,,,,,,-0.243874244,-0.309408243,1,0,0,,0,307,307,383,1,
,,,,,,,,,,,,,,,,,,5e2322100e12225cf287f0a4,2020-08-10_17h47.02.919,lexical_decision_task_MP,2020.1.3,Linux armv8l,60,,0,-0.231853893,-0.330674995,1,0,0,0.9679,button_left,0.9679,1,,,,,,461,NW,UN,33,absult,JUSTRE,z,,,,,,-0.231853893,-0.330674995,1,0,0,,0,308,308,400,1,
,,,,,,,,,,,,,,,,,,5e2322100e12225cf287f0a4,2020-08-10_17h47.02.919,lexical_decision_task_MP,2020.1.3,Linux armv8l,60,,0,0.339574647,-0.32327789,1,0,0,0.6659,button_right,0.6659,1,,,,,,231,WORD,UN,33,inject,EXPORT,m,,,,,,0.339574647,-0.32327789,1,0,0,,0,309,309,170,1,
,,,,,,,,,,,,,,,,,,5e2322100e12225cf287f0a4,2020-08-10_17h47.02.919,lexical_decision_task_MP,2020.1.3,Linux armv8l,60,,0,0.32293116,-0.315880933,1,0,0,0.652,button_right,0.652,1,,,,,,51,WORD,UN,50,impose,HUNGRY,m,,,,,,0.32293116,-0.315880933,1,0,0,,0,310,310,230,1,
,,,,,,,,,,,,,,,,,,5e2322100e12225cf287f0a4,2020-08-10_17h47.02.919,lexical_decision_task_MP,2020.1.3,Linux armv8l,60,,0,0.315533981,-0.318654625,1,0,0,0.718,button_right,0.718,1,,,,,,84,WORD,"ID",33,mortal,MORTAL,m,,,,,,0.315533981,-0.318654625,1,0,0,,0,311,311,23,1,
,,,,,,,,,,,,,,,,,,5e2322100e12225cf287f0a4,2020-08-10_17h47.02.919,lexical_decision_task_MP,2020.1.3,Linux armv8l,60,,0,-0.255894578,-0.310332956,1,0,0,0.7866,button_left,0.7866,1,,,,,,287,NW,UN,50,yaceup,NYMBEL,z,,,,,,-0.255894578,-0.310332956,1,0,0,,0,312,312,466,1,
,,,,,,,,,,,,,,,,,,5e2322100e12225cf287f0a4,2020-08-10_17h47.02.919,lexical_decision_task_MP,2020.1.3,Linux armv8l,60,,0,-0.246648177,-0.337147537,1,0,0,0.9188,button_left,0.9188,1,,,,,,310,NW,"ID",33,daniet,DANIET,z,,,,,,-0.246648177,-0.337147537,1,0,0,,0,313,313,249,1,
,,,,,,,,,,,,,,,,,,5e2322100e12225cf287f0a4,2020-08-10_17h47.02.919,lexical_decision_task_MP,2020.1.3,Linux armv8l,60,,0,0.314609342,-0.315880933,1,0,0,0.684,button_right,0.684,1,,,,,,138,WORD,"ID",50,melody,MELODY,m,,,,,,0.314609342,-0.315880933,1,0,0,,0,314,314,77,1,
,,,,,,,,,,,,,,,,,,5e2322100e12225cf287f0a4,2020-08-10_17h47.02.919,lexical_decision_task_MP,2020.1.3,Linux armv8l,60,,0,-0.270688862,-0.324202454,1,0,0,0.7201,button_left,0.7201,1,,,,,,347,NW,"ID",33,kerift,KERIFT,z,,,,,,-0.270688862,-0.324202454,1,0,0,,0,315,315,286,1,
,,,,,,,,,,,,,,,,,,5e2322100e12225cf287f0a4,2020-08-10_17h47.02.919,lexical_decision_task_MP,2020.1.3,Linux armv8l,60,,0,0.303513684,-0.27889511,1,0,0,0.9199,button_right,0.9199,1,,,,,,122,WORD,"ID",50,linger,LINGER,m,,,,,,0.303513684,-0.27889511,1,0,0,,0,316,316,61,1,
,,,,,,,,,,,,,,,,,,5e2322100e12225cf287f0a4,2020-08-10_17h47.02.919,lexical_decision_task_MP,2020.1.3,Linux armv8l,60,,0,0.328478989,-0.301086426,1,0,0,0.7033,button_right,0.7033,1,,,,,,64,WORD,"ID",33,throne,THRONE,m,,,,,,0.328478989,-0.301086426,1,0,0,,0,317,317,3,1,
,,,,,,,,,,,,,,,,,,5e2322100e12225cf287f0a4,2020-08-10_17h47.02.919,lexical_decision_task_MP,2020.1.3,Linux armv8l,60,,0,-0.247572816,-0.318654625,1,0,0,1.0843,button_left,1.0843,1,,,,,,302,NW,"ID",33,miluer,MILUER,z,,,,,,-0.247572816,-0.318654625,1,0,0,,0,318,318,241,1,
,,,,,,,,,,,,,,,,,,5e2322100e12225cf287f0a4,2020-08-10_17h47.02.919,lexical_decision_task_MP,2020.1.3,Linux armv8l,60,,0,0.331252904,-0.308483679,1,0,0,0.6885,button_right,0.6885,1,,,,,,55,WORD,UN,50,ambush,STROKE,m,,,,,,0.331252904,-0.308483679,1,0,0,,0,319,319,234,1,
,,,,,,,,,,,,,,,,,,5e2322100e12225cf287f0a4,2020-08-10_17h47.02.919,lexical_decision_task_MP,2020.1.3,Linux armv8l,60,,0,0.299815058,-0.287216779,1,0,0,0.9347,button_right,0.9347,1,,,,,,34,WORD,UN,50,socket,JUNGLE,m,,,,,,0.299815058,-0.287216779,1,0,0,,0,320,320,213,1,
,,,,,,,,,,,,,,,,,,5e2322100e12225cf287f0a4,2020-08-10_17h47.02.919,lexical_decision_task_MP,2020.1.3,Linux armv8l,60,,0,-0.262367082,-0.303860414,1,0,0,0.9016,button_left,0.9016,1,,,,,,257,NW,UN,50,poluth,VENIOD,z,,,,,,-0.262367082,-0.303860414,1,0,0,,0,321,321,436,1,
,,,,,,,,,,,,,,,,,,5e2322100e12225cf287f0a4,2020-08-10_17h47.02.919,lexical_decision_task_MP,2020.1.3,Linux armv8l,60,,0,-0.261442444,-0.310332956,1,0,0,0.8223,button_left,0.8223,1,,,,,,322,NW,"ID",33,slanch,SLANCH,z,,,,,,-0.261442444,-0.310332956,1,0,0,,0,322,322,261,1,
,,,,,,,,,,,,,,,,,,5e2322100e12225cf287f0a4,2020-08-10_17h47.02.919,lexical_decision_task_MP,2020.1.3,Linux armv8l,60,,0,0.358992123,-0.302935702,1,0,0,0.7179,button_right,0.7179,1,,,,,,126,WORD,"ID",50,enough,ENOUGH,m,,,,,,0.358992123,-0.302935702,1,0,0,,0,323,323,65,1,
,,,,,,,,,,,,,,,,,,5e2322100e12225cf287f0a4,2020-08-10_17h47.02.919,lexical_decision_task_MP,2020.1.3,Linux armv8l,60,,0,0.351595018,-0.307558967,1,0,0,0.6681,button_right,0.6681,1,,,,,,151,WORD,"ID",50,mystic,MYSTIC,m,,,,,,0.351595018,-0.307558967,1,0,0,,0,324,324,90,1,
,,,,,,,,,,,,,,,,,,5e2322100e12225cf287f0a4,2020-08-10_17h47.02.919,lexical_decision_task_MP,2020.1.3,Linux armv8l,60,,0,0.346047263,-0.295538597,1,0,0,0.757,button_right,0.757,1,,,,,,49,WORD,UN,50,snatch,SURVEY,m,,,,,,0.346047263,-0.295538597,1,0,0,,0,325,325,228,1,
,,,,,,,,,,,,,,,,,,5e2322100e12225cf287f0a4,2020-08-10_17h47.02.919,lexical_decision_task_MP,2020.1.3,Linux armv8l,60,,0,-0.261442444,-0.308483679,1,0,0,0.8011,button_left,0.8011,1,,,,,,324,NW,"ID",33,steikh,STEIKH,z,,,,,,-0.261442444,-0.308483679,1,0,0,,0,326,326,263,1,
,,,,,,,,,,,,,,,,,,5e2322100e12225cf287f0a4,2020-08-10_17h47.02.919,lexical_decision_task_MP,2020.1.3,Linux armv8l,60,,0,0.334026818,-0.303860414,1,0,0,0.7528,button_right,0.7528,1,,,,,,131,WORD,"ID",50,quench,QUENCH,m,,,,,,0.334026818,-0.303860414,1,0,0,,0,327,327,70,1,
,,,,,,,,,,,,,,,,,,5e2322100e12225cf287f0a4,2020-08-10_17h47.02.919,lexical_decision_task_MP,2020.1.3,Linux armv8l,60,,0,0.331252904,-0.304784978,1,0,0,0.7875,button_right,0.7875,1,,,,,,161,WORD,"ID",50,pastor,PASTOR,m,,,,,,0.331252904,-0.304784978,1,0,0,,0,328,328,100,1,
,,,,,,,,,,,,,,,,,,5e2322100e12225cf287f0a4,2020-08-10_17h47.02.919,lexical_decision_task_MP,2020.1.3,Linux armv8l,60,,0,-0.25034673,-0.296463309,1,0,0,0.8004,button_left,0.8004,1,,,,,,290,NW,UN,50,pretch,SPLINO,z,,,,,,-0.25034673,-0.296463309,1,0,0,,0,329,329,469,1,
,,,,,,,,,,,,,,,,,,5e2322100e12225cf287f0a4,2020-08-10_17h47.02.919,lexical_decision_task_MP,2020.1.3,Linux armv8l,60,,0,-0.217984283,-0.31125752,1,0,0,0.8677,button_left,0.8677,1,,,,,,466,NW,UN,33,robuly,HOCITE,z,,,,,,-0.217984283,-0.31125752,1,0,0,,0,330,330,405,1,
,,,,,,,,,,,,,,,,,,5e2322100e12225cf287f0a4,2020-08-10_17h47.02.919,lexical_decision_task_MP,2020.1.3,Linux armv8l,60,,0,-0.236477102,-0.326976443,1,0,0,0.7879,button_left,0.7879,1,,,,,,272,NW,UN,50,sortel,DAMILT,z,,,,,,-0.236477102,-0.326976443,1,0,0,,0,331,331,451,1,
,,,,,,,,,,,,,,,,,,5e2322100e12225cf287f0a4,2020-08-10_17h47.02.919,lexical_decision_task_MP,2020.1.3,Linux armv8l,60,,0,-0.254045301,-0.313106796,1,0,0,0.834,button_left,0.834,1,,,,,,447,NW,UN,33,sadent,GIRCUE,z,,,,,,-0.254045301,-0.313106796,1,0,0,,0,332,332,386,1,
,,,,,,,,,,,,,,,,,,5e2322100e12225cf287f0a4,2020-08-10_17h47.02.919,lexical_decision_task_MP,2020.1.3,Linux armv8l,60,,0,-0.262367082,-0.332524272,1,0,0,0.9514,button_left,0.9514,1,,,,,,413,NW,"ID",50,equats,EQUATS,z,,,,,,-0.262367082,-0.332524272,1,0,0,,0,333,333,352,1,
,,,,,,,,,,,,,,,,,,5e2322100e12225cf287f0a4,2020-08-10_17h47.02.919,lexical_decision_task_MP,2020.1.3,Linux armv8l,60,,0,0.308136875,-0.324202454,1,0,0,0.7862,button_right,0.7862,1,,,,,,45,WORD,UN,50,single,CLERGY,m,,,,,,0.308136875,-0.324202454,1,0,0,,0,334,334,224,1,
,,,,,,,,,,,,,,,,,,5e2322100e12225cf287f0a4,2020-08-10_17h47.02.919,lexical_decision_task_MP,2020.1.3,Linux armv8l,60,,0,0.327554351,-0.301086426,1,0,0,0.9201,button_right,0.9201,0,,,,,,303,NW,"ID",33,fiream,FIREAM,z,,,,,,0.327554351,-0.301086426,1,0,0,,0,335,335,242,1,
,,,,,,,,,,,,,,,,,,5e2322100e12225cf287f0a4,2020-08-10_17h47.02.919,lexical_decision_task_MP,2020.1.3,Linux armv8l,60,,0,-0.267914929,-0.314956072,1,0,0,0.9865,button_left,0.9865,1,,,,,,356,NW,"ID",33,othnis,OTHNIS,z,,,,,,-0.267914929,-0.314956072,1,0,0,,0,336,336,295,1,
,,,,,,,,,,,,,,,,,,5e2322100e12225cf287f0a4,2020-08-10_17h47.02.919,lexical_decision_task_MP,2020.1.3,Linux armv8l,60,,0,-0.265140996,-0.312182232,1,0,0,1.0719,button_left,1.0719,1,,,,,,265,NW,UN,50,varmit,DISTAR,z,,,,,,-0.265140996,-0.312182232,1,0,0,,0,337,337,444,1,
,,,,,,,,,,,,,,,,,,5e2322100e12225cf287f0a4,2020-08-10_17h47.02.919,lexical_decision_task_MP,2020.1.3,Linux armv8l,60,,0,0.340499285,-0.274271845,1,0,0,0.7844,button_right,0.7844,1,,,,,,57,WORD,UN,50,danger,CHANGE,m,,,,,,0.340499285,-0.274271845,1,0,0,,0,338,338,236,1,
,,,,,,,,,,,,,,,,,,5e2322100e12225cf287f0a4,2020-08-10_17h47.02.919,lexical_decision_task_MP,2020.1.3,Linux armv8l,60,,0,0.334026818,-0.285367503,1,0,0,0.7553,button_right,0.7553,1,,,,,,9,WORD,UN,50,bridge,HUSTLE,m,,,,,,0.334026818,-0.285367503,1,0,0,,0,339,339,188,1,
,,,,,,,,,,,,,,,,,,5e2322100e12225cf287f0a4,2020-08-10_17h47.02.919,lexical_decision_task_MP,2020.1.3,Linux armv8l,60,,0,-0.236477102,-0.288141491,1,0,0,0.8699,button_left,0.8699,1,,,,,,360,NW,"ID",33,desory,DESORY,z,,,,,,-0.236477102,-0.288141491,1,0,0,,0,340,340,299,1,
,,,,,,,,,,,,,,,,,,5e2322100e12225cf287f0a4,2020-08-10_17h47.02.919,lexical_decision_task_MP,2020.1.3,Linux armv8l,60,,0,-0.241100311,-0.318654625,1,0,0,0.8171,button_left,0.8171,1,,,,,,442,NW,UN,33,dorsex,ABOUNE,z,,,,,,-0.241100311,-0.318654625,1,0,0,,0,341,341,381,1,
