counterbalancing_condition,instr_done_keyboard.keys,instr_done_keyboard.rt,instr_done_touch.x,instr_done_touch.y,instr_done_touch.leftButton,instr_done_touch.midButton,instr_done_touch.rightButton,instruction_pages.thisRepN,instruction_pages.thisTrialN,instruction_pages.thisN,instruction_pages.thisIndex,instruction_pages.ran,pageN,phase,instruct_text,has_image,instruct_image,participant,date,expName,psychopyVersion,OS,frameRate,response.keys,response.corr,response.rt,touch_resp.x,touch_resp.y,touch_resp.leftButton,touch_resp.midButton,touch_resp.rightButton,touch_resp.time,touch_resp.clicked_name,rt,corr,practice_trials.thisRepN,practice_trials.thisTrialN,practice_trials.thisN,practice_trials.thisIndex,practice_trials.ran,TrialID,StimulusType,Condition,PrimeDuration,Prime,Target,corrAns,end_of_practice_trials_pages.thisRepN,end_of_practice_trials_pages.thisTrialN,end_of_practice_trials_pages.thisN,end_of_practice_trials_pages.thisIndex,end_of_practice_trials_pages.ran,break_done_touch.x,break_done_touch.y,break_done_touch.leftButton,break_done_touch.midButton,break_done_touch.rightButton,break_done_keyboard.keys,trials.thisRepN,trials.thisTrialN,trials.thisN,trials.thisIndex,trials.ran,break_done_keyboard.rt
2,space,24.347705,0.134444444,-0.162222222,0,0,0,0,0,0,0,1,1,instructions,"INSTRUCTIONS
At the start of each trial, look at the hash marks (######) in the center of the screen. After a moment, a string of letters will appear. Your task is to indicate if the letter string forms a word or not (i.e., if it is a nonword). For example, AUTHOR is a word while AUTHON is a nonword.

Press the space bar or touch the button below to continue.",0,,5e28e735ea776009d4d15c34,2020-08-10_18h02.39.204,lexical_decision_task_MP,2020.1.3,Win32,60,,,,,,,,,,,,,,,,,,,,,,,,,,,,,,,,,,,,,,,,,
,space,16.12095,0.134444444,-0.162222222,0,0,0,0,1,1,1,1,2,instructions,"If your device has a keyboard, press the 'Z' key for nonwords and the 'M' key for words.





Press the space bar or touch the button below to continue.",1,keyboard-example.gif,5e28e735ea776009d4d15c34,2020-08-10_18h02.39.204,lexical_decision_task_MP,2020.1.3,Win32,60,,,,,,,,,,,,,,,,,,,,,,,,,,,,,,,,,,,,,,,,,
,space,3.99073,0.134444444,-0.162222222,0,0,0,0,2,2,2,1,3,instructions,"If you are using a touchscreen only device, use the buttons on the screen. Do not use the mouse.





Press the space bar or touch the button below to continue.",1,touchscreen-example.gif,5e28e735ea776009d4d15c34,2020-08-10_18h02.39.204,lexical_decision_task_MP,2020.1.3,Win32,60,,,,,,,,,,,,,,,,,,,,,,,,,,,,,,,,,,,,,,,,,
,space,32.00249,0.134444444,-0.162222222,0,0,0,0,3,3,3,1,4,instructions,"It is very important that you respond as quickly and accurately as possible, as each letter string will only be on the screen for two seconds. If you do not respond within this time, the message 'Too slow!' will be displayed and the experiment will progress to the next letter string. The first 20 trials will be practice trials and you will receive feedback on your answers. 

Press the space bar or touch the button below to start the practice trials.",0,,5e28e735ea776009d4d15c34,2020-08-10_18h02.39.204,lexical_decision_task_MP,2020.1.3,Win32,60,,,,,,,,,,,,,,,,,,,,,,,,,,,,,,,,,,,,,,,,,
,,,,,,,,,,,,,,,,,,5e28e735ea776009d4d15c34,2020-08-10_18h02.39.204,lexical_decision_task_MP,2020.1.3,Win32,60,m,1,1.559805,,,,,,,,1.559805,1,0,0,0,0,1,1001,WORD,"ID",33,utopia,UTOPIA,m,,,,,,,,,,,,,,,,,
,,,,,,,,,,,,,,,,,,5e28e735ea776009d4d15c34,2020-08-10_18h02.39.204,lexical_decision_task_MP,2020.1.3,Win32,60,z,1,1.48446,,,,,,,,1.48446,1,0,1,1,15,1,1016,NW,UN,50,mushed,WHAISE,z,,,,,,,,,,,,,,,,,
,,,,,,,,,,,,,,,,,,5e28e735ea776009d4d15c34,2020-08-10_18h02.39.204,lexical_decision_task_MP,2020.1.3,Win32,60,z,1,1.35151,,,,,,,,1.35151,1,0,2,2,13,1,1014,NW,UN,33,winfer,ROUPET,z,,,,,,,,,,,,,,,,,
,,,,,,,,,,,,,,,,,,5e28e735ea776009d4d15c34,2020-08-10_18h02.39.204,lexical_decision_task_MP,2020.1.3,Win32,60,m,1,0.826595,,,,,,,,0.826595,1,0,3,3,6,1,1007,WORD,UN,50,tropic,ZOMBIE,m,,,,,,,,,,,,,,,,,
,,,,,,,,,,,,,,,,,,5e28e735ea776009d4d15c34,2020-08-10_18h02.39.204,lexical_decision_task_MP,2020.1.3,Win32,60,z,1,1.24711,,,,,,,,1.24711,1,0,4,4,11,1,1012,NW,"ID",50,rashet,RASHET,z,,,,,,,,,,,,,,,,,
,,,,,,,,,,,,,,,,,,5e28e735ea776009d4d15c34,2020-08-10_18h02.39.204,lexical_decision_task_MP,2020.1.3,Win32,60,m,1,0.889055,,,,,,,,0.889055,1,0,5,5,3,1,1004,WORD,"ID",50,matrix,MATRIX,m,,,,,,,,,,,,,,,,,
,,,,,,,,,,,,,,,,,,5e28e735ea776009d4d15c34,2020-08-10_18h02.39.204,lexical_decision_task_MP,2020.1.3,Win32,60,z,1,0.94856,,,,,,,,0.94856,1,0,6,6,8,1,1009,NW,"ID",33,aslert,ASLERT,z,,,,,,,,,,,,,,,,,
,,,,,,,,,,,,,,,,,,5e28e735ea776009d4d15c34,2020-08-10_18h02.39.204,lexical_decision_task_MP,2020.1.3,Win32,60,m,1,1.271215,,,,,,,,1.271215,1,0,7,7,5,1,1006,WORD,UN,33,frenzy,OBTAIN,m,,,,,,,,,,,,,,,,,
,,,,,,,,,,,,,,,,,,5e28e735ea776009d4d15c34,2020-08-10_18h02.39.204,lexical_decision_task_MP,2020.1.3,Win32,60,z,1,1.166905,,,,,,,,1.166905,1,0,8,8,12,1,1013,NW,UN,33,adveil,SPRINY,z,,,,,,,,,,,,,,,,,
,,,,,,,,,,,,,,,,,,5e28e735ea776009d4d15c34,2020-08-10_18h02.39.204,lexical_decision_task_MP,2020.1.3,Win32,60,m,1,0.804835,,,,,,,,0.804835,1,0,9,9,2,1,1003,WORD,"ID",50,almond,ALMOND,m,,,,,,,,,,,,,,,,,
,,,,,,,,,,,,,,,,,,5e28e735ea776009d4d15c34,2020-08-10_18h02.39.204,lexical_decision_task_MP,2020.1.3,Win32,60,z,1,1.10513,,,,,,,,1.10513,1,0,10,10,14,1,1015,NW,UN,50,miaber,THRALE,z,,,,,,,,,,,,,,,,,
,,,,,,,,,,,,,,,,,,5e28e735ea776009d4d15c34,2020-08-10_18h02.39.204,lexical_decision_task_MP,2020.1.3,Win32,60,m,1,0.739855,,,,,,,,0.739855,1,0,11,11,7,1,1008,WORD,UN,50,hurdle,VOLUME,m,,,,,,,,,,,,,,,,,
,,,,,,,,,,,,,,,,,,5e28e735ea776009d4d15c34,2020-08-10_18h02.39.204,lexical_decision_task_MP,2020.1.3,Win32,60,z,1,1.14996,,,,,,,,1.14996,1,0,12,12,9,1,1010,NW,"ID",33,fariny,FARINY,z,,,,,,,,,,,,,,,,,
,,,,,,,,,,,,,,,,,,5e28e735ea776009d4d15c34,2020-08-10_18h02.39.204,lexical_decision_task_MP,2020.1.3,Win32,60,m,1,0.85095,,,,,,,,0.85095,1,0,13,13,1,1,1002,WORD,"ID",33,adjust,ADJUST,m,,,,,,,,,,,,,,,,,
,,,,,,,,,,,,,,,,,,5e28e735ea776009d4d15c34,2020-08-10_18h02.39.204,lexical_decision_task_MP,2020.1.3,Win32,60,m,1,1.44428,,,,,,,,1.44428,1,0,14,14,4,1,1005,WORD,UN,33,abound,SQUEAK,m,,,,,,,,,,,,,,,,,
,,,,,,,,,,,,,,,,,,5e28e735ea776009d4d15c34,2020-08-10_18h02.39.204,lexical_decision_task_MP,2020.1.3,Win32,60,z,1,1.14976,,,,,,,,1.14976,1,0,15,15,10,1,1011,NW,"ID",50,inlade,INLADE,z,,,,,,,,,,,,,,,,,
,space,52.88267,0.124444444,-0.394444444,0,0,0,,,,,,1,end_of_practice,"You have completed the practice trials. During the experimental trials, you will not receive feedback, but it is very important that you respond as quickly and accurately as possible. 
Before you begin, please ensure that you are in a comfortable and quiet location and will not be disturbed for about 15 minutes, as we cannot use your data if you do not complete all the trials. 
There will be opportunities to take breaks at regular intervals during the experiment. When you are ready to start the experimental trials, please press space or touch the button below.",,,5e28e735ea776009d4d15c34,2020-08-10_18h02.39.204,lexical_decision_task_MP,2020.1.3,Win32,60,,,,,,,,,,,,,,,,,,,,,,,,,0,0,0,0,1,,,,,,,,,,,,
,,,,,,,,,,,,,,,,,,5e28e735ea776009d4d15c34,2020-08-10_18h02.39.204,lexical_decision_task_MP,2020.1.3,Win32,60,z,1,1.133475,,,,,,,,1.133475,1,,,,,,480,NW,UN,33,knisma,ROBULY,z,,,,,,0.124444444,-0.394444444,0,0,0,,0,0,0,419,1,
,,,,,,,,,,,,,,,,,,5e28e735ea776009d4d15c34,2020-08-10_18h02.39.204,lexical_decision_task_MP,2020.1.3,Win32,60,m,1,0.97437,,,,,,,,0.97437,1,,,,,,14,WORD,UN,50,orange,ALMOST,m,,,,,,0.124444444,-0.394444444,0,0,0,,0,1,1,193,1,
,,,,,,,,,,,,,,,,,,5e28e735ea776009d4d15c34,2020-08-10_18h02.39.204,lexical_decision_task_MP,2020.1.3,Win32,60,z,1,1.25356,,,,,,,,1.25356,1,,,,,,284,NW,UN,50,prudge,SHAPLE,z,,,,,,0.124444444,-0.394444444,0,0,0,,0,2,2,463,1,
,,,,,,,,,,,,,,,,,,5e28e735ea776009d4d15c34,2020-08-10_18h02.39.204,lexical_decision_task_MP,2020.1.3,Win32,60,z,1,0.92186,,,,,,,,0.92186,1,,,,,,327,NW,"ID",33,plenac,PLENAC,z,,,,,,0.124444444,-0.394444444,0,0,0,,0,3,3,266,1,
,,,,,,,,,,,,,,,,,,5e28e735ea776009d4d15c34,2020-08-10_18h02.39.204,lexical_decision_task_MP,2020.1.3,Win32,60,z,1,1.034055,,,,,,,,1.034055,1,,,,,,249,NW,UN,50,milted,BATROL,z,,,,,,0.124444444,-0.394444444,0,0,0,,0,4,4,428,1,
,,,,,,,,,,,,,,,,,,5e28e735ea776009d4d15c34,2020-08-10_18h02.39.204,lexical_decision_task_MP,2020.1.3,Win32,60,m,1,0.78246,,,,,,,,0.78246,1,,,,,,128,WORD,"ID",50,senior,SENIOR,m,,,,,,0.124444444,-0.394444444,0,0,0,,0,5,5,67,1,
,,,,,,,,,,,,,,,,,,5e28e735ea776009d4d15c34,2020-08-10_18h02.39.204,lexical_decision_task_MP,2020.1.3,Win32,60,m,1,1.624385,,,,,,,,1.624385,1,,,,,,97,WORD,"ID",33,client,CLIENT,m,,,,,,0.124444444,-0.394444444,0,0,0,,0,6,6,36,1,
,,,,,,,,,,,,,,,,,,5e28e735ea776009d4d15c34,2020-08-10_18h02.39.204,lexical_decision_task_MP,2020.1.3,Win32,60,m,1,0.863485,,,,,,,,0.863485,1,,,,,,198,WORD,UN,33,invoke,WICKED,m,,,,,,0.124444444,-0.394444444,0,0,0,,0,7,7,137,1,
,,,,,,,,,,,,,,,,,,5e28e735ea776009d4d15c34,2020-08-10_18h02.39.204,lexical_decision_task_MP,2020.1.3,Win32,60,m,1,0.74,,,,,,,,0.74,1,,,,,,60,WORD,UN,50,fright,PENCIL,m,,,,,,0.124444444,-0.394444444,0,0,0,,0,8,8,239,1,
,,,,,,,,,,,,,,,,,,5e28e735ea776009d4d15c34,2020-08-10_18h02.39.204,lexical_decision_task_MP,2020.1.3,Win32,60,m,1,0.721595,,,,,,,,0.721595,1,,,,,,34,WORD,UN,50,socket,JUNGLE,m,,,,,,0.124444444,-0.394444444,0,0,0,,0,9,9,213,1,
,,,,,,,,,,,,,,,,,,5e28e735ea776009d4d15c34,2020-08-10_18h02.39.204,lexical_decision_task_MP,2020.1.3,Win32,60,m,1,1.081475,,,,,,,,1.081475,1,,,,,,59,WORD,UN,50,pencil,SPLINT,m,,,,,,0.124444444,-0.394444444,0,0,0,,0,10,10,238,1,
,,,,,,,,,,,,,,,,,,5e28e735ea776009d4d15c34,2020-08-10_18h02.39.204,lexical_decision_task_MP,2020.1.3,Win32,60,m,1,0.839095,,,,,,,,0.839095,1,,,,,,119,WORD,"ID",33,spider,SPIDER,m,,,,,,0.124444444,-0.394444444,0,0,0,,0,11,11,58,1,
,,,,,,,,,,,,,,,,,,5e28e735ea776009d4d15c34,2020-08-10_18h02.39.204,lexical_decision_task_MP,2020.1.3,Win32,60,z,1,0.969955,,,,,,,,0.969955,1,,,,,,464,NW,UN,33,whivex,CHAITE,z,,,,,,0.124444444,-0.394444444,0,0,0,,0,12,12,403,1,
,,,,,,,,,,,,,,,,,,5e28e735ea776009d4d15c34,2020-08-10_18h02.39.204,lexical_decision_task_MP,2020.1.3,Win32,60,z,1,0.84877,,,,,,,,0.84877,1,,,,,,265,NW,UN,50,varmit,DISTAR,z,,,,,,0.124444444,-0.394444444,0,0,0,,0,13,13,444,1,
,,,,,,,,,,,,,,,,,,5e28e735ea776009d4d15c34,2020-08-10_18h02.39.204,lexical_decision_task_MP,2020.1.3,Win32,60,m,1,0.98008,,,,,,,,0.98008,1,,,,,,156,WORD,"ID",50,cradle,CRADLE,m,,,,,,0.124444444,-0.394444444,0,0,0,,0,14,14,95,1,
,,,,,,,,,,,,,,,,,,5e28e735ea776009d4d15c34,2020-08-10_18h02.39.204,lexical_decision_task_MP,2020.1.3,Win32,60,m,1,0.884065,,,,,,,,0.884065,1,,,,,,192,WORD,UN,33,object,PLAGUE,m,,,,,,0.124444444,-0.394444444,0,0,0,,0,15,15,131,1,
,,,,,,,,,,,,,,,,,,5e28e735ea776009d4d15c34,2020-08-10_18h02.39.204,lexical_decision_task_MP,2020.1.3,Win32,60,z,1,1.199355,,,,,,,,1.199355,1,,,,,,365,NW,"ID",50,guairt,GUAIRT,z,,,,,,0.124444444,-0.394444444,0,0,0,,0,16,16,304,1,
,,,,,,,,,,,,,,,,,,5e28e735ea776009d4d15c34,2020-08-10_18h02.39.204,lexical_decision_task_MP,2020.1.3,Win32,60,m,1,0.930815,,,,,,,,0.930815,1,,,,,,160,WORD,"ID",50,violet,VIOLET,m,,,,,,0.124444444,-0.394444444,0,0,0,,0,17,17,99,1,
,,,,,,,,,,,,,,,,,,5e28e735ea776009d4d15c34,2020-08-10_18h02.39.204,lexical_decision_task_MP,2020.1.3,Win32,60,m,1,0.887575,,,,,,,,0.887575,1,,,,,,36,WORD,UN,50,insult,VANISH,m,,,,,,0.124444444,-0.394444444,0,0,0,,0,18,18,215,1,
,,,,,,,,,,,,,,,,,,5e28e735ea776009d4d15c34,2020-08-10_18h02.39.204,lexical_decision_task_MP,2020.1.3,Win32,60,m,1,0.80532,,,,,,,,0.80532,1,,,,,,25,WORD,UN,50,sprint,DOMAIN,m,,,,,,0.124444444,-0.394444444,0,0,0,,0,19,19,204,1,
,,,,,,,,,,,,,,,,,,5e28e735ea776009d4d15c34,2020-08-10_18h02.39.204,lexical_decision_task_MP,2020.1.3,Win32,60,m,1,1.33711,,,,,,,,1.33711,1,,,,,,70,WORD,"ID",33,square,SQUARE,m,,,,,,0.124444444,-0.394444444,0,0,0,,0,20,20,9,1,
,,,,,,,,,,,,,,,,,,5e28e735ea776009d4d15c34,2020-08-10_18h02.39.204,lexical_decision_task_MP,2020.1.3,Win32,60,z,1,1.329925,,,,,,,,1.329925,1,,,,,,342,NW,"ID",33,randow,RANDOW,z,,,,,,0.124444444,-0.394444444,0,0,0,,0,21,21,281,1,
,,,,,,,,,,,,,,,,,,5e28e735ea776009d4d15c34,2020-08-10_18h02.39.204,lexical_decision_task_MP,2020.1.3,Win32,60,m,1,0.947615,,,,,,,,0.947615,1,,,,,,50,WORD,UN,50,hungry,SNATCH,m,,,,,,0.124444444,-0.394444444,0,0,0,,0,22,22,229,1,
,,,,,,,,,,,,,,,,,,5e28e735ea776009d4d15c34,2020-08-10_18h02.39.204,lexical_decision_task_MP,2020.1.3,Win32,60,m,1,1.151685,,,,,,,,1.151685,1,,,,,,111,WORD,"ID",33,induce,INDUCE,m,,,,,,0.124444444,-0.394444444,0,0,0,,0,23,23,50,1,
,,,,,,,,,,,,,,,,,,5e28e735ea776009d4d15c34,2020-08-10_18h02.39.204,lexical_decision_task_MP,2020.1.3,Win32,60,m,1,0.847625,,,,,,,,0.847625,1,,,,,,187,WORD,UN,33,social,COURSE,m,,,,,,0.124444444,-0.394444444,0,0,0,,0,24,24,126,1,
,,,,,,,,,,,,,,,,,,5e28e735ea776009d4d15c34,2020-08-10_18h02.39.204,lexical_decision_task_MP,2020.1.3,Win32,60,m,1,0.82,,,,,,,,0.82,1,,,,,,228,WORD,UN,33,kidney,MASTER,m,,,,,,0.124444444,-0.394444444,0,0,0,,0,25,25,167,1,
,,,,,,,,,,,,,,,,,,5e28e735ea776009d4d15c34,2020-08-10_18h02.39.204,lexical_decision_task_MP,2020.1.3,Win32,60,m,1,0.744365,,,,,,,,0.744365,1,,,,,,233,WORD,UN,33,clumsy,NATURE,m,,,,,,0.124444444,-0.394444444,0,0,0,,0,26,26,172,1,
,,,,,,,,,,,,,,,,,,5e28e735ea776009d4d15c34,2020-08-10_18h02.39.204,lexical_decision_task_MP,2020.1.3,Win32,60,z,1,1.33989,,,,,,,,1.33989,1,,,,,,431,NW,UN,33,lunker,CHRUMS,z,,,,,,0.124444444,-0.394444444,0,0,0,,0,27,27,370,1,
,,,,,,,,,,,,,,,,,,5e28e735ea776009d4d15c34,2020-08-10_18h02.39.204,lexical_decision_task_MP,2020.1.3,Win32,60,z,1,1.487435,,,,,,,,1.487435,1,,,,,,275,NW,UN,50,yarmon,SLEIRT,z,,,,,,0.124444444,-0.394444444,0,0,0,,0,28,28,454,1,
,,,,,,,,,,,,,,,,,,5e28e735ea776009d4d15c34,2020-08-10_18h02.39.204,lexical_decision_task_MP,2020.1.3,Win32,60,m,1,1.466295,,,,,,,,1.466295,1,,,,,,84,WORD,"ID",33,mortal,MORTAL,m,,,,,,0.124444444,-0.394444444,0,0,0,,0,29,29,23,1,
,,,,,,,,,,,,,,,,,,5e28e735ea776009d4d15c34,2020-08-10_18h02.39.204,lexical_decision_task_MP,2020.1.3,Win32,60,z,1,0.975515,,,,,,,,0.975515,1,,,,,,277,NW,UN,50,unighs,PETAIN,z,,,,,,0.124444444,-0.394444444,0,0,0,,0,30,30,456,1,
,,,,,,,,,,,,,,,,,,5e28e735ea776009d4d15c34,2020-08-10_18h02.39.204,lexical_decision_task_MP,2020.1.3,Win32,60,m,1,0.727015,,,,,,,,0.727015,1,,,,,,20,WORD,UN,50,simple,BREAST,m,,,,,,0.124444444,-0.394444444,0,0,0,,0,31,31,199,1,
,,,,,,,,,,,,,,,,,,5e28e735ea776009d4d15c34,2020-08-10_18h02.39.204,lexical_decision_task_MP,2020.1.3,Win32,60,m,1,1.33419,,,,,,,,1.33419,1,,,,,,123,WORD,"ID",50,strike,STRIKE,m,,,,,,0.124444444,-0.394444444,0,0,0,,0,32,32,62,1,
,,,,,,,,,,,,,,,,,,5e28e735ea776009d4d15c34,2020-08-10_18h02.39.204,lexical_decision_task_MP,2020.1.3,Win32,60,m,1,0.654295,,,,,,,,0.654295,1,,,,,,238,WORD,UN,33,behalf,FLOWER,m,,,,,,0.124444444,-0.394444444,0,0,0,,0,33,33,177,1,
,,,,,,,,,,,,,,,,,,5e28e735ea776009d4d15c34,2020-08-10_18h02.39.204,lexical_decision_task_MP,2020.1.3,Win32,60,z,1,1.148235,,,,,,,,1.148235,1,,,,,,393,NW,"ID",50,ganous,GANOUS,z,,,,,,0.124444444,-0.394444444,0,0,0,,0,34,34,332,1,
,,,,,,,,,,,,,,,,,,5e28e735ea776009d4d15c34,2020-08-10_18h02.39.204,lexical_decision_task_MP,2020.1.3,Win32,60,m,1,1.005685,,,,,,,,1.005685,1,,,,,,216,WORD,UN,33,liquor,BEHALF,m,,,,,,0.124444444,-0.394444444,0,0,0,,0,35,35,155,1,
,,,,,,,,,,,,,,,,,,5e28e735ea776009d4d15c34,2020-08-10_18h02.39.204,lexical_decision_task_MP,2020.1.3,Win32,60,m,1,0.846645,,,,,,,,0.846645,1,,,,,,55,WORD,UN,50,ambush,STROKE,m,,,,,,0.124444444,-0.394444444,0,0,0,,0,36,36,234,1,
,,,,,,,,,,,,,,,,,,5e28e735ea776009d4d15c34,2020-08-10_18h02.39.204,lexical_decision_task_MP,2020.1.3,Win32,60,z,1,0.95042,,,,,,,,0.95042,1,,,,,,258,NW,UN,50,soudal,POLUTH,z,,,,,,0.124444444,-0.394444444,0,0,0,,0,37,37,437,1,
,,,,,,,,,,,,,,,,,,5e28e735ea776009d4d15c34,2020-08-10_18h02.39.204,lexical_decision_task_MP,2020.1.3,Win32,60,m,1,0.95751,,,,,,,,0.95751,1,,,,,,167,WORD,"ID",50,design,DESIGN,m,,,,,,0.124444444,-0.394444444,0,0,0,,0,38,38,106,1,
,,,,,,,,,,,,,,,,,,5e28e735ea776009d4d15c34,2020-08-10_18h02.39.204,lexical_decision_task_MP,2020.1.3,Win32,60,m,1,0.92141,,,,,,,,0.92141,1,,,,,,158,WORD,"ID",50,island,ISLAND,m,,,,,,0.124444444,-0.394444444,0,0,0,,0,39,39,97,1,
,,,,,,,,,,,,,,,,,,5e28e735ea776009d4d15c34,2020-08-10_18h02.39.204,lexical_decision_task_MP,2020.1.3,Win32,60,z,1,1.06278,,,,,,,,1.06278,1,,,,,,245,NW,UN,50,piaton,ANOUGS,z,,,,,,0.124444444,-0.394444444,0,0,0,,0,40,40,424,1,
,,,,,,,,,,,,,,,,,,5e28e735ea776009d4d15c34,2020-08-10_18h02.39.204,lexical_decision_task_MP,2020.1.3,Win32,60,z,1,1.166895,,,,,,,,1.166895,1,,,,,,382,NW,"ID",50,sarley,SARLEY,z,,,,,,0.124444444,-0.394444444,0,0,0,,0,41,41,321,1,
,,,,,,,,,,,,,,,,,,5e28e735ea776009d4d15c34,2020-08-10_18h02.39.204,lexical_decision_task_MP,2020.1.3,Win32,60,z,1,0.81742,,,,,,,,0.81742,1,,,,,,302,NW,"ID",33,miluer,MILUER,z,,,,,,0.124444444,-0.394444444,0,0,0,,0,42,42,241,1,
,,,,,,,,,,,,,,,,,,5e28e735ea776009d4d15c34,2020-08-10_18h02.39.204,lexical_decision_task_MP,2020.1.3,Win32,60,z,1,0.883335,,,,,,,,0.883335,1,,,,,,418,NW,"ID",50,suidle,SUIDLE,z,,,,,,0.124444444,-0.394444444,0,0,0,,0,43,43,357,1,
,,,,,,,,,,,,,,,,,,5e28e735ea776009d4d15c34,2020-08-10_18h02.39.204,lexical_decision_task_MP,2020.1.3,Win32,60,z,1,1.00012,,,,,,,,1.00012,1,,,,,,341,NW,"ID",33,myrtie,MYRTIE,z,,,,,,0.124444444,-0.394444444,0,0,0,,0,44,44,280,1,
,,,,,,,,,,,,,,,,,,5e28e735ea776009d4d15c34,2020-08-10_18h02.39.204,lexical_decision_task_MP,2020.1.3,Win32,60,z,1,1.179945,,,,,,,,1.179945,1,,,,,,271,NW,UN,50,damilt,AUBRID,z,,,,,,0.124444444,-0.394444444,0,0,0,,0,45,45,450,1,
,,,,,,,,,,,,,,,,,,5e28e735ea776009d4d15c34,2020-08-10_18h02.39.204,lexical_decision_task_MP,2020.1.3,Win32,60,m,1,0.685215,,,,,,,,0.685215,1,,,,,,129,WORD,"ID",50,marvel,MARVEL,m,,,,,,0.124444444,-0.394444444,0,0,0,,0,46,46,68,1,
,,,,,,,,,,,,,,,,,,5e28e735ea776009d4d15c34,2020-08-10_18h02.39.204,lexical_decision_task_MP,2020.1.3,Win32,60,z,1,1.194985,,,,,,,,1.194985,1,,,,,,312,NW,"ID",33,nerawl,NERAWL,z,,,,,,0.124444444,-0.394444444,0,0,0,,0,47,47,251,1,
,,,,,,,,,,,,,,,,,,5e28e735ea776009d4d15c34,2020-08-10_18h02.39.204,lexical_decision_task_MP,2020.1.3,Win32,60,m,1,0.782165,,,,,,,,0.782165,1,,,,,,234,WORD,UN,33,poster,CLUMSY,m,,,,,,0.124444444,-0.394444444,0,0,0,,0,48,48,173,1,
,,,,,,,,,,,,,,,,,,5e28e735ea776009d4d15c34,2020-08-10_18h02.39.204,lexical_decision_task_MP,2020.1.3,Win32,60,m,1,1.21254,,,,,,,,1.21254,1,,,,,,10,WORD,UN,50,cruise,ETHNIC,m,,,,,,0.124444444,-0.394444444,0,0,0,,0,49,49,189,1,
,,,,,,,,,,,,,,,,,,5e28e735ea776009d4d15c34,2020-08-10_18h02.39.204,lexical_decision_task_MP,2020.1.3,Win32,60,m,1,0.78109,,,,,,,,0.78109,1,,,,,,239,WORD,UN,33,forest,LUMBER,m,,,,,,0.124444444,-0.394444444,0,0,0,,0,50,50,178,1,
,,,,,,,,,,,,,,,,,,5e28e735ea776009d4d15c34,2020-08-10_18h02.39.204,lexical_decision_task_MP,2020.1.3,Win32,60,z,1,1.081695,,,,,,,,1.081695,1,,,,,,247,NW,UN,50,strole,BLARGE,z,,,,,,0.124444444,-0.394444444,0,0,0,,0,51,51,426,1,
,,,,,,,,,,,,,,,,,,5e28e735ea776009d4d15c34,2020-08-10_18h02.39.204,lexical_decision_task_MP,2020.1.3,Win32,60,z,1,1.122375,,,,,,,,1.122375,1,,,,,,413,NW,"ID",50,equats,EQUATS,z,,,,,,0.124444444,-0.394444444,0,0,0,,0,52,52,352,1,
,,,,,,,,,,,,,,,,,,5e28e735ea776009d4d15c34,2020-08-10_18h02.39.204,lexical_decision_task_MP,2020.1.3,Win32,60,z,1,1.268285,,,,,,,,1.268285,1,,,,,,475,NW,UN,33,josted,PEBRIC,z,,,,,,0.124444444,-0.394444444,0,0,0,,0,53,53,414,1,
,,,,,,,,,,,,,,,,,,5e28e735ea776009d4d15c34,2020-08-10_18h02.39.204,lexical_decision_task_MP,2020.1.3,Win32,60,m,1,1.135235,,,,,,,,1.135235,1,,,,,,176,WORD,"ID",50,strife,STRIFE,m,,,,,,0.124444444,-0.394444444,0,0,0,,0,54,54,115,1,
,,,,,,,,,,,,,,,,,,5e28e735ea776009d4d15c34,2020-08-10_18h02.39.204,lexical_decision_task_MP,2020.1.3,Win32,60,m,1,0.78714,,,,,,,,0.78714,1,,,,,,39,WORD,UN,50,convey,INSECT,m,,,,,,0.124444444,-0.394444444,0,0,0,,0,55,55,218,1,
,,,,,,,,,,,,,,,,,,5e28e735ea776009d4d15c34,2020-08-10_18h02.39.204,lexical_decision_task_MP,2020.1.3,Win32,60,z,1,1.12564,,,,,,,,1.12564,1,,,,,,273,NW,UN,50,fumblo,SORTEL,z,,,,,,0.124444444,-0.394444444,0,0,0,,0,56,56,452,1,
,,,,,,,,,,,,,,,,,,5e28e735ea776009d4d15c34,2020-08-10_18h02.39.204,lexical_decision_task_MP,2020.1.3,Win32,60,m,1,0.97002,,,,,,,,0.97002,1,,,,,,90,WORD,"ID",33,relish,RELISH,m,,,,,,0.124444444,-0.394444444,0,0,0,,0,57,57,29,1,
,,,,,,,,,,,,,,,,,,5e28e735ea776009d4d15c34,2020-08-10_18h02.39.204,lexical_decision_task_MP,2020.1.3,Win32,60,z,1,1.36581,,,,,,,,1.36581,1,,,,,,449,NW,UN,33,phrect,BRUNGE,z,,,,,,0.124444444,-0.394444444,0,0,0,,0,58,58,388,1,
,,,,,,,,,,,,,,,,,,5e28e735ea776009d4d15c34,2020-08-10_18h02.39.204,lexical_decision_task_MP,2020.1.3,Win32,60,z,1,1.193105,,,,,,,,1.193105,1,,,,,,372,NW,"ID",50,ramily,RAMILY,z,,,,,,0.124444444,-0.394444444,0,0,0,,0,59,59,311,1,
,,,,,,,,,,,,,,,,,,5e28e735ea776009d4d15c34,2020-08-10_18h02.39.204,lexical_decision_task_MP,2020.1.3,Win32,60,m,1,0.897045,,,,,,,,0.897045,1,,,,,,89,WORD,"ID",33,permit,PERMIT,m,,,,,,0.124444444,-0.394444444,0,0,0,,0,60,60,28,1,
,,,,,,,,,,,,,,,,,,5e28e735ea776009d4d15c34,2020-08-10_18h02.39.204,lexical_decision_task_MP,2020.1.3,Win32,60,m,1,0.975575,,,,,,,,0.975575,1,,,,,,168,WORD,"ID",50,answer,ANSWER,m,,,,,,0.124444444,-0.394444444,0,0,0,,0,61,61,107,1,
,,,,,,,,,,,,,,,,,,5e28e735ea776009d4d15c34,2020-08-10_18h02.39.204,lexical_decision_task_MP,2020.1.3,Win32,60,m,1,1.296725,,,,,,,,1.296725,1,,,,,,131,WORD,"ID",50,quench,QUENCH,m,,,,,,0.124444444,-0.394444444,0,0,0,,0,62,62,70,1,
,,,,,,,,,,,,,,,,,,5e28e735ea776009d4d15c34,2020-08-10_18h02.39.204,lexical_decision_task_MP,2020.1.3,Win32,60,m,1,0.91777,,,,,,,,0.91777,1,,,,,,13,WORD,UN,50,almost,STRIVE,m,,,,,,0.124444444,-0.394444444,0,0,0,,0,63,63,192,1,
,,,,,,,,,,,,,,,,,,5e28e735ea776009d4d15c34,2020-08-10_18h02.39.204,lexical_decision_task_MP,2020.1.3,Win32,60,z,1,1.457325,,,,,,,,1.457325,1,,,,,,253,NW,UN,50,varosh,RESAIT,z,,,,,,0.124444444,-0.394444444,0,0,0,,0,64,64,432,1,
,,,,,,,,,,,,,,,,,,5e28e735ea776009d4d15c34,2020-08-10_18h02.39.204,lexical_decision_task_MP,2020.1.3,Win32,60,z,1,0.996305,,,,,,,,0.996305,1,,,,,,241,NW,UN,50,unwert,SMENCO,z,,,,,,0.124444444,-0.394444444,0,0,0,,0,65,65,420,1,
,,,,,,,,,,,,,,,,,,5e28e735ea776009d4d15c34,2020-08-10_18h02.39.204,lexical_decision_task_MP,2020.1.3,Win32,60,m,1,0.99601,,,,,,,,0.99601,1,,,,,,23,WORD,UN,50,praise,WEALTH,m,,,,,,0.124444444,-0.394444444,0,0,0,,0,66,66,202,1,
,,,,,,,,,,,,,,,,,,5e28e735ea776009d4d15c34,2020-08-10_18h02.39.204,lexical_decision_task_MP,2020.1.3,Win32,60,m,1,0.81324,,,,,,,,0.81324,1,,,,,,109,WORD,"ID",33,wonder,WONDER,m,,,,,,0.124444444,-0.394444444,0,0,0,,0,67,67,48,1,
,,,,,,,,,,,,,,,,,,5e28e735ea776009d4d15c34,2020-08-10_18h02.39.204,lexical_decision_task_MP,2020.1.3,Win32,60,m,1,0.98046,,,,,,,,0.98046,1,,,,,,103,WORD,"ID",33,bounce,BOUNCE,m,,,,,,0.124444444,-0.394444444,0,0,0,,0,68,68,42,1,
,,,,,,,,,,,,,,,,,,5e28e735ea776009d4d15c34,2020-08-10_18h02.39.204,lexical_decision_task_MP,2020.1.3,Win32,60,m,1,0.57244,,,,,,,,0.57244,1,,,,,,220,WORD,UN,33,mascot,VOYAGE,m,,,,,,0.124444444,-0.394444444,0,0,0,,0,69,69,159,1,
,,,,,,,,,,,,,,,,,,5e28e735ea776009d4d15c34,2020-08-10_18h02.39.204,lexical_decision_task_MP,2020.1.3,Win32,60,z,1,0.94748,,,,,,,,0.94748,1,,,,,,264,NW,UN,50,distar,VACKEL,z,,,,,,0.124444444,-0.394444444,0,0,0,,0,70,70,443,1,
,,,,,,,,,,,,,,,,,,5e28e735ea776009d4d15c34,2020-08-10_18h02.39.204,lexical_decision_task_MP,2020.1.3,Win32,60,z,1,0.84959,,,,,,,,0.84959,1,,,,,,354,NW,"ID",33,virlex,VIRLEX,z,,,,,,0.124444444,-0.394444444,0,0,0,,0,71,71,293,1,
,,,,,,,,,,,,,,,,,,5e28e735ea776009d4d15c34,2020-08-10_18h02.39.204,lexical_decision_task_MP,2020.1.3,Win32,60,m,1,1.05048,,,,,,,,1.05048,1,,,,,,208,WORD,UN,33,search,HOCKEY,m,,,,,,0.124444444,-0.394444444,0,0,0,,0,72,72,147,1,
,,,,,,,,,,,,,,,,,,5e28e735ea776009d4d15c34,2020-08-10_18h02.39.204,lexical_decision_task_MP,2020.1.3,Win32,60,m,1,0.88466,,,,,,,,0.88466,1,,,,,,134,WORD,"ID",50,staple,STAPLE,m,,,,,,0.124444444,-0.394444444,0,0,0,,0,73,73,73,1,
,,,,,,,,,,,,,,,,,,5e28e735ea776009d4d15c34,2020-08-10_18h02.39.204,lexical_decision_task_MP,2020.1.3,Win32,60,z,1,0.862375,,,,,,,,0.862375,1,,,,,,262,NW,UN,50,dolica,QUILEW,z,,,,,,0.124444444,-0.394444444,0,0,0,,0,74,74,441,1,
,,,,,,,,,,,,,,,,,,5e28e735ea776009d4d15c34,2020-08-10_18h02.39.204,lexical_decision_task_MP,2020.1.3,Win32,60,z,1,0.965835,,,,,,,,0.965835,1,,,,,,353,NW,"ID",33,clurey,CLUREY,z,,,,,,0.124444444,-0.394444444,0,0,0,,0,75,75,292,1,
,,,,,,,,,,,,,,,,,,5e28e735ea776009d4d15c34,2020-08-10_18h02.39.204,lexical_decision_task_MP,2020.1.3,Win32,60,z,1,0.96992,,,,,,,,0.96992,1,,,,,,322,NW,"ID",33,slanch,SLANCH,z,,,,,,0.124444444,-0.394444444,0,0,0,,0,76,76,261,1,
,,,,,,,,,,,,,,,,,,5e28e735ea776009d4d15c34,2020-08-10_18h02.39.204,lexical_decision_task_MP,2020.1.3,Win32,60,z,0,1.328735,,,,,,,,1.328735,0,,,,,,197,WORD,UN,33,wicked,STREAM,m,,,,,,0.124444444,-0.394444444,0,0,0,,0,77,77,136,1,
,,,,,,,,,,,,,,,,,,5e28e735ea776009d4d15c34,2020-08-10_18h02.39.204,lexical_decision_task_MP,2020.1.3,Win32,60,m,1,0.66459,,,,,,,,0.66459,1,,,,,,169,WORD,"ID",50,genius,GENIUS,m,,,,,,0.124444444,-0.394444444,0,0,0,,0,78,78,108,1,
,,,,,,,,,,,,,,,,,,5e28e735ea776009d4d15c34,2020-08-10_18h02.39.204,lexical_decision_task_MP,2020.1.3,Win32,60,m,1,0.617765,,,,,,,,0.617765,1,,,,,,141,WORD,"ID",50,orphan,ORPHAN,m,,,,,,0.124444444,-0.394444444,0,0,0,,0,79,79,80,1,
,,,,,,,,,,,,,,,,,,5e28e735ea776009d4d15c34,2020-08-10_18h02.39.204,lexical_decision_task_MP,2020.1.3,Win32,60,m,1,0.63076,,,,,,,,0.63076,1,,,,,,80,WORD,"ID",33,family,FAMILY,m,,,,,,0.124444444,-0.394444444,0,0,0,,0,80,80,19,1,
,,,,,,,,,,,,,,,,,,5e28e735ea776009d4d15c34,2020-08-10_18h02.39.204,lexical_decision_task_MP,2020.1.3,Win32,60,m,1,0.800645,,,,,,,,0.800645,1,,,,,,68,WORD,"ID",33,fumble,FUMBLE,m,,,,,,0.124444444,-0.394444444,0,0,0,,0,81,81,7,1,
,,,,,,,,,,,,,,,,,,5e28e735ea776009d4d15c34,2020-08-10_18h02.39.204,lexical_decision_task_MP,2020.1.3,Win32,60,m,1,0.695075,,,,,,,,0.695075,1,,,,,,136,WORD,"ID",50,bleach,BLEACH,m,,,,,,0.124444444,-0.394444444,0,0,0,,0,82,82,75,1,
,,,,,,,,,,,,,,,,,,5e28e735ea776009d4d15c34,2020-08-10_18h02.39.204,lexical_decision_task_MP,2020.1.3,Win32,60,m,1,1.26681,,,,,,,,1.26681,1,,,,,,29,WORD,UN,50,orient,SKETCH,m,,,,,,0.124444444,-0.394444444,0,0,0,,0,83,83,208,1,
,,,,,,,,,,,,,,,,,,5e28e735ea776009d4d15c34,2020-08-10_18h02.39.204,lexical_decision_task_MP,2020.1.3,Win32,60,z,1,1.129805,,,,,,,,1.129805,1,,,,,,426,NW,UN,33,schind,URIVEL,z,,,,,,0.124444444,-0.394444444,0,0,0,,0,84,84,365,1,
,,,,,,,,,,,,,,,,,,5e28e735ea776009d4d15c34,2020-08-10_18h02.39.204,lexical_decision_task_MP,2020.1.3,Win32,60,z,1,0.792735,,,,,,,,0.792735,1,,,,,,279,NW,UN,50,curbol,CELOND,z,,,,,,0.124444444,-0.394444444,0,0,0,,0,85,85,458,1,
,,,,,,,,,,,,,,,,,,5e28e735ea776009d4d15c34,2020-08-10_18h02.39.204,lexical_decision_task_MP,2020.1.3,Win32,60,z,1,0.87186,,,,,,,,0.87186,1,,,,,,361,NW,"ID",50,pauche,PAUCHE,z,,,,,,0.124444444,-0.394444444,0,0,0,,0,86,86,300,1,
,,,,,,,,,,,,,,,,,,5e28e735ea776009d4d15c34,2020-08-10_18h02.39.204,lexical_decision_task_MP,2020.1.3,Win32,60,z,1,0.891585,,,,,,,,0.891585,1,,,,,,334,NW,"ID",33,watmeg,WATMEG,z,,,,,,0.124444444,-0.394444444,0,0,0,,0,87,87,273,1,
,,,,,,,,,,,,,,,,,,5e28e735ea776009d4d15c34,2020-08-10_18h02.39.204,lexical_decision_task_MP,2020.1.3,Win32,60,z,1,0.735425,,,,,,,,0.735425,1,,,,,,280,NW,UN,50,melaty,CURBOL,z,,,,,,0.124444444,-0.394444444,0,0,0,,0,88,88,459,1,
,,,,,,,,,,,,,,,,,,5e28e735ea776009d4d15c34,2020-08-10_18h02.39.204,lexical_decision_task_MP,2020.1.3,Win32,60,z,1,1.25928,,,,,,,,1.25928,1,,,,,,453,NW,UN,33,scouge,BOLVIS,z,,,,,,0.124444444,-0.394444444,0,0,0,,0,89,89,392,1,
,,,,,,,,,,,,,,,,,,5e28e735ea776009d4d15c34,2020-08-10_18h02.39.204,lexical_decision_task_MP,2020.1.3,Win32,60,z,1,1.20553,,,,,,,,1.20553,1,,,,,,436,NW,UN,33,snapel,FRUTAN,z,,,,,,0.124444444,-0.394444444,0,0,0,,0,90,90,375,1,
,,,,,,,,,,,,,,,,,,5e28e735ea776009d4d15c34,2020-08-10_18h02.39.204,lexical_decision_task_MP,2020.1.3,Win32,60,z,1,0.7904,,,,,,,,0.7904,1,,,,,,355,NW,"ID",33,zingly,ZINGLY,z,,,,,,0.124444444,-0.394444444,0,0,0,,0,91,91,294,1,
,,,,,,,,,,,,,,,,,,5e28e735ea776009d4d15c34,2020-08-10_18h02.39.204,lexical_decision_task_MP,2020.1.3,Win32,60,z,1,0.802585,,,,,,,,0.802585,1,,,,,,263,NW,UN,50,vackel,DOLICA,z,,,,,,0.124444444,-0.394444444,0,0,0,,0,92,92,442,1,
,,,,,,,,,,,,,,,,,,5e28e735ea776009d4d15c34,2020-08-10_18h02.39.204,lexical_decision_task_MP,2020.1.3,Win32,60,m,1,1.141105,,,,,,,,1.141105,1,,,,,,53,WORD,UN,50,ramble,POLICE,m,,,,,,0.124444444,-0.394444444,0,0,0,,0,93,93,232,1,
,,,,,,,,,,,,,,,,,,5e28e735ea776009d4d15c34,2020-08-10_18h02.39.204,lexical_decision_task_MP,2020.1.3,Win32,60,m,1,1.395045,,,,,,,,1.395045,1,,,,,,8,WORD,UN,50,hustle,ABRUPT,m,,,,,,0.124444444,-0.394444444,0,0,0,,0,94,94,187,1,
,,,,,,,,,,,,,,,,,,5e28e735ea776009d4d15c34,2020-08-10_18h02.39.204,lexical_decision_task_MP,2020.1.3,Win32,60,m,1,1.01996,,,,,,,,1.01996,1,,,,,,191,WORD,UN,33,beacon,STABLE,m,,,,,,0.124444444,-0.394444444,0,0,0,,0,95,95,130,1,
,,,,,,,,,,,,,,,,,,5e28e735ea776009d4d15c34,2020-08-10_18h02.39.204,lexical_decision_task_MP,2020.1.3,Win32,60,m,1,0.659005,,,,,,,,0.659005,1,,,,,,24,WORD,UN,50,domain,PRAISE,m,,,,,,0.124444444,-0.394444444,0,0,0,,0,96,96,203,1,
,,,,,,,,,,,,,,,,,,5e28e735ea776009d4d15c34,2020-08-10_18h02.39.204,lexical_decision_task_MP,2020.1.3,Win32,60,m,0,1.18347,,,,,,,,1.18347,0,,,,,,411,NW,"ID",50,orchin,ORCHIN,z,,,,,,0.124444444,-0.394444444,0,0,0,,0,97,97,350,1,
,,,,,,,,,,,,,,,,,,5e28e735ea776009d4d15c34,2020-08-10_18h02.39.204,lexical_decision_task_MP,2020.1.3,Win32,60,z,1,0.829935,,,,,,,,0.829935,1,,,,,,446,NW,UN,33,gircue,RUNAMO,z,,,,,,0.124444444,-0.394444444,0,0,0,,0,98,98,385,1,
,,,,,,,,,,,,,,,,,,5e28e735ea776009d4d15c34,2020-08-10_18h02.39.204,lexical_decision_task_MP,2020.1.3,Win32,60,z,1,0.8108,,,,,,,,0.8108,1,,,,,,259,NW,UN,50,unject,SOUDAL,z,,,,,,0.124444444,-0.394444444,0,0,0,,0,99,99,438,1,
,,,,,,,,,,,,,,,,,,5e28e735ea776009d4d15c34,2020-08-10_18h02.39.204,lexical_decision_task_MP,2020.1.3,Win32,60,m,1,1.447015,,,,,,,,1.447015,1,,,,,,35,WORD,UN,50,vanish,SOCKET,m,,,,,,0.124444444,-0.394444444,0,0,0,,0,100,100,214,1,
,,,,,,,,,,,,,,,,,,5e28e735ea776009d4d15c34,2020-08-10_18h02.39.204,lexical_decision_task_MP,2020.1.3,Win32,60,m,1,1.311265,,,,,,,,1.311265,1,,,,,,178,WORD,"ID",50,inform,INFORM,m,,,,,,0.124444444,-0.394444444,0,0,0,,0,101,101,117,1,
,,,,,,,,,,,,,,,,,,5e28e735ea776009d4d15c34,2020-08-10_18h02.39.204,lexical_decision_task_MP,2020.1.3,Win32,60,z,1,0.933765,,,,,,,,0.933765,1,,,,,,360,NW,"ID",33,desory,DESORY,z,,,,,,0.124444444,-0.394444444,0,0,0,,0,102,102,299,1,
,,,,,,,,,,,,,,,,,,5e28e735ea776009d4d15c34,2020-08-10_18h02.39.204,lexical_decision_task_MP,2020.1.3,Win32,60,m,1,0.87273,,,,,,,,0.87273,1,,,,,,175,WORD,"ID",50,fabric,FABRIC,m,,,,,,0.124444444,-0.394444444,0,0,0,,0,103,103,114,1,
,,,,,,,,,,,,,,,,,,5e28e735ea776009d4d15c34,2020-08-10_18h02.39.204,lexical_decision_task_MP,2020.1.3,Win32,60,m,1,0.78134,,,,,,,,0.78134,1,,,,,,101,WORD,"ID",33,wrench,WRENCH,m,,,,,,0.124444444,-0.394444444,0,0,0,,0,104,104,40,1,
,,,,,,,,,,,,,,,,,,5e28e735ea776009d4d15c34,2020-08-10_18h02.39.204,lexical_decision_task_MP,2020.1.3,Win32,60,z,1,0.79433,,,,,,,,0.79433,1,,,,,,340,NW,"ID",33,fiatch,FIATCH,z,,,,,,0.124444444,-0.394444444,0,0,0,,0,105,105,279,1,
,,,,,,,,,,,,,,,,,,5e28e735ea776009d4d15c34,2020-08-10_18h02.39.204,lexical_decision_task_MP,2020.1.3,Win32,60,z,1,0.64061,,,,,,,,0.64061,1,,,,,,469,NW,UN,33,crudio,PADIFS,z,,,,,,0.124444444,-0.394444444,0,0,0,,0,106,106,408,1,
,,,,,,,,,,,,,,,,,,5e28e735ea776009d4d15c34,2020-08-10_18h02.39.204,lexical_decision_task_MP,2020.1.3,Win32,60,m,1,1.05281,,,,,,,,1.05281,1,,,,,,38,WORD,UN,50,insect,POWDER,m,,,,,,0.124444444,-0.394444444,0,0,0,,0,107,107,217,1,
,,,,,,,,,,,,,,,,,,5e28e735ea776009d4d15c34,2020-08-10_18h02.39.204,lexical_decision_task_MP,2020.1.3,Win32,60,m,1,0.812045,,,,,,,,0.812045,1,,,,,,144,WORD,"ID",50,sponge,SPONGE,m,,,,,,0.124444444,-0.394444444,0,0,0,,0,108,108,83,1,
,,,,,,,,,,,,,,,,,,5e28e735ea776009d4d15c34,2020-08-10_18h02.39.204,lexical_decision_task_MP,2020.1.3,Win32,60,m,1,1.50184,,,,,,,,1.50184,1,,,,,,140,WORD,"ID",50,prince,PRINCE,m,,,,,,0.124444444,-0.394444444,0,0,0,,0,109,109,79,1,
,,,,,,,,,,,,,,,,,,5e28e735ea776009d4d15c34,2020-08-10_18h02.39.204,lexical_decision_task_MP,2020.1.3,Win32,60,m,0,1.327585,,,,,,,,1.327585,0,,,,,,401,NW,"ID",50,mustil,MUSTIL,z,,,,,,0.124444444,-0.394444444,0,0,0,,0,110,110,340,1,
,,,,,,,,,,,,,,,,,,5e28e735ea776009d4d15c34,2020-08-10_18h02.39.204,lexical_decision_task_MP,2020.1.3,Win32,60,z,1,1.53459,,,,,,,,1.53459,1,,,,,,474,NW,UN,33,acrise,HABLIN,z,,,,,,0.124444444,-0.394444444,0,0,0,,0,111,111,413,1,
,,,,,,,,,,,,,,,,,,5e28e735ea776009d4d15c34,2020-08-10_18h02.39.204,lexical_decision_task_MP,2020.1.3,Win32,60,z,1,1.019155,,,,,,,,1.019155,1,,,,,,357,NW,"ID",33,derain,DERAIN,z,,,,,,0.124444444,-0.394444444,0,0,0,,0,112,112,296,1,
,,,,,,,,,,,,,,,,,,5e28e735ea776009d4d15c34,2020-08-10_18h02.39.204,lexical_decision_task_MP,2020.1.3,Win32,60,m,1,1.149715,,,,,,,,1.149715,1,,,,,,113,WORD,"ID",33,chorus,CHORUS,m,,,,,,0.124444444,-0.394444444,0,0,0,,0,113,113,52,1,
,,,,,,,,,,,,,,,,,,5e28e735ea776009d4d15c34,2020-08-10_18h02.39.204,lexical_decision_task_MP,2020.1.3,Win32,60,z,1,1.349365,,,,,,,,1.349365,1,,,,,,323,NW,"ID",33,rosail,ROSAIL,z,,,,,,0.124444444,-0.394444444,0,0,0,,0,114,114,262,1,
,,,,,,,,,,,,,,,,,,5e28e735ea776009d4d15c34,2020-08-10_18h02.39.204,lexical_decision_task_MP,2020.1.3,Win32,60,z,0,0.897815,,,,,,,,0.897815,0,,,,,,73,WORD,"ID",33,source,SOURCE,m,,,,,,0.124444444,-0.394444444,0,0,0,,0,115,115,12,1,
,,,,,,,,,,,,,,,,,,5e28e735ea776009d4d15c34,2020-08-10_18h02.39.204,lexical_decision_task_MP,2020.1.3,Win32,60,z,1,1.399085,,,,,,,,1.399085,1,,,,,,343,NW,"ID",33,aimosy,AIMOSY,z,,,,,,0.124444444,-0.394444444,0,0,0,,0,116,116,282,1,
,,,,,,,,,,,,,,,,,,5e28e735ea776009d4d15c34,2020-08-10_18h02.39.204,lexical_decision_task_MP,2020.1.3,Win32,60,z,1,1.257775,,,,,,,,1.257775,1,,,,,,316,NW,"ID",33,scregm,SCREGM,z,,,,,,0.124444444,-0.394444444,0,0,0,,0,117,117,255,1,
,,,,,,,,,,,,,,,,,,5e28e735ea776009d4d15c34,2020-08-10_18h02.39.204,lexical_decision_task_MP,2020.1.3,Win32,60,m,1,0.76041,,,,,,,,0.76041,1,,,,,,126,WORD,"ID",50,enough,ENOUGH,m,,,,,,0.124444444,-0.394444444,0,0,0,,0,118,118,65,1,
,,,,,,,,,,,,,,,,,,5e28e735ea776009d4d15c34,2020-08-10_18h02.39.204,lexical_decision_task_MP,2020.1.3,Win32,60,m,1,1.512585,,,,,,,,1.512585,1,,,,,,213,WORD,UN,33,intake,SQUEAL,m,,,,,,0.124444444,-0.394444444,0,0,0,,0,119,119,152,1,
,,,,,,,,,,,,,,,,,,5e28e735ea776009d4d15c34,2020-08-10_18h02.39.204,lexical_decision_task_MP,2020.1.3,Win32,60,m,1,1.23255,,,,,,,,1.23255,1,,,,,,1,WORD,UN,50,ethnic,FRIGHT,m,,,,,,0.124444444,-0.394444444,0,0,0,space,0,120,120,180,1,57.27439
,,,,,,,,,,,,,,,,,,5e28e735ea776009d4d15c34,2020-08-10_18h02.39.204,lexical_decision_task_MP,2020.1.3,Win32,60,m,1,1.18896,,,,,,,,1.18896,1,,,,,,215,WORD,UN,33,lumber,PHOBIA,m,,,,,,0.124444444,-0.394444444,0,0,0,,0,121,121,154,1,
,,,,,,,,,,,,,,,,,,5e28e735ea776009d4d15c34,2020-08-10_18h02.39.204,lexical_decision_task_MP,2020.1.3,Win32,60,z,1,0.789855,,,,,,,,0.789855,1,,,,,,274,NW,UN,50,sleirt,FUMBLO,z,,,,,,0.124444444,-0.394444444,0,0,0,,0,122,122,453,1,
,,,,,,,,,,,,,,,,,,5e28e735ea776009d4d15c34,2020-08-10_18h02.39.204,lexical_decision_task_MP,2020.1.3,Win32,60,m,1,0.91418,,,,,,,,0.91418,1,,,,,,52,WORD,UN,50,police,IMPOSE,m,,,,,,0.124444444,-0.394444444,0,0,0,,0,123,123,231,1,
,,,,,,,,,,,,,,,,,,5e28e735ea776009d4d15c34,2020-08-10_18h02.39.204,lexical_decision_task_MP,2020.1.3,Win32,60,z,1,0.799475,,,,,,,,0.799475,1,,,,,,435,NW,UN,33,frutan,IMPURB,z,,,,,,0.124444444,-0.394444444,0,0,0,,0,124,124,374,1,
,,,,,,,,,,,,,,,,,,5e28e735ea776009d4d15c34,2020-08-10_18h02.39.204,lexical_decision_task_MP,2020.1.3,Win32,60,z,1,0.73669,,,,,,,,0.73669,1,,,,,,321,NW,"ID",33,miator,MIATOR,z,,,,,,0.124444444,-0.394444444,0,0,0,,0,125,125,260,1,
,,,,,,,,,,,,,,,,,,5e28e735ea776009d4d15c34,2020-08-10_18h02.39.204,lexical_decision_task_MP,2020.1.3,Win32,60,m,1,0.80444,,,,,,,,0.80444,1,,,,,,221,WORD,UN,33,hinder,MASCOT,m,,,,,,0.124444444,-0.394444444,0,0,0,,0,126,126,160,1,
,,,,,,,,,,,,,,,,,,5e28e735ea776009d4d15c34,2020-08-10_18h02.39.204,lexical_decision_task_MP,2020.1.3,Win32,60,z,1,1.010625,,,,,,,,1.010625,1,,,,,,266,NW,UN,50,pasink,VARMIT,z,,,,,,0.124444444,-0.394444444,0,0,0,,0,127,127,445,1,
,,,,,,,,,,,,,,,,,,5e28e735ea776009d4d15c34,2020-08-10_18h02.39.204,lexical_decision_task_MP,2020.1.3,Win32,60,z,1,0.95608,,,,,,,,0.95608,1,,,,,,425,NW,UN,33,urivel,FRUDGE,z,,,,,,0.124444444,-0.394444444,0,0,0,,0,128,128,364,1,
,,,,,,,,,,,,,,,,,,5e28e735ea776009d4d15c34,2020-08-10_18h02.39.204,lexical_decision_task_MP,2020.1.3,Win32,60,m,1,0.867325,,,,,,,,0.867325,1,,,,,,130,WORD,"ID",50,stupid,STUPID,m,,,,,,0.124444444,-0.394444444,0,0,0,,0,129,129,69,1,
,,,,,,,,,,,,,,,,,,5e28e735ea776009d4d15c34,2020-08-10_18h02.39.204,lexical_decision_task_MP,2020.1.3,Win32,60,z,1,0.92285,,,,,,,,0.92285,1,,,,,,458,NW,UN,33,hocite,BARCET,z,,,,,,0.124444444,-0.394444444,0,0,0,,0,130,130,397,1,
,,,,,,,,,,,,,,,,,,5e28e735ea776009d4d15c34,2020-08-10_18h02.39.204,lexical_decision_task_MP,2020.1.3,Win32,60,z,1,0.784725,,,,,,,,0.784725,1,,,,,,324,NW,"ID",33,steikh,STEIKH,z,,,,,,0.124444444,-0.394444444,0,0,0,,0,131,131,263,1,
,,,,,,,,,,,,,,,,,,5e28e735ea776009d4d15c34,2020-08-10_18h02.39.204,lexical_decision_task_MP,2020.1.3,Win32,60,z,1,0.816085,,,,,,,,0.816085,1,,,,,,257,NW,UN,50,poluth,VENIOD,z,,,,,,0.124444444,-0.394444444,0,0,0,,0,132,132,436,1,
,,,,,,,,,,,,,,,,,,5e28e735ea776009d4d15c34,2020-08-10_18h02.39.204,lexical_decision_task_MP,2020.1.3,Win32,60,m,1,0.69767,,,,,,,,0.69767,1,,,,,,44,WORD,UN,50,clergy,DANGER,m,,,,,,0.124444444,-0.394444444,0,0,0,,0,133,133,223,1,
,,,,,,,,,,,,,,,,,,5e28e735ea776009d4d15c34,2020-08-10_18h02.39.204,lexical_decision_task_MP,2020.1.3,Win32,60,z,1,0.97523,,,,,,,,0.97523,1,,,,,,348,NW,"ID",33,dumple,DUMPLE,z,,,,,,0.124444444,-0.394444444,0,0,0,,0,134,134,287,1,
,,,,,,,,,,,,,,,,,,5e28e735ea776009d4d15c34,2020-08-10_18h02.39.204,lexical_decision_task_MP,2020.1.3,Win32,60,m,1,1.11858,,,,,,,,1.11858,1,,,,,,6,WORD,UN,50,anchor,BUNDLE,m,,,,,,0.124444444,-0.394444444,0,0,0,,0,135,135,185,1,
,,,,,,,,,,,,,,,,,,5e28e735ea776009d4d15c34,2020-08-10_18h02.39.204,lexical_decision_task_MP,2020.1.3,Win32,60,m,1,0.653905,,,,,,,,0.653905,1,,,,,,153,WORD,"ID",50,behold,BEHOLD,m,,,,,,0.124444444,-0.394444444,0,0,0,,0,136,136,92,1,
,,,,,,,,,,,,,,,,,,5e28e735ea776009d4d15c34,2020-08-10_18h02.39.204,lexical_decision_task_MP,2020.1.3,Win32,60,z,0,0.812075,,,,,,,,0.812075,0,,,,,,86,WORD,"ID",33,rodent,RODENT,m,,,,,,0.124444444,-0.394444444,0,0,0,,0,137,137,25,1,
,,,,,,,,,,,,,,,,,,5e28e735ea776009d4d15c34,2020-08-10_18h02.39.204,lexical_decision_task_MP,2020.1.3,Win32,60,m,0,1.73868,,,,,,,,1.73868,0,,,,,,318,NW,"ID",33,reagly,REAGLY,z,,,,,,0.124444444,-0.394444444,0,0,0,,0,138,138,257,1,
,,,,,,,,,,,,,,,,,,5e28e735ea776009d4d15c34,2020-08-10_18h02.39.204,lexical_decision_task_MP,2020.1.3,Win32,60,m,1,0.636635,,,,,,,,0.636635,1,,,,,,210,WORD,UN,33,infect,MONKEY,m,,,,,,0.124444444,-0.394444444,0,0,0,,0,139,139,149,1,
,,,,,,,,,,,,,,,,,,5e28e735ea776009d4d15c34,2020-08-10_18h02.39.204,lexical_decision_task_MP,2020.1.3,Win32,60,z,1,1.022735,,,,,,,,1.022735,1,,,,,,283,NW,UN,50,shaple,VERALF,z,,,,,,0.124444444,-0.394444444,0,0,0,,0,140,140,462,1,
,,,,,,,,,,,,,,,,,,5e28e735ea776009d4d15c34,2020-08-10_18h02.39.204,lexical_decision_task_MP,2020.1.3,Win32,60,m,1,0.76145,,,,,,,,0.76145,1,,,,,,196,WORD,UN,33,stream,CREDIT,m,,,,,,0.124444444,-0.394444444,0,0,0,,0,141,141,135,1,
,,,,,,,,,,,,,,,,,,5e28e735ea776009d4d15c34,2020-08-10_18h02.39.204,lexical_decision_task_MP,2020.1.3,Win32,60,z,1,0.750565,,,,,,,,0.750565,1,,,,,,472,NW,UN,33,gorbie,CIGNEY,z,,,,,,0.124444444,-0.394444444,0,0,0,,0,142,142,411,1,
,,,,,,,,,,,,,,,,,,5e28e735ea776009d4d15c34,2020-08-10_18h02.39.204,lexical_decision_task_MP,2020.1.3,Win32,60,m,1,0.871615,,,,,,,,0.871615,1,,,,,,202,WORD,UN,33,phrase,FACTOR,m,,,,,,0.124444444,-0.394444444,0,0,0,,0,143,143,141,1,
,,,,,,,,,,,,,,,,,,5e28e735ea776009d4d15c34,2020-08-10_18h02.39.204,lexical_decision_task_MP,2020.1.3,Win32,60,m,1,0.85167,,,,,,,,0.85167,1,,,,,,108,WORD,"ID",33,reckon,RECKON,m,,,,,,0.124444444,-0.394444444,0,0,0,,0,144,144,47,1,
,,,,,,,,,,,,,,,,,,5e28e735ea776009d4d15c34,2020-08-10_18h02.39.204,lexical_decision_task_MP,2020.1.3,Win32,60,m,1,0.69712,,,,,,,,0.69712,1,,,,,,102,WORD,"ID",33,direct,DIRECT,m,,,,,,0.124444444,-0.394444444,0,0,0,,0,145,145,41,1,
,,,,,,,,,,,,,,,,,,5e28e735ea776009d4d15c34,2020-08-10_18h02.39.204,lexical_decision_task_MP,2020.1.3,Win32,60,z,1,0.888765,,,,,,,,0.888765,1,,,,,,289,NW,UN,50,splino,STARBY,z,,,,,,0.124444444,-0.394444444,0,0,0,,0,146,146,468,1,
,,,,,,,,,,,,,,,,,,5e28e735ea776009d4d15c34,2020-08-10_18h02.39.204,lexical_decision_task_MP,2020.1.3,Win32,60,z,1,1.00881,,,,,,,,1.00881,1,,,,,,424,NW,UN,33,frudge,PRAILE,z,,,,,,0.124444444,-0.394444444,0,0,0,,0,147,147,363,1,
,,,,,,,,,,,,,,,,,,5e28e735ea776009d4d15c34,2020-08-10_18h02.39.204,lexical_decision_task_MP,2020.1.3,Win32,60,m,1,0.993345,,,,,,,,0.993345,1,,,,,,204,WORD,UN,33,lounge,BURDEN,m,,,,,,0.124444444,-0.394444444,0,0,0,,0,148,148,143,1,
,,,,,,,,,,,,,,,,,,5e28e735ea776009d4d15c34,2020-08-10_18h02.39.204,lexical_decision_task_MP,2020.1.3,Win32,60,z,1,0.934595,,,,,,,,0.934595,1,,,,,,268,NW,UN,50,orchet,PACKES,z,,,,,,0.124444444,-0.394444444,0,0,0,,0,149,149,447,1,
,,,,,,,,,,,,,,,,,,5e28e735ea776009d4d15c34,2020-08-10_18h02.39.204,lexical_decision_task_MP,2020.1.3,Win32,60,z,1,0.612435,,,,,,,,0.612435,1,,,,,,254,NW,UN,50,apight,VAROSH,z,,,,,,0.124444444,-0.394444444,0,0,0,,0,150,150,433,1,
,,,,,,,,,,,,,,,,,,5e28e735ea776009d4d15c34,2020-08-10_18h02.39.204,lexical_decision_task_MP,2020.1.3,Win32,60,m,1,0.724265,,,,,,,,0.724265,1,,,,,,205,WORD,UN,33,tailor,LOUNGE,m,,,,,,0.124444444,-0.394444444,0,0,0,,0,151,151,144,1,
,,,,,,,,,,,,,,,,,,5e28e735ea776009d4d15c34,2020-08-10_18h02.39.204,lexical_decision_task_MP,2020.1.3,Win32,60,m,1,0.836245,,,,,,,,0.836245,1,,,,,,28,WORD,UN,50,sketch,COMEDY,m,,,,,,0.124444444,-0.394444444,0,0,0,,0,152,152,207,1,
,,,,,,,,,,,,,,,,,,5e28e735ea776009d4d15c34,2020-08-10_18h02.39.204,lexical_decision_task_MP,2020.1.3,Win32,60,m,1,0.85376,,,,,,,,0.85376,1,,,,,,92,WORD,"ID",33,strand,STRAND,m,,,,,,0.124444444,-0.394444444,0,0,0,,0,153,153,31,1,
,,,,,,,,,,,,,,,,,,5e28e735ea776009d4d15c34,2020-08-10_18h02.39.204,lexical_decision_task_MP,2020.1.3,Win32,60,z,1,0.907415,,,,,,,,0.907415,1,,,,,,349,NW,"ID",33,asylen,ASYLEN,z,,,,,,0.124444444,-0.394444444,0,0,0,,0,154,154,288,1,
,,,,,,,,,,,,,,,,,,5e28e735ea776009d4d15c34,2020-08-10_18h02.39.204,lexical_decision_task_MP,2020.1.3,Win32,60,m,1,1.23294,,,,,,,,1.23294,1,,,,,,201,WORD,UN,33,factor,ADMIRE,m,,,,,,0.124444444,-0.394444444,0,0,0,,0,155,155,140,1,
,,,,,,,,,,,,,,,,,,5e28e735ea776009d4d15c34,2020-08-10_18h02.39.204,lexical_decision_task_MP,2020.1.3,Win32,60,m,1,0.816835,,,,,,,,0.816835,1,,,,,,226,WORD,UN,33,flower,CASINO,m,,,,,,0.124444444,-0.394444444,0,0,0,,0,156,156,165,1,
,,,,,,,,,,,,,,,,,,5e28e735ea776009d4d15c34,2020-08-10_18h02.39.204,lexical_decision_task_MP,2020.1.3,Win32,60,m,1,1.06223,,,,,,,,1.06223,1,,,,,,33,WORD,UN,50,jungle,BUTLER,m,,,,,,0.124444444,-0.394444444,0,0,0,,0,157,157,212,1,
,,,,,,,,,,,,,,,,,,5e28e735ea776009d4d15c34,2020-08-10_18h02.39.204,lexical_decision_task_MP,2020.1.3,Win32,60,z,1,0.89689,,,,,,,,0.89689,1,,,,,,352,NW,"ID",33,tringe,TRINGE,z,,,,,,0.124444444,-0.394444444,0,0,0,,0,158,158,291,1,
,,,,,,,,,,,,,,,,,,5e28e735ea776009d4d15c34,2020-08-10_18h02.39.204,lexical_decision_task_MP,2020.1.3,Win32,60,m,1,0.780685,,,,,,,,0.780685,1,,,,,,49,WORD,UN,50,snatch,SURVEY,m,,,,,,0.124444444,-0.394444444,0,0,0,,0,159,159,228,1,
,,,,,,,,,,,,,,,,,,5e28e735ea776009d4d15c34,2020-08-10_18h02.39.204,lexical_decision_task_MP,2020.1.3,Win32,60,z,1,0.733345,,,,,,,,0.733345,1,,,,,,403,NW,"ID",50,bruats,BRUATS,z,,,,,,0.124444444,-0.394444444,0,0,0,,0,160,160,342,1,
,,,,,,,,,,,,,,,,,,5e28e735ea776009d4d15c34,2020-08-10_18h02.39.204,lexical_decision_task_MP,2020.1.3,Win32,60,m,1,0.733765,,,,,,,,0.733765,1,,,,,,56,WORD,UN,50,change,AMBUSH,m,,,,,,0.124444444,-0.394444444,0,0,0,,0,161,161,235,1,
,,,,,,,,,,,,,,,,,,5e28e735ea776009d4d15c34,2020-08-10_18h02.39.204,lexical_decision_task_MP,2020.1.3,Win32,60,m,1,0.710805,,,,,,,,0.710805,1,,,,,,230,WORD,UN,33,mother,FRINGE,m,,,,,,0.124444444,-0.394444444,0,0,0,,0,162,162,169,1,
,,,,,,,,,,,,,,,,,,5e28e735ea776009d4d15c34,2020-08-10_18h02.39.204,lexical_decision_task_MP,2020.1.3,Win32,60,m,1,0.734475,,,,,,,,0.734475,1,,,,,,172,WORD,"ID",50,patrol,PATROL,m,,,,,,0.124444444,-0.394444444,0,0,0,,0,163,163,111,1,
,,,,,,,,,,,,,,,,,,5e28e735ea776009d4d15c34,2020-08-10_18h02.39.204,lexical_decision_task_MP,2020.1.3,Win32,60,z,1,1.16037,,,,,,,,1.16037,1,,,,,,243,NW,UN,50,eatric,MUSIED,z,,,,,,0.124444444,-0.394444444,0,0,0,,0,164,164,422,1,
,,,,,,,,,,,,,,,,,,5e28e735ea776009d4d15c34,2020-08-10_18h02.39.204,lexical_decision_task_MP,2020.1.3,Win32,60,z,1,0.85238,,,,,,,,0.85238,1,,,,,,452,NW,UN,33,bolvis,SURDEN,z,,,,,,0.124444444,-0.394444444,0,0,0,,0,165,165,391,1,
,,,,,,,,,,,,,,,,,,5e28e735ea776009d4d15c34,2020-08-10_18h02.39.204,lexical_decision_task_MP,2020.1.3,Win32,60,m,1,0.735645,,,,,,,,0.735645,1,,,,,,155,WORD,"ID",50,lizard,LIZARD,m,,,,,,0.124444444,-0.394444444,0,0,0,,0,166,166,94,1,
,,,,,,,,,,,,,,,,,,5e28e735ea776009d4d15c34,2020-08-10_18h02.39.204,lexical_decision_task_MP,2020.1.3,Win32,60,m,1,0.62709,,,,,,,,0.62709,1,,,,,,132,WORD,"ID",50,strong,STRONG,m,,,,,,0.124444444,-0.394444444,0,0,0,,0,167,167,71,1,
,,,,,,,,,,,,,,,,,,5e28e735ea776009d4d15c34,2020-08-10_18h02.39.204,lexical_decision_task_MP,2020.1.3,Win32,60,z,1,0.929235,,,,,,,,0.929235,1,,,,,,364,NW,"ID",50,impote,IMPOTE,z,,,,,,0.124444444,-0.394444444,0,0,0,,0,168,168,303,1,
,,,,,,,,,,,,,,,,,,5e28e735ea776009d4d15c34,2020-08-10_18h02.39.204,lexical_decision_task_MP,2020.1.3,Win32,60,z,1,0.812445,,,,,,,,0.812445,1,,,,,,328,NW,"ID",33,broake,BROAKE,z,,,,,,0.124444444,-0.394444444,0,0,0,,0,169,169,267,1,
,,,,,,,,,,,,,,,,,,5e28e735ea776009d4d15c34,2020-08-10_18h02.39.204,lexical_decision_task_MP,2020.1.3,Win32,60,m,1,0.757165,,,,,,,,0.757165,1,,,,,,5,WORD,UN,50,bundle,PLUNGE,m,,,,,,0.124444444,-0.394444444,0,0,0,,0,170,170,184,1,
,,,,,,,,,,,,,,,,,,5e28e735ea776009d4d15c34,2020-08-10_18h02.39.204,lexical_decision_task_MP,2020.1.3,Win32,60,m,1,0.85082,,,,,,,,0.85082,1,,,,,,214,WORD,UN,33,phobia,INTAKE,m,,,,,,0.124444444,-0.394444444,0,0,0,,0,171,171,153,1,
,,,,,,,,,,,,,,,,,,5e28e735ea776009d4d15c34,2020-08-10_18h02.39.204,lexical_decision_task_MP,2020.1.3,Win32,60,m,1,0.822525,,,,,,,,0.822525,1,,,,,,40,WORD,UN,50,spring,CONVEY,m,,,,,,0.124444444,-0.394444444,0,0,0,,0,172,172,219,1,
,,,,,,,,,,,,,,,,,,5e28e735ea776009d4d15c34,2020-08-10_18h02.39.204,lexical_decision_task_MP,2020.1.3,Win32,60,z,1,1.081745,,,,,,,,1.081745,1,,,,,,244,NW,UN,50,anougs,EATRIC,z,,,,,,0.124444444,-0.394444444,0,0,0,,0,173,173,423,1,
,,,,,,,,,,,,,,,,,,5e28e735ea776009d4d15c34,2020-08-10_18h02.39.204,lexical_decision_task_MP,2020.1.3,Win32,60,z,1,0.846065,,,,,,,,0.846065,1,,,,,,456,NW,UN,33,wanigh,BROGET,z,,,,,,0.124444444,-0.394444444,0,0,0,,0,174,174,395,1,
,,,,,,,,,,,,,,,,,,5e28e735ea776009d4d15c34,2020-08-10_18h02.39.204,lexical_decision_task_MP,2020.1.3,Win32,60,m,1,1.184355,,,,,,,,1.184355,1,,,,,,159,WORD,"ID",50,detail,DETAIL,m,,,,,,0.124444444,-0.394444444,0,0,0,,0,175,175,98,1,
,,,,,,,,,,,,,,,,,,5e28e735ea776009d4d15c34,2020-08-10_18h02.39.204,lexical_decision_task_MP,2020.1.3,Win32,60,z,1,1.256715,,,,,,,,1.256715,1,,,,,,363,NW,"ID",50,breali,BREALI,z,,,,,,0.124444444,-0.394444444,0,0,0,,0,176,176,302,1,
,,,,,,,,,,,,,,,,,,5e28e735ea776009d4d15c34,2020-08-10_18h02.39.204,lexical_decision_task_MP,2020.1.3,Win32,60,m,1,0.733115,,,,,,,,0.733115,1,,,,,,104,WORD,"ID",33,studio,STUDIO,m,,,,,,0.124444444,-0.394444444,0,0,0,,0,177,177,43,1,
,,,,,,,,,,,,,,,,,,5e28e735ea776009d4d15c34,2020-08-10_18h02.39.204,lexical_decision_task_MP,2020.1.3,Win32,60,z,1,0.81599,,,,,,,,0.81599,1,,,,,,358,NW,"ID",33,fleack,FLEACK,z,,,,,,0.124444444,-0.394444444,0,0,0,,0,178,178,297,1,
,,,,,,,,,,,,,,,,,,5e28e735ea776009d4d15c34,2020-08-10_18h02.39.204,lexical_decision_task_MP,2020.1.3,Win32,60,m,1,0.965405,,,,,,,,0.965405,1,,,,,,48,WORD,UN,50,survey,WALNUT,m,,,,,,0.124444444,-0.394444444,0,0,0,,0,179,179,227,1,
,,,,,,,,,,,,,,,,,,5e28e735ea776009d4d15c34,2020-08-10_18h02.39.204,lexical_decision_task_MP,2020.1.3,Win32,60,z,1,0.855655,,,,,,,,0.855655,1,,,,,,299,NW,UN,50,yarion,STURCH,z,,,,,,0.124444444,-0.394444444,0,0,0,,0,180,180,478,1,
,,,,,,,,,,,,,,,,,,5e28e735ea776009d4d15c34,2020-08-10_18h02.39.204,lexical_decision_task_MP,2020.1.3,Win32,60,z,1,0.72221,,,,,,,,0.72221,1,,,,,,267,NW,UN,50,packes,PASINK,z,,,,,,0.124444444,-0.394444444,0,0,0,,0,181,181,446,1,
,,,,,,,,,,,,,,,,,,5e28e735ea776009d4d15c34,2020-08-10_18h02.39.204,lexical_decision_task_MP,2020.1.3,Win32,60,m,1,0.969225,,,,,,,,0.969225,1,,,,,,219,WORD,UN,33,voyage,BUCKET,m,,,,,,0.124444444,-0.394444444,0,0,0,,0,182,182,158,1,
,,,,,,,,,,,,,,,,,,5e28e735ea776009d4d15c34,2020-08-10_18h02.39.204,lexical_decision_task_MP,2020.1.3,Win32,60,m,1,0.75913,,,,,,,,0.75913,1,,,,,,45,WORD,UN,50,single,CLERGY,m,,,,,,0.124444444,-0.394444444,0,0,0,,0,183,183,224,1,
,,,,,,,,,,,,,,,,,,5e28e735ea776009d4d15c34,2020-08-10_18h02.39.204,lexical_decision_task_MP,2020.1.3,Win32,60,m,1,0.761385,,,,,,,,0.761385,1,,,,,,83,WORD,"ID",33,result,RESULT,m,,,,,,0.124444444,-0.394444444,0,0,0,,0,184,184,22,1,
,,,,,,,,,,,,,,,,,,5e28e735ea776009d4d15c34,2020-08-10_18h02.39.204,lexical_decision_task_MP,2020.1.3,Win32,60,z,1,0.96678,,,,,,,,0.96678,1,,,,,,422,NW,UN,33,streld,ALCOUD,z,,,,,,0.124444444,-0.394444444,0,0,0,,0,185,185,361,1,
,,,,,,,,,,,,,,,,,,5e28e735ea776009d4d15c34,2020-08-10_18h02.39.204,lexical_decision_task_MP,2020.1.3,Win32,60,z,1,0.847615,,,,,,,,0.847615,1,,,,,,386,NW,"ID",50,ancust,ANCUST,z,,,,,,0.124444444,-0.394444444,0,0,0,,0,186,186,325,1,
,,,,,,,,,,,,,,,,,,5e28e735ea776009d4d15c34,2020-08-10_18h02.39.204,lexical_decision_task_MP,2020.1.3,Win32,60,m,1,0.85423,,,,,,,,0.85423,1,,,,,,91,WORD,"ID",33,expand,EXPAND,m,,,,,,0.124444444,-0.394444444,0,0,0,,0,187,187,30,1,
,,,,,,,,,,,,,,,,,,5e28e735ea776009d4d15c34,2020-08-10_18h02.39.204,lexical_decision_task_MP,2020.1.3,Win32,60,z,1,0.81751,,,,,,,,0.81751,1,,,,,,406,NW,"ID",50,nouply,NOUPLY,z,,,,,,0.124444444,-0.394444444,0,0,0,,0,188,188,345,1,
,,,,,,,,,,,,,,,,,,5e28e735ea776009d4d15c34,2020-08-10_18h02.39.204,lexical_decision_task_MP,2020.1.3,Win32,60,m,1,1.10313,,,,,,,,1.10313,1,,,,,,77,WORD,"ID",33,racket,RACKET,m,,,,,,0.124444444,-0.394444444,0,0,0,,0,189,189,16,1,
,,,,,,,,,,,,,,,,,,5e28e735ea776009d4d15c34,2020-08-10_18h02.39.204,lexical_decision_task_MP,2020.1.3,Win32,60,m,1,0.919105,,,,,,,,0.919105,1,,,,,,7,WORD,UN,50,abrupt,ANCHOR,m,,,,,,0.124444444,-0.394444444,0,0,0,,0,190,190,186,1,
,,,,,,,,,,,,,,,,,,5e28e735ea776009d4d15c34,2020-08-10_18h02.39.204,lexical_decision_task_MP,2020.1.3,Win32,60,m,1,0.76001,,,,,,,,0.76001,1,,,,,,162,WORD,"ID",50,candle,CANDLE,m,,,,,,0.124444444,-0.394444444,0,0,0,,0,191,191,101,1,
,,,,,,,,,,,,,,,,,,5e28e735ea776009d4d15c34,2020-08-10_18h02.39.204,lexical_decision_task_MP,2020.1.3,Win32,60,z,1,0.730355,,,,,,,,0.730355,1,,,,,,337,NW,"ID",33,rejols,REJOLS,z,,,,,,0.124444444,-0.394444444,0,0,0,,0,192,192,276,1,
,,,,,,,,,,,,,,,,,,5e28e735ea776009d4d15c34,2020-08-10_18h02.39.204,lexical_decision_task_MP,2020.1.3,Win32,60,z,1,1.0801,,,,,,,,1.0801,1,,,,,,440,NW,UN,33,rastoe,SARIDE,z,,,,,,0.124444444,-0.394444444,0,0,0,,0,193,193,379,1,
,,,,,,,,,,,,,,,,,,5e28e735ea776009d4d15c34,2020-08-10_18h02.39.204,lexical_decision_task_MP,2020.1.3,Win32,60,m,1,0.766985,,,,,,,,0.766985,1,,,,,,112,WORD,"ID",33,breath,BREATH,m,,,,,,0.124444444,-0.394444444,0,0,0,,0,194,194,51,1,
,,,,,,,,,,,,,,,,,,5e28e735ea776009d4d15c34,2020-08-10_18h02.39.204,lexical_decision_task_MP,2020.1.3,Win32,60,m,1,0.71091,,,,,,,,0.71091,1,,,,,,149,WORD,"ID",50,invade,INVADE,m,,,,,,0.124444444,-0.394444444,0,0,0,,0,195,195,88,1,
,,,,,,,,,,,,,,,,,,5e28e735ea776009d4d15c34,2020-08-10_18h02.39.204,lexical_decision_task_MP,2020.1.3,Win32,60,m,1,0.63391,,,,,,,,0.63391,1,,,,,,21,WORD,UN,50,jockey,SIMPLE,m,,,,,,0.124444444,-0.394444444,0,0,0,,0,196,196,200,1,
,,,,,,,,,,,,,,,,,,5e28e735ea776009d4d15c34,2020-08-10_18h02.39.204,lexical_decision_task_MP,2020.1.3,Win32,60,m,0,1.20663,,,,,,,,1.20663,0,,,,,,261,NW,UN,50,quilew,STUNCH,z,,,,,,0.124444444,-0.394444444,0,0,0,,0,197,197,440,1,
,,,,,,,,,,,,,,,,,,5e28e735ea776009d4d15c34,2020-08-10_18h02.39.204,lexical_decision_task_MP,2020.1.3,Win32,60,z,1,1.15983,,,,,,,,1.15983,1,,,,,,421,NW,UN,33,alcoud,KNISMA,z,,,,,,0.124444444,-0.394444444,0,0,0,,0,198,198,360,1,
,,,,,,,,,,,,,,,,,,5e28e735ea776009d4d15c34,2020-08-10_18h02.39.204,lexical_decision_task_MP,2020.1.3,Win32,60,z,1,0.89321,,,,,,,,0.89321,1,,,,,,455,NW,UN,33,broget,TONDLE,z,,,,,,0.124444444,-0.394444444,0,0,0,,0,199,199,394,1,
,,,,,,,,,,,,,,,,,,5e28e735ea776009d4d15c34,2020-08-10_18h02.39.204,lexical_decision_task_MP,2020.1.3,Win32,60,z,1,0.824055,,,,,,,,0.824055,1,,,,,,394,NW,"ID",50,spaqux,SPAQUX,z,,,,,,0.124444444,-0.394444444,0,0,0,,0,200,200,333,1,
,,,,,,,,,,,,,,,,,,5e28e735ea776009d4d15c34,2020-08-10_18h02.39.204,lexical_decision_task_MP,2020.1.3,Win32,60,m,1,0.84765,,,,,,,,0.84765,1,,,,,,194,WORD,UN,33,resign,ABSENT,m,,,,,,0.124444444,-0.394444444,0,0,0,,0,201,201,133,1,
,,,,,,,,,,,,,,,,,,5e28e735ea776009d4d15c34,2020-08-10_18h02.39.204,lexical_decision_task_MP,2020.1.3,Win32,60,m,0,0.663175,,,,,,,,0.663175,0,,,,,,433,NW,UN,33,pitrom,DRANCE,z,,,,,,0.124444444,-0.394444444,0,0,0,,0,202,202,372,1,
,,,,,,,,,,,,,,,,,,5e28e735ea776009d4d15c34,2020-08-10_18h02.39.204,lexical_decision_task_MP,2020.1.3,Win32,60,z,1,1.0292,,,,,,,,1.0292,1,,,,,,392,NW,"ID",50,rouncy,ROUNCY,z,,,,,,0.124444444,-0.394444444,0,0,0,,0,203,203,331,1,
,,,,,,,,,,,,,,,,,,5e28e735ea776009d4d15c34,2020-08-10_18h02.39.204,lexical_decision_task_MP,2020.1.3,Win32,60,z,1,0.911135,,,,,,,,0.911135,1,,,,,,295,NW,UN,50,beinch,GLEATH,z,,,,,,0.124444444,-0.394444444,0,0,0,,0,204,204,474,1,
,,,,,,,,,,,,,,,,,,5e28e735ea776009d4d15c34,2020-08-10_18h02.39.204,lexical_decision_task_MP,2020.1.3,Win32,60,z,1,1.096405,,,,,,,,1.096405,1,,,,,,319,NW,"ID",33,zomber,ZOMBER,z,,,,,,0.124444444,-0.394444444,0,0,0,,0,205,205,258,1,
,,,,,,,,,,,,,,,,,,5e28e735ea776009d4d15c34,2020-08-10_18h02.39.204,lexical_decision_task_MP,2020.1.3,Win32,60,z,1,1.080975,,,,,,,,1.080975,1,,,,,,297,NW,UN,50,piergy,FERTIC,z,,,,,,0.124444444,-0.394444444,0,0,0,,0,206,206,476,1,
,,,,,,,,,,,,,,,,,,5e28e735ea776009d4d15c34,2020-08-10_18h02.39.204,lexical_decision_task_MP,2020.1.3,Win32,60,m,1,0.983225,,,,,,,,0.983225,1,,,,,,224,WORD,UN,33,vulgar,PERIOD,m,,,,,,0.124444444,-0.394444444,0,0,0,,0,207,207,163,1,
,,,,,,,,,,,,,,,,,,5e28e735ea776009d4d15c34,2020-08-10_18h02.39.204,lexical_decision_task_MP,2020.1.3,Win32,60,z,1,1.01453,,,,,,,,1.01453,1,,,,,,473,NW,UN,33,hablin,CRIBLE,z,,,,,,0.124444444,-0.394444444,0,0,0,,0,208,208,412,1,
,,,,,,,,,,,,,,,,,,5e28e735ea776009d4d15c34,2020-08-10_18h02.39.204,lexical_decision_task_MP,2020.1.3,Win32,60,m,1,0.768085,,,,,,,,0.768085,1,,,,,,43,WORD,UN,50,foster,TONGUE,m,,,,,,0.124444444,-0.394444444,0,0,0,,0,209,209,222,1,
,,,,,,,,,,,,,,,,,,5e28e735ea776009d4d15c34,2020-08-10_18h02.39.204,lexical_decision_task_MP,2020.1.3,Win32,60,z,1,0.961605,,,,,,,,0.961605,1,,,,,,329,NW,"ID",33,yarike,YARIKE,z,,,,,,0.124444444,-0.394444444,0,0,0,,0,210,210,268,1,
,,,,,,,,,,,,,,,,,,5e28e735ea776009d4d15c34,2020-08-10_18h02.39.204,lexical_decision_task_MP,2020.1.3,Win32,60,z,1,0.99698,,,,,,,,0.99698,1,,,,,,450,NW,UN,33,cainky,PHRECT,z,,,,,,0.124444444,-0.394444444,0,0,0,,0,211,211,389,1,
,,,,,,,,,,,,,,,,,,5e28e735ea776009d4d15c34,2020-08-10_18h02.39.204,lexical_decision_task_MP,2020.1.3,Win32,60,z,1,0.81655,,,,,,,,0.81655,1,,,,,,438,NW,UN,33,limpor,BAITCH,z,,,,,,0.124444444,-0.394444444,0,0,0,,0,212,212,377,1,
,,,,,,,,,,,,,,,,,,5e28e735ea776009d4d15c34,2020-08-10_18h02.39.204,lexical_decision_task_MP,2020.1.3,Win32,60,m,1,0.75106,,,,,,,,0.75106,1,,,,,,189,WORD,UN,33,backup,CENSOR,m,,,,,,0.124444444,-0.394444444,0,0,0,,0,213,213,128,1,
,,,,,,,,,,,,,,,,,,5e28e735ea776009d4d15c34,2020-08-10_18h02.39.204,lexical_decision_task_MP,2020.1.3,Win32,60,z,1,0.916925,,,,,,,,0.916925,1,,,,,,397,NW,"ID",50,camble,CAMBLE,z,,,,,,0.124444444,-0.394444444,0,0,0,,0,214,214,336,1,
,,,,,,,,,,,,,,,,,,5e28e735ea776009d4d15c34,2020-08-10_18h02.39.204,lexical_decision_task_MP,2020.1.3,Win32,60,z,1,1.937895,,,,,,,,1.937895,1,,,,,,395,NW,"ID",50,colury,COLURY,z,,,,,,0.124444444,-0.394444444,0,0,0,,0,215,215,334,1,
,,,,,,,,,,,,,,,,,,5e28e735ea776009d4d15c34,2020-08-10_18h02.39.204,lexical_decision_task_MP,2020.1.3,Win32,60,m,1,1.300865,,,,,,,,1.300865,1,,,,,,231,WORD,UN,33,inject,EXPORT,m,,,,,,0.124444444,-0.394444444,0,0,0,,0,216,216,170,1,
,,,,,,,,,,,,,,,,,,5e28e735ea776009d4d15c34,2020-08-10_18h02.39.204,lexical_decision_task_MP,2020.1.3,Win32,60,z,1,0.83086,,,,,,,,0.83086,1,,,,,,461,NW,UN,33,absult,JUSTRE,z,,,,,,0.124444444,-0.394444444,0,0,0,,0,217,217,400,1,
,,,,,,,,,,,,,,,,,,5e28e735ea776009d4d15c34,2020-08-10_18h02.39.204,lexical_decision_task_MP,2020.1.3,Win32,60,z,1,0.95085,,,,,,,,0.95085,1,,,,,,442,NW,UN,33,dorsex,ABOUNE,z,,,,,,0.124444444,-0.394444444,0,0,0,,0,218,218,381,1,
,,,,,,,,,,,,,,,,,,5e28e735ea776009d4d15c34,2020-08-10_18h02.39.204,lexical_decision_task_MP,2020.1.3,Win32,60,m,1,0.702135,,,,,,,,0.702135,1,,,,,,148,WORD,"ID",50,custom,CUSTOM,m,,,,,,0.124444444,-0.394444444,0,0,0,,0,219,219,87,1,
,,,,,,,,,,,,,,,,,,5e28e735ea776009d4d15c34,2020-08-10_18h02.39.204,lexical_decision_task_MP,2020.1.3,Win32,60,m,1,0.879485,,,,,,,,0.879485,1,,,,,,195,WORD,UN,33,credit,RESIGN,m,,,,,,0.124444444,-0.394444444,0,0,0,,0,220,220,134,1,
,,,,,,,,,,,,,,,,,,5e28e735ea776009d4d15c34,2020-08-10_18h02.39.204,lexical_decision_task_MP,2020.1.3,Win32,60,z,1,0.715645,,,,,,,,0.715645,1,,,,,,367,NW,"ID",50,slique,SLIQUE,z,,,,,,0.124444444,-0.394444444,0,0,0,,0,221,221,306,1,
,,,,,,,,,,,,,,,,,,5e28e735ea776009d4d15c34,2020-08-10_18h02.39.204,lexical_decision_task_MP,2020.1.3,Win32,60,m,1,1.13758,,,,,,,,1.13758,1,,,,,,179,WORD,"ID",50,basket,BASKET,m,,,,,,0.124444444,-0.394444444,0,0,0,,0,222,222,118,1,
,,,,,,,,,,,,,,,,,,5e28e735ea776009d4d15c34,2020-08-10_18h02.39.204,lexical_decision_task_MP,2020.1.3,Win32,60,z,1,0.85234,,,,,,,,0.85234,1,,,,,,308,NW,"ID",33,psetch,PSETCH,z,,,,,,0.124444444,-0.394444444,0,0,0,,0,223,223,247,1,
,,,,,,,,,,,,,,,,,,5e28e735ea776009d4d15c34,2020-08-10_18h02.39.204,lexical_decision_task_MP,2020.1.3,Win32,60,z,1,1.335045,,,,,,,,1.335045,1,,,,,,405,NW,"ID",50,flumni,FLUMNI,z,,,,,,0.124444444,-0.394444444,0,0,0,,0,224,224,344,1,
,,,,,,,,,,,,,,,,,,5e28e735ea776009d4d15c34,2020-08-10_18h02.39.204,lexical_decision_task_MP,2020.1.3,Win32,60,z,1,0.74858,,,,,,,,0.74858,1,,,,,,356,NW,"ID",33,othnis,OTHNIS,z,,,,,,0.124444444,-0.394444444,0,0,0,,0,225,225,295,1,
,,,,,,,,,,,,,,,,,,5e28e735ea776009d4d15c34,2020-08-10_18h02.39.204,lexical_decision_task_MP,2020.1.3,Win32,60,z,1,0.707095,,,,,,,,0.707095,1,,,,,,246,NW,UN,50,blarge,PIATON,z,,,,,,0.124444444,-0.394444444,0,0,0,,0,226,226,425,1,
,,,,,,,,,,,,,,,,,,5e28e735ea776009d4d15c34,2020-08-10_18h02.39.204,lexical_decision_task_MP,2020.1.3,Win32,60,m,1,0.730595,,,,,,,,0.730595,1,,,,,,182,WORD,UN,33,absent,WINTER,m,,,,,,0.124444444,-0.394444444,0,0,0,,0,227,227,121,1,
,,,,,,,,,,,,,,,,,,5e28e735ea776009d4d15c34,2020-08-10_18h02.39.204,lexical_decision_task_MP,2020.1.3,Win32,60,m,1,0.75218,,,,,,,,0.75218,1,,,,,,209,WORD,UN,33,monkey,SEARCH,m,,,,,,0.124444444,-0.394444444,0,0,0,,0,228,228,148,1,
,,,,,,,,,,,,,,,,,,5e28e735ea776009d4d15c34,2020-08-10_18h02.39.204,lexical_decision_task_MP,2020.1.3,Win32,60,,0,,,,,,,,,0.75218,-1,,,,,,383,NW,"ID",50,aungre,AUNGRE,z,,,,,,0.124444444,-0.394444444,0,0,0,,0,229,229,322,1,
,,,,,,,,,,,,,,,,,,5e28e735ea776009d4d15c34,2020-08-10_18h02.39.204,lexical_decision_task_MP,2020.1.3,Win32,60,z,1,1.28987,,,,,,,,1.28987,1,,,,,,462,NW,UN,33,kispel,ABSULT,z,,,,,,0.124444444,-0.394444444,0,0,0,,0,230,230,401,1,
,,,,,,,,,,,,,,,,,,5e28e735ea776009d4d15c34,2020-08-10_18h02.39.204,lexical_decision_task_MP,2020.1.3,Win32,60,m,1,0.73117,,,,,,,,0.73117,1,,,,,,212,WORD,UN,33,squeal,VERIFY,m,,,,,,0.124444444,-0.394444444,0,0,0,,0,231,231,151,1,
,,,,,,,,,,,,,,,,,,5e28e735ea776009d4d15c34,2020-08-10_18h02.39.204,lexical_decision_task_MP,2020.1.3,Win32,60,z,1,0.715205,,,,,,,,0.715205,1,,,,,,419,NW,"ID",50,slount,SLOUNT,z,,,,,,0.124444444,-0.394444444,0,0,0,,0,232,232,358,1,
,,,,,,,,,,,,,,,,,,5e28e735ea776009d4d15c34,2020-08-10_18h02.39.204,lexical_decision_task_MP,2020.1.3,Win32,60,z,1,0.78303,,,,,,,,0.78303,1,,,,,,330,NW,"ID",33,kensom,KENSOM,z,,,,,,0.124444444,-0.394444444,0,0,0,,0,233,233,269,1,
,,,,,,,,,,,,,,,,,,5e28e735ea776009d4d15c34,2020-08-10_18h02.39.204,lexical_decision_task_MP,2020.1.3,Win32,60,m,1,0.731255,,,,,,,,0.731255,1,,,,,,15,WORD,UN,50,faucet,AMOUNT,m,,,,,,0.124444444,-0.394444444,0,0,0,,0,234,234,194,1,
,,,,,,,,,,,,,,,,,,5e28e735ea776009d4d15c34,2020-08-10_18h02.39.204,lexical_decision_task_MP,2020.1.3,Win32,60,m,1,0.652045,,,,,,,,0.652045,1,,,,,,106,WORD,"ID",33,ransom,RANSOM,m,,,,,,0.124444444,-0.394444444,0,0,0,,0,235,235,45,1,
,,,,,,,,,,,,,,,,,,5e28e735ea776009d4d15c34,2020-08-10_18h02.39.204,lexical_decision_task_MP,2020.1.3,Win32,60,z,1,0.763535,,,,,,,,0.763535,1,,,,,,400,NW,"ID",50,wearox,WEAROX,z,,,,,,0.124444444,-0.394444444,0,0,0,,0,236,236,339,1,
,,,,,,,,,,,,,,,,,,5e28e735ea776009d4d15c34,2020-08-10_18h02.39.204,lexical_decision_task_MP,2020.1.3,Win32,60,m,1,0.673265,,,,,,,,0.673265,1,,,,,,150,WORD,"ID",50,random,RANDOM,m,,,,,,0.124444444,-0.394444444,0,0,0,,0,237,237,89,1,
,,,,,,,,,,,,,,,,,,5e28e735ea776009d4d15c34,2020-08-10_18h02.39.204,lexical_decision_task_MP,2020.1.3,Win32,60,z,1,0.887155,,,,,,,,0.887155,1,,,,,,369,NW,"ID",50,wronch,WRONCH,z,,,,,,0.124444444,-0.394444444,0,0,0,,0,238,238,308,1,
,,,,,,,,,,,,,,,,,,5e28e735ea776009d4d15c34,2020-08-10_18h02.39.204,lexical_decision_task_MP,2020.1.3,Win32,60,m,1,0.83233,,,,,,,,0.83233,1,,,,,,72,WORD,"ID",33,bright,BRIGHT,m,,,,,,0.124444444,-0.394444444,0,0,0,,0,239,239,11,1,
,,,,,,,,,,,,,,,,,,5e28e735ea776009d4d15c34,2020-08-10_18h02.39.204,lexical_decision_task_MP,2020.1.3,Win32,60,z,0,0.805335,,,,,,,,0.805335,0,,,,,,142,WORD,"ID",50,spruce,SPRUCE,m,,,,,,0.124444444,-0.394444444,0,0,0,,0,240,240,81,1,
,,,,,,,,,,,,,,,,,,5e28e735ea776009d4d15c34,2020-08-10_18h02.39.204,lexical_decision_task_MP,2020.1.3,Win32,60,z,1,0.63033,,,,,,,,0.63033,1,,,,,,460,NW,UN,33,justre,MINGAR,z,,,,,,0.124444444,-0.394444444,0,0,0,space,0,241,241,399,1,48.48662
,,,,,,,,,,,,,,,,,,5e28e735ea776009d4d15c34,2020-08-10_18h02.39.204,lexical_decision_task_MP,2020.1.3,Win32,60,z,1,0.79342,,,,,,,,0.79342,1,,,,,,370,NW,"ID",50,sleact,SLEACT,z,,,,,,0.124444444,-0.394444444,0,0,0,,0,242,242,309,1,
,,,,,,,,,,,,,,,,,,5e28e735ea776009d4d15c34,2020-08-10_18h02.39.204,lexical_decision_task_MP,2020.1.3,Win32,60,m,1,0.779215,,,,,,,,0.779215,1,,,,,,211,WORD,UN,33,verify,INFECT,m,,,,,,0.124444444,-0.394444444,0,0,0,,0,243,243,150,1,
,,,,,,,,,,,,,,,,,,5e28e735ea776009d4d15c34,2020-08-10_18h02.39.204,lexical_decision_task_MP,2020.1.3,Win32,60,z,1,0.80367,,,,,,,,0.80367,1,,,,,,385,NW,"ID",50,veigma,VEIGMA,z,,,,,,0.124444444,-0.394444444,0,0,0,,0,244,244,324,1,
,,,,,,,,,,,,,,,,,,5e28e735ea776009d4d15c34,2020-08-10_18h02.39.204,lexical_decision_task_MP,2020.1.3,Win32,60,z,1,0.93458,,,,,,,,0.93458,1,,,,,,345,NW,"ID",33,absend,ABSEND,z,,,,,,0.124444444,-0.394444444,0,0,0,,0,245,245,284,1,
,,,,,,,,,,,,,,,,,,5e28e735ea776009d4d15c34,2020-08-10_18h02.39.204,lexical_decision_task_MP,2020.1.3,Win32,60,z,1,1.112885,,,,,,,,1.112885,1,,,,,,290,NW,UN,50,pretch,SPLINO,z,,,,,,0.124444444,-0.394444444,0,0,0,,0,246,246,469,1,
,,,,,,,,,,,,,,,,,,5e28e735ea776009d4d15c34,2020-08-10_18h02.39.204,lexical_decision_task_MP,2020.1.3,Win32,60,z,1,0.63855,,,,,,,,0.63855,1,,,,,,477,NW,UN,33,lobush,PHOTIE,z,,,,,,0.124444444,-0.394444444,0,0,0,,0,247,247,416,1,
,,,,,,,,,,,,,,,,,,5e28e735ea776009d4d15c34,2020-08-10_18h02.39.204,lexical_decision_task_MP,2020.1.3,Win32,60,z,1,0.72873,,,,,,,,0.72873,1,,,,,,457,NW,UN,33,barcet,WANIGH,z,,,,,,0.124444444,-0.394444444,0,0,0,,0,248,248,396,1,
,,,,,,,,,,,,,,,,,,5e28e735ea776009d4d15c34,2020-08-10_18h02.39.204,lexical_decision_task_MP,2020.1.3,Win32,60,m,1,0.636375,,,,,,,,0.636375,1,,,,,,81,WORD,"ID",33,friend,FRIEND,m,,,,,,0.124444444,-0.394444444,0,0,0,,0,249,249,20,1,
,,,,,,,,,,,,,,,,,,5e28e735ea776009d4d15c34,2020-08-10_18h02.39.204,lexical_decision_task_MP,2020.1.3,Win32,60,z,0,1.146775,,,,,,,,1.146775,0,,,,,,207,WORD,UN,33,hockey,WREATH,m,,,,,,0.124444444,-0.394444444,0,0,0,,0,250,250,146,1,
,,,,,,,,,,,,,,,,,,5e28e735ea776009d4d15c34,2020-08-10_18h02.39.204,lexical_decision_task_MP,2020.1.3,Win32,60,z,1,0.715825,,,,,,,,0.715825,1,,,,,,377,NW,"ID",50,injore,INJORE,z,,,,,,0.124444444,-0.394444444,0,0,0,,0,251,251,316,1,
,,,,,,,,,,,,,,,,,,5e28e735ea776009d4d15c34,2020-08-10_18h02.39.204,lexical_decision_task_MP,2020.1.3,Win32,60,m,1,0.72423,,,,,,,,0.72423,1,,,,,,62,WORD,"ID",33,region,REGION,m,,,,,,0.124444444,-0.394444444,0,0,0,,0,252,252,1,1,
,,,,,,,,,,,,,,,,,,5e28e735ea776009d4d15c34,2020-08-10_18h02.39.204,lexical_decision_task_MP,2020.1.3,Win32,60,m,1,0.60577,,,,,,,,0.60577,1,,,,,,27,WORD,UN,50,comedy,SCREAM,m,,,,,,0.124444444,-0.394444444,0,0,0,,0,253,253,206,1,
,,,,,,,,,,,,,,,,,,5e28e735ea776009d4d15c34,2020-08-10_18h02.39.204,lexical_decision_task_MP,2020.1.3,Win32,60,z,0,1.17088,,,,,,,,1.17088,0,,,,,,78,WORD,"ID",33,column,COLUMN,m,,,,,,0.124444444,-0.394444444,0,0,0,,0,254,254,17,1,
,,,,,,,,,,,,,,,,,,5e28e735ea776009d4d15c34,2020-08-10_18h02.39.204,lexical_decision_task_MP,2020.1.3,Win32,60,m,1,0.68116,,,,,,,,0.68116,1,,,,,,110,WORD,"ID",33,polite,POLITE,m,,,,,,0.124444444,-0.394444444,0,0,0,,0,255,255,49,1,
,,,,,,,,,,,,,,,,,,5e28e735ea776009d4d15c34,2020-08-10_18h02.39.204,lexical_decision_task_MP,2020.1.3,Win32,60,m,1,0.636145,,,,,,,,0.636145,1,,,,,,96,WORD,"ID",33,ignore,IGNORE,m,,,,,,0.124444444,-0.394444444,0,0,0,,0,256,256,35,1,
,,,,,,,,,,,,,,,,,,5e28e735ea776009d4d15c34,2020-08-10_18h02.39.204,lexical_decision_task_MP,2020.1.3,Win32,60,m,1,0.757815,,,,,,,,0.757815,1,,,,,,11,WORD,UN,50,amount,CRUISE,m,,,,,,0.124444444,-0.394444444,0,0,0,,0,257,257,190,1,
,,,,,,,,,,,,,,,,,,5e28e735ea776009d4d15c34,2020-08-10_18h02.39.204,lexical_decision_task_MP,2020.1.3,Win32,60,m,1,0.726435,,,,,,,,0.726435,1,,,,,,154,WORD,"ID",50,author,AUTHOR,m,,,,,,0.124444444,-0.394444444,0,0,0,,0,258,258,93,1,
,,,,,,,,,,,,,,,,,,5e28e735ea776009d4d15c34,2020-08-10_18h02.39.204,lexical_decision_task_MP,2020.1.3,Win32,60,m,1,0.63442,,,,,,,,0.63442,1,,,,,,223,WORD,UN,33,period,KIDNEY,m,,,,,,0.124444444,-0.394444444,0,0,0,,0,259,259,162,1,
,,,,,,,,,,,,,,,,,,5e28e735ea776009d4d15c34,2020-08-10_18h02.39.204,lexical_decision_task_MP,2020.1.3,Win32,60,z,1,1.09981,,,,,,,,1.09981,1,,,,,,325,NW,"ID",33,thruse,THRUSE,z,,,,,,0.124444444,-0.394444444,0,0,0,,0,260,260,264,1,
,,,,,,,,,,,,,,,,,,5e28e735ea776009d4d15c34,2020-08-10_18h02.39.204,lexical_decision_task_MP,2020.1.3,Win32,60,m,1,1.09722,,,,,,,,1.09722,1,,,,,,54,WORD,UN,50,stroke,RAMBLE,m,,,,,,0.124444444,-0.394444444,0,0,0,,0,261,261,233,1,
,,,,,,,,,,,,,,,,,,5e28e735ea776009d4d15c34,2020-08-10_18h02.39.204,lexical_decision_task_MP,2020.1.3,Win32,60,z,1,1.384015,,,,,,,,1.384015,1,,,,,,376,NW,"ID",50,iguare,IGUARE,z,,,,,,0.124444444,-0.394444444,0,0,0,,0,262,262,315,1,
,,,,,,,,,,,,,,,,,,5e28e735ea776009d4d15c34,2020-08-10_18h02.39.204,lexical_decision_task_MP,2020.1.3,Win32,60,z,0,0.72205,,,,,,,,0.72205,0,,,,,,177,WORD,"ID",50,advent,ADVENT,m,,,,,,0.124444444,-0.394444444,0,0,0,,0,263,263,116,1,
,,,,,,,,,,,,,,,,,,5e28e735ea776009d4d15c34,2020-08-10_18h02.39.204,lexical_decision_task_MP,2020.1.3,Win32,60,z,1,0.76825,,,,,,,,0.76825,1,,,,,,428,NW,UN,33,funtle,TANDLY,z,,,,,,0.124444444,-0.394444444,0,0,0,,0,264,264,367,1,
,,,,,,,,,,,,,,,,,,5e28e735ea776009d4d15c34,2020-08-10_18h02.39.204,lexical_decision_task_MP,2020.1.3,Win32,60,m,1,0.649775,,,,,,,,0.649775,1,,,,,,66,WORD,"ID",33,gospel,GOSPEL,m,,,,,,0.124444444,-0.394444444,0,0,0,,0,265,265,5,1,
,,,,,,,,,,,,,,,,,,5e28e735ea776009d4d15c34,2020-08-10_18h02.39.204,lexical_decision_task_MP,2020.1.3,Win32,60,m,1,0.65503,,,,,,,,0.65503,1,,,,,,190,WORD,UN,33,stable,BACKUP,m,,,,,,0.124444444,-0.394444444,0,0,0,,0,266,266,129,1,
,,,,,,,,,,,,,,,,,,5e28e735ea776009d4d15c34,2020-08-10_18h02.39.204,lexical_decision_task_MP,2020.1.3,Win32,60,z,1,1.239165,,,,,,,,1.239165,1,,,,,,314,NW,"ID",33,sprine,SPRINE,z,,,,,,0.124444444,-0.394444444,0,0,0,,0,267,267,253,1,
,,,,,,,,,,,,,,,,,,5e28e735ea776009d4d15c34,2020-08-10_18h02.39.204,lexical_decision_task_MP,2020.1.3,Win32,60,z,1,0.847155,,,,,,,,0.847155,1,,,,,,432,NW,UN,33,drance,LUNKER,z,,,,,,0.124444444,-0.394444444,0,0,0,,0,268,268,371,1,
,,,,,,,,,,,,,,,,,,5e28e735ea776009d4d15c34,2020-08-10_18h02.39.204,lexical_decision_task_MP,2020.1.3,Win32,60,z,1,0.88999,,,,,,,,0.88999,1,,,,,,468,NW,UN,33,padifs,WICTOR,z,,,,,,0.124444444,-0.394444444,0,0,0,,0,269,269,407,1,
,,,,,,,,,,,,,,,,,,5e28e735ea776009d4d15c34,2020-08-10_18h02.39.204,lexical_decision_task_MP,2020.1.3,Win32,60,m,1,0.72216,,,,,,,,0.72216,1,,,,,,138,WORD,"ID",50,melody,MELODY,m,,,,,,0.124444444,-0.394444444,0,0,0,,0,270,270,77,1,
,,,,,,,,,,,,,,,,,,5e28e735ea776009d4d15c34,2020-08-10_18h02.39.204,lexical_decision_task_MP,2020.1.3,Win32,60,m,1,0.81535,,,,,,,,0.81535,1,,,,,,87,WORD,"ID",33,filter,FILTER,m,,,,,,0.124444444,-0.394444444,0,0,0,,0,271,271,26,1,
,,,,,,,,,,,,,,,,,,5e28e735ea776009d4d15c34,2020-08-10_18h02.39.204,lexical_decision_task_MP,2020.1.3,Win32,60,z,1,0.947975,,,,,,,,0.947975,1,,,,,,374,NW,"ID",50,sliant,SLIANT,z,,,,,,0.124444444,-0.394444444,0,0,0,,0,272,272,313,1,
,,,,,,,,,,,,,,,,,,5e28e735ea776009d4d15c34,2020-08-10_18h02.39.204,lexical_decision_task_MP,2020.1.3,Win32,60,z,1,0.95521,,,,,,,,0.95521,1,,,,,,309,NW,"ID",33,amiloy,AMILOY,z,,,,,,0.124444444,-0.394444444,0,0,0,,0,273,273,248,1,
,,,,,,,,,,,,,,,,,,5e28e735ea776009d4d15c34,2020-08-10_18h02.39.204,lexical_decision_task_MP,2020.1.3,Win32,60,z,1,1.13194,,,,,,,,1.13194,1,,,,,,407,NW,"ID",50,suiver,SUIVER,z,,,,,,0.124444444,-0.394444444,0,0,0,,0,274,274,346,1,
,,,,,,,,,,,,,,,,,,5e28e735ea776009d4d15c34,2020-08-10_18h02.39.204,lexical_decision_task_MP,2020.1.3,Win32,60,m,1,0.7384,,,,,,,,0.7384,1,,,,,,174,WORD,"ID",50,turkey,TURKEY,m,,,,,,0.124444444,-0.394444444,0,0,0,,0,275,275,113,1,
,,,,,,,,,,,,,,,,,,5e28e735ea776009d4d15c34,2020-08-10_18h02.39.204,lexical_decision_task_MP,2020.1.3,Win32,60,m,1,0.56246,,,,,,,,0.56246,1,,,,,,229,WORD,UN,33,fringe,MOTHER,m,,,,,,0.124444444,-0.394444444,0,0,0,,0,276,276,168,1,
,,,,,,,,,,,,,,,,,,5e28e735ea776009d4d15c34,2020-08-10_18h02.39.204,lexical_decision_task_MP,2020.1.3,Win32,60,z,1,0.71966,,,,,,,,0.71966,1,,,,,,381,NW,"ID",50,huniek,HUNIEK,z,,,,,,0.124444444,-0.394444444,0,0,0,,0,277,277,320,1,
,,,,,,,,,,,,,,,,,,5e28e735ea776009d4d15c34,2020-08-10_18h02.39.204,lexical_decision_task_MP,2020.1.3,Win32,60,z,1,0.83263,,,,,,,,0.83263,1,,,,,,307,NW,"ID",33,kirafe,KIRAFE,z,,,,,,0.124444444,-0.394444444,0,0,0,,0,278,278,246,1,
,,,,,,,,,,,,,,,,,,5e28e735ea776009d4d15c34,2020-08-10_18h02.39.204,lexical_decision_task_MP,2020.1.3,Win32,60,z,1,0.826655,,,,,,,,0.826655,1,,,,,,415,NW,"ID",50,higsta,HIGSTA,z,,,,,,0.124444444,-0.394444444,0,0,0,,0,279,279,354,1,
,,,,,,,,,,,,,,,,,,5e28e735ea776009d4d15c34,2020-08-10_18h02.39.204,lexical_decision_task_MP,2020.1.3,Win32,60,m,1,0.699095,,,,,,,,0.699095,1,,,,,,46,WORD,UN,50,income,SINGLE,m,,,,,,0.124444444,-0.394444444,0,0,0,,0,280,280,225,1,
,,,,,,,,,,,,,,,,,,5e28e735ea776009d4d15c34,2020-08-10_18h02.39.204,lexical_decision_task_MP,2020.1.3,Win32,60,m,1,0.908835,,,,,,,,0.908835,1,,,,,,163,WORD,"ID",50,string,STRING,m,,,,,,0.124444444,-0.394444444,0,0,0,,0,281,281,102,1,
,,,,,,,,,,,,,,,,,,5e28e735ea776009d4d15c34,2020-08-10_18h02.39.204,lexical_decision_task_MP,2020.1.3,Win32,60,m,0,0.701,,,,,,,,0.701,0,,,,,,248,NW,UN,50,batrol,STROLE,z,,,,,,0.124444444,-0.394444444,0,0,0,,0,282,282,427,1,
,,,,,,,,,,,,,,,,,,5e28e735ea776009d4d15c34,2020-08-10_18h02.39.204,lexical_decision_task_MP,2020.1.3,Win32,60,m,1,0.669235,,,,,,,,0.669235,1,,,,,,19,WORD,UN,50,breast,PATRON,m,,,,,,0.124444444,-0.394444444,0,0,0,,0,283,283,198,1,
,,,,,,,,,,,,,,,,,,5e28e735ea776009d4d15c34,2020-08-10_18h02.39.204,lexical_decision_task_MP,2020.1.3,Win32,60,z,1,0.85218,,,,,,,,0.85218,1,,,,,,373,NW,"ID",50,bigent,BIGENT,z,,,,,,0.124444444,-0.394444444,0,0,0,,0,284,284,312,1,
,,,,,,,,,,,,,,,,,,5e28e735ea776009d4d15c34,2020-08-10_18h02.39.204,lexical_decision_task_MP,2020.1.3,Win32,60,z,1,1.266605,,,,,,,,1.266605,1,,,,,,416,NW,"ID",50,pathel,PATHEL,z,,,,,,0.124444444,-0.394444444,0,0,0,,0,285,285,355,1,
,,,,,,,,,,,,,,,,,,5e28e735ea776009d4d15c34,2020-08-10_18h02.39.204,lexical_decision_task_MP,2020.1.3,Win32,60,z,1,0.946615,,,,,,,,0.946615,1,,,,,,320,NW,"ID",33,jockal,JOCKAL,z,,,,,,0.124444444,-0.394444444,0,0,0,,0,286,286,259,1,
,,,,,,,,,,,,,,,,,,5e28e735ea776009d4d15c34,2020-08-10_18h02.39.204,lexical_decision_task_MP,2020.1.3,Win32,60,z,1,0.614635,,,,,,,,0.614635,1,,,,,,291,NW,UN,50,ablint,PRETCH,z,,,,,,0.124444444,-0.394444444,0,0,0,,0,287,287,470,1,
,,,,,,,,,,,,,,,,,,5e28e735ea776009d4d15c34,2020-08-10_18h02.39.204,lexical_decision_task_MP,2020.1.3,Win32,60,z,1,0.63317,,,,,,,,0.63317,1,,,,,,444,NW,UN,33,minkel,JAUNCE,z,,,,,,0.124444444,-0.394444444,0,0,0,,0,288,288,383,1,
,,,,,,,,,,,,,,,,,,5e28e735ea776009d4d15c34,2020-08-10_18h02.39.204,lexical_decision_task_MP,2020.1.3,Win32,60,m,1,0.779275,,,,,,,,0.779275,1,,,,,,137,WORD,"ID",50,finger,FINGER,m,,,,,,0.124444444,-0.394444444,0,0,0,,0,289,289,76,1,
,,,,,,,,,,,,,,,,,,5e28e735ea776009d4d15c34,2020-08-10_18h02.39.204,lexical_decision_task_MP,2020.1.3,Win32,60,z,1,0.696,,,,,,,,0.696,1,,,,,,390,NW,"ID",50,hatrus,HATRUS,z,,,,,,0.124444444,-0.394444444,0,0,0,,0,290,290,329,1,
,,,,,,,,,,,,,,,,,,5e28e735ea776009d4d15c34,2020-08-10_18h02.39.204,lexical_decision_task_MP,2020.1.3,Win32,60,z,1,0.721565,,,,,,,,0.721565,1,,,,,,281,NW,UN,50,porlex,MELATY,z,,,,,,0.124444444,-0.394444444,0,0,0,,0,291,291,460,1,
,,,,,,,,,,,,,,,,,,5e28e735ea776009d4d15c34,2020-08-10_18h02.39.204,lexical_decision_task_MP,2020.1.3,Win32,60,m,1,1.000555,,,,,,,,1.000555,1,,,,,,118,WORD,"ID",33,flight,FLIGHT,m,,,,,,0.124444444,-0.394444444,0,0,0,,0,292,292,57,1,
,,,,,,,,,,,,,,,,,,5e28e735ea776009d4d15c34,2020-08-10_18h02.39.204,lexical_decision_task_MP,2020.1.3,Win32,60,z,1,0.69784,,,,,,,,0.69784,1,,,,,,467,NW,UN,33,wictor,GORBIE,z,,,,,,0.124444444,-0.394444444,0,0,0,,0,293,293,406,1,
,,,,,,,,,,,,,,,,,,5e28e735ea776009d4d15c34,2020-08-10_18h02.39.204,lexical_decision_task_MP,2020.1.3,Win32,60,z,1,0.751185,,,,,,,,0.751185,1,,,,,,410,NW,"ID",50,tunory,TUNORY,z,,,,,,0.124444444,-0.394444444,0,0,0,,0,294,294,349,1,
,,,,,,,,,,,,,,,,,,5e28e735ea776009d4d15c34,2020-08-10_18h02.39.204,lexical_decision_task_MP,2020.1.3,Win32,60,z,1,0.76697,,,,,,,,0.76697,1,,,,,,478,NW,UN,33,pebric,ACRISE,z,,,,,,0.124444444,-0.394444444,0,0,0,,0,295,295,417,1,
,,,,,,,,,,,,,,,,,,5e28e735ea776009d4d15c34,2020-08-10_18h02.39.204,lexical_decision_task_MP,2020.1.3,Win32,60,m,1,1.466115,,,,,,,,1.466115,1,,,,,,93,WORD,"ID",33,public,PUBLIC,m,,,,,,0.124444444,-0.394444444,0,0,0,,0,296,296,32,1,
,,,,,,,,,,,,,,,,,,5e28e735ea776009d4d15c34,2020-08-10_18h02.39.204,lexical_decision_task_MP,2020.1.3,Win32,60,z,1,1.152635,,,,,,,,1.152635,1,,,,,,443,NW,UN,33,jaunce,DORSEX,z,,,,,,0.124444444,-0.394444444,0,0,0,,0,297,297,382,1,
,,,,,,,,,,,,,,,,,,5e28e735ea776009d4d15c34,2020-08-10_18h02.39.204,lexical_decision_task_MP,2020.1.3,Win32,60,z,1,1.317135,,,,,,,,1.317135,1,,,,,,359,NW,"ID",33,fonver,FONVER,z,,,,,,0.124444444,-0.394444444,0,0,0,,0,298,298,298,1,
,,,,,,,,,,,,,,,,,,5e28e735ea776009d4d15c34,2020-08-10_18h02.39.204,lexical_decision_task_MP,2020.1.3,Win32,60,m,1,1.07178,,,,,,,,1.07178,1,,,,,,185,WORD,UN,33,portal,BOTHER,m,,,,,,0.124444444,-0.394444444,0,0,0,,0,299,299,124,1,
,,,,,,,,,,,,,,,,,,5e28e735ea776009d4d15c34,2020-08-10_18h02.39.204,lexical_decision_task_MP,2020.1.3,Win32,60,z,1,1.08153,,,,,,,,1.08153,1,,,,,,331,NW,"ID",33,gilfew,GILFEW,z,,,,,,0.124444444,-0.394444444,0,0,0,,0,300,300,270,1,
,,,,,,,,,,,,,,,,,,5e28e735ea776009d4d15c34,2020-08-10_18h02.39.204,lexical_decision_task_MP,2020.1.3,Win32,60,z,1,1.320455,,,,,,,,1.320455,1,,,,,,242,NW,UN,50,musied,UNWERT,z,,,,,,0.124444444,-0.394444444,0,0,0,,0,301,301,421,1,
,,,,,,,,,,,,,,,,,,5e28e735ea776009d4d15c34,2020-08-10_18h02.39.204,lexical_decision_task_MP,2020.1.3,Win32,60,z,1,0.81327,,,,,,,,0.81327,1,,,,,,479,NW,UN,33,crible,LOBUSH,z,,,,,,0.124444444,-0.394444444,0,0,0,,0,302,302,418,1,
,,,,,,,,,,,,,,,,,,5e28e735ea776009d4d15c34,2020-08-10_18h02.39.204,lexical_decision_task_MP,2020.1.3,Win32,60,m,1,0.79549,,,,,,,,0.79549,1,,,,,,100,WORD,"ID",33,carbon,CARBON,m,,,,,,0.124444444,-0.394444444,0,0,0,,0,303,303,39,1,
,,,,,,,,,,,,,,,,,,5e28e735ea776009d4d15c34,2020-08-10_18h02.39.204,lexical_decision_task_MP,2020.1.3,Win32,60,z,1,0.900445,,,,,,,,0.900445,1,,,,,,276,NW,UN,50,petain,YARMON,z,,,,,,0.124444444,-0.394444444,0,0,0,,0,304,304,455,1,
,,,,,,,,,,,,,,,,,,5e28e735ea776009d4d15c34,2020-08-10_18h02.39.204,lexical_decision_task_MP,2020.1.3,Win32,60,m,1,0.812685,,,,,,,,0.812685,1,,,,,,41,WORD,UN,50,chapel,SPRING,m,,,,,,0.124444444,-0.394444444,0,0,0,,0,305,305,220,1,
,,,,,,,,,,,,,,,,,,5e28e735ea776009d4d15c34,2020-08-10_18h02.39.204,lexical_decision_task_MP,2020.1.3,Win32,60,m,1,0.6858,,,,,,,,0.6858,1,,,,,,82,WORD,"ID",33,stigma,STIGMA,m,,,,,,0.124444444,-0.394444444,0,0,0,,0,306,306,21,1,
,,,,,,,,,,,,,,,,,,5e28e735ea776009d4d15c34,2020-08-10_18h02.39.204,lexical_decision_task_MP,2020.1.3,Win32,60,z,1,0.779805,,,,,,,,0.779805,1,,,,,,417,NW,"ID",50,earoud,EAROUD,z,,,,,,0.124444444,-0.394444444,0,0,0,,0,307,307,356,1,
,,,,,,,,,,,,,,,,,,5e28e735ea776009d4d15c34,2020-08-10_18h02.39.204,lexical_decision_task_MP,2020.1.3,Win32,60,m,1,0.660855,,,,,,,,0.660855,1,,,,,,3,WORD,UN,50,trench,KNIGHT,m,,,,,,0.124444444,-0.394444444,0,0,0,,0,308,308,182,1,
,,,,,,,,,,,,,,,,,,5e28e735ea776009d4d15c34,2020-08-10_18h02.39.204,lexical_decision_task_MP,2020.1.3,Win32,60,z,1,0.683485,,,,,,,,0.683485,1,,,,,,346,NW,"ID",33,saudic,SAUDIC,z,,,,,,0.124444444,-0.394444444,0,0,0,,0,309,309,285,1,
,,,,,,,,,,,,,,,,,,5e28e735ea776009d4d15c34,2020-08-10_18h02.39.204,lexical_decision_task_MP,2020.1.3,Win32,60,m,1,0.76369,,,,,,,,0.76369,1,,,,,,42,WORD,UN,50,tongue,CHAPEL,m,,,,,,0.124444444,-0.394444444,0,0,0,,0,310,310,221,1,
,,,,,,,,,,,,,,,,,,5e28e735ea776009d4d15c34,2020-08-10_18h02.39.204,lexical_decision_task_MP,2020.1.3,Win32,60,z,1,0.98307,,,,,,,,0.98307,1,,,,,,429,NW,UN,33,caroey,FUNTLE,z,,,,,,0.124444444,-0.394444444,0,0,0,,0,311,311,368,1,
,,,,,,,,,,,,,,,,,,5e28e735ea776009d4d15c34,2020-08-10_18h02.39.204,lexical_decision_task_MP,2020.1.3,Win32,60,z,0,0.66418,,,,,,,,0.66418,0,,,,,,236,WORD,UN,33,grumpy,PIRATE,m,,,,,,0.124444444,-0.394444444,0,0,0,,0,312,312,175,1,
,,,,,,,,,,,,,,,,,,5e28e735ea776009d4d15c34,2020-08-10_18h02.39.204,lexical_decision_task_MP,2020.1.3,Win32,60,m,1,1.32991,,,,,,,,1.32991,1,,,,,,85,WORD,"ID",33,sprawl,SPRAWL,m,,,,,,0.124444444,-0.394444444,0,0,0,,0,313,313,24,1,
,,,,,,,,,,,,,,,,,,5e28e735ea776009d4d15c34,2020-08-10_18h02.39.204,lexical_decision_task_MP,2020.1.3,Win32,60,z,1,1.16995,,,,,,,,1.16995,1,,,,,,338,NW,"ID",33,wreash,WREASH,z,,,,,,0.124444444,-0.394444444,0,0,0,,0,314,314,277,1,
,,,,,,,,,,,,,,,,,,5e28e735ea776009d4d15c34,2020-08-10_18h02.39.204,lexical_decision_task_MP,2020.1.3,Win32,60,m,1,0.838515,,,,,,,,0.838515,1,,,,,,9,WORD,UN,50,bridge,HUSTLE,m,,,,,,0.124444444,-0.394444444,0,0,0,,0,315,315,188,1,
,,,,,,,,,,,,,,,,,,5e28e735ea776009d4d15c34,2020-08-10_18h02.39.204,lexical_decision_task_MP,2020.1.3,Win32,60,m,1,0.69001,,,,,,,,0.69001,1,,,,,,165,WORD,"ID",50,invest,INVEST,m,,,,,,0.124444444,-0.394444444,0,0,0,,0,316,316,104,1,
,,,,,,,,,,,,,,,,,,5e28e735ea776009d4d15c34,2020-08-10_18h02.39.204,lexical_decision_task_MP,2020.1.3,Win32,60,z,1,1.12989,,,,,,,,1.12989,1,,,,,,404,NW,"ID",50,cluirm,CLUIRM,z,,,,,,0.124444444,-0.394444444,0,0,0,,0,317,317,343,1,
,,,,,,,,,,,,,,,,,,5e28e735ea776009d4d15c34,2020-08-10_18h02.39.204,lexical_decision_task_MP,2020.1.3,Win32,60,z,1,0.96077,,,,,,,,0.96077,1,,,,,,437,NW,UN,33,baitch,SNAPEL,z,,,,,,0.124444444,-0.394444444,0,0,0,,0,318,318,376,1,
,,,,,,,,,,,,,,,,,,5e28e735ea776009d4d15c34,2020-08-10_18h02.39.204,lexical_decision_task_MP,2020.1.3,Win32,60,m,1,1.35304,,,,,,,,1.35304,1,,,,,,200,WORD,UN,33,admire,BEACON,m,,,,,,0.124444444,-0.394444444,0,0,0,,0,319,319,139,1,
,,,,,,,,,,,,,,,,,,5e28e735ea776009d4d15c34,2020-08-10_18h02.39.204,lexical_decision_task_MP,2020.1.3,Win32,60,z,1,0.655885,,,,,,,,0.655885,1,,,,,,270,NW,UN,50,aubrid,WRIMSY,z,,,,,,0.124444444,-0.394444444,0,0,0,,0,320,320,449,1,
,,,,,,,,,,,,,,,,,,5e28e735ea776009d4d15c34,2020-08-10_18h02.39.204,lexical_decision_task_MP,2020.1.3,Win32,60,m,1,0.6986,,,,,,,,0.6986,1,,,,,,57,WORD,UN,50,danger,CHANGE,m,,,,,,0.124444444,-0.394444444,0,0,0,,0,321,321,236,1,
,,,,,,,,,,,,,,,,,,5e28e735ea776009d4d15c34,2020-08-10_18h02.39.204,lexical_decision_task_MP,2020.1.3,Win32,60,m,1,0.9036,,,,,,,,0.9036,1,,,,,,184,WORD,UN,33,bother,SLEAZY,m,,,,,,0.124444444,-0.394444444,0,0,0,,0,322,322,123,1,
,,,,,,,,,,,,,,,,,,5e28e735ea776009d4d15c34,2020-08-10_18h02.39.204,lexical_decision_task_MP,2020.1.3,Win32,60,m,1,0.6566,,,,,,,,0.6566,1,,,,,,67,WORD,"ID",33,policy,POLICY,m,,,,,,0.124444444,-0.394444444,0,0,0,,0,323,323,6,1,
,,,,,,,,,,,,,,,,,,5e28e735ea776009d4d15c34,2020-08-10_18h02.39.204,lexical_decision_task_MP,2020.1.3,Win32,60,m,1,0.766965,,,,,,,,0.766965,1,,,,,,61,WORD,"ID",33,ponder,PONDER,m,,,,,,0.124444444,-0.394444444,0,0,0,,0,324,324,0,1,
,,,,,,,,,,,,,,,,,,5e28e735ea776009d4d15c34,2020-08-10_18h02.39.204,lexical_decision_task_MP,2020.1.3,Win32,60,m,1,0.670445,,,,,,,,0.670445,1,,,,,,76,WORD,"ID",33,exotic,EXOTIC,m,,,,,,0.124444444,-0.394444444,0,0,0,,0,325,325,15,1,
,,,,,,,,,,,,,,,,,,5e28e735ea776009d4d15c34,2020-08-10_18h02.39.204,lexical_decision_task_MP,2020.1.3,Win32,60,m,1,0.996905,,,,,,,,0.996905,1,,,,,,64,WORD,"ID",33,throne,THRONE,m,,,,,,0.124444444,-0.394444444,0,0,0,,0,326,326,3,1,
,,,,,,,,,,,,,,,,,,5e28e735ea776009d4d15c34,2020-08-10_18h02.39.204,lexical_decision_task_MP,2020.1.3,Win32,60,m,1,0.68595,,,,,,,,0.68595,1,,,,,,120,WORD,"ID",33,strain,STRAIN,m,,,,,,0.124444444,-0.394444444,0,0,0,,0,327,327,59,1,
,,,,,,,,,,,,,,,,,,5e28e735ea776009d4d15c34,2020-08-10_18h02.39.204,lexical_decision_task_MP,2020.1.3,Win32,60,m,1,0.67912,,,,,,,,0.67912,1,,,,,,147,WORD,"ID",50,garlic,GARLIC,m,,,,,,0.124444444,-0.394444444,0,0,0,,0,328,328,86,1,
,,,,,,,,,,,,,,,,,,5e28e735ea776009d4d15c34,2020-08-10_18h02.39.204,lexical_decision_task_MP,2020.1.3,Win32,60,z,1,1.10266,,,,,,,,1.10266,1,,,,,,292,NW,UN,50,swance,ABLINT,z,,,,,,0.124444444,-0.394444444,0,0,0,,0,329,329,471,1,
,,,,,,,,,,,,,,,,,,5e28e735ea776009d4d15c34,2020-08-10_18h02.39.204,lexical_decision_task_MP,2020.1.3,Win32,60,m,1,1.452965,,,,,,,,1.452965,1,,,,,,125,WORD,"ID",50,nickel,NICKEL,m,,,,,,0.124444444,-0.394444444,0,0,0,,0,330,330,64,1,
,,,,,,,,,,,,,,,,,,5e28e735ea776009d4d15c34,2020-08-10_18h02.39.204,lexical_decision_task_MP,2020.1.3,Win32,60,z,1,1.03513,,,,,,,,1.03513,1,,,,,,396,NW,"ID",50,flengy,FLENGY,z,,,,,,0.124444444,-0.394444444,0,0,0,,0,331,331,335,1,
,,,,,,,,,,,,,,,,,,5e28e735ea776009d4d15c34,2020-08-10_18h02.39.204,lexical_decision_task_MP,2020.1.3,Win32,60,m,1,0.94725,,,,,,,,0.94725,1,,,,,,124,WORD,"ID",50,blouse,BLOUSE,m,,,,,,0.124444444,-0.394444444,0,0,0,,0,332,332,63,1,
,,,,,,,,,,,,,,,,,,5e28e735ea776009d4d15c34,2020-08-10_18h02.39.204,lexical_decision_task_MP,2020.1.3,Win32,60,z,1,1.65572,,,,,,,,1.65572,1,,,,,,445,NW,UN,33,runamo,MINKEL,z,,,,,,0.124444444,-0.394444444,0,0,0,,0,333,333,384,1,
,,,,,,,,,,,,,,,,,,5e28e735ea776009d4d15c34,2020-08-10_18h02.39.204,lexical_decision_task_MP,2020.1.3,Win32,60,m,1,0.831015,,,,,,,,0.831015,1,,,,,,135,WORD,"ID",50,import,IMPORT,m,,,,,,0.124444444,-0.394444444,0,0,0,,0,334,334,74,1,
,,,,,,,,,,,,,,,,,,5e28e735ea776009d4d15c34,2020-08-10_18h02.39.204,lexical_decision_task_MP,2020.1.3,Win32,60,m,1,0.855805,,,,,,,,0.855805,1,,,,,,152,WORD,"ID",50,rocket,ROCKET,m,,,,,,0.124444444,-0.394444444,0,0,0,,0,335,335,91,1,
,,,,,,,,,,,,,,,,,,5e28e735ea776009d4d15c34,2020-08-10_18h02.39.204,lexical_decision_task_MP,2020.1.3,Win32,60,z,1,0.73733,,,,,,,,0.73733,1,,,,,,303,NW,"ID",33,fiream,FIREAM,z,,,,,,0.124444444,-0.394444444,0,0,0,,0,336,336,242,1,
,,,,,,,,,,,,,,,,,,5e28e735ea776009d4d15c34,2020-08-10_18h02.39.204,lexical_decision_task_MP,2020.1.3,Win32,60,z,1,0.89803,,,,,,,,0.89803,1,,,,,,434,NW,UN,33,impurb,PITROM,z,,,,,,0.124444444,-0.394444444,0,0,0,,0,337,337,373,1,
,,,,,,,,,,,,,,,,,,5e28e735ea776009d4d15c34,2020-08-10_18h02.39.204,lexical_decision_task_MP,2020.1.3,Win32,60,z,1,1.08092,,,,,,,,1.08092,1,,,,,,463,NW,UN,33,chaite,KISPEL,z,,,,,,0.124444444,-0.394444444,0,0,0,,0,338,338,402,1,
,,,,,,,,,,,,,,,,,,5e28e735ea776009d4d15c34,2020-08-10_18h02.39.204,lexical_decision_task_MP,2020.1.3,Win32,60,z,1,1.34877,,,,,,,,1.34877,1,,,,,,389,NW,"ID",50,witmer,WITMER,z,,,,,,0.124444444,-0.394444444,0,0,0,,0,339,339,328,1,
,,,,,,,,,,,,,,,,,,5e28e735ea776009d4d15c34,2020-08-10_18h02.39.204,lexical_decision_task_MP,2020.1.3,Win32,60,z,1,0.89976,,,,,,,,0.89976,1,,,,,,285,NW,UN,50,reldon,PRUDGE,z,,,,,,0.124444444,-0.394444444,0,0,0,,0,340,340,464,1,
,,,,,,,,,,,,,,,,,,5e28e735ea776009d4d15c34,2020-08-10_18h02.39.204,lexical_decision_task_MP,2020.1.3,Win32,60,m,1,0.82974,,,,,,,,0.82974,1,,,,,,127,WORD,"ID",50,castle,CASTLE,m,,,,,,0.124444444,-0.394444444,0,0,0,,0,341,341,66,1,
,,,,,,,,,,,,,,,,,,5e28e735ea776009d4d15c34,2020-08-10_18h02.39.204,lexical_decision_task_MP,2020.1.3,Win32,60,z,1,0.673905,,,,,,,,0.673905,1,,,,,,362,NW,"ID",50,tireau,TIREAU,z,,,,,,0.124444444,-0.394444444,0,0,0,,0,342,342,301,1,
,,,,,,,,,,,,,,,,,,5e28e735ea776009d4d15c34,2020-08-10_18h02.39.204,lexical_decision_task_MP,2020.1.3,Win32,60,z,0,1.23235,,,,,,,,1.23235,0,,,,,,116,WORD,"ID",33,tumble,TUMBLE,m,,,,,,0.124444444,-0.394444444,0,0,0,,0,343,343,55,1,
,,,,,,,,,,,,,,,,,,5e28e735ea776009d4d15c34,2020-08-10_18h02.39.204,lexical_decision_task_MP,2020.1.3,Win32,60,z,1,0.8975,,,,,,,,0.8975,1,,,,,,471,NW,UN,33,cigney,NOBEST,z,,,,,,0.124444444,-0.394444444,0,0,0,,0,344,344,410,1,
,,,,,,,,,,,,,,,,,,5e28e735ea776009d4d15c34,2020-08-10_18h02.39.204,lexical_decision_task_MP,2020.1.3,Win32,60,m,1,0.884635,,,,,,,,0.884635,1,,,,,,237,WORD,UN,33,glance,POSTER,m,,,,,,0.124444444,-0.394444444,0,0,0,,0,345,345,176,1,
,,,,,,,,,,,,,,,,,,5e28e735ea776009d4d15c34,2020-08-10_18h02.39.204,lexical_decision_task_MP,2020.1.3,Win32,60,m,1,0.61843,,,,,,,,0.61843,1,,,,,,188,WORD,UN,33,censor,SOCIAL,m,,,,,,0.124444444,-0.394444444,0,0,0,,0,346,346,127,1,
,,,,,,,,,,,,,,,,,,5e28e735ea776009d4d15c34,2020-08-10_18h02.39.204,lexical_decision_task_MP,2020.1.3,Win32,60,m,1,1.24541,,,,,,,,1.24541,1,,,,,,114,WORD,"ID",33,placid,PLACID,m,,,,,,0.124444444,-0.394444444,0,0,0,,0,347,347,53,1,
,,,,,,,,,,,,,,,,,,5e28e735ea776009d4d15c34,2020-08-10_18h02.39.204,lexical_decision_task_MP,2020.1.3,Win32,60,m,1,0.770285,,,,,,,,0.770285,1,,,,,,4,WORD,UN,50,plunge,TRENCH,m,,,,,,0.124444444,-0.394444444,0,0,0,,0,348,348,183,1,
,,,,,,,,,,,,,,,,,,5e28e735ea776009d4d15c34,2020-08-10_18h02.39.204,lexical_decision_task_MP,2020.1.3,Win32,60,m,1,0.95274,,,,,,,,0.95274,1,,,,,,157,WORD,"ID",50,dragon,DRAGON,m,,,,,,0.124444444,-0.394444444,0,0,0,,0,349,349,96,1,
,,,,,,,,,,,,,,,,,,5e28e735ea776009d4d15c34,2020-08-10_18h02.39.204,lexical_decision_task_MP,2020.1.3,Win32,60,z,1,1.66309,,,,,,,,1.66309,1,,,,,,454,NW,UN,33,tondle,SCOUGE,z,,,,,,0.124444444,-0.394444444,0,0,0,,0,350,350,393,1,
,,,,,,,,,,,,,,,,,,5e28e735ea776009d4d15c34,2020-08-10_18h02.39.204,lexical_decision_task_MP,2020.1.3,Win32,60,m,0,0.87218,,,,,,,,0.87218,0,,,,,,398,NW,"ID",50,blunde,BLUNDE,z,,,,,,0.124444444,-0.394444444,0,0,0,,0,351,351,337,1,
,,,,,,,,,,,,,,,,,,5e28e735ea776009d4d15c34,2020-08-10_18h02.39.204,lexical_decision_task_MP,2020.1.3,Win32,60,z,1,1.42066,,,,,,,,1.42066,1,,,,,,317,NW,"ID",33,worbal,WORBAL,z,,,,,,0.124444444,-0.394444444,0,0,0,,0,352,352,256,1,
,,,,,,,,,,,,,,,,,,5e28e735ea776009d4d15c34,2020-08-10_18h02.39.204,lexical_decision_task_MP,2020.1.3,Win32,60,z,1,0.87007,,,,,,,,0.87007,1,,,,,,402,NW,"ID",50,syntic,SYNTIC,z,,,,,,0.124444444,-0.394444444,0,0,0,,0,353,353,341,1,
,,,,,,,,,,,,,,,,,,5e28e735ea776009d4d15c34,2020-08-10_18h02.39.204,lexical_decision_task_MP,2020.1.3,Win32,60,z,0,0.884795,,,,,,,,0.884795,0,,,,,,32,WORD,UN,50,scream,BUCKLE,m,,,,,,0.124444444,-0.394444444,0,0,0,,0,354,354,211,1,
,,,,,,,,,,,,,,,,,,5e28e735ea776009d4d15c34,2020-08-10_18h02.39.204,lexical_decision_task_MP,2020.1.3,Win32,60,z,1,0.832075,,,,,,,,0.832075,1,,,,,,447,NW,UN,33,sadent,GIRCUE,z,,,,,,0.124444444,-0.394444444,0,0,0,,0,355,355,386,1,
,,,,,,,,,,,,,,,,,,5e28e735ea776009d4d15c34,2020-08-10_18h02.39.204,lexical_decision_task_MP,2020.1.3,Win32,60,m,1,0.641775,,,,,,,,0.641775,1,,,,,,2,WORD,UN,50,knight,BRIDGE,m,,,,,,0.124444444,-0.394444444,0,0,0,,0,356,356,181,1,
,,,,,,,,,,,,,,,,,,5e28e735ea776009d4d15c34,2020-08-10_18h02.39.204,lexical_decision_task_MP,2020.1.3,Win32,60,m,1,0.546615,,,,,,,,0.546615,1,,,,,,31,WORD,UN,50,buckle,WEAPON,m,,,,,,0.124444444,-0.394444444,0,0,0,,0,357,357,210,1,
,,,,,,,,,,,,,,,,,,5e28e735ea776009d4d15c34,2020-08-10_18h02.39.204,lexical_decision_task_MP,2020.1.3,Win32,60,z,1,0.62348,,,,,,,,0.62348,1,,,,,,375,NW,"ID",50,yorque,YORQUE,z,,,,,,0.124444444,-0.394444444,0,0,0,,0,358,358,314,1,
,,,,,,,,,,,,,,,,,,5e28e735ea776009d4d15c34,2020-08-10_18h02.39.204,lexical_decision_task_MP,2020.1.3,Win32,60,z,1,0.70068,,,,,,,,0.70068,1,,,,,,301,NW,"ID",33,fainch,FAINCH,z,,,,,,0.124444444,-0.394444444,0,0,0,,0,359,359,240,1,
,,,,,,,,,,,,,,,,,,5e28e735ea776009d4d15c34,2020-08-10_18h02.39.204,lexical_decision_task_MP,2020.1.3,Win32,60,z,1,0.9238,,,,,,,,0.9238,1,,,,,,380,NW,"ID",50,cavory,CAVORY,z,,,,,,0.124444444,-0.394444444,0,0,0,,0,360,360,319,1,
,,,,,,,,,,,,,,,,,,5e28e735ea776009d4d15c34,2020-08-10_18h02.39.204,lexical_decision_task_MP,2020.1.3,Win32,60,z,1,0.68113,,,,,,,,0.68113,1,,,,,,379,NW,"ID",50,auting,AUTING,z,,,,,,0.124444444,-0.394444444,0,0,0,,0,361,361,318,1,
,,,,,,,,,,,,,,,,,,5e28e735ea776009d4d15c34,2020-08-10_18h02.39.204,lexical_decision_task_MP,2020.1.3,Win32,60,z,1,1.060425,,,,,,,,1.060425,1,,,,,,306,NW,"ID",33,sounge,SOUNGE,z,,,,,,0.124444444,-0.394444444,0,0,0,space,0,362,362,245,1,139.9235
,,,,,,,,,,,,,,,,,,5e28e735ea776009d4d15c34,2020-08-10_18h02.39.204,lexical_decision_task_MP,2020.1.3,Win32,60,z,1,0.714065,,,,,,,,0.714065,1,,,,,,465,NW,UN,33,bafent,WHIVEX,z,,,,,,0.124444444,-0.394444444,0,0,0,,0,363,363,404,1,
,,,,,,,,,,,,,,,,,,5e28e735ea776009d4d15c34,2020-08-10_18h02.39.204,lexical_decision_task_MP,2020.1.3,Win32,60,m,1,1.129505,,,,,,,,1.129505,1,,,,,,115,WORD,"ID",33,guitar,GUITAR,m,,,,,,0.124444444,-0.394444444,0,0,0,,0,364,364,54,1,
,,,,,,,,,,,,,,,,,,5e28e735ea776009d4d15c34,2020-08-10_18h02.39.204,lexical_decision_task_MP,2020.1.3,Win32,60,m,1,0.65637,,,,,,,,0.65637,1,,,,,,117,WORD,"ID",33,branch,BRANCH,m,,,,,,0.124444444,-0.394444444,0,0,0,,0,365,365,56,1,
,,,,,,,,,,,,,,,,,,5e28e735ea776009d4d15c34,2020-08-10_18h02.39.204,lexical_decision_task_MP,2020.1.3,Win32,60,z,1,0.746185,,,,,,,,0.746185,1,,,,,,282,NW,UN,50,veralf,PORLEX,z,,,,,,0.124444444,-0.394444444,0,0,0,,0,366,366,461,1,
,,,,,,,,,,,,,,,,,,5e28e735ea776009d4d15c34,2020-08-10_18h02.39.204,lexical_decision_task_MP,2020.1.3,Win32,60,m,1,0.58337,,,,,,,,0.58337,1,,,,,,180,WORD,"ID",50,silent,SILENT,m,,,,,,0.124444444,-0.394444444,0,0,0,,0,367,367,119,1,
,,,,,,,,,,,,,,,,,,5e28e735ea776009d4d15c34,2020-08-10_18h02.39.204,lexical_decision_task_MP,2020.1.3,Win32,60,z,1,0.693065,,,,,,,,0.693065,1,,,,,,326,NW,"ID",33,iguade,IGUADE,z,,,,,,0.124444444,-0.394444444,0,0,0,,0,368,368,265,1,
,,,,,,,,,,,,,,,,,,5e28e735ea776009d4d15c34,2020-08-10_18h02.39.204,lexical_decision_task_MP,2020.1.3,Win32,60,z,1,0.5879,,,,,,,,0.5879,1,,,,,,414,NW,"ID",50,serbol,SERBOL,z,,,,,,0.124444444,-0.394444444,0,0,0,,0,369,369,353,1,
,,,,,,,,,,,,,,,,,,5e28e735ea776009d4d15c34,2020-08-10_18h02.39.204,lexical_decision_task_MP,2020.1.3,Win32,60,m,1,0.615415,,,,,,,,0.615415,1,,,,,,193,WORD,UN,33,mildew,OBJECT,m,,,,,,0.124444444,-0.394444444,0,0,0,,0,370,370,132,1,
,,,,,,,,,,,,,,,,,,5e28e735ea776009d4d15c34,2020-08-10_18h02.39.204,lexical_decision_task_MP,2020.1.3,Win32,60,z,1,0.563975,,,,,,,,0.563975,1,,,,,,441,NW,UN,33,aboune,RASTOE,z,,,,,,0.124444444,-0.394444444,0,0,0,,0,371,371,380,1,
,,,,,,,,,,,,,,,,,,5e28e735ea776009d4d15c34,2020-08-10_18h02.39.204,lexical_decision_task_MP,2020.1.3,Win32,60,m,1,0.56452,,,,,,,,0.56452,1,,,,,,18,WORD,UN,50,patron,HUMBLE,m,,,,,,0.124444444,-0.394444444,0,0,0,,0,372,372,197,1,
,,,,,,,,,,,,,,,,,,5e28e735ea776009d4d15c34,2020-08-10_18h02.39.204,lexical_decision_task_MP,2020.1.3,Win32,60,z,1,0.81634,,,,,,,,0.81634,1,,,,,,470,NW,UN,33,nobest,CRUDIO,z,,,,,,0.124444444,-0.394444444,0,0,0,,0,373,373,409,1,
,,,,,,,,,,,,,,,,,,5e28e735ea776009d4d15c34,2020-08-10_18h02.39.204,lexical_decision_task_MP,2020.1.3,Win32,60,z,1,0.586085,,,,,,,,0.586085,1,,,,,,423,NW,UN,33,praile,STRELD,z,,,,,,0.124444444,-0.394444444,0,0,0,,0,374,374,362,1,
,,,,,,,,,,,,,,,,,,5e28e735ea776009d4d15c34,2020-08-10_18h02.39.204,lexical_decision_task_MP,2020.1.3,Win32,60,m,1,0.781295,,,,,,,,0.781295,1,,,,,,217,WORD,UN,33,shrink,LIQUOR,m,,,,,,0.124444444,-0.394444444,0,0,0,,0,375,375,156,1,
,,,,,,,,,,,,,,,,,,5e28e735ea776009d4d15c34,2020-08-10_18h02.39.204,lexical_decision_task_MP,2020.1.3,Win32,60,m,1,0.691485,,,,,,,,0.691485,1,,,,,,206,WORD,UN,33,wreath,TAILOR,m,,,,,,0.124444444,-0.394444444,0,0,0,,0,376,376,145,1,
,,,,,,,,,,,,,,,,,,5e28e735ea776009d4d15c34,2020-08-10_18h02.39.204,lexical_decision_task_MP,2020.1.3,Win32,60,m,0,0.7137,,,,,,,,0.7137,0,,,,,,332,NW,"ID",33,vangue,VANGUE,z,,,,,,0.124444444,-0.394444444,0,0,0,,0,377,377,271,1,
,,,,,,,,,,,,,,,,,,5e28e735ea776009d4d15c34,2020-08-10_18h02.39.204,lexical_decision_task_MP,2020.1.3,Win32,60,z,1,0.732765,,,,,,,,0.732765,1,,,,,,288,NW,UN,50,starby,YACEUP,z,,,,,,0.124444444,-0.394444444,0,0,0,,0,378,378,467,1,
,,,,,,,,,,,,,,,,,,5e28e735ea776009d4d15c34,2020-08-10_18h02.39.204,lexical_decision_task_MP,2020.1.3,Win32,60,z,1,0.680325,,,,,,,,0.680325,1,,,,,,344,NW,"ID",33,scrily,SCRILY,z,,,,,,0.124444444,-0.394444444,0,0,0,,0,379,379,283,1,
,,,,,,,,,,,,,,,,,,5e28e735ea776009d4d15c34,2020-08-10_18h02.39.204,lexical_decision_task_MP,2020.1.3,Win32,60,m,1,0.686305,,,,,,,,0.686305,1,,,,,,88,WORD,"ID",33,hunger,HUNGER,m,,,,,,0.124444444,-0.394444444,0,0,0,,0,380,380,27,1,
,,,,,,,,,,,,,,,,,,5e28e735ea776009d4d15c34,2020-08-10_18h02.39.204,lexical_decision_task_MP,2020.1.3,Win32,60,m,1,0.94722,,,,,,,,0.94722,1,,,,,,22,WORD,UN,50,wealth,JOCKEY,m,,,,,,0.124444444,-0.394444444,0,0,0,,0,381,381,201,1,
,,,,,,,,,,,,,,,,,,5e28e735ea776009d4d15c34,2020-08-10_18h02.39.204,lexical_decision_task_MP,2020.1.3,Win32,60,z,1,0.892105,,,,,,,,0.892105,1,,,,,,252,NW,UN,50,resait,STAPOD,z,,,,,,0.124444444,-0.394444444,0,0,0,,0,382,382,431,1,
,,,,,,,,,,,,,,,,,,5e28e735ea776009d4d15c34,2020-08-10_18h02.39.204,lexical_decision_task_MP,2020.1.3,Win32,60,m,1,0.82861,,,,,,,,0.82861,1,,,,,,105,WORD,"ID",33,number,NUMBER,m,,,,,,0.124444444,-0.394444444,0,0,0,,0,383,383,44,1,
,,,,,,,,,,,,,,,,,,5e28e735ea776009d4d15c34,2020-08-10_18h02.39.204,lexical_decision_task_MP,2020.1.3,Win32,60,z,1,1.071595,,,,,,,,1.071595,1,,,,,,335,NW,"ID",33,desion,DESION,z,,,,,,0.124444444,-0.394444444,0,0,0,,0,384,384,274,1,
,,,,,,,,,,,,,,,,,,5e28e735ea776009d4d15c34,2020-08-10_18h02.39.204,lexical_decision_task_MP,2020.1.3,Win32,60,m,1,0.684695,,,,,,,,0.684695,1,,,,,,26,WORD,UN,50,butler,SPRINT,m,,,,,,0.124444444,-0.394444444,0,0,0,,0,385,385,205,1,
,,,,,,,,,,,,,,,,,,5e28e735ea776009d4d15c34,2020-08-10_18h02.39.204,lexical_decision_task_MP,2020.1.3,Win32,60,z,1,0.74679,,,,,,,,0.74679,1,,,,,,298,NW,UN,50,sturch,PIERGY,z,,,,,,0.124444444,-0.394444444,0,0,0,,0,386,386,477,1,
,,,,,,,,,,,,,,,,,,5e28e735ea776009d4d15c34,2020-08-10_18h02.39.204,lexical_decision_task_MP,2020.1.3,Win32,60,m,1,1.249145,,,,,,,,1.249145,1,,,,,,225,WORD,UN,33,casino,VULGAR,m,,,,,,0.124444444,-0.394444444,0,0,0,,0,387,387,164,1,
,,,,,,,,,,,,,,,,,,5e28e735ea776009d4d15c34,2020-08-10_18h02.39.204,lexical_decision_task_MP,2020.1.3,Win32,60,z,1,0.712345,,,,,,,,0.712345,1,,,,,,368,NW,"ID",50,hornal,HORNAL,z,,,,,,0.124444444,-0.394444444,0,0,0,,0,388,388,307,1,
,,,,,,,,,,,,,,,,,,5e28e735ea776009d4d15c34,2020-08-10_18h02.39.204,lexical_decision_task_MP,2020.1.3,Win32,60,m,1,0.763725,,,,,,,,0.763725,1,,,,,,75,WORD,"ID",33,trophy,TROPHY,m,,,,,,0.124444444,-0.394444444,0,0,0,,0,389,389,14,1,
,,,,,,,,,,,,,,,,,,5e28e735ea776009d4d15c34,2020-08-10_18h02.39.204,lexical_decision_task_MP,2020.1.3,Win32,60,m,1,0.88823,,,,,,,,0.88823,1,,,,,,99,WORD,"ID",33,fluent,FLUENT,m,,,,,,0.124444444,-0.394444444,0,0,0,,0,390,390,38,1,
,,,,,,,,,,,,,,,,,,5e28e735ea776009d4d15c34,2020-08-10_18h02.39.204,lexical_decision_task_MP,2020.1.3,Win32,60,m,1,0.78479,,,,,,,,0.78479,1,,,,,,51,WORD,UN,50,impose,HUNGRY,m,,,,,,0.124444444,-0.394444444,0,0,0,,0,391,391,230,1,
,,,,,,,,,,,,,,,,,,5e28e735ea776009d4d15c34,2020-08-10_18h02.39.204,lexical_decision_task_MP,2020.1.3,Win32,60,m,1,0.731105,,,,,,,,0.731105,1,,,,,,232,WORD,UN,33,nature,INJECT,m,,,,,,0.124444444,-0.394444444,0,0,0,,0,392,392,171,1,
,,,,,,,,,,,,,,,,,,5e28e735ea776009d4d15c34,2020-08-10_18h02.39.204,lexical_decision_task_MP,2020.1.3,Win32,60,z,1,0.58539,,,,,,,,0.58539,1,,,,,,250,NW,UN,50,lupict,MILTED,z,,,,,,0.124444444,-0.394444444,0,0,0,,0,393,393,429,1,
,,,,,,,,,,,,,,,,,,5e28e735ea776009d4d15c34,2020-08-10_18h02.39.204,lexical_decision_task_MP,2020.1.3,Win32,60,m,1,1.40326,,,,,,,,1.40326,1,,,,,,222,WORD,UN,33,export,HINDER,m,,,,,,0.124444444,-0.394444444,0,0,0,,0,394,394,161,1,
,,,,,,,,,,,,,,,,,,5e28e735ea776009d4d15c34,2020-08-10_18h02.39.204,lexical_decision_task_MP,2020.1.3,Win32,60,m,1,0.98137,,,,,,,,0.98137,1,,,,,,164,WORD,"ID",50,market,MARKET,m,,,,,,0.124444444,-0.394444444,0,0,0,,0,395,395,103,1,
,,,,,,,,,,,,,,,,,,5e28e735ea776009d4d15c34,2020-08-10_18h02.39.204,lexical_decision_task_MP,2020.1.3,Win32,60,m,1,0.69185,,,,,,,,0.69185,1,,,,,,145,WORD,"ID",50,parish,PARISH,m,,,,,,0.124444444,-0.394444444,0,0,0,,0,396,396,84,1,
,,,,,,,,,,,,,,,,,,5e28e735ea776009d4d15c34,2020-08-10_18h02.39.204,lexical_decision_task_MP,2020.1.3,Win32,60,z,1,0.73608,,,,,,,,0.73608,1,,,,,,430,NW,UN,33,chrums,CAROEY,z,,,,,,0.124444444,-0.394444444,0,0,0,,0,397,397,369,1,
,,,,,,,,,,,,,,,,,,5e28e735ea776009d4d15c34,2020-08-10_18h02.39.204,lexical_decision_task_MP,2020.1.3,Win32,60,m,1,0.6838,,,,,,,,0.6838,1,,,,,,37,WORD,UN,50,powder,INSULT,m,,,,,,0.124444444,-0.394444444,0,0,0,,0,398,398,216,1,
,,,,,,,,,,,,,,,,,,5e28e735ea776009d4d15c34,2020-08-10_18h02.39.204,lexical_decision_task_MP,2020.1.3,Win32,60,z,1,0.733335,,,,,,,,0.733335,1,,,,,,278,NW,UN,50,celond,UNIGHS,z,,,,,,0.124444444,-0.394444444,0,0,0,,0,399,399,457,1,
,,,,,,,,,,,,,,,,,,5e28e735ea776009d4d15c34,2020-08-10_18h02.39.204,lexical_decision_task_MP,2020.1.3,Win32,60,z,1,0.833955,,,,,,,,0.833955,1,,,,,,296,NW,UN,50,fertic,BEINCH,z,,,,,,0.124444444,-0.394444444,0,0,0,,0,400,400,475,1,
,,,,,,,,,,,,,,,,,,5e28e735ea776009d4d15c34,2020-08-10_18h02.39.204,lexical_decision_task_MP,2020.1.3,Win32,60,m,1,1.16344,,,,,,,,1.16344,1,,,,,,170,WORD,"ID",50,pounce,POUNCE,m,,,,,,0.124444444,-0.394444444,0,0,0,,0,401,401,109,1,
,,,,,,,,,,,,,,,,,,5e28e735ea776009d4d15c34,2020-08-10_18h02.39.204,lexical_decision_task_MP,2020.1.3,Win32,60,m,1,0.691405,,,,,,,,0.691405,1,,,,,,79,WORD,"ID",33,theory,THEORY,m,,,,,,0.124444444,-0.394444444,0,0,0,,0,402,402,18,1,
,,,,,,,,,,,,,,,,,,5e28e735ea776009d4d15c34,2020-08-10_18h02.39.204,lexical_decision_task_MP,2020.1.3,Win32,60,z,1,0.908555,,,,,,,,0.908555,1,,,,,,310,NW,"ID",33,daniet,DANIET,z,,,,,,0.124444444,-0.394444444,0,0,0,,0,403,403,249,1,
,,,,,,,,,,,,,,,,,,5e28e735ea776009d4d15c34,2020-08-10_18h02.39.204,lexical_decision_task_MP,2020.1.3,Win32,60,z,0,1.44697,,,,,,,,1.44697,0,,,,,,65,WORD,"ID",33,symbol,SYMBOL,m,,,,,,0.124444444,-0.394444444,0,0,0,,0,404,404,4,1,
