counterbalancing_condition,instr_done_keyboard.keys,instr_done_keyboard.rt,instr_done_touch.x,instr_done_touch.y,instr_done_touch.leftButton,instr_done_touch.midButton,instr_done_touch.rightButton,instruction_pages.thisRepN,instruction_pages.thisTrialN,instruction_pages.thisN,instruction_pages.thisIndex,instruction_pages.ran,pageN,phase,instruct_text,has_image,instruct_image,participant,date,expName,psychopyVersion,OS,frameRate,response.keys,response.corr,response.rt,touch_resp.x,touch_resp.y,touch_resp.leftButton,touch_resp.midButton,touch_resp.rightButton,touch_resp.time,touch_resp.clicked_name,rt,corr,practice_trials.thisRepN,practice_trials.thisTrialN,practice_trials.thisN,practice_trials.thisIndex,practice_trials.ran,TrialID,StimulusType,Condition,PrimeDuration,Prime,Target,corrAns,end_of_practice_trials_pages.thisRepN,end_of_practice_trials_pages.thisTrialN,end_of_practice_trials_pages.thisN,end_of_practice_trials_pages.thisIndex,end_of_practice_trials_pages.ran,break_done_touch.x,break_done_touch.y,break_done_touch.leftButton,break_done_touch.midButton,break_done_touch.rightButton,break_done_keyboard.keys,trials.thisRepN,trials.thisTrialN,trials.thisN,trials.thisIndex,trials.ran,break_done_keyboard.rt
0,space,17.23192,0.118518534,-0.158333343,0,0,0,0,0,0,0,1,1,instructions,"INSTRUCTIONS
At the start of each trial, look at the hash marks (######) in the center of the screen. After a moment, a string of letters will appear. Your task is to indicate if the letter string forms a word or not (i.e., if it is a nonword). For example, AUTHOR is a word while AUTHON is a nonword.

Press the space bar or touch the button below to continue.",0,,5e36f37bbdc067675450705f,2020-08-10_18h10.18.389,lexical_decision_task_MP,2020.1.3,Win32,60,,,,,,,,,,,,,,,,,,,,,,,,,,,,,,,,,,,,,,,,,
,space,8.022885,0.118518534,-0.158333343,0,0,0,0,1,1,1,1,2,instructions,"If your device has a keyboard, press the 'Z' key for nonwords and the 'M' key for words.





Press the space bar or touch the button below to continue.",1,keyboard-example.gif,5e36f37bbdc067675450705f,2020-08-10_18h10.18.389,lexical_decision_task_MP,2020.1.3,Win32,60,,,,,,,,,,,,,,,,,,,,,,,,,,,,,,,,,,,,,,,,,
,space,5.097015,0.118518534,-0.158333343,0,0,0,0,2,2,2,1,3,instructions,"If you are using a touchscreen only device, use the buttons on the screen. Do not use the mouse.





Press the space bar or touch the button below to continue.",1,touchscreen-example.gif,5e36f37bbdc067675450705f,2020-08-10_18h10.18.389,lexical_decision_task_MP,2020.1.3,Win32,60,,,,,,,,,,,,,,,,,,,,,,,,,,,,,,,,,,,,,,,,,
,space,14.00083,0.118518534,-0.158333343,0,0,0,0,3,3,3,1,4,instructions,"It is very important that you respond as quickly and accurately as possible, as each letter string will only be on the screen for two seconds. If you do not respond within this time, the message 'Too slow!' will be displayed and the experiment will progress to the next letter string. The first 20 trials will be practice trials and you will receive feedback on your answers. 

Press the space bar or touch the button below to start the practice trials.",0,,5e36f37bbdc067675450705f,2020-08-10_18h10.18.389,lexical_decision_task_MP,2020.1.3,Win32,60,,,,,,,,,,,,,,,,,,,,,,,,,,,,,,,,,,,,,,,,,
,,,,,,,,,,,,,,,,,,5e36f37bbdc067675450705f,2020-08-10_18h10.18.389,lexical_decision_task_MP,2020.1.3,Win32,60,m,1,1.905055,,,,,,,,1.905055,1,0,0,0,2,1,1003,WORD,"ID",50,almond,ALMOND,m,,,,,,,,,,,,,,,,,
,,,,,,,,,,,,,,,,,,5e36f37bbdc067675450705f,2020-08-10_18h10.18.389,lexical_decision_task_MP,2020.1.3,Win32,60,m,1,0.87043,,,,,,,,0.87043,1,0,1,1,5,1,1006,WORD,UN,33,frenzy,OBTAIN,m,,,,,,,,,,,,,,,,,
,,,,,,,,,,,,,,,,,,5e36f37bbdc067675450705f,2020-08-10_18h10.18.389,lexical_decision_task_MP,2020.1.3,Win32,60,z,1,0.69301,,,,,,,,0.69301,1,0,2,2,8,1,1009,NW,"ID",33,aslert,ASLERT,z,,,,,,,,,,,,,,,,,
,,,,,,,,,,,,,,,,,,5e36f37bbdc067675450705f,2020-08-10_18h10.18.389,lexical_decision_task_MP,2020.1.3,Win32,60,m,1,0.60053,,,,,,,,0.60053,1,0,3,3,1,1,1002,WORD,"ID",33,adjust,ADJUST,m,,,,,,,,,,,,,,,,,
,,,,,,,,,,,,,,,,,,5e36f37bbdc067675450705f,2020-08-10_18h10.18.389,lexical_decision_task_MP,2020.1.3,Win32,60,m,0,0.65084,,,,,,,,0.65084,0,0,4,4,10,1,1011,NW,"ID",50,inlade,INLADE,z,,,,,,,,,,,,,,,,,
,,,,,,,,,,,,,,,,,,5e36f37bbdc067675450705f,2020-08-10_18h10.18.389,lexical_decision_task_MP,2020.1.3,Win32,60,m,1,0.601055,,,,,,,,0.601055,1,0,5,5,7,1,1008,WORD,UN,50,hurdle,VOLUME,m,,,,,,,,,,,,,,,,,
,,,,,,,,,,,,,,,,,,5e36f37bbdc067675450705f,2020-08-10_18h10.18.389,lexical_decision_task_MP,2020.1.3,Win32,60,m,1,0.52222,,,,,,,,0.52222,1,0,6,6,3,1,1004,WORD,"ID",50,matrix,MATRIX,m,,,,,,,,,,,,,,,,,
,,,,,,,,,,,,,,,,,,5e36f37bbdc067675450705f,2020-08-10_18h10.18.389,lexical_decision_task_MP,2020.1.3,Win32,60,z,1,0.67019,,,,,,,,0.67019,1,0,7,7,15,1,1016,NW,UN,50,mushed,WHAISE,z,,,,,,,,,,,,,,,,,
,,,,,,,,,,,,,,,,,,5e36f37bbdc067675450705f,2020-08-10_18h10.18.389,lexical_decision_task_MP,2020.1.3,Win32,60,m,1,0.59402,,,,,,,,0.59402,1,0,8,8,4,1,1005,WORD,UN,33,abound,SQUEAK,m,,,,,,,,,,,,,,,,,
,,,,,,,,,,,,,,,,,,5e36f37bbdc067675450705f,2020-08-10_18h10.18.389,lexical_decision_task_MP,2020.1.3,Win32,60,z,1,0.64444,,,,,,,,0.64444,1,0,9,9,14,1,1015,NW,UN,50,miaber,THRALE,z,,,,,,,,,,,,,,,,,
,,,,,,,,,,,,,,,,,,5e36f37bbdc067675450705f,2020-08-10_18h10.18.389,lexical_decision_task_MP,2020.1.3,Win32,60,m,1,0.500025,,,,,,,,0.500025,1,0,10,10,6,1,1007,WORD,UN,50,tropic,ZOMBIE,m,,,,,,,,,,,,,,,,,
,,,,,,,,,,,,,,,,,,5e36f37bbdc067675450705f,2020-08-10_18h10.18.389,lexical_decision_task_MP,2020.1.3,Win32,60,z,1,0.70543,,,,,,,,0.70543,1,0,11,11,9,1,1010,NW,"ID",33,fariny,FARINY,z,,,,,,,,,,,,,,,,,
,,,,,,,,,,,,,,,,,,5e36f37bbdc067675450705f,2020-08-10_18h10.18.389,lexical_decision_task_MP,2020.1.3,Win32,60,m,1,0.55118,,,,,,,,0.55118,1,0,12,12,0,1,1001,WORD,"ID",33,utopia,UTOPIA,m,,,,,,,,,,,,,,,,,
,,,,,,,,,,,,,,,,,,5e36f37bbdc067675450705f,2020-08-10_18h10.18.389,lexical_decision_task_MP,2020.1.3,Win32,60,z,1,0.617935,,,,,,,,0.617935,1,0,13,13,13,1,1014,NW,UN,33,winfer,ROUPET,z,,,,,,,,,,,,,,,,,
,,,,,,,,,,,,,,,,,,5e36f37bbdc067675450705f,2020-08-10_18h10.18.389,lexical_decision_task_MP,2020.1.3,Win32,60,m,0,0.55461,,,,,,,,0.55461,0,0,14,14,11,1,1012,NW,"ID",50,rashet,RASHET,z,,,,,,,,,,,,,,,,,
,,,,,,,,,,,,,,,,,,5e36f37bbdc067675450705f,2020-08-10_18h10.18.389,lexical_decision_task_MP,2020.1.3,Win32,60,z,1,0.945815,,,,,,,,0.945815,1,0,15,15,12,1,1013,NW,UN,33,adveil,SPRINY,z,,,,,,,,,,,,,,,,,
,space,13.87737,0.118518534,-0.158333343,0,0,0,,,,,,1,end_of_practice,"You have completed the practice trials. During the experimental trials, you will not receive feedback, but it is very important that you respond as quickly and accurately as possible. 
Before you begin, please ensure that you are in a comfortable and quiet location and will not be disturbed for about 15 minutes, as we cannot use your data if you do not complete all the trials. 
There will be opportunities to take breaks at regular intervals during the experiment. When you are ready to start the experimental trials, please press space or touch the button below.",,,5e36f37bbdc067675450705f,2020-08-10_18h10.18.389,lexical_decision_task_MP,2020.1.3,Win32,60,,,,,,,,,,,,,,,,,,,,,,,,,0,0,0,0,1,,,,,,,,,,,,
,,,,,,,,,,,,,,,,,,5e36f37bbdc067675450705f,2020-08-10_18h10.18.389,lexical_decision_task_MP,2020.1.3,Win32,60,z,1,0.89707,,,,,,,,0.89707,1,,,,,,403,NW,UN,50,cluirm,BRUATS,z,,,,,,0.118518534,-0.158333343,0,0,0,,0,0,0,462,1,
,,,,,,,,,,,,,,,,,,5e36f37bbdc067675450705f,2020-08-10_18h10.18.389,lexical_decision_task_MP,2020.1.3,Win32,60,m,1,0.637165,,,,,,,,0.637165,1,,,,,,74,WORD,UN,33,trophy,PLAQUE,m,,,,,,0.118518534,-0.158333343,0,0,0,,0,1,1,133,1,
,,,,,,,,,,,,,,,,,,5e36f37bbdc067675450705f,2020-08-10_18h10.18.389,lexical_decision_task_MP,2020.1.3,Win32,60,z,1,0.613795,,,,,,,,0.613795,1,,,,,,261,NW,"ID",50,stunch,STUNCH,z,,,,,,0.118518534,-0.158333343,0,0,0,,0,2,2,320,1,
,,,,,,,,,,,,,,,,,,5e36f37bbdc067675450705f,2020-08-10_18h10.18.389,lexical_decision_task_MP,2020.1.3,Win32,60,m,1,0.690595,,,,,,,,0.690595,1,,,,,,161,WORD,UN,50,candle,PASTOR,m,,,,,,0.118518534,-0.158333343,0,0,0,,0,3,3,220,1,
,,,,,,,,,,,,,,,,,,5e36f37bbdc067675450705f,2020-08-10_18h10.18.389,lexical_decision_task_MP,2020.1.3,Win32,60,z,1,0.64043,,,,,,,,0.64043,1,,,,,,401,NW,UN,50,syntic,MUSTIL,z,,,,,,0.118518534,-0.158333343,0,0,0,,0,4,4,460,1,
,,,,,,,,,,,,,,,,,,5e36f37bbdc067675450705f,2020-08-10_18h10.18.389,lexical_decision_task_MP,2020.1.3,Win32,60,z,1,0.59898,,,,,,,,0.59898,1,,,,,,474,NW,"ID",33,hablin,HABLIN,z,,,,,,0.118518534,-0.158333343,0,0,0,,0,5,5,293,1,
,,,,,,,,,,,,,,,,,,5e36f37bbdc067675450705f,2020-08-10_18h10.18.389,lexical_decision_task_MP,2020.1.3,Win32,60,m,1,0.47121,,,,,,,,0.47121,1,,,,,,28,WORD,"ID",50,comedy,COMEDY,m,,,,,,0.118518534,-0.158333343,0,0,0,,0,6,6,87,1,
,,,,,,,,,,,,,,,,,,5e36f37bbdc067675450705f,2020-08-10_18h10.18.389,lexical_decision_task_MP,2020.1.3,Win32,60,z,0,0.45342,,,,,,,,0.45342,0,,,,,,206,WORD,"ID",33,tailor,TAILOR,m,,,,,,0.118518534,-0.158333343,0,0,0,,0,7,7,25,1,
,,,,,,,,,,,,,,,,,,5e36f37bbdc067675450705f,2020-08-10_18h10.18.389,lexical_decision_task_MP,2020.1.3,Win32,60,z,1,0.715455,,,,,,,,0.715455,1,,,,,,341,NW,UN,33,randow,MYRTIE,z,,,,,,0.118518534,-0.158333343,0,0,0,,0,8,8,400,1,
,,,,,,,,,,,,,,,,,,5e36f37bbdc067675450705f,2020-08-10_18h10.18.389,lexical_decision_task_MP,2020.1.3,Win32,60,z,1,0.57072,,,,,,,,0.57072,1,,,,,,465,NW,"ID",33,whivex,WHIVEX,z,,,,,,0.118518534,-0.158333343,0,0,0,,0,9,9,284,1,
,,,,,,,,,,,,,,,,,,5e36f37bbdc067675450705f,2020-08-10_18h10.18.389,lexical_decision_task_MP,2020.1.3,Win32,60,m,1,0.453945,,,,,,,,0.453945,1,,,,,,103,WORD,UN,33,studio,BOUNCE,m,,,,,,0.118518534,-0.158333343,0,0,0,,0,10,10,162,1,
,,,,,,,,,,,,,,,,,,5e36f37bbdc067675450705f,2020-08-10_18h10.18.389,lexical_decision_task_MP,2020.1.3,Win32,60,m,1,0.58221,,,,,,,,0.58221,1,,,,,,139,WORD,UN,50,prince,DEBRIS,m,,,,,,0.118518534,-0.158333343,0,0,0,,0,11,11,198,1,
,,,,,,,,,,,,,,,,,,5e36f37bbdc067675450705f,2020-08-10_18h10.18.389,lexical_decision_task_MP,2020.1.3,Win32,60,m,1,0.48892,,,,,,,,0.48892,1,,,,,,215,WORD,"ID",33,phobia,PHOBIA,m,,,,,,0.118518534,-0.158333343,0,0,0,,0,12,12,34,1,
,,,,,,,,,,,,,,,,,,5e36f37bbdc067675450705f,2020-08-10_18h10.18.389,lexical_decision_task_MP,2020.1.3,Win32,60,m,1,0.478275,,,,,,,,0.478275,1,,,,,,25,WORD,"ID",50,domain,DOMAIN,m,,,,,,0.118518534,-0.158333343,0,0,0,,0,13,13,84,1,
,,,,,,,,,,,,,,,,,,5e36f37bbdc067675450705f,2020-08-10_18h10.18.389,lexical_decision_task_MP,2020.1.3,Win32,60,m,1,0.61119,,,,,,,,0.61119,1,,,,,,218,WORD,"ID",33,shrink,SHRINK,m,,,,,,0.118518534,-0.158333343,0,0,0,,0,14,14,37,1,
,,,,,,,,,,,,,,,,,,5e36f37bbdc067675450705f,2020-08-10_18h10.18.389,lexical_decision_task_MP,2020.1.3,Win32,60,z,1,0.578165,,,,,,,,0.578165,1,,,,,,318,NW,UN,33,zomber,REAGLY,z,,,,,,0.118518534,-0.158333343,0,0,0,,0,15,15,377,1,
,,,,,,,,,,,,,,,,,,5e36f37bbdc067675450705f,2020-08-10_18h10.18.389,lexical_decision_task_MP,2020.1.3,Win32,60,z,1,0.591635,,,,,,,,0.591635,1,,,,,,243,NW,"ID",50,musied,MUSIED,z,,,,,,0.118518534,-0.158333343,0,0,0,,0,16,16,302,1,
,,,,,,,,,,,,,,,,,,5e36f37bbdc067675450705f,2020-08-10_18h10.18.389,lexical_decision_task_MP,2020.1.3,Win32,60,m,1,0.500865,,,,,,,,0.500865,1,,,,,,33,WORD,"ID",50,butler,BUTLER,m,,,,,,0.118518534,-0.158333343,0,0,0,,0,17,17,92,1,
,,,,,,,,,,,,,,,,,,5e36f37bbdc067675450705f,2020-08-10_18h10.18.389,lexical_decision_task_MP,2020.1.3,Win32,60,m,1,0.547285,,,,,,,,0.547285,1,,,,,,234,WORD,"ID",33,clumsy,CLUMSY,m,,,,,,0.118518534,-0.158333343,0,0,0,,0,18,18,53,1,
,,,,,,,,,,,,,,,,,,5e36f37bbdc067675450705f,2020-08-10_18h10.18.389,lexical_decision_task_MP,2020.1.3,Win32,60,m,0,0.49,,,,,,,,0.49,0,,,,,,269,NW,"ID",50,orchet,ORCHET,z,,,,,,0.118518534,-0.158333343,0,0,0,,0,19,19,328,1,
,,,,,,,,,,,,,,,,,,5e36f37bbdc067675450705f,2020-08-10_18h10.18.389,lexical_decision_task_MP,2020.1.3,Win32,60,m,1,0.52365,,,,,,,,0.52365,1,,,,,,112,WORD,UN,33,chorus,BREATH,m,,,,,,0.118518534,-0.158333343,0,0,0,,0,20,20,171,1,
,,,,,,,,,,,,,,,,,,5e36f37bbdc067675450705f,2020-08-10_18h10.18.389,lexical_decision_task_MP,2020.1.3,Win32,60,m,1,0.720675,,,,,,,,0.720675,1,,,,,,135,WORD,UN,50,bleach,IMPORT,m,,,,,,0.118518534,-0.158333343,0,0,0,,0,21,21,194,1,
,,,,,,,,,,,,,,,,,,5e36f37bbdc067675450705f,2020-08-10_18h10.18.389,lexical_decision_task_MP,2020.1.3,Win32,60,m,1,0.54922,,,,,,,,0.54922,1,,,,,,51,WORD,"ID",50,hungry,HUNGRY,m,,,,,,0.118518534,-0.158333343,0,0,0,,0,22,22,110,1,
,,,,,,,,,,,,,,,,,,5e36f37bbdc067675450705f,2020-08-10_18h10.18.389,lexical_decision_task_MP,2020.1.3,Win32,60,z,1,0.79746,,,,,,,,0.79746,1,,,,,,449,NW,"ID",33,brunge,BRUNGE,z,,,,,,0.118518534,-0.158333343,0,0,0,,0,23,23,268,1,
,,,,,,,,,,,,,,,,,,5e36f37bbdc067675450705f,2020-08-10_18h10.18.389,lexical_decision_task_MP,2020.1.3,Win32,60,m,1,0.735335,,,,,,,,0.735335,1,,,,,,89,WORD,UN,33,relish,PERMIT,m,,,,,,0.118518534,-0.158333343,0,0,0,,0,24,24,148,1,
,,,,,,,,,,,,,,,,,,5e36f37bbdc067675450705f,2020-08-10_18h10.18.389,lexical_decision_task_MP,2020.1.3,Win32,60,m,1,0.54788,,,,,,,,0.54788,1,,,,,,44,WORD,"ID",50,danger,DANGER,m,,,,,,0.118518534,-0.158333343,0,0,0,,0,25,25,103,1,
,,,,,,,,,,,,,,,,,,5e36f37bbdc067675450705f,2020-08-10_18h10.18.389,lexical_decision_task_MP,2020.1.3,Win32,60,z,0,0.58251,,,,,,,,0.58251,0,,,,,,177,WORD,UN,50,inform,ADVENT,m,,,,,,0.118518534,-0.158333343,0,0,0,,0,26,26,236,1,
,,,,,,,,,,,,,,,,,,5e36f37bbdc067675450705f,2020-08-10_18h10.18.389,lexical_decision_task_MP,2020.1.3,Win32,60,m,1,0.63081,,,,,,,,0.63081,1,,,,,,202,WORD,"ID",33,factor,FACTOR,m,,,,,,0.118518534,-0.158333343,0,0,0,,0,27,27,21,1,
,,,,,,,,,,,,,,,,,,5e36f37bbdc067675450705f,2020-08-10_18h10.18.389,lexical_decision_task_MP,2020.1.3,Win32,60,z,1,0.665655,,,,,,,,0.665655,1,,,,,,421,NW,"ID",33,knisma,KNISMA,z,,,,,,0.118518534,-0.158333343,0,0,0,,0,28,28,240,1,
,,,,,,,,,,,,,,,,,,5e36f37bbdc067675450705f,2020-08-10_18h10.18.389,lexical_decision_task_MP,2020.1.3,Win32,60,m,1,0.630525,,,,,,,,0.630525,1,,,,,,154,WORD,UN,50,lizard,AUTHOR,m,,,,,,0.118518534,-0.158333343,0,0,0,,0,29,29,213,1,
,,,,,,,,,,,,,,,,,,5e36f37bbdc067675450705f,2020-08-10_18h10.18.389,lexical_decision_task_MP,2020.1.3,Win32,60,m,1,0.531405,,,,,,,,0.531405,1,,,,,,40,WORD,"ID",50,convey,CONVEY,m,,,,,,0.118518534,-0.158333343,0,0,0,,0,30,30,99,1,
,,,,,,,,,,,,,,,,,,5e36f37bbdc067675450705f,2020-08-10_18h10.18.389,lexical_decision_task_MP,2020.1.3,Win32,60,m,1,0.517375,,,,,,,,0.517375,1,,,,,,141,WORD,UN,50,spruce,ORPHAN,m,,,,,,0.118518534,-0.158333343,0,0,0,,0,31,31,200,1,
,,,,,,,,,,,,,,,,,,5e36f37bbdc067675450705f,2020-08-10_18h10.18.389,lexical_decision_task_MP,2020.1.3,Win32,60,m,1,0.50394,,,,,,,,0.50394,1,,,,,,22,WORD,"ID",50,jockey,JOCKEY,m,,,,,,0.118518534,-0.158333343,0,0,0,,0,32,32,81,1,
,,,,,,,,,,,,,,,,,,5e36f37bbdc067675450705f,2020-08-10_18h10.18.389,lexical_decision_task_MP,2020.1.3,Win32,60,m,1,0.4764,,,,,,,,0.4764,1,,,,,,173,WORD,UN,50,turkey,SHOWER,m,,,,,,0.118518534,-0.158333343,0,0,0,,0,33,33,232,1,
,,,,,,,,,,,,,,,,,,5e36f37bbdc067675450705f,2020-08-10_18h10.18.389,lexical_decision_task_MP,2020.1.3,Win32,60,m,1,0.49612,,,,,,,,0.49612,1,,,,,,113,WORD,UN,33,placid,CHORUS,m,,,,,,0.118518534,-0.158333343,0,0,0,,0,34,34,172,1,
,,,,,,,,,,,,,,,,,,5e36f37bbdc067675450705f,2020-08-10_18h10.18.389,lexical_decision_task_MP,2020.1.3,Win32,60,z,1,0.667735,,,,,,,,0.667735,1,,,,,,372,NW,UN,50,bigent,RAMILY,z,,,,,,0.118518534,-0.158333343,0,0,0,,0,35,35,431,1,
,,,,,,,,,,,,,,,,,,5e36f37bbdc067675450705f,2020-08-10_18h10.18.389,lexical_decision_task_MP,2020.1.3,Win32,60,m,1,0.74822,,,,,,,,0.74822,1,,,,,,85,WORD,UN,33,rodent,SPRAWL,m,,,,,,0.118518534,-0.158333343,0,0,0,,0,36,36,144,1,
,,,,,,,,,,,,,,,,,,5e36f37bbdc067675450705f,2020-08-10_18h10.18.389,lexical_decision_task_MP,2020.1.3,Win32,60,z,1,0.60072,,,,,,,,0.60072,1,,,,,,308,NW,UN,33,amiloy,PSETCH,z,,,,,,0.118518534,-0.158333343,0,0,0,,0,37,37,367,1,
,,,,,,,,,,,,,,,,,,5e36f37bbdc067675450705f,2020-08-10_18h10.18.389,lexical_decision_task_MP,2020.1.3,Win32,60,m,1,0.580975,,,,,,,,0.580975,1,,,,,,97,WORD,UN,33,belong,CLIENT,m,,,,,,0.118518534,-0.158333343,0,0,0,,0,38,38,156,1,
,,,,,,,,,,,,,,,,,,5e36f37bbdc067675450705f,2020-08-10_18h10.18.389,lexical_decision_task_MP,2020.1.3,Win32,60,z,1,0.63153,,,,,,,,0.63153,1,,,,,,350,NW,UN,33,tiesch,NAGURS,z,,,,,,0.118518534,-0.158333343,0,0,0,,0,39,39,409,1,
,,,,,,,,,,,,,,,,,,5e36f37bbdc067675450705f,2020-08-10_18h10.18.389,lexical_decision_task_MP,2020.1.3,Win32,60,m,1,0.4681,,,,,,,,0.4681,1,,,,,,130,WORD,UN,50,quench,STUPID,m,,,,,,0.118518534,-0.158333343,0,0,0,,0,40,40,189,1,
,,,,,,,,,,,,,,,,,,5e36f37bbdc067675450705f,2020-08-10_18h10.18.389,lexical_decision_task_MP,2020.1.3,Win32,60,z,1,0.723555,,,,,,,,0.723555,1,,,,,,312,NW,UN,33,paurse,NERAWL,z,,,,,,0.118518534,-0.158333343,0,0,0,,0,41,41,371,1,
,,,,,,,,,,,,,,,,,,5e36f37bbdc067675450705f,2020-08-10_18h10.18.389,lexical_decision_task_MP,2020.1.3,Win32,60,m,1,0.7504,,,,,,,,0.7504,1,,,,,,125,WORD,UN,50,enough,NICKEL,m,,,,,,0.118518534,-0.158333343,0,0,0,,0,42,42,184,1,
,,,,,,,,,,,,,,,,,,5e36f37bbdc067675450705f,2020-08-10_18h10.18.389,lexical_decision_task_MP,2020.1.3,Win32,60,m,0,0.531965,,,,,,,,0.531965,0,,,,,,305,NW,UN,33,sounge,FORGLE,z,,,,,,0.118518534,-0.158333343,0,0,0,,0,43,43,364,1,
,,,,,,,,,,,,,,,,,,5e36f37bbdc067675450705f,2020-08-10_18h10.18.389,lexical_decision_task_MP,2020.1.3,Win32,60,z,1,0.834625,,,,,,,,0.834625,1,,,,,,352,NW,UN,33,clurey,TRINGE,z,,,,,,0.118518534,-0.158333343,0,0,0,,0,44,44,411,1,
,,,,,,,,,,,,,,,,,,5e36f37bbdc067675450705f,2020-08-10_18h10.18.389,lexical_decision_task_MP,2020.1.3,Win32,60,z,1,0.46514,,,,,,,,0.46514,1,,,,,,427,NW,"ID",33,schind,SCHIND,z,,,,,,0.118518534,-0.158333343,0,0,0,,0,45,45,246,1,
,,,,,,,,,,,,,,,,,,5e36f37bbdc067675450705f,2020-08-10_18h10.18.389,lexical_decision_task_MP,2020.1.3,Win32,60,m,1,0.68261,,,,,,,,0.68261,1,,,,,,170,WORD,UN,50,dragon,POUNCE,m,,,,,,0.118518534,-0.158333343,0,0,0,,0,46,46,229,1,
,,,,,,,,,,,,,,,,,,5e36f37bbdc067675450705f,2020-08-10_18h10.18.389,lexical_decision_task_MP,2020.1.3,Win32,60,m,1,0.5485,,,,,,,,0.5485,1,,,,,,36,WORD,"ID",50,vanish,VANISH,m,,,,,,0.118518534,-0.158333343,0,0,0,,0,47,47,95,1,
,,,,,,,,,,,,,,,,,,5e36f37bbdc067675450705f,2020-08-10_18h10.18.389,lexical_decision_task_MP,2020.1.3,Win32,60,z,1,0.67893,,,,,,,,0.67893,1,,,,,,428,NW,"ID",33,tandly,TANDLY,z,,,,,,0.118518534,-0.158333343,0,0,0,,0,48,48,247,1,
,,,,,,,,,,,,,,,,,,5e36f37bbdc067675450705f,2020-08-10_18h10.18.389,lexical_decision_task_MP,2020.1.3,Win32,60,z,1,0.51863,,,,,,,,0.51863,1,,,,,,290,NW,"ID",50,splino,SPLINO,z,,,,,,0.118518534,-0.158333343,0,0,0,,0,49,49,349,1,
,,,,,,,,,,,,,,,,,,5e36f37bbdc067675450705f,2020-08-10_18h10.18.389,lexical_decision_task_MP,2020.1.3,Win32,60,z,1,0.53338,,,,,,,,0.53338,1,,,,,,296,NW,"ID",50,beinch,BEINCH,z,,,,,,0.118518534,-0.158333343,0,0,0,,0,50,50,355,1,
,,,,,,,,,,,,,,,,,,5e36f37bbdc067675450705f,2020-08-10_18h10.18.389,lexical_decision_task_MP,2020.1.3,Win32,60,m,1,0.65466,,,,,,,,0.65466,1,,,,,,62,WORD,UN,33,launch,REGION,m,,,,,,0.118518534,-0.158333343,0,0,0,,0,51,51,121,1,
,,,,,,,,,,,,,,,,,,5e36f37bbdc067675450705f,2020-08-10_18h10.18.389,lexical_decision_task_MP,2020.1.3,Win32,60,z,1,0.60076,,,,,,,,0.60076,1,,,,,,456,NW,"ID",33,broget,BROGET,z,,,,,,0.118518534,-0.158333343,0,0,0,,0,52,52,275,1,
,,,,,,,,,,,,,,,,,,5e36f37bbdc067675450705f,2020-08-10_18h10.18.389,lexical_decision_task_MP,2020.1.3,Win32,60,m,1,0.44854,,,,,,,,0.44854,1,,,,,,11,WORD,"ID",50,cruise,CRUISE,m,,,,,,0.118518534,-0.158333343,0,0,0,,0,53,53,70,1,
,,,,,,,,,,,,,,,,,,5e36f37bbdc067675450705f,2020-08-10_18h10.18.389,lexical_decision_task_MP,2020.1.3,Win32,60,z,0,0.498555,,,,,,,,0.498555,0,,,,,,143,WORD,UN,50,sponge,REASON,m,,,,,,0.118518534,-0.158333343,0,0,0,,0,54,54,202,1,
,,,,,,,,,,,,,,,,,,5e36f37bbdc067675450705f,2020-08-10_18h10.18.389,lexical_decision_task_MP,2020.1.3,Win32,60,m,1,0.65776,,,,,,,,0.65776,1,,,,,,123,WORD,UN,50,blouse,STRIKE,m,,,,,,0.118518534,-0.158333343,0,0,0,,0,55,55,182,1,
,,,,,,,,,,,,,,,,,,5e36f37bbdc067675450705f,2020-08-10_18h10.18.389,lexical_decision_task_MP,2020.1.3,Win32,60,z,1,0.61693,,,,,,,,0.61693,1,,,,,,396,NW,UN,50,camble,FLENGY,z,,,,,,0.118518534,-0.158333343,0,0,0,,0,56,56,455,1,
,,,,,,,,,,,,,,,,,,5e36f37bbdc067675450705f,2020-08-10_18h10.18.389,lexical_decision_task_MP,2020.1.3,Win32,60,m,1,0.50154,,,,,,,,0.50154,1,,,,,,34,WORD,"ID",50,jungle,JUNGLE,m,,,,,,0.118518534,-0.158333343,0,0,0,,0,57,57,93,1,
,,,,,,,,,,,,,,,,,,5e36f37bbdc067675450705f,2020-08-10_18h10.18.389,lexical_decision_task_MP,2020.1.3,Win32,60,m,1,0.59453,,,,,,,,0.59453,1,,,,,,127,WORD,UN,50,senior,CASTLE,m,,,,,,0.118518534,-0.158333343,0,0,0,,0,58,58,186,1,
,,,,,,,,,,,,,,,,,,5e36f37bbdc067675450705f,2020-08-10_18h10.18.389,lexical_decision_task_MP,2020.1.3,Win32,60,z,1,0.712195,,,,,,,,0.712195,1,,,,,,281,NW,"ID",50,melaty,MELATY,z,,,,,,0.118518534,-0.158333343,0,0,0,,0,59,59,340,1,
,,,,,,,,,,,,,,,,,,5e36f37bbdc067675450705f,2020-08-10_18h10.18.389,lexical_decision_task_MP,2020.1.3,Win32,60,m,1,0.477495,,,,,,,,0.477495,1,,,,,,188,WORD,"ID",33,social,SOCIAL,m,,,,,,0.118518534,-0.158333343,0,0,0,,0,60,60,7,1,
,,,,,,,,,,,,,,,,,,5e36f37bbdc067675450705f,2020-08-10_18h10.18.389,lexical_decision_task_MP,2020.1.3,Win32,60,z,1,0.55062,,,,,,,,0.55062,1,,,,,,399,NW,UN,50,wearox,FOURET,z,,,,,,0.118518534,-0.158333343,0,0,0,,0,61,61,458,1,
,,,,,,,,,,,,,,,,,,5e36f37bbdc067675450705f,2020-08-10_18h10.18.389,lexical_decision_task_MP,2020.1.3,Win32,60,z,1,0.53926,,,,,,,,0.53926,1,,,,,,257,NW,"ID",50,veniod,VENIOD,z,,,,,,0.118518534,-0.158333343,0,0,0,,0,62,62,316,1,
,,,,,,,,,,,,,,,,,,5e36f37bbdc067675450705f,2020-08-10_18h10.18.389,lexical_decision_task_MP,2020.1.3,Win32,60,z,1,0.83273,,,,,,,,0.83273,1,,,,,,320,NW,UN,33,miator,JOCKAL,z,,,,,,0.118518534,-0.158333343,0,0,0,,0,63,63,379,1,
,,,,,,,,,,,,,,,,,,5e36f37bbdc067675450705f,2020-08-10_18h10.18.389,lexical_decision_task_MP,2020.1.3,Win32,60,m,1,0.500995,,,,,,,,0.500995,1,,,,,,55,WORD,"ID",50,stroke,STROKE,m,,,,,,0.118518534,-0.158333343,0,0,0,,0,64,64,114,1,
,,,,,,,,,,,,,,,,,,5e36f37bbdc067675450705f,2020-08-10_18h10.18.389,lexical_decision_task_MP,2020.1.3,Win32,60,m,1,0.58144,,,,,,,,0.58144,1,,,,,,116,WORD,UN,33,branch,TUMBLE,m,,,,,,0.118518534,-0.158333343,0,0,0,,0,65,65,175,1,
,,,,,,,,,,,,,,,,,,5e36f37bbdc067675450705f,2020-08-10_18h10.18.389,lexical_decision_task_MP,2020.1.3,Win32,60,m,0,0.44941,,,,,,,,0.44941,0,,,,,,265,NW,"ID",50,distar,DISTAR,z,,,,,,0.118518534,-0.158333343,0,0,0,,0,66,66,324,1,
,,,,,,,,,,,,,,,,,,5e36f37bbdc067675450705f,2020-08-10_18h10.18.389,lexical_decision_task_MP,2020.1.3,Win32,60,z,0,0.498455,,,,,,,,0.498455,0,,,,,,175,WORD,UN,50,strife,FABRIC,m,,,,,,0.118518534,-0.158333343,0,0,0,,0,67,67,234,1,
,,,,,,,,,,,,,,,,,,5e36f37bbdc067675450705f,2020-08-10_18h10.18.389,lexical_decision_task_MP,2020.1.3,Win32,60,z,1,0.74811,,,,,,,,0.74811,1,,,,,,419,NW,UN,50,gushop,SLOUNT,z,,,,,,0.118518534,-0.158333343,0,0,0,,0,68,68,478,1,
,,,,,,,,,,,,,,,,,,5e36f37bbdc067675450705f,2020-08-10_18h10.18.389,lexical_decision_task_MP,2020.1.3,Win32,60,m,1,0.94928,,,,,,,,0.94928,1,,,,,,117,WORD,UN,33,flight,BRANCH,m,,,,,,0.118518534,-0.158333343,0,0,0,,0,69,69,176,1,
,,,,,,,,,,,,,,,,,,5e36f37bbdc067675450705f,2020-08-10_18h10.18.389,lexical_decision_task_MP,2020.1.3,Win32,60,m,1,0.618315,,,,,,,,0.618315,1,,,,,,149,WORD,UN,50,random,INVADE,m,,,,,,0.118518534,-0.158333343,0,0,0,,0,70,70,208,1,
,,,,,,,,,,,,,,,,,,5e36f37bbdc067675450705f,2020-08-10_18h10.18.389,lexical_decision_task_MP,2020.1.3,Win32,60,m,1,0.699695,,,,,,,,0.699695,1,,,,,,155,WORD,UN,50,cradle,LIZARD,m,,,,,,0.118518534,-0.158333343,0,0,0,,0,71,71,214,1,
,,,,,,,,,,,,,,,,,,5e36f37bbdc067675450705f,2020-08-10_18h10.18.389,lexical_decision_task_MP,2020.1.3,Win32,60,z,1,0.867265,,,,,,,,0.867265,1,,,,,,317,NW,UN,33,reagly,WORBAL,z,,,,,,0.118518534,-0.158333343,0,0,0,,0,72,72,376,1,
,,,,,,,,,,,,,,,,,,5e36f37bbdc067675450705f,2020-08-10_18h10.18.389,lexical_decision_task_MP,2020.1.3,Win32,60,z,1,0.917925,,,,,,,,0.917925,1,,,,,,380,NW,UN,50,huniek,CAVORY,z,,,,,,0.118518534,-0.158333343,0,0,0,,0,73,73,439,1,
,,,,,,,,,,,,,,,,,,5e36f37bbdc067675450705f,2020-08-10_18h10.18.389,lexical_decision_task_MP,2020.1.3,Win32,60,z,1,0.735725,,,,,,,,0.735725,1,,,,,,349,NW,UN,33,nagurs,ASYLEN,z,,,,,,0.118518534,-0.158333343,0,0,0,,0,74,74,408,1,
,,,,,,,,,,,,,,,,,,5e36f37bbdc067675450705f,2020-08-10_18h10.18.389,lexical_decision_task_MP,2020.1.3,Win32,60,z,1,0.535675,,,,,,,,0.535675,1,,,,,,459,NW,"ID",33,bafent,BAFENT,z,,,,,,0.118518534,-0.158333343,0,0,0,,0,75,75,278,1,
,,,,,,,,,,,,,,,,,,5e36f37bbdc067675450705f,2020-08-10_18h10.18.389,lexical_decision_task_MP,2020.1.3,Win32,60,z,1,0.56931,,,,,,,,0.56931,1,,,,,,408,NW,UN,50,elopia,HURNIA,z,,,,,,0.118518534,-0.158333343,0,0,0,,0,76,76,467,1,
,,,,,,,,,,,,,,,,,,5e36f37bbdc067675450705f,2020-08-10_18h10.18.389,lexical_decision_task_MP,2020.1.3,Win32,60,m,1,0.714665,,,,,,,,0.714665,1,,,,,,207,WORD,"ID",33,wreath,WREATH,m,,,,,,0.118518534,-0.158333343,0,0,0,,0,77,77,26,1,
,,,,,,,,,,,,,,,,,,5e36f37bbdc067675450705f,2020-08-10_18h10.18.389,lexical_decision_task_MP,2020.1.3,Win32,60,m,1,0.615685,,,,,,,,0.615685,1,,,,,,153,WORD,UN,50,author,BEHOLD,m,,,,,,0.118518534,-0.158333343,0,0,0,,0,78,78,212,1,
,,,,,,,,,,,,,,,,,,5e36f37bbdc067675450705f,2020-08-10_18h10.18.389,lexical_decision_task_MP,2020.1.3,Win32,60,z,1,0.5603,,,,,,,,0.5603,1,,,,,,323,NW,UN,33,steikh,ROSAIL,z,,,,,,0.118518534,-0.158333343,0,0,0,,0,79,79,382,1,
,,,,,,,,,,,,,,,,,,5e36f37bbdc067675450705f,2020-08-10_18h10.18.389,lexical_decision_task_MP,2020.1.3,Win32,60,z,1,0.850275,,,,,,,,0.850275,1,,,,,,360,NW,UN,33,fainch,DESORY,z,,,,,,0.118518534,-0.158333343,0,0,0,,0,80,80,419,1,
,,,,,,,,,,,,,,,,,,5e36f37bbdc067675450705f,2020-08-10_18h10.18.389,lexical_decision_task_MP,2020.1.3,Win32,60,z,1,0.81995,,,,,,,,0.81995,1,,,,,,298,NW,"ID",50,piergy,PIERGY,z,,,,,,0.118518534,-0.158333343,0,0,0,,0,81,81,357,1,
,,,,,,,,,,,,,,,,,,5e36f37bbdc067675450705f,2020-08-10_18h10.18.389,lexical_decision_task_MP,2020.1.3,Win32,60,m,1,0.564125,,,,,,,,0.564125,1,,,,,,115,WORD,UN,33,tumble,GUITAR,m,,,,,,0.118518534,-0.158333343,0,0,0,,0,82,82,174,1,
,,,,,,,,,,,,,,,,,,5e36f37bbdc067675450705f,2020-08-10_18h10.18.389,lexical_decision_task_MP,2020.1.3,Win32,60,z,1,0.74949,,,,,,,,0.74949,1,,,,,,466,NW,"ID",33,hocite,HOCITE,z,,,,,,0.118518534,-0.158333343,0,0,0,,0,83,83,285,1,
,,,,,,,,,,,,,,,,,,5e36f37bbdc067675450705f,2020-08-10_18h10.18.389,lexical_decision_task_MP,2020.1.3,Win32,60,z,1,0.587005,,,,,,,,0.587005,1,,,,,,379,NW,UN,50,cavory,AUTING,z,,,,,,0.118518534,-0.158333343,0,0,0,,0,84,84,438,1,
,,,,,,,,,,,,,,,,,,5e36f37bbdc067675450705f,2020-08-10_18h10.18.389,lexical_decision_task_MP,2020.1.3,Win32,60,z,1,0.56534,,,,,,,,0.56534,1,,,,,,266,NW,"ID",50,varmit,VARMIT,z,,,,,,0.118518534,-0.158333343,0,0,0,,0,85,85,325,1,
,,,,,,,,,,,,,,,,,,5e36f37bbdc067675450705f,2020-08-10_18h10.18.389,lexical_decision_task_MP,2020.1.3,Win32,60,z,1,0.897895,,,,,,,,0.897895,1,,,,,,378,NW,UN,50,auting,SHRILE,z,,,,,,0.118518534,-0.158333343,0,0,0,,0,86,86,437,1,
,,,,,,,,,,,,,,,,,,5e36f37bbdc067675450705f,2020-08-10_18h10.18.389,lexical_decision_task_MP,2020.1.3,Win32,60,m,1,0.667725,,,,,,,,0.667725,1,,,,,,208,WORD,"ID",33,hockey,HOCKEY,m,,,,,,0.118518534,-0.158333343,0,0,0,,0,87,87,27,1,
,,,,,,,,,,,,,,,,,,5e36f37bbdc067675450705f,2020-08-10_18h10.18.389,lexical_decision_task_MP,2020.1.3,Win32,60,z,1,0.59678,,,,,,,,0.59678,1,,,,,,388,NW,UN,50,witmer,CRAGIN,z,,,,,,0.118518534,-0.158333343,0,0,0,,0,88,88,447,1,
,,,,,,,,,,,,,,,,,,5e36f37bbdc067675450705f,2020-08-10_18h10.18.389,lexical_decision_task_MP,2020.1.3,Win32,60,z,1,0.833535,,,,,,,,0.833535,1,,,,,,454,NW,"ID",33,scouge,SCOUGE,z,,,,,,0.118518534,-0.158333343,0,0,0,,0,89,89,273,1,
,,,,,,,,,,,,,,,,,,5e36f37bbdc067675450705f,2020-08-10_18h10.18.389,lexical_decision_task_MP,2020.1.3,Win32,60,m,1,0.55132,,,,,,,,0.55132,1,,,,,,1,WORD,"ID",50,fright,FRIGHT,m,,,,,,0.118518534,-0.158333343,0,0,0,,0,90,90,60,1,
,,,,,,,,,,,,,,,,,,5e36f37bbdc067675450705f,2020-08-10_18h10.18.389,lexical_decision_task_MP,2020.1.3,Win32,60,z,1,0.64579,,,,,,,,0.64579,1,,,,,,328,NW,UN,33,yarike,BROAKE,z,,,,,,0.118518534,-0.158333343,0,0,0,,0,91,91,387,1,
,,,,,,,,,,,,,,,,,,5e36f37bbdc067675450705f,2020-08-10_18h10.18.389,lexical_decision_task_MP,2020.1.3,Win32,60,z,1,0.70244,,,,,,,,0.70244,1,,,,,,365,NW,UN,50,toshel,GUAIRT,z,,,,,,0.118518534,-0.158333343,0,0,0,,0,92,92,424,1,
,,,,,,,,,,,,,,,,,,5e36f37bbdc067675450705f,2020-08-10_18h10.18.389,lexical_decision_task_MP,2020.1.3,Win32,60,m,1,0.51677,,,,,,,,0.51677,1,,,,,,231,WORD,"ID",33,export,EXPORT,m,,,,,,0.118518534,-0.158333343,0,0,0,,0,93,93,50,1,
,,,,,,,,,,,,,,,,,,5e36f37bbdc067675450705f,2020-08-10_18h10.18.389,lexical_decision_task_MP,2020.1.3,Win32,60,z,1,0.83771,,,,,,,,0.83771,1,,,,,,418,NW,UN,50,slount,SUIDLE,z,,,,,,0.118518534,-0.158333343,0,0,0,,0,94,94,477,1,
,,,,,,,,,,,,,,,,,,5e36f37bbdc067675450705f,2020-08-10_18h10.18.389,lexical_decision_task_MP,2020.1.3,Win32,60,z,1,0.559685,,,,,,,,0.559685,1,,,,,,434,NW,"ID",33,pitrom,PITROM,z,,,,,,0.118518534,-0.158333343,0,0,0,,0,95,95,253,1,
,,,,,,,,,,,,,,,,,,5e36f37bbdc067675450705f,2020-08-10_18h10.18.389,lexical_decision_task_MP,2020.1.3,Win32,60,m,1,0.56112,,,,,,,,0.56112,1,,,,,,228,WORD,"ID",33,master,MASTER,m,,,,,,0.118518534,-0.158333343,0,0,0,,0,96,96,47,1,
,,,,,,,,,,,,,,,,,,5e36f37bbdc067675450705f,2020-08-10_18h10.18.389,lexical_decision_task_MP,2020.1.3,Win32,60,z,1,0.922185,,,,,,,,0.922185,1,,,,,,445,NW,"ID",33,minkel,MINKEL,z,,,,,,0.118518534,-0.158333343,0,0,0,,0,97,97,264,1,
,,,,,,,,,,,,,,,,,,5e36f37bbdc067675450705f,2020-08-10_18h10.18.389,lexical_decision_task_MP,2020.1.3,Win32,60,z,1,0.81819,,,,,,,,0.81819,1,,,,,,426,NW,"ID",33,urivel,URIVEL,z,,,,,,0.118518534,-0.158333343,0,0,0,,0,98,98,245,1,
,,,,,,,,,,,,,,,,,,5e36f37bbdc067675450705f,2020-08-10_18h10.18.389,lexical_decision_task_MP,2020.1.3,Win32,60,z,1,1.04938,,,,,,,,1.04938,1,,,,,,293,NW,"ID",50,swance,SWANCE,z,,,,,,0.118518534,-0.158333343,0,0,0,,0,99,99,352,1,
,,,,,,,,,,,,,,,,,,5e36f37bbdc067675450705f,2020-08-10_18h10.18.389,lexical_decision_task_MP,2020.1.3,Win32,60,z,1,0.64765,,,,,,,,0.64765,1,,,,,,430,NW,"ID",33,caroey,CAROEY,z,,,,,,0.118518534,-0.158333343,0,0,0,,0,100,100,249,1,
,,,,,,,,,,,,,,,,,,5e36f37bbdc067675450705f,2020-08-10_18h10.18.389,lexical_decision_task_MP,2020.1.3,Win32,60,m,1,0.63104,,,,,,,,0.63104,1,,,,,,180,WORD,UN,50,thrive,SILENT,m,,,,,,0.118518534,-0.158333343,0,0,0,,0,101,101,239,1,
,,,,,,,,,,,,,,,,,,5e36f37bbdc067675450705f,2020-08-10_18h10.18.389,lexical_decision_task_MP,2020.1.3,Win32,60,z,1,0.770345,,,,,,,,0.770345,1,,,,,,254,NW,"ID",50,varosh,VAROSH,z,,,,,,0.118518534,-0.158333343,0,0,0,,0,102,102,313,1,
,,,,,,,,,,,,,,,,,,5e36f37bbdc067675450705f,2020-08-10_18h10.18.389,lexical_decision_task_MP,2020.1.3,Win32,60,m,1,0.548245,,,,,,,,0.548245,1,,,,,,210,WORD,"ID",33,monkey,MONKEY,m,,,,,,0.118518534,-0.158333343,0,0,0,,0,103,103,29,1,
,,,,,,,,,,,,,,,,,,5e36f37bbdc067675450705f,2020-08-10_18h10.18.389,lexical_decision_task_MP,2020.1.3,Win32,60,z,1,0.548355,,,,,,,,0.548355,1,,,,,,361,NW,UN,50,tireau,PAUCHE,z,,,,,,0.118518534,-0.158333343,0,0,0,,0,104,104,420,1,
,,,,,,,,,,,,,,,,,,5e36f37bbdc067675450705f,2020-08-10_18h10.18.389,lexical_decision_task_MP,2020.1.3,Win32,60,z,1,0.65407,,,,,,,,0.65407,1,,,,,,260,NW,"ID",50,unject,UNJECT,z,,,,,,0.118518534,-0.158333343,0,0,0,,0,105,105,319,1,
,,,,,,,,,,,,,,,,,,5e36f37bbdc067675450705f,2020-08-10_18h10.18.389,lexical_decision_task_MP,2020.1.3,Win32,60,m,1,0.681115,,,,,,,,0.681115,1,,,,,,83,WORD,UN,33,mortal,RESULT,m,,,,,,0.118518534,-0.158333343,0,0,0,,0,106,106,142,1,
,,,,,,,,,,,,,,,,,,5e36f37bbdc067675450705f,2020-08-10_18h10.18.389,lexical_decision_task_MP,2020.1.3,Win32,60,m,1,0.48092,,,,,,,,0.48092,1,,,,,,30,WORD,"ID",50,orient,ORIENT,m,,,,,,0.118518534,-0.158333343,0,0,0,,0,107,107,89,1,
,,,,,,,,,,,,,,,,,,5e36f37bbdc067675450705f,2020-08-10_18h10.18.389,lexical_decision_task_MP,2020.1.3,Win32,60,m,1,0.43052,,,,,,,,0.43052,1,,,,,,29,WORD,"ID",50,sketch,SKETCH,m,,,,,,0.118518534,-0.158333343,0,0,0,,0,108,108,88,1,
,,,,,,,,,,,,,,,,,,5e36f37bbdc067675450705f,2020-08-10_18h10.18.389,lexical_decision_task_MP,2020.1.3,Win32,60,z,1,0.67797,,,,,,,,0.67797,1,,,,,,441,NW,"ID",33,rastoe,RASTOE,z,,,,,,0.118518534,-0.158333343,0,0,0,,0,109,109,260,1,
,,,,,,,,,,,,,,,,,,5e36f37bbdc067675450705f,2020-08-10_18h10.18.389,lexical_decision_task_MP,2020.1.3,Win32,60,m,1,0.5035,,,,,,,,0.5035,1,,,,,,192,WORD,"ID",33,plague,PLAGUE,m,,,,,,0.118518534,-0.158333343,0,0,0,,0,110,110,11,1,
,,,,,,,,,,,,,,,,,,5e36f37bbdc067675450705f,2020-08-10_18h10.18.389,lexical_decision_task_MP,2020.1.3,Win32,60,z,1,0.675875,,,,,,,,0.675875,1,,,,,,376,NW,UN,50,veigma,IGUARE,z,,,,,,0.118518534,-0.158333343,0,0,0,,0,111,111,435,1,
,,,,,,,,,,,,,,,,,,5e36f37bbdc067675450705f,2020-08-10_18h10.18.389,lexical_decision_task_MP,2020.1.3,Win32,60,z,1,0.548445,,,,,,,,0.548445,1,,,,,,256,NW,"ID",50,inlors,INLORS,z,,,,,,0.118518534,-0.158333343,0,0,0,,0,112,112,315,1,
,,,,,,,,,,,,,,,,,,5e36f37bbdc067675450705f,2020-08-10_18h10.18.389,lexical_decision_task_MP,2020.1.3,Win32,60,z,1,0.65095,,,,,,,,0.65095,1,,,,,,424,NW,"ID",33,praile,PRAILE,z,,,,,,0.118518534,-0.158333343,0,0,0,,0,113,113,243,1,
,,,,,,,,,,,,,,,,,,5e36f37bbdc067675450705f,2020-08-10_18h10.18.389,lexical_decision_task_MP,2020.1.3,Win32,60,m,1,0.74644,,,,,,,,0.74644,1,,,,,,156,WORD,UN,50,depart,CRADLE,m,,,,,,0.118518534,-0.158333343,0,0,0,,0,114,114,215,1,
,,,,,,,,,,,,,,,,,,5e36f37bbdc067675450705f,2020-08-10_18h10.18.389,lexical_decision_task_MP,2020.1.3,Win32,60,z,1,0.74957,,,,,,,,0.74957,1,,,,,,344,NW,UN,33,absend,SCRILY,z,,,,,,0.118518534,-0.158333343,0,0,0,,0,115,115,403,1,
,,,,,,,,,,,,,,,,,,5e36f37bbdc067675450705f,2020-08-10_18h10.18.389,lexical_decision_task_MP,2020.1.3,Win32,60,m,1,0.899905,,,,,,,,0.899905,1,,,,,,81,WORD,UN,33,stigma,FRIEND,m,,,,,,0.118518534,-0.158333343,0,0,0,,0,116,116,140,1,
,,,,,,,,,,,,,,,,,,5e36f37bbdc067675450705f,2020-08-10_18h10.18.389,lexical_decision_task_MP,2020.1.3,Win32,60,z,1,0.765105,,,,,,,,0.765105,1,,,,,,310,NW,UN,33,sproly,DANIET,z,,,,,,0.118518534,-0.158333343,0,0,0,,0,117,117,369,1,
,,,,,,,,,,,,,,,,,,5e36f37bbdc067675450705f,2020-08-10_18h10.18.389,lexical_decision_task_MP,2020.1.3,Win32,60,z,1,1.006325,,,,,,,,1.006325,1,,,,,,280,NW,"ID",50,curbol,CURBOL,z,,,,,,0.118518534,-0.158333343,0,0,0,,0,118,118,339,1,
,,,,,,,,,,,,,,,,,,5e36f37bbdc067675450705f,2020-08-10_18h10.18.389,lexical_decision_task_MP,2020.1.3,Win32,60,m,1,0.68284,,,,,,,,0.68284,1,,,,,,119,WORD,UN,33,strain,SPIDER,m,,,,,,0.118518534,-0.158333343,0,0,0,,0,119,119,178,1,
,,,,,,,,,,,,,,,,,,5e36f37bbdc067675450705f,2020-08-10_18h10.18.389,lexical_decision_task_MP,2020.1.3,Win32,60,m,1,0.84594,,,,,,,,0.84594,1,,,,,,191,WORD,"ID",33,stable,STABLE,m,,,,,,0.118518534,-0.158333343,0,0,0,space,0,120,120,10,1,7.031915
,,,,,,,,,,,,,,,,,,5e36f37bbdc067675450705f,2020-08-10_18h10.18.389,lexical_decision_task_MP,2020.1.3,Win32,60,m,1,0.53043,,,,,,,,0.53043,1,,,,,,72,WORD,UN,33,source,BRIGHT,m,,,,,,0.118518534,-0.158333343,0,0,0,,0,121,121,131,1,
,,,,,,,,,,,,,,,,,,5e36f37bbdc067675450705f,2020-08-10_18h10.18.389,lexical_decision_task_MP,2020.1.3,Win32,60,z,1,0.67678,,,,,,,,0.67678,1,,,,,,402,NW,UN,50,bruats,SYNTIC,z,,,,,,0.118518534,-0.158333343,0,0,0,,0,122,122,461,1,
,,,,,,,,,,,,,,,,,,5e36f37bbdc067675450705f,2020-08-10_18h10.18.389,lexical_decision_task_MP,2020.1.3,Win32,60,z,1,0.663555,,,,,,,,0.663555,1,,,,,,299,NW,"ID",50,sturch,STURCH,z,,,,,,0.118518534,-0.158333343,0,0,0,,0,123,123,358,1,
,,,,,,,,,,,,,,,,,,5e36f37bbdc067675450705f,2020-08-10_18h10.18.389,lexical_decision_task_MP,2020.1.3,Win32,60,z,1,0.58229,,,,,,,,0.58229,1,,,,,,429,NW,"ID",33,funtle,FUNTLE,z,,,,,,0.118518534,-0.158333343,0,0,0,,0,124,124,248,1,
,,,,,,,,,,,,,,,,,,5e36f37bbdc067675450705f,2020-08-10_18h10.18.389,lexical_decision_task_MP,2020.1.3,Win32,60,m,0,0.49658,,,,,,,,0.49658,0,,,,,,397,NW,UN,50,blunde,CAMBLE,z,,,,,,0.118518534,-0.158333343,0,0,0,,0,125,125,456,1,
,,,,,,,,,,,,,,,,,,5e36f37bbdc067675450705f,2020-08-10_18h10.18.389,lexical_decision_task_MP,2020.1.3,Win32,60,m,0,0.748435,,,,,,,,0.748435,0,,,,,,444,NW,"ID",33,jaunce,JAUNCE,z,,,,,,0.118518534,-0.158333343,0,0,0,,0,126,126,263,1,
,,,,,,,,,,,,,,,,,,5e36f37bbdc067675450705f,2020-08-10_18h10.18.389,lexical_decision_task_MP,2020.1.3,Win32,60,m,0,0.58558,,,,,,,,0.58558,0,,,,,,398,NW,UN,50,fouret,BLUNDE,z,,,,,,0.118518534,-0.158333343,0,0,0,,0,127,127,457,1,
,,,,,,,,,,,,,,,,,,5e36f37bbdc067675450705f,2020-08-10_18h10.18.389,lexical_decision_task_MP,2020.1.3,Win32,60,z,1,0.765635,,,,,,,,0.765635,1,,,,,,273,NW,"ID",50,sortel,SORTEL,z,,,,,,0.118518534,-0.158333343,0,0,0,,0,128,128,332,1,
,,,,,,,,,,,,,,,,,,5e36f37bbdc067675450705f,2020-08-10_18h10.18.389,lexical_decision_task_MP,2020.1.3,Win32,60,m,1,0.596405,,,,,,,,0.596405,1,,,,,,18,WORD,"ID",50,humble,HUMBLE,m,,,,,,0.118518534,-0.158333343,0,0,0,,0,129,129,77,1,
,,,,,,,,,,,,,,,,,,5e36f37bbdc067675450705f,2020-08-10_18h10.18.389,lexical_decision_task_MP,2020.1.3,Win32,60,z,1,0.798275,,,,,,,,0.798275,1,,,,,,442,NW,"ID",33,aboune,ABOUNE,z,,,,,,0.118518534,-0.158333343,0,0,0,,0,130,130,261,1,
,,,,,,,,,,,,,,,,,,5e36f37bbdc067675450705f,2020-08-10_18h10.18.389,lexical_decision_task_MP,2020.1.3,Win32,60,z,1,0.71996,,,,,,,,0.71996,1,,,,,,244,NW,"ID",50,eatric,EATRIC,z,,,,,,0.118518534,-0.158333343,0,0,0,,0,131,131,303,1,
,,,,,,,,,,,,,,,,,,5e36f37bbdc067675450705f,2020-08-10_18h10.18.389,lexical_decision_task_MP,2020.1.3,Win32,60,z,1,0.49896,,,,,,,,0.49896,1,,,,,,417,NW,UN,50,suidle,EAROUD,z,,,,,,0.118518534,-0.158333343,0,0,0,,0,132,132,476,1,
,,,,,,,,,,,,,,,,,,5e36f37bbdc067675450705f,2020-08-10_18h10.18.389,lexical_decision_task_MP,2020.1.3,Win32,60,z,1,0.584155,,,,,,,,0.584155,1,,,,,,462,NW,"ID",33,absult,ABSULT,z,,,,,,0.118518534,-0.158333343,0,0,0,,0,133,133,281,1,
,,,,,,,,,,,,,,,,,,5e36f37bbdc067675450705f,2020-08-10_18h10.18.389,lexical_decision_task_MP,2020.1.3,Win32,60,m,1,0.62068,,,,,,,,0.62068,1,,,,,,179,WORD,UN,50,silent,BASKET,m,,,,,,0.118518534,-0.158333343,0,0,0,,0,134,134,238,1,
,,,,,,,,,,,,,,,,,,5e36f37bbdc067675450705f,2020-08-10_18h10.18.389,lexical_decision_task_MP,2020.1.3,Win32,60,m,1,0.541025,,,,,,,,0.541025,1,,,,,,110,WORD,UN,33,induce,POLITE,m,,,,,,0.118518534,-0.158333343,0,0,0,,0,135,135,169,1,
,,,,,,,,,,,,,,,,,,5e36f37bbdc067675450705f,2020-08-10_18h10.18.389,lexical_decision_task_MP,2020.1.3,Win32,60,m,1,0.516055,,,,,,,,0.516055,1,,,,,,233,WORD,"ID",33,nature,NATURE,m,,,,,,0.118518534,-0.158333343,0,0,0,,0,136,136,52,1,
,,,,,,,,,,,,,,,,,,5e36f37bbdc067675450705f,2020-08-10_18h10.18.389,lexical_decision_task_MP,2020.1.3,Win32,60,z,1,0.486845,,,,,,,,0.486845,1,,,,,,278,NW,"ID",50,unighs,UNIGHS,z,,,,,,0.118518534,-0.158333343,0,0,0,,0,137,137,337,1,
,,,,,,,,,,,,,,,,,,5e36f37bbdc067675450705f,2020-08-10_18h10.18.389,lexical_decision_task_MP,2020.1.3,Win32,60,m,1,0.56564,,,,,,,,0.56564,1,,,,,,138,WORD,UN,50,debris,MELODY,m,,,,,,0.118518534,-0.158333343,0,0,0,,0,138,138,197,1,
,,,,,,,,,,,,,,,,,,5e36f37bbdc067675450705f,2020-08-10_18h10.18.389,lexical_decision_task_MP,2020.1.3,Win32,60,m,1,0.414625,,,,,,,,0.414625,1,,,,,,35,WORD,"ID",50,socket,SOCKET,m,,,,,,0.118518534,-0.158333343,0,0,0,,0,139,139,94,1,
,,,,,,,,,,,,,,,,,,5e36f37bbdc067675450705f,2020-08-10_18h10.18.389,lexical_decision_task_MP,2020.1.3,Win32,60,m,1,0.437235,,,,,,,,0.437235,1,,,,,,88,WORD,UN,33,permit,HUNGER,m,,,,,,0.118518534,-0.158333343,0,0,0,,0,140,140,147,1,
,,,,,,,,,,,,,,,,,,5e36f37bbdc067675450705f,2020-08-10_18h10.18.389,lexical_decision_task_MP,2020.1.3,Win32,60,m,1,0.4688,,,,,,,,0.4688,1,,,,,,201,WORD,"ID",33,admire,ADMIRE,m,,,,,,0.118518534,-0.158333343,0,0,0,,0,141,141,20,1,
,,,,,,,,,,,,,,,,,,5e36f37bbdc067675450705f,2020-08-10_18h10.18.389,lexical_decision_task_MP,2020.1.3,Win32,60,m,1,0.418635,,,,,,,,0.418635,1,,,,,,53,WORD,"ID",50,police,POLICE,m,,,,,,0.118518534,-0.158333343,0,0,0,,0,142,142,112,1,
,,,,,,,,,,,,,,,,,,5e36f37bbdc067675450705f,2020-08-10_18h10.18.389,lexical_decision_task_MP,2020.1.3,Win32,60,m,1,0.468105,,,,,,,,0.468105,1,,,,,,140,WORD,UN,50,chrome,PRINCE,m,,,,,,0.118518534,-0.158333343,0,0,0,,0,143,143,199,1,
,,,,,,,,,,,,,,,,,,5e36f37bbdc067675450705f,2020-08-10_18h10.18.389,lexical_decision_task_MP,2020.1.3,Win32,60,z,1,0.515295,,,,,,,,0.515295,1,,,,,,440,NW,"ID",33,saride,SARIDE,z,,,,,,0.118518534,-0.158333343,0,0,0,,0,144,144,259,1,
,,,,,,,,,,,,,,,,,,5e36f37bbdc067675450705f,2020-08-10_18h10.18.389,lexical_decision_task_MP,2020.1.3,Win32,60,z,0,0.414375,,,,,,,,0.414375,0,,,,,,108,WORD,UN,33,wonder,RECKON,m,,,,,,0.118518534,-0.158333343,0,0,0,,0,145,145,167,1,
,,,,,,,,,,,,,,,,,,5e36f37bbdc067675450705f,2020-08-10_18h10.18.389,lexical_decision_task_MP,2020.1.3,Win32,60,m,1,0.968145,,,,,,,,0.968145,1,,,,,,230,WORD,"ID",33,fringe,FRINGE,m,,,,,,0.118518534,-0.158333343,0,0,0,,0,146,146,49,1,
,,,,,,,,,,,,,,,,,,5e36f37bbdc067675450705f,2020-08-10_18h10.18.389,lexical_decision_task_MP,2020.1.3,Win32,60,z,1,0.633175,,,,,,,,0.633175,1,,,,,,447,NW,"ID",33,gircue,GIRCUE,z,,,,,,0.118518534,-0.158333343,0,0,0,,0,147,147,266,1,
,,,,,,,,,,,,,,,,,,5e36f37bbdc067675450705f,2020-08-10_18h10.18.389,lexical_decision_task_MP,2020.1.3,Win32,60,m,1,0.55723,,,,,,,,0.55723,1,,,,,,152,WORD,UN,50,behold,ROCKET,m,,,,,,0.118518534,-0.158333343,0,0,0,,0,148,148,211,1,
,,,,,,,,,,,,,,,,,,5e36f37bbdc067675450705f,2020-08-10_18h10.18.389,lexical_decision_task_MP,2020.1.3,Win32,60,z,1,0.63358,,,,,,,,0.63358,1,,,,,,422,NW,"ID",33,alcoud,ALCOUD,z,,,,,,0.118518534,-0.158333343,0,0,0,,0,149,149,241,1,
,,,,,,,,,,,,,,,,,,5e36f37bbdc067675450705f,2020-08-10_18h10.18.389,lexical_decision_task_MP,2020.1.3,Win32,60,m,1,0.61658,,,,,,,,0.61658,1,,,,,,100,WORD,UN,33,wrench,CARBON,m,,,,,,0.118518534,-0.158333343,0,0,0,,0,150,150,159,1,
,,,,,,,,,,,,,,,,,,5e36f37bbdc067675450705f,2020-08-10_18h10.18.389,lexical_decision_task_MP,2020.1.3,Win32,60,z,1,0.51471,,,,,,,,0.51471,1,,,,,,336,NW,UN,33,rejols,GHODUS,z,,,,,,0.118518534,-0.158333343,0,0,0,,0,151,151,395,1,
,,,,,,,,,,,,,,,,,,5e36f37bbdc067675450705f,2020-08-10_18h10.18.389,lexical_decision_task_MP,2020.1.3,Win32,60,m,1,0.53552,,,,,,,,0.53552,1,,,,,,226,WORD,"ID",33,casino,CASINO,m,,,,,,0.118518534,-0.158333343,0,0,0,,0,152,152,45,1,
,,,,,,,,,,,,,,,,,,5e36f37bbdc067675450705f,2020-08-10_18h10.18.389,lexical_decision_task_MP,2020.1.3,Win32,60,m,1,0.68029,,,,,,,,0.68029,1,,,,,,77,WORD,UN,33,column,RACKET,m,,,,,,0.118518534,-0.158333343,0,0,0,,0,153,153,136,1,
,,,,,,,,,,,,,,,,,,5e36f37bbdc067675450705f,2020-08-10_18h10.18.389,lexical_decision_task_MP,2020.1.3,Win32,60,z,1,0.57011,,,,,,,,0.57011,1,,,,,,351,NW,UN,33,tringe,TIESCH,z,,,,,,0.118518534,-0.158333343,0,0,0,,0,154,154,410,1,
,,,,,,,,,,,,,,,,,,5e36f37bbdc067675450705f,2020-08-10_18h10.18.389,lexical_decision_task_MP,2020.1.3,Win32,60,m,1,0.727705,,,,,,,,0.727705,1,,,,,,86,WORD,UN,33,filter,RODENT,m,,,,,,0.118518534,-0.158333343,0,0,0,,0,155,155,145,1,
,,,,,,,,,,,,,,,,,,5e36f37bbdc067675450705f,2020-08-10_18h10.18.389,lexical_decision_task_MP,2020.1.3,Win32,60,z,1,0.56556,,,,,,,,0.56556,1,,,,,,392,NW,UN,50,ganous,ROUNCY,z,,,,,,0.118518534,-0.158333343,0,0,0,,0,156,156,451,1,
,,,,,,,,,,,,,,,,,,5e36f37bbdc067675450705f,2020-08-10_18h10.18.389,lexical_decision_task_MP,2020.1.3,Win32,60,m,1,0.679775,,,,,,,,0.679775,1,,,,,,106,WORD,UN,33,slogan,RANSOM,m,,,,,,0.118518534,-0.158333343,0,0,0,,0,157,157,165,1,
,,,,,,,,,,,,,,,,,,5e36f37bbdc067675450705f,2020-08-10_18h10.18.389,lexical_decision_task_MP,2020.1.3,Win32,60,m,1,0.59858,,,,,,,,0.59858,1,,,,,,203,WORD,"ID",33,phrase,PHRASE,m,,,,,,0.118518534,-0.158333343,0,0,0,,0,158,158,22,1,
,,,,,,,,,,,,,,,,,,5e36f37bbdc067675450705f,2020-08-10_18h10.18.389,lexical_decision_task_MP,2020.1.3,Win32,60,m,1,0.434585,,,,,,,,0.434585,1,,,,,,219,WORD,"ID",33,bucket,BUCKET,m,,,,,,0.118518534,-0.158333343,0,0,0,,0,159,159,38,1,
,,,,,,,,,,,,,,,,,,5e36f37bbdc067675450705f,2020-08-10_18h10.18.389,lexical_decision_task_MP,2020.1.3,Win32,60,z,1,0.450765,,,,,,,,0.450765,1,,,,,,413,NW,UN,50,serbol,EQUATS,z,,,,,,0.118518534,-0.158333343,0,0,0,,0,160,160,472,1,
,,,,,,,,,,,,,,,,,,5e36f37bbdc067675450705f,2020-08-10_18h10.18.389,lexical_decision_task_MP,2020.1.3,Win32,60,z,1,0.5375,,,,,,,,0.5375,1,,,,,,241,NW,"ID",50,smenco,SMENCO,z,,,,,,0.118518534,-0.158333343,0,0,0,,0,161,161,300,1,
,,,,,,,,,,,,,,,,,,5e36f37bbdc067675450705f,2020-08-10_18h10.18.389,lexical_decision_task_MP,2020.1.3,Win32,60,z,1,0.725815,,,,,,,,0.725815,1,,,,,,249,NW,"ID",50,batrol,BATROL,z,,,,,,0.118518534,-0.158333343,0,0,0,,0,162,162,308,1,
,,,,,,,,,,,,,,,,,,5e36f37bbdc067675450705f,2020-08-10_18h10.18.389,lexical_decision_task_MP,2020.1.3,Win32,60,z,1,0.645795,,,,,,,,0.645795,1,,,,,,267,NW,"ID",50,pasink,PASINK,z,,,,,,0.118518534,-0.158333343,0,0,0,,0,163,163,326,1,
,,,,,,,,,,,,,,,,,,5e36f37bbdc067675450705f,2020-08-10_18h10.18.389,lexical_decision_task_MP,2020.1.3,Win32,60,m,1,0.521935,,,,,,,,0.521935,1,,,,,,79,WORD,UN,33,family,THEORY,m,,,,,,0.118518534,-0.158333343,0,0,0,,0,164,164,138,1,
,,,,,,,,,,,,,,,,,,5e36f37bbdc067675450705f,2020-08-10_18h10.18.389,lexical_decision_task_MP,2020.1.3,Win32,60,m,1,0.35263,,,,,,,,0.35263,1,,,,,,166,WORD,UN,50,design,STARCH,m,,,,,,0.118518534,-0.158333343,0,0,0,,0,165,165,225,1,
,,,,,,,,,,,,,,,,,,5e36f37bbdc067675450705f,2020-08-10_18h10.18.389,lexical_decision_task_MP,2020.1.3,Win32,60,m,1,0.66619,,,,,,,,0.66619,1,,,,,,216,WORD,"ID",33,behalf,BEHALF,m,,,,,,0.118518534,-0.158333343,0,0,0,,0,166,166,35,1,
,,,,,,,,,,,,,,,,,,5e36f37bbdc067675450705f,2020-08-10_18h10.18.389,lexical_decision_task_MP,2020.1.3,Win32,60,m,1,0.402945,,,,,,,,0.402945,1,,,,,,31,WORD,"ID",50,weapon,WEAPON,m,,,,,,0.118518534,-0.158333343,0,0,0,,0,167,167,90,1,
,,,,,,,,,,,,,,,,,,5e36f37bbdc067675450705f,2020-08-10_18h10.18.389,lexical_decision_task_MP,2020.1.3,Win32,60,z,1,0.57158,,,,,,,,0.57158,1,,,,,,357,NW,UN,33,fleack,DERAIN,z,,,,,,0.118518534,-0.158333343,0,0,0,,0,168,168,416,1,
,,,,,,,,,,,,,,,,,,5e36f37bbdc067675450705f,2020-08-10_18h10.18.389,lexical_decision_task_MP,2020.1.3,Win32,60,m,1,0.515115,,,,,,,,0.515115,1,,,,,,13,WORD,"ID",50,strive,STRIVE,m,,,,,,0.118518534,-0.158333343,0,0,0,,0,169,169,72,1,
,,,,,,,,,,,,,,,,,,5e36f37bbdc067675450705f,2020-08-10_18h10.18.389,lexical_decision_task_MP,2020.1.3,Win32,60,m,1,0.848345,,,,,,,,0.848345,1,,,,,,176,WORD,UN,50,advent,STRIFE,m,,,,,,0.118518534,-0.158333343,0,0,0,,0,170,170,235,1,
,,,,,,,,,,,,,,,,,,5e36f37bbdc067675450705f,2020-08-10_18h10.18.389,lexical_decision_task_MP,2020.1.3,Win32,60,m,1,0.47945,,,,,,,,0.47945,1,,,,,,214,WORD,"ID",33,intake,INTAKE,m,,,,,,0.118518534,-0.158333343,0,0,0,,0,171,171,33,1,
,,,,,,,,,,,,,,,,,,5e36f37bbdc067675450705f,2020-08-10_18h10.18.389,lexical_decision_task_MP,2020.1.3,Win32,60,m,1,0.514855,,,,,,,,0.514855,1,,,,,,65,WORD,UN,33,gospel,SYMBOL,m,,,,,,0.118518534,-0.158333343,0,0,0,,0,172,172,124,1,
,,,,,,,,,,,,,,,,,,5e36f37bbdc067675450705f,2020-08-10_18h10.18.389,lexical_decision_task_MP,2020.1.3,Win32,60,z,1,0.680525,,,,,,,,0.680525,1,,,,,,412,NW,UN,50,equats,JILUER,z,,,,,,0.118518534,-0.158333343,0,0,0,,0,173,173,471,1,
,,,,,,,,,,,,,,,,,,5e36f37bbdc067675450705f,2020-08-10_18h10.18.389,lexical_decision_task_MP,2020.1.3,Win32,60,z,1,0.465305,,,,,,,,0.465305,1,,,,,,286,NW,"ID",50,reldon,RELDON,z,,,,,,0.118518534,-0.158333343,0,0,0,,0,174,174,345,1,
,,,,,,,,,,,,,,,,,,5e36f37bbdc067675450705f,2020-08-10_18h10.18.389,lexical_decision_task_MP,2020.1.3,Win32,60,m,1,0.56598,,,,,,,,0.56598,1,,,,,,76,WORD,UN,33,racket,EXOTIC,m,,,,,,0.118518534,-0.158333343,0,0,0,,0,175,175,135,1,
,,,,,,,,,,,,,,,,,,5e36f37bbdc067675450705f,2020-08-10_18h10.18.389,lexical_decision_task_MP,2020.1.3,Win32,60,z,1,0.566025,,,,,,,,0.566025,1,,,,,,334,NW,UN,33,desion,WATMEG,z,,,,,,0.118518534,-0.158333343,0,0,0,,0,176,176,393,1,
,,,,,,,,,,,,,,,,,,5e36f37bbdc067675450705f,2020-08-10_18h10.18.389,lexical_decision_task_MP,2020.1.3,Win32,60,m,1,0.435605,,,,,,,,0.435605,1,,,,,,41,WORD,"ID",50,spring,SPRING,m,,,,,,0.118518534,-0.158333343,0,0,0,,0,177,177,100,1,
,,,,,,,,,,,,,,,,,,5e36f37bbdc067675450705f,2020-08-10_18h10.18.389,lexical_decision_task_MP,2020.1.3,Win32,60,m,1,0.61528,,,,,,,,0.61528,1,,,,,,14,WORD,"ID",50,almost,ALMOST,m,,,,,,0.118518534,-0.158333343,0,0,0,,0,178,178,73,1,
,,,,,,,,,,,,,,,,,,5e36f37bbdc067675450705f,2020-08-10_18h10.18.389,lexical_decision_task_MP,2020.1.3,Win32,60,m,1,0.49864,,,,,,,,0.49864,1,,,,,,198,WORD,"ID",33,wicked,WICKED,m,,,,,,0.118518534,-0.158333343,0,0,0,,0,179,179,17,1,
,,,,,,,,,,,,,,,,,,5e36f37bbdc067675450705f,2020-08-10_18h10.18.389,lexical_decision_task_MP,2020.1.3,Win32,60,z,1,0.517075,,,,,,,,0.517075,1,,,,,,385,NW,UN,50,ancust,VEIGMA,z,,,,,,0.118518534,-0.158333343,0,0,0,,0,180,180,444,1,
,,,,,,,,,,,,,,,,,,5e36f37bbdc067675450705f,2020-08-10_18h10.18.389,lexical_decision_task_MP,2020.1.3,Win32,60,z,1,0.56529,,,,,,,,0.56529,1,,,,,,387,NW,UN,50,cragin,GRONCE,z,,,,,,0.118518534,-0.158333343,0,0,0,,0,181,181,446,1,
,,,,,,,,,,,,,,,,,,5e36f37bbdc067675450705f,2020-08-10_18h10.18.389,lexical_decision_task_MP,2020.1.3,Win32,60,m,1,0.49491,,,,,,,,0.49491,1,,,,,,162,WORD,UN,50,string,CANDLE,m,,,,,,0.118518534,-0.158333343,0,0,0,,0,182,182,221,1,
,,,,,,,,,,,,,,,,,,5e36f37bbdc067675450705f,2020-08-10_18h10.18.389,lexical_decision_task_MP,2020.1.3,Win32,60,z,1,0.76493,,,,,,,,0.76493,1,,,,,,420,NW,UN,50,pauche,GUSHOP,z,,,,,,0.118518534,-0.158333343,0,0,0,,0,183,183,479,1,
,,,,,,,,,,,,,,,,,,5e36f37bbdc067675450705f,2020-08-10_18h10.18.389,lexical_decision_task_MP,2020.1.3,Win32,60,z,1,0.527235,,,,,,,,0.527235,1,,,,,,384,NW,UN,50,injore,GUESCO,z,,,,,,0.118518534,-0.158333343,0,0,0,,0,184,184,443,1,
,,,,,,,,,,,,,,,,,,5e36f37bbdc067675450705f,2020-08-10_18h10.18.389,lexical_decision_task_MP,2020.1.3,Win32,60,m,1,0.61476,,,,,,,,0.61476,1,,,,,,212,WORD,"ID",33,verify,VERIFY,m,,,,,,0.118518534,-0.158333343,0,0,0,,0,185,185,31,1,
,,,,,,,,,,,,,,,,,,5e36f37bbdc067675450705f,2020-08-10_18h10.18.389,lexical_decision_task_MP,2020.1.3,Win32,60,m,1,0.618055,,,,,,,,0.618055,1,,,,,,111,WORD,UN,33,breath,INDUCE,m,,,,,,0.118518534,-0.158333343,0,0,0,,0,186,186,170,1,
,,,,,,,,,,,,,,,,,,5e36f37bbdc067675450705f,2020-08-10_18h10.18.389,lexical_decision_task_MP,2020.1.3,Win32,60,m,1,0.45713,,,,,,,,0.45713,1,,,,,,196,WORD,"ID",33,credit,CREDIT,m,,,,,,0.118518534,-0.158333343,0,0,0,,0,187,187,15,1,
,,,,,,,,,,,,,,,,,,5e36f37bbdc067675450705f,2020-08-10_18h10.18.389,lexical_decision_task_MP,2020.1.3,Win32,60,z,1,0.68656,,,,,,,,0.68656,1,,,,,,301,NW,UN,33,miluer,FAINCH,z,,,,,,0.118518534,-0.158333343,0,0,0,,0,188,188,360,1,
,,,,,,,,,,,,,,,,,,5e36f37bbdc067675450705f,2020-08-10_18h10.18.389,lexical_decision_task_MP,2020.1.3,Win32,60,m,1,0.415815,,,,,,,,0.415815,1,,,,,,3,WORD,"ID",50,knight,KNIGHT,m,,,,,,0.118518534,-0.158333343,0,0,0,,0,189,189,62,1,
,,,,,,,,,,,,,,,,,,5e36f37bbdc067675450705f,2020-08-10_18h10.18.389,lexical_decision_task_MP,2020.1.3,Win32,60,m,0,0.64912,,,,,,,,0.64912,0,,,,,,348,NW,UN,33,asylen,DUMPLE,z,,,,,,0.118518534,-0.158333343,0,0,0,,0,190,190,407,1,
,,,,,,,,,,,,,,,,,,5e36f37bbdc067675450705f,2020-08-10_18h10.18.389,lexical_decision_task_MP,2020.1.3,Win32,60,z,1,0.88044,,,,,,,,0.88044,1,,,,,,475,NW,"ID",33,pebric,PEBRIC,z,,,,,,0.118518534,-0.158333343,0,0,0,,0,191,191,294,1,
,,,,,,,,,,,,,,,,,,5e36f37bbdc067675450705f,2020-08-10_18h10.18.389,lexical_decision_task_MP,2020.1.3,Win32,60,z,1,0.533585,,,,,,,,0.533585,1,,,,,,331,NW,UN,33,vangue,GILFEW,z,,,,,,0.118518534,-0.158333343,0,0,0,,0,192,192,390,1,
,,,,,,,,,,,,,,,,,,5e36f37bbdc067675450705f,2020-08-10_18h10.18.389,lexical_decision_task_MP,2020.1.3,Win32,60,m,1,0.76912,,,,,,,,0.76912,1,,,,,,99,WORD,UN,33,carbon,FLUENT,m,,,,,,0.118518534,-0.158333343,0,0,0,,0,193,193,158,1,
,,,,,,,,,,,,,,,,,,5e36f37bbdc067675450705f,2020-08-10_18h10.18.389,lexical_decision_task_MP,2020.1.3,Win32,60,z,1,0.74764,,,,,,,,0.74764,1,,,,,,463,NW,"ID",33,kispel,KISPEL,z,,,,,,0.118518534,-0.158333343,0,0,0,,0,194,194,282,1,
,,,,,,,,,,,,,,,,,,5e36f37bbdc067675450705f,2020-08-10_18h10.18.389,lexical_decision_task_MP,2020.1.3,Win32,60,m,1,0.648765,,,,,,,,0.648765,1,,,,,,87,WORD,UN,33,sprawl,FILTER,m,,,,,,0.118518534,-0.158333343,0,0,0,,0,195,195,146,1,
,,,,,,,,,,,,,,,,,,5e36f37bbdc067675450705f,2020-08-10_18h10.18.389,lexical_decision_task_MP,2020.1.3,Win32,60,m,1,0.45576,,,,,,,,0.45576,1,,,,,,47,WORD,"ID",50,income,INCOME,m,,,,,,0.118518534,-0.158333343,0,0,0,,0,196,196,106,1,
,,,,,,,,,,,,,,,,,,5e36f37bbdc067675450705f,2020-08-10_18h10.18.389,lexical_decision_task_MP,2020.1.3,Win32,60,z,1,0.581055,,,,,,,,0.581055,1,,,,,,335,NW,UN,33,ghodus,DESION,z,,,,,,0.118518534,-0.158333343,0,0,0,,0,197,197,394,1,
,,,,,,,,,,,,,,,,,,5e36f37bbdc067675450705f,2020-08-10_18h10.18.389,lexical_decision_task_MP,2020.1.3,Win32,60,z,1,0.734045,,,,,,,,0.734045,1,,,,,,435,NW,"ID",33,impurb,IMPURB,z,,,,,,0.118518534,-0.158333343,0,0,0,,0,198,198,254,1,
,,,,,,,,,,,,,,,,,,5e36f37bbdc067675450705f,2020-08-10_18h10.18.389,lexical_decision_task_MP,2020.1.3,Win32,60,z,1,0.664185,,,,,,,,0.664185,1,,,,,,284,NW,"ID",50,shaple,SHAPLE,z,,,,,,0.118518534,-0.158333343,0,0,0,,0,199,199,343,1,
,,,,,,,,,,,,,,,,,,5e36f37bbdc067675450705f,2020-08-10_18h10.18.389,lexical_decision_task_MP,2020.1.3,Win32,60,z,1,0.62964,,,,,,,,0.62964,1,,,,,,381,NW,UN,50,sarley,HUNIEK,z,,,,,,0.118518534,-0.158333343,0,0,0,,0,200,200,440,1,
,,,,,,,,,,,,,,,,,,5e36f37bbdc067675450705f,2020-08-10_18h10.18.389,lexical_decision_task_MP,2020.1.3,Win32,60,z,1,0.5383,,,,,,,,0.5383,1,,,,,,391,NW,UN,50,rouncy,THELDY,z,,,,,,0.118518534,-0.158333343,0,0,0,,0,201,201,450,1,
,,,,,,,,,,,,,,,,,,5e36f37bbdc067675450705f,2020-08-10_18h10.18.389,lexical_decision_task_MP,2020.1.3,Win32,60,z,0,0.59598,,,,,,,,0.59598,0,,,,,,131,WORD,UN,50,strong,QUENCH,m,,,,,,0.118518534,-0.158333343,0,0,0,,0,202,202,190,1,
,,,,,,,,,,,,,,,,,,5e36f37bbdc067675450705f,2020-08-10_18h10.18.389,lexical_decision_task_MP,2020.1.3,Win32,60,z,1,0.5813,,,,,,,,0.5813,1,,,,,,457,NW,"ID",33,wanigh,WANIGH,z,,,,,,0.118518534,-0.158333343,0,0,0,,0,203,203,276,1,
,,,,,,,,,,,,,,,,,,5e36f37bbdc067675450705f,2020-08-10_18h10.18.389,lexical_decision_task_MP,2020.1.3,Win32,60,m,1,1.164865,,,,,,,,1.164865,1,,,,,,239,WORD,"ID",33,lumber,LUMBER,m,,,,,,0.118518534,-0.158333343,0,0,0,,0,204,204,58,1,
,,,,,,,,,,,,,,,,,,5e36f37bbdc067675450705f,2020-08-10_18h10.18.389,lexical_decision_task_MP,2020.1.3,Win32,60,z,1,0.579715,,,,,,,,0.579715,1,,,,,,390,NW,UN,50,theldy,HATRUS,z,,,,,,0.118518534,-0.158333343,0,0,0,,0,205,205,449,1,
,,,,,,,,,,,,,,,,,,5e36f37bbdc067675450705f,2020-08-10_18h10.18.389,lexical_decision_task_MP,2020.1.3,Win32,60,m,1,0.588885,,,,,,,,0.588885,1,,,,,,78,WORD,UN,33,theory,COLUMN,m,,,,,,0.118518534,-0.158333343,0,0,0,,0,206,206,137,1,
,,,,,,,,,,,,,,,,,,5e36f37bbdc067675450705f,2020-08-10_18h10.18.389,lexical_decision_task_MP,2020.1.3,Win32,60,m,1,0.58195,,,,,,,,0.58195,1,,,,,,122,WORD,UN,50,strike,LINGER,m,,,,,,0.118518534,-0.158333343,0,0,0,,0,207,207,181,1,
,,,,,,,,,,,,,,,,,,5e36f37bbdc067675450705f,2020-08-10_18h10.18.389,lexical_decision_task_MP,2020.1.3,Win32,60,m,1,0.60525,,,,,,,,0.60525,1,,,,,,221,WORD,"ID",33,mascot,MASCOT,m,,,,,,0.118518534,-0.158333343,0,0,0,,0,208,208,40,1,
,,,,,,,,,,,,,,,,,,5e36f37bbdc067675450705f,2020-08-10_18h10.18.389,lexical_decision_task_MP,2020.1.3,Win32,60,z,1,0.552595,,,,,,,,0.552595,1,,,,,,460,NW,"ID",33,mingar,MINGAR,z,,,,,,0.118518534,-0.158333343,0,0,0,,0,209,209,279,1,
,,,,,,,,,,,,,,,,,,5e36f37bbdc067675450705f,2020-08-10_18h10.18.389,lexical_decision_task_MP,2020.1.3,Win32,60,m,1,0.550485,,,,,,,,0.550485,1,,,,,,204,WORD,"ID",33,burden,BURDEN,m,,,,,,0.118518534,-0.158333343,0,0,0,,0,210,210,23,1,
,,,,,,,,,,,,,,,,,,5e36f37bbdc067675450705f,2020-08-10_18h10.18.389,lexical_decision_task_MP,2020.1.3,Win32,60,z,1,0.61616,,,,,,,,0.61616,1,,,,,,416,NW,UN,50,earoud,PATHEL,z,,,,,,0.118518534,-0.158333343,0,0,0,,0,211,211,475,1,
,,,,,,,,,,,,,,,,,,5e36f37bbdc067675450705f,2020-08-10_18h10.18.389,lexical_decision_task_MP,2020.1.3,Win32,60,m,1,0.44623,,,,,,,,0.44623,1,,,,,,168,WORD,UN,50,genius,ANSWER,m,,,,,,0.118518534,-0.158333343,0,0,0,,0,212,212,227,1,
,,,,,,,,,,,,,,,,,,5e36f37bbdc067675450705f,2020-08-10_18h10.18.389,lexical_decision_task_MP,2020.1.3,Win32,60,m,1,0.5978,,,,,,,,0.5978,1,,,,,,237,WORD,"ID",33,poster,POSTER,m,,,,,,0.118518534,-0.158333343,0,0,0,,0,213,213,56,1,
,,,,,,,,,,,,,,,,,,5e36f37bbdc067675450705f,2020-08-10_18h10.18.389,lexical_decision_task_MP,2020.1.3,Win32,60,m,1,0.723115,,,,,,,,0.723115,1,,,,,,126,WORD,UN,50,castle,ENOUGH,m,,,,,,0.118518534,-0.158333343,0,0,0,,0,214,214,185,1,
,,,,,,,,,,,,,,,,,,5e36f37bbdc067675450705f,2020-08-10_18h10.18.389,lexical_decision_task_MP,2020.1.3,Win32,60,m,1,0.397115,,,,,,,,0.397115,1,,,,,,57,WORD,"ID",50,change,CHANGE,m,,,,,,0.118518534,-0.158333343,0,0,0,,0,215,215,116,1,
,,,,,,,,,,,,,,,,,,5e36f37bbdc067675450705f,2020-08-10_18h10.18.389,lexical_decision_task_MP,2020.1.3,Win32,60,m,1,0.377005,,,,,,,,0.377005,1,,,,,,182,WORD,"ID",33,winter,WINTER,m,,,,,,0.118518534,-0.158333343,0,0,0,,0,216,216,1,1,
,,,,,,,,,,,,,,,,,,5e36f37bbdc067675450705f,2020-08-10_18h10.18.389,lexical_decision_task_MP,2020.1.3,Win32,60,z,1,0.58217,,,,,,,,0.58217,1,,,,,,306,NW,UN,33,kirafe,SOUNGE,z,,,,,,0.118518534,-0.158333343,0,0,0,,0,217,217,365,1,
,,,,,,,,,,,,,,,,,,5e36f37bbdc067675450705f,2020-08-10_18h10.18.389,lexical_decision_task_MP,2020.1.3,Win32,60,m,1,0.62705,,,,,,,,0.62705,1,,,,,,159,WORD,UN,50,violet,DETAIL,m,,,,,,0.118518534,-0.158333343,0,0,0,,0,218,218,218,1,
,,,,,,,,,,,,,,,,,,5e36f37bbdc067675450705f,2020-08-10_18h10.18.389,lexical_decision_task_MP,2020.1.3,Win32,60,m,1,0.58215,,,,,,,,0.58215,1,,,,,,147,WORD,UN,50,custom,GARLIC,m,,,,,,0.118518534,-0.158333343,0,0,0,,0,219,219,206,1,
,,,,,,,,,,,,,,,,,,5e36f37bbdc067675450705f,2020-08-10_18h10.18.389,lexical_decision_task_MP,2020.1.3,Win32,60,z,1,1.03414,,,,,,,,1.03414,1,,,,,,345,NW,UN,33,saudic,ABSEND,z,,,,,,0.118518534,-0.158333343,0,0,0,,0,220,220,404,1,
,,,,,,,,,,,,,,,,,,5e36f37bbdc067675450705f,2020-08-10_18h10.18.389,lexical_decision_task_MP,2020.1.3,Win32,60,m,1,0.565965,,,,,,,,0.565965,1,,,,,,26,WORD,"ID",50,sprint,SPRINT,m,,,,,,0.118518534,-0.158333343,0,0,0,,0,221,221,85,1,
,,,,,,,,,,,,,,,,,,5e36f37bbdc067675450705f,2020-08-10_18h10.18.389,lexical_decision_task_MP,2020.1.3,Win32,60,m,1,0.517575,,,,,,,,0.517575,1,,,,,,48,WORD,"ID",50,walnut,WALNUT,m,,,,,,0.118518534,-0.158333343,0,0,0,,0,222,222,107,1,
,,,,,,,,,,,,,,,,,,5e36f37bbdc067675450705f,2020-08-10_18h10.18.389,lexical_decision_task_MP,2020.1.3,Win32,60,z,1,0.565675,,,,,,,,0.565675,1,,,,,,258,NW,"ID",50,poluth,POLUTH,z,,,,,,0.118518534,-0.158333343,0,0,0,,0,223,223,317,1,
,,,,,,,,,,,,,,,,,,5e36f37bbdc067675450705f,2020-08-10_18h10.18.389,lexical_decision_task_MP,2020.1.3,Win32,60,z,1,0.660805,,,,,,,,0.660805,1,,,,,,439,NW,"ID",33,limpor,LIMPOR,z,,,,,,0.118518534,-0.158333343,0,0,0,,0,224,224,258,1,
,,,,,,,,,,,,,,,,,,5e36f37bbdc067675450705f,2020-08-10_18h10.18.389,lexical_decision_task_MP,2020.1.3,Win32,60,m,1,0.632495,,,,,,,,0.632495,1,,,,,,171,WORD,UN,50,patrol,DEPART,m,,,,,,0.118518534,-0.158333343,0,0,0,,0,225,225,230,1,
,,,,,,,,,,,,,,,,,,5e36f37bbdc067675450705f,2020-08-10_18h10.18.389,lexical_decision_task_MP,2020.1.3,Win32,60,z,1,0.58374,,,,,,,,0.58374,1,,,,,,450,NW,"ID",33,phrect,PHRECT,z,,,,,,0.118518534,-0.158333343,0,0,0,,0,226,226,269,1,
,,,,,,,,,,,,,,,,,,5e36f37bbdc067675450705f,2020-08-10_18h10.18.389,lexical_decision_task_MP,2020.1.3,Win32,60,m,1,0.561515,,,,,,,,0.561515,1,,,,,,70,WORD,UN,33,garden,SQUARE,m,,,,,,0.118518534,-0.158333343,0,0,0,,0,227,227,129,1,
,,,,,,,,,,,,,,,,,,5e36f37bbdc067675450705f,2020-08-10_18h10.18.389,lexical_decision_task_MP,2020.1.3,Win32,60,m,0,0.559365,,,,,,,,0.559365,0,,,,,,251,NW,"ID",50,lupict,LUPICT,z,,,,,,0.118518534,-0.158333343,0,0,0,,0,228,228,310,1,
,,,,,,,,,,,,,,,,,,5e36f37bbdc067675450705f,2020-08-10_18h10.18.389,lexical_decision_task_MP,2020.1.3,Win32,60,m,1,0.59872,,,,,,,,0.59872,1,,,,,,66,WORD,UN,33,policy,GOSPEL,m,,,,,,0.118518534,-0.158333343,0,0,0,,0,229,229,125,1,
,,,,,,,,,,,,,,,,,,5e36f37bbdc067675450705f,2020-08-10_18h10.18.389,lexical_decision_task_MP,2020.1.3,Win32,60,m,1,0.449255,,,,,,,,0.449255,1,,,,,,205,WORD,"ID",33,lounge,LOUNGE,m,,,,,,0.118518534,-0.158333343,0,0,0,,0,230,230,24,1,
,,,,,,,,,,,,,,,,,,5e36f37bbdc067675450705f,2020-08-10_18h10.18.389,lexical_decision_task_MP,2020.1.3,Win32,60,m,1,0.41478,,,,,,,,0.41478,1,,,,,,193,WORD,"ID",33,object,OBJECT,m,,,,,,0.118518534,-0.158333343,0,0,0,,0,231,231,12,1,
,,,,,,,,,,,,,,,,,,5e36f37bbdc067675450705f,2020-08-10_18h10.18.389,lexical_decision_task_MP,2020.1.3,Win32,60,m,1,0.423865,,,,,,,,0.423865,1,,,,,,63,WORD,UN,33,throne,LAUNCH,m,,,,,,0.118518534,-0.158333343,0,0,0,,0,232,232,122,1,
,,,,,,,,,,,,,,,,,,5e36f37bbdc067675450705f,2020-08-10_18h10.18.389,lexical_decision_task_MP,2020.1.3,Win32,60,m,1,0.64809,,,,,,,,0.64809,1,,,,,,73,WORD,UN,33,plaque,SOURCE,m,,,,,,0.118518534,-0.158333343,0,0,0,,0,233,233,132,1,
,,,,,,,,,,,,,,,,,,5e36f37bbdc067675450705f,2020-08-10_18h10.18.389,lexical_decision_task_MP,2020.1.3,Win32,60,z,1,0.5889,,,,,,,,0.5889,1,,,,,,316,NW,UN,33,worbal,SCREGM,z,,,,,,0.118518534,-0.158333343,0,0,0,,0,234,234,375,1,
,,,,,,,,,,,,,,,,,,5e36f37bbdc067675450705f,2020-08-10_18h10.18.389,lexical_decision_task_MP,2020.1.3,Win32,60,m,1,0.6328,,,,,,,,0.6328,1,,,,,,136,WORD,UN,50,finger,BLEACH,m,,,,,,0.118518534,-0.158333343,0,0,0,,0,235,235,195,1,
,,,,,,,,,,,,,,,,,,5e36f37bbdc067675450705f,2020-08-10_18h10.18.389,lexical_decision_task_MP,2020.1.3,Win32,60,z,1,0.537795,,,,,,,,0.537795,1,,,,,,279,NW,"ID",50,celond,CELOND,z,,,,,,0.118518534,-0.158333343,0,0,0,,0,236,236,338,1,
,,,,,,,,,,,,,,,,,,5e36f37bbdc067675450705f,2020-08-10_18h10.18.389,lexical_decision_task_MP,2020.1.3,Win32,60,m,0,0.531375,,,,,,,,0.531375,0,,,,,,432,NW,"ID",33,lunker,LUNKER,z,,,,,,0.118518534,-0.158333343,0,0,0,,0,237,237,251,1,
,,,,,,,,,,,,,,,,,,5e36f37bbdc067675450705f,2020-08-10_18h10.18.389,lexical_decision_task_MP,2020.1.3,Win32,60,m,1,0.632905,,,,,,,,0.632905,1,,,,,,178,WORD,UN,50,basket,INFORM,m,,,,,,0.118518534,-0.158333343,0,0,0,,0,238,238,237,1,
,,,,,,,,,,,,,,,,,,5e36f37bbdc067675450705f,2020-08-10_18h10.18.389,lexical_decision_task_MP,2020.1.3,Win32,60,m,1,0.49629,,,,,,,,0.49629,1,,,,,,94,WORD,UN,33,thread,TRAVEL,m,,,,,,0.118518534,-0.158333343,0,0,0,,0,239,239,153,1,
,,,,,,,,,,,,,,,,,,5e36f37bbdc067675450705f,2020-08-10_18h10.18.389,lexical_decision_task_MP,2020.1.3,Win32,60,z,1,0.555435,,,,,,,,0.555435,1,,,,,,263,NW,"ID",50,dolica,DOLICA,z,,,,,,0.118518534,-0.158333343,0,0,0,,0,240,240,322,1,
,,,,,,,,,,,,,,,,,,5e36f37bbdc067675450705f,2020-08-10_18h10.18.389,lexical_decision_task_MP,2020.1.3,Win32,60,m,1,0.63688,,,,,,,,0.63688,1,,,,,,90,WORD,UN,33,expand,RELISH,m,,,,,,0.118518534,-0.158333343,0,0,0,space,0,241,241,149,1,5.36591
,,,,,,,,,,,,,,,,,,5e36f37bbdc067675450705f,2020-08-10_18h10.18.389,lexical_decision_task_MP,2020.1.3,Win32,60,z,1,0.60239,,,,,,,,0.60239,1,,,,,,395,NW,UN,50,flengy,COLURY,z,,,,,,0.118518534,-0.158333343,0,0,0,,0,242,242,454,1,
,,,,,,,,,,,,,,,,,,5e36f37bbdc067675450705f,2020-08-10_18h10.18.389,lexical_decision_task_MP,2020.1.3,Win32,60,z,1,0.55169,,,,,,,,0.55169,1,,,,,,250,NW,"ID",50,milted,MILTED,z,,,,,,0.118518534,-0.158333343,0,0,0,,0,243,243,309,1,
,,,,,,,,,,,,,,,,,,5e36f37bbdc067675450705f,2020-08-10_18h10.18.389,lexical_decision_task_MP,2020.1.3,Win32,60,z,1,0.79154,,,,,,,,0.79154,1,,,,,,425,NW,"ID",33,frudge,FRUDGE,z,,,,,,0.118518534,-0.158333343,0,0,0,,0,244,244,244,1,
,,,,,,,,,,,,,,,,,,5e36f37bbdc067675450705f,2020-08-10_18h10.18.389,lexical_decision_task_MP,2020.1.3,Win32,60,z,1,0.55092,,,,,,,,0.55092,1,,,,,,264,NW,"ID",50,vackel,VACKEL,z,,,,,,0.118518534,-0.158333343,0,0,0,,0,245,245,323,1,
,,,,,,,,,,,,,,,,,,5e36f37bbdc067675450705f,2020-08-10_18h10.18.389,lexical_decision_task_MP,2020.1.3,Win32,60,z,1,0.48747,,,,,,,,0.48747,1,,,,,,337,NW,UN,33,wreash,REJOLS,z,,,,,,0.118518534,-0.158333343,0,0,0,,0,246,246,396,1,
,,,,,,,,,,,,,,,,,,5e36f37bbdc067675450705f,2020-08-10_18h10.18.389,lexical_decision_task_MP,2020.1.3,Win32,60,m,1,0.49884,,,,,,,,0.49884,1,,,,,,213,WORD,"ID",33,squeal,SQUEAL,m,,,,,,0.118518534,-0.158333343,0,0,0,,0,247,247,32,1,
,,,,,,,,,,,,,,,,,,5e36f37bbdc067675450705f,2020-08-10_18h10.18.389,lexical_decision_task_MP,2020.1.3,Win32,60,z,1,0.51464,,,,,,,,0.51464,1,,,,,,321,NW,UN,33,slanch,MIATOR,z,,,,,,0.118518534,-0.158333343,0,0,0,,0,248,248,380,1,
,,,,,,,,,,,,,,,,,,5e36f37bbdc067675450705f,2020-08-10_18h10.18.389,lexical_decision_task_MP,2020.1.3,Win32,60,m,1,0.449125,,,,,,,,0.449125,1,,,,,,240,WORD,"ID",33,forest,FOREST,m,,,,,,0.118518534,-0.158333343,0,0,0,,0,249,249,59,1,
,,,,,,,,,,,,,,,,,,5e36f37bbdc067675450705f,2020-08-10_18h10.18.389,lexical_decision_task_MP,2020.1.3,Win32,60,z,1,0.45583,,,,,,,,0.45583,1,,,,,,373,NW,UN,50,sliant,BIGENT,z,,,,,,0.118518534,-0.158333343,0,0,0,,0,250,250,432,1,
,,,,,,,,,,,,,,,,,,5e36f37bbdc067675450705f,2020-08-10_18h10.18.389,lexical_decision_task_MP,2020.1.3,Win32,60,z,1,1.031495,,,,,,,,1.031495,1,,,,,,291,NW,"ID",50,pretch,PRETCH,z,,,,,,0.118518534,-0.158333343,0,0,0,,0,251,251,350,1,
,,,,,,,,,,,,,,,,,,5e36f37bbdc067675450705f,2020-08-10_18h10.18.389,lexical_decision_task_MP,2020.1.3,Win32,60,m,1,0.53251,,,,,,,,0.53251,1,,,,,,38,WORD,"ID",50,powder,POWDER,m,,,,,,0.118518534,-0.158333343,0,0,0,,0,252,252,97,1,
,,,,,,,,,,,,,,,,,,5e36f37bbdc067675450705f,2020-08-10_18h10.18.389,lexical_decision_task_MP,2020.1.3,Win32,60,z,1,0.76773,,,,,,,,0.76773,1,,,,,,409,NW,UN,50,tunory,ELOPIA,z,,,,,,0.118518534,-0.158333343,0,0,0,,0,253,253,468,1,
,,,,,,,,,,,,,,,,,,5e36f37bbdc067675450705f,2020-08-10_18h10.18.389,lexical_decision_task_MP,2020.1.3,Win32,60,z,1,0.782275,,,,,,,,0.782275,1,,,,,,415,NW,UN,50,pathel,HIGSTA,z,,,,,,0.118518534,-0.158333343,0,0,0,,0,254,254,474,1,
,,,,,,,,,,,,,,,,,,5e36f37bbdc067675450705f,2020-08-10_18h10.18.389,lexical_decision_task_MP,2020.1.3,Win32,60,z,1,0.521165,,,,,,,,0.521165,1,,,,,,353,NW,UN,33,virlex,CLUREY,z,,,,,,0.118518534,-0.158333343,0,0,0,,0,255,255,412,1,
,,,,,,,,,,,,,,,,,,5e36f37bbdc067675450705f,2020-08-10_18h10.18.389,lexical_decision_task_MP,2020.1.3,Win32,60,m,1,0.416935,,,,,,,,0.416935,1,,,,,,165,WORD,UN,50,starch,INVEST,m,,,,,,0.118518534,-0.158333343,0,0,0,,0,256,256,224,1,
,,,,,,,,,,,,,,,,,,5e36f37bbdc067675450705f,2020-08-10_18h10.18.389,lexical_decision_task_MP,2020.1.3,Win32,60,z,0,0.571655,,,,,,,,0.571655,0,,,,,,142,WORD,UN,50,reason,SPRUCE,m,,,,,,0.118518534,-0.158333343,0,0,0,,0,257,257,201,1,
,,,,,,,,,,,,,,,,,,5e36f37bbdc067675450705f,2020-08-10_18h10.18.389,lexical_decision_task_MP,2020.1.3,Win32,60,m,1,0.52226,,,,,,,,0.52226,1,,,,,,148,WORD,UN,50,invade,CUSTOM,m,,,,,,0.118518534,-0.158333343,0,0,0,,0,258,258,207,1,
,,,,,,,,,,,,,,,,,,5e36f37bbdc067675450705f,2020-08-10_18h10.18.389,lexical_decision_task_MP,2020.1.3,Win32,60,z,1,0.732405,,,,,,,,0.732405,1,,,,,,295,NW,"ID",50,gleath,GLEATH,z,,,,,,0.118518534,-0.158333343,0,0,0,,0,259,259,354,1,
,,,,,,,,,,,,,,,,,,5e36f37bbdc067675450705f,2020-08-10_18h10.18.389,lexical_decision_task_MP,2020.1.3,Win32,60,m,1,0.48694,,,,,,,,0.48694,1,,,,,,189,WORD,"ID",33,censor,CENSOR,m,,,,,,0.118518534,-0.158333343,0,0,0,,0,260,260,8,1,
,,,,,,,,,,,,,,,,,,5e36f37bbdc067675450705f,2020-08-10_18h10.18.389,lexical_decision_task_MP,2020.1.3,Win32,60,m,1,0.386485,,,,,,,,0.386485,1,,,,,,144,WORD,UN,50,parish,SPONGE,m,,,,,,0.118518534,-0.158333343,0,0,0,,0,261,261,203,1,
,,,,,,,,,,,,,,,,,,5e36f37bbdc067675450705f,2020-08-10_18h10.18.389,lexical_decision_task_MP,2020.1.3,Win32,60,z,1,0.40029,,,,,,,,0.40029,1,,,,,,307,NW,UN,33,psetch,KIRAFE,z,,,,,,0.118518534,-0.158333343,0,0,0,,0,262,262,366,1,
,,,,,,,,,,,,,,,,,,5e36f37bbdc067675450705f,2020-08-10_18h10.18.389,lexical_decision_task_MP,2020.1.3,Win32,60,z,1,0.491095,,,,,,,,0.491095,1,,,,,,406,NW,UN,50,suiver,NOUPLY,z,,,,,,0.118518534,-0.158333343,0,0,0,,0,263,263,465,1,
,,,,,,,,,,,,,,,,,,5e36f37bbdc067675450705f,2020-08-10_18h10.18.389,lexical_decision_task_MP,2020.1.3,Win32,60,z,1,0.49513,,,,,,,,0.49513,1,,,,,,389,NW,UN,50,hatrus,WITMER,z,,,,,,0.118518534,-0.158333343,0,0,0,,0,264,264,448,1,
,,,,,,,,,,,,,,,,,,5e36f37bbdc067675450705f,2020-08-10_18h10.18.389,lexical_decision_task_MP,2020.1.3,Win32,60,m,1,0.42893,,,,,,,,0.42893,1,,,,,,39,WORD,"ID",50,insect,INSECT,m,,,,,,0.118518534,-0.158333343,0,0,0,,0,265,265,98,1,
,,,,,,,,,,,,,,,,,,5e36f37bbdc067675450705f,2020-08-10_18h10.18.389,lexical_decision_task_MP,2020.1.3,Win32,60,m,1,0.678135,,,,,,,,0.678135,1,,,,,,181,WORD,"ID",33,glance,GLANCE,m,,,,,,0.118518534,-0.158333343,0,0,0,,0,266,266,0,1,
,,,,,,,,,,,,,,,,,,5e36f37bbdc067675450705f,2020-08-10_18h10.18.389,lexical_decision_task_MP,2020.1.3,Win32,60,m,0,0.550515,,,,,,,,0.550515,0,,,,,,285,NW,"ID",50,prudge,PRUDGE,z,,,,,,0.118518534,-0.158333343,0,0,0,,0,267,267,344,1,
,,,,,,,,,,,,,,,,,,5e36f37bbdc067675450705f,2020-08-10_18h10.18.389,lexical_decision_task_MP,2020.1.3,Win32,60,z,1,0.600215,,,,,,,,0.600215,1,,,,,,297,NW,"ID",50,fertic,FERTIC,z,,,,,,0.118518534,-0.158333343,0,0,0,,0,268,268,356,1,
,,,,,,,,,,,,,,,,,,5e36f37bbdc067675450705f,2020-08-10_18h10.18.389,lexical_decision_task_MP,2020.1.3,Win32,60,z,1,0.57129,,,,,,,,0.57129,1,,,,,,304,NW,UN,33,forgle,CLUDIE,z,,,,,,0.118518534,-0.158333343,0,0,0,,0,269,269,363,1,
,,,,,,,,,,,,,,,,,,5e36f37bbdc067675450705f,2020-08-10_18h10.18.389,lexical_decision_task_MP,2020.1.3,Win32,60,z,1,0.48048,,,,,,,,0.48048,1,,,,,,471,NW,"ID",33,nobest,NOBEST,z,,,,,,0.118518534,-0.158333343,0,0,0,,0,270,270,290,1,
,,,,,,,,,,,,,,,,,,5e36f37bbdc067675450705f,2020-08-10_18h10.18.389,lexical_decision_task_MP,2020.1.3,Win32,60,z,1,0.4862,,,,,,,,0.4862,1,,,,,,386,NW,UN,50,gronce,ANCUST,z,,,,,,0.118518534,-0.158333343,0,0,0,,0,271,271,445,1,
,,,,,,,,,,,,,,,,,,5e36f37bbdc067675450705f,2020-08-10_18h10.18.389,lexical_decision_task_MP,2020.1.3,Win32,60,z,1,0.53204,,,,,,,,0.53204,1,,,,,,405,NW,UN,50,nouply,FLUMNI,z,,,,,,0.118518534,-0.158333343,0,0,0,,0,272,272,464,1,
,,,,,,,,,,,,,,,,,,5e36f37bbdc067675450705f,2020-08-10_18h10.18.389,lexical_decision_task_MP,2020.1.3,Win32,60,m,1,0.45369,,,,,,,,0.45369,1,,,,,,27,WORD,"ID",50,scream,SCREAM,m,,,,,,0.118518534,-0.158333343,0,0,0,,0,273,273,86,1,
,,,,,,,,,,,,,,,,,,5e36f37bbdc067675450705f,2020-08-10_18h10.18.389,lexical_decision_task_MP,2020.1.3,Win32,60,m,0,0.62112,,,,,,,,0.62112,0,,,,,,248,NW,"ID",50,strole,STROLE,z,,,,,,0.118518534,-0.158333343,0,0,0,,0,274,274,307,1,
,,,,,,,,,,,,,,,,,,5e36f37bbdc067675450705f,2020-08-10_18h10.18.389,lexical_decision_task_MP,2020.1.3,Win32,60,m,1,0.51802,,,,,,,,0.51802,1,,,,,,50,WORD,"ID",50,snatch,SNATCH,m,,,,,,0.118518534,-0.158333343,0,0,0,,0,275,275,109,1,
,,,,,,,,,,,,,,,,,,5e36f37bbdc067675450705f,2020-08-10_18h10.18.389,lexical_decision_task_MP,2020.1.3,Win32,60,z,1,0.484605,,,,,,,,0.484605,1,,,,,,383,NW,UN,50,guesco,AUNGRE,z,,,,,,0.118518534,-0.158333343,0,0,0,,0,276,276,442,1,
,,,,,,,,,,,,,,,,,,5e36f37bbdc067675450705f,2020-08-10_18h10.18.389,lexical_decision_task_MP,2020.1.3,Win32,60,m,0,0.519005,,,,,,,,0.519005,0,,,,,,472,NW,"ID",33,cigney,CIGNEY,z,,,,,,0.118518534,-0.158333343,0,0,0,,0,277,277,291,1,
,,,,,,,,,,,,,,,,,,5e36f37bbdc067675450705f,2020-08-10_18h10.18.389,lexical_decision_task_MP,2020.1.3,Win32,60,z,1,0.639085,,,,,,,,0.639085,1,,,,,,333,NW,UN,33,watmeg,CATRIE,z,,,,,,0.118518534,-0.158333343,0,0,0,,0,278,278,392,1,
,,,,,,,,,,,,,,,,,,5e36f37bbdc067675450705f,2020-08-10_18h10.18.389,lexical_decision_task_MP,2020.1.3,Win32,60,z,1,0.44158,,,,,,,,0.44158,1,,,,,,473,NW,"ID",33,crible,CRIBLE,z,,,,,,0.118518534,-0.158333343,0,0,0,,0,279,279,292,1,
,,,,,,,,,,,,,,,,,,5e36f37bbdc067675450705f,2020-08-10_18h10.18.389,lexical_decision_task_MP,2020.1.3,Win32,60,z,1,0.5692,,,,,,,,0.5692,1,,,,,,468,NW,"ID",33,wictor,WICTOR,z,,,,,,0.118518534,-0.158333343,0,0,0,,0,280,280,287,1,
,,,,,,,,,,,,,,,,,,5e36f37bbdc067675450705f,2020-08-10_18h10.18.389,lexical_decision_task_MP,2020.1.3,Win32,60,z,1,0.49572,,,,,,,,0.49572,1,,,,,,377,NW,UN,50,shrile,INJORE,z,,,,,,0.118518534,-0.158333343,0,0,0,,0,281,281,436,1,
,,,,,,,,,,,,,,,,,,5e36f37bbdc067675450705f,2020-08-10_18h10.18.389,lexical_decision_task_MP,2020.1.3,Win32,60,m,1,0.4208,,,,,,,,0.4208,1,,,,,,32,WORD,"ID",50,buckle,BUCKLE,m,,,,,,0.118518534,-0.158333343,0,0,0,,0,282,282,91,1,
,,,,,,,,,,,,,,,,,,5e36f37bbdc067675450705f,2020-08-10_18h10.18.389,lexical_decision_task_MP,2020.1.3,Win32,60,m,1,0.414915,,,,,,,,0.414915,1,,,,,,209,WORD,"ID",33,search,SEARCH,m,,,,,,0.118518534,-0.158333343,0,0,0,,0,283,283,28,1,
,,,,,,,,,,,,,,,,,,5e36f37bbdc067675450705f,2020-08-10_18h10.18.389,lexical_decision_task_MP,2020.1.3,Win32,60,z,1,0.501555,,,,,,,,0.501555,1,,,,,,356,NW,UN,33,derain,OTHNIS,z,,,,,,0.118518534,-0.158333343,0,0,0,,0,284,284,415,1,
,,,,,,,,,,,,,,,,,,5e36f37bbdc067675450705f,2020-08-10_18h10.18.389,lexical_decision_task_MP,2020.1.3,Win32,60,m,1,0.54637,,,,,,,,0.54637,1,,,,,,157,WORD,UN,50,island,DRAGON,m,,,,,,0.118518534,-0.158333343,0,0,0,,0,285,285,216,1,
,,,,,,,,,,,,,,,,,,5e36f37bbdc067675450705f,2020-08-10_18h10.18.389,lexical_decision_task_MP,2020.1.3,Win32,60,z,1,1.00362,,,,,,,,1.00362,1,,,,,,438,NW,"ID",33,baitch,BAITCH,z,,,,,,0.118518534,-0.158333343,0,0,0,,0,286,286,257,1,
,,,,,,,,,,,,,,,,,,5e36f37bbdc067675450705f,2020-08-10_18h10.18.389,lexical_decision_task_MP,2020.1.3,Win32,60,m,1,0.63193,,,,,,,,0.63193,1,,,,,,92,WORD,UN,33,public,STRAND,m,,,,,,0.118518534,-0.158333343,0,0,0,,0,287,287,151,1,
,,,,,,,,,,,,,,,,,,5e36f37bbdc067675450705f,2020-08-10_18h10.18.389,lexical_decision_task_MP,2020.1.3,Win32,60,z,1,0.45662,,,,,,,,0.45662,1,,,,,,270,NW,"ID",50,wrimsy,WRIMSY,z,,,,,,0.118518534,-0.158333343,0,0,0,,0,288,288,329,1,
,,,,,,,,,,,,,,,,,,5e36f37bbdc067675450705f,2020-08-10_18h10.18.389,lexical_decision_task_MP,2020.1.3,Win32,60,m,1,0.51447,,,,,,,,0.51447,1,,,,,,137,WORD,UN,50,melody,FINGER,m,,,,,,0.118518534,-0.158333343,0,0,0,,0,289,289,196,1,
,,,,,,,,,,,,,,,,,,5e36f37bbdc067675450705f,2020-08-10_18h10.18.389,lexical_decision_task_MP,2020.1.3,Win32,60,z,1,0.43251,,,,,,,,0.43251,1,,,,,,276,NW,"ID",50,yarmon,YARMON,z,,,,,,0.118518534,-0.158333343,0,0,0,,0,290,290,335,1,
,,,,,,,,,,,,,,,,,,5e36f37bbdc067675450705f,2020-08-10_18h10.18.389,lexical_decision_task_MP,2020.1.3,Win32,60,m,1,0.56496,,,,,,,,0.56496,1,,,,,,184,WORD,"ID",33,sleazy,SLEAZY,m,,,,,,0.118518534,-0.158333343,0,0,0,,0,291,291,3,1,
,,,,,,,,,,,,,,,,,,5e36f37bbdc067675450705f,2020-08-10_18h10.18.389,lexical_decision_task_MP,2020.1.3,Win32,60,z,1,0.43123,,,,,,,,0.43123,1,,,,,,329,NW,UN,33,kensom,YARIKE,z,,,,,,0.118518534,-0.158333343,0,0,0,,0,292,292,388,1,
,,,,,,,,,,,,,,,,,,5e36f37bbdc067675450705f,2020-08-10_18h10.18.389,lexical_decision_task_MP,2020.1.3,Win32,60,m,1,0.60422,,,,,,,,0.60422,1,,,,,,60,WORD,"ID",50,pencil,PENCIL,m,,,,,,0.118518534,-0.158333343,0,0,0,,0,293,293,119,1,
,,,,,,,,,,,,,,,,,,5e36f37bbdc067675450705f,2020-08-10_18h10.18.389,lexical_decision_task_MP,2020.1.3,Win32,60,z,0,0.621005,,,,,,,,0.621005,0,,,,,,134,WORD,UN,50,import,STAPLE,m,,,,,,0.118518534,-0.158333343,0,0,0,,0,294,294,193,1,
,,,,,,,,,,,,,,,,,,5e36f37bbdc067675450705f,2020-08-10_18h10.18.389,lexical_decision_task_MP,2020.1.3,Win32,60,m,0,0.414305,,,,,,,,0.414305,0,,,,,,277,NW,"ID",50,petain,PETAIN,z,,,,,,0.118518534,-0.158333343,0,0,0,,0,295,295,336,1,
,,,,,,,,,,,,,,,,,,5e36f37bbdc067675450705f,2020-08-10_18h10.18.389,lexical_decision_task_MP,2020.1.3,Win32,60,z,1,0.684435,,,,,,,,0.684435,1,,,,,,451,NW,"ID",33,cainky,CAINKY,z,,,,,,0.118518534,-0.158333343,0,0,0,,0,296,296,270,1,
,,,,,,,,,,,,,,,,,,5e36f37bbdc067675450705f,2020-08-10_18h10.18.389,lexical_decision_task_MP,2020.1.3,Win32,60,z,1,0.396495,,,,,,,,0.396495,1,,,,,,282,NW,"ID",50,porlex,PORLEX,z,,,,,,0.118518534,-0.158333343,0,0,0,,0,297,297,341,1,
,,,,,,,,,,,,,,,,,,5e36f37bbdc067675450705f,2020-08-10_18h10.18.389,lexical_decision_task_MP,2020.1.3,Win32,60,m,1,0.481725,,,,,,,,0.481725,1,,,,,,7,WORD,"ID",50,anchor,ANCHOR,m,,,,,,0.118518534,-0.158333343,0,0,0,,0,298,298,66,1,
,,,,,,,,,,,,,,,,,,5e36f37bbdc067675450705f,2020-08-10_18h10.18.389,lexical_decision_task_MP,2020.1.3,Win32,60,m,1,0.61597,,,,,,,,0.61597,1,,,,,,105,WORD,UN,33,ransom,NUMBER,m,,,,,,0.118518534,-0.158333343,0,0,0,,0,299,299,164,1,
,,,,,,,,,,,,,,,,,,5e36f37bbdc067675450705f,2020-08-10_18h10.18.389,lexical_decision_task_MP,2020.1.3,Win32,60,m,1,0.52279,,,,,,,,0.52279,1,,,,,,96,WORD,UN,33,client,IGNORE,m,,,,,,0.118518534,-0.158333343,0,0,0,,0,300,300,155,1,
,,,,,,,,,,,,,,,,,,5e36f37bbdc067675450705f,2020-08-10_18h10.18.389,lexical_decision_task_MP,2020.1.3,Win32,60,m,1,0.562565,,,,,,,,0.562565,1,,,,,,52,WORD,"ID",50,impose,IMPOSE,m,,,,,,0.118518534,-0.158333343,0,0,0,,0,301,301,111,1,
,,,,,,,,,,,,,,,,,,5e36f37bbdc067675450705f,2020-08-10_18h10.18.389,lexical_decision_task_MP,2020.1.3,Win32,60,m,0,0.768325,,,,,,,,0.768325,0,,,,,,359,NW,UN,33,desory,FONVER,z,,,,,,0.118518534,-0.158333343,0,0,0,,0,302,302,418,1,
,,,,,,,,,,,,,,,,,,5e36f37bbdc067675450705f,2020-08-10_18h10.18.389,lexical_decision_task_MP,2020.1.3,Win32,60,z,0,0.419265,,,,,,,,0.419265,0,,,,,,15,WORD,"ID",50,amount,AMOUNT,m,,,,,,0.118518534,-0.158333343,0,0,0,,0,303,303,74,1,
,,,,,,,,,,,,,,,,,,5e36f37bbdc067675450705f,2020-08-10_18h10.18.389,lexical_decision_task_MP,2020.1.3,Win32,60,m,0,1.292675,,,,,,,,1.292675,0,,,,,,319,NW,UN,33,jockal,ZOMBER,z,,,,,,0.118518534,-0.158333343,0,0,0,,0,304,304,378,1,
,,,,,,,,,,,,,,,,,,5e36f37bbdc067675450705f,2020-08-10_18h10.18.389,lexical_decision_task_MP,2020.1.3,Win32,60,m,1,0.75004,,,,,,,,0.75004,1,,,,,,49,WORD,"ID",50,survey,SURVEY,m,,,,,,0.118518534,-0.158333343,0,0,0,,0,305,305,108,1,
,,,,,,,,,,,,,,,,,,5e36f37bbdc067675450705f,2020-08-10_18h10.18.389,lexical_decision_task_MP,2020.1.3,Win32,60,m,0,0.834025,,,,,,,,0.834025,0,,,,,,470,NW,"ID",33,crudio,CRUDIO,z,,,,,,0.118518534,-0.158333343,0,0,0,,0,306,306,289,1,
,,,,,,,,,,,,,,,,,,5e36f37bbdc067675450705f,2020-08-10_18h10.18.389,lexical_decision_task_MP,2020.1.3,Win32,60,m,1,0.93898,,,,,,,,0.93898,1,,,,,,54,WORD,"ID",50,ramble,RAMBLE,m,,,,,,0.118518534,-0.158333343,0,0,0,,0,307,307,113,1,
,,,,,,,,,,,,,,,,,,5e36f37bbdc067675450705f,2020-08-10_18h10.18.389,lexical_decision_task_MP,2020.1.3,Win32,60,m,1,0.850355,,,,,,,,0.850355,1,,,,,,109,WORD,UN,33,polite,WONDER,m,,,,,,0.118518534,-0.158333343,0,0,0,,0,308,308,168,1,
,,,,,,,,,,,,,,,,,,5e36f37bbdc067675450705f,2020-08-10_18h10.18.389,lexical_decision_task_MP,2020.1.3,Win32,60,z,1,0.620365,,,,,,,,0.620365,1,,,,,,369,NW,UN,50,sleact,WRONCH,z,,,,,,0.118518534,-0.158333343,0,0,0,,0,309,309,428,1,
,,,,,,,,,,,,,,,,,,5e36f37bbdc067675450705f,2020-08-10_18h10.18.389,lexical_decision_task_MP,2020.1.3,Win32,60,m,1,0.670475,,,,,,,,0.670475,1,,,,,,217,WORD,"ID",33,liquor,LIQUOR,m,,,,,,0.118518534,-0.158333343,0,0,0,,0,310,310,36,1,
,,,,,,,,,,,,,,,,,,5e36f37bbdc067675450705f,2020-08-10_18h10.18.389,lexical_decision_task_MP,2020.1.3,Win32,60,z,1,0.881885,,,,,,,,0.881885,1,,,,,,363,NW,UN,50,impote,BREALI,z,,,,,,0.118518534,-0.158333343,0,0,0,,0,311,311,422,1,
,,,,,,,,,,,,,,,,,,5e36f37bbdc067675450705f,2020-08-10_18h10.18.389,lexical_decision_task_MP,2020.1.3,Win32,60,z,1,0.845765,,,,,,,,0.845765,1,,,,,,339,NW,UN,33,fiatch,FACHOW,z,,,,,,0.118518534,-0.158333343,0,0,0,,0,312,312,398,1,
,,,,,,,,,,,,,,,,,,5e36f37bbdc067675450705f,2020-08-10_18h10.18.389,lexical_decision_task_MP,2020.1.3,Win32,60,m,1,1.25323,,,,,,,,1.25323,1,,,,,,64,WORD,UN,33,symbol,THRONE,m,,,,,,0.118518534,-0.158333343,0,0,0,,0,313,313,123,1,
,,,,,,,,,,,,,,,,,,5e36f37bbdc067675450705f,2020-08-10_18h10.18.389,lexical_decision_task_MP,2020.1.3,Win32,60,z,1,0.695305,,,,,,,,0.695305,1,,,,,,247,NW,"ID",50,blarge,BLARGE,z,,,,,,0.118518534,-0.158333343,0,0,0,,0,314,314,306,1,
,,,,,,,,,,,,,,,,,,5e36f37bbdc067675450705f,2020-08-10_18h10.18.389,lexical_decision_task_MP,2020.1.3,Win32,60,m,1,0.486855,,,,,,,,0.486855,1,,,,,,12,WORD,"ID",50,orange,ORANGE,m,,,,,,0.118518534,-0.158333343,0,0,0,,0,315,315,71,1,
,,,,,,,,,,,,,,,,,,5e36f37bbdc067675450705f,2020-08-10_18h10.18.389,lexical_decision_task_MP,2020.1.3,Win32,60,z,1,0.70366,,,,,,,,0.70366,1,,,,,,294,NW,"ID",50,inhort,INHORT,z,,,,,,0.118518534,-0.158333343,0,0,0,,0,316,316,353,1,
,,,,,,,,,,,,,,,,,,5e36f37bbdc067675450705f,2020-08-10_18h10.18.389,lexical_decision_task_MP,2020.1.3,Win32,60,z,1,0.782975,,,,,,,,0.782975,1,,,,,,253,NW,"ID",50,resait,RESAIT,z,,,,,,0.118518534,-0.158333343,0,0,0,,0,317,317,312,1,
,,,,,,,,,,,,,,,,,,5e36f37bbdc067675450705f,2020-08-10_18h10.18.389,lexical_decision_task_MP,2020.1.3,Win32,60,z,1,0.55081,,,,,,,,0.55081,1,,,,,,371,NW,UN,50,ramily,GEILOY,z,,,,,,0.118518534,-0.158333343,0,0,0,,0,318,318,430,1,
,,,,,,,,,,,,,,,,,,5e36f37bbdc067675450705f,2020-08-10_18h10.18.389,lexical_decision_task_MP,2020.1.3,Win32,60,m,1,0.480765,,,,,,,,0.480765,1,,,,,,185,WORD,"ID",33,bother,BOTHER,m,,,,,,0.118518534,-0.158333343,0,0,0,,0,319,319,4,1,
,,,,,,,,,,,,,,,,,,5e36f37bbdc067675450705f,2020-08-10_18h10.18.389,lexical_decision_task_MP,2020.1.3,Win32,60,z,1,0.66319,,,,,,,,0.66319,1,,,,,,461,NW,"ID",33,justre,JUSTRE,z,,,,,,0.118518534,-0.158333343,0,0,0,,0,320,320,280,1,
,,,,,,,,,,,,,,,,,,5e36f37bbdc067675450705f,2020-08-10_18h10.18.389,lexical_decision_task_MP,2020.1.3,Win32,60,m,1,0.5983,,,,,,,,0.5983,1,,,,,,133,WORD,UN,50,staple,CHROME,m,,,,,,0.118518534,-0.158333343,0,0,0,,0,321,321,192,1,
,,,,,,,,,,,,,,,,,,5e36f37bbdc067675450705f,2020-08-10_18h10.18.389,lexical_decision_task_MP,2020.1.3,Win32,60,z,1,0.53446,,,,,,,,0.53446,1,,,,,,292,NW,"ID",50,ablint,ABLINT,z,,,,,,0.118518534,-0.158333343,0,0,0,,0,322,322,351,1,
,,,,,,,,,,,,,,,,,,5e36f37bbdc067675450705f,2020-08-10_18h10.18.389,lexical_decision_task_MP,2020.1.3,Win32,60,z,1,0.54127,,,,,,,,0.54127,1,,,,,,343,NW,UN,33,scrily,AIMOSY,z,,,,,,0.118518534,-0.158333343,0,0,0,,0,323,323,402,1,
,,,,,,,,,,,,,,,,,,5e36f37bbdc067675450705f,2020-08-10_18h10.18.389,lexical_decision_task_MP,2020.1.3,Win32,60,z,0,0.55299,,,,,,,,0.55299,0,,,,,,222,WORD,"ID",33,hinder,HINDER,m,,,,,,0.118518534,-0.158333343,0,0,0,,0,324,324,41,1,
,,,,,,,,,,,,,,,,,,5e36f37bbdc067675450705f,2020-08-10_18h10.18.389,lexical_decision_task_MP,2020.1.3,Win32,60,z,1,0.71394,,,,,,,,0.71394,1,,,,,,311,NW,UN,33,nerawl,SPROLY,z,,,,,,0.118518534,-0.158333343,0,0,0,,0,325,325,370,1,
,,,,,,,,,,,,,,,,,,5e36f37bbdc067675450705f,2020-08-10_18h10.18.389,lexical_decision_task_MP,2020.1.3,Win32,60,m,1,0.468835,,,,,,,,0.468835,1,,,,,,59,WORD,"ID",50,splint,SPLINT,m,,,,,,0.118518534,-0.158333343,0,0,0,,0,326,326,118,1,
,,,,,,,,,,,,,,,,,,5e36f37bbdc067675450705f,2020-08-10_18h10.18.389,lexical_decision_task_MP,2020.1.3,Win32,60,m,1,0.50159,,,,,,,,0.50159,1,,,,,,68,WORD,UN,33,plenty,FUMBLE,m,,,,,,0.118518534,-0.158333343,0,0,0,,0,327,327,127,1,
,,,,,,,,,,,,,,,,,,5e36f37bbdc067675450705f,2020-08-10_18h10.18.389,lexical_decision_task_MP,2020.1.3,Win32,60,z,1,0.55067,,,,,,,,0.55067,1,,,,,,455,NW,"ID",33,tondle,TONDLE,z,,,,,,0.118518534,-0.158333343,0,0,0,,0,328,328,274,1,
,,,,,,,,,,,,,,,,,,5e36f37bbdc067675450705f,2020-08-10_18h10.18.389,lexical_decision_task_MP,2020.1.3,Win32,60,m,1,0.615675,,,,,,,,0.615675,1,,,,,,21,WORD,"ID",50,simple,SIMPLE,m,,,,,,0.118518534,-0.158333343,0,0,0,,0,329,329,80,1,
,,,,,,,,,,,,,,,,,,5e36f37bbdc067675450705f,2020-08-10_18h10.18.389,lexical_decision_task_MP,2020.1.3,Win32,60,z,1,0.56361,,,,,,,,0.56361,1,,,,,,302,NW,UN,33,fiream,MILUER,z,,,,,,0.118518534,-0.158333343,0,0,0,,0,330,330,361,1,
,,,,,,,,,,,,,,,,,,5e36f37bbdc067675450705f,2020-08-10_18h10.18.389,lexical_decision_task_MP,2020.1.3,Win32,60,z,1,0.527925,,,,,,,,0.527925,1,,,,,,262,NW,"ID",50,quilew,QUILEW,z,,,,,,0.118518534,-0.158333343,0,0,0,,0,331,331,321,1,
,,,,,,,,,,,,,,,,,,5e36f37bbdc067675450705f,2020-08-10_18h10.18.389,lexical_decision_task_MP,2020.1.3,Win32,60,m,1,0.575235,,,,,,,,0.575235,1,,,,,,101,WORD,UN,33,direct,WRENCH,m,,,,,,0.118518534,-0.158333343,0,0,0,,0,332,332,160,1,
,,,,,,,,,,,,,,,,,,5e36f37bbdc067675450705f,2020-08-10_18h10.18.389,lexical_decision_task_MP,2020.1.3,Win32,60,z,1,0.570815,,,,,,,,0.570815,1,,,,,,437,NW,"ID",33,snapel,SNAPEL,z,,,,,,0.118518534,-0.158333343,0,0,0,,0,333,333,256,1,
,,,,,,,,,,,,,,,,,,5e36f37bbdc067675450705f,2020-08-10_18h10.18.389,lexical_decision_task_MP,2020.1.3,Win32,60,m,1,0.60119,,,,,,,,0.60119,1,,,,,,224,WORD,"ID",33,period,PERIOD,m,,,,,,0.118518534,-0.158333343,0,0,0,,0,334,334,43,1,
,,,,,,,,,,,,,,,,,,5e36f37bbdc067675450705f,2020-08-10_18h10.18.389,lexical_decision_task_MP,2020.1.3,Win32,60,z,1,0.567465,,,,,,,,0.567465,1,,,,,,452,NW,"ID",33,surden,SURDEN,z,,,,,,0.118518534,-0.158333343,0,0,0,,0,335,335,271,1,
,,,,,,,,,,,,,,,,,,5e36f37bbdc067675450705f,2020-08-10_18h10.18.389,lexical_decision_task_MP,2020.1.3,Win32,60,z,1,0.565345,,,,,,,,0.565345,1,,,,,,326,NW,UN,33,plenac,IGUADE,z,,,,,,0.118518534,-0.158333343,0,0,0,,0,336,336,385,1,
,,,,,,,,,,,,,,,,,,5e36f37bbdc067675450705f,2020-08-10_18h10.18.389,lexical_decision_task_MP,2020.1.3,Win32,60,z,1,0.448995,,,,,,,,0.448995,1,,,,,,394,NW,UN,50,colury,SPAQUX,z,,,,,,0.118518534,-0.158333343,0,0,0,,0,337,337,453,1,
,,,,,,,,,,,,,,,,,,5e36f37bbdc067675450705f,2020-08-10_18h10.18.389,lexical_decision_task_MP,2020.1.3,Win32,60,m,1,0.54444,,,,,,,,0.54444,1,,,,,,8,WORD,"ID",50,abrupt,ABRUPT,m,,,,,,0.118518534,-0.158333343,0,0,0,,0,338,338,67,1,
,,,,,,,,,,,,,,,,,,5e36f37bbdc067675450705f,2020-08-10_18h10.18.389,lexical_decision_task_MP,2020.1.3,Win32,60,z,1,0.670905,,,,,,,,0.670905,1,,,,,,327,NW,UN,33,broake,PLENAC,z,,,,,,0.118518534,-0.158333343,0,0,0,,0,339,339,386,1,
,,,,,,,,,,,,,,,,,,5e36f37bbdc067675450705f,2020-08-10_18h10.18.389,lexical_decision_task_MP,2020.1.3,Win32,60,z,1,0.564965,,,,,,,,0.564965,1,,,,,,480,NW,"ID",33,robuly,ROBULY,z,,,,,,0.118518534,-0.158333343,0,0,0,,0,340,340,299,1,
,,,,,,,,,,,,,,,,,,5e36f37bbdc067675450705f,2020-08-10_18h10.18.389,lexical_decision_task_MP,2020.1.3,Win32,60,m,0,0.87888,,,,,,,,0.87888,0,,,,,,338,NW,UN,33,fachow,WREASH,z,,,,,,0.118518534,-0.158333343,0,0,0,,0,341,341,397,1,
,,,,,,,,,,,,,,,,,,5e36f37bbdc067675450705f,2020-08-10_18h10.18.389,lexical_decision_task_MP,2020.1.3,Win32,60,z,1,0.469995,,,,,,,,0.469995,1,,,,,,274,NW,"ID",50,fumblo,FUMBLO,z,,,,,,0.118518534,-0.158333343,0,0,0,,0,342,342,333,1,
,,,,,,,,,,,,,,,,,,5e36f37bbdc067675450705f,2020-08-10_18h10.18.389,lexical_decision_task_MP,2020.1.3,Win32,60,z,1,0.51133,,,,,,,,0.51133,1,,,,,,423,NW,"ID",33,streld,STRELD,z,,,,,,0.118518534,-0.158333343,0,0,0,,0,343,343,242,1,
,,,,,,,,,,,,,,,,,,5e36f37bbdc067675450705f,2020-08-10_18h10.18.389,lexical_decision_task_MP,2020.1.3,Win32,60,m,1,0.698575,,,,,,,,0.698575,1,,,,,,93,WORD,UN,33,travel,PUBLIC,m,,,,,,0.118518534,-0.158333343,0,0,0,,0,344,344,152,1,
,,,,,,,,,,,,,,,,,,5e36f37bbdc067675450705f,2020-08-10_18h10.18.389,lexical_decision_task_MP,2020.1.3,Win32,60,m,1,0.47329,,,,,,,,0.47329,1,,,,,,23,WORD,"ID",50,wealth,WEALTH,m,,,,,,0.118518534,-0.158333343,0,0,0,,0,345,345,82,1,
,,,,,,,,,,,,,,,,,,5e36f37bbdc067675450705f,2020-08-10_18h10.18.389,lexical_decision_task_MP,2020.1.3,Win32,60,m,1,0.49279,,,,,,,,0.49279,1,,,,,,164,WORD,UN,50,invest,MARKET,m,,,,,,0.118518534,-0.158333343,0,0,0,,0,346,346,223,1,
,,,,,,,,,,,,,,,,,,5e36f37bbdc067675450705f,2020-08-10_18h10.18.389,lexical_decision_task_MP,2020.1.3,Win32,60,m,1,0.471305,,,,,,,,0.471305,1,,,,,,190,WORD,"ID",33,backup,BACKUP,m,,,,,,0.118518534,-0.158333343,0,0,0,,0,347,347,9,1,
,,,,,,,,,,,,,,,,,,5e36f37bbdc067675450705f,2020-08-10_18h10.18.389,lexical_decision_task_MP,2020.1.3,Win32,60,m,1,0.36605,,,,,,,,0.36605,1,,,,,,187,WORD,"ID",33,course,COURSE,m,,,,,,0.118518534,-0.158333343,0,0,0,,0,348,348,6,1,
,,,,,,,,,,,,,,,,,,5e36f37bbdc067675450705f,2020-08-10_18h10.18.389,lexical_decision_task_MP,2020.1.3,Win32,60,m,1,0.386465,,,,,,,,0.386465,1,,,,,,129,WORD,UN,50,stupid,MARVEL,m,,,,,,0.118518534,-0.158333343,0,0,0,,0,349,349,188,1,
,,,,,,,,,,,,,,,,,,5e36f37bbdc067675450705f,2020-08-10_18h10.18.389,lexical_decision_task_MP,2020.1.3,Win32,60,z,1,0.56575,,,,,,,,0.56575,1,,,,,,414,NW,UN,50,higsta,SERBOL,z,,,,,,0.118518534,-0.158333343,0,0,0,,0,350,350,473,1,
,,,,,,,,,,,,,,,,,,5e36f37bbdc067675450705f,2020-08-10_18h10.18.389,lexical_decision_task_MP,2020.1.3,Win32,60,z,1,0.466775,,,,,,,,0.466775,1,,,,,,477,NW,"ID",33,photie,PHOTIE,z,,,,,,0.118518534,-0.158333343,0,0,0,,0,351,351,296,1,
,,,,,,,,,,,,,,,,,,5e36f37bbdc067675450705f,2020-08-10_18h10.18.389,lexical_decision_task_MP,2020.1.3,Win32,60,m,1,0.54741,,,,,,,,0.54741,1,,,,,,194,WORD,"ID",33,absent,ABSENT,m,,,,,,0.118518534,-0.158333343,0,0,0,,0,352,352,13,1,
,,,,,,,,,,,,,,,,,,5e36f37bbdc067675450705f,2020-08-10_18h10.18.389,lexical_decision_task_MP,2020.1.3,Win32,60,z,1,0.574495,,,,,,,,0.574495,1,,,,,,358,NW,UN,33,fonver,FLEACK,z,,,,,,0.118518534,-0.158333343,0,0,0,,0,353,353,417,1,
,,,,,,,,,,,,,,,,,,5e36f37bbdc067675450705f,2020-08-10_18h10.18.389,lexical_decision_task_MP,2020.1.3,Win32,60,m,1,0.699705,,,,,,,,0.699705,1,,,,,,195,WORD,"ID",33,resign,RESIGN,m,,,,,,0.118518534,-0.158333343,0,0,0,,0,354,354,14,1,
,,,,,,,,,,,,,,,,,,5e36f37bbdc067675450705f,2020-08-10_18h10.18.389,lexical_decision_task_MP,2020.1.3,Win32,60,z,0,0.500575,,,,,,,,0.500575,0,,,,,,19,WORD,"ID",50,patron,PATRON,m,,,,,,0.118518534,-0.158333343,0,0,0,,0,355,355,78,1,
,,,,,,,,,,,,,,,,,,5e36f37bbdc067675450705f,2020-08-10_18h10.18.389,lexical_decision_task_MP,2020.1.3,Win32,60,m,1,0.70897,,,,,,,,0.70897,1,,,,,,98,WORD,UN,33,fluent,BELONG,m,,,,,,0.118518534,-0.158333343,0,0,0,,0,356,356,157,1,
,,,,,,,,,,,,,,,,,,5e36f37bbdc067675450705f,2020-08-10_18h10.18.389,lexical_decision_task_MP,2020.1.3,Win32,60,m,1,0.660615,,,,,,,,0.660615,1,,,,,,46,WORD,"ID",50,single,SINGLE,m,,,,,,0.118518534,-0.158333343,0,0,0,,0,357,357,105,1,
,,,,,,,,,,,,,,,,,,5e36f37bbdc067675450705f,2020-08-10_18h10.18.389,lexical_decision_task_MP,2020.1.3,Win32,60,z,1,1.047645,,,,,,,,1.047645,1,,,,,,314,NW,UN,33,laston,SPRINE,z,,,,,,0.118518534,-0.158333343,0,0,0,,0,358,358,373,1,
,,,,,,,,,,,,,,,,,,5e36f37bbdc067675450705f,2020-08-10_18h10.18.389,lexical_decision_task_MP,2020.1.3,Win32,60,z,0,0.769655,,,,,,,,0.769655,0,,,,,,145,WORD,UN,50,couple,PARISH,m,,,,,,0.118518534,-0.158333343,0,0,0,,0,359,359,204,1,
,,,,,,,,,,,,,,,,,,5e36f37bbdc067675450705f,2020-08-10_18h10.18.389,lexical_decision_task_MP,2020.1.3,Win32,60,m,1,1.03971,,,,,,,,1.03971,1,,,,,,80,WORD,UN,33,friend,FAMILY,m,,,,,,0.118518534,-0.158333343,0,0,0,,0,360,360,139,1,
,,,,,,,,,,,,,,,,,,5e36f37bbdc067675450705f,2020-08-10_18h10.18.389,lexical_decision_task_MP,2020.1.3,Win32,60,z,1,0.695165,,,,,,,,0.695165,1,,,,,,374,NW,UN,50,yorque,SLIANT,z,,,,,,0.118518534,-0.158333343,0,0,0,,0,361,361,433,1,
,,,,,,,,,,,,,,,,,,5e36f37bbdc067675450705f,2020-08-10_18h10.18.389,lexical_decision_task_MP,2020.1.3,Win32,60,m,1,0.517415,,,,,,,,0.517415,1,,,,,,160,WORD,UN,50,pastor,VIOLET,m,,,,,,0.118518534,-0.158333343,0,0,0,space,0,362,362,219,1,72.68876
,,,,,,,,,,,,,,,,,,5e36f37bbdc067675450705f,2020-08-10_18h10.18.389,lexical_decision_task_MP,2020.1.3,Win32,60,z,1,0.91877,,,,,,,,0.91877,1,,,,,,300,NW,"ID",50,yarion,YARION,z,,,,,,0.118518534,-0.158333343,0,0,0,,0,363,363,359,1,
,,,,,,,,,,,,,,,,,,5e36f37bbdc067675450705f,2020-08-10_18h10.18.389,lexical_decision_task_MP,2020.1.3,Win32,60,z,1,0.4321,,,,,,,,0.4321,1,,,,,,443,NW,"ID",33,dorsex,DORSEX,z,,,,,,0.118518534,-0.158333343,0,0,0,,0,364,364,262,1,
,,,,,,,,,,,,,,,,,,5e36f37bbdc067675450705f,2020-08-10_18h10.18.389,lexical_decision_task_MP,2020.1.3,Win32,60,z,0,0.446155,,,,,,,,0.446155,0,,,,,,183,WORD,"ID",33,mildew,MILDEW,m,,,,,,0.118518534,-0.158333343,0,0,0,,0,365,365,2,1,
,,,,,,,,,,,,,,,,,,5e36f37bbdc067675450705f,2020-08-10_18h10.18.389,lexical_decision_task_MP,2020.1.3,Win32,60,z,1,0.579935,,,,,,,,0.579935,1,,,,,,252,NW,"ID",50,stapod,STAPOD,z,,,,,,0.118518534,-0.158333343,0,0,0,,0,366,366,311,1,
,,,,,,,,,,,,,,,,,,5e36f37bbdc067675450705f,2020-08-10_18h10.18.389,lexical_decision_task_MP,2020.1.3,Win32,60,m,1,0.46752,,,,,,,,0.46752,1,,,,,,43,WORD,"ID",50,tongue,TONGUE,m,,,,,,0.118518534,-0.158333343,0,0,0,,0,367,367,102,1,
,,,,,,,,,,,,,,,,,,5e36f37bbdc067675450705f,2020-08-10_18h10.18.389,lexical_decision_task_MP,2020.1.3,Win32,60,m,1,0.46602,,,,,,,,0.46602,1,,,,,,158,WORD,UN,50,detail,ISLAND,m,,,,,,0.118518534,-0.158333343,0,0,0,,0,368,368,217,1,
,,,,,,,,,,,,,,,,,,5e36f37bbdc067675450705f,2020-08-10_18h10.18.389,lexical_decision_task_MP,2020.1.3,Win32,60,m,1,0.37209,,,,,,,,0.37209,1,,,,,,71,WORD,UN,33,bright,GARDEN,m,,,,,,0.118518534,-0.158333343,0,0,0,,0,369,369,130,1,
,,,,,,,,,,,,,,,,,,5e36f37bbdc067675450705f,2020-08-10_18h10.18.389,lexical_decision_task_MP,2020.1.3,Win32,60,m,1,0.60494,,,,,,,,0.60494,1,,,,,,225,WORD,"ID",33,vulgar,VULGAR,m,,,,,,0.118518534,-0.158333343,0,0,0,,0,370,370,44,1,
,,,,,,,,,,,,,,,,,,5e36f37bbdc067675450705f,2020-08-10_18h10.18.389,lexical_decision_task_MP,2020.1.3,Win32,60,z,1,0.51649,,,,,,,,0.51649,1,,,,,,354,NW,UN,33,zingly,VIRLEX,z,,,,,,0.118518534,-0.158333343,0,0,0,,0,371,371,413,1,
,,,,,,,,,,,,,,,,,,5e36f37bbdc067675450705f,2020-08-10_18h10.18.389,lexical_decision_task_MP,2020.1.3,Win32,60,z,1,0.499585,,,,,,,,0.499585,1,,,,,,288,NW,"ID",50,yaceup,YACEUP,z,,,,,,0.118518534,-0.158333343,0,0,0,,0,372,372,347,1,
,,,,,,,,,,,,,,,,,,5e36f37bbdc067675450705f,2020-08-10_18h10.18.389,lexical_decision_task_MP,2020.1.3,Win32,60,m,0,0.57263,,,,,,,,0.57263,0,,,,,,322,NW,UN,33,rosail,SLANCH,z,,,,,,0.118518534,-0.158333343,0,0,0,,0,373,373,381,1,
,,,,,,,,,,,,,,,,,,5e36f37bbdc067675450705f,2020-08-10_18h10.18.389,lexical_decision_task_MP,2020.1.3,Win32,60,m,1,0.633425,,,,,,,,0.633425,1,,,,,,24,WORD,"ID",50,praise,PRAISE,m,,,,,,0.118518534,-0.158333343,0,0,0,,0,374,374,83,1,
,,,,,,,,,,,,,,,,,,5e36f37bbdc067675450705f,2020-08-10_18h10.18.389,lexical_decision_task_MP,2020.1.3,Win32,60,z,1,0.53453,,,,,,,,0.53453,1,,,,,,479,NW,"ID",33,lobush,LOBUSH,z,,,,,,0.118518534,-0.158333343,0,0,0,,0,375,375,298,1,
,,,,,,,,,,,,,,,,,,5e36f37bbdc067675450705f,2020-08-10_18h10.18.389,lexical_decision_task_MP,2020.1.3,Win32,60,z,0,0.485395,,,,,,,,0.485395,0,,,,,,227,WORD,"ID",33,seldom,SELDOM,m,,,,,,0.118518534,-0.158333343,0,0,0,,0,376,376,46,1,
,,,,,,,,,,,,,,,,,,5e36f37bbdc067675450705f,2020-08-10_18h10.18.389,lexical_decision_task_MP,2020.1.3,Win32,60,m,1,0.614995,,,,,,,,0.614995,1,,,,,,58,WORD,"ID",50,foster,FOSTER,m,,,,,,0.118518534,-0.158333343,0,0,0,,0,377,377,117,1,
,,,,,,,,,,,,,,,,,,5e36f37bbdc067675450705f,2020-08-10_18h10.18.389,lexical_decision_task_MP,2020.1.3,Win32,60,m,1,0.449965,,,,,,,,0.449965,1,,,,,,118,WORD,UN,33,spider,FLIGHT,m,,,,,,0.118518534,-0.158333343,0,0,0,,0,378,378,177,1,
,,,,,,,,,,,,,,,,,,5e36f37bbdc067675450705f,2020-08-10_18h10.18.389,lexical_decision_task_MP,2020.1.3,Win32,60,m,1,0.46477,,,,,,,,0.46477,1,,,,,,56,WORD,"ID",50,ambush,AMBUSH,m,,,,,,0.118518534,-0.158333343,0,0,0,,0,379,379,115,1,
,,,,,,,,,,,,,,,,,,5e36f37bbdc067675450705f,2020-08-10_18h10.18.389,lexical_decision_task_MP,2020.1.3,Win32,60,m,1,0.488235,,,,,,,,0.488235,1,,,,,,4,WORD,"ID",50,trench,TRENCH,m,,,,,,0.118518534,-0.158333343,0,0,0,,0,380,380,63,1,
,,,,,,,,,,,,,,,,,,5e36f37bbdc067675450705f,2020-08-10_18h10.18.389,lexical_decision_task_MP,2020.1.3,Win32,60,z,1,0.501575,,,,,,,,0.501575,1,,,,,,275,NW,"ID",50,sleirt,SLEIRT,z,,,,,,0.118518534,-0.158333343,0,0,0,,0,381,381,334,1,
,,,,,,,,,,,,,,,,,,5e36f37bbdc067675450705f,2020-08-10_18h10.18.389,lexical_decision_task_MP,2020.1.3,Win32,60,z,1,0.421705,,,,,,,,0.421705,1,,,,,,330,NW,UN,33,gilfew,KENSOM,z,,,,,,0.118518534,-0.158333343,0,0,0,,0,382,382,389,1,
,,,,,,,,,,,,,,,,,,5e36f37bbdc067675450705f,2020-08-10_18h10.18.389,lexical_decision_task_MP,2020.1.3,Win32,60,m,1,0.533845,,,,,,,,0.533845,1,,,,,,37,WORD,"ID",50,insult,INSULT,m,,,,,,0.118518534,-0.158333343,0,0,0,,0,383,383,96,1,
,,,,,,,,,,,,,,,,,,5e36f37bbdc067675450705f,2020-08-10_18h10.18.389,lexical_decision_task_MP,2020.1.3,Win32,60,z,1,0.468,,,,,,,,0.468,1,,,,,,476,NW,"ID",33,josted,JOSTED,z,,,,,,0.118518534,-0.158333343,0,0,0,,0,384,384,295,1,
,,,,,,,,,,,,,,,,,,5e36f37bbdc067675450705f,2020-08-10_18h10.18.389,lexical_decision_task_MP,2020.1.3,Win32,60,m,1,0.6649,,,,,,,,0.6649,1,,,,,,172,WORD,UN,50,shower,PATROL,m,,,,,,0.118518534,-0.158333343,0,0,0,,0,385,385,231,1,
,,,,,,,,,,,,,,,,,,5e36f37bbdc067675450705f,2020-08-10_18h10.18.389,lexical_decision_task_MP,2020.1.3,Win32,60,z,0,0.515585,,,,,,,,0.515585,0,,,,,,16,WORD,"ID",50,faucet,FAUCET,m,,,,,,0.118518534,-0.158333343,0,0,0,,0,386,386,75,1,
,,,,,,,,,,,,,,,,,,5e36f37bbdc067675450705f,2020-08-10_18h10.18.389,lexical_decision_task_MP,2020.1.3,Win32,60,z,1,0.86727,,,,,,,,0.86727,1,,,,,,433,NW,"ID",33,drance,DRANCE,z,,,,,,0.118518534,-0.158333343,0,0,0,,0,387,387,252,1,
,,,,,,,,,,,,,,,,,,5e36f37bbdc067675450705f,2020-08-10_18h10.18.389,lexical_decision_task_MP,2020.1.3,Win32,60,m,1,0.502465,,,,,,,,0.502465,1,,,,,,146,WORD,UN,50,garlic,COUPLE,m,,,,,,0.118518534,-0.158333343,0,0,0,,0,388,388,205,1,
,,,,,,,,,,,,,,,,,,5e36f37bbdc067675450705f,2020-08-10_18h10.18.389,lexical_decision_task_MP,2020.1.3,Win32,60,m,0,0.743015,,,,,,,,0.743015,0,,,,,,259,NW,"ID",50,soudal,SOUDAL,z,,,,,,0.118518534,-0.158333343,0,0,0,,0,389,389,318,1,
,,,,,,,,,,,,,,,,,,5e36f37bbdc067675450705f,2020-08-10_18h10.18.389,lexical_decision_task_MP,2020.1.3,Win32,60,m,1,0.467335,,,,,,,,0.467335,1,,,,,,75,WORD,UN,33,exotic,TROPHY,m,,,,,,0.118518534,-0.158333343,0,0,0,,0,390,390,134,1,
,,,,,,,,,,,,,,,,,,5e36f37bbdc067675450705f,2020-08-10_18h10.18.389,lexical_decision_task_MP,2020.1.3,Win32,60,z,0,0.88163,,,,,,,,0.88163,0,,,,,,186,WORD,"ID",33,portal,PORTAL,m,,,,,,0.118518534,-0.158333343,0,0,0,,0,391,391,5,1,
,,,,,,,,,,,,,,,,,,5e36f37bbdc067675450705f,2020-08-10_18h10.18.389,lexical_decision_task_MP,2020.1.3,Win32,60,z,1,0.686315,,,,,,,,0.686315,1,,,,,,303,NW,UN,33,cludie,FIREAM,z,,,,,,0.118518534,-0.158333343,0,0,0,,0,392,392,362,1,
,,,,,,,,,,,,,,,,,,5e36f37bbdc067675450705f,2020-08-10_18h10.18.389,lexical_decision_task_MP,2020.1.3,Win32,60,m,1,0.863905,,,,,,,,0.863905,1,,,,,,120,WORD,UN,33,ponder,STRAIN,m,,,,,,0.118518534,-0.158333343,0,0,0,,0,393,393,179,1,
,,,,,,,,,,,,,,,,,,5e36f37bbdc067675450705f,2020-08-10_18h10.18.389,lexical_decision_task_MP,2020.1.3,Win32,60,m,1,0.71421,,,,,,,,0.71421,1,,,,,,197,WORD,"ID",33,stream,STREAM,m,,,,,,0.118518534,-0.158333343,0,0,0,,0,394,394,16,1,
,,,,,,,,,,,,,,,,,,5e36f37bbdc067675450705f,2020-08-10_18h10.18.389,lexical_decision_task_MP,2020.1.3,Win32,60,m,1,0.58227,,,,,,,,0.58227,1,,,,,,169,WORD,UN,50,pounce,GENIUS,m,,,,,,0.118518534,-0.158333343,0,0,0,,0,395,395,228,1,
,,,,,,,,,,,,,,,,,,5e36f37bbdc067675450705f,2020-08-10_18h10.18.389,lexical_decision_task_MP,2020.1.3,Win32,60,z,1,0.599185,,,,,,,,0.599185,1,,,,,,347,NW,UN,33,dumple,KERIFT,z,,,,,,0.118518534,-0.158333343,0,0,0,,0,396,396,406,1,
,,,,,,,,,,,,,,,,,,5e36f37bbdc067675450705f,2020-08-10_18h10.18.389,lexical_decision_task_MP,2020.1.3,Win32,60,z,1,0.73587,,,,,,,,0.73587,1,,,,,,411,NW,UN,50,jiluer,ORCHIN,z,,,,,,0.118518534,-0.158333343,0,0,0,,0,397,397,470,1,
,,,,,,,,,,,,,,,,,,5e36f37bbdc067675450705f,2020-08-10_18h10.18.389,lexical_decision_task_MP,2020.1.3,Win32,60,z,1,0.501605,,,,,,,,0.501605,1,,,,,,478,NW,"ID",33,acrise,ACRISE,z,,,,,,0.118518534,-0.158333343,0,0,0,,0,398,398,297,1,
,,,,,,,,,,,,,,,,,,5e36f37bbdc067675450705f,2020-08-10_18h10.18.389,lexical_decision_task_MP,2020.1.3,Win32,60,z,1,0.56213,,,,,,,,0.56213,1,,,,,,313,NW,UN,33,sprine,PAURSE,z,,,,,,0.118518534,-0.158333343,0,0,0,,0,399,399,372,1,
,,,,,,,,,,,,,,,,,,5e36f37bbdc067675450705f,2020-08-10_18h10.18.389,lexical_decision_task_MP,2020.1.3,Win32,60,z,1,0.602315,,,,,,,,0.602315,1,,,,,,370,NW,UN,50,geiloy,SLEACT,z,,,,,,0.118518534,-0.158333343,0,0,0,,0,400,400,429,1,
,,,,,,,,,,,,,,,,,,5e36f37bbdc067675450705f,2020-08-10_18h10.18.389,lexical_decision_task_MP,2020.1.3,Win32,60,m,1,0.61503,,,,,,,,0.61503,1,,,,,,167,WORD,UN,50,answer,DESIGN,m,,,,,,0.118518534,-0.158333343,0,0,0,,0,401,401,226,1,
,,,,,,,,,,,,,,,,,,5e36f37bbdc067675450705f,2020-08-10_18h10.18.389,lexical_decision_task_MP,2020.1.3,Win32,60,m,1,0.50137,,,,,,,,0.50137,1,,,,,,220,WORD,"ID",33,voyage,VOYAGE,m,,,,,,0.118518534,-0.158333343,0,0,0,,0,402,402,39,1,
,,,,,,,,,,,,,,,,,,5e36f37bbdc067675450705f,2020-08-10_18h10.18.389,lexical_decision_task_MP,2020.1.3,Win32,60,m,1,0.45371,,,,,,,,0.45371,1,,,,,,236,WORD,"ID",33,pirate,PIRATE,m,,,,,,0.118518534,-0.158333343,0,0,0,,0,403,403,55,1,
,,,,,,,,,,,,,,,,,,5e36f37bbdc067675450705f,2020-08-10_18h10.18.389,lexical_decision_task_MP,2020.1.3,Win32,60,z,1,1.197815,,,,,,,,1.197815,1,,,,,,268,NW,"ID",50,packes,PACKES,z,,,,,,0.118518534,-0.158333343,0,0,0,,0,404,404,327,1,
