counterbalancing_condition,instr_done_keyboard.keys,instr_done_touch.x,instr_done_touch.y,instr_done_touch.leftButton,instr_done_touch.midButton,instr_done_touch.rightButton,instr_done_touch.clicked_name,instruction_pages.thisRepN,instruction_pages.thisTrialN,instruction_pages.thisN,instruction_pages.thisIndex,instruction_pages.ran,pageN,phase,instruct_text,has_image,instruct_image,participant,date,expName,psychopyVersion,OS,frameRate,instr_done_keyboard.rt,response.keys,response.corr,response.rt,touch_resp.x,touch_resp.y,touch_resp.leftButton,touch_resp.midButton,touch_resp.rightButton,touch_resp.time,touch_resp.clicked_name,rt,corr,practice_trials.thisRepN,practice_trials.thisTrialN,practice_trials.thisN,practice_trials.thisIndex,practice_trials.ran,TrialID,StimulusType,Condition,PrimeDuration,Prime,Target,corrAns,end_of_practice_trials_pages.thisRepN,end_of_practice_trials_pages.thisTrialN,end_of_practice_trials_pages.thisN,end_of_practice_trials_pages.thisIndex,end_of_practice_trials_pages.ran,break_done_touch.x,break_done_touch.y,break_done_touch.leftButton,break_done_touch.midButton,break_done_touch.rightButton,break_done_keyboard.keys,trials.thisRepN,trials.thisTrialN,trials.thisN,trials.thisIndex,trials.ran,break_done_keyboard.rt
2,,0.100925941,-0.39629631,1,0,0,instr_done_button,0,0,0,0,1,1,instructions,"INSTRUCTIONS
At the start of each trial, look at the hash marks (######) in the center of the screen. After a moment, a string of letters will appear. Your task is to indicate if the letter string forms a word or not (i.e., if it is a nonword). For example, AUTHOR is a word while AUTHON is a nonword.

Press the space bar or touch the button below to continue.",0,,5e3d8f6b6b1c15033ce417f4,2020-08-10_12h46.10.731,lexical_decision_task_MP,2020.1.3,Win32,60,,,,,,,,,,,,,,,,,,,,,,,,,,,,,,,,,,,,,,,,,,
,space,0.350000018,-0.382407421,0,0,0,,0,1,1,1,1,2,instructions,"If your device has a keyboard, press the 'Z' key for nonwords and the 'M' key for words.





Press the space bar or touch the button below to continue.",1,keyboard-example.gif,5e3d8f6b6b1c15033ce417f4,2020-08-10_12h46.10.731,lexical_decision_task_MP,2020.1.3,Win32,60,9.162375,,,,,,,,,,,,,,,,,,,,,,,,,,,,,,,,,,,,,,,,,
,space,0.350000018,-0.382407421,0,0,0,,0,2,2,2,1,3,instructions,"If you are using a touchscreen only device, use the buttons on the screen. Do not use the mouse.





Press the space bar or touch the button below to continue.",1,touchscreen-example.gif,5e3d8f6b6b1c15033ce417f4,2020-08-10_12h46.10.731,lexical_decision_task_MP,2020.1.3,Win32,60,2.18729,,,,,,,,,,,,,,,,,,,,,,,,,,,,,,,,,,,,,,,,,
,space,0.350000018,-0.382407421,0,0,0,,0,3,3,3,1,4,instructions,"It is very important that you respond as quickly and accurately as possible, as each letter string will only be on the screen for two seconds. If you do not respond within this time, the message 'Too slow!' will be displayed and the experiment will progress to the next letter string. The first 20 trials will be practice trials and you will receive feedback on your answers. 

Press the space bar or touch the button below to start the practice trials.",0,,5e3d8f6b6b1c15033ce417f4,2020-08-10_12h46.10.731,lexical_decision_task_MP,2020.1.3,Win32,60,4.1992,,,,,,,,,,,,,,,,,,,,,,,,,,,,,,,,,,,,,,,,,
,,,,,,,,,,,,,,,,,,5e3d8f6b6b1c15033ce417f4,2020-08-10_12h46.10.731,lexical_decision_task_MP,2020.1.3,Win32,60,,m,1,0.54593,,,,,,,,0.54593,1,0,0,0,7,1,1008,WORD,UN,50,hurdle,VOLUME,m,,,,,,,,,,,,,,,,,
,,,,,,,,,,,,,,,,,,5e3d8f6b6b1c15033ce417f4,2020-08-10_12h46.10.731,lexical_decision_task_MP,2020.1.3,Win32,60,,z,1,0.755525,,,,,,,,0.755525,1,0,1,1,12,1,1013,NW,UN,33,adveil,SPRINY,z,,,,,,,,,,,,,,,,,
,,,,,,,,,,,,,,,,,,5e3d8f6b6b1c15033ce417f4,2020-08-10_12h46.10.731,lexical_decision_task_MP,2020.1.3,Win32,60,,m,0,0.455015,,,,,,,,0.455015,0,0,2,2,13,1,1014,NW,UN,33,winfer,ROUPET,z,,,,,,,,,,,,,,,,,
,,,,,,,,,,,,,,,,,,5e3d8f6b6b1c15033ce417f4,2020-08-10_12h46.10.731,lexical_decision_task_MP,2020.1.3,Win32,60,,m,1,0.470645,,,,,,,,0.470645,1,0,3,3,1,1,1002,WORD,"ID",33,adjust,ADJUST,m,,,,,,,,,,,,,,,,,
,,,,,,,,,,,,,,,,,,5e3d8f6b6b1c15033ce417f4,2020-08-10_12h46.10.731,lexical_decision_task_MP,2020.1.3,Win32,60,,z,1,0.653175,,,,,,,,0.653175,1,0,4,4,15,1,1016,NW,UN,50,mushed,WHAISE,z,,,,,,,,,,,,,,,,,
,,,,,,,,,,,,,,,,,,5e3d8f6b6b1c15033ce417f4,2020-08-10_12h46.10.731,lexical_decision_task_MP,2020.1.3,Win32,60,,m,0,0.787985,,,,,,,,0.787985,0,0,5,5,14,1,1015,NW,UN,50,miaber,THRALE,z,,,,,,,,,,,,,,,,,
,,,,,,,,,,,,,,,,,,5e3d8f6b6b1c15033ce417f4,2020-08-10_12h46.10.731,lexical_decision_task_MP,2020.1.3,Win32,60,,m,1,0.53963,,,,,,,,0.53963,1,0,6,6,3,1,1004,WORD,"ID",50,matrix,MATRIX,m,,,,,,,,,,,,,,,,,
,,,,,,,,,,,,,,,,,,5e3d8f6b6b1c15033ce417f4,2020-08-10_12h46.10.731,lexical_decision_task_MP,2020.1.3,Win32,60,,m,1,1.417825,,,,,,,,1.417825,1,0,7,7,6,1,1007,WORD,UN,50,tropic,ZOMBIE,m,,,,,,,,,,,,,,,,,
,,,,,,,,,,,,,,,,,,5e3d8f6b6b1c15033ce417f4,2020-08-10_12h46.10.731,lexical_decision_task_MP,2020.1.3,Win32,60,,m,1,0.55206,,,,,,,,0.55206,1,0,8,8,5,1,1006,WORD,UN,33,frenzy,OBTAIN,m,,,,,,,,,,,,,,,,,
,,,,,,,,,,,,,,,,,,5e3d8f6b6b1c15033ce417f4,2020-08-10_12h46.10.731,lexical_decision_task_MP,2020.1.3,Win32,60,,m,1,0.48193,,,,,,,,0.48193,1,0,9,9,2,1,1003,WORD,"ID",50,almond,ALMOND,m,,,,,,,,,,,,,,,,,
,,,,,,,,,,,,,,,,,,5e3d8f6b6b1c15033ce417f4,2020-08-10_12h46.10.731,lexical_decision_task_MP,2020.1.3,Win32,60,,z,1,0.544045,,,,,,,,0.544045,1,0,10,10,8,1,1009,NW,"ID",33,aslert,ASLERT,z,,,,,,,,,,,,,,,,,
,,,,,,,,,,,,,,,,,,5e3d8f6b6b1c15033ce417f4,2020-08-10_12h46.10.731,lexical_decision_task_MP,2020.1.3,Win32,60,,z,1,0.598675,,,,,,,,0.598675,1,0,11,11,11,1,1012,NW,"ID",50,rashet,RASHET,z,,,,,,,,,,,,,,,,,
,,,,,,,,,,,,,,,,,,5e3d8f6b6b1c15033ce417f4,2020-08-10_12h46.10.731,lexical_decision_task_MP,2020.1.3,Win32,60,,m,1,0.48699,,,,,,,,0.48699,1,0,12,12,0,1,1001,WORD,"ID",33,utopia,UTOPIA,m,,,,,,,,,,,,,,,,,
,,,,,,,,,,,,,,,,,,5e3d8f6b6b1c15033ce417f4,2020-08-10_12h46.10.731,lexical_decision_task_MP,2020.1.3,Win32,60,,z,1,0.47967,,,,,,,,0.47967,1,0,13,13,9,1,1010,NW,"ID",33,fariny,FARINY,z,,,,,,,,,,,,,,,,,
,,,,,,,,,,,,,,,,,,5e3d8f6b6b1c15033ce417f4,2020-08-10_12h46.10.731,lexical_decision_task_MP,2020.1.3,Win32,60,,z,1,0.608075,,,,,,,,0.608075,1,0,14,14,10,1,1011,NW,"ID",50,inlade,INLADE,z,,,,,,,,,,,,,,,,,
,,,,,,,,,,,,,,,,,,5e3d8f6b6b1c15033ce417f4,2020-08-10_12h46.10.731,lexical_decision_task_MP,2020.1.3,Win32,60,,z,0,0.4911,,,,,,,,0.4911,0,0,15,15,4,1,1005,WORD,UN,33,abound,SQUEAK,m,,,,,,,,,,,,,,,,,
,,-0.022222209,-0.388888902,1,0,0,instr_done_button,,,,,,1,end_of_practice,"You have completed the practice trials. During the experimental trials, you will not receive feedback, but it is very important that you respond as quickly and accurately as possible. 
Before you begin, please ensure that you are in a comfortable and quiet location and will not be disturbed for about 15 minutes, as we cannot use your data if you do not complete all the trials. 
There will be opportunities to take breaks at regular intervals during the experiment. When you are ready to start the experimental trials, please press space or touch the button below.",,,5e3d8f6b6b1c15033ce417f4,2020-08-10_12h46.10.731,lexical_decision_task_MP,2020.1.3,Win32,60,,,,,,,,,,,,,,,,,,,,,,,,,,0,0,0,0,1,,,,,,,,,,,,
,,,,,,,,,,,,,,,,,,5e3d8f6b6b1c15033ce417f4,2020-08-10_12h46.10.731,lexical_decision_task_MP,2020.1.3,Win32,60,,m,1,0.849345,,,,,,,,0.849345,1,,,,,,178,WORD,"ID",50,inform,INFORM,m,,,,,,0.653703727,-0.261111179,0,0,0,,0,0,0,117,1,
,,,,,,,,,,,,,,,,,,5e3d8f6b6b1c15033ce417f4,2020-08-10_12h46.10.731,lexical_decision_task_MP,2020.1.3,Win32,60,,z,1,0.696755,,,,,,,,0.696755,1,,,,,,413,NW,"ID",50,equats,EQUATS,z,,,,,,0.653703727,-0.261111179,0,0,0,,0,1,1,352,1,
,,,,,,,,,,,,,,,,,,5e3d8f6b6b1c15033ce417f4,2020-08-10_12h46.10.731,lexical_decision_task_MP,2020.1.3,Win32,60,,z,1,0.60959,,,,,,,,0.60959,1,,,,,,313,NW,"ID",33,paurse,PAURSE,z,,,,,,0.653703727,-0.261111179,0,0,0,,0,2,2,252,1,
,,,,,,,,,,,,,,,,,,5e3d8f6b6b1c15033ce417f4,2020-08-10_12h46.10.731,lexical_decision_task_MP,2020.1.3,Win32,60,,m,1,0.592515,,,,,,,,0.592515,1,,,,,,37,WORD,UN,50,powder,INSULT,m,,,,,,0.653703727,-0.261111179,0,0,0,,0,3,3,216,1,
,,,,,,,,,,,,,,,,,,5e3d8f6b6b1c15033ce417f4,2020-08-10_12h46.10.731,lexical_decision_task_MP,2020.1.3,Win32,60,,z,1,0.58812,,,,,,,,0.58812,1,,,,,,477,NW,UN,33,lobush,PHOTIE,z,,,,,,0.653703727,-0.261111179,0,0,0,,0,4,4,416,1,
,,,,,,,,,,,,,,,,,,5e3d8f6b6b1c15033ce417f4,2020-08-10_12h46.10.731,lexical_decision_task_MP,2020.1.3,Win32,60,,z,1,0.7094,,,,,,,,0.7094,1,,,,,,388,NW,"ID",50,cragin,CRAGIN,z,,,,,,0.653703727,-0.261111179,0,0,0,,0,5,5,327,1,
,,,,,,,,,,,,,,,,,,5e3d8f6b6b1c15033ce417f4,2020-08-10_12h46.10.731,lexical_decision_task_MP,2020.1.3,Win32,60,,z,1,0.6262,,,,,,,,0.6262,1,,,,,,415,NW,"ID",50,higsta,HIGSTA,z,,,,,,0.653703727,-0.261111179,0,0,0,,0,6,6,354,1,
,,,,,,,,,,,,,,,,,,5e3d8f6b6b1c15033ce417f4,2020-08-10_12h46.10.731,lexical_decision_task_MP,2020.1.3,Win32,60,,z,1,0.57926,,,,,,,,0.57926,1,,,,,,351,NW,"ID",33,tiesch,TIESCH,z,,,,,,0.653703727,-0.261111179,0,0,0,,0,7,7,290,1,
,,,,,,,,,,,,,,,,,,5e3d8f6b6b1c15033ce417f4,2020-08-10_12h46.10.731,lexical_decision_task_MP,2020.1.3,Win32,60,,z,1,0.82925,,,,,,,,0.82925,1,,,,,,389,NW,"ID",50,witmer,WITMER,z,,,,,,0.653703727,-0.261111179,0,0,0,,0,8,8,328,1,
,,,,,,,,,,,,,,,,,,5e3d8f6b6b1c15033ce417f4,2020-08-10_12h46.10.731,lexical_decision_task_MP,2020.1.3,Win32,60,,m,1,0.48173,,,,,,,,0.48173,1,,,,,,85,WORD,"ID",33,sprawl,SPRAWL,m,,,,,,0.653703727,-0.261111179,0,0,0,,0,9,9,24,1,
,,,,,,,,,,,,,,,,,,5e3d8f6b6b1c15033ce417f4,2020-08-10_12h46.10.731,lexical_decision_task_MP,2020.1.3,Win32,60,,m,1,0.586265,,,,,,,,0.586265,1,,,,,,9,WORD,UN,50,bridge,HUSTLE,m,,,,,,0.653703727,-0.261111179,0,0,0,,0,10,10,188,1,
,,,,,,,,,,,,,,,,,,5e3d8f6b6b1c15033ce417f4,2020-08-10_12h46.10.731,lexical_decision_task_MP,2020.1.3,Win32,60,,z,1,0.61259,,,,,,,,0.61259,1,,,,,,440,NW,UN,33,rastoe,SARIDE,z,,,,,,0.653703727,-0.261111179,0,0,0,,0,11,11,379,1,
,,,,,,,,,,,,,,,,,,5e3d8f6b6b1c15033ce417f4,2020-08-10_12h46.10.731,lexical_decision_task_MP,2020.1.3,Win32,60,,z,1,0.6587,,,,,,,,0.6587,1,,,,,,363,NW,"ID",50,breali,BREALI,z,,,,,,0.653703727,-0.261111179,0,0,0,,0,12,12,302,1,
,,,,,,,,,,,,,,,,,,5e3d8f6b6b1c15033ce417f4,2020-08-10_12h46.10.731,lexical_decision_task_MP,2020.1.3,Win32,60,,z,1,0.656465,,,,,,,,0.656465,1,,,,,,365,NW,"ID",50,guairt,GUAIRT,z,,,,,,0.653703727,-0.261111179,0,0,0,,0,13,13,304,1,
,,,,,,,,,,,,,,,,,,5e3d8f6b6b1c15033ce417f4,2020-08-10_12h46.10.731,lexical_decision_task_MP,2020.1.3,Win32,60,,z,1,0.54145,,,,,,,,0.54145,1,,,,,,302,NW,"ID",33,miluer,MILUER,z,,,,,,0.653703727,-0.261111179,0,0,0,,0,14,14,241,1,
,,,,,,,,,,,,,,,,,,5e3d8f6b6b1c15033ce417f4,2020-08-10_12h46.10.731,lexical_decision_task_MP,2020.1.3,Win32,60,,m,1,0.551185,,,,,,,,0.551185,1,,,,,,221,WORD,UN,33,hinder,MASCOT,m,,,,,,0.653703727,-0.261111179,0,0,0,,0,15,15,160,1,
,,,,,,,,,,,,,,,,,,5e3d8f6b6b1c15033ce417f4,2020-08-10_12h46.10.731,lexical_decision_task_MP,2020.1.3,Win32,60,,m,1,0.62892,,,,,,,,0.62892,1,,,,,,176,WORD,"ID",50,strife,STRIFE,m,,,,,,0.653703727,-0.261111179,0,0,0,,0,16,16,115,1,
,,,,,,,,,,,,,,,,,,5e3d8f6b6b1c15033ce417f4,2020-08-10_12h46.10.731,lexical_decision_task_MP,2020.1.3,Win32,60,,m,1,0.52234,,,,,,,,0.52234,1,,,,,,226,WORD,UN,33,flower,CASINO,m,,,,,,0.653703727,-0.261111179,0,0,0,,0,17,17,165,1,
,,,,,,,,,,,,,,,,,,5e3d8f6b6b1c15033ce417f4,2020-08-10_12h46.10.731,lexical_decision_task_MP,2020.1.3,Win32,60,,m,1,0.50211,,,,,,,,0.50211,1,,,,,,151,WORD,"ID",50,mystic,MYSTIC,m,,,,,,0.653703727,-0.261111179,0,0,0,,0,18,18,90,1,
,,,,,,,,,,,,,,,,,,5e3d8f6b6b1c15033ce417f4,2020-08-10_12h46.10.731,lexical_decision_task_MP,2020.1.3,Win32,60,,z,1,0.584635,,,,,,,,0.584635,1,,,,,,273,NW,UN,50,fumblo,SORTEL,z,,,,,,0.653703727,-0.261111179,0,0,0,,0,19,19,452,1,
,,,,,,,,,,,,,,,,,,5e3d8f6b6b1c15033ce417f4,2020-08-10_12h46.10.731,lexical_decision_task_MP,2020.1.3,Win32,60,,z,1,0.70478,,,,,,,,0.70478,1,,,,,,269,NW,UN,50,wrimsy,ORCHET,z,,,,,,0.653703727,-0.261111179,0,0,0,,0,20,20,448,1,
,,,,,,,,,,,,,,,,,,5e3d8f6b6b1c15033ce417f4,2020-08-10_12h46.10.731,lexical_decision_task_MP,2020.1.3,Win32,60,,m,1,0.51947,,,,,,,,0.51947,1,,,,,,44,WORD,UN,50,clergy,DANGER,m,,,,,,0.653703727,-0.261111179,0,0,0,,0,21,21,223,1,
,,,,,,,,,,,,,,,,,,5e3d8f6b6b1c15033ce417f4,2020-08-10_12h46.10.731,lexical_decision_task_MP,2020.1.3,Win32,60,,m,1,0.537145,,,,,,,,0.537145,1,,,,,,124,WORD,"ID",50,blouse,BLOUSE,m,,,,,,0.653703727,-0.261111179,0,0,0,,0,22,22,63,1,
,,,,,,,,,,,,,,,,,,5e3d8f6b6b1c15033ce417f4,2020-08-10_12h46.10.731,lexical_decision_task_MP,2020.1.3,Win32,60,,z,1,0.74451,,,,,,,,0.74451,1,,,,,,361,NW,"ID",50,pauche,PAUCHE,z,,,,,,0.653703727,-0.261111179,0,0,0,,0,23,23,300,1,
,,,,,,,,,,,,,,,,,,5e3d8f6b6b1c15033ce417f4,2020-08-10_12h46.10.731,lexical_decision_task_MP,2020.1.3,Win32,60,,m,1,0.550175,,,,,,,,0.550175,1,,,,,,24,WORD,UN,50,domain,PRAISE,m,,,,,,0.653703727,-0.261111179,0,0,0,,0,24,24,203,1,
,,,,,,,,,,,,,,,,,,5e3d8f6b6b1c15033ce417f4,2020-08-10_12h46.10.731,lexical_decision_task_MP,2020.1.3,Win32,60,,m,1,0.66723,,,,,,,,0.66723,1,,,,,,34,WORD,UN,50,socket,JUNGLE,m,,,,,,0.653703727,-0.261111179,0,0,0,,0,25,25,213,1,
,,,,,,,,,,,,,,,,,,5e3d8f6b6b1c15033ce417f4,2020-08-10_12h46.10.731,lexical_decision_task_MP,2020.1.3,Win32,60,,m,1,0.54347,,,,,,,,0.54347,1,,,,,,87,WORD,"ID",33,filter,FILTER,m,,,,,,0.653703727,-0.261111179,0,0,0,,0,26,26,26,1,
,,,,,,,,,,,,,,,,,,5e3d8f6b6b1c15033ce417f4,2020-08-10_12h46.10.731,lexical_decision_task_MP,2020.1.3,Win32,60,,z,1,0.592575,,,,,,,,0.592575,1,,,,,,305,NW,"ID",33,forgle,FORGLE,z,,,,,,0.653703727,-0.261111179,0,0,0,,0,27,27,244,1,
,,,,,,,,,,,,,,,,,,5e3d8f6b6b1c15033ce417f4,2020-08-10_12h46.10.731,lexical_decision_task_MP,2020.1.3,Win32,60,,m,1,0.56457,,,,,,,,0.56457,1,,,,,,225,WORD,UN,33,casino,VULGAR,m,,,,,,0.653703727,-0.261111179,0,0,0,,0,28,28,164,1,
,,,,,,,,,,,,,,,,,,5e3d8f6b6b1c15033ce417f4,2020-08-10_12h46.10.731,lexical_decision_task_MP,2020.1.3,Win32,60,,z,1,1.07559,,,,,,,,1.07559,1,,,,,,462,NW,UN,33,kispel,ABSULT,z,,,,,,0.653703727,-0.261111179,0,0,0,,0,29,29,401,1,
,,,,,,,,,,,,,,,,,,5e3d8f6b6b1c15033ce417f4,2020-08-10_12h46.10.731,lexical_decision_task_MP,2020.1.3,Win32,60,,z,1,0.52767,,,,,,,,0.52767,1,,,,,,356,NW,"ID",33,othnis,OTHNIS,z,,,,,,0.653703727,-0.261111179,0,0,0,,0,30,30,295,1,
,,,,,,,,,,,,,,,,,,5e3d8f6b6b1c15033ce417f4,2020-08-10_12h46.10.731,lexical_decision_task_MP,2020.1.3,Win32,60,,z,1,0.62044,,,,,,,,0.62044,1,,,,,,420,NW,"ID",50,gushop,GUSHOP,z,,,,,,0.653703727,-0.261111179,0,0,0,,0,31,31,359,1,
,,,,,,,,,,,,,,,,,,5e3d8f6b6b1c15033ce417f4,2020-08-10_12h46.10.731,lexical_decision_task_MP,2020.1.3,Win32,60,,z,1,0.98761,,,,,,,,0.98761,1,,,,,,278,NW,UN,50,celond,UNIGHS,z,,,,,,0.653703727,-0.261111179,0,0,0,,0,32,32,457,1,
,,,,,,,,,,,,,,,,,,5e3d8f6b6b1c15033ce417f4,2020-08-10_12h46.10.731,lexical_decision_task_MP,2020.1.3,Win32,60,,m,1,0.536165,,,,,,,,0.536165,1,,,,,,17,WORD,UN,50,humble,CHARGE,m,,,,,,0.653703727,-0.261111179,0,0,0,,0,33,33,196,1,
,,,,,,,,,,,,,,,,,,5e3d8f6b6b1c15033ce417f4,2020-08-10_12h46.10.731,lexical_decision_task_MP,2020.1.3,Win32,60,,m,1,0.579525,,,,,,,,0.579525,1,,,,,,181,WORD,UN,33,winter,GLANCE,m,,,,,,0.653703727,-0.261111179,0,0,0,,0,34,34,120,1,
,,,,,,,,,,,,,,,,,,5e3d8f6b6b1c15033ce417f4,2020-08-10_12h46.10.731,lexical_decision_task_MP,2020.1.3,Win32,60,,z,1,0.60654,,,,,,,,0.60654,1,,,,,,295,NW,UN,50,beinch,GLEATH,z,,,,,,0.653703727,-0.261111179,0,0,0,,0,35,35,474,1,
,,,,,,,,,,,,,,,,,,5e3d8f6b6b1c15033ce417f4,2020-08-10_12h46.10.731,lexical_decision_task_MP,2020.1.3,Win32,60,,z,1,0.522755,,,,,,,,0.522755,1,,,,,,324,NW,"ID",33,steikh,STEIKH,z,,,,,,0.653703727,-0.261111179,0,0,0,,0,36,36,263,1,
,,,,,,,,,,,,,,,,,,5e3d8f6b6b1c15033ce417f4,2020-08-10_12h46.10.731,lexical_decision_task_MP,2020.1.3,Win32,60,,m,1,0.83598,,,,,,,,0.83598,1,,,,,,74,WORD,"ID",33,plaque,PLAQUE,m,,,,,,0.653703727,-0.261111179,0,0,0,,0,37,37,13,1,
,,,,,,,,,,,,,,,,,,5e3d8f6b6b1c15033ce417f4,2020-08-10_12h46.10.731,lexical_decision_task_MP,2020.1.3,Win32,60,,z,1,0.635245,,,,,,,,0.635245,1,,,,,,392,NW,"ID",50,rouncy,ROUNCY,z,,,,,,0.653703727,-0.261111179,0,0,0,,0,38,38,331,1,
,,,,,,,,,,,,,,,,,,5e3d8f6b6b1c15033ce417f4,2020-08-10_12h46.10.731,lexical_decision_task_MP,2020.1.3,Win32,60,,m,1,0.53027,,,,,,,,0.53027,1,,,,,,205,WORD,UN,33,tailor,LOUNGE,m,,,,,,0.653703727,-0.261111179,0,0,0,,0,39,39,144,1,
,,,,,,,,,,,,,,,,,,5e3d8f6b6b1c15033ce417f4,2020-08-10_12h46.10.731,lexical_decision_task_MP,2020.1.3,Win32,60,,z,1,1.614535,,,,,,,,1.614535,1,,,,,,260,NW,UN,50,stunch,UNJECT,z,,,,,,0.653703727,-0.261111179,0,0,0,,0,40,40,439,1,
,,,,,,,,,,,,,,,,,,5e3d8f6b6b1c15033ce417f4,2020-08-10_12h46.10.731,lexical_decision_task_MP,2020.1.3,Win32,60,,z,1,0.9688,,,,,,,,0.9688,1,,,,,,379,NW,"ID",50,auting,AUTING,z,,,,,,0.653703727,-0.261111179,0,0,0,,0,41,41,318,1,
,,,,,,,,,,,,,,,,,,5e3d8f6b6b1c15033ce417f4,2020-08-10_12h46.10.731,lexical_decision_task_MP,2020.1.3,Win32,60,,z,1,1.00288,,,,,,,,1.00288,1,,,,,,317,NW,"ID",33,worbal,WORBAL,z,,,,,,0.653703727,-0.261111179,0,0,0,,0,42,42,256,1,
,,,,,,,,,,,,,,,,,,5e3d8f6b6b1c15033ce417f4,2020-08-10_12h46.10.731,lexical_decision_task_MP,2020.1.3,Win32,60,,m,1,0.57892,,,,,,,,0.57892,1,,,,,,19,WORD,UN,50,breast,PATRON,m,,,,,,0.653703727,-0.261111179,0,0,0,,0,43,43,198,1,
,,,,,,,,,,,,,,,,,,5e3d8f6b6b1c15033ce417f4,2020-08-10_12h46.10.731,lexical_decision_task_MP,2020.1.3,Win32,60,,m,1,0.509255,,,,,,,,0.509255,1,,,,,,113,WORD,"ID",33,chorus,CHORUS,m,,,,,,0.653703727,-0.261111179,0,0,0,,0,44,44,52,1,
,,,,,,,,,,,,,,,,,,5e3d8f6b6b1c15033ce417f4,2020-08-10_12h46.10.731,lexical_decision_task_MP,2020.1.3,Win32,60,,m,1,0.571715,,,,,,,,0.571715,1,,,,,,40,WORD,UN,50,spring,CONVEY,m,,,,,,0.653703727,-0.261111179,0,0,0,,0,45,45,219,1,
,,,,,,,,,,,,,,,,,,5e3d8f6b6b1c15033ce417f4,2020-08-10_12h46.10.731,lexical_decision_task_MP,2020.1.3,Win32,60,,z,1,0.57687,,,,,,,,0.57687,1,,,,,,323,NW,"ID",33,rosail,ROSAIL,z,,,,,,0.653703727,-0.261111179,0,0,0,,0,46,46,262,1,
,,,,,,,,,,,,,,,,,,5e3d8f6b6b1c15033ce417f4,2020-08-10_12h46.10.731,lexical_decision_task_MP,2020.1.3,Win32,60,,z,1,0.634705,,,,,,,,0.634705,1,,,,,,350,NW,"ID",33,nagurs,NAGURS,z,,,,,,0.653703727,-0.261111179,0,0,0,,0,47,47,289,1,
,,,,,,,,,,,,,,,,,,5e3d8f6b6b1c15033ce417f4,2020-08-10_12h46.10.731,lexical_decision_task_MP,2020.1.3,Win32,60,,z,1,0.57727,,,,,,,,0.57727,1,,,,,,470,NW,UN,33,nobest,CRUDIO,z,,,,,,0.653703727,-0.261111179,0,0,0,,0,48,48,409,1,
,,,,,,,,,,,,,,,,,,5e3d8f6b6b1c15033ce417f4,2020-08-10_12h46.10.731,lexical_decision_task_MP,2020.1.3,Win32,60,,m,1,0.80832,,,,,,,,0.80832,1,,,,,,207,WORD,UN,33,hockey,WREATH,m,,,,,,0.653703727,-0.261111179,0,0,0,,0,49,49,146,1,
,,,,,,,,,,,,,,,,,,5e3d8f6b6b1c15033ce417f4,2020-08-10_12h46.10.731,lexical_decision_task_MP,2020.1.3,Win32,60,,m,1,0.52888,,,,,,,,0.52888,1,,,,,,193,WORD,UN,33,mildew,OBJECT,m,,,,,,0.653703727,-0.261111179,0,0,0,,0,50,50,132,1,
,,,,,,,,,,,,,,,,,,5e3d8f6b6b1c15033ce417f4,2020-08-10_12h46.10.731,lexical_decision_task_MP,2020.1.3,Win32,60,,m,1,0.453505,,,,,,,,0.453505,1,,,,,,172,WORD,"ID",50,patrol,PATROL,m,,,,,,0.653703727,-0.261111179,0,0,0,,0,51,51,111,1,
,,,,,,,,,,,,,,,,,,5e3d8f6b6b1c15033ce417f4,2020-08-10_12h46.10.731,lexical_decision_task_MP,2020.1.3,Win32,60,,z,1,0.51569,,,,,,,,0.51569,1,,,,,,311,NW,"ID",33,sproly,SPROLY,z,,,,,,0.653703727,-0.261111179,0,0,0,,0,52,52,250,1,
,,,,,,,,,,,,,,,,,,5e3d8f6b6b1c15033ce417f4,2020-08-10_12h46.10.731,lexical_decision_task_MP,2020.1.3,Win32,60,,m,1,0.63333,,,,,,,,0.63333,1,,,,,,204,WORD,UN,33,lounge,BURDEN,m,,,,,,0.653703727,-0.261111179,0,0,0,,0,53,53,143,1,
,,,,,,,,,,,,,,,,,,5e3d8f6b6b1c15033ce417f4,2020-08-10_12h46.10.731,lexical_decision_task_MP,2020.1.3,Win32,60,,m,1,0.51553,,,,,,,,0.51553,1,,,,,,134,WORD,"ID",50,staple,STAPLE,m,,,,,,0.653703727,-0.261111179,0,0,0,,0,54,54,73,1,
,,,,,,,,,,,,,,,,,,5e3d8f6b6b1c15033ce417f4,2020-08-10_12h46.10.731,lexical_decision_task_MP,2020.1.3,Win32,60,,z,1,0.70976,,,,,,,,0.70976,1,,,,,,409,NW,"ID",50,elopia,ELOPIA,z,,,,,,0.653703727,-0.261111179,0,0,0,,0,55,55,348,1,
,,,,,,,,,,,,,,,,,,5e3d8f6b6b1c15033ce417f4,2020-08-10_12h46.10.731,lexical_decision_task_MP,2020.1.3,Win32,60,,z,1,0.589735,,,,,,,,0.589735,1,,,,,,257,NW,UN,50,poluth,VENIOD,z,,,,,,0.653703727,-0.261111179,0,0,0,,0,56,56,436,1,
,,,,,,,,,,,,,,,,,,5e3d8f6b6b1c15033ce417f4,2020-08-10_12h46.10.731,lexical_decision_task_MP,2020.1.3,Win32,60,,m,1,0.669875,,,,,,,,0.669875,1,,,,,,50,WORD,UN,50,hungry,SNATCH,m,,,,,,0.653703727,-0.261111179,0,0,0,,0,57,57,229,1,
,,,,,,,,,,,,,,,,,,5e3d8f6b6b1c15033ce417f4,2020-08-10_12h46.10.731,lexical_decision_task_MP,2020.1.3,Win32,60,,m,1,0.4614,,,,,,,,0.4614,1,,,,,,130,WORD,"ID",50,stupid,STUPID,m,,,,,,0.653703727,-0.261111179,0,0,0,,0,58,58,69,1,
,,,,,,,,,,,,,,,,,,5e3d8f6b6b1c15033ce417f4,2020-08-10_12h46.10.731,lexical_decision_task_MP,2020.1.3,Win32,60,,z,1,0.603905,,,,,,,,0.603905,1,,,,,,401,NW,"ID",50,mustil,MUSTIL,z,,,,,,0.653703727,-0.261111179,0,0,0,,0,59,59,340,1,
,,,,,,,,,,,,,,,,,,5e3d8f6b6b1c15033ce417f4,2020-08-10_12h46.10.731,lexical_decision_task_MP,2020.1.3,Win32,60,,z,1,1.4761,,,,,,,,1.4761,1,,,,,,322,NW,"ID",33,slanch,SLANCH,z,,,,,,0.653703727,-0.261111179,0,0,0,,0,60,60,261,1,
,,,,,,,,,,,,,,,,,,5e3d8f6b6b1c15033ce417f4,2020-08-10_12h46.10.731,lexical_decision_task_MP,2020.1.3,Win32,60,,m,1,0.494655,,,,,,,,0.494655,1,,,,,,57,WORD,UN,50,danger,CHANGE,m,,,,,,0.653703727,-0.261111179,0,0,0,,0,61,61,236,1,
,,,,,,,,,,,,,,,,,,5e3d8f6b6b1c15033ce417f4,2020-08-10_12h46.10.731,lexical_decision_task_MP,2020.1.3,Win32,60,,m,1,0.55872,,,,,,,,0.55872,1,,,,,,228,WORD,UN,33,kidney,MASTER,m,,,,,,0.653703727,-0.261111179,0,0,0,,0,62,62,167,1,
,,,,,,,,,,,,,,,,,,5e3d8f6b6b1c15033ce417f4,2020-08-10_12h46.10.731,lexical_decision_task_MP,2020.1.3,Win32,60,,m,1,0.555865,,,,,,,,0.555865,1,,,,,,202,WORD,UN,33,phrase,FACTOR,m,,,,,,0.653703727,-0.261111179,0,0,0,,0,63,63,141,1,
,,,,,,,,,,,,,,,,,,5e3d8f6b6b1c15033ce417f4,2020-08-10_12h46.10.731,lexical_decision_task_MP,2020.1.3,Win32,60,,m,1,0.89898,,,,,,,,0.89898,1,,,,,,77,WORD,"ID",33,racket,RACKET,m,,,,,,0.653703727,-0.261111179,0,0,0,,0,64,64,16,1,
,,,,,,,,,,,,,,,,,,5e3d8f6b6b1c15033ce417f4,2020-08-10_12h46.10.731,lexical_decision_task_MP,2020.1.3,Win32,60,,m,1,0.68704,,,,,,,,0.68704,1,,,,,,222,WORD,UN,33,export,HINDER,m,,,,,,0.653703727,-0.261111179,0,0,0,,0,65,65,161,1,
,,,,,,,,,,,,,,,,,,5e3d8f6b6b1c15033ce417f4,2020-08-10_12h46.10.731,lexical_decision_task_MP,2020.1.3,Win32,60,,z,1,0.667165,,,,,,,,0.667165,1,,,,,,396,NW,"ID",50,flengy,FLENGY,z,,,,,,0.653703727,-0.261111179,0,0,0,,0,66,66,335,1,
,,,,,,,,,,,,,,,,,,5e3d8f6b6b1c15033ce417f4,2020-08-10_12h46.10.731,lexical_decision_task_MP,2020.1.3,Win32,60,,z,1,0.641075,,,,,,,,0.641075,1,,,,,,266,NW,UN,50,pasink,VARMIT,z,,,,,,0.653703727,-0.261111179,0,0,0,,0,67,67,445,1,
,,,,,,,,,,,,,,,,,,5e3d8f6b6b1c15033ce417f4,2020-08-10_12h46.10.731,lexical_decision_task_MP,2020.1.3,Win32,60,,m,1,0.615935,,,,,,,,0.615935,1,,,,,,147,WORD,"ID",50,garlic,GARLIC,m,,,,,,0.653703727,-0.261111179,0,0,0,,0,68,68,86,1,
,,,,,,,,,,,,,,,,,,5e3d8f6b6b1c15033ce417f4,2020-08-10_12h46.10.731,lexical_decision_task_MP,2020.1.3,Win32,60,,m,1,0.52957,,,,,,,,0.52957,1,,,,,,234,WORD,UN,33,poster,CLUMSY,m,,,,,,0.653703727,-0.261111179,0,0,0,,0,69,69,173,1,
,,,,,,,,,,,,,,,,,,5e3d8f6b6b1c15033ce417f4,2020-08-10_12h46.10.731,lexical_decision_task_MP,2020.1.3,Win32,60,,z,1,0.62729,,,,,,,,0.62729,1,,,,,,421,NW,UN,33,alcoud,KNISMA,z,,,,,,0.653703727,-0.261111179,0,0,0,,0,70,70,360,1,
,,,,,,,,,,,,,,,,,,5e3d8f6b6b1c15033ce417f4,2020-08-10_12h46.10.731,lexical_decision_task_MP,2020.1.3,Win32,60,,z,1,0.75327,,,,,,,,0.75327,1,,,,,,394,NW,"ID",50,spaqux,SPAQUX,z,,,,,,0.653703727,-0.261111179,0,0,0,,0,71,71,333,1,
,,,,,,,,,,,,,,,,,,5e3d8f6b6b1c15033ce417f4,2020-08-10_12h46.10.731,lexical_decision_task_MP,2020.1.3,Win32,60,,m,1,0.52311,,,,,,,,0.52311,1,,,,,,239,WORD,UN,33,forest,LUMBER,m,,,,,,0.653703727,-0.261111179,0,0,0,,0,72,72,178,1,
,,,,,,,,,,,,,,,,,,5e3d8f6b6b1c15033ce417f4,2020-08-10_12h46.10.731,lexical_decision_task_MP,2020.1.3,Win32,60,,m,1,0.447685,,,,,,,,0.447685,1,,,,,,180,WORD,"ID",50,silent,SILENT,m,,,,,,0.653703727,-0.261111179,0,0,0,,0,73,73,119,1,
,,,,,,,,,,,,,,,,,,5e3d8f6b6b1c15033ce417f4,2020-08-10_12h46.10.731,lexical_decision_task_MP,2020.1.3,Win32,60,,z,1,0.69773,,,,,,,,0.69773,1,,,,,,464,NW,UN,33,whivex,CHAITE,z,,,,,,0.653703727,-0.261111179,0,0,0,,0,74,74,403,1,
,,,,,,,,,,,,,,,,,,5e3d8f6b6b1c15033ce417f4,2020-08-10_12h46.10.731,lexical_decision_task_MP,2020.1.3,Win32,60,,z,1,1.19004,,,,,,,,1.19004,1,,,,,,314,NW,"ID",33,sprine,SPRINE,z,,,,,,0.653703727,-0.261111179,0,0,0,,0,75,75,253,1,
,,,,,,,,,,,,,,,,,,5e3d8f6b6b1c15033ce417f4,2020-08-10_12h46.10.731,lexical_decision_task_MP,2020.1.3,Win32,60,,m,1,0.560075,,,,,,,,0.560075,1,,,,,,184,WORD,UN,33,bother,SLEAZY,m,,,,,,0.653703727,-0.261111179,0,0,0,,0,76,76,123,1,
,,,,,,,,,,,,,,,,,,5e3d8f6b6b1c15033ce417f4,2020-08-10_12h46.10.731,lexical_decision_task_MP,2020.1.3,Win32,60,,z,1,0.562285,,,,,,,,0.562285,1,,,,,,329,NW,"ID",33,yarike,YARIKE,z,,,,,,0.653703727,-0.261111179,0,0,0,,0,77,77,268,1,
,,,,,,,,,,,,,,,,,,5e3d8f6b6b1c15033ce417f4,2020-08-10_12h46.10.731,lexical_decision_task_MP,2020.1.3,Win32,60,,m,1,0.786945,,,,,,,,0.786945,1,,,,,,212,WORD,UN,33,squeal,VERIFY,m,,,,,,0.653703727,-0.261111179,0,0,0,,0,78,78,151,1,
,,,,,,,,,,,,,,,,,,5e3d8f6b6b1c15033ce417f4,2020-08-10_12h46.10.731,lexical_decision_task_MP,2020.1.3,Win32,60,,m,1,0.49362,,,,,,,,0.49362,1,,,,,,155,WORD,"ID",50,lizard,LIZARD,m,,,,,,0.653703727,-0.261111179,0,0,0,,0,79,79,94,1,
,,,,,,,,,,,,,,,,,,5e3d8f6b6b1c15033ce417f4,2020-08-10_12h46.10.731,lexical_decision_task_MP,2020.1.3,Win32,60,,z,1,0.65487,,,,,,,,0.65487,1,,,,,,370,NW,"ID",50,sleact,SLEACT,z,,,,,,0.653703727,-0.261111179,0,0,0,,0,80,80,309,1,
,,,,,,,,,,,,,,,,,,5e3d8f6b6b1c15033ce417f4,2020-08-10_12h46.10.731,lexical_decision_task_MP,2020.1.3,Win32,60,,m,1,0.8131,,,,,,,,0.8131,1,,,,,,8,WORD,UN,50,hustle,ABRUPT,m,,,,,,0.653703727,-0.261111179,0,0,0,,0,81,81,187,1,
,,,,,,,,,,,,,,,,,,5e3d8f6b6b1c15033ce417f4,2020-08-10_12h46.10.731,lexical_decision_task_MP,2020.1.3,Win32,60,,z,1,0.659585,,,,,,,,0.659585,1,,,,,,436,NW,UN,33,snapel,FRUTAN,z,,,,,,0.653703727,-0.261111179,0,0,0,,0,82,82,375,1,
,,,,,,,,,,,,,,,,,,5e3d8f6b6b1c15033ce417f4,2020-08-10_12h46.10.731,lexical_decision_task_MP,2020.1.3,Win32,60,,m,1,0.487815,,,,,,,,0.487815,1,,,,,,88,WORD,"ID",33,hunger,HUNGER,m,,,,,,0.653703727,-0.261111179,0,0,0,,0,83,83,27,1,
,,,,,,,,,,,,,,,,,,5e3d8f6b6b1c15033ce417f4,2020-08-10_12h46.10.731,lexical_decision_task_MP,2020.1.3,Win32,60,,z,1,0.550945,,,,,,,,0.550945,1,,,,,,296,NW,UN,50,fertic,BEINCH,z,,,,,,0.653703727,-0.261111179,0,0,0,,0,84,84,475,1,
,,,,,,,,,,,,,,,,,,5e3d8f6b6b1c15033ce417f4,2020-08-10_12h46.10.731,lexical_decision_task_MP,2020.1.3,Win32,60,,m,1,0.5092,,,,,,,,0.5092,1,,,,,,116,WORD,"ID",33,tumble,TUMBLE,m,,,,,,0.653703727,-0.261111179,0,0,0,,0,85,85,55,1,
,,,,,,,,,,,,,,,,,,5e3d8f6b6b1c15033ce417f4,2020-08-10_12h46.10.731,lexical_decision_task_MP,2020.1.3,Win32,60,,m,1,0.448905,,,,,,,,0.448905,1,,,,,,150,WORD,"ID",50,random,RANDOM,m,,,,,,0.653703727,-0.261111179,0,0,0,,0,86,86,89,1,
,,,,,,,,,,,,,,,,,,5e3d8f6b6b1c15033ce417f4,2020-08-10_12h46.10.731,lexical_decision_task_MP,2020.1.3,Win32,60,,z,1,0.55074,,,,,,,,0.55074,1,,,,,,384,NW,"ID",50,guesco,GUESCO,z,,,,,,0.653703727,-0.261111179,0,0,0,,0,87,87,323,1,
,,,,,,,,,,,,,,,,,,5e3d8f6b6b1c15033ce417f4,2020-08-10_12h46.10.731,lexical_decision_task_MP,2020.1.3,Win32,60,,z,1,0.752795,,,,,,,,0.752795,1,,,,,,472,NW,UN,33,gorbie,CIGNEY,z,,,,,,0.653703727,-0.261111179,0,0,0,,0,88,88,411,1,
,,,,,,,,,,,,,,,,,,5e3d8f6b6b1c15033ce417f4,2020-08-10_12h46.10.731,lexical_decision_task_MP,2020.1.3,Win32,60,,z,1,0.61347,,,,,,,,0.61347,1,,,,,,325,NW,"ID",33,thruse,THRUSE,z,,,,,,0.653703727,-0.261111179,0,0,0,,0,89,89,264,1,
,,,,,,,,,,,,,,,,,,5e3d8f6b6b1c15033ce417f4,2020-08-10_12h46.10.731,lexical_decision_task_MP,2020.1.3,Win32,60,,z,1,0.59175,,,,,,,,0.59175,1,,,,,,261,NW,UN,50,quilew,STUNCH,z,,,,,,0.653703727,-0.261111179,0,0,0,,0,90,90,440,1,
,,,,,,,,,,,,,,,,,,5e3d8f6b6b1c15033ce417f4,2020-08-10_12h46.10.731,lexical_decision_task_MP,2020.1.3,Win32,60,,z,1,0.743335,,,,,,,,0.743335,1,,,,,,398,NW,"ID",50,blunde,BLUNDE,z,,,,,,0.653703727,-0.261111179,0,0,0,,0,91,91,337,1,
,,,,,,,,,,,,,,,,,,5e3d8f6b6b1c15033ce417f4,2020-08-10_12h46.10.731,lexical_decision_task_MP,2020.1.3,Win32,60,,m,1,0.50197,,,,,,,,0.50197,1,,,,,,79,WORD,"ID",33,theory,THEORY,m,,,,,,0.653703727,-0.261111179,0,0,0,,0,92,92,18,1,
,,,,,,,,,,,,,,,,,,5e3d8f6b6b1c15033ce417f4,2020-08-10_12h46.10.731,lexical_decision_task_MP,2020.1.3,Win32,60,,z,1,0.49538,,,,,,,,0.49538,1,,,,,,308,NW,"ID",33,psetch,PSETCH,z,,,,,,0.653703727,-0.261111179,0,0,0,,0,93,93,247,1,
,,,,,,,,,,,,,,,,,,5e3d8f6b6b1c15033ce417f4,2020-08-10_12h46.10.731,lexical_decision_task_MP,2020.1.3,Win32,60,,z,1,0.477515,,,,,,,,0.477515,1,,,,,,268,NW,UN,50,orchet,PACKES,z,,,,,,0.653703727,-0.261111179,0,0,0,,0,94,94,447,1,
,,,,,,,,,,,,,,,,,,5e3d8f6b6b1c15033ce417f4,2020-08-10_12h46.10.731,lexical_decision_task_MP,2020.1.3,Win32,60,,m,1,0.50296,,,,,,,,0.50296,1,,,,,,196,WORD,UN,33,stream,CREDIT,m,,,,,,0.653703727,-0.261111179,0,0,0,,0,95,95,135,1,
,,,,,,,,,,,,,,,,,,5e3d8f6b6b1c15033ce417f4,2020-08-10_12h46.10.731,lexical_decision_task_MP,2020.1.3,Win32,60,,z,1,0.584735,,,,,,,,0.584735,1,,,,,,447,NW,UN,33,sadent,GIRCUE,z,,,,,,0.653703727,-0.261111179,0,0,0,,0,96,96,386,1,
,,,,,,,,,,,,,,,,,,5e3d8f6b6b1c15033ce417f4,2020-08-10_12h46.10.731,lexical_decision_task_MP,2020.1.3,Win32,60,,z,1,0.62694,,,,,,,,0.62694,1,,,,,,438,NW,UN,33,limpor,BAITCH,z,,,,,,0.653703727,-0.261111179,0,0,0,,0,97,97,377,1,
,,,,,,,,,,,,,,,,,,5e3d8f6b6b1c15033ce417f4,2020-08-10_12h46.10.731,lexical_decision_task_MP,2020.1.3,Win32,60,,z,1,0.72407,,,,,,,,0.72407,1,,,,,,458,NW,UN,33,hocite,BARCET,z,,,,,,0.653703727,-0.261111179,0,0,0,,0,98,98,397,1,
,,,,,,,,,,,,,,,,,,5e3d8f6b6b1c15033ce417f4,2020-08-10_12h46.10.731,lexical_decision_task_MP,2020.1.3,Win32,60,,z,1,0.476965,,,,,,,,0.476965,1,,,,,,282,NW,UN,50,veralf,PORLEX,z,,,,,,0.653703727,-0.261111179,0,0,0,,0,99,99,461,1,
,,,,,,,,,,,,,,,,,,5e3d8f6b6b1c15033ce417f4,2020-08-10_12h46.10.731,lexical_decision_task_MP,2020.1.3,Win32,60,,z,1,0.4982,,,,,,,,0.4982,1,,,,,,290,NW,UN,50,pretch,SPLINO,z,,,,,,0.653703727,-0.261111179,0,0,0,,0,100,100,469,1,
,,,,,,,,,,,,,,,,,,5e3d8f6b6b1c15033ce417f4,2020-08-10_12h46.10.731,lexical_decision_task_MP,2020.1.3,Win32,60,,z,1,0.767595,,,,,,,,0.767595,1,,,,,,372,NW,"ID",50,ramily,RAMILY,z,,,,,,0.653703727,-0.261111179,0,0,0,,0,101,101,311,1,
,,,,,,,,,,,,,,,,,,5e3d8f6b6b1c15033ce417f4,2020-08-10_12h46.10.731,lexical_decision_task_MP,2020.1.3,Win32,60,,z,1,0.726675,,,,,,,,0.726675,1,,,,,,375,NW,"ID",50,yorque,YORQUE,z,,,,,,0.653703727,-0.261111179,0,0,0,,0,102,102,314,1,
,,,,,,,,,,,,,,,,,,5e3d8f6b6b1c15033ce417f4,2020-08-10_12h46.10.731,lexical_decision_task_MP,2020.1.3,Win32,60,,z,1,0.629815,,,,,,,,0.629815,1,,,,,,467,NW,UN,33,wictor,GORBIE,z,,,,,,0.653703727,-0.261111179,0,0,0,,0,103,103,406,1,
,,,,,,,,,,,,,,,,,,5e3d8f6b6b1c15033ce417f4,2020-08-10_12h46.10.731,lexical_decision_task_MP,2020.1.3,Win32,60,,z,1,0.56767,,,,,,,,0.56767,1,,,,,,347,NW,"ID",33,kerift,KERIFT,z,,,,,,0.653703727,-0.261111179,0,0,0,,0,104,104,286,1,
,,,,,,,,,,,,,,,,,,5e3d8f6b6b1c15033ce417f4,2020-08-10_12h46.10.731,lexical_decision_task_MP,2020.1.3,Win32,60,,z,1,0.563975,,,,,,,,0.563975,1,,,,,,332,NW,"ID",33,vangue,VANGUE,z,,,,,,0.653703727,-0.261111179,0,0,0,,0,105,105,271,1,
,,,,,,,,,,,,,,,,,,5e3d8f6b6b1c15033ce417f4,2020-08-10_12h46.10.731,lexical_decision_task_MP,2020.1.3,Win32,60,,m,1,0.52234,,,,,,,,0.52234,1,,,,,,18,WORD,UN,50,patron,HUMBLE,m,,,,,,0.653703727,-0.261111179,0,0,0,,0,106,106,197,1,
,,,,,,,,,,,,,,,,,,5e3d8f6b6b1c15033ce417f4,2020-08-10_12h46.10.731,lexical_decision_task_MP,2020.1.3,Win32,60,,m,1,0.47509,,,,,,,,0.47509,1,,,,,,13,WORD,UN,50,almost,STRIVE,m,,,,,,0.653703727,-0.261111179,0,0,0,,0,107,107,192,1,
,,,,,,,,,,,,,,,,,,5e3d8f6b6b1c15033ce417f4,2020-08-10_12h46.10.731,lexical_decision_task_MP,2020.1.3,Win32,60,,z,1,0.557015,,,,,,,,0.557015,1,,,,,,343,NW,"ID",33,aimosy,AIMOSY,z,,,,,,0.653703727,-0.261111179,0,0,0,,0,108,108,282,1,
,,,,,,,,,,,,,,,,,,5e3d8f6b6b1c15033ce417f4,2020-08-10_12h46.10.731,lexical_decision_task_MP,2020.1.3,Win32,60,,z,1,0.602955,,,,,,,,0.602955,1,,,,,,459,NW,UN,33,mingar,BAFENT,z,,,,,,0.653703727,-0.261111179,0,0,0,,0,109,109,398,1,
,,,,,,,,,,,,,,,,,,5e3d8f6b6b1c15033ce417f4,2020-08-10_12h46.10.731,lexical_decision_task_MP,2020.1.3,Win32,60,,z,1,0.71136,,,,,,,,0.71136,1,,,,,,333,NW,"ID",33,catrie,CATRIE,z,,,,,,0.653703727,-0.261111179,0,0,0,,0,110,110,272,1,
,,,,,,,,,,,,,,,,,,5e3d8f6b6b1c15033ce417f4,2020-08-10_12h46.10.731,lexical_decision_task_MP,2020.1.3,Win32,60,,m,1,0.50296,,,,,,,,0.50296,1,,,,,,233,WORD,UN,33,clumsy,NATURE,m,,,,,,0.653703727,-0.261111179,0,0,0,,0,111,111,172,1,
,,,,,,,,,,,,,,,,,,5e3d8f6b6b1c15033ce417f4,2020-08-10_12h46.10.731,lexical_decision_task_MP,2020.1.3,Win32,60,,m,1,0.528175,,,,,,,,0.528175,1,,,,,,63,WORD,"ID",33,launch,LAUNCH,m,,,,,,0.653703727,-0.261111179,0,0,0,,0,112,112,2,1,
,,,,,,,,,,,,,,,,,,5e3d8f6b6b1c15033ce417f4,2020-08-10_12h46.10.731,lexical_decision_task_MP,2020.1.3,Win32,60,,z,1,0.645615,,,,,,,,0.645615,1,,,,,,310,NW,"ID",33,daniet,DANIET,z,,,,,,0.653703727,-0.261111179,0,0,0,,0,113,113,249,1,
,,,,,,,,,,,,,,,,,,5e3d8f6b6b1c15033ce417f4,2020-08-10_12h46.10.731,lexical_decision_task_MP,2020.1.3,Win32,60,,z,1,0.70568,,,,,,,,0.70568,1,,,,,,437,NW,UN,33,baitch,SNAPEL,z,,,,,,0.653703727,-0.261111179,0,0,0,,0,114,114,376,1,
,,,,,,,,,,,,,,,,,,5e3d8f6b6b1c15033ce417f4,2020-08-10_12h46.10.731,lexical_decision_task_MP,2020.1.3,Win32,60,,m,1,0.5377,,,,,,,,0.5377,1,,,,,,231,WORD,UN,33,inject,EXPORT,m,,,,,,0.653703727,-0.261111179,0,0,0,,0,115,115,170,1,
,,,,,,,,,,,,,,,,,,5e3d8f6b6b1c15033ce417f4,2020-08-10_12h46.10.731,lexical_decision_task_MP,2020.1.3,Win32,60,,z,1,0.549945,,,,,,,,0.549945,1,,,,,,253,NW,UN,50,varosh,RESAIT,z,,,,,,0.653703727,-0.261111179,0,0,0,,0,116,116,432,1,
,,,,,,,,,,,,,,,,,,5e3d8f6b6b1c15033ce417f4,2020-08-10_12h46.10.731,lexical_decision_task_MP,2020.1.3,Win32,60,,m,1,0.596425,,,,,,,,0.596425,1,,,,,,200,WORD,UN,33,admire,BEACON,m,,,,,,0.653703727,-0.261111179,0,0,0,,0,117,117,139,1,
,,,,,,,,,,,,,,,,,,5e3d8f6b6b1c15033ce417f4,2020-08-10_12h46.10.731,lexical_decision_task_MP,2020.1.3,Win32,60,,z,1,1.03167,,,,,,,,1.03167,1,,,,,,358,NW,"ID",33,fleack,FLEACK,z,,,,,,0.653703727,-0.261111179,0,0,0,,0,118,118,297,1,
,,,,,,,,,,,,,,,,,,5e3d8f6b6b1c15033ce417f4,2020-08-10_12h46.10.731,lexical_decision_task_MP,2020.1.3,Win32,60,,m,1,0.5537,,,,,,,,0.5537,1,,,,,,12,WORD,UN,50,strive,ORANGE,m,,,,,,0.653703727,-0.261111179,0,0,0,,0,119,119,191,1,
,,,,,,,,,,,,,,,,,,5e3d8f6b6b1c15033ce417f4,2020-08-10_12h46.10.731,lexical_decision_task_MP,2020.1.3,Win32,60,,z,1,0.632565,,,,,,,,0.632565,1,,,,,,330,NW,"ID",33,kensom,KENSOM,z,,,,,,0.344444463,-0.32314816,0,0,0,space,0,120,120,269,1,8.84751
,,,,,,,,,,,,,,,,,,5e3d8f6b6b1c15033ce417f4,2020-08-10_12h46.10.731,lexical_decision_task_MP,2020.1.3,Win32,60,,z,1,0.62617,,,,,,,,0.62617,1,,,,,,251,NW,UN,50,stapod,LUPICT,z,,,,,,0.344444463,-0.32314816,0,0,0,,0,121,121,430,1,
,,,,,,,,,,,,,,,,,,5e3d8f6b6b1c15033ce417f4,2020-08-10_12h46.10.731,lexical_decision_task_MP,2020.1.3,Win32,60,,m,1,0.618655,,,,,,,,0.618655,1,,,,,,69,WORD,"ID",33,plenty,PLENTY,m,,,,,,0.344444463,-0.32314816,0,0,0,,0,122,122,8,1,
,,,,,,,,,,,,,,,,,,5e3d8f6b6b1c15033ce417f4,2020-08-10_12h46.10.731,lexical_decision_task_MP,2020.1.3,Win32,60,,m,1,0.52366,,,,,,,,0.52366,1,,,,,,142,WORD,"ID",50,spruce,SPRUCE,m,,,,,,0.344444463,-0.32314816,0,0,0,,0,123,123,81,1,
,,,,,,,,,,,,,,,,,,5e3d8f6b6b1c15033ce417f4,2020-08-10_12h46.10.731,lexical_decision_task_MP,2020.1.3,Win32,60,,z,1,0.458575,,,,,,,,0.458575,1,,,,,,331,NW,"ID",33,gilfew,GILFEW,z,,,,,,0.344444463,-0.32314816,0,0,0,,0,124,124,270,1,
,,,,,,,,,,,,,,,,,,5e3d8f6b6b1c15033ce417f4,2020-08-10_12h46.10.731,lexical_decision_task_MP,2020.1.3,Win32,60,,m,1,0.69582,,,,,,,,0.69582,1,,,,,,224,WORD,UN,33,vulgar,PERIOD,m,,,,,,0.344444463,-0.32314816,0,0,0,,0,125,125,163,1,
,,,,,,,,,,,,,,,,,,5e3d8f6b6b1c15033ce417f4,2020-08-10_12h46.10.731,lexical_decision_task_MP,2020.1.3,Win32,60,,m,1,0.557925,,,,,,,,0.557925,1,,,,,,52,WORD,UN,50,police,IMPOSE,m,,,,,,0.344444463,-0.32314816,0,0,0,,0,126,126,231,1,
,,,,,,,,,,,,,,,,,,5e3d8f6b6b1c15033ce417f4,2020-08-10_12h46.10.731,lexical_decision_task_MP,2020.1.3,Win32,60,,z,1,0.544455,,,,,,,,0.544455,1,,,,,,427,NW,UN,33,tandly,SCHIND,z,,,,,,0.344444463,-0.32314816,0,0,0,,0,127,127,366,1,
,,,,,,,,,,,,,,,,,,5e3d8f6b6b1c15033ce417f4,2020-08-10_12h46.10.731,lexical_decision_task_MP,2020.1.3,Win32,60,,m,1,0.454235,,,,,,,,0.454235,1,,,,,,119,WORD,"ID",33,spider,SPIDER,m,,,,,,0.344444463,-0.32314816,0,0,0,,0,128,128,58,1,
,,,,,,,,,,,,,,,,,,5e3d8f6b6b1c15033ce417f4,2020-08-10_12h46.10.731,lexical_decision_task_MP,2020.1.3,Win32,60,,z,1,0.74657,,,,,,,,0.74657,1,,,,,,376,NW,"ID",50,iguare,IGUARE,z,,,,,,0.344444463,-0.32314816,0,0,0,,0,129,129,315,1,
,,,,,,,,,,,,,,,,,,5e3d8f6b6b1c15033ce417f4,2020-08-10_12h46.10.731,lexical_decision_task_MP,2020.1.3,Win32,60,,z,0,0.66226,,,,,,,,0.66226,0,,,,,,58,WORD,UN,50,splint,FOSTER,m,,,,,,0.344444463,-0.32314816,0,0,0,,0,130,130,237,1,
,,,,,,,,,,,,,,,,,,5e3d8f6b6b1c15033ce417f4,2020-08-10_12h46.10.731,lexical_decision_task_MP,2020.1.3,Win32,60,,m,1,0.55276,,,,,,,,0.55276,1,,,,,,214,WORD,UN,33,phobia,INTAKE,m,,,,,,0.344444463,-0.32314816,0,0,0,,0,131,131,153,1,
,,,,,,,,,,,,,,,,,,5e3d8f6b6b1c15033ce417f4,2020-08-10_12h46.10.731,lexical_decision_task_MP,2020.1.3,Win32,60,,z,1,0.6081,,,,,,,,0.6081,1,,,,,,387,NW,"ID",50,gronce,GRONCE,z,,,,,,0.344444463,-0.32314816,0,0,0,,0,132,132,326,1,
,,,,,,,,,,,,,,,,,,5e3d8f6b6b1c15033ce417f4,2020-08-10_12h46.10.731,lexical_decision_task_MP,2020.1.3,Win32,60,,z,1,0.531845,,,,,,,,0.531845,1,,,,,,318,NW,"ID",33,reagly,REAGLY,z,,,,,,0.344444463,-0.32314816,0,0,0,,0,133,133,257,1,
,,,,,,,,,,,,,,,,,,5e3d8f6b6b1c15033ce417f4,2020-08-10_12h46.10.731,lexical_decision_task_MP,2020.1.3,Win32,60,,z,0,0.90404,,,,,,,,0.90404,0,,,,,,4,WORD,UN,50,plunge,TRENCH,m,,,,,,0.344444463,-0.32314816,0,0,0,,0,134,134,183,1,
,,,,,,,,,,,,,,,,,,5e3d8f6b6b1c15033ce417f4,2020-08-10_12h46.10.731,lexical_decision_task_MP,2020.1.3,Win32,60,,m,1,0.669925,,,,,,,,0.669925,1,,,,,,42,WORD,UN,50,tongue,CHAPEL,m,,,,,,0.344444463,-0.32314816,0,0,0,,0,135,135,221,1,
,,,,,,,,,,,,,,,,,,5e3d8f6b6b1c15033ce417f4,2020-08-10_12h46.10.731,lexical_decision_task_MP,2020.1.3,Win32,60,,z,1,0.7101,,,,,,,,0.7101,1,,,,,,352,NW,"ID",33,tringe,TRINGE,z,,,,,,0.344444463,-0.32314816,0,0,0,,0,136,136,291,1,
,,,,,,,,,,,,,,,,,,5e3d8f6b6b1c15033ce417f4,2020-08-10_12h46.10.731,lexical_decision_task_MP,2020.1.3,Win32,60,,z,1,1.28994,,,,,,,,1.28994,1,,,,,,285,NW,UN,50,reldon,PRUDGE,z,,,,,,0.344444463,-0.32314816,0,0,0,,0,137,137,464,1,
,,,,,,,,,,,,,,,,,,5e3d8f6b6b1c15033ce417f4,2020-08-10_12h46.10.731,lexical_decision_task_MP,2020.1.3,Win32,60,,z,1,1.068505,,,,,,,,1.068505,1,,,,,,425,NW,UN,33,urivel,FRUDGE,z,,,,,,0.344444463,-0.32314816,0,0,0,,0,138,138,364,1,
,,,,,,,,,,,,,,,,,,5e3d8f6b6b1c15033ce417f4,2020-08-10_12h46.10.731,lexical_decision_task_MP,2020.1.3,Win32,60,,m,1,0.566405,,,,,,,,0.566405,1,,,,,,49,WORD,UN,50,snatch,SURVEY,m,,,,,,0.344444463,-0.32314816,0,0,0,,0,139,139,228,1,
,,,,,,,,,,,,,,,,,,5e3d8f6b6b1c15033ce417f4,2020-08-10_12h46.10.731,lexical_decision_task_MP,2020.1.3,Win32,60,,z,1,0.556545,,,,,,,,0.556545,1,,,,,,412,NW,"ID",50,jiluer,JILUER,z,,,,,,0.344444463,-0.32314816,0,0,0,,0,140,140,351,1,
,,,,,,,,,,,,,,,,,,5e3d8f6b6b1c15033ce417f4,2020-08-10_12h46.10.731,lexical_decision_task_MP,2020.1.3,Win32,60,,z,1,0.60642,,,,,,,,0.60642,1,,,,,,469,NW,UN,33,crudio,PADIFS,z,,,,,,0.344444463,-0.32314816,0,0,0,,0,141,141,408,1,
,,,,,,,,,,,,,,,,,,5e3d8f6b6b1c15033ce417f4,2020-08-10_12h46.10.731,lexical_decision_task_MP,2020.1.3,Win32,60,,z,1,0.473685,,,,,,,,0.473685,1,,,,,,380,NW,"ID",50,cavory,CAVORY,z,,,,,,0.344444463,-0.32314816,0,0,0,,0,142,142,319,1,
,,,,,,,,,,,,,,,,,,5e3d8f6b6b1c15033ce417f4,2020-08-10_12h46.10.731,lexical_decision_task_MP,2020.1.3,Win32,60,,z,0,0.843075,,,,,,,,0.843075,0,,,,,,86,WORD,"ID",33,rodent,RODENT,m,,,,,,0.344444463,-0.32314816,0,0,0,,0,143,143,25,1,
,,,,,,,,,,,,,,,,,,5e3d8f6b6b1c15033ce417f4,2020-08-10_12h46.10.731,lexical_decision_task_MP,2020.1.3,Win32,60,,m,1,1.035585,,,,,,,,1.035585,1,,,,,,108,WORD,"ID",33,reckon,RECKON,m,,,,,,0.344444463,-0.32314816,0,0,0,,0,144,144,47,1,
,,,,,,,,,,,,,,,,,,5e3d8f6b6b1c15033ce417f4,2020-08-10_12h46.10.731,lexical_decision_task_MP,2020.1.3,Win32,60,,m,1,0.543115,,,,,,,,0.543115,1,,,,,,53,WORD,UN,50,ramble,POLICE,m,,,,,,0.344444463,-0.32314816,0,0,0,,0,145,145,232,1,
,,,,,,,,,,,,,,,,,,5e3d8f6b6b1c15033ce417f4,2020-08-10_12h46.10.731,lexical_decision_task_MP,2020.1.3,Win32,60,,m,1,0.509935,,,,,,,,0.509935,1,,,,,,143,WORD,"ID",50,reason,REASON,m,,,,,,0.344444463,-0.32314816,0,0,0,,0,146,146,82,1,
,,,,,,,,,,,,,,,,,,5e3d8f6b6b1c15033ce417f4,2020-08-10_12h46.10.731,lexical_decision_task_MP,2020.1.3,Win32,60,,m,1,0.522285,,,,,,,,0.522285,1,,,,,,114,WORD,"ID",33,placid,PLACID,m,,,,,,0.344444463,-0.32314816,0,0,0,,0,147,147,53,1,
,,,,,,,,,,,,,,,,,,5e3d8f6b6b1c15033ce417f4,2020-08-10_12h46.10.731,lexical_decision_task_MP,2020.1.3,Win32,60,,m,1,0.44564,,,,,,,,0.44564,1,,,,,,146,WORD,"ID",50,couple,COUPLE,m,,,,,,0.344444463,-0.32314816,0,0,0,,0,148,148,85,1,
,,,,,,,,,,,,,,,,,,5e3d8f6b6b1c15033ce417f4,2020-08-10_12h46.10.731,lexical_decision_task_MP,2020.1.3,Win32,60,,m,1,0.47526,,,,,,,,0.47526,1,,,,,,201,WORD,UN,33,factor,ADMIRE,m,,,,,,0.344444463,-0.32314816,0,0,0,,0,149,149,140,1,
,,,,,,,,,,,,,,,,,,5e3d8f6b6b1c15033ce417f4,2020-08-10_12h46.10.731,lexical_decision_task_MP,2020.1.3,Win32,60,,m,1,0.541515,,,,,,,,0.541515,1,,,,,,230,WORD,UN,33,mother,FRINGE,m,,,,,,0.344444463,-0.32314816,0,0,0,,0,150,150,169,1,
,,,,,,,,,,,,,,,,,,5e3d8f6b6b1c15033ce417f4,2020-08-10_12h46.10.731,lexical_decision_task_MP,2020.1.3,Win32,60,,m,1,0.57666,,,,,,,,0.57666,1,,,,,,177,WORD,"ID",50,advent,ADVENT,m,,,,,,0.344444463,-0.32314816,0,0,0,,0,151,151,116,1,
,,,,,,,,,,,,,,,,,,5e3d8f6b6b1c15033ce417f4,2020-08-10_12h46.10.731,lexical_decision_task_MP,2020.1.3,Win32,60,,z,1,1.184465,,,,,,,,1.184465,1,,,,,,335,NW,"ID",33,desion,DESION,z,,,,,,0.344444463,-0.32314816,0,0,0,,0,152,152,274,1,
,,,,,,,,,,,,,,,,,,5e3d8f6b6b1c15033ce417f4,2020-08-10_12h46.10.731,lexical_decision_task_MP,2020.1.3,Win32,60,,z,1,0.95262,,,,,,,,0.95262,1,,,,,,385,NW,"ID",50,veigma,VEIGMA,z,,,,,,0.344444463,-0.32314816,0,0,0,,0,153,153,324,1,
,,,,,,,,,,,,,,,,,,5e3d8f6b6b1c15033ce417f4,2020-08-10_12h46.10.731,lexical_decision_task_MP,2020.1.3,Win32,60,,z,1,0.63442,,,,,,,,0.63442,1,,,,,,381,NW,"ID",50,huniek,HUNIEK,z,,,,,,0.344444463,-0.32314816,0,0,0,,0,154,154,320,1,
,,,,,,,,,,,,,,,,,,5e3d8f6b6b1c15033ce417f4,2020-08-10_12h46.10.731,lexical_decision_task_MP,2020.1.3,Win32,60,,m,1,0.558095,,,,,,,,0.558095,1,,,,,,167,WORD,"ID",50,design,DESIGN,m,,,,,,0.344444463,-0.32314816,0,0,0,,0,155,155,106,1,
,,,,,,,,,,,,,,,,,,5e3d8f6b6b1c15033ce417f4,2020-08-10_12h46.10.731,lexical_decision_task_MP,2020.1.3,Win32,60,,m,1,0.669475,,,,,,,,0.669475,1,,,,,,211,WORD,UN,33,verify,INFECT,m,,,,,,0.344444463,-0.32314816,0,0,0,,0,156,156,150,1,
,,,,,,,,,,,,,,,,,,5e3d8f6b6b1c15033ce417f4,2020-08-10_12h46.10.731,lexical_decision_task_MP,2020.1.3,Win32,60,,z,1,0.94565,,,,,,,,0.94565,1,,,,,,449,NW,UN,33,phrect,BRUNGE,z,,,,,,0.344444463,-0.32314816,0,0,0,,0,157,157,388,1,
,,,,,,,,,,,,,,,,,,5e3d8f6b6b1c15033ce417f4,2020-08-10_12h46.10.731,lexical_decision_task_MP,2020.1.3,Win32,60,,z,1,0.704275,,,,,,,,0.704275,1,,,,,,463,NW,UN,33,chaite,KISPEL,z,,,,,,0.344444463,-0.32314816,0,0,0,,0,158,158,402,1,
,,,,,,,,,,,,,,,,,,5e3d8f6b6b1c15033ce417f4,2020-08-10_12h46.10.731,lexical_decision_task_MP,2020.1.3,Win32,60,,m,1,0.50923,,,,,,,,0.50923,1,,,,,,165,WORD,"ID",50,invest,INVEST,m,,,,,,0.344444463,-0.32314816,0,0,0,,0,159,159,104,1,
,,,,,,,,,,,,,,,,,,5e3d8f6b6b1c15033ce417f4,2020-08-10_12h46.10.731,lexical_decision_task_MP,2020.1.3,Win32,60,,z,1,0.70935,,,,,,,,0.70935,1,,,,,,434,NW,UN,33,impurb,PITROM,z,,,,,,0.344444463,-0.32314816,0,0,0,,0,160,160,373,1,
,,,,,,,,,,,,,,,,,,5e3d8f6b6b1c15033ce417f4,2020-08-10_12h46.10.731,lexical_decision_task_MP,2020.1.3,Win32,60,,m,1,0.73881,,,,,,,,0.73881,1,,,,,,35,WORD,UN,50,vanish,SOCKET,m,,,,,,0.344444463,-0.32314816,0,0,0,,0,161,161,214,1,
,,,,,,,,,,,,,,,,,,5e3d8f6b6b1c15033ce417f4,2020-08-10_12h46.10.731,lexical_decision_task_MP,2020.1.3,Win32,60,,m,1,0.52218,,,,,,,,0.52218,1,,,,,,157,WORD,"ID",50,dragon,DRAGON,m,,,,,,0.344444463,-0.32314816,0,0,0,,0,162,162,96,1,
,,,,,,,,,,,,,,,,,,5e3d8f6b6b1c15033ce417f4,2020-08-10_12h46.10.731,lexical_decision_task_MP,2020.1.3,Win32,60,,m,1,0.591725,,,,,,,,0.591725,1,,,,,,10,WORD,UN,50,cruise,ETHNIC,m,,,,,,0.344444463,-0.32314816,0,0,0,,0,163,163,189,1,
,,,,,,,,,,,,,,,,,,5e3d8f6b6b1c15033ce417f4,2020-08-10_12h46.10.731,lexical_decision_task_MP,2020.1.3,Win32,60,,m,1,0.42077,,,,,,,,0.42077,1,,,,,,62,WORD,"ID",33,region,REGION,m,,,,,,0.344444463,-0.32314816,0,0,0,,0,164,164,1,1,
,,,,,,,,,,,,,,,,,,5e3d8f6b6b1c15033ce417f4,2020-08-10_12h46.10.731,lexical_decision_task_MP,2020.1.3,Win32,60,,z,1,0.62823,,,,,,,,0.62823,1,,,,,,441,NW,UN,33,aboune,RASTOE,z,,,,,,0.344444463,-0.32314816,0,0,0,,0,165,165,380,1,
,,,,,,,,,,,,,,,,,,5e3d8f6b6b1c15033ce417f4,2020-08-10_12h46.10.731,lexical_decision_task_MP,2020.1.3,Win32,60,,m,1,0.48321,,,,,,,,0.48321,1,,,,,,175,WORD,"ID",50,fabric,FABRIC,m,,,,,,0.344444463,-0.32314816,0,0,0,,0,166,166,114,1,
,,,,,,,,,,,,,,,,,,5e3d8f6b6b1c15033ce417f4,2020-08-10_12h46.10.731,lexical_decision_task_MP,2020.1.3,Win32,60,,z,1,0.57079,,,,,,,,0.57079,1,,,,,,430,NW,UN,33,chrums,CAROEY,z,,,,,,0.344444463,-0.32314816,0,0,0,,0,167,167,369,1,
,,,,,,,,,,,,,,,,,,5e3d8f6b6b1c15033ce417f4,2020-08-10_12h46.10.731,lexical_decision_task_MP,2020.1.3,Win32,60,,z,1,0.66204,,,,,,,,0.66204,1,,,,,,439,NW,UN,33,saride,LIMPOR,z,,,,,,0.344444463,-0.32314816,0,0,0,,0,168,168,378,1,
,,,,,,,,,,,,,,,,,,5e3d8f6b6b1c15033ce417f4,2020-08-10_12h46.10.731,lexical_decision_task_MP,2020.1.3,Win32,60,,z,1,0.56073,,,,,,,,0.56073,1,,,,,,424,NW,UN,33,frudge,PRAILE,z,,,,,,0.344444463,-0.32314816,0,0,0,,0,169,169,363,1,
,,,,,,,,,,,,,,,,,,5e3d8f6b6b1c15033ce417f4,2020-08-10_12h46.10.731,lexical_decision_task_MP,2020.1.3,Win32,60,,m,1,0.559405,,,,,,,,0.559405,1,,,,,,55,WORD,UN,50,ambush,STROKE,m,,,,,,0.344444463,-0.32314816,0,0,0,,0,170,170,234,1,
,,,,,,,,,,,,,,,,,,5e3d8f6b6b1c15033ce417f4,2020-08-10_12h46.10.731,lexical_decision_task_MP,2020.1.3,Win32,60,,z,1,0.59421,,,,,,,,0.59421,1,,,,,,451,NW,UN,33,surden,CAINKY,z,,,,,,0.344444463,-0.32314816,0,0,0,,0,171,171,390,1,
,,,,,,,,,,,,,,,,,,5e3d8f6b6b1c15033ce417f4,2020-08-10_12h46.10.731,lexical_decision_task_MP,2020.1.3,Win32,60,,m,1,0.45409,,,,,,,,0.45409,1,,,,,,213,WORD,UN,33,intake,SQUEAL,m,,,,,,0.344444463,-0.318518531,0,0,0,,0,172,172,152,1,
,,,,,,,,,,,,,,,,,,5e3d8f6b6b1c15033ce417f4,2020-08-10_12h46.10.731,lexical_decision_task_MP,2020.1.3,Win32,60,,m,0,0.91675,,,,,,,,0.91675,0,,,,,,340,NW,"ID",33,fiatch,FIATCH,z,,,,,,0.344444463,-0.318518531,0,0,0,,0,173,173,279,1,
,,,,,,,,,,,,,,,,,,5e3d8f6b6b1c15033ce417f4,2020-08-10_12h46.10.731,lexical_decision_task_MP,2020.1.3,Win32,60,,m,1,0.581885,,,,,,,,0.581885,1,,,,,,45,WORD,UN,50,single,CLERGY,m,,,,,,0.344444463,-0.318518531,0,0,0,,0,174,174,224,1,
,,,,,,,,,,,,,,,,,,5e3d8f6b6b1c15033ce417f4,2020-08-10_12h46.10.731,lexical_decision_task_MP,2020.1.3,Win32,60,,z,1,0.46759,,,,,,,,0.46759,1,,,,,,406,NW,"ID",50,nouply,NOUPLY,z,,,,,,0.344444463,-0.318518531,0,0,0,,0,175,175,345,1,
,,,,,,,,,,,,,,,,,,5e3d8f6b6b1c15033ce417f4,2020-08-10_12h46.10.731,lexical_decision_task_MP,2020.1.3,Win32,60,,z,1,0.70547,,,,,,,,0.70547,1,,,,,,301,NW,"ID",33,fainch,FAINCH,z,,,,,,0.344444463,-0.318518531,0,0,0,,0,176,176,240,1,
,,,,,,,,,,,,,,,,,,5e3d8f6b6b1c15033ce417f4,2020-08-10_12h46.10.731,lexical_decision_task_MP,2020.1.3,Win32,60,,m,1,0.616335,,,,,,,,0.616335,1,,,,,,107,WORD,"ID",33,slogan,SLOGAN,m,,,,,,0.344444463,-0.318518531,0,0,0,,0,177,177,46,1,
,,,,,,,,,,,,,,,,,,5e3d8f6b6b1c15033ce417f4,2020-08-10_12h46.10.731,lexical_decision_task_MP,2020.1.3,Win32,60,,m,1,0.57195,,,,,,,,0.57195,1,,,,,,208,WORD,UN,33,search,HOCKEY,m,,,,,,0.344444463,-0.318518531,0,0,0,,0,178,178,147,1,
,,,,,,,,,,,,,,,,,,5e3d8f6b6b1c15033ce417f4,2020-08-10_12h46.10.731,lexical_decision_task_MP,2020.1.3,Win32,60,,m,1,0.52029,,,,,,,,0.52029,1,,,,,,129,WORD,"ID",50,marvel,MARVEL,m,,,,,,0.344444463,-0.318518531,0,0,0,,0,179,179,68,1,
,,,,,,,,,,,,,,,,,,5e3d8f6b6b1c15033ce417f4,2020-08-10_12h46.10.731,lexical_decision_task_MP,2020.1.3,Win32,60,,m,1,0.613685,,,,,,,,0.613685,1,,,,,,185,WORD,UN,33,portal,BOTHER,m,,,,,,0.344444463,-0.318518531,0,0,0,,0,180,180,124,1,
,,,,,,,,,,,,,,,,,,5e3d8f6b6b1c15033ce417f4,2020-08-10_12h46.10.731,lexical_decision_task_MP,2020.1.3,Win32,60,,z,1,0.758055,,,,,,,,0.758055,1,,,,,,298,NW,UN,50,sturch,PIERGY,z,,,,,,0.344444463,-0.318518531,0,0,0,,0,181,181,477,1,
,,,,,,,,,,,,,,,,,,5e3d8f6b6b1c15033ce417f4,2020-08-10_12h46.10.731,lexical_decision_task_MP,2020.1.3,Win32,60,,z,1,0.796745,,,,,,,,0.796745,1,,,,,,320,NW,"ID",33,jockal,JOCKAL,z,,,,,,0.344444463,-0.318518531,0,0,0,,0,182,182,259,1,
,,,,,,,,,,,,,,,,,,5e3d8f6b6b1c15033ce417f4,2020-08-10_12h46.10.731,lexical_decision_task_MP,2020.1.3,Win32,60,,z,1,0.653615,,,,,,,,0.653615,1,,,,,,410,NW,"ID",50,tunory,TUNORY,z,,,,,,0.344444463,-0.318518531,0,0,0,,0,183,183,349,1,
,,,,,,,,,,,,,,,,,,5e3d8f6b6b1c15033ce417f4,2020-08-10_12h46.10.731,lexical_decision_task_MP,2020.1.3,Win32,60,,m,1,0.49085,,,,,,,,0.49085,1,,,,,,235,WORD,UN,33,pirate,GRUMPY,m,,,,,,0.344444463,-0.318518531,0,0,0,,0,184,184,174,1,
,,,,,,,,,,,,,,,,,,5e3d8f6b6b1c15033ce417f4,2020-08-10_12h46.10.731,lexical_decision_task_MP,2020.1.3,Win32,60,,m,1,0.9633,,,,,,,,0.9633,1,,,,,,5,WORD,UN,50,bundle,PLUNGE,m,,,,,,0.344444463,-0.318518531,0,0,0,,0,185,185,184,1,
,,,,,,,,,,,,,,,,,,5e3d8f6b6b1c15033ce417f4,2020-08-10_12h46.10.731,lexical_decision_task_MP,2020.1.3,Win32,60,,z,1,0.586985,,,,,,,,0.586985,1,,,,,,478,NW,UN,33,pebric,ACRISE,z,,,,,,0.344444463,-0.318518531,0,0,0,,0,186,186,417,1,
,,,,,,,,,,,,,,,,,,5e3d8f6b6b1c15033ce417f4,2020-08-10_12h46.10.731,lexical_decision_task_MP,2020.1.3,Win32,60,,z,1,0.890605,,,,,,,,0.890605,1,,,,,,274,NW,UN,50,sleirt,FUMBLO,z,,,,,,0.344444463,-0.318518531,0,0,0,,0,187,187,453,1,
,,,,,,,,,,,,,,,,,,5e3d8f6b6b1c15033ce417f4,2020-08-10_12h46.10.731,lexical_decision_task_MP,2020.1.3,Win32,60,,m,1,0.51103,,,,,,,,0.51103,1,,,,,,54,WORD,UN,50,stroke,RAMBLE,m,,,,,,0.344444463,-0.318518531,0,0,0,,0,188,188,233,1,
,,,,,,,,,,,,,,,,,,5e3d8f6b6b1c15033ce417f4,2020-08-10_12h46.10.731,lexical_decision_task_MP,2020.1.3,Win32,60,,z,1,0.58332,,,,,,,,0.58332,1,,,,,,339,NW,"ID",33,fachow,FACHOW,z,,,,,,0.344444463,-0.318518531,0,0,0,,0,189,189,278,1,
,,,,,,,,,,,,,,,,,,5e3d8f6b6b1c15033ce417f4,2020-08-10_12h46.10.731,lexical_decision_task_MP,2020.1.3,Win32,60,,m,1,0.763935,,,,,,,,0.763935,1,,,,,,48,WORD,UN,50,survey,WALNUT,m,,,,,,0.344444463,-0.318518531,0,0,0,,0,190,190,227,1,
,,,,,,,,,,,,,,,,,,5e3d8f6b6b1c15033ce417f4,2020-08-10_12h46.10.731,lexical_decision_task_MP,2020.1.3,Win32,60,,z,1,0.68103,,,,,,,,0.68103,1,,,,,,374,NW,"ID",50,sliant,SLIANT,z,,,,,,0.344444463,-0.318518531,0,0,0,,0,191,191,313,1,
,,,,,,,,,,,,,,,,,,5e3d8f6b6b1c15033ce417f4,2020-08-10_12h46.10.731,lexical_decision_task_MP,2020.1.3,Win32,60,,z,1,0.69242,,,,,,,,0.69242,1,,,,,,471,NW,UN,33,cigney,NOBEST,z,,,,,,0.344444463,-0.318518531,0,0,0,,0,192,192,410,1,
,,,,,,,,,,,,,,,,,,5e3d8f6b6b1c15033ce417f4,2020-08-10_12h46.10.731,lexical_decision_task_MP,2020.1.3,Win32,60,,z,1,0.52373,,,,,,,,0.52373,1,,,,,,369,NW,"ID",50,wronch,WRONCH,z,,,,,,0.344444463,-0.318518531,0,0,0,,0,193,193,308,1,
,,,,,,,,,,,,,,,,,,5e3d8f6b6b1c15033ce417f4,2020-08-10_12h46.10.731,lexical_decision_task_MP,2020.1.3,Win32,60,,m,1,0.46147,,,,,,,,0.46147,1,,,,,,168,WORD,"ID",50,answer,ANSWER,m,,,,,,0.344444463,-0.318518531,0,0,0,,0,194,194,107,1,
,,,,,,,,,,,,,,,,,,5e3d8f6b6b1c15033ce417f4,2020-08-10_12h46.10.731,lexical_decision_task_MP,2020.1.3,Win32,60,,m,1,0.57899,,,,,,,,0.57899,1,,,,,,120,WORD,"ID",33,strain,STRAIN,m,,,,,,0.344444463,-0.318518531,0,0,0,,0,195,195,59,1,
,,,,,,,,,,,,,,,,,,5e3d8f6b6b1c15033ce417f4,2020-08-10_12h46.10.731,lexical_decision_task_MP,2020.1.3,Win32,60,,z,1,0.606375,,,,,,,,0.606375,1,,,,,,391,NW,"ID",50,theldy,THELDY,z,,,,,,0.344444463,-0.318518531,0,0,0,,0,196,196,330,1,
,,,,,,,,,,,,,,,,,,5e3d8f6b6b1c15033ce417f4,2020-08-10_12h46.10.731,lexical_decision_task_MP,2020.1.3,Win32,60,,z,1,0.593355,,,,,,,,0.593355,1,,,,,,275,NW,UN,50,yarmon,SLEIRT,z,,,,,,0.344444463,-0.318518531,0,0,0,,0,197,197,454,1,
,,,,,,,,,,,,,,,,,,5e3d8f6b6b1c15033ce417f4,2020-08-10_12h46.10.731,lexical_decision_task_MP,2020.1.3,Win32,60,,m,1,0.61663,,,,,,,,0.61663,1,,,,,,123,WORD,"ID",50,strike,STRIKE,m,,,,,,0.344444463,-0.318518531,0,0,0,,0,198,198,62,1,
,,,,,,,,,,,,,,,,,,5e3d8f6b6b1c15033ce417f4,2020-08-10_12h46.10.731,lexical_decision_task_MP,2020.1.3,Win32,60,,m,1,0.552225,,,,,,,,0.552225,1,,,,,,163,WORD,"ID",50,string,STRING,m,,,,,,0.344444463,-0.318518531,0,0,0,,0,199,199,102,1,
,,,,,,,,,,,,,,,,,,5e3d8f6b6b1c15033ce417f4,2020-08-10_12h46.10.731,lexical_decision_task_MP,2020.1.3,Win32,60,,z,1,0.55888,,,,,,,,0.55888,1,,,,,,279,NW,UN,50,curbol,CELOND,z,,,,,,0.344444463,-0.318518531,0,0,0,,0,200,200,458,1,
,,,,,,,,,,,,,,,,,,5e3d8f6b6b1c15033ce417f4,2020-08-10_12h46.10.731,lexical_decision_task_MP,2020.1.3,Win32,60,,z,1,0.613295,,,,,,,,0.613295,1,,,,,,304,NW,"ID",33,cludie,CLUDIE,z,,,,,,0.344444463,-0.318518531,0,0,0,,0,201,201,243,1,
,,,,,,,,,,,,,,,,,,5e3d8f6b6b1c15033ce417f4,2020-08-10_12h46.10.731,lexical_decision_task_MP,2020.1.3,Win32,60,,z,1,0.90949,,,,,,,,0.90949,1,,,,,,348,NW,"ID",33,dumple,DUMPLE,z,,,,,,0.344444463,-0.318518531,0,0,0,,0,202,202,287,1,
,,,,,,,,,,,,,,,,,,5e3d8f6b6b1c15033ce417f4,2020-08-10_12h46.10.731,lexical_decision_task_MP,2020.1.3,Win32,60,,z,1,0.709695,,,,,,,,0.709695,1,,,,,,468,NW,UN,33,padifs,WICTOR,z,,,,,,0.344444463,-0.318518531,0,0,0,,0,203,203,407,1,
,,,,,,,,,,,,,,,,,,5e3d8f6b6b1c15033ce417f4,2020-08-10_12h46.10.731,lexical_decision_task_MP,2020.1.3,Win32,60,,z,1,0.50489,,,,,,,,0.50489,1,,,,,,371,NW,"ID",50,geiloy,GEILOY,z,,,,,,0.344444463,-0.318518531,0,0,0,,0,204,204,310,1,
,,,,,,,,,,,,,,,,,,5e3d8f6b6b1c15033ce417f4,2020-08-10_12h46.10.731,lexical_decision_task_MP,2020.1.3,Win32,60,,z,1,0.71046,,,,,,,,0.71046,1,,,,,,454,NW,UN,33,tondle,SCOUGE,z,,,,,,0.344444463,-0.318518531,0,0,0,,0,205,205,393,1,
,,,,,,,,,,,,,,,,,,5e3d8f6b6b1c15033ce417f4,2020-08-10_12h46.10.731,lexical_decision_task_MP,2020.1.3,Win32,60,,z,1,0.538615,,,,,,,,0.538615,1,,,,,,448,NW,UN,33,brunge,SADENT,z,,,,,,0.344444463,-0.318518531,0,0,0,,0,206,206,387,1,
,,,,,,,,,,,,,,,,,,5e3d8f6b6b1c15033ce417f4,2020-08-10_12h46.10.731,lexical_decision_task_MP,2020.1.3,Win32,60,,m,1,0.5501,,,,,,,,0.5501,1,,,,,,21,WORD,UN,50,jockey,SIMPLE,m,,,,,,0.344444463,-0.318518531,0,0,0,,0,207,207,200,1,
,,,,,,,,,,,,,,,,,,5e3d8f6b6b1c15033ce417f4,2020-08-10_12h46.10.731,lexical_decision_task_MP,2020.1.3,Win32,60,,z,1,0.96738,,,,,,,,0.96738,1,,,,,,402,NW,"ID",50,syntic,SYNTIC,z,,,,,,0.344444463,-0.318518531,0,0,0,,0,208,208,341,1,
,,,,,,,,,,,,,,,,,,5e3d8f6b6b1c15033ce417f4,2020-08-10_12h46.10.731,lexical_decision_task_MP,2020.1.3,Win32,60,,z,1,0.588625,,,,,,,,0.588625,1,,,,,,450,NW,UN,33,cainky,PHRECT,z,,,,,,0.344444463,-0.318518531,0,0,0,,0,209,209,389,1,
,,,,,,,,,,,,,,,,,,5e3d8f6b6b1c15033ce417f4,2020-08-10_12h46.10.731,lexical_decision_task_MP,2020.1.3,Win32,60,,z,0,0.49645,,,,,,,,0.49645,0,,,,,,220,WORD,UN,33,mascot,VOYAGE,m,,,,,,0.344444463,-0.318518531,0,0,0,,0,210,210,159,1,
,,,,,,,,,,,,,,,,,,5e3d8f6b6b1c15033ce417f4,2020-08-10_12h46.10.731,lexical_decision_task_MP,2020.1.3,Win32,60,,z,1,0.718005,,,,,,,,0.718005,1,,,,,,319,NW,"ID",33,zomber,ZOMBER,z,,,,,,0.344444463,-0.318518531,0,0,0,,0,211,211,258,1,
,,,,,,,,,,,,,,,,,,5e3d8f6b6b1c15033ce417f4,2020-08-10_12h46.10.731,lexical_decision_task_MP,2020.1.3,Win32,60,,m,1,0.713465,,,,,,,,0.713465,1,,,,,,101,WORD,"ID",33,wrench,WRENCH,m,,,,,,0.344444463,-0.318518531,0,0,0,,0,212,212,40,1,
,,,,,,,,,,,,,,,,,,5e3d8f6b6b1c15033ce417f4,2020-08-10_12h46.10.731,lexical_decision_task_MP,2020.1.3,Win32,60,,z,1,0.71055,,,,,,,,0.71055,1,,,,,,460,NW,UN,33,justre,MINGAR,z,,,,,,0.344444463,-0.318518531,0,0,0,,0,213,213,399,1,
,,,,,,,,,,,,,,,,,,5e3d8f6b6b1c15033ce417f4,2020-08-10_12h46.10.731,lexical_decision_task_MP,2020.1.3,Win32,60,,m,1,0.487105,,,,,,,,0.487105,1,,,,,,81,WORD,"ID",33,friend,FRIEND,m,,,,,,0.344444463,-0.318518531,0,0,0,,0,214,214,20,1,
,,,,,,,,,,,,,,,,,,5e3d8f6b6b1c15033ce417f4,2020-08-10_12h46.10.731,lexical_decision_task_MP,2020.1.3,Win32,60,,z,1,0.654185,,,,,,,,0.654185,1,,,,,,377,NW,"ID",50,injore,INJORE,z,,,,,,0.344444463,-0.318518531,0,0,0,,0,215,215,316,1,
,,,,,,,,,,,,,,,,,,5e3d8f6b6b1c15033ce417f4,2020-08-10_12h46.10.731,lexical_decision_task_MP,2020.1.3,Win32,60,,z,1,0.669175,,,,,,,,0.669175,1,,,,,,431,NW,UN,33,lunker,CHRUMS,z,,,,,,0.344444463,-0.318518531,0,0,0,,0,216,216,370,1,
,,,,,,,,,,,,,,,,,,5e3d8f6b6b1c15033ce417f4,2020-08-10_12h46.10.731,lexical_decision_task_MP,2020.1.3,Win32,60,,m,1,0.563775,,,,,,,,0.563775,1,,,,,,76,WORD,"ID",33,exotic,EXOTIC,m,,,,,,0.344444463,-0.318518531,0,0,0,,0,217,217,15,1,
,,,,,,,,,,,,,,,,,,5e3d8f6b6b1c15033ce417f4,2020-08-10_12h46.10.731,lexical_decision_task_MP,2020.1.3,Win32,60,,m,1,0.65095,,,,,,,,0.65095,1,,,,,,60,WORD,UN,50,fright,PENCIL,m,,,,,,0.344444463,-0.318518531,0,0,0,,0,218,218,239,1,
,,,,,,,,,,,,,,,,,,5e3d8f6b6b1c15033ce417f4,2020-08-10_12h46.10.731,lexical_decision_task_MP,2020.1.3,Win32,60,,z,1,0.66746,,,,,,,,0.66746,1,,,,,,252,NW,UN,50,resait,STAPOD,z,,,,,,0.344444463,-0.318518531,0,0,0,,0,219,219,431,1,
,,,,,,,,,,,,,,,,,,5e3d8f6b6b1c15033ce417f4,2020-08-10_12h46.10.731,lexical_decision_task_MP,2020.1.3,Win32,60,,z,1,0.61197,,,,,,,,0.61197,1,,,,,,255,NW,UN,50,inlors,APIGHT,z,,,,,,0.344444463,-0.318518531,0,0,0,,0,220,220,434,1,
,,,,,,,,,,,,,,,,,,5e3d8f6b6b1c15033ce417f4,2020-08-10_12h46.10.731,lexical_decision_task_MP,2020.1.3,Win32,60,,m,1,0.50405,,,,,,,,0.50405,1,,,,,,127,WORD,"ID",50,castle,CASTLE,m,,,,,,0.344444463,-0.318518531,0,0,0,,0,221,221,66,1,
,,,,,,,,,,,,,,,,,,5e3d8f6b6b1c15033ce417f4,2020-08-10_12h46.10.731,lexical_decision_task_MP,2020.1.3,Win32,60,,z,1,0.68781,,,,,,,,0.68781,1,,,,,,297,NW,UN,50,piergy,FERTIC,z,,,,,,0.344444463,-0.318518531,0,0,0,,0,222,222,476,1,
,,,,,,,,,,,,,,,,,,5e3d8f6b6b1c15033ce417f4,2020-08-10_12h46.10.731,lexical_decision_task_MP,2020.1.3,Win32,60,,z,1,0.68504,,,,,,,,0.68504,1,,,,,,423,NW,UN,33,praile,STRELD,z,,,,,,0.344444463,-0.318518531,0,0,0,,0,223,223,362,1,
,,,,,,,,,,,,,,,,,,5e3d8f6b6b1c15033ce417f4,2020-08-10_12h46.10.731,lexical_decision_task_MP,2020.1.3,Win32,60,,z,1,1.327885,,,,,,,,1.327885,1,,,,,,345,NW,"ID",33,absend,ABSEND,z,,,,,,0.344444463,-0.318518531,0,0,0,,0,224,224,284,1,
,,,,,,,,,,,,,,,,,,5e3d8f6b6b1c15033ce417f4,2020-08-10_12h46.10.731,lexical_decision_task_MP,2020.1.3,Win32,60,,m,1,0.418295,,,,,,,,0.418295,1,,,,,,153,WORD,"ID",50,behold,BEHOLD,m,,,,,,0.344444463,-0.318518531,0,0,0,,0,225,225,92,1,
,,,,,,,,,,,,,,,,,,5e3d8f6b6b1c15033ce417f4,2020-08-10_12h46.10.731,lexical_decision_task_MP,2020.1.3,Win32,60,,z,1,0.87217,,,,,,,,0.87217,1,,,,,,338,NW,"ID",33,wreash,WREASH,z,,,,,,0.344444463,-0.318518531,0,0,0,,0,226,226,277,1,
,,,,,,,,,,,,,,,,,,5e3d8f6b6b1c15033ce417f4,2020-08-10_12h46.10.731,lexical_decision_task_MP,2020.1.3,Win32,60,,z,1,0.602975,,,,,,,,0.602975,1,,,,,,309,NW,"ID",33,amiloy,AMILOY,z,,,,,,0.344444463,-0.318518531,0,0,0,,0,227,227,248,1,
,,,,,,,,,,,,,,,,,,5e3d8f6b6b1c15033ce417f4,2020-08-10_12h46.10.731,lexical_decision_task_MP,2020.1.3,Win32,60,,z,1,0.73303,,,,,,,,0.73303,1,,,,,,475,NW,UN,33,josted,PEBRIC,z,,,,,,0.344444463,-0.318518531,0,0,0,,0,228,228,414,1,
,,,,,,,,,,,,,,,,,,5e3d8f6b6b1c15033ce417f4,2020-08-10_12h46.10.731,lexical_decision_task_MP,2020.1.3,Win32,60,,z,1,1.431565,,,,,,,,1.431565,1,,,,,,422,NW,UN,33,streld,ALCOUD,z,,,,,,0.344444463,-0.318518531,0,0,0,,0,229,229,361,1,
,,,,,,,,,,,,,,,,,,5e3d8f6b6b1c15033ce417f4,2020-08-10_12h46.10.731,lexical_decision_task_MP,2020.1.3,Win32,60,,m,1,0.509725,,,,,,,,0.509725,1,,,,,,2,WORD,UN,50,knight,BRIDGE,m,,,,,,0.344444463,-0.318518531,0,0,0,,0,230,230,181,1,
,,,,,,,,,,,,,,,,,,5e3d8f6b6b1c15033ce417f4,2020-08-10_12h46.10.731,lexical_decision_task_MP,2020.1.3,Win32,60,,m,1,0.490795,,,,,,,,0.490795,1,,,,,,70,WORD,"ID",33,square,SQUARE,m,,,,,,0.344444463,-0.318518531,0,0,0,,0,231,231,9,1,
,,,,,,,,,,,,,,,,,,5e3d8f6b6b1c15033ce417f4,2020-08-10_12h46.10.731,lexical_decision_task_MP,2020.1.3,Win32,60,,z,1,0.60674,,,,,,,,0.60674,1,,,,,,480,NW,UN,33,knisma,ROBULY,z,,,,,,0.344444463,-0.318518531,0,0,0,,0,232,232,419,1,
,,,,,,,,,,,,,,,,,,5e3d8f6b6b1c15033ce417f4,2020-08-10_12h46.10.731,lexical_decision_task_MP,2020.1.3,Win32,60,,z,1,0.47104,,,,,,,,0.47104,1,,,,,,271,NW,UN,50,damilt,AUBRID,z,,,,,,0.344444463,-0.318518531,0,0,0,,0,233,233,450,1,
,,,,,,,,,,,,,,,,,,5e3d8f6b6b1c15033ce417f4,2020-08-10_12h46.10.731,lexical_decision_task_MP,2020.1.3,Win32,60,,z,1,0.51688,,,,,,,,0.51688,1,,,,,,288,NW,UN,50,starby,YACEUP,z,,,,,,0.344444463,-0.318518531,0,0,0,,0,234,234,467,1,
,,,,,,,,,,,,,,,,,,5e3d8f6b6b1c15033ce417f4,2020-08-10_12h46.10.731,lexical_decision_task_MP,2020.1.3,Win32,60,,z,1,0.47554,,,,,,,,0.47554,1,,,,,,359,NW,"ID",33,fonver,FONVER,z,,,,,,0.344444463,-0.318518531,0,0,0,,0,235,235,298,1,
,,,,,,,,,,,,,,,,,,5e3d8f6b6b1c15033ce417f4,2020-08-10_12h46.10.731,lexical_decision_task_MP,2020.1.3,Win32,60,,z,0,0.44652,,,,,,,,0.44652,0,,,,,,100,WORD,"ID",33,carbon,CARBON,m,,,,,,0.344444463,-0.318518531,0,0,0,,0,236,236,39,1,
,,,,,,,,,,,,,,,,,,5e3d8f6b6b1c15033ce417f4,2020-08-10_12h46.10.731,lexical_decision_task_MP,2020.1.3,Win32,60,,z,1,0.869815,,,,,,,,0.869815,1,,,,,,246,NW,UN,50,blarge,PIATON,z,,,,,,0.344444463,-0.318518531,0,0,0,,0,237,237,425,1,
,,,,,,,,,,,,,,,,,,5e3d8f6b6b1c15033ce417f4,2020-08-10_12h46.10.731,lexical_decision_task_MP,2020.1.3,Win32,60,,m,1,0.51558,,,,,,,,0.51558,1,,,,,,238,WORD,UN,33,behalf,FLOWER,m,,,,,,0.344444463,-0.318518531,0,0,0,,0,238,238,177,1,
,,,,,,,,,,,,,,,,,,5e3d8f6b6b1c15033ce417f4,2020-08-10_12h46.10.731,lexical_decision_task_MP,2020.1.3,Win32,60,,m,1,0.53884,,,,,,,,0.53884,1,,,,,,183,WORD,UN,33,sleazy,MILDEW,m,,,,,,0.344444463,-0.318518531,0,0,0,,0,239,239,122,1,
,,,,,,,,,,,,,,,,,,5e3d8f6b6b1c15033ce417f4,2020-08-10_12h46.10.731,lexical_decision_task_MP,2020.1.3,Win32,60,,m,1,0.45669,,,,,,,,0.45669,1,,,,,,132,WORD,"ID",50,strong,STRONG,m,,,,,,0.344444463,-0.318518531,0,0,0,,0,240,240,71,1,
,,,,,,,,,,,,,,,,,,5e3d8f6b6b1c15033ce417f4,2020-08-10_12h46.10.731,lexical_decision_task_MP,2020.1.3,Win32,60,,m,1,0.45382,,,,,,,,0.45382,1,,,,,,170,WORD,"ID",50,pounce,POUNCE,m,,,,,,0.344444463,-0.318518531,0,0,0,space,0,241,241,109,1,17.2073
,,,,,,,,,,,,,,,,,,5e3d8f6b6b1c15033ce417f4,2020-08-10_12h46.10.731,lexical_decision_task_MP,2020.1.3,Win32,60,,z,1,0.69585,,,,,,,,0.69585,1,,,,,,355,NW,"ID",33,zingly,ZINGLY,z,,,,,,0.344444463,-0.318518531,0,0,0,,0,242,242,294,1,
,,,,,,,,,,,,,,,,,,5e3d8f6b6b1c15033ce417f4,2020-08-10_12h46.10.731,lexical_decision_task_MP,2020.1.3,Win32,60,,m,1,0.516845,,,,,,,,0.516845,1,,,,,,210,WORD,UN,33,infect,MONKEY,m,,,,,,0.344444463,-0.318518531,0,0,0,,0,243,243,149,1,
,,,,,,,,,,,,,,,,,,5e3d8f6b6b1c15033ce417f4,2020-08-10_12h46.10.731,lexical_decision_task_MP,2020.1.3,Win32,60,,z,1,0.600145,,,,,,,,0.600145,1,,,,,,443,NW,UN,33,jaunce,DORSEX,z,,,,,,0.344444463,-0.318518531,0,0,0,,0,244,244,382,1,
,,,,,,,,,,,,,,,,,,5e3d8f6b6b1c15033ce417f4,2020-08-10_12h46.10.731,lexical_decision_task_MP,2020.1.3,Win32,60,,m,1,0.44235,,,,,,,,0.44235,1,,,,,,103,WORD,"ID",33,bounce,BOUNCE,m,,,,,,0.344444463,-0.318518531,0,0,0,,0,245,245,42,1,
,,,,,,,,,,,,,,,,,,5e3d8f6b6b1c15033ce417f4,2020-08-10_12h46.10.731,lexical_decision_task_MP,2020.1.3,Win32,60,,z,1,0.586555,,,,,,,,0.586555,1,,,,,,287,NW,UN,50,yaceup,NYMBEL,z,,,,,,0.344444463,-0.318518531,0,0,0,,0,246,246,466,1,
,,,,,,,,,,,,,,,,,,5e3d8f6b6b1c15033ce417f4,2020-08-10_12h46.10.731,lexical_decision_task_MP,2020.1.3,Win32,60,,z,1,0.634325,,,,,,,,0.634325,1,,,,,,262,NW,UN,50,dolica,QUILEW,z,,,,,,0.344444463,-0.318518531,0,0,0,,0,247,247,441,1,
,,,,,,,,,,,,,,,,,,5e3d8f6b6b1c15033ce417f4,2020-08-10_12h46.10.731,lexical_decision_task_MP,2020.1.3,Win32,60,,m,1,0.444965,,,,,,,,0.444965,1,,,,,,173,WORD,"ID",50,shower,SHOWER,m,,,,,,0.344444463,-0.318518531,0,0,0,,0,248,248,112,1,
,,,,,,,,,,,,,,,,,,5e3d8f6b6b1c15033ce417f4,2020-08-10_12h46.10.731,lexical_decision_task_MP,2020.1.3,Win32,60,,z,1,1.574365,,,,,,,,1.574365,1,,,,,,321,NW,"ID",33,miator,MIATOR,z,,,,,,0.344444463,-0.318518531,0,0,0,,0,249,249,260,1,
,,,,,,,,,,,,,,,,,,5e3d8f6b6b1c15033ce417f4,2020-08-10_12h46.10.731,lexical_decision_task_MP,2020.1.3,Win32,60,,z,1,0.51709,,,,,,,,0.51709,1,,,,,,346,NW,"ID",33,saudic,SAUDIC,z,,,,,,0.344444463,-0.318518531,0,0,0,,0,250,250,285,1,
,,,,,,,,,,,,,,,,,,5e3d8f6b6b1c15033ce417f4,2020-08-10_12h46.10.731,lexical_decision_task_MP,2020.1.3,Win32,60,,m,1,0.9083,,,,,,,,0.9083,1,,,,,,227,WORD,UN,33,master,SELDOM,m,,,,,,0.344444463,-0.318518531,0,0,0,,0,251,251,166,1,
,,,,,,,,,,,,,,,,,,5e3d8f6b6b1c15033ce417f4,2020-08-10_12h46.10.731,lexical_decision_task_MP,2020.1.3,Win32,60,,z,1,1.178745,,,,,,,,1.178745,1,,,,,,400,NW,"ID",50,wearox,WEAROX,z,,,,,,0.344444463,-0.318518531,0,0,0,,0,252,252,339,1,
,,,,,,,,,,,,,,,,,,5e3d8f6b6b1c15033ce417f4,2020-08-10_12h46.10.731,lexical_decision_task_MP,2020.1.3,Win32,60,,m,1,0.50534,,,,,,,,0.50534,1,,,,,,90,WORD,"ID",33,relish,RELISH,m,,,,,,0.344444463,-0.318518531,0,0,0,,0,253,253,29,1,
,,,,,,,,,,,,,,,,,,5e3d8f6b6b1c15033ce417f4,2020-08-10_12h46.10.731,lexical_decision_task_MP,2020.1.3,Win32,60,,m,1,0.744655,,,,,,,,0.744655,1,,,,,,28,WORD,UN,50,sketch,COMEDY,m,,,,,,0.344444463,-0.318518531,0,0,0,,0,254,254,207,1,
,,,,,,,,,,,,,,,,,,5e3d8f6b6b1c15033ce417f4,2020-08-10_12h46.10.731,lexical_decision_task_MP,2020.1.3,Win32,60,,m,1,0.505585,,,,,,,,0.505585,1,,,,,,144,WORD,"ID",50,sponge,SPONGE,m,,,,,,0.344444463,-0.318518531,0,0,0,,0,255,255,83,1,
,,,,,,,,,,,,,,,,,,5e3d8f6b6b1c15033ce417f4,2020-08-10_12h46.10.731,lexical_decision_task_MP,2020.1.3,Win32,60,,z,1,0.75319,,,,,,,,0.75319,1,,,,,,473,NW,UN,33,hablin,CRIBLE,z,,,,,,0.344444463,-0.318518531,0,0,0,,0,256,256,412,1,
,,,,,,,,,,,,,,,,,,5e3d8f6b6b1c15033ce417f4,2020-08-10_12h46.10.731,lexical_decision_task_MP,2020.1.3,Win32,60,,z,1,0.56403,,,,,,,,0.56403,1,,,,,,265,NW,UN,50,varmit,DISTAR,z,,,,,,0.344444463,-0.318518531,0,0,0,,0,257,257,444,1,
,,,,,,,,,,,,,,,,,,5e3d8f6b6b1c15033ce417f4,2020-08-10_12h46.10.731,lexical_decision_task_MP,2020.1.3,Win32,60,,z,1,0.49552,,,,,,,,0.49552,1,,,,,,357,NW,"ID",33,derain,DERAIN,z,,,,,,0.344444463,-0.318518531,0,0,0,,0,258,258,296,1,
,,,,,,,,,,,,,,,,,,5e3d8f6b6b1c15033ce417f4,2020-08-10_12h46.10.731,lexical_decision_task_MP,2020.1.3,Win32,60,,m,1,0.454195,,,,,,,,0.454195,1,,,,,,65,WORD,"ID",33,symbol,SYMBOL,m,,,,,,0.344444463,-0.318518531,0,0,0,,0,259,259,4,1,
,,,,,,,,,,,,,,,,,,5e3d8f6b6b1c15033ce417f4,2020-08-10_12h46.10.731,lexical_decision_task_MP,2020.1.3,Win32,60,,z,1,0.586405,,,,,,,,0.586405,1,,,,,,455,NW,UN,33,broget,TONDLE,z,,,,,,0.344444463,-0.318518531,0,0,0,,0,260,260,394,1,
,,,,,,,,,,,,,,,,,,5e3d8f6b6b1c15033ce417f4,2020-08-10_12h46.10.731,lexical_decision_task_MP,2020.1.3,Win32,60,,z,1,0.671565,,,,,,,,0.671565,1,,,,,,442,NW,UN,33,dorsex,ABOUNE,z,,,,,,0.344444463,-0.318518531,0,0,0,,0,261,261,381,1,
,,,,,,,,,,,,,,,,,,5e3d8f6b6b1c15033ce417f4,2020-08-10_12h46.10.731,lexical_decision_task_MP,2020.1.3,Win32,60,,m,1,0.51013,,,,,,,,0.51013,1,,,,,,89,WORD,"ID",33,permit,PERMIT,m,,,,,,0.344444463,-0.318518531,0,0,0,,0,262,262,28,1,
,,,,,,,,,,,,,,,,,,5e3d8f6b6b1c15033ce417f4,2020-08-10_12h46.10.731,lexical_decision_task_MP,2020.1.3,Win32,60,,z,1,0.675395,,,,,,,,0.675395,1,,,,,,446,NW,UN,33,gircue,RUNAMO,z,,,,,,0.344444463,-0.318518531,0,0,0,,0,263,263,385,1,
,,,,,,,,,,,,,,,,,,5e3d8f6b6b1c15033ce417f4,2020-08-10_12h46.10.731,lexical_decision_task_MP,2020.1.3,Win32,60,,m,1,0.54449,,,,,,,,0.54449,1,,,,,,117,WORD,"ID",33,branch,BRANCH,m,,,,,,0.344444463,-0.318518531,0,0,0,,0,264,264,56,1,
,,,,,,,,,,,,,,,,,,5e3d8f6b6b1c15033ce417f4,2020-08-10_12h46.10.731,lexical_decision_task_MP,2020.1.3,Win32,60,,z,1,0.723485,,,,,,,,0.723485,1,,,,,,280,NW,UN,50,melaty,CURBOL,z,,,,,,0.344444463,-0.318518531,0,0,0,,0,265,265,459,1,
,,,,,,,,,,,,,,,,,,5e3d8f6b6b1c15033ce417f4,2020-08-10_12h46.10.731,lexical_decision_task_MP,2020.1.3,Win32,60,,m,1,0.535655,,,,,,,,0.535655,1,,,,,,36,WORD,UN,50,insult,VANISH,m,,,,,,0.344444463,-0.318518531,0,0,0,,0,266,266,215,1,
,,,,,,,,,,,,,,,,,,5e3d8f6b6b1c15033ce417f4,2020-08-10_12h46.10.731,lexical_decision_task_MP,2020.1.3,Win32,60,,z,1,0.742615,,,,,,,,0.742615,1,,,,,,417,NW,"ID",50,earoud,EAROUD,z,,,,,,0.344444463,-0.318518531,0,0,0,,0,267,267,356,1,
,,,,,,,,,,,,,,,,,,5e3d8f6b6b1c15033ce417f4,2020-08-10_12h46.10.731,lexical_decision_task_MP,2020.1.3,Win32,60,,m,1,1.694845,,,,,,,,1.694845,1,,,,,,15,WORD,UN,50,faucet,AMOUNT,m,,,,,,0.344444463,-0.318518531,0,0,0,,0,268,268,194,1,
,,,,,,,,,,,,,,,,,,5e3d8f6b6b1c15033ce417f4,2020-08-10_12h46.10.731,lexical_decision_task_MP,2020.1.3,Win32,60,,z,1,0.59505,,,,,,,,0.59505,1,,,,,,408,NW,"ID",50,hurnia,HURNIA,z,,,,,,0.344444463,-0.318518531,0,0,0,,0,269,269,347,1,
,,,,,,,,,,,,,,,,,,5e3d8f6b6b1c15033ce417f4,2020-08-10_12h46.10.731,lexical_decision_task_MP,2020.1.3,Win32,60,,m,1,0.5126,,,,,,,,0.5126,1,,,,,,84,WORD,"ID",33,mortal,MORTAL,m,,,,,,0.344444463,-0.318518531,0,0,0,,0,270,270,23,1,
,,,,,,,,,,,,,,,,,,5e3d8f6b6b1c15033ce417f4,2020-08-10_12h46.10.731,lexical_decision_task_MP,2020.1.3,Win32,60,,z,1,0.5642,,,,,,,,0.5642,1,,,,,,457,NW,UN,33,barcet,WANIGH,z,,,,,,0.344444463,-0.318518531,0,0,0,,0,271,271,396,1,
,,,,,,,,,,,,,,,,,,5e3d8f6b6b1c15033ce417f4,2020-08-10_12h46.10.731,lexical_decision_task_MP,2020.1.3,Win32,60,,z,1,0.95254,,,,,,,,0.95254,1,,,,,,418,NW,"ID",50,suidle,SUIDLE,z,,,,,,0.344444463,-0.318518531,0,0,0,,0,272,272,357,1,
,,,,,,,,,,,,,,,,,,5e3d8f6b6b1c15033ce417f4,2020-08-10_12h46.10.731,lexical_decision_task_MP,2020.1.3,Win32,60,,m,1,0.526,,,,,,,,0.526,1,,,,,,148,WORD,"ID",50,custom,CUSTOM,m,,,,,,0.344444463,-0.318518531,0,0,0,,0,273,273,87,1,
,,,,,,,,,,,,,,,,,,5e3d8f6b6b1c15033ce417f4,2020-08-10_12h46.10.731,lexical_decision_task_MP,2020.1.3,Win32,60,,m,1,0.59169,,,,,,,,0.59169,1,,,,,,118,WORD,"ID",33,flight,FLIGHT,m,,,,,,0.344444463,-0.318518531,0,0,0,,0,274,274,57,1,
,,,,,,,,,,,,,,,,,,5e3d8f6b6b1c15033ce417f4,2020-08-10_12h46.10.731,lexical_decision_task_MP,2020.1.3,Win32,60,,m,1,0.51895,,,,,,,,0.51895,1,,,,,,25,WORD,UN,50,sprint,DOMAIN,m,,,,,,0.344444463,-0.318518531,0,0,0,,0,275,275,204,1,
,,,,,,,,,,,,,,,,,,5e3d8f6b6b1c15033ce417f4,2020-08-10_12h46.10.731,lexical_decision_task_MP,2020.1.3,Win32,60,,m,1,0.4875,,,,,,,,0.4875,1,,,,,,43,WORD,UN,50,foster,TONGUE,m,,,,,,0.344444463,-0.318518531,0,0,0,,0,276,276,222,1,
,,,,,,,,,,,,,,,,,,5e3d8f6b6b1c15033ce417f4,2020-08-10_12h46.10.731,lexical_decision_task_MP,2020.1.3,Win32,60,,m,1,0.586165,,,,,,,,0.586165,1,,,,,,138,WORD,"ID",50,melody,MELODY,m,,,,,,0.344444463,-0.318518531,0,0,0,,0,277,277,77,1,
,,,,,,,,,,,,,,,,,,5e3d8f6b6b1c15033ce417f4,2020-08-10_12h46.10.731,lexical_decision_task_MP,2020.1.3,Win32,60,,m,1,0.476395,,,,,,,,0.476395,1,,,,,,229,WORD,UN,33,fringe,MOTHER,m,,,,,,0.344444463,-0.318518531,0,0,0,,0,278,278,168,1,
,,,,,,,,,,,,,,,,,,5e3d8f6b6b1c15033ce417f4,2020-08-10_12h46.10.731,lexical_decision_task_MP,2020.1.3,Win32,60,,m,1,0.63603,,,,,,,,0.63603,1,,,,,,125,WORD,"ID",50,nickel,NICKEL,m,,,,,,0.344444463,-0.318518531,0,0,0,,0,279,279,64,1,
,,,,,,,,,,,,,,,,,,5e3d8f6b6b1c15033ce417f4,2020-08-10_12h46.10.731,lexical_decision_task_MP,2020.1.3,Win32,60,,z,0,0.793895,,,,,,,,0.793895,0,,,,,,145,WORD,"ID",50,parish,PARISH,m,,,,,,0.344444463,-0.318518531,0,0,0,,0,280,280,84,1,
,,,,,,,,,,,,,,,,,,5e3d8f6b6b1c15033ce417f4,2020-08-10_12h46.10.731,lexical_decision_task_MP,2020.1.3,Win32,60,,m,1,0.6051,,,,,,,,0.6051,1,,,,,,115,WORD,"ID",33,guitar,GUITAR,m,,,,,,0.344444463,-0.318518531,0,0,0,,0,281,281,54,1,
,,,,,,,,,,,,,,,,,,5e3d8f6b6b1c15033ce417f4,2020-08-10_12h46.10.731,lexical_decision_task_MP,2020.1.3,Win32,60,,m,1,0.5084,,,,,,,,0.5084,1,,,,,,99,WORD,"ID",33,fluent,FLUENT,m,,,,,,0.344444463,-0.318518531,0,0,0,,0,282,282,38,1,
,,,,,,,,,,,,,,,,,,5e3d8f6b6b1c15033ce417f4,2020-08-10_12h46.10.731,lexical_decision_task_MP,2020.1.3,Win32,60,,z,1,0.646455,,,,,,,,0.646455,1,,,,,,259,NW,UN,50,unject,SOUDAL,z,,,,,,0.344444463,-0.318518531,0,0,0,,0,283,283,438,1,
,,,,,,,,,,,,,,,,,,5e3d8f6b6b1c15033ce417f4,2020-08-10_12h46.10.731,lexical_decision_task_MP,2020.1.3,Win32,60,,m,1,0.53497,,,,,,,,0.53497,1,,,,,,83,WORD,"ID",33,result,RESULT,m,,,,,,0.344444463,-0.318518531,0,0,0,,0,284,284,22,1,
,,,,,,,,,,,,,,,,,,5e3d8f6b6b1c15033ce417f4,2020-08-10_12h46.10.731,lexical_decision_task_MP,2020.1.3,Win32,60,,m,1,0.921205,,,,,,,,0.921205,1,,,,,,6,WORD,UN,50,anchor,BUNDLE,m,,,,,,0.344444463,-0.318518531,0,0,0,,0,285,285,185,1,
,,,,,,,,,,,,,,,,,,5e3d8f6b6b1c15033ce417f4,2020-08-10_12h46.10.731,lexical_decision_task_MP,2020.1.3,Win32,60,,m,1,0.641755,,,,,,,,0.641755,1,,,,,,92,WORD,"ID",33,strand,STRAND,m,,,,,,0.344444463,-0.318518531,0,0,0,,0,286,286,31,1,
,,,,,,,,,,,,,,,,,,5e3d8f6b6b1c15033ce417f4,2020-08-10_12h46.10.731,lexical_decision_task_MP,2020.1.3,Win32,60,,m,1,0.458225,,,,,,,,0.458225,1,,,,,,133,WORD,"ID",50,chrome,CHROME,m,,,,,,0.344444463,-0.318518531,0,0,0,,0,287,287,72,1,
,,,,,,,,,,,,,,,,,,5e3d8f6b6b1c15033ce417f4,2020-08-10_12h46.10.731,lexical_decision_task_MP,2020.1.3,Win32,60,,m,1,0.49072,,,,,,,,0.49072,1,,,,,,217,WORD,UN,33,shrink,LIQUOR,m,,,,,,0.344444463,-0.318518531,0,0,0,,0,288,288,156,1,
,,,,,,,,,,,,,,,,,,5e3d8f6b6b1c15033ce417f4,2020-08-10_12h46.10.731,lexical_decision_task_MP,2020.1.3,Win32,60,,m,0,0.413945,,,,,,,,0.413945,0,,,,,,367,NW,"ID",50,slique,SLIQUE,z,,,,,,0.344444463,-0.318518531,0,0,0,,0,289,289,306,1,
,,,,,,,,,,,,,,,,,,5e3d8f6b6b1c15033ce417f4,2020-08-10_12h46.10.731,lexical_decision_task_MP,2020.1.3,Win32,60,,z,1,0.82299,,,,,,,,0.82299,1,,,,,,250,NW,UN,50,lupict,MILTED,z,,,,,,0.344444463,-0.318518531,0,0,0,,0,290,290,429,1,
,,,,,,,,,,,,,,,,,,5e3d8f6b6b1c15033ce417f4,2020-08-10_12h46.10.731,lexical_decision_task_MP,2020.1.3,Win32,60,,m,1,0.5585,,,,,,,,0.5585,1,,,,,,131,WORD,"ID",50,quench,QUENCH,m,,,,,,0.344444463,-0.318518531,0,0,0,,0,291,291,70,1,
,,,,,,,,,,,,,,,,,,5e3d8f6b6b1c15033ce417f4,2020-08-10_12h46.10.731,lexical_decision_task_MP,2020.1.3,Win32,60,,m,1,0.606405,,,,,,,,0.606405,1,,,,,,64,WORD,"ID",33,throne,THRONE,m,,,,,,0.344444463,-0.318518531,0,0,0,,0,292,292,3,1,
,,,,,,,,,,,,,,,,,,5e3d8f6b6b1c15033ce417f4,2020-08-10_12h46.10.731,lexical_decision_task_MP,2020.1.3,Win32,60,,z,1,0.80894,,,,,,,,0.80894,1,,,,,,315,NW,"ID",33,laston,LASTON,z,,,,,,0.344444463,-0.318518531,0,0,0,,0,293,293,254,1,
,,,,,,,,,,,,,,,,,,5e3d8f6b6b1c15033ce417f4,2020-08-10_12h46.10.731,lexical_decision_task_MP,2020.1.3,Win32,60,,m,1,0.530215,,,,,,,,0.530215,1,,,,,,164,WORD,"ID",50,market,MARKET,m,,,,,,0.344444463,-0.318518531,0,0,0,,0,294,294,103,1,
,,,,,,,,,,,,,,,,,,5e3d8f6b6b1c15033ce417f4,2020-08-10_12h46.10.731,lexical_decision_task_MP,2020.1.3,Win32,60,,m,1,0.77364,,,,,,,,0.77364,1,,,,,,136,WORD,"ID",50,bleach,BLEACH,m,,,,,,0.344444463,-0.318518531,0,0,0,,0,295,295,75,1,
,,,,,,,,,,,,,,,,,,5e3d8f6b6b1c15033ce417f4,2020-08-10_12h46.10.731,lexical_decision_task_MP,2020.1.3,Win32,60,,m,1,0.48324,,,,,,,,0.48324,1,,,,,,135,WORD,"ID",50,import,IMPORT,m,,,,,,0.344444463,-0.318518531,0,0,0,,0,296,296,74,1,
,,,,,,,,,,,,,,,,,,5e3d8f6b6b1c15033ce417f4,2020-08-10_12h46.10.731,lexical_decision_task_MP,2020.1.3,Win32,60,,z,1,0.691155,,,,,,,,0.691155,1,,,,,,373,NW,"ID",50,bigent,BIGENT,z,,,,,,0.344444463,-0.318518531,0,0,0,,0,297,297,312,1,
,,,,,,,,,,,,,,,,,,5e3d8f6b6b1c15033ce417f4,2020-08-10_12h46.10.731,lexical_decision_task_MP,2020.1.3,Win32,60,,z,1,0.649135,,,,,,,,0.649135,1,,,,,,276,NW,UN,50,petain,YARMON,z,,,,,,0.344444463,-0.318518531,0,0,0,,0,298,298,455,1,
,,,,,,,,,,,,,,,,,,5e3d8f6b6b1c15033ce417f4,2020-08-10_12h46.10.731,lexical_decision_task_MP,2020.1.3,Win32,60,,m,1,0.517325,,,,,,,,0.517325,1,,,,,,23,WORD,UN,50,praise,WEALTH,m,,,,,,0.344444463,-0.318518531,0,0,0,,0,299,299,202,1,
,,,,,,,,,,,,,,,,,,5e3d8f6b6b1c15033ce417f4,2020-08-10_12h46.10.731,lexical_decision_task_MP,2020.1.3,Win32,60,,m,1,0.527235,,,,,,,,0.527235,1,,,,,,73,WORD,"ID",33,source,SOURCE,m,,,,,,0.344444463,-0.318518531,0,0,0,,0,300,300,12,1,
,,,,,,,,,,,,,,,,,,5e3d8f6b6b1c15033ce417f4,2020-08-10_12h46.10.731,lexical_decision_task_MP,2020.1.3,Win32,60,,z,1,0.76108,,,,,,,,0.76108,1,,,,,,249,NW,UN,50,milted,BATROL,z,,,,,,0.344444463,-0.318518531,0,0,0,,0,301,301,428,1,
,,,,,,,,,,,,,,,,,,5e3d8f6b6b1c15033ce417f4,2020-08-10_12h46.10.731,lexical_decision_task_MP,2020.1.3,Win32,60,,m,1,0.51933,,,,,,,,0.51933,1,,,,,,232,WORD,UN,33,nature,INJECT,m,,,,,,0.344444463,-0.318518531,0,0,0,,0,302,302,171,1,
,,,,,,,,,,,,,,,,,,5e3d8f6b6b1c15033ce417f4,2020-08-10_12h46.10.731,lexical_decision_task_MP,2020.1.3,Win32,60,,m,1,0.509945,,,,,,,,0.509945,1,,,,,,190,WORD,UN,33,stable,BACKUP,m,,,,,,0.344444463,-0.318518531,0,0,0,,0,303,303,129,1,
,,,,,,,,,,,,,,,,,,5e3d8f6b6b1c15033ce417f4,2020-08-10_12h46.10.731,lexical_decision_task_MP,2020.1.3,Win32,60,,m,1,0.73392,,,,,,,,0.73392,1,,,,,,75,WORD,"ID",33,trophy,TROPHY,m,,,,,,0.344444463,-0.318518531,0,0,0,,0,304,304,14,1,
,,,,,,,,,,,,,,,,,,5e3d8f6b6b1c15033ce417f4,2020-08-10_12h46.10.731,lexical_decision_task_MP,2020.1.3,Win32,60,,z,1,0.52313,,,,,,,,0.52313,1,,,,,,286,NW,UN,50,nymbel,RELDON,z,,,,,,0.344444463,-0.318518531,0,0,0,,0,305,305,465,1,
,,,,,,,,,,,,,,,,,,5e3d8f6b6b1c15033ce417f4,2020-08-10_12h46.10.731,lexical_decision_task_MP,2020.1.3,Win32,60,,m,1,0.529095,,,,,,,,0.529095,1,,,,,,98,WORD,"ID",33,belong,BELONG,m,,,,,,0.344444463,-0.318518531,0,0,0,,0,306,306,37,1,
,,,,,,,,,,,,,,,,,,5e3d8f6b6b1c15033ce417f4,2020-08-10_12h46.10.731,lexical_decision_task_MP,2020.1.3,Win32,60,,m,1,0.821575,,,,,,,,0.821575,1,,,,,,1,WORD,UN,50,ethnic,FRIGHT,m,,,,,,0.344444463,-0.318518531,0,0,0,,0,307,307,180,1,
,,,,,,,,,,,,,,,,,,5e3d8f6b6b1c15033ce417f4,2020-08-10_12h46.10.731,lexical_decision_task_MP,2020.1.3,Win32,60,,m,1,0.692395,,,,,,,,0.692395,1,,,,,,30,WORD,UN,50,weapon,ORIENT,m,,,,,,0.344444463,-0.318518531,0,0,0,,0,308,308,209,1,
,,,,,,,,,,,,,,,,,,5e3d8f6b6b1c15033ce417f4,2020-08-10_12h46.10.731,lexical_decision_task_MP,2020.1.3,Win32,60,,m,1,0.54601,,,,,,,,0.54601,1,,,,,,197,WORD,UN,33,wicked,STREAM,m,,,,,,0.344444463,-0.318518531,0,0,0,,0,309,309,136,1,
,,,,,,,,,,,,,,,,,,5e3d8f6b6b1c15033ce417f4,2020-08-10_12h46.10.731,lexical_decision_task_MP,2020.1.3,Win32,60,,m,1,0.674975,,,,,,,,0.674975,1,,,,,,161,WORD,"ID",50,pastor,PASTOR,m,,,,,,0.344444463,-0.318518531,0,0,0,,0,310,310,100,1,
,,,,,,,,,,,,,,,,,,5e3d8f6b6b1c15033ce417f4,2020-08-10_12h46.10.731,lexical_decision_task_MP,2020.1.3,Win32,60,,z,1,0.599685,,,,,,,,0.599685,1,,,,,,327,NW,"ID",33,plenac,PLENAC,z,,,,,,0.344444463,-0.318518531,0,0,0,,0,311,311,266,1,
,,,,,,,,,,,,,,,,,,5e3d8f6b6b1c15033ce417f4,2020-08-10_12h46.10.731,lexical_decision_task_MP,2020.1.3,Win32,60,,z,1,0.60248,,,,,,,,0.60248,1,,,,,,474,NW,UN,33,acrise,HABLIN,z,,,,,,0.344444463,-0.318518531,0,0,0,,0,312,312,413,1,
,,,,,,,,,,,,,,,,,,5e3d8f6b6b1c15033ce417f4,2020-08-10_12h46.10.731,lexical_decision_task_MP,2020.1.3,Win32,60,,m,1,0.65672,,,,,,,,0.65672,1,,,,,,29,WORD,UN,50,orient,SKETCH,m,,,,,,0.344444463,-0.318518531,0,0,0,,0,313,313,208,1,
,,,,,,,,,,,,,,,,,,5e3d8f6b6b1c15033ce417f4,2020-08-10_12h46.10.731,lexical_decision_task_MP,2020.1.3,Win32,60,,m,1,0.46077,,,,,,,,0.46077,1,,,,,,72,WORD,"ID",33,bright,BRIGHT,m,,,,,,0.344444463,-0.318518531,0,0,0,,0,314,314,11,1,
,,,,,,,,,,,,,,,,,,5e3d8f6b6b1c15033ce417f4,2020-08-10_12h46.10.731,lexical_decision_task_MP,2020.1.3,Win32,60,,m,1,0.79663,,,,,,,,0.79663,1,,,,,,195,WORD,UN,33,credit,RESIGN,m,,,,,,0.344444463,-0.318518531,0,0,0,,0,315,315,134,1,
,,,,,,,,,,,,,,,,,,5e3d8f6b6b1c15033ce417f4,2020-08-10_12h46.10.731,lexical_decision_task_MP,2020.1.3,Win32,60,,z,1,0.542315,,,,,,,,0.542315,1,,,,,,344,NW,"ID",33,scrily,SCRILY,z,,,,,,0.344444463,-0.318518531,0,0,0,,0,316,316,283,1,
,,,,,,,,,,,,,,,,,,5e3d8f6b6b1c15033ce417f4,2020-08-10_12h46.10.731,lexical_decision_task_MP,2020.1.3,Win32,60,,m,1,0.472275,,,,,,,,0.472275,1,,,,,,38,WORD,UN,50,insect,POWDER,m,,,,,,0.344444463,-0.318518531,0,0,0,,0,317,317,217,1,
,,,,,,,,,,,,,,,,,,5e3d8f6b6b1c15033ce417f4,2020-08-10_12h46.10.731,lexical_decision_task_MP,2020.1.3,Win32,60,,m,1,0.539685,,,,,,,,0.539685,1,,,,,,236,WORD,UN,33,grumpy,PIRATE,m,,,,,,0.344444463,-0.318518531,0,0,0,,0,318,318,175,1,
,,,,,,,,,,,,,,,,,,5e3d8f6b6b1c15033ce417f4,2020-08-10_12h46.10.731,lexical_decision_task_MP,2020.1.3,Win32,60,,m,1,0.528985,,,,,,,,0.528985,1,,,,,,14,WORD,UN,50,orange,ALMOST,m,,,,,,0.344444463,-0.318518531,0,0,0,,0,319,319,193,1,
,,,,,,,,,,,,,,,,,,5e3d8f6b6b1c15033ce417f4,2020-08-10_12h46.10.731,lexical_decision_task_MP,2020.1.3,Win32,60,,m,1,0.859565,,,,,,,,0.859565,1,,,,,,203,WORD,UN,33,burden,PHRASE,m,,,,,,0.344444463,-0.318518531,0,0,0,,0,320,320,142,1,
,,,,,,,,,,,,,,,,,,5e3d8f6b6b1c15033ce417f4,2020-08-10_12h46.10.731,lexical_decision_task_MP,2020.1.3,Win32,60,,m,1,0.556925,,,,,,,,0.556925,1,,,,,,141,WORD,"ID",50,orphan,ORPHAN,m,,,,,,0.344444463,-0.318518531,0,0,0,,0,321,321,80,1,
,,,,,,,,,,,,,,,,,,5e3d8f6b6b1c15033ce417f4,2020-08-10_12h46.10.731,lexical_decision_task_MP,2020.1.3,Win32,60,,z,1,0.73452,,,,,,,,0.73452,1,,,,,,289,NW,UN,50,splino,STARBY,z,,,,,,0.344444463,-0.318518531,0,0,0,,0,322,322,468,1,
,,,,,,,,,,,,,,,,,,5e3d8f6b6b1c15033ce417f4,2020-08-10_12h46.10.731,lexical_decision_task_MP,2020.1.3,Win32,60,,m,1,0.61945,,,,,,,,0.61945,1,,,,,,33,WORD,UN,50,jungle,BUTLER,m,,,,,,0.344444463,-0.318518531,0,0,0,,0,323,323,212,1,
,,,,,,,,,,,,,,,,,,5e3d8f6b6b1c15033ce417f4,2020-08-10_12h46.10.731,lexical_decision_task_MP,2020.1.3,Win32,60,,z,1,0.69381,,,,,,,,0.69381,1,,,,,,393,NW,"ID",50,ganous,GANOUS,z,,,,,,0.344444463,-0.318518531,0,0,0,,0,324,324,332,1,
,,,,,,,,,,,,,,,,,,5e3d8f6b6b1c15033ce417f4,2020-08-10_12h46.10.731,lexical_decision_task_MP,2020.1.3,Win32,60,,z,1,0.61114,,,,,,,,0.61114,1,,,,,,242,NW,UN,50,musied,UNWERT,z,,,,,,0.344444463,-0.318518531,0,0,0,,0,325,325,421,1,
,,,,,,,,,,,,,,,,,,5e3d8f6b6b1c15033ce417f4,2020-08-10_12h46.10.731,lexical_decision_task_MP,2020.1.3,Win32,60,,z,1,0.619295,,,,,,,,0.619295,1,,,,,,336,NW,"ID",33,ghodus,GHODUS,z,,,,,,0.344444463,-0.318518531,0,0,0,,0,326,326,275,1,
,,,,,,,,,,,,,,,,,,5e3d8f6b6b1c15033ce417f4,2020-08-10_12h46.10.731,lexical_decision_task_MP,2020.1.3,Win32,60,,z,1,1.671785,,,,,,,,1.671785,1,,,,,,429,NW,UN,33,caroey,FUNTLE,z,,,,,,0.344444463,-0.318518531,0,0,0,,0,327,327,368,1,
,,,,,,,,,,,,,,,,,,5e3d8f6b6b1c15033ce417f4,2020-08-10_12h46.10.731,lexical_decision_task_MP,2020.1.3,Win32,60,,,0,,,,,,,,,1.671785,-1,,,,,,397,NW,"ID",50,camble,CAMBLE,z,,,,,,0.344444463,-0.318518531,0,0,0,,0,328,328,336,1,
,,,,,,,,,,,,,,,,,,5e3d8f6b6b1c15033ce417f4,2020-08-10_12h46.10.731,lexical_decision_task_MP,2020.1.3,Win32,60,,m,1,0.921635,,,,,,,,0.921635,1,,,,,,237,WORD,UN,33,glance,POSTER,m,,,,,,0.344444463,-0.318518531,0,0,0,,0,329,329,176,1,
,,,,,,,,,,,,,,,,,,5e3d8f6b6b1c15033ce417f4,2020-08-10_12h46.10.731,lexical_decision_task_MP,2020.1.3,Win32,60,,m,1,0.523025,,,,,,,,0.523025,1,,,,,,67,WORD,"ID",33,policy,POLICY,m,,,,,,0.344444463,-0.318518531,0,0,0,,0,330,330,6,1,
,,,,,,,,,,,,,,,,,,5e3d8f6b6b1c15033ce417f4,2020-08-10_12h46.10.731,lexical_decision_task_MP,2020.1.3,Win32,60,,m,1,0.747965,,,,,,,,0.747965,1,,,,,,240,WORD,UN,33,seldom,FOREST,m,,,,,,0.344444463,-0.318518531,0,0,0,,0,331,331,179,1,
,,,,,,,,,,,,,,,,,,5e3d8f6b6b1c15033ce417f4,2020-08-10_12h46.10.731,lexical_decision_task_MP,2020.1.3,Win32,60,,m,1,0.637155,,,,,,,,0.637155,1,,,,,,159,WORD,"ID",50,detail,DETAIL,m,,,,,,0.344444463,-0.318518531,0,0,0,,0,332,332,98,1,
,,,,,,,,,,,,,,,,,,5e3d8f6b6b1c15033ce417f4,2020-08-10_12h46.10.731,lexical_decision_task_MP,2020.1.3,Win32,60,,z,1,0.612055,,,,,,,,0.612055,1,,,,,,241,NW,UN,50,unwert,SMENCO,z,,,,,,0.344444463,-0.318518531,0,0,0,,0,333,333,420,1,
,,,,,,,,,,,,,,,,,,5e3d8f6b6b1c15033ce417f4,2020-08-10_12h46.10.731,lexical_decision_task_MP,2020.1.3,Win32,60,,m,1,1.723445,,,,,,,,1.723445,1,,,,,,169,WORD,"ID",50,genius,GENIUS,m,,,,,,0.344444463,-0.318518531,0,0,0,,0,334,334,108,1,
,,,,,,,,,,,,,,,,,,5e3d8f6b6b1c15033ce417f4,2020-08-10_12h46.10.731,lexical_decision_task_MP,2020.1.3,Win32,60,,z,1,1.119735,,,,,,,,1.119735,1,,,,,,453,NW,UN,33,scouge,BOLVIS,z,,,,,,0.344444463,-0.318518531,0,0,0,,0,335,335,392,1,
,,,,,,,,,,,,,,,,,,5e3d8f6b6b1c15033ce417f4,2020-08-10_12h46.10.731,lexical_decision_task_MP,2020.1.3,Win32,60,,z,1,0.65139,,,,,,,,0.65139,1,,,,,,364,NW,"ID",50,impote,IMPOTE,z,,,,,,0.344444463,-0.318518531,0,0,0,,0,336,336,303,1,
,,,,,,,,,,,,,,,,,,5e3d8f6b6b1c15033ce417f4,2020-08-10_12h46.10.731,lexical_decision_task_MP,2020.1.3,Win32,60,,z,1,0.526805,,,,,,,,0.526805,1,,,,,,382,NW,"ID",50,sarley,SARLEY,z,,,,,,0.344444463,-0.318518531,0,0,0,,0,337,337,321,1,
,,,,,,,,,,,,,,,,,,5e3d8f6b6b1c15033ce417f4,2020-08-10_12h46.10.731,lexical_decision_task_MP,2020.1.3,Win32,60,,m,1,0.564615,,,,,,,,0.564615,1,,,,,,39,WORD,UN,50,convey,INSECT,m,,,,,,0.344444463,-0.318518531,0,0,0,,0,338,338,218,1,
,,,,,,,,,,,,,,,,,,5e3d8f6b6b1c15033ce417f4,2020-08-10_12h46.10.731,lexical_decision_task_MP,2020.1.3,Win32,60,,z,0,0.749875,,,,,,,,0.749875,0,,,,,,61,WORD,"ID",33,ponder,PONDER,m,,,,,,0.344444463,-0.318518531,0,0,0,,0,339,339,0,1,
,,,,,,,,,,,,,,,,,,5e3d8f6b6b1c15033ce417f4,2020-08-10_12h46.10.731,lexical_decision_task_MP,2020.1.3,Win32,60,,m,1,1.26521,,,,,,,,1.26521,1,,,,,,149,WORD,"ID",50,invade,INVADE,m,,,,,,0.344444463,-0.318518531,0,0,0,,0,340,340,88,1,
,,,,,,,,,,,,,,,,,,5e3d8f6b6b1c15033ce417f4,2020-08-10_12h46.10.731,lexical_decision_task_MP,2020.1.3,Win32,60,,m,1,0.648735,,,,,,,,0.648735,1,,,,,,179,WORD,"ID",50,basket,BASKET,m,,,,,,0.344444463,-0.318518531,0,0,0,,0,341,341,118,1,
,,,,,,,,,,,,,,,,,,5e3d8f6b6b1c15033ce417f4,2020-08-10_12h46.10.731,lexical_decision_task_MP,2020.1.3,Win32,60,,m,1,0.95965,,,,,,,,0.95965,1,,,,,,128,WORD,"ID",50,senior,SENIOR,m,,,,,,0.344444463,-0.318518531,0,0,0,,0,342,342,67,1,
,,,,,,,,,,,,,,,,,,5e3d8f6b6b1c15033ce417f4,2020-08-10_12h46.10.731,lexical_decision_task_MP,2020.1.3,Win32,60,,m,1,0.566595,,,,,,,,0.566595,1,,,,,,16,WORD,UN,50,charge,FAUCET,m,,,,,,0.344444463,-0.318518531,0,0,0,,0,343,343,195,1,
,,,,,,,,,,,,,,,,,,5e3d8f6b6b1c15033ce417f4,2020-08-10_12h46.10.731,lexical_decision_task_MP,2020.1.3,Win32,60,,z,1,0.828265,,,,,,,,0.828265,1,,,,,,258,NW,UN,50,soudal,POLUTH,z,,,,,,0.344444463,-0.318518531,0,0,0,,0,344,344,437,1,
,,,,,,,,,,,,,,,,,,5e3d8f6b6b1c15033ce417f4,2020-08-10_12h46.10.731,lexical_decision_task_MP,2020.1.3,Win32,60,,m,1,0.411235,,,,,,,,0.411235,1,,,,,,80,WORD,"ID",33,family,FAMILY,m,,,,,,0.344444463,-0.318518531,0,0,0,,0,345,345,19,1,
,,,,,,,,,,,,,,,,,,5e3d8f6b6b1c15033ce417f4,2020-08-10_12h46.10.731,lexical_decision_task_MP,2020.1.3,Win32,60,,z,1,0.92817,,,,,,,,0.92817,1,,,,,,283,NW,UN,50,shaple,VERALF,z,,,,,,0.344444463,-0.318518531,0,0,0,,0,346,346,462,1,
,,,,,,,,,,,,,,,,,,5e3d8f6b6b1c15033ce417f4,2020-08-10_12h46.10.731,lexical_decision_task_MP,2020.1.3,Win32,60,,z,1,0.620775,,,,,,,,0.620775,1,,,,,,264,NW,UN,50,distar,VACKEL,z,,,,,,0.344444463,-0.318518531,0,0,0,,0,347,347,443,1,
,,,,,,,,,,,,,,,,,,5e3d8f6b6b1c15033ce417f4,2020-08-10_12h46.10.731,lexical_decision_task_MP,2020.1.3,Win32,60,,m,1,0.51527,,,,,,,,0.51527,1,,,,,,105,WORD,"ID",33,number,NUMBER,m,,,,,,0.344444463,-0.318518531,0,0,0,,0,348,348,44,1,
,,,,,,,,,,,,,,,,,,5e3d8f6b6b1c15033ce417f4,2020-08-10_12h46.10.731,lexical_decision_task_MP,2020.1.3,Win32,60,,m,1,0.525685,,,,,,,,0.525685,1,,,,,,26,WORD,UN,50,butler,SPRINT,m,,,,,,0.344444463,-0.318518531,0,0,0,,0,349,349,205,1,
,,,,,,,,,,,,,,,,,,5e3d8f6b6b1c15033ce417f4,2020-08-10_12h46.10.731,lexical_decision_task_MP,2020.1.3,Win32,60,,z,1,0.627665,,,,,,,,0.627665,1,,,,,,294,NW,UN,50,gleath,INHORT,z,,,,,,0.344444463,-0.318518531,0,0,0,,0,350,350,473,1,
,,,,,,,,,,,,,,,,,,5e3d8f6b6b1c15033ce417f4,2020-08-10_12h46.10.731,lexical_decision_task_MP,2020.1.3,Win32,60,,z,1,0.70264,,,,,,,,0.70264,1,,,,,,404,NW,"ID",50,cluirm,CLUIRM,z,,,,,,0.344444463,-0.318518531,0,0,0,,0,351,351,343,1,
,,,,,,,,,,,,,,,,,,5e3d8f6b6b1c15033ce417f4,2020-08-10_12h46.10.731,lexical_decision_task_MP,2020.1.3,Win32,60,,z,1,0.55161,,,,,,,,0.55161,1,,,,,,312,NW,"ID",33,nerawl,NERAWL,z,,,,,,0.344444463,-0.318518531,0,0,0,,0,352,352,251,1,
,,,,,,,,,,,,,,,,,,5e3d8f6b6b1c15033ce417f4,2020-08-10_12h46.10.731,lexical_decision_task_MP,2020.1.3,Win32,60,,m,1,0.58901,,,,,,,,0.58901,1,,,,,,191,WORD,UN,33,beacon,STABLE,m,,,,,,0.344444463,-0.318518531,0,0,0,,0,353,353,130,1,
,,,,,,,,,,,,,,,,,,5e3d8f6b6b1c15033ce417f4,2020-08-10_12h46.10.731,lexical_decision_task_MP,2020.1.3,Win32,60,,m,1,1.05858,,,,,,,,1.05858,1,,,,,,215,WORD,UN,33,lumber,PHOBIA,m,,,,,,0.344444463,-0.318518531,0,0,0,,0,354,354,154,1,
,,,,,,,,,,,,,,,,,,5e3d8f6b6b1c15033ce417f4,2020-08-10_12h46.10.731,lexical_decision_task_MP,2020.1.3,Win32,60,,z,1,1.247385,,,,,,,,1.247385,1,,,,,,303,NW,"ID",33,fiream,FIREAM,z,,,,,,0.344444463,-0.318518531,0,0,0,,0,355,355,242,1,
,,,,,,,,,,,,,,,,,,5e3d8f6b6b1c15033ce417f4,2020-08-10_12h46.10.731,lexical_decision_task_MP,2020.1.3,Win32,60,,z,1,1.38406,,,,,,,,1.38406,1,,,,,,307,NW,"ID",33,kirafe,KIRAFE,z,,,,,,0.344444463,-0.318518531,0,0,0,,0,356,356,246,1,
,,,,,,,,,,,,,,,,,,5e3d8f6b6b1c15033ce417f4,2020-08-10_12h46.10.731,lexical_decision_task_MP,2020.1.3,Win32,60,,z,1,0.577615,,,,,,,,0.577615,1,,,,,,281,NW,UN,50,porlex,MELATY,z,,,,,,0.344444463,-0.318518531,0,0,0,,0,357,357,460,1,
,,,,,,,,,,,,,,,,,,5e3d8f6b6b1c15033ce417f4,2020-08-10_12h46.10.731,lexical_decision_task_MP,2020.1.3,Win32,60,,m,1,0.51626,,,,,,,,0.51626,1,,,,,,46,WORD,UN,50,income,SINGLE,m,,,,,,0.344444463,-0.318518531,0,0,0,,0,358,358,225,1,
,,,,,,,,,,,,,,,,,,5e3d8f6b6b1c15033ce417f4,2020-08-10_12h46.10.731,lexical_decision_task_MP,2020.1.3,Win32,60,,m,1,0.83083,,,,,,,,0.83083,1,,,,,,216,WORD,UN,33,liquor,BEHALF,m,,,,,,0.344444463,-0.318518531,0,0,0,,0,359,359,155,1,
,,,,,,,,,,,,,,,,,,5e3d8f6b6b1c15033ce417f4,2020-08-10_12h46.10.731,lexical_decision_task_MP,2020.1.3,Win32,60,,z,1,0.613495,,,,,,,,0.613495,1,,,,,,445,NW,UN,33,runamo,MINKEL,z,,,,,,0.344444463,-0.318518531,0,0,0,,0,360,360,384,1,
,,,,,,,,,,,,,,,,,,5e3d8f6b6b1c15033ce417f4,2020-08-10_12h46.10.731,lexical_decision_task_MP,2020.1.3,Win32,60,,m,1,0.482155,,,,,,,,0.482155,1,,,,,,91,WORD,"ID",33,expand,EXPAND,m,,,,,,0.344444463,-0.318518531,0,0,0,,0,361,361,30,1,
,,,,,,,,,,,,,,,,,,5e3d8f6b6b1c15033ce417f4,2020-08-10_12h46.10.731,lexical_decision_task_MP,2020.1.3,Win32,60,,m,1,0.493355,,,,,,,,0.493355,1,,,,,,94,WORD,"ID",33,travel,TRAVEL,m,,,,,,0.344444463,-0.318518531,0,0,0,space,0,362,362,33,1,70.35478
,,,,,,,,,,,,,,,,,,5e3d8f6b6b1c15033ce417f4,2020-08-10_12h46.10.731,lexical_decision_task_MP,2020.1.3,Win32,60,,z,1,0.919035,,,,,,,,0.919035,1,,,,,,341,NW,"ID",33,myrtie,MYRTIE,z,,,,,,0.344444463,-0.318518531,0,0,0,,0,363,363,280,1,
,,,,,,,,,,,,,,,,,,5e3d8f6b6b1c15033ce417f4,2020-08-10_12h46.10.731,lexical_decision_task_MP,2020.1.3,Win32,60,,m,1,0.43892,,,,,,,,0.43892,1,,,,,,78,WORD,"ID",33,column,COLUMN,m,,,,,,0.344444463,-0.318518531,0,0,0,,0,364,364,17,1,
,,,,,,,,,,,,,,,,,,5e3d8f6b6b1c15033ce417f4,2020-08-10_12h46.10.731,lexical_decision_task_MP,2020.1.3,Win32,60,,z,1,0.97712,,,,,,,,0.97712,1,,,,,,291,NW,UN,50,ablint,PRETCH,z,,,,,,0.344444463,-0.318518531,0,0,0,,0,365,365,470,1,
,,,,,,,,,,,,,,,,,,5e3d8f6b6b1c15033ce417f4,2020-08-10_12h46.10.731,lexical_decision_task_MP,2020.1.3,Win32,60,,z,1,0.652895,,,,,,,,0.652895,1,,,,,,292,NW,UN,50,swance,ABLINT,z,,,,,,0.344444463,-0.318518531,0,0,0,,0,366,366,471,1,
,,,,,,,,,,,,,,,,,,5e3d8f6b6b1c15033ce417f4,2020-08-10_12h46.10.731,lexical_decision_task_MP,2020.1.3,Win32,60,,z,1,0.65123,,,,,,,,0.65123,1,,,,,,337,NW,"ID",33,rejols,REJOLS,z,,,,,,0.344444463,-0.318518531,0,0,0,,0,367,367,276,1,
,,,,,,,,,,,,,,,,,,5e3d8f6b6b1c15033ce417f4,2020-08-10_12h46.10.731,lexical_decision_task_MP,2020.1.3,Win32,60,,m,1,0.489315,,,,,,,,0.489315,1,,,,,,171,WORD,"ID",50,depart,DEPART,m,,,,,,0.344444463,-0.318518531,0,0,0,,0,368,368,110,1,
,,,,,,,,,,,,,,,,,,5e3d8f6b6b1c15033ce417f4,2020-08-10_12h46.10.731,lexical_decision_task_MP,2020.1.3,Win32,60,,m,1,0.52222,,,,,,,,0.52222,1,,,,,,223,WORD,UN,33,period,KIDNEY,m,,,,,,0.344444463,-0.318518531,0,0,0,,0,369,369,162,1,
,,,,,,,,,,,,,,,,,,5e3d8f6b6b1c15033ce417f4,2020-08-10_12h46.10.731,lexical_decision_task_MP,2020.1.3,Win32,60,,z,1,0.509965,,,,,,,,0.509965,1,,,,,,349,NW,"ID",33,asylen,ASYLEN,z,,,,,,0.344444463,-0.318518531,0,0,0,,0,370,370,288,1,
,,,,,,,,,,,,,,,,,,5e3d8f6b6b1c15033ce417f4,2020-08-10_12h46.10.731,lexical_decision_task_MP,2020.1.3,Win32,60,,z,1,0.558045,,,,,,,,0.558045,1,,,,,,368,NW,"ID",50,hornal,HORNAL,z,,,,,,0.344444463,-0.318518531,0,0,0,,0,371,371,307,1,
,,,,,,,,,,,,,,,,,,5e3d8f6b6b1c15033ce417f4,2020-08-10_12h46.10.731,lexical_decision_task_MP,2020.1.3,Win32,60,,z,1,0.85014,,,,,,,,0.85014,1,,,,,,411,NW,"ID",50,orchin,ORCHIN,z,,,,,,0.344444463,-0.318518531,0,0,0,,0,372,372,350,1,
,,,,,,,,,,,,,,,,,,5e3d8f6b6b1c15033ce417f4,2020-08-10_12h46.10.731,lexical_decision_task_MP,2020.1.3,Win32,60,,m,1,0.4728,,,,,,,,0.4728,1,,,,,,166,WORD,"ID",50,starch,STARCH,m,,,,,,0.344444463,-0.318518531,0,0,0,,0,373,373,105,1,
,,,,,,,,,,,,,,,,,,5e3d8f6b6b1c15033ce417f4,2020-08-10_12h46.10.731,lexical_decision_task_MP,2020.1.3,Win32,60,,m,1,0.52676,,,,,,,,0.52676,1,,,,,,3,WORD,UN,50,trench,KNIGHT,m,,,,,,0.344444463,-0.318518531,0,0,0,,0,374,374,182,1,
,,,,,,,,,,,,,,,,,,5e3d8f6b6b1c15033ce417f4,2020-08-10_12h46.10.731,lexical_decision_task_MP,2020.1.3,Win32,60,,m,1,0.496765,,,,,,,,0.496765,1,,,,,,174,WORD,"ID",50,turkey,TURKEY,m,,,,,,0.344444463,-0.318518531,0,0,0,,0,375,375,113,1,
,,,,,,,,,,,,,,,,,,5e3d8f6b6b1c15033ce417f4,2020-08-10_12h46.10.731,lexical_decision_task_MP,2020.1.3,Win32,60,,z,1,0.877695,,,,,,,,0.877695,1,,,,,,342,NW,"ID",33,randow,RANDOW,z,,,,,,0.344444463,-0.318518531,0,0,0,,0,376,376,281,1,
,,,,,,,,,,,,,,,,,,5e3d8f6b6b1c15033ce417f4,2020-08-10_12h46.10.731,lexical_decision_task_MP,2020.1.3,Win32,60,,z,0,1.30502,,,,,,,,1.30502,0,,,,,,218,WORD,UN,33,bucket,SHRINK,m,,,,,,0.344444463,-0.318518531,0,0,0,,0,377,377,157,1,
,,,,,,,,,,,,,,,,,,5e3d8f6b6b1c15033ce417f4,2020-08-10_12h46.10.731,lexical_decision_task_MP,2020.1.3,Win32,60,,z,1,0.64827,,,,,,,,0.64827,1,,,,,,466,NW,UN,33,robuly,HOCITE,z,,,,,,0.344444463,-0.318518531,0,0,0,,0,378,378,405,1,
,,,,,,,,,,,,,,,,,,5e3d8f6b6b1c15033ce417f4,2020-08-10_12h46.10.731,lexical_decision_task_MP,2020.1.3,Win32,60,,m,1,0.986895,,,,,,,,0.986895,1,,,,,,182,WORD,UN,33,absent,WINTER,m,,,,,,0.344444463,-0.318518531,0,0,0,,0,379,379,121,1,
,,,,,,,,,,,,,,,,,,5e3d8f6b6b1c15033ce417f4,2020-08-10_12h46.10.731,lexical_decision_task_MP,2020.1.3,Win32,60,,m,1,0.532415,,,,,,,,0.532415,1,,,,,,160,WORD,"ID",50,violet,VIOLET,m,,,,,,0.344444463,-0.318518531,0,0,0,,0,380,380,99,1,
,,,,,,,,,,,,,,,,,,5e3d8f6b6b1c15033ce417f4,2020-08-10_12h46.10.731,lexical_decision_task_MP,2020.1.3,Win32,60,,m,1,1.20647,,,,,,,,1.20647,1,,,,,,106,WORD,"ID",33,ransom,RANSOM,m,,,,,,0.344444463,-0.318518531,0,0,0,,0,381,381,45,1,
,,,,,,,,,,,,,,,,,,5e3d8f6b6b1c15033ce417f4,2020-08-10_12h46.10.731,lexical_decision_task_MP,2020.1.3,Win32,60,,z,1,1.37632,,,,,,,,1.37632,1,,,,,,476,NW,UN,33,photie,JOSTED,z,,,,,,0.344444463,-0.318518531,0,0,0,,0,382,382,415,1,
,,,,,,,,,,,,,,,,,,5e3d8f6b6b1c15033ce417f4,2020-08-10_12h46.10.731,lexical_decision_task_MP,2020.1.3,Win32,60,,z,1,1.735975,,,,,,,,1.735975,1,,,,,,407,NW,"ID",50,suiver,SUIVER,z,,,,,,0.344444463,-0.318518531,0,0,0,,0,383,383,346,1,
,,,,,,,,,,,,,,,,,,5e3d8f6b6b1c15033ce417f4,2020-08-10_12h46.10.731,lexical_decision_task_MP,2020.1.3,Win32,60,,m,1,0.478265,,,,,,,,0.478265,1,,,,,,96,WORD,"ID",33,ignore,IGNORE,m,,,,,,0.344444463,-0.318518531,0,0,0,,0,384,384,35,1,
,,,,,,,,,,,,,,,,,,5e3d8f6b6b1c15033ce417f4,2020-08-10_12h46.10.731,lexical_decision_task_MP,2020.1.3,Win32,60,,z,1,0.59773,,,,,,,,0.59773,1,,,,,,354,NW,"ID",33,virlex,VIRLEX,z,,,,,,0.344444463,-0.318518531,0,0,0,,0,385,385,293,1,
,,,,,,,,,,,,,,,,,,5e3d8f6b6b1c15033ce417f4,2020-08-10_12h46.10.731,lexical_decision_task_MP,2020.1.3,Win32,60,,m,1,0.628245,,,,,,,,0.628245,1,,,,,,110,WORD,"ID",33,polite,POLITE,m,,,,,,0.344444463,-0.318518531,0,0,0,,0,386,386,49,1,
,,,,,,,,,,,,,,,,,,5e3d8f6b6b1c15033ce417f4,2020-08-10_12h46.10.731,lexical_decision_task_MP,2020.1.3,Win32,60,,z,1,0.81426,,,,,,,,0.81426,1,,,,,,378,NW,"ID",50,shrile,SHRILE,z,,,,,,0.344444463,-0.318518531,0,0,0,,0,387,387,317,1,
,,,,,,,,,,,,,,,,,,5e3d8f6b6b1c15033ce417f4,2020-08-10_12h46.10.731,lexical_decision_task_MP,2020.1.3,Win32,60,,m,1,0.45255,,,,,,,,0.45255,1,,,,,,140,WORD,"ID",50,prince,PRINCE,m,,,,,,0.344444463,-0.318518531,0,0,0,,0,388,388,79,1,
,,,,,,,,,,,,,,,,,,5e3d8f6b6b1c15033ce417f4,2020-08-10_12h46.10.731,lexical_decision_task_MP,2020.1.3,Win32,60,,z,1,0.706865,,,,,,,,0.706865,1,,,,,,247,NW,UN,50,strole,BLARGE,z,,,,,,0.344444463,-0.318518531,0,0,0,,0,389,389,426,1,
,,,,,,,,,,,,,,,,,,5e3d8f6b6b1c15033ce417f4,2020-08-10_12h46.10.731,lexical_decision_task_MP,2020.1.3,Win32,60,,,0,,,,,,,,,0.706865,-1,,,,,,71,WORD,"ID",33,garden,GARDEN,m,,,,,,0.344444463,-0.318518531,0,0,0,,0,390,390,10,1,
,,,,,,,,,,,,,,,,,,5e3d8f6b6b1c15033ce417f4,2020-08-10_12h46.10.731,lexical_decision_task_MP,2020.1.3,Win32,60,,z,1,0.53719,,,,,,,,0.53719,1,,,,,,414,NW,"ID",50,serbol,SERBOL,z,,,,,,0.344444463,-0.318518531,0,0,0,,0,391,391,353,1,
,,,,,,,,,,,,,,,,,,5e3d8f6b6b1c15033ce417f4,2020-08-10_12h46.10.731,lexical_decision_task_MP,2020.1.3,Win32,60,,m,1,0.4815,,,,,,,,0.4815,1,,,,,,51,WORD,UN,50,impose,HUNGRY,m,,,,,,0.344444463,-0.318518531,0,0,0,,0,392,392,230,1,
,,,,,,,,,,,,,,,,,,5e3d8f6b6b1c15033ce417f4,2020-08-10_12h46.10.731,lexical_decision_task_MP,2020.1.3,Win32,60,,m,1,0.531325,,,,,,,,0.531325,1,,,,,,104,WORD,"ID",33,studio,STUDIO,m,,,,,,0.344444463,-0.318518531,0,0,0,,0,393,393,43,1,
,,,,,,,,,,,,,,,,,,5e3d8f6b6b1c15033ce417f4,2020-08-10_12h46.10.731,lexical_decision_task_MP,2020.1.3,Win32,60,,z,1,0.62943,,,,,,,,0.62943,1,,,,,,461,NW,UN,33,absult,JUSTRE,z,,,,,,0.344444463,-0.318518531,0,0,0,,0,394,394,400,1,
,,,,,,,,,,,,,,,,,,5e3d8f6b6b1c15033ce417f4,2020-08-10_12h46.10.731,lexical_decision_task_MP,2020.1.3,Win32,60,,z,1,0.522885,,,,,,,,0.522885,1,,,,,,465,NW,UN,33,bafent,WHIVEX,z,,,,,,0.344444463,-0.318518531,0,0,0,,0,395,395,404,1,
,,,,,,,,,,,,,,,,,,5e3d8f6b6b1c15033ce417f4,2020-08-10_12h46.10.731,lexical_decision_task_MP,2020.1.3,Win32,60,,z,1,1.37707,,,,,,,,1.37707,1,,,,,,432,NW,UN,33,drance,LUNKER,z,,,,,,0.344444463,-0.318518531,0,0,0,,0,396,396,371,1,
,,,,,,,,,,,,,,,,,,5e3d8f6b6b1c15033ce417f4,2020-08-10_12h46.10.731,lexical_decision_task_MP,2020.1.3,Win32,60,,m,1,0.516855,,,,,,,,0.516855,1,,,,,,95,WORD,"ID",33,thread,THREAD,m,,,,,,0.344444463,-0.318518531,0,0,0,,0,397,397,34,1,
,,,,,,,,,,,,,,,,,,5e3d8f6b6b1c15033ce417f4,2020-08-10_12h46.10.731,lexical_decision_task_MP,2020.1.3,Win32,60,,z,1,0.75686,,,,,,,,0.75686,1,,,,,,245,NW,UN,50,piaton,ANOUGS,z,,,,,,0.344444463,-0.318518531,0,0,0,,0,398,398,424,1,
,,,,,,,,,,,,,,,,,,5e3d8f6b6b1c15033ce417f4,2020-08-10_12h46.10.731,lexical_decision_task_MP,2020.1.3,Win32,60,,m,1,0.54681,,,,,,,,0.54681,1,,,,,,189,WORD,UN,33,backup,CENSOR,m,,,,,,0.344444463,-0.318518531,0,0,0,,0,399,399,128,1,
,,,,,,,,,,,,,,,,,,5e3d8f6b6b1c15033ce417f4,2020-08-10_12h46.10.731,lexical_decision_task_MP,2020.1.3,Win32,60,,z,1,0.73372,,,,,,,,0.73372,1,,,,,,326,NW,"ID",33,iguade,IGUADE,z,,,,,,0.344444463,-0.318518531,0,0,0,,0,400,400,265,1,
,,,,,,,,,,,,,,,,,,5e3d8f6b6b1c15033ce417f4,2020-08-10_12h46.10.731,lexical_decision_task_MP,2020.1.3,Win32,60,,m,1,0.54016,,,,,,,,0.54016,1,,,,,,137,WORD,"ID",50,finger,FINGER,m,,,,,,0.344444463,-0.318518531,0,0,0,,0,401,401,76,1,
,,,,,,,,,,,,,,,,,,5e3d8f6b6b1c15033ce417f4,2020-08-10_12h46.10.731,lexical_decision_task_MP,2020.1.3,Win32,60,,z,1,0.663845,,,,,,,,0.663845,1,,,,,,277,NW,UN,50,unighs,PETAIN,z,,,,,,0.344444463,-0.318518531,0,0,0,,0,402,402,456,1,
