counterbalancing_condition,instr_done_keyboard.keys,instr_done_touch.x,instr_done_touch.y,instr_done_touch.leftButton,instr_done_touch.midButton,instr_done_touch.rightButton,instr_done_touch.clicked_name,instruction_pages.thisRepN,instruction_pages.thisTrialN,instruction_pages.thisN,instruction_pages.thisIndex,instruction_pages.ran,pageN,phase,instruct_text,has_image,instruct_image,participant,date,expName,psychopyVersion,OS,frameRate,response.keys,response.corr,touch_resp.x,touch_resp.y,touch_resp.leftButton,touch_resp.midButton,touch_resp.rightButton,touch_resp.time,touch_resp.clicked_name,rt,corr,practice_trials.thisRepN,practice_trials.thisTrialN,practice_trials.thisN,practice_trials.thisIndex,practice_trials.ran,TrialID,StimulusType,Condition,PrimeDuration,Prime,Target,corrAns,response.rt,end_of_practice_trials_pages.thisRepN,end_of_practice_trials_pages.thisTrialN,end_of_practice_trials_pages.thisN,end_of_practice_trials_pages.thisIndex,end_of_practice_trials_pages.ran,break_done_touch.x,break_done_touch.y,break_done_touch.leftButton,break_done_touch.midButton,break_done_touch.rightButton,break_done_keyboard.keys,trials.thisRepN,trials.thisTrialN,trials.thisN,trials.thisIndex,trials.ran,break_done_touch.clicked_name,break_done_keyboard.rt
2,,-0.063333333,-0.413333333,1,0,0,instr_done_button,0,0,0,0,1,1,instructions,"INSTRUCTIONS
At the start of each trial, look at the hash marks (######) in the center of the screen. After a moment, a string of letters will appear. Your task is to indicate if the letter string forms a word or not (i.e., if it is a nonword). For example, AUTHOR is a word while AUTHON is a nonword.

Press the space bar or touch the button below to continue.",0,,5e5012ec47808406305d6a0d,2020-08-10_16h24.11.928,lexical_decision_task_MP,2020.1.3,Win32,60,,,,,,,,,,,,,,,,,,,,,,,,,,,,,,,,,,,,,,,,,,
,,-0.035555556,-0.415555556,1,0,0,instr_done_button,0,1,1,1,1,2,instructions,"If your device has a keyboard, press the 'Z' key for nonwords and the 'M' key for words.





Press the space bar or touch the button below to continue.",1,keyboard-example.gif,5e5012ec47808406305d6a0d,2020-08-10_16h24.11.928,lexical_decision_task_MP,2020.1.3,Win32,60,,,,,,,,,,,,,,,,,,,,,,,,,,,,,,,,,,,,,,,,,,
,,-0.035555556,-0.415555556,1,0,0,instr_done_button,0,2,2,2,1,3,instructions,"If you are using a touchscreen only device, use the buttons on the screen. Do not use the mouse.





Press the space bar or touch the button below to continue.",1,touchscreen-example.gif,5e5012ec47808406305d6a0d,2020-08-10_16h24.11.928,lexical_decision_task_MP,2020.1.3,Win32,60,,,,,,,,,,,,,,,,,,,,,,,,,,,,,,,,,,,,,,,,,,
,,-0.035555556,-0.415555556,1,0,0,instr_done_button,0,3,3,3,1,4,instructions,"It is very important that you respond as quickly and accurately as possible, as each letter string will only be on the screen for two seconds. If you do not respond within this time, the message 'Too slow!' will be displayed and the experiment will progress to the next letter string. The first 20 trials will be practice trials and you will receive feedback on your answers. 

Press the space bar or touch the button below to start the practice trials.",0,,5e5012ec47808406305d6a0d,2020-08-10_16h24.11.928,lexical_decision_task_MP,2020.1.3,Win32,60,,,,,,,,,,,,,,,,,,,,,,,,,,,,,,,,,,,,,,,,,,
,,,,,,,,,,,,,,,,,,5e5012ec47808406305d6a0d,2020-08-10_16h24.11.928,lexical_decision_task_MP,2020.1.3,Win32,60,,0,,,,,,,,,-1,0,0,0,1,1,1002,WORD,"ID",33,adjust,ADJUST,m,,,,,,,,,,,,,,,,,,,
,,,,,,,,,,,,,,,,,,5e5012ec47808406305d6a0d,2020-08-10_16h24.11.928,lexical_decision_task_MP,2020.1.3,Win32,60,m,0,,,,,,,,0.061,0,0,1,1,11,1,1012,NW,"ID",50,rashet,RASHET,z,0.061,,,,,,,,,,,,,,,,,,
,,,,,,,,,,,,,,,,,,5e5012ec47808406305d6a0d,2020-08-10_16h24.11.928,lexical_decision_task_MP,2020.1.3,Win32,60,,0,,,,,,,,0.061,-1,0,2,2,6,1,1007,WORD,UN,50,tropic,ZOMBIE,m,,,,,,,,,,,,,,,,,,,
,,,,,,,,,,,,,,,,,,5e5012ec47808406305d6a0d,2020-08-10_16h24.11.928,lexical_decision_task_MP,2020.1.3,Win32,60,m,1,,,,,,,,0.907,1,0,3,3,3,1,1004,WORD,"ID",50,matrix,MATRIX,m,0.907,,,,,,,,,,,,,,,,,,
,,,,,,,,,,,,,,,,,,5e5012ec47808406305d6a0d,2020-08-10_16h24.11.928,lexical_decision_task_MP,2020.1.3,Win32,60,m,1,,,,,,,,1.374,1,0,4,4,5,1,1006,WORD,UN,33,frenzy,OBTAIN,m,1.374,,,,,,,,,,,,,,,,,,
,,,,,,,,,,,,,,,,,,5e5012ec47808406305d6a0d,2020-08-10_16h24.11.928,lexical_decision_task_MP,2020.1.3,Win32,60,z,1,,,,,,,,1.071,1,0,5,5,10,1,1011,NW,"ID",50,inlade,INLADE,z,1.071,,,,,,,,,,,,,,,,,,
,,,,,,,,,,,,,,,,,,5e5012ec47808406305d6a0d,2020-08-10_16h24.11.928,lexical_decision_task_MP,2020.1.3,Win32,60,z,1,,,,,,,,0.946,1,0,6,6,12,1,1013,NW,UN,33,adveil,SPRINY,z,0.946,,,,,,,,,,,,,,,,,,
,,,,,,,,,,,,,,,,,,5e5012ec47808406305d6a0d,2020-08-10_16h24.11.928,lexical_decision_task_MP,2020.1.3,Win32,60,z,1,,,,,,,,0.925,1,0,7,7,15,1,1016,NW,UN,50,mushed,WHAISE,z,0.925,,,,,,,,,,,,,,,,,,
,,,,,,,,,,,,,,,,,,5e5012ec47808406305d6a0d,2020-08-10_16h24.11.928,lexical_decision_task_MP,2020.1.3,Win32,60,z,1,,,,,,,,0.827,1,0,8,8,9,1,1010,NW,"ID",33,fariny,FARINY,z,0.827,,,,,,,,,,,,,,,,,,
,,,,,,,,,,,,,,,,,,5e5012ec47808406305d6a0d,2020-08-10_16h24.11.928,lexical_decision_task_MP,2020.1.3,Win32,60,m,1,,,,,,,,0.804,1,0,9,9,7,1,1008,WORD,UN,50,hurdle,VOLUME,m,0.804,,,,,,,,,,,,,,,,,,
,,,,,,,,,,,,,,,,,,5e5012ec47808406305d6a0d,2020-08-10_16h24.11.928,lexical_decision_task_MP,2020.1.3,Win32,60,m,0,,,,,,,,0.882,0,0,10,10,13,1,1014,NW,UN,33,winfer,ROUPET,z,0.882,,,,,,,,,,,,,,,,,,
,,,,,,,,,,,,,,,,,,5e5012ec47808406305d6a0d,2020-08-10_16h24.11.928,lexical_decision_task_MP,2020.1.3,Win32,60,z,1,,,,,,,,0.904,1,0,11,11,8,1,1009,NW,"ID",33,aslert,ASLERT,z,0.904,,,,,,,,,,,,,,,,,,
,,,,,,,,,,,,,,,,,,5e5012ec47808406305d6a0d,2020-08-10_16h24.11.928,lexical_decision_task_MP,2020.1.3,Win32,60,z,1,,,,,,,,0.803,1,0,12,12,14,1,1015,NW,UN,50,miaber,THRALE,z,0.803,,,,,,,,,,,,,,,,,,
,,,,,,,,,,,,,,,,,,5e5012ec47808406305d6a0d,2020-08-10_16h24.11.928,lexical_decision_task_MP,2020.1.3,Win32,60,m,1,,,,,,,,0.844,1,0,13,13,0,1,1001,WORD,"ID",33,utopia,UTOPIA,m,0.844,,,,,,,,,,,,,,,,,,
,,,,,,,,,,,,,,,,,,5e5012ec47808406305d6a0d,2020-08-10_16h24.11.928,lexical_decision_task_MP,2020.1.3,Win32,60,m,1,,,,,,,,0.853,1,0,14,14,2,1,1003,WORD,"ID",50,almond,ALMOND,m,0.853,,,,,,,,,,,,,,,,,,
,,,,,,,,,,,,,,,,,,5e5012ec47808406305d6a0d,2020-08-10_16h24.11.928,lexical_decision_task_MP,2020.1.3,Win32,60,m,1,,,,,,,,1.047,1,0,15,15,4,1,1005,WORD,UN,33,abound,SQUEAK,m,1.047,,,,,,,,,,,,,,,,,,
,,-0.035555556,-0.415555556,1,0,0,instr_done_button,,,,,,1,end_of_practice,"You have completed the practice trials. During the experimental trials, you will not receive feedback, but it is very important that you respond as quickly and accurately as possible. 
Before you begin, please ensure that you are in a comfortable and quiet location and will not be disturbed for about 15 minutes, as we cannot use your data if you do not complete all the trials. 
There will be opportunities to take breaks at regular intervals during the experiment. When you are ready to start the experimental trials, please press space or touch the button below.",,,5e5012ec47808406305d6a0d,2020-08-10_16h24.11.928,lexical_decision_task_MP,2020.1.3,Win32,60,,,,,,,,,,,,,,,,,,,,,,,,,0,0,0,0,1,,,,,,,,,,,,,
,,,,,,,,,,,,,,,,,,5e5012ec47808406305d6a0d,2020-08-10_16h24.11.928,lexical_decision_task_MP,2020.1.3,Win32,60,m,1,,,,,,,,1.065,1,,,,,,160,WORD,"ID",50,violet,VIOLET,m,1.065,,,,,,-0.035555556,-0.415555556,0,0,0,,0,0,0,99,1,,
,,,,,,,,,,,,,,,,,,5e5012ec47808406305d6a0d,2020-08-10_16h24.11.928,lexical_decision_task_MP,2020.1.3,Win32,60,z,1,,,,,,,,1.373,1,,,,,,338,NW,"ID",33,wreash,WREASH,z,1.373,,,,,,-0.035555556,-0.415555556,0,0,0,,0,1,1,277,1,,
,,,,,,,,,,,,,,,,,,5e5012ec47808406305d6a0d,2020-08-10_16h24.11.928,lexical_decision_task_MP,2020.1.3,Win32,60,z,1,,,,,,,,1.084,1,,,,,,334,NW,"ID",33,watmeg,WATMEG,z,1.084,,,,,,-0.035555556,-0.415555556,0,0,0,,0,2,2,273,1,,
,,,,,,,,,,,,,,,,,,5e5012ec47808406305d6a0d,2020-08-10_16h24.11.928,lexical_decision_task_MP,2020.1.3,Win32,60,m,1,,,,,,,,0.964,1,,,,,,32,WORD,UN,50,scream,BUCKLE,m,0.964,,,,,,-0.035555556,-0.415555556,0,0,0,,0,3,3,211,1,,
,,,,,,,,,,,,,,,,,,5e5012ec47808406305d6a0d,2020-08-10_16h24.11.928,lexical_decision_task_MP,2020.1.3,Win32,60,z,1,,,,,,,,0.925,1,,,,,,301,NW,"ID",33,fainch,FAINCH,z,0.925,,,,,,-0.035555556,-0.415555556,0,0,0,,0,4,4,240,1,,
,,,,,,,,,,,,,,,,,,5e5012ec47808406305d6a0d,2020-08-10_16h24.11.928,lexical_decision_task_MP,2020.1.3,Win32,60,m,1,,,,,,,,1.025,1,,,,,,212,WORD,UN,33,squeal,VERIFY,m,1.025,,,,,,-0.035555556,-0.415555556,0,0,0,,0,5,5,151,1,,
,,,,,,,,,,,,,,,,,,5e5012ec47808406305d6a0d,2020-08-10_16h24.11.928,lexical_decision_task_MP,2020.1.3,Win32,60,m,1,,,,,,,,0.703,1,,,,,,209,WORD,UN,33,monkey,SEARCH,m,0.703,,,,,,-0.035555556,-0.415555556,0,0,0,,0,6,6,148,1,,
,,,,,,,,,,,,,,,,,,5e5012ec47808406305d6a0d,2020-08-10_16h24.11.928,lexical_decision_task_MP,2020.1.3,Win32,60,m,1,,,,,,,,0.711,1,,,,,,221,WORD,UN,33,hinder,MASCOT,m,0.711,,,,,,-0.035555556,-0.415555556,0,0,0,,0,7,7,160,1,,
,,,,,,,,,,,,,,,,,,5e5012ec47808406305d6a0d,2020-08-10_16h24.11.928,lexical_decision_task_MP,2020.1.3,Win32,60,z,1,,,,,,,,0.661,1,,,,,,247,NW,UN,50,strole,BLARGE,z,0.661,,,,,,-0.035555556,-0.415555556,0,0,0,,0,8,8,426,1,,
,,,,,,,,,,,,,,,,,,5e5012ec47808406305d6a0d,2020-08-10_16h24.11.928,lexical_decision_task_MP,2020.1.3,Win32,60,z,1,,,,,,,,0.845,1,,,,,,286,NW,UN,50,nymbel,RELDON,z,0.845,,,,,,-0.035555556,-0.415555556,0,0,0,,0,9,9,465,1,,
,,,,,,,,,,,,,,,,,,5e5012ec47808406305d6a0d,2020-08-10_16h24.11.928,lexical_decision_task_MP,2020.1.3,Win32,60,z,1,,,,,,,,0.985,1,,,,,,344,NW,"ID",33,scrily,SCRILY,z,0.985,,,,,,-0.035555556,-0.415555556,0,0,0,,0,10,10,283,1,,
,,,,,,,,,,,,,,,,,,5e5012ec47808406305d6a0d,2020-08-10_16h24.11.928,lexical_decision_task_MP,2020.1.3,Win32,60,z,1,,,,,,,,0.824,1,,,,,,400,NW,"ID",50,wearox,WEAROX,z,0.824,,,,,,-0.035555556,-0.415555556,0,0,0,,0,11,11,339,1,,
,,,,,,,,,,,,,,,,,,5e5012ec47808406305d6a0d,2020-08-10_16h24.11.928,lexical_decision_task_MP,2020.1.3,Win32,60,z,1,,,,,,,,0.764,1,,,,,,367,NW,"ID",50,slique,SLIQUE,z,0.764,,,,,,-0.035555556,-0.415555556,0,0,0,,0,12,12,306,1,,
,,,,,,,,,,,,,,,,,,5e5012ec47808406305d6a0d,2020-08-10_16h24.11.928,lexical_decision_task_MP,2020.1.3,Win32,60,z,1,,,,,,,,0.802,1,,,,,,453,NW,UN,33,scouge,BOLVIS,z,0.802,,,,,,-0.035555556,-0.415555556,0,0,0,,0,13,13,392,1,,
,,,,,,,,,,,,,,,,,,5e5012ec47808406305d6a0d,2020-08-10_16h24.11.928,lexical_decision_task_MP,2020.1.3,Win32,60,z,1,,,,,,,,0.885,1,,,,,,299,NW,UN,50,yarion,STURCH,z,0.885,,,,,,-0.035555556,-0.415555556,0,0,0,,0,14,14,478,1,,
,,,,,,,,,,,,,,,,,,5e5012ec47808406305d6a0d,2020-08-10_16h24.11.928,lexical_decision_task_MP,2020.1.3,Win32,60,z,1,,,,,,,,0.948,1,,,,,,373,NW,"ID",50,bigent,BIGENT,z,0.948,,,,,,-0.035555556,-0.415555556,0,0,0,,0,15,15,312,1,,
,,,,,,,,,,,,,,,,,,5e5012ec47808406305d6a0d,2020-08-10_16h24.11.928,lexical_decision_task_MP,2020.1.3,Win32,60,z,1,,,,,,,,0.77,1,,,,,,340,NW,"ID",33,fiatch,FIATCH,z,0.77,,,,,,-0.035555556,-0.415555556,0,0,0,,0,16,16,279,1,,
,,,,,,,,,,,,,,,,,,5e5012ec47808406305d6a0d,2020-08-10_16h24.11.928,lexical_decision_task_MP,2020.1.3,Win32,60,m,1,,,,,,,,0.663,1,,,,,,109,WORD,"ID",33,wonder,WONDER,m,0.663,,,,,,-0.035555556,-0.415555556,0,0,0,,0,17,17,48,1,,
,,,,,,,,,,,,,,,,,,5e5012ec47808406305d6a0d,2020-08-10_16h24.11.928,lexical_decision_task_MP,2020.1.3,Win32,60,z,1,,,,,,,,0.805,1,,,,,,326,NW,"ID",33,iguade,IGUADE,z,0.805,,,,,,-0.035555556,-0.415555556,0,0,0,,0,18,18,265,1,,
,,,,,,,,,,,,,,,,,,5e5012ec47808406305d6a0d,2020-08-10_16h24.11.928,lexical_decision_task_MP,2020.1.3,Win32,60,m,1,,,,,,,,0.742,1,,,,,,90,WORD,"ID",33,relish,RELISH,m,0.742,,,,,,-0.035555556,-0.415555556,0,0,0,,0,19,19,29,1,,
,,,,,,,,,,,,,,,,,,5e5012ec47808406305d6a0d,2020-08-10_16h24.11.928,lexical_decision_task_MP,2020.1.3,Win32,60,m,1,,,,,,,,0.863,1,,,,,,194,WORD,UN,33,resign,ABSENT,m,0.863,,,,,,-0.035555556,-0.415555556,0,0,0,,0,20,20,133,1,,
,,,,,,,,,,,,,,,,,,5e5012ec47808406305d6a0d,2020-08-10_16h24.11.928,lexical_decision_task_MP,2020.1.3,Win32,60,z,1,,,,,,,,0.768,1,,,,,,464,NW,UN,33,whivex,CHAITE,z,0.768,,,,,,-0.035555556,-0.415555556,0,0,0,,0,21,21,403,1,,
,,,,,,,,,,,,,,,,,,5e5012ec47808406305d6a0d,2020-08-10_16h24.11.928,lexical_decision_task_MP,2020.1.3,Win32,60,z,1,,,,,,,,0.791,1,,,,,,383,NW,"ID",50,aungre,AUNGRE,z,0.791,,,,,,-0.035555556,-0.415555556,0,0,0,,0,22,22,322,1,,
,,,,,,,,,,,,,,,,,,5e5012ec47808406305d6a0d,2020-08-10_16h24.11.928,lexical_decision_task_MP,2020.1.3,Win32,60,m,1,,,,,,,,0.864,1,,,,,,28,WORD,UN,50,sketch,COMEDY,m,0.864,,,,,,-0.035555556,-0.415555556,0,0,0,,0,23,23,207,1,,
,,,,,,,,,,,,,,,,,,5e5012ec47808406305d6a0d,2020-08-10_16h24.11.928,lexical_decision_task_MP,2020.1.3,Win32,60,m,1,,,,,,,,0.844,1,,,,,,54,WORD,UN,50,stroke,RAMBLE,m,0.844,,,,,,-0.035555556,-0.415555556,0,0,0,,0,24,24,233,1,,
,,,,,,,,,,,,,,,,,,5e5012ec47808406305d6a0d,2020-08-10_16h24.11.928,lexical_decision_task_MP,2020.1.3,Win32,60,z,1,,,,,,,,0.72,1,,,,,,346,NW,"ID",33,saudic,SAUDIC,z,0.72,,,,,,-0.035555556,-0.415555556,0,0,0,,0,25,25,285,1,,
,,,,,,,,,,,,,,,,,,5e5012ec47808406305d6a0d,2020-08-10_16h24.11.928,lexical_decision_task_MP,2020.1.3,Win32,60,z,1,,,,,,,,0.904,1,,,,,,372,NW,"ID",50,ramily,RAMILY,z,0.904,,,,,,-0.035555556,-0.415555556,0,0,0,,0,26,26,311,1,,
,,,,,,,,,,,,,,,,,,5e5012ec47808406305d6a0d,2020-08-10_16h24.11.928,lexical_decision_task_MP,2020.1.3,Win32,60,z,1,,,,,,,,0.809,1,,,,,,450,NW,UN,33,cainky,PHRECT,z,0.809,,,,,,-0.035555556,-0.415555556,0,0,0,,0,27,27,389,1,,
,,,,,,,,,,,,,,,,,,5e5012ec47808406305d6a0d,2020-08-10_16h24.11.928,lexical_decision_task_MP,2020.1.3,Win32,60,z,1,,,,,,,,0.723,1,,,,,,385,NW,"ID",50,veigma,VEIGMA,z,0.723,,,,,,-0.035555556,-0.415555556,0,0,0,,0,28,28,324,1,,
,,,,,,,,,,,,,,,,,,5e5012ec47808406305d6a0d,2020-08-10_16h24.11.928,lexical_decision_task_MP,2020.1.3,Win32,60,m,1,,,,,,,,0.763,1,,,,,,30,WORD,UN,50,weapon,ORIENT,m,0.763,,,,,,-0.035555556,-0.415555556,0,0,0,,0,29,29,209,1,,
,,,,,,,,,,,,,,,,,,5e5012ec47808406305d6a0d,2020-08-10_16h24.11.928,lexical_decision_task_MP,2020.1.3,Win32,60,z,1,,,,,,,,0.843,1,,,,,,256,NW,UN,50,veniod,INLORS,z,0.843,,,,,,-0.035555556,-0.415555556,0,0,0,,0,30,30,435,1,,
,,,,,,,,,,,,,,,,,,5e5012ec47808406305d6a0d,2020-08-10_16h24.11.928,lexical_decision_task_MP,2020.1.3,Win32,60,z,1,,,,,,,,0.783,1,,,,,,406,NW,"ID",50,nouply,NOUPLY,z,0.783,,,,,,-0.035555556,-0.415555556,0,0,0,,0,31,31,345,1,,
,,,,,,,,,,,,,,,,,,5e5012ec47808406305d6a0d,2020-08-10_16h24.11.928,lexical_decision_task_MP,2020.1.3,Win32,60,m,1,,,,,,,,0.812,1,,,,,,215,WORD,UN,33,lumber,PHOBIA,m,0.812,,,,,,-0.035555556,-0.415555556,0,0,0,,0,32,32,154,1,,
,,,,,,,,,,,,,,,,,,5e5012ec47808406305d6a0d,2020-08-10_16h24.11.928,lexical_decision_task_MP,2020.1.3,Win32,60,z,1,,,,,,,,0.805,1,,,,,,354,NW,"ID",33,virlex,VIRLEX,z,0.805,,,,,,-0.035555556,-0.415555556,0,0,0,,0,33,33,293,1,,
,,,,,,,,,,,,,,,,,,5e5012ec47808406305d6a0d,2020-08-10_16h24.11.928,lexical_decision_task_MP,2020.1.3,Win32,60,m,1,,,,,,,,0.705,1,,,,,,64,WORD,"ID",33,throne,THRONE,m,0.705,,,,,,-0.035555556,-0.415555556,0,0,0,,0,34,34,3,1,,
,,,,,,,,,,,,,,,,,,5e5012ec47808406305d6a0d,2020-08-10_16h24.11.928,lexical_decision_task_MP,2020.1.3,Win32,60,m,1,,,,,,,,1.012,1,,,,,,140,WORD,"ID",50,prince,PRINCE,m,1.012,,,,,,-0.035555556,-0.415555556,0,0,0,,0,35,35,79,1,,
,,,,,,,,,,,,,,,,,,5e5012ec47808406305d6a0d,2020-08-10_16h24.11.928,lexical_decision_task_MP,2020.1.3,Win32,60,m,1,,,,,,,,0.686,1,,,,,,216,WORD,UN,33,liquor,BEHALF,m,0.686,,,,,,-0.035555556,-0.415555556,0,0,0,,0,36,36,155,1,,
,,,,,,,,,,,,,,,,,,5e5012ec47808406305d6a0d,2020-08-10_16h24.11.928,lexical_decision_task_MP,2020.1.3,Win32,60,m,1,,,,,,,,0.703,1,,,,,,66,WORD,"ID",33,gospel,GOSPEL,m,0.703,,,,,,-0.035555556,-0.415555556,0,0,0,,0,37,37,5,1,,
,,,,,,,,,,,,,,,,,,5e5012ec47808406305d6a0d,2020-08-10_16h24.11.928,lexical_decision_task_MP,2020.1.3,Win32,60,z,1,,,,,,,,0.844,1,,,,,,399,NW,"ID",50,fouret,FOURET,z,0.844,,,,,,-0.035555556,-0.415555556,0,0,0,,0,38,38,338,1,,
,,,,,,,,,,,,,,,,,,5e5012ec47808406305d6a0d,2020-08-10_16h24.11.928,lexical_decision_task_MP,2020.1.3,Win32,60,z,1,,,,,,,,0.991,1,,,,,,477,NW,UN,33,lobush,PHOTIE,z,0.991,,,,,,-0.035555556,-0.415555556,0,0,0,,0,39,39,416,1,,
,,,,,,,,,,,,,,,,,,5e5012ec47808406305d6a0d,2020-08-10_16h24.11.928,lexical_decision_task_MP,2020.1.3,Win32,60,m,0,,,,,,,,0.804,0,,,,,,303,NW,"ID",33,fiream,FIREAM,z,0.804,,,,,,-0.035555556,-0.415555556,0,0,0,,0,40,40,242,1,,
,,,,,,,,,,,,,,,,,,5e5012ec47808406305d6a0d,2020-08-10_16h24.11.928,lexical_decision_task_MP,2020.1.3,Win32,60,m,1,,,,,,,,0.668,1,,,,,,67,WORD,"ID",33,policy,POLICY,m,0.668,,,,,,-0.035555556,-0.415555556,0,0,0,,0,41,41,6,1,,
,,,,,,,,,,,,,,,,,,5e5012ec47808406305d6a0d,2020-08-10_16h24.11.928,lexical_decision_task_MP,2020.1.3,Win32,60,z,1,,,,,,,,1.026,1,,,,,,294,NW,UN,50,gleath,INHORT,z,1.026,,,,,,-0.035555556,-0.415555556,0,0,0,,0,42,42,473,1,,
,,,,,,,,,,,,,,,,,,5e5012ec47808406305d6a0d,2020-08-10_16h24.11.928,lexical_decision_task_MP,2020.1.3,Win32,60,m,1,,,,,,,,0.769,1,,,,,,171,WORD,"ID",50,depart,DEPART,m,0.769,,,,,,-0.035555556,-0.415555556,0,0,0,,0,43,43,110,1,,
,,,,,,,,,,,,,,,,,,5e5012ec47808406305d6a0d,2020-08-10_16h24.11.928,lexical_decision_task_MP,2020.1.3,Win32,60,z,1,,,,,,,,0.762,1,,,,,,295,NW,UN,50,beinch,GLEATH,z,0.762,,,,,,-0.035555556,-0.415555556,0,0,0,,0,44,44,474,1,,
,,,,,,,,,,,,,,,,,,5e5012ec47808406305d6a0d,2020-08-10_16h24.11.928,lexical_decision_task_MP,2020.1.3,Win32,60,m,1,,,,,,,,0.631,1,,,,,,48,WORD,UN,50,survey,WALNUT,m,0.631,,,,,,-0.035555556,-0.415555556,0,0,0,,0,45,45,227,1,,
,,,,,,,,,,,,,,,,,,5e5012ec47808406305d6a0d,2020-08-10_16h24.11.928,lexical_decision_task_MP,2020.1.3,Win32,60,z,1,,,,,,,,1.008,1,,,,,,420,NW,"ID",50,gushop,GUSHOP,z,1.008,,,,,,-0.035555556,-0.415555556,0,0,0,,0,46,46,359,1,,
,,,,,,,,,,,,,,,,,,5e5012ec47808406305d6a0d,2020-08-10_16h24.11.928,lexical_decision_task_MP,2020.1.3,Win32,60,z,1,,,,,,,,0.765,1,,,,,,459,NW,UN,33,mingar,BAFENT,z,0.765,,,,,,-0.035555556,-0.415555556,0,0,0,,0,47,47,398,1,,
,,,,,,,,,,,,,,,,,,5e5012ec47808406305d6a0d,2020-08-10_16h24.11.928,lexical_decision_task_MP,2020.1.3,Win32,60,m,1,,,,,,,,0.545,1,,,,,,150,WORD,"ID",50,random,RANDOM,m,0.545,,,,,,-0.035555556,-0.415555556,0,0,0,,0,48,48,89,1,,
,,,,,,,,,,,,,,,,,,5e5012ec47808406305d6a0d,2020-08-10_16h24.11.928,lexical_decision_task_MP,2020.1.3,Win32,60,m,1,,,,,,,,0.771,1,,,,,,228,WORD,UN,33,kidney,MASTER,m,0.771,,,,,,-0.035555556,-0.415555556,0,0,0,,0,49,49,167,1,,
,,,,,,,,,,,,,,,,,,5e5012ec47808406305d6a0d,2020-08-10_16h24.11.928,lexical_decision_task_MP,2020.1.3,Win32,60,m,1,,,,,,,,0.731,1,,,,,,39,WORD,UN,50,convey,INSECT,m,0.731,,,,,,-0.035555556,-0.415555556,0,0,0,,0,50,50,218,1,,
,,,,,,,,,,,,,,,,,,5e5012ec47808406305d6a0d,2020-08-10_16h24.11.928,lexical_decision_task_MP,2020.1.3,Win32,60,m,1,,,,,,,,0.628,1,,,,,,188,WORD,UN,33,censor,SOCIAL,m,0.628,,,,,,-0.035555556,-0.415555556,0,0,0,,0,51,51,127,1,,
,,,,,,,,,,,,,,,,,,5e5012ec47808406305d6a0d,2020-08-10_16h24.11.928,lexical_decision_task_MP,2020.1.3,Win32,60,z,1,,,,,,,,0.787,1,,,,,,429,NW,UN,33,caroey,FUNTLE,z,0.787,,,,,,-0.035555556,-0.415555556,0,0,0,,0,52,52,368,1,,
,,,,,,,,,,,,,,,,,,5e5012ec47808406305d6a0d,2020-08-10_16h24.11.928,lexical_decision_task_MP,2020.1.3,Win32,60,m,1,,,,,,,,0.683,1,,,,,,20,WORD,UN,50,simple,BREAST,m,0.683,,,,,,-0.035555556,-0.415555556,0,0,0,,0,53,53,199,1,,
,,,,,,,,,,,,,,,,,,5e5012ec47808406305d6a0d,2020-08-10_16h24.11.928,lexical_decision_task_MP,2020.1.3,Win32,60,m,1,,,,,,,,0.645,1,,,,,,71,WORD,"ID",33,garden,GARDEN,m,0.645,,,,,,-0.035555556,-0.415555556,0,0,0,,0,54,54,10,1,,
,,,,,,,,,,,,,,,,,,5e5012ec47808406305d6a0d,2020-08-10_16h24.11.928,lexical_decision_task_MP,2020.1.3,Win32,60,m,1,,,,,,,,0.59,1,,,,,,132,WORD,"ID",50,strong,STRONG,m,0.59,,,,,,-0.035555556,-0.415555556,0,0,0,,0,55,55,71,1,,
,,,,,,,,,,,,,,,,,,5e5012ec47808406305d6a0d,2020-08-10_16h24.11.928,lexical_decision_task_MP,2020.1.3,Win32,60,m,1,,,,,,,,0.663,1,,,,,,131,WORD,"ID",50,quench,QUENCH,m,0.663,,,,,,-0.035555556,-0.415555556,0,0,0,,0,56,56,70,1,,
,,,,,,,,,,,,,,,,,,5e5012ec47808406305d6a0d,2020-08-10_16h24.11.928,lexical_decision_task_MP,2020.1.3,Win32,60,m,1,,,,,,,,0.583,1,,,,,,162,WORD,"ID",50,candle,CANDLE,m,0.583,,,,,,-0.035555556,-0.415555556,0,0,0,,0,57,57,101,1,,
,,,,,,,,,,,,,,,,,,5e5012ec47808406305d6a0d,2020-08-10_16h24.11.928,lexical_decision_task_MP,2020.1.3,Win32,60,z,1,,,,,,,,0.863,1,,,,,,314,NW,"ID",33,sprine,SPRINE,z,0.863,,,,,,-0.035555556,-0.415555556,0,0,0,,0,58,58,253,1,,
,,,,,,,,,,,,,,,,,,5e5012ec47808406305d6a0d,2020-08-10_16h24.11.928,lexical_decision_task_MP,2020.1.3,Win32,60,z,1,,,,,,,,0.663,1,,,,,,396,NW,"ID",50,flengy,FLENGY,z,0.663,,,,,,-0.035555556,-0.415555556,0,0,0,,0,59,59,335,1,,
,,,,,,,,,,,,,,,,,,5e5012ec47808406305d6a0d,2020-08-10_16h24.11.928,lexical_decision_task_MP,2020.1.3,Win32,60,z,1,,,,,,,,0.67,1,,,,,,438,NW,UN,33,limpor,BAITCH,z,0.67,,,,,,-0.035555556,-0.415555556,0,0,0,,0,60,60,377,1,,
,,,,,,,,,,,,,,,,,,5e5012ec47808406305d6a0d,2020-08-10_16h24.11.928,lexical_decision_task_MP,2020.1.3,Win32,60,z,1,,,,,,,,0.806,1,,,,,,443,NW,UN,33,jaunce,DORSEX,z,0.806,,,,,,-0.035555556,-0.415555556,0,0,0,,0,61,61,382,1,,
,,,,,,,,,,,,,,,,,,5e5012ec47808406305d6a0d,2020-08-10_16h24.11.928,lexical_decision_task_MP,2020.1.3,Win32,60,z,1,,,,,,,,0.729,1,,,,,,446,NW,UN,33,gircue,RUNAMO,z,0.729,,,,,,-0.035555556,-0.415555556,0,0,0,,0,62,62,385,1,,
,,,,,,,,,,,,,,,,,,5e5012ec47808406305d6a0d,2020-08-10_16h24.11.928,lexical_decision_task_MP,2020.1.3,Win32,60,z,1,,,,,,,,0.763,1,,,,,,255,NW,UN,50,inlors,APIGHT,z,0.763,,,,,,-0.035555556,-0.415555556,0,0,0,,0,63,63,434,1,,
,,,,,,,,,,,,,,,,,,5e5012ec47808406305d6a0d,2020-08-10_16h24.11.928,lexical_decision_task_MP,2020.1.3,Win32,60,z,1,,,,,,,,0.692,1,,,,,,470,NW,UN,33,nobest,CRUDIO,z,0.692,,,,,,-0.035555556,-0.415555556,0,0,0,,0,64,64,409,1,,
,,,,,,,,,,,,,,,,,,5e5012ec47808406305d6a0d,2020-08-10_16h24.11.928,lexical_decision_task_MP,2020.1.3,Win32,60,m,1,,,,,,,,0.642,1,,,,,,218,WORD,UN,33,bucket,SHRINK,m,0.642,,,,,,-0.035555556,-0.415555556,0,0,0,,0,65,65,157,1,,
,,,,,,,,,,,,,,,,,,5e5012ec47808406305d6a0d,2020-08-10_16h24.11.928,lexical_decision_task_MP,2020.1.3,Win32,60,m,1,,,,,,,,0.622,1,,,,,,75,WORD,"ID",33,trophy,TROPHY,m,0.622,,,,,,-0.035555556,-0.415555556,0,0,0,,0,66,66,14,1,,
,,,,,,,,,,,,,,,,,,5e5012ec47808406305d6a0d,2020-08-10_16h24.11.928,lexical_decision_task_MP,2020.1.3,Win32,60,z,1,,,,,,,,0.952,1,,,,,,454,NW,UN,33,tondle,SCOUGE,z,0.952,,,,,,-0.035555556,-0.415555556,0,0,0,,0,67,67,393,1,,
,,,,,,,,,,,,,,,,,,5e5012ec47808406305d6a0d,2020-08-10_16h24.11.928,lexical_decision_task_MP,2020.1.3,Win32,60,z,1,,,,,,,,1.009,1,,,,,,370,NW,"ID",50,sleact,SLEACT,z,1.009,,,,,,-0.035555556,-0.415555556,0,0,0,,0,68,68,309,1,,
,,,,,,,,,,,,,,,,,,5e5012ec47808406305d6a0d,2020-08-10_16h24.11.928,lexical_decision_task_MP,2020.1.3,Win32,60,z,1,,,,,,,,0.862,1,,,,,,389,NW,"ID",50,witmer,WITMER,z,0.862,,,,,,-0.035555556,-0.415555556,0,0,0,,0,69,69,328,1,,
,,,,,,,,,,,,,,,,,,5e5012ec47808406305d6a0d,2020-08-10_16h24.11.928,lexical_decision_task_MP,2020.1.3,Win32,60,m,1,,,,,,,,0.864,1,,,,,,222,WORD,UN,33,export,HINDER,m,0.864,,,,,,-0.035555556,-0.415555556,0,0,0,,0,70,70,161,1,,
,,,,,,,,,,,,,,,,,,5e5012ec47808406305d6a0d,2020-08-10_16h24.11.928,lexical_decision_task_MP,2020.1.3,Win32,60,m,1,,,,,,,,0.664,1,,,,,,126,WORD,"ID",50,enough,ENOUGH,m,0.664,,,,,,-0.035555556,-0.415555556,0,0,0,,0,71,71,65,1,,
,,,,,,,,,,,,,,,,,,5e5012ec47808406305d6a0d,2020-08-10_16h24.11.928,lexical_decision_task_MP,2020.1.3,Win32,60,z,1,,,,,,,,0.724,1,,,,,,405,NW,"ID",50,flumni,FLUMNI,z,0.724,,,,,,-0.035555556,-0.415555556,0,0,0,,0,72,72,344,1,,
,,,,,,,,,,,,,,,,,,5e5012ec47808406305d6a0d,2020-08-10_16h24.11.928,lexical_decision_task_MP,2020.1.3,Win32,60,m,1,,,,,,,,0.748,1,,,,,,156,WORD,"ID",50,cradle,CRADLE,m,0.748,,,,,,-0.035555556,-0.415555556,0,0,0,,0,73,73,95,1,,
,,,,,,,,,,,,,,,,,,5e5012ec47808406305d6a0d,2020-08-10_16h24.11.928,lexical_decision_task_MP,2020.1.3,Win32,60,m,1,,,,,,,,0.624,1,,,,,,153,WORD,"ID",50,behold,BEHOLD,m,0.624,,,,,,-0.035555556,-0.415555556,0,0,0,,0,74,74,92,1,,
,,,,,,,,,,,,,,,,,,5e5012ec47808406305d6a0d,2020-08-10_16h24.11.928,lexical_decision_task_MP,2020.1.3,Win32,60,m,1,,,,,,,,0.666,1,,,,,,166,WORD,"ID",50,starch,STARCH,m,0.666,,,,,,-0.035555556,-0.415555556,0,0,0,,0,75,75,105,1,,
,,,,,,,,,,,,,,,,,,5e5012ec47808406305d6a0d,2020-08-10_16h24.11.928,lexical_decision_task_MP,2020.1.3,Win32,60,z,1,,,,,,,,0.764,1,,,,,,293,NW,UN,50,inhort,SWANCE,z,0.764,,,,,,-0.035555556,-0.415555556,0,0,0,,0,76,76,472,1,,
,,,,,,,,,,,,,,,,,,5e5012ec47808406305d6a0d,2020-08-10_16h24.11.928,lexical_decision_task_MP,2020.1.3,Win32,60,m,1,,,,,,,,0.802,1,,,,,,117,WORD,"ID",33,branch,BRANCH,m,0.802,,,,,,-0.035555556,-0.415555556,0,0,0,,0,77,77,56,1,,
,,,,,,,,,,,,,,,,,,5e5012ec47808406305d6a0d,2020-08-10_16h24.11.928,lexical_decision_task_MP,2020.1.3,Win32,60,z,1,,,,,,,,1.308,1,,,,,,248,NW,UN,50,batrol,STROLE,z,1.308,,,,,,-0.035555556,-0.415555556,0,0,0,,0,78,78,427,1,,
,,,,,,,,,,,,,,,,,,5e5012ec47808406305d6a0d,2020-08-10_16h24.11.928,lexical_decision_task_MP,2020.1.3,Win32,60,z,1,,,,,,,,0.985,1,,,,,,408,NW,"ID",50,hurnia,HURNIA,z,0.985,,,,,,-0.035555556,-0.415555556,0,0,0,,0,79,79,347,1,,
,,,,,,,,,,,,,,,,,,5e5012ec47808406305d6a0d,2020-08-10_16h24.11.928,lexical_decision_task_MP,2020.1.3,Win32,60,m,1,,,,,,,,0.665,1,,,,,,86,WORD,"ID",33,rodent,RODENT,m,0.665,,,,,,-0.035555556,-0.415555556,0,0,0,,0,80,80,25,1,,
,,,,,,,,,,,,,,,,,,5e5012ec47808406305d6a0d,2020-08-10_16h24.11.928,lexical_decision_task_MP,2020.1.3,Win32,60,m,1,,,,,,,,0.682,1,,,,,,49,WORD,UN,50,snatch,SURVEY,m,0.682,,,,,,-0.035555556,-0.415555556,0,0,0,,0,81,81,228,1,,
,,,,,,,,,,,,,,,,,,5e5012ec47808406305d6a0d,2020-08-10_16h24.11.928,lexical_decision_task_MP,2020.1.3,Win32,60,m,1,,,,,,,,0.663,1,,,,,,83,WORD,"ID",33,result,RESULT,m,0.663,,,,,,-0.035555556,-0.415555556,0,0,0,,0,82,82,22,1,,
,,,,,,,,,,,,,,,,,,5e5012ec47808406305d6a0d,2020-08-10_16h24.11.928,lexical_decision_task_MP,2020.1.3,Win32,60,z,1,,,,,,,,0.764,1,,,,,,461,NW,UN,33,absult,JUSTRE,z,0.764,,,,,,-0.035555556,-0.415555556,0,0,0,,0,83,83,400,1,,
,,,,,,,,,,,,,,,,,,5e5012ec47808406305d6a0d,2020-08-10_16h24.11.928,lexical_decision_task_MP,2020.1.3,Win32,60,m,1,,,,,,,,0.683,1,,,,,,24,WORD,UN,50,domain,PRAISE,m,0.683,,,,,,-0.035555556,-0.415555556,0,0,0,,0,84,84,203,1,,
,,,,,,,,,,,,,,,,,,5e5012ec47808406305d6a0d,2020-08-10_16h24.11.928,lexical_decision_task_MP,2020.1.3,Win32,60,m,1,,,,,,,,0.696,1,,,,,,230,WORD,UN,33,mother,FRINGE,m,0.696,,,,,,-0.035555556,-0.415555556,0,0,0,,0,85,85,169,1,,
,,,,,,,,,,,,,,,,,,5e5012ec47808406305d6a0d,2020-08-10_16h24.11.928,lexical_decision_task_MP,2020.1.3,Win32,60,z,1,,,,,,,,0.765,1,,,,,,410,NW,"ID",50,tunory,TUNORY,z,0.765,,,,,,-0.035555556,-0.415555556,0,0,0,,0,86,86,349,1,,
,,,,,,,,,,,,,,,,,,5e5012ec47808406305d6a0d,2020-08-10_16h24.11.928,lexical_decision_task_MP,2020.1.3,Win32,60,z,1,,,,,,,,0.762,1,,,,,,362,NW,"ID",50,tireau,TIREAU,z,0.762,,,,,,-0.035555556,-0.415555556,0,0,0,,0,87,87,301,1,,
,,,,,,,,,,,,,,,,,,5e5012ec47808406305d6a0d,2020-08-10_16h24.11.928,lexical_decision_task_MP,2020.1.3,Win32,60,m,1,,,,,,,,0.821,1,,,,,,125,WORD,"ID",50,nickel,NICKEL,m,0.821,,,,,,-0.035555556,-0.415555556,0,0,0,,0,88,88,64,1,,
,,,,,,,,,,,,,,,,,,5e5012ec47808406305d6a0d,2020-08-10_16h24.11.928,lexical_decision_task_MP,2020.1.3,Win32,60,m,1,,,,,,,,0.643,1,,,,,,12,WORD,UN,50,strive,ORANGE,m,0.643,,,,,,-0.035555556,-0.415555556,0,0,0,,0,89,89,191,1,,
,,,,,,,,,,,,,,,,,,5e5012ec47808406305d6a0d,2020-08-10_16h24.11.928,lexical_decision_task_MP,2020.1.3,Win32,60,m,1,,,,,,,,0.722,1,,,,,,214,WORD,UN,33,phobia,INTAKE,m,0.722,,,,,,-0.035555556,-0.415555556,0,0,0,,0,90,90,153,1,,
,,,,,,,,,,,,,,,,,,5e5012ec47808406305d6a0d,2020-08-10_16h24.11.928,lexical_decision_task_MP,2020.1.3,Win32,60,m,1,,,,,,,,0.63,1,,,,,,189,WORD,UN,33,backup,CENSOR,m,0.63,,,,,,-0.035555556,-0.415555556,0,0,0,,0,91,91,128,1,,
,,,,,,,,,,,,,,,,,,5e5012ec47808406305d6a0d,2020-08-10_16h24.11.928,lexical_decision_task_MP,2020.1.3,Win32,60,m,0,,,,,,,,1.007,0,,,,,,413,NW,"ID",50,equats,EQUATS,z,1.007,,,,,,-0.035555556,-0.415555556,0,0,0,,0,92,92,352,1,,
,,,,,,,,,,,,,,,,,,5e5012ec47808406305d6a0d,2020-08-10_16h24.11.928,lexical_decision_task_MP,2020.1.3,Win32,60,z,1,,,,,,,,0.744,1,,,,,,305,NW,"ID",33,forgle,FORGLE,z,0.744,,,,,,-0.035555556,-0.415555556,0,0,0,,0,93,93,244,1,,
,,,,,,,,,,,,,,,,,,5e5012ec47808406305d6a0d,2020-08-10_16h24.11.928,lexical_decision_task_MP,2020.1.3,Win32,60,z,1,,,,,,,,0.752,1,,,,,,471,NW,UN,33,cigney,NOBEST,z,0.752,,,,,,-0.035555556,-0.415555556,0,0,0,,0,94,94,410,1,,
,,,,,,,,,,,,,,,,,,5e5012ec47808406305d6a0d,2020-08-10_16h24.11.928,lexical_decision_task_MP,2020.1.3,Win32,60,z,1,,,,,,,,0.785,1,,,,,,445,NW,UN,33,runamo,MINKEL,z,0.785,,,,,,-0.035555556,-0.415555556,0,0,0,,0,95,95,384,1,,
,,,,,,,,,,,,,,,,,,5e5012ec47808406305d6a0d,2020-08-10_16h24.11.928,lexical_decision_task_MP,2020.1.3,Win32,60,m,1,,,,,,,,0.603,1,,,,,,180,WORD,"ID",50,silent,SILENT,m,0.603,,,,,,-0.035555556,-0.415555556,0,0,0,,0,96,96,119,1,,
,,,,,,,,,,,,,,,,,,5e5012ec47808406305d6a0d,2020-08-10_16h24.11.928,lexical_decision_task_MP,2020.1.3,Win32,60,m,1,,,,,,,,0.669,1,,,,,,21,WORD,UN,50,jockey,SIMPLE,m,0.669,,,,,,-0.035555556,-0.415555556,0,0,0,,0,97,97,200,1,,
,,,,,,,,,,,,,,,,,,5e5012ec47808406305d6a0d,2020-08-10_16h24.11.928,lexical_decision_task_MP,2020.1.3,Win32,60,m,1,,,,,,,,0.627,1,,,,,,11,WORD,UN,50,amount,CRUISE,m,0.627,,,,,,-0.035555556,-0.415555556,0,0,0,,0,98,98,190,1,,
,,,,,,,,,,,,,,,,,,5e5012ec47808406305d6a0d,2020-08-10_16h24.11.928,lexical_decision_task_MP,2020.1.3,Win32,60,m,1,,,,,,,,0.781,1,,,,,,239,WORD,UN,33,forest,LUMBER,m,0.781,,,,,,-0.035555556,-0.415555556,0,0,0,,0,99,99,178,1,,
,,,,,,,,,,,,,,,,,,5e5012ec47808406305d6a0d,2020-08-10_16h24.11.928,lexical_decision_task_MP,2020.1.3,Win32,60,z,1,,,,,,,,0.865,1,,,,,,426,NW,UN,33,schind,URIVEL,z,0.865,,,,,,-0.035555556,-0.415555556,0,0,0,,0,100,100,365,1,,
,,,,,,,,,,,,,,,,,,5e5012ec47808406305d6a0d,2020-08-10_16h24.11.928,lexical_decision_task_MP,2020.1.3,Win32,60,z,1,,,,,,,,0.883,1,,,,,,379,NW,"ID",50,auting,AUTING,z,0.883,,,,,,-0.035555556,-0.415555556,0,0,0,,0,101,101,318,1,,
,,,,,,,,,,,,,,,,,,5e5012ec47808406305d6a0d,2020-08-10_16h24.11.928,lexical_decision_task_MP,2020.1.3,Win32,60,m,1,,,,,,,,0.772,1,,,,,,59,WORD,UN,50,pencil,SPLINT,m,0.772,,,,,,-0.035555556,-0.415555556,0,0,0,,0,102,102,238,1,,
,,,,,,,,,,,,,,,,,,5e5012ec47808406305d6a0d,2020-08-10_16h24.11.928,lexical_decision_task_MP,2020.1.3,Win32,60,m,1,,,,,,,,0.968,1,,,,,,145,WORD,"ID",50,parish,PARISH,m,0.968,,,,,,-0.035555556,-0.415555556,0,0,0,,0,103,103,84,1,,
,,,,,,,,,,,,,,,,,,5e5012ec47808406305d6a0d,2020-08-10_16h24.11.928,lexical_decision_task_MP,2020.1.3,Win32,60,z,1,,,,,,,,0.95,1,,,,,,285,NW,UN,50,reldon,PRUDGE,z,0.95,,,,,,-0.035555556,-0.415555556,0,0,0,,0,104,104,464,1,,
,,,,,,,,,,,,,,,,,,5e5012ec47808406305d6a0d,2020-08-10_16h24.11.928,lexical_decision_task_MP,2020.1.3,Win32,60,m,1,,,,,,,,0.767,1,,,,,,116,WORD,"ID",33,tumble,TUMBLE,m,0.767,,,,,,-0.035555556,-0.415555556,0,0,0,,0,105,105,55,1,,
,,,,,,,,,,,,,,,,,,5e5012ec47808406305d6a0d,2020-08-10_16h24.11.928,lexical_decision_task_MP,2020.1.3,Win32,60,m,1,,,,,,,,0.624,1,,,,,,158,WORD,"ID",50,island,ISLAND,m,0.624,,,,,,-0.035555556,-0.415555556,0,0,0,,0,106,106,97,1,,
,,,,,,,,,,,,,,,,,,5e5012ec47808406305d6a0d,2020-08-10_16h24.11.928,lexical_decision_task_MP,2020.1.3,Win32,60,m,1,,,,,,,,0.702,1,,,,,,22,WORD,UN,50,wealth,JOCKEY,m,0.702,,,,,,-0.035555556,-0.415555556,0,0,0,,0,107,107,201,1,,
,,,,,,,,,,,,,,,,,,5e5012ec47808406305d6a0d,2020-08-10_16h24.11.928,lexical_decision_task_MP,2020.1.3,Win32,60,m,1,,,,,,,,0.781,1,,,,,,1,WORD,UN,50,ethnic,FRIGHT,m,0.781,,,,,,-0.035555556,-0.415555556,0,0,0,,0,108,108,180,1,,
,,,,,,,,,,,,,,,,,,5e5012ec47808406305d6a0d,2020-08-10_16h24.11.928,lexical_decision_task_MP,2020.1.3,Win32,60,m,1,,,,,,,,0.764,1,,,,,,10,WORD,UN,50,cruise,ETHNIC,m,0.764,,,,,,-0.035555556,-0.415555556,0,0,0,,0,109,109,189,1,,
,,,,,,,,,,,,,,,,,,5e5012ec47808406305d6a0d,2020-08-10_16h24.11.928,lexical_decision_task_MP,2020.1.3,Win32,60,m,1,,,,,,,,0.682,1,,,,,,136,WORD,"ID",50,bleach,BLEACH,m,0.682,,,,,,-0.035555556,-0.415555556,0,0,0,,0,110,110,75,1,,
,,,,,,,,,,,,,,,,,,5e5012ec47808406305d6a0d,2020-08-10_16h24.11.928,lexical_decision_task_MP,2020.1.3,Win32,60,z,1,,,,,,,,1.227,1,,,,,,345,NW,"ID",33,absend,ABSEND,z,1.227,,,,,,-0.035555556,-0.415555556,0,0,0,,0,111,111,284,1,,
,,,,,,,,,,,,,,,,,,5e5012ec47808406305d6a0d,2020-08-10_16h24.11.928,lexical_decision_task_MP,2020.1.3,Win32,60,m,1,,,,,,,,0.69,1,,,,,,130,WORD,"ID",50,stupid,STUPID,m,0.69,,,,,,-0.035555556,-0.415555556,0,0,0,,0,112,112,69,1,,
,,,,,,,,,,,,,,,,,,5e5012ec47808406305d6a0d,2020-08-10_16h24.11.928,lexical_decision_task_MP,2020.1.3,Win32,60,m,1,,,,,,,,0.692,1,,,,,,23,WORD,UN,50,praise,WEALTH,m,0.692,,,,,,-0.035555556,-0.415555556,0,0,0,,0,113,113,202,1,,
,,,,,,,,,,,,,,,,,,5e5012ec47808406305d6a0d,2020-08-10_16h24.11.928,lexical_decision_task_MP,2020.1.3,Win32,60,m,1,,,,,,,,0.588,1,,,,,,168,WORD,"ID",50,answer,ANSWER,m,0.588,,,,,,-0.035555556,-0.415555556,0,0,0,,0,114,114,107,1,,
,,,,,,,,,,,,,,,,,,5e5012ec47808406305d6a0d,2020-08-10_16h24.11.928,lexical_decision_task_MP,2020.1.3,Win32,60,m,1,,,,,,,,0.864,1,,,,,,89,WORD,"ID",33,permit,PERMIT,m,0.864,,,,,,-0.035555556,-0.415555556,0,0,0,,0,115,115,28,1,,
,,,,,,,,,,,,,,,,,,5e5012ec47808406305d6a0d,2020-08-10_16h24.11.928,lexical_decision_task_MP,2020.1.3,Win32,60,z,1,,,,,,,,0.784,1,,,,,,290,NW,UN,50,pretch,SPLINO,z,0.784,,,,,,-0.035555556,-0.415555556,0,0,0,,0,116,116,469,1,,
,,,,,,,,,,,,,,,,,,5e5012ec47808406305d6a0d,2020-08-10_16h24.11.928,lexical_decision_task_MP,2020.1.3,Win32,60,m,1,,,,,,,,0.823,1,,,,,,232,WORD,UN,33,nature,INJECT,m,0.823,,,,,,-0.035555556,-0.415555556,0,0,0,,0,117,117,171,1,,
,,,,,,,,,,,,,,,,,,5e5012ec47808406305d6a0d,2020-08-10_16h24.11.928,lexical_decision_task_MP,2020.1.3,Win32,60,z,1,,,,,,,,0.771,1,,,,,,468,NW,UN,33,padifs,WICTOR,z,0.771,,,,,,-0.035555556,-0.415555556,0,0,0,,0,118,118,407,1,,
,,,,,,,,,,,,,,,,,,5e5012ec47808406305d6a0d,2020-08-10_16h24.11.928,lexical_decision_task_MP,2020.1.3,Win32,60,z,1,,,,,,,,0.927,1,,,,,,424,NW,UN,33,frudge,PRAILE,z,0.927,,,,,,-0.035555556,-0.415555556,0,0,0,,0,119,119,363,1,,
,,,,,,,,,,,,,,,,,,5e5012ec47808406305d6a0d,2020-08-10_16h24.11.928,lexical_decision_task_MP,2020.1.3,Win32,60,z,1,,,,,,,,0.849,1,,,,,,357,NW,"ID",33,derain,DERAIN,z,0.849,,,,,,-0.035555556,-0.415555556,1,0,0,,0,120,120,296,1,break_done_button,
,,,,,,,,,,,,,,,,,,5e5012ec47808406305d6a0d,2020-08-10_16h24.11.928,lexical_decision_task_MP,2020.1.3,Win32,60,m,1,,,,,,,,1.527,1,,,,,,129,WORD,"ID",50,marvel,MARVEL,m,1.527,,,,,,-0.035555556,-0.415555556,0,0,0,,0,121,121,68,1,,
,,,,,,,,,,,,,,,,,,5e5012ec47808406305d6a0d,2020-08-10_16h24.11.928,lexical_decision_task_MP,2020.1.3,Win32,60,z,1,,,,,,,,0.884,1,,,,,,473,NW,UN,33,hablin,CRIBLE,z,0.884,,,,,,-0.035555556,-0.415555556,0,0,0,,0,122,122,412,1,,
,,,,,,,,,,,,,,,,,,5e5012ec47808406305d6a0d,2020-08-10_16h24.11.928,lexical_decision_task_MP,2020.1.3,Win32,60,z,1,,,,,,,,0.722,1,,,,,,300,NW,UN,50,smenco,YARION,z,0.722,,,,,,-0.035555556,-0.415555556,0,0,0,,0,123,123,479,1,,
,,,,,,,,,,,,,,,,,,5e5012ec47808406305d6a0d,2020-08-10_16h24.11.928,lexical_decision_task_MP,2020.1.3,Win32,60,m,1,,,,,,,,0.647,1,,,,,,80,WORD,"ID",33,family,FAMILY,m,0.647,,,,,,-0.035555556,-0.415555556,0,0,0,,0,124,124,19,1,,
,,,,,,,,,,,,,,,,,,5e5012ec47808406305d6a0d,2020-08-10_16h24.11.928,lexical_decision_task_MP,2020.1.3,Win32,60,m,1,,,,,,,,0.642,1,,,,,,102,WORD,"ID",33,direct,DIRECT,m,0.642,,,,,,-0.035555556,-0.415555556,0,0,0,,0,125,125,41,1,,
,,,,,,,,,,,,,,,,,,5e5012ec47808406305d6a0d,2020-08-10_16h24.11.928,lexical_decision_task_MP,2020.1.3,Win32,60,z,1,,,,,,,,0.71,1,,,,,,465,NW,UN,33,bafent,WHIVEX,z,0.71,,,,,,-0.035555556,-0.415555556,0,0,0,,0,126,126,404,1,,
,,,,,,,,,,,,,,,,,,5e5012ec47808406305d6a0d,2020-08-10_16h24.11.928,lexical_decision_task_MP,2020.1.3,Win32,60,m,1,,,,,,,,0.684,1,,,,,,170,WORD,"ID",50,pounce,POUNCE,m,0.684,,,,,,-0.035555556,-0.415555556,0,0,0,,0,127,127,109,1,,
,,,,,,,,,,,,,,,,,,5e5012ec47808406305d6a0d,2020-08-10_16h24.11.928,lexical_decision_task_MP,2020.1.3,Win32,60,m,1,,,,,,,,0.622,1,,,,,,135,WORD,"ID",50,import,IMPORT,m,0.622,,,,,,-0.035555556,-0.415555556,0,0,0,,0,128,128,74,1,,
,,,,,,,,,,,,,,,,,,5e5012ec47808406305d6a0d,2020-08-10_16h24.11.928,lexical_decision_task_MP,2020.1.3,Win32,60,m,1,,,,,,,,0.791,1,,,,,,13,WORD,UN,50,almost,STRIVE,m,0.791,,,,,,-0.035555556,-0.415555556,0,0,0,,0,129,129,192,1,,
,,,,,,,,,,,,,,,,,,5e5012ec47808406305d6a0d,2020-08-10_16h24.11.928,lexical_decision_task_MP,2020.1.3,Win32,60,m,1,,,,,,,,0.912,1,,,,,,77,WORD,"ID",33,racket,RACKET,m,0.912,,,,,,-0.035555556,-0.415555556,0,0,0,,0,130,130,16,1,,
,,,,,,,,,,,,,,,,,,5e5012ec47808406305d6a0d,2020-08-10_16h24.11.928,lexical_decision_task_MP,2020.1.3,Win32,60,m,1,,,,,,,,0.684,1,,,,,,2,WORD,UN,50,knight,BRIDGE,m,0.684,,,,,,-0.035555556,-0.415555556,0,0,0,,0,131,131,181,1,,
,,,,,,,,,,,,,,,,,,5e5012ec47808406305d6a0d,2020-08-10_16h24.11.928,lexical_decision_task_MP,2020.1.3,Win32,60,m,1,,,,,,,,0.684,1,,,,,,3,WORD,UN,50,trench,KNIGHT,m,0.684,,,,,,-0.035555556,-0.415555556,0,0,0,,0,132,132,182,1,,
,,,,,,,,,,,,,,,,,,5e5012ec47808406305d6a0d,2020-08-10_16h24.11.928,lexical_decision_task_MP,2020.1.3,Win32,60,z,1,,,,,,,,0.705,1,,,,,,366,NW,"ID",50,toshel,TOSHEL,z,0.705,,,,,,-0.035555556,-0.415555556,0,0,0,,0,133,133,305,1,,
,,,,,,,,,,,,,,,,,,5e5012ec47808406305d6a0d,2020-08-10_16h24.11.928,lexical_decision_task_MP,2020.1.3,Win32,60,z,1,,,,,,,,0.764,1,,,,,,475,NW,UN,33,josted,PEBRIC,z,0.764,,,,,,-0.035555556,-0.415555556,0,0,0,,0,134,134,414,1,,
,,,,,,,,,,,,,,,,,,5e5012ec47808406305d6a0d,2020-08-10_16h24.11.928,lexical_decision_task_MP,2020.1.3,Win32,60,z,1,,,,,,,,0.863,1,,,,,,442,NW,UN,33,dorsex,ABOUNE,z,0.863,,,,,,-0.035555556,-0.415555556,0,0,0,,0,135,135,381,1,,
,,,,,,,,,,,,,,,,,,5e5012ec47808406305d6a0d,2020-08-10_16h24.11.928,lexical_decision_task_MP,2020.1.3,Win32,60,m,1,,,,,,,,0.65,1,,,,,,29,WORD,UN,50,orient,SKETCH,m,0.65,,,,,,-0.035555556,-0.415555556,0,0,0,,0,136,136,208,1,,
,,,,,,,,,,,,,,,,,,5e5012ec47808406305d6a0d,2020-08-10_16h24.11.928,lexical_decision_task_MP,2020.1.3,Win32,60,m,1,,,,,,,,0.672,1,,,,,,85,WORD,"ID",33,sprawl,SPRAWL,m,0.672,,,,,,-0.035555556,-0.415555556,0,0,0,,0,137,137,24,1,,
,,,,,,,,,,,,,,,,,,5e5012ec47808406305d6a0d,2020-08-10_16h24.11.928,lexical_decision_task_MP,2020.1.3,Win32,60,z,1,,,,,,,,0.846,1,,,,,,271,NW,UN,50,damilt,AUBRID,z,0.846,,,,,,-0.035555556,-0.415555556,0,0,0,,0,138,138,450,1,,
,,,,,,,,,,,,,,,,,,5e5012ec47808406305d6a0d,2020-08-10_16h24.11.928,lexical_decision_task_MP,2020.1.3,Win32,60,m,1,,,,,,,,0.741,1,,,,,,226,WORD,UN,33,flower,CASINO,m,0.741,,,,,,-0.035555556,-0.415555556,0,0,0,,0,139,139,165,1,,
,,,,,,,,,,,,,,,,,,5e5012ec47808406305d6a0d,2020-08-10_16h24.11.928,lexical_decision_task_MP,2020.1.3,Win32,60,z,1,,,,,,,,0.728,1,,,,,,404,NW,"ID",50,cluirm,CLUIRM,z,0.728,,,,,,-0.035555556,-0.415555556,0,0,0,,0,140,140,343,1,,
,,,,,,,,,,,,,,,,,,5e5012ec47808406305d6a0d,2020-08-10_16h24.11.928,lexical_decision_task_MP,2020.1.3,Win32,60,m,1,,,,,,,,0.89,1,,,,,,8,WORD,UN,50,hustle,ABRUPT,m,0.89,,,,,,-0.035555556,-0.415555556,0,0,0,,0,141,141,187,1,,
,,,,,,,,,,,,,,,,,,5e5012ec47808406305d6a0d,2020-08-10_16h24.11.928,lexical_decision_task_MP,2020.1.3,Win32,60,m,1,,,,,,,,0.686,1,,,,,,106,WORD,"ID",33,ransom,RANSOM,m,0.686,,,,,,-0.035555556,-0.415555556,0,0,0,,0,142,142,45,1,,
,,,,,,,,,,,,,,,,,,5e5012ec47808406305d6a0d,2020-08-10_16h24.11.928,lexical_decision_task_MP,2020.1.3,Win32,60,m,1,,,,,,,,0.722,1,,,,,,224,WORD,UN,33,vulgar,PERIOD,m,0.722,,,,,,-0.035555556,-0.415555556,0,0,0,,0,143,143,163,1,,
,,,,,,,,,,,,,,,,,,5e5012ec47808406305d6a0d,2020-08-10_16h24.11.928,lexical_decision_task_MP,2020.1.3,Win32,60,m,1,,,,,,,,0.644,1,,,,,,43,WORD,UN,50,foster,TONGUE,m,0.644,,,,,,-0.035555556,-0.415555556,0,0,0,,0,144,144,222,1,,
,,,,,,,,,,,,,,,,,,5e5012ec47808406305d6a0d,2020-08-10_16h24.11.928,lexical_decision_task_MP,2020.1.3,Win32,60,z,1,,,,,,,,0.831,1,,,,,,431,NW,UN,33,lunker,CHRUMS,z,0.831,,,,,,-0.035555556,-0.415555556,0,0,0,,0,145,145,370,1,,
,,,,,,,,,,,,,,,,,,5e5012ec47808406305d6a0d,2020-08-10_16h24.11.928,lexical_decision_task_MP,2020.1.3,Win32,60,m,1,,,,,,,,0.743,1,,,,,,61,WORD,"ID",33,ponder,PONDER,m,0.743,,,,,,-0.035555556,-0.415555556,0,0,0,,0,146,146,0,1,,
,,,,,,,,,,,,,,,,,,5e5012ec47808406305d6a0d,2020-08-10_16h24.11.928,lexical_decision_task_MP,2020.1.3,Win32,60,m,1,,,,,,,,0.566,1,,,,,,98,WORD,"ID",33,belong,BELONG,m,0.566,,,,,,-0.035555556,-0.415555556,0,0,0,,0,147,147,37,1,,
,,,,,,,,,,,,,,,,,,5e5012ec47808406305d6a0d,2020-08-10_16h24.11.928,lexical_decision_task_MP,2020.1.3,Win32,60,m,1,,,,,,,,0.664,1,,,,,,119,WORD,"ID",33,spider,SPIDER,m,0.664,,,,,,-0.035555556,-0.415555556,0,0,0,,0,148,148,58,1,,
,,,,,,,,,,,,,,,,,,5e5012ec47808406305d6a0d,2020-08-10_16h24.11.928,lexical_decision_task_MP,2020.1.3,Win32,60,m,1,,,,,,,,0.663,1,,,,,,148,WORD,"ID",50,custom,CUSTOM,m,0.663,,,,,,-0.035555556,-0.415555556,0,0,0,,0,149,149,87,1,,
,,,,,,,,,,,,,,,,,,5e5012ec47808406305d6a0d,2020-08-10_16h24.11.928,lexical_decision_task_MP,2020.1.3,Win32,60,m,1,,,,,,,,0.643,1,,,,,,144,WORD,"ID",50,sponge,SPONGE,m,0.643,,,,,,-0.035555556,-0.415555556,0,0,0,,0,150,150,83,1,,
,,,,,,,,,,,,,,,,,,5e5012ec47808406305d6a0d,2020-08-10_16h24.11.928,lexical_decision_task_MP,2020.1.3,Win32,60,m,1,,,,,,,,0.602,1,,,,,,210,WORD,UN,33,infect,MONKEY,m,0.602,,,,,,-0.035555556,-0.415555556,0,0,0,,0,151,151,149,1,,
,,,,,,,,,,,,,,,,,,5e5012ec47808406305d6a0d,2020-08-10_16h24.11.928,lexical_decision_task_MP,2020.1.3,Win32,60,z,1,,,,,,,,0.663,1,,,,,,283,NW,UN,50,shaple,VERALF,z,0.663,,,,,,-0.035555556,-0.415555556,0,0,0,,0,152,152,462,1,,
,,,,,,,,,,,,,,,,,,5e5012ec47808406305d6a0d,2020-08-10_16h24.11.928,lexical_decision_task_MP,2020.1.3,Win32,60,z,1,,,,,,,,0.743,1,,,,,,441,NW,UN,33,aboune,RASTOE,z,0.743,,,,,,-0.035555556,-0.415555556,0,0,0,,0,153,153,380,1,,
,,,,,,,,,,,,,,,,,,5e5012ec47808406305d6a0d,2020-08-10_16h24.11.928,lexical_decision_task_MP,2020.1.3,Win32,60,m,1,,,,,,,,0.645,1,,,,,,217,WORD,UN,33,shrink,LIQUOR,m,0.645,,,,,,-0.035555556,-0.415555556,0,0,0,,0,154,154,156,1,,
,,,,,,,,,,,,,,,,,,5e5012ec47808406305d6a0d,2020-08-10_16h24.11.928,lexical_decision_task_MP,2020.1.3,Win32,60,m,1,,,,,,,,0.682,1,,,,,,68,WORD,"ID",33,fumble,FUMBLE,m,0.682,,,,,,-0.035555556,-0.415555556,0,0,0,,0,155,155,7,1,,
,,,,,,,,,,,,,,,,,,5e5012ec47808406305d6a0d,2020-08-10_16h24.11.928,lexical_decision_task_MP,2020.1.3,Win32,60,z,1,,,,,,,,0.726,1,,,,,,287,NW,UN,50,yaceup,NYMBEL,z,0.726,,,,,,-0.035555556,-0.415555556,0,0,0,,0,156,156,466,1,,
,,,,,,,,,,,,,,,,,,5e5012ec47808406305d6a0d,2020-08-10_16h24.11.928,lexical_decision_task_MP,2020.1.3,Win32,60,z,1,,,,,,,,0.703,1,,,,,,434,NW,UN,33,impurb,PITROM,z,0.703,,,,,,-0.035555556,-0.415555556,0,0,0,,0,157,157,373,1,,
,,,,,,,,,,,,,,,,,,5e5012ec47808406305d6a0d,2020-08-10_16h24.11.928,lexical_decision_task_MP,2020.1.3,Win32,60,m,1,,,,,,,,0.724,1,,,,,,88,WORD,"ID",33,hunger,HUNGER,m,0.724,,,,,,-0.035555556,-0.415555556,0,0,0,,0,158,158,27,1,,
,,,,,,,,,,,,,,,,,,5e5012ec47808406305d6a0d,2020-08-10_16h24.11.928,lexical_decision_task_MP,2020.1.3,Win32,60,m,1,,,,,,,,0.685,1,,,,,,142,WORD,"ID",50,spruce,SPRUCE,m,0.685,,,,,,-0.035555556,-0.415555556,0,0,0,,0,159,159,81,1,,
,,,,,,,,,,,,,,,,,,5e5012ec47808406305d6a0d,2020-08-10_16h24.11.928,lexical_decision_task_MP,2020.1.3,Win32,60,m,1,,,,,,,,0.628,1,,,,,,133,WORD,"ID",50,chrome,CHROME,m,0.628,,,,,,-0.035555556,-0.415555556,0,0,0,,0,160,160,72,1,,
,,,,,,,,,,,,,,,,,,5e5012ec47808406305d6a0d,2020-08-10_16h24.11.928,lexical_decision_task_MP,2020.1.3,Win32,60,m,1,,,,,,,,0.602,1,,,,,,155,WORD,"ID",50,lizard,LIZARD,m,0.602,,,,,,-0.035555556,-0.415555556,0,0,0,,0,161,161,94,1,,
,,,,,,,,,,,,,,,,,,5e5012ec47808406305d6a0d,2020-08-10_16h24.11.928,lexical_decision_task_MP,2020.1.3,Win32,60,z,1,,,,,,,,0.688,1,,,,,,409,NW,"ID",50,elopia,ELOPIA,z,0.688,,,,,,-0.035555556,-0.415555556,0,0,0,,0,162,162,348,1,,
,,,,,,,,,,,,,,,,,,5e5012ec47808406305d6a0d,2020-08-10_16h24.11.928,lexical_decision_task_MP,2020.1.3,Win32,60,z,1,,,,,,,,0.723,1,,,,,,333,NW,"ID",33,catrie,CATRIE,z,0.723,,,,,,-0.035555556,-0.415555556,0,0,0,,0,163,163,272,1,,
,,,,,,,,,,,,,,,,,,5e5012ec47808406305d6a0d,2020-08-10_16h24.11.928,lexical_decision_task_MP,2020.1.3,Win32,60,m,1,,,,,,,,0.644,1,,,,,,104,WORD,"ID",33,studio,STUDIO,m,0.644,,,,,,-0.035555556,-0.415555556,0,0,0,,0,164,164,43,1,,
,,,,,,,,,,,,,,,,,,5e5012ec47808406305d6a0d,2020-08-10_16h24.11.928,lexical_decision_task_MP,2020.1.3,Win32,60,z,1,,,,,,,,0.825,1,,,,,,278,NW,UN,50,celond,UNIGHS,z,0.825,,,,,,-0.035555556,-0.415555556,0,0,0,,0,165,165,457,1,,
,,,,,,,,,,,,,,,,,,5e5012ec47808406305d6a0d,2020-08-10_16h24.11.928,lexical_decision_task_MP,2020.1.3,Win32,60,z,1,,,,,,,,0.904,1,,,,,,369,NW,"ID",50,wronch,WRONCH,z,0.904,,,,,,-0.035555556,-0.415555556,0,0,0,,0,166,166,308,1,,
,,,,,,,,,,,,,,,,,,5e5012ec47808406305d6a0d,2020-08-10_16h24.11.928,lexical_decision_task_MP,2020.1.3,Win32,60,z,1,,,,,,,,0.806,1,,,,,,349,NW,"ID",33,asylen,ASYLEN,z,0.806,,,,,,-0.035555556,-0.415555556,0,0,0,,0,167,167,288,1,,
,,,,,,,,,,,,,,,,,,5e5012ec47808406305d6a0d,2020-08-10_16h24.11.928,lexical_decision_task_MP,2020.1.3,Win32,60,m,1,,,,,,,,0.684,1,,,,,,200,WORD,UN,33,admire,BEACON,m,0.684,,,,,,-0.035555556,-0.415555556,0,0,0,,0,168,168,139,1,,
,,,,,,,,,,,,,,,,,,5e5012ec47808406305d6a0d,2020-08-10_16h24.11.928,lexical_decision_task_MP,2020.1.3,Win32,60,m,1,,,,,,,,0.684,1,,,,,,152,WORD,"ID",50,rocket,ROCKET,m,0.684,,,,,,-0.035555556,-0.415555556,0,0,0,,0,169,169,91,1,,
,,,,,,,,,,,,,,,,,,5e5012ec47808406305d6a0d,2020-08-10_16h24.11.928,lexical_decision_task_MP,2020.1.3,Win32,60,z,1,,,,,,,,0.684,1,,,,,,457,NW,UN,33,barcet,WANIGH,z,0.684,,,,,,-0.035555556,-0.415555556,0,0,0,,0,170,170,396,1,,
,,,,,,,,,,,,,,,,,,5e5012ec47808406305d6a0d,2020-08-10_16h24.11.928,lexical_decision_task_MP,2020.1.3,Win32,60,z,1,,,,,,,,0.724,1,,,,,,320,NW,"ID",33,jockal,JOCKAL,z,0.724,,,,,,-0.035555556,-0.415555556,0,0,0,,0,171,171,259,1,,
,,,,,,,,,,,,,,,,,,5e5012ec47808406305d6a0d,2020-08-10_16h24.11.928,lexical_decision_task_MP,2020.1.3,Win32,60,m,1,,,,,,,,0.668,1,,,,,,108,WORD,"ID",33,reckon,RECKON,m,0.668,,,,,,-0.035555556,-0.415555556,0,0,0,,0,172,172,47,1,,
,,,,,,,,,,,,,,,,,,5e5012ec47808406305d6a0d,2020-08-10_16h24.11.928,lexical_decision_task_MP,2020.1.3,Win32,60,z,1,,,,,,,,0.723,1,,,,,,319,NW,"ID",33,zomber,ZOMBER,z,0.723,,,,,,-0.035555556,-0.415555556,0,0,0,,0,173,173,258,1,,
,,,,,,,,,,,,,,,,,,5e5012ec47808406305d6a0d,2020-08-10_16h24.11.928,lexical_decision_task_MP,2020.1.3,Win32,60,z,1,,,,,,,,0.743,1,,,,,,440,NW,UN,33,rastoe,SARIDE,z,0.743,,,,,,-0.035555556,-0.415555556,0,0,0,,0,174,174,379,1,,
,,,,,,,,,,,,,,,,,,5e5012ec47808406305d6a0d,2020-08-10_16h24.11.928,lexical_decision_task_MP,2020.1.3,Win32,60,z,1,,,,,,,,0.75,1,,,,,,466,NW,UN,33,robuly,HOCITE,z,0.75,,,,,,-0.035555556,-0.415555556,0,0,0,,0,175,175,405,1,,
,,,,,,,,,,,,,,,,,,5e5012ec47808406305d6a0d,2020-08-10_16h24.11.928,lexical_decision_task_MP,2020.1.3,Win32,60,m,1,,,,,,,,0.663,1,,,,,,177,WORD,"ID",50,advent,ADVENT,m,0.663,,,,,,-0.035555556,-0.415555556,0,0,0,,0,176,176,116,1,,
,,,,,,,,,,,,,,,,,,5e5012ec47808406305d6a0d,2020-08-10_16h24.11.928,lexical_decision_task_MP,2020.1.3,Win32,60,z,1,,,,,,,,0.729,1,,,,,,312,NW,"ID",33,nerawl,NERAWL,z,0.729,,,,,,-0.035555556,-0.415555556,0,0,0,,0,177,177,251,1,,
,,,,,,,,,,,,,,,,,,5e5012ec47808406305d6a0d,2020-08-10_16h24.11.928,lexical_decision_task_MP,2020.1.3,Win32,60,m,0,,,,,,,,0.984,0,,,,,,250,NW,UN,50,lupict,MILTED,z,0.984,,,,,,-0.035555556,-0.415555556,0,0,0,,0,178,178,429,1,,
,,,,,,,,,,,,,,,,,,5e5012ec47808406305d6a0d,2020-08-10_16h24.11.928,lexical_decision_task_MP,2020.1.3,Win32,60,m,1,,,,,,,,0.747,1,,,,,,191,WORD,UN,33,beacon,STABLE,m,0.747,,,,,,-0.035555556,-0.415555556,0,0,0,,0,179,179,130,1,,
,,,,,,,,,,,,,,,,,,5e5012ec47808406305d6a0d,2020-08-10_16h24.11.928,lexical_decision_task_MP,2020.1.3,Win32,60,z,1,,,,,,,,0.744,1,,,,,,355,NW,"ID",33,zingly,ZINGLY,z,0.744,,,,,,-0.035555556,-0.415555556,0,0,0,,0,180,180,294,1,,
,,,,,,,,,,,,,,,,,,5e5012ec47808406305d6a0d,2020-08-10_16h24.11.928,lexical_decision_task_MP,2020.1.3,Win32,60,m,1,,,,,,,,0.804,1,,,,,,235,WORD,UN,33,pirate,GRUMPY,m,0.804,,,,,,-0.035555556,-0.415555556,0,0,0,,0,181,181,174,1,,
,,,,,,,,,,,,,,,,,,5e5012ec47808406305d6a0d,2020-08-10_16h24.11.928,lexical_decision_task_MP,2020.1.3,Win32,60,m,1,,,,,,,,0.724,1,,,,,,25,WORD,UN,50,sprint,DOMAIN,m,0.724,,,,,,-0.035555556,-0.415555556,0,0,0,,0,182,182,204,1,,
,,,,,,,,,,,,,,,,,,5e5012ec47808406305d6a0d,2020-08-10_16h24.11.928,lexical_decision_task_MP,2020.1.3,Win32,60,z,1,,,,,,,,0.766,1,,,,,,265,NW,UN,50,varmit,DISTAR,z,0.766,,,,,,-0.035555556,-0.415555556,0,0,0,,0,183,183,444,1,,
,,,,,,,,,,,,,,,,,,5e5012ec47808406305d6a0d,2020-08-10_16h24.11.928,lexical_decision_task_MP,2020.1.3,Win32,60,m,1,,,,,,,,0.783,1,,,,,,60,WORD,UN,50,fright,PENCIL,m,0.783,,,,,,-0.035555556,-0.415555556,0,0,0,,0,184,184,239,1,,
,,,,,,,,,,,,,,,,,,5e5012ec47808406305d6a0d,2020-08-10_16h24.11.928,lexical_decision_task_MP,2020.1.3,Win32,60,z,1,,,,,,,,0.772,1,,,,,,403,NW,"ID",50,bruats,BRUATS,z,0.772,,,,,,-0.035555556,-0.415555556,0,0,0,,0,185,185,342,1,,
,,,,,,,,,,,,,,,,,,5e5012ec47808406305d6a0d,2020-08-10_16h24.11.928,lexical_decision_task_MP,2020.1.3,Win32,60,z,1,,,,,,,,0.721,1,,,,,,439,NW,UN,33,saride,LIMPOR,z,0.721,,,,,,-0.035555556,-0.415555556,0,0,0,,0,186,186,378,1,,
,,,,,,,,,,,,,,,,,,5e5012ec47808406305d6a0d,2020-08-10_16h24.11.928,lexical_decision_task_MP,2020.1.3,Win32,60,z,1,,,,,,,,0.692,1,,,,,,359,NW,"ID",33,fonver,FONVER,z,0.692,,,,,,-0.035555556,-0.415555556,0,0,0,,0,187,187,298,1,,
,,,,,,,,,,,,,,,,,,5e5012ec47808406305d6a0d,2020-08-10_16h24.11.928,lexical_decision_task_MP,2020.1.3,Win32,60,z,1,,,,,,,,0.743,1,,,,,,476,NW,UN,33,photie,JOSTED,z,0.743,,,,,,-0.035555556,-0.415555556,0,0,0,,0,188,188,415,1,,
,,,,,,,,,,,,,,,,,,5e5012ec47808406305d6a0d,2020-08-10_16h24.11.928,lexical_decision_task_MP,2020.1.3,Win32,60,m,1,,,,,,,,0.6,1,,,,,,101,WORD,"ID",33,wrench,WRENCH,m,0.6,,,,,,-0.035555556,-0.415555556,0,0,0,,0,189,189,40,1,,
,,,,,,,,,,,,,,,,,,5e5012ec47808406305d6a0d,2020-08-10_16h24.11.928,lexical_decision_task_MP,2020.1.3,Win32,60,m,1,,,,,,,,0.661,1,,,,,,100,WORD,"ID",33,carbon,CARBON,m,0.661,,,,,,-0.035555556,-0.415555556,0,0,0,,0,190,190,39,1,,
,,,,,,,,,,,,,,,,,,5e5012ec47808406305d6a0d,2020-08-10_16h24.11.928,lexical_decision_task_MP,2020.1.3,Win32,60,z,1,,,,,,,,0.764,1,,,,,,397,NW,"ID",50,camble,CAMBLE,z,0.764,,,,,,-0.035555556,-0.415555556,0,0,0,,0,191,191,336,1,,
,,,,,,,,,,,,,,,,,,5e5012ec47808406305d6a0d,2020-08-10_16h24.11.928,lexical_decision_task_MP,2020.1.3,Win32,60,z,1,,,,,,,,0.761,1,,,,,,292,NW,UN,50,swance,ABLINT,z,0.761,,,,,,-0.035555556,-0.415555556,0,0,0,,0,192,192,471,1,,
,,,,,,,,,,,,,,,,,,5e5012ec47808406305d6a0d,2020-08-10_16h24.11.928,lexical_decision_task_MP,2020.1.3,Win32,60,z,1,,,,,,,,0.765,1,,,,,,275,NW,UN,50,yarmon,SLEIRT,z,0.765,,,,,,-0.035555556,-0.415555556,0,0,0,,0,193,193,454,1,,
,,,,,,,,,,,,,,,,,,5e5012ec47808406305d6a0d,2020-08-10_16h24.11.928,lexical_decision_task_MP,2020.1.3,Win32,60,m,1,,,,,,,,0.62,1,,,,,,17,WORD,UN,50,humble,CHARGE,m,0.62,,,,,,-0.035555556,-0.415555556,0,0,0,,0,194,194,196,1,,
,,,,,,,,,,,,,,,,,,5e5012ec47808406305d6a0d,2020-08-10_16h24.11.928,lexical_decision_task_MP,2020.1.3,Win32,60,m,1,,,,,,,,0.608,1,,,,,,175,WORD,"ID",50,fabric,FABRIC,m,0.608,,,,,,-0.035555556,-0.415555556,0,0,0,,0,195,195,114,1,,
,,,,,,,,,,,,,,,,,,5e5012ec47808406305d6a0d,2020-08-10_16h24.11.928,lexical_decision_task_MP,2020.1.3,Win32,60,z,1,,,,,,,,0.644,1,,,,,,262,NW,UN,50,dolica,QUILEW,z,0.644,,,,,,-0.035555556,-0.415555556,0,0,0,,0,196,196,441,1,,
,,,,,,,,,,,,,,,,,,5e5012ec47808406305d6a0d,2020-08-10_16h24.11.928,lexical_decision_task_MP,2020.1.3,Win32,60,z,1,,,,,,,,0.863,1,,,,,,380,NW,"ID",50,cavory,CAVORY,z,0.863,,,,,,-0.035555556,-0.415555556,0,0,0,,0,197,197,319,1,,
,,,,,,,,,,,,,,,,,,5e5012ec47808406305d6a0d,2020-08-10_16h24.11.928,lexical_decision_task_MP,2020.1.3,Win32,60,z,1,,,,,,,,0.744,1,,,,,,323,NW,"ID",33,rosail,ROSAIL,z,0.744,,,,,,-0.035555556,-0.415555556,0,0,0,,0,198,198,262,1,,
,,,,,,,,,,,,,,,,,,5e5012ec47808406305d6a0d,2020-08-10_16h24.11.928,lexical_decision_task_MP,2020.1.3,Win32,60,z,1,,,,,,,,0.747,1,,,,,,254,NW,UN,50,apight,VAROSH,z,0.747,,,,,,-0.035555556,-0.415555556,0,0,0,,0,199,199,433,1,,
,,,,,,,,,,,,,,,,,,5e5012ec47808406305d6a0d,2020-08-10_16h24.11.928,lexical_decision_task_MP,2020.1.3,Win32,60,z,1,,,,,,,,0.705,1,,,,,,343,NW,"ID",33,aimosy,AIMOSY,z,0.705,,,,,,-0.035555556,-0.415555556,0,0,0,,0,200,200,282,1,,
,,,,,,,,,,,,,,,,,,5e5012ec47808406305d6a0d,2020-08-10_16h24.11.928,lexical_decision_task_MP,2020.1.3,Win32,60,m,0,,,,,,,,1.366,0,,,,,,478,NW,UN,33,pebric,ACRISE,z,1.366,,,,,,-0.035555556,-0.415555556,0,0,0,,0,201,201,417,1,,
,,,,,,,,,,,,,,,,,,5e5012ec47808406305d6a0d,2020-08-10_16h24.11.928,lexical_decision_task_MP,2020.1.3,Win32,60,m,1,,,,,,,,0.744,1,,,,,,115,WORD,"ID",33,guitar,GUITAR,m,0.744,,,,,,-0.035555556,-0.415555556,0,0,0,,0,202,202,54,1,,
,,,,,,,,,,,,,,,,,,5e5012ec47808406305d6a0d,2020-08-10_16h24.11.928,lexical_decision_task_MP,2020.1.3,Win32,60,z,1,,,,,,,,0.77,1,,,,,,479,NW,UN,33,crible,LOBUSH,z,0.77,,,,,,-0.035555556,-0.415555556,0,0,0,,0,203,203,418,1,,
,,,,,,,,,,,,,,,,,,5e5012ec47808406305d6a0d,2020-08-10_16h24.11.928,lexical_decision_task_MP,2020.1.3,Win32,60,z,1,,,,,,,,0.786,1,,,,,,467,NW,UN,33,wictor,GORBIE,z,0.786,,,,,,-0.035555556,-0.415555556,0,0,0,,0,204,204,406,1,,
,,,,,,,,,,,,,,,,,,5e5012ec47808406305d6a0d,2020-08-10_16h24.11.928,lexical_decision_task_MP,2020.1.3,Win32,60,z,1,,,,,,,,0.905,1,,,,,,444,NW,UN,33,minkel,JAUNCE,z,0.905,,,,,,-0.035555556,-0.415555556,0,0,0,,0,205,205,383,1,,
,,,,,,,,,,,,,,,,,,5e5012ec47808406305d6a0d,2020-08-10_16h24.11.928,lexical_decision_task_MP,2020.1.3,Win32,60,z,1,,,,,,,,0.952,1,,,,,,361,NW,"ID",50,pauche,PAUCHE,z,0.952,,,,,,-0.035555556,-0.415555556,0,0,0,,0,206,206,300,1,,
,,,,,,,,,,,,,,,,,,5e5012ec47808406305d6a0d,2020-08-10_16h24.11.928,lexical_decision_task_MP,2020.1.3,Win32,60,z,1,,,,,,,,0.747,1,,,,,,416,NW,"ID",50,pathel,PATHEL,z,0.747,,,,,,-0.035555556,-0.415555556,0,0,0,,0,207,207,355,1,,
,,,,,,,,,,,,,,,,,,5e5012ec47808406305d6a0d,2020-08-10_16h24.11.928,lexical_decision_task_MP,2020.1.3,Win32,60,m,1,,,,,,,,0.706,1,,,,,,36,WORD,UN,50,insult,VANISH,m,0.706,,,,,,-0.035555556,-0.415555556,0,0,0,,0,208,208,215,1,,
,,,,,,,,,,,,,,,,,,5e5012ec47808406305d6a0d,2020-08-10_16h24.11.928,lexical_decision_task_MP,2020.1.3,Win32,60,m,1,,,,,,,,0.683,1,,,,,,207,WORD,UN,33,hockey,WREATH,m,0.683,,,,,,-0.035555556,-0.415555556,0,0,0,,0,209,209,146,1,,
,,,,,,,,,,,,,,,,,,5e5012ec47808406305d6a0d,2020-08-10_16h24.11.928,lexical_decision_task_MP,2020.1.3,Win32,60,m,1,,,,,,,,0.662,1,,,,,,138,WORD,"ID",50,melody,MELODY,m,0.662,,,,,,-0.035555556,-0.415555556,0,0,0,,0,210,210,77,1,,
,,,,,,,,,,,,,,,,,,5e5012ec47808406305d6a0d,2020-08-10_16h24.11.928,lexical_decision_task_MP,2020.1.3,Win32,60,z,1,,,,,,,,0.808,1,,,,,,289,NW,UN,50,splino,STARBY,z,0.808,,,,,,-0.035555556,-0.415555556,0,0,0,,0,211,211,468,1,,
,,,,,,,,,,,,,,,,,,5e5012ec47808406305d6a0d,2020-08-10_16h24.11.928,lexical_decision_task_MP,2020.1.3,Win32,60,m,1,,,,,,,,0.925,1,,,,,,114,WORD,"ID",33,placid,PLACID,m,0.925,,,,,,-0.035555556,-0.415555556,0,0,0,,0,212,212,53,1,,
,,,,,,,,,,,,,,,,,,5e5012ec47808406305d6a0d,2020-08-10_16h24.11.928,lexical_decision_task_MP,2020.1.3,Win32,60,m,1,,,,,,,,0.664,1,,,,,,63,WORD,"ID",33,launch,LAUNCH,m,0.664,,,,,,-0.035555556,-0.415555556,0,0,0,,0,213,213,2,1,,
,,,,,,,,,,,,,,,,,,5e5012ec47808406305d6a0d,2020-08-10_16h24.11.928,lexical_decision_task_MP,2020.1.3,Win32,60,z,1,,,,,,,,0.728,1,,,,,,480,NW,UN,33,knisma,ROBULY,z,0.728,,,,,,-0.035555556,-0.415555556,0,0,0,,0,214,214,419,1,,
,,,,,,,,,,,,,,,,,,5e5012ec47808406305d6a0d,2020-08-10_16h24.11.928,lexical_decision_task_MP,2020.1.3,Win32,60,m,1,,,,,,,,0.684,1,,,,,,47,WORD,UN,50,walnut,INCOME,m,0.684,,,,,,-0.035555556,-0.415555556,0,0,0,,0,215,215,226,1,,
,,,,,,,,,,,,,,,,,,5e5012ec47808406305d6a0d,2020-08-10_16h24.11.928,lexical_decision_task_MP,2020.1.3,Win32,60,m,1,,,,,,,,0.643,1,,,,,,44,WORD,UN,50,clergy,DANGER,m,0.643,,,,,,-0.035555556,-0.415555556,0,0,0,,0,216,216,223,1,,
,,,,,,,,,,,,,,,,,,5e5012ec47808406305d6a0d,2020-08-10_16h24.11.928,lexical_decision_task_MP,2020.1.3,Win32,60,m,1,,,,,,,,0.945,1,,,,,,112,WORD,"ID",33,breath,BREATH,m,0.945,,,,,,-0.035555556,-0.415555556,0,0,0,,0,217,217,51,1,,
,,,,,,,,,,,,,,,,,,5e5012ec47808406305d6a0d,2020-08-10_16h24.11.928,lexical_decision_task_MP,2020.1.3,Win32,60,z,1,,,,,,,,0.804,1,,,,,,296,NW,UN,50,fertic,BEINCH,z,0.804,,,,,,-0.035555556,-0.415555556,0,0,0,,0,218,218,475,1,,
,,,,,,,,,,,,,,,,,,5e5012ec47808406305d6a0d,2020-08-10_16h24.11.928,lexical_decision_task_MP,2020.1.3,Win32,60,z,1,,,,,,,,0.729,1,,,,,,350,NW,"ID",33,nagurs,NAGURS,z,0.729,,,,,,-0.035555556,-0.415555556,0,0,0,,0,219,219,289,1,,
,,,,,,,,,,,,,,,,,,5e5012ec47808406305d6a0d,2020-08-10_16h24.11.928,lexical_decision_task_MP,2020.1.3,Win32,60,z,1,,,,,,,,0.847,1,,,,,,458,NW,UN,33,hocite,BARCET,z,0.847,,,,,,-0.035555556,-0.415555556,0,0,0,,0,220,220,397,1,,
,,,,,,,,,,,,,,,,,,5e5012ec47808406305d6a0d,2020-08-10_16h24.11.928,lexical_decision_task_MP,2020.1.3,Win32,60,z,1,,,,,,,,0.744,1,,,,,,311,NW,"ID",33,sproly,SPROLY,z,0.744,,,,,,-0.035555556,-0.415555556,0,0,0,,0,221,221,250,1,,
,,,,,,,,,,,,,,,,,,5e5012ec47808406305d6a0d,2020-08-10_16h24.11.928,lexical_decision_task_MP,2020.1.3,Win32,60,z,1,,,,,,,,0.744,1,,,,,,273,NW,UN,50,fumblo,SORTEL,z,0.744,,,,,,-0.035555556,-0.415555556,0,0,0,,0,222,222,452,1,,
,,,,,,,,,,,,,,,,,,5e5012ec47808406305d6a0d,2020-08-10_16h24.11.928,lexical_decision_task_MP,2020.1.3,Win32,60,z,1,,,,,,,,0.723,1,,,,,,317,NW,"ID",33,worbal,WORBAL,z,0.723,,,,,,-0.035555556,-0.415555556,0,0,0,,0,223,223,256,1,,
,,,,,,,,,,,,,,,,,,5e5012ec47808406305d6a0d,2020-08-10_16h24.11.928,lexical_decision_task_MP,2020.1.3,Win32,60,m,1,,,,,,,,0.692,1,,,,,,157,WORD,"ID",50,dragon,DRAGON,m,0.692,,,,,,-0.035555556,-0.415555556,0,0,0,,0,224,224,96,1,,
,,,,,,,,,,,,,,,,,,5e5012ec47808406305d6a0d,2020-08-10_16h24.11.928,lexical_decision_task_MP,2020.1.3,Win32,60,m,1,,,,,,,,0.624,1,,,,,,76,WORD,"ID",33,exotic,EXOTIC,m,0.624,,,,,,-0.035555556,-0.415555556,0,0,0,,0,225,225,15,1,,
,,,,,,,,,,,,,,,,,,5e5012ec47808406305d6a0d,2020-08-10_16h24.11.928,lexical_decision_task_MP,2020.1.3,Win32,60,z,1,,,,,,,,0.685,1,,,,,,392,NW,"ID",50,rouncy,ROUNCY,z,0.685,,,,,,-0.035555556,-0.415555556,0,0,0,,0,226,226,331,1,,
,,,,,,,,,,,,,,,,,,5e5012ec47808406305d6a0d,2020-08-10_16h24.11.928,lexical_decision_task_MP,2020.1.3,Win32,60,m,1,,,,,,,,0.702,1,,,,,,9,WORD,UN,50,bridge,HUSTLE,m,0.702,,,,,,-0.035555556,-0.415555556,0,0,0,,0,227,227,188,1,,
,,,,,,,,,,,,,,,,,,5e5012ec47808406305d6a0d,2020-08-10_16h24.11.928,lexical_decision_task_MP,2020.1.3,Win32,60,m,1,,,,,,,,0.67,1,,,,,,110,WORD,"ID",33,polite,POLITE,m,0.67,,,,,,-0.035555556,-0.415555556,0,0,0,,0,228,228,49,1,,
,,,,,,,,,,,,,,,,,,5e5012ec47808406305d6a0d,2020-08-10_16h24.11.928,lexical_decision_task_MP,2020.1.3,Win32,60,z,1,,,,,,,,0.705,1,,,,,,279,NW,UN,50,curbol,CELOND,z,0.705,,,,,,-0.035555556,-0.415555556,0,0,0,,0,229,229,458,1,,
,,,,,,,,,,,,,,,,,,5e5012ec47808406305d6a0d,2020-08-10_16h24.11.928,lexical_decision_task_MP,2020.1.3,Win32,60,z,1,,,,,,,,0.762,1,,,,,,428,NW,UN,33,funtle,TANDLY,z,0.762,,,,,,-0.035555556,-0.415555556,0,0,0,,0,230,230,367,1,,
,,,,,,,,,,,,,,,,,,5e5012ec47808406305d6a0d,2020-08-10_16h24.11.928,lexical_decision_task_MP,2020.1.3,Win32,60,z,1,,,,,,,,0.845,1,,,,,,318,NW,"ID",33,reagly,REAGLY,z,0.845,,,,,,-0.035555556,-0.415555556,0,0,0,,0,231,231,257,1,,
,,,,,,,,,,,,,,,,,,5e5012ec47808406305d6a0d,2020-08-10_16h24.11.928,lexical_decision_task_MP,2020.1.3,Win32,60,z,1,,,,,,,,0.924,1,,,,,,449,NW,UN,33,phrect,BRUNGE,z,0.924,,,,,,-0.035555556,-0.415555556,0,0,0,,0,232,232,388,1,,
,,,,,,,,,,,,,,,,,,5e5012ec47808406305d6a0d,2020-08-10_16h24.11.928,lexical_decision_task_MP,2020.1.3,Win32,60,z,1,,,,,,,,0.925,1,,,,,,433,NW,UN,33,pitrom,DRANCE,z,0.925,,,,,,-0.035555556,-0.415555556,0,0,0,,0,233,233,372,1,,
,,,,,,,,,,,,,,,,,,5e5012ec47808406305d6a0d,2020-08-10_16h24.11.928,lexical_decision_task_MP,2020.1.3,Win32,60,z,1,,,,,,,,0.722,1,,,,,,381,NW,"ID",50,huniek,HUNIEK,z,0.722,,,,,,-0.035555556,-0.415555556,0,0,0,,0,234,234,320,1,,
,,,,,,,,,,,,,,,,,,5e5012ec47808406305d6a0d,2020-08-10_16h24.11.928,lexical_decision_task_MP,2020.1.3,Win32,60,m,1,,,,,,,,0.629,1,,,,,,65,WORD,"ID",33,symbol,SYMBOL,m,0.629,,,,,,-0.035555556,-0.415555556,0,0,0,,0,235,235,4,1,,
,,,,,,,,,,,,,,,,,,5e5012ec47808406305d6a0d,2020-08-10_16h24.11.928,lexical_decision_task_MP,2020.1.3,Win32,60,z,1,,,,,,,,0.802,1,,,,,,386,NW,"ID",50,ancust,ANCUST,z,0.802,,,,,,-0.035555556,-0.415555556,0,0,0,,0,236,236,325,1,,
,,,,,,,,,,,,,,,,,,5e5012ec47808406305d6a0d,2020-08-10_16h24.11.928,lexical_decision_task_MP,2020.1.3,Win32,60,m,1,,,,,,,,0.622,1,,,,,,55,WORD,UN,50,ambush,STROKE,m,0.622,,,,,,-0.035555556,-0.415555556,0,0,0,,0,237,237,234,1,,
,,,,,,,,,,,,,,,,,,5e5012ec47808406305d6a0d,2020-08-10_16h24.11.928,lexical_decision_task_MP,2020.1.3,Win32,60,m,1,,,,,,,,0.743,1,,,,,,184,WORD,UN,33,bother,SLEAZY,m,0.743,,,,,,-0.035555556,-0.415555556,0,0,0,,0,238,238,123,1,,
,,,,,,,,,,,,,,,,,,5e5012ec47808406305d6a0d,2020-08-10_16h24.11.928,lexical_decision_task_MP,2020.1.3,Win32,60,m,1,,,,,,,,0.665,1,,,,,,33,WORD,UN,50,jungle,BUTLER,m,0.665,,,,,,-0.035555556,-0.415555556,0,0,0,,0,239,239,212,1,,
,,,,,,,,,,,,,,,,,,5e5012ec47808406305d6a0d,2020-08-10_16h24.11.928,lexical_decision_task_MP,2020.1.3,Win32,60,z,1,,,,,,,,0.752,1,,,,,,427,NW,UN,33,tandly,SCHIND,z,0.752,,,,,,-0.035555556,-0.415555556,0,0,0,,0,240,240,366,1,,
,,,,,,,,,,,,,,,,,,5e5012ec47808406305d6a0d,2020-08-10_16h24.11.928,lexical_decision_task_MP,2020.1.3,Win32,60,z,1,,,,,,,,0.748,1,,,,,,339,NW,"ID",33,fachow,FACHOW,z,0.748,,,,,,-0.035555556,-0.416666667,1,0,0,,0,241,241,278,1,break_done_button,
,,,,,,,,,,,,,,,,,,5e5012ec47808406305d6a0d,2020-08-10_16h24.11.928,lexical_decision_task_MP,2020.1.3,Win32,60,z,1,,,,,,,,1.012,1,,,,,,253,NW,UN,50,varosh,RESAIT,z,1.012,,,,,,-0.035555556,-0.416666667,0,0,0,,0,242,242,432,1,,
,,,,,,,,,,,,,,,,,,5e5012ec47808406305d6a0d,2020-08-10_16h24.11.928,lexical_decision_task_MP,2020.1.3,Win32,60,z,1,,,,,,,,0.667,1,,,,,,415,NW,"ID",50,higsta,HIGSTA,z,0.667,,,,,,-0.035555556,-0.416666667,0,0,0,,0,243,243,354,1,,
,,,,,,,,,,,,,,,,,,5e5012ec47808406305d6a0d,2020-08-10_16h24.11.928,lexical_decision_task_MP,2020.1.3,Win32,60,m,1,,,,,,,,0.709,1,,,,,,37,WORD,UN,50,powder,INSULT,m,0.709,,,,,,-0.035555556,-0.416666667,0,0,0,,0,244,244,216,1,,
,,,,,,,,,,,,,,,,,,5e5012ec47808406305d6a0d,2020-08-10_16h24.11.928,lexical_decision_task_MP,2020.1.3,Win32,60,z,1,,,,,,,,0.722,1,,,,,,298,NW,UN,50,sturch,PIERGY,z,0.722,,,,,,-0.035555556,-0.416666667,0,0,0,,0,245,245,477,1,,
,,,,,,,,,,,,,,,,,,5e5012ec47808406305d6a0d,2020-08-10_16h24.11.928,lexical_decision_task_MP,2020.1.3,Win32,60,z,1,,,,,,,,0.845,1,,,,,,315,NW,"ID",33,laston,LASTON,z,0.845,,,,,,-0.035555556,-0.416666667,0,0,0,,0,246,246,254,1,,
,,,,,,,,,,,,,,,,,,5e5012ec47808406305d6a0d,2020-08-10_16h24.11.928,lexical_decision_task_MP,2020.1.3,Win32,60,z,1,,,,,,,,0.644,1,,,,,,356,NW,"ID",33,othnis,OTHNIS,z,0.644,,,,,,-0.035555556,-0.416666667,0,0,0,,0,247,247,295,1,,
,,,,,,,,,,,,,,,,,,5e5012ec47808406305d6a0d,2020-08-10_16h24.11.928,lexical_decision_task_MP,2020.1.3,Win32,60,z,1,,,,,,,,0.712,1,,,,,,363,NW,"ID",50,breali,BREALI,z,0.712,,,,,,-0.035555556,-0.416666667,0,0,0,,0,248,248,302,1,,
,,,,,,,,,,,,,,,,,,5e5012ec47808406305d6a0d,2020-08-10_16h24.11.928,lexical_decision_task_MP,2020.1.3,Win32,60,m,1,,,,,,,,0.551,1,,,,,,18,WORD,UN,50,patron,HUMBLE,m,0.551,,,,,,-0.035555556,-0.416666667,0,0,0,,0,249,249,197,1,,
,,,,,,,,,,,,,,,,,,5e5012ec47808406305d6a0d,2020-08-10_16h24.11.928,lexical_decision_task_MP,2020.1.3,Win32,60,m,1,,,,,,,,0.622,1,,,,,,92,WORD,"ID",33,strand,STRAND,m,0.622,,,,,,-0.035555556,-0.416666667,0,0,0,,0,250,250,31,1,,
,,,,,,,,,,,,,,,,,,5e5012ec47808406305d6a0d,2020-08-10_16h24.11.928,lexical_decision_task_MP,2020.1.3,Win32,60,m,1,,,,,,,,0.785,1,,,,,,122,WORD,"ID",50,linger,LINGER,m,0.785,,,,,,-0.035555556,-0.416666667,0,0,0,,0,251,251,61,1,,
,,,,,,,,,,,,,,,,,,5e5012ec47808406305d6a0d,2020-08-10_16h24.11.928,lexical_decision_task_MP,2020.1.3,Win32,60,z,1,,,,,,,,0.731,1,,,,,,472,NW,UN,33,gorbie,CIGNEY,z,0.731,,,,,,-0.035555556,-0.416666667,0,0,0,,0,252,252,411,1,,
,,,,,,,,,,,,,,,,,,5e5012ec47808406305d6a0d,2020-08-10_16h24.11.928,lexical_decision_task_MP,2020.1.3,Win32,60,m,1,,,,,,,,0.584,1,,,,,,187,WORD,UN,33,social,COURSE,m,0.584,,,,,,-0.035555556,-0.416666667,0,0,0,,0,253,253,126,1,,
,,,,,,,,,,,,,,,,,,5e5012ec47808406305d6a0d,2020-08-10_16h24.11.928,lexical_decision_task_MP,2020.1.3,Win32,60,z,1,,,,,,,,0.803,1,,,,,,352,NW,"ID",33,tringe,TRINGE,z,0.803,,,,,,-0.035555556,-0.416666667,0,0,0,,0,254,254,291,1,,
,,,,,,,,,,,,,,,,,,5e5012ec47808406305d6a0d,2020-08-10_16h24.11.928,lexical_decision_task_MP,2020.1.3,Win32,60,z,1,,,,,,,,0.784,1,,,,,,358,NW,"ID",33,fleack,FLEACK,z,0.784,,,,,,-0.035555556,-0.416666667,0,0,0,,0,255,255,297,1,,
,,,,,,,,,,,,,,,,,,5e5012ec47808406305d6a0d,2020-08-10_16h24.11.928,lexical_decision_task_MP,2020.1.3,Win32,60,z,1,,,,,,,,0.69,1,,,,,,384,NW,"ID",50,guesco,GUESCO,z,0.69,,,,,,-0.035555556,-0.416666667,0,0,0,,0,256,256,323,1,,
,,,,,,,,,,,,,,,,,,5e5012ec47808406305d6a0d,2020-08-10_16h24.11.928,lexical_decision_task_MP,2020.1.3,Win32,60,m,1,,,,,,,,0.563,1,,,,,,128,WORD,"ID",50,senior,SENIOR,m,0.563,,,,,,-0.035555556,-0.416666667,0,0,0,,0,257,257,67,1,,
,,,,,,,,,,,,,,,,,,5e5012ec47808406305d6a0d,2020-08-10_16h24.11.928,lexical_decision_task_MP,2020.1.3,Win32,60,z,1,,,,,,,,0.724,1,,,,,,310,NW,"ID",33,daniet,DANIET,z,0.724,,,,,,-0.035555556,-0.416666667,0,0,0,,0,258,258,249,1,,
,,,,,,,,,,,,,,,,,,5e5012ec47808406305d6a0d,2020-08-10_16h24.11.928,lexical_decision_task_MP,2020.1.3,Win32,60,m,1,,,,,,,,0.77,1,,,,,,183,WORD,UN,33,sleazy,MILDEW,m,0.77,,,,,,-0.035555556,-0.416666667,0,0,0,,0,259,259,122,1,,
,,,,,,,,,,,,,,,,,,5e5012ec47808406305d6a0d,2020-08-10_16h24.11.928,lexical_decision_task_MP,2020.1.3,Win32,60,m,1,,,,,,,,0.664,1,,,,,,147,WORD,"ID",50,garlic,GARLIC,m,0.664,,,,,,-0.035555556,-0.416666667,0,0,0,,0,260,260,86,1,,
,,,,,,,,,,,,,,,,,,5e5012ec47808406305d6a0d,2020-08-10_16h24.11.928,lexical_decision_task_MP,2020.1.3,Win32,60,z,1,,,,,,,,0.743,1,,,,,,277,NW,UN,50,unighs,PETAIN,z,0.743,,,,,,-0.035555556,-0.416666667,0,0,0,,0,261,261,456,1,,
,,,,,,,,,,,,,,,,,,5e5012ec47808406305d6a0d,2020-08-10_16h24.11.928,lexical_decision_task_MP,2020.1.3,Win32,60,z,1,,,,,,,,1.049,1,,,,,,418,NW,"ID",50,suidle,SUIDLE,z,1.049,,,,,,-0.035555556,-0.416666667,0,0,0,,0,262,262,357,1,,
,,,,,,,,,,,,,,,,,,5e5012ec47808406305d6a0d,2020-08-10_16h24.11.928,lexical_decision_task_MP,2020.1.3,Win32,60,m,1,,,,,,,,0.803,1,,,,,,19,WORD,UN,50,breast,PATRON,m,0.803,,,,,,-0.035555556,-0.416666667,0,0,0,,0,263,263,198,1,,
,,,,,,,,,,,,,,,,,,5e5012ec47808406305d6a0d,2020-08-10_16h24.11.928,lexical_decision_task_MP,2020.1.3,Win32,60,m,1,,,,,,,,0.662,1,,,,,,164,WORD,"ID",50,market,MARKET,m,0.662,,,,,,-0.035555556,-0.416666667,0,0,0,,0,264,264,103,1,,
,,,,,,,,,,,,,,,,,,5e5012ec47808406305d6a0d,2020-08-10_16h24.11.928,lexical_decision_task_MP,2020.1.3,Win32,60,z,1,,,,,,,,0.744,1,,,,,,395,NW,"ID",50,colury,COLURY,z,0.744,,,,,,-0.035555556,-0.416666667,0,0,0,,0,265,265,334,1,,
,,,,,,,,,,,,,,,,,,5e5012ec47808406305d6a0d,2020-08-10_16h24.11.928,lexical_decision_task_MP,2020.1.3,Win32,60,m,1,,,,,,,,0.701,1,,,,,,4,WORD,UN,50,plunge,TRENCH,m,0.701,,,,,,-0.035555556,-0.416666667,0,0,0,,0,266,266,183,1,,
,,,,,,,,,,,,,,,,,,5e5012ec47808406305d6a0d,2020-08-10_16h24.11.928,lexical_decision_task_MP,2020.1.3,Win32,60,z,1,,,,,,,,0.864,1,,,,,,269,NW,UN,50,wrimsy,ORCHET,z,0.864,,,,,,-0.035555556,-0.416666667,0,0,0,,0,267,267,448,1,,
,,,,,,,,,,,,,,,,,,5e5012ec47808406305d6a0d,2020-08-10_16h24.11.928,lexical_decision_task_MP,2020.1.3,Win32,60,m,1,,,,,,,,0.788,1,,,,,,84,WORD,"ID",33,mortal,MORTAL,m,0.788,,,,,,-0.035555556,-0.416666667,0,0,0,,0,268,268,23,1,,
,,,,,,,,,,,,,,,,,,5e5012ec47808406305d6a0d,2020-08-10_16h24.11.928,lexical_decision_task_MP,2020.1.3,Win32,60,m,1,,,,,,,,0.926,1,,,,,,195,WORD,UN,33,credit,RESIGN,m,0.926,,,,,,-0.035555556,-0.416666667,0,0,0,,0,269,269,134,1,,
,,,,,,,,,,,,,,,,,,5e5012ec47808406305d6a0d,2020-08-10_16h24.11.928,lexical_decision_task_MP,2020.1.3,Win32,60,m,1,,,,,,,,0.663,1,,,,,,149,WORD,"ID",50,invade,INVADE,m,0.663,,,,,,-0.035555556,-0.416666667,0,0,0,,0,270,270,88,1,,
,,,,,,,,,,,,,,,,,,5e5012ec47808406305d6a0d,2020-08-10_16h24.11.928,lexical_decision_task_MP,2020.1.3,Win32,60,m,1,,,,,,,,0.745,1,,,,,,62,WORD,"ID",33,region,REGION,m,0.745,,,,,,-0.035555556,-0.416666667,0,0,0,,0,271,271,1,1,,
,,,,,,,,,,,,,,,,,,5e5012ec47808406305d6a0d,2020-08-10_16h24.11.928,lexical_decision_task_MP,2020.1.3,Win32,60,z,1,,,,,,,,0.703,1,,,,,,308,NW,"ID",33,psetch,PSETCH,z,0.703,,,,,,-0.035555556,-0.416666667,0,0,0,,0,272,272,247,1,,
,,,,,,,,,,,,,,,,,,5e5012ec47808406305d6a0d,2020-08-10_16h24.11.928,lexical_decision_task_MP,2020.1.3,Win32,60,z,1,,,,,,,,0.723,1,,,,,,390,NW,"ID",50,hatrus,HATRUS,z,0.723,,,,,,-0.035555556,-0.416666667,0,0,0,,0,273,273,329,1,,
,,,,,,,,,,,,,,,,,,5e5012ec47808406305d6a0d,2020-08-10_16h24.11.928,lexical_decision_task_MP,2020.1.3,Win32,60,z,1,,,,,,,,0.666,1,,,,,,371,NW,"ID",50,geiloy,GEILOY,z,0.666,,,,,,-0.035555556,-0.416666667,0,0,0,,0,274,274,310,1,,
,,,,,,,,,,,,,,,,,,5e5012ec47808406305d6a0d,2020-08-10_16h24.11.928,lexical_decision_task_MP,2020.1.3,Win32,60,m,1,,,,,,,,0.743,1,,,,,,124,WORD,"ID",50,blouse,BLOUSE,m,0.743,,,,,,-0.035555556,-0.416666667,0,0,0,,0,275,275,63,1,,
,,,,,,,,,,,,,,,,,,5e5012ec47808406305d6a0d,2020-08-10_16h24.11.928,lexical_decision_task_MP,2020.1.3,Win32,60,m,1,,,,,,,,0.668,1,,,,,,211,WORD,UN,33,verify,INFECT,m,0.668,,,,,,-0.035555556,-0.416666667,0,0,0,,0,276,276,150,1,,
,,,,,,,,,,,,,,,,,,5e5012ec47808406305d6a0d,2020-08-10_16h24.11.928,lexical_decision_task_MP,2020.1.3,Win32,60,m,1,,,,,,,,0.663,1,,,,,,99,WORD,"ID",33,fluent,FLUENT,m,0.663,,,,,,-0.035555556,-0.416666667,0,0,0,,0,277,277,38,1,,
,,,,,,,,,,,,,,,,,,5e5012ec47808406305d6a0d,2020-08-10_16h24.11.928,lexical_decision_task_MP,2020.1.3,Win32,60,z,1,,,,,,,,0.724,1,,,,,,316,NW,"ID",33,scregm,SCREGM,z,0.724,,,,,,-0.035555556,-0.416666667,0,0,0,,0,278,278,255,1,,
,,,,,,,,,,,,,,,,,,5e5012ec47808406305d6a0d,2020-08-10_16h24.11.928,lexical_decision_task_MP,2020.1.3,Win32,60,m,1,,,,,,,,0.642,1,,,,,,174,WORD,"ID",50,turkey,TURKEY,m,0.642,,,,,,-0.035555556,-0.416666667,0,0,0,,0,279,279,113,1,,
,,,,,,,,,,,,,,,,,,5e5012ec47808406305d6a0d,2020-08-10_16h24.11.928,lexical_decision_task_MP,2020.1.3,Win32,60,z,1,,,,,,,,0.742,1,,,,,,241,NW,UN,50,unwert,SMENCO,z,0.742,,,,,,-0.035555556,-0.416666667,0,0,0,,0,280,280,420,1,,
,,,,,,,,,,,,,,,,,,5e5012ec47808406305d6a0d,2020-08-10_16h24.11.928,lexical_decision_task_MP,2020.1.3,Win32,60,m,1,,,,,,,,0.669,1,,,,,,46,WORD,UN,50,income,SINGLE,m,0.669,,,,,,-0.035555556,-0.416666667,0,0,0,,0,281,281,225,1,,
,,,,,,,,,,,,,,,,,,5e5012ec47808406305d6a0d,2020-08-10_16h24.11.928,lexical_decision_task_MP,2020.1.3,Win32,60,z,1,,,,,,,,0.723,1,,,,,,257,NW,UN,50,poluth,VENIOD,z,0.723,,,,,,-0.035555556,-0.416666667,0,0,0,,0,282,282,436,1,,
,,,,,,,,,,,,,,,,,,5e5012ec47808406305d6a0d,2020-08-10_16h24.11.928,lexical_decision_task_MP,2020.1.3,Win32,60,m,1,,,,,,,,0.753,1,,,,,,118,WORD,"ID",33,flight,FLIGHT,m,0.753,,,,,,-0.035555556,-0.416666667,0,0,0,,0,283,283,57,1,,
,,,,,,,,,,,,,,,,,,5e5012ec47808406305d6a0d,2020-08-10_16h24.11.928,lexical_decision_task_MP,2020.1.3,Win32,60,z,1,,,,,,,,0.8,1,,,,,,377,NW,"ID",50,injore,INJORE,z,0.8,,,,,,-0.035555556,-0.416666667,0,0,0,,0,284,284,316,1,,
,,,,,,,,,,,,,,,,,,5e5012ec47808406305d6a0d,2020-08-10_16h24.11.928,lexical_decision_task_MP,2020.1.3,Win32,60,m,1,,,,,,,,0.746,1,,,,,,96,WORD,"ID",33,ignore,IGNORE,m,0.746,,,,,,-0.035555556,-0.416666667,0,0,0,,0,285,285,35,1,,
,,,,,,,,,,,,,,,,,,5e5012ec47808406305d6a0d,2020-08-10_16h24.11.928,lexical_decision_task_MP,2020.1.3,Win32,60,z,1,,,,,,,,0.743,1,,,,,,246,NW,UN,50,blarge,PIATON,z,0.743,,,,,,-0.035555556,-0.416666667,0,0,0,,0,286,286,425,1,,
,,,,,,,,,,,,,,,,,,5e5012ec47808406305d6a0d,2020-08-10_16h24.11.928,lexical_decision_task_MP,2020.1.3,Win32,60,z,1,,,,,,,,0.864,1,,,,,,307,NW,"ID",33,kirafe,KIRAFE,z,0.864,,,,,,-0.035555556,-0.416666667,0,0,0,,0,287,287,246,1,,
,,,,,,,,,,,,,,,,,,5e5012ec47808406305d6a0d,2020-08-10_16h24.11.928,lexical_decision_task_MP,2020.1.3,Win32,60,m,1,,,,,,,,0.744,1,,,,,,179,WORD,"ID",50,basket,BASKET,m,0.744,,,,,,-0.035555556,-0.416666667,0,0,0,,0,288,288,118,1,,
,,,,,,,,,,,,,,,,,,5e5012ec47808406305d6a0d,2020-08-10_16h24.11.928,lexical_decision_task_MP,2020.1.3,Win32,60,m,1,,,,,,,,0.625,1,,,,,,167,WORD,"ID",50,design,DESIGN,m,0.625,,,,,,-0.035555556,-0.416666667,0,0,0,,0,289,289,106,1,,
,,,,,,,,,,,,,,,,,,5e5012ec47808406305d6a0d,2020-08-10_16h24.11.928,lexical_decision_task_MP,2020.1.3,Win32,60,m,1,,,,,,,,0.629,1,,,,,,198,WORD,UN,33,invoke,WICKED,m,0.629,,,,,,-0.035555556,-0.416666667,0,0,0,,0,290,290,137,1,,
,,,,,,,,,,,,,,,,,,5e5012ec47808406305d6a0d,2020-08-10_16h24.11.928,lexical_decision_task_MP,2020.1.3,Win32,60,z,1,,,,,,,,0.643,1,,,,,,329,NW,"ID",33,yarike,YARIKE,z,0.643,,,,,,-0.035555556,-0.416666667,0,0,0,,0,291,291,268,1,,
,,,,,,,,,,,,,,,,,,5e5012ec47808406305d6a0d,2020-08-10_16h24.11.928,lexical_decision_task_MP,2020.1.3,Win32,60,m,1,,,,,,,,0.652,1,,,,,,196,WORD,UN,33,stream,CREDIT,m,0.652,,,,,,-0.035555556,-0.416666667,0,0,0,,0,292,292,135,1,,
,,,,,,,,,,,,,,,,,,5e5012ec47808406305d6a0d,2020-08-10_16h24.11.928,lexical_decision_task_MP,2020.1.3,Win32,60,z,1,,,,,,,,0.683,1,,,,,,302,NW,"ID",33,miluer,MILUER,z,0.683,,,,,,-0.035555556,-0.416666667,0,0,0,,0,293,293,241,1,,
,,,,,,,,,,,,,,,,,,5e5012ec47808406305d6a0d,2020-08-10_16h24.11.928,lexical_decision_task_MP,2020.1.3,Win32,60,z,1,,,,,,,,0.943,1,,,,,,462,NW,UN,33,kispel,ABSULT,z,0.943,,,,,,-0.035555556,-0.416666667,0,0,0,,0,294,294,401,1,,
,,,,,,,,,,,,,,,,,,5e5012ec47808406305d6a0d,2020-08-10_16h24.11.928,lexical_decision_task_MP,2020.1.3,Win32,60,m,1,,,,,,,,0.728,1,,,,,,82,WORD,"ID",33,stigma,STIGMA,m,0.728,,,,,,-0.035555556,-0.416666667,0,0,0,,0,295,295,21,1,,
,,,,,,,,,,,,,,,,,,5e5012ec47808406305d6a0d,2020-08-10_16h24.11.928,lexical_decision_task_MP,2020.1.3,Win32,60,z,1,,,,,,,,0.763,1,,,,,,244,NW,UN,50,anougs,EATRIC,z,0.763,,,,,,-0.035555556,-0.416666667,0,0,0,,0,296,296,423,1,,
,,,,,,,,,,,,,,,,,,5e5012ec47808406305d6a0d,2020-08-10_16h24.11.928,lexical_decision_task_MP,2020.1.3,Win32,60,z,1,,,,,,,,0.743,1,,,,,,291,NW,UN,50,ablint,PRETCH,z,0.743,,,,,,-0.035555556,-0.416666667,0,0,0,,0,297,297,470,1,,
,,,,,,,,,,,,,,,,,,5e5012ec47808406305d6a0d,2020-08-10_16h24.11.928,lexical_decision_task_MP,2020.1.3,Win32,60,m,1,,,,,,,,0.703,1,,,,,,165,WORD,"ID",50,invest,INVEST,m,0.703,,,,,,-0.035555556,-0.416666667,0,0,0,,0,298,298,104,1,,
,,,,,,,,,,,,,,,,,,5e5012ec47808406305d6a0d,2020-08-10_16h24.11.928,lexical_decision_task_MP,2020.1.3,Win32,60,m,1,,,,,,,,0.622,1,,,,,,79,WORD,"ID",33,theory,THEORY,m,0.622,,,,,,-0.035555556,-0.416666667,0,0,0,,0,299,299,18,1,,
,,,,,,,,,,,,,,,,,,5e5012ec47808406305d6a0d,2020-08-10_16h24.11.928,lexical_decision_task_MP,2020.1.3,Win32,60,z,1,,,,,,,,0.705,1,,,,,,469,NW,UN,33,crudio,PADIFS,z,0.705,,,,,,-0.035555556,-0.416666667,0,0,0,,0,300,300,408,1,,
,,,,,,,,,,,,,,,,,,5e5012ec47808406305d6a0d,2020-08-10_16h24.11.928,lexical_decision_task_MP,2020.1.3,Win32,60,m,1,,,,,,,,0.725,1,,,,,,208,WORD,UN,33,search,HOCKEY,m,0.725,,,,,,-0.035555556,-0.416666667,0,0,0,,0,301,301,147,1,,
,,,,,,,,,,,,,,,,,,5e5012ec47808406305d6a0d,2020-08-10_16h24.11.928,lexical_decision_task_MP,2020.1.3,Win32,60,m,1,,,,,,,,0.669,1,,,,,,143,WORD,"ID",50,reason,REASON,m,0.669,,,,,,-0.035555556,-0.416666667,0,0,0,,0,302,302,82,1,,
,,,,,,,,,,,,,,,,,,5e5012ec47808406305d6a0d,2020-08-10_16h24.11.928,lexical_decision_task_MP,2020.1.3,Win32,60,m,1,,,,,,,,0.665,1,,,,,,137,WORD,"ID",50,finger,FINGER,m,0.665,,,,,,-0.035555556,-0.416666667,0,0,0,,0,303,303,76,1,,
,,,,,,,,,,,,,,,,,,5e5012ec47808406305d6a0d,2020-08-10_16h24.11.928,lexical_decision_task_MP,2020.1.3,Win32,60,z,1,,,,,,,,0.711,1,,,,,,378,NW,"ID",50,shrile,SHRILE,z,0.711,,,,,,-0.035555556,-0.416666667,0,0,0,,0,304,304,317,1,,
,,,,,,,,,,,,,,,,,,5e5012ec47808406305d6a0d,2020-08-10_16h24.11.928,lexical_decision_task_MP,2020.1.3,Win32,60,m,1,,,,,,,,0.631,1,,,,,,50,WORD,UN,50,hungry,SNATCH,m,0.631,,,,,,-0.035555556,-0.416666667,0,0,0,,0,305,305,229,1,,
,,,,,,,,,,,,,,,,,,5e5012ec47808406305d6a0d,2020-08-10_16h24.11.928,lexical_decision_task_MP,2020.1.3,Win32,60,z,1,,,,,,,,1.065,1,,,,,,260,NW,UN,50,stunch,UNJECT,z,1.065,,,,,,-0.035555556,-0.416666667,0,0,0,,0,306,306,439,1,,
,,,,,,,,,,,,,,,,,,5e5012ec47808406305d6a0d,2020-08-10_16h24.11.928,lexical_decision_task_MP,2020.1.3,Win32,60,m,1,,,,,,,,0.724,1,,,,,,74,WORD,"ID",33,plaque,PLAQUE,m,0.724,,,,,,-0.035555556,-0.416666667,0,0,0,,0,307,307,13,1,,
,,,,,,,,,,,,,,,,,,5e5012ec47808406305d6a0d,2020-08-10_16h24.11.928,lexical_decision_task_MP,2020.1.3,Win32,60,z,1,,,,,,,,0.745,1,,,,,,387,NW,"ID",50,gronce,GRONCE,z,0.745,,,,,,-0.035555556,-0.416666667,0,0,0,,0,308,308,326,1,,
,,,,,,,,,,,,,,,,,,5e5012ec47808406305d6a0d,2020-08-10_16h24.11.928,lexical_decision_task_MP,2020.1.3,Win32,60,z,1,,,,,,,,0.747,1,,,,,,313,NW,"ID",33,paurse,PAURSE,z,0.747,,,,,,-0.035555556,-0.416666667,0,0,0,,0,309,309,252,1,,
,,,,,,,,,,,,,,,,,,5e5012ec47808406305d6a0d,2020-08-10_16h24.11.928,lexical_decision_task_MP,2020.1.3,Win32,60,m,1,,,,,,,,0.623,1,,,,,,219,WORD,UN,33,voyage,BUCKET,m,0.623,,,,,,-0.035555556,-0.416666667,0,0,0,,0,310,310,158,1,,
,,,,,,,,,,,,,,,,,,5e5012ec47808406305d6a0d,2020-08-10_16h24.11.928,lexical_decision_task_MP,2020.1.3,Win32,60,m,1,,,,,,,,0.624,1,,,,,,95,WORD,"ID",33,thread,THREAD,m,0.624,,,,,,-0.035555556,-0.416666667,0,0,0,,0,311,311,34,1,,
,,,,,,,,,,,,,,,,,,5e5012ec47808406305d6a0d,2020-08-10_16h24.11.928,lexical_decision_task_MP,2020.1.3,Win32,60,m,1,,,,,,,,0.627,1,,,,,,41,WORD,UN,50,chapel,SPRING,m,0.627,,,,,,-0.035555556,-0.416666667,0,0,0,,0,312,312,220,1,,
,,,,,,,,,,,,,,,,,,5e5012ec47808406305d6a0d,2020-08-10_16h24.11.928,lexical_decision_task_MP,2020.1.3,Win32,60,z,1,,,,,,,,0.65,1,,,,,,394,NW,"ID",50,spaqux,SPAQUX,z,0.65,,,,,,-0.035555556,-0.416666667,0,0,0,,0,313,313,333,1,,
,,,,,,,,,,,,,,,,,,5e5012ec47808406305d6a0d,2020-08-10_16h24.11.928,lexical_decision_task_MP,2020.1.3,Win32,60,m,1,,,,,,,,0.67,1,,,,,,58,WORD,UN,50,splint,FOSTER,m,0.67,,,,,,-0.035555556,-0.416666667,0,0,0,,0,314,314,237,1,,
,,,,,,,,,,,,,,,,,,5e5012ec47808406305d6a0d,2020-08-10_16h24.11.928,lexical_decision_task_MP,2020.1.3,Win32,60,z,1,,,,,,,,0.723,1,,,,,,330,NW,"ID",33,kensom,KENSOM,z,0.723,,,,,,-0.035555556,-0.416666667,0,0,0,,0,315,315,269,1,,
,,,,,,,,,,,,,,,,,,5e5012ec47808406305d6a0d,2020-08-10_16h24.11.928,lexical_decision_task_MP,2020.1.3,Win32,60,m,1,,,,,,,,0.724,1,,,,,,5,WORD,UN,50,bundle,PLUNGE,m,0.724,,,,,,-0.035555556,-0.416666667,0,0,0,,0,316,316,184,1,,
,,,,,,,,,,,,,,,,,,5e5012ec47808406305d6a0d,2020-08-10_16h24.11.928,lexical_decision_task_MP,2020.1.3,Win32,60,z,1,,,,,,,,0.765,1,,,,,,437,NW,UN,33,baitch,SNAPEL,z,0.765,,,,,,-0.035555556,-0.416666667,0,0,0,,0,317,317,376,1,,
,,,,,,,,,,,,,,,,,,5e5012ec47808406305d6a0d,2020-08-10_16h24.11.928,lexical_decision_task_MP,2020.1.3,Win32,60,m,1,,,,,,,,0.581,1,,,,,,203,WORD,UN,33,burden,PHRASE,m,0.581,,,,,,-0.035555556,-0.416666667,0,0,0,,0,318,318,142,1,,
,,,,,,,,,,,,,,,,,,5e5012ec47808406305d6a0d,2020-08-10_16h24.11.928,lexical_decision_task_MP,2020.1.3,Win32,60,z,1,,,,,,,,0.825,1,,,,,,402,NW,"ID",50,syntic,SYNTIC,z,0.825,,,,,,-0.035555556,-0.416666667,0,0,0,,0,319,319,341,1,,
,,,,,,,,,,,,,,,,,,5e5012ec47808406305d6a0d,2020-08-10_16h24.11.928,lexical_decision_task_MP,2020.1.3,Win32,60,z,1,,,,,,,,0.672,1,,,,,,331,NW,"ID",33,gilfew,GILFEW,z,0.672,,,,,,-0.035555556,-0.416666667,0,0,0,,0,320,320,270,1,,
,,,,,,,,,,,,,,,,,,5e5012ec47808406305d6a0d,2020-08-10_16h24.11.928,lexical_decision_task_MP,2020.1.3,Win32,60,m,1,,,,,,,,0.628,1,,,,,,223,WORD,UN,33,period,KIDNEY,m,0.628,,,,,,-0.035555556,-0.416666667,0,0,0,,0,321,321,162,1,,
,,,,,,,,,,,,,,,,,,5e5012ec47808406305d6a0d,2020-08-10_16h24.11.928,lexical_decision_task_MP,2020.1.3,Win32,60,z,1,,,,,,,,0.824,1,,,,,,259,NW,UN,50,unject,SOUDAL,z,0.824,,,,,,-0.035555556,-0.416666667,0,0,0,,0,322,322,438,1,,
,,,,,,,,,,,,,,,,,,5e5012ec47808406305d6a0d,2020-08-10_16h24.11.928,lexical_decision_task_MP,2020.1.3,Win32,60,z,1,,,,,,,,0.724,1,,,,,,368,NW,"ID",50,hornal,HORNAL,z,0.724,,,,,,-0.035555556,-0.416666667,0,0,0,,0,323,323,307,1,,
,,,,,,,,,,,,,,,,,,5e5012ec47808406305d6a0d,2020-08-10_16h24.11.928,lexical_decision_task_MP,2020.1.3,Win32,60,z,1,,,,,,,,0.743,1,,,,,,284,NW,UN,50,prudge,SHAPLE,z,0.743,,,,,,-0.035555556,-0.416666667,0,0,0,,0,324,324,463,1,,
,,,,,,,,,,,,,,,,,,5e5012ec47808406305d6a0d,2020-08-10_16h24.11.928,lexical_decision_task_MP,2020.1.3,Win32,60,m,1,,,,,,,,0.608,1,,,,,,97,WORD,"ID",33,client,CLIENT,m,0.608,,,,,,-0.035555556,-0.416666667,0,0,0,,0,325,325,36,1,,
,,,,,,,,,,,,,,,,,,5e5012ec47808406305d6a0d,2020-08-10_16h24.11.928,lexical_decision_task_MP,2020.1.3,Win32,60,m,1,,,,,,,,0.644,1,,,,,,151,WORD,"ID",50,mystic,MYSTIC,m,0.644,,,,,,-0.035555556,-0.416666667,0,0,0,,0,326,326,90,1,,
,,,,,,,,,,,,,,,,,,5e5012ec47808406305d6a0d,2020-08-10_16h24.11.928,lexical_decision_task_MP,2020.1.3,Win32,60,m,1,,,,,,,,0.602,1,,,,,,185,WORD,UN,33,portal,BOTHER,m,0.602,,,,,,-0.035555556,-0.416666667,0,0,0,,0,327,327,124,1,,
,,,,,,,,,,,,,,,,,,5e5012ec47808406305d6a0d,2020-08-10_16h24.11.928,lexical_decision_task_MP,2020.1.3,Win32,60,m,1,,,,,,,,0.682,1,,,,,,139,WORD,"ID",50,debris,DEBRIS,m,0.682,,,,,,-0.035555556,-0.416666667,0,0,0,,0,328,328,78,1,,
,,,,,,,,,,,,,,,,,,5e5012ec47808406305d6a0d,2020-08-10_16h24.11.928,lexical_decision_task_MP,2020.1.3,Win32,60,m,1,,,,,,,,0.671,1,,,,,,190,WORD,UN,33,stable,BACKUP,m,0.671,,,,,,-0.035555556,-0.416666667,0,0,0,,0,329,329,129,1,,
,,,,,,,,,,,,,,,,,,5e5012ec47808406305d6a0d,2020-08-10_16h24.11.928,lexical_decision_task_MP,2020.1.3,Win32,60,m,1,,,,,,,,0.785,1,,,,,,237,WORD,UN,33,glance,POSTER,m,0.785,,,,,,-0.035555556,-0.416666667,0,0,0,,0,330,330,176,1,,
,,,,,,,,,,,,,,,,,,5e5012ec47808406305d6a0d,2020-08-10_16h24.11.928,lexical_decision_task_MP,2020.1.3,Win32,60,m,1,,,,,,,,0.623,1,,,,,,26,WORD,UN,50,butler,SPRINT,m,0.623,,,,,,-0.035555556,-0.416666667,0,0,0,,0,331,331,205,1,,
,,,,,,,,,,,,,,,,,,5e5012ec47808406305d6a0d,2020-08-10_16h24.11.928,lexical_decision_task_MP,2020.1.3,Win32,60,m,1,,,,,,,,0.643,1,,,,,,40,WORD,UN,50,spring,CONVEY,m,0.643,,,,,,-0.035555556,-0.416666667,0,0,0,,0,332,332,219,1,,
,,,,,,,,,,,,,,,,,,5e5012ec47808406305d6a0d,2020-08-10_16h24.11.928,lexical_decision_task_MP,2020.1.3,Win32,60,z,1,,,,,,,,0.887,1,,,,,,335,NW,"ID",33,desion,DESION,z,0.887,,,,,,-0.035555556,-0.416666667,0,0,0,,0,333,333,274,1,,
,,,,,,,,,,,,,,,,,,5e5012ec47808406305d6a0d,2020-08-10_16h24.11.928,lexical_decision_task_MP,2020.1.3,Win32,60,z,0,,,,,,,,0.703,0,,,,,,16,WORD,UN,50,charge,FAUCET,m,0.703,,,,,,-0.035555556,-0.416666667,0,0,0,,0,334,334,195,1,,
,,,,,,,,,,,,,,,,,,5e5012ec47808406305d6a0d,2020-08-10_16h24.11.928,lexical_decision_task_MP,2020.1.3,Win32,60,m,1,,,,,,,,0.844,1,,,,,,93,WORD,"ID",33,public,PUBLIC,m,0.844,,,,,,-0.035555556,-0.416666667,0,0,0,,0,335,335,32,1,,
,,,,,,,,,,,,,,,,,,5e5012ec47808406305d6a0d,2020-08-10_16h24.11.928,lexical_decision_task_MP,2020.1.3,Win32,60,z,1,,,,,,,,0.954,1,,,,,,376,NW,"ID",50,iguare,IGUARE,z,0.954,,,,,,-0.035555556,-0.416666667,0,0,0,,0,336,336,315,1,,
,,,,,,,,,,,,,,,,,,5e5012ec47808406305d6a0d,2020-08-10_16h24.11.928,lexical_decision_task_MP,2020.1.3,Win32,60,m,1,,,,,,,,0.703,1,,,,,,193,WORD,UN,33,mildew,OBJECT,m,0.703,,,,,,-0.035555556,-0.416666667,0,0,0,,0,337,337,132,1,,
,,,,,,,,,,,,,,,,,,5e5012ec47808406305d6a0d,2020-08-10_16h24.11.928,lexical_decision_task_MP,2020.1.3,Win32,60,z,1,,,,,,,,0.671,1,,,,,,263,NW,UN,50,vackel,DOLICA,z,0.671,,,,,,-0.035555556,-0.416666667,0,0,0,,0,338,338,442,1,,
,,,,,,,,,,,,,,,,,,5e5012ec47808406305d6a0d,2020-08-10_16h24.11.928,lexical_decision_task_MP,2020.1.3,Win32,60,m,1,,,,,,,,0.73,1,,,,,,182,WORD,UN,33,absent,WINTER,m,0.73,,,,,,-0.035555556,-0.416666667,0,0,0,,0,339,339,121,1,,
,,,,,,,,,,,,,,,,,,5e5012ec47808406305d6a0d,2020-08-10_16h24.11.928,lexical_decision_task_MP,2020.1.3,Win32,60,m,1,,,,,,,,0.662,1,,,,,,169,WORD,"ID",50,genius,GENIUS,m,0.662,,,,,,-0.035555556,-0.416666667,0,0,0,,0,340,340,108,1,,
,,,,,,,,,,,,,,,,,,5e5012ec47808406305d6a0d,2020-08-10_16h24.11.928,lexical_decision_task_MP,2020.1.3,Win32,60,z,1,,,,,,,,0.687,1,,,,,,272,NW,UN,50,sortel,DAMILT,z,0.687,,,,,,-0.035555556,-0.416666667,0,0,0,,0,341,341,451,1,,
,,,,,,,,,,,,,,,,,,5e5012ec47808406305d6a0d,2020-08-10_16h24.11.928,lexical_decision_task_MP,2020.1.3,Win32,60,m,1,,,,,,,,0.746,1,,,,,,154,WORD,"ID",50,author,AUTHOR,m,0.746,,,,,,-0.035555556,-0.416666667,0,0,0,,0,342,342,93,1,,
,,,,,,,,,,,,,,,,,,5e5012ec47808406305d6a0d,2020-08-10_16h24.11.928,lexical_decision_task_MP,2020.1.3,Win32,60,m,1,,,,,,,,0.664,1,,,,,,159,WORD,"ID",50,detail,DETAIL,m,0.664,,,,,,-0.035555556,-0.416666667,0,0,0,,0,343,343,98,1,,
,,,,,,,,,,,,,,,,,,5e5012ec47808406305d6a0d,2020-08-10_16h24.11.928,lexical_decision_task_MP,2020.1.3,Win32,60,z,1,,,,,,,,0.744,1,,,,,,391,NW,"ID",50,theldy,THELDY,z,0.744,,,,,,-0.035555556,-0.416666667,0,0,0,,0,344,344,330,1,,
,,,,,,,,,,,,,,,,,,5e5012ec47808406305d6a0d,2020-08-10_16h24.11.928,lexical_decision_task_MP,2020.1.3,Win32,60,z,1,,,,,,,,0.807,1,,,,,,243,NW,UN,50,eatric,MUSIED,z,0.807,,,,,,-0.035555556,-0.416666667,0,0,0,,0,345,345,422,1,,
,,,,,,,,,,,,,,,,,,5e5012ec47808406305d6a0d,2020-08-10_16h24.11.928,lexical_decision_task_MP,2020.1.3,Win32,60,z,1,,,,,,,,0.81,1,,,,,,452,NW,UN,33,bolvis,SURDEN,z,0.81,,,,,,-0.035555556,-0.416666667,0,0,0,,0,346,346,391,1,,
,,,,,,,,,,,,,,,,,,5e5012ec47808406305d6a0d,2020-08-10_16h24.11.928,lexical_decision_task_MP,2020.1.3,Win32,60,z,1,,,,,,,,0.923,1,,,,,,456,NW,UN,33,wanigh,BROGET,z,0.923,,,,,,-0.035555556,-0.416666667,0,0,0,,0,347,347,395,1,,
,,,,,,,,,,,,,,,,,,5e5012ec47808406305d6a0d,2020-08-10_16h24.11.928,lexical_decision_task_MP,2020.1.3,Win32,60,z,1,,,,,,,,0.785,1,,,,,,325,NW,"ID",33,thruse,THRUSE,z,0.785,,,,,,-0.035555556,-0.416666667,0,0,0,,0,348,348,264,1,,
,,,,,,,,,,,,,,,,,,5e5012ec47808406305d6a0d,2020-08-10_16h24.11.928,lexical_decision_task_MP,2020.1.3,Win32,60,z,1,,,,,,,,0.733,1,,,,,,353,NW,"ID",33,clurey,CLUREY,z,0.733,,,,,,-0.035555556,-0.416666667,0,0,0,,0,349,349,292,1,,
,,,,,,,,,,,,,,,,,,5e5012ec47808406305d6a0d,2020-08-10_16h24.11.928,lexical_decision_task_MP,2020.1.3,Win32,60,m,1,,,,,,,,0.951,1,,,,,,176,WORD,"ID",50,strife,STRIFE,m,0.951,,,,,,-0.035555556,-0.416666667,0,0,0,,0,350,350,115,1,,
,,,,,,,,,,,,,,,,,,5e5012ec47808406305d6a0d,2020-08-10_16h24.11.928,lexical_decision_task_MP,2020.1.3,Win32,60,z,1,,,,,,,,0.742,1,,,,,,242,NW,UN,50,musied,UNWERT,z,0.742,,,,,,-0.035555556,-0.416666667,0,0,0,,0,351,351,421,1,,
,,,,,,,,,,,,,,,,,,5e5012ec47808406305d6a0d,2020-08-10_16h24.11.928,lexical_decision_task_MP,2020.1.3,Win32,60,z,1,,,,,,,,0.865,1,,,,,,297,NW,UN,50,piergy,FERTIC,z,0.865,,,,,,-0.035555556,-0.416666667,0,0,0,,0,352,352,476,1,,
,,,,,,,,,,,,,,,,,,5e5012ec47808406305d6a0d,2020-08-10_16h24.11.928,lexical_decision_task_MP,2020.1.3,Win32,60,z,1,,,,,,,,0.823,1,,,,,,422,NW,UN,33,streld,ALCOUD,z,0.823,,,,,,-0.035555556,-0.416666667,0,0,0,,0,353,353,361,1,,
,,,,,,,,,,,,,,,,,,5e5012ec47808406305d6a0d,2020-08-10_16h24.11.928,lexical_decision_task_MP,2020.1.3,Win32,60,m,1,,,,,,,,0.703,1,,,,,,234,WORD,UN,33,poster,CLUMSY,m,0.703,,,,,,-0.035555556,-0.416666667,0,0,0,,0,354,354,173,1,,
,,,,,,,,,,,,,,,,,,5e5012ec47808406305d6a0d,2020-08-10_16h24.11.928,lexical_decision_task_MP,2020.1.3,Win32,60,z,1,,,,,,,,0.662,1,,,,,,412,NW,"ID",50,jiluer,JILUER,z,0.662,,,,,,-0.035555556,-0.416666667,0,0,0,,0,355,355,351,1,,
,,,,,,,,,,,,,,,,,,5e5012ec47808406305d6a0d,2020-08-10_16h24.11.928,lexical_decision_task_MP,2020.1.3,Win32,60,m,1,,,,,,,,0.691,1,,,,,,73,WORD,"ID",33,source,SOURCE,m,0.691,,,,,,-0.035555556,-0.416666667,0,0,0,,0,356,356,12,1,,
,,,,,,,,,,,,,,,,,,5e5012ec47808406305d6a0d,2020-08-10_16h24.11.928,lexical_decision_task_MP,2020.1.3,Win32,60,m,1,,,,,,,,0.652,1,,,,,,172,WORD,"ID",50,patrol,PATROL,m,0.652,,,,,,-0.035555556,-0.416666667,0,0,0,,0,357,357,111,1,,
,,,,,,,,,,,,,,,,,,5e5012ec47808406305d6a0d,2020-08-10_16h24.11.928,lexical_decision_task_MP,2020.1.3,Win32,60,z,1,,,,,,,,0.83,1,,,,,,360,NW,"ID",33,desory,DESORY,z,0.83,,,,,,-0.035555556,-0.416666667,0,0,0,,0,358,358,299,1,,
,,,,,,,,,,,,,,,,,,5e5012ec47808406305d6a0d,2020-08-10_16h24.11.928,lexical_decision_task_MP,2020.1.3,Win32,60,z,1,,,,,,,,0.824,1,,,,,,306,NW,"ID",33,sounge,SOUNGE,z,0.824,,,,,,-0.035555556,-0.416666667,0,0,0,,0,359,359,245,1,,
,,,,,,,,,,,,,,,,,,5e5012ec47808406305d6a0d,2020-08-10_16h24.11.928,lexical_decision_task_MP,2020.1.3,Win32,60,m,1,,,,,,,,0.624,1,,,,,,107,WORD,"ID",33,slogan,SLOGAN,m,0.624,,,,,,-0.035555556,-0.416666667,0,0,0,,0,360,360,46,1,,
,,,,,,,,,,,,,,,,,,5e5012ec47808406305d6a0d,2020-08-10_16h24.11.928,lexical_decision_task_MP,2020.1.3,Win32,60,z,1,,,,,,,,0.703,1,,,,,,282,NW,UN,50,veralf,PORLEX,z,0.703,,,,,,-0.035555556,-0.416666667,0,0,0,,0,361,361,461,1,,
,,,,,,,,,,,,,,,,,,5e5012ec47808406305d6a0d,2020-08-10_16h24.11.928,lexical_decision_task_MP,2020.1.3,Win32,60,m,1,,,,,,,,0.705,1,,,,,,70,WORD,"ID",33,square,SQUARE,m,0.705,,,,,,-0.032222222,-0.414444444,0,0,0,space,0,362,362,9,1,,7.528
,,,,,,,,,,,,,,,,,,5e5012ec47808406305d6a0d,2020-08-10_16h24.11.928,lexical_decision_task_MP,2020.1.3,Win32,60,z,1,,,,,,,,1.508,1,,,,,,411,NW,"ID",50,orchin,ORCHIN,z,1.508,,,,,,-0.032222222,-0.414444444,0,0,0,,0,363,363,350,1,,
,,,,,,,,,,,,,,,,,,5e5012ec47808406305d6a0d,2020-08-10_16h24.11.928,lexical_decision_task_MP,2020.1.3,Win32,60,z,1,,,,,,,,0.732,1,,,,,,267,NW,UN,50,packes,PASINK,z,0.732,,,,,,-0.032222222,-0.414444444,0,0,0,,0,364,364,446,1,,
,,,,,,,,,,,,,,,,,,5e5012ec47808406305d6a0d,2020-08-10_16h24.11.928,lexical_decision_task_MP,2020.1.3,Win32,60,m,1,,,,,,,,0.644,1,,,,,,220,WORD,UN,33,mascot,VOYAGE,m,0.644,,,,,,-0.032222222,-0.414444444,0,0,0,,0,365,365,159,1,,
,,,,,,,,,,,,,,,,,,5e5012ec47808406305d6a0d,2020-08-10_16h24.11.928,lexical_decision_task_MP,2020.1.3,Win32,60,z,1,,,,,,,,1.067,1,,,,,,417,NW,"ID",50,earoud,EAROUD,z,1.067,,,,,,-0.032222222,-0.414444444,0,0,0,,0,366,366,356,1,,
,,,,,,,,,,,,,,,,,,5e5012ec47808406305d6a0d,2020-08-10_16h24.11.928,lexical_decision_task_MP,2020.1.3,Win32,60,z,1,,,,,,,,0.723,1,,,,,,407,NW,"ID",50,suiver,SUIVER,z,0.723,,,,,,-0.032222222,-0.414444444,0,0,0,,0,367,367,346,1,,
,,,,,,,,,,,,,,,,,,5e5012ec47808406305d6a0d,2020-08-10_16h24.11.928,lexical_decision_task_MP,2020.1.3,Win32,60,z,1,,,,,,,,0.862,1,,,,,,348,NW,"ID",33,dumple,DUMPLE,z,0.862,,,,,,-0.032222222,-0.414444444,0,0,0,,0,368,368,287,1,,
,,,,,,,,,,,,,,,,,,5e5012ec47808406305d6a0d,2020-08-10_16h24.11.928,lexical_decision_task_MP,2020.1.3,Win32,60,m,1,,,,,,,,0.623,1,,,,,,238,WORD,UN,33,behalf,FLOWER,m,0.623,,,,,,-0.032222222,-0.414444444,0,0,0,,0,369,369,177,1,,
,,,,,,,,,,,,,,,,,,5e5012ec47808406305d6a0d,2020-08-10_16h24.11.928,lexical_decision_task_MP,2020.1.3,Win32,60,z,1,,,,,,,,0.721,1,,,,,,364,NW,"ID",50,impote,IMPOTE,z,0.721,,,,,,-0.032222222,-0.414444444,0,0,0,,0,370,370,303,1,,
,,,,,,,,,,,,,,,,,,5e5012ec47808406305d6a0d,2020-08-10_16h24.11.928,lexical_decision_task_MP,2020.1.3,Win32,60,z,1,,,,,,,,0.71,1,,,,,,337,NW,"ID",33,rejols,REJOLS,z,0.71,,,,,,-0.032222222,-0.414444444,0,0,0,,0,371,371,276,1,,
,,,,,,,,,,,,,,,,,,5e5012ec47808406305d6a0d,2020-08-10_16h24.11.928,lexical_decision_task_MP,2020.1.3,Win32,60,m,1,,,,,,,,0.664,1,,,,,,31,WORD,UN,50,buckle,WEAPON,m,0.664,,,,,,-0.032222222,-0.414444444,0,0,0,,0,372,372,210,1,,
,,,,,,,,,,,,,,,,,,5e5012ec47808406305d6a0d,2020-08-10_16h24.11.928,lexical_decision_task_MP,2020.1.3,Win32,60,m,0,,,,,,,,0.789,0,,,,,,341,NW,"ID",33,myrtie,MYRTIE,z,0.789,,,,,,-0.032222222,-0.414444444,0,0,0,,0,373,373,280,1,,
,,,,,,,,,,,,,,,,,,5e5012ec47808406305d6a0d,2020-08-10_16h24.11.928,lexical_decision_task_MP,2020.1.3,Win32,60,m,1,,,,,,,,0.748,1,,,,,,127,WORD,"ID",50,castle,CASTLE,m,0.748,,,,,,-0.032222222,-0.414444444,0,0,0,,0,374,374,66,1,,
,,,,,,,,,,,,,,,,,,5e5012ec47808406305d6a0d,2020-08-10_16h24.11.928,lexical_decision_task_MP,2020.1.3,Win32,60,m,1,,,,,,,,0.649,1,,,,,,72,WORD,"ID",33,bright,BRIGHT,m,0.649,,,,,,-0.032222222,-0.414444444,0,0,0,,0,375,375,11,1,,
,,,,,,,,,,,,,,,,,,5e5012ec47808406305d6a0d,2020-08-10_16h24.11.928,lexical_decision_task_MP,2020.1.3,Win32,60,m,1,,,,,,,,0.581,1,,,,,,113,WORD,"ID",33,chorus,CHORUS,m,0.581,,,,,,-0.032222222,-0.414444444,0,0,0,,0,376,376,52,1,,
,,,,,,,,,,,,,,,,,,5e5012ec47808406305d6a0d,2020-08-10_16h24.11.928,lexical_decision_task_MP,2020.1.3,Win32,60,m,1,,,,,,,,0.649,1,,,,,,52,WORD,UN,50,police,IMPOSE,m,0.649,,,,,,-0.032222222,-0.414444444,0,0,0,,0,377,377,231,1,,
,,,,,,,,,,,,,,,,,,5e5012ec47808406305d6a0d,2020-08-10_16h24.11.928,lexical_decision_task_MP,2020.1.3,Win32,60,m,1,,,,,,,,0.604,1,,,,,,120,WORD,"ID",33,strain,STRAIN,m,0.604,,,,,,-0.032222222,-0.414444444,0,0,0,,0,378,378,59,1,,
,,,,,,,,,,,,,,,,,,5e5012ec47808406305d6a0d,2020-08-10_16h24.11.928,lexical_decision_task_MP,2020.1.3,Win32,60,z,1,,,,,,,,0.663,1,,,,,,365,NW,"ID",50,guairt,GUAIRT,z,0.663,,,,,,-0.032222222,-0.414444444,0,0,0,,0,379,379,304,1,,
,,,,,,,,,,,,,,,,,,5e5012ec47808406305d6a0d,2020-08-10_16h24.11.928,lexical_decision_task_MP,2020.1.3,Win32,60,m,1,,,,,,,,0.63,1,,,,,,56,WORD,UN,50,change,AMBUSH,m,0.63,,,,,,-0.032222222,-0.414444444,0,0,0,,0,380,380,235,1,,
,,,,,,,,,,,,,,,,,,5e5012ec47808406305d6a0d,2020-08-10_16h24.11.928,lexical_decision_task_MP,2020.1.3,Win32,60,z,1,,,,,,,,0.824,1,,,,,,455,NW,UN,33,broget,TONDLE,z,0.824,,,,,,-0.032222222,-0.414444444,0,0,0,,0,381,381,394,1,,
,,,,,,,,,,,,,,,,,,5e5012ec47808406305d6a0d,2020-08-10_16h24.11.928,lexical_decision_task_MP,2020.1.3,Win32,60,m,1,,,,,,,,0.963,1,,,,,,192,WORD,UN,33,object,PLAGUE,m,0.963,,,,,,-0.032222222,-0.414444444,0,0,0,,0,382,382,131,1,,
,,,,,,,,,,,,,,,,,,5e5012ec47808406305d6a0d,2020-08-10_16h24.11.928,lexical_decision_task_MP,2020.1.3,Win32,60,z,1,,,,,,,,0.772,1,,,,,,398,NW,"ID",50,blunde,BLUNDE,z,0.772,,,,,,-0.032222222,-0.414444444,0,0,0,,0,383,383,337,1,,
,,,,,,,,,,,,,,,,,,5e5012ec47808406305d6a0d,2020-08-10_16h24.11.928,lexical_decision_task_MP,2020.1.3,Win32,60,z,1,,,,,,,,0.764,1,,,,,,321,NW,"ID",33,miator,MIATOR,z,0.764,,,,,,-0.032222222,-0.414444444,0,0,0,,0,384,384,260,1,,
,,,,,,,,,,,,,,,,,,5e5012ec47808406305d6a0d,2020-08-10_16h24.11.928,lexical_decision_task_MP,2020.1.3,Win32,60,z,1,,,,,,,,0.712,1,,,,,,288,NW,UN,50,starby,YACEUP,z,0.712,,,,,,-0.032222222,-0.414444444,0,0,0,,0,385,385,467,1,,
,,,,,,,,,,,,,,,,,,5e5012ec47808406305d6a0d,2020-08-10_16h24.11.928,lexical_decision_task_MP,2020.1.3,Win32,60,m,1,,,,,,,,0.683,1,,,,,,103,WORD,"ID",33,bounce,BOUNCE,m,0.683,,,,,,-0.032222222,-0.414444444,0,0,0,,0,386,386,42,1,,
,,,,,,,,,,,,,,,,,,5e5012ec47808406305d6a0d,2020-08-10_16h24.11.928,lexical_decision_task_MP,2020.1.3,Win32,60,m,1,,,,,,,,0.824,1,,,,,,205,WORD,UN,33,tailor,LOUNGE,m,0.824,,,,,,-0.032222222,-0.414444444,0,0,0,,0,387,387,144,1,,
,,,,,,,,,,,,,,,,,,5e5012ec47808406305d6a0d,2020-08-10_16h24.11.928,lexical_decision_task_MP,2020.1.3,Win32,60,m,1,,,,,,,,0.662,1,,,,,,27,WORD,UN,50,comedy,SCREAM,m,0.662,,,,,,-0.032222222,-0.414444444,0,0,0,,0,388,388,206,1,,
,,,,,,,,,,,,,,,,,,5e5012ec47808406305d6a0d,2020-08-10_16h24.11.928,lexical_decision_task_MP,2020.1.3,Win32,60,z,1,,,,,,,,0.723,1,,,,,,374,NW,"ID",50,sliant,SLIANT,z,0.723,,,,,,-0.032222222,-0.414444444,0,0,0,,0,389,389,313,1,,
,,,,,,,,,,,,,,,,,,5e5012ec47808406305d6a0d,2020-08-10_16h24.11.928,lexical_decision_task_MP,2020.1.3,Win32,60,z,1,,,,,,,,0.744,1,,,,,,419,NW,"ID",50,slount,SLOUNT,z,0.744,,,,,,-0.032222222,-0.414444444,0,0,0,,0,390,390,358,1,,
,,,,,,,,,,,,,,,,,,5e5012ec47808406305d6a0d,2020-08-10_16h24.11.928,lexical_decision_task_MP,2020.1.3,Win32,60,m,1,,,,,,,,0.648,1,,,,,,178,WORD,"ID",50,inform,INFORM,m,0.648,,,,,,-0.032222222,-0.414444444,0,0,0,,0,391,391,117,1,,
,,,,,,,,,,,,,,,,,,5e5012ec47808406305d6a0d,2020-08-10_16h24.11.928,lexical_decision_task_MP,2020.1.3,Win32,60,m,1,,,,,,,,0.681,1,,,,,,42,WORD,UN,50,tongue,CHAPEL,m,0.681,,,,,,-0.032222222,-0.414444444,0,0,0,,0,392,392,221,1,,
,,,,,,,,,,,,,,,,,,5e5012ec47808406305d6a0d,2020-08-10_16h24.11.928,lexical_decision_task_MP,2020.1.3,Win32,60,z,1,,,,,,,,0.686,1,,,,,,421,NW,UN,33,alcoud,KNISMA,z,0.686,,,,,,-0.032222222,-0.414444444,0,0,0,,0,393,393,360,1,,
,,,,,,,,,,,,,,,,,,5e5012ec47808406305d6a0d,2020-08-10_16h24.11.928,lexical_decision_task_MP,2020.1.3,Win32,60,z,1,,,,,,,,0.784,1,,,,,,382,NW,"ID",50,sarley,SARLEY,z,0.784,,,,,,-0.032222222,-0.414444444,0,0,0,,0,394,394,321,1,,
,,,,,,,,,,,,,,,,,,5e5012ec47808406305d6a0d,2020-08-10_16h24.11.928,lexical_decision_task_MP,2020.1.3,Win32,60,z,1,,,,,,,,0.749,1,,,,,,309,NW,"ID",33,amiloy,AMILOY,z,0.749,,,,,,-0.032222222,-0.414444444,0,0,0,,0,395,395,248,1,,
,,,,,,,,,,,,,,,,,,5e5012ec47808406305d6a0d,2020-08-10_16h24.11.928,lexical_decision_task_MP,2020.1.3,Win32,60,z,1,,,,,,,,0.744,1,,,,,,375,NW,"ID",50,yorque,YORQUE,z,0.744,,,,,,-0.032222222,-0.414444444,0,0,0,,0,396,396,314,1,,
,,,,,,,,,,,,,,,,,,5e5012ec47808406305d6a0d,2020-08-10_16h24.11.928,lexical_decision_task_MP,2020.1.3,Win32,60,m,1,,,,,,,,0.685,1,,,,,,38,WORD,UN,50,insect,POWDER,m,0.685,,,,,,-0.032222222,-0.414444444,0,0,0,,0,397,397,217,1,,
,,,,,,,,,,,,,,,,,,5e5012ec47808406305d6a0d,2020-08-10_16h24.11.928,lexical_decision_task_MP,2020.1.3,Win32,60,m,1,,,,,,,,0.604,1,,,,,,53,WORD,UN,50,ramble,POLICE,m,0.604,,,,,,-0.032222222,-0.414444444,0,0,0,,0,398,398,232,1,,
,,,,,,,,,,,,,,,,,,5e5012ec47808406305d6a0d,2020-08-10_16h24.11.928,lexical_decision_task_MP,2020.1.3,Win32,60,m,1,,,,,,,,0.652,1,,,,,,15,WORD,UN,50,faucet,AMOUNT,m,0.652,,,,,,-0.032222222,-0.414444444,0,0,0,,0,399,399,194,1,,
,,,,,,,,,,,,,,,,,,5e5012ec47808406305d6a0d,2020-08-10_16h24.11.928,lexical_decision_task_MP,2020.1.3,Win32,60,m,1,,,,,,,,0.603,1,,,,,,91,WORD,"ID",33,expand,EXPAND,m,0.603,,,,,,-0.032222222,-0.414444444,0,0,0,,0,400,400,30,1,,
,,,,,,,,,,,,,,,,,,5e5012ec47808406305d6a0d,2020-08-10_16h24.11.928,lexical_decision_task_MP,2020.1.3,Win32,60,z,1,,,,,,,,0.724,1,,,,,,327,NW,"ID",33,plenac,PLENAC,z,0.724,,,,,,-0.032222222,-0.414444444,0,0,0,,0,401,401,266,1,,
,,,,,,,,,,,,,,,,,,5e5012ec47808406305d6a0d,2020-08-10_16h24.11.928,lexical_decision_task_MP,2020.1.3,Win32,60,z,1,,,,,,,,0.723,1,,,,,,251,NW,UN,50,stapod,LUPICT,z,0.723,,,,,,-0.032222222,-0.414444444,0,0,0,,0,402,402,430,1,,
,,,,,,,,,,,,,,,,,,5e5012ec47808406305d6a0d,2020-08-10_16h24.11.928,lexical_decision_task_MP,2020.1.3,Win32,60,m,1,,,,,,,,0.604,1,,,,,,6,WORD,UN,50,anchor,BUNDLE,m,0.604,,,,,,-0.032222222,-0.414444444,0,0,0,,0,403,403,185,1,,
,,,,,,,,,,,,,,,,,,5e5012ec47808406305d6a0d,2020-08-10_16h24.11.928,lexical_decision_task_MP,2020.1.3,Win32,60,z,1,,,,,,,,0.745,1,,,,,,401,NW,"ID",50,mustil,MUSTIL,z,0.745,,,,,,-0.032222222,-0.414444444,0,0,0,,0,404,404,340,1,,
,,,,,,,,,,,,,,,,,,5e5012ec47808406305d6a0d,2020-08-10_16h24.11.928,lexical_decision_task_MP,2020.1.3,Win32,60,m,1,,,,,,,,0.623,1,,,,,,199,WORD,UN,33,plague,INVOKE,m,0.623,,,,,,-0.032222222,-0.414444444,0,0,0,,0,405,405,138,1,,
,,,,,,,,,,,,,,,,,,5e5012ec47808406305d6a0d,2020-08-10_16h24.11.928,lexical_decision_task_MP,2020.1.3,Win32,60,z,1,,,,,,,,0.748,1,,,,,,463,NW,UN,33,chaite,KISPEL,z,0.748,,,,,,-0.032222222,-0.414444444,0,0,0,,0,406,406,402,1,,
,,,,,,,,,,,,,,,,,,5e5012ec47808406305d6a0d,2020-08-10_16h24.11.928,lexical_decision_task_MP,2020.1.3,Win32,60,z,1,,,,,,,,0.752,1,,,,,,249,NW,UN,50,milted,BATROL,z,0.752,,,,,,-0.032222222,-0.414444444,0,0,0,,0,407,407,428,1,,
,,,,,,,,,,,,,,,,,,5e5012ec47808406305d6a0d,2020-08-10_16h24.11.928,lexical_decision_task_MP,2020.1.3,Win32,60,z,1,,,,,,,,0.744,1,,,,,,460,NW,UN,33,justre,MINGAR,z,0.744,,,,,,-0.032222222,-0.414444444,0,0,0,,0,408,408,399,1,,
,,,,,,,,,,,,,,,,,,5e5012ec47808406305d6a0d,2020-08-10_16h24.11.928,lexical_decision_task_MP,2020.1.3,Win32,60,z,1,,,,,,,,0.865,1,,,,,,332,NW,"ID",33,vangue,VANGUE,z,0.865,,,,,,-0.032222222,-0.414444444,0,0,0,,0,409,409,271,1,,
