counterbalancing_condition,instr_done_keyboard.keys,instr_done_touch.x,instr_done_touch.y,instr_done_touch.leftButton,instr_done_touch.midButton,instr_done_touch.rightButton,instr_done_touch.clicked_name,instruction_pages.thisRepN,instruction_pages.thisTrialN,instruction_pages.thisN,instruction_pages.thisIndex,instruction_pages.ran,pageN,phase,instruct_text,has_image,instruct_image,participant,date,expName,psychopyVersion,OS,frameRate,instr_done_keyboard.rt,response.keys,response.corr,response.rt,touch_resp.x,touch_resp.y,touch_resp.leftButton,touch_resp.midButton,touch_resp.rightButton,touch_resp.time,touch_resp.clicked_name,rt,corr,practice_trials.thisRepN,practice_trials.thisTrialN,practice_trials.thisN,practice_trials.thisIndex,practice_trials.ran,TrialID,StimulusType,Condition,PrimeDuration,Prime,Target,corrAns,end_of_practice_trials_pages.thisRepN,end_of_practice_trials_pages.thisTrialN,end_of_practice_trials_pages.thisN,end_of_practice_trials_pages.thisIndex,end_of_practice_trials_pages.ran,break_done_touch.x,break_done_touch.y,break_done_touch.leftButton,break_done_touch.midButton,break_done_touch.rightButton,break_done_keyboard.keys,trials.thisRepN,trials.thisTrialN,trials.thisN,trials.thisIndex,trials.ran,break_done_touch.clicked_name
2,,-0.015625,-0.369791667,1,0,0,instr_done_button,0,0,0,0,1,1,instructions,"INSTRUCTIONS
At the start of each trial, look at the hash marks (######) in the center of the screen. After a moment, a string of letters will appear. Your task is to indicate if the letter string forms a word or not (i.e., if it is a nonword). For example, AUTHOR is a word while AUTHON is a nonword.

Press the space bar or touch the button below to continue.",0,,5e6d03bffab3ff2c403cb205,2020-08-10_16h20.58.244,lexical_decision_task_MP,2020.1.3,Win32,60,,,,,,,,,,,,,,,,,,,,,,,,,,,,,,,,,,,,,,,,,,
,,-0.067708333,-0.388020833,1,0,0,instr_done_button,0,1,1,1,1,2,instructions,"If your device has a keyboard, press the 'Z' key for nonwords and the 'M' key for words.





Press the space bar or touch the button below to continue.",1,keyboard-example.gif,5e6d03bffab3ff2c403cb205,2020-08-10_16h20.58.244,lexical_decision_task_MP,2020.1.3,Win32,60,,,,,,,,,,,,,,,,,,,,,,,,,,,,,,,,,,,,,,,,,,
,space,0.15625,-0.451822917,0,0,0,,0,2,2,2,1,3,instructions,"If you are using a touchscreen only device, use the buttons on the screen. Do not use the mouse.





Press the space bar or touch the button below to continue.",1,touchscreen-example.gif,5e6d03bffab3ff2c403cb205,2020-08-10_16h20.58.244,lexical_decision_task_MP,2020.1.3,Win32,60,5.06448,,,,,,,,,,,,,,,,,,,,,,,,,,,,,,,,,,,,,,,,,
,space,0.15625,-0.451822917,0,0,0,,0,3,3,3,1,4,instructions,"It is very important that you respond as quickly and accurately as possible, as each letter string will only be on the screen for two seconds. If you do not respond within this time, the message 'Too slow!' will be displayed and the experiment will progress to the next letter string. The first 20 trials will be practice trials and you will receive feedback on your answers. 

Press the space bar or touch the button below to start the practice trials.",0,,5e6d03bffab3ff2c403cb205,2020-08-10_16h20.58.244,lexical_decision_task_MP,2020.1.3,Win32,60,3.42868,,,,,,,,,,,,,,,,,,,,,,,,,,,,,,,,,,,,,,,,,
,,,,,,,,,,,,,,,,,,5e6d03bffab3ff2c403cb205,2020-08-10_16h20.58.244,lexical_decision_task_MP,2020.1.3,Win32,60,,m,1,1.621035,,,,,,,,1.621035,1,0,0,0,5,1,1006,WORD,UN,33,frenzy,OBTAIN,m,,,,,,,,,,,,,,,,,
,,,,,,,,,,,,,,,,,,5e6d03bffab3ff2c403cb205,2020-08-10_16h20.58.244,lexical_decision_task_MP,2020.1.3,Win32,60,,z,1,0.809135,,,,,,,,0.809135,1,0,1,1,12,1,1013,NW,UN,33,adveil,SPRINY,z,,,,,,,,,,,,,,,,,
,,,,,,,,,,,,,,,,,,5e6d03bffab3ff2c403cb205,2020-08-10_16h20.58.244,lexical_decision_task_MP,2020.1.3,Win32,60,,z,1,0.78996,,,,,,,,0.78996,1,0,2,2,14,1,1015,NW,UN,50,miaber,THRALE,z,,,,,,,,,,,,,,,,,
,,,,,,,,,,,,,,,,,,5e6d03bffab3ff2c403cb205,2020-08-10_16h20.58.244,lexical_decision_task_MP,2020.1.3,Win32,60,,m,1,0.502585,,,,,,,,0.502585,1,0,3,3,6,1,1007,WORD,UN,50,tropic,ZOMBIE,m,,,,,,,,,,,,,,,,,
,,,,,,,,,,,,,,,,,,5e6d03bffab3ff2c403cb205,2020-08-10_16h20.58.244,lexical_decision_task_MP,2020.1.3,Win32,60,,z,1,1.6954,,,,,,,,1.6954,1,0,4,4,10,1,1011,NW,"ID",50,inlade,INLADE,z,,,,,,,,,,,,,,,,,
,,,,,,,,,,,,,,,,,,5e6d03bffab3ff2c403cb205,2020-08-10_16h20.58.244,lexical_decision_task_MP,2020.1.3,Win32,60,,m,1,0.884945,,,,,,,,0.884945,1,0,5,5,2,1,1003,WORD,"ID",50,almond,ALMOND,m,,,,,,,,,,,,,,,,,
,,,,,,,,,,,,,,,,,,5e6d03bffab3ff2c403cb205,2020-08-10_16h20.58.244,lexical_decision_task_MP,2020.1.3,Win32,60,,m,1,0.644405,,,,,,,,0.644405,1,0,6,6,3,1,1004,WORD,"ID",50,matrix,MATRIX,m,,,,,,,,,,,,,,,,,
,,,,,,,,,,,,,,,,,,5e6d03bffab3ff2c403cb205,2020-08-10_16h20.58.244,lexical_decision_task_MP,2020.1.3,Win32,60,,m,1,0.488305,,,,,,,,0.488305,1,0,7,7,1,1,1002,WORD,"ID",33,adjust,ADJUST,m,,,,,,,,,,,,,,,,,
,,,,,,,,,,,,,,,,,,5e6d03bffab3ff2c403cb205,2020-08-10_16h20.58.244,lexical_decision_task_MP,2020.1.3,Win32,60,,z,1,0.603025,,,,,,,,0.603025,1,0,8,8,11,1,1012,NW,"ID",50,rashet,RASHET,z,,,,,,,,,,,,,,,,,
,,,,,,,,,,,,,,,,,,5e6d03bffab3ff2c403cb205,2020-08-10_16h20.58.244,lexical_decision_task_MP,2020.1.3,Win32,60,,z,1,0.6619,,,,,,,,0.6619,1,0,9,9,9,1,1010,NW,"ID",33,fariny,FARINY,z,,,,,,,,,,,,,,,,,
,,,,,,,,,,,,,,,,,,5e6d03bffab3ff2c403cb205,2020-08-10_16h20.58.244,lexical_decision_task_MP,2020.1.3,Win32,60,,m,1,0.849225,,,,,,,,0.849225,1,0,10,10,4,1,1005,WORD,UN,33,abound,SQUEAK,m,,,,,,,,,,,,,,,,,
,,,,,,,,,,,,,,,,,,5e6d03bffab3ff2c403cb205,2020-08-10_16h20.58.244,lexical_decision_task_MP,2020.1.3,Win32,60,,z,1,0.623305,,,,,,,,0.623305,1,0,11,11,13,1,1014,NW,UN,33,winfer,ROUPET,z,,,,,,,,,,,,,,,,,
,,,,,,,,,,,,,,,,,,5e6d03bffab3ff2c403cb205,2020-08-10_16h20.58.244,lexical_decision_task_MP,2020.1.3,Win32,60,,m,1,0.632205,,,,,,,,0.632205,1,0,12,12,7,1,1008,WORD,UN,50,hurdle,VOLUME,m,,,,,,,,,,,,,,,,,
,,,,,,,,,,,,,,,,,,5e6d03bffab3ff2c403cb205,2020-08-10_16h20.58.244,lexical_decision_task_MP,2020.1.3,Win32,60,,m,1,0.73235,,,,,,,,0.73235,1,0,13,13,0,1,1001,WORD,"ID",33,utopia,UTOPIA,m,,,,,,,,,,,,,,,,,
,,,,,,,,,,,,,,,,,,5e6d03bffab3ff2c403cb205,2020-08-10_16h20.58.244,lexical_decision_task_MP,2020.1.3,Win32,60,,z,1,0.818695,,,,,,,,0.818695,1,0,14,14,8,1,1009,NW,"ID",33,aslert,ASLERT,z,,,,,,,,,,,,,,,,,
,,,,,,,,,,,,,,,,,,5e6d03bffab3ff2c403cb205,2020-08-10_16h20.58.244,lexical_decision_task_MP,2020.1.3,Win32,60,,z,1,1.08662,,,,,,,,1.08662,1,0,15,15,15,1,1016,NW,UN,50,mushed,WHAISE,z,,,,,,,,,,,,,,,,,
,,0.055989583,-0.390625,1,0,0,instr_done_button,,,,,,1,end_of_practice,"You have completed the practice trials. During the experimental trials, you will not receive feedback, but it is very important that you respond as quickly and accurately as possible. 
Before you begin, please ensure that you are in a comfortable and quiet location and will not be disturbed for about 15 minutes, as we cannot use your data if you do not complete all the trials. 
There will be opportunities to take breaks at regular intervals during the experiment. When you are ready to start the experimental trials, please press space or touch the button below.",,,5e6d03bffab3ff2c403cb205,2020-08-10_16h20.58.244,lexical_decision_task_MP,2020.1.3,Win32,60,,,,,,,,,,,,,,,,,,,,,,,,,,0,0,0,0,1,,,,,,,,,,,,
,,,,,,,,,,,,,,,,,,5e6d03bffab3ff2c403cb205,2020-08-10_16h20.58.244,lexical_decision_task_MP,2020.1.3,Win32,60,,z,1,0.96632,,,,,,,,0.96632,1,,,,,,249,NW,UN,50,milted,BATROL,z,,,,,,-0.029947917,-0.122395833,0,0,0,,0,0,0,428,1,
,,,,,,,,,,,,,,,,,,5e6d03bffab3ff2c403cb205,2020-08-10_16h20.58.244,lexical_decision_task_MP,2020.1.3,Win32,60,,z,1,1.30329,,,,,,,,1.30329,1,,,,,,477,NW,UN,33,lobush,PHOTIE,z,,,,,,-0.029947917,-0.122395833,0,0,0,,0,1,1,416,1,
,,,,,,,,,,,,,,,,,,5e6d03bffab3ff2c403cb205,2020-08-10_16h20.58.244,lexical_decision_task_MP,2020.1.3,Win32,60,,m,1,0.682425,,,,,,,,0.682425,1,,,,,,171,WORD,"ID",50,depart,DEPART,m,,,,,,-0.029947917,-0.122395833,0,0,0,,0,2,2,110,1,
,,,,,,,,,,,,,,,,,,5e6d03bffab3ff2c403cb205,2020-08-10_16h20.58.244,lexical_decision_task_MP,2020.1.3,Win32,60,,m,1,0.683025,,,,,,,,0.683025,1,,,,,,48,WORD,UN,50,survey,WALNUT,m,,,,,,-0.029947917,-0.122395833,0,0,0,,0,3,3,227,1,
,,,,,,,,,,,,,,,,,,5e6d03bffab3ff2c403cb205,2020-08-10_16h20.58.244,lexical_decision_task_MP,2020.1.3,Win32,60,,m,1,0.802525,,,,,,,,0.802525,1,,,,,,46,WORD,UN,50,income,SINGLE,m,,,,,,-0.029947917,-0.122395833,0,0,0,,0,4,4,225,1,
,,,,,,,,,,,,,,,,,,5e6d03bffab3ff2c403cb205,2020-08-10_16h20.58.244,lexical_decision_task_MP,2020.1.3,Win32,60,,z,1,1.1343,,,,,,,,1.1343,1,,,,,,454,NW,UN,33,tondle,SCOUGE,z,,,,,,-0.029947917,-0.122395833,0,0,0,,0,5,5,393,1,
,,,,,,,,,,,,,,,,,,5e6d03bffab3ff2c403cb205,2020-08-10_16h20.58.244,lexical_decision_task_MP,2020.1.3,Win32,60,,m,1,0.617315,,,,,,,,0.617315,1,,,,,,210,WORD,UN,33,infect,MONKEY,m,,,,,,-0.029947917,-0.122395833,0,0,0,,0,6,6,149,1,
,,,,,,,,,,,,,,,,,,5e6d03bffab3ff2c403cb205,2020-08-10_16h20.58.244,lexical_decision_task_MP,2020.1.3,Win32,60,,z,1,1.538575,,,,,,,,1.538575,1,,,,,,304,NW,"ID",33,cludie,CLUDIE,z,,,,,,-0.029947917,-0.122395833,0,0,0,,0,7,7,243,1,
,,,,,,,,,,,,,,,,,,5e6d03bffab3ff2c403cb205,2020-08-10_16h20.58.244,lexical_decision_task_MP,2020.1.3,Win32,60,,z,1,0.906585,,,,,,,,0.906585,1,,,,,,317,NW,"ID",33,worbal,WORBAL,z,,,,,,-0.029947917,-0.122395833,0,0,0,,0,8,8,256,1,
,,,,,,,,,,,,,,,,,,5e6d03bffab3ff2c403cb205,2020-08-10_16h20.58.244,lexical_decision_task_MP,2020.1.3,Win32,60,,m,1,0.62849,,,,,,,,0.62849,1,,,,,,194,WORD,UN,33,resign,ABSENT,m,,,,,,-0.029947917,-0.122395833,0,0,0,,0,9,9,133,1,
,,,,,,,,,,,,,,,,,,5e6d03bffab3ff2c403cb205,2020-08-10_16h20.58.244,lexical_decision_task_MP,2020.1.3,Win32,60,,z,1,0.66809,,,,,,,,0.66809,1,,,,,,346,NW,"ID",33,saudic,SAUDIC,z,,,,,,-0.029947917,-0.122395833,0,0,0,,0,10,10,285,1,
,,,,,,,,,,,,,,,,,,5e6d03bffab3ff2c403cb205,2020-08-10_16h20.58.244,lexical_decision_task_MP,2020.1.3,Win32,60,,z,1,0.666835,,,,,,,,0.666835,1,,,,,,459,NW,UN,33,mingar,BAFENT,z,,,,,,-0.029947917,-0.122395833,0,0,0,,0,11,11,398,1,
,,,,,,,,,,,,,,,,,,5e6d03bffab3ff2c403cb205,2020-08-10_16h20.58.244,lexical_decision_task_MP,2020.1.3,Win32,60,,z,1,0.681805,,,,,,,,0.681805,1,,,,,,244,NW,UN,50,anougs,EATRIC,z,,,,,,-0.029947917,-0.122395833,0,0,0,,0,12,12,423,1,
,,,,,,,,,,,,,,,,,,5e6d03bffab3ff2c403cb205,2020-08-10_16h20.58.244,lexical_decision_task_MP,2020.1.3,Win32,60,,m,1,1.261615,,,,,,,,1.261615,1,,,,,,61,WORD,"ID",33,ponder,PONDER,m,,,,,,-0.029947917,-0.122395833,0,0,0,,0,13,13,0,1,
,,,,,,,,,,,,,,,,,,5e6d03bffab3ff2c403cb205,2020-08-10_16h20.58.244,lexical_decision_task_MP,2020.1.3,Win32,60,,m,1,0.619445,,,,,,,,0.619445,1,,,,,,14,WORD,UN,50,orange,ALMOST,m,,,,,,-0.029947917,-0.122395833,0,0,0,,0,14,14,193,1,
,,,,,,,,,,,,,,,,,,5e6d03bffab3ff2c403cb205,2020-08-10_16h20.58.244,lexical_decision_task_MP,2020.1.3,Win32,60,,m,1,0.674005,,,,,,,,0.674005,1,,,,,,38,WORD,UN,50,insect,POWDER,m,,,,,,-0.029947917,-0.122395833,0,0,0,,0,15,15,217,1,
,,,,,,,,,,,,,,,,,,5e6d03bffab3ff2c403cb205,2020-08-10_16h20.58.244,lexical_decision_task_MP,2020.1.3,Win32,60,,m,1,0.753335,,,,,,,,0.753335,1,,,,,,182,WORD,UN,33,absent,WINTER,m,,,,,,-0.029947917,-0.122395833,0,0,0,,0,16,16,121,1,
,,,,,,,,,,,,,,,,,,5e6d03bffab3ff2c403cb205,2020-08-10_16h20.58.244,lexical_decision_task_MP,2020.1.3,Win32,60,,z,1,0.90732,,,,,,,,0.90732,1,,,,,,295,NW,UN,50,beinch,GLEATH,z,,,,,,-0.029947917,-0.122395833,0,0,0,,0,17,17,474,1,
,,,,,,,,,,,,,,,,,,5e6d03bffab3ff2c403cb205,2020-08-10_16h20.58.244,lexical_decision_task_MP,2020.1.3,Win32,60,,z,1,0.7992,,,,,,,,0.7992,1,,,,,,299,NW,UN,50,yarion,STURCH,z,,,,,,-0.029947917,-0.122395833,0,0,0,,0,18,18,478,1,
,,,,,,,,,,,,,,,,,,5e6d03bffab3ff2c403cb205,2020-08-10_16h20.58.244,lexical_decision_task_MP,2020.1.3,Win32,60,,m,1,0.7941,,,,,,,,0.7941,1,,,,,,36,WORD,UN,50,insult,VANISH,m,,,,,,-0.029947917,-0.122395833,0,0,0,,0,19,19,215,1,
,,,,,,,,,,,,,,,,,,5e6d03bffab3ff2c403cb205,2020-08-10_16h20.58.244,lexical_decision_task_MP,2020.1.3,Win32,60,,z,1,0.88695,,,,,,,,0.88695,1,,,,,,471,NW,UN,33,cigney,NOBEST,z,,,,,,-0.029947917,-0.122395833,0,0,0,,0,20,20,410,1,
,,,,,,,,,,,,,,,,,,5e6d03bffab3ff2c403cb205,2020-08-10_16h20.58.244,lexical_decision_task_MP,2020.1.3,Win32,60,,z,1,0.7526,,,,,,,,0.7526,1,,,,,,416,NW,"ID",50,pathel,PATHEL,z,,,,,,-0.029947917,-0.122395833,0,0,0,,0,21,21,355,1,
,,,,,,,,,,,,,,,,,,5e6d03bffab3ff2c403cb205,2020-08-10_16h20.58.244,lexical_decision_task_MP,2020.1.3,Win32,60,,z,1,0.475815,,,,,,,,0.475815,1,,,,,,355,NW,"ID",33,zingly,ZINGLY,z,,,,,,-0.029947917,-0.122395833,0,0,0,,0,22,22,294,1,
,,,,,,,,,,,,,,,,,,5e6d03bffab3ff2c403cb205,2020-08-10_16h20.58.244,lexical_decision_task_MP,2020.1.3,Win32,60,,z,1,1.073495,,,,,,,,1.073495,1,,,,,,241,NW,UN,50,unwert,SMENCO,z,,,,,,-0.029947917,-0.122395833,0,0,0,,0,23,23,420,1,
,,,,,,,,,,,,,,,,,,5e6d03bffab3ff2c403cb205,2020-08-10_16h20.58.244,lexical_decision_task_MP,2020.1.3,Win32,60,,z,1,0.93689,,,,,,,,0.93689,1,,,,,,322,NW,"ID",33,slanch,SLANCH,z,,,,,,-0.029947917,-0.122395833,0,0,0,,0,24,24,261,1,
,,,,,,,,,,,,,,,,,,5e6d03bffab3ff2c403cb205,2020-08-10_16h20.58.244,lexical_decision_task_MP,2020.1.3,Win32,60,,m,1,0.74765,,,,,,,,0.74765,1,,,,,,202,WORD,UN,33,phrase,FACTOR,m,,,,,,-0.029947917,-0.122395833,0,0,0,,0,25,25,141,1,
,,,,,,,,,,,,,,,,,,5e6d03bffab3ff2c403cb205,2020-08-10_16h20.58.244,lexical_decision_task_MP,2020.1.3,Win32,60,,z,1,1.08683,,,,,,,,1.08683,1,,,,,,357,NW,"ID",33,derain,DERAIN,z,,,,,,-0.029947917,-0.122395833,0,0,0,,0,26,26,296,1,
,,,,,,,,,,,,,,,,,,5e6d03bffab3ff2c403cb205,2020-08-10_16h20.58.244,lexical_decision_task_MP,2020.1.3,Win32,60,,,0,,,,,,,,,1.08683,-1,,,,,,213,WORD,UN,33,intake,SQUEAL,m,,,,,,-0.029947917,-0.122395833,0,0,0,,0,27,27,152,1,
,,,,,,,,,,,,,,,,,,5e6d03bffab3ff2c403cb205,2020-08-10_16h20.58.244,lexical_decision_task_MP,2020.1.3,Win32,60,,z,1,0.790285,,,,,,,,0.790285,1,,,,,,338,NW,"ID",33,wreash,WREASH,z,,,,,,-0.029947917,-0.122395833,0,0,0,,0,28,28,277,1,
,,,,,,,,,,,,,,,,,,5e6d03bffab3ff2c403cb205,2020-08-10_16h20.58.244,lexical_decision_task_MP,2020.1.3,Win32,60,,m,1,0.589185,,,,,,,,0.589185,1,,,,,,200,WORD,UN,33,admire,BEACON,m,,,,,,-0.029947917,-0.122395833,0,0,0,,0,29,29,139,1,
,,,,,,,,,,,,,,,,,,5e6d03bffab3ff2c403cb205,2020-08-10_16h20.58.244,lexical_decision_task_MP,2020.1.3,Win32,60,,z,1,0.70199,,,,,,,,0.70199,1,,,,,,379,NW,"ID",50,auting,AUTING,z,,,,,,-0.029947917,-0.122395833,0,0,0,,0,30,30,318,1,
,,,,,,,,,,,,,,,,,,5e6d03bffab3ff2c403cb205,2020-08-10_16h20.58.244,lexical_decision_task_MP,2020.1.3,Win32,60,,m,1,0.633525,,,,,,,,0.633525,1,,,,,,97,WORD,"ID",33,client,CLIENT,m,,,,,,-0.029947917,-0.122395833,0,0,0,,0,31,31,36,1,
,,,,,,,,,,,,,,,,,,5e6d03bffab3ff2c403cb205,2020-08-10_16h20.58.244,lexical_decision_task_MP,2020.1.3,Win32,60,,z,1,0.69062,,,,,,,,0.69062,1,,,,,,424,NW,UN,33,frudge,PRAILE,z,,,,,,-0.029947917,-0.122395833,0,0,0,,0,32,32,363,1,
,,,,,,,,,,,,,,,,,,5e6d03bffab3ff2c403cb205,2020-08-10_16h20.58.244,lexical_decision_task_MP,2020.1.3,Win32,60,,z,1,0.60949,,,,,,,,0.60949,1,,,,,,330,NW,"ID",33,kensom,KENSOM,z,,,,,,-0.029947917,-0.122395833,0,0,0,,0,33,33,269,1,
,,,,,,,,,,,,,,,,,,5e6d03bffab3ff2c403cb205,2020-08-10_16h20.58.244,lexical_decision_task_MP,2020.1.3,Win32,60,,z,1,0.586715,,,,,,,,0.586715,1,,,,,,302,NW,"ID",33,miluer,MILUER,z,,,,,,-0.029947917,-0.122395833,0,0,0,,0,34,34,241,1,
,,,,,,,,,,,,,,,,,,5e6d03bffab3ff2c403cb205,2020-08-10_16h20.58.244,lexical_decision_task_MP,2020.1.3,Win32,60,,z,1,0.738255,,,,,,,,0.738255,1,,,,,,277,NW,UN,50,unighs,PETAIN,z,,,,,,-0.029947917,-0.122395833,0,0,0,,0,35,35,456,1,
,,,,,,,,,,,,,,,,,,5e6d03bffab3ff2c403cb205,2020-08-10_16h20.58.244,lexical_decision_task_MP,2020.1.3,Win32,60,,m,1,0.61662,,,,,,,,0.61662,1,,,,,,215,WORD,UN,33,lumber,PHOBIA,m,,,,,,-0.029947917,-0.122395833,0,0,0,,0,36,36,154,1,
,,,,,,,,,,,,,,,,,,5e6d03bffab3ff2c403cb205,2020-08-10_16h20.58.244,lexical_decision_task_MP,2020.1.3,Win32,60,,z,1,0.67836,,,,,,,,0.67836,1,,,,,,326,NW,"ID",33,iguade,IGUADE,z,,,,,,-0.029947917,-0.122395833,0,0,0,,0,37,37,265,1,
,,,,,,,,,,,,,,,,,,5e6d03bffab3ff2c403cb205,2020-08-10_16h20.58.244,lexical_decision_task_MP,2020.1.3,Win32,60,,m,1,0.558735,,,,,,,,0.558735,1,,,,,,159,WORD,"ID",50,detail,DETAIL,m,,,,,,-0.029947917,-0.122395833,0,0,0,,0,38,38,98,1,
,,,,,,,,,,,,,,,,,,5e6d03bffab3ff2c403cb205,2020-08-10_16h20.58.244,lexical_decision_task_MP,2020.1.3,Win32,60,,z,1,0.575715,,,,,,,,0.575715,1,,,,,,428,NW,UN,33,funtle,TANDLY,z,,,,,,-0.029947917,-0.122395833,0,0,0,,0,39,39,367,1,
,,,,,,,,,,,,,,,,,,5e6d03bffab3ff2c403cb205,2020-08-10_16h20.58.244,lexical_decision_task_MP,2020.1.3,Win32,60,,z,1,0.587035,,,,,,,,0.587035,1,,,,,,415,NW,"ID",50,higsta,HIGSTA,z,,,,,,-0.029947917,-0.122395833,0,0,0,,0,40,40,354,1,
,,,,,,,,,,,,,,,,,,5e6d03bffab3ff2c403cb205,2020-08-10_16h20.58.244,lexical_decision_task_MP,2020.1.3,Win32,60,,m,1,0.60474,,,,,,,,0.60474,1,,,,,,216,WORD,UN,33,liquor,BEHALF,m,,,,,,-0.029947917,-0.122395833,0,0,0,,0,41,41,155,1,
,,,,,,,,,,,,,,,,,,5e6d03bffab3ff2c403cb205,2020-08-10_16h20.58.244,lexical_decision_task_MP,2020.1.3,Win32,60,,z,0,0.653745,,,,,,,,0.653745,0,,,,,,183,WORD,UN,33,sleazy,MILDEW,m,,,,,,-0.029947917,-0.122395833,0,0,0,,0,42,42,122,1,
,,,,,,,,,,,,,,,,,,5e6d03bffab3ff2c403cb205,2020-08-10_16h20.58.244,lexical_decision_task_MP,2020.1.3,Win32,60,,z,1,0.620205,,,,,,,,0.620205,1,,,,,,361,NW,"ID",50,pauche,PAUCHE,z,,,,,,-0.029947917,-0.122395833,0,0,0,,0,43,43,300,1,
,,,,,,,,,,,,,,,,,,5e6d03bffab3ff2c403cb205,2020-08-10_16h20.58.244,lexical_decision_task_MP,2020.1.3,Win32,60,,m,1,0.47583,,,,,,,,0.47583,1,,,,,,29,WORD,UN,50,orient,SKETCH,m,,,,,,-0.029947917,-0.122395833,0,0,0,,0,44,44,208,1,
,,,,,,,,,,,,,,,,,,5e6d03bffab3ff2c403cb205,2020-08-10_16h20.58.244,lexical_decision_task_MP,2020.1.3,Win32,60,,m,1,0.73532,,,,,,,,0.73532,1,,,,,,15,WORD,UN,50,faucet,AMOUNT,m,,,,,,-0.029947917,-0.122395833,0,0,0,,0,45,45,194,1,
,,,,,,,,,,,,,,,,,,5e6d03bffab3ff2c403cb205,2020-08-10_16h20.58.244,lexical_decision_task_MP,2020.1.3,Win32,60,,z,1,0.63661,,,,,,,,0.63661,1,,,,,,259,NW,UN,50,unject,SOUDAL,z,,,,,,-0.029947917,-0.122395833,0,0,0,,0,46,46,438,1,
,,,,,,,,,,,,,,,,,,5e6d03bffab3ff2c403cb205,2020-08-10_16h20.58.244,lexical_decision_task_MP,2020.1.3,Win32,60,,z,1,0.57919,,,,,,,,0.57919,1,,,,,,388,NW,"ID",50,cragin,CRAGIN,z,,,,,,-0.029947917,-0.122395833,0,0,0,,0,47,47,327,1,
,,,,,,,,,,,,,,,,,,5e6d03bffab3ff2c403cb205,2020-08-10_16h20.58.244,lexical_decision_task_MP,2020.1.3,Win32,60,,z,0,0.65754,,,,,,,,0.65754,0,,,,,,234,WORD,UN,33,poster,CLUMSY,m,,,,,,-0.029947917,-0.122395833,0,0,0,,0,48,48,173,1,
,,,,,,,,,,,,,,,,,,5e6d03bffab3ff2c403cb205,2020-08-10_16h20.58.244,lexical_decision_task_MP,2020.1.3,Win32,60,,m,1,0.7063,,,,,,,,0.7063,1,,,,,,10,WORD,UN,50,cruise,ETHNIC,m,,,,,,-0.029947917,-0.122395833,0,0,0,,0,49,49,189,1,
,,,,,,,,,,,,,,,,,,5e6d03bffab3ff2c403cb205,2020-08-10_16h20.58.244,lexical_decision_task_MP,2020.1.3,Win32,60,,z,1,0.928465,,,,,,,,0.928465,1,,,,,,255,NW,UN,50,inlors,APIGHT,z,,,,,,-0.029947917,-0.122395833,0,0,0,,0,50,50,434,1,
,,,,,,,,,,,,,,,,,,5e6d03bffab3ff2c403cb205,2020-08-10_16h20.58.244,lexical_decision_task_MP,2020.1.3,Win32,60,,m,1,0.58865,,,,,,,,0.58865,1,,,,,,81,WORD,"ID",33,friend,FRIEND,m,,,,,,-0.029947917,-0.122395833,0,0,0,,0,51,51,20,1,
,,,,,,,,,,,,,,,,,,5e6d03bffab3ff2c403cb205,2020-08-10_16h20.58.244,lexical_decision_task_MP,2020.1.3,Win32,60,,z,1,0.668035,,,,,,,,0.668035,1,,,,,,254,NW,UN,50,apight,VAROSH,z,,,,,,-0.029947917,-0.122395833,0,0,0,,0,52,52,433,1,
,,,,,,,,,,,,,,,,,,5e6d03bffab3ff2c403cb205,2020-08-10_16h20.58.244,lexical_decision_task_MP,2020.1.3,Win32,60,,m,1,0.722515,,,,,,,,0.722515,1,,,,,,35,WORD,UN,50,vanish,SOCKET,m,,,,,,-0.029947917,-0.122395833,0,0,0,,0,53,53,214,1,
,,,,,,,,,,,,,,,,,,5e6d03bffab3ff2c403cb205,2020-08-10_16h20.58.244,lexical_decision_task_MP,2020.1.3,Win32,60,,m,1,0.61831,,,,,,,,0.61831,1,,,,,,13,WORD,UN,50,almost,STRIVE,m,,,,,,-0.029947917,-0.122395833,0,0,0,,0,54,54,192,1,
,,,,,,,,,,,,,,,,,,5e6d03bffab3ff2c403cb205,2020-08-10_16h20.58.244,lexical_decision_task_MP,2020.1.3,Win32,60,,m,1,0.66496,,,,,,,,0.66496,1,,,,,,34,WORD,UN,50,socket,JUNGLE,m,,,,,,-0.029947917,-0.122395833,0,0,0,,0,55,55,213,1,
,,,,,,,,,,,,,,,,,,5e6d03bffab3ff2c403cb205,2020-08-10_16h20.58.244,lexical_decision_task_MP,2020.1.3,Win32,60,,m,1,0.565055,,,,,,,,0.565055,1,,,,,,102,WORD,"ID",33,direct,DIRECT,m,,,,,,-0.029947917,-0.122395833,0,0,0,,0,56,56,41,1,
,,,,,,,,,,,,,,,,,,5e6d03bffab3ff2c403cb205,2020-08-10_16h20.58.244,lexical_decision_task_MP,2020.1.3,Win32,60,,m,1,0.585565,,,,,,,,0.585565,1,,,,,,235,WORD,UN,33,pirate,GRUMPY,m,,,,,,-0.029947917,-0.122395833,0,0,0,,0,57,57,174,1,
,,,,,,,,,,,,,,,,,,5e6d03bffab3ff2c403cb205,2020-08-10_16h20.58.244,lexical_decision_task_MP,2020.1.3,Win32,60,,m,1,0.646455,,,,,,,,0.646455,1,,,,,,118,WORD,"ID",33,flight,FLIGHT,m,,,,,,-0.029947917,-0.122395833,0,0,0,,0,58,58,57,1,
,,,,,,,,,,,,,,,,,,5e6d03bffab3ff2c403cb205,2020-08-10_16h20.58.244,lexical_decision_task_MP,2020.1.3,Win32,60,,m,1,0.441175,,,,,,,,0.441175,1,,,,,,188,WORD,UN,33,censor,SOCIAL,m,,,,,,-0.029947917,-0.122395833,0,0,0,,0,59,59,127,1,
,,,,,,,,,,,,,,,,,,5e6d03bffab3ff2c403cb205,2020-08-10_16h20.58.244,lexical_decision_task_MP,2020.1.3,Win32,60,,m,1,0.440695,,,,,,,,0.440695,1,,,,,,121,WORD,"ID",50,thrive,THRIVE,m,,,,,,-0.029947917,-0.122395833,0,0,0,,0,60,60,60,1,
,,,,,,,,,,,,,,,,,,5e6d03bffab3ff2c403cb205,2020-08-10_16h20.58.244,lexical_decision_task_MP,2020.1.3,Win32,60,,z,1,0.688165,,,,,,,,0.688165,1,,,,,,374,NW,"ID",50,sliant,SLIANT,z,,,,,,-0.029947917,-0.122395833,0,0,0,,0,61,61,313,1,
,,,,,,,,,,,,,,,,,,5e6d03bffab3ff2c403cb205,2020-08-10_16h20.58.244,lexical_decision_task_MP,2020.1.3,Win32,60,,m,1,0.429045,,,,,,,,0.429045,1,,,,,,187,WORD,UN,33,social,COURSE,m,,,,,,-0.029947917,-0.122395833,0,0,0,,0,62,62,126,1,
,,,,,,,,,,,,,,,,,,5e6d03bffab3ff2c403cb205,2020-08-10_16h20.58.244,lexical_decision_task_MP,2020.1.3,Win32,60,,z,1,0.621915,,,,,,,,0.621915,1,,,,,,426,NW,UN,33,schind,URIVEL,z,,,,,,-0.029947917,-0.122395833,0,0,0,,0,63,63,365,1,
,,,,,,,,,,,,,,,,,,5e6d03bffab3ff2c403cb205,2020-08-10_16h20.58.244,lexical_decision_task_MP,2020.1.3,Win32,60,,m,1,0.45407,,,,,,,,0.45407,1,,,,,,12,WORD,UN,50,strive,ORANGE,m,,,,,,-0.029947917,-0.122395833,0,0,0,,0,64,64,191,1,
,,,,,,,,,,,,,,,,,,5e6d03bffab3ff2c403cb205,2020-08-10_16h20.58.244,lexical_decision_task_MP,2020.1.3,Win32,60,,z,1,0.556005,,,,,,,,0.556005,1,,,,,,292,NW,UN,50,swance,ABLINT,z,,,,,,-0.029947917,-0.122395833,0,0,0,,0,65,65,471,1,
,,,,,,,,,,,,,,,,,,5e6d03bffab3ff2c403cb205,2020-08-10_16h20.58.244,lexical_decision_task_MP,2020.1.3,Win32,60,,m,1,0.40208,,,,,,,,0.40208,1,,,,,,152,WORD,"ID",50,rocket,ROCKET,m,,,,,,-0.029947917,-0.122395833,0,0,0,,0,66,66,91,1,
,,,,,,,,,,,,,,,,,,5e6d03bffab3ff2c403cb205,2020-08-10_16h20.58.244,lexical_decision_task_MP,2020.1.3,Win32,60,,z,1,0.51164,,,,,,,,0.51164,1,,,,,,329,NW,"ID",33,yarike,YARIKE,z,,,,,,-0.029947917,-0.122395833,0,0,0,,0,67,67,268,1,
,,,,,,,,,,,,,,,,,,5e6d03bffab3ff2c403cb205,2020-08-10_16h20.58.244,lexical_decision_task_MP,2020.1.3,Win32,60,,z,0,0.58887,,,,,,,,0.58887,0,,,,,,77,WORD,"ID",33,racket,RACKET,m,,,,,,-0.029947917,-0.122395833,0,0,0,,0,68,68,16,1,
,,,,,,,,,,,,,,,,,,5e6d03bffab3ff2c403cb205,2020-08-10_16h20.58.244,lexical_decision_task_MP,2020.1.3,Win32,60,,m,1,0.389605,,,,,,,,0.389605,1,,,,,,109,WORD,"ID",33,wonder,WONDER,m,,,,,,-0.029947917,-0.122395833,0,0,0,,0,69,69,48,1,
,,,,,,,,,,,,,,,,,,5e6d03bffab3ff2c403cb205,2020-08-10_16h20.58.244,lexical_decision_task_MP,2020.1.3,Win32,60,,m,1,0.687575,,,,,,,,0.687575,1,,,,,,222,WORD,UN,33,export,HINDER,m,,,,,,-0.029947917,-0.122395833,0,0,0,,0,70,70,161,1,
,,,,,,,,,,,,,,,,,,5e6d03bffab3ff2c403cb205,2020-08-10_16h20.58.244,lexical_decision_task_MP,2020.1.3,Win32,60,,m,1,0.69398,,,,,,,,0.69398,1,,,,,,40,WORD,UN,50,spring,CONVEY,m,,,,,,-0.029947917,-0.122395833,0,0,0,,0,71,71,219,1,
,,,,,,,,,,,,,,,,,,5e6d03bffab3ff2c403cb205,2020-08-10_16h20.58.244,lexical_decision_task_MP,2020.1.3,Win32,60,,z,1,0.57825,,,,,,,,0.57825,1,,,,,,437,NW,UN,33,baitch,SNAPEL,z,,,,,,-0.029947917,-0.122395833,0,0,0,,0,72,72,376,1,
,,,,,,,,,,,,,,,,,,5e6d03bffab3ff2c403cb205,2020-08-10_16h20.58.244,lexical_decision_task_MP,2020.1.3,Win32,60,,m,1,0.49366,,,,,,,,0.49366,1,,,,,,57,WORD,UN,50,danger,CHANGE,m,,,,,,-0.029947917,-0.122395833,0,0,0,,0,73,73,236,1,
,,,,,,,,,,,,,,,,,,5e6d03bffab3ff2c403cb205,2020-08-10_16h20.58.244,lexical_decision_task_MP,2020.1.3,Win32,60,,m,1,0.435645,,,,,,,,0.435645,1,,,,,,72,WORD,"ID",33,bright,BRIGHT,m,,,,,,-0.029947917,-0.122395833,0,0,0,,0,74,74,11,1,
,,,,,,,,,,,,,,,,,,5e6d03bffab3ff2c403cb205,2020-08-10_16h20.58.244,lexical_decision_task_MP,2020.1.3,Win32,60,,z,1,0.6508,,,,,,,,0.6508,1,,,,,,262,NW,UN,50,dolica,QUILEW,z,,,,,,-0.029947917,-0.122395833,0,0,0,,0,75,75,441,1,
,,,,,,,,,,,,,,,,,,5e6d03bffab3ff2c403cb205,2020-08-10_16h20.58.244,lexical_decision_task_MP,2020.1.3,Win32,60,,m,1,0.376715,,,,,,,,0.376715,1,,,,,,135,WORD,"ID",50,import,IMPORT,m,,,,,,-0.029947917,-0.122395833,0,0,0,,0,76,76,74,1,
,,,,,,,,,,,,,,,,,,5e6d03bffab3ff2c403cb205,2020-08-10_16h20.58.244,lexical_decision_task_MP,2020.1.3,Win32,60,,m,1,0.516275,,,,,,,,0.516275,1,,,,,,217,WORD,UN,33,shrink,LIQUOR,m,,,,,,-0.029947917,-0.122395833,0,0,0,,0,77,77,156,1,
,,,,,,,,,,,,,,,,,,5e6d03bffab3ff2c403cb205,2020-08-10_16h20.58.244,lexical_decision_task_MP,2020.1.3,Win32,60,,z,1,0.56774,,,,,,,,0.56774,1,,,,,,349,NW,"ID",33,asylen,ASYLEN,z,,,,,,-0.029947917,-0.122395833,0,0,0,,0,78,78,288,1,
,,,,,,,,,,,,,,,,,,5e6d03bffab3ff2c403cb205,2020-08-10_16h20.58.244,lexical_decision_task_MP,2020.1.3,Win32,60,,m,1,0.45503,,,,,,,,0.45503,1,,,,,,56,WORD,UN,50,change,AMBUSH,m,,,,,,-0.029947917,-0.122395833,0,0,0,,0,79,79,235,1,
,,,,,,,,,,,,,,,,,,5e6d03bffab3ff2c403cb205,2020-08-10_16h20.58.244,lexical_decision_task_MP,2020.1.3,Win32,60,,m,0,0.519135,,,,,,,,0.519135,0,,,,,,332,NW,"ID",33,vangue,VANGUE,z,,,,,,-0.029947917,-0.122395833,0,0,0,,0,80,80,271,1,
,,,,,,,,,,,,,,,,,,5e6d03bffab3ff2c403cb205,2020-08-10_16h20.58.244,lexical_decision_task_MP,2020.1.3,Win32,60,,z,1,0.61085,,,,,,,,0.61085,1,,,,,,242,NW,UN,50,musied,UNWERT,z,,,,,,-0.029947917,-0.122395833,0,0,0,,0,81,81,421,1,
,,,,,,,,,,,,,,,,,,5e6d03bffab3ff2c403cb205,2020-08-10_16h20.58.244,lexical_decision_task_MP,2020.1.3,Win32,60,,z,1,0.83607,,,,,,,,0.83607,1,,,,,,341,NW,"ID",33,myrtie,MYRTIE,z,,,,,,-0.029947917,-0.122395833,0,0,0,,0,82,82,280,1,
,,,,,,,,,,,,,,,,,,5e6d03bffab3ff2c403cb205,2020-08-10_16h20.58.244,lexical_decision_task_MP,2020.1.3,Win32,60,,z,1,0.63505,,,,,,,,0.63505,1,,,,,,275,NW,UN,50,yarmon,SLEIRT,z,,,,,,-0.029947917,-0.122395833,0,0,0,,0,83,83,454,1,
,,,,,,,,,,,,,,,,,,5e6d03bffab3ff2c403cb205,2020-08-10_16h20.58.244,lexical_decision_task_MP,2020.1.3,Win32,60,,m,1,0.600815,,,,,,,,0.600815,1,,,,,,192,WORD,UN,33,object,PLAGUE,m,,,,,,-0.029947917,-0.122395833,0,0,0,,0,84,84,131,1,
,,,,,,,,,,,,,,,,,,5e6d03bffab3ff2c403cb205,2020-08-10_16h20.58.244,lexical_decision_task_MP,2020.1.3,Win32,60,,z,0,0.667455,,,,,,,,0.667455,0,,,,,,166,WORD,"ID",50,starch,STARCH,m,,,,,,-0.029947917,-0.122395833,0,0,0,,0,85,85,105,1,
,,,,,,,,,,,,,,,,,,5e6d03bffab3ff2c403cb205,2020-08-10_16h20.58.244,lexical_decision_task_MP,2020.1.3,Win32,60,,m,1,0.566315,,,,,,,,0.566315,1,,,,,,93,WORD,"ID",33,public,PUBLIC,m,,,,,,-0.029947917,-0.122395833,0,0,0,,0,86,86,32,1,
,,,,,,,,,,,,,,,,,,5e6d03bffab3ff2c403cb205,2020-08-10_16h20.58.244,lexical_decision_task_MP,2020.1.3,Win32,60,,m,1,0.843685,,,,,,,,0.843685,1,,,,,,140,WORD,"ID",50,prince,PRINCE,m,,,,,,-0.029947917,-0.122395833,0,0,0,,0,87,87,79,1,
,,,,,,,,,,,,,,,,,,5e6d03bffab3ff2c403cb205,2020-08-10_16h20.58.244,lexical_decision_task_MP,2020.1.3,Win32,60,,m,1,0.420235,,,,,,,,0.420235,1,,,,,,76,WORD,"ID",33,exotic,EXOTIC,m,,,,,,-0.029947917,-0.122395833,0,0,0,,0,88,88,15,1,
,,,,,,,,,,,,,,,,,,5e6d03bffab3ff2c403cb205,2020-08-10_16h20.58.244,lexical_decision_task_MP,2020.1.3,Win32,60,,m,0,0.523255,,,,,,,,0.523255,0,,,,,,365,NW,"ID",50,guairt,GUAIRT,z,,,,,,-0.029947917,-0.122395833,0,0,0,,0,89,89,304,1,
,,,,,,,,,,,,,,,,,,5e6d03bffab3ff2c403cb205,2020-08-10_16h20.58.244,lexical_decision_task_MP,2020.1.3,Win32,60,,z,1,0.301225,,,,,,,,0.301225,1,,,,,,474,NW,UN,33,acrise,HABLIN,z,,,,,,-0.029947917,-0.122395833,0,0,0,,0,90,90,413,1,
,,,,,,,,,,,,,,,,,,5e6d03bffab3ff2c403cb205,2020-08-10_16h20.58.244,lexical_decision_task_MP,2020.1.3,Win32,60,,m,1,0.40664,,,,,,,,0.40664,1,,,,,,172,WORD,"ID",50,patrol,PATROL,m,,,,,,-0.029947917,-0.122395833,0,0,0,,0,91,91,111,1,
,,,,,,,,,,,,,,,,,,5e6d03bffab3ff2c403cb205,2020-08-10_16h20.58.244,lexical_decision_task_MP,2020.1.3,Win32,60,,m,1,0.527215,,,,,,,,0.527215,1,,,,,,226,WORD,UN,33,flower,CASINO,m,,,,,,-0.029947917,-0.122395833,0,0,0,,0,92,92,165,1,
,,,,,,,,,,,,,,,,,,5e6d03bffab3ff2c403cb205,2020-08-10_16h20.58.244,lexical_decision_task_MP,2020.1.3,Win32,60,,z,1,0.605385,,,,,,,,0.605385,1,,,,,,324,NW,"ID",33,steikh,STEIKH,z,,,,,,-0.029947917,-0.122395833,0,0,0,,0,93,93,263,1,
,,,,,,,,,,,,,,,,,,5e6d03bffab3ff2c403cb205,2020-08-10_16h20.58.244,lexical_decision_task_MP,2020.1.3,Win32,60,,m,0,0.475205,,,,,,,,0.475205,0,,,,,,425,NW,UN,33,urivel,FRUDGE,z,,,,,,-0.029947917,-0.122395833,0,0,0,,0,94,94,364,1,
,,,,,,,,,,,,,,,,,,5e6d03bffab3ff2c403cb205,2020-08-10_16h20.58.244,lexical_decision_task_MP,2020.1.3,Win32,60,,z,1,1.04821,,,,,,,,1.04821,1,,,,,,273,NW,UN,50,fumblo,SORTEL,z,,,,,,-0.029947917,-0.122395833,0,0,0,,0,95,95,452,1,
,,,,,,,,,,,,,,,,,,5e6d03bffab3ff2c403cb205,2020-08-10_16h20.58.244,lexical_decision_task_MP,2020.1.3,Win32,60,,z,1,0.729265,,,,,,,,0.729265,1,,,,,,337,NW,"ID",33,rejols,REJOLS,z,,,,,,-0.029947917,-0.122395833,0,0,0,,0,96,96,276,1,
,,,,,,,,,,,,,,,,,,5e6d03bffab3ff2c403cb205,2020-08-10_16h20.58.244,lexical_decision_task_MP,2020.1.3,Win32,60,,z,1,0.669895,,,,,,,,0.669895,1,,,,,,461,NW,UN,33,absult,JUSTRE,z,,,,,,-0.029947917,-0.122395833,0,0,0,,0,97,97,400,1,
,,,,,,,,,,,,,,,,,,5e6d03bffab3ff2c403cb205,2020-08-10_16h20.58.244,lexical_decision_task_MP,2020.1.3,Win32,60,,m,0,0.866615,,,,,,,,0.866615,0,,,,,,465,NW,UN,33,bafent,WHIVEX,z,,,,,,-0.029947917,-0.122395833,0,0,0,,0,98,98,404,1,
,,,,,,,,,,,,,,,,,,5e6d03bffab3ff2c403cb205,2020-08-10_16h20.58.244,lexical_decision_task_MP,2020.1.3,Win32,60,,m,1,0.636135,,,,,,,,0.636135,1,,,,,,98,WORD,"ID",33,belong,BELONG,m,,,,,,-0.029947917,-0.122395833,0,0,0,,0,99,99,37,1,
,,,,,,,,,,,,,,,,,,5e6d03bffab3ff2c403cb205,2020-08-10_16h20.58.244,lexical_decision_task_MP,2020.1.3,Win32,60,,z,1,0.519175,,,,,,,,0.519175,1,,,,,,407,NW,"ID",50,suiver,SUIVER,z,,,,,,-0.029947917,-0.122395833,0,0,0,,0,100,100,346,1,
,,,,,,,,,,,,,,,,,,5e6d03bffab3ff2c403cb205,2020-08-10_16h20.58.244,lexical_decision_task_MP,2020.1.3,Win32,60,,m,1,0.535225,,,,,,,,0.535225,1,,,,,,80,WORD,"ID",33,family,FAMILY,m,,,,,,-0.029947917,-0.122395833,0,0,0,,0,101,101,19,1,
,,,,,,,,,,,,,,,,,,5e6d03bffab3ff2c403cb205,2020-08-10_16h20.58.244,lexical_decision_task_MP,2020.1.3,Win32,60,,z,1,0.519115,,,,,,,,0.519115,1,,,,,,283,NW,UN,50,shaple,VERALF,z,,,,,,-0.029947917,-0.122395833,0,0,0,,0,102,102,462,1,
,,,,,,,,,,,,,,,,,,5e6d03bffab3ff2c403cb205,2020-08-10_16h20.58.244,lexical_decision_task_MP,2020.1.3,Win32,60,,z,1,0.612055,,,,,,,,0.612055,1,,,,,,363,NW,"ID",50,breali,BREALI,z,,,,,,-0.029947917,-0.122395833,0,0,0,,0,103,103,302,1,
,,,,,,,,,,,,,,,,,,5e6d03bffab3ff2c403cb205,2020-08-10_16h20.58.244,lexical_decision_task_MP,2020.1.3,Win32,60,,z,1,0.670085,,,,,,,,0.670085,1,,,,,,336,NW,"ID",33,ghodus,GHODUS,z,,,,,,-0.029947917,-0.122395833,0,0,0,,0,104,104,275,1,
,,,,,,,,,,,,,,,,,,5e6d03bffab3ff2c403cb205,2020-08-10_16h20.58.244,lexical_decision_task_MP,2020.1.3,Win32,60,,z,1,0.620575,,,,,,,,0.620575,1,,,,,,245,NW,UN,50,piaton,ANOUGS,z,,,,,,-0.029947917,-0.122395833,0,0,0,,0,105,105,424,1,
,,,,,,,,,,,,,,,,,,5e6d03bffab3ff2c403cb205,2020-08-10_16h20.58.244,lexical_decision_task_MP,2020.1.3,Win32,60,,m,0,0.757185,,,,,,,,0.757185,0,,,,,,467,NW,UN,33,wictor,GORBIE,z,,,,,,-0.029947917,-0.122395833,0,0,0,,0,106,106,406,1,
,,,,,,,,,,,,,,,,,,5e6d03bffab3ff2c403cb205,2020-08-10_16h20.58.244,lexical_decision_task_MP,2020.1.3,Win32,60,,z,1,0.67062,,,,,,,,0.67062,1,,,,,,395,NW,"ID",50,colury,COLURY,z,,,,,,-0.029947917,-0.122395833,0,0,0,,0,107,107,334,1,
,,,,,,,,,,,,,,,,,,5e6d03bffab3ff2c403cb205,2020-08-10_16h20.58.244,lexical_decision_task_MP,2020.1.3,Win32,60,,m,1,0.918245,,,,,,,,0.918245,1,,,,,,4,WORD,UN,50,plunge,TRENCH,m,,,,,,-0.029947917,-0.122395833,0,0,0,,0,108,108,183,1,
,,,,,,,,,,,,,,,,,,5e6d03bffab3ff2c403cb205,2020-08-10_16h20.58.244,lexical_decision_task_MP,2020.1.3,Win32,60,,z,1,0.81708,,,,,,,,0.81708,1,,,,,,345,NW,"ID",33,absend,ABSEND,z,,,,,,-0.029947917,-0.122395833,0,0,0,,0,109,109,284,1,
,,,,,,,,,,,,,,,,,,5e6d03bffab3ff2c403cb205,2020-08-10_16h20.58.244,lexical_decision_task_MP,2020.1.3,Win32,60,,z,1,0.57414,,,,,,,,0.57414,1,,,,,,360,NW,"ID",33,desory,DESORY,z,,,,,,-0.029947917,-0.122395833,0,0,0,,0,110,110,299,1,
,,,,,,,,,,,,,,,,,,5e6d03bffab3ff2c403cb205,2020-08-10_16h20.58.244,lexical_decision_task_MP,2020.1.3,Win32,60,,z,1,0.569945,,,,,,,,0.569945,1,,,,,,284,NW,UN,50,prudge,SHAPLE,z,,,,,,-0.029947917,-0.122395833,0,0,0,,0,111,111,463,1,
,,,,,,,,,,,,,,,,,,5e6d03bffab3ff2c403cb205,2020-08-10_16h20.58.244,lexical_decision_task_MP,2020.1.3,Win32,60,,z,0,0.5414,,,,,,,,0.5414,0,,,,,,107,WORD,"ID",33,slogan,SLOGAN,m,,,,,,-0.029947917,-0.122395833,0,0,0,,0,112,112,46,1,
,,,,,,,,,,,,,,,,,,5e6d03bffab3ff2c403cb205,2020-08-10_16h20.58.244,lexical_decision_task_MP,2020.1.3,Win32,60,,z,1,1.00406,,,,,,,,1.00406,1,,,,,,419,NW,"ID",50,slount,SLOUNT,z,,,,,,-0.029947917,-0.122395833,0,0,0,,0,113,113,358,1,
,,,,,,,,,,,,,,,,,,5e6d03bffab3ff2c403cb205,2020-08-10_16h20.58.244,lexical_decision_task_MP,2020.1.3,Win32,60,,m,1,0.488665,,,,,,,,0.488665,1,,,,,,64,WORD,"ID",33,throne,THRONE,m,,,,,,-0.029947917,-0.122395833,0,0,0,,0,114,114,3,1,
,,,,,,,,,,,,,,,,,,5e6d03bffab3ff2c403cb205,2020-08-10_16h20.58.244,lexical_decision_task_MP,2020.1.3,Win32,60,,z,1,0.55253,,,,,,,,0.55253,1,,,,,,300,NW,UN,50,smenco,YARION,z,,,,,,-0.029947917,-0.122395833,0,0,0,,0,115,115,479,1,
,,,,,,,,,,,,,,,,,,5e6d03bffab3ff2c403cb205,2020-08-10_16h20.58.244,lexical_decision_task_MP,2020.1.3,Win32,60,,z,1,0.52919,,,,,,,,0.52919,1,,,,,,414,NW,"ID",50,serbol,SERBOL,z,,,,,,-0.029947917,-0.122395833,0,0,0,,0,116,116,353,1,
,,,,,,,,,,,,,,,,,,5e6d03bffab3ff2c403cb205,2020-08-10_16h20.58.244,lexical_decision_task_MP,2020.1.3,Win32,60,,m,1,0.675725,,,,,,,,0.675725,1,,,,,,105,WORD,"ID",33,number,NUMBER,m,,,,,,-0.029947917,-0.122395833,0,0,0,,0,117,117,44,1,
,,,,,,,,,,,,,,,,,,5e6d03bffab3ff2c403cb205,2020-08-10_16h20.58.244,lexical_decision_task_MP,2020.1.3,Win32,60,,z,1,0.7663,,,,,,,,0.7663,1,,,,,,331,NW,"ID",33,gilfew,GILFEW,z,,,,,,-0.029947917,-0.122395833,0,0,0,,0,118,118,270,1,
,,,,,,,,,,,,,,,,,,5e6d03bffab3ff2c403cb205,2020-08-10_16h20.58.244,lexical_decision_task_MP,2020.1.3,Win32,60,,z,1,1.725295,,,,,,,,1.725295,1,,,,,,266,NW,UN,50,pasink,VARMIT,z,,,,,,-0.029947917,-0.122395833,0,0,0,,0,119,119,445,1,
,,,,,,,,,,,,,,,,,,5e6d03bffab3ff2c403cb205,2020-08-10_16h20.58.244,lexical_decision_task_MP,2020.1.3,Win32,60,,z,1,0.59329,,,,,,,,0.59329,1,,,,,,321,NW,"ID",33,miator,MIATOR,z,,,,,,0.045572917,-0.359375,1,0,0,,0,120,120,260,1,break_done_button
,,,,,,,,,,,,,,,,,,5e6d03bffab3ff2c403cb205,2020-08-10_16h20.58.244,lexical_decision_task_MP,2020.1.3,Win32,60,,m,1,1.035075,,,,,,,,1.035075,1,,,,,,92,WORD,"ID",33,strand,STRAND,m,,,,,,0.048177083,-0.368489583,0,0,0,,0,121,121,31,1,
,,,,,,,,,,,,,,,,,,5e6d03bffab3ff2c403cb205,2020-08-10_16h20.58.244,lexical_decision_task_MP,2020.1.3,Win32,60,,m,1,0.727725,,,,,,,,0.727725,1,,,,,,66,WORD,"ID",33,gospel,GOSPEL,m,,,,,,0.048177083,-0.368489583,0,0,0,,0,122,122,5,1,
,,,,,,,,,,,,,,,,,,5e6d03bffab3ff2c403cb205,2020-08-10_16h20.58.244,lexical_decision_task_MP,2020.1.3,Win32,60,,m,1,0.52466,,,,,,,,0.52466,1,,,,,,63,WORD,"ID",33,launch,LAUNCH,m,,,,,,0.048177083,-0.368489583,0,0,0,,0,123,123,2,1,
,,,,,,,,,,,,,,,,,,5e6d03bffab3ff2c403cb205,2020-08-10_16h20.58.244,lexical_decision_task_MP,2020.1.3,Win32,60,,m,1,0.483155,,,,,,,,0.483155,1,,,,,,11,WORD,UN,50,amount,CRUISE,m,,,,,,0.048177083,-0.368489583,0,0,0,,0,124,124,190,1,
,,,,,,,,,,,,,,,,,,5e6d03bffab3ff2c403cb205,2020-08-10_16h20.58.244,lexical_decision_task_MP,2020.1.3,Win32,60,,m,0,0.477405,,,,,,,,0.477405,0,,,,,,261,NW,UN,50,quilew,STUNCH,z,,,,,,0.048177083,-0.368489583,0,0,0,,0,125,125,440,1,
,,,,,,,,,,,,,,,,,,5e6d03bffab3ff2c403cb205,2020-08-10_16h20.58.244,lexical_decision_task_MP,2020.1.3,Win32,60,,z,0,0.65163,,,,,,,,0.65163,0,,,,,,240,WORD,UN,33,seldom,FOREST,m,,,,,,0.048177083,-0.368489583,0,0,0,,0,126,126,179,1,
,,,,,,,,,,,,,,,,,,5e6d03bffab3ff2c403cb205,2020-08-10_16h20.58.244,lexical_decision_task_MP,2020.1.3,Win32,60,,m,1,0.554005,,,,,,,,0.554005,1,,,,,,22,WORD,UN,50,wealth,JOCKEY,m,,,,,,0.048177083,-0.368489583,0,0,0,,0,127,127,201,1,
,,,,,,,,,,,,,,,,,,5e6d03bffab3ff2c403cb205,2020-08-10_16h20.58.244,lexical_decision_task_MP,2020.1.3,Win32,60,,m,1,0.53935,,,,,,,,0.53935,1,,,,,,191,WORD,UN,33,beacon,STABLE,m,,,,,,0.048177083,-0.368489583,0,0,0,,0,128,128,130,1,
,,,,,,,,,,,,,,,,,,5e6d03bffab3ff2c403cb205,2020-08-10_16h20.58.244,lexical_decision_task_MP,2020.1.3,Win32,60,,z,0,0.504425,,,,,,,,0.504425,0,,,,,,99,WORD,"ID",33,fluent,FLUENT,m,,,,,,0.048177083,-0.368489583,0,0,0,,0,129,129,38,1,
,,,,,,,,,,,,,,,,,,5e6d03bffab3ff2c403cb205,2020-08-10_16h20.58.244,lexical_decision_task_MP,2020.1.3,Win32,60,,m,1,0.60649,,,,,,,,0.60649,1,,,,,,204,WORD,UN,33,lounge,BURDEN,m,,,,,,0.048177083,-0.368489583,0,0,0,,0,130,130,143,1,
,,,,,,,,,,,,,,,,,,5e6d03bffab3ff2c403cb205,2020-08-10_16h20.58.244,lexical_decision_task_MP,2020.1.3,Win32,60,,m,0,0.58322,,,,,,,,0.58322,0,,,,,,387,NW,"ID",50,gronce,GRONCE,z,,,,,,0.048177083,-0.368489583,0,0,0,,0,131,131,326,1,
,,,,,,,,,,,,,,,,,,5e6d03bffab3ff2c403cb205,2020-08-10_16h20.58.244,lexical_decision_task_MP,2020.1.3,Win32,60,,m,0,0.592635,,,,,,,,0.592635,0,,,,,,348,NW,"ID",33,dumple,DUMPLE,z,,,,,,0.048177083,-0.368489583,0,0,0,,0,132,132,287,1,
,,,,,,,,,,,,,,,,,,5e6d03bffab3ff2c403cb205,2020-08-10_16h20.58.244,lexical_decision_task_MP,2020.1.3,Win32,60,,m,1,0.56601,,,,,,,,0.56601,1,,,,,,130,WORD,"ID",50,stupid,STUPID,m,,,,,,0.048177083,-0.368489583,0,0,0,,0,133,133,69,1,
,,,,,,,,,,,,,,,,,,5e6d03bffab3ff2c403cb205,2020-08-10_16h20.58.244,lexical_decision_task_MP,2020.1.3,Win32,60,,m,1,0.719085,,,,,,,,0.719085,1,,,,,,239,WORD,UN,33,forest,LUMBER,m,,,,,,0.048177083,-0.368489583,0,0,0,,0,134,134,178,1,
,,,,,,,,,,,,,,,,,,5e6d03bffab3ff2c403cb205,2020-08-10_16h20.58.244,lexical_decision_task_MP,2020.1.3,Win32,60,,z,1,0.700135,,,,,,,,0.700135,1,,,,,,434,NW,UN,33,impurb,PITROM,z,,,,,,0.048177083,-0.368489583,0,0,0,,0,135,135,373,1,
,,,,,,,,,,,,,,,,,,5e6d03bffab3ff2c403cb205,2020-08-10_16h20.58.244,lexical_decision_task_MP,2020.1.3,Win32,60,,z,1,0.63165,,,,,,,,0.63165,1,,,,,,325,NW,"ID",33,thruse,THRUSE,z,,,,,,0.048177083,-0.368489583,0,0,0,,0,136,136,264,1,
,,,,,,,,,,,,,,,,,,5e6d03bffab3ff2c403cb205,2020-08-10_16h20.58.244,lexical_decision_task_MP,2020.1.3,Win32,60,,z,1,0.76315,,,,,,,,0.76315,1,,,,,,342,NW,"ID",33,randow,RANDOW,z,,,,,,0.048177083,-0.368489583,0,0,0,,0,137,137,281,1,
,,,,,,,,,,,,,,,,,,5e6d03bffab3ff2c403cb205,2020-08-10_16h20.58.244,lexical_decision_task_MP,2020.1.3,Win32,60,,z,1,0.665155,,,,,,,,0.665155,1,,,,,,369,NW,"ID",50,wronch,WRONCH,z,,,,,,0.048177083,-0.368489583,0,0,0,,0,138,138,308,1,
,,,,,,,,,,,,,,,,,,5e6d03bffab3ff2c403cb205,2020-08-10_16h20.58.244,lexical_decision_task_MP,2020.1.3,Win32,60,,z,1,0.598695,,,,,,,,0.598695,1,,,,,,470,NW,UN,33,nobest,CRUDIO,z,,,,,,0.048177083,-0.368489583,0,0,0,,0,139,139,409,1,
,,,,,,,,,,,,,,,,,,5e6d03bffab3ff2c403cb205,2020-08-10_16h20.58.244,lexical_decision_task_MP,2020.1.3,Win32,60,,z,1,0.55125,,,,,,,,0.55125,1,,,,,,294,NW,UN,50,gleath,INHORT,z,,,,,,0.048177083,-0.368489583,0,0,0,,0,140,140,473,1,
,,,,,,,,,,,,,,,,,,5e6d03bffab3ff2c403cb205,2020-08-10_16h20.58.244,lexical_decision_task_MP,2020.1.3,Win32,60,,m,1,0.555225,,,,,,,,0.555225,1,,,,,,94,WORD,"ID",33,travel,TRAVEL,m,,,,,,0.048177083,-0.368489583,0,0,0,,0,141,141,33,1,
,,,,,,,,,,,,,,,,,,5e6d03bffab3ff2c403cb205,2020-08-10_16h20.58.244,lexical_decision_task_MP,2020.1.3,Win32,60,,m,1,0.76695,,,,,,,,0.76695,1,,,,,,168,WORD,"ID",50,answer,ANSWER,m,,,,,,0.048177083,-0.368489583,0,0,0,,0,142,142,107,1,
,,,,,,,,,,,,,,,,,,5e6d03bffab3ff2c403cb205,2020-08-10_16h20.58.244,lexical_decision_task_MP,2020.1.3,Win32,60,,z,1,0.682295,,,,,,,,0.682295,1,,,,,,316,NW,"ID",33,scregm,SCREGM,z,,,,,,0.048177083,-0.368489583,0,0,0,,0,143,143,255,1,
,,,,,,,,,,,,,,,,,,5e6d03bffab3ff2c403cb205,2020-08-10_16h20.58.244,lexical_decision_task_MP,2020.1.3,Win32,60,,m,1,0.476815,,,,,,,,0.476815,1,,,,,,96,WORD,"ID",33,ignore,IGNORE,m,,,,,,0.048177083,-0.368489583,0,0,0,,0,144,144,35,1,
,,,,,,,,,,,,,,,,,,5e6d03bffab3ff2c403cb205,2020-08-10_16h20.58.244,lexical_decision_task_MP,2020.1.3,Win32,60,,m,1,0.755415,,,,,,,,0.755415,1,,,,,,163,WORD,"ID",50,string,STRING,m,,,,,,0.048177083,-0.368489583,0,0,0,,0,145,145,102,1,
,,,,,,,,,,,,,,,,,,5e6d03bffab3ff2c403cb205,2020-08-10_16h20.58.244,lexical_decision_task_MP,2020.1.3,Win32,60,,m,1,0.438135,,,,,,,,0.438135,1,,,,,,169,WORD,"ID",50,genius,GENIUS,m,,,,,,0.048177083,-0.368489583,0,0,0,,0,146,146,108,1,
,,,,,,,,,,,,,,,,,,5e6d03bffab3ff2c403cb205,2020-08-10_16h20.58.244,lexical_decision_task_MP,2020.1.3,Win32,60,,z,1,0.564925,,,,,,,,0.564925,1,,,,,,433,NW,UN,33,pitrom,DRANCE,z,,,,,,0.048177083,-0.368489583,0,0,0,,0,147,147,372,1,
,,,,,,,,,,,,,,,,,,5e6d03bffab3ff2c403cb205,2020-08-10_16h20.58.244,lexical_decision_task_MP,2020.1.3,Win32,60,,z,0,0.751125,,,,,,,,0.751125,0,,,,,,156,WORD,"ID",50,cradle,CRADLE,m,,,,,,0.048177083,-0.368489583,0,0,0,,0,148,148,95,1,
,,,,,,,,,,,,,,,,,,5e6d03bffab3ff2c403cb205,2020-08-10_16h20.58.244,lexical_decision_task_MP,2020.1.3,Win32,60,,z,1,0.689785,,,,,,,,0.689785,1,,,,,,389,NW,"ID",50,witmer,WITMER,z,,,,,,0.048177083,-0.368489583,0,0,0,,0,149,149,328,1,
,,,,,,,,,,,,,,,,,,5e6d03bffab3ff2c403cb205,2020-08-10_16h20.58.244,lexical_decision_task_MP,2020.1.3,Win32,60,,m,1,0.503115,,,,,,,,0.503115,1,,,,,,32,WORD,UN,50,scream,BUCKLE,m,,,,,,0.048177083,-0.368489583,0,0,0,,0,150,150,211,1,
,,,,,,,,,,,,,,,,,,5e6d03bffab3ff2c403cb205,2020-08-10_16h20.58.244,lexical_decision_task_MP,2020.1.3,Win32,60,,z,1,0.660325,,,,,,,,0.660325,1,,,,,,427,NW,UN,33,tandly,SCHIND,z,,,,,,0.048177083,-0.368489583,0,0,0,,0,151,151,366,1,
,,,,,,,,,,,,,,,,,,5e6d03bffab3ff2c403cb205,2020-08-10_16h20.58.244,lexical_decision_task_MP,2020.1.3,Win32,60,,z,0,0.634295,,,,,,,,0.634295,0,,,,,,164,WORD,"ID",50,market,MARKET,m,,,,,,0.048177083,-0.368489583,0,0,0,,0,152,152,103,1,
,,,,,,,,,,,,,,,,,,5e6d03bffab3ff2c403cb205,2020-08-10_16h20.58.244,lexical_decision_task_MP,2020.1.3,Win32,60,,m,1,0.50066,,,,,,,,0.50066,1,,,,,,233,WORD,UN,33,clumsy,NATURE,m,,,,,,0.048177083,-0.368489583,0,0,0,,0,153,153,172,1,
,,,,,,,,,,,,,,,,,,5e6d03bffab3ff2c403cb205,2020-08-10_16h20.58.244,lexical_decision_task_MP,2020.1.3,Win32,60,,m,1,0.439525,,,,,,,,0.439525,1,,,,,,185,WORD,UN,33,portal,BOTHER,m,,,,,,0.048177083,-0.368489583,0,0,0,,0,154,154,124,1,
,,,,,,,,,,,,,,,,,,5e6d03bffab3ff2c403cb205,2020-08-10_16h20.58.244,lexical_decision_task_MP,2020.1.3,Win32,60,,m,1,0.407425,,,,,,,,0.407425,1,,,,,,88,WORD,"ID",33,hunger,HUNGER,m,,,,,,0.048177083,-0.368489583,0,0,0,,0,155,155,27,1,
,,,,,,,,,,,,,,,,,,5e6d03bffab3ff2c403cb205,2020-08-10_16h20.58.244,lexical_decision_task_MP,2020.1.3,Win32,60,,m,0,0.331975,,,,,,,,0.331975,0,,,,,,344,NW,"ID",33,scrily,SCRILY,z,,,,,,0.048177083,-0.368489583,0,0,0,,0,156,156,283,1,
,,,,,,,,,,,,,,,,,,5e6d03bffab3ff2c403cb205,2020-08-10_16h20.58.244,lexical_decision_task_MP,2020.1.3,Win32,60,,z,1,0.7239,,,,,,,,0.7239,1,,,,,,319,NW,"ID",33,zomber,ZOMBER,z,,,,,,0.048177083,-0.368489583,0,0,0,,0,157,157,258,1,
,,,,,,,,,,,,,,,,,,5e6d03bffab3ff2c403cb205,2020-08-10_16h20.58.244,lexical_decision_task_MP,2020.1.3,Win32,60,,m,1,0.519815,,,,,,,,0.519815,1,,,,,,44,WORD,UN,50,clergy,DANGER,m,,,,,,0.048177083,-0.368489583,0,0,0,,0,158,158,223,1,
,,,,,,,,,,,,,,,,,,5e6d03bffab3ff2c403cb205,2020-08-10_16h20.58.244,lexical_decision_task_MP,2020.1.3,Win32,60,,m,1,0.491665,,,,,,,,0.491665,1,,,,,,129,WORD,"ID",50,marvel,MARVEL,m,,,,,,0.048177083,-0.368489583,0,0,0,,0,159,159,68,1,
,,,,,,,,,,,,,,,,,,5e6d03bffab3ff2c403cb205,2020-08-10_16h20.58.244,lexical_decision_task_MP,2020.1.3,Win32,60,,z,1,0.59944,,,,,,,,0.59944,1,,,,,,305,NW,"ID",33,forgle,FORGLE,z,,,,,,0.048177083,-0.368489583,0,0,0,,0,160,160,244,1,
,,,,,,,,,,,,,,,,,,5e6d03bffab3ff2c403cb205,2020-08-10_16h20.58.244,lexical_decision_task_MP,2020.1.3,Win32,60,,m,1,0.95561,,,,,,,,0.95561,1,,,,,,74,WORD,"ID",33,plaque,PLAQUE,m,,,,,,0.048177083,-0.368489583,0,0,0,,0,161,161,13,1,
,,,,,,,,,,,,,,,,,,5e6d03bffab3ff2c403cb205,2020-08-10_16h20.58.244,lexical_decision_task_MP,2020.1.3,Win32,60,,m,1,0.431165,,,,,,,,0.431165,1,,,,,,128,WORD,"ID",50,senior,SENIOR,m,,,,,,0.048177083,-0.368489583,0,0,0,,0,162,162,67,1,
,,,,,,,,,,,,,,,,,,5e6d03bffab3ff2c403cb205,2020-08-10_16h20.58.244,lexical_decision_task_MP,2020.1.3,Win32,60,,m,1,0.487805,,,,,,,,0.487805,1,,,,,,65,WORD,"ID",33,symbol,SYMBOL,m,,,,,,0.048177083,-0.368489583,0,0,0,,0,163,163,4,1,
,,,,,,,,,,,,,,,,,,5e6d03bffab3ff2c403cb205,2020-08-10_16h20.58.244,lexical_decision_task_MP,2020.1.3,Win32,60,,m,1,0.393865,,,,,,,,0.393865,1,,,,,,115,WORD,"ID",33,guitar,GUITAR,m,,,,,,0.048177083,-0.368489583,0,0,0,,0,164,164,54,1,
,,,,,,,,,,,,,,,,,,5e6d03bffab3ff2c403cb205,2020-08-10_16h20.58.244,lexical_decision_task_MP,2020.1.3,Win32,60,,m,1,0.63092,,,,,,,,0.63092,1,,,,,,220,WORD,UN,33,mascot,VOYAGE,m,,,,,,0.048177083,-0.368489583,0,0,0,,0,165,165,159,1,
,,,,,,,,,,,,,,,,,,5e6d03bffab3ff2c403cb205,2020-08-10_16h20.58.244,lexical_decision_task_MP,2020.1.3,Win32,60,,z,1,0.61648,,,,,,,,0.61648,1,,,,,,439,NW,UN,33,saride,LIMPOR,z,,,,,,0.048177083,-0.368489583,0,0,0,,0,166,166,378,1,
,,,,,,,,,,,,,,,,,,5e6d03bffab3ff2c403cb205,2020-08-10_16h20.58.244,lexical_decision_task_MP,2020.1.3,Win32,60,,z,0,0.599965,,,,,,,,0.599965,0,,,,,,142,WORD,"ID",50,spruce,SPRUCE,m,,,,,,0.048177083,-0.368489583,0,0,0,,0,167,167,81,1,
,,,,,,,,,,,,,,,,,,5e6d03bffab3ff2c403cb205,2020-08-10_16h20.58.244,lexical_decision_task_MP,2020.1.3,Win32,60,,m,0,0.834115,,,,,,,,0.834115,0,,,,,,243,NW,UN,50,eatric,MUSIED,z,,,,,,0.048177083,-0.368489583,0,0,0,,0,168,168,422,1,
,,,,,,,,,,,,,,,,,,5e6d03bffab3ff2c403cb205,2020-08-10_16h20.58.244,lexical_decision_task_MP,2020.1.3,Win32,60,,m,1,0.44325,,,,,,,,0.44325,1,,,,,,196,WORD,UN,33,stream,CREDIT,m,,,,,,0.048177083,-0.368489583,0,0,0,,0,169,169,135,1,
,,,,,,,,,,,,,,,,,,5e6d03bffab3ff2c403cb205,2020-08-10_16h20.58.244,lexical_decision_task_MP,2020.1.3,Win32,60,,z,1,0.583345,,,,,,,,0.583345,1,,,,,,405,NW,"ID",50,flumni,FLUMNI,z,,,,,,0.048177083,-0.368489583,0,0,0,,0,170,170,344,1,
,,,,,,,,,,,,,,,,,,5e6d03bffab3ff2c403cb205,2020-08-10_16h20.58.244,lexical_decision_task_MP,2020.1.3,Win32,60,,z,1,0.62116,,,,,,,,0.62116,1,,,,,,436,NW,UN,33,snapel,FRUTAN,z,,,,,,0.048177083,-0.368489583,0,0,0,,0,171,171,375,1,
,,,,,,,,,,,,,,,,,,5e6d03bffab3ff2c403cb205,2020-08-10_16h20.58.244,lexical_decision_task_MP,2020.1.3,Win32,60,,m,1,0.41303,,,,,,,,0.41303,1,,,,,,173,WORD,"ID",50,shower,SHOWER,m,,,,,,0.048177083,-0.368489583,0,0,0,,0,172,172,112,1,
,,,,,,,,,,,,,,,,,,5e6d03bffab3ff2c403cb205,2020-08-10_16h20.58.244,lexical_decision_task_MP,2020.1.3,Win32,60,,z,1,0.868385,,,,,,,,0.868385,1,,,,,,335,NW,"ID",33,desion,DESION,z,,,,,,0.048177083,-0.368489583,0,0,0,,0,173,173,274,1,
,,,,,,,,,,,,,,,,,,5e6d03bffab3ff2c403cb205,2020-08-10_16h20.58.244,lexical_decision_task_MP,2020.1.3,Win32,60,,m,1,0.585735,,,,,,,,0.585735,1,,,,,,9,WORD,UN,50,bridge,HUSTLE,m,,,,,,0.048177083,-0.368489583,0,0,0,,0,174,174,188,1,
,,,,,,,,,,,,,,,,,,5e6d03bffab3ff2c403cb205,2020-08-10_16h20.58.244,lexical_decision_task_MP,2020.1.3,Win32,60,,m,1,0.63772,,,,,,,,0.63772,1,,,,,,199,WORD,UN,33,plague,INVOKE,m,,,,,,0.048177083,-0.368489583,0,0,0,,0,175,175,138,1,
,,,,,,,,,,,,,,,,,,5e6d03bffab3ff2c403cb205,2020-08-10_16h20.58.244,lexical_decision_task_MP,2020.1.3,Win32,60,,m,1,0.47654,,,,,,,,0.47654,1,,,,,,197,WORD,UN,33,wicked,STREAM,m,,,,,,0.048177083,-0.368489583,0,0,0,,0,176,176,136,1,
,,,,,,,,,,,,,,,,,,5e6d03bffab3ff2c403cb205,2020-08-10_16h20.58.244,lexical_decision_task_MP,2020.1.3,Win32,60,,z,1,0.583285,,,,,,,,0.583285,1,,,,,,264,NW,UN,50,distar,VACKEL,z,,,,,,0.048177083,-0.368489583,0,0,0,,0,177,177,443,1,
,,,,,,,,,,,,,,,,,,5e6d03bffab3ff2c403cb205,2020-08-10_16h20.58.244,lexical_decision_task_MP,2020.1.3,Win32,60,,z,1,0.582895,,,,,,,,0.582895,1,,,,,,435,NW,UN,33,frutan,IMPURB,z,,,,,,0.048177083,-0.368489583,0,0,0,,0,178,178,374,1,
,,,,,,,,,,,,,,,,,,5e6d03bffab3ff2c403cb205,2020-08-10_16h20.58.244,lexical_decision_task_MP,2020.1.3,Win32,60,,z,1,0.634085,,,,,,,,0.634085,1,,,,,,472,NW,UN,33,gorbie,CIGNEY,z,,,,,,0.048177083,-0.368489583,0,0,0,,0,179,179,411,1,
,,,,,,,,,,,,,,,,,,5e6d03bffab3ff2c403cb205,2020-08-10_16h20.58.244,lexical_decision_task_MP,2020.1.3,Win32,60,,z,1,0.804075,,,,,,,,0.804075,1,,,,,,460,NW,UN,33,justre,MINGAR,z,,,,,,0.048177083,-0.368489583,0,0,0,,0,180,180,399,1,
,,,,,,,,,,,,,,,,,,5e6d03bffab3ff2c403cb205,2020-08-10_16h20.58.244,lexical_decision_task_MP,2020.1.3,Win32,60,,z,1,0.559455,,,,,,,,0.559455,1,,,,,,401,NW,"ID",50,mustil,MUSTIL,z,,,,,,0.048177083,-0.368489583,0,0,0,,0,181,181,340,1,
,,,,,,,,,,,,,,,,,,5e6d03bffab3ff2c403cb205,2020-08-10_16h20.58.244,lexical_decision_task_MP,2020.1.3,Win32,60,,m,1,0.668325,,,,,,,,0.668325,1,,,,,,100,WORD,"ID",33,carbon,CARBON,m,,,,,,0.048177083,-0.368489583,0,0,0,,0,182,182,39,1,
,,,,,,,,,,,,,,,,,,5e6d03bffab3ff2c403cb205,2020-08-10_16h20.58.244,lexical_decision_task_MP,2020.1.3,Win32,60,,z,1,0.622485,,,,,,,,0.622485,1,,,,,,279,NW,UN,50,curbol,CELOND,z,,,,,,0.048177083,-0.368489583,0,0,0,,0,183,183,458,1,
,,,,,,,,,,,,,,,,,,5e6d03bffab3ff2c403cb205,2020-08-10_16h20.58.244,lexical_decision_task_MP,2020.1.3,Win32,60,,z,1,0.518875,,,,,,,,0.518875,1,,,,,,393,NW,"ID",50,ganous,GANOUS,z,,,,,,0.048177083,-0.368489583,0,0,0,,0,184,184,332,1,
,,,,,,,,,,,,,,,,,,5e6d03bffab3ff2c403cb205,2020-08-10_16h20.58.244,lexical_decision_task_MP,2020.1.3,Win32,60,,m,1,0.45164,,,,,,,,0.45164,1,,,,,,18,WORD,UN,50,patron,HUMBLE,m,,,,,,0.048177083,-0.368489583,0,0,0,,0,185,185,197,1,
,,,,,,,,,,,,,,,,,,5e6d03bffab3ff2c403cb205,2020-08-10_16h20.58.244,lexical_decision_task_MP,2020.1.3,Win32,60,,m,1,0.59331,,,,,,,,0.59331,1,,,,,,7,WORD,UN,50,abrupt,ANCHOR,m,,,,,,0.048177083,-0.368489583,0,0,0,,0,186,186,186,1,
,,,,,,,,,,,,,,,,,,5e6d03bffab3ff2c403cb205,2020-08-10_16h20.58.244,lexical_decision_task_MP,2020.1.3,Win32,60,,z,1,0.53122,,,,,,,,0.53122,1,,,,,,479,NW,UN,33,crible,LOBUSH,z,,,,,,0.048177083,-0.368489583,0,0,0,,0,187,187,418,1,
,,,,,,,,,,,,,,,,,,5e6d03bffab3ff2c403cb205,2020-08-10_16h20.58.244,lexical_decision_task_MP,2020.1.3,Win32,60,,z,1,0.649765,,,,,,,,0.649765,1,,,,,,469,NW,UN,33,crudio,PADIFS,z,,,,,,0.048177083,-0.368489583,0,0,0,,0,188,188,408,1,
,,,,,,,,,,,,,,,,,,5e6d03bffab3ff2c403cb205,2020-08-10_16h20.58.244,lexical_decision_task_MP,2020.1.3,Win32,60,,z,1,0.734535,,,,,,,,0.734535,1,,,,,,403,NW,"ID",50,bruats,BRUATS,z,,,,,,0.048177083,-0.368489583,0,0,0,,0,189,189,342,1,
,,,,,,,,,,,,,,,,,,5e6d03bffab3ff2c403cb205,2020-08-10_16h20.58.244,lexical_decision_task_MP,2020.1.3,Win32,60,,z,1,0.51588,,,,,,,,0.51588,1,,,,,,408,NW,"ID",50,hurnia,HURNIA,z,,,,,,0.048177083,-0.368489583,0,0,0,,0,190,190,347,1,
,,,,,,,,,,,,,,,,,,5e6d03bffab3ff2c403cb205,2020-08-10_16h20.58.244,lexical_decision_task_MP,2020.1.3,Win32,60,,z,1,0.60528,,,,,,,,0.60528,1,,,,,,297,NW,UN,50,piergy,FERTIC,z,,,,,,0.048177083,-0.368489583,0,0,0,,0,191,191,476,1,
,,,,,,,,,,,,,,,,,,5e6d03bffab3ff2c403cb205,2020-08-10_16h20.58.244,lexical_decision_task_MP,2020.1.3,Win32,60,,m,1,0.51045,,,,,,,,0.51045,1,,,,,,104,WORD,"ID",33,studio,STUDIO,m,,,,,,0.048177083,-0.368489583,0,0,0,,0,192,192,43,1,
,,,,,,,,,,,,,,,,,,5e6d03bffab3ff2c403cb205,2020-08-10_16h20.58.244,lexical_decision_task_MP,2020.1.3,Win32,60,,m,1,0.458665,,,,,,,,0.458665,1,,,,,,79,WORD,"ID",33,theory,THEORY,m,,,,,,0.048177083,-0.368489583,0,0,0,,0,193,193,18,1,
,,,,,,,,,,,,,,,,,,5e6d03bffab3ff2c403cb205,2020-08-10_16h20.58.244,lexical_decision_task_MP,2020.1.3,Win32,60,,m,1,0.41106,,,,,,,,0.41106,1,,,,,,157,WORD,"ID",50,dragon,DRAGON,m,,,,,,0.048177083,-0.368489583,0,0,0,,0,194,194,96,1,
,,,,,,,,,,,,,,,,,,5e6d03bffab3ff2c403cb205,2020-08-10_16h20.58.244,lexical_decision_task_MP,2020.1.3,Win32,60,,m,1,0.521055,,,,,,,,0.521055,1,,,,,,50,WORD,UN,50,hungry,SNATCH,m,,,,,,0.048177083,-0.368489583,0,0,0,,0,195,195,229,1,
,,,,,,,,,,,,,,,,,,5e6d03bffab3ff2c403cb205,2020-08-10_16h20.58.244,lexical_decision_task_MP,2020.1.3,Win32,60,,z,1,0.57106,,,,,,,,0.57106,1,,,,,,367,NW,"ID",50,slique,SLIQUE,z,,,,,,0.048177083,-0.368489583,0,0,0,,0,196,196,306,1,
,,,,,,,,,,,,,,,,,,5e6d03bffab3ff2c403cb205,2020-08-10_16h20.58.244,lexical_decision_task_MP,2020.1.3,Win32,60,,z,1,0.52588,,,,,,,,0.52588,1,,,,,,391,NW,"ID",50,theldy,THELDY,z,,,,,,0.048177083,-0.368489583,0,0,0,,0,197,197,330,1,
,,,,,,,,,,,,,,,,,,5e6d03bffab3ff2c403cb205,2020-08-10_16h20.58.244,lexical_decision_task_MP,2020.1.3,Win32,60,,z,1,0.50009,,,,,,,,0.50009,1,,,,,,464,NW,UN,33,whivex,CHAITE,z,,,,,,0.048177083,-0.368489583,0,0,0,,0,198,198,403,1,
,,,,,,,,,,,,,,,,,,5e6d03bffab3ff2c403cb205,2020-08-10_16h20.58.244,lexical_decision_task_MP,2020.1.3,Win32,60,,z,1,0.48673,,,,,,,,0.48673,1,,,,,,312,NW,"ID",33,nerawl,NERAWL,z,,,,,,0.048177083,-0.368489583,0,0,0,,0,199,199,251,1,
,,,,,,,,,,,,,,,,,,5e6d03bffab3ff2c403cb205,2020-08-10_16h20.58.244,lexical_decision_task_MP,2020.1.3,Win32,60,,m,1,0.53382,,,,,,,,0.53382,1,,,,,,143,WORD,"ID",50,reason,REASON,m,,,,,,0.048177083,-0.368489583,0,0,0,,0,200,200,82,1,
,,,,,,,,,,,,,,,,,,5e6d03bffab3ff2c403cb205,2020-08-10_16h20.58.244,lexical_decision_task_MP,2020.1.3,Win32,60,,z,1,0.58576,,,,,,,,0.58576,1,,,,,,429,NW,UN,33,caroey,FUNTLE,z,,,,,,0.048177083,-0.368489583,0,0,0,,0,201,201,368,1,
,,,,,,,,,,,,,,,,,,5e6d03bffab3ff2c403cb205,2020-08-10_16h20.58.244,lexical_decision_task_MP,2020.1.3,Win32,60,,z,1,0.56473,,,,,,,,0.56473,1,,,,,,444,NW,UN,33,minkel,JAUNCE,z,,,,,,0.048177083,-0.368489583,0,0,0,,0,202,202,383,1,
,,,,,,,,,,,,,,,,,,5e6d03bffab3ff2c403cb205,2020-08-10_16h20.58.244,lexical_decision_task_MP,2020.1.3,Win32,60,,z,1,0.49952,,,,,,,,0.49952,1,,,,,,320,NW,"ID",33,jockal,JOCKAL,z,,,,,,0.048177083,-0.368489583,0,0,0,,0,203,203,259,1,
,,,,,,,,,,,,,,,,,,5e6d03bffab3ff2c403cb205,2020-08-10_16h20.58.244,lexical_decision_task_MP,2020.1.3,Win32,60,,z,1,0.516395,,,,,,,,0.516395,1,,,,,,247,NW,UN,50,strole,BLARGE,z,,,,,,0.048177083,-0.368489583,0,0,0,,0,204,204,426,1,
,,,,,,,,,,,,,,,,,,5e6d03bffab3ff2c403cb205,2020-08-10_16h20.58.244,lexical_decision_task_MP,2020.1.3,Win32,60,,z,1,0.499465,,,,,,,,0.499465,1,,,,,,278,NW,UN,50,celond,UNIGHS,z,,,,,,0.048177083,-0.368489583,0,0,0,,0,205,205,457,1,
,,,,,,,,,,,,,,,,,,5e6d03bffab3ff2c403cb205,2020-08-10_16h20.58.244,lexical_decision_task_MP,2020.1.3,Win32,60,,z,0,0.369595,,,,,,,,0.369595,0,,,,,,43,WORD,UN,50,foster,TONGUE,m,,,,,,0.048177083,-0.368489583,0,0,0,,0,206,206,222,1,
,,,,,,,,,,,,,,,,,,5e6d03bffab3ff2c403cb205,2020-08-10_16h20.58.244,lexical_decision_task_MP,2020.1.3,Win32,60,,z,1,0.676105,,,,,,,,0.676105,1,,,,,,276,NW,UN,50,petain,YARMON,z,,,,,,0.048177083,-0.368489583,0,0,0,,0,207,207,455,1,
,,,,,,,,,,,,,,,,,,5e6d03bffab3ff2c403cb205,2020-08-10_16h20.58.244,lexical_decision_task_MP,2020.1.3,Win32,60,,z,1,0.65788,,,,,,,,0.65788,1,,,,,,376,NW,"ID",50,iguare,IGUARE,z,,,,,,0.048177083,-0.368489583,0,0,0,,0,208,208,315,1,
,,,,,,,,,,,,,,,,,,5e6d03bffab3ff2c403cb205,2020-08-10_16h20.58.244,lexical_decision_task_MP,2020.1.3,Win32,60,,z,1,0.44989,,,,,,,,0.44989,1,,,,,,265,NW,UN,50,varmit,DISTAR,z,,,,,,0.048177083,-0.368489583,0,0,0,,0,209,209,444,1,
,,,,,,,,,,,,,,,,,,5e6d03bffab3ff2c403cb205,2020-08-10_16h20.58.244,lexical_decision_task_MP,2020.1.3,Win32,60,,z,0,0.4873,,,,,,,,0.4873,0,,,,,,60,WORD,UN,50,fright,PENCIL,m,,,,,,0.048177083,-0.368489583,0,0,0,,0,210,210,239,1,
,,,,,,,,,,,,,,,,,,5e6d03bffab3ff2c403cb205,2020-08-10_16h20.58.244,lexical_decision_task_MP,2020.1.3,Win32,60,,m,0,0.356845,,,,,,,,0.356845,0,,,,,,334,NW,"ID",33,watmeg,WATMEG,z,,,,,,0.048177083,-0.368489583,0,0,0,,0,211,211,273,1,
,,,,,,,,,,,,,,,,,,5e6d03bffab3ff2c403cb205,2020-08-10_16h20.58.244,lexical_decision_task_MP,2020.1.3,Win32,60,,m,1,0.42321,,,,,,,,0.42321,1,,,,,,225,WORD,UN,33,casino,VULGAR,m,,,,,,0.048177083,-0.368489583,0,0,0,,0,212,212,164,1,
,,,,,,,,,,,,,,,,,,5e6d03bffab3ff2c403cb205,2020-08-10_16h20.58.244,lexical_decision_task_MP,2020.1.3,Win32,60,,m,0,0.39082,,,,,,,,0.39082,0,,,,,,398,NW,"ID",50,blunde,BLUNDE,z,,,,,,0.048177083,-0.368489583,0,0,0,,0,213,213,337,1,
,,,,,,,,,,,,,,,,,,5e6d03bffab3ff2c403cb205,2020-08-10_16h20.58.244,lexical_decision_task_MP,2020.1.3,Win32,60,,z,0,0.56943,,,,,,,,0.56943,0,,,,,,111,WORD,"ID",33,induce,INDUCE,m,,,,,,0.048177083,-0.368489583,0,0,0,,0,214,214,50,1,
,,,,,,,,,,,,,,,,,,5e6d03bffab3ff2c403cb205,2020-08-10_16h20.58.244,lexical_decision_task_MP,2020.1.3,Win32,60,,z,0,0.520865,,,,,,,,0.520865,0,,,,,,167,WORD,"ID",50,design,DESIGN,m,,,,,,0.048177083,-0.368489583,0,0,0,,0,215,215,106,1,
,,,,,,,,,,,,,,,,,,5e6d03bffab3ff2c403cb205,2020-08-10_16h20.58.244,lexical_decision_task_MP,2020.1.3,Win32,60,,m,1,0.44982,,,,,,,,0.44982,1,,,,,,237,WORD,UN,33,glance,POSTER,m,,,,,,0.048177083,-0.368489583,0,0,0,,0,216,216,176,1,
,,,,,,,,,,,,,,,,,,5e6d03bffab3ff2c403cb205,2020-08-10_16h20.58.244,lexical_decision_task_MP,2020.1.3,Win32,60,,m,1,0.434265,,,,,,,,0.434265,1,,,,,,238,WORD,UN,33,behalf,FLOWER,m,,,,,,0.048177083,-0.368489583,0,0,0,,0,217,217,177,1,
,,,,,,,,,,,,,,,,,,5e6d03bffab3ff2c403cb205,2020-08-10_16h20.58.244,lexical_decision_task_MP,2020.1.3,Win32,60,,z,0,0.47982,,,,,,,,0.47982,0,,,,,,42,WORD,UN,50,tongue,CHAPEL,m,,,,,,0.048177083,-0.368489583,0,0,0,,0,218,218,221,1,
,,,,,,,,,,,,,,,,,,5e6d03bffab3ff2c403cb205,2020-08-10_16h20.58.244,lexical_decision_task_MP,2020.1.3,Win32,60,,m,1,0.40532,,,,,,,,0.40532,1,,,,,,181,WORD,UN,33,winter,GLANCE,m,,,,,,0.048177083,-0.368489583,0,0,0,,0,219,219,120,1,
,,,,,,,,,,,,,,,,,,5e6d03bffab3ff2c403cb205,2020-08-10_16h20.58.244,lexical_decision_task_MP,2020.1.3,Win32,60,,m,0,0.359485,,,,,,,,0.359485,0,,,,,,351,NW,"ID",33,tiesch,TIESCH,z,,,,,,0.048177083,-0.368489583,0,0,0,,0,220,220,290,1,
,,,,,,,,,,,,,,,,,,5e6d03bffab3ff2c403cb205,2020-08-10_16h20.58.244,lexical_decision_task_MP,2020.1.3,Win32,60,,z,1,0.451115,,,,,,,,0.451115,1,,,,,,256,NW,UN,50,veniod,INLORS,z,,,,,,0.048177083,-0.368489583,0,0,0,,0,221,221,435,1,
,,,,,,,,,,,,,,,,,,5e6d03bffab3ff2c403cb205,2020-08-10_16h20.58.244,lexical_decision_task_MP,2020.1.3,Win32,60,,m,1,0.457545,,,,,,,,0.457545,1,,,,,,221,WORD,UN,33,hinder,MASCOT,m,,,,,,0.048177083,-0.368489583,0,0,0,,0,222,222,160,1,
,,,,,,,,,,,,,,,,,,5e6d03bffab3ff2c403cb205,2020-08-10_16h20.58.244,lexical_decision_task_MP,2020.1.3,Win32,60,,z,1,0.735365,,,,,,,,0.735365,1,,,,,,396,NW,"ID",50,flengy,FLENGY,z,,,,,,0.048177083,-0.368489583,0,0,0,,0,223,223,335,1,
,,,,,,,,,,,,,,,,,,5e6d03bffab3ff2c403cb205,2020-08-10_16h20.58.244,lexical_decision_task_MP,2020.1.3,Win32,60,,m,1,0.626825,,,,,,,,0.626825,1,,,,,,8,WORD,UN,50,hustle,ABRUPT,m,,,,,,0.048177083,-0.368489583,0,0,0,,0,224,224,187,1,
,,,,,,,,,,,,,,,,,,5e6d03bffab3ff2c403cb205,2020-08-10_16h20.58.244,lexical_decision_task_MP,2020.1.3,Win32,60,,z,1,0.521685,,,,,,,,0.521685,1,,,,,,448,NW,UN,33,brunge,SADENT,z,,,,,,0.048177083,-0.368489583,0,0,0,,0,225,225,387,1,
,,,,,,,,,,,,,,,,,,5e6d03bffab3ff2c403cb205,2020-08-10_16h20.58.244,lexical_decision_task_MP,2020.1.3,Win32,60,,z,1,0.509375,,,,,,,,0.509375,1,,,,,,263,NW,UN,50,vackel,DOLICA,z,,,,,,0.048177083,-0.368489583,0,0,0,,0,226,226,442,1,
,,,,,,,,,,,,,,,,,,5e6d03bffab3ff2c403cb205,2020-08-10_16h20.58.244,lexical_decision_task_MP,2020.1.3,Win32,60,,z,0,0.450585,,,,,,,,0.450585,0,,,,,,82,WORD,"ID",33,stigma,STIGMA,m,,,,,,0.048177083,-0.368489583,0,0,0,,0,227,227,21,1,
,,,,,,,,,,,,,,,,,,5e6d03bffab3ff2c403cb205,2020-08-10_16h20.58.244,lexical_decision_task_MP,2020.1.3,Win32,60,,m,1,0.498585,,,,,,,,0.498585,1,,,,,,59,WORD,UN,50,pencil,SPLINT,m,,,,,,0.048177083,-0.368489583,0,0,0,,0,228,228,238,1,
,,,,,,,,,,,,,,,,,,5e6d03bffab3ff2c403cb205,2020-08-10_16h20.58.244,lexical_decision_task_MP,2020.1.3,Win32,60,,m,1,0.79114,,,,,,,,0.79114,1,,,,,,230,WORD,UN,33,mother,FRINGE,m,,,,,,0.048177083,-0.368489583,0,0,0,,0,229,229,169,1,
,,,,,,,,,,,,,,,,,,5e6d03bffab3ff2c403cb205,2020-08-10_16h20.58.244,lexical_decision_task_MP,2020.1.3,Win32,60,,m,1,0.488,,,,,,,,0.488,1,,,,,,144,WORD,"ID",50,sponge,SPONGE,m,,,,,,0.048177083,-0.368489583,0,0,0,,0,230,230,83,1,
,,,,,,,,,,,,,,,,,,5e6d03bffab3ff2c403cb205,2020-08-10_16h20.58.244,lexical_decision_task_MP,2020.1.3,Win32,60,,m,0,0.670135,,,,,,,,0.670135,0,,,,,,270,NW,UN,50,aubrid,WRIMSY,z,,,,,,0.048177083,-0.368489583,0,0,0,,0,231,231,449,1,
,,,,,,,,,,,,,,,,,,5e6d03bffab3ff2c403cb205,2020-08-10_16h20.58.244,lexical_decision_task_MP,2020.1.3,Win32,60,,z,1,0.166015,,,,,,,,0.166015,1,,,,,,400,NW,"ID",50,wearox,WEAROX,z,,,,,,0.048177083,-0.368489583,0,0,0,,0,232,232,339,1,
,,,,,,,,,,,,,,,,,,5e6d03bffab3ff2c403cb205,2020-08-10_16h20.58.244,lexical_decision_task_MP,2020.1.3,Win32,60,,z,1,0.469795,,,,,,,,0.469795,1,,,,,,366,NW,"ID",50,toshel,TOSHEL,z,,,,,,0.048177083,-0.368489583,0,0,0,,0,233,233,305,1,
,,,,,,,,,,,,,,,,,,5e6d03bffab3ff2c403cb205,2020-08-10_16h20.58.244,lexical_decision_task_MP,2020.1.3,Win32,60,,z,1,0.532995,,,,,,,,0.532995,1,,,,,,311,NW,"ID",33,sproly,SPROLY,z,,,,,,0.048177083,-0.368489583,0,0,0,,0,234,234,250,1,
,,,,,,,,,,,,,,,,,,5e6d03bffab3ff2c403cb205,2020-08-10_16h20.58.244,lexical_decision_task_MP,2020.1.3,Win32,60,,z,0,0.649595,,,,,,,,0.649595,0,,,,,,39,WORD,UN,50,convey,INSECT,m,,,,,,0.048177083,-0.368489583,0,0,0,,0,235,235,218,1,
,,,,,,,,,,,,,,,,,,5e6d03bffab3ff2c403cb205,2020-08-10_16h20.58.244,lexical_decision_task_MP,2020.1.3,Win32,60,,z,1,0.47055,,,,,,,,0.47055,1,,,,,,307,NW,"ID",33,kirafe,KIRAFE,z,,,,,,0.048177083,-0.368489583,0,0,0,,0,236,236,246,1,
,,,,,,,,,,,,,,,,,,5e6d03bffab3ff2c403cb205,2020-08-10_16h20.58.244,lexical_decision_task_MP,2020.1.3,Win32,60,,z,0,0.98287,,,,,,,,0.98287,0,,,,,,206,WORD,UN,33,wreath,TAILOR,m,,,,,,0.048177083,-0.368489583,0,0,0,,0,237,237,145,1,
,,,,,,,,,,,,,,,,,,5e6d03bffab3ff2c403cb205,2020-08-10_16h20.58.244,lexical_decision_task_MP,2020.1.3,Win32,60,,m,0,0.734875,,,,,,,,0.734875,0,,,,,,455,NW,UN,33,broget,TONDLE,z,,,,,,0.048177083,-0.368489583,0,0,0,,0,238,238,394,1,
,,,,,,,,,,,,,,,,,,5e6d03bffab3ff2c403cb205,2020-08-10_16h20.58.244,lexical_decision_task_MP,2020.1.3,Win32,60,,m,1,0.675655,,,,,,,,0.675655,1,,,,,,214,WORD,UN,33,phobia,INTAKE,m,,,,,,0.048177083,-0.368489583,0,0,0,,0,239,239,153,1,
,,,,,,,,,,,,,,,,,,5e6d03bffab3ff2c403cb205,2020-08-10_16h20.58.244,lexical_decision_task_MP,2020.1.3,Win32,60,,z,1,0.808,,,,,,,,0.808,1,,,,,,394,NW,"ID",50,spaqux,SPAQUX,z,,,,,,0.048177083,-0.368489583,0,0,0,,0,240,240,333,1,
,,,,,,,,,,,,,,,,,,5e6d03bffab3ff2c403cb205,2020-08-10_16h20.58.244,lexical_decision_task_MP,2020.1.3,Win32,60,,z,0,0.67114,,,,,,,,0.67114,0,,,,,,25,WORD,UN,50,sprint,DOMAIN,m,,,,,,0.028645833,-0.41796875,1,0,0,,0,241,241,204,1,break_done_button
,,,,,,,,,,,,,,,,,,5e6d03bffab3ff2c403cb205,2020-08-10_16h20.58.244,lexical_decision_task_MP,2020.1.3,Win32,60,,m,1,0.98664,,,,,,,,0.98664,1,,,,,,139,WORD,"ID",50,debris,DEBRIS,m,,,,,,0.013020833,-0.256510417,0,0,0,,0,242,242,78,1,
,,,,,,,,,,,,,,,,,,5e6d03bffab3ff2c403cb205,2020-08-10_16h20.58.244,lexical_decision_task_MP,2020.1.3,Win32,60,,m,1,0.35792,,,,,,,,0.35792,1,,,,,,174,WORD,"ID",50,turkey,TURKEY,m,,,,,,0.013020833,-0.256510417,0,0,0,,0,243,243,113,1,
,,,,,,,,,,,,,,,,,,5e6d03bffab3ff2c403cb205,2020-08-10_16h20.58.244,lexical_decision_task_MP,2020.1.3,Win32,60,,m,1,0.36831,,,,,,,,0.36831,1,,,,,,52,WORD,UN,50,police,IMPOSE,m,,,,,,0.013020833,-0.256510417,0,0,0,,0,244,244,231,1,
,,,,,,,,,,,,,,,,,,5e6d03bffab3ff2c403cb205,2020-08-10_16h20.58.244,lexical_decision_task_MP,2020.1.3,Win32,60,,m,1,0.483405,,,,,,,,0.483405,1,,,,,,58,WORD,UN,50,splint,FOSTER,m,,,,,,0.013020833,-0.256510417,0,0,0,,0,245,245,237,1,
,,,,,,,,,,,,,,,,,,5e6d03bffab3ff2c403cb205,2020-08-10_16h20.58.244,lexical_decision_task_MP,2020.1.3,Win32,60,,m,0,0.288065,,,,,,,,0.288065,0,,,,,,451,NW,UN,33,surden,CAINKY,z,,,,,,0.013020833,-0.256510417,0,0,0,,0,246,246,390,1,
,,,,,,,,,,,,,,,,,,5e6d03bffab3ff2c403cb205,2020-08-10_16h20.58.244,lexical_decision_task_MP,2020.1.3,Win32,60,,m,1,0.17258,,,,,,,,0.17258,1,,,,,,6,WORD,UN,50,anchor,BUNDLE,m,,,,,,0.013020833,-0.256510417,0,0,0,,0,247,247,185,1,
,,,,,,,,,,,,,,,,,,5e6d03bffab3ff2c403cb205,2020-08-10_16h20.58.244,lexical_decision_task_MP,2020.1.3,Win32,60,,m,0,0.02237,,,,,,,,0.02237,0,,,,,,399,NW,"ID",50,fouret,FOURET,z,,,,,,0.013020833,-0.256510417,0,0,0,,0,248,248,338,1,
,,,,,,,,,,,,,,,,,,5e6d03bffab3ff2c403cb205,2020-08-10_16h20.58.244,lexical_decision_task_MP,2020.1.3,Win32,60,,m,0,0.119225,,,,,,,,0.119225,0,,,,,,359,NW,"ID",33,fonver,FONVER,z,,,,,,0.013020833,-0.256510417,0,0,0,,0,249,249,298,1,
,,,,,,,,,,,,,,,,,,5e6d03bffab3ff2c403cb205,2020-08-10_16h20.58.244,lexical_decision_task_MP,2020.1.3,Win32,60,,z,1,0.33112,,,,,,,,0.33112,1,,,,,,446,NW,UN,33,gircue,RUNAMO,z,,,,,,0.013020833,-0.256510417,0,0,0,,0,250,250,385,1,
,,,,,,,,,,,,,,,,,,5e6d03bffab3ff2c403cb205,2020-08-10_16h20.58.244,lexical_decision_task_MP,2020.1.3,Win32,60,,z,1,0.606835,,,,,,,,0.606835,1,,,,,,352,NW,"ID",33,tringe,TRINGE,z,,,,,,0.013020833,-0.256510417,0,0,0,,0,251,251,291,1,
,,,,,,,,,,,,,,,,,,5e6d03bffab3ff2c403cb205,2020-08-10_16h20.58.244,lexical_decision_task_MP,2020.1.3,Win32,60,,m,1,0.532085,,,,,,,,0.532085,1,,,,,,218,WORD,UN,33,bucket,SHRINK,m,,,,,,0.013020833,-0.256510417,0,0,0,,0,252,252,157,1,
,,,,,,,,,,,,,,,,,,5e6d03bffab3ff2c403cb205,2020-08-10_16h20.58.244,lexical_decision_task_MP,2020.1.3,Win32,60,,z,1,0.50681,,,,,,,,0.50681,1,,,,,,333,NW,"ID",33,catrie,CATRIE,z,,,,,,0.013020833,-0.256510417,0,0,0,,0,253,253,272,1,
,,,,,,,,,,,,,,,,,,5e6d03bffab3ff2c403cb205,2020-08-10_16h20.58.244,lexical_decision_task_MP,2020.1.3,Win32,60,,z,1,0.359955,,,,,,,,0.359955,1,,,,,,354,NW,"ID",33,virlex,VIRLEX,z,,,,,,0.013020833,-0.256510417,0,0,0,,0,254,254,293,1,
,,,,,,,,,,,,,,,,,,5e6d03bffab3ff2c403cb205,2020-08-10_16h20.58.244,lexical_decision_task_MP,2020.1.3,Win32,60,,z,0,0.426395,,,,,,,,0.426395,0,,,,,,49,WORD,UN,50,snatch,SURVEY,m,,,,,,0.013020833,-0.256510417,0,0,0,,0,255,255,228,1,
,,,,,,,,,,,,,,,,,,5e6d03bffab3ff2c403cb205,2020-08-10_16h20.58.244,lexical_decision_task_MP,2020.1.3,Win32,60,,m,0,0.36706,,,,,,,,0.36706,0,,,,,,368,NW,"ID",50,hornal,HORNAL,z,,,,,,0.013020833,-0.256510417,0,0,0,,0,256,256,307,1,
,,,,,,,,,,,,,,,,,,5e6d03bffab3ff2c403cb205,2020-08-10_16h20.58.244,lexical_decision_task_MP,2020.1.3,Win32,60,,m,1,0.478925,,,,,,,,0.478925,1,,,,,,231,WORD,UN,33,inject,EXPORT,m,,,,,,0.013020833,-0.256510417,0,0,0,,0,257,257,170,1,
,,,,,,,,,,,,,,,,,,5e6d03bffab3ff2c403cb205,2020-08-10_16h20.58.244,lexical_decision_task_MP,2020.1.3,Win32,60,,m,0,0.612035,,,,,,,,0.612035,0,,,,,,303,NW,"ID",33,fiream,FIREAM,z,,,,,,0.013020833,-0.256510417,0,0,0,,0,258,258,242,1,
,,,,,,,,,,,,,,,,,,5e6d03bffab3ff2c403cb205,2020-08-10_16h20.58.244,lexical_decision_task_MP,2020.1.3,Win32,60,,z,1,0.642115,,,,,,,,0.642115,1,,,,,,258,NW,UN,50,soudal,POLUTH,z,,,,,,0.013020833,-0.256510417,0,0,0,,0,259,259,437,1,
,,,,,,,,,,,,,,,,,,5e6d03bffab3ff2c403cb205,2020-08-10_16h20.58.244,lexical_decision_task_MP,2020.1.3,Win32,60,,m,1,0.50754,,,,,,,,0.50754,1,,,,,,110,WORD,"ID",33,polite,POLITE,m,,,,,,0.013020833,-0.256510417,0,0,0,,0,260,260,49,1,
,,,,,,,,,,,,,,,,,,5e6d03bffab3ff2c403cb205,2020-08-10_16h20.58.244,lexical_decision_task_MP,2020.1.3,Win32,60,,m,1,0.37586,,,,,,,,0.37586,1,,,,,,101,WORD,"ID",33,wrench,WRENCH,m,,,,,,0.013020833,-0.256510417,0,0,0,,0,261,261,40,1,
,,,,,,,,,,,,,,,,,,5e6d03bffab3ff2c403cb205,2020-08-10_16h20.58.244,lexical_decision_task_MP,2020.1.3,Win32,60,,z,1,0.521885,,,,,,,,0.521885,1,,,,,,268,NW,UN,50,orchet,PACKES,z,,,,,,0.013020833,-0.256510417,0,0,0,,0,262,262,447,1,
,,,,,,,,,,,,,,,,,,5e6d03bffab3ff2c403cb205,2020-08-10_16h20.58.244,lexical_decision_task_MP,2020.1.3,Win32,60,,m,1,0.366695,,,,,,,,0.366695,1,,,,,,84,WORD,"ID",33,mortal,MORTAL,m,,,,,,0.013020833,-0.256510417,0,0,0,,0,263,263,23,1,
,,,,,,,,,,,,,,,,,,5e6d03bffab3ff2c403cb205,2020-08-10_16h20.58.244,lexical_decision_task_MP,2020.1.3,Win32,60,,z,0,0.552805,,,,,,,,0.552805,0,,,,,,195,WORD,UN,33,credit,RESIGN,m,,,,,,0.013020833,-0.256510417,0,0,0,,0,264,264,134,1,
,,,,,,,,,,,,,,,,,,5e6d03bffab3ff2c403cb205,2020-08-10_16h20.58.244,lexical_decision_task_MP,2020.1.3,Win32,60,,m,0,0.371955,,,,,,,,0.371955,0,,,,,,356,NW,"ID",33,othnis,OTHNIS,z,,,,,,0.013020833,-0.256510417,0,0,0,,0,265,265,295,1,
,,,,,,,,,,,,,,,,,,5e6d03bffab3ff2c403cb205,2020-08-10_16h20.58.244,lexical_decision_task_MP,2020.1.3,Win32,60,,z,0,0.15855,,,,,,,,0.15855,0,,,,,,177,WORD,"ID",50,advent,ADVENT,m,,,,,,0.013020833,-0.256510417,0,0,0,,0,266,266,116,1,
,,,,,,,,,,,,,,,,,,5e6d03bffab3ff2c403cb205,2020-08-10_16h20.58.244,lexical_decision_task_MP,2020.1.3,Win32,60,,z,1,0.41349,,,,,,,,0.41349,1,,,,,,250,NW,UN,50,lupict,MILTED,z,,,,,,0.013020833,-0.256510417,0,0,0,,0,267,267,429,1,
,,,,,,,,,,,,,,,,,,5e6d03bffab3ff2c403cb205,2020-08-10_16h20.58.244,lexical_decision_task_MP,2020.1.3,Win32,60,,z,1,0.625655,,,,,,,,0.625655,1,,,,,,453,NW,UN,33,scouge,BOLVIS,z,,,,,,0.013020833,-0.256510417,0,0,0,,0,268,268,392,1,
,,,,,,,,,,,,,,,,,,5e6d03bffab3ff2c403cb205,2020-08-10_16h20.58.244,lexical_decision_task_MP,2020.1.3,Win32,60,,m,1,0.625445,,,,,,,,0.625445,1,,,,,,117,WORD,"ID",33,branch,BRANCH,m,,,,,,0.013020833,-0.256510417,0,0,0,,0,269,269,56,1,
,,,,,,,,,,,,,,,,,,5e6d03bffab3ff2c403cb205,2020-08-10_16h20.58.244,lexical_decision_task_MP,2020.1.3,Win32,60,,z,1,0.754085,,,,,,,,0.754085,1,,,,,,417,NW,"ID",50,earoud,EAROUD,z,,,,,,0.013020833,-0.256510417,0,0,0,,0,270,270,356,1,
,,,,,,,,,,,,,,,,,,5e6d03bffab3ff2c403cb205,2020-08-10_16h20.58.244,lexical_decision_task_MP,2020.1.3,Win32,60,,z,1,0.532885,,,,,,,,0.532885,1,,,,,,288,NW,UN,50,starby,YACEUP,z,,,,,,0.013020833,-0.256510417,0,0,0,,0,271,271,467,1,
,,,,,,,,,,,,,,,,,,5e6d03bffab3ff2c403cb205,2020-08-10_16h20.58.244,lexical_decision_task_MP,2020.1.3,Win32,60,,z,1,0.45485,,,,,,,,0.45485,1,,,,,,390,NW,"ID",50,hatrus,HATRUS,z,,,,,,0.013020833,-0.256510417,0,0,0,,0,272,272,329,1,
,,,,,,,,,,,,,,,,,,5e6d03bffab3ff2c403cb205,2020-08-10_16h20.58.244,lexical_decision_task_MP,2020.1.3,Win32,60,,z,1,0.589915,,,,,,,,0.589915,1,,,,,,350,NW,"ID",33,nagurs,NAGURS,z,,,,,,0.013020833,-0.256510417,0,0,0,,0,273,273,289,1,
,,,,,,,,,,,,,,,,,,5e6d03bffab3ff2c403cb205,2020-08-10_16h20.58.244,lexical_decision_task_MP,2020.1.3,Win32,60,,m,1,0.503475,,,,,,,,0.503475,1,,,,,,211,WORD,UN,33,verify,INFECT,m,,,,,,0.013020833,-0.256510417,0,0,0,,0,274,274,150,1,
,,,,,,,,,,,,,,,,,,5e6d03bffab3ff2c403cb205,2020-08-10_16h20.58.244,lexical_decision_task_MP,2020.1.3,Win32,60,,z,1,0.5818,,,,,,,,0.5818,1,,,,,,466,NW,UN,33,robuly,HOCITE,z,,,,,,0.013020833,-0.256510417,0,0,0,,0,275,275,405,1,
,,,,,,,,,,,,,,,,,,5e6d03bffab3ff2c403cb205,2020-08-10_16h20.58.244,lexical_decision_task_MP,2020.1.3,Win32,60,,m,1,0.550345,,,,,,,,0.550345,1,,,,,,55,WORD,UN,50,ambush,STROKE,m,,,,,,0.013020833,-0.256510417,0,0,0,,0,276,276,234,1,
,,,,,,,,,,,,,,,,,,5e6d03bffab3ff2c403cb205,2020-08-10_16h20.58.244,lexical_decision_task_MP,2020.1.3,Win32,60,,z,1,0.54569,,,,,,,,0.54569,1,,,,,,286,NW,UN,50,nymbel,RELDON,z,,,,,,0.013020833,-0.256510417,0,0,0,,0,277,277,465,1,
,,,,,,,,,,,,,,,,,,5e6d03bffab3ff2c403cb205,2020-08-10_16h20.58.244,lexical_decision_task_MP,2020.1.3,Win32,60,,m,1,0.649475,,,,,,,,0.649475,1,,,,,,170,WORD,"ID",50,pounce,POUNCE,m,,,,,,0.013020833,-0.256510417,0,0,0,,0,278,278,109,1,
,,,,,,,,,,,,,,,,,,5e6d03bffab3ff2c403cb205,2020-08-10_16h20.58.244,lexical_decision_task_MP,2020.1.3,Win32,60,,z,1,0.683595,,,,,,,,0.683595,1,,,,,,343,NW,"ID",33,aimosy,AIMOSY,z,,,,,,0.013020833,-0.256510417,0,0,0,,0,279,279,282,1,
,,,,,,,,,,,,,,,,,,5e6d03bffab3ff2c403cb205,2020-08-10_16h20.58.244,lexical_decision_task_MP,2020.1.3,Win32,60,,m,1,0.68663,,,,,,,,0.68663,1,,,,,,150,WORD,"ID",50,random,RANDOM,m,,,,,,0.013020833,-0.256510417,0,0,0,,0,280,280,89,1,
,,,,,,,,,,,,,,,,,,5e6d03bffab3ff2c403cb205,2020-08-10_16h20.58.244,lexical_decision_task_MP,2020.1.3,Win32,60,,z,1,0.540885,,,,,,,,0.540885,1,,,,,,430,NW,UN,33,chrums,CAROEY,z,,,,,,0.013020833,-0.256510417,0,0,0,,0,281,281,369,1,
,,,,,,,,,,,,,,,,,,5e6d03bffab3ff2c403cb205,2020-08-10_16h20.58.244,lexical_decision_task_MP,2020.1.3,Win32,60,,z,1,0.54092,,,,,,,,0.54092,1,,,,,,382,NW,"ID",50,sarley,SARLEY,z,,,,,,0.013020833,-0.256510417,0,0,0,,0,282,282,321,1,
,,,,,,,,,,,,,,,,,,5e6d03bffab3ff2c403cb205,2020-08-10_16h20.58.244,lexical_decision_task_MP,2020.1.3,Win32,60,,z,0,0.7991,,,,,,,,0.7991,0,,,,,,1,WORD,UN,50,ethnic,FRIGHT,m,,,,,,0.013020833,-0.256510417,0,0,0,,0,283,283,180,1,
,,,,,,,,,,,,,,,,,,5e6d03bffab3ff2c403cb205,2020-08-10_16h20.58.244,lexical_decision_task_MP,2020.1.3,Win32,60,,m,1,0.82614,,,,,,,,0.82614,1,,,,,,149,WORD,"ID",50,invade,INVADE,m,,,,,,0.013020833,-0.256510417,0,0,0,,0,284,284,88,1,
,,,,,,,,,,,,,,,,,,5e6d03bffab3ff2c403cb205,2020-08-10_16h20.58.244,lexical_decision_task_MP,2020.1.3,Win32,60,,m,0,0.507335,,,,,,,,0.507335,0,,,,,,449,NW,UN,33,phrect,BRUNGE,z,,,,,,0.013020833,-0.256510417,0,0,0,,0,285,285,388,1,
,,,,,,,,,,,,,,,,,,5e6d03bffab3ff2c403cb205,2020-08-10_16h20.58.244,lexical_decision_task_MP,2020.1.3,Win32,60,,z,1,0.45605,,,,,,,,0.45605,1,,,,,,362,NW,"ID",50,tireau,TIREAU,z,,,,,,0.013020833,-0.256510417,0,0,0,,0,286,286,301,1,
,,,,,,,,,,,,,,,,,,5e6d03bffab3ff2c403cb205,2020-08-10_16h20.58.244,lexical_decision_task_MP,2020.1.3,Win32,60,,z,1,0.63308,,,,,,,,0.63308,1,,,,,,370,NW,"ID",50,sleact,SLEACT,z,,,,,,0.013020833,-0.256510417,0,0,0,,0,287,287,309,1,
,,,,,,,,,,,,,,,,,,5e6d03bffab3ff2c403cb205,2020-08-10_16h20.58.244,lexical_decision_task_MP,2020.1.3,Win32,60,,z,0,0.569655,,,,,,,,0.569655,0,,,,,,151,WORD,"ID",50,mystic,MYSTIC,m,,,,,,0.013020833,-0.256510417,0,0,0,,0,288,288,90,1,
,,,,,,,,,,,,,,,,,,5e6d03bffab3ff2c403cb205,2020-08-10_16h20.58.244,lexical_decision_task_MP,2020.1.3,Win32,60,,z,1,0.623695,,,,,,,,0.623695,1,,,,,,327,NW,"ID",33,plenac,PLENAC,z,,,,,,0.013020833,-0.256510417,0,0,0,,0,289,289,266,1,
,,,,,,,,,,,,,,,,,,5e6d03bffab3ff2c403cb205,2020-08-10_16h20.58.244,lexical_decision_task_MP,2020.1.3,Win32,60,,m,1,0.505475,,,,,,,,0.505475,1,,,,,,108,WORD,"ID",33,reckon,RECKON,m,,,,,,0.013020833,-0.256510417,0,0,0,,0,290,290,47,1,
,,,,,,,,,,,,,,,,,,5e6d03bffab3ff2c403cb205,2020-08-10_16h20.58.244,lexical_decision_task_MP,2020.1.3,Win32,60,,m,1,0.453945,,,,,,,,0.453945,1,,,,,,31,WORD,UN,50,buckle,WEAPON,m,,,,,,0.013020833,-0.256510417,0,0,0,,0,291,291,210,1,
,,,,,,,,,,,,,,,,,,5e6d03bffab3ff2c403cb205,2020-08-10_16h20.58.244,lexical_decision_task_MP,2020.1.3,Win32,60,,m,0,0.365895,,,,,,,,0.365895,0,,,,,,397,NW,"ID",50,camble,CAMBLE,z,,,,,,0.013020833,-0.256510417,0,0,0,,0,292,292,336,1,
,,,,,,,,,,,,,,,,,,5e6d03bffab3ff2c403cb205,2020-08-10_16h20.58.244,lexical_decision_task_MP,2020.1.3,Win32,60,,m,0,0.73458,,,,,,,,0.73458,0,,,,,,462,NW,UN,33,kispel,ABSULT,z,,,,,,0.013020833,-0.256510417,0,0,0,,0,293,293,401,1,
,,,,,,,,,,,,,,,,,,5e6d03bffab3ff2c403cb205,2020-08-10_16h20.58.244,lexical_decision_task_MP,2020.1.3,Win32,60,,m,0,0.538545,,,,,,,,0.538545,0,,,,,,441,NW,UN,33,aboune,RASTOE,z,,,,,,0.013020833,-0.256510417,0,0,0,,0,294,294,380,1,
,,,,,,,,,,,,,,,,,,5e6d03bffab3ff2c403cb205,2020-08-10_16h20.58.244,lexical_decision_task_MP,2020.1.3,Win32,60,,m,0,0.83793,,,,,,,,0.83793,0,,,,,,418,NW,"ID",50,suidle,SUIDLE,z,,,,,,0.013020833,-0.256510417,0,0,0,,0,295,295,357,1,
,,,,,,,,,,,,,,,,,,5e6d03bffab3ff2c403cb205,2020-08-10_16h20.58.244,lexical_decision_task_MP,2020.1.3,Win32,60,,z,0,0.373805,,,,,,,,0.373805,0,,,,,,85,WORD,"ID",33,sprawl,SPRAWL,m,,,,,,0.013020833,-0.256510417,0,0,0,,0,296,296,24,1,
,,,,,,,,,,,,,,,,,,5e6d03bffab3ff2c403cb205,2020-08-10_16h20.58.244,lexical_decision_task_MP,2020.1.3,Win32,60,,z,1,0.599065,,,,,,,,0.599065,1,,,,,,383,NW,"ID",50,aungre,AUNGRE,z,,,,,,0.013020833,-0.256510417,0,0,0,,0,297,297,322,1,
,,,,,,,,,,,,,,,,,,5e6d03bffab3ff2c403cb205,2020-08-10_16h20.58.244,lexical_decision_task_MP,2020.1.3,Win32,60,,z,1,0.50412,,,,,,,,0.50412,1,,,,,,385,NW,"ID",50,veigma,VEIGMA,z,,,,,,0.013020833,-0.256510417,0,0,0,,0,298,298,324,1,
,,,,,,,,,,,,,,,,,,5e6d03bffab3ff2c403cb205,2020-08-10_16h20.58.244,lexical_decision_task_MP,2020.1.3,Win32,60,,m,1,0.616225,,,,,,,,0.616225,1,,,,,,90,WORD,"ID",33,relish,RELISH,m,,,,,,0.013020833,-0.256510417,0,0,0,,0,299,299,29,1,
,,,,,,,,,,,,,,,,,,5e6d03bffab3ff2c403cb205,2020-08-10_16h20.58.244,lexical_decision_task_MP,2020.1.3,Win32,60,,m,1,0.66989,,,,,,,,0.66989,1,,,,,,228,WORD,UN,33,kidney,MASTER,m,,,,,,0.013020833,-0.256510417,0,0,0,,0,300,300,167,1,
,,,,,,,,,,,,,,,,,,5e6d03bffab3ff2c403cb205,2020-08-10_16h20.58.244,lexical_decision_task_MP,2020.1.3,Win32,60,,z,1,0.88402,,,,,,,,0.88402,1,,,,,,443,NW,UN,33,jaunce,DORSEX,z,,,,,,0.013020833,-0.256510417,0,0,0,,0,301,301,382,1,
,,,,,,,,,,,,,,,,,,5e6d03bffab3ff2c403cb205,2020-08-10_16h20.58.244,lexical_decision_task_MP,2020.1.3,Win32,60,,m,1,0.563465,,,,,,,,0.563465,1,,,,,,37,WORD,UN,50,powder,INSULT,m,,,,,,0.013020833,-0.256510417,0,0,0,,0,302,302,216,1,
,,,,,,,,,,,,,,,,,,5e6d03bffab3ff2c403cb205,2020-08-10_16h20.58.244,lexical_decision_task_MP,2020.1.3,Win32,60,,m,1,0.501175,,,,,,,,0.501175,1,,,,,,78,WORD,"ID",33,column,COLUMN,m,,,,,,0.013020833,-0.256510417,0,0,0,,0,303,303,17,1,
,,,,,,,,,,,,,,,,,,5e6d03bffab3ff2c403cb205,2020-08-10_16h20.58.244,lexical_decision_task_MP,2020.1.3,Win32,60,,z,1,0.86698,,,,,,,,0.86698,1,,,,,,409,NW,"ID",50,elopia,ELOPIA,z,,,,,,0.013020833,-0.256510417,0,0,0,,0,304,304,348,1,
,,,,,,,,,,,,,,,,,,5e6d03bffab3ff2c403cb205,2020-08-10_16h20.58.244,lexical_decision_task_MP,2020.1.3,Win32,60,,z,1,0.71093,,,,,,,,0.71093,1,,,,,,291,NW,UN,50,ablint,PRETCH,z,,,,,,0.013020833,-0.256510417,0,0,0,,0,305,305,470,1,
,,,,,,,,,,,,,,,,,,5e6d03bffab3ff2c403cb205,2020-08-10_16h20.58.244,lexical_decision_task_MP,2020.1.3,Win32,60,,m,1,0.504105,,,,,,,,0.504105,1,,,,,,71,WORD,"ID",33,garden,GARDEN,m,,,,,,0.013020833,-0.256510417,0,0,0,,0,306,306,10,1,
,,,,,,,,,,,,,,,,,,5e6d03bffab3ff2c403cb205,2020-08-10_16h20.58.244,lexical_decision_task_MP,2020.1.3,Win32,60,,m,1,0.503895,,,,,,,,0.503895,1,,,,,,201,WORD,UN,33,factor,ADMIRE,m,,,,,,0.013020833,-0.256510417,0,0,0,,0,307,307,140,1,
,,,,,,,,,,,,,,,,,,5e6d03bffab3ff2c403cb205,2020-08-10_16h20.58.244,lexical_decision_task_MP,2020.1.3,Win32,60,,m,1,0.469575,,,,,,,,0.469575,1,,,,,,95,WORD,"ID",33,thread,THREAD,m,,,,,,0.013020833,-0.256510417,0,0,0,,0,308,308,34,1,
,,,,,,,,,,,,,,,,,,5e6d03bffab3ff2c403cb205,2020-08-10_16h20.58.244,lexical_decision_task_MP,2020.1.3,Win32,60,,z,1,0.65138,,,,,,,,0.65138,1,,,,,,378,NW,"ID",50,shrile,SHRILE,z,,,,,,0.013020833,-0.256510417,0,0,0,,0,309,309,317,1,
,,,,,,,,,,,,,,,,,,5e6d03bffab3ff2c403cb205,2020-08-10_16h20.58.244,lexical_decision_task_MP,2020.1.3,Win32,60,,m,0,0.466685,,,,,,,,0.466685,0,,,,,,423,NW,UN,33,praile,STRELD,z,,,,,,0.013020833,-0.256510417,0,0,0,,0,310,310,362,1,
,,,,,,,,,,,,,,,,,,5e6d03bffab3ff2c403cb205,2020-08-10_16h20.58.244,lexical_decision_task_MP,2020.1.3,Win32,60,,m,1,0.532125,,,,,,,,0.532125,1,,,,,,73,WORD,"ID",33,source,SOURCE,m,,,,,,0.013020833,-0.256510417,0,0,0,,0,311,311,12,1,
,,,,,,,,,,,,,,,,,,5e6d03bffab3ff2c403cb205,2020-08-10_16h20.58.244,lexical_decision_task_MP,2020.1.3,Win32,60,,z,1,0.71623,,,,,,,,0.71623,1,,,,,,289,NW,UN,50,splino,STARBY,z,,,,,,0.013020833,-0.256510417,0,0,0,,0,312,312,468,1,
,,,,,,,,,,,,,,,,,,5e6d03bffab3ff2c403cb205,2020-08-10_16h20.58.244,lexical_decision_task_MP,2020.1.3,Win32,60,,m,1,0.590655,,,,,,,,0.590655,1,,,,,,33,WORD,UN,50,jungle,BUTLER,m,,,,,,0.013020833,-0.256510417,0,0,0,,0,313,313,212,1,
,,,,,,,,,,,,,,,,,,5e6d03bffab3ff2c403cb205,2020-08-10_16h20.58.244,lexical_decision_task_MP,2020.1.3,Win32,60,,m,1,0.753805,,,,,,,,0.753805,1,,,,,,68,WORD,"ID",33,fumble,FUMBLE,m,,,,,,0.013020833,-0.256510417,0,0,0,,0,314,314,7,1,
,,,,,,,,,,,,,,,,,,5e6d03bffab3ff2c403cb205,2020-08-10_16h20.58.244,lexical_decision_task_MP,2020.1.3,Win32,60,,z,1,0.66828,,,,,,,,0.66828,1,,,,,,248,NW,UN,50,batrol,STROLE,z,,,,,,0.013020833,-0.256510417,0,0,0,,0,315,315,427,1,
,,,,,,,,,,,,,,,,,,5e6d03bffab3ff2c403cb205,2020-08-10_16h20.58.244,lexical_decision_task_MP,2020.1.3,Win32,60,,z,1,0.531625,,,,,,,,0.531625,1,,,,,,404,NW,"ID",50,cluirm,CLUIRM,z,,,,,,0.013020833,-0.256510417,0,0,0,,0,316,316,343,1,
,,,,,,,,,,,,,,,,,,5e6d03bffab3ff2c403cb205,2020-08-10_16h20.58.244,lexical_decision_task_MP,2020.1.3,Win32,60,,z,1,0.556545,,,,,,,,0.556545,1,,,,,,257,NW,UN,50,poluth,VENIOD,z,,,,,,0.013020833,-0.256510417,0,0,0,,0,317,317,436,1,
,,,,,,,,,,,,,,,,,,5e6d03bffab3ff2c403cb205,2020-08-10_16h20.58.244,lexical_decision_task_MP,2020.1.3,Win32,60,,m,1,0.488025,,,,,,,,0.488025,1,,,,,,62,WORD,"ID",33,region,REGION,m,,,,,,0.013020833,-0.256510417,0,0,0,,0,318,318,1,1,
,,,,,,,,,,,,,,,,,,5e6d03bffab3ff2c403cb205,2020-08-10_16h20.58.244,lexical_decision_task_MP,2020.1.3,Win32,60,,z,1,0.55006,,,,,,,,0.55006,1,,,,,,280,NW,UN,50,melaty,CURBOL,z,,,,,,0.013020833,-0.256510417,0,0,0,,0,319,319,459,1,
,,,,,,,,,,,,,,,,,,5e6d03bffab3ff2c403cb205,2020-08-10_16h20.58.244,lexical_decision_task_MP,2020.1.3,Win32,60,,m,1,0.695255,,,,,,,,0.695255,1,,,,,,207,WORD,UN,33,hockey,WREATH,m,,,,,,0.013020833,-0.256510417,0,0,0,,0,320,320,146,1,
,,,,,,,,,,,,,,,,,,5e6d03bffab3ff2c403cb205,2020-08-10_16h20.58.244,lexical_decision_task_MP,2020.1.3,Win32,60,,z,1,0.582445,,,,,,,,0.582445,1,,,,,,421,NW,UN,33,alcoud,KNISMA,z,,,,,,0.013020833,-0.256510417,0,0,0,,0,321,321,360,1,
,,,,,,,,,,,,,,,,,,5e6d03bffab3ff2c403cb205,2020-08-10_16h20.58.244,lexical_decision_task_MP,2020.1.3,Win32,60,,m,1,0.416865,,,,,,,,0.416865,1,,,,,,146,WORD,"ID",50,couple,COUPLE,m,,,,,,0.013020833,-0.256510417,0,0,0,,0,322,322,85,1,
,,,,,,,,,,,,,,,,,,5e6d03bffab3ff2c403cb205,2020-08-10_16h20.58.244,lexical_decision_task_MP,2020.1.3,Win32,60,,z,1,0.634515,,,,,,,,0.634515,1,,,,,,253,NW,UN,50,varosh,RESAIT,z,,,,,,0.013020833,-0.256510417,0,0,0,,0,323,323,432,1,
,,,,,,,,,,,,,,,,,,5e6d03bffab3ff2c403cb205,2020-08-10_16h20.58.244,lexical_decision_task_MP,2020.1.3,Win32,60,,z,1,0.552445,,,,,,,,0.552445,1,,,,,,318,NW,"ID",33,reagly,REAGLY,z,,,,,,0.013020833,-0.256510417,0,0,0,,0,324,324,257,1,
,,,,,,,,,,,,,,,,,,5e6d03bffab3ff2c403cb205,2020-08-10_16h20.58.244,lexical_decision_task_MP,2020.1.3,Win32,60,,z,1,0.45683,,,,,,,,0.45683,1,,,,,,452,NW,UN,33,bolvis,SURDEN,z,,,,,,0.013020833,-0.256510417,0,0,0,,0,325,325,391,1,
,,,,,,,,,,,,,,,,,,5e6d03bffab3ff2c403cb205,2020-08-10_16h20.58.244,lexical_decision_task_MP,2020.1.3,Win32,60,,m,1,0.51522,,,,,,,,0.51522,1,,,,,,232,WORD,UN,33,nature,INJECT,m,,,,,,0.013020833,-0.256510417,0,0,0,,0,326,326,171,1,
,,,,,,,,,,,,,,,,,,5e6d03bffab3ff2c403cb205,2020-08-10_16h20.58.244,lexical_decision_task_MP,2020.1.3,Win32,60,,z,0,0.463655,,,,,,,,0.463655,0,,,,,,124,WORD,"ID",50,blouse,BLOUSE,m,,,,,,0.013020833,-0.256510417,0,0,0,,0,327,327,63,1,
,,,,,,,,,,,,,,,,,,5e6d03bffab3ff2c403cb205,2020-08-10_16h20.58.244,lexical_decision_task_MP,2020.1.3,Win32,60,,z,1,0.571725,,,,,,,,0.571725,1,,,,,,431,NW,UN,33,lunker,CHRUMS,z,,,,,,0.013020833,-0.256510417,0,0,0,,0,328,328,370,1,
,,,,,,,,,,,,,,,,,,5e6d03bffab3ff2c403cb205,2020-08-10_16h20.58.244,lexical_decision_task_MP,2020.1.3,Win32,60,,m,1,0.50356,,,,,,,,0.50356,1,,,,,,186,WORD,UN,33,course,PORTAL,m,,,,,,0.013020833,-0.256510417,0,0,0,,0,329,329,125,1,
,,,,,,,,,,,,,,,,,,5e6d03bffab3ff2c403cb205,2020-08-10_16h20.58.244,lexical_decision_task_MP,2020.1.3,Win32,60,,z,1,0.535185,,,,,,,,0.535185,1,,,,,,432,NW,UN,33,drance,LUNKER,z,,,,,,0.013020833,-0.256510417,0,0,0,,0,330,330,371,1,
,,,,,,,,,,,,,,,,,,5e6d03bffab3ff2c403cb205,2020-08-10_16h20.58.244,lexical_decision_task_MP,2020.1.3,Win32,60,,m,1,0.66994,,,,,,,,0.66994,1,,,,,,75,WORD,"ID",33,trophy,TROPHY,m,,,,,,0.013020833,-0.256510417,0,0,0,,0,331,331,14,1,
,,,,,,,,,,,,,,,,,,5e6d03bffab3ff2c403cb205,2020-08-10_16h20.58.244,lexical_decision_task_MP,2020.1.3,Win32,60,,z,1,0.644245,,,,,,,,0.644245,1,,,,,,290,NW,UN,50,pretch,SPLINO,z,,,,,,0.013020833,-0.256510417,0,0,0,,0,332,332,469,1,
,,,,,,,,,,,,,,,,,,5e6d03bffab3ff2c403cb205,2020-08-10_16h20.58.244,lexical_decision_task_MP,2020.1.3,Win32,60,,m,1,0.523995,,,,,,,,0.523995,1,,,,,,24,WORD,UN,50,domain,PRAISE,m,,,,,,0.013020833,-0.256510417,0,0,0,,0,333,333,203,1,
,,,,,,,,,,,,,,,,,,5e6d03bffab3ff2c403cb205,2020-08-10_16h20.58.244,lexical_decision_task_MP,2020.1.3,Win32,60,,z,1,0.567235,,,,,,,,0.567235,1,,,,,,328,NW,"ID",33,broake,BROAKE,z,,,,,,0.013020833,-0.256510417,0,0,0,,0,334,334,267,1,
,,,,,,,,,,,,,,,,,,5e6d03bffab3ff2c403cb205,2020-08-10_16h20.58.244,lexical_decision_task_MP,2020.1.3,Win32,60,,z,1,0.53915,,,,,,,,0.53915,1,,,,,,301,NW,"ID",33,fainch,FAINCH,z,,,,,,0.013020833,-0.256510417,0,0,0,,0,335,335,240,1,
,,,,,,,,,,,,,,,,,,5e6d03bffab3ff2c403cb205,2020-08-10_16h20.58.244,lexical_decision_task_MP,2020.1.3,Win32,60,,m,0,0.518175,,,,,,,,0.518175,0,,,,,,402,NW,"ID",50,syntic,SYNTIC,z,,,,,,0.013020833,-0.256510417,0,0,0,,0,336,336,341,1,
,,,,,,,,,,,,,,,,,,5e6d03bffab3ff2c403cb205,2020-08-10_16h20.58.244,lexical_decision_task_MP,2020.1.3,Win32,60,,z,1,0.5205,,,,,,,,0.5205,1,,,,,,364,NW,"ID",50,impote,IMPOTE,z,,,,,,0.013020833,-0.256510417,0,0,0,,0,337,337,303,1,
,,,,,,,,,,,,,,,,,,5e6d03bffab3ff2c403cb205,2020-08-10_16h20.58.244,lexical_decision_task_MP,2020.1.3,Win32,60,,m,1,0.648355,,,,,,,,0.648355,1,,,,,,208,WORD,UN,33,search,HOCKEY,m,,,,,,0.013020833,-0.256510417,0,0,0,,0,338,338,147,1,
,,,,,,,,,,,,,,,,,,5e6d03bffab3ff2c403cb205,2020-08-10_16h20.58.244,lexical_decision_task_MP,2020.1.3,Win32,60,,m,1,0.5419,,,,,,,,0.5419,1,,,,,,219,WORD,UN,33,voyage,BUCKET,m,,,,,,0.013020833,-0.256510417,0,0,0,,0,339,339,158,1,
,,,,,,,,,,,,,,,,,,5e6d03bffab3ff2c403cb205,2020-08-10_16h20.58.244,lexical_decision_task_MP,2020.1.3,Win32,60,,m,1,0.63589,,,,,,,,0.63589,1,,,,,,236,WORD,UN,33,grumpy,PIRATE,m,,,,,,0.013020833,-0.256510417,0,0,0,,0,340,340,175,1,
,,,,,,,,,,,,,,,,,,5e6d03bffab3ff2c403cb205,2020-08-10_16h20.58.244,lexical_decision_task_MP,2020.1.3,Win32,60,,m,1,0.41807,,,,,,,,0.41807,1,,,,,,158,WORD,"ID",50,island,ISLAND,m,,,,,,0.013020833,-0.256510417,0,0,0,,0,341,341,97,1,
,,,,,,,,,,,,,,,,,,5e6d03bffab3ff2c403cb205,2020-08-10_16h20.58.244,lexical_decision_task_MP,2020.1.3,Win32,60,,m,0,0.656715,,,,,,,,0.656715,0,,,,,,458,NW,UN,33,hocite,BARCET,z,,,,,,0.013020833,-0.256510417,0,0,0,,0,342,342,397,1,
,,,,,,,,,,,,,,,,,,5e6d03bffab3ff2c403cb205,2020-08-10_16h20.58.244,lexical_decision_task_MP,2020.1.3,Win32,60,,m,0,0.682625,,,,,,,,0.682625,0,,,,,,411,NW,"ID",50,orchin,ORCHIN,z,,,,,,0.013020833,-0.256510417,0,0,0,,0,343,343,350,1,
,,,,,,,,,,,,,,,,,,5e6d03bffab3ff2c403cb205,2020-08-10_16h20.58.244,lexical_decision_task_MP,2020.1.3,Win32,60,,z,1,1.076795,,,,,,,,1.076795,1,,,,,,296,NW,UN,50,fertic,BEINCH,z,,,,,,0.013020833,-0.256510417,0,0,0,,0,344,344,475,1,
,,,,,,,,,,,,,,,,,,5e6d03bffab3ff2c403cb205,2020-08-10_16h20.58.244,lexical_decision_task_MP,2020.1.3,Win32,60,,z,1,0.899155,,,,,,,,0.899155,1,,,,,,420,NW,"ID",50,gushop,GUSHOP,z,,,,,,0.013020833,-0.256510417,0,0,0,,0,345,345,359,1,
,,,,,,,,,,,,,,,,,,5e6d03bffab3ff2c403cb205,2020-08-10_16h20.58.244,lexical_decision_task_MP,2020.1.3,Win32,60,,z,1,0.535235,,,,,,,,0.535235,1,,,,,,447,NW,UN,33,sadent,GIRCUE,z,,,,,,0.013020833,-0.256510417,0,0,0,,0,346,346,386,1,
,,,,,,,,,,,,,,,,,,5e6d03bffab3ff2c403cb205,2020-08-10_16h20.58.244,lexical_decision_task_MP,2020.1.3,Win32,60,,m,1,0.651,,,,,,,,0.651,1,,,,,,223,WORD,UN,33,period,KIDNEY,m,,,,,,0.013020833,-0.256510417,0,0,0,,0,347,347,162,1,
,,,,,,,,,,,,,,,,,,5e6d03bffab3ff2c403cb205,2020-08-10_16h20.58.244,lexical_decision_task_MP,2020.1.3,Win32,60,,z,1,0.733265,,,,,,,,0.733265,1,,,,,,313,NW,"ID",33,paurse,PAURSE,z,,,,,,0.013020833,-0.256510417,0,0,0,,0,348,348,252,1,
,,,,,,,,,,,,,,,,,,5e6d03bffab3ff2c403cb205,2020-08-10_16h20.58.244,lexical_decision_task_MP,2020.1.3,Win32,60,,z,1,0.54119,,,,,,,,0.54119,1,,,,,,252,NW,UN,50,resait,STAPOD,z,,,,,,0.013020833,-0.256510417,0,0,0,,0,349,349,431,1,
,,,,,,,,,,,,,,,,,,5e6d03bffab3ff2c403cb205,2020-08-10_16h20.58.244,lexical_decision_task_MP,2020.1.3,Win32,60,,m,1,0.521915,,,,,,,,0.521915,1,,,,,,190,WORD,UN,33,stable,BACKUP,m,,,,,,0.013020833,-0.256510417,0,0,0,,0,350,350,129,1,
,,,,,,,,,,,,,,,,,,5e6d03bffab3ff2c403cb205,2020-08-10_16h20.58.244,lexical_decision_task_MP,2020.1.3,Win32,60,,m,1,0.51685,,,,,,,,0.51685,1,,,,,,134,WORD,"ID",50,staple,STAPLE,m,,,,,,0.013020833,-0.256510417,0,0,0,,0,351,351,73,1,
,,,,,,,,,,,,,,,,,,5e6d03bffab3ff2c403cb205,2020-08-10_16h20.58.244,lexical_decision_task_MP,2020.1.3,Win32,60,,m,1,0.499715,,,,,,,,0.499715,1,,,,,,116,WORD,"ID",33,tumble,TUMBLE,m,,,,,,0.013020833,-0.256510417,0,0,0,,0,352,352,55,1,
,,,,,,,,,,,,,,,,,,5e6d03bffab3ff2c403cb205,2020-08-10_16h20.58.244,lexical_decision_task_MP,2020.1.3,Win32,60,,m,1,0.574425,,,,,,,,0.574425,1,,,,,,26,WORD,UN,50,butler,SPRINT,m,,,,,,0.013020833,-0.256510417,0,0,0,,0,353,353,205,1,
,,,,,,,,,,,,,,,,,,5e6d03bffab3ff2c403cb205,2020-08-10_16h20.58.244,lexical_decision_task_MP,2020.1.3,Win32,60,,z,1,0.61859,,,,,,,,0.61859,1,,,,,,308,NW,"ID",33,psetch,PSETCH,z,,,,,,0.013020833,-0.256510417,0,0,0,,0,354,354,247,1,
,,,,,,,,,,,,,,,,,,5e6d03bffab3ff2c403cb205,2020-08-10_16h20.58.244,lexical_decision_task_MP,2020.1.3,Win32,60,,z,0,0.497255,,,,,,,,0.497255,0,,,,,,227,WORD,UN,33,master,SELDOM,m,,,,,,0.013020833,-0.256510417,0,0,0,,0,355,355,166,1,
,,,,,,,,,,,,,,,,,,5e6d03bffab3ff2c403cb205,2020-08-10_16h20.58.244,lexical_decision_task_MP,2020.1.3,Win32,60,,m,1,0.455345,,,,,,,,0.455345,1,,,,,,91,WORD,"ID",33,expand,EXPAND,m,,,,,,0.013020833,-0.256510417,0,0,0,,0,356,356,30,1,
,,,,,,,,,,,,,,,,,,5e6d03bffab3ff2c403cb205,2020-08-10_16h20.58.244,lexical_decision_task_MP,2020.1.3,Win32,60,,m,1,0.91789,,,,,,,,0.91789,1,,,,,,16,WORD,UN,50,charge,FAUCET,m,,,,,,0.013020833,-0.256510417,0,0,0,,0,357,357,195,1,
,,,,,,,,,,,,,,,,,,5e6d03bffab3ff2c403cb205,2020-08-10_16h20.58.244,lexical_decision_task_MP,2020.1.3,Win32,60,,z,1,1.07346,,,,,,,,1.07346,1,,,,,,281,NW,UN,50,porlex,MELATY,z,,,,,,0.013020833,-0.256510417,0,0,0,,0,358,358,460,1,
,,,,,,,,,,,,,,,,,,5e6d03bffab3ff2c403cb205,2020-08-10_16h20.58.244,lexical_decision_task_MP,2020.1.3,Win32,60,,m,0,1.04935,,,,,,,,1.04935,0,,,,,,373,NW,"ID",50,bigent,BIGENT,z,,,,,,0.013020833,-0.256510417,0,0,0,,0,359,359,312,1,
,,,,,,,,,,,,,,,,,,5e6d03bffab3ff2c403cb205,2020-08-10_16h20.58.244,lexical_decision_task_MP,2020.1.3,Win32,60,,z,1,0.557825,,,,,,,,0.557825,1,,,,,,445,NW,UN,33,runamo,MINKEL,z,,,,,,0.013020833,-0.256510417,0,0,0,,0,360,360,384,1,
,,,,,,,,,,,,,,,,,,5e6d03bffab3ff2c403cb205,2020-08-10_16h20.58.244,lexical_decision_task_MP,2020.1.3,Win32,60,,m,1,1.033595,,,,,,,,1.033595,1,,,,,,205,WORD,UN,33,tailor,LOUNGE,m,,,,,,0.013020833,-0.256510417,0,0,0,,0,361,361,144,1,
,,,,,,,,,,,,,,,,,,5e6d03bffab3ff2c403cb205,2020-08-10_16h20.58.244,lexical_decision_task_MP,2020.1.3,Win32,60,,m,1,1.28876,,,,,,,,1.28876,1,,,,,,141,WORD,"ID",50,orphan,ORPHAN,m,,,,,,0.065104167,-0.390625,1,0,0,,0,362,362,80,1,break_done_button
,,,,,,,,,,,,,,,,,,5e6d03bffab3ff2c403cb205,2020-08-10_16h20.58.244,lexical_decision_task_MP,2020.1.3,Win32,60,,z,1,0.957665,,,,,,,,0.957665,1,,,,,,358,NW,"ID",33,fleack,FLEACK,z,,,,,,0.065104167,-0.391927083,0,0,0,,0,363,363,297,1,
,,,,,,,,,,,,,,,,,,5e6d03bffab3ff2c403cb205,2020-08-10_16h20.58.244,lexical_decision_task_MP,2020.1.3,Win32,60,,m,1,0.518975,,,,,,,,0.518975,1,,,,,,178,WORD,"ID",50,inform,INFORM,m,,,,,,0.065104167,-0.391927083,0,0,0,,0,364,364,117,1,
,,,,,,,,,,,,,,,,,,5e6d03bffab3ff2c403cb205,2020-08-10_16h20.58.244,lexical_decision_task_MP,2020.1.3,Win32,60,,z,1,0.842435,,,,,,,,0.842435,1,,,,,,293,NW,UN,50,inhort,SWANCE,z,,,,,,0.065104167,-0.391927083,0,0,0,,0,365,365,472,1,
,,,,,,,,,,,,,,,,,,5e6d03bffab3ff2c403cb205,2020-08-10_16h20.58.244,lexical_decision_task_MP,2020.1.3,Win32,60,,z,1,0.62373,,,,,,,,0.62373,1,,,,,,410,NW,"ID",50,tunory,TUNORY,z,,,,,,0.065104167,-0.391927083,0,0,0,,0,366,366,349,1,
,,,,,,,,,,,,,,,,,,5e6d03bffab3ff2c403cb205,2020-08-10_16h20.58.244,lexical_decision_task_MP,2020.1.3,Win32,60,,z,1,0.593,,,,,,,,0.593,1,,,,,,251,NW,UN,50,stapod,LUPICT,z,,,,,,0.065104167,-0.391927083,0,0,0,,0,367,367,430,1,
,,,,,,,,,,,,,,,,,,5e6d03bffab3ff2c403cb205,2020-08-10_16h20.58.244,lexical_decision_task_MP,2020.1.3,Win32,60,,m,1,1.27492,,,,,,,,1.27492,1,,,,,,175,WORD,"ID",50,fabric,FABRIC,m,,,,,,0.065104167,-0.391927083,0,0,0,,0,368,368,114,1,
,,,,,,,,,,,,,,,,,,5e6d03bffab3ff2c403cb205,2020-08-10_16h20.58.244,lexical_decision_task_MP,2020.1.3,Win32,60,,m,1,0.5361,,,,,,,,0.5361,1,,,,,,17,WORD,UN,50,humble,CHARGE,m,,,,,,0.065104167,-0.391927083,0,0,0,,0,369,369,196,1,
,,,,,,,,,,,,,,,,,,5e6d03bffab3ff2c403cb205,2020-08-10_16h20.58.244,lexical_decision_task_MP,2020.1.3,Win32,60,,m,0,0.519425,,,,,,,,0.519425,0,,,,,,380,NW,"ID",50,cavory,CAVORY,z,,,,,,0.065104167,-0.391927083,0,0,0,,0,370,370,319,1,
,,,,,,,,,,,,,,,,,,5e6d03bffab3ff2c403cb205,2020-08-10_16h20.58.244,lexical_decision_task_MP,2020.1.3,Win32,60,,m,1,0.688,,,,,,,,0.688,1,,,,,,41,WORD,UN,50,chapel,SPRING,m,,,,,,0.065104167,-0.391927083,0,0,0,,0,371,371,220,1,
,,,,,,,,,,,,,,,,,,5e6d03bffab3ff2c403cb205,2020-08-10_16h20.58.244,lexical_decision_task_MP,2020.1.3,Win32,60,,m,1,0.748485,,,,,,,,0.748485,1,,,,,,125,WORD,"ID",50,nickel,NICKEL,m,,,,,,0.065104167,-0.391927083,0,0,0,,0,372,372,64,1,
,,,,,,,,,,,,,,,,,,5e6d03bffab3ff2c403cb205,2020-08-10_16h20.58.244,lexical_decision_task_MP,2020.1.3,Win32,60,,z,1,0.64989,,,,,,,,0.64989,1,,,,,,375,NW,"ID",50,yorque,YORQUE,z,,,,,,0.065104167,-0.391927083,0,0,0,,0,373,373,314,1,
,,,,,,,,,,,,,,,,,,5e6d03bffab3ff2c403cb205,2020-08-10_16h20.58.244,lexical_decision_task_MP,2020.1.3,Win32,60,,m,1,0.45476,,,,,,,,0.45476,1,,,,,,133,WORD,"ID",50,chrome,CHROME,m,,,,,,0.065104167,-0.391927083,0,0,0,,0,374,374,72,1,
,,,,,,,,,,,,,,,,,,5e6d03bffab3ff2c403cb205,2020-08-10_16h20.58.244,lexical_decision_task_MP,2020.1.3,Win32,60,,m,1,0.461195,,,,,,,,0.461195,1,,,,,,138,WORD,"ID",50,melody,MELODY,m,,,,,,0.065104167,-0.391927083,0,0,0,,0,375,375,77,1,
,,,,,,,,,,,,,,,,,,5e6d03bffab3ff2c403cb205,2020-08-10_16h20.58.244,lexical_decision_task_MP,2020.1.3,Win32,60,,m,1,0.47608,,,,,,,,0.47608,1,,,,,,67,WORD,"ID",33,policy,POLICY,m,,,,,,0.065104167,-0.391927083,0,0,0,,0,376,376,6,1,
,,,,,,,,,,,,,,,,,,5e6d03bffab3ff2c403cb205,2020-08-10_16h20.58.244,lexical_decision_task_MP,2020.1.3,Win32,60,,z,1,0.48441,,,,,,,,0.48441,1,,,,,,285,NW,UN,50,reldon,PRUDGE,z,,,,,,0.065104167,-0.391927083,0,0,0,,0,377,377,464,1,
,,,,,,,,,,,,,,,,,,5e6d03bffab3ff2c403cb205,2020-08-10_16h20.58.244,lexical_decision_task_MP,2020.1.3,Win32,60,,m,1,0.656135,,,,,,,,0.656135,1,,,,,,83,WORD,"ID",33,result,RESULT,m,,,,,,0.065104167,-0.391927083,0,0,0,,0,378,378,22,1,
,,,,,,,,,,,,,,,,,,5e6d03bffab3ff2c403cb205,2020-08-10_16h20.58.244,lexical_decision_task_MP,2020.1.3,Win32,60,,m,1,0.478325,,,,,,,,0.478325,1,,,,,,2,WORD,UN,50,knight,BRIDGE,m,,,,,,0.065104167,-0.391927083,0,0,0,,0,379,379,181,1,
,,,,,,,,,,,,,,,,,,5e6d03bffab3ff2c403cb205,2020-08-10_16h20.58.244,lexical_decision_task_MP,2020.1.3,Win32,60,,m,1,0.755615,,,,,,,,0.755615,1,,,,,,176,WORD,"ID",50,strife,STRIFE,m,,,,,,0.065104167,-0.391927083,0,0,0,,0,380,380,115,1,
,,,,,,,,,,,,,,,,,,5e6d03bffab3ff2c403cb205,2020-08-10_16h20.58.244,lexical_decision_task_MP,2020.1.3,Win32,60,,m,1,0.818365,,,,,,,,0.818365,1,,,,,,126,WORD,"ID",50,enough,ENOUGH,m,,,,,,0.065104167,-0.391927083,0,0,0,,0,381,381,65,1,
,,,,,,,,,,,,,,,,,,5e6d03bffab3ff2c403cb205,2020-08-10_16h20.58.244,lexical_decision_task_MP,2020.1.3,Win32,60,,m,1,0.405505,,,,,,,,0.405505,1,,,,,,114,WORD,"ID",33,placid,PLACID,m,,,,,,0.065104167,-0.391927083,0,0,0,,0,382,382,53,1,
,,,,,,,,,,,,,,,,,,5e6d03bffab3ff2c403cb205,2020-08-10_16h20.58.244,lexical_decision_task_MP,2020.1.3,Win32,60,,m,1,0.454235,,,,,,,,0.454235,1,,,,,,132,WORD,"ID",50,strong,STRONG,m,,,,,,0.065104167,-0.391927083,0,0,0,,0,383,383,71,1,
,,,,,,,,,,,,,,,,,,5e6d03bffab3ff2c403cb205,2020-08-10_16h20.58.244,lexical_decision_task_MP,2020.1.3,Win32,60,,m,0,0.366805,,,,,,,,0.366805,0,,,,,,456,NW,UN,33,wanigh,BROGET,z,,,,,,0.065104167,-0.391927083,0,0,0,,0,384,384,395,1,
,,,,,,,,,,,,,,,,,,5e6d03bffab3ff2c403cb205,2020-08-10_16h20.58.244,lexical_decision_task_MP,2020.1.3,Win32,60,,z,1,0.59013,,,,,,,,0.59013,1,,,,,,386,NW,"ID",50,ancust,ANCUST,z,,,,,,0.065104167,-0.391927083,0,0,0,,0,385,385,325,1,
,,,,,,,,,,,,,,,,,,5e6d03bffab3ff2c403cb205,2020-08-10_16h20.58.244,lexical_decision_task_MP,2020.1.3,Win32,60,,z,1,0.71988,,,,,,,,0.71988,1,,,,,,392,NW,"ID",50,rouncy,ROUNCY,z,,,,,,0.065104167,-0.391927083,0,0,0,,0,386,386,331,1,
,,,,,,,,,,,,,,,,,,5e6d03bffab3ff2c403cb205,2020-08-10_16h20.58.244,lexical_decision_task_MP,2020.1.3,Win32,60,,z,1,0.52386,,,,,,,,0.52386,1,,,,,,339,NW,"ID",33,fachow,FACHOW,z,,,,,,0.065104167,-0.391927083,0,0,0,,0,387,387,278,1,
,,,,,,,,,,,,,,,,,,5e6d03bffab3ff2c403cb205,2020-08-10_16h20.58.244,lexical_decision_task_MP,2020.1.3,Win32,60,,z,1,0.483185,,,,,,,,0.483185,1,,,,,,340,NW,"ID",33,fiatch,FIATCH,z,,,,,,0.065104167,-0.391927083,0,0,0,,0,388,388,279,1,
,,,,,,,,,,,,,,,,,,5e6d03bffab3ff2c403cb205,2020-08-10_16h20.58.244,lexical_decision_task_MP,2020.1.3,Win32,60,,z,1,1.06975,,,,,,,,1.06975,1,,,,,,274,NW,UN,50,sleirt,FUMBLO,z,,,,,,0.065104167,-0.391927083,0,0,0,,0,389,389,453,1,
,,,,,,,,,,,,,,,,,,5e6d03bffab3ff2c403cb205,2020-08-10_16h20.58.244,lexical_decision_task_MP,2020.1.3,Win32,60,,m,1,0.7285,,,,,,,,0.7285,1,,,,,,224,WORD,UN,33,vulgar,PERIOD,m,,,,,,0.065104167,-0.391927083,0,0,0,,0,390,390,163,1,
,,,,,,,,,,,,,,,,,,5e6d03bffab3ff2c403cb205,2020-08-10_16h20.58.244,lexical_decision_task_MP,2020.1.3,Win32,60,,m,1,0.60784,,,,,,,,0.60784,1,,,,,,23,WORD,UN,50,praise,WEALTH,m,,,,,,0.065104167,-0.391927083,0,0,0,,0,391,391,202,1,
,,,,,,,,,,,,,,,,,,5e6d03bffab3ff2c403cb205,2020-08-10_16h20.58.244,lexical_decision_task_MP,2020.1.3,Win32,60,,m,0,0.407185,,,,,,,,0.407185,0,,,,,,377,NW,"ID",50,injore,INJORE,z,,,,,,0.065104167,-0.391927083,0,0,0,,0,392,392,316,1,
,,,,,,,,,,,,,,,,,,5e6d03bffab3ff2c403cb205,2020-08-10_16h20.58.244,lexical_decision_task_MP,2020.1.3,Win32,60,,z,1,0.801465,,,,,,,,0.801465,1,,,,,,480,NW,UN,33,knisma,ROBULY,z,,,,,,0.065104167,-0.391927083,0,0,0,,0,393,393,419,1,
,,,,,,,,,,,,,,,,,,5e6d03bffab3ff2c403cb205,2020-08-10_16h20.58.244,lexical_decision_task_MP,2020.1.3,Win32,60,,z,0,0.752615,,,,,,,,0.752615,0,,,,,,21,WORD,UN,50,jockey,SIMPLE,m,,,,,,0.065104167,-0.391927083,0,0,0,,0,394,394,200,1,
,,,,,,,,,,,,,,,,,,5e6d03bffab3ff2c403cb205,2020-08-10_16h20.58.244,lexical_decision_task_MP,2020.1.3,Win32,60,,m,1,0.533645,,,,,,,,0.533645,1,,,,,,47,WORD,UN,50,walnut,INCOME,m,,,,,,0.065104167,-0.391927083,0,0,0,,0,395,395,226,1,
,,,,,,,,,,,,,,,,,,5e6d03bffab3ff2c403cb205,2020-08-10_16h20.58.244,lexical_decision_task_MP,2020.1.3,Win32,60,,m,1,0.96794,,,,,,,,0.96794,1,,,,,,131,WORD,"ID",50,quench,QUENCH,m,,,,,,0.065104167,-0.391927083,0,0,0,,0,396,396,70,1,
,,,,,,,,,,,,,,,,,,5e6d03bffab3ff2c403cb205,2020-08-10_16h20.58.244,lexical_decision_task_MP,2020.1.3,Win32,60,,m,1,0.4831,,,,,,,,0.4831,1,,,,,,155,WORD,"ID",50,lizard,LIZARD,m,,,,,,0.065104167,-0.391927083,0,0,0,,0,397,397,94,1,
,,,,,,,,,,,,,,,,,,5e6d03bffab3ff2c403cb205,2020-08-10_16h20.58.244,lexical_decision_task_MP,2020.1.3,Win32,60,,z,1,0.704505,,,,,,,,0.704505,1,,,,,,267,NW,UN,50,packes,PASINK,z,,,,,,0.065104167,-0.391927083,0,0,0,,0,398,398,446,1,
,,,,,,,,,,,,,,,,,,5e6d03bffab3ff2c403cb205,2020-08-10_16h20.58.244,lexical_decision_task_MP,2020.1.3,Win32,60,,m,1,0.53334,,,,,,,,0.53334,1,,,,,,120,WORD,"ID",33,strain,STRAIN,m,,,,,,0.065104167,-0.391927083,0,0,0,,0,399,399,59,1,
,,,,,,,,,,,,,,,,,,5e6d03bffab3ff2c403cb205,2020-08-10_16h20.58.244,lexical_decision_task_MP,2020.1.3,Win32,60,,z,0,0.54419,,,,,,,,0.54419,0,,,,,,184,WORD,UN,33,bother,SLEAZY,m,,,,,,0.065104167,-0.391927083,0,0,0,,0,400,400,123,1,
,,,,,,,,,,,,,,,,,,5e6d03bffab3ff2c403cb205,2020-08-10_16h20.58.244,lexical_decision_task_MP,2020.1.3,Win32,60,,m,1,0.481695,,,,,,,,0.481695,1,,,,,,3,WORD,UN,50,trench,KNIGHT,m,,,,,,0.065104167,-0.391927083,0,0,0,,0,401,401,182,1,
