counterbalancing_condition,instr_done_keyboard.keys,instr_done_keyboard.rt,instr_done_touch.x,instr_done_touch.y,instr_done_touch.leftButton,instr_done_touch.midButton,instr_done_touch.rightButton,instruction_pages.thisRepN,instruction_pages.thisTrialN,instruction_pages.thisN,instruction_pages.thisIndex,instruction_pages.ran,pageN,phase,instruct_text,has_image,instruct_image,participant,date,expName,psychopyVersion,OS,frameRate,response.keys,response.corr,response.rt,touch_resp.x,touch_resp.y,touch_resp.leftButton,touch_resp.midButton,touch_resp.rightButton,touch_resp.time,touch_resp.clicked_name,rt,corr,practice_trials.thisRepN,practice_trials.thisTrialN,practice_trials.thisN,practice_trials.thisIndex,practice_trials.ran,TrialID,StimulusType,Condition,PrimeDuration,Prime,Target,corrAns,instr_done_touch.clicked_name,end_of_practice_trials_pages.thisRepN,end_of_practice_trials_pages.thisTrialN,end_of_practice_trials_pages.thisN,end_of_practice_trials_pages.thisIndex,end_of_practice_trials_pages.ran,break_done_touch.x,break_done_touch.y,break_done_touch.leftButton,break_done_touch.midButton,break_done_touch.rightButton,break_done_keyboard.keys,trials.thisRepN,trials.thisTrialN,trials.thisN,trials.thisIndex,trials.ran,break_done_keyboard.rt
1,space,5.3637,0.136111142,-0.238888911,0,0,0,0,0,0,0,1,1,instructions,"INSTRUCTIONS
At the start of each trial, look at the hash marks (######) in the center of the screen. After a moment, a string of letters will appear. Your task is to indicate if the letter string forms a word or not (i.e., if it is a nonword). For example, AUTHOR is a word while AUTHON is a nonword.

Press the space bar or touch the button below to continue.",0,,5e71a80784155f0c75a56c70,2020-08-10_10h23.19.876,lexical_decision_task_MP,2020.1.3,Win32,60,,,,,,,,,,,,,,,,,,,,,,,,,,,,,,,,,,,,,,,,,,
,space,4.949905,0.136111142,-0.238888911,0,0,0,0,1,1,1,1,2,instructions,"If your device has a keyboard, press the 'Z' key for nonwords and the 'M' key for words.





Press the space bar or touch the button below to continue.",1,keyboard-example.gif,5e71a80784155f0c75a56c70,2020-08-10_10h23.19.876,lexical_decision_task_MP,2020.1.3,Win32,60,,,,,,,,,,,,,,,,,,,,,,,,,,,,,,,,,,,,,,,,,,
,space,1.206045,0.136111142,-0.238888911,0,0,0,0,2,2,2,1,3,instructions,"If you are using a touchscreen only device, use the buttons on the screen. Do not use the mouse.





Press the space bar or touch the button below to continue.",1,touchscreen-example.gif,5e71a80784155f0c75a56c70,2020-08-10_10h23.19.876,lexical_decision_task_MP,2020.1.3,Win32,60,,,,,,,,,,,,,,,,,,,,,,,,,,,,,,,,,,,,,,,,,,
,space,1.54427,0.136111142,-0.238888911,0,0,0,0,3,3,3,1,4,instructions,"It is very important that you respond as quickly and accurately as possible, as each letter string will only be on the screen for two seconds. If you do not respond within this time, the message 'Too slow!' will be displayed and the experiment will progress to the next letter string. The first 20 trials will be practice trials and you will receive feedback on your answers. 

Press the space bar or touch the button below to start the practice trials.",0,,5e71a80784155f0c75a56c70,2020-08-10_10h23.19.876,lexical_decision_task_MP,2020.1.3,Win32,60,,,,,,,,,,,,,,,,,,,,,,,,,,,,,,,,,,,,,,,,,,
,,,,,,,,,,,,,,,,,,5e71a80784155f0c75a56c70,2020-08-10_10h23.19.876,lexical_decision_task_MP,2020.1.3,Win32,60,z,1,0.721875,,,,,,,,0.721875,1,0,0,0,10,1,1011,NW,"ID",50,inlade,INLADE,z,,,,,,,,,,,,,,,,,,
,,,,,,,,,,,,,,,,,,5e71a80784155f0c75a56c70,2020-08-10_10h23.19.876,lexical_decision_task_MP,2020.1.3,Win32,60,m,1,0.43205,,,,,,,,0.43205,1,0,1,1,2,1,1003,WORD,"ID",50,almond,ALMOND,m,,,,,,,,,,,,,,,,,,
,,,,,,,,,,,,,,,,,,5e71a80784155f0c75a56c70,2020-08-10_10h23.19.876,lexical_decision_task_MP,2020.1.3,Win32,60,z,1,0.632035,,,,,,,,0.632035,1,0,2,2,11,1,1012,NW,"ID",50,rashet,RASHET,z,,,,,,,,,,,,,,,,,,
,,,,,,,,,,,,,,,,,,5e71a80784155f0c75a56c70,2020-08-10_10h23.19.876,lexical_decision_task_MP,2020.1.3,Win32,60,z,1,0.48599,,,,,,,,0.48599,1,0,3,3,14,1,1015,NW,UN,50,miaber,THRALE,z,,,,,,,,,,,,,,,,,,
,,,,,,,,,,,,,,,,,,5e71a80784155f0c75a56c70,2020-08-10_10h23.19.876,lexical_decision_task_MP,2020.1.3,Win32,60,m,1,0.43929,,,,,,,,0.43929,1,0,4,4,1,1,1002,WORD,"ID",33,adjust,ADJUST,m,,,,,,,,,,,,,,,,,,
,,,,,,,,,,,,,,,,,,5e71a80784155f0c75a56c70,2020-08-10_10h23.19.876,lexical_decision_task_MP,2020.1.3,Win32,60,z,1,0.497785,,,,,,,,0.497785,1,0,5,5,13,1,1014,NW,UN,33,winfer,ROUPET,z,,,,,,,,,,,,,,,,,,
,,,,,,,,,,,,,,,,,,5e71a80784155f0c75a56c70,2020-08-10_10h23.19.876,lexical_decision_task_MP,2020.1.3,Win32,60,m,1,0.453225,,,,,,,,0.453225,1,0,6,6,4,1,1005,WORD,UN,33,abound,SQUEAK,m,,,,,,,,,,,,,,,,,,
,,,,,,,,,,,,,,,,,,5e71a80784155f0c75a56c70,2020-08-10_10h23.19.876,lexical_decision_task_MP,2020.1.3,Win32,60,m,0,0.5166,,,,,,,,0.5166,0,0,7,7,12,1,1013,NW,UN,33,adveil,SPRINY,z,,,,,,,,,,,,,,,,,,
,,,,,,,,,,,,,,,,,,5e71a80784155f0c75a56c70,2020-08-10_10h23.19.876,lexical_decision_task_MP,2020.1.3,Win32,60,z,1,0.38873,,,,,,,,0.38873,1,0,8,8,8,1,1009,NW,"ID",33,aslert,ASLERT,z,,,,,,,,,,,,,,,,,,
,,,,,,,,,,,,,,,,,,5e71a80784155f0c75a56c70,2020-08-10_10h23.19.876,lexical_decision_task_MP,2020.1.3,Win32,60,m,1,0.346835,,,,,,,,0.346835,1,0,9,9,6,1,1007,WORD,UN,50,tropic,ZOMBIE,m,,,,,,,,,,,,,,,,,,
,,,,,,,,,,,,,,,,,,5e71a80784155f0c75a56c70,2020-08-10_10h23.19.876,lexical_decision_task_MP,2020.1.3,Win32,60,m,1,0.42418,,,,,,,,0.42418,1,0,10,10,5,1,1006,WORD,UN,33,frenzy,OBTAIN,m,,,,,,,,,,,,,,,,,,
,,,,,,,,,,,,,,,,,,5e71a80784155f0c75a56c70,2020-08-10_10h23.19.876,lexical_decision_task_MP,2020.1.3,Win32,60,m,1,0.400305,,,,,,,,0.400305,1,0,11,11,7,1,1008,WORD,UN,50,hurdle,VOLUME,m,,,,,,,,,,,,,,,,,,
,,,,,,,,,,,,,,,,,,5e71a80784155f0c75a56c70,2020-08-10_10h23.19.876,lexical_decision_task_MP,2020.1.3,Win32,60,m,1,0.21644,,,,,,,,0.21644,1,0,12,12,3,1,1004,WORD,"ID",50,matrix,MATRIX,m,,,,,,,,,,,,,,,,,,
,,,,,,,,,,,,,,,,,,5e71a80784155f0c75a56c70,2020-08-10_10h23.19.876,lexical_decision_task_MP,2020.1.3,Win32,60,z,0,0.5821,,,,,,,,0.5821,0,0,13,13,0,1,1001,WORD,"ID",33,utopia,UTOPIA,m,,,,,,,,,,,,,,,,,,
,,,,,,,,,,,,,,,,,,5e71a80784155f0c75a56c70,2020-08-10_10h23.19.876,lexical_decision_task_MP,2020.1.3,Win32,60,z,1,0.500295,,,,,,,,0.500295,1,0,14,14,9,1,1010,NW,"ID",33,fariny,FARINY,z,,,,,,,,,,,,,,,,,,
,,,,,,,,,,,,,,,,,,5e71a80784155f0c75a56c70,2020-08-10_10h23.19.876,lexical_decision_task_MP,2020.1.3,Win32,60,m,0,0.332445,,,,,,,,0.332445,0,0,15,15,15,1,1016,NW,UN,50,mushed,WHAISE,z,,,,,,,,,,,,,,,,,,
,,,-0.025925844,-0.398148175,1,0,0,,,,,,1,end_of_practice,"You have completed the practice trials. During the experimental trials, you will not receive feedback, but it is very important that you respond as quickly and accurately as possible. 
Before you begin, please ensure that you are in a comfortable and quiet location and will not be disturbed for about 15 minutes, as we cannot use your data if you do not complete all the trials. 
There will be opportunities to take breaks at regular intervals during the experiment. When you are ready to start the experimental trials, please press space or touch the button below.",,,5e71a80784155f0c75a56c70,2020-08-10_10h23.19.876,lexical_decision_task_MP,2020.1.3,Win32,60,,,,,,,,,,,,,,,,,,,,,,,,,instr_done_button,0,0,0,0,1,,,,,,,,,,,,
,,,,,,,,,,,,,,,,,,5e71a80784155f0c75a56c70,2020-08-10_10h23.19.876,lexical_decision_task_MP,2020.1.3,Win32,60,m,0,0.7045,,,,,,,,0.7045,0,,,,,,252,NW,"ID",33,stapod,STAPOD,z,,,,,,,0.379629667,0.029629587,0,0,0,,0,0,0,251,1,
,,,,,,,,,,,,,,,,,,5e71a80784155f0c75a56c70,2020-08-10_10h23.19.876,lexical_decision_task_MP,2020.1.3,Win32,60,m,1,0.31602,,,,,,,,0.31602,1,,,,,,94,WORD,"ID",50,travel,TRAVEL,m,,,,,,,0.379629667,0.029629587,0,0,0,,0,1,1,93,1,
,,,,,,,,,,,,,,,,,,5e71a80784155f0c75a56c70,2020-08-10_10h23.19.876,lexical_decision_task_MP,2020.1.3,Win32,60,z,1,0.53937,,,,,,,,0.53937,1,,,,,,405,NW,UN,33,nouply,FLUMNI,z,,,,,,,0.379629667,0.029629587,0,0,0,,0,2,2,404,1,
,,,,,,,,,,,,,,,,,,5e71a80784155f0c75a56c70,2020-08-10_10h23.19.876,lexical_decision_task_MP,2020.1.3,Win32,60,m,1,0.322105,,,,,,,,0.322105,1,,,,,,218,WORD,UN,50,bucket,SHRINK,m,,,,,,,0.379629667,0.029629587,0,0,0,,0,3,3,217,1,
,,,,,,,,,,,,,,,,,,5e71a80784155f0c75a56c70,2020-08-10_10h23.19.876,lexical_decision_task_MP,2020.1.3,Win32,60,m,0,0.45015,,,,,,,,0.45015,0,,,,,,357,NW,"ID",50,derain,DERAIN,z,,,,,,,0.379629667,0.029629587,0,0,0,,0,4,4,356,1,
,,,,,,,,,,,,,,,,,,5e71a80784155f0c75a56c70,2020-08-10_10h23.19.876,lexical_decision_task_MP,2020.1.3,Win32,60,m,0,0.382695,,,,,,,,0.382695,0,,,,,,317,NW,"ID",50,worbal,WORBAL,z,,,,,,,0.379629667,0.029629587,0,0,0,,0,5,5,316,1,
,,,,,,,,,,,,,,,,,,5e71a80784155f0c75a56c70,2020-08-10_10h23.19.876,lexical_decision_task_MP,2020.1.3,Win32,60,z,1,0.503325,,,,,,,,0.503325,1,,,,,,257,NW,"ID",33,veniod,VENIOD,z,,,,,,,0.379629667,0.029629587,0,0,0,,0,6,6,256,1,
,,,,,,,,,,,,,,,,,,5e71a80784155f0c75a56c70,2020-08-10_10h23.19.876,lexical_decision_task_MP,2020.1.3,Win32,60,z,1,0.59867,,,,,,,,0.59867,1,,,,,,477,NW,UN,50,acrise,PHOTIE,z,,,,,,,0.379629667,0.029629587,0,0,0,,0,7,7,476,1,
,,,,,,,,,,,,,,,,,,5e71a80784155f0c75a56c70,2020-08-10_10h23.19.876,lexical_decision_task_MP,2020.1.3,Win32,60,m,1,0.60303,,,,,,,,0.60303,1,,,,,,146,WORD,UN,33,garlic,COUPLE,m,,,,,,,0.379629667,0.029629587,0,0,0,,0,8,8,145,1,
,,,,,,,,,,,,,,,,,,5e71a80784155f0c75a56c70,2020-08-10_10h23.19.876,lexical_decision_task_MP,2020.1.3,Win32,60,m,1,0.5386,,,,,,,,0.5386,1,,,,,,232,WORD,UN,50,nature,INJECT,m,,,,,,,0.379629667,0.029629587,0,0,0,,0,9,9,231,1,
,,,,,,,,,,,,,,,,,,5e71a80784155f0c75a56c70,2020-08-10_10h23.19.876,lexical_decision_task_MP,2020.1.3,Win32,60,m,1,0.46453,,,,,,,,0.46453,1,,,,,,113,WORD,"ID",50,chorus,CHORUS,m,,,,,,,0.379629667,0.029629587,0,0,0,,0,10,10,112,1,
,,,,,,,,,,,,,,,,,,5e71a80784155f0c75a56c70,2020-08-10_10h23.19.876,lexical_decision_task_MP,2020.1.3,Win32,60,z,1,0.519265,,,,,,,,0.519265,1,,,,,,428,NW,UN,50,chrums,TANDLY,z,,,,,,,0.379629667,0.029629587,0,0,0,,0,11,11,427,1,
,,,,,,,,,,,,,,,,,,5e71a80784155f0c75a56c70,2020-08-10_10h23.19.876,lexical_decision_task_MP,2020.1.3,Win32,60,m,1,0.46567,,,,,,,,0.46567,1,,,,,,205,WORD,UN,50,tailor,LOUNGE,m,,,,,,,0.379629667,0.029629587,0,0,0,,0,12,12,204,1,
,,,,,,,,,,,,,,,,,,5e71a80784155f0c75a56c70,2020-08-10_10h23.19.876,lexical_decision_task_MP,2020.1.3,Win32,60,z,1,0.46008,,,,,,,,0.46008,1,,,,,,324,NW,"ID",50,steikh,STEIKH,z,,,,,,,0.379629667,0.029629587,0,0,0,,0,13,13,323,1,
,,,,,,,,,,,,,,,,,,5e71a80784155f0c75a56c70,2020-08-10_10h23.19.876,lexical_decision_task_MP,2020.1.3,Win32,60,z,1,0.527795,,,,,,,,0.527795,1,,,,,,408,NW,UN,33,flumni,HURNIA,z,,,,,,,0.379629667,0.029629587,0,0,0,,0,14,14,407,1,
,,,,,,,,,,,,,,,,,,5e71a80784155f0c75a56c70,2020-08-10_10h23.19.876,lexical_decision_task_MP,2020.1.3,Win32,60,m,1,0.40302,,,,,,,,0.40302,1,,,,,,209,WORD,UN,50,monkey,SEARCH,m,,,,,,,0.379629667,0.029629587,0,0,0,,0,15,15,208,1,
,,,,,,,,,,,,,,,,,,5e71a80784155f0c75a56c70,2020-08-10_10h23.19.876,lexical_decision_task_MP,2020.1.3,Win32,60,z,1,0.517095,,,,,,,,0.517095,1,,,,,,456,NW,UN,50,wanigh,BROGET,z,,,,,,,0.379629667,0.029629587,0,0,0,,0,16,16,455,1,
,,,,,,,,,,,,,,,,,,5e71a80784155f0c75a56c70,2020-08-10_10h23.19.876,lexical_decision_task_MP,2020.1.3,Win32,60,m,1,0.39931,,,,,,,,0.39931,1,,,,,,158,WORD,UN,33,detail,ISLAND,m,,,,,,,0.379629667,0.029629587,0,0,0,,0,17,17,157,1,
,,,,,,,,,,,,,,,,,,5e71a80784155f0c75a56c70,2020-08-10_10h23.19.876,lexical_decision_task_MP,2020.1.3,Win32,60,m,1,0.485145,,,,,,,,0.485145,1,,,,,,54,WORD,"ID",33,ramble,RAMBLE,m,,,,,,,0.379629667,0.029629587,0,0,0,,0,18,18,53,1,
,,,,,,,,,,,,,,,,,,5e71a80784155f0c75a56c70,2020-08-10_10h23.19.876,lexical_decision_task_MP,2020.1.3,Win32,60,z,1,0.55062,,,,,,,,0.55062,1,,,,,,296,NW,"ID",33,beinch,BEINCH,z,,,,,,,0.379629667,0.029629587,0,0,0,,0,19,19,295,1,
,,,,,,,,,,,,,,,,,,5e71a80784155f0c75a56c70,2020-08-10_10h23.19.876,lexical_decision_task_MP,2020.1.3,Win32,60,m,1,0.46008,,,,,,,,0.46008,1,,,,,,194,WORD,UN,50,resign,ABSENT,m,,,,,,,0.379629667,0.029629587,0,0,0,,0,20,20,193,1,
,,,,,,,,,,,,,,,,,,5e71a80784155f0c75a56c70,2020-08-10_10h23.19.876,lexical_decision_task_MP,2020.1.3,Win32,60,m,1,0.571905,,,,,,,,0.571905,1,,,,,,198,WORD,UN,50,invoke,WICKED,m,,,,,,,0.379629667,0.029629587,0,0,0,,0,21,21,197,1,
,,,,,,,,,,,,,,,,,,5e71a80784155f0c75a56c70,2020-08-10_10h23.19.876,lexical_decision_task_MP,2020.1.3,Win32,60,m,1,0.45438,,,,,,,,0.45438,1,,,,,,136,WORD,UN,33,finger,BLEACH,m,,,,,,,0.379629667,0.029629587,0,0,0,,0,22,22,135,1,
,,,,,,,,,,,,,,,,,,5e71a80784155f0c75a56c70,2020-08-10_10h23.19.876,lexical_decision_task_MP,2020.1.3,Win32,60,z,1,0.55635,,,,,,,,0.55635,1,,,,,,377,NW,UN,33,shrile,INJORE,z,,,,,,,0.379629667,0.029629587,0,0,0,,0,23,23,376,1,
,,,,,,,,,,,,,,,,,,5e71a80784155f0c75a56c70,2020-08-10_10h23.19.876,lexical_decision_task_MP,2020.1.3,Win32,60,m,1,0.43157,,,,,,,,0.43157,1,,,,,,180,WORD,UN,33,thrive,SILENT,m,,,,,,,0.379629667,0.029629587,0,0,0,,0,24,24,179,1,
,,,,,,,,,,,,,,,,,,5e71a80784155f0c75a56c70,2020-08-10_10h23.19.876,lexical_decision_task_MP,2020.1.3,Win32,60,m,1,0.449055,,,,,,,,0.449055,1,,,,,,30,WORD,"ID",33,orient,ORIENT,m,,,,,,,0.379629667,0.029629587,0,0,0,,0,25,25,29,1,
,,,,,,,,,,,,,,,,,,5e71a80784155f0c75a56c70,2020-08-10_10h23.19.876,lexical_decision_task_MP,2020.1.3,Win32,60,z,1,0.421535,,,,,,,,0.421535,1,,,,,,315,NW,"ID",50,laston,LASTON,z,,,,,,,0.379629667,0.029629587,0,0,0,,0,26,26,314,1,
,,,,,,,,,,,,,,,,,,5e71a80784155f0c75a56c70,2020-08-10_10h23.19.876,lexical_decision_task_MP,2020.1.3,Win32,60,m,1,0.471505,,,,,,,,0.471505,1,,,,,,206,WORD,UN,50,wreath,TAILOR,m,,,,,,,0.379629667,0.029629587,0,0,0,,0,27,27,205,1,
,,,,,,,,,,,,,,,,,,5e71a80784155f0c75a56c70,2020-08-10_10h23.19.876,lexical_decision_task_MP,2020.1.3,Win32,60,z,1,0.466645,,,,,,,,0.466645,1,,,,,,471,NW,UN,50,cigney,NOBEST,z,,,,,,,0.379629667,0.029629587,0,0,0,,0,28,28,470,1,
,,,,,,,,,,,,,,,,,,5e71a80784155f0c75a56c70,2020-08-10_10h23.19.876,lexical_decision_task_MP,2020.1.3,Win32,60,m,0,0.37443,,,,,,,,0.37443,0,,,,,,263,NW,"ID",33,dolica,DOLICA,z,,,,,,,0.379629667,0.029629587,0,0,0,,0,29,29,262,1,
,,,,,,,,,,,,,,,,,,5e71a80784155f0c75a56c70,2020-08-10_10h23.19.876,lexical_decision_task_MP,2020.1.3,Win32,60,m,1,0.351515,,,,,,,,0.351515,1,,,,,,65,WORD,"ID",50,symbol,SYMBOL,m,,,,,,,0.379629667,0.029629587,0,0,0,,0,30,30,64,1,
,,,,,,,,,,,,,,,,,,5e71a80784155f0c75a56c70,2020-08-10_10h23.19.876,lexical_decision_task_MP,2020.1.3,Win32,60,m,1,0.436155,,,,,,,,0.436155,1,,,,,,235,WORD,UN,50,pirate,GRUMPY,m,,,,,,,0.379629667,0.029629587,0,0,0,,0,31,31,234,1,
,,,,,,,,,,,,,,,,,,5e71a80784155f0c75a56c70,2020-08-10_10h23.19.876,lexical_decision_task_MP,2020.1.3,Win32,60,m,1,0.50152,,,,,,,,0.50152,1,,,,,,50,WORD,"ID",33,snatch,SNATCH,m,,,,,,,0.379629667,0.029629587,0,0,0,,0,32,32,49,1,
,,,,,,,,,,,,,,,,,,5e71a80784155f0c75a56c70,2020-08-10_10h23.19.876,lexical_decision_task_MP,2020.1.3,Win32,60,m,1,0.42247,,,,,,,,0.42247,1,,,,,,101,WORD,"ID",50,wrench,WRENCH,m,,,,,,,0.379629667,0.029629587,0,0,0,,0,33,33,100,1,
,,,,,,,,,,,,,,,,,,5e71a80784155f0c75a56c70,2020-08-10_10h23.19.876,lexical_decision_task_MP,2020.1.3,Win32,60,m,1,0.5549,,,,,,,,0.5549,1,,,,,,162,WORD,UN,33,string,CANDLE,m,,,,,,,0.379629667,0.029629587,0,0,0,,0,34,34,161,1,
,,,,,,,,,,,,,,,,,,5e71a80784155f0c75a56c70,2020-08-10_10h23.19.876,lexical_decision_task_MP,2020.1.3,Win32,60,m,1,0.474115,,,,,,,,0.474115,1,,,,,,68,WORD,"ID",50,fumble,FUMBLE,m,,,,,,,0.379629667,0.029629587,0,0,0,,0,35,35,67,1,
,,,,,,,,,,,,,,,,,,5e71a80784155f0c75a56c70,2020-08-10_10h23.19.876,lexical_decision_task_MP,2020.1.3,Win32,60,m,1,0.45109,,,,,,,,0.45109,1,,,,,,201,WORD,UN,50,factor,ADMIRE,m,,,,,,,0.379629667,0.029629587,0,0,0,,0,36,36,200,1,
,,,,,,,,,,,,,,,,,,5e71a80784155f0c75a56c70,2020-08-10_10h23.19.876,lexical_decision_task_MP,2020.1.3,Win32,60,z,1,0.42391,,,,,,,,0.42391,1,,,,,,391,NW,UN,33,rouncy,THELDY,z,,,,,,,0.379629667,0.029629587,0,0,0,,0,37,37,390,1,
,,,,,,,,,,,,,,,,,,5e71a80784155f0c75a56c70,2020-08-10_10h23.19.876,lexical_decision_task_MP,2020.1.3,Win32,60,m,1,0.49753,,,,,,,,0.49753,1,,,,,,234,WORD,UN,50,lumber,CLUMSY,m,,,,,,,0.379629667,0.029629587,0,0,0,,0,38,38,233,1,
,,,,,,,,,,,,,,,,,,5e71a80784155f0c75a56c70,2020-08-10_10h23.19.876,lexical_decision_task_MP,2020.1.3,Win32,60,z,0,0.465995,,,,,,,,0.465995,0,,,,,,139,WORD,UN,33,prince,DEBRIS,m,,,,,,,0.379629667,0.029629587,0,0,0,,0,39,39,138,1,
,,,,,,,,,,,,,,,,,,5e71a80784155f0c75a56c70,2020-08-10_10h23.19.876,lexical_decision_task_MP,2020.1.3,Win32,60,m,1,0.54916,,,,,,,,0.54916,1,,,,,,216,WORD,UN,50,liquor,BEHALF,m,,,,,,,0.379629667,0.029629587,0,0,0,,0,40,40,215,1,
,,,,,,,,,,,,,,,,,,5e71a80784155f0c75a56c70,2020-08-10_10h23.19.876,lexical_decision_task_MP,2020.1.3,Win32,60,m,1,0.40261,,,,,,,,0.40261,1,,,,,,118,WORD,"ID",50,flight,FLIGHT,m,,,,,,,0.379629667,0.029629587,0,0,0,,0,41,41,117,1,
,,,,,,,,,,,,,,,,,,5e71a80784155f0c75a56c70,2020-08-10_10h23.19.876,lexical_decision_task_MP,2020.1.3,Win32,60,m,1,0.48307,,,,,,,,0.48307,1,,,,,,196,WORD,UN,50,stream,CREDIT,m,,,,,,,0.379629667,0.029629587,0,0,0,,0,42,42,195,1,
,,,,,,,,,,,,,,,,,,5e71a80784155f0c75a56c70,2020-08-10_10h23.19.876,lexical_decision_task_MP,2020.1.3,Win32,60,m,1,0.423745,,,,,,,,0.423745,1,,,,,,102,WORD,"ID",50,direct,DIRECT,m,,,,,,,0.379629667,0.029629587,0,0,0,,0,43,43,101,1,
,,,,,,,,,,,,,,,,,,5e71a80784155f0c75a56c70,2020-08-10_10h23.19.876,lexical_decision_task_MP,2020.1.3,Win32,60,m,1,0.39961,,,,,,,,0.39961,1,,,,,,132,WORD,UN,33,bleach,STRONG,m,,,,,,,0.379629667,0.029629587,0,0,0,,0,44,44,131,1,
,,,,,,,,,,,,,,,,,,5e71a80784155f0c75a56c70,2020-08-10_10h23.19.876,lexical_decision_task_MP,2020.1.3,Win32,60,z,1,0.457325,,,,,,,,0.457325,1,,,,,,287,NW,"ID",33,nymbel,NYMBEL,z,,,,,,,0.379629667,0.029629587,0,0,0,,0,45,45,286,1,
,,,,,,,,,,,,,,,,,,5e71a80784155f0c75a56c70,2020-08-10_10h23.19.876,lexical_decision_task_MP,2020.1.3,Win32,60,z,1,0.5174,,,,,,,,0.5174,1,,,,,,403,NW,UN,33,cluirm,BRUATS,z,,,,,,,0.379629667,0.029629587,0,0,0,,0,46,46,402,1,
,,,,,,,,,,,,,,,,,,5e71a80784155f0c75a56c70,2020-08-10_10h23.19.876,lexical_decision_task_MP,2020.1.3,Win32,60,m,1,0.424525,,,,,,,,0.424525,1,,,,,,147,WORD,UN,33,custom,GARLIC,m,,,,,,,0.379629667,0.029629587,0,0,0,,0,47,47,146,1,
,,,,,,,,,,,,,,,,,,5e71a80784155f0c75a56c70,2020-08-10_10h23.19.876,lexical_decision_task_MP,2020.1.3,Win32,60,z,1,0.454685,,,,,,,,0.454685,1,,,,,,262,NW,"ID",33,quilew,QUILEW,z,,,,,,,0.379629667,0.029629587,0,0,0,,0,48,48,261,1,
,,,,,,,,,,,,,,,,,,5e71a80784155f0c75a56c70,2020-08-10_10h23.19.876,lexical_decision_task_MP,2020.1.3,Win32,60,z,1,0.548075,,,,,,,,0.548075,1,,,,,,474,NW,UN,50,gorbie,HABLIN,z,,,,,,,0.379629667,0.029629587,0,0,0,,0,49,49,473,1,
,,,,,,,,,,,,,,,,,,5e71a80784155f0c75a56c70,2020-08-10_10h23.19.876,lexical_decision_task_MP,2020.1.3,Win32,60,m,0,0.57919,,,,,,,,0.57919,0,,,,,,388,NW,UN,33,witmer,CRAGIN,z,,,,,,,0.379629667,0.029629587,0,0,0,,0,50,50,387,1,
,,,,,,,,,,,,,,,,,,5e71a80784155f0c75a56c70,2020-08-10_10h23.19.876,lexical_decision_task_MP,2020.1.3,Win32,60,m,1,0.486675,,,,,,,,0.486675,1,,,,,,90,WORD,"ID",50,relish,RELISH,m,,,,,,,0.379629667,0.029629587,0,0,0,,0,51,51,89,1,
,,,,,,,,,,,,,,,,,,5e71a80784155f0c75a56c70,2020-08-10_10h23.19.876,lexical_decision_task_MP,2020.1.3,Win32,60,m,1,0.502095,,,,,,,,0.502095,1,,,,,,24,WORD,"ID",33,praise,PRAISE,m,,,,,,,0.379629667,0.029629587,0,0,0,,0,52,52,23,1,
,,,,,,,,,,,,,,,,,,5e71a80784155f0c75a56c70,2020-08-10_10h23.19.876,lexical_decision_task_MP,2020.1.3,Win32,60,m,1,0.75023,,,,,,,,0.75023,1,,,,,,111,WORD,"ID",50,induce,INDUCE,m,,,,,,,0.379629667,0.029629587,0,0,0,,0,53,53,110,1,
,,,,,,,,,,,,,,,,,,5e71a80784155f0c75a56c70,2020-08-10_10h23.19.876,lexical_decision_task_MP,2020.1.3,Win32,60,z,1,0.49985,,,,,,,,0.49985,1,,,,,,355,NW,"ID",50,zingly,ZINGLY,z,,,,,,,0.379629667,0.029629587,0,0,0,,0,54,54,354,1,
,,,,,,,,,,,,,,,,,,5e71a80784155f0c75a56c70,2020-08-10_10h23.19.876,lexical_decision_task_MP,2020.1.3,Win32,60,m,1,0.567055,,,,,,,,0.567055,1,,,,,,125,WORD,UN,33,blouse,NICKEL,m,,,,,,,0.379629667,0.029629587,0,0,0,,0,55,55,124,1,
,,,,,,,,,,,,,,,,,,5e71a80784155f0c75a56c70,2020-08-10_10h23.19.876,lexical_decision_task_MP,2020.1.3,Win32,60,z,1,0.52969,,,,,,,,0.52969,1,,,,,,302,NW,"ID",50,miluer,MILUER,z,,,,,,,0.379629667,0.029629587,0,0,0,,0,56,56,301,1,
,,,,,,,,,,,,,,,,,,5e71a80784155f0c75a56c70,2020-08-10_10h23.19.876,lexical_decision_task_MP,2020.1.3,Win32,60,m,0,0.432395,,,,,,,,0.432395,0,,,,,,277,NW,"ID",33,petain,PETAIN,z,,,,,,,0.379629667,0.029629587,0,0,0,,0,57,57,276,1,
,,,,,,,,,,,,,,,,,,5e71a80784155f0c75a56c70,2020-08-10_10h23.19.876,lexical_decision_task_MP,2020.1.3,Win32,60,z,1,0.59887,,,,,,,,0.59887,1,,,,,,382,NW,UN,33,aungre,SARLEY,z,,,,,,,0.379629667,0.029629587,0,0,0,,0,58,58,381,1,
,,,,,,,,,,,,,,,,,,5e71a80784155f0c75a56c70,2020-08-10_10h23.19.876,lexical_decision_task_MP,2020.1.3,Win32,60,z,1,0.465905,,,,,,,,0.465905,1,,,,,,290,NW,"ID",33,splino,SPLINO,z,,,,,,,0.379629667,0.029629587,0,0,0,,0,59,59,289,1,
,,,,,,,,,,,,,,,,,,5e71a80784155f0c75a56c70,2020-08-10_10h23.19.876,lexical_decision_task_MP,2020.1.3,Win32,60,m,1,0.435825,,,,,,,,0.435825,1,,,,,,117,WORD,"ID",50,branch,BRANCH,m,,,,,,,0.379629667,0.029629587,0,0,0,,0,60,60,116,1,
,,,,,,,,,,,,,,,,,,5e71a80784155f0c75a56c70,2020-08-10_10h23.19.876,lexical_decision_task_MP,2020.1.3,Win32,60,m,1,0.525,,,,,,,,0.525,1,,,,,,16,WORD,"ID",33,faucet,FAUCET,m,,,,,,,0.379629667,0.029629587,0,0,0,,0,61,61,15,1,
,,,,,,,,,,,,,,,,,,5e71a80784155f0c75a56c70,2020-08-10_10h23.19.876,lexical_decision_task_MP,2020.1.3,Win32,60,m,0,0.720165,,,,,,,,0.720165,0,,,,,,399,NW,UN,33,wearox,FOURET,z,,,,,,,0.379629667,0.029629587,0,0,0,,0,62,62,398,1,
,,,,,,,,,,,,,,,,,,5e71a80784155f0c75a56c70,2020-08-10_10h23.19.876,lexical_decision_task_MP,2020.1.3,Win32,60,m,1,0.53609,,,,,,,,0.53609,1,,,,,,186,WORD,UN,50,course,PORTAL,m,,,,,,,0.379629667,0.029629587,0,0,0,,0,63,63,185,1,
,,,,,,,,,,,,,,,,,,5e71a80784155f0c75a56c70,2020-08-10_10h23.19.876,lexical_decision_task_MP,2020.1.3,Win32,60,z,0,0.506265,,,,,,,,0.506265,0,,,,,,226,WORD,UN,50,flower,CASINO,m,,,,,,,0.379629667,0.029629587,0,0,0,,0,64,64,225,1,
,,,,,,,,,,,,,,,,,,5e71a80784155f0c75a56c70,2020-08-10_10h23.19.876,lexical_decision_task_MP,2020.1.3,Win32,60,m,0,0.32486,,,,,,,,0.32486,0,,,,,,319,NW,"ID",50,zomber,ZOMBER,z,,,,,,,0.379629667,0.029629587,0,0,0,,0,65,65,318,1,
,,,,,,,,,,,,,,,,,,5e71a80784155f0c75a56c70,2020-08-10_10h23.19.876,lexical_decision_task_MP,2020.1.3,Win32,60,m,1,0.581435,,,,,,,,0.581435,1,,,,,,155,WORD,UN,33,cradle,LIZARD,m,,,,,,,0.379629667,0.029629587,0,0,0,,0,66,66,154,1,
,,,,,,,,,,,,,,,,,,5e71a80784155f0c75a56c70,2020-08-10_10h23.19.876,lexical_decision_task_MP,2020.1.3,Win32,60,m,1,0.48212,,,,,,,,0.48212,1,,,,,,193,WORD,UN,50,plague,OBJECT,m,,,,,,,0.379629667,0.029629587,0,0,0,,0,67,67,192,1,
,,,,,,,,,,,,,,,,,,5e71a80784155f0c75a56c70,2020-08-10_10h23.19.876,lexical_decision_task_MP,2020.1.3,Win32,60,m,0,0.58807,,,,,,,,0.58807,0,,,,,,389,NW,UN,33,hatrus,WITMER,z,,,,,,,0.379629667,0.029629587,0,0,0,,0,68,68,388,1,
,,,,,,,,,,,,,,,,,,5e71a80784155f0c75a56c70,2020-08-10_10h23.19.876,lexical_decision_task_MP,2020.1.3,Win32,60,z,1,0.55151,,,,,,,,0.55151,1,,,,,,327,NW,"ID",50,plenac,PLENAC,z,,,,,,,0.379629667,0.029629587,0,0,0,,0,69,69,326,1,
,,,,,,,,,,,,,,,,,,5e71a80784155f0c75a56c70,2020-08-10_10h23.19.876,lexical_decision_task_MP,2020.1.3,Win32,60,m,1,0.56759,,,,,,,,0.56759,1,,,,,,240,WORD,UN,50,glance,FOREST,m,,,,,,,0.379629667,0.029629587,0,0,0,,0,70,70,239,1,
,,,,,,,,,,,,,,,,,,5e71a80784155f0c75a56c70,2020-08-10_10h23.19.876,lexical_decision_task_MP,2020.1.3,Win32,60,m,0,0.501885,,,,,,,,0.501885,0,,,,,,325,NW,"ID",50,thruse,THRUSE,z,,,,,,,0.379629667,0.029629587,0,0,0,,0,71,71,324,1,
,,,,,,,,,,,,,,,,,,5e71a80784155f0c75a56c70,2020-08-10_10h23.19.876,lexical_decision_task_MP,2020.1.3,Win32,60,z,1,0.563875,,,,,,,,0.563875,1,,,,,,414,NW,UN,33,higsta,SERBOL,z,,,,,,,0.379629667,0.029629587,0,0,0,,0,72,72,413,1,
,,,,,,,,,,,,,,,,,,5e71a80784155f0c75a56c70,2020-08-10_10h23.19.876,lexical_decision_task_MP,2020.1.3,Win32,60,z,1,0.538615,,,,,,,,0.538615,1,,,,,,370,NW,UN,33,geiloy,SLEACT,z,,,,,,,0.379629667,0.029629587,0,0,0,,0,73,73,369,1,
,,,,,,,,,,,,,,,,,,5e71a80784155f0c75a56c70,2020-08-10_10h23.19.876,lexical_decision_task_MP,2020.1.3,Win32,60,z,1,0.48898,,,,,,,,0.48898,1,,,,,,463,NW,UN,50,bafent,KISPEL,z,,,,,,,0.379629667,0.029629587,0,0,0,,0,74,74,462,1,
,,,,,,,,,,,,,,,,,,5e71a80784155f0c75a56c70,2020-08-10_10h23.19.876,lexical_decision_task_MP,2020.1.3,Win32,60,m,1,0.41803,,,,,,,,0.41803,1,,,,,,115,WORD,"ID",50,guitar,GUITAR,m,,,,,,,0.379629667,0.029629587,0,0,0,,0,75,75,114,1,
,,,,,,,,,,,,,,,,,,5e71a80784155f0c75a56c70,2020-08-10_10h23.19.876,lexical_decision_task_MP,2020.1.3,Win32,60,m,1,0.483065,,,,,,,,0.483065,1,,,,,,173,WORD,UN,33,turkey,SHOWER,m,,,,,,,0.379629667,0.029629587,0,0,0,,0,76,76,172,1,
,,,,,,,,,,,,,,,,,,5e71a80784155f0c75a56c70,2020-08-10_10h23.19.876,lexical_decision_task_MP,2020.1.3,Win32,60,m,1,0.55379,,,,,,,,0.55379,1,,,,,,141,WORD,UN,33,spruce,ORPHAN,m,,,,,,,0.379629667,0.029629587,0,0,0,,0,77,77,140,1,
,,,,,,,,,,,,,,,,,,5e71a80784155f0c75a56c70,2020-08-10_10h23.19.876,lexical_decision_task_MP,2020.1.3,Win32,60,m,1,0.45869,,,,,,,,0.45869,1,,,,,,97,WORD,"ID",50,client,CLIENT,m,,,,,,,0.379629667,0.029629587,0,0,0,,0,78,78,96,1,
,,,,,,,,,,,,,,,,,,5e71a80784155f0c75a56c70,2020-08-10_10h23.19.876,lexical_decision_task_MP,2020.1.3,Win32,60,z,1,0.588595,,,,,,,,0.588595,1,,,,,,280,NW,"ID",33,curbol,CURBOL,z,,,,,,,0.379629667,0.029629587,0,0,0,,0,79,79,279,1,
,,,,,,,,,,,,,,,,,,5e71a80784155f0c75a56c70,2020-08-10_10h23.19.876,lexical_decision_task_MP,2020.1.3,Win32,60,z,1,0.67602,,,,,,,,0.67602,1,,,,,,400,NW,UN,33,mustil,WEAROX,z,,,,,,,0.379629667,0.029629587,0,0,0,,0,80,80,399,1,
,,,,,,,,,,,,,,,,,,5e71a80784155f0c75a56c70,2020-08-10_10h23.19.876,lexical_decision_task_MP,2020.1.3,Win32,60,z,1,0.634905,,,,,,,,0.634905,1,,,,,,313,NW,"ID",50,paurse,PAURSE,z,,,,,,,0.379629667,0.029629587,0,0,0,,0,81,81,312,1,
,,,,,,,,,,,,,,,,,,5e71a80784155f0c75a56c70,2020-08-10_10h23.19.876,lexical_decision_task_MP,2020.1.3,Win32,60,z,1,0.437695,,,,,,,,0.437695,1,,,,,,261,NW,"ID",33,stunch,STUNCH,z,,,,,,,0.379629667,0.029629587,0,0,0,,0,82,82,260,1,
,,,,,,,,,,,,,,,,,,5e71a80784155f0c75a56c70,2020-08-10_10h23.19.876,lexical_decision_task_MP,2020.1.3,Win32,60,z,1,0.368855,,,,,,,,0.368855,1,,,,,,241,NW,"ID",33,smenco,SMENCO,z,,,,,,,0.379629667,0.029629587,0,0,0,,0,83,83,240,1,
,,,,,,,,,,,,,,,,,,5e71a80784155f0c75a56c70,2020-08-10_10h23.19.876,lexical_decision_task_MP,2020.1.3,Win32,60,z,1,0.48657,,,,,,,,0.48657,1,,,,,,306,NW,"ID",50,sounge,SOUNGE,z,,,,,,,0.379629667,0.029629587,0,0,0,,0,84,84,305,1,
,,,,,,,,,,,,,,,,,,5e71a80784155f0c75a56c70,2020-08-10_10h23.19.876,lexical_decision_task_MP,2020.1.3,Win32,60,m,1,0.58477,,,,,,,,0.58477,1,,,,,,1,WORD,"ID",33,fright,FRIGHT,m,,,,,,,0.379629667,0.029629587,0,0,0,,0,85,85,0,1,
,,,,,,,,,,,,,,,,,,5e71a80784155f0c75a56c70,2020-08-10_10h23.19.876,lexical_decision_task_MP,2020.1.3,Win32,60,m,1,0.53832,,,,,,,,0.53832,1,,,,,,185,WORD,UN,50,portal,BOTHER,m,,,,,,,0.379629667,0.029629587,0,0,0,,0,86,86,184,1,
,,,,,,,,,,,,,,,,,,5e71a80784155f0c75a56c70,2020-08-10_10h23.19.876,lexical_decision_task_MP,2020.1.3,Win32,60,z,1,0.524105,,,,,,,,0.524105,1,,,,,,386,NW,UN,33,gronce,ANCUST,z,,,,,,,0.379629667,0.029629587,0,0,0,,0,87,87,385,1,
,,,,,,,,,,,,,,,,,,5e71a80784155f0c75a56c70,2020-08-10_10h23.19.876,lexical_decision_task_MP,2020.1.3,Win32,60,z,1,0.3814,,,,,,,,0.3814,1,,,,,,422,NW,UN,50,streld,ALCOUD,z,,,,,,,0.379629667,0.029629587,0,0,0,,0,88,88,421,1,
,,,,,,,,,,,,,,,,,,5e71a80784155f0c75a56c70,2020-08-10_10h23.19.876,lexical_decision_task_MP,2020.1.3,Win32,60,z,1,0.597205,,,,,,,,0.597205,1,,,,,,385,NW,UN,33,ancust,VEIGMA,z,,,,,,,0.379629667,0.029629587,0,0,0,,0,89,89,384,1,
,,,,,,,,,,,,,,,,,,5e71a80784155f0c75a56c70,2020-08-10_10h23.19.876,lexical_decision_task_MP,2020.1.3,Win32,60,m,1,0.448025,,,,,,,,0.448025,1,,,,,,93,WORD,"ID",50,public,PUBLIC,m,,,,,,,0.379629667,0.029629587,0,0,0,,0,90,90,92,1,
,,,,,,,,,,,,,,,,,,5e71a80784155f0c75a56c70,2020-08-10_10h23.19.876,lexical_decision_task_MP,2020.1.3,Win32,60,m,1,0.47797,,,,,,,,0.47797,1,,,,,,20,WORD,"ID",33,breast,BREAST,m,,,,,,,0.379629667,0.029629587,0,0,0,,0,91,91,19,1,
,,,,,,,,,,,,,,,,,,5e71a80784155f0c75a56c70,2020-08-10_10h23.19.876,lexical_decision_task_MP,2020.1.3,Win32,60,m,1,0.339175,,,,,,,,0.339175,1,,,,,,80,WORD,"ID",50,family,FAMILY,m,,,,,,,0.379629667,0.029629587,0,0,0,,0,92,92,79,1,
,,,,,,,,,,,,,,,,,,5e71a80784155f0c75a56c70,2020-08-10_10h23.19.876,lexical_decision_task_MP,2020.1.3,Win32,60,z,1,0.457145,,,,,,,,0.457145,1,,,,,,412,NW,UN,33,equats,JILUER,z,,,,,,,0.379629667,0.029629587,0,0,0,,0,93,93,411,1,
,,,,,,,,,,,,,,,,,,5e71a80784155f0c75a56c70,2020-08-10_10h23.19.876,lexical_decision_task_MP,2020.1.3,Win32,60,m,1,0.570015,,,,,,,,0.570015,1,,,,,,167,WORD,UN,33,answer,DESIGN,m,,,,,,,0.379629667,0.029629587,0,0,0,,0,94,94,166,1,
,,,,,,,,,,,,,,,,,,5e71a80784155f0c75a56c70,2020-08-10_10h23.19.876,lexical_decision_task_MP,2020.1.3,Win32,60,m,0,0.50521,,,,,,,,0.50521,0,,,,,,352,NW,"ID",50,tringe,TRINGE,z,,,,,,,0.379629667,0.029629587,0,0,0,,0,95,95,351,1,
,,,,,,,,,,,,,,,,,,5e71a80784155f0c75a56c70,2020-08-10_10h23.19.876,lexical_decision_task_MP,2020.1.3,Win32,60,z,0,0.46855,,,,,,,,0.46855,0,,,,,,33,WORD,"ID",33,butler,BUTLER,m,,,,,,,0.379629667,0.029629587,0,0,0,,0,96,96,32,1,
,,,,,,,,,,,,,,,,,,5e71a80784155f0c75a56c70,2020-08-10_10h23.19.876,lexical_decision_task_MP,2020.1.3,Win32,60,m,1,0.40079,,,,,,,,0.40079,1,,,,,,100,WORD,"ID",50,carbon,CARBON,m,,,,,,,0.379629667,0.029629587,0,0,0,,0,97,97,99,1,
,,,,,,,,,,,,,,,,,,5e71a80784155f0c75a56c70,2020-08-10_10h23.19.876,lexical_decision_task_MP,2020.1.3,Win32,60,m,1,0.46465,,,,,,,,0.46465,1,,,,,,159,WORD,UN,33,violet,DETAIL,m,,,,,,,0.379629667,0.029629587,0,0,0,,0,98,98,158,1,
,,,,,,,,,,,,,,,,,,5e71a80784155f0c75a56c70,2020-08-10_10h23.19.876,lexical_decision_task_MP,2020.1.3,Win32,60,m,1,0.47596,,,,,,,,0.47596,1,,,,,,120,WORD,"ID",50,strain,STRAIN,m,,,,,,,0.379629667,0.029629587,0,0,0,,0,99,99,119,1,
,,,,,,,,,,,,,,,,,,5e71a80784155f0c75a56c70,2020-08-10_10h23.19.876,lexical_decision_task_MP,2020.1.3,Win32,60,z,1,0.661395,,,,,,,,0.661395,1,,,,,,338,NW,"ID",50,wreash,WREASH,z,,,,,,,0.379629667,0.029629587,0,0,0,,0,100,100,337,1,
,,,,,,,,,,,,,,,,,,5e71a80784155f0c75a56c70,2020-08-10_10h23.19.876,lexical_decision_task_MP,2020.1.3,Win32,60,z,1,0.5825,,,,,,,,0.5825,1,,,,,,295,NW,"ID",33,gleath,GLEATH,z,,,,,,,0.379629667,0.029629587,0,0,0,,0,101,101,294,1,
,,,,,,,,,,,,,,,,,,5e71a80784155f0c75a56c70,2020-08-10_10h23.19.876,lexical_decision_task_MP,2020.1.3,Win32,60,z,1,0.570475,,,,,,,,0.570475,1,,,,,,373,NW,UN,33,injore,BIGENT,z,,,,,,,0.379629667,0.029629587,0,0,0,,0,102,102,372,1,
,,,,,,,,,,,,,,,,,,5e71a80784155f0c75a56c70,2020-08-10_10h23.19.876,lexical_decision_task_MP,2020.1.3,Win32,60,m,0,0.48456,,,,,,,,0.48456,0,,,,,,305,NW,"ID",50,forgle,FORGLE,z,,,,,,,0.379629667,0.029629587,0,0,0,,0,103,103,304,1,
,,,,,,,,,,,,,,,,,,5e71a80784155f0c75a56c70,2020-08-10_10h23.19.876,lexical_decision_task_MP,2020.1.3,Win32,60,m,1,0.517205,,,,,,,,0.517205,1,,,,,,34,WORD,"ID",33,jungle,JUNGLE,m,,,,,,,0.379629667,0.029629587,0,0,0,,0,104,104,33,1,
,,,,,,,,,,,,,,,,,,5e71a80784155f0c75a56c70,2020-08-10_10h23.19.876,lexical_decision_task_MP,2020.1.3,Win32,60,m,1,0.63773,,,,,,,,0.63773,1,,,,,,143,WORD,UN,33,sponge,REASON,m,,,,,,,0.379629667,0.029629587,0,0,0,,0,105,105,142,1,
,,,,,,,,,,,,,,,,,,5e71a80784155f0c75a56c70,2020-08-10_10h23.19.876,lexical_decision_task_MP,2020.1.3,Win32,60,m,1,0.465595,,,,,,,,0.465595,1,,,,,,40,WORD,"ID",33,convey,CONVEY,m,,,,,,,0.379629667,0.029629587,0,0,0,,0,106,106,39,1,
,,,,,,,,,,,,,,,,,,5e71a80784155f0c75a56c70,2020-08-10_10h23.19.876,lexical_decision_task_MP,2020.1.3,Win32,60,m,1,0.434355,,,,,,,,0.434355,1,,,,,,31,WORD,"ID",33,weapon,WEAPON,m,,,,,,,0.379629667,0.029629587,0,0,0,,0,107,107,30,1,
,,,,,,,,,,,,,,,,,,5e71a80784155f0c75a56c70,2020-08-10_10h23.19.876,lexical_decision_task_MP,2020.1.3,Win32,60,m,1,0.517355,,,,,,,,0.517355,1,,,,,,188,WORD,UN,50,censor,SOCIAL,m,,,,,,,0.379629667,0.029629587,0,0,0,,0,108,108,187,1,
,,,,,,,,,,,,,,,,,,5e71a80784155f0c75a56c70,2020-08-10_10h23.19.876,lexical_decision_task_MP,2020.1.3,Win32,60,m,1,0.44362,,,,,,,,0.44362,1,,,,,,126,WORD,UN,33,castle,ENOUGH,m,,,,,,,0.379629667,0.029629587,0,0,0,,0,109,109,125,1,
,,,,,,,,,,,,,,,,,,5e71a80784155f0c75a56c70,2020-08-10_10h23.19.876,lexical_decision_task_MP,2020.1.3,Win32,60,m,1,0.381825,,,,,,,,0.381825,1,,,,,,164,WORD,UN,33,invest,MARKET,m,,,,,,,0.379629667,0.029629587,0,0,0,,0,110,110,163,1,
,,,,,,,,,,,,,,,,,,5e71a80784155f0c75a56c70,2020-08-10_10h23.19.876,lexical_decision_task_MP,2020.1.3,Win32,60,m,1,0.586025,,,,,,,,0.586025,1,,,,,,131,WORD,UN,33,strong,QUENCH,m,,,,,,,0.379629667,0.029629587,0,0,0,,0,111,111,130,1,
,,,,,,,,,,,,,,,,,,5e71a80784155f0c75a56c70,2020-08-10_10h23.19.876,lexical_decision_task_MP,2020.1.3,Win32,60,z,1,0.45998,,,,,,,,0.45998,1,,,,,,330,NW,"ID",50,kensom,KENSOM,z,,,,,,,0.379629667,0.029629587,0,0,0,,0,112,112,329,1,
,,,,,,,,,,,,,,,,,,5e71a80784155f0c75a56c70,2020-08-10_10h23.19.876,lexical_decision_task_MP,2020.1.3,Win32,60,m,1,0.60275,,,,,,,,0.60275,1,,,,,,134,WORD,UN,33,import,STAPLE,m,,,,,,,0.379629667,0.029629587,0,0,0,,0,113,113,133,1,
,,,,,,,,,,,,,,,,,,5e71a80784155f0c75a56c70,2020-08-10_10h23.19.876,lexical_decision_task_MP,2020.1.3,Win32,60,m,1,0.42215,,,,,,,,0.42215,1,,,,,,61,WORD,"ID",50,ponder,PONDER,m,,,,,,,0.379629667,0.029629587,0,0,0,,0,114,114,60,1,
,,,,,,,,,,,,,,,,,,5e71a80784155f0c75a56c70,2020-08-10_10h23.19.876,lexical_decision_task_MP,2020.1.3,Win32,60,m,0,0.43385,,,,,,,,0.43385,0,,,,,,289,NW,"ID",33,starby,STARBY,z,,,,,,,0.379629667,0.029629587,0,0,0,,0,115,115,288,1,
,,,,,,,,,,,,,,,,,,5e71a80784155f0c75a56c70,2020-08-10_10h23.19.876,lexical_decision_task_MP,2020.1.3,Win32,60,m,1,0.549945,,,,,,,,0.549945,1,,,,,,172,WORD,UN,33,shower,PATROL,m,,,,,,,0.379629667,0.029629587,0,0,0,,0,116,116,171,1,
,,,,,,,,,,,,,,,,,,5e71a80784155f0c75a56c70,2020-08-10_10h23.19.876,lexical_decision_task_MP,2020.1.3,Win32,60,z,1,0.432285,,,,,,,,0.432285,1,,,,,,395,NW,UN,33,flengy,COLURY,z,,,,,,,0.379629667,0.029629587,0,0,0,,0,117,117,394,1,
,,,,,,,,,,,,,,,,,,5e71a80784155f0c75a56c70,2020-08-10_10h23.19.876,lexical_decision_task_MP,2020.1.3,Win32,60,z,1,0.481205,,,,,,,,0.481205,1,,,,,,446,NW,UN,50,gircue,RUNAMO,z,,,,,,,0.379629667,0.029629587,0,0,0,,0,118,118,445,1,
,,,,,,,,,,,,,,,,,,5e71a80784155f0c75a56c70,2020-08-10_10h23.19.876,lexical_decision_task_MP,2020.1.3,Win32,60,m,1,0.55575,,,,,,,,0.55575,1,,,,,,32,WORD,"ID",33,buckle,BUCKLE,m,,,,,,,0.379629667,0.029629587,0,0,0,,0,119,119,31,1,
,,,,,,,,,,,,,,,,,,5e71a80784155f0c75a56c70,2020-08-10_10h23.19.876,lexical_decision_task_MP,2020.1.3,Win32,60,m,1,0.481805,,,,,,,,0.481805,1,,,,,,26,WORD,"ID",33,sprint,SPRINT,m,,,,,,,0.379629667,0.029629587,0,0,0,space,0,120,120,25,1,4.675685
,,,,,,,,,,,,,,,,,,5e71a80784155f0c75a56c70,2020-08-10_10h23.19.876,lexical_decision_task_MP,2020.1.3,Win32,60,m,0,0.29816,,,,,,,,0.29816,0,,,,,,312,NW,"ID",50,nerawl,NERAWL,z,,,,,,,0.379629667,0.029629587,0,0,0,,0,121,121,311,1,
,,,,,,,,,,,,,,,,,,5e71a80784155f0c75a56c70,2020-08-10_10h23.19.876,lexical_decision_task_MP,2020.1.3,Win32,60,m,0,0.28949,,,,,,,,0.28949,0,,,,,,444,NW,UN,50,minkel,JAUNCE,z,,,,,,,0.379629667,0.029629587,0,0,0,,0,122,122,443,1,
,,,,,,,,,,,,,,,,,,5e71a80784155f0c75a56c70,2020-08-10_10h23.19.876,lexical_decision_task_MP,2020.1.3,Win32,60,z,0,0.436305,,,,,,,,0.436305,0,,,,,,23,WORD,"ID",33,wealth,WEALTH,m,,,,,,,0.379629667,0.029629587,0,0,0,,0,123,123,22,1,
,,,,,,,,,,,,,,,,,,5e71a80784155f0c75a56c70,2020-08-10_10h23.19.876,lexical_decision_task_MP,2020.1.3,Win32,60,m,0,0.32161,,,,,,,,0.32161,0,,,,,,310,NW,"ID",50,daniet,DANIET,z,,,,,,,0.379629667,0.029629587,0,0,0,,0,124,124,309,1,
,,,,,,,,,,,,,,,,,,5e71a80784155f0c75a56c70,2020-08-10_10h23.19.876,lexical_decision_task_MP,2020.1.3,Win32,60,m,1,0.53308,,,,,,,,0.53308,1,,,,,,86,WORD,"ID",50,rodent,RODENT,m,,,,,,,0.379629667,0.029629587,0,0,0,,0,125,125,85,1,
,,,,,,,,,,,,,,,,,,5e71a80784155f0c75a56c70,2020-08-10_10h23.19.876,lexical_decision_task_MP,2020.1.3,Win32,60,m,1,0.454465,,,,,,,,0.454465,1,,,,,,89,WORD,"ID",50,permit,PERMIT,m,,,,,,,0.379629667,0.029629587,0,0,0,,0,126,126,88,1,
,,,,,,,,,,,,,,,,,,5e71a80784155f0c75a56c70,2020-08-10_10h23.19.876,lexical_decision_task_MP,2020.1.3,Win32,60,z,1,0.532735,,,,,,,,0.532735,1,,,,,,283,NW,"ID",33,veralf,VERALF,z,,,,,,,0.379629667,0.029629587,0,0,0,,0,127,127,282,1,
,,,,,,,,,,,,,,,,,,5e71a80784155f0c75a56c70,2020-08-10_10h23.19.876,lexical_decision_task_MP,2020.1.3,Win32,60,m,0,0.46613,,,,,,,,0.46613,0,,,,,,418,NW,UN,33,slount,SUIDLE,z,,,,,,,0.379629667,0.029629587,0,0,0,,0,128,128,417,1,
,,,,,,,,,,,,,,,,,,5e71a80784155f0c75a56c70,2020-08-10_10h23.19.876,lexical_decision_task_MP,2020.1.3,Win32,60,m,1,0.510175,,,,,,,,0.510175,1,,,,,,154,WORD,UN,33,lizard,AUTHOR,m,,,,,,,0.379629667,0.029629587,0,0,0,,0,129,129,153,1,
,,,,,,,,,,,,,,,,,,5e71a80784155f0c75a56c70,2020-08-10_10h23.19.876,lexical_decision_task_MP,2020.1.3,Win32,60,m,1,0.457765,,,,,,,,0.457765,1,,,,,,60,WORD,"ID",33,pencil,PENCIL,m,,,,,,,0.379629667,0.029629587,0,0,0,,0,130,130,59,1,
,,,,,,,,,,,,,,,,,,5e71a80784155f0c75a56c70,2020-08-10_10h23.19.876,lexical_decision_task_MP,2020.1.3,Win32,60,m,1,0.53113,,,,,,,,0.53113,1,,,,,,237,WORD,UN,50,seldom,POSTER,m,,,,,,,0.379629667,0.029629587,0,0,0,,0,131,131,236,1,
,,,,,,,,,,,,,,,,,,5e71a80784155f0c75a56c70,2020-08-10_10h23.19.876,lexical_decision_task_MP,2020.1.3,Win32,60,z,1,0.48228,,,,,,,,0.48228,1,,,,,,334,NW,"ID",50,watmeg,WATMEG,z,,,,,,,0.379629667,0.029629587,0,0,0,,0,132,132,333,1,
,,,,,,,,,,,,,,,,,,5e71a80784155f0c75a56c70,2020-08-10_10h23.19.876,lexical_decision_task_MP,2020.1.3,Win32,60,z,1,0.465395,,,,,,,,0.465395,1,,,,,,440,NW,UN,50,cainky,SARIDE,z,,,,,,,0.379629667,0.029629587,0,0,0,,0,133,133,439,1,
,,,,,,,,,,,,,,,,,,5e71a80784155f0c75a56c70,2020-08-10_10h23.19.876,lexical_decision_task_MP,2020.1.3,Win32,60,z,1,0.673055,,,,,,,,0.673055,1,,,,,,449,NW,UN,50,phrect,BRUNGE,z,,,,,,,0.379629667,0.029629587,0,0,0,,0,134,134,448,1,
,,,,,,,,,,,,,,,,,,5e71a80784155f0c75a56c70,2020-08-10_10h23.19.876,lexical_decision_task_MP,2020.1.3,Win32,60,m,1,0.533805,,,,,,,,0.533805,1,,,,,,35,WORD,"ID",33,socket,SOCKET,m,,,,,,,0.379629667,0.029629587,0,0,0,,0,135,135,34,1,
,,,,,,,,,,,,,,,,,,5e71a80784155f0c75a56c70,2020-08-10_10h23.19.876,lexical_decision_task_MP,2020.1.3,Win32,60,z,1,0.455935,,,,,,,,0.455935,1,,,,,,480,NW,UN,50,knisma,ROBULY,z,,,,,,,0.379629667,0.029629587,0,0,0,,0,136,136,479,1,
,,,,,,,,,,,,,,,,,,5e71a80784155f0c75a56c70,2020-08-10_10h23.19.876,lexical_decision_task_MP,2020.1.3,Win32,60,m,1,0.450525,,,,,,,,0.450525,1,,,,,,103,WORD,"ID",50,bounce,BOUNCE,m,,,,,,,0.379629667,0.029629587,0,0,0,,0,137,137,102,1,
,,,,,,,,,,,,,,,,,,5e71a80784155f0c75a56c70,2020-08-10_10h23.19.876,lexical_decision_task_MP,2020.1.3,Win32,60,m,1,0.38566,,,,,,,,0.38566,1,,,,,,153,WORD,UN,33,author,BEHOLD,m,,,,,,,0.379629667,0.029629587,0,0,0,,0,138,138,152,1,
,,,,,,,,,,,,,,,,,,5e71a80784155f0c75a56c70,2020-08-10_10h23.19.876,lexical_decision_task_MP,2020.1.3,Win32,60,m,1,0.454375,,,,,,,,0.454375,1,,,,,,170,WORD,UN,33,depart,POUNCE,m,,,,,,,0.379629667,0.029629587,0,0,0,,0,139,139,169,1,
,,,,,,,,,,,,,,,,,,5e71a80784155f0c75a56c70,2020-08-10_10h23.19.876,lexical_decision_task_MP,2020.1.3,Win32,60,m,0,0.41418,,,,,,,,0.41418,0,,,,,,322,NW,"ID",50,slanch,SLANCH,z,,,,,,,0.379629667,0.029629587,0,0,0,,0,140,140,321,1,
,,,,,,,,,,,,,,,,,,5e71a80784155f0c75a56c70,2020-08-10_10h23.19.876,lexical_decision_task_MP,2020.1.3,Win32,60,z,0,0.53572,,,,,,,,0.53572,0,,,,,,184,WORD,UN,50,bother,SLEAZY,m,,,,,,,0.379629667,0.029629587,0,0,0,,0,141,141,183,1,
,,,,,,,,,,,,,,,,,,5e71a80784155f0c75a56c70,2020-08-10_10h23.19.876,lexical_decision_task_MP,2020.1.3,Win32,60,m,1,0.573885,,,,,,,,0.573885,1,,,,,,231,WORD,UN,50,mother,EXPORT,m,,,,,,,0.379629667,0.029629587,0,0,0,,0,142,142,230,1,
,,,,,,,,,,,,,,,,,,5e71a80784155f0c75a56c70,2020-08-10_10h23.19.876,lexical_decision_task_MP,2020.1.3,Win32,60,z,1,0.52623,,,,,,,,0.52623,1,,,,,,378,NW,UN,33,auting,SHRILE,z,,,,,,,0.379629667,0.029629587,0,0,0,,0,143,143,377,1,
,,,,,,,,,,,,,,,,,,5e71a80784155f0c75a56c70,2020-08-10_10h23.19.876,lexical_decision_task_MP,2020.1.3,Win32,60,z,1,0.569915,,,,,,,,0.569915,1,,,,,,411,NW,UN,33,jiluer,ORCHIN,z,,,,,,,0.379629667,0.029629587,0,0,0,,0,144,144,410,1,
,,,,,,,,,,,,,,,,,,5e71a80784155f0c75a56c70,2020-08-10_10h23.19.876,lexical_decision_task_MP,2020.1.3,Win32,60,m,1,0.558455,,,,,,,,0.558455,1,,,,,,47,WORD,"ID",33,income,INCOME,m,,,,,,,0.379629667,0.029629587,0,0,0,,0,145,145,46,1,
,,,,,,,,,,,,,,,,,,5e71a80784155f0c75a56c70,2020-08-10_10h23.19.876,lexical_decision_task_MP,2020.1.3,Win32,60,m,1,0.607995,,,,,,,,0.607995,1,,,,,,22,WORD,"ID",33,jockey,JOCKEY,m,,,,,,,0.379629667,0.029629587,0,0,0,,0,146,146,21,1,
,,,,,,,,,,,,,,,,,,5e71a80784155f0c75a56c70,2020-08-10_10h23.19.876,lexical_decision_task_MP,2020.1.3,Win32,60,m,1,0.575375,,,,,,,,0.575375,1,,,,,,157,WORD,UN,33,island,DRAGON,m,,,,,,,0.379629667,0.029629587,0,0,0,,0,147,147,156,1,
,,,,,,,,,,,,,,,,,,5e71a80784155f0c75a56c70,2020-08-10_10h23.19.876,lexical_decision_task_MP,2020.1.3,Win32,60,m,1,0.50602,,,,,,,,0.50602,1,,,,,,8,WORD,"ID",33,abrupt,ABRUPT,m,,,,,,,0.379629667,0.029629587,0,0,0,,0,148,148,7,1,
,,,,,,,,,,,,,,,,,,5e71a80784155f0c75a56c70,2020-08-10_10h23.19.876,lexical_decision_task_MP,2020.1.3,Win32,60,m,1,0.45258,,,,,,,,0.45258,1,,,,,,207,WORD,UN,50,hockey,WREATH,m,,,,,,,0.379629667,0.029629587,0,0,0,,0,149,149,206,1,
,,,,,,,,,,,,,,,,,,5e71a80784155f0c75a56c70,2020-08-10_10h23.19.876,lexical_decision_task_MP,2020.1.3,Win32,60,z,1,0.504,,,,,,,,0.504,1,,,,,,316,NW,"ID",50,scregm,SCREGM,z,,,,,,,0.379629667,0.029629587,0,0,0,,0,150,150,315,1,
,,,,,,,,,,,,,,,,,,5e71a80784155f0c75a56c70,2020-08-10_10h23.19.876,lexical_decision_task_MP,2020.1.3,Win32,60,z,1,0.45193,,,,,,,,0.45193,1,,,,,,349,NW,"ID",50,asylen,ASYLEN,z,,,,,,,0.379629667,0.029629587,0,0,0,,0,151,151,348,1,
,,,,,,,,,,,,,,,,,,5e71a80784155f0c75a56c70,2020-08-10_10h23.19.876,lexical_decision_task_MP,2020.1.3,Win32,60,z,1,0.424985,,,,,,,,0.424985,1,,,,,,347,NW,"ID",50,kerift,KERIFT,z,,,,,,,0.379629667,0.029629587,0,0,0,,0,152,152,346,1,
,,,,,,,,,,,,,,,,,,5e71a80784155f0c75a56c70,2020-08-10_10h23.19.876,lexical_decision_task_MP,2020.1.3,Win32,60,m,1,0.453525,,,,,,,,0.453525,1,,,,,,135,WORD,UN,33,chrome,IMPORT,m,,,,,,,0.379629667,0.029629587,0,0,0,,0,153,153,134,1,
,,,,,,,,,,,,,,,,,,5e71a80784155f0c75a56c70,2020-08-10_10h23.19.876,lexical_decision_task_MP,2020.1.3,Win32,60,m,1,0.37139,,,,,,,,0.37139,1,,,,,,46,WORD,"ID",33,single,SINGLE,m,,,,,,,0.379629667,0.029629587,0,0,0,,0,154,154,45,1,
,,,,,,,,,,,,,,,,,,5e71a80784155f0c75a56c70,2020-08-10_10h23.19.876,lexical_decision_task_MP,2020.1.3,Win32,60,z,1,0.62709,,,,,,,,0.62709,1,,,,,,417,NW,UN,33,suidle,EAROUD,z,,,,,,,0.379629667,0.029629587,0,0,0,,0,155,155,416,1,
,,,,,,,,,,,,,,,,,,5e71a80784155f0c75a56c70,2020-08-10_10h23.19.876,lexical_decision_task_MP,2020.1.3,Win32,60,m,1,0.44199,,,,,,,,0.44199,1,,,,,,79,WORD,"ID",50,theory,THEORY,m,,,,,,,0.379629667,0.029629587,0,0,0,,0,156,156,78,1,
,,,,,,,,,,,,,,,,,,5e71a80784155f0c75a56c70,2020-08-10_10h23.19.876,lexical_decision_task_MP,2020.1.3,Win32,60,m,1,0.455975,,,,,,,,0.455975,1,,,,,,140,WORD,UN,33,reason,PRINCE,m,,,,,,,0.379629667,0.029629587,0,0,0,,0,157,157,139,1,
,,,,,,,,,,,,,,,,,,5e71a80784155f0c75a56c70,2020-08-10_10h23.19.876,lexical_decision_task_MP,2020.1.3,Win32,60,z,1,0.5026,,,,,,,,0.5026,1,,,,,,424,NW,UN,50,urivel,PRAILE,z,,,,,,,0.379629667,0.029629587,0,0,0,,0,158,158,423,1,
,,,,,,,,,,,,,,,,,,5e71a80784155f0c75a56c70,2020-08-10_10h23.19.876,lexical_decision_task_MP,2020.1.3,Win32,60,z,1,0.63066,,,,,,,,0.63066,1,,,,,,438,NW,UN,50,limpor,BAITCH,z,,,,,,,0.379629667,0.029629587,0,0,0,,0,159,159,437,1,
,,,,,,,,,,,,,,,,,,5e71a80784155f0c75a56c70,2020-08-10_10h23.19.876,lexical_decision_task_MP,2020.1.3,Win32,60,z,1,0.49719,,,,,,,,0.49719,1,,,,,,360,NW,"ID",50,desory,DESORY,z,,,,,,,0.379629667,0.029629587,0,0,0,,0,160,160,359,1,
,,,,,,,,,,,,,,,,,,5e71a80784155f0c75a56c70,2020-08-10_10h23.19.876,lexical_decision_task_MP,2020.1.3,Win32,60,z,1,0.581165,,,,,,,,0.581165,1,,,,,,452,NW,UN,50,bolvis,SURDEN,z,,,,,,,0.379629667,0.029629587,0,0,0,,0,161,161,451,1,
,,,,,,,,,,,,,,,,,,5e71a80784155f0c75a56c70,2020-08-10_10h23.19.876,lexical_decision_task_MP,2020.1.3,Win32,60,z,1,0.39522,,,,,,,,0.39522,1,,,,,,362,NW,UN,33,breali,TIREAU,z,,,,,,,0.379629667,0.029629587,0,0,0,,0,162,162,361,1,
,,,,,,,,,,,,,,,,,,5e71a80784155f0c75a56c70,2020-08-10_10h23.19.876,lexical_decision_task_MP,2020.1.3,Win32,60,m,1,0.40945,,,,,,,,0.40945,1,,,,,,197,WORD,UN,50,wicked,STREAM,m,,,,,,,0.379629667,0.029629587,0,0,0,,0,163,163,196,1,
,,,,,,,,,,,,,,,,,,5e71a80784155f0c75a56c70,2020-08-10_10h23.19.876,lexical_decision_task_MP,2020.1.3,Win32,60,m,1,0.51665,,,,,,,,0.51665,1,,,,,,83,WORD,"ID",50,result,RESULT,m,,,,,,,0.379629667,0.029629587,0,0,0,,0,164,164,82,1,
,,,,,,,,,,,,,,,,,,5e71a80784155f0c75a56c70,2020-08-10_10h23.19.876,lexical_decision_task_MP,2020.1.3,Win32,60,m,1,0.536795,,,,,,,,0.536795,1,,,,,,110,WORD,"ID",50,polite,POLITE,m,,,,,,,0.379629667,0.029629587,0,0,0,,0,165,165,109,1,
,,,,,,,,,,,,,,,,,,5e71a80784155f0c75a56c70,2020-08-10_10h23.19.876,lexical_decision_task_MP,2020.1.3,Win32,60,m,0,0.5343,,,,,,,,0.5343,0,,,,,,341,NW,"ID",50,myrtie,MYRTIE,z,,,,,,,0.379629667,0.029629587,0,0,0,,0,166,166,340,1,
,,,,,,,,,,,,,,,,,,5e71a80784155f0c75a56c70,2020-08-10_10h23.19.876,lexical_decision_task_MP,2020.1.3,Win32,60,z,1,0.4906,,,,,,,,0.4906,1,,,,,,415,NW,UN,33,pathel,HIGSTA,z,,,,,,,0.379629667,0.029629587,0,0,0,,0,167,167,414,1,
,,,,,,,,,,,,,,,,,,5e71a80784155f0c75a56c70,2020-08-10_10h23.19.876,lexical_decision_task_MP,2020.1.3,Win32,60,z,1,0.45358,,,,,,,,0.45358,1,,,,,,333,NW,"ID",50,catrie,CATRIE,z,,,,,,,0.379629667,0.029629587,0,0,0,,0,168,168,332,1,
,,,,,,,,,,,,,,,,,,5e71a80784155f0c75a56c70,2020-08-10_10h23.19.876,lexical_decision_task_MP,2020.1.3,Win32,60,z,1,0.441765,,,,,,,,0.441765,1,,,,,,367,NW,UN,33,hornal,SLIQUE,z,,,,,,,0.379629667,0.029629587,0,0,0,,0,169,169,366,1,
,,,,,,,,,,,,,,,,,,5e71a80784155f0c75a56c70,2020-08-10_10h23.19.876,lexical_decision_task_MP,2020.1.3,Win32,60,m,1,0.48377,,,,,,,,0.48377,1,,,,,,202,WORD,UN,50,phrase,FACTOR,m,,,,,,,0.379629667,0.029629587,0,0,0,,0,170,170,201,1,
,,,,,,,,,,,,,,,,,,5e71a80784155f0c75a56c70,2020-08-10_10h23.19.876,lexical_decision_task_MP,2020.1.3,Win32,60,z,1,0.83171,,,,,,,,0.83171,1,,,,,,476,NW,UN,50,photie,JOSTED,z,,,,,,,0.379629667,0.029629587,0,0,0,,0,171,171,475,1,
,,,,,,,,,,,,,,,,,,5e71a80784155f0c75a56c70,2020-08-10_10h23.19.876,lexical_decision_task_MP,2020.1.3,Win32,60,m,1,0.431765,,,,,,,,0.431765,1,,,,,,181,WORD,UN,50,winter,GLANCE,m,,,,,,,0.379629667,0.029629587,0,0,0,,0,172,172,180,1,
,,,,,,,,,,,,,,,,,,5e71a80784155f0c75a56c70,2020-08-10_10h23.19.876,lexical_decision_task_MP,2020.1.3,Win32,60,m,1,0.61601,,,,,,,,0.61601,1,,,,,,169,WORD,UN,33,pounce,GENIUS,m,,,,,,,0.379629667,0.029629587,0,0,0,,0,173,173,168,1,
,,,,,,,,,,,,,,,,,,5e71a80784155f0c75a56c70,2020-08-10_10h23.19.876,lexical_decision_task_MP,2020.1.3,Win32,60,z,1,0.52004,,,,,,,,0.52004,1,,,,,,374,NW,UN,33,yorque,SLIANT,z,,,,,,,0.379629667,0.029629587,0,0,0,,0,174,174,373,1,
,,,,,,,,,,,,,,,,,,5e71a80784155f0c75a56c70,2020-08-10_10h23.19.876,lexical_decision_task_MP,2020.1.3,Win32,60,m,1,0.66544,,,,,,,,0.66544,1,,,,,,214,WORD,UN,50,phobia,INTAKE,m,,,,,,,0.379629667,0.029629587,0,0,0,,0,175,175,213,1,
,,,,,,,,,,,,,,,,,,5e71a80784155f0c75a56c70,2020-08-10_10h23.19.876,lexical_decision_task_MP,2020.1.3,Win32,60,z,1,0.56413,,,,,,,,0.56413,1,,,,,,331,NW,"ID",50,gilfew,GILFEW,z,,,,,,,0.379629667,0.029629587,0,0,0,,0,176,176,330,1,
,,,,,,,,,,,,,,,,,,5e71a80784155f0c75a56c70,2020-08-10_10h23.19.876,lexical_decision_task_MP,2020.1.3,Win32,60,z,1,0.532005,,,,,,,,0.532005,1,,,,,,404,NW,UN,33,syntic,CLUIRM,z,,,,,,,0.379629667,0.029629587,0,0,0,,0,177,177,403,1,
,,,,,,,,,,,,,,,,,,5e71a80784155f0c75a56c70,2020-08-10_10h23.19.876,lexical_decision_task_MP,2020.1.3,Win32,60,m,1,0.470835,,,,,,,,0.470835,1,,,,,,52,WORD,"ID",33,impose,IMPOSE,m,,,,,,,0.379629667,0.029629587,0,0,0,,0,178,178,51,1,
,,,,,,,,,,,,,,,,,,5e71a80784155f0c75a56c70,2020-08-10_10h23.19.876,lexical_decision_task_MP,2020.1.3,Win32,60,m,1,0.51754,,,,,,,,0.51754,1,,,,,,138,WORD,UN,33,staple,MELODY,m,,,,,,,0.379629667,0.029629587,0,0,0,,0,179,179,137,1,
,,,,,,,,,,,,,,,,,,5e71a80784155f0c75a56c70,2020-08-10_10h23.19.876,lexical_decision_task_MP,2020.1.3,Win32,60,m,1,0.540795,,,,,,,,0.540795,1,,,,,,96,WORD,"ID",50,ignore,IGNORE,m,,,,,,,0.379629667,0.029629587,0,0,0,,0,180,180,95,1,
,,,,,,,,,,,,,,,,,,5e71a80784155f0c75a56c70,2020-08-10_10h23.19.876,lexical_decision_task_MP,2020.1.3,Win32,60,m,1,0.45825,,,,,,,,0.45825,1,,,,,,178,WORD,UN,33,mildew,INFORM,m,,,,,,,0.379629667,0.029629587,0,0,0,,0,181,181,177,1,
,,,,,,,,,,,,,,,,,,5e71a80784155f0c75a56c70,2020-08-10_10h23.19.876,lexical_decision_task_MP,2020.1.3,Win32,60,m,1,0.48873,,,,,,,,0.48873,1,,,,,,182,WORD,UN,50,basket,WINTER,m,,,,,,,0.379629667,0.029629587,0,0,0,,0,182,182,181,1,
,,,,,,,,,,,,,,,,,,5e71a80784155f0c75a56c70,2020-08-10_10h23.19.876,lexical_decision_task_MP,2020.1.3,Win32,60,m,1,0.3375,,,,,,,,0.3375,1,,,,,,64,WORD,"ID",50,throne,THRONE,m,,,,,,,0.379629667,0.029629587,0,0,0,,0,183,183,63,1,
,,,,,,,,,,,,,,,,,,5e71a80784155f0c75a56c70,2020-08-10_10h23.19.876,lexical_decision_task_MP,2020.1.3,Win32,60,m,1,0.25402,,,,,,,,0.25402,1,,,,,,21,WORD,"ID",33,simple,SIMPLE,m,,,,,,,0.379629667,0.029629587,0,0,0,,0,184,184,20,1,
,,,,,,,,,,,,,,,,,,5e71a80784155f0c75a56c70,2020-08-10_10h23.19.876,lexical_decision_task_MP,2020.1.3,Win32,60,m,0,0.24972,,,,,,,,0.24972,0,,,,,,275,NW,"ID",33,sleirt,SLEIRT,z,,,,,,,0.379629667,0.029629587,0,0,0,,0,185,185,274,1,
,,,,,,,,,,,,,,,,,,5e71a80784155f0c75a56c70,2020-08-10_10h23.19.876,lexical_decision_task_MP,2020.1.3,Win32,60,m,0,0.56857,,,,,,,,0.56857,0,,,,,,303,NW,"ID",50,fiream,FIREAM,z,,,,,,,0.379629667,0.029629587,0,0,0,,0,186,186,302,1,
,,,,,,,,,,,,,,,,,,5e71a80784155f0c75a56c70,2020-08-10_10h23.19.876,lexical_decision_task_MP,2020.1.3,Win32,60,m,1,0.51396,,,,,,,,0.51396,1,,,,,,122,WORD,UN,33,strike,LINGER,m,,,,,,,0.379629667,0.029629587,0,0,0,,0,187,187,121,1,
,,,,,,,,,,,,,,,,,,5e71a80784155f0c75a56c70,2020-08-10_10h23.19.876,lexical_decision_task_MP,2020.1.3,Win32,60,m,1,0.484055,,,,,,,,0.484055,1,,,,,,191,WORD,UN,50,absent,STABLE,m,,,,,,,0.379629667,0.029629587,0,0,0,,0,188,188,190,1,
,,,,,,,,,,,,,,,,,,5e71a80784155f0c75a56c70,2020-08-10_10h23.19.876,lexical_decision_task_MP,2020.1.3,Win32,60,z,0,0.59448,,,,,,,,0.59448,0,,,,,,211,WORD,UN,50,verify,INFECT,m,,,,,,,0.379629667,0.029629587,0,0,0,,0,189,189,210,1,
,,,,,,,,,,,,,,,,,,5e71a80784155f0c75a56c70,2020-08-10_10h23.19.876,lexical_decision_task_MP,2020.1.3,Win32,60,z,1,0.434415,,,,,,,,0.434415,1,,,,,,394,NW,UN,33,colury,SPAQUX,z,,,,,,,0.379629667,0.029629587,0,0,0,,0,190,190,393,1,
,,,,,,,,,,,,,,,,,,5e71a80784155f0c75a56c70,2020-08-10_10h23.19.876,lexical_decision_task_MP,2020.1.3,Win32,60,m,1,0.5008,,,,,,,,0.5008,1,,,,,,36,WORD,"ID",33,vanish,VANISH,m,,,,,,,0.379629667,0.029629587,0,0,0,,0,191,191,35,1,
,,,,,,,,,,,,,,,,,,5e71a80784155f0c75a56c70,2020-08-10_10h23.19.876,lexical_decision_task_MP,2020.1.3,Win32,60,m,1,0.55798,,,,,,,,0.55798,1,,,,,,17,WORD,"ID",33,charge,CHARGE,m,,,,,,,0.379629667,0.029629587,0,0,0,,0,192,192,16,1,
,,,,,,,,,,,,,,,,,,5e71a80784155f0c75a56c70,2020-08-10_10h23.19.876,lexical_decision_task_MP,2020.1.3,Win32,60,m,1,0.467045,,,,,,,,0.467045,1,,,,,,177,WORD,UN,33,inform,ADVENT,m,,,,,,,0.379629667,0.029629587,0,0,0,,0,193,193,176,1,
,,,,,,,,,,,,,,,,,,5e71a80784155f0c75a56c70,2020-08-10_10h23.19.876,lexical_decision_task_MP,2020.1.3,Win32,60,m,1,0.397445,,,,,,,,0.397445,1,,,,,,18,WORD,"ID",33,humble,HUMBLE,m,,,,,,,0.379629667,0.029629587,0,0,0,,0,194,194,17,1,
,,,,,,,,,,,,,,,,,,5e71a80784155f0c75a56c70,2020-08-10_10h23.19.876,lexical_decision_task_MP,2020.1.3,Win32,60,z,1,0.50047,,,,,,,,0.50047,1,,,,,,429,NW,UN,50,caroey,FUNTLE,z,,,,,,,0.379629667,0.029629587,0,0,0,,0,195,195,428,1,
,,,,,,,,,,,,,,,,,,5e71a80784155f0c75a56c70,2020-08-10_10h23.19.876,lexical_decision_task_MP,2020.1.3,Win32,60,z,1,0.521175,,,,,,,,0.521175,1,,,,,,427,NW,UN,50,tandly,SCHIND,z,,,,,,,0.379629667,0.029629587,0,0,0,,0,196,196,426,1,
,,,,,,,,,,,,,,,,,,5e71a80784155f0c75a56c70,2020-08-10_10h23.19.876,lexical_decision_task_MP,2020.1.3,Win32,60,m,1,0.464835,,,,,,,,0.464835,1,,,,,,13,WORD,"ID",33,strive,STRIVE,m,,,,,,,0.379629667,0.029629587,0,0,0,,0,197,197,12,1,
,,,,,,,,,,,,,,,,,,5e71a80784155f0c75a56c70,2020-08-10_10h23.19.876,lexical_decision_task_MP,2020.1.3,Win32,60,m,1,0.47096,,,,,,,,0.47096,1,,,,,,72,WORD,"ID",50,bright,BRIGHT,m,,,,,,,0.379629667,0.029629587,0,0,0,,0,198,198,71,1,
,,,,,,,,,,,,,,,,,,5e71a80784155f0c75a56c70,2020-08-10_10h23.19.876,lexical_decision_task_MP,2020.1.3,Win32,60,m,1,0.418045,,,,,,,,0.418045,1,,,,,,75,WORD,"ID",50,trophy,TROPHY,m,,,,,,,0.379629667,0.029629587,0,0,0,,0,199,199,74,1,
,,,,,,,,,,,,,,,,,,5e71a80784155f0c75a56c70,2020-08-10_10h23.19.876,lexical_decision_task_MP,2020.1.3,Win32,60,m,1,0.358235,,,,,,,,0.358235,1,,,,,,109,WORD,"ID",50,wonder,WONDER,m,,,,,,,0.379629667,0.029629587,0,0,0,,0,200,200,108,1,
,,,,,,,,,,,,,,,,,,5e71a80784155f0c75a56c70,2020-08-10_10h23.19.876,lexical_decision_task_MP,2020.1.3,Win32,60,m,1,0.387315,,,,,,,,0.387315,1,,,,,,19,WORD,"ID",33,patron,PATRON,m,,,,,,,0.379629667,0.029629587,0,0,0,,0,201,201,18,1,
,,,,,,,,,,,,,,,,,,5e71a80784155f0c75a56c70,2020-08-10_10h23.19.876,lexical_decision_task_MP,2020.1.3,Win32,60,z,1,0.43572,,,,,,,,0.43572,1,,,,,,354,NW,"ID",50,virlex,VIRLEX,z,,,,,,,0.379629667,0.029629587,0,0,0,,0,202,202,353,1,
,,,,,,,,,,,,,,,,,,5e71a80784155f0c75a56c70,2020-08-10_10h23.19.876,lexical_decision_task_MP,2020.1.3,Win32,60,z,1,0.41612,,,,,,,,0.41612,1,,,,,,339,NW,"ID",50,fachow,FACHOW,z,,,,,,,0.379629667,0.029629587,0,0,0,,0,203,203,338,1,
,,,,,,,,,,,,,,,,,,5e71a80784155f0c75a56c70,2020-08-10_10h23.19.876,lexical_decision_task_MP,2020.1.3,Win32,60,z,1,0.464575,,,,,,,,0.464575,1,,,,,,465,NW,UN,50,hocite,WHIVEX,z,,,,,,,0.379629667,0.029629587,0,0,0,,0,204,204,464,1,
,,,,,,,,,,,,,,,,,,5e71a80784155f0c75a56c70,2020-08-10_10h23.19.876,lexical_decision_task_MP,2020.1.3,Win32,60,z,0,0.40569,,,,,,,,0.40569,0,,,,,,163,WORD,UN,33,market,STRING,m,,,,,,,0.379629667,0.029629587,0,0,0,,0,205,205,162,1,
,,,,,,,,,,,,,,,,,,5e71a80784155f0c75a56c70,2020-08-10_10h23.19.876,lexical_decision_task_MP,2020.1.3,Win32,60,m,0,0.41692,,,,,,,,0.41692,0,,,,,,318,NW,"ID",50,reagly,REAGLY,z,,,,,,,0.379629667,0.029629587,0,0,0,,0,206,206,317,1,
,,,,,,,,,,,,,,,,,,5e71a80784155f0c75a56c70,2020-08-10_10h23.19.876,lexical_decision_task_MP,2020.1.3,Win32,60,z,1,0.4941,,,,,,,,0.4941,1,,,,,,272,NW,"ID",33,damilt,DAMILT,z,,,,,,,0.379629667,0.029629587,0,0,0,,0,207,207,271,1,
,,,,,,,,,,,,,,,,,,5e71a80784155f0c75a56c70,2020-08-10_10h23.19.876,lexical_decision_task_MP,2020.1.3,Win32,60,m,1,0.483005,,,,,,,,0.483005,1,,,,,,78,WORD,"ID",50,column,COLUMN,m,,,,,,,0.379629667,0.029629587,0,0,0,,0,208,208,77,1,
,,,,,,,,,,,,,,,,,,5e71a80784155f0c75a56c70,2020-08-10_10h23.19.876,lexical_decision_task_MP,2020.1.3,Win32,60,m,1,0.638495,,,,,,,,0.638495,1,,,,,,145,WORD,UN,33,couple,PARISH,m,,,,,,,0.379629667,0.029629587,0,0,0,,0,209,209,144,1,
,,,,,,,,,,,,,,,,,,5e71a80784155f0c75a56c70,2020-08-10_10h23.19.876,lexical_decision_task_MP,2020.1.3,Win32,60,z,1,0.488805,,,,,,,,0.488805,1,,,,,,255,NW,"ID",33,apight,APIGHT,z,,,,,,,0.379629667,0.029629587,0,0,0,,0,210,210,254,1,
,,,,,,,,,,,,,,,,,,5e71a80784155f0c75a56c70,2020-08-10_10h23.19.876,lexical_decision_task_MP,2020.1.3,Win32,60,z,1,0.6498,,,,,,,,0.6498,1,,,,,,281,NW,"ID",33,melaty,MELATY,z,,,,,,,0.379629667,0.029629587,0,0,0,,0,211,211,280,1,
,,,,,,,,,,,,,,,,,,5e71a80784155f0c75a56c70,2020-08-10_10h23.19.876,lexical_decision_task_MP,2020.1.3,Win32,60,m,1,0.687335,,,,,,,,0.687335,1,,,,,,116,WORD,"ID",50,tumble,TUMBLE,m,,,,,,,0.379629667,0.029629587,0,0,0,,0,212,212,115,1,
,,,,,,,,,,,,,,,,,,5e71a80784155f0c75a56c70,2020-08-10_10h23.19.876,lexical_decision_task_MP,2020.1.3,Win32,60,z,0,0.575565,,,,,,,,0.575565,0,,,,,,82,WORD,"ID",50,stigma,STIGMA,m,,,,,,,0.379629667,0.029629587,0,0,0,,0,213,213,81,1,
,,,,,,,,,,,,,,,,,,5e71a80784155f0c75a56c70,2020-08-10_10h23.19.876,lexical_decision_task_MP,2020.1.3,Win32,60,m,1,0.430885,,,,,,,,0.430885,1,,,,,,187,WORD,UN,50,social,COURSE,m,,,,,,,0.379629667,0.029629587,0,0,0,,0,214,214,186,1,
,,,,,,,,,,,,,,,,,,5e71a80784155f0c75a56c70,2020-08-10_10h23.19.876,lexical_decision_task_MP,2020.1.3,Win32,60,z,1,0.46826,,,,,,,,0.46826,1,,,,,,267,NW,"ID",33,pasink,PASINK,z,,,,,,,0.379629667,0.029629587,0,0,0,,0,215,215,266,1,
,,,,,,,,,,,,,,,,,,5e71a80784155f0c75a56c70,2020-08-10_10h23.19.876,lexical_decision_task_MP,2020.1.3,Win32,60,m,1,0.430705,,,,,,,,0.430705,1,,,,,,233,WORD,UN,50,clumsy,NATURE,m,,,,,,,0.379629667,0.029629587,0,0,0,,0,216,216,232,1,
,,,,,,,,,,,,,,,,,,5e71a80784155f0c75a56c70,2020-08-10_10h23.19.876,lexical_decision_task_MP,2020.1.3,Win32,60,m,1,0.47502,,,,,,,,0.47502,1,,,,,,119,WORD,"ID",50,spider,SPIDER,m,,,,,,,0.379629667,0.029629587,0,0,0,,0,217,217,118,1,
,,,,,,,,,,,,,,,,,,5e71a80784155f0c75a56c70,2020-08-10_10h23.19.876,lexical_decision_task_MP,2020.1.3,Win32,60,z,1,0.568345,,,,,,,,0.568345,1,,,,,,461,NW,UN,50,absult,JUSTRE,z,,,,,,,0.379629667,0.029629587,0,0,0,,0,218,218,460,1,
,,,,,,,,,,,,,,,,,,5e71a80784155f0c75a56c70,2020-08-10_10h23.19.876,lexical_decision_task_MP,2020.1.3,Win32,60,m,1,0.565955,,,,,,,,0.565955,1,,,,,,10,WORD,"ID",33,ethnic,ETHNIC,m,,,,,,,0.379629667,0.029629587,0,0,0,,0,219,219,9,1,
,,,,,,,,,,,,,,,,,,5e71a80784155f0c75a56c70,2020-08-10_10h23.19.876,lexical_decision_task_MP,2020.1.3,Win32,60,m,1,0.488155,,,,,,,,0.488155,1,,,,,,3,WORD,"ID",33,knight,KNIGHT,m,,,,,,,0.379629667,0.029629587,0,0,0,,0,220,220,2,1,
,,,,,,,,,,,,,,,,,,5e71a80784155f0c75a56c70,2020-08-10_10h23.19.876,lexical_decision_task_MP,2020.1.3,Win32,60,z,1,0.45513,,,,,,,,0.45513,1,,,,,,294,NW,"ID",33,inhort,INHORT,z,,,,,,,0.379629667,0.029629587,0,0,0,,0,221,221,293,1,
,,,,,,,,,,,,,,,,,,5e71a80784155f0c75a56c70,2020-08-10_10h23.19.876,lexical_decision_task_MP,2020.1.3,Win32,60,z,1,0.450285,,,,,,,,0.450285,1,,,,,,387,NW,UN,33,cragin,GRONCE,z,,,,,,,0.379629667,0.029629587,0,0,0,,0,222,222,386,1,
,,,,,,,,,,,,,,,,,,5e71a80784155f0c75a56c70,2020-08-10_10h23.19.876,lexical_decision_task_MP,2020.1.3,Win32,60,z,1,0.450255,,,,,,,,0.450255,1,,,,,,246,NW,"ID",33,piaton,PIATON,z,,,,,,,0.379629667,0.029629587,0,0,0,,0,223,223,245,1,
,,,,,,,,,,,,,,,,,,5e71a80784155f0c75a56c70,2020-08-10_10h23.19.876,lexical_decision_task_MP,2020.1.3,Win32,60,m,1,0.51584,,,,,,,,0.51584,1,,,,,,230,WORD,UN,50,export,FRINGE,m,,,,,,,0.379629667,0.029629587,0,0,0,,0,224,224,229,1,
,,,,,,,,,,,,,,,,,,5e71a80784155f0c75a56c70,2020-08-10_10h23.19.876,lexical_decision_task_MP,2020.1.3,Win32,60,z,1,0.55592,,,,,,,,0.55592,1,,,,,,270,NW,"ID",33,wrimsy,WRIMSY,z,,,,,,,0.379629667,0.029629587,0,0,0,,0,225,225,269,1,
,,,,,,,,,,,,,,,,,,5e71a80784155f0c75a56c70,2020-08-10_10h23.19.876,lexical_decision_task_MP,2020.1.3,Win32,60,m,0,0.649465,,,,,,,,0.649465,0,,,,,,332,NW,"ID",50,vangue,VANGUE,z,,,,,,,0.379629667,0.029629587,0,0,0,,0,226,226,331,1,
,,,,,,,,,,,,,,,,,,5e71a80784155f0c75a56c70,2020-08-10_10h23.19.876,lexical_decision_task_MP,2020.1.3,Win32,60,z,1,0.484245,,,,,,,,0.484245,1,,,,,,323,NW,"ID",50,rosail,ROSAIL,z,,,,,,,0.379629667,0.029629587,0,0,0,,0,227,227,322,1,
,,,,,,,,,,,,,,,,,,5e71a80784155f0c75a56c70,2020-08-10_10h23.19.876,lexical_decision_task_MP,2020.1.3,Win32,60,m,1,0.465185,,,,,,,,0.465185,1,,,,,,38,WORD,"ID",33,powder,POWDER,m,,,,,,,0.379629667,0.029629587,0,0,0,,0,228,228,37,1,
,,,,,,,,,,,,,,,,,,5e71a80784155f0c75a56c70,2020-08-10_10h23.19.876,lexical_decision_task_MP,2020.1.3,Win32,60,m,1,0.518425,,,,,,,,0.518425,1,,,,,,124,WORD,UN,33,nickel,BLOUSE,m,,,,,,,0.379629667,0.029629587,0,0,0,,0,229,229,123,1,
,,,,,,,,,,,,,,,,,,5e71a80784155f0c75a56c70,2020-08-10_10h23.19.876,lexical_decision_task_MP,2020.1.3,Win32,60,m,1,0.38245,,,,,,,,0.38245,1,,,,,,174,WORD,UN,33,fabric,TURKEY,m,,,,,,,0.379629667,0.029629587,0,0,0,,0,230,230,173,1,
,,,,,,,,,,,,,,,,,,5e71a80784155f0c75a56c70,2020-08-10_10h23.19.876,lexical_decision_task_MP,2020.1.3,Win32,60,m,1,0.454195,,,,,,,,0.454195,1,,,,,,203,WORD,UN,50,burden,PHRASE,m,,,,,,,0.379629667,0.029629587,0,0,0,,0,231,231,202,1,
,,,,,,,,,,,,,,,,,,5e71a80784155f0c75a56c70,2020-08-10_10h23.19.876,lexical_decision_task_MP,2020.1.3,Win32,60,m,1,0.549285,,,,,,,,0.549285,1,,,,,,77,WORD,"ID",50,racket,RACKET,m,,,,,,,0.379629667,0.029629587,0,0,0,,0,232,232,76,1,
,,,,,,,,,,,,,,,,,,5e71a80784155f0c75a56c70,2020-08-10_10h23.19.876,lexical_decision_task_MP,2020.1.3,Win32,60,z,1,0.499025,,,,,,,,0.499025,1,,,,,,361,NW,UN,33,tireau,PAUCHE,z,,,,,,,0.379629667,0.029629587,0,0,0,,0,233,233,360,1,
,,,,,,,,,,,,,,,,,,5e71a80784155f0c75a56c70,2020-08-10_10h23.19.876,lexical_decision_task_MP,2020.1.3,Win32,60,m,1,0.37071,,,,,,,,0.37071,1,,,,,,219,WORD,UN,50,voyage,BUCKET,m,,,,,,,0.379629667,0.029629587,0,0,0,,0,234,234,218,1,
,,,,,,,,,,,,,,,,,,5e71a80784155f0c75a56c70,2020-08-10_10h23.19.876,lexical_decision_task_MP,2020.1.3,Win32,60,m,1,0.31572,,,,,,,,0.31572,1,,,,,,39,WORD,"ID",33,insect,INSECT,m,,,,,,,0.379629667,0.029629587,0,0,0,,0,235,235,38,1,
,,,,,,,,,,,,,,,,,,5e71a80784155f0c75a56c70,2020-08-10_10h23.19.876,lexical_decision_task_MP,2020.1.3,Win32,60,m,1,0.46718,,,,,,,,0.46718,1,,,,,,239,WORD,UN,50,forest,LUMBER,m,,,,,,,0.379629667,0.029629587,0,0,0,,0,236,236,238,1,
,,,,,,,,,,,,,,,,,,5e71a80784155f0c75a56c70,2020-08-10_10h23.19.876,lexical_decision_task_MP,2020.1.3,Win32,60,m,1,0.304575,,,,,,,,0.304575,1,,,,,,105,WORD,"ID",50,number,NUMBER,m,,,,,,,0.379629667,0.029629587,0,0,0,,0,237,237,104,1,
,,,,,,,,,,,,,,,,,,5e71a80784155f0c75a56c70,2020-08-10_10h23.19.876,lexical_decision_task_MP,2020.1.3,Win32,60,m,1,0.391725,,,,,,,,0.391725,1,,,,,,152,WORD,UN,33,behold,ROCKET,m,,,,,,,0.379629667,0.029629587,0,0,0,,0,238,238,151,1,
,,,,,,,,,,,,,,,,,,5e71a80784155f0c75a56c70,2020-08-10_10h23.19.876,lexical_decision_task_MP,2020.1.3,Win32,60,z,1,0.46766,,,,,,,,0.46766,1,,,,,,282,NW,"ID",33,porlex,PORLEX,z,,,,,,,0.379629667,0.029629587,0,0,0,,0,239,239,281,1,
,,,,,,,,,,,,,,,,,,5e71a80784155f0c75a56c70,2020-08-10_10h23.19.876,lexical_decision_task_MP,2020.1.3,Win32,60,z,1,0.59906,,,,,,,,0.59906,1,,,,,,292,NW,"ID",33,ablint,ABLINT,z,,,,,,,0.379629667,0.029629587,0,0,0,,0,240,240,291,1,
,,,,,,,,,,,,,,,,,,5e71a80784155f0c75a56c70,2020-08-10_10h23.19.876,lexical_decision_task_MP,2020.1.3,Win32,60,z,1,0.71746,,,,,,,,0.71746,1,,,,,,407,NW,UN,33,hurnia,SUIVER,z,,,,,,,0.379629667,0.029629587,0,0,0,space,0,241,241,406,1,23.16425
,,,,,,,,,,,,,,,,,,5e71a80784155f0c75a56c70,2020-08-10_10h23.19.876,lexical_decision_task_MP,2020.1.3,Win32,60,z,0,0.286155,,,,,,,,0.286155,0,,,,,,208,WORD,UN,50,search,HOCKEY,m,,,,,,,0.379629667,0.029629587,0,0,0,,0,242,242,207,1,
,,,,,,,,,,,,,,,,,,5e71a80784155f0c75a56c70,2020-08-10_10h23.19.876,lexical_decision_task_MP,2020.1.3,Win32,60,m,1,0.35416,,,,,,,,0.35416,1,,,,,,41,WORD,"ID",33,spring,SPRING,m,,,,,,,0.379629667,0.029629587,0,0,0,,0,243,243,40,1,
,,,,,,,,,,,,,,,,,,5e71a80784155f0c75a56c70,2020-08-10_10h23.19.876,lexical_decision_task_MP,2020.1.3,Win32,60,m,1,0.349835,,,,,,,,0.349835,1,,,,,,73,WORD,"ID",50,source,SOURCE,m,,,,,,,0.379629667,0.029629587,0,0,0,,0,244,244,72,1,
,,,,,,,,,,,,,,,,,,5e71a80784155f0c75a56c70,2020-08-10_10h23.19.876,lexical_decision_task_MP,2020.1.3,Win32,60,m,0,0.248425,,,,,,,,0.248425,0,,,,,,364,NW,UN,33,guairt,IMPOTE,z,,,,,,,0.379629667,0.029629587,0,0,0,,0,245,245,363,1,
,,,,,,,,,,,,,,,,,,5e71a80784155f0c75a56c70,2020-08-10_10h23.19.876,lexical_decision_task_MP,2020.1.3,Win32,60,m,1,0.39197,,,,,,,,0.39197,1,,,,,,28,WORD,"ID",33,comedy,COMEDY,m,,,,,,,0.379629667,0.029629587,0,0,0,,0,246,246,27,1,
,,,,,,,,,,,,,,,,,,5e71a80784155f0c75a56c70,2020-08-10_10h23.19.876,lexical_decision_task_MP,2020.1.3,Win32,60,m,0,0.432335,,,,,,,,0.432335,0,,,,,,442,NW,UN,50,dorsex,ABOUNE,z,,,,,,,0.379629667,0.029629587,0,0,0,,0,247,247,441,1,
,,,,,,,,,,,,,,,,,,5e71a80784155f0c75a56c70,2020-08-10_10h23.19.876,lexical_decision_task_MP,2020.1.3,Win32,60,z,0,0.4703,,,,,,,,0.4703,0,,,,,,45,WORD,"ID",33,clergy,CLERGY,m,,,,,,,0.379629667,0.029629587,0,0,0,,0,248,248,44,1,
,,,,,,,,,,,,,,,,,,5e71a80784155f0c75a56c70,2020-08-10_10h23.19.876,lexical_decision_task_MP,2020.1.3,Win32,60,z,1,0.52621,,,,,,,,0.52621,1,,,,,,410,NW,UN,33,orchin,TUNORY,z,,,,,,,0.379629667,0.029629587,0,0,0,,0,249,249,409,1,
,,,,,,,,,,,,,,,,,,5e71a80784155f0c75a56c70,2020-08-10_10h23.19.876,lexical_decision_task_MP,2020.1.3,Win32,60,z,1,0.51046,,,,,,,,0.51046,1,,,,,,466,NW,UN,50,pebric,HOCITE,z,,,,,,,0.379629667,0.029629587,0,0,0,,0,250,250,465,1,
,,,,,,,,,,,,,,,,,,5e71a80784155f0c75a56c70,2020-08-10_10h23.19.876,lexical_decision_task_MP,2020.1.3,Win32,60,m,1,0.566035,,,,,,,,0.566035,1,,,,,,151,WORD,UN,33,rocket,MYSTIC,m,,,,,,,0.379629667,0.029629587,0,0,0,,0,251,251,150,1,
,,,,,,,,,,,,,,,,,,5e71a80784155f0c75a56c70,2020-08-10_10h23.19.876,lexical_decision_task_MP,2020.1.3,Win32,60,m,1,0.481535,,,,,,,,0.481535,1,,,,,,165,WORD,UN,33,starch,INVEST,m,,,,,,,0.379629667,0.029629587,0,0,0,,0,252,252,164,1,
,,,,,,,,,,,,,,,,,,5e71a80784155f0c75a56c70,2020-08-10_10h23.19.876,lexical_decision_task_MP,2020.1.3,Win32,60,m,1,0.38421,,,,,,,,0.38421,1,,,,,,5,WORD,"ID",33,plunge,PLUNGE,m,,,,,,,0.379629667,0.029629587,0,0,0,,0,253,253,4,1,
,,,,,,,,,,,,,,,,,,5e71a80784155f0c75a56c70,2020-08-10_10h23.19.876,lexical_decision_task_MP,2020.1.3,Win32,60,m,1,0.48448,,,,,,,,0.48448,1,,,,,,7,WORD,"ID",33,anchor,ANCHOR,m,,,,,,,0.379629667,0.029629587,0,0,0,,0,254,254,6,1,
,,,,,,,,,,,,,,,,,,5e71a80784155f0c75a56c70,2020-08-10_10h23.19.876,lexical_decision_task_MP,2020.1.3,Win32,60,z,1,0.383395,,,,,,,,0.383395,1,,,,,,470,NW,UN,50,nobest,CRUDIO,z,,,,,,,0.379629667,0.029629587,0,0,0,,0,255,255,469,1,
,,,,,,,,,,,,,,,,,,5e71a80784155f0c75a56c70,2020-08-10_10h23.19.876,lexical_decision_task_MP,2020.1.3,Win32,60,z,1,0.35221,,,,,,,,0.35221,1,,,,,,478,NW,UN,50,lobush,ACRISE,z,,,,,,,0.379629667,0.029629587,0,0,0,,0,256,256,477,1,
,,,,,,,,,,,,,,,,,,5e71a80784155f0c75a56c70,2020-08-10_10h23.19.876,lexical_decision_task_MP,2020.1.3,Win32,60,z,1,0.43806,,,,,,,,0.43806,1,,,,,,248,NW,"ID",33,strole,STROLE,z,,,,,,,0.379629667,0.029629587,0,0,0,,0,257,257,247,1,
,,,,,,,,,,,,,,,,,,5e71a80784155f0c75a56c70,2020-08-10_10h23.19.876,lexical_decision_task_MP,2020.1.3,Win32,60,z,1,0.39192,,,,,,,,0.39192,1,,,,,,307,NW,"ID",50,kirafe,KIRAFE,z,,,,,,,0.379629667,0.029629587,0,0,0,,0,258,258,306,1,
,,,,,,,,,,,,,,,,,,5e71a80784155f0c75a56c70,2020-08-10_10h23.19.876,lexical_decision_task_MP,2020.1.3,Win32,60,z,1,0.68616,,,,,,,,0.68616,1,,,,,,450,NW,UN,50,rastoe,PHRECT,z,,,,,,,0.379629667,0.029629587,0,0,0,,0,259,259,449,1,
,,,,,,,,,,,,,,,,,,5e71a80784155f0c75a56c70,2020-08-10_10h23.19.876,lexical_decision_task_MP,2020.1.3,Win32,60,z,1,0.41851,,,,,,,,0.41851,1,,,,,,393,NW,UN,33,spaqux,GANOUS,z,,,,,,,0.379629667,0.029629587,0,0,0,,0,260,260,392,1,
,,,,,,,,,,,,,,,,,,5e71a80784155f0c75a56c70,2020-08-10_10h23.19.876,lexical_decision_task_MP,2020.1.3,Win32,60,z,0,0.353765,,,,,,,,0.353765,0,,,,,,212,WORD,UN,50,squeal,VERIFY,m,,,,,,,0.379629667,0.029629587,0,0,0,,0,261,261,211,1,
,,,,,,,,,,,,,,,,,,5e71a80784155f0c75a56c70,2020-08-10_10h23.19.876,lexical_decision_task_MP,2020.1.3,Win32,60,m,0,0.33457,,,,,,,,0.33457,0,,,,,,321,NW,"ID",50,miator,MIATOR,z,,,,,,,0.379629667,0.029629587,0,0,0,,0,262,262,320,1,
,,,,,,,,,,,,,,,,,,5e71a80784155f0c75a56c70,2020-08-10_10h23.19.876,lexical_decision_task_MP,2020.1.3,Win32,60,m,1,0.723035,,,,,,,,0.723035,1,,,,,,217,WORD,UN,50,shrink,LIQUOR,m,,,,,,,0.379629667,0.029629587,0,0,0,,0,263,263,216,1,
,,,,,,,,,,,,,,,,,,5e71a80784155f0c75a56c70,2020-08-10_10h23.19.876,lexical_decision_task_MP,2020.1.3,Win32,60,z,1,0.65949,,,,,,,,0.65949,1,,,,,,413,NW,UN,33,serbol,EQUATS,z,,,,,,,0.379629667,0.029629587,0,0,0,,0,264,264,412,1,
,,,,,,,,,,,,,,,,,,5e71a80784155f0c75a56c70,2020-08-10_10h23.19.876,lexical_decision_task_MP,2020.1.3,Win32,60,z,1,0.521315,,,,,,,,0.521315,1,,,,,,430,NW,UN,50,funtle,CAROEY,z,,,,,,,0.379629667,0.029629587,0,0,0,,0,265,265,429,1,
,,,,,,,,,,,,,,,,,,5e71a80784155f0c75a56c70,2020-08-10_10h23.19.876,lexical_decision_task_MP,2020.1.3,Win32,60,z,1,0.38356,,,,,,,,0.38356,1,,,,,,279,NW,"ID",33,celond,CELOND,z,,,,,,,0.379629667,0.029629587,0,0,0,,0,266,266,278,1,
,,,,,,,,,,,,,,,,,,5e71a80784155f0c75a56c70,2020-08-10_10h23.19.876,lexical_decision_task_MP,2020.1.3,Win32,60,z,1,0.39143,,,,,,,,0.39143,1,,,,,,350,NW,"ID",50,nagurs,NAGURS,z,,,,,,,0.379629667,0.029629587,0,0,0,,0,267,267,349,1,
,,,,,,,,,,,,,,,,,,5e71a80784155f0c75a56c70,2020-08-10_10h23.19.876,lexical_decision_task_MP,2020.1.3,Win32,60,m,1,0.65483,,,,,,,,0.65483,1,,,,,,12,WORD,"ID",33,orange,ORANGE,m,,,,,,,0.379629667,0.029629587,0,0,0,,0,268,268,11,1,
,,,,,,,,,,,,,,,,,,5e71a80784155f0c75a56c70,2020-08-10_10h23.19.876,lexical_decision_task_MP,2020.1.3,Win32,60,m,0,0.54877,,,,,,,,0.54877,0,,,,,,265,NW,"ID",33,distar,DISTAR,z,,,,,,,0.379629667,0.029629587,0,0,0,,0,269,269,264,1,
,,,,,,,,,,,,,,,,,,5e71a80784155f0c75a56c70,2020-08-10_10h23.19.876,lexical_decision_task_MP,2020.1.3,Win32,60,m,1,0.36925,,,,,,,,0.36925,1,,,,,,91,WORD,"ID",50,expand,EXPAND,m,,,,,,,0.379629667,0.029629587,0,0,0,,0,270,270,90,1,
,,,,,,,,,,,,,,,,,,5e71a80784155f0c75a56c70,2020-08-10_10h23.19.876,lexical_decision_task_MP,2020.1.3,Win32,60,z,1,0.399165,,,,,,,,0.399165,1,,,,,,320,NW,"ID",50,jockal,JOCKAL,z,,,,,,,0.379629667,0.029629587,0,0,0,,0,271,271,319,1,
,,,,,,,,,,,,,,,,,,5e71a80784155f0c75a56c70,2020-08-10_10h23.19.876,lexical_decision_task_MP,2020.1.3,Win32,60,z,0,0.524155,,,,,,,,0.524155,0,,,,,,156,WORD,UN,33,pastor,CRADLE,m,,,,,,,0.379629667,0.029629587,0,0,0,,0,272,272,155,1,
,,,,,,,,,,,,,,,,,,5e71a80784155f0c75a56c70,2020-08-10_10h23.19.876,lexical_decision_task_MP,2020.1.3,Win32,60,z,1,0.451665,,,,,,,,0.451665,1,,,,,,286,NW,"ID",33,reldon,RELDON,z,,,,,,,0.379629667,0.029629587,0,0,0,,0,273,273,285,1,
,,,,,,,,,,,,,,,,,,5e71a80784155f0c75a56c70,2020-08-10_10h23.19.876,lexical_decision_task_MP,2020.1.3,Win32,60,z,1,0.43325,,,,,,,,0.43325,1,,,,,,453,NW,UN,50,scouge,BOLVIS,z,,,,,,,0.379629667,0.029629587,0,0,0,,0,274,274,452,1,
,,,,,,,,,,,,,,,,,,5e71a80784155f0c75a56c70,2020-08-10_10h23.19.876,lexical_decision_task_MP,2020.1.3,Win32,60,m,1,0.598825,,,,,,,,0.598825,1,,,,,,200,WORD,UN,50,admire,BEACON,m,,,,,,,0.379629667,0.029629587,0,0,0,,0,275,275,199,1,
,,,,,,,,,,,,,,,,,,5e71a80784155f0c75a56c70,2020-08-10_10h23.19.876,lexical_decision_task_MP,2020.1.3,Win32,60,m,1,0.50025,,,,,,,,0.50025,1,,,,,,129,WORD,UN,33,stupid,MARVEL,m,,,,,,,0.379629667,0.029629587,0,0,0,,0,276,276,128,1,
,,,,,,,,,,,,,,,,,,5e71a80784155f0c75a56c70,2020-08-10_10h23.19.876,lexical_decision_task_MP,2020.1.3,Win32,60,z,1,0.54307,,,,,,,,0.54307,1,,,,,,273,NW,"ID",33,sortel,SORTEL,z,,,,,,,0.379629667,0.029629587,0,0,0,,0,277,277,272,1,
,,,,,,,,,,,,,,,,,,5e71a80784155f0c75a56c70,2020-08-10_10h23.19.876,lexical_decision_task_MP,2020.1.3,Win32,60,m,1,0.46707,,,,,,,,0.46707,1,,,,,,27,WORD,"ID",33,scream,SCREAM,m,,,,,,,0.379629667,0.029629587,0,0,0,,0,278,278,26,1,
,,,,,,,,,,,,,,,,,,5e71a80784155f0c75a56c70,2020-08-10_10h23.19.876,lexical_decision_task_MP,2020.1.3,Win32,60,z,1,0.51815,,,,,,,,0.51815,1,,,,,,475,NW,UN,50,robuly,PEBRIC,z,,,,,,,0.379629667,0.029629587,0,0,0,,0,279,279,474,1,
,,,,,,,,,,,,,,,,,,5e71a80784155f0c75a56c70,2020-08-10_10h23.19.876,lexical_decision_task_MP,2020.1.3,Win32,60,m,1,0.532735,,,,,,,,0.532735,1,,,,,,25,WORD,"ID",33,domain,DOMAIN,m,,,,,,,0.379629667,0.029629587,0,0,0,,0,280,280,24,1,
,,,,,,,,,,,,,,,,,,5e71a80784155f0c75a56c70,2020-08-10_10h23.19.876,lexical_decision_task_MP,2020.1.3,Win32,60,m,1,0.50458,,,,,,,,0.50458,1,,,,,,37,WORD,"ID",33,insult,INSULT,m,,,,,,,0.379629667,0.029629587,0,0,0,,0,281,281,36,1,
,,,,,,,,,,,,,,,,,,5e71a80784155f0c75a56c70,2020-08-10_10h23.19.876,lexical_decision_task_MP,2020.1.3,Win32,60,z,1,0.468195,,,,,,,,0.468195,1,,,,,,381,NW,UN,33,sarley,HUNIEK,z,,,,,,,0.379629667,0.029629587,0,0,0,,0,282,282,380,1,
,,,,,,,,,,,,,,,,,,5e71a80784155f0c75a56c70,2020-08-10_10h23.19.876,lexical_decision_task_MP,2020.1.3,Win32,60,m,0,0.63438,,,,,,,,0.63438,0,,,,,,345,NW,"ID",50,absend,ABSEND,z,,,,,,,0.379629667,0.029629587,0,0,0,,0,283,283,344,1,
,,,,,,,,,,,,,,,,,,5e71a80784155f0c75a56c70,2020-08-10_10h23.19.876,lexical_decision_task_MP,2020.1.3,Win32,60,z,1,0.5157,,,,,,,,0.5157,1,,,,,,451,NW,UN,50,surden,CAINKY,z,,,,,,,0.379629667,0.029629587,0,0,0,,0,284,284,450,1,
,,,,,,,,,,,,,,,,,,5e71a80784155f0c75a56c70,2020-08-10_10h23.19.876,lexical_decision_task_MP,2020.1.3,Win32,60,z,1,0.60097,,,,,,,,0.60097,1,,,,,,358,NW,"ID",50,fleack,FLEACK,z,,,,,,,0.379629667,0.029629587,0,0,0,,0,285,285,357,1,
,,,,,,,,,,,,,,,,,,5e71a80784155f0c75a56c70,2020-08-10_10h23.19.876,lexical_decision_task_MP,2020.1.3,Win32,60,z,1,0.406115,,,,,,,,0.406115,1,,,,,,359,NW,"ID",50,fonver,FONVER,z,,,,,,,0.379629667,0.029629587,0,0,0,,0,286,286,358,1,
,,,,,,,,,,,,,,,,,,5e71a80784155f0c75a56c70,2020-08-10_10h23.19.876,lexical_decision_task_MP,2020.1.3,Win32,60,m,0,0.397585,,,,,,,,0.397585,0,,,,,,397,NW,UN,33,blunde,CAMBLE,z,,,,,,,0.379629667,0.029629587,0,0,0,,0,287,287,396,1,
,,,,,,,,,,,,,,,,,,5e71a80784155f0c75a56c70,2020-08-10_10h23.19.876,lexical_decision_task_MP,2020.1.3,Win32,60,m,1,0.533085,,,,,,,,0.533085,1,,,,,,56,WORD,"ID",33,ambush,AMBUSH,m,,,,,,,0.379629667,0.029629587,0,0,0,,0,288,288,55,1,
,,,,,,,,,,,,,,,,,,5e71a80784155f0c75a56c70,2020-08-10_10h23.19.876,lexical_decision_task_MP,2020.1.3,Win32,60,m,1,0.416495,,,,,,,,0.416495,1,,,,,,98,WORD,"ID",50,belong,BELONG,m,,,,,,,0.379629667,0.029629587,0,0,0,,0,289,289,97,1,
,,,,,,,,,,,,,,,,,,5e71a80784155f0c75a56c70,2020-08-10_10h23.19.876,lexical_decision_task_MP,2020.1.3,Win32,60,z,1,0.535255,,,,,,,,0.535255,1,,,,,,434,NW,UN,50,impurb,PITROM,z,,,,,,,0.379629667,0.029629587,0,0,0,,0,290,290,433,1,
,,,,,,,,,,,,,,,,,,5e71a80784155f0c75a56c70,2020-08-10_10h23.19.876,lexical_decision_task_MP,2020.1.3,Win32,60,m,1,0.399805,,,,,,,,0.399805,1,,,,,,14,WORD,"ID",33,almost,ALMOST,m,,,,,,,0.379629667,0.029629587,0,0,0,,0,291,291,13,1,
,,,,,,,,,,,,,,,,,,5e71a80784155f0c75a56c70,2020-08-10_10h23.19.876,lexical_decision_task_MP,2020.1.3,Win32,60,m,1,0.50982,,,,,,,,0.50982,1,,,,,,229,WORD,UN,50,fringe,MOTHER,m,,,,,,,0.379629667,0.029629587,0,0,0,,0,292,292,228,1,
,,,,,,,,,,,,,,,,,,5e71a80784155f0c75a56c70,2020-08-10_10h23.19.876,lexical_decision_task_MP,2020.1.3,Win32,60,m,1,0.42476,,,,,,,,0.42476,1,,,,,,62,WORD,"ID",50,region,REGION,m,,,,,,,0.379629667,0.029629587,0,0,0,,0,293,293,61,1,
,,,,,,,,,,,,,,,,,,5e71a80784155f0c75a56c70,2020-08-10_10h23.19.876,lexical_decision_task_MP,2020.1.3,Win32,60,m,1,0.37281,,,,,,,,0.37281,1,,,,,,49,WORD,"ID",33,survey,SURVEY,m,,,,,,,0.379629667,0.029629587,0,0,0,,0,294,294,48,1,
,,,,,,,,,,,,,,,,,,5e71a80784155f0c75a56c70,2020-08-10_10h23.19.876,lexical_decision_task_MP,2020.1.3,Win32,60,m,1,0.51901,,,,,,,,0.51901,1,,,,,,55,WORD,"ID",33,stroke,STROKE,m,,,,,,,0.379629667,0.029629587,0,0,0,,0,295,295,54,1,
,,,,,,,,,,,,,,,,,,5e71a80784155f0c75a56c70,2020-08-10_10h23.19.876,lexical_decision_task_MP,2020.1.3,Win32,60,z,1,0.555135,,,,,,,,0.555135,1,,,,,,392,NW,UN,33,ganous,ROUNCY,z,,,,,,,0.379629667,0.029629587,0,0,0,,0,296,296,391,1,
,,,,,,,,,,,,,,,,,,5e71a80784155f0c75a56c70,2020-08-10_10h23.19.876,lexical_decision_task_MP,2020.1.3,Win32,60,m,0,0.382325,,,,,,,,0.382325,0,,,,,,353,NW,"ID",50,clurey,CLUREY,z,,,,,,,0.379629667,0.029629587,0,0,0,,0,297,297,352,1,
,,,,,,,,,,,,,,,,,,5e71a80784155f0c75a56c70,2020-08-10_10h23.19.876,lexical_decision_task_MP,2020.1.3,Win32,60,z,1,0.383115,,,,,,,,0.383115,1,,,,,,383,NW,UN,33,guesco,AUNGRE,z,,,,,,,0.379629667,0.029629587,0,0,0,,0,298,298,382,1,
,,,,,,,,,,,,,,,,,,5e71a80784155f0c75a56c70,2020-08-10_10h23.19.876,lexical_decision_task_MP,2020.1.3,Win32,60,z,1,0.542395,,,,,,,,0.542395,1,,,,,,259,NW,"ID",33,soudal,SOUDAL,z,,,,,,,0.379629667,0.029629587,0,0,0,,0,299,299,258,1,
,,,,,,,,,,,,,,,,,,5e71a80784155f0c75a56c70,2020-08-10_10h23.19.876,lexical_decision_task_MP,2020.1.3,Win32,60,z,1,0.398915,,,,,,,,0.398915,1,,,,,,249,NW,"ID",33,batrol,BATROL,z,,,,,,,0.379629667,0.029629587,0,0,0,,0,300,300,248,1,
,,,,,,,,,,,,,,,,,,5e71a80784155f0c75a56c70,2020-08-10_10h23.19.876,lexical_decision_task_MP,2020.1.3,Win32,60,z,1,0.59068,,,,,,,,0.59068,1,,,,,,369,NW,UN,33,sleact,WRONCH,z,,,,,,,0.379629667,0.029629587,0,0,0,,0,301,301,368,1,
,,,,,,,,,,,,,,,,,,5e71a80784155f0c75a56c70,2020-08-10_10h23.19.876,lexical_decision_task_MP,2020.1.3,Win32,60,z,1,0.423005,,,,,,,,0.423005,1,,,,,,299,NW,"ID",33,sturch,STURCH,z,,,,,,,0.379629667,0.029629587,0,0,0,,0,302,302,298,1,
,,,,,,,,,,,,,,,,,,5e71a80784155f0c75a56c70,2020-08-10_10h23.19.876,lexical_decision_task_MP,2020.1.3,Win32,60,z,1,0.35791,,,,,,,,0.35791,1,,,,,,467,NW,UN,50,wictor,GORBIE,z,,,,,,,0.379629667,0.029629587,0,0,0,,0,303,303,466,1,
,,,,,,,,,,,,,,,,,,5e71a80784155f0c75a56c70,2020-08-10_10h23.19.876,lexical_decision_task_MP,2020.1.3,Win32,60,z,1,0.32364,,,,,,,,0.32364,1,,,,,,311,NW,"ID",50,sproly,SPROLY,z,,,,,,,0.379629667,0.029629587,0,0,0,,0,304,304,310,1,
,,,,,,,,,,,,,,,,,,5e71a80784155f0c75a56c70,2020-08-10_10h23.19.876,lexical_decision_task_MP,2020.1.3,Win32,60,z,0,0.39021,,,,,,,,0.39021,0,,,,,,199,WORD,UN,50,beacon,INVOKE,m,,,,,,,0.379629667,0.029629587,0,0,0,,0,305,305,198,1,
,,,,,,,,,,,,,,,,,,5e71a80784155f0c75a56c70,2020-08-10_10h23.19.876,lexical_decision_task_MP,2020.1.3,Win32,60,z,1,0.430965,,,,,,,,0.430965,1,,,,,,371,NW,UN,33,ramily,GEILOY,z,,,,,,,0.379629667,0.029629587,0,0,0,,0,306,306,370,1,
,,,,,,,,,,,,,,,,,,5e71a80784155f0c75a56c70,2020-08-10_10h23.19.876,lexical_decision_task_MP,2020.1.3,Win32,60,z,1,0.450025,,,,,,,,0.450025,1,,,,,,309,NW,"ID",50,amiloy,AMILOY,z,,,,,,,0.379629667,0.029629587,0,0,0,,0,307,307,308,1,
,,,,,,,,,,,,,,,,,,5e71a80784155f0c75a56c70,2020-08-10_10h23.19.876,lexical_decision_task_MP,2020.1.3,Win32,60,m,1,0.567525,,,,,,,,0.567525,1,,,,,,160,WORD,UN,33,dragon,VIOLET,m,,,,,,,0.379629667,0.029629587,0,0,0,,0,308,308,159,1,
,,,,,,,,,,,,,,,,,,5e71a80784155f0c75a56c70,2020-08-10_10h23.19.876,lexical_decision_task_MP,2020.1.3,Win32,60,z,0,0.64365,,,,,,,,0.64365,0,,,,,,59,WORD,"ID",33,splint,SPLINT,m,,,,,,,0.379629667,0.029629587,0,0,0,,0,309,309,58,1,
,,,,,,,,,,,,,,,,,,5e71a80784155f0c75a56c70,2020-08-10_10h23.19.876,lexical_decision_task_MP,2020.1.3,Win32,60,m,1,0.60402,,,,,,,,0.60402,1,,,,,,70,WORD,"ID",50,square,SQUARE,m,,,,,,,0.379629667,0.029629587,0,0,0,,0,310,310,69,1,
,,,,,,,,,,,,,,,,,,5e71a80784155f0c75a56c70,2020-08-10_10h23.19.876,lexical_decision_task_MP,2020.1.3,Win32,60,m,1,0.50486,,,,,,,,0.50486,1,,,,,,148,WORD,UN,33,invade,CUSTOM,m,,,,,,,0.379629667,0.029629587,0,0,0,,0,311,311,147,1,
,,,,,,,,,,,,,,,,,,5e71a80784155f0c75a56c70,2020-08-10_10h23.19.876,lexical_decision_task_MP,2020.1.3,Win32,60,m,1,0.400805,,,,,,,,0.400805,1,,,,,,6,WORD,"ID",33,bundle,BUNDLE,m,,,,,,,0.379629667,0.029629587,0,0,0,,0,312,312,5,1,
,,,,,,,,,,,,,,,,,,5e71a80784155f0c75a56c70,2020-08-10_10h23.19.876,lexical_decision_task_MP,2020.1.3,Win32,60,m,1,0.484525,,,,,,,,0.484525,1,,,,,,107,WORD,"ID",50,slogan,SLOGAN,m,,,,,,,0.379629667,0.029629587,0,0,0,,0,313,313,106,1,
,,,,,,,,,,,,,,,,,,5e71a80784155f0c75a56c70,2020-08-10_10h23.19.876,lexical_decision_task_MP,2020.1.3,Win32,60,z,1,0.51586,,,,,,,,0.51586,1,,,,,,443,NW,UN,50,jaunce,DORSEX,z,,,,,,,0.379629667,0.029629587,0,0,0,,0,314,314,442,1,
,,,,,,,,,,,,,,,,,,5e71a80784155f0c75a56c70,2020-08-10_10h23.19.876,lexical_decision_task_MP,2020.1.3,Win32,60,z,1,0.53157,,,,,,,,0.53157,1,,,,,,454,NW,UN,50,tondle,SCOUGE,z,,,,,,,0.379629667,0.029629587,0,0,0,,0,315,315,453,1,
,,,,,,,,,,,,,,,,,,5e71a80784155f0c75a56c70,2020-08-10_10h23.19.876,lexical_decision_task_MP,2020.1.3,Win32,60,z,1,0.430845,,,,,,,,0.430845,1,,,,,,247,NW,"ID",33,blarge,BLARGE,z,,,,,,,0.379629667,0.029629587,0,0,0,,0,316,316,246,1,
,,,,,,,,,,,,,,,,,,5e71a80784155f0c75a56c70,2020-08-10_10h23.19.876,lexical_decision_task_MP,2020.1.3,Win32,60,m,1,0.4484,,,,,,,,0.4484,1,,,,,,95,WORD,"ID",50,thread,THREAD,m,,,,,,,0.379629667,0.029629587,0,0,0,,0,317,317,94,1,
,,,,,,,,,,,,,,,,,,5e71a80784155f0c75a56c70,2020-08-10_10h23.19.876,lexical_decision_task_MP,2020.1.3,Win32,60,z,1,0.504605,,,,,,,,0.504605,1,,,,,,344,NW,"ID",50,scrily,SCRILY,z,,,,,,,0.379629667,0.029629587,0,0,0,,0,318,318,343,1,
,,,,,,,,,,,,,,,,,,5e71a80784155f0c75a56c70,2020-08-10_10h23.19.876,lexical_decision_task_MP,2020.1.3,Win32,60,m,1,0.58217,,,,,,,,0.58217,1,,,,,,106,WORD,"ID",50,ransom,RANSOM,m,,,,,,,0.379629667,0.029629587,0,0,0,,0,319,319,105,1,
,,,,,,,,,,,,,,,,,,5e71a80784155f0c75a56c70,2020-08-10_10h23.19.876,lexical_decision_task_MP,2020.1.3,Win32,60,z,1,0.43629,,,,,,,,0.43629,1,,,,,,269,NW,"ID",33,orchet,ORCHET,z,,,,,,,0.379629667,0.029629587,0,0,0,,0,320,320,268,1,
,,,,,,,,,,,,,,,,,,5e71a80784155f0c75a56c70,2020-08-10_10h23.19.876,lexical_decision_task_MP,2020.1.3,Win32,60,z,1,0.715675,,,,,,,,0.715675,1,,,,,,433,NW,UN,50,pitrom,DRANCE,z,,,,,,,0.379629667,0.029629587,0,0,0,,0,321,321,432,1,
,,,,,,,,,,,,,,,,,,5e71a80784155f0c75a56c70,2020-08-10_10h23.19.876,lexical_decision_task_MP,2020.1.3,Win32,60,m,1,0.567475,,,,,,,,0.567475,1,,,,,,67,WORD,"ID",50,policy,POLICY,m,,,,,,,0.379629667,0.029629587,0,0,0,,0,322,322,66,1,
,,,,,,,,,,,,,,,,,,5e71a80784155f0c75a56c70,2020-08-10_10h23.19.876,lexical_decision_task_MP,2020.1.3,Win32,60,m,1,0.55258,,,,,,,,0.55258,1,,,,,,58,WORD,"ID",33,foster,FOSTER,m,,,,,,,0.379629667,0.029629587,0,0,0,,0,323,323,57,1,
,,,,,,,,,,,,,,,,,,5e71a80784155f0c75a56c70,2020-08-10_10h23.19.876,lexical_decision_task_MP,2020.1.3,Win32,60,m,1,0.536205,,,,,,,,0.536205,1,,,,,,171,WORD,UN,33,patrol,DEPART,m,,,,,,,0.379629667,0.029629587,0,0,0,,0,324,324,170,1,
,,,,,,,,,,,,,,,,,,5e71a80784155f0c75a56c70,2020-08-10_10h23.19.876,lexical_decision_task_MP,2020.1.3,Win32,60,z,1,0.490265,,,,,,,,0.490265,1,,,,,,328,NW,"ID",50,broake,BROAKE,z,,,,,,,0.379629667,0.029629587,0,0,0,,0,325,325,327,1,
,,,,,,,,,,,,,,,,,,5e71a80784155f0c75a56c70,2020-08-10_10h23.19.876,lexical_decision_task_MP,2020.1.3,Win32,60,z,1,0.45725,,,,,,,,0.45725,1,,,,,,447,NW,UN,50,sadent,GIRCUE,z,,,,,,,0.379629667,0.029629587,0,0,0,,0,326,326,446,1,
,,,,,,,,,,,,,,,,,,5e71a80784155f0c75a56c70,2020-08-10_10h23.19.876,lexical_decision_task_MP,2020.1.3,Win32,60,z,1,0.551885,,,,,,,,0.551885,1,,,,,,256,NW,"ID",33,inlors,INLORS,z,,,,,,,0.379629667,0.029629587,0,0,0,,0,327,327,255,1,
,,,,,,,,,,,,,,,,,,5e71a80784155f0c75a56c70,2020-08-10_10h23.19.876,lexical_decision_task_MP,2020.1.3,Win32,60,z,1,0.44077,,,,,,,,0.44077,1,,,,,,336,NW,"ID",50,ghodus,GHODUS,z,,,,,,,0.379629667,0.029629587,0,0,0,,0,328,328,335,1,
,,,,,,,,,,,,,,,,,,5e71a80784155f0c75a56c70,2020-08-10_10h23.19.876,lexical_decision_task_MP,2020.1.3,Win32,60,m,1,0.507645,,,,,,,,0.507645,1,,,,,,175,WORD,UN,33,strife,FABRIC,m,,,,,,,0.379629667,0.029629587,0,0,0,,0,329,329,174,1,
,,,,,,,,,,,,,,,,,,5e71a80784155f0c75a56c70,2020-08-10_10h23.19.876,lexical_decision_task_MP,2020.1.3,Win32,60,m,1,0.567055,,,,,,,,0.567055,1,,,,,,228,WORD,UN,50,inject,MASTER,m,,,,,,,0.379629667,0.029629587,0,0,0,,0,330,330,227,1,
,,,,,,,,,,,,,,,,,,5e71a80784155f0c75a56c70,2020-08-10_10h23.19.876,lexical_decision_task_MP,2020.1.3,Win32,60,m,1,0.48416,,,,,,,,0.48416,1,,,,,,44,WORD,"ID",33,danger,DANGER,m,,,,,,,0.379629667,0.029629587,0,0,0,,0,331,331,43,1,
,,,,,,,,,,,,,,,,,,5e71a80784155f0c75a56c70,2020-08-10_10h23.19.876,lexical_decision_task_MP,2020.1.3,Win32,60,m,1,0.399735,,,,,,,,0.399735,1,,,,,,149,WORD,UN,33,random,INVADE,m,,,,,,,0.379629667,0.029629587,0,0,0,,0,332,332,148,1,
,,,,,,,,,,,,,,,,,,5e71a80784155f0c75a56c70,2020-08-10_10h23.19.876,lexical_decision_task_MP,2020.1.3,Win32,60,z,1,0.46971,,,,,,,,0.46971,1,,,,,,271,NW,"ID",33,aubrid,AUBRID,z,,,,,,,0.379629667,0.029629587,0,0,0,,0,333,333,270,1,
,,,,,,,,,,,,,,,,,,5e71a80784155f0c75a56c70,2020-08-10_10h23.19.876,lexical_decision_task_MP,2020.1.3,Win32,60,z,1,0.401785,,,,,,,,0.401785,1,,,,,,425,NW,UN,50,schind,FRUDGE,z,,,,,,,0.379629667,0.029629587,0,0,0,,0,334,334,424,1,
,,,,,,,,,,,,,,,,,,5e71a80784155f0c75a56c70,2020-08-10_10h23.19.876,lexical_decision_task_MP,2020.1.3,Win32,60,z,0,0.417865,,,,,,,,0.417865,0,,,,,,11,WORD,"ID",33,cruise,CRUISE,m,,,,,,,0.379629667,0.029629587,0,0,0,,0,335,335,10,1,
,,,,,,,,,,,,,,,,,,5e71a80784155f0c75a56c70,2020-08-10_10h23.19.876,lexical_decision_task_MP,2020.1.3,Win32,60,z,1,0.58285,,,,,,,,0.58285,1,,,,,,439,NW,UN,50,saride,LIMPOR,z,,,,,,,0.379629667,0.029629587,0,0,0,,0,336,336,438,1,
,,,,,,,,,,,,,,,,,,5e71a80784155f0c75a56c70,2020-08-10_10h23.19.876,lexical_decision_task_MP,2020.1.3,Win32,60,z,1,0.500805,,,,,,,,0.500805,1,,,,,,285,NW,"ID",33,prudge,PRUDGE,z,,,,,,,0.379629667,0.029629587,0,0,0,,0,337,337,284,1,
,,,,,,,,,,,,,,,,,,5e71a80784155f0c75a56c70,2020-08-10_10h23.19.876,lexical_decision_task_MP,2020.1.3,Win32,60,m,1,0.77328,,,,,,,,0.77328,1,,,,,,74,WORD,"ID",50,plaque,PLAQUE,m,,,,,,,0.379629667,0.029629587,0,0,0,,0,338,338,73,1,
,,,,,,,,,,,,,,,,,,5e71a80784155f0c75a56c70,2020-08-10_10h23.19.876,lexical_decision_task_MP,2020.1.3,Win32,60,m,1,0.482075,,,,,,,,0.482075,1,,,,,,137,WORD,UN,33,melody,FINGER,m,,,,,,,0.379629667,0.029629587,0,0,0,,0,339,339,136,1,
,,,,,,,,,,,,,,,,,,5e71a80784155f0c75a56c70,2020-08-10_10h23.19.876,lexical_decision_task_MP,2020.1.3,Win32,60,m,1,0.399465,,,,,,,,0.399465,1,,,,,,238,WORD,UN,50,grumpy,FLOWER,m,,,,,,,0.379629667,0.029629587,0,0,0,,0,340,340,237,1,
,,,,,,,,,,,,,,,,,,5e71a80784155f0c75a56c70,2020-08-10_10h23.19.876,lexical_decision_task_MP,2020.1.3,Win32,60,z,1,0.46893,,,,,,,,0.46893,1,,,,,,441,NW,UN,50,aboune,RASTOE,z,,,,,,,0.379629667,0.029629587,0,0,0,,0,341,341,440,1,
,,,,,,,,,,,,,,,,,,5e71a80784155f0c75a56c70,2020-08-10_10h23.19.876,lexical_decision_task_MP,2020.1.3,Win32,60,m,0,0.43395,,,,,,,,0.43395,0,,,,,,314,NW,"ID",50,sprine,SPRINE,z,,,,,,,0.379629667,0.029629587,0,0,0,,0,342,342,313,1,
,,,,,,,,,,,,,,,,,,5e71a80784155f0c75a56c70,2020-08-10_10h23.19.876,lexical_decision_task_MP,2020.1.3,Win32,60,m,1,0.6311,,,,,,,,0.6311,1,,,,,,215,WORD,UN,50,behalf,PHOBIA,m,,,,,,,0.379629667,0.029629587,0,0,0,,0,343,343,214,1,
,,,,,,,,,,,,,,,,,,5e71a80784155f0c75a56c70,2020-08-10_10h23.19.876,lexical_decision_task_MP,2020.1.3,Win32,60,m,1,0.38198,,,,,,,,0.38198,1,,,,,,2,WORD,"ID",33,bridge,BRIDGE,m,,,,,,,0.379629667,0.029629587,0,0,0,,0,344,344,1,1,
,,,,,,,,,,,,,,,,,,5e71a80784155f0c75a56c70,2020-08-10_10h23.19.876,lexical_decision_task_MP,2020.1.3,Win32,60,z,1,0.44679,,,,,,,,0.44679,1,,,,,,459,NW,UN,50,mingar,BAFENT,z,,,,,,,0.379629667,0.029629587,0,0,0,,0,345,345,458,1,
,,,,,,,,,,,,,,,,,,5e71a80784155f0c75a56c70,2020-08-10_10h23.19.876,lexical_decision_task_MP,2020.1.3,Win32,60,m,1,0.53436,,,,,,,,0.53436,1,,,,,,189,WORD,UN,50,backup,CENSOR,m,,,,,,,0.379629667,0.029629587,0,0,0,,0,346,346,188,1,
,,,,,,,,,,,,,,,,,,5e71a80784155f0c75a56c70,2020-08-10_10h23.19.876,lexical_decision_task_MP,2020.1.3,Win32,60,z,1,0.583435,,,,,,,,0.583435,1,,,,,,473,NW,UN,50,hablin,CRIBLE,z,,,,,,,0.379629667,0.029629587,0,0,0,,0,347,347,472,1,
,,,,,,,,,,,,,,,,,,5e71a80784155f0c75a56c70,2020-08-10_10h23.19.876,lexical_decision_task_MP,2020.1.3,Win32,60,z,1,0.590125,,,,,,,,0.590125,1,,,,,,258,NW,"ID",33,poluth,POLUTH,z,,,,,,,0.379629667,0.029629587,0,0,0,,0,348,348,257,1,
,,,,,,,,,,,,,,,,,,5e71a80784155f0c75a56c70,2020-08-10_10h23.19.876,lexical_decision_task_MP,2020.1.3,Win32,60,m,1,0.569025,,,,,,,,0.569025,1,,,,,,166,WORD,UN,33,design,STARCH,m,,,,,,,0.379629667,0.029629587,0,0,0,,0,349,349,165,1,
,,,,,,,,,,,,,,,,,,5e71a80784155f0c75a56c70,2020-08-10_10h23.19.876,lexical_decision_task_MP,2020.1.3,Win32,60,z,0,0.93212,,,,,,,,0.93212,0,,,,,,176,WORD,UN,33,advent,STRIFE,m,,,,,,,0.379629667,0.029629587,0,0,0,,0,350,350,175,1,
,,,,,,,,,,,,,,,,,,5e71a80784155f0c75a56c70,2020-08-10_10h23.19.876,lexical_decision_task_MP,2020.1.3,Win32,60,z,1,0.868395,,,,,,,,0.868395,1,,,,,,268,NW,"ID",33,packes,PACKES,z,,,,,,,0.379629667,0.029629587,0,0,0,,0,351,351,267,1,
,,,,,,,,,,,,,,,,,,5e71a80784155f0c75a56c70,2020-08-10_10h23.19.876,lexical_decision_task_MP,2020.1.3,Win32,60,m,0,0.472715,,,,,,,,0.472715,0,,,,,,409,NW,UN,33,tunory,ELOPIA,z,,,,,,,0.379629667,0.029629587,0,0,0,,0,352,352,408,1,
,,,,,,,,,,,,,,,,,,5e71a80784155f0c75a56c70,2020-08-10_10h23.19.876,lexical_decision_task_MP,2020.1.3,Win32,60,m,1,0.590835,,,,,,,,0.590835,1,,,,,,66,WORD,"ID",50,gospel,GOSPEL,m,,,,,,,0.379629667,0.029629587,0,0,0,,0,353,353,65,1,
,,,,,,,,,,,,,,,,,,5e71a80784155f0c75a56c70,2020-08-10_10h23.19.876,lexical_decision_task_MP,2020.1.3,Win32,60,z,1,0.516755,,,,,,,,0.516755,1,,,,,,356,NW,"ID",50,othnis,OTHNIS,z,,,,,,,0.379629667,0.029629587,0,0,0,,0,354,354,355,1,
,,,,,,,,,,,,,,,,,,5e71a80784155f0c75a56c70,2020-08-10_10h23.19.876,lexical_decision_task_MP,2020.1.3,Win32,60,z,1,0.53686,,,,,,,,0.53686,1,,,,,,402,NW,UN,33,bruats,SYNTIC,z,,,,,,,0.379629667,0.029629587,0,0,0,,0,355,355,401,1,
,,,,,,,,,,,,,,,,,,5e71a80784155f0c75a56c70,2020-08-10_10h23.19.876,lexical_decision_task_MP,2020.1.3,Win32,60,m,1,0.365985,,,,,,,,0.365985,1,,,,,,53,WORD,"ID",33,police,POLICE,m,,,,,,,0.379629667,0.029629587,0,0,0,,0,356,356,52,1,
,,,,,,,,,,,,,,,,,,5e71a80784155f0c75a56c70,2020-08-10_10h23.19.876,lexical_decision_task_MP,2020.1.3,Win32,60,m,1,0.384965,,,,,,,,0.384965,1,,,,,,104,WORD,"ID",50,studio,STUDIO,m,,,,,,,0.379629667,0.029629587,0,0,0,,0,357,357,103,1,
,,,,,,,,,,,,,,,,,,5e71a80784155f0c75a56c70,2020-08-10_10h23.19.876,lexical_decision_task_MP,2020.1.3,Win32,60,z,1,0.54897,,,,,,,,0.54897,1,,,,,,297,NW,"ID",33,fertic,FERTIC,z,,,,,,,0.379629667,0.029629587,0,0,0,,0,358,358,296,1,
,,,,,,,,,,,,,,,,,,5e71a80784155f0c75a56c70,2020-08-10_10h23.19.876,lexical_decision_task_MP,2020.1.3,Win32,60,z,1,0.58233,,,,,,,,0.58233,1,,,,,,346,NW,"ID",50,saudic,SAUDIC,z,,,,,,,0.379629667,0.029629587,0,0,0,,0,359,359,345,1,
,,,,,,,,,,,,,,,,,,5e71a80784155f0c75a56c70,2020-08-10_10h23.19.876,lexical_decision_task_MP,2020.1.3,Win32,60,m,1,0.40651,,,,,,,,0.40651,1,,,,,,168,WORD,UN,33,genius,ANSWER,m,,,,,,,0.379629667,0.029629587,0,0,0,,0,360,360,167,1,
,,,,,,,,,,,,,,,,,,5e71a80784155f0c75a56c70,2020-08-10_10h23.19.876,lexical_decision_task_MP,2020.1.3,Win32,60,m,1,0.40417,,,,,,,,0.40417,1,,,,,,92,WORD,"ID",50,strand,STRAND,m,,,,,,,0.379629667,0.029629587,0,0,0,,0,361,361,91,1,
,,,,,,,,,,,,,,,,,,5e71a80784155f0c75a56c70,2020-08-10_10h23.19.876,lexical_decision_task_MP,2020.1.3,Win32,60,z,1,0.539785,,,,,,,,0.539785,1,,,,,,368,NW,UN,33,wronch,HORNAL,z,,,,,,,0.142592623,-0.17962965,0,0,0,space,0,362,362,367,1,30.83845
,,,,,,,,,,,,,,,,,,5e71a80784155f0c75a56c70,2020-08-10_10h23.19.876,lexical_decision_task_MP,2020.1.3,Win32,60,m,1,0.46823,,,,,,,,0.46823,1,,,,,,133,WORD,UN,33,debris,CHROME,m,,,,,,,0.142592623,-0.17962965,0,0,0,,0,363,363,132,1,
,,,,,,,,,,,,,,,,,,5e71a80784155f0c75a56c70,2020-08-10_10h23.19.876,lexical_decision_task_MP,2020.1.3,Win32,60,z,1,0.58844,,,,,,,,0.58844,1,,,,,,250,NW,"ID",33,milted,MILTED,z,,,,,,,0.142592623,-0.17962965,0,0,0,,0,364,364,249,1,
,,,,,,,,,,,,,,,,,,5e71a80784155f0c75a56c70,2020-08-10_10h23.19.876,lexical_decision_task_MP,2020.1.3,Win32,60,z,1,0.499475,,,,,,,,0.499475,1,,,,,,416,NW,UN,33,earoud,PATHEL,z,,,,,,,0.142592623,-0.17962965,0,0,0,,0,365,365,415,1,
,,,,,,,,,,,,,,,,,,5e71a80784155f0c75a56c70,2020-08-10_10h23.19.876,lexical_decision_task_MP,2020.1.3,Win32,60,z,1,0.384425,,,,,,,,0.384425,1,,,,,,301,NW,"ID",50,fainch,FAINCH,z,,,,,,,0.142592623,-0.17962965,0,0,0,,0,366,366,300,1,
,,,,,,,,,,,,,,,,,,5e71a80784155f0c75a56c70,2020-08-10_10h23.19.876,lexical_decision_task_MP,2020.1.3,Win32,60,z,0,0.36633,,,,,,,,0.36633,0,,,,,,9,WORD,"ID",33,hustle,HUSTLE,m,,,,,,,0.142592623,-0.17962965,0,0,0,,0,367,367,8,1,
,,,,,,,,,,,,,,,,,,5e71a80784155f0c75a56c70,2020-08-10_10h23.19.876,lexical_decision_task_MP,2020.1.3,Win32,60,m,1,0.44949,,,,,,,,0.44949,1,,,,,,114,WORD,"ID",50,placid,PLACID,m,,,,,,,0.142592623,-0.17962965,0,0,0,,0,368,368,113,1,
,,,,,,,,,,,,,,,,,,5e71a80784155f0c75a56c70,2020-08-10_10h23.19.876,lexical_decision_task_MP,2020.1.3,Win32,60,m,1,0.34918,,,,,,,,0.34918,1,,,,,,161,WORD,UN,33,candle,PASTOR,m,,,,,,,0.142592623,-0.17962965,0,0,0,,0,369,369,160,1,
,,,,,,,,,,,,,,,,,,5e71a80784155f0c75a56c70,2020-08-10_10h23.19.876,lexical_decision_task_MP,2020.1.3,Win32,60,z,1,0.384345,,,,,,,,0.384345,1,,,,,,445,NW,UN,50,runamo,MINKEL,z,,,,,,,0.142592623,-0.17962965,0,0,0,,0,370,370,444,1,
,,,,,,,,,,,,,,,,,,5e71a80784155f0c75a56c70,2020-08-10_10h23.19.876,lexical_decision_task_MP,2020.1.3,Win32,60,m,0,0.563265,,,,,,,,0.563265,0,,,,,,468,NW,UN,50,padifs,WICTOR,z,,,,,,,0.142592623,-0.17962965,0,0,0,,0,371,371,467,1,
,,,,,,,,,,,,,,,,,,5e71a80784155f0c75a56c70,2020-08-10_10h23.19.876,lexical_decision_task_MP,2020.1.3,Win32,60,m,0,0.35094,,,,,,,,0.35094,0,,,,,,348,NW,"ID",50,dumple,DUMPLE,z,,,,,,,0.142592623,-0.17962965,0,0,0,,0,372,372,347,1,
,,,,,,,,,,,,,,,,,,5e71a80784155f0c75a56c70,2020-08-10_10h23.19.876,lexical_decision_task_MP,2020.1.3,Win32,60,m,1,0.35366,,,,,,,,0.35366,1,,,,,,51,WORD,"ID",33,hungry,HUNGRY,m,,,,,,,0.142592623,-0.17962965,0,0,0,,0,373,373,50,1,
,,,,,,,,,,,,,,,,,,5e71a80784155f0c75a56c70,2020-08-10_10h23.19.876,lexical_decision_task_MP,2020.1.3,Win32,60,z,1,0.49988,,,,,,,,0.49988,1,,,,,,293,NW,"ID",33,swance,SWANCE,z,,,,,,,0.142592623,-0.17962965,0,0,0,,0,374,374,292,1,
,,,,,,,,,,,,,,,,,,5e71a80784155f0c75a56c70,2020-08-10_10h23.19.876,lexical_decision_task_MP,2020.1.3,Win32,60,z,0,0.400575,,,,,,,,0.400575,0,,,,,,127,WORD,UN,33,senior,CASTLE,m,,,,,,,0.142592623,-0.17962965,0,0,0,,0,375,375,126,1,
,,,,,,,,,,,,,,,,,,5e71a80784155f0c75a56c70,2020-08-10_10h23.19.876,lexical_decision_task_MP,2020.1.3,Win32,60,m,1,0.37222,,,,,,,,0.37222,1,,,,,,81,WORD,"ID",50,friend,FRIEND,m,,,,,,,0.142592623,-0.17962965,0,0,0,,0,376,376,80,1,
,,,,,,,,,,,,,,,,,,5e71a80784155f0c75a56c70,2020-08-10_10h23.19.876,lexical_decision_task_MP,2020.1.3,Win32,60,z,0,0.462125,,,,,,,,0.462125,0,,,,,,204,WORD,UN,50,lounge,BURDEN,m,,,,,,,0.142592623,-0.17962965,0,0,0,,0,377,377,203,1,
,,,,,,,,,,,,,,,,,,5e71a80784155f0c75a56c70,2020-08-10_10h23.19.876,lexical_decision_task_MP,2020.1.3,Win32,60,z,1,0.79899,,,,,,,,0.79899,1,,,,,,260,NW,"ID",33,unject,UNJECT,z,,,,,,,0.142592623,-0.17962965,0,0,0,,0,378,378,259,1,
,,,,,,,,,,,,,,,,,,5e71a80784155f0c75a56c70,2020-08-10_10h23.19.876,lexical_decision_task_MP,2020.1.3,Win32,60,m,1,0.459415,,,,,,,,0.459415,1,,,,,,224,WORD,UN,50,vulgar,PERIOD,m,,,,,,,0.142592623,-0.17962965,0,0,0,,0,379,379,223,1,
,,,,,,,,,,,,,,,,,,5e71a80784155f0c75a56c70,2020-08-10_10h23.19.876,lexical_decision_task_MP,2020.1.3,Win32,60,m,1,0.454595,,,,,,,,0.454595,1,,,,,,121,WORD,UN,33,linger,THRIVE,m,,,,,,,0.142592623,-0.17962965,0,0,0,,0,380,380,120,1,
,,,,,,,,,,,,,,,,,,5e71a80784155f0c75a56c70,2020-08-10_10h23.19.876,lexical_decision_task_MP,2020.1.3,Win32,60,z,1,0.474865,,,,,,,,0.474865,1,,,,,,423,NW,UN,50,praile,STRELD,z,,,,,,,0.142592623,-0.17962965,0,0,0,,0,381,381,422,1,
,,,,,,,,,,,,,,,,,,5e71a80784155f0c75a56c70,2020-08-10_10h23.19.876,lexical_decision_task_MP,2020.1.3,Win32,60,z,1,0.51595,,,,,,,,0.51595,1,,,,,,244,NW,"ID",33,eatric,EATRIC,z,,,,,,,0.142592623,-0.17962965,0,0,0,,0,382,382,243,1,
,,,,,,,,,,,,,,,,,,5e71a80784155f0c75a56c70,2020-08-10_10h23.19.876,lexical_decision_task_MP,2020.1.3,Win32,60,z,0,0.389725,,,,,,,,0.389725,0,,,,,,42,WORD,"ID",33,chapel,CHAPEL,m,,,,,,,0.142592623,-0.17962965,0,0,0,,0,383,383,41,1,
,,,,,,,,,,,,,,,,,,5e71a80784155f0c75a56c70,2020-08-10_10h23.19.876,lexical_decision_task_MP,2020.1.3,Win32,60,m,0,0.404205,,,,,,,,0.404205,0,,,,,,420,NW,UN,33,pauche,GUSHOP,z,,,,,,,0.142592623,-0.17962965,0,0,0,,0,384,384,419,1,
,,,,,,,,,,,,,,,,,,5e71a80784155f0c75a56c70,2020-08-10_10h23.19.876,lexical_decision_task_MP,2020.1.3,Win32,60,z,1,0.490285,,,,,,,,0.490285,1,,,,,,455,NW,UN,50,broget,TONDLE,z,,,,,,,0.142592623,-0.17962965,0,0,0,,0,385,385,454,1,
,,,,,,,,,,,,,,,,,,5e71a80784155f0c75a56c70,2020-08-10_10h23.19.876,lexical_decision_task_MP,2020.1.3,Win32,60,z,1,0.51653,,,,,,,,0.51653,1,,,,,,253,NW,"ID",33,resait,RESAIT,z,,,,,,,0.142592623,-0.17962965,0,0,0,,0,386,386,252,1,
,,,,,,,,,,,,,,,,,,5e71a80784155f0c75a56c70,2020-08-10_10h23.19.876,lexical_decision_task_MP,2020.1.3,Win32,60,z,0,0.416215,,,,,,,,0.416215,0,,,,,,213,WORD,UN,50,intake,SQUEAL,m,,,,,,,0.142592623,-0.17962965,0,0,0,,0,387,387,212,1,
,,,,,,,,,,,,,,,,,,5e71a80784155f0c75a56c70,2020-08-10_10h23.19.876,lexical_decision_task_MP,2020.1.3,Win32,60,z,1,0.53828,,,,,,,,0.53828,1,,,,,,379,NW,UN,33,cavory,AUTING,z,,,,,,,0.142592623,-0.17962965,0,0,0,,0,388,388,378,1,
,,,,,,,,,,,,,,,,,,5e71a80784155f0c75a56c70,2020-08-10_10h23.19.876,lexical_decision_task_MP,2020.1.3,Win32,60,z,1,0.56795,,,,,,,,0.56795,1,,,,,,284,NW,"ID",33,shaple,SHAPLE,z,,,,,,,0.142592623,-0.17962965,0,0,0,,0,389,389,283,1,
,,,,,,,,,,,,,,,,,,5e71a80784155f0c75a56c70,2020-08-10_10h23.19.876,lexical_decision_task_MP,2020.1.3,Win32,60,m,1,0.441965,,,,,,,,0.441965,1,,,,,,210,WORD,UN,50,infect,MONKEY,m,,,,,,,0.142592623,-0.17962965,0,0,0,,0,390,390,209,1,
,,,,,,,,,,,,,,,,,,5e71a80784155f0c75a56c70,2020-08-10_10h23.19.876,lexical_decision_task_MP,2020.1.3,Win32,60,z,1,0.43262,,,,,,,,0.43262,1,,,,,,380,NW,UN,33,huniek,CAVORY,z,,,,,,,0.142592623,-0.17962965,0,0,0,,0,391,391,379,1,
,,,,,,,,,,,,,,,,,,5e71a80784155f0c75a56c70,2020-08-10_10h23.19.876,lexical_decision_task_MP,2020.1.3,Win32,60,z,1,0.537505,,,,,,,,0.537505,1,,,,,,363,NW,UN,33,impote,BREALI,z,,,,,,,0.142592623,-0.17962965,0,0,0,,0,392,392,362,1,
,,,,,,,,,,,,,,,,,,5e71a80784155f0c75a56c70,2020-08-10_10h23.19.876,lexical_decision_task_MP,2020.1.3,Win32,60,m,1,0.48131,,,,,,,,0.48131,1,,,,,,15,WORD,"ID",33,amount,AMOUNT,m,,,,,,,0.142592623,-0.17962965,0,0,0,,0,393,393,14,1,
,,,,,,,,,,,,,,,,,,5e71a80784155f0c75a56c70,2020-08-10_10h23.19.876,lexical_decision_task_MP,2020.1.3,Win32,60,z,1,0.61917,,,,,,,,0.61917,1,,,,,,298,NW,"ID",33,piergy,PIERGY,z,,,,,,,0.142592623,-0.17962965,0,0,0,,0,394,394,297,1,
,,,,,,,,,,,,,,,,,,5e71a80784155f0c75a56c70,2020-08-10_10h23.19.876,lexical_decision_task_MP,2020.1.3,Win32,60,z,1,0.418605,,,,,,,,0.418605,1,,,,,,326,NW,"ID",50,iguade,IGUADE,z,,,,,,,0.142592623,-0.17962965,0,0,0,,0,395,395,325,1,
,,,,,,,,,,,,,,,,,,5e71a80784155f0c75a56c70,2020-08-10_10h23.19.876,lexical_decision_task_MP,2020.1.3,Win32,60,z,1,0.41244,,,,,,,,0.41244,1,,,,,,337,NW,"ID",50,rejols,REJOLS,z,,,,,,,0.142592623,-0.17962965,0,0,0,,0,396,396,336,1,
,,,,,,,,,,,,,,,,,,5e71a80784155f0c75a56c70,2020-08-10_10h23.19.876,lexical_decision_task_MP,2020.1.3,Win32,60,z,1,0.60004,,,,,,,,0.60004,1,,,,,,291,NW,"ID",33,pretch,PRETCH,z,,,,,,,0.142592623,-0.17962965,0,0,0,,0,397,397,290,1,
,,,,,,,,,,,,,,,,,,5e71a80784155f0c75a56c70,2020-08-10_10h23.19.876,lexical_decision_task_MP,2020.1.3,Win32,60,z,1,0.432115,,,,,,,,0.432115,1,,,,,,406,NW,UN,33,suiver,NOUPLY,z,,,,,,,0.142592623,-0.17962965,0,0,0,,0,398,398,405,1,
,,,,,,,,,,,,,,,,,,5e71a80784155f0c75a56c70,2020-08-10_10h23.19.876,lexical_decision_task_MP,2020.1.3,Win32,60,z,1,0.418975,,,,,,,,0.418975,1,,,,,,426,NW,UN,50,frudge,URIVEL,z,,,,,,,0.142592623,-0.17962965,0,0,0,,0,399,399,425,1,
,,,,,,,,,,,,,,,,,,5e71a80784155f0c75a56c70,2020-08-10_10h23.19.876,lexical_decision_task_MP,2020.1.3,Win32,60,z,1,0.56725,,,,,,,,0.56725,1,,,,,,340,NW,"ID",50,fiatch,FIATCH,z,,,,,,,0.142592623,-0.17962965,0,0,0,,0,400,400,339,1,
,,,,,,,,,,,,,,,,,,5e71a80784155f0c75a56c70,2020-08-10_10h23.19.876,lexical_decision_task_MP,2020.1.3,Win32,60,z,1,0.420285,,,,,,,,0.420285,1,,,,,,384,NW,UN,33,veigma,GUESCO,z,,,,,,,0.142592623,-0.17962965,0,0,0,,0,401,401,383,1,
,,,,,,,,,,,,,,,,,,5e71a80784155f0c75a56c70,2020-08-10_10h23.19.876,lexical_decision_task_MP,2020.1.3,Win32,60,m,1,0.53246,,,,,,,,0.53246,1,,,,,,71,WORD,"ID",50,garden,GARDEN,m,,,,,,,0.142592623,-0.17962965,0,0,0,,0,402,402,70,1,
,,,,,,,,,,,,,,,,,,5e71a80784155f0c75a56c70,2020-08-10_10h23.19.876,lexical_decision_task_MP,2020.1.3,Win32,60,z,1,0.3772,,,,,,,,0.3772,1,,,,,,276,NW,"ID",33,yarmon,YARMON,z,,,,,,,0.142592623,-0.17962965,0,0,0,,0,403,403,275,1,
,,,,,,,,,,,,,,,,,,5e71a80784155f0c75a56c70,2020-08-10_10h23.19.876,lexical_decision_task_MP,2020.1.3,Win32,60,z,1,0.35302,,,,,,,,0.35302,1,,,,,,366,NW,UN,33,slique,TOSHEL,z,,,,,,,0.142592623,-0.17962965,0,0,0,,0,404,404,365,1,
