counterbalancing_condition,instr_done_keyboard.keys,instr_done_keyboard.rt,instr_done_touch.x,instr_done_touch.y,instr_done_touch.leftButton,instr_done_touch.midButton,instr_done_touch.rightButton,instruction_pages.thisRepN,instruction_pages.thisTrialN,instruction_pages.thisN,instruction_pages.thisIndex,instruction_pages.ran,pageN,phase,instruct_text,has_image,instruct_image,participant,date,expName,psychopyVersion,OS,frameRate,response.keys,response.corr,response.rt,touch_resp.x,touch_resp.y,touch_resp.leftButton,touch_resp.midButton,touch_resp.rightButton,touch_resp.time,touch_resp.clicked_name,rt,corr,practice_trials.thisRepN,practice_trials.thisTrialN,practice_trials.thisN,practice_trials.thisIndex,practice_trials.ran,TrialID,StimulusType,Condition,PrimeDuration,Prime,Target,corrAns,end_of_practice_trials_pages.thisRepN,end_of_practice_trials_pages.thisTrialN,end_of_practice_trials_pages.thisN,end_of_practice_trials_pages.thisIndex,end_of_practice_trials_pages.ran,break_done_touch.x,break_done_touch.y,break_done_touch.leftButton,break_done_touch.midButton,break_done_touch.rightButton,break_done_keyboard.keys,trials.thisRepN,trials.thisTrialN,trials.thisN,trials.thisIndex,trials.ran,break_done_keyboard.rt,break_done_touch.clicked_name
0,space,18.82732,0.2289282,-0.218002081,0,0,0,0,0,0,0,1,1,instructions,"INSTRUCTIONS
At the start of each trial, look at the hash marks (######) in the center of the screen. After a moment, a string of letters will appear. Your task is to indicate if the letter string forms a word or not (i.e., if it is a nonword). For example, AUTHOR is a word while AUTHON is a nonword.

Press the space bar or touch the button below to continue.",0,,5e7902515312ee4a99c22e53,2020-08-10_18h18.48.419,lexical_decision_task_MP,2020.1.3,Win32,60,,,,,,,,,,,,,,,,,,,,,,,,,,,,,,,,,,,,,,,,,,
,space,16.077,0.2289282,-0.218002081,0,0,0,0,1,1,1,1,2,instructions,"If your device has a keyboard, press the 'Z' key for nonwords and the 'M' key for words.





Press the space bar or touch the button below to continue.",1,keyboard-example.gif,5e7902515312ee4a99c22e53,2020-08-10_18h18.48.419,lexical_decision_task_MP,2020.1.3,Win32,60,,,,,,,,,,,,,,,,,,,,,,,,,,,,,,,,,,,,,,,,,,
,space,5.262375,0.2289282,-0.218002081,0,0,0,0,2,2,2,1,3,instructions,"If you are using a touchscreen only device, use the buttons on the screen. Do not use the mouse.





Press the space bar or touch the button below to continue.",1,touchscreen-example.gif,5e7902515312ee4a99c22e53,2020-08-10_18h18.48.419,lexical_decision_task_MP,2020.1.3,Win32,60,,,,,,,,,,,,,,,,,,,,,,,,,,,,,,,,,,,,,,,,,,
,space,11.69946,0.2289282,-0.218002081,0,0,0,0,3,3,3,1,4,instructions,"It is very important that you respond as quickly and accurately as possible, as each letter string will only be on the screen for two seconds. If you do not respond within this time, the message 'Too slow!' will be displayed and the experiment will progress to the next letter string. The first 20 trials will be practice trials and you will receive feedback on your answers. 

Press the space bar or touch the button below to start the practice trials.",0,,5e7902515312ee4a99c22e53,2020-08-10_18h18.48.419,lexical_decision_task_MP,2020.1.3,Win32,60,,,,,,,,,,,,,,,,,,,,,,,,,,,,,,,,,,,,,,,,,,
,,,,,,,,,,,,,,,,,,5e7902515312ee4a99c22e53,2020-08-10_18h18.48.419,lexical_decision_task_MP,2020.1.3,Win32,60,z,1,1.29945,,,,,,,,1.29945,1,0,0,0,11,1,1012,NW,"ID",50,rashet,RASHET,z,,,,,,,,,,,,,,,,,,
,,,,,,,,,,,,,,,,,,5e7902515312ee4a99c22e53,2020-08-10_18h18.48.419,lexical_decision_task_MP,2020.1.3,Win32,60,m,1,0.651725,,,,,,,,0.651725,1,0,1,1,4,1,1005,WORD,UN,33,abound,SQUEAK,m,,,,,,,,,,,,,,,,,,
,,,,,,,,,,,,,,,,,,5e7902515312ee4a99c22e53,2020-08-10_18h18.48.419,lexical_decision_task_MP,2020.1.3,Win32,60,m,1,0.5613,,,,,,,,0.5613,1,0,2,2,3,1,1004,WORD,"ID",50,matrix,MATRIX,m,,,,,,,,,,,,,,,,,,
,,,,,,,,,,,,,,,,,,5e7902515312ee4a99c22e53,2020-08-10_18h18.48.419,lexical_decision_task_MP,2020.1.3,Win32,60,m,1,0.6739,,,,,,,,0.6739,1,0,3,3,0,1,1001,WORD,"ID",33,utopia,UTOPIA,m,,,,,,,,,,,,,,,,,,
,,,,,,,,,,,,,,,,,,5e7902515312ee4a99c22e53,2020-08-10_18h18.48.419,lexical_decision_task_MP,2020.1.3,Win32,60,z,1,0.823885,,,,,,,,0.823885,1,0,4,4,10,1,1011,NW,"ID",50,inlade,INLADE,z,,,,,,,,,,,,,,,,,,
,,,,,,,,,,,,,,,,,,5e7902515312ee4a99c22e53,2020-08-10_18h18.48.419,lexical_decision_task_MP,2020.1.3,Win32,60,z,1,0.742065,,,,,,,,0.742065,1,0,5,5,8,1,1009,NW,"ID",33,aslert,ASLERT,z,,,,,,,,,,,,,,,,,,
,,,,,,,,,,,,,,,,,,5e7902515312ee4a99c22e53,2020-08-10_18h18.48.419,lexical_decision_task_MP,2020.1.3,Win32,60,z,1,0.875715,,,,,,,,0.875715,1,0,6,6,14,1,1015,NW,UN,50,miaber,THRALE,z,,,,,,,,,,,,,,,,,,
,,,,,,,,,,,,,,,,,,5e7902515312ee4a99c22e53,2020-08-10_18h18.48.419,lexical_decision_task_MP,2020.1.3,Win32,60,z,1,0.83325,,,,,,,,0.83325,1,0,7,7,12,1,1013,NW,UN,33,adveil,SPRINY,z,,,,,,,,,,,,,,,,,,
,,,,,,,,,,,,,,,,,,5e7902515312ee4a99c22e53,2020-08-10_18h18.48.419,lexical_decision_task_MP,2020.1.3,Win32,60,m,1,0.65265,,,,,,,,0.65265,1,0,8,8,2,1,1003,WORD,"ID",50,almond,ALMOND,m,,,,,,,,,,,,,,,,,,
,,,,,,,,,,,,,,,,,,5e7902515312ee4a99c22e53,2020-08-10_18h18.48.419,lexical_decision_task_MP,2020.1.3,Win32,60,m,1,0.66659,,,,,,,,0.66659,1,0,9,9,7,1,1008,WORD,UN,50,hurdle,VOLUME,m,,,,,,,,,,,,,,,,,,
,,,,,,,,,,,,,,,,,,5e7902515312ee4a99c22e53,2020-08-10_18h18.48.419,lexical_decision_task_MP,2020.1.3,Win32,60,m,1,0.70332,,,,,,,,0.70332,1,0,10,10,5,1,1006,WORD,UN,33,frenzy,OBTAIN,m,,,,,,,,,,,,,,,,,,
,,,,,,,,,,,,,,,,,,5e7902515312ee4a99c22e53,2020-08-10_18h18.48.419,lexical_decision_task_MP,2020.1.3,Win32,60,m,1,0.519975,,,,,,,,0.519975,1,0,11,11,1,1,1002,WORD,"ID",33,adjust,ADJUST,m,,,,,,,,,,,,,,,,,,
,,,,,,,,,,,,,,,,,,5e7902515312ee4a99c22e53,2020-08-10_18h18.48.419,lexical_decision_task_MP,2020.1.3,Win32,60,m,1,0.60259,,,,,,,,0.60259,1,0,12,12,6,1,1007,WORD,UN,50,tropic,ZOMBIE,m,,,,,,,,,,,,,,,,,,
,,,,,,,,,,,,,,,,,,5e7902515312ee4a99c22e53,2020-08-10_18h18.48.419,lexical_decision_task_MP,2020.1.3,Win32,60,z,1,0.836875,,,,,,,,0.836875,1,0,13,13,15,1,1016,NW,UN,50,mushed,WHAISE,z,,,,,,,,,,,,,,,,,,
,,,,,,,,,,,,,,,,,,5e7902515312ee4a99c22e53,2020-08-10_18h18.48.419,lexical_decision_task_MP,2020.1.3,Win32,60,m,0,0.621135,,,,,,,,0.621135,0,0,14,14,9,1,1010,NW,"ID",33,fariny,FARINY,z,,,,,,,,,,,,,,,,,,
,,,,,,,,,,,,,,,,,,5e7902515312ee4a99c22e53,2020-08-10_18h18.48.419,lexical_decision_task_MP,2020.1.3,Win32,60,z,1,0.793735,,,,,,,,0.793735,1,0,15,15,13,1,1014,NW,UN,33,winfer,ROUPET,z,,,,,,,,,,,,,,,,,,
,space,13.544595,0.753381894,-0.160770031,0,0,0,,,,,,1,end_of_practice,"You have completed the practice trials. During the experimental trials, you will not receive feedback, but it is very important that you respond as quickly and accurately as possible. 
Before you begin, please ensure that you are in a comfortable and quiet location and will not be disturbed for about 15 minutes, as we cannot use your data if you do not complete all the trials. 
There will be opportunities to take breaks at regular intervals during the experiment. When you are ready to start the experimental trials, please press space or touch the button below.",,,5e7902515312ee4a99c22e53,2020-08-10_18h18.48.419,lexical_decision_task_MP,2020.1.3,Win32,60,,,,,,,,,,,,,,,,,,,,,,,,,0,0,0,0,1,,,,,,,,,,,,,
,,,,,,,,,,,,,,,,,,5e7902515312ee4a99c22e53,2020-08-10_18h18.48.419,lexical_decision_task_MP,2020.1.3,Win32,60,m,1,0.7112,,,,,,,,0.7112,1,,,,,,8,WORD,"ID",50,abrupt,ABRUPT,m,,,,,,0.753381894,-0.160770031,0,0,0,,0,0,0,67,1,,
,,,,,,,,,,,,,,,,,,5e7902515312ee4a99c22e53,2020-08-10_18h18.48.419,lexical_decision_task_MP,2020.1.3,Win32,60,z,1,0.74084,,,,,,,,0.74084,1,,,,,,366,NW,UN,50,slique,TOSHEL,z,,,,,,0.753381894,-0.160770031,0,0,0,,0,1,1,425,1,,
,,,,,,,,,,,,,,,,,,5e7902515312ee4a99c22e53,2020-08-10_18h18.48.419,lexical_decision_task_MP,2020.1.3,Win32,60,m,1,0.67495,,,,,,,,0.67495,1,,,,,,184,WORD,"ID",33,sleazy,SLEAZY,m,,,,,,0.753381894,-0.160770031,0,0,0,,0,2,2,3,1,,
,,,,,,,,,,,,,,,,,,5e7902515312ee4a99c22e53,2020-08-10_18h18.48.419,lexical_decision_task_MP,2020.1.3,Win32,60,z,1,0.62353,,,,,,,,0.62353,1,,,,,,288,NW,"ID",50,yaceup,YACEUP,z,,,,,,0.753381894,-0.160770031,0,0,0,,0,3,3,347,1,,
,,,,,,,,,,,,,,,,,,5e7902515312ee4a99c22e53,2020-08-10_18h18.48.419,lexical_decision_task_MP,2020.1.3,Win32,60,z,1,0.625135,,,,,,,,0.625135,1,,,,,,472,NW,"ID",33,cigney,CIGNEY,z,,,,,,0.753381894,-0.160770031,0,0,0,,0,4,4,291,1,,
,,,,,,,,,,,,,,,,,,5e7902515312ee4a99c22e53,2020-08-10_18h18.48.419,lexical_decision_task_MP,2020.1.3,Win32,60,m,1,0.52697,,,,,,,,0.52697,1,,,,,,166,WORD,UN,50,design,STARCH,m,,,,,,0.753381894,-0.160770031,0,0,0,,0,5,5,225,1,,
,,,,,,,,,,,,,,,,,,5e7902515312ee4a99c22e53,2020-08-10_18h18.48.419,lexical_decision_task_MP,2020.1.3,Win32,60,m,0,0.524195,,,,,,,,0.524195,0,,,,,,345,NW,UN,33,saudic,ABSEND,z,,,,,,0.753381894,-0.160770031,0,0,0,,0,6,6,404,1,,
,,,,,,,,,,,,,,,,,,5e7902515312ee4a99c22e53,2020-08-10_18h18.48.419,lexical_decision_task_MP,2020.1.3,Win32,60,m,1,0.532975,,,,,,,,0.532975,1,,,,,,240,WORD,"ID",33,forest,FOREST,m,,,,,,0.753381894,-0.160770031,0,0,0,,0,7,7,59,1,,
,,,,,,,,,,,,,,,,,,5e7902515312ee4a99c22e53,2020-08-10_18h18.48.419,lexical_decision_task_MP,2020.1.3,Win32,60,z,1,0.668095,,,,,,,,0.668095,1,,,,,,355,NW,UN,33,othnis,ZINGLY,z,,,,,,0.753381894,-0.160770031,0,0,0,,0,8,8,414,1,,
,,,,,,,,,,,,,,,,,,5e7902515312ee4a99c22e53,2020-08-10_18h18.48.419,lexical_decision_task_MP,2020.1.3,Win32,60,m,1,0.525505,,,,,,,,0.525505,1,,,,,,51,WORD,"ID",50,hungry,HUNGRY,m,,,,,,0.753381894,-0.160770031,0,0,0,,0,9,9,110,1,,
,,,,,,,,,,,,,,,,,,5e7902515312ee4a99c22e53,2020-08-10_18h18.48.419,lexical_decision_task_MP,2020.1.3,Win32,60,m,0,0.7582,,,,,,,,0.7582,0,,,,,,268,NW,"ID",50,packes,PACKES,z,,,,,,0.753381894,-0.160770031,0,0,0,,0,10,10,327,1,,
,,,,,,,,,,,,,,,,,,5e7902515312ee4a99c22e53,2020-08-10_18h18.48.419,lexical_decision_task_MP,2020.1.3,Win32,60,z,1,1.25653,,,,,,,,1.25653,1,,,,,,365,NW,UN,50,toshel,GUAIRT,z,,,,,,0.753381894,-0.160770031,0,0,0,,0,11,11,424,1,,
,,,,,,,,,,,,,,,,,,5e7902515312ee4a99c22e53,2020-08-10_18h18.48.419,lexical_decision_task_MP,2020.1.3,Win32,60,z,1,0.85033,,,,,,,,0.85033,1,,,,,,448,NW,"ID",33,sadent,SADENT,z,,,,,,0.753381894,-0.160770031,0,0,0,,0,12,12,267,1,,
,,,,,,,,,,,,,,,,,,5e7902515312ee4a99c22e53,2020-08-10_18h18.48.419,lexical_decision_task_MP,2020.1.3,Win32,60,z,0,0.646085,,,,,,,,0.646085,0,,,,,,211,WORD,"ID",33,infect,INFECT,m,,,,,,0.753381894,-0.160770031,0,0,0,,0,13,13,30,1,,
,,,,,,,,,,,,,,,,,,5e7902515312ee4a99c22e53,2020-08-10_18h18.48.419,lexical_decision_task_MP,2020.1.3,Win32,60,z,1,0.82814,,,,,,,,0.82814,1,,,,,,468,NW,"ID",33,wictor,WICTOR,z,,,,,,0.753381894,-0.160770031,0,0,0,,0,14,14,287,1,,
,,,,,,,,,,,,,,,,,,5e7902515312ee4a99c22e53,2020-08-10_18h18.48.419,lexical_decision_task_MP,2020.1.3,Win32,60,m,1,0.532395,,,,,,,,0.532395,1,,,,,,118,WORD,UN,33,spider,FLIGHT,m,,,,,,0.753381894,-0.160770031,0,0,0,,0,15,15,177,1,,
,,,,,,,,,,,,,,,,,,5e7902515312ee4a99c22e53,2020-08-10_18h18.48.419,lexical_decision_task_MP,2020.1.3,Win32,60,z,1,0.68393,,,,,,,,0.68393,1,,,,,,246,NW,"ID",50,piaton,PIATON,z,,,,,,0.753381894,-0.160770031,0,0,0,,0,16,16,305,1,,
,,,,,,,,,,,,,,,,,,5e7902515312ee4a99c22e53,2020-08-10_18h18.48.419,lexical_decision_task_MP,2020.1.3,Win32,60,m,1,0.62634,,,,,,,,0.62634,1,,,,,,155,WORD,UN,50,cradle,LIZARD,m,,,,,,0.753381894,-0.160770031,0,0,0,,0,17,17,214,1,,
,,,,,,,,,,,,,,,,,,5e7902515312ee4a99c22e53,2020-08-10_18h18.48.419,lexical_decision_task_MP,2020.1.3,Win32,60,m,1,0.62907,,,,,,,,0.62907,1,,,,,,77,WORD,UN,33,column,RACKET,m,,,,,,0.753381894,-0.160770031,0,0,0,,0,18,18,136,1,,
,,,,,,,,,,,,,,,,,,5e7902515312ee4a99c22e53,2020-08-10_18h18.48.419,lexical_decision_task_MP,2020.1.3,Win32,60,m,0,0.76374,,,,,,,,0.76374,0,,,,,,328,NW,UN,33,yarike,BROAKE,z,,,,,,0.753381894,-0.160770031,0,0,0,,0,19,19,387,1,,
,,,,,,,,,,,,,,,,,,5e7902515312ee4a99c22e53,2020-08-10_18h18.48.419,lexical_decision_task_MP,2020.1.3,Win32,60,z,1,1.238775,,,,,,,,1.238775,1,,,,,,410,NW,UN,50,orchin,TUNORY,z,,,,,,0.753381894,-0.160770031,0,0,0,,0,20,20,469,1,,
,,,,,,,,,,,,,,,,,,5e7902515312ee4a99c22e53,2020-08-10_18h18.48.419,lexical_decision_task_MP,2020.1.3,Win32,60,z,1,0.777435,,,,,,,,0.777435,1,,,,,,319,NW,UN,33,jockal,ZOMBER,z,,,,,,0.753381894,-0.160770031,0,0,0,,0,21,21,378,1,,
,,,,,,,,,,,,,,,,,,5e7902515312ee4a99c22e53,2020-08-10_18h18.48.419,lexical_decision_task_MP,2020.1.3,Win32,60,z,1,0.60649,,,,,,,,0.60649,1,,,,,,361,NW,UN,50,tireau,PAUCHE,z,,,,,,0.753381894,-0.160770031,0,0,0,,0,22,22,420,1,,
,,,,,,,,,,,,,,,,,,5e7902515312ee4a99c22e53,2020-08-10_18h18.48.419,lexical_decision_task_MP,2020.1.3,Win32,60,m,0,0.666985,,,,,,,,0.666985,0,,,,,,444,NW,"ID",33,jaunce,JAUNCE,z,,,,,,0.753381894,-0.160770031,0,0,0,,0,23,23,263,1,,
,,,,,,,,,,,,,,,,,,5e7902515312ee4a99c22e53,2020-08-10_18h18.48.419,lexical_decision_task_MP,2020.1.3,Win32,60,z,1,0.695355,,,,,,,,0.695355,1,,,,,,242,NW,"ID",50,unwert,UNWERT,z,,,,,,0.753381894,-0.160770031,0,0,0,,0,24,24,301,1,,
,,,,,,,,,,,,,,,,,,5e7902515312ee4a99c22e53,2020-08-10_18h18.48.419,lexical_decision_task_MP,2020.1.3,Win32,60,m,0,0.64212,,,,,,,,0.64212,0,,,,,,318,NW,UN,33,zomber,REAGLY,z,,,,,,0.753381894,-0.160770031,0,0,0,,0,25,25,377,1,,
,,,,,,,,,,,,,,,,,,5e7902515312ee4a99c22e53,2020-08-10_18h18.48.419,lexical_decision_task_MP,2020.1.3,Win32,60,m,1,0.589765,,,,,,,,0.589765,1,,,,,,92,WORD,UN,33,public,STRAND,m,,,,,,0.753381894,-0.160770031,0,0,0,,0,26,26,151,1,,
,,,,,,,,,,,,,,,,,,5e7902515312ee4a99c22e53,2020-08-10_18h18.48.419,lexical_decision_task_MP,2020.1.3,Win32,60,m,1,0.59561,,,,,,,,0.59561,1,,,,,,113,WORD,UN,33,placid,CHORUS,m,,,,,,0.753381894,-0.160770031,0,0,0,,0,27,27,172,1,,
,,,,,,,,,,,,,,,,,,5e7902515312ee4a99c22e53,2020-08-10_18h18.48.419,lexical_decision_task_MP,2020.1.3,Win32,60,m,1,0.48601,,,,,,,,0.48601,1,,,,,,60,WORD,"ID",50,pencil,PENCIL,m,,,,,,0.753381894,-0.160770031,0,0,0,,0,28,28,119,1,,
,,,,,,,,,,,,,,,,,,5e7902515312ee4a99c22e53,2020-08-10_18h18.48.419,lexical_decision_task_MP,2020.1.3,Win32,60,m,1,0.50504,,,,,,,,0.50504,1,,,,,,57,WORD,"ID",50,change,CHANGE,m,,,,,,0.753381894,-0.160770031,0,0,0,,0,29,29,116,1,,
,,,,,,,,,,,,,,,,,,5e7902515312ee4a99c22e53,2020-08-10_18h18.48.419,lexical_decision_task_MP,2020.1.3,Win32,60,m,1,0.589795,,,,,,,,0.589795,1,,,,,,214,WORD,"ID",33,intake,INTAKE,m,,,,,,0.753381894,-0.160770031,0,0,0,,0,30,30,33,1,,
,,,,,,,,,,,,,,,,,,5e7902515312ee4a99c22e53,2020-08-10_18h18.48.419,lexical_decision_task_MP,2020.1.3,Win32,60,z,1,0.61739,,,,,,,,0.61739,1,,,,,,412,NW,UN,50,equats,JILUER,z,,,,,,0.753381894,-0.160770031,0,0,0,,0,31,31,471,1,,
,,,,,,,,,,,,,,,,,,5e7902515312ee4a99c22e53,2020-08-10_18h18.48.419,lexical_decision_task_MP,2020.1.3,Win32,60,z,0,0.72339,,,,,,,,0.72339,0,,,,,,127,WORD,UN,50,senior,CASTLE,m,,,,,,0.753381894,-0.160770031,0,0,0,,0,32,32,186,1,,
,,,,,,,,,,,,,,,,,,5e7902515312ee4a99c22e53,2020-08-10_18h18.48.419,lexical_decision_task_MP,2020.1.3,Win32,60,z,1,0.857475,,,,,,,,0.857475,1,,,,,,422,NW,"ID",33,alcoud,ALCOUD,z,,,,,,0.753381894,-0.160770031,0,0,0,,0,33,33,241,1,,
,,,,,,,,,,,,,,,,,,5e7902515312ee4a99c22e53,2020-08-10_18h18.48.419,lexical_decision_task_MP,2020.1.3,Win32,60,m,1,0.60232,,,,,,,,0.60232,1,,,,,,203,WORD,"ID",33,phrase,PHRASE,m,,,,,,0.753381894,-0.160770031,0,0,0,,0,34,34,22,1,,
,,,,,,,,,,,,,,,,,,5e7902515312ee4a99c22e53,2020-08-10_18h18.48.419,lexical_decision_task_MP,2020.1.3,Win32,60,z,1,0.71783,,,,,,,,0.71783,1,,,,,,243,NW,"ID",50,musied,MUSIED,z,,,,,,0.753381894,-0.160770031,0,0,0,,0,35,35,302,1,,
,,,,,,,,,,,,,,,,,,5e7902515312ee4a99c22e53,2020-08-10_18h18.48.419,lexical_decision_task_MP,2020.1.3,Win32,60,z,1,0.6164,,,,,,,,0.6164,1,,,,,,296,NW,"ID",50,beinch,BEINCH,z,,,,,,0.753381894,-0.160770031,0,0,0,,0,36,36,355,1,,
,,,,,,,,,,,,,,,,,,5e7902515312ee4a99c22e53,2020-08-10_18h18.48.419,lexical_decision_task_MP,2020.1.3,Win32,60,m,1,0.645775,,,,,,,,0.645775,1,,,,,,180,WORD,UN,50,thrive,SILENT,m,,,,,,0.753381894,-0.160770031,0,0,0,,0,37,37,239,1,,
,,,,,,,,,,,,,,,,,,5e7902515312ee4a99c22e53,2020-08-10_18h18.48.419,lexical_decision_task_MP,2020.1.3,Win32,60,m,1,0.635205,,,,,,,,0.635205,1,,,,,,201,WORD,"ID",33,admire,ADMIRE,m,,,,,,0.753381894,-0.160770031,0,0,0,,0,38,38,20,1,,
,,,,,,,,,,,,,,,,,,5e7902515312ee4a99c22e53,2020-08-10_18h18.48.419,lexical_decision_task_MP,2020.1.3,Win32,60,z,1,0.72001,,,,,,,,0.72001,1,,,,,,307,NW,UN,33,psetch,KIRAFE,z,,,,,,0.753381894,-0.160770031,0,0,0,,0,39,39,366,1,,
,,,,,,,,,,,,,,,,,,5e7902515312ee4a99c22e53,2020-08-10_18h18.48.419,lexical_decision_task_MP,2020.1.3,Win32,60,z,1,0.87216,,,,,,,,0.87216,1,,,,,,428,NW,"ID",33,tandly,TANDLY,z,,,,,,0.753381894,-0.160770031,0,0,0,,0,40,40,247,1,,
,,,,,,,,,,,,,,,,,,5e7902515312ee4a99c22e53,2020-08-10_18h18.48.419,lexical_decision_task_MP,2020.1.3,Win32,60,z,1,0.65605,,,,,,,,0.65605,1,,,,,,263,NW,"ID",50,dolica,DOLICA,z,,,,,,0.753381894,-0.160770031,0,0,0,,0,41,41,322,1,,
,,,,,,,,,,,,,,,,,,5e7902515312ee4a99c22e53,2020-08-10_18h18.48.419,lexical_decision_task_MP,2020.1.3,Win32,60,m,1,0.76396,,,,,,,,0.76396,1,,,,,,221,WORD,"ID",33,mascot,MASCOT,m,,,,,,0.753381894,-0.160770031,0,0,0,,0,42,42,40,1,,
,,,,,,,,,,,,,,,,,,5e7902515312ee4a99c22e53,2020-08-10_18h18.48.419,lexical_decision_task_MP,2020.1.3,Win32,60,z,1,0.660285,,,,,,,,0.660285,1,,,,,,287,NW,"ID",50,nymbel,NYMBEL,z,,,,,,0.753381894,-0.160770031,0,0,0,,0,43,43,346,1,,
,,,,,,,,,,,,,,,,,,5e7902515312ee4a99c22e53,2020-08-10_18h18.48.419,lexical_decision_task_MP,2020.1.3,Win32,60,m,0,0.705285,,,,,,,,0.705285,0,,,,,,374,NW,UN,50,yorque,SLIANT,z,,,,,,0.753381894,-0.160770031,0,0,0,,0,44,44,433,1,,
,,,,,,,,,,,,,,,,,,5e7902515312ee4a99c22e53,2020-08-10_18h18.48.419,lexical_decision_task_MP,2020.1.3,Win32,60,z,1,0.9507,,,,,,,,0.9507,1,,,,,,327,NW,UN,33,broake,PLENAC,z,,,,,,0.753381894,-0.160770031,0,0,0,,0,45,45,386,1,,
,,,,,,,,,,,,,,,,,,5e7902515312ee4a99c22e53,2020-08-10_18h18.48.419,lexical_decision_task_MP,2020.1.3,Win32,60,m,1,0.943775,,,,,,,,0.943775,1,,,,,,114,WORD,UN,33,guitar,PLACID,m,,,,,,0.753381894,-0.160770031,0,0,0,,0,46,46,173,1,,
,,,,,,,,,,,,,,,,,,5e7902515312ee4a99c22e53,2020-08-10_18h18.48.419,lexical_decision_task_MP,2020.1.3,Win32,60,z,1,0.85031,,,,,,,,0.85031,1,,,,,,409,NW,UN,50,tunory,ELOPIA,z,,,,,,0.753381894,-0.160770031,0,0,0,,0,47,47,468,1,,
,,,,,,,,,,,,,,,,,,5e7902515312ee4a99c22e53,2020-08-10_18h18.48.419,lexical_decision_task_MP,2020.1.3,Win32,60,z,1,0.8351,,,,,,,,0.8351,1,,,,,,416,NW,UN,50,earoud,PATHEL,z,,,,,,0.753381894,-0.160770031,0,0,0,,0,48,48,475,1,,
,,,,,,,,,,,,,,,,,,5e7902515312ee4a99c22e53,2020-08-10_18h18.48.419,lexical_decision_task_MP,2020.1.3,Win32,60,m,1,0.716495,,,,,,,,0.716495,1,,,,,,131,WORD,UN,50,strong,QUENCH,m,,,,,,0.753381894,-0.160770031,0,0,0,,0,49,49,190,1,,
,,,,,,,,,,,,,,,,,,5e7902515312ee4a99c22e53,2020-08-10_18h18.48.419,lexical_decision_task_MP,2020.1.3,Win32,60,m,1,0.685015,,,,,,,,0.685015,1,,,,,,84,WORD,UN,33,strand,MORTAL,m,,,,,,0.753381894,-0.160770031,0,0,0,,0,50,50,143,1,,
,,,,,,,,,,,,,,,,,,5e7902515312ee4a99c22e53,2020-08-10_18h18.48.419,lexical_decision_task_MP,2020.1.3,Win32,60,z,1,0.794195,,,,,,,,0.794195,1,,,,,,261,NW,"ID",50,stunch,STUNCH,z,,,,,,0.753381894,-0.160770031,0,0,0,,0,51,51,320,1,,
,,,,,,,,,,,,,,,,,,5e7902515312ee4a99c22e53,2020-08-10_18h18.48.419,lexical_decision_task_MP,2020.1.3,Win32,60,m,1,0.77106,,,,,,,,0.77106,1,,,,,,104,WORD,UN,33,number,STUDIO,m,,,,,,0.753381894,-0.160770031,0,0,0,,0,52,52,163,1,,
,,,,,,,,,,,,,,,,,,5e7902515312ee4a99c22e53,2020-08-10_18h18.48.419,lexical_decision_task_MP,2020.1.3,Win32,60,m,1,0.58824,,,,,,,,0.58824,1,,,,,,48,WORD,"ID",50,walnut,WALNUT,m,,,,,,0.753381894,-0.160770031,0,0,0,,0,53,53,107,1,,
,,,,,,,,,,,,,,,,,,5e7902515312ee4a99c22e53,2020-08-10_18h18.48.419,lexical_decision_task_MP,2020.1.3,Win32,60,m,1,0.676365,,,,,,,,0.676365,1,,,,,,213,WORD,"ID",33,squeal,SQUEAL,m,,,,,,0.753381894,-0.160770031,0,0,0,,0,54,54,32,1,,
,,,,,,,,,,,,,,,,,,5e7902515312ee4a99c22e53,2020-08-10_18h18.48.419,lexical_decision_task_MP,2020.1.3,Win32,60,z,1,0.630855,,,,,,,,0.630855,1,,,,,,329,NW,UN,33,kensom,YARIKE,z,,,,,,0.753381894,-0.160770031,0,0,0,,0,55,55,388,1,,
,,,,,,,,,,,,,,,,,,5e7902515312ee4a99c22e53,2020-08-10_18h18.48.419,lexical_decision_task_MP,2020.1.3,Win32,60,z,1,0.83814,,,,,,,,0.83814,1,,,,,,310,NW,UN,33,sproly,DANIET,z,,,,,,0.753381894,-0.160770031,0,0,0,,0,56,56,369,1,,
,,,,,,,,,,,,,,,,,,5e7902515312ee4a99c22e53,2020-08-10_18h18.48.419,lexical_decision_task_MP,2020.1.3,Win32,60,m,1,0.605175,,,,,,,,0.605175,1,,,,,,132,WORD,UN,50,orphan,STRONG,m,,,,,,0.753381894,-0.160770031,0,0,0,,0,57,57,191,1,,
,,,,,,,,,,,,,,,,,,5e7902515312ee4a99c22e53,2020-08-10_18h18.48.419,lexical_decision_task_MP,2020.1.3,Win32,60,m,1,0.712825,,,,,,,,0.712825,1,,,,,,178,WORD,UN,50,basket,INFORM,m,,,,,,0.753381894,-0.160770031,0,0,0,,0,58,58,237,1,,
,,,,,,,,,,,,,,,,,,5e7902515312ee4a99c22e53,2020-08-10_18h18.48.419,lexical_decision_task_MP,2020.1.3,Win32,60,m,1,0.630885,,,,,,,,0.630885,1,,,,,,98,WORD,UN,33,fluent,BELONG,m,,,,,,0.753381894,-0.160770031,0,0,0,,0,59,59,157,1,,
,,,,,,,,,,,,,,,,,,5e7902515312ee4a99c22e53,2020-08-10_18h18.48.419,lexical_decision_task_MP,2020.1.3,Win32,60,z,1,0.72669,,,,,,,,0.72669,1,,,,,,338,NW,UN,33,fachow,WREASH,z,,,,,,0.753381894,-0.160770031,0,0,0,,0,60,60,397,1,,
,,,,,,,,,,,,,,,,,,5e7902515312ee4a99c22e53,2020-08-10_18h18.48.419,lexical_decision_task_MP,2020.1.3,Win32,60,z,1,0.725455,,,,,,,,0.725455,1,,,,,,368,NW,UN,50,wronch,HORNAL,z,,,,,,0.753381894,-0.160770031,0,0,0,,0,61,61,427,1,,
,,,,,,,,,,,,,,,,,,5e7902515312ee4a99c22e53,2020-08-10_18h18.48.419,lexical_decision_task_MP,2020.1.3,Win32,60,m,0,0.616955,,,,,,,,0.616955,0,,,,,,384,NW,UN,50,injore,GUESCO,z,,,,,,0.753381894,-0.160770031,0,0,0,,0,62,62,443,1,,
,,,,,,,,,,,,,,,,,,5e7902515312ee4a99c22e53,2020-08-10_18h18.48.419,lexical_decision_task_MP,2020.1.3,Win32,60,z,1,0.707735,,,,,,,,0.707735,1,,,,,,394,NW,UN,50,colury,SPAQUX,z,,,,,,0.753381894,-0.160770031,0,0,0,,0,63,63,453,1,,
,,,,,,,,,,,,,,,,,,5e7902515312ee4a99c22e53,2020-08-10_18h18.48.419,lexical_decision_task_MP,2020.1.3,Win32,60,z,1,0.861445,,,,,,,,0.861445,1,,,,,,305,NW,UN,33,sounge,FORGLE,z,,,,,,0.753381894,-0.160770031,0,0,0,,0,64,64,364,1,,
,,,,,,,,,,,,,,,,,,5e7902515312ee4a99c22e53,2020-08-10_18h18.48.419,lexical_decision_task_MP,2020.1.3,Win32,60,m,1,0.66718,,,,,,,,0.66718,1,,,,,,165,WORD,UN,50,starch,INVEST,m,,,,,,0.753381894,-0.160770031,0,0,0,,0,65,65,224,1,,
,,,,,,,,,,,,,,,,,,5e7902515312ee4a99c22e53,2020-08-10_18h18.48.419,lexical_decision_task_MP,2020.1.3,Win32,60,m,1,0.58481,,,,,,,,0.58481,1,,,,,,239,WORD,"ID",33,lumber,LUMBER,m,,,,,,0.753381894,-0.160770031,0,0,0,,0,66,66,58,1,,
,,,,,,,,,,,,,,,,,,5e7902515312ee4a99c22e53,2020-08-10_18h18.48.419,lexical_decision_task_MP,2020.1.3,Win32,60,z,1,0.55021,,,,,,,,0.55021,1,,,,,,421,NW,"ID",33,knisma,KNISMA,z,,,,,,0.753381894,-0.160770031,0,0,0,,0,67,67,240,1,,
,,,,,,,,,,,,,,,,,,5e7902515312ee4a99c22e53,2020-08-10_18h18.48.419,lexical_decision_task_MP,2020.1.3,Win32,60,z,1,0.672705,,,,,,,,0.672705,1,,,,,,467,NW,"ID",33,gorbie,GORBIE,z,,,,,,0.753381894,-0.160770031,0,0,0,,0,68,68,286,1,,
,,,,,,,,,,,,,,,,,,5e7902515312ee4a99c22e53,2020-08-10_18h18.48.419,lexical_decision_task_MP,2020.1.3,Win32,60,z,1,0.739685,,,,,,,,0.739685,1,,,,,,343,NW,UN,33,scrily,AIMOSY,z,,,,,,0.753381894,-0.160770031,0,0,0,,0,69,69,402,1,,
,,,,,,,,,,,,,,,,,,5e7902515312ee4a99c22e53,2020-08-10_18h18.48.419,lexical_decision_task_MP,2020.1.3,Win32,60,z,1,0.607775,,,,,,,,0.607775,1,,,,,,470,NW,"ID",33,crudio,CRUDIO,z,,,,,,0.753381894,-0.160770031,0,0,0,,0,70,70,289,1,,
,,,,,,,,,,,,,,,,,,5e7902515312ee4a99c22e53,2020-08-10_18h18.48.419,lexical_decision_task_MP,2020.1.3,Win32,60,m,1,0.752425,,,,,,,,0.752425,1,,,,,,30,WORD,"ID",50,orient,ORIENT,m,,,,,,0.753381894,-0.160770031,0,0,0,,0,71,71,89,1,,
,,,,,,,,,,,,,,,,,,5e7902515312ee4a99c22e53,2020-08-10_18h18.48.419,lexical_decision_task_MP,2020.1.3,Win32,60,z,1,0.961125,,,,,,,,0.961125,1,,,,,,270,NW,"ID",50,wrimsy,WRIMSY,z,,,,,,0.753381894,-0.160770031,0,0,0,,0,72,72,329,1,,
,,,,,,,,,,,,,,,,,,5e7902515312ee4a99c22e53,2020-08-10_18h18.48.419,lexical_decision_task_MP,2020.1.3,Win32,60,m,0,0.729955,,,,,,,,0.729955,0,,,,,,303,NW,UN,33,cludie,FIREAM,z,,,,,,0.753381894,-0.160770031,0,0,0,,0,73,73,362,1,,
,,,,,,,,,,,,,,,,,,5e7902515312ee4a99c22e53,2020-08-10_18h18.48.419,lexical_decision_task_MP,2020.1.3,Win32,60,z,1,0.71012,,,,,,,,0.71012,1,,,,,,456,NW,"ID",33,broget,BROGET,z,,,,,,0.753381894,-0.160770031,0,0,0,,0,74,74,275,1,,
,,,,,,,,,,,,,,,,,,5e7902515312ee4a99c22e53,2020-08-10_18h18.48.419,lexical_decision_task_MP,2020.1.3,Win32,60,m,1,0.67168,,,,,,,,0.67168,1,,,,,,70,WORD,UN,33,garden,SQUARE,m,,,,,,0.753381894,-0.160770031,0,0,0,,0,75,75,129,1,,
,,,,,,,,,,,,,,,,,,5e7902515312ee4a99c22e53,2020-08-10_18h18.48.419,lexical_decision_task_MP,2020.1.3,Win32,60,m,1,0.919125,,,,,,,,0.919125,1,,,,,,1,WORD,"ID",50,fright,FRIGHT,m,,,,,,0.753381894,-0.160770031,0,0,0,,0,76,76,60,1,,
,,,,,,,,,,,,,,,,,,5e7902515312ee4a99c22e53,2020-08-10_18h18.48.419,lexical_decision_task_MP,2020.1.3,Win32,60,z,1,0.635255,,,,,,,,0.635255,1,,,,,,388,NW,UN,50,witmer,CRAGIN,z,,,,,,0.753381894,-0.160770031,0,0,0,,0,77,77,447,1,,
,,,,,,,,,,,,,,,,,,5e7902515312ee4a99c22e53,2020-08-10_18h18.48.419,lexical_decision_task_MP,2020.1.3,Win32,60,m,1,0.61544,,,,,,,,0.61544,1,,,,,,10,WORD,"ID",50,ethnic,ETHNIC,m,,,,,,0.753381894,-0.160770031,0,0,0,,0,78,78,69,1,,
,,,,,,,,,,,,,,,,,,5e7902515312ee4a99c22e53,2020-08-10_18h18.48.419,lexical_decision_task_MP,2020.1.3,Win32,60,m,1,0.65037,,,,,,,,0.65037,1,,,,,,95,WORD,UN,33,ignore,THREAD,m,,,,,,0.753381894,-0.160770031,0,0,0,,0,79,79,154,1,,
,,,,,,,,,,,,,,,,,,5e7902515312ee4a99c22e53,2020-08-10_18h18.48.419,lexical_decision_task_MP,2020.1.3,Win32,60,m,1,1.142845,,,,,,,,1.142845,1,,,,,,120,WORD,UN,33,ponder,STRAIN,m,,,,,,0.753381894,-0.160770031,0,0,0,,0,80,80,179,1,,
,,,,,,,,,,,,,,,,,,5e7902515312ee4a99c22e53,2020-08-10_18h18.48.419,lexical_decision_task_MP,2020.1.3,Win32,60,z,1,0.611215,,,,,,,,0.611215,1,,,,,,372,NW,UN,50,bigent,RAMILY,z,,,,,,0.753381894,-0.160770031,0,0,0,,0,81,81,431,1,,
,,,,,,,,,,,,,,,,,,5e7902515312ee4a99c22e53,2020-08-10_18h18.48.419,lexical_decision_task_MP,2020.1.3,Win32,60,z,0,0.67863,,,,,,,,0.67863,0,,,,,,54,WORD,"ID",50,ramble,RAMBLE,m,,,,,,0.753381894,-0.160770031,0,0,0,,0,82,82,113,1,,
,,,,,,,,,,,,,,,,,,5e7902515312ee4a99c22e53,2020-08-10_18h18.48.419,lexical_decision_task_MP,2020.1.3,Win32,60,m,1,0.65475,,,,,,,,0.65475,1,,,,,,34,WORD,"ID",50,jungle,JUNGLE,m,,,,,,0.753381894,-0.160770031,0,0,0,,0,83,83,93,1,,
,,,,,,,,,,,,,,,,,,5e7902515312ee4a99c22e53,2020-08-10_18h18.48.419,lexical_decision_task_MP,2020.1.3,Win32,60,z,1,0.600635,,,,,,,,0.600635,1,,,,,,404,NW,UN,50,flumni,CLUIRM,z,,,,,,0.753381894,-0.160770031,0,0,0,,0,84,84,463,1,,
,,,,,,,,,,,,,,,,,,5e7902515312ee4a99c22e53,2020-08-10_18h18.48.419,lexical_decision_task_MP,2020.1.3,Win32,60,z,1,1.124035,,,,,,,,1.124035,1,,,,,,408,NW,UN,50,elopia,HURNIA,z,,,,,,0.753381894,-0.160770031,0,0,0,,0,85,85,467,1,,
,,,,,,,,,,,,,,,,,,5e7902515312ee4a99c22e53,2020-08-10_18h18.48.419,lexical_decision_task_MP,2020.1.3,Win32,60,z,1,0.7182,,,,,,,,0.7182,1,,,,,,363,NW,UN,50,impote,BREALI,z,,,,,,0.753381894,-0.160770031,0,0,0,,0,86,86,422,1,,
,,,,,,,,,,,,,,,,,,5e7902515312ee4a99c22e53,2020-08-10_18h18.48.419,lexical_decision_task_MP,2020.1.3,Win32,60,m,1,0.613895,,,,,,,,0.613895,1,,,,,,117,WORD,UN,33,flight,BRANCH,m,,,,,,0.753381894,-0.160770031,0,0,0,,0,87,87,176,1,,
,,,,,,,,,,,,,,,,,,5e7902515312ee4a99c22e53,2020-08-10_18h18.48.419,lexical_decision_task_MP,2020.1.3,Win32,60,m,1,0.81809,,,,,,,,0.81809,1,,,,,,237,WORD,"ID",33,poster,POSTER,m,,,,,,0.753381894,-0.160770031,0,0,0,,0,88,88,56,1,,
,,,,,,,,,,,,,,,,,,5e7902515312ee4a99c22e53,2020-08-10_18h18.48.419,lexical_decision_task_MP,2020.1.3,Win32,60,m,1,0.65223,,,,,,,,0.65223,1,,,,,,11,WORD,"ID",50,cruise,CRUISE,m,,,,,,0.753381894,-0.160770031,0,0,0,,0,89,89,70,1,,
,,,,,,,,,,,,,,,,,,5e7902515312ee4a99c22e53,2020-08-10_18h18.48.419,lexical_decision_task_MP,2020.1.3,Win32,60,m,1,0.56679,,,,,,,,0.56679,1,,,,,,2,WORD,"ID",50,bridge,BRIDGE,m,,,,,,0.753381894,-0.160770031,0,0,0,,0,90,90,61,1,,
,,,,,,,,,,,,,,,,,,5e7902515312ee4a99c22e53,2020-08-10_18h18.48.419,lexical_decision_task_MP,2020.1.3,Win32,60,z,1,0.558475,,,,,,,,0.558475,1,,,,,,283,NW,"ID",50,veralf,VERALF,z,,,,,,0.753381894,-0.160770031,0,0,0,,0,91,91,342,1,,
,,,,,,,,,,,,,,,,,,5e7902515312ee4a99c22e53,2020-08-10_18h18.48.419,lexical_decision_task_MP,2020.1.3,Win32,60,m,1,0.638,,,,,,,,0.638,1,,,,,,205,WORD,"ID",33,lounge,LOUNGE,m,,,,,,0.753381894,-0.160770031,0,0,0,,0,92,92,24,1,,
,,,,,,,,,,,,,,,,,,5e7902515312ee4a99c22e53,2020-08-10_18h18.48.419,lexical_decision_task_MP,2020.1.3,Win32,60,z,1,1.24304,,,,,,,,1.24304,1,,,,,,248,NW,"ID",50,strole,STROLE,z,,,,,,0.753381894,-0.160770031,0,0,0,,0,93,93,307,1,,
,,,,,,,,,,,,,,,,,,5e7902515312ee4a99c22e53,2020-08-10_18h18.48.419,lexical_decision_task_MP,2020.1.3,Win32,60,m,1,0.636615,,,,,,,,0.636615,1,,,,,,147,WORD,UN,50,custom,GARLIC,m,,,,,,0.753381894,-0.160770031,0,0,0,,0,94,94,206,1,,
,,,,,,,,,,,,,,,,,,5e7902515312ee4a99c22e53,2020-08-10_18h18.48.419,lexical_decision_task_MP,2020.1.3,Win32,60,m,1,0.80837,,,,,,,,0.80837,1,,,,,,62,WORD,UN,33,launch,REGION,m,,,,,,0.753381894,-0.160770031,0,0,0,,0,95,95,121,1,,
,,,,,,,,,,,,,,,,,,5e7902515312ee4a99c22e53,2020-08-10_18h18.48.419,lexical_decision_task_MP,2020.1.3,Win32,60,m,1,0.60027,,,,,,,,0.60027,1,,,,,,202,WORD,"ID",33,factor,FACTOR,m,,,,,,0.753381894,-0.160770031,0,0,0,,0,96,96,21,1,,
,,,,,,,,,,,,,,,,,,5e7902515312ee4a99c22e53,2020-08-10_18h18.48.419,lexical_decision_task_MP,2020.1.3,Win32,60,z,1,0.77552,,,,,,,,0.77552,1,,,,,,353,NW,UN,33,virlex,CLUREY,z,,,,,,0.753381894,-0.160770031,0,0,0,,0,97,97,412,1,,
,,,,,,,,,,,,,,,,,,5e7902515312ee4a99c22e53,2020-08-10_18h18.48.419,lexical_decision_task_MP,2020.1.3,Win32,60,m,1,0.53925,,,,,,,,0.53925,1,,,,,,39,WORD,"ID",50,insect,INSECT,m,,,,,,0.753381894,-0.160770031,0,0,0,,0,98,98,98,1,,
,,,,,,,,,,,,,,,,,,5e7902515312ee4a99c22e53,2020-08-10_18h18.48.419,lexical_decision_task_MP,2020.1.3,Win32,60,m,1,0.80034,,,,,,,,0.80034,1,,,,,,74,WORD,UN,33,trophy,PLAQUE,m,,,,,,0.753381894,-0.160770031,0,0,0,,0,99,99,133,1,,
,,,,,,,,,,,,,,,,,,5e7902515312ee4a99c22e53,2020-08-10_18h18.48.419,lexical_decision_task_MP,2020.1.3,Win32,60,m,1,0.49586,,,,,,,,0.49586,1,,,,,,38,WORD,"ID",50,powder,POWDER,m,,,,,,0.753381894,-0.160770031,0,0,0,,0,100,100,97,1,,
,,,,,,,,,,,,,,,,,,5e7902515312ee4a99c22e53,2020-08-10_18h18.48.419,lexical_decision_task_MP,2020.1.3,Win32,60,z,1,0.624355,,,,,,,,0.624355,1,,,,,,280,NW,"ID",50,curbol,CURBOL,z,,,,,,0.753381894,-0.160770031,0,0,0,,0,101,101,339,1,,
,,,,,,,,,,,,,,,,,,5e7902515312ee4a99c22e53,2020-08-10_18h18.48.419,lexical_decision_task_MP,2020.1.3,Win32,60,z,1,0.64653,,,,,,,,0.64653,1,,,,,,373,NW,UN,50,sliant,BIGENT,z,,,,,,0.753381894,-0.160770031,0,0,0,,0,102,102,432,1,,
,,,,,,,,,,,,,,,,,,5e7902515312ee4a99c22e53,2020-08-10_18h18.48.419,lexical_decision_task_MP,2020.1.3,Win32,60,z,1,0.58084,,,,,,,,0.58084,1,,,,,,393,NW,UN,50,spaqux,GANOUS,z,,,,,,0.753381894,-0.160770031,0,0,0,,0,103,103,452,1,,
,,,,,,,,,,,,,,,,,,5e7902515312ee4a99c22e53,2020-08-10_18h18.48.419,lexical_decision_task_MP,2020.1.3,Win32,60,m,1,0.61154,,,,,,,,0.61154,1,,,,,,154,WORD,UN,50,lizard,AUTHOR,m,,,,,,0.753381894,-0.160770031,0,0,0,,0,104,104,213,1,,
,,,,,,,,,,,,,,,,,,5e7902515312ee4a99c22e53,2020-08-10_18h18.48.419,lexical_decision_task_MP,2020.1.3,Win32,60,m,1,0.535375,,,,,,,,0.535375,1,,,,,,224,WORD,"ID",33,period,PERIOD,m,,,,,,0.753381894,-0.160770031,0,0,0,,0,105,105,43,1,,
,,,,,,,,,,,,,,,,,,5e7902515312ee4a99c22e53,2020-08-10_18h18.48.419,lexical_decision_task_MP,2020.1.3,Win32,60,m,1,0.52573,,,,,,,,0.52573,1,,,,,,3,WORD,"ID",50,knight,KNIGHT,m,,,,,,0.753381894,-0.160770031,0,0,0,,0,106,106,62,1,,
,,,,,,,,,,,,,,,,,,5e7902515312ee4a99c22e53,2020-08-10_18h18.48.419,lexical_decision_task_MP,2020.1.3,Win32,60,m,1,0.52524,,,,,,,,0.52524,1,,,,,,167,WORD,UN,50,answer,DESIGN,m,,,,,,0.753381894,-0.160770031,0,0,0,,0,107,107,226,1,,
,,,,,,,,,,,,,,,,,,5e7902515312ee4a99c22e53,2020-08-10_18h18.48.419,lexical_decision_task_MP,2020.1.3,Win32,60,z,1,0.736035,,,,,,,,0.736035,1,,,,,,330,NW,UN,33,gilfew,KENSOM,z,,,,,,0.753381894,-0.160770031,0,0,0,,0,108,108,389,1,,
,,,,,,,,,,,,,,,,,,5e7902515312ee4a99c22e53,2020-08-10_18h18.48.419,lexical_decision_task_MP,2020.1.3,Win32,60,m,1,0.84325,,,,,,,,0.84325,1,,,,,,19,WORD,"ID",50,patron,PATRON,m,,,,,,0.753381894,-0.160770031,0,0,0,,0,109,109,78,1,,
,,,,,,,,,,,,,,,,,,5e7902515312ee4a99c22e53,2020-08-10_18h18.48.419,lexical_decision_task_MP,2020.1.3,Win32,60,m,1,0.47144,,,,,,,,0.47144,1,,,,,,189,WORD,"ID",33,censor,CENSOR,m,,,,,,0.753381894,-0.160770031,0,0,0,,0,110,110,8,1,,
,,,,,,,,,,,,,,,,,,5e7902515312ee4a99c22e53,2020-08-10_18h18.48.419,lexical_decision_task_MP,2020.1.3,Win32,60,z,1,0.587465,,,,,,,,0.587465,1,,,,,,251,NW,"ID",50,lupict,LUPICT,z,,,,,,0.753381894,-0.160770031,0,0,0,,0,111,111,310,1,,
,,,,,,,,,,,,,,,,,,5e7902515312ee4a99c22e53,2020-08-10_18h18.48.419,lexical_decision_task_MP,2020.1.3,Win32,60,z,1,0.55671,,,,,,,,0.55671,1,,,,,,274,NW,"ID",50,fumblo,FUMBLO,z,,,,,,0.753381894,-0.160770031,0,0,0,,0,112,112,333,1,,
,,,,,,,,,,,,,,,,,,5e7902515312ee4a99c22e53,2020-08-10_18h18.48.419,lexical_decision_task_MP,2020.1.3,Win32,60,z,1,1.03519,,,,,,,,1.03519,1,,,,,,265,NW,"ID",50,distar,DISTAR,z,,,,,,0.753381894,-0.160770031,0,0,0,,0,113,113,324,1,,
,,,,,,,,,,,,,,,,,,5e7902515312ee4a99c22e53,2020-08-10_18h18.48.419,lexical_decision_task_MP,2020.1.3,Win32,60,m,1,0.63421,,,,,,,,0.63421,1,,,,,,93,WORD,UN,33,travel,PUBLIC,m,,,,,,0.753381894,-0.160770031,0,0,0,,0,114,114,152,1,,
,,,,,,,,,,,,,,,,,,5e7902515312ee4a99c22e53,2020-08-10_18h18.48.419,lexical_decision_task_MP,2020.1.3,Win32,60,m,1,0.472175,,,,,,,,0.472175,1,,,,,,26,WORD,"ID",50,sprint,SPRINT,m,,,,,,0.753381894,-0.160770031,0,0,0,,0,115,115,85,1,,
,,,,,,,,,,,,,,,,,,5e7902515312ee4a99c22e53,2020-08-10_18h18.48.419,lexical_decision_task_MP,2020.1.3,Win32,60,m,1,0.46691,,,,,,,,0.46691,1,,,,,,31,WORD,"ID",50,weapon,WEAPON,m,,,,,,0.753381894,-0.160770031,0,0,0,,0,116,116,90,1,,
,,,,,,,,,,,,,,,,,,5e7902515312ee4a99c22e53,2020-08-10_18h18.48.419,lexical_decision_task_MP,2020.1.3,Win32,60,z,1,0.56692,,,,,,,,0.56692,1,,,,,,376,NW,UN,50,veigma,IGUARE,z,,,,,,0.753381894,-0.160770031,0,0,0,,0,117,117,435,1,,
,,,,,,,,,,,,,,,,,,5e7902515312ee4a99c22e53,2020-08-10_18h18.48.419,lexical_decision_task_MP,2020.1.3,Win32,60,z,1,0.491435,,,,,,,,0.491435,1,,,,,,350,NW,UN,33,tiesch,NAGURS,z,,,,,,0.753381894,-0.160770031,0,0,0,,0,118,118,409,1,,
,,,,,,,,,,,,,,,,,,5e7902515312ee4a99c22e53,2020-08-10_18h18.48.419,lexical_decision_task_MP,2020.1.3,Win32,60,z,0,0.59676,,,,,,,,0.59676,0,,,,,,135,WORD,UN,50,bleach,IMPORT,m,,,,,,0.753381894,-0.160770031,0,0,0,,0,119,119,194,1,,
,,,,,,,,,,,,,,,,,,5e7902515312ee4a99c22e53,2020-08-10_18h18.48.419,lexical_decision_task_MP,2020.1.3,Win32,60,z,1,0.61885,,,,,,,,0.61885,1,,,,,,477,NW,"ID",33,photie,PHOTIE,z,,,,,,0.753381894,-0.160770031,0,0,0,space,0,120,120,296,1,5.86866,
,,,,,,,,,,,,,,,,,,5e7902515312ee4a99c22e53,2020-08-10_18h18.48.419,lexical_decision_task_MP,2020.1.3,Win32,60,m,1,0.560255,,,,,,,,0.560255,1,,,,,,229,WORD,"ID",33,mother,MOTHER,m,,,,,,0.753381894,-0.160770031,0,0,0,,0,121,121,48,1,,
,,,,,,,,,,,,,,,,,,5e7902515312ee4a99c22e53,2020-08-10_18h18.48.419,lexical_decision_task_MP,2020.1.3,Win32,60,m,1,0.547525,,,,,,,,0.547525,1,,,,,,69,WORD,UN,33,square,PLENTY,m,,,,,,0.753381894,-0.160770031,0,0,0,,0,122,122,128,1,,
,,,,,,,,,,,,,,,,,,5e7902515312ee4a99c22e53,2020-08-10_18h18.48.419,lexical_decision_task_MP,2020.1.3,Win32,60,m,1,0.691605,,,,,,,,0.691605,1,,,,,,222,WORD,"ID",33,hinder,HINDER,m,,,,,,0.753381894,-0.160770031,0,0,0,,0,123,123,41,1,,
,,,,,,,,,,,,,,,,,,5e7902515312ee4a99c22e53,2020-08-10_18h18.48.419,lexical_decision_task_MP,2020.1.3,Win32,60,z,1,0.53999,,,,,,,,0.53999,1,,,,,,382,NW,UN,50,aungre,SARLEY,z,,,,,,0.753381894,-0.160770031,0,0,0,,0,124,124,441,1,,
,,,,,,,,,,,,,,,,,,5e7902515312ee4a99c22e53,2020-08-10_18h18.48.419,lexical_decision_task_MP,2020.1.3,Win32,60,z,1,0.73598,,,,,,,,0.73598,1,,,,,,298,NW,"ID",50,piergy,PIERGY,z,,,,,,0.753381894,-0.160770031,0,0,0,,0,125,125,357,1,,
,,,,,,,,,,,,,,,,,,5e7902515312ee4a99c22e53,2020-08-10_18h18.48.419,lexical_decision_task_MP,2020.1.3,Win32,60,m,1,0.68808,,,,,,,,0.68808,1,,,,,,198,WORD,"ID",33,wicked,WICKED,m,,,,,,0.753381894,-0.160770031,0,0,0,,0,126,126,17,1,,
,,,,,,,,,,,,,,,,,,5e7902515312ee4a99c22e53,2020-08-10_18h18.48.419,lexical_decision_task_MP,2020.1.3,Win32,60,z,1,0.55044,,,,,,,,0.55044,1,,,,,,450,NW,"ID",33,phrect,PHRECT,z,,,,,,0.753381894,-0.160770031,0,0,0,,0,127,127,269,1,,
,,,,,,,,,,,,,,,,,,5e7902515312ee4a99c22e53,2020-08-10_18h18.48.419,lexical_decision_task_MP,2020.1.3,Win32,60,m,1,0.630155,,,,,,,,0.630155,1,,,,,,188,WORD,"ID",33,social,SOCIAL,m,,,,,,0.753381894,-0.160770031,0,0,0,,0,128,128,7,1,,
,,,,,,,,,,,,,,,,,,5e7902515312ee4a99c22e53,2020-08-10_18h18.48.419,lexical_decision_task_MP,2020.1.3,Win32,60,z,1,0.670505,,,,,,,,0.670505,1,,,,,,290,NW,"ID",50,splino,SPLINO,z,,,,,,0.753381894,-0.160770031,0,0,0,,0,129,129,349,1,,
,,,,,,,,,,,,,,,,,,5e7902515312ee4a99c22e53,2020-08-10_18h18.48.419,lexical_decision_task_MP,2020.1.3,Win32,60,m,0,0.926445,,,,,,,,0.926445,0,,,,,,380,NW,UN,50,huniek,CAVORY,z,,,,,,0.753381894,-0.160770031,0,0,0,,0,130,130,439,1,,
,,,,,,,,,,,,,,,,,,5e7902515312ee4a99c22e53,2020-08-10_18h18.48.419,lexical_decision_task_MP,2020.1.3,Win32,60,m,1,0.48717,,,,,,,,0.48717,1,,,,,,83,WORD,UN,33,mortal,RESULT,m,,,,,,0.753381894,-0.160770031,0,0,0,,0,131,131,142,1,,
,,,,,,,,,,,,,,,,,,5e7902515312ee4a99c22e53,2020-08-10_18h18.48.419,lexical_decision_task_MP,2020.1.3,Win32,60,z,1,0.66244,,,,,,,,0.66244,1,,,,,,277,NW,"ID",50,petain,PETAIN,z,,,,,,0.753381894,-0.160770031,0,0,0,,0,132,132,336,1,,
,,,,,,,,,,,,,,,,,,5e7902515312ee4a99c22e53,2020-08-10_18h18.48.419,lexical_decision_task_MP,2020.1.3,Win32,60,m,1,0.558595,,,,,,,,0.558595,1,,,,,,100,WORD,UN,33,wrench,CARBON,m,,,,,,0.753381894,-0.160770031,0,0,0,,0,133,133,159,1,,
,,,,,,,,,,,,,,,,,,5e7902515312ee4a99c22e53,2020-08-10_18h18.48.419,lexical_decision_task_MP,2020.1.3,Win32,60,m,1,0.55963,,,,,,,,0.55963,1,,,,,,85,WORD,UN,33,rodent,SPRAWL,m,,,,,,0.753381894,-0.160770031,0,0,0,,0,134,134,144,1,,
,,,,,,,,,,,,,,,,,,5e7902515312ee4a99c22e53,2020-08-10_18h18.48.419,lexical_decision_task_MP,2020.1.3,Win32,60,m,1,0.693625,,,,,,,,0.693625,1,,,,,,141,WORD,UN,50,spruce,ORPHAN,m,,,,,,0.753381894,-0.160770031,0,0,0,,0,135,135,200,1,,
,,,,,,,,,,,,,,,,,,5e7902515312ee4a99c22e53,2020-08-10_18h18.48.419,lexical_decision_task_MP,2020.1.3,Win32,60,m,1,0.576195,,,,,,,,0.576195,1,,,,,,108,WORD,UN,33,wonder,RECKON,m,,,,,,0.753381894,-0.160770031,0,0,0,,0,136,136,167,1,,
,,,,,,,,,,,,,,,,,,5e7902515312ee4a99c22e53,2020-08-10_18h18.48.419,lexical_decision_task_MP,2020.1.3,Win32,60,z,1,0.491645,,,,,,,,0.491645,1,,,,,,420,NW,UN,50,pauche,GUSHOP,z,,,,,,0.753381894,-0.160770031,0,0,0,,0,137,137,479,1,,
,,,,,,,,,,,,,,,,,,5e7902515312ee4a99c22e53,2020-08-10_18h18.48.419,lexical_decision_task_MP,2020.1.3,Win32,60,z,1,0.51249,,,,,,,,0.51249,1,,,,,,317,NW,UN,33,reagly,WORBAL,z,,,,,,0.753381894,-0.160770031,0,0,0,,0,138,138,376,1,,
,,,,,,,,,,,,,,,,,,5e7902515312ee4a99c22e53,2020-08-10_18h18.48.419,lexical_decision_task_MP,2020.1.3,Win32,60,z,1,0.61423,,,,,,,,0.61423,1,,,,,,475,NW,"ID",33,pebric,PEBRIC,z,,,,,,0.753381894,-0.160770031,0,0,0,,0,139,139,294,1,,
,,,,,,,,,,,,,,,,,,5e7902515312ee4a99c22e53,2020-08-10_18h18.48.419,lexical_decision_task_MP,2020.1.3,Win32,60,m,1,0.54292,,,,,,,,0.54292,1,,,,,,43,WORD,"ID",50,tongue,TONGUE,m,,,,,,0.753381894,-0.160770031,0,0,0,,0,140,140,102,1,,
,,,,,,,,,,,,,,,,,,5e7902515312ee4a99c22e53,2020-08-10_18h18.48.419,lexical_decision_task_MP,2020.1.3,Win32,60,z,1,0.61933,,,,,,,,0.61933,1,,,,,,258,NW,"ID",50,poluth,POLUTH,z,,,,,,0.753381894,-0.160770031,0,0,0,,0,141,141,317,1,,
,,,,,,,,,,,,,,,,,,5e7902515312ee4a99c22e53,2020-08-10_18h18.48.419,lexical_decision_task_MP,2020.1.3,Win32,60,m,1,0.50102,,,,,,,,0.50102,1,,,,,,130,WORD,UN,50,quench,STUPID,m,,,,,,0.753381894,-0.160770031,0,0,0,,0,142,142,189,1,,
,,,,,,,,,,,,,,,,,,5e7902515312ee4a99c22e53,2020-08-10_18h18.48.419,lexical_decision_task_MP,2020.1.3,Win32,60,m,1,0.533955,,,,,,,,0.533955,1,,,,,,40,WORD,"ID",50,convey,CONVEY,m,,,,,,0.753381894,-0.160770031,0,0,0,,0,143,143,99,1,,
,,,,,,,,,,,,,,,,,,5e7902515312ee4a99c22e53,2020-08-10_18h18.48.419,lexical_decision_task_MP,2020.1.3,Win32,60,z,1,0.63423,,,,,,,,0.63423,1,,,,,,406,NW,UN,50,suiver,NOUPLY,z,,,,,,0.753381894,-0.160770031,0,0,0,,0,144,144,465,1,,
,,,,,,,,,,,,,,,,,,5e7902515312ee4a99c22e53,2020-08-10_18h18.48.419,lexical_decision_task_MP,2020.1.3,Win32,60,z,1,0.860505,,,,,,,,0.860505,1,,,,,,285,NW,"ID",50,prudge,PRUDGE,z,,,,,,0.753381894,-0.160770031,0,0,0,,0,145,145,344,1,,
,,,,,,,,,,,,,,,,,,5e7902515312ee4a99c22e53,2020-08-10_18h18.48.419,lexical_decision_task_MP,2020.1.3,Win32,60,m,0,0.663185,,,,,,,,0.663185,0,,,,,,255,NW,"ID",50,apight,APIGHT,z,,,,,,0.753381894,-0.160770031,0,0,0,,0,146,146,314,1,,
,,,,,,,,,,,,,,,,,,5e7902515312ee4a99c22e53,2020-08-10_18h18.48.419,lexical_decision_task_MP,2020.1.3,Win32,60,m,1,0.70326,,,,,,,,0.70326,1,,,,,,151,WORD,UN,50,rocket,MYSTIC,m,,,,,,0.753381894,-0.160770031,0,0,0,,0,147,147,210,1,,
,,,,,,,,,,,,,,,,,,5e7902515312ee4a99c22e53,2020-08-10_18h18.48.419,lexical_decision_task_MP,2020.1.3,Win32,60,m,1,0.59424,,,,,,,,0.59424,1,,,,,,33,WORD,"ID",50,butler,BUTLER,m,,,,,,0.753381894,-0.160770031,0,0,0,,0,148,148,92,1,,
,,,,,,,,,,,,,,,,,,5e7902515312ee4a99c22e53,2020-08-10_18h18.48.419,lexical_decision_task_MP,2020.1.3,Win32,60,z,1,0.72266,,,,,,,,0.72266,1,,,,,,275,NW,"ID",50,sleirt,SLEIRT,z,,,,,,0.753381894,-0.160770031,0,0,0,,0,149,149,334,1,,
,,,,,,,,,,,,,,,,,,5e7902515312ee4a99c22e53,2020-08-10_18h18.48.419,lexical_decision_task_MP,2020.1.3,Win32,60,z,1,0.568595,,,,,,,,0.568595,1,,,,,,257,NW,"ID",50,veniod,VENIOD,z,,,,,,0.753381894,-0.160770031,0,0,0,,0,150,150,316,1,,
,,,,,,,,,,,,,,,,,,5e7902515312ee4a99c22e53,2020-08-10_18h18.48.419,lexical_decision_task_MP,2020.1.3,Win32,60,z,1,0.62689,,,,,,,,0.62689,1,,,,,,340,NW,UN,33,myrtie,FIATCH,z,,,,,,0.753381894,-0.160770031,0,0,0,,0,151,151,399,1,,
,,,,,,,,,,,,,,,,,,5e7902515312ee4a99c22e53,2020-08-10_18h18.48.419,lexical_decision_task_MP,2020.1.3,Win32,60,z,1,0.935745,,,,,,,,0.935745,1,,,,,,379,NW,UN,50,cavory,AUTING,z,,,,,,0.753381894,-0.160770031,0,0,0,,0,152,152,438,1,,
,,,,,,,,,,,,,,,,,,5e7902515312ee4a99c22e53,2020-08-10_18h18.48.419,lexical_decision_task_MP,2020.1.3,Win32,60,m,1,0.68442,,,,,,,,0.68442,1,,,,,,97,WORD,UN,33,belong,CLIENT,m,,,,,,0.753381894,-0.160770031,0,0,0,,0,153,153,156,1,,
,,,,,,,,,,,,,,,,,,5e7902515312ee4a99c22e53,2020-08-10_18h18.48.419,lexical_decision_task_MP,2020.1.3,Win32,60,m,1,0.52928,,,,,,,,0.52928,1,,,,,,9,WORD,"ID",50,hustle,HUSTLE,m,,,,,,0.753381894,-0.160770031,0,0,0,,0,154,154,68,1,,
,,,,,,,,,,,,,,,,,,5e7902515312ee4a99c22e53,2020-08-10_18h18.48.419,lexical_decision_task_MP,2020.1.3,Win32,60,z,1,0.53758,,,,,,,,0.53758,1,,,,,,459,NW,"ID",33,bafent,BAFENT,z,,,,,,0.753381894,-0.160770031,0,0,0,,0,155,155,278,1,,
,,,,,,,,,,,,,,,,,,5e7902515312ee4a99c22e53,2020-08-10_18h18.48.419,lexical_decision_task_MP,2020.1.3,Win32,60,z,1,0.596665,,,,,,,,0.596665,1,,,,,,334,NW,UN,33,desion,WATMEG,z,,,,,,0.753381894,-0.160770031,0,0,0,,0,156,156,393,1,,
,,,,,,,,,,,,,,,,,,5e7902515312ee4a99c22e53,2020-08-10_18h18.48.419,lexical_decision_task_MP,2020.1.3,Win32,60,z,1,0.753755,,,,,,,,0.753755,1,,,,,,367,NW,UN,50,hornal,SLIQUE,z,,,,,,0.753381894,-0.160770031,0,0,0,,0,157,157,426,1,,
,,,,,,,,,,,,,,,,,,5e7902515312ee4a99c22e53,2020-08-10_18h18.48.419,lexical_decision_task_MP,2020.1.3,Win32,60,z,1,0.587355,,,,,,,,0.587355,1,,,,,,278,NW,"ID",50,unighs,UNIGHS,z,,,,,,0.753381894,-0.160770031,0,0,0,,0,158,158,337,1,,
,,,,,,,,,,,,,,,,,,5e7902515312ee4a99c22e53,2020-08-10_18h18.48.419,lexical_decision_task_MP,2020.1.3,Win32,60,m,1,0.60068,,,,,,,,0.60068,1,,,,,,158,WORD,UN,50,detail,ISLAND,m,,,,,,0.753381894,-0.160770031,0,0,0,,0,159,159,217,1,,
,,,,,,,,,,,,,,,,,,5e7902515312ee4a99c22e53,2020-08-10_18h18.48.419,lexical_decision_task_MP,2020.1.3,Win32,60,z,1,0.508865,,,,,,,,0.508865,1,,,,,,451,NW,"ID",33,cainky,CAINKY,z,,,,,,0.753381894,-0.160770031,0,0,0,,0,160,160,270,1,,
,,,,,,,,,,,,,,,,,,5e7902515312ee4a99c22e53,2020-08-10_18h18.48.419,lexical_decision_task_MP,2020.1.3,Win32,60,z,1,0.55434,,,,,,,,0.55434,1,,,,,,445,NW,"ID",33,minkel,MINKEL,z,,,,,,0.753381894,-0.160770031,0,0,0,,0,161,161,264,1,,
,,,,,,,,,,,,,,,,,,5e7902515312ee4a99c22e53,2020-08-10_18h18.48.419,lexical_decision_task_MP,2020.1.3,Win32,60,m,1,0.38876,,,,,,,,0.38876,1,,,,,,58,WORD,"ID",50,foster,FOSTER,m,,,,,,0.753381894,-0.160770031,0,0,0,,0,162,162,117,1,,
,,,,,,,,,,,,,,,,,,5e7902515312ee4a99c22e53,2020-08-10_18h18.48.419,lexical_decision_task_MP,2020.1.3,Win32,60,z,1,0.56795,,,,,,,,0.56795,1,,,,,,349,NW,UN,33,nagurs,ASYLEN,z,,,,,,0.753381894,-0.160770031,0,0,0,,0,163,163,408,1,,
,,,,,,,,,,,,,,,,,,5e7902515312ee4a99c22e53,2020-08-10_18h18.48.419,lexical_decision_task_MP,2020.1.3,Win32,60,z,1,0.43918,,,,,,,,0.43918,1,,,,,,241,NW,"ID",50,smenco,SMENCO,z,,,,,,0.753381894,-0.160770031,0,0,0,,0,164,164,300,1,,
,,,,,,,,,,,,,,,,,,5e7902515312ee4a99c22e53,2020-08-10_18h18.48.419,lexical_decision_task_MP,2020.1.3,Win32,60,m,1,0.556895,,,,,,,,0.556895,1,,,,,,52,WORD,"ID",50,impose,IMPOSE,m,,,,,,0.753381894,-0.160770031,0,0,0,,0,165,165,111,1,,
,,,,,,,,,,,,,,,,,,5e7902515312ee4a99c22e53,2020-08-10_18h18.48.419,lexical_decision_task_MP,2020.1.3,Win32,60,z,1,0.854575,,,,,,,,0.854575,1,,,,,,320,NW,UN,33,miator,JOCKAL,z,,,,,,0.753381894,-0.160770031,0,0,0,,0,166,166,379,1,,
,,,,,,,,,,,,,,,,,,5e7902515312ee4a99c22e53,2020-08-10_18h18.48.419,lexical_decision_task_MP,2020.1.3,Win32,60,z,1,0.60031,,,,,,,,0.60031,1,,,,,,297,NW,"ID",50,fertic,FERTIC,z,,,,,,0.753381894,-0.160770031,0,0,0,,0,167,167,356,1,,
,,,,,,,,,,,,,,,,,,5e7902515312ee4a99c22e53,2020-08-10_18h18.48.419,lexical_decision_task_MP,2020.1.3,Win32,60,z,1,0.571625,,,,,,,,0.571625,1,,,,,,336,NW,UN,33,rejols,GHODUS,z,,,,,,0.753381894,-0.160770031,0,0,0,,0,168,168,395,1,,
,,,,,,,,,,,,,,,,,,5e7902515312ee4a99c22e53,2020-08-10_18h18.48.419,lexical_decision_task_MP,2020.1.3,Win32,60,m,1,0.59988,,,,,,,,0.59988,1,,,,,,225,WORD,"ID",33,vulgar,VULGAR,m,,,,,,0.753381894,-0.160770031,0,0,0,,0,169,169,44,1,,
,,,,,,,,,,,,,,,,,,5e7902515312ee4a99c22e53,2020-08-10_18h18.48.419,lexical_decision_task_MP,2020.1.3,Win32,60,z,1,0.88317,,,,,,,,0.88317,1,,,,,,429,NW,"ID",33,funtle,FUNTLE,z,,,,,,0.753381894,-0.160770031,0,0,0,,0,170,170,248,1,,
,,,,,,,,,,,,,,,,,,5e7902515312ee4a99c22e53,2020-08-10_18h18.48.419,lexical_decision_task_MP,2020.1.3,Win32,60,m,1,0.51308,,,,,,,,0.51308,1,,,,,,17,WORD,"ID",50,charge,CHARGE,m,,,,,,0.753381894,-0.160770031,0,0,0,,0,171,171,76,1,,
,,,,,,,,,,,,,,,,,,5e7902515312ee4a99c22e53,2020-08-10_18h18.48.419,lexical_decision_task_MP,2020.1.3,Win32,60,m,1,0.78039,,,,,,,,0.78039,1,,,,,,72,WORD,UN,33,source,BRIGHT,m,,,,,,0.753381894,-0.160770031,0,0,0,,0,172,172,131,1,,
,,,,,,,,,,,,,,,,,,5e7902515312ee4a99c22e53,2020-08-10_18h18.48.419,lexical_decision_task_MP,2020.1.3,Win32,60,m,1,0.640955,,,,,,,,0.640955,1,,,,,,99,WORD,UN,33,carbon,FLUENT,m,,,,,,0.753381894,-0.160770031,0,0,0,,0,173,173,158,1,,
,,,,,,,,,,,,,,,,,,5e7902515312ee4a99c22e53,2020-08-10_18h18.48.419,lexical_decision_task_MP,2020.1.3,Win32,60,m,1,0.55012,,,,,,,,0.55012,1,,,,,,133,WORD,UN,50,staple,CHROME,m,,,,,,0.753381894,-0.160770031,0,0,0,,0,174,174,192,1,,
,,,,,,,,,,,,,,,,,,5e7902515312ee4a99c22e53,2020-08-10_18h18.48.419,lexical_decision_task_MP,2020.1.3,Win32,60,m,1,0.512455,,,,,,,,0.512455,1,,,,,,193,WORD,"ID",33,object,OBJECT,m,,,,,,0.753381894,-0.160770031,0,0,0,,0,175,175,12,1,,
,,,,,,,,,,,,,,,,,,5e7902515312ee4a99c22e53,2020-08-10_18h18.48.419,lexical_decision_task_MP,2020.1.3,Win32,60,m,1,0.579225,,,,,,,,0.579225,1,,,,,,47,WORD,"ID",50,income,INCOME,m,,,,,,0.753381894,-0.160770031,0,0,0,,0,176,176,106,1,,
,,,,,,,,,,,,,,,,,,5e7902515312ee4a99c22e53,2020-08-10_18h18.48.419,lexical_decision_task_MP,2020.1.3,Win32,60,z,1,0.58121,,,,,,,,0.58121,1,,,,,,301,NW,UN,33,miluer,FAINCH,z,,,,,,0.753381894,-0.160770031,0,0,0,,0,177,177,360,1,,
,,,,,,,,,,,,,,,,,,5e7902515312ee4a99c22e53,2020-08-10_18h18.48.419,lexical_decision_task_MP,2020.1.3,Win32,60,m,1,0.583835,,,,,,,,0.583835,1,,,,,,109,WORD,UN,33,polite,WONDER,m,,,,,,0.753381894,-0.160770031,0,0,0,,0,178,178,168,1,,
,,,,,,,,,,,,,,,,,,5e7902515312ee4a99c22e53,2020-08-10_18h18.48.419,lexical_decision_task_MP,2020.1.3,Win32,60,z,1,0.859965,,,,,,,,0.859965,1,,,,,,369,NW,UN,50,sleact,WRONCH,z,,,,,,0.753381894,-0.160770031,0,0,0,,0,179,179,428,1,,
,,,,,,,,,,,,,,,,,,5e7902515312ee4a99c22e53,2020-08-10_18h18.48.419,lexical_decision_task_MP,2020.1.3,Win32,60,z,1,0.506615,,,,,,,,0.506615,1,,,,,,323,NW,UN,33,steikh,ROSAIL,z,,,,,,0.753381894,-0.160770031,0,0,0,,0,180,180,382,1,,
,,,,,,,,,,,,,,,,,,5e7902515312ee4a99c22e53,2020-08-10_18h18.48.419,lexical_decision_task_MP,2020.1.3,Win32,60,z,1,0.53736,,,,,,,,0.53736,1,,,,,,269,NW,"ID",50,orchet,ORCHET,z,,,,,,0.753381894,-0.160770031,0,0,0,,0,181,181,328,1,,
,,,,,,,,,,,,,,,,,,5e7902515312ee4a99c22e53,2020-08-10_18h18.48.419,lexical_decision_task_MP,2020.1.3,Win32,60,m,1,0.58806,,,,,,,,0.58806,1,,,,,,102,WORD,UN,33,bounce,DIRECT,m,,,,,,0.753381894,-0.160770031,0,0,0,,0,182,182,161,1,,
,,,,,,,,,,,,,,,,,,5e7902515312ee4a99c22e53,2020-08-10_18h18.48.419,lexical_decision_task_MP,2020.1.3,Win32,60,m,1,0.546675,,,,,,,,0.546675,1,,,,,,126,WORD,UN,50,castle,ENOUGH,m,,,,,,0.753381894,-0.160770031,0,0,0,,0,183,183,185,1,,
,,,,,,,,,,,,,,,,,,5e7902515312ee4a99c22e53,2020-08-10_18h18.48.419,lexical_decision_task_MP,2020.1.3,Win32,60,m,1,0.48382,,,,,,,,0.48382,1,,,,,,162,WORD,UN,50,string,CANDLE,m,,,,,,0.753381894,-0.160770031,0,0,0,,0,184,184,221,1,,
,,,,,,,,,,,,,,,,,,5e7902515312ee4a99c22e53,2020-08-10_18h18.48.419,lexical_decision_task_MP,2020.1.3,Win32,60,m,1,0.46791,,,,,,,,0.46791,1,,,,,,137,WORD,UN,50,melody,FINGER,m,,,,,,0.753381894,-0.160770031,0,0,0,,0,185,185,196,1,,
,,,,,,,,,,,,,,,,,,5e7902515312ee4a99c22e53,2020-08-10_18h18.48.419,lexical_decision_task_MP,2020.1.3,Win32,60,m,1,0.47688,,,,,,,,0.47688,1,,,,,,153,WORD,UN,50,author,BEHOLD,m,,,,,,0.753381894,-0.160770031,0,0,0,,0,186,186,212,1,,
,,,,,,,,,,,,,,,,,,5e7902515312ee4a99c22e53,2020-08-10_18h18.48.419,lexical_decision_task_MP,2020.1.3,Win32,60,z,1,0.758075,,,,,,,,0.758075,1,,,,,,264,NW,"ID",50,vackel,VACKEL,z,,,,,,0.753381894,-0.160770031,0,0,0,,0,187,187,323,1,,
,,,,,,,,,,,,,,,,,,5e7902515312ee4a99c22e53,2020-08-10_18h18.48.419,lexical_decision_task_MP,2020.1.3,Win32,60,z,1,0.716785,,,,,,,,0.716785,1,,,,,,256,NW,"ID",50,inlors,INLORS,z,,,,,,0.753381894,-0.160770031,0,0,0,,0,188,188,315,1,,
,,,,,,,,,,,,,,,,,,5e7902515312ee4a99c22e53,2020-08-10_18h18.48.419,lexical_decision_task_MP,2020.1.3,Win32,60,z,1,0.68471,,,,,,,,0.68471,1,,,,,,291,NW,"ID",50,pretch,PRETCH,z,,,,,,0.753381894,-0.160770031,0,0,0,,0,189,189,350,1,,
,,,,,,,,,,,,,,,,,,5e7902515312ee4a99c22e53,2020-08-10_18h18.48.419,lexical_decision_task_MP,2020.1.3,Win32,60,m,1,0.505955,,,,,,,,0.505955,1,,,,,,73,WORD,UN,33,plaque,SOURCE,m,,,,,,0.753381894,-0.160770031,0,0,0,,0,190,190,132,1,,
,,,,,,,,,,,,,,,,,,5e7902515312ee4a99c22e53,2020-08-10_18h18.48.419,lexical_decision_task_MP,2020.1.3,Win32,60,z,1,0.505265,,,,,,,,0.505265,1,,,,,,457,NW,"ID",33,wanigh,WANIGH,z,,,,,,0.753381894,-0.160770031,0,0,0,,0,191,191,276,1,,
,,,,,,,,,,,,,,,,,,5e7902515312ee4a99c22e53,2020-08-10_18h18.48.419,lexical_decision_task_MP,2020.1.3,Win32,60,z,1,0.666835,,,,,,,,0.666835,1,,,,,,400,NW,UN,50,mustil,WEAROX,z,,,,,,0.753381894,-0.160770031,0,0,0,,0,192,192,459,1,,
,,,,,,,,,,,,,,,,,,5e7902515312ee4a99c22e53,2020-08-10_18h18.48.419,lexical_decision_task_MP,2020.1.3,Win32,60,m,1,0.495325,,,,,,,,0.495325,1,,,,,,199,WORD,"ID",33,invoke,INVOKE,m,,,,,,0.753381894,-0.160770031,0,0,0,,0,193,193,18,1,,
,,,,,,,,,,,,,,,,,,5e7902515312ee4a99c22e53,2020-08-10_18h18.48.419,lexical_decision_task_MP,2020.1.3,Win32,60,m,1,0.521655,,,,,,,,0.521655,1,,,,,,42,WORD,"ID",50,chapel,CHAPEL,m,,,,,,0.753381894,-0.160770031,0,0,0,,0,194,194,101,1,,
,,,,,,,,,,,,,,,,,,5e7902515312ee4a99c22e53,2020-08-10_18h18.48.419,lexical_decision_task_MP,2020.1.3,Win32,60,m,1,0.48888,,,,,,,,0.48888,1,,,,,,140,WORD,UN,50,chrome,PRINCE,m,,,,,,0.753381894,-0.160770031,0,0,0,,0,195,195,199,1,,
,,,,,,,,,,,,,,,,,,5e7902515312ee4a99c22e53,2020-08-10_18h18.48.419,lexical_decision_task_MP,2020.1.3,Win32,60,m,1,0.52665,,,,,,,,0.52665,1,,,,,,234,WORD,"ID",33,clumsy,CLUMSY,m,,,,,,0.753381894,-0.160770031,0,0,0,,0,196,196,53,1,,
,,,,,,,,,,,,,,,,,,5e7902515312ee4a99c22e53,2020-08-10_18h18.48.419,lexical_decision_task_MP,2020.1.3,Win32,60,z,1,0.616995,,,,,,,,0.616995,1,,,,,,371,NW,UN,50,ramily,GEILOY,z,,,,,,0.753381894,-0.160770031,0,0,0,,0,197,197,430,1,,
,,,,,,,,,,,,,,,,,,5e7902515312ee4a99c22e53,2020-08-10_18h18.48.419,lexical_decision_task_MP,2020.1.3,Win32,60,z,1,0.591005,,,,,,,,0.591005,1,,,,,,252,NW,"ID",50,stapod,STAPOD,z,,,,,,0.753381894,-0.160770031,0,0,0,,0,198,198,311,1,,
,,,,,,,,,,,,,,,,,,5e7902515312ee4a99c22e53,2020-08-10_18h18.48.419,lexical_decision_task_MP,2020.1.3,Win32,60,m,1,0.578,,,,,,,,0.578,1,,,,,,227,WORD,"ID",33,seldom,SELDOM,m,,,,,,0.753381894,-0.160770031,0,0,0,,0,199,199,46,1,,
,,,,,,,,,,,,,,,,,,5e7902515312ee4a99c22e53,2020-08-10_18h18.48.419,lexical_decision_task_MP,2020.1.3,Win32,60,z,1,0.79972,,,,,,,,0.79972,1,,,,,,449,NW,"ID",33,brunge,BRUNGE,z,,,,,,0.753381894,-0.160770031,0,0,0,,0,200,200,268,1,,
,,,,,,,,,,,,,,,,,,5e7902515312ee4a99c22e53,2020-08-10_18h18.48.419,lexical_decision_task_MP,2020.1.3,Win32,60,z,1,0.51674,,,,,,,,0.51674,1,,,,,,309,NW,UN,33,daniet,AMILOY,z,,,,,,0.753381894,-0.160770031,0,0,0,,0,201,201,368,1,,
,,,,,,,,,,,,,,,,,,5e7902515312ee4a99c22e53,2020-08-10_18h18.48.419,lexical_decision_task_MP,2020.1.3,Win32,60,m,1,0.51078,,,,,,,,0.51078,1,,,,,,168,WORD,UN,50,genius,ANSWER,m,,,,,,0.753381894,-0.160770031,0,0,0,,0,202,202,227,1,,
,,,,,,,,,,,,,,,,,,5e7902515312ee4a99c22e53,2020-08-10_18h18.48.419,lexical_decision_task_MP,2020.1.3,Win32,60,m,1,0.65398,,,,,,,,0.65398,1,,,,,,89,WORD,UN,33,relish,PERMIT,m,,,,,,0.753381894,-0.160770031,0,0,0,,0,203,203,148,1,,
,,,,,,,,,,,,,,,,,,5e7902515312ee4a99c22e53,2020-08-10_18h18.48.419,lexical_decision_task_MP,2020.1.3,Win32,60,m,1,0.51928,,,,,,,,0.51928,1,,,,,,87,WORD,UN,33,sprawl,FILTER,m,,,,,,0.753381894,-0.160770031,0,0,0,,0,204,204,146,1,,
,,,,,,,,,,,,,,,,,,5e7902515312ee4a99c22e53,2020-08-10_18h18.48.419,lexical_decision_task_MP,2020.1.3,Win32,60,z,1,0.603405,,,,,,,,0.603405,1,,,,,,253,NW,"ID",50,resait,RESAIT,z,,,,,,0.753381894,-0.160770031,0,0,0,,0,205,205,312,1,,
,,,,,,,,,,,,,,,,,,5e7902515312ee4a99c22e53,2020-08-10_18h18.48.419,lexical_decision_task_MP,2020.1.3,Win32,60,z,1,0.50496,,,,,,,,0.50496,1,,,,,,386,NW,UN,50,gronce,ANCUST,z,,,,,,0.753381894,-0.160770031,0,0,0,,0,206,206,445,1,,
,,,,,,,,,,,,,,,,,,5e7902515312ee4a99c22e53,2020-08-10_18h18.48.419,lexical_decision_task_MP,2020.1.3,Win32,60,z,1,0.61286,,,,,,,,0.61286,1,,,,,,289,NW,"ID",50,starby,STARBY,z,,,,,,0.753381894,-0.160770031,0,0,0,,0,207,207,348,1,,
,,,,,,,,,,,,,,,,,,5e7902515312ee4a99c22e53,2020-08-10_18h18.48.419,lexical_decision_task_MP,2020.1.3,Win32,60,z,1,0.636625,,,,,,,,0.636625,1,,,,,,260,NW,"ID",50,unject,UNJECT,z,,,,,,0.753381894,-0.160770031,0,0,0,,0,208,208,319,1,,
,,,,,,,,,,,,,,,,,,5e7902515312ee4a99c22e53,2020-08-10_18h18.48.419,lexical_decision_task_MP,2020.1.3,Win32,60,z,1,0.714685,,,,,,,,0.714685,1,,,,,,479,NW,"ID",33,lobush,LOBUSH,z,,,,,,0.753381894,-0.160770031,0,0,0,,0,209,209,298,1,,
,,,,,,,,,,,,,,,,,,5e7902515312ee4a99c22e53,2020-08-10_18h18.48.419,lexical_decision_task_MP,2020.1.3,Win32,60,m,1,0.591035,,,,,,,,0.591035,1,,,,,,68,WORD,UN,33,plenty,FUMBLE,m,,,,,,0.753381894,-0.160770031,0,0,0,,0,210,210,127,1,,
,,,,,,,,,,,,,,,,,,5e7902515312ee4a99c22e53,2020-08-10_18h18.48.419,lexical_decision_task_MP,2020.1.3,Win32,60,m,1,0.50163,,,,,,,,0.50163,1,,,,,,79,WORD,UN,33,family,THEORY,m,,,,,,0.753381894,-0.160770031,0,0,0,,0,211,211,138,1,,
,,,,,,,,,,,,,,,,,,5e7902515312ee4a99c22e53,2020-08-10_18h18.48.419,lexical_decision_task_MP,2020.1.3,Win32,60,z,1,0.589065,,,,,,,,0.589065,1,,,,,,273,NW,"ID",50,sortel,SORTEL,z,,,,,,0.753381894,-0.160770031,0,0,0,,0,212,212,332,1,,
,,,,,,,,,,,,,,,,,,5e7902515312ee4a99c22e53,2020-08-10_18h18.48.419,lexical_decision_task_MP,2020.1.3,Win32,60,m,1,0.60145,,,,,,,,0.60145,1,,,,,,53,WORD,"ID",50,police,POLICE,m,,,,,,0.753381894,-0.160770031,0,0,0,,0,213,213,112,1,,
,,,,,,,,,,,,,,,,,,5e7902515312ee4a99c22e53,2020-08-10_18h18.48.419,lexical_decision_task_MP,2020.1.3,Win32,60,m,0,0.47896,,,,,,,,0.47896,0,,,,,,335,NW,UN,33,ghodus,DESION,z,,,,,,0.753381894,-0.160770031,0,0,0,,0,214,214,394,1,,
,,,,,,,,,,,,,,,,,,5e7902515312ee4a99c22e53,2020-08-10_18h18.48.419,lexical_decision_task_MP,2020.1.3,Win32,60,z,1,0.59128,,,,,,,,0.59128,1,,,,,,399,NW,UN,50,wearox,FOURET,z,,,,,,0.753381894,-0.160770031,0,0,0,,0,215,215,458,1,,
,,,,,,,,,,,,,,,,,,5e7902515312ee4a99c22e53,2020-08-10_18h18.48.419,lexical_decision_task_MP,2020.1.3,Win32,60,m,1,0.700235,,,,,,,,0.700235,1,,,,,,144,WORD,UN,50,parish,SPONGE,m,,,,,,0.753381894,-0.160770031,0,0,0,,0,216,216,203,1,,
,,,,,,,,,,,,,,,,,,5e7902515312ee4a99c22e53,2020-08-10_18h18.48.419,lexical_decision_task_MP,2020.1.3,Win32,60,z,1,0.494325,,,,,,,,0.494325,1,,,,,,414,NW,UN,50,higsta,SERBOL,z,,,,,,0.753381894,-0.160770031,0,0,0,,0,217,217,473,1,,
,,,,,,,,,,,,,,,,,,5e7902515312ee4a99c22e53,2020-08-10_18h18.48.419,lexical_decision_task_MP,2020.1.3,Win32,60,z,1,0.53057,,,,,,,,0.53057,1,,,,,,244,NW,"ID",50,eatric,EATRIC,z,,,,,,0.753381894,-0.160770031,0,0,0,,0,218,218,303,1,,
,,,,,,,,,,,,,,,,,,5e7902515312ee4a99c22e53,2020-08-10_18h18.48.419,lexical_decision_task_MP,2020.1.3,Win32,60,m,1,0.55017,,,,,,,,0.55017,1,,,,,,226,WORD,"ID",33,casino,CASINO,m,,,,,,0.753381894,-0.160770031,0,0,0,,0,219,219,45,1,,
,,,,,,,,,,,,,,,,,,5e7902515312ee4a99c22e53,2020-08-10_18h18.48.419,lexical_decision_task_MP,2020.1.3,Win32,60,z,1,0.734765,,,,,,,,0.734765,1,,,,,,281,NW,"ID",50,melaty,MELATY,z,,,,,,0.753381894,-0.160770031,0,0,0,,0,220,220,340,1,,
,,,,,,,,,,,,,,,,,,5e7902515312ee4a99c22e53,2020-08-10_18h18.48.419,lexical_decision_task_MP,2020.1.3,Win32,60,m,1,0.5719,,,,,,,,0.5719,1,,,,,,219,WORD,"ID",33,bucket,BUCKET,m,,,,,,0.753381894,-0.160770031,0,0,0,,0,221,221,38,1,,
,,,,,,,,,,,,,,,,,,5e7902515312ee4a99c22e53,2020-08-10_18h18.48.419,lexical_decision_task_MP,2020.1.3,Win32,60,z,1,0.52227,,,,,,,,0.52227,1,,,,,,434,NW,"ID",33,pitrom,PITROM,z,,,,,,0.753381894,-0.160770031,0,0,0,,0,222,222,253,1,,
,,,,,,,,,,,,,,,,,,5e7902515312ee4a99c22e53,2020-08-10_18h18.48.419,lexical_decision_task_MP,2020.1.3,Win32,60,z,1,0.484275,,,,,,,,0.484275,1,,,,,,465,NW,"ID",33,whivex,WHIVEX,z,,,,,,0.753381894,-0.160770031,0,0,0,,0,223,223,284,1,,
,,,,,,,,,,,,,,,,,,5e7902515312ee4a99c22e53,2020-08-10_18h18.48.419,lexical_decision_task_MP,2020.1.3,Win32,60,z,0,0.458365,,,,,,,,0.458365,0,,,,,,50,WORD,"ID",50,snatch,SNATCH,m,,,,,,0.753381894,-0.160770031,0,0,0,,0,224,224,109,1,,
,,,,,,,,,,,,,,,,,,5e7902515312ee4a99c22e53,2020-08-10_18h18.48.419,lexical_decision_task_MP,2020.1.3,Win32,60,m,1,0.593045,,,,,,,,0.593045,1,,,,,,13,WORD,"ID",50,strive,STRIVE,m,,,,,,0.753381894,-0.160770031,0,0,0,,0,225,225,72,1,,
,,,,,,,,,,,,,,,,,,5e7902515312ee4a99c22e53,2020-08-10_18h18.48.419,lexical_decision_task_MP,2020.1.3,Win32,60,m,1,0.52037,,,,,,,,0.52037,1,,,,,,134,WORD,UN,50,import,STAPLE,m,,,,,,0.753381894,-0.160770031,0,0,0,,0,226,226,193,1,,
,,,,,,,,,,,,,,,,,,5e7902515312ee4a99c22e53,2020-08-10_18h18.48.419,lexical_decision_task_MP,2020.1.3,Win32,60,m,1,0.524615,,,,,,,,0.524615,1,,,,,,176,WORD,UN,50,advent,STRIFE,m,,,,,,0.753381894,-0.160770031,0,0,0,,0,227,227,235,1,,
,,,,,,,,,,,,,,,,,,5e7902515312ee4a99c22e53,2020-08-10_18h18.48.419,lexical_decision_task_MP,2020.1.3,Win32,60,m,1,0.401195,,,,,,,,0.401195,1,,,,,,32,WORD,"ID",50,buckle,BUCKLE,m,,,,,,0.753381894,-0.160770031,0,0,0,,0,228,228,91,1,,
,,,,,,,,,,,,,,,,,,5e7902515312ee4a99c22e53,2020-08-10_18h18.48.419,lexical_decision_task_MP,2020.1.3,Win32,60,z,1,0.66443,,,,,,,,0.66443,1,,,,,,398,NW,UN,50,fouret,BLUNDE,z,,,,,,0.753381894,-0.160770031,0,0,0,,0,229,229,457,1,,
,,,,,,,,,,,,,,,,,,5e7902515312ee4a99c22e53,2020-08-10_18h18.48.419,lexical_decision_task_MP,2020.1.3,Win32,60,m,1,0.56836,,,,,,,,0.56836,1,,,,,,192,WORD,"ID",33,plague,PLAGUE,m,,,,,,0.753381894,-0.160770031,0,0,0,,0,230,230,11,1,,
,,,,,,,,,,,,,,,,,,5e7902515312ee4a99c22e53,2020-08-10_18h18.48.419,lexical_decision_task_MP,2020.1.3,Win32,60,m,1,0.530105,,,,,,,,0.530105,1,,,,,,186,WORD,"ID",33,portal,PORTAL,m,,,,,,0.753381894,-0.160770031,0,0,0,,0,231,231,5,1,,
,,,,,,,,,,,,,,,,,,5e7902515312ee4a99c22e53,2020-08-10_18h18.48.419,lexical_decision_task_MP,2020.1.3,Win32,60,z,1,0.769935,,,,,,,,0.769935,1,,,,,,438,NW,"ID",33,baitch,BAITCH,z,,,,,,0.753381894,-0.160770031,0,0,0,,0,232,232,257,1,,
,,,,,,,,,,,,,,,,,,5e7902515312ee4a99c22e53,2020-08-10_18h18.48.419,lexical_decision_task_MP,2020.1.3,Win32,60,z,1,0.55696,,,,,,,,0.55696,1,,,,,,418,NW,UN,50,slount,SUIDLE,z,,,,,,0.753381894,-0.160770031,0,0,0,,0,233,233,477,1,,
,,,,,,,,,,,,,,,,,,5e7902515312ee4a99c22e53,2020-08-10_18h18.48.419,lexical_decision_task_MP,2020.1.3,Win32,60,z,1,0.606615,,,,,,,,0.606615,1,,,,,,370,NW,UN,50,geiloy,SLEACT,z,,,,,,0.753381894,-0.160770031,0,0,0,,0,234,234,429,1,,
,,,,,,,,,,,,,,,,,,5e7902515312ee4a99c22e53,2020-08-10_18h18.48.419,lexical_decision_task_MP,2020.1.3,Win32,60,m,1,0.602135,,,,,,,,0.602135,1,,,,,,172,WORD,UN,50,shower,PATROL,m,,,,,,0.753381894,-0.160770031,0,0,0,,0,235,235,231,1,,
,,,,,,,,,,,,,,,,,,5e7902515312ee4a99c22e53,2020-08-10_18h18.48.419,lexical_decision_task_MP,2020.1.3,Win32,60,z,0,0.654965,,,,,,,,0.654965,0,,,,,,161,WORD,UN,50,candle,PASTOR,m,,,,,,0.753381894,-0.160770031,0,0,0,,0,236,236,220,1,,
,,,,,,,,,,,,,,,,,,5e7902515312ee4a99c22e53,2020-08-10_18h18.48.419,lexical_decision_task_MP,2020.1.3,Win32,60,m,1,0.69298,,,,,,,,0.69298,1,,,,,,209,WORD,"ID",33,search,SEARCH,m,,,,,,0.753381894,-0.160770031,0,0,0,,0,237,237,28,1,,
,,,,,,,,,,,,,,,,,,5e7902515312ee4a99c22e53,2020-08-10_18h18.48.419,lexical_decision_task_MP,2020.1.3,Win32,60,z,1,0.75235,,,,,,,,0.75235,1,,,,,,348,NW,UN,33,asylen,DUMPLE,z,,,,,,0.753381894,-0.160770031,0,0,0,,0,238,238,407,1,,
,,,,,,,,,,,,,,,,,,5e7902515312ee4a99c22e53,2020-08-10_18h18.48.419,lexical_decision_task_MP,2020.1.3,Win32,60,m,1,0.585315,,,,,,,,0.585315,1,,,,,,236,WORD,"ID",33,pirate,PIRATE,m,,,,,,0.753381894,-0.160770031,0,0,0,,0,239,239,55,1,,
,,,,,,,,,,,,,,,,,,5e7902515312ee4a99c22e53,2020-08-10_18h18.48.419,lexical_decision_task_MP,2020.1.3,Win32,60,m,1,0.553465,,,,,,,,0.553465,1,,,,,,121,WORD,UN,50,linger,THRIVE,m,,,,,,0.753381894,-0.160770031,0,0,0,,0,240,240,180,1,,
,,,,,,,,,,,,,,,,,,5e7902515312ee4a99c22e53,2020-08-10_18h18.48.419,lexical_decision_task_MP,2020.1.3,Win32,60,m,1,0.58131,,,,,,,,0.58131,1,,,,,,78,WORD,UN,33,theory,COLUMN,m,,,,,,0.062434964,-0.395941727,1,0,0,,0,241,241,137,1,,break_done_button
,,,,,,,,,,,,,,,,,,5e7902515312ee4a99c22e53,2020-08-10_18h18.48.419,lexical_decision_task_MP,2020.1.3,Win32,60,z,1,1.09769,,,,,,,,1.09769,1,,,,,,362,NW,UN,50,breali,TIREAU,z,,,,,,0.452653486,0.01508845,0,0,0,,0,242,242,421,1,,
,,,,,,,,,,,,,,,,,,5e7902515312ee4a99c22e53,2020-08-10_18h18.48.419,lexical_decision_task_MP,2020.1.3,Win32,60,z,0,0.50024,,,,,,,,0.50024,0,,,,,,175,WORD,UN,50,strife,FABRIC,m,,,,,,0.452653486,0.01508845,0,0,0,,0,243,243,234,1,,
,,,,,,,,,,,,,,,,,,5e7902515312ee4a99c22e53,2020-08-10_18h18.48.419,lexical_decision_task_MP,2020.1.3,Win32,60,z,1,0.635895,,,,,,,,0.635895,1,,,,,,447,NW,"ID",33,gircue,GIRCUE,z,,,,,,0.452653486,0.01508845,0,0,0,,0,244,244,266,1,,
,,,,,,,,,,,,,,,,,,5e7902515312ee4a99c22e53,2020-08-10_18h18.48.419,lexical_decision_task_MP,2020.1.3,Win32,60,z,1,0.47226,,,,,,,,0.47226,1,,,,,,396,NW,UN,50,camble,FLENGY,z,,,,,,0.452653486,0.01508845,0,0,0,,0,245,245,455,1,,
,,,,,,,,,,,,,,,,,,5e7902515312ee4a99c22e53,2020-08-10_18h18.48.419,lexical_decision_task_MP,2020.1.3,Win32,60,m,1,0.45985,,,,,,,,0.45985,1,,,,,,15,WORD,"ID",50,amount,AMOUNT,m,,,,,,0.452653486,0.01508845,0,0,0,,0,246,246,74,1,,
,,,,,,,,,,,,,,,,,,5e7902515312ee4a99c22e53,2020-08-10_18h18.48.419,lexical_decision_task_MP,2020.1.3,Win32,60,m,1,0.48067,,,,,,,,0.48067,1,,,,,,21,WORD,"ID",50,simple,SIMPLE,m,,,,,,0.452653486,0.01508845,0,0,0,,0,247,247,80,1,,
,,,,,,,,,,,,,,,,,,5e7902515312ee4a99c22e53,2020-08-10_18h18.48.419,lexical_decision_task_MP,2020.1.3,Win32,60,m,1,0.54783,,,,,,,,0.54783,1,,,,,,14,WORD,"ID",50,almost,ALMOST,m,,,,,,0.452653486,0.01508845,0,0,0,,0,248,248,73,1,,
,,,,,,,,,,,,,,,,,,5e7902515312ee4a99c22e53,2020-08-10_18h18.48.419,lexical_decision_task_MP,2020.1.3,Win32,60,m,1,0.63316,,,,,,,,0.63316,1,,,,,,105,WORD,UN,33,ransom,NUMBER,m,,,,,,0.452653486,0.01508845,0,0,0,,0,249,249,164,1,,
,,,,,,,,,,,,,,,,,,5e7902515312ee4a99c22e53,2020-08-10_18h18.48.419,lexical_decision_task_MP,2020.1.3,Win32,60,m,1,0.53318,,,,,,,,0.53318,1,,,,,,171,WORD,UN,50,patrol,DEPART,m,,,,,,0.452653486,0.01508845,0,0,0,,0,250,250,230,1,,
,,,,,,,,,,,,,,,,,,5e7902515312ee4a99c22e53,2020-08-10_18h18.48.419,lexical_decision_task_MP,2020.1.3,Win32,60,z,1,0.73105,,,,,,,,0.73105,1,,,,,,464,NW,"ID",33,chaite,CHAITE,z,,,,,,0.452653486,0.01508845,0,0,0,,0,251,251,283,1,,
,,,,,,,,,,,,,,,,,,5e7902515312ee4a99c22e53,2020-08-10_18h18.48.419,lexical_decision_task_MP,2020.1.3,Win32,60,z,1,0.570365,,,,,,,,0.570365,1,,,,,,433,NW,"ID",33,drance,DRANCE,z,,,,,,0.452653486,0.01508845,0,0,0,,0,252,252,252,1,,
,,,,,,,,,,,,,,,,,,5e7902515312ee4a99c22e53,2020-08-10_18h18.48.419,lexical_decision_task_MP,2020.1.3,Win32,60,z,0,0.50485,,,,,,,,0.50485,0,,,,,,142,WORD,UN,50,reason,SPRUCE,m,,,,,,0.452653486,0.01508845,0,0,0,,0,253,253,201,1,,
,,,,,,,,,,,,,,,,,,5e7902515312ee4a99c22e53,2020-08-10_18h18.48.419,lexical_decision_task_MP,2020.1.3,Win32,60,m,1,0.628775,,,,,,,,0.628775,1,,,,,,94,WORD,UN,33,thread,TRAVEL,m,,,,,,0.452653486,0.01508845,0,0,0,,0,254,254,153,1,,
,,,,,,,,,,,,,,,,,,5e7902515312ee4a99c22e53,2020-08-10_18h18.48.419,lexical_decision_task_MP,2020.1.3,Win32,60,m,1,0.508415,,,,,,,,0.508415,1,,,,,,63,WORD,UN,33,throne,LAUNCH,m,,,,,,0.452653486,0.01508845,0,0,0,,0,255,255,122,1,,
,,,,,,,,,,,,,,,,,,5e7902515312ee4a99c22e53,2020-08-10_18h18.48.419,lexical_decision_task_MP,2020.1.3,Win32,60,m,1,0.520845,,,,,,,,0.520845,1,,,,,,206,WORD,"ID",33,tailor,TAILOR,m,,,,,,0.452653486,0.01508845,0,0,0,,0,256,256,25,1,,
,,,,,,,,,,,,,,,,,,5e7902515312ee4a99c22e53,2020-08-10_18h18.48.419,lexical_decision_task_MP,2020.1.3,Win32,60,z,1,0.663035,,,,,,,,0.663035,1,,,,,,279,NW,"ID",50,celond,CELOND,z,,,,,,0.452653486,0.01508845,0,0,0,,0,257,257,338,1,,
,,,,,,,,,,,,,,,,,,5e7902515312ee4a99c22e53,2020-08-10_18h18.48.419,lexical_decision_task_MP,2020.1.3,Win32,60,m,1,0.53426,,,,,,,,0.53426,1,,,,,,67,WORD,UN,33,fumble,POLICY,m,,,,,,0.452653486,0.01508845,0,0,0,,0,258,258,126,1,,
,,,,,,,,,,,,,,,,,,5e7902515312ee4a99c22e53,2020-08-10_18h18.48.419,lexical_decision_task_MP,2020.1.3,Win32,60,m,1,0.551335,,,,,,,,0.551335,1,,,,,,185,WORD,"ID",33,bother,BOTHER,m,,,,,,0.452653486,0.01508845,0,0,0,,0,259,259,4,1,,
,,,,,,,,,,,,,,,,,,5e7902515312ee4a99c22e53,2020-08-10_18h18.48.419,lexical_decision_task_MP,2020.1.3,Win32,60,m,1,0.482945,,,,,,,,0.482945,1,,,,,,101,WORD,UN,33,direct,WRENCH,m,,,,,,0.452653486,0.01508845,0,0,0,,0,260,260,160,1,,
,,,,,,,,,,,,,,,,,,5e7902515312ee4a99c22e53,2020-08-10_18h18.48.419,lexical_decision_task_MP,2020.1.3,Win32,60,z,1,0.59078,,,,,,,,0.59078,1,,,,,,385,NW,UN,50,ancust,VEIGMA,z,,,,,,0.452653486,0.01508845,0,0,0,,0,261,261,444,1,,
,,,,,,,,,,,,,,,,,,5e7902515312ee4a99c22e53,2020-08-10_18h18.48.419,lexical_decision_task_MP,2020.1.3,Win32,60,z,1,1.064255,,,,,,,,1.064255,1,,,,,,316,NW,UN,33,worbal,SCREGM,z,,,,,,0.452653486,0.01508845,0,0,0,,0,262,262,375,1,,
,,,,,,,,,,,,,,,,,,5e7902515312ee4a99c22e53,2020-08-10_18h18.48.419,lexical_decision_task_MP,2020.1.3,Win32,60,z,1,0.672225,,,,,,,,0.672225,1,,,,,,311,NW,UN,33,nerawl,SPROLY,z,,,,,,0.452653486,0.01508845,0,0,0,,0,263,263,370,1,,
,,,,,,,,,,,,,,,,,,5e7902515312ee4a99c22e53,2020-08-10_18h18.48.419,lexical_decision_task_MP,2020.1.3,Win32,60,z,1,0.639815,,,,,,,,0.639815,1,,,,,,425,NW,"ID",33,frudge,FRUDGE,z,,,,,,0.452653486,0.01508845,0,0,0,,0,264,264,244,1,,
,,,,,,,,,,,,,,,,,,5e7902515312ee4a99c22e53,2020-08-10_18h18.48.419,lexical_decision_task_MP,2020.1.3,Win32,60,m,1,0.970265,,,,,,,,0.970265,1,,,,,,122,WORD,UN,50,strike,LINGER,m,,,,,,0.452653486,0.01508845,0,0,0,,0,265,265,181,1,,
,,,,,,,,,,,,,,,,,,5e7902515312ee4a99c22e53,2020-08-10_18h18.48.419,lexical_decision_task_MP,2020.1.3,Win32,60,m,1,0.583675,,,,,,,,0.583675,1,,,,,,200,WORD,"ID",33,beacon,BEACON,m,,,,,,0.452653486,0.01508845,0,0,0,,0,266,266,19,1,,
,,,,,,,,,,,,,,,,,,5e7902515312ee4a99c22e53,2020-08-10_18h18.48.419,lexical_decision_task_MP,2020.1.3,Win32,60,z,0,0.634345,,,,,,,,0.634345,0,,,,,,4,WORD,"ID",50,trench,TRENCH,m,,,,,,0.452653486,0.01508845,0,0,0,,0,267,267,63,1,,
,,,,,,,,,,,,,,,,,,5e7902515312ee4a99c22e53,2020-08-10_18h18.48.419,lexical_decision_task_MP,2020.1.3,Win32,60,z,1,0.49537,,,,,,,,0.49537,1,,,,,,427,NW,"ID",33,schind,SCHIND,z,,,,,,0.452653486,0.01508845,0,0,0,,0,268,268,246,1,,
,,,,,,,,,,,,,,,,,,5e7902515312ee4a99c22e53,2020-08-10_18h18.48.419,lexical_decision_task_MP,2020.1.3,Win32,60,m,1,0.728125,,,,,,,,0.728125,1,,,,,,235,WORD,"ID",33,grumpy,GRUMPY,m,,,,,,0.452653486,0.01508845,0,0,0,,0,269,269,54,1,,
,,,,,,,,,,,,,,,,,,5e7902515312ee4a99c22e53,2020-08-10_18h18.48.419,lexical_decision_task_MP,2020.1.3,Win32,60,m,1,0.45408,,,,,,,,0.45408,1,,,,,,28,WORD,"ID",50,comedy,COMEDY,m,,,,,,0.452653486,0.01508845,0,0,0,,0,270,270,87,1,,
,,,,,,,,,,,,,,,,,,5e7902515312ee4a99c22e53,2020-08-10_18h18.48.419,lexical_decision_task_MP,2020.1.3,Win32,60,m,1,0.497185,,,,,,,,0.497185,1,,,,,,148,WORD,UN,50,invade,CUSTOM,m,,,,,,0.452653486,0.01508845,0,0,0,,0,271,271,207,1,,
,,,,,,,,,,,,,,,,,,5e7902515312ee4a99c22e53,2020-08-10_18h18.48.419,lexical_decision_task_MP,2020.1.3,Win32,60,z,1,0.60787,,,,,,,,0.60787,1,,,,,,325,NW,UN,33,iguade,THRUSE,z,,,,,,0.452653486,0.01508845,0,0,0,,0,272,272,384,1,,
,,,,,,,,,,,,,,,,,,5e7902515312ee4a99c22e53,2020-08-10_18h18.48.419,lexical_decision_task_MP,2020.1.3,Win32,60,m,0,0.464035,,,,,,,,0.464035,0,,,,,,454,NW,"ID",33,scouge,SCOUGE,z,,,,,,0.452653486,0.01508845,0,0,0,,0,273,273,273,1,,
,,,,,,,,,,,,,,,,,,5e7902515312ee4a99c22e53,2020-08-10_18h18.48.419,lexical_decision_task_MP,2020.1.3,Win32,60,z,1,0.58688,,,,,,,,0.58688,1,,,,,,272,NW,"ID",50,damilt,DAMILT,z,,,,,,0.452653486,0.01508845,0,0,0,,0,274,274,331,1,,
,,,,,,,,,,,,,,,,,,5e7902515312ee4a99c22e53,2020-08-10_18h18.48.419,lexical_decision_task_MP,2020.1.3,Win32,60,m,1,0.830925,,,,,,,,0.830925,1,,,,,,111,WORD,UN,33,breath,INDUCE,m,,,,,,0.452653486,0.01508845,0,0,0,,0,275,275,170,1,,
,,,,,,,,,,,,,,,,,,5e7902515312ee4a99c22e53,2020-08-10_18h18.48.419,lexical_decision_task_MP,2020.1.3,Win32,60,m,0,0.720045,,,,,,,,0.720045,0,,,,,,413,NW,UN,50,serbol,EQUATS,z,,,,,,0.452653486,0.01508845,0,0,0,,0,276,276,472,1,,
,,,,,,,,,,,,,,,,,,5e7902515312ee4a99c22e53,2020-08-10_18h18.48.419,lexical_decision_task_MP,2020.1.3,Win32,60,m,1,0.74224,,,,,,,,0.74224,1,,,,,,116,WORD,UN,33,branch,TUMBLE,m,,,,,,0.452653486,0.01508845,0,0,0,,0,277,277,175,1,,
,,,,,,,,,,,,,,,,,,5e7902515312ee4a99c22e53,2020-08-10_18h18.48.419,lexical_decision_task_MP,2020.1.3,Win32,60,m,1,0.556845,,,,,,,,0.556845,1,,,,,,29,WORD,"ID",50,sketch,SKETCH,m,,,,,,0.452653486,0.01508845,0,0,0,,0,278,278,88,1,,
,,,,,,,,,,,,,,,,,,5e7902515312ee4a99c22e53,2020-08-10_18h18.48.419,lexical_decision_task_MP,2020.1.3,Win32,60,z,1,0.546295,,,,,,,,0.546295,1,,,,,,405,NW,UN,50,nouply,FLUMNI,z,,,,,,0.452653486,0.01508845,0,0,0,,0,279,279,464,1,,
,,,,,,,,,,,,,,,,,,5e7902515312ee4a99c22e53,2020-08-10_18h18.48.419,lexical_decision_task_MP,2020.1.3,Win32,60,z,1,0.563785,,,,,,,,0.563785,1,,,,,,333,NW,UN,33,watmeg,CATRIE,z,,,,,,0.452653486,0.01508845,0,0,0,,0,280,280,392,1,,
,,,,,,,,,,,,,,,,,,5e7902515312ee4a99c22e53,2020-08-10_18h18.48.419,lexical_decision_task_MP,2020.1.3,Win32,60,m,1,0.541285,,,,,,,,0.541285,1,,,,,,18,WORD,"ID",50,humble,HUMBLE,m,,,,,,0.452653486,0.01508845,0,0,0,,0,281,281,77,1,,
,,,,,,,,,,,,,,,,,,5e7902515312ee4a99c22e53,2020-08-10_18h18.48.419,lexical_decision_task_MP,2020.1.3,Win32,60,z,1,0.63304,,,,,,,,0.63304,1,,,,,,342,NW,UN,33,aimosy,RANDOW,z,,,,,,0.452653486,0.01508845,0,0,0,,0,282,282,401,1,,
,,,,,,,,,,,,,,,,,,5e7902515312ee4a99c22e53,2020-08-10_18h18.48.419,lexical_decision_task_MP,2020.1.3,Win32,60,m,1,0.600335,,,,,,,,0.600335,1,,,,,,75,WORD,UN,33,exotic,TROPHY,m,,,,,,0.452653486,0.01508845,0,0,0,,0,283,283,134,1,,
,,,,,,,,,,,,,,,,,,5e7902515312ee4a99c22e53,2020-08-10_18h18.48.419,lexical_decision_task_MP,2020.1.3,Win32,60,z,1,0.616845,,,,,,,,0.616845,1,,,,,,339,NW,UN,33,fiatch,FACHOW,z,,,,,,0.452653486,0.01508845,0,0,0,,0,284,284,398,1,,
,,,,,,,,,,,,,,,,,,5e7902515312ee4a99c22e53,2020-08-10_18h18.48.419,lexical_decision_task_MP,2020.1.3,Win32,60,m,1,0.48028,,,,,,,,0.48028,1,,,,,,56,WORD,"ID",50,ambush,AMBUSH,m,,,,,,0.452653486,0.01508845,0,0,0,,0,285,285,115,1,,
,,,,,,,,,,,,,,,,,,5e7902515312ee4a99c22e53,2020-08-10_18h18.48.419,lexical_decision_task_MP,2020.1.3,Win32,60,z,1,0.747195,,,,,,,,0.747195,1,,,,,,299,NW,"ID",50,sturch,STURCH,z,,,,,,0.452653486,0.01508845,0,0,0,,0,286,286,358,1,,
,,,,,,,,,,,,,,,,,,5e7902515312ee4a99c22e53,2020-08-10_18h18.48.419,lexical_decision_task_MP,2020.1.3,Win32,60,m,1,0.600195,,,,,,,,0.600195,1,,,,,,23,WORD,"ID",50,wealth,WEALTH,m,,,,,,0.452653486,0.01508845,0,0,0,,0,287,287,82,1,,
,,,,,,,,,,,,,,,,,,5e7902515312ee4a99c22e53,2020-08-10_18h18.48.419,lexical_decision_task_MP,2020.1.3,Win32,60,z,1,1.14723,,,,,,,,1.14723,1,,,,,,392,NW,UN,50,ganous,ROUNCY,z,,,,,,0.452653486,0.01508845,0,0,0,,0,288,288,451,1,,
,,,,,,,,,,,,,,,,,,5e7902515312ee4a99c22e53,2020-08-10_18h18.48.419,lexical_decision_task_MP,2020.1.3,Win32,60,m,1,0.523085,,,,,,,,0.523085,1,,,,,,129,WORD,UN,50,stupid,MARVEL,m,,,,,,0.452653486,0.01508845,0,0,0,,0,289,289,188,1,,
,,,,,,,,,,,,,,,,,,5e7902515312ee4a99c22e53,2020-08-10_18h18.48.419,lexical_decision_task_MP,2020.1.3,Win32,60,m,1,0.504005,,,,,,,,0.504005,1,,,,,,179,WORD,UN,50,silent,BASKET,m,,,,,,0.452653486,0.01508845,0,0,0,,0,290,290,238,1,,
,,,,,,,,,,,,,,,,,,5e7902515312ee4a99c22e53,2020-08-10_18h18.48.419,lexical_decision_task_MP,2020.1.3,Win32,60,m,1,0.55059,,,,,,,,0.55059,1,,,,,,110,WORD,UN,33,induce,POLITE,m,,,,,,0.452653486,0.01508845,0,0,0,,0,291,291,169,1,,
,,,,,,,,,,,,,,,,,,5e7902515312ee4a99c22e53,2020-08-10_18h18.48.419,lexical_decision_task_MP,2020.1.3,Win32,60,m,1,0.47575,,,,,,,,0.47575,1,,,,,,49,WORD,"ID",50,survey,SURVEY,m,,,,,,0.452653486,0.01508845,0,0,0,,0,292,292,108,1,,
,,,,,,,,,,,,,,,,,,5e7902515312ee4a99c22e53,2020-08-10_18h18.48.419,lexical_decision_task_MP,2020.1.3,Win32,60,m,1,0.676605,,,,,,,,0.676605,1,,,,,,215,WORD,"ID",33,phobia,PHOBIA,m,,,,,,0.452653486,0.01508845,0,0,0,,0,293,293,34,1,,
,,,,,,,,,,,,,,,,,,5e7902515312ee4a99c22e53,2020-08-10_18h18.48.419,lexical_decision_task_MP,2020.1.3,Win32,60,z,1,0.636175,,,,,,,,0.636175,1,,,,,,356,NW,UN,33,derain,OTHNIS,z,,,,,,0.452653486,0.01508845,0,0,0,,0,294,294,415,1,,
,,,,,,,,,,,,,,,,,,5e7902515312ee4a99c22e53,2020-08-10_18h18.48.419,lexical_decision_task_MP,2020.1.3,Win32,60,z,1,0.563435,,,,,,,,0.563435,1,,,,,,375,NW,UN,50,iguare,YORQUE,z,,,,,,0.452653486,0.01508845,0,0,0,,0,295,295,434,1,,
,,,,,,,,,,,,,,,,,,5e7902515312ee4a99c22e53,2020-08-10_18h18.48.419,lexical_decision_task_MP,2020.1.3,Win32,60,z,1,0.626845,,,,,,,,0.626845,1,,,,,,469,NW,"ID",33,padifs,PADIFS,z,,,,,,0.452653486,0.01508845,0,0,0,,0,296,296,288,1,,
,,,,,,,,,,,,,,,,,,5e7902515312ee4a99c22e53,2020-08-10_18h18.48.419,lexical_decision_task_MP,2020.1.3,Win32,60,m,1,0.459745,,,,,,,,0.459745,1,,,,,,27,WORD,"ID",50,scream,SCREAM,m,,,,,,0.452653486,0.01508845,0,0,0,,0,297,297,86,1,,
,,,,,,,,,,,,,,,,,,5e7902515312ee4a99c22e53,2020-08-10_18h18.48.419,lexical_decision_task_MP,2020.1.3,Win32,60,z,1,0.65777,,,,,,,,0.65777,1,,,,,,473,NW,"ID",33,crible,CRIBLE,z,,,,,,0.452653486,0.01508845,0,0,0,,0,298,298,292,1,,
,,,,,,,,,,,,,,,,,,5e7902515312ee4a99c22e53,2020-08-10_18h18.48.419,lexical_decision_task_MP,2020.1.3,Win32,60,z,1,0.53927,,,,,,,,0.53927,1,,,,,,463,NW,"ID",33,kispel,KISPEL,z,,,,,,0.452653486,0.01508845,0,0,0,,0,299,299,282,1,,
,,,,,,,,,,,,,,,,,,5e7902515312ee4a99c22e53,2020-08-10_18h18.48.419,lexical_decision_task_MP,2020.1.3,Win32,60,m,1,0.510465,,,,,,,,0.510465,1,,,,,,233,WORD,"ID",33,nature,NATURE,m,,,,,,0.452653486,0.01508845,0,0,0,,0,300,300,52,1,,
,,,,,,,,,,,,,,,,,,5e7902515312ee4a99c22e53,2020-08-10_18h18.48.419,lexical_decision_task_MP,2020.1.3,Win32,60,m,1,0.54019,,,,,,,,0.54019,1,,,,,,169,WORD,UN,50,pounce,GENIUS,m,,,,,,0.452653486,0.01508845,0,0,0,,0,301,301,228,1,,
,,,,,,,,,,,,,,,,,,5e7902515312ee4a99c22e53,2020-08-10_18h18.48.419,lexical_decision_task_MP,2020.1.3,Win32,60,m,1,0.693475,,,,,,,,0.693475,1,,,,,,37,WORD,"ID",50,insult,INSULT,m,,,,,,0.452653486,0.01508845,0,0,0,,0,302,302,96,1,,
,,,,,,,,,,,,,,,,,,5e7902515312ee4a99c22e53,2020-08-10_18h18.48.419,lexical_decision_task_MP,2020.1.3,Win32,60,m,1,0.528345,,,,,,,,0.528345,1,,,,,,80,WORD,UN,33,friend,FAMILY,m,,,,,,0.452653486,0.01508845,0,0,0,,0,303,303,139,1,,
,,,,,,,,,,,,,,,,,,5e7902515312ee4a99c22e53,2020-08-10_18h18.48.419,lexical_decision_task_MP,2020.1.3,Win32,60,z,0,0.57833,,,,,,,,0.57833,0,,,,,,220,WORD,"ID",33,voyage,VOYAGE,m,,,,,,0.452653486,0.01508845,0,0,0,,0,304,304,39,1,,
,,,,,,,,,,,,,,,,,,5e7902515312ee4a99c22e53,2020-08-10_18h18.48.419,lexical_decision_task_MP,2020.1.3,Win32,60,m,1,0.55619,,,,,,,,0.55619,1,,,,,,163,WORD,UN,50,market,STRING,m,,,,,,0.452653486,0.01508845,0,0,0,,0,305,305,222,1,,
,,,,,,,,,,,,,,,,,,5e7902515312ee4a99c22e53,2020-08-10_18h18.48.419,lexical_decision_task_MP,2020.1.3,Win32,60,z,1,1.05007,,,,,,,,1.05007,1,,,,,,476,NW,"ID",33,josted,JOSTED,z,,,,,,0.452653486,0.01508845,0,0,0,,0,306,306,295,1,,
,,,,,,,,,,,,,,,,,,5e7902515312ee4a99c22e53,2020-08-10_18h18.48.419,lexical_decision_task_MP,2020.1.3,Win32,60,z,1,0.548875,,,,,,,,0.548875,1,,,,,,315,NW,UN,33,scregm,LASTON,z,,,,,,0.452653486,0.01508845,0,0,0,,0,307,307,374,1,,
,,,,,,,,,,,,,,,,,,5e7902515312ee4a99c22e53,2020-08-10_18h18.48.419,lexical_decision_task_MP,2020.1.3,Win32,60,z,1,0.64354,,,,,,,,0.64354,1,,,,,,358,NW,UN,33,fonver,FLEACK,z,,,,,,0.452653486,0.01508845,0,0,0,,0,308,308,417,1,,
,,,,,,,,,,,,,,,,,,5e7902515312ee4a99c22e53,2020-08-10_18h18.48.419,lexical_decision_task_MP,2020.1.3,Win32,60,m,1,0.702475,,,,,,,,0.702475,1,,,,,,107,WORD,UN,33,reckon,SLOGAN,m,,,,,,0.452653486,0.01508845,0,0,0,,0,309,309,166,1,,
,,,,,,,,,,,,,,,,,,5e7902515312ee4a99c22e53,2020-08-10_18h18.48.419,lexical_decision_task_MP,2020.1.3,Win32,60,m,1,0.48374,,,,,,,,0.48374,1,,,,,,159,WORD,UN,50,violet,DETAIL,m,,,,,,0.452653486,0.01508845,0,0,0,,0,310,310,218,1,,
,,,,,,,,,,,,,,,,,,5e7902515312ee4a99c22e53,2020-08-10_18h18.48.419,lexical_decision_task_MP,2020.1.3,Win32,60,z,1,0.583675,,,,,,,,0.583675,1,,,,,,326,NW,UN,33,plenac,IGUADE,z,,,,,,0.452653486,0.01508845,0,0,0,,0,311,311,385,1,,
,,,,,,,,,,,,,,,,,,5e7902515312ee4a99c22e53,2020-08-10_18h18.48.419,lexical_decision_task_MP,2020.1.3,Win32,60,z,1,0.63138,,,,,,,,0.63138,1,,,,,,397,NW,UN,50,blunde,CAMBLE,z,,,,,,0.452653486,0.01508845,0,0,0,,0,312,312,456,1,,
,,,,,,,,,,,,,,,,,,5e7902515312ee4a99c22e53,2020-08-10_18h18.48.419,lexical_decision_task_MP,2020.1.3,Win32,60,z,1,0.473385,,,,,,,,0.473385,1,,,,,,359,NW,UN,33,desory,FONVER,z,,,,,,0.452653486,0.01508845,0,0,0,,0,313,313,418,1,,
,,,,,,,,,,,,,,,,,,5e7902515312ee4a99c22e53,2020-08-10_18h18.48.419,lexical_decision_task_MP,2020.1.3,Win32,60,z,1,1.078505,,,,,,,,1.078505,1,,,,,,314,NW,UN,33,laston,SPRINE,z,,,,,,0.452653486,0.01508845,0,0,0,,0,314,314,373,1,,
,,,,,,,,,,,,,,,,,,5e7902515312ee4a99c22e53,2020-08-10_18h18.48.419,lexical_decision_task_MP,2020.1.3,Win32,60,m,1,0.69567,,,,,,,,0.69567,1,,,,,,170,WORD,UN,50,dragon,POUNCE,m,,,,,,0.452653486,0.01508845,0,0,0,,0,315,315,229,1,,
,,,,,,,,,,,,,,,,,,5e7902515312ee4a99c22e53,2020-08-10_18h18.48.419,lexical_decision_task_MP,2020.1.3,Win32,60,z,1,0.651175,,,,,,,,0.651175,1,,,,,,441,NW,"ID",33,rastoe,RASTOE,z,,,,,,0.452653486,0.01508845,0,0,0,,0,316,316,260,1,,
,,,,,,,,,,,,,,,,,,5e7902515312ee4a99c22e53,2020-08-10_18h18.48.419,lexical_decision_task_MP,2020.1.3,Win32,60,m,1,0.586445,,,,,,,,0.586445,1,,,,,,149,WORD,UN,50,random,INVADE,m,,,,,,0.452653486,0.01508845,0,0,0,,0,317,317,208,1,,
,,,,,,,,,,,,,,,,,,5e7902515312ee4a99c22e53,2020-08-10_18h18.48.419,lexical_decision_task_MP,2020.1.3,Win32,60,m,1,0.628245,,,,,,,,0.628245,1,,,,,,124,WORD,UN,50,nickel,BLOUSE,m,,,,,,0.452653486,0.01508845,0,0,0,,0,318,318,183,1,,
,,,,,,,,,,,,,,,,,,5e7902515312ee4a99c22e53,2020-08-10_18h18.48.419,lexical_decision_task_MP,2020.1.3,Win32,60,z,1,0.588445,,,,,,,,0.588445,1,,,,,,271,NW,"ID",50,aubrid,AUBRID,z,,,,,,0.452653486,0.01508845,0,0,0,,0,319,319,330,1,,
,,,,,,,,,,,,,,,,,,5e7902515312ee4a99c22e53,2020-08-10_18h18.48.419,lexical_decision_task_MP,2020.1.3,Win32,60,z,1,0.612835,,,,,,,,0.612835,1,,,,,,259,NW,"ID",50,soudal,SOUDAL,z,,,,,,0.452653486,0.01508845,0,0,0,,0,320,320,318,1,,
,,,,,,,,,,,,,,,,,,5e7902515312ee4a99c22e53,2020-08-10_18h18.48.419,lexical_decision_task_MP,2020.1.3,Win32,60,z,1,0.49499,,,,,,,,0.49499,1,,,,,,300,NW,"ID",50,yarion,YARION,z,,,,,,0.452653486,0.01508845,0,0,0,,0,321,321,359,1,,
,,,,,,,,,,,,,,,,,,5e7902515312ee4a99c22e53,2020-08-10_18h18.48.419,lexical_decision_task_MP,2020.1.3,Win32,60,m,0,0.72047,,,,,,,,0.72047,0,,,,,,455,NW,"ID",33,tondle,TONDLE,z,,,,,,0.452653486,0.01508845,0,0,0,,0,322,322,274,1,,
,,,,,,,,,,,,,,,,,,5e7902515312ee4a99c22e53,2020-08-10_18h18.48.419,lexical_decision_task_MP,2020.1.3,Win32,60,m,1,0.7502,,,,,,,,0.7502,1,,,,,,230,WORD,"ID",33,fringe,FRINGE,m,,,,,,0.452653486,0.01508845,0,0,0,,0,323,323,49,1,,
,,,,,,,,,,,,,,,,,,5e7902515312ee4a99c22e53,2020-08-10_18h18.48.419,lexical_decision_task_MP,2020.1.3,Win32,60,m,1,0.537915,,,,,,,,0.537915,1,,,,,,136,WORD,UN,50,finger,BLEACH,m,,,,,,0.452653486,0.01508845,0,0,0,,0,324,324,195,1,,
,,,,,,,,,,,,,,,,,,5e7902515312ee4a99c22e53,2020-08-10_18h18.48.419,lexical_decision_task_MP,2020.1.3,Win32,60,z,1,0.77765,,,,,,,,0.77765,1,,,,,,419,NW,UN,50,gushop,SLOUNT,z,,,,,,0.452653486,0.01508845,0,0,0,,0,325,325,478,1,,
,,,,,,,,,,,,,,,,,,5e7902515312ee4a99c22e53,2020-08-10_18h18.48.419,lexical_decision_task_MP,2020.1.3,Win32,60,m,1,0.533895,,,,,,,,0.533895,1,,,,,,125,WORD,UN,50,enough,NICKEL,m,,,,,,0.452653486,0.01508845,0,0,0,,0,326,326,184,1,,
,,,,,,,,,,,,,,,,,,5e7902515312ee4a99c22e53,2020-08-10_18h18.48.419,lexical_decision_task_MP,2020.1.3,Win32,60,z,1,0.612795,,,,,,,,0.612795,1,,,,,,395,NW,UN,50,flengy,COLURY,z,,,,,,0.452653486,0.01508845,0,0,0,,0,327,327,454,1,,
,,,,,,,,,,,,,,,,,,5e7902515312ee4a99c22e53,2020-08-10_18h18.48.419,lexical_decision_task_MP,2020.1.3,Win32,60,z,1,0.60132,,,,,,,,0.60132,1,,,,,,391,NW,UN,50,rouncy,THELDY,z,,,,,,0.452653486,0.01508845,0,0,0,,0,328,328,450,1,,
,,,,,,,,,,,,,,,,,,5e7902515312ee4a99c22e53,2020-08-10_18h18.48.419,lexical_decision_task_MP,2020.1.3,Win32,60,m,1,0.629595,,,,,,,,0.629595,1,,,,,,65,WORD,UN,33,gospel,SYMBOL,m,,,,,,0.452653486,0.01508845,0,0,0,,0,329,329,124,1,,
,,,,,,,,,,,,,,,,,,5e7902515312ee4a99c22e53,2020-08-10_18h18.48.419,lexical_decision_task_MP,2020.1.3,Win32,60,m,1,0.595165,,,,,,,,0.595165,1,,,,,,223,WORD,"ID",33,kidney,KIDNEY,m,,,,,,0.452653486,0.01508845,0,0,0,,0,330,330,42,1,,
,,,,,,,,,,,,,,,,,,5e7902515312ee4a99c22e53,2020-08-10_18h18.48.419,lexical_decision_task_MP,2020.1.3,Win32,60,z,0,0.596035,,,,,,,,0.596035,0,,,,,,212,WORD,"ID",33,verify,VERIFY,m,,,,,,0.452653486,0.01508845,0,0,0,,0,331,331,31,1,,
,,,,,,,,,,,,,,,,,,5e7902515312ee4a99c22e53,2020-08-10_18h18.48.419,lexical_decision_task_MP,2020.1.3,Win32,60,m,0,0.56354,,,,,,,,0.56354,0,,,,,,383,NW,UN,50,guesco,AUNGRE,z,,,,,,0.452653486,0.01508845,0,0,0,,0,332,332,442,1,,
,,,,,,,,,,,,,,,,,,5e7902515312ee4a99c22e53,2020-08-10_18h18.48.419,lexical_decision_task_MP,2020.1.3,Win32,60,z,1,0.84008,,,,,,,,0.84008,1,,,,,,437,NW,"ID",33,snapel,SNAPEL,z,,,,,,0.452653486,0.01508845,0,0,0,,0,333,333,256,1,,
,,,,,,,,,,,,,,,,,,5e7902515312ee4a99c22e53,2020-08-10_18h18.48.419,lexical_decision_task_MP,2020.1.3,Win32,60,m,1,0.716865,,,,,,,,0.716865,1,,,,,,207,WORD,"ID",33,wreath,WREATH,m,,,,,,0.452653486,0.01508845,0,0,0,,0,334,334,26,1,,
,,,,,,,,,,,,,,,,,,5e7902515312ee4a99c22e53,2020-08-10_18h18.48.419,lexical_decision_task_MP,2020.1.3,Win32,60,z,1,0.67689,,,,,,,,0.67689,1,,,,,,295,NW,"ID",50,gleath,GLEATH,z,,,,,,0.452653486,0.01508845,0,0,0,,0,335,335,354,1,,
,,,,,,,,,,,,,,,,,,5e7902515312ee4a99c22e53,2020-08-10_18h18.48.419,lexical_decision_task_MP,2020.1.3,Win32,60,m,1,0.700555,,,,,,,,0.700555,1,,,,,,71,WORD,UN,33,bright,GARDEN,m,,,,,,0.452653486,0.01508845,0,0,0,,0,336,336,130,1,,
,,,,,,,,,,,,,,,,,,5e7902515312ee4a99c22e53,2020-08-10_18h18.48.419,lexical_decision_task_MP,2020.1.3,Win32,60,m,1,0.572875,,,,,,,,0.572875,1,,,,,,61,WORD,UN,33,region,PONDER,m,,,,,,0.452653486,0.01508845,0,0,0,,0,337,337,120,1,,
,,,,,,,,,,,,,,,,,,5e7902515312ee4a99c22e53,2020-08-10_18h18.48.419,lexical_decision_task_MP,2020.1.3,Win32,60,m,1,0.49588,,,,,,,,0.49588,1,,,,,,204,WORD,"ID",33,burden,BURDEN,m,,,,,,0.452653486,0.01508845,0,0,0,,0,338,338,23,1,,
,,,,,,,,,,,,,,,,,,5e7902515312ee4a99c22e53,2020-08-10_18h18.48.419,lexical_decision_task_MP,2020.1.3,Win32,60,z,1,0.550615,,,,,,,,0.550615,1,,,,,,308,NW,UN,33,amiloy,PSETCH,z,,,,,,0.452653486,0.01508845,0,0,0,,0,339,339,367,1,,
,,,,,,,,,,,,,,,,,,5e7902515312ee4a99c22e53,2020-08-10_18h18.48.419,lexical_decision_task_MP,2020.1.3,Win32,60,z,1,0.703205,,,,,,,,0.703205,1,,,,,,306,NW,UN,33,kirafe,SOUNGE,z,,,,,,0.452653486,0.01508845,0,0,0,,0,340,340,365,1,,
,,,,,,,,,,,,,,,,,,5e7902515312ee4a99c22e53,2020-08-10_18h18.48.419,lexical_decision_task_MP,2020.1.3,Win32,60,m,1,0.496385,,,,,,,,0.496385,1,,,,,,190,WORD,"ID",33,backup,BACKUP,m,,,,,,0.452653486,0.01508845,0,0,0,,0,341,341,9,1,,
,,,,,,,,,,,,,,,,,,5e7902515312ee4a99c22e53,2020-08-10_18h18.48.419,lexical_decision_task_MP,2020.1.3,Win32,60,m,1,0.54408,,,,,,,,0.54408,1,,,,,,195,WORD,"ID",33,resign,RESIGN,m,,,,,,0.452653486,0.01508845,0,0,0,,0,342,342,14,1,,
,,,,,,,,,,,,,,,,,,5e7902515312ee4a99c22e53,2020-08-10_18h18.48.419,lexical_decision_task_MP,2020.1.3,Win32,60,m,1,0.53083,,,,,,,,0.53083,1,,,,,,150,WORD,UN,50,mystic,RANDOM,m,,,,,,0.452653486,0.01508845,0,0,0,,0,343,343,209,1,,
,,,,,,,,,,,,,,,,,,5e7902515312ee4a99c22e53,2020-08-10_18h18.48.419,lexical_decision_task_MP,2020.1.3,Win32,60,m,1,0.973535,,,,,,,,0.973535,1,,,,,,45,WORD,"ID",50,clergy,CLERGY,m,,,,,,0.452653486,0.01508845,0,0,0,,0,344,344,104,1,,
,,,,,,,,,,,,,,,,,,5e7902515312ee4a99c22e53,2020-08-10_18h18.48.419,lexical_decision_task_MP,2020.1.3,Win32,60,z,1,0.81849,,,,,,,,0.81849,1,,,,,,423,NW,"ID",33,streld,STRELD,z,,,,,,0.452653486,0.01508845,0,0,0,,0,345,345,242,1,,
,,,,,,,,,,,,,,,,,,5e7902515312ee4a99c22e53,2020-08-10_18h18.48.419,lexical_decision_task_MP,2020.1.3,Win32,60,m,1,0.65882,,,,,,,,0.65882,1,,,,,,196,WORD,"ID",33,credit,CREDIT,m,,,,,,0.452653486,0.01508845,0,0,0,,0,346,346,15,1,,
,,,,,,,,,,,,,,,,,,5e7902515312ee4a99c22e53,2020-08-10_18h18.48.419,lexical_decision_task_MP,2020.1.3,Win32,60,z,1,0.737115,,,,,,,,0.737115,1,,,,,,480,NW,"ID",33,robuly,ROBULY,z,,,,,,0.452653486,0.01508845,0,0,0,,0,347,347,299,1,,
,,,,,,,,,,,,,,,,,,5e7902515312ee4a99c22e53,2020-08-10_18h18.48.419,lexical_decision_task_MP,2020.1.3,Win32,60,m,1,0.5504,,,,,,,,0.5504,1,,,,,,164,WORD,UN,50,invest,MARKET,m,,,,,,0.452653486,0.01508845,0,0,0,,0,348,348,223,1,,
,,,,,,,,,,,,,,,,,,5e7902515312ee4a99c22e53,2020-08-10_18h18.48.419,lexical_decision_task_MP,2020.1.3,Win32,60,m,1,0.60391,,,,,,,,0.60391,1,,,,,,88,WORD,UN,33,permit,HUNGER,m,,,,,,0.452653486,0.01508845,0,0,0,,0,349,349,147,1,,
,,,,,,,,,,,,,,,,,,5e7902515312ee4a99c22e53,2020-08-10_18h18.48.419,lexical_decision_task_MP,2020.1.3,Win32,60,m,1,0.637165,,,,,,,,0.637165,1,,,,,,231,WORD,"ID",33,export,EXPORT,m,,,,,,0.452653486,0.01508845,0,0,0,,0,350,350,50,1,,
,,,,,,,,,,,,,,,,,,5e7902515312ee4a99c22e53,2020-08-10_18h18.48.419,lexical_decision_task_MP,2020.1.3,Win32,60,z,1,0.56259,,,,,,,,0.56259,1,,,,,,436,NW,"ID",33,frutan,FRUTAN,z,,,,,,0.452653486,0.01508845,0,0,0,,0,351,351,255,1,,
,,,,,,,,,,,,,,,,,,5e7902515312ee4a99c22e53,2020-08-10_18h18.48.419,lexical_decision_task_MP,2020.1.3,Win32,60,z,1,0.61256,,,,,,,,0.61256,1,,,,,,354,NW,UN,33,zingly,VIRLEX,z,,,,,,0.452653486,0.01508845,0,0,0,,0,352,352,413,1,,
,,,,,,,,,,,,,,,,,,5e7902515312ee4a99c22e53,2020-08-10_18h18.48.419,lexical_decision_task_MP,2020.1.3,Win32,60,m,1,0.555305,,,,,,,,0.555305,1,,,,,,46,WORD,"ID",50,single,SINGLE,m,,,,,,0.452653486,0.01508845,0,0,0,,0,353,353,105,1,,
,,,,,,,,,,,,,,,,,,5e7902515312ee4a99c22e53,2020-08-10_18h18.48.419,lexical_decision_task_MP,2020.1.3,Win32,60,z,1,0.763025,,,,,,,,0.763025,1,,,,,,286,NW,"ID",50,reldon,RELDON,z,,,,,,0.452653486,0.01508845,0,0,0,,0,354,354,345,1,,
,,,,,,,,,,,,,,,,,,5e7902515312ee4a99c22e53,2020-08-10_18h18.48.419,lexical_decision_task_MP,2020.1.3,Win32,60,z,1,0.64218,,,,,,,,0.64218,1,,,,,,435,NW,"ID",33,impurb,IMPURB,z,,,,,,0.452653486,0.01508845,0,0,0,,0,355,355,254,1,,
,,,,,,,,,,,,,,,,,,5e7902515312ee4a99c22e53,2020-08-10_18h18.48.419,lexical_decision_task_MP,2020.1.3,Win32,60,m,1,0.5345,,,,,,,,0.5345,1,,,,,,81,WORD,UN,33,stigma,FRIEND,m,,,,,,0.452653486,0.01508845,0,0,0,,0,356,356,140,1,,
,,,,,,,,,,,,,,,,,,5e7902515312ee4a99c22e53,2020-08-10_18h18.48.419,lexical_decision_task_MP,2020.1.3,Win32,60,z,1,0.57091,,,,,,,,0.57091,1,,,,,,282,NW,"ID",50,porlex,PORLEX,z,,,,,,0.452653486,0.01508845,0,0,0,,0,357,357,341,1,,
,,,,,,,,,,,,,,,,,,5e7902515312ee4a99c22e53,2020-08-10_18h18.48.419,lexical_decision_task_MP,2020.1.3,Win32,60,m,1,0.716835,,,,,,,,0.716835,1,,,,,,143,WORD,UN,50,sponge,REASON,m,,,,,,0.452653486,0.01508845,0,0,0,,0,358,358,202,1,,
,,,,,,,,,,,,,,,,,,5e7902515312ee4a99c22e53,2020-08-10_18h18.48.419,lexical_decision_task_MP,2020.1.3,Win32,60,m,1,0.784365,,,,,,,,0.784365,1,,,,,,216,WORD,"ID",33,behalf,BEHALF,m,,,,,,0.452653486,0.01508845,0,0,0,,0,359,359,35,1,,
,,,,,,,,,,,,,,,,,,5e7902515312ee4a99c22e53,2020-08-10_18h18.48.419,lexical_decision_task_MP,2020.1.3,Win32,60,m,1,0.49381,,,,,,,,0.49381,1,,,,,,24,WORD,"ID",50,praise,PRAISE,m,,,,,,0.452653486,0.01508845,0,0,0,,0,360,360,83,1,,
,,,,,,,,,,,,,,,,,,5e7902515312ee4a99c22e53,2020-08-10_18h18.48.419,lexical_decision_task_MP,2020.1.3,Win32,60,m,1,0.62947,,,,,,,,0.62947,1,,,,,,64,WORD,UN,33,symbol,THRONE,m,,,,,,0.452653486,0.01508845,0,0,0,,0,361,361,123,1,,
,,,,,,,,,,,,,,,,,,5e7902515312ee4a99c22e53,2020-08-10_18h18.48.419,lexical_decision_task_MP,2020.1.3,Win32,60,m,1,0.435105,,,,,,,,0.435105,1,,,,,,238,WORD,"ID",33,flower,FLOWER,m,,,,,,0.452653486,0.01508845,0,0,0,space,0,362,362,57,1,9.00087,
,,,,,,,,,,,,,,,,,,5e7902515312ee4a99c22e53,2020-08-10_18h18.48.419,lexical_decision_task_MP,2020.1.3,Win32,60,m,1,0.58032,,,,,,,,0.58032,1,,,,,,197,WORD,"ID",33,stream,STREAM,m,,,,,,0.452653486,0.01508845,0,0,0,,0,363,363,16,1,,
,,,,,,,,,,,,,,,,,,5e7902515312ee4a99c22e53,2020-08-10_18h18.48.419,lexical_decision_task_MP,2020.1.3,Win32,60,m,1,0.446355,,,,,,,,0.446355,1,,,,,,36,WORD,"ID",50,vanish,VANISH,m,,,,,,0.452653486,0.01508845,0,0,0,,0,364,364,95,1,,
,,,,,,,,,,,,,,,,,,5e7902515312ee4a99c22e53,2020-08-10_18h18.48.419,lexical_decision_task_MP,2020.1.3,Win32,60,m,1,0.417455,,,,,,,,0.417455,1,,,,,,112,WORD,UN,33,chorus,BREATH,m,,,,,,0.452653486,0.01508845,0,0,0,,0,365,365,171,1,,
,,,,,,,,,,,,,,,,,,5e7902515312ee4a99c22e53,2020-08-10_18h18.48.419,lexical_decision_task_MP,2020.1.3,Win32,60,z,1,1.169345,,,,,,,,1.169345,1,,,,,,357,NW,UN,33,fleack,DERAIN,z,,,,,,0.452653486,0.01508845,0,0,0,,0,366,366,416,1,,
,,,,,,,,,,,,,,,,,,5e7902515312ee4a99c22e53,2020-08-10_18h18.48.419,lexical_decision_task_MP,2020.1.3,Win32,60,z,1,0.723445,,,,,,,,0.723445,1,,,,,,417,NW,UN,50,suidle,EAROUD,z,,,,,,0.452653486,0.01508845,0,0,0,,0,367,367,476,1,,
,,,,,,,,,,,,,,,,,,5e7902515312ee4a99c22e53,2020-08-10_18h18.48.419,lexical_decision_task_MP,2020.1.3,Win32,60,m,0,0.60709,,,,,,,,0.60709,0,,,,,,360,NW,UN,33,fainch,DESORY,z,,,,,,0.452653486,0.01508845,0,0,0,,0,368,368,419,1,,
,,,,,,,,,,,,,,,,,,5e7902515312ee4a99c22e53,2020-08-10_18h18.48.419,lexical_decision_task_MP,2020.1.3,Win32,60,m,1,0.640035,,,,,,,,0.640035,1,,,,,,90,WORD,UN,33,expand,RELISH,m,,,,,,0.452653486,0.01508845,0,0,0,,0,369,369,149,1,,
,,,,,,,,,,,,,,,,,,5e7902515312ee4a99c22e53,2020-08-10_18h18.48.419,lexical_decision_task_MP,2020.1.3,Win32,60,z,1,0.52515,,,,,,,,0.52515,1,,,,,,442,NW,"ID",33,aboune,ABOUNE,z,,,,,,0.452653486,0.01508845,0,0,0,,0,370,370,261,1,,
,,,,,,,,,,,,,,,,,,5e7902515312ee4a99c22e53,2020-08-10_18h18.48.419,lexical_decision_task_MP,2020.1.3,Win32,60,m,1,0.63528,,,,,,,,0.63528,1,,,,,,208,WORD,"ID",33,hockey,HOCKEY,m,,,,,,0.452653486,0.01508845,0,0,0,,0,371,371,27,1,,
,,,,,,,,,,,,,,,,,,5e7902515312ee4a99c22e53,2020-08-10_18h18.48.419,lexical_decision_task_MP,2020.1.3,Win32,60,z,1,0.92823,,,,,,,,0.92823,1,,,,,,247,NW,"ID",50,blarge,BLARGE,z,,,,,,0.452653486,0.01508845,0,0,0,,0,372,372,306,1,,
,,,,,,,,,,,,,,,,,,5e7902515312ee4a99c22e53,2020-08-10_18h18.48.419,lexical_decision_task_MP,2020.1.3,Win32,60,m,1,0.48493,,,,,,,,0.48493,1,,,,,,5,WORD,"ID",50,plunge,PLUNGE,m,,,,,,0.452653486,0.01508845,0,0,0,,0,373,373,64,1,,
,,,,,,,,,,,,,,,,,,5e7902515312ee4a99c22e53,2020-08-10_18h18.48.419,lexical_decision_task_MP,2020.1.3,Win32,60,z,0,0.65212,,,,,,,,0.65212,0,,,,,,82,WORD,UN,33,result,STIGMA,m,,,,,,0.452653486,0.01508845,0,0,0,,0,374,374,141,1,,
,,,,,,,,,,,,,,,,,,5e7902515312ee4a99c22e53,2020-08-10_18h18.48.419,lexical_decision_task_MP,2020.1.3,Win32,60,z,1,0.72394,,,,,,,,0.72394,1,,,,,,292,NW,"ID",50,ablint,ABLINT,z,,,,,,0.452653486,0.01508845,0,0,0,,0,375,375,351,1,,
,,,,,,,,,,,,,,,,,,5e7902515312ee4a99c22e53,2020-08-10_18h18.48.419,lexical_decision_task_MP,2020.1.3,Win32,60,z,1,0.559785,,,,,,,,0.559785,1,,,,,,254,NW,"ID",50,varosh,VAROSH,z,,,,,,0.452653486,0.01508845,0,0,0,,0,376,376,313,1,,
,,,,,,,,,,,,,,,,,,5e7902515312ee4a99c22e53,2020-08-10_18h18.48.419,lexical_decision_task_MP,2020.1.3,Win32,60,z,1,0.73561,,,,,,,,0.73561,1,,,,,,249,NW,"ID",50,batrol,BATROL,z,,,,,,0.452653486,0.01508845,0,0,0,,0,377,377,308,1,,
,,,,,,,,,,,,,,,,,,5e7902515312ee4a99c22e53,2020-08-10_18h18.48.419,lexical_decision_task_MP,2020.1.3,Win32,60,m,0,0.60236,,,,,,,,0.60236,0,,,,,,284,NW,"ID",50,shaple,SHAPLE,z,,,,,,0.452653486,0.01508845,0,0,0,,0,378,378,343,1,,
,,,,,,,,,,,,,,,,,,5e7902515312ee4a99c22e53,2020-08-10_18h18.48.419,lexical_decision_task_MP,2020.1.3,Win32,60,z,1,0.625165,,,,,,,,0.625165,1,,,,,,426,NW,"ID",33,urivel,URIVEL,z,,,,,,0.452653486,0.01508845,0,0,0,,0,379,379,245,1,,
,,,,,,,,,,,,,,,,,,5e7902515312ee4a99c22e53,2020-08-10_18h18.48.419,lexical_decision_task_MP,2020.1.3,Win32,60,z,1,0.66148,,,,,,,,0.66148,1,,,,,,293,NW,"ID",50,swance,SWANCE,z,,,,,,0.452653486,0.01508845,0,0,0,,0,380,380,352,1,,
,,,,,,,,,,,,,,,,,,5e7902515312ee4a99c22e53,2020-08-10_18h18.48.419,lexical_decision_task_MP,2020.1.3,Win32,60,z,1,0.575575,,,,,,,,0.575575,1,,,,,,443,NW,"ID",33,dorsex,DORSEX,z,,,,,,0.452653486,0.01508845,0,0,0,,0,381,381,262,1,,
,,,,,,,,,,,,,,,,,,5e7902515312ee4a99c22e53,2020-08-10_18h18.48.419,lexical_decision_task_MP,2020.1.3,Win32,60,z,1,0.50994,,,,,,,,0.50994,1,,,,,,347,NW,UN,33,dumple,KERIFT,z,,,,,,0.452653486,0.01508845,0,0,0,,0,382,382,406,1,,
,,,,,,,,,,,,,,,,,,5e7902515312ee4a99c22e53,2020-08-10_18h18.48.419,lexical_decision_task_MP,2020.1.3,Win32,60,z,1,0.462945,,,,,,,,0.462945,1,,,,,,402,NW,UN,50,bruats,SYNTIC,z,,,,,,0.452653486,0.01508845,0,0,0,,0,383,383,461,1,,
,,,,,,,,,,,,,,,,,,5e7902515312ee4a99c22e53,2020-08-10_18h18.48.419,lexical_decision_task_MP,2020.1.3,Win32,60,m,1,0.646175,,,,,,,,0.646175,1,,,,,,76,WORD,UN,33,racket,EXOTIC,m,,,,,,0.452653486,0.01508845,0,0,0,,0,384,384,135,1,,
,,,,,,,,,,,,,,,,,,5e7902515312ee4a99c22e53,2020-08-10_18h18.48.419,lexical_decision_task_MP,2020.1.3,Win32,60,z,1,0.791735,,,,,,,,0.791735,1,,,,,,378,NW,UN,50,auting,SHRILE,z,,,,,,0.452653486,0.01508845,0,0,0,,0,385,385,437,1,,
,,,,,,,,,,,,,,,,,,5e7902515312ee4a99c22e53,2020-08-10_18h18.48.419,lexical_decision_task_MP,2020.1.3,Win32,60,m,1,0.59081,,,,,,,,0.59081,1,,,,,,123,WORD,UN,50,blouse,STRIKE,m,,,,,,0.452653486,0.01508845,0,0,0,,0,386,386,182,1,,
,,,,,,,,,,,,,,,,,,5e7902515312ee4a99c22e53,2020-08-10_18h18.48.419,lexical_decision_task_MP,2020.1.3,Win32,60,z,1,0.676015,,,,,,,,0.676015,1,,,,,,439,NW,"ID",33,limpor,LIMPOR,z,,,,,,0.452653486,0.01508845,0,0,0,,0,387,387,258,1,,
,,,,,,,,,,,,,,,,,,5e7902515312ee4a99c22e53,2020-08-10_18h18.48.419,lexical_decision_task_MP,2020.1.3,Win32,60,m,1,0.48337,,,,,,,,0.48337,1,,,,,,12,WORD,"ID",50,orange,ORANGE,m,,,,,,0.452653486,0.01508845,0,0,0,,0,388,388,71,1,,
,,,,,,,,,,,,,,,,,,5e7902515312ee4a99c22e53,2020-08-10_18h18.48.419,lexical_decision_task_MP,2020.1.3,Win32,60,m,1,0.69318,,,,,,,,0.69318,1,,,,,,183,WORD,"ID",33,mildew,MILDEW,m,,,,,,0.452653486,0.01508845,0,0,0,,0,389,389,2,1,,
,,,,,,,,,,,,,,,,,,5e7902515312ee4a99c22e53,2020-08-10_18h18.48.419,lexical_decision_task_MP,2020.1.3,Win32,60,z,0,0.626085,,,,,,,,0.626085,0,,,,,,152,WORD,UN,50,behold,ROCKET,m,,,,,,0.452653486,0.01508845,0,0,0,,0,390,390,211,1,,
,,,,,,,,,,,,,,,,,,5e7902515312ee4a99c22e53,2020-08-10_18h18.48.419,lexical_decision_task_MP,2020.1.3,Win32,60,m,1,0.76135,,,,,,,,0.76135,1,,,,,,59,WORD,"ID",50,splint,SPLINT,m,,,,,,0.452653486,0.01508845,0,0,0,,0,391,391,118,1,,
,,,,,,,,,,,,,,,,,,5e7902515312ee4a99c22e53,2020-08-10_18h18.48.419,lexical_decision_task_MP,2020.1.3,Win32,60,m,1,0.469935,,,,,,,,0.469935,1,,,,,,7,WORD,"ID",50,anchor,ANCHOR,m,,,,,,0.452653486,0.01508845,0,0,0,,0,392,392,66,1,,
,,,,,,,,,,,,,,,,,,5e7902515312ee4a99c22e53,2020-08-10_18h18.48.419,lexical_decision_task_MP,2020.1.3,Win32,60,z,1,0.900275,,,,,,,,0.900275,1,,,,,,424,NW,"ID",33,praile,PRAILE,z,,,,,,0.452653486,0.01508845,0,0,0,,0,393,393,243,1,,
,,,,,,,,,,,,,,,,,,5e7902515312ee4a99c22e53,2020-08-10_18h18.48.419,lexical_decision_task_MP,2020.1.3,Win32,60,m,1,0.583415,,,,,,,,0.583415,1,,,,,,194,WORD,"ID",33,absent,ABSENT,m,,,,,,0.452653486,0.01508845,0,0,0,,0,394,394,13,1,,
,,,,,,,,,,,,,,,,,,5e7902515312ee4a99c22e53,2020-08-10_18h18.48.419,lexical_decision_task_MP,2020.1.3,Win32,60,m,1,0.53526,,,,,,,,0.53526,1,,,,,,217,WORD,"ID",33,liquor,LIQUOR,m,,,,,,0.452653486,0.01508845,0,0,0,,0,395,395,36,1,,
,,,,,,,,,,,,,,,,,,5e7902515312ee4a99c22e53,2020-08-10_18h18.48.419,lexical_decision_task_MP,2020.1.3,Win32,60,m,1,0.704855,,,,,,,,0.704855,1,,,,,,191,WORD,"ID",33,stable,STABLE,m,,,,,,0.452653486,0.01508845,0,0,0,,0,396,396,10,1,,
,,,,,,,,,,,,,,,,,,5e7902515312ee4a99c22e53,2020-08-10_18h18.48.419,lexical_decision_task_MP,2020.1.3,Win32,60,m,0,0.59422,,,,,,,,0.59422,0,,,,,,462,NW,"ID",33,absult,ABSULT,z,,,,,,0.452653486,0.01508845,0,0,0,,0,397,397,281,1,,
,,,,,,,,,,,,,,,,,,5e7902515312ee4a99c22e53,2020-08-10_18h18.48.419,lexical_decision_task_MP,2020.1.3,Win32,60,z,0,0.48935,,,,,,,,0.48935,0,,,,,,66,WORD,UN,33,policy,GOSPEL,m,,,,,,0.452653486,0.01508845,0,0,0,,0,398,398,125,1,,
,,,,,,,,,,,,,,,,,,5e7902515312ee4a99c22e53,2020-08-10_18h18.48.419,lexical_decision_task_MP,2020.1.3,Win32,60,m,1,0.587695,,,,,,,,0.587695,1,,,,,,145,WORD,UN,50,couple,PARISH,m,,,,,,0.452653486,0.01508845,0,0,0,,0,399,399,204,1,,
,,,,,,,,,,,,,,,,,,5e7902515312ee4a99c22e53,2020-08-10_18h18.48.419,lexical_decision_task_MP,2020.1.3,Win32,60,m,1,0.60054,,,,,,,,0.60054,1,,,,,,86,WORD,UN,33,filter,RODENT,m,,,,,,0.452653486,0.01508845,0,0,0,,0,400,400,145,1,,
,,,,,,,,,,,,,,,,,,5e7902515312ee4a99c22e53,2020-08-10_18h18.48.419,lexical_decision_task_MP,2020.1.3,Win32,60,m,1,0.510455,,,,,,,,0.510455,1,,,,,,174,WORD,UN,50,fabric,TURKEY,m,,,,,,0.452653486,0.01508845,0,0,0,,0,401,401,233,1,,
,,,,,,,,,,,,,,,,,,5e7902515312ee4a99c22e53,2020-08-10_18h18.48.419,lexical_decision_task_MP,2020.1.3,Win32,60,z,1,0.90666,,,,,,,,0.90666,1,,,,,,440,NW,"ID",33,saride,SARIDE,z,,,,,,0.452653486,0.01508845,0,0,0,,0,402,402,259,1,,
,,,,,,,,,,,,,,,,,,5e7902515312ee4a99c22e53,2020-08-10_18h18.48.419,lexical_decision_task_MP,2020.1.3,Win32,60,z,1,0.58653,,,,,,,,0.58653,1,,,,,,415,NW,UN,50,pathel,HIGSTA,z,,,,,,0.452653486,0.01508845,0,0,0,,0,403,403,474,1,,
