counterbalancing_condition,instr_done_keyboard.keys,instr_done_touch.x,instr_done_touch.y,instr_done_touch.leftButton,instr_done_touch.midButton,instr_done_touch.rightButton,instr_done_touch.clicked_name,instruction_pages.thisRepN,instruction_pages.thisTrialN,instruction_pages.thisN,instruction_pages.thisIndex,instruction_pages.ran,pageN,phase,instruct_text,has_image,instruct_image,participant,date,expName,psychopyVersion,OS,frameRate,instr_done_keyboard.rt,response.keys,response.corr,touch_resp.x,touch_resp.y,touch_resp.leftButton,touch_resp.midButton,touch_resp.rightButton,touch_resp.time,touch_resp.clicked_name,rt,corr,practice_trials.thisRepN,practice_trials.thisTrialN,practice_trials.thisN,practice_trials.thisIndex,practice_trials.ran,TrialID,StimulusType,Condition,PrimeDuration,Prime,Target,corrAns,response.rt,end_of_practice_trials_pages.thisRepN,end_of_practice_trials_pages.thisTrialN,end_of_practice_trials_pages.thisN,end_of_practice_trials_pages.thisIndex,end_of_practice_trials_pages.ran,break_done_touch.x,break_done_touch.y,break_done_touch.leftButton,break_done_touch.midButton,break_done_touch.rightButton,break_done_keyboard.keys,trials.thisRepN,trials.thisTrialN,trials.thisN,trials.thisIndex,trials.ran,break_done_touch.clicked_name
1,,-0.014909478,-0.3828541,1,0,0,instr_done_button,0,0,0,0,1,1,instructions,"INSTRUCTIONS
At the start of each trial, look at the hash marks (######) in the center of the screen. After a moment, a string of letters will appear. Your task is to indicate if the letter string forms a word or not (i.e., if it is a nonword). For example, AUTHOR is a word while AUTHON is a nonword.

Press the space bar or touch the button below to continue.",0,,5e875f10bde8373bdc2eac32,2020-08-10_18h46.45.815,lexical_decision_task_MP,2020.1.3,Win32,60,,,,,,,,,,,,,,,,,,,,,,,,,,,,,,,,,,,,,,,,,,
,space,-0.006389776,-0.288072417,0,0,0,,0,1,1,1,1,2,instructions,"If your device has a keyboard, press the 'Z' key for nonwords and the 'M' key for words.





Press the space bar or touch the button below to continue.",1,keyboard-example.gif,5e875f10bde8373bdc2eac32,2020-08-10_18h46.45.815,lexical_decision_task_MP,2020.1.3,Win32,60,11.82923,,,,,,,,,,,,,,,,,,,,,,,,,,,,,,,,,,,,,,,,,
,space,-0.006389776,-0.288072417,0,0,0,,0,2,2,2,1,3,instructions,"If you are using a touchscreen only device, use the buttons on the screen. Do not use the mouse.





Press the space bar or touch the button below to continue.",1,touchscreen-example.gif,5e875f10bde8373bdc2eac32,2020-08-10_18h46.45.815,lexical_decision_task_MP,2020.1.3,Win32,60,3.126855,,,,,,,,,,,,,,,,,,,,,,,,,,,,,,,,,,,,,,,,,
,space,-0.006389776,-0.288072417,0,0,0,,0,3,3,3,1,4,instructions,"It is very important that you respond as quickly and accurately as possible, as each letter string will only be on the screen for two seconds. If you do not respond within this time, the message 'Too slow!' will be displayed and the experiment will progress to the next letter string. The first 20 trials will be practice trials and you will receive feedback on your answers. 

Press the space bar or touch the button below to start the practice trials.",0,,5e875f10bde8373bdc2eac32,2020-08-10_18h46.45.815,lexical_decision_task_MP,2020.1.3,Win32,60,1.22315,,,,,,,,,,,,,,,,,,,,,,,,,,,,,,,,,,,,,,,,,
,,,,,,,,,,,,,,,,,,5e875f10bde8373bdc2eac32,2020-08-10_18h46.45.815,lexical_decision_task_MP,2020.1.3,Win32,60,,,0,,,,,,,,,-1,0,0,0,5,1,1006,WORD,UN,33,frenzy,OBTAIN,m,,,,,,,,,,,,,,,,,,
,,,,,,,,,,,,,,,,,,5e875f10bde8373bdc2eac32,2020-08-10_18h46.45.815,lexical_decision_task_MP,2020.1.3,Win32,60,,m,1,,,,,,,,0.704785,1,0,1,1,3,1,1004,WORD,"ID",50,matrix,MATRIX,m,0.704785,,,,,,,,,,,,,,,,,
,,,,,,,,,,,,,,,,,,5e875f10bde8373bdc2eac32,2020-08-10_18h46.45.815,lexical_decision_task_MP,2020.1.3,Win32,60,,z,1,,,,,,,,0.62629,1,0,2,2,10,1,1011,NW,"ID",50,inlade,INLADE,z,0.62629,,,,,,,,,,,,,,,,,
,,,,,,,,,,,,,,,,,,5e875f10bde8373bdc2eac32,2020-08-10_18h46.45.815,lexical_decision_task_MP,2020.1.3,Win32,60,,z,1,,,,,,,,0.638195,1,0,3,3,12,1,1013,NW,UN,33,adveil,SPRINY,z,0.638195,,,,,,,,,,,,,,,,,
,,,,,,,,,,,,,,,,,,5e875f10bde8373bdc2eac32,2020-08-10_18h46.45.815,lexical_decision_task_MP,2020.1.3,Win32,60,,z,1,,,,,,,,0.53292,1,0,4,4,13,1,1014,NW,UN,33,winfer,ROUPET,z,0.53292,,,,,,,,,,,,,,,,,
,,,,,,,,,,,,,,,,,,5e875f10bde8373bdc2eac32,2020-08-10_18h46.45.815,lexical_decision_task_MP,2020.1.3,Win32,60,,z,1,,,,,,,,0.78695,1,0,5,5,15,1,1016,NW,UN,50,mushed,WHAISE,z,0.78695,,,,,,,,,,,,,,,,,
,,,,,,,,,,,,,,,,,,5e875f10bde8373bdc2eac32,2020-08-10_18h46.45.815,lexical_decision_task_MP,2020.1.3,Win32,60,,m,1,,,,,,,,0.54517,1,0,6,6,0,1,1001,WORD,"ID",33,utopia,UTOPIA,m,0.54517,,,,,,,,,,,,,,,,,
,,,,,,,,,,,,,,,,,,5e875f10bde8373bdc2eac32,2020-08-10_18h46.45.815,lexical_decision_task_MP,2020.1.3,Win32,60,,z,0,,,,,,,,1.025815,0,0,7,7,6,1,1007,WORD,UN,50,tropic,ZOMBIE,m,1.025815,,,,,,,,,,,,,,,,,
,,,,,,,,,,,,,,,,,,5e875f10bde8373bdc2eac32,2020-08-10_18h46.45.815,lexical_decision_task_MP,2020.1.3,Win32,60,,m,1,,,,,,,,0.94252,1,0,8,8,1,1,1002,WORD,"ID",33,adjust,ADJUST,m,0.94252,,,,,,,,,,,,,,,,,
,,,,,,,,,,,,,,,,,,5e875f10bde8373bdc2eac32,2020-08-10_18h46.45.815,lexical_decision_task_MP,2020.1.3,Win32,60,,z,1,,,,,,,,0.84977,1,0,9,9,8,1,1009,NW,"ID",33,aslert,ASLERT,z,0.84977,,,,,,,,,,,,,,,,,
,,,,,,,,,,,,,,,,,,5e875f10bde8373bdc2eac32,2020-08-10_18h46.45.815,lexical_decision_task_MP,2020.1.3,Win32,60,,z,1,,,,,,,,0.67385,1,0,10,10,14,1,1015,NW,UN,50,miaber,THRALE,z,0.67385,,,,,,,,,,,,,,,,,
,,,,,,,,,,,,,,,,,,5e875f10bde8373bdc2eac32,2020-08-10_18h46.45.815,lexical_decision_task_MP,2020.1.3,Win32,60,,z,1,,,,,,,,0.69198,1,0,11,11,11,1,1012,NW,"ID",50,rashet,RASHET,z,0.69198,,,,,,,,,,,,,,,,,
,,,,,,,,,,,,,,,,,,5e875f10bde8373bdc2eac32,2020-08-10_18h46.45.815,lexical_decision_task_MP,2020.1.3,Win32,60,,z,0,,,,,,,,0.470145,0,0,12,12,4,1,1005,WORD,UN,33,abound,SQUEAK,m,0.470145,,,,,,,,,,,,,,,,,
,,,,,,,,,,,,,,,,,,5e875f10bde8373bdc2eac32,2020-08-10_18h46.45.815,lexical_decision_task_MP,2020.1.3,Win32,60,,m,1,,,,,,,,0.601205,1,0,13,13,2,1,1003,WORD,"ID",50,almond,ALMOND,m,0.601205,,,,,,,,,,,,,,,,,
,,,,,,,,,,,,,,,,,,5e875f10bde8373bdc2eac32,2020-08-10_18h46.45.815,lexical_decision_task_MP,2020.1.3,Win32,60,,z,1,,,,,,,,0.437175,1,0,14,14,9,1,1010,NW,"ID",33,fariny,FARINY,z,0.437175,,,,,,,,,,,,,,,,,
,,,,,,,,,,,,,,,,,,5e875f10bde8373bdc2eac32,2020-08-10_18h46.45.815,lexical_decision_task_MP,2020.1.3,Win32,60,,z,0,,,,,,,,0.625665,0,0,15,15,7,1,1008,WORD,UN,50,hurdle,VOLUME,m,0.625665,,,,,,,,,,,,,,,,,
,,0.100106496,-0.423322684,1,0,0,instr_done_button,,,,,,1,end_of_practice,"You have completed the practice trials. During the experimental trials, you will not receive feedback, but it is very important that you respond as quickly and accurately as possible. 
Before you begin, please ensure that you are in a comfortable and quiet location and will not be disturbed for about 15 minutes, as we cannot use your data if you do not complete all the trials. 
There will be opportunities to take breaks at regular intervals during the experiment. When you are ready to start the experimental trials, please press space or touch the button below.",,,5e875f10bde8373bdc2eac32,2020-08-10_18h46.45.815,lexical_decision_task_MP,2020.1.3,Win32,60,,,,,,,,,,,,,,,,,,,,,,,,,,0,0,0,0,1,,,,,,,,,,,,
,,,,,,,,,,,,,,,,,,5e875f10bde8373bdc2eac32,2020-08-10_18h46.45.815,lexical_decision_task_MP,2020.1.3,Win32,60,,m,1,,,,,,,,0.803265,1,,,,,,130,WORD,UN,33,quench,STUPID,m,0.803265,,,,,,0.088391906,-0.222044728,0,0,0,,0,0,0,129,1,
,,,,,,,,,,,,,,,,,,5e875f10bde8373bdc2eac32,2020-08-10_18h46.45.815,lexical_decision_task_MP,2020.1.3,Win32,60,,z,1,,,,,,,,1.30034,1,,,,,,380,NW,UN,33,huniek,CAVORY,z,1.30034,,,,,,0.088391906,-0.222044728,0,0,0,,0,1,1,379,1,
,,,,,,,,,,,,,,,,,,5e875f10bde8373bdc2eac32,2020-08-10_18h46.45.815,lexical_decision_task_MP,2020.1.3,Win32,60,,m,1,,,,,,,,1.753225,1,,,,,,223,WORD,UN,50,period,KIDNEY,m,1.753225,,,,,,0.088391906,-0.222044728,0,0,0,,0,2,2,222,1,
,,,,,,,,,,,,,,,,,,5e875f10bde8373bdc2eac32,2020-08-10_18h46.45.815,lexical_decision_task_MP,2020.1.3,Win32,60,,z,0,,,,,,,,1.10878,0,,,,,,45,WORD,"ID",33,clergy,CLERGY,m,1.10878,,,,,,0.088391906,-0.222044728,0,0,0,,0,3,3,44,1,
,,,,,,,,,,,,,,,,,,5e875f10bde8373bdc2eac32,2020-08-10_18h46.45.815,lexical_decision_task_MP,2020.1.3,Win32,60,,z,0,,,,,,,,1.121875,0,,,,,,41,WORD,"ID",33,spring,SPRING,m,1.121875,,,,,,0.088391906,-0.222044728,0,0,0,,0,4,4,40,1,
,,,,,,,,,,,,,,,,,,5e875f10bde8373bdc2eac32,2020-08-10_18h46.45.815,lexical_decision_task_MP,2020.1.3,Win32,60,,z,1,,,,,,,,0.79131,1,,,,,,419,NW,UN,33,gushop,SLOUNT,z,0.79131,,,,,,0.088391906,-0.222044728,0,0,0,,0,5,5,418,1,
,,,,,,,,,,,,,,,,,,5e875f10bde8373bdc2eac32,2020-08-10_18h46.45.815,lexical_decision_task_MP,2020.1.3,Win32,60,,z,1,,,,,,,,0.769365,1,,,,,,343,NW,"ID",50,aimosy,AIMOSY,z,0.769365,,,,,,0.088391906,-0.222044728,0,0,0,,0,6,6,342,1,
,,,,,,,,,,,,,,,,,,5e875f10bde8373bdc2eac32,2020-08-10_18h46.45.815,lexical_decision_task_MP,2020.1.3,Win32,60,,m,1,,,,,,,,0.634825,1,,,,,,222,WORD,UN,50,casino,HINDER,m,0.634825,,,,,,0.088391906,-0.222044728,0,0,0,,0,7,7,221,1,
,,,,,,,,,,,,,,,,,,5e875f10bde8373bdc2eac32,2020-08-10_18h46.45.815,lexical_decision_task_MP,2020.1.3,Win32,60,,m,1,,,,,,,,0.88313,1,,,,,,97,WORD,"ID",50,client,CLIENT,m,0.88313,,,,,,0.088391906,-0.222044728,0,0,0,,0,8,8,96,1,
,,,,,,,,,,,,,,,,,,5e875f10bde8373bdc2eac32,2020-08-10_18h46.45.815,lexical_decision_task_MP,2020.1.3,Win32,60,,z,0,,,,,,,,0.7833,0,,,,,,216,WORD,UN,50,liquor,BEHALF,m,0.7833,,,,,,0.088391906,-0.222044728,0,0,0,,0,9,9,215,1,
,,,,,,,,,,,,,,,,,,5e875f10bde8373bdc2eac32,2020-08-10_18h46.45.815,lexical_decision_task_MP,2020.1.3,Win32,60,,m,1,,,,,,,,0.683015,1,,,,,,115,WORD,"ID",50,guitar,GUITAR,m,0.683015,,,,,,0.088391906,-0.222044728,0,0,0,,0,10,10,114,1,
,,,,,,,,,,,,,,,,,,5e875f10bde8373bdc2eac32,2020-08-10_18h46.45.815,lexical_decision_task_MP,2020.1.3,Win32,60,,m,0,,,,,,,,0.72733,0,,,,,,354,NW,"ID",50,virlex,VIRLEX,z,0.72733,,,,,,0.088391906,-0.222044728,0,0,0,,0,11,11,353,1,
,,,,,,,,,,,,,,,,,,5e875f10bde8373bdc2eac32,2020-08-10_18h46.45.815,lexical_decision_task_MP,2020.1.3,Win32,60,,z,1,,,,,,,,1.29185,1,,,,,,403,NW,UN,33,cluirm,BRUATS,z,1.29185,,,,,,0.088391906,-0.222044728,0,0,0,,0,12,12,402,1,
,,,,,,,,,,,,,,,,,,5e875f10bde8373bdc2eac32,2020-08-10_18h46.45.815,lexical_decision_task_MP,2020.1.3,Win32,60,,m,0,,,,,,,,0.961775,0,,,,,,242,NW,"ID",33,unwert,UNWERT,z,0.961775,,,,,,0.088391906,-0.222044728,0,0,0,,0,13,13,241,1,
,,,,,,,,,,,,,,,,,,5e875f10bde8373bdc2eac32,2020-08-10_18h46.45.815,lexical_decision_task_MP,2020.1.3,Win32,60,,m,1,,,,,,,,1.34034,1,,,,,,151,WORD,UN,33,rocket,MYSTIC,m,1.34034,,,,,,0.088391906,-0.222044728,0,0,0,,0,14,14,150,1,
,,,,,,,,,,,,,,,,,,5e875f10bde8373bdc2eac32,2020-08-10_18h46.45.815,lexical_decision_task_MP,2020.1.3,Win32,60,,z,1,,,,,,,,0.888785,1,,,,,,444,NW,UN,50,minkel,JAUNCE,z,0.888785,,,,,,0.088391906,-0.222044728,0,0,0,,0,15,15,443,1,
,,,,,,,,,,,,,,,,,,5e875f10bde8373bdc2eac32,2020-08-10_18h46.45.815,lexical_decision_task_MP,2020.1.3,Win32,60,,m,1,,,,,,,,0.71023,1,,,,,,102,WORD,"ID",50,direct,DIRECT,m,0.71023,,,,,,0.088391906,-0.222044728,0,0,0,,0,16,16,101,1,
,,,,,,,,,,,,,,,,,,5e875f10bde8373bdc2eac32,2020-08-10_18h46.45.815,lexical_decision_task_MP,2020.1.3,Win32,60,,m,1,,,,,,,,0.76668,1,,,,,,53,WORD,"ID",33,police,POLICE,m,0.76668,,,,,,0.088391906,-0.222044728,0,0,0,,0,17,17,52,1,
,,,,,,,,,,,,,,,,,,5e875f10bde8373bdc2eac32,2020-08-10_18h46.45.815,lexical_decision_task_MP,2020.1.3,Win32,60,,m,1,,,,,,,,0.79779,1,,,,,,13,WORD,"ID",33,strive,STRIVE,m,0.79779,,,,,,0.088391906,-0.222044728,0,0,0,,0,18,18,12,1,
,,,,,,,,,,,,,,,,,,5e875f10bde8373bdc2eac32,2020-08-10_18h46.45.815,lexical_decision_task_MP,2020.1.3,Win32,60,,z,1,,,,,,,,0.8081,1,,,,,,357,NW,"ID",50,derain,DERAIN,z,0.8081,,,,,,0.088391906,-0.222044728,0,0,0,,0,19,19,356,1,
,,,,,,,,,,,,,,,,,,5e875f10bde8373bdc2eac32,2020-08-10_18h46.45.815,lexical_decision_task_MP,2020.1.3,Win32,60,,z,1,,,,,,,,1.37629,1,,,,,,364,NW,UN,33,guairt,IMPOTE,z,1.37629,,,,,,0.088391906,-0.222044728,0,0,0,,0,20,20,363,1,
,,,,,,,,,,,,,,,,,,5e875f10bde8373bdc2eac32,2020-08-10_18h46.45.815,lexical_decision_task_MP,2020.1.3,Win32,60,,z,1,,,,,,,,0.963985,1,,,,,,351,NW,"ID",50,tiesch,TIESCH,z,0.963985,,,,,,0.088391906,-0.222044728,0,0,0,,0,21,21,350,1,
,,,,,,,,,,,,,,,,,,5e875f10bde8373bdc2eac32,2020-08-10_18h46.45.815,lexical_decision_task_MP,2020.1.3,Win32,60,,z,1,,,,,,,,0.90351,1,,,,,,412,NW,UN,33,equats,JILUER,z,0.90351,,,,,,0.088391906,-0.222044728,0,0,0,,0,22,22,411,1,
,,,,,,,,,,,,,,,,,,5e875f10bde8373bdc2eac32,2020-08-10_18h46.45.815,lexical_decision_task_MP,2020.1.3,Win32,60,,m,1,,,,,,,,0.669035,1,,,,,,143,WORD,UN,33,sponge,REASON,m,0.669035,,,,,,0.088391906,-0.222044728,0,0,0,,0,23,23,142,1,
,,,,,,,,,,,,,,,,,,5e875f10bde8373bdc2eac32,2020-08-10_18h46.45.815,lexical_decision_task_MP,2020.1.3,Win32,60,,m,1,,,,,,,,0.77926,1,,,,,,100,WORD,"ID",50,carbon,CARBON,m,0.77926,,,,,,0.088391906,-0.222044728,0,0,0,,0,24,24,99,1,
,,,,,,,,,,,,,,,,,,5e875f10bde8373bdc2eac32,2020-08-10_18h46.45.815,lexical_decision_task_MP,2020.1.3,Win32,60,,m,1,,,,,,,,0.80647,1,,,,,,52,WORD,"ID",33,impose,IMPOSE,m,0.80647,,,,,,0.088391906,-0.222044728,0,0,0,,0,25,25,51,1,
,,,,,,,,,,,,,,,,,,5e875f10bde8373bdc2eac32,2020-08-10_18h46.45.815,lexical_decision_task_MP,2020.1.3,Win32,60,,z,1,,,,,,,,1.3583,1,,,,,,453,NW,UN,50,scouge,BOLVIS,z,1.3583,,,,,,0.088391906,-0.222044728,0,0,0,,0,26,26,452,1,
,,,,,,,,,,,,,,,,,,5e875f10bde8373bdc2eac32,2020-08-10_18h46.45.815,lexical_decision_task_MP,2020.1.3,Win32,60,,m,1,,,,,,,,0.6499,1,,,,,,12,WORD,"ID",33,orange,ORANGE,m,0.6499,,,,,,0.088391906,-0.222044728,0,0,0,,0,27,27,11,1,
,,,,,,,,,,,,,,,,,,5e875f10bde8373bdc2eac32,2020-08-10_18h46.45.815,lexical_decision_task_MP,2020.1.3,Win32,60,,z,1,,,,,,,,0.72958,1,,,,,,367,NW,UN,33,hornal,SLIQUE,z,0.72958,,,,,,0.088391906,-0.222044728,0,0,0,,0,28,28,366,1,
,,,,,,,,,,,,,,,,,,5e875f10bde8373bdc2eac32,2020-08-10_18h46.45.815,lexical_decision_task_MP,2020.1.3,Win32,60,,z,1,,,,,,,,1.005995,1,,,,,,427,NW,UN,50,tandly,SCHIND,z,1.005995,,,,,,0.088391906,-0.222044728,0,0,0,,0,29,29,426,1,
,,,,,,,,,,,,,,,,,,5e875f10bde8373bdc2eac32,2020-08-10_18h46.45.815,lexical_decision_task_MP,2020.1.3,Win32,60,,,0,,,,,,,,1.005995,-1,,,,,,264,NW,"ID",33,vackel,VACKEL,z,,,,,,,0.088391906,-0.222044728,0,0,0,,0,30,30,263,1,
,,,,,,,,,,,,,,,,,,5e875f10bde8373bdc2eac32,2020-08-10_18h46.45.815,lexical_decision_task_MP,2020.1.3,Win32,60,,m,1,,,,,,,,0.62221,1,,,,,,240,WORD,UN,50,glance,FOREST,m,0.62221,,,,,,0.088391906,-0.222044728,0,0,0,,0,31,31,239,1,
,,,,,,,,,,,,,,,,,,5e875f10bde8373bdc2eac32,2020-08-10_18h46.45.815,lexical_decision_task_MP,2020.1.3,Win32,60,,z,1,,,,,,,,1.07024,1,,,,,,428,NW,UN,50,chrums,TANDLY,z,1.07024,,,,,,0.088391906,-0.222044728,0,0,0,,0,32,32,427,1,
,,,,,,,,,,,,,,,,,,5e875f10bde8373bdc2eac32,2020-08-10_18h46.45.815,lexical_decision_task_MP,2020.1.3,Win32,60,,m,1,,,,,,,,0.62035,1,,,,,,197,WORD,UN,50,wicked,STREAM,m,0.62035,,,,,,0.088391906,-0.222044728,0,0,0,,0,33,33,196,1,
,,,,,,,,,,,,,,,,,,5e875f10bde8373bdc2eac32,2020-08-10_18h46.45.815,lexical_decision_task_MP,2020.1.3,Win32,60,,z,0,,,,,,,,0.52256,0,,,,,,213,WORD,UN,50,intake,SQUEAL,m,0.52256,,,,,,0.088391906,-0.222044728,0,0,0,,0,34,34,212,1,
,,,,,,,,,,,,,,,,,,5e875f10bde8373bdc2eac32,2020-08-10_18h46.45.815,lexical_decision_task_MP,2020.1.3,Win32,60,,m,1,,,,,,,,0.784715,1,,,,,,38,WORD,"ID",33,powder,POWDER,m,0.784715,,,,,,0.088391906,-0.222044728,0,0,0,,0,35,35,37,1,
,,,,,,,,,,,,,,,,,,5e875f10bde8373bdc2eac32,2020-08-10_18h46.45.815,lexical_decision_task_MP,2020.1.3,Win32,60,,z,1,,,,,,,,0.71662,1,,,,,,322,NW,"ID",50,slanch,SLANCH,z,0.71662,,,,,,0.088391906,-0.222044728,0,0,0,,0,36,36,321,1,
,,,,,,,,,,,,,,,,,,5e875f10bde8373bdc2eac32,2020-08-10_18h46.45.815,lexical_decision_task_MP,2020.1.3,Win32,60,,z,1,,,,,,,,0.758945,1,,,,,,342,NW,"ID",50,randow,RANDOW,z,0.758945,,,,,,0.088391906,-0.222044728,0,0,0,,0,37,37,341,1,
,,,,,,,,,,,,,,,,,,5e875f10bde8373bdc2eac32,2020-08-10_18h46.45.815,lexical_decision_task_MP,2020.1.3,Win32,60,,z,0,,,,,,,,1.017345,0,,,,,,207,WORD,UN,50,hockey,WREATH,m,1.017345,,,,,,0.088391906,-0.222044728,0,0,0,,0,38,38,206,1,
,,,,,,,,,,,,,,,,,,5e875f10bde8373bdc2eac32,2020-08-10_18h46.45.815,lexical_decision_task_MP,2020.1.3,Win32,60,,m,0,,,,,,,,1.34688,0,,,,,,289,NW,"ID",33,starby,STARBY,z,1.34688,,,,,,0.088391906,-0.222044728,0,0,0,,0,39,39,288,1,
,,,,,,,,,,,,,,,,,,5e875f10bde8373bdc2eac32,2020-08-10_18h46.45.815,lexical_decision_task_MP,2020.1.3,Win32,60,,,0,,,,,,,,1.34688,-1,,,,,,187,WORD,UN,50,social,COURSE,m,,,,,,,0.642172524,0.460596379,0,0,0,,0,40,40,186,1,
,,,,,,,,,,,,,,,,,,5e875f10bde8373bdc2eac32,2020-08-10_18h46.45.815,lexical_decision_task_MP,2020.1.3,Win32,60,,z,0,,,,,,,,0.724925,0,,,,,,146,WORD,UN,33,garlic,COUPLE,m,0.724925,,,,,,0.52715655,0.210330138,0,0,0,,0,41,41,145,1,
,,,,,,,,,,,,,,,,,,5e875f10bde8373bdc2eac32,2020-08-10_18h46.45.815,lexical_decision_task_MP,2020.1.3,Win32,60,,m,1,,,,,,,,0.72202,1,,,,,,154,WORD,UN,33,lizard,AUTHOR,m,0.72202,,,,,,0.52715655,0.210330138,0,0,0,,0,42,42,153,1,
,,,,,,,,,,,,,,,,,,5e875f10bde8373bdc2eac32,2020-08-10_18h46.45.815,lexical_decision_task_MP,2020.1.3,Win32,60,,m,1,,,,,,,,0.750505,1,,,,,,6,WORD,"ID",33,bundle,BUNDLE,m,0.750505,,,,,,0.52715655,0.210330138,0,0,0,,0,43,43,5,1,
,,,,,,,,,,,,,,,,,,5e875f10bde8373bdc2eac32,2020-08-10_18h46.45.815,lexical_decision_task_MP,2020.1.3,Win32,60,,m,1,,,,,,,,0.9299,1,,,,,,94,WORD,"ID",50,travel,TRAVEL,m,0.9299,,,,,,0.52715655,0.210330138,0,0,0,,0,44,44,93,1,
,,,,,,,,,,,,,,,,,,5e875f10bde8373bdc2eac32,2020-08-10_18h46.45.815,lexical_decision_task_MP,2020.1.3,Win32,60,,z,1,,,,,,,,0.94682,1,,,,,,247,NW,"ID",33,blarge,BLARGE,z,0.94682,,,,,,0.52715655,0.210330138,0,0,0,,0,45,45,246,1,
,,,,,,,,,,,,,,,,,,5e875f10bde8373bdc2eac32,2020-08-10_18h46.45.815,lexical_decision_task_MP,2020.1.3,Win32,60,,z,1,,,,,,,,1.009645,1,,,,,,356,NW,"ID",50,othnis,OTHNIS,z,1.009645,,,,,,0.52715655,0.210330138,0,0,0,,0,46,46,355,1,
,,,,,,,,,,,,,,,,,,5e875f10bde8373bdc2eac32,2020-08-10_18h46.45.815,lexical_decision_task_MP,2020.1.3,Win32,60,,z,0,,,,,,,,1.04066,0,,,,,,107,WORD,"ID",50,slogan,SLOGAN,m,1.04066,,,,,,0.52715655,0.210330138,0,0,0,,0,47,47,106,1,
,,,,,,,,,,,,,,,,,,5e875f10bde8373bdc2eac32,2020-08-10_18h46.45.815,lexical_decision_task_MP,2020.1.3,Win32,60,,m,1,,,,,,,,0.650265,1,,,,,,72,WORD,"ID",50,bright,BRIGHT,m,0.650265,,,,,,0.52715655,0.210330138,0,0,0,,0,48,48,71,1,
,,,,,,,,,,,,,,,,,,5e875f10bde8373bdc2eac32,2020-08-10_18h46.45.815,lexical_decision_task_MP,2020.1.3,Win32,60,,z,1,,,,,,,,0.856195,1,,,,,,460,NW,UN,50,justre,MINGAR,z,0.856195,,,,,,0.52715655,0.210330138,0,0,0,,0,49,49,459,1,
,,,,,,,,,,,,,,,,,,5e875f10bde8373bdc2eac32,2020-08-10_18h46.45.815,lexical_decision_task_MP,2020.1.3,Win32,60,,z,1,,,,,,,,0.783515,1,,,,,,435,NW,UN,50,frutan,IMPURB,z,0.783515,,,,,,0.52715655,0.210330138,0,0,0,,0,50,50,434,1,
,,,,,,,,,,,,,,,,,,5e875f10bde8373bdc2eac32,2020-08-10_18h46.45.815,lexical_decision_task_MP,2020.1.3,Win32,60,,z,1,,,,,,,,0.776875,1,,,,,,306,NW,"ID",50,sounge,SOUNGE,z,0.776875,,,,,,0.52715655,0.210330138,0,0,0,,0,51,51,305,1,
,,,,,,,,,,,,,,,,,,5e875f10bde8373bdc2eac32,2020-08-10_18h46.45.815,lexical_decision_task_MP,2020.1.3,Win32,60,,m,1,,,,,,,,0.819045,1,,,,,,92,WORD,"ID",50,strand,STRAND,m,0.819045,,,,,,0.52715655,0.210330138,0,0,0,,0,52,52,91,1,
,,,,,,,,,,,,,,,,,,5e875f10bde8373bdc2eac32,2020-08-10_18h46.45.815,lexical_decision_task_MP,2020.1.3,Win32,60,,m,1,,,,,,,,0.76362,1,,,,,,49,WORD,"ID",33,survey,SURVEY,m,0.76362,,,,,,0.52715655,0.210330138,0,0,0,,0,53,53,48,1,
,,,,,,,,,,,,,,,,,,5e875f10bde8373bdc2eac32,2020-08-10_18h46.45.815,lexical_decision_task_MP,2020.1.3,Win32,60,,z,1,,,,,,,,1.00072,1,,,,,,316,NW,"ID",50,scregm,SCREGM,z,1.00072,,,,,,0.52715655,0.210330138,0,0,0,,0,54,54,315,1,
,,,,,,,,,,,,,,,,,,5e875f10bde8373bdc2eac32,2020-08-10_18h46.45.815,lexical_decision_task_MP,2020.1.3,Win32,60,,z,1,,,,,,,,0.93551,1,,,,,,472,NW,UN,50,crible,CIGNEY,z,0.93551,,,,,,0.52715655,0.210330138,0,0,0,,0,55,55,471,1,
,,,,,,,,,,,,,,,,,,5e875f10bde8373bdc2eac32,2020-08-10_18h46.45.815,lexical_decision_task_MP,2020.1.3,Win32,60,,z,1,,,,,,,,0.818455,1,,,,,,476,NW,UN,50,photie,JOSTED,z,0.818455,,,,,,0.52715655,0.210330138,0,0,0,,0,56,56,475,1,
,,,,,,,,,,,,,,,,,,5e875f10bde8373bdc2eac32,2020-08-10_18h46.45.815,lexical_decision_task_MP,2020.1.3,Win32,60,,z,0,,,,,,,,0.93369,0,,,,,,40,WORD,"ID",33,convey,CONVEY,m,0.93369,,,,,,0.52715655,0.210330138,0,0,0,,0,57,57,39,1,
,,,,,,,,,,,,,,,,,,5e875f10bde8373bdc2eac32,2020-08-10_18h46.45.815,lexical_decision_task_MP,2020.1.3,Win32,60,,z,1,,,,,,,,0.81641,1,,,,,,372,NW,UN,33,bigent,RAMILY,z,0.81641,,,,,,0.52715655,0.210330138,0,0,0,,0,58,58,371,1,
,,,,,,,,,,,,,,,,,,5e875f10bde8373bdc2eac32,2020-08-10_18h46.45.815,lexical_decision_task_MP,2020.1.3,Win32,60,,z,1,,,,,,,,0.71947,1,,,,,,333,NW,"ID",50,catrie,CATRIE,z,0.71947,,,,,,0.52715655,0.210330138,0,0,0,,0,59,59,332,1,
,,,,,,,,,,,,,,,,,,5e875f10bde8373bdc2eac32,2020-08-10_18h46.45.815,lexical_decision_task_MP,2020.1.3,Win32,60,,m,1,,,,,,,,0.782315,1,,,,,,28,WORD,"ID",33,comedy,COMEDY,m,0.782315,,,,,,0.52715655,0.210330138,0,0,0,,0,60,60,27,1,
,,,,,,,,,,,,,,,,,,5e875f10bde8373bdc2eac32,2020-08-10_18h46.45.815,lexical_decision_task_MP,2020.1.3,Win32,60,,z,0,,,,,,,,0.58037,0,,,,,,155,WORD,UN,33,cradle,LIZARD,m,0.58037,,,,,,0.52715655,0.210330138,0,0,0,,0,61,61,154,1,
,,,,,,,,,,,,,,,,,,5e875f10bde8373bdc2eac32,2020-08-10_18h46.45.815,lexical_decision_task_MP,2020.1.3,Win32,60,,m,0,,,,,,,,0.46656,0,,,,,,348,NW,"ID",50,dumple,DUMPLE,z,0.46656,,,,,,0.52715655,0.210330138,0,0,0,,0,62,62,347,1,
,,,,,,,,,,,,,,,,,,5e875f10bde8373bdc2eac32,2020-08-10_18h46.45.815,lexical_decision_task_MP,2020.1.3,Win32,60,,z,0,,,,,,,,0.29516,0,,,,,,134,WORD,UN,33,import,STAPLE,m,0.29516,,,,,,0.52715655,0.210330138,0,0,0,,0,63,63,133,1,
,,,,,,,,,,,,,,,,,,5e875f10bde8373bdc2eac32,2020-08-10_18h46.45.815,lexical_decision_task_MP,2020.1.3,Win32,60,,z,1,,,,,,,,1.205965,1,,,,,,401,NW,UN,33,elopia,MUSTIL,z,1.205965,,,,,,0.52715655,0.210330138,0,0,0,,0,64,64,400,1,
,,,,,,,,,,,,,,,,,,5e875f10bde8373bdc2eac32,2020-08-10_18h46.45.815,lexical_decision_task_MP,2020.1.3,Win32,60,,z,1,,,,,,,,0.263325,1,,,,,,275,NW,"ID",33,sleirt,SLEIRT,z,0.263325,,,,,,0.52715655,0.210330138,0,0,0,,0,65,65,274,1,
,,,,,,,,,,,,,,,,,,5e875f10bde8373bdc2eac32,2020-08-10_18h46.45.815,lexical_decision_task_MP,2020.1.3,Win32,60,,z,1,,,,,,,,0.02307,1,,,,,,402,NW,UN,33,bruats,SYNTIC,z,0.02307,,,,,,0.52715655,0.210330138,0,0,0,,0,66,66,401,1,
,,,,,,,,,,,,,,,,,,5e875f10bde8373bdc2eac32,2020-08-10_18h46.45.815,lexical_decision_task_MP,2020.1.3,Win32,60,,z,0,,,,,,,,0.006665,0,,,,,,230,WORD,UN,50,export,FRINGE,m,0.006665,,,,,,0.52715655,0.210330138,0,0,0,,0,67,67,229,1,
,,,,,,,,,,,,,,,,,,5e875f10bde8373bdc2eac32,2020-08-10_18h46.45.815,lexical_decision_task_MP,2020.1.3,Win32,60,,z,0,,,,,,,,0.007515,0,,,,,,188,WORD,UN,50,censor,SOCIAL,m,0.007515,,,,,,0.52715655,0.210330138,0,0,0,,0,68,68,187,1,
,,,,,,,,,,,,,,,,,,5e875f10bde8373bdc2eac32,2020-08-10_18h46.45.815,lexical_decision_task_MP,2020.1.3,Win32,60,,m,1,,,,,,,,0.023785,1,,,,,,87,WORD,"ID",50,filter,FILTER,m,0.023785,,,,,,0.52715655,0.210330138,0,0,0,,0,69,69,86,1,
,,,,,,,,,,,,,,,,,,5e875f10bde8373bdc2eac32,2020-08-10_18h46.45.815,lexical_decision_task_MP,2020.1.3,Win32,60,,z,0,,,,,,,,0.065955,0,,,,,,23,WORD,"ID",33,wealth,WEALTH,m,0.065955,,,,,,0.52715655,0.210330138,0,0,0,,0,70,70,22,1,
,,,,,,,,,,,,,,,,,,5e875f10bde8373bdc2eac32,2020-08-10_18h46.45.815,lexical_decision_task_MP,2020.1.3,Win32,60,,m,1,,,,,,,,0.03936,1,,,,,,95,WORD,"ID",50,thread,THREAD,m,0.03936,,,,,,0.52715655,0.210330138,0,0,0,,0,71,71,94,1,
,,,,,,,,,,,,,,,,,,5e875f10bde8373bdc2eac32,2020-08-10_18h46.45.815,lexical_decision_task_MP,2020.1.3,Win32,60,,m,1,,,,,,,,0.534925,1,,,,,,75,WORD,"ID",50,trophy,TROPHY,m,0.534925,,,,,,0.52715655,0.210330138,0,0,0,,0,72,72,74,1,
,,,,,,,,,,,,,,,,,,5e875f10bde8373bdc2eac32,2020-08-10_18h46.45.815,lexical_decision_task_MP,2020.1.3,Win32,60,,m,1,,,,,,,,0.283425,1,,,,,,7,WORD,"ID",33,anchor,ANCHOR,m,0.283425,,,,,,0.52715655,0.210330138,0,0,0,,0,73,73,6,1,
,,,,,,,,,,,,,,,,,,5e875f10bde8373bdc2eac32,2020-08-10_18h46.45.815,lexical_decision_task_MP,2020.1.3,Win32,60,,z,0,,,,,,,,0.00875,0,,,,,,51,WORD,"ID",33,hungry,HUNGRY,m,0.00875,,,,,,0.52715655,0.210330138,0,0,0,,0,74,74,50,1,
,,,,,,,,,,,,,,,,,,5e875f10bde8373bdc2eac32,2020-08-10_18h46.45.815,lexical_decision_task_MP,2020.1.3,Win32,60,,z,0,,,,,,,,0.25722,0,,,,,,110,WORD,"ID",50,polite,POLITE,m,0.25722,,,,,,0.52715655,0.210330138,0,0,0,,0,75,75,109,1,
,,,,,,,,,,,,,,,,,,5e875f10bde8373bdc2eac32,2020-08-10_18h46.45.815,lexical_decision_task_MP,2020.1.3,Win32,60,,m,0,,,,,,,,0.536035,0,,,,,,358,NW,"ID",50,fleack,FLEACK,z,0.536035,,,,,,0.52715655,0.210330138,0,0,0,,0,76,76,357,1,
,,,,,,,,,,,,,,,,,,5e875f10bde8373bdc2eac32,2020-08-10_18h46.45.815,lexical_decision_task_MP,2020.1.3,Win32,60,,z,1,,,,,,,,0.34874,1,,,,,,248,NW,"ID",33,strole,STROLE,z,0.34874,,,,,,0.52715655,0.210330138,0,0,0,,0,77,77,247,1,
,,,,,,,,,,,,,,,,,,5e875f10bde8373bdc2eac32,2020-08-10_18h46.45.815,lexical_decision_task_MP,2020.1.3,Win32,60,,m,0,,,,,,,,0.45516,0,,,,,,480,NW,UN,50,knisma,ROBULY,z,0.45516,,,,,,0.52715655,0.210330138,0,0,0,,0,78,78,479,1,
,,,,,,,,,,,,,,,,,,5e875f10bde8373bdc2eac32,2020-08-10_18h46.45.815,lexical_decision_task_MP,2020.1.3,Win32,60,,z,0,,,,,,,,0.277585,0,,,,,,141,WORD,UN,33,spruce,ORPHAN,m,0.277585,,,,,,0.52715655,0.210330138,0,0,0,,0,79,79,140,1,
,,,,,,,,,,,,,,,,,,5e875f10bde8373bdc2eac32,2020-08-10_18h46.45.815,lexical_decision_task_MP,2020.1.3,Win32,60,,z,1,,,,,,,,0.509045,1,,,,,,296,NW,"ID",33,beinch,BEINCH,z,0.509045,,,,,,0.52715655,0.210330138,0,0,0,,0,80,80,295,1,
,,,,,,,,,,,,,,,,,,5e875f10bde8373bdc2eac32,2020-08-10_18h46.45.815,lexical_decision_task_MP,2020.1.3,Win32,60,,z,1,,,,,,,,0.54646,1,,,,,,415,NW,UN,33,pathel,HIGSTA,z,0.54646,,,,,,0.52715655,0.210330138,0,0,0,,0,81,81,414,1,
,,,,,,,,,,,,,,,,,,5e875f10bde8373bdc2eac32,2020-08-10_18h46.45.815,lexical_decision_task_MP,2020.1.3,Win32,60,,z,1,,,,,,,,0.67038,1,,,,,,276,NW,"ID",33,yarmon,YARMON,z,0.67038,,,,,,0.52715655,0.210330138,0,0,0,,0,82,82,275,1,
,,,,,,,,,,,,,,,,,,5e875f10bde8373bdc2eac32,2020-08-10_18h46.45.815,lexical_decision_task_MP,2020.1.3,Win32,60,,z,1,,,,,,,,0.54181,1,,,,,,259,NW,"ID",33,soudal,SOUDAL,z,0.54181,,,,,,0.52715655,0.210330138,0,0,0,,0,83,83,258,1,
,,,,,,,,,,,,,,,,,,5e875f10bde8373bdc2eac32,2020-08-10_18h46.45.815,lexical_decision_task_MP,2020.1.3,Win32,60,,m,0,,,,,,,,0.608255,0,,,,,,341,NW,"ID",50,myrtie,MYRTIE,z,0.608255,,,,,,0.52715655,0.210330138,0,0,0,,0,84,84,340,1,
,,,,,,,,,,,,,,,,,,5e875f10bde8373bdc2eac32,2020-08-10_18h46.45.815,lexical_decision_task_MP,2020.1.3,Win32,60,,m,1,,,,,,,,0.63492,1,,,,,,170,WORD,UN,33,depart,POUNCE,m,0.63492,,,,,,0.52715655,0.210330138,0,0,0,,0,85,85,169,1,
,,,,,,,,,,,,,,,,,,5e875f10bde8373bdc2eac32,2020-08-10_18h46.45.815,lexical_decision_task_MP,2020.1.3,Win32,60,,z,1,,,,,,,,0.43238,1,,,,,,479,NW,UN,50,josted,LOBUSH,z,0.43238,,,,,,0.52715655,0.210330138,0,0,0,,0,86,86,478,1,
,,,,,,,,,,,,,,,,,,5e875f10bde8373bdc2eac32,2020-08-10_18h46.45.815,lexical_decision_task_MP,2020.1.3,Win32,60,,z,1,,,,,,,,0.56165,1,,,,,,241,NW,"ID",33,smenco,SMENCO,z,0.56165,,,,,,0.52715655,0.210330138,0,0,0,,0,87,87,240,1,
,,,,,,,,,,,,,,,,,,5e875f10bde8373bdc2eac32,2020-08-10_18h46.45.815,lexical_decision_task_MP,2020.1.3,Win32,60,,z,0,,,,,,,,0.566525,0,,,,,,215,WORD,UN,50,behalf,PHOBIA,m,0.566525,,,,,,0.52715655,0.210330138,0,0,0,,0,88,88,214,1,
,,,,,,,,,,,,,,,,,,5e875f10bde8373bdc2eac32,2020-08-10_18h46.45.815,lexical_decision_task_MP,2020.1.3,Win32,60,,z,1,,,,,,,,0.49103,1,,,,,,393,NW,UN,33,spaqux,GANOUS,z,0.49103,,,,,,0.52715655,0.210330138,0,0,0,,0,89,89,392,1,
,,,,,,,,,,,,,,,,,,5e875f10bde8373bdc2eac32,2020-08-10_18h46.45.815,lexical_decision_task_MP,2020.1.3,Win32,60,,z,0,,,,,,,,0.773325,0,,,,,,4,WORD,"ID",33,trench,TRENCH,m,0.773325,,,,,,0.52715655,0.210330138,0,0,0,,0,90,90,3,1,
,,,,,,,,,,,,,,,,,,5e875f10bde8373bdc2eac32,2020-08-10_18h46.45.815,lexical_decision_task_MP,2020.1.3,Win32,60,,z,0,,,,,,,,0.615695,0,,,,,,1,WORD,"ID",33,fright,FRIGHT,m,0.615695,,,,,,0.52715655,0.210330138,0,0,0,,0,91,91,0,1,
,,,,,,,,,,,,,,,,,,5e875f10bde8373bdc2eac32,2020-08-10_18h46.45.815,lexical_decision_task_MP,2020.1.3,Win32,60,,m,1,,,,,,,,0.7288,1,,,,,,71,WORD,"ID",50,garden,GARDEN,m,0.7288,,,,,,0.52715655,0.210330138,0,0,0,,0,92,92,70,1,
,,,,,,,,,,,,,,,,,,5e875f10bde8373bdc2eac32,2020-08-10_18h46.45.815,lexical_decision_task_MP,2020.1.3,Win32,60,,m,1,,,,,,,,0.984045,1,,,,,,47,WORD,"ID",33,income,INCOME,m,0.984045,,,,,,0.52715655,0.210330138,0,0,0,,0,93,93,46,1,
,,,,,,,,,,,,,,,,,,5e875f10bde8373bdc2eac32,2020-08-10_18h46.45.815,lexical_decision_task_MP,2020.1.3,Win32,60,,m,0,,,,,,,,0.79192,0,,,,,,260,NW,"ID",33,unject,UNJECT,z,0.79192,,,,,,0.52715655,0.210330138,0,0,0,,0,94,94,259,1,
,,,,,,,,,,,,,,,,,,5e875f10bde8373bdc2eac32,2020-08-10_18h46.45.815,lexical_decision_task_MP,2020.1.3,Win32,60,,z,0,,,,,,,,0.970115,0,,,,,,11,WORD,"ID",33,cruise,CRUISE,m,0.970115,,,,,,0.52715655,0.210330138,0,0,0,,0,95,95,10,1,
,,,,,,,,,,,,,,,,,,5e875f10bde8373bdc2eac32,2020-08-10_18h46.45.815,lexical_decision_task_MP,2020.1.3,Win32,60,,z,1,,,,,,,,0.78353,1,,,,,,399,NW,UN,33,wearox,FOURET,z,0.78353,,,,,,0.52715655,0.210330138,0,0,0,,0,96,96,398,1,
,,,,,,,,,,,,,,,,,,5e875f10bde8373bdc2eac32,2020-08-10_18h46.45.815,lexical_decision_task_MP,2020.1.3,Win32,60,,z,1,,,,,,,,0.927375,1,,,,,,375,NW,UN,33,iguare,YORQUE,z,0.927375,,,,,,0.52715655,0.210330138,0,0,0,,0,97,97,374,1,
,,,,,,,,,,,,,,,,,,5e875f10bde8373bdc2eac32,2020-08-10_18h46.45.815,lexical_decision_task_MP,2020.1.3,Win32,60,,m,1,,,,,,,,0.579115,1,,,,,,202,WORD,UN,50,phrase,FACTOR,m,0.579115,,,,,,0.52715655,0.210330138,0,0,0,,0,98,98,201,1,
,,,,,,,,,,,,,,,,,,5e875f10bde8373bdc2eac32,2020-08-10_18h46.45.815,lexical_decision_task_MP,2020.1.3,Win32,60,,z,1,,,,,,,,0.79993,1,,,,,,423,NW,UN,50,praile,STRELD,z,0.79993,,,,,,0.52715655,0.210330138,0,0,0,,0,99,99,422,1,
,,,,,,,,,,,,,,,,,,5e875f10bde8373bdc2eac32,2020-08-10_18h46.45.815,lexical_decision_task_MP,2020.1.3,Win32,60,,z,1,,,,,,,,1.05548,1,,,,,,406,NW,UN,33,suiver,NOUPLY,z,1.05548,,,,,,0.52715655,0.210330138,0,0,0,,0,100,100,405,1,
,,,,,,,,,,,,,,,,,,5e875f10bde8373bdc2eac32,2020-08-10_18h46.45.815,lexical_decision_task_MP,2020.1.3,Win32,60,,z,1,,,,,,,,0.70122,1,,,,,,336,NW,"ID",50,ghodus,GHODUS,z,0.70122,,,,,,0.52715655,0.210330138,0,0,0,,0,101,101,335,1,
,,,,,,,,,,,,,,,,,,5e875f10bde8373bdc2eac32,2020-08-10_18h46.45.815,lexical_decision_task_MP,2020.1.3,Win32,60,,z,1,,,,,,,,1.150465,1,,,,,,365,NW,UN,33,toshel,GUAIRT,z,1.150465,,,,,,0.52715655,0.210330138,0,0,0,,0,102,102,364,1,
,,,,,,,,,,,,,,,,,,5e875f10bde8373bdc2eac32,2020-08-10_18h46.45.815,lexical_decision_task_MP,2020.1.3,Win32,60,,z,1,,,,,,,,0.967095,1,,,,,,448,NW,UN,50,brunge,SADENT,z,0.967095,,,,,,0.52715655,0.210330138,0,0,0,,0,103,103,447,1,
,,,,,,,,,,,,,,,,,,5e875f10bde8373bdc2eac32,2020-08-10_18h46.45.815,lexical_decision_task_MP,2020.1.3,Win32,60,,z,1,,,,,,,,1.034525,1,,,,,,324,NW,"ID",50,steikh,STEIKH,z,1.034525,,,,,,0.52715655,0.210330138,0,0,0,,0,104,104,323,1,
,,,,,,,,,,,,,,,,,,5e875f10bde8373bdc2eac32,2020-08-10_18h46.45.815,lexical_decision_task_MP,2020.1.3,Win32,60,,m,1,,,,,,,,0.911645,1,,,,,,35,WORD,"ID",33,socket,SOCKET,m,0.911645,,,,,,0.52715655,0.210330138,0,0,0,,0,105,105,34,1,
,,,,,,,,,,,,,,,,,,5e875f10bde8373bdc2eac32,2020-08-10_18h46.45.815,lexical_decision_task_MP,2020.1.3,Win32,60,,z,1,,,,,,,,0.81386,1,,,,,,432,NW,UN,50,drance,LUNKER,z,0.81386,,,,,,0.52715655,0.210330138,0,0,0,,0,106,106,431,1,
,,,,,,,,,,,,,,,,,,5e875f10bde8373bdc2eac32,2020-08-10_18h46.45.815,lexical_decision_task_MP,2020.1.3,Win32,60,,m,1,,,,,,,,0.604595,1,,,,,,104,WORD,"ID",50,studio,STUDIO,m,0.604595,,,,,,0.52715655,0.210330138,0,0,0,,0,107,107,103,1,
,,,,,,,,,,,,,,,,,,5e875f10bde8373bdc2eac32,2020-08-10_18h46.45.815,lexical_decision_task_MP,2020.1.3,Win32,60,,z,1,,,,,,,,0.652095,1,,,,,,284,NW,"ID",33,shaple,SHAPLE,z,0.652095,,,,,,0.52715655,0.210330138,0,0,0,,0,108,108,283,1,
,,,,,,,,,,,,,,,,,,5e875f10bde8373bdc2eac32,2020-08-10_18h46.45.815,lexical_decision_task_MP,2020.1.3,Win32,60,,m,1,,,,,,,,0.575185,1,,,,,,34,WORD,"ID",33,jungle,JUNGLE,m,0.575185,,,,,,0.52715655,0.210330138,0,0,0,,0,109,109,33,1,
,,,,,,,,,,,,,,,,,,5e875f10bde8373bdc2eac32,2020-08-10_18h46.45.815,lexical_decision_task_MP,2020.1.3,Win32,60,,m,1,,,,,,,,1.209795,1,,,,,,140,WORD,UN,33,reason,PRINCE,m,1.209795,,,,,,0.52715655,0.210330138,0,0,0,,0,110,110,139,1,
,,,,,,,,,,,,,,,,,,5e875f10bde8373bdc2eac32,2020-08-10_18h46.45.815,lexical_decision_task_MP,2020.1.3,Win32,60,,z,1,,,,,,,,0.986065,1,,,,,,455,NW,UN,50,broget,TONDLE,z,0.986065,,,,,,0.52715655,0.210330138,0,0,0,,0,111,111,454,1,
,,,,,,,,,,,,,,,,,,5e875f10bde8373bdc2eac32,2020-08-10_18h46.45.815,lexical_decision_task_MP,2020.1.3,Win32,60,,z,1,,,,,,,,0.75618,1,,,,,,323,NW,"ID",50,rosail,ROSAIL,z,0.75618,,,,,,0.52715655,0.210330138,0,0,0,,0,112,112,322,1,
,,,,,,,,,,,,,,,,,,5e875f10bde8373bdc2eac32,2020-08-10_18h46.45.815,lexical_decision_task_MP,2020.1.3,Win32,60,,z,1,,,,,,,,0.719335,1,,,,,,315,NW,"ID",50,laston,LASTON,z,0.719335,,,,,,0.52715655,0.210330138,0,0,0,,0,113,113,314,1,
,,,,,,,,,,,,,,,,,,5e875f10bde8373bdc2eac32,2020-08-10_18h46.45.815,lexical_decision_task_MP,2020.1.3,Win32,60,,m,1,,,,,,,,1.17943,1,,,,,,200,WORD,UN,50,admire,BEACON,m,1.17943,,,,,,0.52715655,0.210330138,0,0,0,,0,114,114,199,1,
,,,,,,,,,,,,,,,,,,5e875f10bde8373bdc2eac32,2020-08-10_18h46.45.815,lexical_decision_task_MP,2020.1.3,Win32,60,,z,0,,,,,,,,1.26214,0,,,,,,198,WORD,UN,50,invoke,WICKED,m,1.26214,,,,,,0.52715655,0.210330138,0,0,0,,0,115,115,197,1,
,,,,,,,,,,,,,,,,,,5e875f10bde8373bdc2eac32,2020-08-10_18h46.45.815,lexical_decision_task_MP,2020.1.3,Win32,60,,z,0,,,,,,,,0.731805,0,,,,,,101,WORD,"ID",50,wrench,WRENCH,m,0.731805,,,,,,0.52715655,0.210330138,0,0,0,,0,116,116,100,1,
,,,,,,,,,,,,,,,,,,5e875f10bde8373bdc2eac32,2020-08-10_18h46.45.815,lexical_decision_task_MP,2020.1.3,Win32,60,,m,1,,,,,,,,0.67269,1,,,,,,22,WORD,"ID",33,jockey,JOCKEY,m,0.67269,,,,,,0.52715655,0.210330138,0,0,0,,0,117,117,21,1,
,,,,,,,,,,,,,,,,,,5e875f10bde8373bdc2eac32,2020-08-10_18h46.45.815,lexical_decision_task_MP,2020.1.3,Win32,60,,z,1,,,,,,,,0.846905,1,,,,,,360,NW,"ID",50,desory,DESORY,z,0.846905,,,,,,0.52715655,0.210330138,0,0,0,,0,118,118,359,1,
,,,,,,,,,,,,,,,,,,5e875f10bde8373bdc2eac32,2020-08-10_18h46.45.815,lexical_decision_task_MP,2020.1.3,Win32,60,,m,1,,,,,,,,1.13243,1,,,,,,84,WORD,"ID",50,mortal,MORTAL,m,1.13243,,,,,,0.52715655,0.210330138,0,0,0,,0,119,119,83,1,
,,,,,,,,,,,,,,,,,,5e875f10bde8373bdc2eac32,2020-08-10_18h46.45.815,lexical_decision_task_MP,2020.1.3,Win32,60,,z,1,,,,,,,,0.70614,1,,,,,,369,NW,UN,33,sleact,WRONCH,z,0.70614,,,,,,0.063897764,-0.398828541,1,0,0,,0,120,120,368,1,break_done_button
,,,,,,,,,,,,,,,,,,5e875f10bde8373bdc2eac32,2020-08-10_18h46.45.815,lexical_decision_task_MP,2020.1.3,Win32,60,,m,1,,,,,,,,0.71958,1,,,,,,196,WORD,UN,50,stream,CREDIT,m,0.71958,,,,,,0.102236422,-0.184771033,0,0,0,,0,121,121,195,1,
,,,,,,,,,,,,,,,,,,5e875f10bde8373bdc2eac32,2020-08-10_18h46.45.815,lexical_decision_task_MP,2020.1.3,Win32,60,,m,1,,,,,,,,0.611635,1,,,,,,228,WORD,UN,50,inject,MASTER,m,0.611635,,,,,,0.102236422,-0.184771033,0,0,0,,0,122,122,227,1,
,,,,,,,,,,,,,,,,,,5e875f10bde8373bdc2eac32,2020-08-10_18h46.45.815,lexical_decision_task_MP,2020.1.3,Win32,60,,m,1,,,,,,,,1.350235,1,,,,,,62,WORD,"ID",50,region,REGION,m,1.350235,,,,,,0.102236422,-0.184771033,0,0,0,,0,123,123,61,1,
,,,,,,,,,,,,,,,,,,5e875f10bde8373bdc2eac32,2020-08-10_18h46.45.815,lexical_decision_task_MP,2020.1.3,Win32,60,,z,1,,,,,,,,0.680435,1,,,,,,409,NW,UN,33,tunory,ELOPIA,z,0.680435,,,,,,0.102236422,-0.184771033,0,0,0,,0,124,124,408,1,
,,,,,,,,,,,,,,,,,,5e875f10bde8373bdc2eac32,2020-08-10_18h46.45.815,lexical_decision_task_MP,2020.1.3,Win32,60,,z,1,,,,,,,,0.790505,1,,,,,,249,NW,"ID",33,batrol,BATROL,z,0.790505,,,,,,0.102236422,-0.184771033,0,0,0,,0,125,125,248,1,
,,,,,,,,,,,,,,,,,,5e875f10bde8373bdc2eac32,2020-08-10_18h46.45.815,lexical_decision_task_MP,2020.1.3,Win32,60,,z,0,,,,,,,,0.689545,0,,,,,,239,WORD,UN,50,forest,LUMBER,m,0.689545,,,,,,0.102236422,-0.184771033,0,0,0,,0,126,126,238,1,
,,,,,,,,,,,,,,,,,,5e875f10bde8373bdc2eac32,2020-08-10_18h46.45.815,lexical_decision_task_MP,2020.1.3,Win32,60,,m,1,,,,,,,,0.637675,1,,,,,,237,WORD,UN,50,seldom,POSTER,m,0.637675,,,,,,0.102236422,-0.184771033,0,0,0,,0,127,127,236,1,
,,,,,,,,,,,,,,,,,,5e875f10bde8373bdc2eac32,2020-08-10_18h46.45.815,lexical_decision_task_MP,2020.1.3,Win32,60,,m,1,,,,,,,,0.877765,1,,,,,,182,WORD,UN,50,basket,WINTER,m,0.877765,,,,,,0.102236422,-0.184771033,0,0,0,,0,128,128,181,1,
,,,,,,,,,,,,,,,,,,5e875f10bde8373bdc2eac32,2020-08-10_18h46.45.815,lexical_decision_task_MP,2020.1.3,Win32,60,,z,1,,,,,,,,0.750065,1,,,,,,446,NW,UN,50,gircue,RUNAMO,z,0.750065,,,,,,0.102236422,-0.184771033,0,0,0,,0,129,129,445,1,
,,,,,,,,,,,,,,,,,,5e875f10bde8373bdc2eac32,2020-08-10_18h46.45.815,lexical_decision_task_MP,2020.1.3,Win32,60,,z,1,,,,,,,,1.150285,1,,,,,,345,NW,"ID",50,absend,ABSEND,z,1.150285,,,,,,0.102236422,-0.184771033,0,0,0,,0,130,130,344,1,
,,,,,,,,,,,,,,,,,,5e875f10bde8373bdc2eac32,2020-08-10_18h46.45.815,lexical_decision_task_MP,2020.1.3,Win32,60,,z,1,,,,,,,,0.60084,1,,,,,,329,NW,"ID",50,yarike,YARIKE,z,0.60084,,,,,,0.102236422,-0.184771033,0,0,0,,0,131,131,328,1,
,,,,,,,,,,,,,,,,,,5e875f10bde8373bdc2eac32,2020-08-10_18h46.45.815,lexical_decision_task_MP,2020.1.3,Win32,60,,m,1,,,,,,,,0.699235,1,,,,,,221,WORD,UN,50,hinder,MASCOT,m,0.699235,,,,,,0.102236422,-0.184771033,0,0,0,,0,132,132,220,1,
,,,,,,,,,,,,,,,,,,5e875f10bde8373bdc2eac32,2020-08-10_18h46.45.815,lexical_decision_task_MP,2020.1.3,Win32,60,,z,0,,,,,,,,0.710955,0,,,,,,66,WORD,"ID",50,gospel,GOSPEL,m,0.710955,,,,,,0.102236422,-0.184771033,0,0,0,,0,133,133,65,1,
,,,,,,,,,,,,,,,,,,5e875f10bde8373bdc2eac32,2020-08-10_18h46.45.815,lexical_decision_task_MP,2020.1.3,Win32,60,,m,1,,,,,,,,0.820405,1,,,,,,203,WORD,UN,50,burden,PHRASE,m,0.820405,,,,,,0.102236422,-0.184771033,0,0,0,,0,134,134,202,1,
,,,,,,,,,,,,,,,,,,5e875f10bde8373bdc2eac32,2020-08-10_18h46.45.815,lexical_decision_task_MP,2020.1.3,Win32,60,,m,1,,,,,,,,0.837205,1,,,,,,166,WORD,UN,33,design,STARCH,m,0.837205,,,,,,0.102236422,-0.184771033,0,0,0,,0,135,135,165,1,
,,,,,,,,,,,,,,,,,,5e875f10bde8373bdc2eac32,2020-08-10_18h46.45.815,lexical_decision_task_MP,2020.1.3,Win32,60,,m,1,,,,,,,,0.63592,1,,,,,,193,WORD,UN,50,plague,OBJECT,m,0.63592,,,,,,0.102236422,-0.184771033,0,0,0,,0,136,136,192,1,
,,,,,,,,,,,,,,,,,,5e875f10bde8373bdc2eac32,2020-08-10_18h46.45.815,lexical_decision_task_MP,2020.1.3,Win32,60,,m,1,,,,,,,,0.667685,1,,,,,,93,WORD,"ID",50,public,PUBLIC,m,0.667685,,,,,,0.102236422,-0.184771033,0,0,0,,0,137,137,92,1,
,,,,,,,,,,,,,,,,,,5e875f10bde8373bdc2eac32,2020-08-10_18h46.45.815,lexical_decision_task_MP,2020.1.3,Win32,60,,m,1,,,,,,,,0.80184,1,,,,,,212,WORD,UN,50,squeal,VERIFY,m,0.80184,,,,,,0.102236422,-0.184771033,0,0,0,,0,138,138,211,1,
,,,,,,,,,,,,,,,,,,5e875f10bde8373bdc2eac32,2020-08-10_18h46.45.815,lexical_decision_task_MP,2020.1.3,Win32,60,,m,1,,,,,,,,0.61842,1,,,,,,172,WORD,UN,33,shower,PATROL,m,0.61842,,,,,,0.102236422,-0.184771033,0,0,0,,0,139,139,171,1,
,,,,,,,,,,,,,,,,,,5e875f10bde8373bdc2eac32,2020-08-10_18h46.45.815,lexical_decision_task_MP,2020.1.3,Win32,60,,m,0,,,,,,,,0.7635,0,,,,,,475,NW,UN,50,robuly,PEBRIC,z,0.7635,,,,,,0.102236422,-0.184771033,0,0,0,,0,140,140,474,1,
,,,,,,,,,,,,,,,,,,5e875f10bde8373bdc2eac32,2020-08-10_18h46.45.815,lexical_decision_task_MP,2020.1.3,Win32,60,,m,1,,,,,,,,0.86291,1,,,,,,191,WORD,UN,50,absent,STABLE,m,0.86291,,,,,,0.102236422,-0.184771033,0,0,0,,0,141,141,190,1,
,,,,,,,,,,,,,,,,,,5e875f10bde8373bdc2eac32,2020-08-10_18h46.45.815,lexical_decision_task_MP,2020.1.3,Win32,60,,z,1,,,,,,,,0.59018,1,,,,,,256,NW,"ID",33,inlors,INLORS,z,0.59018,,,,,,0.102236422,-0.184771033,0,0,0,,0,142,142,255,1,
,,,,,,,,,,,,,,,,,,5e875f10bde8373bdc2eac32,2020-08-10_18h46.45.815,lexical_decision_task_MP,2020.1.3,Win32,60,,m,0,,,,,,,,1.00777,0,,,,,,246,NW,"ID",33,piaton,PIATON,z,1.00777,,,,,,0.102236422,-0.184771033,0,0,0,,0,143,143,245,1,
,,,,,,,,,,,,,,,,,,5e875f10bde8373bdc2eac32,2020-08-10_18h46.45.815,lexical_decision_task_MP,2020.1.3,Win32,60,,z,0,,,,,,,,0.952415,0,,,,,,79,WORD,"ID",50,theory,THEORY,m,0.952415,,,,,,0.102236422,-0.184771033,0,0,0,,0,144,144,78,1,
,,,,,,,,,,,,,,,,,,5e875f10bde8373bdc2eac32,2020-08-10_18h46.45.815,lexical_decision_task_MP,2020.1.3,Win32,60,,m,1,,,,,,,,1.052835,1,,,,,,177,WORD,UN,33,inform,ADVENT,m,1.052835,,,,,,0.102236422,-0.184771033,0,0,0,,0,145,145,176,1,
,,,,,,,,,,,,,,,,,,5e875f10bde8373bdc2eac32,2020-08-10_18h46.45.815,lexical_decision_task_MP,2020.1.3,Win32,60,,m,1,,,,,,,,0.75468,1,,,,,,210,WORD,UN,50,infect,MONKEY,m,0.75468,,,,,,0.102236422,-0.184771033,0,0,0,,0,146,146,209,1,
,,,,,,,,,,,,,,,,,,5e875f10bde8373bdc2eac32,2020-08-10_18h46.45.815,lexical_decision_task_MP,2020.1.3,Win32,60,,z,1,,,,,,,,0.799715,1,,,,,,442,NW,UN,50,dorsex,ABOUNE,z,0.799715,,,,,,0.102236422,-0.184771033,0,0,0,,0,147,147,441,1,
,,,,,,,,,,,,,,,,,,5e875f10bde8373bdc2eac32,2020-08-10_18h46.45.815,lexical_decision_task_MP,2020.1.3,Win32,60,,z,0,,,,,,,,0.82337,0,,,,,,184,WORD,UN,50,bother,SLEAZY,m,0.82337,,,,,,0.102236422,-0.184771033,0,0,0,,0,148,148,183,1,
,,,,,,,,,,,,,,,,,,5e875f10bde8373bdc2eac32,2020-08-10_18h46.45.815,lexical_decision_task_MP,2020.1.3,Win32,60,,m,0,,,,,,,,0.91187,0,,,,,,366,NW,UN,33,slique,TOSHEL,z,0.91187,,,,,,0.102236422,-0.184771033,0,0,0,,0,149,149,365,1,
,,,,,,,,,,,,,,,,,,5e875f10bde8373bdc2eac32,2020-08-10_18h46.45.815,lexical_decision_task_MP,2020.1.3,Win32,60,,z,1,,,,,,,,0.819965,1,,,,,,467,NW,UN,50,wictor,GORBIE,z,0.819965,,,,,,0.102236422,-0.184771033,0,0,0,,0,150,150,466,1,
,,,,,,,,,,,,,,,,,,5e875f10bde8373bdc2eac32,2020-08-10_18h46.45.815,lexical_decision_task_MP,2020.1.3,Win32,60,,z,1,,,,,,,,0.740365,1,,,,,,331,NW,"ID",50,gilfew,GILFEW,z,0.740365,,,,,,0.102236422,-0.184771033,0,0,0,,0,151,151,330,1,
,,,,,,,,,,,,,,,,,,5e875f10bde8373bdc2eac32,2020-08-10_18h46.45.815,lexical_decision_task_MP,2020.1.3,Win32,60,,m,1,,,,,,,,0.777315,1,,,,,,54,WORD,"ID",33,ramble,RAMBLE,m,0.777315,,,,,,0.102236422,-0.184771033,0,0,0,,0,152,152,53,1,
,,,,,,,,,,,,,,,,,,5e875f10bde8373bdc2eac32,2020-08-10_18h46.45.815,lexical_decision_task_MP,2020.1.3,Win32,60,,m,1,,,,,,,,0.98686,1,,,,,,111,WORD,"ID",50,induce,INDUCE,m,0.98686,,,,,,0.102236422,-0.184771033,0,0,0,,0,153,153,110,1,
,,,,,,,,,,,,,,,,,,5e875f10bde8373bdc2eac32,2020-08-10_18h46.45.815,lexical_decision_task_MP,2020.1.3,Win32,60,,z,1,,,,,,,,0.773125,1,,,,,,281,NW,"ID",33,melaty,MELATY,z,0.773125,,,,,,0.102236422,-0.184771033,0,0,0,,0,154,154,280,1,
,,,,,,,,,,,,,,,,,,5e875f10bde8373bdc2eac32,2020-08-10_18h46.45.815,lexical_decision_task_MP,2020.1.3,Win32,60,,m,1,,,,,,,,1.017425,1,,,,,,136,WORD,UN,33,finger,BLEACH,m,1.017425,,,,,,0.102236422,-0.184771033,0,0,0,,0,155,155,135,1,
,,,,,,,,,,,,,,,,,,5e875f10bde8373bdc2eac32,2020-08-10_18h46.45.815,lexical_decision_task_MP,2020.1.3,Win32,60,,m,1,,,,,,,,0.720295,1,,,,,,88,WORD,"ID",50,hunger,HUNGER,m,0.720295,,,,,,0.102236422,-0.184771033,0,0,0,,0,156,156,87,1,
,,,,,,,,,,,,,,,,,,5e875f10bde8373bdc2eac32,2020-08-10_18h46.45.815,lexical_decision_task_MP,2020.1.3,Win32,60,,z,0,,,,,,,,0.709735,0,,,,,,16,WORD,"ID",33,faucet,FAUCET,m,0.709735,,,,,,0.102236422,-0.184771033,0,0,0,,0,157,157,15,1,
,,,,,,,,,,,,,,,,,,5e875f10bde8373bdc2eac32,2020-08-10_18h46.45.815,lexical_decision_task_MP,2020.1.3,Win32,60,,z,0,,,,,,,,0.79397,0,,,,,,91,WORD,"ID",50,expand,EXPAND,m,0.79397,,,,,,0.102236422,-0.184771033,0,0,0,,0,158,158,90,1,
,,,,,,,,,,,,,,,,,,5e875f10bde8373bdc2eac32,2020-08-10_18h46.45.815,lexical_decision_task_MP,2020.1.3,Win32,60,,,0,,,,,,,,0.79397,-1,,,,,,15,WORD,"ID",33,amount,AMOUNT,m,,,,,,,0.102236422,-0.184771033,0,0,0,,0,159,159,14,1,
,,,,,,,,,,,,,,,,,,5e875f10bde8373bdc2eac32,2020-08-10_18h46.45.815,lexical_decision_task_MP,2020.1.3,Win32,60,,z,0,,,,,,,,0.866735,0,,,,,,126,WORD,UN,33,castle,ENOUGH,m,0.866735,,,,,,0.102236422,-0.184771033,0,0,0,,0,160,160,125,1,
,,,,,,,,,,,,,,,,,,5e875f10bde8373bdc2eac32,2020-08-10_18h46.45.815,lexical_decision_task_MP,2020.1.3,Win32,60,,z,1,,,,,,,,0.70014,1,,,,,,339,NW,"ID",50,fachow,FACHOW,z,0.70014,,,,,,0.102236422,-0.184771033,0,0,0,,0,161,161,338,1,
,,,,,,,,,,,,,,,,,,5e875f10bde8373bdc2eac32,2020-08-10_18h46.45.815,lexical_decision_task_MP,2020.1.3,Win32,60,,z,1,,,,,,,,0.59023,1,,,,,,337,NW,"ID",50,rejols,REJOLS,z,0.59023,,,,,,0.102236422,-0.184771033,0,0,0,,0,162,162,336,1,
,,,,,,,,,,,,,,,,,,5e875f10bde8373bdc2eac32,2020-08-10_18h46.45.815,lexical_decision_task_MP,2020.1.3,Win32,60,,m,0,,,,,,,,1.007795,0,,,,,,424,NW,UN,50,urivel,PRAILE,z,1.007795,,,,,,0.102236422,-0.184771033,0,0,0,,0,163,163,423,1,
,,,,,,,,,,,,,,,,,,5e875f10bde8373bdc2eac32,2020-08-10_18h46.45.815,lexical_decision_task_MP,2020.1.3,Win32,60,,z,1,,,,,,,,0.883575,1,,,,,,459,NW,UN,50,mingar,BAFENT,z,0.883575,,,,,,0.102236422,-0.184771033,0,0,0,,0,164,164,458,1,
,,,,,,,,,,,,,,,,,,5e875f10bde8373bdc2eac32,2020-08-10_18h46.45.815,lexical_decision_task_MP,2020.1.3,Win32,60,,m,1,,,,,,,,0.98967,1,,,,,,152,WORD,UN,33,behold,ROCKET,m,0.98967,,,,,,0.102236422,-0.184771033,0,0,0,,0,165,165,151,1,
,,,,,,,,,,,,,,,,,,5e875f10bde8373bdc2eac32,2020-08-10_18h46.45.815,lexical_decision_task_MP,2020.1.3,Win32,60,,z,1,,,,,,,,1.02551,1,,,,,,243,NW,"ID",33,musied,MUSIED,z,1.02551,,,,,,0.102236422,-0.184771033,0,0,0,,0,166,166,242,1,
,,,,,,,,,,,,,,,,,,5e875f10bde8373bdc2eac32,2020-08-10_18h46.45.815,lexical_decision_task_MP,2020.1.3,Win32,60,,m,1,,,,,,,,0.792825,1,,,,,,229,WORD,UN,50,fringe,MOTHER,m,0.792825,,,,,,0.102236422,-0.184771033,0,0,0,,0,167,167,228,1,
,,,,,,,,,,,,,,,,,,5e875f10bde8373bdc2eac32,2020-08-10_18h46.45.815,lexical_decision_task_MP,2020.1.3,Win32,60,,z,0,,,,,,,,0.803515,0,,,,,,30,WORD,"ID",33,orient,ORIENT,m,0.803515,,,,,,0.102236422,-0.184771033,0,0,0,,0,168,168,29,1,
,,,,,,,,,,,,,,,,,,5e875f10bde8373bdc2eac32,2020-08-10_18h46.45.815,lexical_decision_task_MP,2020.1.3,Win32,60,,z,1,,,,,,,,0.81975,1,,,,,,297,NW,"ID",33,fertic,FERTIC,z,0.81975,,,,,,0.102236422,-0.184771033,0,0,0,,0,169,169,296,1,
,,,,,,,,,,,,,,,,,,5e875f10bde8373bdc2eac32,2020-08-10_18h46.45.815,lexical_decision_task_MP,2020.1.3,Win32,60,,z,1,,,,,,,,1.4056,1,,,,,,250,NW,"ID",33,milted,MILTED,z,1.4056,,,,,,0.102236422,-0.184771033,0,0,0,,0,170,170,249,1,
,,,,,,,,,,,,,,,,,,5e875f10bde8373bdc2eac32,2020-08-10_18h46.45.815,lexical_decision_task_MP,2020.1.3,Win32,60,,z,1,,,,,,,,0.583855,1,,,,,,325,NW,"ID",50,thruse,THRUSE,z,0.583855,,,,,,0.102236422,-0.184771033,0,0,0,,0,171,171,324,1,
,,,,,,,,,,,,,,,,,,5e875f10bde8373bdc2eac32,2020-08-10_18h46.45.815,lexical_decision_task_MP,2020.1.3,Win32,60,,m,1,,,,,,,,0.65593,1,,,,,,174,WORD,UN,33,fabric,TURKEY,m,0.65593,,,,,,0.102236422,-0.184771033,0,0,0,,0,172,172,173,1,
,,,,,,,,,,,,,,,,,,5e875f10bde8373bdc2eac32,2020-08-10_18h46.45.815,lexical_decision_task_MP,2020.1.3,Win32,60,,m,1,,,,,,,,0.960085,1,,,,,,135,WORD,UN,33,chrome,IMPORT,m,0.960085,,,,,,0.102236422,-0.184771033,0,0,0,,0,173,173,134,1,
,,,,,,,,,,,,,,,,,,5e875f10bde8373bdc2eac32,2020-08-10_18h46.45.815,lexical_decision_task_MP,2020.1.3,Win32,60,,z,1,,,,,,,,0.610955,1,,,,,,465,NW,UN,50,hocite,WHIVEX,z,0.610955,,,,,,0.102236422,-0.184771033,0,0,0,,0,174,174,464,1,
,,,,,,,,,,,,,,,,,,5e875f10bde8373bdc2eac32,2020-08-10_18h46.45.815,lexical_decision_task_MP,2020.1.3,Win32,60,,z,1,,,,,,,,0.71582,1,,,,,,394,NW,UN,33,colury,SPAQUX,z,0.71582,,,,,,0.102236422,-0.184771033,0,0,0,,0,175,175,393,1,
,,,,,,,,,,,,,,,,,,5e875f10bde8373bdc2eac32,2020-08-10_18h46.45.815,lexical_decision_task_MP,2020.1.3,Win32,60,,z,0,,,,,,,,1.201745,0,,,,,,10,WORD,"ID",33,ethnic,ETHNIC,m,1.201745,,,,,,0.102236422,-0.184771033,0,0,0,,0,176,176,9,1,
,,,,,,,,,,,,,,,,,,5e875f10bde8373bdc2eac32,2020-08-10_18h46.45.815,lexical_decision_task_MP,2020.1.3,Win32,60,,z,1,,,,,,,,0.819095,1,,,,,,245,NW,"ID",33,anougs,ANOUGS,z,0.819095,,,,,,0.102236422,-0.184771033,0,0,0,,0,177,177,244,1,
,,,,,,,,,,,,,,,,,,5e875f10bde8373bdc2eac32,2020-08-10_18h46.45.815,lexical_decision_task_MP,2020.1.3,Win32,60,,z,1,,,,,,,,0.681805,1,,,,,,299,NW,"ID",33,sturch,STURCH,z,0.681805,,,,,,0.102236422,-0.184771033,0,0,0,,0,178,178,298,1,
,,,,,,,,,,,,,,,,,,5e875f10bde8373bdc2eac32,2020-08-10_18h46.45.815,lexical_decision_task_MP,2020.1.3,Win32,60,,z,1,,,,,,,,0.88507,1,,,,,,439,NW,UN,50,saride,LIMPOR,z,0.88507,,,,,,0.102236422,-0.184771033,0,0,0,,0,179,179,438,1,
,,,,,,,,,,,,,,,,,,5e875f10bde8373bdc2eac32,2020-08-10_18h46.45.815,lexical_decision_task_MP,2020.1.3,Win32,60,,m,1,,,,,,,,0.70386,1,,,,,,175,WORD,UN,33,strife,FABRIC,m,0.70386,,,,,,0.102236422,-0.184771033,0,0,0,,0,180,180,174,1,
,,,,,,,,,,,,,,,,,,5e875f10bde8373bdc2eac32,2020-08-10_18h46.45.815,lexical_decision_task_MP,2020.1.3,Win32,60,,z,1,,,,,,,,0.8287,1,,,,,,332,NW,"ID",50,vangue,VANGUE,z,0.8287,,,,,,0.102236422,-0.184771033,0,0,0,,0,181,181,331,1,
,,,,,,,,,,,,,,,,,,5e875f10bde8373bdc2eac32,2020-08-10_18h46.45.815,lexical_decision_task_MP,2020.1.3,Win32,60,,m,1,,,,,,,,0.588775,1,,,,,,209,WORD,UN,50,monkey,SEARCH,m,0.588775,,,,,,0.102236422,-0.184771033,0,0,0,,0,182,182,208,1,
,,,,,,,,,,,,,,,,,,5e875f10bde8373bdc2eac32,2020-08-10_18h46.45.815,lexical_decision_task_MP,2020.1.3,Win32,60,,m,1,,,,,,,,0.67746,1,,,,,,67,WORD,"ID",50,policy,POLICY,m,0.67746,,,,,,0.102236422,-0.184771033,0,0,0,,0,183,183,66,1,
,,,,,,,,,,,,,,,,,,5e875f10bde8373bdc2eac32,2020-08-10_18h46.45.815,lexical_decision_task_MP,2020.1.3,Win32,60,,m,1,,,,,,,,1.03608,1,,,,,,238,WORD,UN,50,grumpy,FLOWER,m,1.03608,,,,,,0.102236422,-0.184771033,0,0,0,,0,184,184,237,1,
,,,,,,,,,,,,,,,,,,5e875f10bde8373bdc2eac32,2020-08-10_18h46.45.815,lexical_decision_task_MP,2020.1.3,Win32,60,,z,1,,,,,,,,0.950115,1,,,,,,458,NW,UN,50,chaite,BARCET,z,0.950115,,,,,,0.102236422,-0.184771033,0,0,0,,0,185,185,457,1,
,,,,,,,,,,,,,,,,,,5e875f10bde8373bdc2eac32,2020-08-10_18h46.45.815,lexical_decision_task_MP,2020.1.3,Win32,60,,z,1,,,,,,,,0.67896,1,,,,,,334,NW,"ID",50,watmeg,WATMEG,z,0.67896,,,,,,0.102236422,-0.184771033,0,0,0,,0,186,186,333,1,
,,,,,,,,,,,,,,,,,,5e875f10bde8373bdc2eac32,2020-08-10_18h46.45.815,lexical_decision_task_MP,2020.1.3,Win32,60,,z,1,,,,,,,,0.796945,1,,,,,,349,NW,"ID",50,asylen,ASYLEN,z,0.796945,,,,,,0.102236422,-0.184771033,0,0,0,,0,187,187,348,1,
,,,,,,,,,,,,,,,,,,5e875f10bde8373bdc2eac32,2020-08-10_18h46.45.815,lexical_decision_task_MP,2020.1.3,Win32,60,,z,0,,,,,,,,0.806945,0,,,,,,33,WORD,"ID",33,butler,BUTLER,m,0.806945,,,,,,0.102236422,-0.184771033,0,0,0,,0,188,188,32,1,
,,,,,,,,,,,,,,,,,,5e875f10bde8373bdc2eac32,2020-08-10_18h46.45.815,lexical_decision_task_MP,2020.1.3,Win32,60,,z,0,,,,,,,,1.040585,0,,,,,,165,WORD,UN,33,starch,INVEST,m,1.040585,,,,,,0.102236422,-0.184771033,0,0,0,,0,189,189,164,1,
,,,,,,,,,,,,,,,,,,5e875f10bde8373bdc2eac32,2020-08-10_18h46.45.815,lexical_decision_task_MP,2020.1.3,Win32,60,,z,1,,,,,,,,1.42434,1,,,,,,313,NW,"ID",50,paurse,PAURSE,z,1.42434,,,,,,0.102236422,-0.184771033,0,0,0,,0,190,190,312,1,
,,,,,,,,,,,,,,,,,,5e875f10bde8373bdc2eac32,2020-08-10_18h46.45.815,lexical_decision_task_MP,2020.1.3,Win32,60,,m,1,,,,,,,,1.051715,1,,,,,,236,WORD,UN,50,poster,PIRATE,m,1.051715,,,,,,0.102236422,-0.184771033,0,0,0,,0,191,191,235,1,
,,,,,,,,,,,,,,,,,,5e875f10bde8373bdc2eac32,2020-08-10_18h46.45.815,lexical_decision_task_MP,2020.1.3,Win32,60,,m,1,,,,,,,,1.3576,1,,,,,,128,WORD,UN,33,marvel,SENIOR,m,1.3576,,,,,,0.102236422,-0.184771033,0,0,0,,0,192,192,127,1,
,,,,,,,,,,,,,,,,,,5e875f10bde8373bdc2eac32,2020-08-10_18h46.45.815,lexical_decision_task_MP,2020.1.3,Win32,60,,z,0,,,,,,,,1.30663,0,,,,,,199,WORD,UN,50,beacon,INVOKE,m,1.30663,,,,,,0.102236422,-0.184771033,0,0,0,,0,193,193,198,1,
,,,,,,,,,,,,,,,,,,5e875f10bde8373bdc2eac32,2020-08-10_18h46.45.815,lexical_decision_task_MP,2020.1.3,Win32,60,,m,1,,,,,,,,1.0556,1,,,,,,98,WORD,"ID",50,belong,BELONG,m,1.0556,,,,,,0.102236422,-0.184771033,0,0,0,,0,194,194,97,1,
,,,,,,,,,,,,,,,,,,5e875f10bde8373bdc2eac32,2020-08-10_18h46.45.815,lexical_decision_task_MP,2020.1.3,Win32,60,,z,1,,,,,,,,0.701815,1,,,,,,254,NW,"ID",33,varosh,VAROSH,z,0.701815,,,,,,0.102236422,-0.184771033,0,0,0,,0,195,195,253,1,
,,,,,,,,,,,,,,,,,,5e875f10bde8373bdc2eac32,2020-08-10_18h46.45.815,lexical_decision_task_MP,2020.1.3,Win32,60,,z,0,,,,,,,,1.403635,0,,,,,,86,WORD,"ID",50,rodent,RODENT,m,1.403635,,,,,,0.102236422,-0.18370607,0,0,0,,0,196,196,85,1,
,,,,,,,,,,,,,,,,,,5e875f10bde8373bdc2eac32,2020-08-10_18h46.45.815,lexical_decision_task_MP,2020.1.3,Win32,60,,m,1,,,,,,,,0.83658,1,,,,,,189,WORD,UN,50,backup,CENSOR,m,0.83658,,,,,,0.102236422,-0.182641108,0,0,0,,0,197,197,188,1,
,,,,,,,,,,,,,,,,,,5e875f10bde8373bdc2eac32,2020-08-10_18h46.45.815,lexical_decision_task_MP,2020.1.3,Win32,60,,m,1,,,,,,,,1.38338,1,,,,,,116,WORD,"ID",50,tumble,TUMBLE,m,1.38338,,,,,,0.102236422,-0.182641108,0,0,0,,0,198,198,115,1,
,,,,,,,,,,,,,,,,,,5e875f10bde8373bdc2eac32,2020-08-10_18h46.45.815,lexical_decision_task_MP,2020.1.3,Win32,60,,m,1,,,,,,,,0.66697,1,,,,,,148,WORD,UN,33,invade,CUSTOM,m,0.66697,,,,,,0.102236422,-0.182641108,0,0,0,,0,199,199,147,1,
,,,,,,,,,,,,,,,,,,5e875f10bde8373bdc2eac32,2020-08-10_18h46.45.815,lexical_decision_task_MP,2020.1.3,Win32,60,,z,1,,,,,,,,0.837325,1,,,,,,265,NW,"ID",33,distar,DISTAR,z,0.837325,,,,,,0.102236422,-0.182641108,0,0,0,,0,200,200,264,1,
,,,,,,,,,,,,,,,,,,5e875f10bde8373bdc2eac32,2020-08-10_18h46.45.815,lexical_decision_task_MP,2020.1.3,Win32,60,,z,1,,,,,,,,0.98312,1,,,,,,307,NW,"ID",50,kirafe,KIRAFE,z,0.98312,,,,,,0.102236422,-0.182641108,0,0,0,,0,201,201,306,1,
,,,,,,,,,,,,,,,,,,5e875f10bde8373bdc2eac32,2020-08-10_18h46.45.815,lexical_decision_task_MP,2020.1.3,Win32,60,,m,1,,,,,,,,0.687415,1,,,,,,167,WORD,UN,33,answer,DESIGN,m,0.687415,,,,,,0.102236422,-0.182641108,0,0,0,,0,202,202,166,1,
,,,,,,,,,,,,,,,,,,5e875f10bde8373bdc2eac32,2020-08-10_18h46.45.815,lexical_decision_task_MP,2020.1.3,Win32,60,,z,0,,,,,,,,0.908655,0,,,,,,124,WORD,UN,33,nickel,BLOUSE,m,0.908655,,,,,,0.102236422,-0.182641108,0,0,0,,0,203,203,123,1,
,,,,,,,,,,,,,,,,,,5e875f10bde8373bdc2eac32,2020-08-10_18h46.45.815,lexical_decision_task_MP,2020.1.3,Win32,60,,z,1,,,,,,,,0.624775,1,,,,,,330,NW,"ID",50,kensom,KENSOM,z,0.624775,,,,,,0.102236422,-0.182641108,0,0,0,,0,204,204,329,1,
,,,,,,,,,,,,,,,,,,5e875f10bde8373bdc2eac32,2020-08-10_18h46.45.815,lexical_decision_task_MP,2020.1.3,Win32,60,,m,0,,,,,,,,0.73449,0,,,,,,405,NW,UN,33,nouply,FLUMNI,z,0.73449,,,,,,0.102236422,-0.182641108,0,0,0,,0,205,205,404,1,
,,,,,,,,,,,,,,,,,,5e875f10bde8373bdc2eac32,2020-08-10_18h46.45.815,lexical_decision_task_MP,2020.1.3,Win32,60,,m,0,,,,,,,,0.83897,0,,,,,,420,NW,UN,33,pauche,GUSHOP,z,0.83897,,,,,,0.102236422,-0.182641108,0,0,0,,0,206,206,419,1,
,,,,,,,,,,,,,,,,,,5e875f10bde8373bdc2eac32,2020-08-10_18h46.45.815,lexical_decision_task_MP,2020.1.3,Win32,60,,m,0,,,,,,,,0.99165,0,,,,,,416,NW,UN,33,earoud,PATHEL,z,0.99165,,,,,,0.102236422,-0.182641108,0,0,0,,0,207,207,415,1,
,,,,,,,,,,,,,,,,,,5e875f10bde8373bdc2eac32,2020-08-10_18h46.45.815,lexical_decision_task_MP,2020.1.3,Win32,60,,z,1,,,,,,,,0.9002,1,,,,,,287,NW,"ID",33,nymbel,NYMBEL,z,0.9002,,,,,,0.102236422,-0.182641108,0,0,0,,0,208,208,286,1,
,,,,,,,,,,,,,,,,,,5e875f10bde8373bdc2eac32,2020-08-10_18h46.45.815,lexical_decision_task_MP,2020.1.3,Win32,60,,z,1,,,,,,,,0.83822,1,,,,,,347,NW,"ID",50,kerift,KERIFT,z,0.83822,,,,,,0.102236422,-0.182641108,0,0,0,,0,209,209,346,1,
,,,,,,,,,,,,,,,,,,5e875f10bde8373bdc2eac32,2020-08-10_18h46.45.815,lexical_decision_task_MP,2020.1.3,Win32,60,,z,0,,,,,,,,1.000345,0,,,,,,225,WORD,UN,50,kidney,VULGAR,m,1.000345,,,,,,0.102236422,-0.182641108,0,0,0,,0,210,210,224,1,
,,,,,,,,,,,,,,,,,,5e875f10bde8373bdc2eac32,2020-08-10_18h46.45.815,lexical_decision_task_MP,2020.1.3,Win32,60,,z,1,,,,,,,,1.11862,1,,,,,,469,NW,UN,50,crudio,PADIFS,z,1.11862,,,,,,0.102236422,-0.182641108,0,0,0,,0,211,211,468,1,
,,,,,,,,,,,,,,,,,,5e875f10bde8373bdc2eac32,2020-08-10_18h46.45.815,lexical_decision_task_MP,2020.1.3,Win32,60,,m,1,,,,,,,,0.81131,1,,,,,,159,WORD,UN,33,violet,DETAIL,m,0.81131,,,,,,0.102236422,-0.182641108,0,0,0,,0,212,212,158,1,
,,,,,,,,,,,,,,,,,,5e875f10bde8373bdc2eac32,2020-08-10_18h46.45.815,lexical_decision_task_MP,2020.1.3,Win32,60,,z,1,,,,,,,,1.10836,1,,,,,,309,NW,"ID",50,amiloy,AMILOY,z,1.10836,,,,,,0.102236422,-0.182641108,0,0,0,,0,213,213,308,1,
,,,,,,,,,,,,,,,,,,5e875f10bde8373bdc2eac32,2020-08-10_18h46.45.815,lexical_decision_task_MP,2020.1.3,Win32,60,,z,1,,,,,,,,0.737665,1,,,,,,373,NW,UN,33,injore,BIGENT,z,0.737665,,,,,,0.102236422,-0.182641108,0,0,0,,0,214,214,372,1,
,,,,,,,,,,,,,,,,,,5e875f10bde8373bdc2eac32,2020-08-10_18h46.45.815,lexical_decision_task_MP,2020.1.3,Win32,60,,z,1,,,,,,,,0.894605,1,,,,,,244,NW,"ID",33,eatric,EATRIC,z,0.894605,,,,,,0.102236422,-0.182641108,0,0,0,,0,215,215,243,1,
,,,,,,,,,,,,,,,,,,5e875f10bde8373bdc2eac32,2020-08-10_18h46.45.815,lexical_decision_task_MP,2020.1.3,Win32,60,,z,0,,,,,,,,0.60376,0,,,,,,235,WORD,UN,50,pirate,GRUMPY,m,0.60376,,,,,,0.102236422,-0.182641108,0,0,0,,0,216,216,234,1,
,,,,,,,,,,,,,,,,,,5e875f10bde8373bdc2eac32,2020-08-10_18h46.45.815,lexical_decision_task_MP,2020.1.3,Win32,60,,m,0,,,,,,,,0.66842,0,,,,,,292,NW,"ID",33,ablint,ABLINT,z,0.66842,,,,,,0.102236422,-0.182641108,0,0,0,,0,217,217,291,1,
,,,,,,,,,,,,,,,,,,5e875f10bde8373bdc2eac32,2020-08-10_18h46.45.815,lexical_decision_task_MP,2020.1.3,Win32,60,,z,0,,,,,,,,0.45986,0,,,,,,39,WORD,"ID",33,insect,INSECT,m,0.45986,,,,,,0.102236422,-0.182641108,0,0,0,,0,218,218,38,1,
,,,,,,,,,,,,,,,,,,5e875f10bde8373bdc2eac32,2020-08-10_18h46.45.815,lexical_decision_task_MP,2020.1.3,Win32,60,,z,1,,,,,,,,0.80198,1,,,,,,293,NW,"ID",33,swance,SWANCE,z,0.80198,,,,,,0.102236422,-0.182641108,0,0,0,,0,219,219,292,1,
,,,,,,,,,,,,,,,,,,5e875f10bde8373bdc2eac32,2020-08-10_18h46.45.815,lexical_decision_task_MP,2020.1.3,Win32,60,,m,0,,,,,,,,0.533445,0,,,,,,388,NW,UN,33,witmer,CRAGIN,z,0.533445,,,,,,0.102236422,-0.182641108,0,0,0,,0,220,220,387,1,
,,,,,,,,,,,,,,,,,,5e875f10bde8373bdc2eac32,2020-08-10_18h46.45.815,lexical_decision_task_MP,2020.1.3,Win32,60,,z,1,,,,,,,,0.31329,1,,,,,,397,NW,UN,33,blunde,CAMBLE,z,0.31329,,,,,,0.102236422,-0.182641108,0,0,0,,0,221,221,396,1,
,,,,,,,,,,,,,,,,,,5e875f10bde8373bdc2eac32,2020-08-10_18h46.45.815,lexical_decision_task_MP,2020.1.3,Win32,60,,m,1,,,,,,,,0.47906,1,,,,,,168,WORD,UN,33,genius,ANSWER,m,0.47906,,,,,,0.102236422,-0.182641108,0,0,0,,0,222,222,167,1,
,,,,,,,,,,,,,,,,,,5e875f10bde8373bdc2eac32,2020-08-10_18h46.45.815,lexical_decision_task_MP,2020.1.3,Win32,60,,,0,,,,,,,,0.47906,-1,,,,,,190,WORD,UN,50,stable,BACKUP,m,,,,,,,0.102236422,-0.182641108,0,0,0,,0,223,223,189,1,
,,,,,,,,,,,,,,,,,,5e875f10bde8373bdc2eac32,2020-08-10_18h46.45.815,lexical_decision_task_MP,2020.1.3,Win32,60,,m,1,,,,,,,,1.394525,1,,,,,,81,WORD,"ID",50,friend,FRIEND,m,1.394525,,,,,,0.102236422,-0.182641108,0,0,0,,0,224,224,80,1,
,,,,,,,,,,,,,,,,,,5e875f10bde8373bdc2eac32,2020-08-10_18h46.45.815,lexical_decision_task_MP,2020.1.3,Win32,60,,z,1,,,,,,,,0.621765,1,,,,,,286,NW,"ID",33,reldon,RELDON,z,0.621765,,,,,,0.102236422,-0.182641108,0,0,0,,0,225,225,285,1,
,,,,,,,,,,,,,,,,,,5e875f10bde8373bdc2eac32,2020-08-10_18h46.45.815,lexical_decision_task_MP,2020.1.3,Win32,60,,z,0,,,,,,,,0.767165,0,,,,,,220,WORD,UN,50,mascot,VOYAGE,m,0.767165,,,,,,0.102236422,-0.182641108,0,0,0,,0,226,226,219,1,
,,,,,,,,,,,,,,,,,,5e875f10bde8373bdc2eac32,2020-08-10_18h46.45.815,lexical_decision_task_MP,2020.1.3,Win32,60,,z,1,,,,,,,,0.687785,1,,,,,,478,NW,UN,50,lobush,ACRISE,z,0.687785,,,,,,0.102236422,-0.182641108,0,0,0,,0,227,227,477,1,
,,,,,,,,,,,,,,,,,,5e875f10bde8373bdc2eac32,2020-08-10_18h46.45.815,lexical_decision_task_MP,2020.1.3,Win32,60,,m,0,,,,,,,,0.669415,0,,,,,,353,NW,"ID",50,clurey,CLUREY,z,0.669415,,,,,,0.102236422,-0.182641108,0,0,0,,0,228,228,352,1,
,,,,,,,,,,,,,,,,,,5e875f10bde8373bdc2eac32,2020-08-10_18h46.45.815,lexical_decision_task_MP,2020.1.3,Win32,60,,m,1,,,,,,,,0.828335,1,,,,,,161,WORD,UN,33,candle,PASTOR,m,0.828335,,,,,,0.102236422,-0.182641108,0,0,0,,0,229,229,160,1,
,,,,,,,,,,,,,,,,,,5e875f10bde8373bdc2eac32,2020-08-10_18h46.45.815,lexical_decision_task_MP,2020.1.3,Win32,60,,m,1,,,,,,,,0.700295,1,,,,,,183,WORD,UN,50,sleazy,MILDEW,m,0.700295,,,,,,0.102236422,-0.182641108,0,0,0,,0,230,230,182,1,
,,,,,,,,,,,,,,,,,,5e875f10bde8373bdc2eac32,2020-08-10_18h46.45.815,lexical_decision_task_MP,2020.1.3,Win32,60,,z,1,,,,,,,,0.593505,1,,,,,,321,NW,"ID",50,miator,MIATOR,z,0.593505,,,,,,0.102236422,-0.182641108,0,0,0,,0,231,231,320,1,
,,,,,,,,,,,,,,,,,,5e875f10bde8373bdc2eac32,2020-08-10_18h46.45.815,lexical_decision_task_MP,2020.1.3,Win32,60,,z,0,,,,,,,,0.75012,0,,,,,,176,WORD,UN,33,advent,STRIFE,m,0.75012,,,,,,0.102236422,-0.182641108,0,0,0,,0,232,232,175,1,
,,,,,,,,,,,,,,,,,,5e875f10bde8373bdc2eac32,2020-08-10_18h46.45.815,lexical_decision_task_MP,2020.1.3,Win32,60,,m,1,,,,,,,,0.88685,1,,,,,,17,WORD,"ID",33,charge,CHARGE,m,0.88685,,,,,,0.102236422,-0.182641108,0,0,0,,0,233,233,16,1,
,,,,,,,,,,,,,,,,,,5e875f10bde8373bdc2eac32,2020-08-10_18h46.45.815,lexical_decision_task_MP,2020.1.3,Win32,60,,z,0,,,,,,,,0.73402,0,,,,,,131,WORD,UN,33,strong,QUENCH,m,0.73402,,,,,,0.102236422,-0.182641108,0,0,0,,0,234,234,130,1,
,,,,,,,,,,,,,,,,,,5e875f10bde8373bdc2eac32,2020-08-10_18h46.45.815,lexical_decision_task_MP,2020.1.3,Win32,60,,z,1,,,,,,,,0.668655,1,,,,,,391,NW,UN,33,rouncy,THELDY,z,0.668655,,,,,,0.102236422,-0.182641108,0,0,0,,0,235,235,390,1,
,,,,,,,,,,,,,,,,,,5e875f10bde8373bdc2eac32,2020-08-10_18h46.45.815,lexical_decision_task_MP,2020.1.3,Win32,60,,m,0,,,,,,,,0.68757,0,,,,,,454,NW,UN,50,tondle,SCOUGE,z,0.68757,,,,,,0.102236422,-0.182641108,0,0,0,,0,236,236,453,1,
,,,,,,,,,,,,,,,,,,5e875f10bde8373bdc2eac32,2020-08-10_18h46.45.815,lexical_decision_task_MP,2020.1.3,Win32,60,,z,1,,,,,,,,0.787985,1,,,,,,370,NW,UN,33,geiloy,SLEACT,z,0.787985,,,,,,0.102236422,-0.182641108,0,0,0,,0,237,237,369,1,
,,,,,,,,,,,,,,,,,,5e875f10bde8373bdc2eac32,2020-08-10_18h46.45.815,lexical_decision_task_MP,2020.1.3,Win32,60,,z,0,,,,,,,,0.728755,0,,,,,,43,WORD,"ID",33,tongue,TONGUE,m,0.728755,,,,,,0.102236422,-0.182641108,0,0,0,,0,238,238,42,1,
,,,,,,,,,,,,,,,,,,5e875f10bde8373bdc2eac32,2020-08-10_18h46.45.815,lexical_decision_task_MP,2020.1.3,Win32,60,,z,0,,,,,,,,0.725385,0,,,,,,32,WORD,"ID",33,buckle,BUCKLE,m,0.725385,,,,,,0.102236422,-0.182641108,0,0,0,,0,239,239,31,1,
,,,,,,,,,,,,,,,,,,5e875f10bde8373bdc2eac32,2020-08-10_18h46.45.815,lexical_decision_task_MP,2020.1.3,Win32,60,,m,0,,,,,,,,0.801885,0,,,,,,278,NW,"ID",33,unighs,UNIGHS,z,0.801885,,,,,,0.102236422,-0.182641108,0,0,0,,0,240,240,277,1,
,,,,,,,,,,,,,,,,,,5e875f10bde8373bdc2eac32,2020-08-10_18h46.45.815,lexical_decision_task_MP,2020.1.3,Win32,60,,z,1,,,,,,,,0.442415,1,,,,,,312,NW,"ID",50,nerawl,NERAWL,z,0.442415,,,,,,0.086261981,-0.399893504,1,0,0,,0,241,241,311,1,break_done_button
,,,,,,,,,,,,,,,,,,5e875f10bde8373bdc2eac32,2020-08-10_18h46.45.815,lexical_decision_task_MP,2020.1.3,Win32,60,,z,0,,,,,,,,1.134155,0,,,,,,120,WORD,"ID",50,strain,STRAIN,m,1.134155,,,,,,0.112886049,-0.354100106,0,0,0,,0,242,242,119,1,
,,,,,,,,,,,,,,,,,,5e875f10bde8373bdc2eac32,2020-08-10_18h46.45.815,lexical_decision_task_MP,2020.1.3,Win32,60,,z,0,,,,,,,,0.71261,0,,,,,,147,WORD,UN,33,custom,GARLIC,m,0.71261,,,,,,0.112886049,-0.354100106,0,0,0,,0,243,243,146,1,
,,,,,,,,,,,,,,,,,,5e875f10bde8373bdc2eac32,2020-08-10_18h46.45.815,lexical_decision_task_MP,2020.1.3,Win32,60,,z,1,,,,,,,,0.62173,1,,,,,,252,NW,"ID",33,stapod,STAPOD,z,0.62173,,,,,,0.112886049,-0.354100106,0,0,0,,0,244,244,251,1,
,,,,,,,,,,,,,,,,,,5e875f10bde8373bdc2eac32,2020-08-10_18h46.45.815,lexical_decision_task_MP,2020.1.3,Win32,60,,z,1,,,,,,,,1.094095,1,,,,,,267,NW,"ID",33,pasink,PASINK,z,1.094095,,,,,,0.112886049,-0.354100106,0,0,0,,0,245,245,266,1,
,,,,,,,,,,,,,,,,,,5e875f10bde8373bdc2eac32,2020-08-10_18h46.45.815,lexical_decision_task_MP,2020.1.3,Win32,60,,z,1,,,,,,,,0.892745,1,,,,,,361,NW,UN,33,tireau,PAUCHE,z,0.892745,,,,,,0.112886049,-0.354100106,0,0,0,,0,246,246,360,1,
,,,,,,,,,,,,,,,,,,5e875f10bde8373bdc2eac32,2020-08-10_18h46.45.815,lexical_decision_task_MP,2020.1.3,Win32,60,,,0,,,,,,,,0.892745,-1,,,,,,117,WORD,"ID",50,branch,BRANCH,m,,,,,,,0.112886049,-0.354100106,0,0,0,,0,247,247,116,1,
,,,,,,,,,,,,,,,,,,5e875f10bde8373bdc2eac32,2020-08-10_18h46.45.815,lexical_decision_task_MP,2020.1.3,Win32,60,,z,1,,,,,,,,0.712975,1,,,,,,421,NW,UN,50,alcoud,KNISMA,z,0.712975,,,,,,0.112886049,-0.354100106,0,0,0,,0,248,248,420,1,
,,,,,,,,,,,,,,,,,,5e875f10bde8373bdc2eac32,2020-08-10_18h46.45.815,lexical_decision_task_MP,2020.1.3,Win32,60,,z,1,,,,,,,,0.846305,1,,,,,,389,NW,UN,33,hatrus,WITMER,z,0.846305,,,,,,0.112886049,-0.354100106,0,0,0,,0,249,249,388,1,
,,,,,,,,,,,,,,,,,,5e875f10bde8373bdc2eac32,2020-08-10_18h46.45.815,lexical_decision_task_MP,2020.1.3,Win32,60,,m,1,,,,,,,,0.78414,1,,,,,,99,WORD,"ID",50,fluent,FLUENT,m,0.78414,,,,,,0.112886049,-0.354100106,0,0,0,,0,250,250,98,1,
,,,,,,,,,,,,,,,,,,5e875f10bde8373bdc2eac32,2020-08-10_18h46.45.815,lexical_decision_task_MP,2020.1.3,Win32,60,,m,1,,,,,,,,0.87112,1,,,,,,181,WORD,UN,50,winter,GLANCE,m,0.87112,,,,,,0.112886049,-0.354100106,0,0,0,,0,251,251,180,1,
,,,,,,,,,,,,,,,,,,5e875f10bde8373bdc2eac32,2020-08-10_18h46.45.815,lexical_decision_task_MP,2020.1.3,Win32,60,,m,1,,,,,,,,0.622415,1,,,,,,2,WORD,"ID",33,bridge,BRIDGE,m,0.622415,,,,,,0.112886049,-0.354100106,0,0,0,,0,252,252,1,1,
,,,,,,,,,,,,,,,,,,5e875f10bde8373bdc2eac32,2020-08-10_18h46.45.815,lexical_decision_task_MP,2020.1.3,Win32,60,,z,1,,,,,,,,0.766485,1,,,,,,328,NW,"ID",50,broake,BROAKE,z,0.766485,,,,,,0.112886049,-0.354100106,0,0,0,,0,253,253,327,1,
,,,,,,,,,,,,,,,,,,5e875f10bde8373bdc2eac32,2020-08-10_18h46.45.815,lexical_decision_task_MP,2020.1.3,Win32,60,,z,1,,,,,,,,0.68355,1,,,,,,392,NW,UN,33,ganous,ROUNCY,z,0.68355,,,,,,0.112886049,-0.354100106,0,0,0,,0,254,254,391,1,
,,,,,,,,,,,,,,,,,,5e875f10bde8373bdc2eac32,2020-08-10_18h46.45.815,lexical_decision_task_MP,2020.1.3,Win32,60,,m,1,,,,,,,,0.703095,1,,,,,,137,WORD,UN,33,melody,FINGER,m,0.703095,,,,,,0.112886049,-0.354100106,0,0,0,,0,255,255,136,1,
,,,,,,,,,,,,,,,,,,5e875f10bde8373bdc2eac32,2020-08-10_18h46.45.815,lexical_decision_task_MP,2020.1.3,Win32,60,,m,1,,,,,,,,0.772455,1,,,,,,83,WORD,"ID",50,result,RESULT,m,0.772455,,,,,,0.112886049,-0.354100106,0,0,0,,0,256,256,82,1,
,,,,,,,,,,,,,,,,,,5e875f10bde8373bdc2eac32,2020-08-10_18h46.45.815,lexical_decision_task_MP,2020.1.3,Win32,60,,z,1,,,,,,,,1.08607,1,,,,,,263,NW,"ID",33,dolica,DOLICA,z,1.08607,,,,,,0.112886049,-0.354100106,0,0,0,,0,257,257,262,1,
,,,,,,,,,,,,,,,,,,5e875f10bde8373bdc2eac32,2020-08-10_18h46.45.815,lexical_decision_task_MP,2020.1.3,Win32,60,,m,1,,,,,,,,0.733655,1,,,,,,36,WORD,"ID",33,vanish,VANISH,m,0.733655,,,,,,0.112886049,-0.354100106,0,0,0,,0,258,258,35,1,
,,,,,,,,,,,,,,,,,,5e875f10bde8373bdc2eac32,2020-08-10_18h46.45.815,lexical_decision_task_MP,2020.1.3,Win32,60,,z,1,,,,,,,,1.104665,1,,,,,,340,NW,"ID",50,fiatch,FIATCH,z,1.104665,,,,,,0.112886049,-0.354100106,0,0,0,,0,259,259,339,1,
,,,,,,,,,,,,,,,,,,5e875f10bde8373bdc2eac32,2020-08-10_18h46.45.815,lexical_decision_task_MP,2020.1.3,Win32,60,,z,1,,,,,,,,0.75054,1,,,,,,411,NW,UN,33,jiluer,ORCHIN,z,0.75054,,,,,,0.112886049,-0.354100106,0,0,0,,0,260,260,410,1,
,,,,,,,,,,,,,,,,,,5e875f10bde8373bdc2eac32,2020-08-10_18h46.45.815,lexical_decision_task_MP,2020.1.3,Win32,60,,m,1,,,,,,,,1.21732,1,,,,,,31,WORD,"ID",33,weapon,WEAPON,m,1.21732,,,,,,0.112886049,-0.354100106,0,0,0,,0,261,261,30,1,
,,,,,,,,,,,,,,,,,,5e875f10bde8373bdc2eac32,2020-08-10_18h46.45.815,lexical_decision_task_MP,2020.1.3,Win32,60,,z,1,,,,,,,,1.1376,1,,,,,,277,NW,"ID",33,petain,PETAIN,z,1.1376,,,,,,0.112886049,-0.354100106,0,0,0,,0,262,262,276,1,
,,,,,,,,,,,,,,,,,,5e875f10bde8373bdc2eac32,2020-08-10_18h46.45.815,lexical_decision_task_MP,2020.1.3,Win32,60,,z,1,,,,,,,,1.453875,1,,,,,,335,NW,"ID",50,desion,DESION,z,1.453875,,,,,,0.112886049,-0.354100106,0,0,0,,0,263,263,334,1,
,,,,,,,,,,,,,,,,,,5e875f10bde8373bdc2eac32,2020-08-10_18h46.45.815,lexical_decision_task_MP,2020.1.3,Win32,60,,z,1,,,,,,,,0.85297,1,,,,,,326,NW,"ID",50,iguade,IGUADE,z,0.85297,,,,,,0.112886049,-0.354100106,0,0,0,,0,264,264,325,1,
,,,,,,,,,,,,,,,,,,5e875f10bde8373bdc2eac32,2020-08-10_18h46.45.815,lexical_decision_task_MP,2020.1.3,Win32,60,,z,1,,,,,,,,0.78321,1,,,,,,268,NW,"ID",33,packes,PACKES,z,0.78321,,,,,,0.112886049,-0.354100106,0,0,0,,0,265,265,267,1,
,,,,,,,,,,,,,,,,,,5e875f10bde8373bdc2eac32,2020-08-10_18h46.45.815,lexical_decision_task_MP,2020.1.3,Win32,60,,z,1,,,,,,,,0.756785,1,,,,,,450,NW,UN,50,rastoe,PHRECT,z,0.756785,,,,,,0.112886049,-0.354100106,0,0,0,,0,266,266,449,1,
,,,,,,,,,,,,,,,,,,5e875f10bde8373bdc2eac32,2020-08-10_18h46.45.815,lexical_decision_task_MP,2020.1.3,Win32,60,,z,0,,,,,,,,0.79341,0,,,,,,42,WORD,"ID",33,chapel,CHAPEL,m,0.79341,,,,,,0.112886049,-0.354100106,0,0,0,,0,267,267,41,1,
,,,,,,,,,,,,,,,,,,5e875f10bde8373bdc2eac32,2020-08-10_18h46.45.815,lexical_decision_task_MP,2020.1.3,Win32,60,,m,1,,,,,,,,0.635,1,,,,,,89,WORD,"ID",50,permit,PERMIT,m,0.635,,,,,,0.112886049,-0.354100106,0,0,0,,0,268,268,88,1,
,,,,,,,,,,,,,,,,,,5e875f10bde8373bdc2eac32,2020-08-10_18h46.45.815,lexical_decision_task_MP,2020.1.3,Win32,60,,z,1,,,,,,,,1.289565,1,,,,,,376,NW,UN,33,sliant,IGUARE,z,1.289565,,,,,,0.112886049,-0.354100106,0,0,0,,0,269,269,375,1,
,,,,,,,,,,,,,,,,,,5e875f10bde8373bdc2eac32,2020-08-10_18h46.45.815,lexical_decision_task_MP,2020.1.3,Win32,60,,m,1,,,,,,,,0.79966,1,,,,,,80,WORD,"ID",50,family,FAMILY,m,0.79966,,,,,,0.112886049,-0.354100106,0,0,0,,0,270,270,79,1,
,,,,,,,,,,,,,,,,,,5e875f10bde8373bdc2eac32,2020-08-10_18h46.45.815,lexical_decision_task_MP,2020.1.3,Win32,60,,z,1,,,,,,,,0.688865,1,,,,,,434,NW,UN,50,impurb,PITROM,z,0.688865,,,,,,0.112886049,-0.354100106,0,0,0,,0,271,271,433,1,
,,,,,,,,,,,,,,,,,,5e875f10bde8373bdc2eac32,2020-08-10_18h46.45.815,lexical_decision_task_MP,2020.1.3,Win32,60,,z,1,,,,,,,,0.703235,1,,,,,,477,NW,UN,50,acrise,PHOTIE,z,0.703235,,,,,,0.112886049,-0.354100106,0,0,0,,0,272,272,476,1,
,,,,,,,,,,,,,,,,,,5e875f10bde8373bdc2eac32,2020-08-10_18h46.45.815,lexical_decision_task_MP,2020.1.3,Win32,60,,z,0,,,,,,,,1.06847,0,,,,,,206,WORD,UN,50,wreath,TAILOR,m,1.06847,,,,,,0.112886049,-0.354100106,0,0,0,,0,273,273,205,1,
,,,,,,,,,,,,,,,,,,5e875f10bde8373bdc2eac32,2020-08-10_18h46.45.815,lexical_decision_task_MP,2020.1.3,Win32,60,,m,1,,,,,,,,1.002195,1,,,,,,82,WORD,"ID",50,stigma,STIGMA,m,1.002195,,,,,,0.112886049,-0.354100106,0,0,0,,0,274,274,81,1,
,,,,,,,,,,,,,,,,,,5e875f10bde8373bdc2eac32,2020-08-10_18h46.45.815,lexical_decision_task_MP,2020.1.3,Win32,60,,z,0,,,,,,,,1.30707,0,,,,,,77,WORD,"ID",50,racket,RACKET,m,1.30707,,,,,,0.112886049,-0.354100106,0,0,0,,0,275,275,76,1,
,,,,,,,,,,,,,,,,,,5e875f10bde8373bdc2eac32,2020-08-10_18h46.45.815,lexical_decision_task_MP,2020.1.3,Win32,60,,z,1,,,,,,,,0.73556,1,,,,,,280,NW,"ID",33,curbol,CURBOL,z,0.73556,,,,,,0.112886049,-0.354100106,0,0,0,,0,276,276,279,1,
,,,,,,,,,,,,,,,,,,5e875f10bde8373bdc2eac32,2020-08-10_18h46.45.815,lexical_decision_task_MP,2020.1.3,Win32,60,,m,1,,,,,,,,0.827935,1,,,,,,69,WORD,"ID",50,plenty,PLENTY,m,0.827935,,,,,,0.112886049,-0.354100106,0,0,0,,0,277,277,68,1,
,,,,,,,,,,,,,,,,,,5e875f10bde8373bdc2eac32,2020-08-10_18h46.45.815,lexical_decision_task_MP,2020.1.3,Win32,60,,z,1,,,,,,,,1.01133,1,,,,,,457,NW,UN,50,barcet,WANIGH,z,1.01133,,,,,,0.112886049,-0.354100106,0,0,0,,0,278,278,456,1,
,,,,,,,,,,,,,,,,,,5e875f10bde8373bdc2eac32,2020-08-10_18h46.45.815,lexical_decision_task_MP,2020.1.3,Win32,60,,m,1,,,,,,,,0.766725,1,,,,,,96,WORD,"ID",50,ignore,IGNORE,m,0.766725,,,,,,0.112886049,-0.354100106,0,0,0,,0,279,279,95,1,
,,,,,,,,,,,,,,,,,,5e875f10bde8373bdc2eac32,2020-08-10_18h46.45.815,lexical_decision_task_MP,2020.1.3,Win32,60,,z,1,,,,,,,,0.70434,1,,,,,,418,NW,UN,33,slount,SUIDLE,z,0.70434,,,,,,0.112886049,-0.354100106,0,0,0,,0,280,280,417,1,
,,,,,,,,,,,,,,,,,,5e875f10bde8373bdc2eac32,2020-08-10_18h46.45.815,lexical_decision_task_MP,2020.1.3,Win32,60,,z,0,,,,,,,,0.64326,0,,,,,,224,WORD,UN,50,vulgar,PERIOD,m,0.64326,,,,,,0.112886049,-0.354100106,0,0,0,,0,281,281,223,1,
,,,,,,,,,,,,,,,,,,5e875f10bde8373bdc2eac32,2020-08-10_18h46.45.815,lexical_decision_task_MP,2020.1.3,Win32,60,,z,1,,,,,,,,0.951275,1,,,,,,269,NW,"ID",33,orchet,ORCHET,z,0.951275,,,,,,0.112886049,-0.354100106,0,0,0,,0,282,282,268,1,
,,,,,,,,,,,,,,,,,,5e875f10bde8373bdc2eac32,2020-08-10_18h46.45.815,lexical_decision_task_MP,2020.1.3,Win32,60,,z,1,,,,,,,,0.71288,1,,,,,,288,NW,"ID",33,yaceup,YACEUP,z,0.71288,,,,,,0.112886049,-0.354100106,0,0,0,,0,283,283,287,1,
,,,,,,,,,,,,,,,,,,5e875f10bde8373bdc2eac32,2020-08-10_18h46.45.815,lexical_decision_task_MP,2020.1.3,Win32,60,,z,1,,,,,,,,1.276195,1,,,,,,468,NW,UN,50,padifs,WICTOR,z,1.276195,,,,,,0.112886049,-0.354100106,0,0,0,,0,284,284,467,1,
,,,,,,,,,,,,,,,,,,5e875f10bde8373bdc2eac32,2020-08-10_18h46.45.815,lexical_decision_task_MP,2020.1.3,Win32,60,,z,1,,,,,,,,0.74911,1,,,,,,400,NW,UN,33,mustil,WEAROX,z,0.74911,,,,,,0.112886049,-0.354100106,0,0,0,,0,285,285,399,1,
,,,,,,,,,,,,,,,,,,5e875f10bde8373bdc2eac32,2020-08-10_18h46.45.815,lexical_decision_task_MP,2020.1.3,Win32,60,,z,1,,,,,,,,0.71033,1,,,,,,257,NW,"ID",33,veniod,VENIOD,z,0.71033,,,,,,0.112886049,-0.354100106,0,0,0,,0,286,286,256,1,
,,,,,,,,,,,,,,,,,,5e875f10bde8373bdc2eac32,2020-08-10_18h46.45.815,lexical_decision_task_MP,2020.1.3,Win32,60,,z,0,,,,,,,,0.8043,0,,,,,,85,WORD,"ID",50,sprawl,SPRAWL,m,0.8043,,,,,,0.112886049,-0.354100106,0,0,0,,0,287,287,84,1,
,,,,,,,,,,,,,,,,,,5e875f10bde8373bdc2eac32,2020-08-10_18h46.45.815,lexical_decision_task_MP,2020.1.3,Win32,60,,z,0,,,,,,,,0.60012,0,,,,,,59,WORD,"ID",33,splint,SPLINT,m,0.60012,,,,,,0.112886049,-0.354100106,0,0,0,,0,288,288,58,1,
,,,,,,,,,,,,,,,,,,5e875f10bde8373bdc2eac32,2020-08-10_18h46.45.815,lexical_decision_task_MP,2020.1.3,Win32,60,,m,0,,,,,,,,0.751095,0,,,,,,470,NW,UN,50,nobest,CRUDIO,z,0.751095,,,,,,0.112886049,-0.354100106,0,0,0,,0,289,289,469,1,
,,,,,,,,,,,,,,,,,,5e875f10bde8373bdc2eac32,2020-08-10_18h46.45.815,lexical_decision_task_MP,2020.1.3,Win32,60,,z,1,,,,,,,,0.79032,1,,,,,,381,NW,UN,33,sarley,HUNIEK,z,0.79032,,,,,,0.112886049,-0.354100106,0,0,0,,0,290,290,380,1,
,,,,,,,,,,,,,,,,,,5e875f10bde8373bdc2eac32,2020-08-10_18h46.45.815,lexical_decision_task_MP,2020.1.3,Win32,60,,m,0,,,,,,,,0.74987,0,,,,,,314,NW,"ID",50,sprine,SPRINE,z,0.74987,,,,,,0.112886049,-0.354100106,0,0,0,,0,291,291,313,1,
,,,,,,,,,,,,,,,,,,5e875f10bde8373bdc2eac32,2020-08-10_18h46.45.815,lexical_decision_task_MP,2020.1.3,Win32,60,,z,1,,,,,,,,0.654385,1,,,,,,443,NW,UN,50,jaunce,DORSEX,z,0.654385,,,,,,0.112886049,-0.354100106,0,0,0,,0,292,292,442,1,
,,,,,,,,,,,,,,,,,,5e875f10bde8373bdc2eac32,2020-08-10_18h46.45.815,lexical_decision_task_MP,2020.1.3,Win32,60,,z,1,,,,,,,,0.9508,1,,,,,,431,NW,UN,50,lunker,CHRUMS,z,0.9508,,,,,,0.112886049,-0.354100106,0,0,0,,0,293,293,430,1,
,,,,,,,,,,,,,,,,,,5e875f10bde8373bdc2eac32,2020-08-10_18h46.45.815,lexical_decision_task_MP,2020.1.3,Win32,60,,m,1,,,,,,,,0.68363,1,,,,,,173,WORD,UN,33,turkey,SHOWER,m,0.68363,,,,,,0.112886049,-0.354100106,0,0,0,,0,294,294,172,1,
,,,,,,,,,,,,,,,,,,5e875f10bde8373bdc2eac32,2020-08-10_18h46.45.815,lexical_decision_task_MP,2020.1.3,Win32,60,,m,1,,,,,,,,1.234135,1,,,,,,214,WORD,UN,50,phobia,INTAKE,m,1.234135,,,,,,0.112886049,-0.354100106,0,0,0,,0,295,295,213,1,
,,,,,,,,,,,,,,,,,,5e875f10bde8373bdc2eac32,2020-08-10_18h46.45.815,lexical_decision_task_MP,2020.1.3,Win32,60,,m,1,,,,,,,,0.654085,1,,,,,,118,WORD,"ID",50,flight,FLIGHT,m,0.654085,,,,,,0.112886049,-0.354100106,0,0,0,,0,296,296,117,1,
,,,,,,,,,,,,,,,,,,5e875f10bde8373bdc2eac32,2020-08-10_18h46.45.815,lexical_decision_task_MP,2020.1.3,Win32,60,,z,0,,,,,,,,0.644735,0,,,,,,74,WORD,"ID",50,plaque,PLAQUE,m,0.644735,,,,,,0.112886049,-0.354100106,0,0,0,,0,297,297,73,1,
,,,,,,,,,,,,,,,,,,5e875f10bde8373bdc2eac32,2020-08-10_18h46.45.815,lexical_decision_task_MP,2020.1.3,Win32,60,,m,1,,,,,,,,0.566985,1,,,,,,178,WORD,UN,33,mildew,INFORM,m,0.566985,,,,,,0.112886049,-0.354100106,0,0,0,,0,298,298,177,1,
,,,,,,,,,,,,,,,,,,5e875f10bde8373bdc2eac32,2020-08-10_18h46.45.815,lexical_decision_task_MP,2020.1.3,Win32,60,,z,0,,,,,,,,0.759755,0,,,,,,5,WORD,"ID",33,plunge,PLUNGE,m,0.759755,,,,,,0.112886049,-0.354100106,0,0,0,,0,299,299,4,1,
,,,,,,,,,,,,,,,,,,5e875f10bde8373bdc2eac32,2020-08-10_18h46.45.815,lexical_decision_task_MP,2020.1.3,Win32,60,,z,1,,,,,,,,1.578885,1,,,,,,295,NW,"ID",33,gleath,GLEATH,z,1.578885,,,,,,0.112886049,-0.354100106,0,0,0,,0,300,300,294,1,
,,,,,,,,,,,,,,,,,,5e875f10bde8373bdc2eac32,2020-08-10_18h46.45.815,lexical_decision_task_MP,2020.1.3,Win32,60,,z,1,,,,,,,,0.854565,1,,,,,,290,NW,"ID",33,splino,SPLINO,z,0.854565,,,,,,0.112886049,-0.354100106,0,0,0,,0,301,301,289,1,
,,,,,,,,,,,,,,,,,,5e875f10bde8373bdc2eac32,2020-08-10_18h46.45.815,lexical_decision_task_MP,2020.1.3,Win32,60,,z,1,,,,,,,,0.95794,1,,,,,,378,NW,UN,33,auting,SHRILE,z,0.95794,,,,,,0.112886049,-0.354100106,0,0,0,,0,302,302,377,1,
,,,,,,,,,,,,,,,,,,5e875f10bde8373bdc2eac32,2020-08-10_18h46.45.815,lexical_decision_task_MP,2020.1.3,Win32,60,,z,0,,,,,,,,0.56845,0,,,,,,70,WORD,"ID",50,square,SQUARE,m,0.56845,,,,,,0.112886049,-0.354100106,0,0,0,,0,303,303,69,1,
,,,,,,,,,,,,,,,,,,5e875f10bde8373bdc2eac32,2020-08-10_18h46.45.815,lexical_decision_task_MP,2020.1.3,Win32,60,,z,0,,,,,,,,0.763285,0,,,,,,20,WORD,"ID",33,breast,BREAST,m,0.763285,,,,,,0.112886049,-0.354100106,0,0,0,,0,304,304,19,1,
,,,,,,,,,,,,,,,,,,5e875f10bde8373bdc2eac32,2020-08-10_18h46.45.815,lexical_decision_task_MP,2020.1.3,Win32,60,,m,1,,,,,,,,0.65392,1,,,,,,103,WORD,"ID",50,bounce,BOUNCE,m,0.65392,,,,,,0.112886049,-0.354100106,0,0,0,,0,305,305,102,1,
,,,,,,,,,,,,,,,,,,5e875f10bde8373bdc2eac32,2020-08-10_18h46.45.815,lexical_decision_task_MP,2020.1.3,Win32,60,,m,1,,,,,,,,0.65814,1,,,,,,73,WORD,"ID",50,source,SOURCE,m,0.65814,,,,,,0.112886049,-0.354100106,0,0,0,,0,306,306,72,1,
,,,,,,,,,,,,,,,,,,5e875f10bde8373bdc2eac32,2020-08-10_18h46.45.815,lexical_decision_task_MP,2020.1.3,Win32,60,,z,1,,,,,,,,1.020165,1,,,,,,350,NW,"ID",50,nagurs,NAGURS,z,1.020165,,,,,,0.112886049,-0.354100106,0,0,0,,0,307,307,349,1,
,,,,,,,,,,,,,,,,,,5e875f10bde8373bdc2eac32,2020-08-10_18h46.45.815,lexical_decision_task_MP,2020.1.3,Win32,60,,m,0,,,,,,,,0.717245,0,,,,,,253,NW,"ID",33,resait,RESAIT,z,0.717245,,,,,,0.112886049,-0.354100106,0,0,0,,0,308,308,252,1,
,,,,,,,,,,,,,,,,,,5e875f10bde8373bdc2eac32,2020-08-10_18h46.45.815,lexical_decision_task_MP,2020.1.3,Win32,60,,m,1,,,,,,,,1.44909,1,,,,,,123,WORD,UN,33,enough,STRIKE,m,1.44909,,,,,,0.112886049,-0.354100106,0,0,0,,0,309,309,122,1,
,,,,,,,,,,,,,,,,,,5e875f10bde8373bdc2eac32,2020-08-10_18h46.45.815,lexical_decision_task_MP,2020.1.3,Win32,60,,z,1,,,,,,,,0.850335,1,,,,,,395,NW,UN,33,flengy,COLURY,z,0.850335,,,,,,0.112886049,-0.354100106,0,0,0,,0,310,310,394,1,
,,,,,,,,,,,,,,,,,,5e875f10bde8373bdc2eac32,2020-08-10_18h46.45.815,lexical_decision_task_MP,2020.1.3,Win32,60,,z,1,,,,,,,,1.08705,1,,,,,,386,NW,UN,33,gronce,ANCUST,z,1.08705,,,,,,0.112886049,-0.354100106,0,0,0,,0,311,311,385,1,
,,,,,,,,,,,,,,,,,,5e875f10bde8373bdc2eac32,2020-08-10_18h46.45.815,lexical_decision_task_MP,2020.1.3,Win32,60,,z,1,,,,,,,,0.822455,1,,,,,,466,NW,UN,50,pebric,HOCITE,z,0.822455,,,,,,0.112886049,-0.354100106,0,0,0,,0,312,312,465,1,
,,,,,,,,,,,,,,,,,,5e875f10bde8373bdc2eac32,2020-08-10_18h46.45.815,lexical_decision_task_MP,2020.1.3,Win32,60,,z,0,,,,,,,,0.951035,0,,,,,,162,WORD,UN,33,string,CANDLE,m,0.951035,,,,,,0.112886049,-0.354100106,0,0,0,,0,313,313,161,1,
,,,,,,,,,,,,,,,,,,5e875f10bde8373bdc2eac32,2020-08-10_18h46.45.815,lexical_decision_task_MP,2020.1.3,Win32,60,,z,1,,,,,,,,0.684075,1,,,,,,273,NW,"ID",33,sortel,SORTEL,z,0.684075,,,,,,0.112886049,-0.354100106,0,0,0,,0,314,314,272,1,
,,,,,,,,,,,,,,,,,,5e875f10bde8373bdc2eac32,2020-08-10_18h46.45.815,lexical_decision_task_MP,2020.1.3,Win32,60,,m,1,,,,,,,,0.648835,1,,,,,,26,WORD,"ID",33,sprint,SPRINT,m,0.648835,,,,,,0.112886049,-0.354100106,0,0,0,,0,315,315,25,1,
,,,,,,,,,,,,,,,,,,5e875f10bde8373bdc2eac32,2020-08-10_18h46.45.815,lexical_decision_task_MP,2020.1.3,Win32,60,,m,1,,,,,,,,0.76007,1,,,,,,60,WORD,"ID",33,pencil,PENCIL,m,0.76007,,,,,,0.112886049,-0.354100106,0,0,0,,0,316,316,59,1,
,,,,,,,,,,,,,,,,,,5e875f10bde8373bdc2eac32,2020-08-10_18h46.45.815,lexical_decision_task_MP,2020.1.3,Win32,60,,z,0,,,,,,,,0.75629,0,,,,,,56,WORD,"ID",33,ambush,AMBUSH,m,0.75629,,,,,,0.112886049,-0.354100106,0,0,0,,0,317,317,55,1,
,,,,,,,,,,,,,,,,,,5e875f10bde8373bdc2eac32,2020-08-10_18h46.45.815,lexical_decision_task_MP,2020.1.3,Win32,60,,z,1,,,,,,,,0.59017,1,,,,,,320,NW,"ID",50,jockal,JOCKAL,z,0.59017,,,,,,0.112886049,-0.354100106,0,0,0,,0,318,318,319,1,
,,,,,,,,,,,,,,,,,,5e875f10bde8373bdc2eac32,2020-08-10_18h46.45.815,lexical_decision_task_MP,2020.1.3,Win32,60,,z,1,,,,,,,,0.59299,1,,,,,,279,NW,"ID",33,celond,CELOND,z,0.59299,,,,,,0.112886049,-0.354100106,0,0,0,,0,319,319,278,1,
,,,,,,,,,,,,,,,,,,5e875f10bde8373bdc2eac32,2020-08-10_18h46.45.815,lexical_decision_task_MP,2020.1.3,Win32,60,,z,1,,,,,,,,0.74579,1,,,,,,387,NW,UN,33,cragin,GRONCE,z,0.74579,,,,,,0.112886049,-0.354100106,0,0,0,,0,320,320,386,1,
,,,,,,,,,,,,,,,,,,5e875f10bde8373bdc2eac32,2020-08-10_18h46.45.815,lexical_decision_task_MP,2020.1.3,Win32,60,,z,0,,,,,,,,0.742045,0,,,,,,204,WORD,UN,50,lounge,BURDEN,m,0.742045,,,,,,0.112886049,-0.354100106,0,0,0,,0,321,321,203,1,
,,,,,,,,,,,,,,,,,,5e875f10bde8373bdc2eac32,2020-08-10_18h46.45.815,lexical_decision_task_MP,2020.1.3,Win32,60,,z,1,,,,,,,,0.633655,1,,,,,,471,NW,UN,50,cigney,NOBEST,z,0.633655,,,,,,0.112886049,-0.354100106,0,0,0,,0,322,322,470,1,
,,,,,,,,,,,,,,,,,,5e875f10bde8373bdc2eac32,2020-08-10_18h46.45.815,lexical_decision_task_MP,2020.1.3,Win32,60,,z,0,,,,,,,,0.76144,0,,,,,,8,WORD,"ID",33,abrupt,ABRUPT,m,0.76144,,,,,,0.112886049,-0.354100106,0,0,0,,0,323,323,7,1,
,,,,,,,,,,,,,,,,,,5e875f10bde8373bdc2eac32,2020-08-10_18h46.45.815,lexical_decision_task_MP,2020.1.3,Win32,60,,m,1,,,,,,,,0.685705,1,,,,,,150,WORD,UN,33,mystic,RANDOM,m,0.685705,,,,,,0.112886049,-0.354100106,0,0,0,,0,324,324,149,1,
,,,,,,,,,,,,,,,,,,5e875f10bde8373bdc2eac32,2020-08-10_18h46.45.815,lexical_decision_task_MP,2020.1.3,Win32,60,,z,1,,,,,,,,0.907925,1,,,,,,383,NW,UN,33,guesco,AUNGRE,z,0.907925,,,,,,0.112886049,-0.354100106,0,0,0,,0,325,325,382,1,
,,,,,,,,,,,,,,,,,,5e875f10bde8373bdc2eac32,2020-08-10_18h46.45.815,lexical_decision_task_MP,2020.1.3,Win32,60,,m,1,,,,,,,,0.841775,1,,,,,,127,WORD,UN,33,senior,CASTLE,m,0.841775,,,,,,0.112886049,-0.354100106,0,0,0,,0,326,326,126,1,
,,,,,,,,,,,,,,,,,,5e875f10bde8373bdc2eac32,2020-08-10_18h46.45.815,lexical_decision_task_MP,2020.1.3,Win32,60,,z,1,,,,,,,,0.935065,1,,,,,,319,NW,"ID",50,zomber,ZOMBER,z,0.935065,,,,,,0.112886049,-0.354100106,0,0,0,,0,327,327,318,1,
,,,,,,,,,,,,,,,,,,5e875f10bde8373bdc2eac32,2020-08-10_18h46.45.815,lexical_decision_task_MP,2020.1.3,Win32,60,,z,1,,,,,,,,0.78918,1,,,,,,414,NW,UN,33,higsta,SERBOL,z,0.78918,,,,,,0.112886049,-0.354100106,0,0,0,,0,328,328,413,1,
,,,,,,,,,,,,,,,,,,5e875f10bde8373bdc2eac32,2020-08-10_18h46.45.815,lexical_decision_task_MP,2020.1.3,Win32,60,,m,1,,,,,,,,0.95895,1,,,,,,179,WORD,UN,33,silent,BASKET,m,0.95895,,,,,,0.112886049,-0.354100106,0,0,0,,0,329,329,178,1,
,,,,,,,,,,,,,,,,,,5e875f10bde8373bdc2eac32,2020-08-10_18h46.45.815,lexical_decision_task_MP,2020.1.3,Win32,60,,z,0,,,,,,,,0.721845,0,,,,,,156,WORD,UN,33,pastor,CRADLE,m,0.721845,,,,,,0.112886049,-0.354100106,0,0,0,,0,330,330,155,1,
,,,,,,,,,,,,,,,,,,5e875f10bde8373bdc2eac32,2020-08-10_18h46.45.815,lexical_decision_task_MP,2020.1.3,Win32,60,,z,1,,,,,,,,0.87187,1,,,,,,362,NW,UN,33,breali,TIREAU,z,0.87187,,,,,,0.112886049,-0.354100106,0,0,0,,0,331,331,361,1,
,,,,,,,,,,,,,,,,,,5e875f10bde8373bdc2eac32,2020-08-10_18h46.45.815,lexical_decision_task_MP,2020.1.3,Win32,60,,m,1,,,,,,,,0.617245,1,,,,,,169,WORD,UN,33,pounce,GENIUS,m,0.617245,,,,,,0.112886049,-0.354100106,0,0,0,,0,332,332,168,1,
,,,,,,,,,,,,,,,,,,5e875f10bde8373bdc2eac32,2020-08-10_18h46.45.815,lexical_decision_task_MP,2020.1.3,Win32,60,,z,1,,,,,,,,1.12673,1,,,,,,338,NW,"ID",50,wreash,WREASH,z,1.12673,,,,,,0.112886049,-0.354100106,0,0,0,,0,333,333,337,1,
,,,,,,,,,,,,,,,,,,5e875f10bde8373bdc2eac32,2020-08-10_18h46.45.815,lexical_decision_task_MP,2020.1.3,Win32,60,,z,1,,,,,,,,0.93856,1,,,,,,310,NW,"ID",50,daniet,DANIET,z,0.93856,,,,,,0.112886049,-0.354100106,0,0,0,,0,334,334,309,1,
,,,,,,,,,,,,,,,,,,5e875f10bde8373bdc2eac32,2020-08-10_18h46.45.815,lexical_decision_task_MP,2020.1.3,Win32,60,,z,1,,,,,,,,0.784015,1,,,,,,382,NW,UN,33,aungre,SARLEY,z,0.784015,,,,,,0.112886049,-0.354100106,0,0,0,,0,335,335,381,1,
,,,,,,,,,,,,,,,,,,5e875f10bde8373bdc2eac32,2020-08-10_18h46.45.815,lexical_decision_task_MP,2020.1.3,Win32,60,,z,1,,,,,,,,0.63467,1,,,,,,251,NW,"ID",33,lupict,LUPICT,z,0.63467,,,,,,0.112886049,-0.354100106,0,0,0,,0,336,336,250,1,
,,,,,,,,,,,,,,,,,,5e875f10bde8373bdc2eac32,2020-08-10_18h46.45.815,lexical_decision_task_MP,2020.1.3,Win32,60,,z,1,,,,,,,,0.91237,1,,,,,,344,NW,"ID",50,scrily,SCRILY,z,0.91237,,,,,,0.112886049,-0.354100106,0,0,0,,0,337,337,343,1,
,,,,,,,,,,,,,,,,,,5e875f10bde8373bdc2eac32,2020-08-10_18h46.45.815,lexical_decision_task_MP,2020.1.3,Win32,60,,z,0,,,,,,,,0.52494,0,,,,,,201,WORD,UN,50,factor,ADMIRE,m,0.52494,,,,,,0.112886049,-0.354100106,0,0,0,,0,338,338,200,1,
,,,,,,,,,,,,,,,,,,5e875f10bde8373bdc2eac32,2020-08-10_18h46.45.815,lexical_decision_task_MP,2020.1.3,Win32,60,,m,1,,,,,,,,0.633705,1,,,,,,65,WORD,"ID",50,symbol,SYMBOL,m,0.633705,,,,,,0.112886049,-0.354100106,0,0,0,,0,339,339,64,1,
,,,,,,,,,,,,,,,,,,5e875f10bde8373bdc2eac32,2020-08-10_18h46.45.815,lexical_decision_task_MP,2020.1.3,Win32,60,,m,1,,,,,,,,0.7054,1,,,,,,158,WORD,UN,33,detail,ISLAND,m,0.7054,,,,,,0.112886049,-0.354100106,0,0,0,,0,340,340,157,1,
,,,,,,,,,,,,,,,,,,5e875f10bde8373bdc2eac32,2020-08-10_18h46.45.815,lexical_decision_task_MP,2020.1.3,Win32,60,,z,1,,,,,,,,0.93484,1,,,,,,271,NW,"ID",33,aubrid,AUBRID,z,0.93484,,,,,,0.112886049,-0.354100106,0,0,0,,0,341,341,270,1,
,,,,,,,,,,,,,,,,,,5e875f10bde8373bdc2eac32,2020-08-10_18h46.45.815,lexical_decision_task_MP,2020.1.3,Win32,60,,z,1,,,,,,,,0.69055,1,,,,,,352,NW,"ID",50,tringe,TRINGE,z,0.69055,,,,,,0.112886049,-0.354100106,0,0,0,,0,342,342,351,1,
,,,,,,,,,,,,,,,,,,5e875f10bde8373bdc2eac32,2020-08-10_18h46.45.815,lexical_decision_task_MP,2020.1.3,Win32,60,,m,1,,,,,,,,1.85108,1,,,,,,78,WORD,"ID",50,column,COLUMN,m,1.85108,,,,,,0.112886049,-0.354100106,0,0,0,,0,343,343,77,1,
,,,,,,,,,,,,,,,,,,5e875f10bde8373bdc2eac32,2020-08-10_18h46.45.815,lexical_decision_task_MP,2020.1.3,Win32,60,,m,1,,,,,,,,0.749885,1,,,,,,132,WORD,UN,33,bleach,STRONG,m,0.749885,,,,,,0.112886049,-0.354100106,0,0,0,,0,344,344,131,1,
,,,,,,,,,,,,,,,,,,5e875f10bde8373bdc2eac32,2020-08-10_18h46.45.815,lexical_decision_task_MP,2020.1.3,Win32,60,,z,1,,,,,,,,0.75582,1,,,,,,377,NW,UN,33,shrile,INJORE,z,0.75582,,,,,,0.112886049,-0.354100106,0,0,0,,0,345,345,376,1,
,,,,,,,,,,,,,,,,,,5e875f10bde8373bdc2eac32,2020-08-10_18h46.45.815,lexical_decision_task_MP,2020.1.3,Win32,60,,z,1,,,,,,,,0.73477,1,,,,,,258,NW,"ID",33,poluth,POLUTH,z,0.73477,,,,,,0.112886049,-0.354100106,0,0,0,,0,346,346,257,1,
,,,,,,,,,,,,,,,,,,5e875f10bde8373bdc2eac32,2020-08-10_18h46.45.815,lexical_decision_task_MP,2020.1.3,Win32,60,,z,1,,,,,,,,0.650775,1,,,,,,474,NW,UN,50,gorbie,HABLIN,z,0.650775,,,,,,0.112886049,-0.354100106,0,0,0,,0,347,347,473,1,
,,,,,,,,,,,,,,,,,,5e875f10bde8373bdc2eac32,2020-08-10_18h46.45.815,lexical_decision_task_MP,2020.1.3,Win32,60,,m,1,,,,,,,,0.729905,1,,,,,,29,WORD,"ID",33,sketch,SKETCH,m,0.729905,,,,,,0.112886049,-0.354100106,0,0,0,,0,348,348,28,1,
,,,,,,,,,,,,,,,,,,5e875f10bde8373bdc2eac32,2020-08-10_18h46.45.815,lexical_decision_task_MP,2020.1.3,Win32,60,,z,1,,,,,,,,1.49499,1,,,,,,255,NW,"ID",33,apight,APIGHT,z,1.49499,,,,,,0.112886049,-0.354100106,0,0,0,,0,349,349,254,1,
,,,,,,,,,,,,,,,,,,5e875f10bde8373bdc2eac32,2020-08-10_18h46.45.815,lexical_decision_task_MP,2020.1.3,Win32,60,,z,0,,,,,,,,0.582495,0,,,,,,50,WORD,"ID",33,snatch,SNATCH,m,0.582495,,,,,,0.112886049,-0.354100106,0,0,0,,0,350,350,49,1,
,,,,,,,,,,,,,,,,,,5e875f10bde8373bdc2eac32,2020-08-10_18h46.45.815,lexical_decision_task_MP,2020.1.3,Win32,60,,z,1,,,,,,,,0.783805,1,,,,,,302,NW,"ID",50,miluer,MILUER,z,0.783805,,,,,,0.112886049,-0.354100106,0,0,0,,0,351,351,301,1,
,,,,,,,,,,,,,,,,,,5e875f10bde8373bdc2eac32,2020-08-10_18h46.45.815,lexical_decision_task_MP,2020.1.3,Win32,60,,z,0,,,,,,,,0.735075,0,,,,,,90,WORD,"ID",50,relish,RELISH,m,0.735075,,,,,,0.112886049,-0.354100106,0,0,0,,0,352,352,89,1,
,,,,,,,,,,,,,,,,,,5e875f10bde8373bdc2eac32,2020-08-10_18h46.45.815,lexical_decision_task_MP,2020.1.3,Win32,60,,z,1,,,,,,,,0.619295,1,,,,,,262,NW,"ID",33,quilew,QUILEW,z,0.619295,,,,,,0.112886049,-0.354100106,0,0,0,,0,353,353,261,1,
,,,,,,,,,,,,,,,,,,5e875f10bde8373bdc2eac32,2020-08-10_18h46.45.815,lexical_decision_task_MP,2020.1.3,Win32,60,,m,0,,,,,,,,0.635815,0,,,,,,437,NW,UN,50,baitch,SNAPEL,z,0.635815,,,,,,0.112886049,-0.354100106,0,0,0,,0,354,354,436,1,
,,,,,,,,,,,,,,,,,,5e875f10bde8373bdc2eac32,2020-08-10_18h46.45.815,lexical_decision_task_MP,2020.1.3,Win32,60,,z,1,,,,,,,,1.26088,1,,,,,,408,NW,UN,33,flumni,HURNIA,z,1.26088,,,,,,0.112886049,-0.354100106,0,0,0,,0,355,355,407,1,
,,,,,,,,,,,,,,,,,,5e875f10bde8373bdc2eac32,2020-08-10_18h46.45.815,lexical_decision_task_MP,2020.1.3,Win32,60,,z,0,,,,,,,,1.498885,0,,,,,,145,WORD,UN,33,couple,PARISH,m,1.498885,,,,,,0.112886049,-0.354100106,0,0,0,,0,356,356,144,1,
,,,,,,,,,,,,,,,,,,5e875f10bde8373bdc2eac32,2020-08-10_18h46.45.815,lexical_decision_task_MP,2020.1.3,Win32,60,,z,1,,,,,,,,0.809065,1,,,,,,396,NW,UN,33,camble,FLENGY,z,0.809065,,,,,,0.112886049,-0.354100106,0,0,0,,0,357,357,395,1,
,,,,,,,,,,,,,,,,,,5e875f10bde8373bdc2eac32,2020-08-10_18h46.45.815,lexical_decision_task_MP,2020.1.3,Win32,60,,z,1,,,,,,,,0.730045,1,,,,,,425,NW,UN,50,schind,FRUDGE,z,0.730045,,,,,,0.112886049,-0.354100106,0,0,0,,0,358,358,424,1,
,,,,,,,,,,,,,,,,,,5e875f10bde8373bdc2eac32,2020-08-10_18h46.45.815,lexical_decision_task_MP,2020.1.3,Win32,60,,z,0,,,,,,,,0.783905,0,,,,,,125,WORD,UN,33,blouse,NICKEL,m,0.783905,,,,,,0.112886049,-0.354100106,0,0,0,,0,359,359,124,1,
,,,,,,,,,,,,,,,,,,5e875f10bde8373bdc2eac32,2020-08-10_18h46.45.815,lexical_decision_task_MP,2020.1.3,Win32,60,,z,0,,,,,,,,0.76063,0,,,,,,64,WORD,"ID",50,throne,THRONE,m,0.76063,,,,,,0.112886049,-0.354100106,0,0,0,,0,360,360,63,1,
,,,,,,,,,,,,,,,,,,5e875f10bde8373bdc2eac32,2020-08-10_18h46.45.815,lexical_decision_task_MP,2020.1.3,Win32,60,,m,1,,,,,,,,0.66788,1,,,,,,119,WORD,"ID",50,spider,SPIDER,m,0.66788,,,,,,0.112886049,-0.354100106,0,0,0,,0,361,361,118,1,
,,,,,,,,,,,,,,,,,,5e875f10bde8373bdc2eac32,2020-08-10_18h46.45.815,lexical_decision_task_MP,2020.1.3,Win32,60,,z,1,,,,,,,,0.882515,1,,,,,,363,NW,UN,33,impote,BREALI,z,0.882515,,,,,,0.036208733,-0.402023429,1,0,0,,0,362,362,362,1,break_done_button
,,,,,,,,,,,,,,,,,,5e875f10bde8373bdc2eac32,2020-08-10_18h46.45.815,lexical_decision_task_MP,2020.1.3,Win32,60,,z,1,,,,,,,,0.83733,1,,,,,,451,NW,UN,50,surden,CAINKY,z,0.83733,,,,,,0.031948882,-0.381789137,0,0,0,,0,363,363,450,1,
,,,,,,,,,,,,,,,,,,5e875f10bde8373bdc2eac32,2020-08-10_18h46.45.815,lexical_decision_task_MP,2020.1.3,Win32,60,,z,0,,,,,,,,0.62065,0,,,,,,153,WORD,UN,33,author,BEHOLD,m,0.62065,,,,,,0.031948882,-0.381789137,0,0,0,,0,364,364,152,1,
,,,,,,,,,,,,,,,,,,5e875f10bde8373bdc2eac32,2020-08-10_18h46.45.815,lexical_decision_task_MP,2020.1.3,Win32,60,,z,0,,,,,,,,0.6782,0,,,,,,121,WORD,UN,33,linger,THRIVE,m,0.6782,,,,,,0.031948882,-0.381789137,0,0,0,,0,365,365,120,1,
,,,,,,,,,,,,,,,,,,5e875f10bde8373bdc2eac32,2020-08-10_18h46.45.815,lexical_decision_task_MP,2020.1.3,Win32,60,,z,1,,,,,,,,0.60444,1,,,,,,404,NW,UN,33,syntic,CLUIRM,z,0.60444,,,,,,0.031948882,-0.381789137,0,0,0,,0,366,366,403,1,
,,,,,,,,,,,,,,,,,,5e875f10bde8373bdc2eac32,2020-08-10_18h46.45.815,lexical_decision_task_MP,2020.1.3,Win32,60,,m,1,,,,,,,,0.800935,1,,,,,,226,WORD,UN,50,flower,CASINO,m,0.800935,,,,,,0.031948882,-0.381789137,0,0,0,,0,367,367,225,1,
,,,,,,,,,,,,,,,,,,5e875f10bde8373bdc2eac32,2020-08-10_18h46.45.815,lexical_decision_task_MP,2020.1.3,Win32,60,,m,1,,,,,,,,0.67773,1,,,,,,21,WORD,"ID",33,simple,SIMPLE,m,0.67773,,,,,,0.031948882,-0.381789137,0,0,0,,0,368,368,20,1,
,,,,,,,,,,,,,,,,,,5e875f10bde8373bdc2eac32,2020-08-10_18h46.45.815,lexical_decision_task_MP,2020.1.3,Win32,60,,z,1,,,,,,,,0.741185,1,,,,,,346,NW,"ID",50,saudic,SAUDIC,z,0.741185,,,,,,0.031948882,-0.381789137,0,0,0,,0,369,369,345,1,
,,,,,,,,,,,,,,,,,,5e875f10bde8373bdc2eac32,2020-08-10_18h46.45.815,lexical_decision_task_MP,2020.1.3,Win32,60,,z,1,,,,,,,,0.689545,1,,,,,,449,NW,UN,50,phrect,BRUNGE,z,0.689545,,,,,,0.031948882,-0.381789137,0,0,0,,0,370,370,448,1,
,,,,,,,,,,,,,,,,,,5e875f10bde8373bdc2eac32,2020-08-10_18h46.45.815,lexical_decision_task_MP,2020.1.3,Win32,60,,z,1,,,,,,,,0.72672,1,,,,,,447,NW,UN,50,sadent,GIRCUE,z,0.72672,,,,,,0.031948882,-0.381789137,0,0,0,,0,371,371,446,1,
,,,,,,,,,,,,,,,,,,5e875f10bde8373bdc2eac32,2020-08-10_18h46.45.815,lexical_decision_task_MP,2020.1.3,Win32,60,,z,0,,,,,,,,0.669025,0,,,,,,61,WORD,"ID",50,ponder,PONDER,m,0.669025,,,,,,0.031948882,-0.381789137,0,0,0,,0,372,372,60,1,
,,,,,,,,,,,,,,,,,,5e875f10bde8373bdc2eac32,2020-08-10_18h46.45.815,lexical_decision_task_MP,2020.1.3,Win32,60,,z,1,,,,,,,,1.217535,1,,,,,,272,NW,"ID",33,damilt,DAMILT,z,1.217535,,,,,,0.031948882,-0.381789137,0,0,0,,0,373,373,271,1,
,,,,,,,,,,,,,,,,,,5e875f10bde8373bdc2eac32,2020-08-10_18h46.45.815,lexical_decision_task_MP,2020.1.3,Win32,60,,z,0,,,,,,,,0.82644,0,,,,,,9,WORD,"ID",33,hustle,HUSTLE,m,0.82644,,,,,,0.031948882,-0.381789137,0,0,0,,0,374,374,8,1,
,,,,,,,,,,,,,,,,,,5e875f10bde8373bdc2eac32,2020-08-10_18h46.45.815,lexical_decision_task_MP,2020.1.3,Win32,60,,z,0,,,,,,,,0.634725,0,,,,,,25,WORD,"ID",33,domain,DOMAIN,m,0.634725,,,,,,0.031948882,-0.381789137,0,0,0,,0,375,375,24,1,
,,,,,,,,,,,,,,,,,,5e875f10bde8373bdc2eac32,2020-08-10_18h46.45.815,lexical_decision_task_MP,2020.1.3,Win32,60,,m,1,,,,,,,,1.058985,1,,,,,,14,WORD,"ID",33,almost,ALMOST,m,1.058985,,,,,,0.031948882,-0.381789137,0,0,0,,0,376,376,13,1,
,,,,,,,,,,,,,,,,,,5e875f10bde8373bdc2eac32,2020-08-10_18h46.45.815,lexical_decision_task_MP,2020.1.3,Win32,60,,m,1,,,,,,,,0.70044,1,,,,,,185,WORD,UN,50,portal,BOTHER,m,0.70044,,,,,,0.031948882,-0.381789137,0,0,0,,0,377,377,184,1,
,,,,,,,,,,,,,,,,,,5e875f10bde8373bdc2eac32,2020-08-10_18h46.45.815,lexical_decision_task_MP,2020.1.3,Win32,60,,z,1,,,,,,,,1.02321,1,,,,,,359,NW,"ID",50,fonver,FONVER,z,1.02321,,,,,,0.031948882,-0.381789137,0,0,0,,0,378,378,358,1,
,,,,,,,,,,,,,,,,,,5e875f10bde8373bdc2eac32,2020-08-10_18h46.45.815,lexical_decision_task_MP,2020.1.3,Win32,60,,z,1,,,,,,,,0.687675,1,,,,,,274,NW,"ID",33,fumblo,FUMBLO,z,0.687675,,,,,,0.031948882,-0.381789137,0,0,0,,0,379,379,273,1,
,,,,,,,,,,,,,,,,,,5e875f10bde8373bdc2eac32,2020-08-10_18h46.45.815,lexical_decision_task_MP,2020.1.3,Win32,60,,m,1,,,,,,,,0.66106,1,,,,,,232,WORD,UN,50,nature,INJECT,m,0.66106,,,,,,0.031948882,-0.381789137,0,0,0,,0,380,380,231,1,
,,,,,,,,,,,,,,,,,,5e875f10bde8373bdc2eac32,2020-08-10_18h46.45.815,lexical_decision_task_MP,2020.1.3,Win32,60,,z,1,,,,,,,,0.756945,1,,,,,,283,NW,"ID",33,veralf,VERALF,z,0.756945,,,,,,0.031948882,-0.381789137,0,0,0,,0,381,381,282,1,
,,,,,,,,,,,,,,,,,,5e875f10bde8373bdc2eac32,2020-08-10_18h46.45.815,lexical_decision_task_MP,2020.1.3,Win32,60,,z,1,,,,,,,,0.71136,1,,,,,,422,NW,UN,50,streld,ALCOUD,z,0.71136,,,,,,0.031948882,-0.381789137,0,0,0,,0,382,382,421,1,
,,,,,,,,,,,,,,,,,,5e875f10bde8373bdc2eac32,2020-08-10_18h46.45.815,lexical_decision_task_MP,2020.1.3,Win32,60,,z,0,,,,,,,,0.629365,0,,,,,,139,WORD,UN,33,prince,DEBRIS,m,0.629365,,,,,,0.031948882,-0.381789137,0,0,0,,0,383,383,138,1,
,,,,,,,,,,,,,,,,,,5e875f10bde8373bdc2eac32,2020-08-10_18h46.45.815,lexical_decision_task_MP,2020.1.3,Win32,60,,z,1,,,,,,,,0.60048,1,,,,,,308,NW,"ID",50,psetch,PSETCH,z,0.60048,,,,,,0.031948882,-0.381789137,0,0,0,,0,384,384,307,1,
,,,,,,,,,,,,,,,,,,5e875f10bde8373bdc2eac32,2020-08-10_18h46.45.815,lexical_decision_task_MP,2020.1.3,Win32,60,,m,1,,,,,,,,0.84647,1,,,,,,3,WORD,"ID",33,knight,KNIGHT,m,0.84647,,,,,,0.031948882,-0.381789137,0,0,0,,0,385,385,2,1,
,,,,,,,,,,,,,,,,,,5e875f10bde8373bdc2eac32,2020-08-10_18h46.45.815,lexical_decision_task_MP,2020.1.3,Win32,60,,z,1,,,,,,,,1.60703,1,,,,,,355,NW,"ID",50,zingly,ZINGLY,z,1.60703,,,,,,0.031948882,-0.381789137,0,0,0,,0,386,386,354,1,
,,,,,,,,,,,,,,,,,,5e875f10bde8373bdc2eac32,2020-08-10_18h46.45.815,lexical_decision_task_MP,2020.1.3,Win32,60,,z,1,,,,,,,,0.80752,1,,,,,,461,NW,UN,50,absult,JUSTRE,z,0.80752,,,,,,0.031948882,-0.381789137,0,0,0,,0,387,387,460,1,
,,,,,,,,,,,,,,,,,,5e875f10bde8373bdc2eac32,2020-08-10_18h46.45.815,lexical_decision_task_MP,2020.1.3,Win32,60,,m,1,,,,,,,,0.920415,1,,,,,,55,WORD,"ID",33,stroke,STROKE,m,0.920415,,,,,,0.031948882,-0.381789137,0,0,0,,0,388,388,54,1,
,,,,,,,,,,,,,,,,,,5e875f10bde8373bdc2eac32,2020-08-10_18h46.45.815,lexical_decision_task_MP,2020.1.3,Win32,60,,m,1,,,,,,,,0.799945,1,,,,,,19,WORD,"ID",33,patron,PATRON,m,0.799945,,,,,,0.031948882,-0.381789137,0,0,0,,0,389,389,18,1,
,,,,,,,,,,,,,,,,,,5e875f10bde8373bdc2eac32,2020-08-10_18h46.45.815,lexical_decision_task_MP,2020.1.3,Win32,60,,m,1,,,,,,,,0.902985,1,,,,,,63,WORD,"ID",50,launch,LAUNCH,m,0.902985,,,,,,0.031948882,-0.381789137,0,0,0,,0,390,390,62,1,
,,,,,,,,,,,,,,,,,,5e875f10bde8373bdc2eac32,2020-08-10_18h46.45.815,lexical_decision_task_MP,2020.1.3,Win32,60,,z,1,,,,,,,,0.875395,1,,,,,,440,NW,UN,50,cainky,SARIDE,z,0.875395,,,,,,0.031948882,-0.381789137,0,0,0,,0,391,391,439,1,
,,,,,,,,,,,,,,,,,,5e875f10bde8373bdc2eac32,2020-08-10_18h46.45.815,lexical_decision_task_MP,2020.1.3,Win32,60,,z,1,,,,,,,,0.850025,1,,,,,,379,NW,UN,33,cavory,AUTING,z,0.850025,,,,,,0.031948882,-0.381789137,0,0,0,,0,392,392,378,1,
,,,,,,,,,,,,,,,,,,5e875f10bde8373bdc2eac32,2020-08-10_18h46.45.815,lexical_decision_task_MP,2020.1.3,Win32,60,,z,1,,,,,,,,0.98511,1,,,,,,438,NW,UN,50,limpor,BAITCH,z,0.98511,,,,,,0.031948882,-0.381789137,0,0,0,,0,393,393,437,1,
,,,,,,,,,,,,,,,,,,5e875f10bde8373bdc2eac32,2020-08-10_18h46.45.815,lexical_decision_task_MP,2020.1.3,Win32,60,,z,1,,,,,,,,0.802425,1,,,,,,463,NW,UN,50,bafent,KISPEL,z,0.802425,,,,,,0.031948882,-0.381789137,0,0,0,,0,394,394,462,1,
,,,,,,,,,,,,,,,,,,5e875f10bde8373bdc2eac32,2020-08-10_18h46.45.815,lexical_decision_task_MP,2020.1.3,Win32,60,,z,1,,,,,,,,0.555395,1,,,,,,374,NW,UN,33,yorque,SLIANT,z,0.555395,,,,,,0.031948882,-0.381789137,0,0,0,,0,395,395,373,1,
,,,,,,,,,,,,,,,,,,5e875f10bde8373bdc2eac32,2020-08-10_18h46.45.815,lexical_decision_task_MP,2020.1.3,Win32,60,,m,1,,,,,,,,0.790545,1,,,,,,112,WORD,"ID",50,breath,BREATH,m,0.790545,,,,,,0.031948882,-0.381789137,0,0,0,,0,396,396,111,1,
,,,,,,,,,,,,,,,,,,5e875f10bde8373bdc2eac32,2020-08-10_18h46.45.815,lexical_decision_task_MP,2020.1.3,Win32,60,,z,0,,,,,,,,0.7754,0,,,,,,227,WORD,UN,50,master,SELDOM,m,0.7754,,,,,,0.031948882,-0.381789137,0,0,0,,0,397,397,226,1,
,,,,,,,,,,,,,,,,,,5e875f10bde8373bdc2eac32,2020-08-10_18h46.45.815,lexical_decision_task_MP,2020.1.3,Win32,60,,z,1,,,,,,,,0.810595,1,,,,,,298,NW,"ID",33,piergy,PIERGY,z,0.810595,,,,,,0.031948882,-0.381789137,0,0,0,,0,398,398,297,1,
,,,,,,,,,,,,,,,,,,5e875f10bde8373bdc2eac32,2020-08-10_18h46.45.815,lexical_decision_task_MP,2020.1.3,Win32,60,,z,0,,,,,,,,1.10764,0,,,,,,195,WORD,UN,50,credit,RESIGN,m,1.10764,,,,,,0.031948882,-0.381789137,0,0,0,,0,399,399,194,1,
,,,,,,,,,,,,,,,,,,5e875f10bde8373bdc2eac32,2020-08-10_18h46.45.815,lexical_decision_task_MP,2020.1.3,Win32,60,,z,1,,,,,,,,0.66707,1,,,,,,385,NW,UN,33,ancust,VEIGMA,z,0.66707,,,,,,0.031948882,-0.381789137,0,0,0,,0,400,400,384,1,
,,,,,,,,,,,,,,,,,,5e875f10bde8373bdc2eac32,2020-08-10_18h46.45.815,lexical_decision_task_MP,2020.1.3,Win32,60,,z,1,,,,,,,,0.70433,1,,,,,,318,NW,"ID",50,reagly,REAGLY,z,0.70433,,,,,,0.031948882,-0.381789137,0,0,0,,0,401,401,317,1,
,,,,,,,,,,,,,,,,,,5e875f10bde8373bdc2eac32,2020-08-10_18h46.45.815,lexical_decision_task_MP,2020.1.3,Win32,60,,z,0,,,,,,,,0.64494,0,,,,,,149,WORD,UN,33,random,INVADE,m,0.64494,,,,,,0.031948882,-0.381789137,0,0,0,,0,402,402,148,1,
