counterbalancing_condition,instr_done_keyboard.keys,instr_done_touch.x,instr_done_touch.y,instr_done_touch.leftButton,instr_done_touch.midButton,instr_done_touch.rightButton,instr_done_touch.clicked_name,instruction_pages.thisRepN,instruction_pages.thisTrialN,instruction_pages.thisN,instruction_pages.thisIndex,instruction_pages.ran,pageN,phase,instruct_text,has_image,instruct_image,participant,date,expName,psychopyVersion,OS,frameRate,response.keys,response.corr,touch_resp.x,touch_resp.y,touch_resp.leftButton,touch_resp.midButton,touch_resp.rightButton,touch_resp.time,touch_resp.clicked_name,rt,corr,practice_trials.thisRepN,practice_trials.thisTrialN,practice_trials.thisN,practice_trials.thisIndex,practice_trials.ran,TrialID,StimulusType,Condition,PrimeDuration,Prime,Target,corrAns,end_of_practice_trials_pages.thisRepN,end_of_practice_trials_pages.thisTrialN,end_of_practice_trials_pages.thisN,end_of_practice_trials_pages.thisIndex,end_of_practice_trials_pages.ran,break_done_touch.x,break_done_touch.y,break_done_touch.leftButton,break_done_touch.midButton,break_done_touch.rightButton,break_done_keyboard.keys,trials.thisRepN,trials.thisTrialN,trials.thisN,trials.thisIndex,trials.ran,break_done_touch.clicked_name
1,,0.033333333,-0.428703732,1,0,0,instr_done_button,0,0,0,0,1,1,instructions,"INSTRUCTIONS
At the start of each trial, look at the hash marks (######) in the center of the screen. After a moment, a string of letters will appear. Your task is to indicate if the letter string forms a word or not (i.e., if it is a nonword). For example, AUTHOR is a word while AUTHON is a nonword.

Press the space bar or touch the button below to continue.",0,,5e90cf731baf783ed0ae0a71,2020-08-10_15h29.10.596,lexical_decision_task_MP,2020.1.3,Linux armv8l,60,,,,,,,,,,,,,,,,,,,,,,,,,,,,,,,,,,,,,,,,
,,0.022222222,-0.402777778,1,0,0,instr_done_button,0,1,1,1,1,2,instructions,"If your device has a keyboard, press the 'Z' key for nonwords and the 'M' key for words.





Press the space bar or touch the button below to continue.",1,keyboard-example.gif,5e90cf731baf783ed0ae0a71,2020-08-10_15h29.10.596,lexical_decision_task_MP,2020.1.3,Linux armv8l,60,,,,,,,,,,,,,,,,,,,,,,,,,,,,,,,,,,,,,,,,
,,0.034259288,-0.413888889,1,0,0,instr_done_button,0,2,2,2,1,3,instructions,"If you are using a touchscreen only device, use the buttons on the screen. Do not use the mouse.





Press the space bar or touch the button below to continue.",1,touchscreen-example.gif,5e90cf731baf783ed0ae0a71,2020-08-10_15h29.10.596,lexical_decision_task_MP,2020.1.3,Linux armv8l,60,,,,,,,,,,,,,,,,,,,,,,,,,,,,,,,,,,,,,,,,
,,0.057407464,-0.416666667,1,0,0,instr_done_button,0,3,3,3,1,4,instructions,"It is very important that you respond as quickly and accurately as possible, as each letter string will only be on the screen for two seconds. If you do not respond within this time, the message 'Too slow!' will be displayed and the experiment will progress to the next letter string. The first 20 trials will be practice trials and you will receive feedback on your answers. 

Press the space bar or touch the button below to start the practice trials.",0,,5e90cf731baf783ed0ae0a71,2020-08-10_15h29.10.596,lexical_decision_task_MP,2020.1.3,Linux armv8l,60,,,,,,,,,,,,,,,,,,,,,,,,,,,,,,,,,,,,,,,,
,,,,,,,,,,,,,,,,,,5e90cf731baf783ed0ae0a71,2020-08-10_15h29.10.596,lexical_decision_task_MP,2020.1.3,Linux armv8l,60,,0,,,,,,,,,-1,0,0,0,12,1,1013,NW,UN,33,adveil,SPRINY,z,,,,,,,,,,,,,,,,,
,,,,,,,,,,,,,,,,,,5e90cf731baf783ed0ae0a71,2020-08-10_15h29.10.596,lexical_decision_task_MP,2020.1.3,Linux armv8l,60,,0,0.363888889,-0.262963019,1,0,0,0.6143,button_right,0.6143,1,0,1,1,3,1,1004,WORD,"ID",50,matrix,MATRIX,m,,,,,,,,,,,,,,,,,
,,,,,,,,,,,,,,,,,,5e90cf731baf783ed0ae0a71,2020-08-10_15h29.10.596,lexical_decision_task_MP,2020.1.3,Linux armv8l,60,,0,-0.367592578,-0.300925954,1,0,0,0.6131,button_left,0.6131,0,0,2,2,4,1,1005,WORD,UN,33,abound,SQUEAK,m,,,,,,,,,,,,,,,,,
,,,,,,,,,,,,,,,,,,5e90cf731baf783ed0ae0a71,2020-08-10_15h29.10.596,lexical_decision_task_MP,2020.1.3,Linux armv8l,60,,0,-0.454629601,-0.28148151,1,0,0,0.7459,button_left,0.7459,1,0,3,3,13,1,1014,NW,UN,33,winfer,ROUPET,z,,,,,,,,,,,,,,,,,
,,,,,,,,,,,,,,,,,,5e90cf731baf783ed0ae0a71,2020-08-10_15h29.10.596,lexical_decision_task_MP,2020.1.3,Linux armv8l,60,,0,0.468518575,-0.280555556,1,0,0,0.63,button_right,0.63,1,0,4,4,6,1,1007,WORD,UN,50,tropic,ZOMBIE,m,,,,,,,,,,,,,,,,,
,,,,,,,,,,,,,,,,,,5e90cf731baf783ed0ae0a71,2020-08-10_15h29.10.596,lexical_decision_task_MP,2020.1.3,Linux armv8l,60,,0,0.461111111,-0.292592621,1,0,0,0.6146,button_right,0.6146,1,0,5,5,1,1,1002,WORD,"ID",33,adjust,ADJUST,m,,,,,,,,,,,,,,,,,
,,,,,,,,,,,,,,,,,,5e90cf731baf783ed0ae0a71,2020-08-10_15h29.10.596,lexical_decision_task_MP,2020.1.3,Linux armv8l,60,,0,-0.419444444,-0.315740797,1,0,0,0.714,button_left,0.714,1,0,6,6,9,1,1010,NW,"ID",33,fariny,FARINY,z,,,,,,,,,,,,,,,,,
,,,,,,,,,,,,,,,,,,5e90cf731baf783ed0ae0a71,2020-08-10_15h29.10.596,lexical_decision_task_MP,2020.1.3,Linux armv8l,60,,0,0.458333333,-0.3,1,0,0,0.6968,button_right,0.6968,0,0,7,7,10,1,1011,NW,"ID",50,inlade,INLADE,z,,,,,,,,,,,,,,,,,
,,,,,,,,,,,,,,,,,,5e90cf731baf783ed0ae0a71,2020-08-10_15h29.10.596,lexical_decision_task_MP,2020.1.3,Linux armv8l,60,,0,0.460185242,-0.299074131,1,0,0,1.2205,button_right,1.2205,0,0,8,8,15,1,1016,NW,UN,50,mushed,WHAISE,z,,,,,,,,,,,,,,,,,
,,,,,,,,,,,,,,,,,,5e90cf731baf783ed0ae0a71,2020-08-10_15h29.10.596,lexical_decision_task_MP,2020.1.3,Linux armv8l,60,,0,0.463888889,-0.302777778,1,0,0,0.9041,button_right,0.9041,0,0,9,9,11,1,1012,NW,"ID",50,rashet,RASHET,z,,,,,,,,,,,,,,,,,
,,,,,,,,,,,,,,,,,,5e90cf731baf783ed0ae0a71,2020-08-10_15h29.10.596,lexical_decision_task_MP,2020.1.3,Linux armv8l,60,,0,0.462963019,-0.295370399,1,0,0,0.8966,button_right,0.8966,0,0,10,10,14,1,1015,NW,UN,50,miaber,THRALE,z,,,,,,,,,,,,,,,,,
,,,,,,,,,,,,,,,,,,5e90cf731baf783ed0ae0a71,2020-08-10_15h29.10.596,lexical_decision_task_MP,2020.1.3,Linux armv8l,60,,0,0.464814928,-0.303703732,1,0,0,0.7155,button_right,0.7155,1,0,11,11,2,1,1003,WORD,"ID",50,almond,ALMOND,m,,,,,,,,,,,,,,,,,
,,,,,,,,,,,,,,,,,,5e90cf731baf783ed0ae0a71,2020-08-10_15h29.10.596,lexical_decision_task_MP,2020.1.3,Linux armv8l,60,,0,0.458333333,-0.30648151,1,0,0,1.0192,button_right,1.0192,1,0,12,12,5,1,1006,WORD,UN,33,frenzy,OBTAIN,m,,,,,,,,,,,,,,,,,
,,,,,,,,,,,,,,,,,,5e90cf731baf783ed0ae0a71,2020-08-10_15h29.10.596,lexical_decision_task_MP,2020.1.3,Linux armv8l,60,,0,0.462963019,-0.303703732,1,0,0,0.6823,button_right,0.6823,1,0,13,13,7,1,1008,WORD,UN,50,hurdle,VOLUME,m,,,,,,,,,,,,,,,,,
,,,,,,,,,,,,,,,,,,5e90cf731baf783ed0ae0a71,2020-08-10_15h29.10.596,lexical_decision_task_MP,2020.1.3,Linux armv8l,60,,0,0.46203715,-0.299074131,1,0,0,0.8765,button_right,0.8765,1,0,14,14,0,1,1001,WORD,"ID",33,utopia,UTOPIA,m,,,,,,,,,,,,,,,,,
,,,,,,,,,,,,,,,,,,5e90cf731baf783ed0ae0a71,2020-08-10_15h29.10.596,lexical_decision_task_MP,2020.1.3,Linux armv8l,60,,0,-0.395370356,-0.314814843,1,0,0,0.833,button_left,0.833,1,0,15,15,8,1,1009,NW,"ID",33,aslert,ASLERT,z,,,,,,,,,,,,,,,,,
,,0.101851908,-0.404629686,1,0,0,instr_done_button,,,,,,1,end_of_practice,"You have completed the practice trials. During the experimental trials, you will not receive feedback, but it is very important that you respond as quickly and accurately as possible. 
Before you begin, please ensure that you are in a comfortable and quiet location and will not be disturbed for about 15 minutes, as we cannot use your data if you do not complete all the trials. 
There will be opportunities to take breaks at regular intervals during the experiment. When you are ready to start the experimental trials, please press space or touch the button below.",,,5e90cf731baf783ed0ae0a71,2020-08-10_15h29.10.596,lexical_decision_task_MP,2020.1.3,Linux armv8l,60,,,,,,,,,,,,,,,,,,,,,,,,0,0,0,0,1,,,,,,,,,,,,
,,,,,,,,,,,,,,,,,,5e90cf731baf783ed0ae0a71,2020-08-10_15h29.10.596,lexical_decision_task_MP,2020.1.3,Linux armv8l,60,,0,0.398148176,-0.310185242,1,0,0,0.8465,button_right,0.8465,1,,,,,,59,WORD,"ID",33,splint,SPLINT,m,,,,,,0.398148176,-0.310185242,1,0,0,,0,0,0,58,1,
,,,,,,,,,,,,,,,,,,5e90cf731baf783ed0ae0a71,2020-08-10_15h29.10.596,lexical_decision_task_MP,2020.1.3,Linux armv8l,60,,0,-0.399074046,-0.293518575,1,0,0,0.7481,button_left,0.7481,1,,,,,,445,NW,UN,50,runamo,MINKEL,z,,,,,,-0.399074046,-0.293518575,1,0,0,,0,1,1,444,1,
,,,,,,,,,,,,,,,,,,5e90cf731baf783ed0ae0a71,2020-08-10_15h29.10.596,lexical_decision_task_MP,2020.1.3,Linux armv8l,60,,0,0.411111111,-0.321296353,1,0,0,0.9944,button_right,0.9944,1,,,,,,150,WORD,UN,33,mystic,RANDOM,m,,,,,,0.411111111,-0.321296353,1,0,0,,0,2,2,149,1,
,,,,,,,,,,,,,,,,,,5e90cf731baf783ed0ae0a71,2020-08-10_15h29.10.596,lexical_decision_task_MP,2020.1.3,Linux armv8l,60,,0,0.403703732,-0.308333333,1,0,0,0.6977,button_right,0.6977,1,,,,,,195,WORD,UN,50,credit,RESIGN,m,,,,,,0.403703732,-0.308333333,1,0,0,,0,3,3,194,1,
,,,,,,,,,,,,,,,,,,5e90cf731baf783ed0ae0a71,2020-08-10_15h29.10.596,lexical_decision_task_MP,2020.1.3,Linux armv8l,60,,0,0.404629686,-0.3,1,0,0,0.7388,button_right,0.7388,0,,,,,,377,NW,UN,33,shrile,INJORE,z,,,,,,0.404629686,-0.3,1,0,0,,0,4,4,376,1,
,,,,,,,,,,,,,,,,,,5e90cf731baf783ed0ae0a71,2020-08-10_15h29.10.596,lexical_decision_task_MP,2020.1.3,Linux armv8l,60,,0,0.402777778,-0.305555556,1,0,0,0.7465,button_right,0.7465,1,,,,,,175,WORD,UN,33,strife,FABRIC,m,,,,,,0.402777778,-0.305555556,1,0,0,,0,5,5,174,1,
,,,,,,,,,,,,,,,,,,5e90cf731baf783ed0ae0a71,2020-08-10_15h29.10.596,lexical_decision_task_MP,2020.1.3,Linux armv8l,60,,0,0.402777778,-0.307407464,1,0,0,0.7955,button_right,0.7955,1,,,,,,35,WORD,"ID",33,socket,SOCKET,m,,,,,,0.402777778,-0.307407464,1,0,0,,0,6,6,34,1,
,,,,,,,,,,,,,,,,,,5e90cf731baf783ed0ae0a71,2020-08-10_15h29.10.596,lexical_decision_task_MP,2020.1.3,Linux armv8l,60,,0,-0.375925912,-0.307407464,1,0,0,0.8793,button_left,0.8793,1,,,,,,266,NW,"ID",33,varmit,VARMIT,z,,,,,,-0.375925912,-0.307407464,1,0,0,,0,7,7,265,1,
,,,,,,,,,,,,,,,,,,5e90cf731baf783ed0ae0a71,2020-08-10_15h29.10.596,lexical_decision_task_MP,2020.1.3,Linux armv8l,60,,0,0.402777778,-0.302777778,1,0,0,0.6985,button_right,0.6985,1,,,,,,185,WORD,UN,50,portal,BOTHER,m,,,,,,0.402777778,-0.302777778,1,0,0,,0,8,8,184,1,
,,,,,,,,,,,,,,,,,,5e90cf731baf783ed0ae0a71,2020-08-10_15h29.10.596,lexical_decision_task_MP,2020.1.3,Linux armv8l,60,,0,0.400925954,-0.305555556,1,0,0,0.8147,button_right,0.8147,1,,,,,,21,WORD,"ID",33,simple,SIMPLE,m,,,,,,0.400925954,-0.305555556,1,0,0,,0,9,9,20,1,
,,,,,,,,,,,,,,,,,,5e90cf731baf783ed0ae0a71,2020-08-10_15h29.10.596,lexical_decision_task_MP,2020.1.3,Linux armv8l,60,,0,-0.379629601,-0.297222222,1,0,0,0.8457,button_left,0.8457,1,,,,,,281,NW,"ID",33,melaty,MELATY,z,,,,,,-0.379629601,-0.297222222,1,0,0,,0,10,10,280,1,
,,,,,,,,,,,,,,,,,,5e90cf731baf783ed0ae0a71,2020-08-10_15h29.10.596,lexical_decision_task_MP,2020.1.3,Linux armv8l,60,,0,-0.380555556,-0.291666667,1,0,0,1.3139,button_left,1.3139,1,,,,,,367,NW,UN,33,hornal,SLIQUE,z,,,,,,-0.380555556,-0.291666667,1,0,0,,0,11,11,366,1,
,,,,,,,,,,,,,,,,,,5e90cf731baf783ed0ae0a71,2020-08-10_15h29.10.596,lexical_decision_task_MP,2020.1.3,Linux armv8l,60,,0,0.399074131,-0.309259288,1,0,0,0.7466,button_right,0.7466,0,,,,,,241,NW,"ID",33,smenco,SMENCO,z,,,,,,0.399074131,-0.309259288,1,0,0,,0,12,12,240,1,
,,,,,,,,,,,,,,,,,,5e90cf731baf783ed0ae0a71,2020-08-10_15h29.10.596,lexical_decision_task_MP,2020.1.3,Linux armv8l,60,,0,0.402777778,-0.303703732,1,0,0,0.7967,button_right,0.7967,1,,,,,,93,WORD,"ID",50,public,PUBLIC,m,,,,,,0.402777778,-0.303703732,1,0,0,,0,13,13,92,1,
,,,,,,,,,,,,,,,,,,5e90cf731baf783ed0ae0a71,2020-08-10_15h29.10.596,lexical_decision_task_MP,2020.1.3,Linux armv8l,60,,0,-0.373148134,-0.291666667,1,0,0,0.8454,button_left,0.8454,1,,,,,,430,NW,UN,50,funtle,CAROEY,z,,,,,,-0.373148134,-0.291666667,1,0,0,,0,14,14,429,1,
,,,,,,,,,,,,,,,,,,5e90cf731baf783ed0ae0a71,2020-08-10_15h29.10.596,lexical_decision_task_MP,2020.1.3,Linux armv8l,60,,0,0.404629686,-0.307407464,1,0,0,0.8024,button_right,0.8024,1,,,,,,161,WORD,UN,33,candle,PASTOR,m,,,,,,0.404629686,-0.307407464,1,0,0,,0,15,15,160,1,
,,,,,,,,,,,,,,,,,,5e90cf731baf783ed0ae0a71,2020-08-10_15h29.10.596,lexical_decision_task_MP,2020.1.3,Linux armv8l,60,,0,-0.371296268,-0.293518575,1,0,0,0.7635,button_left,0.7635,1,,,,,,406,NW,UN,33,suiver,NOUPLY,z,,,,,,-0.371296268,-0.293518575,1,0,0,,0,16,16,405,1,
,,,,,,,,,,,,,,,,,,5e90cf731baf783ed0ae0a71,2020-08-10_15h29.10.596,lexical_decision_task_MP,2020.1.3,Linux armv8l,60,,0,0.402777778,-0.304629686,1,0,0,0.6766,button_right,0.6766,1,,,,,,214,WORD,UN,50,phobia,INTAKE,m,,,,,,0.402777778,-0.304629686,1,0,0,,0,17,17,213,1,
,,,,,,,,,,,,,,,,,,5e90cf731baf783ed0ae0a71,2020-08-10_15h29.10.596,lexical_decision_task_MP,2020.1.3,Linux armv8l,60,,0,0.403703732,-0.30648151,1,0,0,0.7128,button_right,0.7128,1,,,,,,20,WORD,"ID",33,breast,BREAST,m,,,,,,0.403703732,-0.30648151,1,0,0,,0,18,18,19,1,
,,,,,,,,,,,,,,,,,,5e90cf731baf783ed0ae0a71,2020-08-10_15h29.10.596,lexical_decision_task_MP,2020.1.3,Linux armv8l,60,,0,0.399074131,-0.305555556,1,0,0,0.7267,button_right,0.7267,1,,,,,,167,WORD,UN,33,answer,DESIGN,m,,,,,,0.399074131,-0.305555556,1,0,0,,0,19,19,166,1,
,,,,,,,,,,,,,,,,,,5e90cf731baf783ed0ae0a71,2020-08-10_15h29.10.596,lexical_decision_task_MP,2020.1.3,Linux armv8l,60,,0,-0.372222222,-0.292592621,1,0,0,0.6965,button_left,0.6965,1,,,,,,272,NW,"ID",33,damilt,DAMILT,z,,,,,,-0.372222222,-0.292592621,1,0,0,,0,20,20,271,1,
,,,,,,,,,,,,,,,,,,5e90cf731baf783ed0ae0a71,2020-08-10_15h29.10.596,lexical_decision_task_MP,2020.1.3,Linux armv8l,60,,0,0.395370399,-0.303703732,1,0,0,0.7103,button_right,0.7103,0,,,,,,432,NW,UN,50,drance,LUNKER,z,,,,,,0.395370399,-0.303703732,1,0,0,,0,21,21,431,1,
,,,,,,,,,,,,,,,,,,5e90cf731baf783ed0ae0a71,2020-08-10_15h29.10.596,lexical_decision_task_MP,2020.1.3,Linux armv8l,60,,0,0.394444444,-0.304629686,1,0,0,0.7119,button_right,0.7119,1,,,,,,143,WORD,UN,33,sponge,REASON,m,,,,,,0.394444444,-0.304629686,1,0,0,,0,22,22,142,1,
,,,,,,,,,,,,,,,,,,5e90cf731baf783ed0ae0a71,2020-08-10_15h29.10.596,lexical_decision_task_MP,2020.1.3,Linux armv8l,60,,0,0.390740797,-0.302777778,1,0,0,0.844,button_right,0.844,1,,,,,,200,WORD,UN,50,admire,BEACON,m,,,,,,0.390740797,-0.302777778,1,0,0,,0,23,23,199,1,
,,,,,,,,,,,,,,,,,,5e90cf731baf783ed0ae0a71,2020-08-10_15h29.10.596,lexical_decision_task_MP,2020.1.3,Linux armv8l,60,,0,0.391666667,-0.308333333,1,0,0,0.8631,button_right,0.8631,1,,,,,,9,WORD,"ID",33,hustle,HUSTLE,m,,,,,,0.391666667,-0.308333333,1,0,0,,0,24,24,8,1,
,,,,,,,,,,,,,,,,,,5e90cf731baf783ed0ae0a71,2020-08-10_15h29.10.596,lexical_decision_task_MP,2020.1.3,Linux armv8l,60,,0,-0.371296268,-0.294444444,1,0,0,0.7616,button_left,0.7616,1,,,,,,349,NW,"ID",50,asylen,ASYLEN,z,,,,,,-0.371296268,-0.294444444,1,0,0,,0,25,25,348,1,
,,,,,,,,,,,,,,,,,,5e90cf731baf783ed0ae0a71,2020-08-10_15h29.10.596,lexical_decision_task_MP,2020.1.3,Linux armv8l,60,,0,0.392592621,-0.30648151,1,0,0,0.68,button_right,0.68,1,,,,,,87,WORD,"ID",50,filter,FILTER,m,,,,,,0.392592621,-0.30648151,1,0,0,,0,26,26,86,1,
,,,,,,,,,,,,,,,,,,5e90cf731baf783ed0ae0a71,2020-08-10_15h29.10.596,lexical_decision_task_MP,2020.1.3,Linux armv8l,60,,0,0.392592621,-0.310185242,1,0,0,0.6996,button_right,0.6996,1,,,,,,223,WORD,UN,50,period,KIDNEY,m,,,,,,0.392592621,-0.310185242,1,0,0,,0,27,27,222,1,
,,,,,,,,,,,,,,,,,,5e90cf731baf783ed0ae0a71,2020-08-10_15h29.10.596,lexical_decision_task_MP,2020.1.3,Linux armv8l,60,,0,0.389814843,-0.305555556,1,0,0,0.6596,button_right,0.6596,1,,,,,,124,WORD,UN,33,nickel,BLOUSE,m,,,,,,0.389814843,-0.305555556,1,0,0,,0,28,28,123,1,
,,,,,,,,,,,,,,,,,,5e90cf731baf783ed0ae0a71,2020-08-10_15h29.10.596,lexical_decision_task_MP,2020.1.3,Linux armv8l,60,,0,0.387037065,-0.304629686,1,0,0,0.6477,button_right,0.6477,1,,,,,,240,WORD,UN,50,glance,FOREST,m,,,,,,0.387037065,-0.304629686,1,0,0,,0,29,29,239,1,
,,,,,,,,,,,,,,,,,,5e90cf731baf783ed0ae0a71,2020-08-10_15h29.10.596,lexical_decision_task_MP,2020.1.3,Linux armv8l,60,,0,-0.372222222,-0.294444444,1,0,0,0.729,button_left,0.729,1,,,,,,257,NW,"ID",33,veniod,VENIOD,z,,,,,,-0.372222222,-0.294444444,1,0,0,,0,30,30,256,1,
,,,,,,,,,,,,,,,,,,5e90cf731baf783ed0ae0a71,2020-08-10_15h29.10.596,lexical_decision_task_MP,2020.1.3,Linux armv8l,60,,0,-0.371296268,-0.294444444,1,0,0,1.3446,button_left,1.3446,1,,,,,,378,NW,UN,33,auting,SHRILE,z,,,,,,-0.371296268,-0.294444444,1,0,0,,0,31,31,377,1,
,,,,,,,,,,,,,,,,,,5e90cf731baf783ed0ae0a71,2020-08-10_15h29.10.596,lexical_decision_task_MP,2020.1.3,Linux armv8l,60,,0,0.362037065,-0.287963019,1,0,0,0.7459,button_right,0.7459,1,,,,,,170,WORD,UN,33,depart,POUNCE,m,,,,,,0.362037065,-0.287963019,1,0,0,,0,32,32,169,1,
,,,,,,,,,,,,,,,,,,5e90cf731baf783ed0ae0a71,2020-08-10_15h29.10.596,lexical_decision_task_MP,2020.1.3,Linux armv8l,60,,0,0.362963019,-0.285185242,1,0,0,1.1614,button_right,1.1614,0,,,,,,248,NW,"ID",33,strole,STROLE,z,,,,,,0.362963019,-0.285185242,1,0,0,,0,33,33,247,1,
,,,,,,,,,,,,,,,,,,5e90cf731baf783ed0ae0a71,2020-08-10_15h29.10.596,lexical_decision_task_MP,2020.1.3,Linux armv8l,60,,0,0.361111111,-0.291666667,1,0,0,0.6292,button_right,0.6292,1,,,,,,157,WORD,UN,33,island,DRAGON,m,,,,,,0.361111111,-0.291666667,1,0,0,,0,34,34,156,1,
,,,,,,,,,,,,,,,,,,5e90cf731baf783ed0ae0a71,2020-08-10_15h29.10.596,lexical_decision_task_MP,2020.1.3,Linux armv8l,60,,0,-0.371296268,-0.297222222,1,0,0,0.795,button_left,0.795,1,,,,,,472,NW,UN,50,crible,CIGNEY,z,,,,,,-0.371296268,-0.297222222,1,0,0,,0,35,35,471,1,
,,,,,,,,,,,,,,,,,,5e90cf731baf783ed0ae0a71,2020-08-10_15h29.10.596,lexical_decision_task_MP,2020.1.3,Linux armv8l,60,,0,-0.369444444,-0.295370399,1,0,0,0.817,button_left,0.817,1,,,,,,471,NW,UN,50,cigney,NOBEST,z,,,,,,-0.369444444,-0.295370399,1,0,0,,0,36,36,470,1,
,,,,,,,,,,,,,,,,,,5e90cf731baf783ed0ae0a71,2020-08-10_15h29.10.596,lexical_decision_task_MP,2020.1.3,Linux armv8l,60,,0,-0.36851849,-0.292592621,1,0,0,0.8256,button_left,0.8256,1,,,,,,305,NW,"ID",50,forgle,FORGLE,z,,,,,,-0.36851849,-0.292592621,1,0,0,,0,37,37,304,1,
,,,,,,,,,,,,,,,,,,5e90cf731baf783ed0ae0a71,2020-08-10_15h29.10.596,lexical_decision_task_MP,2020.1.3,Linux armv8l,60,,0,0.369444444,-0.289814843,1,0,0,0.8634,button_right,0.8634,1,,,,,,81,WORD,"ID",50,friend,FRIEND,m,,,,,,0.369444444,-0.289814843,1,0,0,,0,38,38,80,1,
,,,,,,,,,,,,,,,,,,5e90cf731baf783ed0ae0a71,2020-08-10_15h29.10.596,lexical_decision_task_MP,2020.1.3,Linux armv8l,60,,0,0.371296353,-0.293518575,1,0,0,0.7544,button_right,0.7544,1,,,,,,194,WORD,UN,50,resign,ABSENT,m,,,,,,0.371296353,-0.293518575,1,0,0,,0,39,39,193,1,
,,,,,,,,,,,,,,,,,,5e90cf731baf783ed0ae0a71,2020-08-10_15h29.10.596,lexical_decision_task_MP,2020.1.3,Linux armv8l,60,,0,0.369444444,-0.291666667,1,0,0,0.7962,button_right,0.7962,1,,,,,,125,WORD,UN,33,blouse,NICKEL,m,,,,,,0.369444444,-0.291666667,1,0,0,,0,40,40,124,1,
,,,,,,,,,,,,,,,,,,5e90cf731baf783ed0ae0a71,2020-08-10_15h29.10.596,lexical_decision_task_MP,2020.1.3,Linux armv8l,60,,0,-0.370370356,-0.298148176,1,0,0,0.7455,button_left,0.7455,1,,,,,,317,NW,"ID",50,worbal,WORBAL,z,,,,,,-0.370370356,-0.298148176,1,0,0,,0,41,41,316,1,
,,,,,,,,,,,,,,,,,,5e90cf731baf783ed0ae0a71,2020-08-10_15h29.10.596,lexical_decision_task_MP,2020.1.3,Linux armv8l,60,,0,0.371296353,-0.294444444,1,0,0,0.7623,button_right,0.7623,1,,,,,,114,WORD,"ID",50,placid,PLACID,m,,,,,,0.371296353,-0.294444444,1,0,0,,0,42,42,113,1,
,,,,,,,,,,,,,,,,,,5e90cf731baf783ed0ae0a71,2020-08-10_15h29.10.596,lexical_decision_task_MP,2020.1.3,Linux armv8l,60,,0,0.367592621,-0.297222222,1,0,0,0.9129,button_right,0.9129,1,,,,,,184,WORD,UN,50,bother,SLEAZY,m,,,,,,0.367592621,-0.297222222,1,0,0,,0,43,43,183,1,
,,,,,,,,,,,,,,,,,,5e90cf731baf783ed0ae0a71,2020-08-10_15h29.10.596,lexical_decision_task_MP,2020.1.3,Linux armv8l,60,,0,-0.370370356,-0.299074131,1,0,0,0.663,button_left,0.663,1,,,,,,351,NW,"ID",50,tiesch,TIESCH,z,,,,,,-0.370370356,-0.299074131,1,0,0,,0,44,44,350,1,
,,,,,,,,,,,,,,,,,,5e90cf731baf783ed0ae0a71,2020-08-10_15h29.10.596,lexical_decision_task_MP,2020.1.3,Linux armv8l,60,,0,-0.373148134,-0.297222222,1,0,0,0.8123,button_left,0.8123,1,,,,,,251,NW,"ID",33,lupict,LUPICT,z,,,,,,-0.373148134,-0.297222222,1,0,0,,0,45,45,250,1,
,,,,,,,,,,,,,,,,,,5e90cf731baf783ed0ae0a71,2020-08-10_15h29.10.596,lexical_decision_task_MP,2020.1.3,Linux armv8l,60,,0,-0.36851849,-0.290740797,1,0,0,1.5112,button_left,1.5112,1,,,,,,311,NW,"ID",50,sproly,SPROLY,z,,,,,,-0.36851849,-0.290740797,1,0,0,,0,46,46,310,1,
,,,,,,,,,,,,,,,,,,5e90cf731baf783ed0ae0a71,2020-08-10_15h29.10.596,lexical_decision_task_MP,2020.1.3,Linux armv8l,60,,0,-0.374074046,-0.291666667,1,0,0,0.9811,button_left,0.9811,1,,,,,,346,NW,"ID",50,saudic,SAUDIC,z,,,,,,-0.374074046,-0.291666667,1,0,0,,0,47,47,345,1,
,,,,,,,,,,,,,,,,,,5e90cf731baf783ed0ae0a71,2020-08-10_15h29.10.596,lexical_decision_task_MP,2020.1.3,Linux armv8l,60,,0,-0.371296268,-0.278703732,1,0,0,1.2605,button_left,1.2605,1,,,,,,390,NW,UN,33,theldy,HATRUS,z,,,,,,-0.371296268,-0.278703732,1,0,0,,0,48,48,389,1,
,,,,,,,,,,,,,,,,,,5e90cf731baf783ed0ae0a71,2020-08-10_15h29.10.596,lexical_decision_task_MP,2020.1.3,Linux armv8l,60,,0,0.375,-0.292592621,1,0,0,1.0119,button_right,1.0119,1,,,,,,190,WORD,UN,50,stable,BACKUP,m,,,,,,0.375,-0.292592621,1,0,0,,0,49,49,189,1,
,,,,,,,,,,,,,,,,,,5e90cf731baf783ed0ae0a71,2020-08-10_15h29.10.596,lexical_decision_task_MP,2020.1.3,Linux armv8l,60,,0,0.386111111,-0.296296353,1,0,0,0.7629,button_right,0.7629,0,,,,,,345,NW,"ID",50,absend,ABSEND,z,,,,,,0.386111111,-0.296296353,1,0,0,,0,50,50,344,1,
,,,,,,,,,,,,,,,,,,5e90cf731baf783ed0ae0a71,2020-08-10_15h29.10.596,lexical_decision_task_MP,2020.1.3,Linux armv8l,60,,0,-0.370370356,-0.275,1,0,0,1.9581,button_left,1.9581,0,,,,,,7,WORD,"ID",33,anchor,ANCHOR,m,,,,,,-0.370370356,-0.275,1,0,0,,0,51,51,6,1,
,,,,,,,,,,,,,,,,,,5e90cf731baf783ed0ae0a71,2020-08-10_15h29.10.596,lexical_decision_task_MP,2020.1.3,Linux armv8l,60,,0,-0.372222222,-0.274074131,1,0,0,0.7643,button_left,0.7643,1,,,,,,326,NW,"ID",50,iguade,IGUADE,z,,,,,,-0.372222222,-0.274074131,1,0,0,,0,52,52,325,1,
,,,,,,,,,,,,,,,,,,5e90cf731baf783ed0ae0a71,2020-08-10_15h29.10.596,lexical_decision_task_MP,2020.1.3,Linux armv8l,60,,0,-0.374074046,-0.278703732,1,0,0,0.9459,button_left,0.9459,1,,,,,,298,NW,"ID",33,piergy,PIERGY,z,,,,,,-0.374074046,-0.278703732,1,0,0,,0,53,53,297,1,
,,,,,,,,,,,,,,,,,,5e90cf731baf783ed0ae0a71,2020-08-10_15h29.10.596,lexical_decision_task_MP,2020.1.3,Linux armv8l,60,,0,-0.372222222,-0.274074131,1,0,0,0.7631,button_left,0.7631,1,,,,,,475,NW,UN,50,robuly,PEBRIC,z,,,,,,-0.372222222,-0.274074131,1,0,0,,0,54,54,474,1,
,,,,,,,,,,,,,,,,,,5e90cf731baf783ed0ae0a71,2020-08-10_15h29.10.596,lexical_decision_task_MP,2020.1.3,Linux armv8l,60,,0,-0.372222222,-0.276851908,1,0,0,0.7172,button_left,0.7172,1,,,,,,436,NW,UN,50,snapel,FRUTAN,z,,,,,,-0.372222222,-0.276851908,1,0,0,,0,55,55,435,1,
,,,,,,,,,,,,,,,,,,5e90cf731baf783ed0ae0a71,2020-08-10_15h29.10.596,lexical_decision_task_MP,2020.1.3,Linux armv8l,60,,0,-0.372222222,-0.275,1,0,0,1.2327,button_left,1.2327,1,,,,,,261,NW,"ID",33,stunch,STUNCH,z,,,,,,-0.372222222,-0.275,1,0,0,,0,56,56,260,1,
,,,,,,,,,,,,,,,,,,5e90cf731baf783ed0ae0a71,2020-08-10_15h29.10.596,lexical_decision_task_MP,2020.1.3,Linux armv8l,60,,0,-0.371296268,-0.273148176,1,0,0,0.7307,button_left,0.7307,1,,,,,,304,NW,"ID",50,cludie,CLUDIE,z,,,,,,-0.371296268,-0.273148176,1,0,0,,0,57,57,303,1,
,,,,,,,,,,,,,,,,,,5e90cf731baf783ed0ae0a71,2020-08-10_15h29.10.596,lexical_decision_task_MP,2020.1.3,Linux armv8l,60,,0,-0.371296268,-0.273148176,1,0,0,0.8289,button_left,0.8289,1,,,,,,253,NW,"ID",33,resait,RESAIT,z,,,,,,-0.371296268,-0.273148176,1,0,0,,0,58,58,252,1,
,,,,,,,,,,,,,,,,,,5e90cf731baf783ed0ae0a71,2020-08-10_15h29.10.596,lexical_decision_task_MP,2020.1.3,Linux armv8l,60,,0,0.386111111,-0.289814843,1,0,0,0.7128,button_right,0.7128,1,,,,,,178,WORD,UN,33,mildew,INFORM,m,,,,,,0.386111111,-0.289814843,1,0,0,,0,59,59,177,1,
,,,,,,,,,,,,,,,,,,5e90cf731baf783ed0ae0a71,2020-08-10_15h29.10.596,lexical_decision_task_MP,2020.1.3,Linux armv8l,60,,0,0.386111111,-0.289814843,1,0,0,0.6628,button_right,0.6628,1,,,,,,15,WORD,"ID",33,amount,AMOUNT,m,,,,,,0.386111111,-0.289814843,1,0,0,,0,60,60,14,1,
,,,,,,,,,,,,,,,,,,5e90cf731baf783ed0ae0a71,2020-08-10_15h29.10.596,lexical_decision_task_MP,2020.1.3,Linux armv8l,60,,0,0.387037065,-0.293518575,1,0,0,0.6139,button_right,0.6139,1,,,,,,72,WORD,"ID",50,bright,BRIGHT,m,,,,,,0.387037065,-0.293518575,1,0,0,,0,61,61,71,1,
,,,,,,,,,,,,,,,,,,5e90cf731baf783ed0ae0a71,2020-08-10_15h29.10.596,lexical_decision_task_MP,2020.1.3,Linux armv8l,60,,0,-0.36851849,-0.274074131,1,0,0,0.6988,button_left,0.6988,1,,,,,,277,NW,"ID",33,petain,PETAIN,z,,,,,,-0.36851849,-0.274074131,1,0,0,,0,62,62,276,1,
,,,,,,,,,,,,,,,,,,5e90cf731baf783ed0ae0a71,2020-08-10_15h29.10.596,lexical_decision_task_MP,2020.1.3,Linux armv8l,60,,0,-0.365740712,-0.275,1,0,0,0.8569,button_left,0.8569,1,,,,,,292,NW,"ID",33,ablint,ABLINT,z,,,,,,-0.365740712,-0.275,1,0,0,,0,63,63,291,1,
,,,,,,,,,,,,,,,,,,5e90cf731baf783ed0ae0a71,2020-08-10_15h29.10.596,lexical_decision_task_MP,2020.1.3,Linux armv8l,60,,0,-0.370370356,-0.272222222,1,0,0,1.0108,button_left,1.0108,1,,,,,,423,NW,UN,50,praile,STRELD,z,,,,,,-0.370370356,-0.272222222,1,0,0,,0,64,64,422,1,
,,,,,,,,,,,,,,,,,,5e90cf731baf783ed0ae0a71,2020-08-10_15h29.10.596,lexical_decision_task_MP,2020.1.3,Linux armv8l,60,,0,-0.366666667,-0.275,1,0,0,0.7472,button_left,0.7472,1,,,,,,278,NW,"ID",33,unighs,UNIGHS,z,,,,,,-0.366666667,-0.275,1,0,0,,0,65,65,277,1,
,,,,,,,,,,,,,,,,,,5e90cf731baf783ed0ae0a71,2020-08-10_15h29.10.596,lexical_decision_task_MP,2020.1.3,Linux armv8l,60,,0,-0.364814801,-0.275925954,1,0,0,0.7047,button_left,0.7047,1,,,,,,388,NW,UN,33,witmer,CRAGIN,z,,,,,,-0.364814801,-0.275925954,1,0,0,,0,66,66,387,1,
,,,,,,,,,,,,,,,,,,5e90cf731baf783ed0ae0a71,2020-08-10_15h29.10.596,lexical_decision_task_MP,2020.1.3,Linux armv8l,60,,0,0.389814843,-0.293518575,1,0,0,0.8798,button_right,0.8798,1,,,,,,36,WORD,"ID",33,vanish,VANISH,m,,,,,,0.389814843,-0.293518575,1,0,0,,0,67,67,35,1,
,,,,,,,,,,,,,,,,,,5e90cf731baf783ed0ae0a71,2020-08-10_15h29.10.596,lexical_decision_task_MP,2020.1.3,Linux armv8l,60,,0,-0.362962935,-0.280555556,1,0,0,0.796,button_left,0.796,1,,,,,,442,NW,UN,50,dorsex,ABOUNE,z,,,,,,-0.362962935,-0.280555556,1,0,0,,0,68,68,441,1,
,,,,,,,,,,,,,,,,,,5e90cf731baf783ed0ae0a71,2020-08-10_15h29.10.596,lexical_decision_task_MP,2020.1.3,Linux armv8l,60,,0,-0.36851849,-0.280555556,1,0,0,0.7313,button_left,0.7313,1,,,,,,324,NW,"ID",50,steikh,STEIKH,z,,,,,,-0.36851849,-0.280555556,1,0,0,,0,69,69,323,1,
,,,,,,,,,,,,,,,,,,5e90cf731baf783ed0ae0a71,2020-08-10_15h29.10.596,lexical_decision_task_MP,2020.1.3,Linux armv8l,60,,0,-0.367592578,-0.274074131,1,0,0,0.679,button_left,0.679,1,,,,,,463,NW,UN,50,bafent,KISPEL,z,,,,,,-0.367592578,-0.274074131,1,0,0,,0,70,70,462,1,
,,,,,,,,,,,,,,,,,,5e90cf731baf783ed0ae0a71,2020-08-10_15h29.10.596,lexical_decision_task_MP,2020.1.3,Linux armv8l,60,,0,0.388888889,-0.292592621,1,0,0,0.7118,button_right,0.7118,1,,,,,,67,WORD,"ID",50,policy,POLICY,m,,,,,,0.388888889,-0.292592621,1,0,0,,0,71,71,66,1,
,,,,,,,,,,,,,,,,,,5e90cf731baf783ed0ae0a71,2020-08-10_15h29.10.596,lexical_decision_task_MP,2020.1.3,Linux armv8l,60,,0,-0.367592578,-0.276851908,1,0,0,0.8942,button_left,0.8942,1,,,,,,314,NW,"ID",50,sprine,SPRINE,z,,,,,,-0.367592578,-0.276851908,1,0,0,,0,72,72,313,1,
,,,,,,,,,,,,,,,,,,5e90cf731baf783ed0ae0a71,2020-08-10_15h29.10.596,lexical_decision_task_MP,2020.1.3,Linux armv8l,60,,0,-0.369444444,-0.280555556,1,0,0,0.9823,button_left,0.9823,1,,,,,,296,NW,"ID",33,beinch,BEINCH,z,,,,,,-0.369444444,-0.280555556,1,0,0,,0,73,73,295,1,
,,,,,,,,,,,,,,,,,,5e90cf731baf783ed0ae0a71,2020-08-10_15h29.10.596,lexical_decision_task_MP,2020.1.3,Linux armv8l,60,,0,0.388888889,-0.294444444,1,0,0,0.8118,button_right,0.8118,1,,,,,,74,WORD,"ID",50,plaque,PLAQUE,m,,,,,,0.388888889,-0.294444444,1,0,0,,0,74,74,73,1,
,,,,,,,,,,,,,,,,,,5e90cf731baf783ed0ae0a71,2020-08-10_15h29.10.596,lexical_decision_task_MP,2020.1.3,Linux armv8l,60,,0,-0.367592578,-0.276851908,1,0,0,0.6469,button_left,0.6469,1,,,,,,474,NW,UN,50,gorbie,HABLIN,z,,,,,,-0.367592578,-0.276851908,1,0,0,,0,75,75,473,1,
,,,,,,,,,,,,,,,,,,5e90cf731baf783ed0ae0a71,2020-08-10_15h29.10.596,lexical_decision_task_MP,2020.1.3,Linux armv8l,60,,0,-0.371296268,-0.275,1,0,0,0.9629,button_left,0.9629,1,,,,,,254,NW,"ID",33,varosh,VAROSH,z,,,,,,-0.371296268,-0.275,1,0,0,,0,76,76,253,1,
,,,,,,,,,,,,,,,,,,5e90cf731baf783ed0ae0a71,2020-08-10_15h29.10.596,lexical_decision_task_MP,2020.1.3,Linux armv8l,60,,0,0.386111111,-0.297222222,1,0,0,0.8789,button_right,0.8789,1,,,,,,235,WORD,UN,50,pirate,GRUMPY,m,,,,,,0.386111111,-0.297222222,1,0,0,,0,77,77,234,1,
,,,,,,,,,,,,,,,,,,5e90cf731baf783ed0ae0a71,2020-08-10_15h29.10.596,lexical_decision_task_MP,2020.1.3,Linux armv8l,60,,0,-0.36851849,-0.272222222,1,0,0,0.69,button_left,0.69,1,,,,,,402,NW,UN,33,bruats,SYNTIC,z,,,,,,-0.36851849,-0.272222222,1,0,0,,0,78,78,401,1,
,,,,,,,,,,,,,,,,,,5e90cf731baf783ed0ae0a71,2020-08-10_15h29.10.596,lexical_decision_task_MP,2020.1.3,Linux armv8l,60,,0,0.388888889,-0.295370399,1,0,0,1.2624,button_right,1.2624,1,,,,,,1,WORD,"ID",33,fright,FRIGHT,m,,,,,,0.388888889,-0.295370399,1,0,0,,0,79,79,0,1,
,,,,,,,,,,,,,,,,,,5e90cf731baf783ed0ae0a71,2020-08-10_15h29.10.596,lexical_decision_task_MP,2020.1.3,Linux armv8l,60,,0,0.389814843,-0.3,1,0,0,0.7795,button_right,0.7795,1,,,,,,115,WORD,"ID",50,guitar,GUITAR,m,,,,,,0.389814843,-0.3,1,0,0,,0,80,80,114,1,
,,,,,,,,,,,,,,,,,,5e90cf731baf783ed0ae0a71,2020-08-10_15h29.10.596,lexical_decision_task_MP,2020.1.3,Linux armv8l,60,,0,-0.370370356,-0.268518575,1,0,0,0.7457,button_left,0.7457,1,,,,,,374,NW,UN,33,yorque,SLIANT,z,,,,,,-0.370370356,-0.268518575,1,0,0,,0,81,81,373,1,
,,,,,,,,,,,,,,,,,,5e90cf731baf783ed0ae0a71,2020-08-10_15h29.10.596,lexical_decision_task_MP,2020.1.3,Linux armv8l,60,,0,-0.369444444,-0.272222222,1,0,0,0.7299,button_left,0.7299,1,,,,,,315,NW,"ID",50,laston,LASTON,z,,,,,,-0.369444444,-0.272222222,1,0,0,,0,82,82,314,1,
,,,,,,,,,,,,,,,,,,5e90cf731baf783ed0ae0a71,2020-08-10_15h29.10.596,lexical_decision_task_MP,2020.1.3,Linux armv8l,60,,0,-0.36851849,-0.269444444,1,0,0,0.8944,button_left,0.8944,1,,,,,,318,NW,"ID",50,reagly,REAGLY,z,,,,,,-0.36851849,-0.269444444,1,0,0,,0,83,83,317,1,
,,,,,,,,,,,,,,,,,,5e90cf731baf783ed0ae0a71,2020-08-10_15h29.10.596,lexical_decision_task_MP,2020.1.3,Linux armv8l,60,,0,-0.371296268,-0.269444444,1,0,0,0.8634,button_left,0.8634,1,,,,,,284,NW,"ID",33,shaple,SHAPLE,z,,,,,,-0.371296268,-0.269444444,1,0,0,,0,84,84,283,1,
,,,,,,,,,,,,,,,,,,5e90cf731baf783ed0ae0a71,2020-08-10_15h29.10.596,lexical_decision_task_MP,2020.1.3,Linux armv8l,60,,0,-0.369444444,-0.269444444,1,0,0,0.7113,button_left,0.7113,1,,,,,,450,NW,UN,50,rastoe,PHRECT,z,,,,,,-0.369444444,-0.269444444,1,0,0,,0,85,85,449,1,
,,,,,,,,,,,,,,,,,,5e90cf731baf783ed0ae0a71,2020-08-10_15h29.10.596,lexical_decision_task_MP,2020.1.3,Linux armv8l,60,,0,-0.372222222,-0.263888889,1,0,0,0.7809,button_left,0.7809,0,,,,,,224,WORD,UN,50,vulgar,PERIOD,m,,,,,,-0.372222222,-0.263888889,1,0,0,,0,86,86,223,1,
,,,,,,,,,,,,,,,,,,5e90cf731baf783ed0ae0a71,2020-08-10_15h29.10.596,lexical_decision_task_MP,2020.1.3,Linux armv8l,60,,0,-0.374074046,-0.278703732,1,0,0,0.9288,button_left,0.9288,1,,,,,,398,NW,UN,33,fouret,BLUNDE,z,,,,,,-0.374074046,-0.278703732,1,0,0,,0,87,87,397,1,
,,,,,,,,,,,,,,,,,,5e90cf731baf783ed0ae0a71,2020-08-10_15h29.10.596,lexical_decision_task_MP,2020.1.3,Linux armv8l,60,,0,-0.372222222,-0.268518575,1,0,0,0.9621,button_left,0.9621,1,,,,,,433,NW,UN,50,pitrom,DRANCE,z,,,,,,-0.372222222,-0.268518575,1,0,0,,0,88,88,432,1,
,,,,,,,,,,,,,,,,,,5e90cf731baf783ed0ae0a71,2020-08-10_15h29.10.596,lexical_decision_task_MP,2020.1.3,Linux armv8l,60,,0,0.385185242,-0.293518575,1,0,0,0.6794,button_right,0.6794,1,,,,,,210,WORD,UN,50,infect,MONKEY,m,,,,,,0.385185242,-0.293518575,1,0,0,,0,89,89,209,1,
,,,,,,,,,,,,,,,,,,5e90cf731baf783ed0ae0a71,2020-08-10_15h29.10.596,lexical_decision_task_MP,2020.1.3,Linux armv8l,60,,0,0.386111111,-0.295370399,1,0,0,0.6558,button_right,0.6558,1,,,,,,14,WORD,"ID",33,almost,ALMOST,m,,,,,,0.386111111,-0.295370399,1,0,0,,0,90,90,13,1,
,,,,,,,,,,,,,,,,,,5e90cf731baf783ed0ae0a71,2020-08-10_15h29.10.596,lexical_decision_task_MP,2020.1.3,Linux armv8l,60,,0,-0.375,-0.270370399,1,0,0,0.9791,button_left,0.9791,0,,,,,,206,WORD,UN,50,wreath,TAILOR,m,,,,,,-0.375,-0.270370399,1,0,0,,0,91,91,205,1,
,,,,,,,,,,,,,,,,,,5e90cf731baf783ed0ae0a71,2020-08-10_15h29.10.596,lexical_decision_task_MP,2020.1.3,Linux armv8l,60,,0,-0.402777778,-0.268518575,1,0,0,0.9122,button_left,0.9122,1,,,,,,467,NW,UN,50,wictor,GORBIE,z,,,,,,-0.402777778,-0.268518575,1,0,0,,0,92,92,466,1,
,,,,,,,,,,,,,,,,,,5e90cf731baf783ed0ae0a71,2020-08-10_15h29.10.596,lexical_decision_task_MP,2020.1.3,Linux armv8l,60,,0,-0.391666667,-0.273148176,1,0,0,0.813,button_left,0.813,1,,,,,,418,NW,UN,33,slount,SUIDLE,z,,,,,,-0.391666667,-0.273148176,1,0,0,,0,93,93,417,1,
,,,,,,,,,,,,,,,,,,5e90cf731baf783ed0ae0a71,2020-08-10_15h29.10.596,lexical_decision_task_MP,2020.1.3,Linux armv8l,60,,0,0.387037065,-0.274074131,1,0,0,0.9626,button_right,0.9626,1,,,,,,208,WORD,UN,50,search,HOCKEY,m,,,,,,0.387037065,-0.274074131,1,0,0,,0,94,94,207,1,
,,,,,,,,,,,,,,,,,,5e90cf731baf783ed0ae0a71,2020-08-10_15h29.10.596,lexical_decision_task_MP,2020.1.3,Linux armv8l,60,,0,-0.382407379,-0.265740797,1,0,0,0.7802,button_left,0.7802,1,,,,,,376,NW,UN,33,sliant,IGUARE,z,,,,,,-0.382407379,-0.265740797,1,0,0,,0,95,95,375,1,
,,,,,,,,,,,,,,,,,,5e90cf731baf783ed0ae0a71,2020-08-10_15h29.10.596,lexical_decision_task_MP,2020.1.3,Linux armv8l,60,,0,0.389814843,-0.271296353,1,0,0,0.7855,button_right,0.7855,1,,,,,,62,WORD,"ID",50,region,REGION,m,,,,,,0.389814843,-0.271296353,1,0,0,,0,96,96,61,1,
,,,,,,,,,,,,,,,,,,5e90cf731baf783ed0ae0a71,2020-08-10_15h29.10.596,lexical_decision_task_MP,2020.1.3,Linux armv8l,60,,0,0.392592621,-0.278703732,1,0,0,0.8126,button_right,0.8126,1,,,,,,189,WORD,UN,50,backup,CENSOR,m,,,,,,0.392592621,-0.278703732,1,0,0,,0,97,97,188,1,
,,,,,,,,,,,,,,,,,,5e90cf731baf783ed0ae0a71,2020-08-10_15h29.10.596,lexical_decision_task_MP,2020.1.3,Linux armv8l,60,,0,0.392592621,-0.278703732,1,0,0,0.8802,button_right,0.8802,1,,,,,,45,WORD,"ID",33,clergy,CLERGY,m,,,,,,0.392592621,-0.278703732,1,0,0,,0,98,98,44,1,
,,,,,,,,,,,,,,,,,,5e90cf731baf783ed0ae0a71,2020-08-10_15h29.10.596,lexical_decision_task_MP,2020.1.3,Linux armv8l,60,,0,-0.375,-0.270370399,1,0,0,0.7299,button_left,0.7299,1,,,,,,459,NW,UN,50,mingar,BAFENT,z,,,,,,-0.375,-0.270370399,1,0,0,,0,99,99,458,1,
,,,,,,,,,,,,,,,,,,5e90cf731baf783ed0ae0a71,2020-08-10_15h29.10.596,lexical_decision_task_MP,2020.1.3,Linux armv8l,60,,0,0.399074131,-0.275,1,0,0,0.7293,button_right,0.7293,1,,,,,,166,WORD,UN,33,design,STARCH,m,,,,,,0.399074131,-0.275,1,0,0,,0,100,100,165,1,
,,,,,,,,,,,,,,,,,,5e90cf731baf783ed0ae0a71,2020-08-10_15h29.10.596,lexical_decision_task_MP,2020.1.3,Linux armv8l,60,,0,-0.375,-0.264814843,1,0,0,1.5107,button_left,1.5107,1,,,,,,260,NW,"ID",33,unject,UNJECT,z,,,,,,-0.375,-0.264814843,1,0,0,,0,101,101,259,1,
,,,,,,,,,,,,,,,,,,5e90cf731baf783ed0ae0a71,2020-08-10_15h29.10.596,lexical_decision_task_MP,2020.1.3,Linux armv8l,60,,0,-0.373148134,-0.267592621,1,0,0,0.7961,button_left,0.7961,1,,,,,,444,NW,UN,50,minkel,JAUNCE,z,,,,,,-0.373148134,-0.267592621,1,0,0,,0,102,102,443,1,
,,,,,,,,,,,,,,,,,,5e90cf731baf783ed0ae0a71,2020-08-10_15h29.10.596,lexical_decision_task_MP,2020.1.3,Linux armv8l,60,,0,0.398148176,-0.288888889,1,0,0,0.8132,button_right,0.8132,1,,,,,,207,WORD,UN,50,hockey,WREATH,m,,,,,,0.398148176,-0.288888889,1,0,0,,0,103,103,206,1,
,,,,,,,,,,,,,,,,,,5e90cf731baf783ed0ae0a71,2020-08-10_15h29.10.596,lexical_decision_task_MP,2020.1.3,Linux armv8l,60,,0,0.396296353,-0.282407464,1,0,0,0.7308,button_right,0.7308,1,,,,,,188,WORD,UN,50,censor,SOCIAL,m,,,,,,0.396296353,-0.282407464,1,0,0,,0,104,104,187,1,
,,,,,,,,,,,,,,,,,,5e90cf731baf783ed0ae0a71,2020-08-10_15h29.10.596,lexical_decision_task_MP,2020.1.3,Linux armv8l,60,,0,-0.375,-0.263888889,1,0,0,0.7245,button_left,0.7245,1,,,,,,252,NW,"ID",33,stapod,STAPOD,z,,,,,,-0.375,-0.263888889,1,0,0,,0,105,105,251,1,
,,,,,,,,,,,,,,,,,,5e90cf731baf783ed0ae0a71,2020-08-10_15h29.10.596,lexical_decision_task_MP,2020.1.3,Linux armv8l,60,,0,-0.375925912,-0.262037065,1,0,0,0.7457,button_left,0.7457,1,,,,,,370,NW,UN,33,geiloy,SLEACT,z,,,,,,-0.375925912,-0.262037065,1,0,0,,0,106,106,369,1,
,,,,,,,,,,,,,,,,,,5e90cf731baf783ed0ae0a71,2020-08-10_15h29.10.596,lexical_decision_task_MP,2020.1.3,Linux armv8l,60,,0,-0.375925912,-0.258333333,1,0,0,0.6782,button_left,0.6782,1,,,,,,394,NW,UN,33,colury,SPAQUX,z,,,,,,-0.375925912,-0.258333333,1,0,0,,0,107,107,393,1,
,,,,,,,,,,,,,,,,,,5e90cf731baf783ed0ae0a71,2020-08-10_15h29.10.596,lexical_decision_task_MP,2020.1.3,Linux armv8l,60,,0,0.4,-0.274074131,1,0,0,0.63,button_right,0.63,1,,,,,,113,WORD,"ID",50,chorus,CHORUS,m,,,,,,0.4,-0.274074131,1,0,0,,0,108,108,112,1,
,,,,,,,,,,,,,,,,,,5e90cf731baf783ed0ae0a71,2020-08-10_15h29.10.596,lexical_decision_task_MP,2020.1.3,Linux armv8l,60,,0,0.400925954,-0.275,1,0,0,0.6452,button_right,0.6452,1,,,,,,65,WORD,"ID",50,symbol,SYMBOL,m,,,,,,0.400925954,-0.275,1,0,0,,0,109,109,64,1,
,,,,,,,,,,,,,,,,,,5e90cf731baf783ed0ae0a71,2020-08-10_15h29.10.596,lexical_decision_task_MP,2020.1.3,Linux armv8l,60,,0,-0.373148134,-0.265740797,1,0,0,0.6786,button_left,0.6786,1,,,,,,294,NW,"ID",33,inhort,INHORT,z,,,,,,-0.373148134,-0.265740797,1,0,0,,0,110,110,293,1,
,,,,,,,,,,,,,,,,,,5e90cf731baf783ed0ae0a71,2020-08-10_15h29.10.596,lexical_decision_task_MP,2020.1.3,Linux armv8l,60,,0,-0.375925912,-0.264814843,1,0,0,0.7289,button_left,0.7289,1,,,,,,333,NW,"ID",50,catrie,CATRIE,z,,,,,,-0.375925912,-0.264814843,1,0,0,,0,111,111,332,1,
,,,,,,,,,,,,,,,,,,5e90cf731baf783ed0ae0a71,2020-08-10_15h29.10.596,lexical_decision_task_MP,2020.1.3,Linux armv8l,60,,0,0.398148176,-0.272222222,1,0,0,0.7312,button_right,0.7312,1,,,,,,18,WORD,"ID",33,humble,HUMBLE,m,,,,,,0.398148176,-0.272222222,1,0,0,,0,112,112,17,1,
,,,,,,,,,,,,,,,,,,5e90cf731baf783ed0ae0a71,2020-08-10_15h29.10.596,lexical_decision_task_MP,2020.1.3,Linux armv8l,60,,0,-0.375925912,-0.259259288,1,0,0,0.6876,button_left,0.6876,1,,,,,,415,NW,UN,33,pathel,HIGSTA,z,,,,,,-0.375925912,-0.259259288,1,0,0,,0,113,113,414,1,
,,,,,,,,,,,,,,,,,,5e90cf731baf783ed0ae0a71,2020-08-10_15h29.10.596,lexical_decision_task_MP,2020.1.3,Linux armv8l,60,,0,0.398148176,-0.279629686,1,0,0,1.0962,button_right,1.0962,1,,,,,,120,WORD,"ID",50,strain,STRAIN,m,,,,,,0.398148176,-0.279629686,1,0,0,,0,114,114,119,1,
,,,,,,,,,,,,,,,,,,5e90cf731baf783ed0ae0a71,2020-08-10_15h29.10.596,lexical_decision_task_MP,2020.1.3,Linux armv8l,60,,0,0.398148176,-0.282407464,1,0,0,0.6307,button_right,0.6307,1,,,,,,152,WORD,UN,33,behold,ROCKET,m,,,,,,0.398148176,-0.282407464,1,0,0,,0,115,115,151,1,
,,,,,,,,,,,,,,,,,,5e90cf731baf783ed0ae0a71,2020-08-10_15h29.10.596,lexical_decision_task_MP,2020.1.3,Linux armv8l,60,,0,0.399074131,-0.28148151,1,0,0,0.7597,button_right,0.7597,1,,,,,,25,WORD,"ID",33,domain,DOMAIN,m,,,,,,0.399074131,-0.28148151,1,0,0,,0,116,116,24,1,
,,,,,,,,,,,,,,,,,,5e90cf731baf783ed0ae0a71,2020-08-10_15h29.10.596,lexical_decision_task_MP,2020.1.3,Linux armv8l,60,,0,-0.375925912,-0.264814843,1,0,0,0.7469,button_left,0.7469,1,,,,,,373,NW,UN,33,injore,BIGENT,z,,,,,,-0.375925912,-0.264814843,1,0,0,,0,117,117,372,1,
,,,,,,,,,,,,,,,,,,5e90cf731baf783ed0ae0a71,2020-08-10_15h29.10.596,lexical_decision_task_MP,2020.1.3,Linux armv8l,60,,0,0.4,-0.280555556,1,0,0,0.7789,button_right,0.7789,1,,,,,,3,WORD,"ID",33,knight,KNIGHT,m,,,,,,0.4,-0.280555556,1,0,0,,0,118,118,2,1,
,,,,,,,,,,,,,,,,,,5e90cf731baf783ed0ae0a71,2020-08-10_15h29.10.596,lexical_decision_task_MP,2020.1.3,Linux armv8l,60,,0,0.399074131,-0.287963019,1,0,0,0.8476,button_right,0.8476,0,,,,,,273,NW,"ID",33,sortel,SORTEL,z,,,,,,0.399074131,-0.287963019,1,0,0,,0,119,119,272,1,
,,,,,,,,,,,,,,,,,,5e90cf731baf783ed0ae0a71,2020-08-10_15h29.10.596,lexical_decision_task_MP,2020.1.3,Linux armv8l,60,,0,0.4,-0.282407464,1,0,0,0.7795,button_right,0.7795,1,,,,,,48,WORD,"ID",33,walnut,WALNUT,m,,,,,,-0.012036981,-0.388888889,1,0,0,,0,120,120,47,1,break_done_button
,,,,,,,,,,,,,,,,,,5e90cf731baf783ed0ae0a71,2020-08-10_15h29.10.596,lexical_decision_task_MP,2020.1.3,Linux armv8l,60,,0,0.445370483,-0.279629686,1,0,0,0.7476,button_right,0.7476,1,,,,,,47,WORD,"ID",33,income,INCOME,m,,,,,,0.445370483,-0.279629686,1,0,0,,0,121,121,46,1,
,,,,,,,,,,,,,,,,,,5e90cf731baf783ed0ae0a71,2020-08-10_15h29.10.596,lexical_decision_task_MP,2020.1.3,Linux armv8l,60,,0,-0.40370369,-0.291666667,1,0,0,0.7309,button_left,0.7309,1,,,,,,255,NW,"ID",33,apight,APIGHT,z,,,,,,-0.40370369,-0.291666667,1,0,0,,0,122,122,254,1,
,,,,,,,,,,,,,,,,,,5e90cf731baf783ed0ae0a71,2020-08-10_15h29.10.596,lexical_decision_task_MP,2020.1.3,Linux armv8l,60,,0,-0.375925912,-0.289814843,1,0,0,0.8616,button_left,0.8616,1,,,,,,330,NW,"ID",50,kensom,KENSOM,z,,,,,,-0.375925912,-0.289814843,1,0,0,,0,123,123,329,1,
,,,,,,,,,,,,,,,,,,5e90cf731baf783ed0ae0a71,2020-08-10_15h29.10.596,lexical_decision_task_MP,2020.1.3,Linux armv8l,60,,0,-0.363888889,-0.292592621,1,0,0,0.6316,button_left,0.6316,1,,,,,,336,NW,"ID",50,ghodus,GHODUS,z,,,,,,-0.363888889,-0.292592621,1,0,0,,0,124,124,335,1,
,,,,,,,,,,,,,,,,,,5e90cf731baf783ed0ae0a71,2020-08-10_15h29.10.596,lexical_decision_task_MP,2020.1.3,Linux armv8l,60,,0,-0.360185157,-0.288888889,1,0,0,0.5963,button_left,0.5963,1,,,,,,405,NW,UN,33,nouply,FLUMNI,z,,,,,,-0.360185157,-0.288888889,1,0,0,,0,125,125,404,1,
,,,,,,,,,,,,,,,,,,5e90cf731baf783ed0ae0a71,2020-08-10_15h29.10.596,lexical_decision_task_MP,2020.1.3,Linux armv8l,60,,0,0.362963019,-0.307407464,1,0,0,0.6339,button_right,0.6339,1,,,,,,229,WORD,UN,50,fringe,MOTHER,m,,,,,,0.362963019,-0.307407464,1,0,0,,0,126,126,228,1,
,,,,,,,,,,,,,,,,,,5e90cf731baf783ed0ae0a71,2020-08-10_15h29.10.596,lexical_decision_task_MP,2020.1.3,Linux armv8l,60,,0,-0.352777778,-0.287037065,1,0,0,0.6638,button_left,0.6638,1,,,,,,412,NW,UN,33,equats,JILUER,z,,,,,,-0.352777778,-0.287037065,1,0,0,,0,127,127,411,1,
,,,,,,,,,,,,,,,,,,5e90cf731baf783ed0ae0a71,2020-08-10_15h29.10.596,lexical_decision_task_MP,2020.1.3,Linux armv8l,60,,0,-0.345370356,-0.278703732,1,0,0,0.9134,button_left,0.9134,1,,,,,,322,NW,"ID",50,slanch,SLANCH,z,,,,,,-0.345370356,-0.278703732,1,0,0,,0,128,128,321,1,
,,,,,,,,,,,,,,,,,,5e90cf731baf783ed0ae0a71,2020-08-10_15h29.10.596,lexical_decision_task_MP,2020.1.3,Linux armv8l,60,,0,0.35,-0.307407464,1,0,0,0.699,button_right,0.699,1,,,,,,32,WORD,"ID",33,buckle,BUCKLE,m,,,,,,0.35,-0.307407464,1,0,0,,0,129,129,31,1,
,,,,,,,,,,,,,,,,,,5e90cf731baf783ed0ae0a71,2020-08-10_15h29.10.596,lexical_decision_task_MP,2020.1.3,Linux armv8l,60,,0,0.35,-0.301851908,1,0,0,0.5986,button_right,0.5986,1,,,,,,219,WORD,UN,50,voyage,BUCKET,m,,,,,,0.35,-0.301851908,1,0,0,,0,130,130,218,1,
,,,,,,,,,,,,,,,,,,5e90cf731baf783ed0ae0a71,2020-08-10_15h29.10.596,lexical_decision_task_MP,2020.1.3,Linux armv8l,60,,0,-0.334259245,-0.279629686,1,0,0,0.548,button_left,0.548,1,,,,,,371,NW,UN,33,ramily,GEILOY,z,,,,,,-0.334259245,-0.279629686,1,0,0,,0,131,131,370,1,
,,,,,,,,,,,,,,,,,,5e90cf731baf783ed0ae0a71,2020-08-10_15h29.10.596,lexical_decision_task_MP,2020.1.3,Linux armv8l,60,,0,0.350925954,-0.300925954,1,0,0,0.5953,button_right,0.5953,1,,,,,,182,WORD,UN,50,basket,WINTER,m,,,,,,0.350925954,-0.300925954,1,0,0,,0,132,132,181,1,
,,,,,,,,,,,,,,,,,,5e90cf731baf783ed0ae0a71,2020-08-10_15h29.10.596,lexical_decision_task_MP,2020.1.3,Linux armv8l,60,,0,-0.333333333,-0.276851908,1,0,0,0.7626,button_left,0.7626,1,,,,,,249,NW,"ID",33,batrol,BATROL,z,,,,,,-0.333333333,-0.276851908,1,0,0,,0,133,133,248,1,
,,,,,,,,,,,,,,,,,,5e90cf731baf783ed0ae0a71,2020-08-10_15h29.10.596,lexical_decision_task_MP,2020.1.3,Linux armv8l,60,,0,-0.344444444,-0.272222222,1,0,0,0.6638,button_left,0.6638,1,,,,,,366,NW,UN,33,slique,TOSHEL,z,,,,,,-0.344444444,-0.272222222,1,0,0,,0,134,134,365,1,
,,,,,,,,,,,,,,,,,,5e90cf731baf783ed0ae0a71,2020-08-10_15h29.10.596,lexical_decision_task_MP,2020.1.3,Linux armv8l,60,,0,0.346296353,-0.301851908,1,0,0,0.6131,button_right,0.6131,1,,,,,,160,WORD,UN,33,dragon,VIOLET,m,,,,,,0.346296353,-0.301851908,1,0,0,,0,135,135,159,1,
,,,,,,,,,,,,,,,,,,5e90cf731baf783ed0ae0a71,2020-08-10_15h29.10.596,lexical_decision_task_MP,2020.1.3,Linux armv8l,60,,0,0.342592621,-0.300925954,1,0,0,1.0268,button_right,1.0268,1,,,,,,218,WORD,UN,50,bucket,SHRINK,m,,,,,,0.342592621,-0.300925954,1,0,0,,0,136,136,217,1,
,,,,,,,,,,,,,,,,,,5e90cf731baf783ed0ae0a71,2020-08-10_15h29.10.596,lexical_decision_task_MP,2020.1.3,Linux armv8l,60,,0,-0.333333333,-0.282407464,1,0,0,0.6476,button_left,0.6476,1,,,,,,479,NW,UN,50,josted,LOBUSH,z,,,,,,-0.333333333,-0.282407464,1,0,0,,0,137,137,478,1,
,,,,,,,,,,,,,,,,,,5e90cf731baf783ed0ae0a71,2020-08-10_15h29.10.596,lexical_decision_task_MP,2020.1.3,Linux armv8l,60,,0,0.341666667,-0.295370399,1,0,0,1.2767,button_right,1.2767,1,,,,,,141,WORD,UN,33,spruce,ORPHAN,m,,,,,,0.341666667,-0.295370399,1,0,0,,0,138,138,140,1,
,,,,,,,,,,,,,,,,,,5e90cf731baf783ed0ae0a71,2020-08-10_15h29.10.596,lexical_decision_task_MP,2020.1.3,Linux armv8l,60,,0,0.344444444,-0.3,1,0,0,0.6972,button_right,0.6972,1,,,,,,39,WORD,"ID",33,insect,INSECT,m,,,,,,0.344444444,-0.3,1,0,0,,0,139,139,38,1,
,,,,,,,,,,,,,,,,,,5e90cf731baf783ed0ae0a71,2020-08-10_15h29.10.596,lexical_decision_task_MP,2020.1.3,Linux armv8l,60,,0,0.343518575,-0.296296353,1,0,0,0.9292,button_right,0.9292,1,,,,,,78,WORD,"ID",50,column,COLUMN,m,,,,,,0.343518575,-0.296296353,1,0,0,,0,140,140,77,1,
,,,,,,,,,,,,,,,,,,5e90cf731baf783ed0ae0a71,2020-08-10_15h29.10.596,lexical_decision_task_MP,2020.1.3,Linux armv8l,60,,0,-0.335185157,-0.274074131,1,0,0,0.6639,button_left,0.6639,1,,,,,,403,NW,UN,33,cluirm,BRUATS,z,,,,,,-0.335185157,-0.274074131,1,0,0,,0,141,141,402,1,
,,,,,,,,,,,,,,,,,,5e90cf731baf783ed0ae0a71,2020-08-10_15h29.10.596,lexical_decision_task_MP,2020.1.3,Linux armv8l,60,,0,0.333333333,-0.3,1,0,0,0.6792,button_right,0.6792,1,,,,,,24,WORD,"ID",33,praise,PRAISE,m,,,,,,0.333333333,-0.3,1,0,0,,0,142,142,23,1,
,,,,,,,,,,,,,,,,,,5e90cf731baf783ed0ae0a71,2020-08-10_15h29.10.596,lexical_decision_task_MP,2020.1.3,Linux armv8l,60,,0,-0.337962935,-0.279629686,1,0,0,0.7626,button_left,0.7626,1,,,,,,396,NW,UN,33,camble,FLENGY,z,,,,,,-0.337962935,-0.279629686,1,0,0,,0,143,143,395,1,
,,,,,,,,,,,,,,,,,,5e90cf731baf783ed0ae0a71,2020-08-10_15h29.10.596,lexical_decision_task_MP,2020.1.3,Linux armv8l,60,,0,-0.325925912,-0.268518575,1,0,0,0.9047,button_left,0.9047,1,,,,,,449,NW,UN,50,phrect,BRUNGE,z,,,,,,-0.325925912,-0.268518575,1,0,0,,0,144,144,448,1,
,,,,,,,,,,,,,,,,,,5e90cf731baf783ed0ae0a71,2020-08-10_15h29.10.596,lexical_decision_task_MP,2020.1.3,Linux armv8l,60,,0,0.334259288,-0.298148176,1,0,0,0.6311,button_right,0.6311,1,,,,,,41,WORD,"ID",33,spring,SPRING,m,,,,,,0.334259288,-0.298148176,1,0,0,,0,145,145,40,1,
,,,,,,,,,,,,,,,,,,5e90cf731baf783ed0ae0a71,2020-08-10_15h29.10.596,lexical_decision_task_MP,2020.1.3,Linux armv8l,60,,0,-0.337962935,-0.275,1,0,0,0.6327,button_left,0.6327,1,,,,,,362,NW,UN,33,breali,TIREAU,z,,,,,,-0.337962935,-0.275,1,0,0,,0,146,146,361,1,
,,,,,,,,,,,,,,,,,,5e90cf731baf783ed0ae0a71,2020-08-10_15h29.10.596,lexical_decision_task_MP,2020.1.3,Linux armv8l,60,,0,0.33148151,-0.303703732,1,0,0,0.613,button_right,0.613,1,,,,,,101,WORD,"ID",50,wrench,WRENCH,m,,,,,,0.33148151,-0.303703732,1,0,0,,0,147,147,100,1,
,,,,,,,,,,,,,,,,,,5e90cf731baf783ed0ae0a71,2020-08-10_15h29.10.596,lexical_decision_task_MP,2020.1.3,Linux armv8l,60,,0,0.332407464,-0.3,1,0,0,0.6032,button_right,0.6032,1,,,,,,37,WORD,"ID",33,insult,INSULT,m,,,,,,0.332407464,-0.3,1,0,0,,0,148,148,36,1,
,,,,,,,,,,,,,,,,,,5e90cf731baf783ed0ae0a71,2020-08-10_15h29.10.596,lexical_decision_task_MP,2020.1.3,Linux armv8l,60,,0,0.329629686,-0.299074131,1,0,0,0.5807,button_right,0.5807,1,,,,,,66,WORD,"ID",50,gospel,GOSPEL,m,,,,,,0.329629686,-0.299074131,1,0,0,,0,149,149,65,1,
,,,,,,,,,,,,,,,,,,5e90cf731baf783ed0ae0a71,2020-08-10_15h29.10.596,lexical_decision_task_MP,2020.1.3,Linux armv8l,60,,0,0.322222222,-0.292592621,1,0,0,0.6198,button_right,0.6198,1,,,,,,220,WORD,UN,50,mascot,VOYAGE,m,,,,,,0.322222222,-0.292592621,1,0,0,,0,150,150,219,1,
,,,,,,,,,,,,,,,,,,5e90cf731baf783ed0ae0a71,2020-08-10_15h29.10.596,lexical_decision_task_MP,2020.1.3,Linux armv8l,60,,0,-0.323148134,-0.271296353,1,0,0,0.6467,button_left,0.6467,1,,,,,,247,NW,"ID",33,blarge,BLARGE,z,,,,,,-0.323148134,-0.271296353,1,0,0,,0,151,151,246,1,
,,,,,,,,,,,,,,,,,,5e90cf731baf783ed0ae0a71,2020-08-10_15h29.10.596,lexical_decision_task_MP,2020.1.3,Linux armv8l,60,,0,0.313888889,-0.28148151,1,0,0,0.5765,button_right,0.5765,1,,,,,,56,WORD,"ID",33,ambush,AMBUSH,m,,,,,,0.313888889,-0.28148151,1,0,0,,0,152,152,55,1,
,,,,,,,,,,,,,,,,,,5e90cf731baf783ed0ae0a71,2020-08-10_15h29.10.596,lexical_decision_task_MP,2020.1.3,Linux armv8l,60,,0,0.304629686,-0.271296353,1,0,0,0.6145,button_right,0.6145,1,,,,,,91,WORD,"ID",50,expand,EXPAND,m,,,,,,0.304629686,-0.271296353,1,0,0,,0,153,153,90,1,
,,,,,,,,,,,,,,,,,,5e90cf731baf783ed0ae0a71,2020-08-10_15h29.10.596,lexical_decision_task_MP,2020.1.3,Linux armv8l,60,,0,-0.320370356,-0.265740797,1,0,0,1.294,button_left,1.294,1,,,,,,332,NW,"ID",50,vangue,VANGUE,z,,,,,,-0.320370356,-0.265740797,1,0,0,,0,154,154,331,1,
,,,,,,,,,,,,,,,,,,5e90cf731baf783ed0ae0a71,2020-08-10_15h29.10.596,lexical_decision_task_MP,2020.1.3,Linux armv8l,60,,0,0.312037065,-0.268518575,1,0,0,0.7311,button_right,0.7311,1,,,,,,236,WORD,UN,50,poster,PIRATE,m,,,,,,0.312037065,-0.268518575,1,0,0,,0,155,155,235,1,
,,,,,,,,,,,,,,,,,,5e90cf731baf783ed0ae0a71,2020-08-10_15h29.10.596,lexical_decision_task_MP,2020.1.3,Linux armv8l,60,,0,-0.319444444,-0.263888889,1,0,0,0.647,button_left,0.647,1,,,,,,446,NW,UN,50,gircue,RUNAMO,z,,,,,,-0.319444444,-0.263888889,1,0,0,,0,156,156,445,1,
,,,,,,,,,,,,,,,,,,5e90cf731baf783ed0ae0a71,2020-08-10_15h29.10.596,lexical_decision_task_MP,2020.1.3,Linux armv8l,60,,0,0.299074131,-0.272222222,1,0,0,0.4981,button_right,0.4981,1,,,,,,119,WORD,"ID",50,spider,SPIDER,m,,,,,,0.299074131,-0.272222222,1,0,0,,0,157,157,118,1,
,,,,,,,,,,,,,,,,,,5e90cf731baf783ed0ae0a71,2020-08-10_15h29.10.596,lexical_decision_task_MP,2020.1.3,Linux armv8l,60,,0,0.307407464,-0.271296353,1,0,0,0.4644,button_right,0.4644,1,,,,,,57,WORD,"ID",33,change,CHANGE,m,,,,,,0.307407464,-0.271296353,1,0,0,,0,158,158,56,1,
,,,,,,,,,,,,,,,,,,5e90cf731baf783ed0ae0a71,2020-08-10_15h29.10.596,lexical_decision_task_MP,2020.1.3,Linux armv8l,60,,0,-0.31851849,-0.261111111,1,0,0,0.6948,button_left,0.6948,0,,,,,,16,WORD,"ID",33,faucet,FAUCET,m,,,,,,-0.31851849,-0.261111111,1,0,0,,0,159,159,15,1,
,,,,,,,,,,,,,,,,,,5e90cf731baf783ed0ae0a71,2020-08-10_15h29.10.596,lexical_decision_task_MP,2020.1.3,Linux armv8l,60,,0,0.305555556,-0.269444444,1,0,0,0.9115,button_right,0.9115,0,,,,,,454,NW,UN,50,tondle,SCOUGE,z,,,,,,0.305555556,-0.269444444,1,0,0,,0,160,160,453,1,
,,,,,,,,,,,,,,,,,,5e90cf731baf783ed0ae0a71,2020-08-10_15h29.10.596,lexical_decision_task_MP,2020.1.3,Linux armv8l,60,,0,0.297222222,-0.270370399,1,0,0,0.7634,button_right,0.7634,1,,,,,,159,WORD,UN,33,violet,DETAIL,m,,,,,,0.297222222,-0.270370399,1,0,0,,0,161,161,158,1,
,,,,,,,,,,,,,,,,,,5e90cf731baf783ed0ae0a71,2020-08-10_15h29.10.596,lexical_decision_task_MP,2020.1.3,Linux armv8l,60,,0,-0.31851849,-0.255555556,1,0,0,0.8567,button_left,0.8567,1,,,,,,270,NW,"ID",33,wrimsy,WRIMSY,z,,,,,,-0.31851849,-0.255555556,1,0,0,,0,162,162,269,1,
,,,,,,,,,,,,,,,,,,5e90cf731baf783ed0ae0a71,2020-08-10_15h29.10.596,lexical_decision_task_MP,2020.1.3,Linux armv8l,60,,0,-0.31851849,-0.261111111,1,0,0,0.9117,button_left,0.9117,1,,,,,,478,NW,UN,50,lobush,ACRISE,z,,,,,,-0.31851849,-0.261111111,1,0,0,,0,163,163,477,1,
,,,,,,,,,,,,,,,,,,5e90cf731baf783ed0ae0a71,2020-08-10_15h29.10.596,lexical_decision_task_MP,2020.1.3,Linux armv8l,60,,0,0.301851908,-0.268518575,1,0,0,0.7303,button_right,0.7303,1,,,,,,33,WORD,"ID",33,butler,BUTLER,m,,,,,,0.301851908,-0.268518575,1,0,0,,0,164,164,32,1,
,,,,,,,,,,,,,,,,,,5e90cf731baf783ed0ae0a71,2020-08-10_15h29.10.596,lexical_decision_task_MP,2020.1.3,Linux armv8l,60,,0,-0.319444444,-0.254629686,1,0,0,0.6618,button_left,0.6618,1,,,,,,383,NW,UN,33,guesco,AUNGRE,z,,,,,,-0.319444444,-0.254629686,1,0,0,,0,165,165,382,1,
,,,,,,,,,,,,,,,,,,5e90cf731baf783ed0ae0a71,2020-08-10_15h29.10.596,lexical_decision_task_MP,2020.1.3,Linux armv8l,60,,0,0.298148176,-0.273148176,1,0,0,0.6808,button_right,0.6808,1,,,,,,104,WORD,"ID",50,studio,STUDIO,m,,,,,,0.298148176,-0.273148176,1,0,0,,0,166,166,103,1,
,,,,,,,,,,,,,,,,,,5e90cf731baf783ed0ae0a71,2020-08-10_15h29.10.596,lexical_decision_task_MP,2020.1.3,Linux armv8l,60,,0,0.296296353,-0.272222222,1,0,0,0.7617,button_right,0.7617,1,,,,,,94,WORD,"ID",50,travel,TRAVEL,m,,,,,,0.296296353,-0.272222222,1,0,0,,0,167,167,93,1,
,,,,,,,,,,,,,,,,,,5e90cf731baf783ed0ae0a71,2020-08-10_15h29.10.596,lexical_decision_task_MP,2020.1.3,Linux armv8l,60,,0,-0.31851849,-0.251851908,1,0,0,0.7468,button_left,0.7468,1,,,,,,452,NW,UN,50,bolvis,SURDEN,z,,,,,,-0.31851849,-0.251851908,1,0,0,,0,168,168,451,1,
,,,,,,,,,,,,,,,,,,5e90cf731baf783ed0ae0a71,2020-08-10_15h29.10.596,lexical_decision_task_MP,2020.1.3,Linux armv8l,60,,0,0.298148176,-0.264814843,1,0,0,0.7117,button_right,0.7117,1,,,,,,85,WORD,"ID",50,sprawl,SPRAWL,m,,,,,,0.298148176,-0.264814843,1,0,0,,0,169,169,84,1,
,,,,,,,,,,,,,,,,,,5e90cf731baf783ed0ae0a71,2020-08-10_15h29.10.596,lexical_decision_task_MP,2020.1.3,Linux armv8l,60,,0,-0.320370356,-0.249074131,1,0,0,0.7617,button_left,0.7617,1,,,,,,434,NW,UN,50,impurb,PITROM,z,,,,,,-0.320370356,-0.249074131,1,0,0,,0,170,170,433,1,
,,,,,,,,,,,,,,,,,,5e90cf731baf783ed0ae0a71,2020-08-10_15h29.10.596,lexical_decision_task_MP,2020.1.3,Linux armv8l,60,,0,-0.319444444,-0.243518575,1,0,0,1.157,button_left,1.157,1,,,,,,417,NW,UN,33,suidle,EAROUD,z,,,,,,-0.319444444,-0.243518575,1,0,0,,0,171,171,416,1,
,,,,,,,,,,,,,,,,,,5e90cf731baf783ed0ae0a71,2020-08-10_15h29.10.596,lexical_decision_task_MP,2020.1.3,Linux armv8l,60,,0,0.301851908,-0.259259288,1,0,0,0.7962,button_right,0.7962,1,,,,,,142,WORD,UN,33,orphan,SPRUCE,m,,,,,,0.301851908,-0.259259288,1,0,0,,0,172,172,141,1,
,,,,,,,,,,,,,,,,,,5e90cf731baf783ed0ae0a71,2020-08-10_15h29.10.596,lexical_decision_task_MP,2020.1.3,Linux armv8l,60,,0,-0.319444444,-0.240740797,1,0,0,0.7111,button_left,0.7111,1,,,,,,290,NW,"ID",33,splino,SPLINO,z,,,,,,-0.319444444,-0.240740797,1,0,0,,0,173,173,289,1,
,,,,,,,,,,,,,,,,,,5e90cf731baf783ed0ae0a71,2020-08-10_15h29.10.596,lexical_decision_task_MP,2020.1.3,Linux armv8l,60,,0,-0.320370356,-0.235185242,1,0,0,0.9781,button_left,0.9781,1,,,,,,424,NW,UN,50,urivel,PRAILE,z,,,,,,-0.320370356,-0.235185242,1,0,0,,0,174,174,423,1,
,,,,,,,,,,,,,,,,,,5e90cf731baf783ed0ae0a71,2020-08-10_15h29.10.596,lexical_decision_task_MP,2020.1.3,Linux armv8l,60,,0,0.299074131,-0.262963019,1,0,0,0.8637,button_right,0.8637,1,,,,,,128,WORD,UN,33,marvel,SENIOR,m,,,,,,0.299074131,-0.262963019,1,0,0,,0,175,175,127,1,
,,,,,,,,,,,,,,,,,,5e90cf731baf783ed0ae0a71,2020-08-10_15h29.10.596,lexical_decision_task_MP,2020.1.3,Linux armv8l,60,,0,0.299074131,-0.260185242,1,0,0,0.9608,button_right,0.9608,1,,,,,,145,WORD,UN,33,couple,PARISH,m,,,,,,0.299074131,-0.260185242,1,0,0,,0,176,176,144,1,
,,,,,,,,,,,,,,,,,,5e90cf731baf783ed0ae0a71,2020-08-10_15h29.10.596,lexical_decision_task_MP,2020.1.3,Linux armv8l,60,,0,-0.321296268,-0.235185242,1,0,0,0.6976,button_left,0.6976,1,,,,,,451,NW,UN,50,surden,CAINKY,z,,,,,,-0.321296268,-0.235185242,1,0,0,,0,177,177,450,1,
,,,,,,,,,,,,,,,,,,5e90cf731baf783ed0ae0a71,2020-08-10_15h29.10.596,lexical_decision_task_MP,2020.1.3,Linux armv8l,60,,0,-0.327777778,-0.247222222,1,0,0,0.7466,button_left,0.7466,1,,,,,,464,NW,UN,50,whivex,CHAITE,z,,,,,,-0.327777778,-0.247222222,1,0,0,,0,178,178,463,1,
,,,,,,,,,,,,,,,,,,5e90cf731baf783ed0ae0a71,2020-08-10_15h29.10.596,lexical_decision_task_MP,2020.1.3,Linux armv8l,60,,0,0.322222222,-0.262963019,1,0,0,0.7124,button_right,0.7124,0,,,,,,425,NW,UN,50,schind,FRUDGE,z,,,,,,0.322222222,-0.262963019,1,0,0,,0,179,179,424,1,
,,,,,,,,,,,,,,,,,,5e90cf731baf783ed0ae0a71,2020-08-10_15h29.10.596,lexical_decision_task_MP,2020.1.3,Linux armv8l,60,,0,-0.327777778,-0.25,1,0,0,0.5292,button_left,0.5292,0,,,,,,46,WORD,"ID",33,single,SINGLE,m,,,,,,-0.327777778,-0.25,1,0,0,,0,180,180,45,1,
,,,,,,,,,,,,,,,,,,5e90cf731baf783ed0ae0a71,2020-08-10_15h29.10.596,lexical_decision_task_MP,2020.1.3,Linux armv8l,60,,0,-0.371296268,-0.235185242,1,0,0,0.8126,button_left,0.8126,1,,,,,,275,NW,"ID",33,sleirt,SLEIRT,z,,,,,,-0.371296268,-0.235185242,1,0,0,,0,181,181,274,1,
,,,,,,,,,,,,,,,,,,5e90cf731baf783ed0ae0a71,2020-08-10_15h29.10.596,lexical_decision_task_MP,2020.1.3,Linux armv8l,60,,0,-0.334259245,-0.258333333,1,0,0,0.8117,button_left,0.8117,1,,,,,,399,NW,UN,33,wearox,FOURET,z,,,,,,-0.334259245,-0.258333333,1,0,0,,0,182,182,398,1,
,,,,,,,,,,,,,,,,,,5e90cf731baf783ed0ae0a71,2020-08-10_15h29.10.596,lexical_decision_task_MP,2020.1.3,Linux armv8l,60,,0,-0.333333333,-0.247222222,1,0,0,0.6308,button_left,0.6308,1,,,,,,466,NW,UN,50,pebric,HOCITE,z,,,,,,-0.333333333,-0.247222222,1,0,0,,0,183,183,465,1,
,,,,,,,,,,,,,,,,,,5e90cf731baf783ed0ae0a71,2020-08-10_15h29.10.596,lexical_decision_task_MP,2020.1.3,Linux armv8l,60,,0,0.312963019,-0.263888889,1,0,0,0.5837,button_right,0.5837,1,,,,,,92,WORD,"ID",50,strand,STRAND,m,,,,,,0.312963019,-0.263888889,1,0,0,,0,184,184,91,1,
,,,,,,,,,,,,,,,,,,5e90cf731baf783ed0ae0a71,2020-08-10_15h29.10.596,lexical_decision_task_MP,2020.1.3,Linux armv8l,60,,0,0.301851908,-0.262963019,1,0,0,0.6627,button_right,0.6627,1,,,,,,177,WORD,UN,33,inform,ADVENT,m,,,,,,0.301851908,-0.262963019,1,0,0,,0,185,185,176,1,
,,,,,,,,,,,,,,,,,,5e90cf731baf783ed0ae0a71,2020-08-10_15h29.10.596,lexical_decision_task_MP,2020.1.3,Linux armv8l,60,,0,-0.334259245,-0.234259288,1,0,0,0.7307,button_left,0.7307,1,,,,,,328,NW,"ID",50,broake,BROAKE,z,,,,,,-0.334259245,-0.234259288,1,0,0,,0,186,186,327,1,
,,,,,,,,,,,,,,,,,,5e90cf731baf783ed0ae0a71,2020-08-10_15h29.10.596,lexical_decision_task_MP,2020.1.3,Linux armv8l,60,,0,-0.336111111,-0.238888889,1,0,0,0.7137,button_left,0.7137,1,,,,,,308,NW,"ID",50,psetch,PSETCH,z,,,,,,-0.336111111,-0.238888889,1,0,0,,0,187,187,307,1,
,,,,,,,,,,,,,,,,,,5e90cf731baf783ed0ae0a71,2020-08-10_15h29.10.596,lexical_decision_task_MP,2020.1.3,Linux armv8l,60,,0,0.317592621,-0.260185242,1,0,0,0.7128,button_right,0.7128,1,,,,,,231,WORD,UN,50,mother,EXPORT,m,,,,,,0.317592621,-0.260185242,1,0,0,,0,188,188,230,1,
,,,,,,,,,,,,,,,,,,5e90cf731baf783ed0ae0a71,2020-08-10_15h29.10.596,lexical_decision_task_MP,2020.1.3,Linux armv8l,60,,0,-0.319444444,-0.254629686,1,0,0,0.8129,button_left,0.8129,1,,,,,,297,NW,"ID",33,fertic,FERTIC,z,,,,,,-0.319444444,-0.254629686,1,0,0,,0,189,189,296,1,
,,,,,,,,,,,,,,,,,,5e90cf731baf783ed0ae0a71,2020-08-10_15h29.10.596,lexical_decision_task_MP,2020.1.3,Linux armv8l,60,,0,0.313888889,-0.259259288,1,0,0,0.9279,button_right,0.9279,1,,,,,,232,WORD,UN,50,nature,INJECT,m,,,,,,0.313888889,-0.259259288,1,0,0,,0,190,190,231,1,
,,,,,,,,,,,,,,,,,,5e90cf731baf783ed0ae0a71,2020-08-10_15h29.10.596,lexical_decision_task_MP,2020.1.3,Linux armv8l,60,,0,0.299074131,-0.263888889,1,0,0,0.7801,button_right,0.7801,1,,,,,,163,WORD,UN,33,market,STRING,m,,,,,,0.299074131,-0.263888889,1,0,0,,0,191,191,162,1,
,,,,,,,,,,,,,,,,,,5e90cf731baf783ed0ae0a71,2020-08-10_15h29.10.596,lexical_decision_task_MP,2020.1.3,Linux armv8l,60,,0,0.295370399,-0.25648151,1,0,0,0.7958,button_right,0.7958,1,,,,,,10,WORD,"ID",33,ethnic,ETHNIC,m,,,,,,0.295370399,-0.25648151,1,0,0,,0,192,192,9,1,
,,,,,,,,,,,,,,,,,,5e90cf731baf783ed0ae0a71,2020-08-10_15h29.10.596,lexical_decision_task_MP,2020.1.3,Linux armv8l,60,,0,-0.317592578,-0.254629686,1,0,0,0.7312,button_left,0.7312,1,,,,,,375,NW,UN,33,iguare,YORQUE,z,,,,,,-0.317592578,-0.254629686,1,0,0,,0,193,193,374,1,
,,,,,,,,,,,,,,,,,,5e90cf731baf783ed0ae0a71,2020-08-10_15h29.10.596,lexical_decision_task_MP,2020.1.3,Linux armv8l,60,,0,-0.321296268,-0.254629686,1,0,0,0.8782,button_left,0.8782,1,,,,,,242,NW,"ID",33,unwert,UNWERT,z,,,,,,-0.321296268,-0.254629686,1,0,0,,0,194,194,241,1,
,,,,,,,,,,,,,,,,,,5e90cf731baf783ed0ae0a71,2020-08-10_15h29.10.596,lexical_decision_task_MP,2020.1.3,Linux armv8l,60,,0,-0.320370356,-0.247222222,1,0,0,0.7301,button_left,0.7301,1,,,,,,283,NW,"ID",33,veralf,VERALF,z,,,,,,-0.320370356,-0.247222222,1,0,0,,0,195,195,282,1,
,,,,,,,,,,,,,,,,,,5e90cf731baf783ed0ae0a71,2020-08-10_15h29.10.596,lexical_decision_task_MP,2020.1.3,Linux armv8l,60,,0,0.310185242,-0.25648151,1,0,0,0.6311,button_right,0.6311,1,,,,,,90,WORD,"ID",50,relish,RELISH,m,,,,,,0.310185242,-0.25648151,1,0,0,,0,196,196,89,1,
,,,,,,,,,,,,,,,,,,5e90cf731baf783ed0ae0a71,2020-08-10_15h29.10.596,lexical_decision_task_MP,2020.1.3,Linux armv8l,60,,0,0.295370399,-0.257407464,1,0,0,0.6305,button_right,0.6305,1,,,,,,17,WORD,"ID",33,charge,CHARGE,m,,,,,,0.295370399,-0.257407464,1,0,0,,0,197,197,16,1,
,,,,,,,,,,,,,,,,,,5e90cf731baf783ed0ae0a71,2020-08-10_15h29.10.596,lexical_decision_task_MP,2020.1.3,Linux armv8l,60,,0,0.293518575,-0.253703732,1,0,0,0.6626,button_right,0.6626,1,,,,,,174,WORD,UN,33,fabric,TURKEY,m,,,,,,0.293518575,-0.253703732,1,0,0,,0,198,198,173,1,
,,,,,,,,,,,,,,,,,,5e90cf731baf783ed0ae0a71,2020-08-10_15h29.10.596,lexical_decision_task_MP,2020.1.3,Linux armv8l,60,,0,0.318518575,-0.248148176,1,0,0,0.7636,button_right,0.7636,1,,,,,,40,WORD,"ID",33,convey,CONVEY,m,,,,,,0.318518575,-0.248148176,1,0,0,,0,199,199,39,1,
,,,,,,,,,,,,,,,,,,5e90cf731baf783ed0ae0a71,2020-08-10_15h29.10.596,lexical_decision_task_MP,2020.1.3,Linux armv8l,60,,0,-0.326851824,-0.248148176,1,0,0,0.6977,button_left,0.6977,1,,,,,,316,NW,"ID",50,scregm,SCREGM,z,,,,,,-0.326851824,-0.248148176,1,0,0,,0,200,200,315,1,
,,,,,,,,,,,,,,,,,,5e90cf731baf783ed0ae0a71,2020-08-10_15h29.10.596,lexical_decision_task_MP,2020.1.3,Linux armv8l,60,,0,0.316666667,-0.25648151,1,0,0,1.0958,button_right,1.0958,1,,,,,,225,WORD,UN,50,kidney,VULGAR,m,,,,,,0.316666667,-0.25648151,1,0,0,,0,201,201,224,1,
,,,,,,,,,,,,,,,,,,5e90cf731baf783ed0ae0a71,2020-08-10_15h29.10.596,lexical_decision_task_MP,2020.1.3,Linux armv8l,60,,0,0.310185242,-0.255555556,1,0,0,0.7967,button_right,0.7967,1,,,,,,11,WORD,"ID",33,cruise,CRUISE,m,,,,,,0.310185242,-0.255555556,1,0,0,,0,202,202,10,1,
,,,,,,,,,,,,,,,,,,5e90cf731baf783ed0ae0a71,2020-08-10_15h29.10.596,lexical_decision_task_MP,2020.1.3,Linux armv8l,60,,0,-0.32870369,-0.238888889,1,0,0,1.0776,button_left,1.0776,1,,,,,,263,NW,"ID",33,dolica,DOLICA,z,,,,,,-0.32870369,-0.238888889,1,0,0,,0,203,203,262,1,
,,,,,,,,,,,,,,,,,,5e90cf731baf783ed0ae0a71,2020-08-10_15h29.10.596,lexical_decision_task_MP,2020.1.3,Linux armv8l,60,,0,-0.326851824,-0.237963019,1,0,0,0.7454,button_left,0.7454,1,,,,,,386,NW,UN,33,gronce,ANCUST,z,,,,,,-0.326851824,-0.237963019,1,0,0,,0,204,204,385,1,
,,,,,,,,,,,,,,,,,,5e90cf731baf783ed0ae0a71,2020-08-10_15h29.10.596,lexical_decision_task_MP,2020.1.3,Linux armv8l,60,,0,0.308333333,-0.258333333,1,0,0,0.7303,button_right,0.7303,1,,,,,,108,WORD,"ID",50,reckon,RECKON,m,,,,,,0.308333333,-0.258333333,1,0,0,,0,205,205,107,1,
,,,,,,,,,,,,,,,,,,5e90cf731baf783ed0ae0a71,2020-08-10_15h29.10.596,lexical_decision_task_MP,2020.1.3,Linux armv8l,60,,0,0.307407464,-0.25648151,1,0,0,0.679,button_right,0.679,1,,,,,,203,WORD,UN,50,burden,PHRASE,m,,,,,,0.307407464,-0.25648151,1,0,0,,0,206,206,202,1,
,,,,,,,,,,,,,,,,,,5e90cf731baf783ed0ae0a71,2020-08-10_15h29.10.596,lexical_decision_task_MP,2020.1.3,Linux armv8l,60,,0,0.297222222,-0.254629686,1,0,0,0.5974,button_right,0.5974,1,,,,,,226,WORD,UN,50,flower,CASINO,m,,,,,,0.297222222,-0.254629686,1,0,0,,0,207,207,225,1,
,,,,,,,,,,,,,,,,,,5e90cf731baf783ed0ae0a71,2020-08-10_15h29.10.596,lexical_decision_task_MP,2020.1.3,Linux armv8l,60,,0,0.298148176,-0.254629686,1,0,0,0.5304,button_right,0.5304,1,,,,,,4,WORD,"ID",33,trench,TRENCH,m,,,,,,0.298148176,-0.254629686,1,0,0,,0,208,208,3,1,
,,,,,,,,,,,,,,,,,,5e90cf731baf783ed0ae0a71,2020-08-10_15h29.10.596,lexical_decision_task_MP,2020.1.3,Linux armv8l,60,,0,0.305555556,-0.254629686,1,0,0,0.7613,button_right,0.7613,1,,,,,,239,WORD,UN,50,forest,LUMBER,m,,,,,,0.305555556,-0.254629686,1,0,0,,0,209,209,238,1,
,,,,,,,,,,,,,,,,,,5e90cf731baf783ed0ae0a71,2020-08-10_15h29.10.596,lexical_decision_task_MP,2020.1.3,Linux armv8l,60,,0,0.295370399,-0.254629686,1,0,0,0.5973,button_right,0.5973,1,,,,,,230,WORD,UN,50,export,FRINGE,m,,,,,,0.295370399,-0.254629686,1,0,0,,0,210,210,229,1,
,,,,,,,,,,,,,,,,,,5e90cf731baf783ed0ae0a71,2020-08-10_15h29.10.596,lexical_decision_task_MP,2020.1.3,Linux armv8l,60,,0,-0.325,-0.237037065,1,0,0,0.9445,button_left,0.9445,1,,,,,,360,NW,"ID",50,desory,DESORY,z,,,,,,-0.325,-0.237037065,1,0,0,,0,211,211,359,1,
,,,,,,,,,,,,,,,,,,5e90cf731baf783ed0ae0a71,2020-08-10_15h29.10.596,lexical_decision_task_MP,2020.1.3,Linux armv8l,60,,0,0.294444444,-0.253703732,1,0,0,0.6455,button_right,0.6455,1,,,,,,27,WORD,"ID",33,scream,SCREAM,m,,,,,,0.294444444,-0.253703732,1,0,0,,0,212,212,26,1,
,,,,,,,,,,,,,,,,,,5e90cf731baf783ed0ae0a71,2020-08-10_15h29.10.596,lexical_decision_task_MP,2020.1.3,Linux armv8l,60,,0,0.294444444,-0.254629686,1,0,0,0.6304,button_right,0.6304,1,,,,,,216,WORD,UN,50,liquor,BEHALF,m,,,,,,0.294444444,-0.254629686,1,0,0,,0,213,213,215,1,
,,,,,,,,,,,,,,,,,,5e90cf731baf783ed0ae0a71,2020-08-10_15h29.10.596,lexical_decision_task_MP,2020.1.3,Linux armv8l,60,,0,-0.323148134,-0.243518575,1,0,0,0.6969,button_left,0.6969,1,,,,,,465,NW,UN,50,hocite,WHIVEX,z,,,,,,-0.323148134,-0.243518575,1,0,0,,0,214,214,464,1,
,,,,,,,,,,,,,,,,,,5e90cf731baf783ed0ae0a71,2020-08-10_15h29.10.596,lexical_decision_task_MP,2020.1.3,Linux armv8l,60,,0,0.293518575,-0.253703732,1,0,0,0.5469,button_right,0.5469,1,,,,,,100,WORD,"ID",50,carbon,CARBON,m,,,,,,0.293518575,-0.253703732,1,0,0,,0,215,215,99,1,
,,,,,,,,,,,,,,,,,,5e90cf731baf783ed0ae0a71,2020-08-10_15h29.10.596,lexical_decision_task_MP,2020.1.3,Linux armv8l,60,,0,-0.323148134,-0.237037065,1,0,0,0.6959,button_left,0.6959,1,,,,,,264,NW,"ID",33,vackel,VACKEL,z,,,,,,-0.323148134,-0.237037065,1,0,0,,0,216,216,263,1,
,,,,,,,,,,,,,,,,,,5e90cf731baf783ed0ae0a71,2020-08-10_15h29.10.596,lexical_decision_task_MP,2020.1.3,Linux armv8l,60,,0,-0.324074046,-0.237037065,1,0,0,0.8376,button_left,0.8376,1,,,,,,408,NW,UN,33,flumni,HURNIA,z,,,,,,-0.324074046,-0.237037065,1,0,0,,0,217,217,407,1,
,,,,,,,,,,,,,,,,,,5e90cf731baf783ed0ae0a71,2020-08-10_15h29.10.596,lexical_decision_task_MP,2020.1.3,Linux armv8l,60,,0,0.293518575,-0.254629686,1,0,0,0.7962,button_right,0.7962,1,,,,,,137,WORD,UN,33,melody,FINGER,m,,,,,,0.293518575,-0.254629686,1,0,0,,0,218,218,136,1,
,,,,,,,,,,,,,,,,,,5e90cf731baf783ed0ae0a71,2020-08-10_15h29.10.596,lexical_decision_task_MP,2020.1.3,Linux armv8l,60,,0,-0.323148134,-0.232407464,1,0,0,0.9618,button_left,0.9618,1,,,,,,365,NW,UN,33,toshel,GUAIRT,z,,,,,,-0.323148134,-0.232407464,1,0,0,,0,219,219,364,1,
,,,,,,,,,,,,,,,,,,5e90cf731baf783ed0ae0a71,2020-08-10_15h29.10.596,lexical_decision_task_MP,2020.1.3,Linux armv8l,60,,0,-0.324074046,-0.230555556,1,0,0,0.9958,button_left,0.9958,1,,,,,,310,NW,"ID",50,daniet,DANIET,z,,,,,,-0.324074046,-0.230555556,1,0,0,,0,220,220,309,1,
,,,,,,,,,,,,,,,,,,5e90cf731baf783ed0ae0a71,2020-08-10_15h29.10.596,lexical_decision_task_MP,2020.1.3,Linux armv8l,60,,0,-0.325,-0.230555556,1,0,0,0.6793,button_left,0.6793,1,,,,,,379,NW,UN,33,cavory,AUTING,z,,,,,,-0.325,-0.230555556,1,0,0,,0,221,221,378,1,
,,,,,,,,,,,,,,,,,,5e90cf731baf783ed0ae0a71,2020-08-10_15h29.10.596,lexical_decision_task_MP,2020.1.3,Linux armv8l,60,,0,-0.319444444,-0.229629686,1,0,0,0.5809,button_left,0.5809,1,,,,,,411,NW,UN,33,jiluer,ORCHIN,z,,,,,,-0.319444444,-0.229629686,1,0,0,,0,222,222,410,1,
,,,,,,,,,,,,,,,,,,5e90cf731baf783ed0ae0a71,2020-08-10_15h29.10.596,lexical_decision_task_MP,2020.1.3,Linux armv8l,60,,0,-0.320370356,-0.207407422,1,0,0,0.6136,button_left,0.6136,1,,,,,,381,NW,UN,33,sarley,HUNIEK,z,,,,,,-0.320370356,-0.207407422,1,0,0,,0,223,223,380,1,
,,,,,,,,,,,,,,,,,,5e90cf731baf783ed0ae0a71,2020-08-10_15h29.10.596,lexical_decision_task_MP,2020.1.3,Linux armv8l,60,,0,-0.313888889,-0.217592621,1,0,0,0.6791,button_left,0.6791,1,,,,,,276,NW,"ID",33,yarmon,YARMON,z,,,,,,-0.313888889,-0.217592621,1,0,0,,0,224,224,275,1,
,,,,,,,,,,,,,,,,,,5e90cf731baf783ed0ae0a71,2020-08-10_15h29.10.596,lexical_decision_task_MP,2020.1.3,Linux armv8l,60,,0,0.308333333,-0.255555556,1,0,0,0.6638,button_right,0.6638,1,,,,,,31,WORD,"ID",33,weapon,WEAPON,m,,,,,,0.308333333,-0.255555556,1,0,0,,0,225,225,30,1,
,,,,,,,,,,,,,,,,,,5e90cf731baf783ed0ae0a71,2020-08-10_15h29.10.596,lexical_decision_task_MP,2020.1.3,Linux armv8l,60,,0,0.3,-0.254629686,1,0,0,0.6468,button_right,0.6468,1,,,,,,197,WORD,UN,50,wicked,STREAM,m,,,,,,0.3,-0.254629686,1,0,0,,0,226,226,196,1,
,,,,,,,,,,,,,,,,,,5e90cf731baf783ed0ae0a71,2020-08-10_15h29.10.596,lexical_decision_task_MP,2020.1.3,Linux armv8l,60,,0,-0.324074046,-0.233333333,1,0,0,0.7097,button_left,0.7097,1,,,,,,413,NW,UN,33,serbol,EQUATS,z,,,,,,-0.324074046,-0.233333333,1,0,0,,0,227,227,412,1,
,,,,,,,,,,,,,,,,,,5e90cf731baf783ed0ae0a71,2020-08-10_15h29.10.596,lexical_decision_task_MP,2020.1.3,Linux armv8l,60,,0,-0.325,-0.222222222,1,0,0,0.7108,button_left,0.7108,1,,,,,,387,NW,UN,33,cragin,GRONCE,z,,,,,,-0.325,-0.222222222,1,0,0,,0,228,228,386,1,
,,,,,,,,,,,,,,,,,,5e90cf731baf783ed0ae0a71,2020-08-10_15h29.10.596,lexical_decision_task_MP,2020.1.3,Linux armv8l,60,,0,-0.323148134,-0.221296353,1,0,0,1.1991,button_left,1.1991,1,,,,,,382,NW,UN,33,aungre,SARLEY,z,,,,,,-0.323148134,-0.221296353,1,0,0,,0,229,229,381,1,
,,,,,,,,,,,,,,,,,,5e90cf731baf783ed0ae0a71,2020-08-10_15h29.10.596,lexical_decision_task_MP,2020.1.3,Linux armv8l,60,,0,0.297222222,-0.259259288,1,0,0,0.7459,button_right,0.7459,1,,,,,,215,WORD,UN,50,behalf,PHOBIA,m,,,,,,0.297222222,-0.259259288,1,0,0,,0,230,230,214,1,
,,,,,,,,,,,,,,,,,,5e90cf731baf783ed0ae0a71,2020-08-10_15h29.10.596,lexical_decision_task_MP,2020.1.3,Linux armv8l,60,,0,0.293518575,-0.257407464,1,0,0,0.6625,button_right,0.6625,1,,,,,,106,WORD,"ID",50,ransom,RANSOM,m,,,,,,0.293518575,-0.257407464,1,0,0,,0,231,231,105,1,
,,,,,,,,,,,,,,,,,,5e90cf731baf783ed0ae0a71,2020-08-10_15h29.10.596,lexical_decision_task_MP,2020.1.3,Linux armv8l,60,,0,0.296296353,-0.255555556,1,0,0,0.613,button_right,0.613,1,,,,,,95,WORD,"ID",50,thread,THREAD,m,,,,,,0.296296353,-0.255555556,1,0,0,,0,232,232,94,1,
,,,,,,,,,,,,,,,,,,5e90cf731baf783ed0ae0a71,2020-08-10_15h29.10.596,lexical_decision_task_MP,2020.1.3,Linux armv8l,60,,0,-0.319444444,-0.214814843,1,0,0,1.0452,button_left,1.0452,1,,,,,,334,NW,"ID",50,watmeg,WATMEG,z,,,,,,-0.319444444,-0.214814843,1,0,0,,0,233,233,333,1,
,,,,,,,,,,,,,,,,,,5e90cf731baf783ed0ae0a71,2020-08-10_15h29.10.596,lexical_decision_task_MP,2020.1.3,Linux armv8l,60,,0,0.3,-0.251851908,1,0,0,0.8134,button_right,0.8134,1,,,,,,69,WORD,"ID",50,plenty,PLENTY,m,,,,,,0.3,-0.251851908,1,0,0,,0,234,234,68,1,
,,,,,,,,,,,,,,,,,,5e90cf731baf783ed0ae0a71,2020-08-10_15h29.10.596,lexical_decision_task_MP,2020.1.3,Linux armv8l,60,,0,-0.322222222,-0.208333333,1,0,0,0.7106,button_left,0.7106,1,,,,,,325,NW,"ID",50,thruse,THRUSE,z,,,,,,-0.322222222,-0.208333333,1,0,0,,0,235,235,324,1,
,,,,,,,,,,,,,,,,,,5e90cf731baf783ed0ae0a71,2020-08-10_15h29.10.596,lexical_decision_task_MP,2020.1.3,Linux armv8l,60,,0,0.298148176,-0.254629686,1,0,0,0.7293,button_right,0.7293,0,,,,,,312,NW,"ID",50,nerawl,NERAWL,z,,,,,,0.298148176,-0.254629686,1,0,0,,0,236,236,311,1,
,,,,,,,,,,,,,,,,,,5e90cf731baf783ed0ae0a71,2020-08-10_15h29.10.596,lexical_decision_task_MP,2020.1.3,Linux armv8l,60,,0,0.296296353,-0.25648151,1,0,0,0.6815,button_right,0.6815,1,,,,,,127,WORD,UN,33,senior,CASTLE,m,,,,,,0.296296353,-0.25648151,1,0,0,,0,237,237,126,1,
,,,,,,,,,,,,,,,,,,5e90cf731baf783ed0ae0a71,2020-08-10_15h29.10.596,lexical_decision_task_MP,2020.1.3,Linux armv8l,60,,0,-0.320370356,-0.203703732,1,0,0,0.7292,button_left,0.7292,0,,,,,,129,WORD,UN,33,stupid,MARVEL,m,,,,,,-0.320370356,-0.203703732,1,0,0,,0,238,238,128,1,
,,,,,,,,,,,,,,,,,,5e90cf731baf783ed0ae0a71,2020-08-10_15h29.10.596,lexical_decision_task_MP,2020.1.3,Linux armv8l,60,,0,-0.369444444,-0.25648151,1,0,0,1.9486,button_left,1.9486,1,,,,,,393,NW,UN,33,spaqux,GANOUS,z,,,,,,-0.369444444,-0.25648151,1,0,0,,0,239,239,392,1,
,,,,,,,,,,,,,,,,,,5e90cf731baf783ed0ae0a71,2020-08-10_15h29.10.596,lexical_decision_task_MP,2020.1.3,Linux armv8l,60,,0,-0.345370356,-0.245370399,1,0,0,1.0127,button_left,1.0127,1,,,,,,319,NW,"ID",50,zomber,ZOMBER,z,,,,,,-0.345370356,-0.245370399,1,0,0,,0,240,240,318,1,
,,,,,,,,,,,,,,,,,,5e90cf731baf783ed0ae0a71,2020-08-10_15h29.10.596,lexical_decision_task_MP,2020.1.3,Linux armv8l,60,,0,-0.335185157,-0.240740797,1,0,0,0.6807,button_left,0.6807,1,,,,,,288,NW,"ID",33,yaceup,YACEUP,z,,,,,,0.008333333,-0.409259288,1,0,0,,0,241,241,287,1,break_done_button
,,,,,,,,,,,,,,,,,,5e90cf731baf783ed0ae0a71,2020-08-10_15h29.10.596,lexical_decision_task_MP,2020.1.3,Linux armv8l,60,,0,-0.388888889,-0.283333333,1,0,0,0.9295,button_left,0.9295,1,,,,,,243,NW,"ID",33,musied,MUSIED,z,,,,,,-0.388888889,-0.283333333,1,0,0,,0,242,242,242,1,
,,,,,,,,,,,,,,,,,,5e90cf731baf783ed0ae0a71,2020-08-10_15h29.10.596,lexical_decision_task_MP,2020.1.3,Linux armv8l,60,,0,0.399074131,-0.310185242,1,0,0,0.5971,button_right,0.5971,1,,,,,,2,WORD,"ID",33,bridge,BRIDGE,m,,,,,,0.399074131,-0.310185242,1,0,0,,0,243,243,1,1,
,,,,,,,,,,,,,,,,,,5e90cf731baf783ed0ae0a71,2020-08-10_15h29.10.596,lexical_decision_task_MP,2020.1.3,Linux armv8l,60,,0,0.378703732,-0.293518575,1,0,0,0.6634,button_right,0.6634,1,,,,,,121,WORD,UN,33,linger,THRIVE,m,,,,,,0.378703732,-0.293518575,1,0,0,,0,244,244,120,1,
,,,,,,,,,,,,,,,,,,5e90cf731baf783ed0ae0a71,2020-08-10_15h29.10.596,lexical_decision_task_MP,2020.1.3,Linux armv8l,60,,0,-0.361111111,-0.299074131,1,0,0,0.6809,button_left,0.6809,1,,,,,,246,NW,"ID",33,piaton,PIATON,z,,,,,,-0.361111111,-0.299074131,1,0,0,,0,245,245,245,1,
,,,,,,,,,,,,,,,,,,5e90cf731baf783ed0ae0a71,2020-08-10_15h29.10.596,lexical_decision_task_MP,2020.1.3,Linux armv8l,60,,0,-0.340740712,-0.293518575,1,0,0,0.8281,button_left,0.8281,1,,,,,,477,NW,UN,50,acrise,PHOTIE,z,,,,,,-0.340740712,-0.293518575,1,0,0,,0,246,246,476,1,
,,,,,,,,,,,,,,,,,,5e90cf731baf783ed0ae0a71,2020-08-10_15h29.10.596,lexical_decision_task_MP,2020.1.3,Linux armv8l,60,,0,-0.35,-0.285185242,1,0,0,0.8293,button_left,0.8293,1,,,,,,392,NW,UN,33,ganous,ROUNCY,z,,,,,,-0.35,-0.285185242,1,0,0,,0,247,247,391,1,
,,,,,,,,,,,,,,,,,,5e90cf731baf783ed0ae0a71,2020-08-10_15h29.10.596,lexical_decision_task_MP,2020.1.3,Linux armv8l,60,,0,0.359259288,-0.287963019,1,0,0,0.7474,button_right,0.7474,1,,,,,,156,WORD,UN,33,pastor,CRADLE,m,,,,,,0.359259288,-0.287963019,1,0,0,,0,248,248,155,1,
,,,,,,,,,,,,,,,,,,5e90cf731baf783ed0ae0a71,2020-08-10_15h29.10.596,lexical_decision_task_MP,2020.1.3,Linux armv8l,60,,0,0.349074131,-0.288888889,1,0,0,1.0876,button_right,1.0876,1,,,,,,172,WORD,UN,33,shower,PATROL,m,,,,,,0.349074131,-0.288888889,1,0,0,,0,249,249,171,1,
,,,,,,,,,,,,,,,,,,5e90cf731baf783ed0ae0a71,2020-08-10_15h29.10.596,lexical_decision_task_MP,2020.1.3,Linux armv8l,60,,0,-0.323148134,-0.267592621,1,0,0,0.7139,button_left,0.7139,1,,,,,,369,NW,UN,33,sleact,WRONCH,z,,,,,,-0.323148134,-0.267592621,1,0,0,,0,250,250,368,1,
,,,,,,,,,,,,,,,,,,5e90cf731baf783ed0ae0a71,2020-08-10_15h29.10.596,lexical_decision_task_MP,2020.1.3,Linux armv8l,60,,0,0.351851908,-0.283333333,1,0,0,0.6627,button_right,0.6627,1,,,,,,151,WORD,UN,33,rocket,MYSTIC,m,,,,,,0.351851908,-0.283333333,1,0,0,,0,251,251,150,1,
,,,,,,,,,,,,,,,,,,5e90cf731baf783ed0ae0a71,2020-08-10_15h29.10.596,lexical_decision_task_MP,2020.1.3,Linux armv8l,60,,0,0.346296353,-0.282407464,1,0,0,0.6512,button_right,0.6512,1,,,,,,105,WORD,"ID",50,number,NUMBER,m,,,,,,0.346296353,-0.282407464,1,0,0,,0,252,252,104,1,
,,,,,,,,,,,,,,,,,,5e90cf731baf783ed0ae0a71,2020-08-10_15h29.10.596,lexical_decision_task_MP,2020.1.3,Linux armv8l,60,,0,0.347222222,-0.28148151,1,0,0,0.5971,button_right,0.5971,1,,,,,,123,WORD,UN,33,enough,STRIKE,m,,,,,,0.347222222,-0.28148151,1,0,0,,0,253,253,122,1,
,,,,,,,,,,,,,,,,,,5e90cf731baf783ed0ae0a71,2020-08-10_15h29.10.596,lexical_decision_task_MP,2020.1.3,Linux armv8l,60,,0,0.343518575,-0.277777778,1,0,0,0.7464,button_right,0.7464,1,,,,,,89,WORD,"ID",50,permit,PERMIT,m,,,,,,0.343518575,-0.277777778,1,0,0,,0,254,254,88,1,
,,,,,,,,,,,,,,,,,,5e90cf731baf783ed0ae0a71,2020-08-10_15h29.10.596,lexical_decision_task_MP,2020.1.3,Linux armv8l,60,,0,-0.325,-0.285185242,1,0,0,0.6936,button_left,0.6936,1,,,,,,302,NW,"ID",50,miluer,MILUER,z,,,,,,-0.325,-0.285185242,1,0,0,,0,255,255,301,1,
,,,,,,,,,,,,,,,,,,5e90cf731baf783ed0ae0a71,2020-08-10_15h29.10.596,lexical_decision_task_MP,2020.1.3,Linux armv8l,60,,0,0.345370399,-0.271296353,1,0,0,0.8293,button_right,0.8293,1,,,,,,82,WORD,"ID",50,stigma,STIGMA,m,,,,,,0.345370399,-0.271296353,1,0,0,,0,256,256,81,1,
,,,,,,,,,,,,,,,,,,5e90cf731baf783ed0ae0a71,2020-08-10_15h29.10.596,lexical_decision_task_MP,2020.1.3,Linux armv8l,60,,0,-0.319444444,-0.288888889,1,0,0,0.7142,button_left,0.7142,1,,,,,,400,NW,UN,33,mustil,WEAROX,z,,,,,,-0.319444444,-0.288888889,1,0,0,,0,257,257,399,1,
,,,,,,,,,,,,,,,,,,5e90cf731baf783ed0ae0a71,2020-08-10_15h29.10.596,lexical_decision_task_MP,2020.1.3,Linux armv8l,60,,0,0.335185242,-0.278703732,1,0,0,0.6784,button_right,0.6784,0,,,,,,397,NW,UN,33,blunde,CAMBLE,z,,,,,,0.335185242,-0.278703732,1,0,0,,0,258,258,396,1,
,,,,,,,,,,,,,,,,,,5e90cf731baf783ed0ae0a71,2020-08-10_15h29.10.596,lexical_decision_task_MP,2020.1.3,Linux armv8l,60,,0,0.335185242,-0.275,1,0,0,0.7829,button_right,0.7829,1,,,,,,164,WORD,UN,33,invest,MARKET,m,,,,,,0.335185242,-0.275,1,0,0,,0,259,259,163,1,
,,,,,,,,,,,,,,,,,,5e90cf731baf783ed0ae0a71,2020-08-10_15h29.10.596,lexical_decision_task_MP,2020.1.3,Linux armv8l,60,,0,0.335185242,-0.273148176,1,0,0,0.8124,button_right,0.8124,1,,,,,,111,WORD,"ID",50,induce,INDUCE,m,,,,,,0.335185242,-0.273148176,1,0,0,,0,260,260,110,1,
,,,,,,,,,,,,,,,,,,5e90cf731baf783ed0ae0a71,2020-08-10_15h29.10.596,lexical_decision_task_MP,2020.1.3,Linux armv8l,60,,0,0.335185242,-0.275925954,1,0,0,0.7089,button_right,0.7089,1,,,,,,29,WORD,"ID",33,sketch,SKETCH,m,,,,,,0.335185242,-0.275925954,1,0,0,,0,261,261,28,1,
,,,,,,,,,,,,,,,,,,5e90cf731baf783ed0ae0a71,2020-08-10_15h29.10.596,lexical_decision_task_MP,2020.1.3,Linux armv8l,60,,0,0.335185242,-0.274074131,1,0,0,0.7119,button_right,0.7119,1,,,,,,193,WORD,UN,50,plague,OBJECT,m,,,,,,0.335185242,-0.274074131,1,0,0,,0,262,262,192,1,
,,,,,,,,,,,,,,,,,,5e90cf731baf783ed0ae0a71,2020-08-10_15h29.10.596,lexical_decision_task_MP,2020.1.3,Linux armv8l,60,,0,-0.322222222,-0.292592621,1,0,0,0.7147,button_left,0.7147,1,,,,,,420,NW,UN,33,pauche,GUSHOP,z,,,,,,-0.322222222,-0.292592621,1,0,0,,0,263,263,419,1,
,,,,,,,,,,,,,,,,,,5e90cf731baf783ed0ae0a71,2020-08-10_15h29.10.596,lexical_decision_task_MP,2020.1.3,Linux armv8l,60,,0,0.333333333,-0.275,1,0,0,0.8176,button_right,0.8176,1,,,,,,116,WORD,"ID",50,tumble,TUMBLE,m,,,,,,0.333333333,-0.275,1,0,0,,0,264,264,115,1,
,,,,,,,,,,,,,,,,,,5e90cf731baf783ed0ae0a71,2020-08-10_15h29.10.596,lexical_decision_task_MP,2020.1.3,Linux armv8l,60,,0,-0.322222222,-0.270370399,1,0,0,0.8439,button_left,0.8439,1,,,,,,461,NW,UN,50,absult,JUSTRE,z,,,,,,-0.322222222,-0.270370399,1,0,0,,0,265,265,460,1,
,,,,,,,,,,,,,,,,,,5e90cf731baf783ed0ae0a71,2020-08-10_15h29.10.596,lexical_decision_task_MP,2020.1.3,Linux armv8l,60,,0,0.335185242,-0.275925954,1,0,0,0.6633,button_right,0.6633,1,,,,,,130,WORD,UN,33,quench,STUPID,m,,,,,,0.335185242,-0.275925954,1,0,0,,0,266,266,129,1,
,,,,,,,,,,,,,,,,,,5e90cf731baf783ed0ae0a71,2020-08-10_15h29.10.596,lexical_decision_task_MP,2020.1.3,Linux armv8l,60,,0,0.332407464,-0.274074131,1,0,0,0.7103,button_right,0.7103,1,,,,,,179,WORD,UN,33,silent,BASKET,m,,,,,,0.332407464,-0.274074131,1,0,0,,0,267,267,178,1,
,,,,,,,,,,,,,,,,,,5e90cf731baf783ed0ae0a71,2020-08-10_15h29.10.596,lexical_decision_task_MP,2020.1.3,Linux armv8l,60,,0,0.336111111,-0.268518575,1,0,0,0.7124,button_right,0.7124,1,,,,,,110,WORD,"ID",50,polite,POLITE,m,,,,,,0.336111111,-0.268518575,1,0,0,,0,268,268,109,1,
,,,,,,,,,,,,,,,,,,5e90cf731baf783ed0ae0a71,2020-08-10_15h29.10.596,lexical_decision_task_MP,2020.1.3,Linux armv8l,60,,0,0.327777778,-0.265740797,1,0,0,0.6341,button_right,0.6341,1,,,,,,238,WORD,UN,50,grumpy,FLOWER,m,,,,,,0.327777778,-0.265740797,1,0,0,,0,269,269,237,1,
,,,,,,,,,,,,,,,,,,5e90cf731baf783ed0ae0a71,2020-08-10_15h29.10.596,lexical_decision_task_MP,2020.1.3,Linux armv8l,60,,0,0.325925954,-0.262963019,1,0,0,0.8085,button_right,0.8085,1,,,,,,19,WORD,"ID",33,patron,PATRON,m,,,,,,0.325925954,-0.262963019,1,0,0,,0,270,270,18,1,
,,,,,,,,,,,,,,,,,,5e90cf731baf783ed0ae0a71,2020-08-10_15h29.10.596,lexical_decision_task_MP,2020.1.3,Linux armv8l,60,,0,0.318518575,-0.262963019,1,0,0,0.7947,button_right,0.7947,1,,,,,,186,WORD,UN,50,course,PORTAL,m,,,,,,0.318518575,-0.262963019,1,0,0,,0,271,271,185,1,
,,,,,,,,,,,,,,,,,,5e90cf731baf783ed0ae0a71,2020-08-10_15h29.10.596,lexical_decision_task_MP,2020.1.3,Linux armv8l,60,,0,-0.340740712,-0.291666667,1,0,0,0.7453,button_left,0.7453,1,,,,,,435,NW,UN,50,frutan,IMPURB,z,,,,,,-0.340740712,-0.291666667,1,0,0,,0,272,272,434,1,
,,,,,,,,,,,,,,,,,,5e90cf731baf783ed0ae0a71,2020-08-10_15h29.10.596,lexical_decision_task_MP,2020.1.3,Linux armv8l,60,,0,-0.325925912,-0.293518575,1,0,0,0.7803,button_left,0.7803,0,,,,,,204,WORD,UN,50,lounge,BURDEN,m,,,,,,-0.325925912,-0.293518575,1,0,0,,0,273,273,203,1,
,,,,,,,,,,,,,,,,,,5e90cf731baf783ed0ae0a71,2020-08-10_15h29.10.596,lexical_decision_task_MP,2020.1.3,Linux armv8l,60,,0,-0.335185157,-0.296296353,1,0,0,0.6137,button_left,0.6137,1,,,,,,416,NW,UN,33,earoud,PATHEL,z,,,,,,-0.335185157,-0.296296353,1,0,0,,0,274,274,415,1,
,,,,,,,,,,,,,,,,,,5e90cf731baf783ed0ae0a71,2020-08-10_15h29.10.596,lexical_decision_task_MP,2020.1.3,Linux armv8l,60,,0,0.330555556,-0.258333333,1,0,0,0.6266,button_right,0.6266,1,,,,,,76,WORD,"ID",50,exotic,EXOTIC,m,,,,,,0.330555556,-0.258333333,1,0,0,,0,275,275,75,1,
,,,,,,,,,,,,,,,,,,5e90cf731baf783ed0ae0a71,2020-08-10_15h29.10.596,lexical_decision_task_MP,2020.1.3,Linux armv8l,60,,0,-0.331481467,-0.292592621,1,0,0,0.7136,button_left,0.7136,1,,,,,,262,NW,"ID",33,quilew,QUILEW,z,,,,,,-0.331481467,-0.292592621,1,0,0,,0,276,276,261,1,
,,,,,,,,,,,,,,,,,,5e90cf731baf783ed0ae0a71,2020-08-10_15h29.10.596,lexical_decision_task_MP,2020.1.3,Linux armv8l,60,,0,-0.326851824,-0.277777778,1,0,0,1.0604,button_left,1.0604,1,,,,,,341,NW,"ID",50,myrtie,MYRTIE,z,,,,,,-0.326851824,-0.277777778,1,0,0,,0,277,277,340,1,
,,,,,,,,,,,,,,,,,,5e90cf731baf783ed0ae0a71,2020-08-10_15h29.10.596,lexical_decision_task_MP,2020.1.3,Linux armv8l,60,,0,0.323148176,-0.262963019,1,0,0,0.6809,button_right,0.6809,1,,,,,,64,WORD,"ID",50,throne,THRONE,m,,,,,,0.323148176,-0.262963019,1,0,0,,0,278,278,63,1,
,,,,,,,,,,,,,,,,,,5e90cf731baf783ed0ae0a71,2020-08-10_15h29.10.596,lexical_decision_task_MP,2020.1.3,Linux armv8l,60,,0,-0.330555556,-0.28148151,1,0,0,0.6959,button_left,0.6959,1,,,,,,280,NW,"ID",33,curbol,CURBOL,z,,,,,,-0.330555556,-0.28148151,1,0,0,,0,279,279,279,1,
,,,,,,,,,,,,,,,,,,5e90cf731baf783ed0ae0a71,2020-08-10_15h29.10.596,lexical_decision_task_MP,2020.1.3,Linux armv8l,60,,0,-0.331481467,-0.282407464,1,0,0,0.88,button_left,0.88,1,,,,,,401,NW,UN,33,elopia,MUSTIL,z,,,,,,-0.331481467,-0.282407464,1,0,0,,0,280,280,400,1,
,,,,,,,,,,,,,,,,,,5e90cf731baf783ed0ae0a71,2020-08-10_15h29.10.596,lexical_decision_task_MP,2020.1.3,Linux armv8l,60,,0,0.323148176,-0.260185242,1,0,0,0.7285,button_right,0.7285,1,,,,,,122,WORD,UN,33,strike,LINGER,m,,,,,,0.323148176,-0.260185242,1,0,0,,0,281,281,121,1,
,,,,,,,,,,,,,,,,,,5e90cf731baf783ed0ae0a71,2020-08-10_15h29.10.596,lexical_decision_task_MP,2020.1.3,Linux armv8l,60,,0,0.322222222,-0.263888889,1,0,0,0.7764,button_right,0.7764,1,,,,,,132,WORD,UN,33,bleach,STRONG,m,,,,,,0.322222222,-0.263888889,1,0,0,,0,282,282,131,1,
,,,,,,,,,,,,,,,,,,5e90cf731baf783ed0ae0a71,2020-08-10_15h29.10.596,lexical_decision_task_MP,2020.1.3,Linux armv8l,60,,0,-0.322222222,-0.283333333,1,0,0,0.7086,button_left,0.7086,1,,,,,,287,NW,"ID",33,nymbel,NYMBEL,z,,,,,,-0.322222222,-0.283333333,1,0,0,,0,283,283,286,1,
,,,,,,,,,,,,,,,,,,5e90cf731baf783ed0ae0a71,2020-08-10_15h29.10.596,lexical_decision_task_MP,2020.1.3,Linux armv8l,60,,0,0.295370399,-0.255555556,1,0,0,0.5305,button_right,0.5305,1,,,,,,38,WORD,"ID",33,powder,POWDER,m,,,,,,0.295370399,-0.255555556,1,0,0,,0,284,284,37,1,
,,,,,,,,,,,,,,,,,,5e90cf731baf783ed0ae0a71,2020-08-10_15h29.10.596,lexical_decision_task_MP,2020.1.3,Linux armv8l,60,,0,-0.317592578,-0.28148151,1,0,0,0.9488,button_left,0.9488,1,,,,,,244,NW,"ID",33,eatric,EATRIC,z,,,,,,-0.317592578,-0.28148151,1,0,0,,0,285,285,243,1,
,,,,,,,,,,,,,,,,,,5e90cf731baf783ed0ae0a71,2020-08-10_15h29.10.596,lexical_decision_task_MP,2020.1.3,Linux armv8l,60,,0,-0.315740712,-0.283333333,1,0,0,0.7969,button_left,0.7969,1,,,,,,267,NW,"ID",33,pasink,PASINK,z,,,,,,-0.315740712,-0.283333333,1,0,0,,0,286,286,266,1,
,,,,,,,,,,,,,,,,,,5e90cf731baf783ed0ae0a71,2020-08-10_15h29.10.596,lexical_decision_task_MP,2020.1.3,Linux armv8l,60,,0,0.326851908,-0.261111111,1,0,0,0.7271,button_right,0.7271,1,,,,,,135,WORD,UN,33,chrome,IMPORT,m,,,,,,0.326851908,-0.261111111,1,0,0,,0,287,287,134,1,
,,,,,,,,,,,,,,,,,,5e90cf731baf783ed0ae0a71,2020-08-10_15h29.10.596,lexical_decision_task_MP,2020.1.3,Linux armv8l,60,,0,0.324074131,-0.265740797,1,0,0,1.213,button_right,1.213,1,,,,,,183,WORD,UN,50,sleazy,MILDEW,m,,,,,,0.324074131,-0.265740797,1,0,0,,0,288,288,182,1,
,,,,,,,,,,,,,,,,,,5e90cf731baf783ed0ae0a71,2020-08-10_15h29.10.596,lexical_decision_task_MP,2020.1.3,Linux armv8l,60,,0,0.325,-0.264814843,1,0,0,0.7131,button_right,0.7131,1,,,,,,49,WORD,"ID",33,survey,SURVEY,m,,,,,,0.325,-0.264814843,1,0,0,,0,289,289,48,1,
,,,,,,,,,,,,,,,,,,5e90cf731baf783ed0ae0a71,2020-08-10_15h29.10.596,lexical_decision_task_MP,2020.1.3,Linux armv8l,60,,0,0.325,-0.259259288,1,0,0,0.6299,button_right,0.6299,1,,,,,,86,WORD,"ID",50,rodent,RODENT,m,,,,,,0.325,-0.259259288,1,0,0,,0,290,290,85,1,
,,,,,,,,,,,,,,,,,,5e90cf731baf783ed0ae0a71,2020-08-10_15h29.10.596,lexical_decision_task_MP,2020.1.3,Linux armv8l,60,,0,-0.322222222,-0.289814843,1,0,0,0.7653,button_left,0.7653,1,,,,,,293,NW,"ID",33,swance,SWANCE,z,,,,,,-0.322222222,-0.289814843,1,0,0,,0,291,291,292,1,
,,,,,,,,,,,,,,,,,,5e90cf731baf783ed0ae0a71,2020-08-10_15h29.10.596,lexical_decision_task_MP,2020.1.3,Linux armv8l,60,,0,-0.31851849,-0.278703732,1,0,0,0.8444,button_left,0.8444,1,,,,,,364,NW,UN,33,guairt,IMPOTE,z,,,,,,-0.31851849,-0.278703732,1,0,0,,0,292,292,363,1,
,,,,,,,,,,,,,,,,,,5e90cf731baf783ed0ae0a71,2020-08-10_15h29.10.596,lexical_decision_task_MP,2020.1.3,Linux armv8l,60,,0,-0.319444444,-0.279629686,1,0,0,0.7477,button_left,0.7477,1,,,,,,286,NW,"ID",33,reldon,RELDON,z,,,,,,-0.319444444,-0.279629686,1,0,0,,0,293,293,285,1,
,,,,,,,,,,,,,,,,,,5e90cf731baf783ed0ae0a71,2020-08-10_15h29.10.596,lexical_decision_task_MP,2020.1.3,Linux armv8l,60,,0,-0.317592578,-0.271296353,1,0,0,0.7134,button_left,0.7134,1,,,,,,361,NW,UN,33,tireau,PAUCHE,z,,,,,,-0.317592578,-0.271296353,1,0,0,,0,294,294,360,1,
,,,,,,,,,,,,,,,,,,5e90cf731baf783ed0ae0a71,2020-08-10_15h29.10.596,lexical_decision_task_MP,2020.1.3,Linux armv8l,60,,0,-0.313888889,-0.275925954,1,0,0,0.6984,button_left,0.6984,1,,,,,,460,NW,UN,50,justre,MINGAR,z,,,,,,-0.313888889,-0.275925954,1,0,0,,0,295,295,459,1,
,,,,,,,,,,,,,,,,,,5e90cf731baf783ed0ae0a71,2020-08-10_15h29.10.596,lexical_decision_task_MP,2020.1.3,Linux armv8l,60,,0,0.333333333,-0.262037065,1,0,0,0.7139,button_right,0.7139,1,,,,,,84,WORD,"ID",50,mortal,MORTAL,m,,,,,,0.333333333,-0.262037065,1,0,0,,0,296,296,83,1,
,,,,,,,,,,,,,,,,,,5e90cf731baf783ed0ae0a71,2020-08-10_15h29.10.596,lexical_decision_task_MP,2020.1.3,Linux armv8l,60,,0,0.327777778,-0.259259288,1,0,0,1.0442,button_right,1.0442,1,,,,,,202,WORD,UN,50,phrase,FACTOR,m,,,,,,0.327777778,-0.259259288,1,0,0,,0,297,297,201,1,
,,,,,,,,,,,,,,,,,,5e90cf731baf783ed0ae0a71,2020-08-10_15h29.10.596,lexical_decision_task_MP,2020.1.3,Linux armv8l,60,,0,0.325925954,-0.25648151,1,0,0,0.5658,button_right,0.5658,1,,,,,,88,WORD,"ID",50,hunger,HUNGER,m,,,,,,0.325925954,-0.25648151,1,0,0,,0,298,298,87,1,
,,,,,,,,,,,,,,,,,,5e90cf731baf783ed0ae0a71,2020-08-10_15h29.10.596,lexical_decision_task_MP,2020.1.3,Linux armv8l,60,,0,-0.313888889,-0.28148151,1,0,0,0.731,button_left,0.731,1,,,,,,372,NW,UN,33,bigent,RAMILY,z,,,,,,-0.313888889,-0.28148151,1,0,0,,0,299,299,371,1,
,,,,,,,,,,,,,,,,,,5e90cf731baf783ed0ae0a71,2020-08-10_15h29.10.596,lexical_decision_task_MP,2020.1.3,Linux armv8l,60,,0,0.323148176,-0.261111111,1,0,0,1.2265,button_right,1.2265,1,,,,,,199,WORD,UN,50,beacon,INVOKE,m,,,,,,0.323148176,-0.261111111,1,0,0,,0,300,300,198,1,
,,,,,,,,,,,,,,,,,,5e90cf731baf783ed0ae0a71,2020-08-10_15h29.10.596,lexical_decision_task_MP,2020.1.3,Linux armv8l,60,,0,0.324074131,-0.260185242,1,0,0,0.6301,button_right,0.6301,1,,,,,,149,WORD,UN,33,random,INVADE,m,,,,,,0.324074131,-0.260185242,1,0,0,,0,301,301,148,1,
,,,,,,,,,,,,,,,,,,5e90cf731baf783ed0ae0a71,2020-08-10_15h29.10.596,lexical_decision_task_MP,2020.1.3,Linux armv8l,60,,0,-0.313888889,-0.272222222,1,0,0,0.7122,button_left,0.7122,1,,,,,,404,NW,UN,33,syntic,CLUIRM,z,,,,,,-0.313888889,-0.272222222,1,0,0,,0,302,302,403,1,
,,,,,,,,,,,,,,,,,,5e90cf731baf783ed0ae0a71,2020-08-10_15h29.10.596,lexical_decision_task_MP,2020.1.3,Linux armv8l,60,,0,0.327777778,-0.262037065,1,0,0,0.7134,button_right,0.7134,0,,,,,,299,NW,"ID",33,sturch,STURCH,z,,,,,,0.327777778,-0.262037065,1,0,0,,0,303,303,298,1,
,,,,,,,,,,,,,,,,,,5e90cf731baf783ed0ae0a71,2020-08-10_15h29.10.596,lexical_decision_task_MP,2020.1.3,Linux armv8l,60,,0,0.326851908,-0.264814843,1,0,0,0.7352,button_right,0.7352,1,,,,,,191,WORD,UN,50,absent,STABLE,m,,,,,,0.326851908,-0.264814843,1,0,0,,0,304,304,190,1,
,,,,,,,,,,,,,,,,,,5e90cf731baf783ed0ae0a71,2020-08-10_15h29.10.596,lexical_decision_task_MP,2020.1.3,Linux armv8l,60,,0,0.332407464,-0.259259288,1,0,0,0.7627,button_right,0.7627,1,,,,,,118,WORD,"ID",50,flight,FLIGHT,m,,,,,,0.332407464,-0.259259288,1,0,0,,0,305,305,117,1,
,,,,,,,,,,,,,,,,,,5e90cf731baf783ed0ae0a71,2020-08-10_15h29.10.596,lexical_decision_task_MP,2020.1.3,Linux armv8l,60,,0,-0.312037023,-0.272222222,1,0,0,0.7768,button_left,0.7768,1,,,,,,407,NW,UN,33,hurnia,SUIVER,z,,,,,,-0.312037023,-0.272222222,1,0,0,,0,306,306,406,1,
,,,,,,,,,,,,,,,,,,5e90cf731baf783ed0ae0a71,2020-08-10_15h29.10.596,lexical_decision_task_MP,2020.1.3,Linux armv8l,60,,0,0.328703732,-0.254629686,1,0,0,0.7103,button_right,0.7103,1,,,,,,165,WORD,UN,33,starch,INVEST,m,,,,,,0.328703732,-0.254629686,1,0,0,,0,307,307,164,1,
,,,,,,,,,,,,,,,,,,5e90cf731baf783ed0ae0a71,2020-08-10_15h29.10.596,lexical_decision_task_MP,2020.1.3,Linux armv8l,60,,0,-0.310185157,-0.282407464,1,0,0,0.7283,button_left,0.7283,1,,,,,,410,NW,UN,33,orchin,TUNORY,z,,,,,,-0.310185157,-0.282407464,1,0,0,,0,308,308,409,1,
,,,,,,,,,,,,,,,,,,5e90cf731baf783ed0ae0a71,2020-08-10_15h29.10.596,lexical_decision_task_MP,2020.1.3,Linux armv8l,60,,0,-0.308333333,-0.267592621,1,0,0,1.0616,button_left,1.0616,1,,,,,,320,NW,"ID",50,jockal,JOCKAL,z,,,,,,-0.308333333,-0.267592621,1,0,0,,0,309,309,319,1,
,,,,,,,,,,,,,,,,,,5e90cf731baf783ed0ae0a71,2020-08-10_15h29.10.596,lexical_decision_task_MP,2020.1.3,Linux armv8l,60,,0,-0.312962935,-0.277777778,1,0,0,0.9831,button_left,0.9831,1,,,,,,462,NW,UN,50,kispel,ABSULT,z,,,,,,-0.312962935,-0.277777778,1,0,0,,0,310,310,461,1,
,,,,,,,,,,,,,,,,,,5e90cf731baf783ed0ae0a71,2020-08-10_15h29.10.596,lexical_decision_task_MP,2020.1.3,Linux armv8l,60,,0,-0.325925912,-0.295370399,1,0,0,0.6633,button_left,0.6633,1,,,,,,476,NW,UN,50,photie,JOSTED,z,,,,,,-0.325925912,-0.295370399,1,0,0,,0,311,311,475,1,
,,,,,,,,,,,,,,,,,,5e90cf731baf783ed0ae0a71,2020-08-10_15h29.10.596,lexical_decision_task_MP,2020.1.3,Linux armv8l,60,,0,-0.342592578,-0.290740797,1,0,0,0.6125,button_left,0.6125,1,,,,,,274,NW,"ID",33,fumblo,FUMBLO,z,,,,,,-0.342592578,-0.290740797,1,0,0,,0,312,312,273,1,
,,,,,,,,,,,,,,,,,,5e90cf731baf783ed0ae0a71,2020-08-10_15h29.10.596,lexical_decision_task_MP,2020.1.3,Linux armv8l,60,,0,0.335185242,-0.268518575,1,0,0,0.8309,button_right,0.8309,1,,,,,,234,WORD,UN,50,lumber,CLUMSY,m,,,,,,0.335185242,-0.268518575,1,0,0,,0,313,313,233,1,
,,,,,,,,,,,,,,,,,,5e90cf731baf783ed0ae0a71,2020-08-10_15h29.10.596,lexical_decision_task_MP,2020.1.3,Linux armv8l,60,,0,0.325,-0.266666667,1,0,0,0.6766,button_right,0.6766,1,,,,,,237,WORD,UN,50,seldom,POSTER,m,,,,,,0.325,-0.266666667,1,0,0,,0,314,314,236,1,
,,,,,,,,,,,,,,,,,,5e90cf731baf783ed0ae0a71,2020-08-10_15h29.10.596,lexical_decision_task_MP,2020.1.3,Linux armv8l,60,,0,0.323148176,-0.267592621,1,0,0,0.9279,button_right,0.9279,1,,,,,,211,WORD,UN,50,verify,INFECT,m,,,,,,0.323148176,-0.267592621,1,0,0,,0,315,315,210,1,
,,,,,,,,,,,,,,,,,,5e90cf731baf783ed0ae0a71,2020-08-10_15h29.10.596,lexical_decision_task_MP,2020.1.3,Linux armv8l,60,,0,-0.350925912,-0.272222222,1,0,0,1.0285,button_left,1.0285,1,,,,,,269,NW,"ID",33,orchet,ORCHET,z,,,,,,-0.350925912,-0.272222222,1,0,0,,0,316,316,268,1,
,,,,,,,,,,,,,,,,,,5e90cf731baf783ed0ae0a71,2020-08-10_15h29.10.596,lexical_decision_task_MP,2020.1.3,Linux armv8l,60,,0,-0.351851824,-0.287037065,1,0,0,0.6984,button_left,0.6984,1,,,,,,448,NW,UN,50,brunge,SADENT,z,,,,,,-0.351851824,-0.287037065,1,0,0,,0,317,317,447,1,
,,,,,,,,,,,,,,,,,,5e90cf731baf783ed0ae0a71,2020-08-10_15h29.10.596,lexical_decision_task_MP,2020.1.3,Linux armv8l,60,,0,0.323148176,-0.289814843,1,0,0,0.729,button_right,0.729,1,,,,,,28,WORD,"ID",33,comedy,COMEDY,m,,,,,,0.323148176,-0.289814843,1,0,0,,0,318,318,27,1,
,,,,,,,,,,,,,,,,,,5e90cf731baf783ed0ae0a71,2020-08-10_15h29.10.596,lexical_decision_task_MP,2020.1.3,Linux armv8l,60,,0,0.316666667,-0.28148151,1,0,0,0.6975,button_right,0.6975,1,,,,,,198,WORD,UN,50,invoke,WICKED,m,,,,,,0.316666667,-0.28148151,1,0,0,,0,319,319,197,1,
,,,,,,,,,,,,,,,,,,5e90cf731baf783ed0ae0a71,2020-08-10_15h29.10.596,lexical_decision_task_MP,2020.1.3,Linux armv8l,60,,0,-0.35,-0.294444444,1,0,0,0.8544,button_left,0.8544,1,,,,,,342,NW,"ID",50,randow,RANDOW,z,,,,,,-0.35,-0.294444444,1,0,0,,0,320,320,341,1,
,,,,,,,,,,,,,,,,,,5e90cf731baf783ed0ae0a71,2020-08-10_15h29.10.596,lexical_decision_task_MP,2020.1.3,Linux armv8l,60,,0,-0.348148134,-0.287963019,1,0,0,0.6658,button_left,0.6658,1,,,,,,343,NW,"ID",50,aimosy,AIMOSY,z,,,,,,-0.348148134,-0.287963019,1,0,0,,0,321,321,342,1,
,,,,,,,,,,,,,,,,,,5e90cf731baf783ed0ae0a71,2020-08-10_15h29.10.596,lexical_decision_task_MP,2020.1.3,Linux armv8l,60,,0,-0.346296268,-0.282407464,1,0,0,0.8797,button_left,0.8797,1,,,,,,431,NW,UN,50,lunker,CHRUMS,z,,,,,,-0.346296268,-0.282407464,1,0,0,,0,322,322,430,1,
,,,,,,,,,,,,,,,,,,5e90cf731baf783ed0ae0a71,2020-08-10_15h29.10.596,lexical_decision_task_MP,2020.1.3,Linux armv8l,60,,0,-0.336111111,-0.274074131,1,0,0,0.8121,button_left,0.8121,1,,,,,,344,NW,"ID",50,scrily,SCRILY,z,,,,,,-0.336111111,-0.274074131,1,0,0,,0,323,323,343,1,
,,,,,,,,,,,,,,,,,,5e90cf731baf783ed0ae0a71,2020-08-10_15h29.10.596,lexical_decision_task_MP,2020.1.3,Linux armv8l,60,,0,0.353703732,-0.255555556,1,0,0,0.9049,button_right,0.9049,1,,,,,,222,WORD,UN,50,casino,HINDER,m,,,,,,0.353703732,-0.255555556,1,0,0,,0,324,324,221,1,
,,,,,,,,,,,,,,,,,,5e90cf731baf783ed0ae0a71,2020-08-10_15h29.10.596,lexical_decision_task_MP,2020.1.3,Linux armv8l,60,,0,0.337963019,-0.263888889,1,0,0,0.7118,button_right,0.7118,1,,,,,,213,WORD,UN,50,intake,SQUEAL,m,,,,,,0.337963019,-0.263888889,1,0,0,,0,325,325,212,1,
,,,,,,,,,,,,,,,,,,5e90cf731baf783ed0ae0a71,2020-08-10_15h29.10.596,lexical_decision_task_MP,2020.1.3,Linux armv8l,60,,0,-0.346296268,-0.269444444,1,0,0,1.3437,button_left,1.3437,1,,,,,,303,NW,"ID",50,fiream,FIREAM,z,,,,,,-0.346296268,-0.269444444,1,0,0,,0,326,326,302,1,
,,,,,,,,,,,,,,,,,,5e90cf731baf783ed0ae0a71,2020-08-10_15h29.10.596,lexical_decision_task_MP,2020.1.3,Linux armv8l,60,,0,0.335185242,-0.267592621,1,0,0,1.0279,button_right,1.0279,1,,,,,,50,WORD,"ID",33,snatch,SNATCH,m,,,,,,0.335185242,-0.267592621,1,0,0,,0,327,327,49,1,
,,,,,,,,,,,,,,,,,,5e90cf731baf783ed0ae0a71,2020-08-10_15h29.10.596,lexical_decision_task_MP,2020.1.3,Linux armv8l,60,,0,-0.336111111,-0.263888889,1,0,0,0.9131,button_left,0.9131,1,,,,,,437,NW,UN,50,baitch,SNAPEL,z,,,,,,-0.336111111,-0.263888889,1,0,0,,0,328,328,436,1,
,,,,,,,,,,,,,,,,,,5e90cf731baf783ed0ae0a71,2020-08-10_15h29.10.596,lexical_decision_task_MP,2020.1.3,Linux armv8l,60,,0,0.334259288,-0.268518575,1,0,0,0.7148,button_right,0.7148,1,,,,,,22,WORD,"ID",33,jockey,JOCKEY,m,,,,,,0.334259288,-0.268518575,1,0,0,,0,329,329,21,1,
,,,,,,,,,,,,,,,,,,5e90cf731baf783ed0ae0a71,2020-08-10_15h29.10.596,lexical_decision_task_MP,2020.1.3,Linux armv8l,60,,0,0.324074131,-0.267592621,1,0,0,0.7454,button_right,0.7454,1,,,,,,55,WORD,"ID",33,stroke,STROKE,m,,,,,,0.324074131,-0.267592621,1,0,0,,0,330,330,54,1,
,,,,,,,,,,,,,,,,,,5e90cf731baf783ed0ae0a71,2020-08-10_15h29.10.596,lexical_decision_task_MP,2020.1.3,Linux armv8l,60,,0,0.322222222,-0.273148176,1,0,0,0.6294,button_right,0.6294,1,,,,,,96,WORD,"ID",50,ignore,IGNORE,m,,,,,,0.322222222,-0.273148176,1,0,0,,0,331,331,95,1,
,,,,,,,,,,,,,,,,,,5e90cf731baf783ed0ae0a71,2020-08-10_15h29.10.596,lexical_decision_task_MP,2020.1.3,Linux armv8l,60,,0,-0.330555556,-0.279629686,1,0,0,0.7141,button_left,0.7141,1,,,,,,447,NW,UN,50,sadent,GIRCUE,z,,,,,,-0.330555556,-0.279629686,1,0,0,,0,332,332,446,1,
,,,,,,,,,,,,,,,,,,5e90cf731baf783ed0ae0a71,2020-08-10_15h29.10.596,lexical_decision_task_MP,2020.1.3,Linux armv8l,60,,0,-0.335185157,-0.282407464,1,0,0,1.3276,button_left,1.3276,1,,,,,,335,NW,"ID",50,desion,DESION,z,,,,,,-0.335185157,-0.282407464,1,0,0,,0,333,333,334,1,
,,,,,,,,,,,,,,,,,,5e90cf731baf783ed0ae0a71,2020-08-10_15h29.10.596,lexical_decision_task_MP,2020.1.3,Linux armv8l,60,,0,0.33148151,-0.272222222,1,0,0,0.8002,button_right,0.8002,1,,,,,,201,WORD,UN,50,factor,ADMIRE,m,,,,,,0.33148151,-0.272222222,1,0,0,,0,334,334,200,1,
,,,,,,,,,,,,,,,,,,5e90cf731baf783ed0ae0a71,2020-08-10_15h29.10.596,lexical_decision_task_MP,2020.1.3,Linux armv8l,60,,0,0.33148151,-0.278703732,1,0,0,0.6429,button_right,0.6429,1,,,,,,126,WORD,UN,33,castle,ENOUGH,m,,,,,,0.33148151,-0.278703732,1,0,0,,0,335,335,125,1,
,,,,,,,,,,,,,,,,,,5e90cf731baf783ed0ae0a71,2020-08-10_15h29.10.596,lexical_decision_task_MP,2020.1.3,Linux armv8l,60,,0,-0.32870369,-0.290740797,1,0,0,0.6974,button_left,0.6974,1,,,,,,321,NW,"ID",50,miator,MIATOR,z,,,,,,-0.32870369,-0.290740797,1,0,0,,0,336,336,320,1,
,,,,,,,,,,,,,,,,,,5e90cf731baf783ed0ae0a71,2020-08-10_15h29.10.596,lexical_decision_task_MP,2020.1.3,Linux armv8l,60,,0,-0.325,-0.286111111,1,0,0,0.8278,button_left,0.8278,1,,,,,,419,NW,UN,33,gushop,SLOUNT,z,,,,,,-0.325,-0.286111111,1,0,0,,0,337,337,418,1,
,,,,,,,,,,,,,,,,,,5e90cf731baf783ed0ae0a71,2020-08-10_15h29.10.596,lexical_decision_task_MP,2020.1.3,Linux armv8l,60,,0,-0.325,-0.283333333,1,0,0,0.8446,button_left,0.8446,1,,,,,,359,NW,"ID",50,fonver,FONVER,z,,,,,,-0.325,-0.283333333,1,0,0,,0,338,338,358,1,
,,,,,,,,,,,,,,,,,,5e90cf731baf783ed0ae0a71,2020-08-10_15h29.10.596,lexical_decision_task_MP,2020.1.3,Linux armv8l,60,,0,-0.325,-0.268518575,1,0,0,0.6452,button_left,0.6452,1,,,,,,469,NW,UN,50,crudio,PADIFS,z,,,,,,-0.325,-0.268518575,1,0,0,,0,339,339,468,1,
,,,,,,,,,,,,,,,,,,5e90cf731baf783ed0ae0a71,2020-08-10_15h29.10.596,lexical_decision_task_MP,2020.1.3,Linux armv8l,60,,0,-0.325,-0.273148176,1,0,0,0.6784,button_left,0.6784,0,,,,,,54,WORD,"ID",33,ramble,RAMBLE,m,,,,,,-0.325,-0.273148176,1,0,0,,0,340,340,53,1,
,,,,,,,,,,,,,,,,,,5e90cf731baf783ed0ae0a71,2020-08-10_15h29.10.596,lexical_decision_task_MP,2020.1.3,Linux armv8l,60,,0,-0.324074046,-0.273148176,1,0,0,0.8278,button_left,0.8278,1,,,,,,440,NW,UN,50,cainky,SARIDE,z,,,,,,-0.324074046,-0.273148176,1,0,0,,0,341,341,439,1,
,,,,,,,,,,,,,,,,,,5e90cf731baf783ed0ae0a71,2020-08-10_15h29.10.596,lexical_decision_task_MP,2020.1.3,Linux armv8l,60,,0,0.340740797,-0.265740797,1,0,0,0.7625,button_right,0.7625,1,,,,,,53,WORD,"ID",33,police,POLICE,m,,,,,,0.340740797,-0.265740797,1,0,0,,0,342,342,52,1,
,,,,,,,,,,,,,,,,,,5e90cf731baf783ed0ae0a71,2020-08-10_15h29.10.596,lexical_decision_task_MP,2020.1.3,Linux armv8l,60,,0,0.338888889,-0.267592621,1,0,0,0.7391,button_right,0.7391,1,,,,,,99,WORD,"ID",50,fluent,FLUENT,m,,,,,,0.338888889,-0.267592621,1,0,0,,0,343,343,98,1,
