counterbalancing_condition,instr_done_keyboard.keys,instr_done_touch.x,instr_done_touch.y,instr_done_touch.leftButton,instr_done_touch.midButton,instr_done_touch.rightButton,instr_done_touch.clicked_name,instruction_pages.thisRepN,instruction_pages.thisTrialN,instruction_pages.thisN,instruction_pages.thisIndex,instruction_pages.ran,pageN,phase,instruct_text,has_image,instruct_image,participant,date,expName,psychopyVersion,OS,frameRate,instr_done_keyboard.rt,response.keys,response.corr,response.rt,touch_resp.x,touch_resp.y,touch_resp.leftButton,touch_resp.midButton,touch_resp.rightButton,touch_resp.time,touch_resp.clicked_name,rt,corr,practice_trials.thisRepN,practice_trials.thisTrialN,practice_trials.thisN,practice_trials.thisIndex,practice_trials.ran,TrialID,StimulusType,Condition,PrimeDuration,Prime,Target,corrAns,end_of_practice_trials_pages.thisRepN,end_of_practice_trials_pages.thisTrialN,end_of_practice_trials_pages.thisN,end_of_practice_trials_pages.thisIndex,end_of_practice_trials_pages.ran,break_done_touch.x,break_done_touch.y,break_done_touch.leftButton,break_done_touch.midButton,break_done_touch.rightButton,break_done_keyboard.keys,trials.thisRepN,trials.thisTrialN,trials.thisN,trials.thisIndex,trials.ran,break_done_keyboard.rt
1,,0.083333333,-0.390740741,1,0,0,instr_done_button,0,0,0,0,1,1,instructions,"INSTRUCTIONS
At the start of each trial, look at the hash marks (######) in the center of the screen. After a moment, a string of letters will appear. Your task is to indicate if the letter string forms a word or not (i.e., if it is a nonword). For example, AUTHOR is a word while AUTHON is a nonword.

Press the space bar or touch the button below to continue.",0,,5e94627fbd18cc000995584c,2020-08-10_11h24.23.384,lexical_decision_task_MP,2020.1.3,Win32,60,,,,,,,,,,,,,,,,,,,,,,,,,,,,,,,,,,,,,,,,,,
,space,-0.180555556,-0.391666667,0,0,0,,0,1,1,1,1,2,instructions,"If your device has a keyboard, press the 'Z' key for nonwords and the 'M' key for words.





Press the space bar or touch the button below to continue.",1,keyboard-example.gif,5e94627fbd18cc000995584c,2020-08-10_11h24.23.384,lexical_decision_task_MP,2020.1.3,Win32,60,13.64149,,,,,,,,,,,,,,,,,,,,,,,,,,,,,,,,,,,,,,,,,
,space,-0.180555556,-0.391666667,0,0,0,,0,2,2,2,1,3,instructions,"If you are using a touchscreen only device, use the buttons on the screen. Do not use the mouse.





Press the space bar or touch the button below to continue.",1,touchscreen-example.gif,5e94627fbd18cc000995584c,2020-08-10_11h24.23.384,lexical_decision_task_MP,2020.1.3,Win32,60,8.037275,,,,,,,,,,,,,,,,,,,,,,,,,,,,,,,,,,,,,,,,,
,space,-0.180555556,-0.391666667,0,0,0,,0,3,3,3,1,4,instructions,"It is very important that you respond as quickly and accurately as possible, as each letter string will only be on the screen for two seconds. If you do not respond within this time, the message 'Too slow!' will be displayed and the experiment will progress to the next letter string. The first 20 trials will be practice trials and you will receive feedback on your answers. 

Press the space bar or touch the button below to start the practice trials.",0,,5e94627fbd18cc000995584c,2020-08-10_11h24.23.384,lexical_decision_task_MP,2020.1.3,Win32,60,4.172525,,,,,,,,,,,,,,,,,,,,,,,,,,,,,,,,,,,,,,,,,
,,,,,,,,,,,,,,,,,,5e94627fbd18cc000995584c,2020-08-10_11h24.23.384,lexical_decision_task_MP,2020.1.3,Win32,60,,m,1,0.786605,,,,,,,,0.786605,1,0,0,0,3,1,1004,WORD,"ID",50,matrix,MATRIX,m,,,,,,,,,,,,,,,,,
,,,,,,,,,,,,,,,,,,5e94627fbd18cc000995584c,2020-08-10_11h24.23.384,lexical_decision_task_MP,2020.1.3,Win32,60,,z,1,0.66372,,,,,,,,0.66372,1,0,1,1,15,1,1016,NW,UN,50,mushed,WHAISE,z,,,,,,,,,,,,,,,,,
,,,,,,,,,,,,,,,,,,5e94627fbd18cc000995584c,2020-08-10_11h24.23.384,lexical_decision_task_MP,2020.1.3,Win32,60,,z,1,0.66088,,,,,,,,0.66088,1,0,2,2,12,1,1013,NW,UN,33,adveil,SPRINY,z,,,,,,,,,,,,,,,,,
,,,,,,,,,,,,,,,,,,5e94627fbd18cc000995584c,2020-08-10_11h24.23.384,lexical_decision_task_MP,2020.1.3,Win32,60,,m,1,0.615805,,,,,,,,0.615805,1,0,3,3,1,1,1002,WORD,"ID",33,adjust,ADJUST,m,,,,,,,,,,,,,,,,,
,,,,,,,,,,,,,,,,,,5e94627fbd18cc000995584c,2020-08-10_11h24.23.384,lexical_decision_task_MP,2020.1.3,Win32,60,,m,1,0.53394,,,,,,,,0.53394,1,0,4,4,6,1,1007,WORD,UN,50,tropic,ZOMBIE,m,,,,,,,,,,,,,,,,,
,,,,,,,,,,,,,,,,,,5e94627fbd18cc000995584c,2020-08-10_11h24.23.384,lexical_decision_task_MP,2020.1.3,Win32,60,,z,1,0.773565,,,,,,,,0.773565,1,0,5,5,13,1,1014,NW,UN,33,winfer,ROUPET,z,,,,,,,,,,,,,,,,,
,,,,,,,,,,,,,,,,,,5e94627fbd18cc000995584c,2020-08-10_11h24.23.384,lexical_decision_task_MP,2020.1.3,Win32,60,,m,1,0.685435,,,,,,,,0.685435,1,0,6,6,0,1,1001,WORD,"ID",33,utopia,UTOPIA,m,,,,,,,,,,,,,,,,,
,,,,,,,,,,,,,,,,,,5e94627fbd18cc000995584c,2020-08-10_11h24.23.384,lexical_decision_task_MP,2020.1.3,Win32,60,,m,1,0.6358,,,,,,,,0.6358,1,0,7,7,5,1,1006,WORD,UN,33,frenzy,OBTAIN,m,,,,,,,,,,,,,,,,,
,,,,,,,,,,,,,,,,,,5e94627fbd18cc000995584c,2020-08-10_11h24.23.384,lexical_decision_task_MP,2020.1.3,Win32,60,,z,1,1.23468,,,,,,,,1.23468,1,0,8,8,9,1,1010,NW,"ID",33,fariny,FARINY,z,,,,,,,,,,,,,,,,,
,,,,,,,,,,,,,,,,,,5e94627fbd18cc000995584c,2020-08-10_11h24.23.384,lexical_decision_task_MP,2020.1.3,Win32,60,,z,1,0.686825,,,,,,,,0.686825,1,0,9,9,10,1,1011,NW,"ID",50,inlade,INLADE,z,,,,,,,,,,,,,,,,,
,,,,,,,,,,,,,,,,,,5e94627fbd18cc000995584c,2020-08-10_11h24.23.384,lexical_decision_task_MP,2020.1.3,Win32,60,,z,1,0.63347,,,,,,,,0.63347,1,0,10,10,14,1,1015,NW,UN,50,miaber,THRALE,z,,,,,,,,,,,,,,,,,
,,,,,,,,,,,,,,,,,,5e94627fbd18cc000995584c,2020-08-10_11h24.23.384,lexical_decision_task_MP,2020.1.3,Win32,60,,m,1,0.542565,,,,,,,,0.542565,1,0,11,11,7,1,1008,WORD,UN,50,hurdle,VOLUME,m,,,,,,,,,,,,,,,,,
,,,,,,,,,,,,,,,,,,5e94627fbd18cc000995584c,2020-08-10_11h24.23.384,lexical_decision_task_MP,2020.1.3,Win32,60,,z,1,0.69878,,,,,,,,0.69878,1,0,12,12,8,1,1009,NW,"ID",33,aslert,ASLERT,z,,,,,,,,,,,,,,,,,
,,,,,,,,,,,,,,,,,,5e94627fbd18cc000995584c,2020-08-10_11h24.23.384,lexical_decision_task_MP,2020.1.3,Win32,60,,m,1,1.324595,,,,,,,,1.324595,1,0,13,13,2,1,1003,WORD,"ID",50,almond,ALMOND,m,,,,,,,,,,,,,,,,,
,,,,,,,,,,,,,,,,,,5e94627fbd18cc000995584c,2020-08-10_11h24.23.384,lexical_decision_task_MP,2020.1.3,Win32,60,,m,1,0.800685,,,,,,,,0.800685,1,0,14,14,4,1,1005,WORD,UN,33,abound,SQUEAK,m,,,,,,,,,,,,,,,,,
,,,,,,,,,,,,,,,,,,5e94627fbd18cc000995584c,2020-08-10_11h24.23.384,lexical_decision_task_MP,2020.1.3,Win32,60,,z,1,0.58555,,,,,,,,0.58555,1,0,15,15,11,1,1012,NW,"ID",50,rashet,RASHET,z,,,,,,,,,,,,,,,,,
,,0.008333333,-0.410185185,1,0,0,instr_done_button,,,,,,1,end_of_practice,"You have completed the practice trials. During the experimental trials, you will not receive feedback, but it is very important that you respond as quickly and accurately as possible. 
Before you begin, please ensure that you are in a comfortable and quiet location and will not be disturbed for about 15 minutes, as we cannot use your data if you do not complete all the trials. 
There will be opportunities to take breaks at regular intervals during the experiment. When you are ready to start the experimental trials, please press space or touch the button below.",,,5e94627fbd18cc000995584c,2020-08-10_11h24.23.384,lexical_decision_task_MP,2020.1.3,Win32,60,,,,,,,,,,,,,,,,,,,,,,,,,,0,0,0,0,1,,,,,,,,,,,,
,,,,,,,,,,,,,,,,,,5e94627fbd18cc000995584c,2020-08-10_11h24.23.384,lexical_decision_task_MP,2020.1.3,Win32,60,,m,1,1.175335,,,,,,,,1.175335,1,,,,,,187,WORD,UN,50,social,COURSE,m,,,,,,0.008333333,-0.402777778,0,0,0,,0,0,0,186,1,
,,,,,,,,,,,,,,,,,,5e94627fbd18cc000995584c,2020-08-10_11h24.23.384,lexical_decision_task_MP,2020.1.3,Win32,60,,z,1,1.917835,,,,,,,,1.917835,1,,,,,,311,NW,"ID",50,sproly,SPROLY,z,,,,,,0.008333333,-0.402777778,0,0,0,,0,1,1,310,1,
,,,,,,,,,,,,,,,,,,5e94627fbd18cc000995584c,2020-08-10_11h24.23.384,lexical_decision_task_MP,2020.1.3,Win32,60,,m,1,0.662925,,,,,,,,0.662925,1,,,,,,149,WORD,UN,33,random,INVADE,m,,,,,,0.008333333,-0.402777778,0,0,0,,0,2,2,148,1,
,,,,,,,,,,,,,,,,,,5e94627fbd18cc000995584c,2020-08-10_11h24.23.384,lexical_decision_task_MP,2020.1.3,Win32,60,,z,1,0.592715,,,,,,,,0.592715,1,,,,,,350,NW,"ID",50,nagurs,NAGURS,z,,,,,,0.008333333,-0.402777778,0,0,0,,0,3,3,349,1,
,,,,,,,,,,,,,,,,,,5e94627fbd18cc000995584c,2020-08-10_11h24.23.384,lexical_decision_task_MP,2020.1.3,Win32,60,,m,1,0.553875,,,,,,,,0.553875,1,,,,,,238,WORD,UN,50,grumpy,FLOWER,m,,,,,,0.008333333,-0.402777778,0,0,0,,0,4,4,237,1,
,,,,,,,,,,,,,,,,,,5e94627fbd18cc000995584c,2020-08-10_11h24.23.384,lexical_decision_task_MP,2020.1.3,Win32,60,,z,1,0.55342,,,,,,,,0.55342,1,,,,,,399,NW,UN,33,wearox,FOURET,z,,,,,,0.008333333,-0.402777778,0,0,0,,0,5,5,398,1,
,,,,,,,,,,,,,,,,,,5e94627fbd18cc000995584c,2020-08-10_11h24.23.384,lexical_decision_task_MP,2020.1.3,Win32,60,,m,1,0.68036,,,,,,,,0.68036,1,,,,,,22,WORD,"ID",33,jockey,JOCKEY,m,,,,,,0.008333333,-0.402777778,0,0,0,,0,6,6,21,1,
,,,,,,,,,,,,,,,,,,5e94627fbd18cc000995584c,2020-08-10_11h24.23.384,lexical_decision_task_MP,2020.1.3,Win32,60,,z,1,0.66941,,,,,,,,0.66941,1,,,,,,442,NW,UN,50,dorsex,ABOUNE,z,,,,,,0.008333333,-0.402777778,0,0,0,,0,7,7,441,1,
,,,,,,,,,,,,,,,,,,5e94627fbd18cc000995584c,2020-08-10_11h24.23.384,lexical_decision_task_MP,2020.1.3,Win32,60,,z,1,0.6494,,,,,,,,0.6494,1,,,,,,359,NW,"ID",50,fonver,FONVER,z,,,,,,0.008333333,-0.402777778,0,0,0,,0,8,8,358,1,
,,,,,,,,,,,,,,,,,,5e94627fbd18cc000995584c,2020-08-10_11h24.23.384,lexical_decision_task_MP,2020.1.3,Win32,60,,z,1,0.548995,,,,,,,,0.548995,1,,,,,,254,NW,"ID",33,varosh,VAROSH,z,,,,,,0.008333333,-0.402777778,0,0,0,,0,9,9,253,1,
,,,,,,,,,,,,,,,,,,5e94627fbd18cc000995584c,2020-08-10_11h24.23.384,lexical_decision_task_MP,2020.1.3,Win32,60,,z,1,0.684435,,,,,,,,0.684435,1,,,,,,338,NW,"ID",50,wreash,WREASH,z,,,,,,0.008333333,-0.402777778,0,0,0,,0,10,10,337,1,
,,,,,,,,,,,,,,,,,,5e94627fbd18cc000995584c,2020-08-10_11h24.23.384,lexical_decision_task_MP,2020.1.3,Win32,60,,m,1,0.585145,,,,,,,,0.585145,1,,,,,,26,WORD,"ID",33,sprint,SPRINT,m,,,,,,0.008333333,-0.402777778,0,0,0,,0,11,11,25,1,
,,,,,,,,,,,,,,,,,,5e94627fbd18cc000995584c,2020-08-10_11h24.23.384,lexical_decision_task_MP,2020.1.3,Win32,60,,m,1,0.58317,,,,,,,,0.58317,1,,,,,,188,WORD,UN,50,censor,SOCIAL,m,,,,,,0.008333333,-0.402777778,0,0,0,,0,12,12,187,1,
,,,,,,,,,,,,,,,,,,5e94627fbd18cc000995584c,2020-08-10_11h24.23.384,lexical_decision_task_MP,2020.1.3,Win32,60,,z,1,0.507215,,,,,,,,0.507215,1,,,,,,436,NW,UN,50,snapel,FRUTAN,z,,,,,,0.008333333,-0.402777778,0,0,0,,0,13,13,435,1,
,,,,,,,,,,,,,,,,,,5e94627fbd18cc000995584c,2020-08-10_11h24.23.384,lexical_decision_task_MP,2020.1.3,Win32,60,,m,1,0.59584,,,,,,,,0.59584,1,,,,,,232,WORD,UN,50,nature,INJECT,m,,,,,,0.008333333,-0.402777778,0,0,0,,0,14,14,231,1,
,,,,,,,,,,,,,,,,,,5e94627fbd18cc000995584c,2020-08-10_11h24.23.384,lexical_decision_task_MP,2020.1.3,Win32,60,,z,1,0.53028,,,,,,,,0.53028,1,,,,,,397,NW,UN,33,blunde,CAMBLE,z,,,,,,0.008333333,-0.402777778,0,0,0,,0,15,15,396,1,
,,,,,,,,,,,,,,,,,,5e94627fbd18cc000995584c,2020-08-10_11h24.23.384,lexical_decision_task_MP,2020.1.3,Win32,60,,z,1,0.58201,,,,,,,,0.58201,1,,,,,,441,NW,UN,50,aboune,RASTOE,z,,,,,,0.008333333,-0.402777778,0,0,0,,0,16,16,440,1,
,,,,,,,,,,,,,,,,,,5e94627fbd18cc000995584c,2020-08-10_11h24.23.384,lexical_decision_task_MP,2020.1.3,Win32,60,,z,1,0.55544,,,,,,,,0.55544,1,,,,,,255,NW,"ID",33,apight,APIGHT,z,,,,,,0.008333333,-0.402777778,0,0,0,,0,17,17,254,1,
,,,,,,,,,,,,,,,,,,5e94627fbd18cc000995584c,2020-08-10_11h24.23.384,lexical_decision_task_MP,2020.1.3,Win32,60,,m,1,0.532015,,,,,,,,0.532015,1,,,,,,76,WORD,"ID",50,exotic,EXOTIC,m,,,,,,0.008333333,-0.402777778,0,0,0,,0,18,18,75,1,
,,,,,,,,,,,,,,,,,,5e94627fbd18cc000995584c,2020-08-10_11h24.23.384,lexical_decision_task_MP,2020.1.3,Win32,60,,m,1,0.70384,,,,,,,,0.70384,1,,,,,,54,WORD,"ID",33,ramble,RAMBLE,m,,,,,,0.008333333,-0.402777778,0,0,0,,0,19,19,53,1,
,,,,,,,,,,,,,,,,,,5e94627fbd18cc000995584c,2020-08-10_11h24.23.384,lexical_decision_task_MP,2020.1.3,Win32,60,,m,1,0.539675,,,,,,,,0.539675,1,,,,,,89,WORD,"ID",50,permit,PERMIT,m,,,,,,0.008333333,-0.402777778,0,0,0,,0,20,20,88,1,
,,,,,,,,,,,,,,,,,,5e94627fbd18cc000995584c,2020-08-10_11h24.23.384,lexical_decision_task_MP,2020.1.3,Win32,60,,z,1,0.56166,,,,,,,,0.56166,1,,,,,,280,NW,"ID",33,curbol,CURBOL,z,,,,,,0.008333333,-0.402777778,0,0,0,,0,21,21,279,1,
,,,,,,,,,,,,,,,,,,5e94627fbd18cc000995584c,2020-08-10_11h24.23.384,lexical_decision_task_MP,2020.1.3,Win32,60,,m,1,0.56642,,,,,,,,0.56642,1,,,,,,49,WORD,"ID",33,survey,SURVEY,m,,,,,,0.008333333,-0.402777778,0,0,0,,0,22,22,48,1,
,,,,,,,,,,,,,,,,,,5e94627fbd18cc000995584c,2020-08-10_11h24.23.384,lexical_decision_task_MP,2020.1.3,Win32,60,,z,1,0.541125,,,,,,,,0.541125,1,,,,,,265,NW,"ID",33,distar,DISTAR,z,,,,,,0.008333333,-0.402777778,0,0,0,,0,23,23,264,1,
,,,,,,,,,,,,,,,,,,5e94627fbd18cc000995584c,2020-08-10_11h24.23.384,lexical_decision_task_MP,2020.1.3,Win32,60,,m,1,0.49164,,,,,,,,0.49164,1,,,,,,97,WORD,"ID",50,client,CLIENT,m,,,,,,0.008333333,-0.402777778,0,0,0,,0,24,24,96,1,
,,,,,,,,,,,,,,,,,,5e94627fbd18cc000995584c,2020-08-10_11h24.23.384,lexical_decision_task_MP,2020.1.3,Win32,60,,m,1,0.54293,,,,,,,,0.54293,1,,,,,,200,WORD,UN,50,admire,BEACON,m,,,,,,0.008333333,-0.402777778,0,0,0,,0,25,25,199,1,
,,,,,,,,,,,,,,,,,,5e94627fbd18cc000995584c,2020-08-10_11h24.23.384,lexical_decision_task_MP,2020.1.3,Win32,60,,z,1,0.78867,,,,,,,,0.78867,1,,,,,,402,NW,UN,33,bruats,SYNTIC,z,,,,,,0.008333333,-0.402777778,0,0,0,,0,26,26,401,1,
,,,,,,,,,,,,,,,,,,5e94627fbd18cc000995584c,2020-08-10_11h24.23.384,lexical_decision_task_MP,2020.1.3,Win32,60,,z,1,0.662305,,,,,,,,0.662305,1,,,,,,288,NW,"ID",33,yaceup,YACEUP,z,,,,,,0.008333333,-0.402777778,0,0,0,,0,27,27,287,1,
,,,,,,,,,,,,,,,,,,5e94627fbd18cc000995584c,2020-08-10_11h24.23.384,lexical_decision_task_MP,2020.1.3,Win32,60,,z,1,0.610795,,,,,,,,0.610795,1,,,,,,379,NW,UN,33,cavory,AUTING,z,,,,,,0.008333333,-0.402777778,0,0,0,,0,28,28,378,1,
,,,,,,,,,,,,,,,,,,5e94627fbd18cc000995584c,2020-08-10_11h24.23.384,lexical_decision_task_MP,2020.1.3,Win32,60,,m,1,0.609505,,,,,,,,0.609505,1,,,,,,186,WORD,UN,50,course,PORTAL,m,,,,,,0.008333333,-0.402777778,0,0,0,,0,29,29,185,1,
,,,,,,,,,,,,,,,,,,5e94627fbd18cc000995584c,2020-08-10_11h24.23.384,lexical_decision_task_MP,2020.1.3,Win32,60,,z,1,0.58543,,,,,,,,0.58543,1,,,,,,464,NW,UN,50,whivex,CHAITE,z,,,,,,0.008333333,-0.402777778,0,0,0,,0,30,30,463,1,
,,,,,,,,,,,,,,,,,,5e94627fbd18cc000995584c,2020-08-10_11h24.23.384,lexical_decision_task_MP,2020.1.3,Win32,60,,z,1,0.566525,,,,,,,,0.566525,1,,,,,,471,NW,UN,50,cigney,NOBEST,z,,,,,,0.008333333,-0.402777778,0,0,0,,0,31,31,470,1,
,,,,,,,,,,,,,,,,,,5e94627fbd18cc000995584c,2020-08-10_11h24.23.384,lexical_decision_task_MP,2020.1.3,Win32,60,,m,1,0.6668,,,,,,,,0.6668,1,,,,,,201,WORD,UN,50,factor,ADMIRE,m,,,,,,0.008333333,-0.402777778,0,0,0,,0,32,32,200,1,
,,,,,,,,,,,,,,,,,,5e94627fbd18cc000995584c,2020-08-10_11h24.23.384,lexical_decision_task_MP,2020.1.3,Win32,60,,z,1,0.62678,,,,,,,,0.62678,1,,,,,,380,NW,UN,33,huniek,CAVORY,z,,,,,,0.008333333,-0.402777778,0,0,0,,0,33,33,379,1,
,,,,,,,,,,,,,,,,,,5e94627fbd18cc000995584c,2020-08-10_11h24.23.384,lexical_decision_task_MP,2020.1.3,Win32,60,,m,1,0.545695,,,,,,,,0.545695,1,,,,,,79,WORD,"ID",50,theory,THEORY,m,,,,,,0.008333333,-0.402777778,0,0,0,,0,34,34,78,1,
,,,,,,,,,,,,,,,,,,5e94627fbd18cc000995584c,2020-08-10_11h24.23.384,lexical_decision_task_MP,2020.1.3,Win32,60,,z,0,0.4895,,,,,,,,0.4895,0,,,,,,226,WORD,UN,50,flower,CASINO,m,,,,,,0.008333333,-0.402777778,0,0,0,,0,35,35,225,1,
,,,,,,,,,,,,,,,,,,5e94627fbd18cc000995584c,2020-08-10_11h24.23.384,lexical_decision_task_MP,2020.1.3,Win32,60,,m,1,0.530365,,,,,,,,0.530365,1,,,,,,153,WORD,UN,33,author,BEHOLD,m,,,,,,0.008333333,-0.402777778,0,0,0,,0,36,36,152,1,
,,,,,,,,,,,,,,,,,,5e94627fbd18cc000995584c,2020-08-10_11h24.23.384,lexical_decision_task_MP,2020.1.3,Win32,60,,z,1,0.448085,,,,,,,,0.448085,1,,,,,,428,NW,UN,50,chrums,TANDLY,z,,,,,,0.008333333,-0.402777778,0,0,0,,0,37,37,427,1,
,,,,,,,,,,,,,,,,,,5e94627fbd18cc000995584c,2020-08-10_11h24.23.384,lexical_decision_task_MP,2020.1.3,Win32,60,,z,1,0.62904,,,,,,,,0.62904,1,,,,,,432,NW,UN,50,drance,LUNKER,z,,,,,,0.008333333,-0.402777778,0,0,0,,0,38,38,431,1,
,,,,,,,,,,,,,,,,,,5e94627fbd18cc000995584c,2020-08-10_11h24.23.384,lexical_decision_task_MP,2020.1.3,Win32,60,,m,1,0.563895,,,,,,,,0.563895,1,,,,,,144,WORD,UN,33,parish,SPONGE,m,,,,,,0.008333333,-0.402777778,0,0,0,,0,39,39,143,1,
,,,,,,,,,,,,,,,,,,5e94627fbd18cc000995584c,2020-08-10_11h24.23.384,lexical_decision_task_MP,2020.1.3,Win32,60,,m,1,0.65576,,,,,,,,0.65576,1,,,,,,110,WORD,"ID",50,polite,POLITE,m,,,,,,0.008333333,-0.402777778,0,0,0,,0,40,40,109,1,
,,,,,,,,,,,,,,,,,,5e94627fbd18cc000995584c,2020-08-10_11h24.23.384,lexical_decision_task_MP,2020.1.3,Win32,60,,m,1,0.573925,,,,,,,,0.573925,1,,,,,,119,WORD,"ID",50,spider,SPIDER,m,,,,,,0.008333333,-0.402777778,0,0,0,,0,41,41,118,1,
,,,,,,,,,,,,,,,,,,5e94627fbd18cc000995584c,2020-08-10_11h24.23.384,lexical_decision_task_MP,2020.1.3,Win32,60,,m,1,0.5705,,,,,,,,0.5705,1,,,,,,24,WORD,"ID",33,praise,PRAISE,m,,,,,,0.008333333,-0.402777778,0,0,0,,0,42,42,23,1,
,,,,,,,,,,,,,,,,,,5e94627fbd18cc000995584c,2020-08-10_11h24.23.384,lexical_decision_task_MP,2020.1.3,Win32,60,,z,1,0.585155,,,,,,,,0.585155,1,,,,,,353,NW,"ID",50,clurey,CLUREY,z,,,,,,0.008333333,-0.402777778,0,0,0,,0,43,43,352,1,
,,,,,,,,,,,,,,,,,,5e94627fbd18cc000995584c,2020-08-10_11h24.23.384,lexical_decision_task_MP,2020.1.3,Win32,60,,z,1,0.58953,,,,,,,,0.58953,1,,,,,,308,NW,"ID",50,psetch,PSETCH,z,,,,,,0.008333333,-0.402777778,0,0,0,,0,44,44,307,1,
,,,,,,,,,,,,,,,,,,5e94627fbd18cc000995584c,2020-08-10_11h24.23.384,lexical_decision_task_MP,2020.1.3,Win32,60,,m,1,0.588435,,,,,,,,0.588435,1,,,,,,223,WORD,UN,50,period,KIDNEY,m,,,,,,0.008333333,-0.402777778,0,0,0,,0,45,45,222,1,
,,,,,,,,,,,,,,,,,,5e94627fbd18cc000995584c,2020-08-10_11h24.23.384,lexical_decision_task_MP,2020.1.3,Win32,60,,m,1,0.56781,,,,,,,,0.56781,1,,,,,,75,WORD,"ID",50,trophy,TROPHY,m,,,,,,0.008333333,-0.402777778,0,0,0,,0,46,46,74,1,
,,,,,,,,,,,,,,,,,,5e94627fbd18cc000995584c,2020-08-10_11h24.23.384,lexical_decision_task_MP,2020.1.3,Win32,60,,z,1,0.702035,,,,,,,,0.702035,1,,,,,,262,NW,"ID",33,quilew,QUILEW,z,,,,,,0.008333333,-0.402777778,0,0,0,,0,47,47,261,1,
,,,,,,,,,,,,,,,,,,5e94627fbd18cc000995584c,2020-08-10_11h24.23.384,lexical_decision_task_MP,2020.1.3,Win32,60,,z,1,0.80413,,,,,,,,0.80413,1,,,,,,376,NW,UN,33,sliant,IGUARE,z,,,,,,0.008333333,-0.402777778,0,0,0,,0,48,48,375,1,
,,,,,,,,,,,,,,,,,,5e94627fbd18cc000995584c,2020-08-10_11h24.23.384,lexical_decision_task_MP,2020.1.3,Win32,60,,m,1,0.64557,,,,,,,,0.64557,1,,,,,,154,WORD,UN,33,lizard,AUTHOR,m,,,,,,0.008333333,-0.402777778,0,0,0,,0,49,49,153,1,
,,,,,,,,,,,,,,,,,,5e94627fbd18cc000995584c,2020-08-10_11h24.23.384,lexical_decision_task_MP,2020.1.3,Win32,60,,m,1,0.67733,,,,,,,,0.67733,1,,,,,,50,WORD,"ID",33,snatch,SNATCH,m,,,,,,0.008333333,-0.402777778,0,0,0,,0,50,50,49,1,
,,,,,,,,,,,,,,,,,,5e94627fbd18cc000995584c,2020-08-10_11h24.23.384,lexical_decision_task_MP,2020.1.3,Win32,60,,m,1,0.709225,,,,,,,,0.709225,1,,,,,,212,WORD,UN,50,squeal,VERIFY,m,,,,,,0.008333333,-0.402777778,0,0,0,,0,51,51,211,1,
,,,,,,,,,,,,,,,,,,5e94627fbd18cc000995584c,2020-08-10_11h24.23.384,lexical_decision_task_MP,2020.1.3,Win32,60,,z,1,0.76691,,,,,,,,0.76691,1,,,,,,374,NW,UN,33,yorque,SLIANT,z,,,,,,0.008333333,-0.402777778,0,0,0,,0,52,52,373,1,
,,,,,,,,,,,,,,,,,,5e94627fbd18cc000995584c,2020-08-10_11h24.23.384,lexical_decision_task_MP,2020.1.3,Win32,60,,m,1,0.60831,,,,,,,,0.60831,1,,,,,,204,WORD,UN,50,lounge,BURDEN,m,,,,,,0.008333333,-0.402777778,0,0,0,,0,53,53,203,1,
,,,,,,,,,,,,,,,,,,5e94627fbd18cc000995584c,2020-08-10_11h24.23.384,lexical_decision_task_MP,2020.1.3,Win32,60,,m,1,0.576455,,,,,,,,0.576455,1,,,,,,65,WORD,"ID",50,symbol,SYMBOL,m,,,,,,0.008333333,-0.402777778,0,0,0,,0,54,54,64,1,
,,,,,,,,,,,,,,,,,,5e94627fbd18cc000995584c,2020-08-10_11h24.23.384,lexical_decision_task_MP,2020.1.3,Win32,60,,z,1,0.57211,,,,,,,,0.57211,1,,,,,,302,NW,"ID",50,miluer,MILUER,z,,,,,,0.008333333,-0.402777778,0,0,0,,0,55,55,301,1,
,,,,,,,,,,,,,,,,,,5e94627fbd18cc000995584c,2020-08-10_11h24.23.384,lexical_decision_task_MP,2020.1.3,Win32,60,,m,0,0.653795,,,,,,,,0.653795,0,,,,,,383,NW,UN,33,guesco,AUNGRE,z,,,,,,0.008333333,-0.402777778,0,0,0,,0,56,56,382,1,
,,,,,,,,,,,,,,,,,,5e94627fbd18cc000995584c,2020-08-10_11h24.23.384,lexical_decision_task_MP,2020.1.3,Win32,60,,z,1,0.866455,,,,,,,,0.866455,1,,,,,,330,NW,"ID",50,kensom,KENSOM,z,,,,,,0.008333333,-0.402777778,0,0,0,,0,57,57,329,1,
,,,,,,,,,,,,,,,,,,5e94627fbd18cc000995584c,2020-08-10_11h24.23.384,lexical_decision_task_MP,2020.1.3,Win32,60,,z,1,1.025515,,,,,,,,1.025515,1,,,,,,291,NW,"ID",33,pretch,PRETCH,z,,,,,,0.008333333,-0.402777778,0,0,0,,0,58,58,290,1,
,,,,,,,,,,,,,,,,,,5e94627fbd18cc000995584c,2020-08-10_11h24.23.384,lexical_decision_task_MP,2020.1.3,Win32,60,,z,1,0.62461,,,,,,,,0.62461,1,,,,,,282,NW,"ID",33,porlex,PORLEX,z,,,,,,0.008333333,-0.402777778,0,0,0,,0,59,59,281,1,
,,,,,,,,,,,,,,,,,,5e94627fbd18cc000995584c,2020-08-10_11h24.23.384,lexical_decision_task_MP,2020.1.3,Win32,60,,m,1,0.628935,,,,,,,,0.628935,1,,,,,,7,WORD,"ID",33,anchor,ANCHOR,m,,,,,,0.008333333,-0.402777778,0,0,0,,0,60,60,6,1,
,,,,,,,,,,,,,,,,,,5e94627fbd18cc000995584c,2020-08-10_11h24.23.384,lexical_decision_task_MP,2020.1.3,Win32,60,,z,1,0.799395,,,,,,,,0.799395,1,,,,,,276,NW,"ID",33,yarmon,YARMON,z,,,,,,0.008333333,-0.402777778,0,0,0,,0,61,61,275,1,
,,,,,,,,,,,,,,,,,,5e94627fbd18cc000995584c,2020-08-10_11h24.23.384,lexical_decision_task_MP,2020.1.3,Win32,60,,z,1,0.764195,,,,,,,,0.764195,1,,,,,,305,NW,"ID",50,forgle,FORGLE,z,,,,,,0.008333333,-0.402777778,0,0,0,,0,62,62,304,1,
,,,,,,,,,,,,,,,,,,5e94627fbd18cc000995584c,2020-08-10_11h24.23.384,lexical_decision_task_MP,2020.1.3,Win32,60,,m,1,0.561015,,,,,,,,0.561015,1,,,,,,209,WORD,UN,50,monkey,SEARCH,m,,,,,,0.008333333,-0.402777778,0,0,0,,0,63,63,208,1,
,,,,,,,,,,,,,,,,,,5e94627fbd18cc000995584c,2020-08-10_11h24.23.384,lexical_decision_task_MP,2020.1.3,Win32,60,,m,1,0.530035,,,,,,,,0.530035,1,,,,,,96,WORD,"ID",50,ignore,IGNORE,m,,,,,,0.008333333,-0.402777778,0,0,0,,0,64,64,95,1,
,,,,,,,,,,,,,,,,,,5e94627fbd18cc000995584c,2020-08-10_11h24.23.384,lexical_decision_task_MP,2020.1.3,Win32,60,,z,1,0.643005,,,,,,,,0.643005,1,,,,,,415,NW,UN,33,pathel,HIGSTA,z,,,,,,0.008333333,-0.402777778,0,0,0,,0,65,65,414,1,
,,,,,,,,,,,,,,,,,,5e94627fbd18cc000995584c,2020-08-10_11h24.23.384,lexical_decision_task_MP,2020.1.3,Win32,60,,m,1,0.59556,,,,,,,,0.59556,1,,,,,,10,WORD,"ID",33,ethnic,ETHNIC,m,,,,,,0.008333333,-0.402777778,0,0,0,,0,66,66,9,1,
,,,,,,,,,,,,,,,,,,5e94627fbd18cc000995584c,2020-08-10_11h24.23.384,lexical_decision_task_MP,2020.1.3,Win32,60,,z,1,0.804625,,,,,,,,0.804625,1,,,,,,334,NW,"ID",50,watmeg,WATMEG,z,,,,,,0.008333333,-0.402777778,0,0,0,,0,67,67,333,1,
,,,,,,,,,,,,,,,,,,5e94627fbd18cc000995584c,2020-08-10_11h24.23.384,lexical_decision_task_MP,2020.1.3,Win32,60,,z,1,0.597595,,,,,,,,0.597595,1,,,,,,474,NW,UN,50,gorbie,HABLIN,z,,,,,,0.008333333,-0.402777778,0,0,0,,0,68,68,473,1,
,,,,,,,,,,,,,,,,,,5e94627fbd18cc000995584c,2020-08-10_11h24.23.384,lexical_decision_task_MP,2020.1.3,Win32,60,,m,1,0.55406,,,,,,,,0.55406,1,,,,,,133,WORD,UN,33,debris,CHROME,m,,,,,,0.008333333,-0.402777778,0,0,0,,0,69,69,132,1,
,,,,,,,,,,,,,,,,,,5e94627fbd18cc000995584c,2020-08-10_11h24.23.384,lexical_decision_task_MP,2020.1.3,Win32,60,,m,1,0.58727,,,,,,,,0.58727,1,,,,,,17,WORD,"ID",33,charge,CHARGE,m,,,,,,0.008333333,-0.402777778,0,0,0,,0,70,70,16,1,
,,,,,,,,,,,,,,,,,,5e94627fbd18cc000995584c,2020-08-10_11h24.23.384,lexical_decision_task_MP,2020.1.3,Win32,60,,z,1,0.48181,,,,,,,,0.48181,1,,,,,,412,NW,UN,33,equats,JILUER,z,,,,,,0.008333333,-0.402777778,0,0,0,,0,71,71,411,1,
,,,,,,,,,,,,,,,,,,5e94627fbd18cc000995584c,2020-08-10_11h24.23.384,lexical_decision_task_MP,2020.1.3,Win32,60,,z,1,0.601615,,,,,,,,0.601615,1,,,,,,425,NW,UN,50,schind,FRUDGE,z,,,,,,0.008333333,-0.402777778,0,0,0,,0,72,72,424,1,
,,,,,,,,,,,,,,,,,,5e94627fbd18cc000995584c,2020-08-10_11h24.23.384,lexical_decision_task_MP,2020.1.3,Win32,60,,m,1,0.57017,,,,,,,,0.57017,1,,,,,,15,WORD,"ID",33,amount,AMOUNT,m,,,,,,0.008333333,-0.402777778,0,0,0,,0,73,73,14,1,
,,,,,,,,,,,,,,,,,,5e94627fbd18cc000995584c,2020-08-10_11h24.23.384,lexical_decision_task_MP,2020.1.3,Win32,60,,m,1,0.61803,,,,,,,,0.61803,1,,,,,,115,WORD,"ID",50,guitar,GUITAR,m,,,,,,0.008333333,-0.402777778,0,0,0,,0,74,74,114,1,
,,,,,,,,,,,,,,,,,,5e94627fbd18cc000995584c,2020-08-10_11h24.23.384,lexical_decision_task_MP,2020.1.3,Win32,60,,z,1,0.73361,,,,,,,,0.73361,1,,,,,,313,NW,"ID",50,paurse,PAURSE,z,,,,,,0.008333333,-0.402777778,0,0,0,,0,75,75,312,1,
,,,,,,,,,,,,,,,,,,5e94627fbd18cc000995584c,2020-08-10_11h24.23.384,lexical_decision_task_MP,2020.1.3,Win32,60,,z,1,0.63154,,,,,,,,0.63154,1,,,,,,404,NW,UN,33,syntic,CLUIRM,z,,,,,,0.008333333,-0.402777778,0,0,0,,0,76,76,403,1,
,,,,,,,,,,,,,,,,,,5e94627fbd18cc000995584c,2020-08-10_11h24.23.384,lexical_decision_task_MP,2020.1.3,Win32,60,,z,1,0.870705,,,,,,,,0.870705,1,,,,,,250,NW,"ID",33,milted,MILTED,z,,,,,,0.008333333,-0.402777778,0,0,0,,0,77,77,249,1,
,,,,,,,,,,,,,,,,,,5e94627fbd18cc000995584c,2020-08-10_11h24.23.384,lexical_decision_task_MP,2020.1.3,Win32,60,,m,1,0.60145,,,,,,,,0.60145,1,,,,,,34,WORD,"ID",33,jungle,JUNGLE,m,,,,,,0.008333333,-0.402777778,0,0,0,,0,78,78,33,1,
,,,,,,,,,,,,,,,,,,5e94627fbd18cc000995584c,2020-08-10_11h24.23.384,lexical_decision_task_MP,2020.1.3,Win32,60,,z,1,0.536395,,,,,,,,0.536395,1,,,,,,445,NW,UN,50,runamo,MINKEL,z,,,,,,0.008333333,-0.402777778,0,0,0,,0,79,79,444,1,
,,,,,,,,,,,,,,,,,,5e94627fbd18cc000995584c,2020-08-10_11h24.23.384,lexical_decision_task_MP,2020.1.3,Win32,60,,z,1,0.519005,,,,,,,,0.519005,1,,,,,,472,NW,UN,50,crible,CIGNEY,z,,,,,,0.008333333,-0.402777778,0,0,0,,0,80,80,471,1,
,,,,,,,,,,,,,,,,,,5e94627fbd18cc000995584c,2020-08-10_11h24.23.384,lexical_decision_task_MP,2020.1.3,Win32,60,,m,1,0.57552,,,,,,,,0.57552,1,,,,,,126,WORD,UN,33,castle,ENOUGH,m,,,,,,0.008333333,-0.402777778,0,0,0,,0,81,81,125,1,
,,,,,,,,,,,,,,,,,,5e94627fbd18cc000995584c,2020-08-10_11h24.23.384,lexical_decision_task_MP,2020.1.3,Win32,60,,z,1,0.55197,,,,,,,,0.55197,1,,,,,,476,NW,UN,50,photie,JOSTED,z,,,,,,0.008333333,-0.402777778,0,0,0,,0,82,82,475,1,
,,,,,,,,,,,,,,,,,,5e94627fbd18cc000995584c,2020-08-10_11h24.23.384,lexical_decision_task_MP,2020.1.3,Win32,60,,m,1,0.66565,,,,,,,,0.66565,1,,,,,,116,WORD,"ID",50,tumble,TUMBLE,m,,,,,,0.008333333,-0.402777778,0,0,0,,0,83,83,115,1,
,,,,,,,,,,,,,,,,,,5e94627fbd18cc000995584c,2020-08-10_11h24.23.384,lexical_decision_task_MP,2020.1.3,Win32,60,,m,1,0.5875,,,,,,,,0.5875,1,,,,,,117,WORD,"ID",50,branch,BRANCH,m,,,,,,0.008333333,-0.402777778,0,0,0,,0,84,84,116,1,
,,,,,,,,,,,,,,,,,,5e94627fbd18cc000995584c,2020-08-10_11h24.23.384,lexical_decision_task_MP,2020.1.3,Win32,60,,z,1,0.534005,,,,,,,,0.534005,1,,,,,,422,NW,UN,50,streld,ALCOUD,z,,,,,,0.008333333,-0.402777778,0,0,0,,0,85,85,421,1,
,,,,,,,,,,,,,,,,,,5e94627fbd18cc000995584c,2020-08-10_11h24.23.384,lexical_decision_task_MP,2020.1.3,Win32,60,,z,1,0.67382,,,,,,,,0.67382,1,,,,,,242,NW,"ID",33,unwert,UNWERT,z,,,,,,0.008333333,-0.402777778,0,0,0,,0,86,86,241,1,
,,,,,,,,,,,,,,,,,,5e94627fbd18cc000995584c,2020-08-10_11h24.23.384,lexical_decision_task_MP,2020.1.3,Win32,60,,m,1,0.552145,,,,,,,,0.552145,1,,,,,,105,WORD,"ID",50,number,NUMBER,m,,,,,,0.008333333,-0.402777778,0,0,0,,0,87,87,104,1,
,,,,,,,,,,,,,,,,,,5e94627fbd18cc000995584c,2020-08-10_11h24.23.384,lexical_decision_task_MP,2020.1.3,Win32,60,,z,1,0.546235,,,,,,,,0.546235,1,,,,,,406,NW,UN,33,suiver,NOUPLY,z,,,,,,0.008333333,-0.402777778,0,0,0,,0,88,88,405,1,
,,,,,,,,,,,,,,,,,,5e94627fbd18cc000995584c,2020-08-10_11h24.23.384,lexical_decision_task_MP,2020.1.3,Win32,60,,z,1,0.537995,,,,,,,,0.537995,1,,,,,,241,NW,"ID",33,smenco,SMENCO,z,,,,,,0.008333333,-0.402777778,0,0,0,,0,89,89,240,1,
,,,,,,,,,,,,,,,,,,5e94627fbd18cc000995584c,2020-08-10_11h24.23.384,lexical_decision_task_MP,2020.1.3,Win32,60,,m,1,0.746145,,,,,,,,0.746145,1,,,,,,139,WORD,UN,33,prince,DEBRIS,m,,,,,,0.008333333,-0.402777778,0,0,0,,0,90,90,138,1,
,,,,,,,,,,,,,,,,,,5e94627fbd18cc000995584c,2020-08-10_11h24.23.384,lexical_decision_task_MP,2020.1.3,Win32,60,,z,1,0.757775,,,,,,,,0.757775,1,,,,,,360,NW,"ID",50,desory,DESORY,z,,,,,,0.008333333,-0.402777778,0,0,0,,0,91,91,359,1,
,,,,,,,,,,,,,,,,,,5e94627fbd18cc000995584c,2020-08-10_11h24.23.384,lexical_decision_task_MP,2020.1.3,Win32,60,,z,1,0.633165,,,,,,,,0.633165,1,,,,,,323,NW,"ID",50,rosail,ROSAIL,z,,,,,,0.008333333,-0.402777778,0,0,0,,0,92,92,322,1,
,,,,,,,,,,,,,,,,,,5e94627fbd18cc000995584c,2020-08-10_11h24.23.384,lexical_decision_task_MP,2020.1.3,Win32,60,,m,1,0.500675,,,,,,,,0.500675,1,,,,,,67,WORD,"ID",50,policy,POLICY,m,,,,,,0.008333333,-0.402777778,0,0,0,,0,93,93,66,1,
,,,,,,,,,,,,,,,,,,5e94627fbd18cc000995584c,2020-08-10_11h24.23.384,lexical_decision_task_MP,2020.1.3,Win32,60,,z,1,0.55009,,,,,,,,0.55009,1,,,,,,470,NW,UN,50,nobest,CRUDIO,z,,,,,,0.008333333,-0.402777778,0,0,0,,0,94,94,469,1,
,,,,,,,,,,,,,,,,,,5e94627fbd18cc000995584c,2020-08-10_11h24.23.384,lexical_decision_task_MP,2020.1.3,Win32,60,,z,1,0.667515,,,,,,,,0.667515,1,,,,,,477,NW,UN,50,acrise,PHOTIE,z,,,,,,0.008333333,-0.402777778,0,0,0,,0,95,95,476,1,
,,,,,,,,,,,,,,,,,,5e94627fbd18cc000995584c,2020-08-10_11h24.23.384,lexical_decision_task_MP,2020.1.3,Win32,60,,z,1,0.67512,,,,,,,,0.67512,1,,,,,,348,NW,"ID",50,dumple,DUMPLE,z,,,,,,0.008333333,-0.402777778,0,0,0,,0,96,96,347,1,
,,,,,,,,,,,,,,,,,,5e94627fbd18cc000995584c,2020-08-10_11h24.23.384,lexical_decision_task_MP,2020.1.3,Win32,60,,m,1,0.86755,,,,,,,,0.86755,1,,,,,,222,WORD,UN,50,casino,HINDER,m,,,,,,0.008333333,-0.402777778,0,0,0,,0,97,97,221,1,
,,,,,,,,,,,,,,,,,,5e94627fbd18cc000995584c,2020-08-10_11h24.23.384,lexical_decision_task_MP,2020.1.3,Win32,60,,z,1,0.62414,,,,,,,,0.62414,1,,,,,,272,NW,"ID",33,damilt,DAMILT,z,,,,,,0.008333333,-0.402777778,0,0,0,,0,98,98,271,1,
,,,,,,,,,,,,,,,,,,5e94627fbd18cc000995584c,2020-08-10_11h24.23.384,lexical_decision_task_MP,2020.1.3,Win32,60,,z,1,0.67405,,,,,,,,0.67405,1,,,,,,358,NW,"ID",50,fleack,FLEACK,z,,,,,,0.008333333,-0.402777778,0,0,0,,0,99,99,357,1,
,,,,,,,,,,,,,,,,,,5e94627fbd18cc000995584c,2020-08-10_11h24.23.384,lexical_decision_task_MP,2020.1.3,Win32,60,,m,1,0.5835,,,,,,,,0.5835,1,,,,,,208,WORD,UN,50,search,HOCKEY,m,,,,,,0.008333333,-0.402777778,0,0,0,,0,100,100,207,1,
,,,,,,,,,,,,,,,,,,5e94627fbd18cc000995584c,2020-08-10_11h24.23.384,lexical_decision_task_MP,2020.1.3,Win32,60,,z,1,0.64107,,,,,,,,0.64107,1,,,,,,269,NW,"ID",33,orchet,ORCHET,z,,,,,,0.008333333,-0.402777778,0,0,0,,0,101,101,268,1,
,,,,,,,,,,,,,,,,,,5e94627fbd18cc000995584c,2020-08-10_11h24.23.384,lexical_decision_task_MP,2020.1.3,Win32,60,,z,1,0.67182,,,,,,,,0.67182,1,,,,,,368,NW,UN,33,wronch,HORNAL,z,,,,,,0.008333333,-0.402777778,0,0,0,,0,102,102,367,1,
,,,,,,,,,,,,,,,,,,5e94627fbd18cc000995584c,2020-08-10_11h24.23.384,lexical_decision_task_MP,2020.1.3,Win32,60,,m,1,0.70949,,,,,,,,0.70949,1,,,,,,189,WORD,UN,50,backup,CENSOR,m,,,,,,0.008333333,-0.402777778,0,0,0,,0,103,103,188,1,
,,,,,,,,,,,,,,,,,,5e94627fbd18cc000995584c,2020-08-10_11h24.23.384,lexical_decision_task_MP,2020.1.3,Win32,60,,z,1,0.583725,,,,,,,,0.583725,1,,,,,,480,NW,UN,50,knisma,ROBULY,z,,,,,,0.008333333,-0.402777778,0,0,0,,0,104,104,479,1,
,,,,,,,,,,,,,,,,,,5e94627fbd18cc000995584c,2020-08-10_11h24.23.384,lexical_decision_task_MP,2020.1.3,Win32,60,,m,1,0.58592,,,,,,,,0.58592,1,,,,,,87,WORD,"ID",50,filter,FILTER,m,,,,,,0.008333333,-0.402777778,0,0,0,,0,105,105,86,1,
,,,,,,,,,,,,,,,,,,5e94627fbd18cc000995584c,2020-08-10_11h24.23.384,lexical_decision_task_MP,2020.1.3,Win32,60,,z,1,0.549615,,,,,,,,0.549615,1,,,,,,344,NW,"ID",50,scrily,SCRILY,z,,,,,,0.008333333,-0.402777778,0,0,0,,0,106,106,343,1,
,,,,,,,,,,,,,,,,,,5e94627fbd18cc000995584c,2020-08-10_11h24.23.384,lexical_decision_task_MP,2020.1.3,Win32,60,,m,1,0.591905,,,,,,,,0.591905,1,,,,,,113,WORD,"ID",50,chorus,CHORUS,m,,,,,,0.008333333,-0.402777778,0,0,0,,0,107,107,112,1,
,,,,,,,,,,,,,,,,,,5e94627fbd18cc000995584c,2020-08-10_11h24.23.384,lexical_decision_task_MP,2020.1.3,Win32,60,,z,1,0.611385,,,,,,,,0.611385,1,,,,,,387,NW,UN,33,cragin,GRONCE,z,,,,,,0.008333333,-0.402777778,0,0,0,,0,108,108,386,1,
,,,,,,,,,,,,,,,,,,5e94627fbd18cc000995584c,2020-08-10_11h24.23.384,lexical_decision_task_MP,2020.1.3,Win32,60,,m,1,0.57027,,,,,,,,0.57027,1,,,,,,158,WORD,UN,33,detail,ISLAND,m,,,,,,0.008333333,-0.402777778,0,0,0,,0,109,109,157,1,
,,,,,,,,,,,,,,,,,,5e94627fbd18cc000995584c,2020-08-10_11h24.23.384,lexical_decision_task_MP,2020.1.3,Win32,60,,m,1,0.6541,,,,,,,,0.6541,1,,,,,,211,WORD,UN,50,verify,INFECT,m,,,,,,0.008333333,-0.402777778,0,0,0,,0,110,110,210,1,
,,,,,,,,,,,,,,,,,,5e94627fbd18cc000995584c,2020-08-10_11h24.23.384,lexical_decision_task_MP,2020.1.3,Win32,60,,m,1,0.66608,,,,,,,,0.66608,1,,,,,,177,WORD,UN,33,inform,ADVENT,m,,,,,,0.008333333,-0.402777778,0,0,0,,0,111,111,176,1,
,,,,,,,,,,,,,,,,,,5e94627fbd18cc000995584c,2020-08-10_11h24.23.384,lexical_decision_task_MP,2020.1.3,Win32,60,,m,1,0.68572,,,,,,,,0.68572,1,,,,,,90,WORD,"ID",50,relish,RELISH,m,,,,,,0.008333333,-0.402777778,0,0,0,,0,112,112,89,1,
,,,,,,,,,,,,,,,,,,5e94627fbd18cc000995584c,2020-08-10_11h24.23.384,lexical_decision_task_MP,2020.1.3,Win32,60,,m,1,0.631425,,,,,,,,0.631425,1,,,,,,107,WORD,"ID",50,slogan,SLOGAN,m,,,,,,0.008333333,-0.402777778,0,0,0,,0,113,113,106,1,
,,,,,,,,,,,,,,,,,,5e94627fbd18cc000995584c,2020-08-10_11h24.23.384,lexical_decision_task_MP,2020.1.3,Win32,60,,z,1,0.54978,,,,,,,,0.54978,1,,,,,,385,NW,UN,33,ancust,VEIGMA,z,,,,,,0.008333333,-0.402777778,0,0,0,,0,114,114,384,1,
,,,,,,,,,,,,,,,,,,5e94627fbd18cc000995584c,2020-08-10_11h24.23.384,lexical_decision_task_MP,2020.1.3,Win32,60,,z,1,0.769765,,,,,,,,0.769765,1,,,,,,411,NW,UN,33,jiluer,ORCHIN,z,,,,,,0.008333333,-0.402777778,0,0,0,,0,115,115,410,1,
,,,,,,,,,,,,,,,,,,5e94627fbd18cc000995584c,2020-08-10_11h24.23.384,lexical_decision_task_MP,2020.1.3,Win32,60,,m,1,0.635405,,,,,,,,0.635405,1,,,,,,148,WORD,UN,33,invade,CUSTOM,m,,,,,,0.008333333,-0.402777778,0,0,0,,0,116,116,147,1,
,,,,,,,,,,,,,,,,,,5e94627fbd18cc000995584c,2020-08-10_11h24.23.384,lexical_decision_task_MP,2020.1.3,Win32,60,,z,1,0.659105,,,,,,,,0.659105,1,,,,,,420,NW,UN,33,pauche,GUSHOP,z,,,,,,0.008333333,-0.402777778,0,0,0,,0,117,117,419,1,
,,,,,,,,,,,,,,,,,,5e94627fbd18cc000995584c,2020-08-10_11h24.23.384,lexical_decision_task_MP,2020.1.3,Win32,60,,z,1,0.592645,,,,,,,,0.592645,1,,,,,,370,NW,UN,33,geiloy,SLEACT,z,,,,,,0.008333333,-0.402777778,0,0,0,,0,118,118,369,1,
,,,,,,,,,,,,,,,,,,5e94627fbd18cc000995584c,2020-08-10_11h24.23.384,lexical_decision_task_MP,2020.1.3,Win32,60,,z,1,0.532285,,,,,,,,0.532285,1,,,,,,423,NW,UN,50,praile,STRELD,z,,,,,,0.008333333,-0.402777778,0,0,0,,0,119,119,422,1,
,,,,,,,,,,,,,,,,,,5e94627fbd18cc000995584c,2020-08-10_11h24.23.384,lexical_decision_task_MP,2020.1.3,Win32,60,,m,1,0.58332,,,,,,,,0.58332,1,,,,,,157,WORD,UN,33,island,DRAGON,m,,,,,,0.008333333,-0.402777778,0,0,0,space,0,120,120,156,1,13.84309
,,,,,,,,,,,,,,,,,,5e94627fbd18cc000995584c,2020-08-10_11h24.23.384,lexical_decision_task_MP,2020.1.3,Win32,60,,m,1,0.59419,,,,,,,,0.59419,1,,,,,,20,WORD,"ID",33,breast,BREAST,m,,,,,,0.008333333,-0.402777778,0,0,0,,0,121,121,19,1,
,,,,,,,,,,,,,,,,,,5e94627fbd18cc000995584c,2020-08-10_11h24.23.384,lexical_decision_task_MP,2020.1.3,Win32,60,,m,1,0.539025,,,,,,,,0.539025,1,,,,,,219,WORD,UN,50,voyage,BUCKET,m,,,,,,0.008333333,-0.402777778,0,0,0,,0,122,122,218,1,
,,,,,,,,,,,,,,,,,,5e94627fbd18cc000995584c,2020-08-10_11h24.23.384,lexical_decision_task_MP,2020.1.3,Win32,60,,m,1,0.529295,,,,,,,,0.529295,1,,,,,,39,WORD,"ID",33,insect,INSECT,m,,,,,,0.008333333,-0.402777778,0,0,0,,0,123,123,38,1,
,,,,,,,,,,,,,,,,,,5e94627fbd18cc000995584c,2020-08-10_11h24.23.384,lexical_decision_task_MP,2020.1.3,Win32,60,,z,1,0.516515,,,,,,,,0.516515,1,,,,,,322,NW,"ID",50,slanch,SLANCH,z,,,,,,0.008333333,-0.402777778,0,0,0,,0,124,124,321,1,
,,,,,,,,,,,,,,,,,,5e94627fbd18cc000995584c,2020-08-10_11h24.23.384,lexical_decision_task_MP,2020.1.3,Win32,60,,z,0,0.5596,,,,,,,,0.5596,0,,,,,,230,WORD,UN,50,export,FRINGE,m,,,,,,0.008333333,-0.402777778,0,0,0,,0,125,125,229,1,
,,,,,,,,,,,,,,,,,,5e94627fbd18cc000995584c,2020-08-10_11h24.23.384,lexical_decision_task_MP,2020.1.3,Win32,60,,m,1,0.667525,,,,,,,,0.667525,1,,,,,,27,WORD,"ID",33,scream,SCREAM,m,,,,,,0.008333333,-0.402777778,0,0,0,,0,126,126,26,1,
,,,,,,,,,,,,,,,,,,5e94627fbd18cc000995584c,2020-08-10_11h24.23.384,lexical_decision_task_MP,2020.1.3,Win32,60,,m,1,0.721885,,,,,,,,0.721885,1,,,,,,131,WORD,UN,33,strong,QUENCH,m,,,,,,0.008333333,-0.402777778,0,0,0,,0,127,127,130,1,
,,,,,,,,,,,,,,,,,,5e94627fbd18cc000995584c,2020-08-10_11h24.23.384,lexical_decision_task_MP,2020.1.3,Win32,60,,z,1,0.55988,,,,,,,,0.55988,1,,,,,,251,NW,"ID",33,lupict,LUPICT,z,,,,,,0.008333333,-0.402777778,0,0,0,,0,128,128,250,1,
,,,,,,,,,,,,,,,,,,5e94627fbd18cc000995584c,2020-08-10_11h24.23.384,lexical_decision_task_MP,2020.1.3,Win32,60,,z,1,0.546205,,,,,,,,0.546205,1,,,,,,351,NW,"ID",50,tiesch,TIESCH,z,,,,,,0.008333333,-0.402777778,0,0,0,,0,129,129,350,1,
,,,,,,,,,,,,,,,,,,5e94627fbd18cc000995584c,2020-08-10_11h24.23.384,lexical_decision_task_MP,2020.1.3,Win32,60,,z,1,0.636355,,,,,,,,0.636355,1,,,,,,329,NW,"ID",50,yarike,YARIKE,z,,,,,,0.008333333,-0.402777778,0,0,0,,0,130,130,328,1,
,,,,,,,,,,,,,,,,,,5e94627fbd18cc000995584c,2020-08-10_11h24.23.384,lexical_decision_task_MP,2020.1.3,Win32,60,,z,1,0.52344,,,,,,,,0.52344,1,,,,,,446,NW,UN,50,gircue,RUNAMO,z,,,,,,0.008333333,-0.402777778,0,0,0,,0,131,131,445,1,
,,,,,,,,,,,,,,,,,,5e94627fbd18cc000995584c,2020-08-10_11h24.23.384,lexical_decision_task_MP,2020.1.3,Win32,60,,m,1,0.59303,,,,,,,,0.59303,1,,,,,,84,WORD,"ID",50,mortal,MORTAL,m,,,,,,0.008333333,-0.402777778,0,0,0,,0,132,132,83,1,
,,,,,,,,,,,,,,,,,,5e94627fbd18cc000995584c,2020-08-10_11h24.23.384,lexical_decision_task_MP,2020.1.3,Win32,60,,z,1,0.535025,,,,,,,,0.535025,1,,,,,,378,NW,UN,33,auting,SHRILE,z,,,,,,0.008333333,-0.402777778,0,0,0,,0,133,133,377,1,
,,,,,,,,,,,,,,,,,,5e94627fbd18cc000995584c,2020-08-10_11h24.23.384,lexical_decision_task_MP,2020.1.3,Win32,60,,z,1,0.52713,,,,,,,,0.52713,1,,,,,,410,NW,UN,33,orchin,TUNORY,z,,,,,,0.008333333,-0.402777778,0,0,0,,0,134,134,409,1,
,,,,,,,,,,,,,,,,,,5e94627fbd18cc000995584c,2020-08-10_11h24.23.384,lexical_decision_task_MP,2020.1.3,Win32,60,,z,1,0.985995,,,,,,,,0.985995,1,,,,,,310,NW,"ID",50,daniet,DANIET,z,,,,,,0.008333333,-0.402777778,0,0,0,,0,135,135,309,1,
,,,,,,,,,,,,,,,,,,5e94627fbd18cc000995584c,2020-08-10_11h24.23.384,lexical_decision_task_MP,2020.1.3,Win32,60,,m,1,0.63546,,,,,,,,0.63546,1,,,,,,114,WORD,"ID",50,placid,PLACID,m,,,,,,0.008333333,-0.402777778,0,0,0,,0,136,136,113,1,
,,,,,,,,,,,,,,,,,,5e94627fbd18cc000995584c,2020-08-10_11h24.23.384,lexical_decision_task_MP,2020.1.3,Win32,60,,z,1,0.875635,,,,,,,,0.875635,1,,,,,,424,NW,UN,50,urivel,PRAILE,z,,,,,,0.008333333,-0.402777778,0,0,0,,0,137,137,423,1,
,,,,,,,,,,,,,,,,,,5e94627fbd18cc000995584c,2020-08-10_11h24.23.384,lexical_decision_task_MP,2020.1.3,Win32,60,,m,1,0.82829,,,,,,,,0.82829,1,,,,,,203,WORD,UN,50,burden,PHRASE,m,,,,,,0.008333333,-0.402777778,0,0,0,,0,138,138,202,1,
,,,,,,,,,,,,,,,,,,5e94627fbd18cc000995584c,2020-08-10_11h24.23.384,lexical_decision_task_MP,2020.1.3,Win32,60,,m,1,0.582875,,,,,,,,0.582875,1,,,,,,182,WORD,UN,50,basket,WINTER,m,,,,,,0.008333333,-0.402777778,0,0,0,,0,139,139,181,1,
,,,,,,,,,,,,,,,,,,5e94627fbd18cc000995584c,2020-08-10_11h24.23.384,lexical_decision_task_MP,2020.1.3,Win32,60,,z,1,0.538875,,,,,,,,0.538875,1,,,,,,316,NW,"ID",50,scregm,SCREGM,z,,,,,,0.008333333,-0.402777778,0,0,0,,0,140,140,315,1,
,,,,,,,,,,,,,,,,,,5e94627fbd18cc000995584c,2020-08-10_11h24.23.384,lexical_decision_task_MP,2020.1.3,Win32,60,,m,1,0.708135,,,,,,,,0.708135,1,,,,,,46,WORD,"ID",33,single,SINGLE,m,,,,,,0.008333333,-0.402777778,0,0,0,,0,141,141,45,1,
,,,,,,,,,,,,,,,,,,5e94627fbd18cc000995584c,2020-08-10_11h24.23.384,lexical_decision_task_MP,2020.1.3,Win32,60,,z,1,0.57885,,,,,,,,0.57885,1,,,,,,258,NW,"ID",33,poluth,POLUTH,z,,,,,,0.008333333,-0.402777778,0,0,0,,0,142,142,257,1,
,,,,,,,,,,,,,,,,,,5e94627fbd18cc000995584c,2020-08-10_11h24.23.384,lexical_decision_task_MP,2020.1.3,Win32,60,,z,1,0.583325,,,,,,,,0.583325,1,,,,,,274,NW,"ID",33,fumblo,FUMBLO,z,,,,,,0.008333333,-0.402777778,0,0,0,,0,143,143,273,1,
,,,,,,,,,,,,,,,,,,5e94627fbd18cc000995584c,2020-08-10_11h24.23.384,lexical_decision_task_MP,2020.1.3,Win32,60,,m,1,0.56779,,,,,,,,0.56779,1,,,,,,64,WORD,"ID",50,throne,THRONE,m,,,,,,0.008333333,-0.402777778,0,0,0,,0,144,144,63,1,
,,,,,,,,,,,,,,,,,,5e94627fbd18cc000995584c,2020-08-10_11h24.23.384,lexical_decision_task_MP,2020.1.3,Win32,60,,m,1,0.547035,,,,,,,,0.547035,1,,,,,,72,WORD,"ID",50,bright,BRIGHT,m,,,,,,0.008333333,-0.402777778,0,0,0,,0,145,145,71,1,
,,,,,,,,,,,,,,,,,,5e94627fbd18cc000995584c,2020-08-10_11h24.23.384,lexical_decision_task_MP,2020.1.3,Win32,60,,z,1,0.62193,,,,,,,,0.62193,1,,,,,,413,NW,UN,33,serbol,EQUATS,z,,,,,,0.008333333,-0.402777778,0,0,0,,0,146,146,412,1,
,,,,,,,,,,,,,,,,,,5e94627fbd18cc000995584c,2020-08-10_11h24.23.384,lexical_decision_task_MP,2020.1.3,Win32,60,,m,1,0.5429,,,,,,,,0.5429,1,,,,,,142,WORD,UN,33,orphan,SPRUCE,m,,,,,,0.008333333,-0.402777778,0,0,0,,0,147,147,141,1,
,,,,,,,,,,,,,,,,,,5e94627fbd18cc000995584c,2020-08-10_11h24.23.384,lexical_decision_task_MP,2020.1.3,Win32,60,,z,1,0.681335,,,,,,,,0.681335,1,,,,,,324,NW,"ID",50,steikh,STEIKH,z,,,,,,0.008333333,-0.402777778,0,0,0,,0,148,148,323,1,
,,,,,,,,,,,,,,,,,,5e94627fbd18cc000995584c,2020-08-10_11h24.23.384,lexical_decision_task_MP,2020.1.3,Win32,60,,m,1,0.65454,,,,,,,,0.65454,1,,,,,,225,WORD,UN,50,kidney,VULGAR,m,,,,,,0.008333333,-0.402777778,0,0,0,,0,149,149,224,1,
,,,,,,,,,,,,,,,,,,5e94627fbd18cc000995584c,2020-08-10_11h24.23.384,lexical_decision_task_MP,2020.1.3,Win32,60,,z,1,0.798135,,,,,,,,0.798135,1,,,,,,300,NW,"ID",33,yarion,YARION,z,,,,,,0.008333333,-0.402777778,0,0,0,,0,150,150,299,1,
,,,,,,,,,,,,,,,,,,5e94627fbd18cc000995584c,2020-08-10_11h24.23.384,lexical_decision_task_MP,2020.1.3,Win32,60,,z,1,0.64062,,,,,,,,0.64062,1,,,,,,281,NW,"ID",33,melaty,MELATY,z,,,,,,0.008333333,-0.402777778,0,0,0,,0,151,151,280,1,
,,,,,,,,,,,,,,,,,,5e94627fbd18cc000995584c,2020-08-10_11h24.23.384,lexical_decision_task_MP,2020.1.3,Win32,60,,m,1,0.631825,,,,,,,,0.631825,1,,,,,,239,WORD,UN,50,forest,LUMBER,m,,,,,,0.008333333,-0.402777778,0,0,0,,0,152,152,238,1,
,,,,,,,,,,,,,,,,,,5e94627fbd18cc000995584c,2020-08-10_11h24.23.384,lexical_decision_task_MP,2020.1.3,Win32,60,,m,1,0.83452,,,,,,,,0.83452,1,,,,,,82,WORD,"ID",50,stigma,STIGMA,m,,,,,,0.008333333,-0.402777778,0,0,0,,0,153,153,81,1,
,,,,,,,,,,,,,,,,,,5e94627fbd18cc000995584c,2020-08-10_11h24.23.384,lexical_decision_task_MP,2020.1.3,Win32,60,,z,1,0.73932,,,,,,,,0.73932,1,,,,,,438,NW,UN,50,limpor,BAITCH,z,,,,,,0.008333333,-0.402777778,0,0,0,,0,154,154,437,1,
,,,,,,,,,,,,,,,,,,5e94627fbd18cc000995584c,2020-08-10_11h24.23.384,lexical_decision_task_MP,2020.1.3,Win32,60,,m,1,0.587055,,,,,,,,0.587055,1,,,,,,190,WORD,UN,50,stable,BACKUP,m,,,,,,0.008333333,-0.402777778,0,0,0,,0,155,155,189,1,
,,,,,,,,,,,,,,,,,,5e94627fbd18cc000995584c,2020-08-10_11h24.23.384,lexical_decision_task_MP,2020.1.3,Win32,60,,m,1,0.57726,,,,,,,,0.57726,1,,,,,,68,WORD,"ID",50,fumble,FUMBLE,m,,,,,,0.008333333,-0.402777778,0,0,0,,0,156,156,67,1,
,,,,,,,,,,,,,,,,,,5e94627fbd18cc000995584c,2020-08-10_11h24.23.384,lexical_decision_task_MP,2020.1.3,Win32,60,,m,1,0.534245,,,,,,,,0.534245,1,,,,,,202,WORD,UN,50,phrase,FACTOR,m,,,,,,0.008333333,-0.402777778,0,0,0,,0,157,157,201,1,
,,,,,,,,,,,,,,,,,,5e94627fbd18cc000995584c,2020-08-10_11h24.23.384,lexical_decision_task_MP,2020.1.3,Win32,60,,z,1,0.517195,,,,,,,,0.517195,1,,,,,,417,NW,UN,33,suidle,EAROUD,z,,,,,,0.008333333,-0.402777778,0,0,0,,0,158,158,416,1,
,,,,,,,,,,,,,,,,,,5e94627fbd18cc000995584c,2020-08-10_11h24.23.384,lexical_decision_task_MP,2020.1.3,Win32,60,,z,1,0.66794,,,,,,,,0.66794,1,,,,,,346,NW,"ID",50,saudic,SAUDIC,z,,,,,,0.008333333,-0.402777778,0,0,0,,0,159,159,345,1,
,,,,,,,,,,,,,,,,,,5e94627fbd18cc000995584c,2020-08-10_11h24.23.384,lexical_decision_task_MP,2020.1.3,Win32,60,,m,1,0.57698,,,,,,,,0.57698,1,,,,,,224,WORD,UN,50,vulgar,PERIOD,m,,,,,,0.008333333,-0.402777778,0,0,0,,0,160,160,223,1,
,,,,,,,,,,,,,,,,,,5e94627fbd18cc000995584c,2020-08-10_11h24.23.384,lexical_decision_task_MP,2020.1.3,Win32,60,,m,1,0.637715,,,,,,,,0.637715,1,,,,,,4,WORD,"ID",33,trench,TRENCH,m,,,,,,0.008333333,-0.402777778,0,0,0,,0,161,161,3,1,
,,,,,,,,,,,,,,,,,,5e94627fbd18cc000995584c,2020-08-10_11h24.23.384,lexical_decision_task_MP,2020.1.3,Win32,60,,m,1,0.56978,,,,,,,,0.56978,1,,,,,,197,WORD,UN,50,wicked,STREAM,m,,,,,,0.008333333,-0.402777778,0,0,0,,0,162,162,196,1,
,,,,,,,,,,,,,,,,,,5e94627fbd18cc000995584c,2020-08-10_11h24.23.384,lexical_decision_task_MP,2020.1.3,Win32,60,,m,1,0.591785,,,,,,,,0.591785,1,,,,,,159,WORD,UN,33,violet,DETAIL,m,,,,,,0.008333333,-0.402777778,0,0,0,,0,163,163,158,1,
,,,,,,,,,,,,,,,,,,5e94627fbd18cc000995584c,2020-08-10_11h24.23.384,lexical_decision_task_MP,2020.1.3,Win32,60,,m,1,0.48894,,,,,,,,0.48894,1,,,,,,6,WORD,"ID",33,bundle,BUNDLE,m,,,,,,0.008333333,-0.402777778,0,0,0,,0,164,164,5,1,
,,,,,,,,,,,,,,,,,,5e94627fbd18cc000995584c,2020-08-10_11h24.23.384,lexical_decision_task_MP,2020.1.3,Win32,60,,m,1,0.61807,,,,,,,,0.61807,1,,,,,,146,WORD,UN,33,garlic,COUPLE,m,,,,,,0.008333333,-0.402777778,0,0,0,,0,165,165,145,1,
,,,,,,,,,,,,,,,,,,5e94627fbd18cc000995584c,2020-08-10_11h24.23.384,lexical_decision_task_MP,2020.1.3,Win32,60,,z,1,0.647795,,,,,,,,0.647795,1,,,,,,365,NW,UN,33,toshel,GUAIRT,z,,,,,,0.008333333,-0.402777778,0,0,0,,0,166,166,364,1,
,,,,,,,,,,,,,,,,,,5e94627fbd18cc000995584c,2020-08-10_11h24.23.384,lexical_decision_task_MP,2020.1.3,Win32,60,,z,1,0.7058,,,,,,,,0.7058,1,,,,,,325,NW,"ID",50,thruse,THRUSE,z,,,,,,0.008333333,-0.402777778,0,0,0,,0,167,167,324,1,
,,,,,,,,,,,,,,,,,,5e94627fbd18cc000995584c,2020-08-10_11h24.23.384,lexical_decision_task_MP,2020.1.3,Win32,60,,z,1,0.84292,,,,,,,,0.84292,1,,,,,,398,NW,UN,33,fouret,BLUNDE,z,,,,,,0.008333333,-0.402777778,0,0,0,,0,168,168,397,1,
,,,,,,,,,,,,,,,,,,5e94627fbd18cc000995584c,2020-08-10_11h24.23.384,lexical_decision_task_MP,2020.1.3,Win32,60,,z,1,0.706755,,,,,,,,0.706755,1,,,,,,430,NW,UN,50,funtle,CAROEY,z,,,,,,0.008333333,-0.402777778,0,0,0,,0,169,169,429,1,
,,,,,,,,,,,,,,,,,,5e94627fbd18cc000995584c,2020-08-10_11h24.23.384,lexical_decision_task_MP,2020.1.3,Win32,60,,m,1,0.593185,,,,,,,,0.593185,1,,,,,,199,WORD,UN,50,beacon,INVOKE,m,,,,,,0.008333333,-0.402777778,0,0,0,,0,170,170,198,1,
,,,,,,,,,,,,,,,,,,5e94627fbd18cc000995584c,2020-08-10_11h24.23.384,lexical_decision_task_MP,2020.1.3,Win32,60,,z,1,0.561705,,,,,,,,0.561705,1,,,,,,381,NW,UN,33,sarley,HUNIEK,z,,,,,,0.008333333,-0.402777778,0,0,0,,0,171,171,380,1,
,,,,,,,,,,,,,,,,,,5e94627fbd18cc000995584c,2020-08-10_11h24.23.384,lexical_decision_task_MP,2020.1.3,Win32,60,,z,1,0.615195,,,,,,,,0.615195,1,,,,,,278,NW,"ID",33,unighs,UNIGHS,z,,,,,,0.008333333,-0.402777778,0,0,0,,0,172,172,277,1,
,,,,,,,,,,,,,,,,,,5e94627fbd18cc000995584c,2020-08-10_11h24.23.384,lexical_decision_task_MP,2020.1.3,Win32,60,,m,1,0.632465,,,,,,,,0.632465,1,,,,,,58,WORD,"ID",33,foster,FOSTER,m,,,,,,0.008333333,-0.402777778,0,0,0,,0,173,173,57,1,
,,,,,,,,,,,,,,,,,,5e94627fbd18cc000995584c,2020-08-10_11h24.23.384,lexical_decision_task_MP,2020.1.3,Win32,60,,z,1,0.82141,,,,,,,,0.82141,1,,,,,,248,NW,"ID",33,strole,STROLE,z,,,,,,0.008333333,-0.402777778,0,0,0,,0,174,174,247,1,
,,,,,,,,,,,,,,,,,,5e94627fbd18cc000995584c,2020-08-10_11h24.23.384,lexical_decision_task_MP,2020.1.3,Win32,60,,m,1,0.619385,,,,,,,,0.619385,1,,,,,,198,WORD,UN,50,invoke,WICKED,m,,,,,,0.008333333,-0.402777778,0,0,0,,0,175,175,197,1,
,,,,,,,,,,,,,,,,,,5e94627fbd18cc000995584c,2020-08-10_11h24.23.384,lexical_decision_task_MP,2020.1.3,Win32,60,,z,1,0.70848,,,,,,,,0.70848,1,,,,,,465,NW,UN,50,hocite,WHIVEX,z,,,,,,0.008333333,-0.402777778,0,0,0,,0,176,176,464,1,
,,,,,,,,,,,,,,,,,,5e94627fbd18cc000995584c,2020-08-10_11h24.23.384,lexical_decision_task_MP,2020.1.3,Win32,60,,z,1,0.61113,,,,,,,,0.61113,1,,,,,,252,NW,"ID",33,stapod,STAPOD,z,,,,,,0.008333333,-0.402777778,0,0,0,,0,177,177,251,1,
,,,,,,,,,,,,,,,,,,5e94627fbd18cc000995584c,2020-08-10_11h24.23.384,lexical_decision_task_MP,2020.1.3,Win32,60,,z,1,0.534565,,,,,,,,0.534565,1,,,,,,337,NW,"ID",50,rejols,REJOLS,z,,,,,,0.008333333,-0.402777778,0,0,0,,0,178,178,336,1,
,,,,,,,,,,,,,,,,,,5e94627fbd18cc000995584c,2020-08-10_11h24.23.384,lexical_decision_task_MP,2020.1.3,Win32,60,,z,1,0.517705,,,,,,,,0.517705,1,,,,,,336,NW,"ID",50,ghodus,GHODUS,z,,,,,,0.008333333,-0.402777778,0,0,0,,0,179,179,335,1,
,,,,,,,,,,,,,,,,,,5e94627fbd18cc000995584c,2020-08-10_11h24.23.384,lexical_decision_task_MP,2020.1.3,Win32,60,,z,1,0.519325,,,,,,,,0.519325,1,,,,,,293,NW,"ID",33,swance,SWANCE,z,,,,,,0.008333333,-0.402777778,0,0,0,,0,180,180,292,1,
,,,,,,,,,,,,,,,,,,5e94627fbd18cc000995584c,2020-08-10_11h24.23.384,lexical_decision_task_MP,2020.1.3,Win32,60,,m,1,0.53556,,,,,,,,0.53556,1,,,,,,88,WORD,"ID",50,hunger,HUNGER,m,,,,,,0.008333333,-0.402777778,0,0,0,,0,181,181,87,1,
,,,,,,,,,,,,,,,,,,5e94627fbd18cc000995584c,2020-08-10_11h24.23.384,lexical_decision_task_MP,2020.1.3,Win32,60,,z,1,0.60121,,,,,,,,0.60121,1,,,,,,244,NW,"ID",33,eatric,EATRIC,z,,,,,,0.008333333,-0.402777778,0,0,0,,0,182,182,243,1,
,,,,,,,,,,,,,,,,,,5e94627fbd18cc000995584c,2020-08-10_11h24.23.384,lexical_decision_task_MP,2020.1.3,Win32,60,,m,1,0.56801,,,,,,,,0.56801,1,,,,,,175,WORD,UN,33,strife,FABRIC,m,,,,,,0.008333333,-0.402777778,0,0,0,,0,183,183,174,1,
,,,,,,,,,,,,,,,,,,5e94627fbd18cc000995584c,2020-08-10_11h24.23.384,lexical_decision_task_MP,2020.1.3,Win32,60,,z,1,1.087055,,,,,,,,1.087055,1,,,,,,277,NW,"ID",33,petain,PETAIN,z,,,,,,0.008333333,-0.402777778,0,0,0,,0,184,184,276,1,
,,,,,,,,,,,,,,,,,,5e94627fbd18cc000995584c,2020-08-10_11h24.23.384,lexical_decision_task_MP,2020.1.3,Win32,60,,z,1,0.80068,,,,,,,,0.80068,1,,,,,,433,NW,UN,50,pitrom,DRANCE,z,,,,,,0.008333333,-0.402777778,0,0,0,,0,185,185,432,1,
,,,,,,,,,,,,,,,,,,5e94627fbd18cc000995584c,2020-08-10_11h24.23.384,lexical_decision_task_MP,2020.1.3,Win32,60,,m,1,0.63497,,,,,,,,0.63497,1,,,,,,151,WORD,UN,33,rocket,MYSTIC,m,,,,,,0.008333333,-0.402777778,0,0,0,,0,186,186,150,1,
,,,,,,,,,,,,,,,,,,5e94627fbd18cc000995584c,2020-08-10_11h24.23.384,lexical_decision_task_MP,2020.1.3,Win32,60,,z,1,0.56512,,,,,,,,0.56512,1,,,,,,249,NW,"ID",33,batrol,BATROL,z,,,,,,0.008333333,-0.402777778,0,0,0,,0,187,187,248,1,
,,,,,,,,,,,,,,,,,,5e94627fbd18cc000995584c,2020-08-10_11h24.23.384,lexical_decision_task_MP,2020.1.3,Win32,60,,z,1,0.63115,,,,,,,,0.63115,1,,,,,,363,NW,UN,33,impote,BREALI,z,,,,,,0.008333333,-0.402777778,0,0,0,,0,188,188,362,1,
,,,,,,,,,,,,,,,,,,5e94627fbd18cc000995584c,2020-08-10_11h24.23.384,lexical_decision_task_MP,2020.1.3,Win32,60,,z,1,0.80022,,,,,,,,0.80022,1,,,,,,345,NW,"ID",50,absend,ABSEND,z,,,,,,0.008333333,-0.402777778,0,0,0,,0,189,189,344,1,
,,,,,,,,,,,,,,,,,,5e94627fbd18cc000995584c,2020-08-10_11h24.23.384,lexical_decision_task_MP,2020.1.3,Win32,60,,z,1,0.610235,,,,,,,,0.610235,1,,,,,,437,NW,UN,50,baitch,SNAPEL,z,,,,,,0.008333333,-0.402777778,0,0,0,,0,190,190,436,1,
,,,,,,,,,,,,,,,,,,5e94627fbd18cc000995584c,2020-08-10_11h24.23.384,lexical_decision_task_MP,2020.1.3,Win32,60,,z,1,0.617065,,,,,,,,0.617065,1,,,,,,435,NW,UN,50,frutan,IMPURB,z,,,,,,0.008333333,-0.402777778,0,0,0,,0,191,191,434,1,
,,,,,,,,,,,,,,,,,,5e94627fbd18cc000995584c,2020-08-10_11h24.23.384,lexical_decision_task_MP,2020.1.3,Win32,60,,m,1,0.631795,,,,,,,,0.631795,1,,,,,,63,WORD,"ID",50,launch,LAUNCH,m,,,,,,0.008333333,-0.402777778,0,0,0,,0,192,192,62,1,
,,,,,,,,,,,,,,,,,,5e94627fbd18cc000995584c,2020-08-10_11h24.23.384,lexical_decision_task_MP,2020.1.3,Win32,60,,m,1,0.55361,,,,,,,,0.55361,1,,,,,,45,WORD,"ID",33,clergy,CLERGY,m,,,,,,0.008333333,-0.402777778,0,0,0,,0,193,193,44,1,
,,,,,,,,,,,,,,,,,,5e94627fbd18cc000995584c,2020-08-10_11h24.23.384,lexical_decision_task_MP,2020.1.3,Win32,60,,z,1,0.64401,,,,,,,,0.64401,1,,,,,,461,NW,UN,50,absult,JUSTRE,z,,,,,,0.008333333,-0.402777778,0,0,0,,0,194,194,460,1,
,,,,,,,,,,,,,,,,,,5e94627fbd18cc000995584c,2020-08-10_11h24.23.384,lexical_decision_task_MP,2020.1.3,Win32,60,,m,1,0.788815,,,,,,,,0.788815,1,,,,,,138,WORD,UN,33,staple,MELODY,m,,,,,,0.008333333,-0.402777778,0,0,0,,0,195,195,137,1,
,,,,,,,,,,,,,,,,,,5e94627fbd18cc000995584c,2020-08-10_11h24.23.384,lexical_decision_task_MP,2020.1.3,Win32,60,,m,1,0.88716,,,,,,,,0.88716,1,,,,,,240,WORD,UN,50,glance,FOREST,m,,,,,,0.008333333,-0.402777778,0,0,0,,0,196,196,239,1,
,,,,,,,,,,,,,,,,,,5e94627fbd18cc000995584c,2020-08-10_11h24.23.384,lexical_decision_task_MP,2020.1.3,Win32,60,,z,1,0.60701,,,,,,,,0.60701,1,,,,,,369,NW,UN,33,sleact,WRONCH,z,,,,,,0.008333333,-0.402777778,0,0,0,,0,197,197,368,1,
,,,,,,,,,,,,,,,,,,5e94627fbd18cc000995584c,2020-08-10_11h24.23.384,lexical_decision_task_MP,2020.1.3,Win32,60,,m,1,0.64517,,,,,,,,0.64517,1,,,,,,135,WORD,UN,33,chrome,IMPORT,m,,,,,,0.008333333,-0.402777778,0,0,0,,0,198,198,134,1,
,,,,,,,,,,,,,,,,,,5e94627fbd18cc000995584c,2020-08-10_11h24.23.384,lexical_decision_task_MP,2020.1.3,Win32,60,,z,0,0.750935,,,,,,,,0.750935,0,,,,,,156,WORD,UN,33,pastor,CRADLE,m,,,,,,0.008333333,-0.402777778,0,0,0,,0,199,199,155,1,
,,,,,,,,,,,,,,,,,,5e94627fbd18cc000995584c,2020-08-10_11h24.23.384,lexical_decision_task_MP,2020.1.3,Win32,60,,m,1,0.66758,,,,,,,,0.66758,1,,,,,,143,WORD,UN,33,sponge,REASON,m,,,,,,0.008333333,-0.402777778,0,0,0,,0,200,200,142,1,
,,,,,,,,,,,,,,,,,,5e94627fbd18cc000995584c,2020-08-10_11h24.23.384,lexical_decision_task_MP,2020.1.3,Win32,60,,z,1,0.72031,,,,,,,,0.72031,1,,,,,,386,NW,UN,33,gronce,ANCUST,z,,,,,,0.008333333,-0.402777778,0,0,0,,0,201,201,385,1,
,,,,,,,,,,,,,,,,,,5e94627fbd18cc000995584c,2020-08-10_11h24.23.384,lexical_decision_task_MP,2020.1.3,Win32,60,,m,1,0.62085,,,,,,,,0.62085,1,,,,,,178,WORD,UN,33,mildew,INFORM,m,,,,,,0.008333333,-0.402777778,0,0,0,,0,202,202,177,1,
,,,,,,,,,,,,,,,,,,5e94627fbd18cc000995584c,2020-08-10_11h24.23.384,lexical_decision_task_MP,2020.1.3,Win32,60,,z,1,0.87761,,,,,,,,0.87761,1,,,,,,309,NW,"ID",50,amiloy,AMILOY,z,,,,,,0.008333333,-0.402777778,0,0,0,,0,203,203,308,1,
,,,,,,,,,,,,,,,,,,5e94627fbd18cc000995584c,2020-08-10_11h24.23.384,lexical_decision_task_MP,2020.1.3,Win32,60,,m,1,0.609965,,,,,,,,0.609965,1,,,,,,86,WORD,"ID",50,rodent,RODENT,m,,,,,,0.008333333,-0.402777778,0,0,0,,0,204,204,85,1,
,,,,,,,,,,,,,,,,,,5e94627fbd18cc000995584c,2020-08-10_11h24.23.384,lexical_decision_task_MP,2020.1.3,Win32,60,,z,1,0.57036,,,,,,,,0.57036,1,,,,,,468,NW,UN,50,padifs,WICTOR,z,,,,,,0.008333333,-0.402777778,0,0,0,,0,205,205,467,1,
,,,,,,,,,,,,,,,,,,5e94627fbd18cc000995584c,2020-08-10_11h24.23.384,lexical_decision_task_MP,2020.1.3,Win32,60,,m,1,0.55026,,,,,,,,0.55026,1,,,,,,206,WORD,UN,50,wreath,TAILOR,m,,,,,,0.008333333,-0.402777778,0,0,0,,0,206,206,205,1,
,,,,,,,,,,,,,,,,,,5e94627fbd18cc000995584c,2020-08-10_11h24.23.384,lexical_decision_task_MP,2020.1.3,Win32,60,,z,1,0.61966,,,,,,,,0.61966,1,,,,,,391,NW,UN,33,rouncy,THELDY,z,,,,,,0.008333333,-0.402777778,0,0,0,,0,207,207,390,1,
,,,,,,,,,,,,,,,,,,5e94627fbd18cc000995584c,2020-08-10_11h24.23.384,lexical_decision_task_MP,2020.1.3,Win32,60,,z,1,0.619525,,,,,,,,0.619525,1,,,,,,395,NW,UN,33,flengy,COLURY,z,,,,,,0.008333333,-0.402777778,0,0,0,,0,208,208,394,1,
,,,,,,,,,,,,,,,,,,5e94627fbd18cc000995584c,2020-08-10_11h24.23.384,lexical_decision_task_MP,2020.1.3,Win32,60,,z,1,0.58401,,,,,,,,0.58401,1,,,,,,315,NW,"ID",50,laston,LASTON,z,,,,,,0.008333333,-0.402777778,0,0,0,,0,209,209,314,1,
,,,,,,,,,,,,,,,,,,5e94627fbd18cc000995584c,2020-08-10_11h24.23.384,lexical_decision_task_MP,2020.1.3,Win32,60,,z,1,0.604075,,,,,,,,0.604075,1,,,,,,407,NW,UN,33,hurnia,SUIVER,z,,,,,,0.008333333,-0.402777778,0,0,0,,0,210,210,406,1,
,,,,,,,,,,,,,,,,,,5e94627fbd18cc000995584c,2020-08-10_11h24.23.384,lexical_decision_task_MP,2020.1.3,Win32,60,,m,1,0.583945,,,,,,,,0.583945,1,,,,,,169,WORD,UN,33,pounce,GENIUS,m,,,,,,0.008333333,-0.402777778,0,0,0,,0,211,211,168,1,
,,,,,,,,,,,,,,,,,,5e94627fbd18cc000995584c,2020-08-10_11h24.23.384,lexical_decision_task_MP,2020.1.3,Win32,60,,z,1,0.53519,,,,,,,,0.53519,1,,,,,,283,NW,"ID",33,veralf,VERALF,z,,,,,,0.008333333,-0.402777778,0,0,0,,0,212,212,282,1,
,,,,,,,,,,,,,,,,,,5e94627fbd18cc000995584c,2020-08-10_11h24.23.384,lexical_decision_task_MP,2020.1.3,Win32,60,,z,1,0.530665,,,,,,,,0.530665,1,,,,,,371,NW,UN,33,ramily,GEILOY,z,,,,,,0.008333333,-0.402777778,0,0,0,,0,213,213,370,1,
,,,,,,,,,,,,,,,,,,5e94627fbd18cc000995584c,2020-08-10_11h24.23.384,lexical_decision_task_MP,2020.1.3,Win32,60,,z,1,0.569315,,,,,,,,0.569315,1,,,,,,361,NW,UN,33,tireau,PAUCHE,z,,,,,,0.008333333,-0.402777778,0,0,0,,0,214,214,360,1,
,,,,,,,,,,,,,,,,,,5e94627fbd18cc000995584c,2020-08-10_11h24.23.384,lexical_decision_task_MP,2020.1.3,Win32,60,,m,1,0.624535,,,,,,,,0.624535,1,,,,,,179,WORD,UN,33,silent,BASKET,m,,,,,,0.008333333,-0.402777778,0,0,0,,0,215,215,178,1,
,,,,,,,,,,,,,,,,,,5e94627fbd18cc000995584c,2020-08-10_11h24.23.384,lexical_decision_task_MP,2020.1.3,Win32,60,,m,1,0.600015,,,,,,,,0.600015,1,,,,,,191,WORD,UN,50,absent,STABLE,m,,,,,,0.008333333,-0.402777778,0,0,0,,0,216,216,190,1,
,,,,,,,,,,,,,,,,,,5e94627fbd18cc000995584c,2020-08-10_11h24.23.384,lexical_decision_task_MP,2020.1.3,Win32,60,,z,1,0.525025,,,,,,,,0.525025,1,,,,,,418,NW,UN,33,slount,SUIDLE,z,,,,,,0.008333333,-0.402777778,0,0,0,,0,217,217,417,1,
,,,,,,,,,,,,,,,,,,5e94627fbd18cc000995584c,2020-08-10_11h24.23.384,lexical_decision_task_MP,2020.1.3,Win32,60,,m,1,0.591235,,,,,,,,0.591235,1,,,,,,124,WORD,UN,33,nickel,BLOUSE,m,,,,,,0.008333333,-0.402777778,0,0,0,,0,218,218,123,1,
,,,,,,,,,,,,,,,,,,5e94627fbd18cc000995584c,2020-08-10_11h24.23.384,lexical_decision_task_MP,2020.1.3,Win32,60,,m,1,0.57807,,,,,,,,0.57807,1,,,,,,21,WORD,"ID",33,simple,SIMPLE,m,,,,,,0.008333333,-0.402777778,0,0,0,,0,219,219,20,1,
,,,,,,,,,,,,,,,,,,5e94627fbd18cc000995584c,2020-08-10_11h24.23.384,lexical_decision_task_MP,2020.1.3,Win32,60,,m,1,0.616235,,,,,,,,0.616235,1,,,,,,233,WORD,UN,50,clumsy,NATURE,m,,,,,,0.008333333,-0.402777778,0,0,0,,0,220,220,232,1,
,,,,,,,,,,,,,,,,,,5e94627fbd18cc000995584c,2020-08-10_11h24.23.384,lexical_decision_task_MP,2020.1.3,Win32,60,,m,1,0.53086,,,,,,,,0.53086,1,,,,,,104,WORD,"ID",50,studio,STUDIO,m,,,,,,0.008333333,-0.402777778,0,0,0,,0,221,221,103,1,
,,,,,,,,,,,,,,,,,,5e94627fbd18cc000995584c,2020-08-10_11h24.23.384,lexical_decision_task_MP,2020.1.3,Win32,60,,z,1,0.519855,,,,,,,,0.519855,1,,,,,,286,NW,"ID",33,reldon,RELDON,z,,,,,,0.008333333,-0.402777778,0,0,0,,0,222,222,285,1,
,,,,,,,,,,,,,,,,,,5e94627fbd18cc000995584c,2020-08-10_11h24.23.384,lexical_decision_task_MP,2020.1.3,Win32,60,,m,1,0.795835,,,,,,,,0.795835,1,,,,,,77,WORD,"ID",50,racket,RACKET,m,,,,,,0.008333333,-0.402777778,0,0,0,,0,223,223,76,1,
,,,,,,,,,,,,,,,,,,5e94627fbd18cc000995584c,2020-08-10_11h24.23.384,lexical_decision_task_MP,2020.1.3,Win32,60,,z,1,0.60039,,,,,,,,0.60039,1,,,,,,459,NW,UN,50,mingar,BAFENT,z,,,,,,0.008333333,-0.402777778,0,0,0,,0,224,224,458,1,
,,,,,,,,,,,,,,,,,,5e94627fbd18cc000995584c,2020-08-10_11h24.23.384,lexical_decision_task_MP,2020.1.3,Win32,60,,z,1,0.901995,,,,,,,,0.901995,1,,,,,,261,NW,"ID",33,stunch,STUNCH,z,,,,,,0.008333333,-0.402777778,0,0,0,,0,225,225,260,1,
,,,,,,,,,,,,,,,,,,5e94627fbd18cc000995584c,2020-08-10_11h24.23.384,lexical_decision_task_MP,2020.1.3,Win32,60,,z,1,0.55116,,,,,,,,0.55116,1,,,,,,347,NW,"ID",50,kerift,KERIFT,z,,,,,,0.008333333,-0.402777778,0,0,0,,0,226,226,346,1,
,,,,,,,,,,,,,,,,,,5e94627fbd18cc000995584c,2020-08-10_11h24.23.384,lexical_decision_task_MP,2020.1.3,Win32,60,,z,1,0.588455,,,,,,,,0.588455,1,,,,,,449,NW,UN,50,phrect,BRUNGE,z,,,,,,0.008333333,-0.402777778,0,0,0,,0,227,227,448,1,
,,,,,,,,,,,,,,,,,,5e94627fbd18cc000995584c,2020-08-10_11h24.23.384,lexical_decision_task_MP,2020.1.3,Win32,60,,z,1,0.49659,,,,,,,,0.49659,1,,,,,,405,NW,UN,33,nouply,FLUMNI,z,,,,,,0.008333333,-0.402777778,0,0,0,,0,228,228,404,1,
,,,,,,,,,,,,,,,,,,5e94627fbd18cc000995584c,2020-08-10_11h24.23.384,lexical_decision_task_MP,2020.1.3,Win32,60,,m,1,0.80458,,,,,,,,0.80458,1,,,,,,61,WORD,"ID",50,ponder,PONDER,m,,,,,,0.008333333,-0.402777778,0,0,0,,0,229,229,60,1,
,,,,,,,,,,,,,,,,,,5e94627fbd18cc000995584c,2020-08-10_11h24.23.384,lexical_decision_task_MP,2020.1.3,Win32,60,,z,1,0.55931,,,,,,,,0.55931,1,,,,,,362,NW,UN,33,breali,TIREAU,z,,,,,,0.008333333,-0.402777778,0,0,0,,0,230,230,361,1,
,,,,,,,,,,,,,,,,,,5e94627fbd18cc000995584c,2020-08-10_11h24.23.384,lexical_decision_task_MP,2020.1.3,Win32,60,,z,1,0.952325,,,,,,,,0.952325,1,,,,,,454,NW,UN,50,tondle,SCOUGE,z,,,,,,0.008333333,-0.402777778,0,0,0,,0,231,231,453,1,
,,,,,,,,,,,,,,,,,,5e94627fbd18cc000995584c,2020-08-10_11h24.23.384,lexical_decision_task_MP,2020.1.3,Win32,60,,m,1,0.603285,,,,,,,,0.603285,1,,,,,,130,WORD,UN,33,quench,STUPID,m,,,,,,0.008333333,-0.402777778,0,0,0,,0,232,232,129,1,
,,,,,,,,,,,,,,,,,,5e94627fbd18cc000995584c,2020-08-10_11h24.23.384,lexical_decision_task_MP,2020.1.3,Win32,60,,z,1,0.773825,,,,,,,,0.773825,1,,,,,,431,NW,UN,50,lunker,CHRUMS,z,,,,,,0.008333333,-0.402777778,0,0,0,,0,233,233,430,1,
,,,,,,,,,,,,,,,,,,5e94627fbd18cc000995584c,2020-08-10_11h24.23.384,lexical_decision_task_MP,2020.1.3,Win32,60,,m,1,0.726595,,,,,,,,0.726595,1,,,,,,99,WORD,"ID",50,fluent,FLUENT,m,,,,,,0.008333333,-0.402777778,0,0,0,,0,234,234,98,1,
,,,,,,,,,,,,,,,,,,5e94627fbd18cc000995584c,2020-08-10_11h24.23.384,lexical_decision_task_MP,2020.1.3,Win32,60,,z,1,0.93544,,,,,,,,0.93544,1,,,,,,298,NW,"ID",33,piergy,PIERGY,z,,,,,,0.008333333,-0.402777778,0,0,0,,0,235,235,297,1,
,,,,,,,,,,,,,,,,,,5e94627fbd18cc000995584c,2020-08-10_11h24.23.384,lexical_decision_task_MP,2020.1.3,Win32,60,,z,1,0.7673,,,,,,,,0.7673,1,,,,,,328,NW,"ID",50,broake,BROAKE,z,,,,,,0.008333333,-0.402777778,0,0,0,,0,236,236,327,1,
,,,,,,,,,,,,,,,,,,5e94627fbd18cc000995584c,2020-08-10_11h24.23.384,lexical_decision_task_MP,2020.1.3,Win32,60,,z,1,0.59184,,,,,,,,0.59184,1,,,,,,408,NW,UN,33,flumni,HURNIA,z,,,,,,0.008333333,-0.402777778,0,0,0,,0,237,237,407,1,
,,,,,,,,,,,,,,,,,,5e94627fbd18cc000995584c,2020-08-10_11h24.23.384,lexical_decision_task_MP,2020.1.3,Win32,60,,m,0,0.707075,,,,,,,,0.707075,0,,,,,,285,NW,"ID",33,prudge,PRUDGE,z,,,,,,0.008333333,-0.402777778,0,0,0,,0,238,238,284,1,
,,,,,,,,,,,,,,,,,,5e94627fbd18cc000995584c,2020-08-10_11h24.23.384,lexical_decision_task_MP,2020.1.3,Win32,60,,z,1,0.66645,,,,,,,,0.66645,1,,,,,,416,NW,UN,33,earoud,PATHEL,z,,,,,,0.008333333,-0.402777778,0,0,0,,0,239,239,415,1,
,,,,,,,,,,,,,,,,,,5e94627fbd18cc000995584c,2020-08-10_11h24.23.384,lexical_decision_task_MP,2020.1.3,Win32,60,,z,1,0.823465,,,,,,,,0.823465,1,,,,,,243,NW,"ID",33,musied,MUSIED,z,,,,,,0.008333333,-0.402777778,0,0,0,,0,240,240,242,1,
,,,,,,,,,,,,,,,,,,5e94627fbd18cc000995584c,2020-08-10_11h24.23.384,lexical_decision_task_MP,2020.1.3,Win32,60,,z,1,0.694595,,,,,,,,0.694595,1,,,,,,319,NW,"ID",50,zomber,ZOMBER,z,,,,,,0.008333333,-0.402777778,0,0,0,space,0,241,241,318,1,18.78362
,,,,,,,,,,,,,,,,,,5e94627fbd18cc000995584c,2020-08-10_11h24.23.384,lexical_decision_task_MP,2020.1.3,Win32,60,,m,1,1.700375,,,,,,,,1.700375,1,,,,,,234,WORD,UN,50,lumber,CLUMSY,m,,,,,,0.008333333,-0.402777778,0,0,0,,0,242,242,233,1,
,,,,,,,,,,,,,,,,,,5e94627fbd18cc000995584c,2020-08-10_11h24.23.384,lexical_decision_task_MP,2020.1.3,Win32,60,,z,1,1.00237,,,,,,,,1.00237,1,,,,,,271,NW,"ID",33,aubrid,AUBRID,z,,,,,,0.008333333,-0.402777778,0,0,0,,0,243,243,270,1,
,,,,,,,,,,,,,,,,,,5e94627fbd18cc000995584c,2020-08-10_11h24.23.384,lexical_decision_task_MP,2020.1.3,Win32,60,,m,1,0.76666,,,,,,,,0.76666,1,,,,,,145,WORD,UN,33,couple,PARISH,m,,,,,,0.008333333,-0.402777778,0,0,0,,0,244,244,144,1,
,,,,,,,,,,,,,,,,,,5e94627fbd18cc000995584c,2020-08-10_11h24.23.384,lexical_decision_task_MP,2020.1.3,Win32,60,,z,1,0.57302,,,,,,,,0.57302,1,,,,,,475,NW,UN,50,robuly,PEBRIC,z,,,,,,0.008333333,-0.402777778,0,0,0,,0,245,245,474,1,
,,,,,,,,,,,,,,,,,,5e94627fbd18cc000995584c,2020-08-10_11h24.23.384,lexical_decision_task_MP,2020.1.3,Win32,60,,z,1,0.71317,,,,,,,,0.71317,1,,,,,,462,NW,UN,50,kispel,ABSULT,z,,,,,,0.008333333,-0.402777778,0,0,0,,0,246,246,461,1,
,,,,,,,,,,,,,,,,,,5e94627fbd18cc000995584c,2020-08-10_11h24.23.384,lexical_decision_task_MP,2020.1.3,Win32,60,,m,1,0.573795,,,,,,,,0.573795,1,,,,,,163,WORD,UN,33,market,STRING,m,,,,,,0.008333333,-0.402777778,0,0,0,,0,247,247,162,1,
,,,,,,,,,,,,,,,,,,5e94627fbd18cc000995584c,2020-08-10_11h24.23.384,lexical_decision_task_MP,2020.1.3,Win32,60,,z,1,0.560265,,,,,,,,0.560265,1,,,,,,466,NW,UN,50,pebric,HOCITE,z,,,,,,0.008333333,-0.402777778,0,0,0,,0,248,248,465,1,
,,,,,,,,,,,,,,,,,,5e94627fbd18cc000995584c,2020-08-10_11h24.23.384,lexical_decision_task_MP,2020.1.3,Win32,60,,m,1,0.827145,,,,,,,,0.827145,1,,,,,,183,WORD,UN,50,sleazy,MILDEW,m,,,,,,0.008333333,-0.402777778,0,0,0,,0,249,249,182,1,
,,,,,,,,,,,,,,,,,,5e94627fbd18cc000995584c,2020-08-10_11h24.23.384,lexical_decision_task_MP,2020.1.3,Win32,60,,m,1,0.68361,,,,,,,,0.68361,1,,,,,,59,WORD,"ID",33,splint,SPLINT,m,,,,,,0.008333333,-0.402777778,0,0,0,,0,250,250,58,1,
,,,,,,,,,,,,,,,,,,5e94627fbd18cc000995584c,2020-08-10_11h24.23.384,lexical_decision_task_MP,2020.1.3,Win32,60,,m,1,0.576395,,,,,,,,0.576395,1,,,,,,36,WORD,"ID",33,vanish,VANISH,m,,,,,,0.008333333,-0.402777778,0,0,0,,0,251,251,35,1,
,,,,,,,,,,,,,,,,,,5e94627fbd18cc000995584c,2020-08-10_11h24.23.384,lexical_decision_task_MP,2020.1.3,Win32,60,,z,1,0.64259,,,,,,,,0.64259,1,,,,,,364,NW,UN,33,guairt,IMPOTE,z,,,,,,0.008333333,-0.402777778,0,0,0,,0,252,252,363,1,
,,,,,,,,,,,,,,,,,,5e94627fbd18cc000995584c,2020-08-10_11h24.23.384,lexical_decision_task_MP,2020.1.3,Win32,60,,m,1,0.63391,,,,,,,,0.63391,1,,,,,,170,WORD,UN,33,depart,POUNCE,m,,,,,,0.008333333,-0.402777778,0,0,0,,0,253,253,169,1,
,,,,,,,,,,,,,,,,,,5e94627fbd18cc000995584c,2020-08-10_11h24.23.384,lexical_decision_task_MP,2020.1.3,Win32,60,,z,1,0.75221,,,,,,,,0.75221,1,,,,,,279,NW,"ID",33,celond,CELOND,z,,,,,,0.008333333,-0.402777778,0,0,0,,0,254,254,278,1,
,,,,,,,,,,,,,,,,,,5e94627fbd18cc000995584c,2020-08-10_11h24.23.384,lexical_decision_task_MP,2020.1.3,Win32,60,,m,1,0.622295,,,,,,,,0.622295,1,,,,,,167,WORD,UN,33,answer,DESIGN,m,,,,,,0.008333333,-0.402777778,0,0,0,,0,255,255,166,1,
,,,,,,,,,,,,,,,,,,5e94627fbd18cc000995584c,2020-08-10_11h24.23.384,lexical_decision_task_MP,2020.1.3,Win32,60,,m,1,0.575245,,,,,,,,0.575245,1,,,,,,109,WORD,"ID",50,wonder,WONDER,m,,,,,,0.008333333,-0.402777778,0,0,0,,0,256,256,108,1,
,,,,,,,,,,,,,,,,,,5e94627fbd18cc000995584c,2020-08-10_11h24.23.384,lexical_decision_task_MP,2020.1.3,Win32,60,,m,1,0.622915,,,,,,,,0.622915,1,,,,,,237,WORD,UN,50,seldom,POSTER,m,,,,,,0.008333333,-0.402777778,0,0,0,,0,257,257,236,1,
,,,,,,,,,,,,,,,,,,5e94627fbd18cc000995584c,2020-08-10_11h24.23.384,lexical_decision_task_MP,2020.1.3,Win32,60,,z,1,0.760825,,,,,,,,0.760825,1,,,,,,260,NW,"ID",33,unject,UNJECT,z,,,,,,0.008333333,-0.402777778,0,0,0,,0,258,258,259,1,
,,,,,,,,,,,,,,,,,,5e94627fbd18cc000995584c,2020-08-10_11h24.23.384,lexical_decision_task_MP,2020.1.3,Win32,60,,z,1,0.733055,,,,,,,,0.733055,1,,,,,,357,NW,"ID",50,derain,DERAIN,z,,,,,,0.008333333,-0.402777778,0,0,0,,0,259,259,356,1,
,,,,,,,,,,,,,,,,,,5e94627fbd18cc000995584c,2020-08-10_11h24.23.384,lexical_decision_task_MP,2020.1.3,Win32,60,,z,1,0.711475,,,,,,,,0.711475,1,,,,,,332,NW,"ID",50,vangue,VANGUE,z,,,,,,0.008333333,-0.402777778,0,0,0,,0,260,260,331,1,
,,,,,,,,,,,,,,,,,,5e94627fbd18cc000995584c,2020-08-10_11h24.23.384,lexical_decision_task_MP,2020.1.3,Win32,60,,z,1,0.63423,,,,,,,,0.63423,1,,,,,,333,NW,"ID",50,catrie,CATRIE,z,,,,,,0.008333333,-0.402777778,0,0,0,,0,261,261,332,1,
,,,,,,,,,,,,,,,,,,5e94627fbd18cc000995584c,2020-08-10_11h24.23.384,lexical_decision_task_MP,2020.1.3,Win32,60,,m,1,0.69047,,,,,,,,0.69047,1,,,,,,83,WORD,"ID",50,result,RESULT,m,,,,,,0.008333333,-0.402777778,0,0,0,,0,262,262,82,1,
,,,,,,,,,,,,,,,,,,5e94627fbd18cc000995584c,2020-08-10_11h24.23.384,lexical_decision_task_MP,2020.1.3,Win32,60,,m,1,0.61853,,,,,,,,0.61853,1,,,,,,128,WORD,UN,33,marvel,SENIOR,m,,,,,,0.008333333,-0.402777778,0,0,0,,0,263,263,127,1,
,,,,,,,,,,,,,,,,,,5e94627fbd18cc000995584c,2020-08-10_11h24.23.384,lexical_decision_task_MP,2020.1.3,Win32,60,,m,1,0.61803,,,,,,,,0.61803,1,,,,,,47,WORD,"ID",33,income,INCOME,m,,,,,,0.008333333,-0.402777778,0,0,0,,0,264,264,46,1,
,,,,,,,,,,,,,,,,,,5e94627fbd18cc000995584c,2020-08-10_11h24.23.384,lexical_decision_task_MP,2020.1.3,Win32,60,,z,0,0.578555,,,,,,,,0.578555,0,,,,,,176,WORD,UN,33,advent,STRIFE,m,,,,,,0.008333333,-0.402777778,0,0,0,,0,265,265,175,1,
,,,,,,,,,,,,,,,,,,5e94627fbd18cc000995584c,2020-08-10_11h24.23.384,lexical_decision_task_MP,2020.1.3,Win32,60,,m,1,1.644615,,,,,,,,1.644615,1,,,,,,43,WORD,"ID",33,tongue,TONGUE,m,,,,,,0.008333333,-0.402777778,0,0,0,,0,266,266,42,1,
,,,,,,,,,,,,,,,,,,5e94627fbd18cc000995584c,2020-08-10_11h24.23.384,lexical_decision_task_MP,2020.1.3,Win32,60,,z,1,0.66231,,,,,,,,0.66231,1,,,,,,247,NW,"ID",33,blarge,BLARGE,z,,,,,,0.008333333,-0.402777778,0,0,0,,0,267,267,246,1,
,,,,,,,,,,,,,,,,,,5e94627fbd18cc000995584c,2020-08-10_11h24.23.384,lexical_decision_task_MP,2020.1.3,Win32,60,,m,1,0.619395,,,,,,,,0.619395,1,,,,,,92,WORD,"ID",50,strand,STRAND,m,,,,,,0.008333333,-0.402777778,0,0,0,,0,268,268,91,1,
,,,,,,,,,,,,,,,,,,5e94627fbd18cc000995584c,2020-08-10_11h24.23.384,lexical_decision_task_MP,2020.1.3,Win32,60,,z,1,0.60366,,,,,,,,0.60366,1,,,,,,479,NW,UN,50,josted,LOBUSH,z,,,,,,0.008333333,-0.402777778,0,0,0,,0,269,269,478,1,
,,,,,,,,,,,,,,,,,,5e94627fbd18cc000995584c,2020-08-10_11h24.23.384,lexical_decision_task_MP,2020.1.3,Win32,60,,m,1,0.701885,,,,,,,,0.701885,1,,,,,,62,WORD,"ID",50,region,REGION,m,,,,,,0.008333333,-0.402777778,0,0,0,,0,270,270,61,1,
,,,,,,,,,,,,,,,,,,5e94627fbd18cc000995584c,2020-08-10_11h24.23.384,lexical_decision_task_MP,2020.1.3,Win32,60,,m,1,0.672045,,,,,,,,0.672045,1,,,,,,180,WORD,UN,33,thrive,SILENT,m,,,,,,0.008333333,-0.402777778,0,0,0,,0,271,271,179,1,
,,,,,,,,,,,,,,,,,,5e94627fbd18cc000995584c,2020-08-10_11h24.23.384,lexical_decision_task_MP,2020.1.3,Win32,60,,z,1,0.70125,,,,,,,,0.70125,1,,,,,,377,NW,UN,33,shrile,INJORE,z,,,,,,0.008333333,-0.402777778,0,0,0,,0,272,272,376,1,
,,,,,,,,,,,,,,,,,,5e94627fbd18cc000995584c,2020-08-10_11h24.23.384,lexical_decision_task_MP,2020.1.3,Win32,60,,m,1,0.637265,,,,,,,,0.637265,1,,,,,,38,WORD,"ID",33,powder,POWDER,m,,,,,,0.008333333,-0.402777778,0,0,0,,0,273,273,37,1,
,,,,,,,,,,,,,,,,,,5e94627fbd18cc000995584c,2020-08-10_11h24.23.384,lexical_decision_task_MP,2020.1.3,Win32,60,,z,1,0.57444,,,,,,,,0.57444,1,,,,,,267,NW,"ID",33,pasink,PASINK,z,,,,,,0.008333333,-0.402777778,0,0,0,,0,274,274,266,1,
,,,,,,,,,,,,,,,,,,5e94627fbd18cc000995584c,2020-08-10_11h24.23.384,lexical_decision_task_MP,2020.1.3,Win32,60,,z,1,0.690955,,,,,,,,0.690955,1,,,,,,367,NW,UN,33,hornal,SLIQUE,z,,,,,,0.008333333,-0.402777778,0,0,0,,0,275,275,366,1,
,,,,,,,,,,,,,,,,,,5e94627fbd18cc000995584c,2020-08-10_11h24.23.384,lexical_decision_task_MP,2020.1.3,Win32,60,,m,1,0.60772,,,,,,,,0.60772,1,,,,,,9,WORD,"ID",33,hustle,HUSTLE,m,,,,,,0.008333333,-0.402777778,0,0,0,,0,276,276,8,1,
,,,,,,,,,,,,,,,,,,5e94627fbd18cc000995584c,2020-08-10_11h24.23.384,lexical_decision_task_MP,2020.1.3,Win32,60,,m,1,0.682245,,,,,,,,0.682245,1,,,,,,129,WORD,UN,33,stupid,MARVEL,m,,,,,,0.008333333,-0.402777778,0,0,0,,0,277,277,128,1,
,,,,,,,,,,,,,,,,,,5e94627fbd18cc000995584c,2020-08-10_11h24.23.384,lexical_decision_task_MP,2020.1.3,Win32,60,,m,1,0.638765,,,,,,,,0.638765,1,,,,,,215,WORD,UN,50,behalf,PHOBIA,m,,,,,,0.008333333,-0.402777778,0,0,0,,0,278,278,214,1,
,,,,,,,,,,,,,,,,,,5e94627fbd18cc000995584c,2020-08-10_11h24.23.384,lexical_decision_task_MP,2020.1.3,Win32,60,,m,1,0.60023,,,,,,,,0.60023,1,,,,,,210,WORD,UN,50,infect,MONKEY,m,,,,,,0.008333333,-0.402777778,0,0,0,,0,279,279,209,1,
,,,,,,,,,,,,,,,,,,5e94627fbd18cc000995584c,2020-08-10_11h24.23.384,lexical_decision_task_MP,2020.1.3,Win32,60,,m,1,0.58779,,,,,,,,0.58779,1,,,,,,108,WORD,"ID",50,reckon,RECKON,m,,,,,,0.008333333,-0.402777778,0,0,0,,0,280,280,107,1,
,,,,,,,,,,,,,,,,,,5e94627fbd18cc000995584c,2020-08-10_11h24.23.384,lexical_decision_task_MP,2020.1.3,Win32,60,,m,1,0.56729,,,,,,,,0.56729,1,,,,,,100,WORD,"ID",50,carbon,CARBON,m,,,,,,0.008333333,-0.402777778,0,0,0,,0,281,281,99,1,
,,,,,,,,,,,,,,,,,,5e94627fbd18cc000995584c,2020-08-10_11h24.23.384,lexical_decision_task_MP,2020.1.3,Win32,60,,m,1,0.792835,,,,,,,,0.792835,1,,,,,,214,WORD,UN,50,phobia,INTAKE,m,,,,,,0.008333333,-0.402777778,0,0,0,,0,282,282,213,1,
,,,,,,,,,,,,,,,,,,5e94627fbd18cc000995584c,2020-08-10_11h24.23.384,lexical_decision_task_MP,2020.1.3,Win32,60,,z,1,0.62943,,,,,,,,0.62943,1,,,,,,388,NW,UN,33,witmer,CRAGIN,z,,,,,,0.008333333,-0.402777778,0,0,0,,0,283,283,387,1,
,,,,,,,,,,,,,,,,,,5e94627fbd18cc000995584c,2020-08-10_11h24.23.384,lexical_decision_task_MP,2020.1.3,Win32,60,,z,1,0.53424,,,,,,,,0.53424,1,,,,,,427,NW,UN,50,tandly,SCHIND,z,,,,,,0.008333333,-0.402777778,0,0,0,,0,284,284,426,1,
,,,,,,,,,,,,,,,,,,5e94627fbd18cc000995584c,2020-08-10_11h24.23.384,lexical_decision_task_MP,2020.1.3,Win32,60,,z,1,0.508645,,,,,,,,0.508645,1,,,,,,443,NW,UN,50,jaunce,DORSEX,z,,,,,,0.008333333,-0.402777778,0,0,0,,0,285,285,442,1,
,,,,,,,,,,,,,,,,,,5e94627fbd18cc000995584c,2020-08-10_11h24.23.384,lexical_decision_task_MP,2020.1.3,Win32,60,,m,1,0.58648,,,,,,,,0.58648,1,,,,,,42,WORD,"ID",33,chapel,CHAPEL,m,,,,,,0.008333333,-0.402777778,0,0,0,,0,286,286,41,1,
,,,,,,,,,,,,,,,,,,5e94627fbd18cc000995584c,2020-08-10_11h24.23.384,lexical_decision_task_MP,2020.1.3,Win32,60,,m,1,0.53423,,,,,,,,0.53423,1,,,,,,164,WORD,UN,33,invest,MARKET,m,,,,,,0.008333333,-0.402777778,0,0,0,,0,287,287,163,1,
,,,,,,,,,,,,,,,,,,5e94627fbd18cc000995584c,2020-08-10_11h24.23.384,lexical_decision_task_MP,2020.1.3,Win32,60,,z,1,0.541475,,,,,,,,0.541475,1,,,,,,318,NW,"ID",50,reagly,REAGLY,z,,,,,,0.008333333,-0.402777778,0,0,0,,0,288,288,317,1,
,,,,,,,,,,,,,,,,,,5e94627fbd18cc000995584c,2020-08-10_11h24.23.384,lexical_decision_task_MP,2020.1.3,Win32,60,,z,1,0.62529,,,,,,,,0.62529,1,,,,,,469,NW,UN,50,crudio,PADIFS,z,,,,,,0.008333333,-0.402777778,0,0,0,,0,289,289,468,1,
,,,,,,,,,,,,,,,,,,5e94627fbd18cc000995584c,2020-08-10_11h24.23.384,lexical_decision_task_MP,2020.1.3,Win32,60,,z,1,0.54054,,,,,,,,0.54054,1,,,,,,259,NW,"ID",33,soudal,SOUDAL,z,,,,,,0.008333333,-0.402777778,0,0,0,,0,290,290,258,1,
,,,,,,,,,,,,,,,,,,5e94627fbd18cc000995584c,2020-08-10_11h24.23.384,lexical_decision_task_MP,2020.1.3,Win32,60,,m,1,0.65565,,,,,,,,0.65565,1,,,,,,71,WORD,"ID",50,garden,GARDEN,m,,,,,,0.008333333,-0.402777778,0,0,0,,0,291,291,70,1,
,,,,,,,,,,,,,,,,,,5e94627fbd18cc000995584c,2020-08-10_11h24.23.384,lexical_decision_task_MP,2020.1.3,Win32,60,,m,0,0.870355,,,,,,,,0.870355,0,,,,,,460,NW,UN,50,justre,MINGAR,z,,,,,,0.008333333,-0.402777778,0,0,0,,0,292,292,459,1,
,,,,,,,,,,,,,,,,,,5e94627fbd18cc000995584c,2020-08-10_11h24.23.384,lexical_decision_task_MP,2020.1.3,Win32,60,,m,1,0.64459,,,,,,,,0.64459,1,,,,,,11,WORD,"ID",33,cruise,CRUISE,m,,,,,,0.008333333,-0.402777778,0,0,0,,0,293,293,10,1,
,,,,,,,,,,,,,,,,,,5e94627fbd18cc000995584c,2020-08-10_11h24.23.384,lexical_decision_task_MP,2020.1.3,Win32,60,,m,1,0.634595,,,,,,,,0.634595,1,,,,,,141,WORD,UN,33,spruce,ORPHAN,m,,,,,,0.008333333,-0.402777778,0,0,0,,0,294,294,140,1,
,,,,,,,,,,,,,,,,,,5e94627fbd18cc000995584c,2020-08-10_11h24.23.384,lexical_decision_task_MP,2020.1.3,Win32,60,,z,1,0.845765,,,,,,,,0.845765,1,,,,,,320,NW,"ID",50,jockal,JOCKAL,z,,,,,,0.008333333,-0.402777778,0,0,0,,0,295,295,319,1,
,,,,,,,,,,,,,,,,,,5e94627fbd18cc000995584c,2020-08-10_11h24.23.384,lexical_decision_task_MP,2020.1.3,Win32,60,,z,1,0.767065,,,,,,,,0.767065,1,,,,,,450,NW,UN,50,rastoe,PHRECT,z,,,,,,0.008333333,-0.402777778,0,0,0,,0,296,296,449,1,
,,,,,,,,,,,,,,,,,,5e94627fbd18cc000995584c,2020-08-10_11h24.23.384,lexical_decision_task_MP,2020.1.3,Win32,60,,m,1,0.90206,,,,,,,,0.90206,1,,,,,,35,WORD,"ID",33,socket,SOCKET,m,,,,,,0.008333333,-0.402777778,0,0,0,,0,297,297,34,1,
,,,,,,,,,,,,,,,,,,5e94627fbd18cc000995584c,2020-08-10_11h24.23.384,lexical_decision_task_MP,2020.1.3,Win32,60,,m,1,0.62743,,,,,,,,0.62743,1,,,,,,37,WORD,"ID",33,insult,INSULT,m,,,,,,0.008333333,-0.402777778,0,0,0,,0,298,298,36,1,
,,,,,,,,,,,,,,,,,,5e94627fbd18cc000995584c,2020-08-10_11h24.23.384,lexical_decision_task_MP,2020.1.3,Win32,60,,z,1,0.621465,,,,,,,,0.621465,1,,,,,,409,NW,UN,33,tunory,ELOPIA,z,,,,,,0.008333333,-0.402777778,0,0,0,,0,299,299,408,1,
,,,,,,,,,,,,,,,,,,5e94627fbd18cc000995584c,2020-08-10_11h24.23.384,lexical_decision_task_MP,2020.1.3,Win32,60,,z,1,0.541765,,,,,,,,0.541765,1,,,,,,394,NW,UN,33,colury,SPAQUX,z,,,,,,0.008333333,-0.402777778,0,0,0,,0,300,300,393,1,
,,,,,,,,,,,,,,,,,,5e94627fbd18cc000995584c,2020-08-10_11h24.23.384,lexical_decision_task_MP,2020.1.3,Win32,60,,z,1,0.735995,,,,,,,,0.735995,1,,,,,,257,NW,"ID",33,veniod,VENIOD,z,,,,,,0.008333333,-0.402777778,0,0,0,,0,301,301,256,1,
,,,,,,,,,,,,,,,,,,5e94627fbd18cc000995584c,2020-08-10_11h24.23.384,lexical_decision_task_MP,2020.1.3,Win32,60,,z,0,0.56789,,,,,,,,0.56789,0,,,,,,218,WORD,UN,50,bucket,SHRINK,m,,,,,,0.008333333,-0.402777778,0,0,0,,0,302,302,217,1,
,,,,,,,,,,,,,,,,,,5e94627fbd18cc000995584c,2020-08-10_11h24.23.384,lexical_decision_task_MP,2020.1.3,Win32,60,,z,1,1.4659,,,,,,,,1.4659,1,,,,,,273,NW,"ID",33,sortel,SORTEL,z,,,,,,0.008333333,-0.402777778,0,0,0,,0,303,303,272,1,
,,,,,,,,,,,,,,,,,,5e94627fbd18cc000995584c,2020-08-10_11h24.23.384,lexical_decision_task_MP,2020.1.3,Win32,60,,m,1,0.67075,,,,,,,,0.67075,1,,,,,,33,WORD,"ID",33,butler,BUTLER,m,,,,,,0.008333333,-0.402777778,0,0,0,,0,304,304,32,1,
,,,,,,,,,,,,,,,,,,5e94627fbd18cc000995584c,2020-08-10_11h24.23.384,lexical_decision_task_MP,2020.1.3,Win32,60,,z,1,0.66202,,,,,,,,0.66202,1,,,,,,294,NW,"ID",33,inhort,INHORT,z,,,,,,0.008333333,-0.402777778,0,0,0,,0,305,305,293,1,
,,,,,,,,,,,,,,,,,,5e94627fbd18cc000995584c,2020-08-10_11h24.23.384,lexical_decision_task_MP,2020.1.3,Win32,60,,z,1,0.72493,,,,,,,,0.72493,1,,,,,,340,NW,"ID",50,fiatch,FIATCH,z,,,,,,0.008333333,-0.402777778,0,0,0,,0,306,306,339,1,
,,,,,,,,,,,,,,,,,,5e94627fbd18cc000995584c,2020-08-10_11h24.23.384,lexical_decision_task_MP,2020.1.3,Win32,60,,m,1,0.69924,,,,,,,,0.69924,1,,,,,,106,WORD,"ID",50,ransom,RANSOM,m,,,,,,0.008333333,-0.402777778,0,0,0,,0,307,307,105,1,
,,,,,,,,,,,,,,,,,,5e94627fbd18cc000995584c,2020-08-10_11h24.23.384,lexical_decision_task_MP,2020.1.3,Win32,60,,m,1,0.67665,,,,,,,,0.67665,1,,,,,,236,WORD,UN,50,poster,PIRATE,m,,,,,,0.008333333,-0.402777778,0,0,0,,0,308,308,235,1,
,,,,,,,,,,,,,,,,,,5e94627fbd18cc000995584c,2020-08-10_11h24.23.384,lexical_decision_task_MP,2020.1.3,Win32,60,,z,1,0.554225,,,,,,,,0.554225,1,,,,,,327,NW,"ID",50,plenac,PLENAC,z,,,,,,0.008333333,-0.402777778,0,0,0,,0,309,309,326,1,
,,,,,,,,,,,,,,,,,,5e94627fbd18cc000995584c,2020-08-10_11h24.23.384,lexical_decision_task_MP,2020.1.3,Win32,60,,z,1,0.684685,,,,,,,,0.684685,1,,,,,,287,NW,"ID",33,nymbel,NYMBEL,z,,,,,,0.008333333,-0.402777778,0,0,0,,0,310,310,286,1,
,,,,,,,,,,,,,,,,,,5e94627fbd18cc000995584c,2020-08-10_11h24.23.384,lexical_decision_task_MP,2020.1.3,Win32,60,,m,1,0.644705,,,,,,,,0.644705,1,,,,,,165,WORD,UN,33,starch,INVEST,m,,,,,,0.008333333,-0.402777778,0,0,0,,0,311,311,164,1,
,,,,,,,,,,,,,,,,,,5e94627fbd18cc000995584c,2020-08-10_11h24.23.384,lexical_decision_task_MP,2020.1.3,Win32,60,,m,1,0.63414,,,,,,,,0.63414,1,,,,,,193,WORD,UN,50,plague,OBJECT,m,,,,,,0.008333333,-0.402777778,0,0,0,,0,312,312,192,1,
,,,,,,,,,,,,,,,,,,5e94627fbd18cc000995584c,2020-08-10_11h24.23.384,lexical_decision_task_MP,2020.1.3,Win32,60,,m,1,0.54003,,,,,,,,0.54003,1,,,,,,152,WORD,UN,33,behold,ROCKET,m,,,,,,0.008333333,-0.402777778,0,0,0,,0,313,313,151,1,
,,,,,,,,,,,,,,,,,,5e94627fbd18cc000995584c,2020-08-10_11h24.23.384,lexical_decision_task_MP,2020.1.3,Win32,60,,z,1,0.57599,,,,,,,,0.57599,1,,,,,,263,NW,"ID",33,dolica,DOLICA,z,,,,,,0.008333333,-0.402777778,0,0,0,,0,314,314,262,1,
,,,,,,,,,,,,,,,,,,5e94627fbd18cc000995584c,2020-08-10_11h24.23.384,lexical_decision_task_MP,2020.1.3,Win32,60,,z,1,0.607585,,,,,,,,0.607585,1,,,,,,253,NW,"ID",33,resait,RESAIT,z,,,,,,0.008333333,-0.402777778,0,0,0,,0,315,315,252,1,
,,,,,,,,,,,,,,,,,,5e94627fbd18cc000995584c,2020-08-10_11h24.23.384,lexical_decision_task_MP,2020.1.3,Win32,60,,m,1,0.72255,,,,,,,,0.72255,1,,,,,,122,WORD,UN,33,strike,LINGER,m,,,,,,0.008333333,-0.402777778,0,0,0,,0,316,316,121,1,
,,,,,,,,,,,,,,,,,,5e94627fbd18cc000995584c,2020-08-10_11h24.23.384,lexical_decision_task_MP,2020.1.3,Win32,60,,z,1,0.726815,,,,,,,,0.726815,1,,,,,,455,NW,UN,50,broget,TONDLE,z,,,,,,0.008333333,-0.402777778,0,0,0,,0,317,317,454,1,
,,,,,,,,,,,,,,,,,,5e94627fbd18cc000995584c,2020-08-10_11h24.23.384,lexical_decision_task_MP,2020.1.3,Win32,60,,m,0,0.86033,,,,,,,,0.86033,0,,,,,,266,NW,"ID",33,varmit,VARMIT,z,,,,,,0.008333333,-0.402777778,0,0,0,,0,318,318,265,1,
,,,,,,,,,,,,,,,,,,5e94627fbd18cc000995584c,2020-08-10_11h24.23.384,lexical_decision_task_MP,2020.1.3,Win32,60,,z,1,0.649545,,,,,,,,0.649545,1,,,,,,352,NW,"ID",50,tringe,TRINGE,z,,,,,,0.008333333,-0.402777778,0,0,0,,0,319,319,351,1,
,,,,,,,,,,,,,,,,,,5e94627fbd18cc000995584c,2020-08-10_11h24.23.384,lexical_decision_task_MP,2020.1.3,Win32,60,,m,1,0.669255,,,,,,,,0.669255,1,,,,,,123,WORD,UN,33,enough,STRIKE,m,,,,,,0.008333333,-0.402777778,0,0,0,,0,320,320,122,1,
,,,,,,,,,,,,,,,,,,5e94627fbd18cc000995584c,2020-08-10_11h24.23.384,lexical_decision_task_MP,2020.1.3,Win32,60,,m,1,0.60784,,,,,,,,0.60784,1,,,,,,125,WORD,UN,33,blouse,NICKEL,m,,,,,,0.008333333,-0.402777778,0,0,0,,0,321,321,124,1,
,,,,,,,,,,,,,,,,,,5e94627fbd18cc000995584c,2020-08-10_11h24.23.384,lexical_decision_task_MP,2020.1.3,Win32,60,,m,1,0.68291,,,,,,,,0.68291,1,,,,,,55,WORD,"ID",33,stroke,STROKE,m,,,,,,0.008333333,-0.402777778,0,0,0,,0,322,322,54,1,
,,,,,,,,,,,,,,,,,,5e94627fbd18cc000995584c,2020-08-10_11h24.23.384,lexical_decision_task_MP,2020.1.3,Win32,60,,m,1,0.735025,,,,,,,,0.735025,1,,,,,,80,WORD,"ID",50,family,FAMILY,m,,,,,,0.008333333,-0.402777778,0,0,0,,0,323,323,79,1,
,,,,,,,,,,,,,,,,,,5e94627fbd18cc000995584c,2020-08-10_11h24.23.384,lexical_decision_task_MP,2020.1.3,Win32,60,,m,1,0.582525,,,,,,,,0.582525,1,,,,,,18,WORD,"ID",33,humble,HUMBLE,m,,,,,,0.008333333,-0.402777778,0,0,0,,0,324,324,17,1,
,,,,,,,,,,,,,,,,,,5e94627fbd18cc000995584c,2020-08-10_11h24.23.384,lexical_decision_task_MP,2020.1.3,Win32,60,,m,1,0.540145,,,,,,,,0.540145,1,,,,,,51,WORD,"ID",33,hungry,HUNGRY,m,,,,,,0.008333333,-0.402777778,0,0,0,,0,325,325,50,1,
,,,,,,,,,,,,,,,,,,5e94627fbd18cc000995584c,2020-08-10_11h24.23.384,lexical_decision_task_MP,2020.1.3,Win32,60,,z,1,0.585525,,,,,,,,0.585525,1,,,,,,452,NW,UN,50,bolvis,SURDEN,z,,,,,,0.008333333,-0.402777778,0,0,0,,0,326,326,451,1,
,,,,,,,,,,,,,,,,,,5e94627fbd18cc000995584c,2020-08-10_11h24.23.384,lexical_decision_task_MP,2020.1.3,Win32,60,,m,1,0.60981,,,,,,,,0.60981,1,,,,,,195,WORD,UN,50,credit,RESIGN,m,,,,,,0.008333333,-0.402777778,0,0,0,,0,327,327,194,1,
,,,,,,,,,,,,,,,,,,5e94627fbd18cc000995584c,2020-08-10_11h24.23.384,lexical_decision_task_MP,2020.1.3,Win32,60,,m,1,0.57069,,,,,,,,0.57069,1,,,,,,101,WORD,"ID",50,wrench,WRENCH,m,,,,,,0.008333333,-0.402777778,0,0,0,,0,328,328,100,1,
,,,,,,,,,,,,,,,,,,5e94627fbd18cc000995584c,2020-08-10_11h24.23.384,lexical_decision_task_MP,2020.1.3,Win32,60,,z,1,0.50819,,,,,,,,0.50819,1,,,,,,434,NW,UN,50,impurb,PITROM,z,,,,,,0.008333333,-0.402777778,0,0,0,,0,329,329,433,1,
,,,,,,,,,,,,,,,,,,5e94627fbd18cc000995584c,2020-08-10_11h24.23.384,lexical_decision_task_MP,2020.1.3,Win32,60,,z,1,0.59368,,,,,,,,0.59368,1,,,,,,419,NW,UN,33,gushop,SLOUNT,z,,,,,,0.008333333,-0.402777778,0,0,0,,0,330,330,418,1,
,,,,,,,,,,,,,,,,,,5e94627fbd18cc000995584c,2020-08-10_11h24.23.384,lexical_decision_task_MP,2020.1.3,Win32,60,,m,1,0.683395,,,,,,,,0.683395,1,,,,,,171,WORD,UN,33,patrol,DEPART,m,,,,,,0.008333333,-0.402777778,0,0,0,,0,331,331,170,1,
,,,,,,,,,,,,,,,,,,5e94627fbd18cc000995584c,2020-08-10_11h24.23.384,lexical_decision_task_MP,2020.1.3,Win32,60,,z,1,0.754855,,,,,,,,0.754855,1,,,,,,414,NW,UN,33,higsta,SERBOL,z,,,,,,0.008333333,-0.402777778,0,0,0,,0,332,332,413,1,
,,,,,,,,,,,,,,,,,,5e94627fbd18cc000995584c,2020-08-10_11h24.23.384,lexical_decision_task_MP,2020.1.3,Win32,60,,z,1,0.612875,,,,,,,,0.612875,1,,,,,,326,NW,"ID",50,iguade,IGUADE,z,,,,,,0.008333333,-0.402777778,0,0,0,,0,333,333,325,1,
,,,,,,,,,,,,,,,,,,5e94627fbd18cc000995584c,2020-08-10_11h24.23.384,lexical_decision_task_MP,2020.1.3,Win32,60,,z,1,0.65107,,,,,,,,0.65107,1,,,,,,356,NW,"ID",50,othnis,OTHNIS,z,,,,,,0.008333333,-0.402777778,0,0,0,,0,334,334,355,1,
,,,,,,,,,,,,,,,,,,5e94627fbd18cc000995584c,2020-08-10_11h24.23.384,lexical_decision_task_MP,2020.1.3,Win32,60,,m,1,0.64515,,,,,,,,0.64515,1,,,,,,136,WORD,UN,33,finger,BLEACH,m,,,,,,0.008333333,-0.402777778,0,0,0,,0,335,335,135,1,
,,,,,,,,,,,,,,,,,,5e94627fbd18cc000995584c,2020-08-10_11h24.23.384,lexical_decision_task_MP,2020.1.3,Win32,60,,m,1,0.5845,,,,,,,,0.5845,1,,,,,,48,WORD,"ID",33,walnut,WALNUT,m,,,,,,0.008333333,-0.402777778,0,0,0,,0,336,336,47,1,
,,,,,,,,,,,,,,,,,,5e94627fbd18cc000995584c,2020-08-10_11h24.23.384,lexical_decision_task_MP,2020.1.3,Win32,60,,m,1,0.532435,,,,,,,,0.532435,1,,,,,,132,WORD,UN,33,bleach,STRONG,m,,,,,,0.008333333,-0.402777778,0,0,0,,0,337,337,131,1,
,,,,,,,,,,,,,,,,,,5e94627fbd18cc000995584c,2020-08-10_11h24.23.384,lexical_decision_task_MP,2020.1.3,Win32,60,,m,1,0.665285,,,,,,,,0.665285,1,,,,,,235,WORD,UN,50,pirate,GRUMPY,m,,,,,,0.008333333,-0.402777778,0,0,0,,0,338,338,234,1,
,,,,,,,,,,,,,,,,,,5e94627fbd18cc000995584c,2020-08-10_11h24.23.384,lexical_decision_task_MP,2020.1.3,Win32,60,,m,1,0.73649,,,,,,,,0.73649,1,,,,,,221,WORD,UN,50,hinder,MASCOT,m,,,,,,0.008333333,-0.402777778,0,0,0,,0,339,339,220,1,
,,,,,,,,,,,,,,,,,,5e94627fbd18cc000995584c,2020-08-10_11h24.23.384,lexical_decision_task_MP,2020.1.3,Win32,60,,m,1,0.63654,,,,,,,,0.63654,1,,,,,,19,WORD,"ID",33,patron,PATRON,m,,,,,,0.008333333,-0.402777778,0,0,0,,0,340,340,18,1,
,,,,,,,,,,,,,,,,,,5e94627fbd18cc000995584c,2020-08-10_11h24.23.384,lexical_decision_task_MP,2020.1.3,Win32,60,,m,1,0.635245,,,,,,,,0.635245,1,,,,,,229,WORD,UN,50,fringe,MOTHER,m,,,,,,0.008333333,-0.402777778,0,0,0,,0,341,341,228,1,
,,,,,,,,,,,,,,,,,,5e94627fbd18cc000995584c,2020-08-10_11h24.23.384,lexical_decision_task_MP,2020.1.3,Win32,60,,z,1,0.6342,,,,,,,,0.6342,1,,,,,,400,NW,UN,33,mustil,WEAROX,z,,,,,,0.008333333,-0.402777778,0,0,0,,0,342,342,399,1,
,,,,,,,,,,,,,,,,,,5e94627fbd18cc000995584c,2020-08-10_11h24.23.384,lexical_decision_task_MP,2020.1.3,Win32,60,,m,1,0.539525,,,,,,,,0.539525,1,,,,,,173,WORD,UN,33,turkey,SHOWER,m,,,,,,0.008333333,-0.402777778,0,0,0,,0,343,343,172,1,
,,,,,,,,,,,,,,,,,,5e94627fbd18cc000995584c,2020-08-10_11h24.23.384,lexical_decision_task_MP,2020.1.3,Win32,60,,z,1,0.56454,,,,,,,,0.56454,1,,,,,,429,NW,UN,50,caroey,FUNTLE,z,,,,,,0.008333333,-0.402777778,0,0,0,,0,344,344,428,1,
,,,,,,,,,,,,,,,,,,5e94627fbd18cc000995584c,2020-08-10_11h24.23.384,lexical_decision_task_MP,2020.1.3,Win32,60,,m,1,0.786875,,,,,,,,0.786875,1,,,,,,8,WORD,"ID",33,abrupt,ABRUPT,m,,,,,,0.008333333,-0.402777778,0,0,0,,0,345,345,7,1,
,,,,,,,,,,,,,,,,,,5e94627fbd18cc000995584c,2020-08-10_11h24.23.384,lexical_decision_task_MP,2020.1.3,Win32,60,,m,1,0.658755,,,,,,,,0.658755,1,,,,,,172,WORD,UN,33,shower,PATROL,m,,,,,,0.008333333,-0.402777778,0,0,0,,0,346,346,171,1,
,,,,,,,,,,,,,,,,,,5e94627fbd18cc000995584c,2020-08-10_11h24.23.384,lexical_decision_task_MP,2020.1.3,Win32,60,,z,1,0.60958,,,,,,,,0.60958,1,,,,,,396,NW,UN,33,camble,FLENGY,z,,,,,,0.008333333,-0.402777778,0,0,0,,0,347,347,395,1,
,,,,,,,,,,,,,,,,,,5e94627fbd18cc000995584c,2020-08-10_11h24.23.384,lexical_decision_task_MP,2020.1.3,Win32,60,,z,1,0.596825,,,,,,,,0.596825,1,,,,,,270,NW,"ID",33,wrimsy,WRIMSY,z,,,,,,0.008333333,-0.402777778,0,0,0,,0,348,348,269,1,
,,,,,,,,,,,,,,,,,,5e94627fbd18cc000995584c,2020-08-10_11h24.23.384,lexical_decision_task_MP,2020.1.3,Win32,60,,m,1,0.708155,,,,,,,,0.708155,1,,,,,,184,WORD,UN,50,bother,SLEAZY,m,,,,,,0.008333333,-0.402777778,0,0,0,,0,349,349,183,1,
,,,,,,,,,,,,,,,,,,5e94627fbd18cc000995584c,2020-08-10_11h24.23.384,lexical_decision_task_MP,2020.1.3,Win32,60,,m,1,0.53369,,,,,,,,0.53369,1,,,,,,103,WORD,"ID",50,bounce,BOUNCE,m,,,,,,0.008333333,-0.402777778,0,0,0,,0,350,350,102,1,
,,,,,,,,,,,,,,,,,,5e94627fbd18cc000995584c,2020-08-10_11h24.23.384,lexical_decision_task_MP,2020.1.3,Win32,60,,z,1,0.62226,,,,,,,,0.62226,1,,,,,,451,NW,UN,50,surden,CAINKY,z,,,,,,0.008333333,-0.402777778,0,0,0,,0,351,351,450,1,
,,,,,,,,,,,,,,,,,,5e94627fbd18cc000995584c,2020-08-10_11h24.23.384,lexical_decision_task_MP,2020.1.3,Win32,60,,m,1,0.63236,,,,,,,,0.63236,1,,,,,,23,WORD,"ID",33,wealth,WEALTH,m,,,,,,0.008333333,-0.402777778,0,0,0,,0,352,352,22,1,
,,,,,,,,,,,,,,,,,,5e94627fbd18cc000995584c,2020-08-10_11h24.23.384,lexical_decision_task_MP,2020.1.3,Win32,60,,m,1,0.733225,,,,,,,,0.733225,1,,,,,,192,WORD,UN,50,object,PLAGUE,m,,,,,,0.008333333,-0.402777778,0,0,0,,0,353,353,191,1,
,,,,,,,,,,,,,,,,,,5e94627fbd18cc000995584c,2020-08-10_11h24.23.384,lexical_decision_task_MP,2020.1.3,Win32,60,,m,1,0.7692,,,,,,,,0.7692,1,,,,,,220,WORD,UN,50,mascot,VOYAGE,m,,,,,,0.008333333,-0.402777778,0,0,0,,0,354,354,219,1,
,,,,,,,,,,,,,,,,,,5e94627fbd18cc000995584c,2020-08-10_11h24.23.384,lexical_decision_task_MP,2020.1.3,Win32,60,,z,1,0.64427,,,,,,,,0.64427,1,,,,,,292,NW,"ID",33,ablint,ABLINT,z,,,,,,0.008333333,-0.402777778,0,0,0,,0,355,355,291,1,
,,,,,,,,,,,,,,,,,,5e94627fbd18cc000995584c,2020-08-10_11h24.23.384,lexical_decision_task_MP,2020.1.3,Win32,60,,z,1,0.66711,,,,,,,,0.66711,1,,,,,,390,NW,UN,33,theldy,HATRUS,z,,,,,,0.008333333,-0.402777778,0,0,0,,0,356,356,389,1,
,,,,,,,,,,,,,,,,,,5e94627fbd18cc000995584c,2020-08-10_11h24.23.384,lexical_decision_task_MP,2020.1.3,Win32,60,,m,1,0.745655,,,,,,,,0.745655,1,,,,,,1,WORD,"ID",33,fright,FRIGHT,m,,,,,,0.008333333,-0.402777778,0,0,0,,0,357,357,0,1,
,,,,,,,,,,,,,,,,,,5e94627fbd18cc000995584c,2020-08-10_11h24.23.384,lexical_decision_task_MP,2020.1.3,Win32,60,,z,1,0.717625,,,,,,,,0.717625,1,,,,,,256,NW,"ID",33,inlors,INLORS,z,,,,,,0.008333333,-0.402777778,0,0,0,,0,358,358,255,1,
,,,,,,,,,,,,,,,,,,5e94627fbd18cc000995584c,2020-08-10_11h24.23.384,lexical_decision_task_MP,2020.1.3,Win32,60,,m,1,0.63622,,,,,,,,0.63622,1,,,,,,25,WORD,"ID",33,domain,DOMAIN,m,,,,,,0.008333333,-0.402777778,0,0,0,,0,359,359,24,1,
,,,,,,,,,,,,,,,,,,5e94627fbd18cc000995584c,2020-08-10_11h24.23.384,lexical_decision_task_MP,2020.1.3,Win32,60,,z,1,0.61061,,,,,,,,0.61061,1,,,,,,339,NW,"ID",50,fachow,FACHOW,z,,,,,,0.008333333,-0.402777778,0,0,0,,0,360,360,338,1,
,,,,,,,,,,,,,,,,,,5e94627fbd18cc000995584c,2020-08-10_11h24.23.384,lexical_decision_task_MP,2020.1.3,Win32,60,,m,1,0.634015,,,,,,,,0.634015,1,,,,,,94,WORD,"ID",50,travel,TRAVEL,m,,,,,,0.008333333,-0.402777778,0,0,0,,0,361,361,93,1,
,,,,,,,,,,,,,,,,,,5e94627fbd18cc000995584c,2020-08-10_11h24.23.384,lexical_decision_task_MP,2020.1.3,Win32,60,,m,1,0.643015,,,,,,,,0.643015,1,,,,,,150,WORD,UN,33,mystic,RANDOM,m,,,,,,0.008333333,-0.402777778,0,0,0,space,0,362,362,149,1,13.08339
,,,,,,,,,,,,,,,,,,5e94627fbd18cc000995584c,2020-08-10_11h24.23.384,lexical_decision_task_MP,2020.1.3,Win32,60,,m,1,0.598175,,,,,,,,0.598175,1,,,,,,161,WORD,UN,33,candle,PASTOR,m,,,,,,0.008333333,-0.402777778,0,0,0,,0,363,363,160,1,
,,,,,,,,,,,,,,,,,,5e94627fbd18cc000995584c,2020-08-10_11h24.23.384,lexical_decision_task_MP,2020.1.3,Win32,60,,z,1,0.60886,,,,,,,,0.60886,1,,,,,,389,NW,UN,33,hatrus,WITMER,z,,,,,,0.008333333,-0.402777778,0,0,0,,0,364,364,388,1,
,,,,,,,,,,,,,,,,,,5e94627fbd18cc000995584c,2020-08-10_11h24.23.384,lexical_decision_task_MP,2020.1.3,Win32,60,,m,1,0.689525,,,,,,,,0.689525,1,,,,,,98,WORD,"ID",50,belong,BELONG,m,,,,,,0.008333333,-0.402777778,0,0,0,,0,365,365,97,1,
,,,,,,,,,,,,,,,,,,5e94627fbd18cc000995584c,2020-08-10_11h24.23.384,lexical_decision_task_MP,2020.1.3,Win32,60,,m,1,0.53946,,,,,,,,0.53946,1,,,,,,91,WORD,"ID",50,expand,EXPAND,m,,,,,,0.008333333,-0.402777778,0,0,0,,0,366,366,90,1,
,,,,,,,,,,,,,,,,,,5e94627fbd18cc000995584c,2020-08-10_11h24.23.384,lexical_decision_task_MP,2020.1.3,Win32,60,,m,1,0.64968,,,,,,,,0.64968,1,,,,,,16,WORD,"ID",33,faucet,FAUCET,m,,,,,,0.008333333,-0.402777778,0,0,0,,0,367,367,15,1,
,,,,,,,,,,,,,,,,,,5e94627fbd18cc000995584c,2020-08-10_11h24.23.384,lexical_decision_task_MP,2020.1.3,Win32,60,,m,1,0.48495,,,,,,,,0.48495,1,,,,,,73,WORD,"ID",50,source,SOURCE,m,,,,,,0.008333333,-0.402777778,0,0,0,,0,368,368,72,1,
,,,,,,,,,,,,,,,,,,5e94627fbd18cc000995584c,2020-08-10_11h24.23.384,lexical_decision_task_MP,2020.1.3,Win32,60,,z,1,0.70309,,,,,,,,0.70309,1,,,,,,372,NW,UN,33,bigent,RAMILY,z,,,,,,0.008333333,-0.402777778,0,0,0,,0,369,369,371,1,
,,,,,,,,,,,,,,,,,,5e94627fbd18cc000995584c,2020-08-10_11h24.23.384,lexical_decision_task_MP,2020.1.3,Win32,60,,m,1,0.86044,,,,,,,,0.86044,1,,,,,,40,WORD,"ID",33,convey,CONVEY,m,,,,,,0.008333333,-0.402777778,0,0,0,,0,370,370,39,1,
,,,,,,,,,,,,,,,,,,5e94627fbd18cc000995584c,2020-08-10_11h24.23.384,lexical_decision_task_MP,2020.1.3,Win32,60,,z,1,0.539635,,,,,,,,0.539635,1,,,,,,463,NW,UN,50,bafent,KISPEL,z,,,,,,0.008333333,-0.402777778,0,0,0,,0,371,371,462,1,
,,,,,,,,,,,,,,,,,,5e94627fbd18cc000995584c,2020-08-10_11h24.23.384,lexical_decision_task_MP,2020.1.3,Win32,60,,m,1,0.61726,,,,,,,,0.61726,1,,,,,,137,WORD,UN,33,melody,FINGER,m,,,,,,0.008333333,-0.402777778,0,0,0,,0,372,372,136,1,
,,,,,,,,,,,,,,,,,,5e94627fbd18cc000995584c,2020-08-10_11h24.23.384,lexical_decision_task_MP,2020.1.3,Win32,60,,m,1,0.71462,,,,,,,,0.71462,1,,,,,,32,WORD,"ID",33,buckle,BUCKLE,m,,,,,,0.008333333,-0.402777778,0,0,0,,0,373,373,31,1,
,,,,,,,,,,,,,,,,,,5e94627fbd18cc000995584c,2020-08-10_11h24.23.384,lexical_decision_task_MP,2020.1.3,Win32,60,,m,1,1.045085,,,,,,,,1.045085,1,,,,,,166,WORD,UN,33,design,STARCH,m,,,,,,0.008333333,-0.402777778,0,0,0,,0,374,374,165,1,
,,,,,,,,,,,,,,,,,,5e94627fbd18cc000995584c,2020-08-10_11h24.23.384,lexical_decision_task_MP,2020.1.3,Win32,60,,z,1,0.634295,,,,,,,,0.634295,1,,,,,,366,NW,UN,33,slique,TOSHEL,z,,,,,,0.008333333,-0.402777778,0,0,0,,0,375,375,365,1,
,,,,,,,,,,,,,,,,,,5e94627fbd18cc000995584c,2020-08-10_11h24.23.384,lexical_decision_task_MP,2020.1.3,Win32,60,,m,1,0.58493,,,,,,,,0.58493,1,,,,,,56,WORD,"ID",33,ambush,AMBUSH,m,,,,,,0.008333333,-0.402777778,0,0,0,,0,376,376,55,1,
,,,,,,,,,,,,,,,,,,5e94627fbd18cc000995584c,2020-08-10_11h24.23.384,lexical_decision_task_MP,2020.1.3,Win32,60,,m,1,0.518225,,,,,,,,0.518225,1,,,,,,53,WORD,"ID",33,police,POLICE,m,,,,,,0.008333333,-0.402777778,0,0,0,,0,377,377,52,1,
,,,,,,,,,,,,,,,,,,5e94627fbd18cc000995584c,2020-08-10_11h24.23.384,lexical_decision_task_MP,2020.1.3,Win32,60,,z,1,0.609625,,,,,,,,0.609625,1,,,,,,317,NW,"ID",50,worbal,WORBAL,z,,,,,,0.008333333,-0.402777778,0,0,0,,0,378,378,316,1,
,,,,,,,,,,,,,,,,,,5e94627fbd18cc000995584c,2020-08-10_11h24.23.384,lexical_decision_task_MP,2020.1.3,Win32,60,,m,1,0.66745,,,,,,,,0.66745,1,,,,,,60,WORD,"ID",33,pencil,PENCIL,m,,,,,,0.008333333,-0.402777778,0,0,0,,0,379,379,59,1,
,,,,,,,,,,,,,,,,,,5e94627fbd18cc000995584c,2020-08-10_11h24.23.384,lexical_decision_task_MP,2020.1.3,Win32,60,,z,1,0.63645,,,,,,,,0.63645,1,,,,,,290,NW,"ID",33,splino,SPLINO,z,,,,,,0.008333333,-0.402777778,0,0,0,,0,380,380,289,1,
,,,,,,,,,,,,,,,,,,5e94627fbd18cc000995584c,2020-08-10_11h24.23.384,lexical_decision_task_MP,2020.1.3,Win32,60,,m,0,0.67396,,,,,,,,0.67396,0,,,,,,314,NW,"ID",50,sprine,SPRINE,z,,,,,,0.008333333,-0.402777778,0,0,0,,0,381,381,313,1,
,,,,,,,,,,,,,,,,,,5e94627fbd18cc000995584c,2020-08-10_11h24.23.384,lexical_decision_task_MP,2020.1.3,Win32,60,,m,1,0.726735,,,,,,,,0.726735,1,,,,,,196,WORD,UN,50,stream,CREDIT,m,,,,,,0.008333333,-0.402777778,0,0,0,,0,382,382,195,1,
,,,,,,,,,,,,,,,,,,5e94627fbd18cc000995584c,2020-08-10_11h24.23.384,lexical_decision_task_MP,2020.1.3,Win32,60,,m,1,0.63565,,,,,,,,0.63565,1,,,,,,155,WORD,UN,33,cradle,LIZARD,m,,,,,,0.008333333,-0.402777778,0,0,0,,0,383,383,154,1,
,,,,,,,,,,,,,,,,,,5e94627fbd18cc000995584c,2020-08-10_11h24.23.384,lexical_decision_task_MP,2020.1.3,Win32,60,,m,1,0.586145,,,,,,,,0.586145,1,,,,,,2,WORD,"ID",33,bridge,BRIDGE,m,,,,,,0.008333333,-0.402777778,0,0,0,,0,384,384,1,1,
,,,,,,,,,,,,,,,,,,5e94627fbd18cc000995584c,2020-08-10_11h24.23.384,lexical_decision_task_MP,2020.1.3,Win32,60,,m,1,0.70852,,,,,,,,0.70852,1,,,,,,217,WORD,UN,50,shrink,LIQUOR,m,,,,,,0.008333333,-0.402777778,0,0,0,,0,385,385,216,1,
,,,,,,,,,,,,,,,,,,5e94627fbd18cc000995584c,2020-08-10_11h24.23.384,lexical_decision_task_MP,2020.1.3,Win32,60,,m,1,0.539045,,,,,,,,0.539045,1,,,,,,162,WORD,UN,33,string,CANDLE,m,,,,,,0.008333333,-0.402777778,0,0,0,,0,386,386,161,1,
,,,,,,,,,,,,,,,,,,5e94627fbd18cc000995584c,2020-08-10_11h24.23.384,lexical_decision_task_MP,2020.1.3,Win32,60,,z,1,0.616845,,,,,,,,0.616845,1,,,,,,401,NW,UN,33,elopia,MUSTIL,z,,,,,,0.008333333,-0.402777778,0,0,0,,0,387,387,400,1,
,,,,,,,,,,,,,,,,,,5e94627fbd18cc000995584c,2020-08-10_11h24.23.384,lexical_decision_task_MP,2020.1.3,Win32,60,,m,1,0.58402,,,,,,,,0.58402,1,,,,,,44,WORD,"ID",33,danger,DANGER,m,,,,,,0.008333333,-0.402777778,0,0,0,,0,388,388,43,1,
,,,,,,,,,,,,,,,,,,5e94627fbd18cc000995584c,2020-08-10_11h24.23.384,lexical_decision_task_MP,2020.1.3,Win32,60,,z,1,0.686785,,,,,,,,0.686785,1,,,,,,403,NW,UN,33,cluirm,BRUATS,z,,,,,,0.008333333,-0.402777778,0,0,0,,0,389,389,402,1,
,,,,,,,,,,,,,,,,,,5e94627fbd18cc000995584c,2020-08-10_11h24.23.384,lexical_decision_task_MP,2020.1.3,Win32,60,,z,1,0.58351,,,,,,,,0.58351,1,,,,,,382,NW,UN,33,aungre,SARLEY,z,,,,,,0.008333333,-0.402777778,0,0,0,,0,390,390,381,1,
,,,,,,,,,,,,,,,,,,5e94627fbd18cc000995584c,2020-08-10_11h24.23.384,lexical_decision_task_MP,2020.1.3,Win32,60,,z,1,0.533895,,,,,,,,0.533895,1,,,,,,426,NW,UN,50,frudge,URIVEL,z,,,,,,0.008333333,-0.402777778,0,0,0,,0,391,391,425,1,
,,,,,,,,,,,,,,,,,,5e94627fbd18cc000995584c,2020-08-10_11h24.23.384,lexical_decision_task_MP,2020.1.3,Win32,60,,z,1,0.57503,,,,,,,,0.57503,1,,,,,,349,NW,"ID",50,asylen,ASYLEN,z,,,,,,0.008333333,-0.402777778,0,0,0,,0,392,392,348,1,
,,,,,,,,,,,,,,,,,,5e94627fbd18cc000995584c,2020-08-10_11h24.23.384,lexical_decision_task_MP,2020.1.3,Win32,60,,m,1,0.66765,,,,,,,,0.66765,1,,,,,,181,WORD,UN,50,winter,GLANCE,m,,,,,,0.008333333,-0.402777778,0,0,0,,0,393,393,180,1,
,,,,,,,,,,,,,,,,,,5e94627fbd18cc000995584c,2020-08-10_11h24.23.384,lexical_decision_task_MP,2020.1.3,Win32,60,,m,1,0.485825,,,,,,,,0.485825,1,,,,,,81,WORD,"ID",50,friend,FRIEND,m,,,,,,0.008333333,-0.402777778,0,0,0,,0,394,394,80,1,
,,,,,,,,,,,,,,,,,,5e94627fbd18cc000995584c,2020-08-10_11h24.23.384,lexical_decision_task_MP,2020.1.3,Win32,60,,m,1,0.70114,,,,,,,,0.70114,1,,,,,,66,WORD,"ID",50,gospel,GOSPEL,m,,,,,,0.008333333,-0.402777778,0,0,0,,0,395,395,65,1,
,,,,,,,,,,,,,,,,,,5e94627fbd18cc000995584c,2020-08-10_11h24.23.384,lexical_decision_task_MP,2020.1.3,Win32,60,,z,1,0.621335,,,,,,,,0.621335,1,,,,,,245,NW,"ID",33,anougs,ANOUGS,z,,,,,,0.008333333,-0.402777778,0,0,0,,0,396,396,244,1,
,,,,,,,,,,,,,,,,,,5e94627fbd18cc000995584c,2020-08-10_11h24.23.384,lexical_decision_task_MP,2020.1.3,Win32,60,,z,1,0.59264,,,,,,,,0.59264,1,,,,,,331,NW,"ID",50,gilfew,GILFEW,z,,,,,,0.008333333,-0.402777778,0,0,0,,0,397,397,330,1,
,,,,,,,,,,,,,,,,,,5e94627fbd18cc000995584c,2020-08-10_11h24.23.384,lexical_decision_task_MP,2020.1.3,Win32,60,,m,1,0.633425,,,,,,,,0.633425,1,,,,,,121,WORD,UN,33,linger,THRIVE,m,,,,,,0.008333333,-0.402777778,0,0,0,,0,398,398,120,1,
,,,,,,,,,,,,,,,,,,5e94627fbd18cc000995584c,2020-08-10_11h24.23.384,lexical_decision_task_MP,2020.1.3,Win32,60,,z,1,0.585285,,,,,,,,0.585285,1,,,,,,392,NW,UN,33,ganous,ROUNCY,z,,,,,,0.008333333,-0.402777778,0,0,0,,0,399,399,391,1,
,,,,,,,,,,,,,,,,,,5e94627fbd18cc000995584c,2020-08-10_11h24.23.384,lexical_decision_task_MP,2020.1.3,Win32,60,,z,1,0.61195,,,,,,,,0.61195,1,,,,,,354,NW,"ID",50,virlex,VIRLEX,z,,,,,,0.008333333,-0.402777778,0,0,0,,0,400,400,353,1,
,,,,,,,,,,,,,,,,,,5e94627fbd18cc000995584c,2020-08-10_11h24.23.384,lexical_decision_task_MP,2020.1.3,Win32,60,,m,1,0.68616,,,,,,,,0.68616,1,,,,,,30,WORD,"ID",33,orient,ORIENT,m,,,,,,0.008333333,-0.402777778,0,0,0,,0,401,401,29,1,
,,,,,,,,,,,,,,,,,,5e94627fbd18cc000995584c,2020-08-10_11h24.23.384,lexical_decision_task_MP,2020.1.3,Win32,60,,z,1,0.562085,,,,,,,,0.562085,1,,,,,,373,NW,UN,33,injore,BIGENT,z,,,,,,0.008333333,-0.402777778,0,0,0,,0,402,402,372,1,
