counterbalancing_condition,instr_done_keyboard.keys,instr_done_keyboard.rt,instr_done_touch.x,instr_done_touch.y,instr_done_touch.leftButton,instr_done_touch.midButton,instr_done_touch.rightButton,instruction_pages.thisRepN,instruction_pages.thisTrialN,instruction_pages.thisN,instruction_pages.thisIndex,instruction_pages.ran,pageN,phase,instruct_text,has_image,instruct_image,participant,date,expName,psychopyVersion,OS,frameRate,response.keys,response.corr,response.rt,touch_resp.x,touch_resp.y,touch_resp.leftButton,touch_resp.midButton,touch_resp.rightButton,touch_resp.time,touch_resp.clicked_name,rt,corr,practice_trials.thisRepN,practice_trials.thisTrialN,practice_trials.thisN,practice_trials.thisIndex,practice_trials.ran,TrialID,StimulusType,Condition,PrimeDuration,Prime,Target,corrAns,end_of_practice_trials_pages.thisRepN,end_of_practice_trials_pages.thisTrialN,end_of_practice_trials_pages.thisN,end_of_practice_trials_pages.thisIndex,end_of_practice_trials_pages.ran,break_done_touch.x,break_done_touch.y,break_done_touch.leftButton,break_done_touch.midButton,break_done_touch.rightButton,break_done_keyboard.keys,trials.thisRepN,trials.thisTrialN,trials.thisN,trials.thisIndex,trials.ran,break_done_keyboard.rt
3,space,12.78878,0.625655382,-0.445980903,0,0,0,0,0,0,0,1,1,instructions,"INSTRUCTIONS
At the start of each trial, look at the hash marks (######) in the center of the screen. After a moment, a string of letters will appear. Your task is to indicate if the letter string forms a word or not (i.e., if it is a nonword). For example, AUTHOR is a word while AUTHON is a nonword.

Press the space bar or touch the button below to continue.",0,,5e988374315d6f0a10bac638,2020-08-10_13h09.29.891,lexical_decision_task_MP,2020.1.3,MacIntel,60,,,,,,,,,,,,,,,,,,,,,,,,,,,,,,,,,,,,,,,,,
,space,13.074385,0.625655382,-0.445980903,0,0,0,0,1,1,1,1,2,instructions,"If your device has a keyboard, press the 'Z' key for nonwords and the 'M' key for words.





Press the space bar or touch the button below to continue.",1,keyboard-example.gif,5e988374315d6f0a10bac638,2020-08-10_13h09.29.891,lexical_decision_task_MP,2020.1.3,MacIntel,60,,,,,,,,,,,,,,,,,,,,,,,,,,,,,,,,,,,,,,,,,
,space,2.042185,0.625655382,-0.445980903,0,0,0,0,2,2,2,1,3,instructions,"If you are using a touchscreen only device, use the buttons on the screen. Do not use the mouse.





Press the space bar or touch the button below to continue.",1,touchscreen-example.gif,5e988374315d6f0a10bac638,2020-08-10_13h09.29.891,lexical_decision_task_MP,2020.1.3,MacIntel,60,,,,,,,,,,,,,,,,,,,,,,,,,,,,,,,,,,,,,,,,,
,space,5.37003,0.625655382,-0.445980903,0,0,0,0,3,3,3,1,4,instructions,"It is very important that you respond as quickly and accurately as possible, as each letter string will only be on the screen for two seconds. If you do not respond within this time, the message 'Too slow!' will be displayed and the experiment will progress to the next letter string. The first 20 trials will be practice trials and you will receive feedback on your answers. 

Press the space bar or touch the button below to start the practice trials.",0,,5e988374315d6f0a10bac638,2020-08-10_13h09.29.891,lexical_decision_task_MP,2020.1.3,MacIntel,60,,,,,,,,,,,,,,,,,,,,,,,,,,,,,,,,,,,,,,,,,
,,,,,,,,,,,,,,,,,,5e988374315d6f0a10bac638,2020-08-10_13h09.29.891,lexical_decision_task_MP,2020.1.3,MacIntel,60,m,1,1.163565,,,,,,,,1.163565,1,0,0,0,1,1,1002,WORD,"ID",33,adjust,ADJUST,m,,,,,,,,,,,,,,,,,
,,,,,,,,,,,,,,,,,,5e988374315d6f0a10bac638,2020-08-10_13h09.29.891,lexical_decision_task_MP,2020.1.3,MacIntel,60,z,1,0.71673,,,,,,,,0.71673,1,0,1,1,14,1,1015,NW,UN,50,miaber,THRALE,z,,,,,,,,,,,,,,,,,
,,,,,,,,,,,,,,,,,,5e988374315d6f0a10bac638,2020-08-10_13h09.29.891,lexical_decision_task_MP,2020.1.3,MacIntel,60,m,1,0.547,,,,,,,,0.547,1,0,2,2,7,1,1008,WORD,UN,50,hurdle,VOLUME,m,,,,,,,,,,,,,,,,,
,,,,,,,,,,,,,,,,,,5e988374315d6f0a10bac638,2020-08-10_13h09.29.891,lexical_decision_task_MP,2020.1.3,MacIntel,60,m,1,0.699525,,,,,,,,0.699525,1,0,3,3,0,1,1001,WORD,"ID",33,utopia,UTOPIA,m,,,,,,,,,,,,,,,,,
,,,,,,,,,,,,,,,,,,5e988374315d6f0a10bac638,2020-08-10_13h09.29.891,lexical_decision_task_MP,2020.1.3,MacIntel,60,z,1,0.88666,,,,,,,,0.88666,1,0,4,4,9,1,1010,NW,"ID",33,fariny,FARINY,z,,,,,,,,,,,,,,,,,
,,,,,,,,,,,,,,,,,,5e988374315d6f0a10bac638,2020-08-10_13h09.29.891,lexical_decision_task_MP,2020.1.3,MacIntel,60,m,1,0.495715,,,,,,,,0.495715,1,0,5,5,2,1,1003,WORD,"ID",50,almond,ALMOND,m,,,,,,,,,,,,,,,,,
,,,,,,,,,,,,,,,,,,5e988374315d6f0a10bac638,2020-08-10_13h09.29.891,lexical_decision_task_MP,2020.1.3,MacIntel,60,m,0,0.778755,,,,,,,,0.778755,0,0,6,6,11,1,1012,NW,"ID",50,rashet,RASHET,z,,,,,,,,,,,,,,,,,
,,,,,,,,,,,,,,,,,,5e988374315d6f0a10bac638,2020-08-10_13h09.29.891,lexical_decision_task_MP,2020.1.3,MacIntel,60,m,1,0.608325,,,,,,,,0.608325,1,0,7,7,6,1,1007,WORD,UN,50,tropic,ZOMBIE,m,,,,,,,,,,,,,,,,,
,,,,,,,,,,,,,,,,,,5e988374315d6f0a10bac638,2020-08-10_13h09.29.891,lexical_decision_task_MP,2020.1.3,MacIntel,60,z,1,0.685565,,,,,,,,0.685565,1,0,8,8,8,1,1009,NW,"ID",33,aslert,ASLERT,z,,,,,,,,,,,,,,,,,
,,,,,,,,,,,,,,,,,,5e988374315d6f0a10bac638,2020-08-10_13h09.29.891,lexical_decision_task_MP,2020.1.3,MacIntel,60,m,1,0.76496,,,,,,,,0.76496,1,0,9,9,3,1,1004,WORD,"ID",50,matrix,MATRIX,m,,,,,,,,,,,,,,,,,
,,,,,,,,,,,,,,,,,,5e988374315d6f0a10bac638,2020-08-10_13h09.29.891,lexical_decision_task_MP,2020.1.3,MacIntel,60,m,1,0.637495,,,,,,,,0.637495,1,0,10,10,5,1,1006,WORD,UN,33,frenzy,OBTAIN,m,,,,,,,,,,,,,,,,,
,,,,,,,,,,,,,,,,,,5e988374315d6f0a10bac638,2020-08-10_13h09.29.891,lexical_decision_task_MP,2020.1.3,MacIntel,60,z,1,0.618605,,,,,,,,0.618605,1,0,11,11,10,1,1011,NW,"ID",50,inlade,INLADE,z,,,,,,,,,,,,,,,,,
,,,,,,,,,,,,,,,,,,5e988374315d6f0a10bac638,2020-08-10_13h09.29.891,lexical_decision_task_MP,2020.1.3,MacIntel,60,z,1,0.905555,,,,,,,,0.905555,1,0,12,12,12,1,1013,NW,UN,33,adveil,SPRINY,z,,,,,,,,,,,,,,,,,
,,,,,,,,,,,,,,,,,,5e988374315d6f0a10bac638,2020-08-10_13h09.29.891,lexical_decision_task_MP,2020.1.3,MacIntel,60,z,1,0.699525,,,,,,,,0.699525,1,0,13,13,15,1,1016,NW,UN,50,mushed,WHAISE,z,,,,,,,,,,,,,,,,,
,,,,,,,,,,,,,,,,,,5e988374315d6f0a10bac638,2020-08-10_13h09.29.891,lexical_decision_task_MP,2020.1.3,MacIntel,60,m,1,0.58766,,,,,,,,0.58766,1,0,14,14,4,1,1005,WORD,UN,33,abound,SQUEAK,m,,,,,,,,,,,,,,,,,
,,,,,,,,,,,,,,,,,,5e988374315d6f0a10bac638,2020-08-10_13h09.29.891,lexical_decision_task_MP,2020.1.3,MacIntel,60,z,1,0.620905,,,,,,,,0.620905,1,0,15,15,13,1,1014,NW,UN,33,winfer,ROUPET,z,,,,,,,,,,,,,,,,,
,space,13.129075,0.625655382,-0.445980903,0,0,0,,,,,,1,end_of_practice,"You have completed the practice trials. During the experimental trials, you will not receive feedback, but it is very important that you respond as quickly and accurately as possible. 
Before you begin, please ensure that you are in a comfortable and quiet location and will not be disturbed for about 15 minutes, as we cannot use your data if you do not complete all the trials. 
There will be opportunities to take breaks at regular intervals during the experiment. When you are ready to start the experimental trials, please press space or touch the button below.",,,5e988374315d6f0a10bac638,2020-08-10_13h09.29.891,lexical_decision_task_MP,2020.1.3,MacIntel,60,,,,,,,,,,,,,,,,,,,,,,,,,0,0,0,0,1,,,,,,,,,,,,
,,,,,,,,,,,,,,,,,,5e988374315d6f0a10bac638,2020-08-10_13h09.29.891,lexical_decision_task_MP,2020.1.3,MacIntel,60,z,1,0.6819,,,,,,,,0.6819,1,,,,,,386,NW,"ID",50,ancust,ANCUST,z,,,,,,0.625655382,-0.445980903,0,0,0,,0,0,0,325,1,
,,,,,,,,,,,,,,,,,,5e988374315d6f0a10bac638,2020-08-10_13h09.29.891,lexical_decision_task_MP,2020.1.3,MacIntel,60,m,0,0.68326,,,,,,,,0.68326,0,,,,,,269,NW,UN,50,wrimsy,ORCHET,z,,,,,,0.625655382,-0.445980903,0,0,0,,0,1,1,448,1,
,,,,,,,,,,,,,,,,,,5e988374315d6f0a10bac638,2020-08-10_13h09.29.891,lexical_decision_task_MP,2020.1.3,MacIntel,60,m,1,0.68538,,,,,,,,0.68538,1,,,,,,99,WORD,"ID",33,fluent,FLUENT,m,,,,,,0.625655382,-0.445980903,0,0,0,,0,2,2,38,1,
,,,,,,,,,,,,,,,,,,5e988374315d6f0a10bac638,2020-08-10_13h09.29.891,lexical_decision_task_MP,2020.1.3,MacIntel,60,z,1,0.603635,,,,,,,,0.603635,1,,,,,,291,NW,UN,50,ablint,PRETCH,z,,,,,,0.625655382,-0.445980903,0,0,0,,0,3,3,470,1,
,,,,,,,,,,,,,,,,,,5e988374315d6f0a10bac638,2020-08-10_13h09.29.891,lexical_decision_task_MP,2020.1.3,MacIntel,60,m,1,0.598465,,,,,,,,0.598465,1,,,,,,61,WORD,"ID",33,ponder,PONDER,m,,,,,,0.625655382,-0.445980903,0,0,0,,0,4,4,0,1,
,,,,,,,,,,,,,,,,,,5e988374315d6f0a10bac638,2020-08-10_13h09.29.891,lexical_decision_task_MP,2020.1.3,MacIntel,60,m,1,0.7065,,,,,,,,0.7065,1,,,,,,183,WORD,UN,33,sleazy,MILDEW,m,,,,,,0.625655382,-0.445980903,0,0,0,,0,5,5,122,1,
,,,,,,,,,,,,,,,,,,5e988374315d6f0a10bac638,2020-08-10_13h09.29.891,lexical_decision_task_MP,2020.1.3,MacIntel,60,m,1,0.60207,,,,,,,,0.60207,1,,,,,,125,WORD,"ID",50,nickel,NICKEL,m,,,,,,0.625655382,-0.445980903,0,0,0,,0,6,6,64,1,
,,,,,,,,,,,,,,,,,,5e988374315d6f0a10bac638,2020-08-10_13h09.29.891,lexical_decision_task_MP,2020.1.3,MacIntel,60,m,1,0.59942,,,,,,,,0.59942,1,,,,,,219,WORD,UN,33,voyage,BUCKET,m,,,,,,0.625655382,-0.445980903,0,0,0,,0,7,7,158,1,
,,,,,,,,,,,,,,,,,,5e988374315d6f0a10bac638,2020-08-10_13h09.29.891,lexical_decision_task_MP,2020.1.3,MacIntel,60,z,1,0.584155,,,,,,,,0.584155,1,,,,,,341,NW,"ID",33,myrtie,MYRTIE,z,,,,,,0.625655382,-0.445980903,0,0,0,,0,8,8,280,1,
,,,,,,,,,,,,,,,,,,5e988374315d6f0a10bac638,2020-08-10_13h09.29.891,lexical_decision_task_MP,2020.1.3,MacIntel,60,z,1,0.65859,,,,,,,,0.65859,1,,,,,,472,NW,UN,33,gorbie,CIGNEY,z,,,,,,0.625655382,-0.445980903,0,0,0,,0,9,9,411,1,
,,,,,,,,,,,,,,,,,,5e988374315d6f0a10bac638,2020-08-10_13h09.29.891,lexical_decision_task_MP,2020.1.3,MacIntel,60,z,1,0.663555,,,,,,,,0.663555,1,,,,,,349,NW,"ID",33,asylen,ASYLEN,z,,,,,,0.625655382,-0.445980903,0,0,0,,0,10,10,288,1,
,,,,,,,,,,,,,,,,,,5e988374315d6f0a10bac638,2020-08-10_13h09.29.891,lexical_decision_task_MP,2020.1.3,MacIntel,60,z,1,0.60308,,,,,,,,0.60308,1,,,,,,329,NW,"ID",33,yarike,YARIKE,z,,,,,,0.625655382,-0.445980903,0,0,0,,0,11,11,268,1,
,,,,,,,,,,,,,,,,,,5e988374315d6f0a10bac638,2020-08-10_13h09.29.891,lexical_decision_task_MP,2020.1.3,MacIntel,60,z,1,0.672805,,,,,,,,0.672805,1,,,,,,298,NW,UN,50,sturch,PIERGY,z,,,,,,0.625655382,-0.445980903,0,0,0,,0,12,12,477,1,
,,,,,,,,,,,,,,,,,,5e988374315d6f0a10bac638,2020-08-10_13h09.29.891,lexical_decision_task_MP,2020.1.3,MacIntel,60,z,1,0.897035,,,,,,,,0.897035,1,,,,,,402,NW,"ID",50,syntic,SYNTIC,z,,,,,,0.625655382,-0.445980903,0,0,0,,0,13,13,341,1,
,,,,,,,,,,,,,,,,,,5e988374315d6f0a10bac638,2020-08-10_13h09.29.891,lexical_decision_task_MP,2020.1.3,MacIntel,60,z,1,0.730315,,,,,,,,0.730315,1,,,,,,368,NW,"ID",50,hornal,HORNAL,z,,,,,,0.625655382,-0.445980903,0,0,0,,0,14,14,307,1,
,,,,,,,,,,,,,,,,,,5e988374315d6f0a10bac638,2020-08-10_13h09.29.891,lexical_decision_task_MP,2020.1.3,MacIntel,60,m,1,0.670555,,,,,,,,0.670555,1,,,,,,120,WORD,"ID",33,strain,STRAIN,m,,,,,,0.625655382,-0.445980903,0,0,0,,0,15,15,59,1,
,,,,,,,,,,,,,,,,,,5e988374315d6f0a10bac638,2020-08-10_13h09.29.891,lexical_decision_task_MP,2020.1.3,MacIntel,60,z,1,0.721415,,,,,,,,0.721415,1,,,,,,282,NW,UN,50,veralf,PORLEX,z,,,,,,0.625655382,-0.445980903,0,0,0,,0,16,16,461,1,
,,,,,,,,,,,,,,,,,,5e988374315d6f0a10bac638,2020-08-10_13h09.29.891,lexical_decision_task_MP,2020.1.3,MacIntel,60,m,1,0.588345,,,,,,,,0.588345,1,,,,,,159,WORD,"ID",50,detail,DETAIL,m,,,,,,0.625655382,-0.445980903,0,0,0,,0,17,17,98,1,
,,,,,,,,,,,,,,,,,,5e988374315d6f0a10bac638,2020-08-10_13h09.29.891,lexical_decision_task_MP,2020.1.3,MacIntel,60,m,1,0.597055,,,,,,,,0.597055,1,,,,,,144,WORD,"ID",50,sponge,SPONGE,m,,,,,,0.625655382,-0.445980903,0,0,0,,0,18,18,83,1,
,,,,,,,,,,,,,,,,,,5e988374315d6f0a10bac638,2020-08-10_13h09.29.891,lexical_decision_task_MP,2020.1.3,MacIntel,60,z,0,0.6579,,,,,,,,0.6579,0,,,,,,77,WORD,"ID",33,racket,RACKET,m,,,,,,0.625655382,-0.445980903,0,0,0,,0,19,19,16,1,
,,,,,,,,,,,,,,,,,,5e988374315d6f0a10bac638,2020-08-10_13h09.29.891,lexical_decision_task_MP,2020.1.3,MacIntel,60,z,1,0.915875,,,,,,,,0.915875,1,,,,,,252,NW,UN,50,resait,STAPOD,z,,,,,,0.625655382,-0.445980903,0,0,0,,0,20,20,431,1,
,,,,,,,,,,,,,,,,,,5e988374315d6f0a10bac638,2020-08-10_13h09.29.891,lexical_decision_task_MP,2020.1.3,MacIntel,60,z,1,0.634545,,,,,,,,0.634545,1,,,,,,384,NW,"ID",50,guesco,GUESCO,z,,,,,,0.625655382,-0.445980903,0,0,0,,0,21,21,323,1,
,,,,,,,,,,,,,,,,,,5e988374315d6f0a10bac638,2020-08-10_13h09.29.891,lexical_decision_task_MP,2020.1.3,MacIntel,60,z,1,0.97273,,,,,,,,0.97273,1,,,,,,260,NW,UN,50,stunch,UNJECT,z,,,,,,0.625655382,-0.445980903,0,0,0,,0,22,22,439,1,
,,,,,,,,,,,,,,,,,,5e988374315d6f0a10bac638,2020-08-10_13h09.29.891,lexical_decision_task_MP,2020.1.3,MacIntel,60,m,1,0.769995,,,,,,,,0.769995,1,,,,,,1,WORD,UN,50,ethnic,FRIGHT,m,,,,,,0.625655382,-0.445980903,0,0,0,,0,23,23,180,1,
,,,,,,,,,,,,,,,,,,5e988374315d6f0a10bac638,2020-08-10_13h09.29.891,lexical_decision_task_MP,2020.1.3,MacIntel,60,m,1,0.8441,,,,,,,,0.8441,1,,,,,,209,WORD,UN,33,monkey,SEARCH,m,,,,,,0.625655382,-0.445980903,0,0,0,,0,24,24,148,1,
,,,,,,,,,,,,,,,,,,5e988374315d6f0a10bac638,2020-08-10_13h09.29.891,lexical_decision_task_MP,2020.1.3,MacIntel,60,z,1,0.726555,,,,,,,,0.726555,1,,,,,,439,NW,UN,33,saride,LIMPOR,z,,,,,,0.625655382,-0.445980903,0,0,0,,0,25,25,378,1,
,,,,,,,,,,,,,,,,,,5e988374315d6f0a10bac638,2020-08-10_13h09.29.891,lexical_decision_task_MP,2020.1.3,MacIntel,60,z,1,0.808185,,,,,,,,0.808185,1,,,,,,458,NW,UN,33,hocite,BARCET,z,,,,,,0.625655382,-0.445980903,0,0,0,,0,26,26,397,1,
,,,,,,,,,,,,,,,,,,5e988374315d6f0a10bac638,2020-08-10_13h09.29.891,lexical_decision_task_MP,2020.1.3,MacIntel,60,z,1,0.666605,,,,,,,,0.666605,1,,,,,,387,NW,"ID",50,gronce,GRONCE,z,,,,,,0.625655382,-0.445980903,0,0,0,,0,27,27,326,1,
,,,,,,,,,,,,,,,,,,5e988374315d6f0a10bac638,2020-08-10_13h09.29.891,lexical_decision_task_MP,2020.1.3,MacIntel,60,z,1,0.61343,,,,,,,,0.61343,1,,,,,,394,NW,"ID",50,spaqux,SPAQUX,z,,,,,,0.625655382,-0.445980903,0,0,0,,0,28,28,333,1,
,,,,,,,,,,,,,,,,,,5e988374315d6f0a10bac638,2020-08-10_13h09.29.891,lexical_decision_task_MP,2020.1.3,MacIntel,60,m,0,0.96356,,,,,,,,0.96356,0,,,,,,409,NW,"ID",50,elopia,ELOPIA,z,,,,,,0.625655382,-0.445980903,0,0,0,,0,29,29,348,1,
,,,,,,,,,,,,,,,,,,5e988374315d6f0a10bac638,2020-08-10_13h09.29.891,lexical_decision_task_MP,2020.1.3,MacIntel,60,z,1,0.930545,,,,,,,,0.930545,1,,,,,,422,NW,UN,33,streld,ALCOUD,z,,,,,,0.625655382,-0.445980903,0,0,0,,0,30,30,361,1,
,,,,,,,,,,,,,,,,,,5e988374315d6f0a10bac638,2020-08-10_13h09.29.891,lexical_decision_task_MP,2020.1.3,MacIntel,60,z,1,0.70214,,,,,,,,0.70214,1,,,,,,261,NW,UN,50,quilew,STUNCH,z,,,,,,0.625655382,-0.445980903,0,0,0,,0,31,31,440,1,
,,,,,,,,,,,,,,,,,,5e988374315d6f0a10bac638,2020-08-10_13h09.29.891,lexical_decision_task_MP,2020.1.3,MacIntel,60,m,1,0.666875,,,,,,,,0.666875,1,,,,,,164,WORD,"ID",50,market,MARKET,m,,,,,,0.625655382,-0.445980903,0,0,0,,0,32,32,103,1,
,,,,,,,,,,,,,,,,,,5e988374315d6f0a10bac638,2020-08-10_13h09.29.891,lexical_decision_task_MP,2020.1.3,MacIntel,60,z,1,0.59594,,,,,,,,0.59594,1,,,,,,296,NW,UN,50,fertic,BEINCH,z,,,,,,0.625655382,-0.445980903,0,0,0,,0,33,33,475,1,
,,,,,,,,,,,,,,,,,,5e988374315d6f0a10bac638,2020-08-10_13h09.29.891,lexical_decision_task_MP,2020.1.3,MacIntel,60,z,1,0.568175,,,,,,,,0.568175,1,,,,,,359,NW,"ID",33,fonver,FONVER,z,,,,,,0.625655382,-0.445980903,0,0,0,,0,34,34,298,1,
,,,,,,,,,,,,,,,,,,5e988374315d6f0a10bac638,2020-08-10_13h09.29.891,lexical_decision_task_MP,2020.1.3,MacIntel,60,m,1,0.734975,,,,,,,,0.734975,1,,,,,,186,WORD,UN,33,course,PORTAL,m,,,,,,0.625655382,-0.445980903,0,0,0,,0,35,35,125,1,
,,,,,,,,,,,,,,,,,,5e988374315d6f0a10bac638,2020-08-10_13h09.29.891,lexical_decision_task_MP,2020.1.3,MacIntel,60,z,1,0.847465,,,,,,,,0.847465,1,,,,,,281,NW,UN,50,porlex,MELATY,z,,,,,,0.625655382,-0.445980903,0,0,0,,0,36,36,460,1,
,,,,,,,,,,,,,,,,,,5e988374315d6f0a10bac638,2020-08-10_13h09.29.891,lexical_decision_task_MP,2020.1.3,MacIntel,60,m,1,0.683415,,,,,,,,0.683415,1,,,,,,153,WORD,"ID",50,behold,BEHOLD,m,,,,,,0.625655382,-0.445980903,0,0,0,,0,37,37,92,1,
,,,,,,,,,,,,,,,,,,5e988374315d6f0a10bac638,2020-08-10_13h09.29.891,lexical_decision_task_MP,2020.1.3,MacIntel,60,m,1,0.596265,,,,,,,,0.596265,1,,,,,,128,WORD,"ID",50,senior,SENIOR,m,,,,,,0.625655382,-0.445980903,0,0,0,,0,38,38,67,1,
,,,,,,,,,,,,,,,,,,5e988374315d6f0a10bac638,2020-08-10_13h09.29.891,lexical_decision_task_MP,2020.1.3,MacIntel,60,z,1,0.567065,,,,,,,,0.567065,1,,,,,,241,NW,UN,50,unwert,SMENCO,z,,,,,,0.625655382,-0.445980903,0,0,0,,0,39,39,420,1,
,,,,,,,,,,,,,,,,,,5e988374315d6f0a10bac638,2020-08-10_13h09.29.891,lexical_decision_task_MP,2020.1.3,MacIntel,60,z,1,0.58271,,,,,,,,0.58271,1,,,,,,442,NW,UN,33,dorsex,ABOUNE,z,,,,,,0.625655382,-0.445980903,0,0,0,,0,40,40,381,1,
,,,,,,,,,,,,,,,,,,5e988374315d6f0a10bac638,2020-08-10_13h09.29.891,lexical_decision_task_MP,2020.1.3,MacIntel,60,m,1,0.641375,,,,,,,,0.641375,1,,,,,,197,WORD,UN,33,wicked,STREAM,m,,,,,,0.625655382,-0.445980903,0,0,0,,0,41,41,136,1,
,,,,,,,,,,,,,,,,,,5e988374315d6f0a10bac638,2020-08-10_13h09.29.891,lexical_decision_task_MP,2020.1.3,MacIntel,60,m,1,0.586165,,,,,,,,0.586165,1,,,,,,123,WORD,"ID",50,strike,STRIKE,m,,,,,,0.625655382,-0.445980903,0,0,0,,0,42,42,62,1,
,,,,,,,,,,,,,,,,,,5e988374315d6f0a10bac638,2020-08-10_13h09.29.891,lexical_decision_task_MP,2020.1.3,MacIntel,60,m,1,0.637805,,,,,,,,0.637805,1,,,,,,56,WORD,UN,50,change,AMBUSH,m,,,,,,0.625655382,-0.445980903,0,0,0,,0,43,43,235,1,
,,,,,,,,,,,,,,,,,,5e988374315d6f0a10bac638,2020-08-10_13h09.29.891,lexical_decision_task_MP,2020.1.3,MacIntel,60,m,1,0.52105,,,,,,,,0.52105,1,,,,,,178,WORD,"ID",50,inform,INFORM,m,,,,,,0.625655382,-0.445980903,0,0,0,,0,44,44,117,1,
,,,,,,,,,,,,,,,,,,5e988374315d6f0a10bac638,2020-08-10_13h09.29.891,lexical_decision_task_MP,2020.1.3,MacIntel,60,z,0,0.6132,,,,,,,,0.6132,0,,,,,,16,WORD,UN,50,charge,FAUCET,m,,,,,,0.625655382,-0.445980903,0,0,0,,0,45,45,195,1,
,,,,,,,,,,,,,,,,,,5e988374315d6f0a10bac638,2020-08-10_13h09.29.891,lexical_decision_task_MP,2020.1.3,MacIntel,60,m,1,0.78262,,,,,,,,0.78262,1,,,,,,226,WORD,UN,33,flower,CASINO,m,,,,,,0.625655382,-0.445980903,0,0,0,,0,46,46,165,1,
,,,,,,,,,,,,,,,,,,5e988374315d6f0a10bac638,2020-08-10_13h09.29.891,lexical_decision_task_MP,2020.1.3,MacIntel,60,m,1,0.65711,,,,,,,,0.65711,1,,,,,,36,WORD,UN,50,insult,VANISH,m,,,,,,0.625655382,-0.445980903,0,0,0,,0,47,47,215,1,
,,,,,,,,,,,,,,,,,,5e988374315d6f0a10bac638,2020-08-10_13h09.29.891,lexical_decision_task_MP,2020.1.3,MacIntel,60,z,0,0.73401,,,,,,,,0.73401,0,,,,,,10,WORD,UN,50,cruise,ETHNIC,m,,,,,,0.625655382,-0.445980903,0,0,0,,0,48,48,189,1,
,,,,,,,,,,,,,,,,,,5e988374315d6f0a10bac638,2020-08-10_13h09.29.891,lexical_decision_task_MP,2020.1.3,MacIntel,60,z,1,0.96149,,,,,,,,0.96149,1,,,,,,301,NW,"ID",33,fainch,FAINCH,z,,,,,,0.625655382,-0.445980903,0,0,0,,0,49,49,240,1,
,,,,,,,,,,,,,,,,,,5e988374315d6f0a10bac638,2020-08-10_13h09.29.891,lexical_decision_task_MP,2020.1.3,MacIntel,60,m,1,1.02034,,,,,,,,1.02034,1,,,,,,215,WORD,UN,33,lumber,PHOBIA,m,,,,,,0.625655382,-0.445980903,0,0,0,,0,50,50,154,1,
,,,,,,,,,,,,,,,,,,5e988374315d6f0a10bac638,2020-08-10_13h09.29.891,lexical_decision_task_MP,2020.1.3,MacIntel,60,z,1,0.66683,,,,,,,,0.66683,1,,,,,,478,NW,UN,33,pebric,ACRISE,z,,,,,,0.625655382,-0.445980903,0,0,0,,0,51,51,417,1,
,,,,,,,,,,,,,,,,,,5e988374315d6f0a10bac638,2020-08-10_13h09.29.891,lexical_decision_task_MP,2020.1.3,MacIntel,60,m,1,0.647155,,,,,,,,0.647155,1,,,,,,63,WORD,"ID",33,launch,LAUNCH,m,,,,,,0.625655382,-0.445980903,0,0,0,,0,52,52,2,1,
,,,,,,,,,,,,,,,,,,5e988374315d6f0a10bac638,2020-08-10_13h09.29.891,lexical_decision_task_MP,2020.1.3,MacIntel,60,m,1,0.60161,,,,,,,,0.60161,1,,,,,,100,WORD,"ID",33,carbon,CARBON,m,,,,,,0.625655382,-0.445980903,0,0,0,,0,53,53,39,1,
,,,,,,,,,,,,,,,,,,5e988374315d6f0a10bac638,2020-08-10_13h09.29.891,lexical_decision_task_MP,2020.1.3,MacIntel,60,z,1,0.6641,,,,,,,,0.6641,1,,,,,,318,NW,"ID",33,reagly,REAGLY,z,,,,,,0.625655382,-0.445980903,0,0,0,,0,54,54,257,1,
,,,,,,,,,,,,,,,,,,5e988374315d6f0a10bac638,2020-08-10_13h09.29.891,lexical_decision_task_MP,2020.1.3,MacIntel,60,z,1,0.60691,,,,,,,,0.60691,1,,,,,,286,NW,UN,50,nymbel,RELDON,z,,,,,,0.625655382,-0.445980903,0,0,0,,0,55,55,465,1,
,,,,,,,,,,,,,,,,,,5e988374315d6f0a10bac638,2020-08-10_13h09.29.891,lexical_decision_task_MP,2020.1.3,MacIntel,60,m,1,0.65414,,,,,,,,0.65414,1,,,,,,73,WORD,"ID",33,source,SOURCE,m,,,,,,0.625655382,-0.445980903,0,0,0,,0,56,56,12,1,
,,,,,,,,,,,,,,,,,,5e988374315d6f0a10bac638,2020-08-10_13h09.29.891,lexical_decision_task_MP,2020.1.3,MacIntel,60,z,1,0.66162,,,,,,,,0.66162,1,,,,,,315,NW,"ID",33,laston,LASTON,z,,,,,,0.625655382,-0.445980903,0,0,0,,0,57,57,254,1,
,,,,,,,,,,,,,,,,,,5e988374315d6f0a10bac638,2020-08-10_13h09.29.891,lexical_decision_task_MP,2020.1.3,MacIntel,60,m,1,0.64809,,,,,,,,0.64809,1,,,,,,155,WORD,"ID",50,lizard,LIZARD,m,,,,,,0.625655382,-0.445980903,0,0,0,,0,58,58,94,1,
,,,,,,,,,,,,,,,,,,5e988374315d6f0a10bac638,2020-08-10_13h09.29.891,lexical_decision_task_MP,2020.1.3,MacIntel,60,z,1,0.63205,,,,,,,,0.63205,1,,,,,,448,NW,UN,33,brunge,SADENT,z,,,,,,0.625655382,-0.445980903,0,0,0,,0,59,59,387,1,
,,,,,,,,,,,,,,,,,,5e988374315d6f0a10bac638,2020-08-10_13h09.29.891,lexical_decision_task_MP,2020.1.3,MacIntel,60,z,1,0.637335,,,,,,,,0.637335,1,,,,,,363,NW,"ID",50,breali,BREALI,z,,,,,,0.625655382,-0.445980903,0,0,0,,0,60,60,302,1,
,,,,,,,,,,,,,,,,,,5e988374315d6f0a10bac638,2020-08-10_13h09.29.891,lexical_decision_task_MP,2020.1.3,MacIntel,60,z,1,0.63291,,,,,,,,0.63291,1,,,,,,403,NW,"ID",50,bruats,BRUATS,z,,,,,,0.625655382,-0.445980903,0,0,0,,0,61,61,342,1,
,,,,,,,,,,,,,,,,,,5e988374315d6f0a10bac638,2020-08-10_13h09.29.891,lexical_decision_task_MP,2020.1.3,MacIntel,60,z,1,0.598265,,,,,,,,0.598265,1,,,,,,288,NW,UN,50,starby,YACEUP,z,,,,,,0.625655382,-0.445980903,0,0,0,,0,62,62,467,1,
,,,,,,,,,,,,,,,,,,5e988374315d6f0a10bac638,2020-08-10_13h09.29.891,lexical_decision_task_MP,2020.1.3,MacIntel,60,m,1,0.720535,,,,,,,,0.720535,1,,,,,,57,WORD,UN,50,danger,CHANGE,m,,,,,,0.625655382,-0.445980903,0,0,0,,0,63,63,236,1,
,,,,,,,,,,,,,,,,,,5e988374315d6f0a10bac638,2020-08-10_13h09.29.891,lexical_decision_task_MP,2020.1.3,MacIntel,60,z,0,0.583525,,,,,,,,0.583525,0,,,,,,108,WORD,"ID",33,reckon,RECKON,m,,,,,,0.625655382,-0.445980903,0,0,0,,0,64,64,47,1,
,,,,,,,,,,,,,,,,,,5e988374315d6f0a10bac638,2020-08-10_13h09.29.891,lexical_decision_task_MP,2020.1.3,MacIntel,60,m,1,0.9765,,,,,,,,0.9765,1,,,,,,86,WORD,"ID",33,rodent,RODENT,m,,,,,,0.625655382,-0.445980903,0,0,0,,0,65,65,25,1,
,,,,,,,,,,,,,,,,,,5e988374315d6f0a10bac638,2020-08-10_13h09.29.891,lexical_decision_task_MP,2020.1.3,MacIntel,60,z,1,0.992295,,,,,,,,0.992295,1,,,,,,352,NW,"ID",33,tringe,TRINGE,z,,,,,,0.625655382,-0.445980903,0,0,0,,0,66,66,291,1,
,,,,,,,,,,,,,,,,,,5e988374315d6f0a10bac638,2020-08-10_13h09.29.891,lexical_decision_task_MP,2020.1.3,MacIntel,60,z,1,0.71526,,,,,,,,0.71526,1,,,,,,347,NW,"ID",33,kerift,KERIFT,z,,,,,,0.625655382,-0.445980903,0,0,0,,0,67,67,286,1,
,,,,,,,,,,,,,,,,,,5e988374315d6f0a10bac638,2020-08-10_13h09.29.891,lexical_decision_task_MP,2020.1.3,MacIntel,60,m,1,0.58782,,,,,,,,0.58782,1,,,,,,124,WORD,"ID",50,blouse,BLOUSE,m,,,,,,0.625655382,-0.445980903,0,0,0,,0,68,68,63,1,
,,,,,,,,,,,,,,,,,,5e988374315d6f0a10bac638,2020-08-10_13h09.29.891,lexical_decision_task_MP,2020.1.3,MacIntel,60,z,1,0.68303,,,,,,,,0.68303,1,,,,,,452,NW,UN,33,bolvis,SURDEN,z,,,,,,0.625655382,-0.445980903,0,0,0,,0,69,69,391,1,
,,,,,,,,,,,,,,,,,,5e988374315d6f0a10bac638,2020-08-10_13h09.29.891,lexical_decision_task_MP,2020.1.3,MacIntel,60,m,1,0.653215,,,,,,,,0.653215,1,,,,,,25,WORD,UN,50,sprint,DOMAIN,m,,,,,,0.625655382,-0.445980903,0,0,0,,0,70,70,204,1,
,,,,,,,,,,,,,,,,,,5e988374315d6f0a10bac638,2020-08-10_13h09.29.891,lexical_decision_task_MP,2020.1.3,MacIntel,60,z,1,0.702315,,,,,,,,0.702315,1,,,,,,356,NW,"ID",33,othnis,OTHNIS,z,,,,,,0.625655382,-0.445980903,0,0,0,,0,71,71,295,1,
,,,,,,,,,,,,,,,,,,5e988374315d6f0a10bac638,2020-08-10_13h09.29.891,lexical_decision_task_MP,2020.1.3,MacIntel,60,z,1,0.91617,,,,,,,,0.91617,1,,,,,,262,NW,UN,50,dolica,QUILEW,z,,,,,,0.625655382,-0.445980903,0,0,0,,0,72,72,441,1,
,,,,,,,,,,,,,,,,,,5e988374315d6f0a10bac638,2020-08-10_13h09.29.891,lexical_decision_task_MP,2020.1.3,MacIntel,60,z,1,0.53426,,,,,,,,0.53426,1,,,,,,414,NW,"ID",50,serbol,SERBOL,z,,,,,,0.625655382,-0.445980903,0,0,0,,0,73,73,353,1,
,,,,,,,,,,,,,,,,,,5e988374315d6f0a10bac638,2020-08-10_13h09.29.891,lexical_decision_task_MP,2020.1.3,MacIntel,60,z,1,0.61945,,,,,,,,0.61945,1,,,,,,388,NW,"ID",50,cragin,CRAGIN,z,,,,,,0.625655382,-0.445980903,0,0,0,,0,74,74,327,1,
,,,,,,,,,,,,,,,,,,5e988374315d6f0a10bac638,2020-08-10_13h09.29.891,lexical_decision_task_MP,2020.1.3,MacIntel,60,m,1,0.682795,,,,,,,,0.682795,1,,,,,,79,WORD,"ID",33,theory,THEORY,m,,,,,,0.625655382,-0.445980903,0,0,0,,0,75,75,18,1,
,,,,,,,,,,,,,,,,,,5e988374315d6f0a10bac638,2020-08-10_13h09.29.891,lexical_decision_task_MP,2020.1.3,MacIntel,60,z,1,0.596665,,,,,,,,0.596665,1,,,,,,463,NW,UN,33,chaite,KISPEL,z,,,,,,0.625655382,-0.445980903,0,0,0,,0,76,76,402,1,
,,,,,,,,,,,,,,,,,,5e988374315d6f0a10bac638,2020-08-10_13h09.29.891,lexical_decision_task_MP,2020.1.3,MacIntel,60,z,1,0.782565,,,,,,,,0.782565,1,,,,,,396,NW,"ID",50,flengy,FLENGY,z,,,,,,0.625655382,-0.445980903,0,0,0,,0,77,77,335,1,
,,,,,,,,,,,,,,,,,,5e988374315d6f0a10bac638,2020-08-10_13h09.29.891,lexical_decision_task_MP,2020.1.3,MacIntel,60,z,1,0.597535,,,,,,,,0.597535,1,,,,,,328,NW,"ID",33,broake,BROAKE,z,,,,,,0.625655382,-0.445980903,0,0,0,,0,78,78,267,1,
,,,,,,,,,,,,,,,,,,5e988374315d6f0a10bac638,2020-08-10_13h09.29.891,lexical_decision_task_MP,2020.1.3,MacIntel,60,m,1,0.767975,,,,,,,,0.767975,1,,,,,,204,WORD,UN,33,lounge,BURDEN,m,,,,,,0.625655382,-0.445980903,0,0,0,,0,79,79,143,1,
,,,,,,,,,,,,,,,,,,5e988374315d6f0a10bac638,2020-08-10_13h09.29.891,lexical_decision_task_MP,2020.1.3,MacIntel,60,m,1,0.616015,,,,,,,,0.616015,1,,,,,,96,WORD,"ID",33,ignore,IGNORE,m,,,,,,0.625655382,-0.445980903,0,0,0,,0,80,80,35,1,
,,,,,,,,,,,,,,,,,,5e988374315d6f0a10bac638,2020-08-10_13h09.29.891,lexical_decision_task_MP,2020.1.3,MacIntel,60,z,1,0.61949,,,,,,,,0.61949,1,,,,,,415,NW,"ID",50,higsta,HIGSTA,z,,,,,,0.625655382,-0.445980903,0,0,0,,0,81,81,354,1,
,,,,,,,,,,,,,,,,,,5e988374315d6f0a10bac638,2020-08-10_13h09.29.891,lexical_decision_task_MP,2020.1.3,MacIntel,60,m,1,0.600475,,,,,,,,0.600475,1,,,,,,20,WORD,UN,50,simple,BREAST,m,,,,,,0.625655382,-0.445980903,0,0,0,,0,82,82,199,1,
,,,,,,,,,,,,,,,,,,5e988374315d6f0a10bac638,2020-08-10_13h09.29.891,lexical_decision_task_MP,2020.1.3,MacIntel,60,m,1,0.680245,,,,,,,,0.680245,1,,,,,,201,WORD,UN,33,factor,ADMIRE,m,,,,,,0.625655382,-0.445980903,0,0,0,,0,83,83,140,1,
,,,,,,,,,,,,,,,,,,5e988374315d6f0a10bac638,2020-08-10_13h09.29.891,lexical_decision_task_MP,2020.1.3,MacIntel,60,z,1,0.61289,,,,,,,,0.61289,1,,,,,,245,NW,UN,50,piaton,ANOUGS,z,,,,,,0.625655382,-0.445980903,0,0,0,,0,84,84,424,1,
,,,,,,,,,,,,,,,,,,5e988374315d6f0a10bac638,2020-08-10_13h09.29.891,lexical_decision_task_MP,2020.1.3,MacIntel,60,z,0,0.484335,,,,,,,,0.484335,0,,,,,,116,WORD,"ID",33,tumble,TUMBLE,m,,,,,,0.625655382,-0.445980903,0,0,0,,0,85,85,55,1,
,,,,,,,,,,,,,,,,,,5e988374315d6f0a10bac638,2020-08-10_13h09.29.891,lexical_decision_task_MP,2020.1.3,MacIntel,60,m,1,0.599525,,,,,,,,0.599525,1,,,,,,140,WORD,"ID",50,prince,PRINCE,m,,,,,,0.625655382,-0.445980903,0,0,0,,0,86,86,79,1,
,,,,,,,,,,,,,,,,,,5e988374315d6f0a10bac638,2020-08-10_13h09.29.891,lexical_decision_task_MP,2020.1.3,MacIntel,60,m,1,0.868555,,,,,,,,0.868555,1,,,,,,42,WORD,UN,50,tongue,CHAPEL,m,,,,,,0.625655382,-0.445980903,0,0,0,,0,87,87,221,1,
,,,,,,,,,,,,,,,,,,5e988374315d6f0a10bac638,2020-08-10_13h09.29.891,lexical_decision_task_MP,2020.1.3,MacIntel,60,z,1,0.70401,,,,,,,,0.70401,1,,,,,,259,NW,UN,50,unject,SOUDAL,z,,,,,,0.625655382,-0.445980903,0,0,0,,0,88,88,438,1,
,,,,,,,,,,,,,,,,,,5e988374315d6f0a10bac638,2020-08-10_13h09.29.891,lexical_decision_task_MP,2020.1.3,MacIntel,60,z,0,0.85754,,,,,,,,0.85754,0,,,,,,4,WORD,UN,50,plunge,TRENCH,m,,,,,,0.625655382,-0.445980903,0,0,0,,0,89,89,183,1,
,,,,,,,,,,,,,,,,,,5e988374315d6f0a10bac638,2020-08-10_13h09.29.891,lexical_decision_task_MP,2020.1.3,MacIntel,60,m,1,1.53744,,,,,,,,1.53744,1,,,,,,69,WORD,"ID",33,plenty,PLENTY,m,,,,,,0.625655382,-0.445980903,0,0,0,,0,90,90,8,1,
,,,,,,,,,,,,,,,,,,5e988374315d6f0a10bac638,2020-08-10_13h09.29.891,lexical_decision_task_MP,2020.1.3,MacIntel,60,m,1,0.529865,,,,,,,,0.529865,1,,,,,,104,WORD,"ID",33,studio,STUDIO,m,,,,,,0.625655382,-0.445980903,0,0,0,,0,91,91,43,1,
,,,,,,,,,,,,,,,,,,5e988374315d6f0a10bac638,2020-08-10_13h09.29.891,lexical_decision_task_MP,2020.1.3,MacIntel,60,z,1,0.73056,,,,,,,,0.73056,1,,,,,,443,NW,UN,33,jaunce,DORSEX,z,,,,,,0.625655382,-0.445980903,0,0,0,,0,92,92,382,1,
,,,,,,,,,,,,,,,,,,5e988374315d6f0a10bac638,2020-08-10_13h09.29.891,lexical_decision_task_MP,2020.1.3,MacIntel,60,m,1,0.648865,,,,,,,,0.648865,1,,,,,,182,WORD,UN,33,absent,WINTER,m,,,,,,0.625655382,-0.445980903,0,0,0,,0,93,93,121,1,
,,,,,,,,,,,,,,,,,,5e988374315d6f0a10bac638,2020-08-10_13h09.29.891,lexical_decision_task_MP,2020.1.3,MacIntel,60,z,1,0.618945,,,,,,,,0.618945,1,,,,,,258,NW,UN,50,soudal,POLUTH,z,,,,,,0.625655382,-0.445980903,0,0,0,,0,94,94,437,1,
,,,,,,,,,,,,,,,,,,5e988374315d6f0a10bac638,2020-08-10_13h09.29.891,lexical_decision_task_MP,2020.1.3,MacIntel,60,z,1,0.908695,,,,,,,,0.908695,1,,,,,,417,NW,"ID",50,earoud,EAROUD,z,,,,,,0.625655382,-0.445980903,0,0,0,,0,95,95,356,1,
,,,,,,,,,,,,,,,,,,5e988374315d6f0a10bac638,2020-08-10_13h09.29.891,lexical_decision_task_MP,2020.1.3,MacIntel,60,z,1,0.840845,,,,,,,,0.840845,1,,,,,,277,NW,UN,50,unighs,PETAIN,z,,,,,,0.625655382,-0.445980903,0,0,0,,0,96,96,456,1,
,,,,,,,,,,,,,,,,,,5e988374315d6f0a10bac638,2020-08-10_13h09.29.891,lexical_decision_task_MP,2020.1.3,MacIntel,60,z,0,0.80393,,,,,,,,0.80393,0,,,,,,50,WORD,UN,50,hungry,SNATCH,m,,,,,,0.625655382,-0.445980903,0,0,0,,0,97,97,229,1,
,,,,,,,,,,,,,,,,,,5e988374315d6f0a10bac638,2020-08-10_13h09.29.891,lexical_decision_task_MP,2020.1.3,MacIntel,60,z,1,0.6134,,,,,,,,0.6134,1,,,,,,371,NW,"ID",50,geiloy,GEILOY,z,,,,,,0.625655382,-0.445980903,0,0,0,,0,98,98,310,1,
,,,,,,,,,,,,,,,,,,5e988374315d6f0a10bac638,2020-08-10_13h09.29.891,lexical_decision_task_MP,2020.1.3,MacIntel,60,m,1,0.632345,,,,,,,,0.632345,1,,,,,,154,WORD,"ID",50,author,AUTHOR,m,,,,,,0.625655382,-0.445980903,0,0,0,,0,99,99,93,1,
,,,,,,,,,,,,,,,,,,5e988374315d6f0a10bac638,2020-08-10_13h09.29.891,lexical_decision_task_MP,2020.1.3,MacIntel,60,m,1,0.579445,,,,,,,,0.579445,1,,,,,,235,WORD,UN,33,pirate,GRUMPY,m,,,,,,0.625655382,-0.445980903,0,0,0,,0,100,100,174,1,
,,,,,,,,,,,,,,,,,,5e988374315d6f0a10bac638,2020-08-10_13h09.29.891,lexical_decision_task_MP,2020.1.3,MacIntel,60,m,1,0.511985,,,,,,,,0.511985,1,,,,,,174,WORD,"ID",50,turkey,TURKEY,m,,,,,,0.625655382,-0.445980903,0,0,0,,0,101,101,113,1,
,,,,,,,,,,,,,,,,,,5e988374315d6f0a10bac638,2020-08-10_13h09.29.891,lexical_decision_task_MP,2020.1.3,MacIntel,60,m,1,0.56693,,,,,,,,0.56693,1,,,,,,89,WORD,"ID",33,permit,PERMIT,m,,,,,,0.625655382,-0.445980903,0,0,0,,0,102,102,28,1,
,,,,,,,,,,,,,,,,,,5e988374315d6f0a10bac638,2020-08-10_13h09.29.891,lexical_decision_task_MP,2020.1.3,MacIntel,60,z,1,0.650145,,,,,,,,0.650145,1,,,,,,393,NW,"ID",50,ganous,GANOUS,z,,,,,,0.625655382,-0.445980903,0,0,0,,0,103,103,332,1,
,,,,,,,,,,,,,,,,,,5e988374315d6f0a10bac638,2020-08-10_13h09.29.891,lexical_decision_task_MP,2020.1.3,MacIntel,60,m,1,0.63372,,,,,,,,0.63372,1,,,,,,11,WORD,UN,50,amount,CRUISE,m,,,,,,0.625655382,-0.445980903,0,0,0,,0,104,104,190,1,
,,,,,,,,,,,,,,,,,,5e988374315d6f0a10bac638,2020-08-10_13h09.29.891,lexical_decision_task_MP,2020.1.3,MacIntel,60,z,1,0.59764,,,,,,,,0.59764,1,,,,,,410,NW,"ID",50,tunory,TUNORY,z,,,,,,0.625655382,-0.445980903,0,0,0,,0,105,105,349,1,
,,,,,,,,,,,,,,,,,,5e988374315d6f0a10bac638,2020-08-10_13h09.29.891,lexical_decision_task_MP,2020.1.3,MacIntel,60,z,1,0.61992,,,,,,,,0.61992,1,,,,,,280,NW,UN,50,melaty,CURBOL,z,,,,,,0.625655382,-0.445980903,0,0,0,,0,106,106,459,1,
,,,,,,,,,,,,,,,,,,5e988374315d6f0a10bac638,2020-08-10_13h09.29.891,lexical_decision_task_MP,2020.1.3,MacIntel,60,z,1,0.6293,,,,,,,,0.6293,1,,,,,,293,NW,UN,50,inhort,SWANCE,z,,,,,,0.625655382,-0.445980903,0,0,0,,0,107,107,472,1,
,,,,,,,,,,,,,,,,,,5e988374315d6f0a10bac638,2020-08-10_13h09.29.891,lexical_decision_task_MP,2020.1.3,MacIntel,60,z,1,0.787595,,,,,,,,0.787595,1,,,,,,353,NW,"ID",33,clurey,CLUREY,z,,,,,,0.625655382,-0.445980903,0,0,0,,0,108,108,292,1,
,,,,,,,,,,,,,,,,,,5e988374315d6f0a10bac638,2020-08-10_13h09.29.891,lexical_decision_task_MP,2020.1.3,MacIntel,60,z,1,0.65554,,,,,,,,0.65554,1,,,,,,480,NW,UN,33,knisma,ROBULY,z,,,,,,0.625655382,-0.445980903,0,0,0,,0,109,109,419,1,
,,,,,,,,,,,,,,,,,,5e988374315d6f0a10bac638,2020-08-10_13h09.29.891,lexical_decision_task_MP,2020.1.3,MacIntel,60,m,1,0.553785,,,,,,,,0.553785,1,,,,,,149,WORD,"ID",50,invade,INVADE,m,,,,,,0.625655382,-0.445980903,0,0,0,,0,110,110,88,1,
,,,,,,,,,,,,,,,,,,5e988374315d6f0a10bac638,2020-08-10_13h09.29.891,lexical_decision_task_MP,2020.1.3,MacIntel,60,z,1,0.60466,,,,,,,,0.60466,1,,,,,,295,NW,UN,50,beinch,GLEATH,z,,,,,,0.625655382,-0.445980903,0,0,0,,0,111,111,474,1,
,,,,,,,,,,,,,,,,,,5e988374315d6f0a10bac638,2020-08-10_13h09.29.891,lexical_decision_task_MP,2020.1.3,MacIntel,60,z,1,0.64095,,,,,,,,0.64095,1,,,,,,268,NW,UN,50,orchet,PACKES,z,,,,,,0.625655382,-0.445980903,0,0,0,,0,112,112,447,1,
,,,,,,,,,,,,,,,,,,5e988374315d6f0a10bac638,2020-08-10_13h09.29.891,lexical_decision_task_MP,2020.1.3,MacIntel,60,m,1,0.62082,,,,,,,,0.62082,1,,,,,,145,WORD,"ID",50,parish,PARISH,m,,,,,,0.625655382,-0.445980903,0,0,0,,0,113,113,84,1,
,,,,,,,,,,,,,,,,,,5e988374315d6f0a10bac638,2020-08-10_13h09.29.891,lexical_decision_task_MP,2020.1.3,MacIntel,60,m,1,0.548895,,,,,,,,0.548895,1,,,,,,67,WORD,"ID",33,policy,POLICY,m,,,,,,0.625655382,-0.445980903,0,0,0,,0,114,114,6,1,
,,,,,,,,,,,,,,,,,,5e988374315d6f0a10bac638,2020-08-10_13h09.29.891,lexical_decision_task_MP,2020.1.3,MacIntel,60,m,1,0.498755,,,,,,,,0.498755,1,,,,,,169,WORD,"ID",50,genius,GENIUS,m,,,,,,0.625655382,-0.445980903,0,0,0,,0,115,115,108,1,
,,,,,,,,,,,,,,,,,,5e988374315d6f0a10bac638,2020-08-10_13h09.29.891,lexical_decision_task_MP,2020.1.3,MacIntel,60,m,1,0.57205,,,,,,,,0.57205,1,,,,,,138,WORD,"ID",50,melody,MELODY,m,,,,,,0.625655382,-0.445980903,0,0,0,,0,116,116,77,1,
,,,,,,,,,,,,,,,,,,5e988374315d6f0a10bac638,2020-08-10_13h09.29.891,lexical_decision_task_MP,2020.1.3,MacIntel,60,m,1,0.89852,,,,,,,,0.89852,1,,,,,,231,WORD,UN,33,inject,EXPORT,m,,,,,,0.625655382,-0.445980903,0,0,0,,0,117,117,170,1,
,,,,,,,,,,,,,,,,,,5e988374315d6f0a10bac638,2020-08-10_13h09.29.891,lexical_decision_task_MP,2020.1.3,MacIntel,60,m,1,0.519205,,,,,,,,0.519205,1,,,,,,93,WORD,"ID",33,public,PUBLIC,m,,,,,,0.625655382,-0.445980903,0,0,0,,0,118,118,32,1,
,,,,,,,,,,,,,,,,,,5e988374315d6f0a10bac638,2020-08-10_13h09.29.891,lexical_decision_task_MP,2020.1.3,MacIntel,60,m,1,0.78684,,,,,,,,0.78684,1,,,,,,222,WORD,UN,33,export,HINDER,m,,,,,,0.625655382,-0.445980903,0,0,0,,0,119,119,161,1,
,,,,,,,,,,,,,,,,,,5e988374315d6f0a10bac638,2020-08-10_13h09.29.891,lexical_decision_task_MP,2020.1.3,MacIntel,60,z,1,0.60458,,,,,,,,0.60458,1,,,,,,370,NW,"ID",50,sleact,SLEACT,z,,,,,,0.657092014,-0.352144097,0,0,0,space,0,120,120,309,1,39.004315
,,,,,,,,,,,,,,,,,,5e988374315d6f0a10bac638,2020-08-10_13h09.29.891,lexical_decision_task_MP,2020.1.3,MacIntel,60,z,1,0.75325,,,,,,,,0.75325,1,,,,,,256,NW,UN,50,veniod,INLORS,z,,,,,,0.657092014,-0.352144097,0,0,0,,0,121,121,435,1,
,,,,,,,,,,,,,,,,,,5e988374315d6f0a10bac638,2020-08-10_13h09.29.891,lexical_decision_task_MP,2020.1.3,MacIntel,60,m,1,0.64,,,,,,,,0.64,1,,,,,,12,WORD,UN,50,strive,ORANGE,m,,,,,,0.657092014,-0.352144097,0,0,0,,0,122,122,191,1,
,,,,,,,,,,,,,,,,,,5e988374315d6f0a10bac638,2020-08-10_13h09.29.891,lexical_decision_task_MP,2020.1.3,MacIntel,60,z,1,0.98776,,,,,,,,0.98776,1,,,,,,411,NW,"ID",50,orchin,ORCHIN,z,,,,,,0.657092014,-0.352144097,0,0,0,,0,123,123,350,1,
,,,,,,,,,,,,,,,,,,5e988374315d6f0a10bac638,2020-08-10_13h09.29.891,lexical_decision_task_MP,2020.1.3,MacIntel,60,m,1,0.564515,,,,,,,,0.564515,1,,,,,,238,WORD,UN,33,behalf,FLOWER,m,,,,,,0.657092014,-0.352144097,0,0,0,,0,124,124,177,1,
,,,,,,,,,,,,,,,,,,5e988374315d6f0a10bac638,2020-08-10_13h09.29.891,lexical_decision_task_MP,2020.1.3,MacIntel,60,m,1,0.464835,,,,,,,,0.464835,1,,,,,,132,WORD,"ID",50,strong,STRONG,m,,,,,,0.657092014,-0.352144097,0,0,0,,0,125,125,71,1,
,,,,,,,,,,,,,,,,,,5e988374315d6f0a10bac638,2020-08-10_13h09.29.891,lexical_decision_task_MP,2020.1.3,MacIntel,60,m,1,0.52955,,,,,,,,0.52955,1,,,,,,195,WORD,UN,33,credit,RESIGN,m,,,,,,0.657092014,-0.352144097,0,0,0,,0,126,126,134,1,
,,,,,,,,,,,,,,,,,,5e988374315d6f0a10bac638,2020-08-10_13h09.29.891,lexical_decision_task_MP,2020.1.3,MacIntel,60,m,1,0.585965,,,,,,,,0.585965,1,,,,,,70,WORD,"ID",33,square,SQUARE,m,,,,,,0.657092014,-0.352144097,0,0,0,,0,127,127,9,1,
,,,,,,,,,,,,,,,,,,5e988374315d6f0a10bac638,2020-08-10_13h09.29.891,lexical_decision_task_MP,2020.1.3,MacIntel,60,m,1,0.61964,,,,,,,,0.61964,1,,,,,,220,WORD,UN,33,mascot,VOYAGE,m,,,,,,0.657092014,-0.352144097,0,0,0,,0,128,128,159,1,
,,,,,,,,,,,,,,,,,,5e988374315d6f0a10bac638,2020-08-10_13h09.29.891,lexical_decision_task_MP,2020.1.3,MacIntel,60,z,1,0.63816,,,,,,,,0.63816,1,,,,,,459,NW,UN,33,mingar,BAFENT,z,,,,,,0.657092014,-0.352144097,0,0,0,,0,129,129,398,1,
,,,,,,,,,,,,,,,,,,5e988374315d6f0a10bac638,2020-08-10_13h09.29.891,lexical_decision_task_MP,2020.1.3,MacIntel,60,z,1,0.642055,,,,,,,,0.642055,1,,,,,,299,NW,UN,50,yarion,STURCH,z,,,,,,0.657092014,-0.352144097,0,0,0,,0,130,130,478,1,
,,,,,,,,,,,,,,,,,,5e988374315d6f0a10bac638,2020-08-10_13h09.29.891,lexical_decision_task_MP,2020.1.3,MacIntel,60,m,1,0.562045,,,,,,,,0.562045,1,,,,,,87,WORD,"ID",33,filter,FILTER,m,,,,,,0.657092014,-0.352144097,0,0,0,,0,131,131,26,1,
,,,,,,,,,,,,,,,,,,5e988374315d6f0a10bac638,2020-08-10_13h09.29.891,lexical_decision_task_MP,2020.1.3,MacIntel,60,z,1,0.73488,,,,,,,,0.73488,1,,,,,,345,NW,"ID",33,absend,ABSEND,z,,,,,,0.657092014,-0.352144097,0,0,0,,0,132,132,284,1,
,,,,,,,,,,,,,,,,,,5e988374315d6f0a10bac638,2020-08-10_13h09.29.891,lexical_decision_task_MP,2020.1.3,MacIntel,60,m,1,0.58004,,,,,,,,0.58004,1,,,,,,114,WORD,"ID",33,placid,PLACID,m,,,,,,0.657092014,-0.352144097,0,0,0,,0,133,133,53,1,
,,,,,,,,,,,,,,,,,,5e988374315d6f0a10bac638,2020-08-10_13h09.29.891,lexical_decision_task_MP,2020.1.3,MacIntel,60,z,1,0.69615,,,,,,,,0.69615,1,,,,,,297,NW,UN,50,piergy,FERTIC,z,,,,,,0.657092014,-0.352144097,0,0,0,,0,134,134,476,1,
,,,,,,,,,,,,,,,,,,5e988374315d6f0a10bac638,2020-08-10_13h09.29.891,lexical_decision_task_MP,2020.1.3,MacIntel,60,m,0,0.620735,,,,,,,,0.620735,0,,,,,,271,NW,UN,50,damilt,AUBRID,z,,,,,,0.657092014,-0.352144097,0,0,0,,0,135,135,450,1,
,,,,,,,,,,,,,,,,,,5e988374315d6f0a10bac638,2020-08-10_13h09.29.891,lexical_decision_task_MP,2020.1.3,MacIntel,60,z,1,0.68564,,,,,,,,0.68564,1,,,,,,392,NW,"ID",50,rouncy,ROUNCY,z,,,,,,0.657092014,-0.352144097,0,0,0,,0,136,136,331,1,
,,,,,,,,,,,,,,,,,,5e988374315d6f0a10bac638,2020-08-10_13h09.29.891,lexical_decision_task_MP,2020.1.3,MacIntel,60,m,1,0.598835,,,,,,,,0.598835,1,,,,,,22,WORD,UN,50,wealth,JOCKEY,m,,,,,,0.657092014,-0.352144097,0,0,0,,0,137,137,201,1,
,,,,,,,,,,,,,,,,,,5e988374315d6f0a10bac638,2020-08-10_13h09.29.891,lexical_decision_task_MP,2020.1.3,MacIntel,60,m,1,0.550015,,,,,,,,0.550015,1,,,,,,81,WORD,"ID",33,friend,FRIEND,m,,,,,,0.657092014,-0.352144097,0,0,0,,0,138,138,20,1,
,,,,,,,,,,,,,,,,,,5e988374315d6f0a10bac638,2020-08-10_13h09.29.891,lexical_decision_task_MP,2020.1.3,MacIntel,60,m,0,1.184265,,,,,,,,1.184265,0,,,,,,426,NW,UN,33,schind,URIVEL,z,,,,,,0.657092014,-0.352144097,0,0,0,,0,139,139,365,1,
,,,,,,,,,,,,,,,,,,5e988374315d6f0a10bac638,2020-08-10_13h09.29.891,lexical_decision_task_MP,2020.1.3,MacIntel,60,z,1,1.189495,,,,,,,,1.189495,1,,,,,,300,NW,UN,50,smenco,YARION,z,,,,,,0.657092014,-0.352144097,0,0,0,,0,140,140,479,1,
,,,,,,,,,,,,,,,,,,5e988374315d6f0a10bac638,2020-08-10_13h09.29.891,lexical_decision_task_MP,2020.1.3,MacIntel,60,z,1,0.696955,,,,,,,,0.696955,1,,,,,,264,NW,UN,50,distar,VACKEL,z,,,,,,0.657092014,-0.352144097,0,0,0,,0,141,141,443,1,
,,,,,,,,,,,,,,,,,,5e988374315d6f0a10bac638,2020-08-10_13h09.29.891,lexical_decision_task_MP,2020.1.3,MacIntel,60,z,1,0.503915,,,,,,,,0.503915,1,,,,,,413,NW,"ID",50,equats,EQUATS,z,,,,,,0.657092014,-0.352144097,0,0,0,,0,142,142,352,1,
,,,,,,,,,,,,,,,,,,5e988374315d6f0a10bac638,2020-08-10_13h09.29.891,lexical_decision_task_MP,2020.1.3,MacIntel,60,m,1,0.585295,,,,,,,,0.585295,1,,,,,,98,WORD,"ID",33,belong,BELONG,m,,,,,,0.657092014,-0.352144097,0,0,0,,0,143,143,37,1,
,,,,,,,,,,,,,,,,,,5e988374315d6f0a10bac638,2020-08-10_13h09.29.891,lexical_decision_task_MP,2020.1.3,MacIntel,60,m,1,0.5,,,,,,,,0.5,1,,,,,,158,WORD,"ID",50,island,ISLAND,m,,,,,,0.657092014,-0.352144097,0,0,0,,0,144,144,97,1,
,,,,,,,,,,,,,,,,,,5e988374315d6f0a10bac638,2020-08-10_13h09.29.891,lexical_decision_task_MP,2020.1.3,MacIntel,60,z,1,0.92134,,,,,,,,0.92134,1,,,,,,331,NW,"ID",33,gilfew,GILFEW,z,,,,,,0.657092014,-0.352144097,0,0,0,,0,145,145,270,1,
,,,,,,,,,,,,,,,,,,5e988374315d6f0a10bac638,2020-08-10_13h09.29.891,lexical_decision_task_MP,2020.1.3,MacIntel,60,z,1,0.55072,,,,,,,,0.55072,1,,,,,,400,NW,"ID",50,wearox,WEAROX,z,,,,,,0.657092014,-0.352144097,0,0,0,,0,146,146,339,1,
,,,,,,,,,,,,,,,,,,5e988374315d6f0a10bac638,2020-08-10_13h09.29.891,lexical_decision_task_MP,2020.1.3,MacIntel,60,z,1,0.620025,,,,,,,,0.620025,1,,,,,,416,NW,"ID",50,pathel,PATHEL,z,,,,,,0.657092014,-0.352144097,0,0,0,,0,147,147,355,1,
,,,,,,,,,,,,,,,,,,5e988374315d6f0a10bac638,2020-08-10_13h09.29.891,lexical_decision_task_MP,2020.1.3,MacIntel,60,m,1,0.597565,,,,,,,,0.597565,1,,,,,,137,WORD,"ID",50,finger,FINGER,m,,,,,,0.657092014,-0.352144097,0,0,0,,0,148,148,76,1,
,,,,,,,,,,,,,,,,,,5e988374315d6f0a10bac638,2020-08-10_13h09.29.891,lexical_decision_task_MP,2020.1.3,MacIntel,60,z,1,0.647045,,,,,,,,0.647045,1,,,,,,287,NW,UN,50,yaceup,NYMBEL,z,,,,,,0.657092014,-0.352144097,0,0,0,,0,149,149,466,1,
,,,,,,,,,,,,,,,,,,5e988374315d6f0a10bac638,2020-08-10_13h09.29.891,lexical_decision_task_MP,2020.1.3,MacIntel,60,z,1,0.751635,,,,,,,,0.751635,1,,,,,,320,NW,"ID",33,jockal,JOCKAL,z,,,,,,0.657092014,-0.352144097,0,0,0,,0,150,150,259,1,
,,,,,,,,,,,,,,,,,,5e988374315d6f0a10bac638,2020-08-10_13h09.29.891,lexical_decision_task_MP,2020.1.3,MacIntel,60,z,1,0.599525,,,,,,,,0.599525,1,,,,,,251,NW,UN,50,stapod,LUPICT,z,,,,,,0.657092014,-0.352144097,0,0,0,,0,151,151,430,1,
,,,,,,,,,,,,,,,,,,5e988374315d6f0a10bac638,2020-08-10_13h09.29.891,lexical_decision_task_MP,2020.1.3,MacIntel,60,m,1,0.584985,,,,,,,,0.584985,1,,,,,,162,WORD,"ID",50,candle,CANDLE,m,,,,,,0.657092014,-0.352144097,0,0,0,,0,152,152,101,1,
,,,,,,,,,,,,,,,,,,5e988374315d6f0a10bac638,2020-08-10_13h09.29.891,lexical_decision_task_MP,2020.1.3,MacIntel,60,m,1,0.59193,,,,,,,,0.59193,1,,,,,,232,WORD,UN,33,nature,INJECT,m,,,,,,0.657092014,-0.352144097,0,0,0,,0,153,153,171,1,
,,,,,,,,,,,,,,,,,,5e988374315d6f0a10bac638,2020-08-10_13h09.29.891,lexical_decision_task_MP,2020.1.3,MacIntel,60,z,1,0.7546,,,,,,,,0.7546,1,,,,,,342,NW,"ID",33,randow,RANDOW,z,,,,,,0.657092014,-0.352144097,0,0,0,,0,154,154,281,1,
,,,,,,,,,,,,,,,,,,5e988374315d6f0a10bac638,2020-08-10_13h09.29.891,lexical_decision_task_MP,2020.1.3,MacIntel,60,m,1,0.835475,,,,,,,,0.835475,1,,,,,,217,WORD,UN,33,shrink,LIQUOR,m,,,,,,0.657092014,-0.352144097,0,0,0,,0,155,155,156,1,
,,,,,,,,,,,,,,,,,,5e988374315d6f0a10bac638,2020-08-10_13h09.29.891,lexical_decision_task_MP,2020.1.3,MacIntel,60,z,1,0.667825,,,,,,,,0.667825,1,,,,,,453,NW,UN,33,scouge,BOLVIS,z,,,,,,0.657092014,-0.352144097,0,0,0,,0,156,156,392,1,
,,,,,,,,,,,,,,,,,,5e988374315d6f0a10bac638,2020-08-10_13h09.29.891,lexical_decision_task_MP,2020.1.3,MacIntel,60,m,1,0.612725,,,,,,,,0.612725,1,,,,,,83,WORD,"ID",33,result,RESULT,m,,,,,,0.657092014,-0.352144097,0,0,0,,0,157,157,22,1,
,,,,,,,,,,,,,,,,,,5e988374315d6f0a10bac638,2020-08-10_13h09.29.891,lexical_decision_task_MP,2020.1.3,MacIntel,60,m,1,0.747645,,,,,,,,0.747645,1,,,,,,94,WORD,"ID",33,travel,TRAVEL,m,,,,,,0.657092014,-0.352144097,0,0,0,,0,158,158,33,1,
,,,,,,,,,,,,,,,,,,5e988374315d6f0a10bac638,2020-08-10_13h09.29.891,lexical_decision_task_MP,2020.1.3,MacIntel,60,z,1,0.76898,,,,,,,,0.76898,1,,,,,,335,NW,"ID",33,desion,DESION,z,,,,,,0.657092014,-0.352144097,0,0,0,,0,159,159,274,1,
,,,,,,,,,,,,,,,,,,5e988374315d6f0a10bac638,2020-08-10_13h09.29.891,lexical_decision_task_MP,2020.1.3,MacIntel,60,z,0,0.650415,,,,,,,,0.650415,0,,,,,,236,WORD,UN,33,grumpy,PIRATE,m,,,,,,0.657092014,-0.352144097,0,0,0,,0,160,160,175,1,
,,,,,,,,,,,,,,,,,,5e988374315d6f0a10bac638,2020-08-10_13h09.29.891,lexical_decision_task_MP,2020.1.3,MacIntel,60,z,1,0.6906,,,,,,,,0.6906,1,,,,,,376,NW,"ID",50,iguare,IGUARE,z,,,,,,0.657092014,-0.352144097,0,0,0,,0,161,161,315,1,
,,,,,,,,,,,,,,,,,,5e988374315d6f0a10bac638,2020-08-10_13h09.29.891,lexical_decision_task_MP,2020.1.3,MacIntel,60,z,1,0.613705,,,,,,,,0.613705,1,,,,,,460,NW,UN,33,justre,MINGAR,z,,,,,,0.657092014,-0.352144097,0,0,0,,0,162,162,399,1,
,,,,,,,,,,,,,,,,,,5e988374315d6f0a10bac638,2020-08-10_13h09.29.891,lexical_decision_task_MP,2020.1.3,MacIntel,60,z,1,0.534145,,,,,,,,0.534145,1,,,,,,304,NW,"ID",33,cludie,CLUDIE,z,,,,,,0.657092014,-0.352144097,0,0,0,,0,163,163,243,1,
,,,,,,,,,,,,,,,,,,5e988374315d6f0a10bac638,2020-08-10_13h09.29.891,lexical_decision_task_MP,2020.1.3,MacIntel,60,m,1,0.590715,,,,,,,,0.590715,1,,,,,,161,WORD,"ID",50,pastor,PASTOR,m,,,,,,0.657092014,-0.352144097,0,0,0,,0,164,164,100,1,
,,,,,,,,,,,,,,,,,,5e988374315d6f0a10bac638,2020-08-10_13h09.29.891,lexical_decision_task_MP,2020.1.3,MacIntel,60,m,1,0.521545,,,,,,,,0.521545,1,,,,,,66,WORD,"ID",33,gospel,GOSPEL,m,,,,,,0.657092014,-0.352144097,0,0,0,,0,165,165,5,1,
,,,,,,,,,,,,,,,,,,5e988374315d6f0a10bac638,2020-08-10_13h09.29.891,lexical_decision_task_MP,2020.1.3,MacIntel,60,m,1,0.64638,,,,,,,,0.64638,1,,,,,,146,WORD,"ID",50,couple,COUPLE,m,,,,,,0.657092014,-0.352144097,0,0,0,,0,166,166,85,1,
,,,,,,,,,,,,,,,,,,5e988374315d6f0a10bac638,2020-08-10_13h09.29.891,lexical_decision_task_MP,2020.1.3,MacIntel,60,z,1,0.788735,,,,,,,,0.788735,1,,,,,,430,NW,UN,33,chrums,CAROEY,z,,,,,,0.657092014,-0.352144097,0,0,0,,0,167,167,369,1,
,,,,,,,,,,,,,,,,,,5e988374315d6f0a10bac638,2020-08-10_13h09.29.891,lexical_decision_task_MP,2020.1.3,MacIntel,60,z,1,0.755705,,,,,,,,0.755705,1,,,,,,355,NW,"ID",33,zingly,ZINGLY,z,,,,,,0.657092014,-0.352144097,0,0,0,,0,168,168,294,1,
,,,,,,,,,,,,,,,,,,5e988374315d6f0a10bac638,2020-08-10_13h09.29.891,lexical_decision_task_MP,2020.1.3,MacIntel,60,m,1,0.723275,,,,,,,,0.723275,1,,,,,,62,WORD,"ID",33,region,REGION,m,,,,,,0.657092014,-0.352144097,0,0,0,,0,169,169,1,1,
,,,,,,,,,,,,,,,,,,5e988374315d6f0a10bac638,2020-08-10_13h09.29.891,lexical_decision_task_MP,2020.1.3,MacIntel,60,m,1,0.611945,,,,,,,,0.611945,1,,,,,,64,WORD,"ID",33,throne,THRONE,m,,,,,,0.657092014,-0.352144097,0,0,0,,0,170,170,3,1,
,,,,,,,,,,,,,,,,,,5e988374315d6f0a10bac638,2020-08-10_13h09.29.891,lexical_decision_task_MP,2020.1.3,MacIntel,60,m,1,0.53147,,,,,,,,0.53147,1,,,,,,210,WORD,UN,33,infect,MONKEY,m,,,,,,0.657092014,-0.352144097,0,0,0,,0,171,171,149,1,
,,,,,,,,,,,,,,,,,,5e988374315d6f0a10bac638,2020-08-10_13h09.29.891,lexical_decision_task_MP,2020.1.3,MacIntel,60,z,1,0.721935,,,,,,,,0.721935,1,,,,,,247,NW,UN,50,strole,BLARGE,z,,,,,,0.657092014,-0.352144097,0,0,0,,0,172,172,426,1,
,,,,,,,,,,,,,,,,,,5e988374315d6f0a10bac638,2020-08-10_13h09.29.891,lexical_decision_task_MP,2020.1.3,MacIntel,60,m,1,0.738255,,,,,,,,0.738255,1,,,,,,33,WORD,UN,50,jungle,BUTLER,m,,,,,,0.657092014,-0.352144097,0,0,0,,0,173,173,212,1,
,,,,,,,,,,,,,,,,,,5e988374315d6f0a10bac638,2020-08-10_13h09.29.891,lexical_decision_task_MP,2020.1.3,MacIntel,60,z,1,0.64549,,,,,,,,0.64549,1,,,,,,263,NW,UN,50,vackel,DOLICA,z,,,,,,0.657092014,-0.352144097,0,0,0,,0,174,174,442,1,
,,,,,,,,,,,,,,,,,,5e988374315d6f0a10bac638,2020-08-10_13h09.29.891,lexical_decision_task_MP,2020.1.3,MacIntel,60,m,1,0.75008,,,,,,,,0.75008,1,,,,,,78,WORD,"ID",33,column,COLUMN,m,,,,,,0.657092014,-0.352144097,0,0,0,,0,175,175,17,1,
,,,,,,,,,,,,,,,,,,5e988374315d6f0a10bac638,2020-08-10_13h09.29.891,lexical_decision_task_MP,2020.1.3,MacIntel,60,z,1,0.65486,,,,,,,,0.65486,1,,,,,,323,NW,"ID",33,rosail,ROSAIL,z,,,,,,0.657092014,-0.352144097,0,0,0,,0,176,176,262,1,
,,,,,,,,,,,,,,,,,,5e988374315d6f0a10bac638,2020-08-10_13h09.29.891,lexical_decision_task_MP,2020.1.3,MacIntel,60,m,1,0.753015,,,,,,,,0.753015,1,,,,,,165,WORD,"ID",50,invest,INVEST,m,,,,,,0.657092014,-0.352144097,0,0,0,,0,177,177,104,1,
,,,,,,,,,,,,,,,,,,5e988374315d6f0a10bac638,2020-08-10_13h09.29.891,lexical_decision_task_MP,2020.1.3,MacIntel,60,z,1,0.80696,,,,,,,,0.80696,1,,,,,,433,NW,UN,33,pitrom,DRANCE,z,,,,,,0.657092014,-0.352144097,0,0,0,,0,178,178,372,1,
,,,,,,,,,,,,,,,,,,5e988374315d6f0a10bac638,2020-08-10_13h09.29.891,lexical_decision_task_MP,2020.1.3,MacIntel,60,m,0,1.06832,,,,,,,,1.06832,0,,,,,,476,NW,UN,33,photie,JOSTED,z,,,,,,0.657092014,-0.352144097,0,0,0,,0,179,179,415,1,
,,,,,,,,,,,,,,,,,,5e988374315d6f0a10bac638,2020-08-10_13h09.29.891,lexical_decision_task_MP,2020.1.3,MacIntel,60,m,1,0.614515,,,,,,,,0.614515,1,,,,,,203,WORD,UN,33,burden,PHRASE,m,,,,,,0.657092014,-0.352144097,0,0,0,,0,180,180,142,1,
,,,,,,,,,,,,,,,,,,5e988374315d6f0a10bac638,2020-08-10_13h09.29.891,lexical_decision_task_MP,2020.1.3,MacIntel,60,z,1,0.731035,,,,,,,,0.731035,1,,,,,,390,NW,"ID",50,hatrus,HATRUS,z,,,,,,0.657092014,-0.352144097,0,0,0,,0,181,181,329,1,
,,,,,,,,,,,,,,,,,,5e988374315d6f0a10bac638,2020-08-10_13h09.29.891,lexical_decision_task_MP,2020.1.3,MacIntel,60,z,0,0.62919,,,,,,,,0.62919,0,,,,,,212,WORD,UN,33,squeal,VERIFY,m,,,,,,0.657092014,-0.352144097,0,0,0,,0,182,182,151,1,
,,,,,,,,,,,,,,,,,,5e988374315d6f0a10bac638,2020-08-10_13h09.29.891,lexical_decision_task_MP,2020.1.3,MacIntel,60,z,1,0.69913,,,,,,,,0.69913,1,,,,,,351,NW,"ID",33,tiesch,TIESCH,z,,,,,,0.657092014,-0.352144097,0,0,0,,0,183,183,290,1,
,,,,,,,,,,,,,,,,,,5e988374315d6f0a10bac638,2020-08-10_13h09.29.891,lexical_decision_task_MP,2020.1.3,MacIntel,60,z,0,0.575705,,,,,,,,0.575705,0,,,,,,74,WORD,"ID",33,plaque,PLAQUE,m,,,,,,0.657092014,-0.352144097,0,0,0,,0,184,184,13,1,
,,,,,,,,,,,,,,,,,,5e988374315d6f0a10bac638,2020-08-10_13h09.29.891,lexical_decision_task_MP,2020.1.3,MacIntel,60,z,1,0.57364,,,,,,,,0.57364,1,,,,,,461,NW,UN,33,absult,JUSTRE,z,,,,,,0.657092014,-0.352144097,0,0,0,,0,185,185,400,1,
,,,,,,,,,,,,,,,,,,5e988374315d6f0a10bac638,2020-08-10_13h09.29.891,lexical_decision_task_MP,2020.1.3,MacIntel,60,m,1,0.58044,,,,,,,,0.58044,1,,,,,,34,WORD,UN,50,socket,JUNGLE,m,,,,,,0.657092014,-0.352144097,0,0,0,,0,186,186,213,1,
,,,,,,,,,,,,,,,,,,5e988374315d6f0a10bac638,2020-08-10_13h09.29.891,lexical_decision_task_MP,2020.1.3,MacIntel,60,z,1,0.652755,,,,,,,,0.652755,1,,,,,,332,NW,"ID",33,vangue,VANGUE,z,,,,,,0.657092014,-0.352144097,0,0,0,,0,187,187,271,1,
,,,,,,,,,,,,,,,,,,5e988374315d6f0a10bac638,2020-08-10_13h09.29.891,lexical_decision_task_MP,2020.1.3,MacIntel,60,z,1,0.72076,,,,,,,,0.72076,1,,,,,,440,NW,UN,33,rastoe,SARIDE,z,,,,,,0.657092014,-0.352144097,0,0,0,,0,188,188,379,1,
,,,,,,,,,,,,,,,,,,5e988374315d6f0a10bac638,2020-08-10_13h09.29.891,lexical_decision_task_MP,2020.1.3,MacIntel,60,m,1,0.6511,,,,,,,,0.6511,1,,,,,,239,WORD,UN,33,forest,LUMBER,m,,,,,,0.657092014,-0.352144097,0,0,0,,0,189,189,178,1,
,,,,,,,,,,,,,,,,,,5e988374315d6f0a10bac638,2020-08-10_13h09.29.891,lexical_decision_task_MP,2020.1.3,MacIntel,60,z,1,0.8542,,,,,,,,0.8542,1,,,,,,435,NW,UN,33,frutan,IMPURB,z,,,,,,0.657092014,-0.352144097,0,0,0,,0,190,190,374,1,
,,,,,,,,,,,,,,,,,,5e988374315d6f0a10bac638,2020-08-10_13h09.29.891,lexical_decision_task_MP,2020.1.3,MacIntel,60,z,1,0.69641,,,,,,,,0.69641,1,,,,,,401,NW,"ID",50,mustil,MUSTIL,z,,,,,,0.657092014,-0.352144097,0,0,0,,0,191,191,340,1,
,,,,,,,,,,,,,,,,,,5e988374315d6f0a10bac638,2020-08-10_13h09.29.891,lexical_decision_task_MP,2020.1.3,MacIntel,60,z,1,0.60664,,,,,,,,0.60664,1,,,,,,450,NW,UN,33,cainky,PHRECT,z,,,,,,0.657092014,-0.352144097,0,0,0,,0,192,192,389,1,
,,,,,,,,,,,,,,,,,,5e988374315d6f0a10bac638,2020-08-10_13h09.29.891,lexical_decision_task_MP,2020.1.3,MacIntel,60,m,1,0.66636,,,,,,,,0.66636,1,,,,,,240,WORD,UN,33,seldom,FOREST,m,,,,,,0.657092014,-0.352144097,0,0,0,,0,193,193,179,1,
,,,,,,,,,,,,,,,,,,5e988374315d6f0a10bac638,2020-08-10_13h09.29.891,lexical_decision_task_MP,2020.1.3,MacIntel,60,m,1,0.55491,,,,,,,,0.55491,1,,,,,,187,WORD,UN,33,social,COURSE,m,,,,,,0.657092014,-0.352144097,0,0,0,,0,194,194,126,1,
,,,,,,,,,,,,,,,,,,5e988374315d6f0a10bac638,2020-08-10_13h09.29.891,lexical_decision_task_MP,2020.1.3,MacIntel,60,m,1,0.538275,,,,,,,,0.538275,1,,,,,,72,WORD,"ID",33,bright,BRIGHT,m,,,,,,0.657092014,-0.352144097,0,0,0,,0,195,195,11,1,
,,,,,,,,,,,,,,,,,,5e988374315d6f0a10bac638,2020-08-10_13h09.29.891,lexical_decision_task_MP,2020.1.3,MacIntel,60,m,0,0.56446,,,,,,,,0.56446,0,,,,,,303,NW,"ID",33,fiream,FIREAM,z,,,,,,0.657092014,-0.352144097,0,0,0,,0,196,196,242,1,
,,,,,,,,,,,,,,,,,,5e988374315d6f0a10bac638,2020-08-10_13h09.29.891,lexical_decision_task_MP,2020.1.3,MacIntel,60,z,1,1.48943,,,,,,,,1.48943,1,,,,,,372,NW,"ID",50,ramily,RAMILY,z,,,,,,0.657092014,-0.352144097,0,0,0,,0,197,197,311,1,
,,,,,,,,,,,,,,,,,,5e988374315d6f0a10bac638,2020-08-10_13h09.29.891,lexical_decision_task_MP,2020.1.3,MacIntel,60,m,1,1.138145,,,,,,,,1.138145,1,,,,,,47,WORD,UN,50,walnut,INCOME,m,,,,,,0.657092014,-0.352144097,0,0,0,,0,198,198,226,1,
,,,,,,,,,,,,,,,,,,5e988374315d6f0a10bac638,2020-08-10_13h09.29.891,lexical_decision_task_MP,2020.1.3,MacIntel,60,m,1,0.661935,,,,,,,,0.661935,1,,,,,,39,WORD,UN,50,convey,INSECT,m,,,,,,0.657092014,-0.352144097,0,0,0,,0,199,199,218,1,
,,,,,,,,,,,,,,,,,,5e988374315d6f0a10bac638,2020-08-10_13h09.29.891,lexical_decision_task_MP,2020.1.3,MacIntel,60,m,1,0.70577,,,,,,,,0.70577,1,,,,,,156,WORD,"ID",50,cradle,CRADLE,m,,,,,,0.657092014,-0.352144097,0,0,0,,0,200,200,95,1,
,,,,,,,,,,,,,,,,,,5e988374315d6f0a10bac638,2020-08-10_13h09.29.891,lexical_decision_task_MP,2020.1.3,MacIntel,60,m,1,0.55444,,,,,,,,0.55444,1,,,,,,157,WORD,"ID",50,dragon,DRAGON,m,,,,,,0.657092014,-0.352144097,0,0,0,,0,201,201,96,1,
,,,,,,,,,,,,,,,,,,5e988374315d6f0a10bac638,2020-08-10_13h09.29.891,lexical_decision_task_MP,2020.1.3,MacIntel,60,z,1,0.875605,,,,,,,,0.875605,1,,,,,,313,NW,"ID",33,paurse,PAURSE,z,,,,,,0.657092014,-0.352144097,0,0,0,,0,202,202,252,1,
,,,,,,,,,,,,,,,,,,5e988374315d6f0a10bac638,2020-08-10_13h09.29.891,lexical_decision_task_MP,2020.1.3,MacIntel,60,z,1,0.648355,,,,,,,,0.648355,1,,,,,,279,NW,UN,50,curbol,CELOND,z,,,,,,0.657092014,-0.352144097,0,0,0,,0,203,203,458,1,
,,,,,,,,,,,,,,,,,,5e988374315d6f0a10bac638,2020-08-10_13h09.29.891,lexical_decision_task_MP,2020.1.3,MacIntel,60,m,1,0.71751,,,,,,,,0.71751,1,,,,,,17,WORD,UN,50,humble,CHARGE,m,,,,,,0.657092014,-0.352144097,0,0,0,,0,204,204,196,1,
,,,,,,,,,,,,,,,,,,5e988374315d6f0a10bac638,2020-08-10_13h09.29.891,lexical_decision_task_MP,2020.1.3,MacIntel,60,z,1,0.920635,,,,,,,,0.920635,1,,,,,,278,NW,UN,50,celond,UNIGHS,z,,,,,,0.657092014,-0.352144097,0,0,0,,0,205,205,457,1,
,,,,,,,,,,,,,,,,,,5e988374315d6f0a10bac638,2020-08-10_13h09.29.891,lexical_decision_task_MP,2020.1.3,MacIntel,60,z,1,0.76775,,,,,,,,0.76775,1,,,,,,434,NW,UN,33,impurb,PITROM,z,,,,,,0.657092014,-0.352144097,0,0,0,,0,206,206,373,1,
,,,,,,,,,,,,,,,,,,5e988374315d6f0a10bac638,2020-08-10_13h09.29.891,lexical_decision_task_MP,2020.1.3,MacIntel,60,z,0,0.686395,,,,,,,,0.686395,0,,,,,,176,WORD,"ID",50,strife,STRIFE,m,,,,,,0.657092014,-0.352144097,0,0,0,,0,207,207,115,1,
,,,,,,,,,,,,,,,,,,5e988374315d6f0a10bac638,2020-08-10_13h09.29.891,lexical_decision_task_MP,2020.1.3,MacIntel,60,z,1,0.83842,,,,,,,,0.83842,1,,,,,,267,NW,UN,50,packes,PASINK,z,,,,,,0.657092014,-0.352144097,0,0,0,,0,208,208,446,1,
,,,,,,,,,,,,,,,,,,5e988374315d6f0a10bac638,2020-08-10_13h09.29.891,lexical_decision_task_MP,2020.1.3,MacIntel,60,z,1,0.80171,,,,,,,,0.80171,1,,,,,,397,NW,"ID",50,camble,CAMBLE,z,,,,,,0.657092014,-0.352144097,0,0,0,,0,209,209,336,1,
,,,,,,,,,,,,,,,,,,5e988374315d6f0a10bac638,2020-08-10_13h09.29.891,lexical_decision_task_MP,2020.1.3,MacIntel,60,m,1,0.701575,,,,,,,,0.701575,1,,,,,,126,WORD,"ID",50,enough,ENOUGH,m,,,,,,0.657092014,-0.352144097,0,0,0,,0,210,210,65,1,
,,,,,,,,,,,,,,,,,,5e988374315d6f0a10bac638,2020-08-10_13h09.29.891,lexical_decision_task_MP,2020.1.3,MacIntel,60,m,1,0.517795,,,,,,,,0.517795,1,,,,,,121,WORD,"ID",50,thrive,THRIVE,m,,,,,,0.657092014,-0.352144097,0,0,0,,0,211,211,60,1,
,,,,,,,,,,,,,,,,,,5e988374315d6f0a10bac638,2020-08-10_13h09.29.891,lexical_decision_task_MP,2020.1.3,MacIntel,60,z,1,0.74777,,,,,,,,0.74777,1,,,,,,425,NW,UN,33,urivel,FRUDGE,z,,,,,,0.657092014,-0.352144097,0,0,0,,0,212,212,364,1,
,,,,,,,,,,,,,,,,,,5e988374315d6f0a10bac638,2020-08-10_13h09.29.891,lexical_decision_task_MP,2020.1.3,MacIntel,60,m,1,0.59872,,,,,,,,0.59872,1,,,,,,109,WORD,"ID",33,wonder,WONDER,m,,,,,,0.657092014,-0.352144097,0,0,0,,0,213,213,48,1,
,,,,,,,,,,,,,,,,,,5e988374315d6f0a10bac638,2020-08-10_13h09.29.891,lexical_decision_task_MP,2020.1.3,MacIntel,60,m,1,0.679745,,,,,,,,0.679745,1,,,,,,175,WORD,"ID",50,fabric,FABRIC,m,,,,,,0.657092014,-0.352144097,0,0,0,,0,214,214,114,1,
,,,,,,,,,,,,,,,,,,5e988374315d6f0a10bac638,2020-08-10_13h09.29.891,lexical_decision_task_MP,2020.1.3,MacIntel,60,z,1,0.86168,,,,,,,,0.86168,1,,,,,,292,NW,UN,50,swance,ABLINT,z,,,,,,0.657092014,-0.352144097,0,0,0,,0,215,215,471,1,
,,,,,,,,,,,,,,,,,,5e988374315d6f0a10bac638,2020-08-10_13h09.29.891,lexical_decision_task_MP,2020.1.3,MacIntel,60,z,1,0.58682,,,,,,,,0.58682,1,,,,,,243,NW,UN,50,eatric,MUSIED,z,,,,,,0.657092014,-0.352144097,0,0,0,,0,216,216,422,1,
,,,,,,,,,,,,,,,,,,5e988374315d6f0a10bac638,2020-08-10_13h09.29.891,lexical_decision_task_MP,2020.1.3,MacIntel,60,m,1,0.55292,,,,,,,,0.55292,1,,,,,,13,WORD,UN,50,almost,STRIVE,m,,,,,,0.657092014,-0.352144097,0,0,0,,0,217,217,192,1,
,,,,,,,,,,,,,,,,,,5e988374315d6f0a10bac638,2020-08-10_13h09.29.891,lexical_decision_task_MP,2020.1.3,MacIntel,60,m,1,0.468615,,,,,,,,0.468615,1,,,,,,150,WORD,"ID",50,random,RANDOM,m,,,,,,0.657092014,-0.352144097,0,0,0,,0,218,218,89,1,
,,,,,,,,,,,,,,,,,,5e988374315d6f0a10bac638,2020-08-10_13h09.29.891,lexical_decision_task_MP,2020.1.3,MacIntel,60,m,1,0.481225,,,,,,,,0.481225,1,,,,,,91,WORD,"ID",33,expand,EXPAND,m,,,,,,0.657092014,-0.352144097,0,0,0,,0,219,219,30,1,
,,,,,,,,,,,,,,,,,,5e988374315d6f0a10bac638,2020-08-10_13h09.29.891,lexical_decision_task_MP,2020.1.3,MacIntel,60,m,1,0.579465,,,,,,,,0.579465,1,,,,,,205,WORD,UN,33,tailor,LOUNGE,m,,,,,,0.657092014,-0.352144097,0,0,0,,0,220,220,144,1,
,,,,,,,,,,,,,,,,,,5e988374315d6f0a10bac638,2020-08-10_13h09.29.891,lexical_decision_task_MP,2020.1.3,MacIntel,60,m,1,0.584495,,,,,,,,0.584495,1,,,,,,189,WORD,UN,33,backup,CENSOR,m,,,,,,0.657092014,-0.352144097,0,0,0,,0,221,221,128,1,
,,,,,,,,,,,,,,,,,,5e988374315d6f0a10bac638,2020-08-10_13h09.29.891,lexical_decision_task_MP,2020.1.3,MacIntel,60,m,1,0.618285,,,,,,,,0.618285,1,,,,,,200,WORD,UN,33,admire,BEACON,m,,,,,,0.657092014,-0.352144097,0,0,0,,0,222,222,139,1,
,,,,,,,,,,,,,,,,,,5e988374315d6f0a10bac638,2020-08-10_13h09.29.891,lexical_decision_task_MP,2020.1.3,MacIntel,60,m,1,0.50877,,,,,,,,0.50877,1,,,,,,58,WORD,UN,50,splint,FOSTER,m,,,,,,0.657092014,-0.352144097,0,0,0,,0,223,223,237,1,
,,,,,,,,,,,,,,,,,,5e988374315d6f0a10bac638,2020-08-10_13h09.29.891,lexical_decision_task_MP,2020.1.3,MacIntel,60,m,1,0.48595,,,,,,,,0.48595,1,,,,,,237,WORD,UN,33,glance,POSTER,m,,,,,,0.657092014,-0.352144097,0,0,0,,0,224,224,176,1,
,,,,,,,,,,,,,,,,,,5e988374315d6f0a10bac638,2020-08-10_13h09.29.891,lexical_decision_task_MP,2020.1.3,MacIntel,60,m,1,0.501525,,,,,,,,0.501525,1,,,,,,53,WORD,UN,50,ramble,POLICE,m,,,,,,0.657092014,-0.352144097,0,0,0,,0,225,225,232,1,
,,,,,,,,,,,,,,,,,,5e988374315d6f0a10bac638,2020-08-10_13h09.29.891,lexical_decision_task_MP,2020.1.3,MacIntel,60,m,0,0.46896,,,,,,,,0.46896,0,,,,,,364,NW,"ID",50,impote,IMPOTE,z,,,,,,0.657092014,-0.352144097,0,0,0,,0,226,226,303,1,
,,,,,,,,,,,,,,,,,,5e988374315d6f0a10bac638,2020-08-10_13h09.29.891,lexical_decision_task_MP,2020.1.3,MacIntel,60,z,1,0.781845,,,,,,,,0.781845,1,,,,,,420,NW,"ID",50,gushop,GUSHOP,z,,,,,,0.657092014,-0.352144097,0,0,0,,0,227,227,359,1,
,,,,,,,,,,,,,,,,,,5e988374315d6f0a10bac638,2020-08-10_13h09.29.891,lexical_decision_task_MP,2020.1.3,MacIntel,60,m,1,0.765045,,,,,,,,0.765045,1,,,,,,198,WORD,UN,33,invoke,WICKED,m,,,,,,0.657092014,-0.352144097,0,0,0,,0,228,228,137,1,
,,,,,,,,,,,,,,,,,,5e988374315d6f0a10bac638,2020-08-10_13h09.29.891,lexical_decision_task_MP,2020.1.3,MacIntel,60,m,1,0.515645,,,,,,,,0.515645,1,,,,,,233,WORD,UN,33,clumsy,NATURE,m,,,,,,0.657092014,-0.352144097,0,0,0,,0,229,229,172,1,
,,,,,,,,,,,,,,,,,,5e988374315d6f0a10bac638,2020-08-10_13h09.29.891,lexical_decision_task_MP,2020.1.3,MacIntel,60,m,0,0.580015,,,,,,,,0.580015,0,,,,,,358,NW,"ID",33,fleack,FLEACK,z,,,,,,0.657092014,-0.352144097,0,0,0,,0,230,230,297,1,
,,,,,,,,,,,,,,,,,,5e988374315d6f0a10bac638,2020-08-10_13h09.29.891,lexical_decision_task_MP,2020.1.3,MacIntel,60,z,1,0.700845,,,,,,,,0.700845,1,,,,,,418,NW,"ID",50,suidle,SUIDLE,z,,,,,,0.657092014,-0.352144097,0,0,0,,0,231,231,357,1,
,,,,,,,,,,,,,,,,,,5e988374315d6f0a10bac638,2020-08-10_13h09.29.891,lexical_decision_task_MP,2020.1.3,MacIntel,60,m,0,0.705075,,,,,,,,0.705075,0,,,,,,343,NW,"ID",33,aimosy,AIMOSY,z,,,,,,0.657092014,-0.352144097,0,0,0,,0,232,232,282,1,
,,,,,,,,,,,,,,,,,,5e988374315d6f0a10bac638,2020-08-10_13h09.29.891,lexical_decision_task_MP,2020.1.3,MacIntel,60,z,1,1.00203,,,,,,,,1.00203,1,,,,,,330,NW,"ID",33,kensom,KENSOM,z,,,,,,0.657092014,-0.352144097,0,0,0,,0,233,233,269,1,
,,,,,,,,,,,,,,,,,,5e988374315d6f0a10bac638,2020-08-10_13h09.29.891,lexical_decision_task_MP,2020.1.3,MacIntel,60,z,1,0.883905,,,,,,,,0.883905,1,,,,,,344,NW,"ID",33,scrily,SCRILY,z,,,,,,0.657092014,-0.352144097,0,0,0,,0,234,234,283,1,
,,,,,,,,,,,,,,,,,,5e988374315d6f0a10bac638,2020-08-10_13h09.29.891,lexical_decision_task_MP,2020.1.3,MacIntel,60,z,1,0.603875,,,,,,,,0.603875,1,,,,,,449,NW,UN,33,phrect,BRUNGE,z,,,,,,0.657092014,-0.352144097,0,0,0,,0,235,235,388,1,
,,,,,,,,,,,,,,,,,,5e988374315d6f0a10bac638,2020-08-10_13h09.29.891,lexical_decision_task_MP,2020.1.3,MacIntel,60,z,1,0.581525,,,,,,,,0.581525,1,,,,,,248,NW,UN,50,batrol,STROLE,z,,,,,,0.657092014,-0.352144097,0,0,0,,0,236,236,427,1,
,,,,,,,,,,,,,,,,,,5e988374315d6f0a10bac638,2020-08-10_13h09.29.891,lexical_decision_task_MP,2020.1.3,MacIntel,60,z,1,0.616255,,,,,,,,0.616255,1,,,,,,249,NW,UN,50,milted,BATROL,z,,,,,,0.657092014,-0.352144097,0,0,0,,0,237,237,428,1,
,,,,,,,,,,,,,,,,,,5e988374315d6f0a10bac638,2020-08-10_13h09.29.891,lexical_decision_task_MP,2020.1.3,MacIntel,60,z,0,0.5716,,,,,,,,0.5716,0,,,,,,84,WORD,"ID",33,mortal,MORTAL,m,,,,,,0.657092014,-0.352144097,0,0,0,,0,238,238,23,1,
,,,,,,,,,,,,,,,,,,5e988374315d6f0a10bac638,2020-08-10_13h09.29.891,lexical_decision_task_MP,2020.1.3,MacIntel,60,z,1,1.034525,,,,,,,,1.034525,1,,,,,,284,NW,UN,50,prudge,SHAPLE,z,,,,,,0.657092014,-0.352144097,0,0,0,,0,239,239,463,1,
,,,,,,,,,,,,,,,,,,5e988374315d6f0a10bac638,2020-08-10_13h09.29.891,lexical_decision_task_MP,2020.1.3,MacIntel,60,z,1,1.07416,,,,,,,,1.07416,1,,,,,,244,NW,UN,50,anougs,EATRIC,z,,,,,,0.657092014,-0.352144097,0,0,0,,0,240,240,423,1,
,,,,,,,,,,,,,,,,,,5e988374315d6f0a10bac638,2020-08-10_13h09.29.891,lexical_decision_task_MP,2020.1.3,MacIntel,60,z,1,0.631095,,,,,,,,0.631095,1,,,,,,361,NW,"ID",50,pauche,PAUCHE,z,,,,,,0.657092014,-0.352144097,0,0,0,space,0,241,241,300,1,1.398755
,,,,,,,,,,,,,,,,,,5e988374315d6f0a10bac638,2020-08-10_13h09.29.891,lexical_decision_task_MP,2020.1.3,MacIntel,60,z,1,0.62359,,,,,,,,0.62359,1,,,,,,427,NW,UN,33,tandly,SCHIND,z,,,,,,0.657092014,-0.352144097,0,0,0,,0,242,242,366,1,
,,,,,,,,,,,,,,,,,,5e988374315d6f0a10bac638,2020-08-10_13h09.29.891,lexical_decision_task_MP,2020.1.3,MacIntel,60,z,1,0.53411,,,,,,,,0.53411,1,,,,,,327,NW,"ID",33,plenac,PLENAC,z,,,,,,0.657092014,-0.352144097,0,0,0,,0,243,243,266,1,
,,,,,,,,,,,,,,,,,,5e988374315d6f0a10bac638,2020-08-10_13h09.29.891,lexical_decision_task_MP,2020.1.3,MacIntel,60,z,1,0.56345,,,,,,,,0.56345,1,,,,,,398,NW,"ID",50,blunde,BLUNDE,z,,,,,,0.657092014,-0.352144097,0,0,0,,0,244,244,337,1,
,,,,,,,,,,,,,,,,,,5e988374315d6f0a10bac638,2020-08-10_13h09.29.891,lexical_decision_task_MP,2020.1.3,MacIntel,60,z,1,0.52287,,,,,,,,0.52287,1,,,,,,305,NW,"ID",33,forgle,FORGLE,z,,,,,,0.657092014,-0.352144097,0,0,0,,0,245,245,244,1,
,,,,,,,,,,,,,,,,,,5e988374315d6f0a10bac638,2020-08-10_13h09.29.891,lexical_decision_task_MP,2020.1.3,MacIntel,60,z,0,0.519415,,,,,,,,0.519415,0,,,,,,38,WORD,UN,50,insect,POWDER,m,,,,,,0.657092014,-0.352144097,0,0,0,,0,246,246,217,1,
,,,,,,,,,,,,,,,,,,5e988374315d6f0a10bac638,2020-08-10_13h09.29.891,lexical_decision_task_MP,2020.1.3,MacIntel,60,z,1,0.639775,,,,,,,,0.639775,1,,,,,,473,NW,UN,33,hablin,CRIBLE,z,,,,,,0.657092014,-0.352144097,0,0,0,,0,247,247,412,1,
,,,,,,,,,,,,,,,,,,5e988374315d6f0a10bac638,2020-08-10_13h09.29.891,lexical_decision_task_MP,2020.1.3,MacIntel,60,m,1,0.717705,,,,,,,,0.717705,1,,,,,,190,WORD,UN,33,stable,BACKUP,m,,,,,,0.657092014,-0.352144097,0,0,0,,0,248,248,129,1,
,,,,,,,,,,,,,,,,,,5e988374315d6f0a10bac638,2020-08-10_13h09.29.891,lexical_decision_task_MP,2020.1.3,MacIntel,60,m,1,0.697075,,,,,,,,0.697075,1,,,,,,194,WORD,UN,33,resign,ABSENT,m,,,,,,0.657092014,-0.352144097,0,0,0,,0,249,249,133,1,
,,,,,,,,,,,,,,,,,,5e988374315d6f0a10bac638,2020-08-10_13h09.29.891,lexical_decision_task_MP,2020.1.3,MacIntel,60,m,1,0.783625,,,,,,,,0.783625,1,,,,,,223,WORD,UN,33,period,KIDNEY,m,,,,,,0.657092014,-0.352144097,0,0,0,,0,250,250,162,1,
,,,,,,,,,,,,,,,,,,5e988374315d6f0a10bac638,2020-08-10_13h09.29.891,lexical_decision_task_MP,2020.1.3,MacIntel,60,z,1,0.63523,,,,,,,,0.63523,1,,,,,,441,NW,UN,33,aboune,RASTOE,z,,,,,,0.657092014,-0.352144097,0,0,0,,0,251,251,380,1,
,,,,,,,,,,,,,,,,,,5e988374315d6f0a10bac638,2020-08-10_13h09.29.891,lexical_decision_task_MP,2020.1.3,MacIntel,60,m,1,0.74769,,,,,,,,0.74769,1,,,,,,102,WORD,"ID",33,direct,DIRECT,m,,,,,,0.657092014,-0.352144097,0,0,0,,0,252,252,41,1,
,,,,,,,,,,,,,,,,,,5e988374315d6f0a10bac638,2020-08-10_13h09.29.891,lexical_decision_task_MP,2020.1.3,MacIntel,60,m,1,0.493155,,,,,,,,0.493155,1,,,,,,224,WORD,UN,33,vulgar,PERIOD,m,,,,,,0.657092014,-0.352144097,0,0,0,,0,253,253,163,1,
,,,,,,,,,,,,,,,,,,5e988374315d6f0a10bac638,2020-08-10_13h09.29.891,lexical_decision_task_MP,2020.1.3,MacIntel,60,z,1,0.63316,,,,,,,,0.63316,1,,,,,,467,NW,UN,33,wictor,GORBIE,z,,,,,,0.657092014,-0.352144097,0,0,0,,0,254,254,406,1,
,,,,,,,,,,,,,,,,,,5e988374315d6f0a10bac638,2020-08-10_13h09.29.891,lexical_decision_task_MP,2020.1.3,MacIntel,60,m,1,0.58713,,,,,,,,0.58713,1,,,,,,135,WORD,"ID",50,import,IMPORT,m,,,,,,0.657092014,-0.352144097,0,0,0,,0,255,255,74,1,
,,,,,,,,,,,,,,,,,,5e988374315d6f0a10bac638,2020-08-10_13h09.29.891,lexical_decision_task_MP,2020.1.3,MacIntel,60,z,1,0.69861,,,,,,,,0.69861,1,,,,,,310,NW,"ID",33,daniet,DANIET,z,,,,,,0.657092014,-0.352144097,0,0,0,,0,256,256,249,1,
,,,,,,,,,,,,,,,,,,5e988374315d6f0a10bac638,2020-08-10_13h09.29.891,lexical_decision_task_MP,2020.1.3,MacIntel,60,m,1,0.52519,,,,,,,,0.52519,1,,,,,,180,WORD,"ID",50,silent,SILENT,m,,,,,,0.657092014,-0.352144097,0,0,0,,0,257,257,119,1,
,,,,,,,,,,,,,,,,,,5e988374315d6f0a10bac638,2020-08-10_13h09.29.891,lexical_decision_task_MP,2020.1.3,MacIntel,60,z,1,0.62113,,,,,,,,0.62113,1,,,,,,257,NW,UN,50,poluth,VENIOD,z,,,,,,0.657092014,-0.352144097,0,0,0,,0,258,258,436,1,
,,,,,,,,,,,,,,,,,,5e988374315d6f0a10bac638,2020-08-10_13h09.29.891,lexical_decision_task_MP,2020.1.3,MacIntel,60,m,1,0.570135,,,,,,,,0.570135,1,,,,,,45,WORD,UN,50,single,CLERGY,m,,,,,,0.657092014,-0.352144097,0,0,0,,0,259,259,224,1,
,,,,,,,,,,,,,,,,,,5e988374315d6f0a10bac638,2020-08-10_13h09.29.891,lexical_decision_task_MP,2020.1.3,MacIntel,60,z,1,0.764495,,,,,,,,0.764495,1,,,,,,437,NW,UN,33,baitch,SNAPEL,z,,,,,,0.657092014,-0.352144097,0,0,0,,0,260,260,376,1,
,,,,,,,,,,,,,,,,,,5e988374315d6f0a10bac638,2020-08-10_13h09.29.891,lexical_decision_task_MP,2020.1.3,MacIntel,60,z,1,0.578895,,,,,,,,0.578895,1,,,,,,338,NW,"ID",33,wreash,WREASH,z,,,,,,0.657092014,-0.352144097,0,0,0,,0,261,261,277,1,
,,,,,,,,,,,,,,,,,,5e988374315d6f0a10bac638,2020-08-10_13h09.29.891,lexical_decision_task_MP,2020.1.3,MacIntel,60,z,1,0.518225,,,,,,,,0.518225,1,,,,,,346,NW,"ID",33,saudic,SAUDIC,z,,,,,,0.657092014,-0.352144097,0,0,0,,0,262,262,285,1,
,,,,,,,,,,,,,,,,,,5e988374315d6f0a10bac638,2020-08-10_13h09.29.891,lexical_decision_task_MP,2020.1.3,MacIntel,60,z,1,0.52755,,,,,,,,0.52755,1,,,,,,469,NW,UN,33,crudio,PADIFS,z,,,,,,0.657092014,-0.352144097,0,0,0,,0,263,263,408,1,
,,,,,,,,,,,,,,,,,,5e988374315d6f0a10bac638,2020-08-10_13h09.29.891,lexical_decision_task_MP,2020.1.3,MacIntel,60,z,0,0.63849,,,,,,,,0.63849,0,,,,,,15,WORD,UN,50,faucet,AMOUNT,m,,,,,,0.657092014,-0.352144097,0,0,0,,0,264,264,194,1,
,,,,,,,,,,,,,,,,,,5e988374315d6f0a10bac638,2020-08-10_13h09.29.891,lexical_decision_task_MP,2020.1.3,MacIntel,60,z,1,0.80401,,,,,,,,0.80401,1,,,,,,265,NW,UN,50,varmit,DISTAR,z,,,,,,0.657092014,-0.352144097,0,0,0,,0,265,265,444,1,
,,,,,,,,,,,,,,,,,,5e988374315d6f0a10bac638,2020-08-10_13h09.29.891,lexical_decision_task_MP,2020.1.3,MacIntel,60,m,1,0.588105,,,,,,,,0.588105,1,,,,,,141,WORD,"ID",50,orphan,ORPHAN,m,,,,,,0.657092014,-0.352144097,0,0,0,,0,266,266,80,1,
,,,,,,,,,,,,,,,,,,5e988374315d6f0a10bac638,2020-08-10_13h09.29.891,lexical_decision_task_MP,2020.1.3,MacIntel,60,z,0,0.585805,,,,,,,,0.585805,0,,,,,,207,WORD,UN,33,hockey,WREATH,m,,,,,,0.657092014,-0.352144097,0,0,0,,0,267,267,146,1,
,,,,,,,,,,,,,,,,,,5e988374315d6f0a10bac638,2020-08-10_13h09.29.891,lexical_decision_task_MP,2020.1.3,MacIntel,60,z,0,0.614945,,,,,,,,0.614945,0,,,,,,46,WORD,UN,50,income,SINGLE,m,,,,,,0.657092014,-0.352144097,0,0,0,,0,268,268,225,1,
,,,,,,,,,,,,,,,,,,5e988374315d6f0a10bac638,2020-08-10_13h09.29.891,lexical_decision_task_MP,2020.1.3,MacIntel,60,z,0,0.61351,,,,,,,,0.61351,0,,,,,,230,WORD,UN,33,mother,FRINGE,m,,,,,,0.657092014,-0.352144097,0,0,0,,0,269,269,169,1,
,,,,,,,,,,,,,,,,,,5e988374315d6f0a10bac638,2020-08-10_13h09.29.891,lexical_decision_task_MP,2020.1.3,MacIntel,60,z,1,0.713745,,,,,,,,0.713745,1,,,,,,340,NW,"ID",33,fiatch,FIATCH,z,,,,,,0.657092014,-0.352144097,0,0,0,,0,270,270,279,1,
,,,,,,,,,,,,,,,,,,5e988374315d6f0a10bac638,2020-08-10_13h09.29.891,lexical_decision_task_MP,2020.1.3,MacIntel,60,m,1,0.68221,,,,,,,,0.68221,1,,,,,,227,WORD,UN,33,master,SELDOM,m,,,,,,0.657092014,-0.352144097,0,0,0,,0,271,271,166,1,
,,,,,,,,,,,,,,,,,,5e988374315d6f0a10bac638,2020-08-10_13h09.29.891,lexical_decision_task_MP,2020.1.3,MacIntel,60,z,1,0.58382,,,,,,,,0.58382,1,,,,,,302,NW,"ID",33,miluer,MILUER,z,,,,,,0.657092014,-0.352144097,0,0,0,,0,272,272,241,1,
,,,,,,,,,,,,,,,,,,5e988374315d6f0a10bac638,2020-08-10_13h09.29.891,lexical_decision_task_MP,2020.1.3,MacIntel,60,z,1,0.664145,,,,,,,,0.664145,1,,,,,,325,NW,"ID",33,thruse,THRUSE,z,,,,,,0.657092014,-0.352144097,0,0,0,,0,273,273,264,1,
,,,,,,,,,,,,,,,,,,5e988374315d6f0a10bac638,2020-08-10_13h09.29.891,lexical_decision_task_MP,2020.1.3,MacIntel,60,z,1,0.653165,,,,,,,,0.653165,1,,,,,,451,NW,UN,33,surden,CAINKY,z,,,,,,0.657092014,-0.352144097,0,0,0,,0,274,274,390,1,
,,,,,,,,,,,,,,,,,,5e988374315d6f0a10bac638,2020-08-10_13h09.29.891,lexical_decision_task_MP,2020.1.3,MacIntel,60,z,1,0.505165,,,,,,,,0.505165,1,,,,,,465,NW,UN,33,bafent,WHIVEX,z,,,,,,0.657092014,-0.352144097,0,0,0,,0,275,275,404,1,
,,,,,,,,,,,,,,,,,,5e988374315d6f0a10bac638,2020-08-10_13h09.29.891,lexical_decision_task_MP,2020.1.3,MacIntel,60,m,1,0.65112,,,,,,,,0.65112,1,,,,,,199,WORD,UN,33,plague,INVOKE,m,,,,,,0.657092014,-0.352144097,0,0,0,,0,276,276,138,1,
,,,,,,,,,,,,,,,,,,5e988374315d6f0a10bac638,2020-08-10_13h09.29.891,lexical_decision_task_MP,2020.1.3,MacIntel,60,z,1,0.74756,,,,,,,,0.74756,1,,,,,,378,NW,"ID",50,shrile,SHRILE,z,,,,,,0.657092014,-0.352144097,0,0,0,,0,277,277,317,1,
,,,,,,,,,,,,,,,,,,5e988374315d6f0a10bac638,2020-08-10_13h09.29.891,lexical_decision_task_MP,2020.1.3,MacIntel,60,m,1,0.58085,,,,,,,,0.58085,1,,,,,,131,WORD,"ID",50,quench,QUENCH,m,,,,,,0.657092014,-0.352144097,0,0,0,,0,278,278,70,1,
,,,,,,,,,,,,,,,,,,5e988374315d6f0a10bac638,2020-08-10_13h09.29.891,lexical_decision_task_MP,2020.1.3,MacIntel,60,z,1,0.6824,,,,,,,,0.6824,1,,,,,,242,NW,UN,50,musied,UNWERT,z,,,,,,0.657092014,-0.352144097,0,0,0,,0,279,279,421,1,
,,,,,,,,,,,,,,,,,,5e988374315d6f0a10bac638,2020-08-10_13h09.29.891,lexical_decision_task_MP,2020.1.3,MacIntel,60,z,1,0.658625,,,,,,,,0.658625,1,,,,,,456,NW,UN,33,wanigh,BROGET,z,,,,,,0.657092014,-0.352144097,0,0,0,,0,280,280,395,1,
,,,,,,,,,,,,,,,,,,5e988374315d6f0a10bac638,2020-08-10_13h09.29.891,lexical_decision_task_MP,2020.1.3,MacIntel,60,m,1,0.735045,,,,,,,,0.735045,1,,,,,,166,WORD,"ID",50,starch,STARCH,m,,,,,,0.657092014,-0.352144097,0,0,0,,0,281,281,105,1,
,,,,,,,,,,,,,,,,,,5e988374315d6f0a10bac638,2020-08-10_13h09.29.891,lexical_decision_task_MP,2020.1.3,MacIntel,60,m,1,0.600955,,,,,,,,0.600955,1,,,,,,48,WORD,UN,50,survey,WALNUT,m,,,,,,0.657092014,-0.352144097,0,0,0,,0,282,282,227,1,
,,,,,,,,,,,,,,,,,,5e988374315d6f0a10bac638,2020-08-10_13h09.29.891,lexical_decision_task_MP,2020.1.3,MacIntel,60,m,1,0.533445,,,,,,,,0.533445,1,,,,,,52,WORD,UN,50,police,IMPOSE,m,,,,,,0.657092014,-0.352144097,0,0,0,,0,283,283,231,1,
,,,,,,,,,,,,,,,,,,5e988374315d6f0a10bac638,2020-08-10_13h09.29.891,lexical_decision_task_MP,2020.1.3,MacIntel,60,z,1,0.79853,,,,,,,,0.79853,1,,,,,,266,NW,UN,50,pasink,VARMIT,z,,,,,,0.657092014,-0.352144097,0,0,0,,0,284,284,445,1,
,,,,,,,,,,,,,,,,,,5e988374315d6f0a10bac638,2020-08-10_13h09.29.891,lexical_decision_task_MP,2020.1.3,MacIntel,60,z,1,0.601545,,,,,,,,0.601545,1,,,,,,454,NW,UN,33,tondle,SCOUGE,z,,,,,,0.657092014,-0.352144097,0,0,0,,0,285,285,393,1,
,,,,,,,,,,,,,,,,,,5e988374315d6f0a10bac638,2020-08-10_13h09.29.891,lexical_decision_task_MP,2020.1.3,MacIntel,60,z,1,0.55104,,,,,,,,0.55104,1,,,,,,366,NW,"ID",50,toshel,TOSHEL,z,,,,,,0.657092014,-0.352144097,0,0,0,,0,286,286,305,1,
,,,,,,,,,,,,,,,,,,5e988374315d6f0a10bac638,2020-08-10_13h09.29.891,lexical_decision_task_MP,2020.1.3,MacIntel,60,z,1,0.56739,,,,,,,,0.56739,1,,,,,,316,NW,"ID",33,scregm,SCREGM,z,,,,,,0.657092014,-0.352144097,0,0,0,,0,287,287,255,1,
,,,,,,,,,,,,,,,,,,5e988374315d6f0a10bac638,2020-08-10_13h09.29.891,lexical_decision_task_MP,2020.1.3,MacIntel,60,z,1,0.632895,,,,,,,,0.632895,1,,,,,,471,NW,UN,33,cigney,NOBEST,z,,,,,,0.657092014,-0.352144097,0,0,0,,0,288,288,410,1,
,,,,,,,,,,,,,,,,,,5e988374315d6f0a10bac638,2020-08-10_13h09.29.891,lexical_decision_task_MP,2020.1.3,MacIntel,60,m,1,0.619655,,,,,,,,0.619655,1,,,,,,90,WORD,"ID",33,relish,RELISH,m,,,,,,0.657092014,-0.352144097,0,0,0,,0,289,289,29,1,
,,,,,,,,,,,,,,,,,,5e988374315d6f0a10bac638,2020-08-10_13h09.29.891,lexical_decision_task_MP,2020.1.3,MacIntel,60,m,1,0.66307,,,,,,,,0.66307,1,,,,,,234,WORD,UN,33,poster,CLUMSY,m,,,,,,0.657092014,-0.352144097,0,0,0,,0,290,290,173,1,
,,,,,,,,,,,,,,,,,,5e988374315d6f0a10bac638,2020-08-10_13h09.29.891,lexical_decision_task_MP,2020.1.3,MacIntel,60,m,1,0.69925,,,,,,,,0.69925,1,,,,,,225,WORD,UN,33,casino,VULGAR,m,,,,,,0.657092014,-0.352144097,0,0,0,,0,291,291,164,1,
,,,,,,,,,,,,,,,,,,5e988374315d6f0a10bac638,2020-08-10_13h09.29.891,lexical_decision_task_MP,2020.1.3,MacIntel,60,z,1,0.59756,,,,,,,,0.59756,1,,,,,,360,NW,"ID",33,desory,DESORY,z,,,,,,0.657092014,-0.352144097,0,0,0,,0,292,292,299,1,
,,,,,,,,,,,,,,,,,,5e988374315d6f0a10bac638,2020-08-10_13h09.29.891,lexical_decision_task_MP,2020.1.3,MacIntel,60,m,1,0.64089,,,,,,,,0.64089,1,,,,,,41,WORD,UN,50,chapel,SPRING,m,,,,,,0.657092014,-0.352144097,0,0,0,,0,293,293,220,1,
,,,,,,,,,,,,,,,,,,5e988374315d6f0a10bac638,2020-08-10_13h09.29.891,lexical_decision_task_MP,2020.1.3,MacIntel,60,z,1,0.70278,,,,,,,,0.70278,1,,,,,,350,NW,"ID",33,nagurs,NAGURS,z,,,,,,0.657092014,-0.352144097,0,0,0,,0,294,294,289,1,
,,,,,,,,,,,,,,,,,,5e988374315d6f0a10bac638,2020-08-10_13h09.29.891,lexical_decision_task_MP,2020.1.3,MacIntel,60,z,1,0.635005,,,,,,,,0.635005,1,,,,,,382,NW,"ID",50,sarley,SARLEY,z,,,,,,0.657092014,-0.352144097,0,0,0,,0,295,295,321,1,
,,,,,,,,,,,,,,,,,,5e988374315d6f0a10bac638,2020-08-10_13h09.29.891,lexical_decision_task_MP,2020.1.3,MacIntel,60,z,1,0.53792,,,,,,,,0.53792,1,,,,,,339,NW,"ID",33,fachow,FACHOW,z,,,,,,0.657092014,-0.352144097,0,0,0,,0,296,296,278,1,
,,,,,,,,,,,,,,,,,,5e988374315d6f0a10bac638,2020-08-10_13h09.29.891,lexical_decision_task_MP,2020.1.3,MacIntel,60,m,1,0.654465,,,,,,,,0.654465,1,,,,,,118,WORD,"ID",33,flight,FLIGHT,m,,,,,,0.657092014,-0.352144097,0,0,0,,0,297,297,57,1,
,,,,,,,,,,,,,,,,,,5e988374315d6f0a10bac638,2020-08-10_13h09.29.891,lexical_decision_task_MP,2020.1.3,MacIntel,60,m,1,0.56944,,,,,,,,0.56944,1,,,,,,82,WORD,"ID",33,stigma,STIGMA,m,,,,,,0.657092014,-0.352144097,0,0,0,,0,298,298,21,1,
,,,,,,,,,,,,,,,,,,5e988374315d6f0a10bac638,2020-08-10_13h09.29.891,lexical_decision_task_MP,2020.1.3,MacIntel,60,z,1,0.607935,,,,,,,,0.607935,1,,,,,,309,NW,"ID",33,amiloy,AMILOY,z,,,,,,0.657092014,-0.352144097,0,0,0,,0,299,299,248,1,
,,,,,,,,,,,,,,,,,,5e988374315d6f0a10bac638,2020-08-10_13h09.29.891,lexical_decision_task_MP,2020.1.3,MacIntel,60,m,1,0.58017,,,,,,,,0.58017,1,,,,,,202,WORD,UN,33,phrase,FACTOR,m,,,,,,0.657092014,-0.352144097,0,0,0,,0,300,300,141,1,
,,,,,,,,,,,,,,,,,,5e988374315d6f0a10bac638,2020-08-10_13h09.29.891,lexical_decision_task_MP,2020.1.3,MacIntel,60,m,1,0.540325,,,,,,,,0.540325,1,,,,,,65,WORD,"ID",33,symbol,SYMBOL,m,,,,,,0.657092014,-0.352144097,0,0,0,,0,301,301,4,1,
,,,,,,,,,,,,,,,,,,5e988374315d6f0a10bac638,2020-08-10_13h09.29.891,lexical_decision_task_MP,2020.1.3,MacIntel,60,z,1,0.60427,,,,,,,,0.60427,1,,,,,,254,NW,UN,50,apight,VAROSH,z,,,,,,0.657092014,-0.352144097,0,0,0,,0,302,302,433,1,
,,,,,,,,,,,,,,,,,,5e988374315d6f0a10bac638,2020-08-10_13h09.29.891,lexical_decision_task_MP,2020.1.3,MacIntel,60,m,1,0.586735,,,,,,,,0.586735,1,,,,,,147,WORD,"ID",50,garlic,GARLIC,m,,,,,,0.657092014,-0.352144097,0,0,0,,0,303,303,86,1,
,,,,,,,,,,,,,,,,,,5e988374315d6f0a10bac638,2020-08-10_13h09.29.891,lexical_decision_task_MP,2020.1.3,MacIntel,60,m,0,0.57347,,,,,,,,0.57347,0,,,,,,348,NW,"ID",33,dumple,DUMPLE,z,,,,,,0.657092014,-0.352144097,0,0,0,,0,304,304,287,1,
,,,,,,,,,,,,,,,,,,5e988374315d6f0a10bac638,2020-08-10_13h09.29.891,lexical_decision_task_MP,2020.1.3,MacIntel,60,m,1,0.536785,,,,,,,,0.536785,1,,,,,,88,WORD,"ID",33,hunger,HUNGER,m,,,,,,0.657092014,-0.352144097,0,0,0,,0,305,305,27,1,
,,,,,,,,,,,,,,,,,,5e988374315d6f0a10bac638,2020-08-10_13h09.29.891,lexical_decision_task_MP,2020.1.3,MacIntel,60,z,1,0.67308,,,,,,,,0.67308,1,,,,,,462,NW,UN,33,kispel,ABSULT,z,,,,,,0.657092014,-0.352144097,0,0,0,,0,306,306,401,1,
,,,,,,,,,,,,,,,,,,5e988374315d6f0a10bac638,2020-08-10_13h09.29.891,lexical_decision_task_MP,2020.1.3,MacIntel,60,m,1,0.601445,,,,,,,,0.601445,1,,,,,,133,WORD,"ID",50,chrome,CHROME,m,,,,,,0.657092014,-0.352144097,0,0,0,,0,307,307,72,1,
,,,,,,,,,,,,,,,,,,5e988374315d6f0a10bac638,2020-08-10_13h09.29.891,lexical_decision_task_MP,2020.1.3,MacIntel,60,z,1,0.66934,,,,,,,,0.66934,1,,,,,,246,NW,UN,50,blarge,PIATON,z,,,,,,0.657092014,-0.352144097,0,0,0,,0,308,308,425,1,
,,,,,,,,,,,,,,,,,,5e988374315d6f0a10bac638,2020-08-10_13h09.29.891,lexical_decision_task_MP,2020.1.3,MacIntel,60,m,1,0.55551,,,,,,,,0.55551,1,,,,,,28,WORD,UN,50,sketch,COMEDY,m,,,,,,0.657092014,-0.352144097,0,0,0,,0,309,309,207,1,
,,,,,,,,,,,,,,,,,,5e988374315d6f0a10bac638,2020-08-10_13h09.29.891,lexical_decision_task_MP,2020.1.3,MacIntel,60,m,1,0.530725,,,,,,,,0.530725,1,,,,,,173,WORD,"ID",50,shower,SHOWER,m,,,,,,0.657092014,-0.352144097,0,0,0,,0,310,310,112,1,
,,,,,,,,,,,,,,,,,,5e988374315d6f0a10bac638,2020-08-10_13h09.29.891,lexical_decision_task_MP,2020.1.3,MacIntel,60,m,1,0.71592,,,,,,,,0.71592,1,,,,,,163,WORD,"ID",50,string,STRING,m,,,,,,0.657092014,-0.352144097,0,0,0,,0,311,311,102,1,
,,,,,,,,,,,,,,,,,,5e988374315d6f0a10bac638,2020-08-10_13h09.29.891,lexical_decision_task_MP,2020.1.3,MacIntel,60,m,1,0.597725,,,,,,,,0.597725,1,,,,,,103,WORD,"ID",33,bounce,BOUNCE,m,,,,,,0.657092014,-0.352144097,0,0,0,,0,312,312,42,1,
,,,,,,,,,,,,,,,,,,5e988374315d6f0a10bac638,2020-08-10_13h09.29.891,lexical_decision_task_MP,2020.1.3,MacIntel,60,z,1,0.76789,,,,,,,,0.76789,1,,,,,,377,NW,"ID",50,injore,INJORE,z,,,,,,0.657092014,-0.352144097,0,0,0,,0,313,313,316,1,
,,,,,,,,,,,,,,,,,,5e988374315d6f0a10bac638,2020-08-10_13h09.29.891,lexical_decision_task_MP,2020.1.3,MacIntel,60,m,1,0.785585,,,,,,,,0.785585,1,,,,,,85,WORD,"ID",33,sprawl,SPRAWL,m,,,,,,0.657092014,-0.352144097,0,0,0,,0,314,314,24,1,
,,,,,,,,,,,,,,,,,,5e988374315d6f0a10bac638,2020-08-10_13h09.29.891,lexical_decision_task_MP,2020.1.3,MacIntel,60,z,1,0.72352,,,,,,,,0.72352,1,,,,,,276,NW,UN,50,petain,YARMON,z,,,,,,0.657092014,-0.352144097,0,0,0,,0,315,315,455,1,
,,,,,,,,,,,,,,,,,,5e988374315d6f0a10bac638,2020-08-10_13h09.29.891,lexical_decision_task_MP,2020.1.3,MacIntel,60,z,1,0.686235,,,,,,,,0.686235,1,,,,,,285,NW,UN,50,reldon,PRUDGE,z,,,,,,0.657092014,-0.352144097,0,0,0,,0,316,316,464,1,
,,,,,,,,,,,,,,,,,,5e988374315d6f0a10bac638,2020-08-10_13h09.29.891,lexical_decision_task_MP,2020.1.3,MacIntel,60,z,0,0.65448,,,,,,,,0.65448,0,,,,,,185,WORD,UN,33,portal,BOTHER,m,,,,,,0.657092014,-0.352144097,0,0,0,,0,317,317,124,1,
,,,,,,,,,,,,,,,,,,5e988374315d6f0a10bac638,2020-08-10_13h09.29.891,lexical_decision_task_MP,2020.1.3,MacIntel,60,m,1,0.75334,,,,,,,,0.75334,1,,,,,,181,WORD,UN,33,winter,GLANCE,m,,,,,,0.657092014,-0.352144097,0,0,0,,0,318,318,120,1,
,,,,,,,,,,,,,,,,,,5e988374315d6f0a10bac638,2020-08-10_13h09.29.891,lexical_decision_task_MP,2020.1.3,MacIntel,60,z,1,0.63193,,,,,,,,0.63193,1,,,,,,436,NW,UN,33,snapel,FRUTAN,z,,,,,,0.657092014,-0.352144097,0,0,0,,0,319,319,375,1,
,,,,,,,,,,,,,,,,,,5e988374315d6f0a10bac638,2020-08-10_13h09.29.891,lexical_decision_task_MP,2020.1.3,MacIntel,60,m,1,0.582355,,,,,,,,0.582355,1,,,,,,168,WORD,"ID",50,answer,ANSWER,m,,,,,,0.657092014,-0.352144097,0,0,0,,0,320,320,107,1,
,,,,,,,,,,,,,,,,,,5e988374315d6f0a10bac638,2020-08-10_13h09.29.891,lexical_decision_task_MP,2020.1.3,MacIntel,60,z,1,0.619005,,,,,,,,0.619005,1,,,,,,474,NW,UN,33,acrise,HABLIN,z,,,,,,0.657092014,-0.352144097,0,0,0,,0,321,321,413,1,
,,,,,,,,,,,,,,,,,,5e988374315d6f0a10bac638,2020-08-10_13h09.29.891,lexical_decision_task_MP,2020.1.3,MacIntel,60,z,1,0.741645,,,,,,,,0.741645,1,,,,,,250,NW,UN,50,lupict,MILTED,z,,,,,,0.657092014,-0.352144097,0,0,0,,0,322,322,429,1,
,,,,,,,,,,,,,,,,,,5e988374315d6f0a10bac638,2020-08-10_13h09.29.891,lexical_decision_task_MP,2020.1.3,MacIntel,60,z,0,0.790075,,,,,,,,0.790075,0,,,,,,110,WORD,"ID",33,polite,POLITE,m,,,,,,0.657092014,-0.352144097,0,0,0,,0,323,323,49,1,
,,,,,,,,,,,,,,,,,,5e988374315d6f0a10bac638,2020-08-10_13h09.29.891,lexical_decision_task_MP,2020.1.3,MacIntel,60,m,1,0.802855,,,,,,,,0.802855,1,,,,,,143,WORD,"ID",50,reason,REASON,m,,,,,,0.657092014,-0.352144097,0,0,0,,0,324,324,82,1,
,,,,,,,,,,,,,,,,,,5e988374315d6f0a10bac638,2020-08-10_13h09.29.891,lexical_decision_task_MP,2020.1.3,MacIntel,60,z,1,0.723595,,,,,,,,0.723595,1,,,,,,381,NW,"ID",50,huniek,HUNIEK,z,,,,,,0.657092014,-0.352144097,0,0,0,,0,325,325,320,1,
,,,,,,,,,,,,,,,,,,5e988374315d6f0a10bac638,2020-08-10_13h09.29.891,lexical_decision_task_MP,2020.1.3,MacIntel,60,m,1,0.53084,,,,,,,,0.53084,1,,,,,,148,WORD,"ID",50,custom,CUSTOM,m,,,,,,0.657092014,-0.352144097,0,0,0,,0,326,326,87,1,
,,,,,,,,,,,,,,,,,,5e988374315d6f0a10bac638,2020-08-10_13h09.29.891,lexical_decision_task_MP,2020.1.3,MacIntel,60,z,1,0.602805,,,,,,,,0.602805,1,,,,,,308,NW,"ID",33,psetch,PSETCH,z,,,,,,0.657092014,-0.352144097,0,0,0,,0,327,327,247,1,
,,,,,,,,,,,,,,,,,,5e988374315d6f0a10bac638,2020-08-10_13h09.29.891,lexical_decision_task_MP,2020.1.3,MacIntel,60,z,1,0.612835,,,,,,,,0.612835,1,,,,,,424,NW,UN,33,frudge,PRAILE,z,,,,,,0.657092014,-0.352144097,0,0,0,,0,328,328,363,1,
,,,,,,,,,,,,,,,,,,5e988374315d6f0a10bac638,2020-08-10_13h09.29.891,lexical_decision_task_MP,2020.1.3,MacIntel,60,m,1,0.707605,,,,,,,,0.707605,1,,,,,,101,WORD,"ID",33,wrench,WRENCH,m,,,,,,0.657092014,-0.352144097,0,0,0,,0,329,329,40,1,
,,,,,,,,,,,,,,,,,,5e988374315d6f0a10bac638,2020-08-10_13h09.29.891,lexical_decision_task_MP,2020.1.3,MacIntel,60,z,1,0.70052,,,,,,,,0.70052,1,,,,,,428,NW,UN,33,funtle,TANDLY,z,,,,,,0.657092014,-0.352144097,0,0,0,,0,330,330,367,1,
,,,,,,,,,,,,,,,,,,5e988374315d6f0a10bac638,2020-08-10_13h09.29.891,lexical_decision_task_MP,2020.1.3,MacIntel,60,m,1,0.67107,,,,,,,,0.67107,1,,,,,,211,WORD,UN,33,verify,INFECT,m,,,,,,0.657092014,-0.352144097,0,0,0,,0,331,331,150,1,
,,,,,,,,,,,,,,,,,,5e988374315d6f0a10bac638,2020-08-10_13h09.29.891,lexical_decision_task_MP,2020.1.3,MacIntel,60,z,1,0.802535,,,,,,,,0.802535,1,,,,,,369,NW,"ID",50,wronch,WRONCH,z,,,,,,0.657092014,-0.352144097,0,0,0,,0,332,332,308,1,
,,,,,,,,,,,,,,,,,,5e988374315d6f0a10bac638,2020-08-10_13h09.29.891,lexical_decision_task_MP,2020.1.3,MacIntel,60,m,1,0.797875,,,,,,,,0.797875,1,,,,,,29,WORD,UN,50,orient,SKETCH,m,,,,,,0.657092014,-0.352144097,0,0,0,,0,333,333,208,1,
,,,,,,,,,,,,,,,,,,5e988374315d6f0a10bac638,2020-08-10_13h09.29.891,lexical_decision_task_MP,2020.1.3,MacIntel,60,m,1,0.468025,,,,,,,,0.468025,1,,,,,,130,WORD,"ID",50,stupid,STUPID,m,,,,,,0.657092014,-0.352144097,0,0,0,,0,334,334,69,1,
,,,,,,,,,,,,,,,,,,5e988374315d6f0a10bac638,2020-08-10_13h09.29.891,lexical_decision_task_MP,2020.1.3,MacIntel,60,z,1,0.56662,,,,,,,,0.56662,1,,,,,,317,NW,"ID",33,worbal,WORBAL,z,,,,,,0.657092014,-0.352144097,0,0,0,,0,335,335,256,1,
,,,,,,,,,,,,,,,,,,5e988374315d6f0a10bac638,2020-08-10_13h09.29.891,lexical_decision_task_MP,2020.1.3,MacIntel,60,m,1,0.550085,,,,,,,,0.550085,1,,,,,,167,WORD,"ID",50,design,DESIGN,m,,,,,,0.657092014,-0.352144097,0,0,0,,0,336,336,106,1,
,,,,,,,,,,,,,,,,,,5e988374315d6f0a10bac638,2020-08-10_13h09.29.891,lexical_decision_task_MP,2020.1.3,MacIntel,60,z,1,0.635045,,,,,,,,0.635045,1,,,,,,272,NW,UN,50,sortel,DAMILT,z,,,,,,0.657092014,-0.352144097,0,0,0,,0,337,337,451,1,
,,,,,,,,,,,,,,,,,,5e988374315d6f0a10bac638,2020-08-10_13h09.29.891,lexical_decision_task_MP,2020.1.3,MacIntel,60,m,1,0.88642,,,,,,,,0.88642,1,,,,,,19,WORD,UN,50,breast,PATRON,m,,,,,,0.657092014,-0.352144097,0,0,0,,0,338,338,198,1,
,,,,,,,,,,,,,,,,,,5e988374315d6f0a10bac638,2020-08-10_13h09.29.891,lexical_decision_task_MP,2020.1.3,MacIntel,60,z,1,0.583425,,,,,,,,0.583425,1,,,,,,419,NW,"ID",50,slount,SLOUNT,z,,,,,,0.657092014,-0.352144097,0,0,0,,0,339,339,358,1,
,,,,,,,,,,,,,,,,,,5e988374315d6f0a10bac638,2020-08-10_13h09.29.891,lexical_decision_task_MP,2020.1.3,MacIntel,60,z,1,0.55402,,,,,,,,0.55402,1,,,,,,479,NW,UN,33,crible,LOBUSH,z,,,,,,0.657092014,-0.352144097,0,0,0,,0,340,340,418,1,
,,,,,,,,,,,,,,,,,,5e988374315d6f0a10bac638,2020-08-10_13h09.29.891,lexical_decision_task_MP,2020.1.3,MacIntel,60,m,1,0.61757,,,,,,,,0.61757,1,,,,,,18,WORD,UN,50,patron,HUMBLE,m,,,,,,0.657092014,-0.352144097,0,0,0,,0,341,341,197,1,
,,,,,,,,,,,,,,,,,,5e988374315d6f0a10bac638,2020-08-10_13h09.29.891,lexical_decision_task_MP,2020.1.3,MacIntel,60,z,1,0.637255,,,,,,,,0.637255,1,,,,,,455,NW,UN,33,broget,TONDLE,z,,,,,,0.657092014,-0.352144097,0,0,0,,0,342,342,394,1,
,,,,,,,,,,,,,,,,,,5e988374315d6f0a10bac638,2020-08-10_13h09.29.891,lexical_decision_task_MP,2020.1.3,MacIntel,60,z,1,0.68196,,,,,,,,0.68196,1,,,,,,337,NW,"ID",33,rejols,REJOLS,z,,,,,,0.657092014,-0.352144097,0,0,0,,0,343,343,276,1,
,,,,,,,,,,,,,,,,,,5e988374315d6f0a10bac638,2020-08-10_13h09.29.891,lexical_decision_task_MP,2020.1.3,MacIntel,60,z,1,0.74624,,,,,,,,0.74624,1,,,,,,404,NW,"ID",50,cluirm,CLUIRM,z,,,,,,0.657092014,-0.352144097,0,0,0,,0,344,344,343,1,
,,,,,,,,,,,,,,,,,,5e988374315d6f0a10bac638,2020-08-10_13h09.29.891,lexical_decision_task_MP,2020.1.3,MacIntel,60,z,1,0.781105,,,,,,,,0.781105,1,,,,,,464,NW,UN,33,whivex,CHAITE,z,,,,,,0.657092014,-0.352144097,0,0,0,,0,345,345,403,1,
,,,,,,,,,,,,,,,,,,5e988374315d6f0a10bac638,2020-08-10_13h09.29.891,lexical_decision_task_MP,2020.1.3,MacIntel,60,z,1,0.518275,,,,,,,,0.518275,1,,,,,,324,NW,"ID",33,steikh,STEIKH,z,,,,,,0.657092014,-0.352144097,0,0,0,,0,346,346,263,1,
,,,,,,,,,,,,,,,,,,5e988374315d6f0a10bac638,2020-08-10_13h09.29.891,lexical_decision_task_MP,2020.1.3,MacIntel,60,m,0,0.833855,,,,,,,,0.833855,0,,,,,,289,NW,UN,50,splino,STARBY,z,,,,,,0.657092014,-0.352144097,0,0,0,,0,347,347,468,1,
,,,,,,,,,,,,,,,,,,5e988374315d6f0a10bac638,2020-08-10_13h09.29.891,lexical_decision_task_MP,2020.1.3,MacIntel,60,z,1,0.64747,,,,,,,,0.64747,1,,,,,,447,NW,UN,33,sadent,GIRCUE,z,,,,,,0.657092014,-0.352144097,0,0,0,,0,348,348,386,1,
,,,,,,,,,,,,,,,,,,5e988374315d6f0a10bac638,2020-08-10_13h09.29.891,lexical_decision_task_MP,2020.1.3,MacIntel,60,z,1,0.748815,,,,,,,,0.748815,1,,,,,,326,NW,"ID",33,iguade,IGUADE,z,,,,,,0.657092014,-0.352144097,0,0,0,,0,349,349,265,1,
,,,,,,,,,,,,,,,,,,5e988374315d6f0a10bac638,2020-08-10_13h09.29.891,lexical_decision_task_MP,2020.1.3,MacIntel,60,z,1,0.720145,,,,,,,,0.720145,1,,,,,,319,NW,"ID",33,zomber,ZOMBER,z,,,,,,0.657092014,-0.352144097,0,0,0,,0,350,350,258,1,
,,,,,,,,,,,,,,,,,,5e988374315d6f0a10bac638,2020-08-10_13h09.29.891,lexical_decision_task_MP,2020.1.3,MacIntel,60,z,1,0.84936,,,,,,,,0.84936,1,,,,,,383,NW,"ID",50,aungre,AUNGRE,z,,,,,,0.657092014,-0.352144097,0,0,0,,0,351,351,322,1,
,,,,,,,,,,,,,,,,,,5e988374315d6f0a10bac638,2020-08-10_13h09.29.891,lexical_decision_task_MP,2020.1.3,MacIntel,60,m,1,0.73231,,,,,,,,0.73231,1,,,,,,184,WORD,UN,33,bother,SLEAZY,m,,,,,,0.657092014,-0.352144097,0,0,0,,0,352,352,123,1,
,,,,,,,,,,,,,,,,,,5e988374315d6f0a10bac638,2020-08-10_13h09.29.891,lexical_decision_task_MP,2020.1.3,MacIntel,60,m,1,0.667145,,,,,,,,0.667145,1,,,,,,35,WORD,UN,50,vanish,SOCKET,m,,,,,,0.657092014,-0.352144097,0,0,0,,0,353,353,214,1,
,,,,,,,,,,,,,,,,,,5e988374315d6f0a10bac638,2020-08-10_13h09.29.891,lexical_decision_task_MP,2020.1.3,MacIntel,60,m,1,0.597965,,,,,,,,0.597965,1,,,,,,151,WORD,"ID",50,mystic,MYSTIC,m,,,,,,0.657092014,-0.352144097,0,0,0,,0,354,354,90,1,
,,,,,,,,,,,,,,,,,,5e988374315d6f0a10bac638,2020-08-10_13h09.29.891,lexical_decision_task_MP,2020.1.3,MacIntel,60,m,0,1.36147,,,,,,,,1.36147,0,,,,,,444,NW,UN,33,minkel,JAUNCE,z,,,,,,0.657092014,-0.352144097,0,0,0,,0,355,355,383,1,
,,,,,,,,,,,,,,,,,,5e988374315d6f0a10bac638,2020-08-10_13h09.29.891,lexical_decision_task_MP,2020.1.3,MacIntel,60,m,1,0.75229,,,,,,,,0.75229,1,,,,,,49,WORD,UN,50,snatch,SURVEY,m,,,,,,0.657092014,-0.352144097,0,0,0,,0,356,356,228,1,
,,,,,,,,,,,,,,,,,,5e988374315d6f0a10bac638,2020-08-10_13h09.29.891,lexical_decision_task_MP,2020.1.3,MacIntel,60,z,1,0.701855,,,,,,,,0.701855,1,,,,,,290,NW,UN,50,pretch,SPLINO,z,,,,,,0.657092014,-0.352144097,0,0,0,,0,357,357,469,1,
,,,,,,,,,,,,,,,,,,5e988374315d6f0a10bac638,2020-08-10_13h09.29.891,lexical_decision_task_MP,2020.1.3,MacIntel,60,m,1,0.681415,,,,,,,,0.681415,1,,,,,,32,WORD,UN,50,scream,BUCKLE,m,,,,,,0.657092014,-0.352144097,0,0,0,,0,358,358,211,1,
,,,,,,,,,,,,,,,,,,5e988374315d6f0a10bac638,2020-08-10_13h09.29.891,lexical_decision_task_MP,2020.1.3,MacIntel,60,m,1,0.697895,,,,,,,,0.697895,1,,,,,,111,WORD,"ID",33,induce,INDUCE,m,,,,,,0.657092014,-0.352144097,0,0,0,,0,359,359,50,1,
,,,,,,,,,,,,,,,,,,5e988374315d6f0a10bac638,2020-08-10_13h09.29.891,lexical_decision_task_MP,2020.1.3,MacIntel,60,m,1,0.53626,,,,,,,,0.53626,1,,,,,,76,WORD,"ID",33,exotic,EXOTIC,m,,,,,,0.657092014,-0.352144097,0,0,0,,0,360,360,15,1,
,,,,,,,,,,,,,,,,,,5e988374315d6f0a10bac638,2020-08-10_13h09.29.891,lexical_decision_task_MP,2020.1.3,MacIntel,60,m,1,0.592915,,,,,,,,0.592915,1,,,,,,213,WORD,UN,33,intake,SQUEAL,m,,,,,,0.657092014,-0.352144097,0,0,0,,0,361,361,152,1,
,,,,,,,,,,,,,,,,,,5e988374315d6f0a10bac638,2020-08-10_13h09.29.891,lexical_decision_task_MP,2020.1.3,MacIntel,60,m,1,0.75852,,,,,,,,0.75852,1,,,,,,6,WORD,UN,50,anchor,BUNDLE,m,,,,,,0.657092014,-0.352144097,0,0,0,space,0,362,362,185,1,1.77604
,,,,,,,,,,,,,,,,,,5e988374315d6f0a10bac638,2020-08-10_13h09.29.891,lexical_decision_task_MP,2020.1.3,MacIntel,60,z,1,0.737925,,,,,,,,0.737925,1,,,,,,365,NW,"ID",50,guairt,GUAIRT,z,,,,,,0.657092014,-0.352144097,0,0,0,,0,363,363,304,1,
,,,,,,,,,,,,,,,,,,5e988374315d6f0a10bac638,2020-08-10_13h09.29.891,lexical_decision_task_MP,2020.1.3,MacIntel,60,z,1,0.580595,,,,,,,,0.580595,1,,,,,,408,NW,"ID",50,hurnia,HURNIA,z,,,,,,0.657092014,-0.352144097,0,0,0,,0,364,364,347,1,
,,,,,,,,,,,,,,,,,,5e988374315d6f0a10bac638,2020-08-10_13h09.29.891,lexical_decision_task_MP,2020.1.3,MacIntel,60,z,1,0.898005,,,,,,,,0.898005,1,,,,,,255,NW,UN,50,inlors,APIGHT,z,,,,,,0.657092014,-0.352144097,0,0,0,,0,365,365,434,1,
,,,,,,,,,,,,,,,,,,5e988374315d6f0a10bac638,2020-08-10_13h09.29.891,lexical_decision_task_MP,2020.1.3,MacIntel,60,m,1,0.595045,,,,,,,,0.595045,1,,,,,,134,WORD,"ID",50,staple,STAPLE,m,,,,,,0.657092014,-0.352144097,0,0,0,,0,366,366,73,1,
,,,,,,,,,,,,,,,,,,5e988374315d6f0a10bac638,2020-08-10_13h09.29.891,lexical_decision_task_MP,2020.1.3,MacIntel,60,m,1,0.61413,,,,,,,,0.61413,1,,,,,,54,WORD,UN,50,stroke,RAMBLE,m,,,,,,0.657092014,-0.352144097,0,0,0,,0,367,367,233,1,
,,,,,,,,,,,,,,,,,,5e988374315d6f0a10bac638,2020-08-10_13h09.29.891,lexical_decision_task_MP,2020.1.3,MacIntel,60,m,1,0.555345,,,,,,,,0.555345,1,,,,,,136,WORD,"ID",50,bleach,BLEACH,m,,,,,,0.657092014,-0.352144097,0,0,0,,0,368,368,75,1,
,,,,,,,,,,,,,,,,,,5e988374315d6f0a10bac638,2020-08-10_13h09.29.891,lexical_decision_task_MP,2020.1.3,MacIntel,60,m,1,0.539525,,,,,,,,0.539525,1,,,,,,2,WORD,UN,50,knight,BRIDGE,m,,,,,,0.657092014,-0.352144097,0,0,0,,0,369,369,181,1,
,,,,,,,,,,,,,,,,,,5e988374315d6f0a10bac638,2020-08-10_13h09.29.891,lexical_decision_task_MP,2020.1.3,MacIntel,60,m,1,0.752105,,,,,,,,0.752105,1,,,,,,26,WORD,UN,50,butler,SPRINT,m,,,,,,0.657092014,-0.352144097,0,0,0,,0,370,370,205,1,
,,,,,,,,,,,,,,,,,,5e988374315d6f0a10bac638,2020-08-10_13h09.29.891,lexical_decision_task_MP,2020.1.3,MacIntel,60,m,1,0.48201,,,,,,,,0.48201,1,,,,,,95,WORD,"ID",33,thread,THREAD,m,,,,,,0.657092014,-0.352144097,0,0,0,,0,371,371,34,1,
,,,,,,,,,,,,,,,,,,5e988374315d6f0a10bac638,2020-08-10_13h09.29.891,lexical_decision_task_MP,2020.1.3,MacIntel,60,m,1,0.530475,,,,,,,,0.530475,1,,,,,,119,WORD,"ID",33,spider,SPIDER,m,,,,,,0.657092014,-0.352144097,0,0,0,,0,372,372,58,1,
,,,,,,,,,,,,,,,,,,5e988374315d6f0a10bac638,2020-08-10_13h09.29.891,lexical_decision_task_MP,2020.1.3,MacIntel,60,z,1,1.050685,,,,,,,,1.050685,1,,,,,,373,NW,"ID",50,bigent,BIGENT,z,,,,,,0.657092014,-0.352144097,0,0,0,,0,373,373,312,1,
,,,,,,,,,,,,,,,,,,5e988374315d6f0a10bac638,2020-08-10_13h09.29.891,lexical_decision_task_MP,2020.1.3,MacIntel,60,z,1,0.28927,,,,,,,,0.28927,1,,,,,,395,NW,"ID",50,colury,COLURY,z,,,,,,0.657092014,-0.352144097,0,0,0,,0,374,374,334,1,
,,,,,,,,,,,,,,,,,,5e988374315d6f0a10bac638,2020-08-10_13h09.29.891,lexical_decision_task_MP,2020.1.3,MacIntel,60,m,1,0.663495,,,,,,,,0.663495,1,,,,,,71,WORD,"ID",33,garden,GARDEN,m,,,,,,0.657092014,-0.352144097,0,0,0,,0,375,375,10,1,
,,,,,,,,,,,,,,,,,,5e988374315d6f0a10bac638,2020-08-10_13h09.29.891,lexical_decision_task_MP,2020.1.3,MacIntel,60,m,1,0.592245,,,,,,,,0.592245,1,,,,,,60,WORD,UN,50,fright,PENCIL,m,,,,,,0.657092014,-0.352144097,0,0,0,,0,376,376,239,1,
,,,,,,,,,,,,,,,,,,5e988374315d6f0a10bac638,2020-08-10_13h09.29.891,lexical_decision_task_MP,2020.1.3,MacIntel,60,z,1,0.670495,,,,,,,,0.670495,1,,,,,,354,NW,"ID",33,virlex,VIRLEX,z,,,,,,0.657092014,-0.352144097,0,0,0,,0,377,377,293,1,
,,,,,,,,,,,,,,,,,,5e988374315d6f0a10bac638,2020-08-10_13h09.29.891,lexical_decision_task_MP,2020.1.3,MacIntel,60,m,1,0.77815,,,,,,,,0.77815,1,,,,,,24,WORD,UN,50,domain,PRAISE,m,,,,,,0.657092014,-0.352144097,0,0,0,,0,378,378,203,1,
,,,,,,,,,,,,,,,,,,5e988374315d6f0a10bac638,2020-08-10_13h09.29.891,lexical_decision_task_MP,2020.1.3,MacIntel,60,z,1,0.648045,,,,,,,,0.648045,1,,,,,,274,NW,UN,50,sleirt,FUMBLO,z,,,,,,0.657092014,-0.352144097,0,0,0,,0,379,379,453,1,
,,,,,,,,,,,,,,,,,,5e988374315d6f0a10bac638,2020-08-10_13h09.29.891,lexical_decision_task_MP,2020.1.3,MacIntel,60,z,1,0.652125,,,,,,,,0.652125,1,,,,,,375,NW,"ID",50,yorque,YORQUE,z,,,,,,0.657092014,-0.352144097,0,0,0,,0,380,380,314,1,
,,,,,,,,,,,,,,,,,,5e988374315d6f0a10bac638,2020-08-10_13h09.29.891,lexical_decision_task_MP,2020.1.3,MacIntel,60,z,1,0.56599,,,,,,,,0.56599,1,,,,,,385,NW,"ID",50,veigma,VEIGMA,z,,,,,,0.657092014,-0.352144097,0,0,0,,0,381,381,324,1,
,,,,,,,,,,,,,,,,,,5e988374315d6f0a10bac638,2020-08-10_13h09.29.891,lexical_decision_task_MP,2020.1.3,MacIntel,60,z,1,0.5881,,,,,,,,0.5881,1,,,,,,412,NW,"ID",50,jiluer,JILUER,z,,,,,,0.657092014,-0.352144097,0,0,0,,0,382,382,351,1,
,,,,,,,,,,,,,,,,,,5e988374315d6f0a10bac638,2020-08-10_13h09.29.891,lexical_decision_task_MP,2020.1.3,MacIntel,60,m,1,0.56561,,,,,,,,0.56561,1,,,,,,80,WORD,"ID",33,family,FAMILY,m,,,,,,0.657092014,-0.352144097,0,0,0,,0,383,383,19,1,
,,,,,,,,,,,,,,,,,,5e988374315d6f0a10bac638,2020-08-10_13h09.29.891,lexical_decision_task_MP,2020.1.3,MacIntel,60,m,1,0.49919,,,,,,,,0.49919,1,,,,,,113,WORD,"ID",33,chorus,CHORUS,m,,,,,,0.657092014,-0.352144097,0,0,0,,0,384,384,52,1,
,,,,,,,,,,,,,,,,,,5e988374315d6f0a10bac638,2020-08-10_13h09.29.891,lexical_decision_task_MP,2020.1.3,MacIntel,60,m,1,0.473865,,,,,,,,0.473865,1,,,,,,112,WORD,"ID",33,breath,BREATH,m,,,,,,0.657092014,-0.352144097,0,0,0,,0,385,385,51,1,
,,,,,,,,,,,,,,,,,,5e988374315d6f0a10bac638,2020-08-10_13h09.29.891,lexical_decision_task_MP,2020.1.3,MacIntel,60,m,1,0.92766,,,,,,,,0.92766,1,,,,,,214,WORD,UN,33,phobia,INTAKE,m,,,,,,0.657092014,-0.352144097,0,0,0,,0,386,386,153,1,
,,,,,,,,,,,,,,,,,,5e988374315d6f0a10bac638,2020-08-10_13h09.29.891,lexical_decision_task_MP,2020.1.3,MacIntel,60,m,1,0.470485,,,,,,,,0.470485,1,,,,,,172,WORD,"ID",50,patrol,PATROL,m,,,,,,0.657092014,-0.352144097,0,0,0,,0,387,387,111,1,
,,,,,,,,,,,,,,,,,,5e988374315d6f0a10bac638,2020-08-10_13h09.29.891,lexical_decision_task_MP,2020.1.3,MacIntel,60,m,1,0.49681,,,,,,,,0.49681,1,,,,,,170,WORD,"ID",50,pounce,POUNCE,m,,,,,,0.657092014,-0.352144097,0,0,0,,0,388,388,109,1,
,,,,,,,,,,,,,,,,,,5e988374315d6f0a10bac638,2020-08-10_13h09.29.891,lexical_decision_task_MP,2020.1.3,MacIntel,60,m,1,0.541695,,,,,,,,0.541695,1,,,,,,142,WORD,"ID",50,spruce,SPRUCE,m,,,,,,0.657092014,-0.352144097,0,0,0,,0,389,389,81,1,
,,,,,,,,,,,,,,,,,,5e988374315d6f0a10bac638,2020-08-10_13h09.29.891,lexical_decision_task_MP,2020.1.3,MacIntel,60,m,1,0.45142,,,,,,,,0.45142,1,,,,,,68,WORD,"ID",33,fumble,FUMBLE,m,,,,,,0.657092014,-0.352144097,0,0,0,,0,390,390,7,1,
,,,,,,,,,,,,,,,,,,5e988374315d6f0a10bac638,2020-08-10_13h09.29.891,lexical_decision_task_MP,2020.1.3,MacIntel,60,z,1,0.645585,,,,,,,,0.645585,1,,,,,,407,NW,"ID",50,suiver,SUIVER,z,,,,,,0.657092014,-0.352144097,0,0,0,,0,391,391,346,1,
,,,,,,,,,,,,,,,,,,5e988374315d6f0a10bac638,2020-08-10_13h09.29.891,lexical_decision_task_MP,2020.1.3,MacIntel,60,m,1,0.546355,,,,,,,,0.546355,1,,,,,,152,WORD,"ID",50,rocket,ROCKET,m,,,,,,0.657092014,-0.352144097,0,0,0,,0,392,392,91,1,
,,,,,,,,,,,,,,,,,,5e988374315d6f0a10bac638,2020-08-10_13h09.29.891,lexical_decision_task_MP,2020.1.3,MacIntel,60,z,1,0.652455,,,,,,,,0.652455,1,,,,,,445,NW,UN,33,runamo,MINKEL,z,,,,,,0.657092014,-0.352144097,0,0,0,,0,393,393,384,1,
,,,,,,,,,,,,,,,,,,5e988374315d6f0a10bac638,2020-08-10_13h09.29.891,lexical_decision_task_MP,2020.1.3,MacIntel,60,m,1,0.587845,,,,,,,,0.587845,1,,,,,,193,WORD,UN,33,mildew,OBJECT,m,,,,,,0.657092014,-0.352144097,0,0,0,,0,394,394,132,1,
,,,,,,,,,,,,,,,,,,5e988374315d6f0a10bac638,2020-08-10_13h09.29.891,lexical_decision_task_MP,2020.1.3,MacIntel,60,z,1,0.637365,,,,,,,,0.637365,1,,,,,,477,NW,UN,33,lobush,PHOTIE,z,,,,,,0.657092014,-0.352144097,0,0,0,,0,395,395,416,1,
,,,,,,,,,,,,,,,,,,5e988374315d6f0a10bac638,2020-08-10_13h09.29.891,lexical_decision_task_MP,2020.1.3,MacIntel,60,m,1,0.583515,,,,,,,,0.583515,1,,,,,,229,WORD,UN,33,fringe,MOTHER,m,,,,,,0.657092014,-0.352144097,0,0,0,,0,396,396,168,1,
,,,,,,,,,,,,,,,,,,5e988374315d6f0a10bac638,2020-08-10_13h09.29.891,lexical_decision_task_MP,2020.1.3,MacIntel,60,m,0,0.623395,,,,,,,,0.623395,0,,,,,,270,NW,UN,50,aubrid,WRIMSY,z,,,,,,0.657092014,-0.352144097,0,0,0,,0,397,397,449,1,
,,,,,,,,,,,,,,,,,,5e988374315d6f0a10bac638,2020-08-10_13h09.29.891,lexical_decision_task_MP,2020.1.3,MacIntel,60,m,1,0.51601,,,,,,,,0.51601,1,,,,,,171,WORD,"ID",50,depart,DEPART,m,,,,,,0.657092014,-0.352144097,0,0,0,,0,398,398,110,1,
