counterbalancing_condition,instr_done_keyboard.keys,instr_done_keyboard.rt,instr_done_touch.x,instr_done_touch.y,instr_done_touch.leftButton,instr_done_touch.midButton,instr_done_touch.rightButton,instruction_pages.thisRepN,instruction_pages.thisTrialN,instruction_pages.thisN,instruction_pages.thisIndex,instruction_pages.ran,pageN,phase,instruct_text,has_image,instruct_image,participant,date,expName,psychopyVersion,OS,frameRate,response.keys,response.corr,response.rt,touch_resp.x,touch_resp.y,touch_resp.leftButton,touch_resp.midButton,touch_resp.rightButton,touch_resp.time,touch_resp.clicked_name,rt,corr,practice_trials.thisRepN,practice_trials.thisTrialN,practice_trials.thisN,practice_trials.thisIndex,practice_trials.ran,TrialID,StimulusType,Condition,PrimeDuration,Prime,Target,corrAns,end_of_practice_trials_pages.thisRepN,end_of_practice_trials_pages.thisTrialN,end_of_practice_trials_pages.thisN,end_of_practice_trials_pages.thisIndex,end_of_practice_trials_pages.ran,break_done_touch.x,break_done_touch.y,break_done_touch.leftButton,break_done_touch.midButton,break_done_touch.rightButton,break_done_keyboard.keys,trials.thisRepN,trials.thisTrialN,trials.thisN,trials.thisIndex,trials.ran,break_done_keyboard.rt,break_done_touch.clicked_name
2,space,12.489195,-0.8,0.5,0,0,0,0,0,0,0,1,1,instructions,"INSTRUCTIONS
At the start of each trial, look at the hash marks (######) in the center of the screen. After a moment, a string of letters will appear. Your task is to indicate if the letter string forms a word or not (i.e., if it is a nonword). For example, AUTHOR is a word while AUTHON is a nonword.

Press the space bar or touch the button below to continue.",0,,5ea1e178ff3ee50d69b46324,2020-08-10_16h02.15.234,lexical_decision_task_MP,2020.1.3,MacIntel,60,,,,,,,,,,,,,,,,,,,,,,,,,,,,,,,,,,,,,,,,,,
,space,10.555115,-0.8,0.5,0,0,0,0,1,1,1,1,2,instructions,"If your device has a keyboard, press the 'Z' key for nonwords and the 'M' key for words.





Press the space bar or touch the button below to continue.",1,keyboard-example.gif,5ea1e178ff3ee50d69b46324,2020-08-10_16h02.15.234,lexical_decision_task_MP,2020.1.3,MacIntel,60,,,,,,,,,,,,,,,,,,,,,,,,,,,,,,,,,,,,,,,,,,
,space,4.82045,-0.8,0.5,0,0,0,0,2,2,2,1,3,instructions,"If you are using a touchscreen only device, use the buttons on the screen. Do not use the mouse.





Press the space bar or touch the button below to continue.",1,touchscreen-example.gif,5ea1e178ff3ee50d69b46324,2020-08-10_16h02.15.234,lexical_decision_task_MP,2020.1.3,MacIntel,60,,,,,,,,,,,,,,,,,,,,,,,,,,,,,,,,,,,,,,,,,,
,space,9.20676,-0.8,0.5,0,0,0,0,3,3,3,1,4,instructions,"It is very important that you respond as quickly and accurately as possible, as each letter string will only be on the screen for two seconds. If you do not respond within this time, the message 'Too slow!' will be displayed and the experiment will progress to the next letter string. The first 20 trials will be practice trials and you will receive feedback on your answers. 

Press the space bar or touch the button below to start the practice trials.",0,,5ea1e178ff3ee50d69b46324,2020-08-10_16h02.15.234,lexical_decision_task_MP,2020.1.3,MacIntel,60,,,,,,,,,,,,,,,,,,,,,,,,,,,,,,,,,,,,,,,,,,
,,,,,,,,,,,,,,,,,,5ea1e178ff3ee50d69b46324,2020-08-10_16h02.15.234,lexical_decision_task_MP,2020.1.3,MacIntel,60,z,0,1.674055,,,,,,,,1.674055,0,0,0,0,4,1,1005,WORD,UN,33,abound,SQUEAK,m,,,,,,,,,,,,,,,,,,
,,,,,,,,,,,,,,,,,,5ea1e178ff3ee50d69b46324,2020-08-10_16h02.15.234,lexical_decision_task_MP,2020.1.3,MacIntel,60,z,1,1.012815,,,,,,,,1.012815,1,0,1,1,10,1,1011,NW,"ID",50,inlade,INLADE,z,,,,,,,,,,,,,,,,,,
,,,,,,,,,,,,,,,,,,5ea1e178ff3ee50d69b46324,2020-08-10_16h02.15.234,lexical_decision_task_MP,2020.1.3,MacIntel,60,z,1,1.11071,,,,,,,,1.11071,1,0,2,2,9,1,1010,NW,"ID",33,fariny,FARINY,z,,,,,,,,,,,,,,,,,,
,,,,,,,,,,,,,,,,,,5ea1e178ff3ee50d69b46324,2020-08-10_16h02.15.234,lexical_decision_task_MP,2020.1.3,MacIntel,60,m,1,0.59066,,,,,,,,0.59066,1,0,3,3,7,1,1008,WORD,UN,50,hurdle,VOLUME,m,,,,,,,,,,,,,,,,,,
,,,,,,,,,,,,,,,,,,5ea1e178ff3ee50d69b46324,2020-08-10_16h02.15.234,lexical_decision_task_MP,2020.1.3,MacIntel,60,m,1,0.59327,,,,,,,,0.59327,1,0,4,4,3,1,1004,WORD,"ID",50,matrix,MATRIX,m,,,,,,,,,,,,,,,,,,
,,,,,,,,,,,,,,,,,,5ea1e178ff3ee50d69b46324,2020-08-10_16h02.15.234,lexical_decision_task_MP,2020.1.3,MacIntel,60,m,1,0.665165,,,,,,,,0.665165,1,0,5,5,5,1,1006,WORD,UN,33,frenzy,OBTAIN,m,,,,,,,,,,,,,,,,,,
,,,,,,,,,,,,,,,,,,5ea1e178ff3ee50d69b46324,2020-08-10_16h02.15.234,lexical_decision_task_MP,2020.1.3,MacIntel,60,m,1,0.473415,,,,,,,,0.473415,1,0,6,6,2,1,1003,WORD,"ID",50,almond,ALMOND,m,,,,,,,,,,,,,,,,,,
,,,,,,,,,,,,,,,,,,5ea1e178ff3ee50d69b46324,2020-08-10_16h02.15.234,lexical_decision_task_MP,2020.1.3,MacIntel,60,m,0,1.09897,,,,,,,,1.09897,0,0,7,7,13,1,1014,NW,UN,33,winfer,ROUPET,z,,,,,,,,,,,,,,,,,,
,,,,,,,,,,,,,,,,,,5ea1e178ff3ee50d69b46324,2020-08-10_16h02.15.234,lexical_decision_task_MP,2020.1.3,MacIntel,60,m,1,0.54777,,,,,,,,0.54777,1,0,8,8,1,1,1002,WORD,"ID",33,adjust,ADJUST,m,,,,,,,,,,,,,,,,,,
,,,,,,,,,,,,,,,,,,5ea1e178ff3ee50d69b46324,2020-08-10_16h02.15.234,lexical_decision_task_MP,2020.1.3,MacIntel,60,m,1,0.732495,,,,,,,,0.732495,1,0,9,9,0,1,1001,WORD,"ID",33,utopia,UTOPIA,m,,,,,,,,,,,,,,,,,,
,,,,,,,,,,,,,,,,,,5ea1e178ff3ee50d69b46324,2020-08-10_16h02.15.234,lexical_decision_task_MP,2020.1.3,MacIntel,60,z,1,0.848535,,,,,,,,0.848535,1,0,10,10,8,1,1009,NW,"ID",33,aslert,ASLERT,z,,,,,,,,,,,,,,,,,,
,,,,,,,,,,,,,,,,,,5ea1e178ff3ee50d69b46324,2020-08-10_16h02.15.234,lexical_decision_task_MP,2020.1.3,MacIntel,60,z,1,0.91769,,,,,,,,0.91769,1,0,11,11,11,1,1012,NW,"ID",50,rashet,RASHET,z,,,,,,,,,,,,,,,,,,
,,,,,,,,,,,,,,,,,,5ea1e178ff3ee50d69b46324,2020-08-10_16h02.15.234,lexical_decision_task_MP,2020.1.3,MacIntel,60,m,1,0.700045,,,,,,,,0.700045,1,0,12,12,6,1,1007,WORD,UN,50,tropic,ZOMBIE,m,,,,,,,,,,,,,,,,,,
,,,,,,,,,,,,,,,,,,5ea1e178ff3ee50d69b46324,2020-08-10_16h02.15.234,lexical_decision_task_MP,2020.1.3,MacIntel,60,z,1,0.948435,,,,,,,,0.948435,1,0,13,13,12,1,1013,NW,UN,33,adveil,SPRINY,z,,,,,,,,,,,,,,,,,,
,,,,,,,,,,,,,,,,,,5ea1e178ff3ee50d69b46324,2020-08-10_16h02.15.234,lexical_decision_task_MP,2020.1.3,MacIntel,60,z,1,0.81785,,,,,,,,0.81785,1,0,14,14,14,1,1015,NW,UN,50,miaber,THRALE,z,,,,,,,,,,,,,,,,,,
,,,,,,,,,,,,,,,,,,5ea1e178ff3ee50d69b46324,2020-08-10_16h02.15.234,lexical_decision_task_MP,2020.1.3,MacIntel,60,z,1,0.951725,,,,,,,,0.951725,1,0,15,15,15,1,1016,NW,UN,50,mushed,WHAISE,z,,,,,,,,,,,,,,,,,,
,space,14.56218,0.372083333,-0.346302083,0,0,0,,,,,,1,end_of_practice,"You have completed the practice trials. During the experimental trials, you will not receive feedback, but it is very important that you respond as quickly and accurately as possible. 
Before you begin, please ensure that you are in a comfortable and quiet location and will not be disturbed for about 15 minutes, as we cannot use your data if you do not complete all the trials. 
There will be opportunities to take breaks at regular intervals during the experiment. When you are ready to start the experimental trials, please press space or touch the button below.",,,5ea1e178ff3ee50d69b46324,2020-08-10_16h02.15.234,lexical_decision_task_MP,2020.1.3,MacIntel,60,,,,,,,,,,,,,,,,,,,,,,,,,0,0,0,0,1,,,,,,,,,,,,,
,,,,,,,,,,,,,,,,,,5ea1e178ff3ee50d69b46324,2020-08-10_16h02.15.234,lexical_decision_task_MP,2020.1.3,MacIntel,60,m,1,0.73177,,,,,,,,0.73177,1,,,,,,50,WORD,UN,50,hungry,SNATCH,m,,,,,,0.372083333,-0.346302083,0,0,0,,0,0,0,229,1,,
,,,,,,,,,,,,,,,,,,5ea1e178ff3ee50d69b46324,2020-08-10_16h02.15.234,lexical_decision_task_MP,2020.1.3,MacIntel,60,m,1,0.56684,,,,,,,,0.56684,1,,,,,,237,WORD,UN,33,glance,POSTER,m,,,,,,0.372083333,-0.346302083,0,0,0,,0,1,1,176,1,,
,,,,,,,,,,,,,,,,,,5ea1e178ff3ee50d69b46324,2020-08-10_16h02.15.234,lexical_decision_task_MP,2020.1.3,MacIntel,60,m,1,0.520545,,,,,,,,0.520545,1,,,,,,125,WORD,"ID",50,nickel,NICKEL,m,,,,,,0.372083333,-0.346302083,0,0,0,,0,2,2,64,1,,
,,,,,,,,,,,,,,,,,,5ea1e178ff3ee50d69b46324,2020-08-10_16h02.15.234,lexical_decision_task_MP,2020.1.3,MacIntel,60,m,1,0.518795,,,,,,,,0.518795,1,,,,,,112,WORD,"ID",33,breath,BREATH,m,,,,,,0.372083333,-0.346302083,0,0,0,,0,3,3,51,1,,
,,,,,,,,,,,,,,,,,,5ea1e178ff3ee50d69b46324,2020-08-10_16h02.15.234,lexical_decision_task_MP,2020.1.3,MacIntel,60,m,1,0.54928,,,,,,,,0.54928,1,,,,,,224,WORD,UN,33,vulgar,PERIOD,m,,,,,,0.372083333,-0.346302083,0,0,0,,0,4,4,163,1,,
,,,,,,,,,,,,,,,,,,5ea1e178ff3ee50d69b46324,2020-08-10_16h02.15.234,lexical_decision_task_MP,2020.1.3,MacIntel,60,m,1,0.487535,,,,,,,,0.487535,1,,,,,,64,WORD,"ID",33,throne,THRONE,m,,,,,,0.372083333,-0.346302083,0,0,0,,0,5,5,3,1,,
,,,,,,,,,,,,,,,,,,5ea1e178ff3ee50d69b46324,2020-08-10_16h02.15.234,lexical_decision_task_MP,2020.1.3,MacIntel,60,m,1,0.4654,,,,,,,,0.4654,1,,,,,,117,WORD,"ID",33,branch,BRANCH,m,,,,,,0.372083333,-0.346302083,0,0,0,,0,6,6,56,1,,
,,,,,,,,,,,,,,,,,,5ea1e178ff3ee50d69b46324,2020-08-10_16h02.15.234,lexical_decision_task_MP,2020.1.3,MacIntel,60,m,1,0.498845,,,,,,,,0.498845,1,,,,,,169,WORD,"ID",50,genius,GENIUS,m,,,,,,0.372083333,-0.346302083,0,0,0,,0,7,7,108,1,,
,,,,,,,,,,,,,,,,,,5ea1e178ff3ee50d69b46324,2020-08-10_16h02.15.234,lexical_decision_task_MP,2020.1.3,MacIntel,60,m,1,0.51702,,,,,,,,0.51702,1,,,,,,207,WORD,UN,33,hockey,WREATH,m,,,,,,0.372083333,-0.346302083,0,0,0,,0,8,8,146,1,,
,,,,,,,,,,,,,,,,,,5ea1e178ff3ee50d69b46324,2020-08-10_16h02.15.234,lexical_decision_task_MP,2020.1.3,MacIntel,60,m,1,0.536545,,,,,,,,0.536545,1,,,,,,32,WORD,UN,50,scream,BUCKLE,m,,,,,,0.372083333,-0.346302083,0,0,0,,0,9,9,211,1,,
,,,,,,,,,,,,,,,,,,5ea1e178ff3ee50d69b46324,2020-08-10_16h02.15.234,lexical_decision_task_MP,2020.1.3,MacIntel,60,m,1,0.498625,,,,,,,,0.498625,1,,,,,,223,WORD,UN,33,period,KIDNEY,m,,,,,,0.372083333,-0.346302083,0,0,0,,0,10,10,162,1,,
,,,,,,,,,,,,,,,,,,5ea1e178ff3ee50d69b46324,2020-08-10_16h02.15.234,lexical_decision_task_MP,2020.1.3,MacIntel,60,m,1,0.719925,,,,,,,,0.719925,1,,,,,,35,WORD,UN,50,vanish,SOCKET,m,,,,,,0.372083333,-0.346302083,0,0,0,,0,11,11,214,1,,
,,,,,,,,,,,,,,,,,,5ea1e178ff3ee50d69b46324,2020-08-10_16h02.15.234,lexical_decision_task_MP,2020.1.3,MacIntel,60,m,0,0.4506,,,,,,,,0.4506,0,,,,,,332,NW,"ID",33,vangue,VANGUE,z,,,,,,0.372083333,-0.346302083,0,0,0,,0,12,12,271,1,,
,,,,,,,,,,,,,,,,,,5ea1e178ff3ee50d69b46324,2020-08-10_16h02.15.234,lexical_decision_task_MP,2020.1.3,MacIntel,60,z,1,0.74835,,,,,,,,0.74835,1,,,,,,310,NW,"ID",33,daniet,DANIET,z,,,,,,0.372083333,-0.346302083,0,0,0,,0,13,13,249,1,,
,,,,,,,,,,,,,,,,,,5ea1e178ff3ee50d69b46324,2020-08-10_16h02.15.234,lexical_decision_task_MP,2020.1.3,MacIntel,60,m,1,0.54796,,,,,,,,0.54796,1,,,,,,122,WORD,"ID",50,linger,LINGER,m,,,,,,0.372083333,-0.346302083,0,0,0,,0,14,14,61,1,,
,,,,,,,,,,,,,,,,,,5ea1e178ff3ee50d69b46324,2020-08-10_16h02.15.234,lexical_decision_task_MP,2020.1.3,MacIntel,60,z,1,0.751905,,,,,,,,0.751905,1,,,,,,367,NW,"ID",50,slique,SLIQUE,z,,,,,,0.372083333,-0.346302083,0,0,0,,0,15,15,306,1,,
,,,,,,,,,,,,,,,,,,5ea1e178ff3ee50d69b46324,2020-08-10_16h02.15.234,lexical_decision_task_MP,2020.1.3,MacIntel,60,z,1,0.60318,,,,,,,,0.60318,1,,,,,,403,NW,"ID",50,bruats,BRUATS,z,,,,,,0.372083333,-0.346302083,0,0,0,,0,16,16,342,1,,
,,,,,,,,,,,,,,,,,,5ea1e178ff3ee50d69b46324,2020-08-10_16h02.15.234,lexical_decision_task_MP,2020.1.3,MacIntel,60,z,1,0.870885,,,,,,,,0.870885,1,,,,,,389,NW,"ID",50,witmer,WITMER,z,,,,,,0.372083333,-0.346302083,0,0,0,,0,17,17,328,1,,
,,,,,,,,,,,,,,,,,,5ea1e178ff3ee50d69b46324,2020-08-10_16h02.15.234,lexical_decision_task_MP,2020.1.3,MacIntel,60,m,1,0.48785,,,,,,,,0.48785,1,,,,,,81,WORD,"ID",33,friend,FRIEND,m,,,,,,0.372083333,-0.346302083,0,0,0,,0,18,18,20,1,,
,,,,,,,,,,,,,,,,,,5ea1e178ff3ee50d69b46324,2020-08-10_16h02.15.234,lexical_decision_task_MP,2020.1.3,MacIntel,60,z,1,0.70269,,,,,,,,0.70269,1,,,,,,437,NW,UN,33,baitch,SNAPEL,z,,,,,,0.372083333,-0.346302083,0,0,0,,0,19,19,376,1,,
,,,,,,,,,,,,,,,,,,5ea1e178ff3ee50d69b46324,2020-08-10_16h02.15.234,lexical_decision_task_MP,2020.1.3,MacIntel,60,m,1,0.833585,,,,,,,,0.833585,1,,,,,,135,WORD,"ID",50,import,IMPORT,m,,,,,,0.372083333,-0.346302083,0,0,0,,0,20,20,74,1,,
,,,,,,,,,,,,,,,,,,5ea1e178ff3ee50d69b46324,2020-08-10_16h02.15.234,lexical_decision_task_MP,2020.1.3,MacIntel,60,m,1,0.58432,,,,,,,,0.58432,1,,,,,,230,WORD,UN,33,mother,FRINGE,m,,,,,,0.372083333,-0.346302083,0,0,0,,0,21,21,169,1,,
,,,,,,,,,,,,,,,,,,5ea1e178ff3ee50d69b46324,2020-08-10_16h02.15.234,lexical_decision_task_MP,2020.1.3,MacIntel,60,m,0,1.11847,,,,,,,,1.11847,0,,,,,,462,NW,UN,33,kispel,ABSULT,z,,,,,,0.372083333,-0.346302083,0,0,0,,0,22,22,401,1,,
,,,,,,,,,,,,,,,,,,5ea1e178ff3ee50d69b46324,2020-08-10_16h02.15.234,lexical_decision_task_MP,2020.1.3,MacIntel,60,z,1,0.6511,,,,,,,,0.6511,1,,,,,,287,NW,UN,50,yaceup,NYMBEL,z,,,,,,0.372083333,-0.346302083,0,0,0,,0,23,23,466,1,,
,,,,,,,,,,,,,,,,,,5ea1e178ff3ee50d69b46324,2020-08-10_16h02.15.234,lexical_decision_task_MP,2020.1.3,MacIntel,60,m,1,0.71752,,,,,,,,0.71752,1,,,,,,6,WORD,UN,50,anchor,BUNDLE,m,,,,,,0.372083333,-0.346302083,0,0,0,,0,24,24,185,1,,
,,,,,,,,,,,,,,,,,,5ea1e178ff3ee50d69b46324,2020-08-10_16h02.15.234,lexical_decision_task_MP,2020.1.3,MacIntel,60,z,1,0.65118,,,,,,,,0.65118,1,,,,,,380,NW,"ID",50,cavory,CAVORY,z,,,,,,0.372083333,-0.346302083,0,0,0,,0,25,25,319,1,,
,,,,,,,,,,,,,,,,,,5ea1e178ff3ee50d69b46324,2020-08-10_16h02.15.234,lexical_decision_task_MP,2020.1.3,MacIntel,60,m,1,0.737005,,,,,,,,0.737005,1,,,,,,195,WORD,UN,33,credit,RESIGN,m,,,,,,0.372083333,-0.346302083,0,0,0,,0,26,26,134,1,,
,,,,,,,,,,,,,,,,,,5ea1e178ff3ee50d69b46324,2020-08-10_16h02.15.234,lexical_decision_task_MP,2020.1.3,MacIntel,60,m,1,0.558085,,,,,,,,0.558085,1,,,,,,42,WORD,UN,50,tongue,CHAPEL,m,,,,,,0.372083333,-0.346302083,0,0,0,,0,27,27,221,1,,
,,,,,,,,,,,,,,,,,,5ea1e178ff3ee50d69b46324,2020-08-10_16h02.15.234,lexical_decision_task_MP,2020.1.3,MacIntel,60,z,1,0.684185,,,,,,,,0.684185,1,,,,,,273,NW,UN,50,fumblo,SORTEL,z,,,,,,0.372083333,-0.346302083,0,0,0,,0,28,28,452,1,,
,,,,,,,,,,,,,,,,,,5ea1e178ff3ee50d69b46324,2020-08-10_16h02.15.234,lexical_decision_task_MP,2020.1.3,MacIntel,60,z,1,0.704235,,,,,,,,0.704235,1,,,,,,280,NW,UN,50,melaty,CURBOL,z,,,,,,0.372083333,-0.346302083,0,0,0,,0,29,29,459,1,,
,,,,,,,,,,,,,,,,,,5ea1e178ff3ee50d69b46324,2020-08-10_16h02.15.234,lexical_decision_task_MP,2020.1.3,MacIntel,60,m,1,0.58346,,,,,,,,0.58346,1,,,,,,198,WORD,UN,33,invoke,WICKED,m,,,,,,0.372083333,-0.346302083,0,0,0,,0,30,30,137,1,,
,,,,,,,,,,,,,,,,,,5ea1e178ff3ee50d69b46324,2020-08-10_16h02.15.234,lexical_decision_task_MP,2020.1.3,MacIntel,60,m,1,0.634315,,,,,,,,0.634315,1,,,,,,160,WORD,"ID",50,violet,VIOLET,m,,,,,,0.372083333,-0.346302083,0,0,0,,0,31,31,99,1,,
,,,,,,,,,,,,,,,,,,5ea1e178ff3ee50d69b46324,2020-08-10_16h02.15.234,lexical_decision_task_MP,2020.1.3,MacIntel,60,z,1,0.80021,,,,,,,,0.80021,1,,,,,,255,NW,UN,50,inlors,APIGHT,z,,,,,,0.372083333,-0.346302083,0,0,0,,0,32,32,434,1,,
,,,,,,,,,,,,,,,,,,5ea1e178ff3ee50d69b46324,2020-08-10_16h02.15.234,lexical_decision_task_MP,2020.1.3,MacIntel,60,z,1,0.56747,,,,,,,,0.56747,1,,,,,,269,NW,UN,50,wrimsy,ORCHET,z,,,,,,0.372083333,-0.346302083,0,0,0,,0,33,33,448,1,,
,,,,,,,,,,,,,,,,,,5ea1e178ff3ee50d69b46324,2020-08-10_16h02.15.234,lexical_decision_task_MP,2020.1.3,MacIntel,60,z,1,0.66651,,,,,,,,0.66651,1,,,,,,246,NW,UN,50,blarge,PIATON,z,,,,,,0.372083333,-0.346302083,0,0,0,,0,34,34,425,1,,
,,,,,,,,,,,,,,,,,,5ea1e178ff3ee50d69b46324,2020-08-10_16h02.15.234,lexical_decision_task_MP,2020.1.3,MacIntel,60,m,1,0.686685,,,,,,,,0.686685,1,,,,,,33,WORD,UN,50,jungle,BUTLER,m,,,,,,0.372083333,-0.346302083,0,0,0,,0,35,35,212,1,,
,,,,,,,,,,,,,,,,,,5ea1e178ff3ee50d69b46324,2020-08-10_16h02.15.234,lexical_decision_task_MP,2020.1.3,MacIntel,60,z,1,0.65384,,,,,,,,0.65384,1,,,,,,265,NW,UN,50,varmit,DISTAR,z,,,,,,0.372083333,-0.346302083,0,0,0,,0,36,36,444,1,,
,,,,,,,,,,,,,,,,,,5ea1e178ff3ee50d69b46324,2020-08-10_16h02.15.234,lexical_decision_task_MP,2020.1.3,MacIntel,60,m,0,1.098005,,,,,,,,1.098005,0,,,,,,270,NW,UN,50,aubrid,WRIMSY,z,,,,,,0.372083333,-0.346302083,0,0,0,,0,37,37,449,1,,
,,,,,,,,,,,,,,,,,,5ea1e178ff3ee50d69b46324,2020-08-10_16h02.15.234,lexical_decision_task_MP,2020.1.3,MacIntel,60,m,1,0.722535,,,,,,,,0.722535,1,,,,,,142,WORD,"ID",50,spruce,SPRUCE,m,,,,,,0.372083333,-0.346302083,0,0,0,,0,38,38,81,1,,
,,,,,,,,,,,,,,,,,,5ea1e178ff3ee50d69b46324,2020-08-10_16h02.15.234,lexical_decision_task_MP,2020.1.3,MacIntel,60,m,1,0.570995,,,,,,,,0.570995,1,,,,,,148,WORD,"ID",50,custom,CUSTOM,m,,,,,,0.372083333,-0.346302083,0,0,0,,0,39,39,87,1,,
,,,,,,,,,,,,,,,,,,5ea1e178ff3ee50d69b46324,2020-08-10_16h02.15.234,lexical_decision_task_MP,2020.1.3,MacIntel,60,z,1,0.6038,,,,,,,,0.6038,1,,,,,,471,NW,UN,33,cigney,NOBEST,z,,,,,,0.372083333,-0.346302083,0,0,0,,0,40,40,410,1,,
,,,,,,,,,,,,,,,,,,5ea1e178ff3ee50d69b46324,2020-08-10_16h02.15.234,lexical_decision_task_MP,2020.1.3,MacIntel,60,z,1,0.75118,,,,,,,,0.75118,1,,,,,,400,NW,"ID",50,wearox,WEAROX,z,,,,,,0.372083333,-0.346302083,0,0,0,,0,41,41,339,1,,
,,,,,,,,,,,,,,,,,,5ea1e178ff3ee50d69b46324,2020-08-10_16h02.15.234,lexical_decision_task_MP,2020.1.3,MacIntel,60,z,1,0.65597,,,,,,,,0.65597,1,,,,,,381,NW,"ID",50,huniek,HUNIEK,z,,,,,,0.372083333,-0.346302083,0,0,0,,0,42,42,320,1,,
,,,,,,,,,,,,,,,,,,5ea1e178ff3ee50d69b46324,2020-08-10_16h02.15.234,lexical_decision_task_MP,2020.1.3,MacIntel,60,m,1,0.565465,,,,,,,,0.565465,1,,,,,,205,WORD,UN,33,tailor,LOUNGE,m,,,,,,0.372083333,-0.346302083,0,0,0,,0,43,43,144,1,,
,,,,,,,,,,,,,,,,,,5ea1e178ff3ee50d69b46324,2020-08-10_16h02.15.234,lexical_decision_task_MP,2020.1.3,MacIntel,60,m,0,0.75053,,,,,,,,0.75053,0,,,,,,433,NW,UN,33,pitrom,DRANCE,z,,,,,,0.372083333,-0.346302083,0,0,0,,0,44,44,372,1,,
,,,,,,,,,,,,,,,,,,5ea1e178ff3ee50d69b46324,2020-08-10_16h02.15.234,lexical_decision_task_MP,2020.1.3,MacIntel,60,z,0,0.76981,,,,,,,,0.76981,0,,,,,,120,WORD,"ID",33,strain,STRAIN,m,,,,,,0.372083333,-0.346302083,0,0,0,,0,45,45,59,1,,
,,,,,,,,,,,,,,,,,,5ea1e178ff3ee50d69b46324,2020-08-10_16h02.15.234,lexical_decision_task_MP,2020.1.3,MacIntel,60,z,1,0.735035,,,,,,,,0.735035,1,,,,,,449,NW,UN,33,phrect,BRUNGE,z,,,,,,0.372083333,-0.346302083,0,0,0,,0,46,46,388,1,,
,,,,,,,,,,,,,,,,,,5ea1e178ff3ee50d69b46324,2020-08-10_16h02.15.234,lexical_decision_task_MP,2020.1.3,MacIntel,60,z,1,0.636335,,,,,,,,0.636335,1,,,,,,344,NW,"ID",33,scrily,SCRILY,z,,,,,,0.372083333,-0.346302083,0,0,0,,0,47,47,283,1,,
,,,,,,,,,,,,,,,,,,5ea1e178ff3ee50d69b46324,2020-08-10_16h02.15.234,lexical_decision_task_MP,2020.1.3,MacIntel,60,m,1,0.83433,,,,,,,,0.83433,1,,,,,,194,WORD,UN,33,resign,ABSENT,m,,,,,,0.372083333,-0.346302083,0,0,0,,0,48,48,133,1,,
,,,,,,,,,,,,,,,,,,5ea1e178ff3ee50d69b46324,2020-08-10_16h02.15.234,lexical_decision_task_MP,2020.1.3,MacIntel,60,z,1,0.567945,,,,,,,,0.567945,1,,,,,,383,NW,"ID",50,aungre,AUNGRE,z,,,,,,0.372083333,-0.346302083,0,0,0,,0,49,49,322,1,,
,,,,,,,,,,,,,,,,,,5ea1e178ff3ee50d69b46324,2020-08-10_16h02.15.234,lexical_decision_task_MP,2020.1.3,MacIntel,60,z,1,0.63349,,,,,,,,0.63349,1,,,,,,317,NW,"ID",33,worbal,WORBAL,z,,,,,,0.372083333,-0.346302083,0,0,0,,0,50,50,256,1,,
,,,,,,,,,,,,,,,,,,5ea1e178ff3ee50d69b46324,2020-08-10_16h02.15.234,lexical_decision_task_MP,2020.1.3,MacIntel,60,z,1,0.52274,,,,,,,,0.52274,1,,,,,,296,NW,UN,50,fertic,BEINCH,z,,,,,,0.372083333,-0.346302083,0,0,0,,0,51,51,475,1,,
,,,,,,,,,,,,,,,,,,5ea1e178ff3ee50d69b46324,2020-08-10_16h02.15.234,lexical_decision_task_MP,2020.1.3,MacIntel,60,z,1,0.53238,,,,,,,,0.53238,1,,,,,,470,NW,UN,33,nobest,CRUDIO,z,,,,,,0.372083333,-0.346302083,0,0,0,,0,52,52,409,1,,
,,,,,,,,,,,,,,,,,,5ea1e178ff3ee50d69b46324,2020-08-10_16h02.15.234,lexical_decision_task_MP,2020.1.3,MacIntel,60,m,1,0.58838,,,,,,,,0.58838,1,,,,,,92,WORD,"ID",33,strand,STRAND,m,,,,,,0.372083333,-0.346302083,0,0,0,,0,53,53,31,1,,
,,,,,,,,,,,,,,,,,,5ea1e178ff3ee50d69b46324,2020-08-10_16h02.15.234,lexical_decision_task_MP,2020.1.3,MacIntel,60,m,1,0.58298,,,,,,,,0.58298,1,,,,,,110,WORD,"ID",33,polite,POLITE,m,,,,,,0.372083333,-0.346302083,0,0,0,,0,54,54,49,1,,
,,,,,,,,,,,,,,,,,,5ea1e178ff3ee50d69b46324,2020-08-10_16h02.15.234,lexical_decision_task_MP,2020.1.3,MacIntel,60,m,0,0.51774,,,,,,,,0.51774,0,,,,,,364,NW,"ID",50,impote,IMPOTE,z,,,,,,0.372083333,-0.346302083,0,0,0,,0,55,55,303,1,,
,,,,,,,,,,,,,,,,,,5ea1e178ff3ee50d69b46324,2020-08-10_16h02.15.234,lexical_decision_task_MP,2020.1.3,MacIntel,60,z,1,0.735715,,,,,,,,0.735715,1,,,,,,249,NW,UN,50,milted,BATROL,z,,,,,,0.372083333,-0.346302083,0,0,0,,0,56,56,428,1,,
,,,,,,,,,,,,,,,,,,5ea1e178ff3ee50d69b46324,2020-08-10_16h02.15.234,lexical_decision_task_MP,2020.1.3,MacIntel,60,z,1,1.099945,,,,,,,,1.099945,1,,,,,,325,NW,"ID",33,thruse,THRUSE,z,,,,,,0.372083333,-0.346302083,0,0,0,,0,57,57,264,1,,
,,,,,,,,,,,,,,,,,,5ea1e178ff3ee50d69b46324,2020-08-10_16h02.15.234,lexical_decision_task_MP,2020.1.3,MacIntel,60,m,1,0.571505,,,,,,,,0.571505,1,,,,,,99,WORD,"ID",33,fluent,FLUENT,m,,,,,,0.372083333,-0.346302083,0,0,0,,0,58,58,38,1,,
,,,,,,,,,,,,,,,,,,5ea1e178ff3ee50d69b46324,2020-08-10_16h02.15.234,lexical_decision_task_MP,2020.1.3,MacIntel,60,z,1,0.63174,,,,,,,,0.63174,1,,,,,,464,NW,UN,33,whivex,CHAITE,z,,,,,,0.372083333,-0.346302083,0,0,0,,0,59,59,403,1,,
,,,,,,,,,,,,,,,,,,5ea1e178ff3ee50d69b46324,2020-08-10_16h02.15.234,lexical_decision_task_MP,2020.1.3,MacIntel,60,m,1,0.520975,,,,,,,,0.520975,1,,,,,,150,WORD,"ID",50,random,RANDOM,m,,,,,,0.372083333,-0.346302083,0,0,0,,0,60,60,89,1,,
,,,,,,,,,,,,,,,,,,5ea1e178ff3ee50d69b46324,2020-08-10_16h02.15.234,lexical_decision_task_MP,2020.1.3,MacIntel,60,m,1,0.550595,,,,,,,,0.550595,1,,,,,,115,WORD,"ID",33,guitar,GUITAR,m,,,,,,0.372083333,-0.346302083,0,0,0,,0,61,61,54,1,,
,,,,,,,,,,,,,,,,,,5ea1e178ff3ee50d69b46324,2020-08-10_16h02.15.234,lexical_decision_task_MP,2020.1.3,MacIntel,60,m,1,0.67368,,,,,,,,0.67368,1,,,,,,199,WORD,UN,33,plague,INVOKE,m,,,,,,0.372083333,-0.346302083,0,0,0,,0,62,62,138,1,,
,,,,,,,,,,,,,,,,,,5ea1e178ff3ee50d69b46324,2020-08-10_16h02.15.234,lexical_decision_task_MP,2020.1.3,MacIntel,60,m,1,0.5043,,,,,,,,0.5043,1,,,,,,31,WORD,UN,50,buckle,WEAPON,m,,,,,,0.372083333,-0.346302083,0,0,0,,0,63,63,210,1,,
,,,,,,,,,,,,,,,,,,5ea1e178ff3ee50d69b46324,2020-08-10_16h02.15.234,lexical_decision_task_MP,2020.1.3,MacIntel,60,m,1,0.46794,,,,,,,,0.46794,1,,,,,,177,WORD,"ID",50,advent,ADVENT,m,,,,,,0.372083333,-0.346302083,0,0,0,,0,64,64,116,1,,
,,,,,,,,,,,,,,,,,,5ea1e178ff3ee50d69b46324,2020-08-10_16h02.15.234,lexical_decision_task_MP,2020.1.3,MacIntel,60,m,1,0.51744,,,,,,,,0.51744,1,,,,,,69,WORD,"ID",33,plenty,PLENTY,m,,,,,,0.372083333,-0.346302083,0,0,0,,0,65,65,8,1,,
,,,,,,,,,,,,,,,,,,5ea1e178ff3ee50d69b46324,2020-08-10_16h02.15.234,lexical_decision_task_MP,2020.1.3,MacIntel,60,m,1,0.72054,,,,,,,,0.72054,1,,,,,,189,WORD,UN,33,backup,CENSOR,m,,,,,,0.372083333,-0.346302083,0,0,0,,0,66,66,128,1,,
,,,,,,,,,,,,,,,,,,5ea1e178ff3ee50d69b46324,2020-08-10_16h02.15.234,lexical_decision_task_MP,2020.1.3,MacIntel,60,m,1,0.49991,,,,,,,,0.49991,1,,,,,,209,WORD,UN,33,monkey,SEARCH,m,,,,,,0.372083333,-0.346302083,0,0,0,,0,67,67,148,1,,
,,,,,,,,,,,,,,,,,,5ea1e178ff3ee50d69b46324,2020-08-10_16h02.15.234,lexical_decision_task_MP,2020.1.3,MacIntel,60,z,1,0.63422,,,,,,,,0.63422,1,,,,,,359,NW,"ID",33,fonver,FONVER,z,,,,,,0.372083333,-0.346302083,0,0,0,,0,68,68,298,1,,
,,,,,,,,,,,,,,,,,,5ea1e178ff3ee50d69b46324,2020-08-10_16h02.15.234,lexical_decision_task_MP,2020.1.3,MacIntel,60,z,1,0.51818,,,,,,,,0.51818,1,,,,,,445,NW,UN,33,runamo,MINKEL,z,,,,,,0.372083333,-0.346302083,0,0,0,,0,69,69,384,1,,
,,,,,,,,,,,,,,,,,,5ea1e178ff3ee50d69b46324,2020-08-10_16h02.15.234,lexical_decision_task_MP,2020.1.3,MacIntel,60,m,1,0.500345,,,,,,,,0.500345,1,,,,,,149,WORD,"ID",50,invade,INVADE,m,,,,,,0.372083333,-0.346302083,0,0,0,,0,70,70,88,1,,
,,,,,,,,,,,,,,,,,,5ea1e178ff3ee50d69b46324,2020-08-10_16h02.15.234,lexical_decision_task_MP,2020.1.3,MacIntel,60,m,1,0.467685,,,,,,,,0.467685,1,,,,,,178,WORD,"ID",50,inform,INFORM,m,,,,,,0.372083333,-0.346302083,0,0,0,,0,71,71,117,1,,
,,,,,,,,,,,,,,,,,,5ea1e178ff3ee50d69b46324,2020-08-10_16h02.15.234,lexical_decision_task_MP,2020.1.3,MacIntel,60,z,1,0.668845,,,,,,,,0.668845,1,,,,,,411,NW,"ID",50,orchin,ORCHIN,z,,,,,,0.372083333,-0.346302083,0,0,0,,0,72,72,350,1,,
,,,,,,,,,,,,,,,,,,5ea1e178ff3ee50d69b46324,2020-08-10_16h02.15.234,lexical_decision_task_MP,2020.1.3,MacIntel,60,z,1,0.668435,,,,,,,,0.668435,1,,,,,,452,NW,UN,33,bolvis,SURDEN,z,,,,,,0.372083333,-0.346302083,0,0,0,,0,73,73,391,1,,
,,,,,,,,,,,,,,,,,,5ea1e178ff3ee50d69b46324,2020-08-10_16h02.15.234,lexical_decision_task_MP,2020.1.3,MacIntel,60,z,1,0.800865,,,,,,,,0.800865,1,,,,,,391,NW,"ID",50,theldy,THELDY,z,,,,,,0.372083333,-0.346302083,0,0,0,,0,74,74,330,1,,
,,,,,,,,,,,,,,,,,,5ea1e178ff3ee50d69b46324,2020-08-10_16h02.15.234,lexical_decision_task_MP,2020.1.3,MacIntel,60,m,1,0.63408,,,,,,,,0.63408,1,,,,,,13,WORD,UN,50,almost,STRIVE,m,,,,,,0.372083333,-0.346302083,0,0,0,,0,75,75,192,1,,
,,,,,,,,,,,,,,,,,,5ea1e178ff3ee50d69b46324,2020-08-10_16h02.15.234,lexical_decision_task_MP,2020.1.3,MacIntel,60,m,1,0.52072,,,,,,,,0.52072,1,,,,,,171,WORD,"ID",50,depart,DEPART,m,,,,,,0.372083333,-0.346302083,0,0,0,,0,76,76,110,1,,
,,,,,,,,,,,,,,,,,,5ea1e178ff3ee50d69b46324,2020-08-10_16h02.15.234,lexical_decision_task_MP,2020.1.3,MacIntel,60,z,1,0.56519,,,,,,,,0.56519,1,,,,,,410,NW,"ID",50,tunory,TUNORY,z,,,,,,0.372083333,-0.346302083,0,0,0,,0,77,77,349,1,,
,,,,,,,,,,,,,,,,,,5ea1e178ff3ee50d69b46324,2020-08-10_16h02.15.234,lexical_decision_task_MP,2020.1.3,MacIntel,60,m,1,0.50067,,,,,,,,0.50067,1,,,,,,228,WORD,UN,33,kidney,MASTER,m,,,,,,0.372083333,-0.346302083,0,0,0,,0,78,78,167,1,,
,,,,,,,,,,,,,,,,,,5ea1e178ff3ee50d69b46324,2020-08-10_16h02.15.234,lexical_decision_task_MP,2020.1.3,MacIntel,60,m,1,0.48597,,,,,,,,0.48597,1,,,,,,88,WORD,"ID",33,hunger,HUNGER,m,,,,,,0.372083333,-0.346302083,0,0,0,,0,79,79,27,1,,
,,,,,,,,,,,,,,,,,,5ea1e178ff3ee50d69b46324,2020-08-10_16h02.15.234,lexical_decision_task_MP,2020.1.3,MacIntel,60,z,1,0.58368,,,,,,,,0.58368,1,,,,,,336,NW,"ID",33,ghodus,GHODUS,z,,,,,,0.372083333,-0.346302083,0,0,0,,0,80,80,275,1,,
,,,,,,,,,,,,,,,,,,5ea1e178ff3ee50d69b46324,2020-08-10_16h02.15.234,lexical_decision_task_MP,2020.1.3,MacIntel,60,z,1,0.72165,,,,,,,,0.72165,1,,,,,,475,NW,UN,33,josted,PEBRIC,z,,,,,,0.372083333,-0.346302083,0,0,0,,0,81,81,414,1,,
,,,,,,,,,,,,,,,,,,5ea1e178ff3ee50d69b46324,2020-08-10_16h02.15.234,lexical_decision_task_MP,2020.1.3,MacIntel,60,m,1,0.53824,,,,,,,,0.53824,1,,,,,,151,WORD,"ID",50,mystic,MYSTIC,m,,,,,,0.372083333,-0.346302083,0,0,0,,0,82,82,90,1,,
,,,,,,,,,,,,,,,,,,5ea1e178ff3ee50d69b46324,2020-08-10_16h02.15.234,lexical_decision_task_MP,2020.1.3,MacIntel,60,z,1,0.75,,,,,,,,0.75,1,,,,,,343,NW,"ID",33,aimosy,AIMOSY,z,,,,,,0.372083333,-0.346302083,0,0,0,,0,83,83,282,1,,
,,,,,,,,,,,,,,,,,,5ea1e178ff3ee50d69b46324,2020-08-10_16h02.15.234,lexical_decision_task_MP,2020.1.3,MacIntel,60,z,0,0.818505,,,,,,,,0.818505,0,,,,,,239,WORD,UN,33,forest,LUMBER,m,,,,,,0.372083333,-0.346302083,0,0,0,,0,84,84,178,1,,
,,,,,,,,,,,,,,,,,,5ea1e178ff3ee50d69b46324,2020-08-10_16h02.15.234,lexical_decision_task_MP,2020.1.3,MacIntel,60,m,1,0.58636,,,,,,,,0.58636,1,,,,,,83,WORD,"ID",33,result,RESULT,m,,,,,,0.372083333,-0.346302083,0,0,0,,0,85,85,22,1,,
,,,,,,,,,,,,,,,,,,5ea1e178ff3ee50d69b46324,2020-08-10_16h02.15.234,lexical_decision_task_MP,2020.1.3,MacIntel,60,m,1,0.54982,,,,,,,,0.54982,1,,,,,,185,WORD,UN,33,portal,BOTHER,m,,,,,,0.372083333,-0.346302083,0,0,0,,0,86,86,124,1,,
,,,,,,,,,,,,,,,,,,5ea1e178ff3ee50d69b46324,2020-08-10_16h02.15.234,lexical_decision_task_MP,2020.1.3,MacIntel,60,m,1,0.550585,,,,,,,,0.550585,1,,,,,,7,WORD,UN,50,abrupt,ANCHOR,m,,,,,,0.372083333,-0.346302083,0,0,0,,0,87,87,186,1,,
,,,,,,,,,,,,,,,,,,5ea1e178ff3ee50d69b46324,2020-08-10_16h02.15.234,lexical_decision_task_MP,2020.1.3,MacIntel,60,m,1,0.53919,,,,,,,,0.53919,1,,,,,,93,WORD,"ID",33,public,PUBLIC,m,,,,,,0.372083333,-0.346302083,0,0,0,,0,88,88,32,1,,
,,,,,,,,,,,,,,,,,,5ea1e178ff3ee50d69b46324,2020-08-10_16h02.15.234,lexical_decision_task_MP,2020.1.3,MacIntel,60,m,1,0.488815,,,,,,,,0.488815,1,,,,,,238,WORD,UN,33,behalf,FLOWER,m,,,,,,0.372083333,-0.346302083,0,0,0,,0,89,89,177,1,,
,,,,,,,,,,,,,,,,,,5ea1e178ff3ee50d69b46324,2020-08-10_16h02.15.234,lexical_decision_task_MP,2020.1.3,MacIntel,60,m,1,0.505885,,,,,,,,0.505885,1,,,,,,97,WORD,"ID",33,client,CLIENT,m,,,,,,0.372083333,-0.346302083,0,0,0,,0,90,90,36,1,,
,,,,,,,,,,,,,,,,,,5ea1e178ff3ee50d69b46324,2020-08-10_16h02.15.234,lexical_decision_task_MP,2020.1.3,MacIntel,60,m,1,0.349395,,,,,,,,0.349395,1,,,,,,102,WORD,"ID",33,direct,DIRECT,m,,,,,,0.372083333,-0.346302083,0,0,0,,0,91,91,41,1,,
,,,,,,,,,,,,,,,,,,5ea1e178ff3ee50d69b46324,2020-08-10_16h02.15.234,lexical_decision_task_MP,2020.1.3,MacIntel,60,z,1,0.599465,,,,,,,,0.599465,1,,,,,,434,NW,UN,33,impurb,PITROM,z,,,,,,0.372083333,-0.346302083,0,0,0,,0,92,92,373,1,,
,,,,,,,,,,,,,,,,,,5ea1e178ff3ee50d69b46324,2020-08-10_16h02.15.234,lexical_decision_task_MP,2020.1.3,MacIntel,60,z,1,0.5687,,,,,,,,0.5687,1,,,,,,379,NW,"ID",50,auting,AUTING,z,,,,,,0.372083333,-0.346302083,0,0,0,,0,93,93,318,1,,
,,,,,,,,,,,,,,,,,,5ea1e178ff3ee50d69b46324,2020-08-10_16h02.15.234,lexical_decision_task_MP,2020.1.3,MacIntel,60,m,0,1.19828,,,,,,,,1.19828,0,,,,,,468,NW,UN,33,padifs,WICTOR,z,,,,,,0.372083333,-0.346302083,0,0,0,,0,94,94,407,1,,
,,,,,,,,,,,,,,,,,,5ea1e178ff3ee50d69b46324,2020-08-10_16h02.15.234,lexical_decision_task_MP,2020.1.3,MacIntel,60,z,1,0.799215,,,,,,,,0.799215,1,,,,,,372,NW,"ID",50,ramily,RAMILY,z,,,,,,0.372083333,-0.346302083,0,0,0,,0,95,95,311,1,,
,,,,,,,,,,,,,,,,,,5ea1e178ff3ee50d69b46324,2020-08-10_16h02.15.234,lexical_decision_task_MP,2020.1.3,MacIntel,60,m,1,0.56732,,,,,,,,0.56732,1,,,,,,121,WORD,"ID",50,thrive,THRIVE,m,,,,,,0.372083333,-0.346302083,0,0,0,,0,96,96,60,1,,
,,,,,,,,,,,,,,,,,,5ea1e178ff3ee50d69b46324,2020-08-10_16h02.15.234,lexical_decision_task_MP,2020.1.3,MacIntel,60,m,1,0.58449,,,,,,,,0.58449,1,,,,,,4,WORD,UN,50,plunge,TRENCH,m,,,,,,0.372083333,-0.346302083,0,0,0,,0,97,97,183,1,,
,,,,,,,,,,,,,,,,,,5ea1e178ff3ee50d69b46324,2020-08-10_16h02.15.234,lexical_decision_task_MP,2020.1.3,MacIntel,60,m,1,0.49923,,,,,,,,0.49923,1,,,,,,84,WORD,"ID",33,mortal,MORTAL,m,,,,,,0.372083333,-0.346302083,0,0,0,,0,98,98,23,1,,
,,,,,,,,,,,,,,,,,,5ea1e178ff3ee50d69b46324,2020-08-10_16h02.15.234,lexical_decision_task_MP,2020.1.3,MacIntel,60,z,1,0.7042,,,,,,,,0.7042,1,,,,,,460,NW,UN,33,justre,MINGAR,z,,,,,,0.372083333,-0.346302083,0,0,0,,0,99,99,399,1,,
,,,,,,,,,,,,,,,,,,5ea1e178ff3ee50d69b46324,2020-08-10_16h02.15.234,lexical_decision_task_MP,2020.1.3,MacIntel,60,m,0,1.134005,,,,,,,,1.134005,0,,,,,,377,NW,"ID",50,injore,INJORE,z,,,,,,0.372083333,-0.346302083,0,0,0,,0,100,100,316,1,,
,,,,,,,,,,,,,,,,,,5ea1e178ff3ee50d69b46324,2020-08-10_16h02.15.234,lexical_decision_task_MP,2020.1.3,MacIntel,60,z,1,1.13415,,,,,,,,1.13415,1,,,,,,299,NW,UN,50,yarion,STURCH,z,,,,,,0.372083333,-0.346302083,0,0,0,,0,101,101,478,1,,
,,,,,,,,,,,,,,,,,,5ea1e178ff3ee50d69b46324,2020-08-10_16h02.15.234,lexical_decision_task_MP,2020.1.3,MacIntel,60,z,1,0.588845,,,,,,,,0.588845,1,,,,,,254,NW,UN,50,apight,VAROSH,z,,,,,,0.372083333,-0.346302083,0,0,0,,0,102,102,433,1,,
,,,,,,,,,,,,,,,,,,5ea1e178ff3ee50d69b46324,2020-08-10_16h02.15.234,lexical_decision_task_MP,2020.1.3,MacIntel,60,m,0,0.616715,,,,,,,,0.616715,0,,,,,,284,NW,UN,50,prudge,SHAPLE,z,,,,,,0.372083333,-0.346302083,0,0,0,,0,103,103,463,1,,
,,,,,,,,,,,,,,,,,,5ea1e178ff3ee50d69b46324,2020-08-10_16h02.15.234,lexical_decision_task_MP,2020.1.3,MacIntel,60,m,1,0.68426,,,,,,,,0.68426,1,,,,,,227,WORD,UN,33,master,SELDOM,m,,,,,,0.372083333,-0.346302083,0,0,0,,0,104,104,166,1,,
,,,,,,,,,,,,,,,,,,5ea1e178ff3ee50d69b46324,2020-08-10_16h02.15.234,lexical_decision_task_MP,2020.1.3,MacIntel,60,m,1,0.499725,,,,,,,,0.499725,1,,,,,,108,WORD,"ID",33,reckon,RECKON,m,,,,,,0.372083333,-0.346302083,0,0,0,,0,105,105,47,1,,
,,,,,,,,,,,,,,,,,,5ea1e178ff3ee50d69b46324,2020-08-10_16h02.15.234,lexical_decision_task_MP,2020.1.3,MacIntel,60,m,1,0.58722,,,,,,,,0.58722,1,,,,,,139,WORD,"ID",50,debris,DEBRIS,m,,,,,,0.372083333,-0.346302083,0,0,0,,0,106,106,78,1,,
,,,,,,,,,,,,,,,,,,5ea1e178ff3ee50d69b46324,2020-08-10_16h02.15.234,lexical_decision_task_MP,2020.1.3,MacIntel,60,z,1,0.73874,,,,,,,,0.73874,1,,,,,,438,NW,UN,33,limpor,BAITCH,z,,,,,,0.372083333,-0.346302083,0,0,0,,0,107,107,377,1,,
,,,,,,,,,,,,,,,,,,5ea1e178ff3ee50d69b46324,2020-08-10_16h02.15.234,lexical_decision_task_MP,2020.1.3,MacIntel,60,z,1,1.32114,,,,,,,,1.32114,1,,,,,,342,NW,"ID",33,randow,RANDOW,z,,,,,,0.372083333,-0.346302083,0,0,0,,0,108,108,281,1,,
,,,,,,,,,,,,,,,,,,5ea1e178ff3ee50d69b46324,2020-08-10_16h02.15.234,lexical_decision_task_MP,2020.1.3,MacIntel,60,z,1,0.65126,,,,,,,,0.65126,1,,,,,,300,NW,UN,50,smenco,YARION,z,,,,,,0.372083333,-0.346302083,0,0,0,,0,109,109,479,1,,
,,,,,,,,,,,,,,,,,,5ea1e178ff3ee50d69b46324,2020-08-10_16h02.15.234,lexical_decision_task_MP,2020.1.3,MacIntel,60,m,1,0.88538,,,,,,,,0.88538,1,,,,,,158,WORD,"ID",50,island,ISLAND,m,,,,,,0.372083333,-0.346302083,0,0,0,,0,110,110,97,1,,
,,,,,,,,,,,,,,,,,,5ea1e178ff3ee50d69b46324,2020-08-10_16h02.15.234,lexical_decision_task_MP,2020.1.3,MacIntel,60,z,1,0.666185,,,,,,,,0.666185,1,,,,,,298,NW,UN,50,sturch,PIERGY,z,,,,,,0.372083333,-0.346302083,0,0,0,,0,111,111,477,1,,
,,,,,,,,,,,,,,,,,,5ea1e178ff3ee50d69b46324,2020-08-10_16h02.15.234,lexical_decision_task_MP,2020.1.3,MacIntel,60,z,0,0.602615,,,,,,,,0.602615,0,,,,,,164,WORD,"ID",50,market,MARKET,m,,,,,,0.372083333,-0.346302083,0,0,0,,0,112,112,103,1,,
,,,,,,,,,,,,,,,,,,5ea1e178ff3ee50d69b46324,2020-08-10_16h02.15.234,lexical_decision_task_MP,2020.1.3,MacIntel,60,z,0,0.60208,,,,,,,,0.60208,0,,,,,,57,WORD,UN,50,danger,CHANGE,m,,,,,,0.372083333,-0.346302083,0,0,0,,0,113,113,236,1,,
,,,,,,,,,,,,,,,,,,5ea1e178ff3ee50d69b46324,2020-08-10_16h02.15.234,lexical_decision_task_MP,2020.1.3,MacIntel,60,z,1,1.13556,,,,,,,,1.13556,1,,,,,,289,NW,UN,50,splino,STARBY,z,,,,,,0.372083333,-0.346302083,0,0,0,,0,114,114,468,1,,
,,,,,,,,,,,,,,,,,,5ea1e178ff3ee50d69b46324,2020-08-10_16h02.15.234,lexical_decision_task_MP,2020.1.3,MacIntel,60,z,1,0.732025,,,,,,,,0.732025,1,,,,,,338,NW,"ID",33,wreash,WREASH,z,,,,,,0.372083333,-0.346302083,0,0,0,,0,115,115,277,1,,
,,,,,,,,,,,,,,,,,,5ea1e178ff3ee50d69b46324,2020-08-10_16h02.15.234,lexical_decision_task_MP,2020.1.3,MacIntel,60,z,1,0.601465,,,,,,,,0.601465,1,,,,,,257,NW,UN,50,poluth,VENIOD,z,,,,,,0.372083333,-0.346302083,0,0,0,,0,116,116,436,1,,
,,,,,,,,,,,,,,,,,,5ea1e178ff3ee50d69b46324,2020-08-10_16h02.15.234,lexical_decision_task_MP,2020.1.3,MacIntel,60,m,1,0.55151,,,,,,,,0.55151,1,,,,,,74,WORD,"ID",33,plaque,PLAQUE,m,,,,,,0.372083333,-0.346302083,0,0,0,,0,117,117,13,1,,
,,,,,,,,,,,,,,,,,,5ea1e178ff3ee50d69b46324,2020-08-10_16h02.15.234,lexical_decision_task_MP,2020.1.3,MacIntel,60,m,1,0.63456,,,,,,,,0.63456,1,,,,,,10,WORD,UN,50,cruise,ETHNIC,m,,,,,,0.372083333,-0.346302083,0,0,0,,0,118,118,189,1,,
,,,,,,,,,,,,,,,,,,5ea1e178ff3ee50d69b46324,2020-08-10_16h02.15.234,lexical_decision_task_MP,2020.1.3,MacIntel,60,m,1,0.682375,,,,,,,,0.682375,1,,,,,,89,WORD,"ID",33,permit,PERMIT,m,,,,,,0.372083333,-0.346302083,0,0,0,,0,119,119,28,1,,
,,,,,,,,,,,,,,,,,,5ea1e178ff3ee50d69b46324,2020-08-10_16h02.15.234,lexical_decision_task_MP,2020.1.3,MacIntel,60,z,1,0.616585,,,,,,,,0.616585,1,,,,,,283,NW,UN,50,shaple,VERALF,z,,,,,,0.372083333,-0.346302083,0,0,0,space,0,120,120,462,1,11.00371,
,,,,,,,,,,,,,,,,,,5ea1e178ff3ee50d69b46324,2020-08-10_16h02.15.234,lexical_decision_task_MP,2020.1.3,MacIntel,60,z,1,0.705,,,,,,,,0.705,1,,,,,,361,NW,"ID",50,pauche,PAUCHE,z,,,,,,0.372083333,-0.346302083,0,0,0,,0,121,121,300,1,,
,,,,,,,,,,,,,,,,,,5ea1e178ff3ee50d69b46324,2020-08-10_16h02.15.234,lexical_decision_task_MP,2020.1.3,MacIntel,60,m,1,0.53382,,,,,,,,0.53382,1,,,,,,24,WORD,UN,50,domain,PRAISE,m,,,,,,0.372083333,-0.346302083,0,0,0,,0,122,122,203,1,,
,,,,,,,,,,,,,,,,,,5ea1e178ff3ee50d69b46324,2020-08-10_16h02.15.234,lexical_decision_task_MP,2020.1.3,MacIntel,60,z,0,0.585925,,,,,,,,0.585925,0,,,,,,16,WORD,UN,50,charge,FAUCET,m,,,,,,0.372083333,-0.346302083,0,0,0,,0,123,123,195,1,,
,,,,,,,,,,,,,,,,,,5ea1e178ff3ee50d69b46324,2020-08-10_16h02.15.234,lexical_decision_task_MP,2020.1.3,MacIntel,60,z,1,0.63445,,,,,,,,0.63445,1,,,,,,241,NW,UN,50,unwert,SMENCO,z,,,,,,0.372083333,-0.346302083,0,0,0,,0,124,124,420,1,,
,,,,,,,,,,,,,,,,,,5ea1e178ff3ee50d69b46324,2020-08-10_16h02.15.234,lexical_decision_task_MP,2020.1.3,MacIntel,60,z,1,0.617065,,,,,,,,0.617065,1,,,,,,243,NW,UN,50,eatric,MUSIED,z,,,,,,0.372083333,-0.346302083,0,0,0,,0,125,125,422,1,,
,,,,,,,,,,,,,,,,,,5ea1e178ff3ee50d69b46324,2020-08-10_16h02.15.234,lexical_decision_task_MP,2020.1.3,MacIntel,60,z,1,0.53093,,,,,,,,0.53093,1,,,,,,309,NW,"ID",33,amiloy,AMILOY,z,,,,,,0.372083333,-0.346302083,0,0,0,,0,126,126,248,1,,
,,,,,,,,,,,,,,,,,,5ea1e178ff3ee50d69b46324,2020-08-10_16h02.15.234,lexical_decision_task_MP,2020.1.3,MacIntel,60,z,1,0.502805,,,,,,,,0.502805,1,,,,,,248,NW,UN,50,batrol,STROLE,z,,,,,,0.372083333,-0.346302083,0,0,0,,0,127,127,427,1,,
,,,,,,,,,,,,,,,,,,5ea1e178ff3ee50d69b46324,2020-08-10_16h02.15.234,lexical_decision_task_MP,2020.1.3,MacIntel,60,m,1,0.574035,,,,,,,,0.574035,1,,,,,,95,WORD,"ID",33,thread,THREAD,m,,,,,,0.372083333,-0.346302083,0,0,0,,0,128,128,34,1,,
,,,,,,,,,,,,,,,,,,5ea1e178ff3ee50d69b46324,2020-08-10_16h02.15.234,lexical_decision_task_MP,2020.1.3,MacIntel,60,z,1,0.899845,,,,,,,,0.899845,1,,,,,,322,NW,"ID",33,slanch,SLANCH,z,,,,,,0.372083333,-0.346302083,0,0,0,,0,129,129,261,1,,
,,,,,,,,,,,,,,,,,,5ea1e178ff3ee50d69b46324,2020-08-10_16h02.15.234,lexical_decision_task_MP,2020.1.3,MacIntel,60,m,1,0.6352,,,,,,,,0.6352,1,,,,,,68,WORD,"ID",33,fumble,FUMBLE,m,,,,,,0.372083333,-0.346302083,0,0,0,,0,130,130,7,1,,
,,,,,,,,,,,,,,,,,,5ea1e178ff3ee50d69b46324,2020-08-10_16h02.15.234,lexical_decision_task_MP,2020.1.3,MacIntel,60,z,1,0.53489,,,,,,,,0.53489,1,,,,,,430,NW,UN,33,chrums,CAROEY,z,,,,,,0.372083333,-0.346302083,0,0,0,,0,131,131,369,1,,
,,,,,,,,,,,,,,,,,,5ea1e178ff3ee50d69b46324,2020-08-10_16h02.15.234,lexical_decision_task_MP,2020.1.3,MacIntel,60,m,0,0.63304,,,,,,,,0.63304,0,,,,,,285,NW,UN,50,reldon,PRUDGE,z,,,,,,0.372083333,-0.346302083,0,0,0,,0,132,132,464,1,,
,,,,,,,,,,,,,,,,,,5ea1e178ff3ee50d69b46324,2020-08-10_16h02.15.234,lexical_decision_task_MP,2020.1.3,MacIntel,60,m,1,0.534075,,,,,,,,0.534075,1,,,,,,11,WORD,UN,50,amount,CRUISE,m,,,,,,0.372083333,-0.346302083,0,0,0,,0,133,133,190,1,,
,,,,,,,,,,,,,,,,,,5ea1e178ff3ee50d69b46324,2020-08-10_16h02.15.234,lexical_decision_task_MP,2020.1.3,MacIntel,60,m,0,0.98717,,,,,,,,0.98717,0,,,,,,409,NW,"ID",50,elopia,ELOPIA,z,,,,,,0.372083333,-0.346302083,0,0,0,,0,134,134,348,1,,
,,,,,,,,,,,,,,,,,,5ea1e178ff3ee50d69b46324,2020-08-10_16h02.15.234,lexical_decision_task_MP,2020.1.3,MacIntel,60,z,1,0.635785,,,,,,,,0.635785,1,,,,,,408,NW,"ID",50,hurnia,HURNIA,z,,,,,,0.372083333,-0.346302083,0,0,0,,0,135,135,347,1,,
,,,,,,,,,,,,,,,,,,5ea1e178ff3ee50d69b46324,2020-08-10_16h02.15.234,lexical_decision_task_MP,2020.1.3,MacIntel,60,z,1,1.264715,,,,,,,,1.264715,1,,,,,,281,NW,UN,50,porlex,MELATY,z,,,,,,0.372083333,-0.346302083,0,0,0,,0,136,136,460,1,,
,,,,,,,,,,,,,,,,,,5ea1e178ff3ee50d69b46324,2020-08-10_16h02.15.234,lexical_decision_task_MP,2020.1.3,MacIntel,60,m,1,0.531705,,,,,,,,0.531705,1,,,,,,170,WORD,"ID",50,pounce,POUNCE,m,,,,,,0.372083333,-0.346302083,0,0,0,,0,137,137,109,1,,
,,,,,,,,,,,,,,,,,,5ea1e178ff3ee50d69b46324,2020-08-10_16h02.15.234,lexical_decision_task_MP,2020.1.3,MacIntel,60,m,1,0.635255,,,,,,,,0.635255,1,,,,,,86,WORD,"ID",33,rodent,RODENT,m,,,,,,0.372083333,-0.346302083,0,0,0,,0,138,138,25,1,,
,,,,,,,,,,,,,,,,,,5ea1e178ff3ee50d69b46324,2020-08-10_16h02.15.234,lexical_decision_task_MP,2020.1.3,MacIntel,60,z,1,0.58384,,,,,,,,0.58384,1,,,,,,446,NW,UN,33,gircue,RUNAMO,z,,,,,,0.372083333,-0.346302083,0,0,0,,0,139,139,385,1,,
,,,,,,,,,,,,,,,,,,5ea1e178ff3ee50d69b46324,2020-08-10_16h02.15.234,lexical_decision_task_MP,2020.1.3,MacIntel,60,m,1,0.548455,,,,,,,,0.548455,1,,,,,,94,WORD,"ID",33,travel,TRAVEL,m,,,,,,0.372083333,-0.346302083,0,0,0,,0,140,140,33,1,,
,,,,,,,,,,,,,,,,,,5ea1e178ff3ee50d69b46324,2020-08-10_16h02.15.234,lexical_decision_task_MP,2020.1.3,MacIntel,60,z,1,0.831755,,,,,,,,0.831755,1,,,,,,252,NW,UN,50,resait,STAPOD,z,,,,,,0.372083333,-0.346302083,0,0,0,,0,141,141,431,1,,
,,,,,,,,,,,,,,,,,,5ea1e178ff3ee50d69b46324,2020-08-10_16h02.15.234,lexical_decision_task_MP,2020.1.3,MacIntel,60,m,1,0.515955,,,,,,,,0.515955,1,,,,,,172,WORD,"ID",50,patrol,PATROL,m,,,,,,0.372083333,-0.346302083,0,0,0,,0,142,142,111,1,,
,,,,,,,,,,,,,,,,,,5ea1e178ff3ee50d69b46324,2020-08-10_16h02.15.234,lexical_decision_task_MP,2020.1.3,MacIntel,60,z,1,1.36537,,,,,,,,1.36537,1,,,,,,376,NW,"ID",50,iguare,IGUARE,z,,,,,,0.372083333,-0.346302083,0,0,0,,0,143,143,315,1,,
,,,,,,,,,,,,,,,,,,5ea1e178ff3ee50d69b46324,2020-08-10_16h02.15.234,lexical_decision_task_MP,2020.1.3,MacIntel,60,z,1,1.216875,,,,,,,,1.216875,1,,,,,,353,NW,"ID",33,clurey,CLUREY,z,,,,,,0.372083333,-0.346302083,0,0,0,,0,144,144,292,1,,
,,,,,,,,,,,,,,,,,,5ea1e178ff3ee50d69b46324,2020-08-10_16h02.15.234,lexical_decision_task_MP,2020.1.3,MacIntel,60,z,1,0.68386,,,,,,,,0.68386,1,,,,,,266,NW,UN,50,pasink,VARMIT,z,,,,,,0.372083333,-0.346302083,0,0,0,,0,145,145,445,1,,
,,,,,,,,,,,,,,,,,,5ea1e178ff3ee50d69b46324,2020-08-10_16h02.15.234,lexical_decision_task_MP,2020.1.3,MacIntel,60,m,1,0.50416,,,,,,,,0.50416,1,,,,,,116,WORD,"ID",33,tumble,TUMBLE,m,,,,,,0.372083333,-0.346302083,0,0,0,,0,146,146,55,1,,
,,,,,,,,,,,,,,,,,,5ea1e178ff3ee50d69b46324,2020-08-10_16h02.15.234,lexical_decision_task_MP,2020.1.3,MacIntel,60,z,1,0.64045,,,,,,,,0.64045,1,,,,,,407,NW,"ID",50,suiver,SUIVER,z,,,,,,0.372083333,-0.346302083,0,0,0,,0,147,147,346,1,,
,,,,,,,,,,,,,,,,,,5ea1e178ff3ee50d69b46324,2020-08-10_16h02.15.234,lexical_decision_task_MP,2020.1.3,MacIntel,60,m,1,0.88624,,,,,,,,0.88624,1,,,,,,19,WORD,UN,50,breast,PATRON,m,,,,,,0.372083333,-0.346302083,0,0,0,,0,148,148,198,1,,
,,,,,,,,,,,,,,,,,,5ea1e178ff3ee50d69b46324,2020-08-10_16h02.15.234,lexical_decision_task_MP,2020.1.3,MacIntel,60,m,1,0.586355,,,,,,,,0.586355,1,,,,,,60,WORD,UN,50,fright,PENCIL,m,,,,,,0.372083333,-0.346302083,0,0,0,,0,149,149,239,1,,
,,,,,,,,,,,,,,,,,,5ea1e178ff3ee50d69b46324,2020-08-10_16h02.15.234,lexical_decision_task_MP,2020.1.3,MacIntel,60,z,1,0.65003,,,,,,,,0.65003,1,,,,,,318,NW,"ID",33,reagly,REAGLY,z,,,,,,0.372083333,-0.346302083,0,0,0,,0,150,150,257,1,,
,,,,,,,,,,,,,,,,,,5ea1e178ff3ee50d69b46324,2020-08-10_16h02.15.234,lexical_decision_task_MP,2020.1.3,MacIntel,60,m,1,0.653095,,,,,,,,0.653095,1,,,,,,30,WORD,UN,50,weapon,ORIENT,m,,,,,,0.372083333,-0.346302083,0,0,0,,0,151,151,209,1,,
,,,,,,,,,,,,,,,,,,5ea1e178ff3ee50d69b46324,2020-08-10_16h02.15.234,lexical_decision_task_MP,2020.1.3,MacIntel,60,m,0,0.850965,,,,,,,,0.850965,0,,,,,,304,NW,"ID",33,cludie,CLUDIE,z,,,,,,0.372083333,-0.346302083,0,0,0,,0,152,152,243,1,,
,,,,,,,,,,,,,,,,,,5ea1e178ff3ee50d69b46324,2020-08-10_16h02.15.234,lexical_decision_task_MP,2020.1.3,MacIntel,60,z,0,0.5553,,,,,,,,0.5553,0,,,,,,157,WORD,"ID",50,dragon,DRAGON,m,,,,,,0.372083333,-0.346302083,0,0,0,,0,153,153,96,1,,
,,,,,,,,,,,,,,,,,,5ea1e178ff3ee50d69b46324,2020-08-10_16h02.15.234,lexical_decision_task_MP,2020.1.3,MacIntel,60,z,1,0.91557,,,,,,,,0.91557,1,,,,,,328,NW,"ID",33,broake,BROAKE,z,,,,,,0.372083333,-0.346302083,0,0,0,,0,154,154,267,1,,
,,,,,,,,,,,,,,,,,,5ea1e178ff3ee50d69b46324,2020-08-10_16h02.15.234,lexical_decision_task_MP,2020.1.3,MacIntel,60,m,1,0.55075,,,,,,,,0.55075,1,,,,,,56,WORD,UN,50,change,AMBUSH,m,,,,,,0.372083333,-0.346302083,0,0,0,,0,155,155,235,1,,
,,,,,,,,,,,,,,,,,,5ea1e178ff3ee50d69b46324,2020-08-10_16h02.15.234,lexical_decision_task_MP,2020.1.3,MacIntel,60,m,1,0.61777,,,,,,,,0.61777,1,,,,,,107,WORD,"ID",33,slogan,SLOGAN,m,,,,,,0.372083333,-0.346302083,0,0,0,,0,156,156,46,1,,
,,,,,,,,,,,,,,,,,,5ea1e178ff3ee50d69b46324,2020-08-10_16h02.15.234,lexical_decision_task_MP,2020.1.3,MacIntel,60,m,1,0.46768,,,,,,,,0.46768,1,,,,,,128,WORD,"ID",50,senior,SENIOR,m,,,,,,0.372083333,-0.346302083,0,0,0,,0,157,157,67,1,,
,,,,,,,,,,,,,,,,,,5ea1e178ff3ee50d69b46324,2020-08-10_16h02.15.234,lexical_decision_task_MP,2020.1.3,MacIntel,60,m,1,0.52294,,,,,,,,0.52294,1,,,,,,51,WORD,UN,50,impose,HUNGRY,m,,,,,,0.372083333,-0.346302083,0,0,0,,0,158,158,230,1,,
,,,,,,,,,,,,,,,,,,5ea1e178ff3ee50d69b46324,2020-08-10_16h02.15.234,lexical_decision_task_MP,2020.1.3,MacIntel,60,z,1,0.97283,,,,,,,,0.97283,1,,,,,,399,NW,"ID",50,fouret,FOURET,z,,,,,,0.372083333,-0.346302083,0,0,0,,0,159,159,338,1,,
,,,,,,,,,,,,,,,,,,5ea1e178ff3ee50d69b46324,2020-08-10_16h02.15.234,lexical_decision_task_MP,2020.1.3,MacIntel,60,m,1,0.999645,,,,,,,,0.999645,1,,,,,,58,WORD,UN,50,splint,FOSTER,m,,,,,,0.372083333,-0.346302083,0,0,0,,0,160,160,237,1,,
,,,,,,,,,,,,,,,,,,5ea1e178ff3ee50d69b46324,2020-08-10_16h02.15.234,lexical_decision_task_MP,2020.1.3,MacIntel,60,m,1,0.55057,,,,,,,,0.55057,1,,,,,,98,WORD,"ID",33,belong,BELONG,m,,,,,,0.372083333,-0.346302083,0,0,0,,0,161,161,37,1,,
,,,,,,,,,,,,,,,,,,5ea1e178ff3ee50d69b46324,2020-08-10_16h02.15.234,lexical_decision_task_MP,2020.1.3,MacIntel,60,m,1,0.50128,,,,,,,,0.50128,1,,,,,,75,WORD,"ID",33,trophy,TROPHY,m,,,,,,0.372083333,-0.346302083,0,0,0,,0,162,162,14,1,,
,,,,,,,,,,,,,,,,,,5ea1e178ff3ee50d69b46324,2020-08-10_16h02.15.234,lexical_decision_task_MP,2020.1.3,MacIntel,60,m,1,0.43606,,,,,,,,0.43606,1,,,,,,146,WORD,"ID",50,couple,COUPLE,m,,,,,,0.372083333,-0.346302083,0,0,0,,0,163,163,85,1,,
,,,,,,,,,,,,,,,,,,5ea1e178ff3ee50d69b46324,2020-08-10_16h02.15.234,lexical_decision_task_MP,2020.1.3,MacIntel,60,m,1,0.467875,,,,,,,,0.467875,1,,,,,,181,WORD,UN,33,winter,GLANCE,m,,,,,,0.372083333,-0.346302083,0,0,0,,0,164,164,120,1,,
,,,,,,,,,,,,,,,,,,5ea1e178ff3ee50d69b46324,2020-08-10_16h02.15.234,lexical_decision_task_MP,2020.1.3,MacIntel,60,m,0,0.403835,,,,,,,,0.403835,0,,,,,,314,NW,"ID",33,sprine,SPRINE,z,,,,,,0.372083333,-0.346302083,0,0,0,,0,165,165,253,1,,
,,,,,,,,,,,,,,,,,,5ea1e178ff3ee50d69b46324,2020-08-10_16h02.15.234,lexical_decision_task_MP,2020.1.3,MacIntel,60,m,1,0.8343,,,,,,,,0.8343,1,,,,,,73,WORD,"ID",33,source,SOURCE,m,,,,,,0.372083333,-0.346302083,0,0,0,,0,166,166,12,1,,
,,,,,,,,,,,,,,,,,,5ea1e178ff3ee50d69b46324,2020-08-10_16h02.15.234,lexical_decision_task_MP,2020.1.3,MacIntel,60,m,1,0.46613,,,,,,,,0.46613,1,,,,,,153,WORD,"ID",50,behold,BEHOLD,m,,,,,,0.372083333,-0.346302083,0,0,0,,0,167,167,92,1,,
,,,,,,,,,,,,,,,,,,5ea1e178ff3ee50d69b46324,2020-08-10_16h02.15.234,lexical_decision_task_MP,2020.1.3,MacIntel,60,m,0,0.437785,,,,,,,,0.437785,0,,,,,,247,NW,UN,50,strole,BLARGE,z,,,,,,0.372083333,-0.346302083,0,0,0,,0,168,168,426,1,,
,,,,,,,,,,,,,,,,,,5ea1e178ff3ee50d69b46324,2020-08-10_16h02.15.234,lexical_decision_task_MP,2020.1.3,MacIntel,60,m,1,0.59857,,,,,,,,0.59857,1,,,,,,53,WORD,UN,50,ramble,POLICE,m,,,,,,0.372083333,-0.346302083,0,0,0,,0,169,169,232,1,,
,,,,,,,,,,,,,,,,,,5ea1e178ff3ee50d69b46324,2020-08-10_16h02.15.234,lexical_decision_task_MP,2020.1.3,MacIntel,60,m,0,0.97217,,,,,,,,0.97217,0,,,,,,388,NW,"ID",50,cragin,CRAGIN,z,,,,,,0.372083333,-0.346302083,0,0,0,,0,170,170,327,1,,
,,,,,,,,,,,,,,,,,,5ea1e178ff3ee50d69b46324,2020-08-10_16h02.15.234,lexical_decision_task_MP,2020.1.3,MacIntel,60,z,1,1.2998,,,,,,,,1.2998,1,,,,,,413,NW,"ID",50,equats,EQUATS,z,,,,,,0.372083333,-0.346302083,0,0,0,,0,171,171,352,1,,
,,,,,,,,,,,,,,,,,,5ea1e178ff3ee50d69b46324,2020-08-10_16h02.15.234,lexical_decision_task_MP,2020.1.3,MacIntel,60,m,1,0.53719,,,,,,,,0.53719,1,,,,,,208,WORD,UN,33,search,HOCKEY,m,,,,,,0.372083333,-0.346302083,0,0,0,,0,172,172,147,1,,
,,,,,,,,,,,,,,,,,,5ea1e178ff3ee50d69b46324,2020-08-10_16h02.15.234,lexical_decision_task_MP,2020.1.3,MacIntel,60,m,1,0.53952,,,,,,,,0.53952,1,,,,,,132,WORD,"ID",50,strong,STRONG,m,,,,,,0.372083333,-0.346302083,0,0,0,,0,173,173,71,1,,
,,,,,,,,,,,,,,,,,,5ea1e178ff3ee50d69b46324,2020-08-10_16h02.15.234,lexical_decision_task_MP,2020.1.3,MacIntel,60,z,1,0.555,,,,,,,,0.555,1,,,,,,396,NW,"ID",50,flengy,FLENGY,z,,,,,,0.372083333,-0.346302083,0,0,0,,0,174,174,335,1,,
,,,,,,,,,,,,,,,,,,5ea1e178ff3ee50d69b46324,2020-08-10_16h02.15.234,lexical_decision_task_MP,2020.1.3,MacIntel,60,m,1,0.583405,,,,,,,,0.583405,1,,,,,,213,WORD,UN,33,intake,SQUEAL,m,,,,,,0.372083333,-0.346302083,0,0,0,,0,175,175,152,1,,
,,,,,,,,,,,,,,,,,,5ea1e178ff3ee50d69b46324,2020-08-10_16h02.15.234,lexical_decision_task_MP,2020.1.3,MacIntel,60,m,1,0.489745,,,,,,,,0.489745,1,,,,,,124,WORD,"ID",50,blouse,BLOUSE,m,,,,,,0.372083333,-0.346302083,0,0,0,,0,176,176,63,1,,
,,,,,,,,,,,,,,,,,,5ea1e178ff3ee50d69b46324,2020-08-10_16h02.15.234,lexical_decision_task_MP,2020.1.3,MacIntel,60,z,1,0.700775,,,,,,,,0.700775,1,,,,,,443,NW,UN,33,jaunce,DORSEX,z,,,,,,0.372083333,-0.346302083,0,0,0,,0,177,177,382,1,,
,,,,,,,,,,,,,,,,,,5ea1e178ff3ee50d69b46324,2020-08-10_16h02.15.234,lexical_decision_task_MP,2020.1.3,MacIntel,60,m,1,0.55391,,,,,,,,0.55391,1,,,,,,41,WORD,UN,50,chapel,SPRING,m,,,,,,0.372083333,-0.346302083,0,0,0,,0,178,178,220,1,,
,,,,,,,,,,,,,,,,,,5ea1e178ff3ee50d69b46324,2020-08-10_16h02.15.234,lexical_decision_task_MP,2020.1.3,MacIntel,60,z,1,0.94796,,,,,,,,0.94796,1,,,,,,422,NW,UN,33,streld,ALCOUD,z,,,,,,0.372083333,-0.346302083,0,0,0,,0,179,179,361,1,,
,,,,,,,,,,,,,,,,,,5ea1e178ff3ee50d69b46324,2020-08-10_16h02.15.234,lexical_decision_task_MP,2020.1.3,MacIntel,60,m,1,1.10234,,,,,,,,1.10234,1,,,,,,70,WORD,"ID",33,square,SQUARE,m,,,,,,0.372083333,-0.346302083,0,0,0,,0,180,180,9,1,,
,,,,,,,,,,,,,,,,,,5ea1e178ff3ee50d69b46324,2020-08-10_16h02.15.234,lexical_decision_task_MP,2020.1.3,MacIntel,60,m,1,0.648365,,,,,,,,0.648365,1,,,,,,111,WORD,"ID",33,induce,INDUCE,m,,,,,,0.372083333,-0.346302083,0,0,0,,0,181,181,50,1,,
,,,,,,,,,,,,,,,,,,5ea1e178ff3ee50d69b46324,2020-08-10_16h02.15.234,lexical_decision_task_MP,2020.1.3,MacIntel,60,m,1,0.455735,,,,,,,,0.455735,1,,,,,,76,WORD,"ID",33,exotic,EXOTIC,m,,,,,,0.372083333,-0.346302083,0,0,0,,0,182,182,15,1,,
,,,,,,,,,,,,,,,,,,5ea1e178ff3ee50d69b46324,2020-08-10_16h02.15.234,lexical_decision_task_MP,2020.1.3,MacIntel,60,z,1,0.81854,,,,,,,,0.81854,1,,,,,,276,NW,UN,50,petain,YARMON,z,,,,,,0.372083333,-0.346302083,0,0,0,,0,183,183,455,1,,
,,,,,,,,,,,,,,,,,,5ea1e178ff3ee50d69b46324,2020-08-10_16h02.15.234,lexical_decision_task_MP,2020.1.3,MacIntel,60,m,1,0.818995,,,,,,,,0.818995,1,,,,,,211,WORD,UN,33,verify,INFECT,m,,,,,,0.372083333,-0.346302083,0,0,0,,0,184,184,150,1,,
,,,,,,,,,,,,,,,,,,5ea1e178ff3ee50d69b46324,2020-08-10_16h02.15.234,lexical_decision_task_MP,2020.1.3,MacIntel,60,z,1,0.67162,,,,,,,,0.67162,1,,,,,,371,NW,"ID",50,geiloy,GEILOY,z,,,,,,0.372083333,-0.346302083,0,0,0,,0,185,185,310,1,,
,,,,,,,,,,,,,,,,,,5ea1e178ff3ee50d69b46324,2020-08-10_16h02.15.234,lexical_decision_task_MP,2020.1.3,MacIntel,60,z,1,0.782645,,,,,,,,0.782645,1,,,,,,345,NW,"ID",33,absend,ABSEND,z,,,,,,0.372083333,-0.346302083,0,0,0,,0,186,186,284,1,,
,,,,,,,,,,,,,,,,,,5ea1e178ff3ee50d69b46324,2020-08-10_16h02.15.234,lexical_decision_task_MP,2020.1.3,MacIntel,60,z,1,0.555965,,,,,,,,0.555965,1,,,,,,463,NW,UN,33,chaite,KISPEL,z,,,,,,0.372083333,-0.346302083,0,0,0,,0,187,187,402,1,,
,,,,,,,,,,,,,,,,,,5ea1e178ff3ee50d69b46324,2020-08-10_16h02.15.234,lexical_decision_task_MP,2020.1.3,MacIntel,60,z,1,0.48535,,,,,,,,0.48535,1,,,,,,306,NW,"ID",33,sounge,SOUNGE,z,,,,,,0.372083333,-0.346302083,0,0,0,,0,188,188,245,1,,
,,,,,,,,,,,,,,,,,,5ea1e178ff3ee50d69b46324,2020-08-10_16h02.15.234,lexical_decision_task_MP,2020.1.3,MacIntel,60,z,1,0.47128,,,,,,,,0.47128,1,,,,,,363,NW,"ID",50,breali,BREALI,z,,,,,,0.372083333,-0.346302083,0,0,0,,0,189,189,302,1,,
,,,,,,,,,,,,,,,,,,5ea1e178ff3ee50d69b46324,2020-08-10_16h02.15.234,lexical_decision_task_MP,2020.1.3,MacIntel,60,m,1,0.7504,,,,,,,,0.7504,1,,,,,,188,WORD,UN,33,censor,SOCIAL,m,,,,,,0.372083333,-0.346302083,0,0,0,,0,190,190,127,1,,
,,,,,,,,,,,,,,,,,,5ea1e178ff3ee50d69b46324,2020-08-10_16h02.15.234,lexical_decision_task_MP,2020.1.3,MacIntel,60,m,0,1.367835,,,,,,,,1.367835,0,,,,,,412,NW,"ID",50,jiluer,JILUER,z,,,,,,0.372083333,-0.346302083,0,0,0,,0,191,191,351,1,,
,,,,,,,,,,,,,,,,,,5ea1e178ff3ee50d69b46324,2020-08-10_16h02.15.234,lexical_decision_task_MP,2020.1.3,MacIntel,60,m,1,0.701405,,,,,,,,0.701405,1,,,,,,52,WORD,UN,50,police,IMPOSE,m,,,,,,0.372083333,-0.346302083,0,0,0,,0,192,192,231,1,,
,,,,,,,,,,,,,,,,,,5ea1e178ff3ee50d69b46324,2020-08-10_16h02.15.234,lexical_decision_task_MP,2020.1.3,MacIntel,60,m,1,0.70135,,,,,,,,0.70135,1,,,,,,225,WORD,UN,33,casino,VULGAR,m,,,,,,0.372083333,-0.346302083,0,0,0,,0,193,193,164,1,,
,,,,,,,,,,,,,,,,,,5ea1e178ff3ee50d69b46324,2020-08-10_16h02.15.234,lexical_decision_task_MP,2020.1.3,MacIntel,60,m,1,0.566895,,,,,,,,0.566895,1,,,,,,36,WORD,UN,50,insult,VANISH,m,,,,,,0.372083333,-0.346302083,0,0,0,,0,194,194,215,1,,
,,,,,,,,,,,,,,,,,,5ea1e178ff3ee50d69b46324,2020-08-10_16h02.15.234,lexical_decision_task_MP,2020.1.3,MacIntel,60,m,1,1.033265,,,,,,,,1.033265,1,,,,,,220,WORD,UN,33,mascot,VOYAGE,m,,,,,,0.372083333,-0.346302083,0,0,0,,0,195,195,159,1,,
,,,,,,,,,,,,,,,,,,5ea1e178ff3ee50d69b46324,2020-08-10_16h02.15.234,lexical_decision_task_MP,2020.1.3,MacIntel,60,z,1,0.66167,,,,,,,,0.66167,1,,,,,,476,NW,UN,33,photie,JOSTED,z,,,,,,0.372083333,-0.346302083,0,0,0,,0,196,196,415,1,,
,,,,,,,,,,,,,,,,,,5ea1e178ff3ee50d69b46324,2020-08-10_16h02.15.234,lexical_decision_task_MP,2020.1.3,MacIntel,60,m,1,0.43452,,,,,,,,0.43452,1,,,,,,126,WORD,"ID",50,enough,ENOUGH,m,,,,,,0.372083333,-0.346302083,0,0,0,,0,197,197,65,1,,
,,,,,,,,,,,,,,,,,,5ea1e178ff3ee50d69b46324,2020-08-10_16h02.15.234,lexical_decision_task_MP,2020.1.3,MacIntel,60,m,1,0.367835,,,,,,,,0.367835,1,,,,,,130,WORD,"ID",50,stupid,STUPID,m,,,,,,0.372083333,-0.346302083,0,0,0,,0,198,198,69,1,,
,,,,,,,,,,,,,,,,,,5ea1e178ff3ee50d69b46324,2020-08-10_16h02.15.234,lexical_decision_task_MP,2020.1.3,MacIntel,60,m,0,0.432985,,,,,,,,0.432985,0,,,,,,442,NW,UN,33,dorsex,ABOUNE,z,,,,,,0.372083333,-0.346302083,0,0,0,,0,199,199,381,1,,
,,,,,,,,,,,,,,,,,,5ea1e178ff3ee50d69b46324,2020-08-10_16h02.15.234,lexical_decision_task_MP,2020.1.3,MacIntel,60,m,0,1.232835,,,,,,,,1.232835,0,,,,,,295,NW,UN,50,beinch,GLEATH,z,,,,,,0.372083333,-0.346302083,0,0,0,,0,200,200,474,1,,
,,,,,,,,,,,,,,,,,,5ea1e178ff3ee50d69b46324,2020-08-10_16h02.15.234,lexical_decision_task_MP,2020.1.3,MacIntel,60,m,1,0.617035,,,,,,,,0.617035,1,,,,,,46,WORD,UN,50,income,SINGLE,m,,,,,,0.372083333,-0.346302083,0,0,0,,0,201,201,225,1,,
,,,,,,,,,,,,,,,,,,5ea1e178ff3ee50d69b46324,2020-08-10_16h02.15.234,lexical_decision_task_MP,2020.1.3,MacIntel,60,m,1,0.466505,,,,,,,,0.466505,1,,,,,,187,WORD,UN,33,social,COURSE,m,,,,,,0.372083333,-0.346302083,0,0,0,,0,202,202,126,1,,
,,,,,,,,,,,,,,,,,,5ea1e178ff3ee50d69b46324,2020-08-10_16h02.15.234,lexical_decision_task_MP,2020.1.3,MacIntel,60,m,1,0.601665,,,,,,,,0.601665,1,,,,,,48,WORD,UN,50,survey,WALNUT,m,,,,,,0.372083333,-0.346302083,0,0,0,,0,203,203,227,1,,
,,,,,,,,,,,,,,,,,,5ea1e178ff3ee50d69b46324,2020-08-10_16h02.15.234,lexical_decision_task_MP,2020.1.3,MacIntel,60,m,1,0.43428,,,,,,,,0.43428,1,,,,,,71,WORD,"ID",33,garden,GARDEN,m,,,,,,0.372083333,-0.346302083,0,0,0,,0,204,204,10,1,,
,,,,,,,,,,,,,,,,,,5ea1e178ff3ee50d69b46324,2020-08-10_16h02.15.234,lexical_decision_task_MP,2020.1.3,MacIntel,60,z,1,1.817725,,,,,,,,1.817725,1,,,,,,263,NW,UN,50,vackel,DOLICA,z,,,,,,0.372083333,-0.346302083,0,0,0,,0,205,205,442,1,,
,,,,,,,,,,,,,,,,,,5ea1e178ff3ee50d69b46324,2020-08-10_16h02.15.234,lexical_decision_task_MP,2020.1.3,MacIntel,60,z,1,0.985995,,,,,,,,0.985995,1,,,,,,259,NW,UN,50,unject,SOUDAL,z,,,,,,0.372083333,-0.346302083,0,0,0,,0,206,206,438,1,,
,,,,,,,,,,,,,,,,,,5ea1e178ff3ee50d69b46324,2020-08-10_16h02.15.234,lexical_decision_task_MP,2020.1.3,MacIntel,60,m,1,0.852695,,,,,,,,0.852695,1,,,,,,18,WORD,UN,50,patron,HUMBLE,m,,,,,,0.372083333,-0.346302083,0,0,0,,0,207,207,197,1,,
,,,,,,,,,,,,,,,,,,5ea1e178ff3ee50d69b46324,2020-08-10_16h02.15.234,lexical_decision_task_MP,2020.1.3,MacIntel,60,z,1,0.96748,,,,,,,,0.96748,1,,,,,,465,NW,UN,33,bafent,WHIVEX,z,,,,,,0.372083333,-0.346302083,0,0,0,,0,208,208,404,1,,
,,,,,,,,,,,,,,,,,,5ea1e178ff3ee50d69b46324,2020-08-10_16h02.15.234,lexical_decision_task_MP,2020.1.3,MacIntel,60,m,1,0.52152,,,,,,,,0.52152,1,,,,,,133,WORD,"ID",50,chrome,CHROME,m,,,,,,0.372083333,-0.346302083,0,0,0,,0,209,209,72,1,,
,,,,,,,,,,,,,,,,,,5ea1e178ff3ee50d69b46324,2020-08-10_16h02.15.234,lexical_decision_task_MP,2020.1.3,MacIntel,60,z,1,0.748845,,,,,,,,0.748845,1,,,,,,441,NW,UN,33,aboune,RASTOE,z,,,,,,0.372083333,-0.346302083,0,0,0,,0,210,210,380,1,,
,,,,,,,,,,,,,,,,,,5ea1e178ff3ee50d69b46324,2020-08-10_16h02.15.234,lexical_decision_task_MP,2020.1.3,MacIntel,60,m,1,0.501545,,,,,,,,0.501545,1,,,,,,173,WORD,"ID",50,shower,SHOWER,m,,,,,,0.372083333,-0.346302083,0,0,0,,0,211,211,112,1,,
,,,,,,,,,,,,,,,,,,5ea1e178ff3ee50d69b46324,2020-08-10_16h02.15.234,lexical_decision_task_MP,2020.1.3,MacIntel,60,m,0,0.66527,,,,,,,,0.66527,0,,,,,,360,NW,"ID",33,desory,DESORY,z,,,,,,0.372083333,-0.346302083,0,0,0,,0,212,212,299,1,,
,,,,,,,,,,,,,,,,,,5ea1e178ff3ee50d69b46324,2020-08-10_16h02.15.234,lexical_decision_task_MP,2020.1.3,MacIntel,60,z,1,0.901995,,,,,,,,0.901995,1,,,,,,425,NW,UN,33,urivel,FRUDGE,z,,,,,,0.372083333,-0.346302083,0,0,0,,0,213,213,364,1,,
,,,,,,,,,,,,,,,,,,5ea1e178ff3ee50d69b46324,2020-08-10_16h02.15.234,lexical_decision_task_MP,2020.1.3,MacIntel,60,z,1,1.284145,,,,,,,,1.284145,1,,,,,,350,NW,"ID",33,nagurs,NAGURS,z,,,,,,0.372083333,-0.346302083,0,0,0,,0,214,214,289,1,,
,,,,,,,,,,,,,,,,,,5ea1e178ff3ee50d69b46324,2020-08-10_16h02.15.234,lexical_decision_task_MP,2020.1.3,MacIntel,60,z,1,0.56838,,,,,,,,0.56838,1,,,,,,316,NW,"ID",33,scregm,SCREGM,z,,,,,,0.372083333,-0.346302083,0,0,0,,0,215,215,255,1,,
,,,,,,,,,,,,,,,,,,5ea1e178ff3ee50d69b46324,2020-08-10_16h02.15.234,lexical_decision_task_MP,2020.1.3,MacIntel,60,z,1,1.402365,,,,,,,,1.402365,1,,,,,,401,NW,"ID",50,mustil,MUSTIL,z,,,,,,0.372083333,-0.346302083,0,0,0,,0,216,216,340,1,,
,,,,,,,,,,,,,,,,,,5ea1e178ff3ee50d69b46324,2020-08-10_16h02.15.234,lexical_decision_task_MP,2020.1.3,MacIntel,60,m,1,0.57106,,,,,,,,0.57106,1,,,,,,186,WORD,UN,33,course,PORTAL,m,,,,,,0.372083333,-0.346302083,0,0,0,,0,217,217,125,1,,
,,,,,,,,,,,,,,,,,,5ea1e178ff3ee50d69b46324,2020-08-10_16h02.15.234,lexical_decision_task_MP,2020.1.3,MacIntel,60,z,1,0.536605,,,,,,,,0.536605,1,,,,,,421,NW,UN,33,alcoud,KNISMA,z,,,,,,0.372083333,-0.346302083,0,0,0,,0,218,218,360,1,,
,,,,,,,,,,,,,,,,,,5ea1e178ff3ee50d69b46324,2020-08-10_16h02.15.234,lexical_decision_task_MP,2020.1.3,MacIntel,60,m,1,0.58442,,,,,,,,0.58442,1,,,,,,201,WORD,UN,33,factor,ADMIRE,m,,,,,,0.372083333,-0.346302083,0,0,0,,0,219,219,140,1,,
,,,,,,,,,,,,,,,,,,5ea1e178ff3ee50d69b46324,2020-08-10_16h02.15.234,lexical_decision_task_MP,2020.1.3,MacIntel,60,m,1,0.60048,,,,,,,,0.60048,1,,,,,,226,WORD,UN,33,flower,CASINO,m,,,,,,0.372083333,-0.346302083,0,0,0,,0,220,220,165,1,,
,,,,,,,,,,,,,,,,,,5ea1e178ff3ee50d69b46324,2020-08-10_16h02.15.234,lexical_decision_task_MP,2020.1.3,MacIntel,60,z,1,0.619735,,,,,,,,0.619735,1,,,,,,406,NW,"ID",50,nouply,NOUPLY,z,,,,,,0.372083333,-0.346302083,0,0,0,,0,221,221,345,1,,
,,,,,,,,,,,,,,,,,,5ea1e178ff3ee50d69b46324,2020-08-10_16h02.15.234,lexical_decision_task_MP,2020.1.3,MacIntel,60,z,1,0.63662,,,,,,,,0.63662,1,,,,,,282,NW,UN,50,veralf,PORLEX,z,,,,,,0.372083333,-0.346302083,0,0,0,,0,222,222,461,1,,
,,,,,,,,,,,,,,,,,,5ea1e178ff3ee50d69b46324,2020-08-10_16h02.15.234,lexical_decision_task_MP,2020.1.3,MacIntel,60,z,1,0.619225,,,,,,,,0.619225,1,,,,,,274,NW,UN,50,sleirt,FUMBLO,z,,,,,,0.372083333,-0.346302083,0,0,0,,0,223,223,453,1,,
,,,,,,,,,,,,,,,,,,5ea1e178ff3ee50d69b46324,2020-08-10_16h02.15.234,lexical_decision_task_MP,2020.1.3,MacIntel,60,m,1,0.801375,,,,,,,,0.801375,1,,,,,,202,WORD,UN,33,phrase,FACTOR,m,,,,,,0.372083333,-0.346302083,0,0,0,,0,224,224,141,1,,
,,,,,,,,,,,,,,,,,,5ea1e178ff3ee50d69b46324,2020-08-10_16h02.15.234,lexical_decision_task_MP,2020.1.3,MacIntel,60,z,1,0.67048,,,,,,,,0.67048,1,,,,,,466,NW,UN,33,robuly,HOCITE,z,,,,,,0.372083333,-0.346302083,0,0,0,,0,225,225,405,1,,
,,,,,,,,,,,,,,,,,,5ea1e178ff3ee50d69b46324,2020-08-10_16h02.15.234,lexical_decision_task_MP,2020.1.3,MacIntel,60,z,1,0.633255,,,,,,,,0.633255,1,,,,,,417,NW,"ID",50,earoud,EAROUD,z,,,,,,0.372083333,-0.346302083,0,0,0,,0,226,226,356,1,,
,,,,,,,,,,,,,,,,,,5ea1e178ff3ee50d69b46324,2020-08-10_16h02.15.234,lexical_decision_task_MP,2020.1.3,MacIntel,60,m,1,0.60067,,,,,,,,0.60067,1,,,,,,233,WORD,UN,33,clumsy,NATURE,m,,,,,,0.372083333,-0.346302083,0,0,0,,0,227,227,172,1,,
,,,,,,,,,,,,,,,,,,5ea1e178ff3ee50d69b46324,2020-08-10_16h02.15.234,lexical_decision_task_MP,2020.1.3,MacIntel,60,z,1,0.581515,,,,,,,,0.581515,1,,,,,,427,NW,UN,33,tandly,SCHIND,z,,,,,,0.372083333,-0.346302083,0,0,0,,0,228,228,366,1,,
,,,,,,,,,,,,,,,,,,5ea1e178ff3ee50d69b46324,2020-08-10_16h02.15.234,lexical_decision_task_MP,2020.1.3,MacIntel,60,z,1,0.588185,,,,,,,,0.588185,1,,,,,,301,NW,"ID",33,fainch,FAINCH,z,,,,,,0.372083333,-0.346302083,0,0,0,,0,229,229,240,1,,
,,,,,,,,,,,,,,,,,,5ea1e178ff3ee50d69b46324,2020-08-10_16h02.15.234,lexical_decision_task_MP,2020.1.3,MacIntel,60,z,0,0.46715,,,,,,,,0.46715,0,,,,,,219,WORD,UN,33,voyage,BUCKET,m,,,,,,0.372083333,-0.346302083,0,0,0,,0,230,230,158,1,,
,,,,,,,,,,,,,,,,,,5ea1e178ff3ee50d69b46324,2020-08-10_16h02.15.234,lexical_decision_task_MP,2020.1.3,MacIntel,60,m,0,0.79983,,,,,,,,0.79983,0,,,,,,357,NW,"ID",33,derain,DERAIN,z,,,,,,0.372083333,-0.346302083,0,0,0,,0,231,231,296,1,,
,,,,,,,,,,,,,,,,,,5ea1e178ff3ee50d69b46324,2020-08-10_16h02.15.234,lexical_decision_task_MP,2020.1.3,MacIntel,60,z,1,0.54,,,,,,,,0.54,1,,,,,,370,NW,"ID",50,sleact,SLEACT,z,,,,,,0.372083333,-0.346302083,0,0,0,,0,232,232,309,1,,
,,,,,,,,,,,,,,,,,,5ea1e178ff3ee50d69b46324,2020-08-10_16h02.15.234,lexical_decision_task_MP,2020.1.3,MacIntel,60,m,1,0.516985,,,,,,,,0.516985,1,,,,,,155,WORD,"ID",50,lizard,LIZARD,m,,,,,,0.372083333,-0.346302083,0,0,0,,0,233,233,94,1,,
,,,,,,,,,,,,,,,,,,5ea1e178ff3ee50d69b46324,2020-08-10_16h02.15.234,lexical_decision_task_MP,2020.1.3,MacIntel,60,m,1,0.70108,,,,,,,,0.70108,1,,,,,,106,WORD,"ID",33,ransom,RANSOM,m,,,,,,0.372083333,-0.346302083,0,0,0,,0,234,234,45,1,,
,,,,,,,,,,,,,,,,,,5ea1e178ff3ee50d69b46324,2020-08-10_16h02.15.234,lexical_decision_task_MP,2020.1.3,MacIntel,60,z,1,0.718345,,,,,,,,0.718345,1,,,,,,323,NW,"ID",33,rosail,ROSAIL,z,,,,,,0.372083333,-0.346302083,0,0,0,,0,235,235,262,1,,
,,,,,,,,,,,,,,,,,,5ea1e178ff3ee50d69b46324,2020-08-10_16h02.15.234,lexical_decision_task_MP,2020.1.3,MacIntel,60,z,1,0.621705,,,,,,,,0.621705,1,,,,,,278,NW,UN,50,celond,UNIGHS,z,,,,,,0.372083333,-0.346302083,0,0,0,,0,236,236,457,1,,
,,,,,,,,,,,,,,,,,,5ea1e178ff3ee50d69b46324,2020-08-10_16h02.15.234,lexical_decision_task_MP,2020.1.3,MacIntel,60,m,1,0.60545,,,,,,,,0.60545,1,,,,,,62,WORD,"ID",33,region,REGION,m,,,,,,0.372083333,-0.346302083,0,0,0,,0,237,237,1,1,,
,,,,,,,,,,,,,,,,,,5ea1e178ff3ee50d69b46324,2020-08-10_16h02.15.234,lexical_decision_task_MP,2020.1.3,MacIntel,60,m,1,0.648735,,,,,,,,0.648735,1,,,,,,200,WORD,UN,33,admire,BEACON,m,,,,,,0.372083333,-0.346302083,0,0,0,,0,238,238,139,1,,
,,,,,,,,,,,,,,,,,,5ea1e178ff3ee50d69b46324,2020-08-10_16h02.15.234,lexical_decision_task_MP,2020.1.3,MacIntel,60,z,1,0.57265,,,,,,,,0.57265,1,,,,,,256,NW,UN,50,veniod,INLORS,z,,,,,,0.372083333,-0.346302083,0,0,0,,0,239,239,435,1,,
,,,,,,,,,,,,,,,,,,5ea1e178ff3ee50d69b46324,2020-08-10_16h02.15.234,lexical_decision_task_MP,2020.1.3,MacIntel,60,z,1,0.54816,,,,,,,,0.54816,1,,,,,,331,NW,"ID",33,gilfew,GILFEW,z,,,,,,0.372083333,-0.346302083,0,0,0,,0,240,240,270,1,,
,,,,,,,,,,,,,,,,,,5ea1e178ff3ee50d69b46324,2020-08-10_16h02.15.234,lexical_decision_task_MP,2020.1.3,MacIntel,60,m,1,1.016565,,,,,,,,1.016565,1,,,,,,29,WORD,UN,50,orient,SKETCH,m,,,,,,0.158702257,-0.428936632,1,0,0,,0,241,241,208,1,,break_done_button
,,,,,,,,,,,,,,,,,,5ea1e178ff3ee50d69b46324,2020-08-10_16h02.15.234,lexical_decision_task_MP,2020.1.3,MacIntel,60,m,1,0.658705,,,,,,,,0.658705,1,,,,,,72,WORD,"ID",33,bright,BRIGHT,m,,,,,,0.454817708,0.057981771,0,0,0,,0,242,242,11,1,,
,,,,,,,,,,,,,,,,,,5ea1e178ff3ee50d69b46324,2020-08-10_16h02.15.234,lexical_decision_task_MP,2020.1.3,MacIntel,60,m,1,0.618715,,,,,,,,0.618715,1,,,,,,216,WORD,UN,33,liquor,BEHALF,m,,,,,,0.454817708,0.057981771,0,0,0,,0,243,243,155,1,,
,,,,,,,,,,,,,,,,,,5ea1e178ff3ee50d69b46324,2020-08-10_16h02.15.234,lexical_decision_task_MP,2020.1.3,MacIntel,60,m,1,0.43703,,,,,,,,0.43703,1,,,,,,90,WORD,"ID",33,relish,RELISH,m,,,,,,0.454817708,0.057981771,0,0,0,,0,244,244,29,1,,
,,,,,,,,,,,,,,,,,,5ea1e178ff3ee50d69b46324,2020-08-10_16h02.15.234,lexical_decision_task_MP,2020.1.3,MacIntel,60,m,1,0.4367,,,,,,,,0.4367,1,,,,,,44,WORD,UN,50,clergy,DANGER,m,,,,,,0.454817708,0.057981771,0,0,0,,0,245,245,223,1,,
,,,,,,,,,,,,,,,,,,5ea1e178ff3ee50d69b46324,2020-08-10_16h02.15.234,lexical_decision_task_MP,2020.1.3,MacIntel,60,m,0,0.41767,,,,,,,,0.41767,0,,,,,,293,NW,UN,50,inhort,SWANCE,z,,,,,,0.454817708,0.057981771,0,0,0,,0,246,246,472,1,,
,,,,,,,,,,,,,,,,,,5ea1e178ff3ee50d69b46324,2020-08-10_16h02.15.234,lexical_decision_task_MP,2020.1.3,MacIntel,60,m,1,0.451125,,,,,,,,0.451125,1,,,,,,147,WORD,"ID",50,garlic,GARLIC,m,,,,,,0.454817708,0.057981771,0,0,0,,0,247,247,86,1,,
,,,,,,,,,,,,,,,,,,5ea1e178ff3ee50d69b46324,2020-08-10_16h02.15.234,lexical_decision_task_MP,2020.1.3,MacIntel,60,z,1,0.68425,,,,,,,,0.68425,1,,,,,,393,NW,"ID",50,ganous,GANOUS,z,,,,,,0.454817708,0.057981771,0,0,0,,0,248,248,332,1,,
,,,,,,,,,,,,,,,,,,5ea1e178ff3ee50d69b46324,2020-08-10_16h02.15.234,lexical_decision_task_MP,2020.1.3,MacIntel,60,m,1,0.51769,,,,,,,,0.51769,1,,,,,,113,WORD,"ID",33,chorus,CHORUS,m,,,,,,0.454817708,0.057981771,0,0,0,,0,249,249,52,1,,
,,,,,,,,,,,,,,,,,,5ea1e178ff3ee50d69b46324,2020-08-10_16h02.15.234,lexical_decision_task_MP,2020.1.3,MacIntel,60,z,1,1.051975,,,,,,,,1.051975,1,,,,,,390,NW,"ID",50,hatrus,HATRUS,z,,,,,,0.454817708,0.057981771,0,0,0,,0,250,250,329,1,,
,,,,,,,,,,,,,,,,,,5ea1e178ff3ee50d69b46324,2020-08-10_16h02.15.234,lexical_decision_task_MP,2020.1.3,MacIntel,60,m,1,0.484295,,,,,,,,0.484295,1,,,,,,2,WORD,UN,50,knight,BRIDGE,m,,,,,,0.454817708,0.057981771,0,0,0,,0,251,251,181,1,,
,,,,,,,,,,,,,,,,,,5ea1e178ff3ee50d69b46324,2020-08-10_16h02.15.234,lexical_decision_task_MP,2020.1.3,MacIntel,60,m,1,0.45082,,,,,,,,0.45082,1,,,,,,27,WORD,UN,50,comedy,SCREAM,m,,,,,,0.454817708,0.057981771,0,0,0,,0,252,252,206,1,,
,,,,,,,,,,,,,,,,,,5ea1e178ff3ee50d69b46324,2020-08-10_16h02.15.234,lexical_decision_task_MP,2020.1.3,MacIntel,60,m,1,0.517905,,,,,,,,0.517905,1,,,,,,145,WORD,"ID",50,parish,PARISH,m,,,,,,0.454817708,0.057981771,0,0,0,,0,253,253,84,1,,
,,,,,,,,,,,,,,,,,,5ea1e178ff3ee50d69b46324,2020-08-10_16h02.15.234,lexical_decision_task_MP,2020.1.3,MacIntel,60,m,1,0.43891,,,,,,,,0.43891,1,,,,,,144,WORD,"ID",50,sponge,SPONGE,m,,,,,,0.454817708,0.057981771,0,0,0,,0,254,254,83,1,,
,,,,,,,,,,,,,,,,,,5ea1e178ff3ee50d69b46324,2020-08-10_16h02.15.234,lexical_decision_task_MP,2020.1.3,MacIntel,60,z,1,0.53335,,,,,,,,0.53335,1,,,,,,375,NW,"ID",50,yorque,YORQUE,z,,,,,,0.454817708,0.057981771,0,0,0,,0,255,255,314,1,,
,,,,,,,,,,,,,,,,,,5ea1e178ff3ee50d69b46324,2020-08-10_16h02.15.234,lexical_decision_task_MP,2020.1.3,MacIntel,60,z,1,1.169,,,,,,,,1.169,1,,,,,,303,NW,"ID",33,fiream,FIREAM,z,,,,,,0.454817708,0.057981771,0,0,0,,0,256,256,242,1,,
,,,,,,,,,,,,,,,,,,5ea1e178ff3ee50d69b46324,2020-08-10_16h02.15.234,lexical_decision_task_MP,2020.1.3,MacIntel,60,m,1,0.81889,,,,,,,,0.81889,1,,,,,,129,WORD,"ID",50,marvel,MARVEL,m,,,,,,0.454817708,0.057981771,0,0,0,,0,257,257,68,1,,
,,,,,,,,,,,,,,,,,,5ea1e178ff3ee50d69b46324,2020-08-10_16h02.15.234,lexical_decision_task_MP,2020.1.3,MacIntel,60,m,1,0.62012,,,,,,,,0.62012,1,,,,,,54,WORD,UN,50,stroke,RAMBLE,m,,,,,,0.454817708,0.057981771,0,0,0,,0,258,258,233,1,,
,,,,,,,,,,,,,,,,,,5ea1e178ff3ee50d69b46324,2020-08-10_16h02.15.234,lexical_decision_task_MP,2020.1.3,MacIntel,60,m,1,0.538985,,,,,,,,0.538985,1,,,,,,47,WORD,UN,50,walnut,INCOME,m,,,,,,0.454817708,0.057981771,0,0,0,,0,259,259,226,1,,
,,,,,,,,,,,,,,,,,,5ea1e178ff3ee50d69b46324,2020-08-10_16h02.15.234,lexical_decision_task_MP,2020.1.3,MacIntel,60,,0,,,,,,,,,0.538985,-1,,,,,,424,NW,UN,33,frudge,PRAILE,z,,,,,,0.454817708,0.057981771,0,0,0,,0,260,260,363,1,,
,,,,,,,,,,,,,,,,,,5ea1e178ff3ee50d69b46324,2020-08-10_16h02.15.234,lexical_decision_task_MP,2020.1.3,MacIntel,60,m,1,0.56614,,,,,,,,0.56614,1,,,,,,193,WORD,UN,33,mildew,OBJECT,m,,,,,,0.454817708,0.057981771,0,0,0,,0,261,261,132,1,,
,,,,,,,,,,,,,,,,,,5ea1e178ff3ee50d69b46324,2020-08-10_16h02.15.234,lexical_decision_task_MP,2020.1.3,MacIntel,60,z,1,0.705805,,,,,,,,0.705805,1,,,,,,337,NW,"ID",33,rejols,REJOLS,z,,,,,,0.454817708,0.057981771,0,0,0,,0,262,262,276,1,,
,,,,,,,,,,,,,,,,,,5ea1e178ff3ee50d69b46324,2020-08-10_16h02.15.234,lexical_decision_task_MP,2020.1.3,MacIntel,60,m,1,0.85341,,,,,,,,0.85341,1,,,,,,22,WORD,UN,50,wealth,JOCKEY,m,,,,,,0.454817708,0.057981771,0,0,0,,0,263,263,201,1,,
,,,,,,,,,,,,,,,,,,5ea1e178ff3ee50d69b46324,2020-08-10_16h02.15.234,lexical_decision_task_MP,2020.1.3,MacIntel,60,m,1,0.386355,,,,,,,,0.386355,1,,,,,,168,WORD,"ID",50,answer,ANSWER,m,,,,,,0.454817708,0.057981771,0,0,0,,0,264,264,107,1,,
,,,,,,,,,,,,,,,,,,5ea1e178ff3ee50d69b46324,2020-08-10_16h02.15.234,lexical_decision_task_MP,2020.1.3,MacIntel,60,m,0,0.515985,,,,,,,,0.515985,0,,,,,,291,NW,UN,50,ablint,PRETCH,z,,,,,,0.454817708,0.057981771,0,0,0,,0,265,265,470,1,,
,,,,,,,,,,,,,,,,,,5ea1e178ff3ee50d69b46324,2020-08-10_16h02.15.234,lexical_decision_task_MP,2020.1.3,MacIntel,60,z,1,0.652865,,,,,,,,0.652865,1,,,,,,431,NW,UN,33,lunker,CHRUMS,z,,,,,,0.454817708,0.057981771,0,0,0,,0,266,266,370,1,,
,,,,,,,,,,,,,,,,,,5ea1e178ff3ee50d69b46324,2020-08-10_16h02.15.234,lexical_decision_task_MP,2020.1.3,MacIntel,60,z,1,0.76837,,,,,,,,0.76837,1,,,,,,455,NW,UN,33,broget,TONDLE,z,,,,,,0.454817708,0.057981771,0,0,0,,0,267,267,394,1,,
,,,,,,,,,,,,,,,,,,5ea1e178ff3ee50d69b46324,2020-08-10_16h02.15.234,lexical_decision_task_MP,2020.1.3,MacIntel,60,m,1,0.598475,,,,,,,,0.598475,1,,,,,,182,WORD,UN,33,absent,WINTER,m,,,,,,0.454817708,0.057981771,0,0,0,,0,268,268,121,1,,
,,,,,,,,,,,,,,,,,,5ea1e178ff3ee50d69b46324,2020-08-10_16h02.15.234,lexical_decision_task_MP,2020.1.3,MacIntel,60,m,1,0.449735,,,,,,,,0.449735,1,,,,,,161,WORD,"ID",50,pastor,PASTOR,m,,,,,,0.454817708,0.057981771,0,0,0,,0,269,269,100,1,,
,,,,,,,,,,,,,,,,,,5ea1e178ff3ee50d69b46324,2020-08-10_16h02.15.234,lexical_decision_task_MP,2020.1.3,MacIntel,60,z,1,0.716305,,,,,,,,0.716305,1,,,,,,354,NW,"ID",33,virlex,VIRLEX,z,,,,,,0.454817708,0.057981771,0,0,0,,0,270,270,293,1,,
,,,,,,,,,,,,,,,,,,5ea1e178ff3ee50d69b46324,2020-08-10_16h02.15.234,lexical_decision_task_MP,2020.1.3,MacIntel,60,z,1,0.790795,,,,,,,,0.790795,1,,,,,,469,NW,UN,33,crudio,PADIFS,z,,,,,,0.454817708,0.057981771,0,0,0,,0,271,271,408,1,,
,,,,,,,,,,,,,,,,,,5ea1e178ff3ee50d69b46324,2020-08-10_16h02.15.234,lexical_decision_task_MP,2020.1.3,MacIntel,60,z,1,0.60306,,,,,,,,0.60306,1,,,,,,347,NW,"ID",33,kerift,KERIFT,z,,,,,,0.454817708,0.057981771,0,0,0,,0,272,272,286,1,,
,,,,,,,,,,,,,,,,,,5ea1e178ff3ee50d69b46324,2020-08-10_16h02.15.234,lexical_decision_task_MP,2020.1.3,MacIntel,60,z,1,0.452435,,,,,,,,0.452435,1,,,,,,275,NW,UN,50,yarmon,SLEIRT,z,,,,,,0.454817708,0.057981771,0,0,0,,0,273,273,454,1,,
,,,,,,,,,,,,,,,,,,5ea1e178ff3ee50d69b46324,2020-08-10_16h02.15.234,lexical_decision_task_MP,2020.1.3,MacIntel,60,m,1,0.473655,,,,,,,,0.473655,1,,,,,,174,WORD,"ID",50,turkey,TURKEY,m,,,,,,0.454817708,0.057981771,0,0,0,,0,274,274,113,1,,
,,,,,,,,,,,,,,,,,,5ea1e178ff3ee50d69b46324,2020-08-10_16h02.15.234,lexical_decision_task_MP,2020.1.3,MacIntel,60,m,1,0.499685,,,,,,,,0.499685,1,,,,,,191,WORD,UN,33,beacon,STABLE,m,,,,,,0.454817708,0.057981771,0,0,0,,0,275,275,130,1,,
,,,,,,,,,,,,,,,,,,5ea1e178ff3ee50d69b46324,2020-08-10_16h02.15.234,lexical_decision_task_MP,2020.1.3,MacIntel,60,m,1,0.34985,,,,,,,,0.34985,1,,,,,,175,WORD,"ID",50,fabric,FABRIC,m,,,,,,0.454817708,0.057981771,0,0,0,,0,276,276,114,1,,
,,,,,,,,,,,,,,,,,,5ea1e178ff3ee50d69b46324,2020-08-10_16h02.15.234,lexical_decision_task_MP,2020.1.3,MacIntel,60,z,1,0.68127,,,,,,,,0.68127,1,,,,,,373,NW,"ID",50,bigent,BIGENT,z,,,,,,0.454817708,0.057981771,0,0,0,,0,277,277,312,1,,
,,,,,,,,,,,,,,,,,,5ea1e178ff3ee50d69b46324,2020-08-10_16h02.15.234,lexical_decision_task_MP,2020.1.3,MacIntel,60,m,0,0.36751,,,,,,,,0.36751,0,,,,,,365,NW,"ID",50,guairt,GUAIRT,z,,,,,,0.454817708,0.057981771,0,0,0,,0,278,278,304,1,,
,,,,,,,,,,,,,,,,,,5ea1e178ff3ee50d69b46324,2020-08-10_16h02.15.234,lexical_decision_task_MP,2020.1.3,MacIntel,60,z,1,0.7496,,,,,,,,0.7496,1,,,,,,258,NW,UN,50,soudal,POLUTH,z,,,,,,0.454817708,0.057981771,0,0,0,,0,279,279,437,1,,
,,,,,,,,,,,,,,,,,,5ea1e178ff3ee50d69b46324,2020-08-10_16h02.15.234,lexical_decision_task_MP,2020.1.3,MacIntel,60,m,1,0.567005,,,,,,,,0.567005,1,,,,,,38,WORD,UN,50,insect,POWDER,m,,,,,,0.454817708,0.057981771,0,0,0,,0,280,280,217,1,,
,,,,,,,,,,,,,,,,,,5ea1e178ff3ee50d69b46324,2020-08-10_16h02.15.234,lexical_decision_task_MP,2020.1.3,MacIntel,60,z,1,0.68263,,,,,,,,0.68263,1,,,,,,346,NW,"ID",33,saudic,SAUDIC,z,,,,,,0.454817708,0.057981771,0,0,0,,0,281,281,285,1,,
,,,,,,,,,,,,,,,,,,5ea1e178ff3ee50d69b46324,2020-08-10_16h02.15.234,lexical_decision_task_MP,2020.1.3,MacIntel,60,z,1,0.58402,,,,,,,,0.58402,1,,,,,,268,NW,UN,50,orchet,PACKES,z,,,,,,0.454817708,0.057981771,0,0,0,,0,282,282,447,1,,
,,,,,,,,,,,,,,,,,,5ea1e178ff3ee50d69b46324,2020-08-10_16h02.15.234,lexical_decision_task_MP,2020.1.3,MacIntel,60,m,0,0.46661,,,,,,,,0.46661,0,,,,,,419,NW,"ID",50,slount,SLOUNT,z,,,,,,0.454817708,0.057981771,0,0,0,,0,283,283,358,1,,
,,,,,,,,,,,,,,,,,,5ea1e178ff3ee50d69b46324,2020-08-10_16h02.15.234,lexical_decision_task_MP,2020.1.3,MacIntel,60,z,1,0.617235,,,,,,,,0.617235,1,,,,,,382,NW,"ID",50,sarley,SARLEY,z,,,,,,0.454817708,0.057981771,0,0,0,,0,284,284,321,1,,
,,,,,,,,,,,,,,,,,,5ea1e178ff3ee50d69b46324,2020-08-10_16h02.15.234,lexical_decision_task_MP,2020.1.3,MacIntel,60,z,1,0.568235,,,,,,,,0.568235,1,,,,,,415,NW,"ID",50,higsta,HIGSTA,z,,,,,,0.454817708,0.057981771,0,0,0,,0,285,285,354,1,,
,,,,,,,,,,,,,,,,,,5ea1e178ff3ee50d69b46324,2020-08-10_16h02.15.234,lexical_decision_task_MP,2020.1.3,MacIntel,60,z,1,0.53736,,,,,,,,0.53736,1,,,,,,459,NW,UN,33,mingar,BAFENT,z,,,,,,0.454817708,0.057981771,0,0,0,,0,286,286,398,1,,
,,,,,,,,,,,,,,,,,,5ea1e178ff3ee50d69b46324,2020-08-10_16h02.15.234,lexical_decision_task_MP,2020.1.3,MacIntel,60,m,1,0.64905,,,,,,,,0.64905,1,,,,,,196,WORD,UN,33,stream,CREDIT,m,,,,,,0.454817708,0.057981771,0,0,0,,0,287,287,135,1,,
,,,,,,,,,,,,,,,,,,5ea1e178ff3ee50d69b46324,2020-08-10_16h02.15.234,lexical_decision_task_MP,2020.1.3,MacIntel,60,z,1,0.5514,,,,,,,,0.5514,1,,,,,,362,NW,"ID",50,tireau,TIREAU,z,,,,,,0.454817708,0.057981771,0,0,0,,0,288,288,301,1,,
,,,,,,,,,,,,,,,,,,5ea1e178ff3ee50d69b46324,2020-08-10_16h02.15.234,lexical_decision_task_MP,2020.1.3,MacIntel,60,m,1,0.49966,,,,,,,,0.49966,1,,,,,,23,WORD,UN,50,praise,WEALTH,m,,,,,,0.454817708,0.057981771,0,0,0,,0,289,289,202,1,,
,,,,,,,,,,,,,,,,,,5ea1e178ff3ee50d69b46324,2020-08-10_16h02.15.234,lexical_decision_task_MP,2020.1.3,MacIntel,60,m,1,0.570225,,,,,,,,0.570225,1,,,,,,82,WORD,"ID",33,stigma,STIGMA,m,,,,,,0.454817708,0.057981771,0,0,0,,0,290,290,21,1,,
,,,,,,,,,,,,,,,,,,5ea1e178ff3ee50d69b46324,2020-08-10_16h02.15.234,lexical_decision_task_MP,2020.1.3,MacIntel,60,m,0,0.584,,,,,,,,0.584,0,,,,,,398,NW,"ID",50,blunde,BLUNDE,z,,,,,,0.454817708,0.057981771,0,0,0,,0,291,291,337,1,,
,,,,,,,,,,,,,,,,,,5ea1e178ff3ee50d69b46324,2020-08-10_16h02.15.234,lexical_decision_task_MP,2020.1.3,MacIntel,60,z,1,0.817925,,,,,,,,0.817925,1,,,,,,313,NW,"ID",33,paurse,PAURSE,z,,,,,,0.454817708,0.057981771,0,0,0,,0,292,292,252,1,,
,,,,,,,,,,,,,,,,,,5ea1e178ff3ee50d69b46324,2020-08-10_16h02.15.234,lexical_decision_task_MP,2020.1.3,MacIntel,60,m,1,0.834305,,,,,,,,0.834305,1,,,,,,179,WORD,"ID",50,basket,BASKET,m,,,,,,0.454817708,0.057981771,0,0,0,,0,293,293,118,1,,
,,,,,,,,,,,,,,,,,,5ea1e178ff3ee50d69b46324,2020-08-10_16h02.15.234,lexical_decision_task_MP,2020.1.3,MacIntel,60,z,1,0.556305,,,,,,,,0.556305,1,,,,,,286,NW,UN,50,nymbel,RELDON,z,,,,,,0.454817708,0.057981771,0,0,0,,0,294,294,465,1,,
,,,,,,,,,,,,,,,,,,5ea1e178ff3ee50d69b46324,2020-08-10_16h02.15.234,lexical_decision_task_MP,2020.1.3,MacIntel,60,m,1,0.71,,,,,,,,0.71,1,,,,,,176,WORD,"ID",50,strife,STRIFE,m,,,,,,0.454817708,0.057981771,0,0,0,,0,295,295,115,1,,
,,,,,,,,,,,,,,,,,,5ea1e178ff3ee50d69b46324,2020-08-10_16h02.15.234,lexical_decision_task_MP,2020.1.3,MacIntel,60,z,1,0.86743,,,,,,,,0.86743,1,,,,,,432,NW,UN,33,drance,LUNKER,z,,,,,,0.454817708,0.057981771,0,0,0,,0,296,296,371,1,,
,,,,,,,,,,,,,,,,,,5ea1e178ff3ee50d69b46324,2020-08-10_16h02.15.234,lexical_decision_task_MP,2020.1.3,MacIntel,60,z,1,0.80464,,,,,,,,0.80464,1,,,,,,395,NW,"ID",50,colury,COLURY,z,,,,,,0.454817708,0.057981771,0,0,0,,0,297,297,334,1,,
,,,,,,,,,,,,,,,,,,5ea1e178ff3ee50d69b46324,2020-08-10_16h02.15.234,lexical_decision_task_MP,2020.1.3,MacIntel,60,z,1,0.715505,,,,,,,,0.715505,1,,,,,,429,NW,UN,33,caroey,FUNTLE,z,,,,,,0.454817708,0.057981771,0,0,0,,0,298,298,368,1,,
,,,,,,,,,,,,,,,,,,5ea1e178ff3ee50d69b46324,2020-08-10_16h02.15.234,lexical_decision_task_MP,2020.1.3,MacIntel,60,z,1,0.55016,,,,,,,,0.55016,1,,,,,,472,NW,UN,33,gorbie,CIGNEY,z,,,,,,0.454817708,0.057981771,0,0,0,,0,299,299,411,1,,
,,,,,,,,,,,,,,,,,,5ea1e178ff3ee50d69b46324,2020-08-10_16h02.15.234,lexical_decision_task_MP,2020.1.3,MacIntel,60,z,1,0.598465,,,,,,,,0.598465,1,,,,,,315,NW,"ID",33,laston,LASTON,z,,,,,,0.454817708,0.057981771,0,0,0,,0,300,300,254,1,,
,,,,,,,,,,,,,,,,,,5ea1e178ff3ee50d69b46324,2020-08-10_16h02.15.234,lexical_decision_task_MP,2020.1.3,MacIntel,60,m,1,0.671175,,,,,,,,0.671175,1,,,,,,184,WORD,UN,33,bother,SLEAZY,m,,,,,,0.454817708,0.057981771,0,0,0,,0,301,301,123,1,,
,,,,,,,,,,,,,,,,,,5ea1e178ff3ee50d69b46324,2020-08-10_16h02.15.234,lexical_decision_task_MP,2020.1.3,MacIntel,60,z,1,0.63258,,,,,,,,0.63258,1,,,,,,385,NW,"ID",50,veigma,VEIGMA,z,,,,,,0.454817708,0.057981771,0,0,0,,0,302,302,324,1,,
,,,,,,,,,,,,,,,,,,5ea1e178ff3ee50d69b46324,2020-08-10_16h02.15.234,lexical_decision_task_MP,2020.1.3,MacIntel,60,z,1,0.43951,,,,,,,,0.43951,1,,,,,,253,NW,UN,50,varosh,RESAIT,z,,,,,,0.454817708,0.057981771,0,0,0,,0,303,303,432,1,,
,,,,,,,,,,,,,,,,,,5ea1e178ff3ee50d69b46324,2020-08-10_16h02.15.234,lexical_decision_task_MP,2020.1.3,MacIntel,60,m,1,0.53377,,,,,,,,0.53377,1,,,,,,96,WORD,"ID",33,ignore,IGNORE,m,,,,,,0.454817708,0.057981771,0,0,0,,0,304,304,35,1,,
,,,,,,,,,,,,,,,,,,5ea1e178ff3ee50d69b46324,2020-08-10_16h02.15.234,lexical_decision_task_MP,2020.1.3,MacIntel,60,m,1,0.716835,,,,,,,,0.716835,1,,,,,,232,WORD,UN,33,nature,INJECT,m,,,,,,0.454817708,0.057981771,0,0,0,,0,305,305,171,1,,
,,,,,,,,,,,,,,,,,,5ea1e178ff3ee50d69b46324,2020-08-10_16h02.15.234,lexical_decision_task_MP,2020.1.3,MacIntel,60,m,1,0.467755,,,,,,,,0.467755,1,,,,,,119,WORD,"ID",33,spider,SPIDER,m,,,,,,0.454817708,0.057981771,0,0,0,,0,306,306,58,1,,
,,,,,,,,,,,,,,,,,,5ea1e178ff3ee50d69b46324,2020-08-10_16h02.15.234,lexical_decision_task_MP,2020.1.3,MacIntel,60,m,1,0.401065,,,,,,,,0.401065,1,,,,,,15,WORD,UN,50,faucet,AMOUNT,m,,,,,,0.454817708,0.057981771,0,0,0,,0,307,307,194,1,,
,,,,,,,,,,,,,,,,,,5ea1e178ff3ee50d69b46324,2020-08-10_16h02.15.234,lexical_decision_task_MP,2020.1.3,MacIntel,60,m,1,0.367325,,,,,,,,0.367325,1,,,,,,77,WORD,"ID",33,racket,RACKET,m,,,,,,0.454817708,0.057981771,0,0,0,,0,308,308,16,1,,
,,,,,,,,,,,,,,,,,,5ea1e178ff3ee50d69b46324,2020-08-10_16h02.15.234,lexical_decision_task_MP,2020.1.3,MacIntel,60,m,1,0.336505,,,,,,,,0.336505,1,,,,,,114,WORD,"ID",33,placid,PLACID,m,,,,,,0.454817708,0.057981771,0,0,0,,0,309,309,53,1,,
,,,,,,,,,,,,,,,,,,5ea1e178ff3ee50d69b46324,2020-08-10_16h02.15.234,lexical_decision_task_MP,2020.1.3,MacIntel,60,m,1,0.41506,,,,,,,,0.41506,1,,,,,,156,WORD,"ID",50,cradle,CRADLE,m,,,,,,0.454817708,0.057981771,0,0,0,,0,310,310,95,1,,
,,,,,,,,,,,,,,,,,,5ea1e178ff3ee50d69b46324,2020-08-10_16h02.15.234,lexical_decision_task_MP,2020.1.3,MacIntel,60,m,1,0.334585,,,,,,,,0.334585,1,,,,,,134,WORD,"ID",50,staple,STAPLE,m,,,,,,0.454817708,0.057981771,0,0,0,,0,311,311,73,1,,
,,,,,,,,,,,,,,,,,,5ea1e178ff3ee50d69b46324,2020-08-10_16h02.15.234,lexical_decision_task_MP,2020.1.3,MacIntel,60,m,0,0.31964,,,,,,,,0.31964,0,,,,,,394,NW,"ID",50,spaqux,SPAQUX,z,,,,,,0.454817708,0.057981771,0,0,0,,0,312,312,333,1,,
,,,,,,,,,,,,,,,,,,5ea1e178ff3ee50d69b46324,2020-08-10_16h02.15.234,lexical_decision_task_MP,2020.1.3,MacIntel,60,z,1,1.283145,,,,,,,,1.283145,1,,,,,,242,NW,UN,50,musied,UNWERT,z,,,,,,0.454817708,0.057981771,0,0,0,,0,313,313,421,1,,
,,,,,,,,,,,,,,,,,,5ea1e178ff3ee50d69b46324,2020-08-10_16h02.15.234,lexical_decision_task_MP,2020.1.3,MacIntel,60,m,1,0.48814,,,,,,,,0.48814,1,,,,,,234,WORD,UN,33,poster,CLUMSY,m,,,,,,0.454817708,0.057981771,0,0,0,,0,314,314,173,1,,
,,,,,,,,,,,,,,,,,,5ea1e178ff3ee50d69b46324,2020-08-10_16h02.15.234,lexical_decision_task_MP,2020.1.3,MacIntel,60,m,1,0.51502,,,,,,,,0.51502,1,,,,,,240,WORD,UN,33,seldom,FOREST,m,,,,,,0.454817708,0.057981771,0,0,0,,0,315,315,179,1,,
,,,,,,,,,,,,,,,,,,5ea1e178ff3ee50d69b46324,2020-08-10_16h02.15.234,lexical_decision_task_MP,2020.1.3,MacIntel,60,z,1,0.870955,,,,,,,,0.870955,1,,,,,,461,NW,UN,33,absult,JUSTRE,z,,,,,,0.454817708,0.057981771,0,0,0,,0,316,316,400,1,,
,,,,,,,,,,,,,,,,,,5ea1e178ff3ee50d69b46324,2020-08-10_16h02.15.234,lexical_decision_task_MP,2020.1.3,MacIntel,60,z,1,0.68353,,,,,,,,0.68353,1,,,,,,334,NW,"ID",33,watmeg,WATMEG,z,,,,,,0.454817708,0.057981771,0,0,0,,0,317,317,273,1,,
,,,,,,,,,,,,,,,,,,5ea1e178ff3ee50d69b46324,2020-08-10_16h02.15.234,lexical_decision_task_MP,2020.1.3,MacIntel,60,m,1,1.000135,,,,,,,,1.000135,1,,,,,,197,WORD,UN,33,wicked,STREAM,m,,,,,,0.454817708,0.057981771,0,0,0,,0,318,318,136,1,,
,,,,,,,,,,,,,,,,,,5ea1e178ff3ee50d69b46324,2020-08-10_16h02.15.234,lexical_decision_task_MP,2020.1.3,MacIntel,60,m,1,0.666515,,,,,,,,0.666515,1,,,,,,5,WORD,UN,50,bundle,PLUNGE,m,,,,,,0.454817708,0.057981771,0,0,0,,0,319,319,184,1,,
,,,,,,,,,,,,,,,,,,5ea1e178ff3ee50d69b46324,2020-08-10_16h02.15.234,lexical_decision_task_MP,2020.1.3,MacIntel,60,z,1,0.52024,,,,,,,,0.52024,1,,,,,,450,NW,UN,33,cainky,PHRECT,z,,,,,,0.454817708,0.057981771,0,0,0,,0,320,320,389,1,,
,,,,,,,,,,,,,,,,,,5ea1e178ff3ee50d69b46324,2020-08-10_16h02.15.234,lexical_decision_task_MP,2020.1.3,MacIntel,60,z,1,0.72038,,,,,,,,0.72038,1,,,,,,368,NW,"ID",50,hornal,HORNAL,z,,,,,,0.454817708,0.057981771,0,0,0,,0,321,321,307,1,,
,,,,,,,,,,,,,,,,,,5ea1e178ff3ee50d69b46324,2020-08-10_16h02.15.234,lexical_decision_task_MP,2020.1.3,MacIntel,60,m,1,0.51585,,,,,,,,0.51585,1,,,,,,80,WORD,"ID",33,family,FAMILY,m,,,,,,0.454817708,0.057981771,0,0,0,,0,322,322,19,1,,
,,,,,,,,,,,,,,,,,,5ea1e178ff3ee50d69b46324,2020-08-10_16h02.15.234,lexical_decision_task_MP,2020.1.3,MacIntel,60,m,0,0.736935,,,,,,,,0.736935,0,,,,,,279,NW,UN,50,curbol,CELOND,z,,,,,,0.454817708,0.057981771,0,0,0,,0,323,323,458,1,,
,,,,,,,,,,,,,,,,,,5ea1e178ff3ee50d69b46324,2020-08-10_16h02.15.234,lexical_decision_task_MP,2020.1.3,MacIntel,60,m,1,0.422055,,,,,,,,0.422055,1,,,,,,91,WORD,"ID",33,expand,EXPAND,m,,,,,,0.454817708,0.057981771,0,0,0,,0,324,324,30,1,,
,,,,,,,,,,,,,,,,,,5ea1e178ff3ee50d69b46324,2020-08-10_16h02.15.234,lexical_decision_task_MP,2020.1.3,MacIntel,60,m,1,0.53157,,,,,,,,0.53157,1,,,,,,190,WORD,UN,33,stable,BACKUP,m,,,,,,0.454817708,0.057981771,0,0,0,,0,325,325,129,1,,
,,,,,,,,,,,,,,,,,,5ea1e178ff3ee50d69b46324,2020-08-10_16h02.15.234,lexical_decision_task_MP,2020.1.3,MacIntel,60,m,1,0.88684,,,,,,,,0.88684,1,,,,,,183,WORD,UN,33,sleazy,MILDEW,m,,,,,,0.454817708,0.057981771,0,0,0,,0,326,326,122,1,,
,,,,,,,,,,,,,,,,,,5ea1e178ff3ee50d69b46324,2020-08-10_16h02.15.234,lexical_decision_task_MP,2020.1.3,MacIntel,60,m,1,0.418345,,,,,,,,0.418345,1,,,,,,79,WORD,"ID",33,theory,THEORY,m,,,,,,0.454817708,0.057981771,0,0,0,,0,327,327,18,1,,
,,,,,,,,,,,,,,,,,,5ea1e178ff3ee50d69b46324,2020-08-10_16h02.15.234,lexical_decision_task_MP,2020.1.3,MacIntel,60,m,0,0.35052,,,,,,,,0.35052,0,,,,,,473,NW,UN,33,hablin,CRIBLE,z,,,,,,0.454817708,0.057981771,0,0,0,,0,328,328,412,1,,
,,,,,,,,,,,,,,,,,,5ea1e178ff3ee50d69b46324,2020-08-10_16h02.15.234,lexical_decision_task_MP,2020.1.3,MacIntel,60,z,1,1.066785,,,,,,,,1.066785,1,,,,,,250,NW,UN,50,lupict,MILTED,z,,,,,,0.454817708,0.057981771,0,0,0,,0,329,329,429,1,,
,,,,,,,,,,,,,,,,,,5ea1e178ff3ee50d69b46324,2020-08-10_16h02.15.234,lexical_decision_task_MP,2020.1.3,MacIntel,60,m,0,0.622925,,,,,,,,0.622925,0,,,,,,348,NW,"ID",33,dumple,DUMPLE,z,,,,,,0.454817708,0.057981771,0,0,0,,0,330,330,287,1,,
,,,,,,,,,,,,,,,,,,5ea1e178ff3ee50d69b46324,2020-08-10_16h02.15.234,lexical_decision_task_MP,2020.1.3,MacIntel,60,z,1,0.63249,,,,,,,,0.63249,1,,,,,,339,NW,"ID",33,fachow,FACHOW,z,,,,,,0.454817708,0.057981771,0,0,0,,0,331,331,278,1,,
,,,,,,,,,,,,,,,,,,5ea1e178ff3ee50d69b46324,2020-08-10_16h02.15.234,lexical_decision_task_MP,2020.1.3,MacIntel,60,z,1,0.635625,,,,,,,,0.635625,1,,,,,,454,NW,UN,33,tondle,SCOUGE,z,,,,,,0.454817708,0.057981771,0,0,0,,0,332,332,393,1,,
,,,,,,,,,,,,,,,,,,5ea1e178ff3ee50d69b46324,2020-08-10_16h02.15.234,lexical_decision_task_MP,2020.1.3,MacIntel,60,m,1,0.56687,,,,,,,,0.56687,1,,,,,,138,WORD,"ID",50,melody,MELODY,m,,,,,,0.454817708,0.057981771,0,0,0,,0,333,333,77,1,,
,,,,,,,,,,,,,,,,,,5ea1e178ff3ee50d69b46324,2020-08-10_16h02.15.234,lexical_decision_task_MP,2020.1.3,MacIntel,60,m,1,0.471935,,,,,,,,0.471935,1,,,,,,204,WORD,UN,33,lounge,BURDEN,m,,,,,,0.454817708,0.057981771,0,0,0,,0,334,334,143,1,,
,,,,,,,,,,,,,,,,,,5ea1e178ff3ee50d69b46324,2020-08-10_16h02.15.234,lexical_decision_task_MP,2020.1.3,MacIntel,60,m,1,0.39982,,,,,,,,0.39982,1,,,,,,154,WORD,"ID",50,author,AUTHOR,m,,,,,,0.454817708,0.057981771,0,0,0,,0,335,335,93,1,,
,,,,,,,,,,,,,,,,,,5ea1e178ff3ee50d69b46324,2020-08-10_16h02.15.234,lexical_decision_task_MP,2020.1.3,MacIntel,60,z,1,0.63453,,,,,,,,0.63453,1,,,,,,272,NW,UN,50,sortel,DAMILT,z,,,,,,0.454817708,0.057981771,0,0,0,,0,336,336,451,1,,
,,,,,,,,,,,,,,,,,,5ea1e178ff3ee50d69b46324,2020-08-10_16h02.15.234,lexical_decision_task_MP,2020.1.3,MacIntel,60,m,1,0.62036,,,,,,,,0.62036,1,,,,,,222,WORD,UN,33,export,HINDER,m,,,,,,0.454817708,0.057981771,0,0,0,,0,337,337,161,1,,
,,,,,,,,,,,,,,,,,,5ea1e178ff3ee50d69b46324,2020-08-10_16h02.15.234,lexical_decision_task_MP,2020.1.3,MacIntel,60,z,1,0.56541,,,,,,,,0.56541,1,,,,,,292,NW,UN,50,swance,ABLINT,z,,,,,,0.454817708,0.057981771,0,0,0,,0,338,338,471,1,,
,,,,,,,,,,,,,,,,,,5ea1e178ff3ee50d69b46324,2020-08-10_16h02.15.234,lexical_decision_task_MP,2020.1.3,MacIntel,60,m,1,0.4521,,,,,,,,0.4521,1,,,,,,20,WORD,UN,50,simple,BREAST,m,,,,,,0.454817708,0.057981771,0,0,0,,0,339,339,199,1,,
,,,,,,,,,,,,,,,,,,5ea1e178ff3ee50d69b46324,2020-08-10_16h02.15.234,lexical_decision_task_MP,2020.1.3,MacIntel,60,m,0,0.439275,,,,,,,,0.439275,0,,,,,,264,NW,UN,50,distar,VACKEL,z,,,,,,0.454817708,0.057981771,0,0,0,,0,340,340,443,1,,
,,,,,,,,,,,,,,,,,,5ea1e178ff3ee50d69b46324,2020-08-10_16h02.15.234,lexical_decision_task_MP,2020.1.3,MacIntel,60,z,1,0.85278,,,,,,,,0.85278,1,,,,,,477,NW,UN,33,lobush,PHOTIE,z,,,,,,0.454817708,0.057981771,0,0,0,,0,341,341,416,1,,
,,,,,,,,,,,,,,,,,,5ea1e178ff3ee50d69b46324,2020-08-10_16h02.15.234,lexical_decision_task_MP,2020.1.3,MacIntel,60,m,1,0.45019,,,,,,,,0.45019,1,,,,,,137,WORD,"ID",50,finger,FINGER,m,,,,,,0.454817708,0.057981771,0,0,0,,0,342,342,76,1,,
,,,,,,,,,,,,,,,,,,5ea1e178ff3ee50d69b46324,2020-08-10_16h02.15.234,lexical_decision_task_MP,2020.1.3,MacIntel,60,m,1,0.535715,,,,,,,,0.535715,1,,,,,,217,WORD,UN,33,shrink,LIQUOR,m,,,,,,0.454817708,0.057981771,0,0,0,,0,343,343,156,1,,
,,,,,,,,,,,,,,,,,,5ea1e178ff3ee50d69b46324,2020-08-10_16h02.15.234,lexical_decision_task_MP,2020.1.3,MacIntel,60,z,1,0.734275,,,,,,,,0.734275,1,,,,,,297,NW,UN,50,piergy,FERTIC,z,,,,,,0.454817708,0.057981771,0,0,0,,0,344,344,476,1,,
,,,,,,,,,,,,,,,,,,5ea1e178ff3ee50d69b46324,2020-08-10_16h02.15.234,lexical_decision_task_MP,2020.1.3,MacIntel,60,m,0,0.500515,,,,,,,,0.500515,0,,,,,,245,NW,UN,50,piaton,ANOUGS,z,,,,,,0.454817708,0.057981771,0,0,0,,0,345,345,424,1,,
,,,,,,,,,,,,,,,,,,5ea1e178ff3ee50d69b46324,2020-08-10_16h02.15.234,lexical_decision_task_MP,2020.1.3,MacIntel,60,m,0,0.68182,,,,,,,,0.68182,0,,,,,,319,NW,"ID",33,zomber,ZOMBER,z,,,,,,0.454817708,0.057981771,0,0,0,,0,346,346,258,1,,
,,,,,,,,,,,,,,,,,,5ea1e178ff3ee50d69b46324,2020-08-10_16h02.15.234,lexical_decision_task_MP,2020.1.3,MacIntel,60,m,0,0.502995,,,,,,,,0.502995,0,,,,,,358,NW,"ID",33,fleack,FLEACK,z,,,,,,0.454817708,0.057981771,0,0,0,,0,347,347,297,1,,
,,,,,,,,,,,,,,,,,,5ea1e178ff3ee50d69b46324,2020-08-10_16h02.15.234,lexical_decision_task_MP,2020.1.3,MacIntel,60,m,1,0.45243,,,,,,,,0.45243,1,,,,,,192,WORD,UN,33,object,PLAGUE,m,,,,,,0.454817708,0.057981771,0,0,0,,0,348,348,131,1,,
,,,,,,,,,,,,,,,,,,5ea1e178ff3ee50d69b46324,2020-08-10_16h02.15.234,lexical_decision_task_MP,2020.1.3,MacIntel,60,m,1,0.38518,,,,,,,,0.38518,1,,,,,,235,WORD,UN,33,pirate,GRUMPY,m,,,,,,0.454817708,0.057981771,0,0,0,,0,349,349,174,1,,
,,,,,,,,,,,,,,,,,,5ea1e178ff3ee50d69b46324,2020-08-10_16h02.15.234,lexical_decision_task_MP,2020.1.3,MacIntel,60,m,1,0.751625,,,,,,,,0.751625,1,,,,,,236,WORD,UN,33,grumpy,PIRATE,m,,,,,,0.454817708,0.057981771,0,0,0,,0,350,350,175,1,,
,,,,,,,,,,,,,,,,,,5ea1e178ff3ee50d69b46324,2020-08-10_16h02.15.234,lexical_decision_task_MP,2020.1.3,MacIntel,60,z,1,1.067985,,,,,,,,1.067985,1,,,,,,456,NW,UN,33,wanigh,BROGET,z,,,,,,0.454817708,0.057981771,0,0,0,,0,351,351,395,1,,
,,,,,,,,,,,,,,,,,,5ea1e178ff3ee50d69b46324,2020-08-10_16h02.15.234,lexical_decision_task_MP,2020.1.3,MacIntel,60,m,1,0.4887,,,,,,,,0.4887,1,,,,,,26,WORD,UN,50,butler,SPRINT,m,,,,,,0.454817708,0.057981771,0,0,0,,0,352,352,205,1,,
,,,,,,,,,,,,,,,,,,5ea1e178ff3ee50d69b46324,2020-08-10_16h02.15.234,lexical_decision_task_MP,2020.1.3,MacIntel,60,m,1,0.515795,,,,,,,,0.515795,1,,,,,,67,WORD,"ID",33,policy,POLICY,m,,,,,,0.454817708,0.057981771,0,0,0,,0,353,353,6,1,,
,,,,,,,,,,,,,,,,,,5ea1e178ff3ee50d69b46324,2020-08-10_16h02.15.234,lexical_decision_task_MP,2020.1.3,MacIntel,60,m,1,0.54819,,,,,,,,0.54819,1,,,,,,104,WORD,"ID",33,studio,STUDIO,m,,,,,,0.454817708,0.057981771,0,0,0,,0,354,354,43,1,,
,,,,,,,,,,,,,,,,,,5ea1e178ff3ee50d69b46324,2020-08-10_16h02.15.234,lexical_decision_task_MP,2020.1.3,MacIntel,60,m,1,0.432825,,,,,,,,0.432825,1,,,,,,229,WORD,UN,33,fringe,MOTHER,m,,,,,,0.454817708,0.057981771,0,0,0,,0,355,355,168,1,,
,,,,,,,,,,,,,,,,,,5ea1e178ff3ee50d69b46324,2020-08-10_16h02.15.234,lexical_decision_task_MP,2020.1.3,MacIntel,60,m,0,0.436655,,,,,,,,0.436655,0,,,,,,308,NW,"ID",33,psetch,PSETCH,z,,,,,,0.454817708,0.057981771,0,0,0,,0,356,356,247,1,,
,,,,,,,,,,,,,,,,,,5ea1e178ff3ee50d69b46324,2020-08-10_16h02.15.234,lexical_decision_task_MP,2020.1.3,MacIntel,60,z,1,0.771855,,,,,,,,0.771855,1,,,,,,290,NW,UN,50,pretch,SPLINO,z,,,,,,0.454817708,0.057981771,0,0,0,,0,357,357,469,1,,
,,,,,,,,,,,,,,,,,,5ea1e178ff3ee50d69b46324,2020-08-10_16h02.15.234,lexical_decision_task_MP,2020.1.3,MacIntel,60,m,1,0.58499,,,,,,,,0.58499,1,,,,,,66,WORD,"ID",33,gospel,GOSPEL,m,,,,,,0.454817708,0.057981771,0,0,0,,0,358,358,5,1,,
,,,,,,,,,,,,,,,,,,5ea1e178ff3ee50d69b46324,2020-08-10_16h02.15.234,lexical_decision_task_MP,2020.1.3,MacIntel,60,m,0,0.767925,,,,,,,,0.767925,0,,,,,,260,NW,UN,50,stunch,UNJECT,z,,,,,,0.454817708,0.057981771,0,0,0,,0,359,359,439,1,,
,,,,,,,,,,,,,,,,,,5ea1e178ff3ee50d69b46324,2020-08-10_16h02.15.234,lexical_decision_task_MP,2020.1.3,MacIntel,60,m,1,0.534125,,,,,,,,0.534125,1,,,,,,162,WORD,"ID",50,candle,CANDLE,m,,,,,,0.454817708,0.057981771,0,0,0,,0,360,360,101,1,,
,,,,,,,,,,,,,,,,,,5ea1e178ff3ee50d69b46324,2020-08-10_16h02.15.234,lexical_decision_task_MP,2020.1.3,MacIntel,60,m,0,0.385155,,,,,,,,0.385155,0,,,,,,423,NW,UN,33,praile,STRELD,z,,,,,,0.454817708,0.057981771,0,0,0,,0,361,361,362,1,,
,,,,,,,,,,,,,,,,,,5ea1e178ff3ee50d69b46324,2020-08-10_16h02.15.234,lexical_decision_task_MP,2020.1.3,MacIntel,60,z,1,0.83768,,,,,,,,0.83768,1,,,,,,349,NW,"ID",33,asylen,ASYLEN,z,,,,,,0.454817708,0.057981771,0,0,0,space,0,362,362,288,1,2.313595,
,,,,,,,,,,,,,,,,,,5ea1e178ff3ee50d69b46324,2020-08-10_16h02.15.234,lexical_decision_task_MP,2020.1.3,MacIntel,60,m,1,0.45339,,,,,,,,0.45339,1,,,,,,34,WORD,UN,50,socket,JUNGLE,m,,,,,,0.454817708,0.057981771,0,0,0,,0,363,363,213,1,,
,,,,,,,,,,,,,,,,,,5ea1e178ff3ee50d69b46324,2020-08-10_16h02.15.234,lexical_decision_task_MP,2020.1.3,MacIntel,60,m,1,0.37114,,,,,,,,0.37114,1,,,,,,180,WORD,"ID",50,silent,SILENT,m,,,,,,0.454817708,0.057981771,0,0,0,,0,364,364,119,1,,
,,,,,,,,,,,,,,,,,,5ea1e178ff3ee50d69b46324,2020-08-10_16h02.15.234,lexical_decision_task_MP,2020.1.3,MacIntel,60,z,1,1.06884,,,,,,,,1.06884,1,,,,,,305,NW,"ID",33,forgle,FORGLE,z,,,,,,0.454817708,0.057981771,0,0,0,,0,365,365,244,1,,
,,,,,,,,,,,,,,,,,,5ea1e178ff3ee50d69b46324,2020-08-10_16h02.15.234,lexical_decision_task_MP,2020.1.3,MacIntel,60,z,1,0.621625,,,,,,,,0.621625,1,,,,,,448,NW,UN,33,brunge,SADENT,z,,,,,,0.454817708,0.057981771,0,0,0,,0,366,366,387,1,,
,,,,,,,,,,,,,,,,,,5ea1e178ff3ee50d69b46324,2020-08-10_16h02.15.234,lexical_decision_task_MP,2020.1.3,MacIntel,60,z,1,0.499305,,,,,,,,0.499305,1,,,,,,307,NW,"ID",33,kirafe,KIRAFE,z,,,,,,0.454817708,0.057981771,0,0,0,,0,367,367,246,1,,
,,,,,,,,,,,,,,,,,,5ea1e178ff3ee50d69b46324,2020-08-10_16h02.15.234,lexical_decision_task_MP,2020.1.3,MacIntel,60,z,1,0.56781,,,,,,,,0.56781,1,,,,,,420,NW,"ID",50,gushop,GUSHOP,z,,,,,,0.454817708,0.057981771,0,0,0,,0,368,368,359,1,,
,,,,,,,,,,,,,,,,,,5ea1e178ff3ee50d69b46324,2020-08-10_16h02.15.234,lexical_decision_task_MP,2020.1.3,MacIntel,60,z,1,0.535745,,,,,,,,0.535745,1,,,,,,444,NW,UN,33,minkel,JAUNCE,z,,,,,,0.454817708,0.057981771,0,0,0,,0,369,369,383,1,,
,,,,,,,,,,,,,,,,,,5ea1e178ff3ee50d69b46324,2020-08-10_16h02.15.234,lexical_decision_task_MP,2020.1.3,MacIntel,60,m,1,0.60032,,,,,,,,0.60032,1,,,,,,85,WORD,"ID",33,sprawl,SPRAWL,m,,,,,,0.454817708,0.057981771,0,0,0,,0,370,370,24,1,,
,,,,,,,,,,,,,,,,,,5ea1e178ff3ee50d69b46324,2020-08-10_16h02.15.234,lexical_decision_task_MP,2020.1.3,MacIntel,60,z,1,0.5015,,,,,,,,0.5015,1,,,,,,467,NW,UN,33,wictor,GORBIE,z,,,,,,0.454817708,0.057981771,0,0,0,,0,371,371,406,1,,
,,,,,,,,,,,,,,,,,,5ea1e178ff3ee50d69b46324,2020-08-10_16h02.15.234,lexical_decision_task_MP,2020.1.3,MacIntel,60,z,1,0.43812,,,,,,,,0.43812,1,,,,,,244,NW,UN,50,anougs,EATRIC,z,,,,,,0.454817708,0.057981771,0,0,0,,0,372,372,423,1,,
,,,,,,,,,,,,,,,,,,5ea1e178ff3ee50d69b46324,2020-08-10_16h02.15.234,lexical_decision_task_MP,2020.1.3,MacIntel,60,z,1,0.59954,,,,,,,,0.59954,1,,,,,,327,NW,"ID",33,plenac,PLENAC,z,,,,,,0.454817708,0.057981771,0,0,0,,0,373,373,266,1,,
,,,,,,,,,,,,,,,,,,5ea1e178ff3ee50d69b46324,2020-08-10_16h02.15.234,lexical_decision_task_MP,2020.1.3,MacIntel,60,z,1,0.517525,,,,,,,,0.517525,1,,,,,,451,NW,UN,33,surden,CAINKY,z,,,,,,0.454817708,0.057981771,0,0,0,,0,374,374,390,1,,
,,,,,,,,,,,,,,,,,,5ea1e178ff3ee50d69b46324,2020-08-10_16h02.15.234,lexical_decision_task_MP,2020.1.3,MacIntel,60,z,1,0.55243,,,,,,,,0.55243,1,,,,,,418,NW,"ID",50,suidle,SUIDLE,z,,,,,,0.454817708,0.057981771,0,0,0,,0,375,375,357,1,,
,,,,,,,,,,,,,,,,,,5ea1e178ff3ee50d69b46324,2020-08-10_16h02.15.234,lexical_decision_task_MP,2020.1.3,MacIntel,60,m,1,0.60114,,,,,,,,0.60114,1,,,,,,12,WORD,UN,50,strive,ORANGE,m,,,,,,0.454817708,0.057981771,0,0,0,,0,376,376,191,1,,
,,,,,,,,,,,,,,,,,,5ea1e178ff3ee50d69b46324,2020-08-10_16h02.15.234,lexical_decision_task_MP,2020.1.3,MacIntel,60,m,1,0.38938,,,,,,,,0.38938,1,,,,,,63,WORD,"ID",33,launch,LAUNCH,m,,,,,,0.454817708,0.057981771,0,0,0,,0,377,377,2,1,,
,,,,,,,,,,,,,,,,,,5ea1e178ff3ee50d69b46324,2020-08-10_16h02.15.234,lexical_decision_task_MP,2020.1.3,MacIntel,60,z,0,0.883475,,,,,,,,0.883475,0,,,,,,212,WORD,UN,33,squeal,VERIFY,m,,,,,,0.454817708,0.057981771,0,0,0,,0,378,378,151,1,,
,,,,,,,,,,,,,,,,,,5ea1e178ff3ee50d69b46324,2020-08-10_16h02.15.234,lexical_decision_task_MP,2020.1.3,MacIntel,60,m,1,0.70547,,,,,,,,0.70547,1,,,,,,101,WORD,"ID",33,wrench,WRENCH,m,,,,,,0.454817708,0.057981771,0,0,0,,0,379,379,40,1,,
,,,,,,,,,,,,,,,,,,5ea1e178ff3ee50d69b46324,2020-08-10_16h02.15.234,lexical_decision_task_MP,2020.1.3,MacIntel,60,z,1,0.58521,,,,,,,,0.58521,1,,,,,,480,NW,UN,33,knisma,ROBULY,z,,,,,,0.454817708,0.057981771,0,0,0,,0,380,380,419,1,,
,,,,,,,,,,,,,,,,,,5ea1e178ff3ee50d69b46324,2020-08-10_16h02.15.234,lexical_decision_task_MP,2020.1.3,MacIntel,60,m,1,0.76813,,,,,,,,0.76813,1,,,,,,118,WORD,"ID",33,flight,FLIGHT,m,,,,,,0.454817708,0.057981771,0,0,0,,0,381,381,57,1,,
,,,,,,,,,,,,,,,,,,5ea1e178ff3ee50d69b46324,2020-08-10_16h02.15.234,lexical_decision_task_MP,2020.1.3,MacIntel,60,m,1,0.39798,,,,,,,,0.39798,1,,,,,,203,WORD,UN,33,burden,PHRASE,m,,,,,,0.454817708,0.057981771,0,0,0,,0,382,382,142,1,,
,,,,,,,,,,,,,,,,,,5ea1e178ff3ee50d69b46324,2020-08-10_16h02.15.234,lexical_decision_task_MP,2020.1.3,MacIntel,60,m,1,0.48404,,,,,,,,0.48404,1,,,,,,143,WORD,"ID",50,reason,REASON,m,,,,,,0.454817708,0.057981771,0,0,0,,0,383,383,82,1,,
,,,,,,,,,,,,,,,,,,5ea1e178ff3ee50d69b46324,2020-08-10_16h02.15.234,lexical_decision_task_MP,2020.1.3,MacIntel,60,z,1,1.116275,,,,,,,,1.116275,1,,,,,,426,NW,UN,33,schind,URIVEL,z,,,,,,0.454817708,0.057981771,0,0,0,,0,384,384,365,1,,
,,,,,,,,,,,,,,,,,,5ea1e178ff3ee50d69b46324,2020-08-10_16h02.15.234,lexical_decision_task_MP,2020.1.3,MacIntel,60,m,1,0.90054,,,,,,,,0.90054,1,,,,,,39,WORD,UN,50,convey,INSECT,m,,,,,,0.454817708,0.057981771,0,0,0,,0,385,385,218,1,,
,,,,,,,,,,,,,,,,,,5ea1e178ff3ee50d69b46324,2020-08-10_16h02.15.234,lexical_decision_task_MP,2020.1.3,MacIntel,60,m,0,0.402185,,,,,,,,0.402185,0,,,,,,384,NW,"ID",50,guesco,GUESCO,z,,,,,,0.454817708,0.057981771,0,0,0,,0,386,386,323,1,,
,,,,,,,,,,,,,,,,,,5ea1e178ff3ee50d69b46324,2020-08-10_16h02.15.234,lexical_decision_task_MP,2020.1.3,MacIntel,60,m,1,1.019755,,,,,,,,1.019755,1,,,,,,1,WORD,UN,50,ethnic,FRIGHT,m,,,,,,0.454817708,0.057981771,0,0,0,,0,387,387,180,1,,
,,,,,,,,,,,,,,,,,,5ea1e178ff3ee50d69b46324,2020-08-10_16h02.15.234,lexical_decision_task_MP,2020.1.3,MacIntel,60,z,1,1.651145,,,,,,,,1.651145,1,,,,,,458,NW,UN,33,hocite,BARCET,z,,,,,,0.454817708,0.057981771,0,0,0,,0,388,388,397,1,,
,,,,,,,,,,,,,,,,,,5ea1e178ff3ee50d69b46324,2020-08-10_16h02.15.234,lexical_decision_task_MP,2020.1.3,MacIntel,60,m,0,0.53401,,,,,,,,0.53401,0,,,,,,369,NW,"ID",50,wronch,WRONCH,z,,,,,,0.454817708,0.057981771,0,0,0,,0,389,389,308,1,,
,,,,,,,,,,,,,,,,,,5ea1e178ff3ee50d69b46324,2020-08-10_16h02.15.234,lexical_decision_task_MP,2020.1.3,MacIntel,60,z,1,0.9166,,,,,,,,0.9166,1,,,,,,378,NW,"ID",50,shrile,SHRILE,z,,,,,,0.454817708,0.057981771,0,0,0,,0,390,390,317,1,,
,,,,,,,,,,,,,,,,,,5ea1e178ff3ee50d69b46324,2020-08-10_16h02.15.234,lexical_decision_task_MP,2020.1.3,MacIntel,60,z,1,1.12214,,,,,,,,1.12214,1,,,,,,335,NW,"ID",33,desion,DESION,z,,,,,,0.454817708,0.057981771,0,0,0,,0,391,391,274,1,,
,,,,,,,,,,,,,,,,,,5ea1e178ff3ee50d69b46324,2020-08-10_16h02.15.234,lexical_decision_task_MP,2020.1.3,MacIntel,60,m,1,0.52159,,,,,,,,0.52159,1,,,,,,28,WORD,UN,50,sketch,COMEDY,m,,,,,,0.454817708,0.057981771,0,0,0,,0,392,392,207,1,,
,,,,,,,,,,,,,,,,,,5ea1e178ff3ee50d69b46324,2020-08-10_16h02.15.234,lexical_decision_task_MP,2020.1.3,MacIntel,60,m,1,0.584425,,,,,,,,0.584425,1,,,,,,215,WORD,UN,33,lumber,PHOBIA,m,,,,,,0.454817708,0.057981771,0,0,0,,0,393,393,154,1,,
,,,,,,,,,,,,,,,,,,5ea1e178ff3ee50d69b46324,2020-08-10_16h02.15.234,lexical_decision_task_MP,2020.1.3,MacIntel,60,m,1,0.41501,,,,,,,,0.41501,1,,,,,,140,WORD,"ID",50,prince,PRINCE,m,,,,,,0.454817708,0.057981771,0,0,0,,0,394,394,79,1,,
,,,,,,,,,,,,,,,,,,5ea1e178ff3ee50d69b46324,2020-08-10_16h02.15.234,lexical_decision_task_MP,2020.1.3,MacIntel,60,m,0,0.467625,,,,,,,,0.467625,0,,,,,,261,NW,UN,50,quilew,STUNCH,z,,,,,,0.454817708,0.057981771,0,0,0,,0,395,395,440,1,,
,,,,,,,,,,,,,,,,,,5ea1e178ff3ee50d69b46324,2020-08-10_16h02.15.234,lexical_decision_task_MP,2020.1.3,MacIntel,60,z,1,0.832115,,,,,,,,0.832115,1,,,,,,311,NW,"ID",33,sproly,SPROLY,z,,,,,,0.454817708,0.057981771,0,0,0,,0,396,396,250,1,,
,,,,,,,,,,,,,,,,,,5ea1e178ff3ee50d69b46324,2020-08-10_16h02.15.234,lexical_decision_task_MP,2020.1.3,MacIntel,60,m,0,0.51737,,,,,,,,0.51737,0,,,,,,397,NW,"ID",50,camble,CAMBLE,z,,,,,,0.454817708,0.057981771,0,0,0,,0,397,397,336,1,,
