counterbalancing_condition,instr_done_keyboard.keys,instr_done_keyboard.rt,instr_done_touch.x,instr_done_touch.y,instr_done_touch.leftButton,instr_done_touch.midButton,instr_done_touch.rightButton,instruction_pages.thisRepN,instruction_pages.thisTrialN,instruction_pages.thisN,instruction_pages.thisIndex,instruction_pages.ran,pageN,phase,instruct_text,has_image,instruct_image,participant,date,expName,psychopyVersion,OS,frameRate,response.keys,response.corr,response.rt,touch_resp.x,touch_resp.y,touch_resp.leftButton,touch_resp.midButton,touch_resp.rightButton,touch_resp.time,touch_resp.clicked_name,rt,corr,practice_trials.thisRepN,practice_trials.thisTrialN,practice_trials.thisN,practice_trials.thisIndex,practice_trials.ran,TrialID,StimulusType,Condition,PrimeDuration,Prime,Target,corrAns,end_of_practice_trials_pages.thisRepN,end_of_practice_trials_pages.thisTrialN,end_of_practice_trials_pages.thisN,end_of_practice_trials_pages.thisIndex,end_of_practice_trials_pages.ran,break_done_touch.x,break_done_touch.y,break_done_touch.leftButton,break_done_touch.midButton,break_done_touch.rightButton,break_done_keyboard.keys,trials.thisRepN,trials.thisTrialN,trials.thisN,trials.thisIndex,trials.ran,break_done_keyboard.rt,trials.order
1,space,3.21109,-0.03009251,-0.394907491,0,0,0,0,0,0,0,1,1,instructions,"INSTRUCTIONS
At the start of each trial, look at the hash marks (######) in the center of the screen. After a moment, a string of letters will appear. Your task is to indicate if the letter string forms a word or not (i.e., if it is a nonword). For example, AUTHOR is a word while AUTHON is a nonword.

Press the space bar or touch the button below to continue.",0,,5ea5b7467bc3955b6bf0a1ca,2020-08-10_17h54.17.720,lexical_decision_task_MP,2020.1.3,Win32,60,,,,,,,,,,,,,,,,,,,,,,,,,,,,,,,,,,,,,,,,,,
,space,7.451175,-0.03009251,-0.394907491,0,0,0,0,1,1,1,1,2,instructions,"If your device has a keyboard, press the 'Z' key for nonwords and the 'M' key for words.





Press the space bar or touch the button below to continue.",1,keyboard-example.gif,5ea5b7467bc3955b6bf0a1ca,2020-08-10_17h54.17.720,lexical_decision_task_MP,2020.1.3,Win32,60,,,,,,,,,,,,,,,,,,,,,,,,,,,,,,,,,,,,,,,,,,
,space,1.25446,-0.03009251,-0.394907491,0,0,0,0,2,2,2,1,3,instructions,"If you are using a touchscreen only device, use the buttons on the screen. Do not use the mouse.





Press the space bar or touch the button below to continue.",1,touchscreen-example.gif,5ea5b7467bc3955b6bf0a1ca,2020-08-10_17h54.17.720,lexical_decision_task_MP,2020.1.3,Win32,60,,,,,,,,,,,,,,,,,,,,,,,,,,,,,,,,,,,,,,,,,,
,space,1.29226,-0.03009251,-0.394907491,0,0,0,0,3,3,3,1,4,instructions,"It is very important that you respond as quickly and accurately as possible, as each letter string will only be on the screen for two seconds. If you do not respond within this time, the message 'Too slow!' will be displayed and the experiment will progress to the next letter string. The first 20 trials will be practice trials and you will receive feedback on your answers. 

Press the space bar or touch the button below to start the practice trials.",0,,5ea5b7467bc3955b6bf0a1ca,2020-08-10_17h54.17.720,lexical_decision_task_MP,2020.1.3,Win32,60,,,,,,,,,,,,,,,,,,,,,,,,,,,,,,,,,,,,,,,,,,
,,,,,,,,,,,,,,,,,,5ea5b7467bc3955b6bf0a1ca,2020-08-10_17h54.17.720,lexical_decision_task_MP,2020.1.3,Win32,60,z,1,0.80825,,,,,,,,0.80825,1,0,0,0,15,1,1016,NW,UN,50,mushed,WHAISE,z,,,,,,,,,,,,,,,,,,
,,,,,,,,,,,,,,,,,,5ea5b7467bc3955b6bf0a1ca,2020-08-10_17h54.17.720,lexical_decision_task_MP,2020.1.3,Win32,60,z,1,0.58064,,,,,,,,0.58064,1,0,1,1,14,1,1015,NW,UN,50,miaber,THRALE,z,,,,,,,,,,,,,,,,,,
,,,,,,,,,,,,,,,,,,5ea5b7467bc3955b6bf0a1ca,2020-08-10_17h54.17.720,lexical_decision_task_MP,2020.1.3,Win32,60,z,1,0.51144,,,,,,,,0.51144,1,0,2,2,8,1,1009,NW,"ID",33,aslert,ASLERT,z,,,,,,,,,,,,,,,,,,
,,,,,,,,,,,,,,,,,,5ea5b7467bc3955b6bf0a1ca,2020-08-10_17h54.17.720,lexical_decision_task_MP,2020.1.3,Win32,60,m,1,0.417145,,,,,,,,0.417145,1,0,3,3,2,1,1003,WORD,"ID",50,almond,ALMOND,m,,,,,,,,,,,,,,,,,,
,,,,,,,,,,,,,,,,,,5ea5b7467bc3955b6bf0a1ca,2020-08-10_17h54.17.720,lexical_decision_task_MP,2020.1.3,Win32,60,m,1,0.495825,,,,,,,,0.495825,1,0,4,4,0,1,1001,WORD,"ID",33,utopia,UTOPIA,m,,,,,,,,,,,,,,,,,,
,,,,,,,,,,,,,,,,,,5ea5b7467bc3955b6bf0a1ca,2020-08-10_17h54.17.720,lexical_decision_task_MP,2020.1.3,Win32,60,m,1,0.57883,,,,,,,,0.57883,1,0,5,5,4,1,1005,WORD,UN,33,abound,SQUEAK,m,,,,,,,,,,,,,,,,,,
,,,,,,,,,,,,,,,,,,5ea5b7467bc3955b6bf0a1ca,2020-08-10_17h54.17.720,lexical_decision_task_MP,2020.1.3,Win32,60,m,0,0.793615,,,,,,,,0.793615,0,0,6,6,12,1,1013,NW,UN,33,adveil,SPRINY,z,,,,,,,,,,,,,,,,,,
,,,,,,,,,,,,,,,,,,5ea5b7467bc3955b6bf0a1ca,2020-08-10_17h54.17.720,lexical_decision_task_MP,2020.1.3,Win32,60,m,1,0.60334,,,,,,,,0.60334,1,0,7,7,6,1,1007,WORD,UN,50,tropic,ZOMBIE,m,,,,,,,,,,,,,,,,,,
,,,,,,,,,,,,,,,,,,5ea5b7467bc3955b6bf0a1ca,2020-08-10_17h54.17.720,lexical_decision_task_MP,2020.1.3,Win32,60,m,1,0.55598,,,,,,,,0.55598,1,0,8,8,5,1,1006,WORD,UN,33,frenzy,OBTAIN,m,,,,,,,,,,,,,,,,,,
,,,,,,,,,,,,,,,,,,5ea5b7467bc3955b6bf0a1ca,2020-08-10_17h54.17.720,lexical_decision_task_MP,2020.1.3,Win32,60,m,1,0.6181,,,,,,,,0.6181,1,0,9,9,1,1,1002,WORD,"ID",33,adjust,ADJUST,m,,,,,,,,,,,,,,,,,,
,,,,,,,,,,,,,,,,,,5ea5b7467bc3955b6bf0a1ca,2020-08-10_17h54.17.720,lexical_decision_task_MP,2020.1.3,Win32,60,z,1,0.70506,,,,,,,,0.70506,1,0,10,10,9,1,1010,NW,"ID",33,fariny,FARINY,z,,,,,,,,,,,,,,,,,,
,,,,,,,,,,,,,,,,,,5ea5b7467bc3955b6bf0a1ca,2020-08-10_17h54.17.720,lexical_decision_task_MP,2020.1.3,Win32,60,z,1,0.545225,,,,,,,,0.545225,1,0,11,11,13,1,1014,NW,UN,33,winfer,ROUPET,z,,,,,,,,,,,,,,,,,,
,,,,,,,,,,,,,,,,,,5ea5b7467bc3955b6bf0a1ca,2020-08-10_17h54.17.720,lexical_decision_task_MP,2020.1.3,Win32,60,m,1,0.593105,,,,,,,,0.593105,1,0,12,12,7,1,1008,WORD,UN,50,hurdle,VOLUME,m,,,,,,,,,,,,,,,,,,
,,,,,,,,,,,,,,,,,,5ea5b7467bc3955b6bf0a1ca,2020-08-10_17h54.17.720,lexical_decision_task_MP,2020.1.3,Win32,60,z,1,0.66452,,,,,,,,0.66452,1,0,13,13,11,1,1012,NW,"ID",50,rashet,RASHET,z,,,,,,,,,,,,,,,,,,
,,,,,,,,,,,,,,,,,,5ea5b7467bc3955b6bf0a1ca,2020-08-10_17h54.17.720,lexical_decision_task_MP,2020.1.3,Win32,60,m,0,0.56737,,,,,,,,0.56737,0,0,14,14,10,1,1011,NW,"ID",50,inlade,INLADE,z,,,,,,,,,,,,,,,,,,
,,,,,,,,,,,,,,,,,,5ea5b7467bc3955b6bf0a1ca,2020-08-10_17h54.17.720,lexical_decision_task_MP,2020.1.3,Win32,60,z,0,0.56788,,,,,,,,0.56788,0,0,15,15,3,1,1004,WORD,"ID",50,matrix,MATRIX,m,,,,,,,,,,,,,,,,,,
,space,5.410455,-0.03009251,-0.394907491,0,0,0,,,,,,1,end_of_practice,"You have completed the practice trials. During the experimental trials, you will not receive feedback, but it is very important that you respond as quickly and accurately as possible. 
Before you begin, please ensure that you are in a comfortable and quiet location and will not be disturbed for about 15 minutes, as we cannot use your data if you do not complete all the trials. 
There will be opportunities to take breaks at regular intervals during the experiment. When you are ready to start the experimental trials, please press space or touch the button below.",,,5ea5b7467bc3955b6bf0a1ca,2020-08-10_17h54.17.720,lexical_decision_task_MP,2020.1.3,Win32,60,,,,,,,,,,,,,,,,,,,,,,,,,0,0,0,0,1,,,,,,,,,,,,,
,,,,,,,,,,,,,,,,,,5ea5b7467bc3955b6bf0a1ca,2020-08-10_17h54.17.720,lexical_decision_task_MP,2020.1.3,Win32,60,m,1,1.018885,,,,,,,,1.018885,1,,,,,,39,WORD,"ID",33,insect,INSECT,m,,,,,,-0.03009251,-0.394907491,0,0,0,,0,0,0,38,1,,
,,,,,,,,,,,,,,,,,,5ea5b7467bc3955b6bf0a1ca,2020-08-10_17h54.17.720,lexical_decision_task_MP,2020.1.3,Win32,60,m,1,0.9002,,,,,,,,0.9002,1,,,,,,126,WORD,UN,33,castle,ENOUGH,m,,,,,,-0.03009251,-0.394907491,0,0,0,,0,1,1,125,1,,
,,,,,,,,,,,,,,,,,,5ea5b7467bc3955b6bf0a1ca,2020-08-10_17h54.17.720,lexical_decision_task_MP,2020.1.3,Win32,60,z,1,0.717975,,,,,,,,0.717975,1,,,,,,332,NW,"ID",50,vangue,VANGUE,z,,,,,,-0.03009251,-0.394907491,0,0,0,,0,2,2,331,1,,
,,,,,,,,,,,,,,,,,,5ea5b7467bc3955b6bf0a1ca,2020-08-10_17h54.17.720,lexical_decision_task_MP,2020.1.3,Win32,60,m,1,0.62737,,,,,,,,0.62737,1,,,,,,127,WORD,UN,33,senior,CASTLE,m,,,,,,-0.03009251,-0.394907491,0,0,0,,0,3,3,126,1,,
,,,,,,,,,,,,,,,,,,5ea5b7467bc3955b6bf0a1ca,2020-08-10_17h54.17.720,lexical_decision_task_MP,2020.1.3,Win32,60,z,0,1.238245,,,,,,,,1.238245,0,,,,,,218,WORD,UN,50,bucket,SHRINK,m,,,,,,-0.03009251,-0.394907491,0,0,0,,0,4,4,217,1,,
,,,,,,,,,,,,,,,,,,5ea5b7467bc3955b6bf0a1ca,2020-08-10_17h54.17.720,lexical_decision_task_MP,2020.1.3,Win32,60,z,1,0.75455,,,,,,,,0.75455,1,,,,,,315,NW,"ID",50,laston,LASTON,z,,,,,,-0.03009251,-0.394907491,0,0,0,,0,5,5,314,1,,
,,,,,,,,,,,,,,,,,,5ea5b7467bc3955b6bf0a1ca,2020-08-10_17h54.17.720,lexical_decision_task_MP,2020.1.3,Win32,60,m,1,0.588715,,,,,,,,0.588715,1,,,,,,231,WORD,UN,50,mother,EXPORT,m,,,,,,-0.03009251,-0.394907491,0,0,0,,0,6,6,230,1,,
,,,,,,,,,,,,,,,,,,5ea5b7467bc3955b6bf0a1ca,2020-08-10_17h54.17.720,lexical_decision_task_MP,2020.1.3,Win32,60,m,1,0.5201,,,,,,,,0.5201,1,,,,,,102,WORD,"ID",50,direct,DIRECT,m,,,,,,-0.03009251,-0.394907491,0,0,0,,0,7,7,101,1,,
,,,,,,,,,,,,,,,,,,5ea5b7467bc3955b6bf0a1ca,2020-08-10_17h54.17.720,lexical_decision_task_MP,2020.1.3,Win32,60,m,1,0.71759,,,,,,,,0.71759,1,,,,,,141,WORD,UN,33,spruce,ORPHAN,m,,,,,,-0.03009251,-0.394907491,0,0,0,,0,8,8,140,1,,
,,,,,,,,,,,,,,,,,,5ea5b7467bc3955b6bf0a1ca,2020-08-10_17h54.17.720,lexical_decision_task_MP,2020.1.3,Win32,60,m,1,0.71862,,,,,,,,0.71862,1,,,,,,206,WORD,UN,50,wreath,TAILOR,m,,,,,,-0.03009251,-0.394907491,0,0,0,,0,9,9,205,1,,
,,,,,,,,,,,,,,,,,,5ea5b7467bc3955b6bf0a1ca,2020-08-10_17h54.17.720,lexical_decision_task_MP,2020.1.3,Win32,60,z,0,1.04097,,,,,,,,1.04097,0,,,,,,212,WORD,UN,50,squeal,VERIFY,m,,,,,,-0.03009251,-0.394907491,0,0,0,,0,10,10,211,1,,
,,,,,,,,,,,,,,,,,,5ea5b7467bc3955b6bf0a1ca,2020-08-10_17h54.17.720,lexical_decision_task_MP,2020.1.3,Win32,60,m,0,0.45136,,,,,,,,0.45136,0,,,,,,373,NW,UN,33,injore,BIGENT,z,,,,,,-0.03009251,-0.394907491,0,0,0,,0,11,11,372,1,,
,,,,,,,,,,,,,,,,,,5ea5b7467bc3955b6bf0a1ca,2020-08-10_17h54.17.720,lexical_decision_task_MP,2020.1.3,Win32,60,z,0,0.394315,,,,,,,,0.394315,0,,,,,,31,WORD,"ID",33,weapon,WEAPON,m,,,,,,-0.03009251,-0.394907491,0,0,0,,0,12,12,30,1,,
,,,,,,,,,,,,,,,,,,5ea5b7467bc3955b6bf0a1ca,2020-08-10_17h54.17.720,lexical_decision_task_MP,2020.1.3,Win32,60,m,1,0.739205,,,,,,,,0.739205,1,,,,,,162,WORD,UN,33,string,CANDLE,m,,,,,,-0.03009251,-0.394907491,0,0,0,,0,13,13,161,1,,
,,,,,,,,,,,,,,,,,,5ea5b7467bc3955b6bf0a1ca,2020-08-10_17h54.17.720,lexical_decision_task_MP,2020.1.3,Win32,60,m,1,0.543165,,,,,,,,0.543165,1,,,,,,11,WORD,"ID",33,cruise,CRUISE,m,,,,,,-0.03009251,-0.394907491,0,0,0,,0,14,14,10,1,,
,,,,,,,,,,,,,,,,,,5ea5b7467bc3955b6bf0a1ca,2020-08-10_17h54.17.720,lexical_decision_task_MP,2020.1.3,Win32,60,m,1,0.58546,,,,,,,,0.58546,1,,,,,,238,WORD,UN,50,grumpy,FLOWER,m,,,,,,-0.03009251,-0.394907491,0,0,0,,0,15,15,237,1,,
,,,,,,,,,,,,,,,,,,5ea5b7467bc3955b6bf0a1ca,2020-08-10_17h54.17.720,lexical_decision_task_MP,2020.1.3,Win32,60,z,1,0.83458,,,,,,,,0.83458,1,,,,,,411,NW,UN,33,jiluer,ORCHIN,z,,,,,,-0.03009251,-0.394907491,0,0,0,,0,16,16,410,1,,
,,,,,,,,,,,,,,,,,,5ea5b7467bc3955b6bf0a1ca,2020-08-10_17h54.17.720,lexical_decision_task_MP,2020.1.3,Win32,60,m,1,0.585165,,,,,,,,0.585165,1,,,,,,161,WORD,UN,33,candle,PASTOR,m,,,,,,-0.03009251,-0.394907491,0,0,0,,0,17,17,160,1,,
,,,,,,,,,,,,,,,,,,5ea5b7467bc3955b6bf0a1ca,2020-08-10_17h54.17.720,lexical_decision_task_MP,2020.1.3,Win32,60,z,1,0.68853,,,,,,,,0.68853,1,,,,,,388,NW,UN,33,witmer,CRAGIN,z,,,,,,-0.03009251,-0.394907491,0,0,0,,0,18,18,387,1,,
,,,,,,,,,,,,,,,,,,5ea5b7467bc3955b6bf0a1ca,2020-08-10_17h54.17.720,lexical_decision_task_MP,2020.1.3,Win32,60,z,1,0.62685,,,,,,,,0.62685,1,,,,,,242,NW,"ID",33,unwert,UNWERT,z,,,,,,-0.03009251,-0.394907491,0,0,0,,0,19,19,241,1,,
,,,,,,,,,,,,,,,,,,5ea5b7467bc3955b6bf0a1ca,2020-08-10_17h54.17.720,lexical_decision_task_MP,2020.1.3,Win32,60,z,1,0.6011,,,,,,,,0.6011,1,,,,,,251,NW,"ID",33,lupict,LUPICT,z,,,,,,-0.03009251,-0.394907491,0,0,0,,0,20,20,250,1,,
,,,,,,,,,,,,,,,,,,5ea5b7467bc3955b6bf0a1ca,2020-08-10_17h54.17.720,lexical_decision_task_MP,2020.1.3,Win32,60,z,1,0.78364,,,,,,,,0.78364,1,,,,,,475,NW,UN,50,robuly,PEBRIC,z,,,,,,-0.03009251,-0.394907491,0,0,0,,0,21,21,474,1,,
,,,,,,,,,,,,,,,,,,5ea5b7467bc3955b6bf0a1ca,2020-08-10_17h54.17.720,lexical_decision_task_MP,2020.1.3,Win32,60,z,1,0.609755,,,,,,,,0.609755,1,,,,,,479,NW,UN,50,josted,LOBUSH,z,,,,,,-0.03009251,-0.394907491,0,0,0,,0,22,22,478,1,,
,,,,,,,,,,,,,,,,,,5ea5b7467bc3955b6bf0a1ca,2020-08-10_17h54.17.720,lexical_decision_task_MP,2020.1.3,Win32,60,z,1,0.60922,,,,,,,,0.60922,1,,,,,,430,NW,UN,50,funtle,CAROEY,z,,,,,,-0.03009251,-0.394907491,0,0,0,,0,23,23,429,1,,
,,,,,,,,,,,,,,,,,,5ea5b7467bc3955b6bf0a1ca,2020-08-10_17h54.17.720,lexical_decision_task_MP,2020.1.3,Win32,60,m,1,0.584265,,,,,,,,0.584265,1,,,,,,46,WORD,"ID",33,single,SINGLE,m,,,,,,-0.03009251,-0.394907491,0,0,0,,0,24,24,45,1,,
,,,,,,,,,,,,,,,,,,5ea5b7467bc3955b6bf0a1ca,2020-08-10_17h54.17.720,lexical_decision_task_MP,2020.1.3,Win32,60,z,1,0.815185,,,,,,,,0.815185,1,,,,,,351,NW,"ID",50,tiesch,TIESCH,z,,,,,,-0.03009251,-0.394907491,0,0,0,,0,25,25,350,1,,
,,,,,,,,,,,,,,,,,,5ea5b7467bc3955b6bf0a1ca,2020-08-10_17h54.17.720,lexical_decision_task_MP,2020.1.3,Win32,60,m,1,0.555205,,,,,,,,0.555205,1,,,,,,208,WORD,UN,50,search,HOCKEY,m,,,,,,-0.03009251,-0.394907491,0,0,0,,0,26,26,207,1,,
,,,,,,,,,,,,,,,,,,5ea5b7467bc3955b6bf0a1ca,2020-08-10_17h54.17.720,lexical_decision_task_MP,2020.1.3,Win32,60,z,0,0.56933,,,,,,,,0.56933,0,,,,,,183,WORD,UN,50,sleazy,MILDEW,m,,,,,,-0.03009251,-0.394907491,0,0,0,,0,27,27,182,1,,
,,,,,,,,,,,,,,,,,,5ea5b7467bc3955b6bf0a1ca,2020-08-10_17h54.17.720,lexical_decision_task_MP,2020.1.3,Win32,60,m,1,0.640945,,,,,,,,0.640945,1,,,,,,205,WORD,UN,50,tailor,LOUNGE,m,,,,,,-0.03009251,-0.394907491,0,0,0,,0,28,28,204,1,,
,,,,,,,,,,,,,,,,,,5ea5b7467bc3955b6bf0a1ca,2020-08-10_17h54.17.720,lexical_decision_task_MP,2020.1.3,Win32,60,z,1,0.9348,,,,,,,,0.9348,1,,,,,,346,NW,"ID",50,saudic,SAUDIC,z,,,,,,-0.03009251,-0.394907491,0,0,0,,0,29,29,345,1,,
,,,,,,,,,,,,,,,,,,5ea5b7467bc3955b6bf0a1ca,2020-08-10_17h54.17.720,lexical_decision_task_MP,2020.1.3,Win32,60,m,1,0.64227,,,,,,,,0.64227,1,,,,,,121,WORD,UN,33,linger,THRIVE,m,,,,,,-0.03009251,-0.394907491,0,0,0,,0,30,30,120,1,,
,,,,,,,,,,,,,,,,,,5ea5b7467bc3955b6bf0a1ca,2020-08-10_17h54.17.720,lexical_decision_task_MP,2020.1.3,Win32,60,m,1,0.66736,,,,,,,,0.66736,1,,,,,,215,WORD,UN,50,behalf,PHOBIA,m,,,,,,-0.03009251,-0.394907491,0,0,0,,0,31,31,214,1,,
,,,,,,,,,,,,,,,,,,5ea5b7467bc3955b6bf0a1ca,2020-08-10_17h54.17.720,lexical_decision_task_MP,2020.1.3,Win32,60,m,1,0.65786,,,,,,,,0.65786,1,,,,,,224,WORD,UN,50,vulgar,PERIOD,m,,,,,,-0.03009251,-0.394907491,0,0,0,,0,32,32,223,1,,
,,,,,,,,,,,,,,,,,,5ea5b7467bc3955b6bf0a1ca,2020-08-10_17h54.17.720,lexical_decision_task_MP,2020.1.3,Win32,60,z,1,0.706505,,,,,,,,0.706505,1,,,,,,325,NW,"ID",50,thruse,THRUSE,z,,,,,,-0.03009251,-0.394907491,0,0,0,,0,33,33,324,1,,
,,,,,,,,,,,,,,,,,,5ea5b7467bc3955b6bf0a1ca,2020-08-10_17h54.17.720,lexical_decision_task_MP,2020.1.3,Win32,60,z,0,0.619215,,,,,,,,0.619215,0,,,,,,41,WORD,"ID",33,spring,SPRING,m,,,,,,-0.03009251,-0.394907491,0,0,0,,0,34,34,40,1,,
,,,,,,,,,,,,,,,,,,5ea5b7467bc3955b6bf0a1ca,2020-08-10_17h54.17.720,lexical_decision_task_MP,2020.1.3,Win32,60,m,1,0.617615,,,,,,,,0.617615,1,,,,,,7,WORD,"ID",33,anchor,ANCHOR,m,,,,,,-0.03009251,-0.394907491,0,0,0,,0,35,35,6,1,,
,,,,,,,,,,,,,,,,,,5ea5b7467bc3955b6bf0a1ca,2020-08-10_17h54.17.720,lexical_decision_task_MP,2020.1.3,Win32,60,z,1,0.56748,,,,,,,,0.56748,1,,,,,,394,NW,UN,33,colury,SPAQUX,z,,,,,,-0.03009251,-0.394907491,0,0,0,,0,36,36,393,1,,
,,,,,,,,,,,,,,,,,,5ea5b7467bc3955b6bf0a1ca,2020-08-10_17h54.17.720,lexical_decision_task_MP,2020.1.3,Win32,60,z,0,0.80398,,,,,,,,0.80398,0,,,,,,45,WORD,"ID",33,clergy,CLERGY,m,,,,,,-0.03009251,-0.394907491,0,0,0,,0,37,37,44,1,,
,,,,,,,,,,,,,,,,,,5ea5b7467bc3955b6bf0a1ca,2020-08-10_17h54.17.720,lexical_decision_task_MP,2020.1.3,Win32,60,z,0,0.7362,,,,,,,,0.7362,0,,,,,,120,WORD,"ID",50,strain,STRAIN,m,,,,,,-0.03009251,-0.394907491,0,0,0,,0,38,38,119,1,,
,,,,,,,,,,,,,,,,,,5ea5b7467bc3955b6bf0a1ca,2020-08-10_17h54.17.720,lexical_decision_task_MP,2020.1.3,Win32,60,m,0,0.805175,,,,,,,,0.805175,0,,,,,,289,NW,"ID",33,starby,STARBY,z,,,,,,-0.03009251,-0.394907491,0,0,0,,0,39,39,288,1,,
,,,,,,,,,,,,,,,,,,5ea5b7467bc3955b6bf0a1ca,2020-08-10_17h54.17.720,lexical_decision_task_MP,2020.1.3,Win32,60,m,0,0.701685,,,,,,,,0.701685,0,,,,,,339,NW,"ID",50,fachow,FACHOW,z,,,,,,-0.03009251,-0.394907491,0,0,0,,0,40,40,338,1,,
,,,,,,,,,,,,,,,,,,5ea5b7467bc3955b6bf0a1ca,2020-08-10_17h54.17.720,lexical_decision_task_MP,2020.1.3,Win32,60,m,0,0.65709,,,,,,,,0.65709,0,,,,,,283,NW,"ID",33,veralf,VERALF,z,,,,,,-0.03009251,-0.394907491,0,0,0,,0,41,41,282,1,,
,,,,,,,,,,,,,,,,,,5ea5b7467bc3955b6bf0a1ca,2020-08-10_17h54.17.720,lexical_decision_task_MP,2020.1.3,Win32,60,m,1,1.034705,,,,,,,,1.034705,1,,,,,,50,WORD,"ID",33,snatch,SNATCH,m,,,,,,-0.03009251,-0.394907491,0,0,0,,0,42,42,49,1,,
,,,,,,,,,,,,,,,,,,5ea5b7467bc3955b6bf0a1ca,2020-08-10_17h54.17.720,lexical_decision_task_MP,2020.1.3,Win32,60,z,1,1.419865,,,,,,,,1.419865,1,,,,,,418,NW,UN,33,slount,SUIDLE,z,,,,,,-0.03009251,-0.394907491,0,0,0,,0,43,43,417,1,,
,,,,,,,,,,,,,,,,,,5ea5b7467bc3955b6bf0a1ca,2020-08-10_17h54.17.720,lexical_decision_task_MP,2020.1.3,Win32,60,z,1,0.885065,,,,,,,,0.885065,1,,,,,,244,NW,"ID",33,eatric,EATRIC,z,,,,,,-0.03009251,-0.394907491,0,0,0,,0,44,44,243,1,,
,,,,,,,,,,,,,,,,,,5ea5b7467bc3955b6bf0a1ca,2020-08-10_17h54.17.720,lexical_decision_task_MP,2020.1.3,Win32,60,m,1,0.7593,,,,,,,,0.7593,1,,,,,,40,WORD,"ID",33,convey,CONVEY,m,,,,,,-0.03009251,-0.394907491,0,0,0,,0,45,45,39,1,,
,,,,,,,,,,,,,,,,,,5ea5b7467bc3955b6bf0a1ca,2020-08-10_17h54.17.720,lexical_decision_task_MP,2020.1.3,Win32,60,z,1,0.817635,,,,,,,,0.817635,1,,,,,,400,NW,UN,33,mustil,WEAROX,z,,,,,,-0.03009251,-0.394907491,0,0,0,,0,46,46,399,1,,
,,,,,,,,,,,,,,,,,,5ea5b7467bc3955b6bf0a1ca,2020-08-10_17h54.17.720,lexical_decision_task_MP,2020.1.3,Win32,60,m,1,0.73356,,,,,,,,0.73356,1,,,,,,236,WORD,UN,50,poster,PIRATE,m,,,,,,-0.03009251,-0.394907491,0,0,0,,0,47,47,235,1,,
,,,,,,,,,,,,,,,,,,5ea5b7467bc3955b6bf0a1ca,2020-08-10_17h54.17.720,lexical_decision_task_MP,2020.1.3,Win32,60,m,1,0.688205,,,,,,,,0.688205,1,,,,,,193,WORD,UN,50,plague,OBJECT,m,,,,,,-0.03009251,-0.394907491,0,0,0,,0,48,48,192,1,,
,,,,,,,,,,,,,,,,,,5ea5b7467bc3955b6bf0a1ca,2020-08-10_17h54.17.720,lexical_decision_task_MP,2020.1.3,Win32,60,z,1,0.835195,,,,,,,,0.835195,1,,,,,,450,NW,UN,50,rastoe,PHRECT,z,,,,,,-0.03009251,-0.394907491,0,0,0,,0,49,49,449,1,,
,,,,,,,,,,,,,,,,,,5ea5b7467bc3955b6bf0a1ca,2020-08-10_17h54.17.720,lexical_decision_task_MP,2020.1.3,Win32,60,z,1,0.68789,,,,,,,,0.68789,1,,,,,,349,NW,"ID",50,asylen,ASYLEN,z,,,,,,-0.03009251,-0.394907491,0,0,0,,0,50,50,348,1,,
,,,,,,,,,,,,,,,,,,5ea5b7467bc3955b6bf0a1ca,2020-08-10_17h54.17.720,lexical_decision_task_MP,2020.1.3,Win32,60,z,1,0.91633,,,,,,,,0.91633,1,,,,,,340,NW,"ID",50,fiatch,FIATCH,z,,,,,,-0.03009251,-0.394907491,0,0,0,,0,51,51,339,1,,
,,,,,,,,,,,,,,,,,,5ea5b7467bc3955b6bf0a1ca,2020-08-10_17h54.17.720,lexical_decision_task_MP,2020.1.3,Win32,60,z,1,0.6904,,,,,,,,0.6904,1,,,,,,310,NW,"ID",50,daniet,DANIET,z,,,,,,-0.03009251,-0.394907491,0,0,0,,0,52,52,309,1,,
,,,,,,,,,,,,,,,,,,5ea5b7467bc3955b6bf0a1ca,2020-08-10_17h54.17.720,lexical_decision_task_MP,2020.1.3,Win32,60,z,1,0.751365,,,,,,,,0.751365,1,,,,,,375,NW,UN,33,iguare,YORQUE,z,,,,,,-0.03009251,-0.394907491,0,0,0,,0,53,53,374,1,,
,,,,,,,,,,,,,,,,,,5ea5b7467bc3955b6bf0a1ca,2020-08-10_17h54.17.720,lexical_decision_task_MP,2020.1.3,Win32,60,m,1,0.613665,,,,,,,,0.613665,1,,,,,,113,WORD,"ID",50,chorus,CHORUS,m,,,,,,-0.03009251,-0.394907491,0,0,0,,0,54,54,112,1,,
,,,,,,,,,,,,,,,,,,5ea5b7467bc3955b6bf0a1ca,2020-08-10_17h54.17.720,lexical_decision_task_MP,2020.1.3,Win32,60,z,1,0.830635,,,,,,,,0.830635,1,,,,,,407,NW,UN,33,hurnia,SUIVER,z,,,,,,-0.03009251,-0.394907491,0,0,0,,0,55,55,406,1,,
,,,,,,,,,,,,,,,,,,5ea5b7467bc3955b6bf0a1ca,2020-08-10_17h54.17.720,lexical_decision_task_MP,2020.1.3,Win32,60,m,1,0.734815,,,,,,,,0.734815,1,,,,,,203,WORD,UN,50,burden,PHRASE,m,,,,,,-0.03009251,-0.394907491,0,0,0,,0,56,56,202,1,,
,,,,,,,,,,,,,,,,,,5ea5b7467bc3955b6bf0a1ca,2020-08-10_17h54.17.720,lexical_decision_task_MP,2020.1.3,Win32,60,m,0,0.665555,,,,,,,,0.665555,0,,,,,,324,NW,"ID",50,steikh,STEIKH,z,,,,,,-0.03009251,-0.394907491,0,0,0,,0,57,57,323,1,,
,,,,,,,,,,,,,,,,,,5ea5b7467bc3955b6bf0a1ca,2020-08-10_17h54.17.720,lexical_decision_task_MP,2020.1.3,Win32,60,m,1,0.574935,,,,,,,,0.574935,1,,,,,,81,WORD,"ID",50,friend,FRIEND,m,,,,,,-0.03009251,-0.394907491,0,0,0,,0,58,58,80,1,,
,,,,,,,,,,,,,,,,,,5ea5b7467bc3955b6bf0a1ca,2020-08-10_17h54.17.720,lexical_decision_task_MP,2020.1.3,Win32,60,m,1,0.58744,,,,,,,,0.58744,1,,,,,,94,WORD,"ID",50,travel,TRAVEL,m,,,,,,-0.03009251,-0.394907491,0,0,0,,0,59,59,93,1,,
,,,,,,,,,,,,,,,,,,5ea5b7467bc3955b6bf0a1ca,2020-08-10_17h54.17.720,lexical_decision_task_MP,2020.1.3,Win32,60,z,1,0.650765,,,,,,,,0.650765,1,,,,,,422,NW,UN,50,streld,ALCOUD,z,,,,,,-0.03009251,-0.394907491,0,0,0,,0,60,60,421,1,,
,,,,,,,,,,,,,,,,,,5ea5b7467bc3955b6bf0a1ca,2020-08-10_17h54.17.720,lexical_decision_task_MP,2020.1.3,Win32,60,z,0,0.65147,,,,,,,,0.65147,0,,,,,,181,WORD,UN,50,winter,GLANCE,m,,,,,,-0.03009251,-0.394907491,0,0,0,,0,61,61,180,1,,
,,,,,,,,,,,,,,,,,,5ea5b7467bc3955b6bf0a1ca,2020-08-10_17h54.17.720,lexical_decision_task_MP,2020.1.3,Win32,60,z,0,0.993635,,,,,,,,0.993635,0,,,,,,186,WORD,UN,50,course,PORTAL,m,,,,,,-0.03009251,-0.394907491,0,0,0,,0,62,62,185,1,,
,,,,,,,,,,,,,,,,,,5ea5b7467bc3955b6bf0a1ca,2020-08-10_17h54.17.720,lexical_decision_task_MP,2020.1.3,Win32,60,z,1,0.7464,,,,,,,,0.7464,1,,,,,,329,NW,"ID",50,yarike,YARIKE,z,,,,,,-0.03009251,-0.394907491,0,0,0,,0,63,63,328,1,,
,,,,,,,,,,,,,,,,,,5ea5b7467bc3955b6bf0a1ca,2020-08-10_17h54.17.720,lexical_decision_task_MP,2020.1.3,Win32,60,z,1,0.61841,,,,,,,,0.61841,1,,,,,,393,NW,UN,33,spaqux,GANOUS,z,,,,,,-0.03009251,-0.394907491,0,0,0,,0,64,64,392,1,,
,,,,,,,,,,,,,,,,,,5ea5b7467bc3955b6bf0a1ca,2020-08-10_17h54.17.720,lexical_decision_task_MP,2020.1.3,Win32,60,z,1,0.58432,,,,,,,,0.58432,1,,,,,,327,NW,"ID",50,plenac,PLENAC,z,,,,,,-0.03009251,-0.394907491,0,0,0,,0,65,65,326,1,,
,,,,,,,,,,,,,,,,,,5ea5b7467bc3955b6bf0a1ca,2020-08-10_17h54.17.720,lexical_decision_task_MP,2020.1.3,Win32,60,m,1,0.575545,,,,,,,,0.575545,1,,,,,,119,WORD,"ID",50,spider,SPIDER,m,,,,,,-0.03009251,-0.394907491,0,0,0,,0,66,66,118,1,,
,,,,,,,,,,,,,,,,,,5ea5b7467bc3955b6bf0a1ca,2020-08-10_17h54.17.720,lexical_decision_task_MP,2020.1.3,Win32,60,z,1,0.75224,,,,,,,,0.75224,1,,,,,,416,NW,UN,33,earoud,PATHEL,z,,,,,,-0.03009251,-0.394907491,0,0,0,,0,67,67,415,1,,
,,,,,,,,,,,,,,,,,,5ea5b7467bc3955b6bf0a1ca,2020-08-10_17h54.17.720,lexical_decision_task_MP,2020.1.3,Win32,60,m,1,0.653515,,,,,,,,0.653515,1,,,,,,104,WORD,"ID",50,studio,STUDIO,m,,,,,,-0.03009251,-0.394907491,0,0,0,,0,68,68,103,1,,
,,,,,,,,,,,,,,,,,,5ea5b7467bc3955b6bf0a1ca,2020-08-10_17h54.17.720,lexical_decision_task_MP,2020.1.3,Win32,60,m,1,0.853965,,,,,,,,0.853965,1,,,,,,90,WORD,"ID",50,relish,RELISH,m,,,,,,-0.03009251,-0.394907491,0,0,0,,0,69,69,89,1,,
,,,,,,,,,,,,,,,,,,5ea5b7467bc3955b6bf0a1ca,2020-08-10_17h54.17.720,lexical_decision_task_MP,2020.1.3,Win32,60,m,1,0.60032,,,,,,,,0.60032,1,,,,,,63,WORD,"ID",50,launch,LAUNCH,m,,,,,,-0.03009251,-0.394907491,0,0,0,,0,70,70,62,1,,
,,,,,,,,,,,,,,,,,,5ea5b7467bc3955b6bf0a1ca,2020-08-10_17h54.17.720,lexical_decision_task_MP,2020.1.3,Win32,60,m,1,0.84135,,,,,,,,0.84135,1,,,,,,111,WORD,"ID",50,induce,INDUCE,m,,,,,,-0.03009251,-0.394907491,0,0,0,,0,71,71,110,1,,
,,,,,,,,,,,,,,,,,,5ea5b7467bc3955b6bf0a1ca,2020-08-10_17h54.17.720,lexical_decision_task_MP,2020.1.3,Win32,60,z,1,0.7026,,,,,,,,0.7026,1,,,,,,429,NW,UN,50,caroey,FUNTLE,z,,,,,,-0.03009251,-0.394907491,0,0,0,,0,72,72,428,1,,
,,,,,,,,,,,,,,,,,,5ea5b7467bc3955b6bf0a1ca,2020-08-10_17h54.17.720,lexical_decision_task_MP,2020.1.3,Win32,60,z,1,0.65143,,,,,,,,0.65143,1,,,,,,275,NW,"ID",33,sleirt,SLEIRT,z,,,,,,-0.03009251,-0.394907491,0,0,0,,0,73,73,274,1,,
,,,,,,,,,,,,,,,,,,5ea5b7467bc3955b6bf0a1ca,2020-08-10_17h54.17.720,lexical_decision_task_MP,2020.1.3,Win32,60,z,1,1.02366,,,,,,,,1.02366,1,,,,,,247,NW,"ID",33,blarge,BLARGE,z,,,,,,-0.03009251,-0.394907491,0,0,0,,0,74,74,246,1,,
,,,,,,,,,,,,,,,,,,5ea5b7467bc3955b6bf0a1ca,2020-08-10_17h54.17.720,lexical_decision_task_MP,2020.1.3,Win32,60,m,1,0.71669,,,,,,,,0.71669,1,,,,,,44,WORD,"ID",33,danger,DANGER,m,,,,,,-0.03009251,-0.394907491,0,0,0,,0,75,75,43,1,,
,,,,,,,,,,,,,,,,,,5ea5b7467bc3955b6bf0a1ca,2020-08-10_17h54.17.720,lexical_decision_task_MP,2020.1.3,Win32,60,z,1,0.779155,,,,,,,,0.779155,1,,,,,,337,NW,"ID",50,rejols,REJOLS,z,,,,,,-0.03009251,-0.394907491,0,0,0,,0,76,76,336,1,,
,,,,,,,,,,,,,,,,,,5ea5b7467bc3955b6bf0a1ca,2020-08-10_17h54.17.720,lexical_decision_task_MP,2020.1.3,Win32,60,z,1,0.851075,,,,,,,,0.851075,1,,,,,,338,NW,"ID",50,wreash,WREASH,z,,,,,,-0.03009251,-0.394907491,0,0,0,,0,77,77,337,1,,
,,,,,,,,,,,,,,,,,,5ea5b7467bc3955b6bf0a1ca,2020-08-10_17h54.17.720,lexical_decision_task_MP,2020.1.3,Win32,60,m,1,0.66868,,,,,,,,0.66868,1,,,,,,66,WORD,"ID",50,gospel,GOSPEL,m,,,,,,-0.03009251,-0.394907491,0,0,0,,0,78,78,65,1,,
,,,,,,,,,,,,,,,,,,5ea5b7467bc3955b6bf0a1ca,2020-08-10_17h54.17.720,lexical_decision_task_MP,2020.1.3,Win32,60,m,1,0.53592,,,,,,,,0.53592,1,,,,,,75,WORD,"ID",50,trophy,TROPHY,m,,,,,,-0.03009251,-0.394907491,0,0,0,,0,79,79,74,1,,
,,,,,,,,,,,,,,,,,,5ea5b7467bc3955b6bf0a1ca,2020-08-10_17h54.17.720,lexical_decision_task_MP,2020.1.3,Win32,60,m,1,0.57562,,,,,,,,0.57562,1,,,,,,179,WORD,UN,33,silent,BASKET,m,,,,,,-0.03009251,-0.394907491,0,0,0,,0,80,80,178,1,,
,,,,,,,,,,,,,,,,,,5ea5b7467bc3955b6bf0a1ca,2020-08-10_17h54.17.720,lexical_decision_task_MP,2020.1.3,Win32,60,m,1,0.539185,,,,,,,,0.539185,1,,,,,,135,WORD,UN,33,chrome,IMPORT,m,,,,,,-0.03009251,-0.394907491,0,0,0,,0,81,81,134,1,,
,,,,,,,,,,,,,,,,,,5ea5b7467bc3955b6bf0a1ca,2020-08-10_17h54.17.720,lexical_decision_task_MP,2020.1.3,Win32,60,m,1,0.502375,,,,,,,,0.502375,1,,,,,,109,WORD,"ID",50,wonder,WONDER,m,,,,,,-0.03009251,-0.394907491,0,0,0,,0,82,82,108,1,,
,,,,,,,,,,,,,,,,,,5ea5b7467bc3955b6bf0a1ca,2020-08-10_17h54.17.720,lexical_decision_task_MP,2020.1.3,Win32,60,z,1,0.684195,,,,,,,,0.684195,1,,,,,,282,NW,"ID",33,porlex,PORLEX,z,,,,,,-0.03009251,-0.394907491,0,0,0,,0,83,83,281,1,,
,,,,,,,,,,,,,,,,,,5ea5b7467bc3955b6bf0a1ca,2020-08-10_17h54.17.720,lexical_decision_task_MP,2020.1.3,Win32,60,z,1,0.66614,,,,,,,,0.66614,1,,,,,,306,NW,"ID",50,sounge,SOUNGE,z,,,,,,-0.03009251,-0.394907491,0,0,0,,0,84,84,305,1,,
,,,,,,,,,,,,,,,,,,5ea5b7467bc3955b6bf0a1ca,2020-08-10_17h54.17.720,lexical_decision_task_MP,2020.1.3,Win32,60,z,1,0.56667,,,,,,,,0.56667,1,,,,,,423,NW,UN,50,praile,STRELD,z,,,,,,-0.03009251,-0.394907491,0,0,0,,0,85,85,422,1,,
,,,,,,,,,,,,,,,,,,5ea5b7467bc3955b6bf0a1ca,2020-08-10_17h54.17.720,lexical_decision_task_MP,2020.1.3,Win32,60,z,1,0.6103,,,,,,,,0.6103,1,,,,,,256,NW,"ID",33,inlors,INLORS,z,,,,,,-0.03009251,-0.394907491,0,0,0,,0,86,86,255,1,,
,,,,,,,,,,,,,,,,,,5ea5b7467bc3955b6bf0a1ca,2020-08-10_17h54.17.720,lexical_decision_task_MP,2020.1.3,Win32,60,z,1,0.63144,,,,,,,,0.63144,1,,,,,,412,NW,UN,33,equats,JILUER,z,,,,,,-0.03009251,-0.394907491,0,0,0,,0,87,87,411,1,,
,,,,,,,,,,,,,,,,,,5ea5b7467bc3955b6bf0a1ca,2020-08-10_17h54.17.720,lexical_decision_task_MP,2020.1.3,Win32,60,m,1,0.636925,,,,,,,,0.636925,1,,,,,,6,WORD,"ID",33,bundle,BUNDLE,m,,,,,,-0.03009251,-0.394907491,0,0,0,,0,88,88,5,1,,
,,,,,,,,,,,,,,,,,,5ea5b7467bc3955b6bf0a1ca,2020-08-10_17h54.17.720,lexical_decision_task_MP,2020.1.3,Win32,60,z,1,0.68564,,,,,,,,0.68564,1,,,,,,255,NW,"ID",33,apight,APIGHT,z,,,,,,-0.03009251,-0.394907491,0,0,0,,0,89,89,254,1,,
,,,,,,,,,,,,,,,,,,5ea5b7467bc3955b6bf0a1ca,2020-08-10_17h54.17.720,lexical_decision_task_MP,2020.1.3,Win32,60,m,1,0.616605,,,,,,,,0.616605,1,,,,,,35,WORD,"ID",33,socket,SOCKET,m,,,,,,-0.03009251,-0.394907491,0,0,0,,0,90,90,34,1,,
,,,,,,,,,,,,,,,,,,5ea5b7467bc3955b6bf0a1ca,2020-08-10_17h54.17.720,lexical_decision_task_MP,2020.1.3,Win32,60,z,1,0.7874,,,,,,,,0.7874,1,,,,,,361,NW,UN,33,tireau,PAUCHE,z,,,,,,-0.03009251,-0.394907491,0,0,0,,0,91,91,360,1,,
,,,,,,,,,,,,,,,,,,5ea5b7467bc3955b6bf0a1ca,2020-08-10_17h54.17.720,lexical_decision_task_MP,2020.1.3,Win32,60,m,1,0.739985,,,,,,,,0.739985,1,,,,,,217,WORD,UN,50,shrink,LIQUOR,m,,,,,,-0.03009251,-0.394907491,0,0,0,,0,92,92,216,1,,
,,,,,,,,,,,,,,,,,,5ea5b7467bc3955b6bf0a1ca,2020-08-10_17h54.17.720,lexical_decision_task_MP,2020.1.3,Win32,60,m,1,0.63077,,,,,,,,0.63077,1,,,,,,223,WORD,UN,50,period,KIDNEY,m,,,,,,-0.03009251,-0.394907491,0,0,0,,0,93,93,222,1,,
,,,,,,,,,,,,,,,,,,5ea5b7467bc3955b6bf0a1ca,2020-08-10_17h54.17.720,lexical_decision_task_MP,2020.1.3,Win32,60,m,0,0.65899,,,,,,,,0.65899,0,,,,,,468,NW,UN,50,padifs,WICTOR,z,,,,,,-0.03009251,-0.394907491,0,0,0,,0,94,94,467,1,,
,,,,,,,,,,,,,,,,,,5ea5b7467bc3955b6bf0a1ca,2020-08-10_17h54.17.720,lexical_decision_task_MP,2020.1.3,Win32,60,z,0,0.77799,,,,,,,,0.77799,0,,,,,,145,WORD,UN,33,couple,PARISH,m,,,,,,-0.03009251,-0.394907491,0,0,0,,0,95,95,144,1,,
,,,,,,,,,,,,,,,,,,5ea5b7467bc3955b6bf0a1ca,2020-08-10_17h54.17.720,lexical_decision_task_MP,2020.1.3,Win32,60,z,0,0.886065,,,,,,,,0.886065,0,,,,,,230,WORD,UN,50,export,FRINGE,m,,,,,,-0.03009251,-0.394907491,0,0,0,,0,96,96,229,1,,
,,,,,,,,,,,,,,,,,,5ea5b7467bc3955b6bf0a1ca,2020-08-10_17h54.17.720,lexical_decision_task_MP,2020.1.3,Win32,60,z,1,1.04624,,,,,,,,1.04624,1,,,,,,366,NW,UN,33,slique,TOSHEL,z,,,,,,-0.03009251,-0.394907491,0,0,0,,0,97,97,365,1,,
,,,,,,,,,,,,,,,,,,5ea5b7467bc3955b6bf0a1ca,2020-08-10_17h54.17.720,lexical_decision_task_MP,2020.1.3,Win32,60,m,1,0.74863,,,,,,,,0.74863,1,,,,,,185,WORD,UN,50,portal,BOTHER,m,,,,,,-0.03009251,-0.394907491,0,0,0,,0,98,98,184,1,,
,,,,,,,,,,,,,,,,,,5ea5b7467bc3955b6bf0a1ca,2020-08-10_17h54.17.720,lexical_decision_task_MP,2020.1.3,Win32,60,m,1,0.73149,,,,,,,,0.73149,1,,,,,,201,WORD,UN,50,factor,ADMIRE,m,,,,,,-0.03009251,-0.394907491,0,0,0,,0,99,99,200,1,,
,,,,,,,,,,,,,,,,,,5ea5b7467bc3955b6bf0a1ca,2020-08-10_17h54.17.720,lexical_decision_task_MP,2020.1.3,Win32,60,z,1,0.822445,,,,,,,,0.822445,1,,,,,,301,NW,"ID",50,fainch,FAINCH,z,,,,,,-0.03009251,-0.394907491,0,0,0,,0,100,100,300,1,,
,,,,,,,,,,,,,,,,,,5ea5b7467bc3955b6bf0a1ca,2020-08-10_17h54.17.720,lexical_decision_task_MP,2020.1.3,Win32,60,z,1,0.625455,,,,,,,,0.625455,1,,,,,,264,NW,"ID",33,vackel,VACKEL,z,,,,,,-0.03009251,-0.394907491,0,0,0,,0,101,101,263,1,,
,,,,,,,,,,,,,,,,,,5ea5b7467bc3955b6bf0a1ca,2020-08-10_17h54.17.720,lexical_decision_task_MP,2020.1.3,Win32,60,m,0,0.882345,,,,,,,,0.882345,0,,,,,,314,NW,"ID",50,sprine,SPRINE,z,,,,,,-0.03009251,-0.394907491,0,0,0,,0,102,102,313,1,,
,,,,,,,,,,,,,,,,,,5ea5b7467bc3955b6bf0a1ca,2020-08-10_17h54.17.720,lexical_decision_task_MP,2020.1.3,Win32,60,z,1,0.65187,,,,,,,,0.65187,1,,,,,,300,NW,"ID",33,yarion,YARION,z,,,,,,-0.03009251,-0.394907491,0,0,0,,0,103,103,299,1,,
,,,,,,,,,,,,,,,,,,5ea5b7467bc3955b6bf0a1ca,2020-08-10_17h54.17.720,lexical_decision_task_MP,2020.1.3,Win32,60,m,1,0.77802,,,,,,,,0.77802,1,,,,,,190,WORD,UN,50,stable,BACKUP,m,,,,,,-0.03009251,-0.394907491,0,0,0,,0,104,104,189,1,,
,,,,,,,,,,,,,,,,,,5ea5b7467bc3955b6bf0a1ca,2020-08-10_17h54.17.720,lexical_decision_task_MP,2020.1.3,Win32,60,m,1,0.636195,,,,,,,,0.636195,1,,,,,,148,WORD,UN,33,invade,CUSTOM,m,,,,,,-0.03009251,-0.394907491,0,0,0,,0,105,105,147,1,,
,,,,,,,,,,,,,,,,,,5ea5b7467bc3955b6bf0a1ca,2020-08-10_17h54.17.720,lexical_decision_task_MP,2020.1.3,Win32,60,m,1,0.75281,,,,,,,,0.75281,1,,,,,,125,WORD,UN,33,blouse,NICKEL,m,,,,,,-0.03009251,-0.394907491,0,0,0,,0,106,106,124,1,,
,,,,,,,,,,,,,,,,,,5ea5b7467bc3955b6bf0a1ca,2020-08-10_17h54.17.720,lexical_decision_task_MP,2020.1.3,Win32,60,m,1,0.501255,,,,,,,,0.501255,1,,,,,,221,WORD,UN,50,hinder,MASCOT,m,,,,,,-0.03009251,-0.394907491,0,0,0,,0,107,107,220,1,,
,,,,,,,,,,,,,,,,,,5ea5b7467bc3955b6bf0a1ca,2020-08-10_17h54.17.720,lexical_decision_task_MP,2020.1.3,Win32,60,m,1,0.37369,,,,,,,,0.37369,1,,,,,,64,WORD,"ID",50,throne,THRONE,m,,,,,,-0.03009251,-0.394907491,0,0,0,,0,108,108,63,1,,
,,,,,,,,,,,,,,,,,,5ea5b7467bc3955b6bf0a1ca,2020-08-10_17h54.17.720,lexical_decision_task_MP,2020.1.3,Win32,60,m,1,0.59913,,,,,,,,0.59913,1,,,,,,175,WORD,UN,33,strife,FABRIC,m,,,,,,-0.03009251,-0.394907491,0,0,0,,0,109,109,174,1,,
,,,,,,,,,,,,,,,,,,5ea5b7467bc3955b6bf0a1ca,2020-08-10_17h54.17.720,lexical_decision_task_MP,2020.1.3,Win32,60,m,1,0.61662,,,,,,,,0.61662,1,,,,,,232,WORD,UN,50,nature,INJECT,m,,,,,,-0.03009251,-0.394907491,0,0,0,,0,110,110,231,1,,
,,,,,,,,,,,,,,,,,,5ea5b7467bc3955b6bf0a1ca,2020-08-10_17h54.17.720,lexical_decision_task_MP,2020.1.3,Win32,60,z,1,0.665415,,,,,,,,0.665415,1,,,,,,376,NW,UN,33,sliant,IGUARE,z,,,,,,-0.03009251,-0.394907491,0,0,0,,0,111,111,375,1,,
,,,,,,,,,,,,,,,,,,5ea5b7467bc3955b6bf0a1ca,2020-08-10_17h54.17.720,lexical_decision_task_MP,2020.1.3,Win32,60,z,1,0.601515,,,,,,,,0.601515,1,,,,,,470,NW,UN,50,nobest,CRUDIO,z,,,,,,-0.03009251,-0.394907491,0,0,0,,0,112,112,469,1,,
,,,,,,,,,,,,,,,,,,5ea5b7467bc3955b6bf0a1ca,2020-08-10_17h54.17.720,lexical_decision_task_MP,2020.1.3,Win32,60,m,1,0.66893,,,,,,,,0.66893,1,,,,,,214,WORD,UN,50,phobia,INTAKE,m,,,,,,-0.03009251,-0.394907491,0,0,0,,0,113,113,213,1,,
,,,,,,,,,,,,,,,,,,5ea5b7467bc3955b6bf0a1ca,2020-08-10_17h54.17.720,lexical_decision_task_MP,2020.1.3,Win32,60,m,1,0.701805,,,,,,,,0.701805,1,,,,,,5,WORD,"ID",33,plunge,PLUNGE,m,,,,,,-0.03009251,-0.394907491,0,0,0,,0,114,114,4,1,,
,,,,,,,,,,,,,,,,,,5ea5b7467bc3955b6bf0a1ca,2020-08-10_17h54.17.720,lexical_decision_task_MP,2020.1.3,Win32,60,m,1,0.70401,,,,,,,,0.70401,1,,,,,,199,WORD,UN,50,beacon,INVOKE,m,,,,,,-0.03009251,-0.394907491,0,0,0,,0,115,115,198,1,,
,,,,,,,,,,,,,,,,,,5ea5b7467bc3955b6bf0a1ca,2020-08-10_17h54.17.720,lexical_decision_task_MP,2020.1.3,Win32,60,z,1,0.84825,,,,,,,,0.84825,1,,,,,,296,NW,"ID",33,beinch,BEINCH,z,,,,,,-0.03009251,-0.394907491,0,0,0,,0,116,116,295,1,,
,,,,,,,,,,,,,,,,,,5ea5b7467bc3955b6bf0a1ca,2020-08-10_17h54.17.720,lexical_decision_task_MP,2020.1.3,Win32,60,z,1,0.708165,,,,,,,,0.708165,1,,,,,,378,NW,UN,33,auting,SHRILE,z,,,,,,-0.03009251,-0.394907491,0,0,0,,0,117,117,377,1,,
,,,,,,,,,,,,,,,,,,5ea5b7467bc3955b6bf0a1ca,2020-08-10_17h54.17.720,lexical_decision_task_MP,2020.1.3,Win32,60,z,1,0.617385,,,,,,,,0.617385,1,,,,,,403,NW,UN,33,cluirm,BRUATS,z,,,,,,-0.03009251,-0.394907491,0,0,0,,0,118,118,402,1,,
,,,,,,,,,,,,,,,,,,5ea5b7467bc3955b6bf0a1ca,2020-08-10_17h54.17.720,lexical_decision_task_MP,2020.1.3,Win32,60,m,1,0.57299,,,,,,,,0.57299,1,,,,,,107,WORD,"ID",50,slogan,SLOGAN,m,,,,,,-0.03009251,-0.394907491,0,0,0,,0,119,119,106,1,,
,,,,,,,,,,,,,,,,,,5ea5b7467bc3955b6bf0a1ca,2020-08-10_17h54.17.720,lexical_decision_task_MP,2020.1.3,Win32,60,z,1,0.68263,,,,,,,,0.68263,1,,,,,,446,NW,UN,50,gircue,RUNAMO,z,,,,,,-0.03009251,-0.394907491,0,0,0,space,0,120,120,445,1,32.65769,
,,,,,,,,,,,,,,,,,,5ea5b7467bc3955b6bf0a1ca,2020-08-10_17h54.17.720,lexical_decision_task_MP,2020.1.3,Win32,60,m,1,0.877985,,,,,,,,0.877985,1,,,,,,16,WORD,"ID",33,faucet,FAUCET,m,,,,,,-0.03009251,-0.394907491,0,0,0,,0,121,121,15,1,,
,,,,,,,,,,,,,,,,,,5ea5b7467bc3955b6bf0a1ca,2020-08-10_17h54.17.720,lexical_decision_task_MP,2020.1.3,Win32,60,z,1,0.731225,,,,,,,,0.731225,1,,,,,,293,NW,"ID",33,swance,SWANCE,z,,,,,,-0.03009251,-0.394907491,0,0,0,,0,122,122,292,1,,
,,,,,,,,,,,,,,,,,,5ea5b7467bc3955b6bf0a1ca,2020-08-10_17h54.17.720,lexical_decision_task_MP,2020.1.3,Win32,60,m,0,0.691185,,,,,,,,0.691185,0,,,,,,307,NW,"ID",50,kirafe,KIRAFE,z,,,,,,-0.03009251,-0.394907491,0,0,0,,0,123,123,306,1,,
,,,,,,,,,,,,,,,,,,5ea5b7467bc3955b6bf0a1ca,2020-08-10_17h54.17.720,lexical_decision_task_MP,2020.1.3,Win32,60,z,0,0.885065,,,,,,,,0.885065,0,,,,,,19,WORD,"ID",33,patron,PATRON,m,,,,,,-0.03009251,-0.394907491,0,0,0,,0,124,124,18,1,,
,,,,,,,,,,,,,,,,,,5ea5b7467bc3955b6bf0a1ca,2020-08-10_17h54.17.720,lexical_decision_task_MP,2020.1.3,Win32,60,z,1,0.617855,,,,,,,,0.617855,1,,,,,,280,NW,"ID",33,curbol,CURBOL,z,,,,,,-0.03009251,-0.394907491,0,0,0,,0,125,125,279,1,,
,,,,,,,,,,,,,,,,,,5ea5b7467bc3955b6bf0a1ca,2020-08-10_17h54.17.720,lexical_decision_task_MP,2020.1.3,Win32,60,m,1,0.537545,,,,,,,,0.537545,1,,,,,,78,WORD,"ID",50,column,COLUMN,m,,,,,,-0.03009251,-0.394907491,0,0,0,,0,126,126,77,1,,
,,,,,,,,,,,,,,,,,,5ea5b7467bc3955b6bf0a1ca,2020-08-10_17h54.17.720,lexical_decision_task_MP,2020.1.3,Win32,60,m,1,0.90346,,,,,,,,0.90346,1,,,,,,172,WORD,UN,33,shower,PATROL,m,,,,,,-0.03009251,-0.394907491,0,0,0,,0,127,127,171,1,,
,,,,,,,,,,,,,,,,,,5ea5b7467bc3955b6bf0a1ca,2020-08-10_17h54.17.720,lexical_decision_task_MP,2020.1.3,Win32,60,m,1,0.577755,,,,,,,,0.577755,1,,,,,,149,WORD,UN,33,random,INVADE,m,,,,,,-0.03009251,-0.394907491,0,0,0,,0,128,128,148,1,,
,,,,,,,,,,,,,,,,,,5ea5b7467bc3955b6bf0a1ca,2020-08-10_17h54.17.720,lexical_decision_task_MP,2020.1.3,Win32,60,z,1,0.7008,,,,,,,,0.7008,1,,,,,,353,NW,"ID",50,clurey,CLUREY,z,,,,,,-0.03009251,-0.394907491,0,0,0,,0,129,129,352,1,,
,,,,,,,,,,,,,,,,,,5ea5b7467bc3955b6bf0a1ca,2020-08-10_17h54.17.720,lexical_decision_task_MP,2020.1.3,Win32,60,z,1,1.313435,,,,,,,,1.313435,1,,,,,,248,NW,"ID",33,strole,STROLE,z,,,,,,-0.03009251,-0.394907491,0,0,0,,0,130,130,247,1,,
,,,,,,,,,,,,,,,,,,5ea5b7467bc3955b6bf0a1ca,2020-08-10_17h54.17.720,lexical_decision_task_MP,2020.1.3,Win32,60,m,1,0.64149,,,,,,,,0.64149,1,,,,,,54,WORD,"ID",33,ramble,RAMBLE,m,,,,,,-0.03009251,-0.394907491,0,0,0,,0,131,131,53,1,,
,,,,,,,,,,,,,,,,,,5ea5b7467bc3955b6bf0a1ca,2020-08-10_17h54.17.720,lexical_decision_task_MP,2020.1.3,Win32,60,z,1,0.61463,,,,,,,,0.61463,1,,,,,,408,NW,UN,33,flumni,HURNIA,z,,,,,,-0.03009251,-0.394907491,0,0,0,,0,132,132,407,1,,
,,,,,,,,,,,,,,,,,,5ea5b7467bc3955b6bf0a1ca,2020-08-10_17h54.17.720,lexical_decision_task_MP,2020.1.3,Win32,60,m,1,0.48599,,,,,,,,0.48599,1,,,,,,192,WORD,UN,50,object,PLAGUE,m,,,,,,-0.03009251,-0.394907491,0,0,0,,0,133,133,191,1,,
,,,,,,,,,,,,,,,,,,5ea5b7467bc3955b6bf0a1ca,2020-08-10_17h54.17.720,lexical_decision_task_MP,2020.1.3,Win32,60,m,1,0.670565,,,,,,,,0.670565,1,,,,,,158,WORD,UN,33,detail,ISLAND,m,,,,,,-0.03009251,-0.394907491,0,0,0,,0,134,134,157,1,,
,,,,,,,,,,,,,,,,,,5ea5b7467bc3955b6bf0a1ca,2020-08-10_17h54.17.720,lexical_decision_task_MP,2020.1.3,Win32,60,,0,,,,,,,,,0.670565,-1,,,,,,358,NW,"ID",50,fleack,FLEACK,z,,,,,,-0.03009251,-0.394907491,0,0,0,,0,135,135,357,1,,
,,,,,,,,,,,,,,,,,,5ea5b7467bc3955b6bf0a1ca,2020-08-10_17h54.17.720,lexical_decision_task_MP,2020.1.3,Win32,60,m,1,1.676535,,,,,,,,1.676535,1,,,,,,240,WORD,UN,50,glance,FOREST,m,,,,,,-0.03009251,-0.394907491,0,0,0,,0,136,136,239,1,,
,,,,,,,,,,,,,,,,,,5ea5b7467bc3955b6bf0a1ca,2020-08-10_17h54.17.720,lexical_decision_task_MP,2020.1.3,Win32,60,,0,,,,,,,,,1.676535,-1,,,,,,26,WORD,"ID",33,sprint,SPRINT,m,,,,,,-0.03009251,-0.394907491,0,0,0,,0,137,137,25,1,,
,,,,,,,,,,,,,,,,,,5ea5b7467bc3955b6bf0a1ca,2020-08-10_17h54.17.720,lexical_decision_task_MP,2020.1.3,Win32,60,m,0,0.83488,,,,,,,,0.83488,0,,,,,,304,NW,"ID",50,cludie,CLUDIE,z,,,,,,-0.03009251,-0.394907491,0,0,0,,0,138,138,303,1,,
,,,,,,,,,,,,,,,,,,5ea5b7467bc3955b6bf0a1ca,2020-08-10_17h54.17.720,lexical_decision_task_MP,2020.1.3,Win32,60,m,1,1.199885,,,,,,,,1.199885,1,,,,,,132,WORD,UN,33,bleach,STRONG,m,,,,,,-0.03009251,-0.394907491,0,0,0,,0,139,139,131,1,,
,,,,,,,,,,,,,,,,,,5ea5b7467bc3955b6bf0a1ca,2020-08-10_17h54.17.720,lexical_decision_task_MP,2020.1.3,Win32,60,m,0,0.660105,,,,,,,,0.660105,0,,,,,,348,NW,"ID",50,dumple,DUMPLE,z,,,,,,-0.03009251,-0.394907491,0,0,0,,0,140,140,347,1,,
,,,,,,,,,,,,,,,,,,5ea5b7467bc3955b6bf0a1ca,2020-08-10_17h54.17.720,lexical_decision_task_MP,2020.1.3,Win32,60,m,1,0.7498,,,,,,,,0.7498,1,,,,,,67,WORD,"ID",50,policy,POLICY,m,,,,,,-0.03009251,-0.394907491,0,0,0,,0,141,141,66,1,,
,,,,,,,,,,,,,,,,,,5ea5b7467bc3955b6bf0a1ca,2020-08-10_17h54.17.720,lexical_decision_task_MP,2020.1.3,Win32,60,z,1,1.018695,,,,,,,,1.018695,1,,,,,,401,NW,UN,33,elopia,MUSTIL,z,,,,,,-0.03009251,-0.394907491,0,0,0,,0,142,142,400,1,,
,,,,,,,,,,,,,,,,,,5ea5b7467bc3955b6bf0a1ca,2020-08-10_17h54.17.720,lexical_decision_task_MP,2020.1.3,Win32,60,m,1,0.4837,,,,,,,,0.4837,1,,,,,,34,WORD,"ID",33,jungle,JUNGLE,m,,,,,,-0.03009251,-0.394907491,0,0,0,,0,143,143,33,1,,
,,,,,,,,,,,,,,,,,,5ea5b7467bc3955b6bf0a1ca,2020-08-10_17h54.17.720,lexical_decision_task_MP,2020.1.3,Win32,60,m,1,0.50128,,,,,,,,0.50128,1,,,,,,21,WORD,"ID",33,simple,SIMPLE,m,,,,,,-0.03009251,-0.394907491,0,0,0,,0,144,144,20,1,,
,,,,,,,,,,,,,,,,,,5ea5b7467bc3955b6bf0a1ca,2020-08-10_17h54.17.720,lexical_decision_task_MP,2020.1.3,Win32,60,z,1,0.635,,,,,,,,0.635,1,,,,,,471,NW,UN,50,cigney,NOBEST,z,,,,,,-0.03009251,-0.394907491,0,0,0,,0,145,145,470,1,,
,,,,,,,,,,,,,,,,,,5ea5b7467bc3955b6bf0a1ca,2020-08-10_17h54.17.720,lexical_decision_task_MP,2020.1.3,Win32,60,m,1,0.784735,,,,,,,,0.784735,1,,,,,,191,WORD,UN,50,absent,STABLE,m,,,,,,-0.03009251,-0.394907491,0,0,0,,0,146,146,190,1,,
,,,,,,,,,,,,,,,,,,5ea5b7467bc3955b6bf0a1ca,2020-08-10_17h54.17.720,lexical_decision_task_MP,2020.1.3,Win32,60,m,1,1.147375,,,,,,,,1.147375,1,,,,,,62,WORD,"ID",50,region,REGION,m,,,,,,-0.03009251,-0.394907491,0,0,0,,0,147,147,61,1,,
,,,,,,,,,,,,,,,,,,5ea5b7467bc3955b6bf0a1ca,2020-08-10_17h54.17.720,lexical_decision_task_MP,2020.1.3,Win32,60,,0,,,,,,,,,1.147375,-1,,,,,,466,NW,UN,50,pebric,HOCITE,z,,,,,,-0.03009251,-0.394907491,0,0,0,,0,148,148,465,1,,
,,,,,,,,,,,,,,,,,,5ea5b7467bc3955b6bf0a1ca,2020-08-10_17h54.17.720,lexical_decision_task_MP,2020.1.3,Win32,60,,0,,,,,,,,,1.147375,-1,,,,,,154,WORD,UN,33,lizard,AUTHOR,m,,,,,,-0.03009251,-0.394907491,0,0,0,,0,149,149,153,1,,
,,,,,,,,,,,,,,,,,,5ea5b7467bc3955b6bf0a1ca,2020-08-10_17h54.17.720,lexical_decision_task_MP,2020.1.3,Win32,60,z,0,0.735035,,,,,,,,0.735035,0,,,,,,136,WORD,UN,33,finger,BLEACH,m,,,,,,-0.03009251,-0.394907491,0,0,0,,0,150,150,135,1,,
,,,,,,,,,,,,,,,,,,5ea5b7467bc3955b6bf0a1ca,2020-08-10_17h54.17.720,lexical_decision_task_MP,2020.1.3,Win32,60,m,0,0.23756,,,,,,,,0.23756,0,,,,,,421,NW,UN,50,alcoud,KNISMA,z,,,,,,-0.03009251,-0.394907491,0,0,0,,0,151,151,420,1,,
,,,,,,,,,,,,,,,,,,5ea5b7467bc3955b6bf0a1ca,2020-08-10_17h54.17.720,lexical_decision_task_MP,2020.1.3,Win32,60,m,1,0.375475,,,,,,,,0.375475,1,,,,,,97,WORD,"ID",50,client,CLIENT,m,,,,,,-0.03009251,-0.394907491,0,0,0,,0,152,152,96,1,,
,,,,,,,,,,,,,,,,,,5ea5b7467bc3955b6bf0a1ca,2020-08-10_17h54.17.720,lexical_decision_task_MP,2020.1.3,Win32,60,m,1,0.400075,,,,,,,,0.400075,1,,,,,,23,WORD,"ID",33,wealth,WEALTH,m,,,,,,-0.03009251,-0.394907491,0,0,0,,0,153,153,22,1,,
,,,,,,,,,,,,,,,,,,5ea5b7467bc3955b6bf0a1ca,2020-08-10_17h54.17.720,lexical_decision_task_MP,2020.1.3,Win32,60,,0,,,,,,,,,0.400075,-1,,,,,,84,WORD,"ID",50,mortal,MORTAL,m,,,,,,-0.03009251,-0.394907491,0,0,0,,0,154,154,83,1,,
,,,,,,,,,,,,,,,,,,5ea5b7467bc3955b6bf0a1ca,2020-08-10_17h54.17.720,lexical_decision_task_MP,2020.1.3,Win32,60,,0,,,,,,,,,0.400075,-1,,,,,,439,NW,UN,50,saride,LIMPOR,z,,,,,,2.6491E-08,-1.4912E-08,0,0,0,,0,155,155,438,1,,
,,,,,,,,,,,,,,,,,,5ea5b7467bc3955b6bf0a1ca,2020-08-10_17h54.17.720,lexical_decision_task_MP,2020.1.3,Win32,60,,0,,,,,,,,,0.400075,-1,,,,,,274,NW,"ID",33,fumblo,FUMBLO,z,,,,,,2.6491E-08,-1.4912E-08,0,0,0,,0,156,156,273,1,,
,,,,,,,,,,,,,,,,,,5ea5b7467bc3955b6bf0a1ca,2020-08-10_17h54.17.720,lexical_decision_task_MP,2020.1.3,Win32,60,,0,,,,,,,,,0.400075,-1,,,,,,344,NW,"ID",50,scrily,SCRILY,z,,,,,,2.6491E-08,-1.4912E-08,0,0,0,,0,157,157,343,1,,
,,,,,,,,,,,,,,,,,,5ea5b7467bc3955b6bf0a1ca,2020-08-10_17h54.17.720,lexical_decision_task_MP,2020.1.3,Win32,60,,0,,,,,,,,,0.400075,-1,,,,,,309,NW,"ID",50,amiloy,AMILOY,z,,,,,,2.6491E-08,-1.4912E-08,0,0,0,,0,158,158,308,1,,
,,,,,,,,,,,,,,,,,,5ea5b7467bc3955b6bf0a1ca,2020-08-10_17h54.17.720,lexical_decision_task_MP,2020.1.3,Win32,60,,0,,,,,,,,,0.400075,-1,,,,,,352,NW,"ID",50,tringe,TRINGE,z,,,,,,2.6491E-08,-1.4912E-08,0,0,0,,0,159,159,351,1,,
,,,,,,,,,,,,,,,,,,5ea5b7467bc3955b6bf0a1ca,2020-08-10_17h54.17.720,lexical_decision_task_MP,2020.1.3,Win32,60,,0,,,,,,,,,0.400075,-1,,,,,,435,NW,UN,50,frutan,IMPURB,z,,,,,,2.6491E-08,-1.4912E-08,0,0,0,,0,160,160,434,1,,
,,,,,,,,,,,,,,,,,,5ea5b7467bc3955b6bf0a1ca,2020-08-10_17h54.17.720,lexical_decision_task_MP,2020.1.3,Win32,60,,0,,,,,,,,,0.400075,-1,,,,,,33,WORD,"ID",33,butler,BUTLER,m,,,,,,2.6491E-08,-1.4912E-08,0,0,0,,0,161,161,32,1,,
,,,,,,,,,,,,,,,,,,5ea5b7467bc3955b6bf0a1ca,2020-08-10_17h54.17.720,lexical_decision_task_MP,2020.1.3,Win32,60,,0,,,,,,,,,0.400075,-1,,,,,,308,NW,"ID",50,psetch,PSETCH,z,,,,,,2.6491E-08,-1.4912E-08,0,0,0,,0,162,162,307,1,,
,,,,,,,,,,,,,,,,,,5ea5b7467bc3955b6bf0a1ca,2020-08-10_17h54.17.720,lexical_decision_task_MP,2020.1.3,Win32,60,,0,,,,,,,,,0.400075,-1,,,,,,1,WORD,"ID",33,fright,FRIGHT,m,,,,,,2.6491E-08,-1.4912E-08,0,0,0,,0,163,163,0,1,,
,,,,,,,,,,,,,,,,,,5ea5b7467bc3955b6bf0a1ca,2020-08-10_17h54.17.720,lexical_decision_task_MP,2020.1.3,Win32,60,,0,,,,,,,,,0.400075,-1,,,,,,116,WORD,"ID",50,tumble,TUMBLE,m,,,,,,2.6491E-08,-1.4912E-08,0,0,0,,0,164,164,115,1,,
,,,,,,,,,,,,,,,,,,5ea5b7467bc3955b6bf0a1ca,2020-08-10_17h54.17.720,lexical_decision_task_MP,2020.1.3,Win32,60,,0,,,,,,,,,0.400075,-1,,,,,,316,NW,"ID",50,scregm,SCREGM,z,,,,,,2.6491E-08,-1.4912E-08,0,0,0,,0,165,165,315,1,,
,,,,,,,,,,,,,,,,,,5ea5b7467bc3955b6bf0a1ca,2020-08-10_17h54.17.720,lexical_decision_task_MP,2020.1.3,Win32,60,,0,,,,,,,,,0.400075,-1,,,,,,380,NW,UN,33,huniek,CAVORY,z,,,,,,2.6491E-08,-1.4912E-08,0,0,0,,0,166,166,379,1,,
,,,,,,,,,,,,,,,,,,5ea5b7467bc3955b6bf0a1ca,2020-08-10_17h54.17.720,lexical_decision_task_MP,2020.1.3,Win32,60,,0,,,,,,,,,0.400075,-1,,,,,,374,NW,UN,33,yorque,SLIANT,z,,,,,,2.6491E-08,-1.4912E-08,0,0,0,,0,167,167,373,1,,
,,,,,,,,,,,,,,,,,,5ea5b7467bc3955b6bf0a1ca,2020-08-10_17h54.17.720,lexical_decision_task_MP,2020.1.3,Win32,60,,0,,,,,,,,,0.400075,-1,,,,,,433,NW,UN,50,pitrom,DRANCE,z,,,,,,2.6491E-08,-1.4912E-08,0,0,0,,0,168,168,432,1,,
,,,,,,,,,,,,,,,,,,5ea5b7467bc3955b6bf0a1ca,2020-08-10_17h54.17.720,lexical_decision_task_MP,2020.1.3,Win32,60,,0,,,,,,,,,0.400075,-1,,,,,,276,NW,"ID",33,yarmon,YARMON,z,,,,,,2.6491E-08,-1.4912E-08,0,0,0,,0,169,169,275,1,,
,,,,,,,,,,,,,,,,,,5ea5b7467bc3955b6bf0a1ca,2020-08-10_17h54.17.720,lexical_decision_task_MP,2020.1.3,Win32,60,,0,,,,,,,,,0.400075,-1,,,,,,79,WORD,"ID",50,theory,THEORY,m,,,,,,2.6491E-08,-1.4912E-08,0,0,0,,0,170,170,78,1,,
,,,,,,,,,,,,,,,,,,5ea5b7467bc3955b6bf0a1ca,2020-08-10_17h54.17.720,lexical_decision_task_MP,2020.1.3,Win32,60,,0,,,,,,,,,0.400075,-1,,,,,,448,NW,UN,50,brunge,SADENT,z,,,,,,2.6491E-08,-1.4912E-08,0,0,0,,0,171,171,447,1,,
,,,,,,,,,,,,,,,,,,5ea5b7467bc3955b6bf0a1ca,2020-08-10_17h54.17.720,lexical_decision_task_MP,2020.1.3,Win32,60,,0,,,,,,,,,0.400075,-1,,,,,,15,WORD,"ID",33,amount,AMOUNT,m,,,,,,2.6491E-08,-1.4912E-08,0,0,0,,0,172,172,14,1,,
,,,,,,,,,,,,,,,,,,5ea5b7467bc3955b6bf0a1ca,2020-08-10_17h54.17.720,lexical_decision_task_MP,2020.1.3,Win32,60,,0,,,,,,,,,0.400075,-1,,,,,,253,NW,"ID",33,resait,RESAIT,z,,,,,,2.6491E-08,-1.4912E-08,0,0,0,,0,173,173,252,1,,
,,,,,,,,,,,,,,,,,,5ea5b7467bc3955b6bf0a1ca,2020-08-10_17h54.17.720,lexical_decision_task_MP,2020.1.3,Win32,60,,0,,,,,,,,,0.400075,-1,,,,,,417,NW,UN,33,suidle,EAROUD,z,,,,,,2.6491E-08,-1.4912E-08,0,0,0,,0,174,174,416,1,,
,,,,,,,,,,,,,,,,,,5ea5b7467bc3955b6bf0a1ca,2020-08-10_17h54.17.720,lexical_decision_task_MP,2020.1.3,Win32,60,,0,,,,,,,,,0.400075,-1,,,,,,419,NW,UN,33,gushop,SLOUNT,z,,,,,,2.6491E-08,-1.4912E-08,0,0,0,,0,175,175,418,1,,
,,,,,,,,,,,,,,,,,,5ea5b7467bc3955b6bf0a1ca,2020-08-10_17h54.17.720,lexical_decision_task_MP,2020.1.3,Win32,60,,0,,,,,,,,,0.400075,-1,,,,,,129,WORD,UN,33,stupid,MARVEL,m,,,,,,2.6491E-08,-1.4912E-08,0,0,0,,0,176,176,128,1,,
,,,,,,,,,,,,,,,,,,5ea5b7467bc3955b6bf0a1ca,2020-08-10_17h54.17.720,lexical_decision_task_MP,2020.1.3,Win32,60,,0,,,,,,,,,0.400075,-1,,,,,,234,WORD,UN,50,lumber,CLUMSY,m,,,,,,2.6491E-08,-1.4912E-08,0,0,0,,0,177,177,233,1,,
,,,,,,,,,,,,,,,,,,5ea5b7467bc3955b6bf0a1ca,2020-08-10_17h54.17.720,lexical_decision_task_MP,2020.1.3,Win32,60,,0,,,,,,,,,0.400075,-1,,,,,,457,NW,UN,50,barcet,WANIGH,z,,,,,,2.6491E-08,-1.4912E-08,0,0,0,,0,178,178,456,1,,
,,,,,,,,,,,,,,,,,,5ea5b7467bc3955b6bf0a1ca,2020-08-10_17h54.17.720,lexical_decision_task_MP,2020.1.3,Win32,60,,0,,,,,,,,,0.400075,-1,,,,,,197,WORD,UN,50,wicked,STREAM,m,,,,,,2.6491E-08,-1.4912E-08,0,0,0,,0,179,179,196,1,,
,,,,,,,,,,,,,,,,,,5ea5b7467bc3955b6bf0a1ca,2020-08-10_17h54.17.720,lexical_decision_task_MP,2020.1.3,Win32,60,,0,,,,,,,,,0.400075,-1,,,,,,278,NW,"ID",33,unighs,UNIGHS,z,,,,,,2.6491E-08,-1.4912E-08,0,0,0,,0,180,180,277,1,,
,,,,,,,,,,,,,,,,,,5ea5b7467bc3955b6bf0a1ca,2020-08-10_17h54.17.720,lexical_decision_task_MP,2020.1.3,Win32,60,,0,,,,,,,,,0.400075,-1,,,,,,350,NW,"ID",50,nagurs,NAGURS,z,,,,,,2.6491E-08,-1.4912E-08,0,0,0,,0,181,181,349,1,,
,,,,,,,,,,,,,,,,,,5ea5b7467bc3955b6bf0a1ca,2020-08-10_17h54.17.720,lexical_decision_task_MP,2020.1.3,Win32,60,,0,,,,,,,,,0.400075,-1,,,,,,398,NW,UN,33,fouret,BLUNDE,z,,,,,,2.6491E-08,-1.4912E-08,0,0,0,,0,182,182,397,1,,
,,,,,,,,,,,,,,,,,,5ea5b7467bc3955b6bf0a1ca,2020-08-10_17h54.17.720,lexical_decision_task_MP,2020.1.3,Win32,60,,0,,,,,,,,,0.400075,-1,,,,,,24,WORD,"ID",33,praise,PRAISE,m,,,,,,2.6491E-08,-1.4912E-08,0,0,0,,0,183,183,23,1,,
,,,,,,,,,,,,,,,,,,5ea5b7467bc3955b6bf0a1ca,2020-08-10_17h54.17.720,lexical_decision_task_MP,2020.1.3,Win32,60,,0,,,,,,,,,0.400075,-1,,,,,,151,WORD,UN,33,rocket,MYSTIC,m,,,,,,2.6491E-08,-1.4912E-08,0,0,0,,0,184,184,150,1,,
,,,,,,,,,,,,,,,,,,5ea5b7467bc3955b6bf0a1ca,2020-08-10_17h54.17.720,lexical_decision_task_MP,2020.1.3,Win32,60,,0,,,,,,,,,0.400075,-1,,,,,,379,NW,UN,33,cavory,AUTING,z,,,,,,2.6491E-08,-1.4912E-08,0,0,0,,0,185,185,378,1,,
,,,,,,,,,,,,,,,,,,5ea5b7467bc3955b6bf0a1ca,2020-08-10_17h54.17.720,lexical_decision_task_MP,2020.1.3,Win32,60,,0,,,,,,,,,0.400075,-1,,,,,,383,NW,UN,33,guesco,AUNGRE,z,,,,,,2.6491E-08,-1.4912E-08,0,0,0,,0,186,186,382,1,,
,,,,,,,,,,,,,,,,,,5ea5b7467bc3955b6bf0a1ca,2020-08-10_17h54.17.720,lexical_decision_task_MP,2020.1.3,Win32,60,,0,,,,,,,,,0.400075,-1,,,,,,86,WORD,"ID",50,rodent,RODENT,m,,,,,,2.6491E-08,-1.4912E-08,0,0,0,,0,187,187,85,1,,
,,,,,,,,,,,,,,,,,,5ea5b7467bc3955b6bf0a1ca,2020-08-10_17h54.17.720,lexical_decision_task_MP,2020.1.3,Win32,60,,0,,,,,,,,,0.400075,-1,,,,,,8,WORD,"ID",33,abrupt,ABRUPT,m,,,,,,2.6491E-08,-1.4912E-08,0,0,0,,0,188,188,7,1,,
,,,,,,,,,,,,,,,,,,5ea5b7467bc3955b6bf0a1ca,2020-08-10_17h54.17.720,lexical_decision_task_MP,2020.1.3,Win32,60,,0,,,,,,,,,0.400075,-1,,,,,,12,WORD,"ID",33,orange,ORANGE,m,,,,,,2.6491E-08,-1.4912E-08,0,0,0,,0,189,189,11,1,,
,,,,,,,,,,,,,,,,,,5ea5b7467bc3955b6bf0a1ca,2020-08-10_17h54.17.720,lexical_decision_task_MP,2020.1.3,Win32,60,,0,,,,,,,,,0.400075,-1,,,,,,68,WORD,"ID",50,fumble,FUMBLE,m,,,,,,2.6491E-08,-1.4912E-08,0,0,0,,0,190,190,67,1,,
,,,,,,,,,,,,,,,,,,5ea5b7467bc3955b6bf0a1ca,2020-08-10_17h54.17.720,lexical_decision_task_MP,2020.1.3,Win32,60,,0,,,,,,,,,0.400075,-1,,,,,,284,NW,"ID",33,shaple,SHAPLE,z,,,,,,2.6491E-08,-1.4912E-08,0,0,0,,0,191,191,283,1,,
,,,,,,,,,,,,,,,,,,5ea5b7467bc3955b6bf0a1ca,2020-08-10_17h54.17.720,lexical_decision_task_MP,2020.1.3,Win32,60,,0,,,,,,,,,0.400075,-1,,,,,,441,NW,UN,50,aboune,RASTOE,z,,,,,,2.6491E-08,-1.4912E-08,0,0,0,,0,192,192,440,1,,
,,,,,,,,,,,,,,,,,,5ea5b7467bc3955b6bf0a1ca,2020-08-10_17h54.17.720,lexical_decision_task_MP,2020.1.3,Win32,60,,0,,,,,,,,,0.400075,-1,,,,,,473,NW,UN,50,hablin,CRIBLE,z,,,,,,2.6491E-08,-1.4912E-08,0,0,0,,0,193,193,472,1,,
,,,,,,,,,,,,,,,,,,5ea5b7467bc3955b6bf0a1ca,2020-08-10_17h54.17.720,lexical_decision_task_MP,2020.1.3,Win32,60,,0,,,,,,,,,0.400075,-1,,,,,,252,NW,"ID",33,stapod,STAPOD,z,,,,,,2.6491E-08,-1.4912E-08,0,0,0,,0,194,194,251,1,,
,,,,,,,,,,,,,,,,,,5ea5b7467bc3955b6bf0a1ca,2020-08-10_17h54.17.720,lexical_decision_task_MP,2020.1.3,Win32,60,,0,,,,,,,,,0.400075,-1,,,,,,166,WORD,UN,33,design,STARCH,m,,,,,,2.6491E-08,-1.4912E-08,0,0,0,,0,195,195,165,1,,
,,,,,,,,,,,,,,,,,,5ea5b7467bc3955b6bf0a1ca,2020-08-10_17h54.17.720,lexical_decision_task_MP,2020.1.3,Win32,60,,0,,,,,,,,,0.400075,-1,,,,,,187,WORD,UN,50,social,COURSE,m,,,,,,2.6491E-08,-1.4912E-08,0,0,0,,0,196,196,186,1,,
,,,,,,,,,,,,,,,,,,5ea5b7467bc3955b6bf0a1ca,2020-08-10_17h54.17.720,lexical_decision_task_MP,2020.1.3,Win32,60,,0,,,,,,,,,0.400075,-1,,,,,,56,WORD,"ID",33,ambush,AMBUSH,m,,,,,,2.6491E-08,-1.4912E-08,0,0,0,,0,197,197,55,1,,
,,,,,,,,,,,,,,,,,,5ea5b7467bc3955b6bf0a1ca,2020-08-10_17h54.17.720,lexical_decision_task_MP,2020.1.3,Win32,60,,0,,,,,,,,,0.400075,-1,,,,,,171,WORD,UN,33,patrol,DEPART,m,,,,,,2.6491E-08,-1.4912E-08,0,0,0,,0,198,198,170,1,,
,,,,,,,,,,,,,,,,,,5ea5b7467bc3955b6bf0a1ca,2020-08-10_17h54.17.720,lexical_decision_task_MP,2020.1.3,Win32,60,,0,,,,,,,,,0.400075,-1,,,,,,243,NW,"ID",33,musied,MUSIED,z,,,,,,2.6491E-08,-1.4912E-08,0,0,0,,0,199,199,242,1,,
,,,,,,,,,,,,,,,,,,5ea5b7467bc3955b6bf0a1ca,2020-08-10_17h54.17.720,lexical_decision_task_MP,2020.1.3,Win32,60,,0,,,,,,,,,0.400075,-1,,,,,,343,NW,"ID",50,aimosy,AIMOSY,z,,,,,,2.6491E-08,-1.4912E-08,0,0,0,,0,200,200,342,1,,
,,,,,,,,,,,,,,,,,,5ea5b7467bc3955b6bf0a1ca,2020-08-10_17h54.17.720,lexical_decision_task_MP,2020.1.3,Win32,60,,0,,,,,,,,,0.400075,-1,,,,,,71,WORD,"ID",50,garden,GARDEN,m,,,,,,2.6491E-08,-1.4912E-08,0,0,0,,0,201,201,70,1,,
,,,,,,,,,,,,,,,,,,5ea5b7467bc3955b6bf0a1ca,2020-08-10_17h54.17.720,lexical_decision_task_MP,2020.1.3,Win32,60,,0,,,,,,,,,0.400075,-1,,,,,,371,NW,UN,33,ramily,GEILOY,z,,,,,,2.6491E-08,-1.4912E-08,0,0,0,,0,202,202,370,1,,
,,,,,,,,,,,,,,,,,,5ea5b7467bc3955b6bf0a1ca,2020-08-10_17h54.17.720,lexical_decision_task_MP,2020.1.3,Win32,60,,0,,,,,,,,,0.400075,-1,,,,,,273,NW,"ID",33,sortel,SORTEL,z,,,,,,2.6491E-08,-1.4912E-08,0,0,0,,0,203,203,272,1,,
,,,,,,,,,,,,,,,,,,5ea5b7467bc3955b6bf0a1ca,2020-08-10_17h54.17.720,lexical_decision_task_MP,2020.1.3,Win32,60,,0,,,,,,,,,0.400075,-1,,,,,,87,WORD,"ID",50,filter,FILTER,m,,,,,,2.6491E-08,-1.4912E-08,0,0,0,,0,204,204,86,1,,
,,,,,,,,,,,,,,,,,,5ea5b7467bc3955b6bf0a1ca,2020-08-10_17h54.17.720,lexical_decision_task_MP,2020.1.3,Win32,60,m,1,0.19031,,,,,,,,0.19031,1,,,,,,77,WORD,"ID",50,racket,RACKET,m,,,,,,2.6491E-08,-1.4912E-08,0,0,0,,0,205,205,76,1,,
,,,,,,,,,,,,,,,,,,5ea5b7467bc3955b6bf0a1ca,2020-08-10_17h54.17.720,lexical_decision_task_MP,2020.1.3,Win32,60,z,1,0.032905,,,,,,,,0.032905,1,,,,,,438,NW,UN,50,limpor,BAITCH,z,,,,,,2.6491E-08,-1.4912E-08,0,0,0,,0,206,206,437,1,,
,,,,,,,,,,,,,,,,,,5ea5b7467bc3955b6bf0a1ca,2020-08-10_17h54.17.720,lexical_decision_task_MP,2020.1.3,Win32,60,z,0,0.082835,,,,,,,,0.082835,0,,,,,,228,WORD,UN,50,inject,MASTER,m,,,,,,2.6491E-08,-1.4912E-08,0,0,0,,0,207,207,227,1,,
,,,,,,,,,,,,,,,,,,5ea5b7467bc3955b6bf0a1ca,2020-08-10_17h54.17.720,lexical_decision_task_MP,2020.1.3,Win32,60,m,1,0.52992,,,,,,,,0.52992,1,,,,,,237,WORD,UN,50,seldom,POSTER,m,,,,,,2.6491E-08,-1.4912E-08,0,0,0,,0,208,208,236,1,,
,,,,,,,,,,,,,,,,,,5ea5b7467bc3955b6bf0a1ca,2020-08-10_17h54.17.720,lexical_decision_task_MP,2020.1.3,Win32,60,m,1,1.769835,,,,,,,,1.769835,1,,,,,,131,WORD,UN,33,strong,QUENCH,m,,,,,,2.6491E-08,-1.4912E-08,0,0,0,,0,209,209,130,1,,
,,,,,,,,,,,,,,,,,,5ea5b7467bc3955b6bf0a1ca,2020-08-10_17h54.17.720,lexical_decision_task_MP,2020.1.3,Win32,60,m,0,0.94264,,,,,,,,0.94264,0,,,,,,410,NW,UN,33,orchin,TUNORY,z,,,,,,2.6491E-08,-1.4912E-08,0,0,0,,0,210,210,409,1,,
,,,,,,,,,,,,,,,,,,5ea5b7467bc3955b6bf0a1ca,2020-08-10_17h54.17.720,lexical_decision_task_MP,2020.1.3,Win32,60,m,0,0.67101,,,,,,,,0.67101,0,,,,,,318,NW,"ID",50,reagly,REAGLY,z,,,,,,2.6491E-08,-1.4912E-08,0,0,0,,0,211,211,317,1,,
,,,,,,,,,,,,,,,,,,5ea5b7467bc3955b6bf0a1ca,2020-08-10_17h54.17.720,lexical_decision_task_MP,2020.1.3,Win32,60,z,0,0.28785,,,,,,,,0.28785,0,,,,,,143,WORD,UN,33,sponge,REASON,m,,,,,,2.6491E-08,-1.4912E-08,0,0,0,,0,212,212,142,1,,
,,,,,,,,,,,,,,,,,,5ea5b7467bc3955b6bf0a1ca,2020-08-10_17h54.17.720,lexical_decision_task_MP,2020.1.3,Win32,60,m,0,0.20042,,,,,,,,0.20042,0,,,,,,319,NW,"ID",50,zomber,ZOMBER,z,,,,,,2.6491E-08,-1.4912E-08,0,0,0,,0,213,213,318,1,,
,,,,,,,,,,,,,,,,,,5ea5b7467bc3955b6bf0a1ca,2020-08-10_17h54.17.720,lexical_decision_task_MP,2020.1.3,Win32,60,m,0,0.27414,,,,,,,,0.27414,0,,,,,,480,NW,UN,50,knisma,ROBULY,z,,,,,,2.6491E-08,-1.4912E-08,0,0,0,,0,214,214,479,1,,
,,,,,,,,,,,,,,,,,,5ea5b7467bc3955b6bf0a1ca,2020-08-10_17h54.17.720,lexical_decision_task_MP,2020.1.3,Win32,60,z,1,0.344175,,,,,,,,0.344175,1,,,,,,286,NW,"ID",33,reldon,RELDON,z,,,,,,2.6491E-08,-1.4912E-08,0,0,0,,0,215,215,285,1,,
,,,,,,,,,,,,,,,,,,5ea5b7467bc3955b6bf0a1ca,2020-08-10_17h54.17.720,lexical_decision_task_MP,2020.1.3,Win32,60,z,1,0.203155,,,,,,,,0.203155,1,,,,,,406,NW,UN,33,suiver,NOUPLY,z,,,,,,2.6491E-08,-1.4912E-08,0,0,0,,0,216,216,405,1,,
,,,,,,,,,,,,,,,,,,5ea5b7467bc3955b6bf0a1ca,2020-08-10_17h54.17.720,lexical_decision_task_MP,2020.1.3,Win32,60,m,1,0.23197,,,,,,,,0.23197,1,,,,,,74,WORD,"ID",50,plaque,PLAQUE,m,,,,,,2.6491E-08,-1.4912E-08,0,0,0,,0,217,217,73,1,,
,,,,,,,,,,,,,,,,,,5ea5b7467bc3955b6bf0a1ca,2020-08-10_17h54.17.720,lexical_decision_task_MP,2020.1.3,Win32,60,m,1,0.28391,,,,,,,,0.28391,1,,,,,,216,WORD,UN,50,liquor,BEHALF,m,,,,,,2.6491E-08,-1.4912E-08,0,0,0,,0,218,218,215,1,,
,,,,,,,,,,,,,,,,,,5ea5b7467bc3955b6bf0a1ca,2020-08-10_17h54.17.720,lexical_decision_task_MP,2020.1.3,Win32,60,z,0,0.22382,,,,,,,,0.22382,0,,,,,,198,WORD,UN,50,invoke,WICKED,m,,,,,,2.6491E-08,-1.4912E-08,0,0,0,,0,219,219,197,1,,
,,,,,,,,,,,,,,,,,,5ea5b7467bc3955b6bf0a1ca,2020-08-10_17h54.17.720,lexical_decision_task_MP,2020.1.3,Win32,60,z,1,0.395785,,,,,,,,0.395785,1,,,,,,363,NW,UN,33,impote,BREALI,z,,,,,,2.6491E-08,-1.4912E-08,0,0,0,,0,220,220,362,1,,
,,,,,,,,,,,,,,,,,,5ea5b7467bc3955b6bf0a1ca,2020-08-10_17h54.17.720,lexical_decision_task_MP,2020.1.3,Win32,60,m,0,0.40495,,,,,,,,0.40495,0,,,,,,269,NW,"ID",33,orchet,ORCHET,z,,,,,,2.6491E-08,-1.4912E-08,0,0,0,,0,221,221,268,1,,
,,,,,,,,,,,,,,,,,,5ea5b7467bc3955b6bf0a1ca,2020-08-10_17h54.17.720,lexical_decision_task_MP,2020.1.3,Win32,60,,0,,,,,,,,,0.40495,-1,,,,,,365,NW,UN,33,toshel,GUAIRT,z,,,,,,2.6491E-08,-1.4912E-08,0,0,0,,0,222,222,364,1,,
,,,,,,,,,,,,,,,,,,5ea5b7467bc3955b6bf0a1ca,2020-08-10_17h54.17.720,lexical_decision_task_MP,2020.1.3,Win32,60,,0,,,,,,,,,0.40495,-1,,,,,,117,WORD,"ID",50,branch,BRANCH,m,,,,,,2.6491E-08,-1.4912E-08,0,0,0,,0,223,223,116,1,,
,,,,,,,,,,,,,,,,,,5ea5b7467bc3955b6bf0a1ca,2020-08-10_17h54.17.720,lexical_decision_task_MP,2020.1.3,Win32,60,,0,,,,,,,,,0.40495,-1,,,,,,92,WORD,"ID",50,strand,STRAND,m,,,,,,2.6491E-08,-1.4912E-08,0,0,0,,0,224,224,91,1,,
,,,,,,,,,,,,,,,,,,5ea5b7467bc3955b6bf0a1ca,2020-08-10_17h54.17.720,lexical_decision_task_MP,2020.1.3,Win32,60,,0,,,,,,,,,0.40495,-1,,,,,,155,WORD,UN,33,cradle,LIZARD,m,,,,,,2.6491E-08,-1.4912E-08,0,0,0,,0,225,225,154,1,,
,,,,,,,,,,,,,,,,,,5ea5b7467bc3955b6bf0a1ca,2020-08-10_17h54.17.720,lexical_decision_task_MP,2020.1.3,Win32,60,,0,,,,,,,,,0.40495,-1,,,,,,13,WORD,"ID",33,strive,STRIVE,m,,,,,,2.6491E-08,-1.4912E-08,0,0,0,,0,226,226,12,1,,
,,,,,,,,,,,,,,,,,,5ea5b7467bc3955b6bf0a1ca,2020-08-10_17h54.17.720,lexical_decision_task_MP,2020.1.3,Win32,60,,0,,,,,,,,,0.40495,-1,,,,,,164,WORD,UN,33,invest,MARKET,m,,,,,,2.6491E-08,-1.4912E-08,0,0,0,,0,227,227,163,1,,
,,,,,,,,,,,,,,,,,,5ea5b7467bc3955b6bf0a1ca,2020-08-10_17h54.17.720,lexical_decision_task_MP,2020.1.3,Win32,60,,0,,,,,,,,,0.40495,-1,,,,,,263,NW,"ID",33,dolica,DOLICA,z,,,,,,2.6491E-08,-1.4912E-08,0,0,0,,0,228,228,262,1,,
,,,,,,,,,,,,,,,,,,5ea5b7467bc3955b6bf0a1ca,2020-08-10_17h54.17.720,lexical_decision_task_MP,2020.1.3,Win32,60,,0,,,,,,,,,0.40495,-1,,,,,,219,WORD,UN,50,voyage,BUCKET,m,,,,,,2.6491E-08,-1.4912E-08,0,0,0,,0,229,229,218,1,,
,,,,,,,,,,,,,,,,,,5ea5b7467bc3955b6bf0a1ca,2020-08-10_17h54.17.720,lexical_decision_task_MP,2020.1.3,Win32,60,,0,,,,,,,,,0.40495,-1,,,,,,37,WORD,"ID",33,insult,INSULT,m,,,,,,2.6491E-08,-1.4912E-08,0,0,0,,0,230,230,36,1,,
,,,,,,,,,,,,,,,,,,5ea5b7467bc3955b6bf0a1ca,2020-08-10_17h54.17.720,lexical_decision_task_MP,2020.1.3,Win32,60,,0,,,,,,,,,0.40495,-1,,,,,,91,WORD,"ID",50,expand,EXPAND,m,,,,,,2.6491E-08,-1.4912E-08,0,0,0,,0,231,231,90,1,,
,,,,,,,,,,,,,,,,,,5ea5b7467bc3955b6bf0a1ca,2020-08-10_17h54.17.720,lexical_decision_task_MP,2020.1.3,Win32,60,,0,,,,,,,,,0.40495,-1,,,,,,96,WORD,"ID",50,ignore,IGNORE,m,,,,,,2.6491E-08,-1.4912E-08,0,0,0,,0,232,232,95,1,,
,,,,,,,,,,,,,,,,,,5ea5b7467bc3955b6bf0a1ca,2020-08-10_17h54.17.720,lexical_decision_task_MP,2020.1.3,Win32,60,,0,,,,,,,,,0.40495,-1,,,,,,182,WORD,UN,50,basket,WINTER,m,,,,,,2.6491E-08,-1.4912E-08,0,0,0,,0,233,233,181,1,,
,,,,,,,,,,,,,,,,,,5ea5b7467bc3955b6bf0a1ca,2020-08-10_17h54.17.720,lexical_decision_task_MP,2020.1.3,Win32,60,,0,,,,,,,,,0.40495,-1,,,,,,464,NW,UN,50,whivex,CHAITE,z,,,,,,2.6491E-08,-1.4912E-08,0,0,0,,0,234,234,463,1,,
,,,,,,,,,,,,,,,,,,5ea5b7467bc3955b6bf0a1ca,2020-08-10_17h54.17.720,lexical_decision_task_MP,2020.1.3,Win32,60,,0,,,,,,,,,0.40495,-1,,,,,,387,NW,UN,33,cragin,GRONCE,z,,,,,,2.6491E-08,-1.4912E-08,0,0,0,,0,235,235,386,1,,
,,,,,,,,,,,,,,,,,,5ea5b7467bc3955b6bf0a1ca,2020-08-10_17h54.17.720,lexical_decision_task_MP,2020.1.3,Win32,60,,0,,,,,,,,,0.40495,-1,,,,,,265,NW,"ID",33,distar,DISTAR,z,,,,,,2.6491E-08,-1.4912E-08,0,0,0,,0,236,236,264,1,,
,,,,,,,,,,,,,,,,,,5ea5b7467bc3955b6bf0a1ca,2020-08-10_17h54.17.720,lexical_decision_task_MP,2020.1.3,Win32,60,,0,,,,,,,,,0.40495,-1,,,,,,281,NW,"ID",33,melaty,MELATY,z,,,,,,2.6491E-08,-1.4912E-08,0,0,0,,0,237,237,280,1,,
,,,,,,,,,,,,,,,,,,5ea5b7467bc3955b6bf0a1ca,2020-08-10_17h54.17.720,lexical_decision_task_MP,2020.1.3,Win32,60,,0,,,,,,,,,0.40495,-1,,,,,,404,NW,UN,33,syntic,CLUIRM,z,,,,,,2.6491E-08,-1.4912E-08,0,0,0,,0,238,238,403,1,,
,,,,,,,,,,,,,,,,,,5ea5b7467bc3955b6bf0a1ca,2020-08-10_17h54.17.720,lexical_decision_task_MP,2020.1.3,Win32,60,,0,,,,,,,,,0.40495,-1,,,,,,384,NW,UN,33,veigma,GUESCO,z,,,,,,2.6491E-08,-1.4912E-08,0,0,0,,0,239,239,383,1,,
,,,,,,,,,,,,,,,,,,5ea5b7467bc3955b6bf0a1ca,2020-08-10_17h54.17.720,lexical_decision_task_MP,2020.1.3,Win32,60,,0,,,,,,,,,0.40495,-1,,,,,,27,WORD,"ID",33,scream,SCREAM,m,,,,,,2.6491E-08,-1.4912E-08,0,0,0,,0,240,240,26,1,,
,,,,,,,,,,,,,,,,,,5ea5b7467bc3955b6bf0a1ca,2020-08-10_17h54.17.720,lexical_decision_task_MP,2020.1.3,Win32,60,,0,,,,,,,,,0.40495,-1,,,,,,477,NW,UN,50,acrise,PHOTIE,z,,,,,,,,,,,,1,0,480,476,1,,479
