counterbalancing_condition,instr_done_keyboard.keys,instr_done_keyboard.rt,instr_done_touch.x,instr_done_touch.y,instr_done_touch.leftButton,instr_done_touch.midButton,instr_done_touch.rightButton,instruction_pages.thisRepN,instruction_pages.thisTrialN,instruction_pages.thisN,instruction_pages.thisIndex,instruction_pages.ran,pageN,phase,instruct_text,has_image,instruct_image,participant,date,expName,psychopyVersion,OS,frameRate,response.keys,response.corr,response.rt,touch_resp.x,touch_resp.y,touch_resp.leftButton,touch_resp.midButton,touch_resp.rightButton,touch_resp.time,touch_resp.clicked_name,rt,corr,practice_trials.thisRepN,practice_trials.thisTrialN,practice_trials.thisN,practice_trials.thisIndex,practice_trials.ran,TrialID,StimulusType,Condition,PrimeDuration,Prime,Target,corrAns,end_of_practice_trials_pages.thisRepN,end_of_practice_trials_pages.thisTrialN,end_of_practice_trials_pages.thisN,end_of_practice_trials_pages.thisIndex,end_of_practice_trials_pages.ran,break_done_touch.x,break_done_touch.y,break_done_touch.leftButton,break_done_touch.midButton,break_done_touch.rightButton,break_done_keyboard.keys,trials.thisRepN,trials.thisTrialN,trials.thisN,trials.thisIndex,trials.ran,break_done_touch.clicked_name,break_done_keyboard.rt
0,space,8.44553,0.25703125,-0.240568576,0,0,0,0,0,0,0,1,1,instructions,"INSTRUCTIONS
At the start of each trial, look at the hash marks (######) in the center of the screen. After a moment, a string of letters will appear. Your task is to indicate if the letter string forms a word or not (i.e., if it is a nonword). For example, AUTHOR is a word while AUTHON is a nonword.

Press the space bar or touch the button below to continue.",0,,5ebbf5e7aee67702ea450cf2,2020-08-10_18h08.46.133,lexical_decision_task_MP,2020.1.3,MacIntel,60,,,,,,,,,,,,,,,,,,,,,,,,,,,,,,,,,,,,,,,,,,
,space,5.95859,0.25703125,-0.240568576,0,0,0,0,1,1,1,1,2,instructions,"If your device has a keyboard, press the 'Z' key for nonwords and the 'M' key for words.





Press the space bar or touch the button below to continue.",1,keyboard-example.gif,5ebbf5e7aee67702ea450cf2,2020-08-10_18h08.46.133,lexical_decision_task_MP,2020.1.3,MacIntel,60,,,,,,,,,,,,,,,,,,,,,,,,,,,,,,,,,,,,,,,,,,
,space,1.36714,0.25703125,-0.240568576,0,0,0,0,2,2,2,1,3,instructions,"If you are using a touchscreen only device, use the buttons on the screen. Do not use the mouse.





Press the space bar or touch the button below to continue.",1,touchscreen-example.gif,5ebbf5e7aee67702ea450cf2,2020-08-10_18h08.46.133,lexical_decision_task_MP,2020.1.3,MacIntel,60,,,,,,,,,,,,,,,,,,,,,,,,,,,,,,,,,,,,,,,,,,
,space,3.283025,0.25703125,-0.240568576,0,0,0,0,3,3,3,1,4,instructions,"It is very important that you respond as quickly and accurately as possible, as each letter string will only be on the screen for two seconds. If you do not respond within this time, the message 'Too slow!' will be displayed and the experiment will progress to the next letter string. The first 20 trials will be practice trials and you will receive feedback on your answers. 

Press the space bar or touch the button below to start the practice trials.",0,,5ebbf5e7aee67702ea450cf2,2020-08-10_18h08.46.133,lexical_decision_task_MP,2020.1.3,MacIntel,60,,,,,,,,,,,,,,,,,,,,,,,,,,,,,,,,,,,,,,,,,,
,,,,,,,,,,,,,,,,,,5ebbf5e7aee67702ea450cf2,2020-08-10_18h08.46.133,lexical_decision_task_MP,2020.1.3,MacIntel,60,m,1,0.917345,,,,,,,,0.917345,1,0,0,0,0,1,1001,WORD,"ID",33,utopia,UTOPIA,m,,,,,,,,,,,,,,,,,,
,,,,,,,,,,,,,,,,,,5ebbf5e7aee67702ea450cf2,2020-08-10_18h08.46.133,lexical_decision_task_MP,2020.1.3,MacIntel,60,z,1,0.59362,,,,,,,,0.59362,1,0,1,1,15,1,1016,NW,UN,50,mushed,WHAISE,z,,,,,,,,,,,,,,,,,,
,,,,,,,,,,,,,,,,,,5ebbf5e7aee67702ea450cf2,2020-08-10_18h08.46.133,lexical_decision_task_MP,2020.1.3,MacIntel,60,z,1,0.579615,,,,,,,,0.579615,1,0,2,2,13,1,1014,NW,UN,33,winfer,ROUPET,z,,,,,,,,,,,,,,,,,,
,,,,,,,,,,,,,,,,,,5ebbf5e7aee67702ea450cf2,2020-08-10_18h08.46.133,lexical_decision_task_MP,2020.1.3,MacIntel,60,m,1,0.505785,,,,,,,,0.505785,1,0,3,3,3,1,1004,WORD,"ID",50,matrix,MATRIX,m,,,,,,,,,,,,,,,,,,
,,,,,,,,,,,,,,,,,,5ebbf5e7aee67702ea450cf2,2020-08-10_18h08.46.133,lexical_decision_task_MP,2020.1.3,MacIntel,60,m,1,0.5119,,,,,,,,0.5119,1,0,4,4,4,1,1005,WORD,UN,33,abound,SQUEAK,m,,,,,,,,,,,,,,,,,,
,,,,,,,,,,,,,,,,,,5ebbf5e7aee67702ea450cf2,2020-08-10_18h08.46.133,lexical_decision_task_MP,2020.1.3,MacIntel,60,z,1,0.642645,,,,,,,,0.642645,1,0,5,5,8,1,1009,NW,"ID",33,aslert,ASLERT,z,,,,,,,,,,,,,,,,,,
,,,,,,,,,,,,,,,,,,5ebbf5e7aee67702ea450cf2,2020-08-10_18h08.46.133,lexical_decision_task_MP,2020.1.3,MacIntel,60,m,1,0.491765,,,,,,,,0.491765,1,0,6,6,5,1,1006,WORD,UN,33,frenzy,OBTAIN,m,,,,,,,,,,,,,,,,,,
,,,,,,,,,,,,,,,,,,5ebbf5e7aee67702ea450cf2,2020-08-10_18h08.46.133,lexical_decision_task_MP,2020.1.3,MacIntel,60,z,1,0.663725,,,,,,,,0.663725,1,0,7,7,10,1,1011,NW,"ID",50,inlade,INLADE,z,,,,,,,,,,,,,,,,,,
,,,,,,,,,,,,,,,,,,5ebbf5e7aee67702ea450cf2,2020-08-10_18h08.46.133,lexical_decision_task_MP,2020.1.3,MacIntel,60,m,1,0.590505,,,,,,,,0.590505,1,0,8,8,6,1,1007,WORD,UN,50,tropic,ZOMBIE,m,,,,,,,,,,,,,,,,,,
,,,,,,,,,,,,,,,,,,5ebbf5e7aee67702ea450cf2,2020-08-10_18h08.46.133,lexical_decision_task_MP,2020.1.3,MacIntel,60,z,1,0.591305,,,,,,,,0.591305,1,0,9,9,14,1,1015,NW,UN,50,miaber,THRALE,z,,,,,,,,,,,,,,,,,,
,,,,,,,,,,,,,,,,,,5ebbf5e7aee67702ea450cf2,2020-08-10_18h08.46.133,lexical_decision_task_MP,2020.1.3,MacIntel,60,z,1,0.56106,,,,,,,,0.56106,1,0,10,10,12,1,1013,NW,UN,33,adveil,SPRINY,z,,,,,,,,,,,,,,,,,,
,,,,,,,,,,,,,,,,,,5ebbf5e7aee67702ea450cf2,2020-08-10_18h08.46.133,lexical_decision_task_MP,2020.1.3,MacIntel,60,m,1,0.52745,,,,,,,,0.52745,1,0,11,11,1,1,1002,WORD,"ID",33,adjust,ADJUST,m,,,,,,,,,,,,,,,,,,
,,,,,,,,,,,,,,,,,,5ebbf5e7aee67702ea450cf2,2020-08-10_18h08.46.133,lexical_decision_task_MP,2020.1.3,MacIntel,60,m,1,0.39697,,,,,,,,0.39697,1,0,12,12,7,1,1008,WORD,UN,50,hurdle,VOLUME,m,,,,,,,,,,,,,,,,,,
,,,,,,,,,,,,,,,,,,5ebbf5e7aee67702ea450cf2,2020-08-10_18h08.46.133,lexical_decision_task_MP,2020.1.3,MacIntel,60,z,1,0.48967,,,,,,,,0.48967,1,0,13,13,9,1,1010,NW,"ID",33,fariny,FARINY,z,,,,,,,,,,,,,,,,,,
,,,,,,,,,,,,,,,,,,5ebbf5e7aee67702ea450cf2,2020-08-10_18h08.46.133,lexical_decision_task_MP,2020.1.3,MacIntel,60,m,1,0.42429,,,,,,,,0.42429,1,0,14,14,2,1,1003,WORD,"ID",50,almond,ALMOND,m,,,,,,,,,,,,,,,,,,
,,,,,,,,,,,,,,,,,,5ebbf5e7aee67702ea450cf2,2020-08-10_18h08.46.133,lexical_decision_task_MP,2020.1.3,MacIntel,60,m,0,0.514435,,,,,,,,0.514435,0,0,15,15,11,1,1012,NW,"ID",50,rashet,RASHET,z,,,,,,,,,,,,,,,,,,
,space,7.86624,0.109739583,-0.383611111,0,0,0,,,,,,1,end_of_practice,"You have completed the practice trials. During the experimental trials, you will not receive feedback, but it is very important that you respond as quickly and accurately as possible. 
Before you begin, please ensure that you are in a comfortable and quiet location and will not be disturbed for about 15 minutes, as we cannot use your data if you do not complete all the trials. 
There will be opportunities to take breaks at regular intervals during the experiment. When you are ready to start the experimental trials, please press space or touch the button below.",,,5ebbf5e7aee67702ea450cf2,2020-08-10_18h08.46.133,lexical_decision_task_MP,2020.1.3,MacIntel,60,,,,,,,,,,,,,,,,,,,,,,,,,0,0,0,0,1,,,,,,,,,,,,,
,,,,,,,,,,,,,,,,,,5ebbf5e7aee67702ea450cf2,2020-08-10_18h08.46.133,lexical_decision_task_MP,2020.1.3,MacIntel,60,m,1,0.54578,,,,,,,,0.54578,1,,,,,,64,WORD,UN,33,symbol,THRONE,m,,,,,,0.109739583,-0.383611111,0,0,0,,0,0,0,123,1,,
,,,,,,,,,,,,,,,,,,5ebbf5e7aee67702ea450cf2,2020-08-10_18h08.46.133,lexical_decision_task_MP,2020.1.3,MacIntel,60,m,0,0.329155,,,,,,,,0.329155,0,,,,,,449,NW,"ID",33,brunge,BRUNGE,z,,,,,,0.109739583,-0.383611111,0,0,0,,0,1,1,268,1,,
,,,,,,,,,,,,,,,,,,5ebbf5e7aee67702ea450cf2,2020-08-10_18h08.46.133,lexical_decision_task_MP,2020.1.3,MacIntel,60,m,1,0.576285,,,,,,,,0.576285,1,,,,,,50,WORD,"ID",50,snatch,SNATCH,m,,,,,,0.109739583,-0.383611111,0,0,0,,0,2,2,109,1,,
,,,,,,,,,,,,,,,,,,5ebbf5e7aee67702ea450cf2,2020-08-10_18h08.46.133,lexical_decision_task_MP,2020.1.3,MacIntel,60,z,1,0.592565,,,,,,,,0.592565,1,,,,,,380,NW,UN,50,huniek,CAVORY,z,,,,,,0.109739583,-0.383611111,0,0,0,,0,3,3,439,1,,
,,,,,,,,,,,,,,,,,,5ebbf5e7aee67702ea450cf2,2020-08-10_18h08.46.133,lexical_decision_task_MP,2020.1.3,MacIntel,60,m,1,0.49631,,,,,,,,0.49631,1,,,,,,130,WORD,UN,50,quench,STUPID,m,,,,,,0.109739583,-0.383611111,0,0,0,,0,4,4,189,1,,
,,,,,,,,,,,,,,,,,,5ebbf5e7aee67702ea450cf2,2020-08-10_18h08.46.133,lexical_decision_task_MP,2020.1.3,MacIntel,60,m,0,0.480825,,,,,,,,0.480825,0,,,,,,293,NW,"ID",50,swance,SWANCE,z,,,,,,0.109739583,-0.383611111,0,0,0,,0,5,5,352,1,,
,,,,,,,,,,,,,,,,,,5ebbf5e7aee67702ea450cf2,2020-08-10_18h08.46.133,lexical_decision_task_MP,2020.1.3,MacIntel,60,m,1,0.46436,,,,,,,,0.46436,1,,,,,,52,WORD,"ID",50,impose,IMPOSE,m,,,,,,0.109739583,-0.383611111,0,0,0,,0,6,6,111,1,,
,,,,,,,,,,,,,,,,,,5ebbf5e7aee67702ea450cf2,2020-08-10_18h08.46.133,lexical_decision_task_MP,2020.1.3,MacIntel,60,m,1,0.57101,,,,,,,,0.57101,1,,,,,,152,WORD,UN,50,behold,ROCKET,m,,,,,,0.109739583,-0.383611111,0,0,0,,0,7,7,211,1,,
,,,,,,,,,,,,,,,,,,5ebbf5e7aee67702ea450cf2,2020-08-10_18h08.46.133,lexical_decision_task_MP,2020.1.3,MacIntel,60,m,1,0.574425,,,,,,,,0.574425,1,,,,,,181,WORD,"ID",33,glance,GLANCE,m,,,,,,0.109739583,-0.383611111,0,0,0,,0,8,8,0,1,,
,,,,,,,,,,,,,,,,,,5ebbf5e7aee67702ea450cf2,2020-08-10_18h08.46.133,lexical_decision_task_MP,2020.1.3,MacIntel,60,m,1,0.49701,,,,,,,,0.49701,1,,,,,,5,WORD,"ID",50,plunge,PLUNGE,m,,,,,,0.109739583,-0.383611111,0,0,0,,0,9,9,64,1,,
,,,,,,,,,,,,,,,,,,5ebbf5e7aee67702ea450cf2,2020-08-10_18h08.46.133,lexical_decision_task_MP,2020.1.3,MacIntel,60,z,1,0.614115,,,,,,,,0.614115,1,,,,,,467,NW,"ID",33,gorbie,GORBIE,z,,,,,,0.109739583,-0.383611111,0,0,0,,0,10,10,286,1,,
,,,,,,,,,,,,,,,,,,5ebbf5e7aee67702ea450cf2,2020-08-10_18h08.46.133,lexical_decision_task_MP,2020.1.3,MacIntel,60,m,1,1.0155,,,,,,,,1.0155,1,,,,,,8,WORD,"ID",50,abrupt,ABRUPT,m,,,,,,0.109739583,-0.383611111,0,0,0,,0,11,11,67,1,,
,,,,,,,,,,,,,,,,,,5ebbf5e7aee67702ea450cf2,2020-08-10_18h08.46.133,lexical_decision_task_MP,2020.1.3,MacIntel,60,m,1,0.72352,,,,,,,,0.72352,1,,,,,,30,WORD,"ID",50,orient,ORIENT,m,,,,,,0.109739583,-0.383611111,0,0,0,,0,12,12,89,1,,
,,,,,,,,,,,,,,,,,,5ebbf5e7aee67702ea450cf2,2020-08-10_18h08.46.133,lexical_decision_task_MP,2020.1.3,MacIntel,60,m,1,0.48443,,,,,,,,0.48443,1,,,,,,105,WORD,UN,33,ransom,NUMBER,m,,,,,,0.109739583,-0.383611111,0,0,0,,0,13,13,164,1,,
,,,,,,,,,,,,,,,,,,5ebbf5e7aee67702ea450cf2,2020-08-10_18h08.46.133,lexical_decision_task_MP,2020.1.3,MacIntel,60,m,1,0.54824,,,,,,,,0.54824,1,,,,,,197,WORD,"ID",33,stream,STREAM,m,,,,,,0.109739583,-0.383611111,0,0,0,,0,14,14,16,1,,
,,,,,,,,,,,,,,,,,,5ebbf5e7aee67702ea450cf2,2020-08-10_18h08.46.133,lexical_decision_task_MP,2020.1.3,MacIntel,60,m,1,0.53421,,,,,,,,0.53421,1,,,,,,101,WORD,UN,33,direct,WRENCH,m,,,,,,0.109739583,-0.383611111,0,0,0,,0,15,15,160,1,,
,,,,,,,,,,,,,,,,,,5ebbf5e7aee67702ea450cf2,2020-08-10_18h08.46.133,lexical_decision_task_MP,2020.1.3,MacIntel,60,z,1,0.660755,,,,,,,,0.660755,1,,,,,,428,NW,"ID",33,tandly,TANDLY,z,,,,,,0.109739583,-0.383611111,0,0,0,,0,16,16,247,1,,
,,,,,,,,,,,,,,,,,,5ebbf5e7aee67702ea450cf2,2020-08-10_18h08.46.133,lexical_decision_task_MP,2020.1.3,MacIntel,60,z,1,0.6052,,,,,,,,0.6052,1,,,,,,294,NW,"ID",50,inhort,INHORT,z,,,,,,0.109739583,-0.383611111,0,0,0,,0,17,17,353,1,,
,,,,,,,,,,,,,,,,,,5ebbf5e7aee67702ea450cf2,2020-08-10_18h08.46.133,lexical_decision_task_MP,2020.1.3,MacIntel,60,m,1,0.506895,,,,,,,,0.506895,1,,,,,,33,WORD,"ID",50,butler,BUTLER,m,,,,,,0.109739583,-0.383611111,0,0,0,,0,18,18,92,1,,
,,,,,,,,,,,,,,,,,,5ebbf5e7aee67702ea450cf2,2020-08-10_18h08.46.133,lexical_decision_task_MP,2020.1.3,MacIntel,60,z,1,0.760295,,,,,,,,0.760295,1,,,,,,420,NW,UN,50,pauche,GUSHOP,z,,,,,,0.109739583,-0.383611111,0,0,0,,0,19,19,479,1,,
,,,,,,,,,,,,,,,,,,5ebbf5e7aee67702ea450cf2,2020-08-10_18h08.46.133,lexical_decision_task_MP,2020.1.3,MacIntel,60,m,1,0.624615,,,,,,,,0.624615,1,,,,,,183,WORD,"ID",33,mildew,MILDEW,m,,,,,,0.109739583,-0.383611111,0,0,0,,0,20,20,2,1,,
,,,,,,,,,,,,,,,,,,5ebbf5e7aee67702ea450cf2,2020-08-10_18h08.46.133,lexical_decision_task_MP,2020.1.3,MacIntel,60,m,1,0.579055,,,,,,,,0.579055,1,,,,,,111,WORD,UN,33,breath,INDUCE,m,,,,,,0.109739583,-0.383611111,0,0,0,,0,21,21,170,1,,
,,,,,,,,,,,,,,,,,,5ebbf5e7aee67702ea450cf2,2020-08-10_18h08.46.133,lexical_decision_task_MP,2020.1.3,MacIntel,60,m,0,0.704,,,,,,,,0.704,0,,,,,,332,NW,UN,33,catrie,VANGUE,z,,,,,,0.109739583,-0.383611111,0,0,0,,0,22,22,391,1,,
,,,,,,,,,,,,,,,,,,5ebbf5e7aee67702ea450cf2,2020-08-10_18h08.46.133,lexical_decision_task_MP,2020.1.3,MacIntel,60,,0,,,,,,,,,0.704,-1,,,,,,235,WORD,"ID",33,grumpy,GRUMPY,m,,,,,,0.109739583,-0.383611111,0,0,0,,0,23,23,54,1,,
,,,,,,,,,,,,,,,,,,5ebbf5e7aee67702ea450cf2,2020-08-10_18h08.46.133,lexical_decision_task_MP,2020.1.3,MacIntel,60,m,1,0.681575,,,,,,,,0.681575,1,,,,,,219,WORD,"ID",33,bucket,BUCKET,m,,,,,,0.109739583,-0.383611111,0,0,0,,0,24,24,38,1,,
,,,,,,,,,,,,,,,,,,5ebbf5e7aee67702ea450cf2,2020-08-10_18h08.46.133,lexical_decision_task_MP,2020.1.3,MacIntel,60,z,1,0.580935,,,,,,,,0.580935,1,,,,,,407,NW,UN,50,hurnia,SUIVER,z,,,,,,0.109739583,-0.383611111,0,0,0,,0,25,25,466,1,,
,,,,,,,,,,,,,,,,,,5ebbf5e7aee67702ea450cf2,2020-08-10_18h08.46.133,lexical_decision_task_MP,2020.1.3,MacIntel,60,z,1,0.609445,,,,,,,,0.609445,1,,,,,,442,NW,"ID",33,aboune,ABOUNE,z,,,,,,0.109739583,-0.383611111,0,0,0,,0,26,26,261,1,,
,,,,,,,,,,,,,,,,,,5ebbf5e7aee67702ea450cf2,2020-08-10_18h08.46.133,lexical_decision_task_MP,2020.1.3,MacIntel,60,z,1,0.68645,,,,,,,,0.68645,1,,,,,,423,NW,"ID",33,streld,STRELD,z,,,,,,0.109739583,-0.383611111,0,0,0,,0,27,27,242,1,,
,,,,,,,,,,,,,,,,,,5ebbf5e7aee67702ea450cf2,2020-08-10_18h08.46.133,lexical_decision_task_MP,2020.1.3,MacIntel,60,z,1,0.499005,,,,,,,,0.499005,1,,,,,,241,NW,"ID",50,smenco,SMENCO,z,,,,,,0.109739583,-0.383611111,0,0,0,,0,28,28,300,1,,
,,,,,,,,,,,,,,,,,,5ebbf5e7aee67702ea450cf2,2020-08-10_18h08.46.133,lexical_decision_task_MP,2020.1.3,MacIntel,60,m,1,0.53056,,,,,,,,0.53056,1,,,,,,127,WORD,UN,50,senior,CASTLE,m,,,,,,0.109739583,-0.383611111,0,0,0,,0,29,29,186,1,,
,,,,,,,,,,,,,,,,,,5ebbf5e7aee67702ea450cf2,2020-08-10_18h08.46.133,lexical_decision_task_MP,2020.1.3,MacIntel,60,z,0,0.554955,,,,,,,,0.554955,0,,,,,,87,WORD,UN,33,sprawl,FILTER,m,,,,,,0.109739583,-0.383611111,0,0,0,,0,30,30,146,1,,
,,,,,,,,,,,,,,,,,,5ebbf5e7aee67702ea450cf2,2020-08-10_18h08.46.133,lexical_decision_task_MP,2020.1.3,MacIntel,60,z,1,0.52829,,,,,,,,0.52829,1,,,,,,446,NW,"ID",33,runamo,RUNAMO,z,,,,,,0.109739583,-0.383611111,0,0,0,,0,31,31,265,1,,
,,,,,,,,,,,,,,,,,,5ebbf5e7aee67702ea450cf2,2020-08-10_18h08.46.133,lexical_decision_task_MP,2020.1.3,MacIntel,60,m,1,0.459785,,,,,,,,0.459785,1,,,,,,148,WORD,UN,50,invade,CUSTOM,m,,,,,,0.109739583,-0.383611111,0,0,0,,0,32,32,207,1,,
,,,,,,,,,,,,,,,,,,5ebbf5e7aee67702ea450cf2,2020-08-10_18h08.46.133,lexical_decision_task_MP,2020.1.3,MacIntel,60,z,1,0.560135,,,,,,,,0.560135,1,,,,,,243,NW,"ID",50,musied,MUSIED,z,,,,,,0.109739583,-0.383611111,0,0,0,,0,33,33,302,1,,
,,,,,,,,,,,,,,,,,,5ebbf5e7aee67702ea450cf2,2020-08-10_18h08.46.133,lexical_decision_task_MP,2020.1.3,MacIntel,60,m,1,0.479615,,,,,,,,0.479615,1,,,,,,40,WORD,"ID",50,convey,CONVEY,m,,,,,,0.109739583,-0.383611111,0,0,0,,0,34,34,99,1,,
,,,,,,,,,,,,,,,,,,5ebbf5e7aee67702ea450cf2,2020-08-10_18h08.46.133,lexical_decision_task_MP,2020.1.3,MacIntel,60,m,1,0.440205,,,,,,,,0.440205,1,,,,,,63,WORD,UN,33,throne,LAUNCH,m,,,,,,0.109739583,-0.383611111,0,0,0,,0,35,35,122,1,,
,,,,,,,,,,,,,,,,,,5ebbf5e7aee67702ea450cf2,2020-08-10_18h08.46.133,lexical_decision_task_MP,2020.1.3,MacIntel,60,z,1,0.50965,,,,,,,,0.50965,1,,,,,,292,NW,"ID",50,ablint,ABLINT,z,,,,,,0.109739583,-0.383611111,0,0,0,,0,36,36,351,1,,
,,,,,,,,,,,,,,,,,,5ebbf5e7aee67702ea450cf2,2020-08-10_18h08.46.133,lexical_decision_task_MP,2020.1.3,MacIntel,60,m,1,0.482395,,,,,,,,0.482395,1,,,,,,135,WORD,UN,50,bleach,IMPORT,m,,,,,,0.109739583,-0.383611111,0,0,0,,0,37,37,194,1,,
,,,,,,,,,,,,,,,,,,5ebbf5e7aee67702ea450cf2,2020-08-10_18h08.46.133,lexical_decision_task_MP,2020.1.3,MacIntel,60,m,1,0.455425,,,,,,,,0.455425,1,,,,,,65,WORD,UN,33,gospel,SYMBOL,m,,,,,,0.109739583,-0.383611111,0,0,0,,0,38,38,124,1,,
,,,,,,,,,,,,,,,,,,5ebbf5e7aee67702ea450cf2,2020-08-10_18h08.46.133,lexical_decision_task_MP,2020.1.3,MacIntel,60,z,1,0.56922,,,,,,,,0.56922,1,,,,,,415,NW,UN,50,pathel,HIGSTA,z,,,,,,0.109739583,-0.383611111,0,0,0,,0,39,39,474,1,,
,,,,,,,,,,,,,,,,,,5ebbf5e7aee67702ea450cf2,2020-08-10_18h08.46.133,lexical_decision_task_MP,2020.1.3,MacIntel,60,m,1,0.414505,,,,,,,,0.414505,1,,,,,,27,WORD,"ID",50,scream,SCREAM,m,,,,,,0.109739583,-0.383611111,0,0,0,,0,40,40,86,1,,
,,,,,,,,,,,,,,,,,,5ebbf5e7aee67702ea450cf2,2020-08-10_18h08.46.133,lexical_decision_task_MP,2020.1.3,MacIntel,60,m,1,0.49811,,,,,,,,0.49811,1,,,,,,214,WORD,"ID",33,intake,INTAKE,m,,,,,,0.109739583,-0.383611111,0,0,0,,0,41,41,33,1,,
,,,,,,,,,,,,,,,,,,5ebbf5e7aee67702ea450cf2,2020-08-10_18h08.46.133,lexical_decision_task_MP,2020.1.3,MacIntel,60,z,1,0.659185,,,,,,,,0.659185,1,,,,,,401,NW,UN,50,syntic,MUSTIL,z,,,,,,0.109739583,-0.383611111,0,0,0,,0,42,42,460,1,,
,,,,,,,,,,,,,,,,,,5ebbf5e7aee67702ea450cf2,2020-08-10_18h08.46.133,lexical_decision_task_MP,2020.1.3,MacIntel,60,m,1,0.537615,,,,,,,,0.537615,1,,,,,,26,WORD,"ID",50,sprint,SPRINT,m,,,,,,0.109739583,-0.383611111,0,0,0,,0,43,43,85,1,,
,,,,,,,,,,,,,,,,,,5ebbf5e7aee67702ea450cf2,2020-08-10_18h08.46.133,lexical_decision_task_MP,2020.1.3,MacIntel,60,m,1,0.415145,,,,,,,,0.415145,1,,,,,,44,WORD,"ID",50,danger,DANGER,m,,,,,,0.109739583,-0.383611111,0,0,0,,0,44,44,103,1,,
,,,,,,,,,,,,,,,,,,5ebbf5e7aee67702ea450cf2,2020-08-10_18h08.46.133,lexical_decision_task_MP,2020.1.3,MacIntel,60,m,1,0.72801,,,,,,,,0.72801,1,,,,,,160,WORD,UN,50,pastor,VIOLET,m,,,,,,0.109739583,-0.383611111,0,0,0,,0,45,45,219,1,,
,,,,,,,,,,,,,,,,,,5ebbf5e7aee67702ea450cf2,2020-08-10_18h08.46.133,lexical_decision_task_MP,2020.1.3,MacIntel,60,z,1,0.70356,,,,,,,,0.70356,1,,,,,,285,NW,"ID",50,prudge,PRUDGE,z,,,,,,0.109739583,-0.383611111,0,0,0,,0,46,46,344,1,,
,,,,,,,,,,,,,,,,,,5ebbf5e7aee67702ea450cf2,2020-08-10_18h08.46.133,lexical_decision_task_MP,2020.1.3,MacIntel,60,m,1,0.503195,,,,,,,,0.503195,1,,,,,,112,WORD,UN,33,chorus,BREATH,m,,,,,,0.109739583,-0.383611111,0,0,0,,0,47,47,171,1,,
,,,,,,,,,,,,,,,,,,5ebbf5e7aee67702ea450cf2,2020-08-10_18h08.46.133,lexical_decision_task_MP,2020.1.3,MacIntel,60,z,1,0.792365,,,,,,,,0.792365,1,,,,,,413,NW,UN,50,serbol,EQUATS,z,,,,,,0.109739583,-0.383611111,0,0,0,,0,48,48,472,1,,
,,,,,,,,,,,,,,,,,,5ebbf5e7aee67702ea450cf2,2020-08-10_18h08.46.133,lexical_decision_task_MP,2020.1.3,MacIntel,60,z,1,0.947565,,,,,,,,0.947565,1,,,,,,346,NW,UN,33,kerift,SAUDIC,z,,,,,,0.109739583,-0.383611111,0,0,0,,0,49,49,405,1,,
,,,,,,,,,,,,,,,,,,5ebbf5e7aee67702ea450cf2,2020-08-10_18h08.46.133,lexical_decision_task_MP,2020.1.3,MacIntel,60,m,1,0.47563,,,,,,,,0.47563,1,,,,,,169,WORD,UN,50,pounce,GENIUS,m,,,,,,0.109739583,-0.383611111,0,0,0,,0,50,50,228,1,,
,,,,,,,,,,,,,,,,,,5ebbf5e7aee67702ea450cf2,2020-08-10_18h08.46.133,lexical_decision_task_MP,2020.1.3,MacIntel,60,m,1,0.50204,,,,,,,,0.50204,1,,,,,,233,WORD,"ID",33,nature,NATURE,m,,,,,,0.109739583,-0.383611111,0,0,0,,0,51,51,52,1,,
,,,,,,,,,,,,,,,,,,5ebbf5e7aee67702ea450cf2,2020-08-10_18h08.46.133,lexical_decision_task_MP,2020.1.3,MacIntel,60,z,1,0.586345,,,,,,,,0.586345,1,,,,,,305,NW,UN,33,sounge,FORGLE,z,,,,,,0.109739583,-0.383611111,0,0,0,,0,52,52,364,1,,
,,,,,,,,,,,,,,,,,,5ebbf5e7aee67702ea450cf2,2020-08-10_18h08.46.133,lexical_decision_task_MP,2020.1.3,MacIntel,60,m,1,0.48762,,,,,,,,0.48762,1,,,,,,56,WORD,"ID",50,ambush,AMBUSH,m,,,,,,0.109739583,-0.383611111,0,0,0,,0,53,53,115,1,,
,,,,,,,,,,,,,,,,,,5ebbf5e7aee67702ea450cf2,2020-08-10_18h08.46.133,lexical_decision_task_MP,2020.1.3,MacIntel,60,m,1,0.568055,,,,,,,,0.568055,1,,,,,,234,WORD,"ID",33,clumsy,CLUMSY,m,,,,,,0.109739583,-0.383611111,0,0,0,,0,54,54,53,1,,
,,,,,,,,,,,,,,,,,,5ebbf5e7aee67702ea450cf2,2020-08-10_18h08.46.133,lexical_decision_task_MP,2020.1.3,MacIntel,60,z,1,0.61246,,,,,,,,0.61246,1,,,,,,418,NW,UN,50,slount,SUIDLE,z,,,,,,0.109739583,-0.383611111,0,0,0,,0,55,55,477,1,,
,,,,,,,,,,,,,,,,,,5ebbf5e7aee67702ea450cf2,2020-08-10_18h08.46.133,lexical_decision_task_MP,2020.1.3,MacIntel,60,m,1,0.60171,,,,,,,,0.60171,1,,,,,,191,WORD,"ID",33,stable,STABLE,m,,,,,,0.109739583,-0.383611111,0,0,0,,0,56,56,10,1,,
,,,,,,,,,,,,,,,,,,5ebbf5e7aee67702ea450cf2,2020-08-10_18h08.46.133,lexical_decision_task_MP,2020.1.3,MacIntel,60,z,1,0.500775,,,,,,,,0.500775,1,,,,,,262,NW,"ID",50,quilew,QUILEW,z,,,,,,0.109739583,-0.383611111,0,0,0,,0,57,57,321,1,,
,,,,,,,,,,,,,,,,,,5ebbf5e7aee67702ea450cf2,2020-08-10_18h08.46.133,lexical_decision_task_MP,2020.1.3,MacIntel,60,m,1,0.48139,,,,,,,,0.48139,1,,,,,,185,WORD,"ID",33,bother,BOTHER,m,,,,,,0.109739583,-0.383611111,0,0,0,,0,58,58,4,1,,
,,,,,,,,,,,,,,,,,,5ebbf5e7aee67702ea450cf2,2020-08-10_18h08.46.133,lexical_decision_task_MP,2020.1.3,MacIntel,60,z,1,0.540235,,,,,,,,0.540235,1,,,,,,459,NW,"ID",33,bafent,BAFENT,z,,,,,,0.109739583,-0.383611111,0,0,0,,0,59,59,278,1,,
,,,,,,,,,,,,,,,,,,5ebbf5e7aee67702ea450cf2,2020-08-10_18h08.46.133,lexical_decision_task_MP,2020.1.3,MacIntel,60,z,1,0.577165,,,,,,,,0.577165,1,,,,,,395,NW,UN,50,flengy,COLURY,z,,,,,,0.109739583,-0.383611111,0,0,0,,0,60,60,454,1,,
,,,,,,,,,,,,,,,,,,5ebbf5e7aee67702ea450cf2,2020-08-10_18h08.46.133,lexical_decision_task_MP,2020.1.3,MacIntel,60,m,1,0.550115,,,,,,,,0.550115,1,,,,,,46,WORD,"ID",50,single,SINGLE,m,,,,,,0.109739583,-0.383611111,0,0,0,,0,61,61,105,1,,
,,,,,,,,,,,,,,,,,,5ebbf5e7aee67702ea450cf2,2020-08-10_18h08.46.133,lexical_decision_task_MP,2020.1.3,MacIntel,60,z,1,0.59708,,,,,,,,0.59708,1,,,,,,439,NW,"ID",33,limpor,LIMPOR,z,,,,,,0.109739583,-0.383611111,0,0,0,,0,62,62,258,1,,
,,,,,,,,,,,,,,,,,,5ebbf5e7aee67702ea450cf2,2020-08-10_18h08.46.133,lexical_decision_task_MP,2020.1.3,MacIntel,60,m,1,0.58981,,,,,,,,0.58981,1,,,,,,174,WORD,UN,50,fabric,TURKEY,m,,,,,,0.109739583,-0.383611111,0,0,0,,0,63,63,233,1,,
,,,,,,,,,,,,,,,,,,5ebbf5e7aee67702ea450cf2,2020-08-10_18h08.46.133,lexical_decision_task_MP,2020.1.3,MacIntel,60,z,1,0.621025,,,,,,,,0.621025,1,,,,,,352,NW,UN,33,clurey,TRINGE,z,,,,,,0.109739583,-0.383611111,0,0,0,,0,64,64,411,1,,
,,,,,,,,,,,,,,,,,,5ebbf5e7aee67702ea450cf2,2020-08-10_18h08.46.133,lexical_decision_task_MP,2020.1.3,MacIntel,60,m,1,0.77017,,,,,,,,0.77017,1,,,,,,3,WORD,"ID",50,knight,KNIGHT,m,,,,,,0.109739583,-0.383611111,0,0,0,,0,65,65,62,1,,
,,,,,,,,,,,,,,,,,,5ebbf5e7aee67702ea450cf2,2020-08-10_18h08.46.133,lexical_decision_task_MP,2020.1.3,MacIntel,60,z,1,0.522605,,,,,,,,0.522605,1,,,,,,396,NW,UN,50,camble,FLENGY,z,,,,,,0.109739583,-0.383611111,0,0,0,,0,66,66,455,1,,
,,,,,,,,,,,,,,,,,,5ebbf5e7aee67702ea450cf2,2020-08-10_18h08.46.133,lexical_decision_task_MP,2020.1.3,MacIntel,60,z,1,0.497825,,,,,,,,0.497825,1,,,,,,355,NW,UN,33,othnis,ZINGLY,z,,,,,,0.109739583,-0.383611111,0,0,0,,0,67,67,414,1,,
,,,,,,,,,,,,,,,,,,5ebbf5e7aee67702ea450cf2,2020-08-10_18h08.46.133,lexical_decision_task_MP,2020.1.3,MacIntel,60,m,1,0.49871,,,,,,,,0.49871,1,,,,,,236,WORD,"ID",33,pirate,PIRATE,m,,,,,,0.109739583,-0.383611111,0,0,0,,0,68,68,55,1,,
,,,,,,,,,,,,,,,,,,5ebbf5e7aee67702ea450cf2,2020-08-10_18h08.46.133,lexical_decision_task_MP,2020.1.3,MacIntel,60,z,1,0.52966,,,,,,,,0.52966,1,,,,,,406,NW,UN,50,suiver,NOUPLY,z,,,,,,0.109739583,-0.383611111,0,0,0,,0,69,69,465,1,,
,,,,,,,,,,,,,,,,,,5ebbf5e7aee67702ea450cf2,2020-08-10_18h08.46.133,lexical_decision_task_MP,2020.1.3,MacIntel,60,z,1,0.48828,,,,,,,,0.48828,1,,,,,,316,NW,UN,33,worbal,SCREGM,z,,,,,,0.109739583,-0.383611111,0,0,0,,0,70,70,375,1,,
,,,,,,,,,,,,,,,,,,5ebbf5e7aee67702ea450cf2,2020-08-10_18h08.46.133,lexical_decision_task_MP,2020.1.3,MacIntel,60,m,1,0.501055,,,,,,,,0.501055,1,,,,,,208,WORD,"ID",33,hockey,HOCKEY,m,,,,,,0.109739583,-0.383611111,0,0,0,,0,71,71,27,1,,
,,,,,,,,,,,,,,,,,,5ebbf5e7aee67702ea450cf2,2020-08-10_18h08.46.133,lexical_decision_task_MP,2020.1.3,MacIntel,60,m,1,0.74122,,,,,,,,0.74122,1,,,,,,32,WORD,"ID",50,buckle,BUCKLE,m,,,,,,0.109739583,-0.383611111,0,0,0,,0,72,72,91,1,,
,,,,,,,,,,,,,,,,,,5ebbf5e7aee67702ea450cf2,2020-08-10_18h08.46.133,lexical_decision_task_MP,2020.1.3,MacIntel,60,m,1,0.48783,,,,,,,,0.48783,1,,,,,,118,WORD,UN,33,spider,FLIGHT,m,,,,,,0.109739583,-0.383611111,0,0,0,,0,73,73,177,1,,
,,,,,,,,,,,,,,,,,,5ebbf5e7aee67702ea450cf2,2020-08-10_18h08.46.133,lexical_decision_task_MP,2020.1.3,MacIntel,60,m,1,0.518735,,,,,,,,0.518735,1,,,,,,97,WORD,UN,33,belong,CLIENT,m,,,,,,0.109739583,-0.383611111,0,0,0,,0,74,74,156,1,,
,,,,,,,,,,,,,,,,,,5ebbf5e7aee67702ea450cf2,2020-08-10_18h08.46.133,lexical_decision_task_MP,2020.1.3,MacIntel,60,z,1,0.638905,,,,,,,,0.638905,1,,,,,,247,NW,"ID",50,blarge,BLARGE,z,,,,,,0.109739583,-0.383611111,0,0,0,,0,75,75,306,1,,
,,,,,,,,,,,,,,,,,,5ebbf5e7aee67702ea450cf2,2020-08-10_18h08.46.133,lexical_decision_task_MP,2020.1.3,MacIntel,60,m,1,0.542965,,,,,,,,0.542965,1,,,,,,29,WORD,"ID",50,sketch,SKETCH,m,,,,,,0.109739583,-0.383611111,0,0,0,,0,76,76,88,1,,
,,,,,,,,,,,,,,,,,,5ebbf5e7aee67702ea450cf2,2020-08-10_18h08.46.133,lexical_decision_task_MP,2020.1.3,MacIntel,60,z,1,0.58707,,,,,,,,0.58707,1,,,,,,436,NW,"ID",33,frutan,FRUTAN,z,,,,,,0.109739583,-0.383611111,0,0,0,,0,77,77,255,1,,
,,,,,,,,,,,,,,,,,,5ebbf5e7aee67702ea450cf2,2020-08-10_18h08.46.133,lexical_decision_task_MP,2020.1.3,MacIntel,60,m,1,0.635085,,,,,,,,0.635085,1,,,,,,10,WORD,"ID",50,ethnic,ETHNIC,m,,,,,,0.109739583,-0.383611111,0,0,0,,0,78,78,69,1,,
,,,,,,,,,,,,,,,,,,5ebbf5e7aee67702ea450cf2,2020-08-10_18h08.46.133,lexical_decision_task_MP,2020.1.3,MacIntel,60,z,1,0.527765,,,,,,,,0.527765,1,,,,,,347,NW,UN,33,dumple,KERIFT,z,,,,,,0.109739583,-0.383611111,0,0,0,,0,79,79,406,1,,
,,,,,,,,,,,,,,,,,,5ebbf5e7aee67702ea450cf2,2020-08-10_18h08.46.133,lexical_decision_task_MP,2020.1.3,MacIntel,60,m,1,0.44256,,,,,,,,0.44256,1,,,,,,195,WORD,"ID",33,resign,RESIGN,m,,,,,,0.109739583,-0.383611111,0,0,0,,0,80,80,14,1,,
,,,,,,,,,,,,,,,,,,5ebbf5e7aee67702ea450cf2,2020-08-10_18h08.46.133,lexical_decision_task_MP,2020.1.3,MacIntel,60,m,1,0.508395,,,,,,,,0.508395,1,,,,,,94,WORD,UN,33,thread,TRAVEL,m,,,,,,0.109739583,-0.383611111,0,0,0,,0,81,81,153,1,,
,,,,,,,,,,,,,,,,,,5ebbf5e7aee67702ea450cf2,2020-08-10_18h08.46.133,lexical_decision_task_MP,2020.1.3,MacIntel,60,m,1,0.460135,,,,,,,,0.460135,1,,,,,,104,WORD,UN,33,number,STUDIO,m,,,,,,0.109739583,-0.383611111,0,0,0,,0,82,82,163,1,,
,,,,,,,,,,,,,,,,,,5ebbf5e7aee67702ea450cf2,2020-08-10_18h08.46.133,lexical_decision_task_MP,2020.1.3,MacIntel,60,z,0,0.54343,,,,,,,,0.54343,0,,,,,,131,WORD,UN,50,strong,QUENCH,m,,,,,,0.109739583,-0.383611111,0,0,0,,0,83,83,190,1,,
,,,,,,,,,,,,,,,,,,5ebbf5e7aee67702ea450cf2,2020-08-10_18h08.46.133,lexical_decision_task_MP,2020.1.3,MacIntel,60,m,0,0.46127,,,,,,,,0.46127,0,,,,,,470,NW,"ID",33,crudio,CRUDIO,z,,,,,,0.109739583,-0.383611111,0,0,0,,0,84,84,289,1,,
,,,,,,,,,,,,,,,,,,5ebbf5e7aee67702ea450cf2,2020-08-10_18h08.46.133,lexical_decision_task_MP,2020.1.3,MacIntel,60,z,1,0.635425,,,,,,,,0.635425,1,,,,,,298,NW,"ID",50,piergy,PIERGY,z,,,,,,0.109739583,-0.383611111,0,0,0,,0,85,85,357,1,,
,,,,,,,,,,,,,,,,,,5ebbf5e7aee67702ea450cf2,2020-08-10_18h08.46.133,lexical_decision_task_MP,2020.1.3,MacIntel,60,z,1,0.506055,,,,,,,,0.506055,1,,,,,,376,NW,UN,50,veigma,IGUARE,z,,,,,,0.109739583,-0.383611111,0,0,0,,0,86,86,435,1,,
,,,,,,,,,,,,,,,,,,5ebbf5e7aee67702ea450cf2,2020-08-10_18h08.46.133,lexical_decision_task_MP,2020.1.3,MacIntel,60,z,1,0.47619,,,,,,,,0.47619,1,,,,,,368,NW,UN,50,wronch,HORNAL,z,,,,,,0.109739583,-0.383611111,0,0,0,,0,87,87,427,1,,
,,,,,,,,,,,,,,,,,,5ebbf5e7aee67702ea450cf2,2020-08-10_18h08.46.133,lexical_decision_task_MP,2020.1.3,MacIntel,60,m,1,0.473825,,,,,,,,0.473825,1,,,,,,116,WORD,UN,33,branch,TUMBLE,m,,,,,,0.109739583,-0.383611111,0,0,0,,0,88,88,175,1,,
,,,,,,,,,,,,,,,,,,5ebbf5e7aee67702ea450cf2,2020-08-10_18h08.46.133,lexical_decision_task_MP,2020.1.3,MacIntel,60,z,1,0.548625,,,,,,,,0.548625,1,,,,,,431,NW,"ID",33,chrums,CHRUMS,z,,,,,,0.109739583,-0.383611111,0,0,0,,0,89,89,250,1,,
,,,,,,,,,,,,,,,,,,5ebbf5e7aee67702ea450cf2,2020-08-10_18h08.46.133,lexical_decision_task_MP,2020.1.3,MacIntel,60,z,1,0.561205,,,,,,,,0.561205,1,,,,,,327,NW,UN,33,broake,PLENAC,z,,,,,,0.109739583,-0.383611111,0,0,0,,0,90,90,386,1,,
,,,,,,,,,,,,,,,,,,5ebbf5e7aee67702ea450cf2,2020-08-10_18h08.46.133,lexical_decision_task_MP,2020.1.3,MacIntel,60,m,0,0.498255,,,,,,,,0.498255,0,,,,,,410,NW,UN,50,orchin,TUNORY,z,,,,,,0.109739583,-0.383611111,0,0,0,,0,91,91,469,1,,
,,,,,,,,,,,,,,,,,,5ebbf5e7aee67702ea450cf2,2020-08-10_18h08.46.133,lexical_decision_task_MP,2020.1.3,MacIntel,60,z,1,0.565605,,,,,,,,0.565605,1,,,,,,474,NW,"ID",33,hablin,HABLIN,z,,,,,,0.109739583,-0.383611111,0,0,0,,0,92,92,293,1,,
,,,,,,,,,,,,,,,,,,5ebbf5e7aee67702ea450cf2,2020-08-10_18h08.46.133,lexical_decision_task_MP,2020.1.3,MacIntel,60,z,1,0.5,,,,,,,,0.5,1,,,,,,358,NW,UN,33,fonver,FLEACK,z,,,,,,0.109739583,-0.383611111,0,0,0,,0,93,93,417,1,,
,,,,,,,,,,,,,,,,,,5ebbf5e7aee67702ea450cf2,2020-08-10_18h08.46.133,lexical_decision_task_MP,2020.1.3,MacIntel,60,z,1,0.6318,,,,,,,,0.6318,1,,,,,,374,NW,UN,50,yorque,SLIANT,z,,,,,,0.109739583,-0.383611111,0,0,0,,0,94,94,433,1,,
,,,,,,,,,,,,,,,,,,5ebbf5e7aee67702ea450cf2,2020-08-10_18h08.46.133,lexical_decision_task_MP,2020.1.3,MacIntel,60,z,1,0.56278,,,,,,,,0.56278,1,,,,,,263,NW,"ID",50,dolica,DOLICA,z,,,,,,0.109739583,-0.383611111,0,0,0,,0,95,95,322,1,,
,,,,,,,,,,,,,,,,,,5ebbf5e7aee67702ea450cf2,2020-08-10_18h08.46.133,lexical_decision_task_MP,2020.1.3,MacIntel,60,z,1,0.51379,,,,,,,,0.51379,1,,,,,,272,NW,"ID",50,damilt,DAMILT,z,,,,,,0.109739583,-0.383611111,0,0,0,,0,96,96,331,1,,
,,,,,,,,,,,,,,,,,,5ebbf5e7aee67702ea450cf2,2020-08-10_18h08.46.133,lexical_decision_task_MP,2020.1.3,MacIntel,60,z,1,0.506,,,,,,,,0.506,1,,,,,,309,NW,UN,33,daniet,AMILOY,z,,,,,,0.109739583,-0.383611111,0,0,0,,0,97,97,368,1,,
,,,,,,,,,,,,,,,,,,5ebbf5e7aee67702ea450cf2,2020-08-10_18h08.46.133,lexical_decision_task_MP,2020.1.3,MacIntel,60,z,1,0.44314,,,,,,,,0.44314,1,,,,,,360,NW,UN,33,fainch,DESORY,z,,,,,,0.109739583,-0.383611111,0,0,0,,0,98,98,419,1,,
,,,,,,,,,,,,,,,,,,5ebbf5e7aee67702ea450cf2,2020-08-10_18h08.46.133,lexical_decision_task_MP,2020.1.3,MacIntel,60,z,1,0.51643,,,,,,,,0.51643,1,,,,,,462,NW,"ID",33,absult,ABSULT,z,,,,,,0.109739583,-0.383611111,0,0,0,,0,99,99,281,1,,
,,,,,,,,,,,,,,,,,,5ebbf5e7aee67702ea450cf2,2020-08-10_18h08.46.133,lexical_decision_task_MP,2020.1.3,MacIntel,60,m,1,0.45558,,,,,,,,0.45558,1,,,,,,182,WORD,"ID",33,winter,WINTER,m,,,,,,0.109739583,-0.383611111,0,0,0,,0,100,100,1,1,,
,,,,,,,,,,,,,,,,,,5ebbf5e7aee67702ea450cf2,2020-08-10_18h08.46.133,lexical_decision_task_MP,2020.1.3,MacIntel,60,z,1,0.53112,,,,,,,,0.53112,1,,,,,,334,NW,UN,33,desion,WATMEG,z,,,,,,0.109739583,-0.383611111,0,0,0,,0,101,101,393,1,,
,,,,,,,,,,,,,,,,,,5ebbf5e7aee67702ea450cf2,2020-08-10_18h08.46.133,lexical_decision_task_MP,2020.1.3,MacIntel,60,z,1,0.607325,,,,,,,,0.607325,1,,,,,,250,NW,"ID",50,milted,MILTED,z,,,,,,0.109739583,-0.383611111,0,0,0,,0,102,102,309,1,,
,,,,,,,,,,,,,,,,,,5ebbf5e7aee67702ea450cf2,2020-08-10_18h08.46.133,lexical_decision_task_MP,2020.1.3,MacIntel,60,z,1,0.639535,,,,,,,,0.639535,1,,,,,,365,NW,UN,50,toshel,GUAIRT,z,,,,,,0.109739583,-0.383611111,0,0,0,,0,103,103,424,1,,
,,,,,,,,,,,,,,,,,,5ebbf5e7aee67702ea450cf2,2020-08-10_18h08.46.133,lexical_decision_task_MP,2020.1.3,MacIntel,60,m,1,0.61215,,,,,,,,0.61215,1,,,,,,103,WORD,UN,33,studio,BOUNCE,m,,,,,,0.109739583,-0.383611111,0,0,0,,0,104,104,162,1,,
,,,,,,,,,,,,,,,,,,5ebbf5e7aee67702ea450cf2,2020-08-10_18h08.46.133,lexical_decision_task_MP,2020.1.3,MacIntel,60,m,1,0.749285,,,,,,,,0.749285,1,,,,,,34,WORD,"ID",50,jungle,JUNGLE,m,,,,,,0.109739583,-0.383611111,0,0,0,,0,105,105,93,1,,
,,,,,,,,,,,,,,,,,,5ebbf5e7aee67702ea450cf2,2020-08-10_18h08.46.133,lexical_decision_task_MP,2020.1.3,MacIntel,60,m,1,0.5386,,,,,,,,0.5386,1,,,,,,209,WORD,"ID",33,search,SEARCH,m,,,,,,0.109739583,-0.383611111,0,0,0,,0,106,106,28,1,,
,,,,,,,,,,,,,,,,,,5ebbf5e7aee67702ea450cf2,2020-08-10_18h08.46.133,lexical_decision_task_MP,2020.1.3,MacIntel,60,m,1,0.528555,,,,,,,,0.528555,1,,,,,,173,WORD,UN,50,turkey,SHOWER,m,,,,,,0.109739583,-0.383611111,0,0,0,,0,107,107,232,1,,
,,,,,,,,,,,,,,,,,,5ebbf5e7aee67702ea450cf2,2020-08-10_18h08.46.133,lexical_decision_task_MP,2020.1.3,MacIntel,60,z,1,0.95619,,,,,,,,0.95619,1,,,,,,322,NW,UN,33,rosail,SLANCH,z,,,,,,0.109739583,-0.383611111,0,0,0,,0,108,108,381,1,,
,,,,,,,,,,,,,,,,,,5ebbf5e7aee67702ea450cf2,2020-08-10_18h08.46.133,lexical_decision_task_MP,2020.1.3,MacIntel,60,m,0,0.57207,,,,,,,,0.57207,0,,,,,,405,NW,UN,50,nouply,FLUMNI,z,,,,,,0.109739583,-0.383611111,0,0,0,,0,109,109,464,1,,
,,,,,,,,,,,,,,,,,,5ebbf5e7aee67702ea450cf2,2020-08-10_18h08.46.133,lexical_decision_task_MP,2020.1.3,MacIntel,60,z,1,0.600955,,,,,,,,0.600955,1,,,,,,464,NW,"ID",33,chaite,CHAITE,z,,,,,,0.109739583,-0.383611111,0,0,0,,0,110,110,283,1,,
,,,,,,,,,,,,,,,,,,5ebbf5e7aee67702ea450cf2,2020-08-10_18h08.46.133,lexical_decision_task_MP,2020.1.3,MacIntel,60,z,1,0.54371,,,,,,,,0.54371,1,,,,,,412,NW,UN,50,equats,JILUER,z,,,,,,0.109739583,-0.383611111,0,0,0,,0,111,111,471,1,,
,,,,,,,,,,,,,,,,,,5ebbf5e7aee67702ea450cf2,2020-08-10_18h08.46.133,lexical_decision_task_MP,2020.1.3,MacIntel,60,z,0,0.418705,,,,,,,,0.418705,0,,,,,,58,WORD,"ID",50,foster,FOSTER,m,,,,,,0.109739583,-0.383611111,0,0,0,,0,112,112,117,1,,
,,,,,,,,,,,,,,,,,,5ebbf5e7aee67702ea450cf2,2020-08-10_18h08.46.133,lexical_decision_task_MP,2020.1.3,MacIntel,60,z,1,0.52366,,,,,,,,0.52366,1,,,,,,408,NW,UN,50,elopia,HURNIA,z,,,,,,0.109739583,-0.383611111,0,0,0,,0,113,113,467,1,,
,,,,,,,,,,,,,,,,,,5ebbf5e7aee67702ea450cf2,2020-08-10_18h08.46.133,lexical_decision_task_MP,2020.1.3,MacIntel,60,m,1,0.43707,,,,,,,,0.43707,1,,,,,,22,WORD,"ID",50,jockey,JOCKEY,m,,,,,,0.109739583,-0.383611111,0,0,0,,0,114,114,81,1,,
,,,,,,,,,,,,,,,,,,5ebbf5e7aee67702ea450cf2,2020-08-10_18h08.46.133,lexical_decision_task_MP,2020.1.3,MacIntel,60,z,1,0.60366,,,,,,,,0.60366,1,,,,,,366,NW,UN,50,slique,TOSHEL,z,,,,,,0.109739583,-0.383611111,0,0,0,,0,115,115,425,1,,
,,,,,,,,,,,,,,,,,,5ebbf5e7aee67702ea450cf2,2020-08-10_18h08.46.133,lexical_decision_task_MP,2020.1.3,MacIntel,60,m,1,0.578025,,,,,,,,0.578025,1,,,,,,108,WORD,UN,33,wonder,RECKON,m,,,,,,0.109739583,-0.383611111,0,0,0,,0,116,116,167,1,,
,,,,,,,,,,,,,,,,,,5ebbf5e7aee67702ea450cf2,2020-08-10_18h08.46.133,lexical_decision_task_MP,2020.1.3,MacIntel,60,z,0,0.50101,,,,,,,,0.50101,0,,,,,,67,WORD,UN,33,fumble,POLICY,m,,,,,,0.109739583,-0.383611111,0,0,0,,0,117,117,126,1,,
,,,,,,,,,,,,,,,,,,5ebbf5e7aee67702ea450cf2,2020-08-10_18h08.46.133,lexical_decision_task_MP,2020.1.3,MacIntel,60,z,1,0.5049,,,,,,,,0.5049,1,,,,,,438,NW,"ID",33,baitch,BAITCH,z,,,,,,0.109739583,-0.383611111,0,0,0,,0,118,118,257,1,,
,,,,,,,,,,,,,,,,,,5ebbf5e7aee67702ea450cf2,2020-08-10_18h08.46.133,lexical_decision_task_MP,2020.1.3,MacIntel,60,z,1,0.56876,,,,,,,,0.56876,1,,,,,,340,NW,UN,33,myrtie,FIATCH,z,,,,,,0.109739583,-0.383611111,0,0,0,,0,119,119,399,1,,
,,,,,,,,,,,,,,,,,,5ebbf5e7aee67702ea450cf2,2020-08-10_18h08.46.133,lexical_decision_task_MP,2020.1.3,MacIntel,60,z,1,0.69183,,,,,,,,0.69183,1,,,,,,342,NW,UN,33,aimosy,RANDOW,z,,,,,,0.109739583,-0.383611111,1,0,0,,0,120,120,401,1,break_done_button,
,,,,,,,,,,,,,,,,,,5ebbf5e7aee67702ea450cf2,2020-08-10_18h08.46.133,lexical_decision_task_MP,2020.1.3,MacIntel,60,z,1,0.600435,,,,,,,,0.600435,1,,,,,,414,NW,UN,50,higsta,SERBOL,z,,,,,,0.109739583,-0.383611111,0,0,0,,0,121,121,473,1,,
,,,,,,,,,,,,,,,,,,5ebbf5e7aee67702ea450cf2,2020-08-10_18h08.46.133,lexical_decision_task_MP,2020.1.3,MacIntel,60,z,0,0.45436,,,,,,,,0.45436,0,,,,,,203,WORD,"ID",33,phrase,PHRASE,m,,,,,,0.109739583,-0.383611111,0,0,0,,0,122,122,22,1,,
,,,,,,,,,,,,,,,,,,5ebbf5e7aee67702ea450cf2,2020-08-10_18h08.46.133,lexical_decision_task_MP,2020.1.3,MacIntel,60,z,1,0.54362,,,,,,,,0.54362,1,,,,,,270,NW,"ID",50,wrimsy,WRIMSY,z,,,,,,0.109739583,-0.383611111,0,0,0,,0,123,123,329,1,,
,,,,,,,,,,,,,,,,,,5ebbf5e7aee67702ea450cf2,2020-08-10_18h08.46.133,lexical_decision_task_MP,2020.1.3,MacIntel,60,z,1,0.61752,,,,,,,,0.61752,1,,,,,,255,NW,"ID",50,apight,APIGHT,z,,,,,,0.109739583,-0.383611111,0,0,0,,0,124,124,314,1,,
,,,,,,,,,,,,,,,,,,5ebbf5e7aee67702ea450cf2,2020-08-10_18h08.46.133,lexical_decision_task_MP,2020.1.3,MacIntel,60,z,1,0.561565,,,,,,,,0.561565,1,,,,,,323,NW,UN,33,steikh,ROSAIL,z,,,,,,0.109739583,-0.383611111,0,0,0,,0,125,125,382,1,,
,,,,,,,,,,,,,,,,,,5ebbf5e7aee67702ea450cf2,2020-08-10_18h08.46.133,lexical_decision_task_MP,2020.1.3,MacIntel,60,z,1,0.61624,,,,,,,,0.61624,1,,,,,,422,NW,"ID",33,alcoud,ALCOUD,z,,,,,,0.109739583,-0.383611111,0,0,0,,0,126,126,241,1,,
,,,,,,,,,,,,,,,,,,5ebbf5e7aee67702ea450cf2,2020-08-10_18h08.46.133,lexical_decision_task_MP,2020.1.3,MacIntel,60,m,1,0.497135,,,,,,,,0.497135,1,,,,,,180,WORD,UN,50,thrive,SILENT,m,,,,,,0.109739583,-0.383611111,0,0,0,,0,127,127,239,1,,
,,,,,,,,,,,,,,,,,,5ebbf5e7aee67702ea450cf2,2020-08-10_18h08.46.133,lexical_decision_task_MP,2020.1.3,MacIntel,60,m,1,0.72563,,,,,,,,0.72563,1,,,,,,38,WORD,"ID",50,powder,POWDER,m,,,,,,0.109739583,-0.383611111,0,0,0,,0,128,128,97,1,,
,,,,,,,,,,,,,,,,,,5ebbf5e7aee67702ea450cf2,2020-08-10_18h08.46.133,lexical_decision_task_MP,2020.1.3,MacIntel,60,m,1,0.574,,,,,,,,0.574,1,,,,,,43,WORD,"ID",50,tongue,TONGUE,m,,,,,,0.109739583,-0.383611111,0,0,0,,0,129,129,102,1,,
,,,,,,,,,,,,,,,,,,5ebbf5e7aee67702ea450cf2,2020-08-10_18h08.46.133,lexical_decision_task_MP,2020.1.3,MacIntel,60,z,1,0.62632,,,,,,,,0.62632,1,,,,,,304,NW,UN,33,forgle,CLUDIE,z,,,,,,0.109739583,-0.383611111,0,0,0,,0,130,130,363,1,,
,,,,,,,,,,,,,,,,,,5ebbf5e7aee67702ea450cf2,2020-08-10_18h08.46.133,lexical_decision_task_MP,2020.1.3,MacIntel,60,m,1,0.668885,,,,,,,,0.668885,1,,,,,,144,WORD,UN,50,parish,SPONGE,m,,,,,,0.109739583,-0.383611111,0,0,0,,0,131,131,203,1,,
,,,,,,,,,,,,,,,,,,5ebbf5e7aee67702ea450cf2,2020-08-10_18h08.46.133,lexical_decision_task_MP,2020.1.3,MacIntel,60,z,1,0.53253,,,,,,,,0.53253,1,,,,,,259,NW,"ID",50,soudal,SOUDAL,z,,,,,,0.109739583,-0.383611111,0,0,0,,0,132,132,318,1,,
,,,,,,,,,,,,,,,,,,5ebbf5e7aee67702ea450cf2,2020-08-10_18h08.46.133,lexical_decision_task_MP,2020.1.3,MacIntel,60,z,0,0.547765,,,,,,,,0.547765,0,,,,,,134,WORD,UN,50,import,STAPLE,m,,,,,,0.109739583,-0.383611111,0,0,0,,0,133,133,193,1,,
,,,,,,,,,,,,,,,,,,5ebbf5e7aee67702ea450cf2,2020-08-10_18h08.46.133,lexical_decision_task_MP,2020.1.3,MacIntel,60,z,0,0.51562,,,,,,,,0.51562,0,,,,,,92,WORD,UN,33,public,STRAND,m,,,,,,0.109739583,-0.383611111,0,0,0,,0,134,134,151,1,,
,,,,,,,,,,,,,,,,,,5ebbf5e7aee67702ea450cf2,2020-08-10_18h08.46.133,lexical_decision_task_MP,2020.1.3,MacIntel,60,z,1,0.613255,,,,,,,,0.613255,1,,,,,,331,NW,UN,33,vangue,GILFEW,z,,,,,,0.109739583,-0.383611111,0,0,0,,0,135,135,390,1,,
,,,,,,,,,,,,,,,,,,5ebbf5e7aee67702ea450cf2,2020-08-10_18h08.46.133,lexical_decision_task_MP,2020.1.3,MacIntel,60,m,1,0.53232,,,,,,,,0.53232,1,,,,,,140,WORD,UN,50,chrome,PRINCE,m,,,,,,0.109739583,-0.383611111,0,0,0,,0,136,136,199,1,,
,,,,,,,,,,,,,,,,,,5ebbf5e7aee67702ea450cf2,2020-08-10_18h08.46.133,lexical_decision_task_MP,2020.1.3,MacIntel,60,m,1,0.605805,,,,,,,,0.605805,1,,,,,,45,WORD,"ID",50,clergy,CLERGY,m,,,,,,0.109739583,-0.383611111,0,0,0,,0,137,137,104,1,,
,,,,,,,,,,,,,,,,,,5ebbf5e7aee67702ea450cf2,2020-08-10_18h08.46.133,lexical_decision_task_MP,2020.1.3,MacIntel,60,m,1,0.79132,,,,,,,,0.79132,1,,,,,,161,WORD,UN,50,candle,PASTOR,m,,,,,,0.109739583,-0.383611111,0,0,0,,0,138,138,220,1,,
,,,,,,,,,,,,,,,,,,5ebbf5e7aee67702ea450cf2,2020-08-10_18h08.46.133,lexical_decision_task_MP,2020.1.3,MacIntel,60,m,1,0.550345,,,,,,,,0.550345,1,,,,,,146,WORD,UN,50,garlic,COUPLE,m,,,,,,0.109739583,-0.383611111,0,0,0,,0,139,139,205,1,,
,,,,,,,,,,,,,,,,,,5ebbf5e7aee67702ea450cf2,2020-08-10_18h08.46.133,lexical_decision_task_MP,2020.1.3,MacIntel,60,m,1,0.535845,,,,,,,,0.535845,1,,,,,,115,WORD,UN,33,tumble,GUITAR,m,,,,,,0.109739583,-0.383611111,0,0,0,,0,140,140,174,1,,
,,,,,,,,,,,,,,,,,,5ebbf5e7aee67702ea450cf2,2020-08-10_18h08.46.133,lexical_decision_task_MP,2020.1.3,MacIntel,60,z,1,0.536045,,,,,,,,0.536045,1,,,,,,409,NW,UN,50,tunory,ELOPIA,z,,,,,,0.109739583,-0.383611111,0,0,0,,0,141,141,468,1,,
,,,,,,,,,,,,,,,,,,5ebbf5e7aee67702ea450cf2,2020-08-10_18h08.46.133,lexical_decision_task_MP,2020.1.3,MacIntel,60,z,0,0.559025,,,,,,,,0.559025,0,,,,,,142,WORD,UN,50,reason,SPRUCE,m,,,,,,0.109739583,-0.383611111,0,0,0,,0,142,142,201,1,,
,,,,,,,,,,,,,,,,,,5ebbf5e7aee67702ea450cf2,2020-08-10_18h08.46.133,lexical_decision_task_MP,2020.1.3,MacIntel,60,z,1,0.55199,,,,,,,,0.55199,1,,,,,,361,NW,UN,50,tireau,PAUCHE,z,,,,,,0.109739583,-0.383611111,0,0,0,,0,143,143,420,1,,
,,,,,,,,,,,,,,,,,,5ebbf5e7aee67702ea450cf2,2020-08-10_18h08.46.133,lexical_decision_task_MP,2020.1.3,MacIntel,60,z,1,0.49823,,,,,,,,0.49823,1,,,,,,389,NW,UN,50,hatrus,WITMER,z,,,,,,0.109739583,-0.383611111,0,0,0,,0,144,144,448,1,,
,,,,,,,,,,,,,,,,,,5ebbf5e7aee67702ea450cf2,2020-08-10_18h08.46.133,lexical_decision_task_MP,2020.1.3,MacIntel,60,z,0,0.50918,,,,,,,,0.50918,0,,,,,,201,WORD,"ID",33,admire,ADMIRE,m,,,,,,0.109739583,-0.383611111,0,0,0,,0,145,145,20,1,,
,,,,,,,,,,,,,,,,,,5ebbf5e7aee67702ea450cf2,2020-08-10_18h08.46.133,lexical_decision_task_MP,2020.1.3,MacIntel,60,z,1,0.566315,,,,,,,,0.566315,1,,,,,,324,NW,UN,33,thruse,STEIKH,z,,,,,,0.109739583,-0.383611111,0,0,0,,0,146,146,383,1,,
,,,,,,,,,,,,,,,,,,5ebbf5e7aee67702ea450cf2,2020-08-10_18h08.46.133,lexical_decision_task_MP,2020.1.3,MacIntel,60,z,1,0.558475,,,,,,,,0.558475,1,,,,,,454,NW,"ID",33,scouge,SCOUGE,z,,,,,,0.109739583,-0.383611111,0,0,0,,0,147,147,273,1,,
,,,,,,,,,,,,,,,,,,5ebbf5e7aee67702ea450cf2,2020-08-10_18h08.46.133,lexical_decision_task_MP,2020.1.3,MacIntel,60,z,1,0.52595,,,,,,,,0.52595,1,,,,,,267,NW,"ID",50,pasink,PASINK,z,,,,,,0.109739583,-0.383611111,0,0,0,,0,148,148,326,1,,
,,,,,,,,,,,,,,,,,,5ebbf5e7aee67702ea450cf2,2020-08-10_18h08.46.133,lexical_decision_task_MP,2020.1.3,MacIntel,60,z,1,0.671365,,,,,,,,0.671365,1,,,,,,253,NW,"ID",50,resait,RESAIT,z,,,,,,0.109739583,-0.383611111,0,0,0,,0,149,149,312,1,,
,,,,,,,,,,,,,,,,,,5ebbf5e7aee67702ea450cf2,2020-08-10_18h08.46.133,lexical_decision_task_MP,2020.1.3,MacIntel,60,z,1,0.634355,,,,,,,,0.634355,1,,,,,,275,NW,"ID",50,sleirt,SLEIRT,z,,,,,,0.109739583,-0.383611111,0,0,0,,0,150,150,334,1,,
,,,,,,,,,,,,,,,,,,5ebbf5e7aee67702ea450cf2,2020-08-10_18h08.46.133,lexical_decision_task_MP,2020.1.3,MacIntel,60,z,1,0.486905,,,,,,,,0.486905,1,,,,,,356,NW,UN,33,derain,OTHNIS,z,,,,,,0.109739583,-0.383611111,0,0,0,,0,151,151,415,1,,
,,,,,,,,,,,,,,,,,,5ebbf5e7aee67702ea450cf2,2020-08-10_18h08.46.133,lexical_decision_task_MP,2020.1.3,MacIntel,60,m,1,0.486215,,,,,,,,0.486215,1,,,,,,171,WORD,UN,50,patrol,DEPART,m,,,,,,0.109739583,-0.383611111,0,0,0,,0,152,152,230,1,,
,,,,,,,,,,,,,,,,,,5ebbf5e7aee67702ea450cf2,2020-08-10_18h08.46.133,lexical_decision_task_MP,2020.1.3,MacIntel,60,z,1,0.502265,,,,,,,,0.502265,1,,,,,,349,NW,UN,33,nagurs,ASYLEN,z,,,,,,0.109739583,-0.383611111,0,0,0,,0,153,153,408,1,,
,,,,,,,,,,,,,,,,,,5ebbf5e7aee67702ea450cf2,2020-08-10_18h08.46.133,lexical_decision_task_MP,2020.1.3,MacIntel,60,m,0,0.481755,,,,,,,,0.481755,0,,,,,,348,NW,UN,33,asylen,DUMPLE,z,,,,,,0.109739583,-0.383611111,0,0,0,,0,154,154,407,1,,
,,,,,,,,,,,,,,,,,,5ebbf5e7aee67702ea450cf2,2020-08-10_18h08.46.133,lexical_decision_task_MP,2020.1.3,MacIntel,60,z,1,0.569505,,,,,,,,0.569505,1,,,,,,256,NW,"ID",50,inlors,INLORS,z,,,,,,0.109739583,-0.383611111,0,0,0,,0,155,155,315,1,,
,,,,,,,,,,,,,,,,,,5ebbf5e7aee67702ea450cf2,2020-08-10_18h08.46.133,lexical_decision_task_MP,2020.1.3,MacIntel,60,z,1,0.546655,,,,,,,,0.546655,1,,,,,,448,NW,"ID",33,sadent,SADENT,z,,,,,,0.109739583,-0.383611111,0,0,0,,0,156,156,267,1,,
,,,,,,,,,,,,,,,,,,5ebbf5e7aee67702ea450cf2,2020-08-10_18h08.46.133,lexical_decision_task_MP,2020.1.3,MacIntel,60,m,1,0.87914,,,,,,,,0.87914,1,,,,,,150,WORD,UN,50,mystic,RANDOM,m,,,,,,0.109739583,-0.383611111,0,0,0,,0,157,157,209,1,,
,,,,,,,,,,,,,,,,,,5ebbf5e7aee67702ea450cf2,2020-08-10_18h08.46.133,lexical_decision_task_MP,2020.1.3,MacIntel,60,m,1,0.603555,,,,,,,,0.603555,1,,,,,,196,WORD,"ID",33,credit,CREDIT,m,,,,,,0.109739583,-0.383611111,0,0,0,,0,158,158,15,1,,
,,,,,,,,,,,,,,,,,,5ebbf5e7aee67702ea450cf2,2020-08-10_18h08.46.133,lexical_decision_task_MP,2020.1.3,MacIntel,60,m,1,0.49662,,,,,,,,0.49662,1,,,,,,55,WORD,"ID",50,stroke,STROKE,m,,,,,,0.109739583,-0.383611111,0,0,0,,0,159,159,114,1,,
,,,,,,,,,,,,,,,,,,5ebbf5e7aee67702ea450cf2,2020-08-10_18h08.46.133,lexical_decision_task_MP,2020.1.3,MacIntel,60,m,1,0.490515,,,,,,,,0.490515,1,,,,,,53,WORD,"ID",50,police,POLICE,m,,,,,,0.109739583,-0.383611111,0,0,0,,0,160,160,112,1,,
,,,,,,,,,,,,,,,,,,5ebbf5e7aee67702ea450cf2,2020-08-10_18h08.46.133,lexical_decision_task_MP,2020.1.3,MacIntel,60,m,0,0.57591,,,,,,,,0.57591,0,,,,,,306,NW,UN,33,kirafe,SOUNGE,z,,,,,,0.109739583,-0.383611111,0,0,0,,0,161,161,365,1,,
,,,,,,,,,,,,,,,,,,5ebbf5e7aee67702ea450cf2,2020-08-10_18h08.46.133,lexical_decision_task_MP,2020.1.3,MacIntel,60,z,1,0.59866,,,,,,,,0.59866,1,,,,,,339,NW,UN,33,fiatch,FACHOW,z,,,,,,0.109739583,-0.383611111,0,0,0,,0,162,162,398,1,,
,,,,,,,,,,,,,,,,,,5ebbf5e7aee67702ea450cf2,2020-08-10_18h08.46.133,lexical_decision_task_MP,2020.1.3,MacIntel,60,z,1,0.502695,,,,,,,,0.502695,1,,,,,,463,NW,"ID",33,kispel,KISPEL,z,,,,,,0.109739583,-0.383611111,0,0,0,,0,163,163,282,1,,
,,,,,,,,,,,,,,,,,,5ebbf5e7aee67702ea450cf2,2020-08-10_18h08.46.133,lexical_decision_task_MP,2020.1.3,MacIntel,60,z,1,0.56813,,,,,,,,0.56813,1,,,,,,273,NW,"ID",50,sortel,SORTEL,z,,,,,,0.109739583,-0.383611111,0,0,0,,0,164,164,332,1,,
,,,,,,,,,,,,,,,,,,5ebbf5e7aee67702ea450cf2,2020-08-10_18h08.46.133,lexical_decision_task_MP,2020.1.3,MacIntel,60,m,1,0.609295,,,,,,,,0.609295,1,,,,,,93,WORD,UN,33,travel,PUBLIC,m,,,,,,0.109739583,-0.383611111,0,0,0,,0,165,165,152,1,,
,,,,,,,,,,,,,,,,,,5ebbf5e7aee67702ea450cf2,2020-08-10_18h08.46.133,lexical_decision_task_MP,2020.1.3,MacIntel,60,m,1,0.60511,,,,,,,,0.60511,1,,,,,,48,WORD,"ID",50,walnut,WALNUT,m,,,,,,0.109739583,-0.383611111,0,0,0,,0,166,166,107,1,,
,,,,,,,,,,,,,,,,,,5ebbf5e7aee67702ea450cf2,2020-08-10_18h08.46.133,lexical_decision_task_MP,2020.1.3,MacIntel,60,z,0,0.576255,,,,,,,,0.576255,0,,,,,,176,WORD,UN,50,advent,STRIFE,m,,,,,,0.109739583,-0.383611111,0,0,0,,0,167,167,235,1,,
,,,,,,,,,,,,,,,,,,5ebbf5e7aee67702ea450cf2,2020-08-10_18h08.46.133,lexical_decision_task_MP,2020.1.3,MacIntel,60,m,1,0.604,,,,,,,,0.604,1,,,,,,100,WORD,UN,33,wrench,CARBON,m,,,,,,0.109739583,-0.383611111,0,0,0,,0,168,168,159,1,,
,,,,,,,,,,,,,,,,,,5ebbf5e7aee67702ea450cf2,2020-08-10_18h08.46.133,lexical_decision_task_MP,2020.1.3,MacIntel,60,m,0,0.638545,,,,,,,,0.638545,0,,,,,,397,NW,UN,50,blunde,CAMBLE,z,,,,,,0.109739583,-0.383611111,0,0,0,,0,169,169,456,1,,
,,,,,,,,,,,,,,,,,,5ebbf5e7aee67702ea450cf2,2020-08-10_18h08.46.133,lexical_decision_task_MP,2020.1.3,MacIntel,60,m,1,0.446045,,,,,,,,0.446045,1,,,,,,143,WORD,UN,50,sponge,REASON,m,,,,,,0.109739583,-0.383611111,0,0,0,,0,170,170,202,1,,
,,,,,,,,,,,,,,,,,,5ebbf5e7aee67702ea450cf2,2020-08-10_18h08.46.133,lexical_decision_task_MP,2020.1.3,MacIntel,60,z,1,0.72781,,,,,,,,0.72781,1,,,,,,335,NW,UN,33,ghodus,DESION,z,,,,,,0.109739583,-0.383611111,0,0,0,,0,171,171,394,1,,
,,,,,,,,,,,,,,,,,,5ebbf5e7aee67702ea450cf2,2020-08-10_18h08.46.133,lexical_decision_task_MP,2020.1.3,MacIntel,60,z,1,0.589375,,,,,,,,0.589375,1,,,,,,308,NW,UN,33,amiloy,PSETCH,z,,,,,,0.109739583,-0.383611111,0,0,0,,0,172,172,367,1,,
,,,,,,,,,,,,,,,,,,5ebbf5e7aee67702ea450cf2,2020-08-10_18h08.46.133,lexical_decision_task_MP,2020.1.3,MacIntel,60,m,1,0.68561,,,,,,,,0.68561,1,,,,,,175,WORD,UN,50,strife,FABRIC,m,,,,,,0.109739583,-0.383611111,0,0,0,,0,173,173,234,1,,
,,,,,,,,,,,,,,,,,,5ebbf5e7aee67702ea450cf2,2020-08-10_18h08.46.133,lexical_decision_task_MP,2020.1.3,MacIntel,60,z,1,0.60016,,,,,,,,0.60016,1,,,,,,393,NW,UN,50,spaqux,GANOUS,z,,,,,,0.109739583,-0.383611111,0,0,0,,0,174,174,452,1,,
,,,,,,,,,,,,,,,,,,5ebbf5e7aee67702ea450cf2,2020-08-10_18h08.46.133,lexical_decision_task_MP,2020.1.3,MacIntel,60,z,1,0.63148,,,,,,,,0.63148,1,,,,,,370,NW,UN,50,geiloy,SLEACT,z,,,,,,0.109739583,-0.383611111,0,0,0,,0,175,175,429,1,,
,,,,,,,,,,,,,,,,,,5ebbf5e7aee67702ea450cf2,2020-08-10_18h08.46.133,lexical_decision_task_MP,2020.1.3,MacIntel,60,z,1,0.6185,,,,,,,,0.6185,1,,,,,,254,NW,"ID",50,varosh,VAROSH,z,,,,,,0.109739583,-0.383611111,0,0,0,,0,176,176,313,1,,
,,,,,,,,,,,,,,,,,,5ebbf5e7aee67702ea450cf2,2020-08-10_18h08.46.133,lexical_decision_task_MP,2020.1.3,MacIntel,60,m,1,0.73978,,,,,,,,0.73978,1,,,,,,113,WORD,UN,33,placid,CHORUS,m,,,,,,0.109739583,-0.383611111,0,0,0,,0,177,177,172,1,,
,,,,,,,,,,,,,,,,,,5ebbf5e7aee67702ea450cf2,2020-08-10_18h08.46.133,lexical_decision_task_MP,2020.1.3,MacIntel,60,m,1,0.55157,,,,,,,,0.55157,1,,,,,,194,WORD,"ID",33,absent,ABSENT,m,,,,,,0.109739583,-0.383611111,0,0,0,,0,178,178,13,1,,
,,,,,,,,,,,,,,,,,,5ebbf5e7aee67702ea450cf2,2020-08-10_18h08.46.133,lexical_decision_task_MP,2020.1.3,MacIntel,60,m,1,0.51282,,,,,,,,0.51282,1,,,,,,96,WORD,UN,33,client,IGNORE,m,,,,,,0.109739583,-0.383611111,0,0,0,,0,179,179,155,1,,
,,,,,,,,,,,,,,,,,,5ebbf5e7aee67702ea450cf2,2020-08-10_18h08.46.133,lexical_decision_task_MP,2020.1.3,MacIntel,60,z,1,0.629815,,,,,,,,0.629815,1,,,,,,392,NW,UN,50,ganous,ROUNCY,z,,,,,,0.109739583,-0.383611111,0,0,0,,0,180,180,451,1,,
,,,,,,,,,,,,,,,,,,5ebbf5e7aee67702ea450cf2,2020-08-10_18h08.46.133,lexical_decision_task_MP,2020.1.3,MacIntel,60,m,1,0.524825,,,,,,,,0.524825,1,,,,,,25,WORD,"ID",50,domain,DOMAIN,m,,,,,,0.109739583,-0.383611111,0,0,0,,0,181,181,84,1,,
,,,,,,,,,,,,,,,,,,5ebbf5e7aee67702ea450cf2,2020-08-10_18h08.46.133,lexical_decision_task_MP,2020.1.3,MacIntel,60,m,1,0.473575,,,,,,,,0.473575,1,,,,,,81,WORD,UN,33,stigma,FRIEND,m,,,,,,0.109739583,-0.383611111,0,0,0,,0,182,182,140,1,,
,,,,,,,,,,,,,,,,,,5ebbf5e7aee67702ea450cf2,2020-08-10_18h08.46.133,lexical_decision_task_MP,2020.1.3,MacIntel,60,m,1,0.56401,,,,,,,,0.56401,1,,,,,,19,WORD,"ID",50,patron,PATRON,m,,,,,,0.109739583,-0.383611111,0,0,0,,0,183,183,78,1,,
,,,,,,,,,,,,,,,,,,5ebbf5e7aee67702ea450cf2,2020-08-10_18h08.46.133,lexical_decision_task_MP,2020.1.3,MacIntel,60,z,1,0.61078,,,,,,,,0.61078,1,,,,,,416,NW,UN,50,earoud,PATHEL,z,,,,,,0.109739583,-0.383611111,0,0,0,,0,184,184,475,1,,
,,,,,,,,,,,,,,,,,,5ebbf5e7aee67702ea450cf2,2020-08-10_18h08.46.133,lexical_decision_task_MP,2020.1.3,MacIntel,60,z,1,0.52291,,,,,,,,0.52291,1,,,,,,311,NW,UN,33,nerawl,SPROLY,z,,,,,,0.109739583,-0.383611111,0,0,0,,0,185,185,370,1,,
,,,,,,,,,,,,,,,,,,5ebbf5e7aee67702ea450cf2,2020-08-10_18h08.46.133,lexical_decision_task_MP,2020.1.3,MacIntel,60,z,1,0.722265,,,,,,,,0.722265,1,,,,,,354,NW,UN,33,zingly,VIRLEX,z,,,,,,0.109739583,-0.383611111,0,0,0,,0,186,186,413,1,,
,,,,,,,,,,,,,,,,,,5ebbf5e7aee67702ea450cf2,2020-08-10_18h08.46.133,lexical_decision_task_MP,2020.1.3,MacIntel,60,m,1,0.52658,,,,,,,,0.52658,1,,,,,,74,WORD,UN,33,trophy,PLAQUE,m,,,,,,0.109739583,-0.383611111,0,0,0,,0,187,187,133,1,,
,,,,,,,,,,,,,,,,,,5ebbf5e7aee67702ea450cf2,2020-08-10_18h08.46.133,lexical_decision_task_MP,2020.1.3,MacIntel,60,z,1,0.669375,,,,,,,,0.669375,1,,,,,,284,NW,"ID",50,shaple,SHAPLE,z,,,,,,0.109739583,-0.383611111,0,0,0,,0,188,188,343,1,,
,,,,,,,,,,,,,,,,,,5ebbf5e7aee67702ea450cf2,2020-08-10_18h08.46.133,lexical_decision_task_MP,2020.1.3,MacIntel,60,m,1,0.462365,,,,,,,,0.462365,1,,,,,,14,WORD,"ID",50,almost,ALMOST,m,,,,,,0.109739583,-0.383611111,0,0,0,,0,189,189,73,1,,
,,,,,,,,,,,,,,,,,,5ebbf5e7aee67702ea450cf2,2020-08-10_18h08.46.133,lexical_decision_task_MP,2020.1.3,MacIntel,60,z,0,0.55166,,,,,,,,0.55166,0,,,,,,222,WORD,"ID",33,hinder,HINDER,m,,,,,,0.109739583,-0.383611111,0,0,0,,0,190,190,41,1,,
,,,,,,,,,,,,,,,,,,5ebbf5e7aee67702ea450cf2,2020-08-10_18h08.46.133,lexical_decision_task_MP,2020.1.3,MacIntel,60,m,1,0.717465,,,,,,,,0.717465,1,,,,,,206,WORD,"ID",33,tailor,TAILOR,m,,,,,,0.109739583,-0.383611111,0,0,0,,0,191,191,25,1,,
,,,,,,,,,,,,,,,,,,5ebbf5e7aee67702ea450cf2,2020-08-10_18h08.46.133,lexical_decision_task_MP,2020.1.3,MacIntel,60,m,1,0.55748,,,,,,,,0.55748,1,,,,,,215,WORD,"ID",33,phobia,PHOBIA,m,,,,,,0.109739583,-0.383611111,0,0,0,,0,192,192,34,1,,
,,,,,,,,,,,,,,,,,,5ebbf5e7aee67702ea450cf2,2020-08-10_18h08.46.133,lexical_decision_task_MP,2020.1.3,MacIntel,60,m,1,0.509505,,,,,,,,0.509505,1,,,,,,172,WORD,UN,50,shower,PATROL,m,,,,,,0.109739583,-0.383611111,0,0,0,,0,193,193,231,1,,
,,,,,,,,,,,,,,,,,,5ebbf5e7aee67702ea450cf2,2020-08-10_18h08.46.133,lexical_decision_task_MP,2020.1.3,MacIntel,60,m,1,0.771985,,,,,,,,0.771985,1,,,,,,117,WORD,UN,33,flight,BRANCH,m,,,,,,0.109739583,-0.383611111,0,0,0,,0,194,194,176,1,,
,,,,,,,,,,,,,,,,,,5ebbf5e7aee67702ea450cf2,2020-08-10_18h08.46.133,lexical_decision_task_MP,2020.1.3,MacIntel,60,m,1,0.600735,,,,,,,,0.600735,1,,,,,,186,WORD,"ID",33,portal,PORTAL,m,,,,,,0.109739583,-0.383611111,0,0,0,,0,195,195,5,1,,
,,,,,,,,,,,,,,,,,,5ebbf5e7aee67702ea450cf2,2020-08-10_18h08.46.133,lexical_decision_task_MP,2020.1.3,MacIntel,60,m,1,0.61108,,,,,,,,0.61108,1,,,,,,239,WORD,"ID",33,lumber,LUMBER,m,,,,,,0.109739583,-0.383611111,0,0,0,,0,196,196,58,1,,
,,,,,,,,,,,,,,,,,,5ebbf5e7aee67702ea450cf2,2020-08-10_18h08.46.133,lexical_decision_task_MP,2020.1.3,MacIntel,60,z,1,0.58074,,,,,,,,0.58074,1,,,,,,341,NW,UN,33,randow,MYRTIE,z,,,,,,0.109739583,-0.383611111,0,0,0,,0,197,197,400,1,,
,,,,,,,,,,,,,,,,,,5ebbf5e7aee67702ea450cf2,2020-08-10_18h08.46.133,lexical_decision_task_MP,2020.1.3,MacIntel,60,m,1,0.63649,,,,,,,,0.63649,1,,,,,,84,WORD,UN,33,strand,MORTAL,m,,,,,,0.109739583,-0.383611111,0,0,0,,0,198,198,143,1,,
,,,,,,,,,,,,,,,,,,5ebbf5e7aee67702ea450cf2,2020-08-10_18h08.46.133,lexical_decision_task_MP,2020.1.3,MacIntel,60,z,1,0.52183,,,,,,,,0.52183,1,,,,,,435,NW,"ID",33,impurb,IMPURB,z,,,,,,0.109739583,-0.383611111,0,0,0,,0,199,199,254,1,,
,,,,,,,,,,,,,,,,,,5ebbf5e7aee67702ea450cf2,2020-08-10_18h08.46.133,lexical_decision_task_MP,2020.1.3,MacIntel,60,m,1,0.56175,,,,,,,,0.56175,1,,,,,,126,WORD,UN,50,castle,ENOUGH,m,,,,,,0.109739583,-0.383611111,0,0,0,,0,200,200,185,1,,
,,,,,,,,,,,,,,,,,,5ebbf5e7aee67702ea450cf2,2020-08-10_18h08.46.133,lexical_decision_task_MP,2020.1.3,MacIntel,60,z,1,0.585805,,,,,,,,0.585805,1,,,,,,384,NW,UN,50,injore,GUESCO,z,,,,,,0.109739583,-0.383611111,0,0,0,,0,201,201,443,1,,
,,,,,,,,,,,,,,,,,,5ebbf5e7aee67702ea450cf2,2020-08-10_18h08.46.133,lexical_decision_task_MP,2020.1.3,MacIntel,60,z,1,0.644745,,,,,,,,0.644745,1,,,,,,278,NW,"ID",50,unighs,UNIGHS,z,,,,,,0.109739583,-0.383611111,0,0,0,,0,202,202,337,1,,
,,,,,,,,,,,,,,,,,,5ebbf5e7aee67702ea450cf2,2020-08-10_18h08.46.133,lexical_decision_task_MP,2020.1.3,MacIntel,60,m,1,0.462285,,,,,,,,0.462285,1,,,,,,4,WORD,"ID",50,trench,TRENCH,m,,,,,,0.109739583,-0.383611111,0,0,0,,0,203,203,63,1,,
,,,,,,,,,,,,,,,,,,5ebbf5e7aee67702ea450cf2,2020-08-10_18h08.46.133,lexical_decision_task_MP,2020.1.3,MacIntel,60,z,1,0.68517,,,,,,,,0.68517,1,,,,,,453,NW,"ID",33,bolvis,BOLVIS,z,,,,,,0.109739583,-0.383611111,0,0,0,,0,204,204,272,1,,
,,,,,,,,,,,,,,,,,,5ebbf5e7aee67702ea450cf2,2020-08-10_18h08.46.133,lexical_decision_task_MP,2020.1.3,MacIntel,60,z,1,0.487545,,,,,,,,0.487545,1,,,,,,391,NW,UN,50,rouncy,THELDY,z,,,,,,0.109739583,-0.383611111,0,0,0,,0,205,205,450,1,,
,,,,,,,,,,,,,,,,,,5ebbf5e7aee67702ea450cf2,2020-08-10_18h08.46.133,lexical_decision_task_MP,2020.1.3,MacIntel,60,z,1,0.525455,,,,,,,,0.525455,1,,,,,,265,NW,"ID",50,distar,DISTAR,z,,,,,,0.109739583,-0.383611111,0,0,0,,0,206,206,324,1,,
,,,,,,,,,,,,,,,,,,5ebbf5e7aee67702ea450cf2,2020-08-10_18h08.46.133,lexical_decision_task_MP,2020.1.3,MacIntel,60,z,1,0.514265,,,,,,,,0.514265,1,,,,,,244,NW,"ID",50,eatric,EATRIC,z,,,,,,0.109739583,-0.383611111,0,0,0,,0,207,207,303,1,,
,,,,,,,,,,,,,,,,,,5ebbf5e7aee67702ea450cf2,2020-08-10_18h08.46.133,lexical_decision_task_MP,2020.1.3,MacIntel,60,z,1,0.50968,,,,,,,,0.50968,1,,,,,,252,NW,"ID",50,stapod,STAPOD,z,,,,,,0.109739583,-0.383611111,0,0,0,,0,208,208,311,1,,
,,,,,,,,,,,,,,,,,,5ebbf5e7aee67702ea450cf2,2020-08-10_18h08.46.133,lexical_decision_task_MP,2020.1.3,MacIntel,60,z,1,0.57074,,,,,,,,0.57074,1,,,,,,421,NW,"ID",33,knisma,KNISMA,z,,,,,,0.109739583,-0.383611111,0,0,0,,0,209,209,240,1,,
,,,,,,,,,,,,,,,,,,5ebbf5e7aee67702ea450cf2,2020-08-10_18h08.46.133,lexical_decision_task_MP,2020.1.3,MacIntel,60,m,1,0.706075,,,,,,,,0.706075,1,,,,,,217,WORD,"ID",33,liquor,LIQUOR,m,,,,,,0.109739583,-0.383611111,0,0,0,,0,210,210,36,1,,
,,,,,,,,,,,,,,,,,,5ebbf5e7aee67702ea450cf2,2020-08-10_18h08.46.133,lexical_decision_task_MP,2020.1.3,MacIntel,60,m,1,0.62791,,,,,,,,0.62791,1,,,,,,164,WORD,UN,50,invest,MARKET,m,,,,,,0.109739583,-0.383611111,0,0,0,,0,211,211,223,1,,
,,,,,,,,,,,,,,,,,,5ebbf5e7aee67702ea450cf2,2020-08-10_18h08.46.133,lexical_decision_task_MP,2020.1.3,MacIntel,60,z,1,0.48035,,,,,,,,0.48035,1,,,,,,387,NW,UN,50,cragin,GRONCE,z,,,,,,0.109739583,-0.383611111,0,0,0,,0,212,212,446,1,,
,,,,,,,,,,,,,,,,,,5ebbf5e7aee67702ea450cf2,2020-08-10_18h08.46.133,lexical_decision_task_MP,2020.1.3,MacIntel,60,z,1,0.536565,,,,,,,,0.536565,1,,,,,,437,NW,"ID",33,snapel,SNAPEL,z,,,,,,0.109739583,-0.383611111,0,0,0,,0,213,213,256,1,,
,,,,,,,,,,,,,,,,,,5ebbf5e7aee67702ea450cf2,2020-08-10_18h08.46.133,lexical_decision_task_MP,2020.1.3,MacIntel,60,z,1,0.553625,,,,,,,,0.553625,1,,,,,,478,NW,"ID",33,acrise,ACRISE,z,,,,,,0.109739583,-0.383611111,0,0,0,,0,214,214,297,1,,
,,,,,,,,,,,,,,,,,,5ebbf5e7aee67702ea450cf2,2020-08-10_18h08.46.133,lexical_decision_task_MP,2020.1.3,MacIntel,60,z,1,0.584695,,,,,,,,0.584695,1,,,,,,277,NW,"ID",50,petain,PETAIN,z,,,,,,0.109739583,-0.383611111,0,0,0,,0,215,215,336,1,,
,,,,,,,,,,,,,,,,,,5ebbf5e7aee67702ea450cf2,2020-08-10_18h08.46.133,lexical_decision_task_MP,2020.1.3,MacIntel,60,m,1,0.5212,,,,,,,,0.5212,1,,,,,,198,WORD,"ID",33,wicked,WICKED,m,,,,,,0.109739583,-0.383611111,0,0,0,,0,216,216,17,1,,
,,,,,,,,,,,,,,,,,,5ebbf5e7aee67702ea450cf2,2020-08-10_18h08.46.133,lexical_decision_task_MP,2020.1.3,MacIntel,60,z,0,0.480185,,,,,,,,0.480185,0,,,,,,156,WORD,UN,50,depart,CRADLE,m,,,,,,0.109739583,-0.383611111,0,0,0,,0,217,217,215,1,,
,,,,,,,,,,,,,,,,,,5ebbf5e7aee67702ea450cf2,2020-08-10_18h08.46.133,lexical_decision_task_MP,2020.1.3,MacIntel,60,z,1,0.525505,,,,,,,,0.525505,1,,,,,,344,NW,UN,33,absend,SCRILY,z,,,,,,0.109739583,-0.383611111,0,0,0,,0,218,218,403,1,,
,,,,,,,,,,,,,,,,,,5ebbf5e7aee67702ea450cf2,2020-08-10_18h08.46.133,lexical_decision_task_MP,2020.1.3,MacIntel,60,z,1,0.67673,,,,,,,,0.67673,1,,,,,,297,NW,"ID",50,fertic,FERTIC,z,,,,,,0.109739583,-0.383611111,0,0,0,,0,219,219,356,1,,
,,,,,,,,,,,,,,,,,,5ebbf5e7aee67702ea450cf2,2020-08-10_18h08.46.133,lexical_decision_task_MP,2020.1.3,MacIntel,60,z,1,0.48705,,,,,,,,0.48705,1,,,,,,299,NW,"ID",50,sturch,STURCH,z,,,,,,0.109739583,-0.383611111,0,0,0,,0,220,220,358,1,,
,,,,,,,,,,,,,,,,,,5ebbf5e7aee67702ea450cf2,2020-08-10_18h08.46.133,lexical_decision_task_MP,2020.1.3,MacIntel,60,m,1,0.486655,,,,,,,,0.486655,1,,,,,,91,WORD,UN,33,hunger,EXPAND,m,,,,,,0.109739583,-0.383611111,0,0,0,,0,221,221,150,1,,
,,,,,,,,,,,,,,,,,,5ebbf5e7aee67702ea450cf2,2020-08-10_18h08.46.133,lexical_decision_task_MP,2020.1.3,MacIntel,60,z,0,0.51621,,,,,,,,0.51621,0,,,,,,120,WORD,UN,33,ponder,STRAIN,m,,,,,,0.109739583,-0.383611111,0,0,0,,0,222,222,179,1,,
,,,,,,,,,,,,,,,,,,5ebbf5e7aee67702ea450cf2,2020-08-10_18h08.46.133,lexical_decision_task_MP,2020.1.3,MacIntel,60,m,1,0.787045,,,,,,,,0.787045,1,,,,,,35,WORD,"ID",50,socket,SOCKET,m,,,,,,0.109739583,-0.383611111,0,0,0,,0,223,223,94,1,,
,,,,,,,,,,,,,,,,,,5ebbf5e7aee67702ea450cf2,2020-08-10_18h08.46.133,lexical_decision_task_MP,2020.1.3,MacIntel,60,z,1,0.55966,,,,,,,,0.55966,1,,,,,,429,NW,"ID",33,funtle,FUNTLE,z,,,,,,0.109739583,-0.383611111,0,0,0,,0,224,224,248,1,,
,,,,,,,,,,,,,,,,,,5ebbf5e7aee67702ea450cf2,2020-08-10_18h08.46.133,lexical_decision_task_MP,2020.1.3,MacIntel,60,z,1,0.471575,,,,,,,,0.471575,1,,,,,,378,NW,UN,50,auting,SHRILE,z,,,,,,0.109739583,-0.383611111,0,0,0,,0,225,225,437,1,,
,,,,,,,,,,,,,,,,,,5ebbf5e7aee67702ea450cf2,2020-08-10_18h08.46.133,lexical_decision_task_MP,2020.1.3,MacIntel,60,z,1,0.483465,,,,,,,,0.483465,1,,,,,,480,NW,"ID",33,robuly,ROBULY,z,,,,,,0.109739583,-0.383611111,0,0,0,,0,226,226,299,1,,
,,,,,,,,,,,,,,,,,,5ebbf5e7aee67702ea450cf2,2020-08-10_18h08.46.133,lexical_decision_task_MP,2020.1.3,MacIntel,60,m,1,0.47113,,,,,,,,0.47113,1,,,,,,57,WORD,"ID",50,change,CHANGE,m,,,,,,0.109739583,-0.383611111,0,0,0,,0,227,227,116,1,,
,,,,,,,,,,,,,,,,,,5ebbf5e7aee67702ea450cf2,2020-08-10_18h08.46.133,lexical_decision_task_MP,2020.1.3,MacIntel,60,z,1,0.541395,,,,,,,,0.541395,1,,,,,,307,NW,UN,33,psetch,KIRAFE,z,,,,,,0.109739583,-0.383611111,0,0,0,,0,228,228,366,1,,
,,,,,,,,,,,,,,,,,,5ebbf5e7aee67702ea450cf2,2020-08-10_18h08.46.133,lexical_decision_task_MP,2020.1.3,MacIntel,60,z,1,0.49452,,,,,,,,0.49452,1,,,,,,269,NW,"ID",50,orchet,ORCHET,z,,,,,,0.109739583,-0.383611111,0,0,0,,0,229,229,328,1,,
,,,,,,,,,,,,,,,,,,5ebbf5e7aee67702ea450cf2,2020-08-10_18h08.46.133,lexical_decision_task_MP,2020.1.3,MacIntel,60,z,0,0.486355,,,,,,,,0.486355,0,,,,,,16,WORD,"ID",50,faucet,FAUCET,m,,,,,,0.109739583,-0.383611111,0,0,0,,0,230,230,75,1,,
,,,,,,,,,,,,,,,,,,5ebbf5e7aee67702ea450cf2,2020-08-10_18h08.46.133,lexical_decision_task_MP,2020.1.3,MacIntel,60,z,1,0.6248,,,,,,,,0.6248,1,,,,,,289,NW,"ID",50,starby,STARBY,z,,,,,,0.109739583,-0.383611111,0,0,0,,0,231,231,348,1,,
,,,,,,,,,,,,,,,,,,5ebbf5e7aee67702ea450cf2,2020-08-10_18h08.46.133,lexical_decision_task_MP,2020.1.3,MacIntel,60,m,1,0.474445,,,,,,,,0.474445,1,,,,,,75,WORD,UN,33,exotic,TROPHY,m,,,,,,0.109739583,-0.383611111,0,0,0,,0,232,232,134,1,,
,,,,,,,,,,,,,,,,,,5ebbf5e7aee67702ea450cf2,2020-08-10_18h08.46.133,lexical_decision_task_MP,2020.1.3,MacIntel,60,m,1,0.548885,,,,,,,,0.548885,1,,,,,,157,WORD,UN,50,island,DRAGON,m,,,,,,0.109739583,-0.383611111,0,0,0,,0,233,233,216,1,,
,,,,,,,,,,,,,,,,,,5ebbf5e7aee67702ea450cf2,2020-08-10_18h08.46.133,lexical_decision_task_MP,2020.1.3,MacIntel,60,z,1,0.599045,,,,,,,,0.599045,1,,,,,,325,NW,UN,33,iguade,THRUSE,z,,,,,,0.109739583,-0.383611111,0,0,0,,0,234,234,384,1,,
,,,,,,,,,,,,,,,,,,5ebbf5e7aee67702ea450cf2,2020-08-10_18h08.46.133,lexical_decision_task_MP,2020.1.3,MacIntel,60,m,1,0.543575,,,,,,,,0.543575,1,,,,,,128,WORD,UN,50,marvel,SENIOR,m,,,,,,0.109739583,-0.383611111,0,0,0,,0,235,235,187,1,,
,,,,,,,,,,,,,,,,,,5ebbf5e7aee67702ea450cf2,2020-08-10_18h08.46.133,lexical_decision_task_MP,2020.1.3,MacIntel,60,m,1,0.51129,,,,,,,,0.51129,1,,,,,,231,WORD,"ID",33,export,EXPORT,m,,,,,,0.109739583,-0.383611111,0,0,0,,0,236,236,50,1,,
,,,,,,,,,,,,,,,,,,5ebbf5e7aee67702ea450cf2,2020-08-10_18h08.46.133,lexical_decision_task_MP,2020.1.3,MacIntel,60,z,1,0.62796,,,,,,,,0.62796,1,,,,,,266,NW,"ID",50,varmit,VARMIT,z,,,,,,0.109739583,-0.383611111,0,0,0,,0,237,237,325,1,,
,,,,,,,,,,,,,,,,,,5ebbf5e7aee67702ea450cf2,2020-08-10_18h08.46.133,lexical_decision_task_MP,2020.1.3,MacIntel,60,z,1,0.58778,,,,,,,,0.58778,1,,,,,,388,NW,UN,50,witmer,CRAGIN,z,,,,,,0.109739583,-0.383611111,0,0,0,,0,238,238,447,1,,
,,,,,,,,,,,,,,,,,,5ebbf5e7aee67702ea450cf2,2020-08-10_18h08.46.133,lexical_decision_task_MP,2020.1.3,MacIntel,60,m,1,0.572085,,,,,,,,0.572085,1,,,,,,86,WORD,UN,33,filter,RODENT,m,,,,,,0.109739583,-0.383611111,0,0,0,,0,239,239,145,1,,
,,,,,,,,,,,,,,,,,,5ebbf5e7aee67702ea450cf2,2020-08-10_18h08.46.133,lexical_decision_task_MP,2020.1.3,MacIntel,60,z,1,0.62908,,,,,,,,0.62908,1,,,,,,279,NW,"ID",50,celond,CELOND,z,,,,,,0.109739583,-0.383611111,0,0,0,,0,240,240,338,1,,
,,,,,,,,,,,,,,,,,,5ebbf5e7aee67702ea450cf2,2020-08-10_18h08.46.133,lexical_decision_task_MP,2020.1.3,MacIntel,60,z,1,0.54428,,,,,,,,0.54428,1,,,,,,350,NW,UN,33,tiesch,NAGURS,z,,,,,,0.109739583,-0.383611111,0,0,0,space,0,241,241,409,1,,97.190305
,,,,,,,,,,,,,,,,,,5ebbf5e7aee67702ea450cf2,2020-08-10_18h08.46.133,lexical_decision_task_MP,2020.1.3,MacIntel,60,m,1,0.878005,,,,,,,,0.878005,1,,,,,,54,WORD,"ID",50,ramble,RAMBLE,m,,,,,,0.107131076,-0.390980903,0,0,0,,0,242,242,113,1,,
,,,,,,,,,,,,,,,,,,5ebbf5e7aee67702ea450cf2,2020-08-10_18h08.46.133,lexical_decision_task_MP,2020.1.3,MacIntel,60,m,0,0.69174,,,,,,,,0.69174,0,,,,,,261,NW,"ID",50,stunch,STUNCH,z,,,,,,0.107131076,-0.390980903,0,0,0,,0,243,243,320,1,,
,,,,,,,,,,,,,,,,,,5ebbf5e7aee67702ea450cf2,2020-08-10_18h08.46.133,lexical_decision_task_MP,2020.1.3,MacIntel,60,m,1,0.49183,,,,,,,,0.49183,1,,,,,,39,WORD,"ID",50,insect,INSECT,m,,,,,,0.107131076,-0.390980903,0,0,0,,0,244,244,98,1,,
,,,,,,,,,,,,,,,,,,5ebbf5e7aee67702ea450cf2,2020-08-10_18h08.46.133,lexical_decision_task_MP,2020.1.3,MacIntel,60,z,1,0.559035,,,,,,,,0.559035,1,,,,,,242,NW,"ID",50,unwert,UNWERT,z,,,,,,0.107131076,-0.390980903,0,0,0,,0,245,245,301,1,,
,,,,,,,,,,,,,,,,,,5ebbf5e7aee67702ea450cf2,2020-08-10_18h08.46.133,lexical_decision_task_MP,2020.1.3,MacIntel,60,m,1,0.840845,,,,,,,,0.840845,1,,,,,,200,WORD,"ID",33,beacon,BEACON,m,,,,,,0.107131076,-0.390980903,0,0,0,,0,246,246,19,1,,
,,,,,,,,,,,,,,,,,,5ebbf5e7aee67702ea450cf2,2020-08-10_18h08.46.133,lexical_decision_task_MP,2020.1.3,MacIntel,60,m,1,0.589215,,,,,,,,0.589215,1,,,,,,153,WORD,UN,50,author,BEHOLD,m,,,,,,0.107131076,-0.390980903,0,0,0,,0,247,247,212,1,,
,,,,,,,,,,,,,,,,,,5ebbf5e7aee67702ea450cf2,2020-08-10_18h08.46.133,lexical_decision_task_MP,2020.1.3,MacIntel,60,z,1,0.504385,,,,,,,,0.504385,1,,,,,,282,NW,"ID",50,porlex,PORLEX,z,,,,,,0.107131076,-0.390980903,0,0,0,,0,248,248,341,1,,
,,,,,,,,,,,,,,,,,,5ebbf5e7aee67702ea450cf2,2020-08-10_18h08.46.133,lexical_decision_task_MP,2020.1.3,MacIntel,60,z,1,0.498245,,,,,,,,0.498245,1,,,,,,469,NW,"ID",33,padifs,PADIFS,z,,,,,,0.107131076,-0.390980903,0,0,0,,0,249,249,288,1,,
,,,,,,,,,,,,,,,,,,5ebbf5e7aee67702ea450cf2,2020-08-10_18h08.46.133,lexical_decision_task_MP,2020.1.3,MacIntel,60,m,1,0.533545,,,,,,,,0.533545,1,,,,,,11,WORD,"ID",50,cruise,CRUISE,m,,,,,,0.107131076,-0.390980903,0,0,0,,0,250,250,70,1,,
,,,,,,,,,,,,,,,,,,5ebbf5e7aee67702ea450cf2,2020-08-10_18h08.46.133,lexical_decision_task_MP,2020.1.3,MacIntel,60,z,1,0.47734,,,,,,,,0.47734,1,,,,,,264,NW,"ID",50,vackel,VACKEL,z,,,,,,0.107131076,-0.390980903,0,0,0,,0,251,251,323,1,,
,,,,,,,,,,,,,,,,,,5ebbf5e7aee67702ea450cf2,2020-08-10_18h08.46.133,lexical_decision_task_MP,2020.1.3,MacIntel,60,z,1,0.56934,,,,,,,,0.56934,1,,,,,,424,NW,"ID",33,praile,PRAILE,z,,,,,,0.107131076,-0.390980903,0,0,0,,0,252,252,243,1,,
,,,,,,,,,,,,,,,,,,5ebbf5e7aee67702ea450cf2,2020-08-10_18h08.46.133,lexical_decision_task_MP,2020.1.3,MacIntel,60,z,1,0.45268,,,,,,,,0.45268,1,,,,,,330,NW,UN,33,gilfew,KENSOM,z,,,,,,0.107131076,-0.390980903,0,0,0,,0,253,253,389,1,,
,,,,,,,,,,,,,,,,,,5ebbf5e7aee67702ea450cf2,2020-08-10_18h08.46.133,lexical_decision_task_MP,2020.1.3,MacIntel,60,z,1,0.59342,,,,,,,,0.59342,1,,,,,,471,NW,"ID",33,nobest,NOBEST,z,,,,,,0.107131076,-0.390980903,0,0,0,,0,254,254,290,1,,
,,,,,,,,,,,,,,,,,,5ebbf5e7aee67702ea450cf2,2020-08-10_18h08.46.133,lexical_decision_task_MP,2020.1.3,MacIntel,60,m,1,0.5764,,,,,,,,0.5764,1,,,,,,165,WORD,UN,50,starch,INVEST,m,,,,,,0.107131076,-0.390980903,0,0,0,,0,255,255,224,1,,
,,,,,,,,,,,,,,,,,,5ebbf5e7aee67702ea450cf2,2020-08-10_18h08.46.133,lexical_decision_task_MP,2020.1.3,MacIntel,60,z,1,0.577555,,,,,,,,0.577555,1,,,,,,460,NW,"ID",33,mingar,MINGAR,z,,,,,,0.107131076,-0.390980903,0,0,0,,0,256,256,279,1,,
,,,,,,,,,,,,,,,,,,5ebbf5e7aee67702ea450cf2,2020-08-10_18h08.46.133,lexical_decision_task_MP,2020.1.3,MacIntel,60,m,1,0.425565,,,,,,,,0.425565,1,,,,,,9,WORD,"ID",50,hustle,HUSTLE,m,,,,,,0.107131076,-0.390980903,0,0,0,,0,257,257,68,1,,
,,,,,,,,,,,,,,,,,,5ebbf5e7aee67702ea450cf2,2020-08-10_18h08.46.133,lexical_decision_task_MP,2020.1.3,MacIntel,60,z,1,0.50599,,,,,,,,0.50599,1,,,,,,363,NW,UN,50,impote,BREALI,z,,,,,,0.107131076,-0.390980903,0,0,0,,0,258,258,422,1,,
,,,,,,,,,,,,,,,,,,5ebbf5e7aee67702ea450cf2,2020-08-10_18h08.46.133,lexical_decision_task_MP,2020.1.3,MacIntel,60,z,1,0.52471,,,,,,,,0.52471,1,,,,,,245,NW,"ID",50,anougs,ANOUGS,z,,,,,,0.107131076,-0.390980903,0,0,0,,0,259,259,304,1,,
,,,,,,,,,,,,,,,,,,5ebbf5e7aee67702ea450cf2,2020-08-10_18h08.46.133,lexical_decision_task_MP,2020.1.3,MacIntel,60,z,1,0.495745,,,,,,,,0.495745,1,,,,,,317,NW,UN,33,reagly,WORBAL,z,,,,,,0.107131076,-0.390980903,0,0,0,,0,260,260,376,1,,
,,,,,,,,,,,,,,,,,,5ebbf5e7aee67702ea450cf2,2020-08-10_18h08.46.133,lexical_decision_task_MP,2020.1.3,MacIntel,60,z,0,0.51184,,,,,,,,0.51184,0,,,,,,121,WORD,UN,50,linger,THRIVE,m,,,,,,0.107131076,-0.390980903,0,0,0,,0,261,261,180,1,,
,,,,,,,,,,,,,,,,,,5ebbf5e7aee67702ea450cf2,2020-08-10_18h08.46.133,lexical_decision_task_MP,2020.1.3,MacIntel,60,m,1,0.49935,,,,,,,,0.49935,1,,,,,,41,WORD,"ID",50,spring,SPRING,m,,,,,,0.107131076,-0.390980903,0,0,0,,0,262,262,100,1,,
,,,,,,,,,,,,,,,,,,5ebbf5e7aee67702ea450cf2,2020-08-10_18h08.46.133,lexical_decision_task_MP,2020.1.3,MacIntel,60,m,1,0.68127,,,,,,,,0.68127,1,,,,,,237,WORD,"ID",33,poster,POSTER,m,,,,,,0.107131076,-0.390980903,0,0,0,,0,263,263,56,1,,
,,,,,,,,,,,,,,,,,,5ebbf5e7aee67702ea450cf2,2020-08-10_18h08.46.133,lexical_decision_task_MP,2020.1.3,MacIntel,60,m,1,0.53328,,,,,,,,0.53328,1,,,,,,47,WORD,"ID",50,income,INCOME,m,,,,,,0.107131076,-0.390980903,0,0,0,,0,264,264,106,1,,
,,,,,,,,,,,,,,,,,,5ebbf5e7aee67702ea450cf2,2020-08-10_18h08.46.133,lexical_decision_task_MP,2020.1.3,MacIntel,60,z,1,0.692295,,,,,,,,0.692295,1,,,,,,338,NW,UN,33,fachow,WREASH,z,,,,,,0.107131076,-0.390980903,0,0,0,,0,265,265,397,1,,
,,,,,,,,,,,,,,,,,,5ebbf5e7aee67702ea450cf2,2020-08-10_18h08.46.133,lexical_decision_task_MP,2020.1.3,MacIntel,60,z,1,0.551525,,,,,,,,0.551525,1,,,,,,477,NW,"ID",33,photie,PHOTIE,z,,,,,,0.107131076,-0.390980903,0,0,0,,0,266,266,296,1,,
,,,,,,,,,,,,,,,,,,5ebbf5e7aee67702ea450cf2,2020-08-10_18h08.46.133,lexical_decision_task_MP,2020.1.3,MacIntel,60,z,1,0.55507,,,,,,,,0.55507,1,,,,,,430,NW,"ID",33,caroey,CAROEY,z,,,,,,0.107131076,-0.390980903,0,0,0,,0,267,267,249,1,,
,,,,,,,,,,,,,,,,,,5ebbf5e7aee67702ea450cf2,2020-08-10_18h08.46.133,lexical_decision_task_MP,2020.1.3,MacIntel,60,m,1,0.520445,,,,,,,,0.520445,1,,,,,,136,WORD,UN,50,finger,BLEACH,m,,,,,,0.107131076,-0.390980903,0,0,0,,0,268,268,195,1,,
,,,,,,,,,,,,,,,,,,5ebbf5e7aee67702ea450cf2,2020-08-10_18h08.46.133,lexical_decision_task_MP,2020.1.3,MacIntel,60,m,1,0.77793,,,,,,,,0.77793,1,,,,,,77,WORD,UN,33,column,RACKET,m,,,,,,0.107131076,-0.390980903,0,0,0,,0,269,269,136,1,,
,,,,,,,,,,,,,,,,,,5ebbf5e7aee67702ea450cf2,2020-08-10_18h08.46.133,lexical_decision_task_MP,2020.1.3,MacIntel,60,z,1,0.663705,,,,,,,,0.663705,1,,,,,,249,NW,"ID",50,batrol,BATROL,z,,,,,,0.107131076,-0.390980903,0,0,0,,0,270,270,308,1,,
,,,,,,,,,,,,,,,,,,5ebbf5e7aee67702ea450cf2,2020-08-10_18h08.46.133,lexical_decision_task_MP,2020.1.3,MacIntel,60,z,1,0.59235,,,,,,,,0.59235,1,,,,,,385,NW,UN,50,ancust,VEIGMA,z,,,,,,0.107131076,-0.390980903,0,0,0,,0,271,271,444,1,,
,,,,,,,,,,,,,,,,,,5ebbf5e7aee67702ea450cf2,2020-08-10_18h08.46.133,lexical_decision_task_MP,2020.1.3,MacIntel,60,z,1,0.52737,,,,,,,,0.52737,1,,,,,,303,NW,UN,33,cludie,FIREAM,z,,,,,,0.107131076,-0.390980903,0,0,0,,0,272,272,362,1,,
,,,,,,,,,,,,,,,,,,5ebbf5e7aee67702ea450cf2,2020-08-10_18h08.46.133,lexical_decision_task_MP,2020.1.3,MacIntel,60,m,1,0.481255,,,,,,,,0.481255,1,,,,,,178,WORD,UN,50,basket,INFORM,m,,,,,,0.107131076,-0.390980903,0,0,0,,0,273,273,237,1,,
,,,,,,,,,,,,,,,,,,5ebbf5e7aee67702ea450cf2,2020-08-10_18h08.46.133,lexical_decision_task_MP,2020.1.3,MacIntel,60,z,0,0.50799,,,,,,,,0.50799,0,,,,,,139,WORD,UN,50,prince,DEBRIS,m,,,,,,0.107131076,-0.390980903,0,0,0,,0,274,274,198,1,,
,,,,,,,,,,,,,,,,,,5ebbf5e7aee67702ea450cf2,2020-08-10_18h08.46.133,lexical_decision_task_MP,2020.1.3,MacIntel,60,z,1,0.60648,,,,,,,,0.60648,1,,,,,,373,NW,UN,50,sliant,BIGENT,z,,,,,,0.107131076,-0.390980903,0,0,0,,0,275,275,432,1,,
,,,,,,,,,,,,,,,,,,5ebbf5e7aee67702ea450cf2,2020-08-10_18h08.46.133,lexical_decision_task_MP,2020.1.3,MacIntel,60,z,1,0.585745,,,,,,,,0.585745,1,,,,,,399,NW,UN,50,wearox,FOURET,z,,,,,,0.107131076,-0.390980903,0,0,0,,0,276,276,458,1,,
,,,,,,,,,,,,,,,,,,5ebbf5e7aee67702ea450cf2,2020-08-10_18h08.46.133,lexical_decision_task_MP,2020.1.3,MacIntel,60,m,1,0.70292,,,,,,,,0.70292,1,,,,,,170,WORD,UN,50,dragon,POUNCE,m,,,,,,0.107131076,-0.390980903,0,0,0,,0,277,277,229,1,,
,,,,,,,,,,,,,,,,,,5ebbf5e7aee67702ea450cf2,2020-08-10_18h08.46.133,lexical_decision_task_MP,2020.1.3,MacIntel,60,z,1,0.506615,,,,,,,,0.506615,1,,,,,,417,NW,UN,50,suidle,EAROUD,z,,,,,,0.107131076,-0.390980903,0,0,0,,0,278,278,476,1,,
,,,,,,,,,,,,,,,,,,5ebbf5e7aee67702ea450cf2,2020-08-10_18h08.46.133,lexical_decision_task_MP,2020.1.3,MacIntel,60,m,1,0.56001,,,,,,,,0.56001,1,,,,,,109,WORD,UN,33,polite,WONDER,m,,,,,,0.107131076,-0.390980903,0,0,0,,0,279,279,168,1,,
,,,,,,,,,,,,,,,,,,5ebbf5e7aee67702ea450cf2,2020-08-10_18h08.46.133,lexical_decision_task_MP,2020.1.3,MacIntel,60,m,1,0.69368,,,,,,,,0.69368,1,,,,,,114,WORD,UN,33,guitar,PLACID,m,,,,,,0.107131076,-0.390980903,0,0,0,,0,280,280,173,1,,
,,,,,,,,,,,,,,,,,,5ebbf5e7aee67702ea450cf2,2020-08-10_18h08.46.133,lexical_decision_task_MP,2020.1.3,MacIntel,60,m,1,0.49921,,,,,,,,0.49921,1,,,,,,98,WORD,UN,33,fluent,BELONG,m,,,,,,0.107131076,-0.390980903,0,0,0,,0,281,281,157,1,,
,,,,,,,,,,,,,,,,,,5ebbf5e7aee67702ea450cf2,2020-08-10_18h08.46.133,lexical_decision_task_MP,2020.1.3,MacIntel,60,z,1,0.47302,,,,,,,,0.47302,1,,,,,,326,NW,UN,33,plenac,IGUADE,z,,,,,,0.107131076,-0.390980903,0,0,0,,0,282,282,385,1,,
,,,,,,,,,,,,,,,,,,5ebbf5e7aee67702ea450cf2,2020-08-10_18h08.46.133,lexical_decision_task_MP,2020.1.3,MacIntel,60,m,1,0.47185,,,,,,,,0.47185,1,,,,,,154,WORD,UN,50,lizard,AUTHOR,m,,,,,,0.107131076,-0.390980903,0,0,0,,0,283,283,213,1,,
,,,,,,,,,,,,,,,,,,5ebbf5e7aee67702ea450cf2,2020-08-10_18h08.46.133,lexical_decision_task_MP,2020.1.3,MacIntel,60,m,1,0.526155,,,,,,,,0.526155,1,,,,,,162,WORD,UN,50,string,CANDLE,m,,,,,,0.107131076,-0.390980903,0,0,0,,0,284,284,221,1,,
,,,,,,,,,,,,,,,,,,5ebbf5e7aee67702ea450cf2,2020-08-10_18h08.46.133,lexical_decision_task_MP,2020.1.3,MacIntel,60,z,1,0.631585,,,,,,,,0.631585,1,,,,,,319,NW,UN,33,jockal,ZOMBER,z,,,,,,0.107131076,-0.390980903,0,0,0,,0,285,285,378,1,,
,,,,,,,,,,,,,,,,,,5ebbf5e7aee67702ea450cf2,2020-08-10_18h08.46.133,lexical_decision_task_MP,2020.1.3,MacIntel,60,m,1,0.54182,,,,,,,,0.54182,1,,,,,,167,WORD,UN,50,answer,DESIGN,m,,,,,,0.107131076,-0.390980903,0,0,0,,0,286,286,226,1,,
,,,,,,,,,,,,,,,,,,5ebbf5e7aee67702ea450cf2,2020-08-10_18h08.46.133,lexical_decision_task_MP,2020.1.3,MacIntel,60,m,1,0.68364,,,,,,,,0.68364,1,,,,,,125,WORD,UN,50,enough,NICKEL,m,,,,,,0.107131076,-0.390980903,0,0,0,,0,287,287,184,1,,
,,,,,,,,,,,,,,,,,,5ebbf5e7aee67702ea450cf2,2020-08-10_18h08.46.133,lexical_decision_task_MP,2020.1.3,MacIntel,60,m,1,0.52405,,,,,,,,0.52405,1,,,,,,204,WORD,"ID",33,burden,BURDEN,m,,,,,,0.107131076,-0.390980903,0,0,0,,0,288,288,23,1,,
,,,,,,,,,,,,,,,,,,5ebbf5e7aee67702ea450cf2,2020-08-10_18h08.46.133,lexical_decision_task_MP,2020.1.3,MacIntel,60,z,1,0.70156,,,,,,,,0.70156,1,,,,,,386,NW,UN,50,gronce,ANCUST,z,,,,,,0.107131076,-0.390980903,0,0,0,,0,289,289,445,1,,
,,,,,,,,,,,,,,,,,,5ebbf5e7aee67702ea450cf2,2020-08-10_18h08.46.133,lexical_decision_task_MP,2020.1.3,MacIntel,60,z,1,0.546415,,,,,,,,0.546415,1,,,,,,310,NW,UN,33,sproly,DANIET,z,,,,,,0.107131076,-0.390980903,0,0,0,,0,290,290,369,1,,
,,,,,,,,,,,,,,,,,,5ebbf5e7aee67702ea450cf2,2020-08-10_18h08.46.133,lexical_decision_task_MP,2020.1.3,MacIntel,60,m,1,0.619595,,,,,,,,0.619595,1,,,,,,71,WORD,UN,33,bright,GARDEN,m,,,,,,0.107131076,-0.390980903,0,0,0,,0,291,291,130,1,,
,,,,,,,,,,,,,,,,,,5ebbf5e7aee67702ea450cf2,2020-08-10_18h08.46.133,lexical_decision_task_MP,2020.1.3,MacIntel,60,z,1,0.513745,,,,,,,,0.513745,1,,,,,,276,NW,"ID",50,yarmon,YARMON,z,,,,,,0.107131076,-0.390980903,0,0,0,,0,292,292,335,1,,
,,,,,,,,,,,,,,,,,,5ebbf5e7aee67702ea450cf2,2020-08-10_18h08.46.133,lexical_decision_task_MP,2020.1.3,MacIntel,60,z,1,0.56673,,,,,,,,0.56673,1,,,,,,312,NW,UN,33,paurse,NERAWL,z,,,,,,0.107131076,-0.390980903,0,0,0,,0,293,293,371,1,,
,,,,,,,,,,,,,,,,,,5ebbf5e7aee67702ea450cf2,2020-08-10_18h08.46.133,lexical_decision_task_MP,2020.1.3,MacIntel,60,m,1,0.45609,,,,,,,,0.45609,1,,,,,,76,WORD,UN,33,racket,EXOTIC,m,,,,,,0.107131076,-0.390980903,0,0,0,,0,294,294,135,1,,
,,,,,,,,,,,,,,,,,,5ebbf5e7aee67702ea450cf2,2020-08-10_18h08.46.133,lexical_decision_task_MP,2020.1.3,MacIntel,60,m,1,0.546155,,,,,,,,0.546155,1,,,,,,83,WORD,UN,33,mortal,RESULT,m,,,,,,0.107131076,-0.390980903,0,0,0,,0,295,295,142,1,,
,,,,,,,,,,,,,,,,,,5ebbf5e7aee67702ea450cf2,2020-08-10_18h08.46.133,lexical_decision_task_MP,2020.1.3,MacIntel,60,m,1,0.64202,,,,,,,,0.64202,1,,,,,,166,WORD,UN,50,design,STARCH,m,,,,,,0.107131076,-0.390980903,0,0,0,,0,296,296,225,1,,
,,,,,,,,,,,,,,,,,,5ebbf5e7aee67702ea450cf2,2020-08-10_18h08.46.133,lexical_decision_task_MP,2020.1.3,MacIntel,60,z,1,0.79505,,,,,,,,0.79505,1,,,,,,260,NW,"ID",50,unject,UNJECT,z,,,,,,0.107131076,-0.390980903,0,0,0,,0,297,297,319,1,,
,,,,,,,,,,,,,,,,,,5ebbf5e7aee67702ea450cf2,2020-08-10_18h08.46.133,lexical_decision_task_MP,2020.1.3,MacIntel,60,m,1,0.588255,,,,,,,,0.588255,1,,,,,,159,WORD,UN,50,violet,DETAIL,m,,,,,,0.107131076,-0.390980903,0,0,0,,0,298,298,218,1,,
,,,,,,,,,,,,,,,,,,5ebbf5e7aee67702ea450cf2,2020-08-10_18h08.46.133,lexical_decision_task_MP,2020.1.3,MacIntel,60,z,1,0.62527,,,,,,,,0.62527,1,,,,,,271,NW,"ID",50,aubrid,AUBRID,z,,,,,,0.107131076,-0.390980903,0,0,0,,0,299,299,330,1,,
,,,,,,,,,,,,,,,,,,5ebbf5e7aee67702ea450cf2,2020-08-10_18h08.46.133,lexical_decision_task_MP,2020.1.3,MacIntel,60,m,1,0.556795,,,,,,,,0.556795,1,,,,,,202,WORD,"ID",33,factor,FACTOR,m,,,,,,0.107131076,-0.390980903,0,0,0,,0,300,300,21,1,,
,,,,,,,,,,,,,,,,,,5ebbf5e7aee67702ea450cf2,2020-08-10_18h08.46.133,lexical_decision_task_MP,2020.1.3,MacIntel,60,m,1,0.50794,,,,,,,,0.50794,1,,,,,,238,WORD,"ID",33,flower,FLOWER,m,,,,,,0.107131076,-0.390980903,0,0,0,,0,301,301,57,1,,
,,,,,,,,,,,,,,,,,,5ebbf5e7aee67702ea450cf2,2020-08-10_18h08.46.133,lexical_decision_task_MP,2020.1.3,MacIntel,60,m,1,0.55169,,,,,,,,0.55169,1,,,,,,73,WORD,UN,33,plaque,SOURCE,m,,,,,,0.107131076,-0.390980903,0,0,0,,0,302,302,132,1,,
,,,,,,,,,,,,,,,,,,5ebbf5e7aee67702ea450cf2,2020-08-10_18h08.46.133,lexical_decision_task_MP,2020.1.3,MacIntel,60,z,1,0.8083,,,,,,,,0.8083,1,,,,,,367,NW,UN,50,hornal,SLIQUE,z,,,,,,0.107131076,-0.390980903,0,0,0,,0,303,303,426,1,,
,,,,,,,,,,,,,,,,,,5ebbf5e7aee67702ea450cf2,2020-08-10_18h08.46.133,lexical_decision_task_MP,2020.1.3,MacIntel,60,m,1,0.523405,,,,,,,,0.523405,1,,,,,,141,WORD,UN,50,spruce,ORPHAN,m,,,,,,0.107131076,-0.390980903,0,0,0,,0,304,304,200,1,,
,,,,,,,,,,,,,,,,,,5ebbf5e7aee67702ea450cf2,2020-08-10_18h08.46.133,lexical_decision_task_MP,2020.1.3,MacIntel,60,z,1,0.601175,,,,,,,,0.601175,1,,,,,,432,NW,"ID",33,lunker,LUNKER,z,,,,,,0.107131076,-0.390980903,0,0,0,,0,305,305,251,1,,
,,,,,,,,,,,,,,,,,,5ebbf5e7aee67702ea450cf2,2020-08-10_18h08.46.133,lexical_decision_task_MP,2020.1.3,MacIntel,60,z,1,0.51129,,,,,,,,0.51129,1,,,,,,353,NW,UN,33,virlex,CLUREY,z,,,,,,0.107131076,-0.390980903,0,0,0,,0,306,306,412,1,,
,,,,,,,,,,,,,,,,,,5ebbf5e7aee67702ea450cf2,2020-08-10_18h08.46.133,lexical_decision_task_MP,2020.1.3,MacIntel,60,m,1,0.55293,,,,,,,,0.55293,1,,,,,,23,WORD,"ID",50,wealth,WEALTH,m,,,,,,0.107131076,-0.390980903,0,0,0,,0,307,307,82,1,,
,,,,,,,,,,,,,,,,,,5ebbf5e7aee67702ea450cf2,2020-08-10_18h08.46.133,lexical_decision_task_MP,2020.1.3,MacIntel,60,m,1,0.506415,,,,,,,,0.506415,1,,,,,,232,WORD,"ID",33,inject,INJECT,m,,,,,,0.107131076,-0.390980903,0,0,0,,0,308,308,51,1,,
,,,,,,,,,,,,,,,,,,5ebbf5e7aee67702ea450cf2,2020-08-10_18h08.46.133,lexical_decision_task_MP,2020.1.3,MacIntel,60,m,1,0.7368,,,,,,,,0.7368,1,,,,,,226,WORD,"ID",33,casino,CASINO,m,,,,,,0.107131076,-0.390980903,0,0,0,,0,309,309,45,1,,
,,,,,,,,,,,,,,,,,,5ebbf5e7aee67702ea450cf2,2020-08-10_18h08.46.133,lexical_decision_task_MP,2020.1.3,MacIntel,60,z,1,0.66528,,,,,,,,0.66528,1,,,,,,295,NW,"ID",50,gleath,GLEATH,z,,,,,,0.107131076,-0.390980903,0,0,0,,0,310,310,354,1,,
,,,,,,,,,,,,,,,,,,5ebbf5e7aee67702ea450cf2,2020-08-10_18h08.46.133,lexical_decision_task_MP,2020.1.3,MacIntel,60,z,1,0.61651,,,,,,,,0.61651,1,,,,,,296,NW,"ID",50,beinch,BEINCH,z,,,,,,0.107131076,-0.390980903,0,0,0,,0,311,311,355,1,,
,,,,,,,,,,,,,,,,,,5ebbf5e7aee67702ea450cf2,2020-08-10_18h08.46.133,lexical_decision_task_MP,2020.1.3,MacIntel,60,m,1,0.51684,,,,,,,,0.51684,1,,,,,,123,WORD,UN,50,blouse,STRIKE,m,,,,,,0.107131076,-0.390980903,0,0,0,,0,312,312,182,1,,
,,,,,,,,,,,,,,,,,,5ebbf5e7aee67702ea450cf2,2020-08-10_18h08.46.133,lexical_decision_task_MP,2020.1.3,MacIntel,60,m,1,0.696645,,,,,,,,0.696645,1,,,,,,138,WORD,UN,50,debris,MELODY,m,,,,,,0.107131076,-0.390980903,0,0,0,,0,313,313,197,1,,
,,,,,,,,,,,,,,,,,,5ebbf5e7aee67702ea450cf2,2020-08-10_18h08.46.133,lexical_decision_task_MP,2020.1.3,MacIntel,60,m,1,0.70559,,,,,,,,0.70559,1,,,,,,210,WORD,"ID",33,monkey,MONKEY,m,,,,,,0.107131076,-0.390980903,0,0,0,,0,314,314,29,1,,
,,,,,,,,,,,,,,,,,,5ebbf5e7aee67702ea450cf2,2020-08-10_18h08.46.133,lexical_decision_task_MP,2020.1.3,MacIntel,60,m,1,0.561205,,,,,,,,0.561205,1,,,,,,187,WORD,"ID",33,course,COURSE,m,,,,,,0.107131076,-0.390980903,0,0,0,,0,315,315,6,1,,
,,,,,,,,,,,,,,,,,,5ebbf5e7aee67702ea450cf2,2020-08-10_18h08.46.133,lexical_decision_task_MP,2020.1.3,MacIntel,60,m,1,0.465545,,,,,,,,0.465545,1,,,,,,188,WORD,"ID",33,social,SOCIAL,m,,,,,,0.107131076,-0.390980903,0,0,0,,0,316,316,7,1,,
,,,,,,,,,,,,,,,,,,5ebbf5e7aee67702ea450cf2,2020-08-10_18h08.46.133,lexical_decision_task_MP,2020.1.3,MacIntel,60,z,1,0.495525,,,,,,,,0.495525,1,,,,,,288,NW,"ID",50,yaceup,YACEUP,z,,,,,,0.107131076,-0.390980903,0,0,0,,0,317,317,347,1,,
,,,,,,,,,,,,,,,,,,5ebbf5e7aee67702ea450cf2,2020-08-10_18h08.46.133,lexical_decision_task_MP,2020.1.3,MacIntel,60,z,1,0.512455,,,,,,,,0.512455,1,,,,,,302,NW,UN,33,fiream,MILUER,z,,,,,,0.107131076,-0.390980903,0,0,0,,0,318,318,361,1,,
,,,,,,,,,,,,,,,,,,5ebbf5e7aee67702ea450cf2,2020-08-10_18h08.46.133,lexical_decision_task_MP,2020.1.3,MacIntel,60,m,1,0.7217,,,,,,,,0.7217,1,,,,,,151,WORD,UN,50,rocket,MYSTIC,m,,,,,,0.107131076,-0.390980903,0,0,0,,0,319,319,210,1,,
,,,,,,,,,,,,,,,,,,5ebbf5e7aee67702ea450cf2,2020-08-10_18h08.46.133,lexical_decision_task_MP,2020.1.3,MacIntel,60,m,1,0.440585,,,,,,,,0.440585,1,,,,,,17,WORD,"ID",50,charge,CHARGE,m,,,,,,0.107131076,-0.390980903,0,0,0,,0,320,320,76,1,,
,,,,,,,,,,,,,,,,,,5ebbf5e7aee67702ea450cf2,2020-08-10_18h08.46.133,lexical_decision_task_MP,2020.1.3,MacIntel,60,m,1,0.477385,,,,,,,,0.477385,1,,,,,,192,WORD,"ID",33,plague,PLAGUE,m,,,,,,0.107131076,-0.390980903,0,0,0,,0,321,321,11,1,,
,,,,,,,,,,,,,,,,,,5ebbf5e7aee67702ea450cf2,2020-08-10_18h08.46.133,lexical_decision_task_MP,2020.1.3,MacIntel,60,z,1,0.63219,,,,,,,,0.63219,1,,,,,,398,NW,UN,50,fouret,BLUNDE,z,,,,,,0.107131076,-0.390980903,0,0,0,,0,322,322,457,1,,
,,,,,,,,,,,,,,,,,,5ebbf5e7aee67702ea450cf2,2020-08-10_18h08.46.133,lexical_decision_task_MP,2020.1.3,MacIntel,60,z,1,0.511485,,,,,,,,0.511485,1,,,,,,440,NW,"ID",33,saride,SARIDE,z,,,,,,0.107131076,-0.390980903,0,0,0,,0,323,323,259,1,,
,,,,,,,,,,,,,,,,,,5ebbf5e7aee67702ea450cf2,2020-08-10_18h08.46.133,lexical_decision_task_MP,2020.1.3,MacIntel,60,z,1,0.492,,,,,,,,0.492,1,,,,,,362,NW,UN,50,breali,TIREAU,z,,,,,,0.107131076,-0.390980903,0,0,0,,0,324,324,421,1,,
,,,,,,,,,,,,,,,,,,5ebbf5e7aee67702ea450cf2,2020-08-10_18h08.46.133,lexical_decision_task_MP,2020.1.3,MacIntel,60,z,1,0.56303,,,,,,,,0.56303,1,,,,,,258,NW,"ID",50,poluth,POLUTH,z,,,,,,0.107131076,-0.390980903,0,0,0,,0,325,325,317,1,,
,,,,,,,,,,,,,,,,,,5ebbf5e7aee67702ea450cf2,2020-08-10_18h08.46.133,lexical_decision_task_MP,2020.1.3,MacIntel,60,m,1,0.60452,,,,,,,,0.60452,1,,,,,,220,WORD,"ID",33,voyage,VOYAGE,m,,,,,,0.107131076,-0.390980903,0,0,0,,0,326,326,39,1,,
,,,,,,,,,,,,,,,,,,5ebbf5e7aee67702ea450cf2,2020-08-10_18h08.46.133,lexical_decision_task_MP,2020.1.3,MacIntel,60,m,1,0.816905,,,,,,,,0.816905,1,,,,,,20,WORD,"ID",50,breast,BREAST,m,,,,,,0.107131076,-0.390980903,0,0,0,,0,327,327,79,1,,
,,,,,,,,,,,,,,,,,,5ebbf5e7aee67702ea450cf2,2020-08-10_18h08.46.133,lexical_decision_task_MP,2020.1.3,MacIntel,60,m,1,0.45425,,,,,,,,0.45425,1,,,,,,224,WORD,"ID",33,period,PERIOD,m,,,,,,0.107131076,-0.390980903,0,0,0,,0,328,328,43,1,,
,,,,,,,,,,,,,,,,,,5ebbf5e7aee67702ea450cf2,2020-08-10_18h08.46.133,lexical_decision_task_MP,2020.1.3,MacIntel,60,z,1,0.58066,,,,,,,,0.58066,1,,,,,,371,NW,UN,50,ramily,GEILOY,z,,,,,,0.107131076,-0.390980903,0,0,0,,0,329,329,430,1,,
,,,,,,,,,,,,,,,,,,5ebbf5e7aee67702ea450cf2,2020-08-10_18h08.46.133,lexical_decision_task_MP,2020.1.3,MacIntel,60,z,1,0.666375,,,,,,,,0.666375,1,,,,,,320,NW,UN,33,miator,JOCKAL,z,,,,,,0.107131076,-0.390980903,0,0,0,,0,330,330,379,1,,
,,,,,,,,,,,,,,,,,,5ebbf5e7aee67702ea450cf2,2020-08-10_18h08.46.133,lexical_decision_task_MP,2020.1.3,MacIntel,60,z,1,0.5409,,,,,,,,0.5409,1,,,,,,268,NW,"ID",50,packes,PACKES,z,,,,,,0.107131076,-0.390980903,0,0,0,,0,331,331,327,1,,
,,,,,,,,,,,,,,,,,,5ebbf5e7aee67702ea450cf2,2020-08-10_18h08.46.133,lexical_decision_task_MP,2020.1.3,MacIntel,60,m,1,0.513045,,,,,,,,0.513045,1,,,,,,189,WORD,"ID",33,censor,CENSOR,m,,,,,,0.107131076,-0.390980903,0,0,0,,0,332,332,8,1,,
,,,,,,,,,,,,,,,,,,5ebbf5e7aee67702ea450cf2,2020-08-10_18h08.46.133,lexical_decision_task_MP,2020.1.3,MacIntel,60,z,1,0.59412,,,,,,,,0.59412,1,,,,,,450,NW,"ID",33,phrect,PHRECT,z,,,,,,0.107131076,-0.390980903,0,0,0,,0,333,333,269,1,,
,,,,,,,,,,,,,,,,,,5ebbf5e7aee67702ea450cf2,2020-08-10_18h08.46.133,lexical_decision_task_MP,2020.1.3,MacIntel,60,m,1,0.548765,,,,,,,,0.548765,1,,,,,,90,WORD,UN,33,expand,RELISH,m,,,,,,0.107131076,-0.390980903,0,0,0,,0,334,334,149,1,,
,,,,,,,,,,,,,,,,,,5ebbf5e7aee67702ea450cf2,2020-08-10_18h08.46.133,lexical_decision_task_MP,2020.1.3,MacIntel,60,m,1,0.5461,,,,,,,,0.5461,1,,,,,,79,WORD,UN,33,family,THEORY,m,,,,,,0.107131076,-0.390980903,0,0,0,,0,335,335,138,1,,
,,,,,,,,,,,,,,,,,,5ebbf5e7aee67702ea450cf2,2020-08-10_18h08.46.133,lexical_decision_task_MP,2020.1.3,MacIntel,60,m,1,0.594925,,,,,,,,0.594925,1,,,,,,24,WORD,"ID",50,praise,PRAISE,m,,,,,,0.107131076,-0.390980903,0,0,0,,0,336,336,83,1,,
,,,,,,,,,,,,,,,,,,5ebbf5e7aee67702ea450cf2,2020-08-10_18h08.46.133,lexical_decision_task_MP,2020.1.3,MacIntel,60,m,1,0.6064,,,,,,,,0.6064,1,,,,,,59,WORD,"ID",50,splint,SPLINT,m,,,,,,0.107131076,-0.390980903,0,0,0,,0,337,337,118,1,,
,,,,,,,,,,,,,,,,,,5ebbf5e7aee67702ea450cf2,2020-08-10_18h08.46.133,lexical_decision_task_MP,2020.1.3,MacIntel,60,m,1,0.48784,,,,,,,,0.48784,1,,,,,,61,WORD,UN,33,region,PONDER,m,,,,,,0.107131076,-0.390980903,0,0,0,,0,338,338,120,1,,
,,,,,,,,,,,,,,,,,,5ebbf5e7aee67702ea450cf2,2020-08-10_18h08.46.133,lexical_decision_task_MP,2020.1.3,MacIntel,60,z,1,0.68858,,,,,,,,0.68858,1,,,,,,248,NW,"ID",50,strole,STROLE,z,,,,,,0.107131076,-0.390980903,0,0,0,,0,339,339,307,1,,
,,,,,,,,,,,,,,,,,,5ebbf5e7aee67702ea450cf2,2020-08-10_18h08.46.133,lexical_decision_task_MP,2020.1.3,MacIntel,60,m,1,0.569,,,,,,,,0.569,1,,,,,,99,WORD,UN,33,carbon,FLUENT,m,,,,,,0.107131076,-0.390980903,0,0,0,,0,340,340,158,1,,
,,,,,,,,,,,,,,,,,,5ebbf5e7aee67702ea450cf2,2020-08-10_18h08.46.133,lexical_decision_task_MP,2020.1.3,MacIntel,60,z,1,0.597635,,,,,,,,0.597635,1,,,,,,383,NW,UN,50,guesco,AUNGRE,z,,,,,,0.107131076,-0.390980903,0,0,0,,0,341,341,442,1,,
,,,,,,,,,,,,,,,,,,5ebbf5e7aee67702ea450cf2,2020-08-10_18h08.46.133,lexical_decision_task_MP,2020.1.3,MacIntel,60,m,1,0.537815,,,,,,,,0.537815,1,,,,,,85,WORD,UN,33,rodent,SPRAWL,m,,,,,,0.107131076,-0.390980903,0,0,0,,0,342,342,144,1,,
,,,,,,,,,,,,,,,,,,5ebbf5e7aee67702ea450cf2,2020-08-10_18h08.46.133,lexical_decision_task_MP,2020.1.3,MacIntel,60,m,1,0.55662,,,,,,,,0.55662,1,,,,,,221,WORD,"ID",33,mascot,MASCOT,m,,,,,,0.107131076,-0.390980903,0,0,0,,0,343,343,40,1,,
,,,,,,,,,,,,,,,,,,5ebbf5e7aee67702ea450cf2,2020-08-10_18h08.46.133,lexical_decision_task_MP,2020.1.3,MacIntel,60,m,1,0.529965,,,,,,,,0.529965,1,,,,,,129,WORD,UN,50,stupid,MARVEL,m,,,,,,0.107131076,-0.390980903,0,0,0,,0,344,344,188,1,,
,,,,,,,,,,,,,,,,,,5ebbf5e7aee67702ea450cf2,2020-08-10_18h08.46.133,lexical_decision_task_MP,2020.1.3,MacIntel,60,z,1,0.53486,,,,,,,,0.53486,1,,,,,,457,NW,"ID",33,wanigh,WANIGH,z,,,,,,0.107131076,-0.390980903,0,0,0,,0,345,345,276,1,,
,,,,,,,,,,,,,,,,,,5ebbf5e7aee67702ea450cf2,2020-08-10_18h08.46.133,lexical_decision_task_MP,2020.1.3,MacIntel,60,m,1,0.464905,,,,,,,,0.464905,1,,,,,,18,WORD,"ID",50,humble,HUMBLE,m,,,,,,0.107131076,-0.390980903,0,0,0,,0,346,346,77,1,,
,,,,,,,,,,,,,,,,,,5ebbf5e7aee67702ea450cf2,2020-08-10_18h08.46.133,lexical_decision_task_MP,2020.1.3,MacIntel,60,z,1,0.484455,,,,,,,,0.484455,1,,,,,,251,NW,"ID",50,lupict,LUPICT,z,,,,,,0.107131076,-0.390980903,0,0,0,,0,347,347,310,1,,
,,,,,,,,,,,,,,,,,,5ebbf5e7aee67702ea450cf2,2020-08-10_18h08.46.133,lexical_decision_task_MP,2020.1.3,MacIntel,60,m,1,0.72186,,,,,,,,0.72186,1,,,,,,227,WORD,"ID",33,seldom,SELDOM,m,,,,,,0.107131076,-0.390980903,0,0,0,,0,348,348,46,1,,
,,,,,,,,,,,,,,,,,,5ebbf5e7aee67702ea450cf2,2020-08-10_18h08.46.133,lexical_decision_task_MP,2020.1.3,MacIntel,60,z,1,0.613735,,,,,,,,0.613735,1,,,,,,333,NW,UN,33,watmeg,CATRIE,z,,,,,,0.107131076,-0.390980903,0,0,0,,0,349,349,392,1,,
,,,,,,,,,,,,,,,,,,5ebbf5e7aee67702ea450cf2,2020-08-10_18h08.46.133,lexical_decision_task_MP,2020.1.3,MacIntel,60,m,1,0.425265,,,,,,,,0.425265,1,,,,,,225,WORD,"ID",33,vulgar,VULGAR,m,,,,,,0.107131076,-0.390980903,0,0,0,,0,350,350,44,1,,
,,,,,,,,,,,,,,,,,,5ebbf5e7aee67702ea450cf2,2020-08-10_18h08.46.133,lexical_decision_task_MP,2020.1.3,MacIntel,60,z,1,0.5918,,,,,,,,0.5918,1,,,,,,328,NW,UN,33,yarike,BROAKE,z,,,,,,0.107131076,-0.390980903,0,0,0,,0,351,351,387,1,,
,,,,,,,,,,,,,,,,,,5ebbf5e7aee67702ea450cf2,2020-08-10_18h08.46.133,lexical_decision_task_MP,2020.1.3,MacIntel,60,z,1,0.69175,,,,,,,,0.69175,1,,,,,,390,NW,UN,50,theldy,HATRUS,z,,,,,,0.107131076,-0.390980903,0,0,0,,0,352,352,449,1,,
,,,,,,,,,,,,,,,,,,5ebbf5e7aee67702ea450cf2,2020-08-10_18h08.46.133,lexical_decision_task_MP,2020.1.3,MacIntel,60,z,1,0.56392,,,,,,,,0.56392,1,,,,,,452,NW,"ID",33,surden,SURDEN,z,,,,,,0.107131076,-0.390980903,0,0,0,,0,353,353,271,1,,
,,,,,,,,,,,,,,,,,,5ebbf5e7aee67702ea450cf2,2020-08-10_18h08.46.133,lexical_decision_task_MP,2020.1.3,MacIntel,60,m,1,0.43283,,,,,,,,0.43283,1,,,,,,42,WORD,"ID",50,chapel,CHAPEL,m,,,,,,0.107131076,-0.390980903,0,0,0,,0,354,354,101,1,,
,,,,,,,,,,,,,,,,,,5ebbf5e7aee67702ea450cf2,2020-08-10_18h08.46.133,lexical_decision_task_MP,2020.1.3,MacIntel,60,m,1,0.49413,,,,,,,,0.49413,1,,,,,,179,WORD,UN,50,silent,BASKET,m,,,,,,0.107131076,-0.390980903,0,0,0,,0,355,355,238,1,,
,,,,,,,,,,,,,,,,,,5ebbf5e7aee67702ea450cf2,2020-08-10_18h08.46.133,lexical_decision_task_MP,2020.1.3,MacIntel,60,m,1,0.497825,,,,,,,,0.497825,1,,,,,,70,WORD,UN,33,garden,SQUARE,m,,,,,,0.107131076,-0.390980903,0,0,0,,0,356,356,129,1,,
,,,,,,,,,,,,,,,,,,5ebbf5e7aee67702ea450cf2,2020-08-10_18h08.46.133,lexical_decision_task_MP,2020.1.3,MacIntel,60,m,1,0.490585,,,,,,,,0.490585,1,,,,,,240,WORD,"ID",33,forest,FOREST,m,,,,,,0.107131076,-0.390980903,0,0,0,,0,357,357,59,1,,
,,,,,,,,,,,,,,,,,,5ebbf5e7aee67702ea450cf2,2020-08-10_18h08.46.133,lexical_decision_task_MP,2020.1.3,MacIntel,60,z,1,0.541115,,,,,,,,0.541115,1,,,,,,343,NW,UN,33,scrily,AIMOSY,z,,,,,,0.107131076,-0.390980903,0,0,0,,0,358,358,402,1,,
,,,,,,,,,,,,,,,,,,5ebbf5e7aee67702ea450cf2,2020-08-10_18h08.46.133,lexical_decision_task_MP,2020.1.3,MacIntel,60,z,1,0.632575,,,,,,,,0.632575,1,,,,,,443,NW,"ID",33,dorsex,DORSEX,z,,,,,,0.107131076,-0.390980903,0,0,0,,0,359,359,262,1,,
,,,,,,,,,,,,,,,,,,5ebbf5e7aee67702ea450cf2,2020-08-10_18h08.46.133,lexical_decision_task_MP,2020.1.3,MacIntel,60,z,1,0.547875,,,,,,,,0.547875,1,,,,,,301,NW,UN,33,miluer,FAINCH,z,,,,,,0.107131076,-0.390980903,0,0,0,,0,360,360,360,1,,
,,,,,,,,,,,,,,,,,,5ebbf5e7aee67702ea450cf2,2020-08-10_18h08.46.133,lexical_decision_task_MP,2020.1.3,MacIntel,60,m,1,0.6224,,,,,,,,0.6224,1,,,,,,72,WORD,UN,33,source,BRIGHT,m,,,,,,0.107131076,-0.390980903,0,0,0,,0,361,361,131,1,,
,,,,,,,,,,,,,,,,,,5ebbf5e7aee67702ea450cf2,2020-08-10_18h08.46.133,lexical_decision_task_MP,2020.1.3,MacIntel,60,z,1,0.541635,,,,,,,,0.541635,1,,,,,,400,NW,UN,50,mustil,WEAROX,z,,,,,,0.107131076,-0.390980903,0,0,0,space,0,362,362,459,1,,84.302905
,,,,,,,,,,,,,,,,,,5ebbf5e7aee67702ea450cf2,2020-08-10_18h08.46.133,lexical_decision_task_MP,2020.1.3,MacIntel,60,z,1,0.479965,,,,,,,,0.479965,1,,,,,,300,NW,"ID",50,yarion,YARION,z,,,,,,0.107131076,-0.390980903,0,0,0,,0,363,363,359,1,,
,,,,,,,,,,,,,,,,,,5ebbf5e7aee67702ea450cf2,2020-08-10_18h08.46.133,lexical_decision_task_MP,2020.1.3,MacIntel,60,z,1,0.511695,,,,,,,,0.511695,1,,,,,,280,NW,"ID",50,curbol,CURBOL,z,,,,,,0.107131076,-0.390980903,0,0,0,,0,364,364,339,1,,
,,,,,,,,,,,,,,,,,,5ebbf5e7aee67702ea450cf2,2020-08-10_18h08.46.133,lexical_decision_task_MP,2020.1.3,MacIntel,60,z,1,0.657535,,,,,,,,0.657535,1,,,,,,291,NW,"ID",50,pretch,PRETCH,z,,,,,,0.107131076,-0.390980903,0,0,0,,0,365,365,350,1,,
,,,,,,,,,,,,,,,,,,5ebbf5e7aee67702ea450cf2,2020-08-10_18h08.46.133,lexical_decision_task_MP,2020.1.3,MacIntel,60,m,1,0.471335,,,,,,,,0.471335,1,,,,,,95,WORD,UN,33,ignore,THREAD,m,,,,,,0.107131076,-0.390980903,0,0,0,,0,366,366,154,1,,
,,,,,,,,,,,,,,,,,,5ebbf5e7aee67702ea450cf2,2020-08-10_18h08.46.133,lexical_decision_task_MP,2020.1.3,MacIntel,60,m,1,0.44981,,,,,,,,0.44981,1,,,,,,137,WORD,UN,50,melody,FINGER,m,,,,,,0.107131076,-0.390980903,0,0,0,,0,367,367,196,1,,
,,,,,,,,,,,,,,,,,,5ebbf5e7aee67702ea450cf2,2020-08-10_18h08.46.133,lexical_decision_task_MP,2020.1.3,MacIntel,60,z,1,0.51315,,,,,,,,0.51315,1,,,,,,458,NW,"ID",33,barcet,BARCET,z,,,,,,0.107131076,-0.390980903,0,0,0,,0,368,368,277,1,,
,,,,,,,,,,,,,,,,,,5ebbf5e7aee67702ea450cf2,2020-08-10_18h08.46.133,lexical_decision_task_MP,2020.1.3,MacIntel,60,z,1,0.513845,,,,,,,,0.513845,1,,,,,,404,NW,UN,50,flumni,CLUIRM,z,,,,,,0.107131076,-0.390980903,0,0,0,,0,369,369,463,1,,
,,,,,,,,,,,,,,,,,,5ebbf5e7aee67702ea450cf2,2020-08-10_18h08.46.133,lexical_decision_task_MP,2020.1.3,MacIntel,60,m,1,0.518465,,,,,,,,0.518465,1,,,,,,168,WORD,UN,50,genius,ANSWER,m,,,,,,0.107131076,-0.390980903,0,0,0,,0,370,370,227,1,,
,,,,,,,,,,,,,,,,,,5ebbf5e7aee67702ea450cf2,2020-08-10_18h08.46.133,lexical_decision_task_MP,2020.1.3,MacIntel,60,z,1,0.4774,,,,,,,,0.4774,1,,,,,,447,NW,"ID",33,gircue,GIRCUE,z,,,,,,0.107131076,-0.390980903,0,0,0,,0,371,371,266,1,,
,,,,,,,,,,,,,,,,,,5ebbf5e7aee67702ea450cf2,2020-08-10_18h08.46.133,lexical_decision_task_MP,2020.1.3,MacIntel,60,z,1,0.43526,,,,,,,,0.43526,1,,,,,,434,NW,"ID",33,pitrom,PITROM,z,,,,,,0.107131076,-0.390980903,0,0,0,,0,372,372,253,1,,
,,,,,,,,,,,,,,,,,,5ebbf5e7aee67702ea450cf2,2020-08-10_18h08.46.133,lexical_decision_task_MP,2020.1.3,MacIntel,60,z,1,0.509155,,,,,,,,0.509155,1,,,,,,359,NW,UN,33,desory,FONVER,z,,,,,,0.107131076,-0.390980903,0,0,0,,0,373,373,418,1,,
,,,,,,,,,,,,,,,,,,5ebbf5e7aee67702ea450cf2,2020-08-10_18h08.46.133,lexical_decision_task_MP,2020.1.3,MacIntel,60,m,1,0.564395,,,,,,,,0.564395,1,,,,,,106,WORD,UN,33,slogan,RANSOM,m,,,,,,0.107131076,-0.390980903,0,0,0,,0,374,374,165,1,,
,,,,,,,,,,,,,,,,,,5ebbf5e7aee67702ea450cf2,2020-08-10_18h08.46.133,lexical_decision_task_MP,2020.1.3,MacIntel,60,m,1,0.50679,,,,,,,,0.50679,1,,,,,,147,WORD,UN,50,custom,GARLIC,m,,,,,,0.107131076,-0.390980903,0,0,0,,0,375,375,206,1,,
,,,,,,,,,,,,,,,,,,5ebbf5e7aee67702ea450cf2,2020-08-10_18h08.46.133,lexical_decision_task_MP,2020.1.3,MacIntel,60,m,1,0.63753,,,,,,,,0.63753,1,,,,,,102,WORD,UN,33,bounce,DIRECT,m,,,,,,0.107131076,-0.390980903,0,0,0,,0,376,376,161,1,,
,,,,,,,,,,,,,,,,,,5ebbf5e7aee67702ea450cf2,2020-08-10_18h08.46.133,lexical_decision_task_MP,2020.1.3,MacIntel,60,m,1,0.481885,,,,,,,,0.481885,1,,,,,,51,WORD,"ID",50,hungry,HUNGRY,m,,,,,,0.107131076,-0.390980903,0,0,0,,0,377,377,110,1,,
,,,,,,,,,,,,,,,,,,5ebbf5e7aee67702ea450cf2,2020-08-10_18h08.46.133,lexical_decision_task_MP,2020.1.3,MacIntel,60,z,1,0.571615,,,,,,,,0.571615,1,,,,,,351,NW,UN,33,tringe,TIESCH,z,,,,,,0.107131076,-0.390980903,0,0,0,,0,378,378,410,1,,
,,,,,,,,,,,,,,,,,,5ebbf5e7aee67702ea450cf2,2020-08-10_18h08.46.133,lexical_decision_task_MP,2020.1.3,MacIntel,60,m,1,0.453835,,,,,,,,0.453835,1,,,,,,218,WORD,"ID",33,shrink,SHRINK,m,,,,,,0.107131076,-0.390980903,0,0,0,,0,379,379,37,1,,
,,,,,,,,,,,,,,,,,,5ebbf5e7aee67702ea450cf2,2020-08-10_18h08.46.133,lexical_decision_task_MP,2020.1.3,MacIntel,60,z,1,0.678585,,,,,,,,0.678585,1,,,,,,426,NW,"ID",33,urivel,URIVEL,z,,,,,,0.107131076,-0.390980903,0,0,0,,0,380,380,245,1,,
,,,,,,,,,,,,,,,,,,5ebbf5e7aee67702ea450cf2,2020-08-10_18h08.46.133,lexical_decision_task_MP,2020.1.3,MacIntel,60,m,1,0.435275,,,,,,,,0.435275,1,,,,,,205,WORD,"ID",33,lounge,LOUNGE,m,,,,,,0.107131076,-0.390980903,0,0,0,,0,381,381,24,1,,
,,,,,,,,,,,,,,,,,,5ebbf5e7aee67702ea450cf2,2020-08-10_18h08.46.133,lexical_decision_task_MP,2020.1.3,MacIntel,60,z,1,0.469665,,,,,,,,0.469665,1,,,,,,427,NW,"ID",33,schind,SCHIND,z,,,,,,0.107131076,-0.390980903,0,0,0,,0,382,382,246,1,,
,,,,,,,,,,,,,,,,,,5ebbf5e7aee67702ea450cf2,2020-08-10_18h08.46.133,lexical_decision_task_MP,2020.1.3,MacIntel,60,z,1,0.48178,,,,,,,,0.48178,1,,,,,,472,NW,"ID",33,cigney,CIGNEY,z,,,,,,0.107131076,-0.390980903,0,0,0,,0,383,383,291,1,,
,,,,,,,,,,,,,,,,,,5ebbf5e7aee67702ea450cf2,2020-08-10_18h08.46.133,lexical_decision_task_MP,2020.1.3,MacIntel,60,m,1,0.492905,,,,,,,,0.492905,1,,,,,,216,WORD,"ID",33,behalf,BEHALF,m,,,,,,0.107131076,-0.390980903,0,0,0,,0,384,384,35,1,,
,,,,,,,,,,,,,,,,,,5ebbf5e7aee67702ea450cf2,2020-08-10_18h08.46.133,lexical_decision_task_MP,2020.1.3,MacIntel,60,z,1,0.50725,,,,,,,,0.50725,1,,,,,,456,NW,"ID",33,broget,BROGET,z,,,,,,0.107131076,-0.390980903,0,0,0,,0,385,385,275,1,,
,,,,,,,,,,,,,,,,,,5ebbf5e7aee67702ea450cf2,2020-08-10_18h08.46.133,lexical_decision_task_MP,2020.1.3,MacIntel,60,z,1,0.56532,,,,,,,,0.56532,1,,,,,,451,NW,"ID",33,cainky,CAINKY,z,,,,,,0.107131076,-0.390980903,0,0,0,,0,386,386,270,1,,
,,,,,,,,,,,,,,,,,,5ebbf5e7aee67702ea450cf2,2020-08-10_18h08.46.133,lexical_decision_task_MP,2020.1.3,MacIntel,60,m,1,0.53481,,,,,,,,0.53481,1,,,,,,66,WORD,UN,33,policy,GOSPEL,m,,,,,,0.107131076,-0.390980903,0,0,0,,0,387,387,125,1,,
,,,,,,,,,,,,,,,,,,5ebbf5e7aee67702ea450cf2,2020-08-10_18h08.46.133,lexical_decision_task_MP,2020.1.3,MacIntel,60,z,1,0.861915,,,,,,,,0.861915,1,,,,,,476,NW,"ID",33,josted,JOSTED,z,,,,,,0.107131076,-0.390980903,0,0,0,,0,388,388,295,1,,
,,,,,,,,,,,,,,,,,,5ebbf5e7aee67702ea450cf2,2020-08-10_18h08.46.133,lexical_decision_task_MP,2020.1.3,MacIntel,60,z,0,0.63738,,,,,,,,0.63738,0,,,,,,107,WORD,UN,33,reckon,SLOGAN,m,,,,,,0.107131076,-0.390980903,0,0,0,,0,389,389,166,1,,
,,,,,,,,,,,,,,,,,,5ebbf5e7aee67702ea450cf2,2020-08-10_18h08.46.133,lexical_decision_task_MP,2020.1.3,MacIntel,60,m,1,0.423675,,,,,,,,0.423675,1,,,,,,21,WORD,"ID",50,simple,SIMPLE,m,,,,,,0.107131076,-0.390980903,0,0,0,,0,390,390,80,1,,
,,,,,,,,,,,,,,,,,,5ebbf5e7aee67702ea450cf2,2020-08-10_18h08.46.133,lexical_decision_task_MP,2020.1.3,MacIntel,60,m,1,0.552185,,,,,,,,0.552185,1,,,,,,155,WORD,UN,50,cradle,LIZARD,m,,,,,,0.107131076,-0.390980903,0,0,0,,0,391,391,214,1,,
,,,,,,,,,,,,,,,,,,5ebbf5e7aee67702ea450cf2,2020-08-10_18h08.46.133,lexical_decision_task_MP,2020.1.3,MacIntel,60,m,1,0.47436,,,,,,,,0.47436,1,,,,,,184,WORD,"ID",33,sleazy,SLEAZY,m,,,,,,0.107131076,-0.390980903,0,0,0,,0,392,392,3,1,,
,,,,,,,,,,,,,,,,,,5ebbf5e7aee67702ea450cf2,2020-08-10_18h08.46.133,lexical_decision_task_MP,2020.1.3,MacIntel,60,m,1,0.40037,,,,,,,,0.40037,1,,,,,,31,WORD,"ID",50,weapon,WEAPON,m,,,,,,0.107131076,-0.390980903,0,0,0,,0,393,393,90,1,,
,,,,,,,,,,,,,,,,,,5ebbf5e7aee67702ea450cf2,2020-08-10_18h08.46.133,lexical_decision_task_MP,2020.1.3,MacIntel,60,m,1,0.44106,,,,,,,,0.44106,1,,,,,,132,WORD,UN,50,orphan,STRONG,m,,,,,,0.107131076,-0.390980903,0,0,0,,0,394,394,191,1,,
,,,,,,,,,,,,,,,,,,5ebbf5e7aee67702ea450cf2,2020-08-10_18h08.46.133,lexical_decision_task_MP,2020.1.3,MacIntel,60,z,1,0.44979,,,,,,,,0.44979,1,,,,,,283,NW,"ID",50,veralf,VERALF,z,,,,,,0.107131076,-0.390980903,0,0,0,,0,395,395,342,1,,
,,,,,,,,,,,,,,,,,,5ebbf5e7aee67702ea450cf2,2020-08-10_18h08.46.133,lexical_decision_task_MP,2020.1.3,MacIntel,60,z,1,0.40567,,,,,,,,0.40567,1,,,,,,468,NW,"ID",33,wictor,WICTOR,z,,,,,,0.107131076,-0.390980903,0,0,0,,0,396,396,287,1,,
