counterbalancing_condition,instr_done_keyboard.keys,instr_done_keyboard.rt,instr_done_touch.x,instr_done_touch.y,instr_done_touch.leftButton,instr_done_touch.midButton,instr_done_touch.rightButton,instruction_pages.thisRepN,instruction_pages.thisTrialN,instruction_pages.thisN,instruction_pages.thisIndex,instruction_pages.ran,pageN,phase,instruct_text,has_image,instruct_image,participant,date,expName,psychopyVersion,OS,frameRate,response.keys,response.corr,response.rt,touch_resp.x,touch_resp.y,touch_resp.leftButton,touch_resp.midButton,touch_resp.rightButton,touch_resp.time,touch_resp.clicked_name,rt,corr,practice_trials.thisRepN,practice_trials.thisTrialN,practice_trials.thisN,practice_trials.thisIndex,practice_trials.ran,TrialID,StimulusType,Condition,PrimeDuration,Prime,Target,corrAns,end_of_practice_trials_pages.thisRepN,end_of_practice_trials_pages.thisTrialN,end_of_practice_trials_pages.thisN,end_of_practice_trials_pages.thisIndex,end_of_practice_trials_pages.ran,break_done_touch.x,break_done_touch.y,break_done_touch.leftButton,break_done_touch.midButton,break_done_touch.rightButton,break_done_keyboard.keys,trials.thisRepN,trials.thisTrialN,trials.thisN,trials.thisIndex,trials.ran,break_done_keyboard.rt
3,space,13.04937,0.128703719,-0.177777844,0,0,0,0,0,0,0,1,1,instructions,"INSTRUCTIONS
At the start of each trial, look at the hash marks (######) in the center of the screen. After a moment, a string of letters will appear. Your task is to indicate if the letter string forms a word or not (i.e., if it is a nonword). For example, AUTHOR is a word while AUTHON is a nonword.

Press the space bar or touch the button below to continue.",0,,5ebf22d18258381b86086132,2020-08-10_17h47.02.780,lexical_decision_task_MP,2020.1.3,Win32,60,,,,,,,,,,,,,,,,,,,,,,,,,,,,,,,,,,,,,,,,,
,space,8.88604,0.128703719,-0.177777844,0,0,0,0,1,1,1,1,2,instructions,"If your device has a keyboard, press the 'Z' key for nonwords and the 'M' key for words.





Press the space bar or touch the button below to continue.",1,keyboard-example.gif,5ebf22d18258381b86086132,2020-08-10_17h47.02.780,lexical_decision_task_MP,2020.1.3,Win32,60,,,,,,,,,,,,,,,,,,,,,,,,,,,,,,,,,,,,,,,,,
,space,2.952005,0.128703719,-0.177777844,0,0,0,0,2,2,2,1,3,instructions,"If you are using a touchscreen only device, use the buttons on the screen. Do not use the mouse.





Press the space bar or touch the button below to continue.",1,touchscreen-example.gif,5ebf22d18258381b86086132,2020-08-10_17h47.02.780,lexical_decision_task_MP,2020.1.3,Win32,60,,,,,,,,,,,,,,,,,,,,,,,,,,,,,,,,,,,,,,,,,
,space,5.91675,0.128703719,-0.177777844,0,0,0,0,3,3,3,1,4,instructions,"It is very important that you respond as quickly and accurately as possible, as each letter string will only be on the screen for two seconds. If you do not respond within this time, the message 'Too slow!' will be displayed and the experiment will progress to the next letter string. The first 20 trials will be practice trials and you will receive feedback on your answers. 

Press the space bar or touch the button below to start the practice trials.",0,,5ebf22d18258381b86086132,2020-08-10_17h47.02.780,lexical_decision_task_MP,2020.1.3,Win32,60,,,,,,,,,,,,,,,,,,,,,,,,,,,,,,,,,,,,,,,,,
,,,,,,,,,,,,,,,,,,5ebf22d18258381b86086132,2020-08-10_17h47.02.780,lexical_decision_task_MP,2020.1.3,Win32,60,m,1,1.62561,,,,,,,,1.62561,1,0,0,0,7,1,1008,WORD,UN,50,hurdle,VOLUME,m,,,,,,,,,,,,,,,,,
,,,,,,,,,,,,,,,,,,5ebf22d18258381b86086132,2020-08-10_17h47.02.780,lexical_decision_task_MP,2020.1.3,Win32,60,z,1,1.1218,,,,,,,,1.1218,1,0,1,1,9,1,1010,NW,"ID",33,fariny,FARINY,z,,,,,,,,,,,,,,,,,
,,,,,,,,,,,,,,,,,,5ebf22d18258381b86086132,2020-08-10_17h47.02.780,lexical_decision_task_MP,2020.1.3,Win32,60,z,1,1.18045,,,,,,,,1.18045,1,0,2,2,14,1,1015,NW,UN,50,miaber,THRALE,z,,,,,,,,,,,,,,,,,
,,,,,,,,,,,,,,,,,,5ebf22d18258381b86086132,2020-08-10_17h47.02.780,lexical_decision_task_MP,2020.1.3,Win32,60,m,1,0.863785,,,,,,,,0.863785,1,0,3,3,5,1,1006,WORD,UN,33,frenzy,OBTAIN,m,,,,,,,,,,,,,,,,,
,,,,,,,,,,,,,,,,,,5ebf22d18258381b86086132,2020-08-10_17h47.02.780,lexical_decision_task_MP,2020.1.3,Win32,60,z,1,1.061235,,,,,,,,1.061235,1,0,4,4,12,1,1013,NW,UN,33,adveil,SPRINY,z,,,,,,,,,,,,,,,,,
,,,,,,,,,,,,,,,,,,5ebf22d18258381b86086132,2020-08-10_17h47.02.780,lexical_decision_task_MP,2020.1.3,Win32,60,m,0,1.347075,,,,,,,,1.347075,0,0,5,5,8,1,1009,NW,"ID",33,aslert,ASLERT,z,,,,,,,,,,,,,,,,,
,,,,,,,,,,,,,,,,,,5ebf22d18258381b86086132,2020-08-10_17h47.02.780,lexical_decision_task_MP,2020.1.3,Win32,60,m,1,0.55136,,,,,,,,0.55136,1,0,6,6,6,1,1007,WORD,UN,50,tropic,ZOMBIE,m,,,,,,,,,,,,,,,,,
,,,,,,,,,,,,,,,,,,5ebf22d18258381b86086132,2020-08-10_17h47.02.780,lexical_decision_task_MP,2020.1.3,Win32,60,z,0,1.848695,,,,,,,,1.848695,0,0,7,7,0,1,1001,WORD,"ID",33,utopia,UTOPIA,m,,,,,,,,,,,,,,,,,
,,,,,,,,,,,,,,,,,,5ebf22d18258381b86086132,2020-08-10_17h47.02.780,lexical_decision_task_MP,2020.1.3,Win32,60,z,1,0.81205,,,,,,,,0.81205,1,0,8,8,10,1,1011,NW,"ID",50,inlade,INLADE,z,,,,,,,,,,,,,,,,,
,,,,,,,,,,,,,,,,,,5ebf22d18258381b86086132,2020-08-10_17h47.02.780,lexical_decision_task_MP,2020.1.3,Win32,60,m,1,1.08258,,,,,,,,1.08258,1,0,9,9,1,1,1002,WORD,"ID",33,adjust,ADJUST,m,,,,,,,,,,,,,,,,,
,,,,,,,,,,,,,,,,,,5ebf22d18258381b86086132,2020-08-10_17h47.02.780,lexical_decision_task_MP,2020.1.3,Win32,60,z,1,1.046315,,,,,,,,1.046315,1,0,10,10,11,1,1012,NW,"ID",50,rashet,RASHET,z,,,,,,,,,,,,,,,,,
,,,,,,,,,,,,,,,,,,5ebf22d18258381b86086132,2020-08-10_17h47.02.780,lexical_decision_task_MP,2020.1.3,Win32,60,m,1,0.789065,,,,,,,,0.789065,1,0,11,11,2,1,1003,WORD,"ID",50,almond,ALMOND,m,,,,,,,,,,,,,,,,,
,,,,,,,,,,,,,,,,,,5ebf22d18258381b86086132,2020-08-10_17h47.02.780,lexical_decision_task_MP,2020.1.3,Win32,60,z,1,1.031735,,,,,,,,1.031735,1,0,12,12,15,1,1016,NW,UN,50,mushed,WHAISE,z,,,,,,,,,,,,,,,,,
,,,,,,,,,,,,,,,,,,5ebf22d18258381b86086132,2020-08-10_17h47.02.780,lexical_decision_task_MP,2020.1.3,Win32,60,z,1,0.79724,,,,,,,,0.79724,1,0,13,13,13,1,1014,NW,UN,33,winfer,ROUPET,z,,,,,,,,,,,,,,,,,
,,,,,,,,,,,,,,,,,,5ebf22d18258381b86086132,2020-08-10_17h47.02.780,lexical_decision_task_MP,2020.1.3,Win32,60,m,1,0.71231,,,,,,,,0.71231,1,0,14,14,4,1,1005,WORD,UN,33,abound,SQUEAK,m,,,,,,,,,,,,,,,,,
,,,,,,,,,,,,,,,,,,5ebf22d18258381b86086132,2020-08-10_17h47.02.780,lexical_decision_task_MP,2020.1.3,Win32,60,m,1,0.91189,,,,,,,,0.91189,1,0,15,15,3,1,1004,WORD,"ID",50,matrix,MATRIX,m,,,,,,,,,,,,,,,,,
,space,30.771995,0.128703719,-0.177777844,0,0,0,,,,,,1,end_of_practice,"You have completed the practice trials. During the experimental trials, you will not receive feedback, but it is very important that you respond as quickly and accurately as possible. 
Before you begin, please ensure that you are in a comfortable and quiet location and will not be disturbed for about 15 minutes, as we cannot use your data if you do not complete all the trials. 
There will be opportunities to take breaks at regular intervals during the experiment. When you are ready to start the experimental trials, please press space or touch the button below.",,,5ebf22d18258381b86086132,2020-08-10_17h47.02.780,lexical_decision_task_MP,2020.1.3,Win32,60,,,,,,,,,,,,,,,,,,,,,,,,,0,0,0,0,1,,,,,,,,,,,,
,,,,,,,,,,,,,,,,,,5ebf22d18258381b86086132,2020-08-10_17h47.02.780,lexical_decision_task_MP,2020.1.3,Win32,60,m,1,1.2196,,,,,,,,1.2196,1,,,,,,33,WORD,UN,50,jungle,BUTLER,m,,,,,,0.128703719,-0.177777844,0,0,0,,0,0,0,212,1,
,,,,,,,,,,,,,,,,,,5ebf22d18258381b86086132,2020-08-10_17h47.02.780,lexical_decision_task_MP,2020.1.3,Win32,60,m,1,0.654365,,,,,,,,0.654365,1,,,,,,104,WORD,"ID",33,studio,STUDIO,m,,,,,,0.128703719,-0.177777844,0,0,0,,0,1,1,43,1,
,,,,,,,,,,,,,,,,,,5ebf22d18258381b86086132,2020-08-10_17h47.02.780,lexical_decision_task_MP,2020.1.3,Win32,60,z,1,1.03101,,,,,,,,1.03101,1,,,,,,244,NW,UN,50,anougs,EATRIC,z,,,,,,0.128703719,-0.177777844,0,0,0,,0,2,2,423,1,
,,,,,,,,,,,,,,,,,,5ebf22d18258381b86086132,2020-08-10_17h47.02.780,lexical_decision_task_MP,2020.1.3,Win32,60,m,1,0.64006,,,,,,,,0.64006,1,,,,,,2,WORD,UN,50,knight,BRIDGE,m,,,,,,0.128703719,-0.177777844,0,0,0,,0,3,3,181,1,
,,,,,,,,,,,,,,,,,,5ebf22d18258381b86086132,2020-08-10_17h47.02.780,lexical_decision_task_MP,2020.1.3,Win32,60,m,1,0.681395,,,,,,,,0.681395,1,,,,,,112,WORD,"ID",33,breath,BREATH,m,,,,,,0.128703719,-0.177777844,0,0,0,,0,4,4,51,1,
,,,,,,,,,,,,,,,,,,5ebf22d18258381b86086132,2020-08-10_17h47.02.780,lexical_decision_task_MP,2020.1.3,Win32,60,z,1,0.764865,,,,,,,,0.764865,1,,,,,,459,NW,UN,33,mingar,BAFENT,z,,,,,,0.128703719,-0.177777844,0,0,0,,0,5,5,398,1,
,,,,,,,,,,,,,,,,,,5ebf22d18258381b86086132,2020-08-10_17h47.02.780,lexical_decision_task_MP,2020.1.3,Win32,60,z,1,0.747895,,,,,,,,0.747895,1,,,,,,347,NW,"ID",33,kerift,KERIFT,z,,,,,,0.128703719,-0.177777844,0,0,0,,0,6,6,286,1,
,,,,,,,,,,,,,,,,,,5ebf22d18258381b86086132,2020-08-10_17h47.02.780,lexical_decision_task_MP,2020.1.3,Win32,60,z,1,0.99811,,,,,,,,0.99811,1,,,,,,332,NW,"ID",33,vangue,VANGUE,z,,,,,,0.128703719,-0.177777844,0,0,0,,0,7,7,271,1,
,,,,,,,,,,,,,,,,,,5ebf22d18258381b86086132,2020-08-10_17h47.02.780,lexical_decision_task_MP,2020.1.3,Win32,60,m,1,0.730665,,,,,,,,0.730665,1,,,,,,111,WORD,"ID",33,induce,INDUCE,m,,,,,,0.128703719,-0.177777844,0,0,0,,0,8,8,50,1,
,,,,,,,,,,,,,,,,,,5ebf22d18258381b86086132,2020-08-10_17h47.02.780,lexical_decision_task_MP,2020.1.3,Win32,60,m,1,0.581385,,,,,,,,0.581385,1,,,,,,12,WORD,UN,50,strive,ORANGE,m,,,,,,0.128703719,-0.177777844,0,0,0,,0,9,9,191,1,
,,,,,,,,,,,,,,,,,,5ebf22d18258381b86086132,2020-08-10_17h47.02.780,lexical_decision_task_MP,2020.1.3,Win32,60,z,1,0.814435,,,,,,,,0.814435,1,,,,,,257,NW,UN,50,poluth,VENIOD,z,,,,,,0.128703719,-0.177777844,0,0,0,,0,10,10,436,1,
,,,,,,,,,,,,,,,,,,5ebf22d18258381b86086132,2020-08-10_17h47.02.780,lexical_decision_task_MP,2020.1.3,Win32,60,z,1,0.98146,,,,,,,,0.98146,1,,,,,,318,NW,"ID",33,reagly,REAGLY,z,,,,,,0.128703719,-0.177777844,0,0,0,,0,11,11,257,1,
,,,,,,,,,,,,,,,,,,5ebf22d18258381b86086132,2020-08-10_17h47.02.780,lexical_decision_task_MP,2020.1.3,Win32,60,m,1,0.58136,,,,,,,,0.58136,1,,,,,,135,WORD,"ID",50,import,IMPORT,m,,,,,,0.128703719,-0.177777844,0,0,0,,0,12,12,74,1,
,,,,,,,,,,,,,,,,,,5ebf22d18258381b86086132,2020-08-10_17h47.02.780,lexical_decision_task_MP,2020.1.3,Win32,60,m,1,0.639705,,,,,,,,0.639705,1,,,,,,70,WORD,"ID",33,square,SQUARE,m,,,,,,0.128703719,-0.177777844,0,0,0,,0,13,13,9,1,
,,,,,,,,,,,,,,,,,,5ebf22d18258381b86086132,2020-08-10_17h47.02.780,lexical_decision_task_MP,2020.1.3,Win32,60,z,1,0.671555,,,,,,,,0.671555,1,,,,,,447,NW,UN,33,sadent,GIRCUE,z,,,,,,0.128703719,-0.177777844,0,0,0,,0,14,14,386,1,
,,,,,,,,,,,,,,,,,,5ebf22d18258381b86086132,2020-08-10_17h47.02.780,lexical_decision_task_MP,2020.1.3,Win32,60,z,1,1.15509,,,,,,,,1.15509,1,,,,,,355,NW,"ID",33,zingly,ZINGLY,z,,,,,,0.128703719,-0.177777844,0,0,0,,0,15,15,294,1,
,,,,,,,,,,,,,,,,,,5ebf22d18258381b86086132,2020-08-10_17h47.02.780,lexical_decision_task_MP,2020.1.3,Win32,60,z,1,0.73122,,,,,,,,0.73122,1,,,,,,453,NW,UN,33,scouge,BOLVIS,z,,,,,,0.128703719,-0.177777844,0,0,0,,0,16,16,392,1,
,,,,,,,,,,,,,,,,,,5ebf22d18258381b86086132,2020-08-10_17h47.02.780,lexical_decision_task_MP,2020.1.3,Win32,60,m,1,0.83347,,,,,,,,0.83347,1,,,,,,184,WORD,UN,33,bother,SLEAZY,m,,,,,,0.128703719,-0.177777844,0,0,0,,0,17,17,123,1,
,,,,,,,,,,,,,,,,,,5ebf22d18258381b86086132,2020-08-10_17h47.02.780,lexical_decision_task_MP,2020.1.3,Win32,60,z,1,0.72175,,,,,,,,0.72175,1,,,,,,354,NW,"ID",33,virlex,VIRLEX,z,,,,,,0.128703719,-0.177777844,0,0,0,,0,18,18,293,1,
,,,,,,,,,,,,,,,,,,5ebf22d18258381b86086132,2020-08-10_17h47.02.780,lexical_decision_task_MP,2020.1.3,Win32,60,z,1,0.67447,,,,,,,,0.67447,1,,,,,,415,NW,"ID",50,higsta,HIGSTA,z,,,,,,0.128703719,-0.177777844,0,0,0,,0,19,19,354,1,
,,,,,,,,,,,,,,,,,,5ebf22d18258381b86086132,2020-08-10_17h47.02.780,lexical_decision_task_MP,2020.1.3,Win32,60,m,1,0.76502,,,,,,,,0.76502,1,,,,,,218,WORD,UN,33,bucket,SHRINK,m,,,,,,0.128703719,-0.177777844,0,0,0,,0,20,20,157,1,
,,,,,,,,,,,,,,,,,,5ebf22d18258381b86086132,2020-08-10_17h47.02.780,lexical_decision_task_MP,2020.1.3,Win32,60,z,1,0.771475,,,,,,,,0.771475,1,,,,,,422,NW,UN,33,streld,ALCOUD,z,,,,,,0.128703719,-0.177777844,0,0,0,,0,21,21,361,1,
,,,,,,,,,,,,,,,,,,5ebf22d18258381b86086132,2020-08-10_17h47.02.780,lexical_decision_task_MP,2020.1.3,Win32,60,m,1,0.715415,,,,,,,,0.715415,1,,,,,,195,WORD,UN,33,credit,RESIGN,m,,,,,,0.128703719,-0.177777844,0,0,0,,0,22,22,134,1,
,,,,,,,,,,,,,,,,,,5ebf22d18258381b86086132,2020-08-10_17h47.02.780,lexical_decision_task_MP,2020.1.3,Win32,60,m,1,0.983825,,,,,,,,0.983825,1,,,,,,54,WORD,UN,50,stroke,RAMBLE,m,,,,,,0.128703719,-0.177777844,0,0,0,,0,23,23,233,1,
,,,,,,,,,,,,,,,,,,5ebf22d18258381b86086132,2020-08-10_17h47.02.780,lexical_decision_task_MP,2020.1.3,Win32,60,m,1,0.60112,,,,,,,,0.60112,1,,,,,,119,WORD,"ID",33,spider,SPIDER,m,,,,,,0.128703719,-0.177777844,0,0,0,,0,24,24,58,1,
,,,,,,,,,,,,,,,,,,5ebf22d18258381b86086132,2020-08-10_17h47.02.780,lexical_decision_task_MP,2020.1.3,Win32,60,m,1,0.649945,,,,,,,,0.649945,1,,,,,,127,WORD,"ID",50,castle,CASTLE,m,,,,,,0.128703719,-0.177777844,0,0,0,,0,25,25,66,1,
,,,,,,,,,,,,,,,,,,5ebf22d18258381b86086132,2020-08-10_17h47.02.780,lexical_decision_task_MP,2020.1.3,Win32,60,z,1,0.65776,,,,,,,,0.65776,1,,,,,,383,NW,"ID",50,aungre,AUNGRE,z,,,,,,0.128703719,-0.177777844,0,0,0,,0,26,26,322,1,
,,,,,,,,,,,,,,,,,,5ebf22d18258381b86086132,2020-08-10_17h47.02.780,lexical_decision_task_MP,2020.1.3,Win32,60,z,1,0.92181,,,,,,,,0.92181,1,,,,,,343,NW,"ID",33,aimosy,AIMOSY,z,,,,,,0.128703719,-0.177777844,0,0,0,,0,27,27,282,1,
,,,,,,,,,,,,,,,,,,5ebf22d18258381b86086132,2020-08-10_17h47.02.780,lexical_decision_task_MP,2020.1.3,Win32,60,z,1,0.73808,,,,,,,,0.73808,1,,,,,,327,NW,"ID",33,plenac,PLENAC,z,,,,,,0.128703719,-0.177777844,0,0,0,,0,28,28,266,1,
,,,,,,,,,,,,,,,,,,5ebf22d18258381b86086132,2020-08-10_17h47.02.780,lexical_decision_task_MP,2020.1.3,Win32,60,z,1,1.065215,,,,,,,,1.065215,1,,,,,,382,NW,"ID",50,sarley,SARLEY,z,,,,,,0.128703719,-0.177777844,0,0,0,,0,29,29,321,1,
,,,,,,,,,,,,,,,,,,5ebf22d18258381b86086132,2020-08-10_17h47.02.780,lexical_decision_task_MP,2020.1.3,Win32,60,m,1,0.548275,,,,,,,,0.548275,1,,,,,,88,WORD,"ID",33,hunger,HUNGER,m,,,,,,0.128703719,-0.177777844,0,0,0,,0,30,30,27,1,
,,,,,,,,,,,,,,,,,,5ebf22d18258381b86086132,2020-08-10_17h47.02.780,lexical_decision_task_MP,2020.1.3,Win32,60,m,1,0.48809,,,,,,,,0.48809,1,,,,,,130,WORD,"ID",50,stupid,STUPID,m,,,,,,0.128703719,-0.177777844,0,0,0,,0,31,31,69,1,
,,,,,,,,,,,,,,,,,,5ebf22d18258381b86086132,2020-08-10_17h47.02.780,lexical_decision_task_MP,2020.1.3,Win32,60,z,1,0.63088,,,,,,,,0.63088,1,,,,,,474,NW,UN,33,acrise,HABLIN,z,,,,,,0.128703719,-0.177777844,0,0,0,,0,32,32,413,1,
,,,,,,,,,,,,,,,,,,5ebf22d18258381b86086132,2020-08-10_17h47.02.780,lexical_decision_task_MP,2020.1.3,Win32,60,z,1,1.01494,,,,,,,,1.01494,1,,,,,,313,NW,"ID",33,paurse,PAURSE,z,,,,,,0.128703719,-0.177777844,0,0,0,,0,33,33,252,1,
,,,,,,,,,,,,,,,,,,5ebf22d18258381b86086132,2020-08-10_17h47.02.780,lexical_decision_task_MP,2020.1.3,Win32,60,z,1,1.49848,,,,,,,,1.49848,1,,,,,,261,NW,UN,50,quilew,STUNCH,z,,,,,,0.128703719,-0.177777844,0,0,0,,0,34,34,440,1,
,,,,,,,,,,,,,,,,,,5ebf22d18258381b86086132,2020-08-10_17h47.02.780,lexical_decision_task_MP,2020.1.3,Win32,60,m,1,0.451965,,,,,,,,0.451965,1,,,,,,205,WORD,UN,33,tailor,LOUNGE,m,,,,,,0.128703719,-0.177777844,0,0,0,,0,35,35,144,1,
,,,,,,,,,,,,,,,,,,5ebf22d18258381b86086132,2020-08-10_17h47.02.780,lexical_decision_task_MP,2020.1.3,Win32,60,z,1,0.830945,,,,,,,,0.830945,1,,,,,,368,NW,"ID",50,hornal,HORNAL,z,,,,,,0.128703719,-0.177777844,0,0,0,,0,36,36,307,1,
,,,,,,,,,,,,,,,,,,5ebf22d18258381b86086132,2020-08-10_17h47.02.780,lexical_decision_task_MP,2020.1.3,Win32,60,z,1,1.831255,,,,,,,,1.831255,1,,,,,,268,NW,UN,50,orchet,PACKES,z,,,,,,0.128703719,-0.177777844,0,0,0,,0,37,37,447,1,
,,,,,,,,,,,,,,,,,,5ebf22d18258381b86086132,2020-08-10_17h47.02.780,lexical_decision_task_MP,2020.1.3,Win32,60,z,1,1.13083,,,,,,,,1.13083,1,,,,,,472,NW,UN,33,gorbie,CIGNEY,z,,,,,,0.128703719,-0.177777844,0,0,0,,0,38,38,411,1,
,,,,,,,,,,,,,,,,,,5ebf22d18258381b86086132,2020-08-10_17h47.02.780,lexical_decision_task_MP,2020.1.3,Win32,60,m,1,0.948235,,,,,,,,0.948235,1,,,,,,154,WORD,"ID",50,author,AUTHOR,m,,,,,,0.128703719,-0.177777844,0,0,0,,0,39,39,93,1,
,,,,,,,,,,,,,,,,,,5ebf22d18258381b86086132,2020-08-10_17h47.02.780,lexical_decision_task_MP,2020.1.3,Win32,60,m,1,0.870695,,,,,,,,0.870695,1,,,,,,240,WORD,UN,33,seldom,FOREST,m,,,,,,0.128703719,-0.177777844,0,0,0,,0,40,40,179,1,
,,,,,,,,,,,,,,,,,,5ebf22d18258381b86086132,2020-08-10_17h47.02.780,lexical_decision_task_MP,2020.1.3,Win32,60,m,1,0.565375,,,,,,,,0.565375,1,,,,,,109,WORD,"ID",33,wonder,WONDER,m,,,,,,0.128703719,-0.177777844,0,0,0,,0,41,41,48,1,
,,,,,,,,,,,,,,,,,,5ebf22d18258381b86086132,2020-08-10_17h47.02.780,lexical_decision_task_MP,2020.1.3,Win32,60,m,1,0.798025,,,,,,,,0.798025,1,,,,,,58,WORD,UN,50,splint,FOSTER,m,,,,,,0.128703719,-0.177777844,0,0,0,,0,42,42,237,1,
,,,,,,,,,,,,,,,,,,5ebf22d18258381b86086132,2020-08-10_17h47.02.780,lexical_decision_task_MP,2020.1.3,Win32,60,z,1,0.67012,,,,,,,,0.67012,1,,,,,,329,NW,"ID",33,yarike,YARIKE,z,,,,,,0.128703719,-0.177777844,0,0,0,,0,43,43,268,1,
,,,,,,,,,,,,,,,,,,5ebf22d18258381b86086132,2020-08-10_17h47.02.780,lexical_decision_task_MP,2020.1.3,Win32,60,z,1,0.687605,,,,,,,,0.687605,1,,,,,,306,NW,"ID",33,sounge,SOUNGE,z,,,,,,0.128703719,-0.177777844,0,0,0,,0,44,44,245,1,
,,,,,,,,,,,,,,,,,,5ebf22d18258381b86086132,2020-08-10_17h47.02.780,lexical_decision_task_MP,2020.1.3,Win32,60,m,1,0.53282,,,,,,,,0.53282,1,,,,,,38,WORD,UN,50,insect,POWDER,m,,,,,,0.128703719,-0.177777844,0,0,0,,0,45,45,217,1,
,,,,,,,,,,,,,,,,,,5ebf22d18258381b86086132,2020-08-10_17h47.02.780,lexical_decision_task_MP,2020.1.3,Win32,60,m,1,0.52146,,,,,,,,0.52146,1,,,,,,71,WORD,"ID",33,garden,GARDEN,m,,,,,,0.128703719,-0.177777844,0,0,0,,0,46,46,10,1,
,,,,,,,,,,,,,,,,,,5ebf22d18258381b86086132,2020-08-10_17h47.02.780,lexical_decision_task_MP,2020.1.3,Win32,60,z,1,0.71833,,,,,,,,0.71833,1,,,,,,304,NW,"ID",33,cludie,CLUDIE,z,,,,,,0.128703719,-0.177777844,0,0,0,,0,47,47,243,1,
,,,,,,,,,,,,,,,,,,5ebf22d18258381b86086132,2020-08-10_17h47.02.780,lexical_decision_task_MP,2020.1.3,Win32,60,z,1,1.22174,,,,,,,,1.22174,1,,,,,,452,NW,UN,33,bolvis,SURDEN,z,,,,,,0.128703719,-0.177777844,0,0,0,,0,48,48,391,1,
,,,,,,,,,,,,,,,,,,5ebf22d18258381b86086132,2020-08-10_17h47.02.780,lexical_decision_task_MP,2020.1.3,Win32,60,m,1,1.04979,,,,,,,,1.04979,1,,,,,,175,WORD,"ID",50,fabric,FABRIC,m,,,,,,0.128703719,-0.177777844,0,0,0,,0,49,49,114,1,
,,,,,,,,,,,,,,,,,,5ebf22d18258381b86086132,2020-08-10_17h47.02.780,lexical_decision_task_MP,2020.1.3,Win32,60,m,1,0.74816,,,,,,,,0.74816,1,,,,,,151,WORD,"ID",50,mystic,MYSTIC,m,,,,,,0.128703719,-0.177777844,0,0,0,,0,50,50,90,1,
,,,,,,,,,,,,,,,,,,5ebf22d18258381b86086132,2020-08-10_17h47.02.780,lexical_decision_task_MP,2020.1.3,Win32,60,m,1,1.350705,,,,,,,,1.350705,1,,,,,,190,WORD,UN,33,stable,BACKUP,m,,,,,,0.128703719,-0.177777844,0,0,0,,0,51,51,129,1,
,,,,,,,,,,,,,,,,,,5ebf22d18258381b86086132,2020-08-10_17h47.02.780,lexical_decision_task_MP,2020.1.3,Win32,60,m,1,0.576045,,,,,,,,0.576045,1,,,,,,128,WORD,"ID",50,senior,SENIOR,m,,,,,,0.128703719,-0.177777844,0,0,0,,0,52,52,67,1,
,,,,,,,,,,,,,,,,,,5ebf22d18258381b86086132,2020-08-10_17h47.02.780,lexical_decision_task_MP,2020.1.3,Win32,60,m,1,0.622215,,,,,,,,0.622215,1,,,,,,9,WORD,UN,50,bridge,HUSTLE,m,,,,,,0.128703719,-0.177777844,0,0,0,,0,53,53,188,1,
,,,,,,,,,,,,,,,,,,5ebf22d18258381b86086132,2020-08-10_17h47.02.780,lexical_decision_task_MP,2020.1.3,Win32,60,z,1,0.88903,,,,,,,,0.88903,1,,,,,,362,NW,"ID",50,tireau,TIREAU,z,,,,,,0.128703719,-0.177777844,0,0,0,,0,54,54,301,1,
,,,,,,,,,,,,,,,,,,5ebf22d18258381b86086132,2020-08-10_17h47.02.780,lexical_decision_task_MP,2020.1.3,Win32,60,z,1,0.939835,,,,,,,,0.939835,1,,,,,,456,NW,UN,33,wanigh,BROGET,z,,,,,,0.128703719,-0.177777844,0,0,0,,0,55,55,395,1,
,,,,,,,,,,,,,,,,,,5ebf22d18258381b86086132,2020-08-10_17h47.02.780,lexical_decision_task_MP,2020.1.3,Win32,60,z,1,0.816555,,,,,,,,0.816555,1,,,,,,286,NW,UN,50,nymbel,RELDON,z,,,,,,0.128703719,-0.177777844,0,0,0,,0,56,56,465,1,
,,,,,,,,,,,,,,,,,,5ebf22d18258381b86086132,2020-08-10_17h47.02.780,lexical_decision_task_MP,2020.1.3,Win32,60,z,1,0.59024,,,,,,,,0.59024,1,,,,,,263,NW,UN,50,vackel,DOLICA,z,,,,,,0.128703719,-0.177777844,0,0,0,,0,57,57,442,1,
,,,,,,,,,,,,,,,,,,5ebf22d18258381b86086132,2020-08-10_17h47.02.780,lexical_decision_task_MP,2020.1.3,Win32,60,z,1,0.749735,,,,,,,,0.749735,1,,,,,,420,NW,"ID",50,gushop,GUSHOP,z,,,,,,0.128703719,-0.177777844,0,0,0,,0,58,58,359,1,
,,,,,,,,,,,,,,,,,,5ebf22d18258381b86086132,2020-08-10_17h47.02.780,lexical_decision_task_MP,2020.1.3,Win32,60,m,1,0.57307,,,,,,,,0.57307,1,,,,,,124,WORD,"ID",50,blouse,BLOUSE,m,,,,,,0.128703719,-0.177777844,0,0,0,,0,59,59,63,1,
,,,,,,,,,,,,,,,,,,5ebf22d18258381b86086132,2020-08-10_17h47.02.780,lexical_decision_task_MP,2020.1.3,Win32,60,z,1,0.782855,,,,,,,,0.782855,1,,,,,,309,NW,"ID",33,amiloy,AMILOY,z,,,,,,0.128703719,-0.177777844,0,0,0,,0,60,60,248,1,
,,,,,,,,,,,,,,,,,,5ebf22d18258381b86086132,2020-08-10_17h47.02.780,lexical_decision_task_MP,2020.1.3,Win32,60,z,1,0.93483,,,,,,,,0.93483,1,,,,,,364,NW,"ID",50,impote,IMPOTE,z,,,,,,0.128703719,-0.177777844,0,0,0,,0,61,61,303,1,
,,,,,,,,,,,,,,,,,,5ebf22d18258381b86086132,2020-08-10_17h47.02.780,lexical_decision_task_MP,2020.1.3,Win32,60,z,1,0.600055,,,,,,,,0.600055,1,,,,,,326,NW,"ID",33,iguade,IGUADE,z,,,,,,0.128703719,-0.177777844,0,0,0,,0,62,62,265,1,
,,,,,,,,,,,,,,,,,,5ebf22d18258381b86086132,2020-08-10_17h47.02.780,lexical_decision_task_MP,2020.1.3,Win32,60,m,1,0.632745,,,,,,,,0.632745,1,,,,,,238,WORD,UN,33,behalf,FLOWER,m,,,,,,0.128703719,-0.177777844,0,0,0,,0,63,63,177,1,
,,,,,,,,,,,,,,,,,,5ebf22d18258381b86086132,2020-08-10_17h47.02.780,lexical_decision_task_MP,2020.1.3,Win32,60,z,1,0.948695,,,,,,,,0.948695,1,,,,,,350,NW,"ID",33,nagurs,NAGURS,z,,,,,,0.128703719,-0.177777844,0,0,0,,0,64,64,289,1,
,,,,,,,,,,,,,,,,,,5ebf22d18258381b86086132,2020-08-10_17h47.02.780,lexical_decision_task_MP,2020.1.3,Win32,60,m,1,0.816725,,,,,,,,0.816725,1,,,,,,78,WORD,"ID",33,column,COLUMN,m,,,,,,0.128703719,-0.177777844,0,0,0,,0,65,65,17,1,
,,,,,,,,,,,,,,,,,,5ebf22d18258381b86086132,2020-08-10_17h47.02.780,lexical_decision_task_MP,2020.1.3,Win32,60,z,0,0.678445,,,,,,,,0.678445,0,,,,,,19,WORD,UN,50,breast,PATRON,m,,,,,,0.128703719,-0.177777844,0,0,0,,0,66,66,198,1,
,,,,,,,,,,,,,,,,,,5ebf22d18258381b86086132,2020-08-10_17h47.02.780,lexical_decision_task_MP,2020.1.3,Win32,60,m,1,0.94496,,,,,,,,0.94496,1,,,,,,7,WORD,UN,50,abrupt,ANCHOR,m,,,,,,0.128703719,-0.177777844,0,0,0,,0,67,67,186,1,
,,,,,,,,,,,,,,,,,,5ebf22d18258381b86086132,2020-08-10_17h47.02.780,lexical_decision_task_MP,2020.1.3,Win32,60,m,1,0.76082,,,,,,,,0.76082,1,,,,,,213,WORD,UN,33,intake,SQUEAL,m,,,,,,0.128703719,-0.177777844,0,0,0,,0,68,68,152,1,
,,,,,,,,,,,,,,,,,,5ebf22d18258381b86086132,2020-08-10_17h47.02.780,lexical_decision_task_MP,2020.1.3,Win32,60,m,1,0.6,,,,,,,,0.6,1,,,,,,206,WORD,UN,33,wreath,TAILOR,m,,,,,,0.128703719,-0.177777844,0,0,0,,0,69,69,145,1,
,,,,,,,,,,,,,,,,,,5ebf22d18258381b86086132,2020-08-10_17h47.02.780,lexical_decision_task_MP,2020.1.3,Win32,60,z,1,0.93304,,,,,,,,0.93304,1,,,,,,378,NW,"ID",50,shrile,SHRILE,z,,,,,,0.128703719,-0.177777844,0,0,0,,0,70,70,317,1,
,,,,,,,,,,,,,,,,,,5ebf22d18258381b86086132,2020-08-10_17h47.02.780,lexical_decision_task_MP,2020.1.3,Win32,60,z,1,0.93692,,,,,,,,0.93692,1,,,,,,352,NW,"ID",33,tringe,TRINGE,z,,,,,,0.128703719,-0.177777844,0,0,0,,0,71,71,291,1,
,,,,,,,,,,,,,,,,,,5ebf22d18258381b86086132,2020-08-10_17h47.02.780,lexical_decision_task_MP,2020.1.3,Win32,60,m,1,0.598775,,,,,,,,0.598775,1,,,,,,73,WORD,"ID",33,source,SOURCE,m,,,,,,0.128703719,-0.177777844,0,0,0,,0,72,72,12,1,
,,,,,,,,,,,,,,,,,,5ebf22d18258381b86086132,2020-08-10_17h47.02.780,lexical_decision_task_MP,2020.1.3,Win32,60,z,1,0.85553,,,,,,,,0.85553,1,,,,,,293,NW,UN,50,inhort,SWANCE,z,,,,,,0.128703719,-0.177777844,0,0,0,,0,73,73,472,1,
,,,,,,,,,,,,,,,,,,5ebf22d18258381b86086132,2020-08-10_17h47.02.780,lexical_decision_task_MP,2020.1.3,Win32,60,z,1,0.648435,,,,,,,,0.648435,1,,,,,,272,NW,UN,50,sortel,DAMILT,z,,,,,,0.128703719,-0.177777844,0,0,0,,0,74,74,451,1,
,,,,,,,,,,,,,,,,,,5ebf22d18258381b86086132,2020-08-10_17h47.02.780,lexical_decision_task_MP,2020.1.3,Win32,60,z,1,0.71608,,,,,,,,0.71608,1,,,,,,325,NW,"ID",33,thruse,THRUSE,z,,,,,,0.128703719,-0.177777844,0,0,0,,0,75,75,264,1,
,,,,,,,,,,,,,,,,,,5ebf22d18258381b86086132,2020-08-10_17h47.02.780,lexical_decision_task_MP,2020.1.3,Win32,60,m,1,0.565625,,,,,,,,0.565625,1,,,,,,20,WORD,UN,50,simple,BREAST,m,,,,,,0.128703719,-0.177777844,0,0,0,,0,76,76,199,1,
,,,,,,,,,,,,,,,,,,5ebf22d18258381b86086132,2020-08-10_17h47.02.780,lexical_decision_task_MP,2020.1.3,Win32,60,z,1,1.00457,,,,,,,,1.00457,1,,,,,,443,NW,UN,33,jaunce,DORSEX,z,,,,,,0.128703719,-0.177777844,0,0,0,,0,77,77,382,1,
,,,,,,,,,,,,,,,,,,5ebf22d18258381b86086132,2020-08-10_17h47.02.780,lexical_decision_task_MP,2020.1.3,Win32,60,z,1,0.685135,,,,,,,,0.685135,1,,,,,,356,NW,"ID",33,othnis,OTHNIS,z,,,,,,0.128703719,-0.177777844,0,0,0,,0,78,78,295,1,
,,,,,,,,,,,,,,,,,,5ebf22d18258381b86086132,2020-08-10_17h47.02.780,lexical_decision_task_MP,2020.1.3,Win32,60,z,1,1.11845,,,,,,,,1.11845,1,,,,,,319,NW,"ID",33,zomber,ZOMBER,z,,,,,,0.128703719,-0.177777844,0,0,0,,0,79,79,258,1,
,,,,,,,,,,,,,,,,,,5ebf22d18258381b86086132,2020-08-10_17h47.02.780,lexical_decision_task_MP,2020.1.3,Win32,60,m,0,1.235625,,,,,,,,1.235625,0,,,,,,303,NW,"ID",33,fiream,FIREAM,z,,,,,,0.128703719,-0.177777844,0,0,0,,0,80,80,242,1,
,,,,,,,,,,,,,,,,,,5ebf22d18258381b86086132,2020-08-10_17h47.02.780,lexical_decision_task_MP,2020.1.3,Win32,60,m,1,0.6215,,,,,,,,0.6215,1,,,,,,234,WORD,UN,33,poster,CLUMSY,m,,,,,,0.128703719,-0.177777844,0,0,0,,0,81,81,173,1,
,,,,,,,,,,,,,,,,,,5ebf22d18258381b86086132,2020-08-10_17h47.02.780,lexical_decision_task_MP,2020.1.3,Win32,60,m,1,0.93914,,,,,,,,0.93914,1,,,,,,200,WORD,UN,33,admire,BEACON,m,,,,,,0.128703719,-0.177777844,0,0,0,,0,82,82,139,1,
,,,,,,,,,,,,,,,,,,5ebf22d18258381b86086132,2020-08-10_17h47.02.780,lexical_decision_task_MP,2020.1.3,Win32,60,z,1,1.11437,,,,,,,,1.11437,1,,,,,,253,NW,UN,50,varosh,RESAIT,z,,,,,,0.128703719,-0.177777844,0,0,0,,0,83,83,432,1,
,,,,,,,,,,,,,,,,,,5ebf22d18258381b86086132,2020-08-10_17h47.02.780,lexical_decision_task_MP,2020.1.3,Win32,60,m,1,0.698595,,,,,,,,0.698595,1,,,,,,116,WORD,"ID",33,tumble,TUMBLE,m,,,,,,0.128703719,-0.177777844,0,0,0,,0,84,84,55,1,
,,,,,,,,,,,,,,,,,,5ebf22d18258381b86086132,2020-08-10_17h47.02.780,lexical_decision_task_MP,2020.1.3,Win32,60,m,1,0.55462,,,,,,,,0.55462,1,,,,,,173,WORD,"ID",50,shower,SHOWER,m,,,,,,0.128703719,-0.177777844,0,0,0,,0,85,85,112,1,
,,,,,,,,,,,,,,,,,,5ebf22d18258381b86086132,2020-08-10_17h47.02.780,lexical_decision_task_MP,2020.1.3,Win32,60,m,1,0.664705,,,,,,,,0.664705,1,,,,,,39,WORD,UN,50,convey,INSECT,m,,,,,,0.128703719,-0.177777844,0,0,0,,0,86,86,218,1,
,,,,,,,,,,,,,,,,,,5ebf22d18258381b86086132,2020-08-10_17h47.02.780,lexical_decision_task_MP,2020.1.3,Win32,60,m,1,0.719825,,,,,,,,0.719825,1,,,,,,196,WORD,UN,33,stream,CREDIT,m,,,,,,0.128703719,-0.177777844,0,0,0,,0,87,87,135,1,
,,,,,,,,,,,,,,,,,,5ebf22d18258381b86086132,2020-08-10_17h47.02.780,lexical_decision_task_MP,2020.1.3,Win32,60,m,1,0.598485,,,,,,,,0.598485,1,,,,,,22,WORD,UN,50,wealth,JOCKEY,m,,,,,,0.128703719,-0.177777844,0,0,0,,0,88,88,201,1,
,,,,,,,,,,,,,,,,,,5ebf22d18258381b86086132,2020-08-10_17h47.02.780,lexical_decision_task_MP,2020.1.3,Win32,60,m,1,0.506795,,,,,,,,0.506795,1,,,,,,83,WORD,"ID",33,result,RESULT,m,,,,,,0.128703719,-0.177777844,0,0,0,,0,89,89,22,1,
,,,,,,,,,,,,,,,,,,5ebf22d18258381b86086132,2020-08-10_17h47.02.780,lexical_decision_task_MP,2020.1.3,Win32,60,z,1,1.749255,,,,,,,,1.749255,1,,,,,,397,NW,"ID",50,camble,CAMBLE,z,,,,,,0.128703719,-0.177777844,0,0,0,,0,90,90,336,1,
,,,,,,,,,,,,,,,,,,5ebf22d18258381b86086132,2020-08-10_17h47.02.780,lexical_decision_task_MP,2020.1.3,Win32,60,z,1,0.769155,,,,,,,,0.769155,1,,,,,,324,NW,"ID",33,steikh,STEIKH,z,,,,,,0.128703719,-0.177777844,0,0,0,,0,91,91,263,1,
,,,,,,,,,,,,,,,,,,5ebf22d18258381b86086132,2020-08-10_17h47.02.780,lexical_decision_task_MP,2020.1.3,Win32,60,z,1,0.640035,,,,,,,,0.640035,1,,,,,,478,NW,UN,33,pebric,ACRISE,z,,,,,,0.128703719,-0.177777844,0,0,0,,0,92,92,417,1,
,,,,,,,,,,,,,,,,,,5ebf22d18258381b86086132,2020-08-10_17h47.02.780,lexical_decision_task_MP,2020.1.3,Win32,60,m,1,0.748885,,,,,,,,0.748885,1,,,,,,132,WORD,"ID",50,strong,STRONG,m,,,,,,0.128703719,-0.177777844,0,0,0,,0,93,93,71,1,
,,,,,,,,,,,,,,,,,,5ebf22d18258381b86086132,2020-08-10_17h47.02.780,lexical_decision_task_MP,2020.1.3,Win32,60,z,1,0.864625,,,,,,,,0.864625,1,,,,,,252,NW,UN,50,resait,STAPOD,z,,,,,,0.128703719,-0.177777844,0,0,0,,0,94,94,431,1,
,,,,,,,,,,,,,,,,,,5ebf22d18258381b86086132,2020-08-10_17h47.02.780,lexical_decision_task_MP,2020.1.3,Win32,60,m,1,0.531855,,,,,,,,0.531855,1,,,,,,61,WORD,"ID",33,ponder,PONDER,m,,,,,,0.128703719,-0.177777844,0,0,0,,0,95,95,0,1,
,,,,,,,,,,,,,,,,,,5ebf22d18258381b86086132,2020-08-10_17h47.02.780,lexical_decision_task_MP,2020.1.3,Win32,60,m,1,0.55326,,,,,,,,0.55326,1,,,,,,107,WORD,"ID",33,slogan,SLOGAN,m,,,,,,0.128703719,-0.177777844,0,0,0,,0,96,96,46,1,
,,,,,,,,,,,,,,,,,,5ebf22d18258381b86086132,2020-08-10_17h47.02.780,lexical_decision_task_MP,2020.1.3,Win32,60,m,1,0.48166,,,,,,,,0.48166,1,,,,,,36,WORD,UN,50,insult,VANISH,m,,,,,,0.128703719,-0.177777844,0,0,0,,0,97,97,215,1,
,,,,,,,,,,,,,,,,,,5ebf22d18258381b86086132,2020-08-10_17h47.02.780,lexical_decision_task_MP,2020.1.3,Win32,60,z,1,0.666895,,,,,,,,0.666895,1,,,,,,357,NW,"ID",33,derain,DERAIN,z,,,,,,0.128703719,-0.177777844,0,0,0,,0,98,98,296,1,
,,,,,,,,,,,,,,,,,,5ebf22d18258381b86086132,2020-08-10_17h47.02.780,lexical_decision_task_MP,2020.1.3,Win32,60,m,1,0.502635,,,,,,,,0.502635,1,,,,,,144,WORD,"ID",50,sponge,SPONGE,m,,,,,,0.128703719,-0.177777844,0,0,0,,0,99,99,83,1,
,,,,,,,,,,,,,,,,,,5ebf22d18258381b86086132,2020-08-10_17h47.02.780,lexical_decision_task_MP,2020.1.3,Win32,60,z,1,0.648655,,,,,,,,0.648655,1,,,,,,464,NW,UN,33,whivex,CHAITE,z,,,,,,0.128703719,-0.177777844,0,0,0,,0,100,100,403,1,
,,,,,,,,,,,,,,,,,,5ebf22d18258381b86086132,2020-08-10_17h47.02.780,lexical_decision_task_MP,2020.1.3,Win32,60,m,1,0.64014,,,,,,,,0.64014,1,,,,,,52,WORD,UN,50,police,IMPOSE,m,,,,,,0.128703719,-0.177777844,0,0,0,,0,101,101,231,1,
,,,,,,,,,,,,,,,,,,5ebf22d18258381b86086132,2020-08-10_17h47.02.780,lexical_decision_task_MP,2020.1.3,Win32,60,z,1,0.71598,,,,,,,,0.71598,1,,,,,,458,NW,UN,33,hocite,BARCET,z,,,,,,0.128703719,-0.177777844,0,0,0,,0,102,102,397,1,
,,,,,,,,,,,,,,,,,,5ebf22d18258381b86086132,2020-08-10_17h47.02.780,lexical_decision_task_MP,2020.1.3,Win32,60,z,1,1.06726,,,,,,,,1.06726,1,,,,,,473,NW,UN,33,hablin,CRIBLE,z,,,,,,0.128703719,-0.177777844,0,0,0,,0,103,103,412,1,
,,,,,,,,,,,,,,,,,,5ebf22d18258381b86086132,2020-08-10_17h47.02.780,lexical_decision_task_MP,2020.1.3,Win32,60,z,1,0.542395,,,,,,,,0.542395,1,,,,,,312,NW,"ID",33,nerawl,NERAWL,z,,,,,,0.128703719,-0.177777844,0,0,0,,0,104,104,251,1,
,,,,,,,,,,,,,,,,,,5ebf22d18258381b86086132,2020-08-10_17h47.02.780,lexical_decision_task_MP,2020.1.3,Win32,60,z,1,1.65561,,,,,,,,1.65561,1,,,,,,265,NW,UN,50,varmit,DISTAR,z,,,,,,0.128703719,-0.177777844,0,0,0,,0,105,105,444,1,
,,,,,,,,,,,,,,,,,,5ebf22d18258381b86086132,2020-08-10_17h47.02.780,lexical_decision_task_MP,2020.1.3,Win32,60,m,0,0.86478,,,,,,,,0.86478,0,,,,,,289,NW,UN,50,splino,STARBY,z,,,,,,0.128703719,-0.177777844,0,0,0,,0,106,106,468,1,
,,,,,,,,,,,,,,,,,,5ebf22d18258381b86086132,2020-08-10_17h47.02.780,lexical_decision_task_MP,2020.1.3,Win32,60,m,1,0.53134,,,,,,,,0.53134,1,,,,,,155,WORD,"ID",50,lizard,LIZARD,m,,,,,,0.128703719,-0.177777844,0,0,0,,0,107,107,94,1,
,,,,,,,,,,,,,,,,,,5ebf22d18258381b86086132,2020-08-10_17h47.02.780,lexical_decision_task_MP,2020.1.3,Win32,60,m,1,0.614285,,,,,,,,0.614285,1,,,,,,98,WORD,"ID",33,belong,BELONG,m,,,,,,0.128703719,-0.177777844,0,0,0,,0,108,108,37,1,
,,,,,,,,,,,,,,,,,,5ebf22d18258381b86086132,2020-08-10_17h47.02.780,lexical_decision_task_MP,2020.1.3,Win32,60,m,1,0.581115,,,,,,,,0.581115,1,,,,,,26,WORD,UN,50,butler,SPRINT,m,,,,,,0.128703719,-0.177777844,0,0,0,,0,109,109,205,1,
,,,,,,,,,,,,,,,,,,5ebf22d18258381b86086132,2020-08-10_17h47.02.780,lexical_decision_task_MP,2020.1.3,Win32,60,z,1,0.745815,,,,,,,,0.745815,1,,,,,,262,NW,UN,50,dolica,QUILEW,z,,,,,,0.128703719,-0.177777844,0,0,0,,0,110,110,441,1,
,,,,,,,,,,,,,,,,,,5ebf22d18258381b86086132,2020-08-10_17h47.02.780,lexical_decision_task_MP,2020.1.3,Win32,60,m,1,0.57672,,,,,,,,0.57672,1,,,,,,201,WORD,UN,33,factor,ADMIRE,m,,,,,,0.128703719,-0.177777844,0,0,0,,0,111,111,140,1,
,,,,,,,,,,,,,,,,,,5ebf22d18258381b86086132,2020-08-10_17h47.02.780,lexical_decision_task_MP,2020.1.3,Win32,60,z,1,0.69954,,,,,,,,0.69954,1,,,,,,444,NW,UN,33,minkel,JAUNCE,z,,,,,,0.128703719,-0.177777844,0,0,0,,0,112,112,383,1,
,,,,,,,,,,,,,,,,,,5ebf22d18258381b86086132,2020-08-10_17h47.02.780,lexical_decision_task_MP,2020.1.3,Win32,60,m,1,0.709235,,,,,,,,0.709235,1,,,,,,74,WORD,"ID",33,plaque,PLAQUE,m,,,,,,0.128703719,-0.177777844,0,0,0,,0,113,113,13,1,
,,,,,,,,,,,,,,,,,,5ebf22d18258381b86086132,2020-08-10_17h47.02.780,lexical_decision_task_MP,2020.1.3,Win32,60,m,1,0.582895,,,,,,,,0.582895,1,,,,,,44,WORD,UN,50,clergy,DANGER,m,,,,,,0.128703719,-0.177777844,0,0,0,,0,114,114,223,1,
,,,,,,,,,,,,,,,,,,5ebf22d18258381b86086132,2020-08-10_17h47.02.780,lexical_decision_task_MP,2020.1.3,Win32,60,z,1,0.585625,,,,,,,,0.585625,1,,,,,,381,NW,"ID",50,huniek,HUNIEK,z,,,,,,0.128703719,-0.177777844,0,0,0,,0,115,115,320,1,
,,,,,,,,,,,,,,,,,,5ebf22d18258381b86086132,2020-08-10_17h47.02.780,lexical_decision_task_MP,2020.1.3,Win32,60,z,1,1.082755,,,,,,,,1.082755,1,,,,,,395,NW,"ID",50,colury,COLURY,z,,,,,,0.128703719,-0.177777844,0,0,0,,0,116,116,334,1,
,,,,,,,,,,,,,,,,,,5ebf22d18258381b86086132,2020-08-10_17h47.02.780,lexical_decision_task_MP,2020.1.3,Win32,60,z,1,0.816575,,,,,,,,0.816575,1,,,,,,340,NW,"ID",33,fiatch,FIATCH,z,,,,,,0.128703719,-0.177777844,0,0,0,,0,117,117,279,1,
,,,,,,,,,,,,,,,,,,5ebf22d18258381b86086132,2020-08-10_17h47.02.780,lexical_decision_task_MP,2020.1.3,Win32,60,m,1,0.44991,,,,,,,,0.44991,1,,,,,,91,WORD,"ID",33,expand,EXPAND,m,,,,,,0.128703719,-0.177777844,0,0,0,,0,118,118,30,1,
,,,,,,,,,,,,,,,,,,5ebf22d18258381b86086132,2020-08-10_17h47.02.780,lexical_decision_task_MP,2020.1.3,Win32,60,z,1,0.849845,,,,,,,,0.849845,1,,,,,,256,NW,UN,50,veniod,INLORS,z,,,,,,0.128703719,-0.177777844,0,0,0,,0,119,119,435,1,
,,,,,,,,,,,,,,,,,,5ebf22d18258381b86086132,2020-08-10_17h47.02.780,lexical_decision_task_MP,2020.1.3,Win32,60,z,1,0.820045,,,,,,,,0.820045,1,,,,,,299,NW,UN,50,yarion,STURCH,z,,,,,,0.128703719,-0.177777844,0,0,0,space,0,120,120,478,1,29.35946
,,,,,,,,,,,,,,,,,,5ebf22d18258381b86086132,2020-08-10_17h47.02.780,lexical_decision_task_MP,2020.1.3,Win32,60,z,1,1.069335,,,,,,,,1.069335,1,,,,,,278,NW,UN,50,celond,UNIGHS,z,,,,,,0.128703719,-0.177777844,0,0,0,,0,121,121,457,1,
,,,,,,,,,,,,,,,,,,5ebf22d18258381b86086132,2020-08-10_17h47.02.780,lexical_decision_task_MP,2020.1.3,Win32,60,z,1,1.301325,,,,,,,,1.301325,1,,,,,,367,NW,"ID",50,slique,SLIQUE,z,,,,,,0.128703719,-0.177777844,0,0,0,,0,122,122,306,1,
,,,,,,,,,,,,,,,,,,5ebf22d18258381b86086132,2020-08-10_17h47.02.780,lexical_decision_task_MP,2020.1.3,Win32,60,m,1,1.135195,,,,,,,,1.135195,1,,,,,,5,WORD,UN,50,bundle,PLUNGE,m,,,,,,0.128703719,-0.177777844,0,0,0,,0,123,123,184,1,
,,,,,,,,,,,,,,,,,,5ebf22d18258381b86086132,2020-08-10_17h47.02.780,lexical_decision_task_MP,2020.1.3,Win32,60,z,1,0.570065,,,,,,,,0.570065,1,,,,,,287,NW,UN,50,yaceup,NYMBEL,z,,,,,,0.128703719,-0.177777844,0,0,0,,0,124,124,466,1,
,,,,,,,,,,,,,,,,,,5ebf22d18258381b86086132,2020-08-10_17h47.02.780,lexical_decision_task_MP,2020.1.3,Win32,60,z,1,0.860525,,,,,,,,0.860525,1,,,,,,335,NW,"ID",33,desion,DESION,z,,,,,,0.128703719,-0.177777844,0,0,0,,0,125,125,274,1,
,,,,,,,,,,,,,,,,,,5ebf22d18258381b86086132,2020-08-10_17h47.02.780,lexical_decision_task_MP,2020.1.3,Win32,60,m,1,0.490145,,,,,,,,0.490145,1,,,,,,64,WORD,"ID",33,throne,THRONE,m,,,,,,0.128703719,-0.177777844,0,0,0,,0,126,126,3,1,
,,,,,,,,,,,,,,,,,,5ebf22d18258381b86086132,2020-08-10_17h47.02.780,lexical_decision_task_MP,2020.1.3,Win32,60,z,1,0.97327,,,,,,,,0.97327,1,,,,,,243,NW,UN,50,eatric,MUSIED,z,,,,,,0.128703719,-0.177777844,0,0,0,,0,127,127,422,1,
,,,,,,,,,,,,,,,,,,5ebf22d18258381b86086132,2020-08-10_17h47.02.780,lexical_decision_task_MP,2020.1.3,Win32,60,z,1,0.5826,,,,,,,,0.5826,1,,,,,,430,NW,UN,33,chrums,CAROEY,z,,,,,,0.128703719,-0.177777844,0,0,0,,0,128,128,369,1,
,,,,,,,,,,,,,,,,,,5ebf22d18258381b86086132,2020-08-10_17h47.02.780,lexical_decision_task_MP,2020.1.3,Win32,60,z,1,0.638295,,,,,,,,0.638295,1,,,,,,427,NW,UN,33,tandly,SCHIND,z,,,,,,0.128703719,-0.177777844,0,0,0,,0,129,129,366,1,
,,,,,,,,,,,,,,,,,,5ebf22d18258381b86086132,2020-08-10_17h47.02.780,lexical_decision_task_MP,2020.1.3,Win32,60,z,1,0.784815,,,,,,,,0.784815,1,,,,,,338,NW,"ID",33,wreash,WREASH,z,,,,,,0.128703719,-0.177777844,0,0,0,,0,130,130,277,1,
,,,,,,,,,,,,,,,,,,5ebf22d18258381b86086132,2020-08-10_17h47.02.780,lexical_decision_task_MP,2020.1.3,Win32,60,z,1,0.966465,,,,,,,,0.966465,1,,,,,,321,NW,"ID",33,miator,MIATOR,z,,,,,,0.128703719,-0.177777844,0,0,0,,0,131,131,260,1,
,,,,,,,,,,,,,,,,,,5ebf22d18258381b86086132,2020-08-10_17h47.02.780,lexical_decision_task_MP,2020.1.3,Win32,60,z,1,0.74203,,,,,,,,0.74203,1,,,,,,419,NW,"ID",50,slount,SLOUNT,z,,,,,,0.128703719,-0.177777844,0,0,0,,0,132,132,358,1,
,,,,,,,,,,,,,,,,,,5ebf22d18258381b86086132,2020-08-10_17h47.02.780,lexical_decision_task_MP,2020.1.3,Win32,60,m,1,0.74872,,,,,,,,0.74872,1,,,,,,202,WORD,UN,33,phrase,FACTOR,m,,,,,,0.128703719,-0.177777844,0,0,0,,0,133,133,141,1,
,,,,,,,,,,,,,,,,,,5ebf22d18258381b86086132,2020-08-10_17h47.02.780,lexical_decision_task_MP,2020.1.3,Win32,60,z,1,0.615955,,,,,,,,0.615955,1,,,,,,311,NW,"ID",33,sproly,SPROLY,z,,,,,,0.128703719,-0.177777844,0,0,0,,0,134,134,250,1,
,,,,,,,,,,,,,,,,,,5ebf22d18258381b86086132,2020-08-10_17h47.02.780,lexical_decision_task_MP,2020.1.3,Win32,60,m,1,0.591015,,,,,,,,0.591015,1,,,,,,221,WORD,UN,33,hinder,MASCOT,m,,,,,,0.128703719,-0.177777844,0,0,0,,0,135,135,160,1,
,,,,,,,,,,,,,,,,,,5ebf22d18258381b86086132,2020-08-10_17h47.02.780,lexical_decision_task_MP,2020.1.3,Win32,60,z,1,1.175765,,,,,,,,1.175765,1,,,,,,370,NW,"ID",50,sleact,SLEACT,z,,,,,,0.128703719,-0.177777844,0,0,0,,0,136,136,309,1,
,,,,,,,,,,,,,,,,,,5ebf22d18258381b86086132,2020-08-10_17h47.02.780,lexical_decision_task_MP,2020.1.3,Win32,60,z,1,0.93541,,,,,,,,0.93541,1,,,,,,461,NW,UN,33,absult,JUSTRE,z,,,,,,0.128703719,-0.177777844,0,0,0,,0,137,137,400,1,
,,,,,,,,,,,,,,,,,,5ebf22d18258381b86086132,2020-08-10_17h47.02.780,lexical_decision_task_MP,2020.1.3,Win32,60,z,1,0.698985,,,,,,,,0.698985,1,,,,,,271,NW,UN,50,damilt,AUBRID,z,,,,,,0.128703719,-0.177777844,0,0,0,,0,138,138,450,1,
,,,,,,,,,,,,,,,,,,5ebf22d18258381b86086132,2020-08-10_17h47.02.780,lexical_decision_task_MP,2020.1.3,Win32,60,z,1,0.873475,,,,,,,,0.873475,1,,,,,,412,NW,"ID",50,jiluer,JILUER,z,,,,,,0.128703719,-0.177777844,0,0,0,,0,139,139,351,1,
,,,,,,,,,,,,,,,,,,5ebf22d18258381b86086132,2020-08-10_17h47.02.780,lexical_decision_task_MP,2020.1.3,Win32,60,m,0,1.15076,,,,,,,,1.15076,0,,,,,,411,NW,"ID",50,orchin,ORCHIN,z,,,,,,0.128703719,-0.177777844,0,0,0,,0,140,140,350,1,
,,,,,,,,,,,,,,,,,,5ebf22d18258381b86086132,2020-08-10_17h47.02.780,lexical_decision_task_MP,2020.1.3,Win32,60,m,1,0.504755,,,,,,,,0.504755,1,,,,,,75,WORD,"ID",33,trophy,TROPHY,m,,,,,,0.128703719,-0.177777844,0,0,0,,0,141,141,14,1,
,,,,,,,,,,,,,,,,,,5ebf22d18258381b86086132,2020-08-10_17h47.02.780,lexical_decision_task_MP,2020.1.3,Win32,60,m,1,0.552265,,,,,,,,0.552265,1,,,,,,187,WORD,UN,33,social,COURSE,m,,,,,,0.128703719,-0.177777844,0,0,0,,0,142,142,126,1,
,,,,,,,,,,,,,,,,,,5ebf22d18258381b86086132,2020-08-10_17h47.02.780,lexical_decision_task_MP,2020.1.3,Win32,60,m,1,0.44251,,,,,,,,0.44251,1,,,,,,168,WORD,"ID",50,answer,ANSWER,m,,,,,,0.128703719,-0.177777844,0,0,0,,0,143,143,107,1,
,,,,,,,,,,,,,,,,,,5ebf22d18258381b86086132,2020-08-10_17h47.02.780,lexical_decision_task_MP,2020.1.3,Win32,60,m,0,0.53742,,,,,,,,0.53742,0,,,,,,476,NW,UN,33,photie,JOSTED,z,,,,,,0.128703719,-0.177777844,0,0,0,,0,144,144,415,1,
,,,,,,,,,,,,,,,,,,5ebf22d18258381b86086132,2020-08-10_17h47.02.780,lexical_decision_task_MP,2020.1.3,Win32,60,m,1,0.45304,,,,,,,,0.45304,1,,,,,,65,WORD,"ID",33,symbol,SYMBOL,m,,,,,,0.128703719,-0.177777844,0,0,0,,0,145,145,4,1,
,,,,,,,,,,,,,,,,,,5ebf22d18258381b86086132,2020-08-10_17h47.02.780,lexical_decision_task_MP,2020.1.3,Win32,60,m,1,0.51512,,,,,,,,0.51512,1,,,,,,48,WORD,UN,50,survey,WALNUT,m,,,,,,0.128703719,-0.177777844,0,0,0,,0,146,146,227,1,
,,,,,,,,,,,,,,,,,,5ebf22d18258381b86086132,2020-08-10_17h47.02.780,lexical_decision_task_MP,2020.1.3,Win32,60,m,1,0.398055,,,,,,,,0.398055,1,,,,,,72,WORD,"ID",33,bright,BRIGHT,m,,,,,,0.128703719,-0.177777844,0,0,0,,0,147,147,11,1,
,,,,,,,,,,,,,,,,,,5ebf22d18258381b86086132,2020-08-10_17h47.02.780,lexical_decision_task_MP,2020.1.3,Win32,60,z,1,1.03205,,,,,,,,1.03205,1,,,,,,380,NW,"ID",50,cavory,CAVORY,z,,,,,,0.128703719,-0.177777844,0,0,0,,0,148,148,319,1,
,,,,,,,,,,,,,,,,,,5ebf22d18258381b86086132,2020-08-10_17h47.02.780,lexical_decision_task_MP,2020.1.3,Win32,60,z,1,0.720175,,,,,,,,0.720175,1,,,,,,280,NW,UN,50,melaty,CURBOL,z,,,,,,0.128703719,-0.177777844,0,0,0,,0,149,149,459,1,
,,,,,,,,,,,,,,,,,,5ebf22d18258381b86086132,2020-08-10_17h47.02.780,lexical_decision_task_MP,2020.1.3,Win32,60,m,1,0.55049,,,,,,,,0.55049,1,,,,,,25,WORD,UN,50,sprint,DOMAIN,m,,,,,,0.128703719,-0.177777844,0,0,0,,0,150,150,204,1,
,,,,,,,,,,,,,,,,,,5ebf22d18258381b86086132,2020-08-10_17h47.02.780,lexical_decision_task_MP,2020.1.3,Win32,60,m,1,0.48859,,,,,,,,0.48859,1,,,,,,150,WORD,"ID",50,random,RANDOM,m,,,,,,0.128703719,-0.177777844,0,0,0,,0,151,151,89,1,
,,,,,,,,,,,,,,,,,,5ebf22d18258381b86086132,2020-08-10_17h47.02.780,lexical_decision_task_MP,2020.1.3,Win32,60,z,1,0.719885,,,,,,,,0.719885,1,,,,,,307,NW,"ID",33,kirafe,KIRAFE,z,,,,,,0.128703719,-0.177777844,0,0,0,,0,152,152,246,1,
,,,,,,,,,,,,,,,,,,5ebf22d18258381b86086132,2020-08-10_17h47.02.780,lexical_decision_task_MP,2020.1.3,Win32,60,m,1,0.782675,,,,,,,,0.782675,1,,,,,,185,WORD,UN,33,portal,BOTHER,m,,,,,,0.128703719,-0.177777844,0,0,0,,0,153,153,124,1,
,,,,,,,,,,,,,,,,,,5ebf22d18258381b86086132,2020-08-10_17h47.02.780,lexical_decision_task_MP,2020.1.3,Win32,60,m,1,0.532165,,,,,,,,0.532165,1,,,,,,66,WORD,"ID",33,gospel,GOSPEL,m,,,,,,0.128703719,-0.177777844,0,0,0,,0,154,154,5,1,
,,,,,,,,,,,,,,,,,,5ebf22d18258381b86086132,2020-08-10_17h47.02.780,lexical_decision_task_MP,2020.1.3,Win32,60,m,1,0.448795,,,,,,,,0.448795,1,,,,,,159,WORD,"ID",50,detail,DETAIL,m,,,,,,0.128703719,-0.177777844,0,0,0,,0,155,155,98,1,
,,,,,,,,,,,,,,,,,,5ebf22d18258381b86086132,2020-08-10_17h47.02.780,lexical_decision_task_MP,2020.1.3,Win32,60,m,0,0.957375,,,,,,,,0.957375,0,,,,,,425,NW,UN,33,urivel,FRUDGE,z,,,,,,0.128703719,-0.177777844,0,0,0,,0,156,156,364,1,
,,,,,,,,,,,,,,,,,,5ebf22d18258381b86086132,2020-08-10_17h47.02.780,lexical_decision_task_MP,2020.1.3,Win32,60,m,1,0.624805,,,,,,,,0.624805,1,,,,,,41,WORD,UN,50,chapel,SPRING,m,,,,,,0.128703719,-0.177777844,0,0,0,,0,157,157,220,1,
,,,,,,,,,,,,,,,,,,5ebf22d18258381b86086132,2020-08-10_17h47.02.780,lexical_decision_task_MP,2020.1.3,Win32,60,m,1,0.492105,,,,,,,,0.492105,1,,,,,,189,WORD,UN,33,backup,CENSOR,m,,,,,,0.128703719,-0.177777844,0,0,0,,0,158,158,128,1,
,,,,,,,,,,,,,,,,,,5ebf22d18258381b86086132,2020-08-10_17h47.02.780,lexical_decision_task_MP,2020.1.3,Win32,60,m,1,0.502295,,,,,,,,0.502295,1,,,,,,145,WORD,"ID",50,parish,PARISH,m,,,,,,0.128703719,-0.177777844,0,0,0,,0,159,159,84,1,
,,,,,,,,,,,,,,,,,,5ebf22d18258381b86086132,2020-08-10_17h47.02.780,lexical_decision_task_MP,2020.1.3,Win32,60,m,1,0.48815,,,,,,,,0.48815,1,,,,,,232,WORD,UN,33,nature,INJECT,m,,,,,,0.128703719,-0.177777844,0,0,0,,0,160,160,171,1,
,,,,,,,,,,,,,,,,,,5ebf22d18258381b86086132,2020-08-10_17h47.02.780,lexical_decision_task_MP,2020.1.3,Win32,60,m,1,0.95374,,,,,,,,0.95374,1,,,,,,47,WORD,UN,50,walnut,INCOME,m,,,,,,0.128703719,-0.177777844,0,0,0,,0,161,161,226,1,
,,,,,,,,,,,,,,,,,,5ebf22d18258381b86086132,2020-08-10_17h47.02.780,lexical_decision_task_MP,2020.1.3,Win32,60,z,1,0.84991,,,,,,,,0.84991,1,,,,,,308,NW,"ID",33,psetch,PSETCH,z,,,,,,0.128703719,-0.177777844,0,0,0,,0,162,162,247,1,
,,,,,,,,,,,,,,,,,,5ebf22d18258381b86086132,2020-08-10_17h47.02.780,lexical_decision_task_MP,2020.1.3,Win32,60,z,1,0.672645,,,,,,,,0.672645,1,,,,,,455,NW,UN,33,broget,TONDLE,z,,,,,,0.128703719,-0.177777844,0,0,0,,0,163,163,394,1,
,,,,,,,,,,,,,,,,,,5ebf22d18258381b86086132,2020-08-10_17h47.02.780,lexical_decision_task_MP,2020.1.3,Win32,60,m,1,0.58049,,,,,,,,0.58049,1,,,,,,172,WORD,"ID",50,patrol,PATROL,m,,,,,,0.128703719,-0.177777844,0,0,0,,0,164,164,111,1,
,,,,,,,,,,,,,,,,,,5ebf22d18258381b86086132,2020-08-10_17h47.02.780,lexical_decision_task_MP,2020.1.3,Win32,60,m,1,0.4649,,,,,,,,0.4649,1,,,,,,27,WORD,UN,50,comedy,SCREAM,m,,,,,,0.128703719,-0.177777844,0,0,0,,0,165,165,206,1,
,,,,,,,,,,,,,,,,,,5ebf22d18258381b86086132,2020-08-10_17h47.02.780,lexical_decision_task_MP,2020.1.3,Win32,60,z,1,0.633855,,,,,,,,0.633855,1,,,,,,294,NW,UN,50,gleath,INHORT,z,,,,,,0.128703719,-0.177777844,0,0,0,,0,166,166,473,1,
,,,,,,,,,,,,,,,,,,5ebf22d18258381b86086132,2020-08-10_17h47.02.780,lexical_decision_task_MP,2020.1.3,Win32,60,z,1,0.79221,,,,,,,,0.79221,1,,,,,,359,NW,"ID",33,fonver,FONVER,z,,,,,,0.128703719,-0.177777844,0,0,0,,0,167,167,298,1,
,,,,,,,,,,,,,,,,,,5ebf22d18258381b86086132,2020-08-10_17h47.02.780,lexical_decision_task_MP,2020.1.3,Win32,60,z,1,0.61599,,,,,,,,0.61599,1,,,,,,331,NW,"ID",33,gilfew,GILFEW,z,,,,,,0.128703719,-0.177777844,0,0,0,,0,168,168,270,1,
,,,,,,,,,,,,,,,,,,5ebf22d18258381b86086132,2020-08-10_17h47.02.780,lexical_decision_task_MP,2020.1.3,Win32,60,z,1,1.132245,,,,,,,,1.132245,1,,,,,,407,NW,"ID",50,suiver,SUIVER,z,,,,,,0.128703719,-0.177777844,0,0,0,,0,169,169,346,1,
,,,,,,,,,,,,,,,,,,5ebf22d18258381b86086132,2020-08-10_17h47.02.780,lexical_decision_task_MP,2020.1.3,Win32,60,z,1,0.982395,,,,,,,,0.982395,1,,,,,,250,NW,UN,50,lupict,MILTED,z,,,,,,0.128703719,-0.177777844,0,0,0,,0,170,170,429,1,
,,,,,,,,,,,,,,,,,,5ebf22d18258381b86086132,2020-08-10_17h47.02.780,lexical_decision_task_MP,2020.1.3,Win32,60,z,1,0.615025,,,,,,,,0.615025,1,,,,,,468,NW,UN,33,padifs,WICTOR,z,,,,,,0.128703719,-0.177777844,0,0,0,,0,171,171,407,1,
,,,,,,,,,,,,,,,,,,5ebf22d18258381b86086132,2020-08-10_17h47.02.780,lexical_decision_task_MP,2020.1.3,Win32,60,m,1,0.507005,,,,,,,,0.507005,1,,,,,,95,WORD,"ID",33,thread,THREAD,m,,,,,,0.128703719,-0.177777844,0,0,0,,0,172,172,34,1,
,,,,,,,,,,,,,,,,,,5ebf22d18258381b86086132,2020-08-10_17h47.02.780,lexical_decision_task_MP,2020.1.3,Win32,60,m,1,0.435585,,,,,,,,0.435585,1,,,,,,137,WORD,"ID",50,finger,FINGER,m,,,,,,0.128703719,-0.177777844,0,0,0,,0,173,173,76,1,
,,,,,,,,,,,,,,,,,,5ebf22d18258381b86086132,2020-08-10_17h47.02.780,lexical_decision_task_MP,2020.1.3,Win32,60,z,1,0.66972,,,,,,,,0.66972,1,,,,,,400,NW,"ID",50,wearox,WEAROX,z,,,,,,0.128703719,-0.177777844,0,0,0,,0,174,174,339,1,
,,,,,,,,,,,,,,,,,,5ebf22d18258381b86086132,2020-08-10_17h47.02.780,lexical_decision_task_MP,2020.1.3,Win32,60,m,1,0.882695,,,,,,,,0.882695,1,,,,,,117,WORD,"ID",33,branch,BRANCH,m,,,,,,0.128703719,-0.177777844,0,0,0,,0,175,175,56,1,
,,,,,,,,,,,,,,,,,,5ebf22d18258381b86086132,2020-08-10_17h47.02.780,lexical_decision_task_MP,2020.1.3,Win32,60,z,1,0.604025,,,,,,,,0.604025,1,,,,,,336,NW,"ID",33,ghodus,GHODUS,z,,,,,,0.128703719,-0.177777844,0,0,0,,0,176,176,275,1,
,,,,,,,,,,,,,,,,,,5ebf22d18258381b86086132,2020-08-10_17h47.02.780,lexical_decision_task_MP,2020.1.3,Win32,60,z,1,1.081945,,,,,,,,1.081945,1,,,,,,247,NW,UN,50,strole,BLARGE,z,,,,,,0.128703719,-0.177777844,0,0,0,,0,177,177,426,1,
,,,,,,,,,,,,,,,,,,5ebf22d18258381b86086132,2020-08-10_17h47.02.780,lexical_decision_task_MP,2020.1.3,Win32,60,z,1,0.648785,,,,,,,,0.648785,1,,,,,,399,NW,"ID",50,fouret,FOURET,z,,,,,,0.128703719,-0.177777844,0,0,0,,0,178,178,338,1,
,,,,,,,,,,,,,,,,,,5ebf22d18258381b86086132,2020-08-10_17h47.02.780,lexical_decision_task_MP,2020.1.3,Win32,60,z,1,0.94821,,,,,,,,0.94821,1,,,,,,266,NW,UN,50,pasink,VARMIT,z,,,,,,0.128703719,-0.177777844,0,0,0,,0,179,179,445,1,
,,,,,,,,,,,,,,,,,,5ebf22d18258381b86086132,2020-08-10_17h47.02.780,lexical_decision_task_MP,2020.1.3,Win32,60,z,1,0.49942,,,,,,,,0.49942,1,,,,,,463,NW,UN,33,chaite,KISPEL,z,,,,,,0.128703719,-0.177777844,0,0,0,,0,180,180,402,1,
,,,,,,,,,,,,,,,,,,5ebf22d18258381b86086132,2020-08-10_17h47.02.780,lexical_decision_task_MP,2020.1.3,Win32,60,z,1,0.60271,,,,,,,,0.60271,1,,,,,,405,NW,"ID",50,flumni,FLUMNI,z,,,,,,0.128703719,-0.177777844,0,0,0,,0,181,181,344,1,
,,,,,,,,,,,,,,,,,,5ebf22d18258381b86086132,2020-08-10_17h47.02.780,lexical_decision_task_MP,2020.1.3,Win32,60,m,1,0.486095,,,,,,,,0.486095,1,,,,,,146,WORD,"ID",50,couple,COUPLE,m,,,,,,0.128703719,-0.177777844,0,0,0,,0,182,182,85,1,
,,,,,,,,,,,,,,,,,,5ebf22d18258381b86086132,2020-08-10_17h47.02.780,lexical_decision_task_MP,2020.1.3,Win32,60,m,1,0.5693,,,,,,,,0.5693,1,,,,,,224,WORD,UN,33,vulgar,PERIOD,m,,,,,,0.128703719,-0.177777844,0,0,0,,0,183,183,163,1,
,,,,,,,,,,,,,,,,,,5ebf22d18258381b86086132,2020-08-10_17h47.02.780,lexical_decision_task_MP,2020.1.3,Win32,60,m,1,0.492505,,,,,,,,0.492505,1,,,,,,56,WORD,UN,50,change,AMBUSH,m,,,,,,0.128703719,-0.177777844,0,0,0,,0,184,184,235,1,
,,,,,,,,,,,,,,,,,,5ebf22d18258381b86086132,2020-08-10_17h47.02.780,lexical_decision_task_MP,2020.1.3,Win32,60,m,1,0.615825,,,,,,,,0.615825,1,,,,,,225,WORD,UN,33,casino,VULGAR,m,,,,,,0.128703719,-0.177777844,0,0,0,,0,185,185,164,1,
,,,,,,,,,,,,,,,,,,5ebf22d18258381b86086132,2020-08-10_17h47.02.780,lexical_decision_task_MP,2020.1.3,Win32,60,m,1,0.482085,,,,,,,,0.482085,1,,,,,,229,WORD,UN,33,fringe,MOTHER,m,,,,,,0.128703719,-0.177777844,0,0,0,,0,186,186,168,1,
,,,,,,,,,,,,,,,,,,5ebf22d18258381b86086132,2020-08-10_17h47.02.780,lexical_decision_task_MP,2020.1.3,Win32,60,m,1,0.964335,,,,,,,,0.964335,1,,,,,,114,WORD,"ID",33,placid,PLACID,m,,,,,,0.128703719,-0.177777844,0,0,0,,0,187,187,53,1,
,,,,,,,,,,,,,,,,,,5ebf22d18258381b86086132,2020-08-10_17h47.02.780,lexical_decision_task_MP,2020.1.3,Win32,60,m,1,0.465525,,,,,,,,0.465525,1,,,,,,223,WORD,UN,33,period,KIDNEY,m,,,,,,0.128703719,-0.177777844,0,0,0,,0,188,188,162,1,
,,,,,,,,,,,,,,,,,,5ebf22d18258381b86086132,2020-08-10_17h47.02.780,lexical_decision_task_MP,2020.1.3,Win32,60,z,1,0.57488,,,,,,,,0.57488,1,,,,,,371,NW,"ID",50,geiloy,GEILOY,z,,,,,,0.128703719,-0.177777844,0,0,0,,0,189,189,310,1,
,,,,,,,,,,,,,,,,,,5ebf22d18258381b86086132,2020-08-10_17h47.02.780,lexical_decision_task_MP,2020.1.3,Win32,60,z,1,0.63122,,,,,,,,0.63122,1,,,,,,390,NW,"ID",50,hatrus,HATRUS,z,,,,,,0.128703719,-0.177777844,0,0,0,,0,190,190,329,1,
,,,,,,,,,,,,,,,,,,5ebf22d18258381b86086132,2020-08-10_17h47.02.780,lexical_decision_task_MP,2020.1.3,Win32,60,z,1,0.56497,,,,,,,,0.56497,1,,,,,,242,NW,UN,50,musied,UNWERT,z,,,,,,0.128703719,-0.177777844,0,0,0,,0,191,191,421,1,
,,,,,,,,,,,,,,,,,,5ebf22d18258381b86086132,2020-08-10_17h47.02.780,lexical_decision_task_MP,2020.1.3,Win32,60,z,1,0.556435,,,,,,,,0.556435,1,,,,,,391,NW,"ID",50,theldy,THELDY,z,,,,,,0.128703719,-0.177777844,0,0,0,,0,192,192,330,1,
,,,,,,,,,,,,,,,,,,5ebf22d18258381b86086132,2020-08-10_17h47.02.780,lexical_decision_task_MP,2020.1.3,Win32,60,z,1,0.47715,,,,,,,,0.47715,1,,,,,,276,NW,UN,50,petain,YARMON,z,,,,,,0.128703719,-0.177777844,0,0,0,,0,193,193,455,1,
,,,,,,,,,,,,,,,,,,5ebf22d18258381b86086132,2020-08-10_17h47.02.780,lexical_decision_task_MP,2020.1.3,Win32,60,m,1,0.465115,,,,,,,,0.465115,1,,,,,,170,WORD,"ID",50,pounce,POUNCE,m,,,,,,0.128703719,-0.177777844,0,0,0,,0,194,194,109,1,
,,,,,,,,,,,,,,,,,,5ebf22d18258381b86086132,2020-08-10_17h47.02.780,lexical_decision_task_MP,2020.1.3,Win32,60,z,1,0.56509,,,,,,,,0.56509,1,,,,,,384,NW,"ID",50,guesco,GUESCO,z,,,,,,0.128703719,-0.177777844,0,0,0,,0,195,195,323,1,
,,,,,,,,,,,,,,,,,,5ebf22d18258381b86086132,2020-08-10_17h47.02.780,lexical_decision_task_MP,2020.1.3,Win32,60,m,1,0.504035,,,,,,,,0.504035,1,,,,,,186,WORD,UN,33,course,PORTAL,m,,,,,,0.128703719,-0.177777844,0,0,0,,0,196,196,125,1,
,,,,,,,,,,,,,,,,,,5ebf22d18258381b86086132,2020-08-10_17h47.02.780,lexical_decision_task_MP,2020.1.3,Win32,60,z,1,0.8084,,,,,,,,0.8084,1,,,,,,448,NW,UN,33,brunge,SADENT,z,,,,,,0.128703719,-0.177777844,0,0,0,,0,197,197,387,1,
,,,,,,,,,,,,,,,,,,5ebf22d18258381b86086132,2020-08-10_17h47.02.780,lexical_decision_task_MP,2020.1.3,Win32,60,z,1,0.520265,,,,,,,,0.520265,1,,,,,,292,NW,UN,50,swance,ABLINT,z,,,,,,0.128703719,-0.177777844,0,0,0,,0,198,198,471,1,
,,,,,,,,,,,,,,,,,,5ebf22d18258381b86086132,2020-08-10_17h47.02.780,lexical_decision_task_MP,2020.1.3,Win32,60,m,1,0.699415,,,,,,,,0.699415,1,,,,,,87,WORD,"ID",33,filter,FILTER,m,,,,,,0.128703719,-0.177777844,0,0,0,,0,199,199,26,1,
,,,,,,,,,,,,,,,,,,5ebf22d18258381b86086132,2020-08-10_17h47.02.780,lexical_decision_task_MP,2020.1.3,Win32,60,m,1,0.50521,,,,,,,,0.50521,1,,,,,,174,WORD,"ID",50,turkey,TURKEY,m,,,,,,0.128703719,-0.177777844,0,0,0,,0,200,200,113,1,
,,,,,,,,,,,,,,,,,,5ebf22d18258381b86086132,2020-08-10_17h47.02.780,lexical_decision_task_MP,2020.1.3,Win32,60,z,1,0.6264,,,,,,,,0.6264,1,,,,,,404,NW,"ID",50,cluirm,CLUIRM,z,,,,,,0.128703719,-0.177777844,0,0,0,,0,201,201,343,1,
,,,,,,,,,,,,,,,,,,5ebf22d18258381b86086132,2020-08-10_17h47.02.780,lexical_decision_task_MP,2020.1.3,Win32,60,z,1,0.581685,,,,,,,,0.581685,1,,,,,,385,NW,"ID",50,veigma,VEIGMA,z,,,,,,0.128703719,-0.177777844,0,0,0,,0,202,202,324,1,
,,,,,,,,,,,,,,,,,,5ebf22d18258381b86086132,2020-08-10_17h47.02.780,lexical_decision_task_MP,2020.1.3,Win32,60,m,1,0.5569,,,,,,,,0.5569,1,,,,,,197,WORD,UN,33,wicked,STREAM,m,,,,,,0.128703719,-0.177777844,0,0,0,,0,203,203,136,1,
,,,,,,,,,,,,,,,,,,5ebf22d18258381b86086132,2020-08-10_17h47.02.780,lexical_decision_task_MP,2020.1.3,Win32,60,z,1,0.566055,,,,,,,,0.566055,1,,,,,,275,NW,UN,50,yarmon,SLEIRT,z,,,,,,0.128703719,-0.177777844,0,0,0,,0,204,204,454,1,
,,,,,,,,,,,,,,,,,,5ebf22d18258381b86086132,2020-08-10_17h47.02.780,lexical_decision_task_MP,2020.1.3,Win32,60,m,1,0.62173,,,,,,,,0.62173,1,,,,,,51,WORD,UN,50,impose,HUNGRY,m,,,,,,0.128703719,-0.177777844,0,0,0,,0,205,205,230,1,
,,,,,,,,,,,,,,,,,,5ebf22d18258381b86086132,2020-08-10_17h47.02.780,lexical_decision_task_MP,2020.1.3,Win32,60,z,1,0.497355,,,,,,,,0.497355,1,,,,,,334,NW,"ID",33,watmeg,WATMEG,z,,,,,,0.128703719,-0.177777844,0,0,0,,0,206,206,273,1,
,,,,,,,,,,,,,,,,,,5ebf22d18258381b86086132,2020-08-10_17h47.02.780,lexical_decision_task_MP,2020.1.3,Win32,60,z,1,0.542445,,,,,,,,0.542445,1,,,,,,251,NW,UN,50,stapod,LUPICT,z,,,,,,0.128703719,-0.177777844,0,0,0,,0,207,207,430,1,
,,,,,,,,,,,,,,,,,,5ebf22d18258381b86086132,2020-08-10_17h47.02.780,lexical_decision_task_MP,2020.1.3,Win32,60,z,1,0.616275,,,,,,,,0.616275,1,,,,,,406,NW,"ID",50,nouply,NOUPLY,z,,,,,,0.128703719,-0.177777844,0,0,0,,0,208,208,345,1,
,,,,,,,,,,,,,,,,,,5ebf22d18258381b86086132,2020-08-10_17h47.02.780,lexical_decision_task_MP,2020.1.3,Win32,60,z,1,0.550755,,,,,,,,0.550755,1,,,,,,421,NW,UN,33,alcoud,KNISMA,z,,,,,,0.128703719,-0.177777844,0,0,0,,0,209,209,360,1,
,,,,,,,,,,,,,,,,,,5ebf22d18258381b86086132,2020-08-10_17h47.02.780,lexical_decision_task_MP,2020.1.3,Win32,60,m,1,0.797275,,,,,,,,0.797275,1,,,,,,97,WORD,"ID",33,client,CLIENT,m,,,,,,0.128703719,-0.177777844,0,0,0,,0,210,210,36,1,
,,,,,,,,,,,,,,,,,,5ebf22d18258381b86086132,2020-08-10_17h47.02.780,lexical_decision_task_MP,2020.1.3,Win32,60,m,1,0.432835,,,,,,,,0.432835,1,,,,,,188,WORD,UN,33,censor,SOCIAL,m,,,,,,0.128703719,-0.177777844,0,0,0,,0,211,211,127,1,
,,,,,,,,,,,,,,,,,,5ebf22d18258381b86086132,2020-08-10_17h47.02.780,lexical_decision_task_MP,2020.1.3,Win32,60,m,1,0.60354,,,,,,,,0.60354,1,,,,,,212,WORD,UN,33,squeal,VERIFY,m,,,,,,0.128703719,-0.177777844,0,0,0,,0,212,212,151,1,
,,,,,,,,,,,,,,,,,,5ebf22d18258381b86086132,2020-08-10_17h47.02.780,lexical_decision_task_MP,2020.1.3,Win32,60,z,1,0.60155,,,,,,,,0.60155,1,,,,,,291,NW,UN,50,ablint,PRETCH,z,,,,,,0.128703719,-0.177777844,0,0,0,,0,213,213,470,1,
,,,,,,,,,,,,,,,,,,5ebf22d18258381b86086132,2020-08-10_17h47.02.780,lexical_decision_task_MP,2020.1.3,Win32,60,m,1,0.648175,,,,,,,,0.648175,1,,,,,,76,WORD,"ID",33,exotic,EXOTIC,m,,,,,,0.128703719,-0.177777844,0,0,0,,0,214,214,15,1,
,,,,,,,,,,,,,,,,,,5ebf22d18258381b86086132,2020-08-10_17h47.02.780,lexical_decision_task_MP,2020.1.3,Win32,60,z,1,0.548625,,,,,,,,0.548625,1,,,,,,365,NW,"ID",50,guairt,GUAIRT,z,,,,,,0.128703719,-0.177777844,0,0,0,,0,215,215,304,1,
,,,,,,,,,,,,,,,,,,5ebf22d18258381b86086132,2020-08-10_17h47.02.780,lexical_decision_task_MP,2020.1.3,Win32,60,m,1,0.656585,,,,,,,,0.656585,1,,,,,,177,WORD,"ID",50,advent,ADVENT,m,,,,,,0.128703719,-0.177777844,0,0,0,,0,216,216,116,1,
,,,,,,,,,,,,,,,,,,5ebf22d18258381b86086132,2020-08-10_17h47.02.780,lexical_decision_task_MP,2020.1.3,Win32,60,m,1,0.5904,,,,,,,,0.5904,1,,,,,,209,WORD,UN,33,monkey,SEARCH,m,,,,,,0.128703719,-0.177777844,0,0,0,,0,217,217,148,1,
,,,,,,,,,,,,,,,,,,5ebf22d18258381b86086132,2020-08-10_17h47.02.780,lexical_decision_task_MP,2020.1.3,Win32,60,m,1,0.70984,,,,,,,,0.70984,1,,,,,,60,WORD,UN,50,fright,PENCIL,m,,,,,,0.128703719,-0.177777844,0,0,0,,0,218,218,239,1,
,,,,,,,,,,,,,,,,,,5ebf22d18258381b86086132,2020-08-10_17h47.02.780,lexical_decision_task_MP,2020.1.3,Win32,60,m,1,0.715755,,,,,,,,0.715755,1,,,,,,82,WORD,"ID",33,stigma,STIGMA,m,,,,,,0.128703719,-0.177777844,0,0,0,,0,219,219,21,1,
,,,,,,,,,,,,,,,,,,5ebf22d18258381b86086132,2020-08-10_17h47.02.780,lexical_decision_task_MP,2020.1.3,Win32,60,m,1,0.566745,,,,,,,,0.566745,1,,,,,,24,WORD,UN,50,domain,PRAISE,m,,,,,,0.128703719,-0.177777844,0,0,0,,0,220,220,203,1,
,,,,,,,,,,,,,,,,,,5ebf22d18258381b86086132,2020-08-10_17h47.02.780,lexical_decision_task_MP,2020.1.3,Win32,60,m,1,0.52048,,,,,,,,0.52048,1,,,,,,17,WORD,UN,50,humble,CHARGE,m,,,,,,0.128703719,-0.177777844,0,0,0,,0,221,221,196,1,
,,,,,,,,,,,,,,,,,,5ebf22d18258381b86086132,2020-08-10_17h47.02.780,lexical_decision_task_MP,2020.1.3,Win32,60,z,1,0.582075,,,,,,,,0.582075,1,,,,,,241,NW,UN,50,unwert,SMENCO,z,,,,,,0.128703719,-0.177777844,0,0,0,,0,222,222,420,1,
,,,,,,,,,,,,,,,,,,5ebf22d18258381b86086132,2020-08-10_17h47.02.780,lexical_decision_task_MP,2020.1.3,Win32,60,z,1,1.83395,,,,,,,,1.83395,1,,,,,,424,NW,UN,33,frudge,PRAILE,z,,,,,,0.128703719,-0.177777844,0,0,0,,0,223,223,363,1,
,,,,,,,,,,,,,,,,,,5ebf22d18258381b86086132,2020-08-10_17h47.02.780,lexical_decision_task_MP,2020.1.3,Win32,60,z,1,0.70238,,,,,,,,0.70238,1,,,,,,296,NW,UN,50,fertic,BEINCH,z,,,,,,0.128703719,-0.177777844,0,0,0,,0,224,224,475,1,
,,,,,,,,,,,,,,,,,,5ebf22d18258381b86086132,2020-08-10_17h47.02.780,lexical_decision_task_MP,2020.1.3,Win32,60,m,1,0.50953,,,,,,,,0.50953,1,,,,,,192,WORD,UN,33,object,PLAGUE,m,,,,,,0.128703719,-0.177777844,0,0,0,,0,225,225,131,1,
,,,,,,,,,,,,,,,,,,5ebf22d18258381b86086132,2020-08-10_17h47.02.780,lexical_decision_task_MP,2020.1.3,Win32,60,m,1,0.485225,,,,,,,,0.485225,1,,,,,,141,WORD,"ID",50,orphan,ORPHAN,m,,,,,,0.128703719,-0.177777844,0,0,0,,0,226,226,80,1,
,,,,,,,,,,,,,,,,,,5ebf22d18258381b86086132,2020-08-10_17h47.02.780,lexical_decision_task_MP,2020.1.3,Win32,60,m,1,0.507705,,,,,,,,0.507705,1,,,,,,142,WORD,"ID",50,spruce,SPRUCE,m,,,,,,0.128703719,-0.177777844,0,0,0,,0,227,227,81,1,
,,,,,,,,,,,,,,,,,,5ebf22d18258381b86086132,2020-08-10_17h47.02.780,lexical_decision_task_MP,2020.1.3,Win32,60,z,1,0.99914,,,,,,,,0.99914,1,,,,,,316,NW,"ID",33,scregm,SCREGM,z,,,,,,0.128703719,-0.177777844,0,0,0,,0,228,228,255,1,
,,,,,,,,,,,,,,,,,,5ebf22d18258381b86086132,2020-08-10_17h47.02.780,lexical_decision_task_MP,2020.1.3,Win32,60,z,1,0.699855,,,,,,,,0.699855,1,,,,,,290,NW,UN,50,pretch,SPLINO,z,,,,,,0.128703719,-0.177777844,0,0,0,,0,229,229,469,1,
,,,,,,,,,,,,,,,,,,5ebf22d18258381b86086132,2020-08-10_17h47.02.780,lexical_decision_task_MP,2020.1.3,Win32,60,z,1,0.69831,,,,,,,,0.69831,1,,,,,,254,NW,UN,50,apight,VAROSH,z,,,,,,0.128703719,-0.177777844,0,0,0,,0,230,230,433,1,
,,,,,,,,,,,,,,,,,,5ebf22d18258381b86086132,2020-08-10_17h47.02.780,lexical_decision_task_MP,2020.1.3,Win32,60,z,1,0.608445,,,,,,,,0.608445,1,,,,,,417,NW,"ID",50,earoud,EAROUD,z,,,,,,0.128703719,-0.177777844,0,0,0,,0,231,231,356,1,
,,,,,,,,,,,,,,,,,,5ebf22d18258381b86086132,2020-08-10_17h47.02.780,lexical_decision_task_MP,2020.1.3,Win32,60,,0,,,,,,,,,0.608445,-1,,,,,,284,NW,UN,50,prudge,SHAPLE,z,,,,,,0.128703719,-0.177777844,0,0,0,,0,232,232,463,1,
,,,,,,,,,,,,,,,,,,5ebf22d18258381b86086132,2020-08-10_17h47.02.780,lexical_decision_task_MP,2020.1.3,Win32,60,m,1,0.882805,,,,,,,,0.882805,1,,,,,,8,WORD,UN,50,hustle,ABRUPT,m,,,,,,0.128703719,-0.177777844,0,0,0,,0,233,233,187,1,
,,,,,,,,,,,,,,,,,,5ebf22d18258381b86086132,2020-08-10_17h47.02.780,lexical_decision_task_MP,2020.1.3,Win32,60,z,1,0.717645,,,,,,,,0.717645,1,,,,,,431,NW,UN,33,lunker,CHRUMS,z,,,,,,0.128703719,-0.177777844,0,0,0,,0,234,234,370,1,
,,,,,,,,,,,,,,,,,,5ebf22d18258381b86086132,2020-08-10_17h47.02.780,lexical_decision_task_MP,2020.1.3,Win32,60,z,1,0.63196,,,,,,,,0.63196,1,,,,,,283,NW,UN,50,shaple,VERALF,z,,,,,,0.128703719,-0.177777844,0,0,0,,0,235,235,462,1,
,,,,,,,,,,,,,,,,,,5ebf22d18258381b86086132,2020-08-10_17h47.02.780,lexical_decision_task_MP,2020.1.3,Win32,60,m,1,0.57438,,,,,,,,0.57438,1,,,,,,162,WORD,"ID",50,candle,CANDLE,m,,,,,,0.128703719,-0.177777844,0,0,0,,0,236,236,101,1,
,,,,,,,,,,,,,,,,,,5ebf22d18258381b86086132,2020-08-10_17h47.02.780,lexical_decision_task_MP,2020.1.3,Win32,60,m,1,0.51774,,,,,,,,0.51774,1,,,,,,120,WORD,"ID",33,strain,STRAIN,m,,,,,,0.128703719,-0.177777844,0,0,0,,0,237,237,59,1,
,,,,,,,,,,,,,,,,,,5ebf22d18258381b86086132,2020-08-10_17h47.02.780,lexical_decision_task_MP,2020.1.3,Win32,60,z,0,0.541735,,,,,,,,0.541735,0,,,,,,176,WORD,"ID",50,strife,STRIFE,m,,,,,,0.128703719,-0.177777844,0,0,0,,0,238,238,115,1,
,,,,,,,,,,,,,,,,,,5ebf22d18258381b86086132,2020-08-10_17h47.02.780,lexical_decision_task_MP,2020.1.3,Win32,60,z,1,0.84879,,,,,,,,0.84879,1,,,,,,314,NW,"ID",33,sprine,SPRINE,z,,,,,,0.128703719,-0.177777844,0,0,0,,0,239,239,253,1,
,,,,,,,,,,,,,,,,,,5ebf22d18258381b86086132,2020-08-10_17h47.02.780,lexical_decision_task_MP,2020.1.3,Win32,60,m,1,0.553185,,,,,,,,0.553185,1,,,,,,69,WORD,"ID",33,plenty,PLENTY,m,,,,,,0.128703719,-0.177777844,0,0,0,,0,240,240,8,1,
,,,,,,,,,,,,,,,,,,5ebf22d18258381b86086132,2020-08-10_17h47.02.780,lexical_decision_task_MP,2020.1.3,Win32,60,m,1,0.532505,,,,,,,,0.532505,1,,,,,,92,WORD,"ID",33,strand,STRAND,m,,,,,,0.128703719,-0.177777844,0,0,0,space,0,241,241,31,1,40.46207
,,,,,,,,,,,,,,,,,,5ebf22d18258381b86086132,2020-08-10_17h47.02.780,lexical_decision_task_MP,2020.1.3,Win32,60,z,1,1.41577,,,,,,,,1.41577,1,,,,,,423,NW,UN,33,praile,STRELD,z,,,,,,0.128703719,-0.177777844,0,0,0,,0,242,242,362,1,
,,,,,,,,,,,,,,,,,,5ebf22d18258381b86086132,2020-08-10_17h47.02.780,lexical_decision_task_MP,2020.1.3,Win32,60,m,1,0.736035,,,,,,,,0.736035,1,,,,,,93,WORD,"ID",33,public,PUBLIC,m,,,,,,0.128703719,-0.177777844,0,0,0,,0,243,243,32,1,
,,,,,,,,,,,,,,,,,,5ebf22d18258381b86086132,2020-08-10_17h47.02.780,lexical_decision_task_MP,2020.1.3,Win32,60,m,1,0.605945,,,,,,,,0.605945,1,,,,,,198,WORD,UN,33,invoke,WICKED,m,,,,,,0.128703719,-0.177777844,0,0,0,,0,244,244,137,1,
,,,,,,,,,,,,,,,,,,5ebf22d18258381b86086132,2020-08-10_17h47.02.780,lexical_decision_task_MP,2020.1.3,Win32,60,z,1,0.648245,,,,,,,,0.648245,1,,,,,,480,NW,UN,33,knisma,ROBULY,z,,,,,,0.128703719,-0.177777844,0,0,0,,0,245,245,419,1,
,,,,,,,,,,,,,,,,,,5ebf22d18258381b86086132,2020-08-10_17h47.02.780,lexical_decision_task_MP,2020.1.3,Win32,60,z,1,0.6154,,,,,,,,0.6154,1,,,,,,315,NW,"ID",33,laston,LASTON,z,,,,,,0.128703719,-0.177777844,0,0,0,,0,246,246,254,1,
,,,,,,,,,,,,,,,,,,5ebf22d18258381b86086132,2020-08-10_17h47.02.780,lexical_decision_task_MP,2020.1.3,Win32,60,m,1,0.636255,,,,,,,,0.636255,1,,,,,,220,WORD,UN,33,mascot,VOYAGE,m,,,,,,0.128703719,-0.177777844,0,0,0,,0,247,247,159,1,
,,,,,,,,,,,,,,,,,,5ebf22d18258381b86086132,2020-08-10_17h47.02.780,lexical_decision_task_MP,2020.1.3,Win32,60,m,1,0.48947,,,,,,,,0.48947,1,,,,,,210,WORD,UN,33,infect,MONKEY,m,,,,,,0.128703719,-0.177777844,0,0,0,,0,248,248,149,1,
,,,,,,,,,,,,,,,,,,5ebf22d18258381b86086132,2020-08-10_17h47.02.780,lexical_decision_task_MP,2020.1.3,Win32,60,z,1,0.5698,,,,,,,,0.5698,1,,,,,,302,NW,"ID",33,miluer,MILUER,z,,,,,,0.128703719,-0.177777844,0,0,0,,0,249,249,241,1,
,,,,,,,,,,,,,,,,,,5ebf22d18258381b86086132,2020-08-10_17h47.02.780,lexical_decision_task_MP,2020.1.3,Win32,60,z,1,1.017165,,,,,,,,1.017165,1,,,,,,277,NW,UN,50,unighs,PETAIN,z,,,,,,0.128703719,-0.177777844,0,0,0,,0,250,250,456,1,
,,,,,,,,,,,,,,,,,,5ebf22d18258381b86086132,2020-08-10_17h47.02.780,lexical_decision_task_MP,2020.1.3,Win32,60,m,1,0.749125,,,,,,,,0.749125,1,,,,,,139,WORD,"ID",50,debris,DEBRIS,m,,,,,,0.128703719,-0.177777844,0,0,0,,0,251,251,78,1,
,,,,,,,,,,,,,,,,,,5ebf22d18258381b86086132,2020-08-10_17h47.02.780,lexical_decision_task_MP,2020.1.3,Win32,60,z,0,0.6809,,,,,,,,0.6809,0,,,,,,171,WORD,"ID",50,depart,DEPART,m,,,,,,0.128703719,-0.177777844,0,0,0,,0,252,252,110,1,
,,,,,,,,,,,,,,,,,,5ebf22d18258381b86086132,2020-08-10_17h47.02.780,lexical_decision_task_MP,2020.1.3,Win32,60,z,1,0.9487,,,,,,,,0.9487,1,,,,,,351,NW,"ID",33,tiesch,TIESCH,z,,,,,,0.128703719,-0.177777844,0,0,0,,0,253,253,290,1,
,,,,,,,,,,,,,,,,,,5ebf22d18258381b86086132,2020-08-10_17h47.02.780,lexical_decision_task_MP,2020.1.3,Win32,60,z,1,0.644095,,,,,,,,0.644095,1,,,,,,295,NW,UN,50,beinch,GLEATH,z,,,,,,0.128703719,-0.177777844,0,0,0,,0,254,254,474,1,
,,,,,,,,,,,,,,,,,,5ebf22d18258381b86086132,2020-08-10_17h47.02.780,lexical_decision_task_MP,2020.1.3,Win32,60,z,1,0.598335,,,,,,,,0.598335,1,,,,,,479,NW,UN,33,crible,LOBUSH,z,,,,,,0.128703719,-0.177777844,0,0,0,,0,255,255,418,1,
,,,,,,,,,,,,,,,,,,5ebf22d18258381b86086132,2020-08-10_17h47.02.780,lexical_decision_task_MP,2020.1.3,Win32,60,m,1,0.54346,,,,,,,,0.54346,1,,,,,,55,WORD,UN,50,ambush,STROKE,m,,,,,,0.128703719,-0.177777844,0,0,0,,0,256,256,234,1,
,,,,,,,,,,,,,,,,,,5ebf22d18258381b86086132,2020-08-10_17h47.02.780,lexical_decision_task_MP,2020.1.3,Win32,60,m,1,0.55146,,,,,,,,0.55146,1,,,,,,45,WORD,UN,50,single,CLERGY,m,,,,,,0.128703719,-0.177777844,0,0,0,,0,257,257,224,1,
,,,,,,,,,,,,,,,,,,5ebf22d18258381b86086132,2020-08-10_17h47.02.780,lexical_decision_task_MP,2020.1.3,Win32,60,m,1,0.598605,,,,,,,,0.598605,1,,,,,,15,WORD,UN,50,faucet,AMOUNT,m,,,,,,0.128703719,-0.177777844,0,0,0,,0,258,258,194,1,
,,,,,,,,,,,,,,,,,,5ebf22d18258381b86086132,2020-08-10_17h47.02.780,lexical_decision_task_MP,2020.1.3,Win32,60,z,1,1.267305,,,,,,,,1.267305,1,,,,,,433,NW,UN,33,pitrom,DRANCE,z,,,,,,0.128703719,-0.177777844,0,0,0,,0,259,259,372,1,
,,,,,,,,,,,,,,,,,,5ebf22d18258381b86086132,2020-08-10_17h47.02.780,lexical_decision_task_MP,2020.1.3,Win32,60,z,1,0.670275,,,,,,,,0.670275,1,,,,,,310,NW,"ID",33,daniet,DANIET,z,,,,,,0.128703719,-0.177777844,0,0,0,,0,260,260,249,1,
,,,,,,,,,,,,,,,,,,5ebf22d18258381b86086132,2020-08-10_17h47.02.780,lexical_decision_task_MP,2020.1.3,Win32,60,m,1,0.5534,,,,,,,,0.5534,1,,,,,,67,WORD,"ID",33,policy,POLICY,m,,,,,,0.128703719,-0.177777844,0,0,0,,0,261,261,6,1,
,,,,,,,,,,,,,,,,,,5ebf22d18258381b86086132,2020-08-10_17h47.02.780,lexical_decision_task_MP,2020.1.3,Win32,60,z,1,0.571975,,,,,,,,0.571975,1,,,,,,445,NW,UN,33,runamo,MINKEL,z,,,,,,0.128703719,-0.177777844,0,0,0,,0,262,262,384,1,
,,,,,,,,,,,,,,,,,,5ebf22d18258381b86086132,2020-08-10_17h47.02.780,lexical_decision_task_MP,2020.1.3,Win32,60,z,1,0.54885,,,,,,,,0.54885,1,,,,,,435,NW,UN,33,frutan,IMPURB,z,,,,,,0.128703719,-0.177777844,0,0,0,,0,263,263,374,1,
,,,,,,,,,,,,,,,,,,5ebf22d18258381b86086132,2020-08-10_17h47.02.780,lexical_decision_task_MP,2020.1.3,Win32,60,m,1,0.513385,,,,,,,,0.513385,1,,,,,,46,WORD,UN,50,income,SINGLE,m,,,,,,0.128703719,-0.177777844,0,0,0,,0,264,264,225,1,
,,,,,,,,,,,,,,,,,,5ebf22d18258381b86086132,2020-08-10_17h47.02.780,lexical_decision_task_MP,2020.1.3,Win32,60,z,1,0.986745,,,,,,,,0.986745,1,,,,,,432,NW,UN,33,drance,LUNKER,z,,,,,,0.128703719,-0.177777844,0,0,0,,0,265,265,371,1,
,,,,,,,,,,,,,,,,,,5ebf22d18258381b86086132,2020-08-10_17h47.02.780,lexical_decision_task_MP,2020.1.3,Win32,60,z,1,0.545655,,,,,,,,0.545655,1,,,,,,269,NW,UN,50,wrimsy,ORCHET,z,,,,,,0.128703719,-0.177777844,0,0,0,,0,266,266,448,1,
,,,,,,,,,,,,,,,,,,5ebf22d18258381b86086132,2020-08-10_17h47.02.780,lexical_decision_task_MP,2020.1.3,Win32,60,m,1,0.513735,,,,,,,,0.513735,1,,,,,,126,WORD,"ID",50,enough,ENOUGH,m,,,,,,0.128703719,-0.177777844,0,0,0,,0,267,267,65,1,
,,,,,,,,,,,,,,,,,,5ebf22d18258381b86086132,2020-08-10_17h47.02.780,lexical_decision_task_MP,2020.1.3,Win32,60,m,1,0.60099,,,,,,,,0.60099,1,,,,,,18,WORD,UN,50,patron,HUMBLE,m,,,,,,0.128703719,-0.177777844,0,0,0,,0,268,268,197,1,
,,,,,,,,,,,,,,,,,,5ebf22d18258381b86086132,2020-08-10_17h47.02.780,lexical_decision_task_MP,2020.1.3,Win32,60,z,1,0.898635,,,,,,,,0.898635,1,,,,,,376,NW,"ID",50,iguare,IGUARE,z,,,,,,0.128703719,-0.177777844,0,0,0,,0,269,269,315,1,
,,,,,,,,,,,,,,,,,,5ebf22d18258381b86086132,2020-08-10_17h47.02.780,lexical_decision_task_MP,2020.1.3,Win32,60,z,1,0.615115,,,,,,,,0.615115,1,,,,,,258,NW,UN,50,soudal,POLUTH,z,,,,,,0.128703719,-0.177777844,0,0,0,,0,270,270,437,1,
,,,,,,,,,,,,,,,,,,5ebf22d18258381b86086132,2020-08-10_17h47.02.780,lexical_decision_task_MP,2020.1.3,Win32,60,z,1,0.598835,,,,,,,,0.598835,1,,,,,,328,NW,"ID",33,broake,BROAKE,z,,,,,,0.128703719,-0.177777844,0,0,0,,0,271,271,267,1,
,,,,,,,,,,,,,,,,,,5ebf22d18258381b86086132,2020-08-10_17h47.02.780,lexical_decision_task_MP,2020.1.3,Win32,60,m,1,0.581125,,,,,,,,0.581125,1,,,,,,193,WORD,UN,33,mildew,OBJECT,m,,,,,,0.128703719,-0.177777844,0,0,0,,0,272,272,132,1,
,,,,,,,,,,,,,,,,,,5ebf22d18258381b86086132,2020-08-10_17h47.02.780,lexical_decision_task_MP,2020.1.3,Win32,60,m,0,0.767745,,,,,,,,0.767745,0,,,,,,413,NW,"ID",50,equats,EQUATS,z,,,,,,0.128703719,-0.177777844,0,0,0,,0,273,273,352,1,
,,,,,,,,,,,,,,,,,,5ebf22d18258381b86086132,2020-08-10_17h47.02.780,lexical_decision_task_MP,2020.1.3,Win32,60,z,1,0.71468,,,,,,,,0.71468,1,,,,,,465,NW,UN,33,bafent,WHIVEX,z,,,,,,0.128703719,-0.177777844,0,0,0,,0,274,274,404,1,
,,,,,,,,,,,,,,,,,,5ebf22d18258381b86086132,2020-08-10_17h47.02.780,lexical_decision_task_MP,2020.1.3,Win32,60,z,1,0.566795,,,,,,,,0.566795,1,,,,,,279,NW,UN,50,curbol,CELOND,z,,,,,,0.128703719,-0.177777844,0,0,0,,0,275,275,458,1,
,,,,,,,,,,,,,,,,,,5ebf22d18258381b86086132,2020-08-10_17h47.02.780,lexical_decision_task_MP,2020.1.3,Win32,60,m,1,0.5044,,,,,,,,0.5044,1,,,,,,158,WORD,"ID",50,island,ISLAND,m,,,,,,0.128703719,-0.177777844,0,0,0,,0,276,276,97,1,
,,,,,,,,,,,,,,,,,,5ebf22d18258381b86086132,2020-08-10_17h47.02.780,lexical_decision_task_MP,2020.1.3,Win32,60,z,1,0.83364,,,,,,,,0.83364,1,,,,,,436,NW,UN,33,snapel,FRUTAN,z,,,,,,0.128703719,-0.177777844,0,0,0,,0,277,277,375,1,
,,,,,,,,,,,,,,,,,,5ebf22d18258381b86086132,2020-08-10_17h47.02.780,lexical_decision_task_MP,2020.1.3,Win32,60,m,0,0.70801,,,,,,,,0.70801,0,,,,,,282,NW,UN,50,veralf,PORLEX,z,,,,,,0.128703719,-0.177777844,0,0,0,,0,278,278,461,1,
,,,,,,,,,,,,,,,,,,5ebf22d18258381b86086132,2020-08-10_17h47.02.780,lexical_decision_task_MP,2020.1.3,Win32,60,m,1,0.632985,,,,,,,,0.632985,1,,,,,,143,WORD,"ID",50,reason,REASON,m,,,,,,0.128703719,-0.177777844,0,0,0,,0,279,279,82,1,
,,,,,,,,,,,,,,,,,,5ebf22d18258381b86086132,2020-08-10_17h47.02.780,lexical_decision_task_MP,2020.1.3,Win32,60,z,1,0.631555,,,,,,,,0.631555,1,,,,,,285,NW,UN,50,reldon,PRUDGE,z,,,,,,0.128703719,-0.177777844,0,0,0,,0,280,280,464,1,
,,,,,,,,,,,,,,,,,,5ebf22d18258381b86086132,2020-08-10_17h47.02.780,lexical_decision_task_MP,2020.1.3,Win32,60,z,1,0.800515,,,,,,,,0.800515,1,,,,,,273,NW,UN,50,fumblo,SORTEL,z,,,,,,0.128703719,-0.177777844,0,0,0,,0,281,281,452,1,
,,,,,,,,,,,,,,,,,,5ebf22d18258381b86086132,2020-08-10_17h47.02.780,lexical_decision_task_MP,2020.1.3,Win32,60,z,1,0.68195,,,,,,,,0.68195,1,,,,,,363,NW,"ID",50,breali,BREALI,z,,,,,,0.128703719,-0.177777844,0,0,0,,0,282,282,302,1,
,,,,,,,,,,,,,,,,,,5ebf22d18258381b86086132,2020-08-10_17h47.02.780,lexical_decision_task_MP,2020.1.3,Win32,60,z,1,0.449355,,,,,,,,0.449355,1,,,,,,446,NW,UN,33,gircue,RUNAMO,z,,,,,,0.128703719,-0.177777844,0,0,0,,0,283,283,385,1,
,,,,,,,,,,,,,,,,,,5ebf22d18258381b86086132,2020-08-10_17h47.02.780,lexical_decision_task_MP,2020.1.3,Win32,60,m,1,1.00169,,,,,,,,1.00169,1,,,,,,199,WORD,UN,33,plague,INVOKE,m,,,,,,0.128703719,-0.177777844,0,0,0,,0,284,284,138,1,
,,,,,,,,,,,,,,,,,,5ebf22d18258381b86086132,2020-08-10_17h47.02.780,lexical_decision_task_MP,2020.1.3,Win32,60,z,1,0.658555,,,,,,,,0.658555,1,,,,,,475,NW,UN,33,josted,PEBRIC,z,,,,,,0.128703719,-0.177777844,0,0,0,,0,285,285,414,1,
,,,,,,,,,,,,,,,,,,5ebf22d18258381b86086132,2020-08-10_17h47.02.780,lexical_decision_task_MP,2020.1.3,Win32,60,m,1,0.498465,,,,,,,,0.498465,1,,,,,,34,WORD,UN,50,socket,JUNGLE,m,,,,,,0.128703719,-0.177777844,0,0,0,,0,286,286,213,1,
,,,,,,,,,,,,,,,,,,5ebf22d18258381b86086132,2020-08-10_17h47.02.780,lexical_decision_task_MP,2020.1.3,Win32,60,m,1,0.66476,,,,,,,,0.66476,1,,,,,,10,WORD,UN,50,cruise,ETHNIC,m,,,,,,0.128703719,-0.177777844,0,0,0,,0,287,287,189,1,
,,,,,,,,,,,,,,,,,,5ebf22d18258381b86086132,2020-08-10_17h47.02.780,lexical_decision_task_MP,2020.1.3,Win32,60,m,1,0.548945,,,,,,,,0.548945,1,,,,,,208,WORD,UN,33,search,HOCKEY,m,,,,,,0.128703719,-0.177777844,0,0,0,,0,288,288,147,1,
,,,,,,,,,,,,,,,,,,5ebf22d18258381b86086132,2020-08-10_17h47.02.780,lexical_decision_task_MP,2020.1.3,Win32,60,m,1,0.623915,,,,,,,,0.623915,1,,,,,,235,WORD,UN,33,pirate,GRUMPY,m,,,,,,0.128703719,-0.177777844,0,0,0,,0,289,289,174,1,
,,,,,,,,,,,,,,,,,,5ebf22d18258381b86086132,2020-08-10_17h47.02.780,lexical_decision_task_MP,2020.1.3,Win32,60,z,1,0.837915,,,,,,,,0.837915,1,,,,,,470,NW,UN,33,nobest,CRUDIO,z,,,,,,0.128703719,-0.177777844,0,0,0,,0,290,290,409,1,
,,,,,,,,,,,,,,,,,,5ebf22d18258381b86086132,2020-08-10_17h47.02.780,lexical_decision_task_MP,2020.1.3,Win32,60,z,1,0.897405,,,,,,,,0.897405,1,,,,,,305,NW,"ID",33,forgle,FORGLE,z,,,,,,0.128703719,-0.177777844,0,0,0,,0,291,291,244,1,
,,,,,,,,,,,,,,,,,,5ebf22d18258381b86086132,2020-08-10_17h47.02.780,lexical_decision_task_MP,2020.1.3,Win32,60,m,1,0.514775,,,,,,,,0.514775,1,,,,,,113,WORD,"ID",33,chorus,CHORUS,m,,,,,,0.128703719,-0.177777844,0,0,0,,0,292,292,52,1,
,,,,,,,,,,,,,,,,,,5ebf22d18258381b86086132,2020-08-10_17h47.02.780,lexical_decision_task_MP,2020.1.3,Win32,60,m,1,0.921755,,,,,,,,0.921755,1,,,,,,1,WORD,UN,50,ethnic,FRIGHT,m,,,,,,0.128703719,-0.177777844,0,0,0,,0,293,293,180,1,
,,,,,,,,,,,,,,,,,,5ebf22d18258381b86086132,2020-08-10_17h47.02.780,lexical_decision_task_MP,2020.1.3,Win32,60,m,1,0.92362,,,,,,,,0.92362,1,,,,,,59,WORD,UN,50,pencil,SPLINT,m,,,,,,0.128703719,-0.177777844,0,0,0,,0,294,294,238,1,
,,,,,,,,,,,,,,,,,,5ebf22d18258381b86086132,2020-08-10_17h47.02.780,lexical_decision_task_MP,2020.1.3,Win32,60,z,1,0.731635,,,,,,,,0.731635,1,,,,,,322,NW,"ID",33,slanch,SLANCH,z,,,,,,0.128703719,-0.177777844,0,0,0,,0,295,295,261,1,
,,,,,,,,,,,,,,,,,,5ebf22d18258381b86086132,2020-08-10_17h47.02.780,lexical_decision_task_MP,2020.1.3,Win32,60,m,0,1.40449,,,,,,,,1.40449,0,,,,,,345,NW,"ID",33,absend,ABSEND,z,,,,,,0.128703719,-0.177777844,0,0,0,,0,296,296,284,1,
,,,,,,,,,,,,,,,,,,5ebf22d18258381b86086132,2020-08-10_17h47.02.780,lexical_decision_task_MP,2020.1.3,Win32,60,m,1,0.51635,,,,,,,,0.51635,1,,,,,,152,WORD,"ID",50,rocket,ROCKET,m,,,,,,0.128703719,-0.177777844,0,0,0,,0,297,297,91,1,
,,,,,,,,,,,,,,,,,,5ebf22d18258381b86086132,2020-08-10_17h47.02.780,lexical_decision_task_MP,2020.1.3,Win32,60,m,1,0.870455,,,,,,,,0.870455,1,,,,,,207,WORD,UN,33,hockey,WREATH,m,,,,,,0.128703719,-0.177777844,0,0,0,,0,298,298,146,1,
,,,,,,,,,,,,,,,,,,5ebf22d18258381b86086132,2020-08-10_17h47.02.780,lexical_decision_task_MP,2020.1.3,Win32,60,z,1,0.66527,,,,,,,,0.66527,1,,,,,,460,NW,UN,33,justre,MINGAR,z,,,,,,0.128703719,-0.177777844,0,0,0,,0,299,299,399,1,
,,,,,,,,,,,,,,,,,,5ebf22d18258381b86086132,2020-08-10_17h47.02.780,lexical_decision_task_MP,2020.1.3,Win32,60,m,1,0.61509,,,,,,,,0.61509,1,,,,,,57,WORD,UN,50,danger,CHANGE,m,,,,,,0.128703719,-0.177777844,0,0,0,,0,300,300,236,1,
,,,,,,,,,,,,,,,,,,5ebf22d18258381b86086132,2020-08-10_17h47.02.780,lexical_decision_task_MP,2020.1.3,Win32,60,m,1,0.47651,,,,,,,,0.47651,1,,,,,,165,WORD,"ID",50,invest,INVEST,m,,,,,,0.128703719,-0.177777844,0,0,0,,0,301,301,104,1,
,,,,,,,,,,,,,,,,,,5ebf22d18258381b86086132,2020-08-10_17h47.02.780,lexical_decision_task_MP,2020.1.3,Win32,60,m,1,1.099065,,,,,,,,1.099065,1,,,,,,108,WORD,"ID",33,reckon,RECKON,m,,,,,,0.128703719,-0.177777844,0,0,0,,0,302,302,47,1,
,,,,,,,,,,,,,,,,,,5ebf22d18258381b86086132,2020-08-10_17h47.02.780,lexical_decision_task_MP,2020.1.3,Win32,60,m,1,0.847705,,,,,,,,0.847705,1,,,,,,90,WORD,"ID",33,relish,RELISH,m,,,,,,0.128703719,-0.177777844,0,0,0,,0,303,303,29,1,
,,,,,,,,,,,,,,,,,,5ebf22d18258381b86086132,2020-08-10_17h47.02.780,lexical_decision_task_MP,2020.1.3,Win32,60,z,1,0.54812,,,,,,,,0.54812,1,,,,,,450,NW,UN,33,cainky,PHRECT,z,,,,,,0.128703719,-0.177777844,0,0,0,,0,304,304,389,1,
,,,,,,,,,,,,,,,,,,5ebf22d18258381b86086132,2020-08-10_17h47.02.780,lexical_decision_task_MP,2020.1.3,Win32,60,z,1,0.583245,,,,,,,,0.583245,1,,,,,,379,NW,"ID",50,auting,AUTING,z,,,,,,0.128703719,-0.177777844,0,0,0,,0,305,305,318,1,
,,,,,,,,,,,,,,,,,,5ebf22d18258381b86086132,2020-08-10_17h47.02.780,lexical_decision_task_MP,2020.1.3,Win32,60,m,1,1.32572,,,,,,,,1.32572,1,,,,,,89,WORD,"ID",33,permit,PERMIT,m,,,,,,0.128703719,-0.177777844,0,0,0,,0,306,306,28,1,
,,,,,,,,,,,,,,,,,,5ebf22d18258381b86086132,2020-08-10_17h47.02.780,lexical_decision_task_MP,2020.1.3,Win32,60,z,1,0.782345,,,,,,,,0.782345,1,,,,,,401,NW,"ID",50,mustil,MUSTIL,z,,,,,,0.128703719,-0.177777844,0,0,0,,0,307,307,340,1,
,,,,,,,,,,,,,,,,,,5ebf22d18258381b86086132,2020-08-10_17h47.02.780,lexical_decision_task_MP,2020.1.3,Win32,60,z,1,0.689725,,,,,,,,0.689725,1,,,,,,410,NW,"ID",50,tunory,TUNORY,z,,,,,,0.128703719,-0.177777844,0,0,0,,0,308,308,349,1,
,,,,,,,,,,,,,,,,,,5ebf22d18258381b86086132,2020-08-10_17h47.02.780,lexical_decision_task_MP,2020.1.3,Win32,60,m,1,0.536535,,,,,,,,0.536535,1,,,,,,160,WORD,"ID",50,violet,VIOLET,m,,,,,,0.128703719,-0.177777844,0,0,0,,0,309,309,99,1,
,,,,,,,,,,,,,,,,,,5ebf22d18258381b86086132,2020-08-10_17h47.02.780,lexical_decision_task_MP,2020.1.3,Win32,60,m,1,0.569515,,,,,,,,0.569515,1,,,,,,102,WORD,"ID",33,direct,DIRECT,m,,,,,,0.128703719,-0.177777844,0,0,0,,0,310,310,41,1,
,,,,,,,,,,,,,,,,,,5ebf22d18258381b86086132,2020-08-10_17h47.02.780,lexical_decision_task_MP,2020.1.3,Win32,60,m,1,0.50879,,,,,,,,0.50879,1,,,,,,149,WORD,"ID",50,invade,INVADE,m,,,,,,0.128703719,-0.177777844,0,0,0,,0,311,311,88,1,
,,,,,,,,,,,,,,,,,,5ebf22d18258381b86086132,2020-08-10_17h47.02.780,lexical_decision_task_MP,2020.1.3,Win32,60,m,1,0.531705,,,,,,,,0.531705,1,,,,,,6,WORD,UN,50,anchor,BUNDLE,m,,,,,,0.128703719,-0.177777844,0,0,0,,0,312,312,185,1,
,,,,,,,,,,,,,,,,,,5ebf22d18258381b86086132,2020-08-10_17h47.02.780,lexical_decision_task_MP,2020.1.3,Win32,60,z,0,0.6155,,,,,,,,0.6155,0,,,,,,86,WORD,"ID",33,rodent,RODENT,m,,,,,,0.128703719,-0.177777844,0,0,0,,0,313,313,25,1,
,,,,,,,,,,,,,,,,,,5ebf22d18258381b86086132,2020-08-10_17h47.02.780,lexical_decision_task_MP,2020.1.3,Win32,60,m,1,0.564005,,,,,,,,0.564005,1,,,,,,62,WORD,"ID",33,region,REGION,m,,,,,,0.128703719,-0.177777844,0,0,0,,0,314,314,1,1,
,,,,,,,,,,,,,,,,,,5ebf22d18258381b86086132,2020-08-10_17h47.02.780,lexical_decision_task_MP,2020.1.3,Win32,60,m,1,0.550545,,,,,,,,0.550545,1,,,,,,129,WORD,"ID",50,marvel,MARVEL,m,,,,,,0.128703719,-0.177777844,0,0,0,,0,315,315,68,1,
,,,,,,,,,,,,,,,,,,5ebf22d18258381b86086132,2020-08-10_17h47.02.780,lexical_decision_task_MP,2020.1.3,Win32,60,z,1,0.61474,,,,,,,,0.61474,1,,,,,,393,NW,"ID",50,ganous,GANOUS,z,,,,,,0.128703719,-0.177777844,0,0,0,,0,316,316,332,1,
,,,,,,,,,,,,,,,,,,5ebf22d18258381b86086132,2020-08-10_17h47.02.780,lexical_decision_task_MP,2020.1.3,Win32,60,m,1,0.63835,,,,,,,,0.63835,1,,,,,,42,WORD,UN,50,tongue,CHAPEL,m,,,,,,0.128703719,-0.177777844,0,0,0,,0,317,317,221,1,
,,,,,,,,,,,,,,,,,,5ebf22d18258381b86086132,2020-08-10_17h47.02.780,lexical_decision_task_MP,2020.1.3,Win32,60,m,1,0.448305,,,,,,,,0.448305,1,,,,,,80,WORD,"ID",33,family,FAMILY,m,,,,,,0.128703719,-0.177777844,0,0,0,,0,318,318,19,1,
,,,,,,,,,,,,,,,,,,5ebf22d18258381b86086132,2020-08-10_17h47.02.780,lexical_decision_task_MP,2020.1.3,Win32,60,m,1,0.682145,,,,,,,,0.682145,1,,,,,,131,WORD,"ID",50,quench,QUENCH,m,,,,,,0.128703719,-0.177777844,0,0,0,,0,319,319,70,1,
,,,,,,,,,,,,,,,,,,5ebf22d18258381b86086132,2020-08-10_17h47.02.780,lexical_decision_task_MP,2020.1.3,Win32,60,z,1,0.664575,,,,,,,,0.664575,1,,,,,,346,NW,"ID",33,saudic,SAUDIC,z,,,,,,0.128703719,-0.177777844,0,0,0,,0,320,320,285,1,
,,,,,,,,,,,,,,,,,,5ebf22d18258381b86086132,2020-08-10_17h47.02.780,lexical_decision_task_MP,2020.1.3,Win32,60,m,1,0.59998,,,,,,,,0.59998,1,,,,,,100,WORD,"ID",33,carbon,CARBON,m,,,,,,0.128703719,-0.177777844,0,0,0,,0,321,321,39,1,
,,,,,,,,,,,,,,,,,,5ebf22d18258381b86086132,2020-08-10_17h47.02.780,lexical_decision_task_MP,2020.1.3,Win32,60,z,0,0.700715,,,,,,,,0.700715,0,,,,,,77,WORD,"ID",33,racket,RACKET,m,,,,,,0.128703719,-0.177777844,0,0,0,,0,322,322,16,1,
,,,,,,,,,,,,,,,,,,5ebf22d18258381b86086132,2020-08-10_17h47.02.780,lexical_decision_task_MP,2020.1.3,Win32,60,z,1,0.657065,,,,,,,,0.657065,1,,,,,,477,NW,UN,33,lobush,PHOTIE,z,,,,,,0.128703719,-0.177777844,0,0,0,,0,323,323,416,1,
,,,,,,,,,,,,,,,,,,5ebf22d18258381b86086132,2020-08-10_17h47.02.780,lexical_decision_task_MP,2020.1.3,Win32,60,m,1,0.740575,,,,,,,,0.740575,1,,,,,,204,WORD,UN,33,lounge,BURDEN,m,,,,,,0.128703719,-0.177777844,0,0,0,,0,324,324,143,1,
,,,,,,,,,,,,,,,,,,5ebf22d18258381b86086132,2020-08-10_17h47.02.780,lexical_decision_task_MP,2020.1.3,Win32,60,z,1,0.8722,,,,,,,,0.8722,1,,,,,,442,NW,UN,33,dorsex,ABOUNE,z,,,,,,0.128703719,-0.177777844,0,0,0,,0,325,325,381,1,
,,,,,,,,,,,,,,,,,,5ebf22d18258381b86086132,2020-08-10_17h47.02.780,lexical_decision_task_MP,2020.1.3,Win32,60,m,1,0.753305,,,,,,,,0.753305,1,,,,,,123,WORD,"ID",50,strike,STRIKE,m,,,,,,0.128703719,-0.177777844,0,0,0,,0,326,326,62,1,
,,,,,,,,,,,,,,,,,,5ebf22d18258381b86086132,2020-08-10_17h47.02.780,lexical_decision_task_MP,2020.1.3,Win32,60,z,1,0.598305,,,,,,,,0.598305,1,,,,,,288,NW,UN,50,starby,YACEUP,z,,,,,,0.128703719,-0.177777844,0,0,0,,0,327,327,467,1,
,,,,,,,,,,,,,,,,,,5ebf22d18258381b86086132,2020-08-10_17h47.02.780,lexical_decision_task_MP,2020.1.3,Win32,60,m,1,0.538825,,,,,,,,0.538825,1,,,,,,181,WORD,UN,33,winter,GLANCE,m,,,,,,0.128703719,-0.177777844,0,0,0,,0,328,328,120,1,
,,,,,,,,,,,,,,,,,,5ebf22d18258381b86086132,2020-08-10_17h47.02.780,lexical_decision_task_MP,2020.1.3,Win32,60,z,1,1.21706,,,,,,,,1.21706,1,,,,,,246,NW,UN,50,blarge,PIATON,z,,,,,,0.128703719,-0.177777844,0,0,0,,0,329,329,425,1,
,,,,,,,,,,,,,,,,,,5ebf22d18258381b86086132,2020-08-10_17h47.02.780,lexical_decision_task_MP,2020.1.3,Win32,60,z,1,1.279935,,,,,,,,1.279935,1,,,,,,449,NW,UN,33,phrect,BRUNGE,z,,,,,,0.128703719,-0.177777844,0,0,0,,0,330,330,388,1,
,,,,,,,,,,,,,,,,,,5ebf22d18258381b86086132,2020-08-10_17h47.02.780,lexical_decision_task_MP,2020.1.3,Win32,60,m,1,0.767255,,,,,,,,0.767255,1,,,,,,16,WORD,UN,50,charge,FAUCET,m,,,,,,0.128703719,-0.177777844,0,0,0,,0,331,331,195,1,
,,,,,,,,,,,,,,,,,,5ebf22d18258381b86086132,2020-08-10_17h47.02.780,lexical_decision_task_MP,2020.1.3,Win32,60,z,1,1.450045,,,,,,,,1.450045,1,,,,,,438,NW,UN,33,limpor,BAITCH,z,,,,,,0.128703719,-0.177777844,0,0,0,,0,332,332,377,1,
,,,,,,,,,,,,,,,,,,5ebf22d18258381b86086132,2020-08-10_17h47.02.780,lexical_decision_task_MP,2020.1.3,Win32,60,m,1,0.533955,,,,,,,,0.533955,1,,,,,,138,WORD,"ID",50,melody,MELODY,m,,,,,,0.128703719,-0.177777844,0,0,0,,0,333,333,77,1,
,,,,,,,,,,,,,,,,,,5ebf22d18258381b86086132,2020-08-10_17h47.02.780,lexical_decision_task_MP,2020.1.3,Win32,60,m,1,1.268385,,,,,,,,1.268385,1,,,,,,50,WORD,UN,50,hungry,SNATCH,m,,,,,,0.128703719,-0.177777844,0,0,0,,0,334,334,229,1,
,,,,,,,,,,,,,,,,,,5ebf22d18258381b86086132,2020-08-10_17h47.02.780,lexical_decision_task_MP,2020.1.3,Win32,60,m,1,0.517625,,,,,,,,0.517625,1,,,,,,140,WORD,"ID",50,prince,PRINCE,m,,,,,,0.128703719,-0.177777844,0,0,0,,0,335,335,79,1,
,,,,,,,,,,,,,,,,,,5ebf22d18258381b86086132,2020-08-10_17h47.02.780,lexical_decision_task_MP,2020.1.3,Win32,60,m,0,0.446615,,,,,,,,0.446615,0,,,,,,348,NW,"ID",33,dumple,DUMPLE,z,,,,,,0.128703719,-0.177777844,0,0,0,,0,336,336,287,1,
,,,,,,,,,,,,,,,,,,5ebf22d18258381b86086132,2020-08-10_17h47.02.780,lexical_decision_task_MP,2020.1.3,Win32,60,z,1,0.60125,,,,,,,,0.60125,1,,,,,,369,NW,"ID",50,wronch,WRONCH,z,,,,,,0.128703719,-0.177777844,0,0,0,,0,337,337,308,1,
,,,,,,,,,,,,,,,,,,5ebf22d18258381b86086132,2020-08-10_17h47.02.780,lexical_decision_task_MP,2020.1.3,Win32,60,z,1,0.98624,,,,,,,,0.98624,1,,,,,,301,NW,"ID",33,fainch,FAINCH,z,,,,,,0.128703719,-0.177777844,0,0,0,,0,338,338,240,1,
,,,,,,,,,,,,,,,,,,5ebf22d18258381b86086132,2020-08-10_17h47.02.780,lexical_decision_task_MP,2020.1.3,Win32,60,z,1,1.193845,,,,,,,,1.193845,1,,,,,,394,NW,"ID",50,spaqux,SPAQUX,z,,,,,,0.128703719,-0.177777844,0,0,0,,0,339,339,333,1,
,,,,,,,,,,,,,,,,,,5ebf22d18258381b86086132,2020-08-10_17h47.02.780,lexical_decision_task_MP,2020.1.3,Win32,60,m,1,0.689795,,,,,,,,0.689795,1,,,,,,99,WORD,"ID",33,fluent,FLUENT,m,,,,,,0.128703719,-0.177777844,0,0,0,,0,340,340,38,1,
,,,,,,,,,,,,,,,,,,5ebf22d18258381b86086132,2020-08-10_17h47.02.780,lexical_decision_task_MP,2020.1.3,Win32,60,m,1,0.61992,,,,,,,,0.61992,1,,,,,,134,WORD,"ID",50,staple,STAPLE,m,,,,,,0.128703719,-0.177777844,0,0,0,,0,341,341,73,1,
,,,,,,,,,,,,,,,,,,5ebf22d18258381b86086132,2020-08-10_17h47.02.780,lexical_decision_task_MP,2020.1.3,Win32,60,z,1,0.582905,,,,,,,,0.582905,1,,,,,,323,NW,"ID",33,rosail,ROSAIL,z,,,,,,0.128703719,-0.177777844,0,0,0,,0,342,342,262,1,
,,,,,,,,,,,,,,,,,,5ebf22d18258381b86086132,2020-08-10_17h47.02.780,lexical_decision_task_MP,2020.1.3,Win32,60,m,1,1.188975,,,,,,,,1.188975,1,,,,,,226,WORD,UN,33,flower,CASINO,m,,,,,,0.128703719,-0.177777844,0,0,0,,0,343,343,165,1,
,,,,,,,,,,,,,,,,,,5ebf22d18258381b86086132,2020-08-10_17h47.02.780,lexical_decision_task_MP,2020.1.3,Win32,60,m,1,0.574025,,,,,,,,0.574025,1,,,,,,43,WORD,UN,50,foster,TONGUE,m,,,,,,0.128703719,-0.177777844,0,0,0,,0,344,344,222,1,
,,,,,,,,,,,,,,,,,,5ebf22d18258381b86086132,2020-08-10_17h47.02.780,lexical_decision_task_MP,2020.1.3,Win32,60,m,1,0.609155,,,,,,,,0.609155,1,,,,,,11,WORD,UN,50,amount,CRUISE,m,,,,,,0.128703719,-0.177777844,0,0,0,,0,345,345,190,1,
,,,,,,,,,,,,,,,,,,5ebf22d18258381b86086132,2020-08-10_17h47.02.780,lexical_decision_task_MP,2020.1.3,Win32,60,z,1,0.877025,,,,,,,,0.877025,1,,,,,,260,NW,UN,50,stunch,UNJECT,z,,,,,,0.128703719,-0.177777844,0,0,0,,0,346,346,439,1,
,,,,,,,,,,,,,,,,,,5ebf22d18258381b86086132,2020-08-10_17h47.02.780,lexical_decision_task_MP,2020.1.3,Win32,60,m,1,0.54004,,,,,,,,0.54004,1,,,,,,118,WORD,"ID",33,flight,FLIGHT,m,,,,,,0.128703719,-0.177777844,0,0,0,,0,347,347,57,1,
,,,,,,,,,,,,,,,,,,5ebf22d18258381b86086132,2020-08-10_17h47.02.780,lexical_decision_task_MP,2020.1.3,Win32,60,z,1,0.74985,,,,,,,,0.74985,1,,,,,,396,NW,"ID",50,flengy,FLENGY,z,,,,,,0.128703719,-0.177777844,0,0,0,,0,348,348,335,1,
,,,,,,,,,,,,,,,,,,5ebf22d18258381b86086132,2020-08-10_17h47.02.780,lexical_decision_task_MP,2020.1.3,Win32,60,m,1,0.699975,,,,,,,,0.699975,1,,,,,,40,WORD,UN,50,spring,CONVEY,m,,,,,,0.128703719,-0.177777844,0,0,0,,0,349,349,219,1,
,,,,,,,,,,,,,,,,,,5ebf22d18258381b86086132,2020-08-10_17h47.02.780,lexical_decision_task_MP,2020.1.3,Win32,60,m,1,0.68318,,,,,,,,0.68318,1,,,,,,96,WORD,"ID",33,ignore,IGNORE,m,,,,,,0.128703719,-0.177777844,0,0,0,,0,350,350,35,1,
,,,,,,,,,,,,,,,,,,5ebf22d18258381b86086132,2020-08-10_17h47.02.780,lexical_decision_task_MP,2020.1.3,Win32,60,m,1,0.516635,,,,,,,,0.516635,1,,,,,,179,WORD,"ID",50,basket,BASKET,m,,,,,,0.128703719,-0.177777844,0,0,0,,0,351,351,118,1,
,,,,,,,,,,,,,,,,,,5ebf22d18258381b86086132,2020-08-10_17h47.02.780,lexical_decision_task_MP,2020.1.3,Win32,60,m,1,0.823755,,,,,,,,0.823755,1,,,,,,85,WORD,"ID",33,sprawl,SPRAWL,m,,,,,,0.128703719,-0.177777844,0,0,0,,0,352,352,24,1,
,,,,,,,,,,,,,,,,,,5ebf22d18258381b86086132,2020-08-10_17h47.02.780,lexical_decision_task_MP,2020.1.3,Win32,60,z,1,0.816865,,,,,,,,0.816865,1,,,,,,360,NW,"ID",33,desory,DESORY,z,,,,,,0.128703719,-0.177777844,0,0,0,,0,353,353,299,1,
,,,,,,,,,,,,,,,,,,5ebf22d18258381b86086132,2020-08-10_17h47.02.780,lexical_decision_task_MP,2020.1.3,Win32,60,m,1,0.54279,,,,,,,,0.54279,1,,,,,,23,WORD,UN,50,praise,WEALTH,m,,,,,,0.128703719,-0.177777844,0,0,0,,0,354,354,202,1,
,,,,,,,,,,,,,,,,,,5ebf22d18258381b86086132,2020-08-10_17h47.02.780,lexical_decision_task_MP,2020.1.3,Win32,60,z,1,0.60144,,,,,,,,0.60144,1,,,,,,267,NW,UN,50,packes,PASINK,z,,,,,,0.128703719,-0.177777844,0,0,0,,0,355,355,446,1,
,,,,,,,,,,,,,,,,,,5ebf22d18258381b86086132,2020-08-10_17h47.02.780,lexical_decision_task_MP,2020.1.3,Win32,60,m,1,1.46632,,,,,,,,1.46632,1,,,,,,166,WORD,"ID",50,starch,STARCH,m,,,,,,0.128703719,-0.177777844,0,0,0,,0,356,356,105,1,
,,,,,,,,,,,,,,,,,,5ebf22d18258381b86086132,2020-08-10_17h47.02.780,lexical_decision_task_MP,2020.1.3,Win32,60,m,1,0.567845,,,,,,,,0.567845,1,,,,,,156,WORD,"ID",50,cradle,CRADLE,m,,,,,,0.128703719,-0.177777844,0,0,0,,0,357,357,95,1,
,,,,,,,,,,,,,,,,,,5ebf22d18258381b86086132,2020-08-10_17h47.02.780,lexical_decision_task_MP,2020.1.3,Win32,60,m,1,0.581915,,,,,,,,0.581915,1,,,,,,13,WORD,UN,50,almost,STRIVE,m,,,,,,0.128703719,-0.177777844,0,0,0,,0,358,358,192,1,
,,,,,,,,,,,,,,,,,,5ebf22d18258381b86086132,2020-08-10_17h47.02.780,lexical_decision_task_MP,2020.1.3,Win32,60,m,1,0.49819,,,,,,,,0.49819,1,,,,,,230,WORD,UN,33,mother,FRINGE,m,,,,,,0.128703719,-0.177777844,0,0,0,,0,359,359,169,1,
,,,,,,,,,,,,,,,,,,5ebf22d18258381b86086132,2020-08-10_17h47.02.780,lexical_decision_task_MP,2020.1.3,Win32,60,z,1,0.921675,,,,,,,,0.921675,1,,,,,,440,NW,UN,33,rastoe,SARIDE,z,,,,,,0.128703719,-0.177777844,0,0,0,,0,360,360,379,1,
,,,,,,,,,,,,,,,,,,5ebf22d18258381b86086132,2020-08-10_17h47.02.780,lexical_decision_task_MP,2020.1.3,Win32,60,z,1,0.765105,,,,,,,,0.765105,1,,,,,,457,NW,UN,33,barcet,WANIGH,z,,,,,,0.128703719,-0.177777844,0,0,0,,0,361,361,396,1,
,,,,,,,,,,,,,,,,,,5ebf22d18258381b86086132,2020-08-10_17h47.02.780,lexical_decision_task_MP,2020.1.3,Win32,60,z,1,0.851895,,,,,,,,0.851895,1,,,,,,403,NW,"ID",50,bruats,BRUATS,z,,,,,,0.128703719,-0.177777844,0,0,0,space,0,362,362,342,1,30.189365
,,,,,,,,,,,,,,,,,,5ebf22d18258381b86086132,2020-08-10_17h47.02.780,lexical_decision_task_MP,2020.1.3,Win32,60,z,1,1.443685,,,,,,,,1.443685,1,,,,,,248,NW,UN,50,batrol,STROLE,z,,,,,,0.128703719,-0.177777844,0,0,0,,0,363,363,427,1,
,,,,,,,,,,,,,,,,,,5ebf22d18258381b86086132,2020-08-10_17h47.02.780,lexical_decision_task_MP,2020.1.3,Win32,60,m,1,0.493265,,,,,,,,0.493265,1,,,,,,147,WORD,"ID",50,garlic,GARLIC,m,,,,,,0.128703719,-0.177777844,0,0,0,,0,364,364,86,1,
,,,,,,,,,,,,,,,,,,5ebf22d18258381b86086132,2020-08-10_17h47.02.780,lexical_decision_task_MP,2020.1.3,Win32,60,m,1,0.531845,,,,,,,,0.531845,1,,,,,,101,WORD,"ID",33,wrench,WRENCH,m,,,,,,0.128703719,-0.177777844,0,0,0,,0,365,365,40,1,
,,,,,,,,,,,,,,,,,,5ebf22d18258381b86086132,2020-08-10_17h47.02.780,lexical_decision_task_MP,2020.1.3,Win32,60,z,1,0.52115,,,,,,,,0.52115,1,,,,,,270,NW,UN,50,aubrid,WRIMSY,z,,,,,,0.128703719,-0.177777844,0,0,0,,0,366,366,449,1,
,,,,,,,,,,,,,,,,,,5ebf22d18258381b86086132,2020-08-10_17h47.02.780,lexical_decision_task_MP,2020.1.3,Win32,60,m,1,0.832165,,,,,,,,0.832165,1,,,,,,121,WORD,"ID",50,thrive,THRIVE,m,,,,,,0.128703719,-0.177777844,0,0,0,,0,367,367,60,1,
,,,,,,,,,,,,,,,,,,5ebf22d18258381b86086132,2020-08-10_17h47.02.780,lexical_decision_task_MP,2020.1.3,Win32,60,z,1,0.564,,,,,,,,0.564,1,,,,,,274,NW,UN,50,sleirt,FUMBLO,z,,,,,,0.128703719,-0.177777844,0,0,0,,0,368,368,453,1,
,,,,,,,,,,,,,,,,,,5ebf22d18258381b86086132,2020-08-10_17h47.02.780,lexical_decision_task_MP,2020.1.3,Win32,60,z,1,0.837125,,,,,,,,0.837125,1,,,,,,298,NW,UN,50,sturch,PIERGY,z,,,,,,0.128703719,-0.177777844,0,0,0,,0,369,369,477,1,
,,,,,,,,,,,,,,,,,,5ebf22d18258381b86086132,2020-08-10_17h47.02.780,lexical_decision_task_MP,2020.1.3,Win32,60,z,1,0.58421,,,,,,,,0.58421,1,,,,,,451,NW,UN,33,surden,CAINKY,z,,,,,,0.128703719,-0.177777844,0,0,0,,0,370,370,390,1,
,,,,,,,,,,,,,,,,,,5ebf22d18258381b86086132,2020-08-10_17h47.02.780,lexical_decision_task_MP,2020.1.3,Win32,60,m,1,0.604985,,,,,,,,0.604985,1,,,,,,227,WORD,UN,33,master,SELDOM,m,,,,,,0.128703719,-0.177777844,0,0,0,,0,371,371,166,1,
,,,,,,,,,,,,,,,,,,5ebf22d18258381b86086132,2020-08-10_17h47.02.780,lexical_decision_task_MP,2020.1.3,Win32,60,z,1,0.615765,,,,,,,,0.615765,1,,,,,,467,NW,UN,33,wictor,GORBIE,z,,,,,,0.128703719,-0.177777844,0,0,0,,0,372,372,406,1,
,,,,,,,,,,,,,,,,,,5ebf22d18258381b86086132,2020-08-10_17h47.02.780,lexical_decision_task_MP,2020.1.3,Win32,60,m,0,1.05224,,,,,,,,1.05224,0,,,,,,377,NW,"ID",50,injore,INJORE,z,,,,,,0.128703719,-0.177777844,0,0,0,,0,373,373,316,1,
,,,,,,,,,,,,,,,,,,5ebf22d18258381b86086132,2020-08-10_17h47.02.780,lexical_decision_task_MP,2020.1.3,Win32,60,m,1,0.73651,,,,,,,,0.73651,1,,,,,,182,WORD,UN,33,absent,WINTER,m,,,,,,0.128703719,-0.177777844,0,0,0,,0,374,374,121,1,
,,,,,,,,,,,,,,,,,,5ebf22d18258381b86086132,2020-08-10_17h47.02.780,lexical_decision_task_MP,2020.1.3,Win32,60,m,1,0.43395,,,,,,,,0.43395,1,,,,,,14,WORD,UN,50,orange,ALMOST,m,,,,,,0.128703719,-0.177777844,0,0,0,,0,375,375,193,1,
,,,,,,,,,,,,,,,,,,5ebf22d18258381b86086132,2020-08-10_17h47.02.780,lexical_decision_task_MP,2020.1.3,Win32,60,z,1,0.52596,,,,,,,,0.52596,1,,,,,,330,NW,"ID",33,kensom,KENSOM,z,,,,,,0.128703719,-0.177777844,0,0,0,,0,376,376,269,1,
,,,,,,,,,,,,,,,,,,5ebf22d18258381b86086132,2020-08-10_17h47.02.780,lexical_decision_task_MP,2020.1.3,Win32,60,z,1,0.531555,,,,,,,,0.531555,1,,,,,,409,NW,"ID",50,elopia,ELOPIA,z,,,,,,0.128703719,-0.177777844,0,0,0,,0,377,377,348,1,
,,,,,,,,,,,,,,,,,,5ebf22d18258381b86086132,2020-08-10_17h47.02.780,lexical_decision_task_MP,2020.1.3,Win32,60,m,1,0.655535,,,,,,,,0.655535,1,,,,,,35,WORD,UN,50,vanish,SOCKET,m,,,,,,0.128703719,-0.177777844,0,0,0,,0,378,378,214,1,
,,,,,,,,,,,,,,,,,,5ebf22d18258381b86086132,2020-08-10_17h47.02.780,lexical_decision_task_MP,2020.1.3,Win32,60,m,1,0.68267,,,,,,,,0.68267,1,,,,,,49,WORD,UN,50,snatch,SURVEY,m,,,,,,0.128703719,-0.177777844,0,0,0,,0,379,379,228,1,
,,,,,,,,,,,,,,,,,,5ebf22d18258381b86086132,2020-08-10_17h47.02.780,lexical_decision_task_MP,2020.1.3,Win32,60,m,1,0.465145,,,,,,,,0.465145,1,,,,,,81,WORD,"ID",33,friend,FRIEND,m,,,,,,0.128703719,-0.177777844,0,0,0,,0,380,380,20,1,
,,,,,,,,,,,,,,,,,,5ebf22d18258381b86086132,2020-08-10_17h47.02.780,lexical_decision_task_MP,2020.1.3,Win32,60,m,1,0.45043,,,,,,,,0.45043,1,,,,,,167,WORD,"ID",50,design,DESIGN,m,,,,,,0.128703719,-0.177777844,0,0,0,,0,381,381,106,1,
,,,,,,,,,,,,,,,,,,5ebf22d18258381b86086132,2020-08-10_17h47.02.780,lexical_decision_task_MP,2020.1.3,Win32,60,z,1,1.031975,,,,,,,,1.031975,1,,,,,,471,NW,UN,33,cigney,NOBEST,z,,,,,,0.128703719,-0.177777844,0,0,0,,0,382,382,410,1,
,,,,,,,,,,,,,,,,,,5ebf22d18258381b86086132,2020-08-10_17h47.02.780,lexical_decision_task_MP,2020.1.3,Win32,60,m,1,0.498085,,,,,,,,0.498085,1,,,,,,236,WORD,UN,33,grumpy,PIRATE,m,,,,,,0.128703719,-0.177777844,0,0,0,,0,383,383,175,1,
,,,,,,,,,,,,,,,,,,5ebf22d18258381b86086132,2020-08-10_17h47.02.780,lexical_decision_task_MP,2020.1.3,Win32,60,z,1,0.555615,,,,,,,,0.555615,1,,,,,,349,NW,"ID",33,asylen,ASYLEN,z,,,,,,0.128703719,-0.177777844,0,0,0,,0,384,384,288,1,
,,,,,,,,,,,,,,,,,,5ebf22d18258381b86086132,2020-08-10_17h47.02.780,lexical_decision_task_MP,2020.1.3,Win32,60,z,1,0.60327,,,,,,,,0.60327,1,,,,,,392,NW,"ID",50,rouncy,ROUNCY,z,,,,,,0.128703719,-0.177777844,0,0,0,,0,385,385,331,1,
,,,,,,,,,,,,,,,,,,5ebf22d18258381b86086132,2020-08-10_17h47.02.780,lexical_decision_task_MP,2020.1.3,Win32,60,m,1,0.505365,,,,,,,,0.505365,1,,,,,,178,WORD,"ID",50,inform,INFORM,m,,,,,,0.128703719,-0.177777844,0,0,0,,0,386,386,117,1,
,,,,,,,,,,,,,,,,,,5ebf22d18258381b86086132,2020-08-10_17h47.02.780,lexical_decision_task_MP,2020.1.3,Win32,60,m,1,0.464695,,,,,,,,0.464695,1,,,,,,63,WORD,"ID",33,launch,LAUNCH,m,,,,,,0.128703719,-0.177777844,0,0,0,,0,387,387,2,1,
,,,,,,,,,,,,,,,,,,5ebf22d18258381b86086132,2020-08-10_17h47.02.780,lexical_decision_task_MP,2020.1.3,Win32,60,z,1,0.54809,,,,,,,,0.54809,1,,,,,,366,NW,"ID",50,toshel,TOSHEL,z,,,,,,0.128703719,-0.177777844,0,0,0,,0,388,388,305,1,
,,,,,,,,,,,,,,,,,,5ebf22d18258381b86086132,2020-08-10_17h47.02.780,lexical_decision_task_MP,2020.1.3,Win32,60,z,1,0.60541,,,,,,,,0.60541,1,,,,,,441,NW,UN,33,aboune,RASTOE,z,,,,,,0.128703719,-0.177777844,0,0,0,,0,389,389,380,1,
,,,,,,,,,,,,,,,,,,5ebf22d18258381b86086132,2020-08-10_17h47.02.780,lexical_decision_task_MP,2020.1.3,Win32,60,z,1,0.73442,,,,,,,,0.73442,1,,,,,,439,NW,UN,33,saride,LIMPOR,z,,,,,,0.128703719,-0.177777844,0,0,0,,0,390,390,378,1,
,,,,,,,,,,,,,,,,,,5ebf22d18258381b86086132,2020-08-10_17h47.02.780,lexical_decision_task_MP,2020.1.3,Win32,60,z,1,0.598485,,,,,,,,0.598485,1,,,,,,414,NW,"ID",50,serbol,SERBOL,z,,,,,,0.128703719,-0.177777844,0,0,0,,0,391,391,353,1,
,,,,,,,,,,,,,,,,,,5ebf22d18258381b86086132,2020-08-10_17h47.02.780,lexical_decision_task_MP,2020.1.3,Win32,60,m,1,0.55569,,,,,,,,0.55569,1,,,,,,161,WORD,"ID",50,pastor,PASTOR,m,,,,,,0.128703719,-0.177777844,0,0,0,,0,392,392,100,1,
,,,,,,,,,,,,,,,,,,5ebf22d18258381b86086132,2020-08-10_17h47.02.780,lexical_decision_task_MP,2020.1.3,Win32,60,z,1,0.883575,,,,,,,,0.883575,1,,,,,,297,NW,UN,50,piergy,FERTIC,z,,,,,,0.128703719,-0.177777844,0,0,0,,0,393,393,476,1,
,,,,,,,,,,,,,,,,,,5ebf22d18258381b86086132,2020-08-10_17h47.02.780,lexical_decision_task_MP,2020.1.3,Win32,60,m,1,0.7651,,,,,,,,0.7651,1,,,,,,231,WORD,UN,33,inject,EXPORT,m,,,,,,0.128703719,-0.177777844,0,0,0,,0,394,394,170,1,
,,,,,,,,,,,,,,,,,,5ebf22d18258381b86086132,2020-08-10_17h47.02.780,lexical_decision_task_MP,2020.1.3,Win32,60,m,1,0.549515,,,,,,,,0.549515,1,,,,,,133,WORD,"ID",50,chrome,CHROME,m,,,,,,0.128703719,-0.177777844,0,0,0,,0,395,395,72,1,
,,,,,,,,,,,,,,,,,,5ebf22d18258381b86086132,2020-08-10_17h47.02.780,lexical_decision_task_MP,2020.1.3,Win32,60,m,1,0.56249,,,,,,,,0.56249,1,,,,,,191,WORD,UN,33,beacon,STABLE,m,,,,,,0.128703719,-0.177777844,0,0,0,,0,396,396,130,1,
,,,,,,,,,,,,,,,,,,5ebf22d18258381b86086132,2020-08-10_17h47.02.780,lexical_decision_task_MP,2020.1.3,Win32,60,m,1,0.482555,,,,,,,,0.482555,1,,,,,,164,WORD,"ID",50,market,MARKET,m,,,,,,0.128703719,-0.177777844,0,0,0,,0,397,397,103,1,
,,,,,,,,,,,,,,,,,,5ebf22d18258381b86086132,2020-08-10_17h47.02.780,lexical_decision_task_MP,2020.1.3,Win32,60,z,1,0.631935,,,,,,,,0.631935,1,,,,,,259,NW,UN,50,unject,SOUDAL,z,,,,,,0.128703719,-0.177777844,0,0,0,,0,398,398,438,1,
,,,,,,,,,,,,,,,,,,5ebf22d18258381b86086132,2020-08-10_17h47.02.780,lexical_decision_task_MP,2020.1.3,Win32,60,z,1,0.504105,,,,,,,,0.504105,1,,,,,,317,NW,"ID",33,worbal,WORBAL,z,,,,,,0.128703719,-0.177777844,0,0,0,,0,399,399,256,1,
,,,,,,,,,,,,,,,,,,5ebf22d18258381b86086132,2020-08-10_17h47.02.780,lexical_decision_task_MP,2020.1.3,Win32,60,m,1,0.500525,,,,,,,,0.500525,1,,,,,,94,WORD,"ID",33,travel,TRAVEL,m,,,,,,0.128703719,-0.177777844,0,0,0,,0,400,400,33,1,
,,,,,,,,,,,,,,,,,,5ebf22d18258381b86086132,2020-08-10_17h47.02.780,lexical_decision_task_MP,2020.1.3,Win32,60,z,1,0.602925,,,,,,,,0.602925,1,,,,,,416,NW,"ID",50,pathel,PATHEL,z,,,,,,0.128703719,-0.177777844,0,0,0,,0,401,401,355,1,
,,,,,,,,,,,,,,,,,,5ebf22d18258381b86086132,2020-08-10_17h47.02.780,lexical_decision_task_MP,2020.1.3,Win32,60,z,1,0.58172,,,,,,,,0.58172,1,,,,,,344,NW,"ID",33,scrily,SCRILY,z,,,,,,0.128703719,-0.177777844,0,0,0,,0,402,402,283,1,
,,,,,,,,,,,,,,,,,,5ebf22d18258381b86086132,2020-08-10_17h47.02.780,lexical_decision_task_MP,2020.1.3,Win32,60,m,1,0.568785,,,,,,,,0.568785,1,,,,,,79,WORD,"ID",33,theory,THEORY,m,,,,,,0.128703719,-0.177777844,0,0,0,,0,403,403,18,1,
