counterbalancing_condition,instr_done_keyboard.keys,instr_done_keyboard.rt,instr_done_touch.x,instr_done_touch.y,instr_done_touch.leftButton,instr_done_touch.midButton,instr_done_touch.rightButton,instruction_pages.thisRepN,instruction_pages.thisTrialN,instruction_pages.thisN,instruction_pages.thisIndex,instruction_pages.ran,pageN,phase,instruct_text,has_image,instruct_image,participant,date,expName,psychopyVersion,OS,frameRate,response.keys,response.corr,response.rt,touch_resp.x,touch_resp.y,touch_resp.leftButton,touch_resp.midButton,touch_resp.rightButton,touch_resp.time,touch_resp.clicked_name,rt,corr,practice_trials.thisRepN,practice_trials.thisTrialN,practice_trials.thisN,practice_trials.thisIndex,practice_trials.ran,TrialID,StimulusType,Condition,PrimeDuration,Prime,Target,corrAns,end_of_practice_trials_pages.thisRepN,end_of_practice_trials_pages.thisTrialN,end_of_practice_trials_pages.thisN,end_of_practice_trials_pages.thisIndex,end_of_practice_trials_pages.ran,break_done_touch.x,break_done_touch.y,break_done_touch.leftButton,break_done_touch.midButton,break_done_touch.rightButton,break_done_keyboard.keys,trials.thisRepN,trials.thisTrialN,trials.thisN,trials.thisIndex,trials.ran,break_done_keyboard.rt
2,space,22.31215,0.489089419,-0.045857237,0,0,0,0,0,0,0,1,1,instructions,"INSTRUCTIONS
At the start of each trial, look at the hash marks (######) in the center of the screen. After a moment, a string of letters will appear. Your task is to indicate if the letter string forms a word or not (i.e., if it is a nonword). For example, AUTHOR is a word while AUTHON is a nonword.

Press the space bar or touch the button below to continue.",0,,5ec6ae38afab190b8b7b3be8,2020-08-08_10h42.47.776,lexical_decision_task_MP,2020.1.3,Win32,60,,,,,,,,,,,,,,,,,,,,,,,,,,,,,,,,,,,,,,,,,
,space,11.546205,0.489089419,-0.045857237,0,0,0,0,1,1,1,1,2,instructions,"If your device has a keyboard, press the 'Z' key for nonwords and the 'M' key for words.





Press the space bar or touch the button below to continue.",1,keyboard-example.gif,5ec6ae38afab190b8b7b3be8,2020-08-08_10h42.47.776,lexical_decision_task_MP,2020.1.3,Win32,60,,,,,,,,,,,,,,,,,,,,,,,,,,,,,,,,,,,,,,,,,
,space,10.08393,0.489089419,-0.045857237,0,0,0,0,2,2,2,1,3,instructions,"If you are using a touchscreen only device, use the buttons on the screen. Do not use the mouse.





Press the space bar or touch the button below to continue.",1,touchscreen-example.gif,5ec6ae38afab190b8b7b3be8,2020-08-08_10h42.47.776,lexical_decision_task_MP,2020.1.3,Win32,60,,,,,,,,,,,,,,,,,,,,,,,,,,,,,,,,,,,,,,,,,
,space,6.633675,0.489089419,-0.045857237,0,0,0,0,3,3,3,1,4,instructions,"It is very important that you respond as quickly and accurately as possible, as each letter string will only be on the screen for two seconds. If you do not respond within this time, the message 'Too slow!' will be displayed and the experiment will progress to the next letter string. The first 20 trials will be practice trials and you will receive feedback on your answers. 

Press the space bar or touch the button below to start the practice trials.",0,,5ec6ae38afab190b8b7b3be8,2020-08-08_10h42.47.776,lexical_decision_task_MP,2020.1.3,Win32,60,,,,,,,,,,,,,,,,,,,,,,,,,,,,,,,,,,,,,,,,,
,,,,,,,,,,,,,,,,,,5ec6ae38afab190b8b7b3be8,2020-08-08_10h42.47.776,lexical_decision_task_MP,2020.1.3,Win32,60,z,1,1.15903,,,,,,,,1.15903,1,0,0,0,8,1,1009,NW,"ID",33,aslert,ASLERT,z,,,,,,,,,,,,,,,,,
,,,,,,,,,,,,,,,,,,5ec6ae38afab190b8b7b3be8,2020-08-08_10h42.47.776,lexical_decision_task_MP,2020.1.3,Win32,60,m,1,0.695075,,,,,,,,0.695075,1,0,1,1,3,1,1004,WORD,"ID",50,matrix,MATRIX,m,,,,,,,,,,,,,,,,,
,,,,,,,,,,,,,,,,,,5ec6ae38afab190b8b7b3be8,2020-08-08_10h42.47.776,lexical_decision_task_MP,2020.1.3,Win32,60,m,1,0.68211,,,,,,,,0.68211,1,0,2,2,7,1,1008,WORD,UN,50,hurdle,VOLUME,m,,,,,,,,,,,,,,,,,
,,,,,,,,,,,,,,,,,,5ec6ae38afab190b8b7b3be8,2020-08-08_10h42.47.776,lexical_decision_task_MP,2020.1.3,Win32,60,z,1,0.835875,,,,,,,,0.835875,1,0,3,3,15,1,1016,NW,UN,50,mushed,WHAISE,z,,,,,,,,,,,,,,,,,
,,,,,,,,,,,,,,,,,,5ec6ae38afab190b8b7b3be8,2020-08-08_10h42.47.776,lexical_decision_task_MP,2020.1.3,Win32,60,m,1,0.628425,,,,,,,,0.628425,1,0,4,4,1,1,1002,WORD,"ID",33,adjust,ADJUST,m,,,,,,,,,,,,,,,,,
,,,,,,,,,,,,,,,,,,5ec6ae38afab190b8b7b3be8,2020-08-08_10h42.47.776,lexical_decision_task_MP,2020.1.3,Win32,60,m,1,0.563165,,,,,,,,0.563165,1,0,5,5,4,1,1005,WORD,UN,33,abound,SQUEAK,m,,,,,,,,,,,,,,,,,
,,,,,,,,,,,,,,,,,,5ec6ae38afab190b8b7b3be8,2020-08-08_10h42.47.776,lexical_decision_task_MP,2020.1.3,Win32,60,m,1,0.583075,,,,,,,,0.583075,1,0,6,6,6,1,1007,WORD,UN,50,tropic,ZOMBIE,m,,,,,,,,,,,,,,,,,
,,,,,,,,,,,,,,,,,,5ec6ae38afab190b8b7b3be8,2020-08-08_10h42.47.776,lexical_decision_task_MP,2020.1.3,Win32,60,m,1,0.557765,,,,,,,,0.557765,1,0,7,7,5,1,1006,WORD,UN,33,frenzy,OBTAIN,m,,,,,,,,,,,,,,,,,
,,,,,,,,,,,,,,,,,,5ec6ae38afab190b8b7b3be8,2020-08-08_10h42.47.776,lexical_decision_task_MP,2020.1.3,Win32,60,z,1,0.536435,,,,,,,,0.536435,1,0,8,8,13,1,1014,NW,UN,33,winfer,ROUPET,z,,,,,,,,,,,,,,,,,
,,,,,,,,,,,,,,,,,,5ec6ae38afab190b8b7b3be8,2020-08-08_10h42.47.776,lexical_decision_task_MP,2020.1.3,Win32,60,z,1,0.69203,,,,,,,,0.69203,1,0,9,9,12,1,1013,NW,UN,33,adveil,SPRINY,z,,,,,,,,,,,,,,,,,
,,,,,,,,,,,,,,,,,,5ec6ae38afab190b8b7b3be8,2020-08-08_10h42.47.776,lexical_decision_task_MP,2020.1.3,Win32,60,z,1,0.552045,,,,,,,,0.552045,1,0,10,10,11,1,1012,NW,"ID",50,rashet,RASHET,z,,,,,,,,,,,,,,,,,
,,,,,,,,,,,,,,,,,,5ec6ae38afab190b8b7b3be8,2020-08-08_10h42.47.776,lexical_decision_task_MP,2020.1.3,Win32,60,z,1,0.52998,,,,,,,,0.52998,1,0,11,11,10,1,1011,NW,"ID",50,inlade,INLADE,z,,,,,,,,,,,,,,,,,
,,,,,,,,,,,,,,,,,,5ec6ae38afab190b8b7b3be8,2020-08-08_10h42.47.776,lexical_decision_task_MP,2020.1.3,Win32,60,m,1,0.6028,,,,,,,,0.6028,1,0,12,12,0,1,1001,WORD,"ID",33,utopia,UTOPIA,m,,,,,,,,,,,,,,,,,
,,,,,,,,,,,,,,,,,,5ec6ae38afab190b8b7b3be8,2020-08-08_10h42.47.776,lexical_decision_task_MP,2020.1.3,Win32,60,z,1,0.596845,,,,,,,,0.596845,1,0,13,13,9,1,1010,NW,"ID",33,fariny,FARINY,z,,,,,,,,,,,,,,,,,
,,,,,,,,,,,,,,,,,,5ec6ae38afab190b8b7b3be8,2020-08-08_10h42.47.776,lexical_decision_task_MP,2020.1.3,Win32,60,z,1,0.66774,,,,,,,,0.66774,1,0,14,14,14,1,1015,NW,UN,50,miaber,THRALE,z,,,,,,,,,,,,,,,,,
,,,,,,,,,,,,,,,,,,5ec6ae38afab190b8b7b3be8,2020-08-08_10h42.47.776,lexical_decision_task_MP,2020.1.3,Win32,60,m,1,0.519815,,,,,,,,0.519815,1,0,15,15,2,1,1003,WORD,"ID",50,almond,ALMOND,m,,,,,,,,,,,,,,,,,
,space,16.21483,0.489089419,-0.045857237,0,0,0,,,,,,1,end_of_practice,"You have completed the practice trials. During the experimental trials, you will not receive feedback, but it is very important that you respond as quickly and accurately as possible. 
Before you begin, please ensure that you are in a comfortable and quiet location and will not be disturbed for about 25 minutes, as we cannot use your data if you do not complete all the trials. 
There will be opportunities to take breaks at regular intervals during the experiment. When you are ready to start the experimental trials, please press space or touch the button below.",,,5ec6ae38afab190b8b7b3be8,2020-08-08_10h42.47.776,lexical_decision_task_MP,2020.1.3,Win32,60,,,,,,,,,,,,,,,,,,,,,,,,,0,0,0,0,1,,,,,,,,,,,,
,,,,,,,,,,,,,,,,,,5ec6ae38afab190b8b7b3be8,2020-08-08_10h42.47.776,lexical_decision_task_MP,2020.1.3,Win32,60,z,1,0.613065,,,,,,,,0.613065,1,,,,,,310,NW,"ID",33,daniet,DANIET,z,,,,,,0.489089419,-0.045857237,0,0,0,,0,0,0,249,1,
,,,,,,,,,,,,,,,,,,5ec6ae38afab190b8b7b3be8,2020-08-08_10h42.47.776,lexical_decision_task_MP,2020.1.3,Win32,60,m,0,0.572915,,,,,,,,0.572915,0,,,,,,402,NW,"ID",50,syntic,SYNTIC,z,,,,,,0.489089419,-0.045857237,0,0,0,,0,1,1,341,1,
,,,,,,,,,,,,,,,,,,5ec6ae38afab190b8b7b3be8,2020-08-08_10h42.47.776,lexical_decision_task_MP,2020.1.3,Win32,60,m,1,0.67161,,,,,,,,0.67161,1,,,,,,236,WORD,UN,33,grumpy,PIRATE,m,,,,,,0.489089419,-0.045857237,0,0,0,,0,2,2,175,1,
,,,,,,,,,,,,,,,,,,5ec6ae38afab190b8b7b3be8,2020-08-08_10h42.47.776,lexical_decision_task_MP,2020.1.3,Win32,60,z,1,0.505185,,,,,,,,0.505185,1,,,,,,480,NW,UN,33,knisma,ROBULY,z,,,,,,0.489089419,-0.045857237,0,0,0,,0,3,3,419,1,
,,,,,,,,,,,,,,,,,,5ec6ae38afab190b8b7b3be8,2020-08-08_10h42.47.776,lexical_decision_task_MP,2020.1.3,Win32,60,m,1,0.54756,,,,,,,,0.54756,1,,,,,,48,WORD,UN,50,survey,WALNUT,m,,,,,,0.489089419,-0.045857237,0,0,0,,0,4,4,227,1,
,,,,,,,,,,,,,,,,,,5ec6ae38afab190b8b7b3be8,2020-08-08_10h42.47.776,lexical_decision_task_MP,2020.1.3,Win32,60,z,1,0.53906,,,,,,,,0.53906,1,,,,,,406,NW,"ID",50,nouply,NOUPLY,z,,,,,,0.489089419,-0.045857237,0,0,0,,0,5,5,345,1,
,,,,,,,,,,,,,,,,,,5ec6ae38afab190b8b7b3be8,2020-08-08_10h42.47.776,lexical_decision_task_MP,2020.1.3,Win32,60,m,1,0.49767,,,,,,,,0.49767,1,,,,,,57,WORD,UN,50,danger,CHANGE,m,,,,,,0.489089419,-0.045857237,0,0,0,,0,6,6,236,1,
,,,,,,,,,,,,,,,,,,5ec6ae38afab190b8b7b3be8,2020-08-08_10h42.47.776,lexical_decision_task_MP,2020.1.3,Win32,60,m,1,0.46279,,,,,,,,0.46279,1,,,,,,110,WORD,"ID",33,polite,POLITE,m,,,,,,0.489089419,-0.045857237,0,0,0,,0,7,7,49,1,
,,,,,,,,,,,,,,,,,,5ec6ae38afab190b8b7b3be8,2020-08-08_10h42.47.776,lexical_decision_task_MP,2020.1.3,Win32,60,z,1,0.563445,,,,,,,,0.563445,1,,,,,,292,NW,UN,50,swance,ABLINT,z,,,,,,0.489089419,-0.045857237,0,0,0,,0,8,8,471,1,
,,,,,,,,,,,,,,,,,,5ec6ae38afab190b8b7b3be8,2020-08-08_10h42.47.776,lexical_decision_task_MP,2020.1.3,Win32,60,z,1,0.58287,,,,,,,,0.58287,1,,,,,,249,NW,UN,50,milted,BATROL,z,,,,,,0.489089419,-0.045857237,0,0,0,,0,9,9,428,1,
,,,,,,,,,,,,,,,,,,5ec6ae38afab190b8b7b3be8,2020-08-08_10h42.47.776,lexical_decision_task_MP,2020.1.3,Win32,60,m,1,0.48939,,,,,,,,0.48939,1,,,,,,41,WORD,UN,50,chapel,SPRING,m,,,,,,0.489089419,-0.045857237,0,0,0,,0,10,10,220,1,
,,,,,,,,,,,,,,,,,,5ec6ae38afab190b8b7b3be8,2020-08-08_10h42.47.776,lexical_decision_task_MP,2020.1.3,Win32,60,z,1,0.496695,,,,,,,,0.496695,1,,,,,,389,NW,"ID",50,witmer,WITMER,z,,,,,,0.489089419,-0.045857237,0,0,0,,0,11,11,328,1,
,,,,,,,,,,,,,,,,,,5ec6ae38afab190b8b7b3be8,2020-08-08_10h42.47.776,lexical_decision_task_MP,2020.1.3,Win32,60,m,1,0.590835,,,,,,,,0.590835,1,,,,,,120,WORD,"ID",33,strain,STRAIN,m,,,,,,0.489089419,-0.045857237,0,0,0,,0,12,12,59,1,
,,,,,,,,,,,,,,,,,,5ec6ae38afab190b8b7b3be8,2020-08-08_10h42.47.776,lexical_decision_task_MP,2020.1.3,Win32,60,m,1,0.42173,,,,,,,,0.42173,1,,,,,,162,WORD,"ID",50,candle,CANDLE,m,,,,,,0.489089419,-0.045857237,0,0,0,,0,13,13,101,1,
,,,,,,,,,,,,,,,,,,5ec6ae38afab190b8b7b3be8,2020-08-08_10h42.47.776,lexical_decision_task_MP,2020.1.3,Win32,60,z,0,0.459025,,,,,,,,0.459025,0,,,,,,46,WORD,UN,50,income,SINGLE,m,,,,,,0.489089419,-0.045857237,0,0,0,,0,14,14,225,1,
,,,,,,,,,,,,,,,,,,5ec6ae38afab190b8b7b3be8,2020-08-08_10h42.47.776,lexical_decision_task_MP,2020.1.3,Win32,60,z,1,0.797735,,,,,,,,0.797735,1,,,,,,284,NW,UN,50,prudge,SHAPLE,z,,,,,,0.489089419,-0.045857237,0,0,0,,0,15,15,463,1,
,,,,,,,,,,,,,,,,,,5ec6ae38afab190b8b7b3be8,2020-08-08_10h42.47.776,lexical_decision_task_MP,2020.1.3,Win32,60,m,1,0.54615,,,,,,,,0.54615,1,,,,,,20,WORD,UN,50,simple,BREAST,m,,,,,,0.489089419,-0.045857237,0,0,0,,0,16,16,199,1,
,,,,,,,,,,,,,,,,,,5ec6ae38afab190b8b7b3be8,2020-08-08_10h42.47.776,lexical_decision_task_MP,2020.1.3,Win32,60,m,1,0.496885,,,,,,,,0.496885,1,,,,,,103,WORD,"ID",33,bounce,BOUNCE,m,,,,,,0.489089419,-0.045857237,0,0,0,,0,17,17,42,1,
,,,,,,,,,,,,,,,,,,5ec6ae38afab190b8b7b3be8,2020-08-08_10h42.47.776,lexical_decision_task_MP,2020.1.3,Win32,60,m,1,0.43121,,,,,,,,0.43121,1,,,,,,128,WORD,"ID",50,senior,SENIOR,m,,,,,,0.489089419,-0.045857237,0,0,0,,0,18,18,67,1,
,,,,,,,,,,,,,,,,,,5ec6ae38afab190b8b7b3be8,2020-08-08_10h42.47.776,lexical_decision_task_MP,2020.1.3,Win32,60,z,1,0.48276,,,,,,,,0.48276,1,,,,,,313,NW,"ID",33,paurse,PAURSE,z,,,,,,0.489089419,-0.045857237,0,0,0,,0,19,19,252,1,
,,,,,,,,,,,,,,,,,,5ec6ae38afab190b8b7b3be8,2020-08-08_10h42.47.776,lexical_decision_task_MP,2020.1.3,Win32,60,z,1,0.53577,,,,,,,,0.53577,1,,,,,,274,NW,UN,50,sleirt,FUMBLO,z,,,,,,0.489089419,-0.045857237,0,0,0,,0,20,20,453,1,
,,,,,,,,,,,,,,,,,,5ec6ae38afab190b8b7b3be8,2020-08-08_10h42.47.776,lexical_decision_task_MP,2020.1.3,Win32,60,z,1,0.485695,,,,,,,,0.485695,1,,,,,,255,NW,UN,50,inlors,APIGHT,z,,,,,,0.489089419,-0.045857237,0,0,0,,0,21,21,434,1,
,,,,,,,,,,,,,,,,,,5ec6ae38afab190b8b7b3be8,2020-08-08_10h42.47.776,lexical_decision_task_MP,2020.1.3,Win32,60,z,1,0.53005,,,,,,,,0.53005,1,,,,,,297,NW,UN,50,piergy,FERTIC,z,,,,,,0.489089419,-0.045857237,0,0,0,,0,22,22,476,1,
,,,,,,,,,,,,,,,,,,5ec6ae38afab190b8b7b3be8,2020-08-08_10h42.47.776,lexical_decision_task_MP,2020.1.3,Win32,60,m,1,0.480655,,,,,,,,0.480655,1,,,,,,182,WORD,UN,33,absent,WINTER,m,,,,,,0.489089419,-0.045857237,0,0,0,,0,23,23,121,1,
,,,,,,,,,,,,,,,,,,5ec6ae38afab190b8b7b3be8,2020-08-08_10h42.47.776,lexical_decision_task_MP,2020.1.3,Win32,60,m,1,0.4367,,,,,,,,0.4367,1,,,,,,209,WORD,UN,33,monkey,SEARCH,m,,,,,,0.489089419,-0.045857237,0,0,0,,0,24,24,148,1,
,,,,,,,,,,,,,,,,,,5ec6ae38afab190b8b7b3be8,2020-08-08_10h42.47.776,lexical_decision_task_MP,2020.1.3,Win32,60,m,0,0.42946,,,,,,,,0.42946,0,,,,,,411,NW,"ID",50,orchin,ORCHIN,z,,,,,,0.489089419,-0.045857237,0,0,0,,0,25,25,350,1,
,,,,,,,,,,,,,,,,,,5ec6ae38afab190b8b7b3be8,2020-08-08_10h42.47.776,lexical_decision_task_MP,2020.1.3,Win32,60,m,1,0.547595,,,,,,,,0.547595,1,,,,,,34,WORD,UN,50,socket,JUNGLE,m,,,,,,0.489089419,-0.045857237,0,0,0,,0,26,26,213,1,
,,,,,,,,,,,,,,,,,,5ec6ae38afab190b8b7b3be8,2020-08-08_10h42.47.776,lexical_decision_task_MP,2020.1.3,Win32,60,m,1,0.40713,,,,,,,,0.40713,1,,,,,,198,WORD,UN,33,invoke,WICKED,m,,,,,,0.489089419,-0.045857237,0,0,0,,0,27,27,137,1,
,,,,,,,,,,,,,,,,,,5ec6ae38afab190b8b7b3be8,2020-08-08_10h42.47.776,lexical_decision_task_MP,2020.1.3,Win32,60,z,1,0.49603,,,,,,,,0.49603,1,,,,,,431,NW,UN,33,lunker,CHRUMS,z,,,,,,0.489089419,-0.045857237,0,0,0,,0,28,28,370,1,
,,,,,,,,,,,,,,,,,,5ec6ae38afab190b8b7b3be8,2020-08-08_10h42.47.776,lexical_decision_task_MP,2020.1.3,Win32,60,z,0,0.507095,,,,,,,,0.507095,0,,,,,,211,WORD,UN,33,verify,INFECT,m,,,,,,0.489089419,-0.045857237,0,0,0,,0,29,29,150,1,
,,,,,,,,,,,,,,,,,,5ec6ae38afab190b8b7b3be8,2020-08-08_10h42.47.776,lexical_decision_task_MP,2020.1.3,Win32,60,z,1,0.613255,,,,,,,,0.613255,1,,,,,,309,NW,"ID",33,amiloy,AMILOY,z,,,,,,0.489089419,-0.045857237,0,0,0,,0,30,30,248,1,
,,,,,,,,,,,,,,,,,,5ec6ae38afab190b8b7b3be8,2020-08-08_10h42.47.776,lexical_decision_task_MP,2020.1.3,Win32,60,m,1,0.43711,,,,,,,,0.43711,1,,,,,,205,WORD,UN,33,tailor,LOUNGE,m,,,,,,0.489089419,-0.045857237,0,0,0,,0,31,31,144,1,
,,,,,,,,,,,,,,,,,,5ec6ae38afab190b8b7b3be8,2020-08-08_10h42.47.776,lexical_decision_task_MP,2020.1.3,Win32,60,z,1,0.50726,,,,,,,,0.50726,1,,,,,,477,NW,UN,33,lobush,PHOTIE,z,,,,,,0.489089419,-0.045857237,0,0,0,,0,32,32,416,1,
,,,,,,,,,,,,,,,,,,5ec6ae38afab190b8b7b3be8,2020-08-08_10h42.47.776,lexical_decision_task_MP,2020.1.3,Win32,60,m,1,0.49717,,,,,,,,0.49717,1,,,,,,125,WORD,"ID",50,nickel,NICKEL,m,,,,,,0.489089419,-0.045857237,0,0,0,,0,33,33,64,1,
,,,,,,,,,,,,,,,,,,5ec6ae38afab190b8b7b3be8,2020-08-08_10h42.47.776,lexical_decision_task_MP,2020.1.3,Win32,60,m,1,0.54316,,,,,,,,0.54316,1,,,,,,186,WORD,UN,33,course,PORTAL,m,,,,,,0.489089419,-0.045857237,0,0,0,,0,34,34,125,1,
,,,,,,,,,,,,,,,,,,5ec6ae38afab190b8b7b3be8,2020-08-08_10h42.47.776,lexical_decision_task_MP,2020.1.3,Win32,60,z,1,0.50541,,,,,,,,0.50541,1,,,,,,361,NW,"ID",50,pauche,PAUCHE,z,,,,,,0.489089419,-0.045857237,0,0,0,,0,35,35,300,1,
,,,,,,,,,,,,,,,,,,5ec6ae38afab190b8b7b3be8,2020-08-08_10h42.47.776,lexical_decision_task_MP,2020.1.3,Win32,60,m,1,0.43168,,,,,,,,0.43168,1,,,,,,213,WORD,UN,33,intake,SQUEAL,m,,,,,,0.489089419,-0.045857237,0,0,0,,0,36,36,152,1,
,,,,,,,,,,,,,,,,,,5ec6ae38afab190b8b7b3be8,2020-08-08_10h42.47.776,lexical_decision_task_MP,2020.1.3,Win32,60,m,0,0.58071,,,,,,,,0.58071,0,,,,,,455,NW,UN,33,broget,TONDLE,z,,,,,,0.489089419,-0.045857237,0,0,0,,0,37,37,394,1,
,,,,,,,,,,,,,,,,,,5ec6ae38afab190b8b7b3be8,2020-08-08_10h42.47.776,lexical_decision_task_MP,2020.1.3,Win32,60,z,1,0.58014,,,,,,,,0.58014,1,,,,,,276,NW,UN,50,petain,YARMON,z,,,,,,0.489089419,-0.045857237,0,0,0,,0,38,38,455,1,
,,,,,,,,,,,,,,,,,,5ec6ae38afab190b8b7b3be8,2020-08-08_10h42.47.776,lexical_decision_task_MP,2020.1.3,Win32,60,m,1,0.56468,,,,,,,,0.56468,1,,,,,,36,WORD,UN,50,insult,VANISH,m,,,,,,0.489089419,-0.045857237,0,0,0,,0,39,39,215,1,
,,,,,,,,,,,,,,,,,,5ec6ae38afab190b8b7b3be8,2020-08-08_10h42.47.776,lexical_decision_task_MP,2020.1.3,Win32,60,m,1,0.599285,,,,,,,,0.599285,1,,,,,,207,WORD,UN,33,hockey,WREATH,m,,,,,,0.489089419,-0.045857237,0,0,0,,0,40,40,146,1,
,,,,,,,,,,,,,,,,,,5ec6ae38afab190b8b7b3be8,2020-08-08_10h42.47.776,lexical_decision_task_MP,2020.1.3,Win32,60,z,1,0.549405,,,,,,,,0.549405,1,,,,,,465,NW,UN,33,bafent,WHIVEX,z,,,,,,0.489089419,-0.045857237,0,0,0,,0,41,41,404,1,
,,,,,,,,,,,,,,,,,,5ec6ae38afab190b8b7b3be8,2020-08-08_10h42.47.776,lexical_decision_task_MP,2020.1.3,Win32,60,z,1,0.484155,,,,,,,,0.484155,1,,,,,,391,NW,"ID",50,theldy,THELDY,z,,,,,,0.489089419,-0.045857237,0,0,0,,0,42,42,330,1,
,,,,,,,,,,,,,,,,,,5ec6ae38afab190b8b7b3be8,2020-08-08_10h42.47.776,lexical_decision_task_MP,2020.1.3,Win32,60,m,0,0.50744,,,,,,,,0.50744,0,,,,,,318,NW,"ID",33,reagly,REAGLY,z,,,,,,0.489089419,-0.045857237,0,0,0,,0,43,43,257,1,
,,,,,,,,,,,,,,,,,,5ec6ae38afab190b8b7b3be8,2020-08-08_10h42.47.776,lexical_decision_task_MP,2020.1.3,Win32,60,z,1,0.61338,,,,,,,,0.61338,1,,,,,,400,NW,"ID",50,wearox,WEAROX,z,,,,,,0.489089419,-0.045857237,0,0,0,,0,44,44,339,1,
,,,,,,,,,,,,,,,,,,5ec6ae38afab190b8b7b3be8,2020-08-08_10h42.47.776,lexical_decision_task_MP,2020.1.3,Win32,60,z,1,0.576595,,,,,,,,0.576595,1,,,,,,370,NW,"ID",50,sleact,SLEACT,z,,,,,,0.489089419,-0.045857237,0,0,0,,0,45,45,309,1,
,,,,,,,,,,,,,,,,,,5ec6ae38afab190b8b7b3be8,2020-08-08_10h42.47.776,lexical_decision_task_MP,2020.1.3,Win32,60,z,1,0.50165,,,,,,,,0.50165,1,,,,,,254,NW,UN,50,apight,VAROSH,z,,,,,,0.489089419,-0.045857237,0,0,0,,0,46,46,433,1,
,,,,,,,,,,,,,,,,,,5ec6ae38afab190b8b7b3be8,2020-08-08_10h42.47.776,lexical_decision_task_MP,2020.1.3,Win32,60,z,1,0.513315,,,,,,,,0.513315,1,,,,,,399,NW,"ID",50,fouret,FOURET,z,,,,,,0.489089419,-0.045857237,0,0,0,,0,47,47,338,1,
,,,,,,,,,,,,,,,,,,5ec6ae38afab190b8b7b3be8,2020-08-08_10h42.47.776,lexical_decision_task_MP,2020.1.3,Win32,60,z,1,0.496795,,,,,,,,0.496795,1,,,,,,340,NW,"ID",33,fiatch,FIATCH,z,,,,,,0.489089419,-0.045857237,0,0,0,,0,48,48,279,1,
,,,,,,,,,,,,,,,,,,5ec6ae38afab190b8b7b3be8,2020-08-08_10h42.47.776,lexical_decision_task_MP,2020.1.3,Win32,60,m,0,0.491315,,,,,,,,0.491315,0,,,,,,377,NW,"ID",50,injore,INJORE,z,,,,,,0.489089419,-0.045857237,0,0,0,,0,49,49,316,1,
,,,,,,,,,,,,,,,,,,5ec6ae38afab190b8b7b3be8,2020-08-08_10h42.47.776,lexical_decision_task_MP,2020.1.3,Win32,60,z,1,0.49713,,,,,,,,0.49713,1,,,,,,338,NW,"ID",33,wreash,WREASH,z,,,,,,0.489089419,-0.045857237,0,0,0,,0,50,50,277,1,
,,,,,,,,,,,,,,,,,,5ec6ae38afab190b8b7b3be8,2020-08-08_10h42.47.776,lexical_decision_task_MP,2020.1.3,Win32,60,z,1,0.50017,,,,,,,,0.50017,1,,,,,,360,NW,"ID",33,desory,DESORY,z,,,,,,0.489089419,-0.045857237,0,0,0,,0,51,51,299,1,
,,,,,,,,,,,,,,,,,,5ec6ae38afab190b8b7b3be8,2020-08-08_10h42.47.776,lexical_decision_task_MP,2020.1.3,Win32,60,m,1,0.396005,,,,,,,,0.396005,1,,,,,,137,WORD,"ID",50,finger,FINGER,m,,,,,,0.489089419,-0.045857237,0,0,0,,0,52,52,76,1,
,,,,,,,,,,,,,,,,,,5ec6ae38afab190b8b7b3be8,2020-08-08_10h42.47.776,lexical_decision_task_MP,2020.1.3,Win32,60,z,1,0.837075,,,,,,,,0.837075,1,,,,,,261,NW,UN,50,quilew,STUNCH,z,,,,,,0.489089419,-0.045857237,0,0,0,,0,53,53,440,1,
,,,,,,,,,,,,,,,,,,5ec6ae38afab190b8b7b3be8,2020-08-08_10h42.47.776,lexical_decision_task_MP,2020.1.3,Win32,60,z,1,0.48777,,,,,,,,0.48777,1,,,,,,289,NW,UN,50,splino,STARBY,z,,,,,,0.489089419,-0.045857237,0,0,0,,0,54,54,468,1,
,,,,,,,,,,,,,,,,,,5ec6ae38afab190b8b7b3be8,2020-08-08_10h42.47.776,lexical_decision_task_MP,2020.1.3,Win32,60,z,1,0.41504,,,,,,,,0.41504,1,,,,,,429,NW,UN,33,caroey,FUNTLE,z,,,,,,0.489089419,-0.045857237,0,0,0,,0,55,55,368,1,
,,,,,,,,,,,,,,,,,,5ec6ae38afab190b8b7b3be8,2020-08-08_10h42.47.776,lexical_decision_task_MP,2020.1.3,Win32,60,m,1,0.59712,,,,,,,,0.59712,1,,,,,,156,WORD,"ID",50,cradle,CRADLE,m,,,,,,0.489089419,-0.045857237,0,0,0,,0,56,56,95,1,
,,,,,,,,,,,,,,,,,,5ec6ae38afab190b8b7b3be8,2020-08-08_10h42.47.776,lexical_decision_task_MP,2020.1.3,Win32,60,m,1,0.46469,,,,,,,,0.46469,1,,,,,,1,WORD,UN,50,ethnic,FRIGHT,m,,,,,,0.489089419,-0.045857237,0,0,0,,0,57,57,180,1,
,,,,,,,,,,,,,,,,,,5ec6ae38afab190b8b7b3be8,2020-08-08_10h42.47.776,lexical_decision_task_MP,2020.1.3,Win32,60,m,1,0.51395,,,,,,,,0.51395,1,,,,,,76,WORD,"ID",33,exotic,EXOTIC,m,,,,,,0.489089419,-0.045857237,0,0,0,,0,58,58,15,1,
,,,,,,,,,,,,,,,,,,5ec6ae38afab190b8b7b3be8,2020-08-08_10h42.47.776,lexical_decision_task_MP,2020.1.3,Win32,60,z,1,0.546205,,,,,,,,0.546205,1,,,,,,444,NW,UN,33,minkel,JAUNCE,z,,,,,,0.489089419,-0.045857237,0,0,0,,0,59,59,383,1,
,,,,,,,,,,,,,,,,,,5ec6ae38afab190b8b7b3be8,2020-08-08_10h42.47.776,lexical_decision_task_MP,2020.1.3,Win32,60,m,1,0.461965,,,,,,,,0.461965,1,,,,,,174,WORD,"ID",50,turkey,TURKEY,m,,,,,,0.489089419,-0.045857237,0,0,0,,0,60,60,113,1,
,,,,,,,,,,,,,,,,,,5ec6ae38afab190b8b7b3be8,2020-08-08_10h42.47.776,lexical_decision_task_MP,2020.1.3,Win32,60,z,1,0.563295,,,,,,,,0.563295,1,,,,,,305,NW,"ID",33,forgle,FORGLE,z,,,,,,0.489089419,-0.045857237,0,0,0,,0,61,61,244,1,
,,,,,,,,,,,,,,,,,,5ec6ae38afab190b8b7b3be8,2020-08-08_10h42.47.776,lexical_decision_task_MP,2020.1.3,Win32,60,z,1,0.424265,,,,,,,,0.424265,1,,,,,,396,NW,"ID",50,flengy,FLENGY,z,,,,,,0.489089419,-0.045857237,0,0,0,,0,62,62,335,1,
,,,,,,,,,,,,,,,,,,5ec6ae38afab190b8b7b3be8,2020-08-08_10h42.47.776,lexical_decision_task_MP,2020.1.3,Win32,60,m,1,0.48054,,,,,,,,0.48054,1,,,,,,172,WORD,"ID",50,patrol,PATROL,m,,,,,,0.489089419,-0.045857237,0,0,0,,0,63,63,111,1,
,,,,,,,,,,,,,,,,,,5ec6ae38afab190b8b7b3be8,2020-08-08_10h42.47.776,lexical_decision_task_MP,2020.1.3,Win32,60,z,1,0.449365,,,,,,,,0.449365,1,,,,,,337,NW,"ID",33,rejols,REJOLS,z,,,,,,0.489089419,-0.045857237,0,0,0,,0,64,64,276,1,
,,,,,,,,,,,,,,,,,,5ec6ae38afab190b8b7b3be8,2020-08-08_10h42.47.776,lexical_decision_task_MP,2020.1.3,Win32,60,m,1,0.44757,,,,,,,,0.44757,1,,,,,,180,WORD,"ID",50,silent,SILENT,m,,,,,,0.489089419,-0.045857237,0,0,0,,0,65,65,119,1,
,,,,,,,,,,,,,,,,,,5ec6ae38afab190b8b7b3be8,2020-08-08_10h42.47.776,lexical_decision_task_MP,2020.1.3,Win32,60,z,1,0.57625,,,,,,,,0.57625,1,,,,,,409,NW,"ID",50,elopia,ELOPIA,z,,,,,,0.489089419,-0.045857237,0,0,0,,0,66,66,348,1,
,,,,,,,,,,,,,,,,,,5ec6ae38afab190b8b7b3be8,2020-08-08_10h42.47.776,lexical_decision_task_MP,2020.1.3,Win32,60,z,0,0.48762,,,,,,,,0.48762,0,,,,,,189,WORD,UN,33,backup,CENSOR,m,,,,,,0.489089419,-0.045857237,0,0,0,,0,67,67,128,1,
,,,,,,,,,,,,,,,,,,5ec6ae38afab190b8b7b3be8,2020-08-08_10h42.47.776,lexical_decision_task_MP,2020.1.3,Win32,60,m,1,0.490865,,,,,,,,0.490865,1,,,,,,130,WORD,"ID",50,stupid,STUPID,m,,,,,,0.489089419,-0.045857237,0,0,0,,0,68,68,69,1,
,,,,,,,,,,,,,,,,,,5ec6ae38afab190b8b7b3be8,2020-08-08_10h42.47.776,lexical_decision_task_MP,2020.1.3,Win32,60,m,1,0.462465,,,,,,,,0.462465,1,,,,,,149,WORD,"ID",50,invade,INVADE,m,,,,,,0.489089419,-0.045857237,0,0,0,,0,69,69,88,1,
,,,,,,,,,,,,,,,,,,5ec6ae38afab190b8b7b3be8,2020-08-08_10h42.47.776,lexical_decision_task_MP,2020.1.3,Win32,60,m,1,0.420265,,,,,,,,0.420265,1,,,,,,143,WORD,"ID",50,reason,REASON,m,,,,,,0.489089419,-0.045857237,0,0,0,,0,70,70,82,1,
,,,,,,,,,,,,,,,,,,5ec6ae38afab190b8b7b3be8,2020-08-08_10h42.47.776,lexical_decision_task_MP,2020.1.3,Win32,60,m,1,0.48191,,,,,,,,0.48191,1,,,,,,164,WORD,"ID",50,market,MARKET,m,,,,,,0.489089419,-0.045857237,0,0,0,,0,71,71,103,1,
,,,,,,,,,,,,,,,,,,5ec6ae38afab190b8b7b3be8,2020-08-08_10h42.47.776,lexical_decision_task_MP,2020.1.3,Win32,60,z,1,0.555035,,,,,,,,0.555035,1,,,,,,381,NW,"ID",50,huniek,HUNIEK,z,,,,,,0.489089419,-0.045857237,0,0,0,,0,72,72,320,1,
,,,,,,,,,,,,,,,,,,5ec6ae38afab190b8b7b3be8,2020-08-08_10h42.47.776,lexical_decision_task_MP,2020.1.3,Win32,60,m,1,0.498785,,,,,,,,0.498785,1,,,,,,142,WORD,"ID",50,spruce,SPRUCE,m,,,,,,0.489089419,-0.045857237,0,0,0,,0,73,73,81,1,
,,,,,,,,,,,,,,,,,,5ec6ae38afab190b8b7b3be8,2020-08-08_10h42.47.776,lexical_decision_task_MP,2020.1.3,Win32,60,m,1,0.483785,,,,,,,,0.483785,1,,,,,,27,WORD,UN,50,comedy,SCREAM,m,,,,,,0.489089419,-0.045857237,0,0,0,,0,74,74,206,1,
,,,,,,,,,,,,,,,,,,5ec6ae38afab190b8b7b3be8,2020-08-08_10h42.47.776,lexical_decision_task_MP,2020.1.3,Win32,60,z,0,0.46572,,,,,,,,0.46572,0,,,,,,5,WORD,UN,50,bundle,PLUNGE,m,,,,,,0.489089419,-0.045857237,0,0,0,,0,75,75,184,1,
,,,,,,,,,,,,,,,,,,5ec6ae38afab190b8b7b3be8,2020-08-08_10h42.47.776,lexical_decision_task_MP,2020.1.3,Win32,60,z,1,0.65722,,,,,,,,0.65722,1,,,,,,419,NW,"ID",50,slount,SLOUNT,z,,,,,,0.489089419,-0.045857237,0,0,0,,0,76,76,358,1,
,,,,,,,,,,,,,,,,,,5ec6ae38afab190b8b7b3be8,2020-08-08_10h42.47.776,lexical_decision_task_MP,2020.1.3,Win32,60,z,1,0.69189,,,,,,,,0.69189,1,,,,,,434,NW,UN,33,impurb,PITROM,z,,,,,,0.489089419,-0.045857237,0,0,0,,0,77,77,373,1,
,,,,,,,,,,,,,,,,,,5ec6ae38afab190b8b7b3be8,2020-08-08_10h42.47.776,lexical_decision_task_MP,2020.1.3,Win32,60,m,1,0.484135,,,,,,,,0.484135,1,,,,,,157,WORD,"ID",50,dragon,DRAGON,m,,,,,,0.489089419,-0.045857237,0,0,0,,0,78,78,96,1,
,,,,,,,,,,,,,,,,,,5ec6ae38afab190b8b7b3be8,2020-08-08_10h42.47.776,lexical_decision_task_MP,2020.1.3,Win32,60,z,1,0.56343,,,,,,,,0.56343,1,,,,,,422,NW,UN,33,streld,ALCOUD,z,,,,,,0.489089419,-0.045857237,0,0,0,,0,79,79,361,1,
,,,,,,,,,,,,,,,,,,5ec6ae38afab190b8b7b3be8,2020-08-08_10h42.47.776,lexical_decision_task_MP,2020.1.3,Win32,60,m,1,0.514895,,,,,,,,0.514895,1,,,,,,133,WORD,"ID",50,chrome,CHROME,m,,,,,,0.489089419,-0.045857237,0,0,0,,0,80,80,72,1,
,,,,,,,,,,,,,,,,,,5ec6ae38afab190b8b7b3be8,2020-08-08_10h42.47.776,lexical_decision_task_MP,2020.1.3,Win32,60,m,0,0.50171,,,,,,,,0.50171,0,,,,,,433,NW,UN,33,pitrom,DRANCE,z,,,,,,0.489089419,-0.045857237,0,0,0,,0,81,81,372,1,
,,,,,,,,,,,,,,,,,,5ec6ae38afab190b8b7b3be8,2020-08-08_10h42.47.776,lexical_decision_task_MP,2020.1.3,Win32,60,z,1,0.587255,,,,,,,,0.587255,1,,,,,,246,NW,UN,50,blarge,PIATON,z,,,,,,0.489089419,-0.045857237,0,0,0,,0,82,82,425,1,
,,,,,,,,,,,,,,,,,,5ec6ae38afab190b8b7b3be8,2020-08-08_10h42.47.776,lexical_decision_task_MP,2020.1.3,Win32,60,m,1,0.48847,,,,,,,,0.48847,1,,,,,,190,WORD,UN,33,stable,BACKUP,m,,,,,,0.489089419,-0.045857237,0,0,0,,0,83,83,129,1,
,,,,,,,,,,,,,,,,,,5ec6ae38afab190b8b7b3be8,2020-08-08_10h42.47.776,lexical_decision_task_MP,2020.1.3,Win32,60,m,1,0.447495,,,,,,,,0.447495,1,,,,,,167,WORD,"ID",50,design,DESIGN,m,,,,,,0.489089419,-0.045857237,0,0,0,,0,84,84,106,1,
,,,,,,,,,,,,,,,,,,5ec6ae38afab190b8b7b3be8,2020-08-08_10h42.47.776,lexical_decision_task_MP,2020.1.3,Win32,60,m,1,0.508235,,,,,,,,0.508235,1,,,,,,55,WORD,UN,50,ambush,STROKE,m,,,,,,0.489089419,-0.045857237,0,0,0,,0,85,85,234,1,
,,,,,,,,,,,,,,,,,,5ec6ae38afab190b8b7b3be8,2020-08-08_10h42.47.776,lexical_decision_task_MP,2020.1.3,Win32,60,z,1,0.65685,,,,,,,,0.65685,1,,,,,,466,NW,UN,33,robuly,HOCITE,z,,,,,,0.489089419,-0.045857237,0,0,0,,0,86,86,405,1,
,,,,,,,,,,,,,,,,,,5ec6ae38afab190b8b7b3be8,2020-08-08_10h42.47.776,lexical_decision_task_MP,2020.1.3,Win32,60,z,1,0.665455,,,,,,,,0.665455,1,,,,,,308,NW,"ID",33,psetch,PSETCH,z,,,,,,0.489089419,-0.045857237,0,0,0,,0,87,87,247,1,
,,,,,,,,,,,,,,,,,,5ec6ae38afab190b8b7b3be8,2020-08-08_10h42.47.776,lexical_decision_task_MP,2020.1.3,Win32,60,z,1,0.472925,,,,,,,,0.472925,1,,,,,,306,NW,"ID",33,sounge,SOUNGE,z,,,,,,0.489089419,-0.045857237,0,0,0,,0,88,88,245,1,
,,,,,,,,,,,,,,,,,,5ec6ae38afab190b8b7b3be8,2020-08-08_10h42.47.776,lexical_decision_task_MP,2020.1.3,Win32,60,z,1,0.51437,,,,,,,,0.51437,1,,,,,,301,NW,"ID",33,fainch,FAINCH,z,,,,,,0.489089419,-0.045857237,0,0,0,,0,89,89,240,1,
,,,,,,,,,,,,,,,,,,5ec6ae38afab190b8b7b3be8,2020-08-08_10h42.47.776,lexical_decision_task_MP,2020.1.3,Win32,60,m,1,0.549355,,,,,,,,0.549355,1,,,,,,53,WORD,UN,50,ramble,POLICE,m,,,,,,0.489089419,-0.045857237,0,0,0,,0,90,90,232,1,
,,,,,,,,,,,,,,,,,,5ec6ae38afab190b8b7b3be8,2020-08-08_10h42.47.776,lexical_decision_task_MP,2020.1.3,Win32,60,z,1,0.64613,,,,,,,,0.64613,1,,,,,,253,NW,UN,50,varosh,RESAIT,z,,,,,,0.489089419,-0.045857237,0,0,0,,0,91,91,432,1,
,,,,,,,,,,,,,,,,,,5ec6ae38afab190b8b7b3be8,2020-08-08_10h42.47.776,lexical_decision_task_MP,2020.1.3,Win32,60,m,1,0.53794,,,,,,,,0.53794,1,,,,,,116,WORD,"ID",33,tumble,TUMBLE,m,,,,,,0.489089419,-0.045857237,0,0,0,,0,92,92,55,1,
,,,,,,,,,,,,,,,,,,5ec6ae38afab190b8b7b3be8,2020-08-08_10h42.47.776,lexical_decision_task_MP,2020.1.3,Win32,60,z,1,0.505145,,,,,,,,0.505145,1,,,,,,410,NW,"ID",50,tunory,TUNORY,z,,,,,,0.489089419,-0.045857237,0,0,0,,0,93,93,349,1,
,,,,,,,,,,,,,,,,,,5ec6ae38afab190b8b7b3be8,2020-08-08_10h42.47.776,lexical_decision_task_MP,2020.1.3,Win32,60,z,1,0.53026,,,,,,,,0.53026,1,,,,,,445,NW,UN,33,runamo,MINKEL,z,,,,,,0.489089419,-0.045857237,0,0,0,,0,94,94,384,1,
,,,,,,,,,,,,,,,,,,5ec6ae38afab190b8b7b3be8,2020-08-08_10h42.47.776,lexical_decision_task_MP,2020.1.3,Win32,60,z,0,0.50065,,,,,,,,0.50065,0,,,,,,33,WORD,UN,50,jungle,BUTLER,m,,,,,,0.489089419,-0.045857237,0,0,0,,0,95,95,212,1,
,,,,,,,,,,,,,,,,,,5ec6ae38afab190b8b7b3be8,2020-08-08_10h42.47.776,lexical_decision_task_MP,2020.1.3,Win32,60,z,1,0.512445,,,,,,,,0.512445,1,,,,,,263,NW,UN,50,vackel,DOLICA,z,,,,,,0.489089419,-0.045857237,0,0,0,,0,96,96,442,1,
,,,,,,,,,,,,,,,,,,5ec6ae38afab190b8b7b3be8,2020-08-08_10h42.47.776,lexical_decision_task_MP,2020.1.3,Win32,60,z,0,0.49963,,,,,,,,0.49963,0,,,,,,77,WORD,"ID",33,racket,RACKET,m,,,,,,0.489089419,-0.045857237,0,0,0,,0,97,97,16,1,
,,,,,,,,,,,,,,,,,,5ec6ae38afab190b8b7b3be8,2020-08-08_10h42.47.776,lexical_decision_task_MP,2020.1.3,Win32,60,m,1,0.58094,,,,,,,,0.58094,1,,,,,,178,WORD,"ID",50,inform,INFORM,m,,,,,,0.489089419,-0.045857237,0,0,0,,0,98,98,117,1,
,,,,,,,,,,,,,,,,,,5ec6ae38afab190b8b7b3be8,2020-08-08_10h42.47.776,lexical_decision_task_MP,2020.1.3,Win32,60,m,1,0.46945,,,,,,,,0.46945,1,,,,,,69,WORD,"ID",33,plenty,PLENTY,m,,,,,,0.489089419,-0.045857237,0,0,0,,0,99,99,8,1,
,,,,,,,,,,,,,,,,,,5ec6ae38afab190b8b7b3be8,2020-08-08_10h42.47.776,lexical_decision_task_MP,2020.1.3,Win32,60,z,0,0.454445,,,,,,,,0.454445,0,,,,,,38,WORD,UN,50,insect,POWDER,m,,,,,,0.489089419,-0.045857237,0,0,0,,0,100,100,217,1,
,,,,,,,,,,,,,,,,,,5ec6ae38afab190b8b7b3be8,2020-08-08_10h42.47.776,lexical_decision_task_MP,2020.1.3,Win32,60,m,1,0.419675,,,,,,,,0.419675,1,,,,,,95,WORD,"ID",33,thread,THREAD,m,,,,,,0.489089419,-0.045857237,0,0,0,,0,101,101,34,1,
,,,,,,,,,,,,,,,,,,5ec6ae38afab190b8b7b3be8,2020-08-08_10h42.47.776,lexical_decision_task_MP,2020.1.3,Win32,60,m,1,0.409095,,,,,,,,0.409095,1,,,,,,158,WORD,"ID",50,island,ISLAND,m,,,,,,0.489089419,-0.045857237,0,0,0,,0,102,102,97,1,
,,,,,,,,,,,,,,,,,,5ec6ae38afab190b8b7b3be8,2020-08-08_10h42.47.776,lexical_decision_task_MP,2020.1.3,Win32,60,m,1,0.36376,,,,,,,,0.36376,1,,,,,,196,WORD,UN,33,stream,CREDIT,m,,,,,,0.489089419,-0.045857237,0,0,0,,0,103,103,135,1,
,,,,,,,,,,,,,,,,,,5ec6ae38afab190b8b7b3be8,2020-08-08_10h42.47.776,lexical_decision_task_MP,2020.1.3,Win32,60,m,1,0.468955,,,,,,,,0.468955,1,,,,,,140,WORD,"ID",50,prince,PRINCE,m,,,,,,0.489089419,-0.045857237,0,0,0,,0,104,104,79,1,
,,,,,,,,,,,,,,,,,,5ec6ae38afab190b8b7b3be8,2020-08-08_10h42.47.776,lexical_decision_task_MP,2020.1.3,Win32,60,m,1,0.409355,,,,,,,,0.409355,1,,,,,,159,WORD,"ID",50,detail,DETAIL,m,,,,,,0.489089419,-0.045857237,0,0,0,,0,105,105,98,1,
,,,,,,,,,,,,,,,,,,5ec6ae38afab190b8b7b3be8,2020-08-08_10h42.47.776,lexical_decision_task_MP,2020.1.3,Win32,60,m,1,0.459595,,,,,,,,0.459595,1,,,,,,65,WORD,"ID",33,symbol,SYMBOL,m,,,,,,0.489089419,-0.045857237,0,0,0,,0,106,106,4,1,
,,,,,,,,,,,,,,,,,,5ec6ae38afab190b8b7b3be8,2020-08-08_10h42.47.776,lexical_decision_task_MP,2020.1.3,Win32,60,m,1,0.895855,,,,,,,,0.895855,1,,,,,,98,WORD,"ID",33,belong,BELONG,m,,,,,,0.489089419,-0.045857237,0,0,0,,0,107,107,37,1,
,,,,,,,,,,,,,,,,,,5ec6ae38afab190b8b7b3be8,2020-08-08_10h42.47.776,lexical_decision_task_MP,2020.1.3,Win32,60,z,1,0.466475,,,,,,,,0.466475,1,,,,,,272,NW,UN,50,sortel,DAMILT,z,,,,,,0.489089419,-0.045857237,0,0,0,,0,108,108,451,1,
,,,,,,,,,,,,,,,,,,5ec6ae38afab190b8b7b3be8,2020-08-08_10h42.47.776,lexical_decision_task_MP,2020.1.3,Win32,60,m,1,0.636105,,,,,,,,0.636105,1,,,,,,3,WORD,UN,50,trench,KNIGHT,m,,,,,,0.489089419,-0.045857237,0,0,0,,0,109,109,182,1,
,,,,,,,,,,,,,,,,,,5ec6ae38afab190b8b7b3be8,2020-08-08_10h42.47.776,lexical_decision_task_MP,2020.1.3,Win32,60,z,1,0.691075,,,,,,,,0.691075,1,,,,,,269,NW,UN,50,wrimsy,ORCHET,z,,,,,,0.489089419,-0.045857237,0,0,0,,0,110,110,448,1,
,,,,,,,,,,,,,,,,,,5ec6ae38afab190b8b7b3be8,2020-08-08_10h42.47.776,lexical_decision_task_MP,2020.1.3,Win32,60,z,0,0.546945,,,,,,,,0.546945,0,,,,,,145,WORD,"ID",50,parish,PARISH,m,,,,,,0.489089419,-0.045857237,0,0,0,,0,111,111,84,1,
,,,,,,,,,,,,,,,,,,5ec6ae38afab190b8b7b3be8,2020-08-08_10h42.47.776,lexical_decision_task_MP,2020.1.3,Win32,60,m,1,0.457205,,,,,,,,0.457205,1,,,,,,169,WORD,"ID",50,genius,GENIUS,m,,,,,,0.489089419,-0.045857237,0,0,0,,0,112,112,108,1,
,,,,,,,,,,,,,,,,,,5ec6ae38afab190b8b7b3be8,2020-08-08_10h42.47.776,lexical_decision_task_MP,2020.1.3,Win32,60,z,1,0.727715,,,,,,,,0.727715,1,,,,,,368,NW,"ID",50,hornal,HORNAL,z,,,,,,0.489089419,-0.045857237,0,0,0,,0,113,113,307,1,
,,,,,,,,,,,,,,,,,,5ec6ae38afab190b8b7b3be8,2020-08-08_10h42.47.776,lexical_decision_task_MP,2020.1.3,Win32,60,z,1,0.4597,,,,,,,,0.4597,1,,,,,,267,NW,UN,50,packes,PASINK,z,,,,,,0.489089419,-0.045857237,0,0,0,,0,114,114,446,1,
,,,,,,,,,,,,,,,,,,5ec6ae38afab190b8b7b3be8,2020-08-08_10h42.47.776,lexical_decision_task_MP,2020.1.3,Win32,60,m,1,0.509465,,,,,,,,0.509465,1,,,,,,72,WORD,"ID",33,bright,BRIGHT,m,,,,,,0.489089419,-0.045857237,0,0,0,,0,115,115,11,1,
,,,,,,,,,,,,,,,,,,5ec6ae38afab190b8b7b3be8,2020-08-08_10h42.47.776,lexical_decision_task_MP,2020.1.3,Win32,60,z,1,0.58172,,,,,,,,0.58172,1,,,,,,243,NW,UN,50,eatric,MUSIED,z,,,,,,0.489089419,-0.045857237,0,0,0,,0,116,116,422,1,
,,,,,,,,,,,,,,,,,,5ec6ae38afab190b8b7b3be8,2020-08-08_10h42.47.776,lexical_decision_task_MP,2020.1.3,Win32,60,z,1,0.51319,,,,,,,,0.51319,1,,,,,,281,NW,UN,50,porlex,MELATY,z,,,,,,0.489089419,-0.045857237,0,0,0,,0,117,117,460,1,
,,,,,,,,,,,,,,,,,,5ec6ae38afab190b8b7b3be8,2020-08-08_10h42.47.776,lexical_decision_task_MP,2020.1.3,Win32,60,z,1,0.536045,,,,,,,,0.536045,1,,,,,,384,NW,"ID",50,guesco,GUESCO,z,,,,,,0.489089419,-0.045857237,0,0,0,,0,118,118,323,1,
,,,,,,,,,,,,,,,,,,5ec6ae38afab190b8b7b3be8,2020-08-08_10h42.47.776,lexical_decision_task_MP,2020.1.3,Win32,60,m,1,0.45718,,,,,,,,0.45718,1,,,,,,136,WORD,"ID",50,bleach,BLEACH,m,,,,,,0.489089419,-0.045857237,0,0,0,,0,119,119,75,1,
,,,,,,,,,,,,,,,,,,5ec6ae38afab190b8b7b3be8,2020-08-08_10h42.47.776,lexical_decision_task_MP,2020.1.3,Win32,60,m,1,0.538265,,,,,,,,0.538265,1,,,,,,235,WORD,UN,33,pirate,GRUMPY,m,,,,,,0.489089419,-0.045857237,0,0,0,space,0,120,120,174,1,4.817355
,,,,,,,,,,,,,,,,,,5ec6ae38afab190b8b7b3be8,2020-08-08_10h42.47.776,lexical_decision_task_MP,2020.1.3,Win32,60,z,1,0.56834,,,,,,,,0.56834,1,,,,,,277,NW,UN,50,unighs,PETAIN,z,,,,,,0.489089419,-0.045857237,0,0,0,,0,121,121,456,1,
,,,,,,,,,,,,,,,,,,5ec6ae38afab190b8b7b3be8,2020-08-08_10h42.47.776,lexical_decision_task_MP,2020.1.3,Win32,60,z,1,0.560155,,,,,,,,0.560155,1,,,,,,266,NW,UN,50,pasink,VARMIT,z,,,,,,0.489089419,-0.045857237,0,0,0,,0,122,122,445,1,
,,,,,,,,,,,,,,,,,,5ec6ae38afab190b8b7b3be8,2020-08-08_10h42.47.776,lexical_decision_task_MP,2020.1.3,Win32,60,m,1,0.468275,,,,,,,,0.468275,1,,,,,,94,WORD,"ID",33,travel,TRAVEL,m,,,,,,0.489089419,-0.045857237,0,0,0,,0,123,123,33,1,
,,,,,,,,,,,,,,,,,,5ec6ae38afab190b8b7b3be8,2020-08-08_10h42.47.776,lexical_decision_task_MP,2020.1.3,Win32,60,z,1,0.417025,,,,,,,,0.417025,1,,,,,,380,NW,"ID",50,cavory,CAVORY,z,,,,,,0.489089419,-0.045857237,0,0,0,,0,124,124,319,1,
,,,,,,,,,,,,,,,,,,5ec6ae38afab190b8b7b3be8,2020-08-08_10h42.47.776,lexical_decision_task_MP,2020.1.3,Win32,60,m,1,0.497525,,,,,,,,0.497525,1,,,,,,138,WORD,"ID",50,melody,MELODY,m,,,,,,0.489089419,-0.045857237,0,0,0,,0,125,125,77,1,
,,,,,,,,,,,,,,,,,,5ec6ae38afab190b8b7b3be8,2020-08-08_10h42.47.776,lexical_decision_task_MP,2020.1.3,Win32,60,z,1,0.663835,,,,,,,,0.663835,1,,,,,,464,NW,UN,33,whivex,CHAITE,z,,,,,,0.489089419,-0.045857237,0,0,0,,0,126,126,403,1,
,,,,,,,,,,,,,,,,,,5ec6ae38afab190b8b7b3be8,2020-08-08_10h42.47.776,lexical_decision_task_MP,2020.1.3,Win32,60,z,0,0.447465,,,,,,,,0.447465,0,,,,,,210,WORD,UN,33,infect,MONKEY,m,,,,,,0.489089419,-0.045857237,0,0,0,,0,127,127,149,1,
,,,,,,,,,,,,,,,,,,5ec6ae38afab190b8b7b3be8,2020-08-08_10h42.47.776,lexical_decision_task_MP,2020.1.3,Win32,60,z,1,0.5862,,,,,,,,0.5862,1,,,,,,336,NW,"ID",33,ghodus,GHODUS,z,,,,,,0.489089419,-0.045857237,0,0,0,,0,128,128,275,1,
,,,,,,,,,,,,,,,,,,5ec6ae38afab190b8b7b3be8,2020-08-08_10h42.47.776,lexical_decision_task_MP,2020.1.3,Win32,60,m,1,0.520145,,,,,,,,0.520145,1,,,,,,7,WORD,UN,50,abrupt,ANCHOR,m,,,,,,0.489089419,-0.045857237,0,0,0,,0,129,129,186,1,
,,,,,,,,,,,,,,,,,,5ec6ae38afab190b8b7b3be8,2020-08-08_10h42.47.776,lexical_decision_task_MP,2020.1.3,Win32,60,m,1,0.431415,,,,,,,,0.431415,1,,,,,,28,WORD,UN,50,sketch,COMEDY,m,,,,,,0.489089419,-0.045857237,0,0,0,,0,130,130,207,1,
,,,,,,,,,,,,,,,,,,5ec6ae38afab190b8b7b3be8,2020-08-08_10h42.47.776,lexical_decision_task_MP,2020.1.3,Win32,60,z,1,0.540625,,,,,,,,0.540625,1,,,,,,315,NW,"ID",33,laston,LASTON,z,,,,,,0.489089419,-0.045857237,0,0,0,,0,131,131,254,1,
,,,,,,,,,,,,,,,,,,5ec6ae38afab190b8b7b3be8,2020-08-08_10h42.47.776,lexical_decision_task_MP,2020.1.3,Win32,60,z,1,0.53092,,,,,,,,0.53092,1,,,,,,242,NW,UN,50,musied,UNWERT,z,,,,,,0.489089419,-0.045857237,0,0,0,,0,132,132,421,1,
,,,,,,,,,,,,,,,,,,5ec6ae38afab190b8b7b3be8,2020-08-08_10h42.47.776,lexical_decision_task_MP,2020.1.3,Win32,60,z,1,0.49824,,,,,,,,0.49824,1,,,,,,252,NW,UN,50,resait,STAPOD,z,,,,,,0.489089419,-0.045857237,0,0,0,,0,133,133,431,1,
,,,,,,,,,,,,,,,,,,5ec6ae38afab190b8b7b3be8,2020-08-08_10h42.47.776,lexical_decision_task_MP,2020.1.3,Win32,60,m,1,0.50871,,,,,,,,0.50871,1,,,,,,60,WORD,UN,50,fright,PENCIL,m,,,,,,0.489089419,-0.045857237,0,0,0,,0,134,134,239,1,
,,,,,,,,,,,,,,,,,,5ec6ae38afab190b8b7b3be8,2020-08-08_10h42.47.776,lexical_decision_task_MP,2020.1.3,Win32,60,m,1,0.46355,,,,,,,,0.46355,1,,,,,,144,WORD,"ID",50,sponge,SPONGE,m,,,,,,0.489089419,-0.045857237,0,0,0,,0,135,135,83,1,
,,,,,,,,,,,,,,,,,,5ec6ae38afab190b8b7b3be8,2020-08-08_10h42.47.776,lexical_decision_task_MP,2020.1.3,Win32,60,z,1,0.51579,,,,,,,,0.51579,1,,,,,,321,NW,"ID",33,miator,MIATOR,z,,,,,,0.489089419,-0.045857237,0,0,0,,0,136,136,260,1,
,,,,,,,,,,,,,,,,,,5ec6ae38afab190b8b7b3be8,2020-08-08_10h42.47.776,lexical_decision_task_MP,2020.1.3,Win32,60,z,1,0.679455,,,,,,,,0.679455,1,,,,,,260,NW,UN,50,stunch,UNJECT,z,,,,,,0.489089419,-0.045857237,0,0,0,,0,137,137,439,1,
,,,,,,,,,,,,,,,,,,5ec6ae38afab190b8b7b3be8,2020-08-08_10h42.47.776,lexical_decision_task_MP,2020.1.3,Win32,60,m,1,0.581365,,,,,,,,0.581365,1,,,,,,37,WORD,UN,50,powder,INSULT,m,,,,,,0.489089419,-0.045857237,0,0,0,,0,138,138,216,1,
,,,,,,,,,,,,,,,,,,5ec6ae38afab190b8b7b3be8,2020-08-08_10h42.47.776,lexical_decision_task_MP,2020.1.3,Win32,60,z,1,0.48071,,,,,,,,0.48071,1,,,,,,339,NW,"ID",33,fachow,FACHOW,z,,,,,,0.489089419,-0.045857237,0,0,0,,0,139,139,278,1,
,,,,,,,,,,,,,,,,,,5ec6ae38afab190b8b7b3be8,2020-08-08_10h42.47.776,lexical_decision_task_MP,2020.1.3,Win32,60,z,1,0.598825,,,,,,,,0.598825,1,,,,,,300,NW,UN,50,smenco,YARION,z,,,,,,0.489089419,-0.045857237,0,0,0,,0,140,140,479,1,
,,,,,,,,,,,,,,,,,,5ec6ae38afab190b8b7b3be8,2020-08-08_10h42.47.776,lexical_decision_task_MP,2020.1.3,Win32,60,m,1,0.645725,,,,,,,,0.645725,1,,,,,,230,WORD,UN,33,mother,FRINGE,m,,,,,,0.489089419,-0.045857237,0,0,0,,0,141,141,169,1,
,,,,,,,,,,,,,,,,,,5ec6ae38afab190b8b7b3be8,2020-08-08_10h42.47.776,lexical_decision_task_MP,2020.1.3,Win32,60,z,1,0.481495,,,,,,,,0.481495,1,,,,,,342,NW,"ID",33,randow,RANDOW,z,,,,,,0.489089419,-0.045857237,0,0,0,,0,142,142,281,1,
,,,,,,,,,,,,,,,,,,5ec6ae38afab190b8b7b3be8,2020-08-08_10h42.47.776,lexical_decision_task_MP,2020.1.3,Win32,60,z,1,0.616795,,,,,,,,0.616795,1,,,,,,258,NW,UN,50,soudal,POLUTH,z,,,,,,0.489089419,-0.045857237,0,0,0,,0,143,143,437,1,
,,,,,,,,,,,,,,,,,,5ec6ae38afab190b8b7b3be8,2020-08-08_10h42.47.776,lexical_decision_task_MP,2020.1.3,Win32,60,z,1,0.481355,,,,,,,,0.481355,1,,,,,,327,NW,"ID",33,plenac,PLENAC,z,,,,,,0.489089419,-0.045857237,0,0,0,,0,144,144,266,1,
,,,,,,,,,,,,,,,,,,5ec6ae38afab190b8b7b3be8,2020-08-08_10h42.47.776,lexical_decision_task_MP,2020.1.3,Win32,60,z,0,0.470825,,,,,,,,0.470825,0,,,,,,222,WORD,UN,33,export,HINDER,m,,,,,,0.489089419,-0.045857237,0,0,0,,0,145,145,161,1,
,,,,,,,,,,,,,,,,,,5ec6ae38afab190b8b7b3be8,2020-08-08_10h42.47.776,lexical_decision_task_MP,2020.1.3,Win32,60,z,1,0.54927,,,,,,,,0.54927,1,,,,,,353,NW,"ID",33,clurey,CLUREY,z,,,,,,0.489089419,-0.045857237,0,0,0,,0,146,146,292,1,
,,,,,,,,,,,,,,,,,,5ec6ae38afab190b8b7b3be8,2020-08-08_10h42.47.776,lexical_decision_task_MP,2020.1.3,Win32,60,z,1,0.43836,,,,,,,,0.43836,1,,,,,,356,NW,"ID",33,othnis,OTHNIS,z,,,,,,0.489089419,-0.045857237,0,0,0,,0,147,147,295,1,
,,,,,,,,,,,,,,,,,,5ec6ae38afab190b8b7b3be8,2020-08-08_10h42.47.776,lexical_decision_task_MP,2020.1.3,Win32,60,z,1,0.84979,,,,,,,,0.84979,1,,,,,,303,NW,"ID",33,fiream,FIREAM,z,,,,,,0.489089419,-0.045857237,0,0,0,,0,148,148,242,1,
,,,,,,,,,,,,,,,,,,5ec6ae38afab190b8b7b3be8,2020-08-08_10h42.47.776,lexical_decision_task_MP,2020.1.3,Win32,60,z,1,0.682145,,,,,,,,0.682145,1,,,,,,474,NW,UN,33,acrise,HABLIN,z,,,,,,0.489089419,-0.045857237,0,0,0,,0,149,149,413,1,
,,,,,,,,,,,,,,,,,,5ec6ae38afab190b8b7b3be8,2020-08-08_10h42.47.776,lexical_decision_task_MP,2020.1.3,Win32,60,z,1,0.54724,,,,,,,,0.54724,1,,,,,,453,NW,UN,33,scouge,BOLVIS,z,,,,,,0.489089419,-0.045857237,0,0,0,,0,150,150,392,1,
,,,,,,,,,,,,,,,,,,5ec6ae38afab190b8b7b3be8,2020-08-08_10h42.47.776,lexical_decision_task_MP,2020.1.3,Win32,60,z,1,0.5377,,,,,,,,0.5377,1,,,,,,479,NW,UN,33,crible,LOBUSH,z,,,,,,0.489089419,-0.045857237,0,0,0,,0,151,151,418,1,
,,,,,,,,,,,,,,,,,,5ec6ae38afab190b8b7b3be8,2020-08-08_10h42.47.776,lexical_decision_task_MP,2020.1.3,Win32,60,m,1,0.3705,,,,,,,,0.3705,1,,,,,,134,WORD,"ID",50,staple,STAPLE,m,,,,,,0.489089419,-0.045857237,0,0,0,,0,152,152,73,1,
,,,,,,,,,,,,,,,,,,5ec6ae38afab190b8b7b3be8,2020-08-08_10h42.47.776,lexical_decision_task_MP,2020.1.3,Win32,60,z,1,0.589445,,,,,,,,0.589445,1,,,,,,299,NW,UN,50,yarion,STURCH,z,,,,,,0.489089419,-0.045857237,0,0,0,,0,153,153,478,1,
,,,,,,,,,,,,,,,,,,5ec6ae38afab190b8b7b3be8,2020-08-08_10h42.47.776,lexical_decision_task_MP,2020.1.3,Win32,60,m,1,0.50104,,,,,,,,0.50104,1,,,,,,47,WORD,UN,50,walnut,INCOME,m,,,,,,0.489089419,-0.045857237,0,0,0,,0,154,154,226,1,
,,,,,,,,,,,,,,,,,,5ec6ae38afab190b8b7b3be8,2020-08-08_10h42.47.776,lexical_decision_task_MP,2020.1.3,Win32,60,z,1,0.547495,,,,,,,,0.547495,1,,,,,,325,NW,"ID",33,thruse,THRUSE,z,,,,,,0.489089419,-0.045857237,0,0,0,,0,155,155,264,1,
,,,,,,,,,,,,,,,,,,5ec6ae38afab190b8b7b3be8,2020-08-08_10h42.47.776,lexical_decision_task_MP,2020.1.3,Win32,60,z,1,0.499295,,,,,,,,0.499295,1,,,,,,441,NW,UN,33,aboune,RASTOE,z,,,,,,0.489089419,-0.045857237,0,0,0,,0,156,156,380,1,
,,,,,,,,,,,,,,,,,,5ec6ae38afab190b8b7b3be8,2020-08-08_10h42.47.776,lexical_decision_task_MP,2020.1.3,Win32,60,z,1,0.44648,,,,,,,,0.44648,1,,,,,,371,NW,"ID",50,geiloy,GEILOY,z,,,,,,0.489089419,-0.045857237,0,0,0,,0,157,157,310,1,
,,,,,,,,,,,,,,,,,,5ec6ae38afab190b8b7b3be8,2020-08-08_10h42.47.776,lexical_decision_task_MP,2020.1.3,Win32,60,m,1,0.58275,,,,,,,,0.58275,1,,,,,,29,WORD,UN,50,orient,SKETCH,m,,,,,,0.489089419,-0.045857237,0,0,0,,0,158,158,208,1,
,,,,,,,,,,,,,,,,,,5ec6ae38afab190b8b7b3be8,2020-08-08_10h42.47.776,lexical_decision_task_MP,2020.1.3,Win32,60,z,1,0.448075,,,,,,,,0.448075,1,,,,,,463,NW,UN,33,chaite,KISPEL,z,,,,,,0.489089419,-0.045857237,0,0,0,,0,159,159,402,1,
,,,,,,,,,,,,,,,,,,5ec6ae38afab190b8b7b3be8,2020-08-08_10h42.47.776,lexical_decision_task_MP,2020.1.3,Win32,60,m,1,0.4896,,,,,,,,0.4896,1,,,,,,121,WORD,"ID",50,thrive,THRIVE,m,,,,,,0.489089419,-0.045857237,0,0,0,,0,160,160,60,1,
,,,,,,,,,,,,,,,,,,5ec6ae38afab190b8b7b3be8,2020-08-08_10h42.47.776,lexical_decision_task_MP,2020.1.3,Win32,60,m,1,0.4715,,,,,,,,0.4715,1,,,,,,52,WORD,UN,50,police,IMPOSE,m,,,,,,0.489089419,-0.045857237,0,0,0,,0,161,161,231,1,
,,,,,,,,,,,,,,,,,,5ec6ae38afab190b8b7b3be8,2020-08-08_10h42.47.776,lexical_decision_task_MP,2020.1.3,Win32,60,m,1,0.589725,,,,,,,,0.589725,1,,,,,,223,WORD,UN,33,period,KIDNEY,m,,,,,,0.489089419,-0.045857237,0,0,0,,0,162,162,162,1,
,,,,,,,,,,,,,,,,,,5ec6ae38afab190b8b7b3be8,2020-08-08_10h42.47.776,lexical_decision_task_MP,2020.1.3,Win32,60,m,1,0.431265,,,,,,,,0.431265,1,,,,,,203,WORD,UN,33,burden,PHRASE,m,,,,,,0.489089419,-0.045857237,0,0,0,,0,163,163,142,1,
,,,,,,,,,,,,,,,,,,5ec6ae38afab190b8b7b3be8,2020-08-08_10h42.47.776,lexical_decision_task_MP,2020.1.3,Win32,60,z,0,0.414795,,,,,,,,0.414795,0,,,,,,10,WORD,UN,50,cruise,ETHNIC,m,,,,,,0.489089419,-0.045857237,0,0,0,,0,164,164,189,1,
,,,,,,,,,,,,,,,,,,5ec6ae38afab190b8b7b3be8,2020-08-08_10h42.47.776,lexical_decision_task_MP,2020.1.3,Win32,60,z,1,0.651435,,,,,,,,0.651435,1,,,,,,296,NW,UN,50,fertic,BEINCH,z,,,,,,0.489089419,-0.045857237,0,0,0,,0,165,165,475,1,
,,,,,,,,,,,,,,,,,,5ec6ae38afab190b8b7b3be8,2020-08-08_10h42.47.776,lexical_decision_task_MP,2020.1.3,Win32,60,m,1,0.680015,,,,,,,,0.680015,1,,,,,,16,WORD,UN,50,charge,FAUCET,m,,,,,,0.489089419,-0.045857237,0,0,0,,0,166,166,195,1,
,,,,,,,,,,,,,,,,,,5ec6ae38afab190b8b7b3be8,2020-08-08_10h42.47.776,lexical_decision_task_MP,2020.1.3,Win32,60,m,1,0.399645,,,,,,,,0.399645,1,,,,,,146,WORD,"ID",50,couple,COUPLE,m,,,,,,0.489089419,-0.045857237,0,0,0,,0,167,167,85,1,
,,,,,,,,,,,,,,,,,,5ec6ae38afab190b8b7b3be8,2020-08-08_10h42.47.776,lexical_decision_task_MP,2020.1.3,Win32,60,m,1,0.547015,,,,,,,,0.547015,1,,,,,,216,WORD,UN,33,liquor,BEHALF,m,,,,,,0.489089419,-0.045857237,0,0,0,,0,168,168,155,1,
,,,,,,,,,,,,,,,,,,5ec6ae38afab190b8b7b3be8,2020-08-08_10h42.47.776,lexical_decision_task_MP,2020.1.3,Win32,60,m,1,0.39756,,,,,,,,0.39756,1,,,,,,201,WORD,UN,33,factor,ADMIRE,m,,,,,,0.489089419,-0.045857237,0,0,0,,0,169,169,140,1,
,,,,,,,,,,,,,,,,,,5ec6ae38afab190b8b7b3be8,2020-08-08_10h42.47.776,lexical_decision_task_MP,2020.1.3,Win32,60,z,1,0.64723,,,,,,,,0.64723,1,,,,,,387,NW,"ID",50,gronce,GRONCE,z,,,,,,0.489089419,-0.045857237,0,0,0,,0,170,170,326,1,
,,,,,,,,,,,,,,,,,,5ec6ae38afab190b8b7b3be8,2020-08-08_10h42.47.776,lexical_decision_task_MP,2020.1.3,Win32,60,z,0,0.436425,,,,,,,,0.436425,0,,,,,,93,WORD,"ID",33,public,PUBLIC,m,,,,,,0.489089419,-0.045857237,0,0,0,,0,171,171,32,1,
,,,,,,,,,,,,,,,,,,5ec6ae38afab190b8b7b3be8,2020-08-08_10h42.47.776,lexical_decision_task_MP,2020.1.3,Win32,60,m,1,0.680355,,,,,,,,0.680355,1,,,,,,4,WORD,UN,50,plunge,TRENCH,m,,,,,,0.489089419,-0.045857237,0,0,0,,0,172,172,183,1,
,,,,,,,,,,,,,,,,,,5ec6ae38afab190b8b7b3be8,2020-08-08_10h42.47.776,lexical_decision_task_MP,2020.1.3,Win32,60,m,1,0.48066,,,,,,,,0.48066,1,,,,,,80,WORD,"ID",33,family,FAMILY,m,,,,,,0.489089419,-0.045857237,0,0,0,,0,173,173,19,1,
,,,,,,,,,,,,,,,,,,5ec6ae38afab190b8b7b3be8,2020-08-08_10h42.47.776,lexical_decision_task_MP,2020.1.3,Win32,60,z,1,0.61711,,,,,,,,0.61711,1,,,,,,354,NW,"ID",33,virlex,VIRLEX,z,,,,,,0.489089419,-0.045857237,0,0,0,,0,174,174,293,1,
,,,,,,,,,,,,,,,,,,5ec6ae38afab190b8b7b3be8,2020-08-08_10h42.47.776,lexical_decision_task_MP,2020.1.3,Win32,60,z,1,0.615135,,,,,,,,0.615135,1,,,,,,414,NW,"ID",50,serbol,SERBOL,z,,,,,,0.489089419,-0.045857237,0,0,0,,0,175,175,353,1,
,,,,,,,,,,,,,,,,,,5ec6ae38afab190b8b7b3be8,2020-08-08_10h42.47.776,lexical_decision_task_MP,2020.1.3,Win32,60,z,1,0.516145,,,,,,,,0.516145,1,,,,,,363,NW,"ID",50,breali,BREALI,z,,,,,,0.489089419,-0.045857237,0,0,0,,0,176,176,302,1,
,,,,,,,,,,,,,,,,,,5ec6ae38afab190b8b7b3be8,2020-08-08_10h42.47.776,lexical_decision_task_MP,2020.1.3,Win32,60,m,1,0.380715,,,,,,,,0.380715,1,,,,,,104,WORD,"ID",33,studio,STUDIO,m,,,,,,0.489089419,-0.045857237,0,0,0,,0,177,177,43,1,
,,,,,,,,,,,,,,,,,,5ec6ae38afab190b8b7b3be8,2020-08-08_10h42.47.776,lexical_decision_task_MP,2020.1.3,Win32,60,m,1,0.514365,,,,,,,,0.514365,1,,,,,,44,WORD,UN,50,clergy,DANGER,m,,,,,,0.489089419,-0.045857237,0,0,0,,0,178,178,223,1,
,,,,,,,,,,,,,,,,,,5ec6ae38afab190b8b7b3be8,2020-08-08_10h42.47.776,lexical_decision_task_MP,2020.1.3,Win32,60,m,1,0.36425,,,,,,,,0.36425,1,,,,,,150,WORD,"ID",50,random,RANDOM,m,,,,,,0.489089419,-0.045857237,0,0,0,,0,179,179,89,1,
,,,,,,,,,,,,,,,,,,5ec6ae38afab190b8b7b3be8,2020-08-08_10h42.47.776,lexical_decision_task_MP,2020.1.3,Win32,60,z,1,0.55467,,,,,,,,0.55467,1,,,,,,427,NW,UN,33,tandly,SCHIND,z,,,,,,0.489089419,-0.045857237,0,0,0,,0,180,180,366,1,
,,,,,,,,,,,,,,,,,,5ec6ae38afab190b8b7b3be8,2020-08-08_10h42.47.776,lexical_decision_task_MP,2020.1.3,Win32,60,z,1,0.54792,,,,,,,,0.54792,1,,,,,,430,NW,UN,33,chrums,CAROEY,z,,,,,,0.489089419,-0.045857237,0,0,0,,0,181,181,369,1,
,,,,,,,,,,,,,,,,,,5ec6ae38afab190b8b7b3be8,2020-08-08_10h42.47.776,lexical_decision_task_MP,2020.1.3,Win32,60,z,1,0.447825,,,,,,,,0.447825,1,,,,,,359,NW,"ID",33,fonver,FONVER,z,,,,,,0.489089419,-0.045857237,0,0,0,,0,182,182,298,1,
,,,,,,,,,,,,,,,,,,5ec6ae38afab190b8b7b3be8,2020-08-08_10h42.47.776,lexical_decision_task_MP,2020.1.3,Win32,60,m,1,0.45098,,,,,,,,0.45098,1,,,,,,185,WORD,UN,33,portal,BOTHER,m,,,,,,0.489089419,-0.045857237,0,0,0,,0,183,183,124,1,
,,,,,,,,,,,,,,,,,,5ec6ae38afab190b8b7b3be8,2020-08-08_10h42.47.776,lexical_decision_task_MP,2020.1.3,Win32,60,z,1,0.79008,,,,,,,,0.79008,1,,,,,,418,NW,"ID",50,suidle,SUIDLE,z,,,,,,0.489089419,-0.045857237,0,0,0,,0,184,184,357,1,
,,,,,,,,,,,,,,,,,,5ec6ae38afab190b8b7b3be8,2020-08-08_10h42.47.776,lexical_decision_task_MP,2020.1.3,Win32,60,m,1,0.51807,,,,,,,,0.51807,1,,,,,,197,WORD,UN,33,wicked,STREAM,m,,,,,,0.489089419,-0.045857237,0,0,0,,0,185,185,136,1,
,,,,,,,,,,,,,,,,,,5ec6ae38afab190b8b7b3be8,2020-08-08_10h42.47.776,lexical_decision_task_MP,2020.1.3,Win32,60,m,1,0.455965,,,,,,,,0.455965,1,,,,,,166,WORD,"ID",50,starch,STARCH,m,,,,,,0.489089419,-0.045857237,0,0,0,,0,186,186,105,1,
,,,,,,,,,,,,,,,,,,5ec6ae38afab190b8b7b3be8,2020-08-08_10h42.47.776,lexical_decision_task_MP,2020.1.3,Win32,60,m,0,0.484355,,,,,,,,0.484355,0,,,,,,291,NW,UN,50,ablint,PRETCH,z,,,,,,0.489089419,-0.045857237,0,0,0,,0,187,187,470,1,
,,,,,,,,,,,,,,,,,,5ec6ae38afab190b8b7b3be8,2020-08-08_10h42.47.776,lexical_decision_task_MP,2020.1.3,Win32,60,m,1,0.441305,,,,,,,,0.441305,1,,,,,,66,WORD,"ID",33,gospel,GOSPEL,m,,,,,,0.489089419,-0.045857237,0,0,0,,0,188,188,5,1,
,,,,,,,,,,,,,,,,,,5ec6ae38afab190b8b7b3be8,2020-08-08_10h42.47.776,lexical_decision_task_MP,2020.1.3,Win32,60,z,1,0.622295,,,,,,,,0.622295,1,,,,,,279,NW,UN,50,curbol,CELOND,z,,,,,,0.489089419,-0.045857237,0,0,0,,0,189,189,458,1,
,,,,,,,,,,,,,,,,,,5ec6ae38afab190b8b7b3be8,2020-08-08_10h42.47.776,lexical_decision_task_MP,2020.1.3,Win32,60,m,1,0.43983,,,,,,,,0.43983,1,,,,,,51,WORD,UN,50,impose,HUNGRY,m,,,,,,0.489089419,-0.045857237,0,0,0,,0,190,190,230,1,
,,,,,,,,,,,,,,,,,,5ec6ae38afab190b8b7b3be8,2020-08-08_10h42.47.776,lexical_decision_task_MP,2020.1.3,Win32,60,z,1,0.556625,,,,,,,,0.556625,1,,,,,,351,NW,"ID",33,tiesch,TIESCH,z,,,,,,0.489089419,-0.045857237,0,0,0,,0,191,191,290,1,
,,,,,,,,,,,,,,,,,,5ec6ae38afab190b8b7b3be8,2020-08-08_10h42.47.776,lexical_decision_task_MP,2020.1.3,Win32,60,m,1,0.55442,,,,,,,,0.55442,1,,,,,,220,WORD,UN,33,mascot,VOYAGE,m,,,,,,0.489089419,-0.045857237,0,0,0,,0,192,192,159,1,
,,,,,,,,,,,,,,,,,,5ec6ae38afab190b8b7b3be8,2020-08-08_10h42.47.776,lexical_decision_task_MP,2020.1.3,Win32,60,m,1,0.86401,,,,,,,,0.86401,1,,,,,,117,WORD,"ID",33,branch,BRANCH,m,,,,,,0.489089419,-0.045857237,0,0,0,,0,193,193,56,1,
,,,,,,,,,,,,,,,,,,5ec6ae38afab190b8b7b3be8,2020-08-08_10h42.47.776,lexical_decision_task_MP,2020.1.3,Win32,60,m,1,0.59035,,,,,,,,0.59035,1,,,,,,111,WORD,"ID",33,induce,INDUCE,m,,,,,,0.489089419,-0.045857237,0,0,0,,0,194,194,50,1,
,,,,,,,,,,,,,,,,,,5ec6ae38afab190b8b7b3be8,2020-08-08_10h42.47.776,lexical_decision_task_MP,2020.1.3,Win32,60,z,1,0.52032,,,,,,,,0.52032,1,,,,,,247,NW,UN,50,strole,BLARGE,z,,,,,,0.489089419,-0.045857237,0,0,0,,0,195,195,426,1,
,,,,,,,,,,,,,,,,,,5ec6ae38afab190b8b7b3be8,2020-08-08_10h42.47.776,lexical_decision_task_MP,2020.1.3,Win32,60,m,1,0.4841,,,,,,,,0.4841,1,,,,,,96,WORD,"ID",33,ignore,IGNORE,m,,,,,,0.489089419,-0.045857237,0,0,0,,0,196,196,35,1,
,,,,,,,,,,,,,,,,,,5ec6ae38afab190b8b7b3be8,2020-08-08_10h42.47.776,lexical_decision_task_MP,2020.1.3,Win32,60,m,1,0.51358,,,,,,,,0.51358,1,,,,,,147,WORD,"ID",50,garlic,GARLIC,m,,,,,,0.489089419,-0.045857237,0,0,0,,0,197,197,86,1,
,,,,,,,,,,,,,,,,,,5ec6ae38afab190b8b7b3be8,2020-08-08_10h42.47.776,lexical_decision_task_MP,2020.1.3,Win32,60,z,1,0.671745,,,,,,,,0.671745,1,,,,,,367,NW,"ID",50,slique,SLIQUE,z,,,,,,0.489089419,-0.045857237,0,0,0,,0,198,198,306,1,
,,,,,,,,,,,,,,,,,,5ec6ae38afab190b8b7b3be8,2020-08-08_10h42.47.776,lexical_decision_task_MP,2020.1.3,Win32,60,z,1,0.52971,,,,,,,,0.52971,1,,,,,,331,NW,"ID",33,gilfew,GILFEW,z,,,,,,0.489089419,-0.045857237,0,0,0,,0,199,199,270,1,
,,,,,,,,,,,,,,,,,,5ec6ae38afab190b8b7b3be8,2020-08-08_10h42.47.776,lexical_decision_task_MP,2020.1.3,Win32,60,m,1,0.466125,,,,,,,,0.466125,1,,,,,,148,WORD,"ID",50,custom,CUSTOM,m,,,,,,0.489089419,-0.045857237,0,0,0,,0,200,200,87,1,
,,,,,,,,,,,,,,,,,,5ec6ae38afab190b8b7b3be8,2020-08-08_10h42.47.776,lexical_decision_task_MP,2020.1.3,Win32,60,z,1,0.784465,,,,,,,,0.784465,1,,,,,,478,NW,UN,33,pebric,ACRISE,z,,,,,,0.489089419,-0.045857237,0,0,0,,0,201,201,417,1,
,,,,,,,,,,,,,,,,,,5ec6ae38afab190b8b7b3be8,2020-08-08_10h42.47.776,lexical_decision_task_MP,2020.1.3,Win32,60,m,1,0.436425,,,,,,,,0.436425,1,,,,,,71,WORD,"ID",33,garden,GARDEN,m,,,,,,0.489089419,-0.045857237,0,0,0,,0,202,202,10,1,
,,,,,,,,,,,,,,,,,,5ec6ae38afab190b8b7b3be8,2020-08-08_10h42.47.776,lexical_decision_task_MP,2020.1.3,Win32,60,z,1,0.53346,,,,,,,,0.53346,1,,,,,,346,NW,"ID",33,saudic,SAUDIC,z,,,,,,0.489089419,-0.045857237,0,0,0,,0,203,203,285,1,
,,,,,,,,,,,,,,,,,,5ec6ae38afab190b8b7b3be8,2020-08-08_10h42.47.776,lexical_decision_task_MP,2020.1.3,Win32,60,m,0,0.4231,,,,,,,,0.4231,0,,,,,,352,NW,"ID",33,tringe,TRINGE,z,,,,,,0.489089419,-0.045857237,0,0,0,,0,204,204,291,1,
,,,,,,,,,,,,,,,,,,5ec6ae38afab190b8b7b3be8,2020-08-08_10h42.47.776,lexical_decision_task_MP,2020.1.3,Win32,60,m,1,0.485215,,,,,,,,0.485215,1,,,,,,100,WORD,"ID",33,carbon,CARBON,m,,,,,,0.489089419,-0.045857237,0,0,0,,0,205,205,39,1,
,,,,,,,,,,,,,,,,,,5ec6ae38afab190b8b7b3be8,2020-08-08_10h42.47.776,lexical_decision_task_MP,2020.1.3,Win32,60,z,1,0.37954,,,,,,,,0.37954,1,,,,,,280,NW,UN,50,melaty,CURBOL,z,,,,,,0.489089419,-0.045857237,0,0,0,,0,206,206,459,1,
,,,,,,,,,,,,,,,,,,5ec6ae38afab190b8b7b3be8,2020-08-08_10h42.47.776,lexical_decision_task_MP,2020.1.3,Win32,60,m,1,0.59837,,,,,,,,0.59837,1,,,,,,19,WORD,UN,50,breast,PATRON,m,,,,,,0.489089419,-0.045857237,0,0,0,,0,207,207,198,1,
,,,,,,,,,,,,,,,,,,5ec6ae38afab190b8b7b3be8,2020-08-08_10h42.47.776,lexical_decision_task_MP,2020.1.3,Win32,60,m,1,0.58178,,,,,,,,0.58178,1,,,,,,70,WORD,"ID",33,square,SQUARE,m,,,,,,0.489089419,-0.045857237,0,0,0,,0,208,208,9,1,
,,,,,,,,,,,,,,,,,,5ec6ae38afab190b8b7b3be8,2020-08-08_10h42.47.776,lexical_decision_task_MP,2020.1.3,Win32,60,z,1,0.558485,,,,,,,,0.558485,1,,,,,,446,NW,UN,33,gircue,RUNAMO,z,,,,,,0.489089419,-0.045857237,0,0,0,,0,209,209,385,1,
,,,,,,,,,,,,,,,,,,5ec6ae38afab190b8b7b3be8,2020-08-08_10h42.47.776,lexical_decision_task_MP,2020.1.3,Win32,60,m,1,0.52126,,,,,,,,0.52126,1,,,,,,63,WORD,"ID",33,launch,LAUNCH,m,,,,,,0.489089419,-0.045857237,0,0,0,,0,210,210,2,1,
,,,,,,,,,,,,,,,,,,5ec6ae38afab190b8b7b3be8,2020-08-08_10h42.47.776,lexical_decision_task_MP,2020.1.3,Win32,60,m,1,0.524805,,,,,,,,0.524805,1,,,,,,85,WORD,"ID",33,sprawl,SPRAWL,m,,,,,,0.489089419,-0.045857237,0,0,0,,0,211,211,24,1,
,,,,,,,,,,,,,,,,,,5ec6ae38afab190b8b7b3be8,2020-08-08_10h42.47.776,lexical_decision_task_MP,2020.1.3,Win32,60,z,1,0.53373,,,,,,,,0.53373,1,,,,,,443,NW,UN,33,jaunce,DORSEX,z,,,,,,0.489089419,-0.045857237,0,0,0,,0,212,212,382,1,
,,,,,,,,,,,,,,,,,,5ec6ae38afab190b8b7b3be8,2020-08-08_10h42.47.776,lexical_decision_task_MP,2020.1.3,Win32,60,z,0,0.471035,,,,,,,,0.471035,0,,,,,,225,WORD,UN,33,casino,VULGAR,m,,,,,,0.489089419,-0.045857237,0,0,0,,0,213,213,164,1,
,,,,,,,,,,,,,,,,,,5ec6ae38afab190b8b7b3be8,2020-08-08_10h42.47.776,lexical_decision_task_MP,2020.1.3,Win32,60,m,0,0.449285,,,,,,,,0.449285,0,,,,,,248,NW,UN,50,batrol,STROLE,z,,,,,,0.489089419,-0.045857237,0,0,0,,0,214,214,427,1,
,,,,,,,,,,,,,,,,,,5ec6ae38afab190b8b7b3be8,2020-08-08_10h42.47.776,lexical_decision_task_MP,2020.1.3,Win32,60,z,1,0.69729,,,,,,,,0.69729,1,,,,,,317,NW,"ID",33,worbal,WORBAL,z,,,,,,0.489089419,-0.045857237,0,0,0,,0,215,215,256,1,
,,,,,,,,,,,,,,,,,,5ec6ae38afab190b8b7b3be8,2020-08-08_10h42.47.776,lexical_decision_task_MP,2020.1.3,Win32,60,z,1,0.754525,,,,,,,,0.754525,1,,,,,,467,NW,UN,33,wictor,GORBIE,z,,,,,,0.489089419,-0.045857237,0,0,0,,0,216,216,406,1,
,,,,,,,,,,,,,,,,,,5ec6ae38afab190b8b7b3be8,2020-08-08_10h42.47.776,lexical_decision_task_MP,2020.1.3,Win32,60,z,1,0.579265,,,,,,,,0.579265,1,,,,,,385,NW,"ID",50,veigma,VEIGMA,z,,,,,,0.489089419,-0.045857237,0,0,0,,0,217,217,324,1,
,,,,,,,,,,,,,,,,,,5ec6ae38afab190b8b7b3be8,2020-08-08_10h42.47.776,lexical_decision_task_MP,2020.1.3,Win32,60,z,1,0.525365,,,,,,,,0.525365,1,,,,,,293,NW,UN,50,inhort,SWANCE,z,,,,,,0.489089419,-0.045857237,0,0,0,,0,218,218,472,1,
,,,,,,,,,,,,,,,,,,5ec6ae38afab190b8b7b3be8,2020-08-08_10h42.47.776,lexical_decision_task_MP,2020.1.3,Win32,60,m,1,0.50045,,,,,,,,0.50045,1,,,,,,171,WORD,"ID",50,depart,DEPART,m,,,,,,0.489089419,-0.045857237,0,0,0,,0,219,219,110,1,
,,,,,,,,,,,,,,,,,,5ec6ae38afab190b8b7b3be8,2020-08-08_10h42.47.776,lexical_decision_task_MP,2020.1.3,Win32,60,z,1,0.81626,,,,,,,,0.81626,1,,,,,,358,NW,"ID",33,fleack,FLEACK,z,,,,,,0.489089419,-0.045857237,0,0,0,,0,220,220,297,1,
,,,,,,,,,,,,,,,,,,5ec6ae38afab190b8b7b3be8,2020-08-08_10h42.47.776,lexical_decision_task_MP,2020.1.3,Win32,60,m,1,0.43575,,,,,,,,0.43575,1,,,,,,43,WORD,UN,50,foster,TONGUE,m,,,,,,0.489089419,-0.045857237,0,0,0,,0,221,221,222,1,
,,,,,,,,,,,,,,,,,,5ec6ae38afab190b8b7b3be8,2020-08-08_10h42.47.776,lexical_decision_task_MP,2020.1.3,Win32,60,m,1,0.423705,,,,,,,,0.423705,1,,,,,,88,WORD,"ID",33,hunger,HUNGER,m,,,,,,0.489089419,-0.045857237,0,0,0,,0,222,222,27,1,
,,,,,,,,,,,,,,,,,,5ec6ae38afab190b8b7b3be8,2020-08-08_10h42.47.776,lexical_decision_task_MP,2020.1.3,Win32,60,z,0,0.50556,,,,,,,,0.50556,0,,,,,,106,WORD,"ID",33,ransom,RANSOM,m,,,,,,0.489089419,-0.045857237,0,0,0,,0,223,223,45,1,
,,,,,,,,,,,,,,,,,,5ec6ae38afab190b8b7b3be8,2020-08-08_10h42.47.776,lexical_decision_task_MP,2020.1.3,Win32,60,m,1,0.51528,,,,,,,,0.51528,1,,,,,,208,WORD,UN,33,search,HOCKEY,m,,,,,,0.489089419,-0.045857237,0,0,0,,0,224,224,147,1,
,,,,,,,,,,,,,,,,,,5ec6ae38afab190b8b7b3be8,2020-08-08_10h42.47.776,lexical_decision_task_MP,2020.1.3,Win32,60,m,1,0.44382,,,,,,,,0.44382,1,,,,,,237,WORD,UN,33,glance,POSTER,m,,,,,,0.489089419,-0.045857237,0,0,0,,0,225,225,176,1,
,,,,,,,,,,,,,,,,,,5ec6ae38afab190b8b7b3be8,2020-08-08_10h42.47.776,lexical_decision_task_MP,2020.1.3,Win32,60,m,1,0.5543,,,,,,,,0.5543,1,,,,,,200,WORD,UN,33,admire,BEACON,m,,,,,,0.489089419,-0.045857237,0,0,0,,0,226,226,139,1,
,,,,,,,,,,,,,,,,,,5ec6ae38afab190b8b7b3be8,2020-08-08_10h42.47.776,lexical_decision_task_MP,2020.1.3,Win32,60,m,1,0.447535,,,,,,,,0.447535,1,,,,,,101,WORD,"ID",33,wrench,WRENCH,m,,,,,,0.489089419,-0.045857237,0,0,0,,0,227,227,40,1,
,,,,,,,,,,,,,,,,,,5ec6ae38afab190b8b7b3be8,2020-08-08_10h42.47.776,lexical_decision_task_MP,2020.1.3,Win32,60,z,1,0.474155,,,,,,,,0.474155,1,,,,,,468,NW,UN,33,padifs,WICTOR,z,,,,,,0.489089419,-0.045857237,0,0,0,,0,228,228,407,1,
,,,,,,,,,,,,,,,,,,5ec6ae38afab190b8b7b3be8,2020-08-08_10h42.47.776,lexical_decision_task_MP,2020.1.3,Win32,60,z,1,0.783355,,,,,,,,0.783355,1,,,,,,250,NW,UN,50,lupict,MILTED,z,,,,,,0.489089419,-0.045857237,0,0,0,,0,229,229,429,1,
,,,,,,,,,,,,,,,,,,5ec6ae38afab190b8b7b3be8,2020-08-08_10h42.47.776,lexical_decision_task_MP,2020.1.3,Win32,60,m,1,0.45912,,,,,,,,0.45912,1,,,,,,170,WORD,"ID",50,pounce,POUNCE,m,,,,,,0.489089419,-0.045857237,0,0,0,,0,230,230,109,1,
,,,,,,,,,,,,,,,,,,5ec6ae38afab190b8b7b3be8,2020-08-08_10h42.47.776,lexical_decision_task_MP,2020.1.3,Win32,60,m,1,0.62274,,,,,,,,0.62274,1,,,,,,8,WORD,UN,50,hustle,ABRUPT,m,,,,,,0.489089419,-0.045857237,0,0,0,,0,231,231,187,1,
,,,,,,,,,,,,,,,,,,5ec6ae38afab190b8b7b3be8,2020-08-08_10h42.47.776,lexical_decision_task_MP,2020.1.3,Win32,60,z,1,0.49066,,,,,,,,0.49066,1,,,,,,375,NW,"ID",50,yorque,YORQUE,z,,,,,,0.489089419,-0.045857237,0,0,0,,0,232,232,314,1,
,,,,,,,,,,,,,,,,,,5ec6ae38afab190b8b7b3be8,2020-08-08_10h42.47.776,lexical_decision_task_MP,2020.1.3,Win32,60,m,1,0.464255,,,,,,,,0.464255,1,,,,,,175,WORD,"ID",50,fabric,FABRIC,m,,,,,,0.489089419,-0.045857237,0,0,0,,0,233,233,114,1,
,,,,,,,,,,,,,,,,,,5ec6ae38afab190b8b7b3be8,2020-08-08_10h42.47.776,lexical_decision_task_MP,2020.1.3,Win32,60,m,1,0.488385,,,,,,,,0.488385,1,,,,,,14,WORD,UN,50,orange,ALMOST,m,,,,,,0.489089419,-0.045857237,0,0,0,,0,234,234,193,1,
,,,,,,,,,,,,,,,,,,5ec6ae38afab190b8b7b3be8,2020-08-08_10h42.47.776,lexical_decision_task_MP,2020.1.3,Win32,60,z,1,0.532805,,,,,,,,0.532805,1,,,,,,271,NW,UN,50,damilt,AUBRID,z,,,,,,0.489089419,-0.045857237,0,0,0,,0,235,235,450,1,
,,,,,,,,,,,,,,,,,,5ec6ae38afab190b8b7b3be8,2020-08-08_10h42.47.776,lexical_decision_task_MP,2020.1.3,Win32,60,z,1,0.465865,,,,,,,,0.465865,1,,,,,,349,NW,"ID",33,asylen,ASYLEN,z,,,,,,0.489089419,-0.045857237,0,0,0,,0,236,236,288,1,
,,,,,,,,,,,,,,,,,,5ec6ae38afab190b8b7b3be8,2020-08-08_10h42.47.776,lexical_decision_task_MP,2020.1.3,Win32,60,m,1,0.598035,,,,,,,,0.598035,1,,,,,,54,WORD,UN,50,stroke,RAMBLE,m,,,,,,0.489089419,-0.045857237,0,0,0,,0,237,237,233,1,
,,,,,,,,,,,,,,,,,,5ec6ae38afab190b8b7b3be8,2020-08-08_10h42.47.776,lexical_decision_task_MP,2020.1.3,Win32,60,m,1,0.43022,,,,,,,,0.43022,1,,,,,,84,WORD,"ID",33,mortal,MORTAL,m,,,,,,0.489089419,-0.045857237,0,0,0,,0,238,238,23,1,
,,,,,,,,,,,,,,,,,,5ec6ae38afab190b8b7b3be8,2020-08-08_10h42.47.776,lexical_decision_task_MP,2020.1.3,Win32,60,m,1,0.715025,,,,,,,,0.715025,1,,,,,,58,WORD,UN,50,splint,FOSTER,m,,,,,,0.489089419,-0.045857237,0,0,0,,0,239,239,237,1,
,,,,,,,,,,,,,,,,,,5ec6ae38afab190b8b7b3be8,2020-08-08_10h42.47.776,lexical_decision_task_MP,2020.1.3,Win32,60,m,1,0.616905,,,,,,,,0.616905,1,,,,,,15,WORD,UN,50,faucet,AMOUNT,m,,,,,,0.489089419,-0.045857237,0,0,0,,0,240,240,194,1,
,,,,,,,,,,,,,,,,,,5ec6ae38afab190b8b7b3be8,2020-08-08_10h42.47.776,lexical_decision_task_MP,2020.1.3,Win32,60,m,0,0.480835,,,,,,,,0.480835,0,,,,,,345,NW,"ID",33,absend,ABSEND,z,,,,,,0.489089419,-0.045857237,0,0,0,space,0,241,241,284,1,112.160445
,,,,,,,,,,,,,,,,,,5ec6ae38afab190b8b7b3be8,2020-08-08_10h42.47.776,lexical_decision_task_MP,2020.1.3,Win32,60,m,1,0.43078,,,,,,,,0.43078,1,,,,,,75,WORD,"ID",33,trophy,TROPHY,m,,,,,,0.489089419,-0.045857237,0,0,0,,0,242,242,14,1,
,,,,,,,,,,,,,,,,,,5ec6ae38afab190b8b7b3be8,2020-08-08_10h42.47.776,lexical_decision_task_MP,2020.1.3,Win32,60,z,1,0.531245,,,,,,,,0.531245,1,,,,,,405,NW,"ID",50,flumni,FLUMNI,z,,,,,,0.489089419,-0.045857237,0,0,0,,0,243,243,344,1,
,,,,,,,,,,,,,,,,,,5ec6ae38afab190b8b7b3be8,2020-08-08_10h42.47.776,lexical_decision_task_MP,2020.1.3,Win32,60,z,1,0.75001,,,,,,,,0.75001,1,,,,,,378,NW,"ID",50,shrile,SHRILE,z,,,,,,0.489089419,-0.045857237,0,0,0,,0,244,244,317,1,
,,,,,,,,,,,,,,,,,,5ec6ae38afab190b8b7b3be8,2020-08-08_10h42.47.776,lexical_decision_task_MP,2020.1.3,Win32,60,z,1,0.484575,,,,,,,,0.484575,1,,,,,,350,NW,"ID",33,nagurs,NAGURS,z,,,,,,0.489089419,-0.045857237,0,0,0,,0,245,245,289,1,
,,,,,,,,,,,,,,,,,,5ec6ae38afab190b8b7b3be8,2020-08-08_10h42.47.776,lexical_decision_task_MP,2020.1.3,Win32,60,m,1,0.5017,,,,,,,,0.5017,1,,,,,,90,WORD,"ID",33,relish,RELISH,m,,,,,,0.489089419,-0.045857237,0,0,0,,0,246,246,29,1,
,,,,,,,,,,,,,,,,,,5ec6ae38afab190b8b7b3be8,2020-08-08_10h42.47.776,lexical_decision_task_MP,2020.1.3,Win32,60,m,1,0.382805,,,,,,,,0.382805,1,,,,,,109,WORD,"ID",33,wonder,WONDER,m,,,,,,0.489089419,-0.045857237,0,0,0,,0,247,247,48,1,
,,,,,,,,,,,,,,,,,,5ec6ae38afab190b8b7b3be8,2020-08-08_10h42.47.776,lexical_decision_task_MP,2020.1.3,Win32,60,z,1,0.50234,,,,,,,,0.50234,1,,,,,,295,NW,UN,50,beinch,GLEATH,z,,,,,,0.489089419,-0.045857237,0,0,0,,0,248,248,474,1,
,,,,,,,,,,,,,,,,,,5ec6ae38afab190b8b7b3be8,2020-08-08_10h42.47.776,lexical_decision_task_MP,2020.1.3,Win32,60,m,1,0.56768,,,,,,,,0.56768,1,,,,,,122,WORD,"ID",50,linger,LINGER,m,,,,,,0.489089419,-0.045857237,0,0,0,,0,249,249,61,1,
,,,,,,,,,,,,,,,,,,5ec6ae38afab190b8b7b3be8,2020-08-08_10h42.47.776,lexical_decision_task_MP,2020.1.3,Win32,60,m,0,0.42613,,,,,,,,0.42613,0,,,,,,408,NW,"ID",50,hurnia,HURNIA,z,,,,,,0.489089419,-0.045857237,0,0,0,,0,250,250,347,1,
,,,,,,,,,,,,,,,,,,5ec6ae38afab190b8b7b3be8,2020-08-08_10h42.47.776,lexical_decision_task_MP,2020.1.3,Win32,60,z,1,0.598115,,,,,,,,0.598115,1,,,,,,451,NW,UN,33,surden,CAINKY,z,,,,,,0.489089419,-0.045857237,0,0,0,,0,251,251,390,1,
,,,,,,,,,,,,,,,,,,5ec6ae38afab190b8b7b3be8,2020-08-08_10h42.47.776,lexical_decision_task_MP,2020.1.3,Win32,60,m,0,0.50687,,,,,,,,0.50687,0,,,,,,268,NW,UN,50,orchet,PACKES,z,,,,,,0.489089419,-0.045857237,0,0,0,,0,252,252,447,1,
,,,,,,,,,,,,,,,,,,5ec6ae38afab190b8b7b3be8,2020-08-08_10h42.47.776,lexical_decision_task_MP,2020.1.3,Win32,60,m,1,0.471545,,,,,,,,0.471545,1,,,,,,32,WORD,UN,50,scream,BUCKLE,m,,,,,,0.489089419,-0.045857237,0,0,0,,0,253,253,211,1,
,,,,,,,,,,,,,,,,,,5ec6ae38afab190b8b7b3be8,2020-08-08_10h42.47.776,lexical_decision_task_MP,2020.1.3,Win32,60,m,1,0.44772,,,,,,,,0.44772,1,,,,,,152,WORD,"ID",50,rocket,ROCKET,m,,,,,,0.489089419,-0.045857237,0,0,0,,0,254,254,91,1,
,,,,,,,,,,,,,,,,,,5ec6ae38afab190b8b7b3be8,2020-08-08_10h42.47.776,lexical_decision_task_MP,2020.1.3,Win32,60,z,1,0.865835,,,,,,,,0.865835,1,,,,,,448,NW,UN,33,brunge,SADENT,z,,,,,,0.489089419,-0.045857237,0,0,0,,0,255,255,387,1,
,,,,,,,,,,,,,,,,,,5ec6ae38afab190b8b7b3be8,2020-08-08_10h42.47.776,lexical_decision_task_MP,2020.1.3,Win32,60,m,1,0.51432,,,,,,,,0.51432,1,,,,,,11,WORD,UN,50,amount,CRUISE,m,,,,,,0.489089419,-0.045857237,0,0,0,,0,256,256,190,1,
,,,,,,,,,,,,,,,,,,5ec6ae38afab190b8b7b3be8,2020-08-08_10h42.47.776,lexical_decision_task_MP,2020.1.3,Win32,60,m,0,0.568765,,,,,,,,0.568765,0,,,,,,328,NW,"ID",33,broake,BROAKE,z,,,,,,0.489089419,-0.045857237,0,0,0,,0,257,257,267,1,
,,,,,,,,,,,,,,,,,,5ec6ae38afab190b8b7b3be8,2020-08-08_10h42.47.776,lexical_decision_task_MP,2020.1.3,Win32,60,m,1,0.567315,,,,,,,,0.567315,1,,,,,,62,WORD,"ID",33,region,REGION,m,,,,,,0.489089419,-0.045857237,0,0,0,,0,258,258,1,1,
,,,,,,,,,,,,,,,,,,5ec6ae38afab190b8b7b3be8,2020-08-08_10h42.47.776,lexical_decision_task_MP,2020.1.3,Win32,60,z,1,0.59068,,,,,,,,0.59068,1,,,,,,304,NW,"ID",33,cludie,CLUDIE,z,,,,,,0.489089419,-0.045857237,0,0,0,,0,259,259,243,1,
,,,,,,,,,,,,,,,,,,5ec6ae38afab190b8b7b3be8,2020-08-08_10h42.47.776,lexical_decision_task_MP,2020.1.3,Win32,60,m,1,0.55185,,,,,,,,0.55185,1,,,,,,26,WORD,UN,50,butler,SPRINT,m,,,,,,0.489089419,-0.045857237,0,0,0,,0,260,260,205,1,
,,,,,,,,,,,,,,,,,,5ec6ae38afab190b8b7b3be8,2020-08-08_10h42.47.776,lexical_decision_task_MP,2020.1.3,Win32,60,m,1,0.473775,,,,,,,,0.473775,1,,,,,,193,WORD,UN,33,mildew,OBJECT,m,,,,,,0.489089419,-0.045857237,0,0,0,,0,261,261,132,1,
,,,,,,,,,,,,,,,,,,5ec6ae38afab190b8b7b3be8,2020-08-08_10h42.47.776,lexical_decision_task_MP,2020.1.3,Win32,60,z,1,0.580025,,,,,,,,0.580025,1,,,,,,454,NW,UN,33,tondle,SCOUGE,z,,,,,,0.489089419,-0.045857237,0,0,0,,0,262,262,393,1,
,,,,,,,,,,,,,,,,,,5ec6ae38afab190b8b7b3be8,2020-08-08_10h42.47.776,lexical_decision_task_MP,2020.1.3,Win32,60,z,1,0.49128,,,,,,,,0.49128,1,,,,,,326,NW,"ID",33,iguade,IGUADE,z,,,,,,0.489089419,-0.045857237,0,0,0,,0,263,263,265,1,
,,,,,,,,,,,,,,,,,,5ec6ae38afab190b8b7b3be8,2020-08-08_10h42.47.776,lexical_decision_task_MP,2020.1.3,Win32,60,z,1,0.55167,,,,,,,,0.55167,1,,,,,,278,NW,UN,50,celond,UNIGHS,z,,,,,,0.489089419,-0.045857237,0,0,0,,0,264,264,457,1,
,,,,,,,,,,,,,,,,,,5ec6ae38afab190b8b7b3be8,2020-08-08_10h42.47.776,lexical_decision_task_MP,2020.1.3,Win32,60,m,1,0.502265,,,,,,,,0.502265,1,,,,,,184,WORD,UN,33,bother,SLEAZY,m,,,,,,0.489089419,-0.045857237,0,0,0,,0,265,265,123,1,
,,,,,,,,,,,,,,,,,,5ec6ae38afab190b8b7b3be8,2020-08-08_10h42.47.776,lexical_decision_task_MP,2020.1.3,Win32,60,z,1,0.55713,,,,,,,,0.55713,1,,,,,,282,NW,UN,50,veralf,PORLEX,z,,,,,,0.489089419,-0.045857237,0,0,0,,0,266,266,461,1,
,,,,,,,,,,,,,,,,,,5ec6ae38afab190b8b7b3be8,2020-08-08_10h42.47.776,lexical_decision_task_MP,2020.1.3,Win32,60,z,1,0.733035,,,,,,,,0.733035,1,,,,,,366,NW,"ID",50,toshel,TOSHEL,z,,,,,,0.489089419,-0.045857237,0,0,0,,0,267,267,305,1,
,,,,,,,,,,,,,,,,,,5ec6ae38afab190b8b7b3be8,2020-08-08_10h42.47.776,lexical_decision_task_MP,2020.1.3,Win32,60,z,1,0.59714,,,,,,,,0.59714,1,,,,,,344,NW,"ID",33,scrily,SCRILY,z,,,,,,0.489089419,-0.045857237,0,0,0,,0,268,268,283,1,
,,,,,,,,,,,,,,,,,,5ec6ae38afab190b8b7b3be8,2020-08-08_10h42.47.776,lexical_decision_task_MP,2020.1.3,Win32,60,m,1,0.417635,,,,,,,,0.417635,1,,,,,,179,WORD,"ID",50,basket,BASKET,m,,,,,,0.489089419,-0.045857237,0,0,0,,0,269,269,118,1,
,,,,,,,,,,,,,,,,,,5ec6ae38afab190b8b7b3be8,2020-08-08_10h42.47.776,lexical_decision_task_MP,2020.1.3,Win32,60,m,1,0.514755,,,,,,,,0.514755,1,,,,,,89,WORD,"ID",33,permit,PERMIT,m,,,,,,0.489089419,-0.045857237,0,0,0,,0,270,270,28,1,
,,,,,,,,,,,,,,,,,,5ec6ae38afab190b8b7b3be8,2020-08-08_10h42.47.776,lexical_decision_task_MP,2020.1.3,Win32,60,m,1,0.480185,,,,,,,,0.480185,1,,,,,,24,WORD,UN,50,domain,PRAISE,m,,,,,,0.489089419,-0.045857237,0,0,0,,0,271,271,203,1,
,,,,,,,,,,,,,,,,,,5ec6ae38afab190b8b7b3be8,2020-08-08_10h42.47.776,lexical_decision_task_MP,2020.1.3,Win32,60,m,1,0.303615,,,,,,,,0.303615,1,,,,,,132,WORD,"ID",50,strong,STRONG,m,,,,,,0.489089419,-0.045857237,0,0,0,,0,272,272,71,1,
,,,,,,,,,,,,,,,,,,5ec6ae38afab190b8b7b3be8,2020-08-08_10h42.47.776,lexical_decision_task_MP,2020.1.3,Win32,60,z,1,0.467005,,,,,,,,0.467005,1,,,,,,413,NW,"ID",50,equats,EQUATS,z,,,,,,0.489089419,-0.045857237,0,0,0,,0,273,273,352,1,
,,,,,,,,,,,,,,,,,,5ec6ae38afab190b8b7b3be8,2020-08-08_10h42.47.776,lexical_decision_task_MP,2020.1.3,Win32,60,z,0,0.430305,,,,,,,,0.430305,0,,,,,,40,WORD,UN,50,spring,CONVEY,m,,,,,,0.489089419,-0.045857237,0,0,0,,0,274,274,219,1,
,,,,,,,,,,,,,,,,,,5ec6ae38afab190b8b7b3be8,2020-08-08_10h42.47.776,lexical_decision_task_MP,2020.1.3,Win32,60,m,1,0.49637,,,,,,,,0.49637,1,,,,,,131,WORD,"ID",50,quench,QUENCH,m,,,,,,0.489089419,-0.045857237,0,0,0,,0,275,275,70,1,
,,,,,,,,,,,,,,,,,,5ec6ae38afab190b8b7b3be8,2020-08-08_10h42.47.776,lexical_decision_task_MP,2020.1.3,Win32,60,z,1,0.59195,,,,,,,,0.59195,1,,,,,,333,NW,"ID",33,catrie,CATRIE,z,,,,,,0.489089419,-0.045857237,0,0,0,,0,276,276,272,1,
,,,,,,,,,,,,,,,,,,5ec6ae38afab190b8b7b3be8,2020-08-08_10h42.47.776,lexical_decision_task_MP,2020.1.3,Win32,60,z,1,0.65541,,,,,,,,0.65541,1,,,,,,374,NW,"ID",50,sliant,SLIANT,z,,,,,,0.489089419,-0.045857237,0,0,0,,0,277,277,313,1,
,,,,,,,,,,,,,,,,,,5ec6ae38afab190b8b7b3be8,2020-08-08_10h42.47.776,lexical_decision_task_MP,2020.1.3,Win32,60,m,1,0.63,,,,,,,,0.63,1,,,,,,119,WORD,"ID",33,spider,SPIDER,m,,,,,,0.489089419,-0.045857237,0,0,0,,0,278,278,58,1,
,,,,,,,,,,,,,,,,,,5ec6ae38afab190b8b7b3be8,2020-08-08_10h42.47.776,lexical_decision_task_MP,2020.1.3,Win32,60,m,1,0.53083,,,,,,,,0.53083,1,,,,,,202,WORD,UN,33,phrase,FACTOR,m,,,,,,0.489089419,-0.045857237,0,0,0,,0,279,279,141,1,
,,,,,,,,,,,,,,,,,,5ec6ae38afab190b8b7b3be8,2020-08-08_10h42.47.776,lexical_decision_task_MP,2020.1.3,Win32,60,z,1,0.522095,,,,,,,,0.522095,1,,,,,,458,NW,UN,33,hocite,BARCET,z,,,,,,0.489089419,-0.045857237,0,0,0,,0,280,280,397,1,
,,,,,,,,,,,,,,,,,,5ec6ae38afab190b8b7b3be8,2020-08-08_10h42.47.776,lexical_decision_task_MP,2020.1.3,Win32,60,m,1,0.446615,,,,,,,,0.446615,1,,,,,,105,WORD,"ID",33,number,NUMBER,m,,,,,,0.489089419,-0.045857237,0,0,0,,0,281,281,44,1,
,,,,,,,,,,,,,,,,,,5ec6ae38afab190b8b7b3be8,2020-08-08_10h42.47.776,lexical_decision_task_MP,2020.1.3,Win32,60,m,1,0.366505,,,,,,,,0.366505,1,,,,,,61,WORD,"ID",33,ponder,PONDER,m,,,,,,0.489089419,-0.045857237,0,0,0,,0,282,282,0,1,
,,,,,,,,,,,,,,,,,,5ec6ae38afab190b8b7b3be8,2020-08-08_10h42.47.776,lexical_decision_task_MP,2020.1.3,Win32,60,m,1,0.37264,,,,,,,,0.37264,1,,,,,,238,WORD,UN,33,behalf,FLOWER,m,,,,,,0.489089419,-0.045857237,0,0,0,,0,283,283,177,1,
,,,,,,,,,,,,,,,,,,5ec6ae38afab190b8b7b3be8,2020-08-08_10h42.47.776,lexical_decision_task_MP,2020.1.3,Win32,60,m,0,0.655775,,,,,,,,0.655775,0,,,,,,348,NW,"ID",33,dumple,DUMPLE,z,,,,,,0.489089419,-0.045857237,0,0,0,,0,284,284,287,1,
,,,,,,,,,,,,,,,,,,5ec6ae38afab190b8b7b3be8,2020-08-08_10h42.47.776,lexical_decision_task_MP,2020.1.3,Win32,60,z,1,0.863885,,,,,,,,0.863885,1,,,,,,287,NW,UN,50,yaceup,NYMBEL,z,,,,,,0.489089419,-0.045857237,0,0,0,,0,285,285,466,1,
,,,,,,,,,,,,,,,,,,5ec6ae38afab190b8b7b3be8,2020-08-08_10h42.47.776,lexical_decision_task_MP,2020.1.3,Win32,60,m,1,0.514585,,,,,,,,0.514585,1,,,,,,154,WORD,"ID",50,author,AUTHOR,m,,,,,,0.489089419,-0.045857237,0,0,0,,0,286,286,93,1,
,,,,,,,,,,,,,,,,,,5ec6ae38afab190b8b7b3be8,2020-08-08_10h42.47.776,lexical_decision_task_MP,2020.1.3,Win32,60,z,1,0.58996,,,,,,,,0.58996,1,,,,,,355,NW,"ID",33,zingly,ZINGLY,z,,,,,,0.489089419,-0.045857237,0,0,0,,0,287,287,294,1,
,,,,,,,,,,,,,,,,,,5ec6ae38afab190b8b7b3be8,2020-08-08_10h42.47.776,lexical_decision_task_MP,2020.1.3,Win32,60,m,1,0.616905,,,,,,,,0.616905,1,,,,,,199,WORD,UN,33,plague,INVOKE,m,,,,,,0.489089419,-0.045857237,0,0,0,,0,288,288,138,1,
,,,,,,,,,,,,,,,,,,5ec6ae38afab190b8b7b3be8,2020-08-08_10h42.47.776,lexical_decision_task_MP,2020.1.3,Win32,60,z,1,0.590445,,,,,,,,0.590445,1,,,,,,450,NW,UN,33,cainky,PHRECT,z,,,,,,0.489089419,-0.045857237,0,0,0,,0,289,289,389,1,
,,,,,,,,,,,,,,,,,,5ec6ae38afab190b8b7b3be8,2020-08-08_10h42.47.776,lexical_decision_task_MP,2020.1.3,Win32,60,m,0,0.53851,,,,,,,,0.53851,0,,,,,,316,NW,"ID",33,scregm,SCREGM,z,,,,,,0.489089419,-0.045857237,0,0,0,,0,290,290,255,1,
,,,,,,,,,,,,,,,,,,5ec6ae38afab190b8b7b3be8,2020-08-08_10h42.47.776,lexical_decision_task_MP,2020.1.3,Win32,60,z,0,0.54962,,,,,,,,0.54962,0,,,,,,67,WORD,"ID",33,policy,POLICY,m,,,,,,0.489089419,-0.045857237,0,0,0,,0,291,291,6,1,
,,,,,,,,,,,,,,,,,,5ec6ae38afab190b8b7b3be8,2020-08-08_10h42.47.776,lexical_decision_task_MP,2020.1.3,Win32,60,m,1,0.46264,,,,,,,,0.46264,1,,,,,,218,WORD,UN,33,bucket,SHRINK,m,,,,,,0.489089419,-0.045857237,0,0,0,,0,292,292,157,1,
,,,,,,,,,,,,,,,,,,5ec6ae38afab190b8b7b3be8,2020-08-08_10h42.47.776,lexical_decision_task_MP,2020.1.3,Win32,60,z,1,0.56409,,,,,,,,0.56409,1,,,,,,392,NW,"ID",50,rouncy,ROUNCY,z,,,,,,0.489089419,-0.045857237,0,0,0,,0,293,293,331,1,
,,,,,,,,,,,,,,,,,,5ec6ae38afab190b8b7b3be8,2020-08-08_10h42.47.776,lexical_decision_task_MP,2020.1.3,Win32,60,m,1,0.421855,,,,,,,,0.421855,1,,,,,,160,WORD,"ID",50,violet,VIOLET,m,,,,,,0.489089419,-0.045857237,0,0,0,,0,294,294,99,1,
,,,,,,,,,,,,,,,,,,5ec6ae38afab190b8b7b3be8,2020-08-08_10h42.47.776,lexical_decision_task_MP,2020.1.3,Win32,60,m,1,0.44668,,,,,,,,0.44668,1,,,,,,108,WORD,"ID",33,reckon,RECKON,m,,,,,,0.489089419,-0.045857237,0,0,0,,0,295,295,47,1,
,,,,,,,,,,,,,,,,,,5ec6ae38afab190b8b7b3be8,2020-08-08_10h42.47.776,lexical_decision_task_MP,2020.1.3,Win32,60,m,1,0.478865,,,,,,,,0.478865,1,,,,,,129,WORD,"ID",50,marvel,MARVEL,m,,,,,,0.489089419,-0.045857237,0,0,0,,0,296,296,68,1,
,,,,,,,,,,,,,,,,,,5ec6ae38afab190b8b7b3be8,2020-08-08_10h42.47.776,lexical_decision_task_MP,2020.1.3,Win32,60,m,1,0.32051,,,,,,,,0.32051,1,,,,,,168,WORD,"ID",50,answer,ANSWER,m,,,,,,0.489089419,-0.045857237,0,0,0,,0,297,297,107,1,
,,,,,,,,,,,,,,,,,,5ec6ae38afab190b8b7b3be8,2020-08-08_10h42.47.776,lexical_decision_task_MP,2020.1.3,Win32,60,m,1,0.583325,,,,,,,,0.583325,1,,,,,,9,WORD,UN,50,bridge,HUSTLE,m,,,,,,0.489089419,-0.045857237,0,0,0,,0,298,298,188,1,
,,,,,,,,,,,,,,,,,,5ec6ae38afab190b8b7b3be8,2020-08-08_10h42.47.776,lexical_decision_task_MP,2020.1.3,Win32,60,z,1,0.533015,,,,,,,,0.533015,1,,,,,,286,NW,UN,50,nymbel,RELDON,z,,,,,,0.489089419,-0.045857237,0,0,0,,0,299,299,465,1,
,,,,,,,,,,,,,,,,,,5ec6ae38afab190b8b7b3be8,2020-08-08_10h42.47.776,lexical_decision_task_MP,2020.1.3,Win32,60,z,0,0.47337,,,,,,,,0.47337,0,,,,,,45,WORD,UN,50,single,CLERGY,m,,,,,,0.489089419,-0.045857237,0,0,0,,0,300,300,224,1,
,,,,,,,,,,,,,,,,,,5ec6ae38afab190b8b7b3be8,2020-08-08_10h42.47.776,lexical_decision_task_MP,2020.1.3,Win32,60,z,1,0.75223,,,,,,,,0.75223,1,,,,,,320,NW,"ID",33,jockal,JOCKAL,z,,,,,,0.489089419,-0.045857237,0,0,0,,0,301,301,259,1,
,,,,,,,,,,,,,,,,,,5ec6ae38afab190b8b7b3be8,2020-08-08_10h42.47.776,lexical_decision_task_MP,2020.1.3,Win32,60,m,1,0.495625,,,,,,,,0.495625,1,,,,,,78,WORD,"ID",33,column,COLUMN,m,,,,,,0.489089419,-0.045857237,0,0,0,,0,302,302,17,1,
,,,,,,,,,,,,,,,,,,5ec6ae38afab190b8b7b3be8,2020-08-08_10h42.47.776,lexical_decision_task_MP,2020.1.3,Win32,60,m,1,0.495765,,,,,,,,0.495765,1,,,,,,195,WORD,UN,33,credit,RESIGN,m,,,,,,0.489089419,-0.045857237,0,0,0,,0,303,303,134,1,
,,,,,,,,,,,,,,,,,,5ec6ae38afab190b8b7b3be8,2020-08-08_10h42.47.776,lexical_decision_task_MP,2020.1.3,Win32,60,z,1,0.63024,,,,,,,,0.63024,1,,,,,,262,NW,UN,50,dolica,QUILEW,z,,,,,,0.489089419,-0.045857237,0,0,0,,0,304,304,441,1,
,,,,,,,,,,,,,,,,,,5ec6ae38afab190b8b7b3be8,2020-08-08_10h42.47.776,lexical_decision_task_MP,2020.1.3,Win32,60,m,1,0.548925,,,,,,,,0.548925,1,,,,,,214,WORD,UN,33,phobia,INTAKE,m,,,,,,0.489089419,-0.045857237,0,0,0,,0,305,305,153,1,
,,,,,,,,,,,,,,,,,,5ec6ae38afab190b8b7b3be8,2020-08-08_10h42.47.776,lexical_decision_task_MP,2020.1.3,Win32,60,m,1,0.47024,,,,,,,,0.47024,1,,,,,,118,WORD,"ID",33,flight,FLIGHT,m,,,,,,0.489089419,-0.045857237,0,0,0,,0,306,306,57,1,
,,,,,,,,,,,,,,,,,,5ec6ae38afab190b8b7b3be8,2020-08-08_10h42.47.776,lexical_decision_task_MP,2020.1.3,Win32,60,m,1,0.364085,,,,,,,,0.364085,1,,,,,,135,WORD,"ID",50,import,IMPORT,m,,,,,,0.489089419,-0.045857237,0,0,0,,0,307,307,74,1,
,,,,,,,,,,,,,,,,,,5ec6ae38afab190b8b7b3be8,2020-08-08_10h42.47.776,lexical_decision_task_MP,2020.1.3,Win32,60,z,1,0.64792,,,,,,,,0.64792,1,,,,,,417,NW,"ID",50,earoud,EAROUD,z,,,,,,0.489089419,-0.045857237,0,0,0,,0,308,308,356,1,
,,,,,,,,,,,,,,,,,,5ec6ae38afab190b8b7b3be8,2020-08-08_10h42.47.776,lexical_decision_task_MP,2020.1.3,Win32,60,z,1,0.60894,,,,,,,,0.60894,1,,,,,,330,NW,"ID",33,kensom,KENSOM,z,,,,,,0.489089419,-0.045857237,0,0,0,,0,309,309,269,1,
,,,,,,,,,,,,,,,,,,5ec6ae38afab190b8b7b3be8,2020-08-08_10h42.47.776,lexical_decision_task_MP,2020.1.3,Win32,60,m,0,0.530855,,,,,,,,0.530855,0,,,,,,407,NW,"ID",50,suiver,SUIVER,z,,,,,,0.489089419,-0.045857237,0,0,0,,0,310,310,346,1,
,,,,,,,,,,,,,,,,,,5ec6ae38afab190b8b7b3be8,2020-08-08_10h42.47.776,lexical_decision_task_MP,2020.1.3,Win32,60,z,1,0.922435,,,,,,,,0.922435,1,,,,,,364,NW,"ID",50,impote,IMPOTE,z,,,,,,0.489089419,-0.045857237,0,0,0,,0,311,311,303,1,
,,,,,,,,,,,,,,,,,,5ec6ae38afab190b8b7b3be8,2020-08-08_10h42.47.776,lexical_decision_task_MP,2020.1.3,Win32,60,z,1,0.496735,,,,,,,,0.496735,1,,,,,,459,NW,UN,33,mingar,BAFENT,z,,,,,,0.489089419,-0.045857237,0,0,0,,0,312,312,398,1,
,,,,,,,,,,,,,,,,,,5ec6ae38afab190b8b7b3be8,2020-08-08_10h42.47.776,lexical_decision_task_MP,2020.1.3,Win32,60,z,1,0.504645,,,,,,,,0.504645,1,,,,,,436,NW,UN,33,snapel,FRUTAN,z,,,,,,0.489089419,-0.045857237,0,0,0,,0,313,313,375,1,
,,,,,,,,,,,,,,,,,,5ec6ae38afab190b8b7b3be8,2020-08-08_10h42.47.776,lexical_decision_task_MP,2020.1.3,Win32,60,m,1,0.813715,,,,,,,,0.813715,1,,,,,,39,WORD,UN,50,convey,INSECT,m,,,,,,0.489089419,-0.045857237,0,0,0,,0,314,314,218,1,
,,,,,,,,,,,,,,,,,,5ec6ae38afab190b8b7b3be8,2020-08-08_10h42.47.776,lexical_decision_task_MP,2020.1.3,Win32,60,z,1,0.45284,,,,,,,,0.45284,1,,,,,,288,NW,UN,50,starby,YACEUP,z,,,,,,0.489089419,-0.045857237,0,0,0,,0,315,315,467,1,
,,,,,,,,,,,,,,,,,,5ec6ae38afab190b8b7b3be8,2020-08-08_10h42.47.776,lexical_decision_task_MP,2020.1.3,Win32,60,m,1,0.481515,,,,,,,,0.481515,1,,,,,,194,WORD,UN,33,resign,ABSENT,m,,,,,,0.489089419,-0.045857237,0,0,0,,0,316,316,133,1,
,,,,,,,,,,,,,,,,,,5ec6ae38afab190b8b7b3be8,2020-08-08_10h42.47.776,lexical_decision_task_MP,2020.1.3,Win32,60,m,1,0.465895,,,,,,,,0.465895,1,,,,,,12,WORD,UN,50,strive,ORANGE,m,,,,,,0.489089419,-0.045857237,0,0,0,,0,317,317,191,1,
,,,,,,,,,,,,,,,,,,5ec6ae38afab190b8b7b3be8,2020-08-08_10h42.47.776,lexical_decision_task_MP,2020.1.3,Win32,60,z,1,0.621375,,,,,,,,0.621375,1,,,,,,365,NW,"ID",50,guairt,GUAIRT,z,,,,,,0.489089419,-0.045857237,0,0,0,,0,318,318,304,1,
,,,,,,,,,,,,,,,,,,5ec6ae38afab190b8b7b3be8,2020-08-08_10h42.47.776,lexical_decision_task_MP,2020.1.3,Win32,60,m,1,0.429395,,,,,,,,0.429395,1,,,,,,232,WORD,UN,33,nature,INJECT,m,,,,,,0.489089419,-0.045857237,0,0,0,,0,319,319,171,1,
,,,,,,,,,,,,,,,,,,5ec6ae38afab190b8b7b3be8,2020-08-08_10h42.47.776,lexical_decision_task_MP,2020.1.3,Win32,60,m,1,0.413755,,,,,,,,0.413755,1,,,,,,87,WORD,"ID",33,filter,FILTER,m,,,,,,0.489089419,-0.045857237,0,0,0,,0,320,320,26,1,
,,,,,,,,,,,,,,,,,,5ec6ae38afab190b8b7b3be8,2020-08-08_10h42.47.776,lexical_decision_task_MP,2020.1.3,Win32,60,m,0,0.299445,,,,,,,,0.299445,0,,,,,,398,NW,"ID",50,blunde,BLUNDE,z,,,,,,0.489089419,-0.045857237,0,0,0,,0,321,321,337,1,
,,,,,,,,,,,,,,,,,,5ec6ae38afab190b8b7b3be8,2020-08-08_10h42.47.776,lexical_decision_task_MP,2020.1.3,Win32,60,m,1,0.668845,,,,,,,,0.668845,1,,,,,,56,WORD,UN,50,change,AMBUSH,m,,,,,,0.489089419,-0.045857237,0,0,0,,0,322,322,235,1,
,,,,,,,,,,,,,,,,,,5ec6ae38afab190b8b7b3be8,2020-08-08_10h42.47.776,lexical_decision_task_MP,2020.1.3,Win32,60,m,1,0.47232,,,,,,,,0.47232,1,,,,,,155,WORD,"ID",50,lizard,LIZARD,m,,,,,,0.489089419,-0.045857237,0,0,0,,0,323,323,94,1,
,,,,,,,,,,,,,,,,,,5ec6ae38afab190b8b7b3be8,2020-08-08_10h42.47.776,lexical_decision_task_MP,2020.1.3,Win32,60,m,1,0.430215,,,,,,,,0.430215,1,,,,,,181,WORD,UN,33,winter,GLANCE,m,,,,,,0.489089419,-0.045857237,0,0,0,,0,324,324,120,1,
,,,,,,,,,,,,,,,,,,5ec6ae38afab190b8b7b3be8,2020-08-08_10h42.47.776,lexical_decision_task_MP,2020.1.3,Win32,60,m,1,0.358645,,,,,,,,0.358645,1,,,,,,173,WORD,"ID",50,shower,SHOWER,m,,,,,,0.489089419,-0.045857237,0,0,0,,0,325,325,112,1,
,,,,,,,,,,,,,,,,,,5ec6ae38afab190b8b7b3be8,2020-08-08_10h42.47.776,lexical_decision_task_MP,2020.1.3,Win32,60,z,1,0.523635,,,,,,,,0.523635,1,,,,,,395,NW,"ID",50,colury,COLURY,z,,,,,,0.489089419,-0.045857237,0,0,0,,0,326,326,334,1,
,,,,,,,,,,,,,,,,,,5ec6ae38afab190b8b7b3be8,2020-08-08_10h42.47.776,lexical_decision_task_MP,2020.1.3,Win32,60,z,1,0.69722,,,,,,,,0.69722,1,,,,,,319,NW,"ID",33,zomber,ZOMBER,z,,,,,,0.489089419,-0.045857237,0,0,0,,0,327,327,258,1,
,,,,,,,,,,,,,,,,,,5ec6ae38afab190b8b7b3be8,2020-08-08_10h42.47.776,lexical_decision_task_MP,2020.1.3,Win32,60,m,1,0.490125,,,,,,,,0.490125,1,,,,,,18,WORD,UN,50,patron,HUMBLE,m,,,,,,0.489089419,-0.045857237,0,0,0,,0,328,328,197,1,
,,,,,,,,,,,,,,,,,,5ec6ae38afab190b8b7b3be8,2020-08-08_10h42.47.776,lexical_decision_task_MP,2020.1.3,Win32,60,z,1,0.41794,,,,,,,,0.41794,1,,,,,,421,NW,UN,33,alcoud,KNISMA,z,,,,,,0.489089419,-0.045857237,0,0,0,,0,329,329,360,1,
,,,,,,,,,,,,,,,,,,5ec6ae38afab190b8b7b3be8,2020-08-08_10h42.47.776,lexical_decision_task_MP,2020.1.3,Win32,60,m,1,0.46249,,,,,,,,0.46249,1,,,,,,113,WORD,"ID",33,chorus,CHORUS,m,,,,,,0.489089419,-0.045857237,0,0,0,,0,330,330,52,1,
,,,,,,,,,,,,,,,,,,5ec6ae38afab190b8b7b3be8,2020-08-08_10h42.47.776,lexical_decision_task_MP,2020.1.3,Win32,60,z,1,0.474525,,,,,,,,0.474525,1,,,,,,362,NW,"ID",50,tireau,TIREAU,z,,,,,,0.489089419,-0.045857237,0,0,0,,0,331,331,301,1,
,,,,,,,,,,,,,,,,,,5ec6ae38afab190b8b7b3be8,2020-08-08_10h42.47.776,lexical_decision_task_MP,2020.1.3,Win32,60,z,0,0.356845,,,,,,,,0.356845,0,,,,,,126,WORD,"ID",50,enough,ENOUGH,m,,,,,,0.489089419,-0.045857237,0,0,0,,0,332,332,65,1,
,,,,,,,,,,,,,,,,,,5ec6ae38afab190b8b7b3be8,2020-08-08_10h42.47.776,lexical_decision_task_MP,2020.1.3,Win32,60,z,1,0.548415,,,,,,,,0.548415,1,,,,,,426,NW,UN,33,schind,URIVEL,z,,,,,,0.489089419,-0.045857237,0,0,0,,0,333,333,365,1,
,,,,,,,,,,,,,,,,,,5ec6ae38afab190b8b7b3be8,2020-08-08_10h42.47.776,lexical_decision_task_MP,2020.1.3,Win32,60,m,1,1.0424,,,,,,,,1.0424,1,,,,,,30,WORD,UN,50,weapon,ORIENT,m,,,,,,0.489089419,-0.045857237,0,0,0,,0,334,334,209,1,
,,,,,,,,,,,,,,,,,,5ec6ae38afab190b8b7b3be8,2020-08-08_10h42.47.776,lexical_decision_task_MP,2020.1.3,Win32,60,z,1,0.65413,,,,,,,,0.65413,1,,,,,,270,NW,UN,50,aubrid,WRIMSY,z,,,,,,0.489089419,-0.045857237,0,0,0,,0,335,335,449,1,
,,,,,,,,,,,,,,,,,,5ec6ae38afab190b8b7b3be8,2020-08-08_10h42.47.776,lexical_decision_task_MP,2020.1.3,Win32,60,z,1,0.45483,,,,,,,,0.45483,1,,,,,,475,NW,UN,33,josted,PEBRIC,z,,,,,,0.489089419,-0.045857237,0,0,0,,0,336,336,414,1,
,,,,,,,,,,,,,,,,,,5ec6ae38afab190b8b7b3be8,2020-08-08_10h42.47.776,lexical_decision_task_MP,2020.1.3,Win32,60,m,0,0.490375,,,,,,,,0.490375,0,,,,,,314,NW,"ID",33,sprine,SPRINE,z,,,,,,0.489089419,-0.045857237,0,0,0,,0,337,337,253,1,
,,,,,,,,,,,,,,,,,,5ec6ae38afab190b8b7b3be8,2020-08-08_10h42.47.776,lexical_decision_task_MP,2020.1.3,Win32,60,z,1,0.56409,,,,,,,,0.56409,1,,,,,,283,NW,UN,50,shaple,VERALF,z,,,,,,0.489089419,-0.045857237,0,0,0,,0,338,338,462,1,
,,,,,,,,,,,,,,,,,,5ec6ae38afab190b8b7b3be8,2020-08-08_10h42.47.776,lexical_decision_task_MP,2020.1.3,Win32,60,m,1,0.434605,,,,,,,,0.434605,1,,,,,,64,WORD,"ID",33,throne,THRONE,m,,,,,,0.489089419,-0.045857237,0,0,0,,0,339,339,3,1,
,,,,,,,,,,,,,,,,,,5ec6ae38afab190b8b7b3be8,2020-08-08_10h42.47.776,lexical_decision_task_MP,2020.1.3,Win32,60,z,1,0.497445,,,,,,,,0.497445,1,,,,,,393,NW,"ID",50,ganous,GANOUS,z,,,,,,0.489089419,-0.045857237,0,0,0,,0,340,340,332,1,
,,,,,,,,,,,,,,,,,,5ec6ae38afab190b8b7b3be8,2020-08-08_10h42.47.776,lexical_decision_task_MP,2020.1.3,Win32,60,m,1,0.54671,,,,,,,,0.54671,1,,,,,,107,WORD,"ID",33,slogan,SLOGAN,m,,,,,,0.489089419,-0.045857237,0,0,0,,0,341,341,46,1,
,,,,,,,,,,,,,,,,,,5ec6ae38afab190b8b7b3be8,2020-08-08_10h42.47.776,lexical_decision_task_MP,2020.1.3,Win32,60,m,1,0.446725,,,,,,,,0.446725,1,,,,,,97,WORD,"ID",33,client,CLIENT,m,,,,,,0.489089419,-0.045857237,0,0,0,,0,342,342,36,1,
,,,,,,,,,,,,,,,,,,5ec6ae38afab190b8b7b3be8,2020-08-08_10h42.47.776,lexical_decision_task_MP,2020.1.3,Win32,60,z,1,0.624545,,,,,,,,0.624545,1,,,,,,285,NW,UN,50,reldon,PRUDGE,z,,,,,,0.489089419,-0.045857237,0,0,0,,0,343,343,464,1,
,,,,,,,,,,,,,,,,,,5ec6ae38afab190b8b7b3be8,2020-08-08_10h42.47.776,lexical_decision_task_MP,2020.1.3,Win32,60,z,1,0.463515,,,,,,,,0.463515,1,,,,,,264,NW,UN,50,distar,VACKEL,z,,,,,,0.489089419,-0.045857237,0,0,0,,0,344,344,443,1,
,,,,,,,,,,,,,,,,,,5ec6ae38afab190b8b7b3be8,2020-08-08_10h42.47.776,lexical_decision_task_MP,2020.1.3,Win32,60,m,1,0.433765,,,,,,,,0.433765,1,,,,,,188,WORD,UN,33,censor,SOCIAL,m,,,,,,0.489089419,-0.045857237,0,0,0,,0,345,345,127,1,
,,,,,,,,,,,,,,,,,,5ec6ae38afab190b8b7b3be8,2020-08-08_10h42.47.776,lexical_decision_task_MP,2020.1.3,Win32,60,z,1,0.423645,,,,,,,,0.423645,1,,,,,,311,NW,"ID",33,sproly,SPROLY,z,,,,,,0.489089419,-0.045857237,0,0,0,,0,346,346,250,1,
,,,,,,,,,,,,,,,,,,5ec6ae38afab190b8b7b3be8,2020-08-08_10h42.47.776,lexical_decision_task_MP,2020.1.3,Win32,60,m,1,0.488405,,,,,,,,0.488405,1,,,,,,23,WORD,UN,50,praise,WEALTH,m,,,,,,0.489089419,-0.045857237,0,0,0,,0,347,347,202,1,
,,,,,,,,,,,,,,,,,,5ec6ae38afab190b8b7b3be8,2020-08-08_10h42.47.776,lexical_decision_task_MP,2020.1.3,Win32,60,z,1,0.413625,,,,,,,,0.413625,1,,,,,,294,NW,UN,50,gleath,INHORT,z,,,,,,0.489089419,-0.045857237,0,0,0,,0,348,348,473,1,
,,,,,,,,,,,,,,,,,,5ec6ae38afab190b8b7b3be8,2020-08-08_10h42.47.776,lexical_decision_task_MP,2020.1.3,Win32,60,z,1,0.5118,,,,,,,,0.5118,1,,,,,,312,NW,"ID",33,nerawl,NERAWL,z,,,,,,0.489089419,-0.045857237,0,0,0,,0,349,349,251,1,
,,,,,,,,,,,,,,,,,,5ec6ae38afab190b8b7b3be8,2020-08-08_10h42.47.776,lexical_decision_task_MP,2020.1.3,Win32,60,m,1,0.477515,,,,,,,,0.477515,1,,,,,,13,WORD,UN,50,almost,STRIVE,m,,,,,,0.489089419,-0.045857237,0,0,0,,0,350,350,192,1,
,,,,,,,,,,,,,,,,,,5ec6ae38afab190b8b7b3be8,2020-08-08_10h42.47.776,lexical_decision_task_MP,2020.1.3,Win32,60,z,0,0.54262,,,,,,,,0.54262,0,,,,,,227,WORD,UN,33,master,SELDOM,m,,,,,,0.489089419,-0.045857237,0,0,0,,0,351,351,166,1,
,,,,,,,,,,,,,,,,,,5ec6ae38afab190b8b7b3be8,2020-08-08_10h42.47.776,lexical_decision_task_MP,2020.1.3,Win32,60,m,1,0.43549,,,,,,,,0.43549,1,,,,,,102,WORD,"ID",33,direct,DIRECT,m,,,,,,0.489089419,-0.045857237,0,0,0,,0,352,352,41,1,
,,,,,,,,,,,,,,,,,,5ec6ae38afab190b8b7b3be8,2020-08-08_10h42.47.776,lexical_decision_task_MP,2020.1.3,Win32,60,m,1,0.367355,,,,,,,,0.367355,1,,,,,,50,WORD,UN,50,hungry,SNATCH,m,,,,,,0.489089419,-0.045857237,0,0,0,,0,353,353,229,1,
,,,,,,,,,,,,,,,,,,5ec6ae38afab190b8b7b3be8,2020-08-08_10h42.47.776,lexical_decision_task_MP,2020.1.3,Win32,60,m,1,0.4063,,,,,,,,0.4063,1,,,,,,153,WORD,"ID",50,behold,BEHOLD,m,,,,,,0.489089419,-0.045857237,0,0,0,,0,354,354,92,1,
,,,,,,,,,,,,,,,,,,5ec6ae38afab190b8b7b3be8,2020-08-08_10h42.47.776,lexical_decision_task_MP,2020.1.3,Win32,60,m,1,0.3968,,,,,,,,0.3968,1,,,,,,231,WORD,UN,33,inject,EXPORT,m,,,,,,0.489089419,-0.045857237,0,0,0,,0,355,355,170,1,
,,,,,,,,,,,,,,,,,,5ec6ae38afab190b8b7b3be8,2020-08-08_10h42.47.776,lexical_decision_task_MP,2020.1.3,Win32,60,z,1,0.5519,,,,,,,,0.5519,1,,,,,,241,NW,UN,50,unwert,SMENCO,z,,,,,,0.489089419,-0.045857237,0,0,0,,0,356,356,420,1,
,,,,,,,,,,,,,,,,,,5ec6ae38afab190b8b7b3be8,2020-08-08_10h42.47.776,lexical_decision_task_MP,2020.1.3,Win32,60,m,1,0.458505,,,,,,,,0.458505,1,,,,,,127,WORD,"ID",50,castle,CASTLE,m,,,,,,0.489089419,-0.045857237,0,0,0,,0,357,357,66,1,
,,,,,,,,,,,,,,,,,,5ec6ae38afab190b8b7b3be8,2020-08-08_10h42.47.776,lexical_decision_task_MP,2020.1.3,Win32,60,z,1,0.58123,,,,,,,,0.58123,1,,,,,,245,NW,UN,50,piaton,ANOUGS,z,,,,,,0.489089419,-0.045857237,0,0,0,,0,358,358,424,1,
,,,,,,,,,,,,,,,,,,5ec6ae38afab190b8b7b3be8,2020-08-08_10h42.47.776,lexical_decision_task_MP,2020.1.3,Win32,60,m,1,0.54003,,,,,,,,0.54003,1,,,,,,92,WORD,"ID",33,strand,STRAND,m,,,,,,0.489089419,-0.045857237,0,0,0,,0,359,359,31,1,
,,,,,,,,,,,,,,,,,,5ec6ae38afab190b8b7b3be8,2020-08-08_10h42.47.776,lexical_decision_task_MP,2020.1.3,Win32,60,m,1,0.90523,,,,,,,,0.90523,1,,,,,,176,WORD,"ID",50,strife,STRIFE,m,,,,,,0.489089419,-0.045857237,0,0,0,,0,360,360,115,1,
,,,,,,,,,,,,,,,,,,5ec6ae38afab190b8b7b3be8,2020-08-08_10h42.47.776,lexical_decision_task_MP,2020.1.3,Win32,60,m,1,0.48051,,,,,,,,0.48051,1,,,,,,206,WORD,UN,33,wreath,TAILOR,m,,,,,,0.489089419,-0.045857237,0,0,0,,0,361,361,145,1,
,,,,,,,,,,,,,,,,,,5ec6ae38afab190b8b7b3be8,2020-08-08_10h42.47.776,lexical_decision_task_MP,2020.1.3,Win32,60,m,1,0.555395,,,,,,,,0.555395,1,,,,,,79,WORD,"ID",33,theory,THEORY,m,,,,,,0.489089419,-0.045857237,0,0,0,space,0,362,362,18,1,6.867545
,,,,,,,,,,,,,,,,,,5ec6ae38afab190b8b7b3be8,2020-08-08_10h42.47.776,lexical_decision_task_MP,2020.1.3,Win32,60,m,1,0.4824,,,,,,,,0.4824,1,,,,,,239,WORD,UN,33,forest,LUMBER,m,,,,,,0.489089419,-0.045857237,0,0,0,,0,363,363,178,1,
,,,,,,,,,,,,,,,,,,5ec6ae38afab190b8b7b3be8,2020-08-08_10h42.47.776,lexical_decision_task_MP,2020.1.3,Win32,60,m,0,0.453335,,,,,,,,0.453335,0,,,,,,449,NW,UN,33,phrect,BRUNGE,z,,,,,,0.489089419,-0.045857237,0,0,0,,0,364,364,388,1,
,,,,,,,,,,,,,,,,,,5ec6ae38afab190b8b7b3be8,2020-08-08_10h42.47.776,lexical_decision_task_MP,2020.1.3,Win32,60,z,1,0.587135,,,,,,,,0.587135,1,,,,,,302,NW,"ID",33,miluer,MILUER,z,,,,,,0.489089419,-0.045857237,0,0,0,,0,365,365,241,1,
,,,,,,,,,,,,,,,,,,5ec6ae38afab190b8b7b3be8,2020-08-08_10h42.47.776,lexical_decision_task_MP,2020.1.3,Win32,60,z,0,0.588665,,,,,,,,0.588665,0,,,,,,177,WORD,"ID",50,advent,ADVENT,m,,,,,,0.489089419,-0.045857237,0,0,0,,0,366,366,116,1,
,,,,,,,,,,,,,,,,,,5ec6ae38afab190b8b7b3be8,2020-08-08_10h42.47.776,lexical_decision_task_MP,2020.1.3,Win32,60,z,1,0.58094,,,,,,,,0.58094,1,,,,,,275,NW,UN,50,yarmon,SLEIRT,z,,,,,,0.489089419,-0.045857237,0,0,0,,0,367,367,454,1,
,,,,,,,,,,,,,,,,,,5ec6ae38afab190b8b7b3be8,2020-08-08_10h42.47.776,lexical_decision_task_MP,2020.1.3,Win32,60,z,1,0.575825,,,,,,,,0.575825,1,,,,,,386,NW,"ID",50,ancust,ANCUST,z,,,,,,0.489089419,-0.045857237,0,0,0,,0,368,368,325,1,
,,,,,,,,,,,,,,,,,,5ec6ae38afab190b8b7b3be8,2020-08-08_10h42.47.776,lexical_decision_task_MP,2020.1.3,Win32,60,m,1,0.557965,,,,,,,,0.557965,1,,,,,,226,WORD,UN,33,flower,CASINO,m,,,,,,0.489089419,-0.045857237,0,0,0,,0,369,369,165,1,
,,,,,,,,,,,,,,,,,,5ec6ae38afab190b8b7b3be8,2020-08-08_10h42.47.776,lexical_decision_task_MP,2020.1.3,Win32,60,m,1,0.46359,,,,,,,,0.46359,1,,,,,,228,WORD,UN,33,kidney,MASTER,m,,,,,,0.489089419,-0.045857237,0,0,0,,0,370,370,167,1,
,,,,,,,,,,,,,,,,,,5ec6ae38afab190b8b7b3be8,2020-08-08_10h42.47.776,lexical_decision_task_MP,2020.1.3,Win32,60,m,1,0.53607,,,,,,,,0.53607,1,,,,,,82,WORD,"ID",33,stigma,STIGMA,m,,,,,,0.489089419,-0.045857237,0,0,0,,0,371,371,21,1,
,,,,,,,,,,,,,,,,,,5ec6ae38afab190b8b7b3be8,2020-08-08_10h42.47.776,lexical_decision_task_MP,2020.1.3,Win32,60,m,1,0.667685,,,,,,,,0.667685,1,,,,,,233,WORD,UN,33,clumsy,NATURE,m,,,,,,0.489089419,-0.045857237,0,0,0,,0,372,372,172,1,
,,,,,,,,,,,,,,,,,,5ec6ae38afab190b8b7b3be8,2020-08-08_10h42.47.776,lexical_decision_task_MP,2020.1.3,Win32,60,m,1,0.590815,,,,,,,,0.590815,1,,,,,,215,WORD,UN,33,lumber,PHOBIA,m,,,,,,0.489089419,-0.045857237,0,0,0,,0,373,373,154,1,
,,,,,,,,,,,,,,,,,,5ec6ae38afab190b8b7b3be8,2020-08-08_10h42.47.776,lexical_decision_task_MP,2020.1.3,Win32,60,m,0,0.38005,,,,,,,,0.38005,0,,,,,,473,NW,UN,33,hablin,CRIBLE,z,,,,,,0.489089419,-0.045857237,0,0,0,,0,374,374,412,1,
,,,,,,,,,,,,,,,,,,5ec6ae38afab190b8b7b3be8,2020-08-08_10h42.47.776,lexical_decision_task_MP,2020.1.3,Win32,60,m,1,0.434625,,,,,,,,0.434625,1,,,,,,191,WORD,UN,33,beacon,STABLE,m,,,,,,0.489089419,-0.045857237,0,0,0,,0,375,375,130,1,
,,,,,,,,,,,,,,,,,,5ec6ae38afab190b8b7b3be8,2020-08-08_10h42.47.776,lexical_decision_task_MP,2020.1.3,Win32,60,m,0,0.574125,,,,,,,,0.574125,0,,,,,,439,NW,UN,33,saride,LIMPOR,z,,,,,,0.489089419,-0.045857237,0,0,0,,0,376,376,378,1,
,,,,,,,,,,,,,,,,,,5ec6ae38afab190b8b7b3be8,2020-08-08_10h42.47.776,lexical_decision_task_MP,2020.1.3,Win32,60,z,1,0.649445,,,,,,,,0.649445,1,,,,,,460,NW,UN,33,justre,MINGAR,z,,,,,,0.489089419,-0.045857237,0,0,0,,0,377,377,399,1,
,,,,,,,,,,,,,,,,,,5ec6ae38afab190b8b7b3be8,2020-08-08_10h42.47.776,lexical_decision_task_MP,2020.1.3,Win32,60,z,1,0.470765,,,,,,,,0.470765,1,,,,,,341,NW,"ID",33,myrtie,MYRTIE,z,,,,,,0.489089419,-0.045857237,0,0,0,,0,378,378,280,1,
,,,,,,,,,,,,,,,,,,5ec6ae38afab190b8b7b3be8,2020-08-08_10h42.47.776,lexical_decision_task_MP,2020.1.3,Win32,60,z,1,0.680505,,,,,,,,0.680505,1,,,,,,423,NW,UN,33,praile,STRELD,z,,,,,,0.489089419,-0.045857237,0,0,0,,0,379,379,362,1,
,,,,,,,,,,,,,,,,,,5ec6ae38afab190b8b7b3be8,2020-08-08_10h42.47.776,lexical_decision_task_MP,2020.1.3,Win32,60,m,1,0.47963,,,,,,,,0.47963,1,,,,,,2,WORD,UN,50,knight,BRIDGE,m,,,,,,0.489089419,-0.045857237,0,0,0,,0,380,380,181,1,
,,,,,,,,,,,,,,,,,,5ec6ae38afab190b8b7b3be8,2020-08-08_10h42.47.776,lexical_decision_task_MP,2020.1.3,Win32,60,m,1,0.51392,,,,,,,,0.51392,1,,,,,,17,WORD,UN,50,humble,CHARGE,m,,,,,,0.489089419,-0.045857237,0,0,0,,0,381,381,196,1,
,,,,,,,,,,,,,,,,,,5ec6ae38afab190b8b7b3be8,2020-08-08_10h42.47.776,lexical_decision_task_MP,2020.1.3,Win32,60,m,0,0.45813,,,,,,,,0.45813,0,,,,,,424,NW,UN,33,frudge,PRAILE,z,,,,,,0.489089419,-0.045857237,0,0,0,,0,382,382,363,1,
,,,,,,,,,,,,,,,,,,5ec6ae38afab190b8b7b3be8,2020-08-08_10h42.47.776,lexical_decision_task_MP,2020.1.3,Win32,60,z,1,0.730265,,,,,,,,0.730265,1,,,,,,440,NW,UN,33,rastoe,SARIDE,z,,,,,,0.489089419,-0.045857237,0,0,0,,0,383,383,379,1,
,,,,,,,,,,,,,,,,,,5ec6ae38afab190b8b7b3be8,2020-08-08_10h42.47.776,lexical_decision_task_MP,2020.1.3,Win32,60,m,1,0.738875,,,,,,,,0.738875,1,,,,,,192,WORD,UN,33,object,PLAGUE,m,,,,,,0.489089419,-0.045857237,0,0,0,,0,384,384,131,1,
,,,,,,,,,,,,,,,,,,5ec6ae38afab190b8b7b3be8,2020-08-08_10h42.47.776,lexical_decision_task_MP,2020.1.3,Win32,60,m,1,0.81629,,,,,,,,0.81629,1,,,,,,74,WORD,"ID",33,plaque,PLAQUE,m,,,,,,0.489089419,-0.045857237,0,0,0,,0,385,385,13,1,
,,,,,,,,,,,,,,,,,,5ec6ae38afab190b8b7b3be8,2020-08-08_10h42.47.776,lexical_decision_task_MP,2020.1.3,Win32,60,z,1,0.671445,,,,,,,,0.671445,1,,,,,,343,NW,"ID",33,aimosy,AIMOSY,z,,,,,,0.489089419,-0.045857237,0,0,0,,0,386,386,282,1,
,,,,,,,,,,,,,,,,,,5ec6ae38afab190b8b7b3be8,2020-08-08_10h42.47.776,lexical_decision_task_MP,2020.1.3,Win32,60,m,0,0.513585,,,,,,,,0.513585,0,,,,,,335,NW,"ID",33,desion,DESION,z,,,,,,0.489089419,-0.045857237,0,0,0,,0,387,387,274,1,
,,,,,,,,,,,,,,,,,,5ec6ae38afab190b8b7b3be8,2020-08-08_10h42.47.776,lexical_decision_task_MP,2020.1.3,Win32,60,z,1,0.604065,,,,,,,,0.604065,1,,,,,,257,NW,UN,50,poluth,VENIOD,z,,,,,,0.489089419,-0.045857237,0,0,0,,0,388,388,436,1,
,,,,,,,,,,,,,,,,,,5ec6ae38afab190b8b7b3be8,2020-08-08_10h42.47.776,lexical_decision_task_MP,2020.1.3,Win32,60,m,1,0.848335,,,,,,,,0.848335,1,,,,,,114,WORD,"ID",33,placid,PLACID,m,,,,,,0.489089419,-0.045857237,0,0,0,,0,389,389,53,1,
,,,,,,,,,,,,,,,,,,5ec6ae38afab190b8b7b3be8,2020-08-08_10h42.47.776,lexical_decision_task_MP,2020.1.3,Win32,60,m,1,0.480525,,,,,,,,0.480525,1,,,,,,165,WORD,"ID",50,invest,INVEST,m,,,,,,0.489089419,-0.045857237,0,0,0,,0,390,390,104,1,
,,,,,,,,,,,,,,,,,,5ec6ae38afab190b8b7b3be8,2020-08-08_10h42.47.776,lexical_decision_task_MP,2020.1.3,Win32,60,z,1,0.738075,,,,,,,,0.738075,1,,,,,,415,NW,"ID",50,higsta,HIGSTA,z,,,,,,0.489089419,-0.045857237,0,0,0,,0,391,391,354,1,
,,,,,,,,,,,,,,,,,,5ec6ae38afab190b8b7b3be8,2020-08-08_10h42.47.776,lexical_decision_task_MP,2020.1.3,Win32,60,m,1,0.456945,,,,,,,,0.456945,1,,,,,,240,WORD,UN,33,seldom,FOREST,m,,,,,,0.489089419,-0.045857237,0,0,0,,0,392,392,179,1,
,,,,,,,,,,,,,,,,,,5ec6ae38afab190b8b7b3be8,2020-08-08_10h42.47.776,lexical_decision_task_MP,2020.1.3,Win32,60,z,1,0.54838,,,,,,,,0.54838,1,,,,,,290,NW,UN,50,pretch,SPLINO,z,,,,,,0.489089419,-0.045857237,0,0,0,,0,393,393,469,1,
,,,,,,,,,,,,,,,,,,5ec6ae38afab190b8b7b3be8,2020-08-08_10h42.47.776,lexical_decision_task_MP,2020.1.3,Win32,60,m,1,0.566875,,,,,,,,0.566875,1,,,,,,139,WORD,"ID",50,debris,DEBRIS,m,,,,,,0.489089419,-0.045857237,0,0,0,,0,394,394,78,1,
,,,,,,,,,,,,,,,,,,5ec6ae38afab190b8b7b3be8,2020-08-08_10h42.47.776,lexical_decision_task_MP,2020.1.3,Win32,60,z,1,1.080035,,,,,,,,1.080035,1,,,,,,376,NW,"ID",50,iguare,IGUARE,z,,,,,,0.489089419,-0.045857237,0,0,0,,0,395,395,315,1,
,,,,,,,,,,,,,,,,,,5ec6ae38afab190b8b7b3be8,2020-08-08_10h42.47.776,lexical_decision_task_MP,2020.1.3,Win32,60,z,1,0.51395,,,,,,,,0.51395,1,,,,,,432,NW,UN,33,drance,LUNKER,z,,,,,,0.489089419,-0.045857237,0,0,0,,0,396,396,371,1,
,,,,,,,,,,,,,,,,,,5ec6ae38afab190b8b7b3be8,2020-08-08_10h42.47.776,lexical_decision_task_MP,2020.1.3,Win32,60,m,1,0.45479,,,,,,,,0.45479,1,,,,,,229,WORD,UN,33,fringe,MOTHER,m,,,,,,0.489089419,-0.045857237,0,0,0,,0,397,397,168,1,
,,,,,,,,,,,,,,,,,,5ec6ae38afab190b8b7b3be8,2020-08-08_10h42.47.776,lexical_decision_task_MP,2020.1.3,Win32,60,m,1,0.49768,,,,,,,,0.49768,1,,,,,,124,WORD,"ID",50,blouse,BLOUSE,m,,,,,,0.489089419,-0.045857237,0,0,0,,0,398,398,63,1,
,,,,,,,,,,,,,,,,,,5ec6ae38afab190b8b7b3be8,2020-08-08_10h42.47.776,lexical_decision_task_MP,2020.1.3,Win32,60,z,1,0.49946,,,,,,,,0.49946,1,,,,,,394,NW,"ID",50,spaqux,SPAQUX,z,,,,,,0.489089419,-0.045857237,0,0,0,,0,399,399,333,1,
,,,,,,,,,,,,,,,,,,5ec6ae38afab190b8b7b3be8,2020-08-08_10h42.47.776,lexical_decision_task_MP,2020.1.3,Win32,60,z,1,0.56362,,,,,,,,0.56362,1,,,,,,412,NW,"ID",50,jiluer,JILUER,z,,,,,,0.489089419,-0.045857237,0,0,0,,0,400,400,351,1,
,,,,,,,,,,,,,,,,,,5ec6ae38afab190b8b7b3be8,2020-08-08_10h42.47.776,lexical_decision_task_MP,2020.1.3,Win32,60,z,1,0.646735,,,,,,,,0.646735,1,,,,,,329,NW,"ID",33,yarike,YARIKE,z,,,,,,0.489089419,-0.045857237,0,0,0,,0,401,401,268,1,
,,,,,,,,,,,,,,,,,,5ec6ae38afab190b8b7b3be8,2020-08-08_10h42.47.776,lexical_decision_task_MP,2020.1.3,Win32,60,z,1,0.736755,,,,,,,,0.736755,1,,,,,,372,NW,"ID",50,ramily,RAMILY,z,,,,,,0.489089419,-0.045857237,0,0,0,,0,402,402,311,1,
,,,,,,,,,,,,,,,,,,5ec6ae38afab190b8b7b3be8,2020-08-08_10h42.47.776,lexical_decision_task_MP,2020.1.3,Win32,60,m,1,0.4806,,,,,,,,0.4806,1,,,,,,21,WORD,UN,50,jockey,SIMPLE,m,,,,,,0.489089419,-0.045857237,0,0,0,,0,403,403,200,1,
