counterbalancing_condition,instr_done_keyboard.keys,instr_done_touch.x,instr_done_touch.y,instr_done_touch.leftButton,instr_done_touch.midButton,instr_done_touch.rightButton,instr_done_touch.clicked_name,instruction_pages.thisRepN,instruction_pages.thisTrialN,instruction_pages.thisN,instruction_pages.thisIndex,instruction_pages.ran,pageN,phase,instruct_text,has_image,instruct_image,participant,date,expName,psychopyVersion,OS,frameRate,instr_done_keyboard.rt,response.keys,response.corr,response.rt,touch_resp.x,touch_resp.y,touch_resp.leftButton,touch_resp.midButton,touch_resp.rightButton,touch_resp.time,touch_resp.clicked_name,rt,corr,practice_trials.thisRepN,practice_trials.thisTrialN,practice_trials.thisN,practice_trials.thisIndex,practice_trials.ran,TrialID,StimulusType,Condition,PrimeDuration,Prime,Target,corrAns,end_of_practice_trials_pages.thisRepN,end_of_practice_trials_pages.thisTrialN,end_of_practice_trials_pages.thisN,end_of_practice_trials_pages.thisIndex,end_of_practice_trials_pages.ran,break_done_touch.x,break_done_touch.y,break_done_touch.leftButton,break_done_touch.midButton,break_done_touch.rightButton,break_done_keyboard.keys,trials.thisRepN,trials.thisTrialN,trials.thisN,trials.thisIndex,trials.ran,break_done_keyboard.rt
3,,-0.0078125,-0.391927083,1,0,0,instr_done_button,0,0,0,0,1,1,instructions,"INSTRUCTIONS
At the start of each trial, look at the hash marks (######) in the center of the screen. After a moment, a string of letters will appear. Your task is to indicate if the letter string forms a word or not (i.e., if it is a nonword). For example, AUTHOR is a word while AUTHON is a nonword.

Press the space bar or touch the button below to continue.",0,,5ec614d37bf5d768c8564186,2020-08-10_15h59.54.769,lexical_decision_task_MP,2020.1.3,Win32,60,,,,,,,,,,,,,,,,,,,,,,,,,,,,,,,,,,,,,,,,,,
,space,0.005208333,-0.401041667,0,0,0,,0,1,1,1,1,2,instructions,"If your device has a keyboard, press the 'Z' key for nonwords and the 'M' key for words.





Press the space bar or touch the button below to continue.",1,keyboard-example.gif,5ec614d37bf5d768c8564186,2020-08-10_15h59.54.769,lexical_decision_task_MP,2020.1.3,Win32,60,12.493475,,,,,,,,,,,,,,,,,,,,,,,,,,,,,,,,,,,,,,,,,
,space,0.005208333,-0.401041667,0,0,0,,0,2,2,2,1,3,instructions,"If you are using a touchscreen only device, use the buttons on the screen. Do not use the mouse.





Press the space bar or touch the button below to continue.",1,touchscreen-example.gif,5ec614d37bf5d768c8564186,2020-08-10_15h59.54.769,lexical_decision_task_MP,2020.1.3,Win32,60,8.00061,,,,,,,,,,,,,,,,,,,,,,,,,,,,,,,,,,,,,,,,,
,space,0.005208333,-0.401041667,0,0,0,,0,3,3,3,1,4,instructions,"It is very important that you respond as quickly and accurately as possible, as each letter string will only be on the screen for two seconds. If you do not respond within this time, the message 'Too slow!' will be displayed and the experiment will progress to the next letter string. The first 20 trials will be practice trials and you will receive feedback on your answers. 

Press the space bar or touch the button below to start the practice trials.",0,,5ec614d37bf5d768c8564186,2020-08-10_15h59.54.769,lexical_decision_task_MP,2020.1.3,Win32,60,10.931665,,,,,,,,,,,,,,,,,,,,,,,,,,,,,,,,,,,,,,,,,
,,,,,,,,,,,,,,,,,,5ec614d37bf5d768c8564186,2020-08-10_15h59.54.769,lexical_decision_task_MP,2020.1.3,Win32,60,,m,1,1.20043,,,,,,,,1.20043,1,0,0,0,7,1,1008,WORD,UN,50,hurdle,VOLUME,m,,,,,,,,,,,,,,,,,
,,,,,,,,,,,,,,,,,,5ec614d37bf5d768c8564186,2020-08-10_15h59.54.769,lexical_decision_task_MP,2020.1.3,Win32,60,,m,1,0.94909,,,,,,,,0.94909,1,0,1,1,0,1,1001,WORD,"ID",33,utopia,UTOPIA,m,,,,,,,,,,,,,,,,,
,,,,,,,,,,,,,,,,,,5ec614d37bf5d768c8564186,2020-08-10_15h59.54.769,lexical_decision_task_MP,2020.1.3,Win32,60,,m,1,0.743315,,,,,,,,0.743315,1,0,2,2,1,1,1002,WORD,"ID",33,adjust,ADJUST,m,,,,,,,,,,,,,,,,,
,,,,,,,,,,,,,,,,,,5ec614d37bf5d768c8564186,2020-08-10_15h59.54.769,lexical_decision_task_MP,2020.1.3,Win32,60,,z,1,0.972575,,,,,,,,0.972575,1,0,3,3,10,1,1011,NW,"ID",50,inlade,INLADE,z,,,,,,,,,,,,,,,,,
,,,,,,,,,,,,,,,,,,5ec614d37bf5d768c8564186,2020-08-10_15h59.54.769,lexical_decision_task_MP,2020.1.3,Win32,60,,z,1,1.024385,,,,,,,,1.024385,1,0,4,4,11,1,1012,NW,"ID",50,rashet,RASHET,z,,,,,,,,,,,,,,,,,
,,,,,,,,,,,,,,,,,,5ec614d37bf5d768c8564186,2020-08-10_15h59.54.769,lexical_decision_task_MP,2020.1.3,Win32,60,,m,0,1.155195,,,,,,,,1.155195,0,0,5,5,14,1,1015,NW,UN,50,miaber,THRALE,z,,,,,,,,,,,,,,,,,
,,,,,,,,,,,,,,,,,,5ec614d37bf5d768c8564186,2020-08-10_15h59.54.769,lexical_decision_task_MP,2020.1.3,Win32,60,,m,1,0.732685,,,,,,,,0.732685,1,0,6,6,6,1,1007,WORD,UN,50,tropic,ZOMBIE,m,,,,,,,,,,,,,,,,,
,,,,,,,,,,,,,,,,,,5ec614d37bf5d768c8564186,2020-08-10_15h59.54.769,lexical_decision_task_MP,2020.1.3,Win32,60,,z,1,0.9105,,,,,,,,0.9105,1,0,7,7,13,1,1014,NW,UN,33,winfer,ROUPET,z,,,,,,,,,,,,,,,,,
,,,,,,,,,,,,,,,,,,5ec614d37bf5d768c8564186,2020-08-10_15h59.54.769,lexical_decision_task_MP,2020.1.3,Win32,60,,m,1,0.677465,,,,,,,,0.677465,1,0,8,8,2,1,1003,WORD,"ID",50,almond,ALMOND,m,,,,,,,,,,,,,,,,,
,,,,,,,,,,,,,,,,,,5ec614d37bf5d768c8564186,2020-08-10_15h59.54.769,lexical_decision_task_MP,2020.1.3,Win32,60,,z,1,1.18393,,,,,,,,1.18393,1,0,9,9,9,1,1010,NW,"ID",33,fariny,FARINY,z,,,,,,,,,,,,,,,,,
,,,,,,,,,,,,,,,,,,5ec614d37bf5d768c8564186,2020-08-10_15h59.54.769,lexical_decision_task_MP,2020.1.3,Win32,60,,m,1,1.09079,,,,,,,,1.09079,1,0,10,10,5,1,1006,WORD,UN,33,frenzy,OBTAIN,m,,,,,,,,,,,,,,,,,
,,,,,,,,,,,,,,,,,,5ec614d37bf5d768c8564186,2020-08-10_15h59.54.769,lexical_decision_task_MP,2020.1.3,Win32,60,,z,1,1.189535,,,,,,,,1.189535,1,0,11,11,15,1,1016,NW,UN,50,mushed,WHAISE,z,,,,,,,,,,,,,,,,,
,,,,,,,,,,,,,,,,,,5ec614d37bf5d768c8564186,2020-08-10_15h59.54.769,lexical_decision_task_MP,2020.1.3,Win32,60,,z,1,1.04016,,,,,,,,1.04016,1,0,12,12,8,1,1009,NW,"ID",33,aslert,ASLERT,z,,,,,,,,,,,,,,,,,
,,,,,,,,,,,,,,,,,,5ec614d37bf5d768c8564186,2020-08-10_15h59.54.769,lexical_decision_task_MP,2020.1.3,Win32,60,,z,1,0.84234,,,,,,,,0.84234,1,0,13,13,12,1,1013,NW,UN,33,adveil,SPRINY,z,,,,,,,,,,,,,,,,,
,,,,,,,,,,,,,,,,,,5ec614d37bf5d768c8564186,2020-08-10_15h59.54.769,lexical_decision_task_MP,2020.1.3,Win32,60,,m,1,0.755975,,,,,,,,0.755975,1,0,14,14,4,1,1005,WORD,UN,33,abound,SQUEAK,m,,,,,,,,,,,,,,,,,
,,,,,,,,,,,,,,,,,,5ec614d37bf5d768c8564186,2020-08-10_15h59.54.769,lexical_decision_task_MP,2020.1.3,Win32,60,,m,1,0.73446,,,,,,,,0.73446,1,0,15,15,3,1,1004,WORD,"ID",50,matrix,MATRIX,m,,,,,,,,,,,,,,,,,
,space,0.005208333,-0.401041667,0,0,0,,,,,,,1,end_of_practice,"You have completed the practice trials. During the experimental trials, you will not receive feedback, but it is very important that you respond as quickly and accurately as possible. 
Before you begin, please ensure that you are in a comfortable and quiet location and will not be disturbed for about 15 minutes, as we cannot use your data if you do not complete all the trials. 
There will be opportunities to take breaks at regular intervals during the experiment. When you are ready to start the experimental trials, please press space or touch the button below.",,,5ec614d37bf5d768c8564186,2020-08-10_15h59.54.769,lexical_decision_task_MP,2020.1.3,Win32,60,1.30956,,,,,,,,,,,,,,,,,,,,,,,,,0,0,0,0,1,,,,,,,,,,,,
,,,,,,,,,,,,,,,,,,5ec614d37bf5d768c8564186,2020-08-10_15h59.54.769,lexical_decision_task_MP,2020.1.3,Win32,60,,z,1,0.88723,,,,,,,,0.88723,1,,,,,,460,NW,UN,33,justre,MINGAR,z,,,,,,0.005208333,-0.401041667,0,0,0,,0,0,0,399,1,
,,,,,,,,,,,,,,,,,,5ec614d37bf5d768c8564186,2020-08-10_15h59.54.769,lexical_decision_task_MP,2020.1.3,Win32,60,,z,1,1.09061,,,,,,,,1.09061,1,,,,,,433,NW,UN,33,pitrom,DRANCE,z,,,,,,0.005208333,-0.401041667,0,0,0,,0,1,1,372,1,
,,,,,,,,,,,,,,,,,,5ec614d37bf5d768c8564186,2020-08-10_15h59.54.769,lexical_decision_task_MP,2020.1.3,Win32,60,,m,1,0.690105,,,,,,,,0.690105,1,,,,,,121,WORD,"ID",50,thrive,THRIVE,m,,,,,,0.005208333,-0.401041667,0,0,0,,0,2,2,60,1,
,,,,,,,,,,,,,,,,,,5ec614d37bf5d768c8564186,2020-08-10_15h59.54.769,lexical_decision_task_MP,2020.1.3,Win32,60,,m,1,0.88098,,,,,,,,0.88098,1,,,,,,57,WORD,UN,50,danger,CHANGE,m,,,,,,0.005208333,-0.401041667,0,0,0,,0,3,3,236,1,
,,,,,,,,,,,,,,,,,,5ec614d37bf5d768c8564186,2020-08-10_15h59.54.769,lexical_decision_task_MP,2020.1.3,Win32,60,,z,1,0.83436,,,,,,,,0.83436,1,,,,,,404,NW,"ID",50,cluirm,CLUIRM,z,,,,,,0.005208333,-0.401041667,0,0,0,,0,4,4,343,1,
,,,,,,,,,,,,,,,,,,5ec614d37bf5d768c8564186,2020-08-10_15h59.54.769,lexical_decision_task_MP,2020.1.3,Win32,60,,m,0,1.187625,,,,,,,,1.187625,0,,,,,,397,NW,"ID",50,camble,CAMBLE,z,,,,,,0.005208333,-0.401041667,0,0,0,,0,5,5,336,1,
,,,,,,,,,,,,,,,,,,5ec614d37bf5d768c8564186,2020-08-10_15h59.54.769,lexical_decision_task_MP,2020.1.3,Win32,60,,m,1,0.865085,,,,,,,,0.865085,1,,,,,,153,WORD,"ID",50,behold,BEHOLD,m,,,,,,0.005208333,-0.401041667,0,0,0,,0,6,6,92,1,
,,,,,,,,,,,,,,,,,,5ec614d37bf5d768c8564186,2020-08-10_15h59.54.769,lexical_decision_task_MP,2020.1.3,Win32,60,,m,1,0.762255,,,,,,,,0.762255,1,,,,,,238,WORD,UN,33,behalf,FLOWER,m,,,,,,0.005208333,-0.401041667,0,0,0,,0,7,7,177,1,
,,,,,,,,,,,,,,,,,,5ec614d37bf5d768c8564186,2020-08-10_15h59.54.769,lexical_decision_task_MP,2020.1.3,Win32,60,,m,1,0.857175,,,,,,,,0.857175,1,,,,,,67,WORD,"ID",33,policy,POLICY,m,,,,,,0.005208333,-0.401041667,0,0,0,,0,8,8,6,1,
,,,,,,,,,,,,,,,,,,5ec614d37bf5d768c8564186,2020-08-10_15h59.54.769,lexical_decision_task_MP,2020.1.3,Win32,60,,m,1,0.694365,,,,,,,,0.694365,1,,,,,,82,WORD,"ID",33,stigma,STIGMA,m,,,,,,0.005208333,-0.401041667,0,0,0,,0,9,9,21,1,
,,,,,,,,,,,,,,,,,,5ec614d37bf5d768c8564186,2020-08-10_15h59.54.769,lexical_decision_task_MP,2020.1.3,Win32,60,,m,0,0.930965,,,,,,,,0.930965,0,,,,,,402,NW,"ID",50,syntic,SYNTIC,z,,,,,,0.005208333,-0.401041667,0,0,0,,0,10,10,341,1,
,,,,,,,,,,,,,,,,,,5ec614d37bf5d768c8564186,2020-08-10_15h59.54.769,lexical_decision_task_MP,2020.1.3,Win32,60,,m,1,0.749215,,,,,,,,0.749215,1,,,,,,202,WORD,UN,33,phrase,FACTOR,m,,,,,,0.005208333,-0.401041667,0,0,0,,0,11,11,141,1,
,,,,,,,,,,,,,,,,,,5ec614d37bf5d768c8564186,2020-08-10_15h59.54.769,lexical_decision_task_MP,2020.1.3,Win32,60,,z,1,0.648715,,,,,,,,0.648715,1,,,,,,252,NW,UN,50,resait,STAPOD,z,,,,,,0.005208333,-0.401041667,0,0,0,,0,12,12,431,1,
,,,,,,,,,,,,,,,,,,5ec614d37bf5d768c8564186,2020-08-10_15h59.54.769,lexical_decision_task_MP,2020.1.3,Win32,60,,m,1,0.606385,,,,,,,,0.606385,1,,,,,,197,WORD,UN,33,wicked,STREAM,m,,,,,,0.005208333,-0.401041667,0,0,0,,0,13,13,136,1,
,,,,,,,,,,,,,,,,,,5ec614d37bf5d768c8564186,2020-08-10_15h59.54.769,lexical_decision_task_MP,2020.1.3,Win32,60,,m,1,0.792795,,,,,,,,0.792795,1,,,,,,184,WORD,UN,33,bother,SLEAZY,m,,,,,,0.005208333,-0.401041667,0,0,0,,0,14,14,123,1,
,,,,,,,,,,,,,,,,,,5ec614d37bf5d768c8564186,2020-08-10_15h59.54.769,lexical_decision_task_MP,2020.1.3,Win32,60,,m,1,0.769785,,,,,,,,0.769785,1,,,,,,103,WORD,"ID",33,bounce,BOUNCE,m,,,,,,0.005208333,-0.401041667,0,0,0,,0,15,15,42,1,
,,,,,,,,,,,,,,,,,,5ec614d37bf5d768c8564186,2020-08-10_15h59.54.769,lexical_decision_task_MP,2020.1.3,Win32,60,,z,1,0.72347,,,,,,,,0.72347,1,,,,,,472,NW,UN,33,gorbie,CIGNEY,z,,,,,,0.005208333,-0.401041667,0,0,0,,0,16,16,411,1,
,,,,,,,,,,,,,,,,,,5ec614d37bf5d768c8564186,2020-08-10_15h59.54.769,lexical_decision_task_MP,2020.1.3,Win32,60,,z,1,0.83004,,,,,,,,0.83004,1,,,,,,477,NW,UN,33,lobush,PHOTIE,z,,,,,,0.005208333,-0.401041667,0,0,0,,0,17,17,416,1,
,,,,,,,,,,,,,,,,,,5ec614d37bf5d768c8564186,2020-08-10_15h59.54.769,lexical_decision_task_MP,2020.1.3,Win32,60,,m,1,1.067305,,,,,,,,1.067305,1,,,,,,165,WORD,"ID",50,invest,INVEST,m,,,,,,0.005208333,-0.401041667,0,0,0,,0,18,18,104,1,
,,,,,,,,,,,,,,,,,,5ec614d37bf5d768c8564186,2020-08-10_15h59.54.769,lexical_decision_task_MP,2020.1.3,Win32,60,,m,1,1.07479,,,,,,,,1.07479,1,,,,,,186,WORD,UN,33,course,PORTAL,m,,,,,,0.005208333,-0.401041667,0,0,0,,0,19,19,125,1,
,,,,,,,,,,,,,,,,,,5ec614d37bf5d768c8564186,2020-08-10_15h59.54.769,lexical_decision_task_MP,2020.1.3,Win32,60,,m,1,0.721725,,,,,,,,0.721725,1,,,,,,78,WORD,"ID",33,column,COLUMN,m,,,,,,0.005208333,-0.401041667,0,0,0,,0,20,20,17,1,
,,,,,,,,,,,,,,,,,,5ec614d37bf5d768c8564186,2020-08-10_15h59.54.769,lexical_decision_task_MP,2020.1.3,Win32,60,,m,1,0.66515,,,,,,,,0.66515,1,,,,,,180,WORD,"ID",50,silent,SILENT,m,,,,,,0.005208333,-0.401041667,0,0,0,,0,21,21,119,1,
,,,,,,,,,,,,,,,,,,5ec614d37bf5d768c8564186,2020-08-10_15h59.54.769,lexical_decision_task_MP,2020.1.3,Win32,60,,z,1,0.79121,,,,,,,,0.79121,1,,,,,,395,NW,"ID",50,colury,COLURY,z,,,,,,0.005208333,-0.401041667,0,0,0,,0,22,22,334,1,
,,,,,,,,,,,,,,,,,,5ec614d37bf5d768c8564186,2020-08-10_15h59.54.769,lexical_decision_task_MP,2020.1.3,Win32,60,,m,1,0.730285,,,,,,,,0.730285,1,,,,,,77,WORD,"ID",33,racket,RACKET,m,,,,,,0.005208333,-0.401041667,0,0,0,,0,23,23,16,1,
,,,,,,,,,,,,,,,,,,5ec614d37bf5d768c8564186,2020-08-10_15h59.54.769,lexical_decision_task_MP,2020.1.3,Win32,60,,z,1,1.020115,,,,,,,,1.020115,1,,,,,,325,NW,"ID",33,thruse,THRUSE,z,,,,,,0.005208333,-0.401041667,0,0,0,,0,24,24,264,1,
,,,,,,,,,,,,,,,,,,5ec614d37bf5d768c8564186,2020-08-10_15h59.54.769,lexical_decision_task_MP,2020.1.3,Win32,60,,m,0,0.85631,,,,,,,,0.85631,0,,,,,,314,NW,"ID",33,sprine,SPRINE,z,,,,,,0.005208333,-0.401041667,0,0,0,,0,25,25,253,1,
,,,,,,,,,,,,,,,,,,5ec614d37bf5d768c8564186,2020-08-10_15h59.54.769,lexical_decision_task_MP,2020.1.3,Win32,60,,z,1,0.91153,,,,,,,,0.91153,1,,,,,,296,NW,UN,50,fertic,BEINCH,z,,,,,,0.005208333,-0.401041667,0,0,0,,0,26,26,475,1,
,,,,,,,,,,,,,,,,,,5ec614d37bf5d768c8564186,2020-08-10_15h59.54.769,lexical_decision_task_MP,2020.1.3,Win32,60,,m,1,0.84833,,,,,,,,0.84833,1,,,,,,139,WORD,"ID",50,debris,DEBRIS,m,,,,,,0.005208333,-0.401041667,0,0,0,,0,27,27,78,1,
,,,,,,,,,,,,,,,,,,5ec614d37bf5d768c8564186,2020-08-10_15h59.54.769,lexical_decision_task_MP,2020.1.3,Win32,60,,m,1,0.72297,,,,,,,,0.72297,1,,,,,,94,WORD,"ID",33,travel,TRAVEL,m,,,,,,0.005208333,-0.401041667,0,0,0,,0,28,28,33,1,
,,,,,,,,,,,,,,,,,,5ec614d37bf5d768c8564186,2020-08-10_15h59.54.769,lexical_decision_task_MP,2020.1.3,Win32,60,,m,1,0.76791,,,,,,,,0.76791,1,,,,,,17,WORD,UN,50,humble,CHARGE,m,,,,,,0.005208333,-0.401041667,0,0,0,,0,29,29,196,1,
,,,,,,,,,,,,,,,,,,5ec614d37bf5d768c8564186,2020-08-10_15h59.54.769,lexical_decision_task_MP,2020.1.3,Win32,60,,z,1,0.963715,,,,,,,,0.963715,1,,,,,,387,NW,"ID",50,gronce,GRONCE,z,,,,,,0.005208333,-0.401041667,0,0,0,,0,30,30,326,1,
,,,,,,,,,,,,,,,,,,5ec614d37bf5d768c8564186,2020-08-10_15h59.54.769,lexical_decision_task_MP,2020.1.3,Win32,60,,z,1,0.92211,,,,,,,,0.92211,1,,,,,,356,NW,"ID",33,othnis,OTHNIS,z,,,,,,0.005208333,-0.401041667,0,0,0,,0,31,31,295,1,
,,,,,,,,,,,,,,,,,,5ec614d37bf5d768c8564186,2020-08-10_15h59.54.769,lexical_decision_task_MP,2020.1.3,Win32,60,,m,1,0.60199,,,,,,,,0.60199,1,,,,,,85,WORD,"ID",33,sprawl,SPRAWL,m,,,,,,0.005208333,-0.401041667,0,0,0,,0,32,32,24,1,
,,,,,,,,,,,,,,,,,,5ec614d37bf5d768c8564186,2020-08-10_15h59.54.769,lexical_decision_task_MP,2020.1.3,Win32,60,,z,1,0.91127,,,,,,,,0.91127,1,,,,,,307,NW,"ID",33,kirafe,KIRAFE,z,,,,,,0.005208333,-0.401041667,0,0,0,,0,33,33,246,1,
,,,,,,,,,,,,,,,,,,5ec614d37bf5d768c8564186,2020-08-10_15h59.54.769,lexical_decision_task_MP,2020.1.3,Win32,60,,z,1,0.711105,,,,,,,,0.711105,1,,,,,,351,NW,"ID",33,tiesch,TIESCH,z,,,,,,0.005208333,-0.401041667,0,0,0,,0,34,34,290,1,
,,,,,,,,,,,,,,,,,,5ec614d37bf5d768c8564186,2020-08-10_15h59.54.769,lexical_decision_task_MP,2020.1.3,Win32,60,,z,1,1.292595,,,,,,,,1.292595,1,,,,,,418,NW,"ID",50,suidle,SUIDLE,z,,,,,,0.005208333,-0.401041667,0,0,0,,0,35,35,357,1,
,,,,,,,,,,,,,,,,,,5ec614d37bf5d768c8564186,2020-08-10_15h59.54.769,lexical_decision_task_MP,2020.1.3,Win32,60,,z,1,0.85774,,,,,,,,0.85774,1,,,,,,365,NW,"ID",50,guairt,GUAIRT,z,,,,,,0.005208333,-0.401041667,0,0,0,,0,36,36,304,1,
,,,,,,,,,,,,,,,,,,5ec614d37bf5d768c8564186,2020-08-10_15h59.54.769,lexical_decision_task_MP,2020.1.3,Win32,60,,z,1,0.77489,,,,,,,,0.77489,1,,,,,,309,NW,"ID",33,amiloy,AMILOY,z,,,,,,0.005208333,-0.401041667,0,0,0,,0,37,37,248,1,
,,,,,,,,,,,,,,,,,,5ec614d37bf5d768c8564186,2020-08-10_15h59.54.769,lexical_decision_task_MP,2020.1.3,Win32,60,,m,1,0.79309,,,,,,,,0.79309,1,,,,,,24,WORD,UN,50,domain,PRAISE,m,,,,,,0.005208333,-0.401041667,0,0,0,,0,38,38,203,1,
,,,,,,,,,,,,,,,,,,5ec614d37bf5d768c8564186,2020-08-10_15h59.54.769,lexical_decision_task_MP,2020.1.3,Win32,60,,m,1,1.11095,,,,,,,,1.11095,1,,,,,,83,WORD,"ID",33,result,RESULT,m,,,,,,0.005208333,-0.401041667,0,0,0,,0,39,39,22,1,
,,,,,,,,,,,,,,,,,,5ec614d37bf5d768c8564186,2020-08-10_15h59.54.769,lexical_decision_task_MP,2020.1.3,Win32,60,,z,1,0.740575,,,,,,,,0.740575,1,,,,,,384,NW,"ID",50,guesco,GUESCO,z,,,,,,0.005208333,-0.401041667,0,0,0,,0,40,40,323,1,
,,,,,,,,,,,,,,,,,,5ec614d37bf5d768c8564186,2020-08-10_15h59.54.769,lexical_decision_task_MP,2020.1.3,Win32,60,,z,1,0.72338,,,,,,,,0.72338,1,,,,,,450,NW,UN,33,cainky,PHRECT,z,,,,,,0.005208333,-0.401041667,0,0,0,,0,41,41,389,1,
,,,,,,,,,,,,,,,,,,5ec614d37bf5d768c8564186,2020-08-10_15h59.54.769,lexical_decision_task_MP,2020.1.3,Win32,60,,m,1,0.859855,,,,,,,,0.859855,1,,,,,,195,WORD,UN,33,credit,RESIGN,m,,,,,,0.005208333,-0.401041667,0,0,0,,0,42,42,134,1,
,,,,,,,,,,,,,,,,,,5ec614d37bf5d768c8564186,2020-08-10_15h59.54.769,lexical_decision_task_MP,2020.1.3,Win32,60,,z,1,0.88743,,,,,,,,0.88743,1,,,,,,406,NW,"ID",50,nouply,NOUPLY,z,,,,,,0.005208333,-0.401041667,0,0,0,,0,43,43,345,1,
,,,,,,,,,,,,,,,,,,5ec614d37bf5d768c8564186,2020-08-10_15h59.54.769,lexical_decision_task_MP,2020.1.3,Win32,60,,z,1,0.655445,,,,,,,,0.655445,1,,,,,,446,NW,UN,33,gircue,RUNAMO,z,,,,,,0.005208333,-0.401041667,0,0,0,,0,44,44,385,1,
,,,,,,,,,,,,,,,,,,5ec614d37bf5d768c8564186,2020-08-10_15h59.54.769,lexical_decision_task_MP,2020.1.3,Win32,60,,m,1,0.845005,,,,,,,,0.845005,1,,,,,,39,WORD,UN,50,convey,INSECT,m,,,,,,0.005208333,-0.401041667,0,0,0,,0,45,45,218,1,
,,,,,,,,,,,,,,,,,,5ec614d37bf5d768c8564186,2020-08-10_15h59.54.769,lexical_decision_task_MP,2020.1.3,Win32,60,,m,1,0.77457,,,,,,,,0.77457,1,,,,,,147,WORD,"ID",50,garlic,GARLIC,m,,,,,,0.005208333,-0.401041667,0,0,0,,0,46,46,86,1,
,,,,,,,,,,,,,,,,,,5ec614d37bf5d768c8564186,2020-08-10_15h59.54.769,lexical_decision_task_MP,2020.1.3,Win32,60,,z,1,1.080915,,,,,,,,1.080915,1,,,,,,437,NW,UN,33,baitch,SNAPEL,z,,,,,,0.005208333,-0.401041667,0,0,0,,0,47,47,376,1,
,,,,,,,,,,,,,,,,,,5ec614d37bf5d768c8564186,2020-08-10_15h59.54.769,lexical_decision_task_MP,2020.1.3,Win32,60,,m,1,0.54752,,,,,,,,0.54752,1,,,,,,219,WORD,UN,33,voyage,BUCKET,m,,,,,,0.005208333,-0.401041667,0,0,0,,0,48,48,158,1,
,,,,,,,,,,,,,,,,,,5ec614d37bf5d768c8564186,2020-08-10_15h59.54.769,lexical_decision_task_MP,2020.1.3,Win32,60,,m,1,0.785235,,,,,,,,0.785235,1,,,,,,111,WORD,"ID",33,induce,INDUCE,m,,,,,,0.005208333,-0.401041667,0,0,0,,0,49,49,50,1,
,,,,,,,,,,,,,,,,,,5ec614d37bf5d768c8564186,2020-08-10_15h59.54.769,lexical_decision_task_MP,2020.1.3,Win32,60,,z,1,1.32306,,,,,,,,1.32306,1,,,,,,443,NW,UN,33,jaunce,DORSEX,z,,,,,,0.005208333,-0.401041667,0,0,0,,0,50,50,382,1,
,,,,,,,,,,,,,,,,,,5ec614d37bf5d768c8564186,2020-08-10_15h59.54.769,lexical_decision_task_MP,2020.1.3,Win32,60,,m,0,0.918245,,,,,,,,0.918245,0,,,,,,476,NW,UN,33,photie,JOSTED,z,,,,,,0.005208333,-0.401041667,0,0,0,,0,51,51,415,1,
,,,,,,,,,,,,,,,,,,5ec614d37bf5d768c8564186,2020-08-10_15h59.54.769,lexical_decision_task_MP,2020.1.3,Win32,60,,z,1,1.22676,,,,,,,,1.22676,1,,,,,,392,NW,"ID",50,rouncy,ROUNCY,z,,,,,,0.005208333,-0.401041667,0,0,0,,0,52,52,331,1,
,,,,,,,,,,,,,,,,,,5ec614d37bf5d768c8564186,2020-08-10_15h59.54.769,lexical_decision_task_MP,2020.1.3,Win32,60,,z,1,1.15544,,,,,,,,1.15544,1,,,,,,389,NW,"ID",50,witmer,WITMER,z,,,,,,0.005208333,-0.401041667,0,0,0,,0,53,53,328,1,
,,,,,,,,,,,,,,,,,,5ec614d37bf5d768c8564186,2020-08-10_15h59.54.769,lexical_decision_task_MP,2020.1.3,Win32,60,,m,1,0.72871,,,,,,,,0.72871,1,,,,,,214,WORD,UN,33,phobia,INTAKE,m,,,,,,0.005208333,-0.401041667,0,0,0,,0,54,54,153,1,
,,,,,,,,,,,,,,,,,,5ec614d37bf5d768c8564186,2020-08-10_15h59.54.769,lexical_decision_task_MP,2020.1.3,Win32,60,,m,1,0.790505,,,,,,,,0.790505,1,,,,,,177,WORD,"ID",50,advent,ADVENT,m,,,,,,0.005208333,-0.401041667,0,0,0,,0,55,55,116,1,
,,,,,,,,,,,,,,,,,,5ec614d37bf5d768c8564186,2020-08-10_15h59.54.769,lexical_decision_task_MP,2020.1.3,Win32,60,,m,1,0.78842,,,,,,,,0.78842,1,,,,,,1,WORD,UN,50,ethnic,FRIGHT,m,,,,,,0.005208333,-0.401041667,0,0,0,,0,56,56,180,1,
,,,,,,,,,,,,,,,,,,5ec614d37bf5d768c8564186,2020-08-10_15h59.54.769,lexical_decision_task_MP,2020.1.3,Win32,60,,z,1,1.46298,,,,,,,,1.46298,1,,,,,,327,NW,"ID",33,plenac,PLENAC,z,,,,,,0.005208333,-0.401041667,0,0,0,,0,57,57,266,1,
,,,,,,,,,,,,,,,,,,5ec614d37bf5d768c8564186,2020-08-10_15h59.54.769,lexical_decision_task_MP,2020.1.3,Win32,60,,z,1,1.557685,,,,,,,,1.557685,1,,,,,,364,NW,"ID",50,impote,IMPOTE,z,,,,,,0.005208333,-0.401041667,0,0,0,,0,58,58,303,1,
,,,,,,,,,,,,,,,,,,5ec614d37bf5d768c8564186,2020-08-10_15h59.54.769,lexical_decision_task_MP,2020.1.3,Win32,60,,m,1,0.84171,,,,,,,,0.84171,1,,,,,,30,WORD,UN,50,weapon,ORIENT,m,,,,,,0.005208333,-0.401041667,0,0,0,,0,59,59,209,1,
,,,,,,,,,,,,,,,,,,5ec614d37bf5d768c8564186,2020-08-10_15h59.54.769,lexical_decision_task_MP,2020.1.3,Win32,60,,m,1,0.826755,,,,,,,,0.826755,1,,,,,,41,WORD,UN,50,chapel,SPRING,m,,,,,,0.005208333,-0.401041667,0,0,0,,0,60,60,220,1,
,,,,,,,,,,,,,,,,,,5ec614d37bf5d768c8564186,2020-08-10_15h59.54.769,lexical_decision_task_MP,2020.1.3,Win32,60,,m,1,0.60438,,,,,,,,0.60438,1,,,,,,99,WORD,"ID",33,fluent,FLUENT,m,,,,,,0.005208333,-0.401041667,0,0,0,,0,61,61,38,1,
,,,,,,,,,,,,,,,,,,5ec614d37bf5d768c8564186,2020-08-10_15h59.54.769,lexical_decision_task_MP,2020.1.3,Win32,60,,z,1,0.850205,,,,,,,,0.850205,1,,,,,,243,NW,UN,50,eatric,MUSIED,z,,,,,,0.005208333,-0.401041667,0,0,0,,0,62,62,422,1,
,,,,,,,,,,,,,,,,,,5ec614d37bf5d768c8564186,2020-08-10_15h59.54.769,lexical_decision_task_MP,2020.1.3,Win32,60,,z,1,0.956055,,,,,,,,0.956055,1,,,,,,420,NW,"ID",50,gushop,GUSHOP,z,,,,,,0.005208333,-0.401041667,0,0,0,,0,63,63,359,1,
,,,,,,,,,,,,,,,,,,5ec614d37bf5d768c8564186,2020-08-10_15h59.54.769,lexical_decision_task_MP,2020.1.3,Win32,60,,z,1,0.730035,,,,,,,,0.730035,1,,,,,,470,NW,UN,33,nobest,CRUDIO,z,,,,,,0.005208333,-0.401041667,0,0,0,,0,64,64,409,1,
,,,,,,,,,,,,,,,,,,5ec614d37bf5d768c8564186,2020-08-10_15h59.54.769,lexical_decision_task_MP,2020.1.3,Win32,60,,z,1,0.771215,,,,,,,,0.771215,1,,,,,,301,NW,"ID",33,fainch,FAINCH,z,,,,,,0.005208333,-0.401041667,0,0,0,,0,65,65,240,1,
,,,,,,,,,,,,,,,,,,5ec614d37bf5d768c8564186,2020-08-10_15h59.54.769,lexical_decision_task_MP,2020.1.3,Win32,60,,z,1,0.93566,,,,,,,,0.93566,1,,,,,,421,NW,UN,33,alcoud,KNISMA,z,,,,,,0.005208333,-0.401041667,0,0,0,,0,66,66,360,1,
,,,,,,,,,,,,,,,,,,5ec614d37bf5d768c8564186,2020-08-10_15h59.54.769,lexical_decision_task_MP,2020.1.3,Win32,60,,m,1,0.764185,,,,,,,,0.764185,1,,,,,,61,WORD,"ID",33,ponder,PONDER,m,,,,,,0.005208333,-0.401041667,0,0,0,,0,67,67,0,1,
,,,,,,,,,,,,,,,,,,5ec614d37bf5d768c8564186,2020-08-10_15h59.54.769,lexical_decision_task_MP,2020.1.3,Win32,60,,m,1,0.86559,,,,,,,,0.86559,1,,,,,,54,WORD,UN,50,stroke,RAMBLE,m,,,,,,0.005208333,-0.401041667,0,0,0,,0,68,68,233,1,
,,,,,,,,,,,,,,,,,,5ec614d37bf5d768c8564186,2020-08-10_15h59.54.769,lexical_decision_task_MP,2020.1.3,Win32,60,,m,0,0.66481,,,,,,,,0.66481,0,,,,,,332,NW,"ID",33,vangue,VANGUE,z,,,,,,0.005208333,-0.401041667,0,0,0,,0,69,69,271,1,
,,,,,,,,,,,,,,,,,,5ec614d37bf5d768c8564186,2020-08-10_15h59.54.769,lexical_decision_task_MP,2020.1.3,Win32,60,,z,1,0.81786,,,,,,,,0.81786,1,,,,,,391,NW,"ID",50,theldy,THELDY,z,,,,,,0.005208333,-0.401041667,0,0,0,,0,70,70,330,1,
,,,,,,,,,,,,,,,,,,5ec614d37bf5d768c8564186,2020-08-10_15h59.54.769,lexical_decision_task_MP,2020.1.3,Win32,60,,m,1,0.792445,,,,,,,,0.792445,1,,,,,,236,WORD,UN,33,grumpy,PIRATE,m,,,,,,0.005208333,-0.401041667,0,0,0,,0,71,71,175,1,
,,,,,,,,,,,,,,,,,,5ec614d37bf5d768c8564186,2020-08-10_15h59.54.769,lexical_decision_task_MP,2020.1.3,Win32,60,,m,0,1.01072,,,,,,,,1.01072,0,,,,,,341,NW,"ID",33,myrtie,MYRTIE,z,,,,,,0.005208333,-0.401041667,0,0,0,,0,72,72,280,1,
,,,,,,,,,,,,,,,,,,5ec614d37bf5d768c8564186,2020-08-10_15h59.54.769,lexical_decision_task_MP,2020.1.3,Win32,60,,z,0,0.79285,,,,,,,,0.79285,0,,,,,,170,WORD,"ID",50,pounce,POUNCE,m,,,,,,0.005208333,-0.401041667,0,0,0,,0,73,73,109,1,
,,,,,,,,,,,,,,,,,,5ec614d37bf5d768c8564186,2020-08-10_15h59.54.769,lexical_decision_task_MP,2020.1.3,Win32,60,,m,1,0.773825,,,,,,,,0.773825,1,,,,,,129,WORD,"ID",50,marvel,MARVEL,m,,,,,,0.005208333,-0.401041667,0,0,0,,0,74,74,68,1,
,,,,,,,,,,,,,,,,,,5ec614d37bf5d768c8564186,2020-08-10_15h59.54.769,lexical_decision_task_MP,2020.1.3,Win32,60,,z,1,0.954525,,,,,,,,0.954525,1,,,,,,255,NW,UN,50,inlors,APIGHT,z,,,,,,0.005208333,-0.401041667,0,0,0,,0,75,75,434,1,
,,,,,,,,,,,,,,,,,,5ec614d37bf5d768c8564186,2020-08-10_15h59.54.769,lexical_decision_task_MP,2020.1.3,Win32,60,,m,1,0.78082,,,,,,,,0.78082,1,,,,,,110,WORD,"ID",33,polite,POLITE,m,,,,,,0.005208333,-0.401041667,0,0,0,,0,76,76,49,1,
,,,,,,,,,,,,,,,,,,5ec614d37bf5d768c8564186,2020-08-10_15h59.54.769,lexical_decision_task_MP,2020.1.3,Win32,60,,z,1,0.83236,,,,,,,,0.83236,1,,,,,,338,NW,"ID",33,wreash,WREASH,z,,,,,,0.005208333,-0.401041667,0,0,0,,0,77,77,277,1,
,,,,,,,,,,,,,,,,,,5ec614d37bf5d768c8564186,2020-08-10_15h59.54.769,lexical_decision_task_MP,2020.1.3,Win32,60,,m,1,0.88846,,,,,,,,0.88846,1,,,,,,134,WORD,"ID",50,staple,STAPLE,m,,,,,,0.005208333,-0.401041667,0,0,0,,0,78,78,73,1,
,,,,,,,,,,,,,,,,,,5ec614d37bf5d768c8564186,2020-08-10_15h59.54.769,lexical_decision_task_MP,2020.1.3,Win32,60,,m,1,0.77387,,,,,,,,0.77387,1,,,,,,171,WORD,"ID",50,depart,DEPART,m,,,,,,0.005208333,-0.401041667,0,0,0,,0,79,79,110,1,
,,,,,,,,,,,,,,,,,,5ec614d37bf5d768c8564186,2020-08-10_15h59.54.769,lexical_decision_task_MP,2020.1.3,Win32,60,,z,1,0.85504,,,,,,,,0.85504,1,,,,,,316,NW,"ID",33,scregm,SCREGM,z,,,,,,0.005208333,-0.401041667,0,0,0,,0,80,80,255,1,
,,,,,,,,,,,,,,,,,,5ec614d37bf5d768c8564186,2020-08-10_15h59.54.769,lexical_decision_task_MP,2020.1.3,Win32,60,,m,0,0.962185,,,,,,,,0.962185,0,,,,,,284,NW,UN,50,prudge,SHAPLE,z,,,,,,0.005208333,-0.401041667,0,0,0,,0,81,81,463,1,
,,,,,,,,,,,,,,,,,,5ec614d37bf5d768c8564186,2020-08-10_15h59.54.769,lexical_decision_task_MP,2020.1.3,Win32,60,,m,1,0.739555,,,,,,,,0.739555,1,,,,,,207,WORD,UN,33,hockey,WREATH,m,,,,,,0.005208333,-0.401041667,0,0,0,,0,82,82,146,1,
,,,,,,,,,,,,,,,,,,5ec614d37bf5d768c8564186,2020-08-10_15h59.54.769,lexical_decision_task_MP,2020.1.3,Win32,60,,m,1,0.921715,,,,,,,,0.921715,1,,,,,,132,WORD,"ID",50,strong,STRONG,m,,,,,,0.005208333,-0.401041667,0,0,0,,0,83,83,71,1,
,,,,,,,,,,,,,,,,,,5ec614d37bf5d768c8564186,2020-08-10_15h59.54.769,lexical_decision_task_MP,2020.1.3,Win32,60,,z,1,1.01903,,,,,,,,1.01903,1,,,,,,458,NW,UN,33,hocite,BARCET,z,,,,,,0.005208333,-0.401041667,0,0,0,,0,84,84,397,1,
,,,,,,,,,,,,,,,,,,5ec614d37bf5d768c8564186,2020-08-10_15h59.54.769,lexical_decision_task_MP,2020.1.3,Win32,60,,,0,,,,,,,,,1.01903,-1,,,,,,206,WORD,UN,33,wreath,TAILOR,m,,,,,,0.005208333,-0.401041667,0,0,0,,0,85,85,145,1,
,,,,,,,,,,,,,,,,,,5ec614d37bf5d768c8564186,2020-08-10_15h59.54.769,lexical_decision_task_MP,2020.1.3,Win32,60,,z,1,1.078905,,,,,,,,1.078905,1,,,,,,411,NW,"ID",50,orchin,ORCHIN,z,,,,,,0.005208333,-0.401041667,0,0,0,,0,86,86,350,1,
,,,,,,,,,,,,,,,,,,5ec614d37bf5d768c8564186,2020-08-10_15h59.54.769,lexical_decision_task_MP,2020.1.3,Win32,60,,m,1,0.936625,,,,,,,,0.936625,1,,,,,,66,WORD,"ID",33,gospel,GOSPEL,m,,,,,,0.005208333,-0.401041667,0,0,0,,0,87,87,5,1,
,,,,,,,,,,,,,,,,,,5ec614d37bf5d768c8564186,2020-08-10_15h59.54.769,lexical_decision_task_MP,2020.1.3,Win32,60,,z,1,0.89101,,,,,,,,0.89101,1,,,,,,246,NW,UN,50,blarge,PIATON,z,,,,,,0.005208333,-0.401041667,0,0,0,,0,88,88,425,1,
,,,,,,,,,,,,,,,,,,5ec614d37bf5d768c8564186,2020-08-10_15h59.54.769,lexical_decision_task_MP,2020.1.3,Win32,60,,m,1,0.92497,,,,,,,,0.92497,1,,,,,,31,WORD,UN,50,buckle,WEAPON,m,,,,,,0.005208333,-0.401041667,0,0,0,,0,89,89,210,1,
,,,,,,,,,,,,,,,,,,5ec614d37bf5d768c8564186,2020-08-10_15h59.54.769,lexical_decision_task_MP,2020.1.3,Win32,60,,m,1,0.780005,,,,,,,,0.780005,1,,,,,,143,WORD,"ID",50,reason,REASON,m,,,,,,0.005208333,-0.401041667,0,0,0,,0,90,90,82,1,
,,,,,,,,,,,,,,,,,,5ec614d37bf5d768c8564186,2020-08-10_15h59.54.769,lexical_decision_task_MP,2020.1.3,Win32,60,,m,1,0.866205,,,,,,,,0.866205,1,,,,,,140,WORD,"ID",50,prince,PRINCE,m,,,,,,0.005208333,-0.401041667,0,0,0,,0,91,91,79,1,
,,,,,,,,,,,,,,,,,,5ec614d37bf5d768c8564186,2020-08-10_15h59.54.769,lexical_decision_task_MP,2020.1.3,Win32,60,,z,1,0.89602,,,,,,,,0.89602,1,,,,,,312,NW,"ID",33,nerawl,NERAWL,z,,,,,,0.005208333,-0.401041667,0,0,0,,0,92,92,251,1,
,,,,,,,,,,,,,,,,,,5ec614d37bf5d768c8564186,2020-08-10_15h59.54.769,lexical_decision_task_MP,2020.1.3,Win32,60,,z,1,1.035875,,,,,,,,1.035875,1,,,,,,382,NW,"ID",50,sarley,SARLEY,z,,,,,,0.005208333,-0.401041667,0,0,0,,0,93,93,321,1,
,,,,,,,,,,,,,,,,,,5ec614d37bf5d768c8564186,2020-08-10_15h59.54.769,lexical_decision_task_MP,2020.1.3,Win32,60,,z,1,1.03104,,,,,,,,1.03104,1,,,,,,440,NW,UN,33,rastoe,SARIDE,z,,,,,,0.005208333,-0.401041667,0,0,0,,0,94,94,379,1,
,,,,,,,,,,,,,,,,,,5ec614d37bf5d768c8564186,2020-08-10_15h59.54.769,lexical_decision_task_MP,2020.1.3,Win32,60,,z,1,1.172755,,,,,,,,1.172755,1,,,,,,449,NW,UN,33,phrect,BRUNGE,z,,,,,,0.005208333,-0.401041667,0,0,0,,0,95,95,388,1,
,,,,,,,,,,,,,,,,,,5ec614d37bf5d768c8564186,2020-08-10_15h59.54.769,lexical_decision_task_MP,2020.1.3,Win32,60,,z,1,1.53798,,,,,,,,1.53798,1,,,,,,291,NW,UN,50,ablint,PRETCH,z,,,,,,0.005208333,-0.401041667,0,0,0,,0,96,96,470,1,
,,,,,,,,,,,,,,,,,,5ec614d37bf5d768c8564186,2020-08-10_15h59.54.769,lexical_decision_task_MP,2020.1.3,Win32,60,,m,1,1.07916,,,,,,,,1.07916,1,,,,,,150,WORD,"ID",50,random,RANDOM,m,,,,,,0.005208333,-0.401041667,0,0,0,,0,97,97,89,1,
,,,,,,,,,,,,,,,,,,5ec614d37bf5d768c8564186,2020-08-10_15h59.54.769,lexical_decision_task_MP,2020.1.3,Win32,60,,m,1,0.84333,,,,,,,,0.84333,1,,,,,,138,WORD,"ID",50,melody,MELODY,m,,,,,,0.005208333,-0.401041667,0,0,0,,0,98,98,77,1,
,,,,,,,,,,,,,,,,,,5ec614d37bf5d768c8564186,2020-08-10_15h59.54.769,lexical_decision_task_MP,2020.1.3,Win32,60,,z,1,1.13406,,,,,,,,1.13406,1,,,,,,286,NW,UN,50,nymbel,RELDON,z,,,,,,0.005208333,-0.401041667,0,0,0,,0,99,99,465,1,
,,,,,,,,,,,,,,,,,,5ec614d37bf5d768c8564186,2020-08-10_15h59.54.769,lexical_decision_task_MP,2020.1.3,Win32,60,,m,1,0.74367,,,,,,,,0.74367,1,,,,,,72,WORD,"ID",33,bright,BRIGHT,m,,,,,,0.005208333,-0.401041667,0,0,0,,0,100,100,11,1,
,,,,,,,,,,,,,,,,,,5ec614d37bf5d768c8564186,2020-08-10_15h59.54.769,lexical_decision_task_MP,2020.1.3,Win32,60,,z,1,0.817255,,,,,,,,0.817255,1,,,,,,379,NW,"ID",50,auting,AUTING,z,,,,,,0.005208333,-0.401041667,0,0,0,,0,101,101,318,1,
,,,,,,,,,,,,,,,,,,5ec614d37bf5d768c8564186,2020-08-10_15h59.54.769,lexical_decision_task_MP,2020.1.3,Win32,60,,z,1,1.05036,,,,,,,,1.05036,1,,,,,,410,NW,"ID",50,tunory,TUNORY,z,,,,,,0.005208333,-0.401041667,0,0,0,,0,102,102,349,1,
,,,,,,,,,,,,,,,,,,5ec614d37bf5d768c8564186,2020-08-10_15h59.54.769,lexical_decision_task_MP,2020.1.3,Win32,60,,m,1,0.96941,,,,,,,,0.96941,1,,,,,,107,WORD,"ID",33,slogan,SLOGAN,m,,,,,,0.005208333,-0.401041667,0,0,0,,0,103,103,46,1,
,,,,,,,,,,,,,,,,,,5ec614d37bf5d768c8564186,2020-08-10_15h59.54.769,lexical_decision_task_MP,2020.1.3,Win32,60,,m,1,0.95131,,,,,,,,0.95131,1,,,,,,218,WORD,UN,33,bucket,SHRINK,m,,,,,,0.005208333,-0.401041667,0,0,0,,0,104,104,157,1,
,,,,,,,,,,,,,,,,,,5ec614d37bf5d768c8564186,2020-08-10_15h59.54.769,lexical_decision_task_MP,2020.1.3,Win32,60,,z,1,1.07327,,,,,,,,1.07327,1,,,,,,372,NW,"ID",50,ramily,RAMILY,z,,,,,,0.005208333,-0.401041667,0,0,0,,0,105,105,311,1,
,,,,,,,,,,,,,,,,,,5ec614d37bf5d768c8564186,2020-08-10_15h59.54.769,lexical_decision_task_MP,2020.1.3,Win32,60,,m,1,0.69875,,,,,,,,0.69875,1,,,,,,157,WORD,"ID",50,dragon,DRAGON,m,,,,,,0.005208333,-0.401041667,0,0,0,,0,106,106,96,1,
,,,,,,,,,,,,,,,,,,5ec614d37bf5d768c8564186,2020-08-10_15h59.54.769,lexical_decision_task_MP,2020.1.3,Win32,60,,z,1,0.851665,,,,,,,,0.851665,1,,,,,,334,NW,"ID",33,watmeg,WATMEG,z,,,,,,0.005208333,-0.401041667,0,0,0,,0,107,107,273,1,
,,,,,,,,,,,,,,,,,,5ec614d37bf5d768c8564186,2020-08-10_15h59.54.769,lexical_decision_task_MP,2020.1.3,Win32,60,,z,1,1.314005,,,,,,,,1.314005,1,,,,,,283,NW,UN,50,shaple,VERALF,z,,,,,,0.005208333,-0.401041667,0,0,0,,0,108,108,462,1,
,,,,,,,,,,,,,,,,,,5ec614d37bf5d768c8564186,2020-08-10_15h59.54.769,lexical_decision_task_MP,2020.1.3,Win32,60,,z,1,0.78492,,,,,,,,0.78492,1,,,,,,393,NW,"ID",50,ganous,GANOUS,z,,,,,,0.005208333,-0.401041667,0,0,0,,0,109,109,332,1,
,,,,,,,,,,,,,,,,,,5ec614d37bf5d768c8564186,2020-08-10_15h59.54.769,lexical_decision_task_MP,2020.1.3,Win32,60,,z,1,0.910495,,,,,,,,0.910495,1,,,,,,357,NW,"ID",33,derain,DERAIN,z,,,,,,0.005208333,-0.401041667,0,0,0,,0,110,110,296,1,
,,,,,,,,,,,,,,,,,,5ec614d37bf5d768c8564186,2020-08-10_15h59.54.769,lexical_decision_task_MP,2020.1.3,Win32,60,,m,1,0.98421,,,,,,,,0.98421,1,,,,,,212,WORD,UN,33,squeal,VERIFY,m,,,,,,0.005208333,-0.401041667,0,0,0,,0,111,111,151,1,
,,,,,,,,,,,,,,,,,,5ec614d37bf5d768c8564186,2020-08-10_15h59.54.769,lexical_decision_task_MP,2020.1.3,Win32,60,,m,1,1.166295,,,,,,,,1.166295,1,,,,,,144,WORD,"ID",50,sponge,SPONGE,m,,,,,,0.005208333,-0.401041667,0,0,0,,0,112,112,83,1,
,,,,,,,,,,,,,,,,,,5ec614d37bf5d768c8564186,2020-08-10_15h59.54.769,lexical_decision_task_MP,2020.1.3,Win32,60,,z,1,1.01078,,,,,,,,1.01078,1,,,,,,330,NW,"ID",33,kensom,KENSOM,z,,,,,,0.005208333,-0.401041667,0,0,0,,0,113,113,269,1,
,,,,,,,,,,,,,,,,,,5ec614d37bf5d768c8564186,2020-08-10_15h59.54.769,lexical_decision_task_MP,2020.1.3,Win32,60,,z,1,0.8845,,,,,,,,0.8845,1,,,,,,455,NW,UN,33,broget,TONDLE,z,,,,,,0.005208333,-0.401041667,0,0,0,,0,114,114,394,1,
,,,,,,,,,,,,,,,,,,5ec614d37bf5d768c8564186,2020-08-10_15h59.54.769,lexical_decision_task_MP,2020.1.3,Win32,60,,z,0,1.009575,,,,,,,,1.009575,0,,,,,,161,WORD,"ID",50,pastor,PASTOR,m,,,,,,0.005208333,-0.401041667,0,0,0,,0,115,115,100,1,
,,,,,,,,,,,,,,,,,,5ec614d37bf5d768c8564186,2020-08-10_15h59.54.769,lexical_decision_task_MP,2020.1.3,Win32,60,,m,1,0.8566,,,,,,,,0.8566,1,,,,,,117,WORD,"ID",33,branch,BRANCH,m,,,,,,0.005208333,-0.401041667,0,0,0,,0,116,116,56,1,
,,,,,,,,,,,,,,,,,,5ec614d37bf5d768c8564186,2020-08-10_15h59.54.769,lexical_decision_task_MP,2020.1.3,Win32,60,,z,1,1.08991,,,,,,,,1.08991,1,,,,,,370,NW,"ID",50,sleact,SLEACT,z,,,,,,0.005208333,-0.401041667,0,0,0,,0,117,117,309,1,
,,,,,,,,,,,,,,,,,,5ec614d37bf5d768c8564186,2020-08-10_15h59.54.769,lexical_decision_task_MP,2020.1.3,Win32,60,,z,1,1.57526,,,,,,,,1.57526,1,,,,,,471,NW,UN,33,cigney,NOBEST,z,,,,,,0.005208333,-0.401041667,0,0,0,,0,118,118,410,1,
,,,,,,,,,,,,,,,,,,5ec614d37bf5d768c8564186,2020-08-10_15h59.54.769,lexical_decision_task_MP,2020.1.3,Win32,60,,m,1,0.942265,,,,,,,,0.942265,1,,,,,,220,WORD,UN,33,mascot,VOYAGE,m,,,,,,0.005208333,-0.401041667,0,0,0,,0,119,119,159,1,
,,,,,,,,,,,,,,,,,,5ec614d37bf5d768c8564186,2020-08-10_15h59.54.769,lexical_decision_task_MP,2020.1.3,Win32,60,,m,1,0.838945,,,,,,,,0.838945,1,,,,,,235,WORD,UN,33,pirate,GRUMPY,m,,,,,,0.005208333,-0.401041667,0,0,0,space,0,120,120,174,1,4.562575
,,,,,,,,,,,,,,,,,,5ec614d37bf5d768c8564186,2020-08-10_15h59.54.769,lexical_decision_task_MP,2020.1.3,Win32,60,,m,1,0.64364,,,,,,,,0.64364,1,,,,,,20,WORD,UN,50,simple,BREAST,m,,,,,,0.005208333,-0.401041667,0,0,0,,0,121,121,199,1,
,,,,,,,,,,,,,,,,,,5ec614d37bf5d768c8564186,2020-08-10_15h59.54.769,lexical_decision_task_MP,2020.1.3,Win32,60,,z,1,1.005685,,,,,,,,1.005685,1,,,,,,442,NW,UN,33,dorsex,ABOUNE,z,,,,,,0.005208333,-0.401041667,0,0,0,,0,122,122,381,1,
,,,,,,,,,,,,,,,,,,5ec614d37bf5d768c8564186,2020-08-10_15h59.54.769,lexical_decision_task_MP,2020.1.3,Win32,60,,z,1,1.36258,,,,,,,,1.36258,1,,,,,,266,NW,UN,50,pasink,VARMIT,z,,,,,,0.005208333,-0.401041667,0,0,0,,0,123,123,445,1,
,,,,,,,,,,,,,,,,,,5ec614d37bf5d768c8564186,2020-08-10_15h59.54.769,lexical_decision_task_MP,2020.1.3,Win32,60,,z,1,1.586745,,,,,,,,1.586745,1,,,,,,326,NW,"ID",33,iguade,IGUADE,z,,,,,,0.005208333,-0.401041667,0,0,0,,0,124,124,265,1,
,,,,,,,,,,,,,,,,,,5ec614d37bf5d768c8564186,2020-08-10_15h59.54.769,lexical_decision_task_MP,2020.1.3,Win32,60,,,0,,,,,,,,,1.586745,-1,,,,,,185,WORD,UN,33,portal,BOTHER,m,,,,,,0.005208333,-0.401041667,0,0,0,,0,125,125,124,1,
,,,,,,,,,,,,,,,,,,5ec614d37bf5d768c8564186,2020-08-10_15h59.54.769,lexical_decision_task_MP,2020.1.3,Win32,60,,z,1,1.037285,,,,,,,,1.037285,1,,,,,,352,NW,"ID",33,tringe,TRINGE,z,,,,,,0.005208333,-0.401041667,0,0,0,,0,126,126,291,1,
,,,,,,,,,,,,,,,,,,5ec614d37bf5d768c8564186,2020-08-10_15h59.54.769,lexical_decision_task_MP,2020.1.3,Win32,60,,m,1,0.980865,,,,,,,,0.980865,1,,,,,,60,WORD,UN,50,fright,PENCIL,m,,,,,,0.005208333,-0.401041667,0,0,0,,0,127,127,239,1,
,,,,,,,,,,,,,,,,,,5ec614d37bf5d768c8564186,2020-08-10_15h59.54.769,lexical_decision_task_MP,2020.1.3,Win32,60,,z,1,0.969255,,,,,,,,0.969255,1,,,,,,429,NW,UN,33,caroey,FUNTLE,z,,,,,,0.005208333,-0.401041667,0,0,0,,0,128,128,368,1,
,,,,,,,,,,,,,,,,,,5ec614d37bf5d768c8564186,2020-08-10_15h59.54.769,lexical_decision_task_MP,2020.1.3,Win32,60,,,0,,,,,,,,,0.969255,-1,,,,,,320,NW,"ID",33,jockal,JOCKAL,z,,,,,,0.005208333,-0.401041667,0,0,0,,0,129,129,259,1,
,,,,,,,,,,,,,,,,,,5ec614d37bf5d768c8564186,2020-08-10_15h59.54.769,lexical_decision_task_MP,2020.1.3,Win32,60,,m,1,0.900325,,,,,,,,0.900325,1,,,,,,75,WORD,"ID",33,trophy,TROPHY,m,,,,,,0.005208333,-0.401041667,0,0,0,,0,130,130,14,1,
,,,,,,,,,,,,,,,,,,5ec614d37bf5d768c8564186,2020-08-10_15h59.54.769,lexical_decision_task_MP,2020.1.3,Win32,60,,m,1,1.2509,,,,,,,,1.2509,1,,,,,,19,WORD,UN,50,breast,PATRON,m,,,,,,0.005208333,-0.401041667,0,0,0,,0,131,131,198,1,
,,,,,,,,,,,,,,,,,,5ec614d37bf5d768c8564186,2020-08-10_15h59.54.769,lexical_decision_task_MP,2020.1.3,Win32,60,,z,1,1.10137,,,,,,,,1.10137,1,,,,,,340,NW,"ID",33,fiatch,FIATCH,z,,,,,,0.005208333,-0.401041667,0,0,0,,0,132,132,279,1,
,,,,,,,,,,,,,,,,,,5ec614d37bf5d768c8564186,2020-08-10_15h59.54.769,lexical_decision_task_MP,2020.1.3,Win32,60,,,0,,,,,,,,,1.10137,-1,,,,,,317,NW,"ID",33,worbal,WORBAL,z,,,,,,0.005208333,-0.401041667,0,0,0,,0,133,133,256,1,
,,,,,,,,,,,,,,,,,,5ec614d37bf5d768c8564186,2020-08-10_15h59.54.769,lexical_decision_task_MP,2020.1.3,Win32,60,,m,1,1.02964,,,,,,,,1.02964,1,,,,,,3,WORD,UN,50,trench,KNIGHT,m,,,,,,0.005208333,-0.401041667,0,0,0,,0,134,134,182,1,
,,,,,,,,,,,,,,,,,,5ec614d37bf5d768c8564186,2020-08-10_15h59.54.769,lexical_decision_task_MP,2020.1.3,Win32,60,,z,1,1.56418,,,,,,,,1.56418,1,,,,,,381,NW,"ID",50,huniek,HUNIEK,z,,,,,,0.005208333,-0.401041667,0,0,0,,0,135,135,320,1,
,,,,,,,,,,,,,,,,,,5ec614d37bf5d768c8564186,2020-08-10_15h59.54.769,lexical_decision_task_MP,2020.1.3,Win32,60,,z,1,1.301405,,,,,,,,1.301405,1,,,,,,428,NW,UN,33,funtle,TANDLY,z,,,,,,0.005208333,-0.401041667,0,0,0,,0,136,136,367,1,
,,,,,,,,,,,,,,,,,,5ec614d37bf5d768c8564186,2020-08-10_15h59.54.769,lexical_decision_task_MP,2020.1.3,Win32,60,,z,1,1.63812,,,,,,,,1.63812,1,,,,,,441,NW,UN,33,aboune,RASTOE,z,,,,,,0.005208333,-0.401041667,0,0,0,,0,137,137,380,1,
,,,,,,,,,,,,,,,,,,5ec614d37bf5d768c8564186,2020-08-10_15h59.54.769,lexical_decision_task_MP,2020.1.3,Win32,60,,,0,,,,,,,,,1.63812,-1,,,,,,16,WORD,UN,50,charge,FAUCET,m,,,,,,0.005208333,-0.401041667,0,0,0,,0,138,138,195,1,
,,,,,,,,,,,,,,,,,,5ec614d37bf5d768c8564186,2020-08-10_15h59.54.769,lexical_decision_task_MP,2020.1.3,Win32,60,,z,1,1.11496,,,,,,,,1.11496,1,,,,,,401,NW,"ID",50,mustil,MUSTIL,z,,,,,,0.005208333,-0.401041667,0,0,0,,0,139,139,340,1,
,,,,,,,,,,,,,,,,,,5ec614d37bf5d768c8564186,2020-08-10_15h59.54.769,lexical_decision_task_MP,2020.1.3,Win32,60,,m,1,1.382175,,,,,,,,1.382175,1,,,,,,231,WORD,UN,33,inject,EXPORT,m,,,,,,0.005208333,-0.401041667,0,0,0,,0,140,140,170,1,
,,,,,,,,,,,,,,,,,,5ec614d37bf5d768c8564186,2020-08-10_15h59.54.769,lexical_decision_task_MP,2020.1.3,Win32,60,,z,1,1.30294,,,,,,,,1.30294,1,,,,,,336,NW,"ID",33,ghodus,GHODUS,z,,,,,,0.005208333,-0.401041667,0,0,0,,0,141,141,275,1,
,,,,,,,,,,,,,,,,,,5ec614d37bf5d768c8564186,2020-08-10_15h59.54.769,lexical_decision_task_MP,2020.1.3,Win32,60,,,0,,,,,,,,,1.30294,-1,,,,,,422,NW,UN,33,streld,ALCOUD,z,,,,,,0.005208333,-0.401041667,0,0,0,,0,142,142,361,1,
,,,,,,,,,,,,,,,,,,5ec614d37bf5d768c8564186,2020-08-10_15h59.54.769,lexical_decision_task_MP,2020.1.3,Win32,60,,m,1,0.736745,,,,,,,,0.736745,1,,,,,,63,WORD,"ID",33,launch,LAUNCH,m,,,,,,0.005208333,-0.401041667,0,0,0,,0,143,143,2,1,
,,,,,,,,,,,,,,,,,,5ec614d37bf5d768c8564186,2020-08-10_15h59.54.769,lexical_decision_task_MP,2020.1.3,Win32,60,,z,1,0.999595,,,,,,,,0.999595,1,,,,,,273,NW,UN,50,fumblo,SORTEL,z,,,,,,0.005208333,-0.401041667,0,0,0,,0,144,144,452,1,
,,,,,,,,,,,,,,,,,,5ec614d37bf5d768c8564186,2020-08-10_15h59.54.769,lexical_decision_task_MP,2020.1.3,Win32,60,,m,1,0.7795,,,,,,,,0.7795,1,,,,,,81,WORD,"ID",33,friend,FRIEND,m,,,,,,0.005208333,-0.401041667,0,0,0,,0,145,145,20,1,
,,,,,,,,,,,,,,,,,,5ec614d37bf5d768c8564186,2020-08-10_15h59.54.769,lexical_decision_task_MP,2020.1.3,Win32,60,,m,1,0.759655,,,,,,,,0.759655,1,,,,,,32,WORD,UN,50,scream,BUCKLE,m,,,,,,0.005208333,-0.401041667,0,0,0,,0,146,146,211,1,
,,,,,,,,,,,,,,,,,,5ec614d37bf5d768c8564186,2020-08-10_15h59.54.769,lexical_decision_task_MP,2020.1.3,Win32,60,,m,1,0.849225,,,,,,,,0.849225,1,,,,,,105,WORD,"ID",33,number,NUMBER,m,,,,,,0.005208333,-0.401041667,0,0,0,,0,147,147,44,1,
,,,,,,,,,,,,,,,,,,5ec614d37bf5d768c8564186,2020-08-10_15h59.54.769,lexical_decision_task_MP,2020.1.3,Win32,60,,m,1,0.789,,,,,,,,0.789,1,,,,,,133,WORD,"ID",50,chrome,CHROME,m,,,,,,0.005208333,-0.401041667,0,0,0,,0,148,148,72,1,
,,,,,,,,,,,,,,,,,,5ec614d37bf5d768c8564186,2020-08-10_15h59.54.769,lexical_decision_task_MP,2020.1.3,Win32,60,,m,1,0.851375,,,,,,,,0.851375,1,,,,,,38,WORD,UN,50,insect,POWDER,m,,,,,,0.005208333,-0.401041667,0,0,0,,0,149,149,217,1,
,,,,,,,,,,,,,,,,,,5ec614d37bf5d768c8564186,2020-08-10_15h59.54.769,lexical_decision_task_MP,2020.1.3,Win32,60,,z,1,1.004665,,,,,,,,1.004665,1,,,,,,398,NW,"ID",50,blunde,BLUNDE,z,,,,,,0.005208333,-0.401041667,0,0,0,,0,150,150,337,1,
,,,,,,,,,,,,,,,,,,5ec614d37bf5d768c8564186,2020-08-10_15h59.54.769,lexical_decision_task_MP,2020.1.3,Win32,60,,z,1,0.903185,,,,,,,,0.903185,1,,,,,,259,NW,UN,50,unject,SOUDAL,z,,,,,,0.005208333,-0.401041667,0,0,0,,0,151,151,438,1,
,,,,,,,,,,,,,,,,,,5ec614d37bf5d768c8564186,2020-08-10_15h59.54.769,lexical_decision_task_MP,2020.1.3,Win32,60,,z,1,0.727965,,,,,,,,0.727965,1,,,,,,257,NW,UN,50,poluth,VENIOD,z,,,,,,0.005208333,-0.401041667,0,0,0,,0,152,152,436,1,
,,,,,,,,,,,,,,,,,,5ec614d37bf5d768c8564186,2020-08-10_15h59.54.769,lexical_decision_task_MP,2020.1.3,Win32,60,,z,1,0.661145,,,,,,,,0.661145,1,,,,,,279,NW,UN,50,curbol,CELOND,z,,,,,,0.005208333,-0.401041667,0,0,0,,0,153,153,458,1,
,,,,,,,,,,,,,,,,,,5ec614d37bf5d768c8564186,2020-08-10_15h59.54.769,lexical_decision_task_MP,2020.1.3,Win32,60,,m,1,0.90323,,,,,,,,0.90323,1,,,,,,10,WORD,UN,50,cruise,ETHNIC,m,,,,,,0.005208333,-0.401041667,0,0,0,,0,154,154,189,1,
,,,,,,,,,,,,,,,,,,5ec614d37bf5d768c8564186,2020-08-10_15h59.54.769,lexical_decision_task_MP,2020.1.3,Win32,60,,m,1,0.849275,,,,,,,,0.849275,1,,,,,,208,WORD,UN,33,search,HOCKEY,m,,,,,,0.005208333,-0.401041667,0,0,0,,0,155,155,147,1,
,,,,,,,,,,,,,,,,,,5ec614d37bf5d768c8564186,2020-08-10_15h59.54.769,lexical_decision_task_MP,2020.1.3,Win32,60,,z,1,0.868935,,,,,,,,0.868935,1,,,,,,261,NW,UN,50,quilew,STUNCH,z,,,,,,0.005208333,-0.401041667,0,0,0,,0,156,156,440,1,
,,,,,,,,,,,,,,,,,,5ec614d37bf5d768c8564186,2020-08-10_15h59.54.769,lexical_decision_task_MP,2020.1.3,Win32,60,,m,1,0.85118,,,,,,,,0.85118,1,,,,,,168,WORD,"ID",50,answer,ANSWER,m,,,,,,0.005208333,-0.401041667,0,0,0,,0,157,157,107,1,
,,,,,,,,,,,,,,,,,,5ec614d37bf5d768c8564186,2020-08-10_15h59.54.769,lexical_decision_task_MP,2020.1.3,Win32,60,,m,1,0.844445,,,,,,,,0.844445,1,,,,,,201,WORD,UN,33,factor,ADMIRE,m,,,,,,0.005208333,-0.401041667,0,0,0,,0,158,158,140,1,
,,,,,,,,,,,,,,,,,,5ec614d37bf5d768c8564186,2020-08-10_15h59.54.769,lexical_decision_task_MP,2020.1.3,Win32,60,,m,1,0.642545,,,,,,,,0.642545,1,,,,,,191,WORD,UN,33,beacon,STABLE,m,,,,,,0.005208333,-0.401041667,0,0,0,,0,159,159,130,1,
,,,,,,,,,,,,,,,,,,5ec614d37bf5d768c8564186,2020-08-10_15h59.54.769,lexical_decision_task_MP,2020.1.3,Win32,60,,z,1,0.88813,,,,,,,,0.88813,1,,,,,,439,NW,UN,33,saride,LIMPOR,z,,,,,,0.005208333,-0.401041667,0,0,0,,0,160,160,378,1,
,,,,,,,,,,,,,,,,,,5ec614d37bf5d768c8564186,2020-08-10_15h59.54.769,lexical_decision_task_MP,2020.1.3,Win32,60,,z,1,0.880595,,,,,,,,0.880595,1,,,,,,462,NW,UN,33,kispel,ABSULT,z,,,,,,0.005208333,-0.401041667,0,0,0,,0,161,161,401,1,
,,,,,,,,,,,,,,,,,,5ec614d37bf5d768c8564186,2020-08-10_15h59.54.769,lexical_decision_task_MP,2020.1.3,Win32,60,,z,1,0.795685,,,,,,,,0.795685,1,,,,,,308,NW,"ID",33,psetch,PSETCH,z,,,,,,0.005208333,-0.401041667,0,0,0,,0,162,162,247,1,
,,,,,,,,,,,,,,,,,,5ec614d37bf5d768c8564186,2020-08-10_15h59.54.769,lexical_decision_task_MP,2020.1.3,Win32,60,,z,1,1.06353,,,,,,,,1.06353,1,,,,,,267,NW,UN,50,packes,PASINK,z,,,,,,0.005208333,-0.401041667,0,0,0,,0,163,163,446,1,
,,,,,,,,,,,,,,,,,,5ec614d37bf5d768c8564186,2020-08-10_15h59.54.769,lexical_decision_task_MP,2020.1.3,Win32,60,,z,1,0.800335,,,,,,,,0.800335,1,,,,,,396,NW,"ID",50,flengy,FLENGY,z,,,,,,0.005208333,-0.401041667,0,0,0,,0,164,164,335,1,
,,,,,,,,,,,,,,,,,,5ec614d37bf5d768c8564186,2020-08-10_15h59.54.769,lexical_decision_task_MP,2020.1.3,Win32,60,,m,1,0.96395,,,,,,,,0.96395,1,,,,,,73,WORD,"ID",33,source,SOURCE,m,,,,,,0.005208333,-0.401041667,0,0,0,,0,165,165,12,1,
,,,,,,,,,,,,,,,,,,5ec614d37bf5d768c8564186,2020-08-10_15h59.54.769,lexical_decision_task_MP,2020.1.3,Win32,60,,z,1,0.942105,,,,,,,,0.942105,1,,,,,,480,NW,UN,33,knisma,ROBULY,z,,,,,,0.005208333,-0.401041667,0,0,0,,0,166,166,419,1,
,,,,,,,,,,,,,,,,,,5ec614d37bf5d768c8564186,2020-08-10_15h59.54.769,lexical_decision_task_MP,2020.1.3,Win32,60,,m,1,0.784665,,,,,,,,0.784665,1,,,,,,79,WORD,"ID",33,theory,THEORY,m,,,,,,0.005208333,-0.401041667,0,0,0,,0,167,167,18,1,
,,,,,,,,,,,,,,,,,,5ec614d37bf5d768c8564186,2020-08-10_15h59.54.769,lexical_decision_task_MP,2020.1.3,Win32,60,,m,1,0.95169,,,,,,,,0.95169,1,,,,,,215,WORD,UN,33,lumber,PHOBIA,m,,,,,,0.005208333,-0.401041667,0,0,0,,0,168,168,154,1,
,,,,,,,,,,,,,,,,,,5ec614d37bf5d768c8564186,2020-08-10_15h59.54.769,lexical_decision_task_MP,2020.1.3,Win32,60,,m,1,0.758265,,,,,,,,0.758265,1,,,,,,163,WORD,"ID",50,string,STRING,m,,,,,,0.005208333,-0.401041667,0,0,0,,0,169,169,102,1,
,,,,,,,,,,,,,,,,,,5ec614d37bf5d768c8564186,2020-08-10_15h59.54.769,lexical_decision_task_MP,2020.1.3,Win32,60,,z,1,0.76969,,,,,,,,0.76969,1,,,,,,288,NW,UN,50,starby,YACEUP,z,,,,,,0.005208333,-0.401041667,0,0,0,,0,170,170,467,1,
,,,,,,,,,,,,,,,,,,5ec614d37bf5d768c8564186,2020-08-10_15h59.54.769,lexical_decision_task_MP,2020.1.3,Win32,60,,z,1,0.800715,,,,,,,,0.800715,1,,,,,,354,NW,"ID",33,virlex,VIRLEX,z,,,,,,0.005208333,-0.401041667,0,0,0,,0,171,171,293,1,
,,,,,,,,,,,,,,,,,,5ec614d37bf5d768c8564186,2020-08-10_15h59.54.769,lexical_decision_task_MP,2020.1.3,Win32,60,,z,1,0.723405,,,,,,,,0.723405,1,,,,,,355,NW,"ID",33,zingly,ZINGLY,z,,,,,,0.005208333,-0.401041667,0,0,0,,0,172,172,294,1,
,,,,,,,,,,,,,,,,,,5ec614d37bf5d768c8564186,2020-08-10_15h59.54.769,lexical_decision_task_MP,2020.1.3,Win32,60,,m,1,0.80453,,,,,,,,0.80453,1,,,,,,90,WORD,"ID",33,relish,RELISH,m,,,,,,0.005208333,-0.401041667,0,0,0,,0,173,173,29,1,
,,,,,,,,,,,,,,,,,,5ec614d37bf5d768c8564186,2020-08-10_15h59.54.769,lexical_decision_task_MP,2020.1.3,Win32,60,,z,1,1.16279,,,,,,,,1.16279,1,,,,,,417,NW,"ID",50,earoud,EAROUD,z,,,,,,0.005208333,-0.401041667,0,0,0,,0,174,174,356,1,
,,,,,,,,,,,,,,,,,,5ec614d37bf5d768c8564186,2020-08-10_15h59.54.769,lexical_decision_task_MP,2020.1.3,Win32,60,,z,1,1.275495,,,,,,,,1.275495,1,,,,,,362,NW,"ID",50,tireau,TIREAU,z,,,,,,0.005208333,-0.401041667,0,0,0,,0,175,175,301,1,
,,,,,,,,,,,,,,,,,,5ec614d37bf5d768c8564186,2020-08-10_15h59.54.769,lexical_decision_task_MP,2020.1.3,Win32,60,,z,1,0.86281,,,,,,,,0.86281,1,,,,,,298,NW,UN,50,sturch,PIERGY,z,,,,,,0.005208333,-0.401041667,0,0,0,,0,176,176,477,1,
,,,,,,,,,,,,,,,,,,5ec614d37bf5d768c8564186,2020-08-10_15h59.54.769,lexical_decision_task_MP,2020.1.3,Win32,60,,z,1,0.712015,,,,,,,,0.712015,1,,,,,,459,NW,UN,33,mingar,BAFENT,z,,,,,,0.005208333,-0.401041667,0,0,0,,0,177,177,398,1,
,,,,,,,,,,,,,,,,,,5ec614d37bf5d768c8564186,2020-08-10_15h59.54.769,lexical_decision_task_MP,2020.1.3,Win32,60,,m,1,0.711205,,,,,,,,0.711205,1,,,,,,102,WORD,"ID",33,direct,DIRECT,m,,,,,,0.005208333,-0.401041667,0,0,0,,0,178,178,41,1,
,,,,,,,,,,,,,,,,,,5ec614d37bf5d768c8564186,2020-08-10_15h59.54.769,lexical_decision_task_MP,2020.1.3,Win32,60,,m,0,1.084055,,,,,,,,1.084055,0,,,,,,414,NW,"ID",50,serbol,SERBOL,z,,,,,,0.005208333,-0.401041667,0,0,0,,0,179,179,353,1,
,,,,,,,,,,,,,,,,,,5ec614d37bf5d768c8564186,2020-08-10_15h59.54.769,lexical_decision_task_MP,2020.1.3,Win32,60,,m,1,0.86415,,,,,,,,0.86415,1,,,,,,223,WORD,UN,33,period,KIDNEY,m,,,,,,0.005208333,-0.401041667,0,0,0,,0,180,180,162,1,
,,,,,,,,,,,,,,,,,,5ec614d37bf5d768c8564186,2020-08-10_15h59.54.769,lexical_decision_task_MP,2020.1.3,Win32,60,,m,1,0.73358,,,,,,,,0.73358,1,,,,,,33,WORD,UN,50,jungle,BUTLER,m,,,,,,0.005208333,-0.401041667,0,0,0,,0,181,181,212,1,
,,,,,,,,,,,,,,,,,,5ec614d37bf5d768c8564186,2020-08-10_15h59.54.769,lexical_decision_task_MP,2020.1.3,Win32,60,,m,1,0.717185,,,,,,,,0.717185,1,,,,,,56,WORD,UN,50,change,AMBUSH,m,,,,,,0.005208333,-0.401041667,0,0,0,,0,182,182,235,1,
,,,,,,,,,,,,,,,,,,5ec614d37bf5d768c8564186,2020-08-10_15h59.54.769,lexical_decision_task_MP,2020.1.3,Win32,60,,m,1,0.71226,,,,,,,,0.71226,1,,,,,,135,WORD,"ID",50,import,IMPORT,m,,,,,,0.005208333,-0.401041667,0,0,0,,0,183,183,74,1,
,,,,,,,,,,,,,,,,,,5ec614d37bf5d768c8564186,2020-08-10_15h59.54.769,lexical_decision_task_MP,2020.1.3,Win32,60,,z,1,0.946955,,,,,,,,0.946955,1,,,,,,431,NW,UN,33,lunker,CHRUMS,z,,,,,,0.005208333,-0.401041667,0,0,0,,0,184,184,370,1,
,,,,,,,,,,,,,,,,,,5ec614d37bf5d768c8564186,2020-08-10_15h59.54.769,lexical_decision_task_MP,2020.1.3,Win32,60,,m,0,1.598745,,,,,,,,1.598745,0,,,,,,448,NW,UN,33,brunge,SADENT,z,,,,,,0.005208333,-0.401041667,0,0,0,,0,185,185,387,1,
,,,,,,,,,,,,,,,,,,5ec614d37bf5d768c8564186,2020-08-10_15h59.54.769,lexical_decision_task_MP,2020.1.3,Win32,60,,m,0,1.20752,,,,,,,,1.20752,0,,,,,,345,NW,"ID",33,absend,ABSEND,z,,,,,,0.005208333,-0.401041667,0,0,0,,0,186,186,284,1,
,,,,,,,,,,,,,,,,,,5ec614d37bf5d768c8564186,2020-08-10_15h59.54.769,lexical_decision_task_MP,2020.1.3,Win32,60,,z,0,0.77281,,,,,,,,0.77281,0,,,,,,44,WORD,UN,50,clergy,DANGER,m,,,,,,0.005208333,-0.401041667,0,0,0,,0,187,187,223,1,
,,,,,,,,,,,,,,,,,,5ec614d37bf5d768c8564186,2020-08-10_15h59.54.769,lexical_decision_task_MP,2020.1.3,Win32,60,,m,1,0.71459,,,,,,,,0.71459,1,,,,,,193,WORD,UN,33,mildew,OBJECT,m,,,,,,0.005208333,-0.401041667,0,0,0,,0,188,188,132,1,
,,,,,,,,,,,,,,,,,,5ec614d37bf5d768c8564186,2020-08-10_15h59.54.769,lexical_decision_task_MP,2020.1.3,Win32,60,,z,1,1.355165,,,,,,,,1.355165,1,,,,,,358,NW,"ID",33,fleack,FLEACK,z,,,,,,0.005208333,-0.401041667,0,0,0,,0,189,189,297,1,
,,,,,,,,,,,,,,,,,,5ec614d37bf5d768c8564186,2020-08-10_15h59.54.769,lexical_decision_task_MP,2020.1.3,Win32,60,,m,1,0.862605,,,,,,,,0.862605,1,,,,,,51,WORD,UN,50,impose,HUNGRY,m,,,,,,0.005208333,-0.401041667,0,0,0,,0,190,190,230,1,
,,,,,,,,,,,,,,,,,,5ec614d37bf5d768c8564186,2020-08-10_15h59.54.769,lexical_decision_task_MP,2020.1.3,Win32,60,,m,1,0.719265,,,,,,,,0.719265,1,,,,,,118,WORD,"ID",33,flight,FLIGHT,m,,,,,,0.005208333,-0.401041667,0,0,0,,0,191,191,57,1,
,,,,,,,,,,,,,,,,,,5ec614d37bf5d768c8564186,2020-08-10_15h59.54.769,lexical_decision_task_MP,2020.1.3,Win32,60,,z,1,0.76658,,,,,,,,0.76658,1,,,,,,328,NW,"ID",33,broake,BROAKE,z,,,,,,0.005208333,-0.401041667,0,0,0,,0,192,192,267,1,
,,,,,,,,,,,,,,,,,,5ec614d37bf5d768c8564186,2020-08-10_15h59.54.769,lexical_decision_task_MP,2020.1.3,Win32,60,,z,1,0.99744,,,,,,,,0.99744,1,,,,,,413,NW,"ID",50,equats,EQUATS,z,,,,,,0.005208333,-0.401041667,0,0,0,,0,193,193,352,1,
,,,,,,,,,,,,,,,,,,5ec614d37bf5d768c8564186,2020-08-10_15h59.54.769,lexical_decision_task_MP,2020.1.3,Win32,60,,m,1,0.81617,,,,,,,,0.81617,1,,,,,,65,WORD,"ID",33,symbol,SYMBOL,m,,,,,,0.005208333,-0.401041667,0,0,0,,0,194,194,4,1,
,,,,,,,,,,,,,,,,,,5ec614d37bf5d768c8564186,2020-08-10_15h59.54.769,lexical_decision_task_MP,2020.1.3,Win32,60,,z,1,1.10654,,,,,,,,1.10654,1,,,,,,438,NW,UN,33,limpor,BAITCH,z,,,,,,0.005208333,-0.401041667,0,0,0,,0,195,195,377,1,
,,,,,,,,,,,,,,,,,,5ec614d37bf5d768c8564186,2020-08-10_15h59.54.769,lexical_decision_task_MP,2020.1.3,Win32,60,,m,0,0.882705,,,,,,,,0.882705,0,,,,,,394,NW,"ID",50,spaqux,SPAQUX,z,,,,,,0.005208333,-0.401041667,0,0,0,,0,196,196,333,1,
,,,,,,,,,,,,,,,,,,5ec614d37bf5d768c8564186,2020-08-10_15h59.54.769,lexical_decision_task_MP,2020.1.3,Win32,60,,m,0,0.84035,,,,,,,,0.84035,0,,,,,,445,NW,UN,33,runamo,MINKEL,z,,,,,,0.005208333,-0.401041667,0,0,0,,0,197,197,384,1,
,,,,,,,,,,,,,,,,,,5ec614d37bf5d768c8564186,2020-08-10_15h59.54.769,lexical_decision_task_MP,2020.1.3,Win32,60,,z,1,1.05618,,,,,,,,1.05618,1,,,,,,416,NW,"ID",50,pathel,PATHEL,z,,,,,,0.005208333,-0.401041667,0,0,0,,0,198,198,355,1,
,,,,,,,,,,,,,,,,,,5ec614d37bf5d768c8564186,2020-08-10_15h59.54.769,lexical_decision_task_MP,2020.1.3,Win32,60,,z,1,1.48461,,,,,,,,1.48461,1,,,,,,457,NW,UN,33,barcet,WANIGH,z,,,,,,0.005208333,-0.401041667,0,0,0,,0,199,199,396,1,
,,,,,,,,,,,,,,,,,,5ec614d37bf5d768c8564186,2020-08-10_15h59.54.769,lexical_decision_task_MP,2020.1.3,Win32,60,,m,0,0.84406,,,,,,,,0.84406,0,,,,,,303,NW,"ID",33,fiream,FIREAM,z,,,,,,0.005208333,-0.401041667,0,0,0,,0,200,200,242,1,
,,,,,,,,,,,,,,,,,,5ec614d37bf5d768c8564186,2020-08-10_15h59.54.769,lexical_decision_task_MP,2020.1.3,Win32,60,,z,1,1.157315,,,,,,,,1.157315,1,,,,,,265,NW,UN,50,varmit,DISTAR,z,,,,,,0.005208333,-0.401041667,0,0,0,,0,201,201,444,1,
,,,,,,,,,,,,,,,,,,5ec614d37bf5d768c8564186,2020-08-10_15h59.54.769,lexical_decision_task_MP,2020.1.3,Win32,60,,z,1,0.844185,,,,,,,,0.844185,1,,,,,,290,NW,UN,50,pretch,SPLINO,z,,,,,,0.005208333,-0.401041667,0,0,0,,0,202,202,469,1,
,,,,,,,,,,,,,,,,,,5ec614d37bf5d768c8564186,2020-08-10_15h59.54.769,lexical_decision_task_MP,2020.1.3,Win32,60,,m,1,0.84039,,,,,,,,0.84039,1,,,,,,146,WORD,"ID",50,couple,COUPLE,m,,,,,,0.005208333,-0.401041667,0,0,0,,0,203,203,85,1,
,,,,,,,,,,,,,,,,,,5ec614d37bf5d768c8564186,2020-08-10_15h59.54.769,lexical_decision_task_MP,2020.1.3,Win32,60,,m,1,0.748785,,,,,,,,0.748785,1,,,,,,174,WORD,"ID",50,turkey,TURKEY,m,,,,,,0.005208333,-0.401041667,0,0,0,,0,204,204,113,1,
,,,,,,,,,,,,,,,,,,5ec614d37bf5d768c8564186,2020-08-10_15h59.54.769,lexical_decision_task_MP,2020.1.3,Win32,60,,m,1,1.09017,,,,,,,,1.09017,1,,,,,,76,WORD,"ID",33,exotic,EXOTIC,m,,,,,,0.005208333,-0.401041667,0,0,0,,0,205,205,15,1,
,,,,,,,,,,,,,,,,,,5ec614d37bf5d768c8564186,2020-08-10_15h59.54.769,lexical_decision_task_MP,2020.1.3,Win32,60,,m,1,0.661645,,,,,,,,0.661645,1,,,,,,48,WORD,UN,50,survey,WALNUT,m,,,,,,0.005208333,-0.401041667,0,0,0,,0,206,206,227,1,
,,,,,,,,,,,,,,,,,,5ec614d37bf5d768c8564186,2020-08-10_15h59.54.769,lexical_decision_task_MP,2020.1.3,Win32,60,,z,1,0.806865,,,,,,,,0.806865,1,,,,,,415,NW,"ID",50,higsta,HIGSTA,z,,,,,,0.005208333,-0.401041667,0,0,0,,0,207,207,354,1,
,,,,,,,,,,,,,,,,,,5ec614d37bf5d768c8564186,2020-08-10_15h59.54.769,lexical_decision_task_MP,2020.1.3,Win32,60,,z,1,0.77444,,,,,,,,0.77444,1,,,,,,386,NW,"ID",50,ancust,ANCUST,z,,,,,,0.005208333,-0.401041667,0,0,0,,0,208,208,325,1,
,,,,,,,,,,,,,,,,,,5ec614d37bf5d768c8564186,2020-08-10_15h59.54.769,lexical_decision_task_MP,2020.1.3,Win32,60,,z,1,0.71819,,,,,,,,0.71819,1,,,,,,469,NW,UN,33,crudio,PADIFS,z,,,,,,0.005208333,-0.401041667,0,0,0,,0,209,209,408,1,
,,,,,,,,,,,,,,,,,,5ec614d37bf5d768c8564186,2020-08-10_15h59.54.769,lexical_decision_task_MP,2020.1.3,Win32,60,,z,1,0.740355,,,,,,,,0.740355,1,,,,,,451,NW,UN,33,surden,CAINKY,z,,,,,,0.005208333,-0.401041667,0,0,0,,0,210,210,390,1,
,,,,,,,,,,,,,,,,,,5ec614d37bf5d768c8564186,2020-08-10_15h59.54.769,lexical_decision_task_MP,2020.1.3,Win32,60,,z,1,0.54925,,,,,,,,0.54925,1,,,,,,412,NW,"ID",50,jiluer,JILUER,z,,,,,,0.005208333,-0.401041667,0,0,0,,0,211,211,351,1,
,,,,,,,,,,,,,,,,,,5ec614d37bf5d768c8564186,2020-08-10_15h59.54.769,lexical_decision_task_MP,2020.1.3,Win32,60,,m,1,0.66352,,,,,,,,0.66352,1,,,,,,194,WORD,UN,33,resign,ABSENT,m,,,,,,0.005208333,-0.401041667,0,0,0,,0,212,212,133,1,
,,,,,,,,,,,,,,,,,,5ec614d37bf5d768c8564186,2020-08-10_15h59.54.769,lexical_decision_task_MP,2020.1.3,Win32,60,,m,1,0.60485,,,,,,,,0.60485,1,,,,,,34,WORD,UN,50,socket,JUNGLE,m,,,,,,0.005208333,-0.401041667,0,0,0,,0,213,213,213,1,
,,,,,,,,,,,,,,,,,,5ec614d37bf5d768c8564186,2020-08-10_15h59.54.769,lexical_decision_task_MP,2020.1.3,Win32,60,,m,1,0.604215,,,,,,,,0.604215,1,,,,,,7,WORD,UN,50,abrupt,ANCHOR,m,,,,,,0.005208333,-0.401041667,0,0,0,,0,214,214,186,1,
,,,,,,,,,,,,,,,,,,5ec614d37bf5d768c8564186,2020-08-10_15h59.54.769,lexical_decision_task_MP,2020.1.3,Win32,60,,m,1,0.847345,,,,,,,,0.847345,1,,,,,,95,WORD,"ID",33,thread,THREAD,m,,,,,,0.005208333,-0.401041667,0,0,0,,0,215,215,34,1,
,,,,,,,,,,,,,,,,,,5ec614d37bf5d768c8564186,2020-08-10_15h59.54.769,lexical_decision_task_MP,2020.1.3,Win32,60,,m,1,0.66651,,,,,,,,0.66651,1,,,,,,200,WORD,UN,33,admire,BEACON,m,,,,,,0.005208333,-0.401041667,0,0,0,,0,216,216,139,1,
,,,,,,,,,,,,,,,,,,5ec614d37bf5d768c8564186,2020-08-10_15h59.54.769,lexical_decision_task_MP,2020.1.3,Win32,60,,m,1,0.53441,,,,,,,,0.53441,1,,,,,,203,WORD,UN,33,burden,PHRASE,m,,,,,,0.005208333,-0.401041667,0,0,0,,0,217,217,142,1,
,,,,,,,,,,,,,,,,,,5ec614d37bf5d768c8564186,2020-08-10_15h59.54.769,lexical_decision_task_MP,2020.1.3,Win32,60,,m,1,0.672065,,,,,,,,0.672065,1,,,,,,119,WORD,"ID",33,spider,SPIDER,m,,,,,,0.005208333,-0.401041667,0,0,0,,0,218,218,58,1,
,,,,,,,,,,,,,,,,,,5ec614d37bf5d768c8564186,2020-08-10_15h59.54.769,lexical_decision_task_MP,2020.1.3,Win32,60,,z,1,0.65979,,,,,,,,0.65979,1,,,,,,385,NW,"ID",50,veigma,VEIGMA,z,,,,,,0.005208333,-0.401041667,0,0,0,,0,219,219,324,1,
,,,,,,,,,,,,,,,,,,5ec614d37bf5d768c8564186,2020-08-10_15h59.54.769,lexical_decision_task_MP,2020.1.3,Win32,60,,z,1,0.789625,,,,,,,,0.789625,1,,,,,,313,NW,"ID",33,paurse,PAURSE,z,,,,,,0.005208333,-0.401041667,0,0,0,,0,220,220,252,1,
,,,,,,,,,,,,,,,,,,5ec614d37bf5d768c8564186,2020-08-10_15h59.54.769,lexical_decision_task_MP,2020.1.3,Win32,60,,m,1,0.719155,,,,,,,,0.719155,1,,,,,,25,WORD,UN,50,sprint,DOMAIN,m,,,,,,0.005208333,-0.401041667,0,0,0,,0,221,221,204,1,
,,,,,,,,,,,,,,,,,,5ec614d37bf5d768c8564186,2020-08-10_15h59.54.769,lexical_decision_task_MP,2020.1.3,Win32,60,,m,1,0.673515,,,,,,,,0.673515,1,,,,,,234,WORD,UN,33,poster,CLUMSY,m,,,,,,0.005208333,-0.401041667,0,0,0,,0,222,222,173,1,
,,,,,,,,,,,,,,,,,,5ec614d37bf5d768c8564186,2020-08-10_15h59.54.769,lexical_decision_task_MP,2020.1.3,Win32,60,,m,1,0.66648,,,,,,,,0.66648,1,,,,,,152,WORD,"ID",50,rocket,ROCKET,m,,,,,,0.005208333,-0.401041667,0,0,0,,0,223,223,91,1,
,,,,,,,,,,,,,,,,,,5ec614d37bf5d768c8564186,2020-08-10_15h59.54.769,lexical_decision_task_MP,2020.1.3,Win32,60,,z,1,0.801515,,,,,,,,0.801515,1,,,,,,453,NW,UN,33,scouge,BOLVIS,z,,,,,,0.005208333,-0.401041667,0,0,0,,0,224,224,392,1,
,,,,,,,,,,,,,,,,,,5ec614d37bf5d768c8564186,2020-08-10_15h59.54.769,lexical_decision_task_MP,2020.1.3,Win32,60,,m,0,0.774125,,,,,,,,0.774125,0,,,,,,335,NW,"ID",33,desion,DESION,z,,,,,,0.005208333,-0.401041667,0,0,0,,0,225,225,274,1,
,,,,,,,,,,,,,,,,,,5ec614d37bf5d768c8564186,2020-08-10_15h59.54.769,lexical_decision_task_MP,2020.1.3,Win32,60,,m,0,1.10731,,,,,,,,1.10731,0,,,,,,256,NW,UN,50,veniod,INLORS,z,,,,,,0.005208333,-0.401041667,0,0,0,,0,226,226,435,1,
,,,,,,,,,,,,,,,,,,5ec614d37bf5d768c8564186,2020-08-10_15h59.54.769,lexical_decision_task_MP,2020.1.3,Win32,60,,m,1,0.664125,,,,,,,,0.664125,1,,,,,,173,WORD,"ID",50,shower,SHOWER,m,,,,,,0.005208333,-0.401041667,0,0,0,,0,227,227,112,1,
,,,,,,,,,,,,,,,,,,5ec614d37bf5d768c8564186,2020-08-10_15h59.54.769,lexical_decision_task_MP,2020.1.3,Win32,60,,m,1,0.64909,,,,,,,,0.64909,1,,,,,,8,WORD,UN,50,hustle,ABRUPT,m,,,,,,0.005208333,-0.401041667,0,0,0,,0,228,228,187,1,
,,,,,,,,,,,,,,,,,,5ec614d37bf5d768c8564186,2020-08-10_15h59.54.769,lexical_decision_task_MP,2020.1.3,Win32,60,,z,1,0.718315,,,,,,,,0.718315,1,,,,,,444,NW,UN,33,minkel,JAUNCE,z,,,,,,0.005208333,-0.401041667,0,0,0,,0,229,229,383,1,
,,,,,,,,,,,,,,,,,,5ec614d37bf5d768c8564186,2020-08-10_15h59.54.769,lexical_decision_task_MP,2020.1.3,Win32,60,,m,1,0.541245,,,,,,,,0.541245,1,,,,,,224,WORD,UN,33,vulgar,PERIOD,m,,,,,,0.005208333,-0.401041667,0,0,0,,0,230,230,163,1,
,,,,,,,,,,,,,,,,,,5ec614d37bf5d768c8564186,2020-08-10_15h59.54.769,lexical_decision_task_MP,2020.1.3,Win32,60,,z,1,1.535895,,,,,,,,1.535895,1,,,,,,277,NW,UN,50,unighs,PETAIN,z,,,,,,0.005208333,-0.401041667,0,0,0,,0,231,231,456,1,
,,,,,,,,,,,,,,,,,,5ec614d37bf5d768c8564186,2020-08-10_15h59.54.769,lexical_decision_task_MP,2020.1.3,Win32,60,,z,1,0.720165,,,,,,,,0.720165,1,,,,,,474,NW,UN,33,acrise,HABLIN,z,,,,,,0.005208333,-0.401041667,0,0,0,,0,232,232,413,1,
,,,,,,,,,,,,,,,,,,5ec614d37bf5d768c8564186,2020-08-10_15h59.54.769,lexical_decision_task_MP,2020.1.3,Win32,60,,z,1,0.80165,,,,,,,,0.80165,1,,,,,,339,NW,"ID",33,fachow,FACHOW,z,,,,,,0.005208333,-0.401041667,0,0,0,,0,233,233,278,1,
,,,,,,,,,,,,,,,,,,5ec614d37bf5d768c8564186,2020-08-10_15h59.54.769,lexical_decision_task_MP,2020.1.3,Win32,60,,m,1,0.66493,,,,,,,,0.66493,1,,,,,,116,WORD,"ID",33,tumble,TUMBLE,m,,,,,,0.005208333,-0.401041667,0,0,0,,0,234,234,55,1,
,,,,,,,,,,,,,,,,,,5ec614d37bf5d768c8564186,2020-08-10_15h59.54.769,lexical_decision_task_MP,2020.1.3,Win32,60,,z,1,0.76623,,,,,,,,0.76623,1,,,,,,253,NW,UN,50,varosh,RESAIT,z,,,,,,0.005208333,-0.401041667,0,0,0,,0,235,235,432,1,
,,,,,,,,,,,,,,,,,,5ec614d37bf5d768c8564186,2020-08-10_15h59.54.769,lexical_decision_task_MP,2020.1.3,Win32,60,,m,1,0.79134,,,,,,,,0.79134,1,,,,,,141,WORD,"ID",50,orphan,ORPHAN,m,,,,,,0.005208333,-0.401041667,0,0,0,,0,236,236,80,1,
,,,,,,,,,,,,,,,,,,5ec614d37bf5d768c8564186,2020-08-10_15h59.54.769,lexical_decision_task_MP,2020.1.3,Win32,60,,m,1,0.5483,,,,,,,,0.5483,1,,,,,,232,WORD,UN,33,nature,INJECT,m,,,,,,0.005208333,-0.401041667,0,0,0,,0,237,237,171,1,
,,,,,,,,,,,,,,,,,,5ec614d37bf5d768c8564186,2020-08-10_15h59.54.769,lexical_decision_task_MP,2020.1.3,Win32,60,,z,1,0.73682,,,,,,,,0.73682,1,,,,,,403,NW,"ID",50,bruats,BRUATS,z,,,,,,0.005208333,-0.401041667,0,0,0,,0,238,238,342,1,
,,,,,,,,,,,,,,,,,,5ec614d37bf5d768c8564186,2020-08-10_15h59.54.769,lexical_decision_task_MP,2020.1.3,Win32,60,,m,1,0.54713,,,,,,,,0.54713,1,,,,,,9,WORD,UN,50,bridge,HUSTLE,m,,,,,,0.005208333,-0.401041667,0,0,0,,0,239,239,188,1,
,,,,,,,,,,,,,,,,,,5ec614d37bf5d768c8564186,2020-08-10_15h59.54.769,lexical_decision_task_MP,2020.1.3,Win32,60,,z,1,0.795145,,,,,,,,0.795145,1,,,,,,333,NW,"ID",33,catrie,CATRIE,z,,,,,,0.005208333,-0.401041667,0,0,0,,0,240,240,272,1,
,,,,,,,,,,,,,,,,,,5ec614d37bf5d768c8564186,2020-08-10_15h59.54.769,lexical_decision_task_MP,2020.1.3,Win32,60,,z,1,0.90178,,,,,,,,0.90178,1,,,,,,353,NW,"ID",33,clurey,CLUREY,z,,,,,,0.005208333,-0.401041667,0,0,0,space,0,241,241,292,1,2.38571
,,,,,,,,,,,,,,,,,,5ec614d37bf5d768c8564186,2020-08-10_15h59.54.769,lexical_decision_task_MP,2020.1.3,Win32,60,,m,1,0.671105,,,,,,,,0.671105,1,,,,,,156,WORD,"ID",50,cradle,CRADLE,m,,,,,,0.005208333,-0.401041667,0,0,0,,0,242,242,95,1,
,,,,,,,,,,,,,,,,,,5ec614d37bf5d768c8564186,2020-08-10_15h59.54.769,lexical_decision_task_MP,2020.1.3,Win32,60,,z,1,0.78807,,,,,,,,0.78807,1,,,,,,468,NW,UN,33,padifs,WICTOR,z,,,,,,0.005208333,-0.401041667,0,0,0,,0,243,243,407,1,
,,,,,,,,,,,,,,,,,,5ec614d37bf5d768c8564186,2020-08-10_15h59.54.769,lexical_decision_task_MP,2020.1.3,Win32,60,,m,1,0.724825,,,,,,,,0.724825,1,,,,,,167,WORD,"ID",50,design,DESIGN,m,,,,,,0.005208333,-0.401041667,0,0,0,,0,244,244,106,1,
,,,,,,,,,,,,,,,,,,5ec614d37bf5d768c8564186,2020-08-10_15h59.54.769,lexical_decision_task_MP,2020.1.3,Win32,60,,m,1,0.603185,,,,,,,,0.603185,1,,,,,,164,WORD,"ID",50,market,MARKET,m,,,,,,0.005208333,-0.401041667,0,0,0,,0,245,245,103,1,
,,,,,,,,,,,,,,,,,,5ec614d37bf5d768c8564186,2020-08-10_15h59.54.769,lexical_decision_task_MP,2020.1.3,Win32,60,,m,1,0.603975,,,,,,,,0.603975,1,,,,,,227,WORD,UN,33,master,SELDOM,m,,,,,,0.005208333,-0.401041667,0,0,0,,0,246,246,166,1,
,,,,,,,,,,,,,,,,,,5ec614d37bf5d768c8564186,2020-08-10_15h59.54.769,lexical_decision_task_MP,2020.1.3,Win32,60,,z,1,0.8952,,,,,,,,0.8952,1,,,,,,292,NW,UN,50,swance,ABLINT,z,,,,,,0.005208333,-0.401041667,0,0,0,,0,247,247,471,1,
,,,,,,,,,,,,,,,,,,5ec614d37bf5d768c8564186,2020-08-10_15h59.54.769,lexical_decision_task_MP,2020.1.3,Win32,60,,m,1,0.619795,,,,,,,,0.619795,1,,,,,,181,WORD,UN,33,winter,GLANCE,m,,,,,,0.005208333,-0.401041667,0,0,0,,0,248,248,120,1,
,,,,,,,,,,,,,,,,,,5ec614d37bf5d768c8564186,2020-08-10_15h59.54.769,lexical_decision_task_MP,2020.1.3,Win32,60,,z,1,0.655525,,,,,,,,0.655525,1,,,,,,435,NW,UN,33,frutan,IMPURB,z,,,,,,0.005208333,-0.401041667,0,0,0,,0,249,249,374,1,
,,,,,,,,,,,,,,,,,,5ec614d37bf5d768c8564186,2020-08-10_15h59.54.769,lexical_decision_task_MP,2020.1.3,Win32,60,,z,1,0.776255,,,,,,,,0.776255,1,,,,,,249,NW,UN,50,milted,BATROL,z,,,,,,0.005208333,-0.401041667,0,0,0,,0,250,250,428,1,
,,,,,,,,,,,,,,,,,,5ec614d37bf5d768c8564186,2020-08-10_15h59.54.769,lexical_decision_task_MP,2020.1.3,Win32,60,,m,1,0.619005,,,,,,,,0.619005,1,,,,,,228,WORD,UN,33,kidney,MASTER,m,,,,,,0.005208333,-0.401041667,0,0,0,,0,251,251,167,1,
,,,,,,,,,,,,,,,,,,5ec614d37bf5d768c8564186,2020-08-10_15h59.54.769,lexical_decision_task_MP,2020.1.3,Win32,60,,m,1,0.63265,,,,,,,,0.63265,1,,,,,,86,WORD,"ID",33,rodent,RODENT,m,,,,,,0.005208333,-0.401041667,0,0,0,,0,252,252,25,1,
,,,,,,,,,,,,,,,,,,5ec614d37bf5d768c8564186,2020-08-10_15h59.54.769,lexical_decision_task_MP,2020.1.3,Win32,60,,m,1,0.42558,,,,,,,,0.42558,1,,,,,,237,WORD,UN,33,glance,POSTER,m,,,,,,0.005208333,-0.401041667,0,0,0,,0,253,253,176,1,
,,,,,,,,,,,,,,,,,,5ec614d37bf5d768c8564186,2020-08-10_15h59.54.769,lexical_decision_task_MP,2020.1.3,Win32,60,,m,1,0.612675,,,,,,,,0.612675,1,,,,,,160,WORD,"ID",50,violet,VIOLET,m,,,,,,0.005208333,-0.401041667,0,0,0,,0,254,254,99,1,
,,,,,,,,,,,,,,,,,,5ec614d37bf5d768c8564186,2020-08-10_15h59.54.769,lexical_decision_task_MP,2020.1.3,Win32,60,,m,0,0.7269,,,,,,,,0.7269,0,,,,,,452,NW,UN,33,bolvis,SURDEN,z,,,,,,0.005208333,-0.401041667,0,0,0,,0,255,255,391,1,
,,,,,,,,,,,,,,,,,,5ec614d37bf5d768c8564186,2020-08-10_15h59.54.769,lexical_decision_task_MP,2020.1.3,Win32,60,,z,1,0.716915,,,,,,,,0.716915,1,,,,,,465,NW,UN,33,bafent,WHIVEX,z,,,,,,0.005208333,-0.401041667,0,0,0,,0,256,256,404,1,
,,,,,,,,,,,,,,,,,,5ec614d37bf5d768c8564186,2020-08-10_15h59.54.769,lexical_decision_task_MP,2020.1.3,Win32,60,,z,1,0.77211,,,,,,,,0.77211,1,,,,,,350,NW,"ID",33,nagurs,NAGURS,z,,,,,,0.005208333,-0.401041667,0,0,0,,0,257,257,289,1,
,,,,,,,,,,,,,,,,,,5ec614d37bf5d768c8564186,2020-08-10_15h59.54.769,lexical_decision_task_MP,2020.1.3,Win32,60,,m,1,0.78734,,,,,,,,0.78734,1,,,,,,112,WORD,"ID",33,breath,BREATH,m,,,,,,0.005208333,-0.401041667,0,0,0,,0,258,258,51,1,
,,,,,,,,,,,,,,,,,,5ec614d37bf5d768c8564186,2020-08-10_15h59.54.769,lexical_decision_task_MP,2020.1.3,Win32,60,,m,1,0.50607,,,,,,,,0.50607,1,,,,,,18,WORD,UN,50,patron,HUMBLE,m,,,,,,0.005208333,-0.401041667,0,0,0,,0,259,259,197,1,
,,,,,,,,,,,,,,,,,,5ec614d37bf5d768c8564186,2020-08-10_15h59.54.769,lexical_decision_task_MP,2020.1.3,Win32,60,,z,1,0.79623,,,,,,,,0.79623,1,,,,,,275,NW,UN,50,yarmon,SLEIRT,z,,,,,,0.005208333,-0.401041667,0,0,0,,0,260,260,454,1,
,,,,,,,,,,,,,,,,,,5ec614d37bf5d768c8564186,2020-08-10_15h59.54.769,lexical_decision_task_MP,2020.1.3,Win32,60,,m,1,0.48225,,,,,,,,0.48225,1,,,,,,142,WORD,"ID",50,spruce,SPRUCE,m,,,,,,0.005208333,-0.401041667,0,0,0,,0,261,261,81,1,
,,,,,,,,,,,,,,,,,,5ec614d37bf5d768c8564186,2020-08-10_15h59.54.769,lexical_decision_task_MP,2020.1.3,Win32,60,,z,1,0.71829,,,,,,,,0.71829,1,,,,,,388,NW,"ID",50,cragin,CRAGIN,z,,,,,,0.005208333,-0.401041667,0,0,0,,0,262,262,327,1,
,,,,,,,,,,,,,,,,,,5ec614d37bf5d768c8564186,2020-08-10_15h59.54.769,lexical_decision_task_MP,2020.1.3,Win32,60,,z,1,0.781845,,,,,,,,0.781845,1,,,,,,282,NW,UN,50,veralf,PORLEX,z,,,,,,0.005208333,-0.401041667,0,0,0,,0,263,263,461,1,
,,,,,,,,,,,,,,,,,,5ec614d37bf5d768c8564186,2020-08-10_15h59.54.769,lexical_decision_task_MP,2020.1.3,Win32,60,,z,1,0.722075,,,,,,,,0.722075,1,,,,,,349,NW,"ID",33,asylen,ASYLEN,z,,,,,,0.005208333,-0.401041667,0,0,0,,0,264,264,288,1,
,,,,,,,,,,,,,,,,,,5ec614d37bf5d768c8564186,2020-08-10_15h59.54.769,lexical_decision_task_MP,2020.1.3,Win32,60,,m,1,0.71982,,,,,,,,0.71982,1,,,,,,182,WORD,UN,33,absent,WINTER,m,,,,,,0.005208333,-0.401041667,0,0,0,,0,265,265,121,1,
,,,,,,,,,,,,,,,,,,5ec614d37bf5d768c8564186,2020-08-10_15h59.54.769,lexical_decision_task_MP,2020.1.3,Win32,60,,z,1,0.869695,,,,,,,,0.869695,1,,,,,,324,NW,"ID",33,steikh,STEIKH,z,,,,,,0.005208333,-0.401041667,0,0,0,,0,266,266,263,1,
,,,,,,,,,,,,,,,,,,5ec614d37bf5d768c8564186,2020-08-10_15h59.54.769,lexical_decision_task_MP,2020.1.3,Win32,60,,m,1,0.60041,,,,,,,,0.60041,1,,,,,,53,WORD,UN,50,ramble,POLICE,m,,,,,,0.005208333,-0.401041667,0,0,0,,0,267,267,232,1,
,,,,,,,,,,,,,,,,,,5ec614d37bf5d768c8564186,2020-08-10_15h59.54.769,lexical_decision_task_MP,2020.1.3,Win32,60,,m,1,1.04201,,,,,,,,1.04201,1,,,,,,131,WORD,"ID",50,quench,QUENCH,m,,,,,,0.005208333,-0.401041667,0,0,0,,0,268,268,70,1,
,,,,,,,,,,,,,,,,,,5ec614d37bf5d768c8564186,2020-08-10_15h59.54.769,lexical_decision_task_MP,2020.1.3,Win32,60,,m,1,0.660435,,,,,,,,0.660435,1,,,,,,74,WORD,"ID",33,plaque,PLAQUE,m,,,,,,0.005208333,-0.401041667,0,0,0,,0,269,269,13,1,
,,,,,,,,,,,,,,,,,,5ec614d37bf5d768c8564186,2020-08-10_15h59.54.769,lexical_decision_task_MP,2020.1.3,Win32,60,,m,1,0.57587,,,,,,,,0.57587,1,,,,,,46,WORD,UN,50,income,SINGLE,m,,,,,,0.005208333,-0.401041667,0,0,0,,0,270,270,225,1,
,,,,,,,,,,,,,,,,,,5ec614d37bf5d768c8564186,2020-08-10_15h59.54.769,lexical_decision_task_MP,2020.1.3,Win32,60,,z,1,0.82873,,,,,,,,0.82873,1,,,,,,242,NW,UN,50,musied,UNWERT,z,,,,,,0.005208333,-0.401041667,0,0,0,,0,271,271,421,1,
,,,,,,,,,,,,,,,,,,5ec614d37bf5d768c8564186,2020-08-10_15h59.54.769,lexical_decision_task_MP,2020.1.3,Win32,60,,z,1,0.78264,,,,,,,,0.78264,1,,,,,,270,NW,UN,50,aubrid,WRIMSY,z,,,,,,0.005208333,-0.401041667,0,0,0,,0,272,272,449,1,
,,,,,,,,,,,,,,,,,,5ec614d37bf5d768c8564186,2020-08-10_15h59.54.769,lexical_decision_task_MP,2020.1.3,Win32,60,,m,1,0.59053,,,,,,,,0.59053,1,,,,,,70,WORD,"ID",33,square,SQUARE,m,,,,,,0.005208333,-0.401041667,0,0,0,,0,273,273,9,1,
,,,,,,,,,,,,,,,,,,5ec614d37bf5d768c8564186,2020-08-10_15h59.54.769,lexical_decision_task_MP,2020.1.3,Win32,60,,m,0,0.903895,,,,,,,,0.903895,0,,,,,,323,NW,"ID",33,rosail,ROSAIL,z,,,,,,0.005208333,-0.401041667,0,0,0,,0,274,274,262,1,
,,,,,,,,,,,,,,,,,,5ec614d37bf5d768c8564186,2020-08-10_15h59.54.769,lexical_decision_task_MP,2020.1.3,Win32,60,,z,1,1.00689,,,,,,,,1.00689,1,,,,,,464,NW,UN,33,whivex,CHAITE,z,,,,,,0.005208333,-0.401041667,0,0,0,,0,275,275,403,1,
,,,,,,,,,,,,,,,,,,5ec614d37bf5d768c8564186,2020-08-10_15h59.54.769,lexical_decision_task_MP,2020.1.3,Win32,60,,m,1,0.733825,,,,,,,,0.733825,1,,,,,,158,WORD,"ID",50,island,ISLAND,m,,,,,,0.005208333,-0.401041667,0,0,0,,0,276,276,97,1,
,,,,,,,,,,,,,,,,,,5ec614d37bf5d768c8564186,2020-08-10_15h59.54.769,lexical_decision_task_MP,2020.1.3,Win32,60,,z,1,0.93308,,,,,,,,0.93308,1,,,,,,304,NW,"ID",33,cludie,CLUDIE,z,,,,,,0.005208333,-0.401041667,0,0,0,,0,277,277,243,1,
,,,,,,,,,,,,,,,,,,5ec614d37bf5d768c8564186,2020-08-10_15h59.54.769,lexical_decision_task_MP,2020.1.3,Win32,60,,m,1,0.69857,,,,,,,,0.69857,1,,,,,,211,WORD,UN,33,verify,INFECT,m,,,,,,0.005208333,-0.401041667,0,0,0,,0,278,278,150,1,
,,,,,,,,,,,,,,,,,,5ec614d37bf5d768c8564186,2020-08-10_15h59.54.769,lexical_decision_task_MP,2020.1.3,Win32,60,,m,1,0.43893,,,,,,,,0.43893,1,,,,,,162,WORD,"ID",50,candle,CANDLE,m,,,,,,0.005208333,-0.401041667,0,0,0,,0,279,279,101,1,
,,,,,,,,,,,,,,,,,,5ec614d37bf5d768c8564186,2020-08-10_15h59.54.769,lexical_decision_task_MP,2020.1.3,Win32,60,,m,1,0.54503,,,,,,,,0.54503,1,,,,,,62,WORD,"ID",33,region,REGION,m,,,,,,0.005208333,-0.401041667,0,0,0,,0,280,280,1,1,
,,,,,,,,,,,,,,,,,,5ec614d37bf5d768c8564186,2020-08-10_15h59.54.769,lexical_decision_task_MP,2020.1.3,Win32,60,,z,1,0.97734,,,,,,,,0.97734,1,,,,,,436,NW,UN,33,snapel,FRUTAN,z,,,,,,0.005208333,-0.401041667,0,0,0,,0,281,281,375,1,
,,,,,,,,,,,,,,,,,,5ec614d37bf5d768c8564186,2020-08-10_15h59.54.769,lexical_decision_task_MP,2020.1.3,Win32,60,,m,1,0.562235,,,,,,,,0.562235,1,,,,,,190,WORD,UN,33,stable,BACKUP,m,,,,,,0.005208333,-0.401041667,0,0,0,,0,282,282,129,1,
,,,,,,,,,,,,,,,,,,5ec614d37bf5d768c8564186,2020-08-10_15h59.54.769,lexical_decision_task_MP,2020.1.3,Win32,60,,m,1,0.80527,,,,,,,,0.80527,1,,,,,,230,WORD,UN,33,mother,FRINGE,m,,,,,,0.005208333,-0.401041667,0,0,0,,0,283,283,169,1,
,,,,,,,,,,,,,,,,,,5ec614d37bf5d768c8564186,2020-08-10_15h59.54.769,lexical_decision_task_MP,2020.1.3,Win32,60,,m,1,0.626185,,,,,,,,0.626185,1,,,,,,233,WORD,UN,33,clumsy,NATURE,m,,,,,,0.005208333,-0.401041667,0,0,0,,0,284,284,172,1,
,,,,,,,,,,,,,,,,,,5ec614d37bf5d768c8564186,2020-08-10_15h59.54.769,lexical_decision_task_MP,2020.1.3,Win32,60,,m,1,1.192095,,,,,,,,1.192095,1,,,,,,4,WORD,UN,50,plunge,TRENCH,m,,,,,,0.005208333,-0.401041667,0,0,0,,0,285,285,183,1,
,,,,,,,,,,,,,,,,,,5ec614d37bf5d768c8564186,2020-08-10_15h59.54.769,lexical_decision_task_MP,2020.1.3,Win32,60,,z,1,0.8762,,,,,,,,0.8762,1,,,,,,377,NW,"ID",50,injore,INJORE,z,,,,,,0.005208333,-0.401041667,0,0,0,,0,286,286,316,1,
,,,,,,,,,,,,,,,,,,5ec614d37bf5d768c8564186,2020-08-10_15h59.54.769,lexical_decision_task_MP,2020.1.3,Win32,60,,m,1,0.62893,,,,,,,,0.62893,1,,,,,,15,WORD,UN,50,faucet,AMOUNT,m,,,,,,0.005208333,-0.401041667,0,0,0,,0,287,287,194,1,
,,,,,,,,,,,,,,,,,,5ec614d37bf5d768c8564186,2020-08-10_15h59.54.769,lexical_decision_task_MP,2020.1.3,Win32,60,,m,1,0.834965,,,,,,,,0.834965,1,,,,,,229,WORD,UN,33,fringe,MOTHER,m,,,,,,0.005208333,-0.401041667,0,0,0,,0,288,288,168,1,
,,,,,,,,,,,,,,,,,,5ec614d37bf5d768c8564186,2020-08-10_15h59.54.769,lexical_decision_task_MP,2020.1.3,Win32,60,,m,0,0.48927,,,,,,,,0.48927,0,,,,,,466,NW,UN,33,robuly,HOCITE,z,,,,,,0.005208333,-0.401041667,0,0,0,,0,289,289,405,1,
,,,,,,,,,,,,,,,,,,5ec614d37bf5d768c8564186,2020-08-10_15h59.54.769,lexical_decision_task_MP,2020.1.3,Win32,60,,z,1,0.809965,,,,,,,,0.809965,1,,,,,,305,NW,"ID",33,forgle,FORGLE,z,,,,,,0.005208333,-0.401041667,0,0,0,,0,290,290,244,1,
,,,,,,,,,,,,,,,,,,5ec614d37bf5d768c8564186,2020-08-10_15h59.54.769,lexical_decision_task_MP,2020.1.3,Win32,60,,m,1,0.593825,,,,,,,,0.593825,1,,,,,,109,WORD,"ID",33,wonder,WONDER,m,,,,,,0.005208333,-0.401041667,0,0,0,,0,291,291,48,1,
,,,,,,,,,,,,,,,,,,5ec614d37bf5d768c8564186,2020-08-10_15h59.54.769,lexical_decision_task_MP,2020.1.3,Win32,60,,m,1,0.829065,,,,,,,,0.829065,1,,,,,,222,WORD,UN,33,export,HINDER,m,,,,,,0.005208333,-0.401041667,0,0,0,,0,292,292,161,1,
,,,,,,,,,,,,,,,,,,5ec614d37bf5d768c8564186,2020-08-10_15h59.54.769,lexical_decision_task_MP,2020.1.3,Win32,60,,m,1,0.737715,,,,,,,,0.737715,1,,,,,,130,WORD,"ID",50,stupid,STUPID,m,,,,,,0.005208333,-0.401041667,0,0,0,,0,293,293,69,1,
,,,,,,,,,,,,,,,,,,5ec614d37bf5d768c8564186,2020-08-10_15h59.54.769,lexical_decision_task_MP,2020.1.3,Win32,60,,m,1,0.448075,,,,,,,,0.448075,1,,,,,,179,WORD,"ID",50,basket,BASKET,m,,,,,,0.005208333,-0.401041667,0,0,0,,0,294,294,118,1,
,,,,,,,,,,,,,,,,,,5ec614d37bf5d768c8564186,2020-08-10_15h59.54.769,lexical_decision_task_MP,2020.1.3,Win32,60,,m,1,0.522225,,,,,,,,0.522225,1,,,,,,239,WORD,UN,33,forest,LUMBER,m,,,,,,0.005208333,-0.401041667,0,0,0,,0,295,295,178,1,
,,,,,,,,,,,,,,,,,,5ec614d37bf5d768c8564186,2020-08-10_15h59.54.769,lexical_decision_task_MP,2020.1.3,Win32,60,,z,1,0.674335,,,,,,,,0.674335,1,,,,,,331,NW,"ID",33,gilfew,GILFEW,z,,,,,,0.005208333,-0.401041667,0,0,0,,0,296,296,270,1,
,,,,,,,,,,,,,,,,,,5ec614d37bf5d768c8564186,2020-08-10_15h59.54.769,lexical_decision_task_MP,2020.1.3,Win32,60,,m,1,0.639035,,,,,,,,0.639035,1,,,,,,169,WORD,"ID",50,genius,GENIUS,m,,,,,,0.005208333,-0.401041667,0,0,0,,0,297,297,108,1,
,,,,,,,,,,,,,,,,,,5ec614d37bf5d768c8564186,2020-08-10_15h59.54.769,lexical_decision_task_MP,2020.1.3,Win32,60,,m,1,0.486745,,,,,,,,0.486745,1,,,,,,47,WORD,UN,50,walnut,INCOME,m,,,,,,0.005208333,-0.401041667,0,0,0,,0,298,298,226,1,
,,,,,,,,,,,,,,,,,,5ec614d37bf5d768c8564186,2020-08-10_15h59.54.769,lexical_decision_task_MP,2020.1.3,Win32,60,,m,0,0.84818,,,,,,,,0.84818,0,,,,,,250,NW,UN,50,lupict,MILTED,z,,,,,,0.005208333,-0.401041667,0,0,0,,0,299,299,429,1,
,,,,,,,,,,,,,,,,,,5ec614d37bf5d768c8564186,2020-08-10_15h59.54.769,lexical_decision_task_MP,2020.1.3,Win32,60,,m,0,0.884655,,,,,,,,0.884655,0,,,,,,276,NW,UN,50,petain,YARMON,z,,,,,,0.005208333,-0.401041667,0,0,0,,0,300,300,455,1,
,,,,,,,,,,,,,,,,,,5ec614d37bf5d768c8564186,2020-08-10_15h59.54.769,lexical_decision_task_MP,2020.1.3,Win32,60,,z,1,0.689085,,,,,,,,0.689085,1,,,,,,461,NW,UN,33,absult,JUSTRE,z,,,,,,0.005208333,-0.401041667,0,0,0,,0,301,301,400,1,
,,,,,,,,,,,,,,,,,,5ec614d37bf5d768c8564186,2020-08-10_15h59.54.769,lexical_decision_task_MP,2020.1.3,Win32,60,,z,1,0.77836,,,,,,,,0.77836,1,,,,,,343,NW,"ID",33,aimosy,AIMOSY,z,,,,,,0.005208333,-0.401041667,0,0,0,,0,302,302,282,1,
,,,,,,,,,,,,,,,,,,5ec614d37bf5d768c8564186,2020-08-10_15h59.54.769,lexical_decision_task_MP,2020.1.3,Win32,60,,m,1,0.647975,,,,,,,,0.647975,1,,,,,,127,WORD,"ID",50,castle,CASTLE,m,,,,,,0.005208333,-0.401041667,0,0,0,,0,303,303,66,1,
,,,,,,,,,,,,,,,,,,5ec614d37bf5d768c8564186,2020-08-10_15h59.54.769,lexical_decision_task_MP,2020.1.3,Win32,60,,m,1,0.59593,,,,,,,,0.59593,1,,,,,,226,WORD,UN,33,flower,CASINO,m,,,,,,0.005208333,-0.401041667,0,0,0,,0,304,304,165,1,
,,,,,,,,,,,,,,,,,,5ec614d37bf5d768c8564186,2020-08-10_15h59.54.769,lexical_decision_task_MP,2020.1.3,Win32,60,,m,1,0.56369,,,,,,,,0.56369,1,,,,,,205,WORD,UN,33,tailor,LOUNGE,m,,,,,,0.005208333,-0.401041667,0,0,0,,0,305,305,144,1,
,,,,,,,,,,,,,,,,,,5ec614d37bf5d768c8564186,2020-08-10_15h59.54.769,lexical_decision_task_MP,2020.1.3,Win32,60,,m,1,0.56212,,,,,,,,0.56212,1,,,,,,5,WORD,UN,50,bundle,PLUNGE,m,,,,,,0.005208333,-0.401041667,0,0,0,,0,306,306,184,1,
,,,,,,,,,,,,,,,,,,5ec614d37bf5d768c8564186,2020-08-10_15h59.54.769,lexical_decision_task_MP,2020.1.3,Win32,60,,m,1,0.449435,,,,,,,,0.449435,1,,,,,,88,WORD,"ID",33,hunger,HUNGER,m,,,,,,0.005208333,-0.401041667,0,0,0,,0,307,307,27,1,
,,,,,,,,,,,,,,,,,,5ec614d37bf5d768c8564186,2020-08-10_15h59.54.769,lexical_decision_task_MP,2020.1.3,Win32,60,,z,1,0.791505,,,,,,,,0.791505,1,,,,,,424,NW,UN,33,frudge,PRAILE,z,,,,,,0.005208333,-0.401041667,0,0,0,,0,308,308,363,1,
,,,,,,,,,,,,,,,,,,5ec614d37bf5d768c8564186,2020-08-10_15h59.54.769,lexical_decision_task_MP,2020.1.3,Win32,60,,z,1,0.655655,,,,,,,,0.655655,1,,,,,,409,NW,"ID",50,elopia,ELOPIA,z,,,,,,0.005208333,-0.401041667,0,0,0,,0,309,309,348,1,
,,,,,,,,,,,,,,,,,,5ec614d37bf5d768c8564186,2020-08-10_15h59.54.769,lexical_decision_task_MP,2020.1.3,Win32,60,,m,1,0.81733,,,,,,,,0.81733,1,,,,,,35,WORD,UN,50,vanish,SOCKET,m,,,,,,0.005208333,-0.401041667,0,0,0,,0,310,310,214,1,
,,,,,,,,,,,,,,,,,,5ec614d37bf5d768c8564186,2020-08-10_15h59.54.769,lexical_decision_task_MP,2020.1.3,Win32,60,,m,0,1.06973,,,,,,,,1.06973,0,,,,,,454,NW,UN,33,tondle,SCOUGE,z,,,,,,0.005208333,-0.401041667,0,0,0,,0,311,311,393,1,
,,,,,,,,,,,,,,,,,,5ec614d37bf5d768c8564186,2020-08-10_15h59.54.769,lexical_decision_task_MP,2020.1.3,Win32,60,,z,1,1.55841,,,,,,,,1.55841,1,,,,,,269,NW,UN,50,wrimsy,ORCHET,z,,,,,,0.005208333,-0.401041667,0,0,0,,0,312,312,448,1,
,,,,,,,,,,,,,,,,,,5ec614d37bf5d768c8564186,2020-08-10_15h59.54.769,lexical_decision_task_MP,2020.1.3,Win32,60,,z,1,0.775705,,,,,,,,0.775705,1,,,,,,400,NW,"ID",50,wearox,WEAROX,z,,,,,,0.005208333,-0.401041667,0,0,0,,0,313,313,339,1,
,,,,,,,,,,,,,,,,,,5ec614d37bf5d768c8564186,2020-08-10_15h59.54.769,lexical_decision_task_MP,2020.1.3,Win32,60,,m,1,0.7918,,,,,,,,0.7918,1,,,,,,87,WORD,"ID",33,filter,FILTER,m,,,,,,0.005208333,-0.401041667,0,0,0,,0,314,314,26,1,
,,,,,,,,,,,,,,,,,,5ec614d37bf5d768c8564186,2020-08-10_15h59.54.769,lexical_decision_task_MP,2020.1.3,Win32,60,,z,1,0.906625,,,,,,,,0.906625,1,,,,,,297,NW,UN,50,piergy,FERTIC,z,,,,,,0.005208333,-0.401041667,0,0,0,,0,315,315,476,1,
,,,,,,,,,,,,,,,,,,5ec614d37bf5d768c8564186,2020-08-10_15h59.54.769,lexical_decision_task_MP,2020.1.3,Win32,60,,m,1,0.60292,,,,,,,,0.60292,1,,,,,,100,WORD,"ID",33,carbon,CARBON,m,,,,,,0.005208333,-0.401041667,0,0,0,,0,316,316,39,1,
,,,,,,,,,,,,,,,,,,5ec614d37bf5d768c8564186,2020-08-10_15h59.54.769,lexical_decision_task_MP,2020.1.3,Win32,60,,z,1,0.817435,,,,,,,,0.817435,1,,,,,,366,NW,"ID",50,toshel,TOSHEL,z,,,,,,0.005208333,-0.401041667,0,0,0,,0,317,317,305,1,
,,,,,,,,,,,,,,,,,,5ec614d37bf5d768c8564186,2020-08-10_15h59.54.769,lexical_decision_task_MP,2020.1.3,Win32,60,,z,1,0.77762,,,,,,,,0.77762,1,,,,,,360,NW,"ID",33,desory,DESORY,z,,,,,,0.005208333,-0.401041667,0,0,0,,0,318,318,299,1,
,,,,,,,,,,,,,,,,,,5ec614d37bf5d768c8564186,2020-08-10_15h59.54.769,lexical_decision_task_MP,2020.1.3,Win32,60,,m,1,0.685415,,,,,,,,0.685415,1,,,,,,29,WORD,UN,50,orient,SKETCH,m,,,,,,0.005208333,-0.401041667,0,0,0,,0,319,319,208,1,
,,,,,,,,,,,,,,,,,,5ec614d37bf5d768c8564186,2020-08-10_15h59.54.769,lexical_decision_task_MP,2020.1.3,Win32,60,,z,1,1.444945,,,,,,,,1.444945,1,,,,,,322,NW,"ID",33,slanch,SLANCH,z,,,,,,0.005208333,-0.401041667,0,0,0,,0,320,320,261,1,
,,,,,,,,,,,,,,,,,,5ec614d37bf5d768c8564186,2020-08-10_15h59.54.769,lexical_decision_task_MP,2020.1.3,Win32,60,,m,1,0.922525,,,,,,,,0.922525,1,,,,,,189,WORD,UN,33,backup,CENSOR,m,,,,,,0.005208333,-0.401041667,0,0,0,,0,321,321,128,1,
,,,,,,,,,,,,,,,,,,5ec614d37bf5d768c8564186,2020-08-10_15h59.54.769,lexical_decision_task_MP,2020.1.3,Win32,60,,m,1,0.547445,,,,,,,,0.547445,1,,,,,,115,WORD,"ID",33,guitar,GUITAR,m,,,,,,0.005208333,-0.401041667,0,0,0,,0,322,322,54,1,
,,,,,,,,,,,,,,,,,,5ec614d37bf5d768c8564186,2020-08-10_15h59.54.769,lexical_decision_task_MP,2020.1.3,Win32,60,,m,1,0.85452,,,,,,,,0.85452,1,,,,,,45,WORD,UN,50,single,CLERGY,m,,,,,,0.005208333,-0.401041667,0,0,0,,0,323,323,224,1,
,,,,,,,,,,,,,,,,,,5ec614d37bf5d768c8564186,2020-08-10_15h59.54.769,lexical_decision_task_MP,2020.1.3,Win32,60,,m,1,0.899265,,,,,,,,0.899265,1,,,,,,166,WORD,"ID",50,starch,STARCH,m,,,,,,0.005208333,-0.401041667,0,0,0,,0,324,324,105,1,
,,,,,,,,,,,,,,,,,,5ec614d37bf5d768c8564186,2020-08-10_15h59.54.769,lexical_decision_task_MP,2020.1.3,Win32,60,,z,1,0.69288,,,,,,,,0.69288,1,,,,,,344,NW,"ID",33,scrily,SCRILY,z,,,,,,0.005208333,-0.401041667,0,0,0,,0,325,325,283,1,
,,,,,,,,,,,,,,,,,,5ec614d37bf5d768c8564186,2020-08-10_15h59.54.769,lexical_decision_task_MP,2020.1.3,Win32,60,,z,1,0.97589,,,,,,,,0.97589,1,,,,,,456,NW,UN,33,wanigh,BROGET,z,,,,,,0.005208333,-0.401041667,0,0,0,,0,326,326,395,1,
,,,,,,,,,,,,,,,,,,5ec614d37bf5d768c8564186,2020-08-10_15h59.54.769,lexical_decision_task_MP,2020.1.3,Win32,60,,z,1,0.65449,,,,,,,,0.65449,1,,,,,,294,NW,UN,50,gleath,INHORT,z,,,,,,0.005208333,-0.401041667,0,0,0,,0,327,327,473,1,
,,,,,,,,,,,,,,,,,,5ec614d37bf5d768c8564186,2020-08-10_15h59.54.769,lexical_decision_task_MP,2020.1.3,Win32,60,,z,1,0.73108,,,,,,,,0.73108,1,,,,,,374,NW,"ID",50,sliant,SLIANT,z,,,,,,0.005208333,-0.401041667,0,0,0,,0,328,328,313,1,
,,,,,,,,,,,,,,,,,,5ec614d37bf5d768c8564186,2020-08-10_15h59.54.769,lexical_decision_task_MP,2020.1.3,Win32,60,,m,1,0.868315,,,,,,,,0.868315,1,,,,,,145,WORD,"ID",50,parish,PARISH,m,,,,,,0.005208333,-0.401041667,0,0,0,,0,329,329,84,1,
,,,,,,,,,,,,,,,,,,5ec614d37bf5d768c8564186,2020-08-10_15h59.54.769,lexical_decision_task_MP,2020.1.3,Win32,60,,z,1,0.731835,,,,,,,,0.731835,1,,,,,,408,NW,"ID",50,hurnia,HURNIA,z,,,,,,0.005208333,-0.401041667,0,0,0,,0,330,330,347,1,
,,,,,,,,,,,,,,,,,,5ec614d37bf5d768c8564186,2020-08-10_15h59.54.769,lexical_decision_task_MP,2020.1.3,Win32,60,,m,1,0.88551,,,,,,,,0.88551,1,,,,,,71,WORD,"ID",33,garden,GARDEN,m,,,,,,0.005208333,-0.401041667,0,0,0,,0,331,331,10,1,
,,,,,,,,,,,,,,,,,,5ec614d37bf5d768c8564186,2020-08-10_15h59.54.769,lexical_decision_task_MP,2020.1.3,Win32,60,,m,1,0.62385,,,,,,,,0.62385,1,,,,,,154,WORD,"ID",50,author,AUTHOR,m,,,,,,0.005208333,-0.401041667,0,0,0,,0,332,332,93,1,
,,,,,,,,,,,,,,,,,,5ec614d37bf5d768c8564186,2020-08-10_15h59.54.769,lexical_decision_task_MP,2020.1.3,Win32,60,,m,1,0.6578,,,,,,,,0.6578,1,,,,,,120,WORD,"ID",33,strain,STRAIN,m,,,,,,0.005208333,-0.401041667,0,0,0,,0,333,333,59,1,
,,,,,,,,,,,,,,,,,,5ec614d37bf5d768c8564186,2020-08-10_15h59.54.769,lexical_decision_task_MP,2020.1.3,Win32,60,,m,1,0.605545,,,,,,,,0.605545,1,,,,,,28,WORD,UN,50,sketch,COMEDY,m,,,,,,0.005208333,-0.401041667,0,0,0,,0,334,334,207,1,
,,,,,,,,,,,,,,,,,,5ec614d37bf5d768c8564186,2020-08-10_15h59.54.769,lexical_decision_task_MP,2020.1.3,Win32,60,,m,1,0.67473,,,,,,,,0.67473,1,,,,,,11,WORD,UN,50,amount,CRUISE,m,,,,,,0.005208333,-0.401041667,0,0,0,,0,335,335,190,1,
,,,,,,,,,,,,,,,,,,5ec614d37bf5d768c8564186,2020-08-10_15h59.54.769,lexical_decision_task_MP,2020.1.3,Win32,60,,m,1,0.496385,,,,,,,,0.496385,1,,,,,,55,WORD,UN,50,ambush,STROKE,m,,,,,,0.005208333,-0.401041667,0,0,0,,0,336,336,234,1,
,,,,,,,,,,,,,,,,,,5ec614d37bf5d768c8564186,2020-08-10_15h59.54.769,lexical_decision_task_MP,2020.1.3,Win32,60,,m,0,0.67625,,,,,,,,0.67625,0,,,,,,285,NW,UN,50,reldon,PRUDGE,z,,,,,,0.005208333,-0.401041667,0,0,0,,0,337,337,464,1,
,,,,,,,,,,,,,,,,,,5ec614d37bf5d768c8564186,2020-08-10_15h59.54.769,lexical_decision_task_MP,2020.1.3,Win32,60,,z,1,0.894335,,,,,,,,0.894335,1,,,,,,383,NW,"ID",50,aungre,AUNGRE,z,,,,,,0.005208333,-0.401041667,0,0,0,,0,338,338,322,1,
,,,,,,,,,,,,,,,,,,5ec614d37bf5d768c8564186,2020-08-10_15h59.54.769,lexical_decision_task_MP,2020.1.3,Win32,60,,m,1,0.853185,,,,,,,,0.853185,1,,,,,,2,WORD,UN,50,knight,BRIDGE,m,,,,,,0.005208333,-0.401041667,0,0,0,,0,339,339,181,1,
,,,,,,,,,,,,,,,,,,5ec614d37bf5d768c8564186,2020-08-10_15h59.54.769,lexical_decision_task_MP,2020.1.3,Win32,60,,z,1,1.06976,,,,,,,,1.06976,1,,,,,,260,NW,UN,50,stunch,UNJECT,z,,,,,,0.005208333,-0.401041667,0,0,0,,0,340,340,439,1,
,,,,,,,,,,,,,,,,,,5ec614d37bf5d768c8564186,2020-08-10_15h59.54.769,lexical_decision_task_MP,2020.1.3,Win32,60,,z,1,1.436965,,,,,,,,1.436965,1,,,,,,359,NW,"ID",33,fonver,FONVER,z,,,,,,0.005208333,-0.401041667,0,0,0,,0,341,341,298,1,
,,,,,,,,,,,,,,,,,,5ec614d37bf5d768c8564186,2020-08-10_15h59.54.769,lexical_decision_task_MP,2020.1.3,Win32,60,,z,1,0.558095,,,,,,,,0.558095,1,,,,,,405,NW,"ID",50,flumni,FLUMNI,z,,,,,,0.005208333,-0.401041667,0,0,0,,0,342,342,344,1,
,,,,,,,,,,,,,,,,,,5ec614d37bf5d768c8564186,2020-08-10_15h59.54.769,lexical_decision_task_MP,2020.1.3,Win32,60,,m,1,1.24664,,,,,,,,1.24664,1,,,,,,151,WORD,"ID",50,mystic,MYSTIC,m,,,,,,0.005208333,-0.401041667,0,0,0,,0,343,343,90,1,
,,,,,,,,,,,,,,,,,,5ec614d37bf5d768c8564186,2020-08-10_15h59.54.769,lexical_decision_task_MP,2020.1.3,Win32,60,,z,1,0.676175,,,,,,,,0.676175,1,,,,,,447,NW,UN,33,sadent,GIRCUE,z,,,,,,0.005208333,-0.401041667,0,0,0,,0,344,344,386,1,
,,,,,,,,,,,,,,,,,,5ec614d37bf5d768c8564186,2020-08-10_15h59.54.769,lexical_decision_task_MP,2020.1.3,Win32,60,,m,1,0.932685,,,,,,,,0.932685,1,,,,,,59,WORD,UN,50,pencil,SPLINT,m,,,,,,0.005208333,-0.401041667,0,0,0,,0,345,345,238,1,
,,,,,,,,,,,,,,,,,,5ec614d37bf5d768c8564186,2020-08-10_15h59.54.769,lexical_decision_task_MP,2020.1.3,Win32,60,,m,1,1.033475,,,,,,,,1.033475,1,,,,,,43,WORD,UN,50,foster,TONGUE,m,,,,,,0.005208333,-0.401041667,0,0,0,,0,346,346,222,1,
,,,,,,,,,,,,,,,,,,5ec614d37bf5d768c8564186,2020-08-10_15h59.54.769,lexical_decision_task_MP,2020.1.3,Win32,60,,m,0,0.784185,,,,,,,,0.784185,0,,,,,,289,NW,UN,50,splino,STARBY,z,,,,,,0.005208333,-0.401041667,0,0,0,,0,347,347,468,1,
,,,,,,,,,,,,,,,,,,5ec614d37bf5d768c8564186,2020-08-10_15h59.54.769,lexical_decision_task_MP,2020.1.3,Win32,60,,z,0,0.8025,,,,,,,,0.8025,0,,,,,,192,WORD,UN,33,object,PLAGUE,m,,,,,,0.005208333,-0.401041667,0,0,0,,0,348,348,131,1,
,,,,,,,,,,,,,,,,,,5ec614d37bf5d768c8564186,2020-08-10_15h59.54.769,lexical_decision_task_MP,2020.1.3,Win32,60,,m,0,1.41506,,,,,,,,1.41506,0,,,,,,254,NW,UN,50,apight,VAROSH,z,,,,,,0.005208333,-0.401041667,0,0,0,,0,349,349,433,1,
,,,,,,,,,,,,,,,,,,5ec614d37bf5d768c8564186,2020-08-10_15h59.54.769,lexical_decision_task_MP,2020.1.3,Win32,60,,z,1,0.77478,,,,,,,,0.77478,1,,,,,,241,NW,UN,50,unwert,SMENCO,z,,,,,,0.005208333,-0.401041667,0,0,0,,0,350,350,420,1,
,,,,,,,,,,,,,,,,,,5ec614d37bf5d768c8564186,2020-08-10_15h59.54.769,lexical_decision_task_MP,2020.1.3,Win32,60,,z,1,0.605515,,,,,,,,0.605515,1,,,,,,264,NW,UN,50,distar,VACKEL,z,,,,,,0.005208333,-0.401041667,0,0,0,,0,351,351,443,1,
,,,,,,,,,,,,,,,,,,5ec614d37bf5d768c8564186,2020-08-10_15h59.54.769,lexical_decision_task_MP,2020.1.3,Win32,60,,m,1,0.674915,,,,,,,,0.674915,1,,,,,,188,WORD,UN,33,censor,SOCIAL,m,,,,,,0.005208333,-0.401041667,0,0,0,,0,352,352,127,1,
,,,,,,,,,,,,,,,,,,5ec614d37bf5d768c8564186,2020-08-10_15h59.54.769,lexical_decision_task_MP,2020.1.3,Win32,60,,z,1,1.037435,,,,,,,,1.037435,1,,,,,,247,NW,UN,50,strole,BLARGE,z,,,,,,0.005208333,-0.401041667,0,0,0,,0,353,353,426,1,
,,,,,,,,,,,,,,,,,,5ec614d37bf5d768c8564186,2020-08-10_15h59.54.769,lexical_decision_task_MP,2020.1.3,Win32,60,,m,1,0.998085,,,,,,,,0.998085,1,,,,,,221,WORD,UN,33,hinder,MASCOT,m,,,,,,0.005208333,-0.401041667,0,0,0,,0,354,354,160,1,
,,,,,,,,,,,,,,,,,,5ec614d37bf5d768c8564186,2020-08-10_15h59.54.769,lexical_decision_task_MP,2020.1.3,Win32,60,,m,1,0.73726,,,,,,,,0.73726,1,,,,,,80,WORD,"ID",33,family,FAMILY,m,,,,,,0.005208333,-0.401041667,0,0,0,,0,355,355,19,1,
,,,,,,,,,,,,,,,,,,5ec614d37bf5d768c8564186,2020-08-10_15h59.54.769,lexical_decision_task_MP,2020.1.3,Win32,60,,z,1,0.792435,,,,,,,,0.792435,1,,,,,,368,NW,"ID",50,hornal,HORNAL,z,,,,,,0.005208333,-0.401041667,0,0,0,,0,356,356,307,1,
,,,,,,,,,,,,,,,,,,5ec614d37bf5d768c8564186,2020-08-10_15h59.54.769,lexical_decision_task_MP,2020.1.3,Win32,60,,m,1,0.966935,,,,,,,,0.966935,1,,,,,,69,WORD,"ID",33,plenty,PLENTY,m,,,,,,0.005208333,-0.401041667,0,0,0,,0,357,357,8,1,
,,,,,,,,,,,,,,,,,,5ec614d37bf5d768c8564186,2020-08-10_15h59.54.769,lexical_decision_task_MP,2020.1.3,Win32,60,,z,1,0.8456,,,,,,,,0.8456,1,,,,,,369,NW,"ID",50,wronch,WRONCH,z,,,,,,0.005208333,-0.401041667,0,0,0,,0,358,358,308,1,
,,,,,,,,,,,,,,,,,,5ec614d37bf5d768c8564186,2020-08-10_15h59.54.769,lexical_decision_task_MP,2020.1.3,Win32,60,,z,1,0.91326,,,,,,,,0.91326,1,,,,,,419,NW,"ID",50,slount,SLOUNT,z,,,,,,0.005208333,-0.401041667,0,0,0,,0,359,359,358,1,
,,,,,,,,,,,,,,,,,,5ec614d37bf5d768c8564186,2020-08-10_15h59.54.769,lexical_decision_task_MP,2020.1.3,Win32,60,,z,1,0.849445,,,,,,,,0.849445,1,,,,,,427,NW,UN,33,tandly,SCHIND,z,,,,,,0.005208333,-0.401041667,0,0,0,,0,360,360,366,1,
,,,,,,,,,,,,,,,,,,5ec614d37bf5d768c8564186,2020-08-10_15h59.54.769,lexical_decision_task_MP,2020.1.3,Win32,60,,m,1,1.003415,,,,,,,,1.003415,1,,,,,,175,WORD,"ID",50,fabric,FABRIC,m,,,,,,0.005208333,-0.401041667,0,0,0,,0,361,361,114,1,
,,,,,,,,,,,,,,,,,,5ec614d37bf5d768c8564186,2020-08-10_15h59.54.769,lexical_decision_task_MP,2020.1.3,Win32,60,,m,1,0.87713,,,,,,,,0.87713,1,,,,,,149,WORD,"ID",50,invade,INVADE,m,,,,,,0.005208333,-0.401041667,0,0,0,space,0,362,362,88,1,30.697835
,,,,,,,,,,,,,,,,,,5ec614d37bf5d768c8564186,2020-08-10_15h59.54.769,lexical_decision_task_MP,2020.1.3,Win32,60,,m,1,1.03861,,,,,,,,1.03861,1,,,,,,213,WORD,UN,33,intake,SQUEAL,m,,,,,,0.005208333,-0.401041667,0,0,0,,0,363,363,152,1,
,,,,,,,,,,,,,,,,,,5ec614d37bf5d768c8564186,2020-08-10_15h59.54.769,lexical_decision_task_MP,2020.1.3,Win32,60,,z,1,1.56177,,,,,,,,1.56177,1,,,,,,310,NW,"ID",33,daniet,DANIET,z,,,,,,0.005208333,-0.401041667,0,0,0,,0,364,364,249,1,
,,,,,,,,,,,,,,,,,,5ec614d37bf5d768c8564186,2020-08-10_15h59.54.769,lexical_decision_task_MP,2020.1.3,Win32,60,,m,1,0.97916,,,,,,,,0.97916,1,,,,,,178,WORD,"ID",50,inform,INFORM,m,,,,,,0.005208333,-0.401041667,0,0,0,,0,365,365,117,1,
,,,,,,,,,,,,,,,,,,5ec614d37bf5d768c8564186,2020-08-10_15h59.54.769,lexical_decision_task_MP,2020.1.3,Win32,60,,z,1,0.98411,,,,,,,,0.98411,1,,,,,,473,NW,UN,33,hablin,CRIBLE,z,,,,,,0.005208333,-0.401041667,0,0,0,,0,366,366,412,1,
,,,,,,,,,,,,,,,,,,5ec614d37bf5d768c8564186,2020-08-10_15h59.54.769,lexical_decision_task_MP,2020.1.3,Win32,60,,m,0,1.22917,,,,,,,,1.22917,0,,,,,,258,NW,UN,50,soudal,POLUTH,z,,,,,,0.005208333,-0.401041667,0,0,0,,0,367,367,437,1,
,,,,,,,,,,,,,,,,,,5ec614d37bf5d768c8564186,2020-08-10_15h59.54.769,lexical_decision_task_MP,2020.1.3,Win32,60,,m,1,0.91466,,,,,,,,0.91466,1,,,,,,113,WORD,"ID",33,chorus,CHORUS,m,,,,,,0.005208333,-0.401041667,0,0,0,,0,368,368,52,1,
,,,,,,,,,,,,,,,,,,5ec614d37bf5d768c8564186,2020-08-10_15h59.54.769,lexical_decision_task_MP,2020.1.3,Win32,60,,m,1,0.936175,,,,,,,,0.936175,1,,,,,,198,WORD,UN,33,invoke,WICKED,m,,,,,,0.005208333,-0.401041667,0,0,0,,0,369,369,137,1,
,,,,,,,,,,,,,,,,,,5ec614d37bf5d768c8564186,2020-08-10_15h59.54.769,lexical_decision_task_MP,2020.1.3,Win32,60,,m,1,0.62366,,,,,,,,0.62366,1,,,,,,14,WORD,UN,50,orange,ALMOST,m,,,,,,0.005208333,-0.401041667,0,0,0,,0,370,370,193,1,
,,,,,,,,,,,,,,,,,,5ec614d37bf5d768c8564186,2020-08-10_15h59.54.769,lexical_decision_task_MP,2020.1.3,Win32,60,,m,1,0.73323,,,,,,,,0.73323,1,,,,,,155,WORD,"ID",50,lizard,LIZARD,m,,,,,,0.005208333,-0.401041667,0,0,0,,0,371,371,94,1,
,,,,,,,,,,,,,,,,,,5ec614d37bf5d768c8564186,2020-08-10_15h59.54.769,lexical_decision_task_MP,2020.1.3,Win32,60,,z,1,0.915945,,,,,,,,0.915945,1,,,,,,281,NW,UN,50,porlex,MELATY,z,,,,,,0.005208333,-0.401041667,0,0,0,,0,372,372,460,1,
,,,,,,,,,,,,,,,,,,5ec614d37bf5d768c8564186,2020-08-10_15h59.54.769,lexical_decision_task_MP,2020.1.3,Win32,60,,m,1,0.83728,,,,,,,,0.83728,1,,,,,,52,WORD,UN,50,police,IMPOSE,m,,,,,,0.005208333,-0.401041667,0,0,0,,0,373,373,231,1,
,,,,,,,,,,,,,,,,,,5ec614d37bf5d768c8564186,2020-08-10_15h59.54.769,lexical_decision_task_MP,2020.1.3,Win32,60,,z,1,0.811165,,,,,,,,0.811165,1,,,,,,375,NW,"ID",50,yorque,YORQUE,z,,,,,,0.005208333,-0.401041667,0,0,0,,0,374,374,314,1,
,,,,,,,,,,,,,,,,,,5ec614d37bf5d768c8564186,2020-08-10_15h59.54.769,lexical_decision_task_MP,2020.1.3,Win32,60,,z,1,0.72407,,,,,,,,0.72407,1,,,,,,315,NW,"ID",33,laston,LASTON,z,,,,,,0.005208333,-0.401041667,0,0,0,,0,375,375,254,1,
,,,,,,,,,,,,,,,,,,5ec614d37bf5d768c8564186,2020-08-10_15h59.54.769,lexical_decision_task_MP,2020.1.3,Win32,60,,m,1,0.800295,,,,,,,,0.800295,1,,,,,,91,WORD,"ID",33,expand,EXPAND,m,,,,,,0.005208333,-0.401041667,0,0,0,,0,376,376,30,1,
,,,,,,,,,,,,,,,,,,5ec614d37bf5d768c8564186,2020-08-10_15h59.54.769,lexical_decision_task_MP,2020.1.3,Win32,60,,m,1,0.84691,,,,,,,,0.84691,1,,,,,,104,WORD,"ID",33,studio,STUDIO,m,,,,,,0.005208333,-0.401041667,0,0,0,,0,377,377,43,1,
,,,,,,,,,,,,,,,,,,5ec614d37bf5d768c8564186,2020-08-10_15h59.54.769,lexical_decision_task_MP,2020.1.3,Win32,60,,z,1,0.70579,,,,,,,,0.70579,1,,,,,,426,NW,UN,33,schind,URIVEL,z,,,,,,0.005208333,-0.401041667,0,0,0,,0,378,378,365,1,
,,,,,,,,,,,,,,,,,,5ec614d37bf5d768c8564186,2020-08-10_15h59.54.769,lexical_decision_task_MP,2020.1.3,Win32,60,,z,1,0.847905,,,,,,,,0.847905,1,,,,,,274,NW,UN,50,sleirt,FUMBLO,z,,,,,,0.005208333,-0.401041667,0,0,0,,0,379,379,453,1,
,,,,,,,,,,,,,,,,,,5ec614d37bf5d768c8564186,2020-08-10_15h59.54.769,lexical_decision_task_MP,2020.1.3,Win32,60,,m,1,0.776165,,,,,,,,0.776165,1,,,,,,159,WORD,"ID",50,detail,DETAIL,m,,,,,,0.005208333,-0.401041667,0,0,0,,0,380,380,98,1,
,,,,,,,,,,,,,,,,,,5ec614d37bf5d768c8564186,2020-08-10_15h59.54.769,lexical_decision_task_MP,2020.1.3,Win32,60,,z,1,1.111965,,,,,,,,1.111965,1,,,,,,319,NW,"ID",33,zomber,ZOMBER,z,,,,,,0.005208333,-0.401041667,0,0,0,,0,381,381,258,1,
,,,,,,,,,,,,,,,,,,5ec614d37bf5d768c8564186,2020-08-10_15h59.54.769,lexical_decision_task_MP,2020.1.3,Win32,60,,m,1,0.67064,,,,,,,,0.67064,1,,,,,,50,WORD,UN,50,hungry,SNATCH,m,,,,,,0.005208333,-0.401041667,0,0,0,,0,382,382,229,1,
,,,,,,,,,,,,,,,,,,5ec614d37bf5d768c8564186,2020-08-10_15h59.54.769,lexical_decision_task_MP,2020.1.3,Win32,60,,z,1,0.821745,,,,,,,,0.821745,1,,,,,,251,NW,UN,50,stapod,LUPICT,z,,,,,,0.005208333,-0.401041667,0,0,0,,0,383,383,430,1,
,,,,,,,,,,,,,,,,,,5ec614d37bf5d768c8564186,2020-08-10_15h59.54.769,lexical_decision_task_MP,2020.1.3,Win32,60,,z,1,0.857835,,,,,,,,0.857835,1,,,,,,475,NW,UN,33,josted,PEBRIC,z,,,,,,0.005208333,-0.401041667,0,0,0,,0,384,384,414,1,
,,,,,,,,,,,,,,,,,,5ec614d37bf5d768c8564186,2020-08-10_15h59.54.769,lexical_decision_task_MP,2020.1.3,Win32,60,,z,1,1.188815,,,,,,,,1.188815,1,,,,,,390,NW,"ID",50,hatrus,HATRUS,z,,,,,,0.005208333,-0.401041667,0,0,0,,0,385,385,329,1,
,,,,,,,,,,,,,,,,,,5ec614d37bf5d768c8564186,2020-08-10_15h59.54.769,lexical_decision_task_MP,2020.1.3,Win32,60,,m,1,0.728915,,,,,,,,0.728915,1,,,,,,106,WORD,"ID",33,ransom,RANSOM,m,,,,,,0.005208333,-0.401041667,0,0,0,,0,386,386,45,1,
,,,,,,,,,,,,,,,,,,5ec614d37bf5d768c8564186,2020-08-10_15h59.54.769,lexical_decision_task_MP,2020.1.3,Win32,60,,z,1,0.882435,,,,,,,,0.882435,1,,,,,,347,NW,"ID",33,kerift,KERIFT,z,,,,,,0.005208333,-0.401041667,0,0,0,,0,387,387,286,1,
,,,,,,,,,,,,,,,,,,5ec614d37bf5d768c8564186,2020-08-10_15h59.54.769,lexical_decision_task_MP,2020.1.3,Win32,60,,z,1,1.236835,,,,,,,,1.236835,1,,,,,,361,NW,"ID",50,pauche,PAUCHE,z,,,,,,0.005208333,-0.401041667,0,0,0,,0,388,388,300,1,
,,,,,,,,,,,,,,,,,,5ec614d37bf5d768c8564186,2020-08-10_15h59.54.769,lexical_decision_task_MP,2020.1.3,Win32,60,,z,1,1.353115,,,,,,,,1.353115,1,,,,,,311,NW,"ID",33,sproly,SPROLY,z,,,,,,0.005208333,-0.401041667,0,0,0,,0,389,389,250,1,
,,,,,,,,,,,,,,,,,,5ec614d37bf5d768c8564186,2020-08-10_15h59.54.769,lexical_decision_task_MP,2020.1.3,Win32,60,,z,1,0.672305,,,,,,,,0.672305,1,,,,,,337,NW,"ID",33,rejols,REJOLS,z,,,,,,0.005208333,-0.401041667,0,0,0,,0,390,390,276,1,
,,,,,,,,,,,,,,,,,,5ec614d37bf5d768c8564186,2020-08-10_15h59.54.769,lexical_decision_task_MP,2020.1.3,Win32,60,,z,1,0.778975,,,,,,,,0.778975,1,,,,,,272,NW,UN,50,sortel,DAMILT,z,,,,,,0.005208333,-0.401041667,0,0,0,,0,391,391,451,1,
,,,,,,,,,,,,,,,,,,5ec614d37bf5d768c8564186,2020-08-10_15h59.54.769,lexical_decision_task_MP,2020.1.3,Win32,60,,m,1,0.66189,,,,,,,,0.66189,1,,,,,,37,WORD,UN,50,powder,INSULT,m,,,,,,0.005208333,-0.401041667,0,0,0,,0,392,392,216,1,
,,,,,,,,,,,,,,,,,,5ec614d37bf5d768c8564186,2020-08-10_15h59.54.769,lexical_decision_task_MP,2020.1.3,Win32,60,,m,1,0.74821,,,,,,,,0.74821,1,,,,,,114,WORD,"ID",33,placid,PLACID,m,,,,,,0.005208333,-0.401041667,0,0,0,,0,393,393,53,1,
,,,,,,,,,,,,,,,,,,5ec614d37bf5d768c8564186,2020-08-10_15h59.54.769,lexical_decision_task_MP,2020.1.3,Win32,60,,m,1,0.826005,,,,,,,,0.826005,1,,,,,,183,WORD,UN,33,sleazy,MILDEW,m,,,,,,0.005208333,-0.401041667,0,0,0,,0,394,394,122,1,
,,,,,,,,,,,,,,,,,,5ec614d37bf5d768c8564186,2020-08-10_15h59.54.769,lexical_decision_task_MP,2020.1.3,Win32,60,,z,1,0.69795,,,,,,,,0.69795,1,,,,,,423,NW,UN,33,praile,STRELD,z,,,,,,0.005208333,-0.401041667,0,0,0,,0,395,395,362,1,
,,,,,,,,,,,,,,,,,,5ec614d37bf5d768c8564186,2020-08-10_15h59.54.769,lexical_decision_task_MP,2020.1.3,Win32,60,,m,1,0.69268,,,,,,,,0.69268,1,,,,,,42,WORD,UN,50,tongue,CHAPEL,m,,,,,,0.005208333,-0.401041667,0,0,0,,0,396,396,221,1,
,,,,,,,,,,,,,,,,,,5ec614d37bf5d768c8564186,2020-08-10_15h59.54.769,lexical_decision_task_MP,2020.1.3,Win32,60,,m,1,0.701145,,,,,,,,0.701145,1,,,,,,21,WORD,UN,50,jockey,SIMPLE,m,,,,,,0.005208333,-0.401041667,0,0,0,,0,397,397,200,1,
,,,,,,,,,,,,,,,,,,5ec614d37bf5d768c8564186,2020-08-10_15h59.54.769,lexical_decision_task_MP,2020.1.3,Win32,60,,m,1,0.701195,,,,,,,,0.701195,1,,,,,,58,WORD,UN,50,splint,FOSTER,m,,,,,,0.005208333,-0.401041667,0,0,0,,0,398,398,237,1,
,,,,,,,,,,,,,,,,,,5ec614d37bf5d768c8564186,2020-08-10_15h59.54.769,lexical_decision_task_MP,2020.1.3,Win32,60,,m,1,0.839565,,,,,,,,0.839565,1,,,,,,128,WORD,"ID",50,senior,SENIOR,m,,,,,,0.005208333,-0.401041667,0,0,0,,0,399,399,67,1,
,,,,,,,,,,,,,,,,,,5ec614d37bf5d768c8564186,2020-08-10_15h59.54.769,lexical_decision_task_MP,2020.1.3,Win32,60,,z,1,0.94736,,,,,,,,0.94736,1,,,,,,278,NW,UN,50,celond,UNIGHS,z,,,,,,0.005208333,-0.401041667,0,0,0,,0,400,400,457,1,
,,,,,,,,,,,,,,,,,,5ec614d37bf5d768c8564186,2020-08-10_15h59.54.769,lexical_decision_task_MP,2020.1.3,Win32,60,,z,1,0.64766,,,,,,,,0.64766,1,,,,,,371,NW,"ID",50,geiloy,GEILOY,z,,,,,,0.005208333,-0.401041667,0,0,0,,0,401,401,310,1,
,,,,,,,,,,,,,,,,,,5ec614d37bf5d768c8564186,2020-08-10_15h59.54.769,lexical_decision_task_MP,2020.1.3,Win32,60,,z,1,0.74442,,,,,,,,0.74442,1,,,,,,329,NW,"ID",33,yarike,YARIKE,z,,,,,,0.005208333,-0.401041667,0,0,0,,0,402,402,268,1,
