counterbalancing_condition,instr_done_keyboard.keys,instr_done_touch.x,instr_done_touch.y,instr_done_touch.leftButton,instr_done_touch.midButton,instr_done_touch.rightButton,instr_done_touch.clicked_name,instruction_pages.thisRepN,instruction_pages.thisTrialN,instruction_pages.thisN,instruction_pages.thisIndex,instruction_pages.ran,pageN,phase,instruct_text,has_image,instruct_image,participant,date,expName,psychopyVersion,OS,frameRate,instr_done_keyboard.rt,response.keys,response.corr,response.rt,touch_resp.x,touch_resp.y,touch_resp.leftButton,touch_resp.midButton,touch_resp.rightButton,touch_resp.time,touch_resp.clicked_name,rt,corr,practice_trials.thisRepN,practice_trials.thisTrialN,practice_trials.thisN,practice_trials.thisIndex,practice_trials.ran,TrialID,StimulusType,Condition,PrimeDuration,Prime,Target,corrAns,end_of_practice_trials_pages.thisRepN,end_of_practice_trials_pages.thisTrialN,end_of_practice_trials_pages.thisN,end_of_practice_trials_pages.thisIndex,end_of_practice_trials_pages.ran,break_done_touch.x,break_done_touch.y,break_done_touch.leftButton,break_done_touch.midButton,break_done_touch.rightButton,break_done_keyboard.keys,trials.thisRepN,trials.thisTrialN,trials.thisN,trials.thisIndex,trials.ran,break_done_keyboard.rt
3,,0.015625,-0.4140625,1,0,0,instr_done_button,0,0,0,0,1,1,instructions,"INSTRUCTIONS
At the start of each trial, look at the hash marks (######) in the center of the screen. After a moment, a string of letters will appear. Your task is to indicate if the letter string forms a word or not (i.e., if it is a nonword). For example, AUTHOR is a word while AUTHON is a nonword.

Press the space bar or touch the button below to continue.",0,,5ec799f7dab5741eaea37681,2020-08-10_11h08.00.448,lexical_decision_task_MP,2020.1.3,Win32,60,,,,,,,,,,,,,,,,,,,,,,,,,,,,,,,,,,,,,,,,,,
,space,0.015625,-0.4140625,0,0,0,,0,1,1,1,1,2,instructions,"If your device has a keyboard, press the 'Z' key for nonwords and the 'M' key for words.





Press the space bar or touch the button below to continue.",1,keyboard-example.gif,5ec799f7dab5741eaea37681,2020-08-10_11h08.00.448,lexical_decision_task_MP,2020.1.3,Win32,60,53.319965,,,,,,,,,,,,,,,,,,,,,,,,,,,,,,,,,,,,,,,,,
,space,0.015625,-0.4140625,0,0,0,,0,2,2,2,1,3,instructions,"If you are using a touchscreen only device, use the buttons on the screen. Do not use the mouse.





Press the space bar or touch the button below to continue.",1,touchscreen-example.gif,5ec799f7dab5741eaea37681,2020-08-10_11h08.00.448,lexical_decision_task_MP,2020.1.3,Win32,60,6.65569,,,,,,,,,,,,,,,,,,,,,,,,,,,,,,,,,,,,,,,,,
,space,0.015625,-0.4140625,0,0,0,,0,3,3,3,1,4,instructions,"It is very important that you respond as quickly and accurately as possible, as each letter string will only be on the screen for two seconds. If you do not respond within this time, the message 'Too slow!' will be displayed and the experiment will progress to the next letter string. The first 20 trials will be practice trials and you will receive feedback on your answers. 

Press the space bar or touch the button below to start the practice trials.",0,,5ec799f7dab5741eaea37681,2020-08-10_11h08.00.448,lexical_decision_task_MP,2020.1.3,Win32,60,12.72365,,,,,,,,,,,,,,,,,,,,,,,,,,,,,,,,,,,,,,,,,
,,,,,,,,,,,,,,,,,,5ec799f7dab5741eaea37681,2020-08-10_11h08.00.448,lexical_decision_task_MP,2020.1.3,Win32,60,,z,1,1.567555,,,,,,,,1.567555,1,0,0,0,11,1,1012,NW,"ID",50,rashet,RASHET,z,,,,,,,,,,,,,,,,,
,,,,,,,,,,,,,,,,,,5ec799f7dab5741eaea37681,2020-08-10_11h08.00.448,lexical_decision_task_MP,2020.1.3,Win32,60,,z,1,1.214035,,,,,,,,1.214035,1,0,1,1,8,1,1009,NW,"ID",33,aslert,ASLERT,z,,,,,,,,,,,,,,,,,
,,,,,,,,,,,,,,,,,,5ec799f7dab5741eaea37681,2020-08-10_11h08.00.448,lexical_decision_task_MP,2020.1.3,Win32,60,,z,1,1.319525,,,,,,,,1.319525,1,0,2,2,12,1,1013,NW,UN,33,adveil,SPRINY,z,,,,,,,,,,,,,,,,,
,,,,,,,,,,,,,,,,,,5ec799f7dab5741eaea37681,2020-08-10_11h08.00.448,lexical_decision_task_MP,2020.1.3,Win32,60,,z,1,0.755235,,,,,,,,0.755235,1,0,3,3,15,1,1016,NW,UN,50,mushed,WHAISE,z,,,,,,,,,,,,,,,,,
,,,,,,,,,,,,,,,,,,5ec799f7dab5741eaea37681,2020-08-10_11h08.00.448,lexical_decision_task_MP,2020.1.3,Win32,60,,m,1,0.595545,,,,,,,,0.595545,1,0,4,4,7,1,1008,WORD,UN,50,hurdle,VOLUME,m,,,,,,,,,,,,,,,,,
,,,,,,,,,,,,,,,,,,5ec799f7dab5741eaea37681,2020-08-10_11h08.00.448,lexical_decision_task_MP,2020.1.3,Win32,60,,m,1,0.684075,,,,,,,,0.684075,1,0,5,5,1,1,1002,WORD,"ID",33,adjust,ADJUST,m,,,,,,,,,,,,,,,,,
,,,,,,,,,,,,,,,,,,5ec799f7dab5741eaea37681,2020-08-10_11h08.00.448,lexical_decision_task_MP,2020.1.3,Win32,60,,m,1,0.54469,,,,,,,,0.54469,1,0,6,6,5,1,1006,WORD,UN,33,frenzy,OBTAIN,m,,,,,,,,,,,,,,,,,
,,,,,,,,,,,,,,,,,,5ec799f7dab5741eaea37681,2020-08-10_11h08.00.448,lexical_decision_task_MP,2020.1.3,Win32,60,,z,1,0.979685,,,,,,,,0.979685,1,0,7,7,14,1,1015,NW,UN,50,miaber,THRALE,z,,,,,,,,,,,,,,,,,
,,,,,,,,,,,,,,,,,,5ec799f7dab5741eaea37681,2020-08-10_11h08.00.448,lexical_decision_task_MP,2020.1.3,Win32,60,,z,1,0.735335,,,,,,,,0.735335,1,0,8,8,10,1,1011,NW,"ID",50,inlade,INLADE,z,,,,,,,,,,,,,,,,,
,,,,,,,,,,,,,,,,,,5ec799f7dab5741eaea37681,2020-08-10_11h08.00.448,lexical_decision_task_MP,2020.1.3,Win32,60,,m,1,0.89816,,,,,,,,0.89816,1,0,9,9,0,1,1001,WORD,"ID",33,utopia,UTOPIA,m,,,,,,,,,,,,,,,,,
,,,,,,,,,,,,,,,,,,5ec799f7dab5741eaea37681,2020-08-10_11h08.00.448,lexical_decision_task_MP,2020.1.3,Win32,60,,m,1,0.89153,,,,,,,,0.89153,1,0,10,10,2,1,1003,WORD,"ID",50,almond,ALMOND,m,,,,,,,,,,,,,,,,,
,,,,,,,,,,,,,,,,,,5ec799f7dab5741eaea37681,2020-08-10_11h08.00.448,lexical_decision_task_MP,2020.1.3,Win32,60,,m,1,0.67227,,,,,,,,0.67227,1,0,11,11,6,1,1007,WORD,UN,50,tropic,ZOMBIE,m,,,,,,,,,,,,,,,,,
,,,,,,,,,,,,,,,,,,5ec799f7dab5741eaea37681,2020-08-10_11h08.00.448,lexical_decision_task_MP,2020.1.3,Win32,60,,z,1,1.04956,,,,,,,,1.04956,1,0,12,12,13,1,1014,NW,UN,33,winfer,ROUPET,z,,,,,,,,,,,,,,,,,
,,,,,,,,,,,,,,,,,,5ec799f7dab5741eaea37681,2020-08-10_11h08.00.448,lexical_decision_task_MP,2020.1.3,Win32,60,,m,1,0.59161,,,,,,,,0.59161,1,0,13,13,3,1,1004,WORD,"ID",50,matrix,MATRIX,m,,,,,,,,,,,,,,,,,
,,,,,,,,,,,,,,,,,,5ec799f7dab5741eaea37681,2020-08-10_11h08.00.448,lexical_decision_task_MP,2020.1.3,Win32,60,,z,1,0.810575,,,,,,,,0.810575,1,0,14,14,9,1,1010,NW,"ID",33,fariny,FARINY,z,,,,,,,,,,,,,,,,,
,,,,,,,,,,,,,,,,,,5ec799f7dab5741eaea37681,2020-08-10_11h08.00.448,lexical_decision_task_MP,2020.1.3,Win32,60,,m,1,0.864865,,,,,,,,0.864865,1,0,15,15,4,1,1005,WORD,UN,33,abound,SQUEAK,m,,,,,,,,,,,,,,,,,
,space,0.009114583,-0.3984375,0,0,0,,,,,,,1,end_of_practice,"You have completed the practice trials. During the experimental trials, you will not receive feedback, but it is very important that you respond as quickly and accurately as possible. 
Before you begin, please ensure that you are in a comfortable and quiet location and will not be disturbed for about 15 minutes, as we cannot use your data if you do not complete all the trials. 
There will be opportunities to take breaks at regular intervals during the experiment. When you are ready to start the experimental trials, please press space or touch the button below.",,,5ec799f7dab5741eaea37681,2020-08-10_11h08.00.448,lexical_decision_task_MP,2020.1.3,Win32,60,26.555085,,,,,,,,,,,,,,,,,,,,,,,,,0,0,0,0,1,,,,,,,,,,,,
,,,,,,,,,,,,,,,,,,5ec799f7dab5741eaea37681,2020-08-10_11h08.00.448,lexical_decision_task_MP,2020.1.3,Win32,60,,z,1,0.930745,,,,,,,,0.930745,1,,,,,,404,NW,"ID",50,cluirm,CLUIRM,z,,,,,,0.009114583,-0.3984375,0,0,0,,0,0,0,343,1,
,,,,,,,,,,,,,,,,,,5ec799f7dab5741eaea37681,2020-08-10_11h08.00.448,lexical_decision_task_MP,2020.1.3,Win32,60,,m,1,0.730275,,,,,,,,0.730275,1,,,,,,38,WORD,UN,50,insect,POWDER,m,,,,,,0.009114583,-0.3984375,0,0,0,,0,1,1,217,1,
,,,,,,,,,,,,,,,,,,5ec799f7dab5741eaea37681,2020-08-10_11h08.00.448,lexical_decision_task_MP,2020.1.3,Win32,60,,m,1,0.723045,,,,,,,,0.723045,1,,,,,,39,WORD,UN,50,convey,INSECT,m,,,,,,0.009114583,-0.3984375,0,0,0,,0,2,2,218,1,
,,,,,,,,,,,,,,,,,,5ec799f7dab5741eaea37681,2020-08-10_11h08.00.448,lexical_decision_task_MP,2020.1.3,Win32,60,,m,1,1.016645,,,,,,,,1.016645,1,,,,,,5,WORD,UN,50,bundle,PLUNGE,m,,,,,,0.009114583,-0.3984375,0,0,0,,0,3,3,184,1,
,,,,,,,,,,,,,,,,,,5ec799f7dab5741eaea37681,2020-08-10_11h08.00.448,lexical_decision_task_MP,2020.1.3,Win32,60,,m,1,0.676835,,,,,,,,0.676835,1,,,,,,190,WORD,UN,33,stable,BACKUP,m,,,,,,0.009114583,-0.3984375,0,0,0,,0,4,4,129,1,
,,,,,,,,,,,,,,,,,,5ec799f7dab5741eaea37681,2020-08-10_11h08.00.448,lexical_decision_task_MP,2020.1.3,Win32,60,,m,1,0.731615,,,,,,,,0.731615,1,,,,,,61,WORD,"ID",33,ponder,PONDER,m,,,,,,0.009114583,-0.3984375,0,0,0,,0,5,5,0,1,
,,,,,,,,,,,,,,,,,,5ec799f7dab5741eaea37681,2020-08-10_11h08.00.448,lexical_decision_task_MP,2020.1.3,Win32,60,,z,1,1.08913,,,,,,,,1.08913,1,,,,,,451,NW,UN,33,surden,CAINKY,z,,,,,,0.009114583,-0.3984375,0,0,0,,0,6,6,390,1,
,,,,,,,,,,,,,,,,,,5ec799f7dab5741eaea37681,2020-08-10_11h08.00.448,lexical_decision_task_MP,2020.1.3,Win32,60,,z,1,0.874075,,,,,,,,0.874075,1,,,,,,407,NW,"ID",50,suiver,SUIVER,z,,,,,,0.009114583,-0.3984375,0,0,0,,0,7,7,346,1,
,,,,,,,,,,,,,,,,,,5ec799f7dab5741eaea37681,2020-08-10_11h08.00.448,lexical_decision_task_MP,2020.1.3,Win32,60,,z,1,1.192515,,,,,,,,1.192515,1,,,,,,363,NW,"ID",50,breali,BREALI,z,,,,,,0.009114583,-0.3984375,0,0,0,,0,8,8,302,1,
,,,,,,,,,,,,,,,,,,5ec799f7dab5741eaea37681,2020-08-10_11h08.00.448,lexical_decision_task_MP,2020.1.3,Win32,60,,z,1,0.91908,,,,,,,,0.91908,1,,,,,,396,NW,"ID",50,flengy,FLENGY,z,,,,,,0.009114583,-0.3984375,0,0,0,,0,9,9,335,1,
,,,,,,,,,,,,,,,,,,5ec799f7dab5741eaea37681,2020-08-10_11h08.00.448,lexical_decision_task_MP,2020.1.3,Win32,60,,m,1,1.258275,,,,,,,,1.258275,1,,,,,,59,WORD,UN,50,pencil,SPLINT,m,,,,,,0.009114583,-0.3984375,0,0,0,,0,10,10,238,1,
,,,,,,,,,,,,,,,,,,5ec799f7dab5741eaea37681,2020-08-10_11h08.00.448,lexical_decision_task_MP,2020.1.3,Win32,60,,z,1,0.865475,,,,,,,,0.865475,1,,,,,,480,NW,UN,33,knisma,ROBULY,z,,,,,,0.009114583,-0.3984375,0,0,0,,0,11,11,419,1,
,,,,,,,,,,,,,,,,,,5ec799f7dab5741eaea37681,2020-08-10_11h08.00.448,lexical_decision_task_MP,2020.1.3,Win32,60,,m,1,0.69001,,,,,,,,0.69001,1,,,,,,235,WORD,UN,33,pirate,GRUMPY,m,,,,,,0.009114583,-0.3984375,0,0,0,,0,12,12,174,1,
,,,,,,,,,,,,,,,,,,5ec799f7dab5741eaea37681,2020-08-10_11h08.00.448,lexical_decision_task_MP,2020.1.3,Win32,60,,z,1,1.3699,,,,,,,,1.3699,1,,,,,,372,NW,"ID",50,ramily,RAMILY,z,,,,,,0.009114583,-0.3984375,0,0,0,,0,13,13,311,1,
,,,,,,,,,,,,,,,,,,5ec799f7dab5741eaea37681,2020-08-10_11h08.00.448,lexical_decision_task_MP,2020.1.3,Win32,60,,z,1,0.944865,,,,,,,,0.944865,1,,,,,,379,NW,"ID",50,auting,AUTING,z,,,,,,0.009114583,-0.3984375,0,0,0,,0,14,14,318,1,
,,,,,,,,,,,,,,,,,,5ec799f7dab5741eaea37681,2020-08-10_11h08.00.448,lexical_decision_task_MP,2020.1.3,Win32,60,,z,1,0.971165,,,,,,,,0.971165,1,,,,,,375,NW,"ID",50,yorque,YORQUE,z,,,,,,0.009114583,-0.3984375,0,0,0,,0,15,15,314,1,
,,,,,,,,,,,,,,,,,,5ec799f7dab5741eaea37681,2020-08-10_11h08.00.448,lexical_decision_task_MP,2020.1.3,Win32,60,,z,1,0.747135,,,,,,,,0.747135,1,,,,,,436,NW,UN,33,snapel,FRUTAN,z,,,,,,0.009114583,-0.3984375,0,0,0,,0,16,16,375,1,
,,,,,,,,,,,,,,,,,,5ec799f7dab5741eaea37681,2020-08-10_11h08.00.448,lexical_decision_task_MP,2020.1.3,Win32,60,,m,1,1.1119,,,,,,,,1.1119,1,,,,,,74,WORD,"ID",33,plaque,PLAQUE,m,,,,,,0.009114583,-0.3984375,0,0,0,,0,17,17,13,1,
,,,,,,,,,,,,,,,,,,5ec799f7dab5741eaea37681,2020-08-10_11h08.00.448,lexical_decision_task_MP,2020.1.3,Win32,60,,m,1,0.74612,,,,,,,,0.74612,1,,,,,,154,WORD,"ID",50,author,AUTHOR,m,,,,,,0.009114583,-0.3984375,0,0,0,,0,18,18,93,1,
,,,,,,,,,,,,,,,,,,5ec799f7dab5741eaea37681,2020-08-10_11h08.00.448,lexical_decision_task_MP,2020.1.3,Win32,60,,m,1,0.660585,,,,,,,,0.660585,1,,,,,,72,WORD,"ID",33,bright,BRIGHT,m,,,,,,0.009114583,-0.3984375,0,0,0,,0,19,19,11,1,
,,,,,,,,,,,,,,,,,,5ec799f7dab5741eaea37681,2020-08-10_11h08.00.448,lexical_decision_task_MP,2020.1.3,Win32,60,,z,1,0.830945,,,,,,,,0.830945,1,,,,,,393,NW,"ID",50,ganous,GANOUS,z,,,,,,0.009114583,-0.3984375,0,0,0,,0,20,20,332,1,
,,,,,,,,,,,,,,,,,,5ec799f7dab5741eaea37681,2020-08-10_11h08.00.448,lexical_decision_task_MP,2020.1.3,Win32,60,,m,1,0.81997,,,,,,,,0.81997,1,,,,,,216,WORD,UN,33,liquor,BEHALF,m,,,,,,0.009114583,-0.3984375,0,0,0,,0,21,21,155,1,
,,,,,,,,,,,,,,,,,,5ec799f7dab5741eaea37681,2020-08-10_11h08.00.448,lexical_decision_task_MP,2020.1.3,Win32,60,,z,1,0.921415,,,,,,,,0.921415,1,,,,,,316,NW,"ID",33,scregm,SCREGM,z,,,,,,0.009114583,-0.3984375,0,0,0,,0,22,22,255,1,
,,,,,,,,,,,,,,,,,,5ec799f7dab5741eaea37681,2020-08-10_11h08.00.448,lexical_decision_task_MP,2020.1.3,Win32,60,,m,1,0.77704,,,,,,,,0.77704,1,,,,,,118,WORD,"ID",33,flight,FLIGHT,m,,,,,,0.009114583,-0.3984375,0,0,0,,0,23,23,57,1,
,,,,,,,,,,,,,,,,,,5ec799f7dab5741eaea37681,2020-08-10_11h08.00.448,lexical_decision_task_MP,2020.1.3,Win32,60,,z,1,0.735245,,,,,,,,0.735245,1,,,,,,367,NW,"ID",50,slique,SLIQUE,z,,,,,,0.009114583,-0.3984375,0,0,0,,0,24,24,306,1,
,,,,,,,,,,,,,,,,,,5ec799f7dab5741eaea37681,2020-08-10_11h08.00.448,lexical_decision_task_MP,2020.1.3,Win32,60,,m,1,0.77467,,,,,,,,0.77467,1,,,,,,67,WORD,"ID",33,policy,POLICY,m,,,,,,0.009114583,-0.3984375,0,0,0,,0,25,25,6,1,
,,,,,,,,,,,,,,,,,,5ec799f7dab5741eaea37681,2020-08-10_11h08.00.448,lexical_decision_task_MP,2020.1.3,Win32,60,,m,1,1.639545,,,,,,,,1.639545,1,,,,,,103,WORD,"ID",33,bounce,BOUNCE,m,,,,,,0.009114583,-0.3984375,0,0,0,,0,26,26,42,1,
,,,,,,,,,,,,,,,,,,5ec799f7dab5741eaea37681,2020-08-10_11h08.00.448,lexical_decision_task_MP,2020.1.3,Win32,60,,m,1,0.737895,,,,,,,,0.737895,1,,,,,,232,WORD,UN,33,nature,INJECT,m,,,,,,0.009114583,-0.3984375,0,0,0,,0,27,27,171,1,
,,,,,,,,,,,,,,,,,,5ec799f7dab5741eaea37681,2020-08-10_11h08.00.448,lexical_decision_task_MP,2020.1.3,Win32,60,,z,1,0.874715,,,,,,,,0.874715,1,,,,,,281,NW,UN,50,porlex,MELATY,z,,,,,,0.009114583,-0.3984375,0,0,0,,0,28,28,460,1,
,,,,,,,,,,,,,,,,,,5ec799f7dab5741eaea37681,2020-08-10_11h08.00.448,lexical_decision_task_MP,2020.1.3,Win32,60,,m,1,0.74021,,,,,,,,0.74021,1,,,,,,170,WORD,"ID",50,pounce,POUNCE,m,,,,,,0.009114583,-0.3984375,0,0,0,,0,29,29,109,1,
,,,,,,,,,,,,,,,,,,5ec799f7dab5741eaea37681,2020-08-10_11h08.00.448,lexical_decision_task_MP,2020.1.3,Win32,60,,z,1,0.73,,,,,,,,0.73,1,,,,,,406,NW,"ID",50,nouply,NOUPLY,z,,,,,,0.009114583,-0.3984375,0,0,0,,0,30,30,345,1,
,,,,,,,,,,,,,,,,,,5ec799f7dab5741eaea37681,2020-08-10_11h08.00.448,lexical_decision_task_MP,2020.1.3,Win32,60,,m,1,0.58235,,,,,,,,0.58235,1,,,,,,202,WORD,UN,33,phrase,FACTOR,m,,,,,,0.009114583,-0.3984375,0,0,0,,0,31,31,141,1,
,,,,,,,,,,,,,,,,,,5ec799f7dab5741eaea37681,2020-08-10_11h08.00.448,lexical_decision_task_MP,2020.1.3,Win32,60,,m,1,0.69003,,,,,,,,0.69003,1,,,,,,229,WORD,UN,33,fringe,MOTHER,m,,,,,,0.009114583,-0.3984375,0,0,0,,0,32,32,168,1,
,,,,,,,,,,,,,,,,,,5ec799f7dab5741eaea37681,2020-08-10_11h08.00.448,lexical_decision_task_MP,2020.1.3,Win32,60,,z,1,0.82305,,,,,,,,0.82305,1,,,,,,395,NW,"ID",50,colury,COLURY,z,,,,,,0.009114583,-0.3984375,0,0,0,,0,33,33,334,1,
,,,,,,,,,,,,,,,,,,5ec799f7dab5741eaea37681,2020-08-10_11h08.00.448,lexical_decision_task_MP,2020.1.3,Win32,60,,z,1,0.79694,,,,,,,,0.79694,1,,,,,,337,NW,"ID",33,rejols,REJOLS,z,,,,,,0.009114583,-0.3984375,0,0,0,,0,34,34,276,1,
,,,,,,,,,,,,,,,,,,5ec799f7dab5741eaea37681,2020-08-10_11h08.00.448,lexical_decision_task_MP,2020.1.3,Win32,60,,z,1,1.195035,,,,,,,,1.195035,1,,,,,,432,NW,UN,33,drance,LUNKER,z,,,,,,0.009114583,-0.3984375,0,0,0,,0,35,35,371,1,
,,,,,,,,,,,,,,,,,,5ec799f7dab5741eaea37681,2020-08-10_11h08.00.448,lexical_decision_task_MP,2020.1.3,Win32,60,,m,1,0.87039,,,,,,,,0.87039,1,,,,,,58,WORD,UN,50,splint,FOSTER,m,,,,,,0.009114583,-0.3984375,0,0,0,,0,36,36,237,1,
,,,,,,,,,,,,,,,,,,5ec799f7dab5741eaea37681,2020-08-10_11h08.00.448,lexical_decision_task_MP,2020.1.3,Win32,60,,z,1,0.975265,,,,,,,,0.975265,1,,,,,,477,NW,UN,33,lobush,PHOTIE,z,,,,,,0.009114583,-0.3984375,0,0,0,,0,37,37,416,1,
,,,,,,,,,,,,,,,,,,5ec799f7dab5741eaea37681,2020-08-10_11h08.00.448,lexical_decision_task_MP,2020.1.3,Win32,60,,m,1,0.579785,,,,,,,,0.579785,1,,,,,,135,WORD,"ID",50,import,IMPORT,m,,,,,,0.009114583,-0.3984375,0,0,0,,0,38,38,74,1,
,,,,,,,,,,,,,,,,,,5ec799f7dab5741eaea37681,2020-08-10_11h08.00.448,lexical_decision_task_MP,2020.1.3,Win32,60,,z,1,1.18211,,,,,,,,1.18211,1,,,,,,310,NW,"ID",33,daniet,DANIET,z,,,,,,0.009114583,-0.3984375,0,0,0,,0,39,39,249,1,
,,,,,,,,,,,,,,,,,,5ec799f7dab5741eaea37681,2020-08-10_11h08.00.448,lexical_decision_task_MP,2020.1.3,Win32,60,,m,1,0.756955,,,,,,,,0.756955,1,,,,,,14,WORD,UN,50,orange,ALMOST,m,,,,,,0.009114583,-0.3984375,0,0,0,,0,40,40,193,1,
,,,,,,,,,,,,,,,,,,5ec799f7dab5741eaea37681,2020-08-10_11h08.00.448,lexical_decision_task_MP,2020.1.3,Win32,60,,m,1,0.724885,,,,,,,,0.724885,1,,,,,,115,WORD,"ID",33,guitar,GUITAR,m,,,,,,0.009114583,-0.3984375,0,0,0,,0,41,41,54,1,
,,,,,,,,,,,,,,,,,,5ec799f7dab5741eaea37681,2020-08-10_11h08.00.448,lexical_decision_task_MP,2020.1.3,Win32,60,,m,0,0.58826,,,,,,,,0.58826,0,,,,,,433,NW,UN,33,pitrom,DRANCE,z,,,,,,0.009114583,-0.3984375,0,0,0,,0,42,42,372,1,
,,,,,,,,,,,,,,,,,,5ec799f7dab5741eaea37681,2020-08-10_11h08.00.448,lexical_decision_task_MP,2020.1.3,Win32,60,,z,1,1.080195,,,,,,,,1.080195,1,,,,,,455,NW,UN,33,broget,TONDLE,z,,,,,,0.009114583,-0.3984375,0,0,0,,0,43,43,394,1,
,,,,,,,,,,,,,,,,,,5ec799f7dab5741eaea37681,2020-08-10_11h08.00.448,lexical_decision_task_MP,2020.1.3,Win32,60,,z,1,0.847975,,,,,,,,0.847975,1,,,,,,463,NW,UN,33,chaite,KISPEL,z,,,,,,0.009114583,-0.3984375,0,0,0,,0,44,44,402,1,
,,,,,,,,,,,,,,,,,,5ec799f7dab5741eaea37681,2020-08-10_11h08.00.448,lexical_decision_task_MP,2020.1.3,Win32,60,,m,1,0.929855,,,,,,,,0.929855,1,,,,,,85,WORD,"ID",33,sprawl,SPRAWL,m,,,,,,0.009114583,-0.3984375,0,0,0,,0,45,45,24,1,
,,,,,,,,,,,,,,,,,,5ec799f7dab5741eaea37681,2020-08-10_11h08.00.448,lexical_decision_task_MP,2020.1.3,Win32,60,,z,1,1.149825,,,,,,,,1.149825,1,,,,,,284,NW,UN,50,prudge,SHAPLE,z,,,,,,0.009114583,-0.3984375,0,0,0,,0,46,46,463,1,
,,,,,,,,,,,,,,,,,,5ec799f7dab5741eaea37681,2020-08-10_11h08.00.448,lexical_decision_task_MP,2020.1.3,Win32,60,,m,1,0.62281,,,,,,,,0.62281,1,,,,,,25,WORD,UN,50,sprint,DOMAIN,m,,,,,,0.009114583,-0.3984375,0,0,0,,0,47,47,204,1,
,,,,,,,,,,,,,,,,,,5ec799f7dab5741eaea37681,2020-08-10_11h08.00.448,lexical_decision_task_MP,2020.1.3,Win32,60,,m,1,0.77525,,,,,,,,0.77525,1,,,,,,26,WORD,UN,50,butler,SPRINT,m,,,,,,0.009114583,-0.3984375,0,0,0,,0,48,48,205,1,
,,,,,,,,,,,,,,,,,,5ec799f7dab5741eaea37681,2020-08-10_11h08.00.448,lexical_decision_task_MP,2020.1.3,Win32,60,,m,1,0.596575,,,,,,,,0.596575,1,,,,,,73,WORD,"ID",33,source,SOURCE,m,,,,,,0.009114583,-0.3984375,0,0,0,,0,49,49,12,1,
,,,,,,,,,,,,,,,,,,5ec799f7dab5741eaea37681,2020-08-10_11h08.00.448,lexical_decision_task_MP,2020.1.3,Win32,60,,z,1,1.211645,,,,,,,,1.211645,1,,,,,,389,NW,"ID",50,witmer,WITMER,z,,,,,,0.009114583,-0.3984375,0,0,0,,0,50,50,328,1,
,,,,,,,,,,,,,,,,,,5ec799f7dab5741eaea37681,2020-08-10_11h08.00.448,lexical_decision_task_MP,2020.1.3,Win32,60,,z,1,0.776735,,,,,,,,0.776735,1,,,,,,427,NW,UN,33,tandly,SCHIND,z,,,,,,0.009114583,-0.3984375,0,0,0,,0,51,51,366,1,
,,,,,,,,,,,,,,,,,,5ec799f7dab5741eaea37681,2020-08-10_11h08.00.448,lexical_decision_task_MP,2020.1.3,Win32,60,,m,1,0.9693,,,,,,,,0.9693,1,,,,,,87,WORD,"ID",33,filter,FILTER,m,,,,,,0.009114583,-0.3984375,0,0,0,,0,52,52,26,1,
,,,,,,,,,,,,,,,,,,5ec799f7dab5741eaea37681,2020-08-10_11h08.00.448,lexical_decision_task_MP,2020.1.3,Win32,60,,z,1,0.676185,,,,,,,,0.676185,1,,,,,,333,NW,"ID",33,catrie,CATRIE,z,,,,,,0.009114583,-0.3984375,0,0,0,,0,53,53,272,1,
,,,,,,,,,,,,,,,,,,5ec799f7dab5741eaea37681,2020-08-10_11h08.00.448,lexical_decision_task_MP,2020.1.3,Win32,60,,m,1,0.63175,,,,,,,,0.63175,1,,,,,,147,WORD,"ID",50,garlic,GARLIC,m,,,,,,0.009114583,-0.3984375,0,0,0,,0,54,54,86,1,
,,,,,,,,,,,,,,,,,,5ec799f7dab5741eaea37681,2020-08-10_11h08.00.448,lexical_decision_task_MP,2020.1.3,Win32,60,,z,1,0.827785,,,,,,,,0.827785,1,,,,,,370,NW,"ID",50,sleact,SLEACT,z,,,,,,0.009114583,-0.3984375,0,0,0,,0,55,55,309,1,
,,,,,,,,,,,,,,,,,,5ec799f7dab5741eaea37681,2020-08-10_11h08.00.448,lexical_decision_task_MP,2020.1.3,Win32,60,,z,1,1.04238,,,,,,,,1.04238,1,,,,,,391,NW,"ID",50,theldy,THELDY,z,,,,,,0.009114583,-0.3984375,0,0,0,,0,56,56,330,1,
,,,,,,,,,,,,,,,,,,5ec799f7dab5741eaea37681,2020-08-10_11h08.00.448,lexical_decision_task_MP,2020.1.3,Win32,60,,m,1,0.73038,,,,,,,,0.73038,1,,,,,,225,WORD,UN,33,casino,VULGAR,m,,,,,,0.009114583,-0.3984375,0,0,0,,0,57,57,164,1,
,,,,,,,,,,,,,,,,,,5ec799f7dab5741eaea37681,2020-08-10_11h08.00.448,lexical_decision_task_MP,2020.1.3,Win32,60,,z,1,0.678335,,,,,,,,0.678335,1,,,,,,401,NW,"ID",50,mustil,MUSTIL,z,,,,,,0.009114583,-0.3984375,0,0,0,,0,58,58,340,1,
,,,,,,,,,,,,,,,,,,5ec799f7dab5741eaea37681,2020-08-10_11h08.00.448,lexical_decision_task_MP,2020.1.3,Win32,60,,z,1,0.824105,,,,,,,,0.824105,1,,,,,,361,NW,"ID",50,pauche,PAUCHE,z,,,,,,0.009114583,-0.3984375,0,0,0,,0,59,59,300,1,
,,,,,,,,,,,,,,,,,,5ec799f7dab5741eaea37681,2020-08-10_11h08.00.448,lexical_decision_task_MP,2020.1.3,Win32,60,,z,1,0.774625,,,,,,,,0.774625,1,,,,,,325,NW,"ID",33,thruse,THRUSE,z,,,,,,0.009114583,-0.3984375,0,0,0,,0,60,60,264,1,
,,,,,,,,,,,,,,,,,,5ec799f7dab5741eaea37681,2020-08-10_11h08.00.448,lexical_decision_task_MP,2020.1.3,Win32,60,,m,1,0.67856,,,,,,,,0.67856,1,,,,,,126,WORD,"ID",50,enough,ENOUGH,m,,,,,,0.009114583,-0.3984375,0,0,0,,0,61,61,65,1,
,,,,,,,,,,,,,,,,,,5ec799f7dab5741eaea37681,2020-08-10_11h08.00.448,lexical_decision_task_MP,2020.1.3,Win32,60,,m,1,0.775275,,,,,,,,0.775275,1,,,,,,33,WORD,UN,50,jungle,BUTLER,m,,,,,,0.009114583,-0.3984375,0,0,0,,0,62,62,212,1,
,,,,,,,,,,,,,,,,,,5ec799f7dab5741eaea37681,2020-08-10_11h08.00.448,lexical_decision_task_MP,2020.1.3,Win32,60,,m,1,0.729775,,,,,,,,0.729775,1,,,,,,138,WORD,"ID",50,melody,MELODY,m,,,,,,0.009114583,-0.3984375,0,0,0,,0,63,63,77,1,
,,,,,,,,,,,,,,,,,,5ec799f7dab5741eaea37681,2020-08-10_11h08.00.448,lexical_decision_task_MP,2020.1.3,Win32,60,,z,1,0.72511,,,,,,,,0.72511,1,,,,,,350,NW,"ID",33,nagurs,NAGURS,z,,,,,,0.009114583,-0.3984375,0,0,0,,0,64,64,289,1,
,,,,,,,,,,,,,,,,,,5ec799f7dab5741eaea37681,2020-08-10_11h08.00.448,lexical_decision_task_MP,2020.1.3,Win32,60,,m,1,0.590665,,,,,,,,0.590665,1,,,,,,12,WORD,UN,50,strive,ORANGE,m,,,,,,0.009114583,-0.3984375,0,0,0,,0,65,65,191,1,
,,,,,,,,,,,,,,,,,,5ec799f7dab5741eaea37681,2020-08-10_11h08.00.448,lexical_decision_task_MP,2020.1.3,Win32,60,,m,1,0.87381,,,,,,,,0.87381,1,,,,,,71,WORD,"ID",33,garden,GARDEN,m,,,,,,0.009114583,-0.3984375,0,0,0,,0,66,66,10,1,
,,,,,,,,,,,,,,,,,,5ec799f7dab5741eaea37681,2020-08-10_11h08.00.448,lexical_decision_task_MP,2020.1.3,Win32,60,,z,1,0.73531,,,,,,,,0.73531,1,,,,,,394,NW,"ID",50,spaqux,SPAQUX,z,,,,,,0.009114583,-0.3984375,0,0,0,,0,67,67,333,1,
,,,,,,,,,,,,,,,,,,5ec799f7dab5741eaea37681,2020-08-10_11h08.00.448,lexical_decision_task_MP,2020.1.3,Win32,60,,m,1,0.82373,,,,,,,,0.82373,1,,,,,,53,WORD,UN,50,ramble,POLICE,m,,,,,,0.009114583,-0.3984375,0,0,0,,0,68,68,232,1,
,,,,,,,,,,,,,,,,,,5ec799f7dab5741eaea37681,2020-08-10_11h08.00.448,lexical_decision_task_MP,2020.1.3,Win32,60,,z,1,1.70614,,,,,,,,1.70614,1,,,,,,438,NW,UN,33,limpor,BAITCH,z,,,,,,0.009114583,-0.3984375,0,0,0,,0,69,69,377,1,
,,,,,,,,,,,,,,,,,,5ec799f7dab5741eaea37681,2020-08-10_11h08.00.448,lexical_decision_task_MP,2020.1.3,Win32,60,,m,1,0.771315,,,,,,,,0.771315,1,,,,,,78,WORD,"ID",33,column,COLUMN,m,,,,,,0.009114583,-0.3984375,0,0,0,,0,70,70,17,1,
,,,,,,,,,,,,,,,,,,5ec799f7dab5741eaea37681,2020-08-10_11h08.00.448,lexical_decision_task_MP,2020.1.3,Win32,60,,m,1,0.626725,,,,,,,,0.626725,1,,,,,,11,WORD,UN,50,amount,CRUISE,m,,,,,,0.009114583,-0.3984375,0,0,0,,0,71,71,190,1,
,,,,,,,,,,,,,,,,,,5ec799f7dab5741eaea37681,2020-08-10_11h08.00.448,lexical_decision_task_MP,2020.1.3,Win32,60,,m,1,0.50407,,,,,,,,0.50407,1,,,,,,169,WORD,"ID",50,genius,GENIUS,m,,,,,,0.009114583,-0.3984375,0,0,0,,0,72,72,108,1,
,,,,,,,,,,,,,,,,,,5ec799f7dab5741eaea37681,2020-08-10_11h08.00.448,lexical_decision_task_MP,2020.1.3,Win32,60,,m,1,0.632945,,,,,,,,0.632945,1,,,,,,35,WORD,UN,50,vanish,SOCKET,m,,,,,,0.009114583,-0.3984375,0,0,0,,0,73,73,214,1,
,,,,,,,,,,,,,,,,,,5ec799f7dab5741eaea37681,2020-08-10_11h08.00.448,lexical_decision_task_MP,2020.1.3,Win32,60,,m,1,0.62094,,,,,,,,0.62094,1,,,,,,173,WORD,"ID",50,shower,SHOWER,m,,,,,,0.009114583,-0.3984375,0,0,0,,0,74,74,112,1,
,,,,,,,,,,,,,,,,,,5ec799f7dab5741eaea37681,2020-08-10_11h08.00.448,lexical_decision_task_MP,2020.1.3,Win32,60,,m,1,0.59231,,,,,,,,0.59231,1,,,,,,158,WORD,"ID",50,island,ISLAND,m,,,,,,0.009114583,-0.3984375,0,0,0,,0,75,75,97,1,
,,,,,,,,,,,,,,,,,,5ec799f7dab5741eaea37681,2020-08-10_11h08.00.448,lexical_decision_task_MP,2020.1.3,Win32,60,,m,0,1.360955,,,,,,,,1.360955,0,,,,,,473,NW,UN,33,hablin,CRIBLE,z,,,,,,0.009114583,-0.3984375,0,0,0,,0,76,76,412,1,
,,,,,,,,,,,,,,,,,,5ec799f7dab5741eaea37681,2020-08-10_11h08.00.448,lexical_decision_task_MP,2020.1.3,Win32,60,,z,1,0.916705,,,,,,,,0.916705,1,,,,,,346,NW,"ID",33,saudic,SAUDIC,z,,,,,,0.009114583,-0.3984375,0,0,0,,0,77,77,285,1,
,,,,,,,,,,,,,,,,,,5ec799f7dab5741eaea37681,2020-08-10_11h08.00.448,lexical_decision_task_MP,2020.1.3,Win32,60,,m,1,0.87415,,,,,,,,0.87415,1,,,,,,22,WORD,UN,50,wealth,JOCKEY,m,,,,,,0.009114583,-0.3984375,0,0,0,,0,78,78,201,1,
,,,,,,,,,,,,,,,,,,5ec799f7dab5741eaea37681,2020-08-10_11h08.00.448,lexical_decision_task_MP,2020.1.3,Win32,60,,z,1,0.882025,,,,,,,,0.882025,1,,,,,,321,NW,"ID",33,miator,MIATOR,z,,,,,,0.009114583,-0.3984375,0,0,0,,0,79,79,260,1,
,,,,,,,,,,,,,,,,,,5ec799f7dab5741eaea37681,2020-08-10_11h08.00.448,lexical_decision_task_MP,2020.1.3,Win32,60,,m,1,0.589025,,,,,,,,0.589025,1,,,,,,179,WORD,"ID",50,basket,BASKET,m,,,,,,0.009114583,-0.3984375,0,0,0,,0,80,80,118,1,
,,,,,,,,,,,,,,,,,,5ec799f7dab5741eaea37681,2020-08-10_11h08.00.448,lexical_decision_task_MP,2020.1.3,Win32,60,,z,1,0.78269,,,,,,,,0.78269,1,,,,,,444,NW,UN,33,minkel,JAUNCE,z,,,,,,0.009114583,-0.3984375,0,0,0,,0,81,81,383,1,
,,,,,,,,,,,,,,,,,,5ec799f7dab5741eaea37681,2020-08-10_11h08.00.448,lexical_decision_task_MP,2020.1.3,Win32,60,,z,1,0.77866,,,,,,,,0.77866,1,,,,,,330,NW,"ID",33,kensom,KENSOM,z,,,,,,0.009114583,-0.3984375,0,0,0,,0,82,82,269,1,
,,,,,,,,,,,,,,,,,,5ec799f7dab5741eaea37681,2020-08-10_11h08.00.448,lexical_decision_task_MP,2020.1.3,Win32,60,,m,1,0.745765,,,,,,,,0.745765,1,,,,,,54,WORD,UN,50,stroke,RAMBLE,m,,,,,,0.009114583,-0.3984375,0,0,0,,0,83,83,233,1,
,,,,,,,,,,,,,,,,,,5ec799f7dab5741eaea37681,2020-08-10_11h08.00.448,lexical_decision_task_MP,2020.1.3,Win32,60,,z,1,1.03381,,,,,,,,1.03381,1,,,,,,366,NW,"ID",50,toshel,TOSHEL,z,,,,,,0.009114583,-0.3984375,0,0,0,,0,84,84,305,1,
,,,,,,,,,,,,,,,,,,5ec799f7dab5741eaea37681,2020-08-10_11h08.00.448,lexical_decision_task_MP,2020.1.3,Win32,60,,z,1,0.6412,,,,,,,,0.6412,1,,,,,,347,NW,"ID",33,kerift,KERIFT,z,,,,,,0.009114583,-0.3984375,0,0,0,,0,85,85,286,1,
,,,,,,,,,,,,,,,,,,5ec799f7dab5741eaea37681,2020-08-10_11h08.00.448,lexical_decision_task_MP,2020.1.3,Win32,60,,z,0,0.632895,,,,,,,,0.632895,0,,,,,,184,WORD,UN,33,bother,SLEAZY,m,,,,,,0.009114583,-0.3984375,0,0,0,,0,86,86,123,1,
,,,,,,,,,,,,,,,,,,5ec799f7dab5741eaea37681,2020-08-10_11h08.00.448,lexical_decision_task_MP,2020.1.3,Win32,60,,m,1,0.874095,,,,,,,,0.874095,1,,,,,,7,WORD,UN,50,abrupt,ANCHOR,m,,,,,,0.009114583,-0.3984375,0,0,0,,0,87,87,186,1,
,,,,,,,,,,,,,,,,,,5ec799f7dab5741eaea37681,2020-08-10_11h08.00.448,lexical_decision_task_MP,2020.1.3,Win32,60,,m,1,0.924295,,,,,,,,0.924295,1,,,,,,32,WORD,UN,50,scream,BUCKLE,m,,,,,,0.009114583,-0.3984375,0,0,0,,0,88,88,211,1,
,,,,,,,,,,,,,,,,,,5ec799f7dab5741eaea37681,2020-08-10_11h08.00.448,lexical_decision_task_MP,2020.1.3,Win32,60,,m,1,0.637365,,,,,,,,0.637365,1,,,,,,193,WORD,UN,33,mildew,OBJECT,m,,,,,,0.009114583,-0.3984375,0,0,0,,0,89,89,132,1,
,,,,,,,,,,,,,,,,,,5ec799f7dab5741eaea37681,2020-08-10_11h08.00.448,lexical_decision_task_MP,2020.1.3,Win32,60,,z,1,0.73919,,,,,,,,0.73919,1,,,,,,308,NW,"ID",33,psetch,PSETCH,z,,,,,,0.009114583,-0.3984375,0,0,0,,0,90,90,247,1,
,,,,,,,,,,,,,,,,,,5ec799f7dab5741eaea37681,2020-08-10_11h08.00.448,lexical_decision_task_MP,2020.1.3,Win32,60,,z,1,0.679095,,,,,,,,0.679095,1,,,,,,430,NW,UN,33,chrums,CAROEY,z,,,,,,0.009114583,-0.3984375,0,0,0,,0,91,91,369,1,
,,,,,,,,,,,,,,,,,,5ec799f7dab5741eaea37681,2020-08-10_11h08.00.448,lexical_decision_task_MP,2020.1.3,Win32,60,,m,1,0.63935,,,,,,,,0.63935,1,,,,,,17,WORD,UN,50,humble,CHARGE,m,,,,,,0.009114583,-0.3984375,0,0,0,,0,92,92,196,1,
,,,,,,,,,,,,,,,,,,5ec799f7dab5741eaea37681,2020-08-10_11h08.00.448,lexical_decision_task_MP,2020.1.3,Win32,60,,z,1,0.631255,,,,,,,,0.631255,1,,,,,,440,NW,UN,33,rastoe,SARIDE,z,,,,,,0.009114583,-0.3984375,0,0,0,,0,93,93,379,1,
,,,,,,,,,,,,,,,,,,5ec799f7dab5741eaea37681,2020-08-10_11h08.00.448,lexical_decision_task_MP,2020.1.3,Win32,60,,m,1,0.592955,,,,,,,,0.592955,1,,,,,,210,WORD,UN,33,infect,MONKEY,m,,,,,,0.009114583,-0.3984375,0,0,0,,0,94,94,149,1,
,,,,,,,,,,,,,,,,,,5ec799f7dab5741eaea37681,2020-08-10_11h08.00.448,lexical_decision_task_MP,2020.1.3,Win32,60,,m,1,0.642685,,,,,,,,0.642685,1,,,,,,108,WORD,"ID",33,reckon,RECKON,m,,,,,,0.009114583,-0.3984375,0,0,0,,0,95,95,47,1,
,,,,,,,,,,,,,,,,,,5ec799f7dab5741eaea37681,2020-08-10_11h08.00.448,lexical_decision_task_MP,2020.1.3,Win32,60,,z,1,0.65024,,,,,,,,0.65024,1,,,,,,460,NW,UN,33,justre,MINGAR,z,,,,,,0.009114583,-0.3984375,0,0,0,,0,96,96,399,1,
,,,,,,,,,,,,,,,,,,5ec799f7dab5741eaea37681,2020-08-10_11h08.00.448,lexical_decision_task_MP,2020.1.3,Win32,60,,m,1,0.59551,,,,,,,,0.59551,1,,,,,,51,WORD,UN,50,impose,HUNGRY,m,,,,,,0.009114583,-0.3984375,0,0,0,,0,97,97,230,1,
,,,,,,,,,,,,,,,,,,5ec799f7dab5741eaea37681,2020-08-10_11h08.00.448,lexical_decision_task_MP,2020.1.3,Win32,60,,m,1,0.54485,,,,,,,,0.54485,1,,,,,,191,WORD,UN,33,beacon,STABLE,m,,,,,,0.009114583,-0.3984375,0,0,0,,0,98,98,130,1,
,,,,,,,,,,,,,,,,,,5ec799f7dab5741eaea37681,2020-08-10_11h08.00.448,lexical_decision_task_MP,2020.1.3,Win32,60,,m,1,0.632135,,,,,,,,0.632135,1,,,,,,189,WORD,UN,33,backup,CENSOR,m,,,,,,0.009114583,-0.3984375,0,0,0,,0,99,99,128,1,
,,,,,,,,,,,,,,,,,,5ec799f7dab5741eaea37681,2020-08-10_11h08.00.448,lexical_decision_task_MP,2020.1.3,Win32,60,,z,1,0.72235,,,,,,,,0.72235,1,,,,,,450,NW,UN,33,cainky,PHRECT,z,,,,,,0.009114583,-0.3984375,0,0,0,,0,100,100,389,1,
,,,,,,,,,,,,,,,,,,5ec799f7dab5741eaea37681,2020-08-10_11h08.00.448,lexical_decision_task_MP,2020.1.3,Win32,60,,m,1,0.57913,,,,,,,,0.57913,1,,,,,,102,WORD,"ID",33,direct,DIRECT,m,,,,,,0.009114583,-0.3984375,0,0,0,,0,101,101,41,1,
,,,,,,,,,,,,,,,,,,5ec799f7dab5741eaea37681,2020-08-10_11h08.00.448,lexical_decision_task_MP,2020.1.3,Win32,60,,z,1,0.8699,,,,,,,,0.8699,1,,,,,,466,NW,UN,33,robuly,HOCITE,z,,,,,,0.009114583,-0.3984375,0,0,0,,0,102,102,405,1,
,,,,,,,,,,,,,,,,,,5ec799f7dab5741eaea37681,2020-08-10_11h08.00.448,lexical_decision_task_MP,2020.1.3,Win32,60,,z,1,0.631745,,,,,,,,0.631745,1,,,,,,293,NW,UN,50,inhort,SWANCE,z,,,,,,0.009114583,-0.3984375,0,0,0,,0,103,103,472,1,
,,,,,,,,,,,,,,,,,,5ec799f7dab5741eaea37681,2020-08-10_11h08.00.448,lexical_decision_task_MP,2020.1.3,Win32,60,,z,1,0.823545,,,,,,,,0.823545,1,,,,,,296,NW,UN,50,fertic,BEINCH,z,,,,,,0.009114583,-0.3984375,0,0,0,,0,104,104,475,1,
,,,,,,,,,,,,,,,,,,5ec799f7dab5741eaea37681,2020-08-10_11h08.00.448,lexical_decision_task_MP,2020.1.3,Win32,60,,z,1,0.9787,,,,,,,,0.9787,1,,,,,,278,NW,UN,50,celond,UNIGHS,z,,,,,,0.009114583,-0.3984375,0,0,0,,0,105,105,457,1,
,,,,,,,,,,,,,,,,,,5ec799f7dab5741eaea37681,2020-08-10_11h08.00.448,lexical_decision_task_MP,2020.1.3,Win32,60,,m,1,0.595285,,,,,,,,0.595285,1,,,,,,161,WORD,"ID",50,pastor,PASTOR,m,,,,,,0.009114583,-0.3984375,0,0,0,,0,106,106,100,1,
,,,,,,,,,,,,,,,,,,5ec799f7dab5741eaea37681,2020-08-10_11h08.00.448,lexical_decision_task_MP,2020.1.3,Win32,60,,z,1,0.65173,,,,,,,,0.65173,1,,,,,,475,NW,UN,33,josted,PEBRIC,z,,,,,,0.009114583,-0.3984375,0,0,0,,0,107,107,414,1,
,,,,,,,,,,,,,,,,,,5ec799f7dab5741eaea37681,2020-08-10_11h08.00.448,lexical_decision_task_MP,2020.1.3,Win32,60,,m,1,0.63619,,,,,,,,0.63619,1,,,,,,186,WORD,UN,33,course,PORTAL,m,,,,,,0.009114583,-0.3984375,0,0,0,,0,108,108,125,1,
,,,,,,,,,,,,,,,,,,5ec799f7dab5741eaea37681,2020-08-10_11h08.00.448,lexical_decision_task_MP,2020.1.3,Win32,60,,z,1,0.635815,,,,,,,,0.635815,1,,,,,,329,NW,"ID",33,yarike,YARIKE,z,,,,,,0.009114583,-0.3984375,0,0,0,,0,109,109,268,1,
,,,,,,,,,,,,,,,,,,5ec799f7dab5741eaea37681,2020-08-10_11h08.00.448,lexical_decision_task_MP,2020.1.3,Win32,60,,z,1,1.22393,,,,,,,,1.22393,1,,,,,,454,NW,UN,33,tondle,SCOUGE,z,,,,,,0.009114583,-0.3984375,0,0,0,,0,110,110,393,1,
,,,,,,,,,,,,,,,,,,5ec799f7dab5741eaea37681,2020-08-10_11h08.00.448,lexical_decision_task_MP,2020.1.3,Win32,60,,m,1,0.888095,,,,,,,,0.888095,1,,,,,,68,WORD,"ID",33,fumble,FUMBLE,m,,,,,,0.009114583,-0.3984375,0,0,0,,0,111,111,7,1,
,,,,,,,,,,,,,,,,,,5ec799f7dab5741eaea37681,2020-08-10_11h08.00.448,lexical_decision_task_MP,2020.1.3,Win32,60,,z,1,0.639345,,,,,,,,0.639345,1,,,,,,268,NW,UN,50,orchet,PACKES,z,,,,,,0.009114583,-0.3984375,0,0,0,,0,112,112,447,1,
,,,,,,,,,,,,,,,,,,5ec799f7dab5741eaea37681,2020-08-10_11h08.00.448,lexical_decision_task_MP,2020.1.3,Win32,60,,m,1,0.728645,,,,,,,,0.728645,1,,,,,,13,WORD,UN,50,almost,STRIVE,m,,,,,,0.009114583,-0.3984375,0,0,0,,0,113,113,192,1,
,,,,,,,,,,,,,,,,,,5ec799f7dab5741eaea37681,2020-08-10_11h08.00.448,lexical_decision_task_MP,2020.1.3,Win32,60,,z,1,0.68649,,,,,,,,0.68649,1,,,,,,263,NW,UN,50,vackel,DOLICA,z,,,,,,0.009114583,-0.3984375,0,0,0,,0,114,114,442,1,
,,,,,,,,,,,,,,,,,,5ec799f7dab5741eaea37681,2020-08-10_11h08.00.448,lexical_decision_task_MP,2020.1.3,Win32,60,,z,1,0.630925,,,,,,,,0.630925,1,,,,,,400,NW,"ID",50,wearox,WEAROX,z,,,,,,0.009114583,-0.3984375,0,0,0,,0,115,115,339,1,
,,,,,,,,,,,,,,,,,,5ec799f7dab5741eaea37681,2020-08-10_11h08.00.448,lexical_decision_task_MP,2020.1.3,Win32,60,,m,1,0.9709,,,,,,,,0.9709,1,,,,,,166,WORD,"ID",50,starch,STARCH,m,,,,,,0.009114583,-0.3984375,0,0,0,,0,116,116,105,1,
,,,,,,,,,,,,,,,,,,5ec799f7dab5741eaea37681,2020-08-10_11h08.00.448,lexical_decision_task_MP,2020.1.3,Win32,60,,m,1,0.890775,,,,,,,,0.890775,1,,,,,,46,WORD,UN,50,income,SINGLE,m,,,,,,0.009114583,-0.3984375,0,0,0,,0,117,117,225,1,
,,,,,,,,,,,,,,,,,,5ec799f7dab5741eaea37681,2020-08-10_11h08.00.448,lexical_decision_task_MP,2020.1.3,Win32,60,,z,1,0.64998,,,,,,,,0.64998,1,,,,,,385,NW,"ID",50,veigma,VEIGMA,z,,,,,,0.009114583,-0.3984375,0,0,0,,0,118,118,324,1,
,,,,,,,,,,,,,,,,,,5ec799f7dab5741eaea37681,2020-08-10_11h08.00.448,lexical_decision_task_MP,2020.1.3,Win32,60,,m,1,0.771045,,,,,,,,0.771045,1,,,,,,233,WORD,UN,33,clumsy,NATURE,m,,,,,,0.009114583,-0.3984375,0,0,0,,0,119,119,172,1,
,,,,,,,,,,,,,,,,,,5ec799f7dab5741eaea37681,2020-08-10_11h08.00.448,lexical_decision_task_MP,2020.1.3,Win32,60,,m,1,0.77398,,,,,,,,0.77398,1,,,,,,227,WORD,UN,33,master,SELDOM,m,,,,,,0.009114583,-0.3984375,0,0,0,space,0,120,120,166,1,13.207395
,,,,,,,,,,,,,,,,,,5ec799f7dab5741eaea37681,2020-08-10_11h08.00.448,lexical_decision_task_MP,2020.1.3,Win32,60,,m,1,0.820335,,,,,,,,0.820335,1,,,,,,192,WORD,UN,33,object,PLAGUE,m,,,,,,0.009114583,-0.3984375,0,0,0,,0,121,121,131,1,
,,,,,,,,,,,,,,,,,,5ec799f7dab5741eaea37681,2020-08-10_11h08.00.448,lexical_decision_task_MP,2020.1.3,Win32,60,,m,1,0.58012,,,,,,,,0.58012,1,,,,,,167,WORD,"ID",50,design,DESIGN,m,,,,,,0.009114583,-0.3984375,0,0,0,,0,122,122,106,1,
,,,,,,,,,,,,,,,,,,5ec799f7dab5741eaea37681,2020-08-10_11h08.00.448,lexical_decision_task_MP,2020.1.3,Win32,60,,z,1,0.728975,,,,,,,,0.728975,1,,,,,,459,NW,UN,33,mingar,BAFENT,z,,,,,,0.009114583,-0.3984375,0,0,0,,0,123,123,398,1,
,,,,,,,,,,,,,,,,,,5ec799f7dab5741eaea37681,2020-08-10_11h08.00.448,lexical_decision_task_MP,2020.1.3,Win32,60,,z,1,0.730975,,,,,,,,0.730975,1,,,,,,377,NW,"ID",50,injore,INJORE,z,,,,,,0.009114583,-0.3984375,0,0,0,,0,124,124,316,1,
,,,,,,,,,,,,,,,,,,5ec799f7dab5741eaea37681,2020-08-10_11h08.00.448,lexical_decision_task_MP,2020.1.3,Win32,60,,z,1,0.599815,,,,,,,,0.599815,1,,,,,,376,NW,"ID",50,iguare,IGUARE,z,,,,,,0.009114583,-0.3984375,0,0,0,,0,125,125,315,1,
,,,,,,,,,,,,,,,,,,5ec799f7dab5741eaea37681,2020-08-10_11h08.00.448,lexical_decision_task_MP,2020.1.3,Win32,60,,z,1,0.58902,,,,,,,,0.58902,1,,,,,,412,NW,"ID",50,jiluer,JILUER,z,,,,,,0.009114583,-0.3984375,0,0,0,,0,126,126,351,1,
,,,,,,,,,,,,,,,,,,5ec799f7dab5741eaea37681,2020-08-10_11h08.00.448,lexical_decision_task_MP,2020.1.3,Win32,60,,,0,,,,,,,,,0.58902,-1,,,,,,212,WORD,UN,33,squeal,VERIFY,m,,,,,,0.009114583,-0.3984375,0,0,0,,0,127,127,151,1,
,,,,,,,,,,,,,,,,,,5ec799f7dab5741eaea37681,2020-08-10_11h08.00.448,lexical_decision_task_MP,2020.1.3,Win32,60,,z,1,1.351645,,,,,,,,1.351645,1,,,,,,306,NW,"ID",33,sounge,SOUNGE,z,,,,,,0.009114583,-0.3984375,0,0,0,,0,128,128,245,1,
,,,,,,,,,,,,,,,,,,5ec799f7dab5741eaea37681,2020-08-10_11h08.00.448,lexical_decision_task_MP,2020.1.3,Win32,60,,m,1,0.563185,,,,,,,,0.563185,1,,,,,,146,WORD,"ID",50,couple,COUPLE,m,,,,,,0.009114583,-0.3984375,0,0,0,,0,129,129,85,1,
,,,,,,,,,,,,,,,,,,5ec799f7dab5741eaea37681,2020-08-10_11h08.00.448,lexical_decision_task_MP,2020.1.3,Win32,60,,m,1,0.57909,,,,,,,,0.57909,1,,,,,,20,WORD,UN,50,simple,BREAST,m,,,,,,0.009114583,-0.3984375,0,0,0,,0,130,130,199,1,
,,,,,,,,,,,,,,,,,,5ec799f7dab5741eaea37681,2020-08-10_11h08.00.448,lexical_decision_task_MP,2020.1.3,Win32,60,,m,1,0.53453,,,,,,,,0.53453,1,,,,,,168,WORD,"ID",50,answer,ANSWER,m,,,,,,0.009114583,-0.3984375,0,0,0,,0,131,131,107,1,
,,,,,,,,,,,,,,,,,,5ec799f7dab5741eaea37681,2020-08-10_11h08.00.448,lexical_decision_task_MP,2020.1.3,Win32,60,,z,1,0.631505,,,,,,,,0.631505,1,,,,,,271,NW,UN,50,damilt,AUBRID,z,,,,,,0.009114583,-0.3984375,0,0,0,,0,132,132,450,1,
,,,,,,,,,,,,,,,,,,5ec799f7dab5741eaea37681,2020-08-10_11h08.00.448,lexical_decision_task_MP,2020.1.3,Win32,60,,m,1,0.60597,,,,,,,,0.60597,1,,,,,,152,WORD,"ID",50,rocket,ROCKET,m,,,,,,0.009114583,-0.3984375,0,0,0,,0,133,133,91,1,
,,,,,,,,,,,,,,,,,,5ec799f7dab5741eaea37681,2020-08-10_11h08.00.448,lexical_decision_task_MP,2020.1.3,Win32,60,,z,1,0.7542,,,,,,,,0.7542,1,,,,,,343,NW,"ID",33,aimosy,AIMOSY,z,,,,,,0.009114583,-0.3984375,0,0,0,,0,134,134,282,1,
,,,,,,,,,,,,,,,,,,5ec799f7dab5741eaea37681,2020-08-10_11h08.00.448,lexical_decision_task_MP,2020.1.3,Win32,60,,z,1,1.286585,,,,,,,,1.286585,1,,,,,,468,NW,UN,33,padifs,WICTOR,z,,,,,,0.009114583,-0.3984375,0,0,0,,0,135,135,407,1,
,,,,,,,,,,,,,,,,,,5ec799f7dab5741eaea37681,2020-08-10_11h08.00.448,lexical_decision_task_MP,2020.1.3,Win32,60,,z,1,1.19527,,,,,,,,1.19527,1,,,,,,364,NW,"ID",50,impote,IMPOTE,z,,,,,,0.009114583,-0.3984375,0,0,0,,0,136,136,303,1,
,,,,,,,,,,,,,,,,,,5ec799f7dab5741eaea37681,2020-08-10_11h08.00.448,lexical_decision_task_MP,2020.1.3,Win32,60,,m,1,0.83689,,,,,,,,0.83689,1,,,,,,228,WORD,UN,33,kidney,MASTER,m,,,,,,0.009114583,-0.3984375,0,0,0,,0,137,137,167,1,
,,,,,,,,,,,,,,,,,,5ec799f7dab5741eaea37681,2020-08-10_11h08.00.448,lexical_decision_task_MP,2020.1.3,Win32,60,,z,1,0.62831,,,,,,,,0.62831,1,,,,,,309,NW,"ID",33,amiloy,AMILOY,z,,,,,,0.009114583,-0.3984375,0,0,0,,0,138,138,248,1,
,,,,,,,,,,,,,,,,,,5ec799f7dab5741eaea37681,2020-08-10_11h08.00.448,lexical_decision_task_MP,2020.1.3,Win32,60,,m,1,0.63307,,,,,,,,0.63307,1,,,,,,204,WORD,UN,33,lounge,BURDEN,m,,,,,,0.009114583,-0.3984375,0,0,0,,0,139,139,143,1,
,,,,,,,,,,,,,,,,,,5ec799f7dab5741eaea37681,2020-08-10_11h08.00.448,lexical_decision_task_MP,2020.1.3,Win32,60,,z,1,0.835805,,,,,,,,0.835805,1,,,,,,424,NW,UN,33,frudge,PRAILE,z,,,,,,0.009114583,-0.3984375,0,0,0,,0,140,140,363,1,
,,,,,,,,,,,,,,,,,,5ec799f7dab5741eaea37681,2020-08-10_11h08.00.448,lexical_decision_task_MP,2020.1.3,Win32,60,,m,1,0.680025,,,,,,,,0.680025,1,,,,,,144,WORD,"ID",50,sponge,SPONGE,m,,,,,,0.009114583,-0.3984375,0,0,0,,0,141,141,83,1,
,,,,,,,,,,,,,,,,,,5ec799f7dab5741eaea37681,2020-08-10_11h08.00.448,lexical_decision_task_MP,2020.1.3,Win32,60,,z,1,0.982205,,,,,,,,0.982205,1,,,,,,420,NW,"ID",50,gushop,GUSHOP,z,,,,,,0.009114583,-0.3984375,0,0,0,,0,142,142,359,1,
,,,,,,,,,,,,,,,,,,5ec799f7dab5741eaea37681,2020-08-10_11h08.00.448,lexical_decision_task_MP,2020.1.3,Win32,60,,m,1,1.02354,,,,,,,,1.02354,1,,,,,,92,WORD,"ID",33,strand,STRAND,m,,,,,,0.009114583,-0.3984375,0,0,0,,0,143,143,31,1,
,,,,,,,,,,,,,,,,,,5ec799f7dab5741eaea37681,2020-08-10_11h08.00.448,lexical_decision_task_MP,2020.1.3,Win32,60,,z,1,0.697685,,,,,,,,0.697685,1,,,,,,419,NW,"ID",50,slount,SLOUNT,z,,,,,,0.009114583,-0.3984375,0,0,0,,0,144,144,358,1,
,,,,,,,,,,,,,,,,,,5ec799f7dab5741eaea37681,2020-08-10_11h08.00.448,lexical_decision_task_MP,2020.1.3,Win32,60,,m,1,0.686045,,,,,,,,0.686045,1,,,,,,187,WORD,UN,33,social,COURSE,m,,,,,,0.009114583,-0.3984375,0,0,0,,0,145,145,126,1,
,,,,,,,,,,,,,,,,,,5ec799f7dab5741eaea37681,2020-08-10_11h08.00.448,lexical_decision_task_MP,2020.1.3,Win32,60,,m,1,0.727575,,,,,,,,0.727575,1,,,,,,56,WORD,UN,50,change,AMBUSH,m,,,,,,0.009114583,-0.3984375,0,0,0,,0,146,146,235,1,
,,,,,,,,,,,,,,,,,,5ec799f7dab5741eaea37681,2020-08-10_11h08.00.448,lexical_decision_task_MP,2020.1.3,Win32,60,,z,1,0.7368,,,,,,,,0.7368,1,,,,,,331,NW,"ID",33,gilfew,GILFEW,z,,,,,,0.009114583,-0.3984375,0,0,0,,0,147,147,270,1,
,,,,,,,,,,,,,,,,,,5ec799f7dab5741eaea37681,2020-08-10_11h08.00.448,lexical_decision_task_MP,2020.1.3,Win32,60,,z,1,0.98763,,,,,,,,0.98763,1,,,,,,288,NW,UN,50,starby,YACEUP,z,,,,,,0.009114583,-0.3984375,0,0,0,,0,148,148,467,1,
,,,,,,,,,,,,,,,,,,5ec799f7dab5741eaea37681,2020-08-10_11h08.00.448,lexical_decision_task_MP,2020.1.3,Win32,60,,m,1,0.721385,,,,,,,,0.721385,1,,,,,,52,WORD,UN,50,police,IMPOSE,m,,,,,,0.009114583,-0.3984375,0,0,0,,0,149,149,231,1,
,,,,,,,,,,,,,,,,,,5ec799f7dab5741eaea37681,2020-08-10_11h08.00.448,lexical_decision_task_MP,2020.1.3,Win32,60,,z,1,0.639915,,,,,,,,0.639915,1,,,,,,254,NW,UN,50,apight,VAROSH,z,,,,,,0.009114583,-0.3984375,0,0,0,,0,150,150,433,1,
,,,,,,,,,,,,,,,,,,5ec799f7dab5741eaea37681,2020-08-10_11h08.00.448,lexical_decision_task_MP,2020.1.3,Win32,60,,z,1,0.678305,,,,,,,,0.678305,1,,,,,,467,NW,UN,33,wictor,GORBIE,z,,,,,,0.009114583,-0.3984375,0,0,0,,0,151,151,406,1,
,,,,,,,,,,,,,,,,,,5ec799f7dab5741eaea37681,2020-08-10_11h08.00.448,lexical_decision_task_MP,2020.1.3,Win32,60,,z,1,0.67969,,,,,,,,0.67969,1,,,,,,262,NW,UN,50,dolica,QUILEW,z,,,,,,0.009114583,-0.3984375,0,0,0,,0,152,152,441,1,
,,,,,,,,,,,,,,,,,,5ec799f7dab5741eaea37681,2020-08-10_11h08.00.448,lexical_decision_task_MP,2020.1.3,Win32,60,,z,1,0.730965,,,,,,,,0.730965,1,,,,,,447,NW,UN,33,sadent,GIRCUE,z,,,,,,0.009114583,-0.3984375,0,0,0,,0,153,153,386,1,
,,,,,,,,,,,,,,,,,,5ec799f7dab5741eaea37681,2020-08-10_11h08.00.448,lexical_decision_task_MP,2020.1.3,Win32,60,,m,1,0.54583,,,,,,,,0.54583,1,,,,,,148,WORD,"ID",50,custom,CUSTOM,m,,,,,,0.009114583,-0.3984375,0,0,0,,0,154,154,87,1,
,,,,,,,,,,,,,,,,,,5ec799f7dab5741eaea37681,2020-08-10_11h08.00.448,lexical_decision_task_MP,2020.1.3,Win32,60,,z,1,0.634435,,,,,,,,0.634435,1,,,,,,411,NW,"ID",50,orchin,ORCHIN,z,,,,,,0.009114583,-0.3984375,0,0,0,,0,155,155,350,1,
,,,,,,,,,,,,,,,,,,5ec799f7dab5741eaea37681,2020-08-10_11h08.00.448,lexical_decision_task_MP,2020.1.3,Win32,60,,z,1,0.97039,,,,,,,,0.97039,1,,,,,,426,NW,UN,33,schind,URIVEL,z,,,,,,0.009114583,-0.3984375,0,0,0,,0,156,156,365,1,
,,,,,,,,,,,,,,,,,,5ec799f7dab5741eaea37681,2020-08-10_11h08.00.448,lexical_decision_task_MP,2020.1.3,Win32,60,,m,1,0.769195,,,,,,,,0.769195,1,,,,,,60,WORD,UN,50,fright,PENCIL,m,,,,,,0.009114583,-0.3984375,0,0,0,,0,157,157,239,1,
,,,,,,,,,,,,,,,,,,5ec799f7dab5741eaea37681,2020-08-10_11h08.00.448,lexical_decision_task_MP,2020.1.3,Win32,60,,z,1,0.727535,,,,,,,,0.727535,1,,,,,,417,NW,"ID",50,earoud,EAROUD,z,,,,,,0.009114583,-0.3984375,0,0,0,,0,158,158,356,1,
,,,,,,,,,,,,,,,,,,5ec799f7dab5741eaea37681,2020-08-10_11h08.00.448,lexical_decision_task_MP,2020.1.3,Win32,60,,m,0,0.678535,,,,,,,,0.678535,0,,,,,,260,NW,UN,50,stunch,UNJECT,z,,,,,,0.009114583,-0.3984375,0,0,0,,0,159,159,439,1,
,,,,,,,,,,,,,,,,,,5ec799f7dab5741eaea37681,2020-08-10_11h08.00.448,lexical_decision_task_MP,2020.1.3,Win32,60,,z,1,0.817185,,,,,,,,0.817185,1,,,,,,390,NW,"ID",50,hatrus,HATRUS,z,,,,,,0.009114583,-0.3984375,0,0,0,,0,160,160,329,1,
,,,,,,,,,,,,,,,,,,5ec799f7dab5741eaea37681,2020-08-10_11h08.00.448,lexical_decision_task_MP,2020.1.3,Win32,60,,z,1,0.528025,,,,,,,,0.528025,1,,,,,,478,NW,UN,33,pebric,ACRISE,z,,,,,,0.009114583,-0.3984375,0,0,0,,0,161,161,417,1,
,,,,,,,,,,,,,,,,,,5ec799f7dab5741eaea37681,2020-08-10_11h08.00.448,lexical_decision_task_MP,2020.1.3,Win32,60,,z,1,0.54157,,,,,,,,0.54157,1,,,,,,371,NW,"ID",50,geiloy,GEILOY,z,,,,,,0.009114583,-0.3984375,0,0,0,,0,162,162,310,1,
,,,,,,,,,,,,,,,,,,5ec799f7dab5741eaea37681,2020-08-10_11h08.00.448,lexical_decision_task_MP,2020.1.3,Win32,60,,z,1,0.786775,,,,,,,,0.786775,1,,,,,,345,NW,"ID",33,absend,ABSEND,z,,,,,,0.009114583,-0.3984375,0,0,0,,0,163,163,284,1,
,,,,,,,,,,,,,,,,,,5ec799f7dab5741eaea37681,2020-08-10_11h08.00.448,lexical_decision_task_MP,2020.1.3,Win32,60,,m,1,0.887385,,,,,,,,0.887385,1,,,,,,211,WORD,UN,33,verify,INFECT,m,,,,,,0.009114583,-0.3984375,0,0,0,,0,164,164,150,1,
,,,,,,,,,,,,,,,,,,5ec799f7dab5741eaea37681,2020-08-10_11h08.00.448,lexical_decision_task_MP,2020.1.3,Win32,60,,,0,,,,,,,,,0.887385,-1,,,,,,344,NW,"ID",33,scrily,SCRILY,z,,,,,,0.009114583,-0.3984375,0,0,0,,0,165,165,283,1,
,,,,,,,,,,,,,,,,,,5ec799f7dab5741eaea37681,2020-08-10_11h08.00.448,lexical_decision_task_MP,2020.1.3,Win32,60,,m,1,1.7965,,,,,,,,1.7965,1,,,,,,79,WORD,"ID",33,theory,THEORY,m,,,,,,0.009114583,-0.3984375,0,0,0,,0,166,166,18,1,
,,,,,,,,,,,,,,,,,,5ec799f7dab5741eaea37681,2020-08-10_11h08.00.448,lexical_decision_task_MP,2020.1.3,Win32,60,,z,1,0.81909,,,,,,,,0.81909,1,,,,,,251,NW,UN,50,stapod,LUPICT,z,,,,,,0.009114583,-0.3984375,0,0,0,,0,167,167,430,1,
,,,,,,,,,,,,,,,,,,5ec799f7dab5741eaea37681,2020-08-10_11h08.00.448,lexical_decision_task_MP,2020.1.3,Win32,60,,m,0,0.72634,,,,,,,,0.72634,0,,,,,,348,NW,"ID",33,dumple,DUMPLE,z,,,,,,0.009114583,-0.3984375,0,0,0,,0,168,168,287,1,
,,,,,,,,,,,,,,,,,,5ec799f7dab5741eaea37681,2020-08-10_11h08.00.448,lexical_decision_task_MP,2020.1.3,Win32,60,,m,1,0.8285,,,,,,,,0.8285,1,,,,,,132,WORD,"ID",50,strong,STRONG,m,,,,,,0.009114583,-0.3984375,0,0,0,,0,169,169,71,1,
,,,,,,,,,,,,,,,,,,5ec799f7dab5741eaea37681,2020-08-10_11h08.00.448,lexical_decision_task_MP,2020.1.3,Win32,60,,z,1,0.77421,,,,,,,,0.77421,1,,,,,,423,NW,UN,33,praile,STRELD,z,,,,,,0.009114583,-0.3984375,0,0,0,,0,170,170,362,1,
,,,,,,,,,,,,,,,,,,5ec799f7dab5741eaea37681,2020-08-10_11h08.00.448,lexical_decision_task_MP,2020.1.3,Win32,60,,z,1,1.172225,,,,,,,,1.172225,1,,,,,,334,NW,"ID",33,watmeg,WATMEG,z,,,,,,0.009114583,-0.3984375,0,0,0,,0,171,171,273,1,
,,,,,,,,,,,,,,,,,,5ec799f7dab5741eaea37681,2020-08-10_11h08.00.448,lexical_decision_task_MP,2020.1.3,Win32,60,,m,1,0.78462,,,,,,,,0.78462,1,,,,,,136,WORD,"ID",50,bleach,BLEACH,m,,,,,,0.009114583,-0.3984375,0,0,0,,0,172,172,75,1,
,,,,,,,,,,,,,,,,,,5ec799f7dab5741eaea37681,2020-08-10_11h08.00.448,lexical_decision_task_MP,2020.1.3,Win32,60,,m,1,0.63017,,,,,,,,0.63017,1,,,,,,159,WORD,"ID",50,detail,DETAIL,m,,,,,,0.009114583,-0.3984375,0,0,0,,0,173,173,98,1,
,,,,,,,,,,,,,,,,,,5ec799f7dab5741eaea37681,2020-08-10_11h08.00.448,lexical_decision_task_MP,2020.1.3,Win32,60,,m,1,0.58757,,,,,,,,0.58757,1,,,,,,215,WORD,UN,33,lumber,PHOBIA,m,,,,,,0.009114583,-0.3984375,0,0,0,,0,174,174,154,1,
,,,,,,,,,,,,,,,,,,5ec799f7dab5741eaea37681,2020-08-10_11h08.00.448,lexical_decision_task_MP,2020.1.3,Win32,60,,z,1,1.448135,,,,,,,,1.448135,1,,,,,,358,NW,"ID",33,fleack,FLEACK,z,,,,,,0.009114583,-0.3984375,0,0,0,,0,175,175,297,1,
,,,,,,,,,,,,,,,,,,5ec799f7dab5741eaea37681,2020-08-10_11h08.00.448,lexical_decision_task_MP,2020.1.3,Win32,60,,m,1,0.676135,,,,,,,,0.676135,1,,,,,,124,WORD,"ID",50,blouse,BLOUSE,m,,,,,,0.009114583,-0.3984375,0,0,0,,0,176,176,63,1,
,,,,,,,,,,,,,,,,,,5ec799f7dab5741eaea37681,2020-08-10_11h08.00.448,lexical_decision_task_MP,2020.1.3,Win32,60,,m,1,0.590445,,,,,,,,0.590445,1,,,,,,24,WORD,UN,50,domain,PRAISE,m,,,,,,0.009114583,-0.3984375,0,0,0,,0,177,177,203,1,
,,,,,,,,,,,,,,,,,,5ec799f7dab5741eaea37681,2020-08-10_11h08.00.448,lexical_decision_task_MP,2020.1.3,Win32,60,,z,1,0.72191,,,,,,,,0.72191,1,,,,,,311,NW,"ID",33,sproly,SPROLY,z,,,,,,0.009114583,-0.3984375,0,0,0,,0,178,178,250,1,
,,,,,,,,,,,,,,,,,,5ec799f7dab5741eaea37681,2020-08-10_11h08.00.448,lexical_decision_task_MP,2020.1.3,Win32,60,,m,1,0.918255,,,,,,,,0.918255,1,,,,,,239,WORD,UN,33,forest,LUMBER,m,,,,,,0.009114583,-0.3984375,0,0,0,,0,179,179,178,1,
,,,,,,,,,,,,,,,,,,5ec799f7dab5741eaea37681,2020-08-10_11h08.00.448,lexical_decision_task_MP,2020.1.3,Win32,60,,z,0,0.919565,,,,,,,,0.919565,0,,,,,,207,WORD,UN,33,hockey,WREATH,m,,,,,,0.009114583,-0.3984375,0,0,0,,0,180,180,146,1,
,,,,,,,,,,,,,,,,,,5ec799f7dab5741eaea37681,2020-08-10_11h08.00.448,lexical_decision_task_MP,2020.1.3,Win32,60,,m,1,0.965395,,,,,,,,0.965395,1,,,,,,40,WORD,UN,50,spring,CONVEY,m,,,,,,0.009114583,-0.3984375,0,0,0,,0,181,181,219,1,
,,,,,,,,,,,,,,,,,,5ec799f7dab5741eaea37681,2020-08-10_11h08.00.448,lexical_decision_task_MP,2020.1.3,Win32,60,,z,1,0.824175,,,,,,,,0.824175,1,,,,,,441,NW,UN,33,aboune,RASTOE,z,,,,,,0.009114583,-0.3984375,0,0,0,,0,182,182,380,1,
,,,,,,,,,,,,,,,,,,5ec799f7dab5741eaea37681,2020-08-10_11h08.00.448,lexical_decision_task_MP,2020.1.3,Win32,60,,m,1,0.62989,,,,,,,,0.62989,1,,,,,,44,WORD,UN,50,clergy,DANGER,m,,,,,,0.009114583,-0.3984375,0,0,0,,0,183,183,223,1,
,,,,,,,,,,,,,,,,,,5ec799f7dab5741eaea37681,2020-08-10_11h08.00.448,lexical_decision_task_MP,2020.1.3,Win32,60,,m,1,0.634255,,,,,,,,0.634255,1,,,,,,66,WORD,"ID",33,gospel,GOSPEL,m,,,,,,0.009114583,-0.3984375,0,0,0,,0,184,184,5,1,
,,,,,,,,,,,,,,,,,,5ec799f7dab5741eaea37681,2020-08-10_11h08.00.448,lexical_decision_task_MP,2020.1.3,Win32,60,,m,1,0.78703,,,,,,,,0.78703,1,,,,,,175,WORD,"ID",50,fabric,FABRIC,m,,,,,,0.009114583,-0.3984375,0,0,0,,0,185,185,114,1,
,,,,,,,,,,,,,,,,,,5ec799f7dab5741eaea37681,2020-08-10_11h08.00.448,lexical_decision_task_MP,2020.1.3,Win32,60,,m,1,0.89574,,,,,,,,0.89574,1,,,,,,116,WORD,"ID",33,tumble,TUMBLE,m,,,,,,0.009114583,-0.3984375,0,0,0,,0,186,186,55,1,
,,,,,,,,,,,,,,,,,,5ec799f7dab5741eaea37681,2020-08-10_11h08.00.448,lexical_decision_task_MP,2020.1.3,Win32,60,,z,1,0.6739,,,,,,,,0.6739,1,,,,,,257,NW,UN,50,poluth,VENIOD,z,,,,,,0.009114583,-0.3984375,0,0,0,,0,187,187,436,1,
,,,,,,,,,,,,,,,,,,5ec799f7dab5741eaea37681,2020-08-10_11h08.00.448,lexical_decision_task_MP,2020.1.3,Win32,60,,m,1,0.680815,,,,,,,,0.680815,1,,,,,,76,WORD,"ID",33,exotic,EXOTIC,m,,,,,,0.009114583,-0.3984375,0,0,0,,0,188,188,15,1,
,,,,,,,,,,,,,,,,,,5ec799f7dab5741eaea37681,2020-08-10_11h08.00.448,lexical_decision_task_MP,2020.1.3,Win32,60,,z,1,0.85702,,,,,,,,0.85702,1,,,,,,269,NW,UN,50,wrimsy,ORCHET,z,,,,,,0.009114583,-0.3984375,0,0,0,,0,189,189,448,1,
,,,,,,,,,,,,,,,,,,5ec799f7dab5741eaea37681,2020-08-10_11h08.00.448,lexical_decision_task_MP,2020.1.3,Win32,60,,m,1,0.79528,,,,,,,,0.79528,1,,,,,,199,WORD,UN,33,plague,INVOKE,m,,,,,,0.009114583,-0.3984375,0,0,0,,0,190,190,138,1,
,,,,,,,,,,,,,,,,,,5ec799f7dab5741eaea37681,2020-08-10_11h08.00.448,lexical_decision_task_MP,2020.1.3,Win32,60,,z,1,0.672155,,,,,,,,0.672155,1,,,,,,470,NW,UN,33,nobest,CRUDIO,z,,,,,,0.009114583,-0.3984375,0,0,0,,0,191,191,409,1,
,,,,,,,,,,,,,,,,,,5ec799f7dab5741eaea37681,2020-08-10_11h08.00.448,lexical_decision_task_MP,2020.1.3,Win32,60,,z,1,0.877615,,,,,,,,0.877615,1,,,,,,338,NW,"ID",33,wreash,WREASH,z,,,,,,0.009114583,-0.3984375,0,0,0,,0,192,192,277,1,
,,,,,,,,,,,,,,,,,,5ec799f7dab5741eaea37681,2020-08-10_11h08.00.448,lexical_decision_task_MP,2020.1.3,Win32,60,,z,1,1.30468,,,,,,,,1.30468,1,,,,,,244,NW,UN,50,anougs,EATRIC,z,,,,,,0.009114583,-0.3984375,0,0,0,,0,193,193,423,1,
,,,,,,,,,,,,,,,,,,5ec799f7dab5741eaea37681,2020-08-10_11h08.00.448,lexical_decision_task_MP,2020.1.3,Win32,60,,m,1,0.624625,,,,,,,,0.624625,1,,,,,,84,WORD,"ID",33,mortal,MORTAL,m,,,,,,0.009114583,-0.3984375,0,0,0,,0,194,194,23,1,
,,,,,,,,,,,,,,,,,,5ec799f7dab5741eaea37681,2020-08-10_11h08.00.448,lexical_decision_task_MP,2020.1.3,Win32,60,,z,1,0.98861,,,,,,,,0.98861,1,,,,,,291,NW,UN,50,ablint,PRETCH,z,,,,,,0.009114583,-0.3984375,0,0,0,,0,195,195,470,1,
,,,,,,,,,,,,,,,,,,5ec799f7dab5741eaea37681,2020-08-10_11h08.00.448,lexical_decision_task_MP,2020.1.3,Win32,60,,z,1,0.946105,,,,,,,,0.946105,1,,,,,,339,NW,"ID",33,fachow,FACHOW,z,,,,,,0.009114583,-0.3984375,0,0,0,,0,196,196,278,1,
,,,,,,,,,,,,,,,,,,5ec799f7dab5741eaea37681,2020-08-10_11h08.00.448,lexical_decision_task_MP,2020.1.3,Win32,60,,m,1,0.698945,,,,,,,,0.698945,1,,,,,,65,WORD,"ID",33,symbol,SYMBOL,m,,,,,,0.009114583,-0.3984375,0,0,0,,0,197,197,4,1,
,,,,,,,,,,,,,,,,,,5ec799f7dab5741eaea37681,2020-08-10_11h08.00.448,lexical_decision_task_MP,2020.1.3,Win32,60,,m,1,1.01727,,,,,,,,1.01727,1,,,,,,151,WORD,"ID",50,mystic,MYSTIC,m,,,,,,0.009114583,-0.3984375,0,0,0,,0,198,198,90,1,
,,,,,,,,,,,,,,,,,,5ec799f7dab5741eaea37681,2020-08-10_11h08.00.448,lexical_decision_task_MP,2020.1.3,Win32,60,,z,1,0.6745,,,,,,,,0.6745,1,,,,,,327,NW,"ID",33,plenac,PLENAC,z,,,,,,0.009114583,-0.3984375,0,0,0,,0,199,199,266,1,
,,,,,,,,,,,,,,,,,,5ec799f7dab5741eaea37681,2020-08-10_11h08.00.448,lexical_decision_task_MP,2020.1.3,Win32,60,,m,1,0.632205,,,,,,,,0.632205,1,,,,,,165,WORD,"ID",50,invest,INVEST,m,,,,,,0.009114583,-0.3984375,0,0,0,,0,200,200,104,1,
,,,,,,,,,,,,,,,,,,5ec799f7dab5741eaea37681,2020-08-10_11h08.00.448,lexical_decision_task_MP,2020.1.3,Win32,60,,m,1,0.626995,,,,,,,,0.626995,1,,,,,,127,WORD,"ID",50,castle,CASTLE,m,,,,,,0.009114583,-0.3984375,0,0,0,,0,201,201,66,1,
,,,,,,,,,,,,,,,,,,5ec799f7dab5741eaea37681,2020-08-10_11h08.00.448,lexical_decision_task_MP,2020.1.3,Win32,60,,z,1,1.162645,,,,,,,,1.162645,1,,,,,,298,NW,UN,50,sturch,PIERGY,z,,,,,,0.009114583,-0.3984375,0,0,0,,0,202,202,477,1,
,,,,,,,,,,,,,,,,,,5ec799f7dab5741eaea37681,2020-08-10_11h08.00.448,lexical_decision_task_MP,2020.1.3,Win32,60,,z,1,1.1137,,,,,,,,1.1137,1,,,,,,249,NW,UN,50,milted,BATROL,z,,,,,,0.009114583,-0.3984375,0,0,0,,0,203,203,428,1,
,,,,,,,,,,,,,,,,,,5ec799f7dab5741eaea37681,2020-08-10_11h08.00.448,lexical_decision_task_MP,2020.1.3,Win32,60,,z,1,1.17757,,,,,,,,1.17757,1,,,,,,409,NW,"ID",50,elopia,ELOPIA,z,,,,,,0.009114583,-0.3984375,0,0,0,,0,204,204,348,1,
,,,,,,,,,,,,,,,,,,5ec799f7dab5741eaea37681,2020-08-10_11h08.00.448,lexical_decision_task_MP,2020.1.3,Win32,60,,z,1,1.298305,,,,,,,,1.298305,1,,,,,,449,NW,UN,33,phrect,BRUNGE,z,,,,,,0.009114583,-0.3984375,0,0,0,,0,205,205,388,1,
,,,,,,,,,,,,,,,,,,5ec799f7dab5741eaea37681,2020-08-10_11h08.00.448,lexical_decision_task_MP,2020.1.3,Win32,60,,m,1,0.67907,,,,,,,,0.67907,1,,,,,,57,WORD,UN,50,danger,CHANGE,m,,,,,,0.009114583,-0.3984375,0,0,0,,0,206,206,236,1,
,,,,,,,,,,,,,,,,,,5ec799f7dab5741eaea37681,2020-08-10_11h08.00.448,lexical_decision_task_MP,2020.1.3,Win32,60,,z,1,0.674225,,,,,,,,0.674225,1,,,,,,274,NW,UN,50,sleirt,FUMBLO,z,,,,,,0.009114583,-0.3984375,0,0,0,,0,207,207,453,1,
,,,,,,,,,,,,,,,,,,5ec799f7dab5741eaea37681,2020-08-10_11h08.00.448,lexical_decision_task_MP,2020.1.3,Win32,60,,z,1,0.91539,,,,,,,,0.91539,1,,,,,,265,NW,UN,50,varmit,DISTAR,z,,,,,,0.009114583,-0.3984375,0,0,0,,0,208,208,444,1,
,,,,,,,,,,,,,,,,,,5ec799f7dab5741eaea37681,2020-08-10_11h08.00.448,lexical_decision_task_MP,2020.1.3,Win32,60,,z,1,0.635885,,,,,,,,0.635885,1,,,,,,328,NW,"ID",33,broake,BROAKE,z,,,,,,0.009114583,-0.3984375,0,0,0,,0,209,209,267,1,
,,,,,,,,,,,,,,,,,,5ec799f7dab5741eaea37681,2020-08-10_11h08.00.448,lexical_decision_task_MP,2020.1.3,Win32,60,,z,0,0.631675,,,,,,,,0.631675,0,,,,,,125,WORD,"ID",50,nickel,NICKEL,m,,,,,,0.009114583,-0.3984375,0,0,0,,0,210,210,64,1,
,,,,,,,,,,,,,,,,,,5ec799f7dab5741eaea37681,2020-08-10_11h08.00.448,lexical_decision_task_MP,2020.1.3,Win32,60,,m,1,0.67702,,,,,,,,0.67702,1,,,,,,34,WORD,UN,50,socket,JUNGLE,m,,,,,,0.009114583,-0.3984375,0,0,0,,0,211,211,213,1,
,,,,,,,,,,,,,,,,,,5ec799f7dab5741eaea37681,2020-08-10_11h08.00.448,lexical_decision_task_MP,2020.1.3,Win32,60,,m,1,0.63714,,,,,,,,0.63714,1,,,,,,201,WORD,UN,33,factor,ADMIRE,m,,,,,,0.009114583,-0.3984375,0,0,0,,0,212,212,140,1,
,,,,,,,,,,,,,,,,,,5ec799f7dab5741eaea37681,2020-08-10_11h08.00.448,lexical_decision_task_MP,2020.1.3,Win32,60,,m,0,0.928715,,,,,,,,0.928715,0,,,,,,303,NW,"ID",33,fiream,FIREAM,z,,,,,,0.009114583,-0.3984375,0,0,0,,0,213,213,242,1,
,,,,,,,,,,,,,,,,,,5ec799f7dab5741eaea37681,2020-08-10_11h08.00.448,lexical_decision_task_MP,2020.1.3,Win32,60,,m,1,0.696625,,,,,,,,0.696625,1,,,,,,174,WORD,"ID",50,turkey,TURKEY,m,,,,,,0.009114583,-0.3984375,0,0,0,,0,214,214,113,1,
,,,,,,,,,,,,,,,,,,5ec799f7dab5741eaea37681,2020-08-10_11h08.00.448,lexical_decision_task_MP,2020.1.3,Win32,60,,m,1,0.828825,,,,,,,,0.828825,1,,,,,,48,WORD,UN,50,survey,WALNUT,m,,,,,,0.009114583,-0.3984375,0,0,0,,0,215,215,227,1,
,,,,,,,,,,,,,,,,,,5ec799f7dab5741eaea37681,2020-08-10_11h08.00.448,lexical_decision_task_MP,2020.1.3,Win32,60,,m,1,0.623985,,,,,,,,0.623985,1,,,,,,9,WORD,UN,50,bridge,HUSTLE,m,,,,,,0.009114583,-0.3984375,0,0,0,,0,216,216,188,1,
,,,,,,,,,,,,,,,,,,5ec799f7dab5741eaea37681,2020-08-10_11h08.00.448,lexical_decision_task_MP,2020.1.3,Win32,60,,z,1,0.87317,,,,,,,,0.87317,1,,,,,,388,NW,"ID",50,cragin,CRAGIN,z,,,,,,0.009114583,-0.3984375,0,0,0,,0,217,217,327,1,
,,,,,,,,,,,,,,,,,,5ec799f7dab5741eaea37681,2020-08-10_11h08.00.448,lexical_decision_task_MP,2020.1.3,Win32,60,,m,1,1.694815,,,,,,,,1.694815,1,,,,,,110,WORD,"ID",33,polite,POLITE,m,,,,,,0.009114583,-0.3984375,0,0,0,,0,218,218,49,1,
,,,,,,,,,,,,,,,,,,5ec799f7dab5741eaea37681,2020-08-10_11h08.00.448,lexical_decision_task_MP,2020.1.3,Win32,60,,m,1,0.6219,,,,,,,,0.6219,1,,,,,,160,WORD,"ID",50,violet,VIOLET,m,,,,,,0.009114583,-0.3984375,0,0,0,,0,219,219,99,1,
,,,,,,,,,,,,,,,,,,5ec799f7dab5741eaea37681,2020-08-10_11h08.00.448,lexical_decision_task_MP,2020.1.3,Win32,60,,m,1,0.622115,,,,,,,,0.622115,1,,,,,,155,WORD,"ID",50,lizard,LIZARD,m,,,,,,0.009114583,-0.3984375,0,0,0,,0,220,220,94,1,
,,,,,,,,,,,,,,,,,,5ec799f7dab5741eaea37681,2020-08-10_11h08.00.448,lexical_decision_task_MP,2020.1.3,Win32,60,,m,1,0.672185,,,,,,,,0.672185,1,,,,,,50,WORD,UN,50,hungry,SNATCH,m,,,,,,0.009114583,-0.3984375,0,0,0,,0,221,221,229,1,
,,,,,,,,,,,,,,,,,,5ec799f7dab5741eaea37681,2020-08-10_11h08.00.448,lexical_decision_task_MP,2020.1.3,Win32,60,,z,1,0.82802,,,,,,,,0.82802,1,,,,,,382,NW,"ID",50,sarley,SARLEY,z,,,,,,0.009114583,-0.3984375,0,0,0,,0,222,222,321,1,
,,,,,,,,,,,,,,,,,,5ec799f7dab5741eaea37681,2020-08-10_11h08.00.448,lexical_decision_task_MP,2020.1.3,Win32,60,,z,1,1.19215,,,,,,,,1.19215,1,,,,,,356,NW,"ID",33,othnis,OTHNIS,z,,,,,,0.009114583,-0.3984375,0,0,0,,0,223,223,295,1,
,,,,,,,,,,,,,,,,,,5ec799f7dab5741eaea37681,2020-08-10_11h08.00.448,lexical_decision_task_MP,2020.1.3,Win32,60,,z,1,0.761205,,,,,,,,0.761205,1,,,,,,294,NW,UN,50,gleath,INHORT,z,,,,,,0.009114583,-0.3984375,0,0,0,,0,224,224,473,1,
,,,,,,,,,,,,,,,,,,5ec799f7dab5741eaea37681,2020-08-10_11h08.00.448,lexical_decision_task_MP,2020.1.3,Win32,60,,m,1,0.80953,,,,,,,,0.80953,1,,,,,,42,WORD,UN,50,tongue,CHAPEL,m,,,,,,0.009114583,-0.3984375,0,0,0,,0,225,225,221,1,
,,,,,,,,,,,,,,,,,,5ec799f7dab5741eaea37681,2020-08-10_11h08.00.448,lexical_decision_task_MP,2020.1.3,Win32,60,,m,1,0.574285,,,,,,,,0.574285,1,,,,,,106,WORD,"ID",33,ransom,RANSOM,m,,,,,,0.009114583,-0.3984375,0,0,0,,0,226,226,45,1,
,,,,,,,,,,,,,,,,,,5ec799f7dab5741eaea37681,2020-08-10_11h08.00.448,lexical_decision_task_MP,2020.1.3,Win32,60,,z,1,0.80725,,,,,,,,0.80725,1,,,,,,275,NW,UN,50,yarmon,SLEIRT,z,,,,,,0.009114583,-0.3984375,0,0,0,,0,227,227,454,1,
,,,,,,,,,,,,,,,,,,5ec799f7dab5741eaea37681,2020-08-10_11h08.00.448,lexical_decision_task_MP,2020.1.3,Win32,60,,z,1,0.866395,,,,,,,,0.866395,1,,,,,,289,NW,UN,50,splino,STARBY,z,,,,,,0.009114583,-0.3984375,0,0,0,,0,228,228,468,1,
,,,,,,,,,,,,,,,,,,5ec799f7dab5741eaea37681,2020-08-10_11h08.00.448,lexical_decision_task_MP,2020.1.3,Win32,60,,z,1,0.81141,,,,,,,,0.81141,1,,,,,,272,NW,UN,50,sortel,DAMILT,z,,,,,,0.009114583,-0.3984375,0,0,0,,0,229,229,451,1,
,,,,,,,,,,,,,,,,,,5ec799f7dab5741eaea37681,2020-08-10_11h08.00.448,lexical_decision_task_MP,2020.1.3,Win32,60,,z,1,0.68645,,,,,,,,0.68645,1,,,,,,374,NW,"ID",50,sliant,SLIANT,z,,,,,,0.009114583,-0.3984375,0,0,0,,0,230,230,313,1,
,,,,,,,,,,,,,,,,,,5ec799f7dab5741eaea37681,2020-08-10_11h08.00.448,lexical_decision_task_MP,2020.1.3,Win32,60,,z,1,0.719965,,,,,,,,0.719965,1,,,,,,247,NW,UN,50,strole,BLARGE,z,,,,,,0.009114583,-0.3984375,0,0,0,,0,231,231,426,1,
,,,,,,,,,,,,,,,,,,5ec799f7dab5741eaea37681,2020-08-10_11h08.00.448,lexical_decision_task_MP,2020.1.3,Win32,60,,m,1,0.617545,,,,,,,,0.617545,1,,,,,,29,WORD,UN,50,orient,SKETCH,m,,,,,,0.009114583,-0.3984375,0,0,0,,0,232,232,208,1,
,,,,,,,,,,,,,,,,,,5ec799f7dab5741eaea37681,2020-08-10_11h08.00.448,lexical_decision_task_MP,2020.1.3,Win32,60,,m,1,0.617915,,,,,,,,0.617915,1,,,,,,156,WORD,"ID",50,cradle,CRADLE,m,,,,,,0.009114583,-0.3984375,0,0,0,,0,233,233,95,1,
,,,,,,,,,,,,,,,,,,5ec799f7dab5741eaea37681,2020-08-10_11h08.00.448,lexical_decision_task_MP,2020.1.3,Win32,60,,m,1,0.62352,,,,,,,,0.62352,1,,,,,,149,WORD,"ID",50,invade,INVADE,m,,,,,,0.009114583,-0.3984375,0,0,0,,0,234,234,88,1,
,,,,,,,,,,,,,,,,,,5ec799f7dab5741eaea37681,2020-08-10_11h08.00.448,lexical_decision_task_MP,2020.1.3,Win32,60,,z,1,0.622375,,,,,,,,0.622375,1,,,,,,418,NW,"ID",50,suidle,SUIDLE,z,,,,,,0.009114583,-0.3984375,0,0,0,,0,235,235,357,1,
,,,,,,,,,,,,,,,,,,5ec799f7dab5741eaea37681,2020-08-10_11h08.00.448,lexical_decision_task_MP,2020.1.3,Win32,60,,z,1,0.862165,,,,,,,,0.862165,1,,,,,,342,NW,"ID",33,randow,RANDOW,z,,,,,,0.009114583,-0.3984375,0,0,0,,0,236,236,281,1,
,,,,,,,,,,,,,,,,,,5ec799f7dab5741eaea37681,2020-08-10_11h08.00.448,lexical_decision_task_MP,2020.1.3,Win32,60,,m,1,0.680815,,,,,,,,0.680815,1,,,,,,208,WORD,UN,33,search,HOCKEY,m,,,,,,0.009114583,-0.3984375,0,0,0,,0,237,237,147,1,
,,,,,,,,,,,,,,,,,,5ec799f7dab5741eaea37681,2020-08-10_11h08.00.448,lexical_decision_task_MP,2020.1.3,Win32,60,,m,1,0.488155,,,,,,,,0.488155,1,,,,,,130,WORD,"ID",50,stupid,STUPID,m,,,,,,0.009114583,-0.3984375,0,0,0,,0,238,238,69,1,
,,,,,,,,,,,,,,,,,,5ec799f7dab5741eaea37681,2020-08-10_11h08.00.448,lexical_decision_task_MP,2020.1.3,Win32,60,,z,1,0.62202,,,,,,,,0.62202,1,,,,,,280,NW,UN,50,melaty,CURBOL,z,,,,,,0.009114583,-0.3984375,0,0,0,,0,239,239,459,1,
,,,,,,,,,,,,,,,,,,5ec799f7dab5741eaea37681,2020-08-10_11h08.00.448,lexical_decision_task_MP,2020.1.3,Win32,60,,z,1,0.53515,,,,,,,,0.53515,1,,,,,,336,NW,"ID",33,ghodus,GHODUS,z,,,,,,0.009114583,-0.3984375,0,0,0,,0,240,240,275,1,
,,,,,,,,,,,,,,,,,,5ec799f7dab5741eaea37681,2020-08-10_11h08.00.448,lexical_decision_task_MP,2020.1.3,Win32,60,,z,1,0.571765,,,,,,,,0.571765,1,,,,,,317,NW,"ID",33,worbal,WORBAL,z,,,,,,0.009114583,-0.3984375,0,0,0,space,0,241,241,256,1,10.01295
,,,,,,,,,,,,,,,,,,5ec799f7dab5741eaea37681,2020-08-10_11h08.00.448,lexical_decision_task_MP,2020.1.3,Win32,60,,m,1,0.7652,,,,,,,,0.7652,1,,,,,,237,WORD,UN,33,glance,POSTER,m,,,,,,0.009114583,-0.3984375,0,0,0,,0,242,242,176,1,
,,,,,,,,,,,,,,,,,,5ec799f7dab5741eaea37681,2020-08-10_11h08.00.448,lexical_decision_task_MP,2020.1.3,Win32,60,,m,1,0.57612,,,,,,,,0.57612,1,,,,,,113,WORD,"ID",33,chorus,CHORUS,m,,,,,,0.009114583,-0.3984375,0,0,0,,0,243,243,52,1,
,,,,,,,,,,,,,,,,,,5ec799f7dab5741eaea37681,2020-08-10_11h08.00.448,lexical_decision_task_MP,2020.1.3,Win32,60,,z,1,0.62716,,,,,,,,0.62716,1,,,,,,282,NW,UN,50,veralf,PORLEX,z,,,,,,0.009114583,-0.3984375,0,0,0,,0,244,244,461,1,
,,,,,,,,,,,,,,,,,,5ec799f7dab5741eaea37681,2020-08-10_11h08.00.448,lexical_decision_task_MP,2020.1.3,Win32,60,,m,1,0.647775,,,,,,,,0.647775,1,,,,,,28,WORD,UN,50,sketch,COMEDY,m,,,,,,0.009114583,-0.3984375,0,0,0,,0,245,245,207,1,
,,,,,,,,,,,,,,,,,,5ec799f7dab5741eaea37681,2020-08-10_11h08.00.448,lexical_decision_task_MP,2020.1.3,Win32,60,,z,1,0.61935,,,,,,,,0.61935,1,,,,,,252,NW,UN,50,resait,STAPOD,z,,,,,,0.009114583,-0.3984375,0,0,0,,0,246,246,431,1,
,,,,,,,,,,,,,,,,,,5ec799f7dab5741eaea37681,2020-08-10_11h08.00.448,lexical_decision_task_MP,2020.1.3,Win32,60,,m,1,0.81052,,,,,,,,0.81052,1,,,,,,2,WORD,UN,50,knight,BRIDGE,m,,,,,,0.009114583,-0.3984375,0,0,0,,0,247,247,181,1,
,,,,,,,,,,,,,,,,,,5ec799f7dab5741eaea37681,2020-08-10_11h08.00.448,lexical_decision_task_MP,2020.1.3,Win32,60,,z,1,0.63346,,,,,,,,0.63346,1,,,,,,359,NW,"ID",33,fonver,FONVER,z,,,,,,0.009114583,-0.3984375,0,0,0,,0,248,248,298,1,
,,,,,,,,,,,,,,,,,,5ec799f7dab5741eaea37681,2020-08-10_11h08.00.448,lexical_decision_task_MP,2020.1.3,Win32,60,,m,1,0.9096,,,,,,,,0.9096,1,,,,,,200,WORD,UN,33,admire,BEACON,m,,,,,,0.009114583,-0.3984375,0,0,0,,0,249,249,139,1,
,,,,,,,,,,,,,,,,,,5ec799f7dab5741eaea37681,2020-08-10_11h08.00.448,lexical_decision_task_MP,2020.1.3,Win32,60,,,0,,,,,,,,,0.9096,-1,,,,,,429,NW,UN,33,caroey,FUNTLE,z,,,,,,0.009114583,-0.3984375,0,0,0,,0,250,250,368,1,
,,,,,,,,,,,,,,,,,,5ec799f7dab5741eaea37681,2020-08-10_11h08.00.448,lexical_decision_task_MP,2020.1.3,Win32,60,,m,1,0.53221,,,,,,,,0.53221,1,,,,,,75,WORD,"ID",33,trophy,TROPHY,m,,,,,,0.009114583,-0.3984375,0,0,0,,0,251,251,14,1,
,,,,,,,,,,,,,,,,,,5ec799f7dab5741eaea37681,2020-08-10_11h08.00.448,lexical_decision_task_MP,2020.1.3,Win32,60,,z,1,0.684025,,,,,,,,0.684025,1,,,,,,392,NW,"ID",50,rouncy,ROUNCY,z,,,,,,0.009114583,-0.3984375,0,0,0,,0,252,252,331,1,
,,,,,,,,,,,,,,,,,,5ec799f7dab5741eaea37681,2020-08-10_11h08.00.448,lexical_decision_task_MP,2020.1.3,Win32,60,,z,1,0.76676,,,,,,,,0.76676,1,,,,,,312,NW,"ID",33,nerawl,NERAWL,z,,,,,,0.009114583,-0.3984375,0,0,0,,0,253,253,251,1,
,,,,,,,,,,,,,,,,,,5ec799f7dab5741eaea37681,2020-08-10_11h08.00.448,lexical_decision_task_MP,2020.1.3,Win32,60,,m,1,0.731115,,,,,,,,0.731115,1,,,,,,36,WORD,UN,50,insult,VANISH,m,,,,,,0.009114583,-0.3984375,0,0,0,,0,254,254,215,1,
,,,,,,,,,,,,,,,,,,5ec799f7dab5741eaea37681,2020-08-10_11h08.00.448,lexical_decision_task_MP,2020.1.3,Win32,60,,z,1,0.719635,,,,,,,,0.719635,1,,,,,,398,NW,"ID",50,blunde,BLUNDE,z,,,,,,0.009114583,-0.3984375,0,0,0,,0,255,255,337,1,
,,,,,,,,,,,,,,,,,,5ec799f7dab5741eaea37681,2020-08-10_11h08.00.448,lexical_decision_task_MP,2020.1.3,Win32,60,,m,1,0.77634,,,,,,,,0.77634,1,,,,,,213,WORD,UN,33,intake,SQUEAL,m,,,,,,0.009114583,-0.3984375,0,0,0,,0,256,256,152,1,
,,,,,,,,,,,,,,,,,,5ec799f7dab5741eaea37681,2020-08-10_11h08.00.448,lexical_decision_task_MP,2020.1.3,Win32,60,,z,1,1.488275,,,,,,,,1.488275,1,,,,,,425,NW,UN,33,urivel,FRUDGE,z,,,,,,0.009114583,-0.3984375,0,0,0,,0,257,257,364,1,
,,,,,,,,,,,,,,,,,,5ec799f7dab5741eaea37681,2020-08-10_11h08.00.448,lexical_decision_task_MP,2020.1.3,Win32,60,,z,1,1.006325,,,,,,,,1.006325,1,,,,,,352,NW,"ID",33,tringe,TRINGE,z,,,,,,0.009114583,-0.3984375,0,0,0,,0,258,258,291,1,
,,,,,,,,,,,,,,,,,,5ec799f7dab5741eaea37681,2020-08-10_11h08.00.448,lexical_decision_task_MP,2020.1.3,Win32,60,,z,1,1.09679,,,,,,,,1.09679,1,,,,,,332,NW,"ID",33,vangue,VANGUE,z,,,,,,0.009114583,-0.3984375,0,0,0,,0,259,259,271,1,
,,,,,,,,,,,,,,,,,,5ec799f7dab5741eaea37681,2020-08-10_11h08.00.448,lexical_decision_task_MP,2020.1.3,Win32,60,,z,1,0.74628,,,,,,,,0.74628,1,,,,,,445,NW,UN,33,runamo,MINKEL,z,,,,,,0.009114583,-0.3984375,0,0,0,,0,260,260,384,1,
,,,,,,,,,,,,,,,,,,5ec799f7dab5741eaea37681,2020-08-10_11h08.00.448,lexical_decision_task_MP,2020.1.3,Win32,60,,z,1,0.828315,,,,,,,,0.828315,1,,,,,,476,NW,UN,33,photie,JOSTED,z,,,,,,0.009114583,-0.3984375,0,0,0,,0,261,261,415,1,
,,,,,,,,,,,,,,,,,,5ec799f7dab5741eaea37681,2020-08-10_11h08.00.448,lexical_decision_task_MP,2020.1.3,Win32,60,,z,1,0.575745,,,,,,,,0.575745,1,,,,,,292,NW,UN,50,swance,ABLINT,z,,,,,,0.009114583,-0.3984375,0,0,0,,0,262,262,471,1,
,,,,,,,,,,,,,,,,,,5ec799f7dab5741eaea37681,2020-08-10_11h08.00.448,lexical_decision_task_MP,2020.1.3,Win32,60,,z,1,0.629595,,,,,,,,0.629595,1,,,,,,402,NW,"ID",50,syntic,SYNTIC,z,,,,,,0.009114583,-0.3984375,0,0,0,,0,263,263,341,1,
,,,,,,,,,,,,,,,,,,5ec799f7dab5741eaea37681,2020-08-10_11h08.00.448,lexical_decision_task_MP,2020.1.3,Win32,60,,z,1,0.524155,,,,,,,,0.524155,1,,,,,,362,NW,"ID",50,tireau,TIREAU,z,,,,,,0.009114583,-0.3984375,0,0,0,,0,264,264,301,1,
,,,,,,,,,,,,,,,,,,5ec799f7dab5741eaea37681,2020-08-10_11h08.00.448,lexical_decision_task_MP,2020.1.3,Win32,60,,z,1,0.629025,,,,,,,,0.629025,1,,,,,,323,NW,"ID",33,rosail,ROSAIL,z,,,,,,0.009114583,-0.3984375,0,0,0,,0,265,265,262,1,
,,,,,,,,,,,,,,,,,,5ec799f7dab5741eaea37681,2020-08-10_11h08.00.448,lexical_decision_task_MP,2020.1.3,Win32,60,,m,1,0.62064,,,,,,,,0.62064,1,,,,,,94,WORD,"ID",33,travel,TRAVEL,m,,,,,,0.009114583,-0.3984375,0,0,0,,0,266,266,33,1,
,,,,,,,,,,,,,,,,,,5ec799f7dab5741eaea37681,2020-08-10_11h08.00.448,lexical_decision_task_MP,2020.1.3,Win32,60,,m,1,0.66581,,,,,,,,0.66581,1,,,,,,131,WORD,"ID",50,quench,QUENCH,m,,,,,,0.009114583,-0.3984375,0,0,0,,0,267,267,70,1,
,,,,,,,,,,,,,,,,,,5ec799f7dab5741eaea37681,2020-08-10_11h08.00.448,lexical_decision_task_MP,2020.1.3,Win32,60,,m,1,0.57312,,,,,,,,0.57312,1,,,,,,185,WORD,UN,33,portal,BOTHER,m,,,,,,0.009114583,-0.3984375,0,0,0,,0,268,268,124,1,
,,,,,,,,,,,,,,,,,,5ec799f7dab5741eaea37681,2020-08-10_11h08.00.448,lexical_decision_task_MP,2020.1.3,Win32,60,,m,1,0.953075,,,,,,,,0.953075,1,,,,,,90,WORD,"ID",33,relish,RELISH,m,,,,,,0.009114583,-0.3984375,0,0,0,,0,269,269,29,1,
,,,,,,,,,,,,,,,,,,5ec799f7dab5741eaea37681,2020-08-10_11h08.00.448,lexical_decision_task_MP,2020.1.3,Win32,60,,z,1,0.77515,,,,,,,,0.77515,1,,,,,,479,NW,UN,33,crible,LOBUSH,z,,,,,,0.009114583,-0.3984375,0,0,0,,0,270,270,418,1,
,,,,,,,,,,,,,,,,,,5ec799f7dab5741eaea37681,2020-08-10_11h08.00.448,lexical_decision_task_MP,2020.1.3,Win32,60,,z,1,1.07137,,,,,,,,1.07137,1,,,,,,452,NW,UN,33,bolvis,SURDEN,z,,,,,,0.009114583,-0.3984375,0,0,0,,0,271,271,391,1,
,,,,,,,,,,,,,,,,,,5ec799f7dab5741eaea37681,2020-08-10_11h08.00.448,lexical_decision_task_MP,2020.1.3,Win32,60,,m,1,0.7414,,,,,,,,0.7414,1,,,,,,219,WORD,UN,33,voyage,BUCKET,m,,,,,,0.009114583,-0.3984375,0,0,0,,0,272,272,158,1,
,,,,,,,,,,,,,,,,,,5ec799f7dab5741eaea37681,2020-08-10_11h08.00.448,lexical_decision_task_MP,2020.1.3,Win32,60,,z,1,0.67122,,,,,,,,0.67122,1,,,,,,469,NW,UN,33,crudio,PADIFS,z,,,,,,0.009114583,-0.3984375,0,0,0,,0,273,273,408,1,
,,,,,,,,,,,,,,,,,,5ec799f7dab5741eaea37681,2020-08-10_11h08.00.448,lexical_decision_task_MP,2020.1.3,Win32,60,,z,1,0.72246,,,,,,,,0.72246,1,,,,,,276,NW,UN,50,petain,YARMON,z,,,,,,0.009114583,-0.3984375,0,0,0,,0,274,274,455,1,
,,,,,,,,,,,,,,,,,,5ec799f7dab5741eaea37681,2020-08-10_11h08.00.448,lexical_decision_task_MP,2020.1.3,Win32,60,,m,1,0.863625,,,,,,,,0.863625,1,,,,,,8,WORD,UN,50,hustle,ABRUPT,m,,,,,,0.009114583,-0.3984375,0,0,0,,0,275,275,187,1,
,,,,,,,,,,,,,,,,,,5ec799f7dab5741eaea37681,2020-08-10_11h08.00.448,lexical_decision_task_MP,2020.1.3,Win32,60,,z,1,0.62158,,,,,,,,0.62158,1,,,,,,351,NW,"ID",33,tiesch,TIESCH,z,,,,,,0.009114583,-0.3984375,0,0,0,,0,276,276,290,1,
,,,,,,,,,,,,,,,,,,5ec799f7dab5741eaea37681,2020-08-10_11h08.00.448,lexical_decision_task_MP,2020.1.3,Win32,60,,m,1,1.252645,,,,,,,,1.252645,1,,,,,,197,WORD,UN,33,wicked,STREAM,m,,,,,,0.009114583,-0.3984375,0,0,0,,0,277,277,136,1,
,,,,,,,,,,,,,,,,,,5ec799f7dab5741eaea37681,2020-08-10_11h08.00.448,lexical_decision_task_MP,2020.1.3,Win32,60,,m,1,0.684185,,,,,,,,0.684185,1,,,,,,18,WORD,UN,50,patron,HUMBLE,m,,,,,,0.009114583,-0.3984375,0,0,0,,0,278,278,197,1,
,,,,,,,,,,,,,,,,,,5ec799f7dab5741eaea37681,2020-08-10_11h08.00.448,lexical_decision_task_MP,2020.1.3,Win32,60,,m,1,0.71643,,,,,,,,0.71643,1,,,,,,63,WORD,"ID",33,launch,LAUNCH,m,,,,,,0.009114583,-0.3984375,0,0,0,,0,279,279,2,1,
,,,,,,,,,,,,,,,,,,5ec799f7dab5741eaea37681,2020-08-10_11h08.00.448,lexical_decision_task_MP,2020.1.3,Win32,60,,z,1,0.68329,,,,,,,,0.68329,1,,,,,,286,NW,UN,50,nymbel,RELDON,z,,,,,,0.009114583,-0.3984375,0,0,0,,0,280,280,465,1,
,,,,,,,,,,,,,,,,,,5ec799f7dab5741eaea37681,2020-08-10_11h08.00.448,lexical_decision_task_MP,2020.1.3,Win32,60,,z,1,0.59408,,,,,,,,0.59408,1,,,,,,435,NW,UN,33,frutan,IMPURB,z,,,,,,0.009114583,-0.3984375,0,0,0,,0,281,281,374,1,
,,,,,,,,,,,,,,,,,,5ec799f7dab5741eaea37681,2020-08-10_11h08.00.448,lexical_decision_task_MP,2020.1.3,Win32,60,,m,1,0.57812,,,,,,,,0.57812,1,,,,,,188,WORD,UN,33,censor,SOCIAL,m,,,,,,0.009114583,-0.3984375,0,0,0,,0,282,282,127,1,
,,,,,,,,,,,,,,,,,,5ec799f7dab5741eaea37681,2020-08-10_11h08.00.448,lexical_decision_task_MP,2020.1.3,Win32,60,,z,1,0.738135,,,,,,,,0.738135,1,,,,,,465,NW,UN,33,bafent,WHIVEX,z,,,,,,0.009114583,-0.3984375,0,0,0,,0,283,283,404,1,
,,,,,,,,,,,,,,,,,,5ec799f7dab5741eaea37681,2020-08-10_11h08.00.448,lexical_decision_task_MP,2020.1.3,Win32,60,,z,1,0.72403,,,,,,,,0.72403,1,,,,,,250,NW,UN,50,lupict,MILTED,z,,,,,,0.009114583,-0.3984375,0,0,0,,0,284,284,429,1,
,,,,,,,,,,,,,,,,,,5ec799f7dab5741eaea37681,2020-08-10_11h08.00.448,lexical_decision_task_MP,2020.1.3,Win32,60,,m,1,0.77652,,,,,,,,0.77652,1,,,,,,180,WORD,"ID",50,silent,SILENT,m,,,,,,0.009114583,-0.3984375,0,0,0,,0,285,285,119,1,
,,,,,,,,,,,,,,,,,,5ec799f7dab5741eaea37681,2020-08-10_11h08.00.448,lexical_decision_task_MP,2020.1.3,Win32,60,,z,1,0.83713,,,,,,,,0.83713,1,,,,,,369,NW,"ID",50,wronch,WRONCH,z,,,,,,0.009114583,-0.3984375,0,0,0,,0,286,286,308,1,
,,,,,,,,,,,,,,,,,,5ec799f7dab5741eaea37681,2020-08-10_11h08.00.448,lexical_decision_task_MP,2020.1.3,Win32,60,,z,1,0.67274,,,,,,,,0.67274,1,,,,,,408,NW,"ID",50,hurnia,HURNIA,z,,,,,,0.009114583,-0.3984375,0,0,0,,0,287,287,347,1,
,,,,,,,,,,,,,,,,,,5ec799f7dab5741eaea37681,2020-08-10_11h08.00.448,lexical_decision_task_MP,2020.1.3,Win32,60,,z,1,0.637415,,,,,,,,0.637415,1,,,,,,340,NW,"ID",33,fiatch,FIATCH,z,,,,,,0.009114583,-0.3984375,0,0,0,,0,288,288,279,1,
,,,,,,,,,,,,,,,,,,5ec799f7dab5741eaea37681,2020-08-10_11h08.00.448,lexical_decision_task_MP,2020.1.3,Win32,60,,z,1,0.585745,,,,,,,,0.585745,1,,,,,,241,NW,UN,50,unwert,SMENCO,z,,,,,,0.009114583,-0.3984375,0,0,0,,0,289,289,420,1,
,,,,,,,,,,,,,,,,,,5ec799f7dab5741eaea37681,2020-08-10_11h08.00.448,lexical_decision_task_MP,2020.1.3,Win32,60,,z,1,0.54063,,,,,,,,0.54063,1,,,,,,399,NW,"ID",50,fouret,FOURET,z,,,,,,0.009114583,-0.3984375,0,0,0,,0,290,290,338,1,
,,,,,,,,,,,,,,,,,,5ec799f7dab5741eaea37681,2020-08-10_11h08.00.448,lexical_decision_task_MP,2020.1.3,Win32,60,,z,1,0.63489,,,,,,,,0.63489,1,,,,,,405,NW,"ID",50,flumni,FLUMNI,z,,,,,,0.009114583,-0.3984375,0,0,0,,0,291,291,344,1,
,,,,,,,,,,,,,,,,,,5ec799f7dab5741eaea37681,2020-08-10_11h08.00.448,lexical_decision_task_MP,2020.1.3,Win32,60,,z,1,0.534375,,,,,,,,0.534375,1,,,,,,453,NW,UN,33,scouge,BOLVIS,z,,,,,,0.009114583,-0.3984375,0,0,0,,0,292,292,392,1,
,,,,,,,,,,,,,,,,,,5ec799f7dab5741eaea37681,2020-08-10_11h08.00.448,lexical_decision_task_MP,2020.1.3,Win32,60,,m,0,0.730135,,,,,,,,0.730135,0,,,,,,319,NW,"ID",33,zomber,ZOMBER,z,,,,,,0.009114583,-0.3984375,0,0,0,,0,293,293,258,1,
,,,,,,,,,,,,,,,,,,5ec799f7dab5741eaea37681,2020-08-10_11h08.00.448,lexical_decision_task_MP,2020.1.3,Win32,60,,z,1,0.77232,,,,,,,,0.77232,1,,,,,,283,NW,UN,50,shaple,VERALF,z,,,,,,0.009114583,-0.3984375,0,0,0,,0,294,294,462,1,
,,,,,,,,,,,,,,,,,,5ec799f7dab5741eaea37681,2020-08-10_11h08.00.448,lexical_decision_task_MP,2020.1.3,Win32,60,,,0,,,,,,,,,0.77232,-1,,,,,,16,WORD,UN,50,charge,FAUCET,m,,,,,,0.009114583,-0.3984375,0,0,0,,0,295,295,195,1,
,,,,,,,,,,,,,,,,,,5ec799f7dab5741eaea37681,2020-08-10_11h08.00.448,lexical_decision_task_MP,2020.1.3,Win32,60,,m,1,0.67428,,,,,,,,0.67428,1,,,,,,178,WORD,"ID",50,inform,INFORM,m,,,,,,0.009114583,-0.3984375,0,0,0,,0,296,296,117,1,
,,,,,,,,,,,,,,,,,,5ec799f7dab5741eaea37681,2020-08-10_11h08.00.448,lexical_decision_task_MP,2020.1.3,Win32,60,,z,1,0.87254,,,,,,,,0.87254,1,,,,,,403,NW,"ID",50,bruats,BRUATS,z,,,,,,0.009114583,-0.3984375,0,0,0,,0,297,297,342,1,
,,,,,,,,,,,,,,,,,,5ec799f7dab5741eaea37681,2020-08-10_11h08.00.448,lexical_decision_task_MP,2020.1.3,Win32,60,,m,1,0.636995,,,,,,,,0.636995,1,,,,,,196,WORD,UN,33,stream,CREDIT,m,,,,,,0.009114583,-0.3984375,0,0,0,,0,298,298,135,1,
,,,,,,,,,,,,,,,,,,5ec799f7dab5741eaea37681,2020-08-10_11h08.00.448,lexical_decision_task_MP,2020.1.3,Win32,60,,z,1,1.178225,,,,,,,,1.178225,1,,,,,,305,NW,"ID",33,forgle,FORGLE,z,,,,,,0.009114583,-0.3984375,0,0,0,,0,299,299,244,1,
,,,,,,,,,,,,,,,,,,5ec799f7dab5741eaea37681,2020-08-10_11h08.00.448,lexical_decision_task_MP,2020.1.3,Win32,60,,z,1,0.6381,,,,,,,,0.6381,1,,,,,,245,NW,UN,50,piaton,ANOUGS,z,,,,,,0.009114583,-0.3984375,0,0,0,,0,300,300,424,1,
,,,,,,,,,,,,,,,,,,5ec799f7dab5741eaea37681,2020-08-10_11h08.00.448,lexical_decision_task_MP,2020.1.3,Win32,60,,z,1,0.625085,,,,,,,,0.625085,1,,,,,,462,NW,UN,33,kispel,ABSULT,z,,,,,,0.009114583,-0.3984375,0,0,0,,0,301,301,401,1,
,,,,,,,,,,,,,,,,,,5ec799f7dab5741eaea37681,2020-08-10_11h08.00.448,lexical_decision_task_MP,2020.1.3,Win32,60,,z,1,0.57923,,,,,,,,0.57923,1,,,,,,428,NW,UN,33,funtle,TANDLY,z,,,,,,0.009114583,-0.3984375,0,0,0,,0,302,302,367,1,
,,,,,,,,,,,,,,,,,,5ec799f7dab5741eaea37681,2020-08-10_11h08.00.448,lexical_decision_task_MP,2020.1.3,Win32,60,,m,1,0.67804,,,,,,,,0.67804,1,,,,,,99,WORD,"ID",33,fluent,FLUENT,m,,,,,,0.009114583,-0.3984375,0,0,0,,0,303,303,38,1,
,,,,,,,,,,,,,,,,,,5ec799f7dab5741eaea37681,2020-08-10_11h08.00.448,lexical_decision_task_MP,2020.1.3,Win32,60,,z,1,0.725555,,,,,,,,0.725555,1,,,,,,277,NW,UN,50,unighs,PETAIN,z,,,,,,0.009114583,-0.3984375,0,0,0,,0,304,304,456,1,
,,,,,,,,,,,,,,,,,,5ec799f7dab5741eaea37681,2020-08-10_11h08.00.448,lexical_decision_task_MP,2020.1.3,Win32,60,,m,1,0.58039,,,,,,,,0.58039,1,,,,,,81,WORD,"ID",33,friend,FRIEND,m,,,,,,0.009114583,-0.3984375,0,0,0,,0,305,305,20,1,
,,,,,,,,,,,,,,,,,,5ec799f7dab5741eaea37681,2020-08-10_11h08.00.448,lexical_decision_task_MP,2020.1.3,Win32,60,,m,1,0.720945,,,,,,,,0.720945,1,,,,,,86,WORD,"ID",33,rodent,RODENT,m,,,,,,0.009114583,-0.3984375,0,0,0,,0,306,306,25,1,
,,,,,,,,,,,,,,,,,,5ec799f7dab5741eaea37681,2020-08-10_11h08.00.448,lexical_decision_task_MP,2020.1.3,Win32,60,,m,1,0.57956,,,,,,,,0.57956,1,,,,,,119,WORD,"ID",33,spider,SPIDER,m,,,,,,0.009114583,-0.3984375,0,0,0,,0,307,307,58,1,
,,,,,,,,,,,,,,,,,,5ec799f7dab5741eaea37681,2020-08-10_11h08.00.448,lexical_decision_task_MP,2020.1.3,Win32,60,,m,1,0.728965,,,,,,,,0.728965,1,,,,,,238,WORD,UN,33,behalf,FLOWER,m,,,,,,0.009114583,-0.3984375,0,0,0,,0,308,308,177,1,
,,,,,,,,,,,,,,,,,,5ec799f7dab5741eaea37681,2020-08-10_11h08.00.448,lexical_decision_task_MP,2020.1.3,Win32,60,,z,1,0.676455,,,,,,,,0.676455,1,,,,,,326,NW,"ID",33,iguade,IGUADE,z,,,,,,0.009114583,-0.3984375,0,0,0,,0,309,309,265,1,
,,,,,,,,,,,,,,,,,,5ec799f7dab5741eaea37681,2020-08-10_11h08.00.448,lexical_decision_task_MP,2020.1.3,Win32,60,,m,1,0.82363,,,,,,,,0.82363,1,,,,,,19,WORD,UN,50,breast,PATRON,m,,,,,,0.009114583,-0.3984375,0,0,0,,0,310,310,198,1,
,,,,,,,,,,,,,,,,,,5ec799f7dab5741eaea37681,2020-08-10_11h08.00.448,lexical_decision_task_MP,2020.1.3,Win32,60,,m,1,0.63734,,,,,,,,0.63734,1,,,,,,177,WORD,"ID",50,advent,ADVENT,m,,,,,,0.009114583,-0.3984375,0,0,0,,0,311,311,116,1,
,,,,,,,,,,,,,,,,,,5ec799f7dab5741eaea37681,2020-08-10_11h08.00.448,lexical_decision_task_MP,2020.1.3,Win32,60,,z,1,0.74073,,,,,,,,0.74073,1,,,,,,314,NW,"ID",33,sprine,SPRINE,z,,,,,,0.009114583,-0.3984375,0,0,0,,0,312,312,253,1,
,,,,,,,,,,,,,,,,,,5ec799f7dab5741eaea37681,2020-08-10_11h08.00.448,lexical_decision_task_MP,2020.1.3,Win32,60,,z,1,0.62769,,,,,,,,0.62769,1,,,,,,410,NW,"ID",50,tunory,TUNORY,z,,,,,,0.009114583,-0.3984375,0,0,0,,0,313,313,349,1,
,,,,,,,,,,,,,,,,,,5ec799f7dab5741eaea37681,2020-08-10_11h08.00.448,lexical_decision_task_MP,2020.1.3,Win32,60,,z,1,0.772725,,,,,,,,0.772725,1,,,,,,246,NW,UN,50,blarge,PIATON,z,,,,,,0.009114583,-0.3984375,0,0,0,,0,314,314,425,1,
,,,,,,,,,,,,,,,,,,5ec799f7dab5741eaea37681,2020-08-10_11h08.00.448,lexical_decision_task_MP,2020.1.3,Win32,60,,m,1,0.63537,,,,,,,,0.63537,1,,,,,,80,WORD,"ID",33,family,FAMILY,m,,,,,,0.009114583,-0.3984375,0,0,0,,0,315,315,19,1,
,,,,,,,,,,,,,,,,,,5ec799f7dab5741eaea37681,2020-08-10_11h08.00.448,lexical_decision_task_MP,2020.1.3,Win32,60,,m,1,0.62698,,,,,,,,0.62698,1,,,,,,226,WORD,UN,33,flower,CASINO,m,,,,,,0.009114583,-0.3984375,0,0,0,,0,316,316,165,1,
,,,,,,,,,,,,,,,,,,5ec799f7dab5741eaea37681,2020-08-10_11h08.00.448,lexical_decision_task_MP,2020.1.3,Win32,60,,z,1,0.673365,,,,,,,,0.673365,1,,,,,,456,NW,UN,33,wanigh,BROGET,z,,,,,,0.009114583,-0.3984375,0,0,0,,0,317,317,395,1,
,,,,,,,,,,,,,,,,,,5ec799f7dab5741eaea37681,2020-08-10_11h08.00.448,lexical_decision_task_MP,2020.1.3,Win32,60,,z,1,0.63133,,,,,,,,0.63133,1,,,,,,439,NW,UN,33,saride,LIMPOR,z,,,,,,0.009114583,-0.3984375,0,0,0,,0,318,318,378,1,
,,,,,,,,,,,,,,,,,,5ec799f7dab5741eaea37681,2020-08-10_11h08.00.448,lexical_decision_task_MP,2020.1.3,Win32,60,,z,1,0.575895,,,,,,,,0.575895,1,,,,,,300,NW,UN,50,smenco,YARION,z,,,,,,0.009114583,-0.3984375,0,0,0,,0,319,319,479,1,
,,,,,,,,,,,,,,,,,,5ec799f7dab5741eaea37681,2020-08-10_11h08.00.448,lexical_decision_task_MP,2020.1.3,Win32,60,,m,1,0.724585,,,,,,,,0.724585,1,,,,,,43,WORD,UN,50,foster,TONGUE,m,,,,,,0.009114583,-0.3984375,0,0,0,,0,320,320,222,1,
,,,,,,,,,,,,,,,,,,5ec799f7dab5741eaea37681,2020-08-10_11h08.00.448,lexical_decision_task_MP,2020.1.3,Win32,60,,m,1,0.584845,,,,,,,,0.584845,1,,,,,,88,WORD,"ID",33,hunger,HUNGER,m,,,,,,0.009114583,-0.3984375,0,0,0,,0,321,321,27,1,
,,,,,,,,,,,,,,,,,,5ec799f7dab5741eaea37681,2020-08-10_11h08.00.448,lexical_decision_task_MP,2020.1.3,Win32,60,,z,1,0.98039,,,,,,,,0.98039,1,,,,,,279,NW,UN,50,curbol,CELOND,z,,,,,,0.009114583,-0.3984375,0,0,0,,0,322,322,458,1,
,,,,,,,,,,,,,,,,,,5ec799f7dab5741eaea37681,2020-08-10_11h08.00.448,lexical_decision_task_MP,2020.1.3,Win32,60,,m,1,0.578425,,,,,,,,0.578425,1,,,,,,41,WORD,UN,50,chapel,SPRING,m,,,,,,0.009114583,-0.3984375,0,0,0,,0,323,323,220,1,
,,,,,,,,,,,,,,,,,,5ec799f7dab5741eaea37681,2020-08-10_11h08.00.448,lexical_decision_task_MP,2020.1.3,Win32,60,,m,1,0.672405,,,,,,,,0.672405,1,,,,,,49,WORD,UN,50,snatch,SURVEY,m,,,,,,0.009114583,-0.3984375,0,0,0,,0,324,324,228,1,
,,,,,,,,,,,,,,,,,,5ec799f7dab5741eaea37681,2020-08-10_11h08.00.448,lexical_decision_task_MP,2020.1.3,Win32,60,,m,1,0.96882,,,,,,,,0.96882,1,,,,,,140,WORD,"ID",50,prince,PRINCE,m,,,,,,0.009114583,-0.3984375,0,0,0,,0,325,325,79,1,
,,,,,,,,,,,,,,,,,,5ec799f7dab5741eaea37681,2020-08-10_11h08.00.448,lexical_decision_task_MP,2020.1.3,Win32,60,,z,0,0.76889,,,,,,,,0.76889,0,,,,,,111,WORD,"ID",33,induce,INDUCE,m,,,,,,0.009114583,-0.3984375,0,0,0,,0,326,326,50,1,
,,,,,,,,,,,,,,,,,,5ec799f7dab5741eaea37681,2020-08-10_11h08.00.448,lexical_decision_task_MP,2020.1.3,Win32,60,,m,1,0.576595,,,,,,,,0.576595,1,,,,,,31,WORD,UN,50,buckle,WEAPON,m,,,,,,0.009114583,-0.3984375,0,0,0,,0,327,327,210,1,
,,,,,,,,,,,,,,,,,,5ec799f7dab5741eaea37681,2020-08-10_11h08.00.448,lexical_decision_task_MP,2020.1.3,Win32,60,,z,1,0.642875,,,,,,,,0.642875,1,,,,,,386,NW,"ID",50,ancust,ANCUST,z,,,,,,0.009114583,-0.3984375,0,0,0,,0,328,328,325,1,
,,,,,,,,,,,,,,,,,,5ec799f7dab5741eaea37681,2020-08-10_11h08.00.448,lexical_decision_task_MP,2020.1.3,Win32,60,,m,1,0.63516,,,,,,,,0.63516,1,,,,,,104,WORD,"ID",33,studio,STUDIO,m,,,,,,0.009114583,-0.3984375,0,0,0,,0,329,329,43,1,
,,,,,,,,,,,,,,,,,,5ec799f7dab5741eaea37681,2020-08-10_11h08.00.448,lexical_decision_task_MP,2020.1.3,Win32,60,,m,1,0.582255,,,,,,,,0.582255,1,,,,,,182,WORD,UN,33,absent,WINTER,m,,,,,,0.009114583,-0.3984375,0,0,0,,0,330,330,121,1,
,,,,,,,,,,,,,,,,,,5ec799f7dab5741eaea37681,2020-08-10_11h08.00.448,lexical_decision_task_MP,2020.1.3,Win32,60,,m,1,0.58207,,,,,,,,0.58207,1,,,,,,231,WORD,UN,33,inject,EXPORT,m,,,,,,0.009114583,-0.3984375,0,0,0,,0,331,331,170,1,
,,,,,,,,,,,,,,,,,,5ec799f7dab5741eaea37681,2020-08-10_11h08.00.448,lexical_decision_task_MP,2020.1.3,Win32,60,,z,1,0.99407,,,,,,,,0.99407,1,,,,,,299,NW,UN,50,yarion,STURCH,z,,,,,,0.009114583,-0.3984375,0,0,0,,0,332,332,478,1,
,,,,,,,,,,,,,,,,,,5ec799f7dab5741eaea37681,2020-08-10_11h08.00.448,lexical_decision_task_MP,2020.1.3,Win32,60,,m,1,0.53422,,,,,,,,0.53422,1,,,,,,133,WORD,"ID",50,chrome,CHROME,m,,,,,,0.009114583,-0.3984375,0,0,0,,0,333,333,72,1,
,,,,,,,,,,,,,,,,,,5ec799f7dab5741eaea37681,2020-08-10_11h08.00.448,lexical_decision_task_MP,2020.1.3,Win32,60,,z,1,0.83428,,,,,,,,0.83428,1,,,,,,353,NW,"ID",33,clurey,CLUREY,z,,,,,,0.009114583,-0.3984375,0,0,0,,0,334,334,292,1,
,,,,,,,,,,,,,,,,,,5ec799f7dab5741eaea37681,2020-08-10_11h08.00.448,lexical_decision_task_MP,2020.1.3,Win32,60,,z,1,0.725415,,,,,,,,0.725415,1,,,,,,360,NW,"ID",33,desory,DESORY,z,,,,,,0.009114583,-0.3984375,0,0,0,,0,335,335,299,1,
,,,,,,,,,,,,,,,,,,5ec799f7dab5741eaea37681,2020-08-10_11h08.00.448,lexical_decision_task_MP,2020.1.3,Win32,60,,z,1,0.818395,,,,,,,,0.818395,1,,,,,,324,NW,"ID",33,steikh,STEIKH,z,,,,,,0.009114583,-0.3984375,0,0,0,,0,336,336,263,1,
,,,,,,,,,,,,,,,,,,5ec799f7dab5741eaea37681,2020-08-10_11h08.00.448,lexical_decision_task_MP,2020.1.3,Win32,60,,m,1,0.576715,,,,,,,,0.576715,1,,,,,,129,WORD,"ID",50,marvel,MARVEL,m,,,,,,0.009114583,-0.3984375,0,0,0,,0,337,337,68,1,
,,,,,,,,,,,,,,,,,,5ec799f7dab5741eaea37681,2020-08-10_11h08.00.448,lexical_decision_task_MP,2020.1.3,Win32,60,,m,1,0.64485,,,,,,,,0.64485,1,,,,,,109,WORD,"ID",33,wonder,WONDER,m,,,,,,0.009114583,-0.3984375,0,0,0,,0,338,338,48,1,
,,,,,,,,,,,,,,,,,,5ec799f7dab5741eaea37681,2020-08-10_11h08.00.448,lexical_decision_task_MP,2020.1.3,Win32,60,,z,1,0.628475,,,,,,,,0.628475,1,,,,,,387,NW,"ID",50,gronce,GRONCE,z,,,,,,0.009114583,-0.3984375,0,0,0,,0,339,339,326,1,
,,,,,,,,,,,,,,,,,,5ec799f7dab5741eaea37681,2020-08-10_11h08.00.448,lexical_decision_task_MP,2020.1.3,Win32,60,,z,1,0.68542,,,,,,,,0.68542,1,,,,,,383,NW,"ID",50,aungre,AUNGRE,z,,,,,,0.009114583,-0.3984375,0,0,0,,0,340,340,322,1,
,,,,,,,,,,,,,,,,,,5ec799f7dab5741eaea37681,2020-08-10_11h08.00.448,lexical_decision_task_MP,2020.1.3,Win32,60,,m,1,0.735185,,,,,,,,0.735185,1,,,,,,221,WORD,UN,33,hinder,MASCOT,m,,,,,,0.009114583,-0.3984375,0,0,0,,0,341,341,160,1,
,,,,,,,,,,,,,,,,,,5ec799f7dab5741eaea37681,2020-08-10_11h08.00.448,lexical_decision_task_MP,2020.1.3,Win32,60,,m,1,0.70129,,,,,,,,0.70129,1,,,,,,10,WORD,UN,50,cruise,ETHNIC,m,,,,,,0.009114583,-0.3984375,0,0,0,,0,342,342,189,1,
,,,,,,,,,,,,,,,,,,5ec799f7dab5741eaea37681,2020-08-10_11h08.00.448,lexical_decision_task_MP,2020.1.3,Win32,60,,z,1,0.67709,,,,,,,,0.67709,1,,,,,,431,NW,UN,33,lunker,CHRUMS,z,,,,,,0.009114583,-0.3984375,0,0,0,,0,343,343,370,1,
,,,,,,,,,,,,,,,,,,5ec799f7dab5741eaea37681,2020-08-10_11h08.00.448,lexical_decision_task_MP,2020.1.3,Win32,60,,m,1,1.061875,,,,,,,,1.061875,1,,,,,,195,WORD,UN,33,credit,RESIGN,m,,,,,,0.009114583,-0.3984375,0,0,0,,0,344,344,134,1,
,,,,,,,,,,,,,,,,,,5ec799f7dab5741eaea37681,2020-08-10_11h08.00.448,lexical_decision_task_MP,2020.1.3,Win32,60,,m,1,0.534065,,,,,,,,0.534065,1,,,,,,97,WORD,"ID",33,client,CLIENT,m,,,,,,0.009114583,-0.3984375,0,0,0,,0,345,345,36,1,
,,,,,,,,,,,,,,,,,,5ec799f7dab5741eaea37681,2020-08-10_11h08.00.448,lexical_decision_task_MP,2020.1.3,Win32,60,,m,1,0.721715,,,,,,,,0.721715,1,,,,,,120,WORD,"ID",33,strain,STRAIN,m,,,,,,0.009114583,-0.3984375,0,0,0,,0,346,346,59,1,
,,,,,,,,,,,,,,,,,,5ec799f7dab5741eaea37681,2020-08-10_11h08.00.448,lexical_decision_task_MP,2020.1.3,Win32,60,,m,1,0.58137,,,,,,,,0.58137,1,,,,,,100,WORD,"ID",33,carbon,CARBON,m,,,,,,0.009114583,-0.3984375,0,0,0,,0,347,347,39,1,
,,,,,,,,,,,,,,,,,,5ec799f7dab5741eaea37681,2020-08-10_11h08.00.448,lexical_decision_task_MP,2020.1.3,Win32,60,,z,1,0.81852,,,,,,,,0.81852,1,,,,,,397,NW,"ID",50,camble,CAMBLE,z,,,,,,0.009114583,-0.3984375,0,0,0,,0,348,348,336,1,
,,,,,,,,,,,,,,,,,,5ec799f7dab5741eaea37681,2020-08-10_11h08.00.448,lexical_decision_task_MP,2020.1.3,Win32,60,,z,1,0.676595,,,,,,,,0.676595,1,,,,,,472,NW,UN,33,gorbie,CIGNEY,z,,,,,,0.009114583,-0.3984375,0,0,0,,0,349,349,411,1,
,,,,,,,,,,,,,,,,,,5ec799f7dab5741eaea37681,2020-08-10_11h08.00.448,lexical_decision_task_MP,2020.1.3,Win32,60,,m,1,0.626035,,,,,,,,0.626035,1,,,,,,150,WORD,"ID",50,random,RANDOM,m,,,,,,0.009114583,-0.3984375,0,0,0,,0,350,350,89,1,
,,,,,,,,,,,,,,,,,,5ec799f7dab5741eaea37681,2020-08-10_11h08.00.448,lexical_decision_task_MP,2020.1.3,Win32,60,,z,1,0.640925,,,,,,,,0.640925,1,,,,,,471,NW,UN,33,cigney,NOBEST,z,,,,,,0.009114583,-0.3984375,0,0,0,,0,351,351,410,1,
,,,,,,,,,,,,,,,,,,5ec799f7dab5741eaea37681,2020-08-10_11h08.00.448,lexical_decision_task_MP,2020.1.3,Win32,60,,z,1,0.788305,,,,,,,,0.788305,1,,,,,,255,NW,UN,50,inlors,APIGHT,z,,,,,,0.009114583,-0.3984375,0,0,0,,0,352,352,434,1,
,,,,,,,,,,,,,,,,,,5ec799f7dab5741eaea37681,2020-08-10_11h08.00.448,lexical_decision_task_MP,2020.1.3,Win32,60,,m,1,0.54141,,,,,,,,0.54141,1,,,,,,93,WORD,"ID",33,public,PUBLIC,m,,,,,,0.009114583,-0.3984375,0,0,0,,0,353,353,32,1,
,,,,,,,,,,,,,,,,,,5ec799f7dab5741eaea37681,2020-08-10_11h08.00.448,lexical_decision_task_MP,2020.1.3,Win32,60,,z,1,0.639565,,,,,,,,0.639565,1,,,,,,302,NW,"ID",33,miluer,MILUER,z,,,,,,0.009114583,-0.3984375,0,0,0,,0,354,354,241,1,
,,,,,,,,,,,,,,,,,,5ec799f7dab5741eaea37681,2020-08-10_11h08.00.448,lexical_decision_task_MP,2020.1.3,Win32,60,,m,1,0.63538,,,,,,,,0.63538,1,,,,,,214,WORD,UN,33,phobia,INTAKE,m,,,,,,0.009114583,-0.3984375,0,0,0,,0,355,355,153,1,
,,,,,,,,,,,,,,,,,,5ec799f7dab5741eaea37681,2020-08-10_11h08.00.448,lexical_decision_task_MP,2020.1.3,Win32,60,,m,1,0.537985,,,,,,,,0.537985,1,,,,,,172,WORD,"ID",50,patrol,PATROL,m,,,,,,0.009114583,-0.3984375,0,0,0,,0,356,356,111,1,
,,,,,,,,,,,,,,,,,,5ec799f7dab5741eaea37681,2020-08-10_11h08.00.448,lexical_decision_task_MP,2020.1.3,Win32,60,,z,1,0.72042,,,,,,,,0.72042,1,,,,,,437,NW,UN,33,baitch,SNAPEL,z,,,,,,0.009114583,-0.3984375,0,0,0,,0,357,357,376,1,
,,,,,,,,,,,,,,,,,,5ec799f7dab5741eaea37681,2020-08-10_11h08.00.448,lexical_decision_task_MP,2020.1.3,Win32,60,,z,1,0.539485,,,,,,,,0.539485,1,,,,,,261,NW,UN,50,quilew,STUNCH,z,,,,,,0.009114583,-0.3984375,0,0,0,,0,358,358,440,1,
,,,,,,,,,,,,,,,,,,5ec799f7dab5741eaea37681,2020-08-10_11h08.00.448,lexical_decision_task_MP,2020.1.3,Win32,60,,m,1,1.203395,,,,,,,,1.203395,1,,,,,,230,WORD,UN,33,mother,FRINGE,m,,,,,,0.009114583,-0.3984375,0,0,0,,0,359,359,169,1,
,,,,,,,,,,,,,,,,,,5ec799f7dab5741eaea37681,2020-08-10_11h08.00.448,lexical_decision_task_MP,2020.1.3,Win32,60,,m,1,0.577935,,,,,,,,0.577935,1,,,,,,96,WORD,"ID",33,ignore,IGNORE,m,,,,,,0.009114583,-0.3984375,0,0,0,,0,360,360,35,1,
,,,,,,,,,,,,,,,,,,5ec799f7dab5741eaea37681,2020-08-10_11h08.00.448,lexical_decision_task_MP,2020.1.3,Win32,60,,z,0,0.6748,,,,,,,,0.6748,0,,,,,,142,WORD,"ID",50,spruce,SPRUCE,m,,,,,,0.009114583,-0.3984375,0,0,0,,0,361,361,81,1,
,,,,,,,,,,,,,,,,,,5ec799f7dab5741eaea37681,2020-08-10_11h08.00.448,lexical_decision_task_MP,2020.1.3,Win32,60,,m,1,0.58376,,,,,,,,0.58376,1,,,,,,6,WORD,UN,50,anchor,BUNDLE,m,,,,,,0.009114583,-0.3984375,0,0,0,space,0,362,362,185,1,10.04543
,,,,,,,,,,,,,,,,,,5ec799f7dab5741eaea37681,2020-08-10_11h08.00.448,lexical_decision_task_MP,2020.1.3,Win32,60,,z,1,0.963955,,,,,,,,0.963955,1,,,,,,256,NW,UN,50,veniod,INLORS,z,,,,,,0.009114583,-0.3984375,0,0,0,,0,363,363,435,1,
,,,,,,,,,,,,,,,,,,5ec799f7dab5741eaea37681,2020-08-10_11h08.00.448,lexical_decision_task_MP,2020.1.3,Win32,60,,z,0,0.599385,,,,,,,,0.599385,0,,,,,,220,WORD,UN,33,mascot,VOYAGE,m,,,,,,0.009114583,-0.3984375,0,0,0,,0,364,364,159,1,
,,,,,,,,,,,,,,,,,,5ec799f7dab5741eaea37681,2020-08-10_11h08.00.448,lexical_decision_task_MP,2020.1.3,Win32,60,,z,1,0.70991,,,,,,,,0.70991,1,,,,,,381,NW,"ID",50,huniek,HUNIEK,z,,,,,,0.009114583,-0.3984375,0,0,0,,0,365,365,320,1,
,,,,,,,,,,,,,,,,,,5ec799f7dab5741eaea37681,2020-08-10_11h08.00.448,lexical_decision_task_MP,2020.1.3,Win32,60,,m,1,0.90432,,,,,,,,0.90432,1,,,,,,4,WORD,UN,50,plunge,TRENCH,m,,,,,,0.009114583,-0.3984375,0,0,0,,0,366,366,183,1,
,,,,,,,,,,,,,,,,,,5ec799f7dab5741eaea37681,2020-08-10_11h08.00.448,lexical_decision_task_MP,2020.1.3,Win32,60,,m,1,0.63332,,,,,,,,0.63332,1,,,,,,107,WORD,"ID",33,slogan,SLOGAN,m,,,,,,0.009114583,-0.3984375,0,0,0,,0,367,367,46,1,
,,,,,,,,,,,,,,,,,,5ec799f7dab5741eaea37681,2020-08-10_11h08.00.448,lexical_decision_task_MP,2020.1.3,Win32,60,,m,1,0.588285,,,,,,,,0.588285,1,,,,,,105,WORD,"ID",33,number,NUMBER,m,,,,,,0.009114583,-0.3984375,0,0,0,,0,368,368,44,1,
,,,,,,,,,,,,,,,,,,5ec799f7dab5741eaea37681,2020-08-10_11h08.00.448,lexical_decision_task_MP,2020.1.3,Win32,60,,z,1,1.1552,,,,,,,,1.1552,1,,,,,,285,NW,UN,50,reldon,PRUDGE,z,,,,,,0.009114583,-0.3984375,0,0,0,,0,369,369,464,1,
,,,,,,,,,,,,,,,,,,5ec799f7dab5741eaea37681,2020-08-10_11h08.00.448,lexical_decision_task_MP,2020.1.3,Win32,60,,m,1,0.725285,,,,,,,,0.725285,1,,,,,,171,WORD,"ID",50,depart,DEPART,m,,,,,,0.009114583,-0.3984375,0,0,0,,0,370,370,110,1,
,,,,,,,,,,,,,,,,,,5ec799f7dab5741eaea37681,2020-08-10_11h08.00.448,lexical_decision_task_MP,2020.1.3,Win32,60,,z,1,1.01586,,,,,,,,1.01586,1,,,,,,380,NW,"ID",50,cavory,CAVORY,z,,,,,,0.009114583,-0.3984375,0,0,0,,0,371,371,319,1,
,,,,,,,,,,,,,,,,,,5ec799f7dab5741eaea37681,2020-08-10_11h08.00.448,lexical_decision_task_MP,2020.1.3,Win32,60,,z,1,0.82207,,,,,,,,0.82207,1,,,,,,448,NW,UN,33,brunge,SADENT,z,,,,,,0.009114583,-0.3984375,0,0,0,,0,372,372,387,1,
,,,,,,,,,,,,,,,,,,5ec799f7dab5741eaea37681,2020-08-10_11h08.00.448,lexical_decision_task_MP,2020.1.3,Win32,60,,z,1,0.628615,,,,,,,,0.628615,1,,,,,,414,NW,"ID",50,serbol,SERBOL,z,,,,,,0.009114583,-0.3984375,0,0,0,,0,373,373,353,1,
,,,,,,,,,,,,,,,,,,5ec799f7dab5741eaea37681,2020-08-10_11h08.00.448,lexical_decision_task_MP,2020.1.3,Win32,60,,m,1,0.723695,,,,,,,,0.723695,1,,,,,,134,WORD,"ID",50,staple,STAPLE,m,,,,,,0.009114583,-0.3984375,0,0,0,,0,374,374,73,1,
,,,,,,,,,,,,,,,,,,5ec799f7dab5741eaea37681,2020-08-10_11h08.00.448,lexical_decision_task_MP,2020.1.3,Win32,60,,m,1,0.7234,,,,,,,,0.7234,1,,,,,,82,WORD,"ID",33,stigma,STIGMA,m,,,,,,0.009114583,-0.3984375,0,0,0,,0,375,375,21,1,
,,,,,,,,,,,,,,,,,,5ec799f7dab5741eaea37681,2020-08-10_11h08.00.448,lexical_decision_task_MP,2020.1.3,Win32,60,,m,1,0.535445,,,,,,,,0.535445,1,,,,,,206,WORD,UN,33,wreath,TAILOR,m,,,,,,0.009114583,-0.3984375,0,0,0,,0,376,376,145,1,
,,,,,,,,,,,,,,,,,,5ec799f7dab5741eaea37681,2020-08-10_11h08.00.448,lexical_decision_task_MP,2020.1.3,Win32,60,,z,1,0.678835,,,,,,,,0.678835,1,,,,,,378,NW,"ID",50,shrile,SHRILE,z,,,,,,0.009114583,-0.3984375,0,0,0,,0,377,377,317,1,
,,,,,,,,,,,,,,,,,,5ec799f7dab5741eaea37681,2020-08-10_11h08.00.448,lexical_decision_task_MP,2020.1.3,Win32,60,,z,1,0.96255,,,,,,,,0.96255,1,,,,,,243,NW,UN,50,eatric,MUSIED,z,,,,,,0.009114583,-0.3984375,0,0,0,,0,378,378,422,1,
,,,,,,,,,,,,,,,,,,5ec799f7dab5741eaea37681,2020-08-10_11h08.00.448,lexical_decision_task_MP,2020.1.3,Win32,60,,m,1,0.813585,,,,,,,,0.813585,1,,,,,,62,WORD,"ID",33,region,REGION,m,,,,,,0.009114583,-0.3984375,0,0,0,,0,379,379,1,1,
,,,,,,,,,,,,,,,,,,5ec799f7dab5741eaea37681,2020-08-10_11h08.00.448,lexical_decision_task_MP,2020.1.3,Win32,60,,m,1,0.52809,,,,,,,,0.52809,1,,,,,,162,WORD,"ID",50,candle,CANDLE,m,,,,,,0.009114583,-0.3984375,0,0,0,,0,380,380,101,1,
,,,,,,,,,,,,,,,,,,5ec799f7dab5741eaea37681,2020-08-10_11h08.00.448,lexical_decision_task_MP,2020.1.3,Win32,60,,z,1,0.820105,,,,,,,,0.820105,1,,,,,,242,NW,UN,50,musied,UNWERT,z,,,,,,0.009114583,-0.3984375,0,0,0,,0,381,381,421,1,
,,,,,,,,,,,,,,,,,,5ec799f7dab5741eaea37681,2020-08-10_11h08.00.448,lexical_decision_task_MP,2020.1.3,Win32,60,,m,1,0.54921,,,,,,,,0.54921,1,,,,,,157,WORD,"ID",50,dragon,DRAGON,m,,,,,,0.009114583,-0.3984375,0,0,0,,0,382,382,96,1,
,,,,,,,,,,,,,,,,,,5ec799f7dab5741eaea37681,2020-08-10_11h08.00.448,lexical_decision_task_MP,2020.1.3,Win32,60,,z,1,0.73229,,,,,,,,0.73229,1,,,,,,264,NW,UN,50,distar,VACKEL,z,,,,,,0.009114583,-0.3984375,0,0,0,,0,383,383,443,1,
,,,,,,,,,,,,,,,,,,5ec799f7dab5741eaea37681,2020-08-10_11h08.00.448,lexical_decision_task_MP,2020.1.3,Win32,60,,z,1,1.298825,,,,,,,,1.298825,1,,,,,,287,NW,UN,50,yaceup,NYMBEL,z,,,,,,0.009114583,-0.3984375,0,0,0,,0,384,384,466,1,
,,,,,,,,,,,,,,,,,,5ec799f7dab5741eaea37681,2020-08-10_11h08.00.448,lexical_decision_task_MP,2020.1.3,Win32,60,,m,1,0.581615,,,,,,,,0.581615,1,,,,,,137,WORD,"ID",50,finger,FINGER,m,,,,,,0.009114583,-0.3984375,0,0,0,,0,385,385,76,1,
,,,,,,,,,,,,,,,,,,5ec799f7dab5741eaea37681,2020-08-10_11h08.00.448,lexical_decision_task_MP,2020.1.3,Win32,60,,z,1,0.72984,,,,,,,,0.72984,1,,,,,,318,NW,"ID",33,reagly,REAGLY,z,,,,,,0.009114583,-0.3984375,0,0,0,,0,386,386,257,1,
,,,,,,,,,,,,,,,,,,5ec799f7dab5741eaea37681,2020-08-10_11h08.00.448,lexical_decision_task_MP,2020.1.3,Win32,60,,z,1,0.82166,,,,,,,,0.82166,1,,,,,,253,NW,UN,50,varosh,RESAIT,z,,,,,,0.009114583,-0.3984375,0,0,0,,0,387,387,432,1,
,,,,,,,,,,,,,,,,,,5ec799f7dab5741eaea37681,2020-08-10_11h08.00.448,lexical_decision_task_MP,2020.1.3,Win32,60,,m,1,0.52958,,,,,,,,0.52958,1,,,,,,153,WORD,"ID",50,behold,BEHOLD,m,,,,,,0.009114583,-0.3984375,0,0,0,,0,388,388,92,1,
,,,,,,,,,,,,,,,,,,5ec799f7dab5741eaea37681,2020-08-10_11h08.00.448,lexical_decision_task_MP,2020.1.3,Win32,60,,m,1,0.771095,,,,,,,,0.771095,1,,,,,,1,WORD,UN,50,ethnic,FRIGHT,m,,,,,,0.009114583,-0.3984375,0,0,0,,0,389,389,180,1,
,,,,,,,,,,,,,,,,,,5ec799f7dab5741eaea37681,2020-08-10_11h08.00.448,lexical_decision_task_MP,2020.1.3,Win32,60,,m,1,0.771055,,,,,,,,0.771055,1,,,,,,163,WORD,"ID",50,string,STRING,m,,,,,,0.009114583,-0.3984375,0,0,0,,0,390,390,102,1,
,,,,,,,,,,,,,,,,,,5ec799f7dab5741eaea37681,2020-08-10_11h08.00.448,lexical_decision_task_MP,2020.1.3,Win32,60,,z,1,0.67675,,,,,,,,0.67675,1,,,,,,295,NW,UN,50,beinch,GLEATH,z,,,,,,0.009114583,-0.3984375,0,0,0,,0,391,391,474,1,
,,,,,,,,,,,,,,,,,,5ec799f7dab5741eaea37681,2020-08-10_11h08.00.448,lexical_decision_task_MP,2020.1.3,Win32,60,,m,1,0.687245,,,,,,,,0.687245,1,,,,,,55,WORD,UN,50,ambush,STROKE,m,,,,,,0.009114583,-0.3984375,0,0,0,,0,392,392,234,1,
,,,,,,,,,,,,,,,,,,5ec799f7dab5741eaea37681,2020-08-10_11h08.00.448,lexical_decision_task_MP,2020.1.3,Win32,60,,z,1,0.77193,,,,,,,,0.77193,1,,,,,,434,NW,UN,33,impurb,PITROM,z,,,,,,0.009114583,-0.3984375,0,0,0,,0,393,393,373,1,
,,,,,,,,,,,,,,,,,,5ec799f7dab5741eaea37681,2020-08-10_11h08.00.448,lexical_decision_task_MP,2020.1.3,Win32,60,,m,1,0.580315,,,,,,,,0.580315,1,,,,,,117,WORD,"ID",33,branch,BRANCH,m,,,,,,0.009114583,-0.3984375,0,0,0,,0,394,394,56,1,
,,,,,,,,,,,,,,,,,,5ec799f7dab5741eaea37681,2020-08-10_11h08.00.448,lexical_decision_task_MP,2020.1.3,Win32,60,,m,1,0.635975,,,,,,,,0.635975,1,,,,,,203,WORD,UN,33,burden,PHRASE,m,,,,,,0.009114583,-0.3984375,0,0,0,,0,395,395,142,1,
,,,,,,,,,,,,,,,,,,5ec799f7dab5741eaea37681,2020-08-10_11h08.00.448,lexical_decision_task_MP,2020.1.3,Win32,60,,m,1,0.652425,,,,,,,,0.652425,1,,,,,,98,WORD,"ID",33,belong,BELONG,m,,,,,,0.009114583,-0.3984375,0,0,0,,0,396,396,37,1,
,,,,,,,,,,,,,,,,,,5ec799f7dab5741eaea37681,2020-08-10_11h08.00.448,lexical_decision_task_MP,2020.1.3,Win32,60,,m,1,0.75629,,,,,,,,0.75629,1,,,,,,205,WORD,UN,33,tailor,LOUNGE,m,,,,,,0.009114583,-0.3984375,0,0,0,,0,397,397,144,1,
,,,,,,,,,,,,,,,,,,5ec799f7dab5741eaea37681,2020-08-10_11h08.00.448,lexical_decision_task_MP,2020.1.3,Win32,60,,m,1,0.531575,,,,,,,,0.531575,1,,,,,,224,WORD,UN,33,vulgar,PERIOD,m,,,,,,0.009114583,-0.3984375,0,0,0,,0,398,398,163,1,
,,,,,,,,,,,,,,,,,,5ec799f7dab5741eaea37681,2020-08-10_11h08.00.448,lexical_decision_task_MP,2020.1.3,Win32,60,,m,1,0.539445,,,,,,,,0.539445,1,,,,,,95,WORD,"ID",33,thread,THREAD,m,,,,,,0.009114583,-0.3984375,0,0,0,,0,399,399,34,1,
,,,,,,,,,,,,,,,,,,5ec799f7dab5741eaea37681,2020-08-10_11h08.00.448,lexical_decision_task_MP,2020.1.3,Win32,60,,m,1,0.580805,,,,,,,,0.580805,1,,,,,,112,WORD,"ID",33,breath,BREATH,m,,,,,,0.009114583,-0.3984375,0,0,0,,0,400,400,51,1,
,,,,,,,,,,,,,,,,,,5ec799f7dab5741eaea37681,2020-08-10_11h08.00.448,lexical_decision_task_MP,2020.1.3,Win32,60,,m,1,0.594965,,,,,,,,0.594965,1,,,,,,122,WORD,"ID",50,linger,LINGER,m,,,,,,0.009114583,-0.3984375,0,0,0,,0,401,401,61,1,
,,,,,,,,,,,,,,,,,,5ec799f7dab5741eaea37681,2020-08-10_11h08.00.448,lexical_decision_task_MP,2020.1.3,Win32,60,,z,1,0.6712,,,,,,,,0.6712,1,,,,,,446,NW,UN,33,gircue,RUNAMO,z,,,,,,0.009114583,-0.3984375,0,0,0,,0,402,402,385,1,
,,,,,,,,,,,,,,,,,,5ec799f7dab5741eaea37681,2020-08-10_11h08.00.448,lexical_decision_task_MP,2020.1.3,Win32,60,,m,1,0.52859,,,,,,,,0.52859,1,,,,,,141,WORD,"ID",50,orphan,ORPHAN,m,,,,,,0.009114583,-0.3984375,0,0,0,,0,403,403,80,1,
,,,,,,,,,,,,,,,,,,5ec799f7dab5741eaea37681,2020-08-10_11h08.00.448,lexical_decision_task_MP,2020.1.3,Win32,60,,m,1,0.544525,,,,,,,,0.544525,1,,,,,,83,WORD,"ID",33,result,RESULT,m,,,,,,0.009114583,-0.3984375,0,0,0,,0,404,404,22,1,
,,,,,,,,,,,,,,,,,,5ec799f7dab5741eaea37681,2020-08-10_11h08.00.448,lexical_decision_task_MP,2020.1.3,Win32,60,,m,1,0.628695,,,,,,,,0.628695,1,,,,,,234,WORD,UN,33,poster,CLUMSY,m,,,,,,0.009114583,-0.3984375,0,0,0,,0,405,405,173,1,
