counterbalancing_condition,instr_done_keyboard.keys,instr_done_touch.x,instr_done_touch.y,instr_done_touch.leftButton,instr_done_touch.midButton,instr_done_touch.rightButton,instr_done_touch.clicked_name,instruction_pages.thisRepN,instruction_pages.thisTrialN,instruction_pages.thisN,instruction_pages.thisIndex,instruction_pages.ran,pageN,phase,instruct_text,has_image,instruct_image,participant,date,expName,psychopyVersion,OS,frameRate,response.keys,response.corr,touch_resp.x,touch_resp.y,touch_resp.leftButton,touch_resp.midButton,touch_resp.rightButton,touch_resp.time,touch_resp.clicked_name,rt,corr,practice_trials.thisRepN,practice_trials.thisTrialN,practice_trials.thisN,practice_trials.thisIndex,practice_trials.ran,TrialID,StimulusType,Condition,PrimeDuration,Prime,Target,corrAns,end_of_practice_trials_pages.thisRepN,end_of_practice_trials_pages.thisTrialN,end_of_practice_trials_pages.thisN,end_of_practice_trials_pages.thisIndex,end_of_practice_trials_pages.ran,break_done_touch.x,break_done_touch.y,break_done_touch.leftButton,break_done_touch.midButton,break_done_touch.rightButton,break_done_keyboard.keys,trials.thisRepN,trials.thisTrialN,trials.thisN,trials.thisIndex,trials.ran,break_done_touch.clicked_name
0,,0.08564499,-0.3855756,1,0,0,instr_done_button,0,0,0,0,1,1,instructions,"INSTRUCTIONS
At the start of each trial, look at the hash marks (######) in the center of the screen. After a moment, a string of letters will appear. Your task is to indicate if the letter string forms a word or not (i.e., if it is a nonword). For example, AUTHOR is a word while AUTHON is a nonword.

Press the space bar or touch the button below to continue.",0,,5ec83d67cfe53914464d2062,2020-08-10_16h31.35.738,lexical_decision_task_MP,2020.1.3,Linux armv8l,60,,,,,,,,,,,,,,,,,,,,,,,,,,,,,,,,,,,,,,,,
,,0.084951456,-0.399445321,1,0,0,instr_done_button,0,1,1,1,1,2,instructions,"If your device has a keyboard, press the 'Z' key for nonwords and the 'M' key for words.





Press the space bar or touch the button below to continue.",1,keyboard-example.gif,5ec83d67cfe53914464d2062,2020-08-10_16h31.35.738,lexical_decision_task_MP,2020.1.3,Linux armv8l,60,,,,,,,,,,,,,,,,,,,,,,,,,,,,,,,,,,,,,,,,
,,0.084951456,-0.397364792,1,0,0,instr_done_button,0,2,2,2,1,3,instructions,"If you are using a touchscreen only device, use the buttons on the screen. Do not use the mouse.





Press the space bar or touch the button below to continue.",1,touchscreen-example.gif,5ec83d67cfe53914464d2062,2020-08-10_16h31.35.738,lexical_decision_task_MP,2020.1.3,Linux armv8l,60,,,,,,,,,,,,,,,,,,,,,,,,,,,,,,,,,,,,,,,,
,,0.050970874,-0.40638007,1,0,0,instr_done_button,0,3,3,3,1,4,instructions,"It is very important that you respond as quickly and accurately as possible, as each letter string will only be on the screen for two seconds. If you do not respond within this time, the message 'Too slow!' will be displayed and the experiment will progress to the next letter string. The first 20 trials will be practice trials and you will receive feedback on your answers. 

Press the space bar or touch the button below to start the practice trials.",0,,5ec83d67cfe53914464d2062,2020-08-10_16h31.35.738,lexical_decision_task_MP,2020.1.3,Linux armv8l,60,,,,,,,,,,,,,,,,,,,,,,,,,,,,,,,,,,,,,,,,
,,,,,,,,,,,,,,,,,,5ec83d67cfe53914464d2062,2020-08-10_16h31.35.738,lexical_decision_task_MP,2020.1.3,Linux armv8l,60,,0,,,,,,,,,-1,0,0,0,2,1,1003,WORD,"ID",50,almond,ALMOND,m,,,,,,,,,,,,,,,,,
,,,,,,,,,,,,,,,,,,5ec83d67cfe53914464d2062,2020-08-10_16h31.35.738,lexical_decision_task_MP,2020.1.3,Linux armv8l,60,,0,-0.397711485,-0.254507639,1,0,0,1.043,button_left,1.043,1,0,1,1,11,1,1012,NW,"ID",50,rashet,RASHET,z,,,,,,,,,,,,,,,,,
,,,,,,,,,,,,,,,,,,5ec83d67cfe53914464d2062,2020-08-10_16h31.35.738,lexical_decision_task_MP,2020.1.3,Linux armv8l,60,,0,0.361650485,-0.241331526,1,0,0,0.8332,button_right,0.8332,1,0,2,2,4,1,1005,WORD,UN,33,abound,SQUEAK,m,,,,,,,,,,,,,,,,,
,,,,,,,,,,,,,,,,,,5ec83d67cfe53914464d2062,2020-08-10_16h31.35.738,lexical_decision_task_MP,2020.1.3,Linux armv8l,60,,0,-0.365811357,-0.317614435,1,0,0,1.1412,button_left,1.1412,1,0,3,3,8,1,1009,NW,"ID",33,aslert,ASLERT,z,,,,,,,,,,,,,,,,,
,,,,,,,,,,,,,,,,,,5ec83d67cfe53914464d2062,2020-08-10_16h31.35.738,lexical_decision_task_MP,2020.1.3,Linux armv8l,60,,0,0.42891819,-0.289181682,1,0,0,0.7897,button_right,0.7897,1,0,4,4,0,1,1001,WORD,"ID",33,utopia,UTOPIA,m,,,,,,,,,,,,,,,,,
,,,,,,,,,,,,,,,,,,5ec83d67cfe53914464d2062,2020-08-10_16h31.35.738,lexical_decision_task_MP,2020.1.3,Linux armv8l,60,,0,0.336685181,-0.291955596,1,0,0,0.837,button_right,0.837,1,0,5,5,5,1,1006,WORD,UN,33,frenzy,OBTAIN,m,,,,,,,,,,,,,,,,,
,,,,,,,,,,,,,,,,,,5ec83d67cfe53914464d2062,2020-08-10_16h31.35.738,lexical_decision_task_MP,2020.1.3,Linux armv8l,60,,0,-0.374133138,-0.261442462,1,0,0,0.944,button_left,0.944,1,0,6,6,13,1,1014,NW,UN,33,winfer,ROUPET,z,,,,,,,,,,,,,,,,,
,,,,,,,,,,,,,,,,,,5ec83d67cfe53914464d2062,2020-08-10_16h31.35.738,lexical_decision_task_MP,2020.1.3,Linux armv8l,60,,0,-0.383148379,-0.296809965,1,0,0,0.826,button_left,0.826,1,0,7,7,9,1,1010,NW,"ID",33,fariny,FARINY,z,,,,,,,,,,,,,,,,,
,,,,,,,,,,,,,,,,,,5ec83d67cfe53914464d2062,2020-08-10_16h31.35.738,lexical_decision_task_MP,2020.1.3,Linux armv8l,60,,0,0.394244148,-0.285020847,1,0,0,0.7075,button_right,0.7075,1,0,8,8,6,1,1007,WORD,UN,50,tropic,ZOMBIE,m,,,,,,,,,,,,,,,,,
,,,,,,,,,,,,,,,,,,5ec83d67cfe53914464d2062,2020-08-10_16h31.35.738,lexical_decision_task_MP,2020.1.3,Linux armv8l,60,,0,0.418515992,-0.264216377,1,0,0,0.8163,button_right,0.8163,1,0,9,9,1,1,1002,WORD,"ID",33,adjust,ADJUST,m,,,,,,,,,,,,,,,,,
,,,,,,,,,,,,,,,,,,5ec83d67cfe53914464d2062,2020-08-10_16h31.35.738,lexical_decision_task_MP,2020.1.3,Linux armv8l,60,,0,-0.296463235,-0.248959884,1,0,0,1.1685,button_left,1.1685,1,0,10,10,10,1,1011,NW,"ID",50,inlade,INLADE,z,,,,,,,,,,,,,,,,,
,,,,,,,,,,,,,,,,,,5ec83d67cfe53914464d2062,2020-08-10_16h31.35.738,lexical_decision_task_MP,2020.1.3,Linux armv8l,60,,0,-0.375520095,-0.337725371,1,0,0,1.047,button_left,1.047,1,0,11,11,14,1,1015,NW,UN,50,miaber,THRALE,z,,,,,,,,,,,,,,,,,
,,,,,,,,,,,,,,,,,,5ec83d67cfe53914464d2062,2020-08-10_16h31.35.738,lexical_decision_task_MP,2020.1.3,Linux armv8l,60,,0,0.361650485,-0.289875216,1,0,0,0.7041,button_right,0.7041,1,0,12,12,7,1,1008,WORD,UN,50,hurdle,VOLUME,m,,,,,,,,,,,,,,,,,
,,,,,,,,,,,,,,,,,,5ec83d67cfe53914464d2062,2020-08-10_16h31.35.738,lexical_decision_task_MP,2020.1.3,Linux armv8l,60,,0,-0.356102619,-0.274618575,1,0,0,0.8858,button_left,0.8858,1,0,13,13,12,1,1013,NW,UN,33,adveil,SPRINY,z,,,,,,,,,,,,,,,,,
,,,,,,,,,,,,,,,,,,5ec83d67cfe53914464d2062,2020-08-10_16h31.35.738,lexical_decision_task_MP,2020.1.3,Linux armv8l,60,,0,0.372746144,-0.286407767,1,0,0,0.9715,button_right,0.9715,1,0,14,14,3,1,1004,WORD,"ID",50,matrix,MATRIX,m,,,,,,,,,,,,,,,,,
,,,,,,,,,,,,,,,,,,5ec83d67cfe53914464d2062,2020-08-10_16h31.35.738,lexical_decision_task_MP,2020.1.3,Linux armv8l,60,,0,-0.412968089,-0.298196959,1,0,0,0.8738,button_left,0.8738,1,0,15,15,15,1,1016,NW,UN,50,mushed,WHAISE,z,,,,,,,,,,,,,,,,,
,,0.067614435,-0.408460524,1,0,0,instr_done_button,,,,,,1,end_of_practice,"You have completed the practice trials. During the experimental trials, you will not receive feedback, but it is very important that you respond as quickly and accurately as possible. 
Before you begin, please ensure that you are in a comfortable and quiet location and will not be disturbed for about 15 minutes, as we cannot use your data if you do not complete all the trials. 
There will be opportunities to take breaks at regular intervals during the experiment. When you are ready to start the experimental trials, please press space or touch the button below.",,,5ec83d67cfe53914464d2062,2020-08-10_16h31.35.738,lexical_decision_task_MP,2020.1.3,Linux armv8l,60,,,,,,,,,,,,,,,,,,,,,,,,0,0,0,0,1,,,,,,,,,,,,
,,,,,,,,,,,,,,,,,,5ec83d67cfe53914464d2062,2020-08-10_16h31.35.738,lexical_decision_task_MP,2020.1.3,Linux armv8l,60,,0,0.368585383,-0.262135922,1,0,0,0.7774,button_right,0.7774,1,,,,,,2,WORD,"ID",50,bridge,BRIDGE,m,,,,,,0.368585383,-0.262135922,1,0,0,,0,0,0,61,1,
,,,,,,,,,,,,,,,,,,5ec83d67cfe53914464d2062,2020-08-10_16h31.35.738,lexical_decision_task_MP,2020.1.3,Linux armv8l,60,,0,0.390083239,-0.319694889,1,0,0,0.7209,button_right,0.7209,1,,,,,,200,WORD,"ID",33,beacon,BEACON,m,,,,,,0.390083239,-0.319694889,1,0,0,,0,1,1,19,1,
,,,,,,,,,,,,,,,,,,5ec83d67cfe53914464d2062,2020-08-10_16h31.35.738,lexical_decision_task_MP,2020.1.3,Linux armv8l,60,,0,0.392163619,-0.284327313,1,0,0,0.9332,button_right,0.9332,1,,,,,,184,WORD,"ID",33,sleazy,SLEAZY,m,,,,,,0.392163619,-0.284327313,1,0,0,,0,2,2,3,1,
,,,,,,,,,,,,,,,,,,5ec83d67cfe53914464d2062,2020-08-10_16h31.35.738,lexical_decision_task_MP,2020.1.3,Linux armv8l,60,,0,-0.400485437,-0.266296831,1,0,0,0.7941,button_left,0.7941,1,,,,,,405,NW,UN,50,nouply,FLUMNI,z,,,,,,-0.400485437,-0.266296831,1,0,0,,0,3,3,464,1,
,,,,,,,,,,,,,,,,,,5ec83d67cfe53914464d2062,2020-08-10_16h31.35.738,lexical_decision_task_MP,2020.1.3,Linux armv8l,60,,0,-0.354715662,-0.274618575,1,0,0,1.0805,button_left,1.0805,0,,,,,,129,WORD,UN,50,stupid,MARVEL,m,,,,,,-0.354715662,-0.274618575,1,0,0,,0,4,4,188,1,
,,,,,,,,,,,,,,,,,,5ec83d67cfe53914464d2062,2020-08-10_16h31.35.738,lexical_decision_task_MP,2020.1.3,Linux armv8l,60,,0,0.372746144,-0.267683751,1,0,0,0.6711,button_right,0.6711,1,,,,,,24,WORD,"ID",50,praise,PRAISE,m,,,,,,0.372746144,-0.267683751,1,0,0,,0,5,5,83,1,
,,,,,,,,,,,,,,,,,,5ec83d67cfe53914464d2062,2020-08-10_16h31.35.738,lexical_decision_task_MP,2020.1.3,Linux armv8l,60,,0,0.382454881,-0.310679612,1,0,0,0.7777,button_right,0.7777,1,,,,,,199,WORD,"ID",33,invoke,INVOKE,m,,,,,,0.382454881,-0.310679612,1,0,0,,0,6,6,18,1,
,,,,,,,,,,,,,,,,,,5ec83d67cfe53914464d2062,2020-08-10_16h31.35.738,lexical_decision_task_MP,2020.1.3,Linux armv8l,60,,0,-0.447642169,-0.299583954,1,0,0,0.8774,button_left,0.8774,1,,,,,,378,NW,UN,50,auting,SHRILE,z,,,,,,-0.447642169,-0.299583954,1,0,0,,0,7,7,437,1,
,,,,,,,,,,,,,,,,,,5ec83d67cfe53914464d2062,2020-08-10_16h31.35.738,lexical_decision_task_MP,2020.1.3,Linux armv8l,60,,0,0.375520132,-0.330097087,1,0,0,0.7793,button_right,0.7793,1,,,,,,128,WORD,UN,50,marvel,SENIOR,m,,,,,,0.375520132,-0.330097087,1,0,0,,0,8,8,187,1,
,,,,,,,,,,,,,,,,,,5ec83d67cfe53914464d2062,2020-08-10_16h31.35.738,lexical_decision_task_MP,2020.1.3,Linux armv8l,60,,0,-0.397018025,-0.301664334,1,0,0,1.011,button_left,1.011,1,,,,,,413,NW,UN,50,serbol,EQUATS,z,,,,,,-0.397018025,-0.301664334,1,0,0,,0,9,9,472,1,
,,,,,,,,,,,,,,,,,,5ec83d67cfe53914464d2062,2020-08-10_16h31.35.738,lexical_decision_task_MP,2020.1.3,Linux armv8l,60,,0,-0.403952849,-0.248959884,1,0,0,0.9545,button_left,0.9545,1,,,,,,327,NW,UN,33,broake,PLENAC,z,,,,,,-0.403952849,-0.248959884,1,0,0,,0,10,10,386,1,
,,,,,,,,,,,,,,,,,,5ec83d67cfe53914464d2062,2020-08-10_16h31.35.738,lexical_decision_task_MP,2020.1.3,Linux armv8l,60,,0,0.363037406,-0.330790547,1,0,0,0.6352,button_right,0.6352,1,,,,,,188,WORD,"ID",33,social,SOCIAL,m,,,,,,0.363037406,-0.330790547,1,0,0,,0,11,11,7,1,
,,,,,,,,,,,,,,,,,,5ec83d67cfe53914464d2062,2020-08-10_16h31.35.738,lexical_decision_task_MP,2020.1.3,Linux armv8l,60,,0,-0.397711485,-0.27184466,1,0,0,0.8738,button_left,0.8738,1,,,,,,315,NW,UN,33,scregm,LASTON,z,,,,,,-0.397711485,-0.27184466,1,0,0,,0,12,12,374,1,
,,,,,,,,,,,,,,,,,,5ec83d67cfe53914464d2062,2020-08-10_16h31.35.738,lexical_decision_task_MP,2020.1.3,Linux armv8l,60,,0,-0.404646309,-0.276699029,1,0,0,0.9586,button_left,0.9586,1,,,,,,357,NW,UN,33,fleack,DERAIN,z,,,,,,-0.404646309,-0.276699029,1,0,0,,0,13,13,416,1,
,,,,,,,,,,,,,,,,,,5ec83d67cfe53914464d2062,2020-08-10_16h31.35.738,lexical_decision_task_MP,2020.1.3,Linux armv8l,60,,0,0.413661623,-0.300970874,1,0,0,0.6487,button_right,0.6487,1,,,,,,78,WORD,UN,33,theory,COLUMN,m,,,,,,0.413661623,-0.300970874,1,0,0,,0,14,14,137,1,
,,,,,,,,,,,,,,,,,,5ec83d67cfe53914464d2062,2020-08-10_16h31.35.738,lexical_decision_task_MP,2020.1.3,Linux armv8l,60,,0,0.390776699,-0.246185895,1,0,0,0.6425,button_right,0.6425,1,,,,,,54,WORD,"ID",50,ramble,RAMBLE,m,,,,,,0.390776699,-0.246185895,1,0,0,,0,15,15,113,1,
,,,,,,,,,,,,,,,,,,5ec83d67cfe53914464d2062,2020-08-10_16h31.35.738,lexical_decision_task_MP,2020.1.3,Linux armv8l,60,,0,-0.392857116,-0.321775418,1,0,0,0.9094,button_left,0.9094,1,,,,,,253,NW,"ID",50,resait,RESAIT,z,,,,,,-0.392857116,-0.321775418,1,0,0,,0,16,16,312,1,
,,,,,,,,,,,,,,,,,,5ec83d67cfe53914464d2062,2020-08-10_16h31.35.738,lexical_decision_task_MP,2020.1.3,Linux armv8l,60,,0,0.349861367,-0.281553398,1,0,0,0.7283,button_right,0.7283,1,,,,,,207,WORD,"ID",33,wreath,WREATH,m,,,,,,0.349861367,-0.281553398,1,0,0,,0,17,17,26,1,
,,,,,,,,,,,,,,,,,,5ec83d67cfe53914464d2062,2020-08-10_16h31.35.738,lexical_decision_task_MP,2020.1.3,Linux armv8l,60,,0,0.364424622,-0.332871002,1,0,0,0.6566,button_right,0.6566,1,,,,,,234,WORD,"ID",33,clumsy,CLUMSY,m,,,,,,0.364424622,-0.332871002,1,0,0,,0,18,18,53,1,
,,,,,,,,,,,,,,,,,,5ec83d67cfe53914464d2062,2020-08-10_16h31.35.738,lexical_decision_task_MP,2020.1.3,Linux armv8l,60,,0,0.388002859,-0.276699029,1,0,0,0.61,button_right,0.61,1,,,,,,27,WORD,"ID",50,scream,SCREAM,m,,,,,,0.388002859,-0.276699029,1,0,0,,0,19,19,86,1,
,,,,,,,,,,,,,,,,,,5ec83d67cfe53914464d2062,2020-08-10_16h31.35.738,lexical_decision_task_MP,2020.1.3,Linux armv8l,60,,0,0.42683781,-0.284327313,1,0,0,0.6142,button_right,0.6142,1,,,,,,85,WORD,UN,33,rodent,SPRAWL,m,,,,,,0.42683781,-0.284327313,1,0,0,,0,20,20,144,1,
,,,,,,,,,,,,,,,,,,5ec83d67cfe53914464d2062,2020-08-10_16h31.35.738,lexical_decision_task_MP,2020.1.3,Linux armv8l,60,,0,0.394937608,-0.291955596,1,0,0,0.5947,button_right,0.5947,1,,,,,,181,WORD,"ID",33,glance,GLANCE,m,,,,,,0.394937608,-0.291955596,1,0,0,,0,21,21,0,1,
,,,,,,,,,,,,,,,,,,5ec83d67cfe53914464d2062,2020-08-10_16h31.35.738,lexical_decision_task_MP,2020.1.3,Linux armv8l,60,,0,0.403259574,-0.300277414,1,0,0,0.6983,button_right,0.6983,1,,,,,,3,WORD,"ID",50,knight,KNIGHT,m,,,,,,0.403259574,-0.300277414,1,0,0,,0,22,22,62,1,
,,,,,,,,,,,,,,,,,,5ec83d67cfe53914464d2062,2020-08-10_16h31.35.738,lexical_decision_task_MP,2020.1.3,Linux armv8l,60,,0,-0.326282909,-0.287101227,1,0,0,0.7166,button_left,0.7166,1,,,,,,279,NW,"ID",50,celond,CELOND,z,,,,,,-0.326282909,-0.287101227,1,0,0,,0,23,23,338,1,
,,,,,,,,,,,,,,,,,,5ec83d67cfe53914464d2062,2020-08-10_16h31.35.738,lexical_decision_task_MP,2020.1.3,Linux armv8l,60,,0,-0.410887635,-0.27184466,1,0,0,1.0827,button_left,1.0827,1,,,,,,311,NW,UN,33,nerawl,SPROLY,z,,,,,,-0.410887635,-0.27184466,1,0,0,,0,24,24,370,1,
,,,,,,,,,,,,,,,,,,5ec83d67cfe53914464d2062,2020-08-10_16h31.35.738,lexical_decision_task_MP,2020.1.3,Linux armv8l,60,,0,-0.358183074,-0.318307895,1,0,0,0.8828,button_left,0.8828,1,,,,,,369,NW,UN,50,sleact,WRONCH,z,,,,,,-0.358183074,-0.318307895,1,0,0,,0,25,25,428,1,
,,,,,,,,,,,,,,,,,,5ec83d67cfe53914464d2062,2020-08-10_16h31.35.738,lexical_decision_task_MP,2020.1.3,Linux armv8l,60,,0,0.410194175,-0.327323173,1,0,0,0.6493,button_right,0.6493,1,,,,,,117,WORD,UN,33,flight,BRANCH,m,,,,,,0.410194175,-0.327323173,1,0,0,,0,26,26,176,1,
,,,,,,,,,,,,,,,,,,5ec83d67cfe53914464d2062,2020-08-10_16h31.35.738,lexical_decision_task_MP,2020.1.3,Linux armv8l,60,,0,-0.357489577,-0.291955596,1,0,0,0.8986,button_left,0.8986,1,,,,,,367,NW,UN,50,hornal,SLIQUE,z,,,,,,-0.357489577,-0.291955596,1,0,0,,0,27,27,426,1,
,,,,,,,,,,,,,,,,,,5ec83d67cfe53914464d2062,2020-08-10_16h31.35.738,lexical_decision_task_MP,2020.1.3,Linux armv8l,60,,0,-0.406726763,-0.301664334,1,0,0,0.9341,button_left,0.9341,1,,,,,,395,NW,UN,50,flengy,COLURY,z,,,,,,-0.406726763,-0.301664334,1,0,0,,0,28,28,454,1,
,,,,,,,,,,,,,,,,,,5ec83d67cfe53914464d2062,2020-08-10_16h31.35.738,lexical_decision_task_MP,2020.1.3,Linux armv8l,60,,0,0.350554827,-0.236477157,1,0,0,0.9132,button_right,0.9132,1,,,,,,113,WORD,UN,33,placid,CHORUS,m,,,,,,0.350554827,-0.236477157,1,0,0,,0,29,29,172,1,
,,,,,,,,,,,,,,,,,,5ec83d67cfe53914464d2062,2020-08-10_16h31.35.738,lexical_decision_task_MP,2020.1.3,Linux armv8l,60,,0,0.393550836,-0.307212311,1,0,0,0.67,button_right,0.67,1,,,,,,224,WORD,"ID",33,period,PERIOD,m,,,,,,0.393550836,-0.307212311,1,0,0,,0,30,30,43,1,
,,,,,,,,,,,,,,,,,,5ec83d67cfe53914464d2062,2020-08-10_16h31.35.738,lexical_decision_task_MP,2020.1.3,Linux armv8l,60,,0,0.388696467,-0.259362008,1,0,0,0.7944,button_right,0.7944,1,,,,,,74,WORD,UN,33,trophy,PLAQUE,m,,,,,,0.388696467,-0.259362008,1,0,0,,0,31,31,133,1,
,,,,,,,,,,,,,,,,,,5ec83d67cfe53914464d2062,2020-08-10_16h31.35.738,lexical_decision_task_MP,2020.1.3,Linux armv8l,60,,0,0.317961165,-0.254507639,1,0,0,0.7762,button_right,0.7762,1,,,,,,58,WORD,"ID",50,foster,FOSTER,m,,,,,,0.317961165,-0.254507639,1,0,0,,0,32,32,117,1,
,,,,,,,,,,,,,,,,,,5ec83d67cfe53914464d2062,2020-08-10_16h31.35.738,lexical_decision_task_MP,2020.1.3,Linux armv8l,60,,0,-0.347780839,-0.266296831,1,0,0,0.8048,button_left,0.8048,1,,,,,,293,NW,"ID",50,swance,SWANCE,z,,,,,,-0.347780839,-0.266296831,1,0,0,,0,33,33,352,1,
,,,,,,,,,,,,,,,,,,5ec83d67cfe53914464d2062,2020-08-10_16h31.35.738,lexical_decision_task_MP,2020.1.3,Linux armv8l,60,,0,-0.403259351,-0.312760066,1,0,0,0.8714,button_left,0.8714,1,,,,,,469,NW,"ID",33,padifs,PADIFS,z,,,,,,-0.403259351,-0.312760066,1,0,0,,0,34,34,288,1,
,,,,,,,,,,,,,,,,,,5ec83d67cfe53914464d2062,2020-08-10_16h31.35.738,lexical_decision_task_MP,2020.1.3,Linux armv8l,60,,0,0.357489577,-0.292649204,1,0,0,0.825,button_right,0.825,1,,,,,,100,WORD,UN,33,wrench,CARBON,m,,,,,,0.357489577,-0.292649204,1,0,0,,0,35,35,159,1,
,,,,,,,,,,,,,,,,,,5ec83d67cfe53914464d2062,2020-08-10_16h31.35.738,lexical_decision_task_MP,2020.1.3,Linux armv8l,60,,0,0.315187325,-0.276005569,1,0,0,1.0622,button_right,1.0622,1,,,,,,183,WORD,"ID",33,mildew,MILDEW,m,,,,,,0.315187325,-0.276005569,1,0,0,,0,36,36,2,1,
,,,,,,,,,,,,,,,,,,5ec83d67cfe53914464d2062,2020-08-10_16h31.35.738,lexical_decision_task_MP,2020.1.3,Linux armv8l,60,,0,-0.328363363,-0.273925115,1,0,0,0.7442,button_left,0.7442,1,,,,,,241,NW,"ID",50,smenco,SMENCO,z,,,,,,-0.328363363,-0.273925115,1,0,0,,0,37,37,300,1,
,,,,,,,,,,,,,,,,,,5ec83d67cfe53914464d2062,2020-08-10_16h31.35.738,lexical_decision_task_MP,2020.1.3,Linux armv8l,60,,0,-0.360263528,-0.324549258,1,0,0,0.7802,button_left,0.7802,1,,,,,,415,NW,UN,50,pathel,HIGSTA,z,,,,,,-0.360263528,-0.324549258,1,0,0,,0,38,38,474,1,
,,,,,,,,,,,,,,,,,,5ec83d67cfe53914464d2062,2020-08-10_16h31.35.738,lexical_decision_task_MP,2020.1.3,Linux armv8l,60,,0,-0.374133138,-0.239944532,1,0,0,0.8287,button_left,0.8287,1,,,,,,308,NW,UN,33,amiloy,PSETCH,z,,,,,,-0.374133138,-0.239944532,1,0,0,,0,39,39,367,1,
,,,,,,,,,,,,,,,,,,5ec83d67cfe53914464d2062,2020-08-10_16h31.35.738,lexical_decision_task_MP,2020.1.3,Linux armv8l,60,,0,-0.315187251,-0.292649204,1,0,0,0.9009,button_left,0.9009,1,,,,,,343,NW,UN,33,scrily,AIMOSY,z,,,,,,-0.315187251,-0.292649204,1,0,0,,0,40,40,402,1,
,,,,,,,,,,,,,,,,,,5ec83d67cfe53914464d2062,2020-08-10_16h31.35.738,lexical_decision_task_MP,2020.1.3,Linux armv8l,60,,0,-0.354022165,-0.316227441,1,0,0,0.8353,button_left,0.8353,1,,,,,,461,NW,"ID",33,justre,JUSTRE,z,,,,,,-0.354022165,-0.316227441,1,0,0,,0,41,41,280,1,
,,,,,,,,,,,,,,,,,,5ec83d67cfe53914464d2062,2020-08-10_16h31.35.738,lexical_decision_task_MP,2020.1.3,Linux armv8l,60,,0,-0.315880711,-0.31206668,1,0,0,0.83,button_left,0.83,1,,,,,,256,NW,"ID",50,inlors,INLORS,z,,,,,,-0.315880711,-0.31206668,1,0,0,,0,42,42,315,1,
,,,,,,,,,,,,,,,,,,5ec83d67cfe53914464d2062,2020-08-10_16h31.35.738,lexical_decision_task_MP,2020.1.3,Linux armv8l,60,,0,-0.329750357,-0.265603371,1,0,0,0.8246,button_left,0.8246,1,,,,,,394,NW,UN,50,colury,SPAQUX,z,,,,,,-0.329750357,-0.265603371,1,0,0,,0,43,43,453,1,
,,,,,,,,,,,,,,,,,,5ec83d67cfe53914464d2062,2020-08-10_16h31.35.738,lexical_decision_task_MP,2020.1.3,Linux armv8l,60,,0,0.467059682,-0.273231729,1,0,0,0.7017,button_right,0.7017,1,,,,,,221,WORD,"ID",33,mascot,MASCOT,m,,,,,,0.467059682,-0.273231729,1,0,0,,0,44,44,40,1,
,,,,,,,,,,,,,,,,,,5ec83d67cfe53914464d2062,2020-08-10_16h31.35.738,lexical_decision_task_MP,2020.1.3,Linux armv8l,60,,0,0.297850229,-0.256588093,1,0,0,0.8444,button_right,0.8444,1,,,,,,35,WORD,"ID",50,socket,SOCKET,m,,,,,,0.297850229,-0.256588093,1,0,0,,0,45,45,94,1,
,,,,,,,,,,,,,,,,,,5ec83d67cfe53914464d2062,2020-08-10_16h31.35.738,lexical_decision_task_MP,2020.1.3,Linux armv8l,60,,0,-0.349167796,-0.301664334,1,0,0,0.7649,button_left,0.7649,1,,,,,,375,NW,UN,50,iguare,YORQUE,z,,,,,,-0.349167796,-0.301664334,1,0,0,,0,46,46,434,1,
,,,,,,,,,,,,,,,,,,5ec83d67cfe53914464d2062,2020-08-10_16h31.35.738,lexical_decision_task_MP,2020.1.3,Linux armv8l,60,,0,0.309639347,-0.298196959,1,0,0,0.8473,button_right,0.8473,1,,,,,,26,WORD,"ID",50,sprint,SPRINT,m,,,,,,0.309639347,-0.298196959,1,0,0,,0,47,47,85,1,
,,,,,,,,,,,,,,,,,,5ec83d67cfe53914464d2062,2020-08-10_16h31.35.738,lexical_decision_task_MP,2020.1.3,Linux armv8l,60,,0,0.489250998,-0.230235794,1,0,0,0.601,button_right,0.601,1,,,,,,150,WORD,UN,50,mystic,RANDOM,m,,,,,,0.489250998,-0.230235794,1,0,0,,0,48,48,209,1,
,,,,,,,,,,,,,,,,,,5ec83d67cfe53914464d2062,2020-08-10_16h31.35.738,lexical_decision_task_MP,2020.1.3,Linux armv8l,60,,0,-0.34292647,-0.27045774,1,0,0,0.8321,button_left,0.8321,1,,,,,,267,NW,"ID",50,pasink,PASINK,z,,,,,,-0.34292647,-0.27045774,1,0,0,,0,49,49,326,1,
,,,,,,,,,,,,,,,,,,5ec83d67cfe53914464d2062,2020-08-10_16h31.35.738,lexical_decision_task_MP,2020.1.3,Linux armv8l,60,,0,-0.365811357,-0.29403605,1,0,0,1.0291,button_left,1.0291,1,,,,,,325,NW,UN,33,iguade,THRUSE,z,,,,,,-0.365811357,-0.29403605,1,0,0,,0,50,50,384,1,
,,,,,,,,,,,,,,,,,,5ec83d67cfe53914464d2062,2020-08-10_16h31.35.738,lexical_decision_task_MP,2020.1.3,Linux armv8l,60,,0,0.369278991,-0.304438322,1,0,0,0.7119,button_right,0.7119,1,,,,,,57,WORD,"ID",50,change,CHANGE,m,,,,,,0.369278991,-0.304438322,1,0,0,,0,51,51,116,1,
,,,,,,,,,,,,,,,,,,5ec83d67cfe53914464d2062,2020-08-10_16h31.35.738,lexical_decision_task_MP,2020.1.3,Linux armv8l,60,,0,0.433772559,-0.253814253,1,0,0,0.646,button_right,0.646,1,,,,,,109,WORD,UN,33,polite,WONDER,m,,,,,,0.433772559,-0.253814253,1,0,0,,0,52,52,168,1,
,,,,,,,,,,,,,,,,,,5ec83d67cfe53914464d2062,2020-08-10_16h31.35.738,lexical_decision_task_MP,2020.1.3,Linux armv8l,60,,0,-0.316574171,-0.284327313,1,0,0,0.8466,button_left,0.8466,1,,,,,,373,NW,UN,50,sliant,BIGENT,z,,,,,,-0.316574171,-0.284327313,1,0,0,,0,53,53,432,1,
,,,,,,,,,,,,,,,,,,5ec83d67cfe53914464d2062,2020-08-10_16h31.35.738,lexical_decision_task_MP,2020.1.3,Linux armv8l,60,,0,0.308945887,-0.288488221,1,0,0,0.8666,button_right,0.8666,1,,,,,,119,WORD,UN,33,strain,SPIDER,m,,,,,,0.308945887,-0.288488221,1,0,0,,0,54,54,178,1,
,,,,,,,,,,,,,,,,,,5ec83d67cfe53914464d2062,2020-08-10_16h31.35.738,lexical_decision_task_MP,2020.1.3,Linux armv8l,60,,0,-0.315880711,-0.27045774,1,0,0,0.7499,button_left,0.7499,1,,,,,,421,NW,"ID",33,knisma,KNISMA,z,,,,,,-0.315880711,-0.27045774,1,0,0,,0,55,55,240,1,
,,,,,,,,,,,,,,,,,,5ec83d67cfe53914464d2062,2020-08-10_16h31.35.738,lexical_decision_task_MP,2020.1.3,Linux armv8l,60,,0,0.396324528,-0.305825243,1,0,0,0.6339,button_right,0.6339,1,,,,,,83,WORD,UN,33,mortal,RESULT,m,,,,,,0.396324528,-0.305825243,1,0,0,,0,56,56,142,1,
,,,,,,,,,,,,,,,,,,5ec83d67cfe53914464d2062,2020-08-10_16h31.35.738,lexical_decision_task_MP,2020.1.3,Linux armv8l,60,,0,-0.357489577,-0.300277414,1,0,0,0.7679,button_left,0.7679,1,,,,,,284,NW,"ID",50,shaple,SHAPLE,z,,,,,,-0.357489577,-0.300277414,1,0,0,,0,57,57,343,1,
,,,,,,,,,,,,,,,,,,5ec83d67cfe53914464d2062,2020-08-10_16h31.35.738,lexical_decision_task_MP,2020.1.3,Linux armv8l,60,,0,0.417129072,-0.284327313,1,0,0,0.7294,button_right,0.7294,1,,,,,,93,WORD,UN,33,travel,PUBLIC,m,,,,,,0.417129072,-0.284327313,1,0,0,,0,58,58,152,1,
,,,,,,,,,,,,,,,,,,5ec83d67cfe53914464d2062,2020-08-10_16h31.35.738,lexical_decision_task_MP,2020.1.3,Linux armv8l,60,,0,-0.394244111,-0.305131783,1,0,0,0.9624,button_left,0.9624,1,,,,,,338,NW,UN,33,fachow,WREASH,z,,,,,,-0.394244111,-0.305131783,1,0,0,,0,59,59,397,1,
,,,,,,,,,,,,,,,,,,5ec83d67cfe53914464d2062,2020-08-10_16h31.35.738,lexical_decision_task_MP,2020.1.3,Linux armv8l,60,,0,-0.339459095,-0.282246858,1,0,0,1.0839,button_left,1.0839,1,,,,,,271,NW,"ID",50,aubrid,AUBRID,z,,,,,,-0.339459095,-0.282246858,1,0,0,,0,60,60,330,1,
,,,,,,,,,,,,,,,,,,5ec83d67cfe53914464d2062,2020-08-10_16h31.35.738,lexical_decision_task_MP,2020.1.3,Linux armv8l,60,,0,0.406726726,-0.298890419,1,0,0,0.7256,button_right,0.7256,1,,,,,,225,WORD,"ID",33,vulgar,VULGAR,m,,,,,,0.406726726,-0.298890419,1,0,0,,0,61,61,44,1,
,,,,,,,,,,,,,,,,,,5ec83d67cfe53914464d2062,2020-08-10_16h31.35.738,lexical_decision_task_MP,2020.1.3,Linux armv8l,60,,0,0.383842098,-0.296116505,1,0,0,0.7462,button_right,0.7462,1,,,,,,145,WORD,UN,50,couple,PARISH,m,,,,,,0.383842098,-0.296116505,1,0,0,,0,62,62,204,1,
,,,,,,,,,,,,,,,,,,5ec83d67cfe53914464d2062,2020-08-10_16h31.35.738,lexical_decision_task_MP,2020.1.3,Linux armv8l,60,,0,0.442787837,-0.288488221,1,0,0,0.5991,button_right,0.5991,1,,,,,,229,WORD,"ID",33,mother,MOTHER,m,,,,,,0.442787837,-0.288488221,1,0,0,,0,63,63,48,1,
,,,,,,,,,,,,,,,,,,5ec83d67cfe53914464d2062,2020-08-10_16h31.35.738,lexical_decision_task_MP,2020.1.3,Linux armv8l,60,,0,-0.390776699,-0.286407767,1,0,0,0.7237,button_left,0.7237,1,,,,,,453,NW,"ID",33,bolvis,BOLVIS,z,,,,,,-0.390776699,-0.286407767,1,0,0,,0,64,64,272,1,
,,,,,,,,,,,,,,,,,,5ec83d67cfe53914464d2062,2020-08-10_16h31.35.738,lexical_decision_task_MP,2020.1.3,Linux armv8l,60,,0,0.419902913,-0.266296831,1,0,0,0.6663,button_right,0.6663,1,,,,,,13,WORD,"ID",50,strive,STRIVE,m,,,,,,0.419902913,-0.266296831,1,0,0,,0,65,65,72,1,
,,,,,,,,,,,,,,,,,,5ec83d67cfe53914464d2062,2020-08-10_16h31.35.738,lexical_decision_task_MP,2020.1.3,Linux armv8l,60,,0,0.423370361,-0.303051328,1,0,0,0.7283,button_right,0.7283,1,,,,,,185,WORD,"ID",33,bother,BOTHER,m,,,,,,0.423370361,-0.303051328,1,0,0,,0,66,66,4,1,
,,,,,,,,,,,,,,,,,,5ec83d67cfe53914464d2062,2020-08-10_16h31.35.738,lexical_decision_task_MP,2020.1.3,Linux armv8l,60,,0,0.41782268,-0.283633852,1,0,0,0.6693,button_right,0.6693,1,,,,,,1,WORD,"ID",50,fright,FRIGHT,m,,,,,,0.41782268,-0.283633852,1,0,0,,0,67,67,60,1,
,,,,,,,,,,,,,,,,,,5ec83d67cfe53914464d2062,2020-08-10_16h31.35.738,lexical_decision_task_MP,2020.1.3,Linux armv8l,60,,0,0.442787837,-0.257975014,1,0,0,0.6764,button_right,0.6764,1,,,,,,152,WORD,UN,50,behold,ROCKET,m,,,,,,0.442787837,-0.257975014,1,0,0,,0,68,68,211,1,
,,,,,,,,,,,,,,,,,,5ec83d67cfe53914464d2062,2020-08-10_16h31.35.738,lexical_decision_task_MP,2020.1.3,Linux armv8l,60,,0,-0.357489577,-0.307905697,1,0,0,0.781,button_left,0.781,1,,,,,,385,NW,UN,50,ancust,VEIGMA,z,,,,,,-0.357489577,-0.307905697,1,0,0,,0,69,69,444,1,
,,,,,,,,,,,,,,,,,,5ec83d67cfe53914464d2062,2020-08-10_16h31.35.738,lexical_decision_task_MP,2020.1.3,Linux armv8l,60,,0,-0.312413336,-0.290568676,1,0,0,1.1292,button_left,1.1292,1,,,,,,444,NW,"ID",33,jaunce,JAUNCE,z,,,,,,-0.312413336,-0.290568676,1,0,0,,0,70,70,263,1,
,,,,,,,,,,,,,,,,,,5ec83d67cfe53914464d2062,2020-08-10_16h31.35.738,lexical_decision_task_MP,2020.1.3,Linux armv8l,60,,0,0.333217732,-0.286407767,1,0,0,0.7361,button_right,0.7361,1,,,,,,219,WORD,"ID",33,bucket,BUCKET,m,,,,,,0.333217732,-0.286407767,1,0,0,,0,71,71,38,1,
,,,,,,,,,,,,,,,,,,5ec83d67cfe53914464d2062,2020-08-10_16h31.35.738,lexical_decision_task_MP,2020.1.3,Linux armv8l,60,,0,-0.367891812,-0.300277414,1,0,0,0.8832,button_left,0.8832,1,,,,,,387,NW,UN,50,cragin,GRONCE,z,,,,,,-0.367891812,-0.300277414,1,0,0,,0,72,72,446,1,
,,,,,,,,,,,,,,,,,,5ec83d67cfe53914464d2062,2020-08-10_16h31.35.738,lexical_decision_task_MP,2020.1.3,Linux armv8l,60,,0,0.393550836,-0.26837736,1,0,0,0.7431,button_right,0.7431,1,,,,,,227,WORD,"ID",33,seldom,SELDOM,m,,,,,,0.393550836,-0.26837736,1,0,0,,0,73,73,46,1,
,,,,,,,,,,,,,,,,,,5ec83d67cfe53914464d2062,2020-08-10_16h31.35.738,lexical_decision_task_MP,2020.1.3,Linux armv8l,60,,0,0.38314849,-0.299583954,1,0,0,0.8949,button_right,0.8949,1,,,,,,205,WORD,"ID",33,lounge,LOUNGE,m,,,,,,0.38314849,-0.299583954,1,0,0,,0,74,74,24,1,
,,,,,,,,,,,,,,,,,,5ec83d67cfe53914464d2062,2020-08-10_16h31.35.738,lexical_decision_task_MP,2020.1.3,Linux armv8l,60,,0,-0.335298186,-0.306518703,1,0,0,0.8176,button_left,0.8176,1,,,,,,306,NW,UN,33,kirafe,SOUNGE,z,,,,,,-0.335298186,-0.306518703,1,0,0,,0,75,75,365,1,
,,,,,,,,,,,,,,,,,,5ec83d67cfe53914464d2062,2020-08-10_16h31.35.738,lexical_decision_task_MP,2020.1.3,Linux armv8l,60,,0,0.315187325,-0.24965327,1,0,0,0.7455,button_right,0.7455,1,,,,,,81,WORD,UN,33,stigma,FRIEND,m,,,,,,0.315187325,-0.24965327,1,0,0,,0,76,76,140,1,
,,,,,,,,,,,,,,,,,,5ec83d67cfe53914464d2062,2020-08-10_16h31.35.738,lexical_decision_task_MP,2020.1.3,Linux armv8l,60,,0,-0.370665726,-0.2711512,1,0,0,0.8053,button_left,0.8053,1,,,,,,323,NW,UN,33,steikh,ROSAIL,z,,,,,,-0.370665726,-0.2711512,1,0,0,,0,77,77,382,1,
,,,,,,,,,,,,,,,,,,5ec83d67cfe53914464d2062,2020-08-10_16h31.35.738,lexical_decision_task_MP,2020.1.3,Linux armv8l,60,,0,-0.348474336,-0.279472944,1,0,0,0.8106,button_left,0.8106,1,,,,,,286,NW,"ID",50,reldon,RELDON,z,,,,,,-0.348474336,-0.279472944,1,0,0,,0,78,78,345,1,
,,,,,,,,,,,,,,,,,,5ec83d67cfe53914464d2062,2020-08-10_16h31.35.738,lexical_decision_task_MP,2020.1.3,Linux armv8l,60,,0,-0.359570031,-0.357836381,1,0,0,0.833,button_left,0.833,1,,,,,,249,NW,"ID",50,batrol,BATROL,z,,,,,,-0.359570031,-0.357836381,1,0,0,,0,79,79,308,1,
,,,,,,,,,,,,,,,,,,5ec83d67cfe53914464d2062,2020-08-10_16h31.35.738,lexical_decision_task_MP,2020.1.3,Linux armv8l,60,,0,-0.34292647,-0.303051328,1,0,0,0.859,button_left,0.859,1,,,,,,480,NW,"ID",33,robuly,ROBULY,z,,,,,,-0.34292647,-0.303051328,1,0,0,,0,80,80,299,1,
,,,,,,,,,,,,,,,,,,5ec83d67cfe53914464d2062,2020-08-10_16h31.35.738,lexical_decision_task_MP,2020.1.3,Linux armv8l,60,,0,-0.322815534,-0.266296831,1,0,0,0.8001,button_left,0.8001,1,,,,,,398,NW,UN,50,fouret,BLUNDE,z,,,,,,-0.322815534,-0.266296831,1,0,0,,0,81,81,457,1,
,,,,,,,,,,,,,,,,,,5ec83d67cfe53914464d2062,2020-08-10_16h31.35.738,lexical_decision_task_MP,2020.1.3,Linux armv8l,60,,0,0.449722586,-0.269764206,1,0,0,0.6451,button_right,0.6451,1,,,,,,201,WORD,"ID",33,admire,ADMIRE,m,,,,,,0.449722586,-0.269764206,1,0,0,,0,82,82,20,1,
,,,,,,,,,,,,,,,,,,5ec83d67cfe53914464d2062,2020-08-10_16h31.35.738,lexical_decision_task_MP,2020.1.3,Linux armv8l,60,,0,-0.372746181,-0.311373072,1,0,0,0.7267,button_left,0.7267,1,,,,,,417,NW,UN,50,suidle,EAROUD,z,,,,,,-0.372746181,-0.311373072,1,0,0,,0,83,83,476,1,
,,,,,,,,,,,,,,,,,,5ec83d67cfe53914464d2062,2020-08-10_16h31.35.738,lexical_decision_task_MP,2020.1.3,Linux armv8l,60,,0,0.372746144,-0.306518703,1,0,0,0.7638,button_right,0.7638,1,,,,,,96,WORD,UN,33,client,IGNORE,m,,,,,,0.372746144,-0.306518703,1,0,0,,0,84,84,155,1,
,,,,,,,,,,,,,,,,,,5ec83d67cfe53914464d2062,2020-08-10_16h31.35.738,lexical_decision_task_MP,2020.1.3,Linux armv8l,60,,0,0.362343946,-0.300970874,1,0,0,0.6094,button_right,0.6094,1,,,,,,38,WORD,"ID",50,powder,POWDER,m,,,,,,0.362343946,-0.300970874,1,0,0,,0,85,85,97,1,
,,,,,,,,,,,,,,,,,,5ec83d67cfe53914464d2062,2020-08-10_16h31.35.738,lexical_decision_task_MP,2020.1.3,Linux armv8l,60,,0,-0.359570031,-0.311373072,1,0,0,0.7356,button_left,0.7356,1,,,,,,321,NW,UN,33,slanch,MIATOR,z,,,,,,-0.359570031,-0.311373072,1,0,0,,0,86,86,380,1,
,,,,,,,,,,,,,,,,,,5ec83d67cfe53914464d2062,2020-08-10_16h31.35.738,lexical_decision_task_MP,2020.1.3,Linux armv8l,60,,0,0.409500715,-0.296809965,1,0,0,0.7156,button_right,0.7156,1,,,,,,153,WORD,UN,50,author,BEHOLD,m,,,,,,0.409500715,-0.296809965,1,0,0,,0,87,87,212,1,
,,,,,,,,,,,,,,,,,,5ec83d67cfe53914464d2062,2020-08-10_16h31.35.738,lexical_decision_task_MP,2020.1.3,Linux armv8l,60,,0,0.401178897,-0.279472944,1,0,0,0.5796,button_right,0.5796,1,,,,,,22,WORD,"ID",50,jockey,JOCKEY,m,,,,,,0.401178897,-0.279472944,1,0,0,,0,88,88,81,1,
,,,,,,,,,,,,,,,,,,5ec83d67cfe53914464d2062,2020-08-10_16h31.35.738,lexical_decision_task_MP,2020.1.3,Linux armv8l,60,,0,0.412968311,-0.308599157,1,0,0,0.6934,button_right,0.6934,1,,,,,,214,WORD,"ID",33,intake,INTAKE,m,,,,,,0.412968311,-0.308599157,1,0,0,,0,89,89,33,1,
,,,,,,,,,,,,,,,,,,5ec83d67cfe53914464d2062,2020-08-10_16h31.35.738,lexical_decision_task_MP,2020.1.3,Linux armv8l,60,,0,0.421983441,-0.296116505,1,0,0,0.6001,button_right,0.6001,1,,,,,,12,WORD,"ID",50,orange,ORANGE,m,,,,,,0.421983441,-0.296116505,1,0,0,,0,90,90,71,1,
,,,,,,,,,,,,,,,,,,5ec83d67cfe53914464d2062,2020-08-10_16h31.35.738,lexical_decision_task_MP,2020.1.3,Linux armv8l,60,,0,0.331137352,-0.282940466,1,0,0,0.7319,button_right,0.7319,1,,,,,,166,WORD,UN,50,design,STARCH,m,,,,,,0.331137352,-0.282940466,1,0,0,,0,91,91,225,1,
,,,,,,,,,,,,,,,,,,5ec83d67cfe53914464d2062,2020-08-10_16h31.35.738,lexical_decision_task_MP,2020.1.3,Linux armv8l,60,,0,0.414355084,-0.304438322,1,0,0,0.5889,button_right,0.5889,1,,,,,,215,WORD,"ID",33,phobia,PHOBIA,m,,,,,,0.414355084,-0.304438322,1,0,0,,0,92,92,34,1,
,,,,,,,,,,,,,,,,,,5ec83d67cfe53914464d2062,2020-08-10_16h31.35.738,lexical_decision_task_MP,2020.1.3,Linux armv8l,60,,0,0.432385787,-0.27045774,1,0,0,0.7116,button_right,0.7116,1,,,,,,94,WORD,UN,33,thread,TRAVEL,m,,,,,,0.432385787,-0.27045774,1,0,0,,0,93,93,153,1,
,,,,,,,,,,,,,,,,,,5ec83d67cfe53914464d2062,2020-08-10_16h31.35.738,lexical_decision_task_MP,2020.1.3,Linux armv8l,60,,0,-0.338765561,-0.318307895,1,0,0,0.7123,button_left,0.7123,1,,,,,,460,NW,"ID",33,mingar,MINGAR,z,,,,,,-0.338765561,-0.318307895,1,0,0,,0,94,94,279,1,
,,,,,,,,,,,,,,,,,,5ec83d67cfe53914464d2062,2020-08-10_16h31.35.738,lexical_decision_task_MP,2020.1.3,Linux armv8l,60,,0,-0.333217732,-0.296116505,1,0,0,1.0168,button_left,1.0168,1,,,,,,319,NW,UN,33,jockal,ZOMBER,z,,,,,,-0.333217732,-0.296116505,1,0,0,,0,95,95,378,1,
,,,,,,,,,,,,,,,,,,5ec83d67cfe53914464d2062,2020-08-10_16h31.35.738,lexical_decision_task_MP,2020.1.3,Linux armv8l,60,,0,-0.355409159,-0.277392489,1,0,0,0.7807,button_left,0.7807,1,,,,,,466,NW,"ID",33,hocite,HOCITE,z,,,,,,-0.355409159,-0.277392489,1,0,0,,0,96,96,285,1,
,,,,,,,,,,,,,,,,,,5ec83d67cfe53914464d2062,2020-08-10_16h31.35.738,lexical_decision_task_MP,2020.1.3,Linux armv8l,60,,0,0.360957025,-0.366851584,1,0,0,0.7292,button_right,0.7292,1,,,,,,105,WORD,UN,33,ransom,NUMBER,m,,,,,,0.360957025,-0.366851584,1,0,0,,0,97,97,164,1,
,,,,,,,,,,,,,,,,,,5ec83d67cfe53914464d2062,2020-08-10_16h31.35.738,lexical_decision_task_MP,2020.1.3,Linux armv8l,60,,0,-0.352635208,-0.306518703,1,0,0,0.8114,button_left,0.8114,1,,,,,,276,NW,"ID",50,yarmon,YARMON,z,,,,,,-0.352635208,-0.306518703,1,0,0,,0,98,98,335,1,
,,,,,,,,,,,,,,,,,,5ec83d67cfe53914464d2062,2020-08-10_16h31.35.738,lexical_decision_task_MP,2020.1.3,Linux armv8l,60,,0,-0.340152555,-0.309292691,1,0,0,0.8454,button_left,0.8454,1,,,,,,399,NW,UN,50,wearox,FOURET,z,,,,,,-0.340152555,-0.309292691,1,0,0,,0,99,99,458,1,
,,,,,,,,,,,,,,,,,,5ec83d67cfe53914464d2062,2020-08-10_16h31.35.738,lexical_decision_task_MP,2020.1.3,Linux armv8l,60,,0,-0.345006924,-0.292649204,1,0,0,0.8966,button_left,0.8966,1,,,,,,332,NW,UN,33,catrie,VANGUE,z,,,,,,-0.345006924,-0.292649204,1,0,0,,0,100,100,391,1,
,,,,,,,,,,,,,,,,,,5ec83d67cfe53914464d2062,2020-08-10_16h31.35.738,lexical_decision_task_MP,2020.1.3,Linux armv8l,60,,0,-0.349167796,-0.292649204,1,0,0,0.8347,button_left,0.8347,1,,,,,,360,NW,UN,33,fainch,DESORY,z,,,,,,-0.349167796,-0.292649204,1,0,0,,0,101,101,419,1,
,,,,,,,,,,,,,,,,,,5ec83d67cfe53914464d2062,2020-08-10_16h31.35.738,lexical_decision_task_MP,2020.1.3,Linux armv8l,60,,0,0.400485437,-0.287794835,1,0,0,0.6486,button_right,0.6486,1,,,,,,71,WORD,UN,33,bright,GARDEN,m,,,,,,0.400485437,-0.287794835,1,0,0,,0,102,102,130,1,
,,,,,,,,,,,,,,,,,,5ec83d67cfe53914464d2062,2020-08-10_16h31.35.738,lexical_decision_task_MP,2020.1.3,Linux armv8l,60,,0,-0.331830812,-0.282940466,1,0,0,0.799,button_left,0.799,1,,,,,,449,NW,"ID",33,brunge,BRUNGE,z,,,,,,-0.331830812,-0.282940466,1,0,0,,0,103,103,268,1,
,,,,,,,,,,,,,,,,,,5ec83d67cfe53914464d2062,2020-08-10_16h31.35.738,lexical_decision_task_MP,2020.1.3,Linux armv8l,60,,0,0.403952886,-0.31206668,1,0,0,0.6606,button_right,0.6606,1,,,,,,76,WORD,UN,33,racket,EXOTIC,m,,,,,,0.403952886,-0.31206668,1,0,0,,0,104,104,135,1,
,,,,,,,,,,,,,,,,,,5ec83d67cfe53914464d2062,2020-08-10_16h31.35.738,lexical_decision_task_MP,2020.1.3,Linux armv8l,60,,0,-0.273578385,-0.303744788,1,0,0,0.7656,button_left,0.7656,1,,,,,,411,NW,UN,50,jiluer,ORCHIN,z,,,,,,-0.273578385,-0.303744788,1,0,0,,0,105,105,470,1,
,,,,,,,,,,,,,,,,,,5ec83d67cfe53914464d2062,2020-08-10_16h31.35.738,lexical_decision_task_MP,2020.1.3,Linux armv8l,60,,0,0.326976443,-0.27184466,1,0,0,0.7112,button_right,0.7112,1,,,,,,84,WORD,UN,33,strand,MORTAL,m,,,,,,0.326976443,-0.27184466,1,0,0,,0,106,106,143,1,
,,,,,,,,,,,,,,,,,,5ec83d67cfe53914464d2062,2020-08-10_16h31.35.738,lexical_decision_task_MP,2020.1.3,Linux armv8l,60,,0,-0.322815534,-0.292649204,1,0,0,0.6965,button_left,0.6965,1,,,,,,364,NW,UN,50,guairt,IMPOTE,z,,,,,,-0.322815534,-0.292649204,1,0,0,,0,107,107,423,1,
,,,,,,,,,,,,,,,,,,5ec83d67cfe53914464d2062,2020-08-10_16h31.35.738,lexical_decision_task_MP,2020.1.3,Linux armv8l,60,,0,0.329056823,-0.29334259,1,0,0,0.7141,button_right,0.7141,1,,,,,,157,WORD,UN,50,island,DRAGON,m,,,,,,0.329056823,-0.29334259,1,0,0,,0,108,108,216,1,
,,,,,,,,,,,,,,,,,,5ec83d67cfe53914464d2062,2020-08-10_16h31.35.738,lexical_decision_task_MP,2020.1.3,Linux armv8l,60,,0,-0.388696245,-0.345353654,1,0,0,0.8503,button_left,0.8503,1,,,,,,297,NW,"ID",50,fertic,FERTIC,z,,,,,,-0.388696245,-0.345353654,1,0,0,,0,109,109,356,1,
,,,,,,,,,,,,,,,,,,5ec83d67cfe53914464d2062,2020-08-10_16h31.35.738,lexical_decision_task_MP,2020.1.3,Linux armv8l,60,,0,0.25,-0.308599157,1,0,0,0.8251,button_right,0.8251,1,,,,,,178,WORD,UN,50,basket,INFORM,m,,,,,,0.25,-0.308599157,1,0,0,,0,110,110,237,1,
,,,,,,,,,,,,,,,,,,5ec83d67cfe53914464d2062,2020-08-10_16h31.35.738,lexical_decision_task_MP,2020.1.3,Linux armv8l,60,,0,-0.329750357,-0.298890419,1,0,0,0.734,button_left,0.734,1,,,,,,403,NW,UN,50,cluirm,BRUATS,z,,,,,,-0.329750357,-0.298890419,1,0,0,,0,111,111,462,1,
,,,,,,,,,,,,,,,,,,5ec83d67cfe53914464d2062,2020-08-10_16h31.35.738,lexical_decision_task_MP,2020.1.3,Linux armv8l,60,,0,0.363731014,-0.288488221,1,0,0,0.81,button_right,0.81,1,,,,,,149,WORD,UN,50,random,INVADE,m,,,,,,0.363731014,-0.288488221,1,0,0,,0,112,112,208,1,
,,,,,,,,,,,,,,,,,,5ec83d67cfe53914464d2062,2020-08-10_16h31.35.738,lexical_decision_task_MP,2020.1.3,Linux armv8l,60,,0,0.38661579,-0.299583954,1,0,0,0.7258,button_right,0.7258,1,,,,,,134,WORD,UN,50,import,STAPLE,m,,,,,,0.38661579,-0.299583954,1,0,0,,0,113,113,193,1,
,,,,,,,,,,,,,,,,,,5ec83d67cfe53914464d2062,2020-08-10_16h31.35.738,lexical_decision_task_MP,2020.1.3,Linux armv8l,60,,0,0.471220739,-0.350208023,1,0,0,0.6759,button_right,0.6759,1,,,,,,62,WORD,UN,33,launch,REGION,m,,,,,,0.471220739,-0.350208023,1,0,0,,0,114,114,121,1,
,,,,,,,,,,,,,,,,,,5ec83d67cfe53914464d2062,2020-08-10_16h31.35.738,lexical_decision_task_MP,2020.1.3,Linux armv8l,60,,0,0.440013848,-0.286407767,1,0,0,0.6261,button_right,0.6261,1,,,,,,9,WORD,"ID",50,hustle,HUSTLE,m,,,,,,0.440013848,-0.286407767,1,0,0,,0,115,115,68,1,
,,,,,,,,,,,,,,,,,,5ec83d67cfe53914464d2062,2020-08-10_16h31.35.738,lexical_decision_task_MP,2020.1.3,Linux armv8l,60,,0,0.360957025,-0.309292691,1,0,0,0.6677,button_right,0.6677,1,,,,,,95,WORD,UN,33,ignore,THREAD,m,,,,,,0.360957025,-0.309292691,1,0,0,,0,116,116,154,1,
,,,,,,,,,,,,,,,,,,5ec83d67cfe53914464d2062,2020-08-10_16h31.35.738,lexical_decision_task_MP,2020.1.3,Linux armv8l,60,,0,0.424757282,-0.274618575,1,0,0,0.6324,button_right,0.6324,1,,,,,,63,WORD,UN,33,throne,LAUNCH,m,,,,,,0.424757282,-0.274618575,1,0,0,,0,117,117,122,1,
,,,,,,,,,,,,,,,,,,5ec83d67cfe53914464d2062,2020-08-10_16h31.35.738,lexical_decision_task_MP,2020.1.3,Linux armv8l,60,,0,0.423370361,-0.27184466,1,0,0,0.649,button_right,0.649,1,,,,,,108,WORD,UN,33,wonder,RECKON,m,,,,,,0.423370361,-0.27184466,1,0,0,,0,118,118,167,1,
,,,,,,,,,,,,,,,,,,5ec83d67cfe53914464d2062,2020-08-10_16h31.35.738,lexical_decision_task_MP,2020.1.3,Linux armv8l,60,,0,-0.347087379,-0.305131783,1,0,0,0.8144,button_left,0.8144,1,,,,,,382,NW,UN,50,aungre,SARLEY,z,,,,,,-0.347087379,-0.305131783,1,0,0,,0,119,119,441,1,
,,,,,,,,,,,,,,,,,,5ec83d67cfe53914464d2062,2020-08-10_16h31.35.738,lexical_decision_task_MP,2020.1.3,Linux armv8l,60,,0,-0.310332882,-0.316921049,1,0,0,1.0016,button_left,1.0016,1,,,,,,257,NW,"ID",50,veniod,VENIOD,z,,,,,,0.071775344,-0.389736583,1,0,0,,0,120,120,316,1,break_done_button
,,,,,,,,,,,,,,,,,,5ec83d67cfe53914464d2062,2020-08-10_16h31.35.738,lexical_decision_task_MP,2020.1.3,Linux armv8l,60,,0,0.299237149,-0.29403605,1,0,0,0.8518,button_right,0.8518,1,,,,,,230,WORD,"ID",33,fringe,FRINGE,m,,,,,,0.299237149,-0.29403605,1,0,0,,0,121,121,49,1,
,,,,,,,,,,,,,,,,,,5ec83d67cfe53914464d2062,2020-08-10_16h31.35.738,lexical_decision_task_MP,2020.1.3,Linux armv8l,60,,0,0.372052683,-0.319001429,1,0,0,0.5749,button_right,0.5749,1,,,,,,44,WORD,"ID",50,danger,DANGER,m,,,,,,0.372052683,-0.319001429,1,0,0,,0,122,122,103,1,
,,,,,,,,,,,,,,,,,,5ec83d67cfe53914464d2062,2020-08-10_16h31.35.738,lexical_decision_task_MP,2020.1.3,Linux armv8l,60,,0,-0.304784978,-0.285020847,1,0,0,0.7971,button_left,0.7971,1,,,,,,471,NW,"ID",33,nobest,NOBEST,z,,,,,,-0.304784978,-0.285020847,1,0,0,,0,123,123,290,1,
,,,,,,,,,,,,,,,,,,5ec83d67cfe53914464d2062,2020-08-10_16h31.35.738,lexical_decision_task_MP,2020.1.3,Linux armv8l,60,,0,0.372052683,-0.307905697,1,0,0,0.8645,button_right,0.8645,1,,,,,,142,WORD,UN,50,reason,SPRUCE,m,,,,,,0.372052683,-0.307905697,1,0,0,,0,124,124,201,1,
,,,,,,,,,,,,,,,,,,5ec83d67cfe53914464d2062,2020-08-10_16h31.35.738,lexical_decision_task_MP,2020.1.3,Linux armv8l,60,,0,0.456657632,-0.291262136,1,0,0,0.635,button_right,0.635,1,,,,,,40,WORD,"ID",50,convey,CONVEY,m,,,,,,0.456657632,-0.291262136,1,0,0,,0,125,125,99,1,
,,,,,,,,,,,,,,,,,,5ec83d67cfe53914464d2062,2020-08-10_16h31.35.738,lexical_decision_task_MP,2020.1.3,Linux armv8l,60,,0,-0.32073508,-0.296809965,1,0,0,0.7074,button_left,0.7074,1,,,,,,326,NW,UN,33,plenac,IGUADE,z,,,,,,-0.32073508,-0.296809965,1,0,0,,0,126,126,385,1,
,,,,,,,,,,,,,,,,,,5ec83d67cfe53914464d2062,2020-08-10_16h31.35.738,lexical_decision_task_MP,2020.1.3,Linux armv8l,60,,0,-0.334604726,-0.277392489,1,0,0,0.8296,button_left,0.8296,1,,,,,,386,NW,UN,50,gronce,ANCUST,z,,,,,,-0.334604726,-0.277392489,1,0,0,,0,127,127,445,1,
,,,,,,,,,,,,,,,,,,5ec83d67cfe53914464d2062,2020-08-10_16h31.35.738,lexical_decision_task_MP,2020.1.3,Linux armv8l,60,,0,-0.324895988,-0.311373072,1,0,0,0.7755,button_left,0.7755,1,,,,,,402,NW,UN,50,bruats,SYNTIC,z,,,,,,-0.324895988,-0.311373072,1,0,0,,0,128,128,461,1,
,,,,,,,,,,,,,,,,,,5ec83d67cfe53914464d2062,2020-08-10_16h31.35.738,lexical_decision_task_MP,2020.1.3,Linux armv8l,60,,0,-0.313800256,-0.311373072,1,0,0,0.7798,button_left,0.7798,1,,,,,,277,NW,"ID",50,petain,PETAIN,z,,,,,,-0.313800256,-0.311373072,1,0,0,,0,129,129,336,1,
,,,,,,,,,,,,,,,,,,5ec83d67cfe53914464d2062,2020-08-10_16h31.35.738,lexical_decision_task_MP,2020.1.3,Linux armv8l,60,,0,0.424757282,-0.305131783,1,0,0,0.5872,button_right,0.5872,1,,,,,,189,WORD,"ID",33,censor,CENSOR,m,,,,,,0.424757282,-0.305131783,1,0,0,,0,130,130,8,1,
,,,,,,,,,,,,,,,,,,5ec83d67cfe53914464d2062,2020-08-10_16h31.35.738,lexical_decision_task_MP,2020.1.3,Linux armv8l,60,,0,0.402565965,-0.300970874,1,0,0,0.5722,button_right,0.5722,1,,,,,,67,WORD,UN,33,fumble,POLICY,m,,,,,,0.402565965,-0.300970874,1,0,0,,0,131,131,126,1,
,,,,,,,,,,,,,,,,,,5ec83d67cfe53914464d2062,2020-08-10_16h31.35.738,lexical_decision_task_MP,2020.1.3,Linux armv8l,60,,0,0.425450742,-0.296116505,1,0,0,0.5816,button_right,0.5816,1,,,,,,88,WORD,UN,33,permit,HUNGER,m,,,,,,0.425450742,-0.296116505,1,0,0,,0,132,132,147,1,
,,,,,,,,,,,,,,,,,,5ec83d67cfe53914464d2062,2020-08-10_16h31.35.738,lexical_decision_task_MP,2020.1.3,Linux armv8l,60,,0,0.433772559,-0.318307895,1,0,0,0.6177,button_right,0.6177,1,,,,,,186,WORD,"ID",33,portal,PORTAL,m,,,,,,0.433772559,-0.318307895,1,0,0,,0,133,133,5,1,
,,,,,,,,,,,,,,,,,,5ec83d67cfe53914464d2062,2020-08-10_16h31.35.738,lexical_decision_task_MP,2020.1.3,Linux armv8l,60,,0,0.437240156,-0.287794835,1,0,0,0.636,button_right,0.636,1,,,,,,197,WORD,"ID",33,stream,STREAM,m,,,,,,0.437240156,-0.287794835,1,0,0,,0,134,134,16,1,
,,,,,,,,,,,,,,,,,,5ec83d67cfe53914464d2062,2020-08-10_16h31.35.738,lexical_decision_task_MP,2020.1.3,Linux armv8l,60,,0,-0.355409159,-0.307905697,1,0,0,0.752,button_left,0.752,1,,,,,,410,NW,UN,50,orchin,TUNORY,z,,,,,,-0.355409159,-0.307905697,1,0,0,,0,135,135,469,1,
,,,,,,,,,,,,,,,,,,5ec83d67cfe53914464d2062,2020-08-10_16h31.35.738,lexical_decision_task_MP,2020.1.3,Linux armv8l,60,,0,0.286061111,-0.244105515,1,0,0,0.7144,button_right,0.7144,1,,,,,,5,WORD,"ID",50,plunge,PLUNGE,m,,,,,,0.286061111,-0.244105515,1,0,0,,0,136,136,64,1,
,,,,,,,,,,,,,,,,,,5ec83d67cfe53914464d2062,2020-08-10_16h31.35.738,lexical_decision_task_MP,2020.1.3,Linux armv8l,60,,0,0.412274703,-0.306518703,1,0,0,0.6659,button_right,0.6659,1,,,,,,89,WORD,UN,33,relish,PERMIT,m,,,,,,0.412274703,-0.306518703,1,0,0,,0,137,137,148,1,
,,,,,,,,,,,,,,,,,,5ec83d67cfe53914464d2062,2020-08-10_16h31.35.738,lexical_decision_task_MP,2020.1.3,Linux armv8l,60,,0,0.409500715,-0.324549258,1,0,0,0.6257,button_right,0.6257,1,,,,,,231,WORD,"ID",33,export,EXPORT,m,,,,,,0.409500715,-0.324549258,1,0,0,,0,138,138,50,1,
,,,,,,,,,,,,,,,,,,5ec83d67cfe53914464d2062,2020-08-10_16h31.35.738,lexical_decision_task_MP,2020.1.3,Linux armv8l,60,,0,0.412968311,-0.289181682,1,0,0,0.644,button_right,0.644,1,,,,,,232,WORD,"ID",33,inject,INJECT,m,,,,,,0.412968311,-0.289181682,1,0,0,,0,139,139,51,1,
,,,,,,,,,,,,,,,,,,5ec83d67cfe53914464d2062,2020-08-10_16h31.35.738,lexical_decision_task_MP,2020.1.3,Linux armv8l,60,,0,-0.314493716,-0.27045774,1,0,0,0.8315,button_left,0.8315,1,,,,,,380,NW,UN,50,huniek,CAVORY,z,,,,,,-0.314493716,-0.27045774,1,0,0,,0,140,140,439,1,
,,,,,,,,,,,,,,,,,,5ec83d67cfe53914464d2062,2020-08-10_16h31.35.738,lexical_decision_task_MP,2020.1.3,Linux armv8l,60,,0,-0.353328705,-0.301664334,1,0,0,0.7789,button_left,0.7789,1,,,,,,392,NW,UN,50,ganous,ROUNCY,z,,,,,,-0.353328705,-0.301664334,1,0,0,,0,141,141,451,1,
,,,,,,,,,,,,,,,,,,5ec83d67cfe53914464d2062,2020-08-10_16h31.35.738,lexical_decision_task_MP,2020.1.3,Linux armv8l,60,,0,0.407420334,-0.309292691,1,0,0,0.7641,button_right,0.7641,1,,,,,,8,WORD,"ID",50,abrupt,ABRUPT,m,,,,,,0.407420334,-0.309292691,1,0,0,,0,142,142,67,1,
,,,,,,,,,,,,,,,,,,5ec83d67cfe53914464d2062,2020-08-10_16h31.35.738,lexical_decision_task_MP,2020.1.3,Linux armv8l,60,,0,0.395631068,-0.309986152,1,0,0,0.6333,button_right,0.6333,1,,,,,,21,WORD,"ID",50,simple,SIMPLE,m,,,,,,0.395631068,-0.309986152,1,0,0,,0,143,143,80,1,
,,,,,,,,,,,,,,,,,,5ec83d67cfe53914464d2062,2020-08-10_16h31.35.738,lexical_decision_task_MP,2020.1.3,Linux armv8l,60,,0,-0.359570031,-0.276699029,1,0,0,0.8329,button_left,0.8329,1,,,,,,429,NW,"ID",33,funtle,FUNTLE,z,,,,,,-0.359570031,-0.276699029,1,0,0,,0,144,144,248,1,
,,,,,,,,,,,,,,,,,,5ec83d67cfe53914464d2062,2020-08-10_16h31.35.738,lexical_decision_task_MP,2020.1.3,Linux armv8l,60,,0,-0.318654625,-0.266296831,1,0,0,0.8204,button_left,0.8204,1,,,,,,414,NW,UN,50,higsta,SERBOL,z,,,,,,-0.318654625,-0.266296831,1,0,0,,0,145,145,473,1,
,,,,,,,,,,,,,,,,,,5ec83d67cfe53914464d2062,2020-08-10_16h31.35.738,lexical_decision_task_MP,2020.1.3,Linux armv8l,60,,0,-0.351941748,-0.292649204,1,0,0,0.7955,button_left,0.7955,1,,,,,,331,NW,UN,33,vangue,GILFEW,z,,,,,,-0.351941748,-0.292649204,1,0,0,,0,146,146,390,1,
,,,,,,,,,,,,,,,,,,5ec83d67cfe53914464d2062,2020-08-10_16h31.35.738,lexical_decision_task_MP,2020.1.3,Linux armv8l,60,,0,0.365811394,-0.290568676,1,0,0,0.7578,button_right,0.7578,1,,,,,,66,WORD,UN,33,policy,GOSPEL,m,,,,,,0.365811394,-0.290568676,1,0,0,,0,147,147,125,1,
,,,,,,,,,,,,,,,,,,5ec83d67cfe53914464d2062,2020-08-10_16h31.35.738,lexical_decision_task_MP,2020.1.3,Linux armv8l,60,,0,-0.353328705,-0.327323173,1,0,0,0.8029,button_left,0.8029,1,,,,,,407,NW,UN,50,hurnia,SUIVER,z,,,,,,-0.353328705,-0.327323173,1,0,0,,0,148,148,466,1,
,,,,,,,,,,,,,,,,,,5ec83d67cfe53914464d2062,2020-08-10_16h31.35.738,lexical_decision_task_MP,2020.1.3,Linux armv8l,60,,0,0.379681041,-0.31414706,1,0,0,0.6586,button_right,0.6586,1,,,,,,46,WORD,"ID",50,single,SINGLE,m,,,,,,0.379681041,-0.31414706,1,0,0,,0,149,149,105,1,
,,,,,,,,,,,,,,,,,,5ec83d67cfe53914464d2062,2020-08-10_16h31.35.738,lexical_decision_task_MP,2020.1.3,Linux armv8l,60,,0,-0.323508994,-0.307212311,1,0,0,0.7969,button_left,0.7969,1,,,,,,294,NW,"ID",50,inhort,INHORT,z,,,,,,-0.323508994,-0.307212311,1,0,0,,0,150,150,353,1,
,,,,,,,,,,,,,,,,,,5ec83d67cfe53914464d2062,2020-08-10_16h31.35.738,lexical_decision_task_MP,2020.1.3,Linux armv8l,60,,0,-0.370665726,-0.361997215,1,0,0,0.8255,button_left,0.8255,1,,,,,,285,NW,"ID",50,prudge,PRUDGE,z,,,,,,-0.370665726,-0.361997215,1,0,0,,0,151,151,344,1,
,,,,,,,,,,,,,,,,,,5ec83d67cfe53914464d2062,2020-08-10_16h31.35.738,lexical_decision_task_MP,2020.1.3,Linux armv8l,60,,0,0.360957025,-0.259362008,1,0,0,0.8669,button_right,0.8669,1,,,,,,6,WORD,"ID",50,bundle,BUNDLE,m,,,,,,0.360957025,-0.259362008,1,0,0,,0,152,152,65,1,
,,,,,,,,,,,,,,,,,,5ec83d67cfe53914464d2062,2020-08-10_16h31.35.738,lexical_decision_task_MP,2020.1.3,Linux armv8l,60,,0,0.410194175,-0.303051328,1,0,0,0.6364,button_right,0.6364,1,,,,,,191,WORD,"ID",33,stable,STABLE,m,,,,,,0.410194175,-0.303051328,1,0,0,,0,153,153,10,1,
,,,,,,,,,,,,,,,,,,5ec83d67cfe53914464d2062,2020-08-10_16h31.35.738,lexical_decision_task_MP,2020.1.3,Linux armv8l,60,,0,-0.394937571,-0.300277414,1,0,0,0.7635,button_left,0.7635,1,,,,,,431,NW,"ID",33,chrums,CHRUMS,z,,,,,,-0.394937571,-0.300277414,1,0,0,,0,154,154,250,1,
,,,,,,,,,,,,,,,,,,5ec83d67cfe53914464d2062,2020-08-10_16h31.35.738,lexical_decision_task_MP,2020.1.3,Linux armv8l,60,,0,0.371359223,-0.292649204,1,0,0,0.7206,button_right,0.7206,1,,,,,,106,WORD,UN,33,slogan,RANSOM,m,,,,,,0.371359223,-0.292649204,1,0,0,,0,155,155,165,1,
,,,,,,,,,,,,,,,,,,5ec83d67cfe53914464d2062,2020-08-10_16h31.35.738,lexical_decision_task_MP,2020.1.3,Linux armv8l,60,,0,0.422677049,-0.284327313,1,0,0,0.7605,button_right,0.7605,1,,,,,,80,WORD,UN,33,friend,FAMILY,m,,,,,,0.422677049,-0.284327313,1,0,0,,0,156,156,139,1,
,,,,,,,,,,,,,,,,,,5ec83d67cfe53914464d2062,2020-08-10_16h31.35.738,lexical_decision_task_MP,2020.1.3,Linux armv8l,60,,0,-0.312413336,-0.295423045,1,0,0,0.748,button_left,0.748,1,,,,,,377,NW,UN,50,shrile,INJORE,z,,,,,,-0.312413336,-0.295423045,1,0,0,,0,157,157,436,1,
,,,,,,,,,,,,,,,,,,5ec83d67cfe53914464d2062,2020-08-10_16h31.35.738,lexical_decision_task_MP,2020.1.3,Linux armv8l,60,,0,0.445561678,-0.319001429,1,0,0,0.726,button_right,0.726,1,,,,,,158,WORD,UN,50,detail,ISLAND,m,,,,,,0.445561678,-0.319001429,1,0,0,,0,158,158,217,1,
,,,,,,,,,,,,,,,,,,5ec83d67cfe53914464d2062,2020-08-10_16h31.35.738,lexical_decision_task_MP,2020.1.3,Linux armv8l,60,,0,-0.349167796,-0.303051328,1,0,0,0.7971,button_left,0.7971,1,,,,,,355,NW,UN,33,othnis,ZINGLY,z,,,,,,-0.349167796,-0.303051328,1,0,0,,0,159,159,414,1,
,,,,,,,,,,,,,,,,,,5ec83d67cfe53914464d2062,2020-08-10_16h31.35.738,lexical_decision_task_MP,2020.1.3,Linux armv8l,60,,0,-0.360956988,-0.326629787,1,0,0,0.9133,button_left,0.9133,1,,,,,,418,NW,UN,50,slount,SUIDLE,z,,,,,,-0.360956988,-0.326629787,1,0,0,,0,160,160,477,1,
,,,,,,,,,,,,,,,,,,5ec83d67cfe53914464d2062,2020-08-10_16h31.35.738,lexical_decision_task_MP,2020.1.3,Linux armv8l,60,,0,0.438626928,-0.289181682,1,0,0,0.7141,button_right,0.7141,1,,,,,,175,WORD,UN,50,strife,FABRIC,m,,,,,,0.438626928,-0.289181682,1,0,0,,0,161,161,234,1,
,,,,,,,,,,,,,,,,,,5ec83d67cfe53914464d2062,2020-08-10_16h31.35.738,lexical_decision_task_MP,2020.1.3,Linux armv8l,60,,0,0.421983441,-0.29403605,1,0,0,0.6562,button_right,0.6562,1,,,,,,123,WORD,UN,50,blouse,STRIKE,m,,,,,,0.421983441,-0.29403605,1,0,0,,0,162,162,182,1,
,,,,,,,,,,,,,,,,,,5ec83d67cfe53914464d2062,2020-08-10_16h31.35.738,lexical_decision_task_MP,2020.1.3,Linux armv8l,60,,0,-0.337378641,-0.301664334,1,0,0,0.6998,button_left,0.6998,1,,,,,,328,NW,UN,33,yarike,BROAKE,z,,,,,,-0.337378641,-0.301664334,1,0,0,,0,163,163,387,1,
,,,,,,,,,,,,,,,,,,5ec83d67cfe53914464d2062,2020-08-10_16h31.35.738,lexical_decision_task_MP,2020.1.3,Linux armv8l,60,,0,-0.324895988,-0.282940466,1,0,0,0.7067,button_left,0.7067,1,,,,,,243,NW,"ID",50,musied,MUSIED,z,,,,,,-0.324895988,-0.282940466,1,0,0,,0,164,164,302,1,
,,,,,,,,,,,,,,,,,,5ec83d67cfe53914464d2062,2020-08-10_16h31.35.738,lexical_decision_task_MP,2020.1.3,Linux armv8l,60,,0,0.350554827,-0.330097087,1,0,0,0.6576,button_right,0.6576,1,,,,,,102,WORD,UN,33,bounce,DIRECT,m,,,,,,0.350554827,-0.330097087,1,0,0,,0,165,165,161,1,
,,,,,,,,,,,,,,,,,,5ec83d67cfe53914464d2062,2020-08-10_16h31.35.738,lexical_decision_task_MP,2020.1.3,Linux armv8l,60,,0,-0.268724016,-0.240637992,1,0,0,0.7953,button_left,0.7953,1,,,,,,379,NW,UN,50,cavory,AUTING,z,,,,,,-0.268724016,-0.240637992,1,0,0,,0,166,166,438,1,
,,,,,,,,,,,,,,,,,,5ec83d67cfe53914464d2062,2020-08-10_16h31.35.738,lexical_decision_task_MP,2020.1.3,Linux armv8l,60,,0,-0.369972266,-0.325936179,1,0,0,0.7632,button_left,0.7632,1,,,,,,470,NW,"ID",33,crudio,CRUDIO,z,,,,,,-0.369972266,-0.325936179,1,0,0,,0,167,167,289,1,
,,,,,,,,,,,,,,,,,,5ec83d67cfe53914464d2062,2020-08-10_16h31.35.738,lexical_decision_task_MP,2020.1.3,Linux armv8l,60,,0,-0.304091518,-0.310679612,1,0,0,0.6736,button_left,0.6736,1,,,,,,400,NW,UN,50,mustil,WEAROX,z,,,,,,-0.304091518,-0.310679612,1,0,0,,0,168,168,459,1,
,,,,,,,,,,,,,,,,,,5ec83d67cfe53914464d2062,2020-08-10_16h31.35.738,lexical_decision_task_MP,2020.1.3,Linux armv8l,60,,0,0.412274703,-0.285714307,1,0,0,0.5809,button_right,0.5809,1,,,,,,115,WORD,UN,33,tumble,GUITAR,m,,,,,,0.412274703,-0.285714307,1,0,0,,0,169,169,174,1,
,,,,,,,,,,,,,,,,,,5ec83d67cfe53914464d2062,2020-08-10_16h31.35.738,lexical_decision_task_MP,2020.1.3,Linux armv8l,60,,0,0.367891775,-0.334951456,1,0,0,0.5974,button_right,0.5974,1,,,,,,202,WORD,"ID",33,factor,FACTOR,m,,,,,,0.367891775,-0.334951456,1,0,0,,0,170,170,21,1,
,,,,,,,,,,,,,,,,,,5ec83d67cfe53914464d2062,2020-08-10_16h31.35.738,lexical_decision_task_MP,2020.1.3,Linux armv8l,60,,0,0.42822473,-0.284327313,1,0,0,0.5473,button_right,0.5473,1,,,,,,203,WORD,"ID",33,phrase,PHRASE,m,,,,,,0.42822473,-0.284327313,1,0,0,,0,171,171,22,1,
,,,,,,,,,,,,,,,,,,5ec83d67cfe53914464d2062,2020-08-10_16h31.35.738,lexical_decision_task_MP,2020.1.3,Linux armv8l,60,,0,-0.320041619,-0.27184466,1,0,0,0.7131,button_left,0.7131,1,,,,,,442,NW,"ID",33,aboune,ABOUNE,z,,,,,,-0.320041619,-0.27184466,1,0,0,,0,172,172,261,1,
,,,,,,,,,,,,,,,,,,5ec83d67cfe53914464d2062,2020-08-10_16h31.35.738,lexical_decision_task_MP,2020.1.3,Linux armv8l,60,,0,-0.394244111,-0.316227441,1,0,0,0.863,button_left,0.863,1,,,,,,457,NW,"ID",33,wanigh,WANIGH,z,,,,,,-0.394244111,-0.316227441,1,0,0,,0,173,173,276,1,
,,,,,,,,,,,,,,,,,,5ec83d67cfe53914464d2062,2020-08-10_16h31.35.738,lexical_decision_task_MP,2020.1.3,Linux armv8l,60,,0,0.436546548,-0.304438322,1,0,0,0.6337,button_right,0.6337,1,,,,,,143,WORD,UN,50,sponge,REASON,m,,,,,,0.436546548,-0.304438322,1,0,0,,0,174,174,202,1,
,,,,,,,,,,,,,,,,,,5ec83d67cfe53914464d2062,2020-08-10_16h31.35.738,lexical_decision_task_MP,2020.1.3,Linux armv8l,60,,0,0.350554827,-0.296116505,1,0,0,0.6421,button_right,0.6421,1,,,,,,97,WORD,UN,33,belong,CLIENT,m,,,,,,0.350554827,-0.296116505,1,0,0,,0,175,175,156,1,
,,,,,,,,,,,,,,,,,,5ec83d67cfe53914464d2062,2020-08-10_16h31.35.738,lexical_decision_task_MP,2020.1.3,Linux armv8l,60,,0,-0.359570031,-0.307212311,1,0,0,1.2735,button_left,1.2735,0,,,,,,190,WORD,"ID",33,backup,BACKUP,m,,,,,,-0.359570031,-0.307212311,1,0,0,,0,176,176,9,1,
,,,,,,,,,,,,,,,,,,5ec83d67cfe53914464d2062,2020-08-10_16h31.35.738,lexical_decision_task_MP,2020.1.3,Linux armv8l,60,,0,-0.345006924,-0.315533981,1,0,0,0.985,button_left,0.985,1,,,,,,366,NW,UN,50,slique,TOSHEL,z,,,,,,-0.345006924,-0.315533981,1,0,0,,0,177,177,425,1,
,,,,,,,,,,,,,,,,,,5ec83d67cfe53914464d2062,2020-08-10_16h31.35.738,lexical_decision_task_MP,2020.1.3,Linux armv8l,60,,0,0.395631068,-0.315533981,1,0,0,0.6585,button_right,0.6585,1,,,,,,136,WORD,UN,50,finger,BLEACH,m,,,,,,0.395631068,-0.315533981,1,0,0,,0,178,178,195,1,
,,,,,,,,,,,,,,,,,,5ec83d67cfe53914464d2062,2020-08-10_16h31.35.738,lexical_decision_task_MP,2020.1.3,Linux armv8l,60,,0,0.401872357,-0.305131783,1,0,0,0.8734,button_right,0.8734,1,,,,,,34,WORD,"ID",50,jungle,JUNGLE,m,,,,,,0.401872357,-0.305131783,1,0,0,,0,179,179,93,1,
,,,,,,,,,,,,,,,,,,5ec83d67cfe53914464d2062,2020-08-10_16h31.35.738,lexical_decision_task_MP,2020.1.3,Linux armv8l,60,,0,-0.331137278,-0.305131783,1,0,0,0.8042,button_left,0.8042,1,,,,,,390,NW,UN,50,theldy,HATRUS,z,,,,,,-0.331137278,-0.305131783,1,0,0,,0,180,180,449,1,
,,,,,,,,,,,,,,,,,,5ec83d67cfe53914464d2062,2020-08-10_16h31.35.738,lexical_decision_task_MP,2020.1.3,Linux armv8l,60,,0,0.38592233,-0.341192894,1,0,0,0.6694,button_right,0.6694,1,,,,,,42,WORD,"ID",50,chapel,CHAPEL,m,,,,,,0.38592233,-0.341192894,1,0,0,,0,181,181,101,1,
,,,,,,,,,,,,,,,,,,5ec83d67cfe53914464d2062,2020-08-10_16h31.35.738,lexical_decision_task_MP,2020.1.3,Linux armv8l,60,,0,0.360957025,-0.321775418,1,0,0,0.6401,button_right,0.6401,1,,,,,,163,WORD,UN,50,market,STRING,m,,,,,,0.360957025,-0.321775418,1,0,0,,0,182,182,222,1,
,,,,,,,,,,,,,,,,,,5ec83d67cfe53914464d2062,2020-08-10_16h31.35.738,lexical_decision_task_MP,2020.1.3,Linux armv8l,60,,0,0.512135922,-0.273231729,1,0,0,0.5496,button_right,0.5496,1,,,,,,236,WORD,"ID",33,pirate,PIRATE,m,,,,,,0.512135922,-0.273231729,1,0,0,,0,183,183,55,1,
,,,,,,,,,,,,,,,,,,5ec83d67cfe53914464d2062,2020-08-10_16h31.35.738,lexical_decision_task_MP,2020.1.3,Linux armv8l,60,,0,-0.334604726,-0.300970874,1,0,0,0.7526,button_left,0.7526,1,,,,,,260,NW,"ID",50,unject,UNJECT,z,,,,,,-0.334604726,-0.300970874,1,0,0,,0,184,184,319,1,
,,,,,,,,,,,,,,,,,,5ec83d67cfe53914464d2062,2020-08-10_16h31.35.738,lexical_decision_task_MP,2020.1.3,Linux armv8l,60,,0,-0.356102619,-0.32108181,1,0,0,0.792,button_left,0.792,1,,,,,,358,NW,UN,33,fonver,FLEACK,z,,,,,,-0.356102619,-0.32108181,1,0,0,,0,185,185,417,1,
,,,,,,,,,,,,,,,,,,5ec83d67cfe53914464d2062,2020-08-10_16h31.35.738,lexical_decision_task_MP,2020.1.3,Linux armv8l,60,,0,0.337378641,-0.29403605,1,0,0,0.7319,button_right,0.7319,1,,,,,,196,WORD,"ID",33,credit,CREDIT,m,,,,,,0.337378641,-0.29403605,1,0,0,,0,186,186,15,1,
,,,,,,,,,,,,,,,,,,5ec83d67cfe53914464d2062,2020-08-10_16h31.35.738,lexical_decision_task_MP,2020.1.3,Linux armv8l,60,,0,0.449029126,-0.31484052,1,0,0,0.6322,button_right,0.6322,1,,,,,,213,WORD,"ID",33,squeal,SQUEAL,m,,,,,,0.449029126,-0.31484052,1,0,0,,0,187,187,32,1,
,,,,,,,,,,,,,,,,,,5ec83d67cfe53914464d2062,2020-08-10_16h31.35.738,lexical_decision_task_MP,2020.1.3,Linux armv8l,60,,0,0.397711596,-0.2711512,1,0,0,0.6215,button_right,0.6215,1,,,,,,23,WORD,"ID",50,wealth,WEALTH,m,,,,,,0.397711596,-0.2711512,1,0,0,,0,188,188,82,1,
,,,,,,,,,,,,,,,,,,5ec83d67cfe53914464d2062,2020-08-10_16h31.35.738,lexical_decision_task_MP,2020.1.3,Linux armv8l,60,,0,0.434466019,-0.280859938,1,0,0,0.602,button_right,0.602,1,,,,,,56,WORD,"ID",50,ambush,AMBUSH,m,,,,,,0.434466019,-0.280859938,1,0,0,,0,189,189,115,1,
,,,,,,,,,,,,,,,,,,5ec83d67cfe53914464d2062,2020-08-10_16h31.35.738,lexical_decision_task_MP,2020.1.3,Linux armv8l,60,,0,-0.337378641,-0.321775418,1,0,0,0.7601,button_left,0.7601,1,,,,,,432,NW,"ID",33,lunker,LUNKER,z,,,,,,-0.337378641,-0.321775418,1,0,0,,0,190,190,251,1,
,,,,,,,,,,,,,,,,,,5ec83d67cfe53914464d2062,2020-08-10_16h31.35.738,lexical_decision_task_MP,2020.1.3,Linux armv8l,60,,0,-0.308945887,-0.291955596,1,0,0,0.797,button_left,0.797,1,,,,,,310,NW,UN,33,sproly,DANIET,z,,,,,,-0.308945887,-0.291955596,1,0,0,,0,191,191,369,1,
,,,,,,,,,,,,,,,,,,5ec83d67cfe53914464d2062,2020-08-10_16h31.35.738,lexical_decision_task_MP,2020.1.3,Linux armv8l,60,,0,0.397017988,-0.29334259,1,0,0,0.6276,button_right,0.6276,1,,,,,,204,WORD,"ID",33,burden,BURDEN,m,,,,,,0.397017988,-0.29334259,1,0,0,,0,192,192,23,1,
,,,,,,,,,,,,,,,,,,5ec83d67cfe53914464d2062,2020-08-10_16h31.35.738,lexical_decision_task_MP,2020.1.3,Linux armv8l,60,,0,-0.335298186,-0.316921049,1,0,0,0.748,button_left,0.748,1,,,,,,467,NW,"ID",33,gorbie,GORBIE,z,,,,,,-0.335298186,-0.316921049,1,0,0,,0,193,193,286,1,
,,,,,,,,,,,,,,,,,,5ec83d67cfe53914464d2062,2020-08-10_16h31.35.738,lexical_decision_task_MP,2020.1.3,Linux armv8l,60,,0,0.419209453,-0.32108181,1,0,0,0.5685,button_right,0.5685,1,,,,,,180,WORD,UN,50,thrive,SILENT,m,,,,,,0.419209453,-0.32108181,1,0,0,,0,194,194,239,1,
,,,,,,,,,,,,,,,,,,5ec83d67cfe53914464d2062,2020-08-10_16h31.35.738,lexical_decision_task_MP,2020.1.3,Linux armv8l,60,,0,-0.317267705,-0.281553398,1,0,0,0.7144,button_left,0.7144,1,,,,,,282,NW,"ID",50,porlex,PORLEX,z,,,,,,-0.317267705,-0.281553398,1,0,0,,0,195,195,341,1,
,,,,,,,,,,,,,,,,,,5ec83d67cfe53914464d2062,2020-08-10_16h31.35.738,lexical_decision_task_MP,2020.1.3,Linux armv8l,60,,0,-0.368585272,-0.357142847,1,0,0,0.6893,button_left,0.6893,1,,,,,,247,NW,"ID",50,blarge,BLARGE,z,,,,,,-0.368585272,-0.357142847,1,0,0,,0,196,196,306,1,
,,,,,,,,,,,,,,,,,,5ec83d67cfe53914464d2062,2020-08-10_16h31.35.738,lexical_decision_task_MP,2020.1.3,Linux armv8l,60,,0,-0.317267705,-0.279472944,1,0,0,0.718,button_left,0.718,1,,,,,,274,NW,"ID",50,fumblo,FUMBLO,z,,,,,,-0.317267705,-0.279472944,1,0,0,,0,197,197,333,1,
,,,,,,,,,,,,,,,,,,5ec83d67cfe53914464d2062,2020-08-10_16h31.35.738,lexical_decision_task_MP,2020.1.3,Linux armv8l,60,,0,0.42822473,-0.296809965,1,0,0,0.6182,button_right,0.6182,1,,,,,,36,WORD,"ID",50,vanish,VANISH,m,,,,,,0.42822473,-0.296809965,1,0,0,,0,198,198,95,1,
,,,,,,,,,,,,,,,,,,5ec83d67cfe53914464d2062,2020-08-10_16h31.35.738,lexical_decision_task_MP,2020.1.3,Linux armv8l,60,,0,-0.389389742,-0.31414706,1,0,0,0.6979,button_left,0.6979,1,,,,,,408,NW,UN,50,elopia,HURNIA,z,,,,,,-0.389389742,-0.31414706,1,0,0,,0,199,199,467,1,
,,,,,,,,,,,,,,,,,,5ec83d67cfe53914464d2062,2020-08-10_16h31.35.738,lexical_decision_task_MP,2020.1.3,Linux armv8l,60,,0,0.398405205,-0.278779484,1,0,0,0.6897,button_right,0.6897,1,,,,,,79,WORD,UN,33,family,THEORY,m,,,,,,0.398405205,-0.278779484,1,0,0,,0,200,200,138,1,
,,,,,,,,,,,,,,,,,,5ec83d67cfe53914464d2062,2020-08-10_16h31.35.738,lexical_decision_task_MP,2020.1.3,Linux armv8l,60,,0,-0.340152555,-0.32038835,1,0,0,0.6505,button_left,0.6505,1,,,,,,272,NW,"ID",50,damilt,DAMILT,z,,,,,,-0.340152555,-0.32038835,1,0,0,,0,201,201,331,1,
,,,,,,,,,,,,,,,,,,5ec83d67cfe53914464d2062,2020-08-10_16h31.35.738,lexical_decision_task_MP,2020.1.3,Linux armv8l,60,,0,-0.358183074,-0.296809965,1,0,0,0.7663,button_left,0.7663,1,,,,,,304,NW,UN,33,forgle,CLUDIE,z,,,,,,-0.358183074,-0.296809965,1,0,0,,0,202,202,363,1,
,,,,,,,,,,,,,,,,,,5ec83d67cfe53914464d2062,2020-08-10_16h31.35.738,lexical_decision_task_MP,2020.1.3,Linux armv8l,60,,0,0.381761421,-0.289181682,1,0,0,0.6618,button_right,0.6618,1,,,,,,20,WORD,"ID",50,breast,BREAST,m,,,,,,0.381761421,-0.289181682,1,0,0,,0,203,203,79,1,
,,,,,,,,,,,,,,,,,,5ec83d67cfe53914464d2062,2020-08-10_16h31.35.738,lexical_decision_task_MP,2020.1.3,Linux armv8l,60,,0,0.415048544,-0.337725371,1,0,0,0.6198,button_right,0.6198,1,,,,,,174,WORD,UN,50,fabric,TURKEY,m,,,,,,0.415048544,-0.337725371,1,0,0,,0,204,204,233,1,
,,,,,,,,,,,,,,,,,,5ec83d67cfe53914464d2062,2020-08-10_16h31.35.738,lexical_decision_task_MP,2020.1.3,Linux armv8l,60,,0,0.326282983,-0.265603371,1,0,0,0.8889,button_right,0.8889,1,,,,,,111,WORD,UN,33,breath,INDUCE,m,,,,,,0.326282983,-0.265603371,1,0,0,,0,205,205,170,1,
,,,,,,,,,,,,,,,,,,5ec83d67cfe53914464d2062,2020-08-10_16h31.35.738,lexical_decision_task_MP,2020.1.3,Linux armv8l,60,,0,-0.390083202,-0.308599157,1,0,0,0.6919,button_left,0.6919,1,,,,,,288,NW,"ID",50,yaceup,YACEUP,z,,,,,,-0.390083202,-0.308599157,1,0,0,,0,206,206,347,1,
,,,,,,,,,,,,,,,,,,5ec83d67cfe53914464d2062,2020-08-10_16h31.35.738,lexical_decision_task_MP,2020.1.3,Linux armv8l,60,,0,-0.370665726,-0.326629787,1,0,0,0.7939,button_left,0.7939,1,,,,,,336,NW,UN,33,rejols,GHODUS,z,,,,,,-0.370665726,-0.326629787,1,0,0,,0,207,207,395,1,
,,,,,,,,,,,,,,,,,,5ec83d67cfe53914464d2062,2020-08-10_16h31.35.738,lexical_decision_task_MP,2020.1.3,Linux armv8l,60,,0,0.354022276,-0.312760066,1,0,0,0.6289,button_right,0.6289,1,,,,,,18,WORD,"ID",50,humble,HUMBLE,m,,,,,,0.354022276,-0.312760066,1,0,0,,0,208,208,77,1,
,,,,,,,,,,,,,,,,,,5ec83d67cfe53914464d2062,2020-08-10_16h31.35.738,lexical_decision_task_MP,2020.1.3,Linux armv8l,60,,0,0.418515992,-0.262829382,1,0,0,0.6568,button_right,0.6568,1,,,,,,17,WORD,"ID",50,charge,CHARGE,m,,,,,,0.418515992,-0.262829382,1,0,0,,0,209,209,76,1,
,,,,,,,,,,,,,,,,,,5ec83d67cfe53914464d2062,2020-08-10_16h31.35.738,lexical_decision_task_MP,2020.1.3,Linux armv8l,60,,0,-0.361650485,-0.288488221,1,0,0,0.7648,button_left,0.7648,1,,,,,,259,NW,"ID",50,soudal,SOUDAL,z,,,,,,-0.361650485,-0.288488221,1,0,0,,0,210,210,318,1,
,,,,,,,,,,,,,,,,,,5ec83d67cfe53914464d2062,2020-08-10_16h31.35.738,lexical_decision_task_MP,2020.1.3,Linux armv8l,60,,0,-0.324202454,-0.302357942,1,0,0,1.1086,button_left,1.1086,1,,,,,,393,NW,UN,50,spaqux,GANOUS,z,,,,,,-0.324202454,-0.302357942,1,0,0,,0,211,211,452,1,
,,,,,,,,,,,,,,,,,,5ec83d67cfe53914464d2062,2020-08-10_16h31.35.738,lexical_decision_task_MP,2020.1.3,Linux armv8l,60,,0,-0.376213592,-0.311373072,1,0,0,0.9688,button_left,0.9688,1,,,,,,342,NW,UN,33,aimosy,RANDOW,z,,,,,,-0.376213592,-0.311373072,1,0,0,,0,212,212,401,1,
,,,,,,,,,,,,,,,,,,5ec83d67cfe53914464d2062,2020-08-10_16h31.35.738,lexical_decision_task_MP,2020.1.3,Linux armv8l,60,,0,0.361650485,-0.287101227,1,0,0,0.6861,button_right,0.6861,1,,,,,,238,WORD,"ID",33,flower,FLOWER,m,,,,,,0.361650485,-0.287101227,1,0,0,,0,213,213,57,1,
,,,,,,,,,,,,,,,,,,5ec83d67cfe53914464d2062,2020-08-10_16h31.35.738,lexical_decision_task_MP,2020.1.3,Linux armv8l,60,,0,-0.303398058,-0.299583954,1,0,0,0.7054,button_left,0.7054,1,,,,,,474,NW,"ID",33,hablin,HABLIN,z,,,,,,-0.303398058,-0.299583954,1,0,0,,0,214,214,293,1,
,,,,,,,,,,,,,,,,,,5ec83d67cfe53914464d2062,2020-08-10_16h31.35.738,lexical_decision_task_MP,2020.1.3,Linux armv8l,60,,0,0.414355084,-0.315533981,1,0,0,0.6217,button_right,0.6217,1,,,,,,235,WORD,"ID",33,grumpy,GRUMPY,m,,,,,,0.414355084,-0.315533981,1,0,0,,0,215,215,54,1,
,,,,,,,,,,,,,,,,,,5ec83d67cfe53914464d2062,2020-08-10_16h31.35.738,lexical_decision_task_MP,2020.1.3,Linux armv8l,60,,0,0.377600512,-0.303051328,1,0,0,0.6783,button_right,0.6783,1,,,,,,217,WORD,"ID",33,liquor,LIQUOR,m,,,,,,0.377600512,-0.303051328,1,0,0,,0,216,216,36,1,
,,,,,,,,,,,,,,,,,,5ec83d67cfe53914464d2062,2020-08-10_16h31.35.738,lexical_decision_task_MP,2020.1.3,Linux armv8l,60,,0,-0.360956988,-0.289875216,1,0,0,0.6828,button_left,0.6828,1,,,,,,295,NW,"ID",50,gleath,GLEATH,z,,,,,,-0.360956988,-0.289875216,1,0,0,,0,217,217,354,1,
,,,,,,,,,,,,,,,,,,5ec83d67cfe53914464d2062,2020-08-10_16h31.35.738,lexical_decision_task_MP,2020.1.3,Linux armv8l,60,,0,-0.308945887,-0.300277414,1,0,0,0.7098,button_left,0.7098,1,,,,,,426,NW,"ID",33,urivel,URIVEL,z,,,,,,-0.308945887,-0.300277414,1,0,0,,0,218,218,245,1,
,,,,,,,,,,,,,,,,,,5ec83d67cfe53914464d2062,2020-08-10_16h31.35.738,lexical_decision_task_MP,2020.1.3,Linux armv8l,60,,0,0.323508994,-0.286407767,1,0,0,0.7972,button_right,0.7972,1,,,,,,177,WORD,UN,50,inform,ADVENT,m,,,,,,0.323508994,-0.286407767,1,0,0,,0,219,219,236,1,
,,,,,,,,,,,,,,,,,,5ec83d67cfe53914464d2062,2020-08-10_16h31.35.738,lexical_decision_task_MP,2020.1.3,Linux armv8l,60,,0,-0.344313464,-0.27184466,1,0,0,0.7158,button_left,0.7158,1,,,,,,244,NW,"ID",50,eatric,EATRIC,z,,,,,,-0.344313464,-0.27184466,1,0,0,,0,220,220,303,1,
,,,,,,,,,,,,,,,,,,5ec83d67cfe53914464d2062,2020-08-10_16h31.35.738,lexical_decision_task_MP,2020.1.3,Linux armv8l,60,,0,0.360957025,-0.257975014,1,0,0,0.7223,button_right,0.7223,1,,,,,,168,WORD,UN,50,genius,ANSWER,m,,,,,,0.360957025,-0.257975014,1,0,0,,0,221,221,227,1,
,,,,,,,,,,,,,,,,,,5ec83d67cfe53914464d2062,2020-08-10_16h31.35.738,lexical_decision_task_MP,2020.1.3,Linux armv8l,60,,0,-0.302704598,-0.330097087,1,0,0,0.7624,button_left,0.7624,1,,,,,,330,NW,UN,33,gilfew,KENSOM,z,,,,,,-0.302704598,-0.330097087,1,0,0,,0,222,222,389,1,
,,,,,,,,,,,,,,,,,,5ec83d67cfe53914464d2062,2020-08-10_16h31.35.738,lexical_decision_task_MP,2020.1.3,Linux armv8l,60,,0,0.442787837,-0.287101227,1,0,0,0.5615,button_right,0.5615,1,,,,,,130,WORD,UN,50,quench,STUPID,m,,,,,,0.442787837,-0.287101227,1,0,0,,0,223,223,189,1,
,,,,,,,,,,,,,,,,,,5ec83d67cfe53914464d2062,2020-08-10_16h31.35.738,lexical_decision_task_MP,2020.1.3,Linux armv8l,60,,0,-0.347780839,-0.323855798,1,0,0,0.6694,button_left,0.6694,1,,,,,,423,NW,"ID",33,streld,STRELD,z,,,,,,-0.347780839,-0.323855798,1,0,0,,0,224,224,242,1,
,,,,,,,,,,,,,,,,,,5ec83d67cfe53914464d2062,2020-08-10_16h31.35.738,lexical_decision_task_MP,2020.1.3,Linux armv8l,60,,0,0.373439752,-0.281553398,1,0,0,0.9581,button_right,0.9581,1,,,,,,37,WORD,"ID",50,insult,INSULT,m,,,,,,0.373439752,-0.281553398,1,0,0,,0,225,225,96,1,
,,,,,,,,,,,,,,,,,,5ec83d67cfe53914464d2062,2020-08-10_16h31.35.738,lexical_decision_task_MP,2020.1.3,Linux armv8l,60,,0,0.444174757,-0.288488221,1,0,0,0.6214,button_right,0.6214,1,,,,,,192,WORD,"ID",33,plague,PLAGUE,m,,,,,,0.444174757,-0.288488221,1,0,0,,0,226,226,11,1,
,,,,,,,,,,,,,,,,,,5ec83d67cfe53914464d2062,2020-08-10_16h31.35.738,lexical_decision_task_MP,2020.1.3,Linux armv8l,60,,0,-0.338072101,-0.27184466,1,0,0,0.7875,button_left,0.7875,1,,,,,,303,NW,UN,33,cludie,FIREAM,z,,,,,,-0.338072101,-0.27184466,1,0,0,,0,227,227,362,1,
,,,,,,,,,,,,,,,,,,5ec83d67cfe53914464d2062,2020-08-10_16h31.35.738,lexical_decision_task_MP,2020.1.3,Linux armv8l,60,,0,-0.357489577,-0.269070746,1,0,0,1.1423,button_left,1.1423,1,,,,,,298,NW,"ID",50,piergy,PIERGY,z,,,,,,-0.357489577,-0.269070746,1,0,0,,0,228,228,357,1,
,,,,,,,,,,,,,,,,,,5ec83d67cfe53914464d2062,2020-08-10_16h31.35.738,lexical_decision_task_MP,2020.1.3,Linux armv8l,60,,0,-0.331830812,-0.307212311,1,0,0,0.8771,button_left,0.8771,1,,,,,,291,NW,"ID",50,pretch,PRETCH,z,,,,,,-0.331830812,-0.307212311,1,0,0,,0,229,229,350,1,
,,,,,,,,,,,,,,,,,,5ec83d67cfe53914464d2062,2020-08-10_16h31.35.738,lexical_decision_task_MP,2020.1.3,Linux armv8l,60,,0,-0.282593514,-0.295423045,1,0,0,0.7418,button_left,0.7418,1,,,,,,419,NW,UN,50,gushop,SLOUNT,z,,,,,,-0.282593514,-0.295423045,1,0,0,,0,230,230,478,1,
,,,,,,,,,,,,,,,,,,5ec83d67cfe53914464d2062,2020-08-10_16h31.35.738,lexical_decision_task_MP,2020.1.3,Linux armv8l,60,,0,-0.345700384,-0.307905697,1,0,0,0.8138,button_left,0.8138,1,,,,,,468,NW,"ID",33,wictor,WICTOR,z,,,,,,-0.345700384,-0.307905697,1,0,0,,0,231,231,287,1,
,,,,,,,,,,,,,,,,,,5ec83d67cfe53914464d2062,2020-08-10_16h31.35.738,lexical_decision_task_MP,2020.1.3,Linux armv8l,60,,0,-0.390776699,-0.265603371,1,0,0,0.7497,button_left,0.7497,1,,,,,,462,NW,"ID",33,absult,ABSULT,z,,,,,,-0.390776699,-0.265603371,1,0,0,,0,232,232,281,1,
,,,,,,,,,,,,,,,,,,5ec83d67cfe53914464d2062,2020-08-10_16h31.35.738,lexical_decision_task_MP,2020.1.3,Linux armv8l,60,,0,0.349861367,-0.309986152,1,0,0,0.7803,button_right,0.7803,1,,,,,,195,WORD,"ID",33,resign,RESIGN,m,,,,,,0.349861367,-0.309986152,1,0,0,,0,233,233,14,1,
,,,,,,,,,,,,,,,,,,5ec83d67cfe53914464d2062,2020-08-10_16h31.35.738,lexical_decision_task_MP,2020.1.3,Linux armv8l,60,,0,-0.326282909,-0.255894633,1,0,0,0.7039,button_left,0.7039,1,,,,,,383,NW,UN,50,guesco,AUNGRE,z,,,,,,-0.326282909,-0.255894633,1,0,0,,0,234,234,442,1,
,,,,,,,,,,,,,,,,,,5ec83d67cfe53914464d2062,2020-08-10_16h31.35.738,lexical_decision_task_MP,2020.1.3,Linux armv8l,60,,0,-0.391470159,-0.339805825,1,0,0,0.7568,button_left,0.7568,1,,,,,,456,NW,"ID",33,broget,BROGET,z,,,,,,-0.391470159,-0.339805825,1,0,0,,0,235,235,275,1,
,,,,,,,,,,,,,,,,,,5ec83d67cfe53914464d2062,2020-08-10_16h31.35.738,lexical_decision_task_MP,2020.1.3,Linux armv8l,60,,0,-0.326976443,-0.325242718,1,0,0,0.635,button_left,0.635,1,,,,,,264,NW,"ID",50,vackel,VACKEL,z,,,,,,-0.326976443,-0.325242718,1,0,0,,0,236,236,323,1,
,,,,,,,,,,,,,,,,,,5ec83d67cfe53914464d2062,2020-08-10_16h31.35.738,lexical_decision_task_MP,2020.1.3,Linux armv8l,60,,0,0.408113943,-0.257975014,1,0,0,0.7497,button_right,0.7497,1,,,,,,121,WORD,UN,50,linger,THRIVE,m,,,,,,0.408113943,-0.257975014,1,0,0,,0,237,237,180,1,
,,,,,,,,,,,,,,,,,,5ec83d67cfe53914464d2062,2020-08-10_16h31.35.738,lexical_decision_task_MP,2020.1.3,Linux armv8l,60,,0,-0.330443817,-0.319694889,1,0,0,0.6773,button_left,0.6773,1,,,,,,339,NW,UN,33,fiatch,FACHOW,z,,,,,,-0.330443817,-0.319694889,1,0,0,,0,238,238,398,1,
,,,,,,,,,,,,,,,,,,5ec83d67cfe53914464d2062,2020-08-10_16h31.35.738,lexical_decision_task_MP,2020.1.3,Linux armv8l,60,,0,0.337378641,-0.324549258,1,0,0,0.6791,button_right,0.6791,1,,,,,,70,WORD,UN,33,garden,SQUARE,m,,,,,,0.337378641,-0.324549258,1,0,0,,0,239,239,129,1,
,,,,,,,,,,,,,,,,,,5ec83d67cfe53914464d2062,2020-08-10_16h31.35.738,lexical_decision_task_MP,2020.1.3,Linux armv8l,60,,0,0.456657632,-0.27184466,1,0,0,0.6458,button_right,0.6458,1,,,,,,72,WORD,UN,33,source,BRIGHT,m,,,,,,0.456657632,-0.27184466,1,0,0,,0,240,240,131,1,
,,,,,,,,,,,,,,,,,,5ec83d67cfe53914464d2062,2020-08-10_16h31.35.738,lexical_decision_task_MP,2020.1.3,Linux armv8l,60,,0,-0.304091518,-0.308599157,1,0,0,0.8509,button_left,0.8509,1,,,,,,433,NW,"ID",33,drance,DRANCE,z,,,,,,0.019764206,-0.38418868,1,0,0,,0,241,241,252,1,break_done_button
,,,,,,,,,,,,,,,,,,5ec83d67cfe53914464d2062,2020-08-10_16h31.35.738,lexical_decision_task_MP,2020.1.3,Linux armv8l,60,,0,0.402565965,-0.29403605,1,0,0,0.8934,button_right,0.8934,1,,,,,,206,WORD,"ID",33,tailor,TAILOR,m,,,,,,0.402565965,-0.29403605,1,0,0,,0,242,242,25,1,
,,,,,,,,,,,,,,,,,,5ec83d67cfe53914464d2062,2020-08-10_16h31.35.738,lexical_decision_task_MP,2020.1.3,Linux armv8l,60,,0,0.369278991,-0.317614435,1,0,0,0.5475,button_right,0.5475,1,,,,,,51,WORD,"ID",50,hungry,HUNGRY,m,,,,,,0.369278991,-0.317614435,1,0,0,,0,243,243,110,1,
,,,,,,,,,,,,,,,,,,5ec83d67cfe53914464d2062,2020-08-10_16h31.35.738,lexical_decision_task_MP,2020.1.3,Linux armv8l,60,,0,0.345006998,-0.288488221,1,0,0,0.6524,button_right,0.6524,1,,,,,,169,WORD,UN,50,pounce,GENIUS,m,,,,,,0.345006998,-0.288488221,1,0,0,,0,244,244,228,1,
,,,,,,,,,,,,,,,,,,5ec83d67cfe53914464d2062,2020-08-10_16h31.35.738,lexical_decision_task_MP,2020.1.3,Linux armv8l,60,,0,0.403952886,-0.282940466,1,0,0,0.5824,button_right,0.5824,1,,,,,,170,WORD,UN,50,dragon,POUNCE,m,,,,,,0.403952886,-0.282940466,1,0,0,,0,245,245,229,1,
,,,,,,,,,,,,,,,,,,5ec83d67cfe53914464d2062,2020-08-10_16h31.35.738,lexical_decision_task_MP,2020.1.3,Linux armv8l,60,,0,-0.337378641,-0.306518703,1,0,0,0.6845,button_left,0.6845,1,,,,,,280,NW,"ID",50,curbol,CURBOL,z,,,,,,-0.337378641,-0.306518703,1,0,0,,0,246,246,339,1,
,,,,,,,,,,,,,,,,,,5ec83d67cfe53914464d2062,2020-08-10_16h31.35.738,lexical_decision_task_MP,2020.1.3,Linux armv8l,60,,0,-0.326976443,-0.276699029,1,0,0,0.882,button_left,0.882,1,,,,,,445,NW,"ID",33,minkel,MINKEL,z,,,,,,-0.326976443,-0.276699029,1,0,0,,0,247,247,264,1,
,,,,,,,,,,,,,,,,,,5ec83d67cfe53914464d2062,2020-08-10_16h31.35.738,lexical_decision_task_MP,2020.1.3,Linux armv8l,60,,0,0.313800256,-0.248959884,1,0,0,0.698,button_right,0.698,1,,,,,,91,WORD,UN,33,hunger,EXPAND,m,,,,,,0.313800256,-0.248959884,1,0,0,,0,248,248,150,1,
,,,,,,,,,,,,,,,,,,5ec83d67cfe53914464d2062,2020-08-10_16h31.35.738,lexical_decision_task_MP,2020.1.3,Linux armv8l,60,,0,0.329056823,-0.296809965,1,0,0,0.6161,button_right,0.6161,1,,,,,,7,WORD,"ID",50,anchor,ANCHOR,m,,,,,,0.329056823,-0.296809965,1,0,0,,0,249,249,66,1,
,,,,,,,,,,,,,,,,,,5ec83d67cfe53914464d2062,2020-08-10_16h31.35.738,lexical_decision_task_MP,2020.1.3,Linux armv8l,60,,0,-0.335991646,-0.312760066,1,0,0,0.6996,button_left,0.6996,1,,,,,,464,NW,"ID",33,chaite,CHAITE,z,,,,,,-0.335991646,-0.312760066,1,0,0,,0,250,250,283,1,
,,,,,,,,,,,,,,,,,,5ec83d67cfe53914464d2062,2020-08-10_16h31.35.738,lexical_decision_task_MP,2020.1.3,Linux armv8l,60,,0,0.286061111,-0.299583954,1,0,0,0.9151,button_right,0.9151,1,,,,,,139,WORD,UN,50,prince,DEBRIS,m,,,,,,0.286061111,-0.299583954,1,0,0,,0,251,251,198,1,
,,,,,,,,,,,,,,,,,,5ec83d67cfe53914464d2062,2020-08-10_16h31.35.738,lexical_decision_task_MP,2020.1.3,Linux armv8l,60,,0,-0.390083202,-0.29403605,1,0,0,0.6328,button_left,0.6328,1,,,,,,381,NW,UN,50,sarley,HUNIEK,z,,,,,,-0.390083202,-0.29403605,1,0,0,,0,252,252,440,1,
,,,,,,,,,,,,,,,,,,5ec83d67cfe53914464d2062,2020-08-10_16h31.35.738,lexical_decision_task_MP,2020.1.3,Linux armv8l,60,,0,-0.365811357,-0.288488221,1,0,0,0.7349,button_left,0.7349,1,,,,,,266,NW,"ID",50,varmit,VARMIT,z,,,,,,-0.365811357,-0.288488221,1,0,0,,0,253,253,325,1,
,,,,,,,,,,,,,,,,,,5ec83d67cfe53914464d2062,2020-08-10_16h31.35.738,lexical_decision_task_MP,2020.1.3,Linux armv8l,60,,0,-0.360263528,-0.287101227,1,0,0,0.7023,button_left,0.7023,1,,,,,,440,NW,"ID",33,saride,SARIDE,z,,,,,,-0.360263528,-0.287101227,1,0,0,,0,254,254,259,1,
,,,,,,,,,,,,,,,,,,5ec83d67cfe53914464d2062,2020-08-10_16h31.35.738,lexical_decision_task_MP,2020.1.3,Linux armv8l,60,,0,-0.360956988,-0.298890419,1,0,0,0.7673,button_left,0.7673,1,,,,,,463,NW,"ID",33,kispel,KISPEL,z,,,,,,-0.360956988,-0.298890419,1,0,0,,0,255,255,282,1,
,,,,,,,,,,,,,,,,,,5ec83d67cfe53914464d2062,2020-08-10_16h31.35.738,lexical_decision_task_MP,2020.1.3,Linux armv8l,60,,0,0.372746144,-0.291955596,1,0,0,0.5984,button_right,0.5984,1,,,,,,132,WORD,UN,50,orphan,STRONG,m,,,,,,0.372746144,-0.291955596,1,0,0,,0,256,256,191,1,
,,,,,,,,,,,,,,,,,,5ec83d67cfe53914464d2062,2020-08-10_16h31.35.738,lexical_decision_task_MP,2020.1.3,Linux armv8l,60,,0,0.34292647,-0.248959884,1,0,0,0.5806,button_right,0.5806,1,,,,,,194,WORD,"ID",33,absent,ABSENT,m,,,,,,0.34292647,-0.248959884,1,0,0,,0,257,257,13,1,
,,,,,,,,,,,,,,,,,,5ec83d67cfe53914464d2062,2020-08-10_16h31.35.738,lexical_decision_task_MP,2020.1.3,Linux armv8l,60,,0,-0.311719802,-0.275312109,1,0,0,0.649,button_left,0.649,1,,,,,,435,NW,"ID",33,impurb,IMPURB,z,,,,,,-0.311719802,-0.275312109,1,0,0,,0,258,258,254,1,
,,,,,,,,,,,,,,,,,,5ec83d67cfe53914464d2062,2020-08-10_16h31.35.738,lexical_decision_task_MP,2020.1.3,Linux armv8l,60,,0,-0.348474336,-0.321775418,1,0,0,0.7478,button_left,0.7478,1,,,,,,427,NW,"ID",33,schind,SCHIND,z,,,,,,-0.348474336,-0.321775418,1,0,0,,0,259,259,246,1,
,,,,,,,,,,,,,,,,,,5ec83d67cfe53914464d2062,2020-08-10_16h31.35.738,lexical_decision_task_MP,2020.1.3,Linux armv8l,60,,0,-0.372746181,-0.278086097,1,0,0,0.7358,button_left,0.7358,1,,,,,,391,NW,UN,50,rouncy,THELDY,z,,,,,,-0.372746181,-0.278086097,1,0,0,,0,260,260,450,1,
,,,,,,,,,,,,,,,,,,5ec83d67cfe53914464d2062,2020-08-10_16h31.35.738,lexical_decision_task_MP,2020.1.3,Linux armv8l,60,,0,-0.299237149,-0.292649204,1,0,0,0.696,button_left,0.696,1,,,,,,359,NW,UN,33,desory,FONVER,z,,,,,,-0.299237149,-0.292649204,1,0,0,,0,261,261,418,1,
,,,,,,,,,,,,,,,,,,5ec83d67cfe53914464d2062,2020-08-10_16h31.35.738,lexical_decision_task_MP,2020.1.3,Linux armv8l,60,,0,0.372746144,-0.256588093,1,0,0,0.7479,button_right,0.7479,1,,,,,,160,WORD,UN,50,pastor,VIOLET,m,,,,,,0.372746144,-0.256588093,1,0,0,,0,262,262,219,1,
,,,,,,,,,,,,,,,,,,5ec83d67cfe53914464d2062,2020-08-10_16h31.35.738,lexical_decision_task_MP,2020.1.3,Linux armv8l,60,,0,0.357489577,-0.309292691,1,0,0,0.6633,button_right,0.6633,1,,,,,,162,WORD,UN,50,string,CANDLE,m,,,,,,0.357489577,-0.309292691,1,0,0,,0,263,263,221,1,
,,,,,,,,,,,,,,,,,,5ec83d67cfe53914464d2062,2020-08-10_16h31.35.738,lexical_decision_task_MP,2020.1.3,Linux armv8l,60,,0,0.356102656,-0.302357942,1,0,0,0.6649,button_right,0.6649,1,,,,,,69,WORD,UN,33,square,PLENTY,m,,,,,,0.356102656,-0.302357942,1,0,0,,0,264,264,128,1,
,,,,,,,,,,,,,,,,,,5ec83d67cfe53914464d2062,2020-08-10_16h31.35.738,lexical_decision_task_MP,2020.1.3,Linux armv8l,60,,0,-0.338072101,-0.276699029,1,0,0,0.6821,button_left,0.6821,1,,,,,,292,NW,"ID",50,ablint,ABLINT,z,,,,,,-0.338072101,-0.276699029,1,0,0,,0,265,265,351,1,
,,,,,,,,,,,,,,,,,,5ec83d67cfe53914464d2062,2020-08-10_16h31.35.738,lexical_decision_task_MP,2020.1.3,Linux armv8l,60,,0,0.390083239,-0.292649204,1,0,0,0.6992,button_right,0.6992,1,,,,,,133,WORD,UN,50,staple,CHROME,m,,,,,,0.390083239,-0.292649204,1,0,0,,0,266,266,192,1,
,,,,,,,,,,,,,,,,,,5ec83d67cfe53914464d2062,2020-08-10_16h31.35.738,lexical_decision_task_MP,2020.1.3,Linux armv8l,60,,0,0.356102656,-0.259362008,1,0,0,0.6774,button_right,0.6774,1,,,,,,92,WORD,UN,33,public,STRAND,m,,,,,,0.356102656,-0.259362008,1,0,0,,0,267,267,151,1,
,,,,,,,,,,,,,,,,,,5ec83d67cfe53914464d2062,2020-08-10_16h31.35.738,lexical_decision_task_MP,2020.1.3,Linux armv8l,60,,0,0.402565965,-0.253814253,1,0,0,0.6635,button_right,0.6635,1,,,,,,124,WORD,UN,50,nickel,BLOUSE,m,,,,,,0.402565965,-0.253814253,1,0,0,,0,268,268,183,1,
,,,,,,,,,,,,,,,,,,5ec83d67cfe53914464d2062,2020-08-10_16h31.35.738,lexical_decision_task_MP,2020.1.3,Linux armv8l,60,,0,-0.315187251,-0.308599157,1,0,0,0.6848,button_left,0.6848,1,,,,,,448,NW,"ID",33,sadent,SADENT,z,,,,,,-0.315187251,-0.308599157,1,0,0,,0,269,269,267,1,
,,,,,,,,,,,,,,,,,,5ec83d67cfe53914464d2062,2020-08-10_16h31.35.738,lexical_decision_task_MP,2020.1.3,Linux armv8l,60,,0,0.34292647,-0.280166478,1,0,0,0.6096,button_right,0.6096,1,,,,,,32,WORD,"ID",50,buckle,BUCKLE,m,,,,,,0.34292647,-0.280166478,1,0,0,,0,270,270,91,1,
,,,,,,,,,,,,,,,,,,5ec83d67cfe53914464d2062,2020-08-10_16h31.35.738,lexical_decision_task_MP,2020.1.3,Linux armv8l,60,,0,-0.315880711,-0.248266276,1,0,0,0.7415,button_left,0.7415,1,,,,,,349,NW,UN,33,nagurs,ASYLEN,z,,,,,,-0.315880711,-0.248266276,1,0,0,,0,271,271,408,1,
,,,,,,,,,,,,,,,,,,5ec83d67cfe53914464d2062,2020-08-10_16h31.35.738,lexical_decision_task_MP,2020.1.3,Linux armv8l,60,,0,0.364424622,-0.305131783,1,0,0,0.6415,button_right,0.6415,1,,,,,,127,WORD,UN,50,senior,CASTLE,m,,,,,,0.364424622,-0.305131783,1,0,0,,0,272,272,186,1,
,,,,,,,,,,,,,,,,,,5ec83d67cfe53914464d2062,2020-08-10_16h31.35.738,lexical_decision_task_MP,2020.1.3,Linux armv8l,60,,0,-0.3644244,-0.284327313,1,0,0,0.6709,button_left,0.6709,1,,,,,,354,NW,UN,33,zingly,VIRLEX,z,,,,,,-0.3644244,-0.284327313,1,0,0,,0,273,273,413,1,
,,,,,,,,,,,,,,,,,,5ec83d67cfe53914464d2062,2020-08-10_16h31.35.738,lexical_decision_task_MP,2020.1.3,Linux armv8l,60,,0,-0.348474336,-0.297503573,1,0,0,0.6548,button_left,0.6548,1,,,,,,465,NW,"ID",33,whivex,WHIVEX,z,,,,,,-0.348474336,-0.297503573,1,0,0,,0,274,274,284,1,
,,,,,,,,,,,,,,,,,,5ec83d67cfe53914464d2062,2020-08-10_16h31.35.738,lexical_decision_task_MP,2020.1.3,Linux armv8l,60,,0,-0.29993061,-0.287101227,1,0,0,0.6491,button_left,0.6491,1,,,,,,302,NW,UN,33,fiream,MILUER,z,,,,,,-0.29993061,-0.287101227,1,0,0,,0,275,275,361,1,
,,,,,,,,,,,,,,,,,,5ec83d67cfe53914464d2062,2020-08-10_16h31.35.738,lexical_decision_task_MP,2020.1.3,Linux armv8l,60,,0,-0.327669903,-0.284327313,1,0,0,0.6489,button_left,0.6489,1,,,,,,307,NW,UN,33,psetch,KIRAFE,z,,,,,,-0.327669903,-0.284327313,1,0,0,,0,276,276,366,1,
,,,,,,,,,,,,,,,,,,5ec83d67cfe53914464d2062,2020-08-10_16h31.35.738,lexical_decision_task_MP,2020.1.3,Linux armv8l,60,,0,-0.331137278,-0.29334259,1,0,0,0.6769,button_left,0.6769,1,,,,,,287,NW,"ID",50,nymbel,NYMBEL,z,,,,,,-0.331137278,-0.29334259,1,0,0,,0,277,277,346,1,
,,,,,,,,,,,,,,,,,,5ec83d67cfe53914464d2062,2020-08-10_16h31.35.738,lexical_decision_task_MP,2020.1.3,Linux armv8l,60,,0,0.320041694,-0.269070746,1,0,0,0.7394,button_right,0.7394,1,,,,,,59,WORD,"ID",50,splint,SPLINT,m,,,,,,0.320041694,-0.269070746,1,0,0,,0,278,278,118,1,
,,,,,,,,,,,,,,,,,,5ec83d67cfe53914464d2062,2020-08-10_16h31.35.738,lexical_decision_task_MP,2020.1.3,Linux armv8l,60,,0,-0.355409159,-0.274618575,1,0,0,0.8087,button_left,0.8087,1,,,,,,269,NW,"ID",50,orchet,ORCHET,z,,,,,,-0.355409159,-0.274618575,1,0,0,,0,279,279,328,1,
,,,,,,,,,,,,,,,,,,5ec83d67cfe53914464d2062,2020-08-10_16h31.35.738,lexical_decision_task_MP,2020.1.3,Linux armv8l,60,,0,-0.254854369,-0.309292691,1,0,0,0.6646,button_left,0.6646,1,,,,,,333,NW,UN,33,watmeg,CATRIE,z,,,,,,-0.254854369,-0.309292691,1,0,0,,0,280,280,392,1,
,,,,,,,,,,,,,,,,,,5ec83d67cfe53914464d2062,2020-08-10_16h31.35.738,lexical_decision_task_MP,2020.1.3,Linux armv8l,60,,0,0.365117934,-0.230235794,1,0,0,0.7066,button_right,0.7066,1,,,,,,45,WORD,"ID",50,clergy,CLERGY,m,,,,,,0.365117934,-0.230235794,1,0,0,,0,281,281,104,1,
,,,,,,,,,,,,,,,,,,5ec83d67cfe53914464d2062,2020-08-10_16h31.35.738,lexical_decision_task_MP,2020.1.3,Linux armv8l,60,,0,0.34153955,-0.291262136,1,0,0,0.6501,button_right,0.6501,1,,,,,,220,WORD,"ID",33,voyage,VOYAGE,m,,,,,,0.34153955,-0.291262136,1,0,0,,0,282,282,39,1,
,,,,,,,,,,,,,,,,,,5ec83d67cfe53914464d2062,2020-08-10_16h31.35.738,lexical_decision_task_MP,2020.1.3,Linux armv8l,60,,0,0.369972303,-0.29334259,1,0,0,0.6361,button_right,0.6361,1,,,,,,240,WORD,"ID",33,forest,FOREST,m,,,,,,0.369972303,-0.29334259,1,0,0,,0,283,283,59,1,
,,,,,,,,,,,,,,,,,,5ec83d67cfe53914464d2062,2020-08-10_16h31.35.738,lexical_decision_task_MP,2020.1.3,Linux armv8l,60,,0,0.405339806,-0.298196959,1,0,0,0.6459,button_right,0.6459,1,,,,,,126,WORD,UN,50,castle,ENOUGH,m,,,,,,0.405339806,-0.298196959,1,0,0,,0,284,284,185,1,
,,,,,,,,,,,,,,,,,,5ec83d67cfe53914464d2062,2020-08-10_16h31.35.738,lexical_decision_task_MP,2020.1.3,Linux armv8l,60,,0,-0.309639347,-0.286407767,1,0,0,0.7447,button_left,0.7447,1,,,,,,246,NW,"ID",50,piaton,PIATON,z,,,,,,-0.309639347,-0.286407767,1,0,0,,0,285,285,305,1,
,,,,,,,,,,,,,,,,,,5ec83d67cfe53914464d2062,2020-08-10_16h31.35.738,lexical_decision_task_MP,2020.1.3,Linux armv8l,60,,0,-0.34292647,-0.285714307,1,0,0,0.8336,button_left,0.8336,1,,,,,,318,NW,UN,33,zomber,REAGLY,z,,,,,,-0.34292647,-0.285714307,1,0,0,,0,286,286,377,1,
,,,,,,,,,,,,,,,,,,5ec83d67cfe53914464d2062,2020-08-10_16h31.35.738,lexical_decision_task_MP,2020.1.3,Linux armv8l,60,,0,0.326282983,-0.282246858,1,0,0,0.7246,button_right,0.7246,1,,,,,,61,WORD,UN,33,region,PONDER,m,,,,,,0.326282983,-0.282246858,1,0,0,,0,287,287,120,1,
,,,,,,,,,,,,,,,,,,5ec83d67cfe53914464d2062,2020-08-10_16h31.35.738,lexical_decision_task_MP,2020.1.3,Linux armv8l,60,,0,-0.326976443,-0.27253812,1,0,0,0.773,button_left,0.773,1,,,,,,344,NW,UN,33,absend,SCRILY,z,,,,,,-0.326976443,-0.27253812,1,0,0,,0,288,288,403,1,
,,,,,,,,,,,,,,,,,,5ec83d67cfe53914464d2062,2020-08-10_16h31.35.738,lexical_decision_task_MP,2020.1.3,Linux armv8l,60,,0,0.377600512,-0.29403605,1,0,0,0.6242,button_right,0.6242,1,,,,,,103,WORD,UN,33,studio,BOUNCE,m,,,,,,0.377600512,-0.29403605,1,0,0,,0,289,289,162,1,
,,,,,,,,,,,,,,,,,,5ec83d67cfe53914464d2062,2020-08-10_16h31.35.738,lexical_decision_task_MP,2020.1.3,Linux armv8l,60,,0,0.352635208,-0.283633852,1,0,0,0.6782,button_right,0.6782,1,,,,,,226,WORD,"ID",33,casino,CASINO,m,,,,,,0.352635208,-0.283633852,1,0,0,,0,290,290,45,1,
,,,,,,,,,,,,,,,,,,5ec83d67cfe53914464d2062,2020-08-10_16h31.35.738,lexical_decision_task_MP,2020.1.3,Linux armv8l,60,,0,0.351941748,-0.291262136,1,0,0,0.6181,button_right,0.6181,1,,,,,,118,WORD,UN,33,spider,FLIGHT,m,,,,,,0.351941748,-0.291262136,1,0,0,,0,291,291,177,1,
,,,,,,,,,,,,,,,,,,5ec83d67cfe53914464d2062,2020-08-10_16h31.35.738,lexical_decision_task_MP,2020.1.3,Linux armv8l,60,,0,-0.317267705,-0.275312109,1,0,0,0.7025,button_left,0.7025,1,,,,,,352,NW,UN,33,clurey,TRINGE,z,,,,,,-0.317267705,-0.275312109,1,0,0,,0,292,292,411,1,
,,,,,,,,,,,,,,,,,,5ec83d67cfe53914464d2062,2020-08-10_16h31.35.738,lexical_decision_task_MP,2020.1.3,Linux armv8l,60,,0,0.340152629,-0.302357942,1,0,0,0.6086,button_right,0.6086,1,,,,,,209,WORD,"ID",33,search,SEARCH,m,,,,,,0.340152629,-0.302357942,1,0,0,,0,293,293,28,1,
,,,,,,,,,,,,,,,,,,5ec83d67cfe53914464d2062,2020-08-10_16h31.35.738,lexical_decision_task_MP,2020.1.3,Linux armv8l,60,,0,0.264563107,-0.24965327,1,0,0,1.0074,button_right,1.0074,1,,,,,,176,WORD,UN,50,advent,STRIFE,m,,,,,,0.264563107,-0.24965327,1,0,0,,0,294,294,235,1,
,,,,,,,,,,,,,,,,,,5ec83d67cfe53914464d2062,2020-08-10_16h31.35.738,lexical_decision_task_MP,2020.1.3,Linux armv8l,60,,0,-0.313106796,-0.300970874,1,0,0,0.6943,button_left,0.6943,1,,,,,,422,NW,"ID",33,alcoud,ALCOUD,z,,,,,,-0.313106796,-0.300970874,1,0,0,,0,295,295,241,1,
,,,,,,,,,,,,,,,,,,5ec83d67cfe53914464d2062,2020-08-10_16h31.35.738,lexical_decision_task_MP,2020.1.3,Linux armv8l,60,,0,-0.319348085,-0.32038835,1,0,0,0.7428,button_left,0.7428,1,,,,,,476,NW,"ID",33,josted,JOSTED,z,,,,,,-0.319348085,-0.32038835,1,0,0,,0,296,296,295,1,
,,,,,,,,,,,,,,,,,,5ec83d67cfe53914464d2062,2020-08-10_16h31.35.738,lexical_decision_task_MP,2020.1.3,Linux armv8l,60,,0,0.410194175,-0.27045774,1,0,0,0.5729,button_right,0.5729,1,,,,,,55,WORD,"ID",50,stroke,STROKE,m,,,,,,0.410194175,-0.27045774,1,0,0,,0,297,297,114,1,
,,,,,,,,,,,,,,,,,,5ec83d67cfe53914464d2062,2020-08-10_16h31.35.738,lexical_decision_task_MP,2020.1.3,Linux armv8l,60,,0,0.345006998,-0.29403605,1,0,0,0.7679,button_right,0.7679,1,,,,,,101,WORD,UN,33,direct,WRENCH,m,,,,,,0.345006998,-0.29403605,1,0,0,,0,298,298,160,1,
,,,,,,,,,,,,,,,,,,5ec83d67cfe53914464d2062,2020-08-10_16h31.35.738,lexical_decision_task_MP,2020.1.3,Linux armv8l,60,,0,0.315880785,-0.311373072,1,0,0,0.5624,button_right,0.5624,1,,,,,,52,WORD,"ID",50,impose,IMPOSE,m,,,,,,0.315880785,-0.311373072,1,0,0,,0,299,299,111,1,
,,,,,,,,,,,,,,,,,,5ec83d67cfe53914464d2062,2020-08-10_16h31.35.738,lexical_decision_task_MP,2020.1.3,Linux armv8l,60,,0,-0.35124825,-0.262135922,1,0,0,0.6452,button_left,0.6452,1,,,,,,353,NW,UN,33,virlex,CLUREY,z,,,,,,-0.35124825,-0.262135922,1,0,0,,0,300,300,412,1,
,,,,,,,,,,,,,,,,,,5ec83d67cfe53914464d2062,2020-08-10_16h31.35.738,lexical_decision_task_MP,2020.1.3,Linux armv8l,60,,0,-0.381761421,-0.277392489,1,0,0,0.9244,button_left,0.9244,1,,,,,,261,NW,"ID",50,stunch,STUNCH,z,,,,,,-0.381761421,-0.277392489,1,0,0,,0,301,301,320,1,
,,,,,,,,,,,,,,,,,,5ec83d67cfe53914464d2062,2020-08-10_16h31.35.738,lexical_decision_task_MP,2020.1.3,Linux armv8l,60,,0,-0.354715662,-0.322468804,1,0,0,0.8219,button_left,0.8219,1,,,,,,368,NW,UN,50,wronch,HORNAL,z,,,,,,-0.354715662,-0.322468804,1,0,0,,0,302,302,427,1,
,,,,,,,,,,,,,,,,,,5ec83d67cfe53914464d2062,2020-08-10_16h31.35.738,lexical_decision_task_MP,2020.1.3,Linux armv8l,60,,0,0.349167907,-0.286407767,1,0,0,0.6569,button_right,0.6569,1,,,,,,137,WORD,UN,50,melody,FINGER,m,,,,,,0.349167907,-0.286407767,1,0,0,,0,303,303,196,1,
,,,,,,,,,,,,,,,,,,5ec83d67cfe53914464d2062,2020-08-10_16h31.35.738,lexical_decision_task_MP,2020.1.3,Linux armv8l,60,,0,-0.363730903,-0.311373072,1,0,0,0.702,button_left,0.702,1,,,,,,416,NW,UN,50,earoud,PATHEL,z,,,,,,-0.363730903,-0.311373072,1,0,0,,0,304,304,475,1,
,,,,,,,,,,,,,,,,,,5ec83d67cfe53914464d2062,2020-08-10_16h31.35.738,lexical_decision_task_MP,2020.1.3,Linux armv8l,60,,0,0.316574245,-0.27184466,1,0,0,0.8278,button_right,0.8278,1,,,,,,114,WORD,UN,33,guitar,PLACID,m,,,,,,0.316574245,-0.27184466,1,0,0,,0,305,305,173,1,
,,,,,,,,,,,,,,,,,,5ec83d67cfe53914464d2062,2020-08-10_16h31.35.738,lexical_decision_task_MP,2020.1.3,Linux armv8l,60,,0,0.396324528,-0.32038835,1,0,0,0.6166,button_right,0.6166,1,,,,,,211,WORD,"ID",33,infect,INFECT,m,,,,,,0.396324528,-0.32038835,1,0,0,,0,306,306,30,1,
,,,,,,,,,,,,,,,,,,5ec83d67cfe53914464d2062,2020-08-10_16h31.35.738,lexical_decision_task_MP,2020.1.3,Linux armv8l,60,,0,-0.354022165,-0.299583954,1,0,0,0.7785,button_left,0.7785,1,,,,,,337,NW,UN,33,wreash,REJOLS,z,,,,,,-0.354022165,-0.299583954,1,0,0,,0,307,307,396,1,
,,,,,,,,,,,,,,,,,,5ec83d67cfe53914464d2062,2020-08-10_16h31.35.738,lexical_decision_task_MP,2020.1.3,Linux armv8l,60,,0,0.438626928,-0.280859938,1,0,0,0.5476,button_right,0.5476,1,,,,,,41,WORD,"ID",50,spring,SPRING,m,,,,,,0.438626928,-0.280859938,1,0,0,,0,308,308,100,1,
,,,,,,,,,,,,,,,,,,5ec83d67cfe53914464d2062,2020-08-10_16h31.35.738,lexical_decision_task_MP,2020.1.3,Linux armv8l,60,,0,0.430998571,-0.310679612,1,0,0,0.628,button_right,0.628,1,,,,,,223,WORD,"ID",33,kidney,KIDNEY,m,,,,,,0.430998571,-0.310679612,1,0,0,,0,309,309,42,1,
,,,,,,,,,,,,,,,,,,5ec83d67cfe53914464d2062,2020-08-10_16h31.35.738,lexical_decision_task_MP,2020.1.3,Linux armv8l,60,,0,0.317961165,-0.235090163,1,0,0,0.6323,button_right,0.6323,1,,,,,,87,WORD,UN,33,sprawl,FILTER,m,,,,,,0.317961165,-0.235090163,1,0,0,,0,310,310,146,1,
,,,,,,,,,,,,,,,,,,5ec83d67cfe53914464d2062,2020-08-10_16h31.35.738,lexical_decision_task_MP,2020.1.3,Linux armv8l,60,,0,-0.367891812,-0.29334259,1,0,0,0.7436,button_left,0.7436,1,,,,,,406,NW,UN,50,suiver,NOUPLY,z,,,,,,-0.367891812,-0.29334259,1,0,0,,0,311,311,465,1,
,,,,,,,,,,,,,,,,,,5ec83d67cfe53914464d2062,2020-08-10_16h31.35.738,lexical_decision_task_MP,2020.1.3,Linux armv8l,60,,0,0.294382781,-0.299583954,1,0,0,0.8051,button_right,0.8051,1,,,,,,77,WORD,UN,33,column,RACKET,m,,,,,,0.294382781,-0.299583954,1,0,0,,0,312,312,136,1,
,,,,,,,,,,,,,,,,,,5ec83d67cfe53914464d2062,2020-08-10_16h31.35.738,lexical_decision_task_MP,2020.1.3,Linux armv8l,60,,0,-0.349861293,-0.278086097,1,0,0,0.755,button_left,0.755,1,,,,,,430,NW,"ID",33,caroey,CAROEY,z,,,,,,-0.349861293,-0.278086097,1,0,0,,0,313,313,249,1,
,,,,,,,,,,,,,,,,,,5ec83d67cfe53914464d2062,2020-08-10_16h31.35.738,lexical_decision_task_MP,2020.1.3,Linux armv8l,60,,0,0.370665763,-0.277392489,1,0,0,0.7145,button_right,0.7145,1,,,,,,216,WORD,"ID",33,behalf,BEHALF,m,,,,,,0.370665763,-0.277392489,1,0,0,,0,314,314,35,1,
,,,,,,,,,,,,,,,,,,5ec83d67cfe53914464d2062,2020-08-10_16h31.35.738,lexical_decision_task_MP,2020.1.3,Linux armv8l,60,,0,0.38730925,-0.29403605,1,0,0,0.6499,button_right,0.6499,1,,,,,,122,WORD,UN,50,strike,LINGER,m,,,,,,0.38730925,-0.29403605,1,0,0,,0,315,315,181,1,
,,,,,,,,,,,,,,,,,,5ec83d67cfe53914464d2062,2020-08-10_16h31.35.738,lexical_decision_task_MP,2020.1.3,Linux armv8l,60,,0,0.402565965,-0.308599157,1,0,0,0.6812,button_right,0.6812,1,,,,,,131,WORD,UN,50,strong,QUENCH,m,,,,,,0.402565965,-0.308599157,1,0,0,,0,316,316,190,1,
,,,,,,,,,,,,,,,,,,5ec83d67cfe53914464d2062,2020-08-10_16h31.35.738,lexical_decision_task_MP,2020.1.3,Linux armv8l,60,,0,-0.329056823,-0.279472944,1,0,0,0.7885,button_left,0.7885,1,,,,,,450,NW,"ID",33,phrect,PHRECT,z,,,,,,-0.329056823,-0.279472944,1,0,0,,0,317,317,269,1,
,,,,,,,,,,,,,,,,,,5ec83d67cfe53914464d2062,2020-08-10_16h31.35.738,lexical_decision_task_MP,2020.1.3,Linux armv8l,60,,0,0.388696467,-0.298196959,1,0,0,0.6317,button_right,0.6317,1,,,,,,14,WORD,"ID",50,almost,ALMOST,m,,,,,,0.388696467,-0.298196959,1,0,0,,0,318,318,73,1,
,,,,,,,,,,,,,,,,,,5ec83d67cfe53914464d2062,2020-08-10_16h31.35.738,lexical_decision_task_MP,2020.1.3,Linux armv8l,60,,0,-0.347780839,-0.308599157,1,0,0,0.7267,button_left,0.7267,1,,,,,,478,NW,"ID",33,acrise,ACRISE,z,,,,,,-0.347780839,-0.308599157,1,0,0,,0,319,319,297,1,
,,,,,,,,,,,,,,,,,,5ec83d67cfe53914464d2062,2020-08-10_16h31.35.738,lexical_decision_task_MP,2020.1.3,Linux armv8l,60,,0,0.354715736,-0.31414706,1,0,0,0.6615,button_right,0.6615,1,,,,,,144,WORD,UN,50,parish,SPONGE,m,,,,,,0.354715736,-0.31414706,1,0,0,,0,320,320,203,1,
,,,,,,,,,,,,,,,,,,5ec83d67cfe53914464d2062,2020-08-10_16h31.35.738,lexical_decision_task_MP,2020.1.3,Linux armv8l,60,,0,0.348474299,-0.31206668,1,0,0,0.6513,button_right,0.6513,1,,,,,,135,WORD,UN,50,bleach,IMPORT,m,,,,,,0.348474299,-0.31206668,1,0,0,,0,321,321,194,1,
,,,,,,,,,,,,,,,,,,5ec83d67cfe53914464d2062,2020-08-10_16h31.35.738,lexical_decision_task_MP,2020.1.3,Linux armv8l,60,,0,0.328363363,-0.276005569,1,0,0,0.9659,button_right,0.9659,1,,,,,,156,WORD,UN,50,depart,CRADLE,m,,,,,,0.328363363,-0.276005569,1,0,0,,0,322,322,215,1,
,,,,,,,,,,,,,,,,,,5ec83d67cfe53914464d2062,2020-08-10_16h31.35.738,lexical_decision_task_MP,2020.1.3,Linux armv8l,60,,0,-0.356102619,-0.266296831,1,0,0,0.6815,button_left,0.6815,1,,,,,,436,NW,"ID",33,frutan,FRUTAN,z,,,,,,-0.356102619,-0.266296831,1,0,0,,0,323,323,255,1,
,,,,,,,,,,,,,,,,,,5ec83d67cfe53914464d2062,2020-08-10_16h31.35.738,lexical_decision_task_MP,2020.1.3,Linux armv8l,60,,0,0.397711596,-0.303051328,1,0,0,0.6249,button_right,0.6249,1,,,,,,193,WORD,"ID",33,object,OBJECT,m,,,,,,0.397711596,-0.303051328,1,0,0,,0,324,324,12,1,
,,,,,,,,,,,,,,,,,,5ec83d67cfe53914464d2062,2020-08-10_16h31.35.738,lexical_decision_task_MP,2020.1.3,Linux armv8l,60,,0,-0.330443817,-0.274618575,1,0,0,0.6526,button_left,0.6526,1,,,,,,443,NW,"ID",33,dorsex,DORSEX,z,,,,,,-0.330443817,-0.274618575,1,0,0,,0,325,325,262,1,
,,,,,,,,,,,,,,,,,,5ec83d67cfe53914464d2062,2020-08-10_16h31.35.738,lexical_decision_task_MP,2020.1.3,Linux armv8l,60,,0,0.465672761,-0.273925115,1,0,0,0.5808,button_right,0.5808,1,,,,,,25,WORD,"ID",50,domain,DOMAIN,m,,,,,,0.465672761,-0.273925115,1,0,0,,0,326,326,84,1,
,,,,,,,,,,,,,,,,,,5ec83d67cfe53914464d2062,2020-08-10_16h31.35.738,lexical_decision_task_MP,2020.1.3,Linux armv8l,60,,0,-0.363730903,-0.285020847,1,0,0,0.6959,button_left,0.6959,1,,,,,,283,NW,"ID",50,veralf,VERALF,z,,,,,,-0.363730903,-0.285020847,1,0,0,,0,327,327,342,1,
,,,,,,,,,,,,,,,,,,5ec83d67cfe53914464d2062,2020-08-10_16h31.35.738,lexical_decision_task_MP,2020.1.3,Linux armv8l,60,,0,-0.363730903,-0.298196959,1,0,0,0.6789,button_left,0.6789,1,,,,,,412,NW,UN,50,equats,JILUER,z,,,,,,-0.363730903,-0.298196959,1,0,0,,0,328,328,471,1,
,,,,,,,,,,,,,,,,,,5ec83d67cfe53914464d2062,2020-08-10_16h31.35.738,lexical_decision_task_MP,2020.1.3,Linux armv8l,60,,0,-0.389389742,-0.279472944,1,0,0,1.1527,button_left,1.1527,1,,,,,,346,NW,UN,33,kerift,SAUDIC,z,,,,,,-0.389389742,-0.279472944,1,0,0,,0,329,329,405,1,
,,,,,,,,,,,,,,,,,,5ec83d67cfe53914464d2062,2020-08-10_16h31.35.738,lexical_decision_task_MP,2020.1.3,Linux armv8l,60,,0,0.442787837,-0.328710167,1,0,0,0.529,button_right,0.529,1,,,,,,228,WORD,"ID",33,master,MASTER,m,,,,,,0.442787837,-0.328710167,1,0,0,,0,330,330,47,1,
,,,,,,,,,,,,,,,,,,5ec83d67cfe53914464d2062,2020-08-10_16h31.35.738,lexical_decision_task_MP,2020.1.3,Linux armv8l,60,,0,0.423370361,-0.264909837,1,0,0,0.6186,button_right,0.6186,1,,,,,,159,WORD,UN,50,violet,DETAIL,m,,,,,,0.423370361,-0.264909837,1,0,0,,0,331,331,218,1,
,,,,,,,,,,,,,,,,,,5ec83d67cfe53914464d2062,2020-08-10_16h31.35.738,lexical_decision_task_MP,2020.1.3,Linux armv8l,60,,0,0.473994431,-0.328710167,1,0,0,0.4944,button_right,0.4944,1,,,,,,182,WORD,"ID",33,winter,WINTER,m,,,,,,0.473994431,-0.328710167,1,0,0,,0,332,332,1,1,
,,,,,,,,,,,,,,,,,,5ec83d67cfe53914464d2062,2020-08-10_16h31.35.738,lexical_decision_task_MP,2020.1.3,Linux armv8l,60,,0,0.508668474,-0.302357942,1,0,0,0.5278,button_right,0.5278,1,,,,,,64,WORD,UN,33,symbol,THRONE,m,,,,,,0.508668474,-0.302357942,1,0,0,,0,333,333,123,1,
,,,,,,,,,,,,,,,,,,5ec83d67cfe53914464d2062,2020-08-10_16h31.35.738,lexical_decision_task_MP,2020.1.3,Linux armv8l,60,,0,0.43585294,-0.269070746,1,0,0,0.6385,button_right,0.6385,1,,,,,,116,WORD,UN,33,branch,TUMBLE,m,,,,,,0.43585294,-0.269070746,1,0,0,,0,334,334,175,1,
,,,,,,,,,,,,,,,,,,5ec83d67cfe53914464d2062,2020-08-10_16h31.35.738,lexical_decision_task_MP,2020.1.3,Linux armv8l,60,,0,-0.419902913,-0.296116505,1,0,0,0.7079,button_left,0.7079,1,,,,,,459,NW,"ID",33,bafent,BAFENT,z,,,,,,-0.419902913,-0.296116505,1,0,0,,0,335,335,278,1,
,,,,,,,,,,,,,,,,,,5ec83d67cfe53914464d2062,2020-08-10_16h31.35.738,lexical_decision_task_MP,2020.1.3,Linux armv8l,60,,0,-0.353328705,-0.279472944,1,0,0,0.6953,button_left,0.6953,1,,,,,,446,NW,"ID",33,runamo,RUNAMO,z,,,,,,-0.353328705,-0.279472944,1,0,0,,0,336,336,265,1,
,,,,,,,,,,,,,,,,,,5ec83d67cfe53914464d2062,2020-08-10_16h31.35.738,lexical_decision_task_MP,2020.1.3,Linux armv8l,60,,0,-0.365811357,-0.305825243,1,0,0,0.8791,button_left,0.8791,1,,,,,,425,NW,"ID",33,frudge,FRUDGE,z,,,,,,-0.365811357,-0.305825243,1,0,0,,0,337,337,244,1,
,,,,,,,,,,,,,,,,,,5ec83d67cfe53914464d2062,2020-08-10_16h31.35.738,lexical_decision_task_MP,2020.1.3,Linux armv8l,60,,0,0.327669903,-0.232316249,1,0,0,0.6938,button_right,0.6938,1,,,,,,179,WORD,UN,50,silent,BASKET,m,,,,,,0.327669903,-0.232316249,1,0,0,,0,338,338,238,1,
,,,,,,,,,,,,,,,,,,5ec83d67cfe53914464d2062,2020-08-10_16h31.35.738,lexical_decision_task_MP,2020.1.3,Linux armv8l,60,,0,0.400485437,-0.300970874,1,0,0,0.6979,button_right,0.6979,1,,,,,,165,WORD,UN,50,starch,INVEST,m,,,,,,0.400485437,-0.300970874,1,0,0,,0,339,339,224,1,
,,,,,,,,,,,,,,,,,,5ec83d67cfe53914464d2062,2020-08-10_16h31.35.738,lexical_decision_task_MP,2020.1.3,Linux armv8l,60,,0,0.345006998,-0.294729585,1,0,0,0.7476,button_right,0.7476,1,,,,,,138,WORD,UN,50,debris,MELODY,m,,,,,,0.345006998,-0.294729585,1,0,0,,0,340,340,197,1,
,,,,,,,,,,,,,,,,,,5ec83d67cfe53914464d2062,2020-08-10_16h31.35.738,lexical_decision_task_MP,2020.1.3,Linux armv8l,60,,0,-0.363037443,-0.262829382,1,0,0,0.7157,button_left,0.7157,1,,,,,,251,NW,"ID",50,lupict,LUPICT,z,,,,,,-0.363037443,-0.262829382,1,0,0,,0,341,341,310,1,
